counterbalance_lists.group,counterbalance_lists.remaining,get_list.started,get_list.stopped,participant,session,date,expName,psychopyVersion,OS,frameRate,Instructions.started,Instructions.stopped,key_resp.keys,instr_done_touch.x,instr_done_touch.y,instr_done_touch.leftButton,instr_done_touch.midButton,instr_done_touch.rightButton,instr_done_touch.clicked_name,start_instr.thisRepN,start_instr.thisTrialN,start_instr.thisN,start_instr.thisIndex,start_instr.ran,pageN,phase,instruct_text,has_image,instruct_image,key_resp.rt,key_resp.duration,showProgress.started,showProgress.stopped,fix.started,fix.stopped,prac.started,prac.stopped,response.keys,response.corr,response.rt,response.duration,touch_resp.x,touch_resp.y,touch_resp.leftButton,touch_resp.midButton,touch_resp.rightButton,touch_resp.time,touch_resp.clicked_name,rt,corr,feedback.started,feedback.stopped,trials.thisRepN,trials.thisTrialN,trials.thisN,trials.thisIndex,trials.ran,TrialID,StimulusType,Condition,PrimeDuration,Prime,Target,corrAns,Instructions_expt.started,Instructions_expt.stopped,key_resp_3.keys,key_resp_3.rt,key_resp_3.duration,instr_done_touch_3.x,instr_done_touch_3.y,instr_done_touch_3.leftButton,instr_done_touch_3.midButton,instr_done_touch_3.rightButton,instr_experiment.thisRepN,instr_experiment.thisTrialN,instr_experiment.thisN,instr_experiment.thisIndex,instr_experiment.ran,trialID,flag,maintask.started,maintask.stopped,key_resp_2.keys,key_resp_2.corr,key_resp_2.rt,key_resp_2.duration,targ_click.x,targ_click.y,targ_click.leftButton,targ_click.midButton,targ_click.rightButton,targ_click.time,targ_click.clicked_name,ITI.started,ITI.stopped,probe.started,probe.stopped,click_probe.x,click_probe.y,click_probe.leftButton,click_probe.midButton,click_probe.rightButton,click_probe.time,click_probe.clicked_name,key_resp_probe.keys,Break.started,Break.stopped,break_done_touch.x,break_done_touch.y,break_done_touch.leftButton,break_done_touch.midButton,break_done_touch.rightButton,break_done_keyboard.keys,list3_trials.thisRepN,list3_trials.thisTrialN,list3_trials.thisN,list3_trials.thisIndex,list3_trials.ran,list_id,item_type,string,font,stim_file,key_resp_probe.rt,key_resp_probe.duration,break_done_keyboard.rt,break_done_keyboard.duration,End.started,End.stopped
list3,,0.5144,0.5146,27851,001,2025-10-20_11h42.34.556,HW_LDT_1,2024.2.4,MacIntel,58.82352941,,,,,,,,,,,,,,,,,,,,,,,,,,,,,,,,,,,,,,,,,,,,,,,,,,,,,,,,,,,,,,,,,,,,,,,,,,,,,,,,,,,,,,,,,,,,,,,,,,,,,,,,,,,,,,,,,,,,,,,,
,,,,27851,001,2025-10-20_11h42.34.556,HW_LDT_1,2024.2.4,MacIntel,58.82352941,0.5394,30.5955,,0.008903876,-0.391385159,1,0,0,instr_done_button,0,0,0,0,1,1,instructions,"INSTRUCTIONS
At the start of each trial, look at the plus sign  (+) in the center of the screen.  This tells you that a trial is about to begin and where to look. Second, the plus sign will disappear and a string of letters will appear. Your task is to determine if the string of letters is a word or not. If the item is a word press the M key (on keyboard)  or touch the word button (phone/tablet).  If the item is not a word,  press the  Z key (on keyboard)  or touch the nonword button (on phone/tablet). The items will be presented for a short time. 
Press the space bar or touch  continue.",0,,,,,,,,,,,,,,,,,,,,,,,,,,,,,,,,,,,,,,,,,,,,,,,,,,,,,,,,,,,,,,,,,,,,,,,,,,,,,,,,,,,,,,,,,,,,,,,,,,,,,,
,,,,27851,001,2025-10-20_11h42.34.556,HW_LDT_1,2024.2.4,MacIntel,58.82352941,30.597,36.8754,space,0.008903876,-0.391385159,0,0,0,,0,1,1,1,1,2,instructions,"If your device has a keyboard, press the 'Z' key for nonwords and the 'M' key for words.





Press the space bar or touch the button below to continue.",0,keyboard-example.gif,6.2569,,,,,,,,,,,,,,,,,,,,,,,,,,,,,,,,,,,,,,,,,,,,,,,,,,,,,,,,,,,,,,,,,,,,,,,,,,,,,,,,,,,,,,,,,,,,,,,,,,,,
,,,,27851,001,2025-10-20_11h42.34.556,HW_LDT_1,2024.2.4,MacIntel,58.82352941,36.877,38.6074,space,0.008903876,-0.391385159,0,0,0,,0,2,2,2,1,3,instructions,"If you are using a touchscreen only device, use the buttons on the screen. Do not use the mouse.





Press the space bar or touch the button below to continue.",0,touchscreen-example.gif,1.7045,,,,,,,,,,,,,,,,,,,,,,,,,,,,,,,,,,,,,,,,,,,,,,,,,,,,,,,,,,,,,,,,,,,,,,,,,,,,,,,,,,,,,,,,,,,,,,,,,,,,
,,,,27851,001,2025-10-20_11h42.34.556,HW_LDT_1,2024.2.4,MacIntel,58.82352941,38.6096,46.3856,space,0.008903876,-0.391385159,0,0,0,,0,3,3,3,1,4,instructions,"It is very important that you respond as quickly and accurately as possible, as each letter string will only be on the screen for two seconds. If you do not respond within this time, the message 'Too slow!' will be displayed and the experiment will progress to the next letter string. The first 20 trials will be practice trials and you will receive feedback on your answers. 

Press the space bar or touch the button below to start the practice trials.",0,,7.7534,,,,,,,,,,,,,,,,,,,,,,,,,,,,,,,,,,,,,,,,,,,,,,,,,,,,,,,,,,,,,,,,,,,,,,,,,,,,,,,,,,,,,,,,,,,,,,,,,,,,
,,,,27851,001,2025-10-20_11h42.34.556,HW_LDT_1,2024.2.4,MacIntel,58.82352941,,,,,,,,,,,,,,,,,,,,,,46.414,46.5855,46.5858,47.0839,47.0842,48.4002,z,1,1.2915,,[],[],[],[],[],[],[],1.2915,1,48.4006,48.9005,0,0,0,15,1,1016,NW,UN,16,mushed,WHAISE,z,,,,,,,,,,,,,,,,,,,,,,,,,,,,,,,,,,,,,,,,,,,,,,,,,,,,,,,,,,,,,,,,,,
,,,,27851,001,2025-10-20_11h42.34.556,HW_LDT_1,2024.2.4,MacIntel,58.82352941,,,,,,,,,,,,,,,,,,,,,,48.9027,49.1001,49.1002,49.6003,49.6016,50.4817,z,1,0.8619,,[],[],[],[],[],[],[],0.8619,1,50.4818,50.9826,0,1,1,12,1,1013,NW,UN,33,adveil,SPRINY,z,,,,,,,,,,,,,,,,,,,,,,,,,,,,,,,,,,,,,,,,,,,,,,,,,,,,,,,,,,,,,,,,,,
,,,,27851,001,2025-10-20_11h42.34.556,HW_LDT_1,2024.2.4,MacIntel,58.82352941,,,,,,,,,,,,,,,,,,,,,,50.9841,51.1818,51.1819,51.6825,51.6836,52.6302,m,1,0.9291,,[],[],[],[],[],[],[],0.9291,1,52.6304,53.1303,0,2,2,3,1,1004,WORD,"ID",16,matrix,MATRIX,m,,,,,,,,,,,,,,,,,,,,,,,,,,,,,,,,,,,,,,,,,,,,,,,,,,,,,,,,,,,,,,,,,,
,,,,27851,001,2025-10-20_11h42.34.556,HW_LDT_1,2024.2.4,MacIntel,58.82352941,,,,,,,,,,,,,,,,,,,,,,53.1315,53.331,53.331,53.8302,53.8316,54.4799,m,1,0.6296,,[],[],[],[],[],[],[],0.6296,1,54.48,54.9804,0,3,3,2,1,1003,WORD,"ID",16,almond,ALMOND,m,,,,,,,,,,,,,,,,,,,,,,,,,,,,,,,,,,,,,,,,,,,,,,,,,,,,,,,,,,,,,,,,,,
,,,,27851,001,2025-10-20_11h42.34.556,HW_LDT_1,2024.2.4,MacIntel,58.82352941,,,,,,,,,,,,,,,,,,,,,,54.982,55.1802,55.1803,55.6787,55.6801,56.3952,z,1,0.7013,,[],[],[],[],[],[],[],0.7013,1,56.3953,56.8944,0,4,4,11,1,1012,NW,"ID",16,rashet,RASHET,z,,,,,,,,,,,,,,,,,,,,,,,,,,,,,,,,,,,,,,,,,,,,,,,,,,,,,,,,,,,,,,,,,,
,,,,27851,001,2025-10-20_11h42.34.556,HW_LDT_1,2024.2.4,MacIntel,58.82352941,,,,,,,,,,,,,,,,,,,,,,56.8959,57.0956,57.0957,57.5941,57.5954,58.2605,m,1,0.6448,,[],[],[],[],[],[],[],0.6448,1,58.2609,58.7608,0,5,5,6,1,1007,WORD,UN,16,tropic,ZOMBIE,m,,,,,,,,,,,,,,,,,,,,,,,,,,,,,,,,,,,,,,,,,,,,,,,,,,,,,,,,,,,,,,,,,,
,,,,27851,001,2025-10-20_11h42.34.556,HW_LDT_1,2024.2.4,MacIntel,58.82352941,,,,,,,,,,,,,,,,,,,,,,58.7626,58.9604,58.9604,59.4601,59.4611,60.0919,m,1,0.6149,,[],[],[],[],[],[],[],0.6149,1,60.092,60.5922,0,6,6,4,1,1005,WORD,UN,33,abound,SQUEAK,m,,,,,,,,,,,,,,,,,,,,,,,,,,,,,,,,,,,,,,,,,,,,,,,,,,,,,,,,,,,,,,,,,,
,,,,27851,001,2025-10-20_11h42.34.556,HW_LDT_1,2024.2.4,MacIntel,58.82352941,,,,,,,,,,,,,,,,,,,,,,60.5937,60.7924,60.7925,61.2921,61.2929,61.9587,m,1,0.6488,,[],[],[],[],[],[],[],0.6488,1,61.9588,62.4576,0,7,7,5,1,1006,WORD,UN,33,frenzy,OBTAIN,m,,,,,,,,,,,,,,,,,,,,,,,,,,,,,,,,,,,,,,,,,,,,,,,,,,,,,,,,,,,,,,,,,,
,,,,27851,001,2025-10-20_11h42.34.556,HW_LDT_1,2024.2.4,MacIntel,58.82352941,,,,,,,,,,,,,,,,,,,,,,62.4585,62.6579,62.6579,63.1579,63.1586,63.8568,z,1,0.6804,,[],[],[],[],[],[],[],0.6804,1,63.8569,64.3558,0,8,8,13,1,1014,NW,UN,33,winfer,ROUPET,z,,,,,,,,,,,,,,,,,,,,,,,,,,,,,,,,,,,,,,,,,,,,,,,,,,,,,,,,,,,,,,,,,,
,,,,27851,001,2025-10-20_11h42.34.556,HW_LDT_1,2024.2.4,MacIntel,58.82352941,,,,,,,,,,,,,,,,,,,,,,64.3565,64.5561,64.5561,65.0567,65.0577,65.823,z,1,0.748,,[],[],[],[],[],[],[],0.748,1,65.823,66.3221,0,9,9,9,1,1010,NW,"ID",33,fariny,FARINY,z,,,,,,,,,,,,,,,,,,,,,,,,,,,,,,,,,,,,,,,,,,,,,,,,,,,,,,,,,,,,,,,,,,
,,,,27851,001,2025-10-20_11h42.34.556,HW_LDT_1,2024.2.4,MacIntel,58.82352941,,,,,,,,,,,,,,,,,,,,,,66.3232,66.5214,66.5214,67.0206,67.0211,67.8204,z,1,0.7849,,[],[],[],[],[],[],[],0.7849,1,67.8205,68.3207,0,10,10,10,1,1011,NW,"ID",16,inlade,INLADE,z,,,,,,,,,,,,,,,,,,,,,,,,,,,,,,,,,,,,,,,,,,,,,,,,,,,,,,,,,,,,,,,,,,
,,,,27851,001,2025-10-20_11h42.34.556,HW_LDT_1,2024.2.4,MacIntel,58.82352941,,,,,,,,,,,,,,,,,,,,,,68.3221,68.521,68.521,69.0197,69.0204,69.9036,z,1,0.8634,,[],[],[],[],[],[],[],0.8634,1,69.9037,70.4026,0,11,11,8,1,1009,NW,"ID",33,aslert,ASLERT,z,,,,,,,,,,,,,,,,,,,,,,,,,,,,,,,,,,,,,,,,,,,,,,,,,,,,,,,,,,,,,,,,,,
,,,,27851,001,2025-10-20_11h42.34.556,HW_LDT_1,2024.2.4,MacIntel,58.82352941,,,,,,,,,,,,,,,,,,,,,,70.4046,70.6021,70.6021,71.1019,71.1028,71.7521,m,1,0.6307,,[],[],[],[],[],[],[],0.6307,1,71.7523,72.2522,0,12,12,1,1,1002,WORD,"ID",33,adjust,ADJUST,m,,,,,,,,,,,,,,,,,,,,,,,,,,,,,,,,,,,,,,,,,,,,,,,,,,,,,,,,,,,,,,,,,,
,,,,27851,001,2025-10-20_11h42.34.556,HW_LDT_1,2024.2.4,MacIntel,58.82352941,,,,,,,,,,,,,,,,,,,,,,72.2536,72.4505,72.4505,72.9501,72.9509,73.7166,z,1,0.745,,[],[],[],[],[],[],[],0.745,1,73.7168,74.2164,0,13,13,14,1,1015,NW,UN,16,miaber,THRALE,z,,,,,,,,,,,,,,,,,,,,,,,,,,,,,,,,,,,,,,,,,,,,,,,,,,,,,,,,,,,,,,,,,,
,,,,27851,001,2025-10-20_11h42.34.556,HW_LDT_1,2024.2.4,MacIntel,58.82352941,,,,,,,,,,,,,,,,,,,,,,74.2177,74.4157,74.4157,74.9157,74.9166,75.6158,m,1,0.6808,,[],[],[],[],[],[],[],0.6808,1,75.6159,76.1154,0,14,14,7,1,1008,WORD,UN,16,hurdle,VOLUME,m,,,,,,,,,,,,,,,,,,,,,,,,,,,,,,,,,,,,,,,,,,,,,,,,,,,,,,,,,,,,,,,,,,
,,,,27851,001,2025-10-20_11h42.34.556,HW_LDT_1,2024.2.4,MacIntel,58.82352941,,,,,,,,,,,,,,,,,,,,,,76.116,76.3148,76.3148,76.8151,76.8158,77.5473,m,1,0.7156,,[],[],[],[],[],[],[],0.7156,1,77.5475,78.0475,0,15,15,0,1,1001,WORD,"ID",33,utopia,UTOPIA,m,,,,,,,,,,,,,,,,,,,,,,,,,,,,,,,,,,,,,,,,,,,,,,,,,,,,,,,,,,,,,,,,,,
,,,,27851,001,2025-10-20_11h42.34.556,HW_LDT_1,2024.2.4,MacIntel,58.82352941,,,,,,,,,,,,,,,1,end_of_practice,"You have completed the practice trials. During the experimental trials, you will not receive feedback. On some trials you will be asked to report whether the item you just saw was in cursive or print. 
Before you begin, please ensure that you are in a comfortable and quiet location and will not be disturbed for about 15 minutes, as we cannot use your data if you do not complete all the trials. 
 When you are ready to start the experimental trials, please press space or touch the button below.",,,,,,,,,,,,,,,,,,,,,,,,,,,,,,,,,,,,,,78.0539,88.807,space,10.7288,,0.008903876,-0.391385159,0,0,0,0,0,0,0,1,,,,,,,,,,,,,,,,,,,,,,,,,,,,,,,,,,,,,,,,,,,,,,,,,,,
,,,,27851,001,2025-10-20_11h42.34.556,HW_LDT_1,2024.2.4,MacIntel,58.82352941,,,,,,,,,,,,,,,,,,,,,,88.827,89.0063,89.0064,89.507,,,,,,,,,,,,,,1.2264,1,,,,,,,,,,,,,,z,,,,,,,,,,,,,,,,1,0,89.5088,90.7392,z,1,1.2264,,[],[],[],[],[],[],[],90.7393,92.7378,92.738,92.7421,[],[],[],[],[],[],[],,92.7423,92.7449,0.008903876,-0.391385159,0,0,0,,0,0,0,11,1,3,RL,ebiwent,cursive,ebiwent_c.png,,,,,,
,,,,27851,001,2025-10-20_11h42.34.556,HW_LDT_1,2024.2.4,MacIntel,58.82352941,,,,,,,,,,,,,,,,,,,,,,92.7457,92.9371,92.9372,93.4379,,,,,,,,,,,,,,1.9944,0,,,,,,,,,,,,,,z,,,,,,,,,,,,,,,,2,0,93.4387,95.4352,m,0,1.9944,,[],[],[],[],[],[],[],95.4352,97.4354,97.4355,97.4358,[],[],[],[],[],[],[],,97.4359,97.436,0.008903876,-0.391385159,0,0,0,,0,1,1,68,1,3,TL,revomal,cursive,revomal_c.png,,,,,,
,,,,27851,001,2025-10-20_11h42.34.556,HW_LDT_1,2024.2.4,MacIntel,58.82352941,,,,,,,,,,,,,,,,,,,,,,97.4375,97.6349,97.6349,98.1336,,,,,,,,,,,,,,0.8228,1,,,,,,,,,,,,,,m,,,,,,,,,,,,,,,,3,0,98.134,98.9673,m,1,0.8228,,[],[],[],[],[],[],[],98.9674,100.9658,100.9658,100.9661,[],[],[],[],[],[],[],,100.9662,100.9663,0.008903876,-0.391385159,0,0,0,,0,2,2,102,1,3,word,DENSITY,print,density_p.png,,,,,,
,,,,27851,001,2025-10-20_11h42.34.556,HW_LDT_1,2024.2.4,MacIntel,58.82352941,,,,,,,,,,,,,,,,,,,,,,100.968,101.1661,101.1662,101.6646,,,,,,,,,,,,,,0.993,1,,,,,,,,,,,,,,m,,,,,,,,,,,,,,,,4,0,101.6651,102.6643,m,1,0.993,,[],[],[],[],[],[],[],102.6644,104.6625,104.6626,104.6627,[],[],[],[],[],[],[],,104.6628,104.6629,0.008903876,-0.391385159,0,0,0,,0,3,3,88,1,3,word,CAMERA,cursive,camera_c.png,,,,,,
,,,,27851,001,2025-10-20_11h42.34.556,HW_LDT_1,2024.2.4,MacIntel,58.82352941,,,,,,,,,,,,,,,,,,,,,,104.6642,104.8623,104.8624,105.3634,,,,,,,,,,,,,,0.8415,1,,,,,,,,,,,,,,m,,,,,,,,,,,,,,,,5,1,105.3642,106.2126,m,1,0.8415,,[],[],[],[],[],[],[],106.2127,108.2115,108.2116,109.8935,[],[],[],[],[],[],[],z,109.8935,109.8936,0.008903876,-0.391385159,0,0,0,,0,4,4,157,1,3,word,VALIDITY,cursive,validity_c.png,1.6744,,,,,
,,,,27851,001,2025-10-20_11h42.34.556,HW_LDT_1,2024.2.4,MacIntel,58.82352941,,,,,,,,,,,,,,,,,,,,,,109.8944,110.0932,110.0932,110.5924,,,,,,,,,,,,,,1.1244,1,,,,,,,,,,,,,,z,,,,,,,,,,,,,,,,6,0,110.5932,111.7248,z,1,1.1244,,[],[],[],[],[],[],[],111.725,113.7236,113.7237,113.724,[],[],[],[],[],[],[],,113.7241,113.7241,0.008903876,-0.391385159,0,0,0,,0,5,5,64,1,3,TL,radiply,print,radiply_p.png,,,,,,
,,,,27851,001,2025-10-20_11h42.34.556,HW_LDT_1,2024.2.4,MacIntel,58.82352941,,,,,,,,,,,,,,,,,,,,,,113.7251,113.9241,113.9242,114.4238,,,,,,,,,,,,,,0.8555,1,,,,,,,,,,,,,,m,,,,,,,,,,,,,,,,7,0,114.4243,115.2888,m,1,0.8555,,[],[],[],[],[],[],[],115.2889,117.2884,117.2885,117.289,[],[],[],[],[],[],[],,117.2891,117.2892,0.008903876,-0.391385159,0,0,0,,0,6,6,106,1,3,word,ELABORATE,print,elaborate_p.png,,,,,,
,,,,27851,001,2025-10-20_11h42.34.556,HW_LDT_1,2024.2.4,MacIntel,58.82352941,,,,,,,,,,,,,,,,,,,,,,117.2902,117.488,117.4881,117.9876,,,,,,,,,,,,,,0.8098,1,,,,,,,,,,,,,,m,,,,,,,,,,,,,,,,8,0,117.9879,118.8036,m,1,0.8098,,[],[],[],[],[],[],[],118.8037,120.803,120.8031,120.8033,[],[],[],[],[],[],[],,120.8034,120.8036,0.008903876,-0.391385159,0,0,0,,0,7,7,155,1,3,word,STRATEGY,print,strategy_p.png,,,,,,
,,,,27851,001,2025-10-20_11h42.34.556,HW_LDT_1,2024.2.4,MacIntel,58.82352941,,,,,,,,,,,,,,,,,,,,,,120.8047,121.0027,121.0028,121.5017,,,,,,,,,,,,,,2.4416,0,,,,,,,,,,,,,,m,,,,,,,,,,,,,,,,9,0,121.5023,123.951,z,0,2.4416,,[],[],[],[],[],[],[],123.9511,125.9497,125.9498,125.95,[],[],[],[],[],[],[],,125.9501,125.9503,0.008903876,-0.391385159,0,0,0,,0,8,8,109,1,3,word,GRATEFUL,cursive,grateful_c.png,,,,,,
,,,,27851,001,2025-10-20_11h42.34.556,HW_LDT_1,2024.2.4,MacIntel,58.82352941,,,,,,,,,,,,,,,,,,,,,,125.952,126.149,126.1491,126.6484,,,,,,,,,,,,,,2.1388,1,,,,,,,,,,,,,,z,,,,,,,,,,,,,,,,10,0,126.6488,128.7966,z,1,2.1388,,[],[],[],[],[],[],[],128.7967,130.7962,130.7963,130.7966,[],[],[],[],[],[],[],,130.7966,130.7974,0.008903876,-0.391385159,0,0,0,,0,9,9,6,1,3,RL,cenesony,cursive,cenesony_c.png,,,,,,
,,,,27851,001,2025-10-20_11h42.34.556,HW_LDT_1,2024.2.4,MacIntel,58.82352941,,,,,,,,,,,,,,,,,,,,,,130.7984,130.9961,130.9962,131.4955,,,,,,,,,,,,,,0.7045,1,,,,,,,,,,,,,,m,,,,,,,,,,,,,,,,11,0,131.4963,132.2122,m,1,0.7045,,[],[],[],[],[],[],[],132.2123,134.2106,134.2106,134.2109,[],[],[],[],[],[],[],,134.211,134.2111,0.008903876,-0.391385159,0,0,0,,0,10,10,101,1,3,word,DELICATE,print,delicate_p.png,,,,,,
,,,,27851,001,2025-10-20_11h42.34.556,HW_LDT_1,2024.2.4,MacIntel,58.82352941,,,,,,,,,,,,,,,,,,,,,,134.2122,134.4095,134.4096,134.9098,,,,,,,,,,,,,,1.6072,1,,,,,,,,,,,,,,z,,,,,,,,,,,,,,,,12,0,134.9102,136.5255,z,1,1.6072,,[],[],[],[],[],[],[],136.5256,138.5246,138.5247,138.5248,[],[],[],[],[],[],[],,138.5248,138.5249,0.008903876,-0.391385159,0,0,0,,0,11,11,32,1,3,TL,adacemy,print,adacemy_p.png,,,,,,
,,,,27851,001,2025-10-20_11h42.34.556,HW_LDT_1,2024.2.4,MacIntel,58.82352941,,,,,,,,,,,,,,,,,,,,,,138.5262,138.7244,138.7245,139.2235,,,,,,,,,,,,,,2.5939,1,,,,,,,,,,,,,,z,,,,,,,,,,,,,,,,13,0,139.224,141.8211,z,1,2.5939,,[],[],[],[],[],[],[],141.8212,143.8206,143.8206,143.8212,[],[],[],[],[],[],[],,143.8214,143.8215,0.008903876,-0.391385159,0,0,0,,0,12,12,48,1,3,TL,grafetul,cursive,grafetul_c.png,,,,,,
,,,,27851,001,2025-10-20_11h42.34.556,HW_LDT_1,2024.2.4,MacIntel,58.82352941,,,,,,,,,,,,,,,,,,,,,,143.8229,144.0201,144.0202,144.5207,,,,,,,,,,,,,,2.8535,1,,,,,,,,,,,,,,z,,,,,,,,,,,,,,,,14,0,144.5214,147.3843,z,1,2.8535,,[],[],[],[],[],[],[],147.3844,149.3835,149.3835,149.3838,[],[],[],[],[],[],[],,149.3838,149.384,0.008903876,-0.391385159,0,0,0,,0,13,13,79,1,3,TL,veretan,cursive,veretan_c.png,,,,,,
,,,,27851,001,2025-10-20_11h42.34.556,HW_LDT_1,2024.2.4,MacIntel,58.82352941,,,,,,,,,,,,,,,,,,,,,,149.385,149.5833,149.5833,150.0838,,,,,,,,,,,,,,0.7072,1,,,,,,,,,,,,,,m,,,,,,,,,,,,,,,,15,0,150.0845,150.7987,m,1,0.7072,,[],[],[],[],[],[],[],150.7987,152.7972,152.7973,152.7976,[],[],[],[],[],[],[],,152.7976,152.7977,0.008903876,-0.391385159,0,0,0,,0,14,14,146,1,3,word,RETIRE,print,retire_p.png,,,,,,
,,,,27851,001,2025-10-20_11h42.34.556,HW_LDT_1,2024.2.4,MacIntel,58.82352941,,,,,,,,,,,,,,,,,,,,,,152.7988,152.9975,152.9975,153.4971,,,,,,,,,,,,,,0.8274,1,,,,,,,,,,,,,,z,,,,,,,,,,,,,,,,16,0,153.4977,154.3307,z,1,0.8274,,[],[],[],[],[],[],[],154.3308,156.3289,156.329,156.3291,[],[],[],[],[],[],[],,156.3292,156.3293,0.008903876,-0.391385159,0,0,0,,0,15,15,0,1,3,RL,afaneur,print,afaneur_p.png,,,,,,
,,,,27851,001,2025-10-20_11h42.34.556,HW_LDT_1,2024.2.4,MacIntel,58.82352941,,,,,,,,,,,,,,,,,,,,,,156.3301,156.5286,156.5286,157.0277,,,,,,,,,,,,,,1.694,1,,,,,,,,,,,,,,z,,,,,,,,,,,,,,,,17,0,157.0282,158.7265,z,1,1.694,,[],[],[],[],[],[],[],158.7266,160.7258,160.7259,160.726,[],[],[],[],[],[],[],,160.7261,160.7262,0.008903876,-0.391385159,0,0,0,,0,16,16,19,1,3,RL,opcifal,cursive,opcifal_c.png,,,,,,
,,,,27851,001,2025-10-20_11h42.34.556,HW_LDT_1,2024.2.4,MacIntel,58.82352941,,,,,,,,,,,,,,,,,,,,,,160.7278,160.9266,160.9266,161.4249,,,,,,,,,,,,,,0.8294,1,,,,,,,,,,,,,,z,,,,,,,,,,,,,,,,18,0,161.4255,162.2576,z,1,0.8294,,[],[],[],[],[],[],[],162.2577,164.2568,164.2569,164.257,[],[],[],[],[],[],[],,164.2571,164.2572,0.008903876,-0.391385159,0,0,0,,0,17,17,9,1,3,RL,docirant,print,docirant_p.png,,,,,,
,,,,27851,001,2025-10-20_11h42.34.556,HW_LDT_1,2024.2.4,MacIntel,58.82352941,,,,,,,,,,,,,,,,,,,,,,164.259,164.4568,164.4569,164.9563,,,,,,,,,,,,,,0.7078,1,,,,,,,,,,,,,,m,,,,,,,,,,,,,,,,19,0,164.9569,165.6722,m,1,0.7078,,[],[],[],[],[],[],[],165.6722,167.6723,167.6723,167.6725,[],[],[],[],[],[],[],,167.6725,167.6727,0.008903876,-0.391385159,0,0,0,,0,18,18,129,1,3,word,PARENT,print,parent_p.png,,,,,,
,,,,27851,001,2025-10-20_11h42.34.556,HW_LDT_1,2024.2.4,MacIntel,58.82352941,,,,,,,,,,,,,,,,,,,,,,167.674,167.8714,167.8715,168.3714,,,,,,,,,,,,,,0.7094,1,,,,,,,,,,,,,,z,,,,,,,,,,,,,,,,20,0,168.3723,169.0868,z,1,0.7094,,[],[],[],[],[],[],[],169.0869,171.0857,171.0857,171.086,[],[],[],[],[],[],[],,171.0861,171.0862,0.008903876,-0.391385159,0,0,0,,0,19,19,46,1,3,TL,distupe,print,distupe_p.png,,,,,,
,,,,27851,001,2025-10-20_11h42.34.556,HW_LDT_1,2024.2.4,MacIntel,58.82352941,,,,,,,,,,,,,,,,,,,,,,171.0877,171.2867,171.2868,171.786,,,,,,,,,,,,,,0.8765,1,,,,,,,,,,,,,,m,,,,,,,,,,,,,,,,21,1,171.7866,172.6685,m,1,0.8765,,[],[],[],[],[],[],[],172.6687,174.6673,174.6675,176.0652,[],[],[],[],[],[],[],m,176.0653,176.0654,0.008903876,-0.391385159,0,0,0,,0,20,20,131,1,3,word,POPULAR,print,popular_p.png,1.3911,,,,,
,,,,27851,001,2025-10-20_11h42.34.556,HW_LDT_1,2024.2.4,MacIntel,58.82352941,,,,,,,,,,,,,,,,,,,,,,176.0661,176.2651,176.2652,176.7655,,,,,,,,,,,,,,0.8743,1,,,,,,,,,,,,,,z,,,,,,,,,,,,,,,,22,0,176.7658,177.6473,z,1,0.8743,,[],[],[],[],[],[],[],177.6473,179.6471,179.6471,179.6472,[],[],[],[],[],[],[],,179.6473,179.6473,0.008903876,-0.391385159,0,0,0,,0,21,21,47,1,3,TL,elarobate,print,elarobate_p.png,,,,,,
,,,,27851,001,2025-10-20_11h42.34.556,HW_LDT_1,2024.2.4,MacIntel,58.82352941,,,,,,,,,,,,,,,,,,,,,,179.6481,179.8464,179.8465,180.3466,,,,,,,,,,,,,,0.76,1,,,,,,,,,,,,,,m,,,,,,,,,,,,,,,,23,1,180.347,181.113,m,1,0.76,,[],[],[],[],[],[],[],181.113,183.1112,183.1113,184.3445,[],[],[],[],[],[],[],m,184.3445,184.3446,0.008903876,-0.391385159,0,0,0,,0,22,22,98,1,3,word,CRIMINAL,print,criminal_p.png,1.2274,,,,,
,,,,27851,001,2025-10-20_11h42.34.556,HW_LDT_1,2024.2.4,MacIntel,58.82352941,,,,,,,,,,,,,,,,,,,,,,184.3456,184.5426,184.5426,185.043,,,,,,,,,,,,,,1.3751,1,,,,,,,,,,,,,,m,,,,,,,,,,,,,,,,24,0,185.044,186.4261,m,1,1.3751,,[],[],[],[],[],[],[],186.4262,188.4246,188.4248,188.4251,[],[],[],[],[],[],[],,188.4251,188.4253,0.008903876,-0.391385159,0,0,0,,0,23,23,117,1,3,word,MARINE,cursive,marine_c.png,,,,,,
,,,,27851,001,2025-10-20_11h42.34.556,HW_LDT_1,2024.2.4,MacIntel,58.82352941,,,,,,,,,,,,,,,,,,,,,,188.4269,188.625,188.625,189.1244,,,,,,,,,,,,,,0.7293,1,,,,,,,,,,,,,,z,,,,,,,,,,,,,,,,25,0,189.1251,189.8569,z,1,0.7293,,[],[],[],[],[],[],[],189.857,191.8559,191.856,191.8563,[],[],[],[],[],[],[],,191.8564,191.8565,0.008903876,-0.391385159,0,0,0,,0,24,24,27,1,3,RL,recile,print,recile_p.png,,,,,,
,,,,27851,001,2025-10-20_11h42.34.556,HW_LDT_1,2024.2.4,MacIntel,58.82352941,,,,,,,,,,,,,,,,,,,,,,191.858,192.0557,192.0557,192.5545,,,,,,,,,,,,,,0.804,1,,,,,,,,,,,,,,m,,,,,,,,,,,,,,,,26,0,192.5551,193.3719,m,1,0.804,,[],[],[],[],[],[],[],193.372,195.369,195.369,195.3692,[],[],[],[],[],[],[],,195.3693,195.3695,0.008903876,-0.391385159,0,0,0,,0,25,25,156,1,3,word,TRIBUTE,print,tribute_p.png,,,,,,
,,,,27851,001,2025-10-20_11h42.34.556,HW_LDT_1,2024.2.4,MacIntel,58.82352941,,,,,,,,,,,,,,,,,,,,,,195.3706,195.57,195.57,196.0688,,,,,,,,,,,,,,0.7278,1,,,,,,,,,,,,,,z,,,,,,,,,,,,,,,,27,1,196.0695,196.802,z,1,0.7278,,[],[],[],[],[],[],[],196.8021,198.8015,198.8016,200.7296,[],[],[],[],[],[],[],m,200.7296,200.7297,0.008903876,-0.391385159,0,0,0,,0,26,26,7,1,3,RL,cobeny,print,cobeny_p.png,1.9277,,,,,
,,,,27851,001,2025-10-20_11h42.34.556,HW_LDT_1,2024.2.4,MacIntel,58.82352941,,,,,,,,,,,,,,,,,,,,,,200.7301,200.9332,200.9332,201.4319,,,,,,,,,,,,,,0.6455,1,,,,,,,,,,,,,,m,,,,,,,,,,,,,,,,28,1,201.4325,202.0814,m,1,0.6455,,[],[],[],[],[],[],[],202.0815,204.0815,204.0815,205.1972,[],[],[],[],[],[],[],m,205.1973,205.1973,0.008903876,-0.391385159,0,0,0,,0,27,27,142,1,3,word,REMOTE,print,remote_p.png,1.1094,,,,,
,,,,27851,001,2025-10-20_11h42.34.556,HW_LDT_1,2024.2.4,MacIntel,58.82352941,,,,,,,,,,,,,,,,,,,,,,205.1986,205.3962,205.3963,205.8966,,,,,,,,,,,,,,1.1375,1,,,,,,,,,,,,,,m,,,,,,,,,,,,,,,,29,0,205.8973,207.0451,m,1,1.1375,,[],[],[],[],[],[],[],207.0451,209.0447,209.0449,209.0452,[],[],[],[],[],[],[],,209.0452,209.0454,0.008903876,-0.391385159,0,0,0,,0,28,28,127,1,3,word,ORIGINAL,cursive,original_c.png,,,,,,
,,,,27851,001,2025-10-20_11h42.34.556,HW_LDT_1,2024.2.4,MacIntel,58.82352941,,,,,,,,,,,,,,,,,,,,,,209.0468,209.2438,209.2438,209.7426,,,,,,,,,,,,,,1.0257,1,,,,,,,,,,,,,,m,,,,,,,,,,,,,,,,30,0,209.743,210.7762,m,1,1.0257,,[],[],[],[],[],[],[],210.7763,212.7747,212.7748,212.7749,[],[],[],[],[],[],[],,212.775,212.7751,0.008903876,-0.391385159,0,0,0,,0,29,29,151,1,3,word,SPECIFIC,print,specific_p.png,,,,,,
,,,,27851,001,2025-10-20_11h42.34.556,HW_LDT_1,2024.2.4,MacIntel,58.82352941,,,,,,,,,,,,,,,,,,,,,,212.7762,212.9749,212.975,213.4741,,,,,,,,,,,,,,0.8103,0,,,,,,,,,,,,,,z,,,,,,,,,,,,,,,,31,1,213.4749,214.2911,m,0,0.8103,,[],[],[],[],[],[],[],214.2911,216.2897,216.2898,217.4391,[],[],[],[],[],[],[],z,217.4393,217.4393,0.008903876,-0.391385159,0,0,0,,0,30,30,77,1,3,TL,vadility,cursive,vadility_c.png,1.1415,,,,,
,,,,27851,001,2025-10-20_11h42.34.556,HW_LDT_1,2024.2.4,MacIntel,58.82352941,,,,,,,,,,,,,,,,,,,,,,217.4404,217.6373,217.6373,218.1374,,,,,,,,,,,,,,1.4262,1,,,,,,,,,,,,,,m,,,,,,,,,,,,,,,,32,0,218.138,219.5702,m,1,1.4262,,[],[],[],[],[],[],[],219.5703,221.5696,221.5696,221.5699,[],[],[],[],[],[],[],,221.5699,221.5701,0.008903876,-0.391385159,0,0,0,,0,31,31,122,1,3,word,MOBILE,cursive,mobile_c.png,,,,,,
,,,,27851,001,2025-10-20_11h42.34.556,HW_LDT_1,2024.2.4,MacIntel,58.82352941,,,,,,,,,,,,,,,,,,,,,,221.5717,221.7689,221.769,222.2693,,,,,,,,,,,,,,1.4075,1,,,,,,,,,,,,,,m,,,,,,,,,,,,,,,,33,0,222.27,223.6835,m,1,1.4075,,[],[],[],[],[],[],[],223.6835,225.6825,225.6826,225.6827,[],[],[],[],[],[],[],,225.6827,225.6827,0.008903876,-0.391385159,0,0,0,,0,32,32,107,1,3,word,EVIDENT,cursive,evident_c.png,,,,,,
,,,,27851,001,2025-10-20_11h42.34.556,HW_LDT_1,2024.2.4,MacIntel,58.82352941,,,,,,,,,,,,,,,,,,,,,,225.6834,225.882,225.8821,226.3824,,,,,,,,,,,,,,1.1621,1,,,,,,,,,,,,,,m,,,,,,,,,,,,,,,,34,1,226.3828,227.5479,m,1,1.1621,,[],[],[],[],[],[],[],227.5479,229.5467,229.5467,230.529,[],[],[],[],[],[],[],z,230.5291,230.5291,0.008903876,-0.391385159,0,0,0,,0,33,33,147,1,3,word,ROMANTIC,cursive,romantic_c.png,0.9769,,,,,
,,,,27851,001,2025-10-20_11h42.34.556,HW_LDT_1,2024.2.4,MacIntel,58.82352941,,,,,,,,,,,,,,,,,,,,,,230.5304,230.7292,230.7292,231.2297,,,,,,,,,,,,,,1.56,0,,,,,,,,,,,,,,m,,,,,,,,,,,,,,,,35,0,231.2303,232.7955,z,0,1.56,,[],[],[],[],[],[],[],232.7955,234.7931,234.7932,234.7935,[],[],[],[],[],[],[],,234.7936,234.7937,0.008903876,-0.391385159,0,0,0,,0,34,34,90,1,3,word,CAPITAL,cursive,capital_c.png,,,,,,
,,,,27851,001,2025-10-20_11h42.34.556,HW_LDT_1,2024.2.4,MacIntel,58.82352941,,,,,,,,,,,,,,,,,,,,,,234.7955,234.9943,234.9943,235.4928,,,,,,,,,,,,,,1.294,1,,,,,,,,,,,,,,z,,,,,,,,,,,,,,,,36,0,235.4935,236.7926,z,1,1.294,,[],[],[],[],[],[],[],236.7927,238.7916,238.7916,238.7919,[],[],[],[],[],[],[],,238.792,238.7921,0.008903876,-0.391385159,0,0,0,,0,35,35,13,1,3,RL,helicage,cursive,helicage_c.png,,,,,,
,,,,27851,001,2025-10-20_11h42.34.556,HW_LDT_1,2024.2.4,MacIntel,58.82352941,,,,,,,,,,,,,,,,,,,,,,238.7935,238.9906,238.9907,239.4902,,,,,,,,,,,,,,2.3256,0,,,,,,,,,,,,,,m,,,,,,,,,,,,,,,,37,0,239.4907,241.8225,z,0,2.3256,,[],[],[],[],[],[],[],241.8226,243.8216,243.8216,243.8219,[],[],[],[],[],[],[],,243.822,243.8221,0.008903876,-0.391385159,0,0,0,,0,36,36,123,1,3,word,MODERATE,cursive,moderate_c.png,,,,,,
,,,,27851,001,2025-10-20_11h42.34.556,HW_LDT_1,2024.2.4,MacIntel,58.82352941,,,,,,,,,,,,,,,,,,,,,,243.8237,244.0203,244.0203,244.5211,,,,,,,,,,,,,,0.7625,1,,,,,,,,,,,,,,m,,,,,,,,,,,,,,,,38,0,244.5216,245.2869,m,1,0.7625,,[],[],[],[],[],[],[],245.287,247.2846,247.2846,247.2848,[],[],[],[],[],[],[],,247.2849,247.2849,0.008903876,-0.391385159,0,0,0,,0,37,37,141,1,3,word,RELIGION,print,religion_p.png,,,,,,
,,,,27851,001,2025-10-20_11h42.34.556,HW_LDT_1,2024.2.4,MacIntel,58.82352941,,,,,,,,,,,,,,,,,,,,,,247.2859,247.4847,247.4847,247.9845,,,,,,,,,,,,,,0.6941,1,,,,,,,,,,,,,,m,,,,,,,,,,,,,,,,39,0,247.9851,248.6842,m,1,0.6941,,[],[],[],[],[],[],[],248.6842,250.6837,250.6838,250.6841,[],[],[],[],[],[],[],,250.6842,250.6842,0.008903876,-0.391385159,0,0,0,,0,38,38,96,1,3,word,CONSIDER,print,consider_p.png,,,,,,
,,,,27851,001,2025-10-20_11h42.34.556,HW_LDT_1,2024.2.4,MacIntel,58.82352941,,,,,,,,,,,,,,,,,,,,,,250.6855,250.8826,250.8827,251.3822,,,,,,,,,,,,,,0.7812,1,,,,,,,,,,,,,,z,,,,,,,,,,,,,,,,40,0,251.3827,252.1647,z,1,0.7812,,[],[],[],[],[],[],[],252.1647,254.1639,254.164,254.1641,[],[],[],[],[],[],[],,254.1641,254.1642,0.008903876,-0.391385159,0,0,0,,0,39,39,31,1,3,RL,trilude,print,trilude_p.png,,,,,,
,,,,27851,001,2025-10-20_11h42.34.556,HW_LDT_1,2024.2.4,MacIntel,58.82352941,,,,,,,,,,,,,,,,,,,,,,254.1653,254.3646,254.3647,254.8635,,,,,,,,,,,,,,0.6438,1,,,,,,,,,,,,,,m,,,,,,,,,,,,,,,,41,0,254.8639,255.513,m,1,0.6438,,[],[],[],[],[],[],[],255.513,257.5115,257.5115,257.5117,[],[],[],[],[],[],[],,257.5117,257.5117,0.008903876,-0.391385159,0,0,0,,0,40,40,132,1,3,word,PROPOSAL,print,proposal_p.png,,,,,,
,,,,27851,001,2025-10-20_11h42.34.556,HW_LDT_1,2024.2.4,MacIntel,58.82352941,,,,,,,,,,,,,,,,,,,,,,257.5128,257.712,257.7121,258.2108,,,,,,,,,,,,,,1.0252,1,,,,,,,,,,,,,,z,,,,,,,,,,,,,,,,42,1,258.2112,259.2442,z,1,1.0252,,[],[],[],[],[],[],[],259.2443,261.242,261.242,262.3084,[],[],[],[],[],[],[],m,262.3085,262.3086,0.008903876,-0.391385159,0,0,0,,0,41,41,53,1,3,TL,marnigal,print,marnigal_p.png,1.0606,,,,,
,,,,27851,001,2025-10-20_11h42.34.556,HW_LDT_1,2024.2.4,MacIntel,58.82352941,,,,,,,,,,,,,,,,,,,,,,262.3097,262.5085,262.5085,263.0083,,,,,,,,,,,,,,2.1262,0,,,,,,,,,,,,,,z,,,,,,,,,,,,,,,,43,0,263.0087,265.1401,m,0,2.1262,,[],[],[],[],[],[],[],265.1402,267.1393,267.1394,267.1396,[],[],[],[],[],[],[],,267.1397,267.1399,0.008903876,-0.391385159,0,0,0,,0,42,42,34,1,3,TL,aminal,cursive,aminal_c.png,,,,,,
,,,,27851,001,2025-10-20_11h42.34.556,HW_LDT_1,2024.2.4,MacIntel,58.82352941,,,,,,,,,,,,,,,,,,,,,,267.1417,267.3385,267.3386,267.839,,,,,,,,,,,,,,0.8424,1,,,,,,,,,,,,,,m,,,,,,,,,,,,,,,,44,0,267.8397,268.688,m,1,0.8424,,[],[],[],[],[],[],[],268.688,270.6867,270.6868,270.687,[],[],[],[],[],[],[],,270.687,270.6872,0.008903876,-0.391385159,0,0,0,,0,43,43,124,1,3,word,NUMERICAL,print,numerical_p.png,,,,,,
,,,,27851,001,2025-10-20_11h42.34.556,HW_LDT_1,2024.2.4,MacIntel,58.82352941,,,,,,,,,,,,,,,,,,,,,,270.6891,270.8861,270.8861,271.3864,,,,,,,,,,,,,,1.1742,1,,,,,,,,,,,,,,z,,,,,,,,,,,,,,,,45,0,271.3872,272.568,z,1,1.1742,,[],[],[],[],[],[],[],272.5681,274.567,274.5671,274.5671,[],[],[],[],[],[],[],,274.5671,274.5671,0.008903876,-0.391385159,0,0,0,,0,44,44,22,1,3,RL,procogal,print,procogal_p.png,,,,,,
,,,,27851,001,2025-10-20_11h42.34.556,HW_LDT_1,2024.2.4,MacIntel,58.82352941,,,,,,,,,,,,,,,,,,,,,,274.5678,274.7668,274.7668,275.2673,,,,,,,,,,,,,,2.0638,1,,,,,,,,,,,,,,z,,,,,,,,,,,,,,,,46,0,275.2677,277.3321,z,1,2.0638,,[],[],[],[],[],[],[],277.3322,279.3302,279.3302,279.3305,[],[],[],[],[],[],[],,279.3306,279.3307,0.008903876,-0.391385159,0,0,0,,0,45,45,12,1,3,RL,formuke,cursive,formuke_c.png,,,,,,
,,,,27851,001,2025-10-20_11h42.34.556,HW_LDT_1,2024.2.4,MacIntel,58.82352941,,,,,,,,,,,,,,,,,,,,,,279.3318,279.5305,279.5305,280.0303,,,,,,,,,,,,,,1.1449,1,,,,,,,,,,,,,,z,,,,,,,,,,,,,,,,47,0,280.0309,281.1785,z,1,1.1449,,[],[],[],[],[],[],[],281.1786,283.178,283.1781,283.1782,[],[],[],[],[],[],[],,283.1783,283.1784,0.008903876,-0.391385159,0,0,0,,0,46,46,71,1,3,TL,sanile,cursive,sanile_c.png,,,,,,
,,,,27851,001,2025-10-20_11h42.34.556,HW_LDT_1,2024.2.4,MacIntel,58.82352941,,,,,,,,,,,,,,,,,,,,,,283.1798,283.378,283.3781,283.8773,,,,,,,,,,,,,,0.7448,1,,,,,,,,,,,,,,z,,,,,,,,,,,,,,,,48,0,283.8779,284.6276,z,1,0.7448,,[],[],[],[],[],[],[],284.6277,286.6252,286.6252,286.6254,[],[],[],[],[],[],[],,286.6254,286.6255,0.008903876,-0.391385159,0,0,0,,0,47,47,24,1,3,RL,quafidy,print,quafidy_p.png,,,,,,
,,,,27851,001,2025-10-20_11h42.34.556,HW_LDT_1,2024.2.4,MacIntel,58.82352941,,,,,,,,,,,,,,,,,,,,,,286.6264,286.826,286.826,287.3254,,,,,,,,,,,,,,1.128,1,,,,,,,,,,,,,,m,,,,,,,,,,,,,,,,49,0,287.3256,288.4576,m,1,1.128,,[],[],[],[],[],[],[],288.4576,290.456,290.4561,290.4562,[],[],[],[],[],[],[],,290.4562,290.4563,0.008903876,-0.391385159,0,0,0,,0,48,48,93,1,3,word,CEREMONY,cursive,ceremony_c.png,,,,,,
,,,,27851,001,2025-10-20_11h42.34.556,HW_LDT_1,2024.2.4,MacIntel,58.82352941,,,,,,,,,,,,,,,,,,,,,,290.4571,290.6559,290.6559,291.1563,,,,,,,,,,,,,,1.6083,1,,,,,,,,,,,,,,z,,,,,,,,,,,,,,,,50,0,291.1572,292.772,z,1,1.6083,,[],[],[],[],[],[],[],292.7721,294.7698,294.7698,294.7698,[],[],[],[],[],[],[],,294.7699,294.77,0.008903876,-0.391385159,0,0,0,,0,49,49,5,1,3,RL,capefory,cursive,capefory_c.png,,,,,,
,,,,27851,001,2025-10-20_11h42.34.556,HW_LDT_1,2024.2.4,MacIntel,58.82352941,,,,,,,,,,,,,,,,,,,,,,294.7711,294.97,294.97,295.4701,,,,,,,,,,,,,,2.3296,1,,,,,,,,,,,,,,z,,,,,,,,,,,,,,,,51,0,295.4707,297.8011,z,1,2.3296,,[],[],[],[],[],[],[],297.8012,299.801,299.801,299.8013,[],[],[],[],[],[],[],,299.8013,299.8015,0.008903876,-0.391385159,0,0,0,,0,50,50,37,1,3,TL,cacapity,cursive,cacapity_c.png,,,,,,
,,,,27851,001,2025-10-20_11h42.34.556,HW_LDT_1,2024.2.4,MacIntel,58.82352941,,,,,,,,,,,,,,,,,,,,,,299.8028,300.001,300.001,300.4992,,,,,,,,,,,,,,1.0241,1,,,,,,,,,,,,,,z,,,,,,,,,,,,,,,,52,0,300.4996,301.533,z,1,1.0241,,[],[],[],[],[],[],[],301.5331,303.5321,303.5321,303.5324,[],[],[],[],[],[],[],,303.5325,303.5326,0.008903876,-0.391385159,0,0,0,,0,51,51,44,1,3,TL,decilate,print,decilate_p.png,,,,,,
,,,,27851,001,2025-10-20_11h42.34.556,HW_LDT_1,2024.2.4,MacIntel,58.82352941,,,,,,,,,,,,,,,,,,,,,,303.534,303.7311,303.7312,304.2307,,,,,,,,,,,,,,3.2573,1,,,,,,,,,,,,,,z,,,,,,,,,,,,,,,,53,0,304.2313,307.4956,z,1,3.2573,,[],[],[],[],[],[],[],307.4956,309.4947,309.4948,309.4951,[],[],[],[],[],[],[],,309.4951,309.4953,0.008903876,-0.391385159,0,0,0,,0,52,52,66,1,3,TL,retalive,cursive,retalive_c.png,,,,,,
,,,,27851,001,2025-10-20_11h42.34.556,HW_LDT_1,2024.2.4,MacIntel,58.82352941,,,,,,,,,,,,,,,,,,,,,,309.497,309.6945,309.6946,310.1943,,,,,,,,,,,,,,1.0598,1,,,,,,,,,,,,,,m,,,,,,,,,,,,,,,,54,0,310.195,311.26,m,1,1.0598,,[],[],[],[],[],[],[],311.26,313.2572,313.2572,313.2572,[],[],[],[],[],[],[],,313.2573,313.2573,0.008903876,-0.391385159,0,0,0,,0,53,53,145,1,3,word,RESUME,cursive,resume_c.png,,,,,,
,,,,27851,001,2025-10-20_11h42.34.556,HW_LDT_1,2024.2.4,MacIntel,58.82352941,,,,,,,,,,,,,,,,,,,,,,313.2579,313.4579,313.4579,313.958,,,,,,,,,,,,,,0.9929,1,,,,,,,,,,,,,,m,,,,,,,,,,,,,,,,55,0,313.959,314.9566,m,1,0.9929,,[],[],[],[],[],[],[],314.9567,316.956,316.9561,316.9562,[],[],[],[],[],[],[],,316.9562,316.9563,0.008903876,-0.391385159,0,0,0,,0,54,54,135,1,3,word,QUALITY,print,quality_p.png,,,,,,
,,,,27851,001,2025-10-20_11h42.34.556,HW_LDT_1,2024.2.4,MacIntel,58.82352941,,,,,,,,,,,,,,,,,,,,,,316.9574,317.1549,317.1549,317.655,,,,,,,,,,,,,,1.4774,0,,,,,,,,,,,,,,m,,,,,,,,,,,,,,,,56,1,317.6553,319.138,z,0,1.4774,,[],[],[],[],[],[],[],319.1381,321.1371,321.1371,322.6355,[],[],[],[],[],[],[],z,322.6356,322.6356,0.008903876,-0.391385159,0,0,0,,0,55,55,110,1,3,word,HERITAGE,cursive,heritage_c.png,1.4935,,,,,
,,,,27851,001,2025-10-20_11h42.34.556,HW_LDT_1,2024.2.4,MacIntel,58.82352941,,,,,,,,,,,,,,,,,,,,,,322.6365,322.8354,322.8356,323.3349,,,,,,,,,,,,,,1.1767,1,,,,,,,,,,,,,,z,,,,,,,,,,,,,,,,57,0,323.3355,324.5178,z,1,1.1767,,[],[],[],[],[],[],[],324.5179,326.5155,326.5156,326.5157,[],[],[],[],[],[],[],,326.5157,326.5159,0.008903876,-0.391385159,0,0,0,,0,56,56,57,1,3,TL,moredate,cursive,moredate_c.png,,,,,,
,,,,27851,001,2025-10-20_11h42.34.556,HW_LDT_1,2024.2.4,MacIntel,58.82352941,,,,,,,,,,,,,,,,,,,,,,326.5167,326.7163,326.7163,327.215,,,,,,,,,,,,,,0.8266,1,,,,,,,,,,,,,,z,,,,,,,,,,,,,,,,58,0,327.2158,328.0484,z,1,0.8266,,[],[],[],[],[],[],[],328.0485,330.0464,330.0465,330.0466,[],[],[],[],[],[],[],,330.0467,330.0468,0.008903876,-0.391385159,0,0,0,,0,57,57,35,1,3,TL,cateferia,print,cateferia_p.png,,,,,,
,,,,27851,001,2025-10-20_11h42.34.556,HW_LDT_1,2024.2.4,MacIntel,58.82352941,,,,,,,,,,,,,,,,,,,,,,330.0479,330.2469,330.247,330.7473,,,,,,,,,,,,,,0.8236,1,,,,,,,,,,,,,,z,,,,,,,,,,,,,,,,59,0,330.748,331.5786,z,1,0.8236,,[],[],[],[],[],[],[],331.5786,333.5776,333.5776,333.5777,[],[],[],[],[],[],[],,333.5778,333.5779,0.008903876,-0.391385159,0,0,0,,0,58,58,8,1,3,RL,cocewage,print,cocewage_p.png,,,,,,
,,,,27851,001,2025-10-20_11h42.34.556,HW_LDT_1,2024.2.4,MacIntel,58.82352941,,,,,,,,,,,,,,,,,,,,,,333.5789,333.7784,333.7785,334.2768,,,,,,,,,,,,,,0.7456,1,,,,,,,,,,,,,,m,,,,,,,,,,,,,,,,60,0,334.2773,335.027,m,1,0.7456,,[],[],[],[],[],[],[],335.0271,337.0249,337.025,337.0252,[],[],[],[],[],[],[],,337.0252,337.0252,0.008903876,-0.391385159,0,0,0,,0,59,59,115,1,3,word,LOGICAL,cursive,logical_c.png,,,,,,
,,,,27851,001,2025-10-20_11h42.34.556,HW_LDT_1,2024.2.4,MacIntel,58.82352941,,,,,,,,,,,,,,,,,,,,,,337.0261,337.2261,337.2262,337.7254,,,,,,,,,,,,,,0.7612,1,,,,,,,,,,,,,,m,,,,,,,,,,,,,,,,61,0,337.7257,338.4914,m,1,0.7612,,[],[],[],[],[],[],[],338.4914,340.491,340.4911,340.4912,[],[],[],[],[],[],[],,340.4913,340.4914,0.008903876,-0.391385159,0,0,0,,0,60,60,148,1,3,word,SALINE,cursive,saline_c.png,,,,,,
,,,,27851,001,2025-10-20_11h42.34.556,HW_LDT_1,2024.2.4,MacIntel,58.82352941,,,,,,,,,,,,,,,,,,,,,,340.493,340.69,340.69,341.1906,,,,,,,,,,,,,,1.4756,1,,,,,,,,,,,,,,z,,,,,,,,,,,,,,,,62,0,341.1912,342.672,z,1,1.4756,,[],[],[],[],[],[],[],342.672,344.6709,344.671,344.6711,[],[],[],[],[],[],[],,344.6712,344.6713,0.008903876,-0.391385159,0,0,0,,0,61,61,52,1,3,TL,locigal,cursive,locigal_c.png,,,,,,
,,,,27851,001,2025-10-20_11h42.34.556,HW_LDT_1,2024.2.4,MacIntel,58.82352941,,,,,,,,,,,,,,,,,,,,,,344.6728,344.8702,344.8702,345.3697,,,,,,,,,,,,,,0.9774,1,,,,,,,,,,,,,,z,,,,,,,,,,,,,,,,63,1,345.3702,346.3529,z,1,0.9774,,[],[],[],[],[],[],[],346.353,348.3512,348.3513,349.3847,[],[],[],[],[],[],[],m,349.3847,349.3848,0.008903876,-0.391385159,0,0,0,,0,62,62,72,1,3,TL,senmitent,print,senmitent_p.png,1.0292,,,,,
,,,,27851,001,2025-10-20_11h42.34.556,HW_LDT_1,2024.2.4,MacIntel,58.82352941,,,,,,,,,,,,,,,,,,,,,,349.386,349.5843,349.5844,350.0845,,,,,,,,,,,,,,0.844,1,,,,,,,,,,,,,,m,,,,,,,,,,,,,,,,64,0,350.0851,350.9328,m,1,0.844,,[],[],[],[],[],[],[],350.9329,352.9324,352.9326,352.9327,[],[],[],[],[],[],[],,352.9328,352.933,0.008903876,-0.391385159,0,0,0,,0,63,63,112,1,3,word,LIBERAL,print,liberal_p.png,,,,,,
,,,,27851,001,2025-10-20_11h42.34.556,HW_LDT_1,2024.2.4,MacIntel,58.82352941,,,,,,,,,,,,,,,,,,,,,,352.9345,353.1322,353.1323,353.6316,,,,,,,,,,,,,,0.8136,1,,,,,,,,,,,,,,z,,,,,,,,,,,,,,,,65,0,353.6324,354.4477,z,1,0.8136,,[],[],[],[],[],[],[],354.4478,356.4459,356.446,356.4462,[],[],[],[],[],[],[],,356.4462,356.4464,0.008903876,-0.391385159,0,0,0,,0,64,64,51,1,3,TL,liretal,print,liretal_p.png,,,,,,
,,,,27851,001,2025-10-20_11h42.34.556,HW_LDT_1,2024.2.4,MacIntel,58.82352941,,,,,,,,,,,,,,,,,,,,,,356.4479,356.6463,356.6463,357.1454,,,,,,,,,,,,,,0.8141,1,,,,,,,,,,,,,,z,,,,,,,,,,,,,,,,66,0,357.1461,357.9608,z,1,0.8141,,[],[],[],[],[],[],[],357.9609,359.9597,359.9598,359.9598,[],[],[],[],[],[],[],,359.9598,359.9598,0.008903876,-0.391385159,0,0,0,,0,65,65,55,1,3,TL,mecidine,print,mecidine_p.png,,,,,,
,,,,27851,001,2025-10-20_11h42.34.556,HW_LDT_1,2024.2.4,MacIntel,58.82352941,,,,,,,,,,,,,,,,,,,,,,359.9603,360.1597,360.1597,360.6605,,,,,,,,,,,,,,3.4558,1,,,,,,,,,,,,,,z,,,,,,,,,,,,,,,,67,0,360.6609,364.1242,z,1,3.4558,,[],[],[],[],[],[],[],364.1242,366.1232,366.1233,366.1234,[],[],[],[],[],[],[],,366.1234,366.1235,0.008903876,-0.391385159,0,0,0,,0,66,66,70,1,3,TL,remuse,cursive,remuse_c.png,,,,,,
,,,,27851,001,2025-10-20_11h42.34.556,HW_LDT_1,2024.2.4,MacIntel,58.82352941,,,,,,,,,,,,,,,,,,,,,,366.1244,366.3235,366.3235,366.823,,,,,,,,,,,,,,0.7748,1,,,,,,,,,,,,,,z,,,,,,,,,,,,,,,,68,1,366.8237,367.6057,z,1,0.7748,,[],[],[],[],[],[],[],367.6057,369.6046,369.6046,371.0864,[],[],[],[],[],[],[],z,371.0865,371.0865,0.008903876,-0.391385159,0,0,0,,0,67,67,26,1,3,RL,repifion,print,repifion_p.png,1.4768,,,,,
,,,,27851,001,2025-10-20_11h42.34.556,HW_LDT_1,2024.2.4,MacIntel,58.82352941,,,,,,,,,,,,,,,,,,,,,,371.0878,371.2867,371.2867,371.7867,,,,,,,,,,,,,,1.0253,0,,,,,,,,,,,,,,m,,,,,,,,,,,,,,,,69,0,371.7873,372.8192,z,0,1.0253,,[],[],[],[],[],[],[],372.8192,374.8173,374.8174,374.8176,[],[],[],[],[],[],[],,374.8176,374.8177,0.008903876,-0.391385159,0,0,0,,0,68,68,99,1,3,word,DEBATE,cursive,debate_c.png,,,,,,
,,,,27851,001,2025-10-20_11h42.34.556,HW_LDT_1,2024.2.4,MacIntel,58.82352941,,,,,,,,,,,,,,,,,,,,,,374.8195,375.018,375.0181,375.5176,,,,,,,,,,,,,,0.7445,1,,,,,,,,,,,,,,m,,,,,,,,,,,,,,,,70,0,375.5183,376.2661,m,1,0.7445,,[],[],[],[],[],[],[],376.2662,378.2652,378.2653,378.2655,[],[],[],[],[],[],[],,378.2656,378.2656,0.008903876,-0.391385159,0,0,0,,0,69,69,84,1,3,word,BELOVED,cursive,beloved_c.png,,,,,,
,,,,27851,001,2025-10-20_11h42.34.556,HW_LDT_1,2024.2.4,MacIntel,58.82352941,,,,,,,,,,,,,,,,,,,,,,378.2671,378.4657,378.4658,378.9647,,,,,,,,,,,,,,0.7431,1,,,,,,,,,,,,,,m,,,,,,,,,,,,,,,,71,0,378.9654,379.7148,m,1,0.7431,,[],[],[],[],[],[],[],379.715,381.7129,381.7129,381.713,[],[],[],[],[],[],[],,381.713,381.7131,0.008903876,-0.391385159,0,0,0,,0,70,70,104,1,3,word,DOMINANT,print,dominant_p.png,,,,,,
,,,,27851,001,2025-10-20_11h42.34.556,HW_LDT_1,2024.2.4,MacIntel,58.82352941,,,,,,,,,,,,,,,,,,,,,,381.7137,381.9128,381.9128,382.4118,,,,,,,,,,,,,,0.7763,1,,,,,,,,,,,,,,z,,,,,,,,,,,,,,,,72,0,382.4121,383.1942,z,1,0.7763,,[],[],[],[],[],[],[],383.1942,385.1935,385.1935,385.1937,[],[],[],[],[],[],[],,385.1938,385.1939,0.008903876,-0.391385159,0,0,0,,0,71,71,21,1,3,RL,potugar,print,potugar_p.png,,,,,,
,,,,27851,001,2025-10-20_11h42.34.556,HW_LDT_1,2024.2.4,MacIntel,58.82352941,,,,,,,,,,,,,,,,,,,,,,385.1953,385.394,385.394,385.8938,,,,,,,,,,,,,,1.1931,1,,,,,,,,,,,,,,m,,,,,,,,,,,,,,,,73,0,385.8942,387.092,m,1,1.1931,,[],[],[],[],[],[],[],387.0921,389.0918,389.0919,389.0921,[],[],[],[],[],[],[],,389.0921,389.0923,0.008903876,-0.391385159,0,0,0,,0,72,72,81,1,3,word,ADVISORY,print,advisory_p.png,,,,,,
,,,,27851,001,2025-10-20_11h42.34.556,HW_LDT_1,2024.2.4,MacIntel,58.82352941,,,,,,,,,,,,,,,,,,,,,,389.0932,389.2913,389.2913,389.7911,,,,,,,,,,,,,,1.1066,1,,,,,,,,,,,,,,m,,,,,,,,,,,,,,,,74,0,389.7919,390.9059,m,1,1.1066,,[],[],[],[],[],[],[],390.9061,392.9049,392.9049,392.905,[],[],[],[],[],[],[],,392.905,392.9051,0.008903876,-0.391385159,0,0,0,,0,73,73,159,1,3,word,VETERAN,cursive,veteran_c.png,,,,,,
,,,,27851,001,2025-10-20_11h42.34.556,HW_LDT_1,2024.2.4,MacIntel,58.82352941,,,,,,,,,,,,,,,,,,,,,,392.9062,393.1046,393.1046,393.6041,,,,,,,,,,,,,,0.7289,1,,,,,,,,,,,,,,m,,,,,,,,,,,,,,,,75,0,393.6043,394.3379,m,1,0.7289,,[],[],[],[],[],[],[],394.338,396.337,396.3371,396.3374,[],[],[],[],[],[],[],,396.3374,396.3376,0.008903876,-0.391385159,0,0,0,,0,74,74,105,1,3,word,EDITOR,print,editor_p.png,,,,,,
,,,,27851,001,2025-10-20_11h42.34.556,HW_LDT_1,2024.2.4,MacIntel,58.82352941,,,,,,,,,,,,,,,,,,,,,,396.3392,396.537,396.5371,397.0361,,,,,,,,,,,,,,0.7618,1,,,,,,,,,,,,,,z,,,,,,,,,,,,,,,,76,0,397.0366,397.8014,z,1,0.7618,,[],[],[],[],[],[],[],397.8014,399.8009,399.801,399.801,[],[],[],[],[],[],[],,399.8011,399.8012,0.008903876,-0.391385159,0,0,0,,0,75,75,38,1,3,TL,carnidal,print,carnidal_p.png,,,,,,
,,,,27851,001,2025-10-20_11h42.34.556,HW_LDT_1,2024.2.4,MacIntel,58.82352941,,,,,,,,,,,,,,,,,,,,,,399.8021,400.0002,400.0002,400.5006,,,,,,,,,,,,,,0.7597,1,,,,,,,,,,,,,,z,,,,,,,,,,,,,,,,77,0,400.501,401.2662,z,1,0.7597,,[],[],[],[],[],[],[],401.2662,403.2651,403.2651,403.2653,[],[],[],[],[],[],[],,403.2654,403.2655,0.008903876,-0.391385159,0,0,0,,0,76,76,60,1,3,TL,panert,print,panert_p.png,,,,,,
,,,,27851,001,2025-10-20_11h42.34.556,HW_LDT_1,2024.2.4,MacIntel,58.82352941,,,,,,,,,,,,,,,,,,,,,,403.2666,403.466,403.466,403.9641,,,,,,,,,,,,,,2.3928,1,,,,,,,,,,,,,,z,,,,,,,,,,,,,,,,78,0,403.9647,406.3631,z,1,2.3928,,[],[],[],[],[],[],[],406.3633,408.3624,408.3624,408.3626,[],[],[],[],[],[],[],,408.3626,408.3627,0.008903876,-0.391385159,0,0,0,,0,77,77,69,1,3,TL,redisent,cursive,redisent_c.png,,,,,,
,,,,27851,001,2025-10-20_11h42.34.556,HW_LDT_1,2024.2.4,MacIntel,58.82352941,,,,,,,,,,,,,,,,,,,,,,408.3637,408.5614,408.5614,409.0615,,,,,,,,,,,,,,2.275,1,,,,,,,,,,,,,,z,,,,,,,,,,,,,,,,79,0,409.062,411.3434,z,1,2.275,,[],[],[],[],[],[],[],411.3435,413.3425,413.3425,413.3429,[],[],[],[],[],[],[],,413.3429,413.3431,0.008903876,-0.391385159,0,0,0,,0,78,78,4,1,3,RL,cafigal,cursive,cafigal_c.png,,,,,,
,,,,27851,001,2025-10-20_11h42.34.556,HW_LDT_1,2024.2.4,MacIntel,58.82352941,,,,,,,,,,,,,,,,,,,,,,413.3447,413.5416,413.5416,414.042,,,,,,,,,,,,,,0.9105,1,,,,,,,,,,,,,,z,,,,,,,,,,,,,,,,80,0,414.043,414.9567,z,1,0.9105,,[],[],[],[],[],[],[],414.9567,416.957,416.957,416.9572,[],[],[],[],[],[],[],,416.9573,420.7375,0.008903876,-0.391385159,0,0,0,space,0,79,79,73,1,3,TL,speficic,print,speficic_p.png,,,3.7553,,,
,,,,27851,001,2025-10-20_11h42.34.556,HW_LDT_1,2024.2.4,MacIntel,58.82352941,,,,,,,,,,,,,,,,,,,,,,420.7386,420.9364,420.9365,421.4361,,,,,,,,,,,,,,1.3274,1,,,,,,,,,,,,,,m,,,,,,,,,,,,,,,,81,0,421.4368,422.7684,m,1,1.3274,,[],[],[],[],[],[],[],422.7684,424.7684,424.7684,424.7687,[],[],[],[],[],[],[],,424.7687,424.7688,0.008903876,-0.391385159,0,0,0,,0,80,80,119,1,3,word,MEMORY,print,memory_p.png,,,,,,
,,,,27851,001,2025-10-20_11h42.34.556,HW_LDT_1,2024.2.4,MacIntel,58.82352941,,,,,,,,,,,,,,,,,,,,,,424.77,424.9678,424.9678,425.4665,,,,,,,,,,,,,,0.7107,1,,,,,,,,,,,,,,z,,,,,,,,,,,,,,,,82,0,425.467,426.1832,z,1,0.7107,,[],[],[],[],[],[],[],426.1832,428.183,428.183,428.1832,[],[],[],[],[],[],[],,428.1832,428.1834,0.008903876,-0.391385159,0,0,0,,0,81,81,23,1,3,RL,quakity,print,quakity_p.png,,,,,,
,,,,27851,001,2025-10-20_11h42.34.556,HW_LDT_1,2024.2.4,MacIntel,58.82352941,,,,,,,,,,,,,,,,,,,,,,428.1846,428.3818,428.3818,428.8811,,,,,,,,,,,,,,0.7405,1,,,,,,,,,,,,,,z,,,,,,,,,,,,,,,,83,1,428.8816,429.6302,z,1,0.7405,,[],[],[],[],[],[],[],429.6303,431.6302,431.6302,432.612,[],[],[],[],[],[],[],m,432.6121,432.6122,0.008903876,-0.391385159,0,0,0,,0,82,82,50,1,3,TL,lirebal,print,lirebal_p.png,0.9746,,,,,
,,,,27851,001,2025-10-20_11h42.34.556,HW_LDT_1,2024.2.4,MacIntel,58.82352941,,,,,,,,,,,,,,,,,,,,,,432.613,432.8118,432.8118,433.3116,,,,,,,,,,,,,,0.8945,1,,,,,,,,,,,,,,m,,,,,,,,,,,,,,,,84,0,433.3121,434.2116,m,1,0.8945,,[],[],[],[],[],[],[],434.2116,436.2107,436.2108,436.2111,[],[],[],[],[],[],[],,436.2112,436.2112,0.008903876,-0.391385159,0,0,0,,0,83,83,130,1,3,word,POLICY,print,policy_p.png,,,,,,
,,,,27851,001,2025-10-20_11h42.34.556,HW_LDT_1,2024.2.4,MacIntel,58.82352941,,,,,,,,,,,,,,,,,,,,,,436.2126,436.4102,436.4102,436.9099,,,,,,,,,,,,,,1.0759,0,,,,,,,,,,,,,,m,,,,,,,,,,,,,,,,85,0,436.9105,437.9918,z,0,1.0759,,[],[],[],[],[],[],[],437.9919,439.9919,439.9919,439.9922,[],[],[],[],[],[],[],,439.9922,439.9923,0.008903876,-0.391385159,0,0,0,,0,84,84,108,1,3,word,FORTUNE,cursive,fortune_c.png,,,,,,
,,,,27851,001,2025-10-20_11h42.34.556,HW_LDT_1,2024.2.4,MacIntel,58.82352941,,,,,,,,,,,,,,,,,,,,,,439.9938,440.1913,440.1914,440.6898,,,,,,,,,,,,,,0.8101,1,,,,,,,,,,,,,,m,,,,,,,,,,,,,,,,86,0,440.6901,441.5065,m,1,0.8101,,[],[],[],[],[],[],[],441.5066,443.5045,443.5045,443.5047,[],[],[],[],[],[],[],,443.5047,443.5048,0.008903876,-0.391385159,0,0,0,,0,85,85,97,1,3,word,COVERAGE,print,coverage_p.png,,,,,,
,,,,27851,001,2025-10-20_11h42.34.556,HW_LDT_1,2024.2.4,MacIntel,58.82352941,,,,,,,,,,,,,,,,,,,,,,443.5059,443.7054,443.7055,444.2046,,,,,,,,,,,,,,0.7922,1,,,,,,,,,,,,,,m,,,,,,,,,,,,,,,,87,1,444.2053,445.0045,m,1,0.7922,,[],[],[],[],[],[],[],445.0046,447.0035,447.0035,447.9026,[],[],[],[],[],[],[],m,447.9027,447.9028,0.008903876,-0.391385159,0,0,0,,0,86,86,113,1,3,word,LITERAL,print,literal_p.png,0.8947,,,,,
,,,,27851,001,2025-10-20_11h42.34.556,HW_LDT_1,2024.2.4,MacIntel,58.82352941,,,,,,,,,,,,,,,,,,,,,,447.9036,448.1029,448.1029,448.6019,,,,,,,,,,,,,,1.6089,1,,,,,,,,,,,,,,m,,,,,,,,,,,,,,,,88,1,448.6028,450.2171,m,1,1.6089,,[],[],[],[],[],[],[],450.2171,452.2163,452.2163,453.448,[],[],[],[],[],[],[],m,453.4481,453.4483,0.008903876,-0.391385159,0,0,0,,0,87,87,116,1,3,word,MARGINAL,print,marginal_p.png,1.2255,,,,,
,,,,27851,001,2025-10-20_11h42.34.556,HW_LDT_1,2024.2.4,MacIntel,58.82352941,,,,,,,,,,,,,,,,,,,,,,453.4493,453.6476,453.6476,454.1476,,,,,,,,,,,,,,1.0783,1,,,,,,,,,,,,,,z,,,,,,,,,,,,,,,,89,0,454.1482,455.2298,z,1,1.0783,,[],[],[],[],[],[],[],455.2298,457.2297,457.2299,457.23,[],[],[],[],[],[],[],,457.2301,457.2302,0.008903876,-0.391385159,0,0,0,,0,88,88,40,1,3,TL,condiser,print,condiser_p.png,,,,,,
,,,,27851,001,2025-10-20_11h42.34.556,HW_LDT_1,2024.2.4,MacIntel,58.82352941,,,,,,,,,,,,,,,,,,,,,,457.2316,457.4299,457.43,457.9297,,,,,,,,,,,,,,2.1078,1,,,,,,,,,,,,,,z,,,,,,,,,,,,,,,,90,0,457.9302,460.0448,z,1,2.1078,,[],[],[],[],[],[],[],460.0448,462.0432,462.0433,462.0435,[],[],[],[],[],[],[],,462.0436,462.0437,0.008903876,-0.391385159,0,0,0,,0,89,89,28,1,3,RL,rovastic,cursive,rovastic_c.png,,,,,,
,,,,27851,001,2025-10-20_11h42.34.556,HW_LDT_1,2024.2.4,MacIntel,58.82352941,,,,,,,,,,,,,,,,,,,,,,462.0449,462.2432,462.2432,462.7425,,,,,,,,,,,,,,0.762,1,,,,,,,,,,,,,,z,,,,,,,,,,,,,,,,91,0,462.7431,463.508,z,1,0.762,,[],[],[],[],[],[],[],463.5081,465.507,465.507,465.5073,[],[],[],[],[],[],[],,465.5073,465.5074,0.008903876,-0.391385159,0,0,0,,0,90,90,30,1,3,RL,strapely,print,strapely_p.png,,,,,,
,,,,27851,001,2025-10-20_11h42.34.556,HW_LDT_1,2024.2.4,MacIntel,58.82352941,,,,,,,,,,,,,,,,,,,,,,465.5088,465.7077,465.7077,466.2065,,,,,,,,,,,,,,0.7446,1,,,,,,,,,,,,,,z,,,,,,,,,,,,,,,,92,1,466.2075,466.956,z,1,0.7446,,[],[],[],[],[],[],[],466.956,468.9551,468.9551,470.7206,[],[],[],[],[],[],[],z,470.7207,470.7208,0.008903876,-0.391385159,0,0,0,,0,91,91,61,1,3,TL,pocily,print,pocily_p.png,1.7572,,,,,
,,,,27851,001,2025-10-20_11h42.34.556,HW_LDT_1,2024.2.4,MacIntel,58.82352941,,,,,,,,,,,,,,,,,,,,,,470.7217,470.9208,470.9208,471.4204,,,,,,,,,,,,,,1.2912,1,,,,,,,,,,,,,,z,,,,,,,,,,,,,,,,93,0,471.4211,472.7197,z,1,1.2912,,[],[],[],[],[],[],[],472.7197,474.7183,474.7184,474.7185,[],[],[],[],[],[],[],,474.7186,474.7187,0.008903876,-0.391385159,0,0,0,,0,92,92,63,1,3,TL,racidal,cursive,racidal_c.png,,,,,,
,,,,27851,001,2025-10-20_11h42.34.556,HW_LDT_1,2024.2.4,MacIntel,58.82352941,,,,,,,,,,,,,,,,,,,,,,474.7197,474.9172,474.9173,475.4171,,,,,,,,,,,,,,1.2275,0,,,,,,,,,,,,,,z,,,,,,,,,,,,,,,,94,0,475.4177,476.6491,m,0,1.2275,,[],[],[],[],[],[],[],476.6492,478.6477,478.6477,478.6479,[],[],[],[],[],[],[],,478.6479,478.648,0.008903876,-0.391385159,0,0,0,,0,93,93,16,1,3,RL,mishafe,cursive,mishafe_c.png,,,,,,
,,,,27851,001,2025-10-20_11h42.34.556,HW_LDT_1,2024.2.4,MacIntel,58.82352941,,,,,,,,,,,,,,,,,,,,,,478.6488,478.8481,478.8482,479.348,,,,,,,,,,,,,,0.8113,1,,,,,,,,,,,,,,m,,,,,,,,,,,,,,,,95,0,479.3482,480.1646,m,1,0.8113,,[],[],[],[],[],[],[],480.1647,482.1636,482.1637,482.1638,[],[],[],[],[],[],[],,482.1639,482.164,0.008903876,-0.391385159,0,0,0,,0,94,94,86,1,3,word,BESIDE,cursive,beside_c.png,,,,,,
,,,,27851,001,2025-10-20_11h42.34.556,HW_LDT_1,2024.2.4,MacIntel,58.82352941,,,,,,,,,,,,,,,,,,,,,,482.165,482.3631,482.3632,482.8631,,,,,,,,,,,,,,0.8206,1,,,,,,,,,,,,,,z,,,,,,,,,,,,,,,,96,0,482.8637,483.6952,z,1,0.8206,,[],[],[],[],[],[],[],483.6953,485.6947,485.6947,485.695,[],[],[],[],[],[],[],,485.695,485.6952,0.008903876,-0.391385159,0,0,0,,0,95,95,25,1,3,RL,retupar,print,retupar_p.png,,,,,,
,,,,27851,001,2025-10-20_11h42.34.556,HW_LDT_1,2024.2.4,MacIntel,58.82352941,,,,,,,,,,,,,,,,,,,,,,485.6965,485.8934,485.8934,486.3932,,,,,,,,,,,,,,1.1105,0,,,,,,,,,,,,,,m,,,,,,,,,,,,,,,,97,0,486.394,487.5097,z,0,1.1105,,[],[],[],[],[],[],[],487.5099,489.5081,489.5081,489.5082,[],[],[],[],[],[],[],,489.5083,489.5083,0.008903876,-0.391385159,0,0,0,,0,96,96,126,1,3,word,OPTIMAL,cursive,optimal_c.png,,,,,,
,,,,27851,001,2025-10-20_11h42.34.556,HW_LDT_1,2024.2.4,MacIntel,58.82352941,,,,,,,,,,,,,,,,,,,,,,489.5088,489.7082,489.7083,490.2079,,,,,,,,,,,,,,2.275,1,,,,,,,,,,,,,,z,,,,,,,,,,,,,,,,98,0,490.2083,492.4895,z,1,2.275,,[],[],[],[],[],[],[],492.4895,494.4881,494.4882,494.4885,[],[],[],[],[],[],[],,494.4886,494.4887,0.008903876,-0.391385159,0,0,0,,0,97,97,14,1,3,RL,lofase,cursive,lofase_c.png,,,,,,
,,,,27851,001,2025-10-20_11h42.34.556,HW_LDT_1,2024.2.4,MacIntel,58.82352941,,,,,,,,,,,,,,,,,,,,,,494.4901,494.6875,494.6876,495.1882,,,,,,,,,,,,,,2.9878,0,,,,,,,,,,,,,,m,,,,,,,,,,,,,,,,99,0,495.1889,498.1862,z,0,2.9878,,[],[],[],[],[],[],[],498.1863,500.1843,500.1844,500.1846,[],[],[],[],[],[],[],,500.1848,500.1848,0.008903876,-0.391385159,0,0,0,,0,98,98,89,1,3,word,CAPACITY,cursive,capacity_c.png,,,,,,
,,,,27851,001,2025-10-20_11h42.34.556,HW_LDT_1,2024.2.4,MacIntel,58.82352941,,,,,,,,,,,,,,,,,,,,,,500.1866,500.3838,500.3839,500.8828,,,,,,,,,,,,,,0.8405,1,,,,,,,,,,,,,,m,,,,,,,,,,,,,,,,100,0,500.8831,501.7327,m,1,0.8405,,[],[],[],[],[],[],[],501.7329,503.732,503.7321,503.7322,[],[],[],[],[],[],[],,503.7323,503.7324,0.008903876,-0.391385159,0,0,0,,0,99,99,100,1,3,word,DECADE,cursive,decade_c.png,,,,,,
,,,,27851,001,2025-10-20_11h42.34.556,HW_LDT_1,2024.2.4,MacIntel,58.82352941,,,,,,,,,,,,,,,,,,,,,,503.7338,503.9323,503.9323,504.4319,,,,,,,,,,,,,,2.7434,1,,,,,,,,,,,,,,z,,,,,,,,,,,,,,,,101,0,504.4323,507.1789,z,1,2.7434,,[],[],[],[],[],[],[],507.1789,509.1779,509.178,509.1782,[],[],[],[],[],[],[],,509.1782,509.1784,0.008903876,-0.391385159,0,0,0,,0,100,100,36,1,3,TL,carema,cursive,carema_c.png,,,,,,
,,,,27851,001,2025-10-20_11h42.34.556,HW_LDT_1,2024.2.4,MacIntel,58.82352941,,,,,,,,,,,,,,,,,,,,,,509.1801,509.3783,509.3784,509.8783,,,,,,,,,,,,,,0.7802,1,,,,,,,,,,,,,,m,,,,,,,,,,,,,,,,102,0,509.8789,510.6597,m,1,0.7802,,[],[],[],[],[],[],[],510.6597,512.6589,512.659,512.6592,[],[],[],[],[],[],[],,512.6593,512.6594,0.008903876,-0.391385159,0,0,0,,0,101,101,144,1,3,word,RESIDENT,cursive,resident_c.png,,,,,,
,,,,27851,001,2025-10-20_11h42.34.556,HW_LDT_1,2024.2.4,MacIntel,58.82352941,,,,,,,,,,,,,,,,,,,,,,512.6605,512.8596,512.8597,513.3588,,,,,,,,,,,,,,0.6938,1,,,,,,,,,,,,,,z,,,,,,,,,,,,,,,,103,0,513.3595,514.0584,z,1,0.6938,,[],[],[],[],[],[],[],514.0585,516.0573,516.0573,516.0575,[],[],[],[],[],[],[],,516.0575,516.0576,0.008903876,-0.391385159,0,0,0,,0,102,102,10,1,3,RL,efibor,print,efibor_p.png,,,,,,
,,,,27851,001,2025-10-20_11h42.34.556,HW_LDT_1,2024.2.4,MacIntel,58.82352941,,,,,,,,,,,,,,,,,,,,,,516.0587,516.2567,516.2568,516.7562,,,,,,,,,,,,,,0.811,1,,,,,,,,,,,,,,m,,,,,,,,,,,,,,,,104,0,516.7567,517.5723,m,1,0.811,,[],[],[],[],[],[],[],517.5724,519.572,519.572,519.5722,[],[],[],[],[],[],[],,519.5722,519.5722,0.008903876,-0.391385159,0,0,0,,0,103,103,91,1,3,word,CARDINAL,print,cardinal_p.png,,,,,,
,,,,27851,001,2025-10-20_11h42.34.556,HW_LDT_1,2024.2.4,MacIntel,58.82352941,,,,,,,,,,,,,,,,,,,,,,519.573,519.7713,519.7714,520.2712,,,,,,,,,,,,,,0.8434,1,,,,,,,,,,,,,,m,,,,,,,,,,,,,,,,105,0,520.2718,521.1207,m,1,0.8434,,[],[],[],[],[],[],[],521.1208,523.1192,523.1193,523.1195,[],[],[],[],[],[],[],,523.1195,523.1195,0.008903876,-0.391385159,0,0,0,,0,104,104,158,1,3,word,VELOCITY,cursive,velocity_c.png,,,,,,
,,,,27851,001,2025-10-20_11h42.34.556,HW_LDT_1,2024.2.4,MacIntel,58.82352941,,,,,,,,,,,,,,,,,,,,,,523.1205,523.3192,523.3192,523.8181,,,,,,,,,,,,,,1.1965,1,,,,,,,,,,,,,,z,,,,,,,,,,,,,,,,106,0,523.8185,525.0171,z,1,1.1965,,[],[],[],[],[],[],[],525.0171,527.0163,527.0164,527.0165,[],[],[],[],[],[],[],,527.0165,527.0165,0.008903876,-0.391385159,0,0,0,,0,105,105,78,1,3,TL,vecolity,cursive,vecolity_c.png,,,,,,
,,,,27851,001,2025-10-20_11h42.34.556,HW_LDT_1,2024.2.4,MacIntel,58.82352941,,,,,,,,,,,,,,,,,,,,,,527.0174,527.217,527.2171,527.7165,,,,,,,,,,,,,,1.7115,0,,,,,,,,,,,,,,z,,,,,,,,,,,,,,,,107,1,527.7173,529.4309,m,0,1.7115,,[],[],[],[],[],[],[],529.431,531.431,531.4311,532.3467,[],[],[],[],[],[],[],z,532.3468,532.347,0.008903876,-0.391385159,0,0,0,,0,106,106,54,1,3,TL,manire,cursive,manire_c.png,0.9114,,,,,
,,,,27851,001,2025-10-20_11h42.34.556,HW_LDT_1,2024.2.4,MacIntel,58.82352941,,,,,,,,,,,,,,,,,,,,,,532.348,532.5461,532.5461,533.046,,,,,,,,,,,,,,2.2919,0,,,,,,,,,,,,,,m,,,,,,,,,,,,,,,,108,1,533.0465,535.3436,z,0,2.2919,,[],[],[],[],[],[],[],535.3436,537.3431,537.3431,538.758,[],[],[],[],[],[],[],z,538.7581,538.7582,0.008903876,-0.391385159,0,0,0,,0,107,107,140,1,3,word,RELATIVE,cursive,relative_c.png,1.4134,,,,,
,,,,27851,001,2025-10-20_11h42.34.556,HW_LDT_1,2024.2.4,MacIntel,58.82352941,,,,,,,,,,,,,,,,,,,,,,538.7589,538.9591,538.9591,539.4586,,,,,,,,,,,,,,1.2453,1,,,,,,,,,,,,,,z,,,,,,,,,,,,,,,,109,0,539.4591,540.7069,z,1,1.2453,,[],[],[],[],[],[],[],540.7069,542.7065,542.7066,542.7067,[],[],[],[],[],[],[],,542.7067,542.7068,0.008903876,-0.391385159,0,0,0,,0,108,108,75,1,3,TL,sloten,cursive,sloten_c.png,,,,,,
,,,,27851,001,2025-10-20_11h42.34.556,HW_LDT_1,2024.2.4,MacIntel,58.82352941,,,,,,,,,,,,,,,,,,,,,,542.7079,542.906,542.906,543.4061,,,,,,,,,,,,,,0.9433,1,,,,,,,,,,,,,,z,,,,,,,,,,,,,,,,110,0,543.4067,544.3541,z,1,0.9433,,[],[],[],[],[],[],[],544.3542,546.3538,546.3538,546.354,[],[],[],[],[],[],[],,546.354,546.3541,0.008903876,-0.391385159,0,0,0,,0,109,109,33,1,3,TL,adsivory,print,adsivory_p.png,,,,,,
,,,,27851,001,2025-10-20_11h42.34.556,HW_LDT_1,2024.2.4,MacIntel,58.82352941,,,,,,,,,,,,,,,,,,,,,,546.3552,546.5537,546.5537,547.0526,,,,,,,,,,,,,,0.8261,1,,,,,,,,,,,,,,z,,,,,,,,,,,,,,,,111,0,547.053,547.8859,z,1,0.8261,,[],[],[],[],[],[],[],547.886,549.8853,549.8854,549.8856,[],[],[],[],[],[],[],,549.8857,549.8858,0.008903876,-0.391385159,0,0,0,,0,110,110,58,1,3,TL,nuremical,print,nuremical_p.png,,,,,,
,,,,27851,001,2025-10-20_11h42.34.556,HW_LDT_1,2024.2.4,MacIntel,58.82352941,,,,,,,,,,,,,,,,,,,,,,549.8876,550.0844,550.0844,550.5844,,,,,,,,,,,,,,3.7409,1,,,,,,,,,,,,,,m,,,,,,,,,,,,,,,,112,0,550.5848,554.3311,m,1,3.7409,,[],[],[],[],[],[],[],554.3311,556.3299,556.3299,556.3301,[],[],[],[],[],[],[],,556.3302,556.3303,0.008903876,-0.391385159,0,0,0,,0,111,111,121,1,3,word,MISTAKE,cursive,mistake_c.png,,,,,,
,,,,27851,001,2025-10-20_11h42.34.556,HW_LDT_1,2024.2.4,MacIntel,58.82352941,,,,,,,,,,,,,,,,,,,,,,556.3314,556.5297,556.5297,557.0298,,,,,,,,,,,,,,0.725,1,,,,,,,,,,,,,,m,,,,,,,,,,,,,,,,113,0,557.0305,557.7626,m,1,0.725,,[],[],[],[],[],[],[],557.7627,559.7623,559.7623,559.7625,[],[],[],[],[],[],[],,559.7626,559.7627,0.008903876,-0.391385159,0,0,0,,0,112,112,85,1,3,word,BENEFIT,print,benefit_p.png,,,,,,
,,,,27851,001,2025-10-20_11h42.34.556,HW_LDT_1,2024.2.4,MacIntel,58.82352941,,,,,,,,,,,,,,,,,,,,,,559.7641,559.9619,559.962,560.4613,,,,,,,,,,,,,,0.7412,1,,,,,,,,,,,,,,z,,,,,,,,,,,,,,,,114,0,560.4618,561.2104,z,1,0.7412,,[],[],[],[],[],[],[],561.2105,563.2094,563.2094,563.2095,[],[],[],[],[],[],[],,563.2096,563.2098,0.008903876,-0.391385159,0,0,0,,0,113,113,67,1,3,TL,retome,print,retome_p.png,,,,,,
,,,,27851,001,2025-10-20_11h42.34.556,HW_LDT_1,2024.2.4,MacIntel,58.82352941,,,,,,,,,,,,,,,,,,,,,,563.2108,563.4092,563.4092,563.9092,,,,,,,,,,,,,,1.0097,1,,,,,,,,,,,,,,z,,,,,,,,,,,,,,,,115,0,563.9099,564.9245,z,1,1.0097,,[],[],[],[],[],[],[],564.9245,566.9238,566.9239,566.9241,[],[],[],[],[],[],[],,566.9241,566.9242,0.008903876,-0.391385159,0,0,0,,0,114,114,29,1,3,RL,selamor,cursive,selamor_c.png,,,,,,
,,,,27851,001,2025-10-20_11h42.34.556,HW_LDT_1,2024.2.4,MacIntel,58.82352941,,,,,,,,,,,,,,,,,,,,,,566.9255,567.1228,567.1229,567.6238,,,,,,,,,,,,,,0.9628,1,,,,,,,,,,,,,,z,,,,,,,,,,,,,,,,116,1,567.6244,568.5891,z,1,0.9628,,[],[],[],[],[],[],[],568.5891,570.5882,570.5882,571.4208,[],[],[],[],[],[],[],z,571.4209,571.421,0.008903876,-0.391385159,0,0,0,,0,115,115,42,1,3,TL,detabe,cursive,detabe_c.png,0.8241,,,,,
,,,,27851,001,2025-10-20_11h42.34.556,HW_LDT_1,2024.2.4,MacIntel,58.82352941,,,,,,,,,,,,,,,,,,,,,,571.4222,571.62,571.6201,572.1206,,,,,,,,,,,,,,0.7609,1,,,,,,,,,,,,,,m,,,,,,,,,,,,,,,,117,0,572.1213,572.8865,m,1,0.7609,,[],[],[],[],[],[],[],572.8866,574.8848,574.8848,574.8851,[],[],[],[],[],[],[],,574.8852,574.8853,0.008903876,-0.391385159,0,0,0,,0,116,116,94,1,3,word,CLINICAL,print,clinical_p.png,,,,,,
,,,,27851,001,2025-10-20_11h42.34.556,HW_LDT_1,2024.2.4,MacIntel,58.82352941,,,,,,,,,,,,,,,,,,,,,,574.8867,575.0854,575.0854,575.5836,,,,,,,,,,,,,,0.8229,1,,,,,,,,,,,,,,z,,,,,,,,,,,,,,,,118,1,575.584,576.4174,z,1,0.8229,,[],[],[],[],[],[],[],576.4174,578.4165,578.4166,579.4815,[],[],[],[],[],[],[],m,579.4815,579.4816,0.008903876,-0.391385159,0,0,0,,0,117,117,62,1,3,TL,prodive,print,prodive_p.png,1.0616,,,,,
,,,,27851,001,2025-10-20_11h42.34.556,HW_LDT_1,2024.2.4,MacIntel,58.82352941,,,,,,,,,,,,,,,,,,,,,,579.4825,579.6814,579.6815,580.1808,,,,,,,,,,,,,,0.8609,1,,,,,,,,,,,,,,m,,,,,,,,,,,,,,,,119,0,580.1816,581.0472,m,1,0.8609,,[],[],[],[],[],[],[],581.0474,583.0459,583.046,583.0461,[],[],[],[],[],[],[],,583.0462,583.0463,0.008903876,-0.391385159,0,0,0,,0,118,118,82,1,3,word,AMATEUR,print,amateur_p.png,,,,,,
,,,,27851,001,2025-10-20_11h42.34.556,HW_LDT_1,2024.2.4,MacIntel,58.82352941,,,,,,,,,,,,,,,,,,,,,,583.0479,583.2464,583.2465,583.7459,,,,,,,,,,,,,,2.7255,0,,,,,,,,,,,,,,m,,,,,,,,,,,,,,,,120,0,583.7463,586.4773,z,0,2.7255,,[],[],[],[],[],[],[],586.4774,588.4752,588.4752,588.4754,[],[],[],[],[],[],[],,588.4754,588.4755,0.008903876,-0.391385159,0,0,0,,0,119,119,128,1,3,word,PACIFIC,cursive,pacific_c.png,,,,,,
,,,,27851,001,2025-10-20_11h42.34.556,HW_LDT_1,2024.2.4,MacIntel,58.82352941,,,,,,,,,,,,,,,,,,,,,,588.4769,588.675,588.6751,589.175,,,,,,,,,,,,,,1.3626,1,,,,,,,,,,,,,,m,,,,,,,,,,,,,,,,121,0,589.1757,590.5407,m,1,1.3626,,[],[],[],[],[],[],[],590.5407,592.5404,592.5406,592.5407,[],[],[],[],[],[],[],,592.5409,592.5412,0.008903876,-0.391385159,0,0,0,,0,120,120,137,1,3,word,RAPIDLY,print,rapidly_p.png,,,,,,
,,,,27851,001,2025-10-20_11h42.34.556,HW_LDT_1,2024.2.4,MacIntel,58.82352941,,,,,,,,,,,,,,,,,,,,,,592.5425,592.7402,592.7402,593.24,,,,,,,,,,,,,,1.326,1,,,,,,,,,,,,,,z,,,,,,,,,,,,,,,,122,0,593.2407,594.5719,z,1,1.326,,[],[],[],[],[],[],[],594.5721,596.5705,596.5706,596.5709,[],[],[],[],[],[],[],,596.5709,596.5711,0.008903876,-0.391385159,0,0,0,,0,121,121,17,1,3,RL,motide,cursive,motide_c.png,,,,,,
,,,,27851,001,2025-10-20_11h42.34.556,HW_LDT_1,2024.2.4,MacIntel,58.82352941,,,,,,,,,,,,,,,,,,,,,,596.5725,596.7703,596.7703,597.2703,,,,,,,,,,,,,,0.7091,1,,,,,,,,,,,,,,m,,,,,,,,,,,,,,,,123,0,597.2709,597.9866,m,1,0.7091,,[],[],[],[],[],[],[],597.9866,599.9851,599.9851,599.9853,[],[],[],[],[],[],[],,599.9853,599.9855,0.008903876,-0.391385159,0,0,0,,0,122,122,125,1,3,word,OPERATOR,print,operator_p.png,,,,,,
,,,,27851,001,2025-10-20_11h42.34.556,HW_LDT_1,2024.2.4,MacIntel,58.82352941,,,,,,,,,,,,,,,,,,,,,,599.9869,600.1854,600.1854,600.684,,,,,,,,,,,,,,0.7279,1,,,,,,,,,,,,,,m,,,,,,,,,,,,,,,,124,0,600.6845,601.4169,m,1,0.7279,,[],[],[],[],[],[],[],601.417,603.4165,603.4165,603.4168,[],[],[],[],[],[],[],,603.4169,603.417,0.008903876,-0.391385159,0,0,0,,0,123,123,152,1,3,word,SPECIMEN,print,specimen_p.png,,,,,,
,,,,27851,001,2025-10-20_11h42.34.556,HW_LDT_1,2024.2.4,MacIntel,58.82352941,,,,,,,,,,,,,,,,,,,,,,603.4183,603.6164,603.6164,604.1159,,,,,,,,,,,,,,1.8905,0,,,,,,,,,,,,,,m,,,,,,,,,,,,,,,,125,0,604.1165,606.0145,z,0,1.8905,,[],[],[],[],[],[],[],606.0146,608.0124,608.0124,608.0126,[],[],[],[],[],[],[],,608.0127,608.0128,0.008903876,-0.391385159,0,0,0,,0,124,124,120,1,3,word,MILITARY,cursive,military_c.png,,,,,,
,,,,27851,001,2025-10-20_11h42.34.556,HW_LDT_1,2024.2.4,MacIntel,58.82352941,,,,,,,,,,,,,,,,,,,,,,608.0142,608.2126,608.2127,608.7128,,,,,,,,,,,,,,1.5412,1,,,,,,,,,,,,,,z,,,,,,,,,,,,,,,,126,0,608.7134,610.2606,z,1,1.5412,,[],[],[],[],[],[],[],610.2607,612.2597,612.2597,612.2599,[],[],[],[],[],[],[],,612.2599,612.26,0.008903876,-0.391385159,0,0,0,,0,125,125,65,1,3,TL,resufal,print,resufal_p.png,,,,,,
,,,,27851,001,2025-10-20_11h42.34.556,HW_LDT_1,2024.2.4,MacIntel,58.82352941,,,,,,,,,,,,,,,,,,,,,,612.2611,612.4602,612.4602,612.96,,,,,,,,,,,,,,0.6762,1,,,,,,,,,,,,,,m,,,,,,,,,,,,,,,,127,0,612.9603,613.6421,m,1,0.6762,,[],[],[],[],[],[],[],613.6421,615.641,615.641,615.6412,[],[],[],[],[],[],[],,615.6413,615.6414,0.008903876,-0.391385159,0,0,0,,0,126,126,95,1,3,word,COMEDY,print,comedy_p.png,,,,,,
,,,,27851,001,2025-10-20_11h42.34.556,HW_LDT_1,2024.2.4,MacIntel,58.82352941,,,,,,,,,,,,,,,,,,,,,,615.6424,615.8415,615.8417,616.3407,,,,,,,,,,,,,,0.8591,1,,,,,,,,,,,,,,z,,,,,,,,,,,,,,,,128,0,616.3413,617.2071,z,1,0.8591,,[],[],[],[],[],[],[],617.2071,619.2061,619.2061,619.2065,[],[],[],[],[],[],[],,619.2065,619.2066,0.008903876,-0.391385159,0,0,0,,0,127,127,56,1,3,TL,meromy,print,meromy_p.png,,,,,,
,,,,27851,001,2025-10-20_11h42.34.556,HW_LDT_1,2024.2.4,MacIntel,58.82352941,,,,,,,,,,,,,,,,,,,,,,619.208,619.405,619.405,619.9057,,,,,,,,,,,,,,0.8707,0,,,,,,,,,,,,,,m,,,,,,,,,,,,,,,,129,0,619.9065,620.7877,z,0,0.8707,,[],[],[],[],[],[],[],620.7877,622.7871,622.7871,622.7874,[],[],[],[],[],[],[],,622.7876,622.7879,0.008903876,-0.391385159,0,0,0,,0,128,128,149,1,3,word,SENATOR,cursive,senator_c.png,,,,,,
,,,,27851,001,2025-10-20_11h42.34.556,HW_LDT_1,2024.2.4,MacIntel,58.82352941,,,,,,,,,,,,,,,,,,,,,,622.789,622.9862,622.9863,623.4859,,,,,,,,,,,,,,0.7942,1,,,,,,,,,,,,,,z,,,,,,,,,,,,,,,,130,0,623.4866,624.2858,z,1,0.7942,,[],[],[],[],[],[],[],624.2859,626.2837,626.2838,626.284,[],[],[],[],[],[],[],,626.284,626.2842,0.008903876,-0.391385159,0,0,0,,0,129,129,49,1,3,TL,incidate,print,incidate_p.png,,,,,,
,,,,27851,001,2025-10-20_11h42.34.556,HW_LDT_1,2024.2.4,MacIntel,58.82352941,,,,,,,,,,,,,,,,,,,,,,626.2856,626.4839,626.484,626.984,,,,,,,,,,,,,,0.7268,1,,,,,,,,,,,,,,m,,,,,,,,,,,,,,,,131,1,626.9847,627.7164,m,1,0.7268,,[],[],[],[],[],[],[],627.7164,629.7152,629.7152,630.4645,[],[],[],[],[],[],[],m,630.4646,630.4647,0.008903876,-0.391385159,0,0,0,,0,130,130,111,1,3,word,INDICATE,print,indicate_p.png,0.7489,,,,,
,,,,27851,001,2025-10-20_11h42.34.556,HW_LDT_1,2024.2.4,MacIntel,58.82352941,,,,,,,,,,,,,,,,,,,,,,630.4657,630.6653,630.6654,631.164,,,,,,,,,,,,,,0.9913,1,,,,,,,,,,,,,,m,,,,,,,,,,,,,,,,132,0,631.1642,632.1632,m,1,0.9913,,[],[],[],[],[],[],[],632.1632,634.1627,634.1627,634.1629,[],[],[],[],[],[],[],,634.163,634.163,0.008903876,-0.391385159,0,0,0,,0,131,131,136,1,3,word,RADICAL,cursive,radical_c.png,,,,,,
,,,,27851,001,2025-10-20_11h42.34.556,HW_LDT_1,2024.2.4,MacIntel,58.82352941,,,,,,,,,,,,,,,,,,,,,,634.1643,634.3625,634.3626,634.8613,,,,,,,,,,,,,,0.9917,1,,,,,,,,,,,,,,m,,,,,,,,,,,,,,,,133,1,634.8617,635.8612,m,1,0.9917,,[],[],[],[],[],[],[],635.8612,637.8602,637.8602,640.1583,[],[],[],[],[],[],[],m,640.1583,640.1584,0.008903876,-0.391385159,0,0,0,,0,132,132,138,1,3,word,REFUSAL,print,refusal_p.png,2.2923,,,,,
,,,,27851,001,2025-10-20_11h42.34.556,HW_LDT_1,2024.2.4,MacIntel,58.82352941,,,,,,,,,,,,,,,,,,,,,,640.1592,640.3577,640.3577,640.8576,,,,,,,,,,,,,,1.1604,1,,,,,,,,,,,,,,z,,,,,,,,,,,,,,,,134,0,640.8583,642.0237,z,1,1.1604,,[],[],[],[],[],[],[],642.0238,644.0225,644.0225,644.0227,[],[],[],[],[],[],[],,644.0228,644.0229,0.008903876,-0.391385159,0,0,0,,0,133,133,1,1,3,RL,bewoted,cursive,bewoted_c.png,,,,,,
,,,,27851,001,2025-10-20_11h42.34.556,HW_LDT_1,2024.2.4,MacIntel,58.82352941,,,,,,,,,,,,,,,,,,,,,,644.0245,644.2224,644.2224,644.7224,,,,,,,,,,,,,,0.859,1,,,,,,,,,,,,,,z,,,,,,,,,,,,,,,,135,0,644.723,645.5883,z,1,0.859,,[],[],[],[],[],[],[],645.5884,647.587,647.5871,647.5873,[],[],[],[],[],[],[],,647.5874,647.5875,0.008903876,-0.391385159,0,0,0,,0,134,134,41,1,3,TL,crinimal,print,crinimal_p.png,,,,,,
,,,,27851,001,2025-10-20_11h42.34.556,HW_LDT_1,2024.2.4,MacIntel,58.82352941,,,,,,,,,,,,,,,,,,,,,,647.5887,647.7862,647.7863,648.2861,,,,,,,,,,,,,,0.6271,1,,,,,,,,,,,,,,z,,,,,,,,,,,,,,,,136,0,648.2867,648.9193,z,1,0.6271,,[],[],[],[],[],[],[],648.9193,650.9183,650.9184,650.9187,[],[],[],[],[],[],[],,650.9187,650.9189,0.008903876,-0.391385159,0,0,0,,0,135,135,2,1,3,RL,betemit,print,betemit_p.png,,,,,,
,,,,27851,001,2025-10-20_11h42.34.556,HW_LDT_1,2024.2.4,MacIntel,58.82352941,,,,,,,,,,,,,,,,,,,,,,650.9203,651.1177,651.1178,651.6171,,,,,,,,,,,,,,0.8765,1,,,,,,,,,,,,,,z,,,,,,,,,,,,,,,,137,0,651.6175,652.5002,z,1,0.8765,,[],[],[],[],[],[],[],652.5003,654.4983,654.4983,654.4985,[],[],[],[],[],[],[],,654.4985,654.4986,0.008903876,-0.391385159,0,0,0,,0,136,136,3,1,3,RL,bebine,cursive,bebine_c.png,,,,,,
,,,,27851,001,2025-10-20_11h42.34.556,HW_LDT_1,2024.2.4,MacIntel,58.82352941,,,,,,,,,,,,,,,,,,,,,,654.4998,654.6988,654.6988,655.1986,,,,,,,,,,,,,,0.8274,1,,,,,,,,,,,,,,m,,,,,,,,,,,,,,,,138,0,655.1994,656.0312,m,1,0.8274,,[],[],[],[],[],[],[],656.0312,658.03,658.03,658.0301,[],[],[],[],[],[],[],,658.0302,658.0304,0.008903876,-0.391385159,0,0,0,,0,137,137,134,1,3,word,QUALIFY,print,qualify_p.png,,,,,,
,,,,27851,001,2025-10-20_11h42.34.556,HW_LDT_1,2024.2.4,MacIntel,58.82352941,,,,,,,,,,,,,,,,,,,,,,658.0314,658.2304,658.2304,658.7293,,,,,,,,,,,,,,0.7441,1,,,,,,,,,,,,,,z,,,,,,,,,,,,,,,,139,1,658.7299,659.4782,z,1,0.7441,,[],[],[],[],[],[],[],659.4782,661.477,661.4771,662.5093,[],[],[],[],[],[],[],m,662.5093,662.5093,0.008903876,-0.391385159,0,0,0,,0,138,138,18,1,3,RL,onegator,print,onegator_p.png,1.0296,,,,,
,,,,27851,001,2025-10-20_11h42.34.556,HW_LDT_1,2024.2.4,MacIntel,58.82352941,,,,,,,,,,,,,,,,,,,,,,662.51,662.71,662.71,663.21,,,,,,,,,,,,,,1.159,1,,,,,,,,,,,,,,m,,,,,,,,,,,,,,,,140,0,663.2104,664.3751,m,1,1.159,,[],[],[],[],[],[],[],664.3752,666.3748,666.3748,666.375,[],[],[],[],[],[],[],,666.375,666.3753,0.008903876,-0.391385159,0,0,0,,0,139,139,143,1,3,word,REMOVAL,cursive,removal_c.png,,,,,,
,,,,27851,001,2025-10-20_11h42.34.556,HW_LDT_1,2024.2.4,MacIntel,58.82352941,,,,,,,,,,,,,,,,,,,,,,666.3769,666.5746,666.5746,667.0737,,,,,,,,,,,,,,1.9927,0,,,,,,,,,,,,,,m,,,,,,,,,,,,,,,,141,0,667.0742,669.072,z,0,1.9927,,[],[],[],[],[],[],[],669.072,671.0707,671.0707,671.071,[],[],[],[],[],[],[],,671.071,671.0711,0.008903876,-0.391385159,0,0,0,,0,140,140,92,1,3,word,CATEGORY,cursive,category_c.png,,,,,,
,,,,27851,001,2025-10-20_11h42.34.556,HW_LDT_1,2024.2.4,MacIntel,58.82352941,,,,,,,,,,,,,,,,,,,,,,671.0727,671.2711,671.2712,671.7705,,,,,,,,,,,,,,1.7766,1,,,,,,,,,,,,,,z,,,,,,,,,,,,,,,,142,0,671.7709,673.5532,z,1,1.7766,,[],[],[],[],[],[],[],673.5533,675.5511,675.5511,675.5513,[],[],[],[],[],[],[],,675.5514,675.5515,0.008903876,-0.391385159,0,0,0,,0,141,141,76,1,3,TL,stogare,cursive,stogare_c.png,,,,,,
,,,,27851,001,2025-10-20_11h42.34.556,HW_LDT_1,2024.2.4,MacIntel,58.82352941,,,,,,,,,,,,,,,,,,,,,,675.5529,675.7518,675.7519,676.2511,,,,,,,,,,,,,,3.3766,1,,,,,,,,,,,,,,z,,,,,,,,,,,,,,,,143,0,676.2516,679.6327,z,1,3.3766,,[],[],[],[],[],[],[],679.6327,681.6304,681.6305,681.6306,[],[],[],[],[],[],[],,681.6308,681.6308,0.008903876,-0.391385159,0,0,0,,0,142,142,20,1,3,RL,orimipal,cursive,orimipal_c.png,,,,,,
,,,,27851,001,2025-10-20_11h42.34.556,HW_LDT_1,2024.2.4,MacIntel,58.82352941,,,,,,,,,,,,,,,,,,,,,,681.6325,681.8299,681.8299,682.3299,,,,,,,,,,,,,,0.9943,0,,,,,,,,,,,,,,m,,,,,,,,,,,,,,,,144,0,682.3303,683.3292,z,0,0.9943,,[],[],[],[],[],[],[],683.3293,685.328,685.328,685.3281,[],[],[],[],[],[],[],,685.3282,685.3283,0.008903876,-0.391385159,0,0,0,,0,143,143,114,1,3,word,LOCATE,cursive,locate_c.png,,,,,,
,,,,27851,001,2025-10-20_11h42.34.556,HW_LDT_1,2024.2.4,MacIntel,58.82352941,,,,,,,,,,,,,,,,,,,,,,685.3294,685.5284,685.5284,686.0273,,,,,,,,,,,,,,1.0769,1,,,,,,,,,,,,,,m,,,,,,,,,,,,,,,,145,1,686.0278,687.1097,m,1,1.0769,,[],[],[],[],[],[],[],687.1097,689.1085,689.1086,690.3414,[],[],[],[],[],[],[],z,690.3416,690.3417,0.008903876,-0.391385159,0,0,0,,0,144,144,83,1,3,word,ANIMAL,cursive,animal_c.png,1.2325,,,,,
,,,,27851,001,2025-10-20_11h42.34.556,HW_LDT_1,2024.2.4,MacIntel,58.82352941,,,,,,,,,,,,,,,,,,,,,,690.3427,690.5418,690.5418,691.0405,,,,,,,,,,,,,,2.3095,1,,,,,,,,,,,,,,z,,,,,,,,,,,,,,,,146,0,691.0409,693.3558,z,1,2.3095,,[],[],[],[],[],[],[],693.3559,695.3542,695.3543,695.3548,[],[],[],[],[],[],[],,695.3549,695.3551,0.008903876,-0.391385159,0,0,0,,0,145,145,59,1,3,TL,paficic,cursive,paficic_c.png,,,,,,
,,,,27851,001,2025-10-20_11h42.34.556,HW_LDT_1,2024.2.4,MacIntel,58.82352941,,,,,,,,,,,,,,,,,,,,,,695.3559,695.5553,695.5554,696.0539,,,,,,,,,,,,,,2.043,1,,,,,,,,,,,,,,m,,,,,,,,,,,,,,,,147,0,696.0542,698.1027,m,1,2.043,,[],[],[],[],[],[],[],698.1028,700.1011,700.1011,700.1011,[],[],[],[],[],[],[],,700.1011,700.1013,0.008903876,-0.391385159,0,0,0,,0,146,146,154,1,3,word,STORAGE,cursive,storage_c.png,,,,,,
,,,,27851,001,2025-10-20_11h42.34.556,HW_LDT_1,2024.2.4,MacIntel,58.82352941,,,,,,,,,,,,,,,,,,,,,,700.1018,700.3016,700.3016,700.8013,,,,,,,,,,,,,,0.8438,1,,,,,,,,,,,,,,m,,,,,,,,,,,,,,,,148,0,700.8015,701.6502,m,1,0.8438,,[],[],[],[],[],[],[],701.6503,703.649,703.649,703.6491,[],[],[],[],[],[],[],,703.6493,703.6493,0.008903876,-0.391385159,0,0,0,,0,147,147,139,1,3,word,REGULAR,print,regular_p.png,,,,,,
,,,,27851,001,2025-10-20_11h42.34.556,HW_LDT_1,2024.2.4,MacIntel,58.82352941,,,,,,,,,,,,,,,,,,,,,,703.65,703.8485,703.8485,704.3498,,,,,,,,,,,,,,0.9253,1,,,,,,,,,,,,,,z,,,,,,,,,,,,,,,,149,0,704.3504,705.2821,z,1,0.9253,,[],[],[],[],[],[],[],705.2821,707.2811,707.2811,707.2813,[],[],[],[],[],[],[],,707.2814,707.2815,0.008903876,-0.391385159,0,0,0,,0,148,148,43,1,3,TL,dedace,cursive,dedace_c.png,,,,,,
,,,,27851,001,2025-10-20_11h42.34.556,HW_LDT_1,2024.2.4,MacIntel,58.82352941,,,,,,,,,,,,,,,,,,,,,,707.2833,707.4805,707.4806,707.9794,,,,,,,,,,,,,,1.2934,1,,,,,,,,,,,,,,z,,,,,,,,,,,,,,,,150,0,707.9801,709.279,z,1,1.2934,,[],[],[],[],[],[],[],709.279,711.2777,711.2777,711.278,[],[],[],[],[],[],[],,711.2781,711.2782,0.008903876,-0.391385159,0,0,0,,0,149,149,45,1,3,TL,dentisy,print,dentisy_p.png,,,,,,
,,,,27851,001,2025-10-20_11h42.34.556,HW_LDT_1,2024.2.4,MacIntel,58.82352941,,,,,,,,,,,,,,,,,,,,,,711.2796,711.4775,711.4776,711.978,,,,,,,,,,,,,,1.0258,1,,,,,,,,,,,,,,z,,,,,,,,,,,,,,,,151,1,711.9787,713.0094,z,1,1.0258,,[],[],[],[],[],[],[],713.0095,715.0093,715.0094,716.2085,[],[],[],[],[],[],[],z,716.2087,716.2088,0.008903876,-0.391385159,0,0,0,,0,150,150,15,1,3,RL,mifikary,cursive,mifikary_c.png,1.1929,,,,,
,,,,27851,001,2025-10-20_11h42.34.556,HW_LDT_1,2024.2.4,MacIntel,58.82352941,,,,,,,,,,,,,,,,,,,,,,716.2099,716.4076,716.4077,716.9081,,,,,,,,,,,,,,0.6777,1,,,,,,,,,,,,,,m,,,,,,,,,,,,,,,,152,0,716.909,717.5895,m,1,0.6777,,[],[],[],[],[],[],[],717.5895,719.5889,719.5889,719.5892,[],[],[],[],[],[],[],,719.5892,719.5894,0.008903876,-0.391385159,0,0,0,,0,151,151,133,1,3,word,PROVIDE,print,provide_p.png,,,,,,
,,,,27851,001,2025-10-20_11h42.34.556,HW_LDT_1,2024.2.4,MacIntel,58.82352941,,,,,,,,,,,,,,,,,,,,,,719.5907,719.7883,719.7883,720.2883,,,,,,,,,,,,,,0.6604,1,,,,,,,,,,,,,,m,,,,,,,,,,,,,,,,153,0,720.2889,720.9543,m,1,0.6604,,[],[],[],[],[],[],[],720.9544,722.9529,722.9529,722.9532,[],[],[],[],[],[],[],,722.9533,722.9534,0.008903876,-0.391385159,0,0,0,,0,152,152,80,1,3,word,ACADEMY,print,academy_p.png,,,,,,
,,,,27851,001,2025-10-20_11h42.34.556,HW_LDT_1,2024.2.4,MacIntel,58.82352941,,,,,,,,,,,,,,,,,,,,,,722.9548,723.1536,723.1536,723.6521,,,,,,,,,,,,,,0.7482,1,,,,,,,,,,,,,,m,,,,,,,,,,,,,,,,154,0,723.6524,724.4016,m,1,0.7482,,[],[],[],[],[],[],[],724.4016,726.4011,726.4012,726.4013,[],[],[],[],[],[],[],,726.4014,726.4015,0.008903876,-0.391385159,0,0,0,,0,153,153,87,1,3,word,CAFETERIA,print,cafeteria_p.png,,,,,,
,,,,27851,001,2025-10-20_11h42.34.556,HW_LDT_1,2024.2.4,MacIntel,58.82352941,,,,,,,,,,,,,,,,,,,,,,726.4029,726.6015,726.6015,727.0998,,,,,,,,,,,,,,0.8104,1,,,,,,,,,,,,,,m,,,,,,,,,,,,,,,,155,0,727.1002,727.9165,m,1,0.8104,,[],[],[],[],[],[],[],727.9165,729.9158,729.9158,729.916,[],[],[],[],[],[],[],,729.9161,729.9162,0.008903876,-0.391385159,0,0,0,,0,154,154,150,1,3,word,SENTIMENT,print,sentiment_p.png,,,,,,
,,,,27851,001,2025-10-20_11h42.34.556,HW_LDT_1,2024.2.4,MacIntel,58.82352941,,,,,,,,,,,,,,,,,,,,,,729.9171,730.1148,730.1149,730.6151,,,,,,,,,,,,,,0.9446,1,,,,,,,,,,,,,,z,,,,,,,,,,,,,,,,156,0,730.6157,731.5639,z,1,0.9446,,[],[],[],[],[],[],[],731.564,733.5621,733.5621,733.5622,[],[],[],[],[],[],[],,733.5622,733.5623,0.008903876,-0.391385159,0,0,0,,0,155,155,39,1,3,TL,clicinal,print,clicinal_p.png,,,,,,
,,,,27851,001,2025-10-20_11h42.34.556,HW_LDT_1,2024.2.4,MacIntel,58.82352941,,,,,,,,,,,,,,,,,,,,,,733.5633,733.7621,733.7621,734.2626,,,,,,,,,,,,,,0.8073,1,,,,,,,,,,,,,,m,,,,,,,,,,,,,,,,157,0,734.2631,735.0785,m,1,0.8073,,[],[],[],[],[],[],[],735.0785,737.0774,737.0775,737.0776,[],[],[],[],[],[],[],,737.0776,737.0777,0.008903876,-0.391385159,0,0,0,,0,156,156,153,1,3,word,STOLEN,cursive,stolen_c.png,,,,,,
,,,,27851,001,2025-10-20_11h42.34.556,HW_LDT_1,2024.2.4,MacIntel,58.82352941,,,,,,,,,,,,,,,,,,,,,,737.079,737.2774,737.2775,737.7761,,,,,,,,,,,,,,0.6787,1,,,,,,,,,,,,,,m,,,,,,,,,,,,,,,,158,0,737.7766,738.4601,m,1,0.6787,,[],[],[],[],[],[],[],738.4601,740.4586,740.4586,740.4588,[],[],[],[],[],[],[],,740.4589,740.459,0.008903876,-0.391385159,0,0,0,,0,157,157,118,1,3,word,MEDICINE,print,medicine_p.png,,,,,,
,,,,27851,001,2025-10-20_11h42.34.556,HW_LDT_1,2024.2.4,MacIntel,58.82352941,,,,,,,,,,,,,,,,,,,,,,740.4603,740.6574,740.6574,741.1582,,,,,,,,,,,,,,0.66,1,,,,,,,,,,,,,,m,,,,,,,,,,,,,,,,159,0,741.1588,741.8246,m,1,0.66,,[],[],[],[],[],[],[],741.8247,743.8233,743.8233,743.8235,[],[],[],[],[],[],[],,743.8236,743.8237,0.008903876,-0.391385159,0,0,0,,0,158,158,103,1,3,word,DISPUTE,print,dispute_p.png,,,,,,
,,,,27851,001,2025-10-20_11h42.34.556,HW_LDT_1,2024.2.4,MacIntel,58.82352941,,,,,,,,,,,,,,,,,,,,,,743.8249,744.0233,744.0234,744.5219,,,,,,,,,,,,,,1.3096,1,,,,,,,,,,,,,,z,,,,,,,,,,,,,,,,160,0,744.5226,745.8382,z,1,1.3096,,[],[],[],[],[],[],[],745.8382,747.8375,747.8376,747.8379,[],[],[],[],[],[],[],,747.8379,747.838,0.008903876,-0.391385159,0,0,0,,0,159,159,74,1,3,TL,spemicen,print,spemicen_p.png,,,,,,
,,,,27851,001,2025-10-20_11h42.34.556,HW_LDT_1,2024.2.4,MacIntel,58.82352941,,,,,,,,,,,,,,,,,,,,,,,,,,,,,,,,,,,,,,,,,,,,,,,,,,,,,,,,,,,,,,,,,,,,,,,,,,,,,,,,,,,,,,,,,,,,,,,,,,,,,,,,,,,,,,,,,,,,,,,747.8482,752.8337
