counterbalance_lists.group,counterbalance_lists.remaining,get_list.started,get_list.stopped,participant,session,date,expName,psychopyVersion,OS,frameRate,Instructions.started,Instructions.stopped,key_resp.keys,instr_done_touch.x,instr_done_touch.y,instr_done_touch.leftButton,instr_done_touch.midButton,instr_done_touch.rightButton,instr_done_touch.clicked_name,start_instr.thisRepN,start_instr.thisTrialN,start_instr.thisN,start_instr.thisIndex,start_instr.ran,pageN,phase,instruct_text,has_image,instruct_image,key_resp.rt,key_resp.duration,showProgress.started,showProgress.stopped,fix.started,fix.stopped,prac.started,prac.stopped,response.keys,response.corr,response.rt,response.duration,touch_resp.x,touch_resp.y,touch_resp.leftButton,touch_resp.midButton,touch_resp.rightButton,touch_resp.time,touch_resp.clicked_name,rt,corr,feedback.started,feedback.stopped,trials.thisRepN,trials.thisTrialN,trials.thisN,trials.thisIndex,trials.ran,TrialID,StimulusType,Condition,PrimeDuration,Prime,Target,corrAns,Instructions_expt.started,Instructions_expt.stopped,key_resp_3.keys,instr_done_touch_3.x,instr_done_touch_3.y,instr_done_touch_3.leftButton,instr_done_touch_3.midButton,instr_done_touch_3.rightButton,instr_done_touch_3.clicked_name,instr_experiment.thisRepN,instr_experiment.thisTrialN,instr_experiment.thisN,instr_experiment.thisIndex,instr_experiment.ran,trialID,flag,maintask.started,maintask.stopped,key_resp_2.keys,key_resp_2.corr,key_resp_2.rt,key_resp_2.duration,targ_click.x,targ_click.y,targ_click.leftButton,targ_click.midButton,targ_click.rightButton,targ_click.time,targ_click.clicked_name,ITI.started,ITI.stopped,probe.started,probe.stopped,click_probe.x,click_probe.y,click_probe.leftButton,click_probe.midButton,click_probe.rightButton,click_probe.time,click_probe.clicked_name,key_resp_probe.keys,Break.started,Break.stopped,break_done_touch.x,break_done_touch.y,break_done_touch.leftButton,break_done_touch.midButton,break_done_touch.rightButton,break_done_keyboard.keys,list2_trials.thisRepN,list2_trials.thisTrialN,list2_trials.thisN,list2_trials.thisIndex,list2_trials.ran,list_id,item_type,string,font,stim_file,key_resp_probe.rt,key_resp_probe.duration,break_done_touch.clicked_name,End.started,End.stopped
list2,,0.4571,0.4573,28003,001,2025-11-08_21h31.47.875,HW_LDT_1,2024.2.4,Win32,60.60606061,,,,,,,,,,,,,,,,,,,,,,,,,,,,,,,,,,,,,,,,,,,,,,,,,,,,,,,,,,,,,,,,,,,,,,,,,,,,,,,,,,,,,,,,,,,,,,,,,,,,,,,,,,,,,,,,,,,,,,
,,,,28003,001,2025-11-08_21h31.47.875,HW_LDT_1,2024.2.4,Win32,60.60606061,0.487,1.5577,,0.085531624,-0.398081535,1,0,0,instr_done_button,0,0,0,0,1,1,instructions,"INSTRUCTIONS
At the start of each trial, look at the plus sign  (+) in the center of the screen.  This tells you that a trial is about to begin and where to look. Second, the plus sign will disappear and a string of letters will appear. Your task is to determine if the string of letters is a word or not. If the item is a word press the M key (on keyboard)  or touch the word button (phone/tablet).  If the item is not a word,  press the  Z key (on keyboard)  or touch the nonword button (on phone/tablet). The items will be presented for a short time. 
Press the space bar or touch  continue.",0,,,,,,,,,,,,,,,,,,,,,,,,,,,,,,,,,,,,,,,,,,,,,,,,,,,,,,,,,,,,,,,,,,,,,,,,,,,,,,,,,,,,,,,,,,,,,,,,,,,,
,,,,28003,001,2025-11-08_21h31.47.875,HW_LDT_1,2024.2.4,Win32,60.60606061,1.5607,24.7902,,0.002398082,-0.411670712,1,0,0,instr_done_button,0,1,1,1,1,2,instructions,"If your device has a keyboard, press the 'Z' key for nonwords and the 'M' key for words.





Press the space bar or touch the button below to continue.",0,keyboard-example.gif,,,,,,,,,,,,,,,,,,,,,,,,,,,,,,,,,,,,,,,,,,,,,,,,,,,,,,,,,,,,,,,,,,,,,,,,,,,,,,,,,,,,,,,,,,,,,,,,,,,
,,,,28003,001,2025-11-08_21h31.47.875,HW_LDT_1,2024.2.4,Win32,60.60606061,24.7942,46.857,,-0.049560327,-0.370103941,1,0,0,instr_done_button,0,2,2,2,1,3,instructions,"If you are using a touchscreen only device, use the buttons on the screen. Do not use the mouse.





Press the space bar or touch the button below to continue.",0,touchscreen-example.gif,,,,,,,,,,,,,,,,,,,,,,,,,,,,,,,,,,,,,,,,,,,,,,,,,,,,,,,,,,,,,,,,,,,,,,,,,,,,,,,,,,,,,,,,,,,,,,,,,,,
,,,,28003,001,2025-11-08_21h31.47.875,HW_LDT_1,2024.2.4,Win32,60.60606061,46.8681,48.1901,space,0.162270233,-0.26618705,0,0,0,,0,3,3,3,1,4,instructions,"It is very important that you respond as quickly and accurately as possible, as each letter string will only be on the screen for two seconds. If you do not respond within this time, the message 'Too slow!' will be displayed and the experiment will progress to the next letter string. The first 20 trials will be practice trials and you will receive feedback on your answers. 

Press the space bar or touch the button below to start the practice trials.",0,,1.2932,,,,,,,,,,,,,,,,,,,,,,,,,,,,,,,,,,,,,,,,,,,,,,,,,,,,,,,,,,,,,,,,,,,,,,,,,,,,,,,,,,,,,,,,,,,,,,,,,,
,,,,28003,001,2025-11-08_21h31.47.875,HW_LDT_1,2024.2.4,Win32,60.60606061,,,,,,,,,,,,,,,,,,,,,,48.2369,48.3903,48.3907,48.8896,48.891,52.176,z,1,3.2403,,[],[],[],[],[],[],[],3.2403,1,52.177,52.6731,0,0,0,8,1,1009,NW,"ID",33,aslert,ASLERT,z,,,,,,,,,,,,,,,,,,,,,,,,,,,,,,,,,,,,,,,,,,,,,,,,,,,,,,,,,,,,,,,,
,,,,28003,001,2025-11-08_21h31.47.875,HW_LDT_1,2024.2.4,Win32,60.60606061,,,,,,,,,,,,,,,,,,,,,,52.6753,52.8734,52.8735,53.3735,53.3763,54.2066,m,1,0.8082,,[],[],[],[],[],[],[],0.8082,1,54.2068,54.6748,0,1,1,5,1,1006,WORD,UN,33,frenzy,OBTAIN,m,,,,,,,,,,,,,,,,,,,,,,,,,,,,,,,,,,,,,,,,,,,,,,,,,,,,,,,,,,,,,,,,
,,,,28003,001,2025-11-08_21h31.47.875,HW_LDT_1,2024.2.4,Win32,60.60606061,,,,,,,,,,,,,,,,,,,,,,54.6773,54.8725,54.8726,55.3731,55.3751,56.1565,z,1,0.7642,,[],[],[],[],[],[],[],0.7642,1,56.1567,56.656,0,2,2,14,1,1015,NW,UN,16,miaber,THRALE,z,,,,,,,,,,,,,,,,,,,,,,,,,,,,,,,,,,,,,,,,,,,,,,,,,,,,,,,,,,,,,,,,
,,,,28003,001,2025-11-08_21h31.47.875,HW_LDT_1,2024.2.4,Win32,60.60606061,,,,,,,,,,,,,,,,,,,,,,56.6589,56.8561,56.8562,57.3564,57.3596,58.4004,m,1,1.0234,,[],[],[],[],[],[],[],1.0234,1,58.4007,58.899,0,3,3,1,1,1002,WORD,"ID",33,adjust,ADJUST,m,,,,,,,,,,,,,,,,,,,,,,,,,,,,,,,,,,,,,,,,,,,,,,,,,,,,,,,,,,,,,,,,
,,,,28003,001,2025-11-08_21h31.47.875,HW_LDT_1,2024.2.4,Win32,60.60606061,,,,,,,,,,,,,,,,,,,,,,58.9013,59.0981,59.0982,59.596,59.5973,60.3333,m,1,0.7196,,[],[],[],[],[],[],[],0.7196,1,60.3336,60.8318,0,4,4,4,1,1005,WORD,UN,33,abound,SQUEAK,m,,,,,,,,,,,,,,,,,,,,,,,,,,,,,,,,,,,,,,,,,,,,,,,,,,,,,,,,,,,,,,,,
,,,,28003,001,2025-11-08_21h31.47.875,HW_LDT_1,2024.2.4,Win32,60.60606061,,,,,,,,,,,,,,,,,,,,,,60.8335,61.0313,61.0315,61.5306,61.5325,62.1994,m,1,0.6513,,[],[],[],[],[],[],[],0.6513,1,62.1997,62.6979,0,5,5,7,1,1008,WORD,UN,16,hurdle,VOLUME,m,,,,,,,,,,,,,,,,,,,,,,,,,,,,,,,,,,,,,,,,,,,,,,,,,,,,,,,,,,,,,,,,
,,,,28003,001,2025-11-08_21h31.47.875,HW_LDT_1,2024.2.4,Win32,60.60606061,,,,,,,,,,,,,,,,,,,,,,62.7012,62.8985,62.8986,63.3986,63.3998,64.0163,m,1,0.601,,[],[],[],[],[],[],[],0.601,1,64.0165,64.5136,0,6,6,6,1,1007,WORD,UN,16,tropic,ZOMBIE,m,,,,,,,,,,,,,,,,,,,,,,,,,,,,,,,,,,,,,,,,,,,,,,,,,,,,,,,,,,,,,,,,
,,,,28003,001,2025-11-08_21h31.47.875,HW_LDT_1,2024.2.4,Win32,60.60606061,,,,,,,,,,,,,,,,,,,,,,64.5158,64.7131,64.7132,65.2138,65.2155,65.8656,z,1,0.6339,,[],[],[],[],[],[],[],0.6339,1,65.8658,66.3645,0,7,7,15,1,1016,NW,UN,16,mushed,WHAISE,z,,,,,,,,,,,,,,,,,,,,,,,,,,,,,,,,,,,,,,,,,,,,,,,,,,,,,,,,,,,,,,,,
,,,,28003,001,2025-11-08_21h31.47.875,HW_LDT_1,2024.2.4,Win32,60.60606061,,,,,,,,,,,,,,,,,,,,,,66.3675,66.6364,66.6364,67.0574,67.0588,67.6562,z,1,0.5745,,[],[],[],[],[],[],[],0.5745,1,67.6564,68.1563,0,8,8,11,1,1012,NW,"ID",16,rashet,RASHET,z,,,,,,,,,,,,,,,,,,,,,,,,,,,,,,,,,,,,,,,,,,,,,,,,,,,,,,,,,,,,,,,,
,,,,28003,001,2025-11-08_21h31.47.875,HW_LDT_1,2024.2.4,Win32,60.60606061,,,,,,,,,,,,,,,,,,,,,,68.1593,68.3567,68.3568,68.8569,68.8595,69.5305,z,1,0.6509,,[],[],[],[],[],[],[],0.6509,1,69.5306,70.0316,0,9,9,9,1,1010,NW,"ID",33,fariny,FARINY,z,,,,,,,,,,,,,,,,,,,,,,,,,,,,,,,,,,,,,,,,,,,,,,,,,,,,,,,,,,,,,,,,
,,,,28003,001,2025-11-08_21h31.47.875,HW_LDT_1,2024.2.4,Win32,60.60606061,,,,,,,,,,,,,,,,,,,,,,70.0331,70.2317,70.2317,70.7312,70.7331,71.3317,z,0,0.5817,,[],[],[],[],[],[],[],0.5817,0,71.3328,71.8325,0,10,10,3,1,1004,WORD,"ID",16,matrix,MATRIX,m,,,,,,,,,,,,,,,,,,,,,,,,,,,,,,,,,,,,,,,,,,,,,,,,,,,,,,,,,,,,,,,,
,,,,28003,001,2025-11-08_21h31.47.875,HW_LDT_1,2024.2.4,Win32,60.60606061,,,,,,,,,,,,,,,,,,,,,,71.8344,72.0317,72.0318,72.5295,72.5312,73.3659,z,1,0.8189,,[],[],[],[],[],[],[],0.8189,1,73.3671,73.866,0,11,11,12,1,1013,NW,UN,33,adveil,SPRINY,z,,,,,,,,,,,,,,,,,,,,,,,,,,,,,,,,,,,,,,,,,,,,,,,,,,,,,,,,,,,,,,,,
,,,,28003,001,2025-11-08_21h31.47.875,HW_LDT_1,2024.2.4,Win32,60.60606061,,,,,,,,,,,,,,,,,,,,,,73.8681,74.0651,74.0652,74.5634,74.5645,75.2989,z,1,0.7186,,[],[],[],[],[],[],[],0.7186,1,75.2991,75.7907,0,12,12,13,1,1014,NW,UN,33,winfer,ROUPET,z,,,,,,,,,,,,,,,,,,,,,,,,,,,,,,,,,,,,,,,,,,,,,,,,,,,,,,,,,,,,,,,,
,,,,28003,001,2025-11-08_21h31.47.875,HW_LDT_1,2024.2.4,Win32,60.60606061,,,,,,,,,,,,,,,,,,,,,,75.793,75.9905,75.9906,76.4905,76.492,77.4235,m,0,0.9015,,[],[],[],[],[],[],[],0.9015,0,77.425,77.9243,0,13,13,10,1,1011,NW,"ID",16,inlade,INLADE,z,,,,,,,,,,,,,,,,,,,,,,,,,,,,,,,,,,,,,,,,,,,,,,,,,,,,,,,,,,,,,,,,
,,,,28003,001,2025-11-08_21h31.47.875,HW_LDT_1,2024.2.4,Win32,60.60606061,,,,,,,,,,,,,,,,,,,,,,77.9264,78.1234,78.1234,78.6447,78.6458,79.4401,m,1,0.7718,,[],[],[],[],[],[],[],0.7718,1,79.442,79.9318,0,14,14,2,1,1003,WORD,"ID",16,almond,ALMOND,m,,,,,,,,,,,,,,,,,,,,,,,,,,,,,,,,,,,,,,,,,,,,,,,,,,,,,,,,,,,,,,,,
,,,,28003,001,2025-11-08_21h31.47.875,HW_LDT_1,2024.2.4,Win32,60.60606061,,,,,,,,,,,,,,,,,,,,,,79.9343,80.1313,80.1314,80.6297,80.6306,81.7997,m,1,1.152,,[],[],[],[],[],[],[],1.152,1,81.7998,82.2982,0,15,15,0,1,1001,WORD,"ID",33,utopia,UTOPIA,m,,,,,,,,,,,,,,,,,,,,,,,,,,,,,,,,,,,,,,,,,,,,,,,,,,,,,,,,,,,,,,,,
,,,,28003,001,2025-11-08_21h31.47.875,HW_LDT_1,2024.2.4,Win32,60.60606061,,,,,,,,,,,,,,,1,end_of_practice,"You have completed the practice trials. During the experimental trials, you will not receive feedback. On some trials you will be asked to report whether the item you just saw was in cursive or print. 
Before you begin, please ensure that you are in a comfortable and quiet location and will not be disturbed for about 15 minutes, as we cannot use your data if you do not complete all the trials. 
 When you are ready to start the experimental trials, please press space or touch the button below.",,,,,,,,,,,,,,,,,,,,,,,,,,,,,,,,,,,,,,82.3085,94.31,,0.012789793,-0.413269409,1,0,0,instr_done_button_3,0,0,0,0,1,,,,,,,,,,,,,,,,,,,,,,,,,,,,,,,,,,,,,,,,,,,,,,,,,,
,,,,28003,001,2025-11-08_21h31.47.875,HW_LDT_1,2024.2.4,Win32,60.60606061,,,,,,,,,,,,,,,,,,,,,,94.3274,94.5069,94.5069,95.007,,,,,,,,,,,,,,3.3662,0,,,,,,,,,,,,,,m,,,,,,,,,,,,,,,1,0,95.0111,98.3836,z,0,3.3662,,[],[],[],[],[],[],[],98.384,100.3746,100.375,100.3898,[],[],[],[],[],[],[],,100.39,100.3965,0.119904077,-0.288569169,0,0,0,,0,0,0,105,1,2,word,EDITOR,cursive,editor_c.png,,,,,
,,,,28003,001,2025-11-08_21h31.47.875,HW_LDT_1,2024.2.4,Win32,60.60606061,,,,,,,,,,,,,,,,,,,,,,100.398,100.5903,100.5904,101.09,,,,,,,,,,,,,,1.3729,1,,,,,,,,,,,,,,z,,,,,,,,,,,,,,,2,1,101.0913,102.4741,z,1,1.3729,,[],[],[],[],[],[],[],102.4743,104.4739,104.4741,107.2239,[],[],[],[],[],[],[],m,107.224,107.2242,0.119904077,-0.288569169,0,0,0,,0,1,1,0,1,2,RL,adnicory,print,adnicory_p.png,2.7483,,,,
,,,,28003,001,2025-11-08_21h31.47.875,HW_LDT_1,2024.2.4,Win32,60.60606061,,,,,,,,,,,,,,,,,,,,,,107.226,107.424,107.4241,107.9239,,,,,,,,,,,,,,4.2622,1,,,,,,,,,,,,,,z,,,,,,,,,,,,,,,3,0,107.9247,112.1904,z,1,4.2622,,[],[],[],[],[],[],[],112.1907,114.1905,114.1907,114.191,[],[],[],[],[],[],[],,114.1912,114.1913,0.119904077,-0.288569169,0,0,0,,0,2,2,33,1,2,RL,strapely,cursive,strapely_c.png,,,,,
,,,,28003,001,2025-11-08_21h31.47.875,HW_LDT_1,2024.2.4,Win32,60.60606061,,,,,,,,,,,,,,,,,,,,,,114.1938,114.3911,114.3912,114.8907,,,,,,,,,,,,,,3.3073,0,,,,,,,,,,,,,,z,,,,,,,,,,,,,,,4,0,114.8916,118.2072,m,0,3.3073,,[],[],[],[],[],[],[],118.2074,120.2071,120.2072,120.2074,[],[],[],[],[],[],[],,120.2075,120.2076,0.119904077,-0.288569169,0,0,0,,0,3,3,8,1,2,RL,desifate,print,desifate_p.png,,,,,
,,,,28003,001,2025-11-08_21h31.47.875,HW_LDT_1,2024.2.4,Win32,60.60606061,,,,,,,,,,,,,,,,,,,,,,120.2096,120.4075,120.4076,120.907,,,,,,,,,,,,,,2.5354,1,,,,,,,,,,,,,,z,,,,,,,,,,,,,,,5,0,120.9076,123.4458,z,1,2.5354,,[],[],[],[],[],[],[],123.446,125.4409,125.441,125.4415,[],[],[],[],[],[],[],,125.4415,125.4417,0.119904077,-0.288569169,0,0,0,,0,4,4,38,1,2,TL,atameur,cursive,atameur_c.png,,,,,
,,,,28003,001,2025-11-08_21h31.47.875,HW_LDT_1,2024.2.4,Win32,60.60606061,,,,,,,,,,,,,,,,,,,,,,125.4436,125.6543,125.6544,126.1323,,,,,,,,,,,,,,1.2179,1,,,,,,,,,,,,,,m,,,,,,,,,,,,,,,6,0,126.1333,127.3579,m,1,1.2179,,[],[],[],[],[],[],[],127.3582,129.3567,129.3567,129.3572,[],[],[],[],[],[],[],,129.3573,129.3574,0.119904077,-0.288569169,0,0,0,,0,5,5,156,1,2,word,TRIBUTE,cursive,tribute_c.png,,,,,
,,,,28003,001,2025-11-08_21h31.47.875,HW_LDT_1,2024.2.4,Win32,60.60606061,,,,,,,,,,,,,,,,,,,,,,129.3595,129.5508,129.5508,130.0566,,,,,,,,,,,,,,0.8653,1,,,,,,,,,,,,,,m,,,,,,,,,,,,,,,7,0,130.0571,130.925,m,1,0.8653,,[],[],[],[],[],[],[],130.9251,132.9243,132.9246,132.9251,[],[],[],[],[],[],[],,132.9253,132.9257,0.119904077,-0.288569169,0,0,0,,0,6,6,130,1,2,word,POLICY,print,policy_p.png,,,,,
,,,,28003,001,2025-11-08_21h31.47.875,HW_LDT_1,2024.2.4,Win32,60.60606061,,,,,,,,,,,,,,,,,,,,,,132.9305,133.1243,133.1244,133.6472,,,,,,,,,,,,,,2.1024,0,,,,,,,,,,,,,,z,,,,,,,,,,,,,,,8,0,133.6479,135.7578,m,0,2.1024,,[],[],[],[],[],[],[],135.758,137.7577,137.7578,137.7582,[],[],[],[],[],[],[],,137.7583,137.7587,0.119904077,-0.288569169,0,0,0,,0,7,7,61,1,2,TL,nuremical,cursive,nuremical_c.png,,,,,
,,,,28003,001,2025-11-08_21h31.47.875,HW_LDT_1,2024.2.4,Win32,60.60606061,,,,,,,,,,,,,,,,,,,,,,137.7618,137.9575,137.9575,138.4573,,,,,,,,,,,,,,0.792,1,,,,,,,,,,,,,,m,,,,,,,,,,,,,,,9,0,138.4582,139.2578,m,1,0.792,,[],[],[],[],[],[],[],139.258,141.2571,141.2572,141.2574,[],[],[],[],[],[],[],,141.2575,141.2577,0.119904077,-0.288569169,0,0,0,,0,8,8,153,1,2,word,STOLEN,print,stolen_p.png,,,,,
,,,,28003,001,2025-11-08_21h31.47.875,HW_LDT_1,2024.2.4,Win32,60.60606061,,,,,,,,,,,,,,,,,,,,,,141.2601,141.4578,141.4579,141.9577,,,,,,,,,,,,,,1.0282,1,,,,,,,,,,,,,,z,,,,,,,,,,,,,,,10,0,141.9589,142.9909,z,1,1.0282,,[],[],[],[],[],[],[],142.9911,144.9907,144.9909,144.9912,[],[],[],[],[],[],[],,144.9913,144.9917,0.119904077,-0.288569169,0,0,0,,0,9,9,77,1,2,TL,sloten,print,sloten_p.png,,,,,
,,,,28003,001,2025-11-08_21h31.47.875,HW_LDT_1,2024.2.4,Win32,60.60606061,,,,,,,,,,,,,,,,,,,,,,144.9941,145.1909,145.191,145.6904,,,,,,,,,,,,,,1.2799,1,,,,,,,,,,,,,,m,,,,,,,,,,,,,,,11,0,145.6911,146.9744,m,1,1.2799,,[],[],[],[],[],[],[],146.9745,148.9749,148.975,148.9752,[],[],[],[],[],[],[],,148.9753,148.9755,0.119904077,-0.288569169,0,0,0,,0,10,10,151,1,2,word,SPECIFIC,print,specific_p.png,,,,,
,,,,28003,001,2025-11-08_21h31.47.875,HW_LDT_1,2024.2.4,Win32,60.60606061,,,,,,,,,,,,,,,,,,,,,,148.9781,149.1746,149.1748,149.674,,,,,,,,,,,,,,1.275,1,,,,,,,,,,,,,,z,,,,,,,,,,,,,,,12,1,149.6751,150.9576,z,1,1.275,,[],[],[],[],[],[],[],150.9578,152.9597,152.9598,154.6592,[],[],[],[],[],[],[],z,154.6593,154.6594,0.119904077,-0.288569169,0,0,0,,0,11,11,69,1,2,TL,resufal,cursive,resufal_c.png,1.698,,,,
,,,,28003,001,2025-11-08_21h31.47.875,HW_LDT_1,2024.2.4,Win32,60.60606061,,,,,,,,,,,,,,,,,,,,,,154.6613,154.8575,154.8577,155.3582,,,,,,,,,,,,,,2.1396,1,,,,,,,,,,,,,,z,,,,,,,,,,,,,,,13,1,155.3597,157.5073,z,1,2.1396,,[],[],[],[],[],[],[],157.5075,159.5077,159.5079,166.0406,[],[],[],[],[],[],[],z,166.0408,166.0415,0.119904077,-0.288569169,0,0,0,,0,12,12,30,1,2,RL,selamor,print,selamor_p.png,6.5309,,,,
,,,,28003,001,2025-11-08_21h31.47.875,HW_LDT_1,2024.2.4,Win32,60.60606061,,,,,,,,,,,,,,,,,,,,,,166.0435,166.2415,166.2417,166.7415,,,,,,,,,,,,,,2.2393,1,,,,,,,,,,,,,,z,,,,,,,,,,,,,,,14,0,166.7424,168.9841,z,1,2.2393,,[],[],[],[],[],[],[],168.9843,170.9745,170.9746,170.9748,[],[],[],[],[],[],[],,170.9748,170.975,0.119904077,-0.288569169,0,0,0,,0,13,13,78,1,2,TL,stogare,print,stogare_p.png,,,,,
,,,,28003,001,2025-11-08_21h31.47.875,HW_LDT_1,2024.2.4,Win32,60.60606061,,,,,,,,,,,,,,,,,,,,,,170.9769,171.1745,171.1745,171.6739,,,,,,,,,,,,,,2.2776,1,,,,,,,,,,,,,,z,,,,,,,,,,,,,,,15,0,171.6747,173.9579,z,1,2.2776,,[],[],[],[],[],[],[],173.9579,175.9579,175.958,175.9582,[],[],[],[],[],[],[],,175.9583,175.9585,0.119904077,-0.288569169,0,0,0,,0,14,14,41,1,2,TL,befenit,cursive,befenit_c.png,,,,,
,,,,28003,001,2025-11-08_21h31.47.875,HW_LDT_1,2024.2.4,Win32,60.60606061,,,,,,,,,,,,,,,,,,,,,,175.9604,176.158,176.1581,176.6579,,,,,,,,,,,,,,1.2292,1,,,,,,,,,,,,,,m,,,,,,,,,,,,,,,16,0,176.6586,177.8916,m,1,1.2292,,[],[],[],[],[],[],[],177.8918,179.8917,179.8918,179.8921,[],[],[],[],[],[],[],,179.8922,179.8923,0.119904077,-0.288569169,0,0,0,,0,15,15,80,1,2,word,ACADEMY,cursive,academy_c.png,,,,,
,,,,28003,001,2025-11-08_21h31.47.875,HW_LDT_1,2024.2.4,Win32,60.60606061,,,,,,,,,,,,,,,,,,,,,,179.8944,180.0918,180.092,180.591,,,,,,,,,,,,,,0.9121,1,,,,,,,,,,,,,,m,,,,,,,,,,,,,,,17,0,180.5919,181.5075,m,1,0.9121,,[],[],[],[],[],[],[],181.5076,183.5076,183.5077,183.5081,[],[],[],[],[],[],[],,183.5082,183.5083,0.119904077,-0.288569169,0,0,0,,0,16,16,99,1,2,word,DEBATE,print,debate_p.png,,,,,
,,,,28003,001,2025-11-08_21h31.47.875,HW_LDT_1,2024.2.4,Win32,60.60606061,,,,,,,,,,,,,,,,,,,,,,183.5107,183.7079,183.7079,184.2086,,,,,,,,,,,,,,1.4937,1,,,,,,,,,,,,,,z,,,,,,,,,,,,,,,18,0,184.2096,185.7078,z,1,1.4937,,[],[],[],[],[],[],[],185.7079,187.7087,187.7087,187.709,[],[],[],[],[],[],[],,187.7091,187.7093,0.119904077,-0.288569169,0,0,0,,0,17,17,62,1,2,TL,opmital,cursive,opmital_c.png,,,,,
,,,,28003,001,2025-11-08_21h31.47.875,HW_LDT_1,2024.2.4,Win32,60.60606061,,,,,,,,,,,,,,,,,,,,,,187.7113,187.9093,187.9094,188.4082,,,,,,,,,,,,,,1.762,1,,,,,,,,,,,,,,m,,,,,,,,,,,,,,,19,0,188.4088,190.1749,m,1,1.762,,[],[],[],[],[],[],[],190.1751,192.1745,192.1746,192.1749,[],[],[],[],[],[],[],,192.1749,192.1753,0.119904077,-0.288569169,0,0,0,,0,18,18,128,1,2,word,PACIFIC,print,pacific_p.png,,,,,
,,,,28003,001,2025-11-08_21h31.47.875,HW_LDT_1,2024.2.4,Win32,60.60606061,,,,,,,,,,,,,,,,,,,,,,192.1776,192.3746,192.3746,192.8746,,,,,,,,,,,,,,0.8921,1,,,,,,,,,,,,,,z,,,,,,,,,,,,,,,20,0,192.8751,193.7746,z,1,0.8921,,[],[],[],[],[],[],[],193.7746,195.7745,195.7746,195.7748,[],[],[],[],[],[],[],,195.7749,195.775,0.119904077,-0.288569169,0,0,0,,0,19,19,13,1,2,RL,helicage,print,helicage_p.png,,,,,
,,,,28003,001,2025-11-08_21h31.47.875,HW_LDT_1,2024.2.4,Win32,60.60606061,,,,,,,,,,,,,,,,,,,,,,195.7773,195.9749,195.975,196.4751,,,,,,,,,,,,,,2.1785,0,,,,,,,,,,,,,,m,,,,,,,,,,,,,,,21,0,196.4758,198.6577,z,0,2.1785,,[],[],[],[],[],[],[],198.6578,200.6578,200.6579,200.6582,[],[],[],[],[],[],[],,200.6582,200.6583,0.119904077,-0.288569169,0,0,0,,0,20,20,123,1,2,word,MODERATE,cursive,moderate_c.png,,,,,
,,,,28003,001,2025-11-08_21h31.47.875,HW_LDT_1,2024.2.4,Win32,60.60606061,,,,,,,,,,,,,,,,,,,,,,200.66,200.8584,200.8584,201.3583,,,,,,,,,,,,,,2.9394,1,,,,,,,,,,,,,,m,,,,,,,,,,,,,,,22,0,201.3591,204.3006,m,1,2.9394,,[],[],[],[],[],[],[],204.3007,206.2913,206.2914,206.2916,[],[],[],[],[],[],[],,206.2917,206.2918,0.119904077,-0.288569169,0,0,0,,0,21,21,112,1,2,word,LIBERAL,print,liberal_p.png,,,,,
,,,,28003,001,2025-11-08_21h31.47.875,HW_LDT_1,2024.2.4,Win32,60.60606061,,,,,,,,,,,,,,,,,,,,,,206.2935,206.491,206.4911,206.9837,,,,,,,,,,,,,,0.8487,1,,,,,,,,,,,,,,m,,,,,,,,,,,,,,,23,1,206.9844,207.8415,m,1,0.8487,,[],[],[],[],[],[],[],207.8416,209.8419,209.842,214.2913,[],[],[],[],[],[],[],m,214.2914,214.2916,0.119904077,-0.288569169,0,0,0,,0,22,22,129,1,2,word,PARENT,print,parent_p.png,4.4437,,,,
,,,,28003,001,2025-11-08_21h31.47.875,HW_LDT_1,2024.2.4,Win32,60.60606061,,,,,,,,,,,,,,,,,,,,,,214.2937,214.4913,214.4914,214.9914,,,,,,,,,,,,,,0.9576,0,,,,,,,,,,,,,,m,,,,,,,,,,,,,,,24,1,214.9923,215.9587,z,0,0.9576,,[],[],[],[],[],[],[],215.9589,217.9576,217.9578,219.508,[],[],[],[],[],[],[],z,219.5081,219.5083,0.119904077,-0.288569169,0,0,0,,0,23,23,134,1,2,word,QUALIFY,cursive,qualify_c.png,1.5418,,,,
,,,,28003,001,2025-11-08_21h31.47.875,HW_LDT_1,2024.2.4,Win32,60.60606061,,,,,,,,,,,,,,,,,,,,,,219.5103,219.7074,219.7076,220.2096,,,,,,,,,,,,,,4.024,1,,,,,,,,,,,,,,z,,,,,,,,,,,,,,,25,1,220.2106,224.2418,z,1,4.024,,[],[],[],[],[],[],[],224.2419,226.2415,226.2416,228.2188,[],[],[],[],[],[],[],z,228.2189,228.2191,0.119904077,-0.288569169,0,0,0,,0,24,24,72,1,2,TL,revomal,print,revomal_p.png,1.9754,,,,
,,,,28003,001,2025-11-08_21h31.47.875,HW_LDT_1,2024.2.4,Win32,60.60606061,,,,,,,,,,,,,,,,,,,,,,228.2212,228.4087,228.4089,228.9094,,,,,,,,,,,,,,4.6058,0,,,,,,,,,,,,,,z,,,,,,,,,,,,,,,26,1,228.9103,233.5179,m,0,4.6058,,[],[],[],[],[],[],[],233.5181,235.5089,235.509,236.7002,[],[],[],[],[],[],[],z,236.7003,236.7005,0.119904077,-0.288569169,0,0,0,,0,25,25,17,1,2,RL,macise,cursive,macise_c.png,1.1902,,,,
,,,,28003,001,2025-11-08_21h31.47.875,HW_LDT_1,2024.2.4,Win32,60.60606061,,,,,,,,,,,,,,,,,,,,,,236.7022,236.9007,236.9008,237.3995,,,,,,,,,,,,,,2.0325,1,,,,,,,,,,,,,,m,,,,,,,,,,,,,,,27,0,237.4004,239.4348,m,1,2.0325,,[],[],[],[],[],[],[],239.4349,241.4259,241.4259,241.4263,[],[],[],[],[],[],[],,241.4263,241.4265,0.119904077,-0.288569169,0,0,0,,0,26,26,157,1,2,word,VALIDITY,print,validity_p.png,,,,,
,,,,28003,001,2025-11-08_21h31.47.875,HW_LDT_1,2024.2.4,Win32,60.60606061,,,,,,,,,,,,,,,,,,,,,,241.4289,241.6248,241.6248,242.126,,,,,,,,,,,,,,2.9083,1,,,,,,,,,,,,,,z,,,,,,,,,,,,,,,28,0,242.1271,245.0423,z,1,2.9083,,[],[],[],[],[],[],[],245.0425,247.0422,247.0423,247.0425,[],[],[],[],[],[],[],,247.0426,247.0428,0.119904077,-0.288569169,0,0,0,,0,27,27,20,1,2,RL,onegator,cursive,onegator_c.png,,,,,
,,,,28003,001,2025-11-08_21h31.47.875,HW_LDT_1,2024.2.4,Win32,60.60606061,,,,,,,,,,,,,,,,,,,,,,247.045,247.2426,247.2427,247.7416,,,,,,,,,,,,,,1.3154,1,,,,,,,,,,,,,,z,,,,,,,,,,,,,,,29,0,247.7422,249.0596,z,1,1.3154,,[],[],[],[],[],[],[],249.0597,251.0587,251.0588,251.059,[],[],[],[],[],[],[],,251.0591,251.0591,0.119904077,-0.288569169,0,0,0,,0,28,28,11,1,2,RL,formuke,print,formuke_p.png,,,,,
,,,,28003,001,2025-11-08_21h31.47.875,HW_LDT_1,2024.2.4,Win32,60.60606061,,,,,,,,,,,,,,,,,,,,,,251.0617,251.259,251.2591,251.7582,,,,,,,,,,,,,,1.0604,1,,,,,,,,,,,,,,m,,,,,,,,,,,,,,,30,1,251.7588,252.8252,m,1,1.0604,,[],[],[],[],[],[],[],252.8254,254.8253,254.8253,255.8247,[],[],[],[],[],[],[],m,255.8248,255.825,0.119904077,-0.288569169,0,0,0,,0,29,29,147,1,2,word,ROMANTIC,print,romantic_p.png,0.9915,,,,
,,,,28003,001,2025-11-08_21h31.47.875,HW_LDT_1,2024.2.4,Win32,60.60606061,,,,,,,,,,,,,,,,,,,,,,255.8267,256.0255,256.0257,256.5253,,,,,,,,,,,,,,1.545,1,,,,,,,,,,,,,,z,,,,,,,,,,,,,,,31,0,256.5263,258.0754,z,1,1.545,,[],[],[],[],[],[],[],258.0755,260.076,260.0762,260.0763,[],[],[],[],[],[],[],,260.0764,260.0766,0.119904077,-0.288569169,0,0,0,,0,30,30,42,1,2,TL,bedise,cursive,bedise_c.png,,,,,
,,,,28003,001,2025-11-08_21h31.47.875,HW_LDT_1,2024.2.4,Win32,60.60606061,,,,,,,,,,,,,,,,,,,,,,260.0793,260.2758,260.2759,260.7754,,,,,,,,,,,,,,1.1086,1,,,,,,,,,,,,,,z,,,,,,,,,,,,,,,32,0,260.7761,261.8928,z,1,1.1086,,[],[],[],[],[],[],[],261.8929,263.8922,263.8923,263.8925,[],[],[],[],[],[],[],,263.8926,263.8927,0.119904077,-0.288569169,0,0,0,,0,31,31,49,1,2,TL,dedace,print,dedace_p.png,,,,,
,,,,28003,001,2025-11-08_21h31.47.875,HW_LDT_1,2024.2.4,Win32,60.60606061,,,,,,,,,,,,,,,,,,,,,,263.8948,264.0837,264.0838,264.5824,,,,,,,,,,,,,,2.8362,1,,,,,,,,,,,,,,z,,,,,,,,,,,,,,,33,0,264.5831,267.4257,z,1,2.8362,,[],[],[],[],[],[],[],267.4258,269.4256,269.4258,269.426,[],[],[],[],[],[],[],,269.4261,269.4261,0.119904077,-0.288569169,0,0,0,,0,32,32,14,1,2,RL,insibate,cursive,insibate_c.png,,,,,
,,,,28003,001,2025-11-08_21h31.47.875,HW_LDT_1,2024.2.4,Win32,60.60606061,,,,,,,,,,,,,,,,,,,,,,269.428,269.6248,269.6249,270.1262,,,,,,,,,,,,,,0.788,1,,,,,,,,,,,,,,m,,,,,,,,,,,,,,,34,0,270.1271,270.9252,m,1,0.788,,[],[],[],[],[],[],[],270.9253,272.9213,272.9214,272.9215,[],[],[],[],[],[],[],,272.9215,272.9216,0.119904077,-0.288569169,0,0,0,,0,33,33,118,1,2,word,MEDICINE,print,medicine_p.png,,,,,
,,,,28003,001,2025-11-08_21h31.47.875,HW_LDT_1,2024.2.4,Win32,60.60606061,,,,,,,,,,,,,,,,,,,,,,272.9226,273.1253,273.1254,273.6254,,,,,,,,,,,,,,2.5746,1,,,,,,,,,,,,,,z,,,,,,,,,,,,,,,35,0,273.6263,276.2093,z,1,2.5746,,[],[],[],[],[],[],[],276.2094,278.2083,278.2085,278.2088,[],[],[],[],[],[],[],,278.2089,278.209,0.119904077,-0.288569169,0,0,0,,0,34,34,56,1,2,TL,marnigal,cursive,marnigal_c.png,,,,,
,,,,28003,001,2025-11-08_21h31.47.875,HW_LDT_1,2024.2.4,Win32,60.60606061,,,,,,,,,,,,,,,,,,,,,,278.2115,278.4091,278.4092,278.9089,,,,,,,,,,,,,,1.1272,1,,,,,,,,,,,,,,z,,,,,,,,,,,,,,,36,0,278.91,280.0423,z,1,1.1272,,[],[],[],[],[],[],[],280.0424,282.0424,282.0425,282.0428,[],[],[],[],[],[],[],,282.043,282.0431,0.119904077,-0.288569169,0,0,0,,0,35,35,12,1,2,RL,gralekul,cursive,gralekul_c.png,,,,,
,,,,28003,001,2025-11-08_21h31.47.875,HW_LDT_1,2024.2.4,Win32,60.60606061,,,,,,,,,,,,,,,,,,,,,,282.0455,282.2421,282.2421,282.7423,,,,,,,,,,,,,,1.4401,0,,,,,,,,,,,,,,m,,,,,,,,,,,,,,,37,0,282.7433,284.1852,z,0,1.4401,,[],[],[],[],[],[],[],284.1852,286.1757,286.1757,286.176,[],[],[],[],[],[],[],,286.1762,286.1763,0.119904077,-0.288569169,0,0,0,,0,36,36,155,1,2,word,STRATEGY,cursive,strategy_c.png,,,,,
,,,,28003,001,2025-11-08_21h31.47.875,HW_LDT_1,2024.2.4,Win32,60.60606061,,,,,,,,,,,,,,,,,,,,,,286.1785,286.3762,286.3764,286.8762,,,,,,,,,,,,,,1.0452,0,,,,,,,,,,,,,,m,,,,,,,,,,,,,,,38,1,286.8773,287.9258,z,0,1.0452,,[],[],[],[],[],[],[],287.9259,289.9267,289.9267,291.2924,[],[],[],[],[],[],[],z,291.2925,291.2927,0.119904077,-0.288569169,0,0,0,,0,37,37,141,1,2,word,RELIGION,cursive,religion_c.png,1.3645,,,,
,,,,28003,001,2025-11-08_21h31.47.875,HW_LDT_1,2024.2.4,Win32,60.60606061,,,,,,,,,,,,,,,,,,,,,,291.2949,291.4925,291.4926,291.9925,,,,,,,,,,,,,,1.694,1,,,,,,,,,,,,,,z,,,,,,,,,,,,,,,39,0,291.9934,293.6922,z,1,1.694,,[],[],[],[],[],[],[],293.6922,295.692,295.6921,295.6923,[],[],[],[],[],[],[],,295.6924,295.6925,0.119904077,-0.288569169,0,0,0,,0,38,38,71,1,2,TL,retome,cursive,retome_c.png,,,,,
,,,,28003,001,2025-11-08_21h31.47.875,HW_LDT_1,2024.2.4,Win32,60.60606061,,,,,,,,,,,,,,,,,,,,,,295.6946,295.8925,295.8926,296.3931,,,,,,,,,,,,,,2.2613,0,,,,,,,,,,,,,,m,,,,,,,,,,,,,,,40,0,296.394,298.6592,z,0,2.2613,,[],[],[],[],[],[],[],298.6593,300.6489,300.6491,300.6491,[],[],[],[],[],[],[],,300.6492,300.6492,0.119904077,-0.288569169,0,0,0,,0,39,39,90,1,2,word,CAPITAL,cursive,capital_c.png,,,,,
,,,,28003,001,2025-11-08_21h31.47.875,HW_LDT_1,2024.2.4,Win32,60.60606061,,,,,,,,,,,,,,,,,,,,,,300.6503,300.8429,300.843,301.3422,,,,,,,,,,,,,,0.9427,1,,,,,,,,,,,,,,m,,,,,,,,,,,,,,,41,0,301.3432,302.2929,m,1,0.9427,,[],[],[],[],[],[],[],302.2931,304.2926,304.2927,304.2929,[],[],[],[],[],[],[],,304.293,304.2931,0.119904077,-0.288569169,0,0,0,,0,40,40,102,1,2,word,DENSITY,print,density_p.png,,,,,
,,,,28003,001,2025-11-08_21h31.47.875,HW_LDT_1,2024.2.4,Win32,60.60606061,,,,,,,,,,,,,,,,,,,,,,304.2954,304.4926,304.4927,304.9928,,,,,,,,,,,,,,1.1119,1,,,,,,,,,,,,,,m,,,,,,,,,,,,,,,42,0,304.9937,306.1089,m,1,1.1119,,[],[],[],[],[],[],[],306.109,308.0995,308.0996,308.0999,[],[],[],[],[],[],[],,308.0999,308.1,0.119904077,-0.288569169,0,0,0,,0,41,41,132,1,2,word,PROPOSAL,cursive,proposal_c.png,,,,,
,,,,28003,001,2025-11-08_21h31.47.875,HW_LDT_1,2024.2.4,Win32,60.60606061,,,,,,,,,,,,,,,,,,,,,,308.101,308.2931,308.2932,308.7928,,,,,,,,,,,,,,1.0111,1,,,,,,,,,,,,,,z,,,,,,,,,,,,,,,43,1,308.7938,309.8093,z,1,1.0111,,[],[],[],[],[],[],[],309.8095,311.8095,311.8096,315.1264,[],[],[],[],[],[],[],z,315.1265,315.1268,0.119904077,-0.288569169,0,0,0,,0,42,42,3,1,2,RL,capefory,print,capefory_p.png,3.3113,,,,
,,,,28003,001,2025-11-08_21h31.47.875,HW_LDT_1,2024.2.4,Win32,60.60606061,,,,,,,,,,,,,,,,,,,,,,315.1293,315.3266,315.3267,315.8281,,,,,,,,,,,,,,0.8548,1,,,,,,,,,,,,,,m,,,,,,,,,,,,,,,44,0,315.829,316.6944,m,1,0.8548,,[],[],[],[],[],[],[],316.6945,318.6831,318.6831,318.6832,[],[],[],[],[],[],[],,318.6832,318.6833,0.119904077,-0.288569169,0,0,0,,0,43,43,101,1,2,word,DELICATE,print,delicate_p.png,,,,,
,,,,28003,001,2025-11-08_21h31.47.875,HW_LDT_1,2024.2.4,Win32,60.60606061,,,,,,,,,,,,,,,,,,,,,,318.6843,318.8763,318.8764,319.3762,,,,,,,,,,,,,,2.5419,1,,,,,,,,,,,,,,m,,,,,,,,,,,,,,,45,0,319.377,321.9262,m,1,2.5419,,[],[],[],[],[],[],[],321.9264,324.1073,324.1074,324.1077,[],[],[],[],[],[],[],,324.1077,324.1079,0.119904077,-0.288569169,0,0,0,,0,44,44,89,1,2,word,CAPACITY,print,capacity_p.png,,,,,
,,,,28003,001,2025-11-08_21h31.47.875,HW_LDT_1,2024.2.4,Win32,60.60606061,,,,,,,,,,,,,,,,,,,,,,324.1124,324.3102,324.3103,324.8095,,,,,,,,,,,,,,1.4583,1,,,,,,,,,,,,,,z,,,,,,,,,,,,,,,46,0,324.8105,326.2767,z,1,1.4583,,[],[],[],[],[],[],[],326.2769,328.2786,328.2787,328.279,[],[],[],[],[],[],[],,328.2791,328.2794,0.119904077,-0.288569169,0,0,0,,0,45,45,48,1,2,TL,detabe,print,detabe_p.png,,,,,
,,,,28003,001,2025-11-08_21h31.47.875,HW_LDT_1,2024.2.4,Win32,60.60606061,,,,,,,,,,,,,,,,,,,,,,328.2825,328.4763,328.4764,328.9762,,,,,,,,,,,,,,1.2604,1,,,,,,,,,,,,,,z,,,,,,,,,,,,,,,47,0,328.9769,330.2529,z,1,1.2604,,[],[],[],[],[],[],[],330.253,332.2431,332.2431,332.2434,[],[],[],[],[],[],[],,332.2436,332.2436,0.119904077,-0.288569169,0,0,0,,0,46,46,74,1,2,TL,rerite,cursive,rerite_c.png,,,,,
,,,,28003,001,2025-11-08_21h31.47.875,HW_LDT_1,2024.2.4,Win32,60.60606061,,,,,,,,,,,,,,,,,,,,,,332.2463,332.443,332.4431,332.9343,,,,,,,,,,,,,,1.5474,1,,,,,,,,,,,,,,m,,,,,,,,,,,,,,,48,0,332.9354,334.4844,m,1,1.5474,,[],[],[],[],[],[],[],334.4845,336.485,336.4851,336.4854,[],[],[],[],[],[],[],,336.4854,336.4854,0.119904077,-0.288569169,0,0,0,,0,47,47,92,1,2,word,CATEGORY,print,category_p.png,,,,,
,,,,28003,001,2025-11-08_21h31.47.875,HW_LDT_1,2024.2.4,Win32,60.60606061,,,,,,,,,,,,,,,,,,,,,,336.4871,336.6762,336.6763,337.1787,,,,,,,,,,,,,,1.6889,0,,,,,,,,,,,,,,m,,,,,,,,,,,,,,,49,1,337.1797,338.8769,z,0,1.6889,,[],[],[],[],[],[],[],338.877,340.8765,340.8766,342.1097,[],[],[],[],[],[],[],z,342.1098,342.11,0.119904077,-0.288569169,0,0,0,,0,48,48,145,1,2,word,RESUME,cursive,resume_c.png,1.2273,,,,
,,,,28003,001,2025-11-08_21h31.47.875,HW_LDT_1,2024.2.4,Win32,60.60606061,,,,,,,,,,,,,,,,,,,,,,342.112,342.3094,342.3095,342.8099,,,,,,,,,,,,,,4.5807,1,,,,,,,,,,,,,,m,,,,,,,,,,,,,,,50,0,342.8107,347.393,m,1,4.5807,,[],[],[],[],[],[],[],347.3931,349.3934,349.3934,349.3936,[],[],[],[],[],[],[],,349.3937,349.3938,0.119904077,-0.288569169,0,0,0,,0,49,49,148,1,2,word,SALINE,cursive,saline_c.png,,,,,
,,,,28003,001,2025-11-08_21h31.47.875,HW_LDT_1,2024.2.4,Win32,60.60606061,,,,,,,,,,,,,,,,,,,,,,349.3958,349.5922,349.5923,350.0934,,,,,,,,,,,,,,1.443,0,,,,,,,,,,,,,,z,,,,,,,,,,,,,,,51,0,350.0942,351.5431,m,0,1.443,,[],[],[],[],[],[],[],351.5432,353.5431,353.5432,353.5435,[],[],[],[],[],[],[],,353.5435,353.5437,0.119904077,-0.288569169,0,0,0,,0,50,50,63,1,2,TL,orinigal,print,orinigal_p.png,,,,,
,,,,28003,001,2025-11-08_21h31.47.875,HW_LDT_1,2024.2.4,Win32,60.60606061,,,,,,,,,,,,,,,,,,,,,,353.546,353.7434,353.7434,354.2436,,,,,,,,,,,,,,1.0087,1,,,,,,,,,,,,,,z,,,,,,,,,,,,,,,52,0,354.2448,355.2601,z,1,1.0087,,[],[],[],[],[],[],[],355.2602,357.2599,357.26,357.2603,[],[],[],[],[],[],[],,357.2603,357.2604,0.119904077,-0.288569169,0,0,0,,0,51,51,7,1,2,RL,cocewage,cursive,cocewage_c.png,,,,,
,,,,28003,001,2025-11-08_21h31.47.875,HW_LDT_1,2024.2.4,Win32,60.60606061,,,,,,,,,,,,,,,,,,,,,,357.2624,357.4594,357.4595,357.9613,,,,,,,,,,,,,,0.879,1,,,,,,,,,,,,,,m,,,,,,,,,,,,,,,53,0,357.9621,358.8433,m,1,0.879,,[],[],[],[],[],[],[],358.8434,360.834,360.8341,360.8343,[],[],[],[],[],[],[],,360.8343,360.8345,0.119904077,-0.288569169,0,0,0,,0,52,52,93,1,2,word,CEREMONY,print,ceremony_p.png,,,,,
,,,,28003,001,2025-11-08_21h31.47.875,HW_LDT_1,2024.2.4,Win32,60.60606061,,,,,,,,,,,,,,,,,,,,,,360.8362,361.0277,361.0277,361.5266,,,,,,,,,,,,,,2.1565,1,,,,,,,,,,,,,,m,,,,,,,,,,,,,,,54,0,361.5276,363.693,m,1,2.1565,,[],[],[],[],[],[],[],363.6931,365.6942,365.6943,365.6946,[],[],[],[],[],[],[],,365.6946,365.6947,0.119904077,-0.288569169,0,0,0,,0,53,53,100,1,2,word,DECADE,print,decade_p.png,,,,,
,,,,28003,001,2025-11-08_21h31.47.875,HW_LDT_1,2024.2.4,Win32,60.60606061,,,,,,,,,,,,,,,,,,,,,,365.6965,365.8934,365.8934,366.3932,,,,,,,,,,,,,,0.8578,1,,,,,,,,,,,,,,m,,,,,,,,,,,,,,,55,0,366.3943,367.2601,m,1,0.8578,,[],[],[],[],[],[],[],367.2602,369.26,369.2601,369.2604,[],[],[],[],[],[],[],,369.2604,369.2605,0.119904077,-0.288569169,0,0,0,,0,54,54,96,1,2,word,CONSIDER,print,consider_p.png,,,,,
,,,,28003,001,2025-11-08_21h31.47.875,HW_LDT_1,2024.2.4,Win32,60.60606061,,,,,,,,,,,,,,,,,,,,,,369.264,369.4598,369.46,369.9519,,,,,,,,,,,,,,1.5326,1,,,,,,,,,,,,,,z,,,,,,,,,,,,,,,56,0,369.9526,371.4872,z,1,1.5326,,[],[],[],[],[],[],[],371.4872,373.4852,373.4853,373.4857,[],[],[],[],[],[],[],,373.4857,373.4858,0.119904077,-0.288569169,0,0,0,,0,55,55,57,1,2,TL,meromy,cursive,meromy_c.png,,,,,
,,,,28003,001,2025-11-08_21h31.47.875,HW_LDT_1,2024.2.4,Win32,60.60606061,,,,,,,,,,,,,,,,,,,,,,373.488,373.6836,373.6836,374.185,,,,,,,,,,,,,,1.1831,0,,,,,,,,,,,,,,z,,,,,,,,,,,,,,,57,1,374.1857,375.377,m,0,1.1831,,[],[],[],[],[],[],[],375.3772,377.377,377.3771,378.6532,[],[],[],[],[],[],[],m,378.6533,378.6534,0.119904077,-0.288569169,0,0,0,,0,56,56,39,1,2,TL,aminal,print,aminal_p.png,1.2739,,,,
,,,,28003,001,2025-11-08_21h31.47.875,HW_LDT_1,2024.2.4,Win32,60.60606061,,,,,,,,,,,,,,,,,,,,,,378.6549,378.8434,378.8436,379.3437,,,,,,,,,,,,,,1.5753,1,,,,,,,,,,,,,,z,,,,,,,,,,,,,,,58,0,379.3447,380.9271,z,1,1.5753,,[],[],[],[],[],[],[],380.9272,382.9274,382.9275,382.9281,[],[],[],[],[],[],[],,382.9282,382.9283,0.119904077,-0.288569169,0,0,0,,0,57,57,53,1,2,TL,edivent,cursive,edivent_c.png,,,,,
,,,,28003,001,2025-11-08_21h31.47.875,HW_LDT_1,2024.2.4,Win32,60.60606061,,,,,,,,,,,,,,,,,,,,,,382.9308,383.1268,383.127,383.627,,,,,,,,,,,,,,6.2392,0,,,,,,,,,,,,,,m,,,,,,,,,,,,,,,59,1,383.6281,389.8692,z,0,6.2392,,[],[],[],[],[],[],[],389.8698,391.8691,391.8692,392.8269,[],[],[],[],[],[],[],z,392.8271,392.8273,0.119904077,-0.288569169,0,0,0,,0,58,58,111,1,2,word,INDICATE,cursive,indicate_c.png,0.9505,,,,
,,,,28003,001,2025-11-08_21h31.47.875,HW_LDT_1,2024.2.4,Win32,60.60606061,,,,,,,,,,,,,,,,,,,,,,392.8296,393.0273,393.0273,393.529,,,,,,,,,,,,,,1.3715,0,,,,,,,,,,,,,,m,,,,,,,,,,,,,,,60,0,393.5303,394.9107,z,0,1.3715,,[],[],[],[],[],[],[],394.9109,396.9113,396.9115,396.9118,[],[],[],[],[],[],[],,396.9118,396.9119,0.119904077,-0.288569169,0,0,0,,0,59,59,142,1,2,word,REMOTE,cursive,remote_c.png,,,,,
,,,,28003,001,2025-11-08_21h31.47.875,HW_LDT_1,2024.2.4,Win32,60.60606061,,,,,,,,,,,,,,,,,,,,,,396.9139,397.1106,397.1107,397.61,,,,,,,,,,,,,,1.2468,0,,,,,,,,,,,,,,m,,,,,,,,,,,,,,,61,0,397.6109,398.8601,z,0,1.2468,,[],[],[],[],[],[],[],398.8602,400.8602,400.8603,400.8605,[],[],[],[],[],[],[],,400.8605,400.8606,0.119904077,-0.288569169,0,0,0,,0,60,60,146,1,2,word,RETIRE,cursive,retire_c.png,,,,,
,,,,28003,001,2025-11-08_21h31.47.875,HW_LDT_1,2024.2.4,Win32,60.60606061,,,,,,,,,,,,,,,,,,,,,,400.8624,401.0611,401.0611,401.5603,,,,,,,,,,,,,,1.5897,1,,,,,,,,,,,,,,z,,,,,,,,,,,,,,,62,0,401.5614,403.1536,z,1,1.5897,,[],[],[],[],[],[],[],403.1537,405.151,405.151,405.1512,[],[],[],[],[],[],[],,405.1512,405.1513,0.119904077,-0.288569169,0,0,0,,0,61,61,43,1,2,TL,carema,print,carema_p.png,,,,,
,,,,28003,001,2025-11-08_21h31.47.875,HW_LDT_1,2024.2.4,Win32,60.60606061,,,,,,,,,,,,,,,,,,,,,,405.153,405.3521,405.3521,405.8521,,,,,,,,,,,,,,0.9467,1,,,,,,,,,,,,,,z,,,,,,,,,,,,,,,63,0,405.8528,406.8007,z,1,0.9467,,[],[],[],[],[],[],[],406.8008,408.8005,408.8005,408.8009,[],[],[],[],[],[],[],,408.8009,408.8011,0.119904077,-0.288569169,0,0,0,,0,62,62,2,1,2,RL,casagity,print,casagity_p.png,,,,,
,,,,28003,001,2025-11-08_21h31.47.875,HW_LDT_1,2024.2.4,Win32,60.60606061,,,,,,,,,,,,,,,,,,,,,,408.8026,409.0011,409.0011,409.5011,,,,,,,,,,,,,,1.1639,1,,,,,,,,,,,,,,z,,,,,,,,,,,,,,,64,1,409.5021,410.6675,z,1,1.1639,,[],[],[],[],[],[],[],410.6675,412.6668,412.6669,413.6842,[],[],[],[],[],[],[],z,413.6843,413.6843,0.119904077,-0.288569169,0,0,0,,0,63,63,40,1,2,TL,bevoled,cursive,bevoled_c.png,1.0167,,,,
,,,,28003,001,2025-11-08_21h31.47.875,HW_LDT_1,2024.2.4,Win32,60.60606061,,,,,,,,,,,,,,,,,,,,,,413.6854,413.8848,413.8849,414.379,,,,,,,,,,,,,,3.0563,0,,,,,,,,,,,,,,z,,,,,,,,,,,,,,,65,1,414.38,417.4439,m,0,3.0563,,[],[],[],[],[],[],[],417.444,419.4444,419.4445,420.5945,[],[],[],[],[],[],[],z,420.5946,420.5949,0.119904077,-0.288569169,0,0,0,,0,64,64,37,1,2,TL,adacemy,cursive,adacemy_c.png,1.148,,,,
,,,,28003,001,2025-11-08_21h31.47.875,HW_LDT_1,2024.2.4,Win32,60.60606061,,,,,,,,,,,,,,,,,,,,,,420.5977,420.7953,420.7954,421.2943,,,,,,,,,,,,,,0.9426,0,,,,,,,,,,,,,,z,,,,,,,,,,,,,,,66,0,421.2963,422.2443,m,0,0.9426,,[],[],[],[],[],[],[],422.2445,424.2447,424.2449,424.2452,[],[],[],[],[],[],[],,424.2452,424.2454,0.119904077,-0.288569169,0,0,0,,0,65,65,50,1,2,TL,donimant,print,donimant_p.png,,,,,
,,,,28003,001,2025-11-08_21h31.47.875,HW_LDT_1,2024.2.4,Win32,60.60606061,,,,,,,,,,,,,,,,,,,,,,424.2473,424.4443,424.4443,424.9438,,,,,,,,,,,,,,1.7054,1,,,,,,,,,,,,,,z,,,,,,,,,,,,,,,67,0,424.9446,426.6513,z,1,1.7054,,[],[],[],[],[],[],[],426.6514,428.6432,428.6432,428.6435,[],[],[],[],[],[],[],,428.6437,428.6438,0.119904077,-0.288569169,0,0,0,,0,66,66,64,1,2,TL,paficic,print,paficic_p.png,,,,,
,,,,28003,001,2025-11-08_21h31.47.875,HW_LDT_1,2024.2.4,Win32,60.60606061,,,,,,,,,,,,,,,,,,,,,,428.6464,428.8447,428.8448,429.3436,,,,,,,,,,,,,,1.2309,1,,,,,,,,,,,,,,z,,,,,,,,,,,,,,,68,0,429.3447,430.5781,z,1,1.2309,,[],[],[],[],[],[],[],430.5783,432.5773,432.5775,432.5778,[],[],[],[],[],[],[],,432.5778,432.5779,0.119904077,-0.288569169,0,0,0,,0,67,67,4,1,2,RL,cenesony,print,cenesony_p.png,,,,,
,,,,28003,001,2025-11-08_21h31.47.875,HW_LDT_1,2024.2.4,Win32,60.60606061,,,,,,,,,,,,,,,,,,,,,,432.5796,432.7776,432.7778,433.2775,,,,,,,,,,,,,,1.4409,0,,,,,,,,,,,,,,m,,,,,,,,,,,,,,,69,0,433.2784,434.7274,z,0,1.4409,,[],[],[],[],[],[],[],434.7275,436.7275,436.7276,436.7279,[],[],[],[],[],[],[],,436.728,436.7282,0.119904077,-0.288569169,0,0,0,,0,68,68,138,1,2,word,REFUSAL,cursive,refusal_c.png,,,,,
,,,,28003,001,2025-11-08_21h31.47.875,HW_LDT_1,2024.2.4,Win32,60.60606061,,,,,,,,,,,,,,,,,,,,,,436.731,436.9309,436.931,437.4275,,,,,,,,,,,,,,1.2101,1,,,,,,,,,,,,,,m,,,,,,,,,,,,,,,70,0,437.4283,438.6438,m,1,1.2101,,[],[],[],[],[],[],[],438.644,440.6436,440.6437,440.6439,[],[],[],[],[],[],[],,440.644,440.6441,0.119904077,-0.288569169,0,0,0,,0,69,69,143,1,2,word,REMOVAL,print,removal_p.png,,,,,
,,,,28003,001,2025-11-08_21h31.47.875,HW_LDT_1,2024.2.4,Win32,60.60606061,,,,,,,,,,,,,,,,,,,,,,440.6463,440.8441,440.8441,441.344,,,,,,,,,,,,,,0.8457,1,,,,,,,,,,,,,,z,,,,,,,,,,,,,,,71,0,441.3447,442.1943,z,1,0.8457,,[],[],[],[],[],[],[],442.1944,444.1966,444.1967,444.197,[],[],[],[],[],[],[],,444.1971,444.1972,0.119904077,-0.288569169,0,0,0,,0,70,70,6,1,2,RL,conbicer,print,conbicer_p.png,,,,,
,,,,28003,001,2025-11-08_21h31.47.875,HW_LDT_1,2024.2.4,Win32,60.60606061,,,,,,,,,,,,,,,,,,,,,,444.2004,444.3943,444.3944,444.8953,,,,,,,,,,,,,,1.0098,1,,,,,,,,,,,,,,m,,,,,,,,,,,,,,,72,0,444.896,445.9108,m,1,1.0098,,[],[],[],[],[],[],[],445.911,447.911,447.9112,447.9119,[],[],[],[],[],[],[],,447.9121,447.9122,0.119904077,-0.288569169,0,0,0,,0,71,71,83,1,2,word,ANIMAL,print,animal_p.png,,,,,
,,,,28003,001,2025-11-08_21h31.47.875,HW_LDT_1,2024.2.4,Win32,60.60606061,,,,,,,,,,,,,,,,,,,,,,447.9155,448.101,448.101,448.6103,,,,,,,,,,,,,,1.2911,1,,,,,,,,,,,,,,z,,,,,,,,,,,,,,,73,1,448.6111,449.9034,z,1,1.2911,,[],[],[],[],[],[],[],449.9036,451.9024,451.9025,453.2356,[],[],[],[],[],[],[],m,453.2357,453.2358,0.119904077,-0.288569169,0,0,0,,0,72,72,9,1,2,RL,denficy,print,denficy_p.png,1.332,,,,
,,,,28003,001,2025-11-08_21h31.47.875,HW_LDT_1,2024.2.4,Win32,60.60606061,,,,,,,,,,,,,,,,,,,,,,453.237,453.4363,453.4363,453.9347,,,,,,,,,,,,,,1.0326,1,,,,,,,,,,,,,,m,,,,,,,,,,,,,,,74,1,453.9355,454.9699,m,1,1.0326,,[],[],[],[],[],[],[],454.9701,456.969,456.9691,458.2034,[],[],[],[],[],[],[],m,458.2034,458.2036,0.119904077,-0.288569169,0,0,0,,0,73,73,81,1,2,word,ADVISORY,print,advisory_p.png,1.2333,,,,
,,,,28003,001,2025-11-08_21h31.47.875,HW_LDT_1,2024.2.4,Win32,60.60606061,,,,,,,,,,,,,,,,,,,,,,458.205,458.4021,458.4022,458.897,,,,,,,,,,,,,,1.1615,0,,,,,,,,,,,,,,m,,,,,,,,,,,,,,,75,0,458.898,460.0609,z,0,1.1615,,[],[],[],[],[],[],[],460.0612,462.0617,462.0617,462.062,[],[],[],[],[],[],[],,462.062,462.0621,0.119904077,-0.288569169,0,0,0,,0,74,74,85,1,2,word,BENEFIT,cursive,benefit_c.png,,,,,
,,,,28003,001,2025-11-08_21h31.47.875,HW_LDT_1,2024.2.4,Win32,60.60606061,,,,,,,,,,,,,,,,,,,,,,462.0643,462.2611,462.2611,462.761,,,,,,,,,,,,,,1.7268,1,,,,,,,,,,,,,,z,,,,,,,,,,,,,,,76,0,462.7615,464.4949,z,1,1.7268,,[],[],[],[],[],[],[],464.495,466.4946,466.4947,466.495,[],[],[],[],[],[],[],,466.495,466.4952,0.119904077,-0.288569169,0,0,0,,0,75,75,73,1,2,TL,redisent,print,redisent_p.png,,,,,
,,,,28003,001,2025-11-08_21h31.47.875,HW_LDT_1,2024.2.4,Win32,60.60606061,,,,,,,,,,,,,,,,,,,,,,466.4975,466.6945,466.6946,467.1945,,,,,,,,,,,,,,1.5801,1,,,,,,,,,,,,,,z,,,,,,,,,,,,,,,77,0,467.1953,468.7776,z,1,1.5801,,[],[],[],[],[],[],[],468.7776,470.7717,470.7717,470.7719,[],[],[],[],[],[],[],,470.7719,470.7719,0.119904077,-0.288569169,0,0,0,,0,76,76,45,1,2,TL,carnidal,cursive,carnidal_c.png,,,,,
,,,,28003,001,2025-11-08_21h31.47.875,HW_LDT_1,2024.2.4,Win32,60.60606061,,,,,,,,,,,,,,,,,,,,,,470.7742,470.9691,470.9691,471.4693,,,,,,,,,,,,,,1.6153,1,,,,,,,,,,,,,,z,,,,,,,,,,,,,,,78,0,471.47,473.087,z,1,1.6153,,[],[],[],[],[],[],[],473.0871,475.0867,475.0867,475.087,[],[],[],[],[],[],[],,475.0871,475.0873,0.119904077,-0.288569169,0,0,0,,0,77,77,59,1,2,TL,miskate,cursive,miskate_c.png,,,,,
,,,,28003,001,2025-11-08_21h31.47.875,HW_LDT_1,2024.2.4,Win32,60.60606061,,,,,,,,,,,,,,,,,,,,,,475.0894,475.2786,475.2787,475.778,,,,,,,,,,,,,,6.1085,1,,,,,,,,,,,,,,m,,,,,,,,,,,,,,,79,0,475.779,481.8947,m,1,6.1085,,[],[],[],[],[],[],[],481.8949,483.8942,483.8943,483.8945,[],[],[],[],[],[],[],,483.8946,483.8947,0.119904077,-0.288569169,0,0,0,,0,78,78,103,1,2,word,DISPUTE,cursive,dispute_c.png,,,,,
,,,,28003,001,2025-11-08_21h31.47.875,HW_LDT_1,2024.2.4,Win32,60.60606061,,,,,,,,,,,,,,,,,,,,,,483.8971,484.0948,484.0949,484.5837,,,,,,,,,,,,,,0.9542,1,,,,,,,,,,,,,,z,,,,,,,,,,,,,,,80,1,484.5842,485.5452,z,1,0.9542,,[],[],[],[],[],[],[],485.5453,487.5446,487.5448,488.7276,[],[],[],[],[],[],[],m,488.7278,530.3455,0.016786571,-0.394084757,1,0,0,,0,79,79,32,1,2,RL,speniven,print,speniven_p.png,1.1752,,break_done_button,,
,,,,28003,001,2025-11-08_21h31.47.875,HW_LDT_1,2024.2.4,Win32,60.60606061,,,,,,,,,,,,,,,,,,,,,,530.3475,530.5454,530.5454,531.0452,,,,,,,,,,,,,,1.656,1,,,,,,,,,,,,,,m,,,,,,,,,,,,,,,81,0,531.046,532.7036,m,1,1.656,,[],[],[],[],[],[],[],532.7036,534.6951,534.6952,534.6954,[],[],[],[],[],[],[],,534.6954,534.6955,0.016786571,-0.394084757,0,0,0,,0,80,80,150,1,2,word,SENTIMENT,cursive,sentiment_c.png,,,,,
,,,,28003,001,2025-11-08_21h31.47.875,HW_LDT_1,2024.2.4,Win32,60.60606061,,,,,,,,,,,,,,,,,,,,,,534.6977,534.8955,534.8956,535.3954,,,,,,,,,,,,,,1.2479,1,,,,,,,,,,,,,,m,,,,,,,,,,,,,,,82,0,535.396,536.645,m,1,1.2479,,[],[],[],[],[],[],[],536.645,538.6447,538.6448,538.6451,[],[],[],[],[],[],[],,538.6452,538.6452,0.016786571,-0.394084757,0,0,0,,0,81,81,110,1,2,word,HERITAGE,print,heritage_p.png,,,,,
,,,,28003,001,2025-11-08_21h31.47.875,HW_LDT_1,2024.2.4,Win32,60.60606061,,,,,,,,,,,,,,,,,,,,,,538.647,538.8452,538.8452,539.3455,,,,,,,,,,,,,,0.831,1,,,,,,,,,,,,,,z,,,,,,,,,,,,,,,83,0,539.3463,540.1787,z,1,0.831,,[],[],[],[],[],[],[],540.1788,542.1791,542.1792,542.1794,[],[],[],[],[],[],[],,542.1795,542.1796,0.016786571,-0.394084757,0,0,0,,0,82,82,18,1,2,RL,mesibine,print,mesibine_p.png,,,,,
,,,,28003,001,2025-11-08_21h31.47.875,HW_LDT_1,2024.2.4,Win32,60.60606061,,,,,,,,,,,,,,,,,,,,,,542.1814,542.3788,542.3788,542.8784,,,,,,,,,,,,,,0.7258,1,,,,,,,,,,,,,,z,,,,,,,,,,,,,,,84,0,542.879,543.6113,z,1,0.7258,,[],[],[],[],[],[],[],543.6126,545.6009,545.601,545.6012,[],[],[],[],[],[],[],,545.6012,545.6012,0.016786571,-0.394084757,0,0,0,,0,83,83,25,1,2,RL,rabigly,print,rabigly_p.png,,,,,
,,,,28003,001,2025-11-08_21h31.47.875,HW_LDT_1,2024.2.4,Win32,60.60606061,,,,,,,,,,,,,,,,,,,,,,545.6044,545.7955,545.7955,546.2958,,,,,,,,,,,,,,0.66,1,,,,,,,,,,,,,,z,,,,,,,,,,,,,,,85,0,546.2968,546.9622,z,1,0.66,,[],[],[],[],[],[],[],546.9623,548.9543,548.9545,548.9547,[],[],[],[],[],[],[],,548.9547,548.9549,0.016786571,-0.394084757,0,0,0,,0,84,84,1,1,2,RL,caleberia,print,caleberia_p.png,,,,,
,,,,28003,001,2025-11-08_21h31.47.875,HW_LDT_1,2024.2.4,Win32,60.60606061,,,,,,,,,,,,,,,,,,,,,,548.9566,549.1547,549.1547,549.6521,,,,,,,,,,,,,,0.7331,1,,,,,,,,,,,,,,m,,,,,,,,,,,,,,,86,0,549.6527,550.3875,m,1,0.7331,,[],[],[],[],[],[],[],550.3877,552.3864,552.3865,552.3867,[],[],[],[],[],[],[],,552.3867,552.3869,0.016786571,-0.394084757,0,0,0,,0,85,85,137,1,2,word,RAPIDLY,print,rapidly_p.png,,,,,
,,,,28003,001,2025-11-08_21h31.47.875,HW_LDT_1,2024.2.4,Win32,60.60606061,,,,,,,,,,,,,,,,,,,,,,552.3883,552.5855,552.5856,553.0872,,,,,,,,,,,,,,0.7653,1,,,,,,,,,,,,,,m,,,,,,,,,,,,,,,87,0,553.0879,553.8553,m,1,0.7653,,[],[],[],[],[],[],[],553.8554,555.8542,555.8544,555.8546,[],[],[],[],[],[],[],,555.8546,555.8547,0.016786571,-0.394084757,0,0,0,,0,86,86,127,1,2,word,ORIGINAL,print,original_p.png,,,,,
,,,,28003,001,2025-11-08_21h31.47.875,HW_LDT_1,2024.2.4,Win32,60.60606061,,,,,,,,,,,,,,,,,,,,,,555.8563,556.0535,556.0535,556.5534,,,,,,,,,,,,,,0.7316,1,,,,,,,,,,,,,,z,,,,,,,,,,,,,,,88,0,556.5543,557.2873,z,1,0.7316,,[],[],[],[],[],[],[],557.2875,559.2884,559.2884,559.2887,[],[],[],[],[],[],[],,559.2888,559.2888,0.016786571,-0.394084757,0,0,0,,0,87,87,10,1,2,RL,disluge,cursive,disluge_c.png,,,,,
,,,,28003,001,2025-11-08_21h31.47.875,HW_LDT_1,2024.2.4,Win32,60.60606061,,,,,,,,,,,,,,,,,,,,,,559.2907,559.4876,559.4876,559.9869,,,,,,,,,,,,,,1.9981,0,,,,,,,,,,,,,,m,,,,,,,,,,,,,,,89,0,559.9879,561.9881,z,0,1.9981,,[],[],[],[],[],[],[],561.9882,563.9816,563.9818,563.9824,[],[],[],[],[],[],[],,563.9825,563.9829,0.016786571,-0.394084757,0,0,0,,0,88,88,108,1,2,word,FORTUNE,print,fortune_p.png,,,,,
,,,,28003,001,2025-11-08_21h31.47.875,HW_LDT_1,2024.2.4,Win32,60.60606061,,,,,,,,,,,,,,,,,,,,,,563.9886,564.1786,564.1788,564.6782,,,,,,,,,,,,,,2.8437,1,,,,,,,,,,,,,,z,,,,,,,,,,,,,,,90,0,564.6789,567.5294,z,1,2.8437,,[],[],[],[],[],[],[],567.5296,569.5287,569.5288,569.529,[],[],[],[],[],[],[],,569.529,569.5291,0.016786571,-0.394084757,0,0,0,,0,89,89,34,1,2,RL,trilude,cursive,trilude_c.png,,,,,
,,,,28003,001,2025-11-08_21h31.47.875,HW_LDT_1,2024.2.4,Win32,60.60606061,,,,,,,,,,,,,,,,,,,,,,569.5306,569.7289,569.729,570.2291,,,,,,,,,,,,,,1.813,1,,,,,,,,,,,,,,m,,,,,,,,,,,,,,,91,0,570.2301,572.0452,m,1,1.813,,[],[],[],[],[],[],[],572.0453,574.0459,574.0459,574.0462,[],[],[],[],[],[],[],,574.0463,574.0464,0.016786571,-0.394084757,0,0,0,,0,90,90,159,1,2,word,VETERAN,print,veteran_p.png,,,,,
,,,,28003,001,2025-11-08_21h31.47.875,HW_LDT_1,2024.2.4,Win32,60.60606061,,,,,,,,,,,,,,,,,,,,,,574.0486,574.2461,574.2461,574.7452,,,,,,,,,,,,,,1.5604,1,,,,,,,,,,,,,,m,,,,,,,,,,,,,,,92,1,574.7459,576.3145,m,1,1.5604,,[],[],[],[],[],[],[],576.3147,578.3126,578.3127,579.3462,[],[],[],[],[],[],[],z,579.3464,579.3466,0.016786571,-0.394084757,0,0,0,,0,91,91,84,1,2,word,BELOVED,cursive,beloved_c.png,1.0262,,,,
,,,,28003,001,2025-11-08_21h31.47.875,HW_LDT_1,2024.2.4,Win32,60.60606061,,,,,,,,,,,,,,,,,,,,,,579.3499,579.546,579.5461,580.0455,,,,,,,,,,,,,,0.9947,1,,,,,,,,,,,,,,z,,,,,,,,,,,,,,,93,0,580.0465,581.0456,z,1,0.9947,,[],[],[],[],[],[],[],581.0458,583.0457,583.0459,583.0461,[],[],[],[],[],[],[],,583.0461,583.0462,0.016786571,-0.394084757,0,0,0,,0,92,92,31,1,2,RL,spetisic,print,spetisic_p.png,,,,,
,,,,28003,001,2025-11-08_21h31.47.875,HW_LDT_1,2024.2.4,Win32,60.60606061,,,,,,,,,,,,,,,,,,,,,,583.0482,583.2455,583.2456,583.7458,,,,,,,,,,,,,,1.0439,1,,,,,,,,,,,,,,z,,,,,,,,,,,,,,,94,0,583.7468,584.7961,z,1,1.0439,,[],[],[],[],[],[],[],584.7961,586.7852,586.7854,586.7856,[],[],[],[],[],[],[],,586.7856,586.7857,0.016786571,-0.394084757,0,0,0,,0,93,93,19,1,2,RL,monebate,cursive,monebate_c.png,,,,,
,,,,28003,001,2025-11-08_21h31.47.875,HW_LDT_1,2024.2.4,Win32,60.60606061,,,,,,,,,,,,,,,,,,,,,,586.7871,586.9789,586.979,587.4793,,,,,,,,,,,,,,4.1274,1,,,,,,,,,,,,,,m,,,,,,,,,,,,,,,95,1,587.48,591.6127,m,1,4.1274,,[],[],[],[],[],[],[],591.6128,593.6026,593.6027,594.7285,[],[],[],[],[],[],[],z,594.7286,594.7288,0.016786571,-0.394084757,0,0,0,,0,94,94,116,1,2,word,MARGINAL,cursive,marginal_c.png,1.1239,,,,
,,,,28003,001,2025-11-08_21h31.47.875,HW_LDT_1,2024.2.4,Win32,60.60606061,,,,,,,,,,,,,,,,,,,,,,594.7304,594.9294,594.9294,595.4295,,,,,,,,,,,,,,3.5216,1,,,,,,,,,,,,,,z,,,,,,,,,,,,,,,96,0,595.4307,598.9547,z,1,3.5216,,[],[],[],[],[],[],[],598.9549,600.9553,600.9554,600.9556,[],[],[],[],[],[],[],,600.9556,600.9557,0.016786571,-0.394084757,0,0,0,,0,95,95,79,1,2,TL,vadility,print,vadility_p.png,,,,,
,,,,28003,001,2025-11-08_21h31.47.875,HW_LDT_1,2024.2.4,Win32,60.60606061,,,,,,,,,,,,,,,,,,,,,,600.9573,601.1525,601.1526,601.6522,,,,,,,,,,,,,,2.4511,1,,,,,,,,,,,,,,z,,,,,,,,,,,,,,,97,0,601.6528,604.1059,z,1,2.4511,,[],[],[],[],[],[],[],604.1061,606.1041,606.1041,606.1043,[],[],[],[],[],[],[],,606.1044,606.1045,0.016786571,-0.394084757,0,0,0,,0,96,96,16,1,2,RL,losipal,print,losipal_p.png,,,,,
,,,,28003,001,2025-11-08_21h31.47.875,HW_LDT_1,2024.2.4,Win32,60.60606061,,,,,,,,,,,,,,,,,,,,,,606.1061,606.3046,606.3046,606.8042,,,,,,,,,,,,,,1.502,0,,,,,,,,,,,,,,m,,,,,,,,,,,,,,,98,0,606.805,608.3134,z,0,1.502,,[],[],[],[],[],[],[],608.3136,610.313,610.3131,610.3133,[],[],[],[],[],[],[],,610.3134,610.3135,0.016786571,-0.394084757,0,0,0,,0,97,97,109,1,2,word,GRATEFUL,cursive,grateful_c.png,,,,,
,,,,28003,001,2025-11-08_21h31.47.875,HW_LDT_1,2024.2.4,Win32,60.60606061,,,,,,,,,,,,,,,,,,,,,,610.3156,610.5125,610.5125,611.0126,,,,,,,,,,,,,,1.7753,1,,,,,,,,,,,,,,m,,,,,,,,,,,,,,,99,0,611.0133,612.796,m,1,1.7753,,[],[],[],[],[],[],[],612.796,614.7964,614.7964,614.7966,[],[],[],[],[],[],[],,614.7967,614.7968,0.016786571,-0.394084757,0,0,0,,0,98,98,86,1,2,word,BESIDE,cursive,beside_c.png,,,,,
,,,,28003,001,2025-11-08_21h31.47.875,HW_LDT_1,2024.2.4,Win32,60.60606061,,,,,,,,,,,,,,,,,,,,,,614.7994,614.9962,614.9963,615.4975,,,,,,,,,,,,,,2.0958,0,,,,,,,,,,,,,,m,,,,,,,,,,,,,,,100,0,615.4983,617.5963,z,0,2.0958,,[],[],[],[],[],[],[],617.5964,619.5959,619.596,619.5962,[],[],[],[],[],[],[],,619.5963,619.5964,0.016786571,-0.394084757,0,0,0,,0,99,99,126,1,2,word,OPTIMAL,cursive,optimal_c.png,,,,,
,,,,28003,001,2025-11-08_21h31.47.875,HW_LDT_1,2024.2.4,Win32,60.60606061,,,,,,,,,,,,,,,,,,,,,,619.5987,619.7968,619.7968,620.2955,,,,,,,,,,,,,,1.893,0,,,,,,,,,,,,,,m,,,,,,,,,,,,,,,101,0,620.2961,622.192,z,0,1.893,,[],[],[],[],[],[],[],622.1922,624.1876,624.1877,624.1879,[],[],[],[],[],[],[],,624.188,624.1881,0.016786571,-0.394084757,0,0,0,,0,100,100,82,1,2,word,AMATEUR,cursive,amateur_c.png,,,,,
,,,,28003,001,2025-11-08_21h31.47.875,HW_LDT_1,2024.2.4,Win32,60.60606061,,,,,,,,,,,,,,,,,,,,,,624.1897,624.3877,624.3879,624.888,,,,,,,,,,,,,,0.9144,1,,,,,,,,,,,,,,z,,,,,,,,,,,,,,,102,0,624.8887,625.8045,z,1,0.9144,,[],[],[],[],[],[],[],625.8046,627.7965,627.7966,627.7968,[],[],[],[],[],[],[],,627.7968,627.7969,0.016786571,-0.394084757,0,0,0,,0,101,101,22,1,2,RL,posity,print,posity_p.png,,,,,
,,,,28003,001,2025-11-08_21h31.47.875,HW_LDT_1,2024.2.4,Win32,60.60606061,,,,,,,,,,,,,,,,,,,,,,627.7996,627.9963,627.9964,628.4964,,,,,,,,,,,,,,0.9601,1,,,,,,,,,,,,,,z,,,,,,,,,,,,,,,103,0,628.4971,629.4631,z,1,0.9601,,[],[],[],[],[],[],[],629.4632,631.4633,631.4634,631.4637,[],[],[],[],[],[],[],,631.4637,631.4639,0.016786571,-0.394084757,0,0,0,,0,102,102,28,1,2,RL,revune,cursive,revune_c.png,,,,,
,,,,28003,001,2025-11-08_21h31.47.875,HW_LDT_1,2024.2.4,Win32,60.60606061,,,,,,,,,,,,,,,,,,,,,,631.4658,631.6624,631.6624,632.1639,,,,,,,,,,,,,,1.1086,1,,,,,,,,,,,,,,z,,,,,,,,,,,,,,,104,0,632.1648,633.2797,z,1,1.1086,,[],[],[],[],[],[],[],633.2798,635.2796,635.2796,635.2798,[],[],[],[],[],[],[],,635.2799,635.28,0.016786571,-0.394084757,0,0,0,,0,103,103,36,1,2,RL,vecelan,print,vecelan_p.png,,,,,
,,,,28003,001,2025-11-08_21h31.47.875,HW_LDT_1,2024.2.4,Win32,60.60606061,,,,,,,,,,,,,,,,,,,,,,635.2822,635.4795,635.4796,635.9802,,,,,,,,,,,,,,2.1267,1,,,,,,,,,,,,,,m,,,,,,,,,,,,,,,105,0,635.981,638.1132,m,1,2.1267,,[],[],[],[],[],[],[],638.1134,640.1125,640.1125,640.1127,[],[],[],[],[],[],[],,640.1128,640.1129,0.016786571,-0.394084757,0,0,0,,0,104,104,95,1,2,word,COMEDY,cursive,comedy_c.png,,,,,
,,,,28003,001,2025-11-08_21h31.47.875,HW_LDT_1,2024.2.4,Win32,60.60606061,,,,,,,,,,,,,,,,,,,,,,640.1144,640.3131,640.3132,640.8146,,,,,,,,,,,,,,1.3413,1,,,,,,,,,,,,,,z,,,,,,,,,,,,,,,106,0,640.8153,642.1633,z,1,1.3413,,[],[],[],[],[],[],[],642.1634,644.1632,644.1632,644.1635,[],[],[],[],[],[],[],,644.1636,644.1637,0.016786571,-0.394084757,0,0,0,,0,105,105,54,1,2,TL,liretal,cursive,liretal_c.png,,,,,
,,,,28003,001,2025-11-08_21h31.47.875,HW_LDT_1,2024.2.4,Win32,60.60606061,,,,,,,,,,,,,,,,,,,,,,644.166,644.3635,644.3637,644.8638,,,,,,,,,,,,,,1.0776,1,,,,,,,,,,,,,,z,,,,,,,,,,,,,,,107,1,644.865,645.9464,z,1,1.0776,,[],[],[],[],[],[],[],645.9466,647.9462,647.9463,650.8965,[],[],[],[],[],[],[],m,650.8966,650.8968,0.016786571,-0.394084757,0,0,0,,0,106,106,15,1,2,RL,linedal,print,linedal_p.png,2.9441,,,,
,,,,28003,001,2025-11-08_21h31.47.875,HW_LDT_1,2024.2.4,Win32,60.60606061,,,,,,,,,,,,,,,,,,,,,,650.8989,651.0971,651.0972,651.5963,,,,,,,,,,,,,,3.7737,1,,,,,,,,,,,,,,m,,,,,,,,,,,,,,,108,1,651.597,655.3725,m,1,3.7737,,[],[],[],[],[],[],[],655.3727,657.3718,657.372,660.2392,[],[],[],[],[],[],[],m,660.2393,660.2394,0.016786571,-0.394084757,0,0,0,,0,107,107,144,1,2,word,RESIDENT,print,resident_p.png,2.8659,,,,
,,,,28003,001,2025-11-08_21h31.47.875,HW_LDT_1,2024.2.4,Win32,60.60606061,,,,,,,,,,,,,,,,,,,,,,660.2408,660.4399,660.44,660.9384,,,,,,,,,,,,,,2.1693,1,,,,,,,,,,,,,,m,,,,,,,,,,,,,,,109,0,660.9393,663.1136,m,1,2.1693,,[],[],[],[],[],[],[],663.1137,665.1152,665.1153,665.1156,[],[],[],[],[],[],[],,665.1156,665.1158,0.016786571,-0.394084757,0,0,0,,0,108,108,98,1,2,word,CRIMINAL,cursive,criminal_c.png,,,,,
,,,,28003,001,2025-11-08_21h31.47.875,HW_LDT_1,2024.2.4,Win32,60.60606061,,,,,,,,,,,,,,,,,,,,,,665.1178,665.3136,665.3136,665.8135,,,,,,,,,,,,,,2.1797,0,,,,,,,,,,,,,,m,,,,,,,,,,,,,,,110,0,665.8145,667.9962,z,0,2.1797,,[],[],[],[],[],[],[],667.9962,669.9966,669.9966,669.9969,[],[],[],[],[],[],[],,669.9969,669.997,0.016786571,-0.394084757,0,0,0,,0,109,109,119,1,2,word,MEMORY,cursive,memory_c.png,,,,,
,,,,28003,001,2025-11-08_21h31.47.875,HW_LDT_1,2024.2.4,Win32,60.60606061,,,,,,,,,,,,,,,,,,,,,,669.9992,670.1972,670.1973,670.6964,,,,,,,,,,,,,,0.9909,1,,,,,,,,,,,,,,z,,,,,,,,,,,,,,,111,0,670.6971,671.6964,z,1,0.9909,,[],[],[],[],[],[],[],671.6965,673.6961,673.6961,673.6963,[],[],[],[],[],[],[],,673.6963,673.6963,0.016786571,-0.394084757,0,0,0,,0,110,110,52,1,2,TL,elarobate,cursive,elarobate_c.png,,,,,
,,,,28003,001,2025-11-08_21h31.47.875,HW_LDT_1,2024.2.4,Win32,60.60606061,,,,,,,,,,,,,,,,,,,,,,673.6981,673.8971,673.8972,674.3969,,,,,,,,,,,,,,1.6262,1,,,,,,,,,,,,,,m,,,,,,,,,,,,,,,112,0,674.3977,676.0311,m,1,1.6262,,[],[],[],[],[],[],[],676.0313,678.0308,678.0309,678.0311,[],[],[],[],[],[],[],,678.0312,678.0313,0.016786571,-0.394084757,0,0,0,,0,111,111,133,1,2,word,PROVIDE,cursive,provide_c.png,,,,,
,,,,28003,001,2025-11-08_21h31.47.875,HW_LDT_1,2024.2.4,Win32,60.60606061,,,,,,,,,,,,,,,,,,,,,,678.0335,678.2303,678.2304,678.7294,,,,,,,,,,,,,,2.0729,0,,,,,,,,,,,,,,m,,,,,,,,,,,,,,,113,0,678.7299,680.8037,z,0,2.0729,,[],[],[],[],[],[],[],680.8038,682.8052,682.8052,682.8055,[],[],[],[],[],[],[],,682.8055,682.8056,0.016786571,-0.394084757,0,0,0,,0,112,112,117,1,2,word,MARINE,cursive,marine_c.png,,,,,
,,,,28003,001,2025-11-08_21h31.47.875,HW_LDT_1,2024.2.4,Win32,60.60606061,,,,,,,,,,,,,,,,,,,,,,682.8071,683.0057,683.0058,683.5056,,,,,,,,,,,,,,1.0655,1,,,,,,,,,,,,,,z,,,,,,,,,,,,,,,114,0,683.507,684.5808,z,1,1.0655,,[],[],[],[],[],[],[],684.5809,686.5803,686.5804,686.5807,[],[],[],[],[],[],[],,686.5808,686.581,0.016786571,-0.394084757,0,0,0,,0,113,113,23,1,2,RL,procogal,cursive,procogal_c.png,,,,,
,,,,28003,001,2025-11-08_21h31.47.875,HW_LDT_1,2024.2.4,Win32,60.60606061,,,,,,,,,,,,,,,,,,,,,,686.5836,686.7801,686.7802,687.2806,,,,,,,,,,,,,,0.7132,1,,,,,,,,,,,,,,z,,,,,,,,,,,,,,,115,0,687.282,687.9972,z,1,0.7132,,[],[],[],[],[],[],[],687.9974,689.9968,689.997,689.9971,[],[],[],[],[],[],[],,689.9971,689.9973,0.016786571,-0.394084757,0,0,0,,0,114,114,46,1,2,TL,codemy,cursive,codemy_c.png,,,,,
,,,,28003,001,2025-11-08_21h31.47.875,HW_LDT_1,2024.2.4,Win32,60.60606061,,,,,,,,,,,,,,,,,,,,,,689.9995,690.1971,690.1972,690.6968,,,,,,,,,,,,,,1.2092,0,,,,,,,,,,,,,,m,,,,,,,,,,,,,,,116,0,690.6978,691.9138,z,0,1.2092,,[],[],[],[],[],[],[],691.9139,693.913,693.9131,693.9133,[],[],[],[],[],[],[],,693.9134,693.9135,0.016786571,-0.394084757,0,0,0,,0,115,115,121,1,2,word,MISTAKE,cursive,mistake_c.png,,,,,
,,,,28003,001,2025-11-08_21h31.47.875,HW_LDT_1,2024.2.4,Win32,60.60606061,,,,,,,,,,,,,,,,,,,,,,693.9154,694.1136,694.1138,694.6159,,,,,,,,,,,,,,0.8096,1,,,,,,,,,,,,,,m,,,,,,,,,,,,,,,117,0,694.6167,695.4313,m,1,0.8096,,[],[],[],[],[],[],[],695.4318,697.4314,697.4315,697.4317,[],[],[],[],[],[],[],,697.4318,697.4319,0.016786571,-0.394084757,0,0,0,,0,116,116,87,1,2,word,CAFETERIA,print,cafeteria_p.png,,,,,
,,,,28003,001,2025-11-08_21h31.47.875,HW_LDT_1,2024.2.4,Win32,60.60606061,,,,,,,,,,,,,,,,,,,,,,697.4341,697.7082,697.7082,698.1319,,,,,,,,,,,,,,0.9598,1,,,,,,,,,,,,,,z,,,,,,,,,,,,,,,118,0,698.1328,699.0972,z,1,0.9598,,[],[],[],[],[],[],[],699.0973,701.0975,701.0976,701.098,[],[],[],[],[],[],[],,701.0981,701.0982,0.016786571,-0.394084757,0,0,0,,0,117,117,67,1,2,TL,quafily,cursive,quafily_c.png,,,,,
,,,,28003,001,2025-11-08_21h31.47.875,HW_LDT_1,2024.2.4,Win32,60.60606061,,,,,,,,,,,,,,,,,,,,,,701.102,701.2975,701.2976,701.7966,,,,,,,,,,,,,,0.9092,1,,,,,,,,,,,,,,z,,,,,,,,,,,,,,,119,0,701.7977,702.7139,z,1,0.9092,,[],[],[],[],[],[],[],702.714,704.7139,704.714,704.7143,[],[],[],[],[],[],[],,704.7144,704.7145,0.016786571,-0.394084757,0,0,0,,0,118,118,24,1,2,RL,rasibal,cursive,rasibal_c.png,,,,,
,,,,28003,001,2025-11-08_21h31.47.875,HW_LDT_1,2024.2.4,Win32,60.60606061,,,,,,,,,,,,,,,,,,,,,,704.716,704.9135,704.9135,705.4143,,,,,,,,,,,,,,1.1088,1,,,,,,,,,,,,,,z,,,,,,,,,,,,,,,120,0,705.4153,706.5308,z,1,1.1088,,[],[],[],[],[],[],[],706.531,708.5305,708.5305,708.5308,[],[],[],[],[],[],[],,708.5308,708.5309,0.016786571,-0.394084757,0,0,0,,0,119,119,21,1,2,RL,pamest,print,pamest_p.png,,,,,
,,,,28003,001,2025-11-08_21h31.47.875,HW_LDT_1,2024.2.4,Win32,60.60606061,,,,,,,,,,,,,,,,,,,,,,708.5325,708.7298,708.7299,709.2304,,,,,,,,,,,,,,0.9811,1,,,,,,,,,,,,,,m,,,,,,,,,,,,,,,121,0,709.231,710.2138,m,1,0.9811,,[],[],[],[],[],[],[],710.2138,712.2148,712.2149,712.2151,[],[],[],[],[],[],[],,712.2152,712.2153,0.016786571,-0.394084757,0,0,0,,0,120,120,152,1,2,word,SPECIMEN,print,specimen_p.png,,,,,
,,,,28003,001,2025-11-08_21h31.47.875,HW_LDT_1,2024.2.4,Win32,60.60606061,,,,,,,,,,,,,,,,,,,,,,712.2176,712.4137,712.4138,712.9134,,,,,,,,,,,,,,0.8088,1,,,,,,,,,,,,,,m,,,,,,,,,,,,,,,122,0,712.9142,713.7302,m,1,0.8088,,[],[],[],[],[],[],[],713.7303,715.7306,715.7306,715.7309,[],[],[],[],[],[],[],,715.731,715.7311,0.016786571,-0.394084757,0,0,0,,0,121,121,122,1,2,word,MOBILE,print,mobile_p.png,,,,,
,,,,28003,001,2025-11-08_21h31.47.875,HW_LDT_1,2024.2.4,Win32,60.60606061,,,,,,,,,,,,,,,,,,,,,,715.7333,715.9306,715.9307,716.4307,,,,,,,,,,,,,,0.8626,0,,,,,,,,,,,,,,m,,,,,,,,,,,,,,,123,0,716.4321,717.2975,z,0,0.8626,,[],[],[],[],[],[],[],717.2976,719.2971,719.2972,719.2974,[],[],[],[],[],[],[],,719.2974,719.2975,0.016786571,-0.394084757,0,0,0,,0,122,122,113,1,2,word,LITERAL,cursive,literal_c.png,,,,,
,,,,28003,001,2025-11-08_21h31.47.875,HW_LDT_1,2024.2.4,Win32,60.60606061,,,,,,,,,,,,,,,,,,,,,,719.2995,719.4975,719.4975,719.9973,,,,,,,,,,,,,,0.673,0,,,,,,,,,,,,,,m,,,,,,,,,,,,,,,124,0,719.9984,720.6805,z,0,0.673,,[],[],[],[],[],[],[],720.6806,722.6798,722.6799,722.6802,[],[],[],[],[],[],[],,722.6803,722.6805,0.016786571,-0.394084757,0,0,0,,0,123,123,91,1,2,word,CARDINAL,cursive,cardinal_c.png,,,,,
,,,,28003,001,2025-11-08_21h31.47.875,HW_LDT_1,2024.2.4,Win32,60.60606061,,,,,,,,,,,,,,,,,,,,,,722.6826,722.881,722.8811,723.3805,,,,,,,,,,,,,,0.7245,0,,,,,,,,,,,,,,m,,,,,,,,,,,,,,,125,0,723.3815,724.1141,z,0,0.7245,,[],[],[],[],[],[],[],724.1143,726.105,726.1051,726.1052,[],[],[],[],[],[],[],,726.1052,726.1052,0.016786571,-0.394084757,0,0,0,,0,124,124,94,1,2,word,CLINICAL,cursive,clinical_c.png,,,,,
,,,,28003,001,2025-11-08_21h31.47.875,HW_LDT_1,2024.2.4,Win32,60.60606061,,,,,,,,,,,,,,,,,,,,,,726.1064,726.2974,726.2974,726.7974,,,,,,,,,,,,,,0.7243,1,,,,,,,,,,,,,,z,,,,,,,,,,,,,,,126,0,726.7986,727.5312,z,1,0.7243,,[],[],[],[],[],[],[],727.5313,729.5308,729.5309,729.5312,[],[],[],[],[],[],[],,729.5312,729.5313,0.016786571,-0.394084757,0,0,0,,0,125,125,58,1,2,TL,mitilary,cursive,mitilary_c.png,,,,,
,,,,28003,001,2025-11-08_21h31.47.875,HW_LDT_1,2024.2.4,Win32,60.60606061,,,,,,,,,,,,,,,,,,,,,,729.5336,729.7308,729.7308,730.2311,,,,,,,,,,,,,,1.5434,1,,,,,,,,,,,,,,z,,,,,,,,,,,,,,,127,0,730.2325,731.7807,z,1,1.5434,,[],[],[],[],[],[],[],731.7808,733.7765,733.7766,733.7768,[],[],[],[],[],[],[],,733.7769,733.7769,0.016786571,-0.394084757,0,0,0,,0,126,126,55,1,2,TL,lotace,print,lotace_p.png,,,,,
,,,,28003,001,2025-11-08_21h31.47.875,HW_LDT_1,2024.2.4,Win32,60.60606061,,,,,,,,,,,,,,,,,,,,,,733.78,733.9805,733.9807,734.4805,,,,,,,,,,,,,,0.9564,1,,,,,,,,,,,,,,z,,,,,,,,,,,,,,,128,0,734.4821,735.4475,z,1,0.9564,,[],[],[],[],[],[],[],735.4476,737.4475,737.4476,737.448,[],[],[],[],[],[],[],,737.448,737.4482,0.016786571,-0.394084757,0,0,0,,0,127,127,65,1,2,TL,polupar,cursive,polupar_c.png,,,,,
,,,,28003,001,2025-11-08_21h31.47.875,HW_LDT_1,2024.2.4,Win32,60.60606061,,,,,,,,,,,,,,,,,,,,,,737.451,737.6473,737.6474,738.148,,,,,,,,,,,,,,1.2414,1,,,,,,,,,,,,,,z,,,,,,,,,,,,,,,129,0,738.1493,739.3976,z,1,1.2414,,[],[],[],[],[],[],[],739.3977,741.3974,741.3975,741.3978,[],[],[],[],[],[],[],,741.3978,741.3979,0.016786571,-0.394084757,0,0,0,,0,128,128,29,1,2,RL,samite,cursive,samite_c.png,,,,,
,,,,28003,001,2025-11-08_21h31.47.875,HW_LDT_1,2024.2.4,Win32,60.60606061,,,,,,,,,,,,,,,,,,,,,,741.3998,741.5991,741.5991,742.0974,,,,,,,,,,,,,,1.8727,1,,,,,,,,,,,,,,m,,,,,,,,,,,,,,,130,0,742.0981,743.9727,m,1,1.8727,,[],[],[],[],[],[],[],743.9728,745.9727,745.9727,745.9729,[],[],[],[],[],[],[],,745.9729,745.973,0.016786571,-0.394084757,0,0,0,,0,129,129,149,1,2,word,SENATOR,print,senator_p.png,,,,,
,,,,28003,001,2025-11-08_21h31.47.875,HW_LDT_1,2024.2.4,Win32,60.60606061,,,,,,,,,,,,,,,,,,,,,,745.9746,746.1642,746.1643,746.6641,,,,,,,,,,,,,,1.3112,1,,,,,,,,,,,,,,z,,,,,,,,,,,,,,,131,0,746.6653,747.9809,z,1,1.3112,,[],[],[],[],[],[],[],747.981,749.9808,749.981,749.9811,[],[],[],[],[],[],[],,749.9812,749.9813,0.016786571,-0.394084757,0,0,0,,0,130,130,44,1,2,TL,catipal,cursive,catipal_c.png,,,,,
,,,,28003,001,2025-11-08_21h31.47.875,HW_LDT_1,2024.2.4,Win32,60.60606061,,,,,,,,,,,,,,,,,,,,,,749.9837,750.1807,750.1808,750.6808,,,,,,,,,,,,,,0.8909,1,,,,,,,,,,,,,,z,,,,,,,,,,,,,,,132,0,750.6816,751.5812,z,1,0.8909,,[],[],[],[],[],[],[],751.5814,753.5811,753.5811,753.5815,[],[],[],[],[],[],[],,753.5815,753.5817,0.016786571,-0.394084757,0,0,0,,0,131,131,76,1,2,TL,senmitent,cursive,senmitent_c.png,,,,,
,,,,28003,001,2025-11-08_21h31.47.875,HW_LDT_1,2024.2.4,Win32,60.60606061,,,,,,,,,,,,,,,,,,,,,,753.5847,753.7807,753.7808,754.2811,,,,,,,,,,,,,,0.9894,1,,,,,,,,,,,,,,m,,,,,,,,,,,,,,,133,0,754.2822,755.281,m,1,0.9894,,[],[],[],[],[],[],[],755.2811,757.2812,757.2813,757.2815,[],[],[],[],[],[],[],,757.2815,757.2816,0.016786571,-0.394084757,0,0,0,,0,132,132,158,1,2,word,VELOCITY,print,velocity_p.png,,,,,
,,,,28003,001,2025-11-08_21h31.47.875,HW_LDT_1,2024.2.4,Win32,60.60606061,,,,,,,,,,,,,,,,,,,,,,757.2831,757.4815,757.4816,757.981,,,,,,,,,,,,,,0.9253,0,,,,,,,,,,,,,,m,,,,,,,,,,,,,,,134,0,757.9822,758.9146,z,0,0.9253,,[],[],[],[],[],[],[],758.9147,760.9065,760.9065,760.9067,[],[],[],[],[],[],[],,760.9068,760.9069,0.016786571,-0.394084757,0,0,0,,0,133,133,107,1,2,word,EVIDENT,cursive,evident_c.png,,,,,
,,,,28003,001,2025-11-08_21h31.47.875,HW_LDT_1,2024.2.4,Win32,60.60606061,,,,,,,,,,,,,,,,,,,,,,760.9084,761.1057,761.1059,761.6059,,,,,,,,,,,,,,0.9648,1,,,,,,,,,,,,,,m,,,,,,,,,,,,,,,135,0,761.6067,762.5732,m,1,0.9648,,[],[],[],[],[],[],[],762.5733,764.5727,764.5728,764.573,[],[],[],[],[],[],[],,764.573,764.5731,0.016786571,-0.394084757,0,0,0,,0,134,134,131,1,2,word,POPULAR,cursive,popular_c.png,,,,,
,,,,28003,001,2025-11-08_21h31.47.875,HW_LDT_1,2024.2.4,Win32,60.60606061,,,,,,,,,,,,,,,,,,,,,,764.5748,764.7706,764.7707,765.2721,,,,,,,,,,,,,,1.3171,1,,,,,,,,,,,,,,z,,,,,,,,,,,,,,,136,0,765.2728,766.5918,z,1,1.3171,,[],[],[],[],[],[],[],766.592,768.5816,768.5817,768.582,[],[],[],[],[],[],[],,768.582,768.5822,0.016786571,-0.394084757,0,0,0,,0,135,135,70,1,2,TL,retalive,print,retalive_p.png,,,,,
,,,,28003,001,2025-11-08_21h31.47.875,HW_LDT_1,2024.2.4,Win32,60.60606061,,,,,,,,,,,,,,,,,,,,,,768.5847,768.781,768.781,769.2811,,,,,,,,,,,,,,0.9767,0,,,,,,,,,,,,,,m,,,,,,,,,,,,,,,137,0,769.2822,770.2649,z,0,0.9767,,[],[],[],[],[],[],[],770.265,772.2652,772.2653,772.2656,[],[],[],[],[],[],[],,772.2656,772.2657,0.016786571,-0.394084757,0,0,0,,0,136,136,136,1,2,word,RADICAL,cursive,radical_c.png,,,,,
,,,,28003,001,2025-11-08_21h31.47.875,HW_LDT_1,2024.2.4,Win32,60.60606061,,,,,,,,,,,,,,,,,,,,,,772.2686,772.4646,772.4648,772.9648,,,,,,,,,,,,,,1.4237,1,,,,,,,,,,,,,,m,,,,,,,,,,,,,,,138,0,772.9657,774.3979,m,1,1.4237,,[],[],[],[],[],[],[],774.3981,776.3978,776.3979,776.3982,[],[],[],[],[],[],[],,776.3982,776.3984,0.016786571,-0.394084757,0,0,0,,0,137,137,114,1,2,word,LOCATE,print,locate_p.png,,,,,
,,,,28003,001,2025-11-08_21h31.47.875,HW_LDT_1,2024.2.4,Win32,60.60606061,,,,,,,,,,,,,,,,,,,,,,776.4006,776.599,776.5991,777.0993,,,,,,,,,,,,,,1.0074,1,,,,,,,,,,,,,,z,,,,,,,,,,,,,,,139,0,777.1003,778.1147,z,1,1.0074,,[],[],[],[],[],[],[],778.1148,780.1146,780.1147,780.1149,[],[],[],[],[],[],[],,780.1151,780.1151,0.016786571,-0.394084757,0,0,0,,0,138,138,5,1,2,RL,clisimal,cursive,clisimal_c.png,,,,,
,,,,28003,001,2025-11-08_21h31.47.875,HW_LDT_1,2024.2.4,Win32,60.60606061,,,,,,,,,,,,,,,,,,,,,,780.1176,780.3149,780.315,780.8154,,,,,,,,,,,,,,2.2909,0,,,,,,,,,,,,,,m,,,,,,,,,,,,,,,140,0,780.8168,783.1147,z,0,2.2909,,[],[],[],[],[],[],[],783.1149,785.1147,785.1149,785.1151,[],[],[],[],[],[],[],,785.1153,785.1153,0.016786571,-0.394084757,0,0,0,,0,139,139,120,1,2,word,MILITARY,cursive,military_c.png,,,,,
,,,,28003,001,2025-11-08_21h31.47.875,HW_LDT_1,2024.2.4,Win32,60.60606061,,,,,,,,,,,,,,,,,,,,,,785.1182,785.3152,785.3153,785.815,,,,,,,,,,,,,,1.3105,1,,,,,,,,,,,,,,m,,,,,,,,,,,,,,,141,0,785.8162,787.1314,m,1,1.3105,,[],[],[],[],[],[],[],787.1317,789.1356,789.1357,789.1361,[],[],[],[],[],[],[],,789.1362,789.1364,0.016786571,-0.394084757,0,0,0,,0,140,140,115,1,2,word,LOGICAL,print,logical_p.png,,,,,
,,,,28003,001,2025-11-08_21h31.47.875,HW_LDT_1,2024.2.4,Win32,60.60606061,,,,,,,,,,,,,,,,,,,,,,789.1383,789.3386,789.3386,789.839,,,,,,,,,,,,,,0.9818,1,,,,,,,,,,,,,,z,,,,,,,,,,,,,,,142,1,789.84,790.8234,z,1,0.9818,,[],[],[],[],[],[],[],790.8235,792.8223,792.8223,794.2231,[],[],[],[],[],[],[],z,794.2232,794.2233,0.016786571,-0.394084757,0,0,0,,0,141,141,26,1,2,RL,retupar,cursive,retupar_c.png,1.3998,,,,
,,,,28003,001,2025-11-08_21h31.47.875,HW_LDT_1,2024.2.4,Win32,60.60606061,,,,,,,,,,,,,,,,,,,,,,794.2246,794.4234,794.4234,794.9227,,,,,,,,,,,,,,3.6995,1,,,,,,,,,,,,,,z,,,,,,,,,,,,,,,143,0,794.9236,798.6312,z,1,3.6995,,[],[],[],[],[],[],[],798.6312,800.6312,800.6312,800.6314,[],[],[],[],[],[],[],,800.6314,800.6315,0.016786571,-0.394084757,0,0,0,,0,142,142,75,1,2,TL,ronamtic,print,ronamtic_p.png,,,,,
,,,,28003,001,2025-11-08_21h31.47.875,HW_LDT_1,2024.2.4,Win32,60.60606061,,,,,,,,,,,,,,,,,,,,,,800.6335,800.8314,800.8316,801.3318,,,,,,,,,,,,,,0.9252,0,,,,,,,,,,,,,,m,,,,,,,,,,,,,,,144,0,801.3326,802.265,z,0,0.9252,,[],[],[],[],[],[],[],802.2651,804.2648,804.2649,804.2651,[],[],[],[],[],[],[],,804.2651,804.2653,0.016786571,-0.394084757,0,0,0,,0,143,143,139,1,2,word,REGULAR,cursive,regular_c.png,,,,,
,,,,28003,001,2025-11-08_21h31.47.875,HW_LDT_1,2024.2.4,Win32,60.60606061,,,,,,,,,,,,,,,,,,,,,,804.2671,804.4652,804.4653,804.9565,,,,,,,,,,,,,,1.048,1,,,,,,,,,,,,,,z,,,,,,,,,,,,,,,145,0,804.9571,806.0069,z,1,1.048,,[],[],[],[],[],[],[],806.007,808.0065,808.0066,808.0068,[],[],[],[],[],[],[],,808.0068,808.007,0.016786571,-0.394084757,0,0,0,,0,144,144,66,1,2,TL,prodive,cursive,prodive_c.png,,,,,
,,,,28003,001,2025-11-08_21h31.47.875,HW_LDT_1,2024.2.4,Win32,60.60606061,,,,,,,,,,,,,,,,,,,,,,808.0089,808.1987,808.1987,808.6975,,,,,,,,,,,,,,1.9112,1,,,,,,,,,,,,,,m,,,,,,,,,,,,,,,146,0,808.6983,810.6151,m,1,1.9112,,[],[],[],[],[],[],[],810.6153,812.6151,812.6151,812.6154,[],[],[],[],[],[],[],,812.6156,812.6156,0.016786571,-0.394084757,0,0,0,,0,145,145,124,1,2,word,NUMERICAL,cursive,numerical_c.png,,,,,
,,,,28003,001,2025-11-08_21h31.47.875,HW_LDT_1,2024.2.4,Win32,60.60606061,,,,,,,,,,,,,,,,,,,,,,812.618,812.8154,812.8155,813.3149,,,,,,,,,,,,,,4.1084,1,,,,,,,,,,,,,,z,,,,,,,,,,,,,,,147,0,813.3156,817.4322,z,1,4.1084,,[],[],[],[],[],[],[],817.4324,819.4318,819.4319,819.4322,[],[],[],[],[],[],[],,819.4323,819.4323,0.016786571,-0.394084757,0,0,0,,0,146,146,47,1,2,TL,crinimal,cursive,crinimal_c.png,,,,,
,,,,28003,001,2025-11-08_21h31.47.875,HW_LDT_1,2024.2.4,Win32,60.60606061,,,,,,,,,,,,,,,,,,,,,,819.4347,819.709,819.7091,820.1316,,,,,,,,,,,,,,1.1413,0,,,,,,,,,,,,,,m,,,,,,,,,,,,,,,148,0,820.1325,821.2823,z,0,1.1413,,[],[],[],[],[],[],[],821.2824,823.2818,823.2819,823.2822,[],[],[],[],[],[],[],,823.2823,823.2824,0.016786571,-0.394084757,0,0,0,,0,147,147,135,1,2,word,QUALITY,cursive,quality_c.png,,,,,
,,,,28003,001,2025-11-08_21h31.47.875,HW_LDT_1,2024.2.4,Win32,60.60606061,,,,,,,,,,,,,,,,,,,,,,823.2848,823.4822,823.4822,823.9822,,,,,,,,,,,,,,1.9722,0,,,,,,,,,,,,,,z,,,,,,,,,,,,,,,149,0,823.9831,825.9572,m,0,1.9722,,[],[],[],[],[],[],[],825.9572,827.9575,827.9576,827.9581,[],[],[],[],[],[],[],,827.9582,827.9583,0.016786571,-0.394084757,0,0,0,,0,148,148,60,1,2,TL,molibe,print,molibe_p.png,,,,,
,,,,28003,001,2025-11-08_21h31.47.875,HW_LDT_1,2024.2.4,Win32,60.60606061,,,,,,,,,,,,,,,,,,,,,,827.96,828.1571,828.1572,828.7135,,,,,,,,,,,,,,0.9267,1,,,,,,,,,,,,,,z,,,,,,,,,,,,,,,150,0,828.7142,829.6482,z,1,0.9267,,[],[],[],[],[],[],[],829.6483,831.6482,831.6483,831.6484,[],[],[],[],[],[],[],,831.6486,831.6489,0.016786571,-0.394084757,0,0,0,,0,149,149,35,1,2,RL,vesofity,print,vesofity_p.png,,,,,
,,,,28003,001,2025-11-08_21h31.47.875,HW_LDT_1,2024.2.4,Win32,60.60606061,,,,,,,,,,,,,,,,,,,,,,831.651,831.8491,831.8492,832.3494,,,,,,,,,,,,,,0.8458,1,,,,,,,,,,,,,,z,,,,,,,,,,,,,,,151,0,832.3503,833.2004,z,1,0.8458,,[],[],[],[],[],[],[],833.2008,835.1986,835.1986,835.1989,[],[],[],[],[],[],[],,835.199,835.199,0.016786571,-0.394084757,0,0,0,,0,150,150,68,1,2,TL,quatily,cursive,quatily_c.png,,,,,
,,,,28003,001,2025-11-08_21h31.47.875,HW_LDT_1,2024.2.4,Win32,60.60606061,,,,,,,,,,,,,,,,,,,,,,835.2015,835.3981,835.3982,835.8996,,,,,,,,,,,,,,1.4784,1,,,,,,,,,,,,,,m,,,,,,,,,,,,,,,152,0,835.9007,837.3818,m,1,1.4784,,[],[],[],[],[],[],[],837.3818,839.3825,839.3825,839.3834,[],[],[],[],[],[],[],,839.3835,839.3837,0.016786571,-0.394084757,0,0,0,,0,151,151,140,1,2,word,RELATIVE,print,relative_p.png,,,,,
,,,,28003,001,2025-11-08_21h31.47.875,HW_LDT_1,2024.2.4,Win32,60.60606061,,,,,,,,,,,,,,,,,,,,,,839.3872,839.5826,839.5827,840.0838,,,,,,,,,,,,,,0.9419,1,,,,,,,,,,,,,,z,,,,,,,,,,,,,,,153,0,840.0844,841.0319,z,1,0.9419,,[],[],[],[],[],[],[],841.032,843.0325,843.0327,843.0329,[],[],[],[],[],[],[],,843.033,843.0331,0.016786571,-0.394084757,0,0,0,,0,152,152,27,1,2,RL,repifion,cursive,repifion_c.png,,,,,
,,,,28003,001,2025-11-08_21h31.47.875,HW_LDT_1,2024.2.4,Win32,60.60606061,,,,,,,,,,,,,,,,,,,,,,843.0354,843.2324,843.2325,843.7318,,,,,,,,,,,,,,1.9651,1,,,,,,,,,,,,,,m,,,,,,,,,,,,,,,154,0,843.7324,845.6985,m,1,1.9651,,[],[],[],[],[],[],[],845.6986,847.6985,847.6985,847.6987,[],[],[],[],[],[],[],,847.6987,847.6988,0.016786571,-0.394084757,0,0,0,,0,153,153,104,1,2,word,DOMINANT,print,dominant_p.png,,,,,
,,,,28003,001,2025-11-08_21h31.47.875,HW_LDT_1,2024.2.4,Win32,60.60606061,,,,,,,,,,,,,,,,,,,,,,847.7005,847.8983,847.8984,848.3988,,,,,,,,,,,,,,0.6941,0,,,,,,,,,,,,,,m,,,,,,,,,,,,,,,155,0,848.3995,849.0988,z,0,0.6941,,[],[],[],[],[],[],[],849.099,851.09,851.0901,851.0903,[],[],[],[],[],[],[],,851.0904,851.0905,0.016786571,-0.394084757,0,0,0,,0,154,154,125,1,2,word,OPERATOR,cursive,operator_c.png,,,,,
,,,,28003,001,2025-11-08_21h31.47.875,HW_LDT_1,2024.2.4,Win32,60.60606061,,,,,,,,,,,,,,,,,,,,,,851.0921,851.2899,851.29,851.7903,,,,,,,,,,,,,,2.3148,0,,,,,,,,,,,,,,m,,,,,,,,,,,,,,,156,0,851.7914,854.1084,z,0,2.3148,,[],[],[],[],[],[],[],854.1086,856.0987,856.0988,856.0991,[],[],[],[],[],[],[],,856.0991,856.0992,0.016786571,-0.394084757,0,0,0,,0,155,155,106,1,2,word,ELABORATE,cursive,elaborate_c.png,,,,,
,,,,28003,001,2025-11-08_21h31.47.875,HW_LDT_1,2024.2.4,Win32,60.60606061,,,,,,,,,,,,,,,,,,,,,,856.101,856.2991,856.2991,856.7984,,,,,,,,,,,,,,1.4436,1,,,,,,,,,,,,,,m,,,,,,,,,,,,,,,157,0,856.7993,858.2489,m,1,1.4436,,[],[],[],[],[],[],[],858.249,860.2496,860.2497,860.25,[],[],[],[],[],[],[],,860.2501,860.2501,0.016786571,-0.394084757,0,0,0,,0,156,156,88,1,2,word,CAMERA,print,camera_p.png,,,,,
,,,,28003,001,2025-11-08_21h31.47.875,HW_LDT_1,2024.2.4,Win32,60.60606061,,,,,,,,,,,,,,,,,,,,,,860.2525,860.452,860.4522,860.9489,,,,,,,,,,,,,,2.0644,1,,,,,,,,,,,,,,z,,,,,,,,,,,,,,,158,0,860.9497,863.0158,z,1,2.0644,,[],[],[],[],[],[],[],863.0159,865.0073,865.0074,865.0078,[],[],[],[],[],[],[],,865.008,865.0081,0.016786571,-0.394084757,0,0,0,,0,157,157,51,1,2,TL,etidor,cursive,etidor_c.png,,,,,
,,,,28003,001,2025-11-08_21h31.47.875,HW_LDT_1,2024.2.4,Win32,60.60606061,,,,,,,,,,,,,,,,,,,,,,865.0096,865.199,865.1991,865.7123,,,,,,,,,,,,,,3.0625,1,,,,,,,,,,,,,,m,,,,,,,,,,,,,,,159,0,865.7128,868.7821,m,1,3.0625,,[],[],[],[],[],[],[],868.7822,870.7825,870.7826,870.7829,[],[],[],[],[],[],[],,870.783,870.7831,0.016786571,-0.394084757,0,0,0,,0,158,158,97,1,2,word,COVERAGE,cursive,coverage_c.png,,,,,
,,,,28003,001,2025-11-08_21h31.47.875,HW_LDT_1,2024.2.4,Win32,60.60606061,,,,,,,,,,,,,,,,,,,,,,870.7849,870.9825,870.9827,871.4816,,,,,,,,,,,,,,1.5397,1,,,,,,,,,,,,,,m,,,,,,,,,,,,,,,160,0,871.4833,873.0247,m,1,1.5397,,[],[],[],[],[],[],[],873.0248,875.0261,875.0262,875.0264,[],[],[],[],[],[],[],,875.0265,875.0266,0.016786571,-0.394084757,0,0,0,,0,159,159,154,1,2,word,STORAGE,print,storage_p.png,,,,,
,,,,28003,001,2025-11-08_21h31.47.875,HW_LDT_1,2024.2.4,Win32,60.60606061,,,,,,,,,,,,,,,,,,,,,,,,,,,,,,,,,,,,,,,,,,,,,,,,,,,,,,,,,,,,,,,,,,,,,,,,,,,,,,,,,,,,,,,,,,,,,,,,,,,,,,,,,,,,,,,,,,,,,875.0487,880.0166
