counterbalance_lists.group,counterbalance_lists.remaining,get_list.started,get_list.stopped,participant,session,date,expName,psychopyVersion,OS,frameRate,Instructions.started,Instructions.stopped,key_resp.keys,instr_done_touch.x,instr_done_touch.y,instr_done_touch.leftButton,instr_done_touch.midButton,instr_done_touch.rightButton,instr_done_touch.clicked_name,start_instr.thisRepN,start_instr.thisTrialN,start_instr.thisN,start_instr.thisIndex,start_instr.ran,pageN,phase,instruct_text,has_image,instruct_image,key_resp.rt,key_resp.duration,showProgress.started,showProgress.stopped,fix.started,fix.stopped,prac.started,prac.stopped,response.keys,response.corr,response.rt,response.duration,touch_resp.x,touch_resp.y,touch_resp.leftButton,touch_resp.midButton,touch_resp.rightButton,touch_resp.time,touch_resp.clicked_name,rt,corr,feedback.started,feedback.stopped,trials.thisRepN,trials.thisTrialN,trials.thisN,trials.thisIndex,trials.ran,TrialID,StimulusType,Condition,PrimeDuration,Prime,Target,corrAns,Instructions_expt.started,Instructions_expt.stopped,key_resp_3.keys,key_resp_3.rt,key_resp_3.duration,instr_done_touch_3.x,instr_done_touch_3.y,instr_done_touch_3.leftButton,instr_done_touch_3.midButton,instr_done_touch_3.rightButton,instr_experiment.thisRepN,instr_experiment.thisTrialN,instr_experiment.thisN,instr_experiment.thisIndex,instr_experiment.ran,trialID,flag,maintask.started,maintask.stopped,key_resp_2.keys,key_resp_2.corr,key_resp_2.rt,key_resp_2.duration,targ_click.x,targ_click.y,targ_click.leftButton,targ_click.midButton,targ_click.rightButton,targ_click.time,targ_click.clicked_name,ITI.started,ITI.stopped,probe.started,probe.stopped,click_probe.x,click_probe.y,click_probe.leftButton,click_probe.midButton,click_probe.rightButton,click_probe.time,click_probe.clicked_name,key_resp_probe.keys,Break.started,Break.stopped,break_done_touch.x,break_done_touch.y,break_done_touch.leftButton,break_done_touch.midButton,break_done_touch.rightButton,break_done_keyboard.keys,list3_trials.thisRepN,list3_trials.thisTrialN,list3_trials.thisN,list3_trials.thisIndex,list3_trials.ran,list_id,item_type,string,font,stim_file,key_resp_probe.rt,key_resp_probe.duration,break_done_keyboard.rt,break_done_keyboard.duration,End.started,End.stopped
list3,,0.7644,0.7645,28348,001,2025-10-16_10h38.39.242,HW_LDT_1,2024.2.4,MacIntel,59.88023952,,,,,,,,,,,,,,,,,,,,,,,,,,,,,,,,,,,,,,,,,,,,,,,,,,,,,,,,,,,,,,,,,,,,,,,,,,,,,,,,,,,,,,,,,,,,,,,,,,,,,,,,,,,,,,,,,,,,,,,,
,,,,28348,001,2025-10-16_10h38.39.242,HW_LDT_1,2024.2.4,MacIntel,59.88023952,0.7859,1.8958,,-0.096117486,-0.402512004,1,0,0,instr_done_button,0,0,0,0,1,1,instructions,"INSTRUCTIONS
At the start of each trial, look at the plus sign  (+) in the center of the screen.  This tells you that a trial is about to begin and where to look. Second, the plus sign will disappear and a string of letters will appear. Your task is to determine if the string of letters is a word or not. If the item is a word press the M key (on keyboard)  or touch the word button (phone/tablet).  If the item is not a word,  press the  Z key (on keyboard)  or touch the nonword button (on phone/tablet). The items will be presented for a short time. 
Press the space bar or touch  continue.",0,,,,,,,,,,,,,,,,,,,,,,,,,,,,,,,,,,,,,,,,,,,,,,,,,,,,,,,,,,,,,,,,,,,,,,,,,,,,,,,,,,,,,,,,,,,,,,,,,,,,,,
,,,,28348,001,2025-10-16_10h38.39.242,HW_LDT_1,2024.2.4,MacIntel,59.88023952,1.8973,8.7441,space,-0.096117486,-0.402512004,0,0,0,,0,1,1,1,1,2,instructions,"If your device has a keyboard, press the 'Z' key for nonwords and the 'M' key for words.





Press the space bar or touch the button below to continue.",0,keyboard-example.gif,6.8128,,,,,,,,,,,,,,,,,,,,,,,,,,,,,,,,,,,,,,,,,,,,,,,,,,,,,,,,,,,,,,,,,,,,,,,,,,,,,,,,,,,,,,,,,,,,,,,,,,,,
,,,,28348,001,2025-10-16_10h38.39.242,HW_LDT_1,2024.2.4,MacIntel,59.88023952,8.7464,14.3279,space,-0.096117486,-0.402512004,0,0,0,,0,2,2,2,1,3,instructions,"If you are using a touchscreen only device, use the buttons on the screen. Do not use the mouse.





Press the space bar or touch the button below to continue.",0,touchscreen-example.gif,5.5497,,,,,,,,,,,,,,,,,,,,,,,,,,,,,,,,,,,,,,,,,,,,,,,,,,,,,,,,,,,,,,,,,,,,,,,,,,,,,,,,,,,,,,,,,,,,,,,,,,,,
,,,,28348,001,2025-10-16_10h38.39.242,HW_LDT_1,2024.2.4,MacIntel,59.88023952,14.3293,25.0282,space,-0.096117486,-0.402512004,0,0,0,,0,3,3,3,1,4,instructions,"It is very important that you respond as quickly and accurately as possible, as each letter string will only be on the screen for two seconds. If you do not respond within this time, the message 'Too slow!' will be displayed and the experiment will progress to the next letter string. The first 20 trials will be practice trials and you will receive feedback on your answers. 

Press the space bar or touch the button below to start the practice trials.",0,,10.6703,,,,,,,,,,,,,,,,,,,,,,,,,,,,,,,,,,,,,,,,,,,,,,,,,,,,,,,,,,,,,,,,,,,,,,,,,,,,,,,,,,,,,,,,,,,,,,,,,,,,
,,,,28348,001,2025-10-16_10h38.39.242,HW_LDT_1,2024.2.4,MacIntel,59.88023952,,,,,,,,,,,,,,,,,,,,,,25.0637,25.2271,25.2275,25.7261,25.7266,27.0279,z,1,1.2598,,[],[],[],[],[],[],[],1.2598,1,27.0285,27.5305,0,0,0,13,1,1014,NW,UN,33,winfer,ROUPET,z,,,,,,,,,,,,,,,,,,,,,,,,,,,,,,,,,,,,,,,,,,,,,,,,,,,,,,,,,,,,,,,,,,
,,,,28348,001,2025-10-16_10h38.39.242,HW_LDT_1,2024.2.4,MacIntel,59.88023952,,,,,,,,,,,,,,,,,,,,,,27.5315,27.7298,27.7298,28.2291,28.2296,28.9638,z,1,0.7242,,[],[],[],[],[],[],[],0.7242,1,28.9639,29.4798,0,1,1,14,1,1015,NW,UN,16,miaber,THRALE,z,,,,,,,,,,,,,,,,,,,,,,,,,,,,,,,,,,,,,,,,,,,,,,,,,,,,,,,,,,,,,,,,,,
,,,,28348,001,2025-10-16_10h38.39.242,HW_LDT_1,2024.2.4,MacIntel,59.88023952,,,,,,,,,,,,,,,,,,,,,,29.4807,29.6799,29.6799,30.1811,30.1817,31.0954,z,1,0.9035,,[],[],[],[],[],[],[],0.9035,1,31.0955,31.5941,0,2,2,11,1,1012,NW,"ID",16,rashet,RASHET,z,,,,,,,,,,,,,,,,,,,,,,,,,,,,,,,,,,,,,,,,,,,,,,,,,,,,,,,,,,,,,,,,,,
,,,,28348,001,2025-10-16_10h38.39.242,HW_LDT_1,2024.2.4,MacIntel,59.88023952,,,,,,,,,,,,,,,,,,,,,,31.5964,31.7938,31.7939,32.2942,32.2954,32.9452,z,1,0.6222,,[],[],[],[],[],[],[],0.6222,1,32.9453,33.4455,0,3,3,15,1,1016,NW,UN,16,mushed,WHAISE,z,,,,,,,,,,,,,,,,,,,,,,,,,,,,,,,,,,,,,,,,,,,,,,,,,,,,,,,,,,,,,,,,,,
,,,,28348,001,2025-10-16_10h38.39.242,HW_LDT_1,2024.2.4,MacIntel,59.88023952,,,,,,,,,,,,,,,,,,,,,,33.4468,33.6451,33.6452,34.145,34.1454,34.9933,m,0,0.838,,[],[],[],[],[],[],[],0.838,0,34.9937,35.4955,0,4,4,10,1,1011,NW,"ID",16,inlade,INLADE,z,,,,,,,,,,,,,,,,,,,,,,,,,,,,,,,,,,,,,,,,,,,,,,,,,,,,,,,,,,,,,,,,,,
,,,,28348,001,2025-10-16_10h38.39.242,HW_LDT_1,2024.2.4,MacIntel,59.88023952,,,,,,,,,,,,,,,,,,,,,,35.4963,35.6949,35.695,36.1965,36.1971,36.9086,m,1,0.6975,,[],[],[],[],[],[],[],0.6975,1,36.9097,37.4122,0,5,5,6,1,1007,WORD,UN,16,tropic,ZOMBIE,m,,,,,,,,,,,,,,,,,,,,,,,,,,,,,,,,,,,,,,,,,,,,,,,,,,,,,,,,,,,,,,,,,,
,,,,28348,001,2025-10-16_10h38.39.242,HW_LDT_1,2024.2.4,MacIntel,59.88023952,,,,,,,,,,,,,,,,,,,,,,37.413,37.6101,37.6101,38.1098,38.1111,38.7454,m,1,0.6011,,[],[],[],[],[],[],[],0.6011,1,38.7455,39.2455,0,6,6,5,1,1006,WORD,UN,33,frenzy,OBTAIN,m,,,,,,,,,,,,,,,,,,,,,,,,,,,,,,,,,,,,,,,,,,,,,,,,,,,,,,,,,,,,,,,,,,
,,,,28348,001,2025-10-16_10h38.39.242,HW_LDT_1,2024.2.4,MacIntel,59.88023952,,,,,,,,,,,,,,,,,,,,,,39.2463,39.446,39.446,39.9437,39.9442,40.5598,m,1,0.5976,,[],[],[],[],[],[],[],0.5976,1,40.5603,41.0595,0,7,7,3,1,1004,WORD,"ID",16,matrix,MATRIX,m,,,,,,,,,,,,,,,,,,,,,,,,,,,,,,,,,,,,,,,,,,,,,,,,,,,,,,,,,,,,,,,,,,
,,,,28348,001,2025-10-16_10h38.39.242,HW_LDT_1,2024.2.4,MacIntel,59.88023952,,,,,,,,,,,,,,,,,,,,,,41.0626,41.2598,41.2602,41.7568,41.7574,42.3419,m,1,0.5755,,[],[],[],[],[],[],[],0.5755,1,42.342,42.8463,0,8,8,7,1,1008,WORD,UN,16,hurdle,VOLUME,m,,,,,,,,,,,,,,,,,,,,,,,,,,,,,,,,,,,,,,,,,,,,,,,,,,,,,,,,,,,,,,,,,,
,,,,28348,001,2025-10-16_10h38.39.242,HW_LDT_1,2024.2.4,MacIntel,59.88023952,,,,,,,,,,,,,,,,,,,,,,42.8475,43.041,43.041,43.5416,43.5433,44.3604,z,1,0.7958,,[],[],[],[],[],[],[],0.7958,1,44.3606,44.8594,0,9,9,12,1,1013,NW,UN,33,adveil,SPRINY,z,,,,,,,,,,,,,,,,,,,,,,,,,,,,,,,,,,,,,,,,,,,,,,,,,,,,,,,,,,,,,,,,,,
,,,,28348,001,2025-10-16_10h38.39.242,HW_LDT_1,2024.2.4,MacIntel,59.88023952,,,,,,,,,,,,,,,,,,,,,,44.8613,45.0602,45.0602,45.5619,45.5624,46.243,z,1,0.6676,,[],[],[],[],[],[],[],0.6676,1,46.2432,46.7425,0,10,10,8,1,1009,NW,"ID",33,aslert,ASLERT,z,,,,,,,,,,,,,,,,,,,,,,,,,,,,,,,,,,,,,,,,,,,,,,,,,,,,,,,,,,,,,,,,,,
,,,,28348,001,2025-10-16_10h38.39.242,HW_LDT_1,2024.2.4,MacIntel,59.88023952,,,,,,,,,,,,,,,,,,,,,,46.745,46.9464,46.9464,47.4456,47.4461,48.0754,m,1,0.6178,,[],[],[],[],[],[],[],0.6178,1,48.0756,48.5767,0,11,11,2,1,1003,WORD,"ID",16,almond,ALMOND,m,,,,,,,,,,,,,,,,,,,,,,,,,,,,,,,,,,,,,,,,,,,,,,,,,,,,,,,,,,,,,,,,,,
,,,,28348,001,2025-10-16_10h38.39.242,HW_LDT_1,2024.2.4,MacIntel,59.88023952,,,,,,,,,,,,,,,,,,,,,,48.5786,48.778,48.7781,49.2785,49.279,49.8927,m,1,0.5963,,[],[],[],[],[],[],[],0.5963,1,49.8931,50.3926,0,12,12,4,1,1005,WORD,UN,33,abound,SQUEAK,m,,,,,,,,,,,,,,,,,,,,,,,,,,,,,,,,,,,,,,,,,,,,,,,,,,,,,,,,,,,,,,,,,,
,,,,28348,001,2025-10-16_10h38.39.242,HW_LDT_1,2024.2.4,MacIntel,59.88023952,,,,,,,,,,,,,,,,,,,,,,50.3949,50.5894,50.5894,51.1066,51.1072,51.7265,z,1,0.6052,,[],[],[],[],[],[],[],0.6052,1,51.7267,52.228,0,13,13,9,1,1010,NW,"ID",33,fariny,FARINY,z,,,,,,,,,,,,,,,,,,,,,,,,,,,,,,,,,,,,,,,,,,,,,,,,,,,,,,,,,,,,,,,,,,
,,,,28348,001,2025-10-16_10h38.39.242,HW_LDT_1,2024.2.4,MacIntel,59.88023952,,,,,,,,,,,,,,,,,,,,,,52.2285,52.4285,52.4285,52.9287,52.9292,53.5612,m,1,0.6232,,[],[],[],[],[],[],[],0.6232,1,53.5613,54.061,0,14,14,0,1,1001,WORD,"ID",33,utopia,UTOPIA,m,,,,,,,,,,,,,,,,,,,,,,,,,,,,,,,,,,,,,,,,,,,,,,,,,,,,,,,,,,,,,,,,,,
,,,,28348,001,2025-10-16_10h38.39.242,HW_LDT_1,2024.2.4,MacIntel,59.88023952,,,,,,,,,,,,,,,,,,,,,,54.0617,54.2621,54.2621,54.7612,54.7617,55.3624,m,1,0.5918,,[],[],[],[],[],[],[],0.5918,1,55.3625,55.8619,0,15,15,1,1,1002,WORD,"ID",33,adjust,ADJUST,m,,,,,,,,,,,,,,,,,,,,,,,,,,,,,,,,,,,,,,,,,,,,,,,,,,,,,,,,,,,,,,,,,,
,,,,28348,001,2025-10-16_10h38.39.242,HW_LDT_1,2024.2.4,MacIntel,59.88023952,,,,,,,,,,,,,,,1,end_of_practice,"You have completed the practice trials. During the experimental trials, you will not receive feedback. On some trials you will be asked to report whether the item you just saw was in cursive or print. 
Before you begin, please ensure that you are in a comfortable and quiet location and will not be disturbed for about 15 minutes, as we cannot use your data if you do not complete all the trials. 
 When you are ready to start the experimental trials, please press space or touch the button below.",,,,,,,,,,,,,,,,,,,,,,,,,,,,,,,,,,,,,,55.8659,63.9932,space,8.0923,,-0.096117486,-0.402512004,0,0,0,0,0,0,0,1,,,,,,,,,,,,,,,,,,,,,,,,,,,,,,,,,,,,,,,,,,,,,,,,,,,
,,,,28348,001,2025-10-16_10h38.39.242,HW_LDT_1,2024.2.4,MacIntel,59.88023952,,,,,,,,,,,,,,,,,,,,,,64.014,64.195,64.195,64.6946,,,,,,,,,,,,,,0.6368,1,,,,,,,,,,,,,,m,,,,,,,,,,,,,,,,1,0,64.6955,65.343,m,1,0.6368,,[],[],[],[],[],[],[],65.3436,67.3444,67.3445,67.3467,[],[],[],[],[],[],[],,67.3468,67.3483,-0.096117486,-0.402512004,0,0,0,,0,0,0,129,1,3,word,PARENT,print,parent_p.png,,,,,,
,,,,28348,001,2025-10-16_10h38.39.242,HW_LDT_1,2024.2.4,MacIntel,59.88023952,,,,,,,,,,,,,,,,,,,,,,67.349,67.5447,67.5448,68.0437,,,,,,,,,,,,,,0.5745,1,,,,,,,,,,,,,,m,,,,,,,,,,,,,,,,2,0,68.0442,68.6262,m,1,0.5745,,[],[],[],[],[],[],[],68.6264,70.625,70.6252,70.6255,[],[],[],[],[],[],[],,70.6256,70.6258,-0.096117486,-0.402512004,0,0,0,,0,1,1,106,1,3,word,ELABORATE,print,elaborate_p.png,,,,,,
,,,,28348,001,2025-10-16_10h38.39.242,HW_LDT_1,2024.2.4,MacIntel,59.88023952,,,,,,,,,,,,,,,,,,,,,,70.6282,70.8276,70.8276,71.3271,,,,,,,,,,,,,,0.5668,1,,,,,,,,,,,,,,m,,,,,,,,,,,,,,,,3,1,71.3274,71.8947,m,1,0.5668,,[],[],[],[],[],[],[],71.8947,73.8958,73.8958,76.2279,[],[],[],[],[],[],[],m,76.2279,76.228,-0.096117486,-0.402512004,0,0,0,,0,2,2,101,1,3,word,DELICATE,print,delicate_p.png,2.3315,,,,,
,,,,28348,001,2025-10-16_10h38.39.242,HW_LDT_1,2024.2.4,MacIntel,59.88023952,,,,,,,,,,,,,,,,,,,,,,76.2286,76.4277,76.4277,76.9276,,,,,,,,,,,,,,0.6067,1,,,,,,,,,,,,,,m,,,,,,,,,,,,,,,,4,0,76.9279,77.5418,m,1,0.6067,,[],[],[],[],[],[],[],77.5419,79.5418,79.5419,79.5423,[],[],[],[],[],[],[],,79.5423,79.5427,-0.096117486,-0.402512004,0,0,0,,0,3,3,125,1,3,word,OPERATOR,print,operator_p.png,,,,,,
,,,,28348,001,2025-10-16_10h38.39.242,HW_LDT_1,2024.2.4,MacIntel,59.88023952,,,,,,,,,,,,,,,,,,,,,,79.5446,79.7447,79.7447,80.2447,,,,,,,,,,,,,,0.6326,0,,,,,,,,,,,,,,z,,,,,,,,,,,,,,,,5,0,80.2449,80.8782,m,0,0.6326,,[],[],[],[],[],[],[],80.8783,82.8747,82.8748,82.8749,[],[],[],[],[],[],[],,82.875,82.8754,-0.096117486,-0.402512004,0,0,0,,0,4,4,51,1,3,TL,liretal,print,liretal_p.png,,,,,,
,,,,28348,001,2025-10-16_10h38.39.242,HW_LDT_1,2024.2.4,MacIntel,59.88023952,,,,,,,,,,,,,,,,,,,,,,82.8774,83.0784,83.0785,83.5791,,,,,,,,,,,,,,0.7655,1,,,,,,,,,,,,,,z,,,,,,,,,,,,,,,,6,0,83.5793,84.3454,z,1,0.7655,,[],[],[],[],[],[],[],84.3455,86.345,86.3451,86.3453,[],[],[],[],[],[],[],,86.3453,86.3453,-0.096117486,-0.402512004,0,0,0,,0,5,5,1,1,3,RL,bewoted,cursive,bewoted_c.png,,,,,,
,,,,28348,001,2025-10-16_10h38.39.242,HW_LDT_1,2024.2.4,MacIntel,59.88023952,,,,,,,,,,,,,,,,,,,,,,86.3459,86.5453,86.5453,87.0456,,,,,,,,,,,,,,0.732,0,,,,,,,,,,,,,,z,,,,,,,,,,,,,,,,7,0,87.0458,87.7785,m,0,0.732,,[],[],[],[],[],[],[],87.7785,89.7783,89.7784,89.7785,[],[],[],[],[],[],[],,89.7785,89.7786,-0.096117486,-0.402512004,0,0,0,,0,6,6,74,1,3,TL,spemicen,print,spemicen_p.png,,,,,,
,,,,28348,001,2025-10-16_10h38.39.242,HW_LDT_1,2024.2.4,MacIntel,59.88023952,,,,,,,,,,,,,,,,,,,,,,89.7792,89.9786,89.9787,90.4798,,,,,,,,,,,,,,0.6644,0,,,,,,,,,,,,,,m,,,,,,,,,,,,,,,,8,0,90.4801,91.1449,z,0,0.6644,,[],[],[],[],[],[],[],91.1449,93.1418,93.142,93.1423,[],[],[],[],[],[],[],,93.1423,93.1425,-0.096117486,-0.402512004,0,0,0,,0,7,7,159,1,3,word,VETERAN,cursive,veteran_c.png,,,,,,
,,,,28348,001,2025-10-16_10h38.39.242,HW_LDT_1,2024.2.4,MacIntel,59.88023952,,,,,,,,,,,,,,,,,,,,,,93.1443,93.3446,93.3446,93.8444,,,,,,,,,,,,,,0.474,1,,,,,,,,,,,,,,m,,,,,,,,,,,,,,,,9,0,93.8449,94.3255,m,1,0.474,,[],[],[],[],[],[],[],94.3256,96.3261,96.3262,96.3264,[],[],[],[],[],[],[],,96.3265,96.3267,-0.096117486,-0.402512004,0,0,0,,0,8,8,130,1,3,word,POLICY,print,policy_p.png,,,,,,
,,,,28348,001,2025-10-16_10h38.39.242,HW_LDT_1,2024.2.4,MacIntel,59.88023952,,,,,,,,,,,,,,,,,,,,,,96.3285,96.5264,96.5264,97.0284,,,,,,,,,,,,,,0.807,1,,,,,,,,,,,,,,m,,,,,,,,,,,,,,,,10,0,97.0287,97.8417,m,1,0.807,,[],[],[],[],[],[],[],97.8419,99.8456,99.8456,99.8458,[],[],[],[],[],[],[],,99.8458,99.8459,-0.096117486,-0.402512004,0,0,0,,0,9,9,102,1,3,word,DENSITY,print,density_p.png,,,,,,
,,,,28348,001,2025-10-16_10h38.39.242,HW_LDT_1,2024.2.4,MacIntel,59.88023952,,,,,,,,,,,,,,,,,,,,,,99.8468,100.0454,100.0454,100.5451,,,,,,,,,,,,,,0.748,1,,,,,,,,,,,,,,z,,,,,,,,,,,,,,,,11,0,100.5456,101.294,z,1,0.748,,[],[],[],[],[],[],[],101.2941,103.2939,103.294,103.2941,[],[],[],[],[],[],[],,103.2941,103.2942,-0.096117486,-0.402512004,0,0,0,,0,10,10,62,1,3,TL,prodive,print,prodive_p.png,,,,,,
,,,,28348,001,2025-10-16_10h38.39.242,HW_LDT_1,2024.2.4,MacIntel,59.88023952,,,,,,,,,,,,,,,,,,,,,,103.2948,103.494,103.4941,103.9945,,,,,,,,,,,,,,0.6985,1,,,,,,,,,,,,,,z,,,,,,,,,,,,,,,,12,0,103.9947,104.6939,z,1,0.6985,,[],[],[],[],[],[],[],104.6939,106.6942,106.6943,106.6943,[],[],[],[],[],[],[],,106.6943,106.6944,-0.096117486,-0.402512004,0,0,0,,0,11,11,60,1,3,TL,panert,print,panert_p.png,,,,,,
,,,,28348,001,2025-10-16_10h38.39.242,HW_LDT_1,2024.2.4,MacIntel,59.88023952,,,,,,,,,,,,,,,,,,,,,,106.6951,106.8943,106.8943,107.394,,,,,,,,,,,,,,0.6601,1,,,,,,,,,,,,,,m,,,,,,,,,,,,,,,,13,0,107.3942,108.0599,m,1,0.6601,,[],[],[],[],[],[],[],108.0602,110.0588,110.0589,110.0591,[],[],[],[],[],[],[],,110.0593,110.0596,-0.096117486,-0.402512004,0,0,0,,0,12,12,155,1,3,word,STRATEGY,print,strategy_p.png,,,,,,
,,,,28348,001,2025-10-16_10h38.39.242,HW_LDT_1,2024.2.4,MacIntel,59.88023952,,,,,,,,,,,,,,,,,,,,,,110.0613,110.2608,110.2608,110.7609,,,,,,,,,,,,,,0.7744,1,,,,,,,,,,,,,,z,,,,,,,,,,,,,,,,14,1,110.761,111.5417,z,1,0.7744,,[],[],[],[],[],[],[],111.5419,113.5453,113.5454,116.8787,[],[],[],[],[],[],[],m,116.8788,116.8789,-0.096117486,-0.402986857,0,0,0,,0,13,13,72,1,3,TL,senmitent,print,senmitent_p.png,3.3328,,,,,
,,,,28348,001,2025-10-16_10h38.39.242,HW_LDT_1,2024.2.4,MacIntel,59.88023952,,,,,,,,,,,,,,,,,,,,,,116.8794,117.0748,117.0748,117.5753,,,,,,,,,,,,,,0.868,0,,,,,,,,,,,,,,z,,,,,,,,,,,,,,,,15,0,117.5761,118.4447,m,0,0.868,,[],[],[],[],[],[],[],118.4448,120.4452,120.4452,120.4454,[],[],[],[],[],[],[],,120.4454,120.4454,-0.096117486,-0.402986857,0,0,0,,0,14,14,79,1,3,TL,veretan,cursive,veretan_c.png,,,,,,
,,,,28348,001,2025-10-16_10h38.39.242,HW_LDT_1,2024.2.4,MacIntel,59.88023952,,,,,,,,,,,,,,,,,,,,,,120.4461,120.6443,120.6443,121.1423,,,,,,,,,,,,,,0.7295,1,,,,,,,,,,,,,,z,,,,,,,,,,,,,,,,16,0,121.1431,121.8733,z,1,0.7295,,[],[],[],[],[],[],[],121.8734,123.8747,123.8748,123.8753,[],[],[],[],[],[],[],,123.8755,123.8758,-0.096117486,-0.402986857,0,0,0,,0,15,15,70,1,3,TL,remuse,cursive,remuse_c.png,,,,,,
,,,,28348,001,2025-10-16_10h38.39.242,HW_LDT_1,2024.2.4,MacIntel,59.88023952,,,,,,,,,,,,,,,,,,,,,,123.8775,124.0724,124.0724,124.5778,,,,,,,,,,,,,,0.6135,1,,,,,,,,,,,,,,m,,,,,,,,,,,,,,,,17,0,124.578,125.1928,m,1,0.6135,,[],[],[],[],[],[],[],125.1928,127.1935,127.1935,127.1936,[],[],[],[],[],[],[],,127.1936,127.1938,-0.096117486,-0.402986857,0,0,0,,0,16,16,83,1,3,word,ANIMAL,cursive,animal_c.png,,,,,,
,,,,28348,001,2025-10-16_10h38.39.242,HW_LDT_1,2024.2.4,MacIntel,59.88023952,,,,,,,,,,,,,,,,,,,,,,127.1945,127.3928,127.3929,127.8935,,,,,,,,,,,,,,0.5387,1,,,,,,,,,,,,,,m,,,,,,,,,,,,,,,,18,0,127.8938,128.4412,m,1,0.5387,,[],[],[],[],[],[],[],128.4412,130.442,130.442,130.4422,[],[],[],[],[],[],[],,130.4431,130.4433,-0.096117486,-0.402986857,0,0,0,,0,17,17,139,1,3,word,REGULAR,print,regular_p.png,,,,,,
,,,,28348,001,2025-10-16_10h38.39.242,HW_LDT_1,2024.2.4,MacIntel,59.88023952,,,,,,,,,,,,,,,,,,,,,,130.4449,130.644,130.6441,131.1436,,,,,,,,,,,,,,0.6319,1,,,,,,,,,,,,,,z,,,,,,,,,,,,,,,,19,0,131.1437,131.7764,z,1,0.6319,,[],[],[],[],[],[],[],131.7764,133.7748,133.7749,133.7753,[],[],[],[],[],[],[],,133.7753,133.7756,-0.096117486,-0.402986857,0,0,0,,0,18,18,8,1,3,RL,cocewage,print,cocewage_p.png,,,,,,
,,,,28348,001,2025-10-16_10h38.39.242,HW_LDT_1,2024.2.4,MacIntel,59.88023952,,,,,,,,,,,,,,,,,,,,,,133.7774,133.9782,133.9783,134.4788,,,,,,,,,,,,,,0.6152,1,,,,,,,,,,,,,,m,,,,,,,,,,,,,,,,20,0,134.4792,135.095,m,1,0.6152,,[],[],[],[],[],[],[],135.095,137.0955,137.0955,137.0957,[],[],[],[],[],[],[],,137.0957,137.0957,-0.096117486,-0.402986857,0,0,0,,0,19,19,100,1,3,word,DECADE,cursive,decade_c.png,,,,,,
,,,,28348,001,2025-10-16_10h38.39.242,HW_LDT_1,2024.2.4,MacIntel,59.88023952,,,,,,,,,,,,,,,,,,,,,,137.0964,137.2915,137.2918,137.7909,,,,,,,,,,,,,,0.5439,1,,,,,,,,,,,,,,m,,,,,,,,,,,,,,,,21,0,137.7916,138.3407,m,1,0.5439,,[],[],[],[],[],[],[],138.3409,140.3284,140.3284,140.3285,[],[],[],[],[],[],[],,140.3285,140.3286,-0.096117486,-0.402986857,0,0,0,,0,20,20,135,1,3,word,QUALITY,print,quality_p.png,,,,,,
,,,,28348,001,2025-10-16_10h38.39.242,HW_LDT_1,2024.2.4,MacIntel,59.88023952,,,,,,,,,,,,,,,,,,,,,,140.3292,140.5282,140.5283,141.0288,,,,,,,,,,,,,,0.674,1,,,,,,,,,,,,,,m,,,,,,,,,,,,,,,,22,0,141.0291,141.7076,m,1,0.674,,[],[],[],[],[],[],[],141.7077,143.7086,143.7087,143.7089,[],[],[],[],[],[],[],,143.7089,143.7093,-0.096354845,-0.402986857,0,0,0,,0,21,21,158,1,3,word,VELOCITY,cursive,velocity_c.png,,,,,,
,,,,28348,001,2025-10-16_10h38.39.242,HW_LDT_1,2024.2.4,MacIntel,59.88023952,,,,,,,,,,,,,,,,,,,,,,143.7109,143.9084,143.9086,144.4077,,,,,,,,,,,,,,0.5446,1,,,,,,,,,,,,,,m,,,,,,,,,,,,,,,,23,0,144.4084,144.9581,m,1,0.5446,,[],[],[],[],[],[],[],144.9585,146.9578,146.9579,146.9581,[],[],[],[],[],[],[],,146.9582,146.9584,-0.096592407,-0.402986857,0,0,0,,0,22,22,113,1,3,word,LITERAL,print,literal_p.png,,,,,,
,,,,28348,001,2025-10-16_10h38.39.242,HW_LDT_1,2024.2.4,MacIntel,59.88023952,,,,,,,,,,,,,,,,,,,,,,146.9603,147.1612,147.1612,147.6604,,,,,,,,,,,,,,0.8998,1,,,,,,,,,,,,,,z,,,,,,,,,,,,,,,,24,0,147.6607,148.5609,z,1,0.8998,,[],[],[],[],[],[],[],148.561,150.5611,150.5611,150.5613,[],[],[],[],[],[],[],,150.5613,150.5613,-0.096592407,-0.402986857,0,0,0,,0,23,23,17,1,3,RL,motide,cursive,motide_c.png,,,,,,
,,,,28348,001,2025-10-16_10h38.39.242,HW_LDT_1,2024.2.4,MacIntel,59.88023952,,,,,,,,,,,,,,,,,,,,,,150.562,150.7607,150.7608,151.2604,,,,,,,,,,,,,,0.5316,0,,,,,,,,,,,,,,z,,,,,,,,,,,,,,,,25,0,151.2607,151.7931,m,0,0.5316,,[],[],[],[],[],[],[],151.7933,153.7945,153.7945,153.7946,[],[],[],[],[],[],[],,153.7946,153.7947,-0.096592407,-0.402986857,0,0,0,,0,24,24,73,1,3,TL,speficic,print,speficic_p.png,,,,,,
,,,,28348,001,2025-10-16_10h38.39.242,HW_LDT_1,2024.2.4,MacIntel,59.88023952,,,,,,,,,,,,,,,,,,,,,,153.7954,153.9931,153.9932,154.4935,,,,,,,,,,,,,,0.7657,0,,,,,,,,,,,,,,z,,,,,,,,,,,,,,,,26,0,154.4936,155.2599,m,0,0.7657,,[],[],[],[],[],[],[],155.26,157.2613,157.2614,157.2615,[],[],[],[],[],[],[],,157.2615,157.2616,-0.096592407,-0.402986857,0,0,0,,0,25,25,69,1,3,TL,redisent,cursive,redisent_c.png,,,,,,
,,,,28348,001,2025-10-16_10h38.39.242,HW_LDT_1,2024.2.4,MacIntel,59.88023952,,,,,,,,,,,,,,,,,,,,,,157.2622,157.4598,157.4599,157.9598,,,,,,,,,,,,,,0.6333,1,,,,,,,,,,,,,,z,,,,,,,,,,,,,,,,27,0,157.9601,158.5939,z,1,0.6333,,[],[],[],[],[],[],[],158.5939,160.5933,160.5933,160.5935,[],[],[],[],[],[],[],,160.5935,160.5935,-0.096592407,-0.402986857,0,0,0,,0,26,26,21,1,3,RL,potugar,print,potugar_p.png,,,,,,
,,,,28348,001,2025-10-16_10h38.39.242,HW_LDT_1,2024.2.4,MacIntel,59.88023952,,,,,,,,,,,,,,,,,,,,,,160.5941,160.7941,160.7941,161.2937,,,,,,,,,,,,,,0.8652,1,,,,,,,,,,,,,,z,,,,,,,,,,,,,,,,28,0,161.294,162.1596,z,1,0.8652,,[],[],[],[],[],[],[],162.1599,164.1606,164.1606,164.1606,[],[],[],[],[],[],[],,164.1607,164.1608,-0.096592407,-0.402986857,0,0,0,,0,27,27,14,1,3,RL,lofase,cursive,lofase_c.png,,,,,,
,,,,28348,001,2025-10-16_10h38.39.242,HW_LDT_1,2024.2.4,MacIntel,59.88023952,,,,,,,,,,,,,,,,,,,,,,164.1613,164.3603,164.3604,164.8595,,,,,,,,,,,,,,0.6412,1,,,,,,,,,,,,,,z,,,,,,,,,,,,,,,,29,0,164.8599,165.5079,z,1,0.6412,,[],[],[],[],[],[],[],165.5081,167.5075,167.5076,167.5079,[],[],[],[],[],[],[],,167.508,167.5081,-0.096592407,-0.402986857,0,0,0,,0,28,28,71,1,3,TL,sanile,cursive,sanile_c.png,,,,,,
,,,,28348,001,2025-10-16_10h38.39.242,HW_LDT_1,2024.2.4,MacIntel,59.88023952,,,,,,,,,,,,,,,,,,,,,,167.5098,167.7081,167.7081,168.2067,,,,,,,,,,,,,,0.6685,0,,,,,,,,,,,,,,m,,,,,,,,,,,,,,,,30,0,168.2072,168.8765,z,0,0.6685,,[],[],[],[],[],[],[],168.8766,170.8764,170.8764,170.8765,[],[],[],[],[],[],[],,170.8766,170.8766,-0.096592407,-0.402986857,0,0,0,,0,29,29,122,1,3,word,MOBILE,cursive,mobile_c.png,,,,,,
,,,,28348,001,2025-10-16_10h38.39.242,HW_LDT_1,2024.2.4,MacIntel,59.88023952,,,,,,,,,,,,,,,,,,,,,,170.8772,171.0766,171.0766,171.5767,,,,,,,,,,,,,,0.5734,1,,,,,,,,,,,,,,m,,,,,,,,,,,,,,,,31,0,171.5769,172.1581,m,1,0.5734,,[],[],[],[],[],[],[],172.1581,174.1573,174.1574,174.1577,[],[],[],[],[],[],[],,174.1577,174.1578,-0.096592407,-0.402986857,0,0,0,,0,30,30,87,1,3,word,CAFETERIA,print,cafeteria_p.png,,,,,,
,,,,28348,001,2025-10-16_10h38.39.242,HW_LDT_1,2024.2.4,MacIntel,59.88023952,,,,,,,,,,,,,,,,,,,,,,174.1596,174.3602,174.3602,174.8599,,,,,,,,,,,,,,0.7671,1,,,,,,,,,,,,,,m,,,,,,,,,,,,,,,,32,0,174.8602,175.628,m,1,0.7671,,[],[],[],[],[],[],[],175.628,177.6275,177.6276,177.6277,[],[],[],[],[],[],[],,177.6277,177.6278,-0.096592407,-0.402986857,0,0,0,,0,31,31,127,1,3,word,ORIGINAL,cursive,original_c.png,,,,,,
,,,,28348,001,2025-10-16_10h38.39.242,HW_LDT_1,2024.2.4,MacIntel,59.88023952,,,,,,,,,,,,,,,,,,,,,,177.6285,177.8281,177.8281,178.327,,,,,,,,,,,,,,0.7674,1,,,,,,,,,,,,,,z,,,,,,,,,,,,,,,,33,0,178.3273,179.0953,z,1,0.7674,,[],[],[],[],[],[],[],179.0953,181.0947,181.0948,181.0949,[],[],[],[],[],[],[],,181.0949,181.095,-0.096592407,-0.402986857,0,0,0,,0,32,32,56,1,3,TL,meromy,print,meromy_p.png,,,,,,
,,,,28348,001,2025-10-16_10h38.39.242,HW_LDT_1,2024.2.4,MacIntel,59.88023952,,,,,,,,,,,,,,,,,,,,,,181.0956,181.2945,181.2945,181.7911,,,,,,,,,,,,,,0.7002,0,,,,,,,,,,,,,,m,,,,,,,,,,,,,,,,34,0,181.7918,182.4931,z,0,0.7002,,[],[],[],[],[],[],[],182.4932,184.5039,184.5039,184.504,[],[],[],[],[],[],[],,184.5041,184.5041,-0.096592407,-0.402986857,0,0,0,,0,33,33,123,1,3,word,MODERATE,cursive,moderate_c.png,,,,,,
,,,,28348,001,2025-10-16_10h38.39.242,HW_LDT_1,2024.2.4,MacIntel,59.88023952,,,,,,,,,,,,,,,,,,,,,,184.5053,184.7107,184.7107,185.2209,,,,,,,,,,,,,,0.4944,1,,,,,,,,,,,,,,m,,,,,,,,,,,,,,,,35,1,185.2212,185.7231,m,1,0.4944,,[],[],[],[],[],[],[],185.7235,187.7237,187.7238,188.6421,[],[],[],[],[],[],[],m,188.6422,188.6422,-0.096592407,-0.402986857,0,0,0,,0,34,34,112,1,3,word,LIBERAL,print,liberal_p.png,0.9177,,,,,
,,,,28348,001,2025-10-16_10h38.39.242,HW_LDT_1,2024.2.4,MacIntel,59.88023952,,,,,,,,,,,,,,,,,,,,,,188.6428,188.8419,188.8419,189.342,,,,,,,,,,,,,,0.7053,1,,,,,,,,,,,,,,m,,,,,,,,,,,,,,,,36,0,189.3422,190.0566,m,1,0.7053,,[],[],[],[],[],[],[],190.0567,192.0585,192.0585,192.0588,[],[],[],[],[],[],[],,192.0588,192.059,-0.096592407,-0.402986857,0,0,0,,0,35,35,115,1,3,word,LOGICAL,cursive,logical_c.png,,,,,,
,,,,28348,001,2025-10-16_10h38.39.242,HW_LDT_1,2024.2.4,MacIntel,59.88023952,,,,,,,,,,,,,,,,,,,,,,192.0599,192.2583,192.2584,192.7581,,,,,,,,,,,,,,0.6556,0,,,,,,,,,,,,,,m,,,,,,,,,,,,,,,,37,0,192.7591,193.4259,z,0,0.6556,,[],[],[],[],[],[],[],193.426,195.4278,195.4278,195.428,[],[],[],[],[],[],[],,195.428,195.4281,-0.096592407,-0.402986857,0,0,0,,0,36,36,99,1,3,word,DEBATE,cursive,debate_c.png,,,,,,
,,,,28348,001,2025-10-16_10h38.39.242,HW_LDT_1,2024.2.4,MacIntel,59.88023952,,,,,,,,,,,,,,,,,,,,,,195.4288,195.6276,195.6278,196.1267,,,,,,,,,,,,,,0.7329,1,,,,,,,,,,,,,,z,,,,,,,,,,,,,,,,38,0,196.127,196.8605,z,1,0.7329,,[],[],[],[],[],[],[],196.8606,198.8603,198.8603,198.8604,[],[],[],[],[],[],[],,198.8604,198.8605,-0.096592407,-0.402986857,0,0,0,,0,37,37,12,1,3,RL,formuke,cursive,formuke_c.png,,,,,,
,,,,28348,001,2025-10-16_10h38.39.242,HW_LDT_1,2024.2.4,MacIntel,59.88023952,,,,,,,,,,,,,,,,,,,,,,198.8611,199.0602,199.0602,199.5611,,,,,,,,,,,,,,0.5322,1,,,,,,,,,,,,,,m,,,,,,,,,,,,,,,,39,0,199.5614,200.0942,m,1,0.5322,,[],[],[],[],[],[],[],200.0943,202.0937,202.0937,202.0938,[],[],[],[],[],[],[],,202.0938,202.0938,-0.096592407,-0.402986857,0,0,0,,0,38,38,104,1,3,word,DOMINANT,print,dominant_p.png,,,,,,
,,,,28348,001,2025-10-16_10h38.39.242,HW_LDT_1,2024.2.4,MacIntel,59.88023952,,,,,,,,,,,,,,,,,,,,,,202.0944,202.2945,202.2945,202.7939,,,,,,,,,,,,,,0.7395,1,,,,,,,,,,,,,,m,,,,,,,,,,,,,,,,40,0,202.7942,203.5396,m,1,0.7395,,[],[],[],[],[],[],[],203.5396,205.5438,205.5438,205.5439,[],[],[],[],[],[],[],,205.5439,205.544,-0.096592407,-0.402986857,0,0,0,,0,39,39,154,1,3,word,STORAGE,cursive,storage_c.png,,,,,,
,,,,28348,001,2025-10-16_10h38.39.242,HW_LDT_1,2024.2.4,MacIntel,59.88023952,,,,,,,,,,,,,,,,,,,,,,205.5446,205.7434,205.7434,206.2436,,,,,,,,,,,,,,0.8663,1,,,,,,,,,,,,,,z,,,,,,,,,,,,,,,,41,0,206.2438,207.1106,z,1,0.8663,,[],[],[],[],[],[],[],207.1107,209.111,209.111,209.1111,[],[],[],[],[],[],[],,209.1111,209.1113,-0.096592407,-0.402986857,0,0,0,,0,40,40,19,1,3,RL,opcifal,cursive,opcifal_c.png,,,,,,
,,,,28348,001,2025-10-16_10h38.39.242,HW_LDT_1,2024.2.4,MacIntel,59.88023952,,,,,,,,,,,,,,,,,,,,,,209.1118,209.3103,209.3103,209.8106,,,,,,,,,,,,,,0.9328,0,,,,,,,,,,,,,,z,,,,,,,,,,,,,,,,42,0,209.811,210.7442,m,0,0.9328,,[],[],[],[],[],[],[],210.7442,212.7442,212.7443,212.7444,[],[],[],[],[],[],[],,212.7444,212.7444,-0.096592407,-0.402986857,0,0,0,,0,41,41,36,1,3,TL,carema,cursive,carema_c.png,,,,,,
,,,,28348,001,2025-10-16_10h38.39.242,HW_LDT_1,2024.2.4,MacIntel,59.88023952,,,,,,,,,,,,,,,,,,,,,,212.745,212.9438,212.9438,213.4434,,,,,,,,,,,,,,0.642,1,,,,,,,,,,,,,,z,,,,,,,,,,,,,,,,43,0,213.4436,214.0905,z,1,0.642,,[],[],[],[],[],[],[],214.0906,216.0902,216.0903,216.0905,[],[],[],[],[],[],[],,216.0905,216.0906,-0.096592407,-0.402986857,0,0,0,,0,42,42,10,1,3,RL,efibor,print,efibor_p.png,,,,,,
,,,,28348,001,2025-10-16_10h38.39.242,HW_LDT_1,2024.2.4,MacIntel,59.88023952,,,,,,,,,,,,,,,,,,,,,,216.0927,216.2936,216.2936,216.7907,,,,,,,,,,,,,,0.6008,0,,,,,,,,,,,,,,z,,,,,,,,,,,,,,,,44,0,216.7915,217.3933,m,0,0.6008,,[],[],[],[],[],[],[],217.3933,219.3952,219.3952,219.3954,[],[],[],[],[],[],[],,219.3954,219.3954,-0.096592407,-0.402986857,0,0,0,,0,43,43,64,1,3,TL,radiply,print,radiply_p.png,,,,,,
,,,,28348,001,2025-10-16_10h38.39.242,HW_LDT_1,2024.2.4,MacIntel,59.88023952,,,,,,,,,,,,,,,,,,,,,,219.3962,219.5933,219.5933,220.0948,,,,,,,,,,,,,,0.6713,1,,,,,,,,,,,,,,z,,,,,,,,,,,,,,,,45,0,220.0951,220.7734,z,1,0.6713,,[],[],[],[],[],[],[],220.7737,222.7612,222.7612,222.7614,[],[],[],[],[],[],[],,222.7614,222.7614,-0.096592407,-0.402986857,0,0,0,,0,44,44,66,1,3,TL,retalive,cursive,retalive_c.png,,,,,,
,,,,28348,001,2025-10-16_10h38.39.242,HW_LDT_1,2024.2.4,MacIntel,59.88023952,,,,,,,,,,,,,,,,,,,,,,222.7622,222.9603,222.9603,223.4601,,,,,,,,,,,,,,0.6328,0,,,,,,,,,,,,,,m,,,,,,,,,,,,,,,,46,0,223.4603,224.0938,z,0,0.6328,,[],[],[],[],[],[],[],224.0938,226.0901,226.0902,226.0904,[],[],[],[],[],[],[],,226.0905,226.0906,-0.096592407,-0.402986857,0,0,0,,0,45,45,140,1,3,word,RELATIVE,cursive,relative_c.png,,,,,,
,,,,28348,001,2025-10-16_10h38.39.242,HW_LDT_1,2024.2.4,MacIntel,59.88023952,,,,,,,,,,,,,,,,,,,,,,226.0929,226.2931,226.2932,226.7927,,,,,,,,,,,,,,0.5335,0,,,,,,,,,,,,,,z,,,,,,,,,,,,,,,,47,0,226.7929,227.3268,m,0,0.5335,,[],[],[],[],[],[],[],227.3268,229.3253,229.3253,229.3255,[],[],[],[],[],[],[],,229.3255,229.3256,-0.096592407,-0.402986857,0,0,0,,0,46,46,35,1,3,TL,cateferia,print,cateferia_p.png,,,,,,
,,,,28348,001,2025-10-16_10h38.39.242,HW_LDT_1,2024.2.4,MacIntel,59.88023952,,,,,,,,,,,,,,,,,,,,,,229.3263,229.5252,229.5253,230.0263,,,,,,,,,,,,,,0.7989,1,,,,,,,,,,,,,,m,,,,,,,,,,,,,,,,48,0,230.0266,230.8263,m,1,0.7989,,[],[],[],[],[],[],[],230.8264,232.8257,232.8257,232.8258,[],[],[],[],[],[],[],,232.8259,232.8259,-0.096592407,-0.402986857,0,0,0,,0,47,47,91,1,3,word,CARDINAL,print,cardinal_p.png,,,,,,
,,,,28348,001,2025-10-16_10h38.39.242,HW_LDT_1,2024.2.4,MacIntel,59.88023952,,,,,,,,,,,,,,,,,,,,,,232.8267,233.0259,233.026,233.5261,,,,,,,,,,,,,,1.2075,1,,,,,,,,,,,,,,m,,,,,,,,,,,,,,,,49,0,233.5264,234.7395,m,1,1.2075,,[],[],[],[],[],[],[],234.7396,236.74,236.7401,236.7403,[],[],[],[],[],[],[],,236.7403,236.7404,-0.096592407,-0.402986857,0,0,0,,0,48,48,144,1,3,word,RESIDENT,cursive,resident_c.png,,,,,,
,,,,28348,001,2025-10-16_10h38.39.242,HW_LDT_1,2024.2.4,MacIntel,59.88023952,,,,,,,,,,,,,,,,,,,,,,236.7429,236.9402,236.9402,237.4399,,,,,,,,,,,,,,0.8954,0,,,,,,,,,,,,,,m,,,,,,,,,,,,,,,,50,0,237.4407,238.3371,z,0,0.8954,,[],[],[],[],[],[],[],238.3371,240.3252,240.3252,240.3253,[],[],[],[],[],[],[],,240.3254,240.3254,-0.096829698,-0.402986857,0,0,0,,0,49,49,126,1,3,word,OPTIMAL,cursive,optimal_c.png,,,,,,
,,,,28348,001,2025-10-16_10h38.39.242,HW_LDT_1,2024.2.4,MacIntel,59.88023952,,,,,,,,,,,,,,,,,,,,,,240.3261,240.5247,240.5247,241.0249,,,,,,,,,,,,,,0.5057,1,,,,,,,,,,,,,,m,,,,,,,,,,,,,,,,51,0,241.0253,241.5403,m,1,0.5057,,[],[],[],[],[],[],[],241.5404,243.5405,243.5406,243.541,[],[],[],[],[],[],[],,243.541,243.5411,-0.096829698,-0.402986857,0,0,0,,0,50,50,131,1,3,word,POPULAR,print,popular_p.png,,,,,,
,,,,28348,001,2025-10-16_10h38.39.242,HW_LDT_1,2024.2.4,MacIntel,59.88023952,,,,,,,,,,,,,,,,,,,,,,243.5426,243.7394,243.7395,244.2393,,,,,,,,,,,,,,0.867,1,,,,,,,,,,,,,,m,,,,,,,,,,,,,,,,52,0,244.2401,245.108,m,1,0.867,,[],[],[],[],[],[],[],245.108,247.1065,247.1066,247.1069,[],[],[],[],[],[],[],,247.1069,247.107,-0.096829698,-0.402986857,0,0,0,,0,51,51,145,1,3,word,RESUME,cursive,resume_c.png,,,,,,
,,,,28348,001,2025-10-16_10h38.39.242,HW_LDT_1,2024.2.4,MacIntel,59.88023952,,,,,,,,,,,,,,,,,,,,,,247.1089,247.295,247.295,247.8086,,,,,,,,,,,,,,0.9772,1,,,,,,,,,,,,,,z,,,,,,,,,,,,,,,,53,0,247.8093,248.7881,z,1,0.9772,,[],[],[],[],[],[],[],248.7881,250.7775,250.7775,250.7776,[],[],[],[],[],[],[],,250.7776,250.7776,-0.096829698,-0.402986857,0,0,0,,0,52,52,0,1,3,RL,afaneur,print,afaneur_p.png,,,,,,
,,,,28348,001,2025-10-16_10h38.39.242,HW_LDT_1,2024.2.4,MacIntel,59.88023952,,,,,,,,,,,,,,,,,,,,,,250.7781,250.9705,250.9705,251.4733,,,,,,,,,,,,,,0.6063,1,,,,,,,,,,,,,,m,,,,,,,,,,,,,,,,54,1,251.474,252.0899,m,1,0.6063,,[],[],[],[],[],[],[],252.09,254.0896,254.0897,256.9755,[],[],[],[],[],[],[],z,256.9755,256.9756,-0.096829698,-0.402986857,0,0,0,,0,53,53,146,1,3,word,RETIRE,print,retire_p.png,2.8852,,,,,
,,,,28348,001,2025-10-16_10h38.39.242,HW_LDT_1,2024.2.4,MacIntel,59.88023952,,,,,,,,,,,,,,,,,,,,,,256.9762,257.19,257.1901,257.6745,,,,,,,,,,,,,,0.8988,1,,,,,,,,,,,,,,m,,,,,,,,,,,,,,,,55,0,257.6748,258.5739,m,1,0.8988,,[],[],[],[],[],[],[],258.5739,260.5748,260.5748,260.5748,[],[],[],[],[],[],[],,260.5749,260.575,-0.096829698,-0.402986857,0,0,0,,0,54,54,82,1,3,word,AMATEUR,print,amateur_p.png,,,,,,
,,,,28348,001,2025-10-16_10h38.39.242,HW_LDT_1,2024.2.4,MacIntel,59.88023952,,,,,,,,,,,,,,,,,,,,,,260.5757,260.7757,260.7757,261.2751,,,,,,,,,,,,,,0.6088,1,,,,,,,,,,,,,,z,,,,,,,,,,,,,,,,56,0,261.2754,261.8898,z,1,0.6088,,[],[],[],[],[],[],[],261.8899,263.8934,263.8935,263.8936,[],[],[],[],[],[],[],,263.8936,263.8936,-0.096829698,-0.402986857,0,0,0,,0,55,55,3,1,3,RL,bebine,cursive,bebine_c.png,,,,,,
,,,,28348,001,2025-10-16_10h38.39.242,HW_LDT_1,2024.2.4,MacIntel,59.88023952,,,,,,,,,,,,,,,,,,,,,,263.8943,264.0934,264.0934,264.5937,,,,,,,,,,,,,,0.8812,1,,,,,,,,,,,,,,z,,,,,,,,,,,,,,,,57,1,264.5939,265.4758,z,1,0.8812,,[],[],[],[],[],[],[],265.4758,267.4753,267.4753,268.7423,[],[],[],[],[],[],[],z,268.7423,268.7424,-0.096829698,-0.402986857,0,0,0,,0,56,56,43,1,3,TL,dedace,cursive,dedace_c.png,1.2665,,,,,
,,,,28348,001,2025-10-16_10h38.39.242,HW_LDT_1,2024.2.4,MacIntel,59.88023952,,,,,,,,,,,,,,,,,,,,,,268.743,268.9416,268.9416,269.4418,,,,,,,,,,,,,,0.6672,1,,,,,,,,,,,,,,z,,,,,,,,,,,,,,,,58,0,269.442,270.1098,z,1,0.6672,,[],[],[],[],[],[],[],270.1098,272.1092,272.1092,272.1094,[],[],[],[],[],[],[],,272.1094,272.1094,-0.096829698,-0.402986857,0,0,0,,0,57,57,31,1,3,RL,trilude,print,trilude_p.png,,,,,,
,,,,28348,001,2025-10-16_10h38.39.242,HW_LDT_1,2024.2.4,MacIntel,59.88023952,,,,,,,,,,,,,,,,,,,,,,272.1101,272.3099,272.3099,272.8098,,,,,,,,,,,,,,0.6991,1,,,,,,,,,,,,,,z,,,,,,,,,,,,,,,,59,0,272.81,273.5096,z,1,0.6991,,[],[],[],[],[],[],[],273.5096,275.506,275.5062,275.5064,[],[],[],[],[],[],[],,275.5065,275.5066,-0.096829698,-0.402986857,0,0,0,,0,58,58,67,1,3,TL,retome,print,retome_p.png,,,,,,
,,,,28348,001,2025-10-16_10h38.39.242,HW_LDT_1,2024.2.4,MacIntel,59.88023952,,,,,,,,,,,,,,,,,,,,,,275.5082,275.7211,275.7211,276.2059,,,,,,,,,,,,,,1.1082,1,,,,,,,,,,,,,,m,,,,,,,,,,,,,,,,60,0,276.2067,277.3225,m,1,1.1082,,[],[],[],[],[],[],[],277.3226,279.3225,279.3227,279.3229,[],[],[],[],[],[],[],,279.323,279.3231,-0.096829698,-0.402986857,0,0,0,,0,59,59,107,1,3,word,EVIDENT,cursive,evident_c.png,,,,,,
,,,,28348,001,2025-10-16_10h38.39.242,HW_LDT_1,2024.2.4,MacIntel,59.88023952,,,,,,,,,,,,,,,,,,,,,,279.325,279.5255,279.5255,280.0249,,,,,,,,,,,,,,0.7767,0,,,,,,,,,,,,,,z,,,,,,,,,,,,,,,,61,0,280.0251,280.8054,m,0,0.7767,,[],[],[],[],[],[],[],280.8054,282.806,282.8061,282.8063,[],[],[],[],[],[],[],,282.8063,282.8065,-0.096829698,-0.402986857,0,0,0,,0,60,60,77,1,3,TL,vadility,cursive,vadility_c.png,,,,,,
,,,,28348,001,2025-10-16_10h38.39.242,HW_LDT_1,2024.2.4,MacIntel,59.88023952,,,,,,,,,,,,,,,,,,,,,,282.8084,283.0094,283.0094,283.5062,,,,,,,,,,,,,,0.6684,0,,,,,,,,,,,,,,z,,,,,,,,,,,,,,,,62,0,283.507,284.176,m,0,0.6684,,[],[],[],[],[],[],[],284.1761,286.1725,286.1725,286.1727,[],[],[],[],[],[],[],,286.1728,286.1729,-0.096829698,-0.402986857,0,0,0,,0,61,61,40,1,3,TL,condiser,print,condiser_p.png,,,,,,
,,,,28348,001,2025-10-16_10h38.39.242,HW_LDT_1,2024.2.4,MacIntel,59.88023952,,,,,,,,,,,,,,,,,,,,,,286.1747,286.3751,286.3751,286.875,,,,,,,,,,,,,,0.6664,1,,,,,,,,,,,,,,z,,,,,,,,,,,,,,,,63,1,286.8752,287.5423,z,1,0.6664,,[],[],[],[],[],[],[],287.5423,289.5392,289.5393,290.4247,[],[],[],[],[],[],[],z,290.4247,290.4247,-0.096829698,-0.402986857,0,0,0,,0,62,62,54,1,3,TL,manire,cursive,manire_c.png,0.8847,,,,,
,,,,28348,001,2025-10-16_10h38.39.242,HW_LDT_1,2024.2.4,MacIntel,59.88023952,,,,,,,,,,,,,,,,,,,,,,290.4253,290.6252,290.6252,291.1248,,,,,,,,,,,,,,1.7309,0,,,,,,,,,,,,,,m,,,,,,,,,,,,,,,,64,0,291.1251,292.8565,z,0,1.7309,,[],[],[],[],[],[],[],292.8565,294.8583,294.8583,294.8584,[],[],[],[],[],[],[],,294.8584,294.8584,-0.096829698,-0.402986857,0,0,0,,0,63,63,153,1,3,word,STOLEN,cursive,stolen_c.png,,,,,,
,,,,28348,001,2025-10-16_10h38.39.242,HW_LDT_1,2024.2.4,MacIntel,59.88023952,,,,,,,,,,,,,,,,,,,,,,294.859,295.0581,295.0581,295.5578,,,,,,,,,,,,,,0.9104,1,,,,,,,,,,,,,,m,,,,,,,,,,,,,,,,65,0,295.558,296.4721,m,1,0.9104,,[],[],[],[],[],[],[],296.4722,298.4603,298.4604,298.4604,[],[],[],[],[],[],[],,298.4604,298.4605,-0.096829698,-0.402986857,0,0,0,,0,64,64,118,1,3,word,MEDICINE,print,medicine_p.png,,,,,,
,,,,28348,001,2025-10-16_10h38.39.242,HW_LDT_1,2024.2.4,MacIntel,59.88023952,,,,,,,,,,,,,,,,,,,,,,298.4611,298.6549,298.6549,299.1557,,,,,,,,,,,,,,0.8685,1,,,,,,,,,,,,,,z,,,,,,,,,,,,,,,,66,0,299.1565,300.0258,z,1,0.8685,,[],[],[],[],[],[],[],300.0259,302.0259,302.0259,302.0259,[],[],[],[],[],[],[],,302.026,302.0261,-0.096829698,-0.402986857,0,0,0,,0,65,65,28,1,3,RL,rovastic,cursive,rovastic_c.png,,,,,,
,,,,28348,001,2025-10-16_10h38.39.242,HW_LDT_1,2024.2.4,MacIntel,59.88023952,,,,,,,,,,,,,,,,,,,,,,302.0269,302.226,302.2261,302.7258,,,,,,,,,,,,,,1.1097,0,,,,,,,,,,,,,,m,,,,,,,,,,,,,,,,67,1,302.7261,303.8388,z,0,1.1097,,[],[],[],[],[],[],[],303.8389,305.8381,305.8382,306.3926,[],[],[],[],[],[],[],z,306.3926,306.3927,-0.096829698,-0.402986857,0,0,0,,0,66,66,149,1,3,word,SENATOR,cursive,senator_c.png,0.5539,,,,,
,,,,28348,001,2025-10-16_10h38.39.242,HW_LDT_1,2024.2.4,MacIntel,59.88023952,,,,,,,,,,,,,,,,,,,,,,306.3932,306.5867,306.5868,307.0867,,,,,,,,,,,,,,0.8524,0,,,,,,,,,,,,,,m,,,,,,,,,,,,,,,,68,0,307.0875,307.9405,z,0,0.8524,,[],[],[],[],[],[],[],307.9405,309.9409,309.941,309.941,[],[],[],[],[],[],[],,309.9411,309.9411,-0.096829698,-0.402986857,0,0,0,,0,67,67,114,1,3,word,LOCATE,cursive,locate_c.png,,,,,,
,,,,28348,001,2025-10-16_10h38.39.242,HW_LDT_1,2024.2.4,MacIntel,59.88023952,,,,,,,,,,,,,,,,,,,,,,309.9418,310.1406,310.1407,310.6404,,,,,,,,,,,,,,0.8672,0,,,,,,,,,,,,,,m,,,,,,,,,,,,,,,,69,0,310.6406,311.5081,z,0,0.8672,,[],[],[],[],[],[],[],311.5082,313.5072,313.5072,313.5072,[],[],[],[],[],[],[],,313.5072,313.5073,-0.096829698,-0.402986857,0,0,0,,0,68,68,110,1,3,word,HERITAGE,cursive,heritage_c.png,,,,,,
,,,,28348,001,2025-10-16_10h38.39.242,HW_LDT_1,2024.2.4,MacIntel,59.88023952,,,,,,,,,,,,,,,,,,,,,,313.5086,313.7067,313.7068,314.2074,,,,,,,,,,,,,,0.605,0,,,,,,,,,,,,,,m,,,,,,,,,,,,,,,,70,0,314.2076,314.8221,z,0,0.605,,[],[],[],[],[],[],[],314.8223,316.8227,316.8229,316.8231,[],[],[],[],[],[],[],,316.8232,316.8233,-0.096829698,-0.402986857,0,0,0,,0,69,69,92,1,3,word,CATEGORY,cursive,category_c.png,,,,,,
,,,,28348,001,2025-10-16_10h38.39.242,HW_LDT_1,2024.2.4,MacIntel,59.88023952,,,,,,,,,,,,,,,,,,,,,,316.825,317.0249,317.0249,317.5245,,,,,,,,,,,,,,1.1659,1,,,,,,,,,,,,,,z,,,,,,,,,,,,,,,,71,0,317.5247,318.6912,z,1,1.1659,,[],[],[],[],[],[],[],318.6912,320.6897,320.6897,320.6898,[],[],[],[],[],[],[],,320.6899,320.6899,-0.096829698,-0.402986857,0,0,0,,0,70,70,6,1,3,RL,cenesony,cursive,cenesony_c.png,,,,,,
,,,,28348,001,2025-10-16_10h38.39.242,HW_LDT_1,2024.2.4,MacIntel,59.88023952,,,,,,,,,,,,,,,,,,,,,,320.6905,320.8918,320.8918,321.3911,,,,,,,,,,,,,,0.6061,1,,,,,,,,,,,,,,m,,,,,,,,,,,,,,,,72,1,321.3914,322.0072,m,1,0.6061,,[],[],[],[],[],[],[],322.0072,324.0052,324.0053,324.8704,[],[],[],[],[],[],[],z,324.8705,324.8706,-0.096829698,-0.402986857,0,0,0,,0,71,71,156,1,3,word,TRIBUTE,print,tribute_p.png,0.8643,,,,,
,,,,28348,001,2025-10-16_10h38.39.242,HW_LDT_1,2024.2.4,MacIntel,59.88023952,,,,,,,,,,,,,,,,,,,,,,324.8714,325.0762,325.0762,325.5599,,,,,,,,,,,,,,0.7221,1,,,,,,,,,,,,,,m,,,,,,,,,,,,,,,,73,1,325.5602,326.2902,m,1,0.7221,,[],[],[],[],[],[],[],326.2904,328.2852,328.2853,328.888,[],[],[],[],[],[],[],z,328.8881,328.8881,-0.096829698,-0.402986857,0,0,0,,0,72,72,97,1,3,word,COVERAGE,print,coverage_p.png,0.6017,,,,,
,,,,28348,001,2025-10-16_10h38.39.242,HW_LDT_1,2024.2.4,MacIntel,59.88023952,,,,,,,,,,,,,,,,,,,,,,328.8889,329.0764,329.0764,329.6029,,,,,,,,,,,,,,0.6553,1,,,,,,,,,,,,,,z,,,,,,,,,,,,,,,,74,0,329.6032,330.2592,z,1,0.6553,,[],[],[],[],[],[],[],330.2592,332.255,332.2551,332.2553,[],[],[],[],[],[],[],,332.2553,332.2555,-0.096829698,-0.402986857,0,0,0,,0,73,73,30,1,3,RL,strapely,print,strapely_p.png,,,,,,
,,,,28348,001,2025-10-16_10h38.39.242,HW_LDT_1,2024.2.4,MacIntel,59.88023952,,,,,,,,,,,,,,,,,,,,,,332.2573,332.459,332.459,332.9589,,,,,,,,,,,,,,0.6052,1,,,,,,,,,,,,,,m,,,,,,,,,,,,,,,,75,0,332.9591,333.5719,m,1,0.6052,,[],[],[],[],[],[],[],333.5721,335.5717,335.5718,335.5721,[],[],[],[],[],[],[],,335.5722,335.5723,-0.096829698,-0.402986857,0,0,0,,0,74,74,142,1,3,word,REMOTE,print,remote_p.png,,,,,,
,,,,28348,001,2025-10-16_10h38.39.242,HW_LDT_1,2024.2.4,MacIntel,59.88023952,,,,,,,,,,,,,,,,,,,,,,335.5739,335.7721,335.7721,336.2712,,,,,,,,,,,,,,0.6365,0,,,,,,,,,,,,,,m,,,,,,,,,,,,,,,,76,0,336.2715,336.9085,z,0,0.6365,,[],[],[],[],[],[],[],336.9086,338.908,338.908,338.9081,[],[],[],[],[],[],[],,338.9081,338.9081,-0.096829698,-0.402986857,0,0,0,,0,75,75,116,1,3,word,MARGINAL,print,marginal_p.png,,,,,,
,,,,28348,001,2025-10-16_10h38.39.242,HW_LDT_1,2024.2.4,MacIntel,59.88023952,,,,,,,,,,,,,,,,,,,,,,338.9087,339.1089,339.1089,339.6091,,,,,,,,,,,,,,0.6544,1,,,,,,,,,,,,,,m,,,,,,,,,,,,,,,,77,0,339.6093,340.2717,m,1,0.6544,,[],[],[],[],[],[],[],340.2717,342.2716,342.2716,342.2718,[],[],[],[],[],[],[],,342.2719,342.2721,-0.096829698,-0.402986857,0,0,0,,0,76,76,103,1,3,word,DISPUTE,print,dispute_p.png,,,,,,
,,,,28348,001,2025-10-16_10h38.39.242,HW_LDT_1,2024.2.4,MacIntel,59.88023952,,,,,,,,,,,,,,,,,,,,,,342.2743,342.475,342.4751,342.9742,,,,,,,,,,,,,,0.6001,1,,,,,,,,,,,,,,m,,,,,,,,,,,,,,,,78,1,342.9744,343.5752,m,1,0.6001,,[],[],[],[],[],[],[],343.5752,345.5753,345.5753,346.4754,[],[],[],[],[],[],[],m,346.4755,346.4755,-0.096829698,-0.402986857,0,0,0,,0,77,77,80,1,3,word,ACADEMY,print,academy_p.png,0.8996,,,,,
,,,,28348,001,2025-10-16_10h38.39.242,HW_LDT_1,2024.2.4,MacIntel,59.88023952,,,,,,,,,,,,,,,,,,,,,,346.4761,346.6752,346.6753,347.1857,,,,,,,,,,,,,,0.879,1,,,,,,,,,,,,,,z,,,,,,,,,,,,,,,,79,1,347.186,348.0714,z,1,0.879,,[],[],[],[],[],[],[],348.0716,350.0723,350.0723,351.2224,[],[],[],[],[],[],[],z,351.2224,351.2226,-0.096829698,-0.402986857,0,0,0,,0,78,78,4,1,3,RL,cafigal,cursive,cafigal_c.png,1.1417,,,,,
,,,,28348,001,2025-10-16_10h38.39.242,HW_LDT_1,2024.2.4,MacIntel,59.88023952,,,,,,,,,,,,,,,,,,,,,,351.2243,351.4248,351.4248,351.9257,,,,,,,,,,,,,,1.3058,0,,,,,,,,,,,,,,m,,,,,,,,,,,,,,,,80,1,351.926,353.2385,z,0,1.3058,,[],[],[],[],[],[],[],353.2386,355.2408,355.2408,355.7419,[],[],[],[],[],[],[],z,355.7419,357.7885,-0.097067057,-0.402228597,0,0,0,space,0,79,79,121,1,3,word,MISTAKE,cursive,mistake_c.png,0.5003,,2.0082,,,
,,,,28348,001,2025-10-16_10h38.39.242,HW_LDT_1,2024.2.4,MacIntel,59.88023952,,,,,,,,,,,,,,,,,,,,,,357.7908,357.9914,357.9915,358.4877,,,,,,,,,,,,,,0.7351,1,,,,,,,,,,,,,,m,,,,,,,,,,,,,,,,81,0,358.4884,359.2243,m,1,0.7351,,[],[],[],[],[],[],[],359.2244,361.2253,361.2253,361.2254,[],[],[],[],[],[],[],,361.2254,361.2254,-0.097067057,-0.402228597,0,0,0,,0,80,80,152,1,3,word,SPECIMEN,print,specimen_p.png,,,,,,
,,,,28348,001,2025-10-16_10h38.39.242,HW_LDT_1,2024.2.4,MacIntel,59.88023952,,,,,,,,,,,,,,,,,,,,,,361.2261,361.4247,361.4248,361.9253,,,,,,,,,,,,,,0.7053,0,,,,,,,,,,,,,,m,,,,,,,,,,,,,,,,82,0,361.9256,362.6378,z,0,0.7053,,[],[],[],[],[],[],[],362.6379,364.6255,364.6255,364.6256,[],[],[],[],[],[],[],,364.6256,364.6257,-0.097067057,-0.402228597,0,0,0,,0,81,81,108,1,3,word,FORTUNE,cursive,fortune_c.png,,,,,,
,,,,28348,001,2025-10-16_10h38.39.242,HW_LDT_1,2024.2.4,MacIntel,59.88023952,,,,,,,,,,,,,,,,,,,,,,364.6264,364.8251,364.8251,365.325,,,,,,,,,,,,,,0.8403,1,,,,,,,,,,,,,,z,,,,,,,,,,,,,,,,83,1,365.3253,366.1707,z,1,0.8403,,[],[],[],[],[],[],[],366.1707,368.1768,368.1768,368.7548,[],[],[],[],[],[],[],z,368.7549,368.7551,-0.097304416,-0.402467448,0,0,0,,0,82,82,5,1,3,RL,capefory,cursive,capefory_c.png,0.5717,,,,,
,,,,28348,001,2025-10-16_10h38.39.242,HW_LDT_1,2024.2.4,MacIntel,59.88023952,,,,,,,,,,,,,,,,,,,,,,368.7571,368.9587,368.9587,369.458,,,,,,,,,,,,,,1.0385,1,,,,,,,,,,,,,,z,,,,,,,,,,,,,,,,84,0,369.4582,370.5043,z,1,1.0385,,[],[],[],[],[],[],[],370.5048,372.505,372.5052,372.5053,[],[],[],[],[],[],[],,372.5054,372.5055,-0.097304416,-0.402467448,0,0,0,,0,83,83,37,1,3,TL,cacapity,cursive,cacapity_c.png,,,,,,
,,,,28348,001,2025-10-16_10h38.39.242,HW_LDT_1,2024.2.4,MacIntel,59.88023952,,,,,,,,,,,,,,,,,,,,,,372.5071,372.709,372.709,373.208,,,,,,,,,,,,,,0.799,1,,,,,,,,,,,,,,z,,,,,,,,,,,,,,,,85,0,373.2083,374.0077,z,1,0.799,,[],[],[],[],[],[],[],374.0078,376.008,376.008,376.0081,[],[],[],[],[],[],[],,376.0081,376.0081,-0.097304416,-0.402467448,0,0,0,,0,84,84,20,1,3,RL,orimipal,cursive,orimipal_c.png,,,,,,
,,,,28348,001,2025-10-16_10h38.39.242,HW_LDT_1,2024.2.4,MacIntel,59.88023952,,,,,,,,,,,,,,,,,,,,,,376.0086,376.2084,376.2084,376.7088,,,,,,,,,,,,,,0.9546,0,,,,,,,,,,,,,,m,,,,,,,,,,,,,,,,86,0,376.7091,377.6712,z,0,0.9546,,[],[],[],[],[],[],[],377.6715,379.6711,379.6711,379.6714,[],[],[],[],[],[],[],,379.6714,379.6716,-0.097304416,-0.402467448,0,0,0,,0,85,85,89,1,3,word,CAPACITY,cursive,capacity_c.png,,,,,,
,,,,28348,001,2025-10-16_10h38.39.242,HW_LDT_1,2024.2.4,MacIntel,59.88023952,,,,,,,,,,,,,,,,,,,,,,379.6734,379.874,379.8741,380.3742,,,,,,,,,,,,,,0.7339,1,,,,,,,,,,,,,,m,,,,,,,,,,,,,,,,87,0,380.3745,381.1089,m,1,0.7339,,[],[],[],[],[],[],[],381.1089,383.1083,383.1083,383.1084,[],[],[],[],[],[],[],,383.1084,383.1085,-0.097304416,-0.402467448,0,0,0,,0,86,86,93,1,3,word,CEREMONY,cursive,ceremony_c.png,,,,,,
,,,,28348,001,2025-10-16_10h38.39.242,HW_LDT_1,2024.2.4,MacIntel,59.88023952,,,,,,,,,,,,,,,,,,,,,,383.1092,383.3049,383.305,383.8048,,,,,,,,,,,,,,1.1674,1,,,,,,,,,,,,,,z,,,,,,,,,,,,,,,,88,0,383.8056,384.9737,z,1,1.1674,,[],[],[],[],[],[],[],384.9737,386.9735,386.9735,386.9736,[],[],[],[],[],[],[],,386.9736,386.9736,-0.097304416,-0.402467448,0,0,0,,0,87,87,45,1,3,TL,dentisy,print,dentisy_p.png,,,,,,
,,,,28348,001,2025-10-16_10h38.39.242,HW_LDT_1,2024.2.4,MacIntel,59.88023952,,,,,,,,,,,,,,,,,,,,,,386.9742,387.1736,387.1736,387.6733,,,,,,,,,,,,,,0.8668,1,,,,,,,,,,,,,,m,,,,,,,,,,,,,,,,89,0,387.6736,388.5407,m,1,0.8668,,[],[],[],[],[],[],[],388.5407,390.5409,390.541,390.5411,[],[],[],[],[],[],[],,390.5411,390.5412,-0.097304416,-0.402467448,0,0,0,,0,88,88,132,1,3,word,PROPOSAL,print,proposal_p.png,,,,,,
,,,,28348,001,2025-10-16_10h38.39.242,HW_LDT_1,2024.2.4,MacIntel,59.88023952,,,,,,,,,,,,,,,,,,,,,,390.5418,390.7407,390.7407,391.241,,,,,,,,,,,,,,1.4995,0,,,,,,,,,,,,,,z,,,,,,,,,,,,,,,,90,1,391.2413,392.7411,m,0,1.4995,,[],[],[],[],[],[],[],392.7412,394.7414,394.7414,395.7541,[],[],[],[],[],[],[],z,395.7542,395.7543,-0.097304416,-0.402467448,0,0,0,,0,89,89,78,1,3,TL,vecolity,cursive,vecolity_c.png,1.0112,,,,,
,,,,28348,001,2025-10-16_10h38.39.242,HW_LDT_1,2024.2.4,MacIntel,59.88023952,,,,,,,,,,,,,,,,,,,,,,395.7562,395.9588,395.9589,396.4579,,,,,,,,,,,,,,0.8987,1,,,,,,,,,,,,,,z,,,,,,,,,,,,,,,,91,0,396.4582,397.3572,z,1,0.8987,,[],[],[],[],[],[],[],397.3572,399.3579,399.358,399.358,[],[],[],[],[],[],[],,399.358,399.3581,-0.097304416,-0.402467448,0,0,0,,0,90,90,61,1,3,TL,pocily,print,pocily_p.png,,,,,,
,,,,28348,001,2025-10-16_10h38.39.242,HW_LDT_1,2024.2.4,MacIntel,59.88023952,,,,,,,,,,,,,,,,,,,,,,399.3587,399.5585,399.5585,400.0588,,,,,,,,,,,,,,0.6316,1,,,,,,,,,,,,,,z,,,,,,,,,,,,,,,,92,0,400.0591,400.6916,z,1,0.6316,,[],[],[],[],[],[],[],400.6917,402.6912,402.6912,402.6913,[],[],[],[],[],[],[],,402.6913,402.6914,-0.097304416,-0.402467448,0,0,0,,0,91,91,2,1,3,RL,betemit,print,betemit_p.png,,,,,,
,,,,28348,001,2025-10-16_10h38.39.242,HW_LDT_1,2024.2.4,MacIntel,59.88023952,,,,,,,,,,,,,,,,,,,,,,402.6919,402.8914,402.8915,403.3912,,,,,,,,,,,,,,0.6428,1,,,,,,,,,,,,,,z,,,,,,,,,,,,,,,,93,0,403.3914,404.0379,z,1,0.6428,,[],[],[],[],[],[],[],404.038,406.0374,406.0375,406.0377,[],[],[],[],[],[],[],,406.0378,406.0379,-0.097304416,-0.402467448,0,0,0,,0,92,92,42,1,3,TL,detabe,cursive,detabe_c.png,,,,,,
,,,,28348,001,2025-10-16_10h38.39.242,HW_LDT_1,2024.2.4,MacIntel,59.88023952,,,,,,,,,,,,,,,,,,,,,,406.04,406.2403,406.2403,406.7403,,,,,,,,,,,,,,0.6655,1,,,,,,,,,,,,,,m,,,,,,,,,,,,,,,,94,1,406.7406,407.4068,m,1,0.6655,,[],[],[],[],[],[],[],407.4068,409.4068,409.4068,411.2065,[],[],[],[],[],[],[],m,411.2066,411.2066,-0.097304416,-0.402467448,0,0,0,,0,93,93,134,1,3,word,QUALIFY,print,qualify_p.png,1.7989,,,,,
,,,,28348,001,2025-10-16_10h38.39.242,HW_LDT_1,2024.2.4,MacIntel,59.88023952,,,,,,,,,,,,,,,,,,,,,,411.2072,411.4066,411.4066,411.9066,,,,,,,,,,,,,,1.733,1,,,,,,,,,,,,,,m,,,,,,,,,,,,,,,,95,0,411.9069,413.6405,m,1,1.733,,[],[],[],[],[],[],[],413.6405,415.6386,415.6387,415.639,[],[],[],[],[],[],[],,415.639,415.6391,-0.097304416,-0.402467448,0,0,0,,0,94,94,81,1,3,word,ADVISORY,print,advisory_p.png,,,,,,
,,,,28348,001,2025-10-16_10h38.39.242,HW_LDT_1,2024.2.4,MacIntel,59.88023952,,,,,,,,,,,,,,,,,,,,,,415.6403,415.8375,415.8375,416.3376,,,,,,,,,,,,,,0.7378,1,,,,,,,,,,,,,,m,,,,,,,,,,,,,,,,96,0,416.3384,417.0771,m,1,0.7378,,[],[],[],[],[],[],[],417.0771,419.071,419.0711,419.0714,[],[],[],[],[],[],[],,419.0714,419.0715,-0.097304416,-0.402467448,0,0,0,,0,95,95,96,1,3,word,CONSIDER,print,consider_p.png,,,,,,
,,,,28348,001,2025-10-16_10h38.39.242,HW_LDT_1,2024.2.4,MacIntel,59.88023952,,,,,,,,,,,,,,,,,,,,,,419.0733,419.2721,419.2721,419.7732,,,,,,,,,,,,,,0.6387,1,,,,,,,,,,,,,,z,,,,,,,,,,,,,,,,97,0,419.7735,420.4201,z,1,0.6387,,[],[],[],[],[],[],[],420.4201,422.4209,422.421,422.4212,[],[],[],[],[],[],[],,422.4213,422.4214,-0.097304416,-0.402230089,0,0,0,,0,96,96,22,1,3,RL,procogal,print,procogal_p.png,,,,,,
,,,,28348,001,2025-10-16_10h38.39.242,HW_LDT_1,2024.2.4,MacIntel,59.88023952,,,,,,,,,,,,,,,,,,,,,,422.4234,422.6232,422.6232,423.1232,,,,,,,,,,,,,,0.8336,1,,,,,,,,,,,,,,z,,,,,,,,,,,,,,,,98,1,423.1236,423.958,z,1,0.8336,,[],[],[],[],[],[],[],423.958,425.9577,425.9577,426.6911,[],[],[],[],[],[],[],z,426.6911,426.6913,-0.097304416,-0.402230089,0,0,0,,0,97,97,16,1,3,RL,mishafe,cursive,mishafe_c.png,0.733,,,,,
,,,,28348,001,2025-10-16_10h38.39.242,HW_LDT_1,2024.2.4,MacIntel,59.88023952,,,,,,,,,,,,,,,,,,,,,,426.6918,426.8911,426.8911,427.3912,,,,,,,,,,,,,,1.5226,1,,,,,,,,,,,,,,z,,,,,,,,,,,,,,,,99,0,427.3914,428.9209,z,1,1.5226,,[],[],[],[],[],[],[],428.9211,430.9239,430.9239,430.924,[],[],[],[],[],[],[],,430.924,430.924,-0.097304416,-0.402230089,0,0,0,,0,98,98,47,1,3,TL,elarobate,print,elarobate_p.png,,,,,,
,,,,28348,001,2025-10-16_10h38.39.242,HW_LDT_1,2024.2.4,MacIntel,59.88023952,,,,,,,,,,,,,,,,,,,,,,430.9247,431.1205,431.1206,431.6197,,,,,,,,,,,,,,1.0356,1,,,,,,,,,,,,,,z,,,,,,,,,,,,,,,,100,1,431.6209,432.6573,z,1,1.0356,,[],[],[],[],[],[],[],432.6574,434.6578,434.6578,435.1733,[],[],[],[],[],[],[],z,435.1733,435.1734,-0.097304416,-0.402230089,0,0,0,,0,99,99,39,1,3,TL,clicinal,print,clicinal_p.png,0.5148,,,,,
,,,,28348,001,2025-10-16_10h38.39.242,HW_LDT_1,2024.2.4,MacIntel,59.88023952,,,,,,,,,,,,,,,,,,,,,,435.1739,435.3734,435.3734,435.8736,,,,,,,,,,,,,,0.8985,0,,,,,,,,,,,,,,m,,,,,,,,,,,,,,,,101,1,435.8739,436.7731,z,0,0.8985,,[],[],[],[],[],[],[],436.7731,438.7728,438.7728,439.2866,[],[],[],[],[],[],[],z,439.2866,439.2866,-0.097304416,-0.402230089,0,0,0,,0,100,100,120,1,3,word,MILITARY,cursive,military_c.png,0.5064,,,,,
,,,,28348,001,2025-10-16_10h38.39.242,HW_LDT_1,2024.2.4,MacIntel,59.88023952,,,,,,,,,,,,,,,,,,,,,,439.2885,439.4874,439.4874,439.987,,,,,,,,,,,,,,1.0074,1,,,,,,,,,,,,,,z,,,,,,,,,,,,,,,,102,1,439.9879,441.0037,z,1,1.0074,,[],[],[],[],[],[],[],441.0039,443.0036,443.0037,443.4555,[],[],[],[],[],[],[],z,443.4555,443.4556,-0.097304416,-0.402230089,0,0,0,,0,101,101,76,1,3,TL,stogare,cursive,stogare_c.png,0.4513,,,,,
,,,,28348,001,2025-10-16_10h38.39.242,HW_LDT_1,2024.2.4,MacIntel,59.88023952,,,,,,,,,,,,,,,,,,,,,,443.4562,443.6562,443.6563,444.1565,,,,,,,,,,,,,,1.0426,1,,,,,,,,,,,,,,m,,,,,,,,,,,,,,,,103,0,444.1567,445.2039,m,1,1.0426,,[],[],[],[],[],[],[],445.204,447.204,447.2042,447.2044,[],[],[],[],[],[],[],,447.2045,447.2046,-0.097304416,-0.402230089,0,0,0,,0,102,102,151,1,3,word,SPECIFIC,print,specific_p.png,,,,,,
,,,,28348,001,2025-10-16_10h38.39.242,HW_LDT_1,2024.2.4,MacIntel,59.88023952,,,,,,,,,,,,,,,,,,,,,,447.2064,447.4066,447.4066,447.9066,,,,,,,,,,,,,,2.3331,1,,,,,,,,,,,,,,z,,,,,,,,,,,,,,,,104,0,447.9069,450.2407,z,1,2.3331,,[],[],[],[],[],[],[],450.2407,452.24,452.24,452.2401,[],[],[],[],[],[],[],,452.2401,452.2402,-0.097304416,-0.402230089,0,0,0,,0,103,103,38,1,3,TL,carnidal,print,carnidal_p.png,,,,,,
,,,,28348,001,2025-10-16_10h38.39.242,HW_LDT_1,2024.2.4,MacIntel,59.88023952,,,,,,,,,,,,,,,,,,,,,,452.2408,452.4391,452.4391,452.9392,,,,,,,,,,,,,,1.1389,1,,,,,,,,,,,,,,m,,,,,,,,,,,,,,,,105,0,452.9395,454.0868,m,1,1.1389,,[],[],[],[],[],[],[],454.087,456.0865,456.0866,456.0867,[],[],[],[],[],[],[],,456.0868,456.0869,-0.097304416,-0.402230089,0,0,0,,0,104,104,143,1,3,word,REMOVAL,cursive,removal_c.png,,,,,,
,,,,28348,001,2025-10-16_10h38.39.242,HW_LDT_1,2024.2.4,MacIntel,59.88023952,,,,,,,,,,,,,,,,,,,,,,456.0888,456.2892,456.2892,456.7901,,,,,,,,,,,,,,0.6321,1,,,,,,,,,,,,,,z,,,,,,,,,,,,,,,,106,0,456.7903,457.4231,z,1,0.6321,,[],[],[],[],[],[],[],457.4231,459.4199,459.42,459.4203,[],[],[],[],[],[],[],,459.4203,459.4209,-0.097541775,-0.402230089,0,0,0,,0,105,105,48,1,3,TL,grafetul,cursive,grafetul_c.png,,,,,,
,,,,28348,001,2025-10-16_10h38.39.242,HW_LDT_1,2024.2.4,MacIntel,59.88023952,,,,,,,,,,,,,,,,,,,,,,459.4227,459.6226,459.6227,460.1226,,,,,,,,,,,,,,0.6408,1,,,,,,,,,,,,,,z,,,,,,,,,,,,,,,,107,0,460.1229,460.7706,z,1,0.6408,,[],[],[],[],[],[],[],460.7707,462.77,462.7701,462.7703,[],[],[],[],[],[],[],,462.7704,462.7706,-0.097541775,-0.402230089,0,0,0,,0,106,106,15,1,3,RL,mifikary,cursive,mifikary_c.png,,,,,,
,,,,28348,001,2025-10-16_10h38.39.242,HW_LDT_1,2024.2.4,MacIntel,59.88023952,,,,,,,,,,,,,,,,,,,,,,462.7725,462.9752,462.9752,463.474,,,,,,,,,,,,,,1.1986,1,,,,,,,,,,,,,,m,,,,,,,,,,,,,,,,108,0,463.4743,464.6734,m,1,1.1986,,[],[],[],[],[],[],[],464.6734,466.6735,466.6735,466.6735,[],[],[],[],[],[],[],,466.6735,466.6736,-0.097541775,-0.402230089,0,0,0,,0,107,107,147,1,3,word,ROMANTIC,cursive,romantic_c.png,,,,,,
,,,,28348,001,2025-10-16_10h38.39.242,HW_LDT_1,2024.2.4,MacIntel,59.88023952,,,,,,,,,,,,,,,,,,,,,,466.6742,466.8734,466.8735,467.3745,,,,,,,,,,,,,,0.6649,1,,,,,,,,,,,,,,m,,,,,,,,,,,,,,,,109,0,467.3747,468.04,m,1,0.6649,,[],[],[],[],[],[],[],468.0401,470.0409,470.0409,470.0409,[],[],[],[],[],[],[],,470.041,470.0411,-0.097541775,-0.402230089,0,0,0,,0,108,108,95,1,3,word,COMEDY,print,comedy_p.png,,,,,,
,,,,28348,001,2025-10-16_10h38.39.242,HW_LDT_1,2024.2.4,MacIntel,59.88023952,,,,,,,,,,,,,,,,,,,,,,470.0417,470.2396,470.2397,470.7368,,,,,,,,,,,,,,0.7744,1,,,,,,,,,,,,,,z,,,,,,,,,,,,,,,,110,0,470.7377,471.5205,z,1,0.7744,,[],[],[],[],[],[],[],471.5207,473.5195,473.5195,473.5198,[],[],[],[],[],[],[],,473.5198,473.5199,-0.097541775,-0.402230089,0,0,0,,0,109,109,59,1,3,TL,paficic,cursive,paficic_c.png,,,,,,
,,,,28348,001,2025-10-16_10h38.39.242,HW_LDT_1,2024.2.4,MacIntel,59.88023952,,,,,,,,,,,,,,,,,,,,,,473.5218,473.7235,473.7235,474.2244,,,,,,,,,,,,,,0.8559,1,,,,,,,,,,,,,,z,,,,,,,,,,,,,,,,111,0,474.2248,475.0858,z,1,0.8559,,[],[],[],[],[],[],[],475.0858,477.09,477.09,477.0901,[],[],[],[],[],[],[],,477.0901,477.0902,-0.097541775,-0.402230089,0,0,0,,0,110,110,11,1,3,RL,ebiwent,cursive,ebiwent_c.png,,,,,,
,,,,28348,001,2025-10-16_10h38.39.242,HW_LDT_1,2024.2.4,MacIntel,59.88023952,,,,,,,,,,,,,,,,,,,,,,477.0909,477.2905,477.2905,477.79,,,,,,,,,,,,,,0.7263,1,,,,,,,,,,,,,,z,,,,,,,,,,,,,,,,112,1,477.7903,478.5209,z,1,0.7263,,[],[],[],[],[],[],[],478.5211,480.5197,480.5197,481.0526,[],[],[],[],[],[],[],z,481.0527,481.0529,-0.097541775,-0.402230089,0,0,0,,0,111,111,50,1,3,TL,lirebal,print,lirebal_p.png,0.5269,,,,,
,,,,28348,001,2025-10-16_10h38.39.242,HW_LDT_1,2024.2.4,MacIntel,59.88023952,,,,,,,,,,,,,,,,,,,,,,481.0546,481.2566,481.2566,481.7524,,,,,,,,,,,,,,0.8137,1,,,,,,,,,,,,,,m,,,,,,,,,,,,,,,,113,0,481.753,482.5695,m,1,0.8137,,[],[],[],[],[],[],[],482.5696,484.5707,484.5708,484.5711,[],[],[],[],[],[],[],,484.5711,484.5713,-0.097541775,-0.402230089,0,0,0,,0,112,112,141,1,3,word,RELIGION,print,religion_p.png,,,,,,
,,,,28348,001,2025-10-16_10h38.39.242,HW_LDT_1,2024.2.4,MacIntel,59.88023952,,,,,,,,,,,,,,,,,,,,,,484.5727,484.7738,484.7739,485.2738,,,,,,,,,,,,,,1.2388,1,,,,,,,,,,,,,,z,,,,,,,,,,,,,,,,114,0,485.2741,486.5207,z,1,1.2388,,[],[],[],[],[],[],[],486.5207,488.522,488.522,488.5221,[],[],[],[],[],[],[],,488.5221,488.5221,-0.097541775,-0.402230089,0,0,0,,0,113,113,55,1,3,TL,mecidine,print,mecidine_p.png,,,,,,
,,,,28348,001,2025-10-16_10h38.39.242,HW_LDT_1,2024.2.4,MacIntel,59.88023952,,,,,,,,,,,,,,,,,,,,,,488.5227,488.7217,488.7217,489.2204,,,,,,,,,,,,,,0.9348,1,,,,,,,,,,,,,,m,,,,,,,,,,,,,,,,115,0,489.2213,490.1566,m,1,0.9348,,[],[],[],[],[],[],[],490.1567,492.1558,492.1559,492.156,[],[],[],[],[],[],[],,492.156,492.156,-0.097541775,-0.402230089,0,0,0,,0,114,114,157,1,3,word,VALIDITY,cursive,validity_c.png,,,,,,
,,,,28348,001,2025-10-16_10h38.39.242,HW_LDT_1,2024.2.4,MacIntel,59.88023952,,,,,,,,,,,,,,,,,,,,,,492.1569,492.3555,492.3555,492.8568,,,,,,,,,,,,,,0.831,1,,,,,,,,,,,,,,m,,,,,,,,,,,,,,,,116,0,492.8571,493.6887,m,1,0.831,,[],[],[],[],[],[],[],493.6887,495.6876,495.6876,495.6878,[],[],[],[],[],[],[],,495.6879,495.6881,-0.097541775,-0.402230089,0,0,0,,0,115,115,98,1,3,word,CRIMINAL,print,criminal_p.png,,,,,,
,,,,28348,001,2025-10-16_10h38.39.242,HW_LDT_1,2024.2.4,MacIntel,59.88023952,,,,,,,,,,,,,,,,,,,,,,495.6897,495.8874,495.8875,496.3994,,,,,,,,,,,,,,0.6043,1,,,,,,,,,,,,,,z,,,,,,,,,,,,,,,,117,0,496.3998,497.0049,z,1,0.6043,,[],[],[],[],[],[],[],497.0049,499.005,499.005,499.005,[],[],[],[],[],[],[],,499.005,499.0051,-0.097541775,-0.402230089,0,0,0,,0,116,116,65,1,3,TL,resufal,print,resufal_p.png,,,,,,
,,,,28348,001,2025-10-16_10h38.39.242,HW_LDT_1,2024.2.4,MacIntel,59.88023952,,,,,,,,,,,,,,,,,,,,,,499.0057,499.206,499.2061,499.7051,,,,,,,,,,,,,,0.5429,1,,,,,,,,,,,,,,z,,,,,,,,,,,,,,,,118,1,499.7054,500.2534,z,1,0.5429,,[],[],[],[],[],[],[],500.2535,502.2525,502.2525,502.9363,[],[],[],[],[],[],[],z,502.9364,502.9366,-0.097541775,-0.402230089,0,0,0,,0,117,117,46,1,3,TL,distupe,print,distupe_p.png,0.6756,,,,,
,,,,28348,001,2025-10-16_10h38.39.242,HW_LDT_1,2024.2.4,MacIntel,59.88023952,,,,,,,,,,,,,,,,,,,,,,502.9385,503.1387,503.1387,503.639,,,,,,,,,,,,,,0.9744,1,,,,,,,,,,,,,,z,,,,,,,,,,,,,,,,119,0,503.6395,504.6194,z,1,0.9744,,[],[],[],[],[],[],[],504.6195,506.6202,506.6203,506.6205,[],[],[],[],[],[],[],,506.6205,506.6207,-0.097541775,-0.402230089,0,0,0,,0,118,118,75,1,3,TL,sloten,cursive,sloten_c.png,,,,,,
,,,,28348,001,2025-10-16_10h38.39.242,HW_LDT_1,2024.2.4,MacIntel,59.88023952,,,,,,,,,,,,,,,,,,,,,,506.6227,506.8194,506.8196,507.3199,,,,,,,,,,,,,,0.8668,1,,,,,,,,,,,,,,z,,,,,,,,,,,,,,,,120,0,507.3206,508.1885,z,1,0.8668,,[],[],[],[],[],[],[],508.1885,510.1891,510.1891,510.1892,[],[],[],[],[],[],[],,510.1892,510.1893,-0.097541775,-0.402230089,0,0,0,,0,119,119,44,1,3,TL,decilate,print,decilate_p.png,,,,,,
,,,,28348,001,2025-10-16_10h38.39.242,HW_LDT_1,2024.2.4,MacIntel,59.88023952,,,,,,,,,,,,,,,,,,,,,,510.19,510.3892,510.3892,510.8886,,,,,,,,,,,,,,0.9438,1,,,,,,,,,,,,,,m,,,,,,,,,,,,,,,,121,0,510.8888,511.8357,m,1,0.9438,,[],[],[],[],[],[],[],511.8358,513.8236,513.8236,513.8237,[],[],[],[],[],[],[],,513.8237,513.8238,-0.097541775,-0.402230089,0,0,0,,0,120,120,137,1,3,word,RAPIDLY,print,rapidly_p.png,,,,,,
,,,,28348,001,2025-10-16_10h38.39.242,HW_LDT_1,2024.2.4,MacIntel,59.88023952,,,,,,,,,,,,,,,,,,,,,,513.8245,514.0235,514.0235,514.5232,,,,,,,,,,,,,,0.6052,1,,,,,,,,,,,,,,z,,,,,,,,,,,,,,,,122,0,514.5235,515.1358,z,1,0.6052,,[],[],[],[],[],[],[],515.1359,517.1359,517.1359,517.1362,[],[],[],[],[],[],[],,517.1362,517.1364,-0.097541775,-0.402230089,0,0,0,,0,121,121,26,1,3,RL,repifion,print,repifion_p.png,,,,,,
,,,,28348,001,2025-10-16_10h38.39.242,HW_LDT_1,2024.2.4,MacIntel,59.88023952,,,,,,,,,,,,,,,,,,,,,,517.1384,517.3393,517.3393,517.8395,,,,,,,,,,,,,,0.7414,1,,,,,,,,,,,,,,z,,,,,,,,,,,,,,,,123,0,517.8398,518.5872,z,1,0.7414,,[],[],[],[],[],[],[],518.5873,520.5897,520.5897,520.5898,[],[],[],[],[],[],[],,520.5898,520.5898,-0.097541775,-0.402230089,0,0,0,,0,122,122,63,1,3,TL,racidal,cursive,racidal_c.png,,,,,,
,,,,28348,001,2025-10-16_10h38.39.242,HW_LDT_1,2024.2.4,MacIntel,59.88023952,,,,,,,,,,,,,,,,,,,,,,520.5905,520.7897,520.7897,521.2894,,,,,,,,,,,,,,0.7066,1,,,,,,,,,,,,,,z,,,,,,,,,,,,,,,,124,0,521.2896,522.0024,z,1,0.7066,,[],[],[],[],[],[],[],522.0025,524.0026,524.0028,524.0031,[],[],[],[],[],[],[],,524.0032,524.0034,-0.097541775,-0.402230089,0,0,0,,0,123,123,32,1,3,TL,adacemy,print,adacemy_p.png,,,,,,
,,,,28348,001,2025-10-16_10h38.39.242,HW_LDT_1,2024.2.4,MacIntel,59.88023952,,,,,,,,,,,,,,,,,,,,,,524.0052,524.2058,524.2058,524.7061,,,,,,,,,,,,,,1.2328,1,,,,,,,,,,,,,,m,,,,,,,,,,,,,,,,125,0,524.7064,525.9395,m,1,1.2328,,[],[],[],[],[],[],[],525.9396,527.9389,527.9389,527.939,[],[],[],[],[],[],[],,527.939,527.9391,-0.097541775,-0.402230089,0,0,0,,0,124,124,111,1,3,word,INDICATE,print,indicate_p.png,,,,,,
,,,,28348,001,2025-10-16_10h38.39.242,HW_LDT_1,2024.2.4,MacIntel,59.88023952,,,,,,,,,,,,,,,,,,,,,,527.9396,528.1399,528.1399,528.6399,,,,,,,,,,,,,,0.6739,1,,,,,,,,,,,,,,z,,,,,,,,,,,,,,,,126,0,528.6402,529.3191,z,1,0.6739,,[],[],[],[],[],[],[],529.3193,531.3234,531.3234,531.3236,[],[],[],[],[],[],[],,531.3236,531.3236,-0.097541775,-0.402230089,0,0,0,,0,125,125,7,1,3,RL,cobeny,print,cobeny_p.png,,,,,,
,,,,28348,001,2025-10-16_10h38.39.242,HW_LDT_1,2024.2.4,MacIntel,59.88023952,,,,,,,,,,,,,,,,,,,,,,531.3243,531.5225,531.5225,532.0227,,,,,,,,,,,,,,1.0988,0,,,,,,,,,,,,,,m,,,,,,,,,,,,,,,,127,0,532.023,533.1223,z,0,1.0988,,[],[],[],[],[],[],[],533.1224,535.1224,535.1224,535.1224,[],[],[],[],[],[],[],,535.1225,535.1225,-0.097541775,-0.402230089,0,0,0,,0,126,126,117,1,3,word,MARINE,cursive,marine_c.png,,,,,,
,,,,28348,001,2025-10-16_10h38.39.242,HW_LDT_1,2024.2.4,MacIntel,59.88023952,,,,,,,,,,,,,,,,,,,,,,535.1231,535.3233,535.3233,535.8232,,,,,,,,,,,,,,1.0484,1,,,,,,,,,,,,,,m,,,,,,,,,,,,,,,,128,0,535.8234,536.8726,m,1,1.0484,,[],[],[],[],[],[],[],536.8726,538.8725,538.8726,538.8726,[],[],[],[],[],[],[],,538.8727,538.8727,-0.097541775,-0.402230089,0,0,0,,0,127,127,94,1,3,word,CLINICAL,print,clinical_p.png,,,,,,
,,,,28348,001,2025-10-16_10h38.39.242,HW_LDT_1,2024.2.4,MacIntel,59.88023952,,,,,,,,,,,,,,,,,,,,,,538.8731,539.0732,539.0733,539.5724,,,,,,,,,,,,,,0.8161,1,,,,,,,,,,,,,,m,,,,,,,,,,,,,,,,129,0,539.5727,540.389,m,1,0.8161,,[],[],[],[],[],[],[],540.3892,542.3861,542.3862,542.3865,[],[],[],[],[],[],[],,542.3866,542.3867,-0.097541775,-0.402230089,0,0,0,,0,128,128,148,1,3,word,SALINE,cursive,saline_c.png,,,,,,
,,,,28348,001,2025-10-16_10h38.39.242,HW_LDT_1,2024.2.4,MacIntel,59.88023952,,,,,,,,,,,,,,,,,,,,,,542.389,542.587,542.5871,543.0852,,,,,,,,,,,,,,0.5797,1,,,,,,,,,,,,,,m,,,,,,,,,,,,,,,,130,0,543.0859,543.6663,m,1,0.5797,,[],[],[],[],[],[],[],543.6663,545.6547,545.6548,545.6548,[],[],[],[],[],[],[],,545.6549,545.655,-0.097541775,-0.402230089,0,0,0,,0,129,129,119,1,3,word,MEMORY,print,memory_p.png,,,,,,
,,,,28348,001,2025-10-16_10h38.39.242,HW_LDT_1,2024.2.4,MacIntel,59.88023952,,,,,,,,,,,,,,,,,,,,,,545.6556,545.8573,545.8573,546.3565,,,,,,,,,,,,,,0.6084,1,,,,,,,,,,,,,,z,,,,,,,,,,,,,,,,131,0,546.3568,546.9696,z,1,0.6084,,[],[],[],[],[],[],[],546.9698,548.9682,548.9682,548.9683,[],[],[],[],[],[],[],,548.9684,548.9684,-0.097541775,-0.402230089,0,0,0,,0,130,130,57,1,3,TL,moredate,cursive,moredate_c.png,,,,,,
,,,,28348,001,2025-10-16_10h38.39.242,HW_LDT_1,2024.2.4,MacIntel,59.88023952,,,,,,,,,,,,,,,,,,,,,,548.9702,549.1724,549.1724,549.6725,,,,,,,,,,,,,,0.7647,1,,,,,,,,,,,,,,m,,,,,,,,,,,,,,,,132,0,549.6727,550.438,m,1,0.7647,,[],[],[],[],[],[],[],550.438,552.4381,552.4381,552.4382,[],[],[],[],[],[],[],,552.4382,552.4383,-0.097541775,-0.402230089,0,0,0,,0,131,131,138,1,3,word,REFUSAL,print,refusal_p.png,,,,,,
,,,,28348,001,2025-10-16_10h38.39.242,HW_LDT_1,2024.2.4,MacIntel,59.88023952,,,,,,,,,,,,,,,,,,,,,,552.4391,552.6389,552.6389,553.1382,,,,,,,,,,,,,,0.6072,1,,,,,,,,,,,,,,m,,,,,,,,,,,,,,,,133,0,553.1385,553.7532,m,1,0.6072,,[],[],[],[],[],[],[],553.7532,555.7524,555.7525,555.7527,[],[],[],[],[],[],[],,555.7528,555.7529,-0.097541775,-0.402230089,0,0,0,,0,132,132,85,1,3,word,BENEFIT,print,benefit_p.png,,,,,,
,,,,28348,001,2025-10-16_10h38.39.242,HW_LDT_1,2024.2.4,MacIntel,59.88023952,,,,,,,,,,,,,,,,,,,,,,555.7547,555.9373,555.9374,556.4527,,,,,,,,,,,,,,0.6326,1,,,,,,,,,,,,,,z,,,,,,,,,,,,,,,,134,0,556.4535,557.0877,z,1,0.6326,,[],[],[],[],[],[],[],557.0877,559.0888,559.0888,559.0889,[],[],[],[],[],[],[],,559.0889,559.0889,-0.097541775,-0.402230089,0,0,0,,0,133,133,23,1,3,RL,quakity,print,quakity_p.png,,,,,,
,,,,28348,001,2025-10-16_10h38.39.242,HW_LDT_1,2024.2.4,MacIntel,59.88023952,,,,,,,,,,,,,,,,,,,,,,559.0895,559.2878,559.2878,559.7892,,,,,,,,,,,,,,0.6877,0,,,,,,,,,,,,,,m,,,,,,,,,,,,,,,,135,1,559.7895,560.4859,z,0,0.6877,,[],[],[],[],[],[],[],560.486,562.486,562.4861,563.2371,[],[],[],[],[],[],[],z,563.2371,563.2371,-0.097541775,-0.401516656,0,0,0,,0,134,134,90,1,3,word,CAPITAL,cursive,capital_c.png,0.7504,,,,,
,,,,28348,001,2025-10-16_10h38.39.242,HW_LDT_1,2024.2.4,MacIntel,59.88023952,,,,,,,,,,,,,,,,,,,,,,563.2376,563.4374,563.4374,563.9372,,,,,,,,,,,,,,1.0394,1,,,,,,,,,,,,,,z,,,,,,,,,,,,,,,,136,0,563.9374,564.9856,z,1,1.0394,,[],[],[],[],[],[],[],564.9857,566.9852,566.9853,566.9856,[],[],[],[],[],[],[],,566.9856,566.9858,-0.097541775,-0.401516656,0,0,0,,0,135,135,52,1,3,TL,locigal,cursive,locigal_c.png,,,,,,
,,,,28348,001,2025-10-16_10h38.39.242,HW_LDT_1,2024.2.4,MacIntel,59.88023952,,,,,,,,,,,,,,,,,,,,,,566.9877,567.1879,567.1879,567.6876,,,,,,,,,,,,,,0.8331,1,,,,,,,,,,,,,,z,,,,,,,,,,,,,,,,137,0,567.6879,568.5213,z,1,0.8331,,[],[],[],[],[],[],[],568.5214,570.5191,570.5191,570.5194,[],[],[],[],[],[],[],,570.5194,570.5196,-0.097541775,-0.401516656,0,0,0,,0,136,136,41,1,3,TL,crinimal,print,crinimal_p.png,,,,,,
,,,,28348,001,2025-10-16_10h38.39.242,HW_LDT_1,2024.2.4,MacIntel,59.88023952,,,,,,,,,,,,,,,,,,,,,,570.5217,570.722,570.7221,571.2228,,,,,,,,,,,,,,1.1824,1,,,,,,,,,,,,,,m,,,,,,,,,,,,,,,,138,0,571.223,572.4057,m,1,1.1824,,[],[],[],[],[],[],[],572.4057,574.4057,574.4057,574.4058,[],[],[],[],[],[],[],,574.4058,574.4059,-0.097541775,-0.401516656,0,0,0,,0,137,137,150,1,3,word,SENTIMENT,print,sentiment_p.png,,,,,,
,,,,28348,001,2025-10-16_10h38.39.242,HW_LDT_1,2024.2.4,MacIntel,59.88023952,,,,,,,,,,,,,,,,,,,,,,574.4065,574.6057,574.6057,575.1056,,,,,,,,,,,,,,1.3327,1,,,,,,,,,,,,,,z,,,,,,,,,,,,,,,,139,0,575.1059,576.4388,z,1,1.3327,,[],[],[],[],[],[],[],576.4389,578.4386,578.4386,578.4387,[],[],[],[],[],[],[],,578.4388,578.4388,-0.097541775,-0.401516656,0,0,0,,0,138,138,58,1,3,TL,nuremical,print,nuremical_p.png,,,,,,
,,,,28348,001,2025-10-16_10h38.39.242,HW_LDT_1,2024.2.4,MacIntel,59.88023952,,,,,,,,,,,,,,,,,,,,,,578.4394,578.6388,578.6389,579.1375,,,,,,,,,,,,,,1.7673,1,,,,,,,,,,,,,,m,,,,,,,,,,,,,,,,140,0,579.1378,580.9055,m,1,1.7673,,[],[],[],[],[],[],[],580.9055,582.904,582.904,582.9041,[],[],[],[],[],[],[],,582.9041,582.9042,-0.097541775,-0.401516656,0,0,0,,0,139,139,88,1,3,word,CAMERA,cursive,camera_c.png,,,,,,
,,,,28348,001,2025-10-16_10h38.39.242,HW_LDT_1,2024.2.4,MacIntel,59.88023952,,,,,,,,,,,,,,,,,,,,,,582.9047,583.1043,583.1043,583.6053,,,,,,,,,,,,,,0.7387,1,,,,,,,,,,,,,,z,,,,,,,,,,,,,,,,141,0,583.6055,584.3525,z,1,0.7387,,[],[],[],[],[],[],[],584.3526,586.353,586.353,586.3537,[],[],[],[],[],[],[],,586.3538,586.3539,-0.097541775,-0.401516656,0,0,0,,0,140,140,29,1,3,RL,selamor,cursive,selamor_c.png,,,,,,
,,,,28348,001,2025-10-16_10h38.39.242,HW_LDT_1,2024.2.4,MacIntel,59.88023952,,,,,,,,,,,,,,,,,,,,,,586.355,586.5525,586.5526,587.0516,,,,,,,,,,,,,,1.1667,1,,,,,,,,,,,,,,z,,,,,,,,,,,,,,,,142,0,587.0532,588.221,z,1,1.1667,,[],[],[],[],[],[],[],588.2211,590.2189,590.2189,590.2192,[],[],[],[],[],[],[],,590.2192,590.2194,-0.097541775,-0.401516656,0,0,0,,0,141,141,33,1,3,TL,adsivory,print,adsivory_p.png,,,,,,
,,,,28348,001,2025-10-16_10h38.39.242,HW_LDT_1,2024.2.4,MacIntel,59.88023952,,,,,,,,,,,,,,,,,,,,,,590.2212,590.4202,590.4202,590.9205,,,,,,,,,,,,,,0.8996,1,,,,,,,,,,,,,,z,,,,,,,,,,,,,,,,143,0,590.9207,591.8207,z,1,0.8996,,[],[],[],[],[],[],[],591.8209,593.8202,593.8202,593.8202,[],[],[],[],[],[],[],,593.8202,593.8202,-0.097541775,-0.401516656,0,0,0,,0,142,142,53,1,3,TL,marnigal,print,marnigal_p.png,,,,,,
,,,,28348,001,2025-10-16_10h38.39.242,HW_LDT_1,2024.2.4,MacIntel,59.88023952,,,,,,,,,,,,,,,,,,,,,,593.8209,594.021,594.0211,594.521,,,,,,,,,,,,,,0.9651,1,,,,,,,,,,,,,,m,,,,,,,,,,,,,,,,144,0,594.5212,595.4867,m,1,0.9651,,[],[],[],[],[],[],[],595.4868,597.4882,597.4882,597.4883,[],[],[],[],[],[],[],,597.4883,597.4884,-0.097541775,-0.401516656,0,0,0,,0,143,143,136,1,3,word,RADICAL,cursive,radical_c.png,,,,,,
,,,,28348,001,2025-10-16_10h38.39.242,HW_LDT_1,2024.2.4,MacIntel,59.88023952,,,,,,,,,,,,,,,,,,,,,,597.4891,597.6883,597.6884,598.1891,,,,,,,,,,,,,,0.9439,1,,,,,,,,,,,,,,z,,,,,,,,,,,,,,,,145,0,598.1894,599.1354,z,1,0.9439,,[],[],[],[],[],[],[],599.1355,601.1393,601.1393,601.1394,[],[],[],[],[],[],[],,601.1394,601.1394,-0.097541775,-0.401516656,0,0,0,,0,144,144,24,1,3,RL,quafidy,print,quafidy_p.png,,,,,,
,,,,28348,001,2025-10-16_10h38.39.242,HW_LDT_1,2024.2.4,MacIntel,59.88023952,,,,,,,,,,,,,,,,,,,,,,601.1401,601.3398,601.3398,601.8403,,,,,,,,,,,,,,0.8466,0,,,,,,,,,,,,,,m,,,,,,,,,,,,,,,,146,0,601.8406,602.6878,z,0,0.8466,,[],[],[],[],[],[],[],602.6878,604.6853,604.6854,604.6858,[],[],[],[],[],[],[],,604.6858,604.686,-0.097541775,-0.401516656,0,0,0,,0,145,145,128,1,3,word,PACIFIC,cursive,pacific_c.png,,,,,,
,,,,28348,001,2025-10-16_10h38.39.242,HW_LDT_1,2024.2.4,MacIntel,59.88023952,,,,,,,,,,,,,,,,,,,,,,604.6878,604.888,604.888,605.3842,,,,,,,,,,,,,,0.8763,1,,,,,,,,,,,,,,z,,,,,,,,,,,,,,,,147,0,605.3848,606.2686,z,1,0.8763,,[],[],[],[],[],[],[],606.2689,608.2683,608.2684,608.2686,[],[],[],[],[],[],[],,608.2686,608.2687,-0.097541775,-0.401516656,0,0,0,,0,146,146,27,1,3,RL,recile,print,recile_p.png,,,,,,
,,,,28348,001,2025-10-16_10h38.39.242,HW_LDT_1,2024.2.4,MacIntel,59.88023952,,,,,,,,,,,,,,,,,,,,,,608.2708,608.4702,608.4702,608.9705,,,,,,,,,,,,,,1.266,1,,,,,,,,,,,,,,m,,,,,,,,,,,,,,,,148,0,608.9708,610.2374,m,1,1.266,,[],[],[],[],[],[],[],610.2375,612.2371,612.2371,612.2373,[],[],[],[],[],[],[],,612.2373,612.2373,-0.097541775,-0.401516656,0,0,0,,0,147,147,86,1,3,word,BESIDE,cursive,beside_c.png,,,,,,
,,,,28348,001,2025-10-16_10h38.39.242,HW_LDT_1,2024.2.4,MacIntel,59.88023952,,,,,,,,,,,,,,,,,,,,,,612.2379,612.4378,612.4378,612.9376,,,,,,,,,,,,,,0.6319,1,,,,,,,,,,,,,,z,,,,,,,,,,,,,,,,149,0,612.9378,613.5703,z,1,0.6319,,[],[],[],[],[],[],[],613.5703,615.5677,615.5678,615.5679,[],[],[],[],[],[],[],,615.5681,615.5681,-0.097541775,-0.401516656,0,0,0,,0,148,148,25,1,3,RL,retupar,print,retupar_p.png,,,,,,
,,,,28348,001,2025-10-16_10h38.39.242,HW_LDT_1,2024.2.4,MacIntel,59.88023952,,,,,,,,,,,,,,,,,,,,,,615.5699,615.7705,615.7705,616.2703,,,,,,,,,,,,,,0.7745,1,,,,,,,,,,,,,,z,,,,,,,,,,,,,,,,150,0,616.2705,617.0513,z,1,0.7745,,[],[],[],[],[],[],[],617.0514,619.0513,619.0514,619.0521,[],[],[],[],[],[],[],,619.0522,619.0526,-0.097541775,-0.401516656,0,0,0,,0,149,149,18,1,3,RL,onegator,print,onegator_p.png,,,,,,
,,,,28348,001,2025-10-16_10h38.39.242,HW_LDT_1,2024.2.4,MacIntel,59.88023952,,,,,,,,,,,,,,,,,,,,,,619.054,619.2543,619.2543,619.7545,,,,,,,,,,,,,,0.7986,0,,,,,,,,,,,,,,m,,,,,,,,,,,,,,,,151,0,619.7547,620.5537,z,0,0.7986,,[],[],[],[],[],[],[],620.5537,622.5511,622.5512,622.5514,[],[],[],[],[],[],[],,622.5514,622.5516,-0.097541775,-0.401516656,0,0,0,,0,150,150,109,1,3,word,GRATEFUL,cursive,grateful_c.png,,,,,,
,,,,28348,001,2025-10-16_10h38.39.242,HW_LDT_1,2024.2.4,MacIntel,59.88023952,,,,,,,,,,,,,,,,,,,,,,622.5538,622.7395,622.7395,623.2482,,,,,,,,,,,,,,1.0848,1,,,,,,,,,,,,,,z,,,,,,,,,,,,,,,,152,0,623.2485,624.3355,z,1,1.0848,,[],[],[],[],[],[],[],624.3356,626.3322,626.3322,626.3323,[],[],[],[],[],[],[],,626.3323,626.3324,-0.097541775,-0.401516656,0,0,0,,0,151,151,13,1,3,RL,helicage,cursive,helicage_c.png,,,,,,
,,,,28348,001,2025-10-16_10h38.39.242,HW_LDT_1,2024.2.4,MacIntel,59.88023952,,,,,,,,,,,,,,,,,,,,,,626.3329,626.5368,626.5369,627.0375,,,,,,,,,,,,,,0.5937,0,,,,,,,,,,,,,,z,,,,,,,,,,,,,,,,153,1,627.0382,627.6349,m,0,0.5937,,[],[],[],[],[],[],[],627.6349,629.6349,629.6349,631.1348,[],[],[],[],[],[],[],m,631.1348,631.1349,-0.097541775,-0.401516656,0,0,0,,0,152,152,49,1,3,TL,incidate,print,incidate_p.png,1.4993,,,,,
,,,,28348,001,2025-10-16_10h38.39.242,HW_LDT_1,2024.2.4,MacIntel,59.88023952,,,,,,,,,,,,,,,,,,,,,,631.1354,631.3358,631.3359,631.8314,,,,,,,,,,,,,,0.9227,1,,,,,,,,,,,,,,m,,,,,,,,,,,,,,,,154,0,631.8318,632.756,m,1,0.9227,,[],[],[],[],[],[],[],632.756,634.7648,634.7649,634.765,[],[],[],[],[],[],[],,634.765,634.765,-0.097541775,-0.401516656,0,0,0,,0,153,153,124,1,3,word,NUMERICAL,print,numerical_p.png,,,,,,
,,,,28348,001,2025-10-16_10h38.39.242,HW_LDT_1,2024.2.4,MacIntel,59.88023952,,,,,,,,,,,,,,,,,,,,,,634.7659,634.9653,634.9653,635.4722,,,,,,,,,,,,,,0.7054,1,,,,,,,,,,,,,,m,,,,,,,,,,,,,,,,155,0,635.4725,636.1841,m,1,0.7054,,[],[],[],[],[],[],[],636.1841,638.1843,638.1844,638.1846,[],[],[],[],[],[],[],,638.1846,638.1848,-0.097541775,-0.401516656,0,0,0,,0,154,154,105,1,3,word,EDITOR,print,editor_p.png,,,,,,
,,,,28348,001,2025-10-16_10h38.39.242,HW_LDT_1,2024.2.4,MacIntel,59.88023952,,,,,,,,,,,,,,,,,,,,,,638.1867,638.388,638.388,638.8841,,,,,,,,,,,,,,1.1116,1,,,,,,,,,,,,,,z,,,,,,,,,,,,,,,,156,0,638.8847,640.0002,z,1,1.1116,,[],[],[],[],[],[],[],640.0002,642.0053,642.0054,642.0055,[],[],[],[],[],[],[],,642.0056,642.0056,-0.097541775,-0.401516656,0,0,0,,0,155,155,68,1,3,TL,revomal,cursive,revomal_c.png,,,,,,
,,,,28348,001,2025-10-16_10h38.39.242,HW_LDT_1,2024.2.4,MacIntel,59.88023952,,,,,,,,,,,,,,,,,,,,,,642.0064,642.2045,642.2046,642.7045,,,,,,,,,,,,,,0.8989,1,,,,,,,,,,,,,,m,,,,,,,,,,,,,,,,157,0,642.7047,643.604,m,1,0.8989,,[],[],[],[],[],[],[],643.604,645.6044,645.6044,645.6044,[],[],[],[],[],[],[],,645.6045,645.6045,-0.097541775,-0.401516656,0,0,0,,0,156,156,84,1,3,word,BELOVED,cursive,beloved_c.png,,,,,,
,,,,28348,001,2025-10-16_10h38.39.242,HW_LDT_1,2024.2.4,MacIntel,59.88023952,,,,,,,,,,,,,,,,,,,,,,645.6051,645.805,645.805,646.3051,,,,,,,,,,,,,,1.1154,1,,,,,,,,,,,,,,z,,,,,,,,,,,,,,,,158,1,646.3053,647.4213,z,1,1.1154,,[],[],[],[],[],[],[],647.4213,649.4212,649.4212,650.1204,[],[],[],[],[],[],[],m,650.1204,650.1204,-0.097541775,-0.401516656,0,0,0,,0,157,157,34,1,3,TL,aminal,cursive,aminal_c.png,0.699,,,,,
,,,,28348,001,2025-10-16_10h38.39.242,HW_LDT_1,2024.2.4,MacIntel,59.88023952,,,,,,,,,,,,,,,,,,,,,,650.1211,650.32,650.32,650.8198,,,,,,,,,,,,,,0.8663,1,,,,,,,,,,,,,,z,,,,,,,,,,,,,,,,159,0,650.8201,651.6869,z,1,0.8663,,[],[],[],[],[],[],[],651.687,653.6868,653.6868,653.6869,[],[],[],[],[],[],[],,653.6869,653.6869,-0.097541775,-0.401516656,0,0,0,,0,158,158,9,1,3,RL,docirant,print,docirant_p.png,,,,,,
,,,,28348,001,2025-10-16_10h38.39.242,HW_LDT_1,2024.2.4,MacIntel,59.88023952,,,,,,,,,,,,,,,,,,,,,,653.6874,653.8864,653.8864,654.3868,,,,,,,,,,,,,,1.032,1,,,,,,,,,,,,,,m,,,,,,,,,,,,,,,,160,0,654.3871,655.4198,m,1,1.032,,[],[],[],[],[],[],[],655.4199,657.4204,657.4204,657.4205,[],[],[],[],[],[],[],,657.4205,657.4206,-0.097541775,-0.401516656,0,0,0,,0,159,159,133,1,3,word,PROVIDE,print,provide_p.png,,,,,,
,,,,28348,001,2025-10-16_10h38.39.242,HW_LDT_1,2024.2.4,MacIntel,59.88023952,,,,,,,,,,,,,,,,,,,,,,,,,,,,,,,,,,,,,,,,,,,,,,,,,,,,,,,,,,,,,,,,,,,,,,,,,,,,,,,,,,,,,,,,,,,,,,,,,,,,,,,,,,,,,,,,,,,,,,,657.4268,662.4198
