counterbalance_lists.group,counterbalance_lists.remaining,get_list.started,get_list.stopped,participant,session,date,expName,psychopyVersion,OS,frameRate,Instructions.started,Instructions.stopped,key_resp.keys,instr_done_touch.x,instr_done_touch.y,instr_done_touch.leftButton,instr_done_touch.midButton,instr_done_touch.rightButton,instr_done_touch.clicked_name,start_instr.thisRepN,start_instr.thisTrialN,start_instr.thisN,start_instr.thisIndex,start_instr.ran,pageN,phase,instruct_text,has_image,instruct_image,showProgress.started,showProgress.stopped,fix.started,fix.stopped,prac.started,prac.stopped,response.keys,response.corr,response.rt,response.duration,touch_resp.x,touch_resp.y,touch_resp.leftButton,touch_resp.midButton,touch_resp.rightButton,touch_resp.time,touch_resp.clicked_name,rt,corr,feedback.started,feedback.stopped,trials.thisRepN,trials.thisTrialN,trials.thisN,trials.thisIndex,trials.ran,TrialID,StimulusType,Condition,PrimeDuration,Prime,Target,corrAns,Instructions_expt.started,Instructions_expt.stopped,key_resp_3.keys,instr_done_touch_3.x,instr_done_touch_3.y,instr_done_touch_3.leftButton,instr_done_touch_3.midButton,instr_done_touch_3.rightButton,instr_done_touch_3.clicked_name,instr_experiment.thisRepN,instr_experiment.thisTrialN,instr_experiment.thisN,instr_experiment.thisIndex,instr_experiment.ran,trialID,flag,maintask.started,maintask.stopped,key_resp_2.keys,key_resp_2.corr,key_resp_2.rt,key_resp_2.duration,targ_click.x,targ_click.y,targ_click.leftButton,targ_click.midButton,targ_click.rightButton,targ_click.time,targ_click.clicked_name,ITI.started,ITI.stopped,probe.started,probe.stopped,click_probe.x,click_probe.y,click_probe.leftButton,click_probe.midButton,click_probe.rightButton,click_probe.time,click_probe.clicked_name,key_resp_probe.keys,Break.started,Break.stopped,break_done_touch.x,break_done_touch.y,break_done_touch.leftButton,break_done_touch.midButton,break_done_touch.rightButton,break_done_keyboard.keys,list4_trials.thisRepN,list4_trials.thisTrialN,list4_trials.thisN,list4_trials.thisIndex,list4_trials.ran,list_id,item_type,string,font,stim_file,key_resp_probe.rt,key_resp_probe.duration,break_done_keyboard.rt,break_done_keyboard.duration,End.started,End.stopped
list4,,0.4315,0.4316,29278,001,2025-10-15_18h18.58.000,HW_LDT_1,2024.2.4,MacIntel,111.1111111,,,,,,,,,,,,,,,,,,,,,,,,,,,,,,,,,,,,,,,,,,,,,,,,,,,,,,,,,,,,,,,,,,,,,,,,,,,,,,,,,,,,,,,,,,,,,,,,,,,,,,,,,,,,,,,,,,,,,
,,,,29278,001,2025-10-15_18h18.58.000,HW_LDT_1,2024.2.4,MacIntel,111.1111111,0.4457,26.6099,,-0.112586806,-0.402852183,1,0,0,instr_done_button,0,0,0,0,1,1,instructions,"INSTRUCTIONS
At the start of each trial, look at the plus sign  (+) in the center of the screen.  This tells you that a trial is about to begin and where to look. Second, the plus sign will disappear and a string of letters will appear. Your task is to determine if the string of letters is a word or not. If the item is a word press the M key (on keyboard)  or touch the word button (phone/tablet).  If the item is not a word,  press the  Z key (on keyboard)  or touch the nonword button (on phone/tablet). The items will be presented for a short time. 
Press the space bar or touch  continue.",0,,,,,,,,,,,,,,,,,,,,,,,,,,,,,,,,,,,,,,,,,,,,,,,,,,,,,,,,,,,,,,,,,,,,,,,,,,,,,,,,,,,,,,,,,,,,,,,,,,,
,,,,29278,001,2025-10-15_18h18.58.000,HW_LDT_1,2024.2.4,MacIntel,111.1111111,26.6112,33.3678,,-0.112586806,-0.404104663,1,0,0,instr_done_button,0,1,1,1,1,2,instructions,"If your device has a keyboard, press the 'Z' key for nonwords and the 'M' key for words.





Press the space bar or touch the button below to continue.",0,keyboard-example.gif,,,,,,,,,,,,,,,,,,,,,,,,,,,,,,,,,,,,,,,,,,,,,,,,,,,,,,,,,,,,,,,,,,,,,,,,,,,,,,,,,,,,,,,,,,,,,,,,,,
,,,,29278,001,2025-10-15_18h18.58.000,HW_LDT_1,2024.2.4,MacIntel,111.1111111,33.369,34.7429,,-0.101847718,-0.384172454,1,0,0,instr_done_button,0,2,2,2,1,3,instructions,"If you are using a touchscreen only device, use the buttons on the screen. Do not use the mouse.





Press the space bar or touch the button below to continue.",0,touchscreen-example.gif,,,,,,,,,,,,,,,,,,,,,,,,,,,,,,,,,,,,,,,,,,,,,,,,,,,,,,,,,,,,,,,,,,,,,,,,,,,,,,,,,,,,,,,,,,,,,,,,,,
,,,,29278,001,2025-10-15_18h18.58.000,HW_LDT_1,2024.2.4,MacIntel,111.1111111,34.7444,44.9845,,-0.101847718,-0.383684689,1,0,0,instr_done_button,0,3,3,3,1,4,instructions,"It is very important that you respond as quickly and accurately as possible, as each letter string will only be on the screen for two seconds. If you do not respond within this time, the message 'Too slow!' will be displayed and the experiment will progress to the next letter string. The first 20 trials will be practice trials and you will receive feedback on your answers. 

Press the space bar or touch the button below to start the practice trials.",0,,,,,,,,,,,,,,,,,,,,,,,,,,,,,,,,,,,,,,,,,,,,,,,,,,,,,,,,,,,,,,,,,,,,,,,,,,,,,,,,,,,,,,,,,,,,,,,,,,,
,,,,29278,001,2025-10-15_18h18.58.000,HW_LDT_1,2024.2.4,MacIntel,111.1111111,,,,,,,,,,,,,,,,,,,,45.0046,45.1848,45.185,45.6849,45.6853,47.1601,z,1,1.4568,,[],[],[],[],[],[],[],1.4568,1,47.1604,47.6599,0,0,0,13,1,1014,NW,UN,33,winfer,ROUPET,z,,,,,,,,,,,,,,,,,,,,,,,,,,,,,,,,,,,,,,,,,,,,,,,,,,,,,,,,,,,,,,,,,
,,,,29278,001,2025-10-15_18h18.58.000,HW_LDT_1,2024.2.4,MacIntel,111.1111111,,,,,,,,,,,,,,,,,,,,47.6615,47.8594,47.8594,48.3596,48.3608,49.3512,z,1,0.9764,,[],[],[],[],[],[],[],0.9764,1,49.3513,49.8515,0,1,1,8,1,1009,NW,"ID",33,aslert,ASLERT,z,,,,,,,,,,,,,,,,,,,,,,,,,,,,,,,,,,,,,,,,,,,,,,,,,,,,,,,,,,,,,,,,,
,,,,29278,001,2025-10-15_18h18.58.000,HW_LDT_1,2024.2.4,MacIntel,111.1111111,,,,,,,,,,,,,,,,,,,,49.8531,50.0514,50.0514,50.5515,50.5525,51.2763,m,1,0.7108,,[],[],[],[],[],[],[],0.7108,1,51.2765,51.7763,0,2,2,0,1,1001,WORD,"ID",33,utopia,UTOPIA,m,,,,,,,,,,,,,,,,,,,,,,,,,,,,,,,,,,,,,,,,,,,,,,,,,,,,,,,,,,,,,,,,,
,,,,29278,001,2025-10-15_18h18.58.000,HW_LDT_1,2024.2.4,MacIntel,111.1111111,,,,,,,,,,,,,,,,,,,,51.7776,51.976,51.9761,52.4761,52.477,52.9846,m,1,0.4941,,[],[],[],[],[],[],[],0.4941,1,52.9848,53.4846,0,3,3,7,1,1008,WORD,UN,16,hurdle,VOLUME,m,,,,,,,,,,,,,,,,,,,,,,,,,,,,,,,,,,,,,,,,,,,,,,,,,,,,,,,,,,,,,,,,,
,,,,29278,001,2025-10-15_18h18.58.000,HW_LDT_1,2024.2.4,MacIntel,111.1111111,,,,,,,,,,,,,,,,,,,,53.4861,53.6845,53.6846,54.1846,54.1855,54.7181,m,1,0.518,,[],[],[],[],[],[],[],0.518,1,54.7183,55.2178,0,4,4,2,1,1003,WORD,"ID",16,almond,ALMOND,m,,,,,,,,,,,,,,,,,,,,,,,,,,,,,,,,,,,,,,,,,,,,,,,,,,,,,,,,,,,,,,,,,
,,,,29278,001,2025-10-15_18h18.58.000,HW_LDT_1,2024.2.4,MacIntel,111.1111111,,,,,,,,,,,,,,,,,,,,55.2189,55.418,55.4181,55.9181,55.9191,56.4849,m,1,0.5516,,[],[],[],[],[],[],[],0.5516,1,56.4851,56.9847,0,5,5,1,1,1002,WORD,"ID",33,adjust,ADJUST,m,,,,,,,,,,,,,,,,,,,,,,,,,,,,,,,,,,,,,,,,,,,,,,,,,,,,,,,,,,,,,,,,,
,,,,29278,001,2025-10-15_18h18.58.000,HW_LDT_1,2024.2.4,MacIntel,111.1111111,,,,,,,,,,,,,,,,,,,,56.9861,57.184,57.1842,57.6847,57.6856,58.5347,z,1,0.8347,,[],[],[],[],[],[],[],0.8347,1,58.5349,59.0347,0,6,6,14,1,1015,NW,UN,16,miaber,THRALE,z,,,,,,,,,,,,,,,,,,,,,,,,,,,,,,,,,,,,,,,,,,,,,,,,,,,,,,,,,,,,,,,,,
,,,,29278,001,2025-10-15_18h18.58.000,HW_LDT_1,2024.2.4,MacIntel,111.1111111,,,,,,,,,,,,,,,,,,,,59.0361,59.2339,59.2339,59.7349,59.7357,60.8262,z,1,1.081,,[],[],[],[],[],[],[],1.081,1,60.8263,61.3264,0,7,7,11,1,1012,NW,"ID",16,rashet,RASHET,z,,,,,,,,,,,,,,,,,,,,,,,,,,,,,,,,,,,,,,,,,,,,,,,,,,,,,,,,,,,,,,,,,
,,,,29278,001,2025-10-15_18h18.58.000,HW_LDT_1,2024.2.4,MacIntel,111.1111111,,,,,,,,,,,,,,,,,,,,61.328,61.5256,61.5257,62.0261,62.0264,63.3846,z,1,1.3503,,[],[],[],[],[],[],[],1.3503,1,63.3849,63.8848,0,8,8,12,1,1013,NW,UN,33,adveil,SPRINY,z,,,,,,,,,,,,,,,,,,,,,,,,,,,,,,,,,,,,,,,,,,,,,,,,,,,,,,,,,,,,,,,,,
,,,,29278,001,2025-10-15_18h18.58.000,HW_LDT_1,2024.2.4,MacIntel,111.1111111,,,,,,,,,,,,,,,,,,,,63.8862,64.0846,64.0847,64.5846,64.5857,65.4595,z,1,0.8592,,[],[],[],[],[],[],[],0.8592,1,65.4596,65.9597,0,9,9,9,1,1010,NW,"ID",33,fariny,FARINY,z,,,,,,,,,,,,,,,,,,,,,,,,,,,,,,,,,,,,,,,,,,,,,,,,,,,,,,,,,,,,,,,,,
,,,,29278,001,2025-10-15_18h18.58.000,HW_LDT_1,2024.2.4,MacIntel,111.1111111,,,,,,,,,,,,,,,,,,,,65.9609,66.1597,66.1598,66.6588,66.6597,67.3015,m,1,0.6276,,[],[],[],[],[],[],[],0.6276,1,67.3015,67.801,0,10,10,3,1,1004,WORD,"ID",16,matrix,MATRIX,m,,,,,,,,,,,,,,,,,,,,,,,,,,,,,,,,,,,,,,,,,,,,,,,,,,,,,,,,,,,,,,,,,
,,,,29278,001,2025-10-15_18h18.58.000,HW_LDT_1,2024.2.4,MacIntel,111.1111111,,,,,,,,,,,,,,,,,,,,67.8013,68.001,68.001,68.5013,68.5023,69.1595,m,1,0.6465,,[],[],[],[],[],[],[],0.6465,1,69.1596,69.6596,0,11,11,6,1,1007,WORD,UN,16,tropic,ZOMBIE,m,,,,,,,,,,,,,,,,,,,,,,,,,,,,,,,,,,,,,,,,,,,,,,,,,,,,,,,,,,,,,,,,,
,,,,29278,001,2025-10-15_18h18.58.000,HW_LDT_1,2024.2.4,MacIntel,111.1111111,,,,,,,,,,,,,,,,,,,,69.6611,69.8598,69.8598,70.3598,70.3609,71.068,z,1,0.6937,,[],[],[],[],[],[],[],0.6937,1,71.0682,71.5676,0,12,12,10,1,1011,NW,"ID",16,inlade,INLADE,z,,,,,,,,,,,,,,,,,,,,,,,,,,,,,,,,,,,,,,,,,,,,,,,,,,,,,,,,,,,,,,,,,
,,,,29278,001,2025-10-15_18h18.58.000,HW_LDT_1,2024.2.4,MacIntel,111.1111111,,,,,,,,,,,,,,,,,,,,71.5689,71.7677,71.7678,72.268,72.2685,72.9932,z,1,0.7159,,[],[],[],[],[],[],[],0.7159,1,72.9933,73.4926,0,13,13,15,1,1016,NW,UN,16,mushed,WHAISE,z,,,,,,,,,,,,,,,,,,,,,,,,,,,,,,,,,,,,,,,,,,,,,,,,,,,,,,,,,,,,,,,,,
,,,,29278,001,2025-10-15_18h18.58.000,HW_LDT_1,2024.2.4,MacIntel,111.1111111,,,,,,,,,,,,,,,,,,,,73.494,73.693,73.6932,74.193,74.194,74.7764,m,1,0.5674,,[],[],[],[],[],[],[],0.5674,1,74.7765,75.2765,0,14,14,5,1,1006,WORD,UN,33,frenzy,OBTAIN,m,,,,,,,,,,,,,,,,,,,,,,,,,,,,,,,,,,,,,,,,,,,,,,,,,,,,,,,,,,,,,,,,,
,,,,29278,001,2025-10-15_18h18.58.000,HW_LDT_1,2024.2.4,MacIntel,111.1111111,,,,,,,,,,,,,,,,,,,,75.2777,75.4764,75.4764,75.9757,75.9763,76.5257,m,1,0.5411,,[],[],[],[],[],[],[],0.5411,1,76.5259,77.0264,0,15,15,4,1,1005,WORD,UN,33,abound,SQUEAK,m,,,,,,,,,,,,,,,,,,,,,,,,,,,,,,,,,,,,,,,,,,,,,,,,,,,,,,,,,,,,,,,,,
,,,,29278,001,2025-10-15_18h18.58.000,HW_LDT_1,2024.2.4,MacIntel,111.1111111,,,,,,,,,,,,,,,1,end_of_practice,"You have completed the practice trials. During the experimental trials, you will not receive feedback. On some trials you will be asked to report whether the item you just saw was in cursive or print. 
Before you begin, please ensure that you are in a comfortable and quiet location and will not be disturbed for about 15 minutes, as we cannot use your data if you do not complete all the trials. 
 When you are ready to start the experimental trials, please press space or touch the button below.",,,,,,,,,,,,,,,,,,,,,,,,,,,,,,,,,,,,77.0311,87.2269,,-0.080865575,-0.374677579,1,0,0,instr_done_button_3,0,0,0,0,1,,,,,,,,,,,,,,,,,,,,,,,,,,,,,,,,,,,,,,,,,,,,,,,,,,,
,,,,29278,001,2025-10-15_18h18.58.000,HW_LDT_1,2024.2.4,MacIntel,111.1111111,,,,,,,,,,,,,,,,,,,,87.2411,87.4257,87.4258,87.9261,,,,,,,,,,,,,,1.3505,1,,,,,,,,,,,,,,z,,,,,,,,,,,,,,,1,0,87.927,89.285,z,1,1.3505,,[],[],[],[],[],[],[],89.2852,91.2851,91.2853,91.2883,[],[],[],[],[],[],[],,91.2884,91.29,-0.080865575,-0.374677579,0,0,0,,0,0,0,74,1,4,TL,rerite,print,rerite_p.png,,,,,,
,,,,29278,001,2025-10-15_18h18.58.000,HW_LDT_1,2024.2.4,MacIntel,111.1111111,,,,,,,,,,,,,,,,,,,,91.2909,91.4847,91.4847,91.9845,,,,,,,,,,,,,,0.6692,1,,,,,,,,,,,,,,m,,,,,,,,,,,,,,,2,0,91.9847,92.6598,m,1,0.6692,,[],[],[],[],[],[],[],92.6598,94.6596,94.6596,94.6597,[],[],[],[],[],[],[],,94.6598,94.6598,-0.080865575,-0.374677579,0,0,0,,0,1,1,140,1,4,word,RELATIVE,print,relative_p.png,,,,,,
,,,,29278,001,2025-10-15_18h18.58.000,HW_LDT_1,2024.2.4,MacIntel,111.1111111,,,,,,,,,,,,,,,,,,,,94.6605,94.8597,94.8598,95.3597,,,,,,,,,,,,,,0.7794,1,,,,,,,,,,,,,,z,,,,,,,,,,,,,,,3,0,95.3605,96.143,z,1,0.7794,,[],[],[],[],[],[],[],96.1431,98.1431,98.1432,98.1435,[],[],[],[],[],[],[],,98.1436,98.1436,-0.080865575,-0.374677579,0,0,0,,0,2,2,62,1,4,TL,locigal,print,locigal_p.png,,,,,,
,,,,29278,001,2025-10-15_18h18.58.000,HW_LDT_1,2024.2.4,MacIntel,111.1111111,,,,,,,,,,,,,,,,,,,,98.1448,98.3431,98.3432,98.8431,,,,,,,,,,,,,,0.846,1,,,,,,,,,,,,,,z,,,,,,,,,,,,,,,4,0,98.8436,99.6931,z,1,0.846,,[],[],[],[],[],[],[],99.6933,101.6931,101.6932,101.6937,[],[],[],[],[],[],[],,101.6937,101.6938,-0.080865575,-0.374677579,0,0,0,,0,3,3,63,1,4,TL,miskate,print,miskate_p.png,,,,,,
,,,,29278,001,2025-10-15_18h18.58.000,HW_LDT_1,2024.2.4,MacIntel,111.1111111,,,,,,,,,,,,,,,,,,,,101.6948,101.8928,101.8928,102.3932,,,,,,,,,,,,,,1.5769,1,,,,,,,,,,,,,,z,,,,,,,,,,,,,,,5,0,102.3939,103.9762,z,1,1.5769,,[],[],[],[],[],[],[],103.9762,105.9765,105.9766,105.9769,[],[],[],[],[],[],[],,105.9769,105.9771,-0.080865575,-0.374677579,0,0,0,,0,4,4,61,1,4,TL,lotace,cursive,lotace_c.png,,,,,,
,,,,29278,001,2025-10-15_18h18.58.000,HW_LDT_1,2024.2.4,MacIntel,111.1111111,,,,,,,,,,,,,,,,,,,,105.9783,106.1769,106.1769,106.6766,,,,,,,,,,,,,,1.4762,1,,,,,,,,,,,,,,z,,,,,,,,,,,,,,,6,0,106.6774,108.1597,z,1,1.4762,,[],[],[],[],[],[],[],108.1598,110.1592,110.1593,110.1596,[],[],[],[],[],[],[],,110.1597,110.1598,-0.080865575,-0.374677579,0,0,0,,0,5,5,2,1,4,RL,asiral,cursive,asiral_c.png,,,,,,
,,,,29278,001,2025-10-15_18h18.58.000,HW_LDT_1,2024.2.4,MacIntel,111.1111111,,,,,,,,,,,,,,,,,,,,110.1611,110.3599,110.3599,110.8599,,,,,,,,,,,,,,0.5864,1,,,,,,,,,,,,,,m,,,,,,,,,,,,,,,7,0,110.8606,111.4517,m,1,0.5864,,[],[],[],[],[],[],[],111.4518,113.4515,113.4516,113.452,[],[],[],[],[],[],[],,113.452,113.4522,-0.080865575,-0.374677579,0,0,0,,0,6,6,154,1,4,word,STORAGE,print,storage_p.png,,,,,,
,,,,29278,001,2025-10-15_18h18.58.000,HW_LDT_1,2024.2.4,MacIntel,111.1111111,,,,,,,,,,,,,,,,,,,,113.4531,113.6509,113.6512,114.1514,,,,,,,,,,,,,,0.8319,1,,,,,,,,,,,,,,z,,,,,,,,,,,,,,,8,0,114.1519,114.9848,z,1,0.8319,,[],[],[],[],[],[],[],114.9848,116.9846,116.9846,116.9849,[],[],[],[],[],[],[],,116.9849,116.9849,-0.080865575,-0.374677579,0,0,0,,0,7,7,65,1,4,TL,orepator,print,orepator_p.png,,,,,,
,,,,29278,001,2025-10-15_18h18.58.000,HW_LDT_1,2024.2.4,MacIntel,111.1111111,,,,,,,,,,,,,,,,,,,,116.9855,117.1849,117.185,117.6848,,,,,,,,,,,,,,1.5775,1,,,,,,,,,,,,,,z,,,,,,,,,,,,,,,9,0,117.6854,119.2683,z,1,1.5775,,[],[],[],[],[],[],[],119.2684,121.2683,121.2684,121.2686,[],[],[],[],[],[],[],,121.2687,121.2688,-0.080865575,-0.374677579,0,0,0,,0,8,8,41,1,4,RL,rebicent,cursive,rebicent_c.png,,,,,,
,,,,29278,001,2025-10-15_18h18.58.000,HW_LDT_1,2024.2.4,MacIntel,111.1111111,,,,,,,,,,,,,,,,,,,,121.2699,121.4681,121.4681,121.968,,,,,,,,,,,,,,2.2046,1,,,,,,,,,,,,,,z,,,,,,,,,,,,,,,10,0,121.9682,124.1766,z,1,2.2046,,[],[],[],[],[],[],[],124.1767,126.1756,126.1758,126.1761,[],[],[],[],[],[],[],,126.1761,126.1763,-0.080865575,-0.374677579,0,0,0,,0,9,9,59,1,4,TL,fornute,cursive,fornute_c.png,,,,,,
,,,,29278,001,2025-10-15_18h18.58.000,HW_LDT_1,2024.2.4,MacIntel,111.1111111,,,,,,,,,,,,,,,,,,,,126.1775,126.3767,126.3768,126.8763,,,,,,,,,,,,,,2.2542,1,,,,,,,,,,,,,,z,,,,,,,,,,,,,,,11,0,126.8765,129.1348,z,1,2.2542,,[],[],[],[],[],[],[],129.1349,131.1345,131.1345,131.1349,[],[],[],[],[],[],[],,131.1349,131.135,-0.080865575,-0.374677579,0,0,0,,0,10,10,51,1,4,TL,adsivory,cursive,adsivory_c.png,,,,,,
,,,,29278,001,2025-10-15_18h18.58.000,HW_LDT_1,2024.2.4,MacIntel,111.1111111,,,,,,,,,,,,,,,,,,,,131.1364,131.3349,131.3349,131.8349,,,,,,,,,,,,,,2.243,1,,,,,,,,,,,,,,z,,,,,,,,,,,,,,,12,0,131.8356,134.0841,z,1,2.243,,[],[],[],[],[],[],[],134.0842,136.0843,136.0843,136.0845,[],[],[],[],[],[],[],,136.0845,136.0847,-0.080865575,-0.374677579,0,0,0,,0,11,11,52,1,4,TL,cagetory,cursive,cagetory_c.png,,,,,,
,,,,29278,001,2025-10-15_18h18.58.000,HW_LDT_1,2024.2.4,MacIntel,111.1111111,,,,,,,,,,,,,,,,,,,,136.086,136.285,136.2851,136.7842,,,,,,,,,,,,,,0.6638,1,,,,,,,,,,,,,,m,,,,,,,,,,,,,,,13,0,136.7847,137.4515,m,1,0.6638,,[],[],[],[],[],[],[],137.4516,139.4515,139.4516,139.452,[],[],[],[],[],[],[],,139.452,139.4521,-0.080865575,-0.374677579,0,0,0,,0,12,12,95,1,4,word,COMEDY,print,comedy_p.png,,,,,,
,,,,29278,001,2025-10-15_18h18.58.000,HW_LDT_1,2024.2.4,MacIntel,111.1111111,,,,,,,,,,,,,,,,,,,,139.4534,139.6517,139.6517,140.1516,,,,,,,,,,,,,,0.5194,1,,,,,,,,,,,,,,m,,,,,,,,,,,,,,,14,1,140.1522,140.6768,m,1,0.5194,,[],[],[],[],[],[],[],140.6768,142.6765,142.6766,146.4264,[],[],[],[],[],[],[],m,146.4265,146.4267,-0.080865575,-0.374677579,0,0,0,,0,13,13,134,1,4,word,QUALIFY,print,qualify_p.png,3.7464,,,,,
,,,,29278,001,2025-10-15_18h18.58.000,HW_LDT_1,2024.2.4,MacIntel,111.1111111,,,,,,,,,,,,,,,,,,,,146.428,146.6263,146.6264,147.1263,,,,,,,,,,,,,,1.2208,1,,,,,,,,,,,,,,z,,,,,,,,,,,,,,,15,0,147.1266,148.3517,z,1,1.2208,,[],[],[],[],[],[],[],148.3518,150.3515,150.3516,150.3518,[],[],[],[],[],[],[],,150.3518,150.352,-0.080865575,-0.374677579,0,0,0,,0,14,14,7,1,4,RL,casena,print,casena_p.png,,,,,,
,,,,29278,001,2025-10-15_18h18.58.000,HW_LDT_1,2024.2.4,MacIntel,111.1111111,,,,,,,,,,,,,,,,,,,,150.3533,150.5516,150.5517,151.0514,,,,,,,,,,,,,,2.8783,1,,,,,,,,,,,,,,z,,,,,,,,,,,,,,,16,0,151.0516,153.9348,z,1,2.8783,,[],[],[],[],[],[],[],153.9348,155.9347,155.9347,155.9349,[],[],[],[],[],[],[],,155.9349,155.9349,-0.080865575,-0.374677579,0,0,0,,0,15,15,1,1,4,RL,afaneur,cursive,afaneur_c.png,,,,,,
,,,,29278,001,2025-10-15_18h18.58.000,HW_LDT_1,2024.2.4,MacIntel,111.1111111,,,,,,,,,,,,,,,,,,,,155.9356,156.135,156.135,156.6346,,,,,,,,,,,,,,0.5854,1,,,,,,,,,,,,,,m,,,,,,,,,,,,,,,17,1,156.6351,157.2267,m,1,0.5854,,[],[],[],[],[],[],[],157.2268,159.2262,159.2262,160.3683,[],[],[],[],[],[],[],m,160.3684,160.3686,-0.080865575,-0.374677579,0,0,0,,0,16,16,115,1,4,word,LOGICAL,print,logical_p.png,1.1385,,,,,
,,,,29278,001,2025-10-15_18h18.58.000,HW_LDT_1,2024.2.4,MacIntel,111.1111111,,,,,,,,,,,,,,,,,,,,160.3696,160.5675,160.5677,161.0683,,,,,,,,,,,,,,0.8768,1,,,,,,,,,,,,,,z,,,,,,,,,,,,,,,18,0,161.0687,161.9515,z,1,0.8768,,[],[],[],[],[],[],[],161.9516,163.9519,163.9519,163.9522,[],[],[],[],[],[],[],,163.9523,163.9525,-0.080865575,-0.374677579,0,0,0,,0,17,17,27,1,4,RL,menowy,print,menowy_p.png,,,,,,
,,,,29278,001,2025-10-15_18h18.58.000,HW_LDT_1,2024.2.4,MacIntel,111.1111111,,,,,,,,,,,,,,,,,,,,163.9536,164.1517,164.1517,164.6517,,,,,,,,,,,,,,2.8113,1,,,,,,,,,,,,,,z,,,,,,,,,,,,,,,19,1,164.6524,167.4682,z,1,2.8113,,[],[],[],[],[],[],[],167.4683,169.4681,169.4682,170.7853,[],[],[],[],[],[],[],z,170.7854,170.7858,-0.080865575,-0.374677579,0,0,0,,0,18,18,33,1,4,RL,pamest,cursive,pamest_c.png,1.3128,,,,,
,,,,29278,001,2025-10-15_18h18.58.000,HW_LDT_1,2024.2.4,MacIntel,111.1111111,,,,,,,,,,,,,,,,,,,,170.7868,170.9853,170.9853,171.4851,,,,,,,,,,,,,,0.7111,1,,,,,,,,,,,,,,z,,,,,,,,,,,,,,,20,0,171.4857,172.2018,z,1,0.7111,,[],[],[],[],[],[],[],172.2019,174.2018,174.2018,174.202,[],[],[],[],[],[],[],,174.2021,174.2022,-0.080865575,-0.374677579,0,0,0,,0,19,19,20,1,4,RL,gralekul,print,gralekul_p.png,,,,,,
,,,,29278,001,2025-10-15_18h18.58.000,HW_LDT_1,2024.2.4,MacIntel,111.1111111,,,,,,,,,,,,,,,,,,,,174.2033,174.402,174.4021,174.9019,,,,,,,,,,,,,,0.5944,1,,,,,,,,,,,,,,m,,,,,,,,,,,,,,,21,0,174.9024,175.5017,m,1,0.5944,,[],[],[],[],[],[],[],175.5017,177.5016,177.5016,177.5018,[],[],[],[],[],[],[],,177.5018,177.5019,-0.080865575,-0.374677579,0,0,0,,0,20,20,117,1,4,word,MARINE,print,marine_p.png,,,,,,
,,,,29278,001,2025-10-15_18h18.58.000,HW_LDT_1,2024.2.4,MacIntel,111.1111111,,,,,,,,,,,,,,,,,,,,177.5031,177.7017,177.7018,178.2017,,,,,,,,,,,,,,1.0861,0,,,,,,,,,,,,,,m,,,,,,,,,,,,,,,22,0,178.2025,179.2934,z,0,1.0861,,[],[],[],[],[],[],[],179.2934,181.2935,181.2936,181.2939,[],[],[],[],[],[],[],,181.2939,181.294,-0.080865575,-0.374677579,0,0,0,,0,21,21,113,1,4,word,LITERAL,cursive,literal_c.png,,,,,,
,,,,29278,001,2025-10-15_18h18.58.000,HW_LDT_1,2024.2.4,MacIntel,111.1111111,,,,,,,,,,,,,,,,,,,,181.2951,181.4926,181.4926,181.9931,,,,,,,,,,,,,,0.871,1,,,,,,,,,,,,,,m,,,,,,,,,,,,,,,23,0,181.9933,182.8686,m,1,0.871,,[],[],[],[],[],[],[],182.8686,184.868,184.8681,184.8682,[],[],[],[],[],[],[],,184.8682,184.8684,-0.080865575,-0.374677579,0,0,0,,0,22,22,150,1,4,word,SENTIMENT,print,sentiment_p.png,,,,,,
,,,,29278,001,2025-10-15_18h18.58.000,HW_LDT_1,2024.2.4,MacIntel,111.1111111,,,,,,,,,,,,,,,,,,,,184.8697,185.0682,185.0682,185.5682,,,,,,,,,,,,,,1.569,1,,,,,,,,,,,,,,m,,,,,,,,,,,,,,,24,0,185.5685,187.1432,m,1,1.569,,[],[],[],[],[],[],[],187.1434,189.1427,189.1427,189.1429,[],[],[],[],[],[],[],,189.143,189.1431,-0.080865575,-0.374677579,0,0,0,,0,23,23,159,1,4,word,VETERAN,cursive,veteran_c.png,,,,,,
,,,,29278,001,2025-10-15_18h18.58.000,HW_LDT_1,2024.2.4,MacIntel,111.1111111,,,,,,,,,,,,,,,,,,,,189.1441,189.3435,189.3435,189.8428,,,,,,,,,,,,,,1.7616,1,,,,,,,,,,,,,,z,,,,,,,,,,,,,,,25,1,189.8432,191.61,z,1,1.7616,,[],[],[],[],[],[],[],191.61,193.6102,193.6102,194.3849,[],[],[],[],[],[],[],z,194.3849,194.385,-0.080865575,-0.374677579,0,0,0,,0,24,24,34,1,4,RL,posity,cursive,posity_c.png,0.7691,,,,,
,,,,29278,001,2025-10-15_18h18.58.000,HW_LDT_1,2024.2.4,MacIntel,111.1111111,,,,,,,,,,,,,,,,,,,,194.3857,194.5854,194.5855,195.0852,,,,,,,,,,,,,,1.2484,1,,,,,,,,,,,,,,z,,,,,,,,,,,,,,,26,1,195.0858,196.3352,z,1,1.2484,,[],[],[],[],[],[],[],196.3353,198.3346,198.3348,198.8847,[],[],[],[],[],[],[],z,198.8848,198.8849,-0.080865575,-0.374677579,0,0,0,,0,25,25,26,1,4,RL,mesibine,cursive,mesibine_c.png,0.5453,,,,,
,,,,29278,001,2025-10-15_18h18.58.000,HW_LDT_1,2024.2.4,MacIntel,111.1111111,,,,,,,,,,,,,,,,,,,,198.886,199.0849,199.0849,199.5849,,,,,,,,,,,,,,0.6283,1,,,,,,,,,,,,,,m,,,,,,,,,,,,,,,27,0,199.5851,200.2179,m,1,0.6283,,[],[],[],[],[],[],[],200.218,202.2187,202.2187,202.2189,[],[],[],[],[],[],[],,202.219,202.219,-0.080865575,-0.374677579,0,0,0,,0,26,26,94,1,4,word,CLINICAL,print,clinical_p.png,,,,,,
,,,,29278,001,2025-10-15_18h18.58.000,HW_LDT_1,2024.2.4,MacIntel,111.1111111,,,,,,,,,,,,,,,,,,,,202.22,202.4184,202.4185,202.9186,,,,,,,,,,,,,,2.2361,1,,,,,,,,,,,,,,z,,,,,,,,,,,,,,,28,0,202.9192,205.1592,z,1,2.2361,,[],[],[],[],[],[],[],205.1592,207.1603,207.1603,207.1606,[],[],[],[],[],[],[],,207.1607,207.1608,-0.080865575,-0.374677579,0,0,0,,0,27,27,6,1,4,RL,caleberia,cursive,caleberia_c.png,,,,,,
,,,,29278,001,2025-10-15_18h18.58.000,HW_LDT_1,2024.2.4,MacIntel,111.1111111,,,,,,,,,,,,,,,,,,,,207.162,207.3599,207.3599,207.8601,,,,,,,,,,,,,,1.0518,1,,,,,,,,,,,,,,m,,,,,,,,,,,,,,,29,1,207.8606,208.9183,m,1,1.0518,,[],[],[],[],[],[],[],208.9183,210.9184,210.9185,211.6931,[],[],[],[],[],[],[],z,211.6932,211.6933,-0.080865575,-0.374677579,0,0,0,,0,28,28,106,1,4,word,ELABORATE,cursive,elaborate_c.png,0.7708,,,,,
,,,,29278,001,2025-10-15_18h18.58.000,HW_LDT_1,2024.2.4,MacIntel,111.1111111,,,,,,,,,,,,,,,,,,,,211.6945,211.8935,211.8936,212.3934,,,,,,,,,,,,,,0.8289,1,,,,,,,,,,,,,,z,,,,,,,,,,,,,,,30,0,212.3939,213.2269,z,1,0.8289,,[],[],[],[],[],[],[],213.2271,215.2269,215.2269,215.2273,[],[],[],[],[],[],[],,215.2273,215.2274,-0.080865575,-0.374677579,0,0,0,,0,29,29,40,1,4,RL,reconal,print,reconal_p.png,,,,,,
,,,,29278,001,2025-10-15_18h18.58.000,HW_LDT_1,2024.2.4,MacIntel,111.1111111,,,,,,,,,,,,,,,,,,,,215.2285,215.4263,215.4265,215.9267,,,,,,,,,,,,,,1.3441,1,,,,,,,,,,,,,,z,,,,,,,,,,,,,,,31,1,215.9273,217.2766,z,1,1.3441,,[],[],[],[],[],[],[],217.2766,219.2768,219.2768,220.4433,[],[],[],[],[],[],[],z,220.4434,220.4434,-0.080865575,-0.374677579,0,0,0,,0,30,30,50,1,4,RL,vecelan,cursive,vecelan_c.png,1.1615,,,,,
,,,,29278,001,2025-10-15_18h18.58.000,HW_LDT_1,2024.2.4,MacIntel,111.1111111,,,,,,,,,,,,,,,,,,,,220.4442,220.6437,220.6438,221.1434,,,,,,,,,,,,,,1.0961,1,,,,,,,,,,,,,,m,,,,,,,,,,,,,,,32,0,221.144,222.2437,m,1,1.0961,,[],[],[],[],[],[],[],222.2437,224.2435,224.2436,224.2437,[],[],[],[],[],[],[],,224.2438,224.2439,-0.080865575,-0.374677579,0,0,0,,0,31,31,130,1,4,word,POLICY,cursive,policy_c.png,,,,,,
,,,,29278,001,2025-10-15_18h18.58.000,HW_LDT_1,2024.2.4,MacIntel,111.1111111,,,,,,,,,,,,,,,,,,,,224.2451,224.4436,224.4436,224.9436,,,,,,,,,,,,,,0.553,1,,,,,,,,,,,,,,m,,,,,,,,,,,,,,,33,0,224.9443,225.502,m,1,0.553,,[],[],[],[],[],[],[],225.502,227.502,227.502,227.5024,[],[],[],[],[],[],[],,227.5024,227.5025,-0.080865575,-0.374677579,0,0,0,,0,32,32,146,1,4,word,RETIRE,print,retire_p.png,,,,,,
,,,,29278,001,2025-10-15_18h18.58.000,HW_LDT_1,2024.2.4,MacIntel,111.1111111,,,,,,,,,,,,,,,,,,,,227.5037,227.7012,227.7012,228.2021,,,,,,,,,,,,,,0.5689,1,,,,,,,,,,,,,,m,,,,,,,,,,,,,,,34,0,228.2025,228.7768,m,1,0.5689,,[],[],[],[],[],[],[],228.7769,230.7766,230.7767,230.7767,[],[],[],[],[],[],[],,230.7768,230.7768,-0.080865575,-0.374677579,0,0,0,,0,33,33,121,1,4,word,MISTAKE,print,mistake_p.png,,,,,,
,,,,29278,001,2025-10-15_18h18.58.000,HW_LDT_1,2024.2.4,MacIntel,111.1111111,,,,,,,,,,,,,,,,,,,,230.7775,230.9769,230.977,231.4769,,,,,,,,,,,,,,0.6617,1,,,,,,,,,,,,,,z,,,,,,,,,,,,,,,35,0,231.4774,232.1434,z,1,0.6617,,[],[],[],[],[],[],[],232.1435,234.1436,234.1438,234.144,[],[],[],[],[],[],[],,234.144,234.1442,-0.080865575,-0.374677579,0,0,0,,0,34,34,9,1,4,RL,cafigal,print,cafigal_p.png,,,,,,
,,,,29278,001,2025-10-15_18h18.58.000,HW_LDT_1,2024.2.4,MacIntel,111.1111111,,,,,,,,,,,,,,,,,,,,234.1454,234.343,234.343,234.8436,,,,,,,,,,,,,,3.7607,0,,,,,,,,,,,,,,m,,,,,,,,,,,,,,,36,0,234.8442,238.6105,z,0,3.7607,,[],[],[],[],[],[],[],238.6106,240.61,240.6101,240.6101,[],[],[],[],[],[],[],,240.6101,240.6102,-0.080865575,-0.374677579,0,0,0,,0,35,35,102,1,4,word,DENSITY,cursive,density_c.png,,,,,,
,,,,29278,001,2025-10-15_18h18.58.000,HW_LDT_1,2024.2.4,MacIntel,111.1111111,,,,,,,,,,,,,,,,,,,,240.6108,240.8104,240.8104,241.3102,,,,,,,,,,,,,,1.1364,1,,,,,,,,,,,,,,z,,,,,,,,,,,,,,,37,0,241.3109,242.4512,z,1,1.1364,,[],[],[],[],[],[],[],242.4514,244.4521,244.4521,244.4524,[],[],[],[],[],[],[],,244.4524,244.4525,-0.080865575,-0.374677579,0,0,0,,0,36,36,54,1,4,TL,codemy,print,codemy_p.png,,,,,,
,,,,29278,001,2025-10-15_18h18.58.000,HW_LDT_1,2024.2.4,MacIntel,111.1111111,,,,,,,,,,,,,,,,,,,,244.454,244.652,244.6521,245.152,,,,,,,,,,,,,,0.5863,1,,,,,,,,,,,,,,m,,,,,,,,,,,,,,,38,0,245.1527,245.7436,m,1,0.5863,,[],[],[],[],[],[],[],245.7436,247.7427,247.7428,247.743,[],[],[],[],[],[],[],,247.743,247.7431,-0.080865575,-0.374677579,0,0,0,,0,37,37,105,1,4,word,EDITOR,print,editor_p.png,,,,,,
,,,,29278,001,2025-10-15_18h18.58.000,HW_LDT_1,2024.2.4,MacIntel,111.1111111,,,,,,,,,,,,,,,,,,,,247.7442,247.9439,247.9439,248.4438,,,,,,,,,,,,,,1.6486,1,,,,,,,,,,,,,,m,,,,,,,,,,,,,,,39,1,248.4443,250.0935,m,1,1.6486,,[],[],[],[],[],[],[],250.0936,252.0933,252.0934,252.4519,[],[],[],[],[],[],[],z,252.4519,252.4521,-0.080865575,-0.374677579,0,0,0,,0,38,38,116,1,4,word,MARGINAL,cursive,marginal_c.png,0.3537,,,,,
,,,,29278,001,2025-10-15_18h18.58.000,HW_LDT_1,2024.2.4,MacIntel,111.1111111,,,,,,,,,,,,,,,,,,,,252.4527,252.6513,252.6513,253.1519,,,,,,,,,,,,,,1.9155,0,,,,,,,,,,,,,,m,,,,,,,,,,,,,,,40,0,253.1524,255.0685,z,0,1.9155,,[],[],[],[],[],[],[],255.0687,257.0686,257.0686,257.0688,[],[],[],[],[],[],[],,257.0689,257.0689,-0.080865575,-0.374677579,0,0,0,,0,39,39,138,1,4,word,REFUSAL,cursive,refusal_c.png,,,,,,
,,,,29278,001,2025-10-15_18h18.58.000,HW_LDT_1,2024.2.4,MacIntel,111.1111111,,,,,,,,,,,,,,,,,,,,257.0699,257.2687,257.2688,257.7688,,,,,,,,,,,,,,0.5783,1,,,,,,,,,,,,,,m,,,,,,,,,,,,,,,41,0,257.7693,258.3518,m,1,0.5783,,[],[],[],[],[],[],[],258.3519,260.3518,260.3519,260.352,[],[],[],[],[],[],[],,260.352,260.352,-0.080865575,-0.374677579,0,0,0,,0,40,40,93,1,4,word,CEREMONY,print,ceremony_p.png,,,,,,
,,,,29278,001,2025-10-15_18h18.58.000,HW_LDT_1,2024.2.4,MacIntel,111.1111111,,,,,,,,,,,,,,,,,,,,260.3528,260.5517,260.5517,261.0514,,,,,,,,,,,,,,0.6949,1,,,,,,,,,,,,,,m,,,,,,,,,,,,,,,42,0,261.0519,261.7513,m,1,0.6949,,[],[],[],[],[],[],[],261.7513,263.7521,263.7522,263.7523,[],[],[],[],[],[],[],,263.7524,263.7524,-0.080865575,-0.374677579,0,0,0,,0,41,41,112,1,4,word,LIBERAL,cursive,liberal_c.png,,,,,,
,,,,29278,001,2025-10-15_18h18.58.000,HW_LDT_1,2024.2.4,MacIntel,111.1111111,,,,,,,,,,,,,,,,,,,,263.7534,263.9518,263.9519,264.4521,,,,,,,,,,,,,,0.8703,1,,,,,,,,,,,,,,z,,,,,,,,,,,,,,,43,0,264.4527,265.3269,z,1,0.8703,,[],[],[],[],[],[],[],265.327,267.3271,267.3273,267.3274,[],[],[],[],[],[],[],,267.3276,267.3277,-0.080865575,-0.374677579,0,0,0,,0,42,42,64,1,4,TL,moredate,print,moredate_p.png,,,,,,
,,,,29278,001,2025-10-15_18h18.58.000,HW_LDT_1,2024.2.4,MacIntel,111.1111111,,,,,,,,,,,,,,,,,,,,267.3287,267.5269,267.5269,268.0271,,,,,,,,,,,,,,3.6265,1,,,,,,,,,,,,,,m,,,,,,,,,,,,,,,44,0,268.0279,271.6604,m,1,3.6265,,[],[],[],[],[],[],[],271.6605,273.6605,273.6605,273.6607,[],[],[],[],[],[],[],,273.6608,273.661,-0.080865575,-0.374677579,0,0,0,,0,43,43,101,1,4,word,DELICATE,cursive,delicate_c.png,,,,,,
,,,,29278,001,2025-10-15_18h18.58.000,HW_LDT_1,2024.2.4,MacIntel,111.1111111,,,,,,,,,,,,,,,,,,,,273.6621,273.8602,273.8602,274.36,,,,,,,,,,,,,,0.7124,1,,,,,,,,,,,,,,m,,,,,,,,,,,,,,,45,0,274.3604,275.077,m,1,0.7124,,[],[],[],[],[],[],[],275.0771,277.0769,277.0769,277.0772,[],[],[],[],[],[],[],,277.0773,277.0774,-0.080865575,-0.374677579,0,0,0,,0,44,44,127,1,4,word,ORIGINAL,print,original_p.png,,,,,,
,,,,29278,001,2025-10-15_18h18.58.000,HW_LDT_1,2024.2.4,MacIntel,111.1111111,,,,,,,,,,,,,,,,,,,,277.0785,277.277,277.2771,277.7763,,,,,,,,,,,,,,0.5857,1,,,,,,,,,,,,,,m,,,,,,,,,,,,,,,46,0,277.7767,278.3677,m,1,0.5857,,[],[],[],[],[],[],[],278.3678,280.3686,280.3687,280.3689,[],[],[],[],[],[],[],,280.369,280.3691,-0.080865575,-0.374677579,0,0,0,,0,45,45,120,1,4,word,MILITARY,print,military_p.png,,,,,,
,,,,29278,001,2025-10-15_18h18.58.000,HW_LDT_1,2024.2.4,MacIntel,111.1111111,,,,,,,,,,,,,,,,,,,,280.3705,280.5678,280.5678,281.0687,,,,,,,,,,,,,,2.4439,1,,,,,,,,,,,,,,z,,,,,,,,,,,,,,,47,0,281.0693,283.5188,z,1,2.4439,,[],[],[],[],[],[],[],283.5189,285.5181,285.5182,285.5184,[],[],[],[],[],[],[],,285.5184,285.5185,-0.080865575,-0.374677579,0,0,0,,0,46,46,56,1,4,TL,donimant,cursive,donimant_c.png,,,,,,
,,,,29278,001,2025-10-15_18h18.58.000,HW_LDT_1,2024.2.4,MacIntel,111.1111111,,,,,,,,,,,,,,,,,,,,285.5198,285.7186,285.7187,286.2187,,,,,,,,,,,,,,0.8357,1,,,,,,,,,,,,,,z,,,,,,,,,,,,,,,48,0,286.2193,287.0604,z,1,0.8357,,[],[],[],[],[],[],[],287.0604,289.0604,289.0604,289.0606,[],[],[],[],[],[],[],,289.0606,289.0608,-0.080865575,-0.374677579,0,0,0,,0,47,47,79,1,4,TL,tritube,print,tritube_p.png,,,,,,
,,,,29278,001,2025-10-15_18h18.58.000,HW_LDT_1,2024.2.4,MacIntel,111.1111111,,,,,,,,,,,,,,,,,,,,289.0618,289.2604,289.2607,289.7604,,,,,,,,,,,,,,0.8851,1,,,,,,,,,,,,,,z,,,,,,,,,,,,,,,49,1,289.761,290.652,z,1,0.8851,,[],[],[],[],[],[],[],290.652,292.652,292.6521,294.2021,[],[],[],[],[],[],[],m,294.2021,294.2022,-0.080865575,-0.374677579,0,0,0,,0,48,48,70,1,4,TL,quatily,print,quatily_p.png,1.5456,,,,,
,,,,29278,001,2025-10-15_18h18.58.000,HW_LDT_1,2024.2.4,MacIntel,111.1111111,,,,,,,,,,,,,,,,,,,,294.2033,294.4022,294.4022,294.9012,,,,,,,,,,,,,,1.3454,1,,,,,,,,,,,,,,m,,,,,,,,,,,,,,,50,0,294.9017,296.2522,m,1,1.3454,,[],[],[],[],[],[],[],296.2522,298.2518,298.2519,298.252,[],[],[],[],[],[],[],,298.252,298.252,-0.080865575,-0.374677579,0,0,0,,0,49,49,123,1,4,word,MODERATE,print,moderate_p.png,,,,,,
,,,,29278,001,2025-10-15_18h18.58.000,HW_LDT_1,2024.2.4,MacIntel,111.1111111,,,,,,,,,,,,,,,,,,,,298.2527,298.4518,298.4519,298.9519,,,,,,,,,,,,,,1.9187,1,,,,,,,,,,,,,,m,,,,,,,,,,,,,,,51,1,298.952,300.8769,m,1,1.9187,,[],[],[],[],[],[],[],300.877,302.8771,302.8773,303.8187,[],[],[],[],[],[],[],z,303.8187,303.8188,-0.080865575,-0.374677579,0,0,0,,0,50,50,114,1,4,word,LOCATE,cursive,locate_c.png,0.9364,,,,,
,,,,29278,001,2025-10-15_18h18.58.000,HW_LDT_1,2024.2.4,MacIntel,111.1111111,,,,,,,,,,,,,,,,,,,,303.8196,304.0179,304.018,304.5185,,,,,,,,,,,,,,1.0518,0,,,,,,,,,,,,,,z,,,,,,,,,,,,,,,52,0,304.5189,305.5769,m,0,1.0518,,[],[],[],[],[],[],[],305.5769,307.577,307.5771,307.5772,[],[],[],[],[],[],[],,307.5773,307.5773,-0.080865575,-0.374677579,0,0,0,,0,51,51,77,1,4,TL,spemicen,cursive,spemicen_c.png,,,,,,
,,,,29278,001,2025-10-15_18h18.58.000,HW_LDT_1,2024.2.4,MacIntel,111.1111111,,,,,,,,,,,,,,,,,,,,307.5785,307.7768,307.7768,308.2771,,,,,,,,,,,,,,0.6618,1,,,,,,,,,,,,,,m,,,,,,,,,,,,,,,53,0,308.2776,308.9437,m,1,0.6618,,[],[],[],[],[],[],[],308.9438,310.944,310.9441,310.9444,[],[],[],[],[],[],[],,310.9444,310.9445,-0.080865575,-0.374677579,0,0,0,,0,52,52,125,1,4,word,OPERATOR,print,operator_p.png,,,,,,
,,,,29278,001,2025-10-15_18h18.58.000,HW_LDT_1,2024.2.4,MacIntel,111.1111111,,,,,,,,,,,,,,,,,,,,310.9456,311.1439,311.1439,311.644,,,,,,,,,,,,,,0.7009,1,,,,,,,,,,,,,,z,,,,,,,,,,,,,,,54,0,311.6447,312.3512,z,1,0.7009,,[],[],[],[],[],[],[],312.3512,314.3519,314.352,314.3521,[],[],[],[],[],[],[],,314.3522,314.3522,-0.080865575,-0.374677579,0,0,0,,0,53,53,38,1,4,RL,refakive,print,refakive_p.png,,,,,,
,,,,29278,001,2025-10-15_18h18.58.000,HW_LDT_1,2024.2.4,MacIntel,111.1111111,,,,,,,,,,,,,,,,,,,,314.3529,314.5511,314.5512,315.0517,,,,,,,,,,,,,,0.6114,1,,,,,,,,,,,,,,z,,,,,,,,,,,,,,,55,0,315.0522,315.6688,z,1,0.6114,,[],[],[],[],[],[],[],315.6688,317.6689,317.6691,317.6693,[],[],[],[],[],[],[],,317.6694,317.6694,-0.080865575,-0.374677579,0,0,0,,0,54,54,11,1,4,RL,clisimal,print,clisimal_p.png,,,,,,
,,,,29278,001,2025-10-15_18h18.58.000,HW_LDT_1,2024.2.4,MacIntel,111.1111111,,,,,,,,,,,,,,,,,,,,317.6706,317.8687,317.8689,318.3688,,,,,,,,,,,,,,0.6115,1,,,,,,,,,,,,,,m,,,,,,,,,,,,,,,56,1,318.3695,318.9853,m,1,0.6115,,[],[],[],[],[],[],[],318.9854,320.9852,320.9852,321.7106,[],[],[],[],[],[],[],m,321.7107,321.7109,-0.080865575,-0.374677579,0,0,0,,0,55,55,103,1,4,word,DISPUTE,print,dispute_p.png,0.7206,,,,,
,,,,29278,001,2025-10-15_18h18.58.000,HW_LDT_1,2024.2.4,MacIntel,111.1111111,,,,,,,,,,,,,,,,,,,,321.712,321.9105,321.9106,322.4105,,,,,,,,,,,,,,2.2872,1,,,,,,,,,,,,,,z,,,,,,,,,,,,,,,57,0,322.4111,324.7022,z,1,2.2872,,[],[],[],[],[],[],[],324.7022,326.7012,326.7012,326.7014,[],[],[],[],[],[],[],,326.7014,326.7014,-0.080865575,-0.374677579,0,0,0,,0,56,56,13,1,4,RL,crisival,cursive,crisival_c.png,,,,,,
,,,,29278,001,2025-10-15_18h18.58.000,HW_LDT_1,2024.2.4,MacIntel,111.1111111,,,,,,,,,,,,,,,,,,,,326.7026,326.9018,326.9018,327.4021,,,,,,,,,,,,,,0.9272,1,,,,,,,,,,,,,,m,,,,,,,,,,,,,,,58,0,327.4028,328.3356,m,1,0.9272,,[],[],[],[],[],[],[],328.3356,330.3355,330.3355,330.3357,[],[],[],[],[],[],[],,330.3357,330.3359,-0.080865575,-0.374677579,0,0,0,,0,57,57,153,1,4,word,STOLEN,cursive,stolen_c.png,,,,,,
,,,,29278,001,2025-10-15_18h18.58.000,HW_LDT_1,2024.2.4,MacIntel,111.1111111,,,,,,,,,,,,,,,,,,,,330.3371,330.5355,330.5355,331.0354,,,,,,,,,,,,,,1.5017,1,,,,,,,,,,,,,,m,,,,,,,,,,,,,,,59,0,331.0357,332.5436,m,1,1.5017,,[],[],[],[],[],[],[],332.5437,334.5438,334.5439,334.544,[],[],[],[],[],[],[],,334.5441,334.5443,-0.080865575,-0.374677579,0,0,0,,0,58,58,88,1,4,word,CAMERA,print,camera_p.png,,,,,,
,,,,29278,001,2025-10-15_18h18.58.000,HW_LDT_1,2024.2.4,MacIntel,111.1111111,,,,,,,,,,,,,,,,,,,,334.5454,334.7438,334.7438,335.2439,,,,,,,,,,,,,,0.8445,1,,,,,,,,,,,,,,z,,,,,,,,,,,,,,,60,0,335.2444,336.0939,z,1,0.8445,,[],[],[],[],[],[],[],336.0941,338.093,338.093,338.0933,[],[],[],[],[],[],[],,338.0933,338.0934,-0.080865575,-0.374677579,0,0,0,,0,59,59,69,1,4,TL,quafily,print,quafily_p.png,,,,,,
,,,,29278,001,2025-10-15_18h18.58.000,HW_LDT_1,2024.2.4,MacIntel,111.1111111,,,,,,,,,,,,,,,,,,,,338.0945,338.2938,338.2939,338.7937,,,,,,,,,,,,,,0.7287,1,,,,,,,,,,,,,,z,,,,,,,,,,,,,,,61,0,338.794,339.5273,z,1,0.7287,,[],[],[],[],[],[],[],339.5274,341.5272,341.5272,341.5274,[],[],[],[],[],[],[],,341.5275,341.5277,-0.080865575,-0.374677579,0,0,0,,0,60,60,47,1,4,RL,stopave,print,stopave_p.png,,,,,,
,,,,29278,001,2025-10-15_18h18.58.000,HW_LDT_1,2024.2.4,MacIntel,111.1111111,,,,,,,,,,,,,,,,,,,,341.5288,341.7272,341.7272,342.2272,,,,,,,,,,,,,,1.3207,1,,,,,,,,,,,,,,z,,,,,,,,,,,,,,,62,0,342.2276,343.5522,z,1,1.3207,,[],[],[],[],[],[],[],343.5524,345.5519,345.552,345.5521,[],[],[],[],[],[],[],,345.5521,345.5522,-0.080865575,-0.374677579,0,0,0,,0,61,61,35,1,4,RL,probice,cursive,probice_c.png,,,,,,
,,,,29278,001,2025-10-15_18h18.58.000,HW_LDT_1,2024.2.4,MacIntel,111.1111111,,,,,,,,,,,,,,,,,,,,345.5528,345.7518,345.7518,346.2523,,,,,,,,,,,,,,2.7896,1,,,,,,,,,,,,,,z,,,,,,,,,,,,,,,63,1,346.2529,349.0439,z,1,2.7896,,[],[],[],[],[],[],[],349.044,351.0438,351.0439,351.894,[],[],[],[],[],[],[],z,351.894,351.8942,-0.080865575,-0.374677579,0,0,0,,0,62,62,24,1,4,RL,marmipal,cursive,marmipal_c.png,0.8457,,,,,
,,,,29278,001,2025-10-15_18h18.58.000,HW_LDT_1,2024.2.4,MacIntel,111.1111111,,,,,,,,,,,,,,,,,,,,351.8952,352.0937,352.0937,352.5939,,,,,,,,,,,,,,1.0029,1,,,,,,,,,,,,,,m,,,,,,,,,,,,,,,64,0,352.5945,353.6022,m,1,1.0029,,[],[],[],[],[],[],[],353.6023,355.6016,355.6017,355.6019,[],[],[],[],[],[],[],,355.6019,355.602,-0.080865575,-0.374677579,0,0,0,,0,63,63,152,1,4,word,SPECIMEN,cursive,specimen_c.png,,,,,,
,,,,29278,001,2025-10-15_18h18.58.000,HW_LDT_1,2024.2.4,MacIntel,111.1111111,,,,,,,,,,,,,,,,,,,,355.6033,355.8025,355.8025,356.302,,,,,,,,,,,,,,2.0704,1,,,,,,,,,,,,,,m,,,,,,,,,,,,,,,65,0,356.3027,358.3772,m,1,2.0704,,[],[],[],[],[],[],[],358.3772,360.3772,360.3772,360.3774,[],[],[],[],[],[],[],,360.3774,360.3775,-0.080865575,-0.374677579,0,0,0,,0,64,64,104,1,4,word,DOMINANT,cursive,dominant_c.png,,,,,,
,,,,29278,001,2025-10-15_18h18.58.000,HW_LDT_1,2024.2.4,MacIntel,111.1111111,,,,,,,,,,,,,,,,,,,,360.3785,360.5767,360.5767,361.0773,,,,,,,,,,,,,,2.377,1,,,,,,,,,,,,,,z,,,,,,,,,,,,,,,66,1,361.0779,363.4604,z,1,2.377,,[],[],[],[],[],[],[],363.4605,365.4606,365.4606,366.1857,[],[],[],[],[],[],[],z,366.1858,366.1859,-0.080865575,-0.374677579,0,0,0,,0,65,65,22,1,4,RL,linedal,cursive,linedal_c.png,0.7199,,,,,
,,,,29278,001,2025-10-15_18h18.58.000,HW_LDT_1,2024.2.4,MacIntel,111.1111111,,,,,,,,,,,,,,,,,,,,366.1872,366.3858,366.3859,366.8853,,,,,,,,,,,,,,2.1408,1,,,,,,,,,,,,,,m,,,,,,,,,,,,,,,67,0,366.8857,369.0274,m,1,2.1408,,[],[],[],[],[],[],[],369.0274,371.0271,371.0271,371.0271,[],[],[],[],[],[],[],,371.0273,371.0273,-0.080865575,-0.374677579,0,0,0,,0,66,66,151,1,4,word,SPECIFIC,cursive,specific_c.png,,,,,,
,,,,29278,001,2025-10-15_18h18.58.000,HW_LDT_1,2024.2.4,MacIntel,111.1111111,,,,,,,,,,,,,,,,,,,,371.0279,371.2273,371.2273,371.7273,,,,,,,,,,,,,,2.0871,1,,,,,,,,,,,,,,z,,,,,,,,,,,,,,,68,0,371.7279,373.8191,z,1,2.0871,,[],[],[],[],[],[],[],373.8191,375.8183,375.8184,375.8186,[],[],[],[],[],[],[],,375.8186,375.8187,-0.080865575,-0.374677579,0,0,0,,0,67,67,23,1,4,RL,linefal,cursive,linefal_c.png,,,,,,
,,,,29278,001,2025-10-15_18h18.58.000,HW_LDT_1,2024.2.4,MacIntel,111.1111111,,,,,,,,,,,,,,,,,,,,375.8198,376.0191,376.0191,376.519,,,,,,,,,,,,,,0.8574,1,,,,,,,,,,,,,,m,,,,,,,,,,,,,,,69,1,376.5195,377.3775,m,1,0.8574,,[],[],[],[],[],[],[],377.3775,379.3773,379.3774,380.594,[],[],[],[],[],[],[],m,380.5941,380.5942,-0.080865575,-0.374677579,0,0,0,,0,68,68,84,1,4,word,BELOVED,print,beloved_p.png,1.215,,,,,
,,,,29278,001,2025-10-15_18h18.58.000,HW_LDT_1,2024.2.4,MacIntel,111.1111111,,,,,,,,,,,,,,,,,,,,380.5953,380.7936,380.7936,381.2939,,,,,,,,,,,,,,1.6692,1,,,,,,,,,,,,,,z,,,,,,,,,,,,,,,70,1,381.2946,382.9688,z,1,1.6692,,[],[],[],[],[],[],[],382.9689,384.9692,384.9692,385.7439,[],[],[],[],[],[],[],z,385.7439,385.744,-0.080865575,-0.374677579,0,0,0,,0,69,69,14,1,4,RL,delahe,cursive,delahe_c.png,0.7704,,,,,
,,,,29278,001,2025-10-15_18h18.58.000,HW_LDT_1,2024.2.4,MacIntel,111.1111111,,,,,,,,,,,,,,,,,,,,385.7446,385.9441,385.9442,386.444,,,,,,,,,,,,,,0.7294,1,,,,,,,,,,,,,,z,,,,,,,,,,,,,,,71,0,386.4446,387.1772,z,1,0.7294,,[],[],[],[],[],[],[],387.1773,389.1773,389.1774,389.1774,[],[],[],[],[],[],[],,389.1775,389.1776,-0.080865575,-0.374677579,0,0,0,,0,70,70,31,1,4,RL,orimipal,print,orimipal_p.png,,,,,,
,,,,29278,001,2025-10-15_18h18.58.000,HW_LDT_1,2024.2.4,MacIntel,111.1111111,,,,,,,,,,,,,,,,,,,,389.1788,389.3774,389.3774,389.8774,,,,,,,,,,,,,,1.1215,1,,,,,,,,,,,,,,m,,,,,,,,,,,,,,,72,0,389.878,391.0022,m,1,1.1215,,[],[],[],[],[],[],[],391.0023,393.0018,393.0019,393.0021,[],[],[],[],[],[],[],,393.0021,393.0022,-0.080865575,-0.374677579,0,0,0,,0,71,71,83,1,4,word,ANIMAL,cursive,animal_c.png,,,,,,
,,,,29278,001,2025-10-15_18h18.58.000,HW_LDT_1,2024.2.4,MacIntel,111.1111111,,,,,,,,,,,,,,,,,,,,393.0034,393.2025,393.2025,393.7024,,,,,,,,,,,,,,1.1534,0,,,,,,,,,,,,,,m,,,,,,,,,,,,,,,73,0,393.703,394.8609,z,0,1.1534,,[],[],[],[],[],[],[],394.861,396.8608,396.8609,396.8611,[],[],[],[],[],[],[],,396.8612,396.8613,-0.080865575,-0.374677579,0,0,0,,0,72,72,139,1,4,word,REGULAR,cursive,regular_c.png,,,,,,
,,,,29278,001,2025-10-15_18h18.58.000,HW_LDT_1,2024.2.4,MacIntel,111.1111111,,,,,,,,,,,,,,,,,,,,396.8624,397.0598,397.0599,397.5604,,,,,,,,,,,,,,0.7375,1,,,,,,,,,,,,,,z,,,,,,,,,,,,,,,74,0,397.5608,398.3025,z,1,0.7375,,[],[],[],[],[],[],[],398.3026,400.3024,400.3024,400.3026,[],[],[],[],[],[],[],,400.3026,400.3027,-0.080865575,-0.374677579,0,0,0,,0,73,73,68,1,4,TL,prosopal,print,prosopal_p.png,,,,,,
,,,,29278,001,2025-10-15_18h18.58.000,HW_LDT_1,2024.2.4,MacIntel,111.1111111,,,,,,,,,,,,,,,,,,,,400.3039,400.5024,400.5024,401.0017,,,,,,,,,,,,,,0.7111,1,,,,,,,,,,,,,,m,,,,,,,,,,,,,,,75,0,401.0021,401.7189,m,1,0.7111,,[],[],[],[],[],[],[],401.7189,403.7191,403.7192,403.7193,[],[],[],[],[],[],[],,403.7194,403.7194,-0.080865575,-0.374677579,0,0,0,,0,74,74,126,1,4,word,OPTIMAL,print,optimal_p.png,,,,,,
,,,,29278,001,2025-10-15_18h18.58.000,HW_LDT_1,2024.2.4,MacIntel,111.1111111,,,,,,,,,,,,,,,,,,,,403.7207,403.9188,403.9188,404.4187,,,,,,,,,,,,,,0.6141,1,,,,,,,,,,,,,,z,,,,,,,,,,,,,,,76,0,404.4189,405.0357,z,1,0.6141,,[],[],[],[],[],[],[],405.0358,407.0355,407.0355,407.0357,[],[],[],[],[],[],[],,407.0357,407.0358,-0.080865575,-0.374677579,0,0,0,,0,75,75,29,1,4,RL,motide,print,motide_p.png,,,,,,
,,,,29278,001,2025-10-15_18h18.58.000,HW_LDT_1,2024.2.4,MacIntel,111.1111111,,,,,,,,,,,,,,,,,,,,407.037,407.236,407.2361,407.7358,,,,,,,,,,,,,,0.6447,1,,,,,,,,,,,,,,m,,,,,,,,,,,,,,,77,0,407.7363,408.3857,m,1,0.6447,,[],[],[],[],[],[],[],408.3858,410.3849,410.385,410.3852,[],[],[],[],[],[],[],,410.3852,410.3853,-0.080865575,-0.374677579,0,0,0,,0,76,76,100,1,4,word,DECADE,cursive,decade_c.png,,,,,,
,,,,29278,001,2025-10-15_18h18.58.000,HW_LDT_1,2024.2.4,MacIntel,111.1111111,,,,,,,,,,,,,,,,,,,,410.3866,410.5858,410.5858,411.0858,,,,,,,,,,,,,,3.0608,0,,,,,,,,,,,,,,m,,,,,,,,,,,,,,,78,0,411.0865,414.1513,z,0,3.0608,,[],[],[],[],[],[],[],414.1514,416.1524,416.1524,416.1526,[],[],[],[],[],[],[],,416.1527,416.1528,-0.080865575,-0.374677579,0,0,0,,0,77,77,142,1,4,word,REMOTE,cursive,remote_c.png,,,,,,
,,,,29278,001,2025-10-15_18h18.58.000,HW_LDT_1,2024.2.4,MacIntel,111.1111111,,,,,,,,,,,,,,,,,,,,416.1544,416.3524,416.3525,416.8521,,,,,,,,,,,,,,0.6944,1,,,,,,,,,,,,,,z,,,,,,,,,,,,,,,79,0,416.8525,417.5524,z,1,0.6944,,[],[],[],[],[],[],[],417.5525,419.5526,419.5527,419.5529,[],[],[],[],[],[],[],,419.553,419.553,-0.080865575,-0.374677579,0,0,0,,0,78,78,42,1,4,RL,revune,print,revune_p.png,,,,,,
,,,,29278,001,2025-10-15_18h18.58.000,HW_LDT_1,2024.2.4,MacIntel,111.1111111,,,,,,,,,,,,,,,,,,,,419.5541,419.7523,419.7524,420.2525,,,,,,,,,,,,,,0.6128,1,,,,,,,,,,,,,,z,,,,,,,,,,,,,,,80,0,420.253,420.8689,z,1,0.6128,,[],[],[],[],[],[],[],420.869,422.8691,422.8692,422.8694,[],[],[],[],[],[],[],,422.8694,430.403,-0.080865575,-0.374677579,0,0,0,space,0,79,79,28,1,4,RL,mifikary,print,mifikary_p.png,,,7.5102,,,
,,,,29278,001,2025-10-15_18h18.58.000,HW_LDT_1,2024.2.4,MacIntel,111.1111111,,,,,,,,,,,,,,,,,,,,430.4042,430.6026,430.6026,431.1025,,,,,,,,,,,,,,0.8516,1,,,,,,,,,,,,,,m,,,,,,,,,,,,,,,81,0,431.1031,431.9609,m,1,0.8516,,[],[],[],[],[],[],[],431.9609,433.9606,433.9607,433.9607,[],[],[],[],[],[],[],,433.9607,433.9608,-0.080865575,-0.374677579,0,0,0,,0,80,80,149,1,4,word,SENATOR,print,senator_p.png,,,,,,
,,,,29278,001,2025-10-15_18h18.58.000,HW_LDT_1,2024.2.4,MacIntel,111.1111111,,,,,,,,,,,,,,,,,,,,433.9611,434.1608,434.1609,434.6609,,,,,,,,,,,,,,0.6535,1,,,,,,,,,,,,,,z,,,,,,,,,,,,,,,82,0,434.6615,435.3192,z,1,0.6535,,[],[],[],[],[],[],[],435.3193,437.3189,437.3189,437.319,[],[],[],[],[],[],[],,437.3191,437.3191,-0.080865575,-0.374677579,0,0,0,,0,81,81,25,1,4,RL,macise,print,macise_p.png,,,,,,
,,,,29278,001,2025-10-15_18h18.58.000,HW_LDT_1,2024.2.4,MacIntel,111.1111111,,,,,,,,,,,,,,,,,,,,437.3204,437.519,437.519,438.0191,,,,,,,,,,,,,,0.5866,1,,,,,,,,,,,,,,z,,,,,,,,,,,,,,,83,0,438.0194,438.6111,z,1,0.5866,,[],[],[],[],[],[],[],438.6112,440.6106,440.6107,440.6108,[],[],[],[],[],[],[],,440.6108,440.6108,-0.080865575,-0.374677579,0,0,0,,0,82,82,5,1,4,RL,bebine,print,bebine_p.png,,,,,,
,,,,29278,001,2025-10-15_18h18.58.000,HW_LDT_1,2024.2.4,MacIntel,111.1111111,,,,,,,,,,,,,,,,,,,,440.6116,440.8108,440.8108,441.3109,,,,,,,,,,,,,,0.5114,1,,,,,,,,,,,,,,m,,,,,,,,,,,,,,,84,0,441.3115,441.8278,m,1,0.5114,,[],[],[],[],[],[],[],441.828,443.8276,443.8276,443.8279,[],[],[],[],[],[],[],,443.8279,443.8281,-0.080865575,-0.374677579,0,0,0,,0,83,83,132,1,4,word,PROPOSAL,print,proposal_p.png,,,,,,
,,,,29278,001,2025-10-15_18h18.58.000,HW_LDT_1,2024.2.4,MacIntel,111.1111111,,,,,,,,,,,,,,,,,,,,443.8291,444.027,444.0271,444.5275,,,,,,,,,,,,,,1.9374,1,,,,,,,,,,,,,,z,,,,,,,,,,,,,,,85,0,444.5281,446.4693,z,1,1.9374,,[],[],[],[],[],[],[],446.4694,448.469,448.469,448.4691,[],[],[],[],[],[],[],,448.4691,448.4691,-0.080865575,-0.374677579,0,0,0,,0,84,84,78,1,4,TL,stragety,print,stragety_p.png,,,,,,
,,,,29278,001,2025-10-15_18h18.58.000,HW_LDT_1,2024.2.4,MacIntel,111.1111111,,,,,,,,,,,,,,,,,,,,448.4699,448.6691,448.6693,449.1692,,,,,,,,,,,,,,0.7783,1,,,,,,,,,,,,,,z,,,,,,,,,,,,,,,86,0,449.1698,449.9526,z,1,0.7783,,[],[],[],[],[],[],[],449.9526,451.9525,451.9525,451.9525,[],[],[],[],[],[],[],,451.9525,451.9526,-0.080865575,-0.374677579,0,0,0,,0,85,85,73,1,4,TL,regilion,print,regilion_p.png,,,,,,
,,,,29278,001,2025-10-15_18h18.58.000,HW_LDT_1,2024.2.4,MacIntel,111.1111111,,,,,,,,,,,,,,,,,,,,451.9532,452.1523,452.1523,452.6518,,,,,,,,,,,,,,0.6274,1,,,,,,,,,,,,,,m,,,,,,,,,,,,,,,87,0,452.6524,453.2858,m,1,0.6274,,[],[],[],[],[],[],[],453.2858,455.2852,455.2852,455.2853,[],[],[],[],[],[],[],,455.2854,455.2855,-0.080865575,-0.374677579,0,0,0,,0,86,86,145,1,4,word,RESUME,print,resume_p.png,,,,,,
,,,,29278,001,2025-10-15_18h18.58.000,HW_LDT_1,2024.2.4,MacIntel,111.1111111,,,,,,,,,,,,,,,,,,,,455.2867,455.4859,455.486,455.9858,,,,,,,,,,,,,,1.463,0,,,,,,,,,,,,,,z,,,,,,,,,,,,,,,88,0,455.9863,457.4526,m,0,1.463,,[],[],[],[],[],[],[],457.4528,459.4518,459.4518,459.4521,[],[],[],[],[],[],[],,459.4521,459.4522,-0.080865575,-0.374677579,0,0,0,,0,87,87,39,1,4,RL,relone,cursive,relone_c.png,,,,,,
,,,,29278,001,2025-10-15_18h18.58.000,HW_LDT_1,2024.2.4,MacIntel,111.1111111,,,,,,,,,,,,,,,,,,,,459.4534,459.6526,459.6527,460.1522,,,,,,,,,,,,,,1.0474,1,,,,,,,,,,,,,,z,,,,,,,,,,,,,,,89,0,460.1527,461.2026,z,1,1.0474,,[],[],[],[],[],[],[],461.2027,463.2026,463.2027,463.2029,[],[],[],[],[],[],[],,463.2029,463.203,-0.080865575,-0.374677579,0,0,0,,0,88,88,36,1,4,RL,rabigly,cursive,rabigly_c.png,,,,,,
,,,,29278,001,2025-10-15_18h18.58.000,HW_LDT_1,2024.2.4,MacIntel,111.1111111,,,,,,,,,,,,,,,,,,,,463.2044,463.4025,463.4025,463.9024,,,,,,,,,,,,,,0.6037,1,,,,,,,,,,,,,,z,,,,,,,,,,,,,,,90,0,463.9029,464.511,z,1,0.6037,,[],[],[],[],[],[],[],464.5111,466.5109,466.511,466.5112,[],[],[],[],[],[],[],,466.5112,466.5114,-0.080865575,-0.374677579,0,0,0,,0,89,89,67,1,4,TL,polupar,print,polupar_p.png,,,,,,
,,,,29278,001,2025-10-15_18h18.58.000,HW_LDT_1,2024.2.4,MacIntel,111.1111111,,,,,,,,,,,,,,,,,,,,466.5124,466.7107,466.7107,467.2111,,,,,,,,,,,,,,1.7872,1,,,,,,,,,,,,,,m,,,,,,,,,,,,,,,91,0,467.2115,469.0027,m,1,1.7872,,[],[],[],[],[],[],[],469.0028,471.003,471.0031,471.0032,[],[],[],[],[],[],[],,471.0032,471.0033,-0.081349206,-0.374421296,0,0,0,,0,90,90,124,1,4,word,NUMERICAL,cursive,numerical_c.png,,,,,,
,,,,29278,001,2025-10-15_18h18.58.000,HW_LDT_1,2024.2.4,MacIntel,111.1111111,,,,,,,,,,,,,,,,,,,,471.0041,471.2029,471.203,471.7026,,,,,,,,,,,,,,3.5195,1,,,,,,,,,,,,,,z,,,,,,,,,,,,,,,92,0,471.7033,475.2279,z,1,3.5195,,[],[],[],[],[],[],[],475.2281,477.227,477.227,477.2272,[],[],[],[],[],[],[],,477.2272,477.2273,-0.081634425,-0.374421296,0,0,0,,0,91,91,55,1,4,TL,corevage,cursive,corevage_c.png,,,,,,
,,,,29278,001,2025-10-15_18h18.58.000,HW_LDT_1,2024.2.4,MacIntel,111.1111111,,,,,,,,,,,,,,,,,,,,477.2286,477.4276,477.4277,477.9273,,,,,,,,,,,,,,2.0038,1,,,,,,,,,,,,,,z,,,,,,,,,,,,,,,93,0,477.9279,479.9358,z,1,2.0038,,[],[],[],[],[],[],[],479.9359,481.9358,481.9359,481.9359,[],[],[],[],[],[],[],,481.936,481.936,-0.081634425,-0.374421296,0,0,0,,0,92,92,4,1,4,RL,betemit,cursive,betemit_c.png,,,,,,
,,,,29278,001,2025-10-15_18h18.58.000,HW_LDT_1,2024.2.4,MacIntel,111.1111111,,,,,,,,,,,,,,,,,,,,481.9366,482.1357,482.1357,482.6364,,,,,,,,,,,,,,0.6706,1,,,,,,,,,,,,,,m,,,,,,,,,,,,,,,94,0,482.6369,483.311,m,1,0.6706,,[],[],[],[],[],[],[],483.3111,485.3109,485.3109,485.311,[],[],[],[],[],[],[],,485.3111,485.3113,-0.081684028,-0.371717923,0,0,0,,0,93,93,107,1,4,word,EVIDENT,print,evident_p.png,,,,,,
,,,,29278,001,2025-10-15_18h18.58.000,HW_LDT_1,2024.2.4,MacIntel,111.1111111,,,,,,,,,,,,,,,,,,,,485.3126,485.511,485.5111,486.011,,,,,,,,,,,,,,0.8119,1,,,,,,,,,,,,,,m,,,,,,,,,,,,,,,95,0,486.0116,486.8276,m,1,0.8119,,[],[],[],[],[],[],[],486.8277,488.8276,488.8277,488.8279,[],[],[],[],[],[],[],,488.828,488.828,-0.081684028,-0.371717923,0,0,0,,0,94,94,97,1,4,word,COVERAGE,cursive,coverage_c.png,,,,,,
,,,,29278,001,2025-10-15_18h18.58.000,HW_LDT_1,2024.2.4,MacIntel,111.1111111,,,,,,,,,,,,,,,,,,,,488.8293,489.0275,489.0275,489.5274,,,,,,,,,,,,,,0.6538,1,,,,,,,,,,,,,,z,,,,,,,,,,,,,,,96,0,489.5277,490.1861,z,1,0.6538,,[],[],[],[],[],[],[],490.1862,492.1858,492.1858,492.1858,[],[],[],[],[],[],[],,492.1858,492.1858,-0.081684028,-0.371717923,0,0,0,,0,95,95,3,1,4,RL,bewoted,print,bewoted_p.png,,,,,,
,,,,29278,001,2025-10-15_18h18.58.000,HW_LDT_1,2024.2.4,MacIntel,111.1111111,,,,,,,,,,,,,,,,,,,,492.1864,492.386,492.3861,492.886,,,,,,,,,,,,,,0.6943,1,,,,,,,,,,,,,,m,,,,,,,,,,,,,,,97,0,492.8867,493.586,m,1,0.6943,,[],[],[],[],[],[],[],493.5861,495.586,495.586,495.5863,[],[],[],[],[],[],[],,495.5865,495.5865,-0.081684028,-0.371717923,0,0,0,,0,96,96,118,1,4,word,MEDICINE,cursive,medicine_c.png,,,,,,
,,,,29278,001,2025-10-15_18h18.58.000,HW_LDT_1,2024.2.4,MacIntel,111.1111111,,,,,,,,,,,,,,,,,,,,495.5875,495.7864,495.7864,496.2849,,,,,,,,,,,,,,1.4907,1,,,,,,,,,,,,,,z,,,,,,,,,,,,,,,98,0,496.2852,497.7777,z,1,1.4907,,[],[],[],[],[],[],[],497.7777,499.7778,499.7778,499.7779,[],[],[],[],[],[],[],,499.7781,499.7781,-0.081684028,-0.371717923,0,0,0,,0,97,97,46,1,4,RL,skofen,cursive,skofen_c.png,,,,,,
,,,,29278,001,2025-10-15_18h18.58.000,HW_LDT_1,2024.2.4,MacIntel,111.1111111,,,,,,,,,,,,,,,,,,,,499.7792,499.9777,499.9777,500.4778,,,,,,,,,,,,,,0.5445,1,,,,,,,,,,,,,,m,,,,,,,,,,,,,,,99,0,500.4783,501.0279,m,1,0.5445,,[],[],[],[],[],[],[],501.0279,503.0274,503.0276,503.0276,[],[],[],[],[],[],[],,503.0276,503.0276,-0.081684028,-0.371717923,0,0,0,,0,98,98,119,1,4,word,MEMORY,print,memory_p.png,,,,,,
,,,,29278,001,2025-10-15_18h18.58.000,HW_LDT_1,2024.2.4,MacIntel,111.1111111,,,,,,,,,,,,,,,,,,,,503.0283,503.2277,503.2277,503.7278,,,,,,,,,,,,,,0.5941,1,,,,,,,,,,,,,,m,,,,,,,,,,,,,,,100,0,503.7283,504.3277,m,1,0.5941,,[],[],[],[],[],[],[],504.3277,506.3278,506.3278,506.328,[],[],[],[],[],[],[],,506.3281,506.3282,-0.081684028,-0.371717923,0,0,0,,0,99,99,131,1,4,word,POPULAR,print,popular_p.png,,,,,,
,,,,29278,001,2025-10-15_18h18.58.000,HW_LDT_1,2024.2.4,MacIntel,111.1111111,,,,,,,,,,,,,,,,,,,,506.3292,506.5272,506.5272,507.0278,,,,,,,,,,,,,,0.6197,1,,,,,,,,,,,,,,m,,,,,,,,,,,,,,,101,0,507.0283,507.6522,m,1,0.6197,,[],[],[],[],[],[],[],507.6522,509.653,509.653,509.6531,[],[],[],[],[],[],[],,509.6532,509.6533,-0.081684028,-0.371717923,0,0,0,,0,100,100,148,1,4,word,SALINE,print,saline_p.png,,,,,,
,,,,29278,001,2025-10-15_18h18.58.000,HW_LDT_1,2024.2.4,MacIntel,111.1111111,,,,,,,,,,,,,,,,,,,,509.6545,509.8523,509.8523,510.3525,,,,,,,,,,,,,,3.3295,1,,,,,,,,,,,,,,z,,,,,,,,,,,,,,,102,0,510.3528,513.686,z,1,3.3295,,[],[],[],[],[],[],[],513.686,515.6862,515.6863,515.6866,[],[],[],[],[],[],[],,515.6867,515.6868,-0.081684028,-0.371717923,0,0,0,,0,101,101,19,1,4,RL,elacodate,cursive,elacodate_c.png,,,,,,
,,,,29278,001,2025-10-15_18h18.58.000,HW_LDT_1,2024.2.4,MacIntel,111.1111111,,,,,,,,,,,,,,,,,,,,515.6879,515.8861,515.8862,516.3853,,,,,,,,,,,,,,0.6039,1,,,,,,,,,,,,,,m,,,,,,,,,,,,,,,103,1,516.3861,516.9945,m,1,0.6039,,[],[],[],[],[],[],[],516.9946,518.9944,518.9945,520.1029,[],[],[],[],[],[],[],m,520.1031,520.1032,-0.081684028,-0.371717923,0,0,0,,0,102,102,110,1,4,word,HERITAGE,print,heritage_p.png,1.1043,,,,,
,,,,29278,001,2025-10-15_18h18.58.000,HW_LDT_1,2024.2.4,MacIntel,111.1111111,,,,,,,,,,,,,,,,,,,,520.1043,520.3025,520.3026,520.8027,,,,,,,,,,,,,,2.5688,1,,,,,,,,,,,,,,m,,,,,,,,,,,,,,,104,0,520.8035,523.3779,m,1,2.5688,,[],[],[],[],[],[],[],523.378,525.3775,525.3776,525.3777,[],[],[],[],[],[],[],,525.3777,525.3778,-0.081684028,-0.371717923,0,0,0,,0,103,103,92,1,4,word,CATEGORY,cursive,category_c.png,,,,,,
,,,,29278,001,2025-10-15_18h18.58.000,HW_LDT_1,2024.2.4,MacIntel,111.1111111,,,,,,,,,,,,,,,,,,,,525.3784,525.5778,525.5778,526.0779,,,,,,,,,,,,,,0.7029,1,,,,,,,,,,,,,,m,,,,,,,,,,,,,,,105,1,526.0784,526.7863,m,1,0.7029,,[],[],[],[],[],[],[],526.7863,528.7861,528.7862,529.4532,[],[],[],[],[],[],[],z,529.4533,529.4534,-0.081684028,-0.371717923,0,0,0,,0,104,104,89,1,4,word,CAPACITY,cursive,capacity_c.png,0.6664,,,,,
,,,,29278,001,2025-10-15_18h18.58.000,HW_LDT_1,2024.2.4,MacIntel,111.1111111,,,,,,,,,,,,,,,,,,,,529.4545,529.6528,529.6529,530.1528,,,,,,,,,,,,,,0.92,1,,,,,,,,,,,,,,m,,,,,,,,,,,,,,,106,0,530.1534,531.0777,m,1,0.92,,[],[],[],[],[],[],[],531.0777,533.0778,533.0778,533.0782,[],[],[],[],[],[],[],,533.0782,533.0784,-0.081684028,-0.371717923,0,0,0,,0,105,105,96,1,4,word,CONSIDER,cursive,consider_c.png,,,,,,
,,,,29278,001,2025-10-15_18h18.58.000,HW_LDT_1,2024.2.4,MacIntel,111.1111111,,,,,,,,,,,,,,,,,,,,533.0793,533.2778,533.2779,533.7777,,,,,,,,,,,,,,3.3112,1,,,,,,,,,,,,,,z,,,,,,,,,,,,,,,107,0,533.7784,537.0945,z,1,3.3112,,[],[],[],[],[],[],[],537.0946,539.0945,539.0945,539.0948,[],[],[],[],[],[],[],,539.0948,539.0949,-0.081684028,-0.371717923,0,0,0,,0,106,106,16,1,4,RL,desifate,cursive,desifate_c.png,,,,,,
,,,,29278,001,2025-10-15_18h18.58.000,HW_LDT_1,2024.2.4,MacIntel,111.1111111,,,,,,,,,,,,,,,,,,,,539.0961,539.2945,539.2945,539.7945,,,,,,,,,,,,,,1.2943,1,,,,,,,,,,,,,,m,,,,,,,,,,,,,,,108,0,539.7951,541.0939,m,1,1.2943,,[],[],[],[],[],[],[],541.0939,543.0945,543.0946,543.0948,[],[],[],[],[],[],[],,543.0949,543.095,-0.081684028,-0.371717923,0,0,0,,0,107,107,129,1,4,word,PARENT,cursive,parent_c.png,,,,,,
,,,,29278,001,2025-10-15_18h18.58.000,HW_LDT_1,2024.2.4,MacIntel,111.1111111,,,,,,,,,,,,,,,,,,,,543.096,543.2938,543.2938,543.7939,,,,,,,,,,,,,,1.6043,1,,,,,,,,,,,,,,z,,,,,,,,,,,,,,,109,0,543.7944,545.403,z,1,1.6043,,[],[],[],[],[],[],[],545.4031,547.4028,547.4028,547.4029,[],[],[],[],[],[],[],,547.403,547.4031,-0.081684028,-0.371717923,0,0,0,,0,108,108,72,1,4,TL,relugar,cursive,relugar_c.png,,,,,,
,,,,29278,001,2025-10-15_18h18.58.000,HW_LDT_1,2024.2.4,MacIntel,111.1111111,,,,,,,,,,,,,,,,,,,,547.4045,547.6028,547.6028,548.1029,,,,,,,,,,,,,,1.5114,1,,,,,,,,,,,,,,m,,,,,,,,,,,,,,,110,0,548.1034,549.6195,m,1,1.5114,,[],[],[],[],[],[],[],549.6196,551.6195,551.6195,551.6198,[],[],[],[],[],[],[],,551.6199,551.62,-0.081684028,-0.371717923,0,0,0,,0,109,109,85,1,4,word,BENEFIT,cursive,benefit_c.png,,,,,,
,,,,29278,001,2025-10-15_18h18.58.000,HW_LDT_1,2024.2.4,MacIntel,111.1111111,,,,,,,,,,,,,,,,,,,,551.6211,551.8195,551.8196,552.3196,,,,,,,,,,,,,,0.6174,1,,,,,,,,,,,,,,m,,,,,,,,,,,,,,,111,0,552.3203,552.9444,m,1,0.6174,,[],[],[],[],[],[],[],552.9444,554.9441,554.9442,554.9444,[],[],[],[],[],[],[],,554.9444,554.9445,-0.081684028,-0.371717923,0,0,0,,0,110,110,157,1,4,word,VALIDITY,print,validity_p.png,,,,,,
,,,,29278,001,2025-10-15_18h18.58.000,HW_LDT_1,2024.2.4,MacIntel,111.1111111,,,,,,,,,,,,,,,,,,,,554.9456,555.1441,555.1441,555.6442,,,,,,,,,,,,,,0.6947,1,,,,,,,,,,,,,,z,,,,,,,,,,,,,,,112,0,555.6446,556.3446,z,1,0.6947,,[],[],[],[],[],[],[],556.3447,558.3446,558.3446,558.3448,[],[],[],[],[],[],[],,558.3449,558.345,-0.081684028,-0.371717923,0,0,0,,0,111,111,18,1,4,RL,disluge,print,disluge_p.png,,,,,,
,,,,29278,001,2025-10-15_18h18.58.000,HW_LDT_1,2024.2.4,MacIntel,111.1111111,,,,,,,,,,,,,,,,,,,,558.3462,558.5444,558.5444,559.0445,,,,,,,,,,,,,,0.9602,1,,,,,,,,,,,,,,z,,,,,,,,,,,,,,,113,0,559.0451,560.0115,z,1,0.9602,,[],[],[],[],[],[],[],560.0116,562.011,562.011,562.0111,[],[],[],[],[],[],[],,562.0111,562.0112,-0.081684028,-0.371717923,0,0,0,,0,112,112,0,1,4,RL,abanemy,print,abanemy_p.png,,,,,,
,,,,29278,001,2025-10-15_18h18.58.000,HW_LDT_1,2024.2.4,MacIntel,111.1111111,,,,,,,,,,,,,,,,,,,,562.0115,562.2114,562.2114,562.7112,,,,,,,,,,,,,,0.7113,1,,,,,,,,,,,,,,m,,,,,,,,,,,,,,,114,1,562.7119,563.428,m,1,0.7113,,[],[],[],[],[],[],[],563.4281,565.4276,565.4277,566.0862,[],[],[],[],[],[],[],z,566.0863,566.0863,-0.081684028,-0.371717923,0,0,0,,0,113,113,158,1,4,word,VELOCITY,cursive,velocity_c.png,0.6528,,,,,
,,,,29278,001,2025-10-15_18h18.58.000,HW_LDT_1,2024.2.4,MacIntel,111.1111111,,,,,,,,,,,,,,,,,,,,566.087,566.2857,566.2857,566.7864,,,,,,,,,,,,,,2.5108,1,,,,,,,,,,,,,,m,,,,,,,,,,,,,,,115,1,566.787,569.3021,m,1,2.5108,,[],[],[],[],[],[],[],569.3023,571.3029,571.3029,571.8611,[],[],[],[],[],[],[],z,571.8613,571.8613,-0.081684028,-0.371717923,0,0,0,,0,114,114,108,1,4,word,FORTUNE,cursive,fortune_c.png,0.5536,,,,,
,,,,29278,001,2025-10-15_18h18.58.000,HW_LDT_1,2024.2.4,MacIntel,111.1111111,,,,,,,,,,,,,,,,,,,,571.862,572.0611,572.0611,572.5612,,,,,,,,,,,,,,0.6209,1,,,,,,,,,,,,,,m,,,,,,,,,,,,,,,116,0,572.5618,573.1861,m,1,0.6209,,[],[],[],[],[],[],[],573.1861,575.1861,575.1862,575.1863,[],[],[],[],[],[],[],,575.1864,575.1864,-0.081684028,-0.371717923,0,0,0,,0,115,115,109,1,4,word,GRATEFUL,print,grateful_p.png,,,,,,
,,,,29278,001,2025-10-15_18h18.58.000,HW_LDT_1,2024.2.4,MacIntel,111.1111111,,,,,,,,,,,,,,,,,,,,575.1883,575.3866,575.3866,575.8865,,,,,,,,,,,,,,0.5778,1,,,,,,,,,,,,,,m,,,,,,,,,,,,,,,117,0,575.8871,576.4696,m,1,0.5778,,[],[],[],[],[],[],[],576.4696,578.4699,578.4699,578.4702,[],[],[],[],[],[],[],,578.4703,578.4703,-0.081684028,-0.371717923,0,0,0,,0,116,116,136,1,4,word,RADICAL,print,radical_p.png,,,,,,
,,,,29278,001,2025-10-15_18h18.58.000,HW_LDT_1,2024.2.4,MacIntel,111.1111111,,,,,,,,,,,,,,,,,,,,578.4714,578.6696,578.6697,579.1697,,,,,,,,,,,,,,0.5043,1,,,,,,,,,,,,,,m,,,,,,,,,,,,,,,118,0,579.1701,579.6779,m,1,0.5043,,[],[],[],[],[],[],[],579.6781,581.678,581.6781,581.6782,[],[],[],[],[],[],[],,581.6783,581.6783,-0.081684028,-0.371717923,0,0,0,,0,117,117,141,1,4,word,RELIGION,print,religion_p.png,,,,,,
,,,,29278,001,2025-10-15_18h18.58.000,HW_LDT_1,2024.2.4,MacIntel,111.1111111,,,,,,,,,,,,,,,,,,,,581.6795,581.8779,581.878,582.378,,,,,,,,,,,,,,0.5867,1,,,,,,,,,,,,,,z,,,,,,,,,,,,,,,119,0,582.3786,582.9697,z,1,0.5867,,[],[],[],[],[],[],[],582.9699,584.9697,584.9697,584.9699,[],[],[],[],[],[],[],,584.97,584.9701,-0.081684028,-0.371717923,0,0,0,,0,118,118,76,1,4,TL,setanor,print,setanor_p.png,,,,,,
,,,,29278,001,2025-10-15_18h18.58.000,HW_LDT_1,2024.2.4,MacIntel,111.1111111,,,,,,,,,,,,,,,,,,,,584.9713,585.1694,585.1695,585.6695,,,,,,,,,,,,,,0.6035,1,,,,,,,,,,,,,,m,,,,,,,,,,,,,,,120,0,585.6697,586.278,m,1,0.6035,,[],[],[],[],[],[],[],586.2781,588.2778,588.2778,588.2779,[],[],[],[],[],[],[],,588.2779,588.278,-0.081684028,-0.371717923,0,0,0,,0,119,119,86,1,4,word,BESIDE,print,beside_p.png,,,,,,
,,,,29278,001,2025-10-15_18h18.58.000,HW_LDT_1,2024.2.4,MacIntel,111.1111111,,,,,,,,,,,,,,,,,,,,588.2787,588.478,588.4781,588.978,,,,,,,,,,,,,,0.6441,1,,,,,,,,,,,,,,z,,,,,,,,,,,,,,,121,0,588.9787,589.6281,z,1,0.6441,,[],[],[],[],[],[],[],589.6282,591.6271,591.6272,591.6275,[],[],[],[],[],[],[],,591.6275,591.6276,-0.081684028,-0.371717923,0,0,0,,0,120,120,48,1,4,RL,vabifity,print,vabifity_p.png,,,,,,
,,,,29278,001,2025-10-15_18h18.58.000,HW_LDT_1,2024.2.4,MacIntel,111.1111111,,,,,,,,,,,,,,,,,,,,591.629,591.828,591.8281,592.328,,,,,,,,,,,,,,0.769,1,,,,,,,,,,,,,,m,,,,,,,,,,,,,,,122,0,592.3287,593.1028,m,1,0.769,,[],[],[],[],[],[],[],593.1029,595.103,595.1031,595.1034,[],[],[],[],[],[],[],,595.1035,595.1035,-0.081684028,-0.371717923,0,0,0,,0,121,121,128,1,4,word,PACIFIC,cursive,pacific_c.png,,,,,,
,,,,29278,001,2025-10-15_18h18.58.000,HW_LDT_1,2024.2.4,MacIntel,111.1111111,,,,,,,,,,,,,,,,,,,,595.1046,595.303,595.3031,595.803,,,,,,,,,,,,,,0.7112,1,,,,,,,,,,,,,,z,,,,,,,,,,,,,,,123,0,595.8037,596.5197,z,1,0.7112,,[],[],[],[],[],[],[],596.5198,598.5191,598.5193,598.5196,[],[],[],[],[],[],[],,598.5196,598.5197,-0.081684028,-0.371717923,0,0,0,,0,122,122,60,1,4,TL,hetirage,print,hetirage_p.png,,,,,,
,,,,29278,001,2025-10-15_18h18.58.000,HW_LDT_1,2024.2.4,MacIntel,111.1111111,,,,,,,,,,,,,,,,,,,,598.521,598.7197,598.7198,599.219,,,,,,,,,,,,,,4.0165,0,,,,,,,,,,,,,,z,,,,,,,,,,,,,,,124,0,599.2195,603.2369,m,0,4.0165,,[],[],[],[],[],[],[],603.2371,605.2365,605.2365,605.2367,[],[],[],[],[],[],[],,605.2368,605.2369,-0.081684028,-0.371717923,0,0,0,,0,123,123,30,1,4,RL,nunewical,cursive,nunewical_c.png,,,,,,
,,,,29278,001,2025-10-15_18h18.58.000,HW_LDT_1,2024.2.4,MacIntel,111.1111111,,,,,,,,,,,,,,,,,,,,605.2382,605.4362,605.4362,605.9362,,,,,,,,,,,,,,2.2784,1,,,,,,,,,,,,,,z,,,,,,,,,,,,,,,125,0,605.9365,608.2199,z,1,2.2784,,[],[],[],[],[],[],[],608.22,610.2199,610.22,610.2202,[],[],[],[],[],[],[],,610.2203,610.2204,-0.081684028,-0.371717923,0,0,0,,0,124,124,15,1,4,RL,debave,cursive,debave_c.png,,,,,,
,,,,29278,001,2025-10-15_18h18.58.000,HW_LDT_1,2024.2.4,MacIntel,111.1111111,,,,,,,,,,,,,,,,,,,,610.2216,610.4197,610.4198,610.9197,,,,,,,,,,,,,,0.6215,1,,,,,,,,,,,,,,m,,,,,,,,,,,,,,,126,0,610.9203,611.5439,m,1,0.6215,,[],[],[],[],[],[],[],611.5439,613.5441,613.5442,613.5443,[],[],[],[],[],[],[],,613.5443,613.5444,-0.081684028,-0.371717923,0,0,0,,0,125,125,122,1,4,word,MOBILE,print,mobile_p.png,,,,,,
,,,,29278,001,2025-10-15_18h18.58.000,HW_LDT_1,2024.2.4,MacIntel,111.1111111,,,,,,,,,,,,,,,,,,,,613.5455,613.7446,613.7446,614.2445,,,,,,,,,,,,,,0.8045,1,,,,,,,,,,,,,,m,,,,,,,,,,,,,,,127,0,614.2449,615.0532,m,1,0.8045,,[],[],[],[],[],[],[],615.0532,617.0531,617.0531,617.0533,[],[],[],[],[],[],[],,617.0534,617.0536,-0.081684028,-0.371717923,0,0,0,,0,126,126,135,1,4,word,QUALITY,print,quality_p.png,,,,,,
,,,,29278,001,2025-10-15_18h18.58.000,HW_LDT_1,2024.2.4,MacIntel,111.1111111,,,,,,,,,,,,,,,,,,,,617.0547,617.2531,617.2532,617.7531,,,,,,,,,,,,,,0.8027,1,,,,,,,,,,,,,,z,,,,,,,,,,,,,,,128,0,617.7537,618.5613,z,1,0.8027,,[],[],[],[],[],[],[],618.5614,620.5609,620.561,620.5612,[],[],[],[],[],[],[],,620.5612,620.5613,-0.081684028,-0.371717923,0,0,0,,0,127,127,71,1,4,TL,racidal,print,racidal_p.png,,,,,,
,,,,29278,001,2025-10-15_18h18.58.000,HW_LDT_1,2024.2.4,MacIntel,111.1111111,,,,,,,,,,,,,,,,,,,,620.5626,620.7614,620.7615,621.2613,,,,,,,,,,,,,,2.6531,1,,,,,,,,,,,,,,z,,,,,,,,,,,,,,,129,0,621.2617,623.919,z,1,2.6531,,[],[],[],[],[],[],[],623.9191,625.9197,625.9199,625.9201,[],[],[],[],[],[],[],,625.9201,625.9202,-0.081684028,-0.371717923,0,0,0,,0,128,128,37,1,4,RL,renutal,cursive,renutal_c.png,,,,,,
,,,,29278,001,2025-10-15_18h18.58.000,HW_LDT_1,2024.2.4,MacIntel,111.1111111,,,,,,,,,,,,,,,,,,,,625.9214,626.1197,626.1198,626.6197,,,,,,,,,,,,,,0.9784,1,,,,,,,,,,,,,,m,,,,,,,,,,,,,,,130,0,626.6203,627.6031,m,1,0.9784,,[],[],[],[],[],[],[],627.6032,629.6031,629.6031,629.6033,[],[],[],[],[],[],[],,629.6034,629.6035,-0.081684028,-0.371717923,0,0,0,,0,129,129,155,1,4,word,STRATEGY,print,strategy_p.png,,,,,,
,,,,29278,001,2025-10-15_18h18.58.000,HW_LDT_1,2024.2.4,MacIntel,111.1111111,,,,,,,,,,,,,,,,,,,,629.6046,629.8032,629.8032,630.3031,,,,,,,,,,,,,,3.1203,1,,,,,,,,,,,,,,z,,,,,,,,,,,,,,,131,0,630.3038,633.4282,z,1,3.1203,,[],[],[],[],[],[],[],633.4283,635.4281,635.4282,635.4283,[],[],[],[],[],[],[],,635.4284,635.4285,-0.081684028,-0.371717923,0,0,0,,0,130,130,10,1,4,RL,carminal,cursive,carminal_c.png,,,,,,
,,,,29278,001,2025-10-15_18h18.58.000,HW_LDT_1,2024.2.4,MacIntel,111.1111111,,,,,,,,,,,,,,,,,,,,635.4297,635.6282,635.6282,636.1284,,,,,,,,,,,,,,0.906,1,,,,,,,,,,,,,,z,,,,,,,,,,,,,,,132,0,636.129,637.0365,z,1,0.906,,[],[],[],[],[],[],[],637.0366,639.0364,639.0366,639.0367,[],[],[],[],[],[],[],,639.0368,639.0369,-0.081684028,-0.371717923,0,0,0,,0,131,131,53,1,4,TL,cemerony,print,cemerony_p.png,,,,,,
,,,,29278,001,2025-10-15_18h18.58.000,HW_LDT_1,2024.2.4,MacIntel,111.1111111,,,,,,,,,,,,,,,,,,,,639.0379,639.2367,639.2368,639.7356,,,,,,,,,,,,,,0.9727,1,,,,,,,,,,,,,,m,,,,,,,,,,,,,,,133,0,639.7359,640.7116,m,1,0.9727,,[],[],[],[],[],[],[],640.7117,642.7114,642.7115,642.7117,[],[],[],[],[],[],[],,642.7117,642.7119,-0.081684028,-0.371717923,0,0,0,,0,132,132,91,1,4,word,CARDINAL,cursive,cardinal_c.png,,,,,,
,,,,29278,001,2025-10-15_18h18.58.000,HW_LDT_1,2024.2.4,MacIntel,111.1111111,,,,,,,,,,,,,,,,,,,,642.713,642.9116,642.9117,643.4118,,,,,,,,,,,,,,1.9613,1,,,,,,,,,,,,,,z,,,,,,,,,,,,,,,134,0,643.4123,645.3782,z,1,1.9613,,[],[],[],[],[],[],[],645.3783,647.3782,647.3783,647.3785,[],[],[],[],[],[],[],,647.3786,647.3786,-0.081684028,-0.371717923,0,0,0,,0,133,133,12,1,4,RL,conbicer,cursive,conbicer_c.png,,,,,,
,,,,29278,001,2025-10-15_18h18.58.000,HW_LDT_1,2024.2.4,MacIntel,111.1111111,,,,,,,,,,,,,,,,,,,,647.3797,647.5782,647.5782,648.0783,,,,,,,,,,,,,,1.2032,1,,,,,,,,,,,,,,m,,,,,,,,,,,,,,,135,0,648.0788,649.2857,m,1,1.2032,,[],[],[],[],[],[],[],649.2858,651.2859,651.2859,651.2861,[],[],[],[],[],[],[],,651.2862,651.2862,-0.081684028,-0.371717923,0,0,0,,0,134,134,137,1,4,word,RAPIDLY,cursive,rapidly_c.png,,,,,,
,,,,29278,001,2025-10-15_18h18.58.000,HW_LDT_1,2024.2.4,MacIntel,111.1111111,,,,,,,,,,,,,,,,,,,,651.2875,651.4866,651.4868,651.9864,,,,,,,,,,,,,,0.9293,1,,,,,,,,,,,,,,z,,,,,,,,,,,,,,,136,0,651.9866,652.9198,z,1,0.9293,,[],[],[],[],[],[],[],652.9199,654.9203,654.9203,654.9205,[],[],[],[],[],[],[],,654.9205,654.9205,-0.081684028,-0.371717923,0,0,0,,0,135,135,58,1,4,TL,edivent,print,edivent_p.png,,,,,,
,,,,29278,001,2025-10-15_18h18.58.000,HW_LDT_1,2024.2.4,MacIntel,111.1111111,,,,,,,,,,,,,,,,,,,,654.9215,655.1194,655.1194,655.6202,,,,,,,,,,,,,,2.9367,1,,,,,,,,,,,,,,z,,,,,,,,,,,,,,,137,0,655.6208,658.5615,z,1,2.9367,,[],[],[],[],[],[],[],658.5616,660.5618,660.5619,660.562,[],[],[],[],[],[],[],,660.562,660.5621,-0.081684028,-0.371717923,0,0,0,,0,136,136,49,1,4,RL,vesofity,cursive,vesofity_c.png,,,,,,
,,,,29278,001,2025-10-15_18h18.58.000,HW_LDT_1,2024.2.4,MacIntel,111.1111111,,,,,,,,,,,,,,,,,,,,660.5632,660.761,660.761,661.2608,,,,,,,,,,,,,,0.7683,1,,,,,,,,,,,,,,m,,,,,,,,,,,,,,,138,1,661.2614,662.0363,m,1,0.7683,,[],[],[],[],[],[],[],662.0364,664.0367,664.0367,666.8869,[],[],[],[],[],[],[],z,666.887,666.8871,-0.081684028,-0.371717923,0,0,0,,0,137,137,80,1,4,word,ACADEMY,print,academy_p.png,2.8456,,,,,
,,,,29278,001,2025-10-15_18h18.58.000,HW_LDT_1,2024.2.4,MacIntel,111.1111111,,,,,,,,,,,,,,,,,,,,666.8883,667.0868,667.0869,667.5867,,,,,,,,,,,,,,0.9283,1,,,,,,,,,,,,,,z,,,,,,,,,,,,,,,139,0,667.5872,668.5198,z,1,0.9283,,[],[],[],[],[],[],[],668.52,670.5203,670.5203,670.5205,[],[],[],[],[],[],[],,670.5207,670.5209,-0.081684028,-0.371717923,0,0,0,,0,138,138,57,1,4,TL,etidor,print,etidor_p.png,,,,,,
,,,,29278,001,2025-10-15_18h18.58.000,HW_LDT_1,2024.2.4,MacIntel,111.1111111,,,,,,,,,,,,,,,,,,,,670.5218,670.7191,670.7191,671.2201,,,,,,,,,,,,,,0.6695,1,,,,,,,,,,,,,,m,,,,,,,,,,,,,,,140,0,671.2208,671.895,m,1,0.6695,,[],[],[],[],[],[],[],671.8952,673.8941,673.8941,673.8944,[],[],[],[],[],[],[],,673.8944,673.8945,-0.081684028,-0.371717923,0,0,0,,0,139,139,90,1,4,word,CAPITAL,print,capital_p.png,,,,,,
,,,,29278,001,2025-10-15_18h18.58.000,HW_LDT_1,2024.2.4,MacIntel,111.1111111,,,,,,,,,,,,,,,,,,,,673.8954,674.0949,674.095,674.5942,,,,,,,,,,,,,,2.2543,1,,,,,,,,,,,,,,z,,,,,,,,,,,,,,,141,0,674.5947,676.8524,z,1,2.2543,,[],[],[],[],[],[],[],676.8524,678.8532,678.8533,678.8535,[],[],[],[],[],[],[],,678.8536,678.8537,-0.081684028,-0.371717923,0,0,0,,0,140,140,32,1,4,RL,patisic,cursive,patisic_c.png,,,,,,
,,,,29278,001,2025-10-15_18h18.58.000,HW_LDT_1,2024.2.4,MacIntel,111.1111111,,,,,,,,,,,,,,,,,,,,678.8548,679.0525,679.0525,679.5532,,,,,,,,,,,,,,2.5954,1,,,,,,,,,,,,,,z,,,,,,,,,,,,,,,142,1,679.5537,682.1534,z,1,2.5954,,[],[],[],[],[],[],[],682.1535,684.1533,684.1533,684.9862,[],[],[],[],[],[],[],z,684.9863,684.9864,-0.081684028,-0.371717923,0,0,0,,0,141,141,8,1,4,RL,casagity,cursive,casagity_c.png,0.828,,,,,
,,,,29278,001,2025-10-15_18h18.58.000,HW_LDT_1,2024.2.4,MacIntel,111.1111111,,,,,,,,,,,,,,,,,,,,684.9875,685.1867,685.1867,685.6861,,,,,,,,,,,,,,1.5446,1,,,,,,,,,,,,,,m,,,,,,,,,,,,,,,143,1,685.6866,687.2368,m,1,1.5446,,[],[],[],[],[],[],[],687.2368,689.2368,689.2369,689.7868,[],[],[],[],[],[],[],z,689.7869,689.787,-0.081684028,-0.371717923,0,0,0,,0,142,142,87,1,4,word,CAFETERIA,cursive,cafeteria_c.png,0.5452,,,,,
,,,,29278,001,2025-10-15_18h18.58.000,HW_LDT_1,2024.2.4,MacIntel,111.1111111,,,,,,,,,,,,,,,,,,,,689.788,689.9865,689.9866,690.4867,,,,,,,,,,,,,,0.7844,1,,,,,,,,,,,,,,m,,,,,,,,,,,,,,,144,1,690.4874,691.2783,m,1,0.7844,,[],[],[],[],[],[],[],691.2783,693.2785,693.2785,693.7199,[],[],[],[],[],[],[],z,693.7201,693.7201,-0.081684028,-0.371717923,0,0,0,,0,143,143,82,1,4,word,AMATEUR,cursive,amateur_c.png,0.4374,,,,,
,,,,29278,001,2025-10-15_18h18.58.000,HW_LDT_1,2024.2.4,MacIntel,111.1111111,,,,,,,,,,,,,,,,,,,,693.7213,693.9199,693.92,694.42,,,,,,,,,,,,,,2.1032,0,,,,,,,,,,,,,,m,,,,,,,,,,,,,,,145,0,694.4207,696.5285,z,0,2.1032,,[],[],[],[],[],[],[],696.5285,698.5283,698.5284,698.5287,[],[],[],[],[],[],[],,698.5287,698.5288,-0.081684028,-0.371717923,0,0,0,,0,144,144,144,1,4,word,RESIDENT,cursive,resident_c.png,,,,,,
,,,,29278,001,2025-10-15_18h18.58.000,HW_LDT_1,2024.2.4,MacIntel,111.1111111,,,,,,,,,,,,,,,,,,,,698.5298,698.7286,698.7286,699.2284,,,,,,,,,,,,,,0.6274,1,,,,,,,,,,,,,,z,,,,,,,,,,,,,,,146,0,699.229,699.8611,z,1,0.6274,,[],[],[],[],[],[],[],699.8612,701.8614,701.8614,701.8615,[],[],[],[],[],[],[],,701.8615,701.8615,-0.081684028,-0.371717923,0,0,0,,0,145,145,43,1,4,RL,rovastic,print,rovastic_p.png,,,,,,
,,,,29278,001,2025-10-15_18h18.58.000,HW_LDT_1,2024.2.4,MacIntel,111.1111111,,,,,,,,,,,,,,,,,,,,701.8618,702.0615,702.0615,702.5618,,,,,,,,,,,,,,0.6025,1,,,,,,,,,,,,,,z,,,,,,,,,,,,,,,147,0,702.562,703.17,z,1,0.6025,,[],[],[],[],[],[],[],703.17,705.1699,705.1699,705.17,[],[],[],[],[],[],[],,705.1701,705.1701,-0.081684028,-0.371717923,0,0,0,,0,146,146,44,1,4,RL,senvilent,print,senvilent_p.png,,,,,,
,,,,29278,001,2025-10-15_18h18.58.000,HW_LDT_1,2024.2.4,MacIntel,111.1111111,,,,,,,,,,,,,,,,,,,,705.1707,705.3698,705.3698,705.8701,,,,,,,,,,,,,,1.1108,1,,,,,,,,,,,,,,m,,,,,,,,,,,,,,,148,0,705.8708,706.9869,m,1,1.1108,,[],[],[],[],[],[],[],706.987,708.987,708.987,708.9871,[],[],[],[],[],[],[],,708.9872,708.9873,-0.081684028,-0.371717923,0,0,0,,0,147,147,99,1,4,word,DEBATE,cursive,debate_c.png,,,,,,
,,,,29278,001,2025-10-15_18h18.58.000,HW_LDT_1,2024.2.4,MacIntel,111.1111111,,,,,,,,,,,,,,,,,,,,708.9882,709.1867,709.1868,709.6869,,,,,,,,,,,,,,0.6203,1,,,,,,,,,,,,,,z,,,,,,,,,,,,,,,149,0,709.6875,710.3117,z,1,0.6203,,[],[],[],[],[],[],[],710.3118,712.3113,712.3113,712.3114,[],[],[],[],[],[],[],,712.3115,712.3116,-0.081684028,-0.371717923,0,0,0,,0,148,148,75,1,4,TL,sanile,print,sanile_p.png,,,,,,
,,,,29278,001,2025-10-15_18h18.58.000,HW_LDT_1,2024.2.4,MacIntel,111.1111111,,,,,,,,,,,,,,,,,,,,712.3128,712.5119,712.5119,713.0119,,,,,,,,,,,,,,0.5698,1,,,,,,,,,,,,,,z,,,,,,,,,,,,,,,150,0,713.0123,713.5869,z,1,0.5698,,[],[],[],[],[],[],[],713.5871,715.587,715.5871,715.5872,[],[],[],[],[],[],[],,715.5872,715.5873,-0.081684028,-0.371717923,0,0,0,,0,149,149,66,1,4,TL,opmital,print,opmital_p.png,,,,,,
,,,,29278,001,2025-10-15_18h18.58.000,HW_LDT_1,2024.2.4,MacIntel,111.1111111,,,,,,,,,,,,,,,,,,,,715.5882,715.787,715.787,716.2867,,,,,,,,,,,,,,0.6601,1,,,,,,,,,,,,,,m,,,,,,,,,,,,,,,151,0,716.287,716.9536,m,1,0.6601,,[],[],[],[],[],[],[],716.9537,718.9533,718.9533,718.9533,[],[],[],[],[],[],[],,718.9533,718.9533,-0.081684028,-0.371717923,0,0,0,,0,150,150,147,1,4,word,ROMANTIC,print,romantic_p.png,,,,,,
,,,,29278,001,2025-10-15_18h18.58.000,HW_LDT_1,2024.2.4,MacIntel,111.1111111,,,,,,,,,,,,,,,,,,,,718.9538,719.1534,719.1535,719.6535,,,,,,,,,,,,,,1.3355,1,,,,,,,,,,,,,,m,,,,,,,,,,,,,,,152,0,719.6542,720.9951,m,1,1.3355,,[],[],[],[],[],[],[],720.9951,722.9952,722.9952,722.9954,[],[],[],[],[],[],[],,722.9955,722.9957,-0.081684028,-0.371717923,0,0,0,,0,151,151,98,1,4,word,CRIMINAL,cursive,criminal_c.png,,,,,,
,,,,29278,001,2025-10-15_18h18.58.000,HW_LDT_1,2024.2.4,MacIntel,111.1111111,,,,,,,,,,,,,,,,,,,,722.9969,723.1952,723.1952,723.6945,,,,,,,,,,,,,,0.8213,1,,,,,,,,,,,,,,m,,,,,,,,,,,,,,,153,0,723.6949,724.5201,m,1,0.8213,,[],[],[],[],[],[],[],724.5202,726.5203,726.5204,726.5206,[],[],[],[],[],[],[],,726.5206,726.5207,-0.081684028,-0.371717923,0,0,0,,0,152,152,143,1,4,word,REMOVAL,print,removal_p.png,,,,,,
,,,,29278,001,2025-10-15_18h18.58.000,HW_LDT_1,2024.2.4,MacIntel,111.1111111,,,,,,,,,,,,,,,,,,,,726.5216,726.7203,726.7204,727.2197,,,,,,,,,,,,,,1.0701,1,,,,,,,,,,,,,,m,,,,,,,,,,,,,,,154,0,727.2203,728.2951,m,1,1.0701,,[],[],[],[],[],[],[],728.2952,730.2953,730.2953,730.2954,[],[],[],[],[],[],[],,730.2955,730.2956,-0.081684028,-0.371717923,0,0,0,,0,153,153,81,1,4,word,ADVISORY,cursive,advisory_c.png,,,,,,
,,,,29278,001,2025-10-15_18h18.58.000,HW_LDT_1,2024.2.4,MacIntel,111.1111111,,,,,,,,,,,,,,,,,,,,730.2965,730.4953,730.4953,730.9944,,,,,,,,,,,,,,3.5527,1,,,,,,,,,,,,,,z,,,,,,,,,,,,,,,155,0,730.9949,734.5534,z,1,3.5527,,[],[],[],[],[],[],[],734.5535,736.5537,736.5538,736.5541,[],[],[],[],[],[],[],,736.5542,736.5543,-0.081684028,-0.371717923,0,0,0,,0,154,154,17,1,4,RL,denficy,cursive,denficy_c.png,,,,,,
,,,,29278,001,2025-10-15_18h18.58.000,HW_LDT_1,2024.2.4,MacIntel,111.1111111,,,,,,,,,,,,,,,,,,,,736.5554,736.7535,736.7535,737.2535,,,,,,,,,,,,,,0.8956,1,,,,,,,,,,,,,,m,,,,,,,,,,,,,,,156,1,737.2541,738.1536,m,1,0.8956,,[],[],[],[],[],[],[],738.1536,740.1535,740.1536,740.5953,[],[],[],[],[],[],[],z,740.5953,740.5955,-0.081684028,-0.371717923,0,0,0,,0,155,155,133,1,4,word,PROVIDE,cursive,provide_c.png,0.4368,,,,,
,,,,29278,001,2025-10-15_18h18.58.000,HW_LDT_1,2024.2.4,MacIntel,111.1111111,,,,,,,,,,,,,,,,,,,,740.5966,740.7952,740.7952,741.2942,,,,,,,,,,,,,,0.8183,1,,,,,,,,,,,,,,z,,,,,,,,,,,,,,,157,0,741.2948,742.12,z,1,0.8183,,[],[],[],[],[],[],[],742.12,744.1199,744.12,744.1201,[],[],[],[],[],[],[],,744.1201,744.1201,-0.081684028,-0.371717923,0,0,0,,0,156,156,21,1,4,RL,insibate,print,insibate_p.png,,,,,,
,,,,29278,001,2025-10-15_18h18.58.000,HW_LDT_1,2024.2.4,MacIntel,111.1111111,,,,,,,,,,,,,,,,,,,,744.1207,744.3202,744.3202,744.8201,,,,,,,,,,,,,,1.5441,1,,,,,,,,,,,,,,z,,,,,,,,,,,,,,,158,0,744.8209,746.37,z,1,1.5441,,[],[],[],[],[],[],[],746.3701,748.3703,748.3703,748.3704,[],[],[],[],[],[],[],,748.3705,748.3706,-0.081684028,-0.371717923,0,0,0,,0,157,157,45,1,4,RL,spetisic,cursive,spetisic_c.png,,,,,,
,,,,29278,001,2025-10-15_18h18.58.000,HW_LDT_1,2024.2.4,MacIntel,111.1111111,,,,,,,,,,,,,,,,,,,,748.3717,748.5699,748.57,749.0702,,,,,,,,,,,,,,1.0527,1,,,,,,,,,,,,,,m,,,,,,,,,,,,,,,159,0,749.0708,750.1286,m,1,1.0527,,[],[],[],[],[],[],[],750.1286,752.1283,752.1283,752.1283,[],[],[],[],[],[],[],,752.1284,752.1284,-0.081684028,-0.371717923,0,0,0,,0,158,158,111,1,4,word,INDICATE,print,indicate_p.png,,,,,,
,,,,29278,001,2025-10-15_18h18.58.000,HW_LDT_1,2024.2.4,MacIntel,111.1111111,,,,,,,,,,,,,,,,,,,,752.1289,752.3284,752.3285,752.8284,,,,,,,,,,,,,,0.7609,1,,,,,,,,,,,,,,m,,,,,,,,,,,,,,,160,0,752.8291,753.595,m,1,0.7609,,[],[],[],[],[],[],[],753.5951,755.5941,755.5941,755.5942,[],[],[],[],[],[],[],,755.5942,755.5943,-0.081684028,-0.371717923,0,0,0,,0,159,159,156,1,4,word,TRIBUTE,print,tribute_p.png,,,,,,
,,,,29278,001,2025-10-15_18h18.58.000,HW_LDT_1,2024.2.4,MacIntel,111.1111111,,,,,,,,,,,,,,,,,,,,,,,,,,,,,,,,,,,,,,,,,,,,,,,,,,,,,,,,,,,,,,,,,,,,,,,,,,,,,,,,,,,,,,,,,,,,,,,,,,,,,,,,,,,,,,,,,,,,755.5945,760.5951
