counterbalance_lists.group,counterbalance_lists.remaining,get_list.started,get_list.stopped,participant,session,date,expName,psychopyVersion,OS,frameRate,Instructions.started,Instructions.stopped,key_resp.keys,instr_done_touch.x,instr_done_touch.y,instr_done_touch.leftButton,instr_done_touch.midButton,instr_done_touch.rightButton,instr_done_touch.clicked_name,start_instr.thisRepN,start_instr.thisTrialN,start_instr.thisN,start_instr.thisIndex,start_instr.ran,pageN,phase,instruct_text,has_image,instruct_image,key_resp.rt,key_resp.duration,showProgress.started,showProgress.stopped,fix.started,fix.stopped,prac.started,prac.stopped,response.keys,response.corr,response.rt,response.duration,touch_resp.x,touch_resp.y,touch_resp.leftButton,touch_resp.midButton,touch_resp.rightButton,touch_resp.time,touch_resp.clicked_name,rt,corr,feedback.started,feedback.stopped,trials.thisRepN,trials.thisTrialN,trials.thisN,trials.thisIndex,trials.ran,TrialID,StimulusType,Condition,PrimeDuration,Prime,Target,corrAns,Instructions_expt.started,Instructions_expt.stopped,key_resp_3.keys,instr_done_touch_3.x,instr_done_touch_3.y,instr_done_touch_3.leftButton,instr_done_touch_3.midButton,instr_done_touch_3.rightButton,instr_done_touch_3.clicked_name,instr_experiment.thisRepN,instr_experiment.thisTrialN,instr_experiment.thisN,instr_experiment.thisIndex,instr_experiment.ran,trialID,flag,maintask.started,maintask.stopped,key_resp_2.keys,key_resp_2.corr,key_resp_2.rt,key_resp_2.duration,targ_click.x,targ_click.y,targ_click.leftButton,targ_click.midButton,targ_click.rightButton,targ_click.time,targ_click.clicked_name,ITI.started,ITI.stopped,probe.started,probe.stopped,click_probe.x,click_probe.y,click_probe.leftButton,click_probe.midButton,click_probe.rightButton,click_probe.time,click_probe.clicked_name,key_resp_probe.keys,Break.started,Break.stopped,break_done_touch.x,break_done_touch.y,break_done_touch.leftButton,break_done_touch.midButton,break_done_touch.rightButton,break_done_keyboard.keys,list4_trials.thisRepN,list4_trials.thisTrialN,list4_trials.thisN,list4_trials.thisIndex,list4_trials.ran,list_id,item_type,string,font,stim_file,key_resp_probe.rt,key_resp_probe.duration,break_done_touch.clicked_name,End.started,End.stopped
list4,,0.4682,0.4684,29493,001,2025-10-16_13h44.20.014,HW_LDT_1,2024.2.4,MacIntel,61.72839506,,,,,,,,,,,,,,,,,,,,,,,,,,,,,,,,,,,,,,,,,,,,,,,,,,,,,,,,,,,,,,,,,,,,,,,,,,,,,,,,,,,,,,,,,,,,,,,,,,,,,,,,,,,,,,,,,,,,,,
,,,,29493,001,2025-10-16_13h44.20.014,HW_LDT_1,2024.2.4,MacIntel,61.72839506,0.485,4.7571,,-0.111141493,-0.384869792,1,0,0,instr_done_button,0,0,0,0,1,1,instructions,"INSTRUCTIONS
At the start of each trial, look at the plus sign  (+) in the center of the screen.  This tells you that a trial is about to begin and where to look. Second, the plus sign will disappear and a string of letters will appear. Your task is to determine if the string of letters is a word or not. If the item is a word press the M key (on keyboard)  or touch the word button (phone/tablet).  If the item is not a word,  press the  Z key (on keyboard)  or touch the nonword button (on phone/tablet). The items will be presented for a short time. 
Press the space bar or touch  continue.",0,,,,,,,,,,,,,,,,,,,,,,,,,,,,,,,,,,,,,,,,,,,,,,,,,,,,,,,,,,,,,,,,,,,,,,,,,,,,,,,,,,,,,,,,,,,,,,,,,,,,
,,,,29493,001,2025-10-16_13h44.20.014,HW_LDT_1,2024.2.4,MacIntel,61.72839506,4.7592,10.2916,space,-0.110993924,-0.385164931,0,0,0,,0,1,1,1,1,2,instructions,"If your device has a keyboard, press the 'Z' key for nonwords and the 'M' key for words.





Press the space bar or touch the button below to continue.",0,keyboard-example.gif,5.5177,,,,,,,,,,,,,,,,,,,,,,,,,,,,,,,,,,,,,,,,,,,,,,,,,,,,,,,,,,,,,,,,,,,,,,,,,,,,,,,,,,,,,,,,,,,,,,,,,,
,,,,29493,001,2025-10-16_13h44.20.014,HW_LDT_1,2024.2.4,MacIntel,61.72839506,10.2931,13.8236,space,-0.110993924,-0.385164931,0,0,0,,0,2,2,2,1,3,instructions,"If you are using a touchscreen only device, use the buttons on the screen. Do not use the mouse.





Press the space bar or touch the button below to continue.",0,touchscreen-example.gif,3.5075,,,,,,,,,,,,,,,,,,,,,,,,,,,,,,,,,,,,,,,,,,,,,,,,,,,,,,,,,,,,,,,,,,,,,,,,,,,,,,,,,,,,,,,,,,,,,,,,,,
,,,,29493,001,2025-10-16_13h44.20.014,HW_LDT_1,2024.2.4,MacIntel,61.72839506,13.8263,23.2739,space,0.10497008,0.385593972,0,0,0,,0,3,3,3,1,4,instructions,"It is very important that you respond as quickly and accurately as possible, as each letter string will only be on the screen for two seconds. If you do not respond within this time, the message 'Too slow!' will be displayed and the experiment will progress to the next letter string. The first 20 trials will be practice trials and you will receive feedback on your answers. 

Press the space bar or touch the button below to start the practice trials.",0,,9.4218,,,,,,,,,,,,,,,,,,,,,,,,,,,,,,,,,,,,,,,,,,,,,,,,,,,,,,,,,,,,,,,,,,,,,,,,,,,,,,,,,,,,,,,,,,,,,,,,,,
,,,,29493,001,2025-10-16_13h44.20.014,HW_LDT_1,2024.2.4,MacIntel,61.72839506,,,,,,,,,,,,,,,,,,,,,,23.3004,23.4737,23.4741,23.9736,23.9739,26.874,m,1,2.878,,[],[],[],[],[],[],[],2.878,1,26.8743,27.374,0,0,0,6,1,1007,WORD,UN,16,tropic,ZOMBIE,m,,,,,,,,,,,,,,,,,,,,,,,,,,,,,,,,,,,,,,,,,,,,,,,,,,,,,,,,,,,,,,,,
,,,,29493,001,2025-10-16_13h44.20.014,HW_LDT_1,2024.2.4,MacIntel,61.72839506,,,,,,,,,,,,,,,,,,,,,,27.3759,27.5734,27.5735,28.0736,28.0748,30.0235,z,1,1.9326,,[],[],[],[],[],[],[],1.9326,1,30.0237,30.5232,0,1,1,12,1,1013,NW,UN,33,adveil,SPRINY,z,,,,,,,,,,,,,,,,,,,,,,,,,,,,,,,,,,,,,,,,,,,,,,,,,,,,,,,,,,,,,,,,
,,,,29493,001,2025-10-16_13h44.20.014,HW_LDT_1,2024.2.4,MacIntel,61.72839506,,,,,,,,,,,,,,,,,,,,,,30.5247,30.7235,30.7235,31.2234,31.2245,32.4736,m,1,1.2285,,[],[],[],[],[],[],[],1.2285,1,32.4737,32.9736,0,2,2,3,1,1004,WORD,"ID",16,matrix,MATRIX,m,,,,,,,,,,,,,,,,,,,,,,,,,,,,,,,,,,,,,,,,,,,,,,,,,,,,,,,,,,,,,,,,
,,,,29493,001,2025-10-16_13h44.20.014,HW_LDT_1,2024.2.4,MacIntel,61.72839506,,,,,,,,,,,,,,,,,,,,,,32.9754,33.1734,33.1736,33.6734,33.6742,34.3236,m,1,0.629,,[],[],[],[],[],[],[],0.629,1,34.3238,34.8235,0,3,3,2,1,1003,WORD,"ID",16,almond,ALMOND,m,,,,,,,,,,,,,,,,,,,,,,,,,,,,,,,,,,,,,,,,,,,,,,,,,,,,,,,,,,,,,,,,
,,,,29493,001,2025-10-16_13h44.20.014,HW_LDT_1,2024.2.4,MacIntel,61.72839506,,,,,,,,,,,,,,,,,,,,,,34.8249,35.0234,35.0235,35.5234,35.5247,36.0736,m,1,0.5276,,[],[],[],[],[],[],[],0.5276,1,36.0738,36.5736,0,4,4,7,1,1008,WORD,UN,16,hurdle,VOLUME,m,,,,,,,,,,,,,,,,,,,,,,,,,,,,,,,,,,,,,,,,,,,,,,,,,,,,,,,,,,,,,,,,
,,,,29493,001,2025-10-16_13h44.20.014,HW_LDT_1,2024.2.4,MacIntel,61.72839506,,,,,,,,,,,,,,,,,,,,,,36.5749,36.7735,36.7736,37.2735,37.2746,38.0567,z,1,0.7681,,[],[],[],[],[],[],[],0.7681,1,38.0568,38.557,0,5,5,10,1,1011,NW,"ID",16,inlade,INLADE,z,,,,,,,,,,,,,,,,,,,,,,,,,,,,,,,,,,,,,,,,,,,,,,,,,,,,,,,,,,,,,,,,
,,,,29493,001,2025-10-16_13h44.20.014,HW_LDT_1,2024.2.4,MacIntel,61.72839506,,,,,,,,,,,,,,,,,,,,,,38.5586,38.7569,38.7569,39.2569,39.2581,39.8737,m,1,0.5948,,[],[],[],[],[],[],[],0.5948,1,39.8739,40.3728,0,6,6,4,1,1005,WORD,UN,33,abound,SQUEAK,m,,,,,,,,,,,,,,,,,,,,,,,,,,,,,,,,,,,,,,,,,,,,,,,,,,,,,,,,,,,,,,,,
,,,,29493,001,2025-10-16_13h44.20.014,HW_LDT_1,2024.2.4,MacIntel,61.72839506,,,,,,,,,,,,,,,,,,,,,,40.3746,40.5737,40.5738,41.0736,41.0748,41.7902,z,1,0.7077,,[],[],[],[],[],[],[],0.7077,1,41.7904,42.2902,0,7,7,14,1,1015,NW,UN,16,miaber,THRALE,z,,,,,,,,,,,,,,,,,,,,,,,,,,,,,,,,,,,,,,,,,,,,,,,,,,,,,,,,,,,,,,,,
,,,,29493,001,2025-10-16_13h44.20.014,HW_LDT_1,2024.2.4,MacIntel,61.72839506,,,,,,,,,,,,,,,,,,,,,,42.2917,42.4903,42.4904,42.9903,42.9914,43.7901,z,1,0.7894,,[],[],[],[],[],[],[],0.7894,1,43.7901,44.2893,0,8,8,9,1,1010,NW,"ID",33,fariny,FARINY,z,,,,,,,,,,,,,,,,,,,,,,,,,,,,,,,,,,,,,,,,,,,,,,,,,,,,,,,,,,,,,,,,
,,,,29493,001,2025-10-16_13h44.20.014,HW_LDT_1,2024.2.4,MacIntel,61.72839506,,,,,,,,,,,,,,,,,,,,,,44.2908,44.4892,44.4893,44.9903,44.9909,45.7226,z,1,0.7121,,[],[],[],[],[],[],[],0.7121,1,45.7227,46.2236,0,9,9,11,1,1012,NW,"ID",16,rashet,RASHET,z,,,,,,,,,,,,,,,,,,,,,,,,,,,,,,,,,,,,,,,,,,,,,,,,,,,,,,,,,,,,,,,,
,,,,29493,001,2025-10-16_13h44.20.014,HW_LDT_1,2024.2.4,MacIntel,61.72839506,,,,,,,,,,,,,,,,,,,,,,46.225,46.4225,46.4225,46.9236,46.9246,47.8237,z,1,0.8775,,[],[],[],[],[],[],[],0.8775,1,47.8238,48.3237,0,10,10,8,1,1009,NW,"ID",33,aslert,ASLERT,z,,,,,,,,,,,,,,,,,,,,,,,,,,,,,,,,,,,,,,,,,,,,,,,,,,,,,,,,,,,,,,,,
,,,,29493,001,2025-10-16_13h44.20.014,HW_LDT_1,2024.2.4,MacIntel,61.72839506,,,,,,,,,,,,,,,,,,,,,,48.3253,48.5235,48.5235,49.0237,49.0246,49.7227,m,1,0.679,,[],[],[],[],[],[],[],0.679,1,49.7228,50.2229,0,11,11,5,1,1006,WORD,UN,33,frenzy,OBTAIN,m,,,,,,,,,,,,,,,,,,,,,,,,,,,,,,,,,,,,,,,,,,,,,,,,,,,,,,,,,,,,,,,,
,,,,29493,001,2025-10-16_13h44.20.014,HW_LDT_1,2024.2.4,MacIntel,61.72839506,,,,,,,,,,,,,,,,,,,,,,50.2243,50.4237,50.4238,50.9237,50.9248,51.4571,m,1,0.5242,,[],[],[],[],[],[],[],0.5242,1,51.4573,51.957,0,12,12,1,1,1002,WORD,"ID",33,adjust,ADJUST,m,,,,,,,,,,,,,,,,,,,,,,,,,,,,,,,,,,,,,,,,,,,,,,,,,,,,,,,,,,,,,,,,
,,,,29493,001,2025-10-16_13h44.20.014,HW_LDT_1,2024.2.4,MacIntel,61.72839506,,,,,,,,,,,,,,,,,,,,,,51.9587,52.1569,52.157,52.6569,52.6575,53.3903,z,1,0.713,,[],[],[],[],[],[],[],0.713,1,53.3904,53.8895,0,13,13,15,1,1016,NW,UN,16,mushed,WHAISE,z,,,,,,,,,,,,,,,,,,,,,,,,,,,,,,,,,,,,,,,,,,,,,,,,,,,,,,,,,,,,,,,,
,,,,29493,001,2025-10-16_13h44.20.014,HW_LDT_1,2024.2.4,MacIntel,61.72839506,,,,,,,,,,,,,,,,,,,,,,53.8909,54.0905,54.0905,54.5904,54.5912,55.5394,m,0,0.9307,,[],[],[],[],[],[],[],0.9307,0,55.5404,56.0405,0,14,14,13,1,1014,NW,UN,33,winfer,ROUPET,z,,,,,,,,,,,,,,,,,,,,,,,,,,,,,,,,,,,,,,,,,,,,,,,,,,,,,,,,,,,,,,,,
,,,,29493,001,2025-10-16_13h44.20.014,HW_LDT_1,2024.2.4,MacIntel,61.72839506,,,,,,,,,,,,,,,,,,,,,,56.0419,56.2405,56.2406,56.7404,56.7412,57.3571,m,1,0.6073,,[],[],[],[],[],[],[],0.6073,1,57.3582,57.8571,0,15,15,0,1,1001,WORD,"ID",33,utopia,UTOPIA,m,,,,,,,,,,,,,,,,,,,,,,,,,,,,,,,,,,,,,,,,,,,,,,,,,,,,,,,,,,,,,,,,
,,,,29493,001,2025-10-16_13h44.20.014,HW_LDT_1,2024.2.4,MacIntel,61.72839506,,,,,,,,,,,,,,,1,end_of_practice,"You have completed the practice trials. During the experimental trials, you will not receive feedback. On some trials you will be asked to report whether the item you just saw was in cursive or print. 
Before you begin, please ensure that you are in a comfortable and quiet location and will not be disturbed for about 15 minutes, as we cannot use your data if you do not complete all the trials. 
 When you are ready to start the experimental trials, please press space or touch the button below.",,,,,,,,,,,,,,,,,,,,,,,,,,,,,,,,,,,,,,57.8645,59.9741,,-0.023376551,-0.368766622,1,0,0,instr_done_button_3,0,0,0,0,1,,,,,,,,,,,,,,,,,,,,,,,,,,,,,,,,,,,,,,,,,,,,,,,,,,
,,,,29493,001,2025-10-16_13h44.20.014,HW_LDT_1,2024.2.4,MacIntel,61.72839506,,,,,,,,,,,,,,,,,,,,,,59.9928,60.1738,60.1739,60.674,,,,,,,,,,,,,,1.7337,1,,,,,,,,,,,,,,m,,,,,,,,,,,,,,,1,0,60.6755,62.4232,m,1,1.7337,,[],[],[],[],[],[],[],62.4235,64.4241,64.4244,64.4284,[],[],[],[],[],[],[],,64.4286,64.4302,-0.023376551,-0.368766622,0,0,0,,0,0,0,102,1,4,word,DENSITY,cursive,density_c.png,,,,,
,,,,29493,001,2025-10-16_13h44.20.014,HW_LDT_1,2024.2.4,MacIntel,61.72839506,,,,,,,,,,,,,,,,,,,,,,64.4313,64.6239,64.624,65.1238,,,,,,,,,,,,,,2.3026,1,,,,,,,,,,,,,,z,,,,,,,,,,,,,,,2,0,65.1244,67.4406,z,1,2.3026,,[],[],[],[],[],[],[],67.4407,69.4406,69.4407,69.4408,[],[],[],[],[],[],[],,69.4409,69.4409,-0.023376551,-0.368766622,0,0,0,,0,1,1,35,1,4,RL,probice,cursive,probice_c.png,,,,,
,,,,29493,001,2025-10-16_13h44.20.014,HW_LDT_1,2024.2.4,MacIntel,61.72839506,,,,,,,,,,,,,,,,,,,,,,69.442,69.6406,69.6406,70.1402,,,,,,,,,,,,,,3.1044,0,,,,,,,,,,,,,,z,,,,,,,,,,,,,,,3,1,70.141,73.2576,m,0,3.1044,,[],[],[],[],[],[],[],73.2577,75.2574,75.2575,79.8909,[],[],[],[],[],[],[],m,79.8909,79.8911,-0.023376551,-0.368766622,0,0,0,,0,2,2,0,1,4,RL,abanemy,print,abanemy_p.png,4.6265,,,,
,,,,29493,001,2025-10-16_13h44.20.014,HW_LDT_1,2024.2.4,MacIntel,61.72839506,,,,,,,,,,,,,,,,,,,,,,79.8924,80.0904,80.0904,80.5898,,,,,,,,,,,,,,0.8697,1,,,,,,,,,,,,,,m,,,,,,,,,,,,,,,4,0,80.5902,81.4743,m,1,0.8697,,[],[],[],[],[],[],[],81.4744,83.4742,83.4742,83.4746,[],[],[],[],[],[],[],,83.4746,83.4747,-0.023376551,-0.368766622,0,0,0,,0,3,3,122,1,4,word,MOBILE,print,mobile_p.png,,,,,
,,,,29493,001,2025-10-16_13h44.20.014,HW_LDT_1,2024.2.4,MacIntel,61.72839506,,,,,,,,,,,,,,,,,,,,,,83.4762,83.6743,83.6743,84.1732,,,,,,,,,,,,,,5.3537,1,,,,,,,,,,,,,,z,,,,,,,,,,,,,,,5,0,84.1737,89.5404,z,1,5.3537,,[],[],[],[],[],[],[],89.5405,91.5408,91.5409,91.5411,[],[],[],[],[],[],[],,91.5411,91.5413,-0.023376551,-0.368766622,0,0,0,,0,4,4,23,1,4,RL,linefal,cursive,linefal_c.png,,,,,
,,,,29493,001,2025-10-16_13h44.20.014,HW_LDT_1,2024.2.4,MacIntel,61.72839506,,,,,,,,,,,,,,,,,,,,,,91.5422,91.74,91.7401,92.2409,,,,,,,,,,,,,,1.052,1,,,,,,,,,,,,,,m,,,,,,,,,,,,,,,6,0,92.2413,93.3077,m,1,1.052,,[],[],[],[],[],[],[],93.3079,95.3075,95.3077,95.3079,[],[],[],[],[],[],[],,95.308,95.3081,-0.023376551,-0.368766622,0,0,0,,0,5,5,125,1,4,word,OPERATOR,print,operator_p.png,,,,,
,,,,29493,001,2025-10-16_13h44.20.014,HW_LDT_1,2024.2.4,MacIntel,61.72839506,,,,,,,,,,,,,,,,,,,,,,95.3093,95.5075,95.5077,96.0065,,,,,,,,,,,,,,0.9384,1,,,,,,,,,,,,,,m,,,,,,,,,,,,,,,7,0,96.0069,96.9574,m,1,0.9384,,[],[],[],[],[],[],[],96.9575,98.9578,98.9578,98.9581,[],[],[],[],[],[],[],,98.9582,98.9583,-0.023376551,-0.368766622,0,0,0,,0,6,6,98,1,4,word,CRIMINAL,cursive,criminal_c.png,,,,,
,,,,29493,001,2025-10-16_13h44.20.014,HW_LDT_1,2024.2.4,MacIntel,61.72839506,,,,,,,,,,,,,,,,,,,,,,98.9598,99.1578,99.1579,99.6577,,,,,,,,,,,,,,1.5697,0,,,,,,,,,,,,,,z,,,,,,,,,,,,,,,8,1,99.6583,101.2411,m,0,1.5697,,[],[],[],[],[],[],[],101.2413,103.2413,103.2414,104.707,[],[],[],[],[],[],[],m,104.7071,104.7073,-0.023376551,-0.368766622,0,0,0,,0,7,7,69,1,4,TL,quafily,print,quafily_p.png,1.4649,,,,
,,,,29493,001,2025-10-16_13h44.20.014,HW_LDT_1,2024.2.4,MacIntel,61.72839506,,,,,,,,,,,,,,,,,,,,,,104.7083,104.9077,104.9077,105.4077,,,,,,,,,,,,,,0.9069,1,,,,,,,,,,,,,,z,,,,,,,,,,,,,,,9,0,105.4085,106.3232,z,1,0.9069,,[],[],[],[],[],[],[],106.3234,108.3245,108.3245,108.3247,[],[],[],[],[],[],[],,108.3248,108.325,-0.023376551,-0.368766622,0,0,0,,0,8,8,54,1,4,TL,codemy,print,codemy_p.png,,,,,
,,,,29493,001,2025-10-16_13h44.20.014,HW_LDT_1,2024.2.4,MacIntel,61.72839506,,,,,,,,,,,,,,,,,,,,,,108.3266,108.5239,108.524,109.0245,,,,,,,,,,,,,,0.7021,1,,,,,,,,,,,,,,m,,,,,,,,,,,,,,,10,0,109.0251,109.7412,m,1,0.7021,,[],[],[],[],[],[],[],109.7414,111.7401,111.7403,111.7405,[],[],[],[],[],[],[],,111.7405,111.7408,-0.023376551,-0.368766622,0,0,0,,0,9,9,90,1,4,word,CAPITAL,print,capital_p.png,,,,,
,,,,29493,001,2025-10-16_13h44.20.014,HW_LDT_1,2024.2.4,MacIntel,61.72839506,,,,,,,,,,,,,,,,,,,,,,111.7423,111.9413,111.9413,112.4413,,,,,,,,,,,,,,2.0146,1,,,,,,,,,,,,,,z,,,,,,,,,,,,,,,11,0,112.4418,114.4578,z,1,2.0146,,[],[],[],[],[],[],[],114.458,116.4573,116.4573,116.4574,[],[],[],[],[],[],[],,116.4574,116.4576,-0.023376551,-0.368766622,0,0,0,,0,10,10,6,1,4,RL,caleberia,cursive,caleberia_c.png,,,,,
,,,,29493,001,2025-10-16_13h44.20.014,HW_LDT_1,2024.2.4,MacIntel,61.72839506,,,,,,,,,,,,,,,,,,,,,,116.459,116.658,116.6581,117.1579,,,,,,,,,,,,,,1.1254,1,,,,,,,,,,,,,,z,,,,,,,,,,,,,,,12,0,117.1586,118.2914,z,1,1.1254,,[],[],[],[],[],[],[],118.2915,120.2914,120.2914,120.2917,[],[],[],[],[],[],[],,120.2917,120.2919,-0.023376551,-0.368766622,0,0,0,,0,11,11,75,1,4,TL,sanile,print,sanile_p.png,,,,,
,,,,29493,001,2025-10-16_13h44.20.014,HW_LDT_1,2024.2.4,MacIntel,61.72839506,,,,,,,,,,,,,,,,,,,,,,120.2935,120.4913,120.4913,120.9902,,,,,,,,,,,,,,0.8985,1,,,,,,,,,,,,,,m,,,,,,,,,,,,,,,13,0,120.9906,121.8913,m,1,0.8985,,[],[],[],[],[],[],[],121.8913,123.8913,123.8915,123.8917,[],[],[],[],[],[],[],,123.8917,123.8918,-0.023376551,-0.368766622,0,0,0,,0,12,12,86,1,4,word,BESIDE,print,beside_p.png,,,,,
,,,,29493,001,2025-10-16_13h44.20.014,HW_LDT_1,2024.2.4,MacIntel,61.72839506,,,,,,,,,,,,,,,,,,,,,,123.8933,124.0915,124.0916,124.5913,,,,,,,,,,,,,,2.1475,0,,,,,,,,,,,,,,z,,,,,,,,,,,,,,,14,0,124.5918,126.7403,m,0,2.1475,,[],[],[],[],[],[],[],126.7405,128.7413,128.7415,128.7416,[],[],[],[],[],[],[],,128.7417,128.7418,-0.023376551,-0.368766622,0,0,0,,0,13,13,30,1,4,RL,nunewical,cursive,nunewical_c.png,,,,,
,,,,29493,001,2025-10-16_13h44.20.014,HW_LDT_1,2024.2.4,MacIntel,61.72839506,,,,,,,,,,,,,,,,,,,,,,128.7433,128.9415,128.9415,129.4415,,,,,,,,,,,,,,0.739,1,,,,,,,,,,,,,,m,,,,,,,,,,,,,,,15,0,129.4422,130.1917,m,1,0.739,,[],[],[],[],[],[],[],130.1917,132.1905,132.1906,132.1907,[],[],[],[],[],[],[],,132.1909,132.1909,-0.023376551,-0.368766622,0,0,0,,0,14,14,154,1,4,word,STORAGE,print,storage_p.png,,,,,
,,,,29493,001,2025-10-16_13h44.20.014,HW_LDT_1,2024.2.4,MacIntel,61.72839506,,,,,,,,,,,,,,,,,,,,,,132.1925,132.3915,132.3915,132.8916,,,,,,,,,,,,,,1.5353,1,,,,,,,,,,,,,,z,,,,,,,,,,,,,,,16,0,132.8922,134.4416,z,1,1.5353,,[],[],[],[],[],[],[],134.4416,136.4415,136.4416,136.4418,[],[],[],[],[],[],[],,136.4418,136.4419,-0.023376551,-0.368766622,0,0,0,,0,15,15,13,1,4,RL,crisival,cursive,crisival_c.png,,,,,
,,,,29493,001,2025-10-16_13h44.20.014,HW_LDT_1,2024.2.4,MacIntel,61.72839506,,,,,,,,,,,,,,,,,,,,,,136.4431,136.6414,136.6414,137.1416,,,,,,,,,,,,,,1.0196,1,,,,,,,,,,,,,,z,,,,,,,,,,,,,,,17,0,137.1422,138.175,z,1,1.0196,,[],[],[],[],[],[],[],138.1752,140.1752,140.1752,140.1755,[],[],[],[],[],[],[],,140.1756,140.1757,-0.023376551,-0.368766622,0,0,0,,0,16,16,28,1,4,RL,mifikary,print,mifikary_p.png,,,,,
,,,,29493,001,2025-10-16_13h44.20.014,HW_LDT_1,2024.2.4,MacIntel,61.72839506,,,,,,,,,,,,,,,,,,,,,,140.1772,140.3751,140.3751,140.8749,,,,,,,,,,,,,,1.1008,1,,,,,,,,,,,,,,z,,,,,,,,,,,,,,,18,0,140.8757,141.9913,z,1,1.1008,,[],[],[],[],[],[],[],141.9914,143.9917,143.9918,143.9921,[],[],[],[],[],[],[],,143.9921,143.9922,-0.023376551,-0.368766622,0,0,0,,0,17,17,67,1,4,TL,polupar,print,polupar_p.png,,,,,
,,,,29493,001,2025-10-16_13h44.20.014,HW_LDT_1,2024.2.4,MacIntel,61.72839506,,,,,,,,,,,,,,,,,,,,,,143.9938,144.1907,144.1908,144.6917,,,,,,,,,,,,,,1.8309,1,,,,,,,,,,,,,,m,,,,,,,,,,,,,,,19,0,144.6924,146.5249,m,1,1.8309,,[],[],[],[],[],[],[],146.525,148.5243,148.5243,148.5245,[],[],[],[],[],[],[],,148.5246,148.5247,-0.023376551,-0.368766622,0,0,0,,0,18,18,129,1,4,word,PARENT,cursive,parent_c.png,,,,,
,,,,29493,001,2025-10-16_13h44.20.014,HW_LDT_1,2024.2.4,MacIntel,61.72839506,,,,,,,,,,,,,,,,,,,,,,148.5258,148.724,148.7241,149.225,,,,,,,,,,,,,,0.7679,1,,,,,,,,,,,,,,m,,,,,,,,,,,,,,,20,0,149.2257,150.0085,m,1,0.7679,,[],[],[],[],[],[],[],150.0086,152.0085,152.0086,152.009,[],[],[],[],[],[],[],,152.0091,152.0092,-0.023376551,-0.368766622,0,0,0,,0,19,19,94,1,4,word,CLINICAL,print,clinical_p.png,,,,,
,,,,29493,001,2025-10-16_13h44.20.014,HW_LDT_1,2024.2.4,MacIntel,61.72839506,,,,,,,,,,,,,,,,,,,,,,152.0106,152.2085,152.2086,152.7077,,,,,,,,,,,,,,0.5204,1,,,,,,,,,,,,,,m,,,,,,,,,,,,,,,21,0,152.7083,153.242,m,1,0.5204,,[],[],[],[],[],[],[],153.2421,155.2417,155.2418,155.2421,[],[],[],[],[],[],[],,155.2422,155.2423,-0.023376551,-0.368766622,0,0,0,,0,20,20,149,1,4,word,SENATOR,print,senator_p.png,,,,,
,,,,29493,001,2025-10-16_13h44.20.014,HW_LDT_1,2024.2.4,MacIntel,61.72839506,,,,,,,,,,,,,,,,,,,,,,155.2438,155.4416,155.4417,155.9418,,,,,,,,,,,,,,1.8716,1,,,,,,,,,,,,,,z,,,,,,,,,,,,,,,22,0,155.9422,157.8252,z,1,1.8716,,[],[],[],[],[],[],[],157.8253,159.8253,159.8254,159.8258,[],[],[],[],[],[],[],,159.8259,159.826,-0.023376551,-0.368766622,0,0,0,,0,21,21,24,1,4,RL,marmipal,cursive,marmipal_c.png,,,,,
,,,,29493,001,2025-10-16_13h44.20.014,HW_LDT_1,2024.2.4,MacIntel,61.72839506,,,,,,,,,,,,,,,,,,,,,,159.8273,160.0252,160.0253,160.5252,,,,,,,,,,,,,,1.1703,1,,,,,,,,,,,,,,z,,,,,,,,,,,,,,,23,1,160.5257,161.7089,z,1,1.1703,,[],[],[],[],[],[],[],161.709,163.7079,163.7079,166.208,[],[],[],[],[],[],[],m,166.2081,166.2083,-0.023376551,-0.368766622,0,0,0,,0,22,22,40,1,4,RL,reconal,print,reconal_p.png,2.4877,,,,
,,,,29493,001,2025-10-16_13h44.20.014,HW_LDT_1,2024.2.4,MacIntel,61.72839506,,,,,,,,,,,,,,,,,,,,,,166.2098,166.4086,166.4086,166.9087,,,,,,,,,,,,,,0.8531,1,,,,,,,,,,,,,,m,,,,,,,,,,,,,,,24,0,166.9093,167.7756,m,1,0.8531,,[],[],[],[],[],[],[],167.7757,169.7744,169.7745,169.7747,[],[],[],[],[],[],[],,169.7747,169.7749,-0.023376551,-0.368766622,0,0,0,,0,23,23,115,1,4,word,LOGICAL,print,logical_p.png,,,,,
,,,,29493,001,2025-10-16_13h44.20.014,HW_LDT_1,2024.2.4,MacIntel,61.72839506,,,,,,,,,,,,,,,,,,,,,,169.7762,169.9754,169.9755,170.4744,,,,,,,,,,,,,,0.5869,1,,,,,,,,,,,,,,m,,,,,,,,,,,,,,,25,0,170.4748,171.0745,m,1,0.5869,,[],[],[],[],[],[],[],171.0746,173.0754,173.0754,173.0755,[],[],[],[],[],[],[],,173.0756,173.0757,-0.023376551,-0.368766622,0,0,0,,0,24,24,136,1,4,word,RADICAL,print,radical_p.png,,,,,
,,,,29493,001,2025-10-16_13h44.20.014,HW_LDT_1,2024.2.4,MacIntel,61.72839506,,,,,,,,,,,,,,,,,,,,,,173.077,173.2754,173.2754,173.7745,,,,,,,,,,,,,,1.8709,1,,,,,,,,,,,,,,z,,,,,,,,,,,,,,,26,0,173.775,175.6592,z,1,1.8709,,[],[],[],[],[],[],[],175.6593,177.6578,177.6579,177.6581,[],[],[],[],[],[],[],,177.6581,177.6583,-0.023376551,-0.368766622,0,0,0,,0,25,25,45,1,4,RL,spetisic,cursive,spetisic_c.png,,,,,
,,,,29493,001,2025-10-16_13h44.20.014,HW_LDT_1,2024.2.4,MacIntel,61.72839506,,,,,,,,,,,,,,,,,,,,,,177.6597,177.8583,177.8583,178.3589,,,,,,,,,,,,,,1.0693,1,,,,,,,,,,,,,,z,,,,,,,,,,,,,,,27,1,178.3596,179.4413,z,1,1.0693,,[],[],[],[],[],[],[],179.4413,181.4422,181.4423,182.7591,[],[],[],[],[],[],[],z,182.7591,182.7592,-0.023376551,-0.368766622,0,0,0,,0,26,26,36,1,4,RL,rabigly,cursive,rabigly_c.png,1.3148,,,,
,,,,29493,001,2025-10-16_13h44.20.014,HW_LDT_1,2024.2.4,MacIntel,61.72839506,,,,,,,,,,,,,,,,,,,,,,182.7604,182.9587,182.9588,183.459,,,,,,,,,,,,,,1.5578,1,,,,,,,,,,,,,,m,,,,,,,,,,,,,,,28,1,183.4596,185.0253,m,1,1.5578,,[],[],[],[],[],[],[],185.0254,187.0255,187.0257,188.6247,[],[],[],[],[],[],[],z,188.6247,188.6248,-0.023376551,-0.368766622,0,0,0,,0,27,27,118,1,4,word,MEDICINE,cursive,medicine_c.png,1.5978,,,,
,,,,29493,001,2025-10-16_13h44.20.014,HW_LDT_1,2024.2.4,MacIntel,61.72839506,,,,,,,,,,,,,,,,,,,,,,188.6261,188.8246,188.8247,189.3252,,,,,,,,,,,,,,2.6363,1,,,,,,,,,,,,,,m,,,,,,,,,,,,,,,29,0,189.3257,191.975,m,1,2.6363,,[],[],[],[],[],[],[],191.9751,193.9757,193.9757,193.9759,[],[],[],[],[],[],[],,193.9759,193.9761,-0.023376551,-0.368766622,0,0,0,,0,28,28,112,1,4,word,LIBERAL,cursive,liberal_c.png,,,,,
,,,,29493,001,2025-10-16_13h44.20.014,HW_LDT_1,2024.2.4,MacIntel,61.72839506,,,,,,,,,,,,,,,,,,,,,,193.9775,194.1759,194.1759,194.6757,,,,,,,,,,,,,,4.5531,1,,,,,,,,,,,,,,z,,,,,,,,,,,,,,,30,0,194.6763,199.2415,z,1,4.5531,,[],[],[],[],[],[],[],199.2415,201.2415,201.2415,201.2417,[],[],[],[],[],[],[],,201.2417,201.2418,-0.023376551,-0.368766622,0,0,0,,0,29,29,44,1,4,RL,senvilent,print,senvilent_p.png,,,,,
,,,,29493,001,2025-10-16_13h44.20.014,HW_LDT_1,2024.2.4,MacIntel,61.72839506,,,,,,,,,,,,,,,,,,,,,,201.2429,201.4426,201.4426,201.9424,,,,,,,,,,,,,,15.3053,1,,,,,,,,,,,,,,z,,,,,,,,,,,,,,,31,0,201.943,217.2595,z,1,15.3053,,[],[],[],[],[],[],[],217.2596,219.2594,219.2595,219.2597,[],[],[],[],[],[],[],,219.2598,219.2599,-0.023376551,-0.368766622,0,0,0,,0,30,30,7,1,4,RL,casena,print,casena_p.png,,,,,
,,,,29493,001,2025-10-16_13h44.20.014,HW_LDT_1,2024.2.4,MacIntel,61.72839506,,,,,,,,,,,,,,,,,,,,,,219.2612,219.4587,219.4588,219.9594,,,,,,,,,,,,,,1.1572,1,,,,,,,,,,,,,,z,,,,,,,,,,,,,,,32,0,219.96,221.1256,z,1,1.1572,,[],[],[],[],[],[],[],221.1257,223.1252,223.1252,223.1254,[],[],[],[],[],[],[],,223.1254,223.1255,-0.023376551,-0.368766622,0,0,0,,0,31,31,50,1,4,RL,vecelan,cursive,vecelan_c.png,,,,,
,,,,29493,001,2025-10-16_13h44.20.014,HW_LDT_1,2024.2.4,MacIntel,61.72839506,,,,,,,,,,,,,,,,,,,,,,223.1268,223.3262,223.3262,223.8262,,,,,,,,,,,,,,1.1369,1,,,,,,,,,,,,,,z,,,,,,,,,,,,,,,33,1,223.8268,224.9762,z,1,1.1369,,[],[],[],[],[],[],[],224.9764,226.9762,226.9763,228.3427,[],[],[],[],[],[],[],z,228.3428,228.3428,-0.023376551,-0.368766622,0,0,0,,0,32,32,19,1,4,RL,elacodate,cursive,elacodate_c.png,1.365,,,,
,,,,29493,001,2025-10-16_13h44.20.014,HW_LDT_1,2024.2.4,MacIntel,61.72839506,,,,,,,,,,,,,,,,,,,,,,228.3438,228.5429,228.543,229.0423,,,,,,,,,,,,,,1.2867,1,,,,,,,,,,,,,,m,,,,,,,,,,,,,,,34,0,229.0429,230.3423,m,1,1.2867,,[],[],[],[],[],[],[],230.3424,232.343,232.343,232.3432,[],[],[],[],[],[],[],,232.3432,232.3434,-0.023376551,-0.368766622,0,0,0,,0,33,33,158,1,4,word,VELOCITY,cursive,velocity_c.png,,,,,
,,,,29493,001,2025-10-16_13h44.20.014,HW_LDT_1,2024.2.4,MacIntel,61.72839506,,,,,,,,,,,,,,,,,,,,,,232.3448,232.5421,232.5421,233.042,,,,,,,,,,,,,,0.6719,1,,,,,,,,,,,,,,m,,,,,,,,,,,,,,,35,0,233.0425,233.7264,m,1,0.6719,,[],[],[],[],[],[],[],233.7265,235.7263,235.7263,235.7265,[],[],[],[],[],[],[],,235.7265,235.7266,-0.023376551,-0.368766622,0,0,0,,0,34,34,139,1,4,word,REGULAR,cursive,regular_c.png,,,,,
,,,,29493,001,2025-10-16_13h44.20.014,HW_LDT_1,2024.2.4,MacIntel,61.72839506,,,,,,,,,,,,,,,,,,,,,,235.7282,235.9262,235.9263,236.4262,,,,,,,,,,,,,,1.0198,1,,,,,,,,,,,,,,z,,,,,,,,,,,,,,,36,0,236.4266,237.4597,z,1,1.0198,,[],[],[],[],[],[],[],237.4598,239.4597,239.4599,239.46,[],[],[],[],[],[],[],,239.46,239.4602,-0.023376551,-0.368766622,0,0,0,,0,35,35,34,1,4,RL,posity,cursive,posity_c.png,,,,,
,,,,29493,001,2025-10-16_13h44.20.014,HW_LDT_1,2024.2.4,MacIntel,61.72839506,,,,,,,,,,,,,,,,,,,,,,239.4616,239.6597,239.6597,240.1586,,,,,,,,,,,,,,0.7043,1,,,,,,,,,,,,,,m,,,,,,,,,,,,,,,37,0,240.159,240.8754,m,1,0.7043,,[],[],[],[],[],[],[],240.8755,242.8765,242.8765,242.8768,[],[],[],[],[],[],[],,242.8768,242.8769,-0.023376551,-0.368766622,0,0,0,,0,36,36,89,1,4,word,CAPACITY,cursive,capacity_c.png,,,,,
,,,,29493,001,2025-10-16_13h44.20.014,HW_LDT_1,2024.2.4,MacIntel,61.72839506,,,,,,,,,,,,,,,,,,,,,,242.8784,243.0763,243.0763,243.5765,,,,,,,,,,,,,,0.6696,1,,,,,,,,,,,,,,z,,,,,,,,,,,,,,,38,0,243.5771,244.2599,z,1,0.6696,,[],[],[],[],[],[],[],244.26,246.2598,246.2598,246.26,[],[],[],[],[],[],[],,246.26,246.2601,-0.023376551,-0.368766622,0,0,0,,0,37,37,9,1,4,RL,cafigal,print,cafigal_p.png,,,,,
,,,,29493,001,2025-10-16_13h44.20.014,HW_LDT_1,2024.2.4,MacIntel,61.72839506,,,,,,,,,,,,,,,,,,,,,,246.2614,246.4599,246.4599,246.9599,,,,,,,,,,,,,,0.6686,1,,,,,,,,,,,,,,m,,,,,,,,,,,,,,,39,0,246.9607,247.6433,m,1,0.6686,,[],[],[],[],[],[],[],247.6435,249.6427,249.6427,249.6428,[],[],[],[],[],[],[],,249.6429,249.6431,-0.023376551,-0.368766622,0,0,0,,0,38,38,121,1,4,word,MISTAKE,print,mistake_p.png,,,,,
,,,,29493,001,2025-10-16_13h44.20.014,HW_LDT_1,2024.2.4,MacIntel,61.72839506,,,,,,,,,,,,,,,,,,,,,,249.6446,249.8431,249.8432,250.3432,,,,,,,,,,,,,,0.5698,1,,,,,,,,,,,,,,m,,,,,,,,,,,,,,,40,0,250.3437,250.9261,m,1,0.5698,,[],[],[],[],[],[],[],250.9261,252.9256,252.9257,252.9259,[],[],[],[],[],[],[],,252.9259,252.9261,-0.023376551,-0.368766622,0,0,0,,0,39,39,107,1,4,word,EVIDENT,print,evident_p.png,,,,,
,,,,29493,001,2025-10-16_13h44.20.014,HW_LDT_1,2024.2.4,MacIntel,61.72839506,,,,,,,,,,,,,,,,,,,,,,252.9275,253.1266,253.1266,253.6267,,,,,,,,,,,,,,1.6723,1,,,,,,,,,,,,,,z,,,,,,,,,,,,,,,41,0,253.6273,255.31,z,1,1.6723,,[],[],[],[],[],[],[],255.3101,257.3098,257.3099,257.31,[],[],[],[],[],[],[],,257.31,257.3101,-0.023376551,-0.368766622,0,0,0,,0,40,40,14,1,4,RL,delahe,cursive,delahe_c.png,,,,,
,,,,29493,001,2025-10-16_13h44.20.014,HW_LDT_1,2024.2.4,MacIntel,61.72839506,,,,,,,,,,,,,,,,,,,,,,257.311,257.5098,257.51,258.0101,,,,,,,,,,,,,,0.5731,0,,,,,,,,,,,,,,z,,,,,,,,,,,,,,,42,0,258.0108,258.593,m,0,0.5731,,[],[],[],[],[],[],[],258.5931,260.5933,260.5934,260.5936,[],[],[],[],[],[],[],,260.5937,260.5938,-0.023376551,-0.368766622,0,0,0,,0,41,41,63,1,4,TL,miskate,print,miskate_p.png,,,,,
,,,,29493,001,2025-10-16_13h44.20.014,HW_LDT_1,2024.2.4,MacIntel,61.72839506,,,,,,,,,,,,,,,,,,,,,,260.5953,260.7933,260.7934,261.2934,,,,,,,,,,,,,,3.056,1,,,,,,,,,,,,,,z,,,,,,,,,,,,,,,43,0,261.2939,264.3601,z,1,3.056,,[],[],[],[],[],[],[],264.3602,266.3594,266.3595,266.3596,[],[],[],[],[],[],[],,266.3597,266.3598,-0.023376551,-0.368766622,0,0,0,,0,42,42,16,1,4,RL,desifate,cursive,desifate_c.png,,,,,
,,,,29493,001,2025-10-16_13h44.20.014,HW_LDT_1,2024.2.4,MacIntel,61.72839506,,,,,,,,,,,,,,,,,,,,,,266.3611,266.56,266.56,267.0601,,,,,,,,,,,,,,0.602,1,,,,,,,,,,,,,,m,,,,,,,,,,,,,,,44,0,267.0608,267.6768,m,1,0.602,,[],[],[],[],[],[],[],267.6768,269.6768,269.677,269.6772,[],[],[],[],[],[],[],,269.6772,269.6773,-0.023376551,-0.368766622,0,0,0,,0,43,43,84,1,4,word,BELOVED,print,beloved_p.png,,,,,
,,,,29493,001,2025-10-16_13h44.20.014,HW_LDT_1,2024.2.4,MacIntel,61.72839506,,,,,,,,,,,,,,,,,,,,,,269.6788,269.8768,269.8768,270.3767,,,,,,,,,,,,,,2.2872,1,,,,,,,,,,,,,,m,,,,,,,,,,,,,,,45,0,270.3772,272.677,m,1,2.2872,,[],[],[],[],[],[],[],272.677,274.6769,274.677,274.6771,[],[],[],[],[],[],[],,274.6772,274.6773,-0.023376551,-0.368766622,0,0,0,,0,44,44,128,1,4,word,PACIFIC,cursive,pacific_c.png,,,,,
,,,,29493,001,2025-10-16_13h44.20.014,HW_LDT_1,2024.2.4,MacIntel,61.72839506,,,,,,,,,,,,,,,,,,,,,,274.6789,274.8768,274.8769,275.3768,,,,,,,,,,,,,,0.8308,1,,,,,,,,,,,,,,z,,,,,,,,,,,,,,,46,0,275.3773,276.21,z,1,0.8308,,[],[],[],[],[],[],[],276.2101,278.2093,278.2094,278.2096,[],[],[],[],[],[],[],,278.2096,278.2097,-0.023376551,-0.368766622,0,0,0,,0,45,45,38,1,4,RL,refakive,print,refakive_p.png,,,,,
,,,,29493,001,2025-10-16_13h44.20.014,HW_LDT_1,2024.2.4,MacIntel,61.72839506,,,,,,,,,,,,,,,,,,,,,,278.211,278.4101,278.4101,278.9103,,,,,,,,,,,,,,0.6153,1,,,,,,,,,,,,,,m,,,,,,,,,,,,,,,47,0,278.9109,279.527,m,1,0.6153,,[],[],[],[],[],[],[],279.5271,281.5269,281.527,281.5272,[],[],[],[],[],[],[],,281.5272,281.5274,-0.023376551,-0.368766622,0,0,0,,0,46,46,110,1,4,word,HERITAGE,print,heritage_p.png,,,,,
,,,,29493,001,2025-10-16_13h44.20.014,HW_LDT_1,2024.2.4,MacIntel,61.72839506,,,,,,,,,,,,,,,,,,,,,,281.5287,281.726,281.7261,282.2269,,,,,,,,,,,,,,0.5974,1,,,,,,,,,,,,,,m,,,,,,,,,,,,,,,48,0,282.2277,282.8269,m,1,0.5974,,[],[],[],[],[],[],[],282.8269,284.827,284.827,284.8272,[],[],[],[],[],[],[],,284.8273,284.8275,-0.023376551,-0.368766622,0,0,0,,0,47,47,131,1,4,word,POPULAR,print,popular_p.png,,,,,
,,,,29493,001,2025-10-16_13h44.20.014,HW_LDT_1,2024.2.4,MacIntel,61.72839506,,,,,,,,,,,,,,,,,,,,,,284.8287,285.027,285.027,285.5271,,,,,,,,,,,,,,0.547,1,,,,,,,,,,,,,,m,,,,,,,,,,,,,,,49,0,285.5277,286.0768,m,1,0.547,,[],[],[],[],[],[],[],286.0769,288.077,288.0772,288.0773,[],[],[],[],[],[],[],,288.0774,288.0775,-0.023376551,-0.368766622,0,0,0,,0,48,48,140,1,4,word,RELATIVE,print,relative_p.png,,,,,
,,,,29493,001,2025-10-16_13h44.20.014,HW_LDT_1,2024.2.4,MacIntel,61.72839506,,,,,,,,,,,,,,,,,,,,,,288.0788,288.2771,288.2771,288.777,,,,,,,,,,,,,,0.5356,0,,,,,,,,,,,,,,z,,,,,,,,,,,,,,,50,0,288.7775,289.3272,m,0,0.5356,,[],[],[],[],[],[],[],289.3273,291.3271,291.3273,291.3275,[],[],[],[],[],[],[],,291.3275,291.3277,-0.023376551,-0.368766622,0,0,0,,0,49,49,70,1,4,TL,quatily,print,quatily_p.png,,,,,
,,,,29493,001,2025-10-16_13h44.20.014,HW_LDT_1,2024.2.4,MacIntel,61.72839506,,,,,,,,,,,,,,,,,,,,,,291.3292,291.5271,291.5271,292.0271,,,,,,,,,,,,,,0.8857,1,,,,,,,,,,,,,,z,,,,,,,,,,,,,,,51,0,292.0275,292.9273,z,1,0.8857,,[],[],[],[],[],[],[],292.9275,294.9271,294.9272,294.9274,[],[],[],[],[],[],[],,294.9274,294.9276,-0.023376551,-0.368766622,0,0,0,,0,50,50,53,1,4,TL,cemerony,print,cemerony_p.png,,,,,
,,,,29493,001,2025-10-16_13h44.20.014,HW_LDT_1,2024.2.4,MacIntel,61.72839506,,,,,,,,,,,,,,,,,,,,,,294.929,295.1272,295.1273,295.6273,,,,,,,,,,,,,,1.5405,1,,,,,,,,,,,,,,m,,,,,,,,,,,,,,,52,0,295.628,297.1766,m,1,1.5405,,[],[],[],[],[],[],[],297.1766,299.1774,299.1775,299.1777,[],[],[],[],[],[],[],,299.1778,299.1779,-0.023376551,-0.368766622,0,0,0,,0,51,51,97,1,4,word,COVERAGE,cursive,coverage_c.png,,,,,
,,,,29493,001,2025-10-16_13h44.20.014,HW_LDT_1,2024.2.4,MacIntel,61.72839506,,,,,,,,,,,,,,,,,,,,,,299.1793,299.3772,299.3772,299.877,,,,,,,,,,,,,,0.6031,1,,,,,,,,,,,,,,m,,,,,,,,,,,,,,,53,0,299.8776,300.4939,m,1,0.6031,,[],[],[],[],[],[],[],300.494,302.4939,302.494,302.4942,[],[],[],[],[],[],[],,302.4943,302.4944,-0.023376551,-0.368766622,0,0,0,,0,52,52,103,1,4,word,DISPUTE,print,dispute_p.png,,,,,
,,,,29493,001,2025-10-16_13h44.20.014,HW_LDT_1,2024.2.4,MacIntel,61.72839506,,,,,,,,,,,,,,,,,,,,,,302.4959,302.6939,302.694,303.1938,,,,,,,,,,,,,,1.0821,1,,,,,,,,,,,,,,z,,,,,,,,,,,,,,,54,0,303.1942,304.2772,z,1,1.0821,,[],[],[],[],[],[],[],304.2773,306.2774,306.2775,306.2776,[],[],[],[],[],[],[],,306.2778,306.2779,-0.023376551,-0.368766622,0,0,0,,0,53,53,2,1,4,RL,asiral,cursive,asiral_c.png,,,,,
,,,,29493,001,2025-10-16_13h44.20.014,HW_LDT_1,2024.2.4,MacIntel,61.72839506,,,,,,,,,,,,,,,,,,,,,,306.2795,306.4774,306.4775,306.9772,,,,,,,,,,,,,,0.7025,1,,,,,,,,,,,,,,z,,,,,,,,,,,,,,,55,0,306.9777,307.694,z,1,0.7025,,[],[],[],[],[],[],[],307.6941,309.6942,309.6942,309.6943,[],[],[],[],[],[],[],,309.6944,309.6945,-0.023376551,-0.368766622,0,0,0,,0,54,54,20,1,4,RL,gralekul,print,gralekul_p.png,,,,,
,,,,29493,001,2025-10-16_13h44.20.014,HW_LDT_1,2024.2.4,MacIntel,61.72839506,,,,,,,,,,,,,,,,,,,,,,309.6959,309.8941,309.8941,310.394,,,,,,,,,,,,,,0.7189,1,,,,,,,,,,,,,,m,,,,,,,,,,,,,,,56,0,310.3947,311.1274,m,1,0.7189,,[],[],[],[],[],[],[],311.1275,313.1275,313.1275,313.1277,[],[],[],[],[],[],[],,313.1278,313.1279,-0.023376551,-0.368766622,0,0,0,,0,55,55,134,1,4,word,QUALIFY,print,qualify_p.png,,,,,
,,,,29493,001,2025-10-16_13h44.20.014,HW_LDT_1,2024.2.4,MacIntel,61.72839506,,,,,,,,,,,,,,,,,,,,,,313.1295,313.3272,313.3272,313.8275,,,,,,,,,,,,,,0.7148,1,,,,,,,,,,,,,,z,,,,,,,,,,,,,,,57,0,313.8279,314.544,z,1,0.7148,,[],[],[],[],[],[],[],314.5441,316.544,316.5441,316.5442,[],[],[],[],[],[],[],,316.5443,316.5443,-0.023376551,-0.368766622,0,0,0,,0,56,56,58,1,4,TL,edivent,print,edivent_p.png,,,,,
,,,,29493,001,2025-10-16_13h44.20.014,HW_LDT_1,2024.2.4,MacIntel,61.72839506,,,,,,,,,,,,,,,,,,,,,,316.5455,316.7441,316.7442,317.2443,,,,,,,,,,,,,,1.6058,0,,,,,,,,,,,,,,m,,,,,,,,,,,,,,,58,0,317.245,318.8609,z,0,1.6058,,[],[],[],[],[],[],[],318.861,320.8608,320.8608,320.8611,[],[],[],[],[],[],[],,320.8611,320.8613,-0.023376551,-0.368766622,0,0,0,,0,57,57,87,1,4,word,CAFETERIA,cursive,cafeteria_c.png,,,,,
,,,,29493,001,2025-10-16_13h44.20.014,HW_LDT_1,2024.2.4,MacIntel,61.72839506,,,,,,,,,,,,,,,,,,,,,,320.8628,321.0609,321.0609,321.5608,,,,,,,,,,,,,,0.7057,1,,,,,,,,,,,,,,m,,,,,,,,,,,,,,,59,0,321.5614,322.277,m,1,0.7057,,[],[],[],[],[],[],[],322.2772,324.2775,324.2776,324.2779,[],[],[],[],[],[],[],,324.278,324.2781,-0.023376551,-0.368766622,0,0,0,,0,58,58,96,1,4,word,CONSIDER,cursive,consider_c.png,,,,,
,,,,29493,001,2025-10-16_13h44.20.014,HW_LDT_1,2024.2.4,MacIntel,61.72839506,,,,,,,,,,,,,,,,,,,,,,324.2797,324.4774,324.4775,324.9775,,,,,,,,,,,,,,0.8707,1,,,,,,,,,,,,,,z,,,,,,,,,,,,,,,60,0,324.978,325.8611,z,1,0.8707,,[],[],[],[],[],[],[],325.8612,327.861,327.861,327.8612,[],[],[],[],[],[],[],,327.8613,327.8614,-0.023376551,-0.368766622,0,0,0,,0,59,59,57,1,4,TL,etidor,print,etidor_p.png,,,,,
,,,,29493,001,2025-10-16_13h44.20.014,HW_LDT_1,2024.2.4,MacIntel,61.72839506,,,,,,,,,,,,,,,,,,,,,,327.8628,328.0601,328.0601,328.5606,,,,,,,,,,,,,,0.7201,1,,,,,,,,,,,,,,m,,,,,,,,,,,,,,,61,1,328.561,329.2934,m,1,0.7201,,[],[],[],[],[],[],[],329.2934,331.2943,331.2944,333.1111,[],[],[],[],[],[],[],m,333.1112,333.1113,-0.023376551,-0.368766622,0,0,0,,0,60,60,150,1,4,word,SENTIMENT,print,sentiment_p.png,1.8036,,,,
,,,,29493,001,2025-10-16_13h44.20.014,HW_LDT_1,2024.2.4,MacIntel,61.72839506,,,,,,,,,,,,,,,,,,,,,,333.1126,333.3109,333.3109,333.811,,,,,,,,,,,,,,1.4706,1,,,,,,,,,,,,,,z,,,,,,,,,,,,,,,62,1,333.8116,335.2943,z,1,1.4706,,[],[],[],[],[],[],[],335.2943,337.2943,337.2944,338.2444,[],[],[],[],[],[],[],z,338.2445,338.2446,-0.023376551,-0.368766622,0,0,0,,0,61,61,41,1,4,RL,rebicent,cursive,rebicent_c.png,0.9396,,,,
,,,,29493,001,2025-10-16_13h44.20.014,HW_LDT_1,2024.2.4,MacIntel,61.72839506,,,,,,,,,,,,,,,,,,,,,,338.2455,338.4445,338.4445,338.9445,,,,,,,,,,,,,,2.8863,1,,,,,,,,,,,,,,z,,,,,,,,,,,,,,,63,0,338.945,341.8446,z,1,2.8863,,[],[],[],[],[],[],[],341.8446,343.8443,343.8444,343.8445,[],[],[],[],[],[],[],,343.8445,343.8446,-0.023376551,-0.368766622,0,0,0,,0,62,62,1,1,4,RL,afaneur,cursive,afaneur_c.png,,,,,
,,,,29493,001,2025-10-16_13h44.20.014,HW_LDT_1,2024.2.4,MacIntel,61.72839506,,,,,,,,,,,,,,,,,,,,,,343.8455,344.0446,344.0447,344.5436,,,,,,,,,,,,,,0.6528,1,,,,,,,,,,,,,,m,,,,,,,,,,,,,,,64,1,344.5441,345.2104,m,1,0.6528,,[],[],[],[],[],[],[],345.2104,347.2103,347.2103,348.1604,[],[],[],[],[],[],[],m,348.1604,348.1606,-0.023376551,-0.368766622,0,0,0,,0,63,63,111,1,4,word,INDICATE,print,indicate_p.png,0.9398,,,,
,,,,29493,001,2025-10-16_13h44.20.014,HW_LDT_1,2024.2.4,MacIntel,61.72839506,,,,,,,,,,,,,,,,,,,,,,348.1622,348.3612,348.3613,348.8609,,,,,,,,,,,,,,0.8225,1,,,,,,,,,,,,,,m,,,,,,,,,,,,,,,65,0,348.8614,349.6947,m,1,0.8225,,[],[],[],[],[],[],[],349.6948,351.6936,351.6937,351.6938,[],[],[],[],[],[],[],,351.6938,351.6939,-0.023376551,-0.368766622,0,0,0,,0,64,64,109,1,4,word,GRATEFUL,print,grateful_p.png,,,,,
,,,,29493,001,2025-10-16_13h44.20.014,HW_LDT_1,2024.2.4,MacIntel,61.72839506,,,,,,,,,,,,,,,,,,,,,,351.6952,351.8947,351.8948,352.3947,,,,,,,,,,,,,,0.5851,1,,,,,,,,,,,,,,m,,,,,,,,,,,,,,,66,1,352.3952,352.9948,m,1,0.5851,,[],[],[],[],[],[],[],352.9949,354.9936,354.9936,355.8937,[],[],[],[],[],[],[],m,355.8938,355.8938,-0.023376551,-0.368766622,0,0,0,,0,65,65,88,1,4,word,CAMERA,print,camera_p.png,0.8884,,,,
,,,,29493,001,2025-10-16_13h44.20.014,HW_LDT_1,2024.2.4,MacIntel,61.72839506,,,,,,,,,,,,,,,,,,,,,,355.8953,356.0946,356.0947,356.5947,,,,,,,,,,,,,,0.9353,1,,,,,,,,,,,,,,z,,,,,,,,,,,,,,,67,0,356.5953,357.5447,z,1,0.9353,,[],[],[],[],[],[],[],357.5449,359.5447,359.5448,359.545,[],[],[],[],[],[],[],,359.5451,359.5452,-0.023376551,-0.368766622,0,0,0,,0,66,66,68,1,4,TL,prosopal,print,prosopal_p.png,,,,,
,,,,29493,001,2025-10-16_13h44.20.014,HW_LDT_1,2024.2.4,MacIntel,61.72839506,,,,,,,,,,,,,,,,,,,,,,359.5466,359.7446,359.7446,360.2445,,,,,,,,,,,,,,1.036,1,,,,,,,,,,,,,,z,,,,,,,,,,,,,,,68,0,360.2451,361.2949,z,1,1.036,,[],[],[],[],[],[],[],361.295,363.2949,363.2949,363.2952,[],[],[],[],[],[],[],,363.2952,363.2954,-0.023376551,-0.368766622,0,0,0,,0,67,67,72,1,4,TL,relugar,cursive,relugar_c.png,,,,,
,,,,29493,001,2025-10-16_13h44.20.014,HW_LDT_1,2024.2.4,MacIntel,61.72839506,,,,,,,,,,,,,,,,,,,,,,363.2969,363.4946,363.4946,363.9948,,,,,,,,,,,,,,1.0529,1,,,,,,,,,,,,,,m,,,,,,,,,,,,,,,69,0,363.9954,365.0615,m,1,1.0529,,[],[],[],[],[],[],[],365.0615,367.0613,367.0613,367.0615,[],[],[],[],[],[],[],,367.0616,367.0618,-0.023376551,-0.368766622,0,0,0,,0,68,68,104,1,4,word,DOMINANT,cursive,dominant_c.png,,,,,
,,,,29493,001,2025-10-16_13h44.20.014,HW_LDT_1,2024.2.4,MacIntel,61.72839506,,,,,,,,,,,,,,,,,,,,,,367.0633,367.2604,367.2604,367.7605,,,,,,,,,,,,,,0.8538,1,,,,,,,,,,,,,,m,,,,,,,,,,,,,,,70,0,367.7609,368.6272,m,1,0.8538,,[],[],[],[],[],[],[],368.6273,370.6273,370.6273,370.6274,[],[],[],[],[],[],[],,370.6275,370.6276,-0.023376551,-0.368766622,0,0,0,,0,69,69,133,1,4,word,PROVIDE,cursive,provide_c.png,,,,,
,,,,29493,001,2025-10-16_13h44.20.014,HW_LDT_1,2024.2.4,MacIntel,61.72839506,,,,,,,,,,,,,,,,,,,,,,370.6288,370.8283,370.8284,371.3281,,,,,,,,,,,,,,0.7698,0,,,,,,,,,,,,,,m,,,,,,,,,,,,,,,71,0,371.3286,372.1106,z,0,0.7698,,[],[],[],[],[],[],[],372.1106,374.1116,374.1116,374.1119,[],[],[],[],[],[],[],,374.1119,374.1121,-0.023376551,-0.368766622,0,0,0,,0,70,70,108,1,4,word,FORTUNE,cursive,fortune_c.png,,,,,
,,,,29493,001,2025-10-16_13h44.20.014,HW_LDT_1,2024.2.4,MacIntel,61.72839506,,,,,,,,,,,,,,,,,,,,,,374.1135,374.3115,374.3115,374.8105,,,,,,,,,,,,,,2.5502,0,,,,,,,,,,,,,,m,,,,,,,,,,,,,,,72,0,374.811,377.3617,z,0,2.5502,,[],[],[],[],[],[],[],377.3617,379.3607,379.3608,379.361,[],[],[],[],[],[],[],,379.361,379.3611,-0.023376551,-0.368766622,0,0,0,,0,71,71,81,1,4,word,ADVISORY,cursive,advisory_c.png,,,,,
,,,,29493,001,2025-10-16_13h44.20.014,HW_LDT_1,2024.2.4,MacIntel,61.72839506,,,,,,,,,,,,,,,,,,,,,,379.3627,379.5617,379.5618,380.0616,,,,,,,,,,,,,,0.8029,1,,,,,,,,,,,,,,m,,,,,,,,,,,,,,,73,0,380.0622,380.8785,m,1,0.8029,,[],[],[],[],[],[],[],380.8786,382.8784,382.8784,382.8785,[],[],[],[],[],[],[],,382.8786,382.8787,-0.023376551,-0.368766622,0,0,0,,0,72,72,153,1,4,word,STOLEN,cursive,stolen_c.png,,,,,
,,,,29493,001,2025-10-16_13h44.20.014,HW_LDT_1,2024.2.4,MacIntel,61.72839506,,,,,,,,,,,,,,,,,,,,,,382.8802,383.0783,383.0784,383.5785,,,,,,,,,,,,,,0.6876,1,,,,,,,,,,,,,,m,,,,,,,,,,,,,,,74,0,383.5792,384.2775,m,1,0.6876,,[],[],[],[],[],[],[],384.2775,386.2783,386.2783,386.2784,[],[],[],[],[],[],[],,386.2785,386.2787,-0.023376551,-0.368766622,0,0,0,,0,73,73,130,1,4,word,POLICY,cursive,policy_c.png,,,,,
,,,,29493,001,2025-10-16_13h44.20.014,HW_LDT_1,2024.2.4,MacIntel,61.72839506,,,,,,,,,,,,,,,,,,,,,,386.2799,386.4776,386.4776,386.9785,,,,,,,,,,,,,,0.6797,1,,,,,,,,,,,,,,m,,,,,,,,,,,,,,,75,0,386.979,387.6615,m,1,0.6797,,[],[],[],[],[],[],[],387.6615,389.6619,389.6619,389.6622,[],[],[],[],[],[],[],,389.6622,389.6623,-0.023376551,-0.368766622,0,0,0,,0,74,74,145,1,4,word,RESUME,print,resume_p.png,,,,,
,,,,29493,001,2025-10-16_13h44.20.014,HW_LDT_1,2024.2.4,MacIntel,61.72839506,,,,,,,,,,,,,,,,,,,,,,389.6639,389.8608,389.8608,390.3619,,,,,,,,,,,,,,0.6651,1,,,,,,,,,,,,,,z,,,,,,,,,,,,,,,76,0,390.3626,391.0284,z,1,0.6651,,[],[],[],[],[],[],[],391.0285,393.0283,393.0283,393.0285,[],[],[],[],[],[],[],,393.0285,393.0286,-0.023376551,-0.368766622,0,0,0,,0,75,75,27,1,4,RL,menowy,print,menowy_p.png,,,,,
,,,,29493,001,2025-10-16_13h44.20.014,HW_LDT_1,2024.2.4,MacIntel,61.72839506,,,,,,,,,,,,,,,,,,,,,,393.0301,393.2279,393.2279,393.7285,,,,,,,,,,,,,,0.7635,1,,,,,,,,,,,,,,z,,,,,,,,,,,,,,,77,0,393.729,394.4949,z,1,0.7635,,[],[],[],[],[],[],[],394.4949,396.4952,396.4953,396.4954,[],[],[],[],[],[],[],,396.4956,396.4957,-0.023376551,-0.368766622,0,0,0,,0,76,76,37,1,4,RL,renutal,cursive,renutal_c.png,,,,,
,,,,29493,001,2025-10-16_13h44.20.014,HW_LDT_1,2024.2.4,MacIntel,61.72839506,,,,,,,,,,,,,,,,,,,,,,396.4972,396.6953,396.6953,397.1953,,,,,,,,,,,,,,0.5652,1,,,,,,,,,,,,,,m,,,,,,,,,,,,,,,78,0,397.1959,397.762,m,1,0.5652,,[],[],[],[],[],[],[],397.7621,399.7619,399.762,399.7622,[],[],[],[],[],[],[],,399.7622,399.7624,-0.023376551,-0.368766622,0,0,0,,0,77,77,93,1,4,word,CEREMONY,print,ceremony_p.png,,,,,
,,,,29493,001,2025-10-16_13h44.20.014,HW_LDT_1,2024.2.4,MacIntel,61.72839506,,,,,,,,,,,,,,,,,,,,,,399.7639,399.9619,399.9619,400.4619,,,,,,,,,,,,,,0.5854,0,,,,,,,,,,,,,,z,,,,,,,,,,,,,,,79,0,400.4626,401.062,m,0,0.5854,,[],[],[],[],[],[],[],401.0621,403.0616,403.0617,403.0618,[],[],[],[],[],[],[],,403.0618,403.062,-0.023376551,-0.368766622,0,0,0,,0,78,78,62,1,4,TL,locigal,print,locigal_p.png,,,,,
,,,,29493,001,2025-10-16_13h44.20.014,HW_LDT_1,2024.2.4,MacIntel,61.72839506,,,,,,,,,,,,,,,,,,,,,,403.0631,403.262,403.2621,403.762,,,,,,,,,,,,,,0.8747,1,,,,,,,,,,,,,,z,,,,,,,,,,,,,,,80,0,403.7626,404.6443,z,1,0.8747,,[],[],[],[],[],[],[],404.6444,406.6455,406.6455,406.6457,[],[],[],[],[],[],[],,406.6457,413.3622,-0.080723626,-0.395705895,1,0,0,,0,79,79,64,1,4,TL,moredate,print,moredate_p.png,,,break_done_button,,
,,,,29493,001,2025-10-16_13h44.20.014,HW_LDT_1,2024.2.4,MacIntel,61.72839506,,,,,,,,,,,,,,,,,,,,,,413.3631,413.5621,413.5622,414.0613,,,,,,,,,,,,,,1.3532,1,,,,,,,,,,,,,,m,,,,,,,,,,,,,,,81,1,414.062,415.429,m,1,1.3532,,[],[],[],[],[],[],[],415.4291,417.4289,417.429,418.3121,[],[],[],[],[],[],[],z,418.3121,418.3123,-0.080723626,-0.395705895,0,0,0,,0,80,80,151,1,4,word,SPECIFIC,cursive,specific_c.png,0.8825,,,,
,,,,29493,001,2025-10-16_13h44.20.014,HW_LDT_1,2024.2.4,MacIntel,61.72839506,,,,,,,,,,,,,,,,,,,,,,418.3133,418.5112,418.5113,419.0112,,,,,,,,,,,,,,0.7876,1,,,,,,,,,,,,,,m,,,,,,,,,,,,,,,82,0,419.0117,419.8122,m,1,0.7876,,[],[],[],[],[],[],[],419.8123,421.8121,421.8122,421.8123,[],[],[],[],[],[],[],,421.8123,421.8124,-0.080723626,-0.395705895,0,0,0,,0,81,81,117,1,4,word,MARINE,print,marine_p.png,,,,,
,,,,29493,001,2025-10-16_13h44.20.014,HW_LDT_1,2024.2.4,MacIntel,61.72839506,,,,,,,,,,,,,,,,,,,,,,421.8136,422.0117,422.0117,422.5122,,,,,,,,,,,,,,0.5534,1,,,,,,,,,,,,,,m,,,,,,,,,,,,,,,83,0,422.5126,423.0791,m,1,0.5534,,[],[],[],[],[],[],[],423.0793,425.078,425.078,425.0781,[],[],[],[],[],[],[],,425.0781,425.0782,-0.080723626,-0.395705895,0,0,0,,0,82,82,155,1,4,word,STRATEGY,print,strategy_p.png,,,,,
,,,,29493,001,2025-10-16_13h44.20.014,HW_LDT_1,2024.2.4,MacIntel,61.72839506,,,,,,,,,,,,,,,,,,,,,,425.0792,425.2778,425.2779,425.7788,,,,,,,,,,,,,,0.8195,1,,,,,,,,,,,,,,m,,,,,,,,,,,,,,,84,1,425.7794,426.6123,m,1,0.8195,,[],[],[],[],[],[],[],426.6124,428.6123,428.6124,429.4448,[],[],[],[],[],[],[],m,429.4448,429.4449,-0.080723626,-0.395705895,0,0,0,,0,83,83,157,1,4,word,VALIDITY,print,validity_p.png,0.8202,,,,
,,,,29493,001,2025-10-16_13h44.20.014,HW_LDT_1,2024.2.4,MacIntel,61.72839506,,,,,,,,,,,,,,,,,,,,,,429.4462,429.6456,429.6457,430.1456,,,,,,,,,,,,,,3.1531,1,,,,,,,,,,,,,,z,,,,,,,,,,,,,,,85,0,430.1463,433.3125,z,1,3.1531,,[],[],[],[],[],[],[],433.3126,435.3124,435.3125,435.3127,[],[],[],[],[],[],[],,435.3129,435.313,-0.080723626,-0.395705895,0,0,0,,0,84,84,51,1,4,TL,adsivory,cursive,adsivory_c.png,,,,,
,,,,29493,001,2025-10-16_13h44.20.014,HW_LDT_1,2024.2.4,MacIntel,61.72839506,,,,,,,,,,,,,,,,,,,,,,435.3145,435.5123,435.5124,436.0124,,,,,,,,,,,,,,1.2198,1,,,,,,,,,,,,,,z,,,,,,,,,,,,,,,86,0,436.0131,437.2461,z,1,1.2198,,[],[],[],[],[],[],[],437.2462,439.2453,439.2454,439.2455,[],[],[],[],[],[],[],,439.2455,439.2457,-0.080723626,-0.395705895,0,0,0,,0,85,85,22,1,4,RL,linedal,cursive,linedal_c.png,,,,,
,,,,29493,001,2025-10-16_13h44.20.014,HW_LDT_1,2024.2.4,MacIntel,61.72839506,,,,,,,,,,,,,,,,,,,,,,439.2472,439.4459,439.4459,439.9457,,,,,,,,,,,,,,0.7529,1,,,,,,,,,,,,,,m,,,,,,,,,,,,,,,87,1,439.9463,440.7117,m,1,0.7529,,[],[],[],[],[],[],[],440.7118,442.7115,442.7116,443.6793,[],[],[],[],[],[],[],z,443.6794,443.6795,-0.080723626,-0.395705895,0,0,0,,0,86,86,100,1,4,word,DECADE,cursive,decade_c.png,0.9544,,,,
,,,,29493,001,2025-10-16_13h44.20.014,HW_LDT_1,2024.2.4,MacIntel,61.72839506,,,,,,,,,,,,,,,,,,,,,,443.6807,443.8791,443.8792,444.3791,,,,,,,,,,,,,,0.7368,1,,,,,,,,,,,,,,m,,,,,,,,,,,,,,,88,0,444.3797,445.1293,m,1,0.7368,,[],[],[],[],[],[],[],445.1294,447.1292,447.1294,447.1296,[],[],[],[],[],[],[],,447.1297,447.1297,-0.080723626,-0.395705895,0,0,0,,0,87,87,143,1,4,word,REMOVAL,print,removal_p.png,,,,,
,,,,29493,001,2025-10-16_13h44.20.014,HW_LDT_1,2024.2.4,MacIntel,61.72839506,,,,,,,,,,,,,,,,,,,,,,447.1311,447.3293,447.3294,447.8283,,,,,,,,,,,,,,0.6701,1,,,,,,,,,,,,,,m,,,,,,,,,,,,,,,89,0,447.8288,448.5117,m,1,0.6701,,[],[],[],[],[],[],[],448.5118,450.5126,450.5126,450.5127,[],[],[],[],[],[],[],,450.5127,450.5127,-0.080723626,-0.395705895,0,0,0,,0,88,88,146,1,4,word,RETIRE,print,retire_p.png,,,,,
,,,,29493,001,2025-10-16_13h44.20.014,HW_LDT_1,2024.2.4,MacIntel,61.72839506,,,,,,,,,,,,,,,,,,,,,,450.5138,450.7128,450.7128,451.2126,,,,,,,,,,,,,,0.665,1,,,,,,,,,,,,,,m,,,,,,,,,,,,,,,90,0,451.2133,451.8792,m,1,0.665,,[],[],[],[],[],[],[],451.8793,453.8792,453.8792,453.8793,[],[],[],[],[],[],[],,453.8794,453.8795,-0.080723626,-0.395705895,0,0,0,,0,89,89,80,1,4,word,ACADEMY,print,academy_p.png,,,,,
,,,,29493,001,2025-10-16_13h44.20.014,HW_LDT_1,2024.2.4,MacIntel,61.72839506,,,,,,,,,,,,,,,,,,,,,,453.8803,454.0794,454.0794,454.5794,,,,,,,,,,,,,,1.5864,0,,,,,,,,,,,,,,m,,,,,,,,,,,,,,,91,0,454.5799,456.1795,z,0,1.5864,,[],[],[],[],[],[],[],456.1797,458.1795,458.1795,458.1797,[],[],[],[],[],[],[],,458.1798,458.1799,-0.080723626,-0.395705895,0,0,0,,0,90,90,113,1,4,word,LITERAL,cursive,literal_c.png,,,,,
,,,,29493,001,2025-10-16_13h44.20.014,HW_LDT_1,2024.2.4,MacIntel,61.72839506,,,,,,,,,,,,,,,,,,,,,,458.1813,458.3785,458.3785,458.8793,,,,,,,,,,,,,,0.9534,1,,,,,,,,,,,,,,z,,,,,,,,,,,,,,,92,1,458.8798,459.8463,z,1,0.9534,,[],[],[],[],[],[],[],459.8464,461.846,461.8461,462.663,[],[],[],[],[],[],[],z,462.6631,462.6632,-0.080723626,-0.395705895,0,0,0,,0,91,91,4,1,4,RL,betemit,cursive,betemit_c.png,0.8043,,,,
,,,,29493,001,2025-10-16_13h44.20.014,HW_LDT_1,2024.2.4,MacIntel,61.72839506,,,,,,,,,,,,,,,,,,,,,,462.6646,462.8629,462.863,463.3629,,,,,,,,,,,,,,1.4861,1,,,,,,,,,,,,,,m,,,,,,,,,,,,,,,93,0,463.3636,464.8626,m,1,1.4861,,[],[],[],[],[],[],[],464.8628,466.8629,466.8629,466.8632,[],[],[],[],[],[],[],,466.8633,466.8634,-0.080723626,-0.395705895,0,0,0,,0,92,92,91,1,4,word,CARDINAL,cursive,cardinal_c.png,,,,,
,,,,29493,001,2025-10-16_13h44.20.014,HW_LDT_1,2024.2.4,MacIntel,61.72839506,,,,,,,,,,,,,,,,,,,,,,466.8649,467.063,467.063,467.563,,,,,,,,,,,,,,0.5564,1,,,,,,,,,,,,,,m,,,,,,,,,,,,,,,94,0,467.5636,468.1296,m,1,0.5564,,[],[],[],[],[],[],[],468.1297,470.1292,470.1293,470.1294,[],[],[],[],[],[],[],,470.1294,470.1295,-0.080723626,-0.395705895,0,0,0,,0,93,93,127,1,4,word,ORIGINAL,print,original_p.png,,,,,
,,,,29493,001,2025-10-16_13h44.20.014,HW_LDT_1,2024.2.4,MacIntel,61.72839506,,,,,,,,,,,,,,,,,,,,,,470.1308,470.3296,470.3296,470.8295,,,,,,,,,,,,,,0.7806,1,,,,,,,,,,,,,,z,,,,,,,,,,,,,,,95,0,470.8299,471.6127,z,1,0.7806,,[],[],[],[],[],[],[],471.6128,473.6123,473.6123,473.6125,[],[],[],[],[],[],[],,473.6126,473.6127,-0.080723626,-0.395705895,0,0,0,,0,94,94,3,1,4,RL,bewoted,print,bewoted_p.png,,,,,
,,,,29493,001,2025-10-16_13h44.20.014,HW_LDT_1,2024.2.4,MacIntel,61.72839506,,,,,,,,,,,,,,,,,,,,,,473.6141,473.8128,473.8129,474.3129,,,,,,,,,,,,,,0.603,1,,,,,,,,,,,,,,m,,,,,,,,,,,,,,,96,0,474.3135,474.9298,m,1,0.603,,[],[],[],[],[],[],[],474.9298,476.9296,476.9297,476.9298,[],[],[],[],[],[],[],,476.9298,476.9299,-0.080723626,-0.395705895,0,0,0,,0,95,95,82,1,4,word,AMATEUR,cursive,amateur_c.png,,,,,
,,,,29493,001,2025-10-16_13h44.20.014,HW_LDT_1,2024.2.4,MacIntel,61.72839506,,,,,,,,,,,,,,,,,,,,,,476.9312,477.1297,477.1297,477.6296,,,,,,,,,,,,,,0.5653,1,,,,,,,,,,,,,,m,,,,,,,,,,,,,,,97,0,477.6302,478.1965,m,1,0.5653,,[],[],[],[],[],[],[],478.1966,480.1965,480.1965,480.1968,[],[],[],[],[],[],[],,480.1969,480.1969,-0.080723626,-0.395705895,0,0,0,,0,96,96,116,1,4,word,MARGINAL,cursive,marginal_c.png,,,,,
,,,,29493,001,2025-10-16_13h44.20.014,HW_LDT_1,2024.2.4,MacIntel,61.72839506,,,,,,,,,,,,,,,,,,,,,,480.1983,480.3963,480.3964,480.8964,,,,,,,,,,,,,,0.8188,1,,,,,,,,,,,,,,z,,,,,,,,,,,,,,,98,1,480.8969,481.7297,z,1,0.8188,,[],[],[],[],[],[],[],481.7297,483.7297,483.7298,484.9965,[],[],[],[],[],[],[],z,484.9966,484.9968,-0.080723626,-0.395705895,0,0,0,,0,97,97,32,1,4,RL,patisic,cursive,patisic_c.png,1.2537,,,,
,,,,29493,001,2025-10-16_13h44.20.014,HW_LDT_1,2024.2.4,MacIntel,61.72839506,,,,,,,,,,,,,,,,,,,,,,484.9982,485.1966,485.1966,485.6964,,,,,,,,,,,,,,1.5416,1,,,,,,,,,,,,,,z,,,,,,,,,,,,,,,99,0,485.697,487.2463,z,1,1.5416,,[],[],[],[],[],[],[],487.2463,489.2465,489.2465,489.2468,[],[],[],[],[],[],[],,489.2468,489.2468,-0.080723626,-0.395705895,0,0,0,,0,98,98,78,1,4,TL,stragety,print,stragety_p.png,,,,,
,,,,29493,001,2025-10-16_13h44.20.014,HW_LDT_1,2024.2.4,MacIntel,61.72839506,,,,,,,,,,,,,,,,,,,,,,489.2483,489.4466,489.4466,489.9465,,,,,,,,,,,,,,0.9196,1,,,,,,,,,,,,,,m,,,,,,,,,,,,,,,100,1,489.9472,490.8801,m,1,0.9196,,[],[],[],[],[],[],[],490.8802,492.88,492.88,494.2794,[],[],[],[],[],[],[],z,494.2795,494.2796,-0.080723626,-0.395705895,0,0,0,,0,99,99,159,1,4,word,VETERAN,cursive,veteran_c.png,1.3926,,,,
,,,,29493,001,2025-10-16_13h44.20.014,HW_LDT_1,2024.2.4,MacIntel,61.72839506,,,,,,,,,,,,,,,,,,,,,,494.2807,494.4796,494.4796,494.98,,,,,,,,,,,,,,1.4806,1,,,,,,,,,,,,,,m,,,,,,,,,,,,,,,101,0,494.9806,496.4631,m,1,1.4806,,[],[],[],[],[],[],[],496.4632,498.4624,498.4625,498.4627,[],[],[],[],[],[],[],,498.4627,498.4628,-0.080723626,-0.395705895,0,0,0,,0,100,100,138,1,4,word,REFUSAL,cursive,refusal_c.png,,,,,
,,,,29493,001,2025-10-16_13h44.20.014,HW_LDT_1,2024.2.4,MacIntel,61.72839506,,,,,,,,,,,,,,,,,,,,,,498.4638,498.6628,498.6628,499.1633,,,,,,,,,,,,,,0.7215,1,,,,,,,,,,,,,,z,,,,,,,,,,,,,,,102,0,499.1639,499.897,z,1,0.7215,,[],[],[],[],[],[],[],499.8971,501.8966,501.8966,501.8969,[],[],[],[],[],[],[],,501.8969,501.897,-0.080723626,-0.395705895,0,0,0,,0,101,101,5,1,4,RL,bebine,print,bebine_p.png,,,,,
,,,,29493,001,2025-10-16_13h44.20.014,HW_LDT_1,2024.2.4,MacIntel,61.72839506,,,,,,,,,,,,,,,,,,,,,,501.8984,502.0967,502.0967,502.5968,,,,,,,,,,,,,,1.4036,1,,,,,,,,,,,,,,z,,,,,,,,,,,,,,,103,0,502.5974,504.0135,z,1,1.4036,,[],[],[],[],[],[],[],504.0136,506.0133,506.0135,506.0135,[],[],[],[],[],[],[],,506.0136,506.0137,-0.080723626,-0.395705895,0,0,0,,0,102,102,10,1,4,RL,carminal,cursive,carminal_c.png,,,,,
,,,,29493,001,2025-10-16_13h44.20.014,HW_LDT_1,2024.2.4,MacIntel,61.72839506,,,,,,,,,,,,,,,,,,,,,,506.0153,506.2134,506.2134,506.7134,,,,,,,,,,,,,,2.2898,1,,,,,,,,,,,,,,z,,,,,,,,,,,,,,,104,1,506.7139,509.0132,z,1,2.2898,,[],[],[],[],[],[],[],509.0133,511.0131,511.0131,511.8968,[],[],[],[],[],[],[],z,511.8969,511.897,-0.080723626,-0.395705895,0,0,0,,0,103,103,33,1,4,RL,pamest,cursive,pamest_c.png,0.8709,,,,
,,,,29493,001,2025-10-16_13h44.20.014,HW_LDT_1,2024.2.4,MacIntel,61.72839506,,,,,,,,,,,,,,,,,,,,,,511.8984,512.0967,512.0968,512.5969,,,,,,,,,,,,,,1.5317,0,,,,,,,,,,,,,,z,,,,,,,,,,,,,,,105,0,512.5974,514.1297,m,0,1.5317,,[],[],[],[],[],[],[],514.1297,516.1303,516.1304,516.1305,[],[],[],[],[],[],[],,516.1306,516.1307,-0.080723626,-0.395705895,0,0,0,,0,104,104,71,1,4,TL,racidal,print,racidal_p.png,,,,,
,,,,29493,001,2025-10-16_13h44.20.014,HW_LDT_1,2024.2.4,MacIntel,61.72839506,,,,,,,,,,,,,,,,,,,,,,516.1321,516.3303,516.3303,516.8302,,,,,,,,,,,,,,1.0218,1,,,,,,,,,,,,,,z,,,,,,,,,,,,,,,106,0,516.8308,517.8627,z,1,1.0218,,[],[],[],[],[],[],[],517.8628,519.8637,519.8638,519.864,[],[],[],[],[],[],[],,519.864,519.8642,-0.080723626,-0.395705895,0,0,0,,0,105,105,79,1,4,TL,tritube,print,tritube_p.png,,,,,
,,,,29493,001,2025-10-16_13h44.20.014,HW_LDT_1,2024.2.4,MacIntel,61.72839506,,,,,,,,,,,,,,,,,,,,,,519.8656,520.0637,520.0638,520.5636,,,,,,,,,,,,,,2.8366,1,,,,,,,,,,,,,,z,,,,,,,,,,,,,,,107,0,520.5641,523.4138,z,1,2.8366,,[],[],[],[],[],[],[],523.4139,525.4138,525.4139,525.4142,[],[],[],[],[],[],[],,525.4142,525.4143,-0.080723626,-0.395705895,0,0,0,,0,106,106,49,1,4,RL,vesofity,cursive,vesofity_c.png,,,,,
,,,,29493,001,2025-10-16_13h44.20.014,HW_LDT_1,2024.2.4,MacIntel,61.72839506,,,,,,,,,,,,,,,,,,,,,,525.4157,525.6135,525.6135,526.1137,,,,,,,,,,,,,,0.7145,1,,,,,,,,,,,,,,m,,,,,,,,,,,,,,,108,0,526.1145,526.8303,m,1,0.7145,,[],[],[],[],[],[],[],526.8304,528.8303,528.8303,528.8305,[],[],[],[],[],[],[],,528.8305,528.8307,-0.080723626,-0.395705895,0,0,0,,0,107,107,147,1,4,word,ROMANTIC,print,romantic_p.png,,,,,
,,,,29493,001,2025-10-16_13h44.20.014,HW_LDT_1,2024.2.4,MacIntel,61.72839506,,,,,,,,,,,,,,,,,,,,,,528.8318,529.0304,529.0305,529.5305,,,,,,,,,,,,,,0.8863,1,,,,,,,,,,,,,,z,,,,,,,,,,,,,,,109,0,529.5311,530.4305,z,1,0.8863,,[],[],[],[],[],[],[],530.4305,532.4304,532.4305,532.4307,[],[],[],[],[],[],[],,532.4307,532.4308,-0.080723626,-0.395705895,0,0,0,,0,108,108,61,1,4,TL,lotace,cursive,lotace_c.png,,,,,
,,,,29493,001,2025-10-16_13h44.20.014,HW_LDT_1,2024.2.4,MacIntel,61.72839506,,,,,,,,,,,,,,,,,,,,,,532.4322,532.6303,532.6304,533.1305,,,,,,,,,,,,,,0.9026,1,,,,,,,,,,,,,,z,,,,,,,,,,,,,,,110,0,533.1311,534.0471,z,1,0.9026,,[],[],[],[],[],[],[],534.0473,536.0473,536.0474,536.0477,[],[],[],[],[],[],[],,536.0477,536.0478,-0.080723626,-0.395705895,0,0,0,,0,109,109,42,1,4,RL,revune,print,revune_p.png,,,,,
,,,,29493,001,2025-10-16_13h44.20.014,HW_LDT_1,2024.2.4,MacIntel,61.72839506,,,,,,,,,,,,,,,,,,,,,,536.0493,536.2472,536.2472,536.7472,,,,,,,,,,,,,,0.5189,1,,,,,,,,,,,,,,m,,,,,,,,,,,,,,,111,0,536.7479,537.2806,m,1,0.5189,,[],[],[],[],[],[],[],537.2807,539.2804,539.2805,539.2807,[],[],[],[],[],[],[],,539.2807,539.2808,-0.080723626,-0.395705895,0,0,0,,0,110,110,135,1,4,word,QUALITY,print,quality_p.png,,,,,
,,,,29493,001,2025-10-16_13h44.20.014,HW_LDT_1,2024.2.4,MacIntel,61.72839506,,,,,,,,,,,,,,,,,,,,,,539.282,539.4806,539.4807,539.9806,,,,,,,,,,,,,,0.9029,0,,,,,,,,,,,,,,m,,,,,,,,,,,,,,,112,1,539.9811,540.8973,z,0,0.9029,,[],[],[],[],[],[],[],540.8975,542.8971,542.8972,543.764,[],[],[],[],[],[],[],z,543.764,543.7643,-0.080723626,-0.395705895,0,0,0,,0,111,111,114,1,4,word,LOCATE,cursive,locate_c.png,0.8523,,,,
,,,,29493,001,2025-10-16_13h44.20.014,HW_LDT_1,2024.2.4,MacIntel,61.72839506,,,,,,,,,,,,,,,,,,,,,,543.7657,543.9638,543.9639,544.4639,,,,,,,,,,,,,,0.9361,1,,,,,,,,,,,,,,z,,,,,,,,,,,,,,,113,0,544.4644,545.414,z,1,0.9361,,[],[],[],[],[],[],[],545.4141,547.4131,547.4131,547.4133,[],[],[],[],[],[],[],,547.4133,547.4134,-0.080723626,-0.395705895,0,0,0,,0,112,112,76,1,4,TL,setanor,print,setanor_p.png,,,,,
,,,,29493,001,2025-10-16_13h44.20.014,HW_LDT_1,2024.2.4,MacIntel,61.72839506,,,,,,,,,,,,,,,,,,,,,,547.4145,547.6139,547.614,548.1136,,,,,,,,,,,,,,1.3988,0,,,,,,,,,,,,,,m,,,,,,,,,,,,,,,114,0,548.1142,549.5139,z,0,1.3988,,[],[],[],[],[],[],[],549.5141,551.5129,551.513,551.5132,[],[],[],[],[],[],[],,551.5132,551.5133,-0.080723626,-0.395705895,0,0,0,,0,113,113,101,1,4,word,DELICATE,cursive,delicate_c.png,,,,,
,,,,29493,001,2025-10-16_13h44.20.014,HW_LDT_1,2024.2.4,MacIntel,61.72839506,,,,,,,,,,,,,,,,,,,,,,551.5147,551.714,551.7141,552.2141,,,,,,,,,,,,,,0.9874,1,,,,,,,,,,,,,,m,,,,,,,,,,,,,,,115,0,552.2147,553.2143,m,1,0.9874,,[],[],[],[],[],[],[],553.2144,555.2141,555.2141,555.2143,[],[],[],[],[],[],[],,555.2143,555.2143,-0.080723626,-0.395705895,0,0,0,,0,114,114,141,1,4,word,RELIGION,print,religion_p.png,,,,,
,,,,29493,001,2025-10-16_13h44.20.014,HW_LDT_1,2024.2.4,MacIntel,61.72839506,,,,,,,,,,,,,,,,,,,,,,555.2153,555.4142,555.4142,555.9141,,,,,,,,,,,,,,1.9849,1,,,,,,,,,,,,,,m,,,,,,,,,,,,,,,116,0,555.9148,557.9141,m,1,1.9849,,[],[],[],[],[],[],[],557.9142,559.9141,559.9141,559.9142,[],[],[],[],[],[],[],,559.9143,559.9143,-0.080723626,-0.395705895,0,0,0,,0,115,115,124,1,4,word,NUMERICAL,cursive,numerical_c.png,,,,,
,,,,29493,001,2025-10-16_13h44.20.014,HW_LDT_1,2024.2.4,MacIntel,61.72839506,,,,,,,,,,,,,,,,,,,,,,559.9151,560.1141,560.1141,560.614,,,,,,,,,,,,,,1.0032,1,,,,,,,,,,,,,,z,,,,,,,,,,,,,,,117,0,560.6146,561.6298,z,1,1.0032,,[],[],[],[],[],[],[],561.6299,563.6297,563.6298,563.6299,[],[],[],[],[],[],[],,563.6299,563.63,-0.080723626,-0.395705895,0,0,0,,0,116,116,18,1,4,RL,disluge,print,disluge_p.png,,,,,
,,,,29493,001,2025-10-16_13h44.20.014,HW_LDT_1,2024.2.4,MacIntel,61.72839506,,,,,,,,,,,,,,,,,,,,,,563.6308,563.8298,563.8298,564.3308,,,,,,,,,,,,,,1.6907,1,,,,,,,,,,,,,,z,,,,,,,,,,,,,,,118,1,564.3312,566.031,z,1,1.6907,,[],[],[],[],[],[],[],566.0311,568.0298,568.0299,568.9133,[],[],[],[],[],[],[],z,568.9134,568.9136,-0.080723626,-0.395705895,0,0,0,,0,117,117,55,1,4,TL,corevage,cursive,corevage_c.png,0.8698,,,,
,,,,29493,001,2025-10-16_13h44.20.014,HW_LDT_1,2024.2.4,MacIntel,61.72839506,,,,,,,,,,,,,,,,,,,,,,568.9146,569.1142,569.1142,569.6144,,,,,,,,,,,,,,0.836,1,,,,,,,,,,,,,,z,,,,,,,,,,,,,,,119,1,569.615,570.4643,z,1,0.836,,[],[],[],[],[],[],[],570.4645,572.4644,572.4644,573.2644,[],[],[],[],[],[],[],m,573.2644,573.2645,-0.080723626,-0.395705895,0,0,0,,0,118,118,73,1,4,TL,regilion,print,regilion_p.png,0.7872,,,,
,,,,29493,001,2025-10-16_13h44.20.014,HW_LDT_1,2024.2.4,MacIntel,61.72839506,,,,,,,,,,,,,,,,,,,,,,573.2659,573.4633,573.4633,573.9644,,,,,,,,,,,,,,1.988,1,,,,,,,,,,,,,,z,,,,,,,,,,,,,,,120,0,573.965,575.9635,z,1,1.988,,[],[],[],[],[],[],[],575.9635,577.9644,577.9645,577.9646,[],[],[],[],[],[],[],,577.9647,577.9648,-0.080723626,-0.395705895,0,0,0,,0,119,119,8,1,4,RL,casagity,cursive,casagity_c.png,,,,,
,,,,29493,001,2025-10-16_13h44.20.014,HW_LDT_1,2024.2.4,MacIntel,61.72839506,,,,,,,,,,,,,,,,,,,,,,577.9664,578.1644,578.1644,578.6642,,,,,,,,,,,,,,1.0976,1,,,,,,,,,,,,,,z,,,,,,,,,,,,,,,121,0,578.6648,579.7642,z,1,1.0976,,[],[],[],[],[],[],[],579.7642,581.7643,581.7643,581.7644,[],[],[],[],[],[],[],,581.7644,581.7646,-0.080723626,-0.395705895,0,0,0,,0,120,120,25,1,4,RL,macise,print,macise_p.png,,,,,
,,,,29493,001,2025-10-16_13h44.20.014,HW_LDT_1,2024.2.4,MacIntel,61.72839506,,,,,,,,,,,,,,,,,,,,,,581.7655,581.9644,581.9644,582.4644,,,,,,,,,,,,,,2.2962,1,,,,,,,,,,,,,,m,,,,,,,,,,,,,,,122,0,582.465,584.7645,m,1,2.2962,,[],[],[],[],[],[],[],584.7646,586.7645,586.7645,586.7647,[],[],[],[],[],[],[],,586.7648,586.7649,-0.080723626,-0.395705895,0,0,0,,0,121,121,106,1,4,word,ELABORATE,cursive,elaborate_c.png,,,,,
,,,,29493,001,2025-10-16_13h44.20.014,HW_LDT_1,2024.2.4,MacIntel,61.72839506,,,,,,,,,,,,,,,,,,,,,,586.7662,586.9638,586.9638,587.4645,,,,,,,,,,,,,,0.6803,1,,,,,,,,,,,,,,m,,,,,,,,,,,,,,,123,0,587.465,588.1476,m,1,0.6803,,[],[],[],[],[],[],[],588.1477,590.1479,590.148,590.1482,[],[],[],[],[],[],[],,590.1482,590.1483,-0.080723626,-0.395705895,0,0,0,,0,122,122,95,1,4,word,COMEDY,print,comedy_p.png,,,,,
,,,,29493,001,2025-10-16_13h44.20.014,HW_LDT_1,2024.2.4,MacIntel,61.72839506,,,,,,,,,,,,,,,,,,,,,,590.1499,590.3468,590.3468,590.848,,,,,,,,,,,,,,1.5154,1,,,,,,,,,,,,,,m,,,,,,,,,,,,,,,124,0,590.8486,592.365,m,1,1.5154,,[],[],[],[],[],[],[],592.365,594.3645,594.3646,594.3648,[],[],[],[],[],[],[],,594.3648,594.3649,-0.080723626,-0.395705895,0,0,0,,0,123,123,137,1,4,word,RAPIDLY,cursive,rapidly_c.png,,,,,
,,,,29493,001,2025-10-16_13h44.20.014,HW_LDT_1,2024.2.4,MacIntel,61.72839506,,,,,,,,,,,,,,,,,,,,,,594.3663,594.5636,594.5637,595.0648,,,,,,,,,,,,,,1.1853,1,,,,,,,,,,,,,,z,,,,,,,,,,,,,,,125,0,595.0653,596.2648,z,1,1.1853,,[],[],[],[],[],[],[],596.2649,598.2647,598.2648,598.265,[],[],[],[],[],[],[],,598.2651,598.2652,-0.080723626,-0.395705895,0,0,0,,0,124,124,52,1,4,TL,cagetory,cursive,cagetory_c.png,,,,,
,,,,29493,001,2025-10-16_13h44.20.014,HW_LDT_1,2024.2.4,MacIntel,61.72839506,,,,,,,,,,,,,,,,,,,,,,598.2666,598.4648,598.4648,598.9646,,,,,,,,,,,,,,1.6988,1,,,,,,,,,,,,,,z,,,,,,,,,,,,,,,126,0,598.9651,600.6644,z,1,1.6988,,[],[],[],[],[],[],[],600.6644,602.6648,602.6648,602.665,[],[],[],[],[],[],[],,602.665,602.6651,-0.080723626,-0.395705895,0,0,0,,0,125,125,59,1,4,TL,fornute,cursive,fornute_c.png,,,,,
,,,,29493,001,2025-10-16_13h44.20.014,HW_LDT_1,2024.2.4,MacIntel,61.72839506,,,,,,,,,,,,,,,,,,,,,,602.6666,602.8648,602.8649,603.3648,,,,,,,,,,,,,,0.5529,1,,,,,,,,,,,,,,m,,,,,,,,,,,,,,,127,0,603.3655,603.9315,m,1,0.5529,,[],[],[],[],[],[],[],603.9316,605.9313,605.9313,605.9314,[],[],[],[],[],[],[],,605.9314,605.9316,-0.080723626,-0.395705895,0,0,0,,0,126,126,148,1,4,word,SALINE,print,saline_p.png,,,,,
,,,,29493,001,2025-10-16_13h44.20.014,HW_LDT_1,2024.2.4,MacIntel,61.72839506,,,,,,,,,,,,,,,,,,,,,,605.9325,606.1314,606.1314,606.6315,,,,,,,,,,,,,,1.1532,0,,,,,,,,,,,,,,m,,,,,,,,,,,,,,,128,1,606.632,607.7974,z,0,1.1532,,[],[],[],[],[],[],[],607.7975,609.7982,609.7982,610.665,[],[],[],[],[],[],[],z,610.6651,610.6651,-0.080723626,-0.395705895,0,0,0,,0,127,127,99,1,4,word,DEBATE,cursive,debate_c.png,0.853,,,,
,,,,29493,001,2025-10-16_13h44.20.014,HW_LDT_1,2024.2.4,MacIntel,61.72839506,,,,,,,,,,,,,,,,,,,,,,610.6665,610.8649,610.8649,611.3647,,,,,,,,,,,,,,1.1304,1,,,,,,,,,,,,,,z,,,,,,,,,,,,,,,129,0,611.3653,612.4972,z,1,1.1304,,[],[],[],[],[],[],[],612.4972,614.4982,614.4983,614.4984,[],[],[],[],[],[],[],,614.4985,614.4986,-0.080723626,-0.395705895,0,0,0,,0,128,128,60,1,4,TL,hetirage,print,hetirage_p.png,,,,,
,,,,29493,001,2025-10-16_13h44.20.014,HW_LDT_1,2024.2.4,MacIntel,61.72839506,,,,,,,,,,,,,,,,,,,,,,614.5,614.6983,614.6983,615.1972,,,,,,,,,,,,,,0.8375,1,,,,,,,,,,,,,,m,,,,,,,,,,,,,,,130,0,615.1977,616.0483,m,1,0.8375,,[],[],[],[],[],[],[],616.0484,618.0473,618.0474,618.0475,[],[],[],[],[],[],[],,618.0475,618.0476,-0.080723626,-0.395705895,0,0,0,,0,129,129,142,1,4,word,REMOTE,cursive,remote_c.png,,,,,
,,,,29493,001,2025-10-16_13h44.20.014,HW_LDT_1,2024.2.4,MacIntel,61.72839506,,,,,,,,,,,,,,,,,,,,,,618.0489,618.2482,618.2483,618.7484,,,,,,,,,,,,,,0.7866,1,,,,,,,,,,,,,,m,,,,,,,,,,,,,,,131,0,618.7488,619.5479,m,1,0.7866,,[],[],[],[],[],[],[],619.548,621.5483,621.5484,621.5486,[],[],[],[],[],[],[],,621.5487,621.5488,-0.080723626,-0.395705895,0,0,0,,0,130,130,152,1,4,word,SPECIMEN,cursive,specimen_c.png,,,,,
,,,,29493,001,2025-10-16_13h44.20.014,HW_LDT_1,2024.2.4,MacIntel,61.72839506,,,,,,,,,,,,,,,,,,,,,,621.5502,621.7482,621.7483,622.2478,,,,,,,,,,,,,,0.9382,1,,,,,,,,,,,,,,m,,,,,,,,,,,,,,,132,0,622.2483,623.1976,m,1,0.9382,,[],[],[],[],[],[],[],623.1976,625.1983,625.1984,625.1986,[],[],[],[],[],[],[],,625.1986,625.1987,-0.080723626,-0.395705895,0,0,0,,0,131,131,156,1,4,word,TRIBUTE,print,tribute_p.png,,,,,
,,,,29493,001,2025-10-16_13h44.20.014,HW_LDT_1,2024.2.4,MacIntel,61.72839506,,,,,,,,,,,,,,,,,,,,,,625.1999,625.3982,625.3982,625.8984,,,,,,,,,,,,,,0.7822,1,,,,,,,,,,,,,,z,,,,,,,,,,,,,,,133,0,625.8989,626.6817,z,1,0.7822,,[],[],[],[],[],[],[],626.6818,628.6816,628.6817,628.6818,[],[],[],[],[],[],[],,628.6818,628.6819,-0.080723626,-0.395705895,0,0,0,,0,132,132,26,1,4,RL,mesibine,cursive,mesibine_c.png,,,,,
,,,,29493,001,2025-10-16_13h44.20.014,HW_LDT_1,2024.2.4,MacIntel,61.72839506,,,,,,,,,,,,,,,,,,,,,,628.6831,628.8817,628.8817,629.3818,,,,,,,,,,,,,,2.8349,1,,,,,,,,,,,,,,z,,,,,,,,,,,,,,,134,0,629.3824,632.2318,z,1,2.8349,,[],[],[],[],[],[],[],632.2319,634.2308,634.2308,634.2309,[],[],[],[],[],[],[],,634.231,634.231,-0.080723626,-0.395705895,0,0,0,,0,133,133,17,1,4,RL,denficy,cursive,denficy_c.png,,,,,
,,,,29493,001,2025-10-16_13h44.20.014,HW_LDT_1,2024.2.4,MacIntel,61.72839506,,,,,,,,,,,,,,,,,,,,,,634.2319,634.4314,634.4315,634.9318,,,,,,,,,,,,,,0.7151,1,,,,,,,,,,,,,,m,,,,,,,,,,,,,,,135,0,634.9325,635.6485,m,1,0.7151,,[],[],[],[],[],[],[],635.6485,637.6487,637.6488,637.6491,[],[],[],[],[],[],[],,637.6491,637.6493,-0.080723626,-0.395705895,0,0,0,,0,134,134,120,1,4,word,MILITARY,print,military_p.png,,,,,
,,,,29493,001,2025-10-16_13h44.20.014,HW_LDT_1,2024.2.4,MacIntel,61.72839506,,,,,,,,,,,,,,,,,,,,,,637.6506,637.8477,637.8478,638.3486,,,,,,,,,,,,,,1.0881,1,,,,,,,,,,,,,,z,,,,,,,,,,,,,,,136,0,638.3493,639.4487,z,1,1.0881,,[],[],[],[],[],[],[],639.4488,641.4487,641.4488,641.449,[],[],[],[],[],[],[],,641.4491,641.4492,-0.080723626,-0.395705895,0,0,0,,0,135,135,12,1,4,RL,conbicer,cursive,conbicer_c.png,,,,,
,,,,29493,001,2025-10-16_13h44.20.014,HW_LDT_1,2024.2.4,MacIntel,61.72839506,,,,,,,,,,,,,,,,,,,,,,641.4507,641.6484,641.6485,642.1486,,,,,,,,,,,,,,0.821,1,,,,,,,,,,,,,,z,,,,,,,,,,,,,,,137,0,642.149,642.982,z,1,0.821,,[],[],[],[],[],[],[],642.9821,644.982,644.9821,644.9822,[],[],[],[],[],[],[],,644.9823,644.9824,-0.080723626,-0.395705895,0,0,0,,0,136,136,11,1,4,RL,clisimal,print,clisimal_p.png,,,,,
,,,,29493,001,2025-10-16_13h44.20.014,HW_LDT_1,2024.2.4,MacIntel,61.72839506,,,,,,,,,,,,,,,,,,,,,,644.9839,645.182,645.1822,645.6821,,,,,,,,,,,,,,2.6191,1,,,,,,,,,,,,,,z,,,,,,,,,,,,,,,138,0,645.6827,648.3154,z,1,2.6191,,[],[],[],[],[],[],[],648.3155,650.3153,650.3154,650.3155,[],[],[],[],[],[],[],,650.3155,650.3156,-0.080723626,-0.395705895,0,0,0,,0,137,137,56,1,4,TL,donimant,cursive,donimant_c.png,,,,,
,,,,29493,001,2025-10-16_13h44.20.014,HW_LDT_1,2024.2.4,MacIntel,61.72839506,,,,,,,,,,,,,,,,,,,,,,650.3169,650.5155,650.5156,651.0152,,,,,,,,,,,,,,0.6903,1,,,,,,,,,,,,,,z,,,,,,,,,,,,,,,139,0,651.016,651.7151,z,1,0.6903,,[],[],[],[],[],[],[],651.7152,653.7155,653.7155,653.7156,[],[],[],[],[],[],[],,653.7157,653.7158,-0.080723626,-0.395705895,0,0,0,,0,138,138,46,1,4,RL,skofen,cursive,skofen_c.png,,,,,
,,,,29493,001,2025-10-16_13h44.20.014,HW_LDT_1,2024.2.4,MacIntel,61.72839506,,,,,,,,,,,,,,,,,,,,,,653.7172,653.9154,653.9154,654.4143,,,,,,,,,,,,,,0.8047,1,,,,,,,,,,,,,,z,,,,,,,,,,,,,,,140,1,654.4148,655.2321,z,1,0.8047,,[],[],[],[],[],[],[],655.2321,657.2321,657.2321,658.3819,[],[],[],[],[],[],[],m,658.3819,658.382,-0.080723626,-0.395705895,0,0,0,,0,139,139,74,1,4,TL,rerite,print,rerite_p.png,1.1409,,,,
,,,,29493,001,2025-10-16_13h44.20.014,HW_LDT_1,2024.2.4,MacIntel,61.72839506,,,,,,,,,,,,,,,,,,,,,,658.3826,658.5823,658.5824,659.0822,,,,,,,,,,,,,,0.7689,1,,,,,,,,,,,,,,z,,,,,,,,,,,,,,,141,0,659.0829,659.8646,z,1,0.7689,,[],[],[],[],[],[],[],659.8646,661.8651,661.8651,661.8654,[],[],[],[],[],[],[],,661.8654,661.8655,-0.080723626,-0.395705895,0,0,0,,0,140,140,47,1,4,RL,stopave,print,stopave_p.png,,,,,
,,,,29493,001,2025-10-16_13h44.20.014,HW_LDT_1,2024.2.4,MacIntel,61.72839506,,,,,,,,,,,,,,,,,,,,,,661.8665,662.065,662.065,662.5656,,,,,,,,,,,,,,0.703,1,,,,,,,,,,,,,,z,,,,,,,,,,,,,,,142,0,662.5663,663.2824,z,1,0.703,,[],[],[],[],[],[],[],663.2825,665.2822,665.2823,665.2825,[],[],[],[],[],[],[],,665.2826,665.2827,-0.080723626,-0.395705895,0,0,0,,0,141,141,31,1,4,RL,orimipal,print,orimipal_p.png,,,,,
,,,,29493,001,2025-10-16_13h44.20.014,HW_LDT_1,2024.2.4,MacIntel,61.72839506,,,,,,,,,,,,,,,,,,,,,,665.2842,665.4823,665.4823,665.9813,,,,,,,,,,,,,,0.704,1,,,,,,,,,,,,,,m,,,,,,,,,,,,,,,143,0,665.9818,666.6991,m,1,0.704,,[],[],[],[],[],[],[],666.6992,668.699,668.6991,668.6993,[],[],[],[],[],[],[],,668.6993,668.6994,-0.080723626,-0.395705895,0,0,0,,0,142,142,144,1,4,word,RESIDENT,cursive,resident_c.png,,,,,
,,,,29493,001,2025-10-16_13h44.20.014,HW_LDT_1,2024.2.4,MacIntel,61.72839506,,,,,,,,,,,,,,,,,,,,,,668.701,668.8989,668.8989,669.399,,,,,,,,,,,,,,0.802,1,,,,,,,,,,,,,,m,,,,,,,,,,,,,,,144,0,669.3996,670.2157,m,1,0.802,,[],[],[],[],[],[],[],670.2158,672.2157,672.2157,672.2159,[],[],[],[],[],[],[],,672.216,672.2161,-0.080723626,-0.395705895,0,0,0,,0,143,143,85,1,4,word,BENEFIT,cursive,benefit_c.png,,,,,
,,,,29493,001,2025-10-16_13h44.20.014,HW_LDT_1,2024.2.4,MacIntel,61.72839506,,,,,,,,,,,,,,,,,,,,,,672.2175,672.4156,672.4157,672.9158,,,,,,,,,,,,,,0.6213,1,,,,,,,,,,,,,,m,,,,,,,,,,,,,,,145,1,672.9164,673.5488,m,1,0.6213,,[],[],[],[],[],[],[],673.5488,675.5487,675.5487,676.4325,[],[],[],[],[],[],[],m,676.4325,676.4327,-0.080723626,-0.395705895,0,0,0,,0,144,144,119,1,4,word,MEMORY,print,memory_p.png,0.8833,,,,
,,,,29493,001,2025-10-16_13h44.20.014,HW_LDT_1,2024.2.4,MacIntel,61.72839506,,,,,,,,,,,,,,,,,,,,,,676.4341,676.6324,676.6325,677.1316,,,,,,,,,,,,,,0.7562,1,,,,,,,,,,,,,,z,,,,,,,,,,,,,,,146,0,677.1323,677.8991,z,1,0.7562,,[],[],[],[],[],[],[],677.8992,679.899,679.8991,679.8992,[],[],[],[],[],[],[],,679.8993,679.8993,-0.080723626,-0.395705895,0,0,0,,0,145,145,65,1,4,TL,orepator,print,orepator_p.png,,,,,
,,,,29493,001,2025-10-16_13h44.20.014,HW_LDT_1,2024.2.4,MacIntel,61.72839506,,,,,,,,,,,,,,,,,,,,,,679.9003,680.0991,680.0992,680.5991,,,,,,,,,,,,,,0.6245,1,,,,,,,,,,,,,,m,,,,,,,,,,,,,,,147,0,680.5997,681.2322,m,1,0.6245,,[],[],[],[],[],[],[],681.2322,683.2317,683.2317,683.2317,[],[],[],[],[],[],[],,683.2318,683.2319,-0.080723626,-0.395705895,0,0,0,,0,146,146,123,1,4,word,MODERATE,print,moderate_p.png,,,,,
,,,,29493,001,2025-10-16_13h44.20.014,HW_LDT_1,2024.2.4,MacIntel,61.72839506,,,,,,,,,,,,,,,,,,,,,,683.2329,683.4325,683.4326,683.9325,,,,,,,,,,,,,,0.553,1,,,,,,,,,,,,,,m,,,,,,,,,,,,,,,148,0,683.933,684.4992,m,1,0.553,,[],[],[],[],[],[],[],684.4993,686.4992,686.4993,686.4994,[],[],[],[],[],[],[],,686.4994,686.4995,-0.080723626,-0.395705895,0,0,0,,0,147,147,132,1,4,word,PROPOSAL,print,proposal_p.png,,,,,
,,,,29493,001,2025-10-16_13h44.20.014,HW_LDT_1,2024.2.4,MacIntel,61.72839506,,,,,,,,,,,,,,,,,,,,,,686.5009,686.6994,686.6994,687.1991,,,,,,,,,,,,,,0.9387,0,,,,,,,,,,,,,,m,,,,,,,,,,,,,,,149,0,687.1995,688.1493,z,0,0.9387,,[],[],[],[],[],[],[],688.1494,690.1493,690.1493,690.1495,[],[],[],[],[],[],[],,690.1495,690.1496,-0.080723626,-0.395705895,0,0,0,,0,148,148,92,1,4,word,CATEGORY,cursive,category_c.png,,,,,
,,,,29493,001,2025-10-16_13h44.20.014,HW_LDT_1,2024.2.4,MacIntel,61.72839506,,,,,,,,,,,,,,,,,,,,,,690.1511,690.3492,690.3493,690.8492,,,,,,,,,,,,,,0.5528,0,,,,,,,,,,,,,,z,,,,,,,,,,,,,,,150,0,690.8498,691.4161,m,0,0.5528,,[],[],[],[],[],[],[],691.4162,693.4155,693.4155,693.4156,[],[],[],[],[],[],[],,693.4157,693.4159,-0.080723626,-0.395705895,0,0,0,,0,149,149,77,1,4,TL,spemicen,cursive,spemicen_c.png,,,,,
,,,,29493,001,2025-10-16_13h44.20.014,HW_LDT_1,2024.2.4,MacIntel,61.72839506,,,,,,,,,,,,,,,,,,,,,,693.4174,693.6159,693.6159,694.116,,,,,,,,,,,,,,0.7027,1,,,,,,,,,,,,,,z,,,,,,,,,,,,,,,151,0,694.1166,694.8324,z,1,0.7027,,[],[],[],[],[],[],[],694.8325,696.8326,696.8327,696.8328,[],[],[],[],[],[],[],,696.8329,696.8329,-0.080723626,-0.395705895,0,0,0,,0,150,150,48,1,4,RL,vabifity,print,vabifity_p.png,,,,,
,,,,29493,001,2025-10-16_13h44.20.014,HW_LDT_1,2024.2.4,MacIntel,61.72839506,,,,,,,,,,,,,,,,,,,,,,696.8343,697.0327,697.0327,697.5328,,,,,,,,,,,,,,1.6966,1,,,,,,,,,,,,,,z,,,,,,,,,,,,,,,152,0,697.5334,699.2325,z,1,1.6966,,[],[],[],[],[],[],[],699.2325,701.2326,701.2326,701.2328,[],[],[],[],[],[],[],,701.2328,701.2329,-0.080723626,-0.395705895,0,0,0,,0,151,151,15,1,4,RL,debave,cursive,debave_c.png,,,,,
,,,,29493,001,2025-10-16_13h44.20.014,HW_LDT_1,2024.2.4,MacIntel,61.72839506,,,,,,,,,,,,,,,,,,,,,,701.234,701.4326,701.4327,701.9328,,,,,,,,,,,,,,0.838,1,,,,,,,,,,,,,,z,,,,,,,,,,,,,,,153,0,701.9335,702.783,z,1,0.838,,[],[],[],[],[],[],[],702.7831,704.7827,704.7827,704.7829,[],[],[],[],[],[],[],,704.783,704.783,-0.080723626,-0.395705895,0,0,0,,0,152,152,29,1,4,RL,motide,print,motide_p.png,,,,,
,,,,29493,001,2025-10-16_13h44.20.014,HW_LDT_1,2024.2.4,MacIntel,61.72839506,,,,,,,,,,,,,,,,,,,,,,704.7843,704.9828,704.9829,705.482,,,,,,,,,,,,,,0.5392,1,,,,,,,,,,,,,,m,,,,,,,,,,,,,,,154,0,705.4825,706.0328,m,1,0.5392,,[],[],[],[],[],[],[],706.033,708.0328,708.0328,708.033,[],[],[],[],[],[],[],,708.033,708.0331,-0.080723626,-0.395705895,0,0,0,,0,153,153,105,1,4,word,EDITOR,print,editor_p.png,,,,,
,,,,29493,001,2025-10-16_13h44.20.014,HW_LDT_1,2024.2.4,MacIntel,61.72839506,,,,,,,,,,,,,,,,,,,,,,708.0343,708.2327,708.2327,708.7329,,,,,,,,,,,,,,0.7528,1,,,,,,,,,,,,,,z,,,,,,,,,,,,,,,155,0,708.7336,709.4996,z,1,0.7528,,[],[],[],[],[],[],[],709.4997,711.4994,711.4995,711.4996,[],[],[],[],[],[],[],,711.4996,711.4997,-0.080723626,-0.395705895,0,0,0,,0,154,154,43,1,4,RL,rovastic,print,rovastic_p.png,,,,,
,,,,29493,001,2025-10-16_13h44.20.014,HW_LDT_1,2024.2.4,MacIntel,61.72839506,,,,,,,,,,,,,,,,,,,,,,711.5005,711.6994,711.6995,712.1997,,,,,,,,,,,,,,0.9358,1,,,,,,,,,,,,,,z,,,,,,,,,,,,,,,156,0,712.2004,713.1497,z,1,0.9358,,[],[],[],[],[],[],[],713.1498,715.1489,715.1489,715.149,[],[],[],[],[],[],[],,715.1491,715.1492,-0.080723626,-0.395705895,0,0,0,,0,155,155,39,1,4,RL,relone,cursive,relone_c.png,,,,,
,,,,29493,001,2025-10-16_13h44.20.014,HW_LDT_1,2024.2.4,MacIntel,61.72839506,,,,,,,,,,,,,,,,,,,,,,715.1506,715.3496,715.3496,715.8496,,,,,,,,,,,,,,0.9859,1,,,,,,,,,,,,,,z,,,,,,,,,,,,,,,157,0,715.8503,716.8497,z,1,0.9859,,[],[],[],[],[],[],[],716.8498,718.8497,718.8498,718.85,[],[],[],[],[],[],[],,718.8501,718.8502,-0.080723626,-0.395705895,0,0,0,,0,156,156,21,1,4,RL,insibate,print,insibate_p.png,,,,,
,,,,29493,001,2025-10-16_13h44.20.014,HW_LDT_1,2024.2.4,MacIntel,61.72839506,,,,,,,,,,,,,,,,,,,,,,718.8515,719.0498,719.0499,719.5497,,,,,,,,,,,,,,0.5523,1,,,,,,,,,,,,,,m,,,,,,,,,,,,,,,158,0,719.5503,720.1164,m,1,0.5523,,[],[],[],[],[],[],[],720.1164,722.1163,722.1164,722.1166,[],[],[],[],[],[],[],,722.1166,722.1167,-0.080723626,-0.395705895,0,0,0,,0,157,157,126,1,4,word,OPTIMAL,print,optimal_p.png,,,,,
,,,,29493,001,2025-10-16_13h44.20.014,HW_LDT_1,2024.2.4,MacIntel,61.72839506,,,,,,,,,,,,,,,,,,,,,,722.1183,722.3163,722.3164,722.8162,,,,,,,,,,,,,,0.4979,1,,,,,,,,,,,,,,m,,,,,,,,,,,,,,,159,0,722.8168,723.316,m,1,0.4979,,[],[],[],[],[],[],[],723.3161,725.3164,725.3164,725.3166,[],[],[],[],[],[],[],,725.3167,725.3167,-0.080723626,-0.395705895,0,0,0,,0,158,158,83,1,4,word,ANIMAL,cursive,animal_c.png,,,,,
,,,,29493,001,2025-10-16_13h44.20.014,HW_LDT_1,2024.2.4,MacIntel,61.72839506,,,,,,,,,,,,,,,,,,,,,,725.3182,725.5164,725.5166,726.0165,,,,,,,,,,,,,,0.4856,0,,,,,,,,,,,,,,z,,,,,,,,,,,,,,,160,0,726.0171,726.5164,m,0,0.4856,,[],[],[],[],[],[],[],726.5165,728.5164,728.5164,728.5165,[],[],[],[],[],[],[],,728.5165,728.5166,-0.080723626,-0.395705895,0,0,0,,0,159,159,66,1,4,TL,opmital,print,opmital_p.png,,,,,
,,,,29493,001,2025-10-16_13h44.20.014,HW_LDT_1,2024.2.4,MacIntel,61.72839506,,,,,,,,,,,,,,,,,,,,,,,,,,,,,,,,,,,,,,,,,,,,,,,,,,,,,,,,,,,,,,,,,,,,,,,,,,,,,,,,,,,,,,,,,,,,,,,,,,,,,,,,,,,,,,,,,,,,,728.5173,733.5169
