counterbalance_lists.group,counterbalance_lists.remaining,get_list.started,get_list.stopped,participant,session,date,expName,psychopyVersion,OS,frameRate,Instructions.started,Instructions.stopped,key_resp.keys,instr_done_touch.x,instr_done_touch.y,instr_done_touch.leftButton,instr_done_touch.midButton,instr_done_touch.rightButton,instr_done_touch.clicked_name,start_instr.thisRepN,start_instr.thisTrialN,start_instr.thisN,start_instr.thisIndex,start_instr.ran,pageN,phase,instruct_text,has_image,instruct_image,key_resp.rt,key_resp.duration,showProgress.started,showProgress.stopped,fix.started,fix.stopped,prac.started,prac.stopped,response.keys,response.corr,response.rt,response.duration,touch_resp.x,touch_resp.y,touch_resp.leftButton,touch_resp.midButton,touch_resp.rightButton,touch_resp.time,touch_resp.clicked_name,rt,corr,feedback.started,feedback.stopped,trials.thisRepN,trials.thisTrialN,trials.thisN,trials.thisIndex,trials.ran,TrialID,StimulusType,Condition,PrimeDuration,Prime,Target,corrAns,Instructions_expt.started,Instructions_expt.stopped,key_resp_3.keys,key_resp_3.rt,key_resp_3.duration,instr_done_touch_3.x,instr_done_touch_3.y,instr_done_touch_3.leftButton,instr_done_touch_3.midButton,instr_done_touch_3.rightButton,instr_experiment.thisRepN,instr_experiment.thisTrialN,instr_experiment.thisN,instr_experiment.thisIndex,instr_experiment.ran,trialID,flag,maintask.started,maintask.stopped,key_resp_2.keys,key_resp_2.corr,key_resp_2.rt,key_resp_2.duration,targ_click.x,targ_click.y,targ_click.leftButton,targ_click.midButton,targ_click.rightButton,targ_click.time,targ_click.clicked_name,ITI.started,ITI.stopped,probe.started,probe.stopped,click_probe.x,click_probe.y,click_probe.leftButton,click_probe.midButton,click_probe.rightButton,click_probe.time,click_probe.clicked_name,key_resp_probe.keys,key_resp_probe.rt,key_resp_probe.duration,Break.started,Break.stopped,break_done_touch.x,break_done_touch.y,break_done_touch.leftButton,break_done_touch.midButton,break_done_touch.rightButton,break_done_keyboard.keys,list2_trials.thisRepN,list2_trials.thisTrialN,list2_trials.thisN,list2_trials.thisIndex,list2_trials.ran,list_id,item_type,string,font,stim_file,break_done_keyboard.rt,break_done_keyboard.duration,End.started,End.stopped
list2,,0.432,0.4323,29644,001,2025-10-17_13h46.12.711,HW_LDT_1,2024.2.4,MacIntel,61.34969325,,,,,,,,,,,,,,,,,,,,,,,,,,,,,,,,,,,,,,,,,,,,,,,,,,,,,,,,,,,,,,,,,,,,,,,,,,,,,,,,,,,,,,,,,,,,,,,,,,,,,,,,,,,,,,,,,,,,,,,,
,,,,29644,001,2025-10-17_13h46.12.711,HW_LDT_1,2024.2.4,MacIntel,61.34969325,0.4582,14.3609,,0.082335546,-0.4091993,1,0,0,instr_done_button,0,0,0,0,1,1,instructions,"INSTRUCTIONS
At the start of each trial, look at the plus sign  (+) in the center of the screen.  This tells you that a trial is about to begin and where to look. Second, the plus sign will disappear and a string of letters will appear. Your task is to determine if the string of letters is a word or not. If the item is a word press the M key (on keyboard)  or touch the word button (phone/tablet).  If the item is not a word,  press the  Z key (on keyboard)  or touch the nonword button (on phone/tablet). The items will be presented for a short time. 
Press the space bar or touch  continue.",0,,,,,,,,,,,,,,,,,,,,,,,,,,,,,,,,,,,,,,,,,,,,,,,,,,,,,,,,,,,,,,,,,,,,,,,,,,,,,,,,,,,,,,,,,,,,,,,,,,,,,,
,,,,29644,001,2025-10-17_13h46.12.711,HW_LDT_1,2024.2.4,MacIntel,61.34969325,14.3621,19.773,space,0.3520988,-0.261386135,0,0,0,,0,1,1,1,1,2,instructions,"If your device has a keyboard, press the 'Z' key for nonwords and the 'M' key for words.





Press the space bar or touch the button below to continue.",0,keyboard-example.gif,5.3892,,,,,,,,,,,,,,,,,,,,,,,,,,,,,,,,,,,,,,,,,,,,,,,,,,,,,,,,,,,,,,,,,,,,,,,,,,,,,,,,,,,,,,,,,,,,,,,,,,,,
,,,,29644,001,2025-10-17_13h46.12.711,HW_LDT_1,2024.2.4,MacIntel,61.34969325,19.7745,21.2556,space,0.3520988,-0.261386135,0,0,0,,0,2,2,2,1,3,instructions,"If you are using a touchscreen only device, use the buttons on the screen. Do not use the mouse.





Press the space bar or touch the button below to continue.",0,touchscreen-example.gif,1.4626,,,,,,,,,,,,,,,,,,,,,,,,,,,,,,,,,,,,,,,,,,,,,,,,,,,,,,,,,,,,,,,,,,,,,,,,,,,,,,,,,,,,,,,,,,,,,,,,,,,,
,,,,29644,001,2025-10-17_13h46.12.711,HW_LDT_1,2024.2.4,MacIntel,61.34969325,21.2575,23.8699,space,0.3520988,-0.261386135,0,0,0,,0,3,3,3,1,4,instructions,"It is very important that you respond as quickly and accurately as possible, as each letter string will only be on the screen for two seconds. If you do not respond within this time, the message 'Too slow!' will be displayed and the experiment will progress to the next letter string. The first 20 trials will be practice trials and you will receive feedback on your answers. 

Press the space bar or touch the button below to start the practice trials.",0,,2.5932,,,,,,,,,,,,,,,,,,,,,,,,,,,,,,,,,,,,,,,,,,,,,,,,,,,,,,,,,,,,,,,,,,,,,,,,,,,,,,,,,,,,,,,,,,,,,,,,,,,,
,,,,29644,001,2025-10-17_13h46.12.711,HW_LDT_1,2024.2.4,MacIntel,61.34969325,,,,,,,,,,,,,,,,,,,,,,23.8984,24.0708,24.0715,24.57,24.5704,26.8182,z,1,2.2187,,[],[],[],[],[],[],[],2.2187,1,26.8186,27.3182,0,0,0,13,1,1014,NW,UN,33,winfer,ROUPET,z,,,,,,,,,,,,,,,,,,,,,,,,,,,,,,,,,,,,,,,,,,,,,,,,,,,,,,,,,,,,,,,,,,
,,,,29644,001,2025-10-17_13h46.12.711,HW_LDT_1,2024.2.4,MacIntel,61.34969325,,,,,,,,,,,,,,,,,,,,,,27.3194,27.5179,27.5179,28.0174,28.0183,28.834,m,1,0.7953,,[],[],[],[],[],[],[],0.7953,1,28.8342,29.3331,0,1,1,1,1,1002,WORD,"ID",33,adjust,ADJUST,m,,,,,,,,,,,,,,,,,,,,,,,,,,,,,,,,,,,,,,,,,,,,,,,,,,,,,,,,,,,,,,,,,,
,,,,29644,001,2025-10-17_13h46.12.711,HW_LDT_1,2024.2.4,MacIntel,61.34969325,,,,,,,,,,,,,,,,,,,,,,29.3345,29.5331,29.5332,30.0326,30.0332,30.6153,m,1,0.5684,,[],[],[],[],[],[],[],0.5684,1,30.6154,31.1148,0,2,2,4,1,1005,WORD,UN,33,abound,SQUEAK,m,,,,,,,,,,,,,,,,,,,,,,,,,,,,,,,,,,,,,,,,,,,,,,,,,,,,,,,,,,,,,,,,,,
,,,,29644,001,2025-10-17_13h46.12.711,HW_LDT_1,2024.2.4,MacIntel,61.34969325,,,,,,,,,,,,,,,,,,,,,,31.1156,31.3156,31.3157,31.8156,31.8169,32.5484,z,1,0.7142,,[],[],[],[],[],[],[],0.7142,1,32.5485,33.0477,0,3,3,10,1,1011,NW,"ID",16,inlade,INLADE,z,,,,,,,,,,,,,,,,,,,,,,,,,,,,,,,,,,,,,,,,,,,,,,,,,,,,,,,,,,,,,,,,,,
,,,,29644,001,2025-10-17_13h46.12.711,HW_LDT_1,2024.2.4,MacIntel,61.34969325,,,,,,,,,,,,,,,,,,,,,,33.0491,33.2471,33.2472,33.7469,33.7478,34.3801,m,1,0.6145,,[],[],[],[],[],[],[],0.6145,1,34.3802,34.88,0,4,4,2,1,1003,WORD,"ID",16,almond,ALMOND,m,,,,,,,,,,,,,,,,,,,,,,,,,,,,,,,,,,,,,,,,,,,,,,,,,,,,,,,,,,,,,,,,,,
,,,,29644,001,2025-10-17_13h46.12.711,HW_LDT_1,2024.2.4,MacIntel,61.34969325,,,,,,,,,,,,,,,,,,,,,,34.8813,35.0794,35.0794,35.5802,35.5813,36.2284,m,1,0.6299,,[],[],[],[],[],[],[],0.6299,1,36.2285,36.7292,0,5,5,0,1,1001,WORD,"ID",33,utopia,UTOPIA,m,,,,,,,,,,,,,,,,,,,,,,,,,,,,,,,,,,,,,,,,,,,,,,,,,,,,,,,,,,,,,,,,,,
,,,,29644,001,2025-10-17_13h46.12.711,HW_LDT_1,2024.2.4,MacIntel,61.34969325,,,,,,,,,,,,,,,,,,,,,,36.7314,36.9276,36.9276,37.4279,37.4289,37.9941,m,1,0.5506,,[],[],[],[],[],[],[],0.5506,1,37.9942,38.4943,0,6,6,6,1,1007,WORD,UN,16,tropic,ZOMBIE,m,,,,,,,,,,,,,,,,,,,,,,,,,,,,,,,,,,,,,,,,,,,,,,,,,,,,,,,,,,,,,,,,,,
,,,,29644,001,2025-10-17_13h46.12.711,HW_LDT_1,2024.2.4,MacIntel,61.34969325,,,,,,,,,,,,,,,,,,,,,,38.4956,38.6939,38.694,39.1945,39.1959,39.8431,z,1,0.6294,,[],[],[],[],[],[],[],0.6294,1,39.8432,40.3423,0,7,7,11,1,1012,NW,"ID",16,rashet,RASHET,z,,,,,,,,,,,,,,,,,,,,,,,,,,,,,,,,,,,,,,,,,,,,,,,,,,,,,,,,,,,,,,,,,,
,,,,29644,001,2025-10-17_13h46.12.711,HW_LDT_1,2024.2.4,MacIntel,61.34969325,,,,,,,,,,,,,,,,,,,,,,40.3433,40.5419,40.5419,41.0422,41.0431,41.7249,z,1,0.6627,,[],[],[],[],[],[],[],0.6627,1,41.7251,42.2248,0,8,8,14,1,1015,NW,UN,16,miaber,THRALE,z,,,,,,,,,,,,,,,,,,,,,,,,,,,,,,,,,,,,,,,,,,,,,,,,,,,,,,,,,,,,,,,,,,
,,,,29644,001,2025-10-17_13h46.12.711,HW_LDT_1,2024.2.4,MacIntel,61.34969325,,,,,,,,,,,,,,,,,,,,,,42.2264,42.4245,42.4245,42.9246,42.9257,43.5236,m,1,0.5836,,[],[],[],[],[],[],[],0.5836,1,43.5237,44.0232,0,9,9,7,1,1008,WORD,UN,16,hurdle,VOLUME,m,,,,,,,,,,,,,,,,,,,,,,,,,,,,,,,,,,,,,,,,,,,,,,,,,,,,,,,,,,,,,,,,,,
,,,,29644,001,2025-10-17_13h46.12.711,HW_LDT_1,2024.2.4,MacIntel,61.34969325,,,,,,,,,,,,,,,,,,,,,,44.0241,44.2236,44.2237,44.7227,44.7237,45.4892,z,1,0.7493,,[],[],[],[],[],[],[],0.7493,1,45.4893,45.9894,0,10,10,12,1,1013,NW,UN,33,adveil,SPRINY,z,,,,,,,,,,,,,,,,,,,,,,,,,,,,,,,,,,,,,,,,,,,,,,,,,,,,,,,,,,,,,,,,,,
,,,,29644,001,2025-10-17_13h46.12.711,HW_LDT_1,2024.2.4,MacIntel,61.34969325,,,,,,,,,,,,,,,,,,,,,,45.9902,46.1883,46.1883,46.6888,46.6902,47.4222,z,1,0.7147,,[],[],[],[],[],[],[],0.7147,1,47.4223,47.9208,0,11,11,9,1,1010,NW,"ID",33,fariny,FARINY,z,,,,,,,,,,,,,,,,,,,,,,,,,,,,,,,,,,,,,,,,,,,,,,,,,,,,,,,,,,,,,,,,,,
,,,,29644,001,2025-10-17_13h46.12.711,HW_LDT_1,2024.2.4,MacIntel,61.34969325,,,,,,,,,,,,,,,,,,,,,,47.9225,48.1209,48.121,48.6209,48.6214,49.1533,m,1,0.5137,,[],[],[],[],[],[],[],0.5137,1,49.1535,49.6539,0,12,12,3,1,1004,WORD,"ID",16,matrix,MATRIX,m,,,,,,,,,,,,,,,,,,,,,,,,,,,,,,,,,,,,,,,,,,,,,,,,,,,,,,,,,,,,,,,,,,
,,,,29644,001,2025-10-17_13h46.12.711,HW_LDT_1,2024.2.4,MacIntel,61.34969325,,,,,,,,,,,,,,,,,,,,,,49.6552,49.8528,49.8529,50.353,50.3536,50.9021,m,1,0.5319,,[],[],[],[],[],[],[],0.5319,1,50.9023,51.4021,0,13,13,5,1,1006,WORD,UN,33,frenzy,OBTAIN,m,,,,,,,,,,,,,,,,,,,,,,,,,,,,,,,,,,,,,,,,,,,,,,,,,,,,,,,,,,,,,,,,,,
,,,,29644,001,2025-10-17_13h46.12.711,HW_LDT_1,2024.2.4,MacIntel,61.34969325,,,,,,,,,,,,,,,,,,,,,,51.4027,51.602,51.6021,52.1022,52.1035,52.9847,z,1,0.8644,,[],[],[],[],[],[],[],0.8644,1,52.9849,53.4834,0,14,14,15,1,1016,NW,UN,16,mushed,WHAISE,z,,,,,,,,,,,,,,,,,,,,,,,,,,,,,,,,,,,,,,,,,,,,,,,,,,,,,,,,,,,,,,,,,,
,,,,29644,001,2025-10-17_13h46.12.711,HW_LDT_1,2024.2.4,MacIntel,61.34969325,,,,,,,,,,,,,,,,,,,,,,53.484,53.6832,53.6832,54.1836,54.1846,55.2657,z,1,1.0629,,[],[],[],[],[],[],[],1.0629,1,55.2659,55.7657,0,15,15,8,1,1009,NW,"ID",33,aslert,ASLERT,z,,,,,,,,,,,,,,,,,,,,,,,,,,,,,,,,,,,,,,,,,,,,,,,,,,,,,,,,,,,,,,,,,,
,,,,29644,001,2025-10-17_13h46.12.711,HW_LDT_1,2024.2.4,MacIntel,61.34969325,,,,,,,,,,,,,,,1,end_of_practice,"You have completed the practice trials. During the experimental trials, you will not receive feedback. On some trials you will be asked to report whether the item you just saw was in cursive or print. 
Before you begin, please ensure that you are in a comfortable and quiet location and will not be disturbed for about 15 minutes, as we cannot use your data if you do not complete all the trials. 
 When you are ready to start the experimental trials, please press space or touch the button below.",,,,,,,,,,,,,,,,,,,,,,,,,,,,,,,,,,,,,,55.7707,62.129,space,6.3352,,0.3520988,-0.261386135,0,0,0,0,0,0,0,1,,,,,,,,,,,,,,,,,,,,,,,,,,,,,,,,,,,,,,,,,,,,,,,,,,,
,,,,29644,001,2025-10-17_13h46.12.711,HW_LDT_1,2024.2.4,MacIntel,61.34969325,,,,,,,,,,,,,,,,,,,,,,62.1418,62.3282,62.3283,62.8287,,,,,,,,,,,,,,0.6746,1,,,,,,,,,,,,,,m,,,,,,,,,,,,,,,,1,1,62.8309,63.5115,m,1,0.6746,,[],[],[],[],[],[],[],63.5119,65.509,65.5093,67.3748,[],[],[],[],[],[],[],m,1.8548,,67.375,67.3774,0.3520988,-0.261386135,0,0,0,,0,0,0,89,1,2,word,CAPACITY,print,capacity_p.png,,,,
,,,,29644,001,2025-10-17_13h46.12.711,HW_LDT_1,2024.2.4,MacIntel,61.34969325,,,,,,,,,,,,,,,,,,,,,,67.378,67.5744,67.5744,68.0746,,,,,,,,,,,,,,5.4017,1,,,,,,,,,,,,,,z,,,,,,,,,,,,,,,,2,0,68.075,73.4872,z,1,5.4017,,[],[],[],[],[],[],[],73.4873,75.4861,75.4862,75.4866,[],[],[],[],[],[],[],,,,75.4868,75.4869,0.3520988,-0.261386135,0,0,0,,0,1,1,23,1,2,RL,procogal,cursive,procogal_c.png,,,,
,,,,29644,001,2025-10-17_13h46.12.711,HW_LDT_1,2024.2.4,MacIntel,61.34969325,,,,,,,,,,,,,,,,,,,,,,75.4879,75.6858,75.6858,76.1853,,,,,,,,,,,,,,1.542,1,,,,,,,,,,,,,,m,,,,,,,,,,,,,,,,3,0,76.1856,77.7351,m,1,1.542,,[],[],[],[],[],[],[],77.7352,79.7335,79.7335,79.7337,[],[],[],[],[],[],[],,,,79.7338,79.7339,0.3520988,-0.261386135,0,0,0,,0,2,2,87,1,2,word,CAFETERIA,print,cafeteria_p.png,,,,
,,,,29644,001,2025-10-17_13h46.12.711,HW_LDT_1,2024.2.4,MacIntel,61.34969325,,,,,,,,,,,,,,,,,,,,,,79.7351,79.9333,79.9334,80.4331,,,,,,,,,,,,,,1.1733,1,,,,,,,,,,,,,,z,,,,,,,,,,,,,,,,4,0,80.4335,81.6148,z,1,1.1733,,[],[],[],[],[],[],[],81.6148,83.6134,83.6134,83.6136,[],[],[],[],[],[],[],,,,83.6136,83.6136,0.3520988,-0.261386135,0,0,0,,0,3,3,31,1,2,RL,spetisic,print,spetisic_p.png,,,,
,,,,29644,001,2025-10-17_13h46.12.711,HW_LDT_1,2024.2.4,MacIntel,61.34969325,,,,,,,,,,,,,,,,,,,,,,83.6144,83.8142,83.8143,84.3145,,,,,,,,,,,,,,3.8749,1,,,,,,,,,,,,,,z,,,,,,,,,,,,,,,,5,1,84.3153,88.1943,z,1,3.8749,,[],[],[],[],[],[],[],88.1944,90.193,90.193,91.6416,[],[],[],[],[],[],[],z,1.4477,,91.6416,91.6419,0.3520988,-0.261386135,0,0,0,,0,4,4,10,1,2,RL,disluge,cursive,disluge_c.png,,,,
,,,,29644,001,2025-10-17_13h46.12.711,HW_LDT_1,2024.2.4,MacIntel,61.34969325,,,,,,,,,,,,,,,,,,,,,,91.6431,91.8416,91.8416,92.3415,,,,,,,,,,,,,,0.8377,1,,,,,,,,,,,,,,z,,,,,,,,,,,,,,,,6,0,92.342,93.1907,z,1,0.8377,,[],[],[],[],[],[],[],93.1908,95.1895,95.1895,95.1897,[],[],[],[],[],[],[],,,,95.1898,95.1898,0.3520988,-0.261386135,0,0,0,,0,5,5,0,1,2,RL,adnicory,print,adnicory_p.png,,,,
,,,,29644,001,2025-10-17_13h46.12.711,HW_LDT_1,2024.2.4,MacIntel,61.34969325,,,,,,,,,,,,,,,,,,,,,,95.1905,95.3896,95.3897,95.8894,,,,,,,,,,,,,,1.4065,1,,,,,,,,,,,,,,m,,,,,,,,,,,,,,,,7,0,95.8897,97.3046,m,1,1.4065,,[],[],[],[],[],[],[],97.3047,99.3041,99.3041,99.3044,[],[],[],[],[],[],[],,,,99.3045,99.3047,0.3520988,-0.261386135,0,0,0,,0,6,6,126,1,2,word,OPTIMAL,cursive,optimal_c.png,,,,
,,,,29644,001,2025-10-17_13h46.12.711,HW_LDT_1,2024.2.4,MacIntel,61.34969325,,,,,,,,,,,,,,,,,,,,,,99.3056,99.5043,99.5043,100.0033,,,,,,,,,,,,,,0.6784,1,,,,,,,,,,,,,,m,,,,,,,,,,,,,,,,8,0,100.0036,100.6857,m,1,0.6784,,[],[],[],[],[],[],[],100.6858,102.6851,102.6851,102.6853,[],[],[],[],[],[],[],,,,102.6853,102.6855,0.3520988,-0.261386135,0,0,0,,0,7,7,112,1,2,word,LIBERAL,print,liberal_p.png,,,,
,,,,29644,001,2025-10-17_13h46.12.711,HW_LDT_1,2024.2.4,MacIntel,61.34969325,,,,,,,,,,,,,,,,,,,,,,102.6865,102.8856,102.8856,103.3841,,,,,,,,,,,,,,1.3605,1,,,,,,,,,,,,,,z,,,,,,,,,,,,,,,,9,0,103.3851,104.7504,z,1,1.3605,,[],[],[],[],[],[],[],104.7505,106.7481,106.7481,106.7482,[],[],[],[],[],[],[],,,,106.7483,106.7484,0.3520988,-0.261386135,0,0,0,,0,8,8,68,1,2,TL,quatily,cursive,quatily_c.png,,,,
,,,,29644,001,2025-10-17_13h46.12.711,HW_LDT_1,2024.2.4,MacIntel,61.34969325,,,,,,,,,,,,,,,,,,,,,,106.7493,106.9494,106.9494,107.4488,,,,,,,,,,,,,,0.8892,1,,,,,,,,,,,,,,z,,,,,,,,,,,,,,,,10,1,107.4493,108.3474,z,1,0.8892,,[],[],[],[],[],[],[],108.3475,110.3468,110.3469,111.7949,[],[],[],[],[],[],[],m,1.4463,,111.795,111.7951,0.351766801,-0.260676491,0,0,0,,0,9,9,9,1,2,RL,denficy,print,denficy_p.png,,,,
,,,,29644,001,2025-10-17_13h46.12.711,HW_LDT_1,2024.2.4,MacIntel,61.34969325,,,,,,,,,,,,,,,,,,,,,,111.7961,111.9946,111.9947,112.4946,,,,,,,,,,,,,,1.8739,1,,,,,,,,,,,,,,z,,,,,,,,,,,,,,,,11,0,112.4949,114.3766,z,1,1.8739,,[],[],[],[],[],[],[],114.3767,116.3756,116.3757,116.3759,[],[],[],[],[],[],[],,,,116.3759,116.3761,0.351766801,-0.260676491,0,0,0,,0,10,10,42,1,2,TL,bedise,cursive,bedise_c.png,,,,
,,,,29644,001,2025-10-17_13h46.12.711,HW_LDT_1,2024.2.4,MacIntel,61.34969325,,,,,,,,,,,,,,,,,,,,,,116.3776,116.5766,116.5767,117.0756,,,,,,,,,,,,,,1.0907,1,,,,,,,,,,,,,,z,,,,,,,,,,,,,,,,12,0,117.0761,118.1739,z,1,1.0907,,[],[],[],[],[],[],[],118.174,120.1732,120.1733,120.1736,[],[],[],[],[],[],[],,,,120.1737,120.1738,0.351766801,-0.260676491,0,0,0,,0,11,11,60,1,2,TL,molibe,print,molibe_p.png,,,,
,,,,29644,001,2025-10-17_13h46.12.711,HW_LDT_1,2024.2.4,MacIntel,61.34969325,,,,,,,,,,,,,,,,,,,,,,120.1755,120.3735,120.3735,120.8736,,,,,,,,,,,,,,0.7107,1,,,,,,,,,,,,,,z,,,,,,,,,,,,,,,,13,0,120.8744,121.5885,z,1,0.7107,,[],[],[],[],[],[],[],121.5885,123.5869,123.5869,123.587,[],[],[],[],[],[],[],,,,123.587,123.5872,0.351766801,-0.260676491,0,0,0,,0,12,12,55,1,2,TL,lotace,print,lotace_p.png,,,,
,,,,29644,001,2025-10-17_13h46.12.711,HW_LDT_1,2024.2.4,MacIntel,61.34969325,,,,,,,,,,,,,,,,,,,,,,123.5881,123.7881,123.7881,124.2871,,,,,,,,,,,,,,0.5926,1,,,,,,,,,,,,,,z,,,,,,,,,,,,,,,,14,0,124.2878,124.8863,z,1,0.5926,,[],[],[],[],[],[],[],124.8864,126.886,126.886,126.8863,[],[],[],[],[],[],[],,,,126.8863,126.8865,0.351766801,-0.260676491,0,0,0,,0,13,13,21,1,2,RL,pamest,print,pamest_p.png,,,,
,,,,29644,001,2025-10-17_13h46.12.711,HW_LDT_1,2024.2.4,MacIntel,61.34969325,,,,,,,,,,,,,,,,,,,,,,126.8875,127.0854,127.0855,127.5846,,,,,,,,,,,,,,0.8262,1,,,,,,,,,,,,,,m,,,,,,,,,,,,,,,,15,0,127.5851,128.4178,m,1,0.8262,,[],[],[],[],[],[],[],128.4179,130.416,130.416,130.4163,[],[],[],[],[],[],[],,,,130.4164,130.4165,0.351766801,-0.260676491,0,0,0,,0,14,14,144,1,2,word,RESIDENT,print,resident_p.png,,,,
,,,,29644,001,2025-10-17_13h46.12.711,HW_LDT_1,2024.2.4,MacIntel,61.34969325,,,,,,,,,,,,,,,,,,,,,,130.4175,130.6159,130.616,131.1161,,,,,,,,,,,,,,0.7091,1,,,,,,,,,,,,,,z,,,,,,,,,,,,,,,,16,0,131.1168,131.8319,z,1,0.7091,,[],[],[],[],[],[],[],131.8319,133.8313,133.8313,133.8315,[],[],[],[],[],[],[],,,,133.8315,133.8317,0.351766801,-0.260676491,0,0,0,,0,15,15,52,1,2,TL,elarobate,cursive,elarobate_c.png,,,,
,,,,29644,001,2025-10-17_13h46.12.711,HW_LDT_1,2024.2.4,MacIntel,61.34969325,,,,,,,,,,,,,,,,,,,,,,133.8323,134.0302,134.0302,134.53,,,,,,,,,,,,,,0.6249,1,,,,,,,,,,,,,,m,,,,,,,,,,,,,,,,17,0,134.5303,135.1625,m,1,0.6249,,[],[],[],[],[],[],[],135.1625,137.1611,137.1612,137.1613,[],[],[],[],[],[],[],,,,137.1613,137.1614,0.351766801,-0.260676491,0,0,0,,0,16,16,137,1,2,word,RAPIDLY,print,rapidly_p.png,,,,
,,,,29644,001,2025-10-17_13h46.12.711,HW_LDT_1,2024.2.4,MacIntel,61.34969325,,,,,,,,,,,,,,,,,,,,,,137.1622,137.3622,137.3622,137.8616,,,,,,,,,,,,,,0.6234,1,,,,,,,,,,,,,,z,,,,,,,,,,,,,,,,18,0,137.8626,138.494,z,1,0.6234,,[],[],[],[],[],[],[],138.494,140.4927,140.4927,140.4928,[],[],[],[],[],[],[],,,,140.4929,140.4929,0.351766801,-0.260676491,0,0,0,,0,17,17,51,1,2,TL,etidor,cursive,etidor_c.png,,,,
,,,,29644,001,2025-10-17_13h46.12.711,HW_LDT_1,2024.2.4,MacIntel,61.34969325,,,,,,,,,,,,,,,,,,,,,,140.4941,140.6933,140.6934,141.1929,,,,,,,,,,,,,,0.5088,1,,,,,,,,,,,,,,m,,,,,,,,,,,,,,,,19,0,141.1932,141.7086,m,1,0.5088,,[],[],[],[],[],[],[],141.7087,143.7074,143.7076,143.7078,[],[],[],[],[],[],[],,,,143.7078,143.708,0.351766801,-0.260676491,0,0,0,,0,18,18,83,1,2,word,ANIMAL,print,animal_p.png,,,,
,,,,29644,001,2025-10-17_13h46.12.711,HW_LDT_1,2024.2.4,MacIntel,61.34969325,,,,,,,,,,,,,,,,,,,,,,143.709,143.9078,143.9078,144.4073,,,,,,,,,,,,,,0.5643,1,,,,,,,,,,,,,,z,,,,,,,,,,,,,,,,20,0,144.408,144.973,z,1,0.5643,,[],[],[],[],[],[],[],144.9731,146.9718,146.9719,146.972,[],[],[],[],[],[],[],,,,146.9721,146.9722,0.351766801,-0.260676491,0,0,0,,0,19,19,33,1,2,RL,strapely,cursive,strapely_c.png,,,,
,,,,29644,001,2025-10-17_13h46.12.711,HW_LDT_1,2024.2.4,MacIntel,61.34969325,,,,,,,,,,,,,,,,,,,,,,146.9733,147.1712,147.1713,147.6719,,,,,,,,,,,,,,0.7745,0,,,,,,,,,,,,,,m,,,,,,,,,,,,,,,,21,0,147.6723,148.4546,z,0,0.7745,,[],[],[],[],[],[],[],148.4547,150.454,150.454,150.4542,[],[],[],[],[],[],[],,,,150.4543,150.4545,0.351766801,-0.260676491,0,0,0,,0,20,20,91,1,2,word,CARDINAL,cursive,cardinal_c.png,,,,
,,,,29644,001,2025-10-17_13h46.12.711,HW_LDT_1,2024.2.4,MacIntel,61.34969325,,,,,,,,,,,,,,,,,,,,,,150.456,150.6536,150.6536,151.1518,,,,,,,,,,,,,,0.5982,1,,,,,,,,,,,,,,m,,,,,,,,,,,,,,,,22,0,151.152,151.7518,m,1,0.5982,,[],[],[],[],[],[],[],151.7519,153.751,153.751,153.7512,[],[],[],[],[],[],[],,,,153.7513,153.7513,0.351766801,-0.260676491,0,0,0,,0,21,21,104,1,2,word,DOMINANT,print,dominant_p.png,,,,
,,,,29644,001,2025-10-17_13h46.12.711,HW_LDT_1,2024.2.4,MacIntel,61.34969325,,,,,,,,,,,,,,,,,,,,,,153.7522,153.95,153.9501,154.4499,,,,,,,,,,,,,,1.1059,1,,,,,,,,,,,,,,z,,,,,,,,,,,,,,,,23,0,154.4502,155.5662,z,1,1.1059,,[],[],[],[],[],[],[],155.5662,157.5655,157.5655,157.5656,[],[],[],[],[],[],[],,,,157.5657,157.5658,0.351766801,-0.260676491,0,0,0,,0,22,22,28,1,2,RL,revune,cursive,revune_c.png,,,,
,,,,29644,001,2025-10-17_13h46.12.711,HW_LDT_1,2024.2.4,MacIntel,61.34969325,,,,,,,,,,,,,,,,,,,,,,157.5669,157.7648,157.7648,158.264,,,,,,,,,,,,,,0.7273,1,,,,,,,,,,,,,,z,,,,,,,,,,,,,,,,24,0,158.2645,158.997,z,1,0.7273,,[],[],[],[],[],[],[],158.997,160.9971,160.9971,160.9974,[],[],[],[],[],[],[],,,,160.9974,160.9975,0.351766801,-0.260676491,0,0,0,,0,23,23,8,1,2,RL,desifate,print,desifate_p.png,,,,
,,,,29644,001,2025-10-17_13h46.12.711,HW_LDT_1,2024.2.4,MacIntel,61.34969325,,,,,,,,,,,,,,,,,,,,,,160.9993,161.1963,161.1964,161.6957,,,,,,,,,,,,,,0.8128,1,,,,,,,,,,,,,,z,,,,,,,,,,,,,,,,25,0,161.6961,162.5115,z,1,0.8128,,[],[],[],[],[],[],[],162.5116,164.5112,164.5113,164.5114,[],[],[],[],[],[],[],,,,164.5115,164.5116,0.351766801,-0.260676491,0,0,0,,0,24,24,4,1,2,RL,cenesony,print,cenesony_p.png,,,,
,,,,29644,001,2025-10-17_13h46.12.711,HW_LDT_1,2024.2.4,MacIntel,61.34969325,,,,,,,,,,,,,,,,,,,,,,164.5125,164.7111,164.7111,165.2108,,,,,,,,,,,,,,1.0081,1,,,,,,,,,,,,,,m,,,,,,,,,,,,,,,,26,0,165.2113,166.2253,m,1,1.0081,,[],[],[],[],[],[],[],166.2253,168.2249,168.2249,168.2252,[],[],[],[],[],[],[],,,,168.2252,168.2253,0.351766801,-0.260676491,0,0,0,,0,25,25,92,1,2,word,CATEGORY,print,category_p.png,,,,
,,,,29644,001,2025-10-17_13h46.12.711,HW_LDT_1,2024.2.4,MacIntel,61.34969325,,,,,,,,,,,,,,,,,,,,,,168.2267,168.4248,168.425,168.9243,,,,,,,,,,,,,,1.4411,1,,,,,,,,,,,,,,m,,,,,,,,,,,,,,,,27,0,168.9247,170.3726,m,1,1.4411,,[],[],[],[],[],[],[],170.3727,172.3719,172.372,172.3722,[],[],[],[],[],[],[],,,,172.3724,172.3725,0.351766801,-0.260676491,0,0,0,,0,26,26,139,1,2,word,REGULAR,cursive,regular_c.png,,,,
,,,,29644,001,2025-10-17_13h46.12.711,HW_LDT_1,2024.2.4,MacIntel,61.34969325,,,,,,,,,,,,,,,,,,,,,,172.3735,172.5721,172.5722,173.0716,,,,,,,,,,,,,,1.1887,0,,,,,,,,,,,,,,z,,,,,,,,,,,,,,,,28,0,173.0718,174.2705,m,0,1.1887,,[],[],[],[],[],[],[],174.2706,176.2688,176.2688,176.2689,[],[],[],[],[],[],[],,,,176.269,176.2691,0.351766801,-0.260676491,0,0,0,,0,27,27,61,1,2,TL,nuremical,cursive,nuremical_c.png,,,,
,,,,29644,001,2025-10-17_13h46.12.711,HW_LDT_1,2024.2.4,MacIntel,61.34969325,,,,,,,,,,,,,,,,,,,,,,176.2701,176.4692,176.4692,176.9687,,,,,,,,,,,,,,1.3248,1,,,,,,,,,,,,,,z,,,,,,,,,,,,,,,,29,1,176.9692,178.3013,z,1,1.3248,,[],[],[],[],[],[],[],178.3013,180.3006,180.3007,181.582,[],[],[],[],[],[],[],z,1.2798,,181.5821,181.5821,0.351766801,-0.260676491,0,0,0,,0,28,28,19,1,2,RL,monebate,cursive,monebate_c.png,,,,
,,,,29644,001,2025-10-17_13h46.12.711,HW_LDT_1,2024.2.4,MacIntel,61.34969325,,,,,,,,,,,,,,,,,,,,,,181.5831,181.7819,181.7819,182.2814,,,,,,,,,,,,,,1.0644,1,,,,,,,,,,,,,,m,,,,,,,,,,,,,,,,30,0,182.2819,183.3472,m,1,1.0644,,[],[],[],[],[],[],[],183.3473,185.3465,185.3465,185.3467,[],[],[],[],[],[],[],,,,185.3467,185.3469,0.351766801,-0.260676491,0,0,0,,0,29,29,147,1,2,word,ROMANTIC,print,romantic_p.png,,,,
,,,,29644,001,2025-10-17_13h46.12.711,HW_LDT_1,2024.2.4,MacIntel,61.34969325,,,,,,,,,,,,,,,,,,,,,,185.3482,185.5466,185.5466,186.0461,,,,,,,,,,,,,,0.914,1,,,,,,,,,,,,,,z,,,,,,,,,,,,,,,,31,0,186.0464,186.9615,z,1,0.914,,[],[],[],[],[],[],[],186.9615,188.9617,188.9618,188.962,[],[],[],[],[],[],[],,,,188.9623,188.9624,0.351766801,-0.260676491,0,0,0,,0,30,30,58,1,2,TL,mitilary,cursive,mitilary_c.png,,,,
,,,,29644,001,2025-10-17_13h46.12.711,HW_LDT_1,2024.2.4,MacIntel,61.34969325,,,,,,,,,,,,,,,,,,,,,,188.9637,189.1615,189.1615,189.6612,,,,,,,,,,,,,,0.8751,1,,,,,,,,,,,,,,z,,,,,,,,,,,,,,,,32,0,189.6621,190.5435,z,1,0.8751,,[],[],[],[],[],[],[],190.5435,192.5424,192.5426,192.5429,[],[],[],[],[],[],[],,,,192.543,192.5432,0.351766801,-0.260676491,0,0,0,,0,31,31,22,1,2,RL,posity,print,posity_p.png,,,,
,,,,29644,001,2025-10-17_13h46.12.711,HW_LDT_1,2024.2.4,MacIntel,61.34969325,,,,,,,,,,,,,,,,,,,,,,192.5443,192.7421,192.7421,193.2411,,,,,,,,,,,,,,0.6903,1,,,,,,,,,,,,,,m,,,,,,,,,,,,,,,,33,1,193.2414,193.9404,m,1,0.6903,,[],[],[],[],[],[],[],193.9404,195.9393,195.9393,197.5386,[],[],[],[],[],[],[],z,1.5925,,197.5387,197.5388,0.351766801,-0.260676491,0,0,0,,0,32,32,98,1,2,word,CRIMINAL,cursive,criminal_c.png,,,,
,,,,29644,001,2025-10-17_13h46.12.711,HW_LDT_1,2024.2.4,MacIntel,61.34969325,,,,,,,,,,,,,,,,,,,,,,197.5397,197.7384,197.7384,198.2387,,,,,,,,,,,,,,0.7749,1,,,,,,,,,,,,,,m,,,,,,,,,,,,,,,,34,0,198.2392,199.0207,m,1,0.7749,,[],[],[],[],[],[],[],199.0208,201.0191,201.0191,201.0191,[],[],[],[],[],[],[],,,,201.0192,201.0192,0.351766801,-0.260676491,0,0,0,,0,33,33,101,1,2,word,DELICATE,print,delicate_p.png,,,,
,,,,29644,001,2025-10-17_13h46.12.711,HW_LDT_1,2024.2.4,MacIntel,61.34969325,,,,,,,,,,,,,,,,,,,,,,201.02,201.2203,201.2204,201.7193,,,,,,,,,,,,,,0.6036,1,,,,,,,,,,,,,,m,,,,,,,,,,,,,,,,35,0,201.7196,202.3357,m,1,0.6036,,[],[],[],[],[],[],[],202.3358,204.3336,204.3336,204.3337,[],[],[],[],[],[],[],,,,204.3337,204.3338,0.351766801,-0.260676491,0,0,0,,0,34,34,99,1,2,word,DEBATE,print,debate_p.png,,,,
,,,,29644,001,2025-10-17_13h46.12.711,HW_LDT_1,2024.2.4,MacIntel,61.34969325,,,,,,,,,,,,,,,,,,,,,,204.3345,204.5344,204.5344,205.0343,,,,,,,,,,,,,,0.644,1,,,,,,,,,,,,,,z,,,,,,,,,,,,,,,,36,0,205.035,205.6828,z,1,0.644,,[],[],[],[],[],[],[],205.6829,207.6816,207.6817,207.6819,[],[],[],[],[],[],[],,,,207.682,207.6821,0.351766801,-0.260676491,0,0,0,,0,35,35,17,1,2,RL,macise,cursive,macise_c.png,,,,
,,,,29644,001,2025-10-17_13h46.12.711,HW_LDT_1,2024.2.4,MacIntel,61.34969325,,,,,,,,,,,,,,,,,,,,,,207.6835,207.8819,207.882,208.381,,,,,,,,,,,,,,0.6276,1,,,,,,,,,,,,,,z,,,,,,,,,,,,,,,,37,1,208.3814,209.0138,z,1,0.6276,,[],[],[],[],[],[],[],209.0139,211.0133,211.0134,212.7277,[],[],[],[],[],[],[],z,1.7084,,212.7277,212.7278,0.351766801,-0.260676491,0,0,0,,0,36,36,59,1,2,TL,miskate,cursive,miskate_c.png,,,,
,,,,29644,001,2025-10-17_13h46.12.711,HW_LDT_1,2024.2.4,MacIntel,61.34969325,,,,,,,,,,,,,,,,,,,,,,212.7285,212.9288,212.9288,213.4285,,,,,,,,,,,,,,2.4729,1,,,,,,,,,,,,,,z,,,,,,,,,,,,,,,,38,0,213.4289,215.909,z,1,2.4729,,[],[],[],[],[],[],[],215.909,217.9087,217.9087,217.9089,[],[],[],[],[],[],[],,,,217.9089,217.909,0.351766801,-0.260676491,0,0,0,,0,37,37,65,1,2,TL,polupar,cursive,polupar_c.png,,,,
,,,,29644,001,2025-10-17_13h46.12.711,HW_LDT_1,2024.2.4,MacIntel,61.34969325,,,,,,,,,,,,,,,,,,,,,,217.9102,218.1092,218.1093,218.6082,,,,,,,,,,,,,,0.8033,0,,,,,,,,,,,,,,z,,,,,,,,,,,,,,,,39,0,218.6091,219.4235,m,0,0.8033,,[],[],[],[],[],[],[],219.4236,221.4231,221.4231,221.4232,[],[],[],[],[],[],[],,,,221.4232,221.4233,0.351766801,-0.260676491,0,0,0,,0,38,38,13,1,2,RL,helicage,print,helicage_p.png,,,,
,,,,29644,001,2025-10-17_13h46.12.711,HW_LDT_1,2024.2.4,MacIntel,61.34969325,,,,,,,,,,,,,,,,,,,,,,221.424,221.6229,221.6229,222.1221,,,,,,,,,,,,,,1.0722,1,,,,,,,,,,,,,,m,,,,,,,,,,,,,,,,40,0,222.1224,223.204,m,1,1.0722,,[],[],[],[],[],[],[],223.204,225.2034,225.2034,225.2035,[],[],[],[],[],[],[],,,,225.2036,225.2037,0.351766801,-0.260676491,0,0,0,,0,39,39,132,1,2,word,PROPOSAL,cursive,proposal_c.png,,,,
,,,,29644,001,2025-10-17_13h46.12.711,HW_LDT_1,2024.2.4,MacIntel,61.34969325,,,,,,,,,,,,,,,,,,,,,,225.2045,225.4031,225.4032,225.903,,,,,,,,,,,,,,1.5246,1,,,,,,,,,,,,,,z,,,,,,,,,,,,,,,,41,1,225.9033,227.4349,z,1,1.5246,,[],[],[],[],[],[],[],227.4349,229.4341,229.4341,230.5334,[],[],[],[],[],[],[],z,1.091,,230.5334,230.5334,0.351766801,-0.260676491,0,0,0,,0,40,40,7,1,2,RL,cocewage,cursive,cocewage_c.png,,,,
,,,,29644,001,2025-10-17_13h46.12.711,HW_LDT_1,2024.2.4,MacIntel,61.34969325,,,,,,,,,,,,,,,,,,,,,,230.5342,230.733,230.7331,231.233,,,,,,,,,,,,,,2.4789,1,,,,,,,,,,,,,,z,,,,,,,,,,,,,,,,42,0,231.2336,233.714,z,1,2.4789,,[],[],[],[],[],[],[],233.714,235.7131,235.7131,235.7134,[],[],[],[],[],[],[],,,,235.7134,235.7135,0.351766801,-0.260676491,0,0,0,,0,41,41,37,1,2,TL,adacemy,cursive,adacemy_c.png,,,,
,,,,29644,001,2025-10-17_13h46.12.711,HW_LDT_1,2024.2.4,MacIntel,61.34969325,,,,,,,,,,,,,,,,,,,,,,235.7143,235.9139,235.9139,236.4123,,,,,,,,,,,,,,0.725,1,,,,,,,,,,,,,,z,,,,,,,,,,,,,,,,43,0,236.4129,237.1462,z,1,0.725,,[],[],[],[],[],[],[],237.1463,239.1446,239.1446,239.1448,[],[],[],[],[],[],[],,,,239.1448,239.1449,0.351766801,-0.260676491,0,0,0,,0,42,42,16,1,2,RL,losipal,print,losipal_p.png,,,,
,,,,29644,001,2025-10-17_13h46.12.711,HW_LDT_1,2024.2.4,MacIntel,61.34969325,,,,,,,,,,,,,,,,,,,,,,239.146,239.3443,239.3443,239.8442,,,,,,,,,,,,,,0.8246,1,,,,,,,,,,,,,,z,,,,,,,,,,,,,,,,44,0,239.8445,240.6768,z,1,0.8246,,[],[],[],[],[],[],[],240.6769,242.6759,242.676,242.6761,[],[],[],[],[],[],[],,,,242.6762,242.6764,0.351766801,-0.260676491,0,0,0,,0,43,43,15,1,2,RL,linedal,print,linedal_p.png,,,,
,,,,29644,001,2025-10-17_13h46.12.711,HW_LDT_1,2024.2.4,MacIntel,61.34969325,,,,,,,,,,,,,,,,,,,,,,242.6776,242.8758,242.8758,243.3755,,,,,,,,,,,,,,0.6138,1,,,,,,,,,,,,,,m,,,,,,,,,,,,,,,,45,0,243.376,243.9904,m,1,0.6138,,[],[],[],[],[],[],[],243.9905,245.9901,245.9901,245.9903,[],[],[],[],[],[],[],,,,245.9903,245.9904,0.351766801,-0.260676491,0,0,0,,0,44,44,149,1,2,word,SENATOR,print,senator_p.png,,,,
,,,,29644,001,2025-10-17_13h46.12.711,HW_LDT_1,2024.2.4,MacIntel,61.34969325,,,,,,,,,,,,,,,,,,,,,,245.9913,246.1896,246.1896,246.6889,,,,,,,,,,,,,,0.6422,0,,,,,,,,,,,,,,m,,,,,,,,,,,,,,,,46,0,246.6893,247.3384,z,0,0.6422,,[],[],[],[],[],[],[],247.3384,249.337,249.337,249.3371,[],[],[],[],[],[],[],,,,249.3371,249.3372,0.081167611,0.515169655,0,0,0,,0,45,45,134,1,2,word,QUALIFY,cursive,qualify_c.png,,,,
,,,,29644,001,2025-10-17_13h46.12.711,HW_LDT_1,2024.2.4,MacIntel,61.34969325,,,,,,,,,,,,,,,,,,,,,,249.338,249.5381,249.5382,250.0528,,,,,,,,,,,,,,210.3326,1,,,,,,,,,,,,,,m,,,,,,,,,,,,,,,,47,0,250.0532,460.3972,m,1,210.3326,,[],[],[],[],[],[],[],460.3973,462.396,462.396,462.3962,[],[],[],[],[],[],[],,,,462.3962,462.3962,0.457459376,-0.195564204,0,0,0,,0,46,46,86,1,2,word,BESIDE,cursive,beside_c.png,,,,
,,,,29644,001,2025-10-17_13h46.12.711,HW_LDT_1,2024.2.4,MacIntel,61.34969325,,,,,,,,,,,,,,,,,,,,,,462.397,462.596,462.596,463.0953,,,,,,,,,,,,,,1.7922,1,,,,,,,,,,,,,,z,,,,,,,,,,,,,,,,48,0,463.0956,464.8942,z,1,1.7922,,[],[],[],[],[],[],[],464.8942,466.8927,466.8927,466.8929,[],[],[],[],[],[],[],,,,466.893,466.8931,0.457459376,-0.195564204,0,0,0,,0,47,47,1,1,2,RL,caleberia,print,caleberia_p.png,,,,
,,,,29644,001,2025-10-17_13h46.12.711,HW_LDT_1,2024.2.4,MacIntel,61.34969325,,,,,,,,,,,,,,,,,,,,,,466.8939,467.0939,467.0939,467.5931,,,,,,,,,,,,,,3.0747,1,,,,,,,,,,,,,,z,,,,,,,,,,,,,,,,49,1,467.5938,470.6743,z,1,3.0747,,[],[],[],[],[],[],[],470.6743,472.6735,472.6735,474.2882,[],[],[],[],[],[],[],z,1.6096,,474.2882,474.2883,0.457459376,-0.195564204,0,0,0,,0,48,48,5,1,2,RL,clisimal,cursive,clisimal_c.png,,,,
,,,,29644,001,2025-10-17_13h46.12.711,HW_LDT_1,2024.2.4,MacIntel,61.34969325,,,,,,,,,,,,,,,,,,,,,,474.289,474.4889,474.4889,474.9882,,,,,,,,,,,,,,2.0807,1,,,,,,,,,,,,,,m,,,,,,,,,,,,,,,,50,0,474.9887,477.0698,m,1,2.0807,,[],[],[],[],[],[],[],477.0698,479.0693,479.0694,479.0695,[],[],[],[],[],[],[],,,,479.0696,479.0698,0.457459376,-0.195564204,0,0,0,,0,49,49,158,1,2,word,VELOCITY,print,velocity_p.png,,,,
,,,,29644,001,2025-10-17_13h46.12.711,HW_LDT_1,2024.2.4,MacIntel,61.34969325,,,,,,,,,,,,,,,,,,,,,,479.0712,479.2677,479.2677,479.7674,,,,,,,,,,,,,,3.4562,0,,,,,,,,,,,,,,m,,,,,,,,,,,,,,,,51,0,479.7679,483.2319,z,0,3.4562,,[],[],[],[],[],[],[],483.2319,485.2311,485.2312,485.2314,[],[],[],[],[],[],[],,,,485.2314,485.2316,0.457459376,-0.195564204,0,0,0,,0,50,50,117,1,2,word,MARINE,cursive,marine_c.png,,,,
,,,,29644,001,2025-10-17_13h46.12.711,HW_LDT_1,2024.2.4,MacIntel,61.34969325,,,,,,,,,,,,,,,,,,,,,,485.2332,485.4312,485.4312,485.9313,,,,,,,,,,,,,,1.8743,1,,,,,,,,,,,,,,m,,,,,,,,,,,,,,,,52,0,485.9318,487.8129,m,1,1.8743,,[],[],[],[],[],[],[],487.813,489.8112,489.8112,489.8116,[],[],[],[],[],[],[],,,,489.8116,489.8117,0.457459376,-0.195564204,0,0,0,,0,51,51,133,1,2,word,PROVIDE,cursive,provide_c.png,,,,
,,,,29644,001,2025-10-17_13h46.12.711,HW_LDT_1,2024.2.4,MacIntel,61.34969325,,,,,,,,,,,,,,,,,,,,,,489.8128,490.011,490.011,490.5107,,,,,,,,,,,,,,1.4412,1,,,,,,,,,,,,,,m,,,,,,,,,,,,,,,,53,0,490.511,491.9596,m,1,1.4412,,[],[],[],[],[],[],[],491.9596,493.9582,493.9582,493.9583,[],[],[],[],[],[],[],,,,493.9584,493.9584,0.457459376,-0.195564204,0,0,0,,0,52,52,88,1,2,word,CAMERA,print,camera_p.png,,,,
,,,,29644,001,2025-10-17_13h46.12.711,HW_LDT_1,2024.2.4,MacIntel,61.34969325,,,,,,,,,,,,,,,,,,,,,,493.9594,494.1585,494.1586,494.6586,,,,,,,,,,,,,,0.8919,1,,,,,,,,,,,,,,m,,,,,,,,,,,,,,,,54,0,494.6594,495.5572,m,1,0.8919,,[],[],[],[],[],[],[],495.5573,497.5561,497.5561,497.5563,[],[],[],[],[],[],[],,,,497.5563,497.5564,0.457459376,-0.195564204,0,0,0,,0,53,53,151,1,2,word,SPECIFIC,print,specific_p.png,,,,
,,,,29644,001,2025-10-17_13h46.12.711,HW_LDT_1,2024.2.4,MacIntel,61.34969325,,,,,,,,,,,,,,,,,,,,,,497.5575,497.7556,497.7556,498.2555,,,,,,,,,,,,,,1.3791,1,,,,,,,,,,,,,,z,,,,,,,,,,,,,,,,55,0,498.2561,499.6385,z,1,1.3791,,[],[],[],[],[],[],[],499.6385,501.6363,501.6363,501.6364,[],[],[],[],[],[],[],,,,501.6364,501.6364,0.457459376,-0.195564204,0,0,0,,0,54,54,78,1,2,TL,stogare,print,stogare_p.png,,,,
,,,,29644,001,2025-10-17_13h46.12.711,HW_LDT_1,2024.2.4,MacIntel,61.34969325,,,,,,,,,,,,,,,,,,,,,,501.637,501.8369,501.8369,502.3356,,,,,,,,,,,,,,2.9584,1,,,,,,,,,,,,,,z,,,,,,,,,,,,,,,,56,0,502.3359,505.3016,z,1,2.9584,,[],[],[],[],[],[],[],505.3017,507.2989,507.299,507.2991,[],[],[],[],[],[],[],,,,507.2991,507.2991,0.814229388,0.453132981,0,0,0,,0,55,55,70,1,2,TL,retalive,print,retalive_p.png,,,,
,,,,29644,001,2025-10-17_13h46.12.711,HW_LDT_1,2024.2.4,MacIntel,61.34969325,,,,,,,,,,,,,,,,,,,,,,507.2998,507.4994,507.4994,507.9994,,,,,,,,,,,,,,1.6427,1,,,,,,,,,,,,,,z,,,,,,,,,,,,,,,,57,0,507.9997,509.648,z,1,1.6427,,[],[],[],[],[],[],[],509.648,511.6472,511.6473,511.6474,[],[],[],[],[],[],[],,,,511.6475,511.6476,0.814229388,0.453132981,0,0,0,,0,56,56,29,1,2,RL,samite,cursive,samite_c.png,,,,
,,,,29644,001,2025-10-17_13h46.12.711,HW_LDT_1,2024.2.4,MacIntel,61.34969325,,,,,,,,,,,,,,,,,,,,,,511.6487,511.847,511.847,512.3467,,,,,,,,,,,,,,1.1913,1,,,,,,,,,,,,,,m,,,,,,,,,,,,,,,,58,0,512.3472,513.5452,m,1,1.1913,,[],[],[],[],[],[],[],513.5453,515.5446,515.5446,515.5448,[],[],[],[],[],[],[],,,,515.5449,515.5451,0.814229388,0.453132981,0,0,0,,0,57,57,110,1,2,word,HERITAGE,print,heritage_p.png,,,,
,,,,29644,001,2025-10-17_13h46.12.711,HW_LDT_1,2024.2.4,MacIntel,61.34969325,,,,,,,,,,,,,,,,,,,,,,515.5464,515.7452,515.7452,516.2437,,,,,,,,,,,,,,1.7445,1,,,,,,,,,,,,,,z,,,,,,,,,,,,,,,,59,1,516.2445,517.9924,z,1,1.7445,,[],[],[],[],[],[],[],517.9925,519.9907,519.9907,522.7895,[],[],[],[],[],[],[],m,2.7932,,522.7896,522.7897,0.727252883,0.130167013,0,0,0,,0,58,58,25,1,2,RL,rabigly,print,rabigly_p.png,,,,
,,,,29644,001,2025-10-17_13h46.12.711,HW_LDT_1,2024.2.4,MacIntel,61.34969325,,,,,,,,,,,,,,,,,,,,,,522.7906,522.9897,522.9898,523.4898,,,,,,,,,,,,,,3.2266,1,,,,,,,,,,,,,,m,,,,,,,,,,,,,,,,60,0,523.4906,526.7199,m,1,3.2266,,[],[],[],[],[],[],[],526.7201,528.7182,528.7182,528.7183,[],[],[],[],[],[],[],,,,528.7183,528.7184,0.95715121,0.569687967,0,0,0,,0,59,59,108,1,2,word,FORTUNE,print,fortune_p.png,,,,
,,,,29644,001,2025-10-17_13h46.12.711,HW_LDT_1,2024.2.4,MacIntel,61.34969325,,,,,,,,,,,,,,,,,,,,,,528.719,528.9186,528.9187,529.4181,,,,,,,,,,,,,,1.821,1,,,,,,,,,,,,,,m,,,,,,,,,,,,,,,,61,0,529.4186,531.2506,m,1,1.821,,[],[],[],[],[],[],[],531.2508,533.2497,533.2498,533.25,[],[],[],[],[],[],[],,,,533.2501,533.2501,0.95715121,0.569687967,0,0,0,,0,60,60,82,1,2,word,AMATEUR,cursive,amateur_c.png,,,,
,,,,29644,001,2025-10-17_13h46.12.711,HW_LDT_1,2024.2.4,MacIntel,61.34969325,,,,,,,,,,,,,,,,,,,,,,533.2515,533.4491,533.4491,533.9486,,,,,,,,,,,,,,2.0808,1,,,,,,,,,,,,,,m,,,,,,,,,,,,,,,,62,1,533.9492,536.0311,m,1,2.0808,,[],[],[],[],[],[],[],536.0312,538.0293,538.0293,539.3281,[],[],[],[],[],[],[],m,1.2938,,539.3282,539.3283,0.95715121,0.569687967,0,0,0,,0,61,61,115,1,2,word,LOGICAL,print,logical_p.png,,,,
,,,,29644,001,2025-10-17_13h46.12.711,HW_LDT_1,2024.2.4,MacIntel,61.34969325,,,,,,,,,,,,,,,,,,,,,,539.3291,539.5287,539.5287,540.0287,,,,,,,,,,,,,,2.2887,1,,,,,,,,,,,,,,z,,,,,,,,,,,,,,,,63,0,540.0293,542.3262,z,1,2.2887,,[],[],[],[],[],[],[],542.3262,544.3249,544.3249,544.3251,[],[],[],[],[],[],[],,,,544.3251,544.3252,0.95715121,0.569687967,0,0,0,,0,62,62,24,1,2,RL,rasibal,cursive,rasibal_c.png,,,,
,,,,29644,001,2025-10-17_13h46.12.711,HW_LDT_1,2024.2.4,MacIntel,61.34969325,,,,,,,,,,,,,,,,,,,,,,544.3262,544.5247,544.5247,545.0251,,,,,,,,,,,,,,2.6085,0,,,,,,,,,,,,,,m,,,,,,,,,,,,,,,,64,0,545.0257,547.6392,z,0,2.6085,,[],[],[],[],[],[],[],547.6393,549.638,549.6381,549.6382,[],[],[],[],[],[],[],,,,549.6382,549.6384,0.95715121,0.569687967,0,0,0,,0,63,63,121,1,2,word,MISTAKE,cursive,mistake_c.png,,,,
,,,,29644,001,2025-10-17_13h46.12.711,HW_LDT_1,2024.2.4,MacIntel,61.34969325,,,,,,,,,,,,,,,,,,,,,,549.6395,549.8385,549.8386,550.338,,,,,,,,,,,,,,2.9898,0,,,,,,,,,,,,,,m,,,,,,,,,,,,,,,,65,0,550.3383,553.3359,z,0,2.9898,,[],[],[],[],[],[],[],553.3359,555.3355,555.3356,555.3358,[],[],[],[],[],[],[],,,,555.3362,555.3363,0.95715121,0.569687967,0,0,0,,0,64,64,138,1,2,word,REFUSAL,cursive,refusal_c.png,,,,
,,,,29644,001,2025-10-17_13h46.12.711,HW_LDT_1,2024.2.4,MacIntel,61.34969325,,,,,,,,,,,,,,,,,,,,,,555.3379,555.5354,555.5355,556.0344,,,,,,,,,,,,,,0.9289,1,,,,,,,,,,,,,,m,,,,,,,,,,,,,,,,66,0,556.0351,556.9672,m,1,0.9289,,[],[],[],[],[],[],[],556.9673,558.9655,558.9656,558.9657,[],[],[],[],[],[],[],,,,558.9657,558.9658,0.95715121,0.569687967,0,0,0,,0,65,65,153,1,2,word,STOLEN,print,stolen_p.png,,,,
,,,,29644,001,2025-10-17_13h46.12.711,HW_LDT_1,2024.2.4,MacIntel,61.34969325,,,,,,,,,,,,,,,,,,,,,,558.9669,559.1656,559.1657,559.6653,,,,,,,,,,,,,,1.9117,0,,,,,,,,,,,,,,m,,,,,,,,,,,,,,,,67,0,559.6658,561.5799,z,0,1.9117,,[],[],[],[],[],[],[],561.58,563.5789,563.5789,563.5791,[],[],[],[],[],[],[],,,,563.5792,563.5793,0.95715121,0.569687967,0,0,0,,0,66,66,123,1,2,word,MODERATE,cursive,moderate_c.png,,,,
,,,,29644,001,2025-10-17_13h46.12.711,HW_LDT_1,2024.2.4,MacIntel,61.34969325,,,,,,,,,,,,,,,,,,,,,,563.5801,563.7786,563.7786,564.2785,,,,,,,,,,,,,,1.4572,1,,,,,,,,,,,,,,m,,,,,,,,,,,,,,,,68,0,564.2791,565.7447,m,1,1.4572,,[],[],[],[],[],[],[],565.7447,567.7436,567.7437,567.744,[],[],[],[],[],[],[],,,,567.7442,567.7445,0.95715121,0.569687967,0,0,0,,0,67,67,84,1,2,word,BELOVED,cursive,beloved_c.png,,,,
,,,,29644,001,2025-10-17_13h46.12.711,HW_LDT_1,2024.2.4,MacIntel,61.34969325,,,,,,,,,,,,,,,,,,,,,,567.746,567.9433,567.9433,568.4424,,,,,,,,,,,,,,1.1286,1,,,,,,,,,,,,,,z,,,,,,,,,,,,,,,,69,0,568.4431,569.5745,z,1,1.1286,,[],[],[],[],[],[],[],569.5746,571.5744,571.5744,571.5747,[],[],[],[],[],[],[],,,,571.5747,571.5748,0.95715121,0.569687967,0,0,0,,0,68,68,63,1,2,TL,orinigal,print,orinigal_p.png,,,,
,,,,29644,001,2025-10-17_13h46.12.711,HW_LDT_1,2024.2.4,MacIntel,61.34969325,,,,,,,,,,,,,,,,,,,,,,571.5761,571.7748,571.7748,572.2742,,,,,,,,,,,,,,1.8573,1,,,,,,,,,,,,,,z,,,,,,,,,,,,,,,,70,0,572.2747,574.1385,z,1,1.8573,,[],[],[],[],[],[],[],574.1385,576.1377,576.1377,576.138,[],[],[],[],[],[],[],,,,576.138,576.1381,0.95715121,0.569687967,0,0,0,,0,69,69,62,1,2,TL,opmital,cursive,opmital_c.png,,,,
,,,,29644,001,2025-10-17_13h46.12.711,HW_LDT_1,2024.2.4,MacIntel,61.34969325,,,,,,,,,,,,,,,,,,,,,,576.1395,576.3384,576.3386,576.8377,,,,,,,,,,,,,,1.0876,1,,,,,,,,,,,,,,z,,,,,,,,,,,,,,,,71,0,576.8385,577.9357,z,1,1.0876,,[],[],[],[],[],[],[],577.9358,579.936,579.9361,579.9362,[],[],[],[],[],[],[],,,,579.9363,579.9364,0.95715121,0.569687967,0,0,0,,0,70,70,14,1,2,RL,insibate,cursive,insibate_c.png,,,,
,,,,29644,001,2025-10-17_13h46.12.711,HW_LDT_1,2024.2.4,MacIntel,61.34969325,,,,,,,,,,,,,,,,,,,,,,579.9376,580.1357,580.1357,580.6349,,,,,,,,,,,,,,0.9773,1,,,,,,,,,,,,,,m,,,,,,,,,,,,,,,,72,0,580.6353,581.6176,m,1,0.9773,,[],[],[],[],[],[],[],581.6177,583.6153,583.6154,583.6155,[],[],[],[],[],[],[],,,,583.6155,583.6155,0.95715121,0.569687967,0,0,0,,0,71,71,129,1,2,word,PARENT,print,parent_p.png,,,,
,,,,29644,001,2025-10-17_13h46.12.711,HW_LDT_1,2024.2.4,MacIntel,61.34969325,,,,,,,,,,,,,,,,,,,,,,583.6162,583.815,583.815,584.3149,,,,,,,,,,,,,,1.1609,0,,,,,,,,,,,,,,z,,,,,,,,,,,,,,,,73,1,584.3154,585.4809,m,0,1.1609,,[],[],[],[],[],[],[],585.481,587.4798,587.48,590.0121,[],[],[],[],[],[],[],z,2.5269,,590.0121,590.0122,0.95715121,0.569687967,0,0,0,,0,72,72,69,1,2,TL,resufal,cursive,resufal_c.png,,,,
,,,,29644,001,2025-10-17_13h46.12.711,HW_LDT_1,2024.2.4,MacIntel,61.34969325,,,,,,,,,,,,,,,,,,,,,,590.013,590.2115,590.2115,590.7114,,,,,,,,,,,,,,15.4696,1,,,,,,,,,,,,,,z,,,,,,,,,,,,,,,,74,0,590.7119,606.1839,z,1,15.4696,,[],[],[],[],[],[],[],606.1839,608.1839,608.184,608.1843,[],[],[],[],[],[],[],,,,608.1843,608.1844,0.95715121,0.569687967,0,0,0,,0,73,73,48,1,2,TL,detabe,print,detabe_p.png,,,,
,,,,29644,001,2025-10-17_13h46.12.711,HW_LDT_1,2024.2.4,MacIntel,61.34969325,,,,,,,,,,,,,,,,,,,,,,608.1854,608.3831,608.3832,608.8826,,,,,,,,,,,,,,3.2453,1,,,,,,,,,,,,,,m,,,,,,,,,,,,,,,,75,1,608.8834,612.13,m,1,3.2453,,[],[],[],[],[],[],[],612.13,614.1291,614.1291,616.3114,[],[],[],[],[],[],[],m,2.1749,,616.3114,616.3115,0.95715121,0.569687967,0,0,0,,0,74,74,116,1,2,word,MARGINAL,cursive,marginal_c.png,,,,
,,,,29644,001,2025-10-17_13h46.12.711,HW_LDT_1,2024.2.4,MacIntel,61.34969325,,,,,,,,,,,,,,,,,,,,,,616.313,616.5116,616.5117,617.01,,,,,,,,,,,,,,1.7763,1,,,,,,,,,,,,,,m,,,,,,,,,,,,,,,,76,0,617.0103,618.7923,m,1,1.7763,,[],[],[],[],[],[],[],618.7924,620.7921,620.7921,620.7925,[],[],[],[],[],[],[],,,,620.7925,620.7927,0.95715121,0.569687967,0,0,0,,0,75,75,102,1,2,word,DENSITY,print,density_p.png,,,,
,,,,29644,001,2025-10-17_13h46.12.711,HW_LDT_1,2024.2.4,MacIntel,61.34969325,,,,,,,,,,,,,,,,,,,,,,620.7944,620.9914,620.9915,621.4911,,,,,,,,,,,,,,2.475,1,,,,,,,,,,,,,,m,,,,,,,,,,,,,,,,77,1,621.4917,623.9723,m,1,2.475,,[],[],[],[],[],[],[],623.9723,625.9723,625.9724,629.1026,[],[],[],[],[],[],[],z,3.1296,,629.1027,629.1028,0.95715121,0.569687967,0,0,0,,0,76,76,94,1,2,word,CLINICAL,cursive,clinical_c.png,,,,
,,,,29644,001,2025-10-17_13h46.12.711,HW_LDT_1,2024.2.4,MacIntel,61.34969325,,,,,,,,,,,,,,,,,,,,,,629.1038,629.3031,629.3032,629.8024,,,,,,,,,,,,,,1.7219,1,,,,,,,,,,,,,,m,,,,,,,,,,,,,,,,78,1,629.8029,631.5337,m,1,1.7219,,[],[],[],[],[],[],[],631.5338,633.5332,633.5333,634.6818,[],[],[],[],[],[],[],z,1.1433,,634.6819,634.6819,0.95715121,0.569687967,0,0,0,,0,77,77,155,1,2,word,STRATEGY,cursive,strategy_c.png,,,,
,,,,29644,001,2025-10-17_13h46.12.711,HW_LDT_1,2024.2.4,MacIntel,61.34969325,,,,,,,,,,,,,,,,,,,,,,634.6831,634.8819,634.882,635.3819,,,,,,,,,,,,,,1.2074,1,,,,,,,,,,,,,,m,,,,,,,,,,,,,,,,79,0,635.3825,636.5982,m,1,1.2074,,[],[],[],[],[],[],[],636.5983,638.5964,638.5965,638.5967,[],[],[],[],[],[],[],,,,638.5968,638.5969,0.95715121,0.569687967,0,0,0,,0,78,78,100,1,2,word,DECADE,print,decade_p.png,,,,
,,,,29644,001,2025-10-17_13h46.12.711,HW_LDT_1,2024.2.4,MacIntel,61.34969325,,,,,,,,,,,,,,,,,,,,,,638.5985,638.7959,638.7959,639.2966,,,,,,,,,,,,,,1.2734,1,,,,,,,,,,,,,,m,,,,,,,,,,,,,,,,80,0,639.2972,640.578,m,1,1.2734,,[],[],[],[],[],[],[],640.578,642.5775,642.5776,642.5777,[],[],[],[],[],[],[],,,,642.5778,646.7409,0.74716723,0.19141267,0,0,0,space,0,79,79,148,1,2,word,SALINE,cursive,saline_c.png,4.1434,,,
,,,,29644,001,2025-10-17_13h46.12.711,HW_LDT_1,2024.2.4,MacIntel,61.34969325,,,,,,,,,,,,,,,,,,,,,,646.7418,646.9412,646.9412,647.4407,,,,,,,,,,,,,,0.9801,1,,,,,,,,,,,,,,m,,,,,,,,,,,,,,,,81,0,647.4413,648.423,m,1,0.9801,,[],[],[],[],[],[],[],648.423,650.4224,650.4225,650.4227,[],[],[],[],[],[],[],,,,650.4228,650.4229,0.74716723,0.19141267,0,0,0,,0,80,80,93,1,2,word,CEREMONY,print,ceremony_p.png,,,,
,,,,29644,001,2025-10-17_13h46.12.711,HW_LDT_1,2024.2.4,MacIntel,61.34969325,,,,,,,,,,,,,,,,,,,,,,650.4243,650.6224,650.6224,651.1219,,,,,,,,,,,,,,0.6716,1,,,,,,,,,,,,,,m,,,,,,,,,,,,,,,,82,0,651.1226,651.8033,m,1,0.6716,,[],[],[],[],[],[],[],651.8033,653.8035,653.8035,653.8036,[],[],[],[],[],[],[],,,,653.8037,653.8038,0.74716723,0.19141267,0,0,0,,0,81,81,127,1,2,word,ORIGINAL,print,original_p.png,,,,
,,,,29644,001,2025-10-17_13h46.12.711,HW_LDT_1,2024.2.4,MacIntel,61.34969325,,,,,,,,,,,,,,,,,,,,,,653.8049,654.0036,654.0037,654.5035,,,,,,,,,,,,,,1.6024,1,,,,,,,,,,,,,,z,,,,,,,,,,,,,,,,83,0,654.5041,656.1187,z,1,1.6024,,[],[],[],[],[],[],[],656.1188,658.1164,658.1165,658.1167,[],[],[],[],[],[],[],,,,658.1167,658.1169,0.74716723,0.19141267,0,0,0,,0,82,82,74,1,2,TL,rerite,cursive,rerite_c.png,,,,
,,,,29644,001,2025-10-17_13h46.12.711,HW_LDT_1,2024.2.4,MacIntel,61.34969325,,,,,,,,,,,,,,,,,,,,,,658.1183,658.316,658.3161,658.8161,,,,,,,,,,,,,,1.1259,1,,,,,,,,,,,,,,m,,,,,,,,,,,,,,,,84,0,658.8166,659.9489,m,1,1.1259,,[],[],[],[],[],[],[],659.949,661.9468,661.9468,661.9469,[],[],[],[],[],[],[],,,,661.9469,661.9469,0.74716723,0.19141267,0,0,0,,0,83,83,97,1,2,word,COVERAGE,cursive,coverage_c.png,,,,
,,,,29644,001,2025-10-17_13h46.12.711,HW_LDT_1,2024.2.4,MacIntel,61.34969325,,,,,,,,,,,,,,,,,,,,,,661.9477,662.1473,662.1473,662.6472,,,,,,,,,,,,,,1.0226,1,,,,,,,,,,,,,,z,,,,,,,,,,,,,,,,85,0,662.6476,663.6794,z,1,1.0226,,[],[],[],[],[],[],[],663.6794,665.6777,665.6777,665.678,[],[],[],[],[],[],[],,,,665.678,665.678,0.74716723,0.19141267,0,0,0,,0,84,84,26,1,2,RL,retupar,cursive,retupar_c.png,,,,
,,,,29644,001,2025-10-17_13h46.12.711,HW_LDT_1,2024.2.4,MacIntel,61.34969325,,,,,,,,,,,,,,,,,,,,,,665.6788,665.8785,665.8785,666.3783,,,,,,,,,,,,,,0.7573,1,,,,,,,,,,,,,,m,,,,,,,,,,,,,,,,86,0,666.3791,667.1435,m,1,0.7573,,[],[],[],[],[],[],[],667.1436,669.1425,669.1425,669.1427,[],[],[],[],[],[],[],,,,669.1427,669.1428,0.74716723,0.19141267,0,0,0,,0,85,85,159,1,2,word,VETERAN,print,veteran_p.png,,,,
,,,,29644,001,2025-10-17_13h46.12.711,HW_LDT_1,2024.2.4,MacIntel,61.34969325,,,,,,,,,,,,,,,,,,,,,,669.1439,669.3432,669.3432,669.842,,,,,,,,,,,,,,0.8479,1,,,,,,,,,,,,,,z,,,,,,,,,,,,,,,,87,0,669.8426,670.6915,z,1,0.8479,,[],[],[],[],[],[],[],670.6916,672.6901,672.6902,672.6904,[],[],[],[],[],[],[],,,,672.6904,672.6905,0.74716723,0.19141267,0,0,0,,0,86,86,57,1,2,TL,meromy,cursive,meromy_c.png,,,,
,,,,29644,001,2025-10-17_13h46.12.711,HW_LDT_1,2024.2.4,MacIntel,61.34969325,,,,,,,,,,,,,,,,,,,,,,672.6917,672.8909,672.8909,673.3905,,,,,,,,,,,,,,0.8238,1,,,,,,,,,,,,,,m,,,,,,,,,,,,,,,,88,1,673.3909,674.2226,m,1,0.8238,,[],[],[],[],[],[],[],674.2226,676.2217,676.2218,677.62,[],[],[],[],[],[],[],m,1.3939,,677.6201,677.6202,0.74716723,0.19141267,0,0,0,,0,87,87,130,1,2,word,POLICY,print,policy_p.png,,,,
,,,,29644,001,2025-10-17_13h46.12.711,HW_LDT_1,2024.2.4,MacIntel,61.34969325,,,,,,,,,,,,,,,,,,,,,,677.6213,677.8207,677.8207,678.3205,,,,,,,,,,,,,,1.3436,0,,,,,,,,,,,,,,m,,,,,,,,,,,,,,,,89,0,678.321,679.6684,z,0,1.3436,,[],[],[],[],[],[],[],679.6686,681.6685,681.6685,681.6688,[],[],[],[],[],[],[],,,,681.6688,681.669,0.74716723,0.19141267,0,0,0,,0,88,88,141,1,2,word,RELIGION,cursive,religion_c.png,,,,
,,,,29644,001,2025-10-17_13h46.12.711,HW_LDT_1,2024.2.4,MacIntel,61.34969325,,,,,,,,,,,,,,,,,,,,,,681.6706,681.8685,681.8685,682.3672,,,,,,,,,,,,,,1.5276,1,,,,,,,,,,,,,,z,,,,,,,,,,,,,,,,90,0,682.3677,683.8989,z,1,1.5276,,[],[],[],[],[],[],[],683.8989,685.8977,685.8977,685.8979,[],[],[],[],[],[],[],,,,685.8979,685.8979,0.74716723,0.19141267,0,0,0,,0,89,89,45,1,2,TL,carnidal,cursive,carnidal_c.png,,,,
,,,,29644,001,2025-10-17_13h46.12.711,HW_LDT_1,2024.2.4,MacIntel,61.34969325,,,,,,,,,,,,,,,,,,,,,,685.8986,686.098,686.0981,686.5982,,,,,,,,,,,,,,0.892,1,,,,,,,,,,,,,,m,,,,,,,,,,,,,,,,91,0,686.599,687.4973,m,1,0.892,,[],[],[],[],[],[],[],687.4974,689.4964,689.4964,689.4968,[],[],[],[],[],[],[],,,,689.4969,689.4971,0.74716723,0.19141267,0,0,0,,0,90,90,154,1,2,word,STORAGE,print,storage_p.png,,,,
,,,,29644,001,2025-10-17_13h46.12.711,HW_LDT_1,2024.2.4,MacIntel,61.34969325,,,,,,,,,,,,,,,,,,,,,,689.498,689.6964,689.6965,690.196,,,,,,,,,,,,,,1.4239,1,,,,,,,,,,,,,,z,,,,,,,,,,,,,,,,92,0,690.1966,691.6281,z,1,1.4239,,[],[],[],[],[],[],[],691.6281,693.6267,693.6267,693.6268,[],[],[],[],[],[],[],,,,693.6269,693.627,0.74716723,0.19141267,0,0,0,,0,91,91,53,1,2,TL,edivent,cursive,edivent_c.png,,,,
,,,,29644,001,2025-10-17_13h46.12.711,HW_LDT_1,2024.2.4,MacIntel,61.34969325,,,,,,,,,,,,,,,,,,,,,,693.6279,693.8261,693.8262,694.3259,,,,,,,,,,,,,,0.7075,1,,,,,,,,,,,,,,z,,,,,,,,,,,,,,,,93,0,694.3263,695.0416,z,1,0.7075,,[],[],[],[],[],[],[],695.0417,697.0402,697.0403,697.0403,[],[],[],[],[],[],[],,,,697.0403,697.0405,0.74716723,0.19141267,0,0,0,,0,92,92,11,1,2,RL,formuke,print,formuke_p.png,,,,
,,,,29644,001,2025-10-17_13h46.12.711,HW_LDT_1,2024.2.4,MacIntel,61.34969325,,,,,,,,,,,,,,,,,,,,,,697.0413,697.2402,697.2403,697.7404,,,,,,,,,,,,,,1.2072,1,,,,,,,,,,,,,,z,,,,,,,,,,,,,,,,94,0,697.7408,698.9557,z,1,1.2072,,[],[],[],[],[],[],[],698.9558,700.955,700.9551,700.9553,[],[],[],[],[],[],[],,,,700.9553,700.9553,0.74716723,0.19141267,0,0,0,,0,93,93,41,1,2,TL,befenit,cursive,befenit_c.png,,,,
,,,,29644,001,2025-10-17_13h46.12.711,HW_LDT_1,2024.2.4,MacIntel,61.34969325,,,,,,,,,,,,,,,,,,,,,,700.9564,701.1548,701.1548,701.6537,,,,,,,,,,,,,,0.6929,0,,,,,,,,,,,,,,m,,,,,,,,,,,,,,,,95,0,701.654,702.3534,z,0,0.6929,,[],[],[],[],[],[],[],702.3534,704.352,704.3521,704.3522,[],[],[],[],[],[],[],,,,704.3522,704.3523,0.74716723,0.19141267,0,0,0,,0,94,94,145,1,2,word,RESUME,cursive,resume_c.png,,,,
,,,,29644,001,2025-10-17_13h46.12.711,HW_LDT_1,2024.2.4,MacIntel,61.34969325,,,,,,,,,,,,,,,,,,,,,,704.3533,704.5522,704.5523,705.0521,,,,,,,,,,,,,,0.6746,1,,,,,,,,,,,,,,m,,,,,,,,,,,,,,,,96,0,705.0526,705.735,m,1,0.6746,,[],[],[],[],[],[],[],705.735,707.7334,707.7335,707.7336,[],[],[],[],[],[],[],,,,707.7337,707.7338,0.74716723,0.19141267,0,0,0,,0,95,95,140,1,2,word,RELATIVE,print,relative_p.png,,,,
,,,,29644,001,2025-10-17_13h46.12.711,HW_LDT_1,2024.2.4,MacIntel,61.34969325,,,,,,,,,,,,,,,,,,,,,,707.735,707.9343,707.9343,708.4331,,,,,,,,,,,,,,0.8086,0,,,,,,,,,,,,,,m,,,,,,,,,,,,,,,,97,1,708.4336,709.249,z,0,0.8086,,[],[],[],[],[],[],[],709.2491,711.2488,711.2488,712.3304,[],[],[],[],[],[],[],z,1.0811,,712.3305,712.3305,0.74716723,0.19141267,0,0,0,,0,96,96,109,1,2,word,GRATEFUL,cursive,grateful_c.png,,,,
,,,,29644,001,2025-10-17_13h46.12.711,HW_LDT_1,2024.2.4,MacIntel,61.34969325,,,,,,,,,,,,,,,,,,,,,,712.3313,712.5297,712.5297,713.0306,,,,,,,,,,,,,,1.008,1,,,,,,,,,,,,,,m,,,,,,,,,,,,,,,,98,0,713.0314,714.0458,m,1,1.008,,[],[],[],[],[],[],[],714.0458,716.0444,716.0445,716.0446,[],[],[],[],[],[],[],,,,716.0446,716.0447,0.74716723,0.19141267,0,0,0,,0,97,97,81,1,2,word,ADVISORY,print,advisory_p.png,,,,
,,,,29644,001,2025-10-17_13h46.12.711,HW_LDT_1,2024.2.4,MacIntel,61.34969325,,,,,,,,,,,,,,,,,,,,,,716.0459,716.2448,716.2448,716.7441,,,,,,,,,,,,,,0.5651,1,,,,,,,,,,,,,,m,,,,,,,,,,,,,,,,99,0,716.7444,717.3101,m,1,0.5651,,[],[],[],[],[],[],[],717.3101,719.3092,719.3092,719.3095,[],[],[],[],[],[],[],,,,719.3095,719.3097,0.74716723,0.19141267,0,0,0,,0,98,98,122,1,2,word,MOBILE,print,mobile_p.png,,,,
,,,,29644,001,2025-10-17_13h46.12.711,HW_LDT_1,2024.2.4,MacIntel,61.34969325,,,,,,,,,,,,,,,,,,,,,,719.3111,719.5084,719.5085,720.0094,,,,,,,,,,,,,,0.8767,0,,,,,,,,,,,,,,m,,,,,,,,,,,,,,,,100,0,720.0098,720.892,z,0,0.8767,,[],[],[],[],[],[],[],720.8921,722.8908,722.8909,722.8912,[],[],[],[],[],[],[],,,,722.8912,722.8913,0.74716723,0.19141267,0,0,0,,0,99,99,111,1,2,word,INDICATE,cursive,indicate_c.png,,,,
,,,,29644,001,2025-10-17_13h46.12.711,HW_LDT_1,2024.2.4,MacIntel,61.34969325,,,,,,,,,,,,,,,,,,,,,,722.8931,723.0905,723.0906,723.5897,,,,,,,,,,,,,,5.5064,1,,,,,,,,,,,,,,m,,,,,,,,,,,,,,,,101,0,723.59,729.1027,m,1,5.5064,,[],[],[],[],[],[],[],729.1027,731.1017,731.1017,731.1018,[],[],[],[],[],[],[],,,,731.1018,731.1019,0.74716723,0.19141267,0,0,0,,0,100,100,106,1,2,word,ELABORATE,cursive,elaborate_c.png,,,,
,,,,29644,001,2025-10-17_13h46.12.711,HW_LDT_1,2024.2.4,MacIntel,61.34969325,,,,,,,,,,,,,,,,,,,,,,731.1028,731.3007,731.3007,731.802,,,,,,,,,,,,,,0.7081,1,,,,,,,,,,,,,,z,,,,,,,,,,,,,,,,102,0,731.8027,732.5169,z,1,0.7081,,[],[],[],[],[],[],[],732.5169,734.5164,734.5164,734.5166,[],[],[],[],[],[],[],,,,734.5166,734.5167,0.74716723,0.19141267,0,0,0,,0,101,101,32,1,2,RL,speniven,print,speniven_p.png,,,,
,,,,29644,001,2025-10-17_13h46.12.711,HW_LDT_1,2024.2.4,MacIntel,61.34969325,,,,,,,,,,,,,,,,,,,,,,734.5176,734.7162,734.7163,735.2153,,,,,,,,,,,,,,1.1897,1,,,,,,,,,,,,,,z,,,,,,,,,,,,,,,,103,0,735.2157,736.4143,z,1,1.1897,,[],[],[],[],[],[],[],736.4144,738.4131,738.4131,738.4133,[],[],[],[],[],[],[],,,,738.4133,738.4135,0.74716723,0.19141267,0,0,0,,0,102,102,12,1,2,RL,gralekul,cursive,gralekul_c.png,,,,
,,,,29644,001,2025-10-17_13h46.12.711,HW_LDT_1,2024.2.4,MacIntel,61.34969325,,,,,,,,,,,,,,,,,,,,,,738.4149,738.6135,738.6136,739.1133,,,,,,,,,,,,,,1.0247,1,,,,,,,,,,,,,,m,,,,,,,,,,,,,,,,104,0,739.1142,740.1451,m,1,1.0247,,[],[],[],[],[],[],[],740.1451,742.1445,742.1445,742.1447,[],[],[],[],[],[],[],,,,742.1447,742.1449,0.74716723,0.19141267,0,0,0,,0,103,103,119,1,2,word,MEMORY,cursive,memory_c.png,,,,
,,,,29644,001,2025-10-17_13h46.12.711,HW_LDT_1,2024.2.4,MacIntel,61.34969325,,,,,,,,,,,,,,,,,,,,,,742.1463,742.3437,742.3437,742.8443,,,,,,,,,,,,,,0.9707,1,,,,,,,,,,,,,,z,,,,,,,,,,,,,,,,105,0,742.8449,743.8259,z,1,0.9707,,[],[],[],[],[],[],[],743.8259,745.8245,745.8246,745.8247,[],[],[],[],[],[],[],,,,745.8247,745.8248,0.74716723,0.19141267,0,0,0,,0,104,104,39,1,2,TL,aminal,print,aminal_p.png,,,,
,,,,29644,001,2025-10-17_13h46.12.711,HW_LDT_1,2024.2.4,MacIntel,61.34969325,,,,,,,,,,,,,,,,,,,,,,745.8257,746.0256,746.0256,746.5247,,,,,,,,,,,,,,0.8883,0,,,,,,,,,,,,,,m,,,,,,,,,,,,,,,,106,0,746.5251,747.4239,z,0,0.8883,,[],[],[],[],[],[],[],747.4239,749.4233,749.4233,749.4234,[],[],[],[],[],[],[],,,,749.4234,749.4235,0.74716723,0.19141267,0,0,0,,0,105,105,125,1,2,word,OPERATOR,cursive,operator_c.png,,,,
,,,,29644,001,2025-10-17_13h46.12.711,HW_LDT_1,2024.2.4,MacIntel,61.34969325,,,,,,,,,,,,,,,,,,,,,,749.4245,749.6232,749.6233,750.1228,,,,,,,,,,,,,,0.8892,1,,,,,,,,,,,,,,m,,,,,,,,,,,,,,,,107,0,750.1234,751.0214,m,1,0.8892,,[],[],[],[],[],[],[],751.0216,753.0201,753.0201,753.0203,[],[],[],[],[],[],[],,,,753.0204,753.0206,0.74716723,0.19141267,0,0,0,,0,106,106,143,1,2,word,REMOVAL,print,removal_p.png,,,,
,,,,29644,001,2025-10-17_13h46.12.711,HW_LDT_1,2024.2.4,MacIntel,61.34969325,,,,,,,,,,,,,,,,,,,,,,753.0217,753.2196,753.2197,753.7202,,,,,,,,,,,,,,0.8416,1,,,,,,,,,,,,,,z,,,,,,,,,,,,,,,,108,0,753.7208,754.5688,z,1,0.8416,,[],[],[],[],[],[],[],754.5688,756.568,756.5681,756.5683,[],[],[],[],[],[],[],,,,756.5685,756.5686,0.74716723,0.19141267,0,0,0,,0,107,107,46,1,2,TL,codemy,cursive,codemy_c.png,,,,
,,,,29644,001,2025-10-17_13h46.12.711,HW_LDT_1,2024.2.4,MacIntel,61.34969325,,,,,,,,,,,,,,,,,,,,,,756.5703,756.7683,756.7684,757.2681,,,,,,,,,,,,,,0.6267,1,,,,,,,,,,,,,,z,,,,,,,,,,,,,,,,109,0,757.2687,757.9006,z,1,0.6267,,[],[],[],[],[],[],[],757.9007,759.8996,759.8997,759.8999,[],[],[],[],[],[],[],,,,759.9,759.9001,0.74716723,0.19141267,0,0,0,,0,108,108,71,1,2,TL,retome,cursive,retome_c.png,,,,
,,,,29644,001,2025-10-17_13h46.12.711,HW_LDT_1,2024.2.4,MacIntel,61.34969325,,,,,,,,,,,,,,,,,,,,,,759.9016,760.0988,760.0988,760.5995,,,,,,,,,,,,,,1.343,1,,,,,,,,,,,,,,m,,,,,,,,,,,,,,,,110,0,760.6002,761.9472,m,1,1.343,,[],[],[],[],[],[],[],761.9472,763.9464,763.9465,763.9467,[],[],[],[],[],[],[],,,,763.9468,763.9469,0.74716723,0.19141267,0,0,0,,0,109,109,80,1,2,word,ACADEMY,cursive,academy_c.png,,,,
,,,,29644,001,2025-10-17_13h46.12.711,HW_LDT_1,2024.2.4,MacIntel,61.34969325,,,,,,,,,,,,,,,,,,,,,,763.9482,764.1459,764.146,764.6458,,,,,,,,,,,,,,0.8589,1,,,,,,,,,,,,,,m,,,,,,,,,,,,,,,,111,0,764.6464,765.5116,m,1,0.8589,,[],[],[],[],[],[],[],765.5116,767.5117,767.5118,767.512,[],[],[],[],[],[],[],,,,767.512,767.5121,0.74716723,0.19141267,0,0,0,,0,110,110,118,1,2,word,MEDICINE,print,medicine_p.png,,,,
,,,,29644,001,2025-10-17_13h46.12.711,HW_LDT_1,2024.2.4,MacIntel,61.34969325,,,,,,,,,,,,,,,,,,,,,,767.5137,767.7102,767.7103,768.211,,,,,,,,,,,,,,0.8587,1,,,,,,,,,,,,,,m,,,,,,,,,,,,,,,,112,0,768.2116,769.0758,m,1,0.8587,,[],[],[],[],[],[],[],769.0759,771.0744,771.0744,771.0746,[],[],[],[],[],[],[],,,,771.0746,771.0747,0.74716723,0.19141267,0,0,0,,0,111,111,128,1,2,word,PACIFIC,print,pacific_p.png,,,,
,,,,29644,001,2025-10-17_13h46.12.711,HW_LDT_1,2024.2.4,MacIntel,61.34969325,,,,,,,,,,,,,,,,,,,,,,771.0759,771.2753,771.2753,771.7754,,,,,,,,,,,,,,0.7098,1,,,,,,,,,,,,,,z,,,,,,,,,,,,,,,,113,0,771.7761,772.4914,z,1,0.7098,,[],[],[],[],[],[],[],772.4914,774.4896,774.4896,774.49,[],[],[],[],[],[],[],,,,774.49,774.4901,0.74716723,0.19141267,0,0,0,,0,112,112,77,1,2,TL,sloten,print,sloten_p.png,,,,
,,,,29644,001,2025-10-17_13h46.12.711,HW_LDT_1,2024.2.4,MacIntel,61.34969325,,,,,,,,,,,,,,,,,,,,,,774.4912,774.6888,774.6888,775.189,,,,,,,,,,,,,,0.6903,1,,,,,,,,,,,,,,z,,,,,,,,,,,,,,,,114,0,775.1896,775.8884,z,1,0.6903,,[],[],[],[],[],[],[],775.8885,777.8879,777.8879,777.888,[],[],[],[],[],[],[],,,,777.8881,777.8881,0.74716723,0.19141267,0,0,0,,0,113,113,40,1,2,TL,bevoled,cursive,bevoled_c.png,,,,
,,,,29644,001,2025-10-17_13h46.12.711,HW_LDT_1,2024.2.4,MacIntel,61.34969325,,,,,,,,,,,,,,,,,,,,,,777.8896,778.0871,778.0872,778.5865,,,,,,,,,,,,,,0.6092,1,,,,,,,,,,,,,,z,,,,,,,,,,,,,,,,115,0,778.587,779.2032,z,1,0.6092,,[],[],[],[],[],[],[],779.2033,781.202,781.2021,781.2023,[],[],[],[],[],[],[],,,,781.2023,781.2024,0.74716723,0.19141267,0,0,0,,0,114,114,44,1,2,TL,catipal,cursive,catipal_c.png,,,,
,,,,29644,001,2025-10-17_13h46.12.711,HW_LDT_1,2024.2.4,MacIntel,61.34969325,,,,,,,,,,,,,,,,,,,,,,781.2041,781.4019,781.402,781.9016,,,,,,,,,,,,,,0.8265,1,,,,,,,,,,,,,,z,,,,,,,,,,,,,,,,116,0,781.9022,782.7344,z,1,0.8265,,[],[],[],[],[],[],[],782.7345,784.7335,784.7336,784.7337,[],[],[],[],[],[],[],,,,784.7338,784.734,0.74716723,0.19141267,0,0,0,,0,115,115,36,1,2,RL,vecelan,print,vecelan_p.png,,,,
,,,,29644,001,2025-10-17_13h46.12.711,HW_LDT_1,2024.2.4,MacIntel,61.34969325,,,,,,,,,,,,,,,,,,,,,,784.7364,784.9326,784.9327,785.4321,,,,,,,,,,,,,,0.6908,1,,,,,,,,,,,,,,z,,,,,,,,,,,,,,,,117,0,785.4326,786.1327,z,1,0.6908,,[],[],[],[],[],[],[],786.1329,788.1305,788.1305,788.1307,[],[],[],[],[],[],[],,,,788.1309,788.1309,0.74716723,0.19141267,0,0,0,,0,116,116,72,1,2,TL,revomal,print,revomal_p.png,,,,
,,,,29644,001,2025-10-17_13h46.12.711,HW_LDT_1,2024.2.4,MacIntel,61.34969325,,,,,,,,,,,,,,,,,,,,,,788.1323,788.3303,788.3304,788.8306,,,,,,,,,,,,,,2.7358,1,,,,,,,,,,,,,,m,,,,,,,,,,,,,,,,118,0,788.8313,791.5774,m,1,2.7358,,[],[],[],[],[],[],[],791.5774,793.5766,793.5767,793.5769,[],[],[],[],[],[],[],,,,793.5769,793.577,0.74716723,0.19141267,0,0,0,,0,117,117,90,1,2,word,CAPITAL,cursive,capital_c.png,,,,
,,,,29644,001,2025-10-17_13h46.12.711,HW_LDT_1,2024.2.4,MacIntel,61.34969325,,,,,,,,,,,,,,,,,,,,,,793.5783,793.7761,793.7762,794.2768,,,,,,,,,,,,,,0.7708,1,,,,,,,,,,,,,,z,,,,,,,,,,,,,,,,119,1,794.2771,795.0585,z,1,0.7708,,[],[],[],[],[],[],[],795.0586,797.0581,797.0581,799.0725,[],[],[],[],[],[],[],z,2.0083,,799.0726,799.0726,0.74716723,0.19141267,0,0,0,,0,118,118,64,1,2,TL,paficic,print,paficic_p.png,,,,
,,,,29644,001,2025-10-17_13h46.12.711,HW_LDT_1,2024.2.4,MacIntel,61.34969325,,,,,,,,,,,,,,,,,,,,,,799.0735,799.2727,799.2728,799.7731,,,,,,,,,,,,,,2.0033,1,,,,,,,,,,,,,,m,,,,,,,,,,,,,,,,120,0,799.7737,801.7873,m,1,2.0033,,[],[],[],[],[],[],[],801.7873,803.7864,803.7864,803.7867,[],[],[],[],[],[],[],,,,803.7867,803.7868,0.74716723,0.19141267,0,0,0,,0,119,119,146,1,2,word,RETIRE,cursive,retire_c.png,,,,
,,,,29644,001,2025-10-17_13h46.12.711,HW_LDT_1,2024.2.4,MacIntel,61.34969325,,,,,,,,,,,,,,,,,,,,,,803.7881,803.9857,803.9857,804.486,,,,,,,,,,,,,,0.8791,1,,,,,,,,,,,,,,m,,,,,,,,,,,,,,,,121,1,804.4865,805.3693,m,1,0.8791,,[],[],[],[],[],[],[],805.3693,807.3672,807.3673,808.2839,[],[],[],[],[],[],[],m,0.9111,,808.2841,808.2841,0.74716723,0.19141267,0,0,0,,0,120,120,114,1,2,word,LOCATE,print,locate_p.png,,,,
,,,,29644,001,2025-10-17_13h46.12.711,HW_LDT_1,2024.2.4,MacIntel,61.34969325,,,,,,,,,,,,,,,,,,,,,,808.285,808.4842,808.4842,808.9834,,,,,,,,,,,,,,1.6712,1,,,,,,,,,,,,,,m,,,,,,,,,,,,,,,,122,0,808.9839,810.6659,m,1,1.6712,,[],[],[],[],[],[],[],810.666,812.6648,812.6649,812.6652,[],[],[],[],[],[],[],,,,812.6653,812.6653,0.74716723,0.19141267,0,0,0,,0,121,121,142,1,2,word,REMOTE,cursive,remote_c.png,,,,
,,,,29644,001,2025-10-17_13h46.12.711,HW_LDT_1,2024.2.4,MacIntel,61.34969325,,,,,,,,,,,,,,,,,,,,,,812.6668,812.8648,812.8648,813.3645,,,,,,,,,,,,,,1.4579,0,,,,,,,,,,,,,,z,,,,,,,,,,,,,,,,123,0,813.3651,814.8287,m,0,1.4579,,[],[],[],[],[],[],[],814.8287,816.8289,816.829,816.8292,[],[],[],[],[],[],[],,,,816.8292,816.8294,0.74716723,0.19141267,0,0,0,,0,122,122,47,1,2,TL,crinimal,cursive,crinimal_c.png,,,,
,,,,29644,001,2025-10-17_13h46.12.711,HW_LDT_1,2024.2.4,MacIntel,61.34969325,,,,,,,,,,,,,,,,,,,,,,816.8307,817.0273,817.0273,817.5273,,,,,,,,,,,,,,1.629,1,,,,,,,,,,,,,,z,,,,,,,,,,,,,,,,124,0,817.528,819.1595,z,1,1.629,,[],[],[],[],[],[],[],819.1596,821.1593,821.1593,821.1596,[],[],[],[],[],[],[],,,,821.1598,821.16,0.74716723,0.19141267,0,0,0,,0,123,123,66,1,2,TL,prodive,cursive,prodive_c.png,,,,
,,,,29644,001,2025-10-17_13h46.12.711,HW_LDT_1,2024.2.4,MacIntel,61.34969325,,,,,,,,,,,,,,,,,,,,,,821.1614,821.3588,821.3588,821.8579,,,,,,,,,,,,,,1.5218,1,,,,,,,,,,,,,,z,,,,,,,,,,,,,,,,125,0,821.8584,823.3905,z,1,1.5218,,[],[],[],[],[],[],[],823.3905,825.3894,825.3895,825.3897,[],[],[],[],[],[],[],,,,825.3898,825.3899,0.74716723,0.19141267,0,0,0,,0,124,124,18,1,2,RL,mesibine,print,mesibine_p.png,,,,
,,,,29644,001,2025-10-17_13h46.12.711,HW_LDT_1,2024.2.4,MacIntel,61.34969325,,,,,,,,,,,,,,,,,,,,,,825.3913,825.5897,825.5897,826.0889,,,,,,,,,,,,,,0.7785,1,,,,,,,,,,,,,,z,,,,,,,,,,,,,,,,126,0,826.0895,826.8709,z,1,0.7785,,[],[],[],[],[],[],[],826.8709,828.8703,828.8703,828.8704,[],[],[],[],[],[],[],,,,828.8705,828.8706,0.74716723,0.19141267,0,0,0,,0,125,125,50,1,2,TL,donimant,print,donimant_p.png,,,,
,,,,29644,001,2025-10-17_13h46.12.711,HW_LDT_1,2024.2.4,MacIntel,61.34969325,,,,,,,,,,,,,,,,,,,,,,828.8719,829.0705,829.0705,829.5704,,,,,,,,,,,,,,0.7632,1,,,,,,,,,,,,,,m,,,,,,,,,,,,,,,,127,0,829.571,830.3356,m,1,0.7632,,[],[],[],[],[],[],[],830.3357,832.3353,832.3353,832.3357,[],[],[],[],[],[],[],,,,832.3357,832.3358,0.74716723,0.19141267,0,0,0,,0,126,126,131,1,2,word,POPULAR,cursive,popular_c.png,,,,
,,,,29644,001,2025-10-17_13h46.12.711,HW_LDT_1,2024.2.4,MacIntel,61.34969325,,,,,,,,,,,,,,,,,,,,,,832.3372,832.5345,832.5345,833.0347,,,,,,,,,,,,,,1.1207,1,,,,,,,,,,,,,,z,,,,,,,,,,,,,,,,128,0,833.0352,834.1673,z,1,1.1207,,[],[],[],[],[],[],[],834.1673,836.1646,836.1646,836.1647,[],[],[],[],[],[],[],,,,836.1647,836.1647,0.74716723,0.19141267,0,0,0,,0,127,127,56,1,2,TL,marnigal,cursive,marnigal_c.png,,,,
,,,,29644,001,2025-10-17_13h46.12.711,HW_LDT_1,2024.2.4,MacIntel,61.34969325,,,,,,,,,,,,,,,,,,,,,,836.1655,836.3652,836.3652,836.8647,,,,,,,,,,,,,,0.792,0,,,,,,,,,,,,,,m,,,,,,,,,,,,,,,,129,0,836.865,837.6635,z,0,0.792,,[],[],[],[],[],[],[],837.6635,839.6622,839.6622,839.6623,[],[],[],[],[],[],[],,,,839.6623,839.6623,0.74716723,0.19141267,0,0,0,,0,128,128,113,1,2,word,LITERAL,cursive,literal_c.png,,,,
,,,,29644,001,2025-10-17_13h46.12.711,HW_LDT_1,2024.2.4,MacIntel,61.34969325,,,,,,,,,,,,,,,,,,,,,,839.6629,839.8631,839.8632,840.3625,,,,,,,,,,,,,,0.6575,0,,,,,,,,,,,,,,m,,,,,,,,,,,,,,,,130,0,840.3633,841.0283,z,0,0.6575,,[],[],[],[],[],[],[],841.0284,843.0267,843.0267,843.0268,[],[],[],[],[],[],[],,,,843.0269,843.0269,0.74716723,0.19141267,0,0,0,,0,129,129,85,1,2,word,BENEFIT,cursive,benefit_c.png,,,,
,,,,29644,001,2025-10-17_13h46.12.711,HW_LDT_1,2024.2.4,MacIntel,61.34969325,,,,,,,,,,,,,,,,,,,,,,843.0275,843.2268,843.2268,843.7268,,,,,,,,,,,,,,0.7951,1,,,,,,,,,,,,,,m,,,,,,,,,,,,,,,,131,0,843.7271,844.5257,m,1,0.7951,,[],[],[],[],[],[],[],844.5257,846.5254,846.5254,846.5256,[],[],[],[],[],[],[],,,,846.5256,846.5257,0.74716723,0.19141267,0,0,0,,0,130,130,152,1,2,word,SPECIMEN,print,specimen_p.png,,,,
,,,,29644,001,2025-10-17_13h46.12.711,HW_LDT_1,2024.2.4,MacIntel,61.34969325,,,,,,,,,,,,,,,,,,,,,,846.5269,846.7254,846.7254,847.2252,,,,,,,,,,,,,,0.8432,0,,,,,,,,,,,,,,m,,,,,,,,,,,,,,,,132,0,847.2258,848.0735,z,0,0.8432,,[],[],[],[],[],[],[],848.0736,850.0733,850.0734,850.074,[],[],[],[],[],[],[],,,,850.074,850.0744,0.74716723,0.19141267,0,0,0,,0,131,131,105,1,2,word,EDITOR,cursive,editor_c.png,,,,
,,,,29644,001,2025-10-17_13h46.12.711,HW_LDT_1,2024.2.4,MacIntel,61.34969325,,,,,,,,,,,,,,,,,,,,,,850.0763,850.2733,850.2733,850.7721,,,,,,,,,,,,,,0.5779,1,,,,,,,,,,,,,,m,,,,,,,,,,,,,,,,133,0,850.7727,851.3546,m,1,0.5779,,[],[],[],[],[],[],[],851.3547,853.354,853.3541,853.3543,[],[],[],[],[],[],[],,,,853.3543,853.3545,0.74716723,0.19141267,0,0,0,,0,132,132,157,1,2,word,VALIDITY,print,validity_p.png,,,,
,,,,29644,001,2025-10-17_13h46.12.711,HW_LDT_1,2024.2.4,MacIntel,61.34969325,,,,,,,,,,,,,,,,,,,,,,853.3562,853.5541,853.5542,854.0538,,,,,,,,,,,,,,0.7429,1,,,,,,,,,,,,,,m,,,,,,,,,,,,,,,,134,0,854.0544,854.8023,m,1,0.7429,,[],[],[],[],[],[],[],854.8023,856.802,856.8021,856.8022,[],[],[],[],[],[],[],,,,856.8023,856.8024,0.74716723,0.19141267,0,0,0,,0,133,133,150,1,2,word,SENTIMENT,cursive,sentiment_c.png,,,,
,,,,29644,001,2025-10-17_13h46.12.711,HW_LDT_1,2024.2.4,MacIntel,61.34969325,,,,,,,,,,,,,,,,,,,,,,856.8033,857.0006,857.0006,857.5014,,,,,,,,,,,,,,0.7055,1,,,,,,,,,,,,,,z,,,,,,,,,,,,,,,,135,0,857.5018,858.2173,z,1,0.7055,,[],[],[],[],[],[],[],858.2173,860.2157,860.2158,860.216,[],[],[],[],[],[],[],,,,860.216,860.2161,0.74716723,0.19141267,0,0,0,,0,134,134,35,1,2,RL,vesofity,print,vesofity_p.png,,,,
,,,,29644,001,2025-10-17_13h46.12.711,HW_LDT_1,2024.2.4,MacIntel,61.34969325,,,,,,,,,,,,,,,,,,,,,,860.2175,860.4165,860.4165,860.9159,,,,,,,,,,,,,,2.2058,0,,,,,,,,,,,,,,m,,,,,,,,,,,,,,,,136,0,860.9165,863.1303,z,0,2.2058,,[],[],[],[],[],[],[],863.1303,865.1295,865.1295,865.1298,[],[],[],[],[],[],[],,,,865.1298,865.1299,0.74716723,0.19141267,0,0,0,,0,135,135,120,1,2,word,MILITARY,cursive,military_c.png,,,,
,,,,29644,001,2025-10-17_13h46.12.711,HW_LDT_1,2024.2.4,MacIntel,61.34969325,,,,,,,,,,,,,,,,,,,,,,865.1312,865.3299,865.33,865.8292,,,,,,,,,,,,,,0.8595,0,,,,,,,,,,,,,,z,,,,,,,,,,,,,,,,137,0,865.8301,866.6954,m,0,0.8595,,[],[],[],[],[],[],[],866.6955,868.6943,868.6944,868.6946,[],[],[],[],[],[],[],,,,868.6948,868.6949,0.74716723,0.19141267,0,0,0,,0,136,136,38,1,2,TL,atameur,cursive,atameur_c.png,,,,
,,,,29644,001,2025-10-17_13h46.12.711,HW_LDT_1,2024.2.4,MacIntel,61.34969325,,,,,,,,,,,,,,,,,,,,,,868.6965,868.8942,868.8943,869.3936,,,,,,,,,,,,,,4.1244,1,,,,,,,,,,,,,,m,,,,,,,,,,,,,,,,138,0,869.394,873.5237,m,1,4.1244,,[],[],[],[],[],[],[],873.5238,875.5226,875.5226,875.5228,[],[],[],[],[],[],[],,,,875.5229,875.523,0.74716723,0.19141267,0,0,0,,0,137,137,107,1,2,word,EVIDENT,cursive,evident_c.png,,,,
,,,,29644,001,2025-10-17_13h46.12.711,HW_LDT_1,2024.2.4,MacIntel,61.34969325,,,,,,,,,,,,,,,,,,,,,,875.5247,875.7224,875.7225,876.2225,,,,,,,,,,,,,,0.6915,1,,,,,,,,,,,,,,z,,,,,,,,,,,,,,,,139,1,876.2232,876.9208,z,1,0.6915,,[],[],[],[],[],[],[],876.9208,878.9204,878.9205,880.5853,[],[],[],[],[],[],[],m,1.6635,,880.5853,880.5854,0.74716723,0.19141267,0,0,0,,0,138,138,43,1,2,TL,carema,print,carema_p.png,,,,
,,,,29644,001,2025-10-17_13h46.12.711,HW_LDT_1,2024.2.4,MacIntel,61.34969325,,,,,,,,,,,,,,,,,,,,,,880.5863,880.7859,880.7859,881.2858,,,,,,,,,,,,,,10.5666,1,,,,,,,,,,,,,,z,,,,,,,,,,,,,,,,140,0,881.2865,891.8611,z,1,10.5666,,[],[],[],[],[],[],[],891.8611,893.8597,893.8598,893.8599,[],[],[],[],[],[],[],,,,893.8599,893.8599,0.892924812,0.606098802,0,0,0,,0,139,139,34,1,2,RL,trilude,cursive,trilude_c.png,,,,
,,,,29644,001,2025-10-17_13h46.12.711,HW_LDT_1,2024.2.4,MacIntel,61.34969325,,,,,,,,,,,,,,,,,,,,,,893.8606,894.0599,894.0599,894.5597,,,,,,,,,,,,,,1.1748,1,,,,,,,,,,,,,,z,,,,,,,,,,,,,,,,141,0,894.5601,895.7422,z,1,1.1748,,[],[],[],[],[],[],[],895.7423,897.741,897.7411,897.7412,[],[],[],[],[],[],[],,,,897.7412,897.7413,0.892924812,0.606098802,0,0,0,,0,140,140,27,1,2,RL,repifion,cursive,repifion_c.png,,,,
,,,,29644,001,2025-10-17_13h46.12.711,HW_LDT_1,2024.2.4,MacIntel,61.34969325,,,,,,,,,,,,,,,,,,,,,,897.7421,897.9409,897.941,898.4405,,,,,,,,,,,,,,0.6716,0,,,,,,,,,,,,,,m,,,,,,,,,,,,,,,,142,0,898.4409,899.1236,z,0,0.6716,,[],[],[],[],[],[],[],899.1236,901.1223,901.1223,901.1225,[],[],[],[],[],[],[],,,,901.1225,901.1226,0.892924812,0.606098802,0,0,0,,0,141,141,103,1,2,word,DISPUTE,cursive,dispute_c.png,,,,
,,,,29644,001,2025-10-17_13h46.12.711,HW_LDT_1,2024.2.4,MacIntel,61.34969325,,,,,,,,,,,,,,,,,,,,,,901.1238,901.3214,901.3215,901.8225,,,,,,,,,,,,,,0.6085,1,,,,,,,,,,,,,,z,,,,,,,,,,,,,,,,143,0,901.8231,902.4378,z,1,0.6085,,[],[],[],[],[],[],[],902.4378,904.437,904.437,904.4373,[],[],[],[],[],[],[],,,,904.4373,904.4374,0.892924812,0.606098802,0,0,0,,0,142,142,67,1,2,TL,quafily,cursive,quafily_c.png,,,,
,,,,29644,001,2025-10-17_13h46.12.711,HW_LDT_1,2024.2.4,MacIntel,61.34969325,,,,,,,,,,,,,,,,,,,,,,904.4388,904.637,904.6371,905.1363,,,,,,,,,,,,,,0.892,1,,,,,,,,,,,,,,m,,,,,,,,,,,,,,,,144,1,905.1367,906.0357,m,1,0.892,,[],[],[],[],[],[],[],906.0358,908.0341,908.0342,909.6336,[],[],[],[],[],[],[],z,1.5944,,909.6336,909.6337,0.892924812,0.606098802,0,0,0,,0,143,143,136,1,2,word,RADICAL,cursive,radical_c.png,,,,
,,,,29644,001,2025-10-17_13h46.12.711,HW_LDT_1,2024.2.4,MacIntel,61.34969325,,,,,,,,,,,,,,,,,,,,,,909.6347,909.8338,909.8339,910.3331,,,,,,,,,,,,,,1.5737,1,,,,,,,,,,,,,,z,,,,,,,,,,,,,,,,145,0,910.3338,911.9144,z,1,1.5737,,[],[],[],[],[],[],[],911.9145,913.9133,913.9133,913.9135,[],[],[],[],[],[],[],,,,913.9135,913.9135,0.892924812,0.606098802,0,0,0,,0,144,144,79,1,2,TL,vadility,print,vadility_p.png,,,,
,,,,29644,001,2025-10-17_13h46.12.711,HW_LDT_1,2024.2.4,MacIntel,61.34969325,,,,,,,,,,,,,,,,,,,,,,913.9143,914.1145,914.1146,914.6139,,,,,,,,,,,,,,0.9963,1,,,,,,,,,,,,,,z,,,,,,,,,,,,,,,,146,0,914.6147,915.6124,z,1,0.9963,,[],[],[],[],[],[],[],915.6125,917.6109,917.6109,917.611,[],[],[],[],[],[],[],,,,917.611,917.6111,0.892924812,0.606098802,0,0,0,,0,145,145,20,1,2,RL,onegator,cursive,onegator_c.png,,,,
,,,,29644,001,2025-10-17_13h46.12.711,HW_LDT_1,2024.2.4,MacIntel,61.34969325,,,,,,,,,,,,,,,,,,,,,,917.6118,917.8112,917.8112,918.3114,,,,,,,,,,,,,,0.7227,1,,,,,,,,,,,,,,z,,,,,,,,,,,,,,,,147,1,918.3118,919.0433,z,1,0.7227,,[],[],[],[],[],[],[],919.0433,921.0427,921.0428,923.6073,[],[],[],[],[],[],[],z,2.5576,,923.6074,923.6074,0.892924812,0.606098802,0,0,0,,0,146,146,73,1,2,TL,redisent,print,redisent_p.png,,,,
,,,,29644,001,2025-10-17_13h46.12.711,HW_LDT_1,2024.2.4,MacIntel,61.34969325,,,,,,,,,,,,,,,,,,,,,,923.6082,923.8073,923.8074,924.3073,,,,,,,,,,,,,,2.0857,1,,,,,,,,,,,,,,z,,,,,,,,,,,,,,,,148,1,924.3079,926.4052,z,1,2.0857,,[],[],[],[],[],[],[],926.4052,928.4041,928.4041,929.6361,[],[],[],[],[],[],[],m,1.2259,,929.6361,929.6362,0.892924812,0.606098802,0,0,0,,0,147,147,49,1,2,TL,dedace,print,dedace_p.png,,,,
,,,,29644,001,2025-10-17_13h46.12.711,HW_LDT_1,2024.2.4,MacIntel,61.34969325,,,,,,,,,,,,,,,,,,,,,,929.6371,929.836,929.836,930.3366,,,,,,,,,,,,,,0.74,1,,,,,,,,,,,,,,z,,,,,,,,,,,,,,,,149,1,930.3372,931.085,z,1,0.74,,[],[],[],[],[],[],[],931.0851,933.0846,933.0847,934.5329,[],[],[],[],[],[],[],m,1.4413,,934.533,934.533,0.892924812,0.606098802,0,0,0,,0,148,148,6,1,2,RL,conbicer,print,conbicer_p.png,,,,
,,,,29644,001,2025-10-17_13h46.12.711,HW_LDT_1,2024.2.4,MacIntel,61.34969325,,,,,,,,,,,,,,,,,,,,,,934.5336,934.7333,934.7334,935.2329,,,,,,,,,,,,,,0.8291,1,,,,,,,,,,,,,,z,,,,,,,,,,,,,,,,150,0,935.2332,936.065,z,1,0.8291,,[],[],[],[],[],[],[],936.065,938.0642,938.0643,938.0645,[],[],[],[],[],[],[],,,,938.0645,938.0647,0.892924812,0.606098802,0,0,0,,0,149,149,75,1,2,TL,ronamtic,print,ronamtic_p.png,,,,
,,,,29644,001,2025-10-17_13h46.12.711,HW_LDT_1,2024.2.4,MacIntel,61.34969325,,,,,,,,,,,,,,,,,,,,,,938.0662,938.2639,938.2639,938.7641,,,,,,,,,,,,,,0.7453,1,,,,,,,,,,,,,,z,,,,,,,,,,,,,,,,151,0,938.7647,939.5137,z,1,0.7453,,[],[],[],[],[],[],[],939.5139,941.5116,941.5116,941.5117,[],[],[],[],[],[],[],,,,941.5117,941.5118,0.892924812,0.606098802,0,0,0,,0,150,150,76,1,2,TL,senmitent,cursive,senmitent_c.png,,,,
,,,,29644,001,2025-10-17_13h46.12.711,HW_LDT_1,2024.2.4,MacIntel,61.34969325,,,,,,,,,,,,,,,,,,,,,,941.5125,941.7116,941.7116,942.2122,,,,,,,,,,,,,,0.7407,1,,,,,,,,,,,,,,z,,,,,,,,,,,,,,,,152,0,942.2126,942.9612,z,1,0.7407,,[],[],[],[],[],[],[],942.9612,944.9599,944.96,944.9601,[],[],[],[],[],[],[],,,,944.9601,944.9603,0.892924812,0.606098802,0,0,0,,0,151,151,2,1,2,RL,casagity,print,casagity_p.png,,,,
,,,,29644,001,2025-10-17_13h46.12.711,HW_LDT_1,2024.2.4,MacIntel,61.34969325,,,,,,,,,,,,,,,,,,,,,,944.9612,945.1601,945.1602,945.6597,,,,,,,,,,,,,,0.8641,1,,,,,,,,,,,,,,m,,,,,,,,,,,,,,,,153,0,945.6604,946.5251,m,1,0.8641,,[],[],[],[],[],[],[],946.5252,948.5248,948.5248,948.525,[],[],[],[],[],[],[],,,,948.5251,948.5252,0.892924812,0.606098802,0,0,0,,0,152,152,135,1,2,word,QUALITY,cursive,quality_c.png,,,,
,,,,29644,001,2025-10-17_13h46.12.711,HW_LDT_1,2024.2.4,MacIntel,61.34969325,,,,,,,,,,,,,,,,,,,,,,948.5265,948.7242,948.7243,949.2236,,,,,,,,,,,,,,0.9143,1,,,,,,,,,,,,,,m,,,,,,,,,,,,,,,,154,0,949.2242,950.1396,m,1,0.9143,,[],[],[],[],[],[],[],950.1396,952.1382,952.1383,952.1384,[],[],[],[],[],[],[],,,,952.1384,952.1385,0.892924812,0.606098802,0,0,0,,0,153,153,95,1,2,word,COMEDY,cursive,comedy_c.png,,,,
,,,,29644,001,2025-10-17_13h46.12.711,HW_LDT_1,2024.2.4,MacIntel,61.34969325,,,,,,,,,,,,,,,,,,,,,,952.1394,952.3379,952.3379,952.8381,,,,,,,,,,,,,,0.7087,1,,,,,,,,,,,,,,m,,,,,,,,,,,,,,,,155,0,952.8385,953.5533,m,1,0.7087,,[],[],[],[],[],[],[],953.5533,955.5533,955.5534,955.5535,[],[],[],[],[],[],[],,,,955.5536,955.5537,0.892924812,0.606098802,0,0,0,,0,154,154,96,1,2,word,CONSIDER,print,consider_p.png,,,,
,,,,29644,001,2025-10-17_13h46.12.711,HW_LDT_1,2024.2.4,MacIntel,61.34969325,,,,,,,,,,,,,,,,,,,,,,955.5552,955.7533,955.7534,956.2519,,,,,,,,,,,,,,0.7589,1,,,,,,,,,,,,,,m,,,,,,,,,,,,,,,,156,0,956.2525,957.0183,m,1,0.7589,,[],[],[],[],[],[],[],957.0185,959.0173,959.0174,959.0175,[],[],[],[],[],[],[],,,,959.0175,959.0175,0.892924812,0.606098802,0,0,0,,0,155,155,156,1,2,word,TRIBUTE,cursive,tribute_c.png,,,,
,,,,29644,001,2025-10-17_13h46.12.711,HW_LDT_1,2024.2.4,MacIntel,61.34969325,,,,,,,,,,,,,,,,,,,,,,959.0182,959.2175,959.2175,959.7175,,,,,,,,,,,,,,0.9719,1,,,,,,,,,,,,,,m,,,,,,,,,,,,,,,,157,1,959.718,960.6997,m,1,0.9719,,[],[],[],[],[],[],[],960.6997,962.6987,962.6987,964.0476,[],[],[],[],[],[],[],z,1.342,,964.0478,964.0479,0.892924812,0.606098802,0,0,0,,0,156,156,124,1,2,word,NUMERICAL,cursive,numerical_c.png,,,,
,,,,29644,001,2025-10-17_13h46.12.711,HW_LDT_1,2024.2.4,MacIntel,61.34969325,,,,,,,,,,,,,,,,,,,,,,964.0487,964.2465,964.2465,964.747,,,,,,,,,,,,,,1.6868,1,,,,,,,,,,,,,,z,,,,,,,,,,,,,,,,158,0,964.7475,966.4458,z,1,1.6868,,[],[],[],[],[],[],[],966.4458,968.4438,968.4439,968.444,[],[],[],[],[],[],[],,,,968.444,968.4441,0.892924812,0.606098802,0,0,0,,0,157,157,3,1,2,RL,capefory,print,capefory_p.png,,,,
,,,,29644,001,2025-10-17_13h46.12.711,HW_LDT_1,2024.2.4,MacIntel,61.34969325,,,,,,,,,,,,,,,,,,,,,,968.4449,968.644,968.644,969.1433,,,,,,,,,,,,,,0.6909,1,,,,,,,,,,,,,,z,,,,,,,,,,,,,,,,159,0,969.144,969.8427,z,1,0.6909,,[],[],[],[],[],[],[],969.8428,971.842,971.842,971.8421,[],[],[],[],[],[],[],,,,971.8422,971.8422,0.892924812,0.606098802,0,0,0,,0,158,158,30,1,2,RL,selamor,print,selamor_p.png,,,,
,,,,29644,001,2025-10-17_13h46.12.711,HW_LDT_1,2024.2.4,MacIntel,61.34969325,,,,,,,,,,,,,,,,,,,,,,971.8433,972.0415,972.0416,972.5412,,,,,,,,,,,,,,1.6583,1,,,,,,,,,,,,,,z,,,,,,,,,,,,,,,,160,0,972.542,974.2072,z,1,1.6583,,[],[],[],[],[],[],[],974.2072,976.2057,976.2057,976.2058,[],[],[],[],[],[],[],,,,976.2059,976.2059,0.892924812,0.606098802,0,0,0,,0,159,159,54,1,2,TL,liretal,cursive,liretal_c.png,,,,
,,,,29644,001,2025-10-17_13h46.12.711,HW_LDT_1,2024.2.4,MacIntel,61.34969325,,,,,,,,,,,,,,,,,,,,,,,,,,,,,,,,,,,,,,,,,,,,,,,,,,,,,,,,,,,,,,,,,,,,,,,,,,,,,,,,,,,,,,,,,,,,,,,,,,,,,,,,,,,,,,,,,,,,,,,976.2159,981.2026
