counterbalance_lists.group,counterbalance_lists.remaining,get_list.started,get_list.stopped,participant,session,date,expName,psychopyVersion,OS,frameRate,Instructions.started,Instructions.stopped,key_resp.keys,instr_done_touch.x,instr_done_touch.y,instr_done_touch.leftButton,instr_done_touch.midButton,instr_done_touch.rightButton,instr_done_touch.clicked_name,start_instr.thisRepN,start_instr.thisTrialN,start_instr.thisN,start_instr.thisIndex,start_instr.ran,pageN,phase,instruct_text,has_image,instruct_image,key_resp.rt,key_resp.duration,showProgress.started,showProgress.stopped,fix.started,fix.stopped,prac.started,prac.stopped,response.keys,response.corr,response.rt,response.duration,touch_resp.x,touch_resp.y,touch_resp.leftButton,touch_resp.midButton,touch_resp.rightButton,touch_resp.time,touch_resp.clicked_name,rt,corr,feedback.started,feedback.stopped,trials.thisRepN,trials.thisTrialN,trials.thisN,trials.thisIndex,trials.ran,TrialID,StimulusType,Condition,PrimeDuration,Prime,Target,corrAns,Instructions_expt.started,Instructions_expt.stopped,key_resp_3.keys,instr_done_touch_3.x,instr_done_touch_3.y,instr_done_touch_3.leftButton,instr_done_touch_3.midButton,instr_done_touch_3.rightButton,instr_done_touch_3.clicked_name,instr_experiment.thisRepN,instr_experiment.thisTrialN,instr_experiment.thisN,instr_experiment.thisIndex,instr_experiment.ran,trialID,flag,maintask.started,maintask.stopped,key_resp_2.keys,key_resp_2.corr,key_resp_2.rt,key_resp_2.duration,targ_click.x,targ_click.y,targ_click.leftButton,targ_click.midButton,targ_click.rightButton,targ_click.time,targ_click.clicked_name,ITI.started,ITI.stopped,probe.started,probe.stopped,click_probe.x,click_probe.y,click_probe.leftButton,click_probe.midButton,click_probe.rightButton,click_probe.time,click_probe.clicked_name,key_resp_probe.keys,Break.started,Break.stopped,break_done_touch.x,break_done_touch.y,break_done_touch.leftButton,break_done_touch.midButton,break_done_touch.rightButton,break_done_keyboard.keys,list3_trials.thisRepN,list3_trials.thisTrialN,list3_trials.thisN,list3_trials.thisIndex,list3_trials.ran,list_id,item_type,string,font,stim_file,key_resp_probe.rt,key_resp_probe.duration,break_done_keyboard.rt,break_done_keyboard.duration,End.started,End.stopped
list3,,0.425,0.4252,29756,001,2025-10-16_10h39.42.451,HW_LDT_1,2024.2.4,MacIntel,59.17159763,,,,,,,,,,,,,,,,,,,,,,,,,,,,,,,,,,,,,,,,,,,,,,,,,,,,,,,,,,,,,,,,,,,,,,,,,,,,,,,,,,,,,,,,,,,,,,,,,,,,,,,,,,,,,,,,,,,,,,,
,,,,29756,001,2025-10-16_10h39.42.451,HW_LDT_1,2024.2.4,MacIntel,59.17159763,0.4474,2.7771,,0.001574571,-0.420168593,1,0,0,instr_done_button,0,0,0,0,1,1,instructions,"INSTRUCTIONS
At the start of each trial, look at the plus sign  (+) in the center of the screen.  This tells you that a trial is about to begin and where to look. Second, the plus sign will disappear and a string of letters will appear. Your task is to determine if the string of letters is a word or not. If the item is a word press the M key (on keyboard)  or touch the word button (phone/tablet).  If the item is not a word,  press the  Z key (on keyboard)  or touch the nonword button (on phone/tablet). The items will be presented for a short time. 
Press the space bar or touch  continue.",0,,,,,,,,,,,,,,,,,,,,,,,,,,,,,,,,,,,,,,,,,,,,,,,,,,,,,,,,,,,,,,,,,,,,,,,,,,,,,,,,,,,,,,,,,,,,,,,,,,,,,
,,,,29756,001,2025-10-16_10h39.42.451,HW_LDT_1,2024.2.4,MacIntel,59.17159763,2.7782,7.0089,,0.002908936,-0.399908379,1,0,0,instr_done_button,0,1,1,1,1,2,instructions,"If your device has a keyboard, press the 'Z' key for nonwords and the 'M' key for words.





Press the space bar or touch the button below to continue.",0,keyboard-example.gif,,,,,,,,,,,,,,,,,,,,,,,,,,,,,,,,,,,,,,,,,,,,,,,,,,,,,,,,,,,,,,,,,,,,,,,,,,,,,,,,,,,,,,,,,,,,,,,,,,,,
,,,,29756,001,2025-10-16_10h39.42.451,HW_LDT_1,2024.2.4,MacIntel,59.17159763,7.0099,15.4935,space,0.417495253,-0.339253608,0,0,0,,0,2,2,2,1,3,instructions,"If you are using a touchscreen only device, use the buttons on the screen. Do not use the mouse.





Press the space bar or touch the button below to continue.",0,touchscreen-example.gif,8.4646,,,,,,,,,,,,,,,,,,,,,,,,,,,,,,,,,,,,,,,,,,,,,,,,,,,,,,,,,,,,,,,,,,,,,,,,,,,,,,,,,,,,,,,,,,,,,,,,,,,
,,,,29756,001,2025-10-16_10h39.42.451,HW_LDT_1,2024.2.4,MacIntel,59.17159763,15.4948,26.8087,,0.024147203,-0.38689209,1,0,0,instr_done_button,0,3,3,3,1,4,instructions,"It is very important that you respond as quickly and accurately as possible, as each letter string will only be on the screen for two seconds. If you do not respond within this time, the message 'Too slow!' will be displayed and the experiment will progress to the next letter string. The first 20 trials will be practice trials and you will receive feedback on your answers. 

Press the space bar or touch the button below to start the practice trials.",0,,,,,,,,,,,,,,,,,,,,,,,,,,,,,,,,,,,,,,,,,,,,,,,,,,,,,,,,,,,,,,,,,,,,,,,,,,,,,,,,,,,,,,,,,,,,,,,,,,,,,
,,,,29756,001,2025-10-16_10h39.42.451,HW_LDT_1,2024.2.4,MacIntel,59.17159763,,,,,,,,,,,,,,,,,,,,,,26.8366,27.0093,27.0095,27.5093,27.5094,32.5928,z,0,5.0632,,[],[],[],[],[],[],[],5.0632,0,32.5931,33.093,0,0,0,1,1,1002,WORD,"ID",33,adjust,ADJUST,m,,,,,,,,,,,,,,,,,,,,,,,,,,,,,,,,,,,,,,,,,,,,,,,,,,,,,,,,,,,,,,,,,
,,,,29756,001,2025-10-16_10h39.42.451,HW_LDT_1,2024.2.4,MacIntel,59.17159763,,,,,,,,,,,,,,,,,,,,,,33.0939,33.2929,33.2929,33.7928,33.7934,35.3756,m,1,1.5649,,[],[],[],[],[],[],[],1.5649,1,35.3762,35.8761,0,1,1,5,1,1006,WORD,UN,33,frenzy,OBTAIN,m,,,,,,,,,,,,,,,,,,,,,,,,,,,,,,,,,,,,,,,,,,,,,,,,,,,,,,,,,,,,,,,,,
,,,,29756,001,2025-10-16_10h39.42.451,HW_LDT_1,2024.2.4,MacIntel,59.17159763,,,,,,,,,,,,,,,,,,,,,,35.8771,36.0753,36.0754,36.5762,36.5771,37.5919,z,1,1.0018,,[],[],[],[],[],[],[],1.0018,1,37.592,38.0929,0,2,2,15,1,1016,NW,UN,16,mushed,WHAISE,z,,,,,,,,,,,,,,,,,,,,,,,,,,,,,,,,,,,,,,,,,,,,,,,,,,,,,,,,,,,,,,,,,
,,,,29756,001,2025-10-16_10h39.42.451,HW_LDT_1,2024.2.4,MacIntel,59.17159763,,,,,,,,,,,,,,,,,,,,,,38.0937,38.2927,38.2928,38.7928,38.7935,40.176,z,1,1.3654,,[],[],[],[],[],[],[],1.3654,1,40.1762,40.6756,0,3,3,10,1,1011,NW,"ID",16,inlade,INLADE,z,,,,,,,,,,,,,,,,,,,,,,,,,,,,,,,,,,,,,,,,,,,,,,,,,,,,,,,,,,,,,,,,,
,,,,29756,001,2025-10-16_10h39.42.451,HW_LDT_1,2024.2.4,MacIntel,59.17159763,,,,,,,,,,,,,,,,,,,,,,40.6766,40.8761,40.8761,41.3759,41.3763,42.1926,m,1,0.8004,,[],[],[],[],[],[],[],0.8004,1,42.1926,42.6928,0,4,4,0,1,1001,WORD,"ID",33,utopia,UTOPIA,m,,,,,,,,,,,,,,,,,,,,,,,,,,,,,,,,,,,,,,,,,,,,,,,,,,,,,,,,,,,,,,,,,
,,,,29756,001,2025-10-16_10h39.42.451,HW_LDT_1,2024.2.4,MacIntel,59.17159763,,,,,,,,,,,,,,,,,,,,,,42.6936,42.8925,42.8926,43.3926,43.3932,44.1421,m,1,0.7337,,[],[],[],[],[],[],[],0.7337,1,44.1421,44.6423,0,5,5,6,1,1007,WORD,UN,16,tropic,ZOMBIE,m,,,,,,,,,,,,,,,,,,,,,,,,,,,,,,,,,,,,,,,,,,,,,,,,,,,,,,,,,,,,,,,,,
,,,,29756,001,2025-10-16_10h39.42.451,HW_LDT_1,2024.2.4,MacIntel,59.17159763,,,,,,,,,,,,,,,,,,,,,,44.6432,44.842,44.8421,45.3425,45.3431,46.0594,m,1,0.7004,,[],[],[],[],[],[],[],0.7004,1,46.0595,46.5592,0,6,6,2,1,1003,WORD,"ID",16,almond,ALMOND,m,,,,,,,,,,,,,,,,,,,,,,,,,,,,,,,,,,,,,,,,,,,,,,,,,,,,,,,,,,,,,,,,,
,,,,29756,001,2025-10-16_10h39.42.451,HW_LDT_1,2024.2.4,MacIntel,59.17159763,,,,,,,,,,,,,,,,,,,,,,46.5602,46.7594,46.7594,47.2593,47.2599,48.4754,z,1,1.2003,,[],[],[],[],[],[],[],1.2003,1,48.4756,48.9759,0,7,7,14,1,1015,NW,UN,16,miaber,THRALE,z,,,,,,,,,,,,,,,,,,,,,,,,,,,,,,,,,,,,,,,,,,,,,,,,,,,,,,,,,,,,,,,,,
,,,,29756,001,2025-10-16_10h39.42.451,HW_LDT_1,2024.2.4,MacIntel,59.17159763,,,,,,,,,,,,,,,,,,,,,,48.9769,49.176,49.1761,49.6751,49.6757,50.592,z,1,0.8994,,[],[],[],[],[],[],[],0.8994,1,50.5921,51.0917,0,8,8,13,1,1014,NW,UN,33,winfer,ROUPET,z,,,,,,,,,,,,,,,,,,,,,,,,,,,,,,,,,,,,,,,,,,,,,,,,,,,,,,,,,,,,,,,,,
,,,,29756,001,2025-10-16_10h39.42.451,HW_LDT_1,2024.2.4,MacIntel,59.17159763,,,,,,,,,,,,,,,,,,,,,,51.0928,51.2926,51.2926,51.7916,51.7922,52.3593,m,1,0.5496,,[],[],[],[],[],[],[],0.5496,1,52.3593,52.8593,0,9,9,7,1,1008,WORD,UN,16,hurdle,VOLUME,m,,,,,,,,,,,,,,,,,,,,,,,,,,,,,,,,,,,,,,,,,,,,,,,,,,,,,,,,,,,,,,,,,
,,,,29756,001,2025-10-16_10h39.42.451,HW_LDT_1,2024.2.4,MacIntel,59.17159763,,,,,,,,,,,,,,,,,,,,,,52.8601,53.0593,53.0593,53.5593,53.5598,54.4426,z,1,0.8657,,[],[],[],[],[],[],[],0.8657,1,54.4426,54.9426,0,10,10,8,1,1009,NW,"ID",33,aslert,ASLERT,z,,,,,,,,,,,,,,,,,,,,,,,,,,,,,,,,,,,,,,,,,,,,,,,,,,,,,,,,,,,,,,,,,
,,,,29756,001,2025-10-16_10h39.42.451,HW_LDT_1,2024.2.4,MacIntel,59.17159763,,,,,,,,,,,,,,,,,,,,,,54.9434,55.1427,55.1427,55.6425,55.6431,56.2754,m,1,0.6165,,[],[],[],[],[],[],[],0.6165,1,56.2755,56.776,0,11,11,4,1,1005,WORD,UN,33,abound,SQUEAK,m,,,,,,,,,,,,,,,,,,,,,,,,,,,,,,,,,,,,,,,,,,,,,,,,,,,,,,,,,,,,,,,,,
,,,,29756,001,2025-10-16_10h39.42.451,HW_LDT_1,2024.2.4,MacIntel,59.17159763,,,,,,,,,,,,,,,,,,,,,,56.7769,56.9756,56.9757,57.4753,57.476,58.1092,m,1,0.6171,,[],[],[],[],[],[],[],0.6171,1,58.1092,58.6093,0,12,12,3,1,1004,WORD,"ID",16,matrix,MATRIX,m,,,,,,,,,,,,,,,,,,,,,,,,,,,,,,,,,,,,,,,,,,,,,,,,,,,,,,,,,,,,,,,,,
,,,,29756,001,2025-10-16_10h39.42.451,HW_LDT_1,2024.2.4,MacIntel,59.17159763,,,,,,,,,,,,,,,,,,,,,,58.6102,58.8092,58.8092,59.309,59.3096,59.9758,z,1,0.6494,,[],[],[],[],[],[],[],0.6494,1,59.9759,60.4753,0,13,13,9,1,1010,NW,"ID",33,fariny,FARINY,z,,,,,,,,,,,,,,,,,,,,,,,,,,,,,,,,,,,,,,,,,,,,,,,,,,,,,,,,,,,,,,,,,
,,,,29756,001,2025-10-16_10h39.42.451,HW_LDT_1,2024.2.4,MacIntel,59.17159763,,,,,,,,,,,,,,,,,,,,,,60.4762,60.6757,60.6757,61.1758,61.1763,61.8919,z,1,0.702,,[],[],[],[],[],[],[],0.702,1,61.8919,62.3925,0,14,14,11,1,1012,NW,"ID",16,rashet,RASHET,z,,,,,,,,,,,,,,,,,,,,,,,,,,,,,,,,,,,,,,,,,,,,,,,,,,,,,,,,,,,,,,,,,
,,,,29756,001,2025-10-16_10h39.42.451,HW_LDT_1,2024.2.4,MacIntel,59.17159763,,,,,,,,,,,,,,,,,,,,,,62.3934,62.5919,62.5919,63.0925,63.0931,64.1419,z,1,1.0387,,[],[],[],[],[],[],[],1.0387,1,64.1419,64.6426,0,15,15,12,1,1013,NW,UN,33,adveil,SPRINY,z,,,,,,,,,,,,,,,,,,,,,,,,,,,,,,,,,,,,,,,,,,,,,,,,,,,,,,,,,,,,,,,,,
,,,,29756,001,2025-10-16_10h39.42.451,HW_LDT_1,2024.2.4,MacIntel,59.17159763,,,,,,,,,,,,,,,1,end_of_practice,"You have completed the practice trials. During the experimental trials, you will not receive feedback. On some trials you will be asked to report whether the item you just saw was in cursive or print. 
Before you begin, please ensure that you are in a comfortable and quiet location and will not be disturbed for about 15 minutes, as we cannot use your data if you do not complete all the trials. 
 When you are ready to start the experimental trials, please press space or touch the button below.",,,,,,,,,,,,,,,,,,,,,,,,,,,,,,,,,,,,,,64.6489,74.1584,,0.019118652,-0.402353244,1,0,0,instr_done_button_3,0,0,0,0,1,,,,,,,,,,,,,,,,,,,,,,,,,,,,,,,,,,,,,,,,,,,,,,,,,,,
,,,,29756,001,2025-10-16_10h39.42.451,HW_LDT_1,2024.2.4,MacIntel,59.17159763,,,,,,,,,,,,,,,,,,,,,,74.1731,74.3581,74.3581,74.8588,,,,,,,,,,,,,,1.2277,1,,,,,,,,,,,,,,m,,,,,,,,,,,,,,,1,0,74.8599,76.092,m,1,1.2277,,[],[],[],[],[],[],[],76.092,78.0923,78.0925,78.0948,[],[],[],[],[],[],[],,78.0951,78.0968,0.019118652,-0.402353244,0,0,0,,0,0,0,92,1,3,word,CATEGORY,cursive,category_c.png,,,,,,
,,,,29756,001,2025-10-16_10h39.42.451,HW_LDT_1,2024.2.4,MacIntel,59.17159763,,,,,,,,,,,,,,,,,,,,,,78.0974,78.2916,78.2916,78.7921,,,,,,,,,,,,,,0.7255,1,,,,,,,,,,,,,,m,,,,,,,,,,,,,,,2,0,78.7926,79.5256,m,1,0.7255,,[],[],[],[],[],[],[],79.5257,81.5254,81.5254,81.5256,[],[],[],[],[],[],[],,81.5256,81.5257,0.019118652,-0.402353244,0,0,0,,0,1,1,132,1,3,word,PROPOSAL,print,proposal_p.png,,,,,,
,,,,29756,001,2025-10-16_10h39.42.451,HW_LDT_1,2024.2.4,MacIntel,59.17159763,,,,,,,,,,,,,,,,,,,,,,81.5264,81.7255,81.7256,82.2256,,,,,,,,,,,,,,1.5431,1,,,,,,,,,,,,,,m,,,,,,,,,,,,,,,3,0,82.2261,83.7747,m,1,1.5431,,[],[],[],[],[],[],[],83.7747,85.7755,85.7755,85.7757,[],[],[],[],[],[],[],,85.7757,85.7759,0.019118652,-0.402353244,0,0,0,,0,2,2,153,1,3,word,STOLEN,cursive,stolen_c.png,,,,,,
,,,,29756,001,2025-10-16_10h39.42.451,HW_LDT_1,2024.2.4,MacIntel,59.17159763,,,,,,,,,,,,,,,,,,,,,,85.7766,85.9745,85.9745,86.4755,,,,,,,,,,,,,,1.0751,1,,,,,,,,,,,,,,m,,,,,,,,,,,,,,,4,0,86.476,87.558,m,1,1.0751,,[],[],[],[],[],[],[],87.5581,89.5587,89.5587,89.5589,[],[],[],[],[],[],[],,89.5589,89.559,0.019118652,-0.402353244,0,0,0,,0,3,3,136,1,3,word,RADICAL,cursive,radical_c.png,,,,,,
,,,,29756,001,2025-10-16_10h39.42.451,HW_LDT_1,2024.2.4,MacIntel,59.17159763,,,,,,,,,,,,,,,,,,,,,,89.5597,89.7586,89.7586,90.2582,,,,,,,,,,,,,,1.9767,1,,,,,,,,,,,,,,z,,,,,,,,,,,,,,,5,0,90.2585,92.2415,z,1,1.9767,,[],[],[],[],[],[],[],92.2416,94.2421,94.2422,94.2424,[],[],[],[],[],[],[],,94.2424,94.2424,0.019118652,-0.402353244,0,0,0,,0,4,4,13,1,3,RL,helicage,cursive,helicage_c.png,,,,,,
,,,,29756,001,2025-10-16_10h39.42.451,HW_LDT_1,2024.2.4,MacIntel,59.17159763,,,,,,,,,,,,,,,,,,,,,,94.2432,94.442,94.4421,94.9419,,,,,,,,,,,,,,2.6639,0,,,,,,,,,,,,,,m,,,,,,,,,,,,,,,6,0,94.9423,97.6079,z,0,2.6639,,[],[],[],[],[],[],[],97.6079,99.6079,99.608,99.6083,[],[],[],[],[],[],[],,99.6084,99.6085,0.019118652,-0.402353244,0,0,0,,0,5,5,114,1,3,word,LOCATE,cursive,locate_c.png,,,,,,
,,,,29756,001,2025-10-16_10h39.42.451,HW_LDT_1,2024.2.4,MacIntel,59.17159763,,,,,,,,,,,,,,,,,,,,,,99.6094,99.8075,99.8075,100.3082,,,,,,,,,,,,,,3.01,1,,,,,,,,,,,,,,z,,,,,,,,,,,,,,,7,0,100.3086,103.3254,z,1,3.01,,[],[],[],[],[],[],[],103.3255,105.3253,105.3253,105.3255,[],[],[],[],[],[],[],,105.3255,105.3256,0.019118652,-0.402353244,0,0,0,,0,6,6,12,1,3,RL,formuke,cursive,formuke_c.png,,,,,,
,,,,29756,001,2025-10-16_10h39.42.451,HW_LDT_1,2024.2.4,MacIntel,59.17159763,,,,,,,,,,,,,,,,,,,,,,105.3263,105.5251,105.5251,106.0247,,,,,,,,,,,,,,0.6429,1,,,,,,,,,,,,,,m,,,,,,,,,,,,,,,8,0,106.0251,106.6751,m,1,0.6429,,[],[],[],[],[],[],[],106.6752,108.6752,108.6753,108.6754,[],[],[],[],[],[],[],,108.6754,108.6755,0.019118652,-0.402353244,0,0,0,,0,7,7,135,1,3,word,QUALITY,print,quality_p.png,,,,,,
,,,,29756,001,2025-10-16_10h39.42.451,HW_LDT_1,2024.2.4,MacIntel,59.17159763,,,,,,,,,,,,,,,,,,,,,,108.6762,108.8749,108.8749,109.3746,,,,,,,,,,,,,,0.6599,1,,,,,,,,,,,,,,m,,,,,,,,,,,,,,,9,0,109.3749,110.0409,m,1,0.6599,,[],[],[],[],[],[],[],110.041,112.0414,112.0414,112.0416,[],[],[],[],[],[],[],,112.0416,112.0417,0.019118652,-0.402353244,0,0,0,,0,8,8,94,1,3,word,CLINICAL,print,clinical_p.png,,,,,,
,,,,29756,001,2025-10-16_10h39.42.451,HW_LDT_1,2024.2.4,MacIntel,59.17159763,,,,,,,,,,,,,,,,,,,,,,112.0424,112.2413,112.2413,112.7414,,,,,,,,,,,,,,3.181,1,,,,,,,,,,,,,,z,,,,,,,,,,,,,,,10,0,112.7418,115.925,z,1,3.181,,[],[],[],[],[],[],[],115.9251,117.925,117.925,117.9253,[],[],[],[],[],[],[],,117.9253,117.9255,0.019118652,-0.402353244,0,0,0,,0,9,9,59,1,3,TL,paficic,cursive,paficic_c.png,,,,,,
,,,,29756,001,2025-10-16_10h39.42.451,HW_LDT_1,2024.2.4,MacIntel,59.17159763,,,,,,,,,,,,,,,,,,,,,,117.9262,118.1251,118.1251,118.6251,,,,,,,,,,,,,,0.6258,1,,,,,,,,,,,,,,m,,,,,,,,,,,,,,,11,0,118.6254,119.258,m,1,0.6258,,[],[],[],[],[],[],[],119.258,121.2577,121.2578,121.258,[],[],[],[],[],[],[],,121.258,121.2581,0.019118652,-0.402353244,0,0,0,,0,10,10,104,1,3,word,DOMINANT,print,dominant_p.png,,,,,,
,,,,29756,001,2025-10-16_10h39.42.451,HW_LDT_1,2024.2.4,MacIntel,59.17159763,,,,,,,,,,,,,,,,,,,,,,121.259,121.4576,121.4577,121.9584,,,,,,,,,,,,,,1.3922,1,,,,,,,,,,,,,,z,,,,,,,,,,,,,,,12,0,121.9588,123.3578,z,1,1.3922,,[],[],[],[],[],[],[],123.3579,125.3582,125.3583,125.3584,[],[],[],[],[],[],[],,125.3584,125.3585,0.019118652,-0.402353244,0,0,0,,0,11,11,10,1,3,RL,efibor,print,efibor_p.png,,,,,,
,,,,29756,001,2025-10-16_10h39.42.451,HW_LDT_1,2024.2.4,MacIntel,59.17159763,,,,,,,,,,,,,,,,,,,,,,125.3592,125.5583,125.5583,126.058,,,,,,,,,,,,,,1.2261,1,,,,,,,,,,,,,,z,,,,,,,,,,,,,,,13,0,126.0585,127.2916,z,1,1.2261,,[],[],[],[],[],[],[],127.2917,129.2907,129.2908,129.291,[],[],[],[],[],[],[],,129.291,129.2912,0.019118652,-0.402353244,0,0,0,,0,12,12,50,1,3,TL,lirebal,print,lirebal_p.png,,,,,,
,,,,29756,001,2025-10-16_10h39.42.451,HW_LDT_1,2024.2.4,MacIntel,59.17159763,,,,,,,,,,,,,,,,,,,,,,129.292,129.4916,129.4916,129.9916,,,,,,,,,,,,,,1.0483,1,,,,,,,,,,,,,,z,,,,,,,,,,,,,,,14,1,129.992,131.0408,z,1,1.0483,,[],[],[],[],[],[],[],131.0408,133.0415,133.0415,135.924,[],[],[],[],[],[],[],m,135.924,135.9241,0.019118652,-0.402353244,0,0,0,,0,13,13,45,1,3,TL,dentisy,print,dentisy_p.png,2.8807,,,,,
,,,,29756,001,2025-10-16_10h39.42.451,HW_LDT_1,2024.2.4,MacIntel,59.17159763,,,,,,,,,,,,,,,,,,,,,,135.9247,136.1246,136.1246,136.6248,,,,,,,,,,,,,,2.2617,0,,,,,,,,,,,,,,m,,,,,,,,,,,,,,,15,0,136.6252,138.8912,z,0,2.2617,,[],[],[],[],[],[],[],138.8913,140.8912,140.8913,140.8915,[],[],[],[],[],[],[],,140.8915,140.8915,0.019118652,-0.402353244,0,0,0,,0,14,14,109,1,3,word,GRATEFUL,cursive,grateful_c.png,,,,,,
,,,,29756,001,2025-10-16_10h39.42.451,HW_LDT_1,2024.2.4,MacIntel,59.17159763,,,,,,,,,,,,,,,,,,,,,,140.8922,141.0906,141.0906,141.5914,,,,,,,,,,,,,,0.8942,1,,,,,,,,,,,,,,m,,,,,,,,,,,,,,,16,0,141.5918,142.4905,m,1,0.8942,,[],[],[],[],[],[],[],142.4906,144.4907,144.4907,144.4909,[],[],[],[],[],[],[],,144.4909,144.491,0.019118652,-0.402353244,0,0,0,,0,15,15,113,1,3,word,LITERAL,print,literal_p.png,,,,,,
,,,,29756,001,2025-10-16_10h39.42.451,HW_LDT_1,2024.2.4,MacIntel,59.17159763,,,,,,,,,,,,,,,,,,,,,,144.4916,144.6909,144.6909,145.1914,,,,,,,,,,,,,,1.7254,1,,,,,,,,,,,,,,m,,,,,,,,,,,,,,,17,1,145.1917,146.924,m,1,1.7254,,[],[],[],[],[],[],[],146.924,148.9239,148.9239,152.8405,[],[],[],[],[],[],[],m,152.8405,152.8405,0.019118652,-0.402353244,0,0,0,,0,16,16,87,1,3,word,CAFETERIA,print,cafeteria_p.png,3.9152,,,,,
,,,,29756,001,2025-10-16_10h39.42.451,HW_LDT_1,2024.2.4,MacIntel,59.17159763,,,,,,,,,,,,,,,,,,,,,,152.8412,153.0413,153.0413,153.5408,,,,,,,,,,,,,,0.777,1,,,,,,,,,,,,,,m,,,,,,,,,,,,,,,18,0,153.541,154.3241,m,1,0.777,,[],[],[],[],[],[],[],154.3242,156.324,156.3241,156.3243,[],[],[],[],[],[],[],,156.3244,156.3244,0.019118652,-0.402353244,0,0,0,,0,17,17,139,1,3,word,REGULAR,print,regular_p.png,,,,,,
,,,,29756,001,2025-10-16_10h39.42.451,HW_LDT_1,2024.2.4,MacIntel,59.17159763,,,,,,,,,,,,,,,,,,,,,,156.3252,156.5235,156.5236,157.0245,,,,,,,,,,,,,,0.9795,1,,,,,,,,,,,,,,m,,,,,,,,,,,,,,,19,1,157.0249,158.0073,m,1,0.9795,,[],[],[],[],[],[],[],158.0074,160.0078,160.0079,161.4739,[],[],[],[],[],[],[],z,161.474,161.4741,0.019118652,-0.402353244,0,0,0,,0,18,18,154,1,3,word,STORAGE,cursive,storage_c.png,1.4595,,,,,
,,,,29756,001,2025-10-16_10h39.42.451,HW_LDT_1,2024.2.4,MacIntel,59.17159763,,,,,,,,,,,,,,,,,,,,,,161.4748,161.6737,161.6737,162.1743,,,,,,,,,,,,,,1.9137,1,,,,,,,,,,,,,,z,,,,,,,,,,,,,,,20,0,162.1747,164.0902,z,1,1.9137,,[],[],[],[],[],[],[],164.0903,166.0909,166.091,166.0911,[],[],[],[],[],[],[],,166.0912,166.0912,0.019118652,-0.402353244,0,0,0,,0,19,19,76,1,3,TL,stogare,cursive,stogare_c.png,,,,,,
,,,,29756,001,2025-10-16_10h39.42.451,HW_LDT_1,2024.2.4,MacIntel,59.17159763,,,,,,,,,,,,,,,,,,,,,,166.0921,166.2902,166.2903,166.7903,,,,,,,,,,,,,,0.6437,0,,,,,,,,,,,,,,z,,,,,,,,,,,,,,,21,0,166.7907,167.4399,m,0,0.6437,,[],[],[],[],[],[],[],167.4399,169.4408,169.4408,169.441,[],[],[],[],[],[],[],,169.441,169.4411,0.019118652,-0.402353244,0,0,0,,0,20,20,55,1,3,TL,mecidine,print,mecidine_p.png,,,,,,
,,,,29756,001,2025-10-16_10h39.42.451,HW_LDT_1,2024.2.4,MacIntel,59.17159763,,,,,,,,,,,,,,,,,,,,,,169.4417,169.6411,169.6411,170.1405,,,,,,,,,,,,,,1.01,1,,,,,,,,,,,,,,m,,,,,,,,,,,,,,,22,0,170.1408,171.1569,m,1,1.01,,[],[],[],[],[],[],[],171.157,173.1576,173.1576,173.1578,[],[],[],[],[],[],[],,173.1578,173.1579,0.019118652,-0.402353244,0,0,0,,0,21,21,80,1,3,word,ACADEMY,print,academy_p.png,,,,,,
,,,,29756,001,2025-10-16_10h39.42.451,HW_LDT_1,2024.2.4,MacIntel,59.17159763,,,,,,,,,,,,,,,,,,,,,,173.1587,173.3573,173.3574,173.8576,,,,,,,,,,,,,,1.5952,1,,,,,,,,,,,,,,z,,,,,,,,,,,,,,,23,0,173.858,175.4575,z,1,1.5952,,[],[],[],[],[],[],[],175.4576,177.4575,177.4576,177.4578,[],[],[],[],[],[],[],,177.4578,177.4579,0.019118652,-0.402353244,0,0,0,,0,22,22,71,1,3,TL,sanile,cursive,sanile_c.png,,,,,,
,,,,29756,001,2025-10-16_10h39.42.451,HW_LDT_1,2024.2.4,MacIntel,59.17159763,,,,,,,,,,,,,,,,,,,,,,177.4586,177.6572,177.6572,178.1566,,,,,,,,,,,,,,0.7444,0,,,,,,,,,,,,,,z,,,,,,,,,,,,,,,24,0,178.1569,178.9075,m,0,0.7444,,[],[],[],[],[],[],[],178.9075,180.9075,180.9076,180.9078,[],[],[],[],[],[],[],,180.9078,180.9079,0.019118652,-0.402353244,0,0,0,,0,23,23,62,1,3,TL,prodive,print,prodive_p.png,,,,,,
,,,,29756,001,2025-10-16_10h39.42.451,HW_LDT_1,2024.2.4,MacIntel,59.17159763,,,,,,,,,,,,,,,,,,,,,,180.9087,181.1071,181.1072,181.6074,,,,,,,,,,,,,,3.3308,0,,,,,,,,,,,,,,m,,,,,,,,,,,,,,,25,0,181.6079,184.9402,z,0,3.3308,,[],[],[],[],[],[],[],184.9404,186.9407,186.9408,186.941,[],[],[],[],[],[],[],,186.941,186.9411,0.019118652,-0.402353244,0,0,0,,0,24,24,120,1,3,word,MILITARY,cursive,military_c.png,,,,,,
,,,,29756,001,2025-10-16_10h39.42.451,HW_LDT_1,2024.2.4,MacIntel,59.17159763,,,,,,,,,,,,,,,,,,,,,,186.9418,187.1407,187.1408,187.6407,,,,,,,,,,,,,,1.0759,1,,,,,,,,,,,,,,m,,,,,,,,,,,,,,,26,0,187.6411,188.7241,m,1,1.0759,,[],[],[],[],[],[],[],188.7242,190.7239,190.7239,190.7242,[],[],[],[],[],[],[],,190.7242,190.7242,0.019118652,-0.402353244,0,0,0,,0,25,25,157,1,3,word,VALIDITY,cursive,validity_c.png,,,,,,
,,,,29756,001,2025-10-16_10h39.42.451,HW_LDT_1,2024.2.4,MacIntel,59.17159763,,,,,,,,,,,,,,,,,,,,,,190.725,190.9241,190.9241,191.4239,,,,,,,,,,,,,,3.2242,0,,,,,,,,,,,,,,m,,,,,,,,,,,,,,,27,1,191.4243,194.6563,z,0,3.2242,,[],[],[],[],[],[],[],194.6564,196.6573,196.6573,197.6897,[],[],[],[],[],[],[],z,197.6897,197.6898,0.019118652,-0.402353244,0,0,0,,0,26,26,140,1,3,word,RELATIVE,cursive,relative_c.png,1.031,,,,,
,,,,29756,001,2025-10-16_10h39.42.451,HW_LDT_1,2024.2.4,MacIntel,59.17159763,,,,,,,,,,,,,,,,,,,,,,197.6905,197.8906,197.8906,198.3906,,,,,,,,,,,,,,1.0428,1,,,,,,,,,,,,,,z,,,,,,,,,,,,,,,28,0,198.3909,199.4396,z,1,1.0428,,[],[],[],[],[],[],[],199.4397,201.4404,201.4404,201.4405,[],[],[],[],[],[],[],,201.4407,201.4407,0.019118652,-0.402353244,0,0,0,,0,27,27,53,1,3,TL,marnigal,print,marnigal_p.png,,,,,,
,,,,29756,001,2025-10-16_10h39.42.451,HW_LDT_1,2024.2.4,MacIntel,59.17159763,,,,,,,,,,,,,,,,,,,,,,201.4415,201.6401,201.6401,202.1399,,,,,,,,,,,,,,2.7653,0,,,,,,,,,,,,,,m,,,,,,,,,,,,,,,29,0,202.1403,204.9063,z,0,2.7653,,[],[],[],[],[],[],[],204.9063,206.9071,206.9071,206.9073,[],[],[],[],[],[],[],,206.9073,206.9074,0.019118652,-0.402353244,0,0,0,,0,28,28,90,1,3,word,CAPITAL,cursive,capital_c.png,,,,,,
,,,,29756,001,2025-10-16_10h39.42.451,HW_LDT_1,2024.2.4,MacIntel,59.17159763,,,,,,,,,,,,,,,,,,,,,,206.9082,207.1071,207.1071,207.6069,,,,,,,,,,,,,,0.6931,1,,,,,,,,,,,,,,m,,,,,,,,,,,,,,,30,0,207.6073,208.3069,m,1,0.6931,,[],[],[],[],[],[],[],208.3069,210.307,210.3071,210.3072,[],[],[],[],[],[],[],,210.3072,210.3073,0.019118652,-0.402353244,0,0,0,,0,29,29,98,1,3,word,CRIMINAL,print,criminal_p.png,,,,,,
,,,,29756,001,2025-10-16_10h39.42.451,HW_LDT_1,2024.2.4,MacIntel,59.17159763,,,,,,,,,,,,,,,,,,,,,,210.3082,210.5065,210.5065,211.0067,,,,,,,,,,,,,,0.7477,1,,,,,,,,,,,,,,m,,,,,,,,,,,,,,,31,0,211.0071,211.7561,m,1,0.7477,,[],[],[],[],[],[],[],211.7562,213.757,213.757,213.7572,[],[],[],[],[],[],[],,213.7572,213.7573,0.019118652,-0.402353244,0,0,0,,0,30,30,138,1,3,word,REFUSAL,print,refusal_p.png,,,,,,
,,,,29756,001,2025-10-16_10h39.42.451,HW_LDT_1,2024.2.4,MacIntel,59.17159763,,,,,,,,,,,,,,,,,,,,,,213.758,213.9568,213.9568,214.457,,,,,,,,,,,,,,5.026,1,,,,,,,,,,,,,,z,,,,,,,,,,,,,,,32,0,214.4574,219.4903,z,1,5.026,,[],[],[],[],[],[],[],219.4904,221.4904,221.4904,221.4907,[],[],[],[],[],[],[],,221.4907,221.4909,0.019118652,-0.402353244,0,0,0,,0,31,31,34,1,3,TL,aminal,cursive,aminal_c.png,,,,,,
,,,,29756,001,2025-10-16_10h39.42.451,HW_LDT_1,2024.2.4,MacIntel,59.17159763,,,,,,,,,,,,,,,,,,,,,,221.4916,221.6903,221.6903,222.1896,,,,,,,,,,,,,,0.594,1,,,,,,,,,,,,,,m,,,,,,,,,,,,,,,33,0,222.1898,222.7901,m,1,0.594,,[],[],[],[],[],[],[],222.7902,224.7894,224.7895,224.7896,[],[],[],[],[],[],[],,224.7896,224.7897,0.019118652,-0.402353244,0,0,0,,0,32,32,141,1,3,word,RELIGION,print,religion_p.png,,,,,,
,,,,29756,001,2025-10-16_10h39.42.451,HW_LDT_1,2024.2.4,MacIntel,59.17159763,,,,,,,,,,,,,,,,,,,,,,224.7906,224.99,224.9901,225.4902,,,,,,,,,,,,,,1.1974,1,,,,,,,,,,,,,,z,,,,,,,,,,,,,,,34,0,225.4906,226.6892,z,1,1.1974,,[],[],[],[],[],[],[],226.6893,228.6895,228.6896,228.6897,[],[],[],[],[],[],[],,228.6897,228.6898,0.019118652,-0.402353244,0,0,0,,0,33,33,58,1,3,TL,nuremical,print,nuremical_p.png,,,,,,
,,,,29756,001,2025-10-16_10h39.42.451,HW_LDT_1,2024.2.4,MacIntel,59.17159763,,,,,,,,,,,,,,,,,,,,,,228.6903,228.8896,228.8896,229.3901,,,,,,,,,,,,,,2.0933,1,,,,,,,,,,,,,,z,,,,,,,,,,,,,,,35,0,229.3903,231.4901,z,1,2.0933,,[],[],[],[],[],[],[],231.4901,233.4901,233.4901,233.4903,[],[],[],[],[],[],[],,233.4903,233.4903,0.019118652,-0.402353244,0,0,0,,0,34,34,41,1,3,TL,crinimal,print,crinimal_p.png,,,,,,
,,,,29756,001,2025-10-16_10h39.42.451,HW_LDT_1,2024.2.4,MacIntel,59.17159763,,,,,,,,,,,,,,,,,,,,,,233.4911,233.6895,233.6895,234.1898,,,,,,,,,,,,,,1.6939,1,,,,,,,,,,,,,,z,,,,,,,,,,,,,,,36,0,234.19,235.8899,z,1,1.6939,,[],[],[],[],[],[],[],235.8901,237.89,237.89,237.8901,[],[],[],[],[],[],[],,237.8902,237.8903,0.019118652,-0.402353244,0,0,0,,0,35,35,15,1,3,RL,mifikary,cursive,mifikary_c.png,,,,,,
,,,,29756,001,2025-10-16_10h39.42.451,HW_LDT_1,2024.2.4,MacIntel,59.17159763,,,,,,,,,,,,,,,,,,,,,,237.8909,238.0901,238.0902,238.5899,,,,,,,,,,,,,,1.5098,1,,,,,,,,,,,,,,z,,,,,,,,,,,,,,,37,0,238.5904,240.1061,z,1,1.5098,,[],[],[],[],[],[],[],240.1061,242.1065,242.1066,242.1067,[],[],[],[],[],[],[],,242.1068,242.1068,0.019118652,-0.402353244,0,0,0,,0,36,36,17,1,3,RL,motide,cursive,motide_c.png,,,,,,
,,,,29756,001,2025-10-16_10h39.42.451,HW_LDT_1,2024.2.4,MacIntel,59.17159763,,,,,,,,,,,,,,,,,,,,,,242.1077,242.3066,242.3066,242.8065,,,,,,,,,,,,,,1.9313,1,,,,,,,,,,,,,,z,,,,,,,,,,,,,,,38,0,242.8069,244.7389,z,1,1.9313,,[],[],[],[],[],[],[],244.739,246.7399,246.7399,246.7401,[],[],[],[],[],[],[],,246.7402,246.7402,0.019118652,-0.402353244,0,0,0,,0,37,37,36,1,3,TL,carema,cursive,carema_c.png,,,,,,
,,,,29756,001,2025-10-16_10h39.42.451,HW_LDT_1,2024.2.4,MacIntel,59.17159763,,,,,,,,,,,,,,,,,,,,,,246.7409,246.9397,246.9398,247.4399,,,,,,,,,,,,,,0.6629,0,,,,,,,,,,,,,,z,,,,,,,,,,,,,,,39,1,247.4403,248.1065,m,0,0.6629,,[],[],[],[],[],[],[],248.1066,250.1064,250.1065,251.3055,[],[],[],[],[],[],[],z,251.3055,251.3055,0.019118652,-0.402353244,0,0,0,,0,38,38,44,1,3,TL,decilate,print,decilate_p.png,1.1955,,,,,
,,,,29756,001,2025-10-16_10h39.42.451,HW_LDT_1,2024.2.4,MacIntel,59.17159763,,,,,,,,,,,,,,,,,,,,,,251.306,251.5065,251.5066,252.0055,,,,,,,,,,,,,,2.7775,0,,,,,,,,,,,,,,m,,,,,,,,,,,,,,,40,0,252.006,254.789,z,0,2.7775,,[],[],[],[],[],[],[],254.7891,256.7898,256.7899,256.79,[],[],[],[],[],[],[],,256.79,256.7901,0.019118652,-0.402353244,0,0,0,,0,39,39,126,1,3,word,OPTIMAL,cursive,optimal_c.png,,,,,,
,,,,29756,001,2025-10-16_10h39.42.451,HW_LDT_1,2024.2.4,MacIntel,59.17159763,,,,,,,,,,,,,,,,,,,,,,256.7908,256.9894,256.9894,257.4898,,,,,,,,,,,,,,0.7934,1,,,,,,,,,,,,,,z,,,,,,,,,,,,,,,41,0,257.4901,258.2888,z,1,0.7934,,[],[],[],[],[],[],[],258.2888,260.2891,260.2892,260.2894,[],[],[],[],[],[],[],,260.2895,260.2895,0.019118652,-0.402353244,0,0,0,,0,40,40,24,1,3,RL,quafidy,print,quafidy_p.png,,,,,,
,,,,29756,001,2025-10-16_10h39.42.451,HW_LDT_1,2024.2.4,MacIntel,59.17159763,,,,,,,,,,,,,,,,,,,,,,260.2903,260.4895,260.4896,260.989,,,,,,,,,,,,,,1.4486,0,,,,,,,,,,,,,,m,,,,,,,,,,,,,,,42,0,260.9892,262.439,z,0,1.4486,,[],[],[],[],[],[],[],262.439,264.4397,264.4397,264.4398,[],[],[],[],[],[],[],,264.4398,264.44,0.019118652,-0.402353244,0,0,0,,0,41,41,149,1,3,word,SENATOR,cursive,senator_c.png,,,,,,
,,,,29756,001,2025-10-16_10h39.42.451,HW_LDT_1,2024.2.4,MacIntel,59.17159763,,,,,,,,,,,,,,,,,,,,,,264.4407,264.6393,264.6393,265.139,,,,,,,,,,,,,,1.127,1,,,,,,,,,,,,,,z,,,,,,,,,,,,,,,43,0,265.1394,266.2725,z,1,1.127,,[],[],[],[],[],[],[],266.2726,268.2729,268.2729,268.2731,[],[],[],[],[],[],[],,268.2731,268.2732,0.019118652,-0.402353244,0,0,0,,0,42,42,40,1,3,TL,condiser,print,condiser_p.png,,,,,,
,,,,29756,001,2025-10-16_10h39.42.451,HW_LDT_1,2024.2.4,MacIntel,59.17159763,,,,,,,,,,,,,,,,,,,,,,268.274,268.4725,268.4725,268.973,,,,,,,,,,,,,,1.7427,1,,,,,,,,,,,,,,z,,,,,,,,,,,,,,,44,0,268.9734,270.7221,z,1,1.7427,,[],[],[],[],[],[],[],270.7221,272.722,272.7221,272.7222,[],[],[],[],[],[],[],,272.7223,272.7223,0.019118652,-0.402353244,0,0,0,,0,43,43,28,1,3,RL,rovastic,cursive,rovastic_c.png,,,,,,
,,,,29756,001,2025-10-16_10h39.42.451,HW_LDT_1,2024.2.4,MacIntel,59.17159763,,,,,,,,,,,,,,,,,,,,,,272.7233,272.9222,272.9223,273.4226,,,,,,,,,,,,,,1.5948,1,,,,,,,,,,,,,,z,,,,,,,,,,,,,,,45,1,273.423,275.0221,z,1,1.5948,,[],[],[],[],[],[],[],275.0221,277.0229,277.0229,279.6892,[],[],[],[],[],[],[],z,279.6893,279.6894,0.019118652,-0.402353244,0,0,0,,0,44,44,21,1,3,RL,potugar,print,potugar_p.png,2.6616,,,,,
,,,,29756,001,2025-10-16_10h39.42.451,HW_LDT_1,2024.2.4,MacIntel,59.17159763,,,,,,,,,,,,,,,,,,,,,,279.6901,279.889,279.889,280.3889,,,,,,,,,,,,,,2.277,1,,,,,,,,,,,,,,z,,,,,,,,,,,,,,,46,0,280.3892,282.6722,z,1,2.277,,[],[],[],[],[],[],[],282.6723,284.6721,284.6722,284.6723,[],[],[],[],[],[],[],,284.6724,284.6724,0.019118652,-0.402353244,0,0,0,,0,45,45,70,1,3,TL,remuse,cursive,remuse_c.png,,,,,,
,,,,29756,001,2025-10-16_10h39.42.451,HW_LDT_1,2024.2.4,MacIntel,59.17159763,,,,,,,,,,,,,,,,,,,,,,284.6731,284.8727,284.8728,285.3728,,,,,,,,,,,,,,2.5909,1,,,,,,,,,,,,,,z,,,,,,,,,,,,,,,47,0,285.3731,287.9726,z,1,2.5909,,[],[],[],[],[],[],[],287.9727,289.9716,289.9716,289.9716,[],[],[],[],[],[],[],,289.9717,289.9717,0.019118652,-0.402353244,0,0,0,,0,46,46,66,1,3,TL,retalive,cursive,retalive_c.png,,,,,,
,,,,29756,001,2025-10-16_10h39.42.451,HW_LDT_1,2024.2.4,MacIntel,59.17159763,,,,,,,,,,,,,,,,,,,,,,289.9723,290.1719,290.1719,290.6717,,,,,,,,,,,,,,1.426,1,,,,,,,,,,,,,,z,,,,,,,,,,,,,,,48,0,290.6721,292.1058,z,1,1.426,,[],[],[],[],[],[],[],292.1058,294.1057,294.1058,294.1059,[],[],[],[],[],[],[],,294.1059,294.106,0.019118652,-0.402353244,0,0,0,,0,47,47,65,1,3,TL,resufal,print,resufal_p.png,,,,,,
,,,,29756,001,2025-10-16_10h39.42.451,HW_LDT_1,2024.2.4,MacIntel,59.17159763,,,,,,,,,,,,,,,,,,,,,,294.1068,294.3054,294.3054,294.8059,,,,,,,,,,,,,,1.7251,1,,,,,,,,,,,,,,z,,,,,,,,,,,,,,,49,0,294.8062,296.5391,z,1,1.7251,,[],[],[],[],[],[],[],296.5391,298.5381,298.5382,298.5382,[],[],[],[],[],[],[],,298.5382,298.5382,0.019118652,-0.402353244,0,0,0,,0,48,48,74,1,3,TL,spemicen,print,spemicen_p.png,,,,,,
,,,,29756,001,2025-10-16_10h39.42.451,HW_LDT_1,2024.2.4,MacIntel,59.17159763,,,,,,,,,,,,,,,,,,,,,,298.5387,298.738,298.738,299.2391,,,,,,,,,,,,,,4.4132,1,,,,,,,,,,,,,,z,,,,,,,,,,,,,,,50,1,299.2394,303.655,z,1,4.4132,,[],[],[],[],[],[],[],303.655,305.6553,305.6554,306.6888,[],[],[],[],[],[],[],z,306.6889,306.6889,0.019118652,-0.402353244,0,0,0,,0,49,49,11,1,3,RL,ebiwent,cursive,ebiwent_c.png,1.027,,,,,
,,,,29756,001,2025-10-16_10h39.42.451,HW_LDT_1,2024.2.4,MacIntel,59.17159763,,,,,,,,,,,,,,,,,,,,,,306.6897,306.8892,306.8892,307.3891,,,,,,,,,,,,,,1.1769,1,,,,,,,,,,,,,,z,,,,,,,,,,,,,,,51,0,307.3894,308.5723,z,1,1.1769,,[],[],[],[],[],[],[],308.5723,310.5716,310.5716,310.5717,[],[],[],[],[],[],[],,310.5718,310.5718,0.019118652,-0.402353244,0,0,0,,0,50,50,48,1,3,TL,grafetul,cursive,grafetul_c.png,,,,,,
,,,,29756,001,2025-10-16_10h39.42.451,HW_LDT_1,2024.2.4,MacIntel,59.17159763,,,,,,,,,,,,,,,,,,,,,,310.5727,310.7719,310.7719,311.2723,,,,,,,,,,,,,,0.692,1,,,,,,,,,,,,,,m,,,,,,,,,,,,,,,52,1,311.2726,311.9719,m,1,0.692,,[],[],[],[],[],[],[],311.9719,313.9722,313.9723,314.922,[],[],[],[],[],[],[],m,314.922,314.922,0.019118652,-0.402353244,0,0,0,,0,51,51,111,1,3,word,INDICATE,print,indicate_p.png,0.9429,,,,,
,,,,29756,001,2025-10-16_10h39.42.451,HW_LDT_1,2024.2.4,MacIntel,59.17159763,,,,,,,,,,,,,,,,,,,,,,314.9227,315.1224,315.1224,315.6223,,,,,,,,,,,,,,2.7308,0,,,,,,,,,,,,,,m,,,,,,,,,,,,,,,53,0,315.6226,318.3555,z,0,2.7308,,[],[],[],[],[],[],[],318.3555,320.3554,320.3554,320.3555,[],[],[],[],[],[],[],,320.3555,320.3556,0.019118652,-0.402353244,0,0,0,,0,52,52,117,1,3,word,MARINE,cursive,marine_c.png,,,,,,
,,,,29756,001,2025-10-16_10h39.42.451,HW_LDT_1,2024.2.4,MacIntel,59.17159763,,,,,,,,,,,,,,,,,,,,,,320.3563,320.5555,320.5555,321.0556,,,,,,,,,,,,,,2.0139,0,,,,,,,,,,,,,,m,,,,,,,,,,,,,,,54,0,321.056,323.0712,z,0,2.0139,,[],[],[],[],[],[],[],323.0712,325.0722,325.0722,325.0723,[],[],[],[],[],[],[],,325.0724,325.0724,0.019118652,-0.402353244,0,0,0,,0,53,53,110,1,3,word,HERITAGE,cursive,heritage_c.png,,,,,,
,,,,29756,001,2025-10-16_10h39.42.451,HW_LDT_1,2024.2.4,MacIntel,59.17159763,,,,,,,,,,,,,,,,,,,,,,325.0731,325.2721,325.2721,325.7722,,,,,,,,,,,,,,0.8979,1,,,,,,,,,,,,,,z,,,,,,,,,,,,,,,55,0,325.7726,326.6714,z,1,0.8979,,[],[],[],[],[],[],[],326.6714,328.672,328.6721,328.6722,[],[],[],[],[],[],[],,328.6722,328.6723,0.019118652,-0.402353244,0,0,0,,0,54,54,14,1,3,RL,lofase,cursive,lofase_c.png,,,,,,
,,,,29756,001,2025-10-16_10h39.42.451,HW_LDT_1,2024.2.4,MacIntel,59.17159763,,,,,,,,,,,,,,,,,,,,,,328.6731,328.872,328.872,329.372,,,,,,,,,,,,,,2.5428,1,,,,,,,,,,,,,,z,,,,,,,,,,,,,,,56,0,329.3724,331.922,z,1,2.5428,,[],[],[],[],[],[],[],331.922,333.921,333.921,333.9211,[],[],[],[],[],[],[],,333.9211,333.9213,0.019118652,-0.402353244,0,0,0,,0,55,55,20,1,3,RL,orimipal,cursive,orimipal_c.png,,,,,,
,,,,29756,001,2025-10-16_10h39.42.451,HW_LDT_1,2024.2.4,MacIntel,59.17159763,,,,,,,,,,,,,,,,,,,,,,333.9219,334.122,334.1221,334.622,,,,,,,,,,,,,,0.8763,1,,,,,,,,,,,,,,z,,,,,,,,,,,,,,,57,0,334.6223,335.5053,z,1,0.8763,,[],[],[],[],[],[],[],335.5053,337.5049,337.5049,337.5052,[],[],[],[],[],[],[],,337.5052,337.5052,0.019118652,-0.402353244,0,0,0,,0,56,56,61,1,3,TL,pocily,print,pocily_p.png,,,,,,
,,,,29756,001,2025-10-16_10h39.42.451,HW_LDT_1,2024.2.4,MacIntel,59.17159763,,,,,,,,,,,,,,,,,,,,,,337.506,337.7051,337.7051,338.2047,,,,,,,,,,,,,,1.7102,1,,,,,,,,,,,,,,m,,,,,,,,,,,,,,,58,0,338.205,339.9219,m,1,1.7102,,[],[],[],[],[],[],[],339.922,341.9209,341.921,341.9211,[],[],[],[],[],[],[],,341.9211,341.9211,0.019118652,-0.402353244,0,0,0,,0,57,57,148,1,3,word,SALINE,cursive,saline_c.png,,,,,,
,,,,29756,001,2025-10-16_10h39.42.451,HW_LDT_1,2024.2.4,MacIntel,59.17159763,,,,,,,,,,,,,,,,,,,,,,341.9219,342.1215,342.1215,342.6219,,,,,,,,,,,,,,0.7591,1,,,,,,,,,,,,,,m,,,,,,,,,,,,,,,59,1,342.6223,343.3886,m,1,0.7591,,[],[],[],[],[],[],[],343.3886,345.3879,345.388,346.3875,[],[],[],[],[],[],[],m,346.3876,346.3877,0.019118652,-0.402353244,0,0,0,,0,58,58,112,1,3,word,LIBERAL,print,liberal_p.png,0.9985,,,,,
,,,,29756,001,2025-10-16_10h39.42.451,HW_LDT_1,2024.2.4,MacIntel,59.17159763,,,,,,,,,,,,,,,,,,,,,,346.3883,346.5877,346.5877,347.0884,,,,,,,,,,,,,,1.0253,1,,,,,,,,,,,,,,m,,,,,,,,,,,,,,,60,0,347.0887,348.1218,m,1,1.0253,,[],[],[],[],[],[],[],348.1219,350.1213,350.1213,350.1214,[],[],[],[],[],[],[],,350.1215,350.1215,0.019118652,-0.402353244,0,0,0,,0,59,59,82,1,3,word,AMATEUR,print,amateur_p.png,,,,,,
,,,,29756,001,2025-10-16_10h39.42.451,HW_LDT_1,2024.2.4,MacIntel,59.17159763,,,,,,,,,,,,,,,,,,,,,,350.1224,350.321,350.321,350.8218,,,,,,,,,,,,,,1.5918,1,,,,,,,,,,,,,,z,,,,,,,,,,,,,,,61,1,350.8222,352.4214,z,1,1.5918,,[],[],[],[],[],[],[],352.4214,354.4217,354.4218,356.6718,[],[],[],[],[],[],[],z,356.6718,356.6719,0.019118652,-0.402353244,0,0,0,,0,60,60,73,1,3,TL,speficic,print,speficic_p.png,2.2423,,,,,
,,,,29756,001,2025-10-16_10h39.42.451,HW_LDT_1,2024.2.4,MacIntel,59.17159763,,,,,,,,,,,,,,,,,,,,,,356.6727,356.8716,356.8717,357.3712,,,,,,,,,,,,,,1.4093,1,,,,,,,,,,,,,,m,,,,,,,,,,,,,,,62,1,357.3716,358.7879,m,1,1.4093,,[],[],[],[],[],[],[],358.788,360.7876,360.7876,361.9374,[],[],[],[],[],[],[],z,361.9374,361.9374,0.019118652,-0.402353244,0,0,0,,0,61,61,89,1,3,word,CAPACITY,cursive,capacity_c.png,1.1436,,,,,
,,,,29756,001,2025-10-16_10h39.42.451,HW_LDT_1,2024.2.4,MacIntel,59.17159763,,,,,,,,,,,,,,,,,,,,,,361.9378,362.1383,362.1383,362.6373,,,,,,,,,,,,,,0.9814,1,,,,,,,,,,,,,,m,,,,,,,,,,,,,,,63,0,362.6377,363.6209,m,1,0.9814,,[],[],[],[],[],[],[],363.6209,365.6216,365.6217,365.6217,[],[],[],[],[],[],[],,365.6218,365.6218,0.019118652,-0.402353244,0,0,0,,0,62,62,116,1,3,word,MARGINAL,print,marginal_p.png,,,,,,
,,,,29756,001,2025-10-16_10h39.42.451,HW_LDT_1,2024.2.4,MacIntel,59.17159763,,,,,,,,,,,,,,,,,,,,,,365.6226,365.8211,365.8212,366.3212,,,,,,,,,,,,,,0.7473,1,,,,,,,,,,,,,,m,,,,,,,,,,,,,,,64,0,366.3215,367.0705,m,1,0.7473,,[],[],[],[],[],[],[],367.0705,369.0716,369.0716,369.0717,[],[],[],[],[],[],[],,369.0718,369.0718,0.019118652,-0.402353244,0,0,0,,0,63,63,85,1,3,word,BENEFIT,print,benefit_p.png,,,,,,
,,,,29756,001,2025-10-16_10h39.42.451,HW_LDT_1,2024.2.4,MacIntel,59.17159763,,,,,,,,,,,,,,,,,,,,,,369.0726,369.2715,369.2715,369.7709,,,,,,,,,,,,,,1.4426,1,,,,,,,,,,,,,,z,,,,,,,,,,,,,,,65,0,369.7712,371.2213,z,1,1.4426,,[],[],[],[],[],[],[],371.2214,373.2213,373.2213,373.2215,[],[],[],[],[],[],[],,373.2215,373.2216,0.019118652,-0.402353244,0,0,0,,0,64,64,16,1,3,RL,mishafe,cursive,mishafe_c.png,,,,,,
,,,,29756,001,2025-10-16_10h39.42.451,HW_LDT_1,2024.2.4,MacIntel,59.17159763,,,,,,,,,,,,,,,,,,,,,,373.2224,373.4214,373.4214,373.9214,,,,,,,,,,,,,,0.6933,1,,,,,,,,,,,,,,m,,,,,,,,,,,,,,,66,0,373.9217,374.621,m,1,0.6933,,[],[],[],[],[],[],[],374.621,376.6213,376.6214,376.6216,[],[],[],[],[],[],[],,376.6216,376.6216,0.018044162,-0.402910834,0,0,0,,0,65,65,96,1,3,word,CONSIDER,print,consider_p.png,,,,,,
,,,,29756,001,2025-10-16_10h39.42.451,HW_LDT_1,2024.2.4,MacIntel,59.17159763,,,,,,,,,,,,,,,,,,,,,,376.6224,376.8211,376.8211,377.3212,,,,,,,,,,,,,,1.0759,1,,,,,,,,,,,,,,z,,,,,,,,,,,,,,,67,1,377.3214,378.4044,z,1,1.0759,,[],[],[],[],[],[],[],378.4045,380.404,380.404,425.9532,[],[],[],[],[],[],[],m,425.9533,425.9534,0.012458225,-0.407719659,0,0,0,,0,66,66,23,1,3,RL,quakity,print,quakity_p.png,45.5443,,,,,
,,,,29756,001,2025-10-16_10h39.42.451,HW_LDT_1,2024.2.4,MacIntel,59.17159763,,,,,,,,,,,,,,,,,,,,,,425.9538,426.1539,426.154,426.654,,,,,,,,,,,,,,1.8104,1,,,,,,,,,,,,,,z,,,,,,,,,,,,,,,68,0,426.6543,428.47,z,1,1.8104,,[],[],[],[],[],[],[],428.4701,430.4707,430.4707,430.4708,[],[],[],[],[],[],[],,430.4708,430.4709,0.012458225,-0.407719659,0,0,0,,0,67,67,49,1,3,TL,incidate,print,incidate_p.png,,,,,,
,,,,29756,001,2025-10-16_10h39.42.451,HW_LDT_1,2024.2.4,MacIntel,59.17159763,,,,,,,,,,,,,,,,,,,,,,430.4716,430.6705,430.6706,431.1701,,,,,,,,,,,,,,0.8613,0,,,,,,,,,,,,,,m,,,,,,,,,,,,,,,69,0,431.1704,432.0365,z,0,0.8613,,[],[],[],[],[],[],[],432.0366,434.0373,434.0374,434.0374,[],[],[],[],[],[],[],,434.0375,434.0375,0.012458225,-0.407719659,0,0,0,,0,68,68,128,1,3,word,PACIFIC,cursive,pacific_c.png,,,,,,
,,,,29756,001,2025-10-16_10h39.42.451,HW_LDT_1,2024.2.4,MacIntel,59.17159763,,,,,,,,,,,,,,,,,,,,,,434.0382,434.2374,434.2374,434.7368,,,,,,,,,,,,,,0.7421,1,,,,,,,,,,,,,,m,,,,,,,,,,,,,,,70,0,434.7373,435.4873,m,1,0.7421,,[],[],[],[],[],[],[],435.4874,437.4863,437.4864,437.4865,[],[],[],[],[],[],[],,437.4865,437.4866,0.012458225,-0.407719659,0,0,0,,0,69,69,155,1,3,word,STRATEGY,print,strategy_p.png,,,,,,
,,,,29756,001,2025-10-16_10h39.42.451,HW_LDT_1,2024.2.4,MacIntel,59.17159763,,,,,,,,,,,,,,,,,,,,,,437.4873,437.6873,437.6873,438.1873,,,,,,,,,,,,,,0.8421,1,,,,,,,,,,,,,,z,,,,,,,,,,,,,,,71,0,438.1876,439.0365,z,1,0.8421,,[],[],[],[],[],[],[],439.0366,441.0363,441.0363,441.0364,[],[],[],[],[],[],[],,441.0364,441.0365,0.012458225,-0.407719659,0,0,0,,0,70,70,38,1,3,TL,carnidal,print,carnidal_p.png,,,,,,
,,,,29756,001,2025-10-16_10h39.42.451,HW_LDT_1,2024.2.4,MacIntel,59.17159763,,,,,,,,,,,,,,,,,,,,,,441.0373,441.2368,441.2368,441.7372,,,,,,,,,,,,,,1.0094,1,,,,,,,,,,,,,,z,,,,,,,,,,,,,,,72,0,441.7375,442.7529,z,1,1.0094,,[],[],[],[],[],[],[],442.753,444.7537,444.7537,444.7539,[],[],[],[],[],[],[],,444.7539,444.754,0.012458225,-0.407719659,0,0,0,,0,71,71,43,1,3,TL,dedace,cursive,dedace_c.png,,,,,,
,,,,29756,001,2025-10-16_10h39.42.451,HW_LDT_1,2024.2.4,MacIntel,59.17159763,,,,,,,,,,,,,,,,,,,,,,444.7545,444.9538,444.9538,445.4529,,,,,,,,,,,,,,0.8984,1,,,,,,,,,,,,,,m,,,,,,,,,,,,,,,73,0,445.4532,446.3529,m,1,0.8984,,[],[],[],[],[],[],[],446.353,448.3534,448.3534,448.3535,[],[],[],[],[],[],[],,448.3535,448.3536,0.012458225,-0.407719659,0,0,0,,0,72,72,124,1,3,word,NUMERICAL,print,numerical_p.png,,,,,,
,,,,29756,001,2025-10-16_10h39.42.451,HW_LDT_1,2024.2.4,MacIntel,59.17159763,,,,,,,,,,,,,,,,,,,,,,448.3543,448.5538,448.5538,449.0534,,,,,,,,,,,,,,0.9628,0,,,,,,,,,,,,,,m,,,,,,,,,,,,,,,74,0,449.0537,450.0198,z,0,0.9628,,[],[],[],[],[],[],[],450.0198,452.0202,452.0203,452.0204,[],[],[],[],[],[],[],,452.0204,452.0205,0.012458225,-0.407719659,0,0,0,,0,73,73,121,1,3,word,MISTAKE,cursive,mistake_c.png,,,,,,
,,,,29756,001,2025-10-16_10h39.42.451,HW_LDT_1,2024.2.4,MacIntel,59.17159763,,,,,,,,,,,,,,,,,,,,,,452.0213,452.2204,452.2204,452.7205,,,,,,,,,,,,,,1.3641,1,,,,,,,,,,,,,,z,,,,,,,,,,,,,,,75,0,452.7209,454.086,z,1,1.3641,,[],[],[],[],[],[],[],454.0861,456.087,456.087,456.0872,[],[],[],[],[],[],[],,456.0872,456.0874,0.008897976,-0.409135742,0,0,0,,0,74,74,33,1,3,TL,adsivory,print,adsivory_p.png,,,,,,
,,,,29756,001,2025-10-16_10h39.42.451,HW_LDT_1,2024.2.4,MacIntel,59.17159763,,,,,,,,,,,,,,,,,,,,,,456.0881,456.2867,456.2867,456.7863,,,,,,,,,,,,,,1.0444,1,,,,,,,,,,,,,,m,,,,,,,,,,,,,,,76,0,456.7867,457.8361,m,1,1.0444,,[],[],[],[],[],[],[],457.8362,459.8363,459.8363,459.8364,[],[],[],[],[],[],[],,459.8364,459.8365,0.008897976,-0.409135742,0,0,0,,0,75,75,129,1,3,word,PARENT,print,parent_p.png,,,,,,
,,,,29756,001,2025-10-16_10h39.42.451,HW_LDT_1,2024.2.4,MacIntel,59.17159763,,,,,,,,,,,,,,,,,,,,,,459.8371,460.0366,460.0367,460.5369,,,,,,,,,,,,,,1.6602,1,,,,,,,,,,,,,,m,,,,,,,,,,,,,,,77,0,460.5373,462.2031,m,1,1.6602,,[],[],[],[],[],[],[],462.2032,464.2035,464.2036,464.2037,[],[],[],[],[],[],[],,464.2037,464.2037,0.008897976,-0.409135742,0,0,0,,0,76,76,143,1,3,word,REMOVAL,cursive,removal_c.png,,,,,,
,,,,29756,001,2025-10-16_10h39.42.451,HW_LDT_1,2024.2.4,MacIntel,59.17159763,,,,,,,,,,,,,,,,,,,,,,464.2043,464.4034,464.4034,464.9024,,,,,,,,,,,,,,0.7945,1,,,,,,,,,,,,,,z,,,,,,,,,,,,,,,78,0,464.9026,465.7032,z,1,0.7945,,[],[],[],[],[],[],[],465.7032,467.7035,467.7035,467.7037,[],[],[],[],[],[],[],,467.7037,467.7037,0.008897976,-0.409135742,0,0,0,,0,77,77,60,1,3,TL,panert,print,panert_p.png,,,,,,
,,,,29756,001,2025-10-16_10h39.42.451,HW_LDT_1,2024.2.4,MacIntel,59.17159763,,,,,,,,,,,,,,,,,,,,,,467.7044,467.9029,467.9029,468.4035,,,,,,,,,,,,,,0.8105,1,,,,,,,,,,,,,,m,,,,,,,,,,,,,,,79,0,468.4038,469.2199,m,1,0.8105,,[],[],[],[],[],[],[],469.2199,471.2201,471.2201,471.2202,[],[],[],[],[],[],[],,471.2202,471.2203,0.008897976,-0.409135742,0,0,0,,0,78,78,81,1,3,word,ADVISORY,print,advisory_p.png,,,,,,
,,,,29756,001,2025-10-16_10h39.42.451,HW_LDT_1,2024.2.4,MacIntel,59.17159763,,,,,,,,,,,,,,,,,,,,,,471.2209,471.4201,471.4201,471.9198,,,,,,,,,,,,,,2.5474,1,,,,,,,,,,,,,,z,,,,,,,,,,,,,,,80,1,471.9201,474.4693,z,1,2.5474,,[],[],[],[],[],[],[],474.4694,476.4698,476.4698,477.5866,[],[],[],[],[],[],[],m,477.5867,479.2197,0.008897976,-0.409135742,0,0,0,space,0,79,79,27,1,3,RL,recile,print,recile_p.png,1.1129,,1.6158,,,
,,,,29756,001,2025-10-16_10h39.42.451,HW_LDT_1,2024.2.4,MacIntel,59.17159763,,,,,,,,,,,,,,,,,,,,,,479.2204,479.42,479.4201,479.9198,,,,,,,,,,,,,,1.6932,1,,,,,,,,,,,,,,m,,,,,,,,,,,,,,,81,1,479.92,481.6196,m,1,1.6932,,[],[],[],[],[],[],[],481.6197,483.62,483.62,485.7697,[],[],[],[],[],[],[],z,485.7697,485.7699,0.008897976,-0.409135742,0,0,0,,0,80,80,100,1,3,word,DECADE,cursive,decade_c.png,2.1432,,,,,
,,,,29756,001,2025-10-16_10h39.42.451,HW_LDT_1,2024.2.4,MacIntel,59.17159763,,,,,,,,,,,,,,,,,,,,,,485.7705,485.97,485.97,486.4699,,,,,,,,,,,,,,2.4096,0,,,,,,,,,,,,,,m,,,,,,,,,,,,,,,82,1,486.4703,488.8865,z,0,2.4096,,[],[],[],[],[],[],[],488.8865,490.8861,490.8861,491.769,[],[],[],[],[],[],[],z,491.7691,491.7691,0.008897976,-0.409135742,0,0,0,,0,81,81,145,1,3,word,RESUME,cursive,resume_c.png,0.8813,,,,,
,,,,29756,001,2025-10-16_10h39.42.451,HW_LDT_1,2024.2.4,MacIntel,59.17159763,,,,,,,,,,,,,,,,,,,,,,491.7697,491.9698,491.9698,492.4689,,,,,,,,,,,,,,0.7609,1,,,,,,,,,,,,,,m,,,,,,,,,,,,,,,83,0,492.4692,493.2362,m,1,0.7609,,[],[],[],[],[],[],[],493.2364,495.2361,495.2362,495.2362,[],[],[],[],[],[],[],,495.2363,495.2364,0.008897976,-0.409135742,0,0,0,,0,82,82,91,1,3,word,CARDINAL,print,cardinal_p.png,,,,,,
,,,,29756,001,2025-10-16_10h39.42.451,HW_LDT_1,2024.2.4,MacIntel,59.17159763,,,,,,,,,,,,,,,,,,,,,,495.2372,495.4363,495.4363,495.9361,,,,,,,,,,,,,,1.0469,1,,,,,,,,,,,,,,m,,,,,,,,,,,,,,,84,0,495.9364,496.9864,m,1,1.0469,,[],[],[],[],[],[],[],496.9864,498.9864,498.9864,498.9865,[],[],[],[],[],[],[],,498.9866,498.9866,0.008897976,-0.409135742,0,0,0,,0,83,83,137,1,3,word,RAPIDLY,print,rapidly_p.png,,,,,,
,,,,29756,001,2025-10-16_10h39.42.451,HW_LDT_1,2024.2.4,MacIntel,59.17159763,,,,,,,,,,,,,,,,,,,,,,498.9873,499.1864,499.1864,499.6864,,,,,,,,,,,,,,0.8423,1,,,,,,,,,,,,,,z,,,,,,,,,,,,,,,85,0,499.6867,500.5355,z,1,0.8423,,[],[],[],[],[],[],[],500.5355,502.5364,502.5364,502.5365,[],[],[],[],[],[],[],,502.5365,502.5366,0.008897976,-0.409135742,0,0,0,,0,84,84,29,1,3,RL,selamor,cursive,selamor_c.png,,,,,,
,,,,29756,001,2025-10-16_10h39.42.451,HW_LDT_1,2024.2.4,MacIntel,59.17159763,,,,,,,,,,,,,,,,,,,,,,502.5373,502.7362,502.7363,503.2362,,,,,,,,,,,,,,1.2422,1,,,,,,,,,,,,,,m,,,,,,,,,,,,,,,86,0,503.2365,504.4858,m,1,1.2422,,[],[],[],[],[],[],[],504.4858,506.4859,506.4859,506.486,[],[],[],[],[],[],[],,506.486,506.4861,0.008897976,-0.409135742,0,0,0,,0,85,85,103,1,3,word,DISPUTE,print,dispute_p.png,,,,,,
,,,,29756,001,2025-10-16_10h39.42.451,HW_LDT_1,2024.2.4,MacIntel,59.17159763,,,,,,,,,,,,,,,,,,,,,,506.4868,506.6857,506.6858,507.1863,,,,,,,,,,,,,,1.2253,1,,,,,,,,,,,,,,z,,,,,,,,,,,,,,,87,1,507.1867,508.4196,z,1,1.2253,,[],[],[],[],[],[],[],508.4197,510.4191,510.4191,511.2195,[],[],[],[],[],[],[],z,511.2195,511.2197,0.008897976,-0.409135742,0,0,0,,0,86,86,5,1,3,RL,capefory,cursive,capefory_c.png,0.7941,,,,,
,,,,29756,001,2025-10-16_10h39.42.451,HW_LDT_1,2024.2.4,MacIntel,59.17159763,,,,,,,,,,,,,,,,,,,,,,511.2203,511.4195,511.4195,511.9193,,,,,,,,,,,,,,0.827,1,,,,,,,,,,,,,,m,,,,,,,,,,,,,,,88,0,511.9196,512.7525,m,1,0.827,,[],[],[],[],[],[],[],512.7525,514.7528,514.7529,514.7529,[],[],[],[],[],[],[],,514.753,514.7531,0.008897976,-0.409135742,0,0,0,,0,87,87,131,1,3,word,POPULAR,print,popular_p.png,,,,,,
,,,,29756,001,2025-10-16_10h39.42.451,HW_LDT_1,2024.2.4,MacIntel,59.17159763,,,,,,,,,,,,,,,,,,,,,,514.7537,514.9523,514.9524,515.4528,,,,,,,,,,,,,,1.2258,1,,,,,,,,,,,,,,m,,,,,,,,,,,,,,,89,1,515.453,516.6858,m,1,1.2258,,[],[],[],[],[],[],[],516.6858,518.6853,518.6853,519.5025,[],[],[],[],[],[],[],z,519.5025,519.5026,0.008897976,-0.409135742,0,0,0,,0,88,88,144,1,3,word,RESIDENT,cursive,resident_c.png,0.8102,,,,,
,,,,29756,001,2025-10-16_10h39.42.451,HW_LDT_1,2024.2.4,MacIntel,59.17159763,,,,,,,,,,,,,,,,,,,,,,519.5033,519.7028,519.7029,520.2028,,,,,,,,,,,,,,0.7648,1,,,,,,,,,,,,,,m,,,,,,,,,,,,,,,90,0,520.2032,520.9685,m,1,0.7648,,[],[],[],[],[],[],[],520.9686,522.9693,522.9693,522.9695,[],[],[],[],[],[],[],,522.9695,522.9695,0.008897976,-0.409135742,0,0,0,,0,89,89,118,1,3,word,MEDICINE,print,medicine_p.png,,,,,,
,,,,29756,001,2025-10-16_10h39.42.451,HW_LDT_1,2024.2.4,MacIntel,59.17159763,,,,,,,,,,,,,,,,,,,,,,522.9702,523.169,523.169,523.6688,,,,,,,,,,,,,,1.444,1,,,,,,,,,,,,,,m,,,,,,,,,,,,,,,91,0,523.6691,525.1184,m,1,1.444,,[],[],[],[],[],[],[],525.1185,527.1194,527.1194,527.1195,[],[],[],[],[],[],[],,527.1195,527.1195,0.008897976,-0.409135742,0,0,0,,0,90,90,127,1,3,word,ORIGINAL,cursive,original_c.png,,,,,,
,,,,29756,001,2025-10-16_10h39.42.451,HW_LDT_1,2024.2.4,MacIntel,59.17159763,,,,,,,,,,,,,,,,,,,,,,527.1201,527.3194,527.3195,527.8194,,,,,,,,,,,,,,4.2291,1,,,,,,,,,,,,,,z,,,,,,,,,,,,,,,92,0,527.8197,532.0525,z,1,4.2291,,[],[],[],[],[],[],[],532.0525,534.052,534.052,534.0521,[],[],[],[],[],[],[],,534.0521,534.0521,0.008897976,-0.409135742,0,0,0,,0,91,91,26,1,3,RL,repifion,print,repifion_p.png,,,,,,
,,,,29756,001,2025-10-16_10h39.42.451,HW_LDT_1,2024.2.4,MacIntel,59.17159763,,,,,,,,,,,,,,,,,,,,,,534.0528,534.2526,534.2526,534.7523,,,,,,,,,,,,,,1.1972,1,,,,,,,,,,,,,,z,,,,,,,,,,,,,,,93,0,534.7526,535.9515,z,1,1.1972,,[],[],[],[],[],[],[],535.9516,537.9526,537.9526,537.9527,[],[],[],[],[],[],[],,537.9528,537.9528,0.008897976,-0.409135742,0,0,0,,0,92,92,46,1,3,TL,distupe,print,distupe_p.png,,,,,,
,,,,29756,001,2025-10-16_10h39.42.451,HW_LDT_1,2024.2.4,MacIntel,59.17159763,,,,,,,,,,,,,,,,,,,,,,537.9537,538.1524,538.1525,538.6517,,,,,,,,,,,,,,3.2274,1,,,,,,,,,,,,,,z,,,,,,,,,,,,,,,94,0,538.6521,541.885,z,1,3.2274,,[],[],[],[],[],[],[],541.8851,543.8858,543.8858,543.8859,[],[],[],[],[],[],[],,543.8859,543.886,0.008897976,-0.409135742,0,0,0,,0,93,93,52,1,3,TL,locigal,cursive,locigal_c.png,,,,,,
,,,,29756,001,2025-10-16_10h39.42.451,HW_LDT_1,2024.2.4,MacIntel,59.17159763,,,,,,,,,,,,,,,,,,,,,,543.8867,544.0858,544.0858,544.5854,,,,,,,,,,,,,,2.226,1,,,,,,,,,,,,,,z,,,,,,,,,,,,,,,95,0,544.5857,546.8187,z,1,2.226,,[],[],[],[],[],[],[],546.8188,548.819,548.819,548.8192,[],[],[],[],[],[],[],,548.8192,548.8193,0.008897976,-0.409135742,0,0,0,,0,94,94,37,1,3,TL,cacapity,cursive,cacapity_c.png,,,,,,
,,,,29756,001,2025-10-16_10h39.42.451,HW_LDT_1,2024.2.4,MacIntel,59.17159763,,,,,,,,,,,,,,,,,,,,,,548.8199,549.019,549.0191,549.5186,,,,,,,,,,,,,,1.8938,1,,,,,,,,,,,,,,z,,,,,,,,,,,,,,,96,0,549.5189,551.419,z,1,1.8938,,[],[],[],[],[],[],[],551.4191,553.419,553.4191,553.4192,[],[],[],[],[],[],[],,553.4193,553.4193,0.008897976,-0.409135742,0,0,0,,0,95,95,0,1,3,RL,afaneur,print,afaneur_p.png,,,,,,
,,,,29756,001,2025-10-16_10h39.42.451,HW_LDT_1,2024.2.4,MacIntel,59.17159763,,,,,,,,,,,,,,,,,,,,,,553.4201,553.6189,553.6189,554.1184,,,,,,,,,,,,,,0.9463,1,,,,,,,,,,,,,,m,,,,,,,,,,,,,,,97,0,554.1188,555.0683,m,1,0.9463,,[],[],[],[],[],[],[],555.0684,557.069,557.069,557.0691,[],[],[],[],[],[],[],,557.0692,557.0692,0.008897976,-0.409135742,0,0,0,,0,96,96,130,1,3,word,POLICY,print,policy_p.png,,,,,,
,,,,29756,001,2025-10-16_10h39.42.451,HW_LDT_1,2024.2.4,MacIntel,59.17159763,,,,,,,,,,,,,,,,,,,,,,557.0701,557.2691,557.2691,557.7686,,,,,,,,,,,,,,0.9102,1,,,,,,,,,,,,,,m,,,,,,,,,,,,,,,98,0,557.769,558.6855,m,1,0.9102,,[],[],[],[],[],[],[],558.6856,560.6855,560.6855,560.6857,[],[],[],[],[],[],[],,560.6857,560.6857,0.008897976,-0.409135742,0,0,0,,0,97,97,150,1,3,word,SENTIMENT,print,sentiment_p.png,,,,,,
,,,,29756,001,2025-10-16_10h39.42.451,HW_LDT_1,2024.2.4,MacIntel,59.17159763,,,,,,,,,,,,,,,,,,,,,,560.6865,560.8855,560.8856,561.385,,,,,,,,,,,,,,1.2466,1,,,,,,,,,,,,,,z,,,,,,,,,,,,,,,99,0,561.3853,562.6355,z,1,1.2466,,[],[],[],[],[],[],[],562.6355,564.6355,564.6356,564.6357,[],[],[],[],[],[],[],,564.6357,564.6358,0.008897976,-0.409135742,0,0,0,,0,98,98,75,1,3,TL,sloten,cursive,sloten_c.png,,,,,,
,,,,29756,001,2025-10-16_10h39.42.451,HW_LDT_1,2024.2.4,MacIntel,59.17159763,,,,,,,,,,,,,,,,,,,,,,564.6366,564.8344,564.8344,565.3355,,,,,,,,,,,,,,1.1934,1,,,,,,,,,,,,,,m,,,,,,,,,,,,,,,100,0,565.3358,566.5353,m,1,1.1934,,[],[],[],[],[],[],[],566.5353,568.5355,568.5355,568.5356,[],[],[],[],[],[],[],,568.5357,568.5357,0.008897976,-0.409135742,0,0,0,,0,99,99,122,1,3,word,MOBILE,cursive,mobile_c.png,,,,,,
,,,,29756,001,2025-10-16_10h39.42.451,HW_LDT_1,2024.2.4,MacIntel,59.17159763,,,,,,,,,,,,,,,,,,,,,,568.5365,568.7352,568.7352,569.2353,,,,,,,,,,,,,,1.1099,1,,,,,,,,,,,,,,m,,,,,,,,,,,,,,,101,0,569.2356,570.3515,m,1,1.1099,,[],[],[],[],[],[],[],570.3516,572.3514,572.3514,572.3515,[],[],[],[],[],[],[],,572.3516,572.3516,0.008897976,-0.409135742,0,0,0,,0,100,100,158,1,3,word,VELOCITY,cursive,velocity_c.png,,,,,,
,,,,29756,001,2025-10-16_10h39.42.451,HW_LDT_1,2024.2.4,MacIntel,59.17159763,,,,,,,,,,,,,,,,,,,,,,572.3522,572.5519,572.5519,573.052,,,,,,,,,,,,,,0.9635,1,,,,,,,,,,,,,,m,,,,,,,,,,,,,,,102,0,573.0523,574.018,m,1,0.9635,,[],[],[],[],[],[],[],574.018,576.0187,576.0187,576.0188,[],[],[],[],[],[],[],,576.0189,576.0191,0.008897976,-0.409135742,0,0,0,,0,101,101,95,1,3,word,COMEDY,print,comedy_p.png,,,,,,
,,,,29756,001,2025-10-16_10h39.42.451,HW_LDT_1,2024.2.4,MacIntel,59.17159763,,,,,,,,,,,,,,,,,,,,,,576.0197,576.2187,576.2187,576.7186,,,,,,,,,,,,,,0.8815,1,,,,,,,,,,,,,,z,,,,,,,,,,,,,,,103,0,576.719,577.6009,z,1,0.8815,,[],[],[],[],[],[],[],577.601,579.6015,579.6016,579.6017,[],[],[],[],[],[],[],,579.6017,579.6019,0.008897976,-0.409135742,0,0,0,,0,102,102,18,1,3,RL,onegator,print,onegator_p.png,,,,,,
,,,,29756,001,2025-10-16_10h39.42.451,HW_LDT_1,2024.2.4,MacIntel,59.17159763,,,,,,,,,,,,,,,,,,,,,,579.6026,579.802,579.802,580.302,,,,,,,,,,,,,,1.3297,1,,,,,,,,,,,,,,m,,,,,,,,,,,,,,,104,0,580.3023,581.6342,m,1,1.3297,,[],[],[],[],[],[],[],581.6342,583.6349,583.6349,583.6351,[],[],[],[],[],[],[],,583.6351,583.6352,0.008897976,-0.409135742,0,0,0,,0,103,103,83,1,3,word,ANIMAL,cursive,animal_c.png,,,,,,
,,,,29756,001,2025-10-16_10h39.42.451,HW_LDT_1,2024.2.4,MacIntel,59.17159763,,,,,,,,,,,,,,,,,,,,,,583.636,583.835,583.835,584.3352,,,,,,,,,,,,,,0.8956,1,,,,,,,,,,,,,,m,,,,,,,,,,,,,,,105,0,584.3354,585.2344,m,1,0.8956,,[],[],[],[],[],[],[],585.2345,587.2351,587.2352,587.2353,[],[],[],[],[],[],[],,587.2353,587.2354,0.008897976,-0.409135742,0,0,0,,0,104,104,102,1,3,word,DENSITY,print,density_p.png,,,,,,
,,,,29756,001,2025-10-16_10h39.42.451,HW_LDT_1,2024.2.4,MacIntel,59.17159763,,,,,,,,,,,,,,,,,,,,,,587.2362,587.4351,587.4352,587.9341,,,,,,,,,,,,,,1.2101,1,,,,,,,,,,,,,,z,,,,,,,,,,,,,,,106,0,587.9345,589.1518,z,1,1.2101,,[],[],[],[],[],[],[],589.1518,591.1508,591.1508,591.1509,[],[],[],[],[],[],[],,591.1509,591.151,0.008897976,-0.409135742,0,0,0,,0,105,105,78,1,3,TL,vecolity,cursive,vecolity_c.png,,,,,,
,,,,29756,001,2025-10-16_10h39.42.451,HW_LDT_1,2024.2.4,MacIntel,59.17159763,,,,,,,,,,,,,,,,,,,,,,591.1515,591.351,591.351,591.8517,,,,,,,,,,,,,,1.3255,1,,,,,,,,,,,,,,z,,,,,,,,,,,,,,,107,0,591.8522,593.185,z,1,1.3255,,[],[],[],[],[],[],[],593.1851,595.1851,595.1852,595.1853,[],[],[],[],[],[],[],,595.1853,595.1853,0.008897976,-0.409135742,0,0,0,,0,106,106,7,1,3,RL,cobeny,print,cobeny_p.png,,,,,,
,,,,29756,001,2025-10-16_10h39.42.451,HW_LDT_1,2024.2.4,MacIntel,59.17159763,,,,,,,,,,,,,,,,,,,,,,595.1861,595.3851,595.3851,595.8852,,,,,,,,,,,,,,3.3095,1,,,,,,,,,,,,,,m,,,,,,,,,,,,,,,108,0,595.8855,599.2011,m,1,3.3095,,[],[],[],[],[],[],[],599.2011,601.201,601.201,601.201,[],[],[],[],[],[],[],,601.2011,601.2011,0.008897976,-0.409135742,0,0,0,,0,107,107,93,1,3,word,CEREMONY,cursive,ceremony_c.png,,,,,,
,,,,29756,001,2025-10-16_10h39.42.451,HW_LDT_1,2024.2.4,MacIntel,59.17159763,,,,,,,,,,,,,,,,,,,,,,601.2017,601.4016,601.4016,601.9015,,,,,,,,,,,,,,1.2922,1,,,,,,,,,,,,,,m,,,,,,,,,,,,,,,109,0,601.9019,603.2016,m,1,1.2922,,[],[],[],[],[],[],[],603.2016,605.2017,605.2017,605.2019,[],[],[],[],[],[],[],,605.2019,605.2019,0.008897976,-0.409135742,0,0,0,,0,108,108,97,1,3,word,COVERAGE,print,coverage_p.png,,,,,,
,,,,29756,001,2025-10-16_10h39.42.451,HW_LDT_1,2024.2.4,MacIntel,59.17159763,,,,,,,,,,,,,,,,,,,,,,605.2027,605.4009,605.4009,605.9016,,,,,,,,,,,,,,1.1764,1,,,,,,,,,,,,,,z,,,,,,,,,,,,,,,110,0,605.902,607.0847,z,1,1.1764,,[],[],[],[],[],[],[],607.0847,609.0848,609.0849,609.085,[],[],[],[],[],[],[],,609.085,609.085,0.008897976,-0.409135742,0,0,0,,0,109,109,77,1,3,TL,vadility,cursive,vadility_c.png,,,,,,
,,,,29756,001,2025-10-16_10h39.42.451,HW_LDT_1,2024.2.4,MacIntel,59.17159763,,,,,,,,,,,,,,,,,,,,,,609.0857,609.2849,609.2849,609.7849,,,,,,,,,,,,,,0.9627,1,,,,,,,,,,,,,,z,,,,,,,,,,,,,,,111,0,609.7852,610.7507,z,1,0.9627,,[],[],[],[],[],[],[],610.7507,612.7515,612.7515,612.7516,[],[],[],[],[],[],[],,612.7517,612.7517,0.008897976,-0.409135742,0,0,0,,0,110,110,4,1,3,RL,cafigal,cursive,cafigal_c.png,,,,,,
,,,,29756,001,2025-10-16_10h39.42.451,HW_LDT_1,2024.2.4,MacIntel,59.17159763,,,,,,,,,,,,,,,,,,,,,,612.7526,612.9508,612.9508,613.4508,,,,,,,,,,,,,,0.8612,1,,,,,,,,,,,,,,z,,,,,,,,,,,,,,,112,0,613.4511,614.3174,z,1,0.8612,,[],[],[],[],[],[],[],614.3174,616.3178,616.3179,616.318,[],[],[],[],[],[],[],,616.318,616.3181,0.008897976,-0.409135742,0,0,0,,0,111,111,51,1,3,TL,liretal,print,liretal_p.png,,,,,,
,,,,29756,001,2025-10-16_10h39.42.451,HW_LDT_1,2024.2.4,MacIntel,59.17159763,,,,,,,,,,,,,,,,,,,,,,616.319,616.5178,616.5178,617.018,,,,,,,,,,,,,,0.7598,1,,,,,,,,,,,,,,m,,,,,,,,,,,,,,,113,0,617.0183,617.7837,m,1,0.7598,,[],[],[],[],[],[],[],617.7838,619.784,619.7841,619.7843,[],[],[],[],[],[],[],,619.7843,619.7843,0.008897976,-0.409135742,0,0,0,,0,112,112,101,1,3,word,DELICATE,print,delicate_p.png,,,,,,
,,,,29756,001,2025-10-16_10h39.42.451,HW_LDT_1,2024.2.4,MacIntel,59.17159763,,,,,,,,,,,,,,,,,,,,,,619.7852,619.9844,619.9844,620.4847,,,,,,,,,,,,,,0.8753,1,,,,,,,,,,,,,,z,,,,,,,,,,,,,,,114,0,620.4851,621.3677,z,1,0.8753,,[],[],[],[],[],[],[],621.3678,623.368,623.368,623.3682,[],[],[],[],[],[],[],,623.3682,623.3683,0.008897976,-0.409135742,0,0,0,,0,113,113,47,1,3,TL,elarobate,print,elarobate_p.png,,,,,,
,,,,29756,001,2025-10-16_10h39.42.451,HW_LDT_1,2024.2.4,MacIntel,59.17159763,,,,,,,,,,,,,,,,,,,,,,623.3692,623.5673,623.5673,624.0679,,,,,,,,,,,,,,4.6454,1,,,,,,,,,,,,,,m,,,,,,,,,,,,,,,115,0,624.0683,628.7179,m,1,4.6454,,[],[],[],[],[],[],[],628.7179,630.7179,630.7179,630.718,[],[],[],[],[],[],[],,630.7181,630.7182,0.008897976,-0.409135742,0,0,0,,0,114,114,107,1,3,word,EVIDENT,cursive,evident_c.png,,,,,,
,,,,29756,001,2025-10-16_10h39.42.451,HW_LDT_1,2024.2.4,MacIntel,59.17159763,,,,,,,,,,,,,,,,,,,,,,630.7195,630.9171,630.9172,631.418,,,,,,,,,,,,,,1.2606,0,,,,,,,,,,,,,,m,,,,,,,,,,,,,,,116,1,631.4183,632.6841,z,0,1.2606,,[],[],[],[],[],[],[],632.6841,634.6837,634.6837,635.8834,[],[],[],[],[],[],[],z,635.8835,635.8835,0.008897976,-0.409135742,0,0,0,,0,115,115,99,1,3,word,DEBATE,cursive,debate_c.png,1.1941,,,,,
,,,,29756,001,2025-10-16_10h39.42.451,HW_LDT_1,2024.2.4,MacIntel,59.17159763,,,,,,,,,,,,,,,,,,,,,,635.8844,636.0846,636.0846,636.5845,,,,,,,,,,,,,,0.7932,1,,,,,,,,,,,,,,m,,,,,,,,,,,,,,,117,0,636.5848,637.3839,m,1,0.7932,,[],[],[],[],[],[],[],637.3839,639.3844,639.3844,639.3846,[],[],[],[],[],[],[],,639.3846,639.3848,0.008897976,-0.409135742,0,0,0,,0,116,116,151,1,3,word,SPECIFIC,print,specific_p.png,,,,,,
,,,,29756,001,2025-10-16_10h39.42.451,HW_LDT_1,2024.2.4,MacIntel,59.17159763,,,,,,,,,,,,,,,,,,,,,,639.3856,639.5845,639.5846,640.0842,,,,,,,,,,,,,,0.7597,1,,,,,,,,,,,,,,m,,,,,,,,,,,,,,,118,0,640.0845,640.8512,m,1,0.7597,,[],[],[],[],[],[],[],640.8513,642.8508,642.8509,642.851,[],[],[],[],[],[],[],,642.851,642.851,0.008897976,-0.409135742,0,0,0,,0,117,117,156,1,3,word,TRIBUTE,print,tribute_p.png,,,,,,
,,,,29756,001,2025-10-16_10h39.42.451,HW_LDT_1,2024.2.4,MacIntel,59.17159763,,,,,,,,,,,,,,,,,,,,,,642.8519,643.051,643.051,643.5506,,,,,,,,,,,,,,0.709,1,,,,,,,,,,,,,,z,,,,,,,,,,,,,,,119,0,643.551,644.2671,z,1,0.709,,[],[],[],[],[],[],[],644.2672,646.2677,646.2678,646.2679,[],[],[],[],[],[],[],,646.2679,646.268,0.008897976,-0.409135742,0,0,0,,0,118,118,31,1,3,RL,trilude,print,trilude_p.png,,,,,,
,,,,29756,001,2025-10-16_10h39.42.451,HW_LDT_1,2024.2.4,MacIntel,59.17159763,,,,,,,,,,,,,,,,,,,,,,646.2688,646.4677,646.4677,646.9678,,,,,,,,,,,,,,1.2113,1,,,,,,,,,,,,,,z,,,,,,,,,,,,,,,120,0,646.9681,648.1834,z,1,1.2113,,[],[],[],[],[],[],[],648.1835,650.1844,650.1844,650.1845,[],[],[],[],[],[],[],,650.1845,650.1846,0.008897976,-0.409135742,0,0,0,,0,119,119,1,1,3,RL,bewoted,cursive,bewoted_c.png,,,,,,
,,,,29756,001,2025-10-16_10h39.42.451,HW_LDT_1,2024.2.4,MacIntel,59.17159763,,,,,,,,,,,,,,,,,,,,,,650.1852,650.3844,650.3844,650.8844,,,,,,,,,,,,,,0.8754,1,,,,,,,,,,,,,,z,,,,,,,,,,,,,,,121,0,650.8848,651.7673,z,1,0.8754,,[],[],[],[],[],[],[],651.7674,653.7677,653.7677,653.7679,[],[],[],[],[],[],[],,653.7679,653.7679,0.008897976,-0.409135742,0,0,0,,0,120,120,57,1,3,TL,moredate,cursive,moredate_c.png,,,,,,
,,,,29756,001,2025-10-16_10h39.42.451,HW_LDT_1,2024.2.4,MacIntel,59.17159763,,,,,,,,,,,,,,,,,,,,,,653.7686,653.9676,653.9676,654.4675,,,,,,,,,,,,,,0.8084,1,,,,,,,,,,,,,,z,,,,,,,,,,,,,,,122,0,654.4681,655.2833,z,1,0.8084,,[],[],[],[],[],[],[],655.2834,657.2838,657.2839,657.284,[],[],[],[],[],[],[],,657.284,657.2841,0.008897976,-0.409135742,0,0,0,,0,121,121,39,1,3,TL,clicinal,print,clicinal_p.png,,,,,,
,,,,29756,001,2025-10-16_10h39.42.451,HW_LDT_1,2024.2.4,MacIntel,59.17159763,,,,,,,,,,,,,,,,,,,,,,657.2849,657.4841,657.4842,657.9838,,,,,,,,,,,,,,0.7257,1,,,,,,,,,,,,,,m,,,,,,,,,,,,,,,123,0,657.9842,658.7167,m,1,0.7257,,[],[],[],[],[],[],[],658.7167,660.7175,660.7175,660.7176,[],[],[],[],[],[],[],,660.7176,660.7177,0.008897976,-0.409135742,0,0,0,,0,122,122,142,1,3,word,REMOTE,print,remote_p.png,,,,,,
,,,,29756,001,2025-10-16_10h39.42.451,HW_LDT_1,2024.2.4,MacIntel,59.17159763,,,,,,,,,,,,,,,,,,,,,,660.7185,660.9175,660.9176,661.4166,,,,,,,,,,,,,,0.6319,1,,,,,,,,,,,,,,z,,,,,,,,,,,,,,,124,1,661.4169,662.0504,z,1,0.6319,,[],[],[],[],[],[],[],662.0504,664.0508,664.0508,664.8505,[],[],[],[],[],[],[],m,664.8505,664.8505,0.008897976,-0.409135742,0,0,0,,0,123,123,25,1,3,RL,retupar,print,retupar_p.png,0.7933,,,,,
,,,,29756,001,2025-10-16_10h39.42.451,HW_LDT_1,2024.2.4,MacIntel,59.17159763,,,,,,,,,,,,,,,,,,,,,,664.8512,665.05,665.05,665.5507,,,,,,,,,,,,,,1.2443,1,,,,,,,,,,,,,,m,,,,,,,,,,,,,,,125,0,665.5509,666.8007,m,1,1.2443,,[],[],[],[],[],[],[],666.8007,668.8004,668.8004,668.8005,[],[],[],[],[],[],[],,668.8006,668.8006,0.008897976,-0.409135742,0,0,0,,0,124,124,146,1,3,word,RETIRE,print,retire_p.png,,,,,,
,,,,29756,001,2025-10-16_10h39.42.451,HW_LDT_1,2024.2.4,MacIntel,59.17159763,,,,,,,,,,,,,,,,,,,,,,668.8014,669.0004,669.0004,669.5,,,,,,,,,,,,,,1.8437,0,,,,,,,,,,,,,,z,,,,,,,,,,,,,,,126,0,669.5005,671.3496,m,0,1.8437,,[],[],[],[],[],[],[],671.3497,673.3507,673.3508,673.3509,[],[],[],[],[],[],[],,673.3509,673.351,0.008897976,-0.409135742,0,0,0,,0,125,125,64,1,3,TL,radiply,print,radiply_p.png,,,,,,
,,,,29756,001,2025-10-16_10h39.42.451,HW_LDT_1,2024.2.4,MacIntel,59.17159763,,,,,,,,,,,,,,,,,,,,,,673.3516,673.5506,673.5506,674.0504,,,,,,,,,,,,,,0.913,1,,,,,,,,,,,,,,m,,,,,,,,,,,,,,,127,0,674.0507,674.9665,m,1,0.913,,[],[],[],[],[],[],[],674.9666,676.9673,676.9673,676.9674,[],[],[],[],[],[],[],,676.9675,676.9675,0.008897976,-0.409135742,0,0,0,,0,126,126,134,1,3,word,QUALIFY,print,qualify_p.png,,,,,,
,,,,29756,001,2025-10-16_10h39.42.451,HW_LDT_1,2024.2.4,MacIntel,59.17159763,,,,,,,,,,,,,,,,,,,,,,676.9683,677.1673,677.1673,677.6673,,,,,,,,,,,,,,4.1427,1,,,,,,,,,,,,,,z,,,,,,,,,,,,,,,128,0,677.6676,681.8171,z,1,4.1427,,[],[],[],[],[],[],[],681.8171,683.8172,683.8172,683.8174,[],[],[],[],[],[],[],,683.8174,683.8175,0.008897976,-0.409135742,0,0,0,,0,127,127,69,1,3,TL,redisent,cursive,redisent_c.png,,,,,,
,,,,29756,001,2025-10-16_10h39.42.451,HW_LDT_1,2024.2.4,MacIntel,59.17159763,,,,,,,,,,,,,,,,,,,,,,683.8184,684.0169,684.017,684.5164,,,,,,,,,,,,,,0.7937,1,,,,,,,,,,,,,,m,,,,,,,,,,,,,,,129,0,684.5168,685.317,m,1,0.7937,,[],[],[],[],[],[],[],685.3171,687.3172,687.3172,687.3173,[],[],[],[],[],[],[],,687.3174,687.3174,0.008897976,-0.409135742,0,0,0,,0,128,128,125,1,3,word,OPERATOR,print,operator_p.png,,,,,,
,,,,29756,001,2025-10-16_10h39.42.451,HW_LDT_1,2024.2.4,MacIntel,59.17159763,,,,,,,,,,,,,,,,,,,,,,687.3182,687.5172,687.5172,688.0172,,,,,,,,,,,,,,1.3969,1,,,,,,,,,,,,,,z,,,,,,,,,,,,,,,130,0,688.0176,689.4164,z,1,1.3969,,[],[],[],[],[],[],[],689.4165,691.4168,691.4168,691.4168,[],[],[],[],[],[],[],,691.4169,691.417,0.008897976,-0.409135742,0,0,0,,0,129,129,8,1,3,RL,cocewage,print,cocewage_p.png,,,,,,
,,,,29756,001,2025-10-16_10h39.42.451,HW_LDT_1,2024.2.4,MacIntel,59.17159763,,,,,,,,,,,,,,,,,,,,,,691.4175,691.6171,691.6172,692.1171,,,,,,,,,,,,,,1.8597,1,,,,,,,,,,,,,,m,,,,,,,,,,,,,,,131,0,692.1174,693.9832,m,1,1.8597,,[],[],[],[],[],[],[],693.9833,695.9837,695.9837,695.9838,[],[],[],[],[],[],[],,695.9839,695.9839,0.008897976,-0.409135742,0,0,0,,0,130,130,84,1,3,word,BELOVED,cursive,beloved_c.png,,,,,,
,,,,29756,001,2025-10-16_10h39.42.451,HW_LDT_1,2024.2.4,MacIntel,59.17159763,,,,,,,,,,,,,,,,,,,,,,695.9848,696.1837,696.1837,696.6837,,,,,,,,,,,,,,1.0925,1,,,,,,,,,,,,,,m,,,,,,,,,,,,,,,132,0,696.6841,697.7827,m,1,1.0925,,[],[],[],[],[],[],[],697.7829,699.7833,699.7834,699.7835,[],[],[],[],[],[],[],,699.7835,699.7837,0.008897976,-0.409135742,0,0,0,,0,131,131,105,1,3,word,EDITOR,print,editor_p.png,,,,,,
,,,,29756,001,2025-10-16_10h39.42.451,HW_LDT_1,2024.2.4,MacIntel,59.17159763,,,,,,,,,,,,,,,,,,,,,,699.7845,699.9834,699.9835,700.4836,,,,,,,,,,,,,,2.6288,1,,,,,,,,,,,,,,z,,,,,,,,,,,,,,,133,0,700.484,703.1162,z,1,2.6288,,[],[],[],[],[],[],[],703.1163,705.1164,705.1164,705.1166,[],[],[],[],[],[],[],,705.1166,705.1167,0.008897976,-0.409135742,0,0,0,,0,132,132,32,1,3,TL,adacemy,print,adacemy_p.png,,,,,,
,,,,29756,001,2025-10-16_10h39.42.451,HW_LDT_1,2024.2.4,MacIntel,59.17159763,,,,,,,,,,,,,,,,,,,,,,705.1175,705.317,705.317,705.8168,,,,,,,,,,,,,,0.9929,1,,,,,,,,,,,,,,m,,,,,,,,,,,,,,,134,0,705.8172,706.8167,m,1,0.9929,,[],[],[],[],[],[],[],706.8167,708.8166,708.8166,708.8167,[],[],[],[],[],[],[],,708.8167,708.8168,0.008897976,-0.409135742,0,0,0,,0,133,133,133,1,3,word,PROVIDE,print,provide_p.png,,,,,,
,,,,29756,001,2025-10-16_10h39.42.451,HW_LDT_1,2024.2.4,MacIntel,59.17159763,,,,,,,,,,,,,,,,,,,,,,708.8175,709.0167,709.0167,709.5168,,,,,,,,,,,,,,1.5261,1,,,,,,,,,,,,,,z,,,,,,,,,,,,,,,135,1,709.5172,711.0494,z,1,1.5261,,[],[],[],[],[],[],[],711.0495,713.05,713.05,714.1167,[],[],[],[],[],[],[],z,714.1168,714.1168,0.008897976,-0.409135742,0,0,0,,0,134,134,63,1,3,TL,racidal,cursive,racidal_c.png,1.0618,,,,,
,,,,29756,001,2025-10-16_10h39.42.451,HW_LDT_1,2024.2.4,MacIntel,59.17159763,,,,,,,,,,,,,,,,,,,,,,714.1176,714.3161,714.3161,714.8161,,,,,,,,,,,,,,2.043,1,,,,,,,,,,,,,,z,,,,,,,,,,,,,,,136,0,714.8164,716.8664,z,1,2.043,,[],[],[],[],[],[],[],716.8664,718.8667,718.8668,718.8668,[],[],[],[],[],[],[],,718.8669,718.867,0.008897976,-0.409135742,0,0,0,,0,135,135,68,1,3,TL,revomal,cursive,revomal_c.png,,,,,,
,,,,29756,001,2025-10-16_10h39.42.451,HW_LDT_1,2024.2.4,MacIntel,59.17159763,,,,,,,,,,,,,,,,,,,,,,718.8678,719.0667,719.0668,719.5667,,,,,,,,,,,,,,1.0763,1,,,,,,,,,,,,,,z,,,,,,,,,,,,,,,137,0,719.5671,720.6497,z,1,1.0763,,[],[],[],[],[],[],[],720.6498,722.6497,722.6497,722.6498,[],[],[],[],[],[],[],,722.6498,722.6499,0.008897976,-0.409135742,0,0,0,,0,136,136,79,1,3,TL,veretan,cursive,veretan_c.png,,,,,,
,,,,29756,001,2025-10-16_10h39.42.451,HW_LDT_1,2024.2.4,MacIntel,59.17159763,,,,,,,,,,,,,,,,,,,,,,722.6504,722.8491,722.8491,723.35,,,,,,,,,,,,,,1.4765,0,,,,,,,,,,,,,,m,,,,,,,,,,,,,,,138,1,723.3504,724.8331,z,0,1.4765,,[],[],[],[],[],[],[],724.8331,726.8324,726.8324,727.6164,[],[],[],[],[],[],[],z,727.6164,727.6166,0.008897976,-0.409135742,0,0,0,,0,137,137,123,1,3,word,MODERATE,cursive,moderate_c.png,0.7779,,,,,
,,,,29756,001,2025-10-16_10h39.42.451,HW_LDT_1,2024.2.4,MacIntel,59.17159763,,,,,,,,,,,,,,,,,,,,,,727.6174,727.8163,727.8163,728.3165,,,,,,,,,,,,,,0.7599,1,,,,,,,,,,,,,,z,,,,,,,,,,,,,,,139,0,728.3168,729.0829,z,1,0.7599,,[],[],[],[],[],[],[],729.083,731.082,731.082,731.0822,[],[],[],[],[],[],[],,731.0822,731.0822,0.008897976,-0.409135742,0,0,0,,0,138,138,54,1,3,TL,manire,cursive,manire_c.png,,,,,,
,,,,29756,001,2025-10-16_10h39.42.451,HW_LDT_1,2024.2.4,MacIntel,59.17159763,,,,,,,,,,,,,,,,,,,,,,731.0827,731.2826,731.2827,731.7826,,,,,,,,,,,,,,1.9144,1,,,,,,,,,,,,,,z,,,,,,,,,,,,,,,140,0,731.783,733.6987,z,1,1.9144,,[],[],[],[],[],[],[],733.6988,735.6998,735.6998,735.7,[],[],[],[],[],[],[],,735.7,735.7,0.008897976,-0.409135742,0,0,0,,0,139,139,35,1,3,TL,cateferia,print,cateferia_p.png,,,,,,
,,,,29756,001,2025-10-16_10h39.42.451,HW_LDT_1,2024.2.4,MacIntel,59.17159763,,,,,,,,,,,,,,,,,,,,,,735.7008,735.8997,735.8998,736.3998,,,,,,,,,,,,,,1.3587,1,,,,,,,,,,,,,,z,,,,,,,,,,,,,,,141,0,736.4003,737.7663,z,1,1.3587,,[],[],[],[],[],[],[],737.7663,739.7655,739.7656,739.7657,[],[],[],[],[],[],[],,739.7658,739.7659,0.008897976,-0.409135742,0,0,0,,0,140,140,3,1,3,RL,bebine,cursive,bebine_c.png,,,,,,
,,,,29756,001,2025-10-16_10h39.42.451,HW_LDT_1,2024.2.4,MacIntel,59.17159763,,,,,,,,,,,,,,,,,,,,,,739.7665,739.9664,739.9665,740.4664,,,,,,,,,,,,,,0.8972,1,,,,,,,,,,,,,,z,,,,,,,,,,,,,,,142,0,740.4667,741.3664,z,1,0.8972,,[],[],[],[],[],[],[],741.3664,743.3655,743.3656,743.3657,[],[],[],[],[],[],[],,743.3657,743.3658,0.008897976,-0.409135742,0,0,0,,0,141,141,2,1,3,RL,betemit,print,betemit_p.png,,,,,,
,,,,29756,001,2025-10-16_10h39.42.451,HW_LDT_1,2024.2.4,MacIntel,59.17159763,,,,,,,,,,,,,,,,,,,,,,743.3663,743.5663,743.5663,744.0664,,,,,,,,,,,,,,1.6468,1,,,,,,,,,,,,,,z,,,,,,,,,,,,,,,143,0,744.0667,745.7153,z,1,1.6468,,[],[],[],[],[],[],[],745.7153,747.716,747.7161,747.7162,[],[],[],[],[],[],[],,747.7163,747.7163,0.008897976,-0.409135742,0,0,0,,0,142,142,9,1,3,RL,docirant,print,docirant_p.png,,,,,,
,,,,29756,001,2025-10-16_10h39.42.451,HW_LDT_1,2024.2.4,MacIntel,59.17159763,,,,,,,,,,,,,,,,,,,,,,747.7172,747.9162,747.9162,748.4156,,,,,,,,,,,,,,2.2438,1,,,,,,,,,,,,,,m,,,,,,,,,,,,,,,144,0,748.416,750.6662,m,1,2.2438,,[],[],[],[],[],[],[],750.6663,752.6657,752.6657,752.6658,[],[],[],[],[],[],[],,752.6658,752.6659,0.008897976,-0.409135742,0,0,0,,0,143,143,86,1,3,word,BESIDE,cursive,beside_c.png,,,,,,
,,,,29756,001,2025-10-16_10h39.42.451,HW_LDT_1,2024.2.4,MacIntel,59.17159763,,,,,,,,,,,,,,,,,,,,,,752.6667,752.8659,752.8659,753.3662,,,,,,,,,,,,,,3.2605,1,,,,,,,,,,,,,,z,,,,,,,,,,,,,,,145,0,753.3665,756.632,z,1,3.2605,,[],[],[],[],[],[],[],756.6321,758.6321,758.6321,758.6323,[],[],[],[],[],[],[],,758.6324,758.6324,0.008897976,-0.409135742,0,0,0,,0,144,144,56,1,3,TL,meromy,print,meromy_p.png,,,,,,
,,,,29756,001,2025-10-16_10h39.42.451,HW_LDT_1,2024.2.4,MacIntel,59.17159763,,,,,,,,,,,,,,,,,,,,,,758.6332,758.8321,758.8321,759.3321,,,,,,,,,,,,,,3.1773,1,,,,,,,,,,,,,,m,,,,,,,,,,,,,,,146,0,759.3324,762.5162,m,1,3.1773,,[],[],[],[],[],[],[],762.5162,764.5155,764.5156,764.5157,[],[],[],[],[],[],[],,764.5157,764.5158,0.008897976,-0.409135742,0,0,0,,0,145,145,159,1,3,word,VETERAN,cursive,veteran_c.png,,,,,,
,,,,29756,001,2025-10-16_10h39.42.451,HW_LDT_1,2024.2.4,MacIntel,59.17159763,,,,,,,,,,,,,,,,,,,,,,764.5166,764.7161,764.7161,765.2149,,,,,,,,,,,,,,2.0105,1,,,,,,,,,,,,,,z,,,,,,,,,,,,,,,147,0,765.2151,767.2321,z,1,2.0105,,[],[],[],[],[],[],[],767.2322,769.2318,769.2318,769.232,[],[],[],[],[],[],[],,769.232,769.2321,0.008897976,-0.409135742,0,0,0,,0,146,146,67,1,3,TL,retome,print,retome_p.png,,,,,,
,,,,29756,001,2025-10-16_10h39.42.451,HW_LDT_1,2024.2.4,MacIntel,59.17159763,,,,,,,,,,,,,,,,,,,,,,769.2329,769.4321,769.4321,769.9322,,,,,,,,,,,,,,1.1468,1,,,,,,,,,,,,,,z,,,,,,,,,,,,,,,148,0,769.9325,771.0818,z,1,1.1468,,[],[],[],[],[],[],[],771.0818,773.0821,773.0822,773.0823,[],[],[],[],[],[],[],,773.0823,773.0824,0.008897976,-0.409135742,0,0,0,,0,147,147,72,1,3,TL,senmitent,print,senmitent_p.png,,,,,,
,,,,29756,001,2025-10-16_10h39.42.451,HW_LDT_1,2024.2.4,MacIntel,59.17159763,,,,,,,,,,,,,,,,,,,,,,773.0832,773.2825,773.2825,773.7821,,,,,,,,,,,,,,1.1932,1,,,,,,,,,,,,,,m,,,,,,,,,,,,,,,149,0,773.7825,774.982,m,1,1.1932,,[],[],[],[],[],[],[],774.982,776.982,776.982,776.9821,[],[],[],[],[],[],[],,776.9821,776.9823,0.008897976,-0.409135742,0,0,0,,0,148,148,119,1,3,word,MEMORY,print,memory_p.png,,,,,,
,,,,29756,001,2025-10-16_10h39.42.451,HW_LDT_1,2024.2.4,MacIntel,59.17159763,,,,,,,,,,,,,,,,,,,,,,776.9829,777.1821,777.1821,777.682,,,,,,,,,,,,,,1.6441,1,,,,,,,,,,,,,,z,,,,,,,,,,,,,,,150,1,777.6823,779.3321,z,1,1.6441,,[],[],[],[],[],[],[],779.3323,781.3318,781.3318,782.2986,[],[],[],[],[],[],[],z,782.2987,782.2988,0.008897976,-0.409135742,0,0,0,,0,149,149,42,1,3,TL,detabe,cursive,detabe_c.png,0.9613,,,,,
,,,,29756,001,2025-10-16_10h39.42.451,HW_LDT_1,2024.2.4,MacIntel,59.17159763,,,,,,,,,,,,,,,,,,,,,,782.2995,782.4985,782.4986,782.9985,,,,,,,,,,,,,,0.9601,1,,,,,,,,,,,,,,m,,,,,,,,,,,,,,,151,0,782.9988,783.9659,m,1,0.9601,,[],[],[],[],[],[],[],783.9659,785.9658,785.9659,785.966,[],[],[],[],[],[],[],,785.966,785.9661,0.008897976,-0.409135742,0,0,0,,0,150,150,152,1,3,word,SPECIMEN,print,specimen_p.png,,,,,,
,,,,29756,001,2025-10-16_10h39.42.451,HW_LDT_1,2024.2.4,MacIntel,59.17159763,,,,,,,,,,,,,,,,,,,,,,785.9668,786.1652,786.1653,786.6649,,,,,,,,,,,,,,0.9276,0,,,,,,,,,,,,,,m,,,,,,,,,,,,,,,152,0,786.6652,787.5985,z,0,0.9276,,[],[],[],[],[],[],[],787.5985,789.5985,789.5985,789.5986,[],[],[],[],[],[],[],,789.5987,789.5987,0.008897976,-0.409135742,0,0,0,,0,151,151,108,1,3,word,FORTUNE,cursive,fortune_c.png,,,,,,
,,,,29756,001,2025-10-16_10h39.42.451,HW_LDT_1,2024.2.4,MacIntel,59.17159763,,,,,,,,,,,,,,,,,,,,,,789.5992,789.7985,789.7986,790.2985,,,,,,,,,,,,,,1.6131,1,,,,,,,,,,,,,,m,,,,,,,,,,,,,,,153,0,790.2989,791.915,m,1,1.6131,,[],[],[],[],[],[],[],791.915,793.9146,793.9147,793.9148,[],[],[],[],[],[],[],,793.9148,793.9148,0.008897976,-0.409135742,0,0,0,,0,152,152,115,1,3,word,LOGICAL,cursive,logical_c.png,,,,,,
,,,,29756,001,2025-10-16_10h39.42.451,HW_LDT_1,2024.2.4,MacIntel,59.17159763,,,,,,,,,,,,,,,,,,,,,,793.9155,794.1153,794.1153,794.6157,,,,,,,,,,,,,,0.9264,1,,,,,,,,,,,,,,z,,,,,,,,,,,,,,,154,0,794.616,795.5484,z,1,0.9264,,[],[],[],[],[],[],[],795.5485,797.5487,797.5487,797.5488,[],[],[],[],[],[],[],,797.5489,797.5489,0.008897976,-0.409135742,0,0,0,,0,153,153,22,1,3,RL,procogal,print,procogal_p.png,,,,,,
,,,,29756,001,2025-10-16_10h39.42.451,HW_LDT_1,2024.2.4,MacIntel,59.17159763,,,,,,,,,,,,,,,,,,,,,,797.5497,797.7485,797.7486,798.2485,,,,,,,,,,,,,,5.5591,1,,,,,,,,,,,,,,z,,,,,,,,,,,,,,,155,0,798.2488,803.8155,z,1,5.5591,,[],[],[],[],[],[],[],803.8156,805.8155,805.8155,805.8158,[],[],[],[],[],[],[],,805.8158,805.8158,0.008897976,-0.409135742,0,0,0,,0,154,154,6,1,3,RL,cenesony,cursive,cenesony_c.png,,,,,,
,,,,29756,001,2025-10-16_10h39.42.451,HW_LDT_1,2024.2.4,MacIntel,59.17159763,,,,,,,,,,,,,,,,,,,,,,805.8167,806.0153,806.0153,806.5156,,,,,,,,,,,,,,1.3818,0,,,,,,,,,,,,,,m,,,,,,,,,,,,,,,156,0,806.516,807.8984,z,0,1.3818,,[],[],[],[],[],[],[],807.8984,809.8985,809.8987,809.8988,[],[],[],[],[],[],[],,809.8988,809.8989,0.008897976,-0.409135742,0,0,0,,0,155,155,88,1,3,word,CAMERA,cursive,camera_c.png,,,,,,
,,,,29756,001,2025-10-16_10h39.42.451,HW_LDT_1,2024.2.4,MacIntel,59.17159763,,,,,,,,,,,,,,,,,,,,,,809.8997,810.0986,810.0987,810.5985,,,,,,,,,,,,,,0.7772,1,,,,,,,,,,,,,,m,,,,,,,,,,,,,,,157,0,810.5988,811.3821,m,1,0.7772,,[],[],[],[],[],[],[],811.3821,813.3821,813.3822,813.3822,[],[],[],[],[],[],[],,813.3823,813.3824,0.008897976,-0.409135742,0,0,0,,0,156,156,106,1,3,word,ELABORATE,print,elaborate_p.png,,,,,,
,,,,29756,001,2025-10-16_10h39.42.451,HW_LDT_1,2024.2.4,MacIntel,59.17159763,,,,,,,,,,,,,,,,,,,,,,813.3831,813.5815,813.5815,814.0814,,,,,,,,,,,,,,0.9756,1,,,,,,,,,,,,,,z,,,,,,,,,,,,,,,158,1,814.0819,815.0666,z,1,0.9756,,[],[],[],[],[],[],[],815.0666,817.0654,817.0654,817.982,[],[],[],[],[],[],[],m,817.9821,817.9821,0.008897976,-0.409135742,0,0,0,,0,157,157,30,1,3,RL,strapely,print,strapely_p.png,0.9097,,,,,
,,,,29756,001,2025-10-16_10h39.42.451,HW_LDT_1,2024.2.4,MacIntel,59.17159763,,,,,,,,,,,,,,,,,,,,,,817.9828,818.1821,818.1821,818.6812,,,,,,,,,,,,,,2.1275,0,,,,,,,,,,,,,,m,,,,,,,,,,,,,,,159,0,818.6815,820.8148,z,0,2.1275,,[],[],[],[],[],[],[],820.8148,822.815,822.815,822.8151,[],[],[],[],[],[],[],,822.8152,822.8152,0.008897976,-0.409135742,0,0,0,,0,158,158,147,1,3,word,ROMANTIC,cursive,romantic_c.png,,,,,,
,,,,29756,001,2025-10-16_10h39.42.451,HW_LDT_1,2024.2.4,MacIntel,59.17159763,,,,,,,,,,,,,,,,,,,,,,822.8161,823.0149,823.0149,823.5152,,,,,,,,,,,,,,2.7442,1,,,,,,,,,,,,,,z,,,,,,,,,,,,,,,160,0,823.5157,826.2646,z,1,2.7442,,[],[],[],[],[],[],[],826.2646,828.2651,828.2651,828.2652,[],[],[],[],[],[],[],,828.2653,828.2654,0.008897976,-0.409135742,0,0,0,,0,159,159,19,1,3,RL,opcifal,cursive,opcifal_c.png,,,,,,
,,,,29756,001,2025-10-16_10h39.42.451,HW_LDT_1,2024.2.4,MacIntel,59.17159763,,,,,,,,,,,,,,,,,,,,,,,,,,,,,,,,,,,,,,,,,,,,,,,,,,,,,,,,,,,,,,,,,,,,,,,,,,,,,,,,,,,,,,,,,,,,,,,,,,,,,,,,,,,,,,,,,,,,,,828.2728,833.2654
