counterbalance_lists.group,counterbalance_lists.remaining,get_list.started,get_list.stopped,participant,session,date,expName,psychopyVersion,OS,frameRate,Instructions.started,Instructions.stopped,key_resp.keys,instr_done_touch.x,instr_done_touch.y,instr_done_touch.leftButton,instr_done_touch.midButton,instr_done_touch.rightButton,instr_done_touch.clicked_name,start_instr.thisRepN,start_instr.thisTrialN,start_instr.thisN,start_instr.thisIndex,start_instr.ran,pageN,phase,instruct_text,has_image,instruct_image,key_resp.rt,key_resp.duration,showProgress.started,showProgress.stopped,fix.started,fix.stopped,prac.started,prac.stopped,response.keys,response.corr,response.rt,response.duration,touch_resp.x,touch_resp.y,touch_resp.leftButton,touch_resp.midButton,touch_resp.rightButton,touch_resp.time,touch_resp.clicked_name,rt,corr,feedback.started,feedback.stopped,trials.thisRepN,trials.thisTrialN,trials.thisN,trials.thisIndex,trials.ran,TrialID,StimulusType,Condition,PrimeDuration,Prime,Target,corrAns,Instructions_expt.started,Instructions_expt.stopped,key_resp_3.keys,key_resp_3.rt,key_resp_3.duration,instr_done_touch_3.x,instr_done_touch_3.y,instr_done_touch_3.leftButton,instr_done_touch_3.midButton,instr_done_touch_3.rightButton,instr_experiment.thisRepN,instr_experiment.thisTrialN,instr_experiment.thisN,instr_experiment.thisIndex,instr_experiment.ran,trialID,flag,maintask.started,maintask.stopped,key_resp_2.keys,key_resp_2.corr,key_resp_2.rt,key_resp_2.duration,targ_click.x,targ_click.y,targ_click.leftButton,targ_click.midButton,targ_click.rightButton,targ_click.time,targ_click.clicked_name,ITI.started,ITI.stopped,probe.started,probe.stopped,click_probe.x,click_probe.y,click_probe.leftButton,click_probe.midButton,click_probe.rightButton,click_probe.time,click_probe.clicked_name,key_resp_probe.keys,Break.started,Break.stopped,break_done_touch.x,break_done_touch.y,break_done_touch.leftButton,break_done_touch.midButton,break_done_touch.rightButton,break_done_keyboard.keys,list4_trials.thisRepN,list4_trials.thisTrialN,list4_trials.thisN,list4_trials.thisIndex,list4_trials.ran,list_id,item_type,string,font,stim_file,key_resp_probe.rt,key_resp_probe.duration,break_done_keyboard.rt,break_done_keyboard.duration,End.started,End.stopped
list4,,0.4167,0.4169,30019,001,2025-10-24_14h38.50.263,HW_LDT_1,2024.2.4,MacIntel,62.89308176,,,,,,,,,,,,,,,,,,,,,,,,,,,,,,,,,,,,,,,,,,,,,,,,,,,,,,,,,,,,,,,,,,,,,,,,,,,,,,,,,,,,,,,,,,,,,,,,,,,,,,,,,,,,,,,,,,,,,,,,
,,,,30019,001,2025-10-24_14h38.50.263,HW_LDT_1,2024.2.4,MacIntel,62.89308176,0.434,57.0408,,-0.025134549,-0.418020833,1,0,0,instr_done_button,0,0,0,0,1,1,instructions,"INSTRUCTIONS
At the start of each trial, look at the plus sign  (+) in the center of the screen.  This tells you that a trial is about to begin and where to look. Second, the plus sign will disappear and a string of letters will appear. Your task is to determine if the string of letters is a word or not. If the item is a word press the M key (on keyboard)  or touch the word button (phone/tablet).  If the item is not a word,  press the  Z key (on keyboard)  or touch the nonword button (on phone/tablet). The items will be presented for a short time. 
Press the space bar or touch  continue.",0,,,,,,,,,,,,,,,,,,,,,,,,,,,,,,,,,,,,,,,,,,,,,,,,,,,,,,,,,,,,,,,,,,,,,,,,,,,,,,,,,,,,,,,,,,,,,,,,,,,,,,
,,,,30019,001,2025-10-24_14h38.50.263,HW_LDT_1,2024.2.4,MacIntel,62.89308176,57.0425,63.9069,,-0.012565104,-0.393893229,1,0,0,instr_done_button,0,1,1,1,1,2,instructions,"If your device has a keyboard, press the 'Z' key for nonwords and the 'M' key for words.





Press the space bar or touch the button below to continue.",0,keyboard-example.gif,,,,,,,,,,,,,,,,,,,,,,,,,,,,,,,,,,,,,,,,,,,,,,,,,,,,,,,,,,,,,,,,,,,,,,,,,,,,,,,,,,,,,,,,,,,,,,,,,,,,,
,,,,30019,001,2025-10-24_14h38.50.263,HW_LDT_1,2024.2.4,MacIntel,62.89308176,63.9083,69.4245,space,-0.012699653,-0.396527778,0,0,0,,0,2,2,2,1,3,instructions,"If you are using a touchscreen only device, use the buttons on the screen. Do not use the mouse.





Press the space bar or touch the button below to continue.",0,touchscreen-example.gif,5.4933,,,,,,,,,,,,,,,,,,,,,,,,,,,,,,,,,,,,,,,,,,,,,,,,,,,,,,,,,,,,,,,,,,,,,,,,,,,,,,,,,,,,,,,,,,,,,,,,,,,,
,,,,30019,001,2025-10-24_14h38.50.263,HW_LDT_1,2024.2.4,MacIntel,62.89308176,69.4265,81.4899,space,-0.012699653,-0.396527778,0,0,0,,0,3,3,3,1,4,instructions,"It is very important that you respond as quickly and accurately as possible, as each letter string will only be on the screen for two seconds. If you do not respond within this time, the message 'Too slow!' will be displayed and the experiment will progress to the next letter string. The first 20 trials will be practice trials and you will receive feedback on your answers. 

Press the space bar or touch the button below to start the practice trials.",0,,12.043,,,,,,,,,,,,,,,,,,,,,,,,,,,,,,,,,,,,,,,,,,,,,,,,,,,,,,,,,,,,,,,,,,,,,,,,,,,,,,,,,,,,,,,,,,,,,,,,,,,,
,,,,30019,001,2025-10-24_14h38.50.263,HW_LDT_1,2024.2.4,MacIntel,62.89308176,,,,,,,,,,,,,,,,,,,,,,81.5206,81.6908,81.6911,82.1909,82.1911,83.7405,m,1,1.5224,,[],[],[],[],[],[],[],1.5224,1,83.7408,84.241,0,0,0,7,1,1008,WORD,UN,16,hurdle,VOLUME,m,,,,,,,,,,,,,,,,,,,,,,,,,,,,,,,,,,,,,,,,,,,,,,,,,,,,,,,,,,,,,,,,,,
,,,,30019,001,2025-10-24_14h38.50.263,HW_LDT_1,2024.2.4,MacIntel,62.89308176,,,,,,,,,,,,,,,,,,,,,,84.2423,84.4408,84.4408,84.9408,84.9419,85.8909,z,1,0.9275,,[],[],[],[],[],[],[],0.9275,1,85.891,86.39,0,1,1,15,1,1016,NW,UN,16,mushed,WHAISE,z,,,,,,,,,,,,,,,,,,,,,,,,,,,,,,,,,,,,,,,,,,,,,,,,,,,,,,,,,,,,,,,,,,
,,,,30019,001,2025-10-24_14h38.50.263,HW_LDT_1,2024.2.4,MacIntel,62.89308176,,,,,,,,,,,,,,,,,,,,,,86.3914,86.5899,86.5899,87.091,87.092,88.3077,m,0,1.1967,,[],[],[],[],[],[],[],1.1967,0,88.3086,88.8076,0,2,2,10,1,1011,NW,"ID",16,inlade,INLADE,z,,,,,,,,,,,,,,,,,,,,,,,,,,,,,,,,,,,,,,,,,,,,,,,,,,,,,,,,,,,,,,,,,,
,,,,30019,001,2025-10-24_14h38.50.263,HW_LDT_1,2024.2.4,MacIntel,62.89308176,,,,,,,,,,,,,,,,,,,,,,88.8091,89.0075,89.0076,89.5074,89.508,90.3406,z,1,0.816,,[],[],[],[],[],[],[],0.816,1,90.3415,90.841,0,3,3,11,1,1012,NW,"ID",16,rashet,RASHET,z,,,,,,,,,,,,,,,,,,,,,,,,,,,,,,,,,,,,,,,,,,,,,,,,,,,,,,,,,,,,,,,,,,
,,,,30019,001,2025-10-24_14h38.50.263,HW_LDT_1,2024.2.4,MacIntel,62.89308176,,,,,,,,,,,,,,,,,,,,,,90.8424,91.041,91.041,91.5409,91.5421,92.2243,m,1,0.6623,,[],[],[],[],[],[],[],0.6623,1,92.2243,92.7236,0,4,4,3,1,1004,WORD,"ID",16,matrix,MATRIX,m,,,,,,,,,,,,,,,,,,,,,,,,,,,,,,,,,,,,,,,,,,,,,,,,,,,,,,,,,,,,,,,,,,
,,,,30019,001,2025-10-24_14h38.50.263,HW_LDT_1,2024.2.4,MacIntel,62.89308176,,,,,,,,,,,,,,,,,,,,,,92.7248,92.9245,92.9245,93.4244,93.4255,94.0233,m,1,0.5775,,[],[],[],[],[],[],[],0.5775,1,94.0236,94.5243,0,5,5,5,1,1006,WORD,UN,33,frenzy,OBTAIN,m,,,,,,,,,,,,,,,,,,,,,,,,,,,,,,,,,,,,,,,,,,,,,,,,,,,,,,,,,,,,,,,,,,
,,,,30019,001,2025-10-24_14h38.50.263,HW_LDT_1,2024.2.4,MacIntel,62.89308176,,,,,,,,,,,,,,,,,,,,,,94.5255,94.7244,94.7245,95.2234,95.2244,96.0568,z,1,0.8132,,[],[],[],[],[],[],[],0.8132,1,96.0568,96.5567,0,6,6,13,1,1014,NW,UN,33,winfer,ROUPET,z,,,,,,,,,,,,,,,,,,,,,,,,,,,,,,,,,,,,,,,,,,,,,,,,,,,,,,,,,,,,,,,,,,
,,,,30019,001,2025-10-24_14h38.50.263,HW_LDT_1,2024.2.4,MacIntel,62.89308176,,,,,,,,,,,,,,,,,,,,,,96.5579,96.7577,96.7579,97.2578,97.2589,97.9078,m,1,0.6287,,[],[],[],[],[],[],[],0.6287,1,97.9079,98.4069,0,7,7,4,1,1005,WORD,UN,33,abound,SQUEAK,m,,,,,,,,,,,,,,,,,,,,,,,,,,,,,,,,,,,,,,,,,,,,,,,,,,,,,,,,,,,,,,,,,,
,,,,30019,001,2025-10-24_14h38.50.263,HW_LDT_1,2024.2.4,MacIntel,62.89308176,,,,,,,,,,,,,,,,,,,,,,98.4083,98.6077,98.6078,99.1068,99.1079,99.9909,z,1,0.874,,[],[],[],[],[],[],[],0.874,1,99.991,100.4912,0,8,8,9,1,1010,NW,"ID",33,fariny,FARINY,z,,,,,,,,,,,,,,,,,,,,,,,,,,,,,,,,,,,,,,,,,,,,,,,,,,,,,,,,,,,,,,,,,,
,,,,30019,001,2025-10-24_14h38.50.263,HW_LDT_1,2024.2.4,MacIntel,62.89308176,,,,,,,,,,,,,,,,,,,,,,100.4927,100.6907,100.6908,101.1903,101.1911,101.9414,m,1,0.7289,,[],[],[],[],[],[],[],0.7289,1,101.9416,102.4413,0,9,9,0,1,1001,WORD,"ID",33,utopia,UTOPIA,m,,,,,,,,,,,,,,,,,,,,,,,,,,,,,,,,,,,,,,,,,,,,,,,,,,,,,,,,,,,,,,,,,,
,,,,30019,001,2025-10-24_14h38.50.263,HW_LDT_1,2024.2.4,MacIntel,62.89308176,,,,,,,,,,,,,,,,,,,,,,102.4426,102.6403,102.6403,103.1412,103.1421,103.9903,z,1,0.8317,,[],[],[],[],[],[],[],0.8317,1,103.9903,104.4903,0,10,10,12,1,1013,NW,UN,33,adveil,SPRINY,z,,,,,,,,,,,,,,,,,,,,,,,,,,,,,,,,,,,,,,,,,,,,,,,,,,,,,,,,,,,,,,,,,,
,,,,30019,001,2025-10-24_14h38.50.263,HW_LDT_1,2024.2.4,MacIntel,62.89308176,,,,,,,,,,,,,,,,,,,,,,104.4914,104.6912,104.6912,105.1914,105.1923,105.9739,z,1,0.762,,[],[],[],[],[],[],[],0.762,1,105.974,106.4749,0,11,11,14,1,1015,NW,UN,16,miaber,THRALE,z,,,,,,,,,,,,,,,,,,,,,,,,,,,,,,,,,,,,,,,,,,,,,,,,,,,,,,,,,,,,,,,,,,
,,,,30019,001,2025-10-24_14h38.50.263,HW_LDT_1,2024.2.4,MacIntel,62.89308176,,,,,,,,,,,,,,,,,,,,,,106.4764,106.6737,106.6737,107.1746,107.1753,108.0576,z,1,0.8687,,[],[],[],[],[],[],[],0.8687,1,108.0577,108.558,0,12,12,8,1,1009,NW,"ID",33,aslert,ASLERT,z,,,,,,,,,,,,,,,,,,,,,,,,,,,,,,,,,,,,,,,,,,,,,,,,,,,,,,,,,,,,,,,,,,
,,,,30019,001,2025-10-24_14h38.50.263,HW_LDT_1,2024.2.4,MacIntel,62.89308176,,,,,,,,,,,,,,,,,,,,,,108.5594,108.7581,108.7581,109.258,109.2591,109.9406,m,1,0.6725,,[],[],[],[],[],[],[],0.6725,1,109.9407,110.4414,0,13,13,1,1,1002,WORD,"ID",33,adjust,ADJUST,m,,,,,,,,,,,,,,,,,,,,,,,,,,,,,,,,,,,,,,,,,,,,,,,,,,,,,,,,,,,,,,,,,,
,,,,30019,001,2025-10-24_14h38.50.263,HW_LDT_1,2024.2.4,MacIntel,62.89308176,,,,,,,,,,,,,,,,,,,,,,110.4424,110.6413,110.6413,111.1405,111.1414,111.8238,m,1,0.6669,,[],[],[],[],[],[],[],0.6669,1,111.8239,112.3249,0,14,14,6,1,1007,WORD,UN,16,tropic,ZOMBIE,m,,,,,,,,,,,,,,,,,,,,,,,,,,,,,,,,,,,,,,,,,,,,,,,,,,,,,,,,,,,,,,,,,,
,,,,30019,001,2025-10-24_14h38.50.263,HW_LDT_1,2024.2.4,MacIntel,62.89308176,,,,,,,,,,,,,,,,,,,,,,112.3261,112.5247,112.5248,113.0239,113.0247,113.7916,m,1,0.7495,,[],[],[],[],[],[],[],0.7495,1,113.7917,114.2905,0,15,15,2,1,1003,WORD,"ID",16,almond,ALMOND,m,,,,,,,,,,,,,,,,,,,,,,,,,,,,,,,,,,,,,,,,,,,,,,,,,,,,,,,,,,,,,,,,,,
,,,,30019,001,2025-10-24_14h38.50.263,HW_LDT_1,2024.2.4,MacIntel,62.89308176,,,,,,,,,,,,,,,1,end_of_practice,"You have completed the practice trials. During the experimental trials, you will not receive feedback. On some trials you will be asked to report whether the item you just saw was in cursive or print. 
Before you begin, please ensure that you are in a comfortable and quiet location and will not be disturbed for about 15 minutes, as we cannot use your data if you do not complete all the trials. 
 When you are ready to start the experimental trials, please press space or touch the button below.",,,,,,,,,,,,,,,,,,,,,,,,,,,,,,,,,,,,,,114.2976,129.4914,space,15.1675,,-0.012699653,-0.396527778,0,0,0,0,0,0,0,1,,,,,,,,,,,,,,,,,,,,,,,,,,,,,,,,,,,,,,,,,,,,,,,,,,,
,,,,30019,001,2025-10-24_14h38.50.263,HW_LDT_1,2024.2.4,MacIntel,62.89308176,,,,,,,,,,,,,,,,,,,,,,129.5113,129.6918,129.6918,130.1918,,,,,,,,,,,,,,1.5845,1,,,,,,,,,,,,,,z,,,,,,,,,,,,,,,,1,0,130.1933,131.7913,z,1,1.5845,,[],[],[],[],[],[],[],131.7916,133.7922,133.7924,133.7954,[],[],[],[],[],[],[],,133.7957,133.7975,-0.012699653,-0.396527778,0,0,0,,0,0,0,70,1,4,TL,quatily,print,quatily_p.png,,,,,,
,,,,30019,001,2025-10-24_14h38.50.263,HW_LDT_1,2024.2.4,MacIntel,62.89308176,,,,,,,,,,,,,,,,,,,,,,133.7986,133.992,133.9921,134.4908,,,,,,,,,,,,,,1.7382,1,,,,,,,,,,,,,,m,,,,,,,,,,,,,,,,2,0,134.4911,136.242,m,1,1.7382,,[],[],[],[],[],[],[],136.2421,138.2421,138.2422,138.2424,[],[],[],[],[],[],[],,138.2425,138.2426,-0.012699653,-0.396527778,0,0,0,,0,1,1,153,1,4,word,STOLEN,cursive,stolen_c.png,,,,,,
,,,,30019,001,2025-10-24_14h38.50.263,HW_LDT_1,2024.2.4,MacIntel,62.89308176,,,,,,,,,,,,,,,,,,,,,,138.244,138.4421,138.4421,138.9421,,,,,,,,,,,,,,2.2692,1,,,,,,,,,,,,,,z,,,,,,,,,,,,,,,,3,0,138.9428,141.2255,z,1,2.2692,,[],[],[],[],[],[],[],141.2256,143.2254,143.2255,143.2257,[],[],[],[],[],[],[],,143.2257,143.2259,-0.012699653,-0.396527778,0,0,0,,0,2,2,75,1,4,TL,sanile,print,sanile_p.png,,,,,,
,,,,30019,001,2025-10-24_14h38.50.263,HW_LDT_1,2024.2.4,MacIntel,62.89308176,,,,,,,,,,,,,,,,,,,,,,143.2268,143.4255,143.4255,143.9256,,,,,,,,,,,,,,1.0706,1,,,,,,,,,,,,,,m,,,,,,,,,,,,,,,,4,0,143.9261,145.009,m,1,1.0706,,[],[],[],[],[],[],[],145.0091,147.0091,147.0091,147.0094,[],[],[],[],[],[],[],,147.0094,147.0095,-0.012699653,-0.396527778,0,0,0,,0,3,3,126,1,4,word,OPTIMAL,print,optimal_p.png,,,,,,
,,,,30019,001,2025-10-24_14h38.50.263,HW_LDT_1,2024.2.4,MacIntel,62.89308176,,,,,,,,,,,,,,,,,,,,,,147.0109,147.2089,147.209,147.7089,,,,,,,,,,,,,,0.956,1,,,,,,,,,,,,,,m,,,,,,,,,,,,,,,,5,1,147.7093,148.6757,m,1,0.956,,[],[],[],[],[],[],[],148.6758,150.6758,150.6759,154.1915,[],[],[],[],[],[],[],m,154.1917,154.1918,-0.158632812,-0.326024306,0,0,0,,0,4,4,140,1,4,word,RELATIVE,print,relative_p.png,3.5027,,,,,
,,,,30019,001,2025-10-24_14h38.50.263,HW_LDT_1,2024.2.4,MacIntel,62.89308176,,,,,,,,,,,,,,,,,,,,,,154.1927,154.3924,154.3926,154.8923,,,,,,,,,,,,,,0.9706,1,,,,,,,,,,,,,,z,,,,,,,,,,,,,,,,6,0,154.8927,155.8759,z,1,0.9706,,[],[],[],[],[],[],[],155.876,157.8758,157.8759,157.8762,[],[],[],[],[],[],[],,157.8763,157.8764,-0.071840278,-0.315451389,0,0,0,,0,5,5,25,1,4,RL,macise,print,macise_p.png,,,,,,
,,,,30019,001,2025-10-24_14h38.50.263,HW_LDT_1,2024.2.4,MacIntel,62.89308176,,,,,,,,,,,,,,,,,,,,,,157.8773,158.0758,158.0758,158.5758,,,,,,,,,,,,,,2.5535,1,,,,,,,,,,,,,,z,,,,,,,,,,,,,,,,7,1,158.5762,161.1425,z,1,2.5535,,[],[],[],[],[],[],[],161.1425,163.1418,163.1418,164.6593,[],[],[],[],[],[],[],z,164.6593,164.6595,-0.081362847,-0.307517361,0,0,0,,0,6,6,49,1,4,RL,vesofity,cursive,vesofity_c.png,1.5165,,,,,
,,,,30019,001,2025-10-24_14h38.50.263,HW_LDT_1,2024.2.4,MacIntel,62.89308176,,,,,,,,,,,,,,,,,,,,,,164.6603,164.8584,164.8585,165.3583,,,,,,,,,,,,,,1.058,1,,,,,,,,,,,,,,m,,,,,,,,,,,,,,,,8,0,165.3589,166.426,m,1,1.058,,[],[],[],[],[],[],[],166.4261,168.4261,168.4263,168.4264,[],[],[],[],[],[],[],,168.4265,168.4267,-0.064809028,-0.337261285,0,0,0,,0,7,7,95,1,4,word,COMEDY,print,comedy_p.png,,,,,,
,,,,30019,001,2025-10-24_14h38.50.263,HW_LDT_1,2024.2.4,MacIntel,62.89308176,,,,,,,,,,,,,,,,,,,,,,168.4279,168.6262,168.6262,169.1256,,,,,,,,,,,,,,1.1097,1,,,,,,,,,,,,,,m,,,,,,,,,,,,,,,,9,0,169.126,170.2428,m,1,1.1097,,[],[],[],[],[],[],[],170.2428,172.2429,172.243,172.2432,[],[],[],[],[],[],[],,172.2432,172.2433,-0.064809028,-0.337261285,0,0,0,,0,8,8,145,1,4,word,RESUME,print,resume_p.png,,,,,,
,,,,30019,001,2025-10-24_14h38.50.263,HW_LDT_1,2024.2.4,MacIntel,62.89308176,,,,,,,,,,,,,,,,,,,,,,172.2446,172.442,172.442,172.9429,,,,,,,,,,,,,,1.02,1,,,,,,,,,,,,,,m,,,,,,,,,,,,,,,,10,0,172.9436,173.9754,m,1,1.02,,[],[],[],[],[],[],[],173.9755,175.9763,175.9764,175.9765,[],[],[],[],[],[],[],,175.9766,175.9766,-0.064809028,-0.337261285,0,0,0,,0,9,9,122,1,4,word,MOBILE,print,mobile_p.png,,,,,,
,,,,30019,001,2025-10-24_14h38.50.263,HW_LDT_1,2024.2.4,MacIntel,62.89308176,,,,,,,,,,,,,,,,,,,,,,175.9777,176.1762,176.1763,176.6764,,,,,,,,,,,,,,0.9227,1,,,,,,,,,,,,,,m,,,,,,,,,,,,,,,,11,0,176.6768,177.6099,m,1,0.9227,,[],[],[],[],[],[],[],177.6099,179.6099,179.6099,179.6101,[],[],[],[],[],[],[],,179.6101,179.6103,-0.064809028,-0.337261285,0,0,0,,0,10,10,107,1,4,word,EVIDENT,print,evident_p.png,,,,,,
,,,,30019,001,2025-10-24_14h38.50.263,HW_LDT_1,2024.2.4,MacIntel,62.89308176,,,,,,,,,,,,,,,,,,,,,,179.6116,179.8098,179.8098,180.3098,,,,,,,,,,,,,,2.5035,0,,,,,,,,,,,,,,m,,,,,,,,,,,,,,,,12,0,180.3103,182.8259,z,0,2.5035,,[],[],[],[],[],[],[],182.8261,184.8266,184.8266,184.8267,[],[],[],[],[],[],[],,184.8269,184.827,-0.064809028,-0.337261285,0,0,0,,0,11,11,113,1,4,word,LITERAL,cursive,literal_c.png,,,,,,
,,,,30019,001,2025-10-24_14h38.50.263,HW_LDT_1,2024.2.4,MacIntel,62.89308176,,,,,,,,,,,,,,,,,,,,,,184.8282,185.0263,185.0264,185.5266,,,,,,,,,,,,,,0.9743,1,,,,,,,,,,,,,,m,,,,,,,,,,,,,,,,13,0,185.527,186.51,m,1,0.9743,,[],[],[],[],[],[],[],186.51,188.5099,188.51,188.5101,[],[],[],[],[],[],[],,188.5102,188.5103,-0.064809028,-0.337261285,0,0,0,,0,12,12,136,1,4,word,RADICAL,print,radical_p.png,,,,,,
,,,,30019,001,2025-10-24_14h38.50.263,HW_LDT_1,2024.2.4,MacIntel,62.89308176,,,,,,,,,,,,,,,,,,,,,,188.5114,188.71,188.7101,189.21,,,,,,,,,,,,,,1.3719,1,,,,,,,,,,,,,,m,,,,,,,,,,,,,,,,14,0,189.2106,190.593,m,1,1.3719,,[],[],[],[],[],[],[],190.5931,192.5935,192.5936,192.5938,[],[],[],[],[],[],[],,192.5939,192.594,-0.064809028,-0.337261285,0,0,0,,0,13,13,118,1,4,word,MEDICINE,cursive,medicine_c.png,,,,,,
,,,,30019,001,2025-10-24_14h38.50.263,HW_LDT_1,2024.2.4,MacIntel,62.89308176,,,,,,,,,,,,,,,,,,,,,,192.5954,192.7934,192.7935,193.2933,,,,,,,,,,,,,,0.8537,1,,,,,,,,,,,,,,m,,,,,,,,,,,,,,,,15,0,193.2937,194.1602,m,1,0.8537,,[],[],[],[],[],[],[],194.1603,196.1601,196.1601,196.1603,[],[],[],[],[],[],[],,196.1604,196.1604,-0.064809028,-0.337261285,0,0,0,,0,14,14,119,1,4,word,MEMORY,print,memory_p.png,,,,,,
,,,,30019,001,2025-10-24_14h38.50.263,HW_LDT_1,2024.2.4,MacIntel,62.89308176,,,,,,,,,,,,,,,,,,,,,,196.1615,196.3602,196.3602,196.8602,,,,,,,,,,,,,,2.7036,1,,,,,,,,,,,,,,z,,,,,,,,,,,,,,,,16,0,196.8607,199.5768,z,1,2.7036,,[],[],[],[],[],[],[],199.5769,201.5769,201.5769,201.5772,[],[],[],[],[],[],[],,201.5772,201.5773,-0.064809028,-0.337261285,0,0,0,,0,15,15,8,1,4,RL,casagity,cursive,casagity_c.png,,,,,,
,,,,30019,001,2025-10-24_14h38.50.263,HW_LDT_1,2024.2.4,MacIntel,62.89308176,,,,,,,,,,,,,,,,,,,,,,201.5785,201.7762,201.7762,202.277,,,,,,,,,,,,,,1.8727,1,,,,,,,,,,,,,,z,,,,,,,,,,,,,,,,17,1,202.2776,204.1594,z,1,1.8727,,[],[],[],[],[],[],[],204.1595,206.1603,206.1603,207.6272,[],[],[],[],[],[],[],m,207.6272,207.6274,-0.064809028,-0.337261285,0,0,0,,0,16,16,78,1,4,TL,stragety,print,stragety_p.png,1.4576,,,,,
,,,,30019,001,2025-10-24_14h38.50.263,HW_LDT_1,2024.2.4,MacIntel,62.89308176,,,,,,,,,,,,,,,,,,,,,,207.6286,207.8271,207.8272,208.3271,,,,,,,,,,,,,,1.1483,1,,,,,,,,,,,,,,z,,,,,,,,,,,,,,,,18,0,208.3275,209.4771,z,1,1.1483,,[],[],[],[],[],[],[],209.4771,211.4772,211.4773,211.4774,[],[],[],[],[],[],[],,211.4775,211.4775,-0.064809028,-0.337261285,0,0,0,,0,17,17,63,1,4,TL,miskate,print,miskate_p.png,,,,,,
,,,,30019,001,2025-10-24_14h38.50.263,HW_LDT_1,2024.2.4,MacIntel,62.89308176,,,,,,,,,,,,,,,,,,,,,,211.4786,211.6772,211.6772,212.1772,,,,,,,,,,,,,,0.8021,1,,,,,,,,,,,,,,z,,,,,,,,,,,,,,,,19,0,212.1777,212.994,z,1,0.8021,,[],[],[],[],[],[],[],212.994,214.9938,214.9939,214.994,[],[],[],[],[],[],[],,214.9941,214.9943,-0.064809028,-0.337261285,0,0,0,,0,18,18,57,1,4,TL,etidor,print,etidor_p.png,,,,,,
,,,,30019,001,2025-10-24_14h38.50.263,HW_LDT_1,2024.2.4,MacIntel,62.89308176,,,,,,,,,,,,,,,,,,,,,,214.9956,215.1931,215.1931,215.6939,,,,,,,,,,,,,,1.1483,1,,,,,,,,,,,,,,m,,,,,,,,,,,,,,,,20,1,215.6945,216.8439,m,1,1.1483,,[],[],[],[],[],[],[],216.844,218.844,218.844,220.1941,[],[],[],[],[],[],[],m,220.1942,220.1943,-0.064809028,-0.337261285,0,0,0,,0,19,19,110,1,4,word,HERITAGE,print,heritage_p.png,1.3373,,,,,
,,,,30019,001,2025-10-24_14h38.50.263,HW_LDT_1,2024.2.4,MacIntel,62.89308176,,,,,,,,,,,,,,,,,,,,,,220.1952,220.3941,220.3941,220.894,,,,,,,,,,,,,,1.0466,1,,,,,,,,,,,,,,m,,,,,,,,,,,,,,,,21,0,220.8945,221.9441,m,1,1.0466,,[],[],[],[],[],[],[],221.9442,223.9433,223.9434,223.9436,[],[],[],[],[],[],[],,223.9436,223.9438,-0.064809028,-0.337261285,0,0,0,,0,20,20,105,1,4,word,EDITOR,print,editor_p.png,,,,,,
,,,,30019,001,2025-10-24_14h38.50.263,HW_LDT_1,2024.2.4,MacIntel,62.89308176,,,,,,,,,,,,,,,,,,,,,,223.9451,224.1442,224.1442,224.6442,,,,,,,,,,,,,,2.4194,0,,,,,,,,,,,,,,m,,,,,,,,,,,,,,,,22,0,224.6447,227.0775,z,0,2.4194,,[],[],[],[],[],[],[],227.0776,229.0767,229.0768,229.0769,[],[],[],[],[],[],[],,229.0769,229.0771,-0.064809028,-0.337261285,0,0,0,,0,21,21,101,1,4,word,DELICATE,cursive,delicate_c.png,,,,,,
,,,,30019,001,2025-10-24_14h38.50.263,HW_LDT_1,2024.2.4,MacIntel,62.89308176,,,,,,,,,,,,,,,,,,,,,,229.0781,229.2776,229.2776,229.7777,,,,,,,,,,,,,,0.995,1,,,,,,,,,,,,,,z,,,,,,,,,,,,,,,,23,0,229.7781,230.7763,z,1,0.995,,[],[],[],[],[],[],[],230.7764,232.7773,232.7773,232.7774,[],[],[],[],[],[],[],,232.7774,232.7774,-0.064809028,-0.337261285,0,0,0,,0,22,22,64,1,4,TL,moredate,print,moredate_p.png,,,,,,
,,,,30019,001,2025-10-24_14h38.50.263,HW_LDT_1,2024.2.4,MacIntel,62.89308176,,,,,,,,,,,,,,,,,,,,,,232.7777,232.9773,232.9773,233.4777,,,,,,,,,,,,,,1.4039,1,,,,,,,,,,,,,,m,,,,,,,,,,,,,,,,24,0,233.4781,234.8945,m,1,1.4039,,[],[],[],[],[],[],[],234.8945,236.8945,236.8946,236.8948,[],[],[],[],[],[],[],,236.8949,236.8949,-0.064809028,-0.337261285,0,0,0,,0,23,23,152,1,4,word,SPECIMEN,cursive,specimen_c.png,,,,,,
,,,,30019,001,2025-10-24_14h38.50.263,HW_LDT_1,2024.2.4,MacIntel,62.89308176,,,,,,,,,,,,,,,,,,,,,,236.8962,237.0945,237.0945,237.5944,,,,,,,,,,,,,,2.3194,0,,,,,,,,,,,,,,m,,,,,,,,,,,,,,,,25,0,237.595,239.9274,z,0,2.3194,,[],[],[],[],[],[],[],239.9275,241.9271,241.9271,241.9274,[],[],[],[],[],[],[],,241.9274,241.9275,-0.064809028,-0.337261285,0,0,0,,0,24,24,99,1,4,word,DEBATE,cursive,debate_c.png,,,,,,
,,,,30019,001,2025-10-24_14h38.50.263,HW_LDT_1,2024.2.4,MacIntel,62.89308176,,,,,,,,,,,,,,,,,,,,,,241.9289,242.1281,242.1281,242.6279,,,,,,,,,,,,,,1.119,1,,,,,,,,,,,,,,m,,,,,,,,,,,,,,,,26,0,242.6282,243.7603,m,1,1.119,,[],[],[],[],[],[],[],243.7604,245.7614,245.7614,245.7616,[],[],[],[],[],[],[],,245.7616,245.7618,-0.064809028,-0.337261285,0,0,0,,0,25,25,135,1,4,word,QUALITY,print,quality_p.png,,,,,,
,,,,30019,001,2025-10-24_14h38.50.263,HW_LDT_1,2024.2.4,MacIntel,62.89308176,,,,,,,,,,,,,,,,,,,,,,245.7629,245.9613,245.9613,246.4614,,,,,,,,,,,,,,1.6684,1,,,,,,,,,,,,,,z,,,,,,,,,,,,,,,,27,0,246.4619,248.1444,z,1,1.6684,,[],[],[],[],[],[],[],248.1445,250.1448,250.1448,250.145,[],[],[],[],[],[],[],,250.145,250.1451,-0.064809028,-0.337261285,0,0,0,,0,26,26,17,1,4,RL,denficy,cursive,denficy_c.png,,,,,,
,,,,30019,001,2025-10-24_14h38.50.263,HW_LDT_1,2024.2.4,MacIntel,62.89308176,,,,,,,,,,,,,,,,,,,,,,250.1461,250.3447,250.3448,250.8447,,,,,,,,,,,,,,1.1037,1,,,,,,,,,,,,,,z,,,,,,,,,,,,,,,,28,0,250.8452,251.9615,z,1,1.1037,,[],[],[],[],[],[],[],251.9616,253.9616,253.9616,253.9618,[],[],[],[],[],[],[],,253.9618,253.9619,-0.064809028,-0.337261285,0,0,0,,0,27,27,32,1,4,RL,patisic,cursive,patisic_c.png,,,,,,
,,,,30019,001,2025-10-24_14h38.50.263,HW_LDT_1,2024.2.4,MacIntel,62.89308176,,,,,,,,,,,,,,,,,,,,,,253.9631,254.1615,254.1616,254.6615,,,,,,,,,,,,,,1.2649,1,,,,,,,,,,,,,,z,,,,,,,,,,,,,,,,29,1,254.662,255.9281,z,1,1.2649,,[],[],[],[],[],[],[],255.9282,257.9284,257.9284,260.1949,[],[],[],[],[],[],[],m,260.1949,260.195,-0.064809028,-0.337261285,0,0,0,,0,28,28,66,1,4,TL,opmital,print,opmital_p.png,2.2524,,,,,
,,,,30019,001,2025-10-24_14h38.50.263,HW_LDT_1,2024.2.4,MacIntel,62.89308176,,,,,,,,,,,,,,,,,,,,,,260.1957,260.3951,260.3951,260.8951,,,,,,,,,,,,,,1.8362,1,,,,,,,,,,,,,,m,,,,,,,,,,,,,,,,30,0,260.8956,262.745,m,1,1.8362,,[],[],[],[],[],[],[],262.7452,264.7448,264.7448,264.7451,[],[],[],[],[],[],[],,264.7451,264.7451,-0.064809028,-0.337261285,0,0,0,,0,29,29,121,1,4,word,MISTAKE,print,mistake_p.png,,,,,,
,,,,30019,001,2025-10-24_14h38.50.263,HW_LDT_1,2024.2.4,MacIntel,62.89308176,,,,,,,,,,,,,,,,,,,,,,264.7462,264.9451,264.9452,265.4451,,,,,,,,,,,,,,1.1034,1,,,,,,,,,,,,,,m,,,,,,,,,,,,,,,,31,1,265.4457,266.5614,m,1,1.1034,,[],[],[],[],[],[],[],266.5615,268.5619,268.562,269.7453,[],[],[],[],[],[],[],m,269.7454,269.7454,-0.064809028,-0.337261285,0,0,0,,0,30,30,90,1,4,word,CAPITAL,print,capital_p.png,1.1701,,,,,
,,,,30019,001,2025-10-24_14h38.50.263,HW_LDT_1,2024.2.4,MacIntel,62.89308176,,,,,,,,,,,,,,,,,,,,,,269.7464,269.9452,269.9453,270.4452,,,,,,,,,,,,,,1.1363,1,,,,,,,,,,,,,,m,,,,,,,,,,,,,,,,32,0,270.4456,271.5954,m,1,1.1363,,[],[],[],[],[],[],[],271.5954,273.5953,273.5954,273.5956,[],[],[],[],[],[],[],,273.5957,273.5958,-0.064809028,-0.337261285,0,0,0,,0,31,31,123,1,4,word,MODERATE,print,moderate_p.png,,,,,,
,,,,30019,001,2025-10-24_14h38.50.263,HW_LDT_1,2024.2.4,MacIntel,62.89308176,,,,,,,,,,,,,,,,,,,,,,273.5971,273.7946,273.7946,274.2953,,,,,,,,,,,,,,1.2823,1,,,,,,,,,,,,,,z,,,,,,,,,,,,,,,,33,0,274.2957,275.5788,z,1,1.2823,,[],[],[],[],[],[],[],275.5789,277.5788,277.5788,277.579,[],[],[],[],[],[],[],,277.5791,277.5792,-0.064809028,-0.337261285,0,0,0,,0,32,32,77,1,4,TL,spemicen,cursive,spemicen_c.png,,,,,,
,,,,30019,001,2025-10-24_14h38.50.263,HW_LDT_1,2024.2.4,MacIntel,62.89308176,,,,,,,,,,,,,,,,,,,,,,277.5805,277.7786,277.7788,278.2778,,,,,,,,,,,,,,1.0706,1,,,,,,,,,,,,,,z,,,,,,,,,,,,,,,,34,0,278.2782,279.3621,z,1,1.0706,,[],[],[],[],[],[],[],279.3621,281.362,281.3621,281.3621,[],[],[],[],[],[],[],,281.3622,281.3622,-0.064809028,-0.337261285,0,0,0,,0,33,33,44,1,4,RL,senvilent,print,senvilent_p.png,,,,,,
,,,,30019,001,2025-10-24_14h38.50.263,HW_LDT_1,2024.2.4,MacIntel,62.89308176,,,,,,,,,,,,,,,,,,,,,,281.3628,281.5622,281.5622,282.0622,,,,,,,,,,,,,,1.1567,1,,,,,,,,,,,,,,z,,,,,,,,,,,,,,,,35,1,282.0629,283.2288,z,1,1.1567,,[],[],[],[],[],[],[],283.2289,285.2289,285.229,286.4457,[],[],[],[],[],[],[],m,286.4458,286.4459,-0.064809028,-0.337261285,0,0,0,,0,34,34,0,1,4,RL,abanemy,print,abanemy_p.png,1.2063,,,,,
,,,,30019,001,2025-10-24_14h38.50.263,HW_LDT_1,2024.2.4,MacIntel,62.89308176,,,,,,,,,,,,,,,,,,,,,,286.447,286.6457,286.6457,287.1456,,,,,,,,,,,,,,1.7367,1,,,,,,,,,,,,,,z,,,,,,,,,,,,,,,,36,1,287.1461,288.8957,z,1,1.7367,,[],[],[],[],[],[],[],288.8958,290.8957,290.8958,292.1962,[],[],[],[],[],[],[],z,292.1962,292.1963,-0.064809028,-0.337261285,0,0,0,,0,35,35,12,1,4,RL,conbicer,cursive,conbicer_c.png,1.2997,,,,,
,,,,30019,001,2025-10-24_14h38.50.263,HW_LDT_1,2024.2.4,MacIntel,62.89308176,,,,,,,,,,,,,,,,,,,,,,292.1972,292.3958,292.3959,292.8958,,,,,,,,,,,,,,1.3762,1,,,,,,,,,,,,,,z,,,,,,,,,,,,,,,,37,0,292.8964,294.2793,z,1,1.3762,,[],[],[],[],[],[],[],294.2794,296.2793,296.2793,296.2795,[],[],[],[],[],[],[],,296.2795,296.2796,-0.064809028,-0.337261285,0,0,0,,0,36,36,18,1,4,RL,disluge,print,disluge_p.png,,,,,,
,,,,30019,001,2025-10-24_14h38.50.263,HW_LDT_1,2024.2.4,MacIntel,62.89308176,,,,,,,,,,,,,,,,,,,,,,296.2808,296.4792,296.4792,296.9793,,,,,,,,,,,,,,1.404,1,,,,,,,,,,,,,,z,,,,,,,,,,,,,,,,38,1,296.9799,298.396,z,1,1.404,,[],[],[],[],[],[],[],298.3961,300.396,300.3961,303.9628,[],[],[],[],[],[],[],z,303.9629,303.963,-0.064809028,-0.337261285,0,0,0,,0,37,37,19,1,4,RL,elacodate,cursive,elacodate_c.png,3.5542,,,,,
,,,,30019,001,2025-10-24_14h38.50.263,HW_LDT_1,2024.2.4,MacIntel,62.89308176,,,,,,,,,,,,,,,,,,,,,,303.964,304.1626,304.1627,304.6627,,,,,,,,,,,,,,1.5197,1,,,,,,,,,,,,,,z,,,,,,,,,,,,,,,,39,0,304.6632,306.1962,z,1,1.5197,,[],[],[],[],[],[],[],306.1963,308.1963,308.1963,308.1965,[],[],[],[],[],[],[],,308.1965,308.1967,-0.064809028,-0.337261285,0,0,0,,0,38,38,33,1,4,RL,pamest,cursive,pamest_c.png,,,,,,
,,,,30019,001,2025-10-24_14h38.50.263,HW_LDT_1,2024.2.4,MacIntel,62.89308176,,,,,,,,,,,,,,,,,,,,,,308.1976,308.3962,308.3962,308.8962,,,,,,,,,,,,,,1.2191,1,,,,,,,,,,,,,,m,,,,,,,,,,,,,,,,40,0,308.8968,310.1296,m,1,1.2191,,[],[],[],[],[],[],[],310.1297,312.1296,312.1297,312.1298,[],[],[],[],[],[],[],,312.1299,312.13,-0.064809028,-0.337261285,0,0,0,,0,39,39,80,1,4,word,ACADEMY,print,academy_p.png,,,,,,
,,,,30019,001,2025-10-24_14h38.50.263,HW_LDT_1,2024.2.4,MacIntel,62.89308176,,,,,,,,,,,,,,,,,,,,,,312.1312,312.3297,312.3297,312.8292,,,,,,,,,,,,,,1.1031,1,,,,,,,,,,,,,,z,,,,,,,,,,,,,,,,41,0,312.8298,313.9463,z,1,1.1031,,[],[],[],[],[],[],[],313.9463,315.9464,315.9465,315.9466,[],[],[],[],[],[],[],,315.9467,315.9468,-0.064809028,-0.337261285,0,0,0,,0,40,40,54,1,4,TL,codemy,print,codemy_p.png,,,,,,
,,,,30019,001,2025-10-24_14h38.50.263,HW_LDT_1,2024.2.4,MacIntel,62.89308176,,,,,,,,,,,,,,,,,,,,,,315.948,316.1458,316.1458,316.6463,,,,,,,,,,,,,,1.3701,1,,,,,,,,,,,,,,m,,,,,,,,,,,,,,,,42,0,316.6468,318.0298,m,1,1.3701,,[],[],[],[],[],[],[],318.0299,320.0298,320.0298,320.03,[],[],[],[],[],[],[],,320.0301,320.0301,-0.064809028,-0.337261285,0,0,0,,0,41,41,111,1,4,word,INDICATE,print,indicate_p.png,,,,,,
,,,,30019,001,2025-10-24_14h38.50.263,HW_LDT_1,2024.2.4,MacIntel,62.89308176,,,,,,,,,,,,,,,,,,,,,,320.0313,320.2299,320.2299,320.7298,,,,,,,,,,,,,,1.0697,1,,,,,,,,,,,,,,m,,,,,,,,,,,,,,,,43,0,320.7303,321.8132,m,1,1.0697,,[],[],[],[],[],[],[],321.8132,323.812,323.812,323.8122,[],[],[],[],[],[],[],,323.8122,323.8122,-0.064809028,-0.337261285,0,0,0,,0,42,42,156,1,4,word,TRIBUTE,print,tribute_p.png,,,,,,
,,,,30019,001,2025-10-24_14h38.50.263,HW_LDT_1,2024.2.4,MacIntel,62.89308176,,,,,,,,,,,,,,,,,,,,,,323.8128,324.013,324.013,324.5123,,,,,,,,,,,,,,0.9924,1,,,,,,,,,,,,,,m,,,,,,,,,,,,,,,,44,0,324.5129,325.5133,m,1,0.9924,,[],[],[],[],[],[],[],325.5134,327.5133,327.5133,327.5135,[],[],[],[],[],[],[],,327.5136,327.5136,-0.064809028,-0.337261285,0,0,0,,0,43,43,103,1,4,word,DISPUTE,print,dispute_p.png,,,,,,
,,,,30019,001,2025-10-24_14h38.50.263,HW_LDT_1,2024.2.4,MacIntel,62.89308176,,,,,,,,,,,,,,,,,,,,,,327.5149,327.7133,327.7134,328.2133,,,,,,,,,,,,,,2.7859,1,,,,,,,,,,,,,,z,,,,,,,,,,,,,,,,45,0,328.2138,331.0134,z,1,2.7859,,[],[],[],[],[],[],[],331.0135,333.0135,333.0136,333.0137,[],[],[],[],[],[],[],,333.0137,333.0138,-0.064809028,-0.337261285,0,0,0,,0,44,44,2,1,4,RL,asiral,cursive,asiral_c.png,,,,,,
,,,,30019,001,2025-10-24_14h38.50.263,HW_LDT_1,2024.2.4,MacIntel,62.89308176,,,,,,,,,,,,,,,,,,,,,,333.015,333.2135,333.2136,333.7135,,,,,,,,,,,,,,1.0905,1,,,,,,,,,,,,,,z,,,,,,,,,,,,,,,,46,0,333.7139,334.8135,z,1,1.0905,,[],[],[],[],[],[],[],334.8135,336.8135,336.8136,336.8137,[],[],[],[],[],[],[],,336.8138,336.8139,-0.064809028,-0.337261285,0,0,0,,0,45,45,11,1,4,RL,clisimal,print,clisimal_p.png,,,,,,
,,,,30019,001,2025-10-24_14h38.50.263,HW_LDT_1,2024.2.4,MacIntel,62.89308176,,,,,,,,,,,,,,,,,,,,,,336.815,337.0135,337.0135,337.5126,,,,,,,,,,,,,,1.1432,1,,,,,,,,,,,,,,z,,,,,,,,,,,,,,,,47,1,337.5132,338.663,z,1,1.1432,,[],[],[],[],[],[],[],338.663,340.6636,340.6637,341.7969,[],[],[],[],[],[],[],m,341.7971,341.7972,-0.064809028,-0.337261285,0,0,0,,0,46,46,53,1,4,TL,cemerony,print,cemerony_p.png,1.1203,,,,,
,,,,30019,001,2025-10-24_14h38.50.263,HW_LDT_1,2024.2.4,MacIntel,62.89308176,,,,,,,,,,,,,,,,,,,,,,341.7982,341.996,341.9961,342.4969,,,,,,,,,,,,,,1.2024,1,,,,,,,,,,,,,,z,,,,,,,,,,,,,,,,48,0,342.4974,343.7127,z,1,1.2024,,[],[],[],[],[],[],[],343.7128,345.7126,345.7127,345.7129,[],[],[],[],[],[],[],,345.7129,345.7131,-0.064809028,-0.337261285,0,0,0,,0,47,47,69,1,4,TL,quafily,print,quafily_p.png,,,,,,
,,,,30019,001,2025-10-24_14h38.50.263,HW_LDT_1,2024.2.4,MacIntel,62.89308176,,,,,,,,,,,,,,,,,,,,,,345.7141,345.9137,345.9138,346.4128,,,,,,,,,,,,,,1.0528,1,,,,,,,,,,,,,,m,,,,,,,,,,,,,,,,49,1,346.4131,347.4798,m,1,1.0528,,[],[],[],[],[],[],[],347.4798,349.4804,349.4804,350.8971,[],[],[],[],[],[],[],m,350.8971,350.8972,-0.064809028,-0.337261285,0,0,0,,0,48,48,86,1,4,word,BESIDE,print,beside_p.png,1.4039,,,,,
,,,,30019,001,2025-10-24_14h38.50.263,HW_LDT_1,2024.2.4,MacIntel,62.89308176,,,,,,,,,,,,,,,,,,,,,,350.8982,351.0962,351.0962,351.5962,,,,,,,,,,,,,,1.5039,1,,,,,,,,,,,,,,z,,,,,,,,,,,,,,,,50,0,351.5966,353.1129,z,1,1.5039,,[],[],[],[],[],[],[],353.113,355.113,355.1131,355.1132,[],[],[],[],[],[],[],,355.1132,355.1133,-0.064809028,-0.337261285,0,0,0,,0,49,49,30,1,4,RL,nunewical,cursive,nunewical_c.png,,,,,,
,,,,30019,001,2025-10-24_14h38.50.263,HW_LDT_1,2024.2.4,MacIntel,62.89308176,,,,,,,,,,,,,,,,,,,,,,355.1143,355.3139,355.3139,355.8139,,,,,,,,,,,,,,0.9529,1,,,,,,,,,,,,,,z,,,,,,,,,,,,,,,,51,0,355.8143,356.7807,z,1,0.9529,,[],[],[],[],[],[],[],356.7807,358.7797,358.7797,358.7798,[],[],[],[],[],[],[],,358.7799,358.78,-0.064809028,-0.337261285,0,0,0,,0,50,50,43,1,4,RL,rovastic,print,rovastic_p.png,,,,,,
,,,,30019,001,2025-10-24_14h38.50.263,HW_LDT_1,2024.2.4,MacIntel,62.89308176,,,,,,,,,,,,,,,,,,,,,,358.781,358.9797,358.9797,359.4808,,,,,,,,,,,,,,1.2528,0,,,,,,,,,,,,,,z,,,,,,,,,,,,,,,,52,0,359.4814,360.7475,m,0,1.2528,,[],[],[],[],[],[],[],360.7475,362.7466,362.7467,362.7468,[],[],[],[],[],[],[],,362.7469,362.7471,-0.064809028,-0.337261285,0,0,0,,0,51,51,79,1,4,TL,tritube,print,tritube_p.png,,,,,,
,,,,30019,001,2025-10-24_14h38.50.263,HW_LDT_1,2024.2.4,MacIntel,62.89308176,,,,,,,,,,,,,,,,,,,,,,362.7481,362.9466,362.9466,363.4473,,,,,,,,,,,,,,1.5702,1,,,,,,,,,,,,,,m,,,,,,,,,,,,,,,,53,0,363.4478,365.0308,m,1,1.5702,,[],[],[],[],[],[],[],365.0308,367.0309,367.0309,367.0311,[],[],[],[],[],[],[],,367.0311,367.0312,-0.064809028,-0.337261285,0,0,0,,0,52,52,100,1,4,word,DECADE,cursive,decade_c.png,,,,,,
,,,,30019,001,2025-10-24_14h38.50.263,HW_LDT_1,2024.2.4,MacIntel,62.89308176,,,,,,,,,,,,,,,,,,,,,,367.0321,367.2303,367.2303,367.7301,,,,,,,,,,,,,,1.6094,1,,,,,,,,,,,,,,z,,,,,,,,,,,,,,,,54,0,367.7305,369.3467,z,1,1.6094,,[],[],[],[],[],[],[],369.3467,371.3467,371.3468,371.347,[],[],[],[],[],[],[],,371.347,371.3471,-0.064809028,-0.337261285,0,0,0,,0,53,53,59,1,4,TL,fornute,cursive,fornute_c.png,,,,,,
,,,,30019,001,2025-10-24_14h38.50.263,HW_LDT_1,2024.2.4,MacIntel,62.89308176,,,,,,,,,,,,,,,,,,,,,,371.3484,371.5477,371.5477,372.0477,,,,,,,,,,,,,,2.6366,1,,,,,,,,,,,,,,z,,,,,,,,,,,,,,,,55,0,372.0483,374.6971,z,1,2.6366,,[],[],[],[],[],[],[],374.6971,376.6968,376.6969,376.697,[],[],[],[],[],[],[],,376.697,376.6971,-0.064809028,-0.337261285,0,0,0,,0,54,54,23,1,4,RL,linefal,cursive,linefal_c.png,,,,,,
,,,,30019,001,2025-10-24_14h38.50.263,HW_LDT_1,2024.2.4,MacIntel,62.89308176,,,,,,,,,,,,,,,,,,,,,,376.6981,376.8977,376.8978,377.3978,,,,,,,,,,,,,,1.2081,1,,,,,,,,,,,,,,m,,,,,,,,,,,,,,,,56,0,377.3981,378.6146,m,1,1.2081,,[],[],[],[],[],[],[],378.6146,380.6144,380.6145,380.6146,[],[],[],[],[],[],[],,380.6147,380.6148,-0.064809028,-0.337261285,0,0,0,,0,55,55,94,1,4,word,CLINICAL,print,clinical_p.png,,,,,,
,,,,30019,001,2025-10-24_14h38.50.263,HW_LDT_1,2024.2.4,MacIntel,62.89308176,,,,,,,,,,,,,,,,,,,,,,380.6159,380.8145,380.8145,381.3145,,,,,,,,,,,,,,1.6534,1,,,,,,,,,,,,,,z,,,,,,,,,,,,,,,,57,0,381.3149,382.9814,z,1,1.6534,,[],[],[],[],[],[],[],382.9814,384.9813,384.9814,384.9815,[],[],[],[],[],[],[],,384.9815,384.9816,-0.064809028,-0.337261285,0,0,0,,0,56,56,22,1,4,RL,linedal,cursive,linedal_c.png,,,,,,
,,,,30019,001,2025-10-24_14h38.50.263,HW_LDT_1,2024.2.4,MacIntel,62.89308176,,,,,,,,,,,,,,,,,,,,,,384.9829,385.1805,385.1805,385.6813,,,,,,,,,,,,,,1.27,1,,,,,,,,,,,,,,z,,,,,,,,,,,,,,,,58,0,385.6818,386.9646,z,1,1.27,,[],[],[],[],[],[],[],386.9647,388.9645,388.9645,388.9647,[],[],[],[],[],[],[],,388.9648,388.9649,-0.064809028,-0.337261285,0,0,0,,0,57,57,48,1,4,RL,vabifity,print,vabifity_p.png,,,,,,
,,,,30019,001,2025-10-24_14h38.50.263,HW_LDT_1,2024.2.4,MacIntel,62.89308176,,,,,,,,,,,,,,,,,,,,,,388.9662,389.1639,389.1639,389.6648,,,,,,,,,,,,,,1.0867,1,,,,,,,,,,,,,,m,,,,,,,,,,,,,,,,59,0,389.6652,390.7649,m,1,1.0867,,[],[],[],[],[],[],[],390.765,392.7641,392.7642,392.7643,[],[],[],[],[],[],[],,392.7644,392.7644,-0.064809028,-0.337261285,0,0,0,,0,58,58,143,1,4,word,REMOVAL,print,removal_p.png,,,,,,
,,,,30019,001,2025-10-24_14h38.50.263,HW_LDT_1,2024.2.4,MacIntel,62.89308176,,,,,,,,,,,,,,,,,,,,,,392.7654,392.9649,392.9649,393.4649,,,,,,,,,,,,,,1.448,0,,,,,,,,,,,,,,m,,,,,,,,,,,,,,,,60,0,393.4655,394.9148,z,0,1.448,,[],[],[],[],[],[],[],394.9149,396.914,396.914,396.9141,[],[],[],[],[],[],[],,396.9141,396.9143,-0.064809028,-0.337261285,0,0,0,,0,59,59,151,1,4,word,SPECIFIC,cursive,specific_c.png,,,,,,
,,,,30019,001,2025-10-24_14h38.50.263,HW_LDT_1,2024.2.4,MacIntel,62.89308176,,,,,,,,,,,,,,,,,,,,,,396.9154,397.115,397.115,397.615,,,,,,,,,,,,,,1.9365,1,,,,,,,,,,,,,,z,,,,,,,,,,,,,,,,61,0,397.6154,399.565,z,1,1.9365,,[],[],[],[],[],[],[],399.5651,401.5651,401.5652,401.5653,[],[],[],[],[],[],[],,401.5654,401.5655,-0.064809028,-0.337261285,0,0,0,,0,60,60,41,1,4,RL,rebicent,cursive,rebicent_c.png,,,,,,
,,,,30019,001,2025-10-24_14h38.50.263,HW_LDT_1,2024.2.4,MacIntel,62.89308176,,,,,,,,,,,,,,,,,,,,,,401.5668,401.7651,401.7652,402.2651,,,,,,,,,,,,,,1.9374,1,,,,,,,,,,,,,,m,,,,,,,,,,,,,,,,62,0,402.2656,404.2152,m,1,1.9374,,[],[],[],[],[],[],[],404.2154,406.2152,406.2152,406.2154,[],[],[],[],[],[],[],,406.2154,406.2155,-0.064809028,-0.337261285,0,0,0,,0,61,61,98,1,4,word,CRIMINAL,cursive,criminal_c.png,,,,,,
,,,,30019,001,2025-10-24_14h38.50.263,HW_LDT_1,2024.2.4,MacIntel,62.89308176,,,,,,,,,,,,,,,,,,,,,,406.2167,406.4151,406.4152,406.9152,,,,,,,,,,,,,,1.2692,1,,,,,,,,,,,,,,z,,,,,,,,,,,,,,,,63,0,406.9158,408.1986,z,1,1.2692,,[],[],[],[],[],[],[],408.1988,410.1977,410.1978,410.1979,[],[],[],[],[],[],[],,410.198,410.1981,-0.064809028,-0.337261285,0,0,0,,0,62,62,72,1,4,TL,relugar,cursive,relugar_c.png,,,,,,
,,,,30019,001,2025-10-24_14h38.50.263,HW_LDT_1,2024.2.4,MacIntel,62.89308176,,,,,,,,,,,,,,,,,,,,,,410.1991,410.3986,410.3986,410.8978,,,,,,,,,,,,,,1.0541,1,,,,,,,,,,,,,,z,,,,,,,,,,,,,,,,64,1,410.8984,411.9654,z,1,1.0541,,[],[],[],[],[],[],[],411.9654,413.9653,413.9654,415.4155,[],[],[],[],[],[],[],m,415.4156,415.4156,-0.064809028,-0.337261285,0,0,0,,0,63,63,67,1,4,TL,polupar,print,polupar_p.png,1.4372,,,,,
,,,,30019,001,2025-10-24_14h38.50.263,HW_LDT_1,2024.2.4,MacIntel,62.89308176,,,,,,,,,,,,,,,,,,,,,,415.4166,415.6155,415.6155,416.115,,,,,,,,,,,,,,2.1039,1,,,,,,,,,,,,,,m,,,,,,,,,,,,,,,,65,0,416.1155,418.2321,m,1,2.1039,,[],[],[],[],[],[],[],418.2321,420.2314,420.2314,420.2315,[],[],[],[],[],[],[],,420.2317,420.2318,-0.064809028,-0.337261285,0,0,0,,0,64,64,96,1,4,word,CONSIDER,cursive,consider_c.png,,,,,,
,,,,30019,001,2025-10-24_14h38.50.263,HW_LDT_1,2024.2.4,MacIntel,62.89308176,,,,,,,,,,,,,,,,,,,,,,420.2329,420.4322,420.4322,420.9322,,,,,,,,,,,,,,3.0522,0,,,,,,,,,,,,,,m,,,,,,,,,,,,,,,,66,0,420.9328,423.998,z,0,3.0522,,[],[],[],[],[],[],[],423.998,425.9989,425.999,425.9992,[],[],[],[],[],[],[],,425.9992,425.9993,-0.064809028,-0.337261285,0,0,0,,0,65,65,138,1,4,word,REFUSAL,cursive,refusal_c.png,,,,,,
,,,,30019,001,2025-10-24_14h38.50.263,HW_LDT_1,2024.2.4,MacIntel,62.89308176,,,,,,,,,,,,,,,,,,,,,,426.0004,426.199,426.199,426.6986,,,,,,,,,,,,,,1.0561,1,,,,,,,,,,,,,,z,,,,,,,,,,,,,,,,67,0,426.6991,427.7658,z,1,1.0561,,[],[],[],[],[],[],[],427.7658,429.7659,429.7659,429.766,[],[],[],[],[],[],[],,429.7662,429.7663,-0.064809028,-0.337261285,0,0,0,,0,66,66,9,1,4,RL,cafigal,print,cafigal_p.png,,,,,,
,,,,30019,001,2025-10-24_14h38.50.263,HW_LDT_1,2024.2.4,MacIntel,62.89308176,,,,,,,,,,,,,,,,,,,,,,429.7675,429.9658,429.9658,430.4659,,,,,,,,,,,,,,0.9987,1,,,,,,,,,,,,,,z,,,,,,,,,,,,,,,,68,0,430.4664,431.4662,z,1,0.9987,,[],[],[],[],[],[],[],431.4662,433.465,433.465,433.4651,[],[],[],[],[],[],[],,433.4652,433.4653,-0.064809028,-0.337261285,0,0,0,,0,67,67,58,1,4,TL,edivent,print,edivent_p.png,,,,,,
,,,,30019,001,2025-10-24_14h38.50.263,HW_LDT_1,2024.2.4,MacIntel,62.89308176,,,,,,,,,,,,,,,,,,,,,,433.4665,433.6655,433.6655,434.1655,,,,,,,,,,,,,,1.6407,0,,,,,,,,,,,,,,m,,,,,,,,,,,,,,,,69,0,434.1658,435.8159,z,0,1.6407,,[],[],[],[],[],[],[],435.8159,437.8157,437.8158,437.816,[],[],[],[],[],[],[],,437.816,437.8161,-0.064809028,-0.337261285,0,0,0,,0,68,68,102,1,4,word,DENSITY,cursive,density_c.png,,,,,,
,,,,30019,001,2025-10-24_14h38.50.263,HW_LDT_1,2024.2.4,MacIntel,62.89308176,,,,,,,,,,,,,,,,,,,,,,437.8174,438.0159,438.0159,438.5161,,,,,,,,,,,,,,0.7653,1,,,,,,,,,,,,,,z,,,,,,,,,,,,,,,,70,0,438.5165,439.2827,z,1,0.7653,,[],[],[],[],[],[],[],439.2828,441.2825,441.2825,441.2827,[],[],[],[],[],[],[],,441.2828,441.2828,-0.064809028,-0.337261285,0,0,0,,0,69,69,28,1,4,RL,mifikary,print,mifikary_p.png,,,,,,
,,,,30019,001,2025-10-24_14h38.50.263,HW_LDT_1,2024.2.4,MacIntel,62.89308176,,,,,,,,,,,,,,,,,,,,,,441.2837,441.4826,441.4826,441.9826,,,,,,,,,,,,,,1.2071,1,,,,,,,,,,,,,,m,,,,,,,,,,,,,,,,71,0,441.983,443.1994,m,1,1.2071,,[],[],[],[],[],[],[],443.1995,445.1994,445.1994,445.1996,[],[],[],[],[],[],[],,445.1997,445.1998,-0.064809028,-0.337261285,0,0,0,,0,70,70,125,1,4,word,OPERATOR,print,operator_p.png,,,,,,
,,,,30019,001,2025-10-24_14h38.50.263,HW_LDT_1,2024.2.4,MacIntel,62.89308176,,,,,,,,,,,,,,,,,,,,,,445.2009,445.3994,445.3995,445.8994,,,,,,,,,,,,,,2.1193,1,,,,,,,,,,,,,,z,,,,,,,,,,,,,,,,72,0,445.9,448.0324,z,1,2.1193,,[],[],[],[],[],[],[],448.0324,450.0329,450.033,450.0331,[],[],[],[],[],[],[],,450.0332,450.0334,-0.064809028,-0.337261285,0,0,0,,0,71,71,56,1,4,TL,donimant,cursive,donimant_c.png,,,,,,
,,,,30019,001,2025-10-24_14h38.50.263,HW_LDT_1,2024.2.4,MacIntel,62.89308176,,,,,,,,,,,,,,,,,,,,,,450.0346,450.2328,450.2329,450.7322,,,,,,,,,,,,,,1.62,1,,,,,,,,,,,,,,z,,,,,,,,,,,,,,,,73,1,450.7327,452.3653,z,1,1.62,,[],[],[],[],[],[],[],452.3654,454.3663,454.3663,457.0153,[],[],[],[],[],[],[],z,457.0155,457.0155,-0.064809028,-0.337261285,0,0,0,,0,72,72,61,1,4,TL,lotace,cursive,lotace_c.png,2.636,,,,,
,,,,30019,001,2025-10-24_14h38.50.263,HW_LDT_1,2024.2.4,MacIntel,62.89308176,,,,,,,,,,,,,,,,,,,,,,457.0164,457.2164,457.2164,457.7164,,,,,,,,,,,,,,1.4865,0,,,,,,,,,,,,,,m,,,,,,,,,,,,,,,,74,0,457.7167,459.2165,z,0,1.4865,,[],[],[],[],[],[],[],459.2166,461.2165,461.2165,461.2167,[],[],[],[],[],[],[],,461.2168,461.2168,-0.064809028,-0.337261285,0,0,0,,0,73,73,108,1,4,word,FORTUNE,cursive,fortune_c.png,,,,,,
,,,,30019,001,2025-10-24_14h38.50.263,HW_LDT_1,2024.2.4,MacIntel,62.89308176,,,,,,,,,,,,,,,,,,,,,,461.2181,461.4165,461.4165,461.9165,,,,,,,,,,,,,,0.7062,0,,,,,,,,,,,,,,m,,,,,,,,,,,,,,,,75,1,461.9171,462.6332,z,0,0.7062,,[],[],[],[],[],[],[],462.6334,464.633,464.6331,465.4169,[],[],[],[],[],[],[],z,465.4169,465.417,-0.064809028,-0.337261285,0,0,0,,0,74,74,87,1,4,word,CAFETERIA,cursive,cafeteria_c.png,0.7832,,,,,
,,,,30019,001,2025-10-24_14h38.50.263,HW_LDT_1,2024.2.4,MacIntel,62.89308176,,,,,,,,,,,,,,,,,,,,,,465.4178,465.6167,465.6167,466.1166,,,,,,,,,,,,,,1.1699,1,,,,,,,,,,,,,,z,,,,,,,,,,,,,,,,76,0,466.117,467.3001,z,1,1.1699,,[],[],[],[],[],[],[],467.3002,469.3,469.3,469.3003,[],[],[],[],[],[],[],,469.3003,469.3004,-0.064809028,-0.337261285,0,0,0,,0,75,75,50,1,4,RL,vecelan,cursive,vecelan_c.png,,,,,,
,,,,30019,001,2025-10-24_14h38.50.263,HW_LDT_1,2024.2.4,MacIntel,62.89308176,,,,,,,,,,,,,,,,,,,,,,469.3016,469.5,469.5001,470.0001,,,,,,,,,,,,,,1.9652,1,,,,,,,,,,,,,,z,,,,,,,,,,,,,,,,77,0,470.0006,471.9668,z,1,1.9652,,[],[],[],[],[],[],[],471.9668,473.9668,473.9668,473.967,[],[],[],[],[],[],[],,473.9671,473.9672,-0.064809028,-0.337261285,0,0,0,,0,76,76,51,1,4,TL,adsivory,cursive,adsivory_c.png,,,,,,
,,,,30019,001,2025-10-24_14h38.50.263,HW_LDT_1,2024.2.4,MacIntel,62.89308176,,,,,,,,,,,,,,,,,,,,,,473.9684,474.1669,474.1669,474.6675,,,,,,,,,,,,,,1.0062,1,,,,,,,,,,,,,,m,,,,,,,,,,,,,,,,78,0,474.6677,475.6837,m,1,1.0062,,[],[],[],[],[],[],[],475.6838,477.6836,477.6837,477.6838,[],[],[],[],[],[],[],,477.6839,477.6841,-0.064809028,-0.337261285,0,0,0,,0,77,77,150,1,4,word,SENTIMENT,print,sentiment_p.png,,,,,,
,,,,30019,001,2025-10-24_14h38.50.263,HW_LDT_1,2024.2.4,MacIntel,62.89308176,,,,,,,,,,,,,,,,,,,,,,477.6855,477.8835,477.8835,478.3835,,,,,,,,,,,,,,1.1374,1,,,,,,,,,,,,,,z,,,,,,,,,,,,,,,,79,0,478.384,479.5337,z,1,1.1374,,[],[],[],[],[],[],[],479.5337,481.5337,481.5337,481.5339,[],[],[],[],[],[],[],,481.534,481.5341,-0.064809028,-0.337261285,0,0,0,,0,78,78,76,1,4,TL,setanor,print,setanor_p.png,,,,,,
,,,,30019,001,2025-10-24_14h38.50.263,HW_LDT_1,2024.2.4,MacIntel,62.89308176,,,,,,,,,,,,,,,,,,,,,,481.5352,481.7337,481.7337,482.2336,,,,,,,,,,,,,,1.1529,1,,,,,,,,,,,,,,z,,,,,,,,,,,,,,,,80,0,482.234,483.4004,z,1,1.1529,,[],[],[],[],[],[],[],483.4005,485.4004,485.4004,485.4006,[],[],[],[],[],[],[],,485.4006,494.8172,-0.064809028,-0.337261285,0,0,0,space,0,79,79,24,1,4,RL,marmipal,cursive,marmipal_c.png,,,9.3998,,,
,,,,30019,001,2025-10-24_14h38.50.263,HW_LDT_1,2024.2.4,MacIntel,62.89308176,,,,,,,,,,,,,,,,,,,,,,494.818,495.0173,495.0175,495.5173,,,,,,,,,,,,,,1.9367,1,,,,,,,,,,,,,,m,,,,,,,,,,,,,,,,81,0,495.5177,497.4674,m,1,1.9367,,[],[],[],[],[],[],[],497.4674,499.4674,499.4675,499.4677,[],[],[],[],[],[],[],,499.4677,499.4678,-0.064809028,-0.337261285,0,0,0,,0,80,80,83,1,4,word,ANIMAL,cursive,animal_c.png,,,,,,
,,,,30019,001,2025-10-24_14h38.50.263,HW_LDT_1,2024.2.4,MacIntel,62.89308176,,,,,,,,,,,,,,,,,,,,,,499.4689,499.6675,499.6676,500.1675,,,,,,,,,,,,,,1.4362,1,,,,,,,,,,,,,,m,,,,,,,,,,,,,,,,82,0,500.168,501.6175,m,1,1.4362,,[],[],[],[],[],[],[],501.6176,503.6172,503.6174,503.6174,[],[],[],[],[],[],[],,503.6174,503.6175,-0.064809028,-0.337261285,0,0,0,,0,81,81,93,1,4,word,CEREMONY,print,ceremony_p.png,,,,,,
,,,,30019,001,2025-10-24_14h38.50.263,HW_LDT_1,2024.2.4,MacIntel,62.89308176,,,,,,,,,,,,,,,,,,,,,,503.6183,503.8174,503.8176,504.3175,,,,,,,,,,,,,,1.3258,1,,,,,,,,,,,,,,z,,,,,,,,,,,,,,,,83,0,504.318,505.6509,z,1,1.3258,,[],[],[],[],[],[],[],505.651,507.6509,507.6509,507.6511,[],[],[],[],[],[],[],,507.6511,507.6512,-0.064809028,-0.337261285,0,0,0,,0,82,82,13,1,4,RL,crisival,cursive,crisival_c.png,,,,,,
,,,,30019,001,2025-10-24_14h38.50.263,HW_LDT_1,2024.2.4,MacIntel,62.89308176,,,,,,,,,,,,,,,,,,,,,,507.6524,507.8509,507.851,508.351,,,,,,,,,,,,,,1.908,1,,,,,,,,,,,,,,m,,,,,,,,,,,,,,,,84,0,508.3515,510.2677,m,1,1.908,,[],[],[],[],[],[],[],510.2678,512.2678,512.2679,512.268,[],[],[],[],[],[],[],,512.2681,512.2682,-0.064809028,-0.337261285,0,0,0,,0,83,83,82,1,4,word,AMATEUR,cursive,amateur_c.png,,,,,,
,,,,30019,001,2025-10-24_14h38.50.263,HW_LDT_1,2024.2.4,MacIntel,62.89308176,,,,,,,,,,,,,,,,,,,,,,512.2695,512.4678,512.4678,512.9677,,,,,,,,,,,,,,1.1215,1,,,,,,,,,,,,,,z,,,,,,,,,,,,,,,,85,0,512.9682,514.1011,z,1,1.1215,,[],[],[],[],[],[],[],514.1012,516.1012,516.1012,516.1014,[],[],[],[],[],[],[],,516.1014,516.1016,-0.064809028,-0.337261285,0,0,0,,0,84,84,60,1,4,TL,hetirage,print,hetirage_p.png,,,,,,
,,,,30019,001,2025-10-24_14h38.50.263,HW_LDT_1,2024.2.4,MacIntel,62.89308176,,,,,,,,,,,,,,,,,,,,,,516.1027,516.3012,516.3012,516.8012,,,,,,,,,,,,,,1.4708,1,,,,,,,,,,,,,,z,,,,,,,,,,,,,,,,86,0,516.8016,518.2845,z,1,1.4708,,[],[],[],[],[],[],[],518.2845,520.2845,520.2846,520.2847,[],[],[],[],[],[],[],,520.2848,520.2849,-0.064809028,-0.337261285,0,0,0,,0,85,85,37,1,4,RL,renutal,cursive,renutal_c.png,,,,,,
,,,,30019,001,2025-10-24_14h38.50.263,HW_LDT_1,2024.2.4,MacIntel,62.89308176,,,,,,,,,,,,,,,,,,,,,,520.2857,520.4847,520.4847,520.9845,,,,,,,,,,,,,,0.8419,1,,,,,,,,,,,,,,m,,,,,,,,,,,,,,,,87,0,520.9851,521.8345,m,1,0.8419,,[],[],[],[],[],[],[],521.8346,523.8346,523.8346,523.8348,[],[],[],[],[],[],[],,523.8348,523.8349,-0.064809028,-0.337261285,0,0,0,,0,86,86,147,1,4,word,ROMANTIC,print,romantic_p.png,,,,,,
,,,,30019,001,2025-10-24_14h38.50.263,HW_LDT_1,2024.2.4,MacIntel,62.89308176,,,,,,,,,,,,,,,,,,,,,,523.8358,524.0346,524.0346,524.5342,,,,,,,,,,,,,,0.7701,1,,,,,,,,,,,,,,z,,,,,,,,,,,,,,,,88,0,524.5347,525.3176,z,1,0.7701,,[],[],[],[],[],[],[],525.3177,527.3181,527.3181,527.3182,[],[],[],[],[],[],[],,527.3182,527.3183,-0.064809028,-0.337261285,0,0,0,,0,87,87,38,1,4,RL,refakive,print,refakive_p.png,,,,,,
,,,,30019,001,2025-10-24_14h38.50.263,HW_LDT_1,2024.2.4,MacIntel,62.89308176,,,,,,,,,,,,,,,,,,,,,,527.3193,527.518,527.5181,528.0181,,,,,,,,,,,,,,1.6874,1,,,,,,,,,,,,,,z,,,,,,,,,,,,,,,,89,0,528.0185,529.7182,z,1,1.6874,,[],[],[],[],[],[],[],529.7183,531.7183,531.7183,531.7184,[],[],[],[],[],[],[],,531.7185,531.7187,-0.064809028,-0.337261285,0,0,0,,0,88,88,15,1,4,RL,debave,cursive,debave_c.png,,,,,,
,,,,30019,001,2025-10-24_14h38.50.263,HW_LDT_1,2024.2.4,MacIntel,62.89308176,,,,,,,,,,,,,,,,,,,,,,531.7199,531.9183,531.9183,532.4183,,,,,,,,,,,,,,1.3034,1,,,,,,,,,,,,,,m,,,,,,,,,,,,,,,,90,0,532.4188,533.7348,m,1,1.3034,,[],[],[],[],[],[],[],533.7349,535.735,535.7351,535.7352,[],[],[],[],[],[],[],,535.7352,535.7354,-0.064809028,-0.337261285,0,0,0,,0,89,89,120,1,4,word,MILITARY,print,military_p.png,,,,,,
,,,,30019,001,2025-10-24_14h38.50.263,HW_LDT_1,2024.2.4,MacIntel,62.89308176,,,,,,,,,,,,,,,,,,,,,,535.7366,535.9348,535.9349,536.435,,,,,,,,,,,,,,1.0585,1,,,,,,,,,,,,,,m,,,,,,,,,,,,,,,,91,0,536.4355,537.5016,m,1,1.0585,,[],[],[],[],[],[],[],537.5017,539.5017,539.5017,539.5018,[],[],[],[],[],[],[],,539.5018,539.5019,-0.064809028,-0.337261285,0,0,0,,0,90,90,131,1,4,word,POPULAR,print,popular_p.png,,,,,,
,,,,30019,001,2025-10-24_14h38.50.263,HW_LDT_1,2024.2.4,MacIntel,62.89308176,,,,,,,,,,,,,,,,,,,,,,539.503,539.7017,539.7017,540.2017,,,,,,,,,,,,,,0.9862,1,,,,,,,,,,,,,,z,,,,,,,,,,,,,,,,92,0,540.2021,541.2017,z,1,0.9862,,[],[],[],[],[],[],[],541.2017,543.2018,543.2018,543.2021,[],[],[],[],[],[],[],,543.2021,543.2022,-0.064809028,-0.337261285,0,0,0,,0,91,91,21,1,4,RL,insibate,print,insibate_p.png,,,,,,
,,,,30019,001,2025-10-24_14h38.50.263,HW_LDT_1,2024.2.4,MacIntel,62.89308176,,,,,,,,,,,,,,,,,,,,,,543.2034,543.4017,543.4017,543.9019,,,,,,,,,,,,,,2.6247,1,,,,,,,,,,,,,,m,,,,,,,,,,,,,,,,93,1,543.9024,546.5352,m,1,2.6247,,[],[],[],[],[],[],[],546.5352,548.5352,548.5352,551.902,[],[],[],[],[],[],[],z,551.9021,551.9022,-0.064809028,-0.337261285,0,0,0,,0,92,92,130,1,4,word,POLICY,cursive,policy_c.png,3.3531,,,,,
,,,,30019,001,2025-10-24_14h38.50.263,HW_LDT_1,2024.2.4,MacIntel,62.89308176,,,,,,,,,,,,,,,,,,,,,,551.903,552.1014,552.1014,552.602,,,,,,,,,,,,,,1.0185,1,,,,,,,,,,,,,,m,,,,,,,,,,,,,,,,94,0,552.6025,553.6341,m,1,1.0185,,[],[],[],[],[],[],[],553.6342,555.6354,555.6354,555.6356,[],[],[],[],[],[],[],,555.6356,555.6357,-0.064809028,-0.337261285,0,0,0,,0,93,93,84,1,4,word,BELOVED,print,beloved_p.png,,,,,,
,,,,30019,001,2025-10-24_14h38.50.263,HW_LDT_1,2024.2.4,MacIntel,62.89308176,,,,,,,,,,,,,,,,,,,,,,555.6368,555.8354,555.8354,556.3355,,,,,,,,,,,,,,1.6033,1,,,,,,,,,,,,,,z,,,,,,,,,,,,,,,,95,0,556.3359,557.9512,z,1,1.6033,,[],[],[],[],[],[],[],557.9513,559.9522,559.9522,559.9525,[],[],[],[],[],[],[],,559.9525,559.9527,-0.064809028,-0.337261285,0,0,0,,0,94,94,35,1,4,RL,probice,cursive,probice_c.png,,,,,,
,,,,30019,001,2025-10-24_14h38.50.263,HW_LDT_1,2024.2.4,MacIntel,62.89308176,,,,,,,,,,,,,,,,,,,,,,559.9538,560.1521,560.1522,560.6522,,,,,,,,,,,,,,1.0875,1,,,,,,,,,,,,,,z,,,,,,,,,,,,,,,,96,1,560.6526,561.7512,z,1,1.0875,,[],[],[],[],[],[],[],561.7512,563.7513,563.7513,564.8847,[],[],[],[],[],[],[],m,564.8848,564.8848,-0.064809028,-0.337261285,0,0,0,,0,95,95,40,1,4,RL,reconal,print,reconal_p.png,1.1268,,,,,
,,,,30019,001,2025-10-24_14h38.50.263,HW_LDT_1,2024.2.4,MacIntel,62.89308176,,,,,,,,,,,,,,,,,,,,,,564.8858,565.0846,565.0846,565.5856,,,,,,,,,,,,,,1.1352,1,,,,,,,,,,,,,,m,,,,,,,,,,,,,,,,97,0,565.5861,566.7348,m,1,1.1352,,[],[],[],[],[],[],[],566.7349,568.7348,568.7349,568.7351,[],[],[],[],[],[],[],,568.7351,568.7352,-0.064809028,-0.337261285,0,0,0,,0,96,96,146,1,4,word,RETIRE,print,retire_p.png,,,,,,
,,,,30019,001,2025-10-24_14h38.50.263,HW_LDT_1,2024.2.4,MacIntel,62.89308176,,,,,,,,,,,,,,,,,,,,,,568.7364,568.9356,568.9357,569.4358,,,,,,,,,,,,,,0.9367,1,,,,,,,,,,,,,,z,,,,,,,,,,,,,,,,98,1,569.4363,570.3851,z,1,0.9367,,[],[],[],[],[],[],[],570.3851,572.3857,572.3857,573.9693,[],[],[],[],[],[],[],m,573.9694,573.9695,-0.064809028,-0.337261285,0,0,0,,0,97,97,31,1,4,RL,orimipal,print,orimipal_p.png,1.5702,,,,,
,,,,30019,001,2025-10-24_14h38.50.263,HW_LDT_1,2024.2.4,MacIntel,62.89308176,,,,,,,,,,,,,,,,,,,,,,573.9709,574.1679,574.1679,574.6683,,,,,,,,,,,,,,1.4381,1,,,,,,,,,,,,,,z,,,,,,,,,,,,,,,,99,0,574.6689,576.1186,z,1,1.4381,,[],[],[],[],[],[],[],576.1186,578.1194,578.1194,578.1195,[],[],[],[],[],[],[],,578.1196,578.1197,-0.064809028,-0.337261285,0,0,0,,0,98,98,16,1,4,RL,desifate,cursive,desifate_c.png,,,,,,
,,,,30019,001,2025-10-24_14h38.50.263,HW_LDT_1,2024.2.4,MacIntel,62.89308176,,,,,,,,,,,,,,,,,,,,,,578.1209,578.3194,578.3194,578.8193,,,,,,,,,,,,,,1.1249,1,,,,,,,,,,,,,,z,,,,,,,,,,,,,,,,100,0,578.8198,579.9517,z,1,1.1249,,[],[],[],[],[],[],[],579.9518,581.9519,581.9519,581.9521,[],[],[],[],[],[],[],,581.9521,581.9522,-0.064809028,-0.337261285,0,0,0,,0,99,99,73,1,4,TL,regilion,print,regilion_p.png,,,,,,
,,,,30019,001,2025-10-24_14h38.50.263,HW_LDT_1,2024.2.4,MacIntel,62.89308176,,,,,,,,,,,,,,,,,,,,,,581.9533,582.1518,582.1518,582.6527,,,,,,,,,,,,,,1.0863,1,,,,,,,,,,,,,,z,,,,,,,,,,,,,,,,101,0,582.6531,583.7528,z,1,1.0863,,[],[],[],[],[],[],[],583.7529,585.7528,585.7528,585.753,[],[],[],[],[],[],[],,585.753,585.753,-0.064809028,-0.337261285,0,0,0,,0,100,100,47,1,4,RL,stopave,print,stopave_p.png,,,,,,
,,,,30019,001,2025-10-24_14h38.50.263,HW_LDT_1,2024.2.4,MacIntel,62.89308176,,,,,,,,,,,,,,,,,,,,,,585.7542,585.9528,585.9529,586.4528,,,,,,,,,,,,,,1.1698,1,,,,,,,,,,,,,,z,,,,,,,,,,,,,,,,102,0,586.4532,587.6363,z,1,1.1698,,[],[],[],[],[],[],[],587.6364,589.6363,589.6363,589.6365,[],[],[],[],[],[],[],,589.6365,589.6367,-0.064809028,-0.337261285,0,0,0,,0,101,101,10,1,4,RL,carminal,cursive,carminal_c.png,,,,,,
,,,,30019,001,2025-10-24_14h38.50.263,HW_LDT_1,2024.2.4,MacIntel,62.89308176,,,,,,,,,,,,,,,,,,,,,,589.6378,589.8361,589.8362,590.3358,,,,,,,,,,,,,,2.5373,0,,,,,,,,,,,,,,m,,,,,,,,,,,,,,,,103,0,590.3362,592.8862,z,0,2.5373,,[],[],[],[],[],[],[],592.8864,594.8862,594.8862,594.8864,[],[],[],[],[],[],[],,594.8865,594.8866,-0.064809028,-0.337261285,0,0,0,,0,102,102,106,1,4,word,ELABORATE,cursive,elaborate_c.png,,,,,,
,,,,30019,001,2025-10-24_14h38.50.263,HW_LDT_1,2024.2.4,MacIntel,62.89308176,,,,,,,,,,,,,,,,,,,,,,594.8877,595.0864,595.0864,595.5863,,,,,,,,,,,,,,2.673,1,,,,,,,,,,,,,,m,,,,,,,,,,,,,,,,104,0,595.5867,598.2695,m,1,2.673,,[],[],[],[],[],[],[],598.2696,600.2699,600.2699,600.2701,[],[],[],[],[],[],[],,600.2701,600.2702,-0.064809028,-0.337261285,0,0,0,,0,103,103,159,1,4,word,VETERAN,cursive,veteran_c.png,,,,,,
,,,,30019,001,2025-10-24_14h38.50.263,HW_LDT_1,2024.2.4,MacIntel,62.89308176,,,,,,,,,,,,,,,,,,,,,,600.2714,600.4698,600.4699,600.969,,,,,,,,,,,,,,1.0375,1,,,,,,,,,,,,,,m,,,,,,,,,,,,,,,,105,0,600.9693,602.0198,m,1,1.0375,,[],[],[],[],[],[],[],602.0199,604.0199,604.0199,604.02,[],[],[],[],[],[],[],,604.0201,604.0202,-0.064809028,-0.337261285,0,0,0,,0,104,104,154,1,4,word,STORAGE,print,storage_p.png,,,,,,
,,,,30019,001,2025-10-24_14h38.50.263,HW_LDT_1,2024.2.4,MacIntel,62.89308176,,,,,,,,,,,,,,,,,,,,,,604.0212,604.2199,604.22,604.7199,,,,,,,,,,,,,,1.5697,1,,,,,,,,,,,,,,m,,,,,,,,,,,,,,,,106,0,604.7205,606.3033,m,1,1.5697,,[],[],[],[],[],[],[],606.3033,608.3033,608.3034,608.3036,[],[],[],[],[],[],[],,608.3037,608.3037,-0.064809028,-0.337261285,0,0,0,,0,105,105,112,1,4,word,LIBERAL,cursive,liberal_c.png,,,,,,
,,,,30019,001,2025-10-24_14h38.50.263,HW_LDT_1,2024.2.4,MacIntel,62.89308176,,,,,,,,,,,,,,,,,,,,,,608.3049,608.5025,608.5025,609.0033,,,,,,,,,,,,,,1.0696,1,,,,,,,,,,,,,,m,,,,,,,,,,,,,,,,107,1,609.0038,610.0868,m,1,1.0696,,[],[],[],[],[],[],[],610.0869,612.0869,612.087,613.4702,[],[],[],[],[],[],[],m,613.4702,613.4703,-0.064809028,-0.337261285,0,0,0,,0,106,106,88,1,4,word,CAMERA,print,camera_p.png,1.3701,,,,,
,,,,30019,001,2025-10-24_14h38.50.263,HW_LDT_1,2024.2.4,MacIntel,62.89308176,,,,,,,,,,,,,,,,,,,,,,613.4712,613.6698,613.6698,614.1702,,,,,,,,,,,,,,2.6695,1,,,,,,,,,,,,,,m,,,,,,,,,,,,,,,,108,0,614.1709,616.8525,m,1,2.6695,,[],[],[],[],[],[],[],616.8525,618.8536,618.8536,618.8538,[],[],[],[],[],[],[],,618.8538,618.854,-0.064809028,-0.337261285,0,0,0,,0,107,107,144,1,4,word,RESIDENT,cursive,resident_c.png,,,,,,
,,,,30019,001,2025-10-24_14h38.50.263,HW_LDT_1,2024.2.4,MacIntel,62.89308176,,,,,,,,,,,,,,,,,,,,,,618.8551,619.0536,619.0537,619.5536,,,,,,,,,,,,,,2.2394,0,,,,,,,,,,,,,,m,,,,,,,,,,,,,,,,109,0,619.554,621.8037,z,0,2.2394,,[],[],[],[],[],[],[],621.8037,623.8038,623.8039,623.804,[],[],[],[],[],[],[],,623.8041,623.8042,-0.064809028,-0.337261285,0,0,0,,0,108,108,85,1,4,word,BENEFIT,cursive,benefit_c.png,,,,,,
,,,,30019,001,2025-10-24_14h38.50.263,HW_LDT_1,2024.2.4,MacIntel,62.89308176,,,,,,,,,,,,,,,,,,,,,,623.8053,624.003,624.003,624.5038,,,,,,,,,,,,,,0.9698,1,,,,,,,,,,,,,,z,,,,,,,,,,,,,,,,110,0,624.5042,625.4869,z,1,0.9698,,[],[],[],[],[],[],[],625.487,627.4863,627.4863,627.4865,[],[],[],[],[],[],[],,627.4866,627.4866,-0.064809028,-0.337261285,0,0,0,,0,109,109,3,1,4,RL,bewoted,print,bewoted_p.png,,,,,,
,,,,30019,001,2025-10-24_14h38.50.263,HW_LDT_1,2024.2.4,MacIntel,62.89308176,,,,,,,,,,,,,,,,,,,,,,627.4878,627.6872,627.6872,628.1871,,,,,,,,,,,,,,1.1862,1,,,,,,,,,,,,,,z,,,,,,,,,,,,,,,,111,0,628.1877,629.3872,z,1,1.1862,,[],[],[],[],[],[],[],629.3873,631.3872,631.3872,631.3874,[],[],[],[],[],[],[],,631.3874,631.3875,-0.064809028,-0.337261285,0,0,0,,0,110,110,74,1,4,TL,rerite,print,rerite_p.png,,,,,,
,,,,30019,001,2025-10-24_14h38.50.263,HW_LDT_1,2024.2.4,MacIntel,62.89308176,,,,,,,,,,,,,,,,,,,,,,631.3887,631.5872,631.5873,632.0872,,,,,,,,,,,,,,2.0865,1,,,,,,,,,,,,,,m,,,,,,,,,,,,,,,,112,0,632.0875,634.1873,m,1,2.0865,,[],[],[],[],[],[],[],634.1873,636.1874,636.1875,636.1877,[],[],[],[],[],[],[],,636.1878,636.1878,-0.064809028,-0.337261285,0,0,0,,0,111,111,91,1,4,word,CARDINAL,cursive,cardinal_c.png,,,,,,
,,,,30019,001,2025-10-24_14h38.50.263,HW_LDT_1,2024.2.4,MacIntel,62.89308176,,,,,,,,,,,,,,,,,,,,,,636.1889,636.3873,636.3873,636.8866,,,,,,,,,,,,,,0.8706,1,,,,,,,,,,,,,,m,,,,,,,,,,,,,,,,113,0,636.887,637.7698,m,1,0.8706,,[],[],[],[],[],[],[],637.7699,639.7708,639.7708,639.7711,[],[],[],[],[],[],[],,639.7712,639.7713,-0.064809028,-0.337261285,0,0,0,,0,112,112,115,1,4,word,LOGICAL,print,logical_p.png,,,,,,
,,,,30019,001,2025-10-24_14h38.50.263,HW_LDT_1,2024.2.4,MacIntel,62.89308176,,,,,,,,,,,,,,,,,,,,,,639.7726,639.97,639.97,640.4708,,,,,,,,,,,,,,2.7237,1,,,,,,,,,,,,,,m,,,,,,,,,,,,,,,,114,0,640.4714,643.2043,m,1,2.7237,,[],[],[],[],[],[],[],643.2043,645.2042,645.2042,645.2044,[],[],[],[],[],[],[],,645.2044,645.2044,-0.064809028,-0.337261285,0,0,0,,0,113,113,89,1,4,word,CAPACITY,cursive,capacity_c.png,,,,,,
,,,,30019,001,2025-10-24_14h38.50.263,HW_LDT_1,2024.2.4,MacIntel,62.89308176,,,,,,,,,,,,,,,,,,,,,,645.2055,645.4033,645.4034,645.9043,,,,,,,,,,,,,,0.8708,1,,,,,,,,,,,,,,m,,,,,,,,,,,,,,,,115,0,645.9047,646.7875,m,1,0.8708,,[],[],[],[],[],[],[],646.7877,648.7875,648.7877,648.7877,[],[],[],[],[],[],[],,648.7877,648.7879,-0.064809028,-0.337261285,0,0,0,,0,114,114,117,1,4,word,MARINE,print,marine_p.png,,,,,,
,,,,30019,001,2025-10-24_14h38.50.263,HW_LDT_1,2024.2.4,MacIntel,62.89308176,,,,,,,,,,,,,,,,,,,,,,648.7888,648.9876,648.9876,649.4877,,,,,,,,,,,,,,1.2396,1,,,,,,,,,,,,,,m,,,,,,,,,,,,,,,,116,0,649.4881,650.7378,m,1,1.2396,,[],[],[],[],[],[],[],650.7379,652.7378,652.7378,652.7379,[],[],[],[],[],[],[],,652.7379,652.738,-0.064809028,-0.337261285,0,0,0,,0,115,115,158,1,4,word,VELOCITY,cursive,velocity_c.png,,,,,,
,,,,30019,001,2025-10-24_14h38.50.263,HW_LDT_1,2024.2.4,MacIntel,62.89308176,,,,,,,,,,,,,,,,,,,,,,652.739,652.9377,652.9377,653.4369,,,,,,,,,,,,,,1.0426,1,,,,,,,,,,,,,,m,,,,,,,,,,,,,,,,117,0,653.4373,654.4868,m,1,1.0426,,[],[],[],[],[],[],[],654.4869,656.4878,656.4878,656.488,[],[],[],[],[],[],[],,656.488,656.4881,-0.064809028,-0.337261285,0,0,0,,0,116,116,141,1,4,word,RELIGION,print,religion_p.png,,,,,,
,,,,30019,001,2025-10-24_14h38.50.263,HW_LDT_1,2024.2.4,MacIntel,62.89308176,,,,,,,,,,,,,,,,,,,,,,656.489,656.6878,656.6879,657.187,,,,,,,,,,,,,,3.5054,1,,,,,,,,,,,,,,m,,,,,,,,,,,,,,,,118,1,657.1874,660.7037,m,1,3.5054,,[],[],[],[],[],[],[],660.7038,662.7047,662.7047,663.9712,[],[],[],[],[],[],[],z,663.9713,663.9714,-0.064809028,-0.337261285,0,0,0,,0,117,117,114,1,4,word,LOCATE,cursive,locate_c.png,1.2538,,,,,
,,,,30019,001,2025-10-24_14h38.50.263,HW_LDT_1,2024.2.4,MacIntel,62.89308176,,,,,,,,,,,,,,,,,,,,,,663.9725,664.1715,664.1715,664.6713,,,,,,,,,,,,,,2.6317,1,,,,,,,,,,,,,,z,,,,,,,,,,,,,,,,119,0,664.6719,667.3047,z,1,2.6317,,[],[],[],[],[],[],[],667.3047,669.3048,669.3049,669.305,[],[],[],[],[],[],[],,669.3051,669.3052,-0.064809028,-0.337261285,0,0,0,,0,118,118,26,1,4,RL,mesibine,cursive,mesibine_c.png,,,,,,
,,,,30019,001,2025-10-24_14h38.50.263,HW_LDT_1,2024.2.4,MacIntel,62.89308176,,,,,,,,,,,,,,,,,,,,,,669.3065,669.5048,669.5049,670.0049,,,,,,,,,,,,,,1.2703,1,,,,,,,,,,,,,,z,,,,,,,,,,,,,,,,120,0,670.0054,671.2874,z,1,1.2703,,[],[],[],[],[],[],[],671.2874,673.2882,673.2882,673.2884,[],[],[],[],[],[],[],,673.2884,673.2885,-0.064809028,-0.337261285,0,0,0,,0,119,119,1,1,4,RL,afaneur,cursive,afaneur_c.png,,,,,,
,,,,30019,001,2025-10-24_14h38.50.263,HW_LDT_1,2024.2.4,MacIntel,62.89308176,,,,,,,,,,,,,,,,,,,,,,673.2895,673.4883,673.4883,673.9882,,,,,,,,,,,,,,1.7867,1,,,,,,,,,,,,,,m,,,,,,,,,,,,,,,,121,0,673.9886,675.7883,m,1,1.7867,,[],[],[],[],[],[],[],675.7884,677.7882,677.7882,677.7884,[],[],[],[],[],[],[],,677.7884,677.7886,-0.064809028,-0.337261285,0,0,0,,0,120,120,128,1,4,word,PACIFIC,cursive,pacific_c.png,,,,,,
,,,,30019,001,2025-10-24_14h38.50.263,HW_LDT_1,2024.2.4,MacIntel,62.89308176,,,,,,,,,,,,,,,,,,,,,,677.7896,677.9884,677.9884,678.4883,,,,,,,,,,,,,,0.8359,1,,,,,,,,,,,,,,m,,,,,,,,,,,,,,,,122,0,678.4888,679.3384,m,1,0.8359,,[],[],[],[],[],[],[],679.3385,681.3384,681.3385,681.3385,[],[],[],[],[],[],[],,681.3386,681.3387,-0.064809028,-0.337261285,0,0,0,,0,121,121,127,1,4,word,ORIGINAL,print,original_p.png,,,,,,
,,,,30019,001,2025-10-24_14h38.50.263,HW_LDT_1,2024.2.4,MacIntel,62.89308176,,,,,,,,,,,,,,,,,,,,,,681.3396,681.5384,681.5384,682.0382,,,,,,,,,,,,,,1.777,1,,,,,,,,,,,,,,m,,,,,,,,,,,,,,,,123,0,682.0385,683.8218,m,1,1.777,,[],[],[],[],[],[],[],683.8219,685.8218,685.8219,685.8221,[],[],[],[],[],[],[],,685.8221,685.8222,-0.064809028,-0.337261285,0,0,0,,0,122,122,97,1,4,word,COVERAGE,cursive,coverage_c.png,,,,,,
,,,,30019,001,2025-10-24_14h38.50.263,HW_LDT_1,2024.2.4,MacIntel,62.89308176,,,,,,,,,,,,,,,,,,,,,,685.8233,686.0218,686.0218,686.5219,,,,,,,,,,,,,,1.5597,1,,,,,,,,,,,,,,m,,,,,,,,,,,,,,,,124,0,686.5223,688.0885,m,1,1.5597,,[],[],[],[],[],[],[],688.0886,690.0886,690.0886,690.0888,[],[],[],[],[],[],[],,690.0888,690.089,-0.064809028,-0.337261285,0,0,0,,0,123,123,142,1,4,word,REMOTE,cursive,remote_c.png,,,,,,
,,,,30019,001,2025-10-24_14h38.50.263,HW_LDT_1,2024.2.4,MacIntel,62.89308176,,,,,,,,,,,,,,,,,,,,,,690.0902,690.2886,690.2887,690.7887,,,,,,,,,,,,,,1.8696,1,,,,,,,,,,,,,,z,,,,,,,,,,,,,,,,125,0,690.7891,692.672,z,1,1.8696,,[],[],[],[],[],[],[],692.672,694.6718,694.6719,694.672,[],[],[],[],[],[],[],,694.672,694.6722,-0.064809028,-0.337261285,0,0,0,,0,124,124,6,1,4,RL,caleberia,cursive,caleberia_c.png,,,,,,
,,,,30019,001,2025-10-24_14h38.50.263,HW_LDT_1,2024.2.4,MacIntel,62.89308176,,,,,,,,,,,,,,,,,,,,,,694.6734,694.8721,694.8721,695.3722,,,,,,,,,,,,,,3.0192,1,,,,,,,,,,,,,,m,,,,,,,,,,,,,,,,126,1,695.3728,698.4055,m,1,3.0192,,[],[],[],[],[],[],[],698.4056,700.4055,700.4056,701.5056,[],[],[],[],[],[],[],z,701.5056,701.5057,-0.064809028,-0.337261285,0,0,0,,0,125,125,92,1,4,word,CATEGORY,cursive,category_c.png,1.0871,,,,,
,,,,30019,001,2025-10-24_14h38.50.263,HW_LDT_1,2024.2.4,MacIntel,62.89308176,,,,,,,,,,,,,,,,,,,,,,701.5067,701.7056,701.7056,702.2056,,,,,,,,,,,,,,1.5203,1,,,,,,,,,,,,,,m,,,,,,,,,,,,,,,,127,0,702.2062,703.7391,m,1,1.5203,,[],[],[],[],[],[],[],703.7391,705.739,705.7391,705.7392,[],[],[],[],[],[],[],,705.7393,705.7394,-0.064809028,-0.337261285,0,0,0,,0,126,126,137,1,4,word,RAPIDLY,cursive,rapidly_c.png,,,,,,
,,,,30019,001,2025-10-24_14h38.50.263,HW_LDT_1,2024.2.4,MacIntel,62.89308176,,,,,,,,,,,,,,,,,,,,,,705.7408,705.9389,705.9389,706.439,,,,,,,,,,,,,,1.6824,1,,,,,,,,,,,,,,m,,,,,,,,,,,,,,,,128,0,706.4395,708.1228,m,1,1.6824,,[],[],[],[],[],[],[],708.1229,710.1224,710.1225,710.1226,[],[],[],[],[],[],[],,710.1226,710.1227,-0.064809028,-0.337261285,0,0,0,,0,127,127,81,1,4,word,ADVISORY,cursive,advisory_c.png,,,,,,
,,,,30019,001,2025-10-24_14h38.50.263,HW_LDT_1,2024.2.4,MacIntel,62.89308176,,,,,,,,,,,,,,,,,,,,,,710.1237,710.3224,710.3225,710.8224,,,,,,,,,,,,,,0.9763,0,,,,,,,,,,,,,,z,,,,,,,,,,,,,,,,129,0,710.823,711.8058,m,0,0.9763,,[],[],[],[],[],[],[],711.8059,713.8057,713.8058,713.8059,[],[],[],[],[],[],[],,713.8059,713.806,-0.064809028,-0.337261285,0,0,0,,0,128,128,68,1,4,TL,prosopal,print,prosopal_p.png,,,,,,
,,,,30019,001,2025-10-24_14h38.50.263,HW_LDT_1,2024.2.4,MacIntel,62.89308176,,,,,,,,,,,,,,,,,,,,,,713.8069,714.0059,714.0059,714.5059,,,,,,,,,,,,,,0.8529,1,,,,,,,,,,,,,,z,,,,,,,,,,,,,,,,130,0,714.5064,715.3724,z,1,0.8529,,[],[],[],[],[],[],[],715.3724,717.3724,717.3724,717.3727,[],[],[],[],[],[],[],,717.3727,717.3728,-0.064809028,-0.337261285,0,0,0,,0,129,129,7,1,4,RL,casena,print,casena_p.png,,,,,,
,,,,30019,001,2025-10-24_14h38.50.263,HW_LDT_1,2024.2.4,MacIntel,62.89308176,,,,,,,,,,,,,,,,,,,,,,717.374,717.5726,717.5726,718.0726,,,,,,,,,,,,,,1.2429,1,,,,,,,,,,,,,,m,,,,,,,,,,,,,,,,131,0,718.073,719.3222,m,1,1.2429,,[],[],[],[],[],[],[],719.3222,721.3218,721.3218,721.322,[],[],[],[],[],[],[],,721.322,721.3221,-0.064809028,-0.337261285,0,0,0,,0,130,130,109,1,4,word,GRATEFUL,print,grateful_p.png,,,,,,
,,,,30019,001,2025-10-24_14h38.50.263,HW_LDT_1,2024.2.4,MacIntel,62.89308176,,,,,,,,,,,,,,,,,,,,,,721.3231,721.5224,721.5225,722.0228,,,,,,,,,,,,,,0.8384,1,,,,,,,,,,,,,,z,,,,,,,,,,,,,,,,132,0,722.0233,722.8728,z,1,0.8384,,[],[],[],[],[],[],[],722.8729,724.8728,724.8728,724.8731,[],[],[],[],[],[],[],,724.8731,724.8732,-0.064809028,-0.337261285,0,0,0,,0,131,131,5,1,4,RL,bebine,print,bebine_p.png,,,,,,
,,,,30019,001,2025-10-24_14h38.50.263,HW_LDT_1,2024.2.4,MacIntel,62.89308176,,,,,,,,,,,,,,,,,,,,,,724.8744,725.0728,725.0729,725.5728,,,,,,,,,,,,,,2.0075,1,,,,,,,,,,,,,,z,,,,,,,,,,,,,,,,133,0,725.5734,727.5897,z,1,2.0075,,[],[],[],[],[],[],[],727.5897,729.5896,729.5896,729.5898,[],[],[],[],[],[],[],,729.5899,729.59,-0.064809028,-0.337261285,0,0,0,,0,132,132,55,1,4,TL,corevage,cursive,corevage_c.png,,,,,,
,,,,30019,001,2025-10-24_14h38.50.263,HW_LDT_1,2024.2.4,MacIntel,62.89308176,,,,,,,,,,,,,,,,,,,,,,729.591,729.7895,729.7896,730.2896,,,,,,,,,,,,,,2.0368,1,,,,,,,,,,,,,,z,,,,,,,,,,,,,,,,134,0,730.2901,732.3396,z,1,2.0368,,[],[],[],[],[],[],[],732.3396,734.3397,734.3397,734.3399,[],[],[],[],[],[],[],,734.3399,734.34,-0.064809028,-0.337261285,0,0,0,,0,133,133,39,1,4,RL,relone,cursive,relone_c.png,,,,,,
,,,,30019,001,2025-10-24_14h38.50.263,HW_LDT_1,2024.2.4,MacIntel,62.89308176,,,,,,,,,,,,,,,,,,,,,,734.3412,734.5396,734.5396,735.0398,,,,,,,,,,,,,,1.5364,0,,,,,,,,,,,,,,m,,,,,,,,,,,,,,,,135,0,735.0404,736.5898,z,0,1.5364,,[],[],[],[],[],[],[],736.5899,738.5895,738.5896,738.5897,[],[],[],[],[],[],[],,738.5897,738.5898,-0.064809028,-0.337261285,0,0,0,,0,134,134,116,1,4,word,MARGINAL,cursive,marginal_c.png,,,,,,
,,,,30019,001,2025-10-24_14h38.50.263,HW_LDT_1,2024.2.4,MacIntel,62.89308176,,,,,,,,,,,,,,,,,,,,,,738.5905,738.7898,738.7898,739.2897,,,,,,,,,,,,,,1.2201,1,,,,,,,,,,,,,,z,,,,,,,,,,,,,,,,136,0,739.2902,740.5228,z,1,1.2201,,[],[],[],[],[],[],[],740.5229,742.5232,742.5233,742.5234,[],[],[],[],[],[],[],,742.5235,742.5235,-0.064809028,-0.337261285,0,0,0,,0,135,135,71,1,4,TL,racidal,print,racidal_p.png,,,,,,
,,,,30019,001,2025-10-24_14h38.50.263,HW_LDT_1,2024.2.4,MacIntel,62.89308176,,,,,,,,,,,,,,,,,,,,,,742.5247,742.7232,742.7233,743.2232,,,,,,,,,,,,,,1.5863,1,,,,,,,,,,,,,,z,,,,,,,,,,,,,,,,137,0,743.2237,744.8232,z,1,1.5863,,[],[],[],[],[],[],[],744.8233,746.8234,746.8235,746.8235,[],[],[],[],[],[],[],,746.8236,746.8237,-0.064809028,-0.337261285,0,0,0,,0,136,136,65,1,4,TL,orepator,print,orepator_p.png,,,,,,
,,,,30019,001,2025-10-24_14h38.50.263,HW_LDT_1,2024.2.4,MacIntel,62.89308176,,,,,,,,,,,,,,,,,,,,,,746.8249,747.0234,747.0234,747.5234,,,,,,,,,,,,,,1.1531,1,,,,,,,,,,,,,,m,,,,,,,,,,,,,,,,138,0,747.524,748.6899,m,1,1.1531,,[],[],[],[],[],[],[],748.69,750.69,750.69,750.6902,[],[],[],[],[],[],[],,750.6902,750.6903,-0.064809028,-0.337261285,0,0,0,,0,137,137,157,1,4,word,VALIDITY,print,validity_p.png,,,,,,
,,,,30019,001,2025-10-24_14h38.50.263,HW_LDT_1,2024.2.4,MacIntel,62.89308176,,,,,,,,,,,,,,,,,,,,,,750.6912,750.8901,750.8901,751.3901,,,,,,,,,,,,,,1.9195,1,,,,,,,,,,,,,,m,,,,,,,,,,,,,,,,139,0,751.3905,753.3236,m,1,1.9195,,[],[],[],[],[],[],[],753.3237,755.3235,755.3235,755.3237,[],[],[],[],[],[],[],,755.3237,755.3237,-0.064809028,-0.337261285,0,0,0,,0,138,138,124,1,4,word,NUMERICAL,cursive,numerical_c.png,,,,,,
,,,,30019,001,2025-10-24_14h38.50.263,HW_LDT_1,2024.2.4,MacIntel,62.89308176,,,,,,,,,,,,,,,,,,,,,,755.3247,755.5235,755.5235,756.0235,,,,,,,,,,,,,,1.8369,1,,,,,,,,,,,,,,m,,,,,,,,,,,,,,,,140,0,756.024,757.8737,m,1,1.8369,,[],[],[],[],[],[],[],757.8738,759.8737,759.8737,759.8738,[],[],[],[],[],[],[],,759.874,759.8741,-0.064809028,-0.337261285,0,0,0,,0,139,139,129,1,4,word,PARENT,cursive,parent_c.png,,,,,,
,,,,30019,001,2025-10-24_14h38.50.263,HW_LDT_1,2024.2.4,MacIntel,62.89308176,,,,,,,,,,,,,,,,,,,,,,759.8754,760.0736,760.0736,760.5735,,,,,,,,,,,,,,1.4537,1,,,,,,,,,,,,,,m,,,,,,,,,,,,,,,,141,0,760.574,762.0405,m,1,1.4537,,[],[],[],[],[],[],[],762.0406,764.0404,764.0404,764.0406,[],[],[],[],[],[],[],,764.0406,764.0407,-0.064809028,-0.337261285,0,0,0,,0,140,140,155,1,4,word,STRATEGY,print,strategy_p.png,,,,,,
,,,,30019,001,2025-10-24_14h38.50.263,HW_LDT_1,2024.2.4,MacIntel,62.89308176,,,,,,,,,,,,,,,,,,,,,,764.0418,764.2404,764.2404,764.7403,,,,,,,,,,,,,,1.1054,1,,,,,,,,,,,,,,m,,,,,,,,,,,,,,,,142,0,764.7407,765.8561,m,1,1.1054,,[],[],[],[],[],[],[],765.8562,767.8571,767.8571,767.8572,[],[],[],[],[],[],[],,767.8573,767.8573,-0.064809028,-0.337261285,0,0,0,,0,141,141,132,1,4,word,PROPOSAL,print,proposal_p.png,,,,,,
,,,,30019,001,2025-10-24_14h38.50.263,HW_LDT_1,2024.2.4,MacIntel,62.89308176,,,,,,,,,,,,,,,,,,,,,,767.8586,768.0571,768.0572,768.5572,,,,,,,,,,,,,,1.1532,1,,,,,,,,,,,,,,m,,,,,,,,,,,,,,,,143,0,768.5576,769.7239,m,1,1.1532,,[],[],[],[],[],[],[],769.724,771.7239,771.724,771.7241,[],[],[],[],[],[],[],,771.7242,771.7243,-0.064809028,-0.337261285,0,0,0,,0,142,142,148,1,4,word,SALINE,print,saline_p.png,,,,,,
,,,,30019,001,2025-10-24_14h38.50.263,HW_LDT_1,2024.2.4,MacIntel,62.89308176,,,,,,,,,,,,,,,,,,,,,,771.7254,771.9239,771.924,772.424,,,,,,,,,,,,,,2.7088,1,,,,,,,,,,,,,,z,,,,,,,,,,,,,,,,144,0,772.4244,775.1396,z,1,2.7088,,[],[],[],[],[],[],[],775.1397,777.1407,777.1407,777.1409,[],[],[],[],[],[],[],,777.1409,777.141,-0.064809028,-0.337261285,0,0,0,,0,143,143,4,1,4,RL,betemit,cursive,betemit_c.png,,,,,,
,,,,30019,001,2025-10-24_14h38.50.263,HW_LDT_1,2024.2.4,MacIntel,62.89308176,,,,,,,,,,,,,,,,,,,,,,777.1423,777.3407,777.3407,777.8407,,,,,,,,,,,,,,1.1868,1,,,,,,,,,,,,,,m,,,,,,,,,,,,,,,,145,0,777.8412,779.0407,m,1,1.1868,,[],[],[],[],[],[],[],779.0409,781.0398,781.04,781.0401,[],[],[],[],[],[],[],,781.0401,781.0402,-0.064809028,-0.337261285,0,0,0,,0,144,144,139,1,4,word,REGULAR,cursive,regular_c.png,,,,,,
,,,,30019,001,2025-10-24_14h38.50.263,HW_LDT_1,2024.2.4,MacIntel,62.89308176,,,,,,,,,,,,,,,,,,,,,,781.0413,781.2399,781.2399,781.7406,,,,,,,,,,,,,,1.2554,1,,,,,,,,,,,,,,m,,,,,,,,,,,,,,,,146,1,781.7409,783.0065,m,1,1.2554,,[],[],[],[],[],[],[],783.0066,785.0075,785.0076,786.491,[],[],[],[],[],[],[],z,786.4911,786.4912,-0.064809028,-0.337261285,0,0,0,,0,145,145,133,1,4,word,PROVIDE,cursive,provide_c.png,1.4706,,,,,
,,,,30019,001,2025-10-24_14h38.50.263,HW_LDT_1,2024.2.4,MacIntel,62.89308176,,,,,,,,,,,,,,,,,,,,,,786.4922,786.6909,786.6909,787.1909,,,,,,,,,,,,,,2.8536,1,,,,,,,,,,,,,,z,,,,,,,,,,,,,,,,147,0,787.1914,790.0577,z,1,2.8536,,[],[],[],[],[],[],[],790.0577,792.0568,792.0568,792.0569,[],[],[],[],[],[],[],,792.057,792.0571,-0.064809028,-0.337261285,0,0,0,,0,146,146,34,1,4,RL,posity,cursive,posity_c.png,,,,,,
,,,,30019,001,2025-10-24_14h38.50.263,HW_LDT_1,2024.2.4,MacIntel,62.89308176,,,,,,,,,,,,,,,,,,,,,,792.0583,792.2568,792.2568,792.7577,,,,,,,,,,,,,,3.0577,1,,,,,,,,,,,,,,z,,,,,,,,,,,,,,,,148,0,792.7581,795.8235,z,1,3.0577,,[],[],[],[],[],[],[],795.8235,797.8246,797.8246,797.8248,[],[],[],[],[],[],[],,797.8248,797.8249,-0.064809028,-0.337261285,0,0,0,,0,147,147,52,1,4,TL,cagetory,cursive,cagetory_c.png,,,,,,
,,,,30019,001,2025-10-24_14h38.50.263,HW_LDT_1,2024.2.4,MacIntel,62.89308176,,,,,,,,,,,,,,,,,,,,,,797.8262,798.0236,798.0236,798.5244,,,,,,,,,,,,,,1.5543,1,,,,,,,,,,,,,,m,,,,,,,,,,,,,,,,149,1,798.5249,800.0903,m,1,1.5543,,[],[],[],[],[],[],[],800.0904,802.0912,802.0914,802.8738,[],[],[],[],[],[],[],z,802.8738,802.874,-0.064809028,-0.337261285,0,0,0,,0,148,148,104,1,4,word,DOMINANT,cursive,dominant_c.png,0.7702,,,,,
,,,,30019,001,2025-10-24_14h38.50.263,HW_LDT_1,2024.2.4,MacIntel,62.89308176,,,,,,,,,,,,,,,,,,,,,,802.875,803.0737,803.0737,803.5746,,,,,,,,,,,,,,2.8059,1,,,,,,,,,,,,,,z,,,,,,,,,,,,,,,,150,0,803.575,806.3915,z,1,2.8059,,[],[],[],[],[],[],[],806.3915,808.3915,808.3915,808.3917,[],[],[],[],[],[],[],,808.3917,808.3919,-0.064809028,-0.337261285,0,0,0,,0,149,149,14,1,4,RL,delahe,cursive,delahe_c.png,,,,,,
,,,,30019,001,2025-10-24_14h38.50.263,HW_LDT_1,2024.2.4,MacIntel,62.89308176,,,,,,,,,,,,,,,,,,,,,,808.3931,808.5915,808.5915,809.0905,,,,,,,,,,,,,,0.8413,1,,,,,,,,,,,,,,m,,,,,,,,,,,,,,,,151,0,809.091,809.9414,m,1,0.8413,,[],[],[],[],[],[],[],809.9415,811.9416,811.9416,811.9417,[],[],[],[],[],[],[],,811.9418,811.942,-0.064809028,-0.337261285,0,0,0,,0,150,150,149,1,4,word,SENATOR,print,senator_p.png,,,,,,
,,,,30019,001,2025-10-24_14h38.50.263,HW_LDT_1,2024.2.4,MacIntel,62.89308176,,,,,,,,,,,,,,,,,,,,,,811.9432,812.1415,812.1415,812.6414,,,,,,,,,,,,,,0.7697,1,,,,,,,,,,,,,,z,,,,,,,,,,,,,,,,152,0,812.642,813.4249,z,1,0.7697,,[],[],[],[],[],[],[],813.4249,815.4249,815.4249,815.4251,[],[],[],[],[],[],[],,815.4251,815.4253,-0.064809028,-0.337261285,0,0,0,,0,151,151,20,1,4,RL,gralekul,print,gralekul_p.png,,,,,,
,,,,30019,001,2025-10-24_14h38.50.263,HW_LDT_1,2024.2.4,MacIntel,62.89308176,,,,,,,,,,,,,,,,,,,,,,815.4262,815.6244,815.6245,816.124,,,,,,,,,,,,,,1.4533,1,,,,,,,,,,,,,,z,,,,,,,,,,,,,,,,153,0,816.1243,817.5913,z,1,1.4533,,[],[],[],[],[],[],[],817.5913,819.5909,819.591,819.5912,[],[],[],[],[],[],[],,819.5912,819.5912,-0.064809028,-0.337261285,0,0,0,,0,152,152,62,1,4,TL,locigal,print,locigal_p.png,,,,,,
,,,,30019,001,2025-10-24_14h38.50.263,HW_LDT_1,2024.2.4,MacIntel,62.89308176,,,,,,,,,,,,,,,,,,,,,,819.5922,819.7917,819.7917,820.2907,,,,,,,,,,,,,,1.7766,1,,,,,,,,,,,,,,z,,,,,,,,,,,,,,,,154,1,820.2912,822.0748,z,1,1.7766,,[],[],[],[],[],[],[],822.0748,824.0751,824.0752,824.9585,[],[],[],[],[],[],[],z,824.9586,824.9587,-0.064809028,-0.337261285,0,0,0,,0,153,153,36,1,4,RL,rabigly,cursive,rabigly_c.png,0.8706,,,,,
,,,,30019,001,2025-10-24_14h38.50.263,HW_LDT_1,2024.2.4,MacIntel,62.89308176,,,,,,,,,,,,,,,,,,,,,,824.9596,825.1585,825.1586,825.6586,,,,,,,,,,,,,,0.786,1,,,,,,,,,,,,,,z,,,,,,,,,,,,,,,,155,0,825.6592,826.4576,z,1,0.786,,[],[],[],[],[],[],[],826.4577,828.4586,828.4586,828.4588,[],[],[],[],[],[],[],,828.4589,828.4591,-0.064809028,-0.337261285,0,0,0,,0,154,154,27,1,4,RL,menowy,print,menowy_p.png,,,,,,
,,,,30019,001,2025-10-24_14h38.50.263,HW_LDT_1,2024.2.4,MacIntel,62.89308176,,,,,,,,,,,,,,,,,,,,,,828.4604,828.6576,828.6577,829.1586,,,,,,,,,,,,,,1.6206,1,,,,,,,,,,,,,,z,,,,,,,,,,,,,,,,156,0,829.1591,830.7916,z,1,1.6206,,[],[],[],[],[],[],[],830.7916,832.7916,832.7916,832.7917,[],[],[],[],[],[],[],,832.7917,832.7917,-0.064809028,-0.337261285,0,0,0,,0,155,155,45,1,4,RL,spetisic,cursive,spetisic_c.png,,,,,,
,,,,30019,001,2025-10-24_14h38.50.263,HW_LDT_1,2024.2.4,MacIntel,62.89308176,,,,,,,,,,,,,,,,,,,,,,832.7921,832.9917,832.9917,833.4921,,,,,,,,,,,,,,0.6698,1,,,,,,,,,,,,,,z,,,,,,,,,,,,,,,,157,0,833.4926,834.1745,z,1,0.6698,,[],[],[],[],[],[],[],834.1745,836.1752,836.1752,836.1753,[],[],[],[],[],[],[],,836.1754,836.1755,-0.064809028,-0.337261285,0,0,0,,0,156,156,29,1,4,RL,motide,print,motide_p.png,,,,,,
,,,,30019,001,2025-10-24_14h38.50.263,HW_LDT_1,2024.2.4,MacIntel,62.89308176,,,,,,,,,,,,,,,,,,,,,,836.1765,836.3754,836.3755,836.8754,,,,,,,,,,,,,,0.6688,1,,,,,,,,,,,,,,z,,,,,,,,,,,,,,,,158,1,836.8759,837.5588,z,1,0.6688,,[],[],[],[],[],[],[],837.5588,839.5589,839.5589,840.7751,[],[],[],[],[],[],[],m,840.7752,840.7752,-0.064809028,-0.337261285,0,0,0,,0,157,157,42,1,4,RL,revune,print,revune_p.png,1.2066,,,,,
,,,,30019,001,2025-10-24_14h38.50.263,HW_LDT_1,2024.2.4,MacIntel,62.89308176,,,,,,,,,,,,,,,,,,,,,,840.7762,840.9749,840.9751,841.4746,,,,,,,,,,,,,,0.8205,1,,,,,,,,,,,,,,z,,,,,,,,,,,,,,,,159,0,841.4751,842.308,z,1,0.8205,,[],[],[],[],[],[],[],842.3081,844.308,844.3081,844.3083,[],[],[],[],[],[],[],,844.3083,844.3084,-0.064809028,-0.337261285,0,0,0,,0,158,158,46,1,4,RL,skofen,cursive,skofen_c.png,,,,,,
,,,,30019,001,2025-10-24_14h38.50.263,HW_LDT_1,2024.2.4,MacIntel,62.89308176,,,,,,,,,,,,,,,,,,,,,,844.3094,844.5089,844.509,845.0089,,,,,,,,,,,,,,1.0213,1,,,,,,,,,,,,,,m,,,,,,,,,,,,,,,,160,0,845.0094,846.0413,m,1,1.0213,,[],[],[],[],[],[],[],846.0414,848.0417,848.0417,848.0418,[],[],[],[],[],[],[],,848.0419,848.0419,-0.064809028,-0.337261285,0,0,0,,0,159,159,134,1,4,word,QUALIFY,print,qualify_p.png,,,,,,
,,,,30019,001,2025-10-24_14h38.50.263,HW_LDT_1,2024.2.4,MacIntel,62.89308176,,,,,,,,,,,,,,,,,,,,,,,,,,,,,,,,,,,,,,,,,,,,,,,,,,,,,,,,,,,,,,,,,,,,,,,,,,,,,,,,,,,,,,,,,,,,,,,,,,,,,,,,,,,,,,,,,,,,,,,848.0424,853.0417
