counterbalance_lists.group,counterbalance_lists.remaining,get_list.started,get_list.stopped,participant,session,date,expName,psychopyVersion,OS,frameRate,Instructions.started,Instructions.stopped,key_resp.keys,instr_done_touch.x,instr_done_touch.y,instr_done_touch.leftButton,instr_done_touch.midButton,instr_done_touch.rightButton,instr_done_touch.clicked_name,start_instr.thisRepN,start_instr.thisTrialN,start_instr.thisN,start_instr.thisIndex,start_instr.ran,pageN,phase,instruct_text,has_image,instruct_image,key_resp.rt,key_resp.duration,showProgress.started,showProgress.stopped,fix.started,fix.stopped,prac.started,prac.stopped,response.keys,response.corr,response.rt,response.duration,touch_resp.x,touch_resp.y,touch_resp.leftButton,touch_resp.midButton,touch_resp.rightButton,touch_resp.time,touch_resp.clicked_name,rt,corr,feedback.started,feedback.stopped,trials.thisRepN,trials.thisTrialN,trials.thisN,trials.thisIndex,trials.ran,TrialID,StimulusType,Condition,PrimeDuration,Prime,Target,corrAns,Instructions_expt.started,Instructions_expt.stopped,key_resp_3.keys,instr_done_touch_3.x,instr_done_touch_3.y,instr_done_touch_3.leftButton,instr_done_touch_3.midButton,instr_done_touch_3.rightButton,instr_done_touch_3.clicked_name,instr_experiment.thisRepN,instr_experiment.thisTrialN,instr_experiment.thisN,instr_experiment.thisIndex,instr_experiment.ran,trialID,flag,maintask.started,maintask.stopped,key_resp_2.keys,key_resp_2.corr,key_resp_2.rt,key_resp_2.duration,targ_click.x,targ_click.y,targ_click.leftButton,targ_click.midButton,targ_click.rightButton,targ_click.time,targ_click.clicked_name,ITI.started,ITI.stopped,probe.started,probe.stopped,click_probe.x,click_probe.y,click_probe.leftButton,click_probe.midButton,click_probe.rightButton,click_probe.time,click_probe.clicked_name,key_resp_probe.keys,Break.started,Break.stopped,break_done_touch.x,break_done_touch.y,break_done_touch.leftButton,break_done_touch.midButton,break_done_touch.rightButton,break_done_keyboard.keys,list3_trials.thisRepN,list3_trials.thisTrialN,list3_trials.thisN,list3_trials.thisIndex,list3_trials.ran,list_id,item_type,string,font,stim_file,key_resp_probe.rt,key_resp_probe.duration,break_done_touch.clicked_name,break_done_keyboard.rt,break_done_keyboard.duration,End.started,End.stopped
list3,,0.5833,0.5835,30072,001,2025-12-02_19h04.29.118,HW_LDT_1,2024.2.4,MacIntel,60.0024001,,,,,,,,,,,,,,,,,,,,,,,,,,,,,,,,,,,,,,,,,,,,,,,,,,,,,,,,,,,,,,,,,,,,,,,,,,,,,,,,,,,,,,,,,,,,,,,,,,,,,,,,,,,,,,,,,,,,,,,,
,,,,30072,001,2025-12-02_19h04.29.118,HW_LDT_1,2024.2.4,MacIntel,60.0024001,0.6101,26.966,,-0.064826389,-0.397070313,1,0,0,instr_done_button,0,0,0,0,1,1,instructions,"INSTRUCTIONS
At the start of each trial, look at the plus sign  (+) in the center of the screen.  This tells you that a trial is about to begin and where to look. Second, the plus sign will disappear and a string of letters will appear. Your task is to determine if the string of letters is a word or not. If the item is a word press the M key (on keyboard)  or touch the word button (phone/tablet).  If the item is not a word,  press the  Z key (on keyboard)  or touch the nonword button (on phone/tablet). The items will be presented for a short time. 
Press the space bar or touch  continue.",0,,,,,,,,,,,,,,,,,,,,,,,,,,,,,,,,,,,,,,,,,,,,,,,,,,,,,,,,,,,,,,,,,,,,,,,,,,,,,,,,,,,,,,,,,,,,,,,,,,,,,,
,,,,30072,001,2025-12-02_19h04.29.118,HW_LDT_1,2024.2.4,MacIntel,60.0024001,26.9675,28.5224,,-0.032773438,-0.379578993,1,0,0,instr_done_button,0,1,1,1,1,2,instructions,"If your device has a keyboard, press the 'Z' key for nonwords and the 'M' key for words.





Press the space bar or touch the button below to continue.",0,keyboard-example.gif,,,,,,,,,,,,,,,,,,,,,,,,,,,,,,,,,,,,,,,,,,,,,,,,,,,,,,,,,,,,,,,,,,,,,,,,,,,,,,,,,,,,,,,,,,,,,,,,,,,,,
,,,,30072,001,2025-12-02_19h04.29.118,HW_LDT_1,2024.2.4,MacIntel,60.0024001,28.5238,32.3564,,-0.100833333,-0.373506944,1,0,0,instr_done_button,0,2,2,2,1,3,instructions,"If you are using a touchscreen only device, use the buttons on the screen. Do not use the mouse.





Press the space bar or touch the button below to continue.",0,touchscreen-example.gif,,,,,,,,,,,,,,,,,,,,,,,,,,,,,,,,,,,,,,,,,,,,,,,,,,,,,,,,,,,,,,,,,,,,,,,,,,,,,,,,,,,,,,,,,,,,,,,,,,,,,
,,,,30072,001,2025-12-02_19h04.29.118,HW_LDT_1,2024.2.4,MacIntel,60.0024001,32.3608,44.2078,space,-0.173142361,-0.051549479,0,0,0,,0,3,3,3,1,4,instructions,"It is very important that you respond as quickly and accurately as possible, as each letter string will only be on the screen for two seconds. If you do not respond within this time, the message 'Too slow!' will be displayed and the experiment will progress to the next letter string. The first 20 trials will be practice trials and you will receive feedback on your answers. 

Press the space bar or touch the button below to start the practice trials.",0,,11.8287,,,,,,,,,,,,,,,,,,,,,,,,,,,,,,,,,,,,,,,,,,,,,,,,,,,,,,,,,,,,,,,,,,,,,,,,,,,,,,,,,,,,,,,,,,,,,,,,,,,,
,,,,30072,001,2025-12-02_19h04.29.118,HW_LDT_1,2024.2.4,MacIntel,60.0024001,,,,,,,,,,,,,,,,,,,,,,44.2364,44.4056,44.4059,44.9064,44.9068,48.0722,z,1,3.1242,,[],[],[],[],[],[],[],3.1242,1,48.0727,48.5738,0,0,0,9,1,1010,NW,"ID",33,fariny,FARINY,z,,,,,,,,,,,,,,,,,,,,,,,,,,,,,,,,,,,,,,,,,,,,,,,,,,,,,,,,,,,,,,,,,,
,,,,30072,001,2025-12-02_19h04.29.118,HW_LDT_1,2024.2.4,MacIntel,60.0024001,,,,,,,,,,,,,,,,,,,,,,48.5748,48.772,48.7721,49.2749,49.2759,50.4882,m,1,1.1929,,[],[],[],[],[],[],[],1.1929,1,50.4883,50.99,0,1,1,3,1,1004,WORD,"ID",16,matrix,MATRIX,m,,,,,,,,,,,,,,,,,,,,,,,,,,,,,,,,,,,,,,,,,,,,,,,,,,,,,,,,,,,,,,,,,,
,,,,30072,001,2025-12-02_19h04.29.118,HW_LDT_1,2024.2.4,MacIntel,60.0024001,,,,,,,,,,,,,,,,,,,,,,50.991,51.1891,51.1893,51.6896,51.6906,52.9933,z,1,1.2702,,[],[],[],[],[],[],[],1.2702,1,52.9935,53.4884,0,2,2,8,1,1009,NW,"ID",33,aslert,ASLERT,z,,,,,,,,,,,,,,,,,,,,,,,,,,,,,,,,,,,,,,,,,,,,,,,,,,,,,,,,,,,,,,,,,,
,,,,30072,001,2025-12-02_19h04.29.118,HW_LDT_1,2024.2.4,MacIntel,60.0024001,,,,,,,,,,,,,,,,,,,,,,53.4897,53.6901,53.6901,54.1888,54.1894,55.4229,z,1,1.2165,,[],[],[],[],[],[],[],1.2165,1,55.4231,55.9232,0,3,3,13,1,1014,NW,UN,33,winfer,ROUPET,z,,,,,,,,,,,,,,,,,,,,,,,,,,,,,,,,,,,,,,,,,,,,,,,,,,,,,,,,,,,,,,,,,,
,,,,30072,001,2025-12-02_19h04.29.118,HW_LDT_1,2024.2.4,MacIntel,60.0024001,,,,,,,,,,,,,,,,,,,,,,55.9243,56.1217,56.1218,56.6229,56.6239,57.5386,m,1,0.8926,,[],[],[],[],[],[],[],0.8926,1,57.5387,58.0405,0,4,4,5,1,1006,WORD,UN,33,frenzy,OBTAIN,m,,,,,,,,,,,,,,,,,,,,,,,,,,,,,,,,,,,,,,,,,,,,,,,,,,,,,,,,,,,,,,,,,,
,,,,30072,001,2025-12-02_19h04.29.118,HW_LDT_1,2024.2.4,MacIntel,60.0024001,,,,,,,,,,,,,,,,,,,,,,58.0423,58.24,58.24,58.7381,58.7388,59.64,z,1,0.8713,,[],[],[],[],[],[],[],0.8713,1,59.6402,60.1387,0,5,5,10,1,1011,NW,"ID",16,inlade,INLADE,z,,,,,,,,,,,,,,,,,,,,,,,,,,,,,,,,,,,,,,,,,,,,,,,,,,,,,,,,,,,,,,,,,,
,,,,30072,001,2025-12-02_19h04.29.118,HW_LDT_1,2024.2.4,MacIntel,60.0024001,,,,,,,,,,,,,,,,,,,,,,60.1398,60.3392,60.3393,60.8402,60.8409,61.5053,m,1,0.6444,,[],[],[],[],[],[],[],0.6444,1,61.5054,62.0065,0,6,6,7,1,1008,WORD,UN,16,hurdle,VOLUME,m,,,,,,,,,,,,,,,,,,,,,,,,,,,,,,,,,,,,,,,,,,,,,,,,,,,,,,,,,,,,,,,,,,
,,,,30072,001,2025-12-02_19h04.29.118,HW_LDT_1,2024.2.4,MacIntel,60.0024001,,,,,,,,,,,,,,,,,,,,,,62.0076,62.2063,62.2065,62.7055,62.7065,63.5054,z,1,0.7797,,[],[],[],[],[],[],[],0.7797,1,63.5055,64.0048,0,7,7,11,1,1012,NW,"ID",16,rashet,RASHET,z,,,,,,,,,,,,,,,,,,,,,,,,,,,,,,,,,,,,,,,,,,,,,,,,,,,,,,,,,,,,,,,,,,
,,,,30072,001,2025-12-02_19h04.29.118,HW_LDT_1,2024.2.4,MacIntel,60.0024001,,,,,,,,,,,,,,,,,,,,,,64.0061,64.206,64.206,64.7049,64.7056,65.3715,m,1,0.6502,,[],[],[],[],[],[],[],0.6502,1,65.3715,65.8728,0,8,8,1,1,1002,WORD,"ID",33,adjust,ADJUST,m,,,,,,,,,,,,,,,,,,,,,,,,,,,,,,,,,,,,,,,,,,,,,,,,,,,,,,,,,,,,,,,,,,
,,,,30072,001,2025-12-02_19h04.29.118,HW_LDT_1,2024.2.4,MacIntel,60.0024001,,,,,,,,,,,,,,,,,,,,,,65.8739,66.0737,66.0737,66.5715,66.5726,67.2049,m,1,0.6121,,[],[],[],[],[],[],[],0.6121,1,67.2051,67.7065,0,9,9,4,1,1005,WORD,UN,33,abound,SQUEAK,m,,,,,,,,,,,,,,,,,,,,,,,,,,,,,,,,,,,,,,,,,,,,,,,,,,,,,,,,,,,,,,,,,,
,,,,30072,001,2025-12-02_19h04.29.118,HW_LDT_1,2024.2.4,MacIntel,60.0024001,,,,,,,,,,,,,,,,,,,,,,67.7074,67.9059,67.9059,68.4069,68.4077,69.0216,m,1,0.5872,,[],[],[],[],[],[],[],0.5872,1,69.0217,69.5228,0,10,10,6,1,1007,WORD,UN,16,tropic,ZOMBIE,m,,,,,,,,,,,,,,,,,,,,,,,,,,,,,,,,,,,,,,,,,,,,,,,,,,,,,,,,,,,,,,,,,,
,,,,30072,001,2025-12-02_19h04.29.118,HW_LDT_1,2024.2.4,MacIntel,60.0024001,,,,,,,,,,,,,,,,,,,,,,69.5235,69.7244,69.7244,70.2226,70.2231,71.0562,z,1,0.812,,[],[],[],[],[],[],[],0.812,1,71.0562,71.5549,0,11,11,12,1,1013,NW,UN,33,adveil,SPRINY,z,,,,,,,,,,,,,,,,,,,,,,,,,,,,,,,,,,,,,,,,,,,,,,,,,,,,,,,,,,,,,,,,,,
,,,,30072,001,2025-12-02_19h04.29.118,HW_LDT_1,2024.2.4,MacIntel,60.0024001,,,,,,,,,,,,,,,,,,,,,,71.5559,71.7567,71.7567,72.2547,72.2555,72.8715,m,1,0.5935,,[],[],[],[],[],[],[],0.5935,1,72.8716,73.3752,0,12,12,2,1,1003,WORD,"ID",16,almond,ALMOND,m,,,,,,,,,,,,,,,,,,,,,,,,,,,,,,,,,,,,,,,,,,,,,,,,,,,,,,,,,,,,,,,,,,
,,,,30072,001,2025-12-02_19h04.29.118,HW_LDT_1,2024.2.4,MacIntel,60.0024001,,,,,,,,,,,,,,,,,,,,,,73.3765,73.5712,73.5713,74.0729,74.0737,74.823,z,1,0.7258,,[],[],[],[],[],[],[],0.7258,1,74.8231,75.3231,0,13,13,15,1,1016,NW,UN,16,mushed,WHAISE,z,,,,,,,,,,,,,,,,,,,,,,,,,,,,,,,,,,,,,,,,,,,,,,,,,,,,,,,,,,,,,,,,,,
,,,,30072,001,2025-12-02_19h04.29.118,HW_LDT_1,2024.2.4,MacIntel,60.0024001,,,,,,,,,,,,,,,,,,,,,,75.3241,75.5222,75.5222,76.0211,76.0217,76.823,m,1,0.7801,,[],[],[],[],[],[],[],0.7801,1,76.8232,77.3223,0,14,14,0,1,1001,WORD,"ID",33,utopia,UTOPIA,m,,,,,,,,,,,,,,,,,,,,,,,,,,,,,,,,,,,,,,,,,,,,,,,,,,,,,,,,,,,,,,,,,,
,,,,30072,001,2025-12-02_19h04.29.118,HW_LDT_1,2024.2.4,MacIntel,60.0024001,,,,,,,,,,,,,,,,,,,,,,77.3235,77.5215,77.5215,78.0245,78.0254,78.9884,z,1,0.9442,,[],[],[],[],[],[],[],0.9442,1,78.9885,79.4879,0,15,15,14,1,1015,NW,UN,16,miaber,THRALE,z,,,,,,,,,,,,,,,,,,,,,,,,,,,,,,,,,,,,,,,,,,,,,,,,,,,,,,,,,,,,,,,,,,
,,,,30072,001,2025-12-02_19h04.29.118,HW_LDT_1,2024.2.4,MacIntel,60.0024001,,,,,,,,,,,,,,,1,end_of_practice,"You have completed the practice trials. During the experimental trials, you will not receive feedback. On some trials you will be asked to report whether the item you just saw was in cursive or print. 
Before you begin, please ensure that you are in a comfortable and quiet location and will not be disturbed for about 15 minutes, as we cannot use your data if you do not complete all the trials. 
 When you are ready to start the experimental trials, please press space or touch the button below.",,,,,,,,,,,,,,,,,,,,,,,,,,,,,,,,,,,,,,79.4946,81.2383,,-0.041480035,-0.380568576,1,0,0,instr_done_button_3,0,0,0,0,1,,,,,,,,,,,,,,,,,,,,,,,,,,,,,,,,,,,,,,,,,,,,,,,,,,,,
,,,,30072,001,2025-12-02_19h04.29.118,HW_LDT_1,2024.2.4,MacIntel,60.0024001,,,,,,,,,,,,,,,,,,,,,,81.256,81.4401,81.4402,81.9387,,,,,,,,,,,,,,2.4789,1,,,,,,,,,,,,,,z,,,,,,,,,,,,,,,1,0,81.94,84.4225,z,1,2.4789,,[],[],[],[],[],[],[],84.4227,86.4212,86.4214,86.4349,[],[],[],[],[],[],[],,86.435,86.4395,-0.041480035,-0.380568576,0,0,0,,0,0,0,13,1,3,RL,helicage,cursive,helicage_c.png,,,,,,,
,,,,30072,001,2025-12-02_19h04.29.118,HW_LDT_1,2024.2.4,MacIntel,60.0024001,,,,,,,,,,,,,,,,,,,,,,86.4402,86.6395,86.6396,87.1383,,,,,,,,,,,,,,0.7661,0,,,,,,,,,,,,,,z,,,,,,,,,,,,,,,2,0,87.1387,87.9056,m,0,0.7661,,[],[],[],[],[],[],[],87.9059,89.9044,89.9044,89.9046,[],[],[],[],[],[],[],,89.9047,89.9048,-0.041480035,-0.380568576,0,0,0,,0,1,1,35,1,3,TL,cateferia,print,cateferia_p.png,,,,,,,
,,,,30072,001,2025-12-02_19h04.29.118,HW_LDT_1,2024.2.4,MacIntel,60.0024001,,,,,,,,,,,,,,,,,,,,,,89.9056,90.1053,90.1054,90.6045,,,,,,,,,,,,,,0.6584,1,,,,,,,,,,,,,,m,,,,,,,,,,,,,,,3,0,90.6048,91.2749,m,1,0.6584,,[],[],[],[],[],[],[],91.2752,93.2731,93.2731,93.2734,[],[],[],[],[],[],[],,93.2735,93.2736,-0.041480035,-0.380568576,0,0,0,,0,2,2,98,1,3,word,CRIMINAL,print,criminal_p.png,,,,,,,
,,,,30072,001,2025-12-02_19h04.29.118,HW_LDT_1,2024.2.4,MacIntel,60.0024001,,,,,,,,,,,,,,,,,,,,,,93.2744,93.4715,93.4715,93.9723,,,,,,,,,,,,,,0.6403,0,,,,,,,,,,,,,,z,,,,,,,,,,,,,,,4,0,93.973,94.6215,m,0,0.6403,,[],[],[],[],[],[],[],94.6215,96.6226,96.6227,96.6229,[],[],[],[],[],[],[],,96.6229,96.6231,-0.041480035,-0.380568576,0,0,0,,0,3,3,39,1,3,TL,clicinal,print,clicinal_p.png,,,,,,,
,,,,30072,001,2025-12-02_19h04.29.118,HW_LDT_1,2024.2.4,MacIntel,60.0024001,,,,,,,,,,,,,,,,,,,,,,96.6239,96.8215,96.8215,97.3218,,,,,,,,,,,,,,0.608,1,,,,,,,,,,,,,,m,,,,,,,,,,,,,,,5,0,97.3222,97.9419,m,1,0.608,,[],[],[],[],[],[],[],97.942,99.9385,99.9386,99.939,[],[],[],[],[],[],[],,99.939,99.9391,-0.041480035,-0.380568576,0,0,0,,0,4,4,142,1,3,word,REMOTE,print,remote_p.png,,,,,,,
,,,,30072,001,2025-12-02_19h04.29.118,HW_LDT_1,2024.2.4,MacIntel,60.0024001,,,,,,,,,,,,,,,,,,,,,,99.9399,100.1377,100.1377,100.6378,,,,,,,,,,,,,,0.6107,0,,,,,,,,,,,,,,z,,,,,,,,,,,,,,,6,0,100.6381,101.2566,m,0,0.6107,,[],[],[],[],[],[],[],101.2566,103.2547,103.2547,103.255,[],[],[],[],[],[],[],,103.2551,103.2554,-0.041480035,-0.380568576,0,0,0,,0,5,5,67,1,3,TL,retome,print,retome_p.png,,,,,,,
,,,,30072,001,2025-12-02_19h04.29.118,HW_LDT_1,2024.2.4,MacIntel,60.0024001,,,,,,,,,,,,,,,,,,,,,,103.2563,103.4542,103.4542,103.9549,,,,,,,,,,,,,,2.0144,1,,,,,,,,,,,,,,z,,,,,,,,,,,,,,,7,0,103.9553,105.9719,z,1,2.0144,,[],[],[],[],[],[],[],105.9721,107.9715,107.9716,107.9723,[],[],[],[],[],[],[],,107.9723,107.9725,-0.041480035,-0.380568576,0,0,0,,0,6,6,70,1,3,TL,remuse,cursive,remuse_c.png,,,,,,,
,,,,30072,001,2025-12-02_19h04.29.118,HW_LDT_1,2024.2.4,MacIntel,60.0024001,,,,,,,,,,,,,,,,,,,,,,107.9731,108.1708,108.1709,108.6731,,,,,,,,,,,,,,0.0294,1,,,,,,,,,,,,,,z,,,,,,,,,,,,,,,8,0,108.6734,108.7045,z,1,0.0294,,[],[],[],[],[],[],[],108.7045,110.7042,110.7043,110.7046,[],[],[],[],[],[],[],,110.7046,110.7046,-0.041480035,-0.380568576,0,0,0,,0,7,7,18,1,3,RL,onegator,print,onegator_p.png,,,,,,,
,,,,30072,001,2025-12-02_19h04.29.118,HW_LDT_1,2024.2.4,MacIntel,60.0024001,,,,,,,,,,,,,,,,,,,,,,110.7057,110.9044,110.9044,111.4056,,,,,,,,,,,,,,1.0118,1,,,,,,,,,,,,,,z,,,,,,,,,,,,,,,9,0,111.4063,112.4208,z,1,1.0118,,[],[],[],[],[],[],[],112.4209,114.4244,114.4244,114.4249,[],[],[],[],[],[],[],,114.4249,114.425,-0.041480035,-0.380568576,0,0,0,,0,8,8,1,1,3,RL,bewoted,cursive,bewoted_c.png,,,,,,,
,,,,30072,001,2025-12-02_19h04.29.118,HW_LDT_1,2024.2.4,MacIntel,60.0024001,,,,,,,,,,,,,,,,,,,,,,114.4258,114.6209,114.6209,115.1219,,,,,,,,,,,,,,2.164,0,,,,,,,,,,,,,,m,,,,,,,,,,,,,,,10,0,115.1223,117.2885,z,0,2.164,,[],[],[],[],[],[],[],117.2886,119.291,119.2911,119.2912,[],[],[],[],[],[],[],,119.2912,119.2914,-0.041480035,-0.380568576,0,0,0,,0,9,9,92,1,3,word,CATEGORY,cursive,category_c.png,,,,,,,
,,,,30072,001,2025-12-02_19h04.29.118,HW_LDT_1,2024.2.4,MacIntel,60.0024001,,,,,,,,,,,,,,,,,,,,,,119.2922,119.4894,119.4894,119.9885,,,,,,,,,,,,,,1.1968,0,,,,,,,,,,,,,,m,,,,,,,,,,,,,,,11,0,119.9891,121.1883,z,0,1.1968,,[],[],[],[],[],[],[],121.1884,123.1873,123.1874,123.1877,[],[],[],[],[],[],[],,123.1877,123.1878,-0.041480035,-0.380568576,0,0,0,,0,10,10,120,1,3,word,MILITARY,cursive,military_c.png,,,,,,,
,,,,30072,001,2025-12-02_19h04.29.118,HW_LDT_1,2024.2.4,MacIntel,60.0024001,,,,,,,,,,,,,,,,,,,,,,123.1887,123.3873,123.3873,123.8874,,,,,,,,,,,,,,3.4934,1,,,,,,,,,,,,,,z,,,,,,,,,,,,,,,12,0,123.8879,127.3885,z,1,3.4934,,[],[],[],[],[],[],[],127.3886,129.3878,129.3878,129.3882,[],[],[],[],[],[],[],,129.3882,129.3883,-0.041480035,-0.380568576,0,0,0,,0,11,11,63,1,3,TL,racidal,cursive,racidal_c.png,,,,,,,
,,,,30072,001,2025-12-02_19h04.29.118,HW_LDT_1,2024.2.4,MacIntel,60.0024001,,,,,,,,,,,,,,,,,,,,,,129.3893,129.588,129.5881,130.0888,,,,,,,,,,,,,,1.1975,1,,,,,,,,,,,,,,m,,,,,,,,,,,,,,,13,0,130.0893,131.2873,m,1,1.1975,,[],[],[],[],[],[],[],131.2874,133.2889,133.2889,133.2894,[],[],[],[],[],[],[],,133.2894,133.2895,-0.041480035,-0.380568576,0,0,0,,0,12,12,133,1,3,word,PROVIDE,print,provide_p.png,,,,,,,
,,,,30072,001,2025-12-02_19h04.29.118,HW_LDT_1,2024.2.4,MacIntel,60.0024001,,,,,,,,,,,,,,,,,,,,,,133.2904,133.4902,133.4904,133.9874,,,,,,,,,,,,,,1.2324,1,,,,,,,,,,,,,,m,,,,,,,,,,,,,,,14,0,133.9877,135.2219,m,1,1.2324,,[],[],[],[],[],[],[],135.2219,137.2212,137.2212,137.2218,[],[],[],[],[],[],[],,137.2218,137.2219,-0.041480035,-0.380568576,0,0,0,,0,13,13,129,1,3,word,PARENT,print,parent_p.png,,,,,,,
,,,,30072,001,2025-12-02_19h04.29.118,HW_LDT_1,2024.2.4,MacIntel,60.0024001,,,,,,,,,,,,,,,,,,,,,,137.2227,137.421,137.421,137.922,,,,,,,,,,,,,,1.3628,1,,,,,,,,,,,,,,m,,,,,,,,,,,,,,,15,0,137.9224,139.2872,m,1,1.3628,,[],[],[],[],[],[],[],139.2873,141.2871,141.2871,141.2874,[],[],[],[],[],[],[],,141.2874,141.2874,-0.041480035,-0.380568576,0,0,0,,0,14,14,135,1,3,word,QUALITY,print,quality_p.png,,,,,,,
,,,,30072,001,2025-12-02_19h04.29.118,HW_LDT_1,2024.2.4,MacIntel,60.0024001,,,,,,,,,,,,,,,,,,,,,,141.2883,141.4886,141.4886,141.9891,,,,,,,,,,,,,,1.6101,1,,,,,,,,,,,,,,m,,,,,,,,,,,,,,,16,0,141.9894,143.604,m,1,1.6101,,[],[],[],[],[],[],[],143.6041,145.6042,145.6043,145.6045,[],[],[],[],[],[],[],,145.6046,145.6046,-0.041480035,-0.380568576,0,0,0,,0,15,15,131,1,3,word,POPULAR,print,popular_p.png,,,,,,,
,,,,30072,001,2025-12-02_19h04.29.118,HW_LDT_1,2024.2.4,MacIntel,60.0024001,,,,,,,,,,,,,,,,,,,,,,145.6055,145.805,145.8051,146.3035,,,,,,,,,,,,,,3.9309,1,,,,,,,,,,,,,,z,,,,,,,,,,,,,,,17,0,146.3037,150.2375,z,1,3.9309,,[],[],[],[],[],[],[],150.2375,152.2368,152.2369,152.2371,[],[],[],[],[],[],[],,152.2371,152.2372,-0.041480035,-0.380568576,0,0,0,,0,16,16,36,1,3,TL,carema,cursive,carema_c.png,,,,,,,
,,,,30072,001,2025-12-02_19h04.29.118,HW_LDT_1,2024.2.4,MacIntel,60.0024001,,,,,,,,,,,,,,,,,,,,,,152.2382,152.4369,152.437,152.9376,,,,,,,,,,,,,,6.1907,1,,,,,,,,,,,,,,z,,,,,,,,,,,,,,,18,0,152.9381,159.1384,z,1,6.1907,,[],[],[],[],[],[],[],159.1385,161.1403,161.1403,161.1407,[],[],[],[],[],[],[],,161.1408,161.1409,-0.041480035,-0.380568576,0,0,0,,0,17,17,68,1,3,TL,revomal,cursive,revomal_c.png,,,,,,,
,,,,30072,001,2025-12-02_19h04.29.118,HW_LDT_1,2024.2.4,MacIntel,60.0024001,,,,,,,,,,,,,,,,,,,,,,161.142,161.3381,161.3382,161.8367,,,,,,,,,,,,,,1.183,1,,,,,,,,,,,,,,m,,,,,,,,,,,,,,,19,0,161.837,163.0207,m,1,1.183,,[],[],[],[],[],[],[],163.0208,165.0214,165.0215,165.0216,[],[],[],[],[],[],[],,165.0217,165.0217,-0.041480035,-0.380568576,0,0,0,,0,18,18,85,1,3,word,BENEFIT,print,benefit_p.png,,,,,,,
,,,,30072,001,2025-12-02_19h04.29.118,HW_LDT_1,2024.2.4,MacIntel,60.0024001,,,,,,,,,,,,,,,,,,,,,,165.0226,165.2203,165.2203,165.7214,,,,,,,,,,,,,,0.8633,1,,,,,,,,,,,,,,m,,,,,,,,,,,,,,,20,0,165.722,166.5873,m,1,0.8633,,[],[],[],[],[],[],[],166.5873,168.5884,168.5885,168.589,[],[],[],[],[],[],[],,168.589,168.5891,-0.041480035,-0.380568576,0,0,0,,0,19,19,113,1,3,word,LITERAL,print,literal_p.png,,,,,,,
,,,,30072,001,2025-12-02_19h04.29.118,HW_LDT_1,2024.2.4,MacIntel,60.0024001,,,,,,,,,,,,,,,,,,,,,,168.5898,168.7877,168.7877,169.2882,,,,,,,,,,,,,,1.011,1,,,,,,,,,,,,,,m,,,,,,,,,,,,,,,21,0,169.2888,170.304,m,1,1.011,,[],[],[],[],[],[],[],170.3042,172.3042,172.3042,172.3045,[],[],[],[],[],[],[],,172.3046,172.3048,-0.045195313,-0.379713542,0,0,0,,0,20,20,156,1,3,word,TRIBUTE,print,tribute_p.png,,,,,,,
,,,,30072,001,2025-12-02_19h04.29.118,HW_LDT_1,2024.2.4,MacIntel,60.0024001,,,,,,,,,,,,,,,,,,,,,,172.3056,172.5041,172.5041,173.0036,,,,,,,,,,,,,,1.6463,1,,,,,,,,,,,,,,m,,,,,,,,,,,,,,,22,0,173.004,174.6571,m,1,1.6463,,[],[],[],[],[],[],[],174.6572,176.6564,176.6565,176.6569,[],[],[],[],[],[],[],,176.6569,176.657,-0.043068576,-0.384561632,0,0,0,,0,21,21,143,1,3,word,REMOVAL,cursive,removal_c.png,,,,,,,
,,,,30072,001,2025-12-02_19h04.29.118,HW_LDT_1,2024.2.4,MacIntel,60.0024001,,,,,,,,,,,,,,,,,,,,,,176.6578,176.8532,176.8532,177.3533,,,,,,,,,,,,,,1.4314,0,,,,,,,,,,,,,,z,,,,,,,,,,,,,,,23,0,177.3538,178.7872,m,0,1.4314,,[],[],[],[],[],[],[],178.7873,180.7865,180.7865,180.7868,[],[],[],[],[],[],[],,180.7868,180.7871,-0.043068576,-0.384561632,0,0,0,,0,22,22,7,1,3,RL,cobeny,print,cobeny_p.png,,,,,,,
,,,,30072,001,2025-12-02_19h04.29.118,HW_LDT_1,2024.2.4,MacIntel,60.0024001,,,,,,,,,,,,,,,,,,,,,,180.7882,180.9879,180.988,181.487,,,,,,,,,,,,,,0.6791,1,,,,,,,,,,,,,,m,,,,,,,,,,,,,,,24,0,181.4875,182.1711,m,1,0.6791,,[],[],[],[],[],[],[],182.1712,184.1714,184.1716,184.1717,[],[],[],[],[],[],[],,184.1719,184.1719,-0.043068576,-0.384561632,0,0,0,,0,23,23,155,1,3,word,STRATEGY,print,strategy_p.png,,,,,,,
,,,,30072,001,2025-12-02_19h04.29.118,HW_LDT_1,2024.2.4,MacIntel,60.0024001,,,,,,,,,,,,,,,,,,,,,,184.1727,184.3699,184.37,184.8713,,,,,,,,,,,,,,1.1139,1,,,,,,,,,,,,,,m,,,,,,,,,,,,,,,25,0,184.8719,185.9896,m,1,1.1139,,[],[],[],[],[],[],[],185.9898,187.9884,187.9884,187.9886,[],[],[],[],[],[],[],,187.9887,187.9888,-0.043068576,-0.384561632,0,0,0,,0,24,24,157,1,3,word,VALIDITY,cursive,validity_c.png,,,,,,,
,,,,30072,001,2025-12-02_19h04.29.118,HW_LDT_1,2024.2.4,MacIntel,60.0024001,,,,,,,,,,,,,,,,,,,,,,187.9905,188.187,188.187,188.6868,,,,,,,,,,,,,,4.11,0,,,,,,,,,,,,,,m,,,,,,,,,,,,,,,26,1,188.6871,192.8051,z,0,4.11,,[],[],[],[],[],[],[],192.8052,194.8049,194.8049,201.5702,[],[],[],[],[],[],[],z,201.5702,201.5703,-0.043068576,-0.384561632,0,0,0,,0,25,25,109,1,3,word,GRATEFUL,cursive,grateful_c.png,6.7647,,,,,,
,,,,30072,001,2025-12-02_19h04.29.118,HW_LDT_1,2024.2.4,MacIntel,60.0024001,,,,,,,,,,,,,,,,,,,,,,201.5714,201.7711,201.7713,202.2703,,,,,,,,,,,,,,2.208,1,,,,,,,,,,,,,,m,,,,,,,,,,,,,,,27,0,202.2708,204.4866,m,1,2.208,,[],[],[],[],[],[],[],204.4867,206.4866,206.4866,206.4868,[],[],[],[],[],[],[],,206.4868,206.4868,-0.043068576,-0.384561632,0,0,0,,0,26,26,80,1,3,word,ACADEMY,print,academy_p.png,,,,,,,
,,,,30072,001,2025-12-02_19h04.29.118,HW_LDT_1,2024.2.4,MacIntel,60.0024001,,,,,,,,,,,,,,,,,,,,,,206.4877,206.688,206.688,207.1881,,,,,,,,,,,,,,1.2749,1,,,,,,,,,,,,,,m,,,,,,,,,,,,,,,28,0,207.1885,208.4719,m,1,1.2749,,[],[],[],[],[],[],[],208.4721,210.4707,210.4708,210.4713,[],[],[],[],[],[],[],,210.4713,210.4715,-0.043068576,-0.384561632,0,0,0,,0,27,27,82,1,3,word,AMATEUR,print,amateur_p.png,,,,,,,
,,,,30072,001,2025-12-02_19h04.29.118,HW_LDT_1,2024.2.4,MacIntel,60.0024001,,,,,,,,,,,,,,,,,,,,,,210.4722,210.6714,210.6715,211.1714,,,,,,,,,,,,,,3.5478,1,,,,,,,,,,,,,,z,,,,,,,,,,,,,,,29,0,211.1718,214.7204,z,1,3.5478,,[],[],[],[],[],[],[],214.7206,216.7197,216.7198,216.7201,[],[],[],[],[],[],[],,216.7201,216.7203,-0.043068576,-0.384561632,0,0,0,,0,28,28,57,1,3,TL,moredate,cursive,moredate_c.png,,,,,,,
,,,,30072,001,2025-12-02_19h04.29.118,HW_LDT_1,2024.2.4,MacIntel,60.0024001,,,,,,,,,,,,,,,,,,,,,,216.7211,216.9194,216.9194,217.4191,,,,,,,,,,,,,,2.6323,1,,,,,,,,,,,,,,z,,,,,,,,,,,,,,,30,0,217.4194,220.0545,z,1,2.6323,,[],[],[],[],[],[],[],220.0546,222.053,222.0532,222.0535,[],[],[],[],[],[],[],,222.0535,222.0536,-0.043068576,-0.384561632,0,0,0,,0,29,29,76,1,3,TL,stogare,cursive,stogare_c.png,,,,,,,
,,,,30072,001,2025-12-02_19h04.29.118,HW_LDT_1,2024.2.4,MacIntel,60.0024001,,,,,,,,,,,,,,,,,,,,,,222.0545,222.2542,222.2543,222.7542,,,,,,,,,,,,,,1.1812,1,,,,,,,,,,,,,,m,,,,,,,,,,,,,,,31,0,222.7547,223.9378,m,1,1.1812,,[],[],[],[],[],[],[],223.9378,225.9388,225.9389,225.9391,[],[],[],[],[],[],[],,225.9393,225.9394,-0.043068576,-0.384561632,0,0,0,,0,30,30,112,1,3,word,LIBERAL,print,liberal_p.png,,,,,,,
,,,,30072,001,2025-12-02_19h04.29.118,HW_LDT_1,2024.2.4,MacIntel,60.0024001,,,,,,,,,,,,,,,,,,,,,,225.941,226.1363,226.1363,226.6361,,,,,,,,,,,,,,0.6827,1,,,,,,,,,,,,,,m,,,,,,,,,,,,,,,32,0,226.6365,227.32,m,1,0.6827,,[],[],[],[],[],[],[],227.32,229.3202,229.3202,229.3203,[],[],[],[],[],[],[],,229.3203,229.3204,-0.043068576,-0.384561632,0,0,0,,0,31,31,130,1,3,word,POLICY,print,policy_p.png,,,,,,,
,,,,30072,001,2025-12-02_19h04.29.118,HW_LDT_1,2024.2.4,MacIntel,60.0024001,,,,,,,,,,,,,,,,,,,,,,229.3211,229.5196,229.5196,230.0189,,,,,,,,,,,,,,1.8327,1,,,,,,,,,,,,,,z,,,,,,,,,,,,,,,33,0,230.0193,231.8535,z,1,1.8327,,[],[],[],[],[],[],[],231.8536,233.8533,233.8534,233.8535,[],[],[],[],[],[],[],,233.8536,233.8536,-0.043068576,-0.384561632,0,0,0,,0,32,32,66,1,3,TL,retalive,cursive,retalive_c.png,,,,,,,
,,,,30072,001,2025-12-02_19h04.29.118,HW_LDT_1,2024.2.4,MacIntel,60.0024001,,,,,,,,,,,,,,,,,,,,,,233.8544,234.0538,234.0538,234.5525,,,,,,,,,,,,,,1.1445,1,,,,,,,,,,,,,,z,,,,,,,,,,,,,,,34,0,234.5528,235.7047,z,1,1.1445,,[],[],[],[],[],[],[],235.705,237.7069,237.7071,237.7076,[],[],[],[],[],[],[],,237.7076,237.7077,-0.043068576,-0.384561632,0,0,0,,0,33,33,61,1,3,TL,pocily,print,pocily_p.png,,,,,,,
,,,,30072,001,2025-12-02_19h04.29.118,HW_LDT_1,2024.2.4,MacIntel,60.0024001,,,,,,,,,,,,,,,,,,,,,,237.7087,237.9053,237.9055,238.405,,,,,,,,,,,,,,1.7618,1,,,,,,,,,,,,,,z,,,,,,,,,,,,,,,35,0,238.4056,240.1712,z,1,1.7618,,[],[],[],[],[],[],[],240.1712,242.1693,242.1693,242.1699,[],[],[],[],[],[],[],,242.17,242.1701,-0.043068576,-0.384561632,0,0,0,,0,34,34,15,1,3,RL,mifikary,cursive,mifikary_c.png,,,,,,,
,,,,30072,001,2025-12-02_19h04.29.118,HW_LDT_1,2024.2.4,MacIntel,60.0024001,,,,,,,,,,,,,,,,,,,,,,242.1712,242.3723,242.3724,242.8727,,,,,,,,,,,,,,1.7567,1,,,,,,,,,,,,,,m,,,,,,,,,,,,,,,36,0,242.873,244.637,m,1,1.7567,,[],[],[],[],[],[],[],244.637,246.637,246.637,246.6373,[],[],[],[],[],[],[],,246.6373,246.6375,-0.043068576,-0.384561632,0,0,0,,0,35,35,139,1,3,word,REGULAR,print,regular_p.png,,,,,,,
,,,,30072,001,2025-12-02_19h04.29.118,HW_LDT_1,2024.2.4,MacIntel,60.0024001,,,,,,,,,,,,,,,,,,,,,,246.6383,246.837,246.837,247.3371,,,,,,,,,,,,,,1.3963,1,,,,,,,,,,,,,,z,,,,,,,,,,,,,,,37,0,247.3378,248.7371,z,1,1.3963,,[],[],[],[],[],[],[],248.7372,250.7368,250.7369,250.7373,[],[],[],[],[],[],[],,250.7373,250.7374,-0.043068576,-0.384561632,0,0,0,,0,36,36,32,1,3,TL,adacemy,print,adacemy_p.png,,,,,,,
,,,,30072,001,2025-12-02_19h04.29.118,HW_LDT_1,2024.2.4,MacIntel,60.0024001,,,,,,,,,,,,,,,,,,,,,,250.7391,250.9385,250.9386,251.4391,,,,,,,,,,,,,,2.2442,1,,,,,,,,,,,,,,z,,,,,,,,,,,,,,,38,0,251.4398,253.6854,z,1,2.2442,,[],[],[],[],[],[],[],253.6855,255.6738,255.6738,255.6742,[],[],[],[],[],[],[],,255.6742,255.6743,-0.043068576,-0.384561632,0,0,0,,0,37,37,11,1,3,RL,ebiwent,cursive,ebiwent_c.png,,,,,,,
,,,,30072,001,2025-12-02_19h04.29.118,HW_LDT_1,2024.2.4,MacIntel,60.0024001,,,,,,,,,,,,,,,,,,,,,,255.6751,255.8711,255.8711,256.3709,,,,,,,,,,,,,,1.9311,1,,,,,,,,,,,,,,z,,,,,,,,,,,,,,,39,0,256.3712,258.303,z,1,1.9311,,[],[],[],[],[],[],[],258.3031,260.3038,260.3038,260.3041,[],[],[],[],[],[],[],,260.3041,260.3043,-0.043068576,-0.384561632,0,0,0,,0,38,38,72,1,3,TL,senmitent,print,senmitent_p.png,,,,,,,
,,,,30072,001,2025-12-02_19h04.29.118,HW_LDT_1,2024.2.4,MacIntel,60.0024001,,,,,,,,,,,,,,,,,,,,,,260.3111,260.5041,260.5041,261.0029,,,,,,,,,,,,,,3.2317,1,,,,,,,,,,,,,,z,,,,,,,,,,,,,,,40,0,261.0033,264.2381,z,1,3.2317,,[],[],[],[],[],[],[],264.2382,266.237,266.237,266.2385,[],[],[],[],[],[],[],,266.2385,266.2386,-0.043068576,-0.384561632,0,0,0,,0,39,39,22,1,3,RL,procogal,print,procogal_p.png,,,,,,,
,,,,30072,001,2025-12-02_19h04.29.118,HW_LDT_1,2024.2.4,MacIntel,60.0024001,,,,,,,,,,,,,,,,,,,,,,266.2403,266.436,266.436,266.9366,,,,,,,,,,,,,,4.7959,1,,,,,,,,,,,,,,z,,,,,,,,,,,,,,,41,0,266.9367,271.7367,z,1,4.7959,,[],[],[],[],[],[],[],271.7367,273.7368,273.7369,273.7372,[],[],[],[],[],[],[],,273.7372,273.7374,-0.043068576,-0.384561632,0,0,0,,0,40,40,34,1,3,TL,aminal,cursive,aminal_c.png,,,,,,,
,,,,30072,001,2025-12-02_19h04.29.118,HW_LDT_1,2024.2.4,MacIntel,60.0024001,,,,,,,,,,,,,,,,,,,,,,273.7383,273.9372,273.9372,274.4393,,,,,,,,,,,,,,1.8616,1,,,,,,,,,,,,,,m,,,,,,,,,,,,,,,42,0,274.4399,276.3025,m,1,1.8616,,[],[],[],[],[],[],[],276.3026,278.3028,278.3029,278.3032,[],[],[],[],[],[],[],,278.3033,278.3034,-0.043068576,-0.384561632,0,0,0,,0,41,41,106,1,3,word,ELABORATE,print,elaborate_p.png,,,,,,,
,,,,30072,001,2025-12-02_19h04.29.118,HW_LDT_1,2024.2.4,MacIntel,60.0024001,,,,,,,,,,,,,,,,,,,,,,278.3049,278.5054,278.5056,279.0035,,,,,,,,,,,,,,1.2134,1,,,,,,,,,,,,,,z,,,,,,,,,,,,,,,43,0,279.004,280.2225,z,1,1.2134,,[],[],[],[],[],[],[],280.2227,282.2184,282.2185,282.2187,[],[],[],[],[],[],[],,282.2187,282.2188,-0.043068576,-0.384561632,0,0,0,,0,42,42,65,1,3,TL,resufal,print,resufal_p.png,,,,,,,
,,,,30072,001,2025-12-02_19h04.29.118,HW_LDT_1,2024.2.4,MacIntel,60.0024001,,,,,,,,,,,,,,,,,,,,,,282.2198,282.4236,282.4236,282.919,,,,,,,,,,,,,,1.3284,1,,,,,,,,,,,,,,z,,,,,,,,,,,,,,,44,0,282.9196,284.2536,z,1,1.3284,,[],[],[],[],[],[],[],284.2537,286.2554,286.2555,286.256,[],[],[],[],[],[],[],,286.2561,286.2562,-0.043068576,-0.384561632,0,0,0,,0,43,43,21,1,3,RL,potugar,print,potugar_p.png,,,,,,,
,,,,30072,001,2025-12-02_19h04.29.118,HW_LDT_1,2024.2.4,MacIntel,60.0024001,,,,,,,,,,,,,,,,,,,,,,286.2571,286.452,286.452,286.9517,,,,,,,,,,,,,,1.0642,1,,,,,,,,,,,,,,m,,,,,,,,,,,,,,,45,1,286.952,288.0197,m,1,1.0642,,[],[],[],[],[],[],[],288.0199,290.0201,290.0202,293.0203,[],[],[],[],[],[],[],m,293.0204,293.0205,-0.043315972,-0.384561632,0,0,0,,0,44,44,101,1,3,word,DELICATE,print,delicate_p.png,2.9959,,,,,,
,,,,30072,001,2025-12-02_19h04.29.118,HW_LDT_1,2024.2.4,MacIntel,60.0024001,,,,,,,,,,,,,,,,,,,,,,293.0212,293.2183,293.2184,293.7203,,,,,,,,,,,,,,3.7135,1,,,,,,,,,,,,,,m,,,,,,,,,,,,,,,46,1,293.7207,297.4349,m,1,3.7135,,[],[],[],[],[],[],[],297.435,299.4347,299.4347,301.0862,[],[],[],[],[],[],[],m,301.0862,301.0863,-0.043315972,-0.384561632,0,0,0,,0,45,45,102,1,3,word,DENSITY,print,density_p.png,1.6509,,,,,,
,,,,30072,001,2025-12-02_19h04.29.118,HW_LDT_1,2024.2.4,MacIntel,60.0024001,,,,,,,,,,,,,,,,,,,,,,301.0872,301.2857,301.2858,301.7852,,,,,,,,,,,,,,3.7476,0,,,,,,,,,,,,,,m,,,,,,,,,,,,,,,47,0,301.7858,305.5358,z,0,3.7476,,[],[],[],[],[],[],[],305.5359,307.5347,307.5348,307.5349,[],[],[],[],[],[],[],,307.535,307.535,-0.043315972,-0.384561632,0,0,0,,0,46,46,108,1,3,word,FORTUNE,cursive,fortune_c.png,,,,,,,
,,,,30072,001,2025-12-02_19h04.29.118,HW_LDT_1,2024.2.4,MacIntel,60.0024001,,,,,,,,,,,,,,,,,,,,,,307.5359,307.7359,307.736,308.2382,,,,,,,,,,,,,,6.5888,0,,,,,,,,,,,,,,m,,,,,,,,,,,,,,,48,0,308.2389,314.8364,z,0,6.5888,,[],[],[],[],[],[],[],314.8365,316.8357,316.8358,316.8363,[],[],[],[],[],[],[],,316.8363,316.8364,-0.043315972,-0.384561632,0,0,0,,0,47,47,126,1,3,word,OPTIMAL,cursive,optimal_c.png,,,,,,,
,,,,30072,001,2025-12-02_19h04.29.118,HW_LDT_1,2024.2.4,MacIntel,60.0024001,,,,,,,,,,,,,,,,,,,,,,316.8372,317.0359,317.036,317.5383,,,,,,,,,,,,,,3.3453,1,,,,,,,,,,,,,,z,,,,,,,,,,,,,,,49,0,317.5391,320.885,z,1,3.3453,,[],[],[],[],[],[],[],320.885,322.8847,322.8848,322.8852,[],[],[],[],[],[],[],,322.8853,322.8854,-0.043315972,-0.384561632,0,0,0,,0,48,48,41,1,3,TL,crinimal,print,crinimal_p.png,,,,,,,
,,,,30072,001,2025-12-02_19h04.29.118,HW_LDT_1,2024.2.4,MacIntel,60.0024001,,,,,,,,,,,,,,,,,,,,,,322.8862,323.0861,323.0862,323.5867,,,,,,,,,,,,,,4.056,0,,,,,,,,,,,,,,m,,,,,,,,,,,,,,,50,0,323.5871,327.655,z,0,4.056,,[],[],[],[],[],[],[],327.6552,329.6529,329.653,329.6533,[],[],[],[],[],[],[],,329.6534,329.6535,-0.042278646,-0.383532986,0,0,0,,0,49,49,123,1,3,word,MODERATE,cursive,moderate_c.png,,,,,,,
,,,,30072,001,2025-12-02_19h04.29.118,HW_LDT_1,2024.2.4,MacIntel,60.0024001,,,,,,,,,,,,,,,,,,,,,,329.6542,329.8511,329.8512,330.3522,,,,,,,,,,,,,,1.6645,1,,,,,,,,,,,,,,m,,,,,,,,,,,,,,,51,0,330.3526,332.0177,m,1,1.6645,,[],[],[],[],[],[],[],332.0177,334.018,334.018,334.0183,[],[],[],[],[],[],[],,334.0184,334.0184,-0.042278646,-0.383532986,0,0,0,,0,50,50,104,1,3,word,DOMINANT,print,dominant_p.png,,,,,,,
,,,,30072,001,2025-12-02_19h04.29.118,HW_LDT_1,2024.2.4,MacIntel,60.0024001,,,,,,,,,,,,,,,,,,,,,,334.0196,334.2182,334.2182,334.7193,,,,,,,,,,,,,,2.1124,1,,,,,,,,,,,,,,z,,,,,,,,,,,,,,,52,0,334.7198,336.8353,z,1,2.1124,,[],[],[],[],[],[],[],336.8355,338.8361,338.8361,338.8364,[],[],[],[],[],[],[],,338.8364,338.8365,-0.04328559,-0.382478299,0,0,0,,0,51,51,42,1,3,TL,detabe,cursive,detabe_c.png,,,,,,,
,,,,30072,001,2025-12-02_19h04.29.118,HW_LDT_1,2024.2.4,MacIntel,60.0024001,,,,,,,,,,,,,,,,,,,,,,338.8375,339.0353,339.0354,339.5364,,,,,,,,,,,,,,1.5902,1,,,,,,,,,,,,,,m,,,,,,,,,,,,,,,53,1,339.5367,341.1362,m,1,1.5902,,[],[],[],[],[],[],[],341.1364,343.136,343.136,344.8846,[],[],[],[],[],[],[],z,344.8846,344.8847,-0.04328559,-0.382478299,0,0,0,,0,52,52,83,1,3,word,ANIMAL,cursive,animal_c.png,1.7469,,,,,,
,,,,30072,001,2025-12-02_19h04.29.118,HW_LDT_1,2024.2.4,MacIntel,60.0024001,,,,,,,,,,,,,,,,,,,,,,344.8857,345.0849,345.085,345.5865,,,,,,,,,,,,,,2.096,1,,,,,,,,,,,,,,m,,,,,,,,,,,,,,,54,0,345.5868,347.6851,m,1,2.096,,[],[],[],[],[],[],[],347.6851,349.6847,349.6848,349.685,[],[],[],[],[],[],[],,349.685,349.6851,-0.04328559,-0.382478299,0,0,0,,0,53,53,150,1,3,word,SENTIMENT,print,sentiment_p.png,,,,,,,
,,,,30072,001,2025-12-02_19h04.29.118,HW_LDT_1,2024.2.4,MacIntel,60.0024001,,,,,,,,,,,,,,,,,,,,,,349.686,349.8856,349.8857,350.3858,,,,,,,,,,,,,,1.3637,1,,,,,,,,,,,,,,m,,,,,,,,,,,,,,,55,0,350.3865,351.7509,m,1,1.3637,,[],[],[],[],[],[],[],351.751,353.7531,353.7531,353.7533,[],[],[],[],[],[],[],,353.7534,353.7535,-0.04328559,-0.382478299,0,0,0,,0,54,54,146,1,3,word,RETIRE,print,retire_p.png,,,,,,,
,,,,30072,001,2025-12-02_19h04.29.118,HW_LDT_1,2024.2.4,MacIntel,60.0024001,,,,,,,,,,,,,,,,,,,,,,353.7553,353.9509,353.9509,354.4524,,,,,,,,,,,,,,2.2641,1,,,,,,,,,,,,,,z,,,,,,,,,,,,,,,56,0,354.453,356.7176,z,1,2.2641,,[],[],[],[],[],[],[],356.7176,358.7175,358.7176,358.7178,[],[],[],[],[],[],[],,358.7179,358.718,-0.04328559,-0.382478299,0,0,0,,0,55,55,4,1,3,RL,cafigal,cursive,cafigal_c.png,,,,,,,
,,,,30072,001,2025-12-02_19h04.29.118,HW_LDT_1,2024.2.4,MacIntel,60.0024001,,,,,,,,,,,,,,,,,,,,,,358.7191,358.9186,358.9187,359.4183,,,,,,,,,,,,,,2.1745,1,,,,,,,,,,,,,,m,,,,,,,,,,,,,,,57,1,359.4185,361.6022,m,1,2.1745,,[],[],[],[],[],[],[],361.6023,363.6008,363.6008,365.1514,[],[],[],[],[],[],[],m,365.1515,365.1516,-0.04328559,-0.382478299,0,0,0,,0,56,56,94,1,3,word,CLINICAL,print,clinical_p.png,1.5487,,,,,,
,,,,30072,001,2025-12-02_19h04.29.118,HW_LDT_1,2024.2.4,MacIntel,60.0024001,,,,,,,,,,,,,,,,,,,,,,365.1526,365.3515,365.3516,365.8524,,,,,,,,,,,,,,4.4784,1,,,,,,,,,,,,,,z,,,,,,,,,,,,,,,58,1,365.8529,370.3351,z,1,4.4784,,[],[],[],[],[],[],[],370.3352,372.335,372.3352,373.7342,[],[],[],[],[],[],[],z,373.7342,373.7342,-0.04328559,-0.382478299,0,0,0,,0,57,57,69,1,3,TL,redisent,cursive,redisent_c.png,1.3981,,,,,,
,,,,30072,001,2025-12-02_19h04.29.118,HW_LDT_1,2024.2.4,MacIntel,60.0024001,,,,,,,,,,,,,,,,,,,,,,373.7352,373.9341,373.9341,374.4358,,,,,,,,,,,,,,2.6137,0,,,,,,,,,,,,,,z,,,,,,,,,,,,,,,59,0,374.4362,377.0513,m,0,2.6137,,[],[],[],[],[],[],[],377.0514,379.0505,379.0505,379.0507,[],[],[],[],[],[],[],,379.0507,379.0509,-0.04328559,-0.382478299,0,0,0,,0,58,58,52,1,3,TL,locigal,cursive,locigal_c.png,,,,,,,
,,,,30072,001,2025-12-02_19h04.29.118,HW_LDT_1,2024.2.4,MacIntel,60.0024001,,,,,,,,,,,,,,,,,,,,,,379.0549,379.24,379.2402,379.7513,,,,,,,,,,,,,,4.5241,1,,,,,,,,,,,,,,m,,,,,,,,,,,,,,,60,0,379.7519,384.2852,m,1,4.5241,,[],[],[],[],[],[],[],384.2854,386.2836,386.2836,386.2837,[],[],[],[],[],[],[],,386.2837,386.2837,-0.04328559,-0.382478299,0,0,0,,0,59,59,125,1,3,word,OPERATOR,print,operator_p.png,,,,,,,
,,,,30072,001,2025-12-02_19h04.29.118,HW_LDT_1,2024.2.4,MacIntel,60.0024001,,,,,,,,,,,,,,,,,,,,,,386.2845,386.4842,386.4843,386.985,,,,,,,,,,,,,,4.3443,1,,,,,,,,,,,,,,z,,,,,,,,,,,,,,,61,0,386.9856,391.3348,z,1,4.3443,,[],[],[],[],[],[],[],391.3348,393.3358,393.3358,393.336,[],[],[],[],[],[],[],,393.3361,393.3362,-0.04328559,-0.382478299,0,0,0,,0,60,60,16,1,3,RL,mishafe,cursive,mishafe_c.png,,,,,,,
,,,,30072,001,2025-12-02_19h04.29.118,HW_LDT_1,2024.2.4,MacIntel,60.0024001,,,,,,,,,,,,,,,,,,,,,,393.337,393.5349,393.535,394.0338,,,,,,,,,,,,,,3.9116,1,,,,,,,,,,,,,,z,,,,,,,,,,,,,,,62,0,394.034,397.9506,z,1,3.9116,,[],[],[],[],[],[],[],397.9508,399.9502,399.9503,399.9505,[],[],[],[],[],[],[],,399.9505,399.9507,-0.04328559,-0.382478299,0,0,0,,0,61,61,78,1,3,TL,vecolity,cursive,vecolity_c.png,,,,,,,
,,,,30072,001,2025-12-02_19h04.29.118,HW_LDT_1,2024.2.4,MacIntel,60.0024001,,,,,,,,,,,,,,,,,,,,,,399.9519,400.1516,400.1518,400.65,,,,,,,,,,,,,,1.5648,1,,,,,,,,,,,,,,z,,,,,,,,,,,,,,,63,1,400.6504,402.2169,z,1,1.5648,,[],[],[],[],[],[],[],402.2169,404.2177,404.2178,405.3504,[],[],[],[],[],[],[],m,405.3506,405.3508,-0.04328559,-0.382478299,0,0,0,,0,62,62,50,1,3,TL,lirebal,print,lirebal_p.png,1.128,,,,,,
,,,,30072,001,2025-12-02_19h04.29.118,HW_LDT_1,2024.2.4,MacIntel,60.0024001,,,,,,,,,,,,,,,,,,,,,,405.3519,405.5514,405.5515,406.0523,,,,,,,,,,,,,,3.9448,1,,,,,,,,,,,,,,z,,,,,,,,,,,,,,,64,0,406.0527,410.0006,z,1,3.9448,,[],[],[],[],[],[],[],410.0007,412.0004,412.0004,412.0005,[],[],[],[],[],[],[],,412.0007,412.0007,-0.04328559,-0.382478299,0,0,0,,0,63,63,73,1,3,TL,speficic,print,speficic_p.png,,,,,,,
,,,,30072,001,2025-12-02_19h04.29.118,HW_LDT_1,2024.2.4,MacIntel,60.0024001,,,,,,,,,,,,,,,,,,,,,,412.0019,412.201,412.2011,412.7013,,,,,,,,,,,,,,2.7125,0,,,,,,,,,,,,,,m,,,,,,,,,,,,,,,65,0,412.7019,415.4178,z,0,2.7125,,[],[],[],[],[],[],[],415.418,417.418,417.4181,417.4185,[],[],[],[],[],[],[],,417.4186,417.4187,-0.04328559,-0.382478299,0,0,0,,0,64,64,93,1,3,word,CEREMONY,cursive,ceremony_c.png,,,,,,,
,,,,30072,001,2025-12-02_19h04.29.118,HW_LDT_1,2024.2.4,MacIntel,60.0024001,,,,,,,,,,,,,,,,,,,,,,417.4195,417.6186,417.6186,418.1166,,,,,,,,,,,,,,1.9159,1,,,,,,,,,,,,,,m,,,,,,,,,,,,,,,66,0,418.1168,420.0337,m,1,1.9159,,[],[],[],[],[],[],[],420.0338,422.0344,422.0345,422.0348,[],[],[],[],[],[],[],,422.0349,422.035,-0.04328559,-0.382478299,0,0,0,,0,65,65,118,1,3,word,MEDICINE,print,medicine_p.png,,,,,,,
,,,,30072,001,2025-12-02_19h04.29.118,HW_LDT_1,2024.2.4,MacIntel,60.0024001,,,,,,,,,,,,,,,,,,,,,,422.0358,422.2343,422.2345,422.7333,,,,,,,,,,,,,,2.41,1,,,,,,,,,,,,,,m,,,,,,,,,,,,,,,67,0,422.7336,425.1506,m,1,2.41,,[],[],[],[],[],[],[],425.1507,427.1499,427.1499,427.1502,[],[],[],[],[],[],[],,427.1502,427.1503,-0.04328559,-0.382478299,0,0,0,,0,66,66,134,1,3,word,QUALIFY,print,qualify_p.png,,,,,,,
,,,,30072,001,2025-12-02_19h04.29.118,HW_LDT_1,2024.2.4,MacIntel,60.0024001,,,,,,,,,,,,,,,,,,,,,,427.1511,427.35,427.35,427.8497,,,,,,,,,,,,,,1.9491,1,,,,,,,,,,,,,,z,,,,,,,,,,,,,,,68,0,427.85,429.7997,z,1,1.9491,,[],[],[],[],[],[],[],429.7998,431.8023,431.8024,431.8031,[],[],[],[],[],[],[],,431.8032,431.8034,-0.04328559,-0.382478299,0,0,0,,0,67,67,59,1,3,TL,paficic,cursive,paficic_c.png,,,,,,,
,,,,30072,001,2025-12-02_19h04.29.118,HW_LDT_1,2024.2.4,MacIntel,60.0024001,,,,,,,,,,,,,,,,,,,,,,431.8044,432.0012,432.0013,432.4999,,,,,,,,,,,,,,1.0661,1,,,,,,,,,,,,,,m,,,,,,,,,,,,,,,69,0,432.5001,433.5672,m,1,1.0661,,[],[],[],[],[],[],[],433.5672,435.5684,435.5684,435.5686,[],[],[],[],[],[],[],,435.5686,435.5687,-0.04328559,-0.382478299,0,0,0,,0,68,68,115,1,3,word,LOGICAL,cursive,logical_c.png,,,,,,,
,,,,30072,001,2025-12-02_19h04.29.118,HW_LDT_1,2024.2.4,MacIntel,60.0024001,,,,,,,,,,,,,,,,,,,,,,435.5694,435.7671,435.7672,436.2672,,,,,,,,,,,,,,2.0454,1,,,,,,,,,,,,,,m,,,,,,,,,,,,,,,70,0,436.2677,438.3174,m,1,2.0454,,[],[],[],[],[],[],[],438.3175,440.3188,440.3188,440.3191,[],[],[],[],[],[],[],,440.3192,440.3193,-0.04328559,-0.382478299,0,0,0,,0,69,69,97,1,3,word,COVERAGE,print,coverage_p.png,,,,,,,
,,,,30072,001,2025-12-02_19h04.29.118,HW_LDT_1,2024.2.4,MacIntel,60.0024001,,,,,,,,,,,,,,,,,,,,,,440.3211,440.5178,440.5179,441.0179,,,,,,,,,,,,,,1.5897,1,,,,,,,,,,,,,,z,,,,,,,,,,,,,,,71,1,441.0185,442.6178,z,1,1.5897,,[],[],[],[],[],[],[],442.618,444.6168,444.6168,446.1663,[],[],[],[],[],[],[],m,446.1664,446.1665,-0.04328559,-0.382478299,0,0,0,,0,70,70,56,1,3,TL,meromy,print,meromy_p.png,1.5481,,,,,,
,,,,30072,001,2025-12-02_19h04.29.118,HW_LDT_1,2024.2.4,MacIntel,60.0024001,,,,,,,,,,,,,,,,,,,,,,446.1674,446.3679,446.3681,446.8672,,,,,,,,,,,,,,6.913,1,,,,,,,,,,,,,,z,,,,,,,,,,,,,,,72,0,446.8678,453.7844,z,1,6.913,,[],[],[],[],[],[],[],453.7845,455.7845,455.7846,455.7848,[],[],[],[],[],[],[],,455.7849,455.785,-0.04328559,-0.382478299,0,0,0,,0,71,71,44,1,3,TL,decilate,print,decilate_p.png,,,,,,,
,,,,30072,001,2025-12-02_19h04.29.118,HW_LDT_1,2024.2.4,MacIntel,60.0024001,,,,,,,,,,,,,,,,,,,,,,455.7868,455.9831,455.9832,456.4839,,,,,,,,,,,,,,2.1125,1,,,,,,,,,,,,,,z,,,,,,,,,,,,,,,73,0,456.4845,458.6002,z,1,2.1125,,[],[],[],[],[],[],[],458.6002,460.5996,460.5996,460.5998,[],[],[],[],[],[],[],,460.5998,460.5999,-0.04328559,-0.382478299,0,0,0,,0,72,72,49,1,3,TL,incidate,print,incidate_p.png,,,,,,,
,,,,30072,001,2025-12-02_19h04.29.118,HW_LDT_1,2024.2.4,MacIntel,60.0024001,,,,,,,,,,,,,,,,,,,,,,460.6009,460.8015,460.8016,461.2996,,,,,,,,,,,,,,3.5981,0,,,,,,,,,,,,,,m,,,,,,,,,,,,,,,74,0,461.2999,464.8997,z,0,3.5981,,[],[],[],[],[],[],[],464.8998,466.8995,466.8996,466.8998,[],[],[],[],[],[],[],,466.8998,466.8998,-0.04328559,-0.382478299,0,0,0,,0,73,73,121,1,3,word,MISTAKE,cursive,mistake_c.png,,,,,,,
,,,,30072,001,2025-12-02_19h04.29.118,HW_LDT_1,2024.2.4,MacIntel,60.0024001,,,,,,,,,,,,,,,,,,,,,,466.9005,467.1031,467.1031,467.5991,,,,,,,,,,,,,,1.6501,1,,,,,,,,,,,,,,m,,,,,,,,,,,,,,,75,0,467.5997,469.2507,m,1,1.6501,,[],[],[],[],[],[],[],469.2508,471.2532,471.2533,471.2537,[],[],[],[],[],[],[],,471.2538,471.2539,-0.04328559,-0.382478299,0,0,0,,0,74,74,111,1,3,word,INDICATE,print,indicate_p.png,,,,,,,
,,,,30072,001,2025-12-02_19h04.29.118,HW_LDT_1,2024.2.4,MacIntel,60.0024001,,,,,,,,,,,,,,,,,,,,,,471.2547,471.4499,471.45,471.9502,,,,,,,,,,,,,,1.4108,1,,,,,,,,,,,,,,m,,,,,,,,,,,,,,,76,0,471.9506,473.3667,m,1,1.4108,,[],[],[],[],[],[],[],473.3668,475.3685,475.3687,475.3694,[],[],[],[],[],[],[],,475.3694,475.3695,-0.04328559,-0.382478299,0,0,0,,0,75,75,119,1,3,word,MEMORY,print,memory_p.png,,,,,,,
,,,,30072,001,2025-12-02_19h04.29.118,HW_LDT_1,2024.2.4,MacIntel,60.0024001,,,,,,,,,,,,,,,,,,,,,,475.3705,475.5674,475.5674,476.0676,,,,,,,,,,,,,,1.5456,1,,,,,,,,,,,,,,m,,,,,,,,,,,,,,,77,0,476.0683,477.6175,m,1,1.5456,,[],[],[],[],[],[],[],477.6176,479.6177,479.6178,479.618,[],[],[],[],[],[],[],,479.6181,479.6181,-0.04328559,-0.382573785,0,0,0,,0,76,76,91,1,3,word,CARDINAL,print,cardinal_p.png,,,,,,,
,,,,30072,001,2025-12-02_19h04.29.118,HW_LDT_1,2024.2.4,MacIntel,60.0024001,,,,,,,,,,,,,,,,,,,,,,479.6201,479.8158,479.8158,480.3199,,,,,,,,,,,,,,1.344,1,,,,,,,,,,,,,,m,,,,,,,,,,,,,,,78,0,480.3205,481.6664,m,1,1.344,,[],[],[],[],[],[],[],481.6665,483.6677,483.6678,483.668,[],[],[],[],[],[],[],,483.668,483.6681,-0.04328559,-0.382573785,0,0,0,,0,77,77,81,1,3,word,ADVISORY,print,advisory_p.png,,,,,,,
,,,,30072,001,2025-12-02_19h04.29.118,HW_LDT_1,2024.2.4,MacIntel,60.0024001,,,,,,,,,,,,,,,,,,,,,,483.6691,483.8665,483.8666,484.3671,,,,,,,,,,,,,,1.4647,1,,,,,,,,,,,,,,m,,,,,,,,,,,,,,,79,0,484.3675,485.8329,m,1,1.4647,,[],[],[],[],[],[],[],485.8329,487.8329,487.8329,487.8332,[],[],[],[],[],[],[],,487.8332,487.8334,-0.04328559,-0.382573785,0,0,0,,0,78,78,100,1,3,word,DECADE,cursive,decade_c.png,,,,,,,
,,,,30072,001,2025-12-02_19h04.29.118,HW_LDT_1,2024.2.4,MacIntel,60.0024001,,,,,,,,,,,,,,,,,,,,,,487.8342,488.0336,488.0336,488.5339,,,,,,,,,,,,,,1.3401,1,,,,,,,,,,,,,,m,,,,,,,,,,,,,,,80,0,488.5345,489.8827,m,1,1.3401,,[],[],[],[],[],[],[],489.8828,491.8845,491.8845,491.8847,[],[],[],[],[],[],[],,491.8847,576.2805,-0.759926215,0.474422743,0,0,0,space,0,79,79,151,1,3,word,SPECIFIC,print,specific_p.png,,,,84.3613,,,
,,,,30072,001,2025-12-02_19h04.29.118,HW_LDT_1,2024.2.4,MacIntel,60.0024001,,,,,,,,,,,,,,,,,,,,,,576.2815,576.4809,576.481,576.98,,,,,,,,,,,,,,1.9456,1,,,,,,,,,,,,,,z,,,,,,,,,,,,,,,81,0,576.9803,578.9305,z,1,1.9456,,[],[],[],[],[],[],[],578.9308,580.93,580.93,580.9303,[],[],[],[],[],[],[],,580.9304,580.9305,-0.759926215,0.474422743,0,0,0,,0,80,80,60,1,3,TL,panert,print,panert_p.png,,,,,,,
,,,,30072,001,2025-12-02_19h04.29.118,HW_LDT_1,2024.2.4,MacIntel,60.0024001,,,,,,,,,,,,,,,,,,,,,,580.9313,581.1308,581.1309,581.6303,,,,,,,,,,,,,,1.3188,1,,,,,,,,,,,,,,z,,,,,,,,,,,,,,,82,0,581.6307,582.9498,z,1,1.3188,,[],[],[],[],[],[],[],582.9499,584.9496,584.9497,584.9499,[],[],[],[],[],[],[],,584.9499,584.9501,-0.759926215,0.474422743,0,0,0,,0,81,81,0,1,3,RL,afaneur,print,afaneur_p.png,,,,,,,
,,,,30072,001,2025-12-02_19h04.29.118,HW_LDT_1,2024.2.4,MacIntel,60.0024001,,,,,,,,,,,,,,,,,,,,,,584.9509,585.1474,585.1475,585.6478,,,,,,,,,,,,,,6.7797,1,,,,,,,,,,,,,,z,,,,,,,,,,,,,,,83,1,585.6483,592.4292,z,1,6.7797,,[],[],[],[],[],[],[],592.4293,594.4294,594.4294,601.4304,[],[],[],[],[],[],[],m,601.4305,601.4306,-0.651106771,0.405138889,0,0,0,,0,82,82,38,1,3,TL,carnidal,print,carnidal_p.png,6.9963,,,,,,
,,,,30072,001,2025-12-02_19h04.29.118,HW_LDT_1,2024.2.4,MacIntel,60.0024001,,,,,,,,,,,,,,,,,,,,,,601.4314,601.6306,601.6307,602.1292,,,,,,,,,,,,,,1.6989,0,,,,,,,,,,,,,,m,,,,,,,,,,,,,,,84,0,602.1295,603.8291,z,0,1.6989,,[],[],[],[],[],[],[],603.8291,605.8302,605.8302,605.8306,[],[],[],[],[],[],[],,605.8307,605.8308,-0.651106771,0.405138889,0,0,0,,0,83,83,117,1,3,word,MARINE,cursive,marine_c.png,,,,,,,
,,,,30072,001,2025-12-02_19h04.29.118,HW_LDT_1,2024.2.4,MacIntel,60.0024001,,,,,,,,,,,,,,,,,,,,,,605.8315,606.029,606.0291,606.5291,,,,,,,,,,,,,,1.4317,0,,,,,,,,,,,,,,m,,,,,,,,,,,,,,,85,1,606.5293,607.9634,z,0,1.4317,,[],[],[],[],[],[],[],607.9636,609.9624,609.9625,611.7465,[],[],[],[],[],[],[],z,611.7465,611.7466,-0.651106771,0.405138889,0,0,0,,0,84,84,145,1,3,word,RESUME,cursive,resume_c.png,1.7823,,,,,,
,,,,30072,001,2025-12-02_19h04.29.118,HW_LDT_1,2024.2.4,MacIntel,60.0024001,,,,,,,,,,,,,,,,,,,,,,611.7474,611.9491,611.9493,612.4478,,,,,,,,,,,,,,2.4463,1,,,,,,,,,,,,,,z,,,,,,,,,,,,,,,86,0,612.4482,614.8992,z,1,2.4463,,[],[],[],[],[],[],[],614.8993,616.8957,616.8957,616.8961,[],[],[],[],[],[],[],,616.8961,616.8961,-0.651354167,0.405386285,0,0,0,,0,85,85,10,1,3,RL,efibor,print,efibor_p.png,,,,,,,
,,,,30072,001,2025-12-02_19h04.29.118,HW_LDT_1,2024.2.4,MacIntel,60.0024001,,,,,,,,,,,,,,,,,,,,,,616.8972,617.0967,617.0968,617.5977,,,,,,,,,,,,,,2.4465,1,,,,,,,,,,,,,,m,,,,,,,,,,,,,,,87,0,617.5982,620.0473,m,1,2.4465,,[],[],[],[],[],[],[],620.0474,622.0453,622.0454,622.0456,[],[],[],[],[],[],[],,622.0457,622.0457,-0.651354167,0.405386285,0,0,0,,0,86,86,87,1,3,word,CAFETERIA,print,cafeteria_p.png,,,,,,,
,,,,30072,001,2025-12-02_19h04.29.118,HW_LDT_1,2024.2.4,MacIntel,60.0024001,,,,,,,,,,,,,,,,,,,,,,622.0466,622.2494,622.2494,622.747,,,,,,,,,,,,,,1.6817,1,,,,,,,,,,,,,,z,,,,,,,,,,,,,,,88,0,622.7473,624.43,z,1,1.6817,,[],[],[],[],[],[],[],624.4301,626.4291,626.4291,626.4293,[],[],[],[],[],[],[],,626.4294,626.4295,-0.651354167,0.405386285,0,0,0,,0,87,87,23,1,3,RL,quakity,print,quakity_p.png,,,,,,,
,,,,30072,001,2025-12-02_19h04.29.118,HW_LDT_1,2024.2.4,MacIntel,60.0024001,,,,,,,,,,,,,,,,,,,,,,626.4304,626.6299,626.6299,627.1297,,,,,,,,,,,,,,1.4807,0,,,,,,,,,,,,,,m,,,,,,,,,,,,,,,89,0,627.1302,628.6122,z,0,1.4807,,[],[],[],[],[],[],[],628.6123,630.6155,630.6156,630.6158,[],[],[],[],[],[],[],,630.6158,630.6159,-0.651848958,0.405633681,0,0,0,,0,88,88,114,1,3,word,LOCATE,cursive,locate_c.png,,,,,,,
,,,,30072,001,2025-12-02_19h04.29.118,HW_LDT_1,2024.2.4,MacIntel,60.0024001,,,,,,,,,,,,,,,,,,,,,,630.6168,630.8136,630.8136,631.316,,,,,,,,,,,,,,20.5441,1,,,,,,,,,,,,,,z,,,,,,,,,,,,,,,90,0,631.3163,651.8634,z,1,20.5441,,[],[],[],[],[],[],[],651.8635,653.863,653.8631,653.8633,[],[],[],[],[],[],[],,653.8634,653.8635,-0.235828993,0.337052951,0,0,0,,0,89,89,14,1,3,RL,lofase,cursive,lofase_c.png,,,,,,,
,,,,30072,001,2025-12-02_19h04.29.118,HW_LDT_1,2024.2.4,MacIntel,60.0024001,,,,,,,,,,,,,,,,,,,,,,653.8643,654.062,654.062,654.5625,,,,,,,,,,,,,,11.2486,0,,,,,,,,,,,,,,m,,,,,,,,,,,,,,,91,0,654.5627,665.8138,z,0,11.2486,,[],[],[],[],[],[],[],665.8139,667.8132,667.8132,667.8133,[],[],[],[],[],[],[],,667.8134,667.8135,-0.200412326,0.335568576,0,0,0,,0,90,90,110,1,3,word,HERITAGE,cursive,heritage_c.png,,,,,,,
,,,,30072,001,2025-12-02_19h04.29.118,HW_LDT_1,2024.2.4,MacIntel,60.0024001,,,,,,,,,,,,,,,,,,,,,,667.8143,668.0136,668.0137,668.5132,,,,,,,,,,,,,,1.5479,1,,,,,,,,,,,,,,z,,,,,,,,,,,,,,,92,1,668.5136,670.0629,z,1,1.5479,,[],[],[],[],[],[],[],670.063,672.0629,672.0631,687.1784,[],[],[],[],[],[],[],z,687.1785,687.1786,0.512465278,0.279887153,0,0,0,,0,91,91,71,1,3,TL,sanile,cursive,sanile_c.png,15.1139,,,,,,
,,,,30072,001,2025-12-02_19h04.29.118,HW_LDT_1,2024.2.4,MacIntel,60.0024001,,,,,,,,,,,,,,,,,,,,,,687.1793,687.38,687.38,687.88,,,,,,,,,,,,,,3.2789,1,,,,,,,,,,,,,,z,,,,,,,,,,,,,,,93,0,687.8803,691.1615,z,1,3.2789,,[],[],[],[],[],[],[],691.1616,693.1625,693.1625,693.163,[],[],[],[],[],[],[],,693.1631,693.1631,0.512465278,0.279887153,0,0,0,,0,92,92,28,1,3,RL,rovastic,cursive,rovastic_c.png,,,,,,,
,,,,30072,001,2025-12-02_19h04.29.118,HW_LDT_1,2024.2.4,MacIntel,60.0024001,,,,,,,,,,,,,,,,,,,,,,693.1647,693.3653,693.3653,693.864,,,,,,,,,,,,,,1.9439,1,,,,,,,,,,,,,,z,,,,,,,,,,,,,,,94,0,693.8651,695.8148,z,1,1.9439,,[],[],[],[],[],[],[],695.815,697.8129,697.8129,697.8132,[],[],[],[],[],[],[],,697.8132,697.8134,0.512465278,0.279887153,0,0,0,,0,93,93,33,1,3,TL,adsivory,print,adsivory_p.png,,,,,,,
,,,,30072,001,2025-12-02_19h04.29.118,HW_LDT_1,2024.2.4,MacIntel,60.0024001,,,,,,,,,,,,,,,,,,,,,,697.8141,698.0115,698.0116,698.5133,,,,,,,,,,,,,,1.7631,1,,,,,,,,,,,,,,z,,,,,,,,,,,,,,,95,0,698.5137,700.279,z,1,1.7631,,[],[],[],[],[],[],[],700.2791,702.2796,702.2796,702.2797,[],[],[],[],[],[],[],,702.2797,702.2798,0.512465278,0.279887153,0,0,0,,0,94,94,3,1,3,RL,bebine,cursive,bebine_c.png,,,,,,,
,,,,30072,001,2025-12-02_19h04.29.118,HW_LDT_1,2024.2.4,MacIntel,60.0024001,,,,,,,,,,,,,,,,,,,,,,702.2805,702.4779,702.478,702.9784,,,,,,,,,,,,,,3.3662,1,,,,,,,,,,,,,,m,,,,,,,,,,,,,,,96,0,702.9788,706.3476,m,1,3.3662,,[],[],[],[],[],[],[],706.3477,708.3458,708.3459,708.3462,[],[],[],[],[],[],[],,708.3462,708.3464,0.512465278,0.279887153,0,0,0,,0,95,95,153,1,3,word,STOLEN,cursive,stolen_c.png,,,,,,,
,,,,30072,001,2025-12-02_19h04.29.118,HW_LDT_1,2024.2.4,MacIntel,60.0024001,,,,,,,,,,,,,,,,,,,,,,708.3474,708.5453,708.5453,709.0446,,,,,,,,,,,,,,2.481,1,,,,,,,,,,,,,,z,,,,,,,,,,,,,,,97,0,709.0452,711.5312,z,1,2.481,,[],[],[],[],[],[],[],711.5314,713.5275,713.5276,713.5278,[],[],[],[],[],[],[],,713.5278,713.5279,0.512465278,0.279887153,0,0,0,,0,96,96,25,1,3,RL,retupar,print,retupar_p.png,,,,,,,
,,,,30072,001,2025-12-02_19h04.29.118,HW_LDT_1,2024.2.4,MacIntel,60.0024001,,,,,,,,,,,,,,,,,,,,,,713.5286,713.7292,713.7292,714.2293,,,,,,,,,,,,,,1.1267,1,,,,,,,,,,,,,,m,,,,,,,,,,,,,,,98,0,714.2298,715.3617,m,1,1.1267,,[],[],[],[],[],[],[],715.3619,717.3626,717.3626,717.3629,[],[],[],[],[],[],[],,717.3629,717.363,0.512465278,0.279887153,0,0,0,,0,97,97,148,1,3,word,SALINE,cursive,saline_c.png,,,,,,,
,,,,30072,001,2025-12-02_19h04.29.118,HW_LDT_1,2024.2.4,MacIntel,60.0024001,,,,,,,,,,,,,,,,,,,,,,717.3638,717.5614,717.5614,718.0654,,,,,,,,,,,,,,2.3784,1,,,,,,,,,,,,,,m,,,,,,,,,,,,,,,99,0,718.0658,720.4448,m,1,2.3784,,[],[],[],[],[],[],[],720.4449,722.4477,722.4478,722.4482,[],[],[],[],[],[],[],,722.4483,722.4483,0.512465278,0.279887153,0,0,0,,0,98,98,154,1,3,word,STORAGE,cursive,storage_c.png,,,,,,,
,,,,30072,001,2025-12-02_19h04.29.118,HW_LDT_1,2024.2.4,MacIntel,60.0024001,,,,,,,,,,,,,,,,,,,,,,722.449,722.6456,722.6457,723.1453,,,,,,,,,,,,,,1.4473,1,,,,,,,,,,,,,,m,,,,,,,,,,,,,,,100,0,723.1457,724.5978,m,1,1.4473,,[],[],[],[],[],[],[],724.5979,726.5958,726.5958,726.5961,[],[],[],[],[],[],[],,726.5962,726.5963,0.512465278,0.279887153,0,0,0,,0,99,99,138,1,3,word,REFUSAL,print,refusal_p.png,,,,,,,
,,,,30072,001,2025-12-02_19h04.29.118,HW_LDT_1,2024.2.4,MacIntel,60.0024001,,,,,,,,,,,,,,,,,,,,,,726.5973,726.796,726.796,727.2962,,,,,,,,,,,,,,1.2117,1,,,,,,,,,,,,,,z,,,,,,,,,,,,,,,101,0,727.297,728.5138,z,1,1.2117,,[],[],[],[],[],[],[],728.5139,730.5123,730.5124,730.5125,[],[],[],[],[],[],[],,730.5126,730.5128,0.512465278,0.279887153,0,0,0,,0,100,100,8,1,3,RL,cocewage,print,cocewage_p.png,,,,,,,
,,,,30072,001,2025-12-02_19h04.29.118,HW_LDT_1,2024.2.4,MacIntel,60.0024001,,,,,,,,,,,,,,,,,,,,,,730.5136,730.712,730.712,731.2119,,,,,,,,,,,,,,1.3148,1,,,,,,,,,,,,,,z,,,,,,,,,,,,,,,102,0,731.2122,732.528,z,1,1.3148,,[],[],[],[],[],[],[],732.528,734.5289,734.5291,734.5292,[],[],[],[],[],[],[],,734.5293,734.5294,0.512465278,0.279887153,0,0,0,,0,101,101,27,1,3,RL,recile,print,recile_p.png,,,,,,,
,,,,30072,001,2025-12-02_19h04.29.118,HW_LDT_1,2024.2.4,MacIntel,60.0024001,,,,,,,,,,,,,,,,,,,,,,734.5304,734.7282,734.7282,735.2282,,,,,,,,,,,,,,4.6644,0,,,,,,,,,,,,,,m,,,,,,,,,,,,,,,103,0,735.2286,739.8975,z,0,4.6644,,[],[],[],[],[],[],[],739.8977,741.895,741.895,741.8954,[],[],[],[],[],[],[],,741.8955,741.8956,0.512465278,0.279887153,0,0,0,,0,102,102,140,1,3,word,RELATIVE,cursive,relative_c.png,,,,,,,
,,,,30072,001,2025-12-02_19h04.29.118,HW_LDT_1,2024.2.4,MacIntel,60.0024001,,,,,,,,,,,,,,,,,,,,,,741.8967,742.094,742.094,742.5971,,,,,,,,,,,,,,1.58,1,,,,,,,,,,,,,,z,,,,,,,,,,,,,,,104,0,742.5977,744.1783,z,1,1.58,,[],[],[],[],[],[],[],744.1784,746.1775,746.1775,746.1779,[],[],[],[],[],[],[],,746.1779,746.178,0.512465278,0.279887153,0,0,0,,0,103,103,29,1,3,RL,selamor,cursive,selamor_c.png,,,,,,,
,,,,30072,001,2025-12-02_19h04.29.118,HW_LDT_1,2024.2.4,MacIntel,60.0024001,,,,,,,,,,,,,,,,,,,,,,746.1788,746.3811,746.3812,746.8774,,,,,,,,,,,,,,4.7458,1,,,,,,,,,,,,,,z,,,,,,,,,,,,,,,105,0,746.8778,751.629,z,1,4.7458,,[],[],[],[],[],[],[],751.629,753.6301,753.6302,753.6307,[],[],[],[],[],[],[],,753.6307,753.6309,0.512465278,0.279887153,0,0,0,,0,104,104,64,1,3,TL,radiply,print,radiply_p.png,,,,,,,
,,,,30072,001,2025-12-02_19h04.29.118,HW_LDT_1,2024.2.4,MacIntel,60.0024001,,,,,,,,,,,,,,,,,,,,,,753.6315,753.8272,753.8272,754.3274,,,,,,,,,,,,,,1.2933,1,,,,,,,,,,,,,,m,,,,,,,,,,,,,,,106,0,754.3278,755.6287,m,1,1.2933,,[],[],[],[],[],[],[],755.6288,757.6273,757.6274,757.6276,[],[],[],[],[],[],[],,757.6277,757.6278,0.512465278,0.279887153,0,0,0,,0,105,105,144,1,3,word,RESIDENT,cursive,resident_c.png,,,,,,,
,,,,30072,001,2025-12-02_19h04.29.118,HW_LDT_1,2024.2.4,MacIntel,60.0024001,,,,,,,,,,,,,,,,,,,,,,757.6287,757.8289,757.829,758.3311,,,,,,,,,,,,,,3.3602,1,,,,,,,,,,,,,,z,,,,,,,,,,,,,,,107,1,758.3316,761.6949,z,1,3.3602,,[],[],[],[],[],[],[],761.6951,763.6975,763.6976,765.494,[],[],[],[],[],[],[],m,765.4941,765.4942,0.512465278,0.279887153,0,0,0,,0,106,106,58,1,3,TL,nuremical,print,nuremical_p.png,1.7958,,,,,,
,,,,30072,001,2025-12-02_19h04.29.118,HW_LDT_1,2024.2.4,MacIntel,60.0024001,,,,,,,,,,,,,,,,,,,,,,765.495,765.697,765.6972,766.1951,,,,,,,,,,,,,,2.2839,1,,,,,,,,,,,,,,z,,,,,,,,,,,,,,,108,0,766.1955,768.4807,z,1,2.2839,,[],[],[],[],[],[],[],768.4809,770.4768,770.4768,770.4771,[],[],[],[],[],[],[],,770.4771,770.4773,0.512465278,0.279887153,0,0,0,,0,107,107,45,1,3,TL,dentisy,print,dentisy_p.png,,,,,,,
,,,,30072,001,2025-12-02_19h04.29.118,HW_LDT_1,2024.2.4,MacIntel,60.0024001,,,,,,,,,,,,,,,,,,,,,,770.4782,770.6789,770.679,771.1779,,,,,,,,,,,,,,2.1817,1,,,,,,,,,,,,,,m,,,,,,,,,,,,,,,109,0,771.1784,773.3607,m,1,2.1817,,[],[],[],[],[],[],[],773.3608,775.3606,775.3606,775.361,[],[],[],[],[],[],[],,775.3611,775.3612,0.512465278,0.279887153,0,0,0,,0,108,108,147,1,3,word,ROMANTIC,cursive,romantic_c.png,,,,,,,
,,,,30072,001,2025-12-02_19h04.29.118,HW_LDT_1,2024.2.4,MacIntel,60.0024001,,,,,,,,,,,,,,,,,,,,,,775.3619,775.5618,775.5619,776.0629,,,,,,,,,,,,,,1.625,0,,,,,,,,,,,,,,m,,,,,,,,,,,,,,,110,0,776.0634,777.6952,z,0,1.625,,[],[],[],[],[],[],[],777.6953,779.6972,779.6972,779.6976,[],[],[],[],[],[],[],,779.6976,779.6976,0.512465278,0.279887153,0,0,0,,0,109,109,149,1,3,word,SENATOR,cursive,senator_c.png,,,,,,,
,,,,30072,001,2025-12-02_19h04.29.118,HW_LDT_1,2024.2.4,MacIntel,60.0024001,,,,,,,,,,,,,,,,,,,,,,779.6984,779.8983,779.8984,780.3949,,,,,,,,,,,,,,1.2814,1,,,,,,,,,,,,,,z,,,,,,,,,,,,,,,111,1,780.3953,781.6776,z,1,1.2814,,[],[],[],[],[],[],[],781.6776,783.6782,783.6783,786.713,[],[],[],[],[],[],[],z,786.7131,786.7136,0.512465278,0.279887153,0,0,0,,0,110,110,30,1,3,RL,strapely,print,strapely_p.png,3.0309,,,,,,
,,,,30072,001,2025-12-02_19h04.29.118,HW_LDT_1,2024.2.4,MacIntel,60.0024001,,,,,,,,,,,,,,,,,,,,,,786.7148,786.9114,786.9115,787.4113,,,,,,,,,,,,,,1.7961,1,,,,,,,,,,,,,,m,,,,,,,,,,,,,,,112,0,787.4117,789.2101,m,1,1.7961,,[],[],[],[],[],[],[],789.2102,791.2116,791.2116,791.212,[],[],[],[],[],[],[],,791.2121,791.2123,0.512465278,0.279887153,0,0,0,,0,111,111,137,1,3,word,RAPIDLY,print,rapidly_p.png,,,,,,,
,,,,30072,001,2025-12-02_19h04.29.118,HW_LDT_1,2024.2.4,MacIntel,60.0024001,,,,,,,,,,,,,,,,,,,,,,791.2132,791.4115,791.4116,791.912,,,,,,,,,,,,,,3.5922,0,,,,,,,,,,,,,,m,,,,,,,,,,,,,,,113,0,791.9124,795.511,z,0,3.5922,,[],[],[],[],[],[],[],795.5112,797.5112,797.5113,797.5114,[],[],[],[],[],[],[],,797.5114,797.5115,0.512465278,0.279887153,0,0,0,,0,112,112,89,1,3,word,CAPACITY,cursive,capacity_c.png,,,,,,,
,,,,30072,001,2025-12-02_19h04.29.118,HW_LDT_1,2024.2.4,MacIntel,60.0024001,,,,,,,,,,,,,,,,,,,,,,797.5133,797.7105,797.7105,798.211,,,,,,,,,,,,,,2.3986,1,,,,,,,,,,,,,,z,,,,,,,,,,,,,,,114,0,798.2114,800.6114,z,1,2.3986,,[],[],[],[],[],[],[],800.6115,802.6114,802.6115,802.6117,[],[],[],[],[],[],[],,802.6117,802.6118,0.512465278,0.279887153,0,0,0,,0,113,113,24,1,3,RL,quafidy,print,quafidy_p.png,,,,,,,
,,,,30072,001,2025-12-02_19h04.29.118,HW_LDT_1,2024.2.4,MacIntel,60.0024001,,,,,,,,,,,,,,,,,,,,,,802.6127,802.8117,802.8117,803.3119,,,,,,,,,,,,,,1.4124,1,,,,,,,,,,,,,,z,,,,,,,,,,,,,,,115,0,803.3122,804.728,z,1,1.4124,,[],[],[],[],[],[],[],804.7282,806.729,806.7291,806.7293,[],[],[],[],[],[],[],,806.7295,806.7297,0.512465278,0.279887153,0,0,0,,0,114,114,31,1,3,RL,trilude,print,trilude_p.png,,,,,,,
,,,,30072,001,2025-12-02_19h04.29.118,HW_LDT_1,2024.2.4,MacIntel,60.0024001,,,,,,,,,,,,,,,,,,,,,,806.7309,806.9266,806.9267,807.4299,,,,,,,,,,,,,,0.9465,1,,,,,,,,,,,,,,z,,,,,,,,,,,,,,,116,0,807.4304,808.3782,z,1,0.9465,,[],[],[],[],[],[],[],808.3782,810.3779,810.378,810.3782,[],[],[],[],[],[],[],,810.3783,810.3784,0.512465278,0.279887153,0,0,0,,0,115,115,26,1,3,RL,repifion,print,repifion_p.png,,,,,,,
,,,,30072,001,2025-12-02_19h04.29.118,HW_LDT_1,2024.2.4,MacIntel,60.0024001,,,,,,,,,,,,,,,,,,,,,,810.3792,810.5784,810.5784,811.0778,,,,,,,,,,,,,,1.764,1,,,,,,,,,,,,,,z,,,,,,,,,,,,,,,117,0,811.0783,812.8446,z,1,1.764,,[],[],[],[],[],[],[],812.8446,814.8449,814.8449,814.8451,[],[],[],[],[],[],[],,814.8451,814.8453,0.512465278,0.279887153,0,0,0,,0,116,116,54,1,3,TL,manire,cursive,manire_c.png,,,,,,,
,,,,30072,001,2025-12-02_19h04.29.118,HW_LDT_1,2024.2.4,MacIntel,60.0024001,,,,,,,,,,,,,,,,,,,,,,814.8468,815.0431,815.0431,815.5432,,,,,,,,,,,,,,1.724,0,,,,,,,,,,,,,,z,,,,,,,,,,,,,,,118,0,815.5437,817.2782,m,0,1.724,,[],[],[],[],[],[],[],817.2783,819.2796,819.2797,819.2801,[],[],[],[],[],[],[],,819.2801,819.2803,0.512465278,0.279887153,0,0,0,,0,117,117,75,1,3,TL,sloten,cursive,sloten_c.png,,,,,,,
,,,,30072,001,2025-12-02_19h04.29.118,HW_LDT_1,2024.2.4,MacIntel,60.0024001,,,,,,,,,,,,,,,,,,,,,,819.2809,819.4779,819.478,819.9779,,,,,,,,,,,,,,1.1953,1,,,,,,,,,,,,,,m,,,,,,,,,,,,,,,119,0,819.9785,821.1794,m,1,1.1953,,[],[],[],[],[],[],[],821.1796,823.1766,823.1766,823.1769,[],[],[],[],[],[],[],,823.177,823.177,0.514309896,0.280633681,0,0,0,,0,118,118,103,1,3,word,DISPUTE,print,dispute_p.png,,,,,,,
,,,,30072,001,2025-12-02_19h04.29.118,HW_LDT_1,2024.2.4,MacIntel,60.0024001,,,,,,,,,,,,,,,,,,,,,,823.178,823.3796,823.3796,823.8779,,,,,,,,,,,,,,2.8961,1,,,,,,,,,,,,,,z,,,,,,,,,,,,,,,120,0,823.8784,826.7774,z,1,2.8961,,[],[],[],[],[],[],[],826.7774,828.7777,828.7777,828.778,[],[],[],[],[],[],[],,828.778,828.7782,0.514309896,0.280633681,0,0,0,,0,119,119,74,1,3,TL,spemicen,print,spemicen_p.png,,,,,,,
,,,,30072,001,2025-12-02_19h04.29.118,HW_LDT_1,2024.2.4,MacIntel,60.0024001,,,,,,,,,,,,,,,,,,,,,,828.7792,828.9777,828.9777,829.4774,,,,,,,,,,,,,,2.8813,1,,,,,,,,,,,,,,z,,,,,,,,,,,,,,,121,0,829.4778,832.3629,z,1,2.8813,,[],[],[],[],[],[],[],832.3631,834.3607,834.3608,834.361,[],[],[],[],[],[],[],,834.3611,834.3613,0.514309896,0.280633681,0,0,0,,0,120,120,62,1,3,TL,prodive,print,prodive_p.png,,,,,,,
,,,,30072,001,2025-12-02_19h04.29.118,HW_LDT_1,2024.2.4,MacIntel,60.0024001,,,,,,,,,,,,,,,,,,,,,,834.3621,834.5608,834.561,835.0608,,,,,,,,,,,,,,4.2095,1,,,,,,,,,,,,,,z,,,,,,,,,,,,,,,122,0,835.0613,839.2767,z,1,4.2095,,[],[],[],[],[],[],[],839.2768,841.2773,841.2773,841.2775,[],[],[],[],[],[],[],,841.2775,841.2778,0.514309896,0.280633681,0,0,0,,0,121,121,77,1,3,TL,vadility,cursive,vadility_c.png,,,,,,,
,,,,30072,001,2025-12-02_19h04.29.118,HW_LDT_1,2024.2.4,MacIntel,60.0024001,,,,,,,,,,,,,,,,,,,,,,841.2786,841.4798,841.4799,841.9777,,,,,,,,,,,,,,1.1799,1,,,,,,,,,,,,,,m,,,,,,,,,,,,,,,123,1,841.978,843.1626,m,1,1.1799,,[],[],[],[],[],[],[],843.1628,845.1597,845.1598,847.5459,[],[],[],[],[],[],[],m,847.546,847.5461,0.514309896,0.280633681,0,0,0,,0,122,122,105,1,3,word,EDITOR,print,editor_p.png,2.3789,,,,,,
,,,,30072,001,2025-12-02_19h04.29.118,HW_LDT_1,2024.2.4,MacIntel,60.0024001,,,,,,,,,,,,,,,,,,,,,,847.5471,847.7433,847.7434,848.2433,,,,,,,,,,,,,,3.0322,1,,,,,,,,,,,,,,z,,,,,,,,,,,,,,,124,1,848.2437,851.2771,z,1,3.0322,,[],[],[],[],[],[],[],851.2772,853.276,853.276,856.4265,[],[],[],[],[],[],[],z,856.4265,856.4266,0.514309896,0.280633681,0,0,0,,0,123,123,19,1,3,RL,opcifal,cursive,opcifal_c.png,3.1421,,,,,,
,,,,30072,001,2025-12-02_19h04.29.118,HW_LDT_1,2024.2.4,MacIntel,60.0024001,,,,,,,,,,,,,,,,,,,,,,856.4276,856.6304,856.6304,857.1257,,,,,,,,,,,,,,2.2814,1,,,,,,,,,,,,,,m,,,,,,,,,,,,,,,125,0,857.1264,859.41,m,1,2.2814,,[],[],[],[],[],[],[],859.4102,861.4103,861.4103,861.4106,[],[],[],[],[],[],[],,861.4107,861.4108,0.514309896,0.280633681,0,0,0,,0,124,124,132,1,3,word,PROPOSAL,print,proposal_p.png,,,,,,,
,,,,30072,001,2025-12-02_19h04.29.118,HW_LDT_1,2024.2.4,MacIntel,60.0024001,,,,,,,,,,,,,,,,,,,,,,861.4116,861.6118,861.6119,862.1104,,,,,,,,,,,,,,1.7646,1,,,,,,,,,,,,,,m,,,,,,,,,,,,,,,126,0,862.1107,863.8798,m,1,1.7646,,[],[],[],[],[],[],[],863.8799,865.8767,865.8767,865.877,[],[],[],[],[],[],[],,865.877,865.8771,0.514309896,0.280633681,0,0,0,,0,125,125,86,1,3,word,BESIDE,cursive,beside_c.png,,,,,,,
,,,,30072,001,2025-12-02_19h04.29.118,HW_LDT_1,2024.2.4,MacIntel,60.0024001,,,,,,,,,,,,,,,,,,,,,,865.8784,866.0757,866.0757,866.578,,,,,,,,,,,,,,1.2131,1,,,,,,,,,,,,,,z,,,,,,,,,,,,,,,127,0,866.5786,867.793,z,1,1.2131,,[],[],[],[],[],[],[],867.7931,869.794,869.794,869.7942,[],[],[],[],[],[],[],,869.7942,869.7943,0.509309896,0.276050347,0,0,0,,0,126,126,79,1,3,TL,veretan,cursive,veretan_c.png,,,,,,,
,,,,30072,001,2025-12-02_19h04.29.118,HW_LDT_1,2024.2.4,MacIntel,60.0024001,,,,,,,,,,,,,,,,,,,,,,869.7952,869.9938,869.9938,870.4961,,,,,,,,,,,,,,2.5774,1,,,,,,,,,,,,,,z,,,,,,,,,,,,,,,128,0,870.4969,873.0773,z,1,2.5774,,[],[],[],[],[],[],[],873.0773,875.0753,875.0753,875.0754,[],[],[],[],[],[],[],,875.0756,875.0756,0.509309896,0.276050347,0,0,0,,0,127,127,6,1,3,RL,cenesony,cursive,cenesony_c.png,,,,,,,
,,,,30072,001,2025-12-02_19h04.29.118,HW_LDT_1,2024.2.4,MacIntel,60.0024001,,,,,,,,,,,,,,,,,,,,,,875.0762,875.2766,875.2766,875.78,,,,,,,,,,,,,,1.1448,1,,,,,,,,,,,,,,z,,,,,,,,,,,,,,,129,0,875.7804,876.9258,z,1,1.1448,,[],[],[],[],[],[],[],876.9259,878.9267,878.9268,878.9271,[],[],[],[],[],[],[],,878.9271,878.9272,0.509309896,0.276050347,0,0,0,,0,128,128,5,1,3,RL,capefory,cursive,capefory_c.png,,,,,,,
,,,,30072,001,2025-12-02_19h04.29.118,HW_LDT_1,2024.2.4,MacIntel,60.0024001,,,,,,,,,,,,,,,,,,,,,,878.9281,879.1256,879.1257,879.6291,,,,,,,,,,,,,,1.0358,1,,,,,,,,,,,,,,z,,,,,,,,,,,,,,,130,0,879.6298,880.6763,z,1,1.0358,,[],[],[],[],[],[],[],880.6764,882.676,882.676,882.6762,[],[],[],[],[],[],[],,882.6763,882.6764,0.510664062,0.278511285,0,0,0,,0,129,129,2,1,3,RL,betemit,print,betemit_p.png,,,,,,,
,,,,30072,001,2025-12-02_19h04.29.118,HW_LDT_1,2024.2.4,MacIntel,60.0024001,,,,,,,,,,,,,,,,,,,,,,882.6773,882.8769,882.877,883.3769,,,,,,,,,,,,,,1.4789,1,,,,,,,,,,,,,,m,,,,,,,,,,,,,,,131,0,883.3774,884.8629,m,1,1.4789,,[],[],[],[],[],[],[],884.8629,886.8587,886.8588,886.859,[],[],[],[],[],[],[],,886.8591,886.8593,0.510664062,0.278758681,0,0,0,,0,130,130,141,1,3,word,RELIGION,print,religion_p.png,,,,,,,
,,,,30072,001,2025-12-02_19h04.29.118,HW_LDT_1,2024.2.4,MacIntel,60.0024001,,,,,,,,,,,,,,,,,,,,,,886.8605,887.0628,887.0628,887.5587,,,,,,,,,,,,,,1.2646,1,,,,,,,,,,,,,,m,,,,,,,,,,,,,,,132,1,887.5592,888.8291,m,1,1.2646,,[],[],[],[],[],[],[],888.8292,890.827,890.8271,891.9434,[],[],[],[],[],[],[],z,891.9435,891.9437,0.510664062,0.278758681,0,0,0,,0,131,131,84,1,3,word,BELOVED,cursive,beloved_c.png,1.1156,,,,,,
,,,,30072,001,2025-12-02_19h04.29.118,HW_LDT_1,2024.2.4,MacIntel,60.0024001,,,,,,,,,,,,,,,,,,,,,,891.9446,892.1418,892.1419,892.6421,,,,,,,,,,,,,,3.2809,1,,,,,,,,,,,,,,z,,,,,,,,,,,,,,,133,0,892.6427,895.9267,z,1,3.2809,,[],[],[],[],[],[],[],895.9268,897.9254,897.9255,897.9267,[],[],[],[],[],[],[],,897.9267,897.9269,0.510664062,0.278758681,0,0,0,,0,132,132,17,1,3,RL,motide,cursive,motide_c.png,,,,,,,
,,,,30072,001,2025-12-02_19h04.29.118,HW_LDT_1,2024.2.4,MacIntel,60.0024001,,,,,,,,,,,,,,,,,,,,,,897.9275,898.1261,898.1262,898.6265,,,,,,,,,,,,,,3.7238,1,,,,,,,,,,,,,,z,,,,,,,,,,,,,,,134,0,898.627,902.3618,z,1,3.7238,,[],[],[],[],[],[],[],902.362,904.3592,904.3593,904.3593,[],[],[],[],[],[],[],,904.3594,904.3595,0.510416667,0.280794271,0,0,0,,0,133,133,37,1,3,TL,cacapity,cursive,cacapity_c.png,,,,,,,
,,,,30072,001,2025-12-02_19h04.29.118,HW_LDT_1,2024.2.4,MacIntel,60.0024001,,,,,,,,,,,,,,,,,,,,,,904.3603,904.5588,904.5588,905.0583,,,,,,,,,,,,,,1.9156,1,,,,,,,,,,,,,,m,,,,,,,,,,,,,,,135,0,905.0586,906.9748,m,1,1.9156,,[],[],[],[],[],[],[],906.9749,908.9754,908.9755,908.9757,[],[],[],[],[],[],[],,908.9757,908.9758,0.510416667,0.280794271,0,0,0,,0,134,134,127,1,3,word,ORIGINAL,cursive,original_c.png,,,,,,,
,,,,30072,001,2025-12-02_19h04.29.118,HW_LDT_1,2024.2.4,MacIntel,60.0024001,,,,,,,,,,,,,,,,,,,,,,908.9768,909.1761,909.1761,909.6757,,,,,,,,,,,,,,1.5122,1,,,,,,,,,,,,,,m,,,,,,,,,,,,,,,136,0,909.676,911.1921,m,1,1.5122,,[],[],[],[],[],[],[],911.1921,913.1934,913.1934,913.1937,[],[],[],[],[],[],[],,913.1937,913.1939,0.510416667,0.280794271,0,0,0,,0,135,135,124,1,3,word,NUMERICAL,print,numerical_p.png,,,,,,,
,,,,30072,001,2025-12-02_19h04.29.118,HW_LDT_1,2024.2.4,MacIntel,60.0024001,,,,,,,,,,,,,,,,,,,,,,913.1946,913.3917,913.3918,913.8923,,,,,,,,,,,,,,1.9243,1,,,,,,,,,,,,,,z,,,,,,,,,,,,,,,137,1,913.8929,915.8252,z,1,1.9243,,[],[],[],[],[],[],[],915.8252,917.8262,917.8262,920.6423,[],[],[],[],[],[],[],m,920.6424,920.6427,0.510416667,0.280794271,0,0,0,,0,136,136,47,1,3,TL,elarobate,print,elarobate_p.png,2.81,,,,,,
,,,,30072,001,2025-12-02_19h04.29.118,HW_LDT_1,2024.2.4,MacIntel,60.0024001,,,,,,,,,,,,,,,,,,,,,,920.6437,920.843,920.8431,921.3435,,,,,,,,,,,,,,1.9464,1,,,,,,,,,,,,,,z,,,,,,,,,,,,,,,138,0,921.3439,923.2924,z,1,1.9464,,[],[],[],[],[],[],[],923.2926,925.2915,925.2916,925.2919,[],[],[],[],[],[],[],,925.2919,925.292,0.510416667,0.280794271,0,0,0,,0,137,137,46,1,3,TL,distupe,print,distupe_p.png,,,,,,,
,,,,30072,001,2025-12-02_19h04.29.118,HW_LDT_1,2024.2.4,MacIntel,60.0024001,,,,,,,,,,,,,,,,,,,,,,925.293,925.4929,925.493,925.9914,,,,,,,,,,,,,,1.4492,1,,,,,,,,,,,,,,z,,,,,,,,,,,,,,,139,1,925.9917,927.4414,z,1,1.4492,,[],[],[],[],[],[],[],927.4415,929.4428,929.4428,935.6912,[],[],[],[],[],[],[],m,935.6912,935.6914,0.510416667,0.280794271,0,0,0,,0,138,138,51,1,3,TL,liretal,print,liretal_p.png,6.2427,,,,,,
,,,,30072,001,2025-12-02_19h04.29.118,HW_LDT_1,2024.2.4,MacIntel,60.0024001,,,,,,,,,,,,,,,,,,,,,,935.6923,935.891,935.891,936.3922,,,,,,,,,,,,,,2.5406,1,,,,,,,,,,,,,,z,,,,,,,,,,,,,,,140,0,936.3928,938.9448,z,1,2.5406,,[],[],[],[],[],[],[],938.945,940.9443,940.9445,940.9449,[],[],[],[],[],[],[],,940.945,940.945,0.510416667,0.280794271,0,0,0,,0,139,139,9,1,3,RL,docirant,print,docirant_p.png,,,,,,,
,,,,30072,001,2025-12-02_19h04.29.118,HW_LDT_1,2024.2.4,MacIntel,60.0024001,,,,,,,,,,,,,,,,,,,,,,940.9458,941.1451,941.1452,941.6413,,,,,,,,,,,,,,1.8647,1,,,,,,,,,,,,,,z,,,,,,,,,,,,,,,141,0,941.6417,943.5097,z,1,1.8647,,[],[],[],[],[],[],[],943.5098,945.5078,945.5078,945.508,[],[],[],[],[],[],[],,945.508,945.5081,0.510416667,0.280794271,0,0,0,,0,140,140,43,1,3,TL,dedace,cursive,dedace_c.png,,,,,,,
,,,,30072,001,2025-12-02_19h04.29.118,HW_LDT_1,2024.2.4,MacIntel,60.0024001,,,,,,,,,,,,,,,,,,,,,,945.5091,945.7091,945.7092,946.2087,,,,,,,,,,,,,,1.9817,1,,,,,,,,,,,,,,z,,,,,,,,,,,,,,,142,0,946.2093,948.1917,z,1,1.9817,,[],[],[],[],[],[],[],948.1918,950.1915,950.1915,950.1918,[],[],[],[],[],[],[],,950.1919,950.1919,0.510416667,0.280794271,0,0,0,,0,141,141,53,1,3,TL,marnigal,print,marnigal_p.png,,,,,,,
,,,,30072,001,2025-12-02_19h04.29.118,HW_LDT_1,2024.2.4,MacIntel,60.0024001,,,,,,,,,,,,,,,,,,,,,,950.1928,950.3915,950.3915,950.8916,,,,,,,,,,,,,,2.0649,0,,,,,,,,,,,,,,m,,,,,,,,,,,,,,,143,1,950.892,952.9588,z,0,2.0649,,[],[],[],[],[],[],[],952.9589,954.9578,954.9578,956.2079,[],[],[],[],[],[],[],z,956.208,956.2081,0.510416667,0.280794271,0,0,0,,0,142,142,128,1,3,word,PACIFIC,cursive,pacific_c.png,1.2486,,,,,,
,,,,30072,001,2025-12-02_19h04.29.118,HW_LDT_1,2024.2.4,MacIntel,60.0024001,,,,,,,,,,,,,,,,,,,,,,956.2091,956.4101,956.4102,956.9089,,,,,,,,,,,,,,1.9633,1,,,,,,,,,,,,,,z,,,,,,,,,,,,,,,144,1,956.9095,958.8748,z,1,1.9633,,[],[],[],[],[],[],[],958.8749,960.8755,960.8756,961.9913,[],[],[],[],[],[],[],m,961.9913,961.9915,0.510416667,0.280794271,0,0,0,,0,143,143,40,1,3,TL,condiser,print,condiser_p.png,1.1144,,,,,,
,,,,30072,001,2025-12-02_19h04.29.118,HW_LDT_1,2024.2.4,MacIntel,60.0024001,,,,,,,,,,,,,,,,,,,,,,961.9924,962.1929,962.1929,962.691,,,,,,,,,,,,,,1.164,1,,,,,,,,,,,,,,m,,,,,,,,,,,,,,,145,0,962.6914,963.859,m,1,1.164,,[],[],[],[],[],[],[],963.859,965.8585,965.8585,965.8589,[],[],[],[],[],[],[],,965.8589,965.859,0.510416667,0.280794271,0,0,0,,0,144,144,95,1,3,word,COMEDY,print,comedy_p.png,,,,,,,
,,,,30072,001,2025-12-02_19h04.29.118,HW_LDT_1,2024.2.4,MacIntel,60.0024001,,,,,,,,,,,,,,,,,,,,,,965.8599,966.0594,966.0594,966.5585,,,,,,,,,,,,,,1.2574,0,,,,,,,,,,,,,,m,,,,,,,,,,,,,,,146,0,966.559,967.8245,z,0,1.2574,,[],[],[],[],[],[],[],967.8246,969.8256,969.8256,969.8258,[],[],[],[],[],[],[],,969.8259,969.8261,0.510416667,0.280794271,0,0,0,,0,145,145,99,1,3,word,DEBATE,cursive,debate_c.png,,,,,,,
,,,,30072,001,2025-12-02_19h04.29.118,HW_LDT_1,2024.2.4,MacIntel,60.0024001,,,,,,,,,,,,,,,,,,,,,,969.8269,970.0253,970.0253,970.5252,,,,,,,,,,,,,,1.9778,1,,,,,,,,,,,,,,m,,,,,,,,,,,,,,,147,1,970.5258,972.5091,m,1,1.9778,,[],[],[],[],[],[],[],972.5092,974.5084,974.5085,975.3082,[],[],[],[],[],[],[],m,975.3083,975.3083,0.510416667,0.280794271,0,0,0,,0,146,146,116,1,3,word,MARGINAL,print,marginal_p.png,0.7992,,,,,,
,,,,30072,001,2025-12-02_19h04.29.118,HW_LDT_1,2024.2.4,MacIntel,60.0024001,,,,,,,,,,,,,,,,,,,,,,975.309,975.5092,975.5093,976.0095,,,,,,,,,,,,,,2.4052,1,,,,,,,,,,,,,,m,,,,,,,,,,,,,,,148,1,976.01,978.4252,m,1,2.4052,,[],[],[],[],[],[],[],978.4253,980.424,980.424,981.2918,[],[],[],[],[],[],[],z,981.2918,981.2919,0.510416667,0.280794271,0,0,0,,0,147,147,136,1,3,word,RADICAL,cursive,radical_c.png,0.8644,,,,,,
,,,,30072,001,2025-12-02_19h04.29.118,HW_LDT_1,2024.2.4,MacIntel,60.0024001,,,,,,,,,,,,,,,,,,,,,,981.2934,981.4906,981.4907,981.9923,,,,,,,,,,,,,,2.0467,1,,,,,,,,,,,,,,m,,,,,,,,,,,,,,,149,0,981.9928,984.0447,m,1,2.0467,,[],[],[],[],[],[],[],984.0447,986.0444,986.0446,986.0448,[],[],[],[],[],[],[],,986.0448,986.0449,0.510416667,0.280794271,0,0,0,,0,148,148,152,1,3,word,SPECIMEN,print,specimen_p.png,,,,,,,
,,,,30072,001,2025-12-02_19h04.29.118,HW_LDT_1,2024.2.4,MacIntel,60.0024001,,,,,,,,,,,,,,,,,,,,,,986.0458,986.2415,986.2415,986.7425,,,,,,,,,,,,,,2.4444,1,,,,,,,,,,,,,,m,,,,,,,,,,,,,,,150,0,986.7429,989.1914,m,1,2.4444,,[],[],[],[],[],[],[],989.1914,991.192,991.1922,991.1926,[],[],[],[],[],[],[],,991.1926,991.1927,0.510416667,0.280794271,0,0,0,,0,149,149,107,1,3,word,EVIDENT,cursive,evident_c.png,,,,,,,
,,,,30072,001,2025-12-02_19h04.29.118,HW_LDT_1,2024.2.4,MacIntel,60.0024001,,,,,,,,,,,,,,,,,,,,,,991.1937,991.3903,991.3903,991.8914,,,,,,,,,,,,,,2.2083,1,,,,,,,,,,,,,,z,,,,,,,,,,,,,,,151,0,991.8918,994.1107,z,1,2.2083,,[],[],[],[],[],[],[],994.1108,996.108,996.108,996.1081,[],[],[],[],[],[],[],,996.1082,996.1082,0.510416667,0.280794271,0,0,0,,0,150,150,55,1,3,TL,mecidine,print,mecidine_p.png,,,,,,,
,,,,30072,001,2025-12-02_19h04.29.118,HW_LDT_1,2024.2.4,MacIntel,60.0024001,,,,,,,,,,,,,,,,,,,,,,996.109,996.3067,996.3067,996.8073,,,,,,,,,,,,,,1.5752,1,,,,,,,,,,,,,,m,,,,,,,,,,,,,,,152,0,996.808,998.3915,m,1,1.5752,,[],[],[],[],[],[],[],998.3916,1000.3909,1000.3912,1000.3915,[],[],[],[],[],[],[],,1000.3915,1000.3917,0.510416667,0.280794271,0,0,0,,0,151,151,158,1,3,word,VELOCITY,cursive,velocity_c.png,,,,,,,
,,,,30072,001,2025-12-02_19h04.29.118,HW_LDT_1,2024.2.4,MacIntel,60.0024001,,,,,,,,,,,,,,,,,,,,,,1000.3925,1000.5904,1000.5904,1001.0929,,,,,,,,,,,,,,3.2781,1,,,,,,,,,,,,,,z,,,,,,,,,,,,,,,153,0,1001.0933,1004.3734,z,1,3.2781,,[],[],[],[],[],[],[],1004.3735,1006.3751,1006.3753,1006.3757,[],[],[],[],[],[],[],,1006.3757,1006.3759,0.510416667,0.280794271,0,0,0,,0,152,152,12,1,3,RL,formuke,cursive,formuke_c.png,,,,,,,
,,,,30072,001,2025-12-02_19h04.29.118,HW_LDT_1,2024.2.4,MacIntel,60.0024001,,,,,,,,,,,,,,,,,,,,,,1006.3768,1006.576,1006.5761,1007.0749,,,,,,,,,,,,,,1.9955,1,,,,,,,,,,,,,,z,,,,,,,,,,,,,,,154,0,1007.0754,1009.0741,z,1,1.9955,,[],[],[],[],[],[],[],1009.0741,1011.0756,1011.0756,1011.0758,[],[],[],[],[],[],[],,1011.0758,1011.0759,0.510416667,0.280794271,0,0,0,,0,153,153,20,1,3,RL,orimipal,cursive,orimipal_c.png,,,,,,,
,,,,30072,001,2025-12-02_19h04.29.118,HW_LDT_1,2024.2.4,MacIntel,60.0024001,,,,,,,,,,,,,,,,,,,,,,1011.0768,1011.2736,1011.2736,1011.7746,,,,,,,,,,,,,,2.2317,1,,,,,,,,,,,,,,m,,,,,,,,,,,,,,,155,1,1011.7751,1014.0076,m,1,2.2317,,[],[],[],[],[],[],[],1014.0077,1016.009,1016.009,1023.7908,[],[],[],[],[],[],[],z,1023.7909,1023.791,0.510416667,0.280794271,0,0,0,,0,154,154,96,1,3,word,CONSIDER,print,consider_p.png,7.7799,,,,,,
,,,,30072,001,2025-12-02_19h04.29.118,HW_LDT_1,2024.2.4,MacIntel,60.0024001,,,,,,,,,,,,,,,,,,,,,,1023.7918,1023.9924,1023.9924,1024.4902,,,,,,,,,,,,,,2.1735,0,,,,,,,,,,,,,,m,,,,,,,,,,,,,,,156,0,1024.4906,1026.6741,z,0,2.1735,,[],[],[],[],[],[],[],1026.6743,1028.6743,1028.6744,1028.6748,[],[],[],[],[],[],[],,1028.6749,1028.675,0.510416667,0.280794271,0,0,0,,0,155,155,88,1,3,word,CAMERA,cursive,camera_c.png,,,,,,,
,,,,30072,001,2025-12-02_19h04.29.118,HW_LDT_1,2024.2.4,MacIntel,60.0024001,,,,,,,,,,,,,,,,,,,,,,1028.6758,1028.8745,1028.8746,1029.3734,,,,,,,,,,,,,,2.516,1,,,,,,,,,,,,,,m,,,,,,,,,,,,,,,157,1,1029.3737,1031.8905,m,1,2.516,,[],[],[],[],[],[],[],1031.8905,1033.8914,1033.8915,1035.0736,[],[],[],[],[],[],[],z,1035.0737,1035.0738,0.510416667,0.280794271,0,0,0,,0,156,156,159,1,3,word,VETERAN,cursive,veteran_c.png,1.1744,,,,,,
,,,,30072,001,2025-12-02_19h04.29.118,HW_LDT_1,2024.2.4,MacIntel,60.0024001,,,,,,,,,,,,,,,,,,,,,,1035.0751,1035.2742,1035.2743,1035.7734,,,,,,,,,,,,,,1.5909,0,,,,,,,,,,,,,,m,,,,,,,,,,,,,,,158,0,1035.7739,1037.3739,z,0,1.5909,,[],[],[],[],[],[],[],1037.3739,1039.3764,1039.3765,1039.3768,[],[],[],[],[],[],[],,1039.3768,1039.3769,0.510416667,0.280794271,0,0,0,,0,157,157,122,1,3,word,MOBILE,cursive,mobile_c.png,,,,,,,
,,,,30072,001,2025-12-02_19h04.29.118,HW_LDT_1,2024.2.4,MacIntel,60.0024001,,,,,,,,,,,,,,,,,,,,,,1039.3777,1039.5754,1039.5754,1040.0732,,,,,,,,,,,,,,2.4318,1,,,,,,,,,,,,,,z,,,,,,,,,,,,,,,159,0,1040.0735,1042.5073,z,1,2.4318,,[],[],[],[],[],[],[],1042.5075,1044.5078,1044.5078,1044.5082,[],[],[],[],[],[],[],,1044.5084,1044.5084,0.510416667,0.280794271,0,0,0,,0,158,158,48,1,3,TL,grafetul,cursive,grafetul_c.png,,,,,,,
,,,,30072,001,2025-12-02_19h04.29.118,HW_LDT_1,2024.2.4,MacIntel,60.0024001,,,,,,,,,,,,,,,,,,,,,,1044.5095,1044.7088,1044.7088,1045.2065,,,,,,,,,,,,,,2.3307,0,,,,,,,,,,,,,,m,,,,,,,,,,,,,,,160,0,1045.2068,1047.5406,z,0,2.3307,,[],[],[],[],[],[],[],1047.5406,1049.5399,1049.5399,1049.5401,[],[],[],[],[],[],[],,1049.5401,1049.5402,0.510416667,0.280794271,0,0,0,,0,159,159,90,1,3,word,CAPITAL,cursive,capital_c.png,,,,,,,
,,,,30072,001,2025-12-02_19h04.29.118,HW_LDT_1,2024.2.4,MacIntel,60.0024001,,,,,,,,,,,,,,,,,,,,,,,,,,,,,,,,,,,,,,,,,,,,,,,,,,,,,,,,,,,,,,,,,,,,,,,,,,,,,,,,,,,,,,,,,,,,,,,,,,,,,,,,,,,,,,,,,,,,,,,1049.554,1054.5406
