counterbalance_lists.group,counterbalance_lists.remaining,get_list.started,get_list.stopped,participant,session,date,expName,psychopyVersion,OS,frameRate,Instructions.started,Instructions.stopped,key_resp.keys,instr_done_touch.x,instr_done_touch.y,instr_done_touch.leftButton,instr_done_touch.midButton,instr_done_touch.rightButton,instr_done_touch.clicked_name,start_instr.thisRepN,start_instr.thisTrialN,start_instr.thisN,start_instr.thisIndex,start_instr.ran,pageN,phase,instruct_text,has_image,instruct_image,showProgress.started,showProgress.stopped,fix.started,fix.stopped,prac.started,prac.stopped,response.keys,response.corr,touch_resp.x,touch_resp.y,touch_resp.leftButton,touch_resp.midButton,touch_resp.rightButton,touch_resp.time,touch_resp.clicked_name,rt,corr,feedback.started,feedback.stopped,trials.thisRepN,trials.thisTrialN,trials.thisN,trials.thisIndex,trials.ran,TrialID,StimulusType,Condition,PrimeDuration,Prime,Target,corrAns,response.rt,response.duration,Instructions_expt.started,Instructions_expt.stopped,key_resp_3.keys,key_resp_3.rt,key_resp_3.duration,instr_done_touch_3.x,instr_done_touch_3.y,instr_done_touch_3.leftButton,instr_done_touch_3.midButton,instr_done_touch_3.rightButton,instr_experiment.thisRepN,instr_experiment.thisTrialN,instr_experiment.thisN,instr_experiment.thisIndex,instr_experiment.ran,trialID,flag,maintask.started,maintask.stopped,key_resp_2.keys,key_resp_2.corr,key_resp_2.rt,key_resp_2.duration,targ_click.x,targ_click.y,targ_click.leftButton,targ_click.midButton,targ_click.rightButton,targ_click.time,targ_click.clicked_name,ITI.started,ITI.stopped,probe.started,probe.stopped,click_probe.x,click_probe.y,click_probe.leftButton,click_probe.midButton,click_probe.rightButton,click_probe.time,click_probe.clicked_name,key_resp_probe.keys,Break.started,Break.stopped,break_done_touch.x,break_done_touch.y,break_done_touch.leftButton,break_done_touch.midButton,break_done_touch.rightButton,break_done_keyboard.keys,list4_trials.thisRepN,list4_trials.thisTrialN,list4_trials.thisN,list4_trials.thisIndex,list4_trials.ran,list_id,item_type,string,font,stim_file,key_resp_probe.rt,key_resp_probe.duration,break_done_keyboard.rt,break_done_keyboard.duration,End.started,End.stopped
list4,,0.4449,0.4451,30098,001,2025-10-20_11h54.55.997,HW_LDT_1,2024.2.4,MacIntel,60.24096386,,,,,,,,,,,,,,,,,,,,,,,,,,,,,,,,,,,,,,,,,,,,,,,,,,,,,,,,,,,,,,,,,,,,,,,,,,,,,,,,,,,,,,,,,,,,,,,,,,,,,,,,,,,,,,,,,,,,,,
,,,,30098,001,2025-10-20_11h54.55.997,HW_LDT_1,2024.2.4,MacIntel,60.24096386,0.4627,1.9486,,-0.110389776,-0.426328974,1,0,0,instr_done_button,0,0,0,0,1,1,instructions,"INSTRUCTIONS
At the start of each trial, look at the plus sign  (+) in the center of the screen.  This tells you that a trial is about to begin and where to look. Second, the plus sign will disappear and a string of letters will appear. Your task is to determine if the string of letters is a word or not. If the item is a word press the M key (on keyboard)  or touch the word button (phone/tablet).  If the item is not a word,  press the  Z key (on keyboard)  or touch the nonword button (on phone/tablet). The items will be presented for a short time. 
Press the space bar or touch  continue.",0,,,,,,,,,,,,,,,,,,,,,,,,,,,,,,,,,,,,,,,,,,,,,,,,,,,,,,,,,,,,,,,,,,,,,,,,,,,,,,,,,,,,,,,,,,,,,,,,,,,,
,,,,30098,001,2025-10-20_11h54.55.997,HW_LDT_1,2024.2.4,MacIntel,60.24096386,1.9492,10.1641,,-0.110389776,-0.424800442,1,0,0,instr_done_button,0,1,1,1,1,2,instructions,"If your device has a keyboard, press the 'Z' key for nonwords and the 'M' key for words.





Press the space bar or touch the button below to continue.",0,keyboard-example.gif,,,,,,,,,,,,,,,,,,,,,,,,,,,,,,,,,,,,,,,,,,,,,,,,,,,,,,,,,,,,,,,,,,,,,,,,,,,,,,,,,,,,,,,,,,,,,,,,,,,
,,,,30098,001,2025-10-20_11h54.55.997,HW_LDT_1,2024.2.4,MacIntel,60.24096386,10.1649,11.2979,,-0.023136039,-0.394467561,1,0,0,instr_done_button,0,2,2,2,1,3,instructions,"If you are using a touchscreen only device, use the buttons on the screen. Do not use the mouse.





Press the space bar or touch the button below to continue.",0,touchscreen-example.gif,,,,,,,,,,,,,,,,,,,,,,,,,,,,,,,,,,,,,,,,,,,,,,,,,,,,,,,,,,,,,,,,,,,,,,,,,,,,,,,,,,,,,,,,,,,,,,,,,,,
,,,,30098,001,2025-10-20_11h54.55.997,HW_LDT_1,2024.2.4,MacIntel,60.24096386,11.2993,12.1641,,-0.023136039,-0.394467561,1,0,0,instr_done_button,0,3,3,3,1,4,instructions,"It is very important that you respond as quickly and accurately as possible, as each letter string will only be on the screen for two seconds. If you do not respond within this time, the message 'Too slow!' will be displayed and the experiment will progress to the next letter string. The first 20 trials will be practice trials and you will receive feedback on your answers. 

Press the space bar or touch the button below to start the practice trials.",0,,,,,,,,,,,,,,,,,,,,,,,,,,,,,,,,,,,,,,,,,,,,,,,,,,,,,,,,,,,,,,,,,,,,,,,,,,,,,,,,,,,,,,,,,,,,,,,,,,,,
,,,,30098,001,2025-10-20_11h54.55.997,HW_LDT_1,2024.2.4,MacIntel,60.24096386,,,,,,,,,,,,,,,,,,,,12.1871,12.364,12.3641,12.8654,12.8657,16.3485,,0,[-0.27572605298913044],[-0.3284094769021739],[1],[0],[0],[3.4796000000238365],"[""button_left""]",3.4796,1,16.3487,16.8488,0,0,0,10,1,1011,NW,"ID",16,inlade,INLADE,z,,,,,,,,,,,,,,,,,,,,,,,,,,,,,,,,,,,,,,,,,,,,,,,,,,,,,,,,,,,,,,,,,,,,
,,,,30098,001,2025-10-20_11h54.55.997,HW_LDT_1,2024.2.4,MacIntel,60.24096386,,,,,,,,,,,,,,,,,,,,16.8506,17.0484,17.0484,17.5475,17.5483,19.2317,,0,[0.3053541100543478],[-0.263862941576087],[1],[0],[0],[1.6821999999880717],"[""button_right""]",1.6822,1,19.2317,19.7319,0,1,1,7,1,1008,WORD,UN,16,hurdle,VOLUME,m,,,,,,,,,,,,,,,,,,,,,,,,,,,,,,,,,,,,,,,,,,,,,,,,,,,,,,,,,,,,,,,,,,,,
,,,,30098,001,2025-10-20_11h54.55.997,HW_LDT_1,2024.2.4,MacIntel,60.24096386,,,,,,,,,,,,,,,,,,,,19.7335,19.9317,19.9318,20.4315,20.432,22.4155,z,1,[],[],[],[],[],[],[],1.9775,1,22.4157,22.9152,0,2,2,12,1,1013,NW,UN,33,adveil,SPRINY,z,1.9775,,,,,,,,,,,,,,,,,,,,,,,,,,,,,,,,,,,,,,,,,,,,,,,,,,,,,,,,,,,,,,,,,,,
,,,,30098,001,2025-10-20_11h54.55.997,HW_LDT_1,2024.2.4,MacIntel,60.24096386,,,,,,,,,,,,,,,,,,,,22.9171,23.115,23.1152,23.6141,23.6154,25.4481,z,1,[],[],[],[],[],[],[],1.8111,1,25.4482,25.9482,0,3,3,13,1,1014,NW,UN,33,winfer,ROUPET,z,1.8111,,,,,,,,,,,,,,,,,,,,,,,,,,,,,,,,,,,,,,,,,,,,,,,,,,,,,,,,,,,,,,,,,,,
,,,,30098,001,2025-10-20_11h54.55.997,HW_LDT_1,2024.2.4,MacIntel,60.24096386,,,,,,,,,,,,,,,,,,,,25.9496,26.1476,26.1477,26.648,26.649,28.5305,m,1,[],[],[],[],[],[],[],1.8608,1,28.5307,29.0314,0,4,4,6,1,1007,WORD,UN,16,tropic,ZOMBIE,m,1.8608,,,,,,,,,,,,,,,,,,,,,,,,,,,,,,,,,,,,,,,,,,,,,,,,,,,,,,,,,,,,,,,,,,,
,,,,30098,001,2025-10-20_11h54.55.997,HW_LDT_1,2024.2.4,MacIntel,60.24096386,,,,,,,,,,,,,,,,,,,,29.0318,29.2313,29.2313,29.7313,29.7318,30.7152,z,1,[],[],[],[],[],[],[],0.9702,1,30.7154,31.2141,0,5,5,11,1,1012,NW,"ID",16,rashet,RASHET,z,0.9702,,,,,,,,,,,,,,,,,,,,,,,,,,,,,,,,,,,,,,,,,,,,,,,,,,,,,,,,,,,,,,,,,,,
,,,,30098,001,2025-10-20_11h54.55.997,HW_LDT_1,2024.2.4,MacIntel,60.24096386,,,,,,,,,,,,,,,,,,,,31.215,31.4148,31.4148,31.915,31.9157,32.6813,z,1,[],[],[],[],[],[],[],0.7461,1,32.6814,33.1819,0,6,6,8,1,1009,NW,"ID",33,aslert,ASLERT,z,0.7461,,,,,,,,,,,,,,,,,,,,,,,,,,,,,,,,,,,,,,,,,,,,,,,,,,,,,,,,,,,,,,,,,,,
,,,,30098,001,2025-10-20_11h54.55.997,HW_LDT_1,2024.2.4,MacIntel,60.24096386,,,,,,,,,,,,,,,,,,,,33.1836,33.3817,33.3817,33.8818,33.8828,35.1314,m,0,[],[],[],[],[],[],[],1.2266,0,35.1317,35.6316,0,7,7,9,1,1010,NW,"ID",33,fariny,FARINY,z,1.2266,,,,,,,,,,,,,,,,,,,,,,,,,,,,,,,,,,,,,,,,,,,,,,,,,,,,,,,,,,,,,,,,,,,
,,,,30098,001,2025-10-20_11h54.55.997,HW_LDT_1,2024.2.4,MacIntel,60.24096386,,,,,,,,,,,,,,,,,,,,35.6329,35.8316,35.8316,36.3318,36.3329,37.4477,m,1,[],[],[],[],[],[],[],1.1056,1,37.4484,37.9474,0,8,8,5,1,1006,WORD,UN,33,frenzy,OBTAIN,m,1.1056,,,,,,,,,,,,,,,,,,,,,,,,,,,,,,,,,,,,,,,,,,,,,,,,,,,,,,,,,,,,,,,,,,,
,,,,30098,001,2025-10-20_11h54.55.997,HW_LDT_1,2024.2.4,MacIntel,60.24096386,,,,,,,,,,,,,,,,,,,,37.9486,38.1483,38.1483,38.6474,38.6485,40.0639,m,1,[],[],[],[],[],[],[],1.395,1,40.064,40.5649,0,9,9,4,1,1005,WORD,UN,33,abound,SQUEAK,m,1.395,,,,,,,,,,,,,,,,,,,,,,,,,,,,,,,,,,,,,,,,,,,,,,,,,,,,,,,,,,,,,,,,,,,
,,,,30098,001,2025-10-20_11h54.55.997,HW_LDT_1,2024.2.4,MacIntel,60.24096386,,,,,,,,,,,,,,,,,,,,40.5664,40.7645,40.7645,41.265,41.266,42.5983,z,1,[],[],[],[],[],[],[],1.3114,1,42.5984,43.0976,0,10,10,14,1,1015,NW,UN,16,miaber,THRALE,z,1.3114,,,,,,,,,,,,,,,,,,,,,,,,,,,,,,,,,,,,,,,,,,,,,,,,,,,,,,,,,,,,,,,,,,,
,,,,30098,001,2025-10-20_11h54.55.997,HW_LDT_1,2024.2.4,MacIntel,60.24096386,,,,,,,,,,,,,,,,,,,,43.0988,43.2982,43.2982,43.7983,43.7993,45.4983,m,1,[],[],[],[],[],[],[],1.6775,1,45.4985,45.9975,0,11,11,1,1,1002,WORD,"ID",33,adjust,ADJUST,m,1.6775,,,,,,,,,,,,,,,,,,,,,,,,,,,,,,,,,,,,,,,,,,,,,,,,,,,,,,,,,,,,,,,,,,,
,,,,30098,001,2025-10-20_11h54.55.997,HW_LDT_1,2024.2.4,MacIntel,60.24096386,,,,,,,,,,,,,,,,,,,,45.9988,46.1982,46.1983,46.6982,46.6992,47.6149,m,1,[],[],[],[],[],[],[],0.8982,1,47.615,48.1149,0,12,12,3,1,1004,WORD,"ID",16,matrix,MATRIX,m,0.8982,,,,,,,,,,,,,,,,,,,,,,,,,,,,,,,,,,,,,,,,,,,,,,,,,,,,,,,,,,,,,,,,,,,
,,,,30098,001,2025-10-20_11h54.55.997,HW_LDT_1,2024.2.4,MacIntel,60.24096386,,,,,,,,,,,,,,,,,,,,48.1163,48.3148,48.3149,48.8148,48.8159,49.5474,m,1,[],[],[],[],[],[],[],0.7162,1,49.5475,50.0483,0,13,13,2,1,1003,WORD,"ID",16,almond,ALMOND,m,0.7162,,,,,,,,,,,,,,,,,,,,,,,,,,,,,,,,,,,,,,,,,,,,,,,,,,,,,,,,,,,,,,,,,,,
,,,,30098,001,2025-10-20_11h54.55.997,HW_LDT_1,2024.2.4,MacIntel,60.24096386,,,,,,,,,,,,,,,,,,,,50.0498,50.2482,50.2483,50.7483,50.7492,51.9148,z,1,[],[],[],[],[],[],[],1.1554,1,51.9149,52.4151,0,14,14,15,1,1016,NW,UN,16,mushed,WHAISE,z,1.1554,,,,,,,,,,,,,,,,,,,,,,,,,,,,,,,,,,,,,,,,,,,,,,,,,,,,,,,,,,,,,,,,,,,
,,,,30098,001,2025-10-20_11h54.55.997,HW_LDT_1,2024.2.4,MacIntel,60.24096386,,,,,,,,,,,,,,,,,,,,52.4166,52.6138,52.6138,53.1149,53.1158,53.9648,m,1,[],[],[],[],[],[],[],0.8412,1,53.965,54.4641,0,15,15,0,1,1001,WORD,"ID",33,utopia,UTOPIA,m,0.8412,,,,,,,,,,,,,,,,,,,,,,,,,,,,,,,,,,,,,,,,,,,,,,,,,,,,,,,,,,,,,,,,,,,
,,,,30098,001,2025-10-20_11h54.55.997,HW_LDT_1,2024.2.4,MacIntel,60.24096386,,,,,,,,,,,,,,,1,end_of_practice,"You have completed the practice trials. During the experimental trials, you will not receive feedback. On some trials you will be asked to report whether the item you just saw was in cursive or print. 
Before you begin, please ensure that you are in a comfortable and quiet location and will not be disturbed for about 15 minutes, as we cannot use your data if you do not complete all the trials. 
 When you are ready to start the experimental trials, please press space or touch the button below.",,,,,,,,,,,,,,,,,,,,,,,,,,,,,,,,,,,,54.4709,55.4645,space,0.9667,,0.30535411,-0.263862942,0,0,0,0,0,0,0,1,,,,,,,,,,,,,,,,,,,,,,,,,,,,,,,,,,,,,,,,,,,,,,,,,,,
,,,,30098,001,2025-10-20_11h54.55.997,HW_LDT_1,2024.2.4,MacIntel,60.24096386,,,,,,,,,,,,,,,,,,,,55.4826,55.6648,55.665,56.1649,,,,,,,,,,,,2.4336,0,,,,,,,,,,,,,,z,,,,,,,,,,,,,,,,,,1,0,56.1663,58.6153,m,0,2.4336,,[],[],[],[],[],[],[],58.6156,60.6139,60.6143,60.6172,[],[],[],[],[],[],[],,60.6173,60.619,0.30535411,-0.263862942,0,0,0,,0,0,0,37,1,4,RL,renutal,cursive,renutal_c.png,,,,,,
,,,,30098,001,2025-10-20_11h54.55.997,HW_LDT_1,2024.2.4,MacIntel,60.24096386,,,,,,,,,,,,,,,,,,,,60.62,60.8148,60.8148,61.3145,,,,,,,,,,,,1.8753,0,,,,,,,,,,,,,,z,,,,,,,,,,,,,,,,,,2,0,61.3149,63.1982,m,0,1.8753,,[],[],[],[],[],[],[],63.1983,65.1983,65.1983,65.1986,[],[],[],[],[],[],[],,65.1987,65.1989,0.30535411,-0.263862942,0,0,0,,0,1,1,76,1,4,TL,setanor,print,setanor_p.png,,,,,,
,,,,30098,001,2025-10-20_11h54.55.997,HW_LDT_1,2024.2.4,MacIntel,60.24096386,,,,,,,,,,,,,,,,,,,,65.2003,65.3981,65.3981,65.8972,,,,,,,,,,,,3.3502,1,,,,,,,,,,,,,,z,,,,,,,,,,,,,,,,,,3,0,65.8975,69.2485,z,1,3.3502,,[],[],[],[],[],[],[],69.2485,71.248,71.2481,71.2483,[],[],[],[],[],[],[],,71.2484,71.2485,0.30535411,-0.263862942,0,0,0,,0,2,2,63,1,4,TL,miskate,print,miskate_p.png,,,,,,
,,,,30098,001,2025-10-20_11h54.55.997,HW_LDT_1,2024.2.4,MacIntel,60.24096386,,,,,,,,,,,,,,,,,,,,71.2497,71.4481,71.4481,71.9481,,,,,,,,,,,,1.119,1,,,,,,,,,,,,,,z,,,,,,,,,,,,,,,,,,4,0,71.9487,73.0805,z,1,1.119,,[],[],[],[],[],[],[],73.0807,75.0813,75.0813,75.0814,[],[],[],[],[],[],[],,75.0815,75.0815,0.30535411,-0.263862942,0,0,0,,0,3,3,27,1,4,RL,menowy,print,menowy_p.png,,,,,,
,,,,30098,001,2025-10-20_11h54.55.997,HW_LDT_1,2024.2.4,MacIntel,60.24096386,,,,,,,,,,,,,,,,,,,,75.0823,75.2814,75.2814,75.7814,,,,,,,,,,,,1.9644,1,,,,,,,,,,,,,,z,,,,,,,,,,,,,,,,,,5,0,75.7822,77.748,z,1,1.9644,,[],[],[],[],[],[],[],77.7482,79.7474,79.7475,79.7478,[],[],[],[],[],[],[],,79.7479,79.7481,0.30535411,-0.263862942,0,0,0,,0,4,4,67,1,4,TL,polupar,print,polupar_p.png,,,,,,
,,,,30098,001,2025-10-20_11h54.55.997,HW_LDT_1,2024.2.4,MacIntel,60.24096386,,,,,,,,,,,,,,,,,,,,79.7493,79.9482,79.9483,80.4481,,,,,,,,,,,,1.4025,1,,,,,,,,,,,,,,z,,,,,,,,,,,,,,,,,,6,0,80.4487,81.8647,z,1,1.4025,,[],[],[],[],[],[],[],81.8648,83.8647,83.8648,83.8653,[],[],[],[],[],[],[],,83.8654,83.8655,0.30535411,-0.263862942,0,0,0,,0,5,5,8,1,4,RL,casagity,cursive,casagity_c.png,,,,,,
,,,,30098,001,2025-10-20_11h54.55.997,HW_LDT_1,2024.2.4,MacIntel,60.24096386,,,,,,,,,,,,,,,,,,,,83.8667,84.0647,84.0647,84.5647,,,,,,,,,,,,0.8368,1,,,,,,,,,,,,,,z,,,,,,,,,,,,,,,,,,7,0,84.5654,85.4147,z,1,0.8368,,[],[],[],[],[],[],[],85.4148,87.4147,87.4147,87.415,[],[],[],[],[],[],[],,87.415,87.415,0.30535411,-0.263862942,0,0,0,,0,6,6,4,1,4,RL,betemit,cursive,betemit_c.png,,,,,,
,,,,30098,001,2025-10-20_11h54.55.997,HW_LDT_1,2024.2.4,MacIntel,60.24096386,,,,,,,,,,,,,,,,,,,,87.4162,87.6146,87.6146,88.1147,,,,,,,,,,,,0.6055,1,,,,,,,,,,,,,,m,,,,,,,,,,,,,,,,,,8,0,88.1154,88.7313,m,1,0.6055,,[],[],[],[],[],[],[],88.7314,90.7314,90.7314,90.7317,[],[],[],[],[],[],[],,90.7318,90.7319,0.30535411,-0.263862942,0,0,0,,0,7,7,123,1,4,word,MODERATE,print,moderate_p.png,,,,,,
,,,,30098,001,2025-10-20_11h54.55.997,HW_LDT_1,2024.2.4,MacIntel,60.24096386,,,,,,,,,,,,,,,,,,,,90.7332,90.9313,90.9313,91.4304,,,,,,,,,,,,0.8076,1,,,,,,,,,,,,,,z,,,,,,,,,,,,,,,,,,9,0,91.431,92.2478,z,1,0.8076,,[],[],[],[],[],[],[],92.2478,94.2479,94.2479,94.2482,[],[],[],[],[],[],[],,94.2483,94.2484,0.30535411,-0.263862942,0,0,0,,0,8,8,26,1,4,RL,mesibine,cursive,mesibine_c.png,,,,,,
,,,,30098,001,2025-10-20_11h54.55.997,HW_LDT_1,2024.2.4,MacIntel,60.24096386,,,,,,,,,,,,,,,,,,,,94.2498,94.4479,94.4479,94.9479,,,,,,,,,,,,0.715,1,,,,,,,,,,,,,,m,,,,,,,,,,,,,,,,,,10,0,94.9486,95.6644,m,1,0.715,,[],[],[],[],[],[],[],95.6645,97.6646,97.6646,97.6648,[],[],[],[],[],[],[],,97.6648,97.665,0.30535411,-0.263862942,0,0,0,,0,9,9,153,1,4,word,STOLEN,cursive,stolen_c.png,,,,,,
,,,,30098,001,2025-10-20_11h54.55.997,HW_LDT_1,2024.2.4,MacIntel,60.24096386,,,,,,,,,,,,,,,,,,,,97.6661,97.8646,97.8647,98.3646,,,,,,,,,,,,0.7632,1,,,,,,,,,,,,,,m,,,,,,,,,,,,,,,,,,11,0,98.3652,99.131,m,1,0.7632,,[],[],[],[],[],[],[],99.131,101.1313,101.1313,101.1317,[],[],[],[],[],[],[],,101.1317,101.1319,0.30535411,-0.263862942,0,0,0,,0,10,10,110,1,4,word,HERITAGE,print,heritage_p.png,,,,,,
,,,,30098,001,2025-10-20_11h54.55.997,HW_LDT_1,2024.2.4,MacIntel,60.24096386,,,,,,,,,,,,,,,,,,,,101.1333,101.3312,101.3312,101.8313,,,,,,,,,,,,0.5696,1,,,,,,,,,,,,,,m,,,,,,,,,,,,,,,,,,12,1,101.8319,102.4147,m,1,0.5696,,[],[],[],[],[],[],[],102.4147,104.4145,104.4146,107.1646,[],[],[],[],[],[],[],m,107.1647,107.1648,0.30535411,-0.263862942,0,0,0,,0,11,11,132,1,4,word,PROPOSAL,print,proposal_p.png,2.7361,,,,,
,,,,30098,001,2025-10-20_11h54.55.997,HW_LDT_1,2024.2.4,MacIntel,60.24096386,,,,,,,,,,,,,,,,,,,,107.1661,107.3646,107.3647,107.8645,,,,,,,,,,,,1.3649,0,,,,,,,,,,,,,,m,,,,,,,,,,,,,,,,,,13,0,107.865,109.2309,z,0,1.3649,,[],[],[],[],[],[],[],109.2311,111.2313,111.2314,111.2316,[],[],[],[],[],[],[],,111.2317,111.2319,0.30535411,-0.263862942,0,0,0,,0,12,12,106,1,4,word,ELABORATE,cursive,elaborate_c.png,,,,,,
,,,,30098,001,2025-10-20_11h54.55.997,HW_LDT_1,2024.2.4,MacIntel,60.24096386,,,,,,,,,,,,,,,,,,,,111.2334,111.4313,111.4313,111.9313,,,,,,,,,,,,0.6715,1,,,,,,,,,,,,,,m,,,,,,,,,,,,,,,,,,14,0,111.9318,112.6144,m,1,0.6715,,[],[],[],[],[],[],[],112.6145,114.6144,114.6145,114.6147,[],[],[],[],[],[],[],,114.6147,114.6149,0.30535411,-0.263862942,0,0,0,,0,13,13,103,1,4,word,DISPUTE,print,dispute_p.png,,,,,,
,,,,30098,001,2025-10-20_11h54.55.997,HW_LDT_1,2024.2.4,MacIntel,60.24096386,,,,,,,,,,,,,,,,,,,,114.6162,114.8145,114.8145,115.3144,,,,,,,,,,,,0.8198,0,,,,,,,,,,,,,,m,,,,,,,,,,,,,,,,,,15,0,115.3149,116.1478,z,0,0.8198,,[],[],[],[],[],[],[],116.1479,118.1476,118.1478,118.1479,[],[],[],[],[],[],[],,118.1479,118.148,0.30535411,-0.263862942,0,0,0,,0,14,14,139,1,4,word,REGULAR,cursive,regular_c.png,,,,,,
,,,,30098,001,2025-10-20_11h54.55.997,HW_LDT_1,2024.2.4,MacIntel,60.24096386,,,,,,,,,,,,,,,,,,,,118.1489,118.3474,118.3475,118.8478,,,,,,,,,,,,1.0039,1,,,,,,,,,,,,,,m,,,,,,,,,,,,,,,,,,16,0,118.8483,119.8645,m,1,1.0039,,[],[],[],[],[],[],[],119.8646,121.8644,121.8645,121.8647,[],[],[],[],[],[],[],,121.8648,121.865,0.30535411,-0.263862942,0,0,0,,0,15,15,137,1,4,word,RAPIDLY,cursive,rapidly_c.png,,,,,,
,,,,30098,001,2025-10-20_11h54.55.997,HW_LDT_1,2024.2.4,MacIntel,60.24096386,,,,,,,,,,,,,,,,,,,,121.8663,122.0644,122.0645,122.5644,,,,,,,,,,,,1.8368,0,,,,,,,,,,,,,,z,,,,,,,,,,,,,,,,,,17,0,122.5651,124.4144,m,0,1.8368,,[],[],[],[],[],[],[],124.4145,126.4139,126.414,126.4143,[],[],[],[],[],[],[],,126.4144,126.4145,0.30535411,-0.263862942,0,0,0,,0,16,16,65,1,4,TL,orepator,print,orepator_p.png,,,,,,
,,,,30098,001,2025-10-20_11h54.55.997,HW_LDT_1,2024.2.4,MacIntel,60.24096386,,,,,,,,,,,,,,,,,,,,126.4158,126.6137,126.6139,127.1144,,,,,,,,,,,,1.5656,1,,,,,,,,,,,,,,m,,,,,,,,,,,,,,,,,,18,0,127.1149,128.6815,m,1,1.5656,,[],[],[],[],[],[],[],128.6815,130.681,130.6811,130.6812,[],[],[],[],[],[],[],,130.6813,130.6815,0.30535411,-0.263862942,0,0,0,,0,17,17,158,1,4,word,VELOCITY,cursive,velocity_c.png,,,,,,
,,,,30098,001,2025-10-20_11h54.55.997,HW_LDT_1,2024.2.4,MacIntel,60.24096386,,,,,,,,,,,,,,,,,,,,130.6828,130.8811,130.8811,131.381,,,,,,,,,,,,1.5532,1,,,,,,,,,,,,,,m,,,,,,,,,,,,,,,,,,19,0,131.3815,132.9477,m,1,1.5532,,[],[],[],[],[],[],[],132.9478,134.9477,134.9478,134.9481,[],[],[],[],[],[],[],,134.9481,134.9483,0.30535411,-0.263862942,0,0,0,,0,18,18,105,1,4,word,EDITOR,print,editor_p.png,,,,,,
,,,,30098,001,2025-10-20_11h54.55.997,HW_LDT_1,2024.2.4,MacIntel,60.24096386,,,,,,,,,,,,,,,,,,,,134.9497,135.1477,135.1478,135.6476,,,,,,,,,,,,1.1309,1,,,,,,,,,,,,,,m,,,,,,,,,,,,,,,,,,20,0,135.6482,136.7809,m,1,1.1309,,[],[],[],[],[],[],[],136.781,138.781,138.7811,138.7813,[],[],[],[],[],[],[],,138.7813,138.7815,0.30535411,-0.263862942,0,0,0,,0,19,19,102,1,4,word,DENSITY,cursive,density_c.png,,,,,,
,,,,30098,001,2025-10-20_11h54.55.997,HW_LDT_1,2024.2.4,MacIntel,60.24096386,,,,,,,,,,,,,,,,,,,,138.7828,138.981,138.981,139.4808,,,,,,,,,,,,0.6543,1,,,,,,,,,,,,,,m,,,,,,,,,,,,,,,,,,21,0,139.4812,140.1476,m,1,0.6543,,[],[],[],[],[],[],[],140.1478,142.1476,142.1476,142.1478,[],[],[],[],[],[],[],,142.1479,142.148,0.30535411,-0.263862942,0,0,0,,0,20,20,89,1,4,word,CAPACITY,cursive,capacity_c.png,,,,,,
,,,,30098,001,2025-10-20_11h54.55.997,HW_LDT_1,2024.2.4,MacIntel,60.24096386,,,,,,,,,,,,,,,,,,,,142.1488,142.3467,142.3468,142.8477,,,,,,,,,,,,0.6475,0,,,,,,,,,,,,,,z,,,,,,,,,,,,,,,,,,22,0,142.8483,143.497,m,0,0.6475,,[],[],[],[],[],[],[],143.497,145.4976,145.4977,145.498,[],[],[],[],[],[],[],,145.498,145.4982,0.30535411,-0.263862942,0,0,0,,0,21,21,5,1,4,RL,bebine,print,bebine_p.png,,,,,,
,,,,30098,001,2025-10-20_11h54.55.997,HW_LDT_1,2024.2.4,MacIntel,60.24096386,,,,,,,,,,,,,,,,,,,,145.4996,145.6976,145.6977,146.1976,,,,,,,,,,,,1.354,1,,,,,,,,,,,,,,m,,,,,,,,,,,,,,,,,,23,0,146.1981,147.5643,m,1,1.354,,[],[],[],[],[],[],[],147.5644,149.5642,149.5643,149.5644,[],[],[],[],[],[],[],,149.5644,149.5645,0.30535411,-0.263862942,0,0,0,,0,22,22,95,1,4,word,COMEDY,print,comedy_p.png,,,,,,
,,,,30098,001,2025-10-20_11h54.55.997,HW_LDT_1,2024.2.4,MacIntel,60.24096386,,,,,,,,,,,,,,,,,,,,149.5655,149.7634,149.7635,150.2642,,,,,,,,,,,,0.9491,1,,,,,,,,,,,,,,z,,,,,,,,,,,,,,,,,,24,0,150.2648,151.2147,z,1,0.9491,,[],[],[],[],[],[],[],151.2147,153.2143,153.2143,153.2145,[],[],[],[],[],[],[],,153.2145,153.2146,0.30535411,-0.263862942,0,0,0,,0,23,23,19,1,4,RL,elacodate,cursive,elacodate_c.png,,,,,,
,,,,30098,001,2025-10-20_11h54.55.997,HW_LDT_1,2024.2.4,MacIntel,60.24096386,,,,,,,,,,,,,,,,,,,,153.2158,153.4143,153.4144,153.9142,,,,,,,,,,,,1.5484,0,,,,,,,,,,,,,,z,,,,,,,,,,,,,,,,,,25,0,153.9149,155.4642,m,0,1.5484,,[],[],[],[],[],[],[],155.4644,157.4642,157.4642,157.4645,[],[],[],[],[],[],[],,157.4645,157.4647,0.30535411,-0.263862942,0,0,0,,0,24,24,66,1,4,TL,opmital,print,opmital_p.png,,,,,,
,,,,30098,001,2025-10-20_11h54.55.997,HW_LDT_1,2024.2.4,MacIntel,60.24096386,,,,,,,,,,,,,,,,,,,,157.4659,157.6645,157.6646,158.1641,,,,,,,,,,,,1.0352,0,,,,,,,,,,,,,,m,,,,,,,,,,,,,,,,,,26,0,158.1646,159.2142,z,0,1.0352,,[],[],[],[],[],[],[],159.2142,161.2143,161.2143,161.2146,[],[],[],[],[],[],[],,161.2146,161.2147,0.30535411,-0.263862942,0,0,0,,0,25,25,129,1,4,word,PARENT,cursive,parent_c.png,,,,,,
,,,,30098,001,2025-10-20_11h54.55.997,HW_LDT_1,2024.2.4,MacIntel,60.24096386,,,,,,,,,,,,,,,,,,,,161.2162,161.4143,161.4143,161.9143,,,,,,,,,,,,0.7728,1,,,,,,,,,,,,,,m,,,,,,,,,,,,,,,,,,27,0,161.9148,162.6973,m,1,0.7728,,[],[],[],[],[],[],[],162.6973,164.6975,164.6976,164.6979,[],[],[],[],[],[],[],,164.698,164.698,0.30535411,-0.263862942,0,0,0,,0,26,26,141,1,4,word,RELIGION,print,religion_p.png,,,,,,
,,,,30098,001,2025-10-20_11h54.55.997,HW_LDT_1,2024.2.4,MacIntel,60.24096386,,,,,,,,,,,,,,,,,,,,164.6993,164.8975,164.8975,165.3975,,,,,,,,,,,,1.0554,1,,,,,,,,,,,,,,z,,,,,,,,,,,,,,,,,,28,0,165.398,166.4641,z,1,1.0554,,[],[],[],[],[],[],[],166.4642,168.4641,168.4642,168.4644,[],[],[],[],[],[],[],,168.4644,168.4644,0.30535411,-0.263862942,0,0,0,,0,27,27,28,1,4,RL,mifikary,print,mifikary_p.png,,,,,,
,,,,30098,001,2025-10-20_11h54.55.997,HW_LDT_1,2024.2.4,MacIntel,60.24096386,,,,,,,,,,,,,,,,,,,,168.4657,168.6635,168.6636,169.1632,,,,,,,,,,,,0.8832,1,,,,,,,,,,,,,,m,,,,,,,,,,,,,,,,,,29,1,169.1637,170.0478,m,1,0.8832,,[],[],[],[],[],[],[],170.0478,172.0475,172.0476,174.1309,[],[],[],[],[],[],[],m,174.1309,174.131,0.30535411,-0.263862942,0,0,0,,0,28,28,143,1,4,word,REMOVAL,print,removal_p.png,2.0722,,,,,
,,,,30098,001,2025-10-20_11h54.55.997,HW_LDT_1,2024.2.4,MacIntel,60.24096386,,,,,,,,,,,,,,,,,,,,174.1322,174.3307,174.3308,174.8306,,,,,,,,,,,,0.9211,1,,,,,,,,,,,,,,m,,,,,,,,,,,,,,,,,,30,0,174.8311,175.7635,m,1,0.9211,,[],[],[],[],[],[],[],175.7637,177.7638,177.7639,177.764,[],[],[],[],[],[],[],,177.7641,177.7642,0.30535411,-0.263862942,0,0,0,,0,29,29,85,1,4,word,BENEFIT,cursive,benefit_c.png,,,,,,
,,,,30098,001,2025-10-20_11h54.55.997,HW_LDT_1,2024.2.4,MacIntel,60.24096386,,,,,,,,,,,,,,,,,,,,177.7656,177.9641,177.9642,178.464,,,,,,,,,,,,0.669,0,,,,,,,,,,,,,,m,,,,,,,,,,,,,,,,,,31,1,178.4646,179.1474,z,0,0.669,,[],[],[],[],[],[],[],179.1474,181.1474,181.1475,182.3475,[],[],[],[],[],[],[],m,182.3476,182.3477,0.30535411,-0.263862942,0,0,0,,0,30,30,135,1,4,word,QUALITY,print,quality_p.png,1.1929,,,,,
,,,,30098,001,2025-10-20_11h54.55.997,HW_LDT_1,2024.2.4,MacIntel,60.24096386,,,,,,,,,,,,,,,,,,,,182.3489,182.5472,182.5473,183.0474,,,,,,,,,,,,1.9047,1,,,,,,,,,,,,,,z,,,,,,,,,,,,,,,,,,32,0,183.0478,184.9641,z,1,1.9047,,[],[],[],[],[],[],[],184.9641,186.9641,186.9642,186.9644,[],[],[],[],[],[],[],,186.9644,186.9645,0.30535411,-0.263862942,0,0,0,,0,31,31,59,1,4,TL,fornute,cursive,fornute_c.png,,,,,,
,,,,30098,001,2025-10-20_11h54.55.997,HW_LDT_1,2024.2.4,MacIntel,60.24096386,,,,,,,,,,,,,,,,,,,,186.9659,187.1631,187.1632,187.664,,,,,,,,,,,,0.7702,0,,,,,,,,,,,,,,z,,,,,,,,,,,,,,,,,,33,0,187.6646,188.4474,m,0,0.7702,,[],[],[],[],[],[],[],188.4475,190.4472,190.4473,190.4475,[],[],[],[],[],[],[],,190.4475,190.4476,0.30535411,-0.263862942,0,0,0,,0,32,32,70,1,4,TL,quatily,print,quatily_p.png,,,,,,
,,,,30098,001,2025-10-20_11h54.55.997,HW_LDT_1,2024.2.4,MacIntel,60.24096386,,,,,,,,,,,,,,,,,,,,190.4489,190.647,190.647,191.1473,,,,,,,,,,,,0.9476,1,,,,,,,,,,,,,,z,,,,,,,,,,,,,,,,,,34,0,191.1479,192.0973,z,1,0.9476,,[],[],[],[],[],[],[],192.0974,194.0963,194.0964,194.0965,[],[],[],[],[],[],[],,194.0966,194.0968,0.30535411,-0.263862942,0,0,0,,0,33,33,39,1,4,RL,relone,cursive,relone_c.png,,,,,,
,,,,30098,001,2025-10-20_11h54.55.997,HW_LDT_1,2024.2.4,MacIntel,60.24096386,,,,,,,,,,,,,,,,,,,,194.098,194.2962,194.2963,194.7973,,,,,,,,,,,,0.8984,1,,,,,,,,,,,,,,z,,,,,,,,,,,,,,,,,,35,0,194.7977,195.6973,z,1,0.8984,,[],[],[],[],[],[],[],195.6974,197.6963,197.6964,197.6965,[],[],[],[],[],[],[],,197.6966,197.6966,0.30535411,-0.263862942,0,0,0,,0,34,34,24,1,4,RL,marmipal,cursive,marmipal_c.png,,,,,,
,,,,30098,001,2025-10-20_11h54.55.997,HW_LDT_1,2024.2.4,MacIntel,60.24096386,,,,,,,,,,,,,,,,,,,,197.6978,197.8974,197.8975,198.3973,,,,,,,,,,,,0.6398,1,,,,,,,,,,,,,,m,,,,,,,,,,,,,,,,,,36,1,198.3978,199.0474,m,1,0.6398,,[],[],[],[],[],[],[],199.0474,201.0463,201.0463,202.4468,[],[],[],[],[],[],[],m,202.4468,202.4469,0.30535411,-0.263862942,0,0,0,,0,35,35,140,1,4,word,RELATIVE,print,relative_p.png,1.3993,,,,,
,,,,30098,001,2025-10-20_11h54.55.997,HW_LDT_1,2024.2.4,MacIntel,60.24096386,,,,,,,,,,,,,,,,,,,,202.4477,202.6473,202.6473,203.1472,,,,,,,,,,,,0.9871,0,,,,,,,,,,,,,,z,,,,,,,,,,,,,,,,,,37,0,203.1477,204.1472,m,0,0.9871,,[],[],[],[],[],[],[],204.1473,206.1469,206.147,206.1471,[],[],[],[],[],[],[],,206.1472,206.1473,0.30535411,-0.263862942,0,0,0,,0,36,36,21,1,4,RL,insibate,print,insibate_p.png,,,,,,
,,,,30098,001,2025-10-20_11h54.55.997,HW_LDT_1,2024.2.4,MacIntel,60.24096386,,,,,,,,,,,,,,,,,,,,206.1484,206.3472,206.3473,206.8462,,,,,,,,,,,,0.8085,1,,,,,,,,,,,,,,z,,,,,,,,,,,,,,,,,,38,0,206.8467,207.6639,z,1,0.8085,,[],[],[],[],[],[],[],207.6639,209.6639,209.664,209.6641,[],[],[],[],[],[],[],,209.6642,209.6642,0.30535411,-0.263862942,0,0,0,,0,37,37,48,1,4,RL,vabifity,print,vabifity_p.png,,,,,,
,,,,30098,001,2025-10-20_11h54.55.997,HW_LDT_1,2024.2.4,MacIntel,60.24096386,,,,,,,,,,,,,,,,,,,,209.6657,209.8635,209.8636,210.364,,,,,,,,,,,,0.6816,1,,,,,,,,,,,,,,z,,,,,,,,,,,,,,,,,,39,0,210.3647,211.0473,z,1,0.6816,,[],[],[],[],[],[],[],211.0474,213.0471,213.0471,213.0472,[],[],[],[],[],[],[],,213.0473,213.0474,0.30535411,-0.263862942,0,0,0,,0,38,38,32,1,4,RL,patisic,cursive,patisic_c.png,,,,,,
,,,,30098,001,2025-10-20_11h54.55.997,HW_LDT_1,2024.2.4,MacIntel,60.24096386,,,,,,,,,,,,,,,,,,,,213.0485,213.2471,213.2472,213.7471,,,,,,,,,,,,1.3579,1,,,,,,,,,,,,,,z,,,,,,,,,,,,,,,,,,40,0,213.7476,215.1139,z,1,1.3579,,[],[],[],[],[],[],[],215.114,217.1138,217.1139,217.1141,[],[],[],[],[],[],[],,217.1141,217.1142,0.30535411,-0.263862942,0,0,0,,0,39,39,31,1,4,RL,orimipal,print,orimipal_p.png,,,,,,
,,,,30098,001,2025-10-20_11h54.55.997,HW_LDT_1,2024.2.4,MacIntel,60.24096386,,,,,,,,,,,,,,,,,,,,217.1156,217.3138,217.3138,217.8138,,,,,,,,,,,,0.8866,1,,,,,,,,,,,,,,z,,,,,,,,,,,,,,,,,,41,0,217.8144,218.7129,z,1,0.8866,,[],[],[],[],[],[],[],218.7129,220.7138,220.7138,220.714,[],[],[],[],[],[],[],,220.7141,220.7141,0.30535411,-0.263862942,0,0,0,,0,40,40,13,1,4,RL,crisival,cursive,crisival_c.png,,,,,,
,,,,30098,001,2025-10-20_11h54.55.997,HW_LDT_1,2024.2.4,MacIntel,60.24096386,,,,,,,,,,,,,,,,,,,,220.7152,220.9139,220.914,221.4138,,,,,,,,,,,,0.7303,0,,,,,,,,,,,,,,m,,,,,,,,,,,,,,,,,,42,0,221.4146,222.147,z,0,0.7303,,[],[],[],[],[],[],[],222.1471,224.1464,224.1465,224.1467,[],[],[],[],[],[],[],,224.1467,224.1468,0.30535411,-0.263862942,0,0,0,,0,41,41,151,1,4,word,SPECIFIC,cursive,specific_c.png,,,,,,
,,,,30098,001,2025-10-20_11h54.55.997,HW_LDT_1,2024.2.4,MacIntel,60.24096386,,,,,,,,,,,,,,,,,,,,224.1478,224.347,224.3472,224.8462,,,,,,,,,,,,0.7362,0,,,,,,,,,,,,,,m,,,,,,,,,,,,,,,,,,43,0,224.8467,225.5968,z,0,0.7362,,[],[],[],[],[],[],[],225.5969,227.597,227.5971,227.5974,[],[],[],[],[],[],[],,227.5974,227.5975,0.30535411,-0.263862942,0,0,0,,0,42,42,142,1,4,word,REMOTE,cursive,remote_c.png,,,,,,
,,,,30098,001,2025-10-20_11h54.55.997,HW_LDT_1,2024.2.4,MacIntel,60.24096386,,,,,,,,,,,,,,,,,,,,227.5989,227.797,227.7971,228.2971,,,,,,,,,,,,0.831,1,,,,,,,,,,,,,,m,,,,,,,,,,,,,,,,,,44,0,228.2977,229.1303,m,1,0.831,,[],[],[],[],[],[],[],229.1304,231.1303,231.1303,231.1305,[],[],[],[],[],[],[],,231.1306,231.1306,0.30535411,-0.263862942,0,0,0,,0,43,43,145,1,4,word,RESUME,print,resume_p.png,,,,,,
,,,,30098,001,2025-10-20_11h54.55.997,HW_LDT_1,2024.2.4,MacIntel,60.24096386,,,,,,,,,,,,,,,,,,,,231.1318,231.3298,231.3298,231.8304,,,,,,,,,,,,0.6972,0,,,,,,,,,,,,,,z,,,,,,,,,,,,,,,,,,45,1,231.8309,232.5292,m,0,0.6972,,[],[],[],[],[],[],[],232.5293,234.5303,234.5303,235.3138,[],[],[],[],[],[],[],m,235.3139,235.314,0.30535411,-0.263862942,0,0,0,,0,44,44,68,1,4,TL,prosopal,print,prosopal_p.png,0.7715,,,,,
,,,,30098,001,2025-10-20_11h54.55.997,HW_LDT_1,2024.2.4,MacIntel,60.24096386,,,,,,,,,,,,,,,,,,,,235.3152,235.5137,235.5137,236.0137,,,,,,,,,,,,1.5689,1,,,,,,,,,,,,,,m,,,,,,,,,,,,,,,,,,46,0,236.0141,237.5959,m,1,1.5689,,[],[],[],[],[],[],[],237.5959,239.5971,239.5971,239.5973,[],[],[],[],[],[],[],,239.5974,239.5976,0.30535411,-0.263862942,0,0,0,,0,45,45,136,1,4,word,RADICAL,print,radical_p.png,,,,,,
,,,,30098,001,2025-10-20_11h54.55.997,HW_LDT_1,2024.2.4,MacIntel,60.24096386,,,,,,,,,,,,,,,,,,,,239.5989,239.7969,239.797,240.296,,,,,,,,,,,,0.4151,0,,,,,,,,,,,,,,z,,,,,,,,,,,,,,,,,,47,0,240.2965,240.7135,m,0,0.4151,,[],[],[],[],[],[],[],240.7136,242.7126,242.7127,242.7129,[],[],[],[],[],[],[],,242.713,242.7131,0.30535411,-0.263862942,0,0,0,,0,46,46,64,1,4,TL,moredate,print,moredate_p.png,,,,,,
,,,,30098,001,2025-10-20_11h54.55.997,HW_LDT_1,2024.2.4,MacIntel,60.24096386,,,,,,,,,,,,,,,,,,,,242.714,242.9138,242.9138,243.4127,,,,,,,,,,,,0.331,0,,,,,,,,,,,,,,m,,,,,,,,,,,,,,,,,,48,0,243.4133,243.7465,z,0,0.331,,[],[],[],[],[],[],[],243.7466,245.7469,245.7469,245.7471,[],[],[],[],[],[],[],,245.7472,245.7473,0.30535411,-0.263862942,0,0,0,,0,47,47,100,1,4,word,DECADE,cursive,decade_c.png,,,,,,
,,,,30098,001,2025-10-20_11h54.55.997,HW_LDT_1,2024.2.4,MacIntel,60.24096386,,,,,,,,,,,,,,,,,,,,245.7483,245.9469,245.947,246.447,,,,,,,,,,,,0.2643,1,,,,,,,,,,,,,,z,,,,,,,,,,,,,,,,,,49,0,246.4475,246.7128,z,1,0.2643,,[],[],[],[],[],[],[],246.7129,248.7127,248.7128,248.7129,[],[],[],[],[],[],[],,248.713,248.7131,0.30535411,-0.263862942,0,0,0,,0,48,48,20,1,4,RL,gralekul,print,gralekul_p.png,,,,,,
,,,,30098,001,2025-10-20_11h54.55.997,HW_LDT_1,2024.2.4,MacIntel,60.24096386,,,,,,,,,,,,,,,,,,,,248.7141,248.9136,248.9136,249.4128,,,,,,,,,,,,1.5045,0,,,,,,,,,,,,,,m,,,,,,,,,,,,,,,,,,50,0,249.4132,250.9295,z,0,1.5045,,[],[],[],[],[],[],[],250.9296,252.9292,252.9293,252.9294,[],[],[],[],[],[],[],,252.9295,252.9295,0.30535411,-0.263862942,0,0,0,,0,49,49,157,1,4,word,VALIDITY,print,validity_p.png,,,,,,
,,,,30098,001,2025-10-20_11h54.55.997,HW_LDT_1,2024.2.4,MacIntel,60.24096386,,,,,,,,,,,,,,,,,,,,252.9304,253.1302,253.1302,253.6302,,,,,,,,,,,,0.5646,0,,,,,,,,,,,,,,m,,,,,,,,,,,,,,,,,,51,0,253.6307,254.1968,z,0,0.5646,,[],[],[],[],[],[],[],254.1969,256.1968,256.1968,256.197,[],[],[],[],[],[],[],,256.1971,256.1972,0.30535411,-0.263862942,0,0,0,,0,50,50,155,1,4,word,STRATEGY,print,strategy_p.png,,,,,,
,,,,30098,001,2025-10-20_11h54.55.997,HW_LDT_1,2024.2.4,MacIntel,60.24096386,,,,,,,,,,,,,,,,,,,,256.1983,256.3969,256.3969,256.8965,,,,,,,,,,,,0.4536,1,,,,,,,,,,,,,,z,,,,,,,,,,,,,,,,,,52,1,256.897,257.363,z,1,0.4536,,[],[],[],[],[],[],[],257.363,259.3626,259.3626,261.5466,[],[],[],[],[],[],[],m,261.5466,261.5467,0.30535411,-0.263862942,0,0,0,,0,51,51,50,1,4,RL,vecelan,cursive,vecelan_c.png,2.1834,,,,,
,,,,30098,001,2025-10-20_11h54.55.997,HW_LDT_1,2024.2.4,MacIntel,60.24096386,,,,,,,,,,,,,,,,,,,,261.548,261.7467,261.7467,262.2459,,,,,,,,,,,,3.6354,0,,,,,,,,,,,,,,z,,,,,,,,,,,,,,,,,,53,0,262.2464,265.8966,m,0,3.6354,,[],[],[],[],[],[],[],265.8966,267.8968,267.8968,267.897,[],[],[],[],[],[],[],,267.897,267.8971,0.30535411,-0.263862942,0,0,0,,0,52,52,23,1,4,RL,linefal,cursive,linefal_c.png,,,,,,
,,,,30098,001,2025-10-20_11h54.55.997,HW_LDT_1,2024.2.4,MacIntel,60.24096386,,,,,,,,,,,,,,,,,,,,267.8985,268.0969,268.097,268.5968,,,,,,,,,,,,0.0221,0,,,,,,,,,,,,,,m,,,,,,,,,,,,,,,,,,54,0,268.5973,268.6301,z,0,0.0221,,[],[],[],[],[],[],[],268.6303,270.6301,270.6301,270.6303,[],[],[],[],[],[],[],,270.6303,270.6304,0.30535411,-0.263862942,0,0,0,,0,53,53,131,1,4,word,POPULAR,print,popular_p.png,,,,,,
,,,,30098,001,2025-10-20_11h54.55.997,HW_LDT_1,2024.2.4,MacIntel,60.24096386,,,,,,,,,,,,,,,,,,,,270.6318,270.8293,270.8293,271.3293,,,,,,,,,,,,1.248,1,,,,,,,,,,,,,,m,,,,,,,,,,,,,,,,,,55,0,271.3298,272.5799,m,1,1.248,,[],[],[],[],[],[],[],272.58,274.579,274.5791,274.5793,[],[],[],[],[],[],[],,274.5794,274.5794,0.305086617,-0.264363961,0,0,0,,0,54,54,111,1,4,word,INDICATE,print,indicate_p.png,,,,,,
,,,,30098,001,2025-10-20_11h54.55.997,HW_LDT_1,2024.2.4,MacIntel,60.24096386,,,,,,,,,,,,,,,,,,,,274.5805,274.7801,274.7801,275.28,,,,,,,,,,,,2.0887,0,,,,,,,,,,,,,,z,,,,,,,,,,,,,,,,,,56,0,275.2806,277.379,m,0,2.0887,,[],[],[],[],[],[],[],277.379,279.3804,279.3805,279.3807,[],[],[],[],[],[],[],,279.3807,279.3807,0.30480214,-0.265111243,0,0,0,,0,55,55,75,1,4,TL,sanile,print,sanile_p.png,,,,,,
,,,,30098,001,2025-10-20_11h54.55.997,HW_LDT_1,2024.2.4,MacIntel,60.24096386,,,,,,,,,,,,,,,,,,,,279.3818,279.5801,279.5801,280.0799,,,,,,,,,,,,2.232,1,,,,,,,,,,,,,,m,,,,,,,,,,,,,,,,,,57,0,280.0802,282.3134,m,1,2.232,,[],[],[],[],[],[],[],282.3135,284.3134,284.3134,284.3136,[],[],[],[],[],[],[],,284.3137,284.3139,0.30480214,-0.265365999,0,0,0,,0,56,56,133,1,4,word,PROVIDE,cursive,provide_c.png,,,,,,
,,,,30098,001,2025-10-20_11h54.55.997,HW_LDT_1,2024.2.4,MacIntel,60.24096386,,,,,,,,,,,,,,,,,,,,284.3152,284.5133,284.5134,285.0132,,,,,,,,,,,,1.3529,0,,,,,,,,,,,,,,z,,,,,,,,,,,,,,,,,,58,0,285.0134,286.3792,m,0,1.3529,,[],[],[],[],[],[],[],286.3793,288.38,288.38,288.3802,[],[],[],[],[],[],[],,288.3803,288.3803,0.30480214,-0.265365999,0,0,0,,0,57,57,35,1,4,RL,probice,cursive,probice_c.png,,,,,,
,,,,30098,001,2025-10-20_11h54.55.997,HW_LDT_1,2024.2.4,MacIntel,60.24096386,,,,,,,,,,,,,,,,,,,,288.3817,288.58,288.58,289.0801,,,,,,,,,,,,3.955,1,,,,,,,,,,,,,,m,,,,,,,,,,,,,,,,,,59,0,289.0808,293.0465,m,1,3.955,,[],[],[],[],[],[],[],293.0465,295.0467,295.0468,295.047,[],[],[],[],[],[],[],,295.0471,295.0472,0.305048404,-0.264605978,0,0,0,,0,58,58,148,1,4,word,SALINE,print,saline_p.png,,,,,,
,,,,30098,001,2025-10-20_11h54.55.997,HW_LDT_1,2024.2.4,MacIntel,60.24096386,,,,,,,,,,,,,,,,,,,,295.0486,295.2467,295.2468,295.7467,,,,,,,,,,,,7.1208,1,,,,,,,,,,,,,,m,,,,,,,,,,,,,,,,,,60,0,295.7472,302.8798,m,1,7.1208,,[],[],[],[],[],[],[],302.8799,304.8799,304.88,304.8801,[],[],[],[],[],[],[],,304.8803,304.8804,0.305048404,-0.264087976,0,0,0,,0,59,59,86,1,4,word,BESIDE,print,beside_p.png,,,,,,
,,,,30098,001,2025-10-20_11h54.55.997,HW_LDT_1,2024.2.4,MacIntel,60.24096386,,,,,,,,,,,,,,,,,,,,304.8819,305.0799,305.08,305.5801,,,,,,,,,,,,1.5183,1,,,,,,,,,,,,,,m,,,,,,,,,,,,,,,,,,61,0,305.5806,307.113,m,1,1.5183,,[],[],[],[],[],[],[],307.113,309.1133,309.1133,309.1136,[],[],[],[],[],[],[],,309.1136,309.1138,0.305048404,-0.263837466,0,0,0,,0,60,60,118,1,4,word,MEDICINE,cursive,medicine_c.png,,,,,,
,,,,30098,001,2025-10-20_11h54.55.997,HW_LDT_1,2024.2.4,MacIntel,60.24096386,,,,,,,,,,,,,,,,,,,,309.115,309.3133,309.3133,309.8128,,,,,,,,,,,,15.2024,0,,,,,,,,,,,,,,z,,,,,,,,,,,,,,,,,,62,0,309.813,325.0296,m,0,15.2024,,[],[],[],[],[],[],[],325.0296,327.0295,327.0295,327.0296,[],[],[],[],[],[],[],,327.0296,327.0296,0.305048404,-0.263586957,0,0,0,,0,61,61,40,1,4,RL,reconal,print,reconal_p.png,,,,,,
,,,,30098,001,2025-10-20_11h54.55.997,HW_LDT_1,2024.2.4,MacIntel,60.24096386,,,,,,,,,,,,,,,,,,,,327.0299,327.2298,327.2299,327.7298,,,,,,,,,,,,0.4636,1,,,,,,,,,,,,,,m,,,,,,,,,,,,,,,,,,63,0,327.7304,328.1961,m,1,0.4636,,[],[],[],[],[],[],[],328.1961,330.1953,330.1953,330.1954,[],[],[],[],[],[],[],,330.1955,330.1955,0.305048404,-0.263336447,0,0,0,,0,62,62,91,1,4,word,CARDINAL,cursive,cardinal_c.png,,,,,,
,,,,30098,001,2025-10-20_11h54.55.997,HW_LDT_1,2024.2.4,MacIntel,60.24096386,,,,,,,,,,,,,,,,,,,,330.1961,330.3964,330.3964,330.8964,,,,,,,,,,,,4.4703,0,,,,,,,,,,,,,,z,,,,,,,,,,,,,,,,,,64,0,330.8969,335.3787,m,0,4.4703,,[],[],[],[],[],[],[],335.3787,337.3797,337.3797,337.3798,[],[],[],[],[],[],[],,337.3799,337.3799,0.305048404,-0.263336447,0,0,0,,0,63,63,43,1,4,RL,rovastic,print,rovastic_p.png,,,,,,
,,,,30098,001,2025-10-20_11h54.55.997,HW_LDT_1,2024.2.4,MacIntel,60.24096386,,,,,,,,,,,,,,,,,,,,337.3811,337.5789,337.5789,338.0798,,,,,,,,,,,,1.1478,1,,,,,,,,,,,,,,m,,,,,,,,,,,,,,,,,,65,0,338.0804,339.2294,m,1,1.1478,,[],[],[],[],[],[],[],339.2295,341.2296,341.2296,341.2297,[],[],[],[],[],[],[],,341.2299,341.23,0.303664232,-0.264962636,0,0,0,,0,64,64,116,1,4,word,MARGINAL,cursive,marginal_c.png,,,,,,
,,,,30098,001,2025-10-20_11h54.55.997,HW_LDT_1,2024.2.4,MacIntel,60.24096386,,,,,,,,,,,,,,,,,,,,341.2311,341.4293,341.4293,341.9296,,,,,,,,,,,,0.6022,1,,,,,,,,,,,,,,m,,,,,,,,,,,,,,,,,,66,0,341.9301,342.5461,m,1,0.6022,,[],[],[],[],[],[],[],342.5461,344.5462,344.5462,344.5463,[],[],[],[],[],[],[],,344.5463,344.5463,0.303664232,-0.264436141,0,0,0,,0,65,65,156,1,4,word,TRIBUTE,print,tribute_p.png,,,,,,
,,,,30098,001,2025-10-20_11h54.55.997,HW_LDT_1,2024.2.4,MacIntel,60.24096386,,,,,,,,,,,,,,,,,,,,344.547,344.7462,344.7463,345.2463,,,,,,,,,,,,1.2193,1,,,,,,,,,,,,,,z,,,,,,,,,,,,,,,,,,67,0,345.2468,346.4794,z,1,1.2193,,[],[],[],[],[],[],[],346.4795,348.4796,348.4796,348.4798,[],[],[],[],[],[],[],,348.4798,348.48,0.303664232,-0.264066746,0,0,0,,0,66,66,58,1,4,TL,edivent,print,edivent_p.png,,,,,,
,,,,30098,001,2025-10-20_11h54.55.997,HW_LDT_1,2024.2.4,MacIntel,60.24096386,,,,,,,,,,,,,,,,,,,,348.4814,348.6797,348.6798,349.1796,,,,,,,,,,,,0.6197,1,,,,,,,,,,,,,,z,,,,,,,,,,,,,,,,,,68,0,349.18,349.813,z,1,0.6197,,[],[],[],[],[],[],[],349.813,351.813,351.813,351.8132,[],[],[],[],[],[],[],,351.8133,351.8133,0.303664232,-0.264066746,0,0,0,,0,67,67,36,1,4,RL,rabigly,cursive,rabigly_c.png,,,,,,
,,,,30098,001,2025-10-20_11h54.55.997,HW_LDT_1,2024.2.4,MacIntel,60.24096386,,,,,,,,,,,,,,,,,,,,351.8147,352.0131,352.0131,352.5129,,,,,,,,,,,,0.4485,0,,,,,,,,,,,,,,m,,,,,,,,,,,,,,,,,,69,1,352.5133,352.9628,z,0,0.4485,,[],[],[],[],[],[],[],352.9629,354.9626,354.9626,356.3295,[],[],[],[],[],[],[],m,356.3296,356.3296,0.303664232,-0.26353176,0,0,0,,0,68,68,130,1,4,word,POLICY,cursive,policy_c.png,1.3542,,,,,
,,,,30098,001,2025-10-20_11h54.55.997,HW_LDT_1,2024.2.4,MacIntel,60.24096386,,,,,,,,,,,,,,,,,,,,356.3301,356.5292,356.5292,357.0295,,,,,,,,,,,,1.9638,0,,,,,,,,,,,,,,z,,,,,,,,,,,,,,,,,,70,0,357.03,358.996,m,0,1.9638,,[],[],[],[],[],[],[],358.9961,360.9961,360.9963,360.9964,[],[],[],[],[],[],[],,360.9965,360.9966,0.303664232,-0.26270805,0,0,0,,0,69,69,47,1,4,RL,stopave,print,stopave_p.png,,,,,,
,,,,30098,001,2025-10-20_11h54.55.997,HW_LDT_1,2024.2.4,MacIntel,60.24096386,,,,,,,,,,,,,,,,,,,,360.9979,361.1962,361.1963,361.6962,,,,,,,,,,,,0.3369,1,,,,,,,,,,,,,,z,,,,,,,,,,,,,,,,,,71,0,361.6968,362.046,z,1,0.3369,,[],[],[],[],[],[],[],362.046,364.0463,364.0463,364.0464,[],[],[],[],[],[],[],,364.0465,364.0466,0.303664232,-0.261693274,0,0,0,,0,70,70,11,1,4,RL,clisimal,print,clisimal_p.png,,,,,,
,,,,30098,001,2025-10-20_11h54.55.997,HW_LDT_1,2024.2.4,MacIntel,60.24096386,,,,,,,,,,,,,,,,,,,,364.048,364.2462,364.2463,364.7462,,,,,,,,,,,,2.0782,0,,,,,,,,,,,,,,z,,,,,,,,,,,,,,,,,,72,0,364.7465,366.8294,m,0,2.0782,,[],[],[],[],[],[],[],366.8295,368.8295,368.8295,368.8297,[],[],[],[],[],[],[],,368.8298,368.8299,0.303664232,-0.261408798,0,0,0,,0,71,71,79,1,4,TL,tritube,print,tritube_p.png,,,,,,
,,,,30098,001,2025-10-20_11h54.55.997,HW_LDT_1,2024.2.4,MacIntel,60.24096386,,,,,,,,,,,,,,,,,,,,368.8312,369.0295,369.0295,369.5292,,,,,,,,,,,,0.9648,1,,,,,,,,,,,,,,m,,,,,,,,,,,,,,,,,,73,0,369.5296,370.496,m,1,0.9648,,[],[],[],[],[],[],[],370.496,372.496,372.496,372.4962,[],[],[],[],[],[],[],,372.4962,372.4963,0.303664232,-0.261137058,0,0,0,,0,72,72,94,1,4,word,CLINICAL,print,clinical_p.png,,,,,,
,,,,30098,001,2025-10-20_11h54.55.997,HW_LDT_1,2024.2.4,MacIntel,60.24096386,,,,,,,,,,,,,,,,,,,,372.4973,372.6961,372.6961,373.1962,,,,,,,,,,,,1.2511,0,,,,,,,,,,,,,,z,,,,,,,,,,,,,,,,,,74,1,373.1967,374.4627,m,0,1.2511,,[],[],[],[],[],[],[],374.4627,376.4617,376.4618,378.6292,[],[],[],[],[],[],[],m,378.6292,378.6293,0.303685462,-0.260602072,0,0,0,,0,73,73,34,1,4,RL,posity,cursive,posity_c.png,2.156,,,,,
,,,,30098,001,2025-10-20_11h54.55.997,HW_LDT_1,2024.2.4,MacIntel,60.24096386,,,,,,,,,,,,,,,,,,,,378.63,378.8292,378.8293,379.3295,,,,,,,,,,,,2.9682,1,,,,,,,,,,,,,,m,,,,,,,,,,,,,,,,,,75,0,379.33,382.3125,m,1,2.9682,,[],[],[],[],[],[],[],382.3125,384.3128,384.3128,384.313,[],[],[],[],[],[],[],,384.3131,384.3131,0.303685462,-0.260602072,0,0,0,,0,74,74,109,1,4,word,GRATEFUL,print,grateful_p.png,,,,,,
,,,,30098,001,2025-10-20_11h54.55.997,HW_LDT_1,2024.2.4,MacIntel,60.24096386,,,,,,,,,,,,,,,,,,,,384.3145,384.5127,384.5128,385.0124,,,,,,,,,,,,2.8045,0,,,,,,,,,,,,,,z,,,,,,,,,,,,,,,,,,76,0,385.0129,387.8294,m,0,2.8045,,[],[],[],[],[],[],[],387.8294,389.8293,389.8293,389.8295,[],[],[],[],[],[],[],,389.8297,389.8297,0.303685462,-0.259846298,0,0,0,,0,75,75,54,1,4,TL,codemy,print,codemy_p.png,,,,,,
,,,,30098,001,2025-10-20_11h54.55.997,HW_LDT_1,2024.2.4,MacIntel,60.24096386,,,,,,,,,,,,,,,,,,,,389.831,390.0293,390.0294,390.5293,,,,,,,,,,,,0.9915,1,,,,,,,,,,,,,,z,,,,,,,,,,,,,,,,,,77,1,390.5298,391.5294,z,1,0.9915,,[],[],[],[],[],[],[],391.5295,393.5294,393.5294,395.1127,[],[],[],[],[],[],[],z,395.1127,395.1128,0.303685462,-0.259846298,0,0,0,,0,76,76,77,1,4,TL,spemicen,cursive,spemicen_c.png,1.5807,,,,,
,,,,30098,001,2025-10-20_11h54.55.997,HW_LDT_1,2024.2.4,MacIntel,60.24096386,,,,,,,,,,,,,,,,,,,,395.1139,395.3127,395.3127,395.8126,,,,,,,,,,,,1.0145,0,,,,,,,,,,,,,,z,,,,,,,,,,,,,,,,,,78,0,395.8131,396.8291,m,0,1.0145,,[],[],[],[],[],[],[],396.8293,398.829,398.829,398.8291,[],[],[],[],[],[],[],,398.8291,398.8291,0.303685462,-0.258037534,0,0,0,,0,77,77,53,1,4,TL,cemerony,print,cemerony_p.png,,,,,,
,,,,30098,001,2025-10-20_11h54.55.997,HW_LDT_1,2024.2.4,MacIntel,60.24096386,,,,,,,,,,,,,,,,,,,,398.8293,399.028,399.028,399.5289,,,,,,,,,,,,1.019,1,,,,,,,,,,,,,,m,,,,,,,,,,,,,,,,,,79,0,399.529,400.5613,m,1,1.019,,[],[],[],[],[],[],[],400.5614,402.5623,402.5623,402.5625,[],[],[],[],[],[],[],,402.5625,402.5625,0.303685462,-0.257778533,0,0,0,,0,78,78,83,1,4,word,ANIMAL,cursive,animal_c.png,,,,,,
,,,,30098,001,2025-10-20_11h54.55.997,HW_LDT_1,2024.2.4,MacIntel,60.24096386,,,,,,,,,,,,,,,,,,,,402.5632,402.7614,402.7614,403.2623,,,,,,,,,,,,0.8202,1,,,,,,,,,,,,,,z,,,,,,,,,,,,,,,,,,80,0,403.2625,404.0959,z,1,0.8202,,[],[],[],[],[],[],[],404.0959,406.0957,406.0957,406.0958,[],[],[],[],[],[],[],,406.0958,410.046,0.302849015,-0.253396739,0,0,0,space,0,79,79,57,1,4,TL,etidor,print,etidor_p.png,,,3.9385,,,
,,,,30098,001,2025-10-20_11h54.55.997,HW_LDT_1,2024.2.4,MacIntel,60.24096386,,,,,,,,,,,,,,,,,,,,410.0472,410.2452,410.2452,410.7459,,,,,,,,,,,,0.4366,1,,,,,,,,,,,,,,z,,,,,,,,,,,,,,,,,,81,0,410.7464,411.1952,z,1,0.4366,,[],[],[],[],[],[],[],411.1953,413.1955,413.1955,413.1956,[],[],[],[],[],[],[],,413.1956,413.1958,0.302849015,-0.253396739,0,0,0,,0,80,80,55,1,4,TL,corevage,cursive,corevage_c.png,,,,,,
,,,,30098,001,2025-10-20_11h54.55.997,HW_LDT_1,2024.2.4,MacIntel,60.24096386,,,,,,,,,,,,,,,,,,,,413.1968,413.3958,413.3959,413.8958,,,,,,,,,,,,0.6364,1,,,,,,,,,,,,,,z,,,,,,,,,,,,,,,,,,82,0,413.8962,414.5449,z,1,0.6364,,[],[],[],[],[],[],[],414.545,416.5449,416.5449,416.5451,[],[],[],[],[],[],[],,416.5451,416.5453,0.302849015,-0.253396739,0,0,0,,0,81,81,69,1,4,TL,quafily,print,quafily_p.png,,,,,,
,,,,30098,001,2025-10-20_11h54.55.997,HW_LDT_1,2024.2.4,MacIntel,60.24096386,,,,,,,,,,,,,,,,,,,,416.5466,416.7448,416.7449,417.2455,,,,,,,,,,,,0.4321,1,,,,,,,,,,,,,,z,,,,,,,,,,,,,,,,,,83,0,417.246,417.6791,z,1,0.4321,,[],[],[],[],[],[],[],417.6792,419.6791,419.6791,419.6793,[],[],[],[],[],[],[],,419.6794,419.6794,0.302849015,-0.253396739,0,0,0,,0,82,82,3,1,4,RL,bewoted,print,bewoted_p.png,,,,,,
,,,,30098,001,2025-10-20_11h54.55.997,HW_LDT_1,2024.2.4,MacIntel,60.24096386,,,,,,,,,,,,,,,,,,,,419.6806,419.8785,419.8786,420.3791,,,,,,,,,,,,2.6507,0,,,,,,,,,,,,,,z,,,,,,,,,,,,,,,,,,84,0,420.3796,423.0457,m,0,2.6507,,[],[],[],[],[],[],[],423.0457,425.0458,425.0458,425.046,[],[],[],[],[],[],[],,425.0461,425.0461,0.302849015,-0.252309783,0,0,0,,0,83,83,71,1,4,TL,racidal,print,racidal_p.png,,,,,,
,,,,30098,001,2025-10-20_11h54.55.997,HW_LDT_1,2024.2.4,MacIntel,60.24096386,,,,,,,,,,,,,,,,,,,,425.0475,425.2455,425.2456,425.7448,,,,,,,,,,,,0.0052,1,,,,,,,,,,,,,,z,,,,,,,,,,,,,,,,,,85,0,425.7453,425.7624,z,1,0.0052,,[],[],[],[],[],[],[],425.7626,427.7624,427.7625,427.7627,[],[],[],[],[],[],[],,427.7628,427.7629,0.302849015,-0.252309783,0,0,0,,0,84,84,6,1,4,RL,caleberia,cursive,caleberia_c.png,,,,,,
,,,,30098,001,2025-10-20_11h54.55.997,HW_LDT_1,2024.2.4,MacIntel,60.24096386,,,,,,,,,,,,,,,,,,,,427.7642,427.9614,427.9615,428.4624,,,,,,,,,,,,6.5367,0,,,,,,,,,,,,,,m,,,,,,,,,,,,,,,,,,86,0,428.463,435.0125,z,0,6.5367,,[],[],[],[],[],[],[],435.0125,437.0115,437.0115,437.0116,[],[],[],[],[],[],[],,437.0117,437.0118,0.302849015,-0.252309783,0,0,0,,0,85,85,97,1,4,word,COVERAGE,cursive,coverage_c.png,,,,,,
,,,,30098,001,2025-10-20_11h54.55.997,HW_LDT_1,2024.2.4,MacIntel,60.24096386,,,,,,,,,,,,,,,,,,,,437.0128,437.2118,437.2118,437.7123,,,,,,,,,,,,1.1532,0,,,,,,,,,,,,,,m,,,,,,,,,,,,,,,,,,87,0,437.7128,438.879,z,0,1.1532,,[],[],[],[],[],[],[],438.8791,440.879,440.879,440.8791,[],[],[],[],[],[],[],,440.8792,440.8793,0.302849015,-0.252309783,0,0,0,,0,86,86,126,1,4,word,OPTIMAL,print,optimal_p.png,,,,,,
,,,,30098,001,2025-10-20_11h54.55.997,HW_LDT_1,2024.2.4,MacIntel,60.24096386,,,,,,,,,,,,,,,,,,,,440.8805,441.0789,441.079,441.5782,,,,,,,,,,,,7.8656,0,,,,,,,,,,,,,,m,,,,,,,,,,,,,,,,,,88,0,441.5788,449.4455,z,0,7.8656,,[],[],[],[],[],[],[],449.4456,451.4455,451.4456,451.4457,[],[],[],[],[],[],[],,451.4457,451.4458,0.302849015,-0.251554008,0,0,0,,0,87,87,115,1,4,word,LOGICAL,print,logical_p.png,,,,,,
,,,,30098,001,2025-10-20_11h54.55.997,HW_LDT_1,2024.2.4,MacIntel,60.24096386,,,,,,,,,,,,,,,,,,,,451.447,451.6448,451.6449,452.1457,,,,,,,,,,,,4.1062,0,,,,,,,,,,,,,,m,,,,,,,,,,,,,,,,,,89,0,452.1463,456.2614,z,0,4.1062,,[],[],[],[],[],[],[],456.2615,458.2623,458.2623,458.2625,[],[],[],[],[],[],[],,458.2626,458.2627,0.302849015,-0.251554008,0,0,0,,0,88,88,121,1,4,word,MISTAKE,print,mistake_p.png,,,,,,
,,,,30098,001,2025-10-20_11h54.55.997,HW_LDT_1,2024.2.4,MacIntel,60.24096386,,,,,,,,,,,,,,,,,,,,458.264,458.4613,458.4613,458.9613,,,,,,,,,,,,2.4656,1,,,,,,,,,,,,,,z,,,,,,,,,,,,,,,,,,90,0,458.9618,461.4284,z,1,2.4656,,[],[],[],[],[],[],[],461.4284,463.4279,463.428,463.4282,[],[],[],[],[],[],[],,463.4282,463.4282,0.302590014,-0.252560292,0,0,0,,0,89,89,22,1,4,RL,linedal,cursive,linedal_c.png,,,,,,
,,,,30098,001,2025-10-20_11h54.55.997,HW_LDT_1,2024.2.4,MacIntel,60.24096386,,,,,,,,,,,,,,,,,,,,463.4292,463.6289,463.629,464.128,,,,,,,,,,,,2.8254,0,,,,,,,,,,,,,,m,,,,,,,,,,,,,,,,,,91,0,464.1285,466.9622,z,0,2.8254,,[],[],[],[],[],[],[],466.9622,468.9619,468.9619,468.9621,[],[],[],[],[],[],[],,468.9621,468.9622,0.302331012,-0.253069803,0,0,0,,0,90,90,87,1,4,word,CAFETERIA,cursive,cafeteria_c.png,,,,,,
,,,,30098,001,2025-10-20_11h54.55.997,HW_LDT_1,2024.2.4,MacIntel,60.24096386,,,,,,,,,,,,,,,,,,,,468.9628,469.1613,469.1613,469.662,,,,,,,,,,,,3.2527,1,,,,,,,,,,,,,,m,,,,,,,,,,,,,,,,,,92,0,469.6625,472.9288,m,1,3.2527,,[],[],[],[],[],[],[],472.9288,474.9288,474.9289,474.929,[],[],[],[],[],[],[],,474.929,474.9291,0.302331012,-0.252819293,0,0,0,,0,91,91,112,1,4,word,LIBERAL,cursive,liberal_c.png,,,,,,
,,,,30098,001,2025-10-20_11h54.55.997,HW_LDT_1,2024.2.4,MacIntel,60.24096386,,,,,,,,,,,,,,,,,,,,474.9304,475.1289,475.129,475.6287,,,,,,,,,,,,1.4688,0,,,,,,,,,,,,,,z,,,,,,,,,,,,,,,,,,93,0,475.6292,477.1111,m,0,1.4688,,[],[],[],[],[],[],[],477.1112,479.1114,479.1115,479.1117,[],[],[],[],[],[],[],,479.1118,479.112,0.302331012,-0.252016814,0,0,0,,0,92,92,14,1,4,RL,delahe,cursive,delahe_c.png,,,,,,
,,,,30098,001,2025-10-20_11h54.55.997,HW_LDT_1,2024.2.4,MacIntel,60.24096386,,,,,,,,,,,,,,,,,,,,479.1135,479.312,479.312,479.8112,,,,,,,,,,,,9.4156,0,,,,,,,,,,,,,,m,,,,,,,,,,,,,,,,,,94,0,479.8118,489.2282,z,0,9.4156,,[],[],[],[],[],[],[],489.2283,491.2287,491.2288,491.229,[],[],[],[],[],[],[],,491.229,491.2291,0.302331012,-0.252016814,0,0,0,,0,93,93,84,1,4,word,BELOVED,print,beloved_p.png,,,,,,
,,,,30098,001,2025-10-20_11h54.55.997,HW_LDT_1,2024.2.4,MacIntel,60.24096386,,,,,,,,,,,,,,,,,,,,491.2299,491.4288,491.4288,491.9287,,,,,,,,,,,,0.4583,0,,,,,,,,,,,,,,m,,,,,,,,,,,,,,,,,,95,0,491.9292,492.3954,z,0,0.4583,,[],[],[],[],[],[],[],492.3955,494.3954,494.3954,494.3956,[],[],[],[],[],[],[],,494.3957,494.3958,0.302331012,-0.252016814,0,0,0,,0,94,94,122,1,4,word,MOBILE,print,mobile_p.png,,,,,,
,,,,30098,001,2025-10-20_11h54.55.997,HW_LDT_1,2024.2.4,MacIntel,60.24096386,,,,,,,,,,,,,,,,,,,,494.397,494.5954,494.5955,495.0954,,,,,,,,,,,,0.8297,0,,,,,,,,,,,,,,z,,,,,,,,,,,,,,,,,,96,1,495.0961,495.9284,m,0,0.8297,,[],[],[],[],[],[],[],495.9284,497.9284,497.9284,501.7117,[],[],[],[],[],[],[],m,501.7118,501.7118,0.302331012,-0.247868546,0,0,0,,0,95,95,15,1,4,RL,debave,cursive,debave_c.png,3.7714,,,,,
,,,,30098,001,2025-10-20_11h54.55.997,HW_LDT_1,2024.2.4,MacIntel,60.24096386,,,,,,,,,,,,,,,,,,,,501.7124,501.9115,501.9115,502.412,,,,,,,,,,,,1.9974,1,,,,,,,,,,,,,,m,,,,,,,,,,,,,,,,,,97,0,502.4124,504.4112,m,1,1.9974,,[],[],[],[],[],[],[],504.4113,506.4119,506.4119,506.4122,[],[],[],[],[],[],[],,506.4122,506.4122,0.302331012,-0.247613791,0,0,0,,0,96,96,80,1,4,word,ACADEMY,print,academy_p.png,,,,,,
,,,,30098,001,2025-10-20_11h54.55.997,HW_LDT_1,2024.2.4,MacIntel,60.24096386,,,,,,,,,,,,,,,,,,,,506.4135,506.612,506.6121,507.1119,,,,,,,,,,,,3.2516,0,,,,,,,,,,,,,,z,,,,,,,,,,,,,,,,,,98,1,507.1124,510.3783,m,0,3.2516,,[],[],[],[],[],[],[],510.3784,512.3786,512.3786,516.9786,[],[],[],[],[],[],[],m,516.9786,516.9787,0.302331012,-0.246293308,0,0,0,,0,97,97,42,1,4,RL,revune,print,revune_p.png,4.5918,,,,,
,,,,30098,001,2025-10-20_11h54.55.997,HW_LDT_1,2024.2.4,MacIntel,60.24096386,,,,,,,,,,,,,,,,,,,,516.9793,517.1784,517.1784,517.6785,,,,,,,,,,,,18.5016,1,,,,,,,,,,,,,,m,,,,,,,,,,,,,,,,,,99,0,517.679,536.1949,m,1,18.5016,,[],[],[],[],[],[],[],536.1949,538.1946,538.1947,538.1948,[],[],[],[],[],[],[],,538.1948,538.195,0.302331012,-0.245495075,0,0,0,,0,98,98,108,1,4,word,FORTUNE,cursive,fortune_c.png,,,,,,
,,,,30098,001,2025-10-20_11h54.55.997,HW_LDT_1,2024.2.4,MacIntel,60.24096386,,,,,,,,,,,,,,,,,,,,538.196,538.3951,538.3952,538.895,,,,,,,,,,,,3.6951,1,,,,,,,,,,,,,,m,,,,,,,,,,,,,,,,,,100,0,538.8956,542.5948,m,1,3.6951,,[],[],[],[],[],[],[],542.5948,544.5951,544.5952,544.5954,[],[],[],[],[],[],[],,544.5954,544.5955,0.302076257,-0.244446332,0,0,0,,0,99,99,96,1,4,word,CONSIDER,cursive,consider_c.png,,,,,,
,,,,30098,001,2025-10-20_11h54.55.997,HW_LDT_1,2024.2.4,MacIntel,60.24096386,,,,,,,,,,,,,,,,,,,,544.5969,544.7947,544.7947,545.2947,,,,,,,,,,,,6.9976,1,,,,,,,,,,,,,,m,,,,,,,,,,,,,,,,,,101,0,545.2951,552.2946,m,1,6.9976,,[],[],[],[],[],[],[],552.2947,554.295,554.295,554.2953,[],[],[],[],[],[],[],,554.2954,554.2955,0.302849015,-0.243669327,0,0,0,,0,100,100,119,1,4,word,MEMORY,print,memory_p.png,,,,,,
,,,,30098,001,2025-10-20_11h54.55.997,HW_LDT_1,2024.2.4,MacIntel,60.24096386,,,,,,,,,,,,,,,,,,,,554.2968,554.4949,554.4949,554.995,,,,,,,,,,,,0.6971,0,,,,,,,,,,,,,,z,,,,,,,,,,,,,,,,,,102,0,554.9956,555.6949,m,0,0.6971,,[],[],[],[],[],[],[],555.6949,557.6949,557.695,557.6951,[],[],[],[],[],[],[],,557.6951,557.6952,0.302849015,-0.243418818,0,0,0,,0,101,101,38,1,4,RL,refakive,print,refakive_p.png,,,,,,
,,,,30098,001,2025-10-20_11h54.55.997,HW_LDT_1,2024.2.4,MacIntel,60.24096386,,,,,,,,,,,,,,,,,,,,557.6964,557.8947,557.8948,558.395,,,,,,,,,,,,0.5136,0,,,,,,,,,,,,,,z,,,,,,,,,,,,,,,,,,103,0,558.3957,558.9114,m,0,0.5136,,[],[],[],[],[],[],[],558.9114,560.9116,560.9116,560.9118,[],[],[],[],[],[],[],,560.9118,560.9119,0.303388247,-0.241826596,0,0,0,,0,102,102,45,1,4,RL,spetisic,cursive,spetisic_c.png,,,,,,
,,,,30098,001,2025-10-20_11h54.55.997,HW_LDT_1,2024.2.4,MacIntel,60.24096386,,,,,,,,,,,,,,,,,,,,560.9131,561.1116,561.1117,561.6117,,,,,,,,,,,,1.889,1,,,,,,,,,,,,,,m,,,,,,,,,,,,,,,,,,104,1,561.6121,563.5116,m,1,1.889,,[],[],[],[],[],[],[],563.5117,565.5116,565.5116,567.3446,[],[],[],[],[],[],[],m,567.3446,567.3447,0.301838485,-0.239971128,0,0,0,,0,103,103,120,1,4,word,MILITARY,print,military_p.png,1.8293,,,,,
,,,,30098,001,2025-10-20_11h54.55.997,HW_LDT_1,2024.2.4,MacIntel,60.24096386,,,,,,,,,,,,,,,,,,,,567.3453,567.5445,567.5445,568.0446,,,,,,,,,,,,6.7613,0,,,,,,,,,,,,,,z,,,,,,,,,,,,,,,,,,105,0,568.045,574.8113,m,0,6.7613,,[],[],[],[],[],[],[],574.8113,576.8113,576.8113,576.8115,[],[],[],[],[],[],[],,576.8115,576.8115,0.296182914,-0.244225543,0,0,0,,0,104,104,18,1,4,RL,disluge,print,disluge_p.png,,,,,,
,,,,30098,001,2025-10-20_11h54.55.997,HW_LDT_1,2024.2.4,MacIntel,60.24096386,,,,,,,,,,,,,,,,,,,,576.8123,577.0114,577.0114,577.5115,,,,,,,,,,,,4.6907,1,,,,,,,,,,,,,,m,,,,,,,,,,,,,,,,,,106,0,577.5119,582.2112,m,1,4.6907,,[],[],[],[],[],[],[],582.2112,584.2115,584.2116,584.2117,[],[],[],[],[],[],[],,584.2118,584.2119,0.305056895,-0.23724949,0,0,0,,0,105,105,81,1,4,word,ADVISORY,cursive,advisory_c.png,,,,,,
,,,,30098,001,2025-10-20_11h54.55.997,HW_LDT_1,2024.2.4,MacIntel,60.24096386,,,,,,,,,,,,,,,,,,,,584.2135,584.4113,584.4114,584.9114,,,,,,,,,,,,0.7356,0,,,,,,,,,,,,,,z,,,,,,,,,,,,,,,,,,107,0,584.9122,585.6613,m,0,0.7356,,[],[],[],[],[],[],[],585.6613,587.6614,587.6614,587.6617,[],[],[],[],[],[],[],,587.6617,587.6618,0.30480214,-0.236459749,0,0,0,,0,106,106,78,1,4,TL,stragety,print,stragety_p.png,,,,,,
,,,,30098,001,2025-10-20_11h54.55.997,HW_LDT_1,2024.2.4,MacIntel,60.24096386,,,,,,,,,,,,,,,,,,,,587.6631,587.8615,587.8616,588.3615,,,,,,,,,,,,2.4482,1,,,,,,,,,,,,,,m,,,,,,,,,,,,,,,,,,108,1,588.3623,590.8114,m,1,2.4482,,[],[],[],[],[],[],[],590.8114,592.8116,592.8116,594.3111,[],[],[],[],[],[],[],m,594.3111,594.3112,0.306360394,-0.234909986,0,0,0,,0,107,107,134,1,4,word,QUALIFY,print,qualify_p.png,1.4967,,,,,
,,,,30098,001,2025-10-20_11h54.55.997,HW_LDT_1,2024.2.4,MacIntel,60.24096386,,,,,,,,,,,,,,,,,,,,594.3118,594.5113,594.5114,595.0106,,,,,,,,,,,,1.3206,1,,,,,,,,,,,,,,m,,,,,,,,,,,,,,,,,,109,0,595.011,596.3447,m,1,1.3206,,[],[],[],[],[],[],[],596.3448,598.3444,598.3444,598.3444,[],[],[],[],[],[],[],,598.3444,598.3445,0.306360394,-0.234115999,0,0,0,,0,108,108,144,1,4,word,RESIDENT,cursive,resident_c.png,,,,,,
,,,,30098,001,2025-10-20_11h54.55.997,HW_LDT_1,2024.2.4,MacIntel,60.24096386,,,,,,,,,,,,,,,,,,,,598.3451,598.5448,598.5448,599.0446,,,,,,,,,,,,0.4404,0,,,,,,,,,,,,,,z,,,,,,,,,,,,,,,,,,110,0,599.0453,599.4947,m,0,0.4404,,[],[],[],[],[],[],[],599.4948,601.4945,601.4946,601.4947,[],[],[],[],[],[],[],,601.4947,601.4948,0.306360394,-0.233606488,0,0,0,,0,109,109,73,1,4,TL,regilion,print,regilion_p.png,,,,,,
,,,,30098,001,2025-10-20_11h54.55.997,HW_LDT_1,2024.2.4,MacIntel,60.24096386,,,,,,,,,,,,,,,,,,,,601.496,601.6947,601.6948,602.1947,,,,,,,,,,,,0.918,1,,,,,,,,,,,,,,m,,,,,,,,,,,,,,,,,,111,0,602.1951,603.1279,m,1,0.918,,[],[],[],[],[],[],[],603.1279,605.1281,605.1281,605.1283,[],[],[],[],[],[],[],,605.1283,605.1284,0.306360394,-0.23283373,0,0,0,,0,110,110,113,1,4,word,LITERAL,cursive,literal_c.png,,,,,,
,,,,30098,001,2025-10-20_11h54.55.997,HW_LDT_1,2024.2.4,MacIntel,60.24096386,,,,,,,,,,,,,,,,,,,,605.1298,605.328,605.328,605.828,,,,,,,,,,,,0.1462,1,,,,,,,,,,,,,,m,,,,,,,,,,,,,,,,,,112,0,605.8285,605.9778,m,1,0.1462,,[],[],[],[],[],[],[],605.9778,607.9779,607.9779,607.9781,[],[],[],[],[],[],[],,607.9781,607.9783,0.306360394,-0.232324219,0,0,0,,0,111,111,104,1,4,word,DOMINANT,cursive,dominant_c.png,,,,,,
,,,,30098,001,2025-10-20_11h54.55.997,HW_LDT_1,2024.2.4,MacIntel,60.24096386,,,,,,,,,,,,,,,,,,,,607.9795,608.1779,608.178,608.6779,,,,,,,,,,,,3.015,0,,,,,,,,,,,,,,z,,,,,,,,,,,,,,,,,,113,0,608.6784,611.6943,m,0,3.015,,[],[],[],[],[],[],[],611.6944,613.6945,613.6947,613.6948,[],[],[],[],[],[],[],,613.6949,613.6951,0.306360394,-0.231818954,0,0,0,,0,112,112,72,1,4,TL,relugar,cursive,relugar_c.png,,,,,,
,,,,30098,001,2025-10-20_11h54.55.997,HW_LDT_1,2024.2.4,MacIntel,60.24096386,,,,,,,,,,,,,,,,,,,,613.6965,613.8946,613.8946,614.3945,,,,,,,,,,,,0.421,0,,,,,,,,,,,,,,m,,,,,,,,,,,,,,,,,,114,0,614.395,614.8277,z,0,0.421,,[],[],[],[],[],[],[],614.8277,616.8278,616.8278,616.828,[],[],[],[],[],[],[],,616.8281,616.8282,0.306360394,-0.231818954,0,0,0,,0,113,113,124,1,4,word,NUMERICAL,cursive,numerical_c.png,,,,,,
,,,,30098,001,2025-10-20_11h54.55.997,HW_LDT_1,2024.2.4,MacIntel,60.24096386,,,,,,,,,,,,,,,,,,,,616.8294,617.0279,617.028,617.5269,,,,,,,,,,,,0.5167,0,,,,,,,,,,,,,,m,,,,,,,,,,,,,,,,,,115,0,617.5273,618.045,z,0,0.5167,,[],[],[],[],[],[],[],618.0451,620.0436,620.0436,620.0437,[],[],[],[],[],[],[],,620.0438,620.0439,0.306360394,-0.231818954,0,0,0,,0,114,114,101,1,4,word,DELICATE,cursive,delicate_c.png,,,,,,
,,,,30098,001,2025-10-20_11h54.55.997,HW_LDT_1,2024.2.4,MacIntel,60.24096386,,,,,,,,,,,,,,,,,,,,620.0451,620.2435,620.2436,620.7445,,,,,,,,,,,,1.17,1,,,,,,,,,,,,,,z,,,,,,,,,,,,,,,,,,116,0,620.745,621.9268,z,1,1.17,,[],[],[],[],[],[],[],621.9268,623.9277,623.9278,623.9279,[],[],[],[],[],[],[],,623.928,623.928,0.306360394,-0.231818954,0,0,0,,0,115,115,12,1,4,RL,conbicer,cursive,conbicer_c.png,,,,,,
,,,,30098,001,2025-10-20_11h54.55.997,HW_LDT_1,2024.2.4,MacIntel,60.24096386,,,,,,,,,,,,,,,,,,,,623.929,624.128,624.128,624.6278,,,,,,,,,,,,1.1353,1,,,,,,,,,,,,,,m,,,,,,,,,,,,,,,,,,117,0,624.6284,625.7776,m,1,1.1353,,[],[],[],[],[],[],[],625.7776,627.7768,627.7768,627.777,[],[],[],[],[],[],[],,627.777,627.777,0.306360394,-0.231818954,0,0,0,,0,116,116,149,1,4,word,SENATOR,print,senator_p.png,,,,,,
,,,,30098,001,2025-10-20_11h54.55.997,HW_LDT_1,2024.2.4,MacIntel,60.24096386,,,,,,,,,,,,,,,,,,,,627.7779,627.9778,627.9779,628.4768,,,,,,,,,,,,1.6978,0,,,,,,,,,,,,,,z,,,,,,,,,,,,,,,,,,118,0,628.4773,630.1766,m,0,1.6978,,[],[],[],[],[],[],[],630.1766,632.1775,632.1775,632.1777,[],[],[],[],[],[],[],,632.1777,632.1778,0.306360394,-0.230545177,0,0,0,,0,117,117,49,1,4,RL,vesofity,cursive,vesofity_c.png,,,,,,
,,,,30098,001,2025-10-20_11h54.55.997,HW_LDT_1,2024.2.4,MacIntel,60.24096386,,,,,,,,,,,,,,,,,,,,632.1786,632.3777,632.3778,632.8778,,,,,,,,,,,,4.4038,1,,,,,,,,,,,,,,m,,,,,,,,,,,,,,,,,,119,0,632.8781,637.2932,m,1,4.4038,,[],[],[],[],[],[],[],637.2933,639.2945,639.2945,639.2947,[],[],[],[],[],[],[],,639.2948,639.2949,0.306360394,-0.229487942,0,0,0,,0,118,118,117,1,4,word,MARINE,print,marine_p.png,,,,,,
,,,,30098,001,2025-10-20_11h54.55.997,HW_LDT_1,2024.2.4,MacIntel,60.24096386,,,,,,,,,,,,,,,,,,,,639.2962,639.4939,639.4939,639.9939,,,,,,,,,,,,0.9422,1,,,,,,,,,,,,,,m,,,,,,,,,,,,,,,,,,120,0,639.9941,640.9434,m,1,0.9422,,[],[],[],[],[],[],[],640.9435,642.9442,642.9442,642.9443,[],[],[],[],[],[],[],,642.9443,642.9443,0.306360394,-0.229487942,0,0,0,,0,119,119,147,1,4,word,ROMANTIC,print,romantic_p.png,,,,,,
,,,,30098,001,2025-10-20_11h54.55.997,HW_LDT_1,2024.2.4,MacIntel,60.24096386,,,,,,,,,,,,,,,,,,,,642.9451,643.1444,643.1444,643.6436,,,,,,,,,,,,1.9053,0,,,,,,,,,,,,,,z,,,,,,,,,,,,,,,,,,121,1,643.644,645.56,m,0,1.9053,,[],[],[],[],[],[],[],645.56,647.561,647.561,649.4109,[],[],[],[],[],[],[],m,649.411,649.411,0.304521909,-0.230519701,0,0,0,,0,120,120,56,1,4,TL,donimant,cursive,donimant_c.png,1.8407,,,,,
,,,,30098,001,2025-10-20_11h54.55.997,HW_LDT_1,2024.2.4,MacIntel,60.24096386,,,,,,,,,,,,,,,,,,,,649.4115,649.6107,649.6107,650.111,,,,,,,,,,,,4.0644,1,,,,,,,,,,,,,,m,,,,,,,,,,,,,,,,,,122,0,650.1114,654.1766,m,1,4.0644,,[],[],[],[],[],[],[],654.1766,656.1776,656.1776,656.1779,[],[],[],[],[],[],[],,656.1779,656.1781,0.304012398,-0.230545177,0,0,0,,0,121,121,127,1,4,word,ORIGINAL,print,original_p.png,,,,,,
,,,,30098,001,2025-10-20_11h54.55.997,HW_LDT_1,2024.2.4,MacIntel,60.24096386,,,,,,,,,,,,,,,,,,,,656.1795,656.3776,656.3777,656.8776,,,,,,,,,,,,0.5871,1,,,,,,,,,,,,,,m,,,,,,,,,,,,,,,,,,123,1,656.8782,657.4772,m,1,0.5871,,[],[],[],[],[],[],[],657.4773,659.477,659.4771,660.9099,[],[],[],[],[],[],[],m,660.9099,660.91,0.304012398,-0.229789402,0,0,0,,0,122,122,154,1,4,word,STORAGE,print,storage_p.png,1.4208,,,,,
,,,,30098,001,2025-10-20_11h54.55.997,HW_LDT_1,2024.2.4,MacIntel,60.24096386,,,,,,,,,,,,,,,,,,,,660.9106,661.1099,661.11,661.6109,,,,,,,,,,,,7.9626,0,,,,,,,,,,,,,,z,,,,,,,,,,,,,,,,,,124,0,661.6115,669.5773,m,0,7.9626,,[],[],[],[],[],[],[],669.5773,671.5776,671.5776,671.5778,[],[],[],[],[],[],[],,671.5778,671.5779,0.304012398,-0.229275645,0,0,0,,0,123,123,52,1,4,TL,cagetory,cursive,cagetory_c.png,,,,,,
,,,,30098,001,2025-10-20_11h54.55.997,HW_LDT_1,2024.2.4,MacIntel,60.24096386,,,,,,,,,,,,,,,,,,,,671.5793,671.7775,671.7775,672.2774,,,,,,,,,,,,0.536,0,,,,,,,,,,,,,,z,,,,,,,,,,,,,,,,,,125,1,672.278,672.8275,m,0,0.536,,[],[],[],[],[],[],[],672.8276,674.8273,674.8273,677.6106,[],[],[],[],[],[],[],m,677.6106,677.6107,0.304012398,-0.22826087,0,0,0,,0,124,124,51,1,4,TL,adsivory,cursive,adsivory_c.png,2.7745,,,,,
,,,,30098,001,2025-10-20_11h54.55.997,HW_LDT_1,2024.2.4,MacIntel,60.24096386,,,,,,,,,,,,,,,,,,,,677.6116,677.8106,677.8106,678.3099,,,,,,,,,,,,2.6214,0,,,,,,,,,,,,,,z,,,,,,,,,,,,,,,,,,126,0,678.3105,680.944,m,0,2.6214,,[],[],[],[],[],[],[],680.944,682.9432,682.9432,682.9434,[],[],[],[],[],[],[],,682.9434,682.9436,0.303757643,-0.231322181,0,0,0,,0,125,125,25,1,4,RL,macise,print,macise_p.png,,,,,,
,,,,30098,001,2025-10-20_11h54.55.997,HW_LDT_1,2024.2.4,MacIntel,60.24096386,,,,,,,,,,,,,,,,,,,,682.9447,683.1441,683.1442,683.6441,,,,,,,,,,,,0.1822,1,,,,,,,,,,,,,,z,,,,,,,,,,,,,,,,,,127,0,683.6447,683.828,z,1,0.1822,,[],[],[],[],[],[],[],683.828,685.8264,685.8265,685.8267,[],[],[],[],[],[],[],,685.8268,685.8268,0.303502887,-0.231067425,0,0,0,,0,126,126,16,1,4,RL,desifate,cursive,desifate_c.png,,,,,,
,,,,30098,001,2025-10-20_11h54.55.997,HW_LDT_1,2024.2.4,MacIntel,60.24096386,,,,,,,,,,,,,,,,,,,,685.828,686.0275,686.0276,686.5275,,,,,,,,,,,,0.5308,0,,,,,,,,,,,,,,m,,,,,,,,,,,,,,,,,,128,0,686.5281,687.0603,z,0,0.5308,,[],[],[],[],[],[],[],687.0603,689.0604,689.0605,689.0607,[],[],[],[],[],[],[],,689.0607,689.0608,0.303248132,-0.231067425,0,0,0,,0,127,127,150,1,4,word,SENTIMENT,print,sentiment_p.png,,,,,,
,,,,30098,001,2025-10-20_11h54.55.997,HW_LDT_1,2024.2.4,MacIntel,60.24096386,,,,,,,,,,,,,,,,,,,,689.0619,689.2608,689.2609,689.7599,,,,,,,,,,,,2.2697,1,,,,,,,,,,,,,,m,,,,,,,,,,,,,,,,,,129,0,689.7604,692.0438,m,1,2.2697,,[],[],[],[],[],[],[],692.0439,694.0431,694.0432,694.0434,[],[],[],[],[],[],[],,694.0434,694.0435,0.303248132,-0.230557914,0,0,0,,0,128,128,90,1,4,word,CAPITAL,print,capital_p.png,,,,,,
,,,,30098,001,2025-10-20_11h54.55.997,HW_LDT_1,2024.2.4,MacIntel,60.24096386,,,,,,,,,,,,,,,,,,,,694.0446,694.2441,694.2441,694.7432,,,,,,,,,,,,2.1154,1,,,,,,,,,,,,,,m,,,,,,,,,,,,,,,,,,130,0,694.7436,696.8604,m,1,2.1154,,[],[],[],[],[],[],[],696.8604,698.8607,698.8608,698.8609,[],[],[],[],[],[],[],,698.861,698.861,0.302488111,-0.229772418,0,0,0,,0,129,129,125,1,4,word,OPERATOR,print,operator_p.png,,,,,,
,,,,30098,001,2025-10-20_11h54.55.997,HW_LDT_1,2024.2.4,MacIntel,60.24096386,,,,,,,,,,,,,,,,,,,,698.862,699.0607,699.0607,699.5595,,,,,,,,,,,,3.7256,0,,,,,,,,,,,,,,z,,,,,,,,,,,,,,,,,,131,0,699.5599,703.2938,m,0,3.7256,,[],[],[],[],[],[],[],703.2939,705.2939,705.2939,705.2941,[],[],[],[],[],[],[],,705.2943,705.2943,0.302488111,-0.229521909,0,0,0,,0,130,130,2,1,4,RL,asiral,cursive,asiral_c.png,,,,,,
,,,,30098,001,2025-10-20_11h54.55.997,HW_LDT_1,2024.2.4,MacIntel,60.24096386,,,,,,,,,,,,,,,,,,,,705.2954,705.4938,705.4939,705.994,,,,,,,,,,,,2.497,0,,,,,,,,,,,,,,z,,,,,,,,,,,,,,,,,,132,0,705.9947,708.4927,m,0,2.497,,[],[],[],[],[],[],[],708.4927,710.494,710.494,710.4942,[],[],[],[],[],[],[],,710.4943,710.4945,0.302488111,-0.22798913,0,0,0,,0,131,131,1,1,4,RL,afaneur,cursive,afaneur_c.png,,,,,,
,,,,30098,001,2025-10-20_11h54.55.997,HW_LDT_1,2024.2.4,MacIntel,60.24096386,,,,,,,,,,,,,,,,,,,,710.4959,710.694,710.694,711.194,,,,,,,,,,,,1.2453,0,,,,,,,,,,,,,,z,,,,,,,,,,,,,,,,,,133,1,711.1946,712.4436,m,0,1.2453,,[],[],[],[],[],[],[],712.4437,714.4439,714.444,715.9936,[],[],[],[],[],[],[],m,715.9936,715.9937,0.302488111,-0.225675102,0,0,0,,0,132,132,46,1,4,RL,skofen,cursive,skofen_c.png,1.544,,,,,
,,,,30098,001,2025-10-20_11h54.55.997,HW_LDT_1,2024.2.4,MacIntel,60.24096386,,,,,,,,,,,,,,,,,,,,715.9941,716.1938,716.1939,716.6938,,,,,,,,,,,,4.4107,1,,,,,,,,,,,,,,m,,,,,,,,,,,,,,,,,,134,1,716.6943,721.1103,m,1,4.4107,,[],[],[],[],[],[],[],721.1104,723.1104,723.1105,724.0269,[],[],[],[],[],[],[],m,724.027,724.0271,0.302488111,-0.224915082,0,0,0,,0,133,133,159,1,4,word,VETERAN,cursive,veteran_c.png,0.9138,,,,,
,,,,30098,001,2025-10-20_11h54.55.997,HW_LDT_1,2024.2.4,MacIntel,60.24096386,,,,,,,,,,,,,,,,,,,,724.0278,724.2261,724.2261,724.7271,,,,,,,,,,,,5.3519,0,,,,,,,,,,,,,,z,,,,,,,,,,,,,,,,,,135,1,724.7276,730.0936,m,0,5.3519,,[],[],[],[],[],[],[],730.0936,732.0938,732.0938,734.4103,[],[],[],[],[],[],[],m,734.4104,734.4105,0.301978601,-0.224155061,0,0,0,,0,134,134,7,1,4,RL,casena,print,casena_p.png,2.3162,,,,,
,,,,30098,001,2025-10-20_11h54.55.997,HW_LDT_1,2024.2.4,MacIntel,60.24096386,,,,,,,,,,,,,,,,,,,,734.4111,734.6103,734.6103,735.1104,,,,,,,,,,,,1.3153,0,,,,,,,,,,,,,,z,,,,,,,,,,,,,,,,,,136,0,735.1108,736.4268,m,0,1.3153,,[],[],[],[],[],[],[],736.4269,738.4271,738.4272,738.4273,[],[],[],[],[],[],[],,738.4273,738.4274,0.301978601,-0.223637058,0,0,0,,0,135,135,41,1,4,RL,rebicent,cursive,rebicent_c.png,,,,,,
,,,,30098,001,2025-10-20_11h54.55.997,HW_LDT_1,2024.2.4,MacIntel,60.24096386,,,,,,,,,,,,,,,,,,,,738.4287,738.627,738.6271,739.1269,,,,,,,,,,,,2.3063,0,,,,,,,,,,,,,,z,,,,,,,,,,,,,,,,,,137,0,739.1271,741.4435,m,0,2.3063,,[],[],[],[],[],[],[],741.4436,743.4436,743.4437,743.4439,[],[],[],[],[],[],[],,743.4439,743.444,0.301978601,-0.223386549,0,0,0,,0,136,136,29,1,4,RL,motide,print,motide_p.png,,,,,,
,,,,30098,001,2025-10-20_11h54.55.997,HW_LDT_1,2024.2.4,MacIntel,60.24096386,,,,,,,,,,,,,,,,,,,,743.4453,743.6437,743.6438,744.1437,,,,,,,,,,,,4.763,0,,,,,,,,,,,,,,z,,,,,,,,,,,,,,,,,,138,0,744.1441,748.9101,m,0,4.763,,[],[],[],[],[],[],[],748.9101,750.9102,750.9103,750.9104,[],[],[],[],[],[],[],,750.9105,750.9105,0.301978601,-0.222868546,0,0,0,,0,137,137,62,1,4,TL,locigal,print,locigal_p.png,,,,,,
,,,,30098,001,2025-10-20_11h54.55.997,HW_LDT_1,2024.2.4,MacIntel,60.24096386,,,,,,,,,,,,,,,,,,,,750.9115,751.1106,751.1107,751.6092,,,,,,,,,,,,0.2464,0,,,,,,,,,,,,,,z,,,,,,,,,,,,,,,,,,139,0,751.6094,751.8599,m,0,0.2464,,[],[],[],[],[],[],[],751.8599,753.8603,753.8603,753.8604,[],[],[],[],[],[],[],,753.8604,753.8606,0.316983696,-0.208513077,0,0,0,,0,138,138,61,1,4,TL,lotace,cursive,lotace_c.png,,,,,,
,,,,30098,001,2025-10-20_11h54.55.997,HW_LDT_1,2024.2.4,MacIntel,60.24096386,,,,,,,,,,,,,,,,,,,,753.8618,754.0603,754.0603,754.5603,,,,,,,,,,,,0.7047,0,,,,,,,,,,,,,,z,,,,,,,,,,,,,,,,,,140,0,754.5609,755.277,m,0,0.7047,,[],[],[],[],[],[],[],755.277,757.277,757.277,757.2771,[],[],[],[],[],[],[],,757.2771,757.2773,0.316983696,-0.208003567,0,0,0,,0,139,139,44,1,4,RL,senvilent,print,senvilent_p.png,,,,,,
,,,,30098,001,2025-10-20_11h54.55.997,HW_LDT_1,2024.2.4,MacIntel,60.24096386,,,,,,,,,,,,,,,,,,,,757.2786,757.4769,757.4769,757.9767,,,,,,,,,,,,0.7396,1,,,,,,,,,,,,,,m,,,,,,,,,,,,,,,,,,141,0,757.9771,758.7269,m,1,0.7396,,[],[],[],[],[],[],[],758.7269,760.727,760.727,760.7271,[],[],[],[],[],[],[],,760.7271,760.7272,0.31672894,-0.207748811,0,0,0,,0,140,140,92,1,4,word,CATEGORY,cursive,category_c.png,,,,,,
,,,,30098,001,2025-10-20_11h54.55.997,HW_LDT_1,2024.2.4,MacIntel,60.24096386,,,,,,,,,,,,,,,,,,,,760.7284,760.9268,760.9269,761.4259,,,,,,,,,,,,2.3134,0,,,,,,,,,,,,,,z,,,,,,,,,,,,,,,,,,142,1,761.4262,763.7426,m,0,2.3134,,[],[],[],[],[],[],[],763.7426,765.7427,765.7427,767.16,[],[],[],[],[],[],[],m,767.16,767.1601,0.318605639,-0.206390115,0,0,0,,0,141,141,60,1,4,TL,hetirage,print,hetirage_p.png,1.4145,,,,,
,,,,30098,001,2025-10-20_11h54.55.997,HW_LDT_1,2024.2.4,MacIntel,60.24096386,,,,,,,,,,,,,,,,,,,,767.1606,767.36,767.3601,767.8601,,,,,,,,,,,,1.8142,0,,,,,,,,,,,,,,m,,,,,,,,,,,,,,,,,,143,0,767.8608,769.6768,z,0,1.8142,,[],[],[],[],[],[],[],769.6769,771.6769,771.6769,771.677,[],[],[],[],[],[],[],,771.6772,771.6773,0.320673404,-0.201307745,0,0,0,,0,142,142,114,1,4,word,LOCATE,cursive,locate_c.png,,,,,,
,,,,30098,001,2025-10-20_11h54.55.997,HW_LDT_1,2024.2.4,MacIntel,60.24096386,,,,,,,,,,,,,,,,,,,,771.6785,771.8768,771.8768,772.3769,,,,,,,,,,,,1.7716,0,,,,,,,,,,,,,,z,,,,,,,,,,,,,,,,,,144,1,772.3774,774.16,m,0,1.7716,,[],[],[],[],[],[],[],774.1601,776.1596,776.1597,776.6769,[],[],[],[],[],[],[],m,776.6769,776.677,0.326931895,-0.194543988,0,0,0,,0,143,143,0,1,4,RL,abanemy,print,abanemy_p.png,0.504,,,,,
,,,,30098,001,2025-10-20_11h54.55.997,HW_LDT_1,2024.2.4,MacIntel,60.24096386,,,,,,,,,,,,,,,,,,,,776.6775,776.8767,776.8768,777.3765,,,,,,,,,,,,2.0152,0,,,,,,,,,,,,,,m,,,,,,,,,,,,,,,,,,145,0,777.3768,779.3933,z,0,2.0152,,[],[],[],[],[],[],[],779.3934,781.3931,781.3932,781.3933,[],[],[],[],[],[],[],,781.3934,781.3934,0.326388417,-0.196879246,0,0,0,,0,144,144,128,1,4,word,PACIFIC,cursive,pacific_c.png,,,,,,
,,,,30098,001,2025-10-20_11h54.55.997,HW_LDT_1,2024.2.4,MacIntel,60.24096386,,,,,,,,,,,,,,,,,,,,781.3947,781.5935,781.5935,782.0934,,,,,,,,,,,,0.6796,0,,,,,,,,,,,,,,m,,,,,,,,,,,,,,,,,,146,0,782.094,782.7766,z,0,0.6796,,[],[],[],[],[],[],[],782.7766,784.7769,784.7769,784.777,[],[],[],[],[],[],[],,784.7771,784.7772,0.326388417,-0.196879246,0,0,0,,0,145,145,107,1,4,word,EVIDENT,print,evident_p.png,,,,,,
,,,,30098,001,2025-10-20_11h54.55.997,HW_LDT_1,2024.2.4,MacIntel,60.24096386,,,,,,,,,,,,,,,,,,,,784.7786,784.9768,784.9769,785.4768,,,,,,,,,,,,0.615,0,,,,,,,,,,,,,,m,,,,,,,,,,,,,,,,,,147,0,785.4773,786.0931,z,0,0.615,,[],[],[],[],[],[],[],786.0932,788.0934,788.0935,788.0936,[],[],[],[],[],[],[],,788.0937,788.0937,0.326388417,-0.196879246,0,0,0,,0,146,146,93,1,4,word,CEREMONY,print,ceremony_p.png,,,,,,
,,,,30098,001,2025-10-20_11h54.55.997,HW_LDT_1,2024.2.4,MacIntel,60.24096386,,,,,,,,,,,,,,,,,,,,788.0951,788.2934,788.2935,788.7934,,,,,,,,,,,,2.9142,0,,,,,,,,,,,,,,m,,,,,,,,,,,,,,,,,,148,0,788.7939,791.71,z,0,2.9142,,[],[],[],[],[],[],[],791.7101,793.7098,793.7098,793.7099,[],[],[],[],[],[],[],,793.71,793.7101,0.326388417,-0.196879246,0,0,0,,0,147,147,88,1,4,word,CAMERA,print,camera_p.png,,,,,,
,,,,30098,001,2025-10-20_11h54.55.997,HW_LDT_1,2024.2.4,MacIntel,60.24096386,,,,,,,,,,,,,,,,,,,,793.7113,793.9091,793.9092,794.4098,,,,,,,,,,,,0.5042,0,,,,,,,,,,,,,,m,,,,,,,,,,,,,,,,,,149,0,794.4104,794.9265,z,0,0.5042,,[],[],[],[],[],[],[],794.9265,796.9266,796.9266,796.9269,[],[],[],[],[],[],[],,796.9269,796.9271,0.326388417,-0.196879246,0,0,0,,0,148,148,99,1,4,word,DEBATE,cursive,debate_c.png,,,,,,
,,,,30098,001,2025-10-20_11h54.55.997,HW_LDT_1,2024.2.4,MacIntel,60.24096386,,,,,,,,,,,,,,,,,,,,796.9283,797.1268,797.1268,797.6267,,,,,,,,,,,,9.8565,0,,,,,,,,,,,,,,m,,,,,,,,,,,,,,,,,,150,0,797.6273,807.4932,z,0,9.8565,,[],[],[],[],[],[],[],807.4932,809.4934,809.4934,809.4936,[],[],[],[],[],[],[],,809.4936,809.4937,0.326388417,-0.196879246,0,0,0,,0,149,149,98,1,4,word,CRIMINAL,cursive,criminal_c.png,,,,,,
,,,,30098,001,2025-10-20_11h54.55.997,HW_LDT_1,2024.2.4,MacIntel,60.24096386,,,,,,,,,,,,,,,,,,,,809.4949,809.6933,809.6933,810.1933,,,,,,,,,,,,5.4697,1,,,,,,,,,,,,,,z,,,,,,,,,,,,,,,,,,151,0,810.1938,815.6766,z,1,5.4697,,[],[],[],[],[],[],[],815.6766,817.6767,817.6768,817.677,[],[],[],[],[],[],[],,817.6771,817.6773,0.326388417,-0.196879246,0,0,0,,0,150,150,10,1,4,RL,carminal,cursive,carminal_c.png,,,,,,
,,,,30098,001,2025-10-20_11h54.55.997,HW_LDT_1,2024.2.4,MacIntel,60.24096386,,,,,,,,,,,,,,,,,,,,817.6785,817.8767,817.8767,818.3766,,,,,,,,,,,,4.0845,1,,,,,,,,,,,,,,m,,,,,,,,,,,,,,,,,,152,0,818.3773,822.4763,m,1,4.0845,,[],[],[],[],[],[],[],822.4763,824.4766,824.4767,824.4768,[],[],[],[],[],[],[],,824.4769,824.477,0.326163383,-0.195486583,0,0,0,,0,151,151,146,1,4,word,RETIRE,print,retire_p.png,,,,,,
,,,,30098,001,2025-10-20_11h54.55.997,HW_LDT_1,2024.2.4,MacIntel,60.24096386,,,,,,,,,,,,,,,,,,,,824.4783,824.6765,824.6766,825.1765,,,,,,,,,,,,1.6185,1,,,,,,,,,,,,,,m,,,,,,,,,,,,,,,,,,153,1,825.177,826.8096,m,1,1.6185,,[],[],[],[],[],[],[],826.8096,828.8098,828.8098,833.4929,[],[],[],[],[],[],[],m,833.4929,833.493,0.326163383,-0.194454823,0,0,0,,0,152,152,82,1,4,word,AMATEUR,cursive,amateur_c.png,4.676,,,,,
,,,,30098,001,2025-10-20_11h54.55.997,HW_LDT_1,2024.2.4,MacIntel,60.24096386,,,,,,,,,,,,,,,,,,,,833.4937,833.6929,833.6929,834.1931,,,,,,,,,,,,0.7646,1,,,,,,,,,,,,,,z,,,,,,,,,,,,,,,,,,154,0,834.1936,834.9597,z,1,0.7646,,[],[],[],[],[],[],[],834.9598,836.96,836.9601,836.9604,[],[],[],[],[],[],[],,836.9604,836.9605,0.326163383,-0.194454823,0,0,0,,0,153,153,30,1,4,RL,nunewical,cursive,nunewical_c.png,,,,,,
,,,,30098,001,2025-10-20_11h54.55.997,HW_LDT_1,2024.2.4,MacIntel,60.24096386,,,,,,,,,,,,,,,,,,,,836.9618,837.1597,837.1598,837.6589,,,,,,,,,,,,0.3385,0,,,,,,,,,,,,,,m,,,,,,,,,,,,,,,,,,155,0,837.6593,838.0094,z,0,0.3385,,[],[],[],[],[],[],[],838.0095,840.0098,840.0098,840.01,[],[],[],[],[],[],[],,840.0101,840.0102,0.326163383,-0.194454823,0,0,0,,0,154,154,138,1,4,word,REFUSAL,cursive,refusal_c.png,,,,,,
,,,,30098,001,2025-10-20_11h54.55.997,HW_LDT_1,2024.2.4,MacIntel,60.24096386,,,,,,,,,,,,,,,,,,,,840.0115,840.2087,840.2088,840.7087,,,,,,,,,,,,0.7994,1,,,,,,,,,,,,,,z,,,,,,,,,,,,,,,,,,156,1,840.7092,841.5096,z,1,0.7994,,[],[],[],[],[],[],[],841.5097,843.5097,843.5097,845.393,[],[],[],[],[],[],[],z,845.3931,845.3931,0.326163383,-0.194454823,0,0,0,,0,155,155,33,1,4,RL,pamest,cursive,pamest_c.png,1.8822,,,,,
,,,,30098,001,2025-10-20_11h54.55.997,HW_LDT_1,2024.2.4,MacIntel,60.24096386,,,,,,,,,,,,,,,,,,,,845.3941,845.5921,845.5922,846.093,,,,,,,,,,,,2.0245,0,,,,,,,,,,,,,,m,,,,,,,,,,,,,,,,,,157,0,846.0934,848.1263,z,0,2.0245,,[],[],[],[],[],[],[],848.1264,850.1253,850.1253,850.1255,[],[],[],[],[],[],[],,850.1255,850.1255,0.326163383,-0.194204314,0,0,0,,0,156,156,152,1,4,word,SPECIMEN,cursive,specimen_c.png,,,,,,
,,,,30098,001,2025-10-20_11h54.55.997,HW_LDT_1,2024.2.4,MacIntel,60.24096386,,,,,,,,,,,,,,,,,,,,850.1265,850.3254,850.3255,850.8254,,,,,,,,,,,,2.5652,1,,,,,,,,,,,,,,z,,,,,,,,,,,,,,,,,,158,0,850.8258,853.3929,z,1,2.5652,,[],[],[],[],[],[],[],853.3929,855.393,855.3931,855.3932,[],[],[],[],[],[],[],,855.3932,855.3933,0.326163383,-0.194204314,0,0,0,,0,157,157,74,1,4,TL,rerite,print,rerite_p.png,,,,,,
,,,,30098,001,2025-10-20_11h54.55.997,HW_LDT_1,2024.2.4,MacIntel,60.24096386,,,,,,,,,,,,,,,,,,,,855.3947,855.5921,855.5921,856.0929,,,,,,,,,,,,0.1645,1,,,,,,,,,,,,,,z,,,,,,,,,,,,,,,,,,159,1,856.0936,856.2591,z,1,0.1645,,[],[],[],[],[],[],[],856.2592,858.2597,858.2597,863.0917,[],[],[],[],[],[],[],z,863.0917,863.0918,0.326163383,-0.194204314,0,0,0,,0,158,158,17,1,4,RL,denficy,cursive,denficy_c.png,4.824,,,,,
,,,,30098,001,2025-10-20_11h54.55.997,HW_LDT_1,2024.2.4,MacIntel,60.24096386,,,,,,,,,,,,,,,,,,,,863.0922,863.292,863.2921,863.7929,,,,,,,,,,,,0.8691,0,,,,,,,,,,,,,,z,,,,,,,,,,,,,,,,,,160,0,863.7934,864.6752,m,0,0.8691,,[],[],[],[],[],[],[],864.6753,866.6763,866.6764,866.6767,[],[],[],[],[],[],[],,866.6767,866.6767,0.326163383,-0.193389096,0,0,0,,0,159,159,9,1,4,RL,cafigal,print,cafigal_p.png,,,,,,
,,,,30098,001,2025-10-20_11h54.55.997,HW_LDT_1,2024.2.4,MacIntel,60.24096386,,,,,,,,,,,,,,,,,,,,,,,,,,,,,,,,,,,,,,,,,,,,,,,,,,,,,,,,,,,,,,,,,,,,,,,,,,,,,,,,,,,,,,,,,,,,,,,,,,,,,,,,,,,,,,,,,,,,,866.6774,871.6754
