counterbalance_lists.group,counterbalance_lists.remaining,get_list.started,get_list.stopped,participant,session,date,expName,psychopyVersion,OS,frameRate,Instructions.started,Instructions.stopped,key_resp.keys,key_resp.rt,key_resp.duration,instr_done_touch.x,instr_done_touch.y,instr_done_touch.leftButton,instr_done_touch.midButton,instr_done_touch.rightButton,start_instr.thisRepN,start_instr.thisTrialN,start_instr.thisN,start_instr.thisIndex,start_instr.ran,pageN,phase,instruct_text,has_image,instruct_image,showProgress.started,showProgress.stopped,fix.started,fix.stopped,prac.started,prac.stopped,response.keys,response.corr,response.rt,response.duration,touch_resp.x,touch_resp.y,touch_resp.leftButton,touch_resp.midButton,touch_resp.rightButton,touch_resp.time,touch_resp.clicked_name,rt,corr,feedback.started,feedback.stopped,trials.thisRepN,trials.thisTrialN,trials.thisN,trials.thisIndex,trials.ran,TrialID,StimulusType,Condition,PrimeDuration,Prime,Target,corrAns,Instructions_expt.started,Instructions_expt.stopped,key_resp_3.keys,key_resp_3.rt,key_resp_3.duration,instr_done_touch_3.x,instr_done_touch_3.y,instr_done_touch_3.leftButton,instr_done_touch_3.midButton,instr_done_touch_3.rightButton,instr_experiment.thisRepN,instr_experiment.thisTrialN,instr_experiment.thisN,instr_experiment.thisIndex,instr_experiment.ran,trialID,flag,maintask.started,maintask.stopped,key_resp_2.keys,key_resp_2.corr,key_resp_2.rt,key_resp_2.duration,targ_click.x,targ_click.y,targ_click.leftButton,targ_click.midButton,targ_click.rightButton,targ_click.time,targ_click.clicked_name,ITI.started,ITI.stopped,probe.started,probe.stopped,click_probe.x,click_probe.y,click_probe.leftButton,click_probe.midButton,click_probe.rightButton,click_probe.time,click_probe.clicked_name,key_resp_probe.keys,Break.started,Break.stopped,break_done_touch.x,break_done_touch.y,break_done_touch.leftButton,break_done_touch.midButton,break_done_touch.rightButton,break_done_keyboard.keys,list4_trials.thisRepN,list4_trials.thisTrialN,list4_trials.thisN,list4_trials.thisIndex,list4_trials.ran,list_id,item_type,string,font,stim_file,key_resp_probe.rt,key_resp_probe.duration,break_done_keyboard.rt,break_done_keyboard.duration,End.started,End.stopped
list4,,0.4884,0.4885,30186,001,2025-11-09_21h40.45.851,HW_LDT_1,2024.2.4,Win32,60.60606061,,,,,,,,,,,,,,,,,,,,,,,,,,,,,,,,,,,,,,,,,,,,,,,,,,,,,,,,,,,,,,,,,,,,,,,,,,,,,,,,,,,,,,,,,,,,,,,,,,,,,,,,,,,,,,,,,,,,,,,
,,,,30186,001,2025-11-09_21h40.45.851,HW_LDT_1,2024.2.4,Win32,60.60606061,0.509,28.375,space,27.8276,,-0.174166641,-0.191666718,0,0,0,0,0,0,0,1,1,instructions,"INSTRUCTIONS
At the start of each trial, look at the plus sign  (+) in the center of the screen.  This tells you that a trial is about to begin and where to look. Second, the plus sign will disappear and a string of letters will appear. Your task is to determine if the string of letters is a word or not. If the item is a word press the M key (on keyboard)  or touch the word button (phone/tablet).  If the item is not a word,  press the  Z key (on keyboard)  or touch the nonword button (on phone/tablet). The items will be presented for a short time. 
Press the space bar or touch  continue.",0,,,,,,,,,,,,,,,,,,,,,,,,,,,,,,,,,,,,,,,,,,,,,,,,,,,,,,,,,,,,,,,,,,,,,,,,,,,,,,,,,,,,,,,,,,,,,,,,,,,,
,,,,30186,001,2025-11-09_21h40.45.851,HW_LDT_1,2024.2.4,Win32,60.60606061,28.379,33.4114,space,5.0077,,-0.174166641,-0.191666718,0,0,0,0,1,1,1,1,2,instructions,"If your device has a keyboard, press the 'Z' key for nonwords and the 'M' key for words.





Press the space bar or touch the button below to continue.",0,keyboard-example.gif,,,,,,,,,,,,,,,,,,,,,,,,,,,,,,,,,,,,,,,,,,,,,,,,,,,,,,,,,,,,,,,,,,,,,,,,,,,,,,,,,,,,,,,,,,,,,,,,,,,
,,,,30186,001,2025-11-09_21h40.45.851,HW_LDT_1,2024.2.4,Win32,60.60606061,33.4135,34.8119,space,1.377,,-0.174166641,-0.191666718,0,0,0,0,2,2,2,1,3,instructions,"If you are using a touchscreen only device, use the buttons on the screen. Do not use the mouse.





Press the space bar or touch the button below to continue.",0,touchscreen-example.gif,,,,,,,,,,,,,,,,,,,,,,,,,,,,,,,,,,,,,,,,,,,,,,,,,,,,,,,,,,,,,,,,,,,,,,,,,,,,,,,,,,,,,,,,,,,,,,,,,,,
,,,,30186,001,2025-11-09_21h40.45.851,HW_LDT_1,2024.2.4,Win32,60.60606061,34.8152,46.5712,space,11.7303,,-0.174166641,-0.191666718,0,0,0,0,3,3,3,1,4,instructions,"It is very important that you respond as quickly and accurately as possible, as each letter string will only be on the screen for two seconds. If you do not respond within this time, the message 'Too slow!' will be displayed and the experiment will progress to the next letter string. The first 20 trials will be practice trials and you will receive feedback on your answers. 

Press the space bar or touch the button below to start the practice trials.",0,,,,,,,,,,,,,,,,,,,,,,,,,,,,,,,,,,,,,,,,,,,,,,,,,,,,,,,,,,,,,,,,,,,,,,,,,,,,,,,,,,,,,,,,,,,,,,,,,,,,
,,,,30186,001,2025-11-09_21h40.45.851,HW_LDT_1,2024.2.4,Win32,60.60606061,,,,,,,,,,,,,,,,,,,,,46.5988,46.7721,46.7725,47.2732,47.2735,49.2909,z,1,1.9983,,[],[],[],[],[],[],[],1.9983,1,49.2913,49.791,0,0,0,13,1,1014,NW,UN,33,winfer,ROUPET,z,,,,,,,,,,,,,,,,,,,,,,,,,,,,,,,,,,,,,,,,,,,,,,,,,,,,,,,,,,,,,,,,,,
,,,,30186,001,2025-11-09_21h40.45.851,HW_LDT_1,2024.2.4,Win32,60.60606061,,,,,,,,,,,,,,,,,,,,,49.7925,49.9903,49.9903,50.4918,50.4934,51.7254,z,1,1.2172,,[],[],[],[],[],[],[],1.2172,1,51.7255,52.2261,0,1,1,10,1,1011,NW,"ID",16,inlade,INLADE,z,,,,,,,,,,,,,,,,,,,,,,,,,,,,,,,,,,,,,,,,,,,,,,,,,,,,,,,,,,,,,,,,,,
,,,,30186,001,2025-11-09_21h40.45.851,HW_LDT_1,2024.2.4,Win32,60.60606061,,,,,,,,,,,,,,,,,,,,,52.228,52.426,52.4261,52.9267,52.9279,53.9608,m,1,1.0138,,[],[],[],[],[],[],[],1.0138,1,53.961,54.4614,0,2,2,0,1,1001,WORD,"ID",33,utopia,UTOPIA,m,,,,,,,,,,,,,,,,,,,,,,,,,,,,,,,,,,,,,,,,,,,,,,,,,,,,,,,,,,,,,,,,,,
,,,,30186,001,2025-11-09_21h40.45.851,HW_LDT_1,2024.2.4,Win32,60.60606061,,,,,,,,,,,,,,,,,,,,,54.4632,54.6621,54.6622,55.1623,55.1636,56.6134,z,1,1.4307,,[],[],[],[],[],[],[],1.4307,1,56.6136,57.1136,0,3,3,9,1,1010,NW,"ID",33,fariny,FARINY,z,,,,,,,,,,,,,,,,,,,,,,,,,,,,,,,,,,,,,,,,,,,,,,,,,,,,,,,,,,,,,,,,,,
,,,,30186,001,2025-11-09_21h40.45.851,HW_LDT_1,2024.2.4,Win32,60.60606061,,,,,,,,,,,,,,,,,,,,,57.1155,57.3135,57.3136,57.8143,57.8158,59.3487,m,1,1.5213,,[],[],[],[],[],[],[],1.5213,1,59.3488,59.849,0,4,4,1,1,1002,WORD,"ID",33,adjust,ADJUST,m,,,,,,,,,,,,,,,,,,,,,,,,,,,,,,,,,,,,,,,,,,,,,,,,,,,,,,,,,,,,,,,,,,
,,,,30186,001,2025-11-09_21h40.45.851,HW_LDT_1,2024.2.4,Win32,60.60606061,,,,,,,,,,,,,,,,,,,,,59.8506,60.0497,60.0498,60.5492,60.55,61.4168,z,1,0.8517,,[],[],[],[],[],[],[],0.8517,1,61.4169,61.9182,0,5,5,8,1,1009,NW,"ID",33,aslert,ASLERT,z,,,,,,,,,,,,,,,,,,,,,,,,,,,,,,,,,,,,,,,,,,,,,,,,,,,,,,,,,,,,,,,,,,
,,,,30186,001,2025-11-09_21h40.45.851,HW_LDT_1,2024.2.4,Win32,60.60606061,,,,,,,,,,,,,,,,,,,,,61.92,62.1172,62.1173,62.6184,62.6197,63.5192,z,1,0.883,,[],[],[],[],[],[],[],0.883,1,63.5194,64.019,0,6,6,15,1,1016,NW,UN,16,mushed,WHAISE,z,,,,,,,,,,,,,,,,,,,,,,,,,,,,,,,,,,,,,,,,,,,,,,,,,,,,,,,,,,,,,,,,,,
,,,,30186,001,2025-11-09_21h40.45.851,HW_LDT_1,2024.2.4,Win32,60.60606061,,,,,,,,,,,,,,,,,,,,,64.0209,64.2199,64.2199,64.7209,64.7221,65.3034,m,1,0.5691,,[],[],[],[],[],[],[],0.5691,1,65.3035,65.8041,0,7,7,2,1,1003,WORD,"ID",16,almond,ALMOND,m,,,,,,,,,,,,,,,,,,,,,,,,,,,,,,,,,,,,,,,,,,,,,,,,,,,,,,,,,,,,,,,,,,
,,,,30186,001,2025-11-09_21h40.45.851,HW_LDT_1,2024.2.4,Win32,60.60606061,,,,,,,,,,,,,,,,,,,,,65.8064,66.0042,66.0043,66.5051,66.5064,67.4225,z,1,0.8949,,[],[],[],[],[],[],[],0.8949,1,67.4228,67.9224,0,8,8,11,1,1012,NW,"ID",16,rashet,RASHET,z,,,,,,,,,,,,,,,,,,,,,,,,,,,,,,,,,,,,,,,,,,,,,,,,,,,,,,,,,,,,,,,,,,
,,,,30186,001,2025-11-09_21h40.45.851,HW_LDT_1,2024.2.4,Win32,60.60606061,,,,,,,,,,,,,,,,,,,,,67.9236,68.1235,68.1236,68.6232,68.625,69.4405,m,1,0.7963,,[],[],[],[],[],[],[],0.7963,1,69.4407,69.9405,0,9,9,3,1,1004,WORD,"ID",16,matrix,MATRIX,m,,,,,,,,,,,,,,,,,,,,,,,,,,,,,,,,,,,,,,,,,,,,,,,,,,,,,,,,,,,,,,,,,,
,,,,30186,001,2025-11-09_21h40.45.851,HW_LDT_1,2024.2.4,Win32,60.60606061,,,,,,,,,,,,,,,,,,,,,69.9418,70.1409,70.141,70.6416,70.6431,71.2922,m,1,0.6304,,[],[],[],[],[],[],[],0.6304,1,71.2924,71.7927,0,10,10,7,1,1008,WORD,UN,16,hurdle,VOLUME,m,,,,,,,,,,,,,,,,,,,,,,,,,,,,,,,,,,,,,,,,,,,,,,,,,,,,,,,,,,,,,,,,,,
,,,,30186,001,2025-11-09_21h40.45.851,HW_LDT_1,2024.2.4,Win32,60.60606061,,,,,,,,,,,,,,,,,,,,,71.7943,71.9929,71.9929,72.4928,72.4948,73.2768,m,1,0.7643,,[],[],[],[],[],[],[],0.7643,1,73.277,73.778,0,11,11,4,1,1005,WORD,UN,33,abound,SQUEAK,m,,,,,,,,,,,,,,,,,,,,,,,,,,,,,,,,,,,,,,,,,,,,,,,,,,,,,,,,,,,,,,,,,,
,,,,30186,001,2025-11-09_21h40.45.851,HW_LDT_1,2024.2.4,Win32,60.60606061,,,,,,,,,,,,,,,,,,,,,73.7795,73.9772,73.9773,74.4785,74.48,75.2955,z,1,0.8049,,[],[],[],[],[],[],[],0.8049,1,75.2956,75.7961,0,12,12,14,1,1015,NW,UN,16,miaber,THRALE,z,,,,,,,,,,,,,,,,,,,,,,,,,,,,,,,,,,,,,,,,,,,,,,,,,,,,,,,,,,,,,,,,,,
,,,,30186,001,2025-11-09_21h40.45.851,HW_LDT_1,2024.2.4,Win32,60.60606061,,,,,,,,,,,,,,,,,,,,,75.7979,75.996,75.996,76.4969,76.4983,77.4471,m,1,0.9298,,[],[],[],[],[],[],[],0.9298,1,77.4472,77.9477,0,13,13,6,1,1007,WORD,UN,16,tropic,ZOMBIE,m,,,,,,,,,,,,,,,,,,,,,,,,,,,,,,,,,,,,,,,,,,,,,,,,,,,,,,,,,,,,,,,,,,
,,,,30186,001,2025-11-09_21h40.45.851,HW_LDT_1,2024.2.4,Win32,60.60606061,,,,,,,,,,,,,,,,,,,,,77.9493,78.1477,78.1478,78.648,78.6492,79.7162,z,1,1.0458,,[],[],[],[],[],[],[],1.0458,1,79.7162,80.2156,0,14,14,12,1,1013,NW,UN,33,adveil,SPRINY,z,,,,,,,,,,,,,,,,,,,,,,,,,,,,,,,,,,,,,,,,,,,,,,,,,,,,,,,,,,,,,,,,,,
,,,,30186,001,2025-11-09_21h40.45.851,HW_LDT_1,2024.2.4,Win32,60.60606061,,,,,,,,,,,,,,,,,,,,,80.2167,80.4167,80.4167,80.9169,80.9181,81.7013,m,1,0.7653,,[],[],[],[],[],[],[],0.7653,1,81.7015,82.2014,0,15,15,5,1,1006,WORD,UN,33,frenzy,OBTAIN,m,,,,,,,,,,,,,,,,,,,,,,,,,,,,,,,,,,,,,,,,,,,,,,,,,,,,,,,,,,,,,,,,,,
,,,,30186,001,2025-11-09_21h40.45.851,HW_LDT_1,2024.2.4,Win32,60.60606061,,,,,,,,,,,,,,,,1,end_of_practice,"You have completed the practice trials. During the experimental trials, you will not receive feedback. On some trials you will be asked to report whether the item you just saw was in cursive or print. 
Before you begin, please ensure that you are in a comfortable and quiet location and will not be disturbed for about 15 minutes, as we cannot use your data if you do not complete all the trials. 
 When you are ready to start the experimental trials, please press space or touch the button below.",,,,,,,,,,,,,,,,,,,,,,,,,,,,,,,,,,,,82.2107,95.3454,space,13.1111,,-0.174166641,-0.191666718,0,0,0,0,0,0,0,1,,,,,,,,,,,,,,,,,,,,,,,,,,,,,,,,,,,,,,,,,,,,,,,,,,,
,,,,30186,001,2025-11-09_21h40.45.851,HW_LDT_1,2024.2.4,Win32,60.60606061,,,,,,,,,,,,,,,,,,,,,95.3661,95.5458,95.5459,96.0459,,,,,,,,,,,,,,1.3391,1,,,,,,,,,,,,,,m,,,,,,,,,,,,,,,,1,0,96.0467,97.3974,m,1,1.3391,,[],[],[],[],[],[],[],97.3976,99.3993,99.3998,99.404,[],[],[],[],[],[],[],,99.4042,99.4083,-0.174166641,-0.191666718,0,0,0,,0,0,0,144,1,4,word,RESIDENT,cursive,resident_c.png,,,,,,
,,,,30186,001,2025-11-09_21h40.45.851,HW_LDT_1,2024.2.4,Win32,60.60606061,,,,,,,,,,,,,,,,,,,,,99.4092,99.5988,99.599,100.0991,,,,,,,,,,,,,,1.1039,1,,,,,,,,,,,,,,m,,,,,,,,,,,,,,,,2,0,100.1,101.2063,m,1,1.1039,,[],[],[],[],[],[],[],101.2064,103.2015,103.2016,103.2019,[],[],[],[],[],[],[],,103.2019,103.2021,-0.174166641,-0.191666718,0,0,0,,0,1,1,134,1,4,word,QUALIFY,print,qualify_p.png,,,,,,
,,,,30186,001,2025-11-09_21h40.45.851,HW_LDT_1,2024.2.4,Win32,60.60606061,,,,,,,,,,,,,,,,,,,,,103.2033,103.402,103.4021,103.9017,,,,,,,,,,,,,,1.0068,1,,,,,,,,,,,,,,z,,,,,,,,,,,,,,,,3,0,103.9022,104.9104,z,1,1.0068,,[],[],[],[],[],[],[],104.9106,106.9047,106.9047,106.905,[],[],[],[],[],[],[],,106.9052,106.9053,-0.174166641,-0.191666718,0,0,0,,0,2,2,18,1,4,RL,disluge,print,disluge_p.png,,,,,,
,,,,30186,001,2025-11-09_21h40.45.851,HW_LDT_1,2024.2.4,Win32,60.60606061,,,,,,,,,,,,,,,,,,,,,106.9074,107.1049,107.105,107.6052,,,,,,,,,,,,,,6.2669,0,,,,,,,,,,,,,,m,,,,,,,,,,,,,,,,4,0,107.6059,113.8768,z,0,6.2669,,[],[],[],[],[],[],[],113.8768,115.8788,115.8788,115.8793,[],[],[],[],[],[],[],,115.8793,115.8794,-0.174166641,-0.191666718,0,0,0,,0,3,3,102,1,4,word,DENSITY,cursive,density_c.png,,,,,,
,,,,30186,001,2025-11-09_21h40.45.851,HW_LDT_1,2024.2.4,Win32,60.60606061,,,,,,,,,,,,,,,,,,,,,115.8811,116.0797,116.0797,116.5793,,,,,,,,,,,,,,0.8557,1,,,,,,,,,,,,,,m,,,,,,,,,,,,,,,,5,0,116.5799,117.4469,m,1,0.8557,,[],[],[],[],[],[],[],117.4471,119.4479,119.448,119.4483,[],[],[],[],[],[],[],,119.4484,119.4486,-0.174166641,-0.191666718,0,0,0,,0,4,4,154,1,4,word,STORAGE,print,storage_p.png,,,,,,
,,,,30186,001,2025-11-09_21h40.45.851,HW_LDT_1,2024.2.4,Win32,60.60606061,,,,,,,,,,,,,,,,,,,,,119.4495,119.6485,119.6486,120.149,,,,,,,,,,,,,,1.6596,1,,,,,,,,,,,,,,m,,,,,,,,,,,,,,,,6,0,120.1496,121.8175,m,1,1.6596,,[],[],[],[],[],[],[],121.8177,123.8188,123.8189,123.8192,[],[],[],[],[],[],[],,123.8192,123.8195,-0.174166641,-0.191666718,0,0,0,,0,5,5,159,1,4,word,VETERAN,cursive,veteran_c.png,,,,,,
,,,,30186,001,2025-11-09_21h40.45.851,HW_LDT_1,2024.2.4,Win32,60.60606061,,,,,,,,,,,,,,,,,,,,,123.8213,124.0193,124.0194,124.5192,,,,,,,,,,,,,,2.6576,1,,,,,,,,,,,,,,m,,,,,,,,,,,,,,,,7,1,124.5196,127.1783,m,1,2.6576,,[],[],[],[],[],[],[],127.1784,129.1792,129.1794,132.5093,[],[],[],[],[],[],[],z,132.5094,132.5095,-0.174166641,-0.191666718,0,0,0,,0,6,6,151,1,4,word,SPECIFIC,cursive,specific_c.png,3.3259,,,,,
,,,,30186,001,2025-11-09_21h40.45.851,HW_LDT_1,2024.2.4,Win32,60.60606061,,,,,,,,,,,,,,,,,,,,,132.5106,132.7091,132.7092,133.2096,,,,,,,,,,,,,,1.5472,1,,,,,,,,,,,,,,m,,,,,,,,,,,,,,,,8,0,133.2105,134.7611,m,1,1.5472,,[],[],[],[],[],[],[],134.7613,136.7627,136.7627,136.7629,[],[],[],[],[],[],[],,136.763,136.7631,-0.174166641,-0.191666718,0,0,0,,0,7,7,107,1,4,word,EVIDENT,print,evident_p.png,,,,,,
,,,,30186,001,2025-11-09_21h40.45.851,HW_LDT_1,2024.2.4,Win32,60.60606061,,,,,,,,,,,,,,,,,,,,,136.7641,136.963,136.963,137.4639,,,,,,,,,,,,,,2.0106,1,,,,,,,,,,,,,,z,,,,,,,,,,,,,,,,9,1,137.4644,139.4811,z,1,2.0106,,[],[],[],[],[],[],[],139.4813,141.4836,141.4836,143.2349,[],[],[],[],[],[],[],m,143.235,143.2352,-0.174166641,-0.191666718,0,0,0,,0,8,8,31,1,4,RL,orimipal,print,orimipal_p.png,1.7443,,,,,
,,,,30186,001,2025-11-09_21h40.45.851,HW_LDT_1,2024.2.4,Win32,60.60606061,,,,,,,,,,,,,,,,,,,,,143.2365,143.439,143.439,143.9353,,,,,,,,,,,,,,4.4492,1,,,,,,,,,,,,,,z,,,,,,,,,,,,,,,,10,1,143.9359,148.3887,z,1,4.4492,,[],[],[],[],[],[],[],148.3889,150.3904,150.3904,153.3134,[],[],[],[],[],[],[],z,153.3135,153.3137,-0.174166641,-0.191666718,0,0,0,,0,9,9,24,1,4,RL,marmipal,cursive,marmipal_c.png,2.9221,,,,,
,,,,30186,001,2025-11-09_21h40.45.851,HW_LDT_1,2024.2.4,Win32,60.60606061,,,,,,,,,,,,,,,,,,,,,153.3151,153.5145,153.5145,154.01,,,,,,,,,,,,,,4.0749,1,,,,,,,,,,,,,,z,,,,,,,,,,,,,,,,11,0,154.0106,158.0868,z,1,4.0749,,[],[],[],[],[],[],[],158.0869,160.0819,160.0819,160.0822,[],[],[],[],[],[],[],,160.0822,160.0824,-0.174166641,-0.191666718,0,0,0,,0,10,10,66,1,4,TL,opmital,print,opmital_p.png,,,,,,
,,,,30186,001,2025-11-09_21h40.45.851,HW_LDT_1,2024.2.4,Win32,60.60606061,,,,,,,,,,,,,,,,,,,,,160.0838,160.2821,160.2822,160.7825,,,,,,,,,,,,,,1.087,1,,,,,,,,,,,,,,m,,,,,,,,,,,,,,,,12,0,160.7832,161.8713,m,1,1.087,,[],[],[],[],[],[],[],161.8714,163.868,163.868,163.8683,[],[],[],[],[],[],[],,163.8683,163.8684,-0.174166641,-0.191666718,0,0,0,,0,11,11,157,1,4,word,VALIDITY,print,validity_p.png,,,,,,
,,,,30186,001,2025-11-09_21h40.45.851,HW_LDT_1,2024.2.4,Win32,60.60606061,,,,,,,,,,,,,,,,,,,,,163.8693,164.071,164.0711,164.5572,,,,,,,,,,,,,,1.6417,1,,,,,,,,,,,,,,z,,,,,,,,,,,,,,,,13,0,164.5577,166.2039,z,1,1.6417,,[],[],[],[],[],[],[],166.204,168.2051,168.2052,168.2055,[],[],[],[],[],[],[],,168.2055,168.2056,-0.174166641,-0.191666718,0,0,0,,0,12,12,62,1,4,TL,locigal,print,locigal_p.png,,,,,,
,,,,30186,001,2025-11-09_21h40.45.851,HW_LDT_1,2024.2.4,Win32,60.60606061,,,,,,,,,,,,,,,,,,,,,168.2067,168.4058,168.4058,168.9063,,,,,,,,,,,,,,1.3565,1,,,,,,,,,,,,,,m,,,,,,,,,,,,,,,,14,0,168.9069,170.2641,m,1,1.3565,,[],[],[],[],[],[],[],170.2641,172.258,172.2581,172.2583,[],[],[],[],[],[],[],,172.2584,172.2584,-0.174166641,-0.191666718,0,0,0,,0,13,13,146,1,4,word,RETIRE,print,retire_p.png,,,,,,
,,,,30186,001,2025-11-09_21h40.45.851,HW_LDT_1,2024.2.4,Win32,60.60606061,,,,,,,,,,,,,,,,,,,,,172.2592,172.4585,172.4586,172.9587,,,,,,,,,,,,,,1.155,1,,,,,,,,,,,,,,z,,,,,,,,,,,,,,,,15,1,172.9595,174.1266,z,1,1.155,,[],[],[],[],[],[],[],174.1267,176.1286,176.1287,177.4192,[],[],[],[],[],[],[],m,177.4192,177.4194,-0.174166641,-0.191666718,0,0,0,,0,14,14,75,1,4,TL,sanile,print,sanile_p.png,1.2899,,,,,
,,,,30186,001,2025-11-09_21h40.45.851,HW_LDT_1,2024.2.4,Win32,60.60606061,,,,,,,,,,,,,,,,,,,,,177.4205,177.6133,177.6133,178.12,,,,,,,,,,,,,,1.1901,1,,,,,,,,,,,,,,m,,,,,,,,,,,,,,,,16,1,178.1205,179.3144,m,1,1.1901,,[],[],[],[],[],[],[],179.3145,181.3055,181.3057,182.5002,[],[],[],[],[],[],[],m,182.5003,182.5005,-0.174166641,-0.191666718,0,0,0,,0,15,15,95,1,4,word,COMEDY,print,comedy_p.png,1.1927,,,,,
,,,,30186,001,2025-11-09_21h40.45.851,HW_LDT_1,2024.2.4,Win32,60.60606061,,,,,,,,,,,,,,,,,,,,,182.5018,182.7009,182.701,183.2015,,,,,,,,,,,,,,1.9568,1,,,,,,,,,,,,,,z,,,,,,,,,,,,,,,,17,0,183.202,185.1603,z,1,1.9568,,[],[],[],[],[],[],[],185.1604,187.1544,187.1545,187.1548,[],[],[],[],[],[],[],,187.1548,187.1549,-0.174166641,-0.191666718,0,0,0,,0,16,16,15,1,4,RL,debave,cursive,debave_c.png,,,,,,
,,,,30186,001,2025-11-09_21h40.45.851,HW_LDT_1,2024.2.4,Win32,60.60606061,,,,,,,,,,,,,,,,,,,,,187.1566,187.3581,187.3581,187.8573,,,,,,,,,,,,,,1.3753,1,,,,,,,,,,,,,,z,,,,,,,,,,,,,,,,18,0,187.8582,189.2395,z,1,1.3753,,[],[],[],[],[],[],[],189.2396,191.2405,191.2406,191.2408,[],[],[],[],[],[],[],,191.2408,191.2409,-0.174166641,-0.191666718,0,0,0,,0,17,17,53,1,4,TL,cemerony,print,cemerony_p.png,,,,,,
,,,,30186,001,2025-11-09_21h40.45.851,HW_LDT_1,2024.2.4,Win32,60.60606061,,,,,,,,,,,,,,,,,,,,,191.2421,191.4415,191.4415,191.9307,,,,,,,,,,,,,,1.4041,1,,,,,,,,,,,,,,m,,,,,,,,,,,,,,,,19,0,191.9314,193.3431,m,1,1.4041,,[],[],[],[],[],[],[],193.3432,195.3445,195.3445,195.3448,[],[],[],[],[],[],[],,195.3448,195.345,-0.174166641,-0.191666718,0,0,0,,0,18,18,83,1,4,word,ANIMAL,cursive,animal_c.png,,,,,,
,,,,30186,001,2025-11-09_21h40.45.851,HW_LDT_1,2024.2.4,Win32,60.60606061,,,,,,,,,,,,,,,,,,,,,195.3462,195.5327,195.5328,196.0453,,,,,,,,,,,,,,1.0965,1,,,,,,,,,,,,,,z,,,,,,,,,,,,,,,,20,0,196.0457,197.146,z,1,1.0965,,[],[],[],[],[],[],[],197.146,199.1527,199.1527,199.1528,[],[],[],[],[],[],[],,199.1529,199.153,-0.174166641,-0.191666718,0,0,0,,0,19,19,7,1,4,RL,casena,print,casena_p.png,,,,,,
,,,,30186,001,2025-11-09_21h40.45.851,HW_LDT_1,2024.2.4,Win32,60.60606061,,,,,,,,,,,,,,,,,,,,,199.1546,199.3474,199.3475,199.8485,,,,,,,,,,,,,,3.1446,1,,,,,,,,,,,,,,z,,,,,,,,,,,,,,,,21,0,199.849,203.0011,z,1,3.1446,,[],[],[],[],[],[],[],203.0013,205.0093,205.0094,205.0096,[],[],[],[],[],[],[],,205.0096,205.0097,-0.174166641,-0.191666718,0,0,0,,0,20,20,56,1,4,TL,donimant,cursive,donimant_c.png,,,,,,
,,,,30186,001,2025-11-09_21h40.45.851,HW_LDT_1,2024.2.4,Win32,60.60606061,,,,,,,,,,,,,,,,,,,,,205.0113,205.2092,205.2092,205.7033,,,,,,,,,,,,,,2.5302,1,,,,,,,,,,,,,,z,,,,,,,,,,,,,,,,22,0,205.7041,208.238,z,1,2.5302,,[],[],[],[],[],[],[],208.238,210.2399,210.24,210.2404,[],[],[],[],[],[],[],,210.2404,210.2407,-0.174166641,-0.191666718,0,0,0,,0,21,21,78,1,4,TL,stragety,print,stragety_p.png,,,,,,
,,,,30186,001,2025-11-09_21h40.45.851,HW_LDT_1,2024.2.4,Win32,60.60606061,,,,,,,,,,,,,,,,,,,,,210.2416,210.4405,210.4405,210.9408,,,,,,,,,,,,,,1.0395,1,,,,,,,,,,,,,,m,,,,,,,,,,,,,,,,23,0,210.9414,211.9919,m,1,1.0395,,[],[],[],[],[],[],[],211.992,213.9936,213.9937,213.994,[],[],[],[],[],[],[],,213.9941,213.9946,-0.174166641,-0.191666718,0,0,0,,0,22,22,120,1,4,word,MILITARY,print,military_p.png,,,,,,
,,,,30186,001,2025-11-09_21h40.45.851,HW_LDT_1,2024.2.4,Win32,60.60606061,,,,,,,,,,,,,,,,,,,,,213.9963,214.1829,214.183,214.6841,,,,,,,,,,,,,,2.443,0,,,,,,,,,,,,,,z,,,,,,,,,,,,,,,,24,0,214.6846,217.129,m,0,2.443,,[],[],[],[],[],[],[],217.1291,219.1308,219.1309,219.1311,[],[],[],[],[],[],[],,219.1313,219.1316,-0.174166641,-0.191666718,0,0,0,,0,23,23,55,1,4,TL,corevage,cursive,corevage_c.png,,,,,,
,,,,30186,001,2025-11-09_21h40.45.851,HW_LDT_1,2024.2.4,Win32,60.60606061,,,,,,,,,,,,,,,,,,,,,219.1327,219.3312,219.3312,219.8315,,,,,,,,,,,,,,1.3232,1,,,,,,,,,,,,,,m,,,,,,,,,,,,,,,,25,0,219.832,221.1562,m,1,1.3232,,[],[],[],[],[],[],[],221.1563,223.1505,223.1506,223.1509,[],[],[],[],[],[],[],,223.151,223.1512,-0.174166641,-0.191666718,0,0,0,,0,24,24,127,1,4,word,ORIGINAL,print,original_p.png,,,,,,
,,,,30186,001,2025-11-09_21h40.45.851,HW_LDT_1,2024.2.4,Win32,60.60606061,,,,,,,,,,,,,,,,,,,,,223.1526,223.3394,223.3394,223.8509,,,,,,,,,,,,,,2.2777,1,,,,,,,,,,,,,,z,,,,,,,,,,,,,,,,26,0,223.8514,226.1368,z,1,2.2777,,[],[],[],[],[],[],[],226.137,228.1386,228.1387,228.1391,[],[],[],[],[],[],[],,228.1392,228.1394,-0.174166641,-0.191666718,0,0,0,,0,25,25,32,1,4,RL,patisic,cursive,patisic_c.png,,,,,,
,,,,30186,001,2025-11-09_21h40.45.851,HW_LDT_1,2024.2.4,Win32,60.60606061,,,,,,,,,,,,,,,,,,,,,228.1415,228.3385,228.3386,228.8382,,,,,,,,,,,,,,2.9753,1,,,,,,,,,,,,,,m,,,,,,,,,,,,,,,,27,1,228.8386,231.8248,m,1,2.9753,,[],[],[],[],[],[],[],231.8249,233.8266,233.8267,234.6343,[],[],[],[],[],[],[],z,234.6344,234.6346,-0.174166641,-0.191666718,0,0,0,,0,26,26,124,1,4,word,NUMERICAL,cursive,numerical_c.png,0.8064,,,,,
,,,,30186,001,2025-11-09_21h40.45.851,HW_LDT_1,2024.2.4,Win32,60.60606061,,,,,,,,,,,,,,,,,,,,,234.6361,234.8276,234.8276,235.3332,,,,,,,,,,,,,,2.3237,1,,,,,,,,,,,,,,z,,,,,,,,,,,,,,,,28,0,235.3338,237.6628,z,1,2.3237,,[],[],[],[],[],[],[],237.663,239.6692,239.6693,239.6696,[],[],[],[],[],[],[],,239.6697,239.6698,-0.174166641,-0.191666718,0,0,0,,0,27,27,22,1,4,RL,linedal,cursive,linedal_c.png,,,,,,
,,,,30186,001,2025-11-09_21h40.45.851,HW_LDT_1,2024.2.4,Win32,60.60606061,,,,,,,,,,,,,,,,,,,,,239.6713,239.8651,239.8652,240.3651,,,,,,,,,,,,,,1.5933,1,,,,,,,,,,,,,,z,,,,,,,,,,,,,,,,29,0,240.3657,241.9662,z,1,1.5933,,[],[],[],[],[],[],[],241.9664,243.9681,243.9682,243.9684,[],[],[],[],[],[],[],,243.9684,243.9685,-0.174166641,-0.191666718,0,0,0,,0,28,28,43,1,4,RL,rovastic,print,rovastic_p.png,,,,,,
,,,,30186,001,2025-11-09_21h40.45.851,HW_LDT_1,2024.2.4,Win32,60.60606061,,,,,,,,,,,,,,,,,,,,,243.9696,244.1678,244.1678,244.6685,,,,,,,,,,,,,,0.7915,1,,,,,,,,,,,,,,m,,,,,,,,,,,,,,,,30,0,244.669,245.4703,m,1,0.7915,,[],[],[],[],[],[],[],245.4706,247.4709,247.4709,247.4712,[],[],[],[],[],[],[],,247.4714,247.4716,-0.174166641,-0.191666718,0,0,0,,0,29,29,156,1,4,word,TRIBUTE,print,tribute_p.png,,,,,,
,,,,30186,001,2025-11-09_21h40.45.851,HW_LDT_1,2024.2.4,Win32,60.60606061,,,,,,,,,,,,,,,,,,,,,247.4726,247.6707,247.6708,248.1712,,,,,,,,,,,,,,5.7518,1,,,,,,,,,,,,,,z,,,,,,,,,,,,,,,,31,0,248.1717,253.9284,z,1,5.7518,,[],[],[],[],[],[],[],253.9286,255.9276,255.9277,255.928,[],[],[],[],[],[],[],,255.9281,255.9282,-0.174166641,-0.191666718,0,0,0,,0,30,30,37,1,4,RL,renutal,cursive,renutal_c.png,,,,,,
,,,,30186,001,2025-11-09_21h40.45.851,HW_LDT_1,2024.2.4,Win32,60.60606061,,,,,,,,,,,,,,,,,,,,,255.9298,256.1282,256.1283,256.6323,,,,,,,,,,,,,,4.2377,1,,,,,,,,,,,,,,z,,,,,,,,,,,,,,,,32,0,256.633,260.8822,z,1,4.2377,,[],[],[],[],[],[],[],260.8822,262.8834,262.8835,262.8837,[],[],[],[],[],[],[],,262.8838,262.8839,-0.174166641,-0.191666718,0,0,0,,0,31,31,10,1,4,RL,carminal,cursive,carminal_c.png,,,,,,
,,,,30186,001,2025-11-09_21h40.45.851,HW_LDT_1,2024.2.4,Win32,60.60606061,,,,,,,,,,,,,,,,,,,,,262.885,263.0843,263.0843,263.5844,,,,,,,,,,,,,,2.9742,1,,,,,,,,,,,,,,z,,,,,,,,,,,,,,,,33,0,263.5848,266.5696,z,1,2.9742,,[],[],[],[],[],[],[],266.5697,268.5717,268.5717,268.572,[],[],[],[],[],[],[],,268.572,268.5721,-0.174166641,-0.191666718,0,0,0,,0,32,32,45,1,4,RL,spetisic,cursive,spetisic_c.png,,,,,,
,,,,30186,001,2025-11-09_21h40.45.851,HW_LDT_1,2024.2.4,Win32,60.60606061,,,,,,,,,,,,,,,,,,,,,268.5732,268.7714,268.7715,269.2719,,,,,,,,,,,,,,2.4432,1,,,,,,,,,,,,,,z,,,,,,,,,,,,,,,,34,0,269.2723,271.7243,z,1,2.4432,,[],[],[],[],[],[],[],271.7244,273.7264,273.7264,273.7267,[],[],[],[],[],[],[],,273.7267,273.7269,-0.174166641,-0.191666718,0,0,0,,0,33,33,50,1,4,RL,vecelan,cursive,vecelan_c.png,,,,,,
,,,,30186,001,2025-11-09_21h40.45.851,HW_LDT_1,2024.2.4,Win32,60.60606061,,,,,,,,,,,,,,,,,,,,,273.7282,273.9264,273.9265,274.4275,,,,,,,,,,,,,,0.9543,1,,,,,,,,,,,,,,z,,,,,,,,,,,,,,,,35,0,274.4283,275.3937,z,1,0.9543,,[],[],[],[],[],[],[],275.3938,277.3836,277.3838,277.3839,[],[],[],[],[],[],[],,277.384,277.3841,-0.174166641,-0.191666718,0,0,0,,0,34,34,58,1,4,TL,edivent,print,edivent_p.png,,,,,,
,,,,30186,001,2025-11-09_21h40.45.851,HW_LDT_1,2024.2.4,Win32,60.60606061,,,,,,,,,,,,,,,,,,,,,277.3854,277.5796,277.5796,278.0795,,,,,,,,,,,,,,1.2953,1,,,,,,,,,,,,,,m,,,,,,,,,,,,,,,,36,0,278.0802,279.3805,m,1,1.2953,,[],[],[],[],[],[],[],279.3807,281.3827,281.3829,281.3831,[],[],[],[],[],[],[],,281.3832,281.3833,-0.174166641,-0.191666718,0,0,0,,0,35,35,141,1,4,word,RELIGION,print,religion_p.png,,,,,,
,,,,30186,001,2025-11-09_21h40.45.851,HW_LDT_1,2024.2.4,Win32,60.60606061,,,,,,,,,,,,,,,,,,,,,281.3851,281.5827,281.5829,282.0725,,,,,,,,,,,,,,1.6,0,,,,,,,,,,,,,,m,,,,,,,,,,,,,,,,37,0,282.0731,283.6838,z,0,1.6,,[],[],[],[],[],[],[],283.684,285.6728,285.6729,285.6731,[],[],[],[],[],[],[],,285.6732,285.6733,-0.174166641,-0.191666718,0,0,0,,0,36,36,138,1,4,word,REFUSAL,cursive,refusal_c.png,,,,,,
,,,,30186,001,2025-11-09_21h40.45.851,HW_LDT_1,2024.2.4,Win32,60.60606061,,,,,,,,,,,,,,,,,,,,,285.6746,285.8696,285.8696,286.37,,,,,,,,,,,,,,1.4563,1,,,,,,,,,,,,,,z,,,,,,,,,,,,,,,,38,0,286.3707,287.8373,z,1,1.4563,,[],[],[],[],[],[],[],287.8375,289.8261,289.8261,289.8264,[],[],[],[],[],[],[],,289.8265,289.8265,-0.174166641,-0.191666718,0,0,0,,0,37,37,64,1,4,TL,moredate,print,moredate_p.png,,,,,,
,,,,30186,001,2025-11-09_21h40.45.851,HW_LDT_1,2024.2.4,Win32,60.60606061,,,,,,,,,,,,,,,,,,,,,289.8278,290.0227,290.0228,290.523,,,,,,,,,,,,,,0.7601,1,,,,,,,,,,,,,,m,,,,,,,,,,,,,,,,39,0,290.5238,291.2908,m,1,0.7601,,[],[],[],[],[],[],[],291.2908,293.2794,293.2794,293.2797,[],[],[],[],[],[],[],,293.2797,293.2798,-0.174166641,-0.191666718,0,0,0,,0,38,38,143,1,4,word,REMOVAL,print,removal_p.png,,,,,,
,,,,30186,001,2025-11-09_21h40.45.851,HW_LDT_1,2024.2.4,Win32,60.60606061,,,,,,,,,,,,,,,,,,,,,293.2813,293.4759,293.476,293.9762,,,,,,,,,,,,,,1.0418,1,,,,,,,,,,,,,,m,,,,,,,,,,,,,,,,40,0,293.9768,295.027,m,1,1.0418,,[],[],[],[],[],[],[],295.0271,297.0285,297.0286,297.0288,[],[],[],[],[],[],[],,297.0289,297.029,-0.174166641,-0.191666718,0,0,0,,0,39,39,136,1,4,word,RADICAL,print,radical_p.png,,,,,,
,,,,30186,001,2025-11-09_21h40.45.851,HW_LDT_1,2024.2.4,Win32,60.60606061,,,,,,,,,,,,,,,,,,,,,297.0301,297.2289,297.2289,297.7294,,,,,,,,,,,,,,2.4099,0,,,,,,,,,,,,,,m,,,,,,,,,,,,,,,,41,0,297.7301,300.1481,z,0,2.4099,,[],[],[],[],[],[],[],300.1483,302.149,302.149,302.1492,[],[],[],[],[],[],[],,302.1493,302.1494,-0.174166641,-0.191666718,0,0,0,,0,40,40,92,1,4,word,CATEGORY,cursive,category_c.png,,,,,,
,,,,30186,001,2025-11-09_21h40.45.851,HW_LDT_1,2024.2.4,Win32,60.60606061,,,,,,,,,,,,,,,,,,,,,302.1505,302.349,302.3491,302.8496,,,,,,,,,,,,,,1.8409,1,,,,,,,,,,,,,,z,,,,,,,,,,,,,,,,42,1,302.85,304.7021,z,1,1.8409,,[],[],[],[],[],[],[],304.7022,306.7036,306.7037,308.5429,[],[],[],[],[],[],[],z,308.543,308.5431,-0.174166641,-0.191666718,0,0,0,,0,41,41,8,1,4,RL,casagity,cursive,casagity_c.png,1.8385,,,,,
,,,,30186,001,2025-11-09_21h40.45.851,HW_LDT_1,2024.2.4,Win32,60.60606061,,,,,,,,,,,,,,,,,,,,,308.5442,308.7384,308.7384,309.2389,,,,,,,,,,,,,,1.5638,1,,,,,,,,,,,,,,m,,,,,,,,,,,,,,,,43,0,309.2395,310.8071,m,1,1.5638,,[],[],[],[],[],[],[],310.8073,312.7979,312.798,312.7982,[],[],[],[],[],[],[],,312.7982,312.7982,-0.174166641,-0.191666718,0,0,0,,0,42,42,117,1,4,word,MARINE,print,marine_p.png,,,,,,
,,,,30186,001,2025-11-09_21h40.45.851,HW_LDT_1,2024.2.4,Win32,60.60606061,,,,,,,,,,,,,,,,,,,,,312.8002,312.9917,312.9918,313.4919,,,,,,,,,,,,,,1.9735,1,,,,,,,,,,,,,,m,,,,,,,,,,,,,,,,44,0,313.4925,315.467,m,1,1.9735,,[],[],[],[],[],[],[],315.4671,317.4623,317.4624,317.4626,[],[],[],[],[],[],[],,317.4628,317.4629,-0.174166641,-0.191666718,0,0,0,,0,43,43,128,1,4,word,PACIFIC,cursive,pacific_c.png,,,,,,
,,,,30186,001,2025-11-09_21h40.45.851,HW_LDT_1,2024.2.4,Win32,60.60606061,,,,,,,,,,,,,,,,,,,,,317.4645,317.6623,317.6624,318.1632,,,,,,,,,,,,,,1.0922,1,,,,,,,,,,,,,,m,,,,,,,,,,,,,,,,45,0,318.1638,319.2631,m,1,1.0922,,[],[],[],[],[],[],[],319.2631,321.2648,321.2648,321.265,[],[],[],[],[],[],[],,321.2651,321.2652,-0.174166641,-0.191666718,0,0,0,,0,44,44,93,1,4,word,CEREMONY,print,ceremony_p.png,,,,,,
,,,,30186,001,2025-11-09_21h40.45.851,HW_LDT_1,2024.2.4,Win32,60.60606061,,,,,,,,,,,,,,,,,,,,,321.2664,321.465,321.465,321.9655,,,,,,,,,,,,,,0.7999,1,,,,,,,,,,,,,,z,,,,,,,,,,,,,,,,46,0,321.9658,322.7664,z,1,0.7999,,[],[],[],[],[],[],[],322.7664,324.7552,324.7553,324.7558,[],[],[],[],[],[],[],,324.7559,324.7561,-0.174166641,-0.191666718,0,0,0,,0,45,45,40,1,4,RL,reconal,print,reconal_p.png,,,,,,
,,,,30186,001,2025-11-09_21h40.45.851,HW_LDT_1,2024.2.4,Win32,60.60606061,,,,,,,,,,,,,,,,,,,,,324.758,324.9517,324.9517,325.4516,,,,,,,,,,,,,,0.9411,1,,,,,,,,,,,,,,z,,,,,,,,,,,,,,,,47,1,325.4521,326.403,z,1,0.9411,,[],[],[],[],[],[],[],326.4032,328.4048,328.4048,329.4382,[],[],[],[],[],[],[],m,329.4382,329.4384,-0.174166641,-0.191666718,0,0,0,,0,46,46,20,1,4,RL,gralekul,print,gralekul_p.png,1.0217,,,,,
,,,,30186,001,2025-11-09_21h40.45.851,HW_LDT_1,2024.2.4,Win32,60.60606061,,,,,,,,,,,,,,,,,,,,,329.4397,329.6383,329.6384,330.1392,,,,,,,,,,,,,,1.64,1,,,,,,,,,,,,,,z,,,,,,,,,,,,,,,,48,0,330.1398,331.7911,z,1,1.64,,[],[],[],[],[],[],[],331.7912,333.7926,333.7928,333.7929,[],[],[],[],[],[],[],,333.793,333.7931,-0.174166641,-0.191666718,0,0,0,,0,47,47,11,1,4,RL,clisimal,print,clisimal_p.png,,,,,,
,,,,30186,001,2025-11-09_21h40.45.851,HW_LDT_1,2024.2.4,Win32,60.60606061,,,,,,,,,,,,,,,,,,,,,333.7947,333.9928,333.9929,334.4826,,,,,,,,,,,,,,1.5023,1,,,,,,,,,,,,,,m,,,,,,,,,,,,,,,,49,0,334.4834,335.9951,m,1,1.5023,,[],[],[],[],[],[],[],335.9952,337.9959,337.996,337.9962,[],[],[],[],[],[],[],,337.9962,337.9964,-0.174166641,-0.191666718,0,0,0,,0,48,48,150,1,4,word,SENTIMENT,print,sentiment_p.png,,,,,,
,,,,30186,001,2025-11-09_21h40.45.851,HW_LDT_1,2024.2.4,Win32,60.60606061,,,,,,,,,,,,,,,,,,,,,337.9975,338.1853,338.1853,338.6966,,,,,,,,,,,,,,1.5972,1,,,,,,,,,,,,,,z,,,,,,,,,,,,,,,,50,0,338.6971,340.2978,z,1,1.5972,,[],[],[],[],[],[],[],340.2979,342.2993,342.2994,342.2997,[],[],[],[],[],[],[],,342.2997,342.2999,-0.174166641,-0.191666718,0,0,0,,0,49,49,57,1,4,TL,etidor,print,etidor_p.png,,,,,,
,,,,30186,001,2025-11-09_21h40.45.851,HW_LDT_1,2024.2.4,Win32,60.60606061,,,,,,,,,,,,,,,,,,,,,342.3008,342.4999,342.5,343.0003,,,,,,,,,,,,,,0.8888,1,,,,,,,,,,,,,,m,,,,,,,,,,,,,,,,51,0,343.0009,343.9004,m,1,0.8888,,[],[],[],[],[],[],[],343.9006,345.9026,345.9027,345.9029,[],[],[],[],[],[],[],,345.9029,345.903,-0.174166641,-0.191666718,0,0,0,,0,50,50,89,1,4,word,CAPACITY,cursive,capacity_c.png,,,,,,
,,,,30186,001,2025-11-09_21h40.45.851,HW_LDT_1,2024.2.4,Win32,60.60606061,,,,,,,,,,,,,,,,,,,,,345.9043,346.1066,346.1067,346.6027,,,,,,,,,,,,,,1.1767,1,,,,,,,,,,,,,,m,,,,,,,,,,,,,,,,52,0,346.6032,347.7876,m,1,1.1767,,[],[],[],[],[],[],[],347.7877,349.7894,349.7895,349.7898,[],[],[],[],[],[],[],,349.7898,349.7899,-0.174166641,-0.191666718,0,0,0,,0,51,51,131,1,4,word,POPULAR,print,popular_p.png,,,,,,
,,,,30186,001,2025-11-09_21h40.45.851,HW_LDT_1,2024.2.4,Win32,60.60606061,,,,,,,,,,,,,,,,,,,,,349.7912,349.989,349.9891,350.4897,,,,,,,,,,,,,,1.0485,1,,,,,,,,,,,,,,z,,,,,,,,,,,,,,,,53,0,350.4902,351.5401,z,1,1.0485,,[],[],[],[],[],[],[],351.5401,353.5489,353.549,353.5493,[],[],[],[],[],[],[],,353.5494,353.5498,-0.174166641,-0.191666718,0,0,0,,0,52,52,67,1,4,TL,polupar,print,polupar_p.png,,,,,,
,,,,30186,001,2025-11-09_21h40.45.851,HW_LDT_1,2024.2.4,Win32,60.60606061,,,,,,,,,,,,,,,,,,,,,353.5512,353.7427,353.7427,354.2426,,,,,,,,,,,,,,1.4867,1,,,,,,,,,,,,,,m,,,,,,,,,,,,,,,,54,0,354.2432,355.7307,m,1,1.4867,,[],[],[],[],[],[],[],355.7308,357.729,357.7291,357.7293,[],[],[],[],[],[],[],,357.7293,357.7294,-0.174166641,-0.191666718,0,0,0,,0,53,53,139,1,4,word,REGULAR,cursive,regular_c.png,,,,,,
,,,,30186,001,2025-11-09_21h40.45.851,HW_LDT_1,2024.2.4,Win32,60.60606061,,,,,,,,,,,,,,,,,,,,,357.7306,357.9294,357.9294,358.4298,,,,,,,,,,,,,,1.597,1,,,,,,,,,,,,,,z,,,,,,,,,,,,,,,,55,0,358.4303,360.0307,z,1,1.597,,[],[],[],[],[],[],[],360.0308,362.0327,362.0328,362.033,[],[],[],[],[],[],[],,362.033,362.0331,-0.174166641,-0.191666718,0,0,0,,0,54,54,36,1,4,RL,rabigly,cursive,rabigly_c.png,,,,,,
,,,,30186,001,2025-11-09_21h40.45.851,HW_LDT_1,2024.2.4,Win32,60.60606061,,,,,,,,,,,,,,,,,,,,,362.0344,362.2389,362.2389,362.733,,,,,,,,,,,,,,1.0986,1,,,,,,,,,,,,,,m,,,,,,,,,,,,,,,,56,1,362.7334,363.8336,m,1,1.0986,,[],[],[],[],[],[],[],363.8337,365.8357,365.8358,366.9864,[],[],[],[],[],[],[],z,366.9865,366.9868,-0.174166641,-0.191666718,0,0,0,,0,55,55,153,1,4,word,STOLEN,cursive,stolen_c.png,1.1446,,,,,
,,,,30186,001,2025-11-09_21h40.45.851,HW_LDT_1,2024.2.4,Win32,60.60606061,,,,,,,,,,,,,,,,,,,,,366.9877,367.1867,367.1867,367.688,,,,,,,,,,,,,,1.3926,1,,,,,,,,,,,,,,m,,,,,,,,,,,,,,,,57,0,367.6886,369.088,m,1,1.3926,,[],[],[],[],[],[],[],369.0881,371.0793,371.0794,371.0795,[],[],[],[],[],[],[],,371.0796,371.0796,-0.174166641,-0.191666718,0,0,0,,0,56,56,148,1,4,word,SALINE,print,saline_p.png,,,,,,
,,,,30186,001,2025-11-09_21h40.45.851,HW_LDT_1,2024.2.4,Win32,60.60606061,,,,,,,,,,,,,,,,,,,,,371.081,371.2799,371.2799,371.777,,,,,,,,,,,,,,0.7721,1,,,,,,,,,,,,,,m,,,,,,,,,,,,,,,,58,0,371.7776,372.5582,m,1,0.7721,,[],[],[],[],[],[],[],372.5583,374.5598,374.5599,374.56,[],[],[],[],[],[],[],,374.5601,374.5602,-0.174166641,-0.191666718,0,0,0,,0,57,57,121,1,4,word,MISTAKE,print,mistake_p.png,,,,,,
,,,,30186,001,2025-11-09_21h40.45.851,HW_LDT_1,2024.2.4,Win32,60.60606061,,,,,,,,,,,,,,,,,,,,,374.5618,374.7659,374.7659,375.2602,,,,,,,,,,,,,,1.8962,1,,,,,,,,,,,,,,z,,,,,,,,,,,,,,,,59,0,375.2608,377.1614,z,1,1.8962,,[],[],[],[],[],[],[],377.1614,379.1629,379.1629,379.163,[],[],[],[],[],[],[],,379.1631,379.1631,-0.174166641,-0.191666718,0,0,0,,0,58,58,6,1,4,RL,caleberia,cursive,caleberia_c.png,,,,,,
,,,,30186,001,2025-11-09_21h40.45.851,HW_LDT_1,2024.2.4,Win32,60.60606061,,,,,,,,,,,,,,,,,,,,,379.1643,379.3698,379.3699,379.864,,,,,,,,,,,,,,1.2236,1,,,,,,,,,,,,,,z,,,,,,,,,,,,,,,,60,1,379.8649,381.0985,z,1,1.2236,,[],[],[],[],[],[],[],381.0986,383.0896,383.0897,384.2903,[],[],[],[],[],[],[],z,384.2903,384.2906,-0.174166641,-0.191666718,0,0,0,,0,59,59,74,1,4,TL,rerite,print,rerite_p.png,1.2001,,,,,
,,,,30186,001,2025-11-09_21h40.45.851,HW_LDT_1,2024.2.4,Win32,60.60606061,,,,,,,,,,,,,,,,,,,,,384.2918,384.4905,384.4905,384.985,,,,,,,,,,,,,,1.0772,1,,,,,,,,,,,,,,z,,,,,,,,,,,,,,,,61,0,384.9858,386.0691,z,1,1.0772,,[],[],[],[],[],[],[],386.0692,388.0709,388.071,388.0711,[],[],[],[],[],[],[],,388.0712,388.0713,-0.174166641,-0.191666718,0,0,0,,0,60,60,48,1,4,RL,vabifity,print,vabifity_p.png,,,,,,
,,,,30186,001,2025-11-09_21h40.45.851,HW_LDT_1,2024.2.4,Win32,60.60606061,,,,,,,,,,,,,,,,,,,,,388.0727,388.2712,388.2712,388.7714,,,,,,,,,,,,,,1.3984,1,,,,,,,,,,,,,,z,,,,,,,,,,,,,,,,62,0,388.7719,390.1719,z,1,1.3984,,[],[],[],[],[],[],[],390.1719,392.1743,392.1743,392.1744,[],[],[],[],[],[],[],,392.1745,392.1746,-0.174166641,-0.191666718,0,0,0,,0,61,61,79,1,4,TL,tritube,print,tritube_p.png,,,,,,
,,,,30186,001,2025-11-09_21h40.45.851,HW_LDT_1,2024.2.4,Win32,60.60606061,,,,,,,,,,,,,,,,,,,,,392.1761,392.3743,392.3744,392.8747,,,,,,,,,,,,,,0.7921,1,,,,,,,,,,,,,,m,,,,,,,,,,,,,,,,63,0,392.8753,393.6757,m,1,0.7921,,[],[],[],[],[],[],[],393.6759,395.6772,395.6772,395.6774,[],[],[],[],[],[],[],,395.6774,395.6777,-0.174166641,-0.191666718,0,0,0,,0,62,62,103,1,4,word,DISPUTE,print,dispute_p.png,,,,,,
,,,,30186,001,2025-11-09_21h40.45.851,HW_LDT_1,2024.2.4,Win32,60.60606061,,,,,,,,,,,,,,,,,,,,,395.6794,395.8769,395.877,396.3775,,,,,,,,,,,,,,0.7897,1,,,,,,,,,,,,,,z,,,,,,,,,,,,,,,,64,0,396.3782,397.1688,z,1,0.7897,,[],[],[],[],[],[],[],397.1688,399.1632,399.1633,399.1635,[],[],[],[],[],[],[],,399.1635,399.1638,-0.174166641,-0.191666718,0,0,0,,0,63,63,29,1,4,RL,motide,print,motide_p.png,,,,,,
,,,,30186,001,2025-11-09_21h40.45.851,HW_LDT_1,2024.2.4,Win32,60.60606061,,,,,,,,,,,,,,,,,,,,,399.1653,399.3639,399.3639,399.8634,,,,,,,,,,,,,,0.8058,0,,,,,,,,,,,,,,m,,,,,,,,,,,,,,,,65,0,399.864,400.6815,z,0,0.8058,,[],[],[],[],[],[],[],400.6815,402.6839,402.6839,402.6843,[],[],[],[],[],[],[],,402.6844,402.6845,-0.174166641,-0.191666718,0,0,0,,0,64,64,106,1,4,word,ELABORATE,cursive,elaborate_c.png,,,,,,
,,,,30186,001,2025-11-09_21h40.45.851,HW_LDT_1,2024.2.4,Win32,60.60606061,,,,,,,,,,,,,,,,,,,,,402.6857,402.8833,402.8834,403.383,,,,,,,,,,,,,,1.3575,1,,,,,,,,,,,,,,z,,,,,,,,,,,,,,,,66,0,403.3837,404.7508,z,1,1.3575,,[],[],[],[],[],[],[],404.7508,406.7529,406.7529,406.7533,[],[],[],[],[],[],[],,406.7533,406.7535,-0.174166641,-0.191666718,0,0,0,,0,65,65,49,1,4,RL,vesofity,cursive,vesofity_c.png,,,,,,
,,,,30186,001,2025-11-09_21h40.45.851,HW_LDT_1,2024.2.4,Win32,60.60606061,,,,,,,,,,,,,,,,,,,,,406.7547,406.9531,406.9532,407.4533,,,,,,,,,,,,,,0.6921,1,,,,,,,,,,,,,,z,,,,,,,,,,,,,,,,67,1,407.4539,408.1542,z,1,0.6921,,[],[],[],[],[],[],[],408.1544,410.1457,410.1457,411.29,[],[],[],[],[],[],[],m,411.2901,411.2903,-0.174166641,-0.191666718,0,0,0,,0,66,66,42,1,4,RL,revune,print,revune_p.png,1.1391,,,,,
,,,,30186,001,2025-11-09_21h40.45.851,HW_LDT_1,2024.2.4,Win32,60.60606061,,,,,,,,,,,,,,,,,,,,,411.2916,411.4793,411.4793,411.9906,,,,,,,,,,,,,,1.5393,1,,,,,,,,,,,,,,m,,,,,,,,,,,,,,,,68,0,411.9914,413.5422,m,1,1.5393,,[],[],[],[],[],[],[],413.5423,415.5434,415.5435,415.5438,[],[],[],[],[],[],[],,415.5438,415.544,-0.174166641,-0.191666718,0,0,0,,0,67,67,100,1,4,word,DECADE,cursive,decade_c.png,,,,,,
,,,,30186,001,2025-11-09_21h40.45.851,HW_LDT_1,2024.2.4,Win32,60.60606061,,,,,,,,,,,,,,,,,,,,,415.5456,415.7318,415.7318,416.2332,,,,,,,,,,,,,,0.7816,1,,,,,,,,,,,,,,m,,,,,,,,,,,,,,,,69,0,416.2338,417.0169,m,1,0.7816,,[],[],[],[],[],[],[],417.017,419.0131,419.0131,419.0134,[],[],[],[],[],[],[],,419.0134,419.0135,-0.174166641,-0.191666718,0,0,0,,0,68,68,111,1,4,word,INDICATE,print,indicate_p.png,,,,,,
,,,,30186,001,2025-11-09_21h40.45.851,HW_LDT_1,2024.2.4,Win32,60.60606061,,,,,,,,,,,,,,,,,,,,,419.0148,419.2135,419.2136,419.7144,,,,,,,,,,,,,,0.9075,1,,,,,,,,,,,,,,z,,,,,,,,,,,,,,,,70,1,419.715,420.631,z,1,0.9075,,[],[],[],[],[],[],[],420.6311,422.6326,422.6326,424.0676,[],[],[],[],[],[],[],m,424.0677,424.0678,-0.174166641,-0.191666718,0,0,0,,0,69,69,0,1,4,RL,abanemy,print,abanemy_p.png,1.4294,,,,,
,,,,30186,001,2025-11-09_21h40.45.851,HW_LDT_1,2024.2.4,Win32,60.60606061,,,,,,,,,,,,,,,,,,,,,424.0691,424.2673,424.2673,424.7678,,,,,,,,,,,,,,6.5035,1,,,,,,,,,,,,,,z,,,,,,,,,,,,,,,,71,0,424.7685,431.2732,z,1,6.5035,,[],[],[],[],[],[],[],431.2734,433.2749,433.275,433.2754,[],[],[],[],[],[],[],,433.2754,433.2755,-0.174166641,-0.191666718,0,0,0,,0,70,70,23,1,4,RL,linefal,cursive,linefal_c.png,,,,,,
,,,,30186,001,2025-11-09_21h40.45.851,HW_LDT_1,2024.2.4,Win32,60.60606061,,,,,,,,,,,,,,,,,,,,,433.2767,433.4754,433.4754,433.9755,,,,,,,,,,,,,,2.0734,1,,,,,,,,,,,,,,z,,,,,,,,,,,,,,,,72,1,433.9761,436.0502,z,1,2.0734,,[],[],[],[],[],[],[],436.0504,438.0459,438.046,440.0302,[],[],[],[],[],[],[],z,440.0303,440.0305,-0.174166641,-0.191666718,0,0,0,,0,71,71,41,1,4,RL,rebicent,cursive,rebicent_c.png,1.9789,,,,,
,,,,30186,001,2025-11-09_21h40.45.851,HW_LDT_1,2024.2.4,Win32,60.60606061,,,,,,,,,,,,,,,,,,,,,440.0322,440.2307,440.2308,440.7345,,,,,,,,,,,,,,1.2701,1,,,,,,,,,,,,,,m,,,,,,,,,,,,,,,,73,0,440.7349,442.0153,m,1,1.2701,,[],[],[],[],[],[],[],442.0153,444.0241,444.0242,444.0244,[],[],[],[],[],[],[],,444.0244,444.0245,-0.174166641,-0.191666718,0,0,0,,0,72,72,90,1,4,word,CAPITAL,print,capital_p.png,,,,,,
,,,,30186,001,2025-11-09_21h40.45.851,HW_LDT_1,2024.2.4,Win32,60.60606061,,,,,,,,,,,,,,,,,,,,,444.0261,444.2169,444.2169,444.7184,,,,,,,,,,,,,,1.1967,1,,,,,,,,,,,,,,m,,,,,,,,,,,,,,,,74,0,444.7189,445.9184,m,1,1.1967,,[],[],[],[],[],[],[],445.9186,447.9199,447.92,447.9202,[],[],[],[],[],[],[],,447.9202,447.9202,-0.174166641,-0.191666718,0,0,0,,0,73,73,86,1,4,word,BESIDE,print,beside_p.png,,,,,,
,,,,30186,001,2025-11-09_21h40.45.851,HW_LDT_1,2024.2.4,Win32,60.60606061,,,,,,,,,,,,,,,,,,,,,447.9211,448.1202,448.1203,448.6208,,,,,,,,,,,,,,2.3474,1,,,,,,,,,,,,,,z,,,,,,,,,,,,,,,,75,0,448.6215,450.9727,z,1,2.3474,,[],[],[],[],[],[],[],450.9728,452.9749,452.9749,452.9752,[],[],[],[],[],[],[],,452.9752,452.9753,-0.174166641,-0.191666718,0,0,0,,0,74,74,1,1,4,RL,afaneur,cursive,afaneur_c.png,,,,,,
,,,,30186,001,2025-11-09_21h40.45.851,HW_LDT_1,2024.2.4,Win32,60.60606061,,,,,,,,,,,,,,,,,,,,,452.9768,453.1783,453.1783,453.675,,,,,,,,,,,,,,1.2738,1,,,,,,,,,,,,,,z,,,,,,,,,,,,,,,,76,0,453.6756,454.9593,z,1,1.2738,,[],[],[],[],[],[],[],454.9593,456.9611,456.9611,456.9612,[],[],[],[],[],[],[],,456.9612,456.9613,-0.174166641,-0.191666718,0,0,0,,0,75,75,9,1,4,RL,cafigal,print,cafigal_p.png,,,,,,
,,,,30186,001,2025-11-09_21h40.45.851,HW_LDT_1,2024.2.4,Win32,60.60606061,,,,,,,,,,,,,,,,,,,,,456.9624,457.1613,457.1614,457.6651,,,,,,,,,,,,,,1.4354,1,,,,,,,,,,,,,,z,,,,,,,,,,,,,,,,77,0,457.6654,459.1123,z,1,1.4354,,[],[],[],[],[],[],[],459.1124,461.1146,461.1147,461.1148,[],[],[],[],[],[],[],,461.1149,461.1151,-0.174166641,-0.191666718,0,0,0,,0,76,76,19,1,4,RL,elacodate,cursive,elacodate_c.png,,,,,,
,,,,30186,001,2025-11-09_21h40.45.851,HW_LDT_1,2024.2.4,Win32,60.60606061,,,,,,,,,,,,,,,,,,,,,461.1168,461.3149,461.3149,461.8154,,,,,,,,,,,,,,1.1295,1,,,,,,,,,,,,,,m,,,,,,,,,,,,,,,,78,0,461.8161,462.9493,m,1,1.1295,,[],[],[],[],[],[],[],462.9494,464.9508,464.9509,464.951,[],[],[],[],[],[],[],,464.951,464.9511,-0.174166641,-0.191666718,0,0,0,,0,77,77,94,1,4,word,CLINICAL,print,clinical_p.png,,,,,,
,,,,30186,001,2025-11-09_21h40.45.851,HW_LDT_1,2024.2.4,Win32,60.60606061,,,,,,,,,,,,,,,,,,,,,464.9521,465.1511,465.1511,465.6515,,,,,,,,,,,,,,1.2753,1,,,,,,,,,,,,,,m,,,,,,,,,,,,,,,,79,0,465.6521,466.9361,m,1,1.2753,,[],[],[],[],[],[],[],466.9362,468.9379,468.938,468.9381,[],[],[],[],[],[],[],,468.9382,468.9383,-0.174166641,-0.191666718,0,0,0,,0,78,78,158,1,4,word,VELOCITY,cursive,velocity_c.png,,,,,,
,,,,30186,001,2025-11-09_21h40.45.851,HW_LDT_1,2024.2.4,Win32,60.60606061,,,,,,,,,,,,,,,,,,,,,468.9395,469.1375,469.1376,469.6381,,,,,,,,,,,,,,1.0886,1,,,,,,,,,,,,,,m,,,,,,,,,,,,,,,,80,0,469.6387,470.7289,m,1,1.0886,,[],[],[],[],[],[],[],470.729,472.7236,472.7236,472.7239,[],[],[],[],[],[],[],,472.7239,477.2,-0.174166641,-0.191666718,0,0,0,space,0,79,79,133,1,4,word,PROVIDE,cursive,provide_c.png,,,4.4537,,,
,,,,30186,001,2025-11-09_21h40.45.851,HW_LDT_1,2024.2.4,Win32,60.60606061,,,,,,,,,,,,,,,,,,,,,477.2015,477.3947,477.3947,477.8957,,,,,,,,,,,,,,1.6255,1,,,,,,,,,,,,,,m,,,,,,,,,,,,,,,,81,0,477.8966,479.5295,m,1,1.6255,,[],[],[],[],[],[],[],479.5296,481.5315,481.5316,481.5318,[],[],[],[],[],[],[],,481.5318,481.5319,-0.174166641,-0.191666718,0,0,0,,0,80,80,104,1,4,word,DOMINANT,cursive,dominant_c.png,,,,,,
,,,,30186,001,2025-11-09_21h40.45.851,HW_LDT_1,2024.2.4,Win32,60.60606061,,,,,,,,,,,,,,,,,,,,,481.5331,481.7316,481.7317,482.2318,,,,,,,,,,,,,,1.7419,1,,,,,,,,,,,,,,z,,,,,,,,,,,,,,,,82,0,482.2325,483.9831,z,1,1.7419,,[],[],[],[],[],[],[],483.9833,485.9853,485.9853,485.9854,[],[],[],[],[],[],[],,485.9855,485.9856,-0.174166641,-0.191666718,0,0,0,,0,81,81,35,1,4,RL,probice,cursive,probice_c.png,,,,,,
,,,,30186,001,2025-11-09_21h40.45.851,HW_LDT_1,2024.2.4,Win32,60.60606061,,,,,,,,,,,,,,,,,,,,,485.9867,486.1849,486.1849,486.6864,,,,,,,,,,,,,,1.0886,1,,,,,,,,,,,,,,z,,,,,,,,,,,,,,,,83,0,486.6877,487.7867,z,1,1.0886,,[],[],[],[],[],[],[],487.7868,489.7879,489.7879,489.7881,[],[],[],[],[],[],[],,489.7881,489.7882,-0.174166641,-0.191666718,0,0,0,,0,82,82,60,1,4,TL,hetirage,print,hetirage_p.png,,,,,,
,,,,30186,001,2025-11-09_21h40.45.851,HW_LDT_1,2024.2.4,Win32,60.60606061,,,,,,,,,,,,,,,,,,,,,489.7894,489.9946,489.9947,490.4884,,,,,,,,,,,,,,1.7423,1,,,,,,,,,,,,,,z,,,,,,,,,,,,,,,,84,0,490.4891,492.2403,z,1,1.7423,,[],[],[],[],[],[],[],492.2403,494.2422,494.2422,494.2423,[],[],[],[],[],[],[],,494.2423,494.2425,-0.174166641,-0.191666718,0,0,0,,0,83,83,59,1,4,TL,fornute,cursive,fornute_c.png,,,,,,
,,,,30186,001,2025-11-09_21h40.45.851,HW_LDT_1,2024.2.4,Win32,60.60606061,,,,,,,,,,,,,,,,,,,,,494.2436,494.4421,494.4421,494.9426,,,,,,,,,,,,,,0.857,1,,,,,,,,,,,,,,z,,,,,,,,,,,,,,,,85,0,494.9432,495.8101,z,1,0.857,,[],[],[],[],[],[],[],495.8102,497.8114,497.8115,497.8117,[],[],[],[],[],[],[],,497.8118,497.8119,-0.174166641,-0.191666718,0,0,0,,0,84,84,39,1,4,RL,relone,cursive,relone_c.png,,,,,,
,,,,30186,001,2025-11-09_21h40.45.851,HW_LDT_1,2024.2.4,Win32,60.60606061,,,,,,,,,,,,,,,,,,,,,497.8134,498.0119,498.012,498.5123,,,,,,,,,,,,,,1.1882,1,,,,,,,,,,,,,,z,,,,,,,,,,,,,,,,86,0,498.5128,499.7018,z,1,1.1882,,[],[],[],[],[],[],[],499.7019,501.6978,501.6979,501.6981,[],[],[],[],[],[],[],,501.6982,501.6983,-0.174166641,-0.191666718,0,0,0,,0,85,85,71,1,4,TL,racidal,print,racidal_p.png,,,,,,
,,,,30186,001,2025-11-09_21h40.45.851,HW_LDT_1,2024.2.4,Win32,60.60606061,,,,,,,,,,,,,,,,,,,,,501.7,501.8985,501.8986,502.3989,,,,,,,,,,,,,,0.8096,1,,,,,,,,,,,,,,z,,,,,,,,,,,,,,,,87,0,502.3996,503.2159,z,1,0.8096,,[],[],[],[],[],[],[],503.216,505.2245,505.2245,505.2249,[],[],[],[],[],[],[],,505.2249,505.225,-0.174166641,-0.191666718,0,0,0,,0,86,86,25,1,4,RL,macise,print,macise_p.png,,,,,,
,,,,30186,001,2025-11-09_21h40.45.851,HW_LDT_1,2024.2.4,Win32,60.60606061,,,,,,,,,,,,,,,,,,,,,505.2264,505.4181,505.4182,505.9187,,,,,,,,,,,,,,0.9721,1,,,,,,,,,,,,,,z,,,,,,,,,,,,,,,,88,0,505.9193,506.9021,z,1,0.9721,,[],[],[],[],[],[],[],506.9021,508.9042,508.9043,508.9045,[],[],[],[],[],[],[],,508.9045,508.9046,-0.174166641,-0.191666718,0,0,0,,0,87,87,47,1,4,RL,stopave,print,stopave_p.png,,,,,,
,,,,30186,001,2025-11-09_21h40.45.851,HW_LDT_1,2024.2.4,Win32,60.60606061,,,,,,,,,,,,,,,,,,,,,508.906,509.104,509.104,509.605,,,,,,,,,,,,,,1.8132,1,,,,,,,,,,,,,,z,,,,,,,,,,,,,,,,89,0,509.6056,511.4226,z,1,1.8132,,[],[],[],[],[],[],[],511.4227,513.4247,513.4247,513.4249,[],[],[],[],[],[],[],,513.425,513.4251,-0.174166641,-0.191666718,0,0,0,,0,88,88,69,1,4,TL,quafily,print,quafily_p.png,,,,,,
,,,,30186,001,2025-11-09_21h40.45.851,HW_LDT_1,2024.2.4,Win32,60.60606061,,,,,,,,,,,,,,,,,,,,,513.4269,513.6244,513.6244,514.1286,,,,,,,,,,,,,,1.0379,1,,,,,,,,,,,,,,m,,,,,,,,,,,,,,,,90,0,514.1294,515.1758,m,1,1.0379,,[],[],[],[],[],[],[],515.1758,517.1775,517.1775,517.1778,[],[],[],[],[],[],[],,517.1778,517.178,-0.174166641,-0.191666718,0,0,0,,0,89,89,137,1,4,word,RAPIDLY,cursive,rapidly_c.png,,,,,,
,,,,30186,001,2025-11-09_21h40.45.851,HW_LDT_1,2024.2.4,Win32,60.60606061,,,,,,,,,,,,,,,,,,,,,517.179,517.3777,517.3777,517.8784,,,,,,,,,,,,,,2.0744,1,,,,,,,,,,,,,,z,,,,,,,,,,,,,,,,91,0,517.879,519.9634,z,1,2.0744,,[],[],[],[],[],[],[],519.9635,521.9649,521.9649,521.965,[],[],[],[],[],[],[],,521.9652,521.9653,-0.174166641,-0.191666718,0,0,0,,0,90,90,13,1,4,RL,crisival,cursive,crisival_c.png,,,,,,
,,,,30186,001,2025-11-09_21h40.45.851,HW_LDT_1,2024.2.4,Win32,60.60606061,,,,,,,,,,,,,,,,,,,,,521.9667,522.1657,522.1658,522.6657,,,,,,,,,,,,,,1.8928,1,,,,,,,,,,,,,,z,,,,,,,,,,,,,,,,92,1,522.6664,524.5666,z,1,1.8928,,[],[],[],[],[],[],[],524.5668,526.5692,526.5692,528.2865,[],[],[],[],[],[],[],z,528.2865,528.2866,-0.174166641,-0.191666718,0,0,0,,0,91,91,72,1,4,TL,relugar,cursive,relugar_c.png,1.7159,,,,,
,,,,30186,001,2025-11-09_21h40.45.851,HW_LDT_1,2024.2.4,Win32,60.60606061,,,,,,,,,,,,,,,,,,,,,528.2879,528.4868,528.4869,528.9874,,,,,,,,,,,,,,1.0215,1,,,,,,,,,,,,,,z,,,,,,,,,,,,,,,,93,0,528.9879,530.0103,z,1,1.0215,,[],[],[],[],[],[],[],530.0105,532.0095,532.0096,532.0098,[],[],[],[],[],[],[],,532.0099,532.01,-0.174166641,-0.191666718,0,0,0,,0,92,92,76,1,4,TL,setanor,print,setanor_p.png,,,,,,
,,,,30186,001,2025-11-09_21h40.45.851,HW_LDT_1,2024.2.4,Win32,60.60606061,,,,,,,,,,,,,,,,,,,,,532.0112,532.2065,532.2066,532.7122,,,,,,,,,,,,,,1.8205,1,,,,,,,,,,,,,,z,,,,,,,,,,,,,,,,94,0,532.713,534.5423,z,1,1.8205,,[],[],[],[],[],[],[],534.5423,536.5318,536.5318,536.5319,[],[],[],[],[],[],[],,536.532,536.532,-0.174166641,-0.191666718,0,0,0,,0,93,93,5,1,4,RL,bebine,print,bebine_p.png,,,,,,
,,,,30186,001,2025-11-09_21h40.45.851,HW_LDT_1,2024.2.4,Win32,60.60606061,,,,,,,,,,,,,,,,,,,,,536.5336,536.7272,536.7272,537.2311,,,,,,,,,,,,,,1.589,1,,,,,,,,,,,,,,z,,,,,,,,,,,,,,,,95,0,537.2317,538.8286,z,1,1.589,,[],[],[],[],[],[],[],538.8287,540.8303,540.8304,540.8309,[],[],[],[],[],[],[],,540.8309,540.8311,-0.174166641,-0.191666718,0,0,0,,0,94,94,70,1,4,TL,quatily,print,quatily_p.png,,,,,,
,,,,30186,001,2025-11-09_21h40.45.851,HW_LDT_1,2024.2.4,Win32,60.60606061,,,,,,,,,,,,,,,,,,,,,540.8331,541.0308,541.0309,541.5312,,,,,,,,,,,,,,0.9984,0,,,,,,,,,,,,,,m,,,,,,,,,,,,,,,,96,0,541.532,542.5315,z,0,0.9984,,[],[],[],[],[],[],[],542.5318,544.5339,544.5339,544.5341,[],[],[],[],[],[],[],,544.5341,544.5342,-0.174166641,-0.191666718,0,0,0,,0,95,95,130,1,4,word,POLICY,cursive,policy_c.png,,,,,,
,,,,30186,001,2025-11-09_21h40.45.851,HW_LDT_1,2024.2.4,Win32,60.60606061,,,,,,,,,,,,,,,,,,,,,544.5355,544.7238,544.7238,545.2346,,,,,,,,,,,,,,2.5249,1,,,,,,,,,,,,,,m,,,,,,,,,,,,,,,,97,1,545.2355,547.7698,m,1,2.5249,,[],[],[],[],[],[],[],547.7699,549.7713,549.7713,550.4881,[],[],[],[],[],[],[],z,550.4882,550.4883,-0.174166641,-0.191666718,0,0,0,,0,96,96,82,1,4,word,AMATEUR,cursive,amateur_c.png,0.7085,,,,,
,,,,30186,001,2025-11-09_21h40.45.851,HW_LDT_1,2024.2.4,Win32,60.60606061,,,,,,,,,,,,,,,,,,,,,550.4893,550.6888,550.6889,551.1765,,,,,,,,,,,,,,1.0071,1,,,,,,,,,,,,,,m,,,,,,,,,,,,,,,,98,0,551.1773,552.1896,m,1,1.0071,,[],[],[],[],[],[],[],552.1897,554.1919,554.1919,554.1921,[],[],[],[],[],[],[],,554.1922,554.1922,-0.174166641,-0.191666718,0,0,0,,0,97,97,123,1,4,word,MODERATE,print,moderate_p.png,,,,,,
,,,,30186,001,2025-11-09_21h40.45.851,HW_LDT_1,2024.2.4,Win32,60.60606061,,,,,,,,,,,,,,,,,,,,,554.194,554.3917,554.3917,554.8924,,,,,,,,,,,,,,1.4888,0,,,,,,,,,,,,,,m,,,,,,,,,,,,,,,,99,0,554.893,556.3826,z,0,1.4888,,[],[],[],[],[],[],[],556.3827,558.384,558.3841,558.3843,[],[],[],[],[],[],[],,558.3844,558.3845,-0.174166641,-0.191666718,0,0,0,,0,98,98,108,1,4,word,FORTUNE,cursive,fortune_c.png,,,,,,
,,,,30186,001,2025-11-09_21h40.45.851,HW_LDT_1,2024.2.4,Win32,60.60606061,,,,,,,,,,,,,,,,,,,,,558.3862,558.5786,558.5786,559.0791,,,,,,,,,,,,,,2.8161,1,,,,,,,,,,,,,,z,,,,,,,,,,,,,,,,100,0,559.0797,561.8975,z,1,2.8161,,[],[],[],[],[],[],[],561.8977,563.8996,563.8996,563.9,[],[],[],[],[],[],[],,563.9,563.9001,-0.174166641,-0.191666718,0,0,0,,0,99,99,17,1,4,RL,denficy,cursive,denficy_c.png,,,,,,
,,,,30186,001,2025-11-09_21h40.45.851,HW_LDT_1,2024.2.4,Win32,60.60606061,,,,,,,,,,,,,,,,,,,,,563.9011,564.0997,564.0998,564.6003,,,,,,,,,,,,,,0.8641,1,,,,,,,,,,,,,,m,,,,,,,,,,,,,,,,101,0,564.6008,565.4669,m,1,0.8641,,[],[],[],[],[],[],[],565.467,567.4698,567.4698,567.47,[],[],[],[],[],[],[],,567.4701,567.4702,-0.174166641,-0.191666718,0,0,0,,0,100,100,88,1,4,word,CAMERA,print,camera_p.png,,,,,,
,,,,30186,001,2025-11-09_21h40.45.851,HW_LDT_1,2024.2.4,Win32,60.60606061,,,,,,,,,,,,,,,,,,,,,567.472,567.6693,567.6695,568.1701,,,,,,,,,,,,,,1.0601,1,,,,,,,,,,,,,,z,,,,,,,,,,,,,,,,102,0,568.1711,569.2375,z,1,1.0601,,[],[],[],[],[],[],[],569.2376,571.2387,571.2387,571.239,[],[],[],[],[],[],[],,571.239,571.2391,-0.174166641,-0.191666718,0,0,0,,0,101,101,34,1,4,RL,posity,cursive,posity_c.png,,,,,,
,,,,30186,001,2025-11-09_21h40.45.851,HW_LDT_1,2024.2.4,Win32,60.60606061,,,,,,,,,,,,,,,,,,,,,571.2403,571.4393,571.4393,571.9396,,,,,,,,,,,,,,1.3115,1,,,,,,,,,,,,,,z,,,,,,,,,,,,,,,,103,0,571.9401,573.2574,z,1,1.3115,,[],[],[],[],[],[],[],573.2576,575.2654,575.2654,575.2656,[],[],[],[],[],[],[],,575.2656,575.2657,-0.174166641,-0.191666718,0,0,0,,0,102,102,16,1,4,RL,desifate,cursive,desifate_c.png,,,,,,
,,,,30186,001,2025-11-09_21h40.45.851,HW_LDT_1,2024.2.4,Win32,60.60606061,,,,,,,,,,,,,,,,,,,,,575.2673,575.4589,575.4591,575.9593,,,,,,,,,,,,,,1.2734,1,,,,,,,,,,,,,,m,,,,,,,,,,,,,,,,104,0,575.9598,577.2338,m,1,1.2734,,[],[],[],[],[],[],[],577.2341,579.2289,579.2289,579.2291,[],[],[],[],[],[],[],,579.2292,579.2293,-0.174166641,-0.191666718,0,0,0,,0,103,103,118,1,4,word,MEDICINE,cursive,medicine_c.png,,,,,,
,,,,30186,001,2025-11-09_21h40.45.851,HW_LDT_1,2024.2.4,Win32,60.60606061,,,,,,,,,,,,,,,,,,,,,579.2305,579.4356,579.4356,579.9295,,,,,,,,,,,,,,0.8471,1,,,,,,,,,,,,,,z,,,,,,,,,,,,,,,,105,1,579.9302,580.7798,z,1,0.8471,,[],[],[],[],[],[],[],580.7799,582.7818,582.7819,584.1326,[],[],[],[],[],[],[],z,584.1327,584.1329,-0.174166641,-0.191666718,0,0,0,,0,104,104,27,1,4,RL,menowy,print,menowy_p.png,1.3407,,,,,
,,,,30186,001,2025-11-09_21h40.45.851,HW_LDT_1,2024.2.4,Win32,60.60606061,,,,,,,,,,,,,,,,,,,,,584.1339,584.3326,584.3327,584.833,,,,,,,,,,,,,,1.7477,1,,,,,,,,,,,,,,m,,,,,,,,,,,,,,,,106,0,584.8336,586.5854,m,1,1.7477,,[],[],[],[],[],[],[],586.5855,588.5922,588.5923,588.5925,[],[],[],[],[],[],[],,588.5925,588.5926,-0.174166641,-0.191666718,0,0,0,,0,105,105,125,1,4,word,OPERATOR,print,operator_p.png,,,,,,
,,,,30186,001,2025-11-09_21h40.45.851,HW_LDT_1,2024.2.4,Win32,60.60606061,,,,,,,,,,,,,,,,,,,,,588.5941,588.7867,588.7867,589.2869,,,,,,,,,,,,,,0.7755,1,,,,,,,,,,,,,,z,,,,,,,,,,,,,,,,107,0,589.2874,590.0712,z,1,0.7755,,[],[],[],[],[],[],[],590.0714,592.0793,592.0793,592.0794,[],[],[],[],[],[],[],,592.0796,592.0797,-0.174166641,-0.191666718,0,0,0,,0,106,106,12,1,4,RL,conbicer,cursive,conbicer_c.png,,,,,,
,,,,30186,001,2025-11-09_21h40.45.851,HW_LDT_1,2024.2.4,Win32,60.60606061,,,,,,,,,,,,,,,,,,,,,592.0812,592.2729,592.2729,592.7733,,,,,,,,,,,,,,1.4139,1,,,,,,,,,,,,,,m,,,,,,,,,,,,,,,,108,0,592.7739,594.1912,m,1,1.4139,,[],[],[],[],[],[],[],594.1913,596.1929,596.193,596.1932,[],[],[],[],[],[],[],,596.1932,596.1932,-0.174166641,-0.191666718,0,0,0,,0,107,107,109,1,4,word,GRATEFUL,print,grateful_p.png,,,,,,
,,,,30186,001,2025-11-09_21h40.45.851,HW_LDT_1,2024.2.4,Win32,60.60606061,,,,,,,,,,,,,,,,,,,,,596.1944,596.3931,596.3932,596.8936,,,,,,,,,,,,,,1.3883,1,,,,,,,,,,,,,,m,,,,,,,,,,,,,,,,109,0,596.8942,598.2835,m,1,1.3883,,[],[],[],[],[],[],[],598.2835,600.2795,600.2795,600.2797,[],[],[],[],[],[],[],,600.2798,600.2798,-0.174166641,-0.191666718,0,0,0,,0,108,108,112,1,4,word,LIBERAL,cursive,liberal_c.png,,,,,,
,,,,30186,001,2025-11-09_21h40.45.851,HW_LDT_1,2024.2.4,Win32,60.60606061,,,,,,,,,,,,,,,,,,,,,600.2813,600.48,600.4801,600.9804,,,,,,,,,,,,,,3.5841,0,,,,,,,,,,,,,,m,,,,,,,,,,,,,,,,110,0,600.9811,604.566,z,0,3.5841,,[],[],[],[],[],[],[],604.566,606.5732,606.5733,606.5734,[],[],[],[],[],[],[],,606.5734,606.5735,-0.174166641,-0.191666718,0,0,0,,0,109,109,87,1,4,word,CAFETERIA,cursive,cafeteria_c.png,,,,,,
,,,,30186,001,2025-11-09_21h40.45.851,HW_LDT_1,2024.2.4,Win32,60.60606061,,,,,,,,,,,,,,,,,,,,,606.5749,606.7685,606.7686,607.2686,,,,,,,,,,,,,,1.5064,1,,,,,,,,,,,,,,m,,,,,,,,,,,,,,,,111,1,607.269,608.7767,m,1,1.5064,,[],[],[],[],[],[],[],608.7768,610.7719,610.7719,612.3894,[],[],[],[],[],[],[],m,612.3895,612.3896,-0.174166641,-0.191666718,0,0,0,,0,110,110,147,1,4,word,ROMANTIC,print,romantic_p.png,1.6153,,,,,
,,,,30186,001,2025-11-09_21h40.45.851,HW_LDT_1,2024.2.4,Win32,60.60606061,,,,,,,,,,,,,,,,,,,,,612.3906,612.5901,612.5902,613.0904,,,,,,,,,,,,,,1.2469,1,,,,,,,,,,,,,,z,,,,,,,,,,,,,,,,112,0,613.091,614.3414,z,1,1.2469,,[],[],[],[],[],[],[],614.3415,616.3434,616.3435,616.344,[],[],[],[],[],[],[],,616.3441,616.3443,-0.174166641,-0.191666718,0,0,0,,0,111,111,4,1,4,RL,betemit,cursive,betemit_c.png,,,,,,
,,,,30186,001,2025-11-09_21h40.45.851,HW_LDT_1,2024.2.4,Win32,60.60606061,,,,,,,,,,,,,,,,,,,,,616.3458,616.543,616.543,617.0436,,,,,,,,,,,,,,1.1288,1,,,,,,,,,,,,,,m,,,,,,,,,,,,,,,,113,1,617.0441,618.1775,m,1,1.1288,,[],[],[],[],[],[],[],618.1776,620.1802,620.1802,624.0488,[],[],[],[],[],[],[],m,624.0488,624.0489,-0.174166641,-0.191666718,0,0,0,,0,112,112,80,1,4,word,ACADEMY,print,academy_p.png,3.8577,,,,,
,,,,30186,001,2025-11-09_21h40.45.851,HW_LDT_1,2024.2.4,Win32,60.60606061,,,,,,,,,,,,,,,,,,,,,624.0498,624.2491,624.2492,624.7497,,,,,,,,,,,,,,1.24,1,,,,,,,,,,,,,,z,,,,,,,,,,,,,,,,114,1,624.7504,625.9916,z,1,1.24,,[],[],[],[],[],[],[],625.9919,627.9857,627.9857,629.1432,[],[],[],[],[],[],[],z,629.1433,629.1434,-0.174166641,-0.191666718,0,0,0,,0,113,113,33,1,4,RL,pamest,cursive,pamest_c.png,1.1567,,,,,
,,,,30186,001,2025-11-09_21h40.45.851,HW_LDT_1,2024.2.4,Win32,60.60606061,,,,,,,,,,,,,,,,,,,,,629.1449,629.3432,629.3433,629.8379,,,,,,,,,,,,,,1.1887,1,,,,,,,,,,,,,,m,,,,,,,,,,,,,,,,115,0,629.8386,631.028,m,1,1.1887,,[],[],[],[],[],[],[],631.028,633.0237,633.0237,633.0241,[],[],[],[],[],[],[],,633.0242,633.0244,-0.174166641,-0.191666718,0,0,0,,0,114,114,115,1,4,word,LOGICAL,print,logical_p.png,,,,,,
,,,,30186,001,2025-11-09_21h40.45.851,HW_LDT_1,2024.2.4,Win32,60.60606061,,,,,,,,,,,,,,,,,,,,,633.026,633.2136,633.2137,633.724,,,,,,,,,,,,,,1.0072,1,,,,,,,,,,,,,,m,,,,,,,,,,,,,,,,116,0,633.7246,634.7416,m,1,1.0072,,[],[],[],[],[],[],[],634.7417,636.73,636.7301,636.7302,[],[],[],[],[],[],[],,636.7302,636.7303,-0.174166641,-0.191666718,0,0,0,,0,115,115,105,1,4,word,EDITOR,print,editor_p.png,,,,,,
,,,,30186,001,2025-11-09_21h40.45.851,HW_LDT_1,2024.2.4,Win32,60.60606061,,,,,,,,,,,,,,,,,,,,,636.7324,636.9269,636.9269,637.4272,,,,,,,,,,,,,,1.5566,1,,,,,,,,,,,,,,m,,,,,,,,,,,,,,,,117,0,637.4282,638.995,m,1,1.5566,,[],[],[],[],[],[],[],638.9951,640.9973,640.9974,640.9975,[],[],[],[],[],[],[],,640.9975,640.9976,-0.174166641,-0.191666718,0,0,0,,0,116,116,152,1,4,word,SPECIMEN,cursive,specimen_c.png,,,,,,
,,,,30186,001,2025-11-09_21h40.45.851,HW_LDT_1,2024.2.4,Win32,60.60606061,,,,,,,,,,,,,,,,,,,,,640.9989,641.1973,641.1974,641.697,,,,,,,,,,,,,,2.6225,1,,,,,,,,,,,,,,z,,,,,,,,,,,,,,,,118,0,641.6977,644.3208,z,1,2.6225,,[],[],[],[],[],[],[],644.3209,646.3175,646.3175,646.3177,[],[],[],[],[],[],[],,646.3177,646.3177,-0.174166641,-0.191666718,0,0,0,,0,117,117,52,1,4,TL,cagetory,cursive,cagetory_c.png,,,,,,
,,,,30186,001,2025-11-09_21h40.45.851,HW_LDT_1,2024.2.4,Win32,60.60606061,,,,,,,,,,,,,,,,,,,,,646.3188,646.5177,646.5177,647.0181,,,,,,,,,,,,,,1.839,1,,,,,,,,,,,,,,m,,,,,,,,,,,,,,,,119,0,647.0187,648.8583,m,1,1.839,,[],[],[],[],[],[],[],648.8584,650.8551,650.8552,650.8555,[],[],[],[],[],[],[],,650.8555,650.8556,-0.174166641,-0.191666718,0,0,0,,0,118,118,126,1,4,word,OPTIMAL,print,optimal_p.png,,,,,,
,,,,30186,001,2025-11-09_21h40.45.851,HW_LDT_1,2024.2.4,Win32,60.60606061,,,,,,,,,,,,,,,,,,,,,650.8567,651.055,651.0551,651.5554,,,,,,,,,,,,,,0.9238,1,,,,,,,,,,,,,,m,,,,,,,,,,,,,,,,120,0,651.556,652.49,m,1,0.9238,,[],[],[],[],[],[],[],652.4902,654.4919,654.4919,654.4921,[],[],[],[],[],[],[],,654.4921,654.4922,-0.174166641,-0.191666718,0,0,0,,0,119,119,140,1,4,word,RELATIVE,print,relative_p.png,,,,,,
,,,,30186,001,2025-11-09_21h40.45.851,HW_LDT_1,2024.2.4,Win32,60.60606061,,,,,,,,,,,,,,,,,,,,,654.4935,654.6916,654.6917,655.1914,,,,,,,,,,,,,,2.1919,1,,,,,,,,,,,,,,m,,,,,,,,,,,,,,,,121,0,655.192,657.3935,m,1,2.1919,,[],[],[],[],[],[],[],657.3935,659.3953,659.3954,659.3958,[],[],[],[],[],[],[],,659.3959,659.396,-0.174166641,-0.191666718,0,0,0,,0,120,120,81,1,4,word,ADVISORY,cursive,advisory_c.png,,,,,,
,,,,30186,001,2025-11-09_21h40.45.851,HW_LDT_1,2024.2.4,Win32,60.60606061,,,,,,,,,,,,,,,,,,,,,659.3978,659.5956,659.5956,660.0959,,,,,,,,,,,,,,2.1158,1,,,,,,,,,,,,,,z,,,,,,,,,,,,,,,,122,0,660.0964,662.2139,z,1,2.1158,,[],[],[],[],[],[],[],662.214,664.2027,664.2027,664.2028,[],[],[],[],[],[],[],,664.2029,664.2031,-0.174166641,-0.191666718,0,0,0,,0,121,121,28,1,4,RL,mifikary,print,mifikary_p.png,,,,,,
,,,,30186,001,2025-11-09_21h40.45.851,HW_LDT_1,2024.2.4,Win32,60.60606061,,,,,,,,,,,,,,,,,,,,,664.2044,664.3997,664.3998,664.9003,,,,,,,,,,,,,,1.0083,1,,,,,,,,,,,,,,m,,,,,,,,,,,,,,,,123,0,664.9008,665.9175,m,1,1.0083,,[],[],[],[],[],[],[],665.9175,667.919,667.919,667.9194,[],[],[],[],[],[],[],,667.9195,667.9196,-0.174166641,-0.191666718,0,0,0,,0,122,122,135,1,4,word,QUALITY,print,quality_p.png,,,,,,
,,,,30186,001,2025-11-09_21h40.45.851,HW_LDT_1,2024.2.4,Win32,60.60606061,,,,,,,,,,,,,,,,,,,,,667.9206,668.1194,668.1195,668.6196,,,,,,,,,,,,,,4.6091,1,,,,,,,,,,,,,,m,,,,,,,,,,,,,,,,124,0,668.6201,673.241,m,1,4.6091,,[],[],[],[],[],[],[],673.2411,675.2463,675.2463,675.2467,[],[],[],[],[],[],[],,675.2468,675.2469,-0.174166641,-0.191666718,0,0,0,,0,123,123,132,1,4,word,PROPOSAL,print,proposal_p.png,,,,,,
,,,,30186,001,2025-11-09_21h40.45.851,HW_LDT_1,2024.2.4,Win32,60.60606061,,,,,,,,,,,,,,,,,,,,,675.2493,675.4448,675.4448,675.9422,,,,,,,,,,,,,,1.7448,1,,,,,,,,,,,,,,m,,,,,,,,,,,,,,,,125,0,675.9428,677.6936,m,1,1.7448,,[],[],[],[],[],[],[],677.6937,679.6957,679.6957,679.6959,[],[],[],[],[],[],[],,679.6959,679.6961,-0.174166641,-0.191666718,0,0,0,,0,124,124,97,1,4,word,COVERAGE,cursive,coverage_c.png,,,,,,
,,,,30186,001,2025-11-09_21h40.45.851,HW_LDT_1,2024.2.4,Win32,60.60606061,,,,,,,,,,,,,,,,,,,,,679.6978,679.8955,679.8955,680.3965,,,,,,,,,,,,,,1.1077,1,,,,,,,,,,,,,,z,,,,,,,,,,,,,,,,126,0,680.397,681.5143,z,1,1.1077,,[],[],[],[],[],[],[],681.5144,683.5153,683.5153,683.5156,[],[],[],[],[],[],[],,683.5156,683.5158,-0.174166641,-0.191666718,0,0,0,,0,125,125,65,1,4,TL,orepator,print,orepator_p.png,,,,,,
,,,,30186,001,2025-11-09_21h40.45.851,HW_LDT_1,2024.2.4,Win32,60.60606061,,,,,,,,,,,,,,,,,,,,,683.5167,683.7169,683.717,684.2157,,,,,,,,,,,,,,0.809,1,,,,,,,,,,,,,,z,,,,,,,,,,,,,,,,127,0,684.2162,685.0329,z,1,0.809,,[],[],[],[],[],[],[],685.033,687.035,687.0351,687.0354,[],[],[],[],[],[],[],,687.0355,687.0356,-0.174166641,-0.191666718,0,0,0,,0,126,126,21,1,4,RL,insibate,print,insibate_p.png,,,,,,
,,,,30186,001,2025-11-09_21h40.45.851,HW_LDT_1,2024.2.4,Win32,60.60606061,,,,,,,,,,,,,,,,,,,,,687.037,687.2347,687.2348,687.7355,,,,,,,,,,,,,,1.1545,0,,,,,,,,,,,,,,m,,,,,,,,,,,,,,,,128,0,687.7361,688.8915,z,0,1.1545,,[],[],[],[],[],[],[],688.8916,690.8876,690.8877,690.8879,[],[],[],[],[],[],[],,690.8879,690.888,-0.174166641,-0.191666718,0,0,0,,0,127,127,101,1,4,word,DELICATE,cursive,delicate_c.png,,,,,,
,,,,30186,001,2025-11-09_21h40.45.851,HW_LDT_1,2024.2.4,Win32,60.60606061,,,,,,,,,,,,,,,,,,,,,690.8894,691.088,691.0881,691.5896,,,,,,,,,,,,,,3.7661,1,,,,,,,,,,,,,,m,,,,,,,,,,,,,,,,129,0,691.5902,695.3578,m,1,3.7661,,[],[],[],[],[],[],[],695.3578,697.3498,697.3499,697.35,[],[],[],[],[],[],[],,697.3501,697.3501,-0.174166641,-0.191666718,0,0,0,,0,128,128,155,1,4,word,STRATEGY,print,strategy_p.png,,,,,,
,,,,30186,001,2025-11-09_21h40.45.851,HW_LDT_1,2024.2.4,Win32,60.60606061,,,,,,,,,,,,,,,,,,,,,697.3514,697.5436,697.5436,698.0436,,,,,,,,,,,,,,1.0086,1,,,,,,,,,,,,,,m,,,,,,,,,,,,,,,,130,0,698.0441,699.0618,m,1,1.0086,,[],[],[],[],[],[],[],699.0619,701.0518,701.0518,701.0521,[],[],[],[],[],[],[],,701.0521,701.0522,-0.174166641,-0.191666718,0,0,0,,0,129,129,85,1,4,word,BENEFIT,cursive,benefit_c.png,,,,,,
,,,,30186,001,2025-11-09_21h40.45.851,HW_LDT_1,2024.2.4,Win32,60.60606061,,,,,,,,,,,,,,,,,,,,,701.0536,701.2468,701.2468,701.747,,,,,,,,,,,,,,4.6125,1,,,,,,,,,,,,,,z,,,,,,,,,,,,,,,,131,0,701.7475,706.3675,z,1,4.6125,,[],[],[],[],[],[],[],706.3676,708.3699,708.3699,708.3701,[],[],[],[],[],[],[],,708.3701,708.3702,-0.174166641,-0.191666718,0,0,0,,0,130,130,73,1,4,TL,regilion,print,regilion_p.png,,,,,,
,,,,30186,001,2025-11-09_21h40.45.851,HW_LDT_1,2024.2.4,Win32,60.60606061,,,,,,,,,,,,,,,,,,,,,708.3723,708.5693,708.5693,709.0699,,,,,,,,,,,,,,0.8869,1,,,,,,,,,,,,,,m,,,,,,,,,,,,,,,,132,0,709.0704,709.9581,m,1,0.8869,,[],[],[],[],[],[],[],709.9582,711.9555,711.9557,711.9559,[],[],[],[],[],[],[],,711.956,711.9561,-0.174166641,-0.191666718,0,0,0,,0,131,131,110,1,4,word,HERITAGE,print,heritage_p.png,,,,,,
,,,,30186,001,2025-11-09_21h40.45.851,HW_LDT_1,2024.2.4,Win32,60.60606061,,,,,,,,,,,,,,,,,,,,,711.9573,712.1556,712.1556,712.6606,,,,,,,,,,,,,,1.7618,1,,,,,,,,,,,,,,m,,,,,,,,,,,,,,,,133,0,712.6615,714.4243,m,1,1.7618,,[],[],[],[],[],[],[],714.4245,716.4258,716.4258,716.4259,[],[],[],[],[],[],[],,716.426,716.4261,-0.174166641,-0.191666718,0,0,0,,0,132,132,116,1,4,word,MARGINAL,cursive,marginal_c.png,,,,,,
,,,,30186,001,2025-11-09_21h40.45.851,HW_LDT_1,2024.2.4,Win32,60.60606061,,,,,,,,,,,,,,,,,,,,,716.4271,716.6265,716.6266,717.1261,,,,,,,,,,,,,,1.9569,0,,,,,,,,,,,,,,z,,,,,,,,,,,,,,,,134,0,717.1266,719.0844,m,0,1.9569,,[],[],[],[],[],[],[],719.0846,721.0797,721.0798,721.08,[],[],[],[],[],[],[],,721.0801,721.0803,-0.174166641,-0.191666718,0,0,0,,0,133,133,51,1,4,TL,adsivory,cursive,adsivory_c.png,,,,,,
,,,,30186,001,2025-11-09_21h40.45.851,HW_LDT_1,2024.2.4,Win32,60.60606061,,,,,,,,,,,,,,,,,,,,,721.0815,721.2851,721.2852,721.7806,,,,,,,,,,,,,,1.1716,1,,,,,,,,,,,,,,m,,,,,,,,,,,,,,,,135,0,721.7816,722.9547,m,1,1.1716,,[],[],[],[],[],[],[],722.9547,724.9497,724.9498,724.9499,[],[],[],[],[],[],[],,724.95,724.9502,-0.174166641,-0.191666718,0,0,0,,0,134,134,122,1,4,word,MOBILE,print,mobile_p.png,,,,,,
,,,,30186,001,2025-11-09_21h40.45.851,HW_LDT_1,2024.2.4,Win32,60.60606061,,,,,,,,,,,,,,,,,,,,,724.9513,725.1497,725.1498,725.6503,,,,,,,,,,,,,,3.9101,1,,,,,,,,,,,,,,z,,,,,,,,,,,,,,,,136,0,725.6511,729.57,z,1,3.9101,,[],[],[],[],[],[],[],729.57,731.5717,731.5718,731.5719,[],[],[],[],[],[],[],,731.572,731.5721,-0.174166641,-0.191666718,0,0,0,,0,135,135,44,1,4,RL,senvilent,print,senvilent_p.png,,,,,,
,,,,30186,001,2025-11-09_21h40.45.851,HW_LDT_1,2024.2.4,Win32,60.60606061,,,,,,,,,,,,,,,,,,,,,731.5731,731.7716,731.7716,732.272,,,,,,,,,,,,,,1.374,1,,,,,,,,,,,,,,z,,,,,,,,,,,,,,,,137,0,732.2728,733.6561,z,1,1.374,,[],[],[],[],[],[],[],733.6562,735.6465,735.6465,735.6467,[],[],[],[],[],[],[],,735.6467,735.6468,-0.174166641,-0.191666718,0,0,0,,0,136,136,61,1,4,TL,lotace,cursive,lotace_c.png,,,,,,
,,,,30186,001,2025-11-09_21h40.45.851,HW_LDT_1,2024.2.4,Win32,60.60606061,,,,,,,,,,,,,,,,,,,,,735.648,735.8474,735.8475,736.3422,,,,,,,,,,,,,,0.9617,1,,,,,,,,,,,,,,m,,,,,,,,,,,,,,,,138,0,736.3428,737.3099,m,1,0.9617,,[],[],[],[],[],[],[],737.31,739.311,739.311,739.3112,[],[],[],[],[],[],[],,739.3112,739.3112,-0.174166641,-0.191666718,0,0,0,,0,137,137,149,1,4,word,SENATOR,print,senator_p.png,,,,,,
,,,,30186,001,2025-11-09_21h40.45.851,HW_LDT_1,2024.2.4,Win32,60.60606061,,,,,,,,,,,,,,,,,,,,,739.3122,739.5119,739.5121,740.0119,,,,,,,,,,,,,,2.5906,1,,,,,,,,,,,,,,m,,,,,,,,,,,,,,,,139,0,740.0124,742.6038,m,1,2.5906,,[],[],[],[],[],[],[],742.6039,744.6051,744.6051,744.6053,[],[],[],[],[],[],[],,744.6053,744.6054,-0.174166641,-0.191666718,0,0,0,,0,138,138,142,1,4,word,REMOTE,cursive,remote_c.png,,,,,,
,,,,30186,001,2025-11-09_21h40.45.851,HW_LDT_1,2024.2.4,Win32,60.60606061,,,,,,,,,,,,,,,,,,,,,744.6067,744.7992,744.7993,745.2993,,,,,,,,,,,,,,1.991,0,,,,,,,,,,,,,,m,,,,,,,,,,,,,,,,140,0,745.2999,747.3015,z,0,1.991,,[],[],[],[],[],[],[],747.3016,749.3032,749.3033,749.3037,[],[],[],[],[],[],[],,749.3038,749.3039,-0.174166641,-0.191666718,0,0,0,,0,139,139,99,1,4,word,DEBATE,cursive,debate_c.png,,,,,,
,,,,30186,001,2025-11-09_21h40.45.851,HW_LDT_1,2024.2.4,Win32,60.60606061,,,,,,,,,,,,,,,,,,,,,749.3051,749.5032,749.5032,750.0032,,,,,,,,,,,,,,1.3805,1,,,,,,,,,,,,,,z,,,,,,,,,,,,,,,,141,0,750.0039,751.3879,z,1,1.3805,,[],[],[],[],[],[],[],751.3879,753.39,753.39,753.3901,[],[],[],[],[],[],[],,753.3902,753.3903,-0.174166641,-0.191666718,0,0,0,,0,140,140,46,1,4,RL,skofen,cursive,skofen_c.png,,,,,,
,,,,30186,001,2025-11-09_21h40.45.851,HW_LDT_1,2024.2.4,Win32,60.60606061,,,,,,,,,,,,,,,,,,,,,753.3913,753.5897,753.5897,754.0905,,,,,,,,,,,,,,1.992,1,,,,,,,,,,,,,,z,,,,,,,,,,,,,,,,142,0,754.0911,756.0921,z,1,1.992,,[],[],[],[],[],[],[],756.0923,758.0933,758.0934,758.0936,[],[],[],[],[],[],[],,758.0937,758.0937,-0.174166641,-0.191666718,0,0,0,,0,141,141,14,1,4,RL,delahe,cursive,delahe_c.png,,,,,,
,,,,30186,001,2025-11-09_21h40.45.851,HW_LDT_1,2024.2.4,Win32,60.60606061,,,,,,,,,,,,,,,,,,,,,758.0948,758.2945,758.2945,758.7942,,,,,,,,,,,,,,2.022,1,,,,,,,,,,,,,,z,,,,,,,,,,,,,,,,143,0,758.7949,760.8184,z,1,2.022,,[],[],[],[],[],[],[],760.8187,762.8142,762.8142,762.8145,[],[],[],[],[],[],[],,762.8146,762.8147,-0.174166641,-0.191666718,0,0,0,,0,142,142,26,1,4,RL,mesibine,cursive,mesibine_c.png,,,,,,
,,,,30186,001,2025-11-09_21h40.45.851,HW_LDT_1,2024.2.4,Win32,60.60606061,,,,,,,,,,,,,,,,,,,,,762.8161,763.003,763.003,763.5147,,,,,,,,,,,,,,1.2903,1,,,,,,,,,,,,,,m,,,,,,,,,,,,,,,,144,1,763.5153,764.8154,m,1,1.2903,,[],[],[],[],[],[],[],764.8155,766.8173,766.8173,768.8528,[],[],[],[],[],[],[],z,768.8529,768.853,-0.174166641,-0.191666718,0,0,0,,0,143,143,145,1,4,word,RESUME,print,resume_p.png,2.0271,,,,,
,,,,30186,001,2025-11-09_21h40.45.851,HW_LDT_1,2024.2.4,Win32,60.60606061,,,,,,,,,,,,,,,,,,,,,768.855,769.0531,769.0531,769.5579,,,,,,,,,,,,,,0.77,1,,,,,,,,,,,,,,m,,,,,,,,,,,,,,,,145,0,769.5582,770.3372,m,1,0.77,,[],[],[],[],[],[],[],770.3373,772.3391,772.3392,772.3395,[],[],[],[],[],[],[],,772.3396,772.3397,-0.174166641,-0.191666718,0,0,0,,0,144,144,119,1,4,word,MEMORY,print,memory_p.png,,,,,,
,,,,30186,001,2025-11-09_21h40.45.851,HW_LDT_1,2024.2.4,Win32,60.60606061,,,,,,,,,,,,,,,,,,,,,772.3409,772.5392,772.5393,773.0396,,,,,,,,,,,,,,1.3379,0,,,,,,,,,,,,,,z,,,,,,,,,,,,,,,,146,0,773.0403,774.3788,m,0,1.3379,,[],[],[],[],[],[],[],774.3789,776.3748,776.3749,776.3751,[],[],[],[],[],[],[],,776.3751,776.3751,-0.174166641,-0.191666718,0,0,0,,0,145,145,77,1,4,TL,spemicen,cursive,spemicen_c.png,,,,,,
,,,,30186,001,2025-11-09_21h40.45.851,HW_LDT_1,2024.2.4,Win32,60.60606061,,,,,,,,,,,,,,,,,,,,,776.3761,776.5757,776.5758,777.0764,,,,,,,,,,,,,,2.6064,1,,,,,,,,,,,,,,m,,,,,,,,,,,,,,,,147,0,777.0772,779.6843,m,1,2.6064,,[],[],[],[],[],[],[],779.6845,781.6807,781.6807,781.6808,[],[],[],[],[],[],[],,781.6808,781.6809,-0.174166641,-0.191666718,0,0,0,,0,146,146,96,1,4,word,CONSIDER,cursive,consider_c.png,,,,,,
,,,,30186,001,2025-11-09_21h40.45.851,HW_LDT_1,2024.2.4,Win32,60.60606061,,,,,,,,,,,,,,,,,,,,,781.6822,781.88,781.8801,782.3805,,,,,,,,,,,,,,2.2252,1,,,,,,,,,,,,,,z,,,,,,,,,,,,,,,,148,1,782.3811,784.6159,z,1,2.2252,,[],[],[],[],[],[],[],784.6161,786.6052,786.6053,789.2695,[],[],[],[],[],[],[],z,789.2695,789.2697,-0.174166641,-0.191666718,0,0,0,,0,147,147,63,1,4,TL,miskate,print,miskate_p.png,2.6598,,,,,
,,,,30186,001,2025-11-09_21h40.45.851,HW_LDT_1,2024.2.4,Win32,60.60606061,,,,,,,,,,,,,,,,,,,,,789.2709,789.4693,789.4694,789.9751,,,,,,,,,,,,,,2.1115,0,,,,,,,,,,,,,,m,,,,,,,,,,,,,,,,149,0,789.9756,792.088,z,0,2.1115,,[],[],[],[],[],[],[],792.0882,794.0898,794.0898,794.0902,[],[],[],[],[],[],[],,794.0903,794.0903,-0.174166641,-0.191666718,0,0,0,,0,148,148,113,1,4,word,LITERAL,cursive,literal_c.png,,,,,,
,,,,30186,001,2025-11-09_21h40.45.851,HW_LDT_1,2024.2.4,Win32,60.60606061,,,,,,,,,,,,,,,,,,,,,794.0915,794.2902,794.2903,794.7905,,,,,,,,,,,,,,1.6272,1,,,,,,,,,,,,,,z,,,,,,,,,,,,,,,,150,0,794.7911,796.4255,z,1,1.6272,,[],[],[],[],[],[],[],796.4257,798.4288,798.4288,798.4293,[],[],[],[],[],[],[],,798.4293,798.4296,-0.174166641,-0.191666718,0,0,0,,0,149,149,38,1,4,RL,refakive,print,refakive_p.png,,,,,,
,,,,30186,001,2025-11-09_21h40.45.851,HW_LDT_1,2024.2.4,Win32,60.60606061,,,,,,,,,,,,,,,,,,,,,798.4314,798.6274,798.6275,799.1273,,,,,,,,,,,,,,1.7211,1,,,,,,,,,,,,,,z,,,,,,,,,,,,,,,,151,1,799.1278,800.8501,z,1,1.7211,,[],[],[],[],[],[],[],800.8502,802.8466,802.8468,803.9713,[],[],[],[],[],[],[],z,803.9714,803.9717,-0.174166641,-0.191666718,0,0,0,,0,150,150,2,1,4,RL,asiral,cursive,asiral_c.png,1.1238,,,,,
,,,,30186,001,2025-11-09_21h40.45.851,HW_LDT_1,2024.2.4,Win32,60.60606061,,,,,,,,,,,,,,,,,,,,,803.9728,804.165,804.1651,804.6654,,,,,,,,,,,,,,1.0885,1,,,,,,,,,,,,,,z,,,,,,,,,,,,,,,,152,0,804.6661,805.7555,z,1,1.0885,,[],[],[],[],[],[],[],805.7556,807.7517,807.7517,807.752,[],[],[],[],[],[],[],,807.7521,807.7522,-0.174166641,-0.191666718,0,0,0,,0,151,151,54,1,4,TL,codemy,print,codemy_p.png,,,,,,
,,,,30186,001,2025-11-09_21h40.45.851,HW_LDT_1,2024.2.4,Win32,60.60606061,,,,,,,,,,,,,,,,,,,,,807.7533,807.941,807.9411,808.4521,,,,,,,,,,,,,,6.3771,1,,,,,,,,,,,,,,z,,,,,,,,,,,,,,,,153,1,808.4527,814.841,z,1,6.3771,,[],[],[],[],[],[],[],814.8411,816.8421,816.8421,818.2,[],[],[],[],[],[],[],z,818.2001,818.2002,-0.174166641,-0.191666718,0,0,0,,0,152,152,68,1,4,TL,prosopal,print,prosopal_p.png,1.3568,,,,,
,,,,30186,001,2025-11-09_21h40.45.851,HW_LDT_1,2024.2.4,Win32,60.60606061,,,,,,,,,,,,,,,,,,,,,818.2017,818.3936,818.3937,818.8993,,,,,,,,,,,,,,1.8062,0,,,,,,,,,,,,,,m,,,,,,,,,,,,,,,,154,0,818.8999,820.7118,z,0,1.8062,,[],[],[],[],[],[],[],820.7119,822.7005,822.7005,822.7008,[],[],[],[],[],[],[],,822.7008,822.7011,-0.174166641,-0.191666718,0,0,0,,0,153,153,114,1,4,word,LOCATE,cursive,locate_c.png,,,,,,
,,,,30186,001,2025-11-09_21h40.45.851,HW_LDT_1,2024.2.4,Win32,60.60606061,,,,,,,,,,,,,,,,,,,,,822.7023,822.8971,822.8972,823.3977,,,,,,,,,,,,,,1.0604,0,,,,,,,,,,,,,,m,,,,,,,,,,,,,,,,155,0,823.3984,824.4648,z,0,1.0604,,[],[],[],[],[],[],[],824.4648,826.4671,826.4671,826.4674,[],[],[],[],[],[],[],,826.4675,826.4676,-0.174166641,-0.191666718,0,0,0,,0,154,154,84,1,4,word,BELOVED,print,beloved_p.png,,,,,,
,,,,30186,001,2025-11-09_21h40.45.851,HW_LDT_1,2024.2.4,Win32,60.60606061,,,,,,,,,,,,,,,,,,,,,826.4692,826.6673,826.6674,827.1675,,,,,,,,,,,,,,0.7728,1,,,,,,,,,,,,,,z,,,,,,,,,,,,,,,,156,0,827.1679,827.9417,z,1,0.7728,,[],[],[],[],[],[],[],827.942,829.9366,829.9367,829.9371,[],[],[],[],[],[],[],,829.9371,829.9372,-0.174166641,-0.191666718,0,0,0,,0,155,155,3,1,4,RL,bewoted,print,bewoted_p.png,,,,,,
,,,,30186,001,2025-11-09_21h40.45.851,HW_LDT_1,2024.2.4,Win32,60.60606061,,,,,,,,,,,,,,,,,,,,,829.9383,830.137,830.137,830.6376,,,,,,,,,,,,,,7.9803,1,,,,,,,,,,,,,,m,,,,,,,,,,,,,,,,157,1,830.6383,838.6271,m,1,7.9803,,[],[],[],[],[],[],[],838.6273,840.6337,840.6338,841.663,[],[],[],[],[],[],[],z,841.6631,841.6633,-0.174166641,-0.191666718,0,0,0,,0,156,156,98,1,4,word,CRIMINAL,cursive,criminal_c.png,1.0207,,,,,
,,,,30186,001,2025-11-09_21h40.45.851,HW_LDT_1,2024.2.4,Win32,60.60606061,,,,,,,,,,,,,,,,,,,,,841.6647,841.8633,841.8633,842.3522,,,,,,,,,,,,,,1.3021,1,,,,,,,,,,,,,,m,,,,,,,,,,,,,,,,158,0,842.353,843.6644,m,1,1.3021,,[],[],[],[],[],[],[],843.6646,845.6527,845.6527,845.6528,[],[],[],[],[],[],[],,845.6528,845.6529,-0.174166641,-0.191666718,0,0,0,,0,157,157,91,1,4,word,CARDINAL,cursive,cardinal_c.png,,,,,,
,,,,30186,001,2025-11-09_21h40.45.851,HW_LDT_1,2024.2.4,Win32,60.60606061,,,,,,,,,,,,,,,,,,,,,845.6538,845.8498,845.8498,846.3495,,,,,,,,,,,,,,1.4753,1,,,,,,,,,,,,,,m,,,,,,,,,,,,,,,,159,0,846.35,847.8343,m,1,1.4753,,[],[],[],[],[],[],[],847.8344,849.8363,849.8364,849.8366,[],[],[],[],[],[],[],,849.8366,849.8369,-0.174166641,-0.191666718,0,0,0,,0,158,158,129,1,4,word,PARENT,cursive,parent_c.png,,,,,,
,,,,30186,001,2025-11-09_21h40.45.851,HW_LDT_1,2024.2.4,Win32,60.60606061,,,,,,,,,,,,,,,,,,,,,849.8382,850.0366,850.0367,850.5371,,,,,,,,,,,,,,4.498,1,,,,,,,,,,,,,,z,,,,,,,,,,,,,,,,160,0,850.5379,855.0406,z,1,4.498,,[],[],[],[],[],[],[],855.0407,857.0423,857.0423,857.0426,[],[],[],[],[],[],[],,857.0426,857.0427,-0.174166641,-0.191666718,0,0,0,,0,159,159,30,1,4,RL,nunewical,cursive,nunewical_c.png,,,,,,
,,,,30186,001,2025-11-09_21h40.45.851,HW_LDT_1,2024.2.4,Win32,60.60606061,,,,,,,,,,,,,,,,,,,,,,,,,,,,,,,,,,,,,,,,,,,,,,,,,,,,,,,,,,,,,,,,,,,,,,,,,,,,,,,,,,,,,,,,,,,,,,,,,,,,,,,,,,,,,,,,,,,,,,857.0433,862.0467
