counterbalance_lists.group,counterbalance_lists.remaining,get_list.started,get_list.stopped,participant,session,date,expName,psychopyVersion,OS,frameRate,Instructions.started,Instructions.stopped,key_resp.keys,instr_done_touch.x,instr_done_touch.y,instr_done_touch.leftButton,instr_done_touch.midButton,instr_done_touch.rightButton,instr_done_touch.clicked_name,start_instr.thisRepN,start_instr.thisTrialN,start_instr.thisN,start_instr.thisIndex,start_instr.ran,pageN,phase,instruct_text,has_image,instruct_image,key_resp.rt,key_resp.duration,showProgress.started,showProgress.stopped,fix.started,fix.stopped,prac.started,prac.stopped,response.keys,response.corr,response.rt,response.duration,touch_resp.x,touch_resp.y,touch_resp.leftButton,touch_resp.midButton,touch_resp.rightButton,touch_resp.time,touch_resp.clicked_name,rt,corr,feedback.started,feedback.stopped,trials.thisRepN,trials.thisTrialN,trials.thisN,trials.thisIndex,trials.ran,TrialID,StimulusType,Condition,PrimeDuration,Prime,Target,corrAns,Instructions_expt.started,Instructions_expt.stopped,key_resp_3.keys,key_resp_3.rt,key_resp_3.duration,instr_done_touch_3.x,instr_done_touch_3.y,instr_done_touch_3.leftButton,instr_done_touch_3.midButton,instr_done_touch_3.rightButton,instr_experiment.thisRepN,instr_experiment.thisTrialN,instr_experiment.thisN,instr_experiment.thisIndex,instr_experiment.ran,trialID,flag,maintask.started,maintask.stopped,key_resp_2.keys,key_resp_2.corr,key_resp_2.rt,key_resp_2.duration,targ_click.x,targ_click.y,targ_click.leftButton,targ_click.midButton,targ_click.rightButton,targ_click.time,targ_click.clicked_name,ITI.started,ITI.stopped,probe.started,probe.stopped,click_probe.x,click_probe.y,click_probe.leftButton,click_probe.midButton,click_probe.rightButton,click_probe.time,click_probe.clicked_name,key_resp_probe.keys,Break.started,Break.stopped,break_done_touch.x,break_done_touch.y,break_done_touch.leftButton,break_done_touch.midButton,break_done_touch.rightButton,break_done_keyboard.keys,list1_trials.thisRepN,list1_trials.thisTrialN,list1_trials.thisN,list1_trials.thisIndex,list1_trials.ran,list_id,item_type,string,font,stim_file,key_resp_probe.rt,key_resp_probe.duration,break_done_keyboard.rt,break_done_keyboard.duration,End.started,End.stopped
list1,,0.506,0.506,30481,001,2025-10-16_09h38.49.800,HW_LDT_1,2024.2.4,MacIntel,58.82352941,,,,,,,,,,,,,,,,,,,,,,,,,,,,,,,,,,,,,,,,,,,,,,,,,,,,,,,,,,,,,,,,,,,,,,,,,,,,,,,,,,,,,,,,,,,,,,,,,,,,,,,,,,,,,,,,,,,,,,,,
,,,,30481,001,2025-10-16_09h38.49.800,HW_LDT_1,2024.2.4,MacIntel,58.82352941,0.532,1.728,,-0.103333333,-0.426666667,1,0,0,instr_done_button,0,0,0,0,1,1,instructions,"INSTRUCTIONS
At the start of each trial, look at the plus sign  (+) in the center of the screen.  This tells you that a trial is about to begin and where to look. Second, the plus sign will disappear and a string of letters will appear. Your task is to determine if the string of letters is a word or not. If the item is a word press the M key (on keyboard)  or touch the word button (phone/tablet).  If the item is not a word,  press the  Z key (on keyboard)  or touch the nonword button (on phone/tablet). The items will be presented for a short time. 
Press the space bar or touch  continue.",0,,,,,,,,,,,,,,,,,,,,,,,,,,,,,,,,,,,,,,,,,,,,,,,,,,,,,,,,,,,,,,,,,,,,,,,,,,,,,,,,,,,,,,,,,,,,,,,,,,,,,,
,,,,30481,001,2025-10-16_09h38.49.800,HW_LDT_1,2024.2.4,MacIntel,58.82352941,1.729,8.411,,-0.103333333,-0.426666667,1,0,0,instr_done_button,0,1,1,1,1,2,instructions,"If your device has a keyboard, press the 'Z' key for nonwords and the 'M' key for words.





Press the space bar or touch the button below to continue.",0,keyboard-example.gif,,,,,,,,,,,,,,,,,,,,,,,,,,,,,,,,,,,,,,,,,,,,,,,,,,,,,,,,,,,,,,,,,,,,,,,,,,,,,,,,,,,,,,,,,,,,,,,,,,,,,
,,,,30481,001,2025-10-16_09h38.49.800,HW_LDT_1,2024.2.4,MacIntel,58.82352941,8.414,11.545,,-0.103333333,-0.426666667,1,0,0,instr_done_button,0,2,2,2,1,3,instructions,"If you are using a touchscreen only device, use the buttons on the screen. Do not use the mouse.





Press the space bar or touch the button below to continue.",0,touchscreen-example.gif,,,,,,,,,,,,,,,,,,,,,,,,,,,,,,,,,,,,,,,,,,,,,,,,,,,,,,,,,,,,,,,,,,,,,,,,,,,,,,,,,,,,,,,,,,,,,,,,,,,,,
,,,,30481,001,2025-10-16_09h38.49.800,HW_LDT_1,2024.2.4,MacIntel,58.82352941,11.549,15.494,space,-0.103333333,-0.426666667,0,0,0,,0,3,3,3,1,4,instructions,"It is very important that you respond as quickly and accurately as possible, as each letter string will only be on the screen for two seconds. If you do not respond within this time, the message 'Too slow!' will be displayed and the experiment will progress to the next letter string. The first 20 trials will be practice trials and you will receive feedback on your answers. 

Press the space bar or touch the button below to start the practice trials.",0,,3.924,,,,,,,,,,,,,,,,,,,,,,,,,,,,,,,,,,,,,,,,,,,,,,,,,,,,,,,,,,,,,,,,,,,,,,,,,,,,,,,,,,,,,,,,,,,,,,,,,,,,
,,,,30481,001,2025-10-16_09h38.49.800,HW_LDT_1,2024.2.4,MacIntel,58.82352941,,,,,,,,,,,,,,,,,,,,,,15.516,15.695,15.696,16.194,16.196,20.362,z,0,4.141,,[],[],[],[],[],[],[],4.141,0,20.363,20.862,0,0,0,5,1,1006,WORD,UN,33,frenzy,OBTAIN,m,,,,,,,,,,,,,,,,,,,,,,,,,,,,,,,,,,,,,,,,,,,,,,,,,,,,,,,,,,,,,,,,,,
,,,,30481,001,2025-10-16_09h38.49.800,HW_LDT_1,2024.2.4,MacIntel,58.82352941,,,,,,,,,,,,,,,,,,,,,,20.864,21.061,21.061,21.561,21.563,24.627,z,0,3.047,,[],[],[],[],[],[],[],3.047,0,24.628,25.129,0,1,1,2,1,1003,WORD,"ID",16,almond,ALMOND,m,,,,,,,,,,,,,,,,,,,,,,,,,,,,,,,,,,,,,,,,,,,,,,,,,,,,,,,,,,,,,,,,,,
,,,,30481,001,2025-10-16_09h38.49.800,HW_LDT_1,2024.2.4,MacIntel,58.82352941,,,,,,,,,,,,,,,,,,,,,,25.13,25.327,25.327,25.827,25.829,28.877,m,1,3.031,,[],[],[],[],[],[],[],3.031,1,28.879,29.379,0,2,2,3,1,1004,WORD,"ID",16,matrix,MATRIX,m,,,,,,,,,,,,,,,,,,,,,,,,,,,,,,,,,,,,,,,,,,,,,,,,,,,,,,,,,,,,,,,,,,
,,,,30481,001,2025-10-16_09h38.49.800,HW_LDT_1,2024.2.4,MacIntel,58.82352941,,,,,,,,,,,,,,,,,,,,,,29.381,29.578,29.579,30.077,30.079,32.277,z,1,2.179,,[],[],[],[],[],[],[],2.179,1,32.278,32.779,0,3,3,12,1,1013,NW,UN,33,adveil,SPRINY,z,,,,,,,,,,,,,,,,,,,,,,,,,,,,,,,,,,,,,,,,,,,,,,,,,,,,,,,,,,,,,,,,,,
,,,,30481,001,2025-10-16_09h38.49.800,HW_LDT_1,2024.2.4,MacIntel,58.82352941,,,,,,,,,,,,,,,,,,,,,,32.782,32.978,32.978,33.478,33.48,34.178,m,1,0.676,,[],[],[],[],[],[],[],0.676,1,34.178,34.677,0,4,4,7,1,1008,WORD,UN,16,hurdle,VOLUME,m,,,,,,,,,,,,,,,,,,,,,,,,,,,,,,,,,,,,,,,,,,,,,,,,,,,,,,,,,,,,,,,,,,
,,,,30481,001,2025-10-16_09h38.49.800,HW_LDT_1,2024.2.4,MacIntel,58.82352941,,,,,,,,,,,,,,,,,,,,,,34.679,34.877,34.877,35.378,35.381,36.461,m,0,1.06,,[],[],[],[],[],[],[],1.06,0,36.463,36.961,0,5,5,14,1,1015,NW,UN,16,miaber,THRALE,z,,,,,,,,,,,,,,,,,,,,,,,,,,,,,,,,,,,,,,,,,,,,,,,,,,,,,,,,,,,,,,,,,,
,,,,30481,001,2025-10-16_09h38.49.800,HW_LDT_1,2024.2.4,MacIntel,58.82352941,,,,,,,,,,,,,,,,,,,,,,36.963,37.16,37.161,37.66,37.663,39.01,z,1,1.329,,[],[],[],[],[],[],[],1.329,1,39.012,39.511,0,6,6,9,1,1010,NW,"ID",33,fariny,FARINY,z,,,,,,,,,,,,,,,,,,,,,,,,,,,,,,,,,,,,,,,,,,,,,,,,,,,,,,,,,,,,,,,,,,
,,,,30481,001,2025-10-16_09h38.49.800,HW_LDT_1,2024.2.4,MacIntel,58.82352941,,,,,,,,,,,,,,,,,,,,,,39.513,39.71,39.711,40.21,40.213,41.311,z,1,1.077,,[],[],[],[],[],[],[],1.077,1,41.311,41.811,0,7,7,11,1,1012,NW,"ID",16,rashet,RASHET,z,,,,,,,,,,,,,,,,,,,,,,,,,,,,,,,,,,,,,,,,,,,,,,,,,,,,,,,,,,,,,,,,,,
,,,,30481,001,2025-10-16_09h38.49.800,HW_LDT_1,2024.2.4,MacIntel,58.82352941,,,,,,,,,,,,,,,,,,,,,,41.813,42.011,42.011,42.511,42.512,43.427,m,1,0.895,,[],[],[],[],[],[],[],0.895,1,43.427,43.927,0,8,8,6,1,1007,WORD,UN,16,tropic,ZOMBIE,m,,,,,,,,,,,,,,,,,,,,,,,,,,,,,,,,,,,,,,,,,,,,,,,,,,,,,,,,,,,,,,,,,,
,,,,30481,001,2025-10-16_09h38.49.800,HW_LDT_1,2024.2.4,MacIntel,58.82352941,,,,,,,,,,,,,,,,,,,,,,43.93,44.128,44.129,44.628,44.63,45.327,z,1,0.685,,[],[],[],[],[],[],[],0.685,1,45.327,45.828,0,9,9,13,1,1014,NW,UN,33,winfer,ROUPET,z,,,,,,,,,,,,,,,,,,,,,,,,,,,,,,,,,,,,,,,,,,,,,,,,,,,,,,,,,,,,,,,,,,
,,,,30481,001,2025-10-16_09h38.49.800,HW_LDT_1,2024.2.4,MacIntel,58.82352941,,,,,,,,,,,,,,,,,,,,,,45.83,46.027,46.027,46.527,46.529,47.493,m,1,0.944,,[],[],[],[],[],[],[],0.944,1,47.493,47.994,0,10,10,4,1,1005,WORD,UN,33,abound,SQUEAK,m,,,,,,,,,,,,,,,,,,,,,,,,,,,,,,,,,,,,,,,,,,,,,,,,,,,,,,,,,,,,,,,,,,
,,,,30481,001,2025-10-16_09h38.49.800,HW_LDT_1,2024.2.4,MacIntel,58.82352941,,,,,,,,,,,,,,,,,,,,,,47.996,48.194,48.194,48.694,48.698,49.594,m,1,0.877,,[],[],[],[],[],[],[],0.877,1,49.595,50.094,0,11,11,0,1,1001,WORD,"ID",33,utopia,UTOPIA,m,,,,,,,,,,,,,,,,,,,,,,,,,,,,,,,,,,,,,,,,,,,,,,,,,,,,,,,,,,,,,,,,,,
,,,,30481,001,2025-10-16_09h38.49.800,HW_LDT_1,2024.2.4,MacIntel,58.82352941,,,,,,,,,,,,,,,,,,,,,,50.097,50.293,50.293,50.794,50.796,52.311,z,1,1.495,,[],[],[],[],[],[],[],1.495,1,52.311,52.811,0,12,12,8,1,1009,NW,"ID",33,aslert,ASLERT,z,,,,,,,,,,,,,,,,,,,,,,,,,,,,,,,,,,,,,,,,,,,,,,,,,,,,,,,,,,,,,,,,,,
,,,,30481,001,2025-10-16_09h38.49.800,HW_LDT_1,2024.2.4,MacIntel,58.82352941,,,,,,,,,,,,,,,,,,,,,,52.814,53.011,53.011,53.511,53.513,54.277,z,1,0.75,,[],[],[],[],[],[],[],0.75,1,54.277,54.776,0,13,13,10,1,1011,NW,"ID",16,inlade,INLADE,z,,,,,,,,,,,,,,,,,,,,,,,,,,,,,,,,,,,,,,,,,,,,,,,,,,,,,,,,,,,,,,,,,,
,,,,30481,001,2025-10-16_09h38.49.800,HW_LDT_1,2024.2.4,MacIntel,58.82352941,,,,,,,,,,,,,,,,,,,,,,54.779,54.977,54.977,55.477,55.479,56.161,m,1,0.662,,[],[],[],[],[],[],[],0.662,1,56.161,56.661,0,14,14,1,1,1002,WORD,"ID",33,adjust,ADJUST,m,,,,,,,,,,,,,,,,,,,,,,,,,,,,,,,,,,,,,,,,,,,,,,,,,,,,,,,,,,,,,,,,,,
,,,,30481,001,2025-10-16_09h38.49.800,HW_LDT_1,2024.2.4,MacIntel,58.82352941,,,,,,,,,,,,,,,,,,,,,,56.663,56.86,56.861,57.361,57.363,58.144,z,1,0.764,,[],[],[],[],[],[],[],0.764,1,58.144,58.644,0,15,15,15,1,1016,NW,UN,16,mushed,WHAISE,z,,,,,,,,,,,,,,,,,,,,,,,,,,,,,,,,,,,,,,,,,,,,,,,,,,,,,,,,,,,,,,,,,,
,,,,30481,001,2025-10-16_09h38.49.800,HW_LDT_1,2024.2.4,MacIntel,58.82352941,,,,,,,,,,,,,,,1,end_of_practice,"You have completed the practice trials. During the experimental trials, you will not receive feedback. On some trials you will be asked to report whether the item you just saw was in cursive or print. 
Before you begin, please ensure that you are in a comfortable and quiet location and will not be disturbed for about 15 minutes, as we cannot use your data if you do not complete all the trials. 
 When you are ready to start the experimental trials, please press space or touch the button below.",,,,,,,,,,,,,,,,,,,,,,,,,,,,,,,,,,,,,,58.656,60.028,space,1.337,,-0.103333333,-0.426666667,0,0,0,0,0,0,0,1,,,,,,,,,,,,,,,,,,,,,,,,,,,,,,,,,,,,,,,,,,,,,,,,,,,
,,,,30481,001,2025-10-16_09h38.49.800,HW_LDT_1,2024.2.4,MacIntel,58.82352941,,,,,,,,,,,,,,,,,,,,,,60.046,60.227,60.227,60.727,,,,,,,,,,,,,,2.15,0,,,,,,,,,,,,,,z,,,,,,,,,,,,,,,,1,0,60.729,62.895,m,0,2.15,,[],[],[],[],[],[],[],62.895,64.895,64.896,64.906,[],[],[],[],[],[],[],,64.906,64.91,-0.103333333,-0.426666667,0,0,0,,0,0,0,45,1,1,TL,cacapity,print,cacapity_p.png,,,,,,
,,,,30481,001,2025-10-16_09h38.49.800,HW_LDT_1,2024.2.4,MacIntel,58.82352941,,,,,,,,,,,,,,,,,,,,,,64.911,65.11,65.11,65.611,,,,,,,,,,,,,,3.819,1,,,,,,,,,,,,,,m,,,,,,,,,,,,,,,,2,0,65.612,69.444,m,1,3.819,,[],[],[],[],[],[],[],69.444,71.444,71.444,71.445,[],[],[],[],[],[],[],,71.445,71.446,-0.103333333,-0.426666667,0,0,0,,0,1,1,140,1,1,word,RELATIVE,cursive,relative_c.png,,,,,,
,,,,30481,001,2025-10-16_09h38.49.800,HW_LDT_1,2024.2.4,MacIntel,58.82352941,,,,,,,,,,,,,,,,,,,,,,71.448,71.643,71.643,72.144,,,,,,,,,,,,,,1.026,1,,,,,,,,,,,,,,m,,,,,,,,,,,,,,,,3,0,72.145,73.177,m,1,1.026,,[],[],[],[],[],[],[],73.177,75.177,75.177,75.178,[],[],[],[],[],[],[],,75.178,75.179,-0.103333333,-0.426666667,0,0,0,,0,2,2,142,1,1,word,REMOTE,print,remote_p.png,,,,,,
,,,,30481,001,2025-10-16_09h38.49.800,HW_LDT_1,2024.2.4,MacIntel,58.82352941,,,,,,,,,,,,,,,,,,,,,,75.18,75.377,75.377,75.878,,,,,,,,,,,,,,1.06,1,,,,,,,,,,,,,,m,,,,,,,,,,,,,,,,4,1,75.879,76.944,m,1,1.06,,[],[],[],[],[],[],[],76.944,78.944,78.944,82.994,[],[],[],[],[],[],[],z,82.994,82.995,-0.103333333,-0.426666667,0,0,0,,0,3,3,139,1,1,word,REGULAR,print,regular_p.png,4.039,,,,,
,,,,30481,001,2025-10-16_09h38.49.800,HW_LDT_1,2024.2.4,MacIntel,58.82352941,,,,,,,,,,,,,,,,,,,,,,82.996,83.194,83.194,83.693,,,,,,,,,,,,,,3.046,1,,,,,,,,,,,,,,z,,,,,,,,,,,,,,,,5,0,83.694,86.744,z,1,3.046,,[],[],[],[],[],[],[],86.744,88.744,88.744,88.745,[],[],[],[],[],[],[],,88.745,88.745,-0.103333333,-0.426666667,0,0,0,,0,4,4,21,1,1,RL,opcifal,print,opcifal_p.png,,,,,,
,,,,30481,001,2025-10-16_09h38.49.800,HW_LDT_1,2024.2.4,MacIntel,58.82352941,,,,,,,,,,,,,,,,,,,,,,88.747,88.944,88.944,89.444,,,,,,,,,,,,,,1.053,1,,,,,,,,,,,,,,m,,,,,,,,,,,,,,,,6,1,89.445,90.511,m,1,1.053,,[],[],[],[],[],[],[],90.511,92.511,92.511,94.111,[],[],[],[],[],[],[],m,94.111,94.111,-0.103333333,-0.426666667,0,0,0,,0,5,5,159,1,1,word,VETERAN,print,veteran_p.png,1.589,,,,,
,,,,30481,001,2025-10-16_09h38.49.800,HW_LDT_1,2024.2.4,MacIntel,58.82352941,,,,,,,,,,,,,,,,,,,,,,94.113,94.311,94.311,94.81,,,,,,,,,,,,,,1.588,1,,,,,,,,,,,,,,m,,,,,,,,,,,,,,,,7,0,94.811,96.411,m,1,1.588,,[],[],[],[],[],[],[],96.411,98.411,98.411,98.411,[],[],[],[],[],[],[],,98.412,98.412,-0.103333333,-0.426666667,0,0,0,,0,6,6,143,1,1,word,REMOVAL,cursive,removal_c.png,,,,,,
,,,,30481,001,2025-10-16_09h38.49.800,HW_LDT_1,2024.2.4,MacIntel,58.82352941,,,,,,,,,,,,,,,,,,,,,,98.414,98.611,98.611,99.111,,,,,,,,,,,,,,1.191,1,,,,,,,,,,,,,,m,,,,,,,,,,,,,,,,8,0,99.111,100.311,m,1,1.191,,[],[],[],[],[],[],[],100.311,102.31,102.31,102.311,[],[],[],[],[],[],[],,102.311,102.311,-0.103333333,-0.426666667,0,0,0,,0,7,7,81,1,1,word,ADVISORY,cursive,advisory_c.png,,,,,,
,,,,30481,001,2025-10-16_09h38.49.800,HW_LDT_1,2024.2.4,MacIntel,58.82352941,,,,,,,,,,,,,,,,,,,,,,102.313,102.511,102.511,103.01,,,,,,,,,,,,,,0.971,1,,,,,,,,,,,,,,m,,,,,,,,,,,,,,,,9,0,103.01,103.994,m,1,0.971,,[],[],[],[],[],[],[],103.994,105.994,105.995,105.996,[],[],[],[],[],[],[],,105.997,105.998,-0.103333333,-0.426666667,0,0,0,,0,8,8,130,1,1,word,POLICY,cursive,policy_c.png,,,,,,
,,,,30481,001,2025-10-16_09h38.49.800,HW_LDT_1,2024.2.4,MacIntel,58.82352941,,,,,,,,,,,,,,,,,,,,,,106.001,106.194,106.194,106.694,,,,,,,,,,,,,,2.252,1,,,,,,,,,,,,,,z,,,,,,,,,,,,,,,,10,1,106.695,108.961,z,1,2.252,,[],[],[],[],[],[],[],108.961,110.961,110.961,112.594,[],[],[],[],[],[],[],z,112.594,112.595,-0.103333333,-0.426666667,0,0,0,,0,9,9,31,1,1,RL,reconal,cursive,reconal_c.png,1.626,,,,,
,,,,30481,001,2025-10-16_09h38.49.800,HW_LDT_1,2024.2.4,MacIntel,58.82352941,,,,,,,,,,,,,,,,,,,,,,112.596,112.794,112.794,113.294,,,,,,,,,,,,,,0.856,1,,,,,,,,,,,,,,m,,,,,,,,,,,,,,,,11,0,113.295,114.161,m,1,0.856,,[],[],[],[],[],[],[],114.161,116.161,116.161,116.161,[],[],[],[],[],[],[],,116.162,116.162,-0.103333333,-0.426666667,0,0,0,,0,10,10,121,1,1,word,MISTAKE,print,mistake_p.png,,,,,,
,,,,30481,001,2025-10-16_09h38.49.800,HW_LDT_1,2024.2.4,MacIntel,58.82352941,,,,,,,,,,,,,,,,,,,,,,116.163,116.361,116.361,116.861,,,,,,,,,,,,,,1.185,0,,,,,,,,,,,,,,m,,,,,,,,,,,,,,,,12,0,116.861,118.061,z,0,1.185,,[],[],[],[],[],[],[],118.061,120.061,120.061,120.062,[],[],[],[],[],[],[],,120.062,120.063,-0.103333333,-0.426666667,0,0,0,,0,11,11,122,1,1,word,MOBILE,cursive,mobile_c.png,,,,,,
,,,,30481,001,2025-10-16_09h38.49.800,HW_LDT_1,2024.2.4,MacIntel,58.82352941,,,,,,,,,,,,,,,,,,,,,,120.065,120.261,120.261,120.761,,,,,,,,,,,,,,2.585,1,,,,,,,,,,,,,,m,,,,,,,,,,,,,,,,13,0,120.762,123.361,m,1,2.585,,[],[],[],[],[],[],[],123.361,125.361,125.361,125.362,[],[],[],[],[],[],[],,125.362,125.362,-0.103333333,-0.426666667,0,0,0,,0,12,12,155,1,1,word,STRATEGY,cursive,strategy_c.png,,,,,,
,,,,30481,001,2025-10-16_09h38.49.800,HW_LDT_1,2024.2.4,MacIntel,58.82352941,,,,,,,,,,,,,,,,,,,,,,125.364,125.561,125.561,126.061,,,,,,,,,,,,,,0.643,1,,,,,,,,,,,,,,m,,,,,,,,,,,,,,,,14,0,126.062,126.711,m,1,0.643,,[],[],[],[],[],[],[],126.711,128.711,128.711,128.711,[],[],[],[],[],[],[],,128.711,128.712,-0.103333333,-0.426666667,0,0,0,,0,13,13,115,1,1,word,LOGICAL,cursive,logical_c.png,,,,,,
,,,,30481,001,2025-10-16_09h38.49.800,HW_LDT_1,2024.2.4,MacIntel,58.82352941,,,,,,,,,,,,,,,,,,,,,,128.714,128.911,128.911,129.411,,,,,,,,,,,,,,1.176,1,,,,,,,,,,,,,,z,,,,,,,,,,,,,,,,15,0,129.412,130.594,z,1,1.176,,[],[],[],[],[],[],[],130.594,132.594,132.594,132.595,[],[],[],[],[],[],[],,132.595,132.596,-0.103333333,-0.426666667,0,0,0,,0,14,14,60,1,1,TL,manire,print,manire_p.png,,,,,,
,,,,30481,001,2025-10-16_09h38.49.800,HW_LDT_1,2024.2.4,MacIntel,58.82352941,,,,,,,,,,,,,,,,,,,,,,132.597,132.793,132.794,133.294,,,,,,,,,,,,,,0.703,1,,,,,,,,,,,,,,m,,,,,,,,,,,,,,,,16,0,133.295,134.011,m,1,0.703,,[],[],[],[],[],[],[],134.011,136.011,136.011,136.011,[],[],[],[],[],[],[],,136.011,136.012,-0.103333333,-0.426666667,0,0,0,,0,15,15,126,1,1,word,OPTIMAL,print,optimal_p.png,,,,,,
,,,,30481,001,2025-10-16_09h38.49.800,HW_LDT_1,2024.2.4,MacIntel,58.82352941,,,,,,,,,,,,,,,,,,,,,,136.014,136.211,136.211,136.711,,,,,,,,,,,,,,1.303,1,,,,,,,,,,,,,,z,,,,,,,,,,,,,,,,17,0,136.712,138.028,z,1,1.303,,[],[],[],[],[],[],[],138.028,140.027,140.028,140.028,[],[],[],[],[],[],[],,140.028,140.029,-0.103333333,-0.426666667,0,0,0,,0,16,16,55,1,1,TL,fornute,print,fornute_p.png,,,,,,
,,,,30481,001,2025-10-16_09h38.49.800,HW_LDT_1,2024.2.4,MacIntel,58.82352941,,,,,,,,,,,,,,,,,,,,,,140.031,140.228,140.228,140.728,,,,,,,,,,,,,,1.089,1,,,,,,,,,,,,,,z,,,,,,,,,,,,,,,,18,0,140.728,141.828,z,1,1.089,,[],[],[],[],[],[],[],141.828,143.827,143.828,143.828,[],[],[],[],[],[],[],,143.828,143.829,-0.103333333,-0.426666667,0,0,0,,0,17,17,47,1,1,TL,cagetory,print,cagetory_p.png,,,,,,
,,,,30481,001,2025-10-16_09h38.49.800,HW_LDT_1,2024.2.4,MacIntel,58.82352941,,,,,,,,,,,,,,,,,,,,,,143.831,144.028,144.028,144.527,,,,,,,,,,,,,,1.71,1,,,,,,,,,,,,,,z,,,,,,,,,,,,,,,,19,0,144.528,146.244,z,1,1.71,,[],[],[],[],[],[],[],146.244,148.244,148.244,148.245,[],[],[],[],[],[],[],,148.245,148.245,-0.103333333,-0.426666667,0,0,0,,0,18,18,72,1,1,TL,remuse,print,remuse_p.png,,,,,,
,,,,30481,001,2025-10-16_09h38.49.800,HW_LDT_1,2024.2.4,MacIntel,58.82352941,,,,,,,,,,,,,,,,,,,,,,148.247,148.444,148.444,148.944,,,,,,,,,,,,,,0.986,1,,,,,,,,,,,,,,m,,,,,,,,,,,,,,,,20,0,148.945,149.944,m,1,0.986,,[],[],[],[],[],[],[],149.944,151.944,151.944,151.945,[],[],[],[],[],[],[],,151.945,151.945,-0.103333333,-0.426666667,0,0,0,,0,19,19,117,1,1,word,MARINE,print,marine_p.png,,,,,,
,,,,30481,001,2025-10-16_09h38.49.800,HW_LDT_1,2024.2.4,MacIntel,58.82352941,,,,,,,,,,,,,,,,,,,,,,151.947,152.144,152.144,152.644,,,,,,,,,,,,,,2.053,1,,,,,,,,,,,,,,z,,,,,,,,,,,,,,,,21,0,152.645,154.711,z,1,2.053,,[],[],[],[],[],[],[],154.711,156.711,156.711,156.712,[],[],[],[],[],[],[],,156.712,156.712,-0.103333333,-0.426666667,0,0,0,,0,20,20,36,1,1,RL,speniven,cursive,speniven_c.png,,,,,,
,,,,30481,001,2025-10-16_09h38.49.800,HW_LDT_1,2024.2.4,MacIntel,58.82352941,,,,,,,,,,,,,,,,,,,,,,156.714,156.911,156.911,157.411,,,,,,,,,,,,,,3.052,0,,,,,,,,,,,,,,m,,,,,,,,,,,,,,,,22,0,157.412,160.478,z,0,3.052,,[],[],[],[],[],[],[],160.478,162.477,162.477,162.478,[],[],[],[],[],[],[],,162.478,162.478,-0.103333333,-0.426666667,0,0,0,,0,21,21,151,1,1,word,SPECIFIC,cursive,specific_c.png,,,,,,
,,,,30481,001,2025-10-16_09h38.49.800,HW_LDT_1,2024.2.4,MacIntel,58.82352941,,,,,,,,,,,,,,,,,,,,,,162.48,162.678,162.678,163.178,,,,,,,,,,,,,,0.938,1,,,,,,,,,,,,,,z,,,,,,,,,,,,,,,,23,0,163.178,164.128,z,1,0.938,,[],[],[],[],[],[],[],164.128,166.128,166.128,166.128,[],[],[],[],[],[],[],,166.129,166.129,-0.103333333,-0.426666667,0,0,0,,0,22,22,5,1,1,RL,cobeny,cursive,cobeny_c.png,,,,,,
,,,,30481,001,2025-10-16_09h38.49.800,HW_LDT_1,2024.2.4,MacIntel,58.82352941,,,,,,,,,,,,,,,,,,,,,,166.131,166.328,166.328,166.828,,,,,,,,,,,,,,0.669,1,,,,,,,,,,,,,,m,,,,,,,,,,,,,,,,24,0,166.829,167.511,m,1,0.669,,[],[],[],[],[],[],[],167.512,169.511,169.511,169.512,[],[],[],[],[],[],[],,169.512,169.513,-0.103333333,-0.426666667,0,0,0,,0,23,23,100,1,1,word,DECADE,print,decade_p.png,,,,,,
,,,,30481,001,2025-10-16_09h38.49.800,HW_LDT_1,2024.2.4,MacIntel,58.82352941,,,,,,,,,,,,,,,,,,,,,,169.514,169.711,169.711,170.211,,,,,,,,,,,,,,1.027,1,,,,,,,,,,,,,,m,,,,,,,,,,,,,,,,25,1,170.212,171.244,m,1,1.027,,[],[],[],[],[],[],[],171.244,173.244,173.245,174.394,[],[],[],[],[],[],[],z,174.395,174.395,-0.103333333,-0.426666667,0,0,0,,0,24,24,86,1,1,word,BESIDE,print,beside_p.png,1.137,,,,,
,,,,30481,001,2025-10-16_09h38.49.800,HW_LDT_1,2024.2.4,MacIntel,58.82352941,,,,,,,,,,,,,,,,,,,,,,174.397,174.594,174.594,175.094,,,,,,,,,,,,,,1.379,1,,,,,,,,,,,,,,z,,,,,,,,,,,,,,,,26,0,175.095,176.478,z,1,1.379,,[],[],[],[],[],[],[],176.478,178.478,178.478,178.479,[],[],[],[],[],[],[],,178.479,178.479,-0.103333333,-0.426666667,0,0,0,,0,25,25,12,1,1,RL,ebiwent,print,ebiwent_p.png,,,,,,
,,,,30481,001,2025-10-16_09h38.49.800,HW_LDT_1,2024.2.4,MacIntel,58.82352941,,,,,,,,,,,,,,,,,,,,,,178.481,178.678,178.678,179.177,,,,,,,,,,,,,,1.089,1,,,,,,,,,,,,,,m,,,,,,,,,,,,,,,,27,0,179.178,180.278,m,1,1.089,,[],[],[],[],[],[],[],180.278,182.278,182.278,182.279,[],[],[],[],[],[],[],,182.279,182.279,-0.103333333,-0.426666667,0,0,0,,0,26,26,138,1,1,word,REFUSAL,print,refusal_p.png,,,,,,
,,,,30481,001,2025-10-16_09h38.49.800,HW_LDT_1,2024.2.4,MacIntel,58.82352941,,,,,,,,,,,,,,,,,,,,,,182.281,182.478,182.478,182.978,,,,,,,,,,,,,,2.287,1,,,,,,,,,,,,,,m,,,,,,,,,,,,,,,,28,0,182.978,185.278,m,1,2.287,,[],[],[],[],[],[],[],185.278,187.278,187.278,187.278,[],[],[],[],[],[],[],,187.278,187.279,-0.103333333,-0.426666667,0,0,0,,0,27,27,134,1,1,word,QUALIFY,cursive,qualify_c.png,,,,,,
,,,,30481,001,2025-10-16_09h38.49.800,HW_LDT_1,2024.2.4,MacIntel,58.82352941,,,,,,,,,,,,,,,,,,,,,,187.281,187.477,187.477,187.978,,,,,,,,,,,,,,3.437,0,,,,,,,,,,,,,,m,,,,,,,,,,,,,,,,29,0,187.979,191.428,z,0,3.437,,[],[],[],[],[],[],[],191.428,193.428,193.428,193.43,[],[],[],[],[],[],[],,193.43,193.43,-0.103333333,-0.426666667,0,0,0,,0,28,28,154,1,1,word,STORAGE,cursive,storage_c.png,,,,,,
,,,,30481,001,2025-10-16_09h38.49.800,HW_LDT_1,2024.2.4,MacIntel,58.82352941,,,,,,,,,,,,,,,,,,,,,,193.433,193.628,193.628,194.129,,,,,,,,,,,,,,1.293,1,,,,,,,,,,,,,,z,,,,,,,,,,,,,,,,30,1,194.129,195.428,z,1,1.293,,[],[],[],[],[],[],[],195.428,197.427,197.427,198.328,[],[],[],[],[],[],[],z,198.328,198.329,-0.103333333,-0.426666667,0,0,0,,0,29,29,69,1,1,TL,radiply,cursive,radiply_c.png,0.889,,,,,
,,,,30481,001,2025-10-16_09h38.49.800,HW_LDT_1,2024.2.4,MacIntel,58.82352941,,,,,,,,,,,,,,,,,,,,,,198.331,198.528,198.528,199.028,,,,,,,,,,,,,,1.037,1,,,,,,,,,,,,,,z,,,,,,,,,,,,,,,,31,0,199.029,200.078,z,1,1.037,,[],[],[],[],[],[],[],200.078,202.078,202.078,202.078,[],[],[],[],[],[],[],,202.078,202.079,-0.103333333,-0.426666667,0,0,0,,0,30,30,62,1,1,TL,mitilary,print,mitilary_p.png,,,,,,
,,,,30481,001,2025-10-16_09h38.49.800,HW_LDT_1,2024.2.4,MacIntel,58.82352941,,,,,,,,,,,,,,,,,,,,,,202.081,202.278,202.278,202.778,,,,,,,,,,,,,,2.169,1,,,,,,,,,,,,,,z,,,,,,,,,,,,,,,,32,0,202.778,204.961,z,1,2.169,,[],[],[],[],[],[],[],204.961,206.961,206.961,206.962,[],[],[],[],[],[],[],,206.962,206.962,-0.103333333,-0.426666667,0,0,0,,0,31,31,53,1,1,TL,dentisy,cursive,dentisy_c.png,,,,,,
,,,,30481,001,2025-10-16_09h38.49.800,HW_LDT_1,2024.2.4,MacIntel,58.82352941,,,,,,,,,,,,,,,,,,,,,,206.965,207.161,207.161,207.661,,,,,,,,,,,,,,1.655,1,,,,,,,,,,,,,,m,,,,,,,,,,,,,,,,33,1,207.662,209.328,m,1,1.655,,[],[],[],[],[],[],[],209.328,211.328,211.328,212.411,[],[],[],[],[],[],[],z,212.411,212.412,-0.103333333,-0.426666667,0,0,0,,0,32,32,131,1,1,word,POPULAR,cursive,popular_c.png,1.07,,,,,
,,,,30481,001,2025-10-16_09h38.49.800,HW_LDT_1,2024.2.4,MacIntel,58.82352941,,,,,,,,,,,,,,,,,,,,,,212.413,212.611,212.611,213.111,,,,,,,,,,,,,,2.686,0,,,,,,,,,,,,,,m,,,,,,,,,,,,,,,,34,0,213.112,215.811,z,0,2.686,,[],[],[],[],[],[],[],215.811,217.811,217.812,217.813,[],[],[],[],[],[],[],,217.813,217.813,-0.103333333,-0.426666667,0,0,0,,0,33,33,149,1,1,word,SENATOR,cursive,senator_c.png,,,,,,
,,,,30481,001,2025-10-16_09h38.49.800,HW_LDT_1,2024.2.4,MacIntel,58.82352941,,,,,,,,,,,,,,,,,,,,,,217.816,218.011,218.011,218.511,,,,,,,,,,,,,,0.888,1,,,,,,,,,,,,,,z,,,,,,,,,,,,,,,,35,0,218.512,219.411,z,1,0.888,,[],[],[],[],[],[],[],219.411,221.411,221.412,221.413,[],[],[],[],[],[],[],,221.413,221.413,-0.103333333,-0.426666667,0,0,0,,0,34,34,27,1,1,RL,rasibal,print,rasibal_p.png,,,,,,
,,,,30481,001,2025-10-16_09h38.49.800,HW_LDT_1,2024.2.4,MacIntel,58.82352941,,,,,,,,,,,,,,,,,,,,,,221.415,221.611,221.611,222.111,,,,,,,,,,,,,,1.393,1,,,,,,,,,,,,,,m,,,,,,,,,,,,,,,,36,0,222.112,223.511,m,1,1.393,,[],[],[],[],[],[],[],223.511,225.511,225.511,225.512,[],[],[],[],[],[],[],,225.512,225.513,-0.103333333,-0.426666667,0,0,0,,0,35,35,93,1,1,word,CEREMONY,cursive,ceremony_c.png,,,,,,
,,,,30481,001,2025-10-16_09h38.49.800,HW_LDT_1,2024.2.4,MacIntel,58.82352941,,,,,,,,,,,,,,,,,,,,,,225.514,225.711,225.711,226.211,,,,,,,,,,,,,,0.707,0,,,,,,,,,,,,,,m,,,,,,,,,,,,,,,,37,0,226.212,226.928,z,0,0.707,,[],[],[],[],[],[],[],226.928,228.928,228.928,228.928,[],[],[],[],[],[],[],,228.929,228.929,-0.103333333,-0.426666667,0,0,0,,0,36,36,107,1,1,word,EVIDENT,print,evident_p.png,,,,,,
,,,,30481,001,2025-10-16_09h38.49.800,HW_LDT_1,2024.2.4,MacIntel,58.82352941,,,,,,,,,,,,,,,,,,,,,,228.932,229.128,229.128,229.628,,,,,,,,,,,,,,1.004,1,,,,,,,,,,,,,,z,,,,,,,,,,,,,,,,38,0,229.629,230.644,z,1,1.004,,[],[],[],[],[],[],[],230.645,232.645,232.645,232.645,[],[],[],[],[],[],[],,232.645,232.646,-0.103333333,-0.426666667,0,0,0,,0,37,37,71,1,1,TL,regilion,cursive,regilion_c.png,,,,,,
,,,,30481,001,2025-10-16_09h38.49.800,HW_LDT_1,2024.2.4,MacIntel,58.82352941,,,,,,,,,,,,,,,,,,,,,,232.648,232.845,232.845,233.345,,,,,,,,,,,,,,1.845,1,,,,,,,,,,,,,,z,,,,,,,,,,,,,,,,39,0,233.345,235.195,z,1,1.845,,[],[],[],[],[],[],[],235.195,237.195,237.195,237.195,[],[],[],[],[],[],[],,237.196,237.196,-0.103333333,-0.426666667,0,0,0,,0,38,38,0,1,1,RL,abanemy,cursive,abanemy_c.png,,,,,,
,,,,30481,001,2025-10-16_09h38.49.800,HW_LDT_1,2024.2.4,MacIntel,58.82352941,,,,,,,,,,,,,,,,,,,,,,237.198,237.395,237.395,237.894,,,,,,,,,,,,,,1.086,1,,,,,,,,,,,,,,m,,,,,,,,,,,,,,,,40,0,237.895,238.995,m,1,1.086,,[],[],[],[],[],[],[],238.995,240.995,240.995,240.995,[],[],[],[],[],[],[],,240.996,240.996,-0.103333333,-0.426666667,0,0,0,,0,39,39,157,1,1,word,VALIDITY,cursive,validity_c.png,,,,,,
,,,,30481,001,2025-10-16_09h38.49.800,HW_LDT_1,2024.2.4,MacIntel,58.82352941,,,,,,,,,,,,,,,,,,,,,,240.998,241.195,241.195,241.694,,,,,,,,,,,,,,2.459,1,,,,,,,,,,,,,,z,,,,,,,,,,,,,,,,41,0,241.695,244.161,z,1,2.459,,[],[],[],[],[],[],[],244.161,246.161,246.161,246.162,[],[],[],[],[],[],[],,246.162,246.162,-0.103333333,-0.426666667,0,0,0,,0,40,40,48,1,1,TL,cemerony,cursive,cemerony_c.png,,,,,,
,,,,30481,001,2025-10-16_09h38.49.800,HW_LDT_1,2024.2.4,MacIntel,58.82352941,,,,,,,,,,,,,,,,,,,,,,246.164,246.361,246.361,246.861,,,,,,,,,,,,,,1.658,1,,,,,,,,,,,,,,z,,,,,,,,,,,,,,,,42,0,246.862,248.528,z,1,1.658,,[],[],[],[],[],[],[],248.528,250.527,250.527,250.528,[],[],[],[],[],[],[],,250.528,250.528,-0.103333333,-0.426666667,0,0,0,,0,41,41,38,1,1,RL,stopave,cursive,stopave_c.png,,,,,,
,,,,30481,001,2025-10-16_09h38.49.800,HW_LDT_1,2024.2.4,MacIntel,58.82352941,,,,,,,,,,,,,,,,,,,,,,250.53,250.728,250.728,251.228,,,,,,,,,,,,,,0.954,1,,,,,,,,,,,,,,z,,,,,,,,,,,,,,,,43,0,251.229,252.195,z,1,0.954,,[],[],[],[],[],[],[],252.195,254.195,254.195,254.196,[],[],[],[],[],[],[],,254.196,254.197,-0.103333333,-0.426666667,0,0,0,,0,42,42,76,1,1,TL,stragety,cursive,stragety_c.png,,,,,,
,,,,30481,001,2025-10-16_09h38.49.800,HW_LDT_1,2024.2.4,MacIntel,58.82352941,,,,,,,,,,,,,,,,,,,,,,254.199,254.395,254.395,254.895,,,,,,,,,,,,,,0.64,1,,,,,,,,,,,,,,z,,,,,,,,,,,,,,,,44,0,254.895,255.545,z,1,0.64,,[],[],[],[],[],[],[],255.545,257.545,257.545,257.545,[],[],[],[],[],[],[],,257.545,257.546,-0.103333333,-0.426666667,0,0,0,,0,43,43,54,1,1,TL,distupe,cursive,distupe_c.png,,,,,,
,,,,30481,001,2025-10-16_09h38.49.800,HW_LDT_1,2024.2.4,MacIntel,58.82352941,,,,,,,,,,,,,,,,,,,,,,257.548,257.745,257.745,258.244,,,,,,,,,,,,,,1.021,1,,,,,,,,,,,,,,m,,,,,,,,,,,,,,,,45,0,258.245,259.278,m,1,1.021,,[],[],[],[],[],[],[],259.278,261.278,261.278,261.278,[],[],[],[],[],[],[],,261.278,261.279,-0.103333333,-0.426666667,0,0,0,,0,44,44,97,1,1,word,COVERAGE,print,coverage_p.png,,,,,,
,,,,30481,001,2025-10-16_09h38.49.800,HW_LDT_1,2024.2.4,MacIntel,58.82352941,,,,,,,,,,,,,,,,,,,,,,261.281,261.478,261.478,261.978,,,,,,,,,,,,,,0.762,1,,,,,,,,,,,,,,z,,,,,,,,,,,,,,,,46,0,261.979,262.745,z,1,0.762,,[],[],[],[],[],[],[],262.745,264.745,264.746,264.747,[],[],[],[],[],[],[],,264.747,264.748,-0.103333333,-0.426666667,0,0,0,,0,45,45,63,1,1,TL,molibe,cursive,molibe_c.png,,,,,,
,,,,30481,001,2025-10-16_09h38.49.800,HW_LDT_1,2024.2.4,MacIntel,58.82352941,,,,,,,,,,,,,,,,,,,,,,264.751,264.945,264.945,265.445,,,,,,,,,,,,,,0.644,1,,,,,,,,,,,,,,z,,,,,,,,,,,,,,,,47,0,265.446,266.095,z,1,0.644,,[],[],[],[],[],[],[],266.095,268.095,268.095,268.096,[],[],[],[],[],[],[],,268.096,268.097,-0.103333333,-0.426666667,0,0,0,,0,46,46,59,1,1,TL,lirebal,cursive,lirebal_c.png,,,,,,
,,,,30481,001,2025-10-16_09h38.49.800,HW_LDT_1,2024.2.4,MacIntel,58.82352941,,,,,,,,,,,,,,,,,,,,,,268.099,268.295,268.295,268.795,,,,,,,,,,,,,,0.839,1,,,,,,,,,,,,,,z,,,,,,,,,,,,,,,,48,0,268.795,269.645,z,1,0.839,,[],[],[],[],[],[],[],269.645,271.644,271.644,271.644,[],[],[],[],[],[],[],,271.645,271.645,-0.103333333,-0.426666667,0,0,0,,0,47,47,28,1,1,RL,renutal,print,renutal_p.png,,,,,,
,,,,30481,001,2025-10-16_09h38.49.800,HW_LDT_1,2024.2.4,MacIntel,58.82352941,,,,,,,,,,,,,,,,,,,,,,271.645,271.845,271.845,272.345,,,,,,,,,,,,,,1.238,1,,,,,,,,,,,,,,m,,,,,,,,,,,,,,,,49,1,272.345,273.595,m,1,1.238,,[],[],[],[],[],[],[],273.595,275.595,275.595,277.112,[],[],[],[],[],[],[],z,277.112,277.112,-0.103333333,-0.426666667,0,0,0,,0,48,48,152,1,1,word,SPECIMEN,cursive,specimen_c.png,1.505,,,,,
,,,,30481,001,2025-10-16_09h38.49.800,HW_LDT_1,2024.2.4,MacIntel,58.82352941,,,,,,,,,,,,,,,,,,,,,,277.115,277.311,277.312,277.811,,,,,,,,,,,,,,1.387,1,,,,,,,,,,,,,,z,,,,,,,,,,,,,,,,50,0,277.812,279.211,z,1,1.387,,[],[],[],[],[],[],[],279.212,281.211,281.211,281.212,[],[],[],[],[],[],[],,281.212,281.213,-0.103333333,-0.426666667,0,0,0,,0,49,49,67,1,1,TL,pocily,cursive,pocily_c.png,,,,,,
,,,,30481,001,2025-10-16_09h38.49.800,HW_LDT_1,2024.2.4,MacIntel,58.82352941,,,,,,,,,,,,,,,,,,,,,,281.214,281.411,281.411,281.911,,,,,,,,,,,,,,1.052,1,,,,,,,,,,,,,,z,,,,,,,,,,,,,,,,51,1,281.912,282.978,z,1,1.052,,[],[],[],[],[],[],[],282.978,284.977,284.977,286.195,[],[],[],[],[],[],[],m,286.195,286.195,-0.103333333,-0.426666667,0,0,0,,0,50,50,78,1,1,TL,vecolity,print,vecolity_p.png,1.205,,,,,
,,,,30481,001,2025-10-16_09h38.49.800,HW_LDT_1,2024.2.4,MacIntel,58.82352941,,,,,,,,,,,,,,,,,,,,,,286.197,286.395,286.395,286.895,,,,,,,,,,,,,,2.045,0,,,,,,,,,,,,,,m,,,,,,,,,,,,,,,,52,0,286.895,288.945,z,0,2.045,,[],[],[],[],[],[],[],288.945,290.945,290.945,290.945,[],[],[],[],[],[],[],,290.945,290.946,-0.103333333,-0.427777778,0,0,0,,0,51,51,87,1,1,word,CAFETERIA,cursive,cafeteria_c.png,,,,,,
,,,,30481,001,2025-10-16_09h38.49.800,HW_LDT_1,2024.2.4,MacIntel,58.82352941,,,,,,,,,,,,,,,,,,,,,,290.948,291.145,291.145,291.645,,,,,,,,,,,,,,1.02,1,,,,,,,,,,,,,,m,,,,,,,,,,,,,,,,53,0,291.645,292.678,m,1,1.02,,[],[],[],[],[],[],[],292.678,294.678,294.678,294.679,[],[],[],[],[],[],[],,294.679,294.679,-0.103333333,-0.427777778,0,0,0,,0,52,52,124,1,1,word,NUMERICAL,print,numerical_p.png,,,,,,
,,,,30481,001,2025-10-16_09h38.49.800,HW_LDT_1,2024.2.4,MacIntel,58.82352941,,,,,,,,,,,,,,,,,,,,,,294.681,294.878,294.878,295.378,,,,,,,,,,,,,,0.891,1,,,,,,,,,,,,,,z,,,,,,,,,,,,,,,,54,0,295.379,296.278,z,1,0.891,,[],[],[],[],[],[],[],296.278,298.278,298.278,298.279,[],[],[],[],[],[],[],,298.279,298.279,-0.103333333,-0.427777778,0,0,0,,0,53,53,9,1,1,RL,docirant,cursive,docirant_c.png,,,,,,
,,,,30481,001,2025-10-16_09h38.49.800,HW_LDT_1,2024.2.4,MacIntel,58.82352941,,,,,,,,,,,,,,,,,,,,,,298.281,298.478,298.478,298.98,,,,,,,,,,,,,,1.619,1,,,,,,,,,,,,,,m,,,,,,,,,,,,,,,,55,1,298.981,300.611,m,1,1.619,,[],[],[],[],[],[],[],300.612,302.612,302.612,303.745,[],[],[],[],[],[],[],z,303.746,303.746,-0.103333333,-0.427777778,0,0,0,,0,54,54,147,1,1,word,ROMANTIC,cursive,romantic_c.png,1.128,,,,,
,,,,30481,001,2025-10-16_09h38.49.800,HW_LDT_1,2024.2.4,MacIntel,58.82352941,,,,,,,,,,,,,,,,,,,,,,303.748,303.945,303.945,304.445,,,,,,,,,,,,,,0.952,1,,,,,,,,,,,,,,z,,,,,,,,,,,,,,,,56,0,304.446,305.412,z,1,0.952,,[],[],[],[],[],[],[],305.412,307.411,307.412,307.412,[],[],[],[],[],[],[],,307.412,307.412,-0.103333333,-0.427777778,0,0,0,,0,55,55,46,1,1,TL,catipal,print,catipal_p.png,,,,,,
,,,,30481,001,2025-10-16_09h38.49.800,HW_LDT_1,2024.2.4,MacIntel,58.82352941,,,,,,,,,,,,,,,,,,,,,,307.414,307.611,307.612,308.111,,,,,,,,,,,,,,1.503,1,,,,,,,,,,,,,,z,,,,,,,,,,,,,,,,57,0,308.112,309.628,z,1,1.503,,[],[],[],[],[],[],[],309.628,311.627,311.627,311.628,[],[],[],[],[],[],[],,311.628,311.628,-0.103333333,-0.427777778,0,0,0,,0,56,56,50,1,1,TL,condiser,cursive,condiser_c.png,,,,,,
,,,,30481,001,2025-10-16_09h38.49.800,HW_LDT_1,2024.2.4,MacIntel,58.82352941,,,,,,,,,,,,,,,,,,,,,,311.63,311.828,311.828,312.328,,,,,,,,,,,,,,1.154,1,,,,,,,,,,,,,,z,,,,,,,,,,,,,,,,58,0,312.329,313.495,z,1,1.154,,[],[],[],[],[],[],[],313.495,315.495,315.495,315.496,[],[],[],[],[],[],[],,315.496,315.496,-0.103333333,-0.427777778,0,0,0,,0,57,57,74,1,1,TL,setanor,cursive,setanor_c.png,,,,,,
,,,,30481,001,2025-10-16_09h38.49.800,HW_LDT_1,2024.2.4,MacIntel,58.82352941,,,,,,,,,,,,,,,,,,,,,,315.498,315.695,315.695,316.195,,,,,,,,,,,,,,1.737,1,,,,,,,,,,,,,,m,,,,,,,,,,,,,,,,59,0,316.196,317.945,m,1,1.737,,[],[],[],[],[],[],[],317.945,319.945,319.945,319.945,[],[],[],[],[],[],[],,319.945,319.945,0.633333333,0.5,0,0,0,,0,58,58,106,1,1,word,ELABORATE,print,elaborate_p.png,,,,,,
,,,,30481,001,2025-10-16_09h38.49.800,HW_LDT_1,2024.2.4,MacIntel,58.82352941,,,,,,,,,,,,,,,,,,,,,,319.946,320.145,320.145,320.645,,,,,,,,,,,,,,2.088,1,,,,,,,,,,,,,,z,,,,,,,,,,,,,,,,60,1,320.645,322.745,z,1,2.088,,[0.2088888888888889],[0.2677777777777778],[1],[0],[0],[0.6820000000000164],[null],322.745,324.745,324.745,326.762,[],[],[],[],[],[],[],m,326.762,326.762,0.208888889,0.267777778,0,0,0,,0,59,59,43,1,1,TL,bedise,print,bedise_p.png,2.013,,,,,
,,,,30481,001,2025-10-16_09h38.49.800,HW_LDT_1,2024.2.4,MacIntel,58.82352941,,,,,,,,,,,,,,,,,,,,,,326.764,326.962,326.962,327.462,,,,,,,,,,,,,,0.911,1,,,,,,,,,,,,,,m,,,,,,,,,,,,,,,,61,0,327.462,328.378,m,1,0.911,,[],[],[],[],[],[],[],328.379,330.379,330.379,330.38,[],[],[],[],[],[],[],,330.38,330.38,0.208888889,0.267777778,0,0,0,,0,60,60,114,1,1,word,LOCATE,print,locate_p.png,,,,,,
,,,,30481,001,2025-10-16_09h38.49.800,HW_LDT_1,2024.2.4,MacIntel,58.82352941,,,,,,,,,,,,,,,,,,,,,,330.382,330.578,330.578,331.078,,,,,,,,,,,,,,1.904,1,,,,,,,,,,,,,,m,,,,,,,,,,,,,,,,62,0,331.079,332.994,m,1,1.904,,[],[],[],[],[],[],[],332.994,334.995,334.995,334.995,[],[],[],[],[],[],[],,334.995,334.996,0.208888889,0.267777778,0,0,0,,0,61,61,150,1,1,word,SENTIMENT,cursive,sentiment_c.png,,,,,,
,,,,30481,001,2025-10-16_09h38.49.800,HW_LDT_1,2024.2.4,MacIntel,58.82352941,,,,,,,,,,,,,,,,,,,,,,334.997,335.195,335.195,335.694,,,,,,,,,,,,,,1.455,1,,,,,,,,,,,,,,z,,,,,,,,,,,,,,,,63,1,335.695,337.162,z,1,1.455,,[],[],[],[],[],[],[],337.162,339.162,339.162,340.295,[],[],[],[],[],[],[],z,340.295,340.295,0.208888889,0.267777778,0,0,0,,0,62,62,68,1,1,TL,prosopal,cursive,prosopal_c.png,1.13,,,,,
,,,,30481,001,2025-10-16_09h38.49.800,HW_LDT_1,2024.2.4,MacIntel,58.82352941,,,,,,,,,,,,,,,,,,,,,,340.297,340.495,340.495,340.995,,,,,,,,,,,,,,1.67,1,,,,,,,,,,,,,,z,,,,,,,,,,,,,,,,64,0,340.995,342.678,z,1,1.67,,[],[],[],[],[],[],[],342.679,344.678,344.678,344.679,[],[],[],[],[],[],[],,344.679,344.679,0.208888889,0.267777778,0,0,0,,0,63,63,14,1,1,RL,lofase,print,lofase_p.png,,,,,,
,,,,30481,001,2025-10-16_09h38.49.800,HW_LDT_1,2024.2.4,MacIntel,58.82352941,,,,,,,,,,,,,,,,,,,,,,344.681,344.878,344.878,345.378,,,,,,,,,,,,,,0.656,1,,,,,,,,,,,,,,z,,,,,,,,,,,,,,,,65,0,345.379,346.044,z,1,0.656,,[],[],[],[],[],[],[],346.044,348.045,348.045,348.045,[],[],[],[],[],[],[],,348.046,348.046,0.208888889,0.267777778,0,0,0,,0,64,64,18,1,1,RL,mishafe,print,mishafe_p.png,,,,,,
,,,,30481,001,2025-10-16_09h38.49.800,HW_LDT_1,2024.2.4,MacIntel,58.82352941,,,,,,,,,,,,,,,,,,,,,,348.048,348.245,348.245,348.745,,,,,,,,,,,,,,1.22,1,,,,,,,,,,,,,,z,,,,,,,,,,,,,,,,66,0,348.746,349.978,z,1,1.22,,[],[],[],[],[],[],[],349.979,351.978,351.978,351.979,[],[],[],[],[],[],[],,351.979,351.979,0.208888889,0.267777778,0,0,0,,0,65,65,33,1,1,RL,recile,cursive,recile_c.png,,,,,,
,,,,30481,001,2025-10-16_09h38.49.800,HW_LDT_1,2024.2.4,MacIntel,58.82352941,,,,,,,,,,,,,,,,,,,,,,351.981,352.178,352.178,352.678,,,,,,,,,,,,,,0.803,1,,,,,,,,,,,,,,z,,,,,,,,,,,,,,,,67,1,352.679,353.495,z,1,0.803,,[],[],[],[],[],[],[],353.495,355.495,355.495,356.178,[],[],[],[],[],[],[],z,356.179,356.179,0.208888889,0.267777778,0,0,0,,0,66,66,25,1,1,RL,quakity,cursive,quakity_c.png,0.678,,,,,
,,,,30481,001,2025-10-16_09h38.49.800,HW_LDT_1,2024.2.4,MacIntel,58.82352941,,,,,,,,,,,,,,,,,,,,,,356.18,356.378,356.378,356.879,,,,,,,,,,,,,,1.238,1,,,,,,,,,,,,,,z,,,,,,,,,,,,,,,,68,0,356.88,358.128,z,1,1.238,,[],[],[],[],[],[],[],358.128,360.128,360.128,360.129,[],[],[],[],[],[],[],,360.129,360.13,0.208888889,0.267777778,0,0,0,,0,67,67,37,1,1,RL,skofen,print,skofen_p.png,,,,,,
,,,,30481,001,2025-10-16_09h38.49.800,HW_LDT_1,2024.2.4,MacIntel,58.82352941,,,,,,,,,,,,,,,,,,,,,,360.131,360.328,360.328,360.828,,,,,,,,,,,,,,1.037,1,,,,,,,,,,,,,,m,,,,,,,,,,,,,,,,69,1,360.829,361.878,m,1,1.037,,[],[],[],[],[],[],[],361.878,363.878,363.878,365.212,[],[],[],[],[],[],[],m,365.212,365.212,0.208888889,0.267777778,0,0,0,,0,68,68,128,1,1,word,PACIFIC,print,pacific_p.png,1.323,,,,,
,,,,30481,001,2025-10-16_09h38.49.800,HW_LDT_1,2024.2.4,MacIntel,58.82352941,,,,,,,,,,,,,,,,,,,,,,365.214,365.412,365.412,365.912,,,,,,,,,,,,,,1.82,1,,,,,,,,,,,,,,z,,,,,,,,,,,,,,,,70,0,365.912,367.745,z,1,1.82,,[],[],[],[],[],[],[],367.745,369.745,369.745,369.746,[],[],[],[],[],[],[],,369.746,369.746,0.208888889,0.267777778,0,0,0,,0,69,69,17,1,1,RL,menowy,cursive,menowy_c.png,,,,,,
,,,,30481,001,2025-10-16_09h38.49.800,HW_LDT_1,2024.2.4,MacIntel,58.82352941,,,,,,,,,,,,,,,,,,,,,,369.748,369.945,369.945,370.445,,,,,,,,,,,,,,0.671,1,,,,,,,,,,,,,,z,,,,,,,,,,,,,,,,71,0,370.446,371.129,z,1,0.671,,[],[],[],[],[],[],[],371.129,373.128,373.129,373.129,[],[],[],[],[],[],[],,373.129,373.13,0.208888889,0.267777778,0,0,0,,0,70,70,23,1,1,RL,potugar,cursive,potugar_c.png,,,,,,
,,,,30481,001,2025-10-16_09h38.49.800,HW_LDT_1,2024.2.4,MacIntel,58.82352941,,,,,,,,,,,,,,,,,,,,,,373.131,373.328,373.328,373.828,,,,,,,,,,,,,,0.903,1,,,,,,,,,,,,,,z,,,,,,,,,,,,,,,,72,0,373.829,374.745,z,1,0.903,,[],[],[],[],[],[],[],374.745,376.744,376.745,376.745,[],[],[],[],[],[],[],,376.745,376.745,0.208888889,0.267777778,0,0,0,,0,71,71,64,1,1,TL,orepator,cursive,orepator_c.png,,,,,,
,,,,30481,001,2025-10-16_09h38.49.800,HW_LDT_1,2024.2.4,MacIntel,58.82352941,,,,,,,,,,,,,,,,,,,,,,376.747,376.945,376.945,377.445,,,,,,,,,,,,,,1.054,1,,,,,,,,,,,,,,m,,,,,,,,,,,,,,,,73,0,377.446,378.512,m,1,1.054,,[],[],[],[],[],[],[],378.512,380.512,380.512,380.512,[],[],[],[],[],[],[],,380.513,380.513,0.208888889,0.267777778,0,0,0,,0,72,72,91,1,1,word,CARDINAL,print,cardinal_p.png,,,,,,
,,,,30481,001,2025-10-16_09h38.49.800,HW_LDT_1,2024.2.4,MacIntel,58.82352941,,,,,,,,,,,,,,,,,,,,,,380.515,380.712,380.712,381.212,,,,,,,,,,,,,,1.028,0,,,,,,,,,,,,,,m,,,,,,,,,,,,,,,,74,0,381.212,382.245,z,0,1.028,,[],[],[],[],[],[],[],382.245,384.245,384.245,384.246,[],[],[],[],[],[],[],,384.246,384.246,0.208888889,0.267777778,0,0,0,,0,73,73,129,1,1,word,PARENT,cursive,parent_c.png,,,,,,
,,,,30481,001,2025-10-16_09h38.49.800,HW_LDT_1,2024.2.4,MacIntel,58.82352941,,,,,,,,,,,,,,,,,,,,,,384.248,384.445,384.445,384.945,,,,,,,,,,,,,,0.803,1,,,,,,,,,,,,,,z,,,,,,,,,,,,,,,,75,0,384.946,385.761,z,1,0.803,,[],[],[],[],[],[],[],385.761,387.762,387.762,387.762,[],[],[],[],[],[],[],,387.762,387.763,0.208888889,0.267777778,0,0,0,,0,74,74,19,1,1,RL,monebate,print,monebate_p.png,,,,,,
,,,,30481,001,2025-10-16_09h38.49.800,HW_LDT_1,2024.2.4,MacIntel,58.82352941,,,,,,,,,,,,,,,,,,,,,,387.764,387.962,387.962,388.462,,,,,,,,,,,,,,1.07,0,,,,,,,,,,,,,,z,,,,,,,,,,,,,,,,76,0,388.462,389.545,m,0,1.07,,[],[],[],[],[],[],[],389.545,391.545,391.545,391.546,[],[],[],[],[],[],[],,391.546,391.546,0.208888889,0.267777778,0,0,0,,0,75,75,49,1,1,TL,clicinal,cursive,clicinal_c.png,,,,,,
,,,,30481,001,2025-10-16_09h38.49.800,HW_LDT_1,2024.2.4,MacIntel,58.82352941,,,,,,,,,,,,,,,,,,,,,,391.548,391.745,391.745,392.245,,,,,,,,,,,,,,1.421,1,,,,,,,,,,,,,,m,,,,,,,,,,,,,,,,77,0,392.246,393.678,m,1,1.421,,[],[],[],[],[],[],[],393.679,395.678,395.678,395.678,[],[],[],[],[],[],[],,395.679,395.679,0.208888889,0.267777778,0,0,0,,0,76,76,84,1,1,word,BELOVED,print,beloved_p.png,,,,,,
,,,,30481,001,2025-10-16_09h38.49.800,HW_LDT_1,2024.2.4,MacIntel,58.82352941,,,,,,,,,,,,,,,,,,,,,,395.681,395.879,395.879,396.38,,,,,,,,,,,,,,3.627,1,,,,,,,,,,,,,,z,,,,,,,,,,,,,,,,78,0,396.38,400.011,z,1,3.627,,[],[],[],[],[],[],[],400.011,402.012,402.012,402.012,[],[],[],[],[],[],[],,402.012,402.013,0.411111111,0.5,0,0,0,,0,77,77,26,1,1,RL,quafidy,cursive,quafidy_c.png,,,,,,
,,,,30481,001,2025-10-16_09h38.49.800,HW_LDT_1,2024.2.4,MacIntel,58.82352941,,,,,,,,,,,,,,,,,,,,,,402.014,402.212,402.212,402.712,,,,,,,,,,,,,,1.02,1,,,,,,,,,,,,,,z,,,,,,,,,,,,,,,,79,1,402.712,403.745,z,1,1.02,,[],[],[],[],[],[],[],403.745,405.745,405.745,407.679,[],[],[],[],[],[],[],m,407.679,407.679,0.338888889,0.232222222,0,0,0,,0,78,78,35,1,1,RL,senvilent,cursive,senvilent_c.png,1.928,,,,,
,,,,30481,001,2025-10-16_09h38.49.800,HW_LDT_1,2024.2.4,MacIntel,58.82352941,,,,,,,,,,,,,,,,,,,,,,407.681,407.878,407.879,408.379,,,,,,,,,,,,,,1.021,1,,,,,,,,,,,,,,m,,,,,,,,,,,,,,,,80,0,408.379,409.411,m,1,1.021,,[],[],[],[],[],[],[],409.411,411.412,411.412,411.413,[],[],[],[],[],[],[],,411.413,413.312,0.338888889,0.232222222,0,0,0,space,0,79,79,148,1,1,word,SALINE,print,saline_p.png,,,1.868,,,
,,,,30481,001,2025-10-16_09h38.49.800,HW_LDT_1,2024.2.4,MacIntel,58.82352941,,,,,,,,,,,,,,,,,,,,,,413.314,413.512,413.512,414.011,,,,,,,,,,,,,,1.287,0,,,,,,,,,,,,,,z,,,,,,,,,,,,,,,,81,0,414.012,415.312,m,0,1.287,,[],[],[],[],[],[],[],415.312,417.312,417.312,417.312,[],[],[],[],[],[],[],,417.313,417.313,0.338888889,0.232222222,0,0,0,,0,80,80,66,1,1,TL,panert,cursive,panert_c.png,,,,,,
,,,,30481,001,2025-10-16_09h38.49.800,HW_LDT_1,2024.2.4,MacIntel,58.82352941,,,,,,,,,,,,,,,,,,,,,,417.315,417.512,417.512,418.012,,,,,,,,,,,,,,0.791,1,,,,,,,,,,,,,,z,,,,,,,,,,,,,,,,82,0,418.012,418.812,z,1,0.791,,[],[],[],[],[],[],[],418.813,420.812,420.812,420.814,[],[],[],[],[],[],[],,420.814,420.815,0.338888889,0.232222222,0,0,0,,0,81,81,10,1,1,RL,efibor,cursive,efibor_c.png,,,,,,
,,,,30481,001,2025-10-16_09h38.49.800,HW_LDT_1,2024.2.4,MacIntel,58.82352941,,,,,,,,,,,,,,,,,,,,,,420.818,421.012,421.012,421.512,,,,,,,,,,,,,,1.053,1,,,,,,,,,,,,,,m,,,,,,,,,,,,,,,,83,0,421.513,422.578,m,1,1.053,,[],[],[],[],[],[],[],422.579,424.579,424.579,424.58,[],[],[],[],[],[],[],,424.58,424.581,0.338888889,0.232222222,0,0,0,,0,82,82,95,1,1,word,COMEDY,cursive,comedy_c.png,,,,,,
,,,,30481,001,2025-10-16_09h38.49.800,HW_LDT_1,2024.2.4,MacIntel,58.82352941,,,,,,,,,,,,,,,,,,,,,,424.582,424.779,424.779,425.279,,,,,,,,,,,,,,1.06,1,,,,,,,,,,,,,,z,,,,,,,,,,,,,,,,84,0,425.279,426.345,z,1,1.06,,[],[],[],[],[],[],[],426.345,428.345,428.345,428.346,[],[],[],[],[],[],[],,428.346,428.347,0.338888889,0.232222222,0,0,0,,0,83,83,7,1,1,RL,delahe,print,delahe_p.png,,,,,,
,,,,30481,001,2025-10-16_09h38.49.800,HW_LDT_1,2024.2.4,MacIntel,58.82352941,,,,,,,,,,,,,,,,,,,,,,428.349,428.545,428.545,429.045,,,,,,,,,,,,,,1.386,1,,,,,,,,,,,,,,m,,,,,,,,,,,,,,,,85,1,429.046,430.445,m,1,1.386,,[],[],[],[],[],[],[],430.445,432.445,432.445,434.895,[],[],[],[],[],[],[],z,434.895,434.896,0.338888889,0.232222222,0,0,0,,0,84,84,141,1,1,word,RELIGION,cursive,religion_c.png,2.439,,,,,
,,,,30481,001,2025-10-16_09h38.49.800,HW_LDT_1,2024.2.4,MacIntel,58.82352941,,,,,,,,,,,,,,,,,,,,,,434.898,435.095,435.095,435.595,,,,,,,,,,,,,,1.04,1,,,,,,,,,,,,,,z,,,,,,,,,,,,,,,,86,0,435.596,436.645,z,1,1.04,,[],[],[],[],[],[],[],436.645,438.645,438.645,438.646,[],[],[],[],[],[],[],,438.646,438.646,0.338888889,0.232222222,0,0,0,,0,85,85,6,1,1,RL,crisival,print,crisival_p.png,,,,,,
,,,,30481,001,2025-10-16_09h38.49.800,HW_LDT_1,2024.2.4,MacIntel,58.82352941,,,,,,,,,,,,,,,,,,,,,,438.648,438.845,438.845,439.345,,,,,,,,,,,,,,1.687,1,,,,,,,,,,,,,,m,,,,,,,,,,,,,,,,87,0,439.346,441.045,m,1,1.687,,[],[],[],[],[],[],[],441.045,443.045,443.045,443.046,[],[],[],[],[],[],[],,443.046,443.046,0.338888889,0.232222222,0,0,0,,0,86,86,108,1,1,word,FORTUNE,print,fortune_p.png,,,,,,
,,,,30481,001,2025-10-16_09h38.49.800,HW_LDT_1,2024.2.4,MacIntel,58.82352941,,,,,,,,,,,,,,,,,,,,,,443.048,443.245,443.245,443.745,,,,,,,,,,,,,,0.71,1,,,,,,,,,,,,,,m,,,,,,,,,,,,,,,,88,0,443.746,444.462,m,1,0.71,,[],[],[],[],[],[],[],444.462,446.462,446.462,446.462,[],[],[],[],[],[],[],,446.463,446.463,0.338888889,0.232222222,0,0,0,,0,87,87,145,1,1,word,RESUME,print,resume_p.png,,,,,,
,,,,30481,001,2025-10-16_09h38.49.800,HW_LDT_1,2024.2.4,MacIntel,58.82352941,,,,,,,,,,,,,,,,,,,,,,446.465,446.662,446.662,447.162,,,,,,,,,,,,,,1.62,1,,,,,,,,,,,,,,m,,,,,,,,,,,,,,,,89,1,447.163,448.795,m,1,1.62,,[],[],[],[],[],[],[],448.795,450.795,450.795,451.912,[],[],[],[],[],[],[],z,451.912,451.912,0.338888889,0.232222222,0,0,0,,0,88,88,94,1,1,word,CLINICAL,cursive,clinical_c.png,1.106,,,,,
,,,,30481,001,2025-10-16_09h38.49.800,HW_LDT_1,2024.2.4,MacIntel,58.82352941,,,,,,,,,,,,,,,,,,,,,,451.914,452.112,452.112,452.612,,,,,,,,,,,,,,0.925,1,,,,,,,,,,,,,,m,,,,,,,,,,,,,,,,90,0,452.613,453.545,m,1,0.925,,[],[],[],[],[],[],[],453.545,455.545,455.546,455.546,[],[],[],[],[],[],[],,455.546,455.546,0.338888889,0.232222222,0,0,0,,0,89,89,90,1,1,word,CAPITAL,print,capital_p.png,,,,,,
,,,,30481,001,2025-10-16_09h38.49.800,HW_LDT_1,2024.2.4,MacIntel,58.82352941,,,,,,,,,,,,,,,,,,,,,,455.548,455.745,455.745,456.245,,,,,,,,,,,,,,1.239,1,,,,,,,,,,,,,,m,,,,,,,,,,,,,,,,91,0,456.246,457.495,m,1,1.239,,[],[],[],[],[],[],[],457.496,459.495,459.496,459.496,[],[],[],[],[],[],[],,459.497,459.497,0.338888889,0.232222222,0,0,0,,0,90,90,120,1,1,word,MILITARY,print,military_p.png,,,,,,
,,,,30481,001,2025-10-16_09h38.49.800,HW_LDT_1,2024.2.4,MacIntel,58.82352941,,,,,,,,,,,,,,,,,,,,,,459.5,459.695,459.696,460.196,,,,,,,,,,,,,,1.094,1,,,,,,,,,,,,,,z,,,,,,,,,,,,,,,,92,0,460.197,461.295,z,1,1.094,,[],[],[],[],[],[],[],461.295,463.295,463.295,463.296,[],[],[],[],[],[],[],,463.296,463.296,0.338888889,0.232222222,0,0,0,,0,91,91,1,1,1,RL,adnicory,cursive,adnicory_c.png,,,,,,
,,,,30481,001,2025-10-16_09h38.49.800,HW_LDT_1,2024.2.4,MacIntel,58.82352941,,,,,,,,,,,,,,,,,,,,,,463.298,463.495,463.496,463.995,,,,,,,,,,,,,,1.188,1,,,,,,,,,,,,,,m,,,,,,,,,,,,,,,,93,0,463.996,465.195,m,1,1.188,,[],[],[],[],[],[],[],465.195,467.195,467.195,467.196,[],[],[],[],[],[],[],,467.196,467.196,0.338888889,0.232222222,0,0,0,,0,92,92,112,1,1,word,LIBERAL,cursive,liberal_c.png,,,,,,
,,,,30481,001,2025-10-16_09h38.49.800,HW_LDT_1,2024.2.4,MacIntel,58.82352941,,,,,,,,,,,,,,,,,,,,,,467.198,467.395,467.395,467.895,,,,,,,,,,,,,,1.212,1,,,,,,,,,,,,,,m,,,,,,,,,,,,,,,,94,0,467.896,469.112,m,1,1.212,,[],[],[],[],[],[],[],469.112,471.112,471.112,471.113,[],[],[],[],[],[],[],,471.113,471.113,0.338888889,0.232222222,0,0,0,,0,93,93,127,1,1,word,ORIGINAL,cursive,original_c.png,,,,,,
,,,,30481,001,2025-10-16_09h38.49.800,HW_LDT_1,2024.2.4,MacIntel,58.82352941,,,,,,,,,,,,,,,,,,,,,,471.115,471.312,471.312,471.812,,,,,,,,,,,,,,0.972,0,,,,,,,,,,,,,,m,,,,,,,,,,,,,,,,95,1,471.813,472.795,z,0,0.972,,[],[],[],[],[],[],[],472.796,474.795,474.795,476.379,[],[],[],[],[],[],[],z,476.379,476.379,0.338888889,0.232222222,0,0,0,,0,94,94,103,1,1,word,DISPUTE,cursive,dispute_c.png,1.577,,,,,
,,,,30481,001,2025-10-16_09h38.49.800,HW_LDT_1,2024.2.4,MacIntel,58.82352941,,,,,,,,,,,,,,,,,,,,,,476.38,476.579,476.579,477.079,,,,,,,,,,,,,,1.045,1,,,,,,,,,,,,,,z,,,,,,,,,,,,,,,,96,0,477.079,478.129,z,1,1.045,,[],[],[],[],[],[],[],478.129,480.13,480.13,480.13,[],[],[],[],[],[],[],,480.13,480.131,0.338888889,0.232222222,0,0,0,,0,95,95,16,1,1,RL,marmipal,print,marmipal_p.png,,,,,,
,,,,30481,001,2025-10-16_09h38.49.800,HW_LDT_1,2024.2.4,MacIntel,58.82352941,,,,,,,,,,,,,,,,,,,,,,480.132,480.329,480.329,480.829,,,,,,,,,,,,,,1.119,1,,,,,,,,,,,,,,z,,,,,,,,,,,,,,,,97,0,480.829,481.962,z,1,1.119,,[],[],[],[],[],[],[],481.962,483.962,483.962,483.963,[],[],[],[],[],[],[],,483.963,483.963,0.338888889,0.232222222,0,0,0,,0,96,96,11,1,1,RL,elacodate,print,elacodate_p.png,,,,,,
,,,,30481,001,2025-10-16_09h38.49.800,HW_LDT_1,2024.2.4,MacIntel,58.82352941,,,,,,,,,,,,,,,,,,,,,,483.965,484.162,484.162,484.662,,,,,,,,,,,,,,1.008,0,,,,,,,,,,,,,,m,,,,,,,,,,,,,,,,98,0,484.663,485.678,z,0,1.008,,[],[],[],[],[],[],[],485.678,487.679,487.679,487.679,[],[],[],[],[],[],[],,487.679,487.68,0.338888889,0.232222222,0,0,0,,0,97,97,146,1,1,word,RETIRE,cursive,retire_c.png,,,,,,
,,,,30481,001,2025-10-16_09h38.49.800,HW_LDT_1,2024.2.4,MacIntel,58.82352941,,,,,,,,,,,,,,,,,,,,,,487.682,487.879,487.879,488.379,,,,,,,,,,,,,,1.069,1,,,,,,,,,,,,,,z,,,,,,,,,,,,,,,,99,0,488.38,489.462,z,1,1.069,,[],[],[],[],[],[],[],489.462,491.462,491.462,491.463,[],[],[],[],[],[],[],,491.463,491.463,0.338888889,0.232222222,0,0,0,,0,98,98,8,1,1,RL,debave,print,debave_p.png,,,,,,
,,,,30481,001,2025-10-16_09h38.49.800,HW_LDT_1,2024.2.4,MacIntel,58.82352941,,,,,,,,,,,,,,,,,,,,,,491.465,491.662,491.662,492.162,,,,,,,,,,,,,,1.554,1,,,,,,,,,,,,,,z,,,,,,,,,,,,,,,,100,0,492.163,493.729,z,1,1.554,,[],[],[],[],[],[],[],493.729,495.729,495.73,495.731,[],[],[],[],[],[],[],,495.731,495.732,0.338888889,0.232222222,0,0,0,,0,99,99,56,1,1,TL,grafetul,print,grafetul_p.png,,,,,,
,,,,30481,001,2025-10-16_09h38.49.800,HW_LDT_1,2024.2.4,MacIntel,58.82352941,,,,,,,,,,,,,,,,,,,,,,495.734,495.929,495.929,496.429,,,,,,,,,,,,,,0.871,1,,,,,,,,,,,,,,m,,,,,,,,,,,,,,,,101,0,496.43,497.312,m,1,0.871,,[],[],[],[],[],[],[],497.313,499.312,499.313,499.313,[],[],[],[],[],[],[],,499.313,499.314,0.338888889,0.232222222,0,0,0,,0,100,100,144,1,1,word,RESIDENT,print,resident_p.png,,,,,,
,,,,30481,001,2025-10-16_09h38.49.800,HW_LDT_1,2024.2.4,MacIntel,58.82352941,,,,,,,,,,,,,,,,,,,,,,499.316,499.511,499.512,500.012,,,,,,,,,,,,,,0.975,1,,,,,,,,,,,,,,z,,,,,,,,,,,,,,,,102,0,500.012,500.996,z,1,0.975,,[],[],[],[],[],[],[],500.996,502.995,502.996,502.996,[],[],[],[],[],[],[],,502.996,502.997,0.338888889,0.232222222,0,0,0,,0,101,101,57,1,1,TL,hetirage,cursive,hetirage_c.png,,,,,,
,,,,30481,001,2025-10-16_09h38.49.800,HW_LDT_1,2024.2.4,MacIntel,58.82352941,,,,,,,,,,,,,,,,,,,,,,502.998,503.196,503.196,503.695,,,,,,,,,,,,,,2.786,1,,,,,,,,,,,,,,m,,,,,,,,,,,,,,,,103,0,503.696,506.496,m,1,2.786,,[],[],[],[],[],[],[],506.496,508.496,508.496,508.496,[],[],[],[],[],[],[],,508.496,508.497,0.338888889,0.232222222,0,0,0,,0,102,102,80,1,1,word,ACADEMY,cursive,academy_c.png,,,,,,
,,,,30481,001,2025-10-16_09h38.49.800,HW_LDT_1,2024.2.4,MacIntel,58.82352941,,,,,,,,,,,,,,,,,,,,,,508.499,508.696,508.696,509.196,,,,,,,,,,,,,,2.356,1,,,,,,,,,,,,,,m,,,,,,,,,,,,,,,,104,0,509.196,511.562,m,1,2.356,,[],[],[],[],[],[],[],511.562,513.562,513.562,513.563,[],[],[],[],[],[],[],,513.563,513.563,0.338888889,0.232222222,0,0,0,,0,103,103,132,1,1,word,PROPOSAL,cursive,proposal_c.png,,,,,,
,,,,30481,001,2025-10-16_09h38.49.800,HW_LDT_1,2024.2.4,MacIntel,58.82352941,,,,,,,,,,,,,,,,,,,,,,513.565,513.762,513.762,514.262,,,,,,,,,,,,,,2.935,1,,,,,,,,,,,,,,m,,,,,,,,,,,,,,,,105,0,514.263,517.212,m,1,2.935,,[],[],[],[],[],[],[],517.212,519.212,519.212,519.213,[],[],[],[],[],[],[],,519.213,519.213,0.338888889,0.232222222,0,0,0,,0,104,104,118,1,1,word,MEDICINE,cursive,medicine_c.png,,,,,,
,,,,30481,001,2025-10-16_09h38.49.800,HW_LDT_1,2024.2.4,MacIntel,58.82352941,,,,,,,,,,,,,,,,,,,,,,519.215,519.412,519.412,519.912,,,,,,,,,,,,,,1.021,0,,,,,,,,,,,,,,z,,,,,,,,,,,,,,,,106,0,519.913,520.946,m,0,1.021,,[],[],[],[],[],[],[],520.946,522.946,522.946,522.946,[],[],[],[],[],[],[],,522.946,522.947,0.338888889,0.232222222,0,0,0,,0,105,105,65,1,1,TL,orinigal,cursive,orinigal_c.png,,,,,,
,,,,30481,001,2025-10-16_09h38.49.800,HW_LDT_1,2024.2.4,MacIntel,58.82352941,,,,,,,,,,,,,,,,,,,,,,522.948,523.146,523.146,523.646,,,,,,,,,,,,,,0.706,1,,,,,,,,,,,,,,m,,,,,,,,,,,,,,,,107,0,523.646,524.362,m,1,0.706,,[],[],[],[],[],[],[],524.362,526.362,526.362,526.363,[],[],[],[],[],[],[],,526.363,526.363,0.338888889,0.232222222,0,0,0,,0,106,106,83,1,1,word,ANIMAL,print,animal_p.png,,,,,,
,,,,30481,001,2025-10-16_09h38.49.800,HW_LDT_1,2024.2.4,MacIntel,58.82352941,,,,,,,,,,,,,,,,,,,,,,526.365,526.562,526.562,527.062,,,,,,,,,,,,,,0.736,1,,,,,,,,,,,,,,z,,,,,,,,,,,,,,,,108,0,527.063,527.812,z,1,0.736,,[],[],[],[],[],[],[],527.813,529.812,529.812,529.812,[],[],[],[],[],[],[],,529.812,529.813,0.338888889,0.232222222,0,0,0,,0,107,107,52,1,1,TL,decilate,cursive,decilate_c.png,,,,,,
,,,,30481,001,2025-10-16_09h38.49.800,HW_LDT_1,2024.2.4,MacIntel,58.82352941,,,,,,,,,,,,,,,,,,,,,,529.814,530.012,530.012,530.513,,,,,,,,,,,,,,0.854,1,,,,,,,,,,,,,,m,,,,,,,,,,,,,,,,109,0,530.513,531.379,m,1,0.854,,[],[],[],[],[],[],[],531.379,533.381,533.381,533.381,[],[],[],[],[],[],[],,533.382,533.382,0.338888889,0.232222222,0,0,0,,0,108,108,113,1,1,word,LITERAL,print,literal_p.png,,,,,,
,,,,30481,001,2025-10-16_09h38.49.800,HW_LDT_1,2024.2.4,MacIntel,58.82352941,,,,,,,,,,,,,,,,,,,,,,533.384,533.579,533.58,534.079,,,,,,,,,,,,,,0.87,1,,,,,,,,,,,,,,z,,,,,,,,,,,,,,,,110,0,534.081,534.962,z,1,0.87,,[],[],[],[],[],[],[],534.963,536.962,536.962,536.963,[],[],[],[],[],[],[],,536.963,536.963,0.338888889,0.232222222,0,0,0,,0,109,109,32,1,1,RL,rebicent,print,rebicent_p.png,,,,,,
,,,,30481,001,2025-10-16_09h38.49.800,HW_LDT_1,2024.2.4,MacIntel,58.82352941,,,,,,,,,,,,,,,,,,,,,,536.965,537.162,537.163,537.662,,,,,,,,,,,,,,0.642,1,,,,,,,,,,,,,,m,,,,,,,,,,,,,,,,111,0,537.663,538.312,m,1,0.642,,[],[],[],[],[],[],[],538.312,540.312,540.313,540.313,[],[],[],[],[],[],[],,540.313,540.313,0.338888889,0.232222222,0,0,0,,0,110,110,89,1,1,word,CAPACITY,print,capacity_p.png,,,,,,
,,,,30481,001,2025-10-16_09h38.49.800,HW_LDT_1,2024.2.4,MacIntel,58.82352941,,,,,,,,,,,,,,,,,,,,,,540.315,540.512,540.512,541.012,,,,,,,,,,,,,,0.704,1,,,,,,,,,,,,,,z,,,,,,,,,,,,,,,,112,0,541.013,541.729,z,1,0.704,,[],[],[],[],[],[],[],541.729,543.729,543.729,543.73,[],[],[],[],[],[],[],,543.73,543.73,0.338888889,0.232222222,0,0,0,,0,111,111,13,1,1,RL,linefal,print,linefal_p.png,,,,,,
,,,,30481,001,2025-10-16_09h38.49.800,HW_LDT_1,2024.2.4,MacIntel,58.82352941,,,,,,,,,,,,,,,,,,,,,,543.732,543.929,543.929,544.429,,,,,,,,,,,,,,1.636,1,,,,,,,,,,,,,,z,,,,,,,,,,,,,,,,113,0,544.43,546.079,z,1,1.636,,[],[],[],[],[],[],[],546.079,548.079,548.079,548.08,[],[],[],[],[],[],[],,548.08,548.08,0.338888889,0.232222222,0,0,0,,0,112,112,61,1,1,TL,mecidine,cursive,mecidine_c.png,,,,,,
,,,,30481,001,2025-10-16_09h38.49.800,HW_LDT_1,2024.2.4,MacIntel,58.82352941,,,,,,,,,,,,,,,,,,,,,,548.082,548.279,548.279,548.779,,,,,,,,,,,,,,1.037,1,,,,,,,,,,,,,,m,,,,,,,,,,,,,,,,114,0,548.78,549.829,m,1,1.037,,[],[],[],[],[],[],[],549.829,551.829,551.829,551.83,[],[],[],[],[],[],[],,551.83,551.83,0.338888889,0.232222222,0,0,0,,0,113,113,116,1,1,word,MARGINAL,print,marginal_p.png,,,,,,
,,,,30481,001,2025-10-16_09h38.49.800,HW_LDT_1,2024.2.4,MacIntel,58.82352941,,,,,,,,,,,,,,,,,,,,,,551.832,552.029,552.029,552.528,,,,,,,,,,,,,,0.772,1,,,,,,,,,,,,,,z,,,,,,,,,,,,,,,,115,0,552.529,553.312,z,1,0.772,,[],[],[],[],[],[],[],553.312,555.312,555.312,555.313,[],[],[],[],[],[],[],,555.313,555.313,0.338888889,0.232222222,0,0,0,,0,114,114,41,1,1,TL,bevoled,print,bevoled_p.png,,,,,,
,,,,30481,001,2025-10-16_09h38.49.800,HW_LDT_1,2024.2.4,MacIntel,58.82352941,,,,,,,,,,,,,,,,,,,,,,555.315,555.513,555.513,556.012,,,,,,,,,,,,,,0.921,0,,,,,,,,,,,,,,z,,,,,,,,,,,,,,,,116,0,556.013,556.945,m,0,0.921,,[],[],[],[],[],[],[],556.945,558.946,558.946,558.946,[],[],[],[],[],[],[],,558.946,558.947,0.338888889,0.232222222,0,0,0,,0,115,115,51,1,1,TL,corevage,print,corevage_p.png,,,,,,
,,,,30481,001,2025-10-16_09h38.49.800,HW_LDT_1,2024.2.4,MacIntel,58.82352941,,,,,,,,,,,,,,,,,,,,,,558.948,559.146,559.146,559.646,,,,,,,,,,,,,,0.906,1,,,,,,,,,,,,,,m,,,,,,,,,,,,,,,,117,0,559.646,560.562,m,1,0.906,,[],[],[],[],[],[],[],560.563,562.562,562.563,562.563,[],[],[],[],[],[],[],,562.563,562.563,0.338888889,0.232222222,0,0,0,,0,116,116,99,1,1,word,DEBATE,print,debate_p.png,,,,,,
,,,,30481,001,2025-10-16_09h38.49.800,HW_LDT_1,2024.2.4,MacIntel,58.82352941,,,,,,,,,,,,,,,,,,,,,,562.565,562.762,562.763,563.262,,,,,,,,,,,,,,0.678,0,,,,,,,,,,,,,,m,,,,,,,,,,,,,,,,118,1,563.263,563.946,z,0,0.678,,[],[],[],[],[],[],[],563.946,565.946,565.946,566.913,[],[],[],[],[],[],[],z,566.913,566.913,0.338888889,0.232222222,0,0,0,,0,117,117,110,1,1,word,HERITAGE,cursive,heritage_c.png,0.964,,,,,
,,,,30481,001,2025-10-16_09h38.49.800,HW_LDT_1,2024.2.4,MacIntel,58.82352941,,,,,,,,,,,,,,,,,,,,,,566.915,567.113,567.113,567.612,,,,,,,,,,,,,,0.836,1,,,,,,,,,,,,,,z,,,,,,,,,,,,,,,,119,0,567.613,568.463,z,1,0.836,,[],[],[],[],[],[],[],568.463,570.463,570.463,570.463,[],[],[],[],[],[],[],,570.463,570.463,0.338888889,0.232222222,0,0,0,,0,118,118,34,1,1,RL,samite,print,samite_p.png,,,,,,
,,,,30481,001,2025-10-16_09h38.49.800,HW_LDT_1,2024.2.4,MacIntel,58.82352941,,,,,,,,,,,,,,,,,,,,,,570.465,570.663,570.663,571.162,,,,,,,,,,,,,,0.992,1,,,,,,,,,,,,,,m,,,,,,,,,,,,,,,,120,0,571.163,572.162,m,1,0.992,,[],[],[],[],[],[],[],572.163,574.162,574.163,574.163,[],[],[],[],[],[],[],,574.163,574.164,0.338888889,0.232222222,0,0,0,,0,119,119,153,1,1,word,STOLEN,print,stolen_p.png,,,,,,
,,,,30481,001,2025-10-16_09h38.49.800,HW_LDT_1,2024.2.4,MacIntel,58.82352941,,,,,,,,,,,,,,,,,,,,,,574.165,574.362,574.362,574.862,,,,,,,,,,,,,,1.053,1,,,,,,,,,,,,,,m,,,,,,,,,,,,,,,,121,0,574.863,575.929,m,1,1.053,,[],[],[],[],[],[],[],575.929,577.929,577.929,577.93,[],[],[],[],[],[],[],,577.93,577.93,0.338888889,0.232222222,0,0,0,,0,120,120,137,1,1,word,RAPIDLY,cursive,rapidly_c.png,,,,,,
,,,,30481,001,2025-10-16_09h38.49.800,HW_LDT_1,2024.2.4,MacIntel,58.82352941,,,,,,,,,,,,,,,,,,,,,,577.932,578.129,578.129,578.629,,,,,,,,,,,,,,0.838,0,,,,,,,,,,,,,,m,,,,,,,,,,,,,,,,122,1,578.63,579.479,z,0,0.838,,[],[],[],[],[],[],[],579.479,581.479,581.479,582.429,[],[],[],[],[],[],[],z,582.429,582.43,0.338888889,0.232222222,0,0,0,,0,121,121,101,1,1,word,DELICATE,cursive,delicate_c.png,0.938,,,,,
,,,,30481,001,2025-10-16_09h38.49.800,HW_LDT_1,2024.2.4,MacIntel,58.82352941,,,,,,,,,,,,,,,,,,,,,,582.432,582.63,582.63,583.129,,,,,,,,,,,,,,1.355,1,,,,,,,,,,,,,,m,,,,,,,,,,,,,,,,123,0,583.13,584.496,m,1,1.355,,[],[],[],[],[],[],[],584.496,586.496,586.496,586.496,[],[],[],[],[],[],[],,586.496,586.497,0.338888889,0.232222222,0,0,0,,0,122,122,102,1,1,word,DENSITY,cursive,density_c.png,,,,,,
,,,,30481,001,2025-10-16_09h38.49.800,HW_LDT_1,2024.2.4,MacIntel,58.82352941,,,,,,,,,,,,,,,,,,,,,,586.498,586.696,586.696,587.196,,,,,,,,,,,,,,1.005,1,,,,,,,,,,,,,,z,,,,,,,,,,,,,,,,124,0,587.196,588.213,z,1,1.005,,[],[],[],[],[],[],[],588.213,590.213,590.213,590.213,[],[],[],[],[],[],[],,590.213,590.214,0.338888889,0.232222222,0,0,0,,0,123,123,39,1,1,RL,vabifity,cursive,vabifity_c.png,,,,,,
,,,,30481,001,2025-10-16_09h38.49.800,HW_LDT_1,2024.2.4,MacIntel,58.82352941,,,,,,,,,,,,,,,,,,,,,,590.216,590.413,590.413,590.912,,,,,,,,,,,,,,0.839,0,,,,,,,,,,,,,,m,,,,,,,,,,,,,,,,125,0,590.913,591.762,z,0,0.839,,[],[],[],[],[],[],[],591.763,593.763,593.763,593.763,[],[],[],[],[],[],[],,593.763,593.763,0.338888889,0.232222222,0,0,0,,0,124,124,125,1,1,word,OPERATOR,cursive,operator_c.png,,,,,,
,,,,30481,001,2025-10-16_09h38.49.800,HW_LDT_1,2024.2.4,MacIntel,58.82352941,,,,,,,,,,,,,,,,,,,,,,593.766,593.963,593.963,594.463,,,,,,,,,,,,,,0.973,0,,,,,,,,,,,,,,m,,,,,,,,,,,,,,,,126,0,594.463,595.446,z,0,0.973,,[],[],[],[],[],[],[],595.446,597.446,597.446,597.447,[],[],[],[],[],[],[],,597.447,597.447,0.338888889,0.232222222,0,0,0,,0,125,125,88,1,1,word,CAMERA,cursive,camera_c.png,,,,,,
,,,,30481,001,2025-10-16_09h38.49.800,HW_LDT_1,2024.2.4,MacIntel,58.82352941,,,,,,,,,,,,,,,,,,,,,,597.449,597.646,597.646,598.146,,,,,,,,,,,,,,1.12,1,,,,,,,,,,,,,,m,,,,,,,,,,,,,,,,127,0,598.147,599.279,m,1,1.12,,[],[],[],[],[],[],[],599.279,601.279,601.279,601.28,[],[],[],[],[],[],[],,601.28,601.28,0.338888889,0.232222222,0,0,0,,0,126,126,158,1,1,word,VELOCITY,print,velocity_p.png,,,,,,
,,,,30481,001,2025-10-16_09h38.49.800,HW_LDT_1,2024.2.4,MacIntel,58.82352941,,,,,,,,,,,,,,,,,,,,,,601.283,601.479,601.479,601.979,,,,,,,,,,,,,,1.489,1,,,,,,,,,,,,,,z,,,,,,,,,,,,,,,,128,0,601.98,603.478,z,1,1.489,,[],[],[],[],[],[],[],603.479,605.479,605.479,605.48,[],[],[],[],[],[],[],,605.48,605.48,0.338888889,0.232222222,0,0,0,,0,127,127,44,1,1,TL,cateferia,cursive,cateferia_c.png,,,,,,
,,,,30481,001,2025-10-16_09h38.49.800,HW_LDT_1,2024.2.4,MacIntel,58.82352941,,,,,,,,,,,,,,,,,,,,,,605.483,605.679,605.68,606.179,,,,,,,,,,,,,,1.171,1,,,,,,,,,,,,,,z,,,,,,,,,,,,,,,,129,1,606.18,607.363,z,1,1.171,,[],[],[],[],[],[],[],607.363,609.362,609.362,610.996,[],[],[],[],[],[],[],m,610.996,610.997,0.338888889,0.232222222,0,0,0,,0,128,128,79,1,1,TL,veretan,print,veretan_p.png,1.626,,,,,
,,,,30481,001,2025-10-16_09h38.49.800,HW_LDT_1,2024.2.4,MacIntel,58.82352941,,,,,,,,,,,,,,,,,,,,,,610.998,611.196,611.196,611.696,,,,,,,,,,,,,,0.905,1,,,,,,,,,,,,,,m,,,,,,,,,,,,,,,,130,0,611.697,612.613,m,1,0.905,,[],[],[],[],[],[],[],612.613,614.613,614.613,614.613,[],[],[],[],[],[],[],,614.613,614.614,0.338888889,0.232222222,0,0,0,,0,129,129,92,1,1,word,CATEGORY,print,category_p.png,,,,,,
,,,,30481,001,2025-10-16_09h38.49.800,HW_LDT_1,2024.2.4,MacIntel,58.82352941,,,,,,,,,,,,,,,,,,,,,,614.616,614.813,614.813,615.313,,,,,,,,,,,,,,0.886,1,,,,,,,,,,,,,,m,,,,,,,,,,,,,,,,131,0,615.313,616.213,m,1,0.886,,[],[],[],[],[],[],[],616.213,618.213,618.213,618.213,[],[],[],[],[],[],[],,618.213,618.214,0.338888889,0.232222222,0,0,0,,0,130,130,136,1,1,word,RADICAL,print,radical_p.png,,,,,,
,,,,30481,001,2025-10-16_09h38.49.800,HW_LDT_1,2024.2.4,MacIntel,58.82352941,,,,,,,,,,,,,,,,,,,,,,618.216,618.413,618.413,618.913,,,,,,,,,,,,,,1.193,1,,,,,,,,,,,,,,z,,,,,,,,,,,,,,,,132,0,618.913,620.113,z,1,1.193,,[],[],[],[],[],[],[],620.113,622.113,622.113,622.113,[],[],[],[],[],[],[],,622.113,622.114,0.338888889,0.232222222,0,0,0,,0,131,131,15,1,1,RL,losipal,cursive,losipal_c.png,,,,,,
,,,,30481,001,2025-10-16_09h38.49.800,HW_LDT_1,2024.2.4,MacIntel,58.82352941,,,,,,,,,,,,,,,,,,,,,,622.123,622.313,622.313,622.813,,,,,,,,,,,,,,1.318,1,,,,,,,,,,,,,,z,,,,,,,,,,,,,,,,133,1,622.814,624.145,z,1,1.318,,[],[],[],[],[],[],[],624.145,626.146,626.147,627.263,[],[],[],[],[],[],[],m,627.263,627.264,0.338888889,0.232222222,0,0,0,,0,132,132,4,1,1,RL,carminal,print,carminal_p.png,1.104,,,,,
,,,,30481,001,2025-10-16_09h38.49.800,HW_LDT_1,2024.2.4,MacIntel,58.82352941,,,,,,,,,,,,,,,,,,,,,,627.266,627.463,627.463,627.963,,,,,,,,,,,,,,1.618,1,,,,,,,,,,,,,,m,,,,,,,,,,,,,,,,134,0,627.964,629.596,m,1,1.618,,[],[],[],[],[],[],[],629.596,631.596,631.597,631.597,[],[],[],[],[],[],[],,631.598,631.598,0.338888889,0.232222222,0,0,0,,0,133,133,104,1,1,word,DOMINANT,cursive,dominant_c.png,,,,,,
,,,,30481,001,2025-10-16_09h38.49.800,HW_LDT_1,2024.2.4,MacIntel,58.82352941,,,,,,,,,,,,,,,,,,,,,,631.6,631.796,631.796,632.296,,,,,,,,,,,,,,1.228,1,,,,,,,,,,,,,,m,,,,,,,,,,,,,,,,135,0,632.297,633.529,m,1,1.228,,[],[],[],[],[],[],[],633.53,635.529,635.53,635.53,[],[],[],[],[],[],[],,635.53,635.531,0.338888889,0.232222222,0,0,0,,0,134,134,123,1,1,word,MODERATE,print,moderate_p.png,,,,,,
,,,,30481,001,2025-10-16_09h38.49.800,HW_LDT_1,2024.2.4,MacIntel,58.82352941,,,,,,,,,,,,,,,,,,,,,,635.532,635.73,635.73,636.229,,,,,,,,,,,,,,0.724,1,,,,,,,,,,,,,,z,,,,,,,,,,,,,,,,136,0,636.23,636.963,z,1,0.724,,[],[],[],[],[],[],[],636.963,638.963,638.963,638.963,[],[],[],[],[],[],[],,638.963,638.964,0.338888889,0.232222222,0,0,0,,0,135,135,20,1,1,RL,nunewical,print,nunewical_p.png,,,,,,
,,,,30481,001,2025-10-16_09h38.49.800,HW_LDT_1,2024.2.4,MacIntel,58.82352941,,,,,,,,,,,,,,,,,,,,,,638.966,639.163,639.163,639.663,,,,,,,,,,,,,,2.089,1,,,,,,,,,,,,,,m,,,,,,,,,,,,,,,,137,0,639.663,641.763,m,1,2.089,,[],[],[],[],[],[],[],641.763,643.763,643.763,643.763,[],[],[],[],[],[],[],,643.763,643.764,0.338888889,0.232222222,0,0,0,,0,136,136,156,1,1,word,TRIBUTE,cursive,tribute_c.png,,,,,,
,,,,30481,001,2025-10-16_09h38.49.800,HW_LDT_1,2024.2.4,MacIntel,58.82352941,,,,,,,,,,,,,,,,,,,,,,643.766,643.963,643.963,644.463,,,,,,,,,,,,,,1.846,1,,,,,,,,,,,,,,m,,,,,,,,,,,,,,,,138,0,644.463,646.313,m,1,1.846,,[],[],[],[],[],[],[],646.313,648.316,648.316,648.317,[],[],[],[],[],[],[],,648.317,648.317,0.338888889,0.232222222,0,0,0,,0,137,137,135,1,1,word,QUALITY,cursive,quality_c.png,,,,,,
,,,,30481,001,2025-10-16_09h38.49.800,HW_LDT_1,2024.2.4,MacIntel,58.82352941,,,,,,,,,,,,,,,,,,,,,,648.319,648.513,648.513,649.013,,,,,,,,,,,,,,1.305,1,,,,,,,,,,,,,,z,,,,,,,,,,,,,,,,139,0,649.013,650.329,z,1,1.305,,[],[],[],[],[],[],[],650.329,652.329,652.329,652.33,[],[],[],[],[],[],[],,652.33,652.33,0.338888889,0.232222222,0,0,0,,0,138,138,77,1,1,TL,tritube,cursive,tritube_c.png,,,,,,
,,,,30481,001,2025-10-16_09h38.49.800,HW_LDT_1,2024.2.4,MacIntel,58.82352941,,,,,,,,,,,,,,,,,,,,,,652.332,652.529,652.529,653.029,,,,,,,,,,,,,,0.97,1,,,,,,,,,,,,,,m,,,,,,,,,,,,,,,,140,0,653.03,654.013,m,1,0.97,,[],[],[],[],[],[],[],654.013,656.013,656.013,656.013,[],[],[],[],[],[],[],,656.014,656.014,0.338888889,0.232222222,0,0,0,,0,139,139,98,1,1,word,CRIMINAL,print,criminal_p.png,,,,,,
,,,,30481,001,2025-10-16_09h38.49.800,HW_LDT_1,2024.2.4,MacIntel,58.82352941,,,,,,,,,,,,,,,,,,,,,,656.016,656.213,656.213,656.713,,,,,,,,,,,,,,1.488,0,,,,,,,,,,,,,,m,,,,,,,,,,,,,,,,141,0,656.713,658.213,z,0,1.488,,[],[],[],[],[],[],[],658.213,660.213,660.213,660.213,[],[],[],[],[],[],[],,660.213,660.214,0.338888889,0.232222222,0,0,0,,0,140,140,111,1,1,word,INDICATE,cursive,indicate_c.png,,,,,,
,,,,30481,001,2025-10-16_09h38.49.800,HW_LDT_1,2024.2.4,MacIntel,58.82352941,,,,,,,,,,,,,,,,,,,,,,660.216,660.413,660.413,660.913,,,,,,,,,,,,,,1.676,1,,,,,,,,,,,,,,z,,,,,,,,,,,,,,,,142,1,660.914,662.596,z,1,1.676,,[],[],[],[],[],[],[],662.597,664.596,664.596,665.546,[],[],[],[],[],[],[],z,665.547,665.547,0.338888889,0.232222222,0,0,0,,0,141,141,75,1,1,TL,speficic,cursive,speficic_c.png,0.942,,,,,
,,,,30481,001,2025-10-16_09h38.49.800,HW_LDT_1,2024.2.4,MacIntel,58.82352941,,,,,,,,,,,,,,,,,,,,,,665.549,665.746,665.746,666.246,,,,,,,,,,,,,,0.72,1,,,,,,,,,,,,,,z,,,,,,,,,,,,,,,,143,0,666.247,666.979,z,1,0.72,,[],[],[],[],[],[],[],666.98,668.98,668.98,668.98,[],[],[],[],[],[],[],,668.98,668.98,0.338888889,0.232222222,0,0,0,,0,142,142,22,1,1,RL,patisic,print,patisic_p.png,,,,,,
,,,,30481,001,2025-10-16_09h38.49.800,HW_LDT_1,2024.2.4,MacIntel,58.82352941,,,,,,,,,,,,,,,,,,,,,,668.982,669.179,669.18,669.679,,,,,,,,,,,,,,0.721,1,,,,,,,,,,,,,,m,,,,,,,,,,,,,,,,144,0,669.68,670.413,m,1,0.721,,[],[],[],[],[],[],[],670.413,672.413,672.413,672.413,[],[],[],[],[],[],[],,672.413,672.414,0.338888889,0.232222222,0,0,0,,0,143,143,82,1,1,word,AMATEUR,print,amateur_p.png,,,,,,
,,,,30481,001,2025-10-16_09h38.49.800,HW_LDT_1,2024.2.4,MacIntel,58.82352941,,,,,,,,,,,,,,,,,,,,,,672.415,672.613,672.613,673.113,,,,,,,,,,,,,,0.555,1,,,,,,,,,,,,,,m,,,,,,,,,,,,,,,,145,0,673.113,673.679,m,1,0.555,,[],[],[],[],[],[],[],673.679,675.679,675.68,675.68,[],[],[],[],[],[],[],,675.68,675.68,0.338888889,0.232222222,0,0,0,,0,144,144,133,1,1,word,PROVIDE,print,provide_p.png,,,,,,
,,,,30481,001,2025-10-16_09h38.49.800,HW_LDT_1,2024.2.4,MacIntel,58.82352941,,,,,,,,,,,,,,,,,,,,,,675.682,675.881,675.881,676.379,,,,,,,,,,,,,,0.637,1,,,,,,,,,,,,,,z,,,,,,,,,,,,,,,,146,0,676.38,677.029,z,1,0.637,,[],[],[],[],[],[],[],677.03,679.03,679.03,679.03,[],[],[],[],[],[],[],,679.03,679.031,0.338888889,0.232222222,0,0,0,,0,145,145,30,1,1,RL,relone,print,relone_p.png,,,,,,
,,,,30481,001,2025-10-16_09h38.49.800,HW_LDT_1,2024.2.4,MacIntel,58.82352941,,,,,,,,,,,,,,,,,,,,,,679.032,679.229,679.23,679.73,,,,,,,,,,,,,,0.695,1,,,,,,,,,,,,,,z,,,,,,,,,,,,,,,,147,1,679.73,680.43,z,1,0.695,,[],[],[],[],[],[],[],680.43,682.43,682.43,682.946,[],[],[],[],[],[],[],z,682.946,682.947,0.338888889,0.232222222,0,0,0,,0,146,146,2,1,1,RL,asiral,print,asiral_p.png,0.511,,,,,
,,,,30481,001,2025-10-16_09h38.49.800,HW_LDT_1,2024.2.4,MacIntel,58.82352941,,,,,,,,,,,,,,,,,,,,,,682.948,683.146,683.146,683.646,,,,,,,,,,,,,,2.007,1,,,,,,,,,,,,,,m,,,,,,,,,,,,,,,,148,1,683.647,685.663,m,1,2.007,,[],[],[],[],[],[],[],685.663,687.663,687.663,689.03,[],[],[],[],[],[],[],z,689.03,689.03,0.338888889,0.232222222,0,0,0,,0,147,147,96,1,1,word,CONSIDER,cursive,consider_c.png,1.355,,,,,
,,,,30481,001,2025-10-16_09h38.49.800,HW_LDT_1,2024.2.4,MacIntel,58.82352941,,,,,,,,,,,,,,,,,,,,,,689.032,689.23,689.23,689.73,,,,,,,,,,,,,,0.821,1,,,,,,,,,,,,,,z,,,,,,,,,,,,,,,,149,0,689.73,690.563,z,1,0.821,,[],[],[],[],[],[],[],690.563,692.563,692.563,692.563,[],[],[],[],[],[],[],,692.563,692.564,0.338888889,0.232222222,0,0,0,,0,148,148,24,1,1,RL,probice,print,probice_p.png,,,,,,
,,,,30481,001,2025-10-16_09h38.49.800,HW_LDT_1,2024.2.4,MacIntel,58.82352941,,,,,,,,,,,,,,,,,,,,,,692.565,692.763,692.763,693.263,,,,,,,,,,,,,,0.87,1,,,,,,,,,,,,,,m,,,,,,,,,,,,,,,,150,0,693.263,694.146,m,1,0.87,,[],[],[],[],[],[],[],694.146,696.146,696.146,696.147,[],[],[],[],[],[],[],,696.147,696.147,0.338888889,0.232222222,0,0,0,,0,149,149,109,1,1,word,GRATEFUL,print,grateful_p.png,,,,,,
,,,,30481,001,2025-10-16_09h38.49.800,HW_LDT_1,2024.2.4,MacIntel,58.82352941,,,,,,,,,,,,,,,,,,,,,,696.149,696.346,696.346,696.846,,,,,,,,,,,,,,1.053,1,,,,,,,,,,,,,,z,,,,,,,,,,,,,,,,151,0,696.847,697.913,z,1,1.053,,[],[],[],[],[],[],[],697.913,699.912,699.912,699.913,[],[],[],[],[],[],[],,699.913,699.913,0.338888889,0.232222222,0,0,0,,0,150,150,29,1,1,RL,refakive,cursive,refakive_c.png,,,,,,
,,,,30481,001,2025-10-16_09h38.49.800,HW_LDT_1,2024.2.4,MacIntel,58.82352941,,,,,,,,,,,,,,,,,,,,,,699.915,700.113,700.113,700.613,,,,,,,,,,,,,,1.257,1,,,,,,,,,,,,,,m,,,,,,,,,,,,,,,,152,0,700.614,701.88,m,1,1.257,,[],[],[],[],[],[],[],701.88,703.88,703.88,703.88,[],[],[],[],[],[],[],,703.881,703.881,0.338888889,0.232222222,0,0,0,,0,151,151,105,1,1,word,EDITOR,cursive,editor_c.png,,,,,,
,,,,30481,001,2025-10-16_09h38.49.800,HW_LDT_1,2024.2.4,MacIntel,58.82352941,,,,,,,,,,,,,,,,,,,,,,703.882,704.08,704.08,704.58,,,,,,,,,,,,,,0.56,0,,,,,,,,,,,,,,m,,,,,,,,,,,,,,,,153,0,704.58,705.146,z,0,0.56,,[],[],[],[],[],[],[],705.146,707.146,707.146,707.146,[],[],[],[],[],[],[],,707.146,707.147,0.338888889,0.232222222,0,0,0,,0,152,152,85,1,1,word,BENEFIT,print,benefit_p.png,,,,,,
,,,,30481,001,2025-10-16_09h38.49.800,HW_LDT_1,2024.2.4,MacIntel,58.82352941,,,,,,,,,,,,,,,,,,,,,,707.149,707.346,707.346,707.846,,,,,,,,,,,,,,0.802,1,,,,,,,,,,,,,,z,,,,,,,,,,,,,,,,154,0,707.847,708.662,z,1,0.802,,[],[],[],[],[],[],[],708.663,710.663,710.663,710.664,[],[],[],[],[],[],[],,710.664,710.664,0.338888889,0.232222222,0,0,0,,0,153,153,58,1,1,TL,incidate,cursive,incidate_c.png,,,,,,
,,,,30481,001,2025-10-16_09h38.49.800,HW_LDT_1,2024.2.4,MacIntel,58.82352941,,,,,,,,,,,,,,,,,,,,,,710.666,710.863,710.863,711.363,,,,,,,,,,,,,,1.062,0,,,,,,,,,,,,,,z,,,,,,,,,,,,,,,,155,0,711.364,712.43,m,0,1.062,,[],[],[],[],[],[],[],712.43,714.43,714.43,714.43,[],[],[],[],[],[],[],,714.43,714.431,0.338888889,0.232222222,0,0,0,,0,154,154,73,1,1,TL,ronamtic,cursive,ronamtic_c.png,,,,,,
,,,,30481,001,2025-10-16_09h38.49.800,HW_LDT_1,2024.2.4,MacIntel,58.82352941,,,,,,,,,,,,,,,,,,,,,,714.432,714.63,714.63,715.13,,,,,,,,,,,,,,0.742,1,,,,,,,,,,,,,,z,,,,,,,,,,,,,,,,156,0,715.13,715.879,z,1,0.742,,[],[],[],[],[],[],[],715.879,717.88,717.88,717.88,[],[],[],[],[],[],[],,717.88,717.88,0.338888889,0.232222222,0,0,0,,0,155,155,42,1,1,TL,befenit,print,befenit_p.png,,,,,,
,,,,30481,001,2025-10-16_09h38.49.800,HW_LDT_1,2024.2.4,MacIntel,58.82352941,,,,,,,,,,,,,,,,,,,,,,717.882,718.08,718.08,718.58,,,,,,,,,,,,,,0.653,1,,,,,,,,,,,,,,z,,,,,,,,,,,,,,,,157,0,718.58,719.246,z,1,0.653,,[],[],[],[],[],[],[],719.247,721.246,721.246,721.247,[],[],[],[],[],[],[],,721.247,721.247,0.338888889,0.232222222,0,0,0,,0,156,156,3,1,1,RL,casena,cursive,casena_c.png,,,,,,
,,,,30481,001,2025-10-16_09h38.49.800,HW_LDT_1,2024.2.4,MacIntel,58.82352941,,,,,,,,,,,,,,,,,,,,,,721.249,721.446,721.447,721.947,,,,,,,,,,,,,,0.975,1,,,,,,,,,,,,,,m,,,,,,,,,,,,,,,,158,0,721.947,722.93,m,1,0.975,,[],[],[],[],[],[],[],722.93,724.93,724.934,724.935,[],[],[],[],[],[],[],,724.935,724.935,0.338888889,0.232222222,0,0,0,,0,157,157,119,1,1,word,MEMORY,cursive,memory_c.png,,,,,,
,,,,30481,001,2025-10-16_09h38.49.800,HW_LDT_1,2024.2.4,MacIntel,58.82352941,,,,,,,,,,,,,,,,,,,,,,724.943,725.13,725.13,725.63,,,,,,,,,,,,,,0.822,0,,,,,,,,,,,,,,z,,,,,,,,,,,,,,,,159,0,725.63,726.463,m,0,0.822,,[],[],[],[],[],[],[],726.463,728.463,728.463,728.464,[],[],[],[],[],[],[],,728.464,728.464,0.338888889,0.232222222,0,0,0,,0,158,158,40,1,1,TL,atameur,print,atameur_p.png,,,,,,
,,,,30481,001,2025-10-16_09h38.49.800,HW_LDT_1,2024.2.4,MacIntel,58.82352941,,,,,,,,,,,,,,,,,,,,,,728.465,728.663,728.663,729.163,,,,,,,,,,,,,,0.789,1,,,,,,,,,,,,,,z,,,,,,,,,,,,,,,,160,0,729.164,729.963,z,1,0.789,,[],[],[],[],[],[],[],729.963,731.963,731.963,731.963,[],[],[],[],[],[],[],,731.963,731.963,0.798888889,0.5,0,0,0,,0,159,159,70,1,1,TL,relugar,print,relugar_p.png,,,,,,
,,,,30481,001,2025-10-16_09h38.49.800,HW_LDT_1,2024.2.4,MacIntel,58.82352941,,,,,,,,,,,,,,,,,,,,,,,,,,,,,,,,,,,,,,,,,,,,,,,,,,,,,,,,,,,,,,,,,,,,,,,,,,,,,,,,,,,,,,,,,,,,,,,,,,,,,,,,,,,,,,,,,,,,,,,731.975,736.964
