counterbalance_lists.group,counterbalance_lists.remaining,get_list.started,get_list.stopped,participant,session,date,expName,psychopyVersion,OS,frameRate,Instructions.started,Instructions.stopped,key_resp.keys,instr_done_touch.x,instr_done_touch.y,instr_done_touch.leftButton,instr_done_touch.midButton,instr_done_touch.rightButton,instr_done_touch.clicked_name,start_instr.thisRepN,start_instr.thisTrialN,start_instr.thisN,start_instr.thisIndex,start_instr.ran,pageN,phase,instruct_text,has_image,instruct_image,key_resp.rt,key_resp.duration,showProgress.started,showProgress.stopped,fix.started,fix.stopped,prac.started,prac.stopped,response.keys,response.corr,response.rt,response.duration,touch_resp.x,touch_resp.y,touch_resp.leftButton,touch_resp.midButton,touch_resp.rightButton,touch_resp.time,touch_resp.clicked_name,rt,corr,feedback.started,feedback.stopped,trials.thisRepN,trials.thisTrialN,trials.thisN,trials.thisIndex,trials.ran,TrialID,StimulusType,Condition,PrimeDuration,Prime,Target,corrAns,Instructions_expt.started,Instructions_expt.stopped,key_resp_3.keys,key_resp_3.rt,key_resp_3.duration,instr_done_touch_3.x,instr_done_touch_3.y,instr_done_touch_3.leftButton,instr_done_touch_3.midButton,instr_done_touch_3.rightButton,instr_experiment.thisRepN,instr_experiment.thisTrialN,instr_experiment.thisN,instr_experiment.thisIndex,instr_experiment.ran,trialID,flag,maintask.started,maintask.stopped,key_resp_2.keys,key_resp_2.corr,key_resp_2.rt,key_resp_2.duration,targ_click.x,targ_click.y,targ_click.leftButton,targ_click.midButton,targ_click.rightButton,targ_click.time,targ_click.clicked_name,ITI.started,ITI.stopped,probe.started,probe.stopped,click_probe.x,click_probe.y,click_probe.leftButton,click_probe.midButton,click_probe.rightButton,click_probe.time,click_probe.clicked_name,key_resp_probe.keys,Break.started,Break.stopped,break_done_touch.x,break_done_touch.y,break_done_touch.leftButton,break_done_touch.midButton,break_done_touch.rightButton,break_done_keyboard.keys,list3_trials.thisRepN,list3_trials.thisTrialN,list3_trials.thisN,list3_trials.thisIndex,list3_trials.ran,list_id,item_type,string,font,stim_file,key_resp_probe.rt,key_resp_probe.duration,break_done_keyboard.rt,break_done_keyboard.duration,End.started,End.stopped
list3,,0.5048,0.5052,30631,001,2025-10-16_15h03.57.317,HW_LDT_1,2024.2.4,Win32,119.047619,,,,,,,,,,,,,,,,,,,,,,,,,,,,,,,,,,,,,,,,,,,,,,,,,,,,,,,,,,,,,,,,,,,,,,,,,,,,,,,,,,,,,,,,,,,,,,,,,,,,,,,,,,,,,,,,,,,,,,,,
,,,,30631,001,2025-10-16_15h03.57.317,HW_LDT_1,2024.2.4,Win32,119.047619,0.5266,2.6718,,-0.098719131,-0.3766011,1,0,0,instr_done_button,0,0,0,0,1,1,instructions,"INSTRUCTIONS
At the start of each trial, look at the plus sign  (+) in the center of the screen.  This tells you that a trial is about to begin and where to look. Second, the plus sign will disappear and a string of letters will appear. Your task is to determine if the string of letters is a word or not. If the item is a word press the M key (on keyboard)  or touch the word button (phone/tablet).  If the item is not a word,  press the  Z key (on keyboard)  or touch the nonword button (on phone/tablet). The items will be presented for a short time. 
Press the space bar or touch  continue.",0,,,,,,,,,,,,,,,,,,,,,,,,,,,,,,,,,,,,,,,,,,,,,,,,,,,,,,,,,,,,,,,,,,,,,,,,,,,,,,,,,,,,,,,,,,,,,,,,,,,,,,
,,,,30631,001,2025-10-16_15h03.57.317,HW_LDT_1,2024.2.4,Win32,119.047619,2.673,9.7166,space,0.134957826,0.055139,0,0,0,,0,1,1,1,1,2,instructions,"If your device has a keyboard, press the 'Z' key for nonwords and the 'M' key for words.





Press the space bar or touch the button below to continue.",0,keyboard-example.gif,7.0274,,,,,,,,,,,,,,,,,,,,,,,,,,,,,,,,,,,,,,,,,,,,,,,,,,,,,,,,,,,,,,,,,,,,,,,,,,,,,,,,,,,,,,,,,,,,,,,,,,,,
,,,,30631,001,2025-10-16_15h03.57.317,HW_LDT_1,2024.2.4,Win32,119.047619,9.719,14.1812,space,0.134957826,0.055139,0,0,0,,0,2,2,2,1,3,instructions,"If you are using a touchscreen only device, use the buttons on the screen. Do not use the mouse.





Press the space bar or touch the button below to continue.",0,touchscreen-example.gif,4.446,,,,,,,,,,,,,,,,,,,,,,,,,,,,,,,,,,,,,,,,,,,,,,,,,,,,,,,,,,,,,,,,,,,,,,,,,,,,,,,,,,,,,,,,,,,,,,,,,,,,
,,,,30631,001,2025-10-16_15h03.57.317,HW_LDT_1,2024.2.4,Win32,119.047619,14.1832,15.9206,space,0.134957826,0.055139,0,0,0,,0,3,3,3,1,4,instructions,"It is very important that you respond as quickly and accurately as possible, as each letter string will only be on the screen for two seconds. If you do not respond within this time, the message 'Too slow!' will be displayed and the experiment will progress to the next letter string. The first 20 trials will be practice trials and you will receive feedback on your answers. 

Press the space bar or touch the button below to start the practice trials.",0,,1.7224,,,,,,,,,,,,,,,,,,,,,,,,,,,,,,,,,,,,,,,,,,,,,,,,,,,,,,,,,,,,,,,,,,,,,,,,,,,,,,,,,,,,,,,,,,,,,,,,,,,,
,,,,30631,001,2025-10-16_15h03.57.317,HW_LDT_1,2024.2.4,Win32,119.047619,,,,,,,,,,,,,,,,,,,,,,15.9554,16.1154,16.1162,16.6209,16.6212,18.3213,m,1,1.679,,[],[],[],[],[],[],[],1.679,1,18.3216,18.8208,0,0,0,4,1,1005,WORD,UN,33,abound,SQUEAK,m,,,,,,,,,,,,,,,,,,,,,,,,,,,,,,,,,,,,,,,,,,,,,,,,,,,,,,,,,,,,,,,,,,
,,,,30631,001,2025-10-16_15h03.57.317,HW_LDT_1,2024.2.4,Win32,119.047619,,,,,,,,,,,,,,,,,,,,,,18.8234,19.0156,19.0157,19.5158,19.518,20.4221,m,1,0.8904,,[],[],[],[],[],[],[],0.8904,1,20.4221,20.9209,0,1,1,6,1,1007,WORD,UN,16,tropic,ZOMBIE,m,,,,,,,,,,,,,,,,,,,,,,,,,,,,,,,,,,,,,,,,,,,,,,,,,,,,,,,,,,,,,,,,,,
,,,,30631,001,2025-10-16_15h03.57.317,HW_LDT_1,2024.2.4,Win32,119.047619,,,,,,,,,,,,,,,,,,,,,,20.923,21.1216,21.1218,21.621,21.622,22.4329,m,1,0.7999,,[],[],[],[],[],[],[],0.7999,1,22.433,22.9293,0,2,2,5,1,1006,WORD,UN,33,frenzy,OBTAIN,m,,,,,,,,,,,,,,,,,,,,,,,,,,,,,,,,,,,,,,,,,,,,,,,,,,,,,,,,,,,,,,,,,,
,,,,30631,001,2025-10-16_15h03.57.317,HW_LDT_1,2024.2.4,Win32,119.047619,,,,,,,,,,,,,,,,,,,,,,22.9307,23.1295,23.1295,23.6294,23.631,24.654,z,1,1.0103,,[],[],[],[],[],[],[],1.0103,1,24.6541,25.1548,0,3,3,15,1,1016,NW,UN,16,mushed,WHAISE,z,,,,,,,,,,,,,,,,,,,,,,,,,,,,,,,,,,,,,,,,,,,,,,,,,,,,,,,,,,,,,,,,,,
,,,,30631,001,2025-10-16_15h03.57.317,HW_LDT_1,2024.2.4,Win32,119.047619,,,,,,,,,,,,,,,,,,,,,,25.156,25.3544,25.3544,25.8555,25.857,26.6594,z,1,0.791,,[],[],[],[],[],[],[],0.791,1,26.6595,27.154,0,4,4,8,1,1009,NW,"ID",33,aslert,ASLERT,z,,,,,,,,,,,,,,,,,,,,,,,,,,,,,,,,,,,,,,,,,,,,,,,,,,,,,,,,,,,,,,,,,,
,,,,30631,001,2025-10-16_15h03.57.317,HW_LDT_1,2024.2.4,Win32,119.047619,,,,,,,,,,,,,,,,,,,,,,27.1551,27.3543,27.3544,27.8543,27.855,29.1795,z,1,1.3145,,[],[],[],[],[],[],[],1.3145,1,29.1797,29.679,0,5,5,11,1,1012,NW,"ID",16,rashet,RASHET,z,,,,,,,,,,,,,,,,,,,,,,,,,,,,,,,,,,,,,,,,,,,,,,,,,,,,,,,,,,,,,,,,,,
,,,,30631,001,2025-10-16_15h03.57.317,HW_LDT_1,2024.2.4,Win32,119.047619,,,,,,,,,,,,,,,,,,,,,,29.6816,29.8794,29.8794,30.379,30.3803,31.0553,m,1,0.663,,[],[],[],[],[],[],[],0.663,1,31.0553,31.5551,0,6,6,0,1,1001,WORD,"ID",33,utopia,UTOPIA,m,,,,,,,,,,,,,,,,,,,,,,,,,,,,,,,,,,,,,,,,,,,,,,,,,,,,,,,,,,,,,,,,,,
,,,,30631,001,2025-10-16_15h03.57.317,HW_LDT_1,2024.2.4,Win32,119.047619,,,,,,,,,,,,,,,,,,,,,,31.5571,31.7549,31.7549,32.2542,32.2558,33.3212,z,1,1.0544,,[],[],[],[],[],[],[],1.0544,1,33.3213,33.816,0,7,7,13,1,1014,NW,UN,33,winfer,ROUPET,z,,,,,,,,,,,,,,,,,,,,,,,,,,,,,,,,,,,,,,,,,,,,,,,,,,,,,,,,,,,,,,,,,,
,,,,30631,001,2025-10-16_15h03.57.317,HW_LDT_1,2024.2.4,Win32,119.047619,,,,,,,,,,,,,,,,,,,,,,33.8177,34.0112,34.0122,34.5154,34.5161,35.2901,m,1,0.7635,,[],[],[],[],[],[],[],0.7635,1,35.2904,35.7882,0,8,8,3,1,1004,WORD,"ID",16,matrix,MATRIX,m,,,,,,,,,,,,,,,,,,,,,,,,,,,,,,,,,,,,,,,,,,,,,,,,,,,,,,,,,,,,,,,,,,
,,,,30631,001,2025-10-16_15h03.57.317,HW_LDT_1,2024.2.4,Win32,119.047619,,,,,,,,,,,,,,,,,,,,,,35.7896,35.9851,35.9851,36.4839,36.4847,37.2709,z,1,0.7777,,[],[],[],[],[],[],[],0.7777,1,37.271,37.7712,0,9,9,14,1,1015,NW,UN,16,miaber,THRALE,z,,,,,,,,,,,,,,,,,,,,,,,,,,,,,,,,,,,,,,,,,,,,,,,,,,,,,,,,,,,,,,,,,,
,,,,30631,001,2025-10-16_15h03.57.317,HW_LDT_1,2024.2.4,Win32,119.047619,,,,,,,,,,,,,,,,,,,,,,37.7726,37.9708,37.9709,38.4712,38.4731,39.5707,z,1,1.0835,,[],[],[],[],[],[],[],1.0835,1,39.5707,40.0714,0,10,10,10,1,1011,NW,"ID",16,inlade,INLADE,z,,,,,,,,,,,,,,,,,,,,,,,,,,,,,,,,,,,,,,,,,,,,,,,,,,,,,,,,,,,,,,,,,,
,,,,30631,001,2025-10-16_15h03.57.317,HW_LDT_1,2024.2.4,Win32,119.047619,,,,,,,,,,,,,,,,,,,,,,40.073,40.2675,40.2675,40.7711,40.7729,41.6436,z,1,0.8595,,[],[],[],[],[],[],[],0.8595,1,41.6438,42.1462,0,11,11,9,1,1010,NW,"ID",33,fariny,FARINY,z,,,,,,,,,,,,,,,,,,,,,,,,,,,,,,,,,,,,,,,,,,,,,,,,,,,,,,,,,,,,,,,,,,
,,,,30631,001,2025-10-16_15h03.57.317,HW_LDT_1,2024.2.4,Win32,119.047619,,,,,,,,,,,,,,,,,,,,,,42.1491,42.341,42.341,42.8428,42.8461,43.4894,m,1,0.6315,,[],[],[],[],[],[],[],0.6315,1,43.4897,43.9873,0,12,12,1,1,1002,WORD,"ID",33,adjust,ADJUST,m,,,,,,,,,,,,,,,,,,,,,,,,,,,,,,,,,,,,,,,,,,,,,,,,,,,,,,,,,,,,,,,,,,
,,,,30631,001,2025-10-16_15h03.57.317,HW_LDT_1,2024.2.4,Win32,119.047619,,,,,,,,,,,,,,,,,,,,,,43.9888,44.1835,44.1836,44.6824,44.6843,45.2202,m,1,0.5213,,[],[],[],[],[],[],[],0.5213,1,45.2204,45.7203,0,13,13,2,1,1003,WORD,"ID",16,almond,ALMOND,m,,,,,,,,,,,,,,,,,,,,,,,,,,,,,,,,,,,,,,,,,,,,,,,,,,,,,,,,,,,,,,,,,,
,,,,30631,001,2025-10-16_15h03.57.317,HW_LDT_1,2024.2.4,Win32,119.047619,,,,,,,,,,,,,,,,,,,,,,45.7218,45.9208,45.9208,46.4173,46.4206,46.937,m,1,0.502,,[],[],[],[],[],[],[],0.502,1,46.9372,47.4286,0,14,14,7,1,1008,WORD,UN,16,hurdle,VOLUME,m,,,,,,,,,,,,,,,,,,,,,,,,,,,,,,,,,,,,,,,,,,,,,,,,,,,,,,,,,,,,,,,,,,
,,,,30631,001,2025-10-16_15h03.57.317,HW_LDT_1,2024.2.4,Win32,119.047619,,,,,,,,,,,,,,,,,,,,,,47.4313,47.6306,47.6307,48.1321,48.1331,49.3459,z,1,1.2021,,[],[],[],[],[],[],[],1.2021,1,49.346,49.8473,0,15,15,12,1,1013,NW,UN,33,adveil,SPRINY,z,,,,,,,,,,,,,,,,,,,,,,,,,,,,,,,,,,,,,,,,,,,,,,,,,,,,,,,,,,,,,,,,,,
,,,,30631,001,2025-10-16_15h03.57.317,HW_LDT_1,2024.2.4,Win32,119.047619,,,,,,,,,,,,,,,1,end_of_practice,"You have completed the practice trials. During the experimental trials, you will not receive feedback. On some trials you will be asked to report whether the item you just saw was in cursive or print. 
Before you begin, please ensure that you are in a comfortable and quiet location and will not be disturbed for about 15 minutes, as we cannot use your data if you do not complete all the trials. 
 When you are ready to start the experimental trials, please press space or touch the button below.",,,,,,,,,,,,,,,,,,,,,,,,,,,,,,,,,,,,,,49.8546,50.6121,space,0.7383,,0.134957826,0.055139,0,0,0,0,0,0,0,1,,,,,,,,,,,,,,,,,,,,,,,,,,,,,,,,,,,,,,,,,,,,,,,,,,,
,,,,30631,001,2025-10-16_15h03.57.317,HW_LDT_1,2024.2.4,Win32,119.047619,,,,,,,,,,,,,,,,,,,,,,50.6468,50.809,50.809,51.3081,,,,,,,,,,,,,,2.2169,1,,,,,,,,,,,,,,z,,,,,,,,,,,,,,,,1,0,51.3108,53.5314,z,1,2.2169,,[],[],[],[],[],[],[],53.5315,55.5295,55.5299,55.5333,[],[],[],[],[],[],[],,55.5335,55.537,0.134957826,0.055139,0,0,0,,0,0,0,54,1,3,TL,manire,cursive,manire_c.png,,,,,,
,,,,30631,001,2025-10-16_15h03.57.317,HW_LDT_1,2024.2.4,Win32,119.047619,,,,,,,,,,,,,,,,,,,,,,55.5401,55.7329,55.7332,56.2355,,,,,,,,,,,,,,1.1648,1,,,,,,,,,,,,,,z,,,,,,,,,,,,,,,,2,0,56.2369,57.4057,z,1,1.1648,,[],[],[],[],[],[],[],57.4058,59.4044,59.4045,59.4048,[],[],[],[],[],[],[],,59.4048,59.4049,0.134957826,0.055139,0,0,0,,0,1,1,11,1,3,RL,ebiwent,cursive,ebiwent_c.png,,,,,,
,,,,30631,001,2025-10-16_15h03.57.317,HW_LDT_1,2024.2.4,Win32,119.047619,,,,,,,,,,,,,,,,,,,,,,59.4062,59.6046,59.6047,60.1068,,,,,,,,,,,,,,1.4376,1,,,,,,,,,,,,,,z,,,,,,,,,,,,,,,,3,0,60.1076,61.5463,z,1,1.4376,,[],[],[],[],[],[],[],61.5465,63.546,63.546,63.5462,[],[],[],[],[],[],[],,63.5462,63.5463,0.134957826,0.055139,0,0,0,,0,2,2,17,1,3,RL,motide,cursive,motide_c.png,,,,,,
,,,,30631,001,2025-10-16_15h03.57.317,HW_LDT_1,2024.2.4,Win32,119.047619,,,,,,,,,,,,,,,,,,,,,,63.548,63.7431,63.7431,64.2381,,,,,,,,,,,,,,1.0546,1,,,,,,,,,,,,,,m,,,,,,,,,,,,,,,,4,1,64.2403,65.2962,m,1,1.0546,,[],[],[],[],[],[],[],65.2963,67.2964,67.2964,71.514,[],[],[],[],[],[],[],z,71.5141,71.5142,0.134957826,0.055139,0,0,0,,0,3,3,86,1,3,word,BESIDE,cursive,beside_c.png,4.2167,,,,,
,,,,30631,001,2025-10-16_15h03.57.317,HW_LDT_1,2024.2.4,Win32,119.047619,,,,,,,,,,,,,,,,,,,,,,71.5156,71.7086,71.7087,72.2125,,,,,,,,,,,,,,1.3594,0,,,,,,,,,,,,,,z,,,,,,,,,,,,,,,,5,0,72.2141,73.5758,m,0,1.3594,,[],[],[],[],[],[],[],73.576,75.5707,75.5709,75.571,[],[],[],[],[],[],[],,75.5711,75.5711,0.134957826,0.055139,0,0,0,,0,4,4,33,1,3,TL,adsivory,print,adsivory_p.png,,,,,,
,,,,30631,001,2025-10-16_15h03.57.317,HW_LDT_1,2024.2.4,Win32,119.047619,,,,,,,,,,,,,,,,,,,,,,75.5724,75.771,75.7711,76.2711,,,,,,,,,,,,,,0.768,1,,,,,,,,,,,,,,m,,,,,,,,,,,,,,,,6,0,76.2718,77.0408,m,1,0.768,,[],[],[],[],[],[],[],77.0408,79.0375,79.0376,79.0378,[],[],[],[],[],[],[],,79.0378,79.0381,0.134957826,0.055139,0,0,0,,0,5,5,138,1,3,word,REFUSAL,print,refusal_p.png,,,,,,
,,,,30631,001,2025-10-16_15h03.57.317,HW_LDT_1,2024.2.4,Win32,119.047619,,,,,,,,,,,,,,,,,,,,,,79.0392,79.2378,79.2378,79.7368,,,,,,,,,,,,,,0.7961,1,,,,,,,,,,,,,,z,,,,,,,,,,,,,,,,7,0,79.7371,80.534,z,1,0.7961,,[],[],[],[],[],[],[],80.5341,82.5316,82.5316,82.5318,[],[],[],[],[],[],[],,82.5319,82.5319,0.134957826,0.055139,0,0,0,,0,6,6,18,1,3,RL,onegator,print,onegator_p.png,,,,,,
,,,,30631,001,2025-10-16_15h03.57.317,HW_LDT_1,2024.2.4,Win32,119.047619,,,,,,,,,,,,,,,,,,,,,,82.5334,82.7264,82.7265,83.2332,,,,,,,,,,,,,,1.7355,0,,,,,,,,,,,,,,m,,,,,,,,,,,,,,,,8,0,83.2337,84.9707,z,0,1.7355,,[],[],[],[],[],[],[],84.9709,86.9706,86.9707,86.9709,[],[],[],[],[],[],[],,86.971,86.971,0.134957826,0.055139,0,0,0,,0,7,7,99,1,3,word,DEBATE,cursive,debate_c.png,,,,,,
,,,,30631,001,2025-10-16_15h03.57.317,HW_LDT_1,2024.2.4,Win32,119.047619,,,,,,,,,,,,,,,,,,,,,,86.9731,87.171,87.171,87.6709,,,,,,,,,,,,,,1.4762,1,,,,,,,,,,,,,,z,,,,,,,,,,,,,,,,9,0,87.6723,89.1499,z,1,1.4762,,[],[],[],[],[],[],[],89.1499,91.1478,91.1478,91.1481,[],[],[],[],[],[],[],,91.1482,91.1482,0.134957826,0.055139,0,0,0,,0,8,8,48,1,3,TL,grafetul,cursive,grafetul_c.png,,,,,,
,,,,30631,001,2025-10-16_15h03.57.317,HW_LDT_1,2024.2.4,Win32,119.047619,,,,,,,,,,,,,,,,,,,,,,91.1489,91.3433,91.3433,91.8499,,,,,,,,,,,,,,0.8938,1,,,,,,,,,,,,,,z,,,,,,,,,,,,,,,,10,0,91.851,92.7462,z,1,0.8938,,[],[],[],[],[],[],[],92.7463,94.7468,94.747,94.7472,[],[],[],[],[],[],[],,94.7472,94.7473,0.134957826,0.055139,0,0,0,,0,9,9,71,1,3,TL,sanile,cursive,sanile_c.png,,,,,,
,,,,30631,001,2025-10-16_15h03.57.317,HW_LDT_1,2024.2.4,Win32,119.047619,,,,,,,,,,,,,,,,,,,,,,94.7483,94.9464,94.9464,95.4465,,,,,,,,,,,,,,0.5754,1,,,,,,,,,,,,,,m,,,,,,,,,,,,,,,,11,0,95.4472,96.0236,m,1,0.5754,,[],[],[],[],[],[],[],96.0236,98.0202,98.0202,98.0205,[],[],[],[],[],[],[],,98.0205,98.0207,0.134957826,0.055139,0,0,0,,0,10,10,134,1,3,word,QUALIFY,print,qualify_p.png,,,,,,
,,,,30631,001,2025-10-16_15h03.57.317,HW_LDT_1,2024.2.4,Win32,119.047619,,,,,,,,,,,,,,,,,,,,,,98.0223,98.2202,98.2202,98.715,,,,,,,,,,,,,,0.8984,0,,,,,,,,,,,,,,m,,,,,,,,,,,,,,,,12,0,98.7161,99.6153,z,0,0.8984,,[],[],[],[],[],[],[],99.6155,101.6124,101.6126,101.6127,[],[],[],[],[],[],[],,101.6128,101.6134,0.134957826,0.055139,0,0,0,,0,11,11,92,1,3,word,CATEGORY,cursive,category_c.png,,,,,,
,,,,30631,001,2025-10-16_15h03.57.317,HW_LDT_1,2024.2.4,Win32,119.047619,,,,,,,,,,,,,,,,,,,,,,101.6144,101.8126,101.8126,102.3125,,,,,,,,,,,,,,0.5174,1,,,,,,,,,,,,,,m,,,,,,,,,,,,,,,,13,0,102.313,102.8316,m,1,0.5174,,[],[],[],[],[],[],[],102.8316,104.8293,104.8293,104.8295,[],[],[],[],[],[],[],,104.8295,104.8301,0.134957826,0.055139,0,0,0,,0,12,12,133,1,3,word,PROVIDE,print,provide_p.png,,,,,,
,,,,30631,001,2025-10-16_15h03.57.317,HW_LDT_1,2024.2.4,Win32,119.047619,,,,,,,,,,,,,,,,,,,,,,104.832,105.0245,105.0245,105.5292,,,,,,,,,,,,,,0.4324,1,,,,,,,,,,,,,,m,,,,,,,,,,,,,,,,14,0,105.5297,105.9637,m,1,0.4324,,[],[],[],[],[],[],[],105.9639,107.9627,107.9628,107.9629,[],[],[],[],[],[],[],,107.9629,107.9634,0.134957826,0.055139,0,0,0,,0,13,13,106,1,3,word,ELABORATE,print,elaborate_p.png,,,,,,
,,,,30631,001,2025-10-16_15h03.57.317,HW_LDT_1,2024.2.4,Win32,119.047619,,,,,,,,,,,,,,,,,,,,,,107.9659,108.159,108.1593,108.6618,,,,,,,,,,,,,,0.4537,1,,,,,,,,,,,,,,m,,,,,,,,,,,,,,,,15,0,108.6628,109.1178,m,1,0.4537,,[],[],[],[],[],[],[],109.118,111.1127,111.1128,111.1131,[],[],[],[],[],[],[],,111.1131,111.1132,0.134957826,0.055139,0,0,0,,0,14,14,141,1,3,word,RELIGION,print,religion_p.png,,,,,,
,,,,30631,001,2025-10-16_15h03.57.317,HW_LDT_1,2024.2.4,Win32,119.047619,,,,,,,,,,,,,,,,,,,,,,111.1142,111.3121,111.3121,111.8117,,,,,,,,,,,,,,0.9834,1,,,,,,,,,,,,,,z,,,,,,,,,,,,,,,,16,0,111.8122,112.7967,z,1,0.9834,,[],[],[],[],[],[],[],112.7968,114.8025,114.8026,114.8033,[],[],[],[],[],[],[],,114.8034,114.8034,0.134957826,0.055139,0,0,0,,0,15,15,40,1,3,TL,condiser,print,condiser_p.png,,,,,,
,,,,30631,001,2025-10-16_15h03.57.317,HW_LDT_1,2024.2.4,Win32,119.047619,,,,,,,,,,,,,,,,,,,,,,114.805,114.9984,114.9985,115.4979,,,,,,,,,,,,,,0.7726,0,,,,,,,,,,,,,,m,,,,,,,,,,,,,,,,17,0,115.4987,116.2733,z,0,0.7726,,[],[],[],[],[],[],[],116.2734,118.2708,118.2709,118.2711,[],[],[],[],[],[],[],,118.2711,118.2711,0.134957826,0.055139,0,0,0,,0,16,16,149,1,3,word,SENATOR,cursive,senator_c.png,,,,,,
,,,,30631,001,2025-10-16_15h03.57.317,HW_LDT_1,2024.2.4,Win32,119.047619,,,,,,,,,,,,,,,,,,,,,,118.2723,118.4703,118.4703,118.9711,,,,,,,,,,,,,,0.7176,1,,,,,,,,,,,,,,z,,,,,,,,,,,,,,,,18,0,118.9715,119.6898,z,1,0.7176,,[],[],[],[],[],[],[],119.6899,121.688,121.688,121.6884,[],[],[],[],[],[],[],,121.6886,121.6888,0.134957826,0.055139,0,0,0,,0,17,17,60,1,3,TL,panert,print,panert_p.png,,,,,,
,,,,30631,001,2025-10-16_15h03.57.317,HW_LDT_1,2024.2.4,Win32,119.047619,,,,,,,,,,,,,,,,,,,,,,121.6913,121.8871,121.8871,122.3903,,,,,,,,,,,,,,0.5369,1,,,,,,,,,,,,,,m,,,,,,,,,,,,,,,,19,0,122.3911,122.9296,m,1,0.5369,,[],[],[],[],[],[],[],122.9297,124.9255,124.9256,124.9258,[],[],[],[],[],[],[],,124.9258,124.9261,0.134957826,0.055139,0,0,0,,0,18,18,130,1,3,word,POLICY,print,policy_p.png,,,,,,
,,,,30631,001,2025-10-16_15h03.57.317,HW_LDT_1,2024.2.4,Win32,119.047619,,,,,,,,,,,,,,,,,,,,,,124.9273,125.1181,125.1181,125.6213,,,,,,,,,,,,,,0.6255,1,,,,,,,,,,,,,,m,,,,,,,,,,,,,,,,20,0,125.6216,126.2482,m,1,0.6255,,[],[],[],[],[],[],[],126.2482,128.2451,128.2451,128.2453,[],[],[],[],[],[],[],,128.2453,128.2455,0.134957826,0.055139,0,0,0,,0,19,19,137,1,3,word,RAPIDLY,print,rapidly_p.png,,,,,,
,,,,30631,001,2025-10-16_15h03.57.317,HW_LDT_1,2024.2.4,Win32,119.047619,,,,,,,,,,,,,,,,,,,,,,128.2465,128.4462,128.4463,128.9451,,,,,,,,,,,,,,0.7252,1,,,,,,,,,,,,,,m,,,,,,,,,,,,,,,,21,0,128.9457,129.6721,m,1,0.7252,,[],[],[],[],[],[],[],129.6722,131.6711,131.6712,131.6713,[],[],[],[],[],[],[],,131.6714,131.6715,0.134957826,0.055139,0,0,0,,0,20,20,89,1,3,word,CAPACITY,cursive,capacity_c.png,,,,,,
,,,,30631,001,2025-10-16_15h03.57.317,HW_LDT_1,2024.2.4,Win32,119.047619,,,,,,,,,,,,,,,,,,,,,,131.6737,131.8665,131.8666,132.3739,,,,,,,,,,,,,,0.837,1,,,,,,,,,,,,,,z,,,,,,,,,,,,,,,,22,1,132.3759,133.2138,z,1,0.837,,[],[],[],[],[],[],[],133.2139,135.2127,135.2127,139.0532,[],[],[],[],[],[],[],m,139.0533,139.0534,0.134957826,0.055139,0,0,0,,0,21,21,30,1,3,RL,strapely,print,strapely_p.png,3.8395,,,,,
,,,,30631,001,2025-10-16_15h03.57.317,HW_LDT_1,2024.2.4,Win32,119.047619,,,,,,,,,,,,,,,,,,,,,,139.0544,139.2548,139.2548,139.7538,,,,,,,,,,,,,,0.6993,1,,,,,,,,,,,,,,m,,,,,,,,,,,,,,,,23,0,139.7542,140.4549,m,1,0.6993,,[],[],[],[],[],[],[],140.455,142.455,142.455,142.4553,[],[],[],[],[],[],[],,142.4553,142.4553,0.134957826,0.055139,0,0,0,,0,22,22,113,1,3,word,LITERAL,print,literal_p.png,,,,,,
,,,,30631,001,2025-10-16_15h03.57.317,HW_LDT_1,2024.2.4,Win32,119.047619,,,,,,,,,,,,,,,,,,,,,,142.456,142.6538,142.6539,143.1545,,,,,,,,,,,,,,0.6086,1,,,,,,,,,,,,,,z,,,,,,,,,,,,,,,,24,0,143.1553,143.7649,z,1,0.6086,,[],[],[],[],[],[],[],143.7649,145.7632,145.7632,145.7634,[],[],[],[],[],[],[],,145.7635,145.7638,0.134957826,0.055139,0,0,0,,0,23,23,2,1,3,RL,betemit,print,betemit_p.png,,,,,,
,,,,30631,001,2025-10-16_15h03.57.317,HW_LDT_1,2024.2.4,Win32,119.047619,,,,,,,,,,,,,,,,,,,,,,145.7648,145.9628,145.963,146.4622,,,,,,,,,,,,,,2.4263,1,,,,,,,,,,,,,,z,,,,,,,,,,,,,,,,25,0,146.4632,148.8907,z,1,2.4263,,[],[],[],[],[],[],[],148.8908,150.8876,150.8878,150.8879,[],[],[],[],[],[],[],,150.888,150.888,0.134957826,0.055139,0,0,0,,0,24,24,52,1,3,TL,locigal,cursive,locigal_c.png,,,,,,
,,,,30631,001,2025-10-16_15h03.57.317,HW_LDT_1,2024.2.4,Win32,119.047619,,,,,,,,,,,,,,,,,,,,,,150.8894,151.0875,151.0876,151.5872,,,,,,,,,,,,,,1.1972,0,,,,,,,,,,,,,,m,,,,,,,,,,,,,,,,26,0,151.5876,152.7865,z,0,1.1972,,[],[],[],[],[],[],[],152.7865,154.7879,154.788,154.7882,[],[],[],[],[],[],[],,154.7882,154.7883,0.134957826,0.055139,0,0,0,,0,25,25,109,1,3,word,GRATEFUL,cursive,grateful_c.png,,,,,,
,,,,30631,001,2025-10-16_15h03.57.317,HW_LDT_1,2024.2.4,Win32,119.047619,,,,,,,,,,,,,,,,,,,,,,154.7895,154.9876,154.9877,155.4868,,,,,,,,,,,,,,0.5297,1,,,,,,,,,,,,,,m,,,,,,,,,,,,,,,,27,0,155.4875,156.0206,m,1,0.5297,,[],[],[],[],[],[],[],156.0206,158.0208,158.0209,158.0216,[],[],[],[],[],[],[],,158.0216,158.0218,0.134957826,0.055139,0,0,0,,0,26,26,102,1,3,word,DENSITY,print,density_p.png,,,,,,
,,,,30631,001,2025-10-16_15h03.57.317,HW_LDT_1,2024.2.4,Win32,119.047619,,,,,,,,,,,,,,,,,,,,,,158.0237,158.2199,158.22,158.7201,,,,,,,,,,,,,,0.7724,1,,,,,,,,,,,,,,z,,,,,,,,,,,,,,,,28,0,158.7212,159.4952,z,1,0.7724,,[],[],[],[],[],[],[],159.4954,161.4919,161.4921,161.4923,[],[],[],[],[],[],[],,161.4924,161.4925,0.134957826,0.055139,0,0,0,,0,27,27,7,1,3,RL,cobeny,print,cobeny_p.png,,,,,,
,,,,30631,001,2025-10-16_15h03.57.317,HW_LDT_1,2024.2.4,Win32,119.047619,,,,,,,,,,,,,,,,,,,,,,161.4941,161.6911,161.6911,162.1869,,,,,,,,,,,,,,0.5588,1,,,,,,,,,,,,,,m,,,,,,,,,,,,,,,,29,0,162.1874,162.7472,m,1,0.5588,,[],[],[],[],[],[],[],162.7472,164.7449,164.7449,164.7453,[],[],[],[],[],[],[],,164.7454,164.7454,0.134957826,0.055139,0,0,0,,0,28,28,124,1,3,word,NUMERICAL,print,numerical_p.png,,,,,,
,,,,30631,001,2025-10-16_15h03.57.317,HW_LDT_1,2024.2.4,Win32,119.047619,,,,,,,,,,,,,,,,,,,,,,164.7466,164.9456,164.9457,165.4455,,,,,,,,,,,,,,0.6736,1,,,,,,,,,,,,,,z,,,,,,,,,,,,,,,,30,0,165.4464,166.1211,z,1,0.6736,,[],[],[],[],[],[],[],166.1211,168.1211,168.1213,168.1215,[],[],[],[],[],[],[],,168.1215,168.1216,0.134957826,0.055139,0,0,0,,0,29,29,69,1,3,TL,redisent,cursive,redisent_c.png,,,,,,
,,,,30631,001,2025-10-16_15h03.57.317,HW_LDT_1,2024.2.4,Win32,119.047619,,,,,,,,,,,,,,,,,,,,,,168.1243,168.3165,168.3165,168.8157,,,,,,,,,,,,,,0.6734,1,,,,,,,,,,,,,,z,,,,,,,,,,,,,,,,31,0,168.8162,169.491,z,1,0.6734,,[],[],[],[],[],[],[],169.4911,171.4871,171.4873,171.4874,[],[],[],[],[],[],[],,171.4874,171.4875,0.134957826,0.055139,0,0,0,,0,30,30,21,1,3,RL,potugar,print,potugar_p.png,,,,,,
,,,,30631,001,2025-10-16_15h03.57.317,HW_LDT_1,2024.2.4,Win32,119.047619,,,,,,,,,,,,,,,,,,,,,,171.4888,171.6904,171.6905,172.1894,,,,,,,,,,,,,,0.4994,1,,,,,,,,,,,,,,m,,,,,,,,,,,,,,,,32,0,172.1897,172.6899,m,1,0.4994,,[],[],[],[],[],[],[],172.69,174.6871,174.6872,174.6873,[],[],[],[],[],[],[],,174.6873,174.6874,0.134957826,0.055139,0,0,0,,0,31,31,139,1,3,word,REGULAR,print,regular_p.png,,,,,,
,,,,30631,001,2025-10-16_15h03.57.317,HW_LDT_1,2024.2.4,Win32,119.047619,,,,,,,,,,,,,,,,,,,,,,174.6883,174.887,174.887,175.3877,,,,,,,,,,,,,,1.7516,1,,,,,,,,,,,,,,m,,,,,,,,,,,,,,,,33,0,175.3883,177.1407,m,1,1.7516,,[],[],[],[],[],[],[],177.1407,179.1379,179.138,179.1381,[],[],[],[],[],[],[],,179.1381,179.1381,0.134957826,0.055139,0,0,0,,0,32,32,153,1,3,word,STOLEN,cursive,stolen_c.png,,,,,,
,,,,30631,001,2025-10-16_15h03.57.317,HW_LDT_1,2024.2.4,Win32,119.047619,,,,,,,,,,,,,,,,,,,,,,179.1399,179.3347,179.3347,179.8357,,,,,,,,,,,,,,0.5216,1,,,,,,,,,,,,,,m,,,,,,,,,,,,,,,,34,0,179.8379,180.3623,m,1,0.5216,,[],[],[],[],[],[],[],180.3624,182.3619,182.362,182.3621,[],[],[],[],[],[],[],,182.3621,182.3623,0.134957826,0.055139,0,0,0,,0,33,33,85,1,3,word,BENEFIT,print,benefit_p.png,,,,,,
,,,,30631,001,2025-10-16_15h03.57.317,HW_LDT_1,2024.2.4,Win32,119.047619,,,,,,,,,,,,,,,,,,,,,,182.3644,182.5624,182.5624,183.0621,,,,,,,,,,,,,,1.1894,1,,,,,,,,,,,,,,z,,,,,,,,,,,,,,,,35,1,183.063,184.2535,z,1,1.1894,,[],[],[],[],[],[],[],184.2535,186.2543,186.2543,187.8734,[],[],[],[],[],[],[],m,187.8734,187.8735,0.134957826,0.055139,0,0,0,,0,34,34,32,1,3,TL,adacemy,print,adacemy_p.png,1.6182,,,,,
,,,,30631,001,2025-10-16_15h03.57.317,HW_LDT_1,2024.2.4,Win32,119.047619,,,,,,,,,,,,,,,,,,,,,,187.8747,188.0708,188.0708,188.57,,,,,,,,,,,,,,0.694,0,,,,,,,,,,,,,,z,,,,,,,,,,,,,,,,36,0,188.5707,189.2657,m,0,0.694,,[],[],[],[],[],[],[],189.2657,191.2636,191.2638,191.2639,[],[],[],[],[],[],[],,191.2639,191.2639,0.134957826,0.055139,0,0,0,,0,35,35,55,1,3,TL,mecidine,print,mecidine_p.png,,,,,,
,,,,30631,001,2025-10-16_15h03.57.317,HW_LDT_1,2024.2.4,Win32,119.047619,,,,,,,,,,,,,,,,,,,,,,191.2649,191.4625,191.4625,191.9619,,,,,,,,,,,,,,0.5493,1,,,,,,,,,,,,,,m,,,,,,,,,,,,,,,,37,1,191.9628,192.513,m,1,0.5493,,[],[],[],[],[],[],[],192.5131,194.512,194.512,196.1054,[],[],[],[],[],[],[],m,196.1055,196.1056,0.134957826,0.055139,0,0,0,,0,36,36,94,1,3,word,CLINICAL,print,clinical_p.png,1.5924,,,,,
,,,,30631,001,2025-10-16_15h03.57.317,HW_LDT_1,2024.2.4,Win32,119.047619,,,,,,,,,,,,,,,,,,,,,,196.1067,196.3017,196.3018,196.8038,,,,,,,,,,,,,,0.7692,1,,,,,,,,,,,,,,m,,,,,,,,,,,,,,,,38,1,196.8047,197.5752,m,1,0.7692,,[],[],[],[],[],[],[],197.5753,199.5695,199.5695,200.6009,[],[],[],[],[],[],[],m,200.601,200.601,0.134957826,0.055139,0,0,0,,0,37,37,116,1,3,word,MARGINAL,print,marginal_p.png,1.0308,,,,,
,,,,30631,001,2025-10-16_15h03.57.317,HW_LDT_1,2024.2.4,Win32,119.047619,,,,,,,,,,,,,,,,,,,,,,200.6018,200.8028,200.8028,201.3026,,,,,,,,,,,,,,1.6891,1,,,,,,,,,,,,,,z,,,,,,,,,,,,,,,,39,0,201.3031,202.9929,z,1,1.6891,,[],[],[],[],[],[],[],202.993,204.9881,204.9882,204.9885,[],[],[],[],[],[],[],,204.9889,204.989,0.134957826,0.055139,0,0,0,,0,38,38,29,1,3,RL,selamor,cursive,selamor_c.png,,,,,,
,,,,30631,001,2025-10-16_15h03.57.317,HW_LDT_1,2024.2.4,Win32,119.047619,,,,,,,,,,,,,,,,,,,,,,204.9904,205.1864,205.1864,205.6867,,,,,,,,,,,,,,1.1784,1,,,,,,,,,,,,,,m,,,,,,,,,,,,,,,,40,0,205.6872,206.8668,m,1,1.1784,,[],[],[],[],[],[],[],206.8669,208.8615,208.8616,208.8617,[],[],[],[],[],[],[],,208.8617,208.8619,0.134957826,0.055139,0,0,0,,0,39,39,158,1,3,word,VELOCITY,cursive,velocity_c.png,,,,,,
,,,,30631,001,2025-10-16_15h03.57.317,HW_LDT_1,2024.2.4,Win32,119.047619,,,,,,,,,,,,,,,,,,,,,,208.8643,209.0595,209.0595,209.562,,,,,,,,,,,,,,1.4566,1,,,,,,,,,,,,,,z,,,,,,,,,,,,,,,,41,0,209.5627,211.0202,z,1,1.4566,,[],[],[],[],[],[],[],211.0202,213.0198,213.0198,213.0199,[],[],[],[],[],[],[],,213.0199,213.02,0.134957826,0.055139,0,0,0,,0,40,40,1,1,3,RL,bewoted,cursive,bewoted_c.png,,,,,,
,,,,30631,001,2025-10-16_15h03.57.317,HW_LDT_1,2024.2.4,Win32,119.047619,,,,,,,,,,,,,,,,,,,,,,213.0208,213.2232,213.2232,213.7206,,,,,,,,,,,,,,1.0449,1,,,,,,,,,,,,,,z,,,,,,,,,,,,,,,,42,0,213.7216,214.771,z,1,1.0449,,[],[],[],[],[],[],[],214.771,216.7695,216.7696,216.7697,[],[],[],[],[],[],[],,216.7697,216.7698,0.134957826,0.055139,0,0,0,,0,41,41,63,1,3,TL,racidal,cursive,racidal_c.png,,,,,,
,,,,30631,001,2025-10-16_15h03.57.317,HW_LDT_1,2024.2.4,Win32,119.047619,,,,,,,,,,,,,,,,,,,,,,216.7709,216.9696,216.9696,217.4694,,,,,,,,,,,,,,0.9093,1,,,,,,,,,,,,,,z,,,,,,,,,,,,,,,,43,1,217.4699,218.3802,z,1,0.9093,,[],[],[],[],[],[],[],218.3803,220.3784,220.3786,221.7497,[],[],[],[],[],[],[],z,221.7497,221.7497,0.134957826,0.055139,0,0,0,,0,42,42,66,1,3,TL,retalive,cursive,retalive_c.png,1.3704,,,,,
,,,,30631,001,2025-10-16_15h03.57.317,HW_LDT_1,2024.2.4,Win32,119.047619,,,,,,,,,,,,,,,,,,,,,,221.7508,221.9457,221.9457,222.4448,,,,,,,,,,,,,,0.5992,1,,,,,,,,,,,,,,m,,,,,,,,,,,,,,,,44,0,222.4459,223.046,m,1,0.5992,,[],[],[],[],[],[],[],223.0461,225.0463,225.0463,225.0465,[],[],[],[],[],[],[],,225.0465,225.0465,0.134957826,0.055139,0,0,0,,0,43,43,135,1,3,word,QUALITY,print,quality_p.png,,,,,,
,,,,30631,001,2025-10-16_15h03.57.317,HW_LDT_1,2024.2.4,Win32,119.047619,,,,,,,,,,,,,,,,,,,,,,225.0478,225.2445,225.2445,225.745,,,,,,,,,,,,,,0.7716,1,,,,,,,,,,,,,,z,,,,,,,,,,,,,,,,45,0,225.7453,226.5193,z,1,0.7716,,[],[],[],[],[],[],[],226.5194,228.5154,228.5154,228.5156,[],[],[],[],[],[],[],,228.5156,228.5156,0.134957826,0.055139,0,0,0,,0,44,44,8,1,3,RL,cocewage,print,cocewage_p.png,,,,,,
,,,,30631,001,2025-10-16_15h03.57.317,HW_LDT_1,2024.2.4,Win32,119.047619,,,,,,,,,,,,,,,,,,,,,,228.5173,228.7157,228.7157,229.2101,,,,,,,,,,,,,,0.681,1,,,,,,,,,,,,,,m,,,,,,,,,,,,,,,,46,0,229.2114,229.8936,m,1,0.681,,[],[],[],[],[],[],[],229.8937,231.8948,231.8948,231.8952,[],[],[],[],[],[],[],,231.8953,231.8953,0.134957826,0.055139,0,0,0,,0,45,45,100,1,3,word,DECADE,cursive,decade_c.png,,,,,,
,,,,30631,001,2025-10-16_15h03.57.317,HW_LDT_1,2024.2.4,Win32,119.047619,,,,,,,,,,,,,,,,,,,,,,231.8968,232.0911,232.0913,232.5948,,,,,,,,,,,,,,0.8326,1,,,,,,,,,,,,,,z,,,,,,,,,,,,,,,,47,1,232.5955,233.4292,z,1,0.8326,,[],[],[],[],[],[],[],233.4292,235.4288,235.4289,236.8533,[],[],[],[],[],[],[],z,236.8534,236.8534,0.134957826,0.055139,0,0,0,,0,46,46,50,1,3,TL,lirebal,print,lirebal_p.png,1.4225,,,,,
,,,,30631,001,2025-10-16_15h03.57.317,HW_LDT_1,2024.2.4,Win32,119.047619,,,,,,,,,,,,,,,,,,,,,,236.8547,237.0536,237.0537,237.5542,,,,,,,,,,,,,,0.8309,1,,,,,,,,,,,,,,z,,,,,,,,,,,,,,,,48,0,237.5547,238.3865,z,1,0.8309,,[],[],[],[],[],[],[],238.3865,240.386,240.386,240.3861,[],[],[],[],[],[],[],,240.3862,240.3863,0.134957826,0.055139,0,0,0,,0,47,47,65,1,3,TL,resufal,print,resufal_p.png,,,,,,
,,,,30631,001,2025-10-16_15h03.57.317,HW_LDT_1,2024.2.4,Win32,119.047619,,,,,,,,,,,,,,,,,,,,,,240.3881,240.5838,240.5838,241.0816,,,,,,,,,,,,,,0.621,0,,,,,,,,,,,,,,m,,,,,,,,,,,,,,,,49,0,241.0836,241.7058,z,0,0.621,,[],[],[],[],[],[],[],241.7058,243.6946,243.6947,243.6957,[],[],[],[],[],[],[],,243.6958,243.6958,0.134957826,0.055139,0,0,0,,0,48,48,123,1,3,word,MODERATE,cursive,moderate_c.png,,,,,,
,,,,30631,001,2025-10-16_15h03.57.317,HW_LDT_1,2024.2.4,Win32,119.047619,,,,,,,,,,,,,,,,,,,,,,243.6974,243.8916,243.8917,244.3949,,,,,,,,,,,,,,1.5802,1,,,,,,,,,,,,,,m,,,,,,,,,,,,,,,,50,0,244.3957,245.9778,m,1,1.5802,,[],[],[],[],[],[],[],245.9778,247.9821,247.9822,247.9823,[],[],[],[],[],[],[],,247.9823,247.9823,0.134957826,0.055139,0,0,0,,0,49,49,159,1,3,word,VETERAN,cursive,veteran_c.png,,,,,,
,,,,30631,001,2025-10-16_15h03.57.317,HW_LDT_1,2024.2.4,Win32,119.047619,,,,,,,,,,,,,,,,,,,,,,247.9835,248.1827,248.1827,248.6817,,,,,,,,,,,,,,1.458,1,,,,,,,,,,,,,,z,,,,,,,,,,,,,,,,51,0,248.6825,250.1418,z,1,1.458,,[],[],[],[],[],[],[],250.1419,252.1382,252.1382,252.1384,[],[],[],[],[],[],[],,252.1384,252.1387,0.134957826,0.055139,0,0,0,,0,50,50,13,1,3,RL,helicage,cursive,helicage_c.png,,,,,,
,,,,30631,001,2025-10-16_15h03.57.317,HW_LDT_1,2024.2.4,Win32,119.047619,,,,,,,,,,,,,,,,,,,,,,252.14,252.334,252.334,252.8363,,,,,,,,,,,,,,0.813,1,,,,,,,,,,,,,,m,,,,,,,,,,,,,,,,52,0,252.8379,253.6562,m,1,0.813,,[],[],[],[],[],[],[],253.6564,255.6561,255.6561,255.6564,[],[],[],[],[],[],[],,255.6565,255.6565,0.134957826,0.055139,0,0,0,,0,51,51,143,1,3,word,REMOVAL,cursive,removal_c.png,,,,,,
,,,,30631,001,2025-10-16_15h03.57.317,HW_LDT_1,2024.2.4,Win32,119.047619,,,,,,,,,,,,,,,,,,,,,,255.6577,255.8517,255.8517,256.354,,,,,,,,,,,,,,0.7047,1,,,,,,,,,,,,,,z,,,,,,,,,,,,,,,,53,0,256.3548,257.0611,z,1,0.7047,,[],[],[],[],[],[],[],257.0612,259.0561,259.0561,259.0565,[],[],[],[],[],[],[],,259.0566,259.0568,0.134957826,0.055139,0,0,0,,0,52,52,26,1,3,RL,repifion,print,repifion_p.png,,,,,,
,,,,30631,001,2025-10-16_15h03.57.317,HW_LDT_1,2024.2.4,Win32,119.047619,,,,,,,,,,,,,,,,,,,,,,259.0586,259.2566,259.2566,259.7587,,,,,,,,,,,,,,0.6077,1,,,,,,,,,,,,,,z,,,,,,,,,,,,,,,,54,0,259.7593,260.3686,z,1,0.6077,,[],[],[],[],[],[],[],260.3687,262.366,262.3661,262.3663,[],[],[],[],[],[],[],,262.3664,262.3667,0.134957826,0.055139,0,0,0,,0,53,53,15,1,3,RL,mifikary,cursive,mifikary_c.png,,,,,,
,,,,30631,001,2025-10-16_15h03.57.317,HW_LDT_1,2024.2.4,Win32,119.047619,,,,,,,,,,,,,,,,,,,,,,262.3693,262.5687,262.5688,263.0652,,,,,,,,,,,,,,0.9176,1,,,,,,,,,,,,,,z,,,,,,,,,,,,,,,,55,0,263.0661,263.9849,z,1,0.9176,,[],[],[],[],[],[],[],263.985,265.9825,265.9825,265.9826,[],[],[],[],[],[],[],,265.9827,265.9831,0.134957826,0.055139,0,0,0,,0,54,54,47,1,3,TL,elarobate,print,elarobate_p.png,,,,,,
,,,,30631,001,2025-10-16_15h03.57.317,HW_LDT_1,2024.2.4,Win32,119.047619,,,,,,,,,,,,,,,,,,,,,,265.985,266.177,266.1771,266.677,,,,,,,,,,,,,,0.8149,1,,,,,,,,,,,,,,m,,,,,,,,,,,,,,,,56,0,266.6779,267.495,m,1,0.8149,,[],[],[],[],[],[],[],267.4951,269.4959,269.496,269.4961,[],[],[],[],[],[],[],,269.4961,269.4962,0.134957826,0.055139,0,0,0,,0,55,55,144,1,3,word,RESIDENT,cursive,resident_c.png,,,,,,
,,,,30631,001,2025-10-16_15h03.57.317,HW_LDT_1,2024.2.4,Win32,119.047619,,,,,,,,,,,,,,,,,,,,,,269.4972,269.6945,269.6946,270.2016,,,,,,,,,,,,,,2.5407,0,,,,,,,,,,,,,,m,,,,,,,,,,,,,,,,57,0,270.2033,272.7454,z,0,2.5407,,[],[],[],[],[],[],[],272.7454,274.7452,274.7452,274.7453,[],[],[],[],[],[],[],,274.7453,274.7453,0.134957826,0.055139,0,0,0,,0,56,56,107,1,3,word,EVIDENT,cursive,evident_c.png,,,,,,
,,,,30631,001,2025-10-16_15h03.57.317,HW_LDT_1,2024.2.4,Win32,119.047619,,,,,,,,,,,,,,,,,,,,,,274.7465,274.9455,274.9455,275.4477,,,,,,,,,,,,,,0.9171,0,,,,,,,,,,,,,,m,,,,,,,,,,,,,,,,58,0,275.4484,276.3668,z,0,0.9171,,[],[],[],[],[],[],[],276.3669,278.3618,278.3619,278.3623,[],[],[],[],[],[],[],,278.3623,278.3626,0.134957826,0.055139,0,0,0,,0,57,57,90,1,3,word,CAPITAL,cursive,capital_c.png,,,,,,
,,,,30631,001,2025-10-16_15h03.57.317,HW_LDT_1,2024.2.4,Win32,119.047619,,,,,,,,,,,,,,,,,,,,,,278.3648,278.5595,278.5595,279.0653,,,,,,,,,,,,,,0.5843,1,,,,,,,,,,,,,,z,,,,,,,,,,,,,,,,59,0,279.0665,279.6527,z,1,0.5843,,[],[],[],[],[],[],[],279.6533,281.6497,281.6498,281.6502,[],[],[],[],[],[],[],,281.6502,281.6505,0.134957826,0.055139,0,0,0,,0,58,58,56,1,3,TL,meromy,print,meromy_p.png,,,,,,
,,,,30631,001,2025-10-16_15h03.57.317,HW_LDT_1,2024.2.4,Win32,119.047619,,,,,,,,,,,,,,,,,,,,,,281.6531,281.8511,281.8511,282.345,,,,,,,,,,,,,,0.7746,1,,,,,,,,,,,,,,m,,,,,,,,,,,,,,,,60,0,282.346,283.1217,m,1,0.7746,,[],[],[],[],[],[],[],283.1219,285.1191,285.1192,285.1193,[],[],[],[],[],[],[],,285.1194,285.1195,0.134957826,0.055139,0,0,0,,0,59,59,111,1,3,word,INDICATE,print,indicate_p.png,,,,,,
,,,,30631,001,2025-10-16_15h03.57.317,HW_LDT_1,2024.2.4,Win32,119.047619,,,,,,,,,,,,,,,,,,,,,,285.1209,285.3233,285.3234,285.8232,,,,,,,,,,,,,,0.7657,1,,,,,,,,,,,,,,z,,,,,,,,,,,,,,,,61,1,285.8236,286.5905,z,1,0.7657,,[],[],[],[],[],[],[],286.5905,288.5869,288.587,290.0059,[],[],[],[],[],[],[],m,290.006,290.0061,0.134957826,0.055139,0,0,0,,0,60,60,49,1,3,TL,incidate,print,incidate_p.png,1.4177,,,,,
,,,,30631,001,2025-10-16_15h03.57.317,HW_LDT_1,2024.2.4,Win32,119.047619,,,,,,,,,,,,,,,,,,,,,,290.0073,290.2057,290.2057,290.7054,,,,,,,,,,,,,,1.7692,1,,,,,,,,,,,,,,m,,,,,,,,,,,,,,,,62,1,290.7066,292.478,m,1,1.7692,,[],[],[],[],[],[],[],292.4781,294.4786,294.4787,296.0125,[],[],[],[],[],[],[],m,296.0125,296.0127,0.134957826,0.055139,0,0,0,,0,61,61,155,1,3,word,STRATEGY,print,strategy_p.png,1.533,,,,,
,,,,30631,001,2025-10-16_15h03.57.317,HW_LDT_1,2024.2.4,Win32,119.047619,,,,,,,,,,,,,,,,,,,,,,296.0138,296.2122,296.2124,296.709,,,,,,,,,,,,,,2.2432,1,,,,,,,,,,,,,,m,,,,,,,,,,,,,,,,63,1,296.7103,298.9548,m,1,2.2432,,[],[],[],[],[],[],[],298.955,300.9488,300.9488,302.2595,[],[],[],[],[],[],[],m,302.2595,302.2598,0.134957826,0.055139,0,0,0,,0,62,62,88,1,3,word,CAMERA,cursive,camera_c.png,1.3098,,,,,
,,,,30631,001,2025-10-16_15h03.57.317,HW_LDT_1,2024.2.4,Win32,119.047619,,,,,,,,,,,,,,,,,,,,,,302.2621,302.4621,302.4622,302.9546,,,,,,,,,,,,,,0.7197,1,,,,,,,,,,,,,,m,,,,,,,,,,,,,,,,64,1,302.9554,303.6778,m,1,0.7197,,[],[],[],[],[],[],[],303.6779,305.6787,305.6787,308.5268,[],[],[],[],[],[],[],m,308.527,308.5272,0.134957826,0.055139,0,0,0,,0,63,63,125,1,3,word,OPERATOR,print,operator_p.png,2.8474,,,,,
,,,,30631,001,2025-10-16_15h03.57.317,HW_LDT_1,2024.2.4,Win32,119.047619,,,,,,,,,,,,,,,,,,,,,,308.5288,308.7237,308.724,309.2275,,,,,,,,,,,,,,0.7383,0,,,,,,,,,,,,,,z,,,,,,,,,,,,,,,,65,1,309.2282,309.9701,m,0,0.7383,,[],[],[],[],[],[],[],309.9702,311.9713,311.9713,313.9454,[],[],[],[],[],[],[],m,313.9456,313.9457,0.134957826,0.055139,0,0,0,,0,64,64,44,1,3,TL,decilate,print,decilate_p.png,1.9728,,,,,
,,,,30631,001,2025-10-16_15h03.57.317,HW_LDT_1,2024.2.4,Win32,119.047619,,,,,,,,,,,,,,,,,,,,,,313.9473,314.1449,314.1449,314.6459,,,,,,,,,,,,,,0.5929,1,,,,,,,,,,,,,,m,,,,,,,,,,,,,,,,66,0,314.6462,315.2398,m,1,0.5929,,[],[],[],[],[],[],[],315.2398,317.2373,317.2373,317.2375,[],[],[],[],[],[],[],,317.2376,317.2378,0.134957826,0.055139,0,0,0,,0,65,65,97,1,3,word,COVERAGE,print,coverage_p.png,,,,,,
,,,,30631,001,2025-10-16_15h03.57.317,HW_LDT_1,2024.2.4,Win32,119.047619,,,,,,,,,,,,,,,,,,,,,,317.2403,317.4342,317.4342,317.9348,,,,,,,,,,,,,,1.0657,1,,,,,,,,,,,,,,m,,,,,,,,,,,,,,,,67,0,317.9358,319.0033,m,1,1.0657,,[],[],[],[],[],[],[],319.0034,321.0025,321.0025,321.0026,[],[],[],[],[],[],[],,321.0027,321.0028,0.134957826,0.055139,0,0,0,,0,66,66,93,1,3,word,CEREMONY,cursive,ceremony_c.png,,,,,,
,,,,30631,001,2025-10-16_15h03.57.317,HW_LDT_1,2024.2.4,Win32,119.047619,,,,,,,,,,,,,,,,,,,,,,321.0039,321.2027,321.2028,321.7025,,,,,,,,,,,,,,0.551,1,,,,,,,,,,,,,,m,,,,,,,,,,,,,,,,68,0,321.7028,322.255,m,1,0.551,,[],[],[],[],[],[],[],322.2551,324.2586,324.2586,324.259,[],[],[],[],[],[],[],,324.259,324.2592,0.134957826,0.055139,0,0,0,,0,67,67,127,1,3,word,ORIGINAL,cursive,original_c.png,,,,,,
,,,,30631,001,2025-10-16_15h03.57.317,HW_LDT_1,2024.2.4,Win32,119.047619,,,,,,,,,,,,,,,,,,,,,,324.2608,324.4598,324.4598,324.9583,,,,,,,,,,,,,,0.5912,1,,,,,,,,,,,,,,m,,,,,,,,,,,,,,,,69,0,324.9592,325.5524,m,1,0.5912,,[],[],[],[],[],[],[],325.5524,327.5536,327.5537,327.554,[],[],[],[],[],[],[],,327.554,327.5541,0.134957826,0.055139,0,0,0,,0,68,68,81,1,3,word,ADVISORY,print,advisory_p.png,,,,,,
,,,,30631,001,2025-10-16_15h03.57.317,HW_LDT_1,2024.2.4,Win32,119.047619,,,,,,,,,,,,,,,,,,,,,,327.5556,327.7555,327.7555,328.2448,,,,,,,,,,,,,,0.6688,1,,,,,,,,,,,,,,z,,,,,,,,,,,,,,,,70,0,328.2463,328.9161,z,1,0.6688,,[],[],[],[],[],[],[],328.9161,330.9177,330.9178,330.9183,[],[],[],[],[],[],[],,330.9183,330.9191,0.134957826,0.055139,0,0,0,,0,69,69,67,1,3,TL,retome,print,retome_p.png,,,,,,
,,,,30631,001,2025-10-16_15h03.57.317,HW_LDT_1,2024.2.4,Win32,119.047619,,,,,,,,,,,,,,,,,,,,,,330.9211,331.1172,331.1174,331.6203,,,,,,,,,,,,,,0.7569,1,,,,,,,,,,,,,,m,,,,,,,,,,,,,,,,71,0,331.6208,332.3792,m,1,0.7569,,[],[],[],[],[],[],[],332.3793,334.374,334.3741,334.3743,[],[],[],[],[],[],[],,334.3745,334.3745,0.134957826,0.055139,0,0,0,,0,70,70,147,1,3,word,ROMANTIC,cursive,romantic_c.png,,,,,,
,,,,30631,001,2025-10-16_15h03.57.317,HW_LDT_1,2024.2.4,Win32,119.047619,,,,,,,,,,,,,,,,,,,,,,334.3762,334.5765,334.5765,335.0765,,,,,,,,,,,,,,1.4316,1,,,,,,,,,,,,,,z,,,,,,,,,,,,,,,,72,0,335.0784,336.5109,z,1,1.4316,,[],[],[],[],[],[],[],336.511,338.5094,338.5095,338.5099,[],[],[],[],[],[],[],,338.5099,338.51,0.134957826,0.055139,0,0,0,,0,71,71,38,1,3,TL,carnidal,print,carnidal_p.png,,,,,,
,,,,30631,001,2025-10-16_15h03.57.317,HW_LDT_1,2024.2.4,Win32,119.047619,,,,,,,,,,,,,,,,,,,,,,338.512,338.711,338.7111,339.2107,,,,,,,,,,,,,,0.5712,1,,,,,,,,,,,,,,m,,,,,,,,,,,,,,,,73,0,339.2115,339.784,m,1,0.5712,,[],[],[],[],[],[],[],339.7841,341.7861,341.7861,341.7864,[],[],[],[],[],[],[],,341.7865,341.7868,0.134957826,0.055139,0,0,0,,0,72,72,132,1,3,word,PROPOSAL,print,proposal_p.png,,,,,,
,,,,30631,001,2025-10-16_15h03.57.317,HW_LDT_1,2024.2.4,Win32,119.047619,,,,,,,,,,,,,,,,,,,,,,341.7883,341.9919,341.9919,342.4827,,,,,,,,,,,,,,0.4836,1,,,,,,,,,,,,,,m,,,,,,,,,,,,,,,,74,0,342.4839,342.9694,m,1,0.4836,,[],[],[],[],[],[],[],342.9695,344.9648,344.9649,344.965,[],[],[],[],[],[],[],,344.9651,344.9651,0.134957826,0.055139,0,0,0,,0,73,73,118,1,3,word,MEDICINE,print,medicine_p.png,,,,,,
,,,,30631,001,2025-10-16_15h03.57.317,HW_LDT_1,2024.2.4,Win32,119.047619,,,,,,,,,,,,,,,,,,,,,,344.966,345.1682,345.1688,345.6652,,,,,,,,,,,,,,0.9015,0,,,,,,,,,,,,,,m,,,,,,,,,,,,,,,,75,0,345.666,346.5693,z,0,0.9015,,[],[],[],[],[],[],[],346.5693,348.5705,348.5706,348.5707,[],[],[],[],[],[],[],,348.5707,348.5708,0.134957826,0.055139,0,0,0,,0,74,74,120,1,3,word,MILITARY,cursive,military_c.png,,,,,,
,,,,30631,001,2025-10-16_15h03.57.317,HW_LDT_1,2024.2.4,Win32,119.047619,,,,,,,,,,,,,,,,,,,,,,348.572,348.7693,348.7693,349.2718,,,,,,,,,,,,,,1.2702,0,,,,,,,,,,,,,,z,,,,,,,,,,,,,,,,76,0,349.2723,350.5445,m,0,1.2702,,[],[],[],[],[],[],[],350.5446,352.5448,352.5448,352.545,[],[],[],[],[],[],[],,352.545,352.5451,0.134957826,0.055139,0,0,0,,0,75,75,75,1,3,TL,sloten,cursive,sloten_c.png,,,,,,
,,,,30631,001,2025-10-16_15h03.57.317,HW_LDT_1,2024.2.4,Win32,119.047619,,,,,,,,,,,,,,,,,,,,,,352.5463,352.7465,352.7465,353.245,,,,,,,,,,,,,,0.7647,1,,,,,,,,,,,,,,z,,,,,,,,,,,,,,,,77,0,353.2456,354.0112,z,1,0.7647,,[],[],[],[],[],[],[],354.0113,356.0068,356.0069,356.0076,[],[],[],[],[],[],[],,356.0078,356.0079,0.134957826,0.055139,0,0,0,,0,76,76,46,1,3,TL,distupe,print,distupe_p.png,,,,,,
,,,,30631,001,2025-10-16_15h03.57.317,HW_LDT_1,2024.2.4,Win32,119.047619,,,,,,,,,,,,,,,,,,,,,,356.0111,356.2097,356.2099,356.706,,,,,,,,,,,,,,1.1514,1,,,,,,,,,,,,,,z,,,,,,,,,,,,,,,,78,1,356.7072,357.8608,z,1,1.1514,,[],[],[],[],[],[],[],357.8609,359.8544,359.8544,361.3616,[],[],[],[],[],[],[],z,361.3617,361.3617,0.134957826,0.055139,0,0,0,,0,77,77,27,1,3,RL,recile,print,recile_p.png,1.5049,,,,,
,,,,30631,001,2025-10-16_15h03.57.317,HW_LDT_1,2024.2.4,Win32,119.047619,,,,,,,,,,,,,,,,,,,,,,361.3631,361.5649,361.5649,362.0607,,,,,,,,,,,,,,0.7874,1,,,,,,,,,,,,,,z,,,,,,,,,,,,,,,,79,1,362.0615,362.8504,z,1,0.7874,,[],[],[],[],[],[],[],362.8505,364.8489,364.8489,366.3795,[],[],[],[],[],[],[],m,366.3795,366.3795,0.134957826,0.055139,0,0,0,,0,78,78,22,1,3,RL,procogal,print,procogal_p.png,1.5297,,,,,
,,,,30631,001,2025-10-16_15h03.57.317,HW_LDT_1,2024.2.4,Win32,119.047619,,,,,,,,,,,,,,,,,,,,,,366.3803,366.5788,366.5788,367.0779,,,,,,,,,,,,,,0.908,1,,,,,,,,,,,,,,z,,,,,,,,,,,,,,,,80,1,367.0785,367.9878,z,1,0.908,,[],[],[],[],[],[],[],367.9878,369.9929,369.993,371.0855,[],[],[],[],[],[],[],m,371.0855,373.5629,0.134957826,0.055139,0,0,0,space,0,79,79,53,1,3,TL,marnigal,print,marnigal_p.png,1.0915,,2.4502,,,
,,,,30631,001,2025-10-16_15h03.57.317,HW_LDT_1,2024.2.4,Win32,119.047619,,,,,,,,,,,,,,,,,,,,,,373.5647,373.7593,373.7593,374.2608,,,,,,,,,,,,,,0.6553,1,,,,,,,,,,,,,,m,,,,,,,,,,,,,,,,81,0,374.2612,374.919,m,1,0.6553,,[],[],[],[],[],[],[],374.919,376.9188,376.9189,376.9189,[],[],[],[],[],[],[],,376.9191,376.9192,0.134957826,0.055139,0,0,0,,0,80,80,146,1,3,word,RETIRE,print,retire_p.png,,,,,,
,,,,30631,001,2025-10-16_15h03.57.317,HW_LDT_1,2024.2.4,Win32,119.047619,,,,,,,,,,,,,,,,,,,,,,376.9204,377.1191,377.1191,377.619,,,,,,,,,,,,,,1.0492,0,,,,,,,,,,,,,,m,,,,,,,,,,,,,,,,82,0,377.6198,378.6701,z,0,1.0492,,[],[],[],[],[],[],[],378.6702,380.6698,380.6698,380.67,[],[],[],[],[],[],[],,380.67,380.6701,0.134957826,0.055139,0,0,0,,0,81,81,117,1,3,word,MARINE,cursive,marine_c.png,,,,,,
,,,,30631,001,2025-10-16_15h03.57.317,HW_LDT_1,2024.2.4,Win32,119.047619,,,,,,,,,,,,,,,,,,,,,,380.671,380.8701,380.8702,381.3696,,,,,,,,,,,,,,1.1288,1,,,,,,,,,,,,,,z,,,,,,,,,,,,,,,,83,0,381.3701,382.4999,z,1,1.1288,,[],[],[],[],[],[],[],382.5,384.495,384.495,384.4953,[],[],[],[],[],[],[],,384.4953,384.4956,0.134957826,0.055139,0,0,0,,0,82,82,58,1,3,TL,nuremical,print,nuremical_p.png,,,,,,
,,,,30631,001,2025-10-16_15h03.57.317,HW_LDT_1,2024.2.4,Win32,119.047619,,,,,,,,,,,,,,,,,,,,,,384.4981,384.6926,384.6926,385.1835,,,,,,,,,,,,,,1.7401,1,,,,,,,,,,,,,,z,,,,,,,,,,,,,,,,84,1,385.1842,386.9276,z,1,1.7401,,[],[],[],[],[],[],[],386.9277,388.9291,388.9291,390.2308,[],[],[],[],[],[],[],z,390.2309,390.2311,0.134957826,0.055139,0,0,0,,0,83,83,36,1,3,TL,carema,cursive,carema_c.png,1.3009,,,,,
,,,,30631,001,2025-10-16_15h03.57.317,HW_LDT_1,2024.2.4,Win32,119.047619,,,,,,,,,,,,,,,,,,,,,,390.2322,390.426,390.4261,390.9295,,,,,,,,,,,,,,0.6011,0,,,,,,,,,,,,,,z,,,,,,,,,,,,,,,,85,0,390.9302,391.5327,m,0,0.6011,,[],[],[],[],[],[],[],391.5327,393.5286,393.5287,393.5288,[],[],[],[],[],[],[],,393.5288,393.5288,0.134957826,0.055139,0,0,0,,0,84,84,10,1,3,RL,efibor,print,efibor_p.png,,,,,,
,,,,30631,001,2025-10-16_15h03.57.317,HW_LDT_1,2024.2.4,Win32,119.047619,,,,,,,,,,,,,,,,,,,,,,393.5297,393.7282,393.7282,394.228,,,,,,,,,,,,,,0.9393,1,,,,,,,,,,,,,,z,,,,,,,,,,,,,,,,86,1,394.2289,395.1696,z,1,0.9393,,[],[],[],[],[],[],[],395.17,397.1643,397.1643,398.1624,[],[],[],[],[],[],[],z,398.1624,398.1624,0.134957826,0.055139,0,0,0,,0,85,85,23,1,3,RL,quakity,print,quakity_p.png,0.997,,,,,
,,,,30631,001,2025-10-16_15h03.57.317,HW_LDT_1,2024.2.4,Win32,119.047619,,,,,,,,,,,,,,,,,,,,,,398.1637,398.3614,398.3614,398.8616,,,,,,,,,,,,,,1.1473,1,,,,,,,,,,,,,,z,,,,,,,,,,,,,,,,87,0,398.862,400.0106,z,1,1.1473,,[],[],[],[],[],[],[],400.0108,402.0132,402.0133,402.0133,[],[],[],[],[],[],[],,402.0134,402.0134,0.134957826,0.055139,0,0,0,,0,86,86,12,1,3,RL,formuke,cursive,formuke_c.png,,,,,,
,,,,30631,001,2025-10-16_15h03.57.317,HW_LDT_1,2024.2.4,Win32,119.047619,,,,,,,,,,,,,,,,,,,,,,402.0149,402.2088,402.2088,402.7139,,,,,,,,,,,,,,0.6522,0,,,,,,,,,,,,,,m,,,,,,,,,,,,,,,,88,0,402.7147,403.3681,z,0,0.6522,,[],[],[],[],[],[],[],403.3681,405.3699,405.3699,405.3701,[],[],[],[],[],[],[],,405.3701,405.3702,0.134957826,0.055139,0,0,0,,0,87,87,122,1,3,word,MOBILE,cursive,mobile_c.png,,,,,,
,,,,30631,001,2025-10-16_15h03.57.317,HW_LDT_1,2024.2.4,Win32,119.047619,,,,,,,,,,,,,,,,,,,,,,405.3712,405.5691,405.5692,406.0701,,,,,,,,,,,,,,0.6543,1,,,,,,,,,,,,,,z,,,,,,,,,,,,,,,,89,0,406.071,406.726,z,1,0.6543,,[],[],[],[],[],[],[],406.726,408.7212,408.7212,408.7213,[],[],[],[],[],[],[],,408.7214,408.7218,0.134957826,0.055139,0,0,0,,0,88,88,31,1,3,RL,trilude,print,trilude_p.png,,,,,,
,,,,30631,001,2025-10-16_15h03.57.317,HW_LDT_1,2024.2.4,Win32,119.047619,,,,,,,,,,,,,,,,,,,,,,408.7229,408.9157,408.9158,409.4193,,,,,,,,,,,,,,1.4472,1,,,,,,,,,,,,,,m,,,,,,,,,,,,,,,,90,1,409.4205,410.8692,m,1,1.4472,,[],[],[],[],[],[],[],410.8693,412.8677,412.8677,413.961,[],[],[],[],[],[],[],z,413.961,413.961,0.134957826,0.055139,0,0,0,,0,89,89,83,1,3,word,ANIMAL,cursive,animal_c.png,1.0914,,,,,
,,,,30631,001,2025-10-16_15h03.57.317,HW_LDT_1,2024.2.4,Win32,119.047619,,,,,,,,,,,,,,,,,,,,,,413.9628,414.1616,414.1616,414.6617,,,,,,,,,,,,,,1.7475,1,,,,,,,,,,,,,,m,,,,,,,,,,,,,,,,91,0,414.6623,416.4118,m,1,1.7475,,[],[],[],[],[],[],[],416.4119,418.4092,418.4094,418.4097,[],[],[],[],[],[],[],,418.4102,418.4103,0.134957826,0.055139,0,0,0,,0,90,90,87,1,3,word,CAFETERIA,print,cafeteria_p.png,,,,,,
,,,,30631,001,2025-10-16_15h03.57.317,HW_LDT_1,2024.2.4,Win32,119.047619,,,,,,,,,,,,,,,,,,,,,,418.4119,418.6105,418.6106,419.1058,,,,,,,,,,,,,,0.6866,1,,,,,,,,,,,,,,m,,,,,,,,,,,,,,,,92,0,419.1066,419.794,m,1,0.6866,,[],[],[],[],[],[],[],419.7941,421.7893,421.7895,421.7898,[],[],[],[],[],[],[],,421.7899,421.7899,0.134957826,0.055139,0,0,0,,0,91,91,104,1,3,word,DOMINANT,print,dominant_p.png,,,,,,
,,,,30631,001,2025-10-16_15h03.57.317,HW_LDT_1,2024.2.4,Win32,119.047619,,,,,,,,,,,,,,,,,,,,,,421.7913,421.9859,421.9859,422.4862,,,,,,,,,,,,,,1.9831,1,,,,,,,,,,,,,,m,,,,,,,,,,,,,,,,93,0,422.4866,424.4707,m,1,1.9831,,[],[],[],[],[],[],[],424.4708,426.4699,426.4699,426.4701,[],[],[],[],[],[],[],,426.4701,426.4702,0.134957826,0.055139,0,0,0,,0,92,92,145,1,3,word,RESUME,cursive,resume_c.png,,,,,,
,,,,30631,001,2025-10-16_15h03.57.317,HW_LDT_1,2024.2.4,Win32,119.047619,,,,,,,,,,,,,,,,,,,,,,426.4715,426.6758,426.6761,427.1662,,,,,,,,,,,,,,0.6012,1,,,,,,,,,,,,,,z,,,,,,,,,,,,,,,,94,0,427.1669,427.769,z,1,0.6012,,[],[],[],[],[],[],[],427.769,429.77,429.77,429.7702,[],[],[],[],[],[],[],,429.7702,429.7703,0.134957826,0.055139,0,0,0,,0,93,93,57,1,3,TL,moredate,cursive,moredate_c.png,,,,,,
,,,,30631,001,2025-10-16_15h03.57.317,HW_LDT_1,2024.2.4,Win32,119.047619,,,,,,,,,,,,,,,,,,,,,,429.7717,429.9691,429.9692,430.4674,,,,,,,,,,,,,,0.6066,1,,,,,,,,,,,,,,z,,,,,,,,,,,,,,,,95,0,430.469,431.0771,z,1,0.6066,,[],[],[],[],[],[],[],431.0771,433.0753,433.0754,433.076,[],[],[],[],[],[],[],,433.0761,433.0761,0.134957826,0.055139,0,0,0,,0,94,94,4,1,3,RL,cafigal,cursive,cafigal_c.png,,,,,,
,,,,30631,001,2025-10-16_15h03.57.317,HW_LDT_1,2024.2.4,Win32,119.047619,,,,,,,,,,,,,,,,,,,,,,433.0784,433.2781,433.2781,433.7756,,,,,,,,,,,,,,0.7542,1,,,,,,,,,,,,,,m,,,,,,,,,,,,,,,,96,0,433.7761,434.5319,m,1,0.7542,,[],[],[],[],[],[],[],434.5319,436.5275,436.5275,436.5277,[],[],[],[],[],[],[],,436.5277,436.5278,0.134957826,0.055139,0,0,0,,0,95,95,150,1,3,word,SENTIMENT,print,sentiment_p.png,,,,,,
,,,,30631,001,2025-10-16_15h03.57.317,HW_LDT_1,2024.2.4,Win32,119.047619,,,,,,,,,,,,,,,,,,,,,,436.5299,436.7261,436.7262,437.2186,,,,,,,,,,,,,,0.6344,0,,,,,,,,,,,,,,m,,,,,,,,,,,,,,,,97,1,437.2194,437.8552,z,0,0.6344,,[],[],[],[],[],[],[],437.8552,439.8521,439.8522,440.9186,[],[],[],[],[],[],[],z,440.9186,440.9189,0.134957826,0.055139,0,0,0,,0,96,96,110,1,3,word,HERITAGE,cursive,heritage_c.png,1.0629,,,,,
,,,,30631,001,2025-10-16_15h03.57.317,HW_LDT_1,2024.2.4,Win32,119.047619,,,,,,,,,,,,,,,,,,,,,,440.9202,441.1186,441.1188,441.6187,,,,,,,,,,,,,,0.7587,1,,,,,,,,,,,,,,z,,,,,,,,,,,,,,,,98,0,441.6194,442.3792,z,1,0.7587,,[],[],[],[],[],[],[],442.3793,444.3804,444.3804,444.381,[],[],[],[],[],[],[],,444.3811,444.3813,0.134957826,0.055139,0,0,0,,0,97,97,70,1,3,TL,remuse,cursive,remuse_c.png,,,,,,
,,,,30631,001,2025-10-16_15h03.57.317,HW_LDT_1,2024.2.4,Win32,119.047619,,,,,,,,,,,,,,,,,,,,,,444.3834,444.5842,444.5842,445.0773,,,,,,,,,,,,,,0.7123,1,,,,,,,,,,,,,,z,,,,,,,,,,,,,,,,99,0,445.0781,445.7919,z,1,0.7123,,[],[],[],[],[],[],[],445.792,447.7863,447.7863,447.7865,[],[],[],[],[],[],[],,447.7865,447.7866,0.134957826,0.055139,0,0,0,,0,98,98,61,1,3,TL,pocily,print,pocily_p.png,,,,,,
,,,,30631,001,2025-10-16_15h03.57.317,HW_LDT_1,2024.2.4,Win32,119.047619,,,,,,,,,,,,,,,,,,,,,,447.7878,447.9867,447.9868,448.486,,,,,,,,,,,,,,1.9337,1,,,,,,,,,,,,,,z,,,,,,,,,,,,,,,,100,0,448.4864,450.4212,z,1,1.9337,,[],[],[],[],[],[],[],450.4212,452.4258,452.4259,452.4271,[],[],[],[],[],[],[],,452.4273,452.4274,0.134957826,0.055139,0,0,0,,0,99,99,19,1,3,RL,opcifal,cursive,opcifal_c.png,,,,,,
,,,,30631,001,2025-10-16_15h03.57.317,HW_LDT_1,2024.2.4,Win32,119.047619,,,,,,,,,,,,,,,,,,,,,,452.4291,452.6242,452.6243,453.1257,,,,,,,,,,,,,,0.9873,1,,,,,,,,,,,,,,z,,,,,,,,,,,,,,,,101,1,453.127,454.1158,z,1,0.9873,,[],[],[],[],[],[],[],454.1159,456.1115,456.1116,457.2104,[],[],[],[],[],[],[],z,457.2106,457.2106,0.134957826,0.055139,0,0,0,,0,100,100,74,1,3,TL,spemicen,print,spemicen_p.png,1.0974,,,,,
,,,,30631,001,2025-10-16_15h03.57.317,HW_LDT_1,2024.2.4,Win32,119.047619,,,,,,,,,,,,,,,,,,,,,,457.2118,457.411,457.4111,457.9094,,,,,,,,,,,,,,1.0818,1,,,,,,,,,,,,,,z,,,,,,,,,,,,,,,,102,0,457.9105,458.9942,z,1,1.0818,,[],[],[],[],[],[],[],458.9943,460.9946,460.9947,460.9949,[],[],[],[],[],[],[],,460.995,460.9951,0.134957826,0.055139,0,0,0,,0,101,101,76,1,3,TL,stogare,cursive,stogare_c.png,,,,,,
,,,,30631,001,2025-10-16_15h03.57.317,HW_LDT_1,2024.2.4,Win32,119.047619,,,,,,,,,,,,,,,,,,,,,,460.9978,461.1988,461.1988,461.6997,,,,,,,,,,,,,,1.0491,1,,,,,,,,,,,,,,z,,,,,,,,,,,,,,,,103,0,461.701,462.7519,z,1,1.0491,,[],[],[],[],[],[],[],462.7519,464.7528,464.7529,464.753,[],[],[],[],[],[],[],,464.7531,464.7531,0.134957826,0.055139,0,0,0,,0,102,102,42,1,3,TL,detabe,cursive,detabe_c.png,,,,,,
,,,,30631,001,2025-10-16_15h03.57.317,HW_LDT_1,2024.2.4,Win32,119.047619,,,,,,,,,,,,,,,,,,,,,,464.7545,464.9408,464.9408,465.4564,,,,,,,,,,,,,,1.0303,1,,,,,,,,,,,,,,z,,,,,,,,,,,,,,,,104,0,465.4573,466.4891,z,1,1.0303,,[],[],[],[],[],[],[],466.4891,468.4853,468.4856,468.486,[],[],[],[],[],[],[],,468.4861,468.4863,0.134957826,0.055139,0,0,0,,0,103,103,34,1,3,TL,aminal,cursive,aminal_c.png,,,,,,
,,,,30631,001,2025-10-16_15h03.57.317,HW_LDT_1,2024.2.4,Win32,119.047619,,,,,,,,,,,,,,,,,,,,,,468.4888,468.6771,468.6772,469.1841,,,,,,,,,,,,,,1.2242,1,,,,,,,,,,,,,,m,,,,,,,,,,,,,,,,105,0,469.1851,470.4105,m,1,1.2242,,[],[],[],[],[],[],[],470.4105,472.408,472.4081,472.4083,[],[],[],[],[],[],[],,472.4083,472.4084,0.134957826,0.055139,0,0,0,,0,104,104,101,1,3,word,DELICATE,print,delicate_p.png,,,,,,
,,,,30631,001,2025-10-16_15h03.57.317,HW_LDT_1,2024.2.4,Win32,119.047619,,,,,,,,,,,,,,,,,,,,,,472.4094,472.6046,472.6047,473.1093,,,,,,,,,,,,,,0.5541,0,,,,,,,,,,,,,,z,,,,,,,,,,,,,,,,106,0,473.1108,473.6667,m,0,0.5541,,[],[],[],[],[],[],[],473.6669,475.6731,475.6732,475.6733,[],[],[],[],[],[],[],,475.6733,475.6734,0.134957826,0.055139,0,0,0,,0,105,105,73,1,3,TL,speficic,print,speficic_p.png,,,,,,
,,,,30631,001,2025-10-16_15h03.57.317,HW_LDT_1,2024.2.4,Win32,119.047619,,,,,,,,,,,,,,,,,,,,,,475.6745,475.8683,475.8683,476.3754,,,,,,,,,,,,,,0.7065,1,,,,,,,,,,,,,,m,,,,,,,,,,,,,,,,107,0,476.3762,477.0845,m,1,0.7065,,[],[],[],[],[],[],[],477.0846,479.085,479.0852,479.0855,[],[],[],[],[],[],[],,479.0856,479.0858,0.134957826,0.055139,0,0,0,,0,106,106,129,1,3,word,PARENT,print,parent_p.png,,,,,,
,,,,30631,001,2025-10-16_15h03.57.317,HW_LDT_1,2024.2.4,Win32,119.047619,,,,,,,,,,,,,,,,,,,,,,479.0873,479.2842,479.2842,479.7785,,,,,,,,,,,,,,0.5695,1,,,,,,,,,,,,,,m,,,,,,,,,,,,,,,,108,0,479.7796,480.35,m,1,0.5695,,[],[],[],[],[],[],[],480.3501,482.3466,482.3466,482.3469,[],[],[],[],[],[],[],,482.3469,482.3472,0.134957826,0.055139,0,0,0,,0,107,107,96,1,3,word,CONSIDER,print,consider_p.png,,,,,,
,,,,30631,001,2025-10-16_15h03.57.317,HW_LDT_1,2024.2.4,Win32,119.047619,,,,,,,,,,,,,,,,,,,,,,482.3486,482.5501,482.5503,483.0428,,,,,,,,,,,,,,0.9621,1,,,,,,,,,,,,,,m,,,,,,,,,,,,,,,,109,0,483.0439,484.0071,m,1,0.9621,,[],[],[],[],[],[],[],484.0072,486.0027,486.0027,486.0028,[],[],[],[],[],[],[],,486.0029,486.003,0.134957826,0.055139,0,0,0,,0,108,108,157,1,3,word,VALIDITY,cursive,validity_c.png,,,,,,
,,,,30631,001,2025-10-16_15h03.57.317,HW_LDT_1,2024.2.4,Win32,119.047619,,,,,,,,,,,,,,,,,,,,,,486.0051,486.1954,486.1954,486.703,,,,,,,,,,,,,,0.9542,1,,,,,,,,,,,,,,m,,,,,,,,,,,,,,,,110,0,486.704,487.6598,m,1,0.9542,,[],[],[],[],[],[],[],487.66,489.6576,489.6577,489.6583,[],[],[],[],[],[],[],,489.6584,489.6585,0.134957826,0.055139,0,0,0,,0,109,109,148,1,3,word,SALINE,cursive,saline_c.png,,,,,,
,,,,30631,001,2025-10-16_15h03.57.317,HW_LDT_1,2024.2.4,Win32,119.047619,,,,,,,,,,,,,,,,,,,,,,489.6609,489.8603,489.8603,490.3567,,,,,,,,,,,,,,0.5135,1,,,,,,,,,,,,,,m,,,,,,,,,,,,,,,,111,0,490.3572,490.872,m,1,0.5135,,[],[],[],[],[],[],[],490.872,492.8696,492.8696,492.87,[],[],[],[],[],[],[],,492.87,492.8702,0.134957826,0.055139,0,0,0,,0,110,110,151,1,3,word,SPECIFIC,print,specific_p.png,,,,,,
,,,,30631,001,2025-10-16_15h03.57.317,HW_LDT_1,2024.2.4,Win32,119.047619,,,,,,,,,,,,,,,,,,,,,,492.8729,493.067,493.067,493.5693,,,,,,,,,,,,,,1.7293,1,,,,,,,,,,,,,,m,,,,,,,,,,,,,,,,112,0,493.5705,495.3026,m,1,1.7293,,[],[],[],[],[],[],[],495.3026,497.3017,497.3017,497.302,[],[],[],[],[],[],[],,497.3022,497.3024,0.134957826,0.055139,0,0,0,,0,111,111,128,1,3,word,PACIFIC,cursive,pacific_c.png,,,,,,
,,,,30631,001,2025-10-16_15h03.57.317,HW_LDT_1,2024.2.4,Win32,119.047619,,,,,,,,,,,,,,,,,,,,,,497.3044,497.5007,497.5007,498.0008,,,,,,,,,,,,,,0.7038,1,,,,,,,,,,,,,,m,,,,,,,,,,,,,,,,113,0,498.0018,498.7066,m,1,0.7038,,[],[],[],[],[],[],[],498.7068,500.7009,500.7014,500.702,[],[],[],[],[],[],[],,500.702,500.7023,0.134957826,0.055139,0,0,0,,0,112,112,82,1,3,word,AMATEUR,print,amateur_p.png,,,,,,
,,,,30631,001,2025-10-16_15h03.57.317,HW_LDT_1,2024.2.4,Win32,119.047619,,,,,,,,,,,,,,,,,,,,,,500.7039,500.8988,500.8988,501.4085,,,,,,,,,,,,,,1.3423,0,,,,,,,,,,,,,,m,,,,,,,,,,,,,,,,114,0,501.4101,502.7537,z,0,1.3423,,[],[],[],[],[],[],[],502.7537,504.7525,504.7526,504.7527,[],[],[],[],[],[],[],,504.7527,504.7528,0.134957826,0.055139,0,0,0,,0,113,113,126,1,3,word,OPTIMAL,cursive,optimal_c.png,,,,,,
,,,,30631,001,2025-10-16_15h03.57.317,HW_LDT_1,2024.2.4,Win32,119.047619,,,,,,,,,,,,,,,,,,,,,,504.7536,504.9563,504.9563,505.4516,,,,,,,,,,,,,,0.6431,1,,,,,,,,,,,,,,z,,,,,,,,,,,,,,,,115,0,505.452,506.096,z,1,0.6431,,[],[],[],[],[],[],[],506.096,508.0939,508.0939,508.094,[],[],[],[],[],[],[],,508.094,508.0942,0.134957826,0.055139,0,0,0,,0,114,114,0,1,3,RL,afaneur,print,afaneur_p.png,,,,,,
,,,,30631,001,2025-10-16_15h03.57.317,HW_LDT_1,2024.2.4,Win32,119.047619,,,,,,,,,,,,,,,,,,,,,,508.0955,508.289,508.289,508.7934,,,,,,,,,,,,,,0.824,1,,,,,,,,,,,,,,z,,,,,,,,,,,,,,,,116,0,508.7942,509.6197,z,1,0.824,,[],[],[],[],[],[],[],509.6197,511.6248,511.6251,511.6254,[],[],[],[],[],[],[],,511.6255,511.6258,0.134957826,0.055139,0,0,0,,0,115,115,64,1,3,TL,radiply,print,radiply_p.png,,,,,,
,,,,30631,001,2025-10-16_15h03.57.317,HW_LDT_1,2024.2.4,Win32,119.047619,,,,,,,,,,,,,,,,,,,,,,511.6286,511.8254,511.8255,512.3248,,,,,,,,,,,,,,0.7898,1,,,,,,,,,,,,,,z,,,,,,,,,,,,,,,,117,0,512.3258,513.1169,z,1,0.7898,,[],[],[],[],[],[],[],513.1169,515.1113,515.1114,515.1116,[],[],[],[],[],[],[],,515.1117,515.1118,0.134957826,0.055139,0,0,0,,0,116,116,5,1,3,RL,capefory,cursive,capefory_c.png,,,,,,
,,,,30631,001,2025-10-16_15h03.57.317,HW_LDT_1,2024.2.4,Win32,119.047619,,,,,,,,,,,,,,,,,,,,,,515.1133,515.3115,515.3115,515.8113,,,,,,,,,,,,,,2.3751,1,,,,,,,,,,,,,,z,,,,,,,,,,,,,,,,118,0,515.8117,518.1878,z,1,2.3751,,[],[],[],[],[],[],[],518.1879,520.1864,520.1864,520.1869,[],[],[],[],[],[],[],,520.1872,520.1875,0.134957826,0.055139,0,0,0,,0,117,117,39,1,3,TL,clicinal,print,clicinal_p.png,,,,,,
,,,,30631,001,2025-10-16_15h03.57.317,HW_LDT_1,2024.2.4,Win32,119.047619,,,,,,,,,,,,,,,,,,,,,,520.1898,520.3853,520.3854,520.8833,,,,,,,,,,,,,,1.2969,1,,,,,,,,,,,,,,z,,,,,,,,,,,,,,,,119,0,520.8838,522.1817,z,1,1.2969,,[],[],[],[],[],[],[],522.1817,524.178,524.178,524.1781,[],[],[],[],[],[],[],,524.1781,524.1782,0.134957826,0.055139,0,0,0,,0,118,118,77,1,3,TL,vadility,cursive,vadility_c.png,,,,,,
,,,,30631,001,2025-10-16_15h03.57.317,HW_LDT_1,2024.2.4,Win32,119.047619,,,,,,,,,,,,,,,,,,,,,,524.1793,524.3779,524.378,524.8769,,,,,,,,,,,,,,1.1096,1,,,,,,,,,,,,,,m,,,,,,,,,,,,,,,,120,0,524.878,525.9886,m,1,1.1096,,[],[],[],[],[],[],[],525.9887,527.9861,527.9862,527.9864,[],[],[],[],[],[],[],,527.9865,527.9866,0.134957826,0.055139,0,0,0,,0,119,119,91,1,3,word,CARDINAL,print,cardinal_p.png,,,,,,
,,,,30631,001,2025-10-16_15h03.57.317,HW_LDT_1,2024.2.4,Win32,119.047619,,,,,,,,,,,,,,,,,,,,,,527.9879,528.1774,528.1774,528.6839,,,,,,,,,,,,,,1.0807,1,,,,,,,,,,,,,,z,,,,,,,,,,,,,,,,121,0,528.6852,529.7682,z,1,1.0807,,[],[],[],[],[],[],[],529.7683,531.7689,531.7689,531.7694,[],[],[],[],[],[],[],,531.7694,531.7696,0.134957826,0.055139,0,0,0,,0,120,120,37,1,3,TL,cacapity,cursive,cacapity_c.png,,,,,,
,,,,30631,001,2025-10-16_15h03.57.317,HW_LDT_1,2024.2.4,Win32,119.047619,,,,,,,,,,,,,,,,,,,,,,531.771,531.9674,531.9676,532.4688,,,,,,,,,,,,,,0.826,1,,,,,,,,,,,,,,z,,,,,,,,,,,,,,,,122,0,532.4692,533.2965,z,1,0.826,,[],[],[],[],[],[],[],533.2965,535.2945,535.2945,535.2947,[],[],[],[],[],[],[],,535.2947,535.2948,0.134957826,0.055139,0,0,0,,0,121,121,79,1,3,TL,veretan,cursive,veretan_c.png,,,,,,
,,,,30631,001,2025-10-16_15h03.57.317,HW_LDT_1,2024.2.4,Win32,119.047619,,,,,,,,,,,,,,,,,,,,,,535.2968,535.4936,535.4936,535.9923,,,,,,,,,,,,,,1.1829,1,,,,,,,,,,,,,,m,,,,,,,,,,,,,,,,123,0,535.9927,537.1772,m,1,1.1829,,[],[],[],[],[],[],[],537.1772,539.1753,539.1754,539.1759,[],[],[],[],[],[],[],,539.1759,539.176,0.134957826,0.055139,0,0,0,,0,122,122,115,1,3,word,LOGICAL,cursive,logical_c.png,,,,,,
,,,,30631,001,2025-10-16_15h03.57.317,HW_LDT_1,2024.2.4,Win32,119.047619,,,,,,,,,,,,,,,,,,,,,,539.1775,539.3602,539.3603,539.8784,,,,,,,,,,,,,,0.635,1,,,,,,,,,,,,,,z,,,,,,,,,,,,,,,,124,0,539.8789,540.5151,z,1,0.635,,[],[],[],[],[],[],[],540.5151,542.5109,542.511,542.5111,[],[],[],[],[],[],[],,542.5112,542.5113,0.134957826,0.055139,0,0,0,,0,123,123,9,1,3,RL,docirant,print,docirant_p.png,,,,,,
,,,,30631,001,2025-10-16_15h03.57.317,HW_LDT_1,2024.2.4,Win32,119.047619,,,,,,,,,,,,,,,,,,,,,,542.514,542.7066,542.7067,543.2067,,,,,,,,,,,,,,0.6874,1,,,,,,,,,,,,,,z,,,,,,,,,,,,,,,,125,0,543.2076,543.8967,z,1,0.6874,,[],[],[],[],[],[],[],543.8967,545.8924,545.8926,545.8935,[],[],[],[],[],[],[],,545.8937,545.8939,0.134957826,0.055139,0,0,0,,0,124,124,20,1,3,RL,orimipal,cursive,orimipal_c.png,,,,,,
,,,,30631,001,2025-10-16_15h03.57.317,HW_LDT_1,2024.2.4,Win32,119.047619,,,,,,,,,,,,,,,,,,,,,,545.8961,546.0939,546.0939,546.5943,,,,,,,,,,,,,,0.7754,1,,,,,,,,,,,,,,z,,,,,,,,,,,,,,,,126,0,546.5954,547.3721,z,1,0.7754,,[],[],[],[],[],[],[],547.3721,549.3676,549.3677,549.3683,[],[],[],[],[],[],[],,549.3684,549.3687,0.134957826,0.055139,0,0,0,,0,125,125,78,1,3,TL,vecolity,cursive,vecolity_c.png,,,,,,
,,,,30631,001,2025-10-16_15h03.57.317,HW_LDT_1,2024.2.4,Win32,119.047619,,,,,,,,,,,,,,,,,,,,,,549.3712,549.567,549.567,550.0672,,,,,,,,,,,,,,0.5724,1,,,,,,,,,,,,,,z,,,,,,,,,,,,,,,,127,0,550.0686,550.6423,z,1,0.5724,,[],[],[],[],[],[],[],550.6423,552.6457,552.6457,552.6458,[],[],[],[],[],[],[],,552.6459,552.646,0.134957826,0.055139,0,0,0,,0,126,126,68,1,3,TL,revomal,cursive,revomal_c.png,,,,,,
,,,,30631,001,2025-10-16_15h03.57.317,HW_LDT_1,2024.2.4,Win32,119.047619,,,,,,,,,,,,,,,,,,,,,,552.6469,552.842,552.842,553.3456,,,,,,,,,,,,,,0.8307,1,,,,,,,,,,,,,,z,,,,,,,,,,,,,,,,128,1,553.3462,554.1779,z,1,0.8307,,[],[],[],[],[],[],[],554.1779,556.1782,556.1783,558.2956,[],[],[],[],[],[],[],z,558.2957,558.2959,0.134957826,0.055139,0,0,0,,0,127,127,72,1,3,TL,senmitent,print,senmitent_p.png,2.1133,,,,,
,,,,30631,001,2025-10-16_15h03.57.317,HW_LDT_1,2024.2.4,Win32,119.047619,,,,,,,,,,,,,,,,,,,,,,558.297,558.4959,558.4959,558.9938,,,,,,,,,,,,,,1.2847,0,,,,,,,,,,,,,,m,,,,,,,,,,,,,,,,129,0,558.9943,560.28,z,0,1.2847,,[],[],[],[],[],[],[],560.28,562.2791,562.2792,562.2793,[],[],[],[],[],[],[],,562.2794,562.2794,0.134957826,0.055139,0,0,0,,0,128,128,121,1,3,word,MISTAKE,cursive,mistake_c.png,,,,,,
,,,,30631,001,2025-10-16_15h03.57.317,HW_LDT_1,2024.2.4,Win32,119.047619,,,,,,,,,,,,,,,,,,,,,,562.2805,562.4797,562.4798,562.9778,,,,,,,,,,,,,,1.0647,1,,,,,,,,,,,,,,m,,,,,,,,,,,,,,,,130,0,562.9786,564.0443,m,1,1.0647,,[],[],[],[],[],[],[],564.0444,566.0418,566.042,566.0424,[],[],[],[],[],[],[],,566.0424,566.0426,0.134957826,0.055139,0,0,0,,0,129,129,154,1,3,word,STORAGE,cursive,storage_c.png,,,,,,
,,,,30631,001,2025-10-16_15h03.57.317,HW_LDT_1,2024.2.4,Win32,119.047619,,,,,,,,,,,,,,,,,,,,,,566.0455,566.2379,566.2381,566.7409,,,,,,,,,,,,,,1.1681,1,,,,,,,,,,,,,,m,,,,,,,,,,,,,,,,131,0,566.7419,567.9115,m,1,1.1681,,[],[],[],[],[],[],[],567.9116,569.9109,569.911,569.9111,[],[],[],[],[],[],[],,569.9111,569.9112,0.134957826,0.055139,0,0,0,,0,130,130,80,1,3,word,ACADEMY,print,academy_p.png,,,,,,
,,,,30631,001,2025-10-16_15h03.57.317,HW_LDT_1,2024.2.4,Win32,119.047619,,,,,,,,,,,,,,,,,,,,,,569.9135,570.1136,570.1137,570.6106,,,,,,,,,,,,,,2.0591,1,,,,,,,,,,,,,,z,,,,,,,,,,,,,,,,132,0,570.611,572.6708,z,1,2.0591,,[],[],[],[],[],[],[],572.6708,574.6703,574.6704,574.6707,[],[],[],[],[],[],[],,574.6707,574.6707,0.134957826,0.055139,0,0,0,,0,131,131,6,1,3,RL,cenesony,cursive,cenesony_c.png,,,,,,
,,,,30631,001,2025-10-16_15h03.57.317,HW_LDT_1,2024.2.4,Win32,119.047619,,,,,,,,,,,,,,,,,,,,,,574.6722,574.8666,574.8667,575.3668,,,,,,,,,,,,,,0.6739,1,,,,,,,,,,,,,,m,,,,,,,,,,,,,,,,133,0,575.3676,576.0429,m,1,0.6739,,[],[],[],[],[],[],[],576.043,578.0442,578.0442,578.0444,[],[],[],[],[],[],[],,578.0444,578.0445,0.134957826,0.055139,0,0,0,,0,132,132,119,1,3,word,MEMORY,print,memory_p.png,,,,,,
,,,,30631,001,2025-10-16_15h03.57.317,HW_LDT_1,2024.2.4,Win32,119.047619,,,,,,,,,,,,,,,,,,,,,,578.047,578.2418,578.2419,578.7412,,,,,,,,,,,,,,0.6045,1,,,,,,,,,,,,,,m,,,,,,,,,,,,,,,,134,0,578.7422,579.3477,m,1,0.6045,,[],[],[],[],[],[],[],579.3479,581.3444,581.3444,581.3445,[],[],[],[],[],[],[],,581.3446,581.3447,0.134957826,0.055139,0,0,0,,0,133,133,142,1,3,word,REMOTE,print,remote_p.png,,,,,,
,,,,30631,001,2025-10-16_15h03.57.317,HW_LDT_1,2024.2.4,Win32,119.047619,,,,,,,,,,,,,,,,,,,,,,581.346,581.5443,581.5443,582.0441,,,,,,,,,,,,,,0.5667,1,,,,,,,,,,,,,,m,,,,,,,,,,,,,,,,135,0,582.0455,582.6133,m,1,0.5667,,[],[],[],[],[],[],[],582.6133,584.6107,584.6108,584.6109,[],[],[],[],[],[],[],,584.611,584.611,0.134957826,0.055139,0,0,0,,0,134,134,103,1,3,word,DISPUTE,print,dispute_p.png,,,,,,
,,,,30631,001,2025-10-16_15h03.57.317,HW_LDT_1,2024.2.4,Win32,119.047619,,,,,,,,,,,,,,,,,,,,,,584.612,584.8134,584.8134,585.311,,,,,,,,,,,,,,0.6906,1,,,,,,,,,,,,,,z,,,,,,,,,,,,,,,,136,1,585.3122,586.0039,z,1,0.6906,,[],[],[],[],[],[],[],586.004,588.0024,588.0024,589.4698,[],[],[],[],[],[],[],z,589.4698,589.47,0.134957826,0.055139,0,0,0,,0,135,135,41,1,3,TL,crinimal,print,crinimal_p.png,1.4667,,,,,
,,,,30631,001,2025-10-16_15h03.57.317,HW_LDT_1,2024.2.4,Win32,119.047619,,,,,,,,,,,,,,,,,,,,,,589.4711,589.6692,589.6693,590.1694,,,,,,,,,,,,,,1.0385,1,,,,,,,,,,,,,,m,,,,,,,,,,,,,,,,137,0,590.1701,591.2099,m,1,1.0385,,[],[],[],[],[],[],[],591.21,593.2109,593.2109,593.2111,[],[],[],[],[],[],[],,593.2111,593.2112,0.134957826,0.055139,0,0,0,,0,136,136,84,1,3,word,BELOVED,cursive,beloved_c.png,,,,,,
,,,,30631,001,2025-10-16_15h03.57.317,HW_LDT_1,2024.2.4,Win32,119.047619,,,,,,,,,,,,,,,,,,,,,,593.2137,593.4066,593.4066,593.9089,,,,,,,,,,,,,,1.2576,1,,,,,,,,,,,,,,z,,,,,,,,,,,,,,,,138,0,593.9106,595.1692,z,1,1.2576,,[],[],[],[],[],[],[],595.1693,597.1691,597.1692,597.1694,[],[],[],[],[],[],[],,597.1694,597.1696,0.134957826,0.055139,0,0,0,,0,137,137,14,1,3,RL,lofase,cursive,lofase_c.png,,,,,,
,,,,30631,001,2025-10-16_15h03.57.317,HW_LDT_1,2024.2.4,Win32,119.047619,,,,,,,,,,,,,,,,,,,,,,597.1709,597.3641,597.3641,597.8729,,,,,,,,,,,,,,0.7248,1,,,,,,,,,,,,,,m,,,,,,,,,,,,,,,,139,0,597.8739,598.6021,m,1,0.7248,,[],[],[],[],[],[],[],598.6021,600.5911,600.5912,600.5914,[],[],[],[],[],[],[],,600.5915,600.5915,0.134957826,0.055139,0,0,0,,0,138,138,156,1,3,word,TRIBUTE,print,tribute_p.png,,,,,,
,,,,30631,001,2025-10-16_15h03.57.317,HW_LDT_1,2024.2.4,Win32,119.047619,,,,,,,,,,,,,,,,,,,,,,600.5932,600.7866,600.7867,601.2865,,,,,,,,,,,,,,0.7119,1,,,,,,,,,,,,,,z,,,,,,,,,,,,,,,,140,0,601.288,602.0022,z,1,0.7119,,[],[],[],[],[],[],[],602.0023,603.9984,603.9985,603.999,[],[],[],[],[],[],[],,603.999,603.9991,0.134957826,0.055139,0,0,0,,0,139,139,43,1,3,TL,dedace,cursive,dedace_c.png,,,,,,
,,,,30631,001,2025-10-16_15h03.57.317,HW_LDT_1,2024.2.4,Win32,119.047619,,,,,,,,,,,,,,,,,,,,,,604.0009,604.1966,604.1968,604.6973,,,,,,,,,,,,,,0.6131,1,,,,,,,,,,,,,,z,,,,,,,,,,,,,,,,141,0,604.6976,605.3116,z,1,0.6131,,[],[],[],[],[],[],[],605.3117,607.31,607.31,607.3102,[],[],[],[],[],[],[],,607.3102,607.3102,0.134957826,0.055139,0,0,0,,0,140,140,25,1,3,RL,retupar,print,retupar_p.png,,,,,,
,,,,30631,001,2025-10-16_15h03.57.317,HW_LDT_1,2024.2.4,Win32,119.047619,,,,,,,,,,,,,,,,,,,,,,607.3138,607.5075,607.5075,608.0066,,,,,,,,,,,,,,0.5254,0,,,,,,,,,,,,,,z,,,,,,,,,,,,,,,,142,0,608.0074,608.5339,m,0,0.5254,,[],[],[],[],[],[],[],608.534,610.5359,610.5359,610.5361,[],[],[],[],[],[],[],,610.5361,610.5361,0.134957826,0.055139,0,0,0,,0,141,141,35,1,3,TL,cateferia,print,cateferia_p.png,,,,,,
,,,,30631,001,2025-10-16_15h03.57.317,HW_LDT_1,2024.2.4,Win32,119.047619,,,,,,,,,,,,,,,,,,,,,,610.5372,610.736,610.7361,611.238,,,,,,,,,,,,,,1.0878,1,,,,,,,,,,,,,,z,,,,,,,,,,,,,,,,143,0,611.2383,612.3275,z,1,1.0878,,[],[],[],[],[],[],[],612.3276,614.3271,614.3271,614.3274,[],[],[],[],[],[],[],,614.3274,614.3275,0.134957826,0.055139,0,0,0,,0,142,142,62,1,3,TL,prodive,print,prodive_p.png,,,,,,
,,,,30631,001,2025-10-16_15h03.57.317,HW_LDT_1,2024.2.4,Win32,119.047619,,,,,,,,,,,,,,,,,,,,,,614.3302,614.5264,614.5264,615.0279,,,,,,,,,,,,,,1.6831,1,,,,,,,,,,,,,,z,,,,,,,,,,,,,,,,144,0,615.0284,616.7126,z,1,1.6831,,[],[],[],[],[],[],[],616.7126,618.7108,618.7109,618.7111,[],[],[],[],[],[],[],,618.7111,618.7112,0.134957826,0.055139,0,0,0,,0,143,143,59,1,3,TL,paficic,cursive,paficic_c.png,,,,,,
,,,,30631,001,2025-10-16_15h03.57.317,HW_LDT_1,2024.2.4,Win32,119.047619,,,,,,,,,,,,,,,,,,,,,,618.7127,618.9121,618.9122,619.4102,,,,,,,,,,,,,,0.5771,1,,,,,,,,,,,,,,m,,,,,,,,,,,,,,,,145,0,619.4108,619.9888,m,1,0.5771,,[],[],[],[],[],[],[],619.989,621.9922,621.9924,621.9931,[],[],[],[],[],[],[],,621.9932,621.9933,0.134957826,0.055139,0,0,0,,0,144,144,131,1,3,word,POPULAR,print,popular_p.png,,,,,,
,,,,30631,001,2025-10-16_15h03.57.317,HW_LDT_1,2024.2.4,Win32,119.047619,,,,,,,,,,,,,,,,,,,,,,621.9959,622.1907,622.1907,622.6938,,,,,,,,,,,,,,0.5899,1,,,,,,,,,,,,,,m,,,,,,,,,,,,,,,,146,0,622.6952,623.2863,m,1,0.5899,,[],[],[],[],[],[],[],623.2863,625.2824,625.2825,625.2826,[],[],[],[],[],[],[],,625.2828,625.2831,0.134957826,0.055139,0,0,0,,0,145,145,112,1,3,word,LIBERAL,print,liberal_p.png,,,,,,
,,,,30631,001,2025-10-16_15h03.57.317,HW_LDT_1,2024.2.4,Win32,119.047619,,,,,,,,,,,,,,,,,,,,,,625.2855,625.4822,625.4822,625.9832,,,,,,,,,,,,,,1.0649,1,,,,,,,,,,,,,,m,,,,,,,,,,,,,,,,147,1,625.984,627.0519,m,1,1.0649,,[],[],[],[],[],[],[],627.052,629.05,629.05,630.5149,[],[],[],[],[],[],[],z,630.515,630.5152,0.134957826,0.055139,0,0,0,,0,146,146,136,1,3,word,RADICAL,cursive,radical_c.png,1.4636,,,,,
,,,,30631,001,2025-10-16_15h03.57.317,HW_LDT_1,2024.2.4,Win32,119.047619,,,,,,,,,,,,,,,,,,,,,,630.5166,630.7171,630.7175,631.2168,,,,,,,,,,,,,,1.2309,1,,,,,,,,,,,,,,z,,,,,,,,,,,,,,,,148,0,631.2182,632.4504,z,1,1.2309,,[],[],[],[],[],[],[],632.4504,634.4488,634.4489,634.449,[],[],[],[],[],[],[],,634.4492,634.4494,0.134957826,0.055139,0,0,0,,0,147,147,28,1,3,RL,rovastic,cursive,rovastic_c.png,,,,,,
,,,,30631,001,2025-10-16_15h03.57.317,HW_LDT_1,2024.2.4,Win32,119.047619,,,,,,,,,,,,,,,,,,,,,,634.4519,634.6475,634.6475,635.1507,,,,,,,,,,,,,,0.6003,1,,,,,,,,,,,,,,m,,,,,,,,,,,,,,,,149,0,635.1517,635.7535,m,1,0.6003,,[],[],[],[],[],[],[],635.7535,637.7526,637.7527,637.7528,[],[],[],[],[],[],[],,637.7529,637.753,0.134957826,0.055139,0,0,0,,0,148,148,105,1,3,word,EDITOR,print,editor_p.png,,,,,,
,,,,30631,001,2025-10-16_15h03.57.317,HW_LDT_1,2024.2.4,Win32,119.047619,,,,,,,,,,,,,,,,,,,,,,637.7543,637.9583,637.9584,638.452,,,,,,,,,,,,,,1.1466,0,,,,,,,,,,,,,,m,,,,,,,,,,,,,,,,150,0,638.4527,639.6018,z,0,1.1466,,[],[],[],[],[],[],[],639.6019,641.6056,641.6058,641.6063,[],[],[],[],[],[],[],,641.6064,641.6067,0.134957826,0.055139,0,0,0,,0,149,149,114,1,3,word,LOCATE,cursive,locate_c.png,,,,,,
,,,,30631,001,2025-10-16_15h03.57.317,HW_LDT_1,2024.2.4,Win32,119.047619,,,,,,,,,,,,,,,,,,,,,,641.6088,641.8015,641.8016,642.3023,,,,,,,,,,,,,,0.5549,1,,,,,,,,,,,,,,m,,,,,,,,,,,,,,,,151,0,642.3027,642.8599,m,1,0.5549,,[],[],[],[],[],[],[],642.8599,644.8608,644.8608,644.8611,[],[],[],[],[],[],[],,644.8611,644.8611,0.134957826,0.055139,0,0,0,,0,150,150,98,1,3,word,CRIMINAL,print,criminal_p.png,,,,,,
,,,,30631,001,2025-10-16_15h03.57.317,HW_LDT_1,2024.2.4,Win32,119.047619,,,,,,,,,,,,,,,,,,,,,,644.8639,645.0551,645.0551,645.558,,,,,,,,,,,,,,0.7349,1,,,,,,,,,,,,,,z,,,,,,,,,,,,,,,,152,0,645.5589,646.2955,z,1,0.7349,,[],[],[],[],[],[],[],646.2955,648.2916,648.292,648.2923,[],[],[],[],[],[],[],,648.2923,648.2929,0.134957826,0.055139,0,0,0,,0,151,151,51,1,3,TL,liretal,print,liretal_p.png,,,,,,
,,,,30631,001,2025-10-16_15h03.57.317,HW_LDT_1,2024.2.4,Win32,119.047619,,,,,,,,,,,,,,,,,,,,,,648.2949,648.4889,648.4889,648.9887,,,,,,,,,,,,,,0.7933,1,,,,,,,,,,,,,,z,,,,,,,,,,,,,,,,153,0,648.9896,649.7845,z,1,0.7933,,[],[],[],[],[],[],[],649.7846,651.7855,651.7855,651.7858,[],[],[],[],[],[],[],,651.7858,651.7858,0.134957826,0.055139,0,0,0,,0,152,152,16,1,3,RL,mishafe,cursive,mishafe_c.png,,,,,,
,,,,30631,001,2025-10-16_15h03.57.317,HW_LDT_1,2024.2.4,Win32,119.047619,,,,,,,,,,,,,,,,,,,,,,651.7871,651.9802,651.9804,652.4822,,,,,,,,,,,,,,0.5596,0,,,,,,,,,,,,,,m,,,,,,,,,,,,,,,,154,0,652.4834,653.0448,z,0,0.5596,,[],[],[],[],[],[],[],653.0449,655.0442,655.0443,655.0444,[],[],[],[],[],[],[],,655.0444,655.0445,0.134957826,0.055139,0,0,0,,0,153,153,140,1,3,word,RELATIVE,cursive,relative_c.png,,,,,,
,,,,30631,001,2025-10-16_15h03.57.317,HW_LDT_1,2024.2.4,Win32,119.047619,,,,,,,,,,,,,,,,,,,,,,655.046,655.2421,655.2422,655.7387,,,,,,,,,,,,,,0.7565,1,,,,,,,,,,,,,,z,,,,,,,,,,,,,,,,155,0,655.7396,656.4976,z,1,0.7565,,[],[],[],[],[],[],[],656.4976,658.4989,658.4989,658.4993,[],[],[],[],[],[],[],,658.4994,658.4996,0.134957826,0.055139,0,0,0,,0,154,154,24,1,3,RL,quafidy,print,quafidy_p.png,,,,,,
,,,,30631,001,2025-10-16_15h03.57.317,HW_LDT_1,2024.2.4,Win32,119.047619,,,,,,,,,,,,,,,,,,,,,,658.5015,658.7008,658.7008,659.1895,,,,,,,,,,,,,,0.7086,1,,,,,,,,,,,,,,z,,,,,,,,,,,,,,,,156,0,659.1905,659.9012,z,1,0.7086,,[],[],[],[],[],[],[],659.9013,661.9014,661.9014,661.9019,[],[],[],[],[],[],[],,661.9019,661.9019,0.134957826,0.055139,0,0,0,,0,155,155,3,1,3,RL,bebine,cursive,bebine_c.png,,,,,,
,,,,30631,001,2025-10-16_15h03.57.317,HW_LDT_1,2024.2.4,Win32,119.047619,,,,,,,,,,,,,,,,,,,,,,661.9034,662.1016,662.1016,662.6022,,,,,,,,,,,,,,0.5998,1,,,,,,,,,,,,,,m,,,,,,,,,,,,,,,,157,1,662.6037,663.2046,m,1,0.5998,,[],[],[],[],[],[],[],663.2046,665.2022,665.2022,666.469,[],[],[],[],[],[],[],m,666.4691,666.4693,0.134957826,0.055139,0,0,0,,0,156,156,95,1,3,word,COMEDY,print,comedy_p.png,1.2661,,,,,
,,,,30631,001,2025-10-16_15h03.57.317,HW_LDT_1,2024.2.4,Win32,119.047619,,,,,,,,,,,,,,,,,,,,,,666.4706,666.6658,666.6658,667.1666,,,,,,,,,,,,,,1.2829,1,,,,,,,,,,,,,,m,,,,,,,,,,,,,,,,158,0,667.1683,668.4522,m,1,1.2829,,[],[],[],[],[],[],[],668.4522,670.4515,670.4516,670.4519,[],[],[],[],[],[],[],,670.4519,670.4521,0.134957826,0.055139,0,0,0,,0,157,157,152,1,3,word,SPECIMEN,print,specimen_p.png,,,,,,
,,,,30631,001,2025-10-16_15h03.57.317,HW_LDT_1,2024.2.4,Win32,119.047619,,,,,,,,,,,,,,,,,,,,,,670.4538,670.652,670.652,671.1511,,,,,,,,,,,,,,0.9305,1,,,,,,,,,,,,,,z,,,,,,,,,,,,,,,,159,0,671.1523,672.0851,z,1,0.9305,,[],[],[],[],[],[],[],672.0852,674.0918,674.0918,674.0926,[],[],[],[],[],[],[],,674.0926,674.0929,0.134957826,0.055139,0,0,0,,0,158,158,45,1,3,TL,dentisy,print,dentisy_p.png,,,,,,
,,,,30631,001,2025-10-16_15h03.57.317,HW_LDT_1,2024.2.4,Win32,119.047619,,,,,,,,,,,,,,,,,,,,,,674.0944,674.2933,674.2934,674.7871,,,,,,,,,,,,,,1.7607,0,,,,,,,,,,,,,,m,,,,,,,,,,,,,,,,160,0,674.7883,676.5499,z,0,1.7607,,[],[],[],[],[],[],[],676.55,678.5525,678.5526,678.5527,[],[],[],[],[],[],[],,678.5528,678.5528,0.134957826,0.055139,0,0,0,,0,159,159,108,1,3,word,FORTUNE,cursive,fortune_c.png,,,,,,
,,,,30631,001,2025-10-16_15h03.57.317,HW_LDT_1,2024.2.4,Win32,119.047619,,,,,,,,,,,,,,,,,,,,,,,,,,,,,,,,,,,,,,,,,,,,,,,,,,,,,,,,,,,,,,,,,,,,,,,,,,,,,,,,,,,,,,,,,,,,,,,,,,,,,,,,,,,,,,,,,,,,,,,678.5642,683.5534
