counterbalance_lists.group,counterbalance_lists.remaining,get_list.started,get_list.stopped,participant,session,date,expName,psychopyVersion,OS,frameRate,Instructions.started,Instructions.stopped,key_resp.keys,key_resp.rt,key_resp.duration,instr_done_touch.x,instr_done_touch.y,instr_done_touch.leftButton,instr_done_touch.midButton,instr_done_touch.rightButton,start_instr.thisRepN,start_instr.thisTrialN,start_instr.thisN,start_instr.thisIndex,start_instr.ran,pageN,phase,instruct_text,has_image,instruct_image,showProgress.started,showProgress.stopped,fix.started,fix.stopped,prac.started,prac.stopped,response.keys,response.corr,response.rt,response.duration,touch_resp.x,touch_resp.y,touch_resp.leftButton,touch_resp.midButton,touch_resp.rightButton,touch_resp.time,touch_resp.clicked_name,rt,corr,feedback.started,feedback.stopped,trials.thisRepN,trials.thisTrialN,trials.thisN,trials.thisIndex,trials.ran,TrialID,StimulusType,Condition,PrimeDuration,Prime,Target,corrAns,Instructions_expt.started,Instructions_expt.stopped,key_resp_3.keys,key_resp_3.rt,key_resp_3.duration,instr_done_touch_3.x,instr_done_touch_3.y,instr_done_touch_3.leftButton,instr_done_touch_3.midButton,instr_done_touch_3.rightButton,instr_experiment.thisRepN,instr_experiment.thisTrialN,instr_experiment.thisN,instr_experiment.thisIndex,instr_experiment.ran,trialID,flag,maintask.started,maintask.stopped,key_resp_2.keys,key_resp_2.corr,key_resp_2.rt,key_resp_2.duration,targ_click.x,targ_click.y,targ_click.leftButton,targ_click.midButton,targ_click.rightButton,targ_click.time,targ_click.clicked_name,ITI.started,ITI.stopped,probe.started,probe.stopped,click_probe.x,click_probe.y,click_probe.leftButton,click_probe.midButton,click_probe.rightButton,click_probe.time,click_probe.clicked_name,key_resp_probe.keys,Break.started,Break.stopped,break_done_touch.x,break_done_touch.y,break_done_touch.leftButton,break_done_touch.midButton,break_done_touch.rightButton,break_done_keyboard.keys,list2_trials.thisRepN,list2_trials.thisTrialN,list2_trials.thisN,list2_trials.thisIndex,list2_trials.ran,list_id,item_type,string,font,stim_file,key_resp_probe.rt,key_resp_probe.duration,break_done_keyboard.rt,break_done_keyboard.duration,End.started,End.stopped
list2,,0.5269,0.5271,30655,001,2025-11-06_18h35.05.182,HW_LDT_1,2024.2.4,Win32,60.24096386,,,,,,,,,,,,,,,,,,,,,,,,,,,,,,,,,,,,,,,,,,,,,,,,,,,,,,,,,,,,,,,,,,,,,,,,,,,,,,,,,,,,,,,,,,,,,,,,,,,,,,,,,,,,,,,,,,,,,,,
,,,,30655,001,2025-11-06_18h35.05.182,HW_LDT_1,2024.2.4,Win32,60.24096386,0.5516,24.156,space,23.5457,,-0.028272377,-0.141049672,0,0,0,0,0,0,0,1,1,instructions,"INSTRUCTIONS
At the start of each trial, look at the plus sign  (+) in the center of the screen.  This tells you that a trial is about to begin and where to look. Second, the plus sign will disappear and a string of letters will appear. Your task is to determine if the string of letters is a word or not. If the item is a word press the M key (on keyboard)  or touch the word button (phone/tablet).  If the item is not a word,  press the  Z key (on keyboard)  or touch the nonword button (on phone/tablet). The items will be presented for a short time. 
Press the space bar or touch  continue.",0,,,,,,,,,,,,,,,,,,,,,,,,,,,,,,,,,,,,,,,,,,,,,,,,,,,,,,,,,,,,,,,,,,,,,,,,,,,,,,,,,,,,,,,,,,,,,,,,,,,,
,,,,30655,001,2025-11-06_18h35.05.182,HW_LDT_1,2024.2.4,Win32,60.24096386,24.1597,28.2049,space,4.0195,,-0.028272377,-0.141049672,0,0,0,0,1,1,1,1,2,instructions,"If your device has a keyboard, press the 'Z' key for nonwords and the 'M' key for words.





Press the space bar or touch the button below to continue.",0,keyboard-example.gif,,,,,,,,,,,,,,,,,,,,,,,,,,,,,,,,,,,,,,,,,,,,,,,,,,,,,,,,,,,,,,,,,,,,,,,,,,,,,,,,,,,,,,,,,,,,,,,,,,,
,,,,30655,001,2025-11-06_18h35.05.182,HW_LDT_1,2024.2.4,Win32,60.24096386,28.2082,29.2721,space,1.0356,,-0.028272377,-0.141049672,0,0,0,0,2,2,2,1,3,instructions,"If you are using a touchscreen only device, use the buttons on the screen. Do not use the mouse.





Press the space bar or touch the button below to continue.",0,touchscreen-example.gif,,,,,,,,,,,,,,,,,,,,,,,,,,,,,,,,,,,,,,,,,,,,,,,,,,,,,,,,,,,,,,,,,,,,,,,,,,,,,,,,,,,,,,,,,,,,,,,,,,,
,,,,30655,001,2025-11-06_18h35.05.182,HW_LDT_1,2024.2.4,Win32,60.24096386,29.2757,31.7714,space,2.4742,,-0.028272377,-0.141049672,0,0,0,0,3,3,3,1,4,instructions,"It is very important that you respond as quickly and accurately as possible, as each letter string will only be on the screen for two seconds. If you do not respond within this time, the message 'Too slow!' will be displayed and the experiment will progress to the next letter string. The first 20 trials will be practice trials and you will receive feedback on your answers. 

Press the space bar or touch the button below to start the practice trials.",0,,,,,,,,,,,,,,,,,,,,,,,,,,,,,,,,,,,,,,,,,,,,,,,,,,,,,,,,,,,,,,,,,,,,,,,,,,,,,,,,,,,,,,,,,,,,,,,,,,,,
,,,,30655,001,2025-11-06_18h35.05.182,HW_LDT_1,2024.2.4,Win32,60.24096386,,,,,,,,,,,,,,,,,,,,,31.8087,31.9713,31.9717,32.4712,32.4717,33.4826,z,1,0.9817,,[],[],[],[],[],[],[],0.9817,1,33.4832,33.9712,0,0,0,9,1,1010,NW,"ID",33,fariny,FARINY,z,,,,,,,,,,,,,,,,,,,,,,,,,,,,,,,,,,,,,,,,,,,,,,,,,,,,,,,,,,,,,,,,,,
,,,,30655,001,2025-11-06_18h35.05.182,HW_LDT_1,2024.2.4,Win32,60.24096386,,,,,,,,,,,,,,,,,,,,,33.9725,34.1719,34.172,34.6709,34.6748,35.4042,m,0,0.7068,,[],[],[],[],[],[],[],0.7068,0,35.4055,35.9037,0,1,1,13,1,1014,NW,UN,33,winfer,ROUPET,z,,,,,,,,,,,,,,,,,,,,,,,,,,,,,,,,,,,,,,,,,,,,,,,,,,,,,,,,,,,,,,,,,,
,,,,30655,001,2025-11-06_18h35.05.182,HW_LDT_1,2024.2.4,Win32,60.24096386,,,,,,,,,,,,,,,,,,,,,35.9053,36.1039,36.104,36.6042,36.6063,37.2626,m,1,0.6387,,[],[],[],[],[],[],[],0.6387,1,37.264,37.7545,0,2,2,5,1,1006,WORD,UN,33,frenzy,OBTAIN,m,,,,,,,,,,,,,,,,,,,,,,,,,,,,,,,,,,,,,,,,,,,,,,,,,,,,,,,,,,,,,,,,,,
,,,,30655,001,2025-11-06_18h35.05.182,HW_LDT_1,2024.2.4,Win32,60.24096386,,,,,,,,,,,,,,,,,,,,,37.7581,37.9549,37.9551,38.4547,38.4564,39.0284,m,1,0.549,,[],[],[],[],[],[],[],0.549,1,39.0285,39.5209,0,3,3,6,1,1007,WORD,UN,16,tropic,ZOMBIE,m,,,,,,,,,,,,,,,,,,,,,,,,,,,,,,,,,,,,,,,,,,,,,,,,,,,,,,,,,,,,,,,,,,
,,,,30655,001,2025-11-06_18h35.05.182,HW_LDT_1,2024.2.4,Win32,60.24096386,,,,,,,,,,,,,,,,,,,,,39.5238,39.7206,39.7208,40.2205,40.2234,40.9643,z,1,0.7168,,[],[],[],[],[],[],[],0.7168,1,40.9645,41.4552,0,4,4,8,1,1009,NW,"ID",33,aslert,ASLERT,z,,,,,,,,,,,,,,,,,,,,,,,,,,,,,,,,,,,,,,,,,,,,,,,,,,,,,,,,,,,,,,,,,,
,,,,30655,001,2025-11-06_18h35.05.182,HW_LDT_1,2024.2.4,Win32,60.24096386,,,,,,,,,,,,,,,,,,,,,41.4573,41.654,41.6541,42.163,42.1657,42.8467,m,0,0.6664,,[],[],[],[],[],[],[],0.6664,0,42.848,43.347,0,5,5,10,1,1011,NW,"ID",16,inlade,INLADE,z,,,,,,,,,,,,,,,,,,,,,,,,,,,,,,,,,,,,,,,,,,,,,,,,,,,,,,,,,,,,,,,,,,
,,,,30655,001,2025-11-06_18h35.05.182,HW_LDT_1,2024.2.4,Win32,60.24096386,,,,,,,,,,,,,,,,,,,,,43.3494,43.5385,43.5388,44.0384,44.041,45.0544,z,1,0.9898,,[],[],[],[],[],[],[],0.9898,1,45.0558,45.5549,0,6,6,15,1,1016,NW,UN,16,mushed,WHAISE,z,,,,,,,,,,,,,,,,,,,,,,,,,,,,,,,,,,,,,,,,,,,,,,,,,,,,,,,,,,,,,,,,,,
,,,,30655,001,2025-11-06_18h35.05.182,HW_LDT_1,2024.2.4,Win32,60.24096386,,,,,,,,,,,,,,,,,,,,,45.5586,45.7455,45.7456,46.2546,46.2574,46.9043,m,1,0.6245,,[],[],[],[],[],[],[],0.6245,1,46.9046,47.4045,0,7,7,3,1,1004,WORD,"ID",16,matrix,MATRIX,m,,,,,,,,,,,,,,,,,,,,,,,,,,,,,,,,,,,,,,,,,,,,,,,,,,,,,,,,,,,,,,,,,,
,,,,30655,001,2025-11-06_18h35.05.182,HW_LDT_1,2024.2.4,Win32,60.24096386,,,,,,,,,,,,,,,,,,,,,47.4072,47.6036,47.6037,48.1037,48.1054,48.8415,m,1,0.711,,[],[],[],[],[],[],[],0.711,1,48.8416,49.3389,0,8,8,2,1,1003,WORD,"ID",16,almond,ALMOND,m,,,,,,,,,,,,,,,,,,,,,,,,,,,,,,,,,,,,,,,,,,,,,,,,,,,,,,,,,,,,,,,,,,
,,,,30655,001,2025-11-06_18h35.05.182,HW_LDT_1,2024.2.4,Win32,60.24096386,,,,,,,,,,,,,,,,,,,,,49.3417,49.5378,49.5379,50.0445,50.0463,50.7297,m,1,0.667,,[],[],[],[],[],[],[],0.667,1,50.7298,51.2207,0,9,9,0,1,1001,WORD,"ID",33,utopia,UTOPIA,m,,,,,,,,,,,,,,,,,,,,,,,,,,,,,,,,,,,,,,,,,,,,,,,,,,,,,,,,,,,,,,,,,,
,,,,30655,001,2025-11-06_18h35.05.182,HW_LDT_1,2024.2.4,Win32,60.24096386,,,,,,,,,,,,,,,,,,,,,51.2237,51.4207,51.4208,51.9203,51.9229,52.625,m,1,0.6779,,[],[],[],[],[],[],[],0.6779,1,52.6252,53.1207,0,10,10,4,1,1005,WORD,UN,33,abound,SQUEAK,m,,,,,,,,,,,,,,,,,,,,,,,,,,,,,,,,,,,,,,,,,,,,,,,,,,,,,,,,,,,,,,,,,,
,,,,30655,001,2025-11-06_18h35.05.182,HW_LDT_1,2024.2.4,Win32,60.24096386,,,,,,,,,,,,,,,,,,,,,53.1234,53.3203,53.3203,53.8208,53.8228,54.9409,z,1,1.0937,,[],[],[],[],[],[],[],1.0937,1,54.941,55.4376,0,11,11,12,1,1013,NW,UN,33,adveil,SPRINY,z,,,,,,,,,,,,,,,,,,,,,,,,,,,,,,,,,,,,,,,,,,,,,,,,,,,,,,,,,,,,,,,,,,
,,,,30655,001,2025-11-06_18h35.05.182,HW_LDT_1,2024.2.4,Win32,60.24096386,,,,,,,,,,,,,,,,,,,,,55.44,55.6373,55.6374,56.1376,56.1396,57.114,z,1,0.9517,,[],[],[],[],[],[],[],0.9517,1,57.1142,57.604,0,12,12,11,1,1012,NW,"ID",16,rashet,RASHET,z,,,,,,,,,,,,,,,,,,,,,,,,,,,,,,,,,,,,,,,,,,,,,,,,,,,,,,,,,,,,,,,,,,
,,,,30655,001,2025-11-06_18h35.05.182,HW_LDT_1,2024.2.4,Win32,60.24096386,,,,,,,,,,,,,,,,,,,,,57.606,57.8045,57.8047,58.3091,58.3113,58.854,m,1,0.5214,,[],[],[],[],[],[],[],0.5214,1,58.8542,59.3535,0,13,13,1,1,1002,WORD,"ID",33,adjust,ADJUST,m,,,,,,,,,,,,,,,,,,,,,,,,,,,,,,,,,,,,,,,,,,,,,,,,,,,,,,,,,,,,,,,,,,
,,,,30655,001,2025-11-06_18h35.05.182,HW_LDT_1,2024.2.4,Win32,60.24096386,,,,,,,,,,,,,,,,,,,,,59.3555,59.554,59.5541,60.0628,60.0651,60.5914,m,1,0.5117,,[],[],[],[],[],[],[],0.5117,1,60.5915,61.0878,0,14,14,7,1,1008,WORD,UN,16,hurdle,VOLUME,m,,,,,,,,,,,,,,,,,,,,,,,,,,,,,,,,,,,,,,,,,,,,,,,,,,,,,,,,,,,,,,,,,,
,,,,30655,001,2025-11-06_18h35.05.182,HW_LDT_1,2024.2.4,Win32,60.24096386,,,,,,,,,,,,,,,,,,,,,61.0909,61.2963,61.2963,61.7794,61.781,62.4973,z,1,0.701,,[],[],[],[],[],[],[],0.701,1,62.4977,62.9905,0,15,15,14,1,1015,NW,UN,16,miaber,THRALE,z,,,,,,,,,,,,,,,,,,,,,,,,,,,,,,,,,,,,,,,,,,,,,,,,,,,,,,,,,,,,,,,,,,
,,,,30655,001,2025-11-06_18h35.05.182,HW_LDT_1,2024.2.4,Win32,60.24096386,,,,,,,,,,,,,,,,1,end_of_practice,"You have completed the practice trials. During the experimental trials, you will not receive feedback. On some trials you will be asked to report whether the item you just saw was in cursive or print. 
Before you begin, please ensure that you are in a comfortable and quiet location and will not be disturbed for about 15 minutes, as we cannot use your data if you do not complete all the trials. 
 When you are ready to start the experimental trials, please press space or touch the button below.",,,,,,,,,,,,,,,,,,,,,,,,,,,,,,,,,,,,63.001,64.7056,space,1.6782,,-0.028272377,-0.141049672,0,0,0,0,0,0,0,1,,,,,,,,,,,,,,,,,,,,,,,,,,,,,,,,,,,,,,,,,,,,,,,,,,,
,,,,30655,001,2025-11-06_18h35.05.182,HW_LDT_1,2024.2.4,Win32,60.24096386,,,,,,,,,,,,,,,,,,,,,64.7292,64.9052,64.9055,65.4064,,,,,,,,,,,,,,1.4855,0,,,,,,,,,,,,,,m,,,,,,,,,,,,,,,,1,0,65.4085,66.8988,z,0,1.4855,,[],[],[],[],[],[],[],66.8994,68.8887,68.8892,68.8944,[],[],[],[],[],[],[],,68.8946,68.8998,-0.028272377,-0.141049672,0,0,0,,0,0,0,113,1,2,word,LITERAL,cursive,literal_c.png,,,,,,
,,,,30655,001,2025-11-06_18h35.05.182,HW_LDT_1,2024.2.4,Win32,60.24096386,,,,,,,,,,,,,,,,,,,,,68.9008,69.0893,69.0894,69.5876,,,,,,,,,,,,,,1.4426,1,,,,,,,,,,,,,,z,,,,,,,,,,,,,,,,2,0,69.5885,71.0379,z,1,1.4426,,[],[],[],[],[],[],[],71.038,73.0388,73.039,73.0396,[],[],[],[],[],[],[],,73.0397,73.0399,-0.028272377,-0.141049672,0,0,0,,0,1,1,58,1,2,TL,mitilary,cursive,mitilary_c.png,,,,,,
,,,,30655,001,2025-11-06_18h35.05.182,HW_LDT_1,2024.2.4,Win32,60.24096386,,,,,,,,,,,,,,,,,,,,,73.0421,73.2373,73.2373,73.7383,,,,,,,,,,,,,,0.8595,1,,,,,,,,,,,,,,m,,,,,,,,,,,,,,,,3,0,73.7393,74.605,m,1,0.8595,,[],[],[],[],[],[],[],74.6052,76.6043,76.6043,76.6047,[],[],[],[],[],[],[],,76.6047,76.6048,-0.028272377,-0.141049672,0,0,0,,0,2,2,90,1,2,word,CAPITAL,cursive,capital_c.png,,,,,,
,,,,30655,001,2025-11-06_18h35.05.182,HW_LDT_1,2024.2.4,Win32,60.24096386,,,,,,,,,,,,,,,,,,,,,76.6066,76.8048,76.8049,77.3063,,,,,,,,,,,,,,0.7579,1,,,,,,,,,,,,,,m,,,,,,,,,,,,,,,,4,0,77.3076,78.0725,m,1,0.7579,,[],[],[],[],[],[],[],78.0728,80.0714,80.0715,80.072,[],[],[],[],[],[],[],,80.0721,80.0723,-0.028272377,-0.141049672,0,0,0,,0,3,3,100,1,2,word,DECADE,print,decade_p.png,,,,,,
,,,,30655,001,2025-11-06_18h35.05.182,HW_LDT_1,2024.2.4,Win32,60.24096386,,,,,,,,,,,,,,,,,,,,,80.0739,80.2718,80.2719,80.7707,,,,,,,,,,,,,,0.7762,1,,,,,,,,,,,,,,z,,,,,,,,,,,,,,,,5,0,80.7715,81.5558,z,1,0.7762,,[],[],[],[],[],[],[],81.5559,83.5551,83.5552,83.5555,[],[],[],[],[],[],[],,83.5557,83.5558,-0.028272377,-0.141049672,0,0,0,,0,4,4,15,1,2,RL,linedal,print,linedal_p.png,,,,,,
,,,,30655,001,2025-11-06_18h35.05.182,HW_LDT_1,2024.2.4,Win32,60.24096386,,,,,,,,,,,,,,,,,,,,,83.5575,83.7554,83.7555,84.2548,,,,,,,,,,,,,,1.3147,1,,,,,,,,,,,,,,m,,,,,,,,,,,,,,,,6,0,84.2557,85.5723,m,1,1.3147,,[],[],[],[],[],[],[],85.5725,87.5697,87.5698,87.5701,[],[],[],[],[],[],[],,87.5702,87.5702,-0.028272377,-0.141049672,0,0,0,,0,5,5,103,1,2,word,DISPUTE,cursive,dispute_c.png,,,,,,
,,,,30655,001,2025-11-06_18h35.05.182,HW_LDT_1,2024.2.4,Win32,60.24096386,,,,,,,,,,,,,,,,,,,,,87.5721,87.7701,87.7701,88.2698,,,,,,,,,,,,,,0.9831,0,,,,,,,,,,,,,,m,,,,,,,,,,,,,,,,7,0,88.2704,89.2546,z,0,0.9831,,[],[],[],[],[],[],[],89.2547,91.2535,91.2537,91.2544,[],[],[],[],[],[],[],,91.2544,91.2546,-0.028272377,-0.141049672,0,0,0,,0,6,6,120,1,2,word,MILITARY,cursive,military_c.png,,,,,,
,,,,30655,001,2025-11-06_18h35.05.182,HW_LDT_1,2024.2.4,Win32,60.24096386,,,,,,,,,,,,,,,,,,,,,91.2562,91.4543,91.4544,91.9549,,,,,,,,,,,,,,1.3132,1,,,,,,,,,,,,,,m,,,,,,,,,,,,,,,,8,0,91.9559,93.2707,m,1,1.3132,,[],[],[],[],[],[],[],93.2709,95.2703,95.2705,95.2707,[],[],[],[],[],[],[],,95.2708,95.271,-0.028272377,-0.141049672,0,0,0,,0,7,7,124,1,2,word,NUMERICAL,cursive,numerical_c.png,,,,,,
,,,,30655,001,2025-11-06_18h35.05.182,HW_LDT_1,2024.2.4,Win32,60.24096386,,,,,,,,,,,,,,,,,,,,,95.2732,95.4704,95.4705,95.9698,,,,,,,,,,,,,,0.5994,1,,,,,,,,,,,,,,m,,,,,,,,,,,,,,,,9,0,95.9703,96.5708,m,1,0.5994,,[],[],[],[],[],[],[],96.5709,98.5705,98.5706,98.5712,[],[],[],[],[],[],[],,98.5712,98.5715,-0.028272377,-0.141049672,0,0,0,,0,8,8,110,1,2,word,HERITAGE,print,heritage_p.png,,,,,,
,,,,30655,001,2025-11-06_18h35.05.182,HW_LDT_1,2024.2.4,Win32,60.24096386,,,,,,,,,,,,,,,,,,,,,98.5734,98.7708,98.7709,99.2705,,,,,,,,,,,,,,1.08,0,,,,,,,,,,,,,,z,,,,,,,,,,,,,,,,10,0,99.2716,100.3543,m,0,1.08,,[],[],[],[],[],[],[],100.3545,102.3553,102.3554,102.3561,[],[],[],[],[],[],[],,102.3562,102.3563,-0.028272377,-0.141049672,0,0,0,,0,9,9,27,1,2,RL,repifion,cursive,repifion_c.png,,,,,,
,,,,30655,001,2025-11-06_18h35.05.182,HW_LDT_1,2024.2.4,Win32,60.24096386,,,,,,,,,,,,,,,,,,,,,102.3577,102.5534,102.5535,103.0535,,,,,,,,,,,,,,1.0979,0,,,,,,,,,,,,,,m,,,,,,,,,,,,,,,,11,0,103.0543,104.154,z,0,1.0979,,[],[],[],[],[],[],[],104.1541,106.1547,106.1549,106.1556,[],[],[],[],[],[],[],,106.1557,106.156,-0.028272377,-0.141049672,0,0,0,,0,10,10,116,1,2,word,MARGINAL,cursive,marginal_c.png,,,,,,
,,,,30655,001,2025-11-06_18h35.05.182,HW_LDT_1,2024.2.4,Win32,60.24096386,,,,,,,,,,,,,,,,,,,,,106.1578,106.3541,106.3542,106.8539,,,,,,,,,,,,,,0.8253,1,,,,,,,,,,,,,,m,,,,,,,,,,,,,,,,12,0,106.8549,107.6876,m,1,0.8253,,[],[],[],[],[],[],[],107.6879,109.6876,109.6878,109.6881,[],[],[],[],[],[],[],,109.6883,109.6883,-0.028272377,-0.141049672,0,0,0,,0,11,11,91,1,2,word,CARDINAL,cursive,cardinal_c.png,,,,,,
,,,,30655,001,2025-11-06_18h35.05.182,HW_LDT_1,2024.2.4,Win32,60.24096386,,,,,,,,,,,,,,,,,,,,,109.6902,109.887,109.887,110.3868,,,,,,,,,,,,,,0.7596,1,,,,,,,,,,,,,,z,,,,,,,,,,,,,,,,13,0,110.3878,111.1545,z,1,0.7596,,[],[],[],[],[],[],[],111.1546,113.1544,113.1545,113.1548,[],[],[],[],[],[],[],,113.1548,113.1551,-0.028272377,-0.141049672,0,0,0,,0,12,12,47,1,2,TL,crinimal,cursive,crinimal_c.png,,,,,,
,,,,30655,001,2025-11-06_18h35.05.182,HW_LDT_1,2024.2.4,Win32,60.24096386,,,,,,,,,,,,,,,,,,,,,113.1569,113.3543,113.3545,113.8535,,,,,,,,,,,,,,0.7414,1,,,,,,,,,,,,,,m,,,,,,,,,,,,,,,,14,0,113.8551,114.6043,m,1,0.7414,,[],[],[],[],[],[],[],114.6044,116.6032,116.6033,116.6038,[],[],[],[],[],[],[],,116.6038,116.6042,-0.028272377,-0.141049672,0,0,0,,0,13,13,154,1,2,word,STORAGE,print,storage_p.png,,,,,,
,,,,30655,001,2025-11-06_18h35.05.182,HW_LDT_1,2024.2.4,Win32,60.24096386,,,,,,,,,,,,,,,,,,,,,116.6065,116.8043,116.8046,117.3049,,,,,,,,,,,,,,0.6567,1,,,,,,,,,,,,,,z,,,,,,,,,,,,,,,,15,0,117.3056,117.9697,z,1,0.6567,,[],[],[],[],[],[],[],117.9699,119.9708,119.971,119.9716,[],[],[],[],[],[],[],,119.9717,119.9718,-0.028272377,-0.141049672,0,0,0,,0,14,14,21,1,2,RL,pamest,print,pamest_p.png,,,,,,
,,,,30655,001,2025-11-06_18h35.05.182,HW_LDT_1,2024.2.4,Win32,60.24096386,,,,,,,,,,,,,,,,,,,,,119.9734,120.1705,120.1706,120.6709,,,,,,,,,,,,,,0.7233,1,,,,,,,,,,,,,,z,,,,,,,,,,,,,,,,16,0,120.6718,121.4033,z,1,0.7233,,[],[],[],[],[],[],[],121.4033,123.4034,123.4036,123.4038,[],[],[],[],[],[],[],,123.4039,123.404,-0.028272377,-0.141049672,0,0,0,,0,15,15,17,1,2,RL,macise,cursive,macise_c.png,,,,,,
,,,,30655,001,2025-11-06_18h35.05.182,HW_LDT_1,2024.2.4,Win32,60.24096386,,,,,,,,,,,,,,,,,,,,,123.4053,123.6033,123.6035,124.1041,,,,,,,,,,,,,,0.6417,1,,,,,,,,,,,,,,m,,,,,,,,,,,,,,,,17,0,124.105,124.754,m,1,0.6417,,[],[],[],[],[],[],[],124.754,126.7536,126.7538,126.754,[],[],[],[],[],[],[],,126.7541,126.7542,-0.028272377,-0.141049672,0,0,0,,0,16,16,88,1,2,word,CAMERA,print,camera_p.png,,,,,,
,,,,30655,001,2025-11-06_18h35.05.182,HW_LDT_1,2024.2.4,Win32,60.24096386,,,,,,,,,,,,,,,,,,,,,126.756,126.954,126.9545,127.4527,,,,,,,,,,,,,,0.5599,1,,,,,,,,,,,,,,m,,,,,,,,,,,,,,,,18,0,127.4532,128.0197,m,1,0.5599,,[],[],[],[],[],[],[],128.0197,130.021,130.0211,130.0213,[],[],[],[],[],[],[],,130.0214,130.0216,-0.028272377,-0.141049672,0,0,0,,0,17,17,127,1,2,word,ORIGINAL,print,original_p.png,,,,,,
,,,,30655,001,2025-11-06_18h35.05.182,HW_LDT_1,2024.2.4,Win32,60.24096386,,,,,,,,,,,,,,,,,,,,,130.023,130.2205,130.2205,130.7197,,,,,,,,,,,,,,0.5764,1,,,,,,,,,,,,,,m,,,,,,,,,,,,,,,,19,0,130.7205,131.3032,m,1,0.5764,,[],[],[],[],[],[],[],131.3033,133.3032,133.3034,133.3037,[],[],[],[],[],[],[],,133.3037,133.3041,-0.028272377,-0.141049672,0,0,0,,0,18,18,92,1,2,word,CATEGORY,print,category_p.png,,,,,,
,,,,30655,001,2025-11-06_18h35.05.182,HW_LDT_1,2024.2.4,Win32,60.24096386,,,,,,,,,,,,,,,,,,,,,133.3059,133.5033,133.5035,134.0028,,,,,,,,,,,,,,0.7774,1,,,,,,,,,,,,,,z,,,,,,,,,,,,,,,,20,0,134.0035,134.7876,z,1,0.7774,,[],[],[],[],[],[],[],134.7878,136.7865,136.7867,136.7872,[],[],[],[],[],[],[],,136.7873,136.7874,-0.028272377,-0.141049672,0,0,0,,0,19,19,1,1,2,RL,caleberia,print,caleberia_p.png,,,,,,
,,,,30655,001,2025-11-06_18h35.05.182,HW_LDT_1,2024.2.4,Win32,60.24096386,,,,,,,,,,,,,,,,,,,,,136.7889,136.9866,136.9867,137.4864,,,,,,,,,,,,,,0.8104,1,,,,,,,,,,,,,,m,,,,,,,,,,,,,,,,21,0,137.4872,138.3032,m,1,0.8104,,[],[],[],[],[],[],[],138.3033,140.3031,140.3032,140.3036,[],[],[],[],[],[],[],,140.3036,140.3038,-0.028272377,-0.141049672,0,0,0,,0,20,20,87,1,2,word,CAFETERIA,print,cafeteria_p.png,,,,,,
,,,,30655,001,2025-11-06_18h35.05.182,HW_LDT_1,2024.2.4,Win32,60.24096386,,,,,,,,,,,,,,,,,,,,,140.3054,140.5039,140.5041,141.0027,,,,,,,,,,,,,,0.61,0,,,,,,,,,,,,,,m,,,,,,,,,,,,,,,,22,1,141.0034,141.6196,z,0,0.61,,[],[],[],[],[],[],[],141.6198,143.6209,143.621,148.804,[],[],[],[],[],[],[],z,148.8041,148.8043,-0.028272377,-0.141049672,0,0,0,,0,21,21,105,1,2,word,EDITOR,cursive,editor_c.png,5.1754,,,,,
,,,,30655,001,2025-11-06_18h35.05.182,HW_LDT_1,2024.2.4,Win32,60.24096386,,,,,,,,,,,,,,,,,,,,,148.8061,149.0042,149.0043,149.5032,,,,,,,,,,,,,,1.559,1,,,,,,,,,,,,,,z,,,,,,,,,,,,,,,,23,0,149.5039,151.071,z,1,1.559,,[],[],[],[],[],[],[],151.0714,153.0702,153.0703,153.0706,[],[],[],[],[],[],[],,153.0707,153.0708,-0.028272377,-0.141049672,0,0,0,,0,22,22,68,1,2,TL,quatily,cursive,quatily_c.png,,,,,,
,,,,30655,001,2025-11-06_18h35.05.182,HW_LDT_1,2024.2.4,Win32,60.24096386,,,,,,,,,,,,,,,,,,,,,153.0729,153.2701,153.2703,153.7694,,,,,,,,,,,,,,0.8094,1,,,,,,,,,,,,,,z,,,,,,,,,,,,,,,,24,0,153.7702,154.5872,z,1,0.8094,,[],[],[],[],[],[],[],154.5873,156.586,156.5861,156.5865,[],[],[],[],[],[],[],,156.5867,156.5869,-0.028272377,-0.141049672,0,0,0,,0,23,23,5,1,2,RL,clisimal,cursive,clisimal_c.png,,,,,,
,,,,30655,001,2025-11-06_18h35.05.182,HW_LDT_1,2024.2.4,Win32,60.24096386,,,,,,,,,,,,,,,,,,,,,156.5889,156.7859,156.7859,157.2869,,,,,,,,,,,,,,0.6791,1,,,,,,,,,,,,,,m,,,,,,,,,,,,,,,,25,0,157.2878,157.9689,m,1,0.6791,,[],[],[],[],[],[],[],157.969,159.9698,159.9698,159.9702,[],[],[],[],[],[],[],,159.9703,159.9704,-0.028272377,-0.141049672,0,0,0,,0,24,24,147,1,2,word,ROMANTIC,print,romantic_p.png,,,,,,
,,,,30655,001,2025-11-06_18h35.05.182,HW_LDT_1,2024.2.4,Win32,60.24096386,,,,,,,,,,,,,,,,,,,,,159.9722,160.1703,160.1703,160.6704,,,,,,,,,,,,,,0.7266,1,,,,,,,,,,,,,,m,,,,,,,,,,,,,,,,26,0,160.6711,161.4034,m,1,0.7266,,[],[],[],[],[],[],[],161.4035,163.4026,163.4028,163.4032,[],[],[],[],[],[],[],,163.4033,163.4036,-0.028272377,-0.141049672,0,0,0,,0,25,25,152,1,2,word,SPECIMEN,print,specimen_p.png,,,,,,
,,,,30655,001,2025-11-06_18h35.05.182,HW_LDT_1,2024.2.4,Win32,60.24096386,,,,,,,,,,,,,,,,,,,,,163.4059,163.6038,163.6038,164.1036,,,,,,,,,,,,,,0.8591,1,,,,,,,,,,,,,,z,,,,,,,,,,,,,,,,27,0,164.1043,164.97,z,1,0.8591,,[],[],[],[],[],[],[],164.9702,166.9701,166.9702,166.9706,[],[],[],[],[],[],[],,166.9707,166.9708,-0.028272377,-0.141049672,0,0,0,,0,26,26,10,1,2,RL,disluge,cursive,disluge_c.png,,,,,,
,,,,30655,001,2025-11-06_18h35.05.182,HW_LDT_1,2024.2.4,Win32,60.24096386,,,,,,,,,,,,,,,,,,,,,166.9726,167.169,167.1692,167.6702,,,,,,,,,,,,,,0.7798,1,,,,,,,,,,,,,,m,,,,,,,,,,,,,,,,28,0,167.671,168.4532,m,1,0.7798,,[],[],[],[],[],[],[],168.4534,170.4526,170.4528,170.453,[],[],[],[],[],[],[],,170.453,170.4532,-0.028272377,-0.141049672,0,0,0,,0,27,27,86,1,2,word,BESIDE,cursive,beside_c.png,,,,,,
,,,,30655,001,2025-11-06_18h35.05.182,HW_LDT_1,2024.2.4,Win32,60.24096386,,,,,,,,,,,,,,,,,,,,,170.4552,170.6524,170.6525,171.1538,,,,,,,,,,,,,,0.5765,0,,,,,,,,,,,,,,m,,,,,,,,,,,,,,,,29,1,171.1545,171.737,z,0,0.5765,,[],[],[],[],[],[],[],171.7372,173.7367,173.7368,175.5027,[],[],[],[],[],[],[],z,175.503,175.5031,-0.028272377,-0.141049672,0,0,0,,0,28,28,85,1,2,word,BENEFIT,cursive,benefit_c.png,1.7597,,,,,
,,,,30655,001,2025-11-06_18h35.05.182,HW_LDT_1,2024.2.4,Win32,60.24096386,,,,,,,,,,,,,,,,,,,,,175.5048,175.7026,175.7027,176.2031,,,,,,,,,,,,,,0.8088,1,,,,,,,,,,,,,,m,,,,,,,,,,,,,,,,30,0,176.204,177.021,m,1,0.8088,,[],[],[],[],[],[],[],177.0214,179.0203,179.0204,179.0207,[],[],[],[],[],[],[],,179.0207,179.0208,-0.028272377,-0.141049672,0,0,0,,0,29,29,134,1,2,word,QUALIFY,cursive,qualify_c.png,,,,,,
,,,,30655,001,2025-11-06_18h35.05.182,HW_LDT_1,2024.2.4,Win32,60.24096386,,,,,,,,,,,,,,,,,,,,,179.0224,179.2196,179.2197,179.7205,,,,,,,,,,,,,,0.6572,1,,,,,,,,,,,,,,z,,,,,,,,,,,,,,,,31,0,179.7213,180.3862,z,1,0.6572,,[],[],[],[],[],[],[],180.3864,182.3867,182.3871,182.3874,[],[],[],[],[],[],[],,182.3874,182.3875,-0.028272377,-0.141049672,0,0,0,,0,30,30,38,1,2,TL,atameur,cursive,atameur_c.png,,,,,,
,,,,30655,001,2025-11-06_18h35.05.182,HW_LDT_1,2024.2.4,Win32,60.24096386,,,,,,,,,,,,,,,,,,,,,182.3895,182.5862,182.5863,183.0866,,,,,,,,,,,,,,0.7425,0,,,,,,,,,,,,,,m,,,,,,,,,,,,,,,,32,1,183.0876,183.836,z,0,0.7425,,[],[],[],[],[],[],[],183.8361,185.836,185.836,186.986,[],[],[],[],[],[],[],z,186.9861,186.9862,-0.028272377,-0.141049672,0,0,0,,0,31,31,121,1,2,word,MISTAKE,cursive,mistake_c.png,1.1434,,,,,
,,,,30655,001,2025-11-06_18h35.05.182,HW_LDT_1,2024.2.4,Win32,60.24096386,,,,,,,,,,,,,,,,,,,,,186.9881,187.1866,187.1866,187.6863,,,,,,,,,,,,,,1.2133,0,,,,,,,,,,,,,,m,,,,,,,,,,,,,,,,33,0,187.6878,188.9022,z,0,1.2133,,[],[],[],[],[],[],[],188.9022,190.9034,190.9035,190.9038,[],[],[],[],[],[],[],,190.9039,190.9039,-0.028272377,-0.141049672,0,0,0,,0,32,32,142,1,2,word,REMOTE,cursive,remote_c.png,,,,,,
,,,,30655,001,2025-11-06_18h35.05.182,HW_LDT_1,2024.2.4,Win32,60.24096386,,,,,,,,,,,,,,,,,,,,,190.9054,191.1023,191.1025,191.6042,,,,,,,,,,,,,,1.6206,1,,,,,,,,,,,,,,z,,,,,,,,,,,,,,,,34,0,191.6051,193.2271,z,1,1.6206,,[],[],[],[],[],[],[],193.2272,195.2268,195.2269,195.227,[],[],[],[],[],[],[],,195.227,195.2272,-0.028272377,-0.141049672,0,0,0,,0,33,33,7,1,2,RL,cocewage,cursive,cocewage_c.png,,,,,,
,,,,30655,001,2025-11-06_18h35.05.182,HW_LDT_1,2024.2.4,Win32,60.24096386,,,,,,,,,,,,,,,,,,,,,195.2287,195.4279,195.4281,195.9285,,,,,,,,,,,,,,0.6472,1,,,,,,,,,,,,,,m,,,,,,,,,,,,,,,,35,0,195.9297,196.5795,m,1,0.6472,,[],[],[],[],[],[],[],196.5797,198.5776,198.5776,198.5778,[],[],[],[],[],[],[],,198.5779,198.5783,-0.028272377,-0.141049672,0,0,0,,0,34,34,135,1,2,word,QUALITY,cursive,quality_c.png,,,,,,
,,,,30655,001,2025-11-06_18h35.05.182,HW_LDT_1,2024.2.4,Win32,60.24096386,,,,,,,,,,,,,,,,,,,,,198.5804,198.7777,198.7778,199.2779,,,,,,,,,,,,,,0.8478,1,,,,,,,,,,,,,,z,,,,,,,,,,,,,,,,36,0,199.2789,200.1286,z,1,0.8478,,[],[],[],[],[],[],[],200.1287,202.1279,202.128,202.1283,[],[],[],[],[],[],[],,202.1285,202.1287,-0.028272377,-0.141049672,0,0,0,,0,35,35,2,1,2,RL,casagity,print,casagity_p.png,,,,,,
,,,,30655,001,2025-11-06_18h35.05.182,HW_LDT_1,2024.2.4,Win32,60.24096386,,,,,,,,,,,,,,,,,,,,,202.1304,202.328,202.3281,202.828,,,,,,,,,,,,,,0.7312,1,,,,,,,,,,,,,,z,,,,,,,,,,,,,,,,37,0,202.8292,203.5618,z,1,0.7312,,[],[],[],[],[],[],[],203.5619,205.562,205.5621,205.5626,[],[],[],[],[],[],[],,205.5627,205.563,-0.028272377,-0.141049672,0,0,0,,0,36,36,11,1,2,RL,formuke,print,formuke_p.png,,,,,,
,,,,30655,001,2025-11-06_18h35.05.182,HW_LDT_1,2024.2.4,Win32,60.24096386,,,,,,,,,,,,,,,,,,,,,205.5645,205.7614,205.7614,206.261,,,,,,,,,,,,,,1.357,1,,,,,,,,,,,,,,z,,,,,,,,,,,,,,,,38,0,206.2621,207.6203,z,1,1.357,,[],[],[],[],[],[],[],207.6205,209.6109,209.611,209.6112,[],[],[],[],[],[],[],,209.6112,209.6113,-0.028272377,-0.141049672,0,0,0,,0,37,37,57,1,2,TL,meromy,cursive,meromy_c.png,,,,,,
,,,,30655,001,2025-11-06_18h35.05.182,HW_LDT_1,2024.2.4,Win32,60.24096386,,,,,,,,,,,,,,,,,,,,,209.6134,209.8029,209.803,210.3023,,,,,,,,,,,,,,0.8115,1,,,,,,,,,,,,,,z,,,,,,,,,,,,,,,,39,0,210.3035,211.1184,z,1,0.8115,,[],[],[],[],[],[],[],211.1187,213.1184,213.1185,213.119,[],[],[],[],[],[],[],,213.1191,213.1192,-0.028272377,-0.141049672,0,0,0,,0,38,38,32,1,2,RL,speniven,print,speniven_p.png,,,,,,
,,,,30655,001,2025-11-06_18h35.05.182,HW_LDT_1,2024.2.4,Win32,60.24096386,,,,,,,,,,,,,,,,,,,,,213.1209,213.3184,213.3185,213.8183,,,,,,,,,,,,,,0.7412,1,,,,,,,,,,,,,,z,,,,,,,,,,,,,,,,40,1,213.8193,214.5685,z,1,0.7412,,[],[],[],[],[],[],[],214.5686,216.5687,216.5688,217.9854,[],[],[],[],[],[],[],m,217.9855,217.9857,-0.028272377,-0.141049672,0,0,0,,0,39,39,77,1,2,TL,sloten,print,sloten_p.png,1.4108,,,,,
,,,,30655,001,2025-11-06_18h35.05.182,HW_LDT_1,2024.2.4,Win32,60.24096386,,,,,,,,,,,,,,,,,,,,,217.9874,218.1938,218.1939,218.6848,,,,,,,,,,,,,,0.8919,1,,,,,,,,,,,,,,m,,,,,,,,,,,,,,,,41,1,218.6856,219.585,m,1,0.8919,,[],[],[],[],[],[],[],219.5851,221.586,221.5861,223.1683,[],[],[],[],[],[],[],m,223.1685,223.1688,-0.028272377,-0.141049672,0,0,0,,0,40,40,143,1,2,word,REMOVAL,print,removal_p.png,1.5786,,,,,
,,,,30655,001,2025-11-06_18h35.05.182,HW_LDT_1,2024.2.4,Win32,60.24096386,,,,,,,,,,,,,,,,,,,,,223.1705,223.3582,223.3584,223.8684,,,,,,,,,,,,,,0.8086,1,,,,,,,,,,,,,,z,,,,,,,,,,,,,,,,42,1,223.8696,224.6856,z,1,0.8086,,[],[],[],[],[],[],[],224.686,226.6859,226.686,227.9357,[],[],[],[],[],[],[],m,227.9358,227.936,-0.028272377,-0.141049672,0,0,0,,0,41,41,9,1,2,RL,denficy,print,denficy_p.png,1.2415,,,,,
,,,,30655,001,2025-11-06_18h35.05.182,HW_LDT_1,2024.2.4,Win32,60.24096386,,,,,,,,,,,,,,,,,,,,,227.9386,228.1352,228.1354,228.6352,,,,,,,,,,,,,,0.7088,1,,,,,,,,,,,,,,m,,,,,,,,,,,,,,,,43,0,228.6364,229.3527,m,1,0.7088,,[],[],[],[],[],[],[],229.3529,231.3519,231.352,231.3523,[],[],[],[],[],[],[],,231.3523,231.3525,-0.028272377,-0.141049672,0,0,0,,0,42,42,122,1,2,word,MOBILE,print,mobile_p.png,,,,,,
,,,,30655,001,2025-11-06_18h35.05.182,HW_LDT_1,2024.2.4,Win32,60.24096386,,,,,,,,,,,,,,,,,,,,,231.3546,231.552,231.552,232.052,,,,,,,,,,,,,,0.6442,1,,,,,,,,,,,,,,m,,,,,,,,,,,,,,,,44,1,232.053,232.7015,m,1,0.6442,,[],[],[],[],[],[],[],232.7016,234.7018,234.7019,235.9191,[],[],[],[],[],[],[],m,235.9192,235.9194,-0.028272377,-0.141049672,0,0,0,,0,43,43,137,1,2,word,RAPIDLY,print,rapidly_p.png,1.2124,,,,,
,,,,30655,001,2025-11-06_18h35.05.182,HW_LDT_1,2024.2.4,Win32,60.24096386,,,,,,,,,,,,,,,,,,,,,235.9213,236.1186,236.1187,236.6177,,,,,,,,,,,,,,0.7086,1,,,,,,,,,,,,,,z,,,,,,,,,,,,,,,,45,0,236.6186,237.3353,z,1,0.7086,,[],[],[],[],[],[],[],237.3355,239.335,239.3351,239.3355,[],[],[],[],[],[],[],,239.3356,239.3356,-0.028272377,-0.141049672,0,0,0,,0,44,44,52,1,2,TL,elarobate,cursive,elarobate_c.png,,,,,,
,,,,30655,001,2025-11-06_18h35.05.182,HW_LDT_1,2024.2.4,Win32,60.24096386,,,,,,,,,,,,,,,,,,,,,239.3372,239.5348,239.5349,240.0354,,,,,,,,,,,,,,0.7227,0,,,,,,,,,,,,,,z,,,,,,,,,,,,,,,,46,0,240.037,240.769,m,0,0.7227,,[],[],[],[],[],[],[],240.769,242.769,242.769,242.7693,[],[],[],[],[],[],[],,242.7693,242.7694,-0.028272377,-0.141049672,0,0,0,,0,45,45,22,1,2,RL,posity,print,posity_p.png,,,,,,
,,,,30655,001,2025-11-06_18h35.05.182,HW_LDT_1,2024.2.4,Win32,60.24096386,,,,,,,,,,,,,,,,,,,,,242.7718,242.969,242.9691,243.4687,,,,,,,,,,,,,,1.03,1,,,,,,,,,,,,,,z,,,,,,,,,,,,,,,,47,0,243.4698,244.5011,z,1,1.03,,[],[],[],[],[],[],[],244.5012,246.5023,246.5024,246.5026,[],[],[],[],[],[],[],,246.5028,246.503,-0.028272377,-0.141049672,0,0,0,,0,46,46,42,1,2,TL,bedise,cursive,bedise_c.png,,,,,,
,,,,30655,001,2025-11-06_18h35.05.182,HW_LDT_1,2024.2.4,Win32,60.24096386,,,,,,,,,,,,,,,,,,,,,246.5051,246.7017,246.7018,247.2018,,,,,,,,,,,,,,0.6307,1,,,,,,,,,,,,,,m,,,,,,,,,,,,,,,,48,0,247.2028,247.8348,m,1,0.6307,,[],[],[],[],[],[],[],247.8349,249.8346,249.8347,249.8348,[],[],[],[],[],[],[],,249.8349,249.8351,-0.028272377,-0.141049672,0,0,0,,0,47,47,89,1,2,word,CAPACITY,print,capacity_p.png,,,,,,
,,,,30655,001,2025-11-06_18h35.05.182,HW_LDT_1,2024.2.4,Win32,60.24096386,,,,,,,,,,,,,,,,,,,,,249.8369,250.0349,250.035,250.535,,,,,,,,,,,,,,0.7933,1,,,,,,,,,,,,,,z,,,,,,,,,,,,,,,,49,0,250.5359,251.3351,z,1,0.7933,,[],[],[],[],[],[],[],251.3352,253.3343,253.3344,253.3346,[],[],[],[],[],[],[],,253.3347,253.3347,-0.028272377,-0.141049672,0,0,0,,0,48,48,8,1,2,RL,desifate,print,desifate_p.png,,,,,,
,,,,30655,001,2025-11-06_18h35.05.182,HW_LDT_1,2024.2.4,Win32,60.24096386,,,,,,,,,,,,,,,,,,,,,253.3362,253.5352,253.5353,254.0386,,,,,,,,,,,,,,1.4269,1,,,,,,,,,,,,,,m,,,,,,,,,,,,,,,,50,0,254.0391,255.468,m,1,1.4269,,[],[],[],[],[],[],[],255.4682,257.4689,257.469,257.4693,[],[],[],[],[],[],[],,257.4693,257.4695,-0.028272377,-0.141049672,0,0,0,,0,49,49,107,1,2,word,EVIDENT,cursive,evident_c.png,,,,,,
,,,,30655,001,2025-11-06_18h35.05.182,HW_LDT_1,2024.2.4,Win32,60.24096386,,,,,,,,,,,,,,,,,,,,,257.471,257.6689,257.669,258.1687,,,,,,,,,,,,,,0.7564,1,,,,,,,,,,,,,,z,,,,,,,,,,,,,,,,51,0,258.1697,258.9276,z,1,0.7564,,[],[],[],[],[],[],[],258.9278,260.9186,260.9187,260.9189,[],[],[],[],[],[],[],,260.919,260.9191,-0.028272377,-0.141049672,0,0,0,,0,50,50,49,1,2,TL,dedace,print,dedace_p.png,,,,,,
,,,,30655,001,2025-11-06_18h35.05.182,HW_LDT_1,2024.2.4,Win32,60.24096386,,,,,,,,,,,,,,,,,,,,,260.9213,261.1178,261.1178,261.6184,,,,,,,,,,,,,,0.845,1,,,,,,,,,,,,,,z,,,,,,,,,,,,,,,,52,1,261.6193,262.4677,z,1,0.845,,[],[],[],[],[],[],[],262.4679,264.4679,264.4679,266.0007,[],[],[],[],[],[],[],z,266.0008,266.0011,-0.028272377,-0.141049672,0,0,0,,0,51,51,54,1,2,TL,liretal,cursive,liretal_c.png,1.5255,,,,,
,,,,30655,001,2025-11-06_18h35.05.182,HW_LDT_1,2024.2.4,Win32,60.24096386,,,,,,,,,,,,,,,,,,,,,266.0029,266.2012,266.2012,266.7012,,,,,,,,,,,,,,1.0238,0,,,,,,,,,,,,,,m,,,,,,,,,,,,,,,,53,0,266.7022,267.7352,z,0,1.0238,,[],[],[],[],[],[],[],267.7353,269.7344,269.7344,269.7348,[],[],[],[],[],[],[],,269.7348,269.735,-0.028272377,-0.141049672,0,0,0,,0,52,52,146,1,2,word,RETIRE,cursive,retire_c.png,,,,,,
,,,,30655,001,2025-11-06_18h35.05.182,HW_LDT_1,2024.2.4,Win32,60.24096386,,,,,,,,,,,,,,,,,,,,,269.7365,269.9346,269.9347,270.4342,,,,,,,,,,,,,,0.7417,1,,,,,,,,,,,,,,z,,,,,,,,,,,,,,,,54,0,270.4349,271.1845,z,1,0.7417,,[],[],[],[],[],[],[],271.1847,273.1843,273.1844,273.1846,[],[],[],[],[],[],[],,273.1847,273.1849,-0.028272377,-0.141049672,0,0,0,,0,53,53,26,1,2,RL,retupar,cursive,retupar_c.png,,,,,,
,,,,30655,001,2025-11-06_18h35.05.182,HW_LDT_1,2024.2.4,Win32,60.24096386,,,,,,,,,,,,,,,,,,,,,273.1867,273.3851,273.3852,273.8845,,,,,,,,,,,,,,0.8578,1,,,,,,,,,,,,,,m,,,,,,,,,,,,,,,,55,0,273.8854,274.7444,m,1,0.8578,,[],[],[],[],[],[],[],274.7445,276.7339,276.734,276.7342,[],[],[],[],[],[],[],,276.7343,276.7343,-0.028272377,-0.141049672,0,0,0,,0,54,54,84,1,2,word,BELOVED,cursive,beloved_c.png,,,,,,
,,,,30655,001,2025-11-06_18h35.05.182,HW_LDT_1,2024.2.4,Win32,60.24096386,,,,,,,,,,,,,,,,,,,,,276.736,276.9341,276.9342,277.434,,,,,,,,,,,,,,1.1076,1,,,,,,,,,,,,,,z,,,,,,,,,,,,,,,,56,1,277.4349,278.5437,z,1,1.1076,,[],[],[],[],[],[],[],278.544,280.5351,280.5351,281.6442,[],[],[],[],[],[],[],m,281.6443,281.6445,-0.028272377,-0.141049672,0,0,0,,0,55,55,61,1,2,TL,nuremical,cursive,nuremical_c.png,1.108,,,,,
,,,,30655,001,2025-11-06_18h35.05.182,HW_LDT_1,2024.2.4,Win32,60.24096386,,,,,,,,,,,,,,,,,,,,,281.6462,281.8343,281.8344,282.3347,,,,,,,,,,,,,,0.8974,1,,,,,,,,,,,,,,m,,,,,,,,,,,,,,,,57,1,282.3357,283.2345,m,1,0.8974,,[],[],[],[],[],[],[],283.2346,285.2349,285.235,286.8012,[],[],[],[],[],[],[],z,286.8014,286.8016,-0.028272377,-0.141049672,0,0,0,,0,56,56,104,1,2,word,DOMINANT,print,dominant_p.png,1.5578,,,,,
,,,,30655,001,2025-11-06_18h35.05.182,HW_LDT_1,2024.2.4,Win32,60.24096386,,,,,,,,,,,,,,,,,,,,,286.8042,287.0016,287.0016,287.5014,,,,,,,,,,,,,,0.7723,1,,,,,,,,,,,,,,m,,,,,,,,,,,,,,,,58,0,287.5025,288.276,m,1,0.7723,,[],[],[],[],[],[],[],288.2762,290.2685,290.2687,290.2689,[],[],[],[],[],[],[],,290.2691,290.2692,-0.028272377,-0.141049672,0,0,0,,0,57,57,102,1,2,word,DENSITY,print,density_p.png,,,,,,
,,,,30655,001,2025-11-06_18h35.05.182,HW_LDT_1,2024.2.4,Win32,60.24096386,,,,,,,,,,,,,,,,,,,,,290.2715,290.4579,290.4579,290.9676,,,,,,,,,,,,,,0.6148,1,,,,,,,,,,,,,,m,,,,,,,,,,,,,,,,59,0,290.9685,291.5854,m,1,0.6148,,[],[],[],[],[],[],[],291.5856,293.5841,293.5842,293.5845,[],[],[],[],[],[],[],,293.5846,293.5847,-0.028272377,-0.141049672,0,0,0,,0,58,58,99,1,2,word,DEBATE,print,debate_p.png,,,,,,
,,,,30655,001,2025-11-06_18h35.05.182,HW_LDT_1,2024.2.4,Win32,60.24096386,,,,,,,,,,,,,,,,,,,,,293.5876,293.7851,293.7852,294.2844,,,,,,,,,,,,,,0.5717,1,,,,,,,,,,,,,,m,,,,,,,,,,,,,,,,60,0,294.2855,294.8587,m,1,0.5717,,[],[],[],[],[],[],[],294.8589,296.852,296.8521,296.8524,[],[],[],[],[],[],[],,296.8526,296.8527,-0.028272377,-0.141049672,0,0,0,,0,59,59,128,1,2,word,PACIFIC,print,pacific_p.png,,,,,,
,,,,30655,001,2025-11-06_18h35.05.182,HW_LDT_1,2024.2.4,Win32,60.24096386,,,,,,,,,,,,,,,,,,,,,296.8548,297.0509,297.0511,297.5592,,,,,,,,,,,,,,0.6818,1,,,,,,,,,,,,,,z,,,,,,,,,,,,,,,,61,0,297.56,298.2507,z,1,0.6818,,[],[],[],[],[],[],[],298.2508,300.2519,300.252,300.2523,[],[],[],[],[],[],[],,300.2524,300.2525,-0.028272377,-0.141049672,0,0,0,,0,60,60,74,1,2,TL,rerite,cursive,rerite_c.png,,,,,,
,,,,30655,001,2025-11-06_18h35.05.182,HW_LDT_1,2024.2.4,Win32,60.24096386,,,,,,,,,,,,,,,,,,,,,300.2549,300.4519,300.452,300.9517,,,,,,,,,,,,,,1.0768,1,,,,,,,,,,,,,,m,,,,,,,,,,,,,,,,62,0,300.9526,302.0339,m,1,1.0768,,[],[],[],[],[],[],[],302.0341,304.0348,304.035,304.0356,[],[],[],[],[],[],[],,304.0357,304.0359,-0.028272377,-0.141049672,0,0,0,,0,61,61,149,1,2,word,SENATOR,print,senator_p.png,,,,,,
,,,,30655,001,2025-11-06_18h35.05.182,HW_LDT_1,2024.2.4,Win32,60.24096386,,,,,,,,,,,,,,,,,,,,,304.0387,304.2345,304.2347,304.7346,,,,,,,,,,,,,,0.679,1,,,,,,,,,,,,,,z,,,,,,,,,,,,,,,,63,0,304.7355,305.4173,z,1,0.679,,[],[],[],[],[],[],[],305.4175,307.4175,307.4177,307.4181,[],[],[],[],[],[],[],,307.4182,307.4185,-0.028272377,-0.141049672,0,0,0,,0,62,62,16,1,2,RL,losipal,print,losipal_p.png,,,,,,
,,,,30655,001,2025-11-06_18h35.05.182,HW_LDT_1,2024.2.4,Win32,60.24096386,,,,,,,,,,,,,,,,,,,,,307.4203,307.617,307.6171,308.1174,,,,,,,,,,,,,,1.0458,1,,,,,,,,,,,,,,z,,,,,,,,,,,,,,,,64,0,308.1187,309.1676,z,1,1.0458,,[],[],[],[],[],[],[],309.1677,311.1747,311.1747,311.175,[],[],[],[],[],[],[],,311.175,311.1751,-0.028272377,-0.141049672,0,0,0,,0,63,63,43,1,2,TL,carema,print,carema_p.png,,,,,,
,,,,30655,001,2025-11-06_18h35.05.182,HW_LDT_1,2024.2.4,Win32,60.24096386,,,,,,,,,,,,,,,,,,,,,311.1761,311.369,311.3691,311.8675,,,,,,,,,,,,,,0.7782,1,,,,,,,,,,,,,,z,,,,,,,,,,,,,,,,65,0,311.8681,312.6504,z,1,0.7782,,[],[],[],[],[],[],[],312.6505,314.6501,314.6502,314.6509,[],[],[],[],[],[],[],,314.6529,314.6531,-0.028272377,-0.141049672,0,0,0,,0,64,64,66,1,2,TL,prodive,cursive,prodive_c.png,,,,,,
,,,,30655,001,2025-11-06_18h35.05.182,HW_LDT_1,2024.2.4,Win32,60.24096386,,,,,,,,,,,,,,,,,,,,,314.6543,314.8505,314.8506,315.3506,,,,,,,,,,,,,,0.7911,1,,,,,,,,,,,,,,m,,,,,,,,,,,,,,,,66,1,315.3514,316.1433,m,1,0.7911,,[],[],[],[],[],[],[],316.1434,318.1338,318.134,319.2269,[],[],[],[],[],[],[],z,319.2269,319.2271,-0.028272377,-0.141049672,0,0,0,,0,65,65,83,1,2,word,ANIMAL,print,animal_p.png,1.092,,,,,
,,,,30655,001,2025-11-06_18h35.05.182,HW_LDT_1,2024.2.4,Win32,60.24096386,,,,,,,,,,,,,,,,,,,,,319.2292,319.417,319.4171,319.918,,,,,,,,,,,,,,0.8498,1,,,,,,,,,,,,,,z,,,,,,,,,,,,,,,,67,0,319.9192,320.7714,z,1,0.8498,,[],[],[],[],[],[],[],320.7715,322.7675,322.7676,322.7684,[],[],[],[],[],[],[],,322.7685,322.7687,-0.028272377,-0.141049672,0,0,0,,0,66,66,29,1,2,RL,samite,cursive,samite_c.png,,,,,,
,,,,30655,001,2025-11-06_18h35.05.182,HW_LDT_1,2024.2.4,Win32,60.24096386,,,,,,,,,,,,,,,,,,,,,322.7718,322.9748,322.9749,323.4694,,,,,,,,,,,,,,1.0885,0,,,,,,,,,,,,,,m,,,,,,,,,,,,,,,,68,0,323.4709,324.5614,z,0,1.0885,,[],[],[],[],[],[],[],324.5616,326.5521,326.5522,326.5525,[],[],[],[],[],[],[],,326.5526,326.5528,-0.028272377,-0.141049672,0,0,0,,0,67,67,111,1,2,word,INDICATE,cursive,indicate_c.png,,,,,,
,,,,30655,001,2025-11-06_18h35.05.182,HW_LDT_1,2024.2.4,Win32,60.24096386,,,,,,,,,,,,,,,,,,,,,326.5553,326.7422,326.7422,327.2526,,,,,,,,,,,,,,0.7039,1,,,,,,,,,,,,,,z,,,,,,,,,,,,,,,,69,0,327.2547,327.9603,z,1,0.7039,,[],[],[],[],[],[],[],327.9604,329.9524,329.9526,329.9529,[],[],[],[],[],[],[],,329.9531,329.9532,-0.028272377,-0.141049672,0,0,0,,0,68,68,36,1,2,RL,vecelan,print,vecelan_p.png,,,,,,
,,,,30655,001,2025-11-06_18h35.05.182,HW_LDT_1,2024.2.4,Win32,60.24096386,,,,,,,,,,,,,,,,,,,,,329.955,330.1409,330.141,330.6604,,,,,,,,,,,,,,0.663,0,,,,,,,,,,,,,,z,,,,,,,,,,,,,,,,70,0,330.6614,331.3262,m,0,0.663,,[],[],[],[],[],[],[],331.3262,333.3168,333.3168,333.3172,[],[],[],[],[],[],[],,333.3172,333.3173,-0.028272377,-0.141049672,0,0,0,,0,69,69,63,1,2,TL,orinigal,print,orinigal_p.png,,,,,,
,,,,30655,001,2025-11-06_18h35.05.182,HW_LDT_1,2024.2.4,Win32,60.24096386,,,,,,,,,,,,,,,,,,,,,333.3189,333.5168,333.517,334.0167,,,,,,,,,,,,,,0.7079,0,,,,,,,,,,,,,,m,,,,,,,,,,,,,,,,71,0,334.0175,334.7267,z,0,0.7079,,[],[],[],[],[],[],[],334.7268,336.717,336.7171,336.7174,[],[],[],[],[],[],[],,336.7176,336.7177,-0.028272377,-0.141049672,0,0,0,,0,70,70,126,1,2,word,OPTIMAL,cursive,optimal_c.png,,,,,,
,,,,30655,001,2025-11-06_18h35.05.182,HW_LDT_1,2024.2.4,Win32,60.24096386,,,,,,,,,,,,,,,,,,,,,336.7193,336.9176,336.9176,337.4179,,,,,,,,,,,,,,0.8226,1,,,,,,,,,,,,,,m,,,,,,,,,,,,,,,,72,1,337.4187,338.2425,m,1,0.8226,,[],[],[],[],[],[],[],338.2426,340.2339,340.234,341.3001,[],[],[],[],[],[],[],m,341.3003,341.3004,-0.028272377,-0.141049672,0,0,0,,0,71,71,93,1,2,word,CEREMONY,print,ceremony_p.png,1.058,,,,,
,,,,30655,001,2025-11-06_18h35.05.182,HW_LDT_1,2024.2.4,Win32,60.24096386,,,,,,,,,,,,,,,,,,,,,341.303,341.5002,341.5004,342.0002,,,,,,,,,,,,,,0.8907,1,,,,,,,,,,,,,,m,,,,,,,,,,,,,,,,73,0,342.0015,342.8936,m,1,0.8907,,[],[],[],[],[],[],[],342.8938,344.8878,344.8879,344.888,[],[],[],[],[],[],[],,344.888,344.8882,-0.028272377,-0.141049672,0,0,0,,0,72,72,141,1,2,word,RELIGION,cursive,religion_c.png,,,,,,
,,,,30655,001,2025-11-06_18h35.05.182,HW_LDT_1,2024.2.4,Win32,60.24096386,,,,,,,,,,,,,,,,,,,,,344.8898,345.0843,345.0844,345.5833,,,,,,,,,,,,,,0.7264,1,,,,,,,,,,,,,,z,,,,,,,,,,,,,,,,74,0,345.5842,346.3117,z,1,0.7264,,[],[],[],[],[],[],[],346.3118,348.3,348.3001,348.3005,[],[],[],[],[],[],[],,348.3006,348.3008,-0.028272377,-0.141049672,0,0,0,,0,73,73,67,1,2,TL,quafily,cursive,quafily_c.png,,,,,,
,,,,30655,001,2025-11-06_18h35.05.182,HW_LDT_1,2024.2.4,Win32,60.24096386,,,,,,,,,,,,,,,,,,,,,348.3022,348.5099,348.5099,349.0058,,,,,,,,,,,,,,0.7218,1,,,,,,,,,,,,,,m,,,,,,,,,,,,,,,,75,0,349.0064,349.7336,m,1,0.7218,,[],[],[],[],[],[],[],349.7337,351.7342,351.7343,351.7347,[],[],[],[],[],[],[],,351.7347,351.7348,-0.028272377,-0.141049672,0,0,0,,0,74,74,81,1,2,word,ADVISORY,print,advisory_p.png,,,,,,
,,,,30655,001,2025-11-06_18h35.05.182,HW_LDT_1,2024.2.4,Win32,60.24096386,,,,,,,,,,,,,,,,,,,,,351.7368,351.9341,351.9341,352.4338,,,,,,,,,,,,,,0.962,1,,,,,,,,,,,,,,z,,,,,,,,,,,,,,,,76,0,352.4348,353.4014,z,1,0.962,,[],[],[],[],[],[],[],353.4015,355.3903,355.3905,355.391,[],[],[],[],[],[],[],,355.3912,355.3913,-0.028272377,-0.141049672,0,0,0,,0,75,75,31,1,2,RL,spetisic,print,spetisic_p.png,,,,,,
,,,,30655,001,2025-11-06_18h35.05.182,HW_LDT_1,2024.2.4,Win32,60.24096386,,,,,,,,,,,,,,,,,,,,,355.3934,355.5912,355.5914,356.0845,,,,,,,,,,,,,,0.9234,0,,,,,,,,,,,,,,m,,,,,,,,,,,,,,,,77,1,356.0853,357.0108,z,0,0.9234,,[],[],[],[],[],[],[],357.0109,359.0079,359.008,360.328,[],[],[],[],[],[],[],z,360.3281,360.3285,-0.028272377,-0.141049672,0,0,0,,0,76,76,119,1,2,word,MEMORY,cursive,memory_c.png,1.3187,,,,,
,,,,30655,001,2025-11-06_18h35.05.182,HW_LDT_1,2024.2.4,Win32,60.24096386,,,,,,,,,,,,,,,,,,,,,360.3302,360.5184,360.5184,361.019,,,,,,,,,,,,,,0.9186,1,,,,,,,,,,,,,,z,,,,,,,,,,,,,,,,78,0,361.0199,361.9403,z,1,0.9186,,[],[],[],[],[],[],[],361.9404,363.9333,363.9333,363.9337,[],[],[],[],[],[],[],,363.9337,363.9338,-0.028272377,-0.141049672,0,0,0,,0,77,77,35,1,2,RL,vesofity,print,vesofity_p.png,,,,,,
,,,,30655,001,2025-11-06_18h35.05.182,HW_LDT_1,2024.2.4,Win32,60.24096386,,,,,,,,,,,,,,,,,,,,,363.9356,364.1332,364.1333,364.6331,,,,,,,,,,,,,,0.6578,1,,,,,,,,,,,,,,m,,,,,,,,,,,,,,,,79,0,364.6339,365.3008,m,1,0.6578,,[],[],[],[],[],[],[],365.301,367.2999,367.3,367.3005,[],[],[],[],[],[],[],,367.3006,367.3007,-0.028272377,-0.141049672,0,0,0,,0,78,78,140,1,2,word,RELATIVE,print,relative_p.png,,,,,,
,,,,30655,001,2025-11-06_18h35.05.182,HW_LDT_1,2024.2.4,Win32,60.24096386,,,,,,,,,,,,,,,,,,,,,367.3029,367.4998,367.4999,368.0002,,,,,,,,,,,,,,2.0428,1,,,,,,,,,,,,,,z,,,,,,,,,,,,,,,,80,0,368.0014,370.0498,z,1,2.0428,,[],[],[],[],[],[],[],370.0499,372.0506,372.0508,372.0511,[],[],[],[],[],[],[],,372.0512,376.3666,-0.028272377,-0.141049672,0,0,0,space,0,79,79,30,1,2,RL,selamor,print,selamor_p.png,,,4.2793,,,
,,,,30655,001,2025-11-06_18h35.05.182,HW_LDT_1,2024.2.4,Win32,60.24096386,,,,,,,,,,,,,,,,,,,,,376.3684,376.5667,376.5668,377.0667,,,,,,,,,,,,,,0.8654,1,,,,,,,,,,,,,,m,,,,,,,,,,,,,,,,81,0,377.0676,377.9349,m,1,0.8654,,[],[],[],[],[],[],[],377.935,379.934,379.9346,379.9349,[],[],[],[],[],[],[],,379.9349,379.935,-0.028272377,-0.141049672,0,0,0,,0,80,80,139,1,2,word,REGULAR,cursive,regular_c.png,,,,,,
,,,,30655,001,2025-11-06_18h35.05.182,HW_LDT_1,2024.2.4,Win32,60.24096386,,,,,,,,,,,,,,,,,,,,,379.9371,380.1342,380.1345,380.6336,,,,,,,,,,,,,,0.9785,1,,,,,,,,,,,,,,m,,,,,,,,,,,,,,,,82,0,380.6345,381.6169,m,1,0.9785,,[],[],[],[],[],[],[],381.617,383.616,383.616,383.6162,[],[],[],[],[],[],[],,383.6162,383.6163,-0.028272377,-0.141049672,0,0,0,,0,81,81,133,1,2,word,PROVIDE,cursive,provide_c.png,,,,,,
,,,,30655,001,2025-11-06_18h35.05.182,HW_LDT_1,2024.2.4,Win32,60.24096386,,,,,,,,,,,,,,,,,,,,,383.6178,383.8161,383.8161,384.317,,,,,,,,,,,,,,0.6931,0,,,,,,,,,,,,,,m,,,,,,,,,,,,,,,,83,1,384.3176,385.0171,z,0,0.6931,,[],[],[],[],[],[],[],385.0173,387.0167,387.0168,388.3182,[],[],[],[],[],[],[],z,388.3183,388.3188,-0.028272377,-0.141049672,0,0,0,,0,82,82,125,1,2,word,OPERATOR,cursive,operator_c.png,1.2947,,,,,
,,,,30655,001,2025-11-06_18h35.05.182,HW_LDT_1,2024.2.4,Win32,60.24096386,,,,,,,,,,,,,,,,,,,,,388.3203,388.5184,388.5187,389.0178,,,,,,,,,,,,,,1.1918,1,,,,,,,,,,,,,,m,,,,,,,,,,,,,,,,84,0,389.0187,390.2182,m,1,1.1918,,[],[],[],[],[],[],[],390.2183,392.2182,392.2183,392.2187,[],[],[],[],[],[],[],,392.2187,392.2188,-0.028272377,-0.141049672,0,0,0,,0,83,83,150,1,2,word,SENTIMENT,cursive,sentiment_c.png,,,,,,
,,,,30655,001,2025-11-06_18h35.05.182,HW_LDT_1,2024.2.4,Win32,60.24096386,,,,,,,,,,,,,,,,,,,,,392.2208,392.4173,392.4173,392.918,,,,,,,,,,,,,,0.5747,1,,,,,,,,,,,,,,m,,,,,,,,,,,,,,,,85,0,392.9188,393.5001,m,1,0.5747,,[],[],[],[],[],[],[],393.5002,395.5003,395.5004,395.5007,[],[],[],[],[],[],[],,395.5007,395.5007,-0.028272377,-0.141049672,0,0,0,,0,84,84,115,1,2,word,LOGICAL,print,logical_p.png,,,,,,
,,,,30655,001,2025-11-06_18h35.05.182,HW_LDT_1,2024.2.4,Win32,60.24096386,,,,,,,,,,,,,,,,,,,,,395.5022,395.7011,395.7012,396.1994,,,,,,,,,,,,,,0.8262,1,,,,,,,,,,,,,,z,,,,,,,,,,,,,,,,86,0,396.2004,397.0341,z,1,0.8262,,[],[],[],[],[],[],[],397.0342,399.034,399.0341,399.0348,[],[],[],[],[],[],[],,399.0349,399.0349,-0.028272377,-0.141049672,0,0,0,,0,85,85,59,1,2,TL,miskate,cursive,miskate_c.png,,,,,,
,,,,30655,001,2025-11-06_18h35.05.182,HW_LDT_1,2024.2.4,Win32,60.24096386,,,,,,,,,,,,,,,,,,,,,399.0367,399.234,399.2342,399.7336,,,,,,,,,,,,,,0.7922,1,,,,,,,,,,,,,,z,,,,,,,,,,,,,,,,87,0,399.7342,400.5338,z,1,0.7922,,[],[],[],[],[],[],[],400.5339,402.5324,402.5325,402.5325,[],[],[],[],[],[],[],,402.5326,402.5327,-0.028272377,-0.141049672,0,0,0,,0,86,86,33,1,2,RL,strapely,cursive,strapely_c.png,,,,,,
,,,,30655,001,2025-11-06_18h35.05.182,HW_LDT_1,2024.2.4,Win32,60.24096386,,,,,,,,,,,,,,,,,,,,,402.5343,402.7327,402.7327,403.2328,,,,,,,,,,,,,,0.8596,1,,,,,,,,,,,,,,z,,,,,,,,,,,,,,,,88,0,403.2333,404.1,z,1,0.8596,,[],[],[],[],[],[],[],404.1001,406.0998,406.0999,406.1001,[],[],[],[],[],[],[],,406.1002,406.1002,-0.028272377,-0.141049672,0,0,0,,0,87,87,41,1,2,TL,befenit,cursive,befenit_c.png,,,,,,
,,,,30655,001,2025-11-06_18h35.05.182,HW_LDT_1,2024.2.4,Win32,60.24096386,,,,,,,,,,,,,,,,,,,,,406.1019,406.3002,406.3004,406.8004,,,,,,,,,,,,,,0.9939,1,,,,,,,,,,,,,,m,,,,,,,,,,,,,,,,89,0,406.8013,407.8,m,1,0.9939,,[],[],[],[],[],[],[],407.8001,409.8009,409.801,409.8011,[],[],[],[],[],[],[],,409.8012,409.8013,-0.028272377,-0.141049672,0,0,0,,0,88,88,114,1,2,word,LOCATE,print,locate_p.png,,,,,,
,,,,30655,001,2025-11-06_18h35.05.182,HW_LDT_1,2024.2.4,Win32,60.24096386,,,,,,,,,,,,,,,,,,,,,409.803,410.0001,410.0001,410.4999,,,,,,,,,,,,,,1.1092,1,,,,,,,,,,,,,,z,,,,,,,,,,,,,,,,90,0,410.5009,411.618,z,1,1.1092,,[],[],[],[],[],[],[],411.6184,413.6165,413.6166,413.617,[],[],[],[],[],[],[],,413.617,413.6172,-0.028272377,-0.141049672,0,0,0,,0,89,89,39,1,2,TL,aminal,print,aminal_p.png,,,,,,
,,,,30655,001,2025-11-06_18h35.05.182,HW_LDT_1,2024.2.4,Win32,60.24096386,,,,,,,,,,,,,,,,,,,,,413.6189,413.8168,413.8169,414.3162,,,,,,,,,,,,,,0.7262,1,,,,,,,,,,,,,,z,,,,,,,,,,,,,,,,91,0,414.3172,415.0505,z,1,0.7262,,[],[],[],[],[],[],[],415.0506,417.0505,417.0506,417.0509,[],[],[],[],[],[],[],,417.051,417.0512,-0.028272377,-0.141049672,0,0,0,,0,90,90,28,1,2,RL,revune,cursive,revune_c.png,,,,,,
,,,,30655,001,2025-11-06_18h35.05.182,HW_LDT_1,2024.2.4,Win32,60.24096386,,,,,,,,,,,,,,,,,,,,,417.0527,417.2504,417.2505,417.7496,,,,,,,,,,,,,,0.6942,1,,,,,,,,,,,,,,m,,,,,,,,,,,,,,,,92,0,417.7505,418.4502,m,1,0.6942,,[],[],[],[],[],[],[],418.4503,420.4495,420.4496,420.4497,[],[],[],[],[],[],[],,420.4498,420.4499,-0.028272377,-0.141049672,0,0,0,,0,91,91,118,1,2,word,MEDICINE,print,medicine_p.png,,,,,,
,,,,30655,001,2025-11-06_18h35.05.182,HW_LDT_1,2024.2.4,Win32,60.24096386,,,,,,,,,,,,,,,,,,,,,420.4513,420.6511,420.6512,421.1505,,,,,,,,,,,,,,0.6412,1,,,,,,,,,,,,,,z,,,,,,,,,,,,,,,,93,0,421.1513,421.7999,z,1,0.6412,,[],[],[],[],[],[],[],421.8,423.8003,423.8004,423.8006,[],[],[],[],[],[],[],,423.8007,423.8011,-0.028272377,-0.141049672,0,0,0,,0,92,92,65,1,2,TL,polupar,cursive,polupar_c.png,,,,,,
,,,,30655,001,2025-11-06_18h35.05.182,HW_LDT_1,2024.2.4,Win32,60.24096386,,,,,,,,,,,,,,,,,,,,,423.8025,424.0003,424.0004,424.5006,,,,,,,,,,,,,,0.9088,1,,,,,,,,,,,,,,z,,,,,,,,,,,,,,,,94,0,424.5013,425.4173,z,1,0.9088,,[],[],[],[],[],[],[],425.4174,427.4173,427.4173,427.4177,[],[],[],[],[],[],[],,427.4178,427.4179,-0.028272377,-0.141049672,0,0,0,,0,93,93,60,1,2,TL,molibe,print,molibe_p.png,,,,,,
,,,,30655,001,2025-11-06_18h35.05.182,HW_LDT_1,2024.2.4,Win32,60.24096386,,,,,,,,,,,,,,,,,,,,,427.4198,427.6177,427.6178,428.1173,,,,,,,,,,,,,,0.6086,1,,,,,,,,,,,,,,m,,,,,,,,,,,,,,,,95,0,428.1185,428.7335,m,1,0.6086,,[],[],[],[],[],[],[],428.7335,430.7333,430.7334,430.734,[],[],[],[],[],[],[],,430.7341,430.7343,-0.028272377,-0.141049672,0,0,0,,0,94,94,101,1,2,word,DELICATE,print,delicate_p.png,,,,,,
,,,,30655,001,2025-11-06_18h35.05.182,HW_LDT_1,2024.2.4,Win32,60.24096386,,,,,,,,,,,,,,,,,,,,,430.7361,430.9331,430.9337,431.4325,,,,,,,,,,,,,,0.6102,1,,,,,,,,,,,,,,z,,,,,,,,,,,,,,,,96,1,431.4331,432.049,z,1,0.6102,,[],[],[],[],[],[],[],432.0491,434.049,434.0492,434.5827,[],[],[],[],[],[],[],z,434.5827,434.5829,-0.028272377,-0.141049672,0,0,0,,0,95,95,24,1,2,RL,rasibal,cursive,rasibal_c.png,0.5327,,,,,
,,,,30655,001,2025-11-06_18h35.05.182,HW_LDT_1,2024.2.4,Win32,60.24096386,,,,,,,,,,,,,,,,,,,,,434.5849,434.7823,434.7824,435.284,,,,,,,,,,,,,,0.7084,0,,,,,,,,,,,,,,z,,,,,,,,,,,,,,,,97,0,435.285,435.9998,m,0,0.7084,,[],[],[],[],[],[],[],435.9999,437.9988,437.9988,437.9991,[],[],[],[],[],[],[],,437.9992,437.9993,-0.028272377,-0.141049672,0,0,0,,0,96,96,6,1,2,RL,conbicer,print,conbicer_p.png,,,,,,
,,,,30655,001,2025-11-06_18h35.05.182,HW_LDT_1,2024.2.4,Win32,60.24096386,,,,,,,,,,,,,,,,,,,,,438.0013,438.1996,438.1998,438.7009,,,,,,,,,,,,,,0.6409,1,,,,,,,,,,,,,,m,,,,,,,,,,,,,,,,98,0,438.7016,439.3495,m,1,0.6409,,[],[],[],[],[],[],[],439.3496,441.3497,441.3501,441.3504,[],[],[],[],[],[],[],,441.3504,441.3505,-0.028272377,-0.141049672,0,0,0,,0,97,97,130,1,2,word,POLICY,print,policy_p.png,,,,,,
,,,,30655,001,2025-11-06_18h35.05.182,HW_LDT_1,2024.2.4,Win32,60.24096386,,,,,,,,,,,,,,,,,,,,,441.3522,441.5494,441.5494,442.0496,,,,,,,,,,,,,,1.4087,1,,,,,,,,,,,,,,m,,,,,,,,,,,,,,,,99,1,442.0507,443.4668,m,1,1.4087,,[],[],[],[],[],[],[],443.4668,445.4669,445.467,446.3492,[],[],[],[],[],[],[],z,446.3494,446.3496,-0.028272377,-0.141049672,0,0,0,,0,98,98,132,1,2,word,PROPOSAL,cursive,proposal_c.png,0.8759,,,,,
,,,,30655,001,2025-11-06_18h35.05.182,HW_LDT_1,2024.2.4,Win32,60.24096386,,,,,,,,,,,,,,,,,,,,,446.3512,446.5488,446.5488,447.049,,,,,,,,,,,,,,0.8276,1,,,,,,,,,,,,,,z,,,,,,,,,,,,,,,,100,0,447.0503,447.8824,z,1,0.8276,,[],[],[],[],[],[],[],447.8825,449.882,449.8821,449.8824,[],[],[],[],[],[],[],,449.8825,449.8826,-0.028272377,-0.141049672,0,0,0,,0,99,99,48,1,2,TL,detabe,print,detabe_p.png,,,,,,
,,,,30655,001,2025-11-06_18h35.05.182,HW_LDT_1,2024.2.4,Win32,60.24096386,,,,,,,,,,,,,,,,,,,,,449.8843,450.0837,450.0838,450.5829,,,,,,,,,,,,,,1.2752,0,,,,,,,,,,,,,,m,,,,,,,,,,,,,,,,101,0,450.5839,451.8657,z,0,1.2752,,[],[],[],[],[],[],[],451.8658,453.8653,453.8653,453.8656,[],[],[],[],[],[],[],,453.8656,453.8657,-0.028272377,-0.141049672,0,0,0,,0,100,100,138,1,2,word,REFUSAL,cursive,refusal_c.png,,,,,,
,,,,30655,001,2025-11-06_18h35.05.182,HW_LDT_1,2024.2.4,Win32,60.24096386,,,,,,,,,,,,,,,,,,,,,453.8676,454.0663,454.0663,454.5663,,,,,,,,,,,,,,0.7757,1,,,,,,,,,,,,,,z,,,,,,,,,,,,,,,,102,0,454.5672,455.3488,z,1,0.7757,,[],[],[],[],[],[],[],455.349,457.3497,457.3498,457.3501,[],[],[],[],[],[],[],,457.3502,457.3503,-0.028272377,-0.141049672,0,0,0,,0,101,101,50,1,2,TL,donimant,print,donimant_p.png,,,,,,
,,,,30655,001,2025-11-06_18h35.05.182,HW_LDT_1,2024.2.4,Win32,60.24096386,,,,,,,,,,,,,,,,,,,,,457.352,457.5486,457.5486,458.049,,,,,,,,,,,,,,0.6303,1,,,,,,,,,,,,,,z,,,,,,,,,,,,,,,,103,0,458.0495,458.682,z,1,0.6303,,[],[],[],[],[],[],[],458.682,460.6825,460.6826,460.6831,[],[],[],[],[],[],[],,460.6832,460.6833,-0.028272377,-0.141049672,0,0,0,,0,102,102,55,1,2,TL,lotace,print,lotace_p.png,,,,,,
,,,,30655,001,2025-11-06_18h35.05.182,HW_LDT_1,2024.2.4,Win32,60.24096386,,,,,,,,,,,,,,,,,,,,,460.6851,460.8829,460.883,461.3819,,,,,,,,,,,,,,0.894,1,,,,,,,,,,,,,,m,,,,,,,,,,,,,,,,104,0,461.3827,462.2819,m,1,0.894,,[],[],[],[],[],[],[],462.2821,464.2817,464.2818,464.282,[],[],[],[],[],[],[],,464.282,464.2822,-0.028272377,-0.141049672,0,0,0,,0,103,103,112,1,2,word,LIBERAL,print,liberal_p.png,,,,,,
,,,,30655,001,2025-11-06_18h35.05.182,HW_LDT_1,2024.2.4,Win32,60.24096386,,,,,,,,,,,,,,,,,,,,,464.284,464.4815,464.4815,464.9818,,,,,,,,,,,,,,0.8763,0,,,,,,,,,,,,,,m,,,,,,,,,,,,,,,,105,0,464.9824,465.8655,z,0,0.8763,,[],[],[],[],[],[],[],465.8657,467.865,467.8651,467.8656,[],[],[],[],[],[],[],,467.8656,467.8657,-0.028272377,-0.141049672,0,0,0,,0,104,104,106,1,2,word,ELABORATE,cursive,elaborate_c.png,,,,,,
,,,,30655,001,2025-11-06_18h35.05.182,HW_LDT_1,2024.2.4,Win32,60.24096386,,,,,,,,,,,,,,,,,,,,,467.8672,468.0657,468.0657,468.5672,,,,,,,,,,,,,,0.8096,0,,,,,,,,,,,,,,m,,,,,,,,,,,,,,,,106,0,468.5683,469.3816,z,0,0.8096,,[],[],[],[],[],[],[],469.3817,471.3831,471.3831,471.3834,[],[],[],[],[],[],[],,471.3834,471.3835,-0.028272377,-0.141049672,0,0,0,,0,105,105,148,1,2,word,SALINE,cursive,saline_c.png,,,,,,
,,,,30655,001,2025-11-06_18h35.05.182,HW_LDT_1,2024.2.4,Win32,60.24096386,,,,,,,,,,,,,,,,,,,,,471.3856,471.5823,471.5824,472.0826,,,,,,,,,,,,,,0.7586,1,,,,,,,,,,,,,,z,,,,,,,,,,,,,,,,107,0,472.0835,472.8494,z,1,0.7586,,[],[],[],[],[],[],[],472.8495,474.8489,474.8489,474.8492,[],[],[],[],[],[],[],,474.8492,474.8494,-0.028272377,-0.141049672,0,0,0,,0,106,106,23,1,2,RL,procogal,cursive,procogal_c.png,,,,,,
,,,,30655,001,2025-11-06_18h35.05.182,HW_LDT_1,2024.2.4,Win32,60.24096386,,,,,,,,,,,,,,,,,,,,,474.8515,475.0485,475.0486,475.5486,,,,,,,,,,,,,,1.6423,1,,,,,,,,,,,,,,z,,,,,,,,,,,,,,,,108,0,475.5495,477.1992,z,1,1.6423,,[],[],[],[],[],[],[],477.1994,479.1985,479.1988,479.199,[],[],[],[],[],[],[],,479.1991,479.1992,-0.028272377,-0.141049672,0,0,0,,0,107,107,37,1,2,TL,adacemy,cursive,adacemy_c.png,,,,,,
,,,,30655,001,2025-11-06_18h35.05.182,HW_LDT_1,2024.2.4,Win32,60.24096386,,,,,,,,,,,,,,,,,,,,,479.2008,479.3982,479.3985,479.8986,,,,,,,,,,,,,,0.6934,1,,,,,,,,,,,,,,z,,,,,,,,,,,,,,,,109,0,479.8992,480.5994,z,1,0.6934,,[],[],[],[],[],[],[],480.5996,482.5993,482.5995,482.5997,[],[],[],[],[],[],[],,482.5997,482.5998,-0.028272377,-0.141049672,0,0,0,,0,108,108,34,1,2,RL,trilude,cursive,trilude_c.png,,,,,,
,,,,30655,001,2025-11-06_18h35.05.182,HW_LDT_1,2024.2.4,Win32,60.24096386,,,,,,,,,,,,,,,,,,,,,482.6014,482.8003,482.8004,483.2992,,,,,,,,,,,,,,1.6113,1,,,,,,,,,,,,,,z,,,,,,,,,,,,,,,,110,0,483.3,484.9153,z,1,1.6113,,[],[],[],[],[],[],[],484.9155,486.9155,486.9157,486.916,[],[],[],[],[],[],[],,486.9161,486.9165,-0.028272377,-0.141049672,0,0,0,,0,109,109,40,1,2,TL,bevoled,cursive,bevoled_c.png,,,,,,
,,,,30655,001,2025-11-06_18h35.05.182,HW_LDT_1,2024.2.4,Win32,60.24096386,,,,,,,,,,,,,,,,,,,,,486.9186,487.115,487.115,487.6156,,,,,,,,,,,,,,0.6306,1,,,,,,,,,,,,,,m,,,,,,,,,,,,,,,,111,1,487.6165,488.2484,m,1,0.6306,,[],[],[],[],[],[],[],488.2485,490.2484,490.2486,492.4822,[],[],[],[],[],[],[],m,492.4823,492.4825,-0.028272377,-0.141049672,0,0,0,,0,110,110,158,1,2,word,VELOCITY,print,velocity_p.png,2.2311,,,,,
,,,,30655,001,2025-11-06_18h35.05.182,HW_LDT_1,2024.2.4,Win32,60.24096386,,,,,,,,,,,,,,,,,,,,,492.4858,492.6821,492.6821,493.1815,,,,,,,,,,,,,,0.6804,0,,,,,,,,,,,,,,z,,,,,,,,,,,,,,,,112,0,493.1822,493.8651,m,0,0.6804,,[],[],[],[],[],[],[],493.8652,495.8663,495.8663,495.8666,[],[],[],[],[],[],[],,495.8667,495.8668,-0.028272377,-0.141049672,0,0,0,,0,111,111,64,1,2,TL,paficic,print,paficic_p.png,,,,,,
,,,,30655,001,2025-11-06_18h35.05.182,HW_LDT_1,2024.2.4,Win32,60.24096386,,,,,,,,,,,,,,,,,,,,,495.8687,496.065,496.065,496.5651,,,,,,,,,,,,,,0.9611,1,,,,,,,,,,,,,,z,,,,,,,,,,,,,,,,113,0,496.566,497.5324,z,1,0.9611,,[],[],[],[],[],[],[],497.5325,499.5321,499.5321,499.5324,[],[],[],[],[],[],[],,499.5324,499.5325,-0.028272377,-0.141049672,0,0,0,,0,112,112,73,1,2,TL,redisent,print,redisent_p.png,,,,,,
,,,,30655,001,2025-11-06_18h35.05.182,HW_LDT_1,2024.2.4,Win32,60.24096386,,,,,,,,,,,,,,,,,,,,,499.5345,499.7323,499.7325,500.2313,,,,,,,,,,,,,,1.7767,1,,,,,,,,,,,,,,z,,,,,,,,,,,,,,,,114,0,500.2318,502.0149,z,1,1.7767,,[],[],[],[],[],[],[],502.015,504.016,504.016,504.0165,[],[],[],[],[],[],[],,504.0166,504.0167,-0.028272377,-0.141049672,0,0,0,,0,113,113,45,1,2,TL,carnidal,cursive,carnidal_c.png,,,,,,
,,,,30655,001,2025-11-06_18h35.05.182,HW_LDT_1,2024.2.4,Win32,60.24096386,,,,,,,,,,,,,,,,,,,,,504.0184,504.2156,504.2157,504.7158,,,,,,,,,,,,,,0.6254,1,,,,,,,,,,,,,,z,,,,,,,,,,,,,,,,115,0,504.7165,505.3488,z,1,0.6254,,[],[],[],[],[],[],[],505.3489,507.3489,507.349,507.3492,[],[],[],[],[],[],[],,507.3493,507.3494,-0.028272377,-0.141049672,0,0,0,,0,114,114,62,1,2,TL,opmital,cursive,opmital_c.png,,,,,,
,,,,30655,001,2025-11-06_18h35.05.182,HW_LDT_1,2024.2.4,Win32,60.24096386,,,,,,,,,,,,,,,,,,,,,507.3511,507.548,507.548,508.0478,,,,,,,,,,,,,,0.6628,1,,,,,,,,,,,,,,z,,,,,,,,,,,,,,,,116,0,508.0487,508.7148,z,1,0.6628,,[],[],[],[],[],[],[],508.715,510.7146,510.7148,510.7149,[],[],[],[],[],[],[],,510.7149,510.7151,-0.028272377,-0.141049672,0,0,0,,0,115,115,3,1,2,RL,capefory,print,capefory_p.png,,,,,,
,,,,30655,001,2025-11-06_18h35.05.182,HW_LDT_1,2024.2.4,Win32,60.24096386,,,,,,,,,,,,,,,,,,,,,510.7168,510.916,510.9161,511.4159,,,,,,,,,,,,,,0.7097,0,,,,,,,,,,,,,,m,,,,,,,,,,,,,,,,117,0,511.4167,512.1323,z,0,0.7097,,[],[],[],[],[],[],[],512.1325,514.1322,514.1323,514.1324,[],[],[],[],[],[],[],,514.1325,514.1326,-0.028272377,-0.141049672,0,0,0,,0,116,116,98,1,2,word,CRIMINAL,cursive,criminal_c.png,,,,,,
,,,,30655,001,2025-11-06_18h35.05.182,HW_LDT_1,2024.2.4,Win32,60.24096386,,,,,,,,,,,,,,,,,,,,,514.1344,514.3312,514.3312,514.8323,,,,,,,,,,,,,,0.6928,1,,,,,,,,,,,,,,m,,,,,,,,,,,,,,,,118,1,514.8331,515.5315,m,1,0.6928,,[],[],[],[],[],[],[],515.5317,517.5311,517.5312,518.7481,[],[],[],[],[],[],[],m,518.7482,518.7484,-0.028272377,-0.141049672,0,0,0,,0,117,117,108,1,2,word,FORTUNE,print,fortune_p.png,1.2114,,,,,
,,,,30655,001,2025-11-06_18h35.05.182,HW_LDT_1,2024.2.4,Win32,60.24096386,,,,,,,,,,,,,,,,,,,,,518.7504,518.9485,518.9485,519.4483,,,,,,,,,,,,,,0.9259,1,,,,,,,,,,,,,,m,,,,,,,,,,,,,,,,119,0,519.4491,520.3825,m,1,0.9259,,[],[],[],[],[],[],[],520.3825,522.3824,522.3825,522.3826,[],[],[],[],[],[],[],,522.3827,522.3828,-0.028272377,-0.141049672,0,0,0,,0,118,118,129,1,2,word,PARENT,print,parent_p.png,,,,,,
,,,,30655,001,2025-11-06_18h35.05.182,HW_LDT_1,2024.2.4,Win32,60.24096386,,,,,,,,,,,,,,,,,,,,,522.3848,522.5814,522.5815,523.0815,,,,,,,,,,,,,,0.8428,1,,,,,,,,,,,,,,z,,,,,,,,,,,,,,,,120,0,523.0824,523.9314,z,1,0.8428,,[],[],[],[],[],[],[],523.9316,525.9325,525.9326,525.9328,[],[],[],[],[],[],[],,525.9329,525.933,-0.028272377,-0.141049672,0,0,0,,0,119,119,72,1,2,TL,revomal,print,revomal_p.png,,,,,,
,,,,30655,001,2025-11-06_18h35.05.182,HW_LDT_1,2024.2.4,Win32,60.24096386,,,,,,,,,,,,,,,,,,,,,525.935,526.1324,526.1324,526.6322,,,,,,,,,,,,,,0.7584,0,,,,,,,,,,,,,,m,,,,,,,,,,,,,,,,121,0,526.6334,527.3992,z,0,0.7584,,[],[],[],[],[],[],[],527.3993,529.398,529.3981,529.3984,[],[],[],[],[],[],[],,529.3985,529.3987,-0.028272377,-0.141049672,0,0,0,,0,120,120,97,1,2,word,COVERAGE,cursive,coverage_c.png,,,,,,
,,,,30655,001,2025-11-06_18h35.05.182,HW_LDT_1,2024.2.4,Win32,60.24096386,,,,,,,,,,,,,,,,,,,,,529.4004,529.5975,529.5975,530.0983,,,,,,,,,,,,,,0.994,1,,,,,,,,,,,,,,z,,,,,,,,,,,,,,,,122,0,530.0991,531.0985,z,1,0.994,,[],[],[],[],[],[],[],531.0986,533.0987,533.0987,533.0991,[],[],[],[],[],[],[],,533.0991,533.0992,-0.028272377,-0.141049672,0,0,0,,0,121,121,25,1,2,RL,rabigly,print,rabigly_p.png,,,,,,
,,,,30655,001,2025-11-06_18h35.05.182,HW_LDT_1,2024.2.4,Win32,60.24096386,,,,,,,,,,,,,,,,,,,,,533.1008,533.2986,533.2986,533.7974,,,,,,,,,,,,,,0.9817,1,,,,,,,,,,,,,,z,,,,,,,,,,,,,,,,123,0,533.7986,534.7817,z,1,0.9817,,[],[],[],[],[],[],[],534.7818,536.7819,536.7819,536.7821,[],[],[],[],[],[],[],,536.7823,536.7826,-0.028272377,-0.141049672,0,0,0,,0,122,122,4,1,2,RL,cenesony,print,cenesony_p.png,,,,,,
,,,,30655,001,2025-11-06_18h35.05.182,HW_LDT_1,2024.2.4,Win32,60.24096386,,,,,,,,,,,,,,,,,,,,,536.7846,536.9811,536.9811,537.4819,,,,,,,,,,,,,,0.7286,1,,,,,,,,,,,,,,m,,,,,,,,,,,,,,,,124,0,537.4826,538.2144,m,1,0.7286,,[],[],[],[],[],[],[],538.2146,540.2145,540.2146,540.215,[],[],[],[],[],[],[],,540.2151,540.2152,-0.028272377,-0.141049672,0,0,0,,0,123,123,131,1,2,word,POPULAR,cursive,popular_c.png,,,,,,
,,,,30655,001,2025-11-06_18h35.05.182,HW_LDT_1,2024.2.4,Win32,60.24096386,,,,,,,,,,,,,,,,,,,,,540.2169,540.415,540.4151,540.9144,,,,,,,,,,,,,,0.7094,1,,,,,,,,,,,,,,z,,,,,,,,,,,,,,,,125,1,540.9153,541.6318,z,1,0.7094,,[],[],[],[],[],[],[],541.632,543.6312,543.6313,544.7657,[],[],[],[],[],[],[],m,544.7658,544.7661,-0.028272377,-0.141049672,0,0,0,,0,124,124,76,1,2,TL,senmitent,cursive,senmitent_c.png,1.1302,,,,,
,,,,30655,001,2025-11-06_18h35.05.182,HW_LDT_1,2024.2.4,Win32,60.24096386,,,,,,,,,,,,,,,,,,,,,544.7683,544.9652,544.9654,545.4655,,,,,,,,,,,,,,0.8424,1,,,,,,,,,,,,,,z,,,,,,,,,,,,,,,,126,0,545.4667,546.3141,z,1,0.8424,,[],[],[],[],[],[],[],546.3143,548.3141,548.3143,548.3146,[],[],[],[],[],[],[],,548.3147,548.3147,-0.028272377,-0.141049672,0,0,0,,0,125,125,78,1,2,TL,stogare,print,stogare_p.png,,,,,,
,,,,30655,001,2025-11-06_18h35.05.182,HW_LDT_1,2024.2.4,Win32,60.24096386,,,,,,,,,,,,,,,,,,,,,548.3168,548.514,548.5141,549.0152,,,,,,,,,,,,,,0.8115,0,,,,,,,,,,,,,,z,,,,,,,,,,,,,,,,127,0,549.0166,549.8325,m,0,0.8115,,[],[],[],[],[],[],[],549.8327,551.8319,551.832,551.8321,[],[],[],[],[],[],[],,551.8322,551.8323,-0.028272377,-0.141049672,0,0,0,,0,126,126,79,1,2,TL,vadility,print,vadility_p.png,,,,,,
,,,,30655,001,2025-11-06_18h35.05.182,HW_LDT_1,2024.2.4,Win32,60.24096386,,,,,,,,,,,,,,,,,,,,,551.8345,552.0313,552.0314,552.5304,,,,,,,,,,,,,,0.7943,0,,,,,,,,,,,,,,m,,,,,,,,,,,,,,,,128,0,552.5308,553.3309,z,0,0.7943,,[],[],[],[],[],[],[],553.331,555.3323,555.3324,555.3326,[],[],[],[],[],[],[],,555.3327,555.3328,-0.028272377,-0.141049672,0,0,0,,0,127,127,145,1,2,word,RESUME,cursive,resume_c.png,,,,,,
,,,,30655,001,2025-11-06_18h35.05.182,HW_LDT_1,2024.2.4,Win32,60.24096386,,,,,,,,,,,,,,,,,,,,,555.3346,555.5311,555.5312,556.0304,,,,,,,,,,,,,,0.9137,1,,,,,,,,,,,,,,z,,,,,,,,,,,,,,,,129,0,556.0311,556.9472,z,1,0.9137,,[],[],[],[],[],[],[],556.9472,558.9472,558.9473,558.9474,[],[],[],[],[],[],[],,558.9474,558.9475,-0.028272377,-0.141049672,0,0,0,,0,128,128,44,1,2,TL,catipal,cursive,catipal_c.png,,,,,,
,,,,30655,001,2025-11-06_18h35.05.182,HW_LDT_1,2024.2.4,Win32,60.24096386,,,,,,,,,,,,,,,,,,,,,558.949,559.1474,559.1474,559.6486,,,,,,,,,,,,,,1.2414,1,,,,,,,,,,,,,,z,,,,,,,,,,,,,,,,130,0,559.6495,560.8984,z,1,1.2414,,[],[],[],[],[],[],[],560.8988,562.8973,562.8974,562.8976,[],[],[],[],[],[],[],,562.8977,562.8977,-0.028272377,-0.141049672,0,0,0,,0,129,129,56,1,2,TL,marnigal,cursive,marnigal_c.png,,,,,,
,,,,30655,001,2025-11-06_18h35.05.182,HW_LDT_1,2024.2.4,Win32,60.24096386,,,,,,,,,,,,,,,,,,,,,562.8993,563.0978,563.0978,563.5984,,,,,,,,,,,,,,0.744,1,,,,,,,,,,,,,,m,,,,,,,,,,,,,,,,131,1,563.5998,564.3475,m,1,0.744,,[],[],[],[],[],[],[],564.3476,566.3482,566.3484,567.7482,[],[],[],[],[],[],[],m,567.7484,567.7485,-0.028272377,-0.141049672,0,0,0,,0,130,130,151,1,2,word,SPECIFIC,print,specific_p.png,1.3926,,,,,
,,,,30655,001,2025-11-06_18h35.05.182,HW_LDT_1,2024.2.4,Win32,60.24096386,,,,,,,,,,,,,,,,,,,,,567.75,567.9474,567.9475,568.4484,,,,,,,,,,,,,,0.7252,0,,,,,,,,,,,,,,z,,,,,,,,,,,,,,,,132,0,568.4491,569.1804,m,0,0.7252,,[],[],[],[],[],[],[],569.1806,571.1815,571.1816,571.1818,[],[],[],[],[],[],[],,571.1818,571.182,-0.028272377,-0.141049672,0,0,0,,0,131,131,70,1,2,TL,retalive,print,retalive_p.png,,,,,,
,,,,30655,001,2025-11-06_18h35.05.182,HW_LDT_1,2024.2.4,Win32,60.24096386,,,,,,,,,,,,,,,,,,,,,571.1839,571.3809,571.381,571.8815,,,,,,,,,,,,,,0.6421,1,,,,,,,,,,,,,,z,,,,,,,,,,,,,,,,133,1,571.8823,572.5317,z,1,0.6421,,[],[],[],[],[],[],[],572.532,574.5315,574.5315,576.3643,[],[],[],[],[],[],[],z,576.3646,576.3647,-0.028272377,-0.141049672,0,0,0,,0,132,132,53,1,2,TL,edivent,cursive,edivent_c.png,1.8283,,,,,
,,,,30655,001,2025-11-06_18h35.05.182,HW_LDT_1,2024.2.4,Win32,60.24096386,,,,,,,,,,,,,,,,,,,,,576.3665,576.5651,576.5651,577.0645,,,,,,,,,,,,,,0.9758,1,,,,,,,,,,,,,,m,,,,,,,,,,,,,,,,134,0,577.0651,578.0477,m,1,0.9758,,[],[],[],[],[],[],[],578.0478,580.0483,580.0483,580.0488,[],[],[],[],[],[],[],,580.0488,580.049,-0.028272377,-0.141049672,0,0,0,,0,133,133,157,1,2,word,VALIDITY,print,validity_p.png,,,,,,
,,,,30655,001,2025-11-06_18h35.05.182,HW_LDT_1,2024.2.4,Win32,60.24096386,,,,,,,,,,,,,,,,,,,,,580.0506,580.2472,580.2472,580.747,,,,,,,,,,,,,,0.7001,0,,,,,,,,,,,,,,m,,,,,,,,,,,,,,,,135,0,580.7479,581.4493,z,0,0.7001,,[],[],[],[],[],[],[],581.4495,583.4468,583.4469,583.447,[],[],[],[],[],[],[],,583.4471,583.4472,-0.028272377,-0.141049672,0,0,0,,0,134,134,95,1,2,word,COMEDY,cursive,comedy_c.png,,,,,,
,,,,30655,001,2025-11-06_18h35.05.182,HW_LDT_1,2024.2.4,Win32,60.24096386,,,,,,,,,,,,,,,,,,,,,583.4486,583.6474,583.6476,584.1479,,,,,,,,,,,,,,0.775,0,,,,,,,,,,,,,,m,,,,,,,,,,,,,,,,136,0,584.1488,584.9318,z,0,0.775,,[],[],[],[],[],[],[],584.9319,586.9313,586.9313,586.9314,[],[],[],[],[],[],[],,586.9315,586.9317,-0.028272377,-0.141049672,0,0,0,,0,135,135,123,1,2,word,MODERATE,cursive,moderate_c.png,,,,,,
,,,,30655,001,2025-11-06_18h35.05.182,HW_LDT_1,2024.2.4,Win32,60.24096386,,,,,,,,,,,,,,,,,,,,,586.9334,587.1313,587.1313,587.6314,,,,,,,,,,,,,,1.0629,0,,,,,,,,,,,,,,m,,,,,,,,,,,,,,,,137,0,587.6323,588.6966,z,0,1.0629,,[],[],[],[],[],[],[],588.6966,590.6981,590.6981,590.6985,[],[],[],[],[],[],[],,590.6985,590.6986,-0.028272377,-0.141049672,0,0,0,,0,136,136,109,1,2,word,GRATEFUL,cursive,grateful_c.png,,,,,,
,,,,30655,001,2025-11-06_18h35.05.182,HW_LDT_1,2024.2.4,Win32,60.24096386,,,,,,,,,,,,,,,,,,,,,590.7003,590.8976,590.8977,591.3966,,,,,,,,,,,,,,0.8125,1,,,,,,,,,,,,,,m,,,,,,,,,,,,,,,,138,1,591.3972,592.2145,m,1,0.8125,,[],[],[],[],[],[],[],592.2147,594.2139,594.2139,595.6304,[],[],[],[],[],[],[],m,595.6305,595.6306,-0.028272377,-0.141049672,0,0,0,,0,137,137,144,1,2,word,RESIDENT,print,resident_p.png,1.4094,,,,,
,,,,30655,001,2025-11-06_18h35.05.182,HW_LDT_1,2024.2.4,Win32,60.24096386,,,,,,,,,,,,,,,,,,,,,595.6325,595.8314,595.8314,596.3302,,,,,,,,,,,,,,1.0607,1,,,,,,,,,,,,,,z,,,,,,,,,,,,,,,,139,0,596.3308,597.3978,z,1,1.0607,,[],[],[],[],[],[],[],597.3979,599.3982,599.3982,599.3985,[],[],[],[],[],[],[],,599.3985,599.3986,-0.028272377,-0.141049672,0,0,0,,0,138,138,20,1,2,RL,onegator,cursive,onegator_c.png,,,,,,
,,,,30655,001,2025-11-06_18h35.05.182,HW_LDT_1,2024.2.4,Win32,60.24096386,,,,,,,,,,,,,,,,,,,,,599.4007,599.5976,599.5976,600.0978,,,,,,,,,,,,,,0.8419,1,,,,,,,,,,,,,,m,,,,,,,,,,,,,,,,140,0,600.0988,600.9476,m,1,0.8419,,[],[],[],[],[],[],[],600.9477,602.9477,602.9478,602.9481,[],[],[],[],[],[],[],,602.9481,602.9482,-0.028272377,-0.141049672,0,0,0,,0,139,139,153,1,2,word,STOLEN,print,stolen_p.png,,,,,,
,,,,30655,001,2025-11-06_18h35.05.182,HW_LDT_1,2024.2.4,Win32,60.24096386,,,,,,,,,,,,,,,,,,,,,602.95,603.1481,603.1482,603.648,,,,,,,,,,,,,,0.7083,1,,,,,,,,,,,,,,z,,,,,,,,,,,,,,,,141,0,603.6486,604.3635,z,1,0.7083,,[],[],[],[],[],[],[],604.3636,606.3647,606.3649,606.3651,[],[],[],[],[],[],[],,606.3651,606.3652,-0.028272377,-0.141049672,0,0,0,,0,140,140,18,1,2,RL,mesibine,print,mesibine_p.png,,,,,,
,,,,30655,001,2025-11-06_18h35.05.182,HW_LDT_1,2024.2.4,Win32,60.24096386,,,,,,,,,,,,,,,,,,,,,606.3667,606.5637,606.5638,607.0633,,,,,,,,,,,,,,0.6767,1,,,,,,,,,,,,,,z,,,,,,,,,,,,,,,,142,0,607.0641,607.7473,z,1,0.6767,,[],[],[],[],[],[],[],607.7474,609.7479,609.748,609.7483,[],[],[],[],[],[],[],,609.7483,609.7485,-0.028272377,-0.141049672,0,0,0,,0,141,141,13,1,2,RL,helicage,print,helicage_p.png,,,,,,
,,,,30655,001,2025-11-06_18h35.05.182,HW_LDT_1,2024.2.4,Win32,60.24096386,,,,,,,,,,,,,,,,,,,,,609.7506,609.9469,609.9469,610.4477,,,,,,,,,,,,,,0.9737,1,,,,,,,,,,,,,,z,,,,,,,,,,,,,,,,143,0,610.4487,611.4301,z,1,0.9737,,[],[],[],[],[],[],[],611.4301,613.4296,613.4296,613.4297,[],[],[],[],[],[],[],,613.4297,613.4299,-0.028272377,-0.141049672,0,0,0,,0,142,142,14,1,2,RL,insibate,cursive,insibate_c.png,,,,,,
,,,,30655,001,2025-11-06_18h35.05.182,HW_LDT_1,2024.2.4,Win32,60.24096386,,,,,,,,,,,,,,,,,,,,,613.431,613.63,613.63,614.131,,,,,,,,,,,,,,0.9901,1,,,,,,,,,,,,,,m,,,,,,,,,,,,,,,,144,0,614.1317,615.1298,m,1,0.9901,,[],[],[],[],[],[],[],615.1299,617.1306,617.1307,617.1311,[],[],[],[],[],[],[],,617.1312,617.1319,-0.028272377,-0.141049672,0,0,0,,0,143,143,80,1,2,word,ACADEMY,cursive,academy_c.png,,,,,,
,,,,30655,001,2025-11-06_18h35.05.182,HW_LDT_1,2024.2.4,Win32,60.24096386,,,,,,,,,,,,,,,,,,,,,617.1336,617.3302,617.3302,617.8303,,,,,,,,,,,,,,1.4262,0,,,,,,,,,,,,,,m,,,,,,,,,,,,,,,,145,1,617.8308,619.266,z,0,1.4262,,[],[],[],[],[],[],[],619.2661,621.2645,621.2646,622.5137,[],[],[],[],[],[],[],z,622.5137,622.5139,-0.028272377,-0.141049672,0,0,0,,0,144,144,155,1,2,word,STRATEGY,cursive,strategy_c.png,1.244,,,,,
,,,,30655,001,2025-11-06_18h35.05.182,HW_LDT_1,2024.2.4,Win32,60.24096386,,,,,,,,,,,,,,,,,,,,,622.5156,622.7132,622.7133,623.2142,,,,,,,,,,,,,,0.7915,1,,,,,,,,,,,,,,z,,,,,,,,,,,,,,,,146,0,623.2152,624.0144,z,1,0.7915,,[],[],[],[],[],[],[],624.0145,626.0134,626.0135,626.014,[],[],[],[],[],[],[],,626.014,626.0141,-0.028272377,-0.141049672,0,0,0,,0,145,145,69,1,2,TL,resufal,cursive,resufal_c.png,,,,,,
,,,,30655,001,2025-11-06_18h35.05.182,HW_LDT_1,2024.2.4,Win32,60.24096386,,,,,,,,,,,,,,,,,,,,,626.0158,626.2144,626.2144,626.7135,,,,,,,,,,,,,,0.9263,1,,,,,,,,,,,,,,m,,,,,,,,,,,,,,,,147,0,626.7139,627.6464,m,1,0.9263,,[],[],[],[],[],[],[],627.6465,629.6474,629.6475,629.6478,[],[],[],[],[],[],[],,629.6478,629.6479,-0.028272377,-0.141049672,0,0,0,,0,146,146,82,1,2,word,AMATEUR,cursive,amateur_c.png,,,,,,
,,,,30655,001,2025-11-06_18h35.05.182,HW_LDT_1,2024.2.4,Win32,60.24096386,,,,,,,,,,,,,,,,,,,,,629.6495,629.8465,629.8468,630.3474,,,,,,,,,,,,,,0.6757,1,,,,,,,,,,,,,,m,,,,,,,,,,,,,,,,148,0,630.3484,631.0308,m,1,0.6757,,[],[],[],[],[],[],[],631.0308,633.0309,633.0311,633.0314,[],[],[],[],[],[],[],,633.0315,633.0316,-0.028272377,-0.141049672,0,0,0,,0,147,147,136,1,2,word,RADICAL,cursive,radical_c.png,,,,,,
,,,,30655,001,2025-11-06_18h35.05.182,HW_LDT_1,2024.2.4,Win32,60.24096386,,,,,,,,,,,,,,,,,,,,,633.0335,633.2302,633.2302,633.7298,,,,,,,,,,,,,,1.0763,1,,,,,,,,,,,,,,z,,,,,,,,,,,,,,,,149,0,633.7305,634.8134,z,1,1.0763,,[],[],[],[],[],[],[],634.8135,636.8137,636.8137,636.8139,[],[],[],[],[],[],[],,636.8139,636.8143,-0.028272377,-0.141049672,0,0,0,,0,148,148,71,1,2,TL,retome,cursive,retome_c.png,,,,,,
,,,,30655,001,2025-11-06_18h35.05.182,HW_LDT_1,2024.2.4,Win32,60.24096386,,,,,,,,,,,,,,,,,,,,,636.8159,637.0141,637.0141,637.5146,,,,,,,,,,,,,,0.9244,1,,,,,,,,,,,,,,z,,,,,,,,,,,,,,,,150,0,637.5154,638.4473,z,1,0.9244,,[],[],[],[],[],[],[],638.4474,640.4471,640.4472,640.4476,[],[],[],[],[],[],[],,640.4477,640.4477,-0.028272377,-0.141049672,0,0,0,,0,149,149,12,1,2,RL,gralekul,cursive,gralekul_c.png,,,,,,
,,,,30655,001,2025-11-06_18h35.05.182,HW_LDT_1,2024.2.4,Win32,60.24096386,,,,,,,,,,,,,,,,,,,,,640.4496,640.6471,640.6471,641.1473,,,,,,,,,,,,,,0.629,1,,,,,,,,,,,,,,m,,,,,,,,,,,,,,,,151,1,641.1484,641.7799,m,1,0.629,,[],[],[],[],[],[],[],641.7801,643.7799,643.78,644.8144,[],[],[],[],[],[],[],z,644.8146,644.8149,-0.028272377,-0.141049672,0,0,0,,0,150,150,94,1,2,word,CLINICAL,cursive,clinical_c.png,1.0271,,,,,
,,,,30655,001,2025-11-06_18h35.05.182,HW_LDT_1,2024.2.4,Win32,60.24096386,,,,,,,,,,,,,,,,,,,,,644.8168,645.0125,645.0126,645.5141,,,,,,,,,,,,,,1.2786,0,,,,,,,,,,,,,,m,,,,,,,,,,,,,,,,152,0,645.5152,646.7967,z,0,1.2786,,[],[],[],[],[],[],[],646.7968,648.7968,648.7969,648.7972,[],[],[],[],[],[],[],,648.7972,648.7974,-0.028272377,-0.141049672,0,0,0,,0,151,151,117,1,2,word,MARINE,cursive,marine_c.png,,,,,,
,,,,30655,001,2025-11-06_18h35.05.182,HW_LDT_1,2024.2.4,Win32,60.24096386,,,,,,,,,,,,,,,,,,,,,648.7993,648.9976,648.9977,649.4975,,,,,,,,,,,,,,0.7916,1,,,,,,,,,,,,,,z,,,,,,,,,,,,,,,,153,0,649.4982,650.2977,z,1,0.7916,,[],[],[],[],[],[],[],650.2978,652.2975,652.2976,652.298,[],[],[],[],[],[],[],,652.2981,652.2983,-0.028272377,-0.141049672,0,0,0,,0,152,152,51,1,2,TL,etidor,cursive,etidor_c.png,,,,,,
,,,,30655,001,2025-11-06_18h35.05.182,HW_LDT_1,2024.2.4,Win32,60.24096386,,,,,,,,,,,,,,,,,,,,,652.3001,652.4969,652.4969,652.9971,,,,,,,,,,,,,,0.6987,1,,,,,,,,,,,,,,m,,,,,,,,,,,,,,,,154,0,652.9979,653.698,m,1,0.6987,,[],[],[],[],[],[],[],653.6982,655.6964,655.6964,655.6968,[],[],[],[],[],[],[],,655.6969,655.697,-0.028272377,-0.141049672,0,0,0,,0,153,153,156,1,2,word,TRIBUTE,cursive,tribute_c.png,,,,,,
,,,,30655,001,2025-11-06_18h35.05.182,HW_LDT_1,2024.2.4,Win32,60.24096386,,,,,,,,,,,,,,,,,,,,,655.6986,655.8974,655.8975,656.3961,,,,,,,,,,,,,,0.694,1,,,,,,,,,,,,,,z,,,,,,,,,,,,,,,,155,0,656.3972,657.0961,z,1,0.694,,[],[],[],[],[],[],[],657.0962,659.0969,659.0973,659.0976,[],[],[],[],[],[],[],,659.0977,659.0979,-0.028272377,-0.141049672,0,0,0,,0,154,154,19,1,2,RL,monebate,cursive,monebate_c.png,,,,,,
,,,,30655,001,2025-11-06_18h35.05.182,HW_LDT_1,2024.2.4,Win32,60.24096386,,,,,,,,,,,,,,,,,,,,,659.0995,659.2984,659.2984,659.7959,,,,,,,,,,,,,,1.2127,1,,,,,,,,,,,,,,m,,,,,,,,,,,,,,,,156,0,659.7967,661.0135,m,1,1.2127,,[],[],[],[],[],[],[],661.0136,663.0135,663.0136,663.0138,[],[],[],[],[],[],[],,663.0138,663.0139,-0.028272377,-0.141049672,0,0,0,,0,155,155,159,1,2,word,VETERAN,print,veteran_p.png,,,,,,
,,,,30655,001,2025-11-06_18h35.05.182,HW_LDT_1,2024.2.4,Win32,60.24096386,,,,,,,,,,,,,,,,,,,,,663.0156,663.2037,663.2037,663.7134,,,,,,,,,,,,,,0.7615,1,,,,,,,,,,,,,,z,,,,,,,,,,,,,,,,157,0,663.7146,664.479,z,1,0.7615,,[],[],[],[],[],[],[],664.4791,666.4793,666.4794,666.4796,[],[],[],[],[],[],[],,666.4797,666.4799,-0.028272377,-0.141049672,0,0,0,,0,156,156,46,1,2,TL,codemy,cursive,codemy_c.png,,,,,,
,,,,30655,001,2025-11-06_18h35.05.182,HW_LDT_1,2024.2.4,Win32,60.24096386,,,,,,,,,,,,,,,,,,,,,666.4818,666.6793,666.6794,667.1798,,,,,,,,,,,,,,1.1429,1,,,,,,,,,,,,,,m,,,,,,,,,,,,,,,,158,0,667.181,668.3294,m,1,1.1429,,[],[],[],[],[],[],[],668.3295,670.3292,670.3294,670.3297,[],[],[],[],[],[],[],,670.3298,670.3299,-0.028272377,-0.141049672,0,0,0,,0,157,157,96,1,2,word,CONSIDER,print,consider_p.png,,,,,,
,,,,30655,001,2025-11-06_18h35.05.182,HW_LDT_1,2024.2.4,Win32,60.24096386,,,,,,,,,,,,,,,,,,,,,670.3317,670.5301,670.5302,671.0291,,,,,,,,,,,,,,0.6437,1,,,,,,,,,,,,,,z,,,,,,,,,,,,,,,,159,0,671.03,671.6791,z,1,0.6437,,[],[],[],[],[],[],[],671.6791,673.679,673.6791,673.6794,[],[],[],[],[],[],[],,673.6794,673.6795,-0.028272377,-0.141049672,0,0,0,,0,158,158,0,1,2,RL,adnicory,print,adnicory_p.png,,,,,,
,,,,30655,001,2025-11-06_18h35.05.182,HW_LDT_1,2024.2.4,Win32,60.24096386,,,,,,,,,,,,,,,,,,,,,673.6809,673.8789,673.8793,674.3717,,,,,,,,,,,,,,0.7485,1,,,,,,,,,,,,,,z,,,,,,,,,,,,,,,,160,0,674.3726,675.1293,z,1,0.7485,,[],[],[],[],[],[],[],675.1295,677.13,677.1302,677.1307,[],[],[],[],[],[],[],,677.1308,677.1309,-0.028272377,-0.141049672,0,0,0,,0,159,159,75,1,2,TL,ronamtic,print,ronamtic_p.png,,,,,,
,,,,30655,001,2025-11-06_18h35.05.182,HW_LDT_1,2024.2.4,Win32,60.24096386,,,,,,,,,,,,,,,,,,,,,,,,,,,,,,,,,,,,,,,,,,,,,,,,,,,,,,,,,,,,,,,,,,,,,,,,,,,,,,,,,,,,,,,,,,,,,,,,,,,,,,,,,,,,,,,,,,,,,,677.1481,682.1374
