counterbalance_lists.group,counterbalance_lists.remaining,get_list.started,get_list.stopped,participant,session,date,expName,psychopyVersion,OS,frameRate,Instructions.started,Instructions.stopped,key_resp.keys,instr_done_touch.x,instr_done_touch.y,instr_done_touch.leftButton,instr_done_touch.midButton,instr_done_touch.rightButton,instr_done_touch.clicked_name,start_instr.thisRepN,start_instr.thisTrialN,start_instr.thisN,start_instr.thisIndex,start_instr.ran,pageN,phase,instruct_text,has_image,instruct_image,showProgress.started,showProgress.stopped,fix.started,fix.stopped,prac.started,prac.stopped,response.keys,response.corr,response.rt,response.duration,touch_resp.x,touch_resp.y,touch_resp.leftButton,touch_resp.midButton,touch_resp.rightButton,touch_resp.time,touch_resp.clicked_name,rt,corr,feedback.started,feedback.stopped,trials.thisRepN,trials.thisTrialN,trials.thisN,trials.thisIndex,trials.ran,TrialID,StimulusType,Condition,PrimeDuration,Prime,Target,corrAns,Instructions_expt.started,Instructions_expt.stopped,key_resp_3.keys,instr_done_touch_3.x,instr_done_touch_3.y,instr_done_touch_3.leftButton,instr_done_touch_3.midButton,instr_done_touch_3.rightButton,instr_done_touch_3.clicked_name,instr_experiment.thisRepN,instr_experiment.thisTrialN,instr_experiment.thisN,instr_experiment.thisIndex,instr_experiment.ran,trialID,flag,maintask.started,maintask.stopped,key_resp_2.keys,key_resp_2.corr,key_resp_2.rt,key_resp_2.duration,targ_click.x,targ_click.y,targ_click.leftButton,targ_click.midButton,targ_click.rightButton,targ_click.time,targ_click.clicked_name,ITI.started,ITI.stopped,probe.started,probe.stopped,click_probe.x,click_probe.y,click_probe.leftButton,click_probe.midButton,click_probe.rightButton,click_probe.time,click_probe.clicked_name,key_resp_probe.keys,Break.started,Break.stopped,break_done_touch.x,break_done_touch.y,break_done_touch.leftButton,break_done_touch.midButton,break_done_touch.rightButton,break_done_keyboard.keys,list1_trials.thisRepN,list1_trials.thisTrialN,list1_trials.thisN,list1_trials.thisIndex,list1_trials.ran,list_id,item_type,string,font,stim_file,key_resp_probe.rt,key_resp_probe.duration,break_done_touch.clicked_name,End.started,End.stopped
list1,,5.0237,5.0238,30723,001,2025-10-17_13h11.49.290,HW_LDT_1,2024.2.4,MacIntel,61.34969325,,,,,,,,,,,,,,,,,,,,,,,,,,,,,,,,,,,,,,,,,,,,,,,,,,,,,,,,,,,,,,,,,,,,,,,,,,,,,,,,,,,,,,,,,,,,,,,,,,,,,,,,,,,,,,,,,,,,
,,,,30723,001,2025-10-17_13h11.49.290,HW_LDT_1,2024.2.4,MacIntel,61.34969325,5.0444,11.7229,,-0.022052951,-0.405269097,1,0,0,instr_done_button,0,0,0,0,1,1,instructions,"INSTRUCTIONS
At the start of each trial, look at the plus sign  (+) in the center of the screen.  This tells you that a trial is about to begin and where to look. Second, the plus sign will disappear and a string of letters will appear. Your task is to determine if the string of letters is a word or not. If the item is a word press the M key (on keyboard)  or touch the word button (phone/tablet).  If the item is not a word,  press the  Z key (on keyboard)  or touch the nonword button (on phone/tablet). The items will be presented for a short time. 
Press the space bar or touch  continue.",0,,,,,,,,,,,,,,,,,,,,,,,,,,,,,,,,,,,,,,,,,,,,,,,,,,,,,,,,,,,,,,,,,,,,,,,,,,,,,,,,,,,,,,,,,,,,,,,,,,
,,,,30723,001,2025-10-17_13h11.49.290,HW_LDT_1,2024.2.4,MacIntel,61.34969325,11.7253,19.255,,-0.02203559,-0.413537326,1,0,0,instr_done_button,0,1,1,1,1,2,instructions,"If your device has a keyboard, press the 'Z' key for nonwords and the 'M' key for words.





Press the space bar or touch the button below to continue.",0,keyboard-example.gif,,,,,,,,,,,,,,,,,,,,,,,,,,,,,,,,,,,,,,,,,,,,,,,,,,,,,,,,,,,,,,,,,,,,,,,,,,,,,,,,,,,,,,,,,,,,,,,,,
,,,,30723,001,2025-10-17_13h11.49.290,HW_LDT_1,2024.2.4,MacIntel,61.34969325,19.2569,22.1546,,-0.02218316,-0.418164062,1,0,0,instr_done_button,0,2,2,2,1,3,instructions,"If you are using a touchscreen only device, use the buttons on the screen. Do not use the mouse.





Press the space bar or touch the button below to continue.",0,touchscreen-example.gif,,,,,,,,,,,,,,,,,,,,,,,,,,,,,,,,,,,,,,,,,,,,,,,,,,,,,,,,,,,,,,,,,,,,,,,,,,,,,,,,,,,,,,,,,,,,,,,,,
,,,,30723,001,2025-10-17_13h11.49.290,HW_LDT_1,2024.2.4,MacIntel,61.34969325,22.1572,24.6055,,-0.020334201,-0.420546875,1,0,0,instr_done_button,0,3,3,3,1,4,instructions,"It is very important that you respond as quickly and accurately as possible, as each letter string will only be on the screen for two seconds. If you do not respond within this time, the message 'Too slow!' will be displayed and the experiment will progress to the next letter string. The first 20 trials will be practice trials and you will receive feedback on your answers. 

Press the space bar or touch the button below to start the practice trials.",0,,,,,,,,,,,,,,,,,,,,,,,,,,,,,,,,,,,,,,,,,,,,,,,,,,,,,,,,,,,,,,,,,,,,,,,,,,,,,,,,,,,,,,,,,,,,,,,,,,
,,,,30723,001,2025-10-17_13h11.49.290,HW_LDT_1,2024.2.4,MacIntel,61.34969325,,,,,,,,,,,,,,,,,,,,24.6338,24.8055,24.8058,25.3059,25.3062,29.6398,z,1,4.3053,,[],[],[],[],[],[],[],4.3053,1,29.6405,30.1391,0,0,0,13,1,1014,NW,UN,33,winfer,ROUPET,z,,,,,,,,,,,,,,,,,,,,,,,,,,,,,,,,,,,,,,,,,,,,,,,,,,,,,,,,,,,,,,,,
,,,,30723,001,2025-10-17_13h11.49.290,HW_LDT_1,2024.2.4,MacIntel,61.34969325,,,,,,,,,,,,,,,,,,,,30.141,30.3378,30.3378,30.8388,30.8399,32.1891,m,1,1.3417,,[],[],[],[],[],[],[],1.3417,1,32.1893,32.689,0,1,1,5,1,1006,WORD,UN,33,frenzy,OBTAIN,m,,,,,,,,,,,,,,,,,,,,,,,,,,,,,,,,,,,,,,,,,,,,,,,,,,,,,,,,,,,,,,,,
,,,,30723,001,2025-10-17_13h11.49.290,HW_LDT_1,2024.2.4,MacIntel,61.34969325,,,,,,,,,,,,,,,,,,,,32.6906,32.8888,32.8889,33.3889,33.39,34.3889,m,1,0.9785,,[],[],[],[],[],[],[],0.9785,1,34.3891,34.8888,0,2,2,0,1,1001,WORD,"ID",33,utopia,UTOPIA,m,,,,,,,,,,,,,,,,,,,,,,,,,,,,,,,,,,,,,,,,,,,,,,,,,,,,,,,,,,,,,,,,
,,,,30723,001,2025-10-17_13h11.49.290,HW_LDT_1,2024.2.4,MacIntel,61.34969325,,,,,,,,,,,,,,,,,,,,34.8907,35.0888,35.0889,35.5888,35.5901,36.4722,z,1,0.861,,[],[],[],[],[],[],[],0.861,1,36.4724,36.9719,0,3,3,14,1,1015,NW,UN,16,miaber,THRALE,z,,,,,,,,,,,,,,,,,,,,,,,,,,,,,,,,,,,,,,,,,,,,,,,,,,,,,,,,,,,,,,,,
,,,,30723,001,2025-10-17_13h11.49.290,HW_LDT_1,2024.2.4,MacIntel,61.34969325,,,,,,,,,,,,,,,,,,,,36.9737,37.1722,37.1723,37.6721,37.6734,38.2557,m,1,0.5735,,[],[],[],[],[],[],[],0.5735,1,38.2558,38.7559,0,4,4,7,1,1008,WORD,UN,16,hurdle,VOLUME,m,,,,,,,,,,,,,,,,,,,,,,,,,,,,,,,,,,,,,,,,,,,,,,,,,,,,,,,,,,,,,,,,
,,,,30723,001,2025-10-17_13h11.49.290,HW_LDT_1,2024.2.4,MacIntel,61.34969325,,,,,,,,,,,,,,,,,,,,38.7576,38.9556,38.9556,39.4555,39.4568,40.6389,z,1,1.1615,,[],[],[],[],[],[],[],1.1615,1,40.6392,41.139,0,5,5,12,1,1013,NW,UN,33,adveil,SPRINY,z,,,,,,,,,,,,,,,,,,,,,,,,,,,,,,,,,,,,,,,,,,,,,,,,,,,,,,,,,,,,,,,,
,,,,30723,001,2025-10-17_13h11.49.290,HW_LDT_1,2024.2.4,MacIntel,61.34969325,,,,,,,,,,,,,,,,,,,,41.1409,41.3389,41.339,41.8388,41.84,42.4723,m,1,0.6116,,[],[],[],[],[],[],[],0.6116,1,42.4725,42.9712,0,6,6,6,1,1007,WORD,UN,16,tropic,ZOMBIE,m,,,,,,,,,,,,,,,,,,,,,,,,,,,,,,,,,,,,,,,,,,,,,,,,,,,,,,,,,,,,,,,,
,,,,30723,001,2025-10-17_13h11.49.290,HW_LDT_1,2024.2.4,MacIntel,61.34969325,,,,,,,,,,,,,,,,,,,,42.9728,43.1722,43.1723,43.6721,43.6734,44.3057,m,1,0.6139,,[],[],[],[],[],[],[],0.6139,1,44.3059,44.8057,0,7,7,2,1,1003,WORD,"ID",16,almond,ALMOND,m,,,,,,,,,,,,,,,,,,,,,,,,,,,,,,,,,,,,,,,,,,,,,,,,,,,,,,,,,,,,,,,,
,,,,30723,001,2025-10-17_13h11.49.290,HW_LDT_1,2024.2.4,MacIntel,61.34969325,,,,,,,,,,,,,,,,,,,,44.8077,45.0057,45.0057,45.5056,45.5069,46.3562,m,1,0.8405,,[],[],[],[],[],[],[],0.8405,1,46.3564,46.8557,0,8,8,1,1,1002,WORD,"ID",33,adjust,ADJUST,m,,,,,,,,,,,,,,,,,,,,,,,,,,,,,,,,,,,,,,,,,,,,,,,,,,,,,,,,,,,,,,,,
,,,,30723,001,2025-10-17_13h11.49.290,HW_LDT_1,2024.2.4,MacIntel,61.34969325,,,,,,,,,,,,,,,,,,,,46.8576,47.0556,47.0556,47.5557,47.5569,48.738,z,1,1.1632,,[],[],[],[],[],[],[],1.1632,1,48.7382,49.2389,0,9,9,10,1,1011,NW,"ID",16,inlade,INLADE,z,,,,,,,,,,,,,,,,,,,,,,,,,,,,,,,,,,,,,,,,,,,,,,,,,,,,,,,,,,,,,,,,
,,,,30723,001,2025-10-17_13h11.49.290,HW_LDT_1,2024.2.4,MacIntel,61.34969325,,,,,,,,,,,,,,,,,,,,49.2404,49.4388,49.4389,49.9389,49.9402,50.6221,m,1,0.6605,,[],[],[],[],[],[],[],0.6605,1,50.6223,51.1223,0,10,10,4,1,1005,WORD,UN,33,abound,SQUEAK,m,,,,,,,,,,,,,,,,,,,,,,,,,,,,,,,,,,,,,,,,,,,,,,,,,,,,,,,,,,,,,,,,
,,,,30723,001,2025-10-17_13h11.49.290,HW_LDT_1,2024.2.4,MacIntel,61.34969325,,,,,,,,,,,,,,,,,,,,51.1241,51.3221,51.3222,51.8222,51.8233,52.6056,z,1,0.7613,,[],[],[],[],[],[],[],0.7613,1,52.6057,53.1056,0,11,11,8,1,1009,NW,"ID",33,aslert,ASLERT,z,,,,,,,,,,,,,,,,,,,,,,,,,,,,,,,,,,,,,,,,,,,,,,,,,,,,,,,,,,,,,,,,
,,,,30723,001,2025-10-17_13h11.49.290,HW_LDT_1,2024.2.4,MacIntel,61.34969325,,,,,,,,,,,,,,,,,,,,53.1073,53.305,53.305,53.8055,53.8066,54.8223,z,1,0.9976,,[],[],[],[],[],[],[],0.9976,1,54.8225,55.3221,0,12,12,11,1,1012,NW,"ID",16,rashet,RASHET,z,,,,,,,,,,,,,,,,,,,,,,,,,,,,,,,,,,,,,,,,,,,,,,,,,,,,,,,,,,,,,,,,
,,,,30723,001,2025-10-17_13h11.49.290,HW_LDT_1,2024.2.4,MacIntel,61.34969325,,,,,,,,,,,,,,,,,,,,55.3238,55.5221,55.5223,56.0221,56.0234,56.7554,m,1,0.7121,,[],[],[],[],[],[],[],0.7121,1,56.7556,57.2559,0,13,13,3,1,1004,WORD,"ID",16,matrix,MATRIX,m,,,,,,,,,,,,,,,,,,,,,,,,,,,,,,,,,,,,,,,,,,,,,,,,,,,,,,,,,,,,,,,,
,,,,30723,001,2025-10-17_13h11.49.290,HW_LDT_1,2024.2.4,MacIntel,61.34969325,,,,,,,,,,,,,,,,,,,,57.2576,57.4555,57.4555,57.9554,57.9564,58.7387,z,1,0.7732,,[],[],[],[],[],[],[],0.7732,1,58.7388,59.2387,0,14,14,15,1,1016,NW,UN,16,mushed,WHAISE,z,,,,,,,,,,,,,,,,,,,,,,,,,,,,,,,,,,,,,,,,,,,,,,,,,,,,,,,,,,,,,,,,
,,,,30723,001,2025-10-17_13h11.49.290,HW_LDT_1,2024.2.4,MacIntel,61.34969325,,,,,,,,,,,,,,,,,,,,59.2399,59.4391,59.4391,59.9388,59.9398,61.3724,z,1,1.4126,,[],[],[],[],[],[],[],1.4126,1,61.3725,61.8723,0,15,15,9,1,1010,NW,"ID",33,fariny,FARINY,z,,,,,,,,,,,,,,,,,,,,,,,,,,,,,,,,,,,,,,,,,,,,,,,,,,,,,,,,,,,,,,,,
,,,,30723,001,2025-10-17_13h11.49.290,HW_LDT_1,2024.2.4,MacIntel,61.34969325,,,,,,,,,,,,,,,1,end_of_practice,"You have completed the practice trials. During the experimental trials, you will not receive feedback. On some trials you will be asked to report whether the item you just saw was in cursive or print. 
Before you begin, please ensure that you are in a comfortable and quiet location and will not be disturbed for about 15 minutes, as we cannot use your data if you do not complete all the trials. 
 When you are ready to start the experimental trials, please press space or touch the button below.",,,,,,,,,,,,,,,,,,,,,,,,,,,,,,,,,,,,61.8797,63.7893,,0.055108507,-0.379548611,1,0,0,instr_done_button_3,0,0,0,0,1,,,,,,,,,,,,,,,,,,,,,,,,,,,,,,,,,,,,,,,,,,,,,,,,,,
,,,,30723,001,2025-10-17_13h11.49.290,HW_LDT_1,2024.2.4,MacIntel,61.34969325,,,,,,,,,,,,,,,,,,,,63.8008,63.9887,63.9887,64.4889,,,,,,,,,,,,,,0.8338,1,,,,,,,,,,,,,,z,,,,,,,,,,,,,,,1,0,64.4908,65.3392,z,1,0.8338,,[],[],[],[],[],[],[],65.3395,67.3392,67.3396,67.3431,[],[],[],[],[],[],[],,67.3432,67.3449,0.055108507,-0.363671875,0,0,0,,0,0,0,12,1,1,RL,ebiwent,print,ebiwent_p.png,,,,,
,,,,30723,001,2025-10-17_13h11.49.290,HW_LDT_1,2024.2.4,MacIntel,61.34969325,,,,,,,,,,,,,,,,,,,,67.3459,67.5385,67.5386,68.0388,,,,,,,,,,,,,,2.5186,1,,,,,,,,,,,,,,z,,,,,,,,,,,,,,,2,0,68.0396,70.5723,z,1,2.5186,,[],[],[],[],[],[],[],70.5724,72.5722,72.5722,72.5725,[],[],[],[],[],[],[],,72.5726,72.5727,0.055108507,-0.363671875,0,0,0,,0,1,1,0,1,1,RL,abanemy,cursive,abanemy_c.png,,,,,
,,,,30723,001,2025-10-17_13h11.49.290,HW_LDT_1,2024.2.4,MacIntel,61.34969325,,,,,,,,,,,,,,,,,,,,72.5743,72.7723,72.7723,73.2722,,,,,,,,,,,,,,0.6526,1,,,,,,,,,,,,,,m,,,,,,,,,,,,,,,3,0,73.2729,73.939,m,1,0.6526,,[],[],[],[],[],[],[],73.9391,75.939,75.939,75.9394,[],[],[],[],[],[],[],,75.9395,75.9395,0.055108507,-0.363671875,0,0,0,,0,2,2,128,1,1,word,PACIFIC,print,pacific_p.png,,,,,
,,,,30723,001,2025-10-17_13h11.49.290,HW_LDT_1,2024.2.4,MacIntel,61.34969325,,,,,,,,,,,,,,,,,,,,75.9411,76.1389,76.1389,76.6388,,,,,,,,,,,,,,1.1195,1,,,,,,,,,,,,,,m,,,,,,,,,,,,,,,4,0,76.6396,77.7723,m,1,1.1195,,[],[],[],[],[],[],[],77.7723,79.7723,79.7723,79.7727,[],[],[],[],[],[],[],,79.7728,79.7729,0.055108507,-0.363671875,0,0,0,,0,3,3,150,1,1,word,SENTIMENT,cursive,sentiment_c.png,,,,,
,,,,30723,001,2025-10-17_13h11.49.290,HW_LDT_1,2024.2.4,MacIntel,61.34969325,,,,,,,,,,,,,,,,,,,,79.7744,79.9722,79.9722,80.4722,,,,,,,,,,,,,,0.9531,1,,,,,,,,,,,,,,z,,,,,,,,,,,,,,,5,1,80.473,81.4389,z,1,0.9531,,[],[],[],[],[],[],[],81.4391,83.4389,83.439,87.3224,[],[],[],[],[],[],[],m,87.3224,87.3225,0.055108507,-0.363671875,0,0,0,,0,4,4,34,1,1,RL,samite,print,samite_p.png,3.8704,,,,
,,,,30723,001,2025-10-17_13h11.49.290,HW_LDT_1,2024.2.4,MacIntel,61.34969325,,,,,,,,,,,,,,,,,,,,87.324,87.5222,87.5222,88.0222,,,,,,,,,,,,,,1.104,1,,,,,,,,,,,,,,z,,,,,,,,,,,,,,,6,0,88.023,89.1389,z,1,1.104,,[],[],[],[],[],[],[],89.1391,91.139,91.139,91.1395,[],[],[],[],[],[],[],,91.1395,91.1398,0.055108507,-0.363671875,0,0,0,,0,5,5,13,1,1,RL,linefal,print,linefal_p.png,,,,,
,,,,30723,001,2025-10-17_13h11.49.290,HW_LDT_1,2024.2.4,MacIntel,61.34969325,,,,,,,,,,,,,,,,,,,,91.1411,91.3389,91.339,91.8388,,,,,,,,,,,,,,0.6863,0,,,,,,,,,,,,,,z,,,,,,,,,,,,,,,7,1,91.8396,92.539,m,0,0.6863,,[],[],[],[],[],[],[],92.5391,94.5389,94.539,96.0554,[],[],[],[],[],[],[],m,96.0555,96.0558,0.055108507,-0.363671875,0,0,0,,0,6,6,45,1,1,TL,cacapity,print,cacapity_p.png,1.5027,,,,
,,,,30723,001,2025-10-17_13h11.49.290,HW_LDT_1,2024.2.4,MacIntel,61.34969325,,,,,,,,,,,,,,,,,,,,96.0573,96.2555,96.2556,96.7555,,,,,,,,,,,,,,2.1627,1,,,,,,,,,,,,,,z,,,,,,,,,,,,,,,8,0,96.7562,98.9219,z,1,2.1627,,[],[],[],[],[],[],[],98.922,100.9222,100.9223,100.9225,[],[],[],[],[],[],[],,100.9225,100.9227,0.055108507,-0.363671875,0,0,0,,0,7,7,43,1,1,TL,bedise,print,bedise_p.png,,,,,
,,,,30723,001,2025-10-17_13h11.49.290,HW_LDT_1,2024.2.4,MacIntel,61.34969325,,,,,,,,,,,,,,,,,,,,100.9241,101.1222,101.1223,101.6217,,,,,,,,,,,,,,1.5234,1,,,,,,,,,,,,,,z,,,,,,,,,,,,,,,9,0,101.6225,103.155,z,1,1.5234,,[],[],[],[],[],[],[],103.1552,105.1555,105.1556,105.1559,[],[],[],[],[],[],[],,105.1559,105.1561,0.055108507,-0.363671875,0,0,0,,0,8,8,32,1,1,RL,rebicent,print,rebicent_p.png,,,,,
,,,,30723,001,2025-10-17_13h11.49.290,HW_LDT_1,2024.2.4,MacIntel,61.34969325,,,,,,,,,,,,,,,,,,,,105.1576,105.3556,105.3556,105.8555,,,,,,,,,,,,,,1.9217,1,,,,,,,,,,,,,,m,,,,,,,,,,,,,,,10,1,105.8563,107.789,m,1,1.9217,,[],[],[],[],[],[],[],107.7891,109.7889,109.7889,111.2555,[],[],[],[],[],[],[],z,111.2556,111.2557,0.055108507,-0.363671875,0,0,0,,0,9,9,93,1,1,word,CEREMONY,cursive,ceremony_c.png,1.4576,,,,
,,,,30723,001,2025-10-17_13h11.49.290,HW_LDT_1,2024.2.4,MacIntel,61.34969325,,,,,,,,,,,,,,,,,,,,111.2569,111.4555,111.4556,111.9555,,,,,,,,,,,,,,1.0648,1,,,,,,,,,,,,,,z,,,,,,,,,,,,,,,11,0,111.9562,113.0222,z,1,1.0648,,[],[],[],[],[],[],[],113.0224,115.0222,115.0222,115.0225,[],[],[],[],[],[],[],,115.0226,115.0229,0.055108507,-0.363671875,0,0,0,,0,10,10,22,1,1,RL,patisic,print,patisic_p.png,,,,,
,,,,30723,001,2025-10-17_13h11.49.290,HW_LDT_1,2024.2.4,MacIntel,61.34969325,,,,,,,,,,,,,,,,,,,,115.0243,115.2222,115.2223,115.7222,,,,,,,,,,,,,,2.3538,1,,,,,,,,,,,,,,z,,,,,,,,,,,,,,,12,1,115.7229,118.0889,z,1,2.3538,,[],[],[],[],[],[],[],118.089,120.0888,120.0889,121.2723,[],[],[],[],[],[],[],m,121.2723,121.2724,0.055108507,-0.363671875,0,0,0,,0,11,11,4,1,1,RL,carminal,print,carminal_p.png,1.1707,,,,
,,,,30723,001,2025-10-17_13h11.49.290,HW_LDT_1,2024.2.4,MacIntel,61.34969325,,,,,,,,,,,,,,,,,,,,121.2737,121.4722,121.4723,121.9722,,,,,,,,,,,,,,3.7975,1,,,,,,,,,,,,,,z,,,,,,,,,,,,,,,13,0,121.9729,125.7719,z,1,3.7975,,[],[],[],[],[],[],[],125.772,127.7722,127.7723,127.7725,[],[],[],[],[],[],[],,127.7726,127.7727,0.055108507,-0.363671875,0,0,0,,0,12,12,67,1,1,TL,pocily,cursive,pocily_c.png,,,,,
,,,,30723,001,2025-10-17_13h11.49.290,HW_LDT_1,2024.2.4,MacIntel,61.34969325,,,,,,,,,,,,,,,,,,,,127.7741,127.9722,127.9723,128.4722,,,,,,,,,,,,,,0.8029,1,,,,,,,,,,,,,,m,,,,,,,,,,,,,,,14,0,128.4729,129.2889,m,1,0.8029,,[],[],[],[],[],[],[],129.2889,131.2889,131.2889,131.2892,[],[],[],[],[],[],[],,131.2892,131.2894,0.055108507,-0.363671875,0,0,0,,0,13,13,115,1,1,word,LOGICAL,cursive,logical_c.png,,,,,
,,,,30723,001,2025-10-17_13h11.49.290,HW_LDT_1,2024.2.4,MacIntel,61.34969325,,,,,,,,,,,,,,,,,,,,131.2907,131.489,131.489,131.9889,,,,,,,,,,,,,,2.1696,1,,,,,,,,,,,,,,z,,,,,,,,,,,,,,,15,0,131.9896,134.1722,z,1,2.1696,,[],[],[],[],[],[],[],134.1723,136.1723,136.1724,136.1727,[],[],[],[],[],[],[],,136.1727,136.1728,0.055108507,-0.363671875,0,0,0,,0,14,14,79,1,1,TL,veretan,print,veretan_p.png,,,,,
,,,,30723,001,2025-10-17_13h11.49.290,HW_LDT_1,2024.2.4,MacIntel,61.34969325,,,,,,,,,,,,,,,,,,,,136.1742,136.3722,136.3722,136.8721,,,,,,,,,,,,,,1.2317,0,,,,,,,,,,,,,,z,,,,,,,,,,,,,,,16,0,136.8728,138.1057,m,0,1.2317,,[],[],[],[],[],[],[],138.1059,140.1056,140.1056,140.1057,[],[],[],[],[],[],[],,140.1058,140.1059,0.055108507,-0.363671875,0,0,0,,0,15,15,69,1,1,TL,radiply,cursive,radiply_c.png,,,,,
,,,,30723,001,2025-10-17_13h11.49.290,HW_LDT_1,2024.2.4,MacIntel,61.34969325,,,,,,,,,,,,,,,,,,,,140.1072,140.3056,140.3057,140.8055,,,,,,,,,,,,,,0.703,0,,,,,,,,,,,,,,z,,,,,,,,,,,,,,,17,0,140.8062,141.5222,m,0,0.703,,[],[],[],[],[],[],[],141.5223,143.5223,143.5223,143.5225,[],[],[],[],[],[],[],,143.5226,143.5228,0.055108507,-0.363671875,0,0,0,,0,16,16,61,1,1,TL,mecidine,cursive,mecidine_c.png,,,,,
,,,,30723,001,2025-10-17_13h11.49.290,HW_LDT_1,2024.2.4,MacIntel,61.34969325,,,,,,,,,,,,,,,,,,,,143.5243,143.7222,143.7223,144.2223,,,,,,,,,,,,,,0.7578,1,,,,,,,,,,,,,,m,,,,,,,,,,,,,,,18,0,144.2229,144.9889,m,1,0.7578,,[],[],[],[],[],[],[],144.989,146.9889,146.989,146.9892,[],[],[],[],[],[],[],,146.9893,146.9894,0.055108507,-0.363671875,0,0,0,,0,17,17,144,1,1,word,RESIDENT,print,resident_p.png,,,,,
,,,,30723,001,2025-10-17_13h11.49.290,HW_LDT_1,2024.2.4,MacIntel,61.34969325,,,,,,,,,,,,,,,,,,,,146.9909,147.1889,147.1889,147.6889,,,,,,,,,,,,,,3.2799,1,,,,,,,,,,,,,,z,,,,,,,,,,,,,,,19,0,147.6896,150.9722,z,1,3.2799,,[],[],[],[],[],[],[],150.9723,152.9723,152.9723,152.9727,[],[],[],[],[],[],[],,152.9728,152.9729,0.055108507,-0.363671875,0,0,0,,0,18,18,10,1,1,RL,efibor,cursive,efibor_c.png,,,,,
,,,,30723,001,2025-10-17_13h11.49.290,HW_LDT_1,2024.2.4,MacIntel,61.34969325,,,,,,,,,,,,,,,,,,,,152.9745,153.1722,153.1722,153.6722,,,,,,,,,,,,,,1.9212,1,,,,,,,,,,,,,,z,,,,,,,,,,,,,,,20,0,153.6728,155.6056,z,1,1.9212,,[],[],[],[],[],[],[],155.6057,157.6056,157.6057,157.6059,[],[],[],[],[],[],[],,157.606,157.6061,0.055108507,-0.363671875,0,0,0,,0,19,19,16,1,1,RL,marmipal,print,marmipal_p.png,,,,,
,,,,30723,001,2025-10-17_13h11.49.290,HW_LDT_1,2024.2.4,MacIntel,61.34969325,,,,,,,,,,,,,,,,,,,,157.6076,157.8056,157.8056,158.3056,,,,,,,,,,,,,,3.2558,1,,,,,,,,,,,,,,z,,,,,,,,,,,,,,,21,0,158.3063,161.5723,z,1,3.2558,,[],[],[],[],[],[],[],161.5723,163.5717,163.5717,163.5721,[],[],[],[],[],[],[],,163.5721,163.5723,0.055108507,-0.363671875,0,0,0,,0,20,20,58,1,1,TL,incidate,cursive,incidate_c.png,,,,,
,,,,30723,001,2025-10-17_13h11.49.290,HW_LDT_1,2024.2.4,MacIntel,61.34969325,,,,,,,,,,,,,,,,,,,,163.5739,163.7723,163.7723,164.2723,,,,,,,,,,,,,,0.6399,1,,,,,,,,,,,,,,m,,,,,,,,,,,,,,,22,0,164.2729,164.9222,m,1,0.6399,,[],[],[],[],[],[],[],164.9223,166.9223,166.9223,166.9227,[],[],[],[],[],[],[],,166.9228,166.9229,0.055108507,-0.363671875,0,0,0,,0,21,21,85,1,1,word,BENEFIT,print,benefit_p.png,,,,,
,,,,30723,001,2025-10-17_13h11.49.290,HW_LDT_1,2024.2.4,MacIntel,61.34969325,,,,,,,,,,,,,,,,,,,,166.9244,167.1222,167.1223,167.6222,,,,,,,,,,,,,,3.6555,1,,,,,,,,,,,,,,z,,,,,,,,,,,,,,,23,0,167.6229,171.2886,z,1,3.6555,,[],[],[],[],[],[],[],171.2888,173.2889,173.2891,173.2892,[],[],[],[],[],[],[],,173.2894,173.2894,0.055108507,-0.363671875,0,0,0,,0,22,22,9,1,1,RL,docirant,cursive,docirant_c.png,,,,,
,,,,30723,001,2025-10-17_13h11.49.290,HW_LDT_1,2024.2.4,MacIntel,61.34969325,,,,,,,,,,,,,,,,,,,,173.2912,173.4888,173.489,173.9889,,,,,,,,,,,,,,0.6234,1,,,,,,,,,,,,,,m,,,,,,,,,,,,,,,24,0,173.9897,174.6218,m,1,0.6234,,[],[],[],[],[],[],[],174.6219,176.6223,176.6224,176.6226,[],[],[],[],[],[],[],,176.6226,176.6228,0.055108507,-0.363671875,0,0,0,,0,23,23,120,1,1,word,MILITARY,print,military_p.png,,,,,
,,,,30723,001,2025-10-17_13h11.49.290,HW_LDT_1,2024.2.4,MacIntel,61.34969325,,,,,,,,,,,,,,,,,,,,176.6243,176.8223,176.8223,177.3223,,,,,,,,,,,,,,1.313,1,,,,,,,,,,,,,,m,,,,,,,,,,,,,,,25,1,177.323,178.6388,m,1,1.313,,[],[],[],[],[],[],[],178.6389,180.639,180.6391,182.6055,[],[],[],[],[],[],[],m,182.6056,182.6057,0.055108507,-0.363671875,0,0,0,,0,24,24,158,1,1,word,VELOCITY,print,velocity_p.png,1.9639,,,,
,,,,30723,001,2025-10-17_13h11.49.290,HW_LDT_1,2024.2.4,MacIntel,61.34969325,,,,,,,,,,,,,,,,,,,,182.6068,182.8056,182.8056,183.3055,,,,,,,,,,,,,,1.0488,1,,,,,,,,,,,,,,m,,,,,,,,,,,,,,,26,0,183.3062,184.3558,m,1,1.0488,,[],[],[],[],[],[],[],184.3559,186.3555,186.3555,186.3559,[],[],[],[],[],[],[],,186.356,186.3562,0.055108507,-0.363671875,0,0,0,,0,25,25,155,1,1,word,STRATEGY,cursive,strategy_c.png,,,,,
,,,,30723,001,2025-10-17_13h11.49.290,HW_LDT_1,2024.2.4,MacIntel,61.34969325,,,,,,,,,,,,,,,,,,,,186.3577,186.5555,186.5556,187.0556,,,,,,,,,,,,,,0.5883,1,,,,,,,,,,,,,,m,,,,,,,,,,,,,,,27,0,187.0563,187.6557,m,1,0.5883,,[],[],[],[],[],[],[],187.6558,189.6555,189.6556,189.656,[],[],[],[],[],[],[],,189.656,189.6561,0.055108507,-0.363671875,0,0,0,,0,26,26,139,1,1,word,REGULAR,print,regular_p.png,,,,,
,,,,30723,001,2025-10-17_13h11.49.290,HW_LDT_1,2024.2.4,MacIntel,61.34969325,,,,,,,,,,,,,,,,,,,,189.6576,189.8555,189.8557,190.3555,,,,,,,,,,,,,,1.0196,1,,,,,,,,,,,,,,m,,,,,,,,,,,,,,,28,0,190.3561,191.3889,m,1,1.0196,,[],[],[],[],[],[],[],191.389,193.3889,193.389,193.3891,[],[],[],[],[],[],[],,193.3892,193.3893,0.055108507,-0.363671875,0,0,0,,0,27,27,122,1,1,word,MOBILE,cursive,mobile_c.png,,,,,
,,,,30723,001,2025-10-17_13h11.49.290,HW_LDT_1,2024.2.4,MacIntel,61.34969325,,,,,,,,,,,,,,,,,,,,193.3909,193.589,193.589,194.0888,,,,,,,,,,,,,,0.6029,1,,,,,,,,,,,,,,m,,,,,,,,,,,,,,,29,0,194.0895,194.7057,m,1,0.6029,,[],[],[],[],[],[],[],194.7057,196.7056,196.7057,196.7059,[],[],[],[],[],[],[],,196.706,196.7061,0.055108507,-0.363671875,0,0,0,,0,28,28,159,1,1,word,VETERAN,print,veteran_p.png,,,,,
,,,,30723,001,2025-10-17_13h11.49.290,HW_LDT_1,2024.2.4,MacIntel,61.34969325,,,,,,,,,,,,,,,,,,,,196.7075,196.9056,196.9056,197.4056,,,,,,,,,,,,,,0.7359,0,,,,,,,,,,,,,,z,,,,,,,,,,,,,,,30,0,197.4063,198.1546,m,0,0.7359,,[],[],[],[],[],[],[],198.1547,200.1557,200.1557,200.1559,[],[],[],[],[],[],[],,200.156,200.1561,0.055108507,-0.363671875,0,0,0,,0,29,29,49,1,1,TL,clicinal,cursive,clicinal_c.png,,,,,
,,,,30723,001,2025-10-17_13h11.49.290,HW_LDT_1,2024.2.4,MacIntel,61.34969325,,,,,,,,,,,,,,,,,,,,200.1577,200.3555,200.3556,200.8546,,,,,,,,,,,,,,1.5196,1,,,,,,,,,,,,,,z,,,,,,,,,,,,,,,31,0,200.8551,202.3879,z,1,1.5196,,[],[],[],[],[],[],[],202.388,204.389,204.389,204.3892,[],[],[],[],[],[],[],,204.3893,204.3894,0.055108507,-0.363671875,0,0,0,,0,30,30,31,1,1,RL,reconal,cursive,reconal_c.png,,,,,
,,,,30723,001,2025-10-17_13h11.49.290,HW_LDT_1,2024.2.4,MacIntel,61.34969325,,,,,,,,,,,,,,,,,,,,204.391,204.5889,204.5889,205.0889,,,,,,,,,,,,,,3.036,1,,,,,,,,,,,,,,z,,,,,,,,,,,,,,,32,0,205.0896,208.139,z,1,3.036,,[],[],[],[],[],[],[],208.1391,210.1387,210.1388,210.139,[],[],[],[],[],[],[],,210.1391,210.1392,0.055108507,-0.363671875,0,0,0,,0,31,31,53,1,1,TL,dentisy,cursive,dentisy_c.png,,,,,
,,,,30723,001,2025-10-17_13h11.49.290,HW_LDT_1,2024.2.4,MacIntel,61.34969325,,,,,,,,,,,,,,,,,,,,210.1407,210.3378,210.338,210.8389,,,,,,,,,,,,,,3.9479,1,,,,,,,,,,,,,,z,,,,,,,,,,,,,,,33,0,210.8396,214.7889,z,1,3.9479,,[],[],[],[],[],[],[],214.7891,216.789,216.789,216.7892,[],[],[],[],[],[],[],,216.7892,216.7894,0.055108507,-0.363671875,0,0,0,,0,32,32,59,1,1,TL,lirebal,cursive,lirebal_c.png,,,,,
,,,,30723,001,2025-10-17_13h11.49.290,HW_LDT_1,2024.2.4,MacIntel,61.34969325,,,,,,,,,,,,,,,,,,,,216.7909,216.9879,216.988,217.4889,,,,,,,,,,,,,,3.4853,1,,,,,,,,,,,,,,z,,,,,,,,,,,,,,,34,0,217.4895,220.989,z,1,3.4853,,[],[],[],[],[],[],[],220.9891,222.989,222.9891,222.9893,[],[],[],[],[],[],[],,222.9894,222.9895,0.055108507,-0.363671875,0,0,0,,0,33,33,17,1,1,RL,menowy,cursive,menowy_c.png,,,,,
,,,,30723,001,2025-10-17_13h11.49.290,HW_LDT_1,2024.2.4,MacIntel,61.34969325,,,,,,,,,,,,,,,,,,,,222.991,223.1889,223.189,223.6884,,,,,,,,,,,,,,1.9861,1,,,,,,,,,,,,,,m,,,,,,,,,,,,,,,35,0,223.6892,225.6891,m,1,1.9861,,[],[],[],[],[],[],[],225.6892,227.6886,227.6887,227.6888,[],[],[],[],[],[],[],,227.6889,227.689,0.055108507,-0.363671875,0,0,0,,0,34,34,91,1,1,word,CARDINAL,print,cardinal_p.png,,,,,
,,,,30723,001,2025-10-17_13h11.49.290,HW_LDT_1,2024.2.4,MacIntel,61.34969325,,,,,,,,,,,,,,,,,,,,227.6904,227.8888,227.8889,228.389,,,,,,,,,,,,,,1.0538,1,,,,,,,,,,,,,,m,,,,,,,,,,,,,,,36,0,228.3897,229.4547,m,1,1.0538,,[],[],[],[],[],[],[],229.4549,231.4546,231.4547,231.4548,[],[],[],[],[],[],[],,231.4549,231.4549,0.104006076,-0.275117188,0,0,0,,0,35,35,148,1,1,word,SALINE,print,saline_p.png,,,,,
,,,,30723,001,2025-10-17_13h11.49.290,HW_LDT_1,2024.2.4,MacIntel,61.34969325,,,,,,,,,,,,,,,,,,,,231.4561,231.6546,231.6546,232.1557,,,,,,,,,,,,,,2.2958,1,,,,,,,,,,,,,,m,,,,,,,,,,,,,,,37,0,232.1564,234.4555,m,1,2.2958,,[],[],[],[],[],[],[],234.4556,236.4556,236.4557,236.4559,[],[],[],[],[],[],[],,236.4561,236.4562,0.104006076,-0.275117188,0,0,0,,0,36,36,116,1,1,word,MARGINAL,print,marginal_p.png,,,,,
,,,,30723,001,2025-10-17_13h11.49.290,HW_LDT_1,2024.2.4,MacIntel,61.34969325,,,,,,,,,,,,,,,,,,,,236.4579,236.6556,236.6557,237.1557,,,,,,,,,,,,,,4.3185,1,,,,,,,,,,,,,,m,,,,,,,,,,,,,,,38,0,237.1563,241.4885,m,1,4.3185,,[],[],[],[],[],[],[],241.4886,243.488,243.488,243.4882,[],[],[],[],[],[],[],,243.4882,243.4883,0.3715625,-0.307482639,0,0,0,,0,37,37,89,1,1,word,CAPACITY,print,capacity_p.png,,,,,
,,,,30723,001,2025-10-17_13h11.49.290,HW_LDT_1,2024.2.4,MacIntel,61.34969325,,,,,,,,,,,,,,,,,,,,243.4896,243.6889,243.6889,244.188,,,,,,,,,,,,,,1.2207,0,,,,,,,,,,,,,,z,,,,,,,,,,,,,,,39,0,244.1887,245.4223,m,0,1.2207,,[],[],[],[],[],[],[],245.4223,247.4224,247.4225,247.4227,[],[],[],[],[],[],[],,247.4228,247.4229,0.3715625,-0.307482639,0,0,0,,0,38,38,27,1,1,RL,rasibal,print,rasibal_p.png,,,,,
,,,,30723,001,2025-10-17_13h11.49.290,HW_LDT_1,2024.2.4,MacIntel,61.34969325,,,,,,,,,,,,,,,,,,,,247.4244,247.6213,247.6214,248.1223,,,,,,,,,,,,,,4.0048,1,,,,,,,,,,,,,,z,,,,,,,,,,,,,,,40,0,248.123,252.139,z,1,4.0048,,[],[],[],[],[],[],[],252.1392,254.139,254.139,254.1394,[],[],[],[],[],[],[],,254.1394,254.1394,0.3715625,-0.307482639,0,0,0,,0,39,39,73,1,1,TL,ronamtic,cursive,ronamtic_c.png,,,,,
,,,,30723,001,2025-10-17_13h11.49.290,HW_LDT_1,2024.2.4,MacIntel,61.34969325,,,,,,,,,,,,,,,,,,,,254.1411,254.3389,254.339,254.839,,,,,,,,,,,,,,1.4154,1,,,,,,,,,,,,,,z,,,,,,,,,,,,,,,41,0,254.8398,256.256,z,1,1.4154,,[],[],[],[],[],[],[],256.2561,258.2557,258.2558,258.256,[],[],[],[],[],[],[],,258.2561,258.2562,0.3715625,-0.307482639,0,0,0,,0,40,40,11,1,1,RL,elacodate,print,elacodate_p.png,,,,,
,,,,30723,001,2025-10-17_13h11.49.290,HW_LDT_1,2024.2.4,MacIntel,61.34969325,,,,,,,,,,,,,,,,,,,,258.2579,258.4547,258.4547,258.9556,,,,,,,,,,,,,,0.689,1,,,,,,,,,,,,,,m,,,,,,,,,,,,,,,42,0,258.9564,259.6548,m,1,0.689,,[],[],[],[],[],[],[],259.6548,261.6556,261.6556,261.6559,[],[],[],[],[],[],[],,261.6559,261.6561,0.3715625,-0.307482639,0,0,0,,0,41,41,82,1,1,word,AMATEUR,print,amateur_p.png,,,,,
,,,,30723,001,2025-10-17_13h11.49.290,HW_LDT_1,2024.2.4,MacIntel,61.34969325,,,,,,,,,,,,,,,,,,,,261.6573,261.8556,261.8557,262.3556,,,,,,,,,,,,,,1.8364,1,,,,,,,,,,,,,,z,,,,,,,,,,,,,,,43,0,262.3563,264.2056,z,1,1.8364,,[],[],[],[],[],[],[],264.2058,266.2057,266.2058,266.2059,[],[],[],[],[],[],[],,266.206,266.2061,0.3715625,-0.307482639,0,0,0,,0,42,42,20,1,1,RL,nunewical,print,nunewical_p.png,,,,,
,,,,30723,001,2025-10-17_13h11.49.290,HW_LDT_1,2024.2.4,MacIntel,61.34969325,,,,,,,,,,,,,,,,,,,,266.2077,266.4045,266.4046,266.9056,,,,,,,,,,,,,,0.8059,1,,,,,,,,,,,,,,m,,,,,,,,,,,,,,,44,0,266.9063,267.7212,m,1,0.8059,,[],[],[],[],[],[],[],267.7213,269.7223,269.7223,269.7226,[],[],[],[],[],[],[],,269.7226,269.7227,0.3715625,-0.307482639,0,0,0,,0,43,43,106,1,1,word,ELABORATE,print,elaborate_p.png,,,,,
,,,,30723,001,2025-10-17_13h11.49.290,HW_LDT_1,2024.2.4,MacIntel,61.34969325,,,,,,,,,,,,,,,,,,,,269.7243,269.9223,269.9224,270.4221,,,,,,,,,,,,,,0.9195,1,,,,,,,,,,,,,,z,,,,,,,,,,,,,,,45,0,270.4227,271.3556,z,1,0.9195,,[],[],[],[],[],[],[],271.3558,273.3557,273.3558,273.356,[],[],[],[],[],[],[],,273.3561,273.3562,0.3715625,-0.307482639,0,0,0,,0,44,44,21,1,1,RL,opcifal,print,opcifal_p.png,,,,,
,,,,30723,001,2025-10-17_13h11.49.290,HW_LDT_1,2024.2.4,MacIntel,61.34969325,,,,,,,,,,,,,,,,,,,,273.3577,273.5556,273.5557,274.0557,,,,,,,,,,,,,,0.6909,1,,,,,,,,,,,,,,m,,,,,,,,,,,,,,,46,0,274.0564,274.7557,m,1,0.6909,,[],[],[],[],[],[],[],274.7557,276.7556,276.7557,276.7559,[],[],[],[],[],[],[],,276.756,276.7561,0.3715625,-0.307482639,0,0,0,,0,45,45,80,1,1,word,ACADEMY,cursive,academy_c.png,,,,,
,,,,30723,001,2025-10-17_13h11.49.290,HW_LDT_1,2024.2.4,MacIntel,61.34969325,,,,,,,,,,,,,,,,,,,,276.7576,276.9556,276.9557,277.4556,,,,,,,,,,,,,,0.6068,0,,,,,,,,,,,,,,z,,,,,,,,,,,,,,,47,0,277.4563,278.0713,m,0,0.6068,,[],[],[],[],[],[],[],278.0714,280.0723,280.0723,280.0725,[],[],[],[],[],[],[],,280.0727,280.0727,0.3715625,-0.307482639,0,0,0,,0,46,46,78,1,1,TL,vecolity,print,vecolity_p.png,,,,,
,,,,30723,001,2025-10-17_13h11.49.290,HW_LDT_1,2024.2.4,MacIntel,61.34969325,,,,,,,,,,,,,,,,,,,,280.0742,280.2723,280.2724,280.7724,,,,,,,,,,,,,,1.9465,1,,,,,,,,,,,,,,z,,,,,,,,,,,,,,,48,0,280.773,282.7222,z,1,1.9465,,[],[],[],[],[],[],[],282.7223,284.7222,284.7223,284.7225,[],[],[],[],[],[],[],,284.7226,284.7228,0.3715625,-0.307482639,0,0,0,,0,47,47,37,1,1,RL,skofen,print,skofen_p.png,,,,,
,,,,30723,001,2025-10-17_13h11.49.290,HW_LDT_1,2024.2.4,MacIntel,61.34969325,,,,,,,,,,,,,,,,,,,,284.7242,284.9223,284.9223,285.4223,,,,,,,,,,,,,,3.5694,1,,,,,,,,,,,,,,z,,,,,,,,,,,,,,,49,0,285.423,289.0051,z,1,3.5694,,[],[],[],[],[],[],[],289.0052,291.0057,291.0058,291.006,[],[],[],[],[],[],[],,291.0061,291.0062,0.3715625,-0.307482639,0,0,0,,0,48,48,25,1,1,RL,quakity,cursive,quakity_c.png,,,,,
,,,,30723,001,2025-10-17_13h11.49.290,HW_LDT_1,2024.2.4,MacIntel,61.34969325,,,,,,,,,,,,,,,,,,,,291.0076,291.2056,291.2057,291.7057,,,,,,,,,,,,,,0.9692,1,,,,,,,,,,,,,,z,,,,,,,,,,,,,,,50,0,291.7063,292.6889,z,1,0.9692,,[],[],[],[],[],[],[],292.689,294.6889,294.689,294.6892,[],[],[],[],[],[],[],,294.6892,294.6893,0.3715625,-0.307482639,0,0,0,,0,49,49,8,1,1,RL,debave,print,debave_p.png,,,,,
,,,,30723,001,2025-10-17_13h11.49.290,HW_LDT_1,2024.2.4,MacIntel,61.34969325,,,,,,,,,,,,,,,,,,,,294.6907,294.8892,294.8892,295.3889,,,,,,,,,,,,,,0.7457,1,,,,,,,,,,,,,,m,,,,,,,,,,,,,,,51,1,295.3897,296.1389,m,1,0.7457,,[],[],[],[],[],[],[],296.1389,298.139,298.1391,300.0723,[],[],[],[],[],[],[],m,300.0725,300.0725,0.3715625,-0.307482639,0,0,0,,0,50,50,109,1,1,word,GRATEFUL,print,grateful_p.png,1.9203,,,,
,,,,30723,001,2025-10-17_13h11.49.290,HW_LDT_1,2024.2.4,MacIntel,61.34969325,,,,,,,,,,,,,,,,,,,,300.0739,300.2722,300.2723,300.7724,,,,,,,,,,,,,,4.7361,0,,,,,,,,,,,,,,z,,,,,,,,,,,,,,,52,0,300.773,305.5225,m,0,4.7361,,[],[],[],[],[],[],[],305.5226,307.5225,307.5225,307.5227,[],[],[],[],[],[],[],,307.5228,307.5228,0.3715625,-0.307482639,0,0,0,,0,51,51,35,1,1,RL,senvilent,cursive,senvilent_c.png,,,,,
,,,,30723,001,2025-10-17_13h11.49.290,HW_LDT_1,2024.2.4,MacIntel,61.34969325,,,,,,,,,,,,,,,,,,,,307.5244,307.7223,307.7223,308.2222,,,,,,,,,,,,,,3.3068,1,,,,,,,,,,,,,,z,,,,,,,,,,,,,,,53,0,308.2231,311.5391,z,1,3.3068,,[],[],[],[],[],[],[],311.5392,313.539,313.5391,313.5393,[],[],[],[],[],[],[],,313.5394,313.5395,0.3715625,-0.307482639,0,0,0,,0,52,52,48,1,1,TL,cemerony,cursive,cemerony_c.png,,,,,
,,,,30723,001,2025-10-17_13h11.49.290,HW_LDT_1,2024.2.4,MacIntel,61.34969325,,,,,,,,,,,,,,,,,,,,313.541,313.739,313.7391,314.239,,,,,,,,,,,,,,1.1712,1,,,,,,,,,,,,,,z,,,,,,,,,,,,,,,54,0,314.2397,315.4223,z,1,1.1712,,[],[],[],[],[],[],[],315.4224,317.4223,317.4223,317.4226,[],[],[],[],[],[],[],,317.4226,317.4228,0.3715625,-0.307482639,0,0,0,,0,53,53,72,1,1,TL,remuse,print,remuse_p.png,,,,,
,,,,30723,001,2025-10-17_13h11.49.290,HW_LDT_1,2024.2.4,MacIntel,61.34969325,,,,,,,,,,,,,,,,,,,,317.4243,317.6223,317.6223,318.1224,,,,,,,,,,,,,,1.1691,1,,,,,,,,,,,,,,z,,,,,,,,,,,,,,,55,0,318.123,319.3057,z,1,1.1691,,[],[],[],[],[],[],[],319.3058,321.3058,321.3058,321.306,[],[],[],[],[],[],[],,321.3061,321.3062,0.3715625,-0.307482639,0,0,0,,0,54,54,60,1,1,TL,manire,print,manire_p.png,,,,,
,,,,30723,001,2025-10-17_13h11.49.290,HW_LDT_1,2024.2.4,MacIntel,61.34969325,,,,,,,,,,,,,,,,,,,,321.3077,321.5053,321.5053,322.0057,,,,,,,,,,,,,,1.474,1,,,,,,,,,,,,,,m,,,,,,,,,,,,,,,56,0,322.0063,323.489,m,1,1.474,,[],[],[],[],[],[],[],323.4891,325.489,325.4891,325.4893,[],[],[],[],[],[],[],,325.4894,325.4896,0.3715625,-0.307482639,0,0,0,,0,55,55,108,1,1,word,FORTUNE,print,fortune_p.png,,,,,
,,,,30723,001,2025-10-17_13h11.49.290,HW_LDT_1,2024.2.4,MacIntel,61.34969325,,,,,,,,,,,,,,,,,,,,325.491,325.689,325.6891,326.1891,,,,,,,,,,,,,,0.5805,1,,,,,,,,,,,,,,m,,,,,,,,,,,,,,,57,0,326.1897,326.7723,m,1,0.5805,,[],[],[],[],[],[],[],326.7723,328.7724,328.7724,328.7727,[],[],[],[],[],[],[],,328.7727,328.7728,0.3715625,-0.307482639,0,0,0,,0,56,56,90,1,1,word,CAPITAL,print,capital_p.png,,,,,
,,,,30723,001,2025-10-17_13h11.49.290,HW_LDT_1,2024.2.4,MacIntel,61.34969325,,,,,,,,,,,,,,,,,,,,328.7743,328.9723,328.9723,329.4723,,,,,,,,,,,,,,1.7988,1,,,,,,,,,,,,,,z,,,,,,,,,,,,,,,58,0,329.473,331.2727,z,1,1.7988,,[],[],[],[],[],[],[],331.2728,333.2724,333.2724,333.2726,[],[],[],[],[],[],[],,333.2727,333.2727,0.3715625,-0.307482639,0,0,0,,0,57,57,64,1,1,TL,orepator,cursive,orepator_c.png,,,,,
,,,,30723,001,2025-10-17_13h11.49.290,HW_LDT_1,2024.2.4,MacIntel,61.34969325,,,,,,,,,,,,,,,,,,,,333.2742,333.4724,333.4724,333.9723,,,,,,,,,,,,,,0.87,1,,,,,,,,,,,,,,m,,,,,,,,,,,,,,,59,0,333.9728,334.8557,m,1,0.87,,[],[],[],[],[],[],[],334.8558,336.8557,336.8558,336.856,[],[],[],[],[],[],[],,336.856,336.8561,0.3715625,-0.307482639,0,0,0,,0,58,58,112,1,1,word,LIBERAL,cursive,liberal_c.png,,,,,
,,,,30723,001,2025-10-17_13h11.49.290,HW_LDT_1,2024.2.4,MacIntel,61.34969325,,,,,,,,,,,,,,,,,,,,336.8576,337.0557,337.0557,337.5557,,,,,,,,,,,,,,0.6295,1,,,,,,,,,,,,,,m,,,,,,,,,,,,,,,60,0,337.5564,338.189,m,1,0.6295,,[],[],[],[],[],[],[],338.189,340.1891,340.1891,340.1893,[],[],[],[],[],[],[],,340.1893,340.1895,0.3715625,-0.307482639,0,0,0,,0,59,59,96,1,1,word,CONSIDER,cursive,consider_c.png,,,,,
,,,,30723,001,2025-10-17_13h11.49.290,HW_LDT_1,2024.2.4,MacIntel,61.34969325,,,,,,,,,,,,,,,,,,,,340.191,340.389,340.3891,340.889,,,,,,,,,,,,,,0.9576,0,,,,,,,,,,,,,,z,,,,,,,,,,,,,,,61,1,340.8897,341.8556,m,0,0.9576,,[],[],[],[],[],[],[],341.8558,343.8557,343.8558,344.9891,[],[],[],[],[],[],[],z,344.9892,344.9892,0.3715625,-0.307482639,0,0,0,,0,60,60,71,1,1,TL,regilion,cursive,regilion_c.png,1.1206,,,,
,,,,30723,001,2025-10-17_13h11.49.290,HW_LDT_1,2024.2.4,MacIntel,61.34969325,,,,,,,,,,,,,,,,,,,,344.9906,345.189,345.1891,345.6885,,,,,,,,,,,,,,1.3549,1,,,,,,,,,,,,,,m,,,,,,,,,,,,,,,62,0,345.689,347.0557,m,1,1.3549,,[],[],[],[],[],[],[],347.0559,349.0557,349.0558,349.056,[],[],[],[],[],[],[],,349.056,349.0561,0.3715625,-0.307482639,0,0,0,,0,61,61,130,1,1,word,POLICY,cursive,policy_c.png,,,,,
,,,,30723,001,2025-10-17_13h11.49.290,HW_LDT_1,2024.2.4,MacIntel,61.34969325,,,,,,,,,,,,,,,,,,,,349.0578,349.2556,349.2557,349.7557,,,,,,,,,,,,,,0.6798,1,,,,,,,,,,,,,,m,,,,,,,,,,,,,,,63,1,349.7563,350.4384,m,1,0.6798,,[],[],[],[],[],[],[],350.4384,352.439,352.4391,355.8721,[],[],[],[],[],[],[],m,355.8721,355.8723,0.3715625,-0.307482639,0,0,0,,0,62,62,145,1,1,word,RESUME,print,resume_p.png,3.4217,,,,
,,,,30723,001,2025-10-17_13h11.49.290,HW_LDT_1,2024.2.4,MacIntel,61.34969325,,,,,,,,,,,,,,,,,,,,355.8736,356.0724,356.0724,356.5725,,,,,,,,,,,,,,1.5888,1,,,,,,,,,,,,,,m,,,,,,,,,,,,,,,64,1,356.573,358.1724,m,1,1.5888,,[],[],[],[],[],[],[],358.1725,360.1724,360.1725,361.1058,[],[],[],[],[],[],[],z,361.1059,361.1061,0.3715625,-0.307482639,0,0,0,,0,63,63,81,1,1,word,ADVISORY,cursive,advisory_c.png,0.9208,,,,
,,,,30723,001,2025-10-17_13h11.49.290,HW_LDT_1,2024.2.4,MacIntel,61.34969325,,,,,,,,,,,,,,,,,,,,361.1075,361.3057,361.3058,361.8057,,,,,,,,,,,,,,2.6197,0,,,,,,,,,,,,,,m,,,,,,,,,,,,,,,65,0,361.8064,364.439,z,0,2.6197,,[],[],[],[],[],[],[],364.4391,366.439,366.439,366.4392,[],[],[],[],[],[],[],,366.4393,366.4394,0.3715625,-0.307482639,0,0,0,,0,64,64,88,1,1,word,CAMERA,cursive,camera_c.png,,,,,
,,,,30723,001,2025-10-17_13h11.49.290,HW_LDT_1,2024.2.4,MacIntel,61.34969325,,,,,,,,,,,,,,,,,,,,366.441,366.639,366.6391,367.1392,,,,,,,,,,,,,,0.6148,0,,,,,,,,,,,,,,z,,,,,,,,,,,,,,,66,1,367.1399,367.7559,m,0,0.6148,,[],[],[],[],[],[],[],367.756,369.7558,369.7558,371.1224,[],[],[],[],[],[],[],m,371.1224,371.1226,0.3715625,-0.307482639,0,0,0,,0,65,65,41,1,1,TL,bevoled,print,bevoled_p.png,1.3661,,,,
,,,,30723,001,2025-10-17_13h11.49.290,HW_LDT_1,2024.2.4,MacIntel,61.34969325,,,,,,,,,,,,,,,,,,,,371.1238,371.3224,371.3225,371.8225,,,,,,,,,,,,,,1.5864,1,,,,,,,,,,,,,,m,,,,,,,,,,,,,,,67,0,371.8231,373.4224,m,1,1.5864,,[],[],[],[],[],[],[],373.4225,375.4224,375.4224,375.4226,[],[],[],[],[],[],[],,375.4227,375.4229,0.3715625,-0.307482639,0,0,0,,0,66,66,124,1,1,word,NUMERICAL,print,numerical_p.png,,,,,
,,,,30723,001,2025-10-17_13h11.49.290,HW_LDT_1,2024.2.4,MacIntel,61.34969325,,,,,,,,,,,,,,,,,,,,375.4243,375.6224,375.6224,376.1225,,,,,,,,,,,,,,0.9196,1,,,,,,,,,,,,,,m,,,,,,,,,,,,,,,68,0,376.1232,377.0557,m,1,0.9196,,[],[],[],[],[],[],[],377.0559,379.0558,379.0558,379.0561,[],[],[],[],[],[],[],,379.0561,379.0563,0.3715625,-0.307482639,0,0,0,,0,67,67,121,1,1,word,MISTAKE,print,mistake_p.png,,,,,
,,,,30723,001,2025-10-17_13h11.49.290,HW_LDT_1,2024.2.4,MacIntel,61.34969325,,,,,,,,,,,,,,,,,,,,379.0579,379.2558,379.2558,379.7557,,,,,,,,,,,,,,4.1864,0,,,,,,,,,,,,,,m,,,,,,,,,,,,,,,69,0,379.7564,383.9556,z,0,4.1864,,[],[],[],[],[],[],[],383.9558,385.9555,385.9555,385.9556,[],[],[],[],[],[],[],,385.9557,385.9558,0.3715625,-0.307482639,0,0,0,,0,68,68,149,1,1,word,SENATOR,cursive,senator_c.png,,,,,
,,,,30723,001,2025-10-17_13h11.49.290,HW_LDT_1,2024.2.4,MacIntel,61.34969325,,,,,,,,,,,,,,,,,,,,385.957,386.1557,386.1557,386.6557,,,,,,,,,,,,,,2.0734,1,,,,,,,,,,,,,,m,,,,,,,,,,,,,,,70,0,386.6565,388.739,m,1,2.0734,,[],[],[],[],[],[],[],388.7391,390.7383,390.7384,390.7385,[],[],[],[],[],[],[],,390.7386,390.7388,0.3715625,-0.307482639,0,0,0,,0,69,69,135,1,1,word,QUALITY,cursive,quality_c.png,,,,,
,,,,30723,001,2025-10-17_13h11.49.290,HW_LDT_1,2024.2.4,MacIntel,61.34969325,,,,,,,,,,,,,,,,,,,,390.7403,390.939,390.9391,391.439,,,,,,,,,,,,,,1.5698,1,,,,,,,,,,,,,,z,,,,,,,,,,,,,,,71,0,391.4397,393.022,z,1,1.5698,,[],[],[],[],[],[],[],393.0222,395.0224,395.0224,395.0227,[],[],[],[],[],[],[],,395.0227,395.0229,0.3715625,-0.307482639,0,0,0,,0,70,70,7,1,1,RL,delahe,print,delahe_p.png,,,,,
,,,,30723,001,2025-10-17_13h11.49.290,HW_LDT_1,2024.2.4,MacIntel,61.34969325,,,,,,,,,,,,,,,,,,,,395.0244,395.2224,395.2224,395.7225,,,,,,,,,,,,,,0.8696,1,,,,,,,,,,,,,,z,,,,,,,,,,,,,,,72,1,395.7231,396.6059,z,1,0.8696,,[],[],[],[],[],[],[],396.606,398.6057,398.6057,400.0224,[],[],[],[],[],[],[],m,400.0225,400.0226,0.3715625,-0.307482639,0,0,0,,0,71,71,5,1,1,RL,cobeny,cursive,cobeny_c.png,1.4063,,,,
,,,,30723,001,2025-10-17_13h11.49.290,HW_LDT_1,2024.2.4,MacIntel,61.34969325,,,,,,,,,,,,,,,,,,,,400.0238,400.2224,400.2225,400.7224,,,,,,,,,,,,,,0.8053,1,,,,,,,,,,,,,,m,,,,,,,,,,,,,,,73,0,400.723,401.539,m,1,0.8053,,[],[],[],[],[],[],[],401.5391,403.5391,403.5391,403.5394,[],[],[],[],[],[],[],,403.5394,403.5395,0.3715625,-0.307482639,0,0,0,,0,72,72,113,1,1,word,LITERAL,print,literal_p.png,,,,,
,,,,30723,001,2025-10-17_13h11.49.290,HW_LDT_1,2024.2.4,MacIntel,61.34969325,,,,,,,,,,,,,,,,,,,,403.541,403.7391,403.7392,404.239,,,,,,,,,,,,,,1.6528,0,,,,,,,,,,,,,,m,,,,,,,,,,,,,,,74,0,404.2397,405.9057,z,0,1.6528,,[],[],[],[],[],[],[],405.9058,407.9057,407.9057,407.906,[],[],[],[],[],[],[],,407.9061,407.9063,0.3715625,-0.307482639,0,0,0,,0,73,73,140,1,1,word,RELATIVE,cursive,relative_c.png,,,,,
,,,,30723,001,2025-10-17_13h11.49.290,HW_LDT_1,2024.2.4,MacIntel,61.34969325,,,,,,,,,,,,,,,,,,,,407.9077,408.1057,408.1058,408.6058,,,,,,,,,,,,,,4.0696,1,,,,,,,,,,,,,,z,,,,,,,,,,,,,,,75,0,408.6064,412.689,z,1,4.0696,,[],[],[],[],[],[],[],412.6891,414.6886,414.6887,414.689,[],[],[],[],[],[],[],,414.6891,414.6892,0.3715625,-0.307482639,0,0,0,,0,74,74,2,1,1,RL,asiral,print,asiral_p.png,,,,,
,,,,30723,001,2025-10-17_13h11.49.290,HW_LDT_1,2024.2.4,MacIntel,61.34969325,,,,,,,,,,,,,,,,,,,,414.6907,414.8887,414.8887,415.3891,,,,,,,,,,,,,,1.6124,1,,,,,,,,,,,,,,z,,,,,,,,,,,,,,,76,0,415.3899,417.0057,z,1,1.6124,,[],[],[],[],[],[],[],417.0058,419.0057,419.0059,419.0061,[],[],[],[],[],[],[],,419.0061,419.0062,0.3715625,-0.307482639,0,0,0,,0,75,75,29,1,1,RL,refakive,cursive,refakive_c.png,,,,,
,,,,30723,001,2025-10-17_13h11.49.290,HW_LDT_1,2024.2.4,MacIntel,61.34969325,,,,,,,,,,,,,,,,,,,,419.0078,419.2057,419.2058,419.7058,,,,,,,,,,,,,,0.7195,1,,,,,,,,,,,,,,m,,,,,,,,,,,,,,,77,0,419.7064,420.4391,m,1,0.7195,,[],[],[],[],[],[],[],420.4392,422.4391,422.4391,422.4393,[],[],[],[],[],[],[],,422.4394,422.4395,0.3715625,-0.307482639,0,0,0,,0,76,76,118,1,1,word,MEDICINE,cursive,medicine_c.png,,,,,
,,,,30723,001,2025-10-17_13h11.49.290,HW_LDT_1,2024.2.4,MacIntel,61.34969325,,,,,,,,,,,,,,,,,,,,422.441,422.6391,422.6391,423.139,,,,,,,,,,,,,,0.8363,1,,,,,,,,,,,,,,z,,,,,,,,,,,,,,,78,0,423.1397,423.9891,z,1,0.8363,,[],[],[],[],[],[],[],423.9892,425.9891,425.9892,425.9894,[],[],[],[],[],[],[],,425.9894,425.9895,0.3715625,-0.307482639,0,0,0,,0,77,77,19,1,1,RL,monebate,print,monebate_p.png,,,,,
,,,,30723,001,2025-10-17_13h11.49.290,HW_LDT_1,2024.2.4,MacIntel,61.34969325,,,,,,,,,,,,,,,,,,,,425.9911,426.189,426.1891,426.6891,,,,,,,,,,,,,,1.5194,1,,,,,,,,,,,,,,m,,,,,,,,,,,,,,,79,0,426.6898,428.2217,m,1,1.5194,,[],[],[],[],[],[],[],428.2218,430.2224,430.2225,430.2227,[],[],[],[],[],[],[],,430.2227,430.2229,0.3715625,-0.307482639,0,0,0,,0,78,78,152,1,1,word,SPECIMEN,cursive,specimen_c.png,,,,,
,,,,30723,001,2025-10-17_13h11.49.290,HW_LDT_1,2024.2.4,MacIntel,61.34969325,,,,,,,,,,,,,,,,,,,,430.2244,430.4224,430.4224,430.9224,,,,,,,,,,,,,,1.0695,1,,,,,,,,,,,,,,m,,,,,,,,,,,,,,,80,1,430.9231,432.0057,m,1,1.0695,,[],[],[],[],[],[],[],432.0058,434.0058,434.0058,436.0723,[],[],[],[],[],[],[],z,436.0724,438.6715,0.048020833,-0.435642361,1,0,0,,0,79,79,104,1,1,word,DOMINANT,cursive,dominant_c.png,2.0639,,break_done_button,,
,,,,30723,001,2025-10-17_13h11.49.290,HW_LDT_1,2024.2.4,MacIntel,61.34969325,,,,,,,,,,,,,,,,,,,,438.6729,438.8712,438.8713,439.3724,,,,,,,,,,,,,,2.0696,1,,,,,,,,,,,,,,z,,,,,,,,,,,,,,,81,0,439.373,441.4558,z,1,2.0696,,[],[],[],[],[],[],[],441.4559,443.4558,443.4559,443.4561,[],[],[],[],[],[],[],,443.4561,443.4563,0.295794271,-0.317547743,0,0,0,,0,80,80,65,1,1,TL,orinigal,cursive,orinigal_c.png,,,,,
,,,,30723,001,2025-10-17_13h11.49.290,HW_LDT_1,2024.2.4,MacIntel,61.34969325,,,,,,,,,,,,,,,,,,,,443.4578,443.6559,443.6559,444.1558,,,,,,,,,,,,,,0.5695,1,,,,,,,,,,,,,,m,,,,,,,,,,,,,,,82,0,444.1564,444.7391,m,1,0.5695,,[],[],[],[],[],[],[],444.7392,446.739,446.7391,446.7394,[],[],[],[],[],[],[],,446.7395,446.7395,0.295794271,-0.317547743,0,0,0,,0,81,81,98,1,1,word,CRIMINAL,print,criminal_p.png,,,,,
,,,,30723,001,2025-10-17_13h11.49.290,HW_LDT_1,2024.2.4,MacIntel,61.34969325,,,,,,,,,,,,,,,,,,,,446.7411,446.9391,446.9392,447.4391,,,,,,,,,,,,,,0.7694,1,,,,,,,,,,,,,,z,,,,,,,,,,,,,,,83,0,447.4398,448.2225,z,1,0.7694,,[],[],[],[],[],[],[],448.2225,450.2224,450.2225,450.2228,[],[],[],[],[],[],[],,450.2228,450.2229,0.295794271,-0.317547743,0,0,0,,0,82,82,77,1,1,TL,tritube,cursive,tritube_c.png,,,,,
,,,,30723,001,2025-10-17_13h11.49.290,HW_LDT_1,2024.2.4,MacIntel,61.34969325,,,,,,,,,,,,,,,,,,,,450.2242,450.4224,450.4225,450.9224,,,,,,,,,,,,,,0.5859,1,,,,,,,,,,,,,,m,,,,,,,,,,,,,,,84,0,450.9231,451.5225,m,1,0.5859,,[],[],[],[],[],[],[],451.5226,453.5224,453.5224,453.5228,[],[],[],[],[],[],[],,453.5228,453.523,0.295794271,-0.317547743,0,0,0,,0,83,83,117,1,1,word,MARINE,print,marine_p.png,,,,,
,,,,30723,001,2025-10-17_13h11.49.290,HW_LDT_1,2024.2.4,MacIntel,61.34969325,,,,,,,,,,,,,,,,,,,,453.5245,453.7225,453.7225,454.2225,,,,,,,,,,,,,,0.5982,0,,,,,,,,,,,,,,z,,,,,,,,,,,,,,,85,1,454.2232,454.8226,m,0,0.5982,,[],[],[],[],[],[],[],454.8227,456.8224,456.8225,459.6224,[],[],[],[],[],[],[],z,459.6225,459.6227,0.295794271,-0.317547743,0,0,0,,0,84,84,50,1,1,TL,condiser,cursive,condiser_c.png,2.7909,,,,
,,,,30723,001,2025-10-17_13h11.49.290,HW_LDT_1,2024.2.4,MacIntel,61.34969325,,,,,,,,,,,,,,,,,,,,459.6239,459.8225,459.8225,460.3224,,,,,,,,,,,,,,11.9696,1,,,,,,,,,,,,,,z,,,,,,,,,,,,,,,86,0,460.3231,472.3059,z,1,11.9696,,[],[],[],[],[],[],[],472.306,474.3059,474.306,474.3062,[],[],[],[],[],[],[],,474.3062,474.3063,0.295794271,-0.317547743,0,0,0,,0,85,85,55,1,1,TL,fornute,print,fornute_p.png,,,,,
,,,,30723,001,2025-10-17_13h11.49.290,HW_LDT_1,2024.2.4,MacIntel,61.34969325,,,,,,,,,,,,,,,,,,,,474.3078,474.5058,474.5058,475.0058,,,,,,,,,,,,,,4.5878,1,,,,,,,,,,,,,,z,,,,,,,,,,,,,,,87,1,475.0066,479.606,z,1,4.5878,,[],[],[],[],[],[],[],479.606,481.6057,481.6058,497.188,[],[],[],[],[],[],[],m,497.1881,497.1882,0.295794271,-0.317547743,0,0,0,,0,86,86,52,1,1,TL,decilate,cursive,decilate_c.png,15.5707,,,,
,,,,30723,001,2025-10-17_13h11.49.290,HW_LDT_1,2024.2.4,MacIntel,61.34969325,,,,,,,,,,,,,,,,,,,,497.1895,497.389,497.389,497.8882,,,,,,,,,,,,,,1.1989,1,,,,,,,,,,,,,,z,,,,,,,,,,,,,,,88,0,497.8888,499.089,z,1,1.1989,,[],[],[],[],[],[],[],499.0891,501.0891,501.0892,501.0894,[],[],[],[],[],[],[],,501.0896,501.0897,0.295794271,-0.317547743,0,0,0,,0,87,87,62,1,1,TL,mitilary,print,mitilary_p.png,,,,,
,,,,30723,001,2025-10-17_13h11.49.290,HW_LDT_1,2024.2.4,MacIntel,61.34969325,,,,,,,,,,,,,,,,,,,,501.0912,501.2891,501.2892,501.7881,,,,,,,,,,,,,,1.19,1,,,,,,,,,,,,,,z,,,,,,,,,,,,,,,89,0,501.7888,502.9882,z,1,1.19,,[],[],[],[],[],[],[],502.9883,504.9891,504.9892,504.9894,[],[],[],[],[],[],[],,504.9894,504.9896,0.295794271,-0.317547743,0,0,0,,0,88,88,56,1,1,TL,grafetul,print,grafetul_p.png,,,,,
,,,,30723,001,2025-10-17_13h11.49.290,HW_LDT_1,2024.2.4,MacIntel,61.34969325,,,,,,,,,,,,,,,,,,,,504.9911,505.1891,505.1892,505.6888,,,,,,,,,,,,,,1.02,1,,,,,,,,,,,,,,m,,,,,,,,,,,,,,,90,0,505.6894,506.7214,m,1,1.02,,[],[],[],[],[],[],[],506.7215,508.7224,508.7225,508.7228,[],[],[],[],[],[],[],,508.7228,508.7229,0.295794271,-0.317547743,0,0,0,,0,89,89,131,1,1,word,POPULAR,cursive,popular_c.png,,,,,
,,,,30723,001,2025-10-17_13h11.49.290,HW_LDT_1,2024.2.4,MacIntel,61.34969325,,,,,,,,,,,,,,,,,,,,508.7243,508.9226,508.9226,509.4224,,,,,,,,,,,,,,1.073,1,,,,,,,,,,,,,,z,,,,,,,,,,,,,,,91,1,509.4231,510.5059,z,1,1.073,,[],[],[],[],[],[],[],510.506,512.5059,512.5059,513.5059,[],[],[],[],[],[],[],m,513.5061,513.5062,0.295794271,-0.317547743,0,0,0,,0,90,90,14,1,1,RL,lofase,print,lofase_p.png,0.9864,,,,
,,,,30723,001,2025-10-17_13h11.49.290,HW_LDT_1,2024.2.4,MacIntel,61.34969325,,,,,,,,,,,,,,,,,,,,513.5077,513.7058,513.7058,514.2058,,,,,,,,,,,,,,1.152,1,,,,,,,,,,,,,,m,,,,,,,,,,,,,,,92,0,514.2065,515.3724,m,1,1.152,,[],[],[],[],[],[],[],515.3725,517.3716,517.3716,517.3719,[],[],[],[],[],[],[],,517.3719,517.372,0.295794271,-0.317547743,0,0,0,,0,91,91,129,1,1,word,PARENT,cursive,parent_c.png,,,,,
,,,,30723,001,2025-10-17_13h11.49.290,HW_LDT_1,2024.2.4,MacIntel,61.34969325,,,,,,,,,,,,,,,,,,,,517.3734,517.5724,517.5725,518.0725,,,,,,,,,,,,,,12.703,1,,,,,,,,,,,,,,m,,,,,,,,,,,,,,,93,0,518.0731,530.7891,m,1,12.703,,[],[],[],[],[],[],[],530.7893,532.7891,532.7892,532.7895,[],[],[],[],[],[],[],,532.7895,532.7896,0.295794271,-0.317547743,0,0,0,,0,92,92,99,1,1,word,DEBATE,print,debate_p.png,,,,,
,,,,30723,001,2025-10-17_13h11.49.290,HW_LDT_1,2024.2.4,MacIntel,61.34969325,,,,,,,,,,,,,,,,,,,,532.7913,532.9891,532.9892,533.4891,,,,,,,,,,,,,,0.7515,1,,,,,,,,,,,,,,z,,,,,,,,,,,,,,,94,1,533.4898,534.2559,z,1,0.7515,,[],[],[],[],[],[],[],534.2561,536.2559,536.2559,539.1725,[],[],[],[],[],[],[],m,539.1726,539.1728,0.295794271,-0.317547743,0,0,0,,0,93,93,24,1,1,RL,probice,print,probice_p.png,2.9074,,,,
,,,,30723,001,2025-10-17_13h11.49.290,HW_LDT_1,2024.2.4,MacIntel,61.34969325,,,,,,,,,,,,,,,,,,,,539.1741,539.3725,539.3725,539.8725,,,,,,,,,,,,,,1.2028,1,,,,,,,,,,,,,,z,,,,,,,,,,,,,,,95,0,539.8731,541.0892,z,1,1.2028,,[],[],[],[],[],[],[],541.0892,543.0884,543.0884,543.0887,[],[],[],[],[],[],[],,543.0887,543.0889,0.295794271,-0.317547743,0,0,0,,0,94,94,42,1,1,TL,befenit,print,befenit_p.png,,,,,
,,,,30723,001,2025-10-17_13h11.49.290,HW_LDT_1,2024.2.4,MacIntel,61.34969325,,,,,,,,,,,,,,,,,,,,543.0904,543.2892,543.2893,543.7882,,,,,,,,,,,,,,1.7362,1,,,,,,,,,,,,,,m,,,,,,,,,,,,,,,96,0,543.7888,545.5393,m,1,1.7362,,[],[],[],[],[],[],[],545.5394,547.5391,547.5392,547.5394,[],[],[],[],[],[],[],,547.5394,547.5396,0.295794271,-0.317547743,0,0,0,,0,95,95,147,1,1,word,ROMANTIC,cursive,romantic_c.png,,,,,
,,,,30723,001,2025-10-17_13h11.49.290,HW_LDT_1,2024.2.4,MacIntel,61.34969325,,,,,,,,,,,,,,,,,,,,547.541,547.7392,547.7393,548.2391,,,,,,,,,,,,,,2.8386,0,,,,,,,,,,,,,,m,,,,,,,,,,,,,,,97,0,548.2398,551.0891,z,0,2.8386,,[],[],[],[],[],[],[],551.0892,553.0892,553.0892,553.0894,[],[],[],[],[],[],[],,553.0895,553.0896,0.295794271,-0.317547743,0,0,0,,0,96,96,101,1,1,word,DELICATE,cursive,delicate_c.png,,,,,
,,,,30723,001,2025-10-17_13h11.49.290,HW_LDT_1,2024.2.4,MacIntel,61.34969325,,,,,,,,,,,,,,,,,,,,553.0911,553.2882,553.2882,553.7892,,,,,,,,,,,,,,1.723,1,,,,,,,,,,,,,,z,,,,,,,,,,,,,,,98,0,553.7898,555.5226,z,1,1.723,,[],[],[],[],[],[],[],555.5227,557.5224,557.5225,557.5227,[],[],[],[],[],[],[],,557.5227,557.5229,0.295794271,-0.317547743,0,0,0,,0,97,97,57,1,1,TL,hetirage,cursive,hetirage_c.png,,,,,
,,,,30723,001,2025-10-17_13h11.49.290,HW_LDT_1,2024.2.4,MacIntel,61.34969325,,,,,,,,,,,,,,,,,,,,557.5243,557.7224,557.7225,558.2224,,,,,,,,,,,,,,2.7295,1,,,,,,,,,,,,,,m,,,,,,,,,,,,,,,99,0,558.2231,560.9556,m,1,2.7295,,[],[],[],[],[],[],[],560.9557,562.9557,562.9558,562.9561,[],[],[],[],[],[],[],,562.9562,562.9562,0.295794271,-0.317547743,0,0,0,,0,98,98,157,1,1,word,VALIDITY,cursive,validity_c.png,,,,,
,,,,30723,001,2025-10-17_13h11.49.290,HW_LDT_1,2024.2.4,MacIntel,61.34969325,,,,,,,,,,,,,,,,,,,,562.9577,563.1552,563.1552,563.6558,,,,,,,,,,,,,,2.2196,1,,,,,,,,,,,,,,m,,,,,,,,,,,,,,,100,0,563.6564,565.8891,m,1,2.2196,,[],[],[],[],[],[],[],565.8891,567.8891,567.8892,567.8894,[],[],[],[],[],[],[],,567.8895,567.8896,0.295794271,-0.317547743,0,0,0,,0,99,99,143,1,1,word,REMOVAL,cursive,removal_c.png,,,,,
,,,,30723,001,2025-10-17_13h11.49.290,HW_LDT_1,2024.2.4,MacIntel,61.34969325,,,,,,,,,,,,,,,,,,,,567.891,568.089,568.089,568.5891,,,,,,,,,,,,,,3.3868,1,,,,,,,,,,,,,,z,,,,,,,,,,,,,,,101,0,568.5899,571.9892,z,1,3.3868,,[],[],[],[],[],[],[],571.9893,573.9892,573.9894,573.9895,[],[],[],[],[],[],[],,573.9896,573.9897,-0.225794271,-0.053637153,0,0,0,,0,100,100,75,1,1,TL,speficic,cursive,speficic_c.png,,,,,
,,,,30723,001,2025-10-17_13h11.49.290,HW_LDT_1,2024.2.4,MacIntel,61.34969325,,,,,,,,,,,,,,,,,,,,573.991,574.1893,574.1894,574.6893,,,,,,,,,,,,,,6.2192,1,,,,,,,,,,,,,,z,,,,,,,,,,,,,,,102,0,574.6901,580.9216,z,1,6.2192,,[],[],[],[],[],[],[],580.9217,582.9224,582.9224,582.9227,[],[],[],[],[],[],[],,582.9227,582.9228,0.144305556,-0.003090278,0,0,0,,0,101,101,6,1,1,RL,crisival,print,crisival_p.png,,,,,
,,,,30723,001,2025-10-17_13h11.49.290,HW_LDT_1,2024.2.4,MacIntel,61.34969325,,,,,,,,,,,,,,,,,,,,582.924,583.1226,583.1226,583.6225,,,,,,,,,,,,,,3.4194,1,,,,,,,,,,,,,,z,,,,,,,,,,,,,,,103,0,583.6232,587.056,z,1,3.4194,,[],[],[],[],[],[],[],587.0561,589.056,589.056,589.0562,[],[],[],[],[],[],[],,589.0563,589.0564,0.144305556,-0.003090278,0,0,0,,0,102,102,38,1,1,RL,stopave,cursive,stopave_c.png,,,,,
,,,,30723,001,2025-10-17_13h11.49.290,HW_LDT_1,2024.2.4,MacIntel,61.34969325,,,,,,,,,,,,,,,,,,,,589.0579,589.2558,589.2559,589.7558,,,,,,,,,,,,,,4.1533,1,,,,,,,,,,,,,,m,,,,,,,,,,,,,,,104,0,589.7564,593.9225,m,1,4.1533,,[],[],[],[],[],[],[],593.9227,595.9225,595.9226,595.9228,[],[],[],[],[],[],[],,595.9229,595.923,0.144305556,-0.003090278,0,0,0,,0,103,103,119,1,1,word,MEMORY,cursive,memory_c.png,,,,,
,,,,30723,001,2025-10-17_13h11.49.290,HW_LDT_1,2024.2.4,MacIntel,61.34969325,,,,,,,,,,,,,,,,,,,,595.9245,596.1225,596.1225,596.6221,,,,,,,,,,,,,,1.7763,1,,,,,,,,,,,,,,z,,,,,,,,,,,,,,,105,0,596.6223,598.4058,z,1,1.7763,,[],[],[],[],[],[],[],598.4059,600.4058,600.4059,600.4061,[],[],[],[],[],[],[],,600.4062,600.4062,0.144305556,-0.003090278,0,0,0,,0,104,104,70,1,1,TL,relugar,print,relugar_p.png,,,,,
,,,,30723,001,2025-10-17_13h11.49.290,HW_LDT_1,2024.2.4,MacIntel,61.34969325,,,,,,,,,,,,,,,,,,,,600.4077,600.6057,600.6058,601.1057,,,,,,,,,,,,,,11.7036,1,,,,,,,,,,,,,,z,,,,,,,,,,,,,,,106,0,601.1061,612.8226,z,1,11.7036,,[],[],[],[],[],[],[],612.8227,614.8225,614.8225,614.8227,[],[],[],[],[],[],[],,614.8228,614.8229,0.144305556,-0.003090278,0,0,0,,0,105,105,68,1,1,TL,prosopal,cursive,prosopal_c.png,,,,,
,,,,30723,001,2025-10-17_13h11.49.290,HW_LDT_1,2024.2.4,MacIntel,61.34969325,,,,,,,,,,,,,,,,,,,,614.8245,615.0225,615.0226,615.5224,,,,,,,,,,,,,,2.4252,1,,,,,,,,,,,,,,z,,,,,,,,,,,,,,,107,0,615.5229,617.9559,z,1,2.4252,,[],[],[],[],[],[],[],617.956,619.9558,619.9559,619.9561,[],[],[],[],[],[],[],,619.9562,619.9563,0.144305556,-0.003090278,0,0,0,,0,106,106,54,1,1,TL,distupe,cursive,distupe_c.png,,,,,
,,,,30723,001,2025-10-17_13h11.49.290,HW_LDT_1,2024.2.4,MacIntel,61.34969325,,,,,,,,,,,,,,,,,,,,619.9578,620.1559,620.156,620.6558,,,,,,,,,,,,,,1.729,1,,,,,,,,,,,,,,m,,,,,,,,,,,,,,,108,0,620.6565,622.3889,m,1,1.729,,[],[],[],[],[],[],[],622.389,624.3891,624.3891,624.3893,[],[],[],[],[],[],[],,624.3893,624.3894,0.144305556,-0.003090278,0,0,0,,0,107,107,156,1,1,word,TRIBUTE,cursive,tribute_c.png,,,,,
,,,,30723,001,2025-10-17_13h11.49.290,HW_LDT_1,2024.2.4,MacIntel,61.34969325,,,,,,,,,,,,,,,,,,,,624.3905,624.5889,624.5889,625.0891,,,,,,,,,,,,,,21.2194,1,,,,,,,,,,,,,,z,,,,,,,,,,,,,,,109,0,625.0899,646.3228,z,1,21.2194,,[],[],[],[],[],[],[],646.323,648.3225,648.3226,648.3228,[],[],[],[],[],[],[],,648.3229,648.323,0.144305556,-0.003090278,0,0,0,,0,108,108,36,1,1,RL,speniven,cursive,speniven_c.png,,,,,
,,,,30723,001,2025-10-17_13h11.49.290,HW_LDT_1,2024.2.4,MacIntel,61.34969325,,,,,,,,,,,,,,,,,,,,648.3246,648.5225,648.5225,649.0226,,,,,,,,,,,,,,1.765,1,,,,,,,,,,,,,,m,,,,,,,,,,,,,,,110,1,649.0233,650.7893,m,1,1.765,,[],[],[],[],[],[],[],650.7894,652.7891,652.7892,658.3059,[],[],[],[],[],[],[],m,658.306,658.3061,0.144305556,-0.003090278,0,0,0,,0,109,109,83,1,1,word,ANIMAL,print,animal_p.png,5.5078,,,,
,,,,30723,001,2025-10-17_13h11.49.290,HW_LDT_1,2024.2.4,MacIntel,61.34969325,,,,,,,,,,,,,,,,,,,,658.3076,658.5059,658.5059,659.0058,,,,,,,,,,,,,,10.0461,1,,,,,,,,,,,,,,z,,,,,,,,,,,,,,,111,0,659.0065,669.0559,z,1,10.0461,,[],[],[],[],[],[],[],669.0559,671.0559,671.0559,671.0562,[],[],[],[],[],[],[],,671.0562,671.0563,0.144305556,-0.003090278,0,0,0,,0,110,110,18,1,1,RL,mishafe,print,mishafe_p.png,,,,,
,,,,30723,001,2025-10-17_13h11.49.290,HW_LDT_1,2024.2.4,MacIntel,61.34969325,,,,,,,,,,,,,,,,,,,,671.0578,671.2558,671.2558,671.7558,,,,,,,,,,,,,,7.8814,1,,,,,,,,,,,,,,m,,,,,,,,,,,,,,,112,0,671.7565,679.6393,m,1,7.8814,,[],[],[],[],[],[],[],679.6394,681.6392,681.6393,681.6395,[],[],[],[],[],[],[],,681.6396,681.6397,0.338098958,-0.104956597,0,0,0,,0,111,111,132,1,1,word,PROPOSAL,cursive,proposal_c.png,,,,,
,,,,30723,001,2025-10-17_13h11.49.290,HW_LDT_1,2024.2.4,MacIntel,61.34969325,,,,,,,,,,,,,,,,,,,,681.6411,681.8392,681.8392,682.3393,,,,,,,,,,,,,,1.2981,1,,,,,,,,,,,,,,m,,,,,,,,,,,,,,,113,0,682.3399,683.6393,m,1,1.2981,,[],[],[],[],[],[],[],683.6394,685.6392,685.6393,685.6396,[],[],[],[],[],[],[],,685.6396,685.6398,0.338098958,-0.104956597,0,0,0,,0,112,112,92,1,1,word,CATEGORY,print,category_p.png,,,,,
,,,,30723,001,2025-10-17_13h11.49.290,HW_LDT_1,2024.2.4,MacIntel,61.34969325,,,,,,,,,,,,,,,,,,,,685.6415,685.8393,685.8393,686.3392,,,,,,,,,,,,,,1.8198,1,,,,,,,,,,,,,,z,,,,,,,,,,,,,,,114,0,686.34,688.1727,z,1,1.8198,,[],[],[],[],[],[],[],688.1728,690.1726,690.1726,690.1728,[],[],[],[],[],[],[],,690.1729,690.1731,0.338098958,-0.104956597,0,0,0,,0,113,113,26,1,1,RL,quafidy,cursive,quafidy_c.png,,,,,
,,,,30723,001,2025-10-17_13h11.49.290,HW_LDT_1,2024.2.4,MacIntel,61.34969325,,,,,,,,,,,,,,,,,,,,690.1746,690.3726,690.3726,690.8718,,,,,,,,,,,,,,3.8665,1,,,,,,,,,,,,,,m,,,,,,,,,,,,,,,115,0,690.8724,694.7397,m,1,3.8665,,[],[],[],[],[],[],[],694.7397,696.7392,696.7394,696.7396,[],[],[],[],[],[],[],,696.7396,696.7398,0.338098958,-0.104956597,0,0,0,,0,114,114,123,1,1,word,MODERATE,print,moderate_p.png,,,,,
,,,,30723,001,2025-10-17_13h11.49.290,HW_LDT_1,2024.2.4,MacIntel,61.34969325,,,,,,,,,,,,,,,,,,,,696.7413,696.9392,696.9393,697.4392,,,,,,,,,,,,,,1.5397,1,,,,,,,,,,,,,,m,,,,,,,,,,,,,,,116,0,697.4399,698.9893,m,1,1.5397,,[],[],[],[],[],[],[],698.9894,700.9892,700.9893,700.9894,[],[],[],[],[],[],[],,700.9896,700.9897,0.338098958,-0.104956597,0,0,0,,0,115,115,134,1,1,word,QUALIFY,cursive,qualify_c.png,,,,,
,,,,30723,001,2025-10-17_13h11.49.290,HW_LDT_1,2024.2.4,MacIntel,61.34969325,,,,,,,,,,,,,,,,,,,,700.9912,701.1893,701.1893,701.6892,,,,,,,,,,,,,,12.5871,0,,,,,,,,,,,,,,m,,,,,,,,,,,,,,,117,0,701.6899,714.2894,z,0,12.5871,,[],[],[],[],[],[],[],714.2896,716.2893,716.2893,716.2896,[],[],[],[],[],[],[],,716.2897,716.2897,0.338098958,-0.104956597,0,0,0,,0,116,116,111,1,1,word,INDICATE,cursive,indicate_c.png,,,,,
,,,,30723,001,2025-10-17_13h11.49.290,HW_LDT_1,2024.2.4,MacIntel,61.34969325,,,,,,,,,,,,,,,,,,,,716.2913,716.4892,716.4893,716.9893,,,,,,,,,,,,,,20.9215,1,,,,,,,,,,,,,,m,,,,,,,,,,,,,,,118,0,716.99,737.9227,m,1,20.9215,,[],[],[],[],[],[],[],737.9229,739.9225,739.9226,739.9228,[],[],[],[],[],[],[],,739.9229,739.923,0.338098958,-0.104956597,0,0,0,,0,117,117,95,1,1,word,COMEDY,cursive,comedy_c.png,,,,,
,,,,30723,001,2025-10-17_13h11.49.290,HW_LDT_1,2024.2.4,MacIntel,61.34969325,,,,,,,,,,,,,,,,,,,,739.9243,740.1226,740.1227,740.6225,,,,,,,,,,,,,,2.0195,1,,,,,,,,,,,,,,z,,,,,,,,,,,,,,,119,0,740.6233,742.656,z,1,2.0195,,[],[],[],[],[],[],[],742.6561,744.656,744.656,744.6562,[],[],[],[],[],[],[],,744.6562,744.6564,0.338098958,-0.104956597,0,0,0,,0,118,118,28,1,1,RL,renutal,print,renutal_p.png,,,,,
,,,,30723,001,2025-10-17_13h11.49.290,HW_LDT_1,2024.2.4,MacIntel,61.34969325,,,,,,,,,,,,,,,,,,,,744.6578,744.8559,744.856,745.3559,,,,,,,,,,,,,,3.7367,1,,,,,,,,,,,,,,z,,,,,,,,,,,,,,,120,0,745.3566,749.106,z,1,3.7367,,[],[],[],[],[],[],[],749.1062,751.106,751.106,751.1062,[],[],[],[],[],[],[],,751.1063,751.1064,0.338098958,-0.104956597,0,0,0,,0,119,119,40,1,1,TL,atameur,print,atameur_p.png,,,,,
,,,,30723,001,2025-10-17_13h11.49.290,HW_LDT_1,2024.2.4,MacIntel,61.34969325,,,,,,,,,,,,,,,,,,,,751.1078,751.3058,751.3059,751.8049,,,,,,,,,,,,,,1.4205,1,,,,,,,,,,,,,,m,,,,,,,,,,,,,,,121,0,751.8054,753.2393,m,1,1.4205,,[],[],[],[],[],[],[],753.2393,755.2382,755.2383,755.2384,[],[],[],[],[],[],[],,755.2385,755.2386,0.338098958,-0.104956597,0,0,0,,0,120,120,97,1,1,word,COVERAGE,print,coverage_p.png,,,,,
,,,,30723,001,2025-10-17_13h11.49.290,HW_LDT_1,2024.2.4,MacIntel,61.34969325,,,,,,,,,,,,,,,,,,,,755.2397,755.4392,755.4392,755.9393,,,,,,,,,,,,,,8.6055,1,,,,,,,,,,,,,,z,,,,,,,,,,,,,,,122,0,755.9399,764.5562,z,1,8.6055,,[],[],[],[],[],[],[],764.5562,766.556,766.556,766.5562,[],[],[],[],[],[],[],,766.5562,766.5564,0.436579861,-0.091467014,0,0,0,,0,121,121,33,1,1,RL,recile,cursive,recile_c.png,,,,,
,,,,30723,001,2025-10-17_13h11.49.290,HW_LDT_1,2024.2.4,MacIntel,61.34969325,,,,,,,,,,,,,,,,,,,,766.5576,766.7559,766.756,767.2549,,,,,,,,,,,,,,3.6874,1,,,,,,,,,,,,,,z,,,,,,,,,,,,,,,123,0,767.2555,770.9559,z,1,3.6874,,[],[],[],[],[],[],[],770.9561,772.9558,772.9559,772.9561,[],[],[],[],[],[],[],,772.9562,772.9563,0.436579861,-0.091467014,0,0,0,,0,122,122,63,1,1,TL,molibe,cursive,molibe_c.png,,,,,
,,,,30723,001,2025-10-17_13h11.49.290,HW_LDT_1,2024.2.4,MacIntel,61.34969325,,,,,,,,,,,,,,,,,,,,772.9577,773.156,773.156,773.6558,,,,,,,,,,,,,,1.8028,1,,,,,,,,,,,,,,z,,,,,,,,,,,,,,,124,1,773.6564,775.4728,z,1,1.8028,,[],[],[],[],[],[],[],775.4729,777.4716,777.4717,779.6384,[],[],[],[],[],[],[],m,779.6385,779.6386,0.361775174,-0.154105903,0,0,0,,0,123,123,46,1,1,TL,catipal,print,catipal_p.png,2.1536,,,,
,,,,30723,001,2025-10-17_13h11.49.290,HW_LDT_1,2024.2.4,MacIntel,61.34969325,,,,,,,,,,,,,,,,,,,,779.6399,779.8393,779.8393,780.3392,,,,,,,,,,,,,,6.3959,0,,,,,,,,,,,,,,m,,,,,,,,,,,,,,,125,0,780.3399,786.7392,z,0,6.3959,,[],[],[],[],[],[],[],786.7393,788.7393,788.7393,788.7396,[],[],[],[],[],[],[],,788.7396,788.7397,0.361775174,-0.154105903,0,0,0,,0,124,124,87,1,1,word,CAFETERIA,cursive,cafeteria_c.png,,,,,
,,,,30723,001,2025-10-17_13h11.49.290,HW_LDT_1,2024.2.4,MacIntel,61.34969325,,,,,,,,,,,,,,,,,,,,788.7414,788.9393,788.9393,789.4393,,,,,,,,,,,,,,2.2861,1,,,,,,,,,,,,,,z,,,,,,,,,,,,,,,126,0,789.44,791.7394,z,1,2.2861,,[],[],[],[],[],[],[],791.7395,793.7393,793.7393,793.7397,[],[],[],[],[],[],[],,793.7397,793.7398,0.361775174,-0.154105903,0,0,0,,0,125,125,47,1,1,TL,cagetory,print,cagetory_p.png,,,,,
,,,,30723,001,2025-10-17_13h11.49.290,HW_LDT_1,2024.2.4,MacIntel,61.34969325,,,,,,,,,,,,,,,,,,,,793.7414,793.9385,793.9385,794.4383,,,,,,,,,,,,,,7.9746,1,,,,,,,,,,,,,,m,,,,,,,,,,,,,,,127,0,794.4389,802.4217,m,1,7.9746,,[],[],[],[],[],[],[],802.4217,804.4227,804.4227,804.4229,[],[],[],[],[],[],[],,804.423,804.4232,0.41046875,-0.022408854,0,0,0,,0,126,126,100,1,1,word,DECADE,print,decade_p.png,,,,,
,,,,30723,001,2025-10-17_13h11.49.290,HW_LDT_1,2024.2.4,MacIntel,61.34969325,,,,,,,,,,,,,,,,,,,,804.4247,804.6226,804.6227,805.1226,,,,,,,,,,,,,,1.6376,1,,,,,,,,,,,,,,z,,,,,,,,,,,,,,,128,0,805.1233,806.7728,z,1,1.6376,,[],[],[],[],[],[],[],806.7729,808.7727,808.7727,808.7729,[],[],[],[],[],[],[],,808.7729,808.7731,0.41046875,-0.022408854,0,0,0,,0,127,127,15,1,1,RL,losipal,cursive,losipal_c.png,,,,,
,,,,30723,001,2025-10-17_13h11.49.290,HW_LDT_1,2024.2.4,MacIntel,61.34969325,,,,,,,,,,,,,,,,,,,,808.7743,808.9727,808.9727,809.4726,,,,,,,,,,,,,,1.5697,1,,,,,,,,,,,,,,z,,,,,,,,,,,,,,,129,0,809.4733,811.0553,z,1,1.5697,,[],[],[],[],[],[],[],811.0554,813.0559,813.056,813.0562,[],[],[],[],[],[],[],,813.0562,813.0564,0.41046875,-0.022408854,0,0,0,,0,128,128,39,1,1,RL,vabifity,cursive,vabifity_c.png,,,,,
,,,,30723,001,2025-10-17_13h11.49.290,HW_LDT_1,2024.2.4,MacIntel,61.34969325,,,,,,,,,,,,,,,,,,,,813.058,813.256,813.256,813.755,,,,,,,,,,,,,,1.3373,0,,,,,,,,,,,,,,z,,,,,,,,,,,,,,,130,1,813.7556,815.1061,m,0,1.3373,,[],[],[],[],[],[],[],815.1061,817.1059,817.106,819.5728,[],[],[],[],[],[],[],z,819.5729,819.573,0.169761285,0.088975694,0,0,0,,0,129,129,66,1,1,TL,panert,cursive,panert_c.png,2.4543,,,,
,,,,30723,001,2025-10-17_13h11.49.290,HW_LDT_1,2024.2.4,MacIntel,61.34969325,,,,,,,,,,,,,,,,,,,,819.5747,819.7727,819.7728,820.2726,,,,,,,,,,,,,,35.1896,1,,,,,,,,,,,,,,m,,,,,,,,,,,,,,,131,0,820.2735,855.4728,m,1,35.1896,,[],[],[],[],[],[],[],855.473,857.4725,857.4726,857.4728,[],[],[],[],[],[],[],,857.4728,857.473,0.195026042,-0.027044271,0,0,0,,0,130,130,137,1,1,word,RAPIDLY,cursive,rapidly_c.png,,,,,
,,,,30723,001,2025-10-17_13h11.49.290,HW_LDT_1,2024.2.4,MacIntel,61.34969325,,,,,,,,,,,,,,,,,,,,857.4744,857.6726,857.6727,858.1727,,,,,,,,,,,,,,0.8028,1,,,,,,,,,,,,,,m,,,,,,,,,,,,,,,132,0,858.1735,858.9894,m,1,0.8028,,[],[],[],[],[],[],[],858.9895,860.9894,860.9894,860.9896,[],[],[],[],[],[],[],,860.9897,860.9898,0.195026042,-0.027044271,0,0,0,,0,131,131,125,1,1,word,OPERATOR,cursive,operator_c.png,,,,,
,,,,30723,001,2025-10-17_13h11.49.290,HW_LDT_1,2024.2.4,MacIntel,61.34969325,,,,,,,,,,,,,,,,,,,,860.9913,861.1893,861.1894,861.6893,,,,,,,,,,,,,,0.0532,0,,,,,,,,,,,,,,z,,,,,,,,,,,,,,,133,0,861.6898,861.7555,m,0,0.0532,,[],[],[],[],[],[],[],861.7556,863.7559,863.7559,863.7562,[],[],[],[],[],[],[],,863.7563,863.7563,0.195026042,-0.027044271,0,0,0,,0,132,132,30,1,1,RL,relone,print,relone_p.png,,,,,
,,,,30723,001,2025-10-17_13h11.49.290,HW_LDT_1,2024.2.4,MacIntel,61.34969325,,,,,,,,,,,,,,,,,,,,863.7578,863.956,863.9562,864.456,,,,,,,,,,,,,,0.053,1,,,,,,,,,,,,,,m,,,,,,,,,,,,,,,134,1,864.4566,864.5227,m,1,0.053,,[],[],[],[],[],[],[],864.5228,866.5228,866.5228,866.689,[],[],[],[],[],[],[],z,866.6891,866.6891,0.195026042,-0.027044271,0,0,0,,0,133,133,94,1,1,word,CLINICAL,cursive,clinical_c.png,0.1635,,,,
,,,,30723,001,2025-10-17_13h11.49.290,HW_LDT_1,2024.2.4,MacIntel,61.34969325,,,,,,,,,,,,,,,,,,,,866.69,866.8892,866.8893,867.3893,,,,,,,,,,,,,,0.1135,1,,,,,,,,,,,,,,z,,,,,,,,,,,,,,,135,0,867.39,867.5059,z,1,0.1135,,[],[],[],[],[],[],[],867.506,869.5051,869.5051,869.5053,[],[],[],[],[],[],[],,869.5054,869.5055,0.195026042,-0.027044271,0,0,0,,0,134,134,44,1,1,TL,cateferia,cursive,cateferia_c.png,,,,,
,,,,30723,001,2025-10-17_13h11.49.290,HW_LDT_1,2024.2.4,MacIntel,61.34969325,,,,,,,,,,,,,,,,,,,,869.5067,869.706,869.706,870.2059,,,,,,,,,,,,,,0.1535,0,,,,,,,,,,,,,,m,,,,,,,,,,,,,,,136,0,870.2064,870.3723,z,0,0.1535,,[],[],[],[],[],[],[],870.3724,872.3727,872.3727,872.3729,[],[],[],[],[],[],[],,872.373,872.3731,0.195026042,-0.027044271,0,0,0,,0,135,135,107,1,1,word,EVIDENT,print,evident_p.png,,,,,
,,,,30723,001,2025-10-17_13h11.49.290,HW_LDT_1,2024.2.4,MacIntel,61.34969325,,,,,,,,,,,,,,,,,,,,872.3745,872.5726,872.5727,873.0727,,,,,,,,,,,,,,0.1538,1,,,,,,,,,,,,,,z,,,,,,,,,,,,,,,137,0,873.0733,873.2393,z,1,0.1538,,[],[],[],[],[],[],[],873.2394,875.2394,875.2395,875.2397,[],[],[],[],[],[],[],,875.2398,875.2399,0.195026042,-0.027044271,0,0,0,,0,136,136,3,1,1,RL,casena,cursive,casena_c.png,,,,,
,,,,30723,001,2025-10-17_13h11.49.290,HW_LDT_1,2024.2.4,MacIntel,61.34969325,,,,,,,,,,,,,,,,,,,,875.241,875.4393,875.4393,875.9393,,,,,,,,,,,,,,0.0231,0,,,,,,,,,,,,,,m,,,,,,,,,,,,,,,138,0,875.9399,875.9727,z,0,0.0231,,[],[],[],[],[],[],[],875.9728,877.9726,877.9727,877.9729,[],[],[],[],[],[],[],,877.9729,877.973,0.195026042,-0.027044271,0,0,0,,0,137,137,84,1,1,word,BELOVED,print,beloved_p.png,,,,,
,,,,30723,001,2025-10-17_13h11.49.290,HW_LDT_1,2024.2.4,MacIntel,61.34969325,,,,,,,,,,,,,,,,,,,,877.9744,878.1726,878.1726,878.6726,,,,,,,,,,,,,,0.057,1,,,,,,,,,,,,,,m,,,,,,,,,,,,,,,139,0,878.6733,878.7394,m,1,0.057,,[],[],[],[],[],[],[],878.7394,880.7394,880.7394,880.7396,[],[],[],[],[],[],[],,880.7397,880.7398,0.195026042,-0.027044271,0,0,0,,0,138,138,146,1,1,word,RETIRE,cursive,retire_c.png,,,,,
,,,,30723,001,2025-10-17_13h11.49.290,HW_LDT_1,2024.2.4,MacIntel,61.34969325,,,,,,,,,,,,,,,,,,,,880.7411,880.9394,880.9394,881.4393,,,,,,,,,,,,,,0.0876,0,,,,,,,,,,,,,,m,,,,,,,,,,,,,,,140,0,881.4398,881.5395,z,0,0.0876,,[],[],[],[],[],[],[],881.5396,883.5394,883.5394,883.5396,[],[],[],[],[],[],[],,883.5397,883.5397,0.195026042,-0.027044271,0,0,0,,0,139,139,133,1,1,word,PROVIDE,print,provide_p.png,,,,,
,,,,30723,001,2025-10-17_13h11.49.290,HW_LDT_1,2024.2.4,MacIntel,61.34969325,,,,,,,,,,,,,,,,,,,,883.5411,883.7394,883.7394,884.2394,,,,,,,,,,,,,,0.136,0,,,,,,,,,,,,,,m,,,,,,,,,,,,,,,141,0,884.2401,884.3894,z,0,0.136,,[],[],[],[],[],[],[],884.3895,886.3894,886.3895,886.3897,[],[],[],[],[],[],[],,886.3898,886.39,0.195026042,-0.027044271,0,0,0,,0,140,140,138,1,1,word,REFUSAL,print,refusal_p.png,,,,,
,,,,30723,001,2025-10-17_13h11.49.290,HW_LDT_1,2024.2.4,MacIntel,61.34969325,,,,,,,,,,,,,,,,,,,,886.3914,886.5893,886.5893,887.0892,,,,,,,,,,,,,,0.1317,0,,,,,,,,,,,,,,z,,,,,,,,,,,,,,,142,0,887.0897,887.2226,m,0,0.1317,,[],[],[],[],[],[],[],887.2227,889.2216,889.2216,889.2218,[],[],[],[],[],[],[],,889.2219,889.222,0.195026042,-0.027044271,0,0,0,,0,141,141,76,1,1,TL,stragety,cursive,stragety_c.png,,,,,
,,,,30723,001,2025-10-17_13h11.49.290,HW_LDT_1,2024.2.4,MacIntel,61.34969325,,,,,,,,,,,,,,,,,,,,889.2232,889.4226,889.4227,889.9227,,,,,,,,,,,,,,0.1358,0,,,,,,,,,,,,,,m,,,,,,,,,,,,,,,143,0,889.9234,890.0728,z,0,0.1358,,[],[],[],[],[],[],[],890.0729,892.0728,892.0728,892.073,[],[],[],[],[],[],[],,892.0731,892.0732,0.195026042,-0.027044271,0,0,0,,0,142,142,127,1,1,word,ORIGINAL,cursive,original_c.png,,,,,
,,,,30723,001,2025-10-17_13h11.49.290,HW_LDT_1,2024.2.4,MacIntel,61.34969325,,,,,,,,,,,,,,,,,,,,892.0746,892.2727,892.2727,892.7727,,,,,,,,,,,,,,0.019,1,,,,,,,,,,,,,,z,,,,,,,,,,,,,,,144,0,892.7734,892.8062,z,1,0.019,,[],[],[],[],[],[],[],892.8063,894.806,894.8061,894.8063,[],[],[],[],[],[],[],,894.8064,894.8065,0.195026042,-0.027044271,0,0,0,,0,143,143,74,1,1,TL,setanor,cursive,setanor_c.png,,,,,
,,,,30723,001,2025-10-17_13h11.49.290,HW_LDT_1,2024.2.4,MacIntel,61.34969325,,,,,,,,,,,,,,,,,,,,894.8079,895.006,895.006,895.506,,,,,,,,,,,,,,0.0399,1,,,,,,,,,,,,,,m,,,,,,,,,,,,,,,145,0,895.5067,895.556,m,1,0.0399,,[],[],[],[],[],[],[],895.5561,897.556,897.5561,897.5562,[],[],[],[],[],[],[],,897.5563,897.5564,0.195026042,-0.027044271,0,0,0,,0,144,144,126,1,1,word,OPTIMAL,print,optimal_p.png,,,,,
,,,,30723,001,2025-10-17_13h11.49.290,HW_LDT_1,2024.2.4,MacIntel,61.34969325,,,,,,,,,,,,,,,,,,,,897.5578,897.756,897.7561,898.256,,,,,,,,,,,,,,0.1861,1,,,,,,,,,,,,,,m,,,,,,,,,,,,,,,146,0,898.2567,898.4561,m,1,0.1861,,[],[],[],[],[],[],[],898.4563,900.456,900.456,900.4562,[],[],[],[],[],[],[],,900.4562,900.4564,0.195026042,-0.027044271,0,0,0,,0,145,145,110,1,1,word,HERITAGE,cursive,heritage_c.png,,,,,
,,,,30723,001,2025-10-17_13h11.49.290,HW_LDT_1,2024.2.4,MacIntel,61.34969325,,,,,,,,,,,,,,,,,,,,900.4576,900.6561,900.6563,901.156,,,,,,,,,,,,,,0.036,1,,,,,,,,,,,,,,m,,,,,,,,,,,,,,,147,0,901.1568,901.2052,m,1,0.036,,[],[],[],[],[],[],[],901.2053,903.2059,903.206,903.2061,[],[],[],[],[],[],[],,903.2062,903.2063,0.195026042,-0.027044271,0,0,0,,0,146,146,102,1,1,word,DENSITY,cursive,density_c.png,,,,,
,,,,30723,001,2025-10-17_13h11.49.290,HW_LDT_1,2024.2.4,MacIntel,61.34969325,,,,,,,,,,,,,,,,,,,,903.2077,903.406,903.406,903.9059,,,,,,,,,,,,,,0.1229,0,,,,,,,,,,,,,,m,,,,,,,,,,,,,,,148,1,903.9066,904.0393,z,0,0.1229,,[],[],[],[],[],[],[],904.0394,906.0393,906.0394,906.1727,[],[],[],[],[],[],[],z,906.1728,906.1729,0.195026042,-0.027044271,0,0,0,,0,147,147,103,1,1,word,DISPUTE,cursive,dispute_c.png,0.1204,,,,
,,,,30723,001,2025-10-17_13h11.49.290,HW_LDT_1,2024.2.4,MacIntel,61.34969325,,,,,,,,,,,,,,,,,,,,906.174,906.3727,906.3727,906.8726,,,,,,,,,,,,,,0.0698,1,,,,,,,,,,,,,,m,,,,,,,,,,,,,,,149,1,906.8731,906.9561,m,1,0.0698,,[],[],[],[],[],[],[],906.9563,908.956,908.9561,909.0227,[],[],[],[],[],[],[],z,909.0227,909.0229,0.195026042,-0.027044271,0,0,0,,0,148,148,153,1,1,word,STOLEN,print,stolen_p.png,0.0538,,,,
,,,,30723,001,2025-10-17_13h11.49.290,HW_LDT_1,2024.2.4,MacIntel,61.34969325,,,,,,,,,,,,,,,,,,,,909.0242,909.222,909.2221,909.7226,,,,,,,,,,,,,,0.0868,0,,,,,,,,,,,,,,m,,,,,,,,,,,,,,,150,0,909.7231,909.8229,z,0,0.0868,,[],[],[],[],[],[],[],909.8229,911.8224,911.8224,911.8226,[],[],[],[],[],[],[],,911.8226,911.8226,0.195026042,-0.027044271,0,0,0,,0,149,149,86,1,1,word,BESIDE,print,beside_p.png,,,,,
,,,,30723,001,2025-10-17_13h11.49.290,HW_LDT_1,2024.2.4,MacIntel,61.34969325,,,,,,,,,,,,,,,,,,,,911.8234,912.0227,912.0227,912.5227,,,,,,,,,,,,,,0.097,0,,,,,,,,,,,,,,z,,,,,,,,,,,,,,,151,0,912.5233,912.6225,m,0,0.097,,[],[],[],[],[],[],[],912.6226,914.6226,914.6228,914.6229,[],[],[],[],[],[],[],,914.623,914.6231,0.195026042,-0.027044271,0,0,0,,0,150,150,23,1,1,RL,potugar,cursive,potugar_c.png,,,,,
,,,,30723,001,2025-10-17_13h11.49.290,HW_LDT_1,2024.2.4,MacIntel,61.34969325,,,,,,,,,,,,,,,,,,,,914.6245,914.8226,914.8226,915.3225,,,,,,,,,,,,,,0.1204,0,,,,,,,,,,,,,,z,,,,,,,,,,,,,,,152,0,915.3231,915.456,m,0,0.1204,,[],[],[],[],[],[],[],915.4561,917.456,917.4561,917.4563,[],[],[],[],[],[],[],,917.4563,917.4565,0.195026042,-0.027044271,0,0,0,,0,151,151,51,1,1,TL,corevage,print,corevage_p.png,,,,,
,,,,30723,001,2025-10-17_13h11.49.290,HW_LDT_1,2024.2.4,MacIntel,61.34969325,,,,,,,,,,,,,,,,,,,,917.4577,917.6559,917.6561,918.156,,,,,,,,,,,,,,0.1886,0,,,,,,,,,,,,,,m,,,,,,,,,,,,,,,153,0,918.1566,918.3561,z,0,0.1886,,[],[],[],[],[],[],[],918.3563,920.3561,920.3562,920.3564,[],[],[],[],[],[],[],,920.3564,920.3565,0.195026042,-0.027044271,0,0,0,,0,152,152,136,1,1,word,RADICAL,print,radical_p.png,,,,,
,,,,30723,001,2025-10-17_13h11.49.290,HW_LDT_1,2024.2.4,MacIntel,61.34969325,,,,,,,,,,,,,,,,,,,,920.3578,920.5561,920.5561,921.0561,,,,,,,,,,,,,,0.0046,1,,,,,,,,,,,,,,m,,,,,,,,,,,,,,,154,0,921.0567,921.0727,m,1,0.0046,,[],[],[],[],[],[],[],921.0729,923.0727,923.0728,923.073,[],[],[],[],[],[],[],,923.073,923.0731,0.195026042,-0.027044271,0,0,0,,0,153,153,142,1,1,word,REMOTE,print,remote_p.png,,,,,
,,,,30723,001,2025-10-17_13h11.49.290,HW_LDT_1,2024.2.4,MacIntel,61.34969325,,,,,,,,,,,,,,,,,,,,923.0743,923.2728,923.2728,923.7728,,,,,,,,,,,,,,0.0053,1,,,,,,,,,,,,,,m,,,,,,,,,,,,,,,155,0,923.7734,923.7894,m,1,0.0053,,[],[],[],[],[],[],[],923.7894,925.7894,925.7894,925.7896,[],[],[],[],[],[],[],,925.7896,925.7897,0.195026042,-0.027044271,0,0,0,,0,154,154,105,1,1,word,EDITOR,cursive,editor_c.png,,,,,
,,,,30723,001,2025-10-17_13h11.49.290,HW_LDT_1,2024.2.4,MacIntel,61.34969325,,,,,,,,,,,,,,,,,,,,925.7911,925.9894,925.9894,926.4894,,,,,,,,,,,,,,0.2415,1,,,,,,,,,,,,,,z,,,,,,,,,,,,,,,156,1,926.49,926.7394,z,1,0.2415,,[],[],[],[],[],[],[],926.7394,928.7393,928.7394,928.7895,[],[],[],[],[],[],[],z,928.7896,928.7897,0.195026042,-0.027044271,0,0,0,,0,155,155,1,1,1,RL,adnicory,cursive,adnicory_c.png,0.0417,,,,
,,,,30723,001,2025-10-17_13h11.49.290,HW_LDT_1,2024.2.4,MacIntel,61.34969325,,,,,,,,,,,,,,,,,,,,928.7909,928.9894,928.9895,929.4893,,,,,,,,,,,,,,0.0051,1,,,,,,,,,,,,,,m,,,,,,,,,,,,,,,157,1,929.4897,929.5062,m,1,0.0051,,[],[],[],[],[],[],[],929.5063,931.5054,931.5054,931.5394,[],[],[],[],[],[],[],m,931.5395,931.5396,0.195026042,-0.027044271,0,0,0,,0,156,156,141,1,1,word,RELIGION,cursive,religion_c.png,0.0237,,,,
,,,,30723,001,2025-10-17_13h11.49.290,HW_LDT_1,2024.2.4,MacIntel,61.34969325,,,,,,,,,,,,,,,,,,,,931.5409,931.7393,931.7393,932.2394,,,,,,,,,,,,,,1.3192,1,,,,,,,,,,,,,,m,,,,,,,,,,,,,,,158,0,932.24,933.5728,m,1,1.3192,,[],[],[],[],[],[],[],933.5729,935.5727,935.5727,935.573,[],[],[],[],[],[],[],,935.5731,935.5732,0.195026042,-0.027044271,0,0,0,,0,157,157,151,1,1,word,SPECIFIC,cursive,specific_c.png,,,,,
,,,,30723,001,2025-10-17_13h11.49.290,HW_LDT_1,2024.2.4,MacIntel,61.34969325,,,,,,,,,,,,,,,,,,,,935.5747,935.7727,935.7728,936.2728,,,,,,,,,,,,,,0.0698,0,,,,,,,,,,,,,,m,,,,,,,,,,,,,,,159,0,936.2733,936.3563,z,0,0.0698,,[],[],[],[],[],[],[],936.3565,938.3557,938.3558,938.3561,[],[],[],[],[],[],[],,938.3561,938.3562,0.195026042,-0.027044271,0,0,0,,0,158,158,114,1,1,word,LOCATE,print,locate_p.png,,,,,
,,,,30723,001,2025-10-17_13h11.49.290,HW_LDT_1,2024.2.4,MacIntel,61.34969325,,,,,,,,,,,,,,,,,,,,938.3576,938.5561,938.5562,939.056,,,,,,,,,,,,,,0.0206,1,,,,,,,,,,,,,,m,,,,,,,,,,,,,,,160,0,939.0567,939.0894,m,1,0.0206,,[],[],[],[],[],[],[],939.0895,941.0894,941.0894,941.0898,[],[],[],[],[],[],[],,941.0899,941.0899,0.195026042,-0.027044271,0,0,0,,0,159,159,154,1,1,word,STORAGE,cursive,storage_c.png,,,,,
,,,,30723,001,2025-10-17_13h11.49.290,HW_LDT_1,2024.2.4,MacIntel,61.34969325,,,,,,,,,,,,,,,,,,,,,,,,,,,,,,,,,,,,,,,,,,,,,,,,,,,,,,,,,,,,,,,,,,,,,,,,,,,,,,,,,,,,,,,,,,,,,,,,,,,,,,,,,,,,,,,,,,,941.1038,946.0897
