counterbalance_lists.group,counterbalance_lists.remaining,get_list.started,get_list.stopped,participant,session,date,expName,psychopyVersion,OS,frameRate,Instructions.started,Instructions.stopped,key_resp.keys,instr_done_touch.x,instr_done_touch.y,instr_done_touch.leftButton,instr_done_touch.midButton,instr_done_touch.rightButton,instr_done_touch.clicked_name,start_instr.thisRepN,start_instr.thisTrialN,start_instr.thisN,start_instr.thisIndex,start_instr.ran,pageN,phase,instruct_text,has_image,instruct_image,showProgress.started,showProgress.stopped,fix.started,fix.stopped,prac.started,prac.stopped,response.keys,response.corr,response.rt,response.duration,touch_resp.x,touch_resp.y,touch_resp.leftButton,touch_resp.midButton,touch_resp.rightButton,touch_resp.time,touch_resp.clicked_name,rt,corr,feedback.started,feedback.stopped,trials.thisRepN,trials.thisTrialN,trials.thisN,trials.thisIndex,trials.ran,TrialID,StimulusType,Condition,PrimeDuration,Prime,Target,corrAns,Instructions_expt.started,Instructions_expt.stopped,key_resp_3.keys,key_resp_3.rt,key_resp_3.duration,instr_done_touch_3.x,instr_done_touch_3.y,instr_done_touch_3.leftButton,instr_done_touch_3.midButton,instr_done_touch_3.rightButton,instr_experiment.thisRepN,instr_experiment.thisTrialN,instr_experiment.thisN,instr_experiment.thisIndex,instr_experiment.ran,trialID,flag,maintask.started,maintask.stopped,key_resp_2.keys,key_resp_2.corr,key_resp_2.rt,key_resp_2.duration,targ_click.x,targ_click.y,targ_click.leftButton,targ_click.midButton,targ_click.rightButton,targ_click.time,targ_click.clicked_name,ITI.started,ITI.stopped,probe.started,probe.stopped,click_probe.x,click_probe.y,click_probe.leftButton,click_probe.midButton,click_probe.rightButton,click_probe.time,click_probe.clicked_name,key_resp_probe.keys,Break.started,Break.stopped,break_done_touch.x,break_done_touch.y,break_done_touch.leftButton,break_done_touch.midButton,break_done_touch.rightButton,break_done_keyboard.keys,list4_trials.thisRepN,list4_trials.thisTrialN,list4_trials.thisN,list4_trials.thisIndex,list4_trials.ran,list_id,item_type,string,font,stim_file,key_resp_probe.rt,key_resp_probe.duration,break_done_keyboard.rt,break_done_keyboard.duration,End.started,End.stopped
list4,,0.4093,0.4096,30745,001,2025-10-21_20h31.41.988,HW_LDT_1,2024.2.4,MacIntel,59.88023952,,,,,,,,,,,,,,,,,,,,,,,,,,,,,,,,,,,,,,,,,,,,,,,,,,,,,,,,,,,,,,,,,,,,,,,,,,,,,,,,,,,,,,,,,,,,,,,,,,,,,,,,,,,,,,,,,,,,,,
,,,,30745,001,2025-10-21_20h31.41.988,HW_LDT_1,2024.2.4,MacIntel,59.88023952,0.4342,1.7138,,-0.099025472,-0.383987495,1,0,0,instr_done_button,0,0,0,0,1,1,instructions,"INSTRUCTIONS
At the start of each trial, look at the plus sign  (+) in the center of the screen.  This tells you that a trial is about to begin and where to look. Second, the plus sign will disappear and a string of letters will appear. Your task is to determine if the string of letters is a word or not. If the item is a word press the M key (on keyboard)  or touch the word button (phone/tablet).  If the item is not a word,  press the  Z key (on keyboard)  or touch the nonword button (on phone/tablet). The items will be presented for a short time. 
Press the space bar or touch  continue.",0,,,,,,,,,,,,,,,,,,,,,,,,,,,,,,,,,,,,,,,,,,,,,,,,,,,,,,,,,,,,,,,,,,,,,,,,,,,,,,,,,,,,,,,,,,,,,,,,,,,,
,,,,30745,001,2025-10-21_20h31.41.988,HW_LDT_1,2024.2.4,MacIntel,59.88023952,1.7151,4.1135,,-0.099025472,-0.383987495,1,0,0,instr_done_button,0,1,1,1,1,2,instructions,"If your device has a keyboard, press the 'Z' key for nonwords and the 'M' key for words.





Press the space bar or touch the button below to continue.",0,keyboard-example.gif,,,,,,,,,,,,,,,,,,,,,,,,,,,,,,,,,,,,,,,,,,,,,,,,,,,,,,,,,,,,,,,,,,,,,,,,,,,,,,,,,,,,,,,,,,,,,,,,,,,
,,,,30745,001,2025-10-21_20h31.41.988,HW_LDT_1,2024.2.4,MacIntel,59.88023952,4.1152,5.3471,,-0.099025472,-0.383987495,1,0,0,instr_done_button,0,2,2,2,1,3,instructions,"If you are using a touchscreen only device, use the buttons on the screen. Do not use the mouse.





Press the space bar or touch the button below to continue.",0,touchscreen-example.gif,,,,,,,,,,,,,,,,,,,,,,,,,,,,,,,,,,,,,,,,,,,,,,,,,,,,,,,,,,,,,,,,,,,,,,,,,,,,,,,,,,,,,,,,,,,,,,,,,,,
,,,,30745,001,2025-10-21_20h31.41.988,HW_LDT_1,2024.2.4,MacIntel,59.88023952,5.3491,10.3654,,-0.095863715,-0.382696872,1,0,0,instr_done_button,0,3,3,3,1,4,instructions,"It is very important that you respond as quickly and accurately as possible, as each letter string will only be on the screen for two seconds. If you do not respond within this time, the message 'Too slow!' will be displayed and the experiment will progress to the next letter string. The first 20 trials will be practice trials and you will receive feedback on your answers. 

Press the space bar or touch the button below to start the practice trials.",0,,,,,,,,,,,,,,,,,,,,,,,,,,,,,,,,,,,,,,,,,,,,,,,,,,,,,,,,,,,,,,,,,,,,,,,,,,,,,,,,,,,,,,,,,,,,,,,,,,,,
,,,,30745,001,2025-10-21_20h31.41.988,HW_LDT_1,2024.2.4,MacIntel,59.88023952,,,,,,,,,,,,,,,,,,,,10.3979,10.5655,10.5657,11.0657,11.0661,15.101,z,1,4.0012,,[],[],[],[],[],[],[],4.0012,1,15.1014,15.5988,0,0,0,11,1,1012,NW,"ID",16,rashet,RASHET,z,,,,,,,,,,,,,,,,,,,,,,,,,,,,,,,,,,,,,,,,,,,,,,,,,,,,,,,,,,,,,,,,,,
,,,,30745,001,2025-10-21_20h31.41.988,HW_LDT_1,2024.2.4,MacIntel,59.88023952,,,,,,,,,,,,,,,,,,,,15.6002,15.7988,15.7989,16.2987,16.2996,17.9137,m,1,1.593,,[],[],[],[],[],[],[],1.593,1,17.9141,18.4136,0,1,1,4,1,1005,WORD,UN,33,abound,SQUEAK,m,,,,,,,,,,,,,,,,,,,,,,,,,,,,,,,,,,,,,,,,,,,,,,,,,,,,,,,,,,,,,,,,,,
,,,,30745,001,2025-10-21_20h31.41.988,HW_LDT_1,2024.2.4,MacIntel,59.88023952,,,,,,,,,,,,,,,,,,,,18.4152,18.6139,18.614,19.1155,19.1164,20.3009,m,1,1.1575,,[],[],[],[],[],[],[],1.1575,1,20.3009,20.7986,0,2,2,7,1,1008,WORD,UN,16,hurdle,VOLUME,m,,,,,,,,,,,,,,,,,,,,,,,,,,,,,,,,,,,,,,,,,,,,,,,,,,,,,,,,,,,,,,,,,,
,,,,30745,001,2025-10-21_20h31.41.988,HW_LDT_1,2024.2.4,MacIntel,59.88023952,,,,,,,,,,,,,,,,,,,,20.8,20.9933,20.9933,21.4965,21.4974,22.1643,m,1,0.648,,[],[],[],[],[],[],[],0.648,1,22.1644,22.6652,0,3,3,2,1,1003,WORD,"ID",16,almond,ALMOND,m,,,,,,,,,,,,,,,,,,,,,,,,,,,,,,,,,,,,,,,,,,,,,,,,,,,,,,,,,,,,,,,,,,
,,,,30745,001,2025-10-21_20h31.41.988,HW_LDT_1,2024.2.4,MacIntel,59.88023952,,,,,,,,,,,,,,,,,,,,22.6664,22.8654,22.8654,23.3646,23.3654,24.3323,m,0,0.9504,,[],[],[],[],[],[],[],0.9504,0,24.3331,24.8319,0,4,4,14,1,1015,NW,UN,16,miaber,THRALE,z,,,,,,,,,,,,,,,,,,,,,,,,,,,,,,,,,,,,,,,,,,,,,,,,,,,,,,,,,,,,,,,,,,
,,,,30745,001,2025-10-21_20h31.41.988,HW_LDT_1,2024.2.4,MacIntel,59.88023952,,,,,,,,,,,,,,,,,,,,24.8331,25.0316,25.0317,25.5319,25.5328,26.5324,m,0,0.9806,,[],[],[],[],[],[],[],0.9806,0,26.5326,27.0301,0,5,5,13,1,1014,NW,UN,33,winfer,ROUPET,z,,,,,,,,,,,,,,,,,,,,,,,,,,,,,,,,,,,,,,,,,,,,,,,,,,,,,,,,,,,,,,,,,,
,,,,30745,001,2025-10-21_20h31.41.988,HW_LDT_1,2024.2.4,MacIntel,59.88023952,,,,,,,,,,,,,,,,,,,,27.0315,27.2125,27.2126,27.7314,27.7323,28.3457,m,1,0.5963,,[],[],[],[],[],[],[],0.5963,1,28.3464,28.8339,0,6,6,3,1,1004,WORD,"ID",16,matrix,MATRIX,m,,,,,,,,,,,,,,,,,,,,,,,,,,,,,,,,,,,,,,,,,,,,,,,,,,,,,,,,,,,,,,,,,,
,,,,30745,001,2025-10-21_20h31.41.988,HW_LDT_1,2024.2.4,MacIntel,59.88023952,,,,,,,,,,,,,,,,,,,,28.8352,29.0319,29.032,29.5323,29.5332,30.3484,z,1,0.8034,,[],[],[],[],[],[],[],0.8034,1,30.3485,30.8505,0,7,7,9,1,1010,NW,"ID",33,fariny,FARINY,z,,,,,,,,,,,,,,,,,,,,,,,,,,,,,,,,,,,,,,,,,,,,,,,,,,,,,,,,,,,,,,,,,,
,,,,30745,001,2025-10-21_20h31.41.988,HW_LDT_1,2024.2.4,MacIntel,59.88023952,,,,,,,,,,,,,,,,,,,,30.8517,31.0471,31.0471,31.5486,31.5494,32.3147,z,1,0.7512,,[],[],[],[],[],[],[],0.7512,1,32.3148,32.8149,0,8,8,15,1,1016,NW,UN,16,mushed,WHAISE,z,,,,,,,,,,,,,,,,,,,,,,,,,,,,,,,,,,,,,,,,,,,,,,,,,,,,,,,,,,,,,,,,,,
,,,,30745,001,2025-10-21_20h31.41.988,HW_LDT_1,2024.2.4,MacIntel,59.88023952,,,,,,,,,,,,,,,,,,,,32.8159,33.0151,33.0151,33.5147,33.5156,34.2512,m,1,0.7211,,[],[],[],[],[],[],[],0.7211,1,34.2513,34.7483,0,9,9,5,1,1006,WORD,UN,33,frenzy,OBTAIN,m,,,,,,,,,,,,,,,,,,,,,,,,,,,,,,,,,,,,,,,,,,,,,,,,,,,,,,,,,,,,,,,,,,
,,,,30745,001,2025-10-21_20h31.41.988,HW_LDT_1,2024.2.4,MacIntel,59.88023952,,,,,,,,,,,,,,,,,,,,34.7494,34.9484,34.9485,35.4479,35.4487,36.1803,m,1,0.7181,,[],[],[],[],[],[],[],0.7181,1,36.1804,36.6798,0,10,10,6,1,1007,WORD,UN,16,tropic,ZOMBIE,m,,,,,,,,,,,,,,,,,,,,,,,,,,,,,,,,,,,,,,,,,,,,,,,,,,,,,,,,,,,,,,,,,,
,,,,30745,001,2025-10-21_20h31.41.988,HW_LDT_1,2024.2.4,MacIntel,59.88023952,,,,,,,,,,,,,,,,,,,,36.6809,36.8798,36.8798,37.38,37.381,38.03,m,1,0.6146,,[],[],[],[],[],[],[],0.6146,1,38.0301,38.5296,0,11,11,0,1,1001,WORD,"ID",33,utopia,UTOPIA,m,,,,,,,,,,,,,,,,,,,,,,,,,,,,,,,,,,,,,,,,,,,,,,,,,,,,,,,,,,,,,,,,,,
,,,,30745,001,2025-10-21_20h31.41.988,HW_LDT_1,2024.2.4,MacIntel,59.88023952,,,,,,,,,,,,,,,,,,,,38.531,38.7298,38.7298,39.2299,39.2308,40.0983,z,1,0.837,,[],[],[],[],[],[],[],0.837,1,40.0984,40.598,0,12,12,8,1,1009,NW,"ID",33,aslert,ASLERT,z,,,,,,,,,,,,,,,,,,,,,,,,,,,,,,,,,,,,,,,,,,,,,,,,,,,,,,,,,,,,,,,,,,
,,,,30745,001,2025-10-21_20h31.41.988,HW_LDT_1,2024.2.4,MacIntel,59.88023952,,,,,,,,,,,,,,,,,,,,40.599,40.7966,40.7966,41.2982,41.2991,42.1153,m,1,0.7972,,[],[],[],[],[],[],[],0.7972,1,42.1154,42.615,0,13,13,1,1,1002,WORD,"ID",33,adjust,ADJUST,m,,,,,,,,,,,,,,,,,,,,,,,,,,,,,,,,,,,,,,,,,,,,,,,,,,,,,,,,,,,,,,,,,,
,,,,30745,001,2025-10-21_20h31.41.988,HW_LDT_1,2024.2.4,MacIntel,59.88023952,,,,,,,,,,,,,,,,,,,,42.6161,42.8148,42.8148,43.3149,43.3157,44.2962,z,1,0.9533,,[],[],[],[],[],[],[],0.9533,1,44.2964,44.7983,0,14,14,10,1,1011,NW,"ID",16,inlade,INLADE,z,,,,,,,,,,,,,,,,,,,,,,,,,,,,,,,,,,,,,,,,,,,,,,,,,,,,,,,,,,,,,,,,,,
,,,,30745,001,2025-10-21_20h31.41.988,HW_LDT_1,2024.2.4,MacIntel,59.88023952,,,,,,,,,,,,,,,,,,,,44.7993,45.0012,45.0013,45.4981,45.4989,46.2647,z,1,0.7495,,[],[],[],[],[],[],[],0.7495,1,46.2648,46.7639,0,15,15,12,1,1013,NW,UN,33,adveil,SPRINY,z,,,,,,,,,,,,,,,,,,,,,,,,,,,,,,,,,,,,,,,,,,,,,,,,,,,,,,,,,,,,,,,,,,
,,,,30745,001,2025-10-21_20h31.41.988,HW_LDT_1,2024.2.4,MacIntel,59.88023952,,,,,,,,,,,,,,,1,end_of_practice,"You have completed the practice trials. During the experimental trials, you will not receive feedback. On some trials you will be asked to report whether the item you just saw was in cursive or print. 
Before you begin, please ensure that you are in a comfortable and quiet location and will not be disturbed for about 15 minutes, as we cannot use your data if you do not complete all the trials. 
 When you are ready to start the experimental trials, please press space or touch the button below.",,,,,,,,,,,,,,,,,,,,,,,,,,,,,,,,,,,,46.7701,47.7101,space,0.9148,,-0.095863715,-0.382696872,0,0,0,0,0,0,0,1,,,,,,,,,,,,,,,,,,,,,,,,,,,,,,,,,,,,,,,,,,,,,,,,,,,
,,,,30745,001,2025-10-21_20h31.41.988,HW_LDT_1,2024.2.4,MacIntel,59.88023952,,,,,,,,,,,,,,,,,,,,47.7309,47.9133,47.9133,48.3977,,,,,,,,,,,,,,2.0417,1,,,,,,,,,,,,,,m,,,,,,,,,,,,,,,,1,0,48.3994,50.4457,m,1,2.0417,,[],[],[],[],[],[],[],50.4458,52.434,52.4342,52.4379,[],[],[],[],[],[],[],,52.438,52.4401,-0.095863715,-0.382696872,0,0,0,,0,0,0,114,1,4,word,LOCATE,cursive,locate_c.png,,,,,,
,,,,30745,001,2025-10-21_20h31.41.988,HW_LDT_1,2024.2.4,MacIntel,59.88023952,,,,,,,,,,,,,,,,,,,,52.4409,52.6312,52.6312,53.1336,,,,,,,,,,,,,,0.7046,1,,,,,,,,,,,,,,m,,,,,,,,,,,,,,,,2,0,53.1341,53.8465,m,1,0.7046,,[],[],[],[],[],[],[],53.8466,55.846,55.846,55.8463,[],[],[],[],[],[],[],,55.8464,55.8466,-0.095863715,-0.382696872,0,0,0,,0,1,1,88,1,4,word,CAMERA,print,camera_p.png,,,,,,
,,,,30745,001,2025-10-21_20h31.41.988,HW_LDT_1,2024.2.4,MacIntel,59.88023952,,,,,,,,,,,,,,,,,,,,55.8477,56.0463,56.0464,56.5464,,,,,,,,,,,,,,0.8,1,,,,,,,,,,,,,,m,,,,,,,,,,,,,,,,3,0,56.5469,57.348,m,1,0.8,,[],[],[],[],[],[],[],57.3481,59.3476,59.3476,59.3479,[],[],[],[],[],[],[],,59.3479,59.348,-0.095863715,-0.382696872,0,0,0,,0,2,2,132,1,4,word,PROPOSAL,print,proposal_p.png,,,,,,
,,,,30745,001,2025-10-21_20h31.41.988,HW_LDT_1,2024.2.4,MacIntel,59.88023952,,,,,,,,,,,,,,,,,,,,59.349,59.5483,59.5484,60.048,,,,,,,,,,,,,,1.5405,0,,,,,,,,,,,,,,m,,,,,,,,,,,,,,,,4,0,60.0485,61.5961,z,0,1.5405,,[],[],[],[],[],[],[],61.5961,63.5955,63.5955,63.5958,[],[],[],[],[],[],[],,63.5959,63.5962,-0.095863715,-0.382696872,0,0,0,,0,3,3,113,1,4,word,LITERAL,cursive,literal_c.png,,,,,,
,,,,30745,001,2025-10-21_20h31.41.988,HW_LDT_1,2024.2.4,MacIntel,59.88023952,,,,,,,,,,,,,,,,,,,,63.5973,63.7957,63.7958,64.2961,,,,,,,,,,,,,,1.3962,1,,,,,,,,,,,,,,m,,,,,,,,,,,,,,,,5,0,64.2966,65.6951,m,1,1.3962,,[],[],[],[],[],[],[],65.6952,67.698,67.698,67.6983,[],[],[],[],[],[],[],,67.6983,67.6985,-0.095863715,-0.382696872,0,0,0,,0,4,4,154,1,4,word,STORAGE,print,storage_p.png,,,,,,
,,,,30745,001,2025-10-21_20h31.41.988,HW_LDT_1,2024.2.4,MacIntel,59.88023952,,,,,,,,,,,,,,,,,,,,67.6994,67.9002,67.9003,68.3962,,,,,,,,,,,,,,0.6999,0,,,,,,,,,,,,,,z,,,,,,,,,,,,,,,,6,0,68.3967,69.0977,m,0,0.6999,,[],[],[],[],[],[],[],69.0979,71.0979,71.098,71.0983,[],[],[],[],[],[],[],,71.0984,71.0985,-0.095863715,-0.382696872,0,0,0,,0,5,5,53,1,4,TL,cemerony,print,cemerony_p.png,,,,,,
,,,,30745,001,2025-10-21_20h31.41.988,HW_LDT_1,2024.2.4,MacIntel,59.88023952,,,,,,,,,,,,,,,,,,,,71.0996,71.2961,71.2962,71.7967,,,,,,,,,,,,,,1.1456,1,,,,,,,,,,,,,,z,,,,,,,,,,,,,,,,7,0,71.7972,72.946,z,1,1.1456,,[],[],[],[],[],[],[],72.9461,74.9461,74.9462,74.9466,[],[],[],[],[],[],[],,74.9467,74.9469,-0.095863715,-0.382696872,0,0,0,,0,6,6,14,1,4,RL,delahe,cursive,delahe_c.png,,,,,,
,,,,30745,001,2025-10-21_20h31.41.988,HW_LDT_1,2024.2.4,MacIntel,59.88023952,,,,,,,,,,,,,,,,,,,,74.9482,75.1475,75.1477,75.6479,,,,,,,,,,,,,,1.0306,1,,,,,,,,,,,,,,z,,,,,,,,,,,,,,,,8,1,75.6484,76.6798,z,1,1.0306,,[],[],[],[],[],[],[],76.6799,78.6809,78.681,82.7117,[],[],[],[],[],[],[],z,82.7119,82.712,-0.095863715,-0.382696872,0,0,0,,0,7,7,4,1,4,RL,betemit,cursive,betemit_c.png,4.0247,,,,,
,,,,30745,001,2025-10-21_20h31.41.988,HW_LDT_1,2024.2.4,MacIntel,59.88023952,,,,,,,,,,,,,,,,,,,,82.7133,82.913,82.9132,83.4144,,,,,,,,,,,,,,2.1329,1,,,,,,,,,,,,,,m,,,,,,,,,,,,,,,,9,0,83.4149,85.5489,m,1,2.1329,,[],[],[],[],[],[],[],85.549,87.5478,87.5478,87.548,[],[],[],[],[],[],[],,87.548,87.5482,-0.095863715,-0.382696872,0,0,0,,0,8,8,102,1,4,word,DENSITY,cursive,density_c.png,,,,,,
,,,,30745,001,2025-10-21_20h31.41.988,HW_LDT_1,2024.2.4,MacIntel,59.88023952,,,,,,,,,,,,,,,,,,,,87.5494,87.7476,87.7476,88.2473,,,,,,,,,,,,,,1.131,1,,,,,,,,,,,,,,z,,,,,,,,,,,,,,,,10,0,88.2478,89.3799,z,1,1.131,,[],[],[],[],[],[],[],89.38,91.3808,91.3808,91.381,[],[],[],[],[],[],[],,91.3811,91.3812,-0.095863715,-0.382696872,0,0,0,,0,9,9,67,1,4,TL,polupar,print,polupar_p.png,,,,,,
,,,,30745,001,2025-10-21_20h31.41.988,HW_LDT_1,2024.2.4,MacIntel,59.88023952,,,,,,,,,,,,,,,,,,,,91.3822,91.5807,91.5808,92.0832,,,,,,,,,,,,,,1.7702,0,,,,,,,,,,,,,,z,,,,,,,,,,,,,,,,11,0,92.0836,93.8619,m,0,1.7702,,[],[],[],[],[],[],[],93.8621,95.8625,95.8625,95.8627,[],[],[],[],[],[],[],,95.8628,95.8631,-0.095863715,-0.382696872,0,0,0,,0,10,10,10,1,4,RL,carminal,cursive,carminal_c.png,,,,,,
,,,,30745,001,2025-10-21_20h31.41.988,HW_LDT_1,2024.2.4,MacIntel,59.88023952,,,,,,,,,,,,,,,,,,,,95.8642,96.0624,96.0625,96.5619,,,,,,,,,,,,,,1.1746,1,,,,,,,,,,,,,,z,,,,,,,,,,,,,,,,12,0,96.5623,97.7455,z,1,1.1746,,[],[],[],[],[],[],[],97.7455,99.733,99.7331,99.7333,[],[],[],[],[],[],[],,99.7333,99.7334,-0.095863715,-0.382696872,0,0,0,,0,11,11,36,1,4,RL,rabigly,cursive,rabigly_c.png,,,,,,
,,,,30745,001,2025-10-21_20h31.41.988,HW_LDT_1,2024.2.4,MacIntel,59.88023952,,,,,,,,,,,,,,,,,,,,99.7344,99.9292,99.9292,100.433,,,,,,,,,,,,,,3.425,1,,,,,,,,,,,,,,z,,,,,,,,,,,,,,,,13,0,100.4334,103.8617,z,1,3.425,,[],[],[],[],[],[],[],103.8618,105.8611,105.8612,105.8612,[],[],[],[],[],[],[],,105.8612,105.8613,-0.095863715,-0.382696872,0,0,0,,0,12,12,73,1,4,TL,regilion,print,regilion_p.png,,,,,,
,,,,30745,001,2025-10-21_20h31.41.988,HW_LDT_1,2024.2.4,MacIntel,59.88023952,,,,,,,,,,,,,,,,,,,,105.8618,106.0617,106.0617,106.5616,,,,,,,,,,,,,,1.7796,1,,,,,,,,,,,,,,z,,,,,,,,,,,,,,,,14,0,106.5618,108.345,z,1,1.7796,,[],[],[],[],[],[],[],108.3451,110.3446,110.3446,110.3448,[],[],[],[],[],[],[],,110.3449,110.3449,-0.095863715,-0.382696872,0,0,0,,0,13,13,5,1,4,RL,bebine,print,bebine_p.png,,,,,,
,,,,30745,001,2025-10-21_20h31.41.988,HW_LDT_1,2024.2.4,MacIntel,59.88023952,,,,,,,,,,,,,,,,,,,,110.3453,110.5452,110.5452,111.0454,,,,,,,,,,,,,,0.7302,0,,,,,,,,,,,,,,z,,,,,,,,,,,,,,,,15,0,111.0458,111.7779,m,0,0.7302,,[],[],[],[],[],[],[],111.7779,113.7805,113.7805,113.7807,[],[],[],[],[],[],[],,113.7808,113.7809,-0.095863715,-0.382696872,0,0,0,,0,14,14,37,1,4,RL,renutal,cursive,renutal_c.png,,,,,,
,,,,30745,001,2025-10-21_20h31.41.988,HW_LDT_1,2024.2.4,MacIntel,59.88023952,,,,,,,,,,,,,,,,,,,,113.7819,113.9794,113.9794,114.4802,,,,,,,,,,,,,,1.6738,1,,,,,,,,,,,,,,m,,,,,,,,,,,,,,,,16,0,114.4806,116.1619,m,1,1.6738,,[],[],[],[],[],[],[],116.1619,118.1622,118.1623,118.1625,[],[],[],[],[],[],[],,118.1625,118.1627,-0.095863715,-0.382696872,0,0,0,,0,15,15,129,1,4,word,PARENT,cursive,parent_c.png,,,,,,
,,,,30745,001,2025-10-21_20h31.41.988,HW_LDT_1,2024.2.4,MacIntel,59.88023952,,,,,,,,,,,,,,,,,,,,118.1638,118.3604,118.3604,118.866,,,,,,,,,,,,,,0.9958,1,,,,,,,,,,,,,,z,,,,,,,,,,,,,,,,17,0,118.8665,119.863,z,1,0.9958,,[],[],[],[],[],[],[],119.8631,121.8637,121.8638,121.864,[],[],[],[],[],[],[],,121.864,121.8641,-0.095863715,-0.382696872,0,0,0,,0,16,16,29,1,4,RL,motide,print,motide_p.png,,,,,,
,,,,30745,001,2025-10-21_20h31.41.988,HW_LDT_1,2024.2.4,MacIntel,59.88023952,,,,,,,,,,,,,,,,,,,,121.8652,122.0638,122.064,122.5633,,,,,,,,,,,,,,0.866,1,,,,,,,,,,,,,,z,,,,,,,,,,,,,,,,18,0,122.5637,123.4303,z,1,0.866,,[],[],[],[],[],[],[],123.4304,125.4299,125.43,125.4302,[],[],[],[],[],[],[],,125.4303,125.4304,-0.095863715,-0.382696872,0,0,0,,0,17,17,16,1,4,RL,desifate,cursive,desifate_c.png,,,,,,
,,,,30745,001,2025-10-21_20h31.41.988,HW_LDT_1,2024.2.4,MacIntel,59.88023952,,,,,,,,,,,,,,,,,,,,125.4315,125.6285,125.6285,126.1307,,,,,,,,,,,,,,2.3976,1,,,,,,,,,,,,,,z,,,,,,,,,,,,,,,,19,0,126.1312,128.5298,z,1,2.3976,,[],[],[],[],[],[],[],128.5299,130.529,130.5291,130.5291,[],[],[],[],[],[],[],,130.5292,130.5293,-0.095863715,-0.382696872,0,0,0,,0,18,18,51,1,4,TL,adsivory,cursive,adsivory_c.png,,,,,,
,,,,30745,001,2025-10-21_20h31.41.988,HW_LDT_1,2024.2.4,MacIntel,59.88023952,,,,,,,,,,,,,,,,,,,,130.5301,130.7301,130.7303,131.2293,,,,,,,,,,,,,,1.499,0,,,,,,,,,,,,,,m,,,,,,,,,,,,,,,,20,0,131.2298,132.7296,z,0,1.499,,[],[],[],[],[],[],[],132.7297,134.73,134.7301,134.7302,[],[],[],[],[],[],[],,134.7303,134.7304,-0.095863715,-0.382696872,0,0,0,,0,19,19,91,1,4,word,CARDINAL,cursive,cardinal_c.png,,,,,,
,,,,30745,001,2025-10-21_20h31.41.988,HW_LDT_1,2024.2.4,MacIntel,59.88023952,,,,,,,,,,,,,,,,,,,,134.7314,134.9323,134.9324,135.4304,,,,,,,,,,,,,,1.2435,1,,,,,,,,,,,,,,m,,,,,,,,,,,,,,,,21,0,135.4309,136.6785,m,1,1.2435,,[],[],[],[],[],[],[],136.6785,138.6778,138.6778,138.6781,[],[],[],[],[],[],[],,138.6782,138.6783,-0.095863715,-0.382696872,0,0,0,,0,20,20,80,1,4,word,ACADEMY,print,academy_p.png,,,,,,
,,,,30745,001,2025-10-21_20h31.41.988,HW_LDT_1,2024.2.4,MacIntel,59.88023952,,,,,,,,,,,,,,,,,,,,138.6793,138.8801,138.8802,139.3803,,,,,,,,,,,,,,0.7652,1,,,,,,,,,,,,,,m,,,,,,,,,,,,,,,,22,0,139.3808,140.1467,m,1,0.7652,,[],[],[],[],[],[],[],140.1468,142.1453,142.1454,142.1455,[],[],[],[],[],[],[],,142.1455,142.1456,-0.095863715,-0.382696872,0,0,0,,0,21,21,115,1,4,word,LOGICAL,print,logical_p.png,,,,,,
,,,,30745,001,2025-10-21_20h31.41.988,HW_LDT_1,2024.2.4,MacIntel,59.88023952,,,,,,,,,,,,,,,,,,,,142.1468,142.3465,142.3465,142.8463,,,,,,,,,,,,,,1.198,1,,,,,,,,,,,,,,z,,,,,,,,,,,,,,,,23,0,142.8468,144.0461,z,1,1.198,,[],[],[],[],[],[],[],144.0461,146.049,146.0491,146.0493,[],[],[],[],[],[],[],,146.0493,146.0494,-0.095863715,-0.382696872,0,0,0,,0,22,22,69,1,4,TL,quafily,print,quafily_p.png,,,,,,
,,,,30745,001,2025-10-21_20h31.41.988,HW_LDT_1,2024.2.4,MacIntel,59.88023952,,,,,,,,,,,,,,,,,,,,146.0505,146.2469,146.2469,146.7458,,,,,,,,,,,,,,1.3082,1,,,,,,,,,,,,,,z,,,,,,,,,,,,,,,,24,0,146.7462,148.0618,z,1,1.3082,,[],[],[],[],[],[],[],148.0619,150.0609,150.0609,150.0611,[],[],[],[],[],[],[],,150.0612,150.0613,-0.095863715,-0.382696872,0,0,0,,0,23,23,21,1,4,RL,insibate,print,insibate_p.png,,,,,,
,,,,30745,001,2025-10-21_20h31.41.988,HW_LDT_1,2024.2.4,MacIntel,59.88023952,,,,,,,,,,,,,,,,,,,,150.0626,150.2617,150.2618,150.7615,,,,,,,,,,,,,,0.9118,1,,,,,,,,,,,,,,m,,,,,,,,,,,,,,,,25,0,150.762,151.6747,m,1,0.9118,,[],[],[],[],[],[],[],151.6748,153.6632,153.6633,153.6634,[],[],[],[],[],[],[],,153.6634,153.6636,-0.095863715,-0.382696872,0,0,0,,0,24,24,150,1,4,word,SENTIMENT,print,sentiment_p.png,,,,,,
,,,,30745,001,2025-10-21_20h31.41.988,HW_LDT_1,2024.2.4,MacIntel,59.88023952,,,,,,,,,,,,,,,,,,,,153.6646,153.8576,153.8576,154.3634,,,,,,,,,,,,,,1.1447,1,,,,,,,,,,,,,,m,,,,,,,,,,,,,,,,26,1,154.3638,155.5105,m,1,1.1447,,[],[],[],[],[],[],[],155.5106,157.5131,157.5132,165.4798,[],[],[],[],[],[],[],z,165.4799,165.4801,-0.095863715,-0.382696872,0,0,0,,0,25,25,152,1,4,word,SPECIMEN,cursive,specimen_c.png,7.9661,,,,,
,,,,30745,001,2025-10-21_20h31.41.988,HW_LDT_1,2024.2.4,MacIntel,59.88023952,,,,,,,,,,,,,,,,,,,,165.4808,165.6791,165.6791,166.1798,,,,,,,,,,,,,,1.4818,1,,,,,,,,,,,,,,z,,,,,,,,,,,,,,,,27,0,166.1803,167.663,z,1,1.4818,,[],[],[],[],[],[],[],167.6632,169.6631,169.6632,169.6634,[],[],[],[],[],[],[],,169.6634,169.6636,-0.095863715,-0.382696872,0,0,0,,0,26,26,28,1,4,RL,mifikary,print,mifikary_p.png,,,,,,
,,,,30745,001,2025-10-21_20h31.41.988,HW_LDT_1,2024.2.4,MacIntel,59.88023952,,,,,,,,,,,,,,,,,,,,169.6647,169.8576,169.8576,170.3632,,,,,,,,,,,,,,2.2627,0,,,,,,,,,,,,,,m,,,,,,,,,,,,,,,,28,0,170.3637,172.6275,z,0,2.2627,,[],[],[],[],[],[],[],172.6276,174.6286,174.6287,174.6289,[],[],[],[],[],[],[],,174.6289,174.6291,-0.095863715,-0.382696872,0,0,0,,0,27,27,101,1,4,word,DELICATE,cursive,delicate_c.png,,,,,,
,,,,30745,001,2025-10-21_20h31.41.988,HW_LDT_1,2024.2.4,MacIntel,59.88023952,,,,,,,,,,,,,,,,,,,,174.6301,174.8296,174.8298,175.3297,,,,,,,,,,,,,,1.8705,1,,,,,,,,,,,,,,m,,,,,,,,,,,,,,,,29,0,175.3302,177.2106,m,1,1.8705,,[],[],[],[],[],[],[],177.2107,179.2129,179.2129,179.2131,[],[],[],[],[],[],[],,179.2131,179.2132,-0.095863715,-0.382696872,0,0,0,,0,28,28,116,1,4,word,MARGINAL,cursive,marginal_c.png,,,,,,
,,,,30745,001,2025-10-21_20h31.41.988,HW_LDT_1,2024.2.4,MacIntel,59.88023952,,,,,,,,,,,,,,,,,,,,179.2142,179.4104,179.4105,179.916,,,,,,,,,,,,,,1.6063,1,,,,,,,,,,,,,,m,,,,,,,,,,,,,,,,30,0,179.9163,181.5279,m,1,1.6063,,[],[],[],[],[],[],[],181.5281,183.5279,183.528,183.5282,[],[],[],[],[],[],[],,183.5282,183.5283,-0.095863715,-0.382696872,0,0,0,,0,29,29,98,1,4,word,CRIMINAL,cursive,criminal_c.png,,,,,,
,,,,30745,001,2025-10-21_20h31.41.988,HW_LDT_1,2024.2.4,MacIntel,59.88023952,,,,,,,,,,,,,,,,,,,,183.5294,183.7288,183.7289,184.2299,,,,,,,,,,,,,,0.9719,1,,,,,,,,,,,,,,z,,,,,,,,,,,,,,,,31,0,184.2303,185.2103,z,1,0.9719,,[],[],[],[],[],[],[],185.2104,187.2109,187.211,187.2111,[],[],[],[],[],[],[],,187.2111,187.2112,-0.095863715,-0.382696872,0,0,0,,0,30,30,26,1,4,RL,mesibine,cursive,mesibine_c.png,,,,,,
,,,,30745,001,2025-10-21_20h31.41.988,HW_LDT_1,2024.2.4,MacIntel,59.88023952,,,,,,,,,,,,,,,,,,,,187.2119,187.4129,187.4129,187.9115,,,,,,,,,,,,,,1.6423,1,,,,,,,,,,,,,,z,,,,,,,,,,,,,,,,32,0,187.912,189.5601,z,1,1.6423,,[],[],[],[],[],[],[],189.5601,191.5481,191.5482,191.5483,[],[],[],[],[],[],[],,191.5483,191.5485,-0.095863715,-0.382696872,0,0,0,,0,31,31,79,1,4,TL,tritube,print,tritube_p.png,,,,,,
,,,,30745,001,2025-10-21_20h31.41.988,HW_LDT_1,2024.2.4,MacIntel,59.88023952,,,,,,,,,,,,,,,,,,,,191.5496,191.7448,191.7449,192.2463,,,,,,,,,,,,,,1.3657,1,,,,,,,,,,,,,,z,,,,,,,,,,,,,,,,33,0,192.2468,193.6133,z,1,1.3657,,[],[],[],[],[],[],[],193.6134,195.6127,195.6128,195.613,[],[],[],[],[],[],[],,195.613,195.6131,-0.095863715,-0.382696872,0,0,0,,0,32,32,6,1,4,RL,caleberia,cursive,caleberia_c.png,,,,,,
,,,,30745,001,2025-10-21_20h31.41.988,HW_LDT_1,2024.2.4,MacIntel,59.88023952,,,,,,,,,,,,,,,,,,,,195.6141,195.8117,195.8118,196.3149,,,,,,,,,,,,,,0.907,1,,,,,,,,,,,,,,z,,,,,,,,,,,,,,,,34,0,196.3153,197.2277,z,1,0.907,,[],[],[],[],[],[],[],197.2277,199.2281,199.2282,199.2283,[],[],[],[],[],[],[],,199.2283,199.2285,-0.095863715,-0.382696872,0,0,0,,0,33,33,43,1,4,RL,rovastic,print,rovastic_p.png,,,,,,
,,,,30745,001,2025-10-21_20h31.41.988,HW_LDT_1,2024.2.4,MacIntel,59.88023952,,,,,,,,,,,,,,,,,,,,199.2294,199.4293,199.4294,199.9297,,,,,,,,,,,,,,1.3315,1,,,,,,,,,,,,,,z,,,,,,,,,,,,,,,,35,0,199.9301,201.2624,z,1,1.3315,,[],[],[],[],[],[],[],201.2624,203.2627,203.2627,203.2629,[],[],[],[],[],[],[],,203.2629,203.263,-0.095863715,-0.382696872,0,0,0,,0,34,34,56,1,4,TL,donimant,cursive,donimant_c.png,,,,,,
,,,,30745,001,2025-10-21_20h31.41.988,HW_LDT_1,2024.2.4,MacIntel,59.88023952,,,,,,,,,,,,,,,,,,,,203.264,203.4609,203.4609,203.9626,,,,,,,,,,,,,,1.0312,0,,,,,,,,,,,,,,m,,,,,,,,,,,,,,,,36,1,203.963,204.995,z,0,1.0312,,[],[],[],[],[],[],[],204.9951,206.995,206.9951,208.243,[],[],[],[],[],[],[],z,208.2431,208.2432,-0.095863715,-0.382696872,0,0,0,,0,35,35,100,1,4,word,DECADE,cursive,decade_c.png,1.246,,,,,
,,,,30745,001,2025-10-21_20h31.41.988,HW_LDT_1,2024.2.4,MacIntel,59.88023952,,,,,,,,,,,,,,,,,,,,208.244,208.4316,208.4316,208.9442,,,,,,,,,,,,,,1.1116,1,,,,,,,,,,,,,,m,,,,,,,,,,,,,,,,37,0,208.9447,210.061,m,1,1.1116,,[],[],[],[],[],[],[],210.061,212.0608,212.0609,212.061,[],[],[],[],[],[],[],,212.0611,212.0613,-0.095863715,-0.382696872,0,0,0,,0,36,36,81,1,4,word,ADVISORY,cursive,advisory_c.png,,,,,,
,,,,30745,001,2025-10-21_20h31.41.988,HW_LDT_1,2024.2.4,MacIntel,59.88023952,,,,,,,,,,,,,,,,,,,,212.0623,212.2582,212.2583,212.7567,,,,,,,,,,,,,,0.9828,1,,,,,,,,,,,,,,m,,,,,,,,,,,,,,,,38,0,212.7571,213.7407,m,1,0.9828,,[],[],[],[],[],[],[],213.7407,215.7411,215.7411,215.7413,[],[],[],[],[],[],[],,215.7413,215.7414,-0.095863715,-0.382696872,0,0,0,,0,37,37,123,1,4,word,MODERATE,print,moderate_p.png,,,,,,
,,,,30745,001,2025-10-21_20h31.41.988,HW_LDT_1,2024.2.4,MacIntel,59.88023952,,,,,,,,,,,,,,,,,,,,215.7426,215.9289,215.9291,216.4291,,,,,,,,,,,,,,1.1973,1,,,,,,,,,,,,,,m,,,,,,,,,,,,,,,,39,0,216.4297,217.6277,m,1,1.1973,,[],[],[],[],[],[],[],217.6277,219.6281,219.6281,219.6283,[],[],[],[],[],[],[],,219.6283,219.6284,-0.095863715,-0.382696872,0,0,0,,0,38,38,151,1,4,word,SPECIFIC,cursive,specific_c.png,,,,,,
,,,,30745,001,2025-10-21_20h31.41.988,HW_LDT_1,2024.2.4,MacIntel,59.88023952,,,,,,,,,,,,,,,,,,,,219.6294,219.8315,219.8316,220.3282,,,,,,,,,,,,,,1.5661,1,,,,,,,,,,,,,,m,,,,,,,,,,,,,,,,40,0,220.3286,221.8955,m,1,1.5661,,[],[],[],[],[],[],[],221.8955,223.8956,223.8958,223.8959,[],[],[],[],[],[],[],,223.8959,223.896,-0.095863715,-0.382696872,0,0,0,,0,39,39,122,1,4,word,MOBILE,print,mobile_p.png,,,,,,
,,,,30745,001,2025-10-21_20h31.41.988,HW_LDT_1,2024.2.4,MacIntel,59.88023952,,,,,,,,,,,,,,,,,,,,223.897,224.098,224.098,224.5951,,,,,,,,,,,,,,6.4905,1,,,,,,,,,,,,,,z,,,,,,,,,,,,,,,,41,1,224.5955,231.0931,z,1,6.4905,,[],[],[],[],[],[],[],231.0931,233.0929,233.093,234.4606,[],[],[],[],[],[],[],z,234.4606,234.4608,-0.095863715,-0.382696872,0,0,0,,0,40,40,65,1,4,TL,orepator,print,orepator_p.png,1.3654,,,,,
,,,,30745,001,2025-10-21_20h31.41.988,HW_LDT_1,2024.2.4,MacIntel,59.88023952,,,,,,,,,,,,,,,,,,,,234.4619,234.6604,234.6605,235.1598,,,,,,,,,,,,,,0.8459,0,,,,,,,,,,,,,,m,,,,,,,,,,,,,,,,42,0,235.1604,236.0092,z,0,0.8459,,[],[],[],[],[],[],[],236.0093,238.0102,238.0102,238.0104,[],[],[],[],[],[],[],,238.0104,238.0105,-0.095863715,-0.382696872,0,0,0,,0,41,41,106,1,4,word,ELABORATE,cursive,elaborate_c.png,,,,,,
,,,,30745,001,2025-10-21_20h31.41.988,HW_LDT_1,2024.2.4,MacIntel,59.88023952,,,,,,,,,,,,,,,,,,,,238.0118,238.2106,238.2106,238.7098,,,,,,,,,,,,,,0.2591,1,,,,,,,,,,,,,,m,,,,,,,,,,,,,,,,43,0,238.71,238.9766,m,1,0.2591,,[],[],[],[],[],[],[],238.9767,240.9791,240.9791,240.9793,[],[],[],[],[],[],[],,240.9793,240.9794,-0.095863715,-0.382696872,0,0,0,,0,42,42,140,1,4,word,RELATIVE,print,relative_p.png,,,,,,
,,,,30745,001,2025-10-21_20h31.41.988,HW_LDT_1,2024.2.4,MacIntel,59.88023952,,,,,,,,,,,,,,,,,,,,240.9805,241.1775,241.1776,241.6787,,,,,,,,,,,,,,0.8991,1,,,,,,,,,,,,,,m,,,,,,,,,,,,,,,,44,1,241.6794,242.5793,m,1,0.8991,,[],[],[],[],[],[],[],242.5795,244.5761,244.5762,245.7925,[],[],[],[],[],[],[],z,245.7925,245.7925,-0.095863715,-0.382696872,0,0,0,,0,43,43,153,1,4,word,STOLEN,cursive,stolen_c.png,1.212,,,,,
,,,,30745,001,2025-10-21_20h31.41.988,HW_LDT_1,2024.2.4,MacIntel,59.88023952,,,,,,,,,,,,,,,,,,,,245.7932,245.9931,245.9931,246.4937,,,,,,,,,,,,,,1.0173,1,,,,,,,,,,,,,,m,,,,,,,,,,,,,,,,45,0,246.4942,247.5124,m,1,1.0173,,[],[],[],[],[],[],[],247.5125,249.51,249.5101,249.5102,[],[],[],[],[],[],[],,249.5102,249.5103,-0.095863715,-0.382696872,0,0,0,,0,44,44,158,1,4,word,VELOCITY,cursive,velocity_c.png,,,,,,
,,,,30745,001,2025-10-21_20h31.41.988,HW_LDT_1,2024.2.4,MacIntel,59.88023952,,,,,,,,,,,,,,,,,,,,249.511,249.7103,249.7104,250.2103,,,,,,,,,,,,,,0.9289,0,,,,,,,,,,,,,,m,,,,,,,,,,,,,,,,46,0,250.2108,251.1424,z,0,0.9289,,[],[],[],[],[],[],[],251.1424,253.1431,253.1432,253.1434,[],[],[],[],[],[],[],,253.1434,253.1436,-0.095863715,-0.382696872,0,0,0,,0,45,45,108,1,4,word,FORTUNE,cursive,fortune_c.png,,,,,,
,,,,30745,001,2025-10-21_20h31.41.988,HW_LDT_1,2024.2.4,MacIntel,59.88023952,,,,,,,,,,,,,,,,,,,,253.1447,253.3439,253.3439,253.8454,,,,,,,,,,,,,,1.2414,1,,,,,,,,,,,,,,m,,,,,,,,,,,,,,,,47,0,253.8458,255.0932,m,1,1.2414,,[],[],[],[],[],[],[],255.0933,257.0954,257.0955,257.0956,[],[],[],[],[],[],[],,257.0957,257.0957,-0.095863715,-0.382696872,0,0,0,,0,46,46,130,1,4,word,POLICY,cursive,policy_c.png,,,,,,
,,,,30745,001,2025-10-21_20h31.41.988,HW_LDT_1,2024.2.4,MacIntel,59.88023952,,,,,,,,,,,,,,,,,,,,257.0967,257.2951,257.2952,257.7947,,,,,,,,,,,,,,2.6,1,,,,,,,,,,,,,,z,,,,,,,,,,,,,,,,48,0,257.7949,260.3957,z,1,2.6,,[],[],[],[],[],[],[],260.3958,262.3924,262.3924,262.3925,[],[],[],[],[],[],[],,262.3926,262.3927,-0.095863715,-0.382696872,0,0,0,,0,47,47,58,1,4,TL,edivent,print,edivent_p.png,,,,,,
,,,,30745,001,2025-10-21_20h31.41.988,HW_LDT_1,2024.2.4,MacIntel,59.88023952,,,,,,,,,,,,,,,,,,,,262.3936,262.5928,262.5929,263.0935,,,,,,,,,,,,,,0.9506,1,,,,,,,,,,,,,,z,,,,,,,,,,,,,,,,49,0,263.0939,264.0455,z,1,0.9506,,[],[],[],[],[],[],[],264.0456,266.0452,266.0453,266.0454,[],[],[],[],[],[],[],,266.0455,266.0455,-0.095863715,-0.382696872,0,0,0,,0,48,48,47,1,4,RL,stopave,print,stopave_p.png,,,,,,
,,,,30745,001,2025-10-21_20h31.41.988,HW_LDT_1,2024.2.4,MacIntel,59.88023952,,,,,,,,,,,,,,,,,,,,266.0465,266.2435,266.2435,266.7451,,,,,,,,,,,,,,1.1115,1,,,,,,,,,,,,,,m,,,,,,,,,,,,,,,,50,0,266.7455,267.8594,m,1,1.1115,,[],[],[],[],[],[],[],267.8594,269.8601,269.8601,269.8604,[],[],[],[],[],[],[],,269.8604,269.8605,-0.095863715,-0.382696872,0,0,0,,0,49,49,117,1,4,word,MARINE,print,marine_p.png,,,,,,
,,,,30745,001,2025-10-21_20h31.41.988,HW_LDT_1,2024.2.4,MacIntel,59.88023952,,,,,,,,,,,,,,,,,,,,269.8616,270.056,270.056,270.5617,,,,,,,,,,,,,,0.8327,1,,,,,,,,,,,,,,m,,,,,,,,,,,,,,,,51,0,270.5621,271.3957,m,1,0.8327,,[],[],[],[],[],[],[],271.3958,273.3948,273.3948,273.395,[],[],[],[],[],[],[],,273.395,273.3951,-0.095863715,-0.382696872,0,0,0,,0,50,50,147,1,4,word,ROMANTIC,print,romantic_p.png,,,,,,
,,,,30745,001,2025-10-21_20h31.41.988,HW_LDT_1,2024.2.4,MacIntel,59.88023952,,,,,,,,,,,,,,,,,,,,273.3961,273.5945,273.5945,274.0949,,,,,,,,,,,,,,0.9325,1,,,,,,,,,,,,,,z,,,,,,,,,,,,,,,,52,1,274.0952,275.0286,z,1,0.9325,,[],[],[],[],[],[],[],275.0286,277.0267,277.0268,279.1454,[],[],[],[],[],[],[],z,279.1454,279.1455,-0.095863715,-0.382696872,0,0,0,,0,51,51,64,1,4,TL,moredate,print,moredate_p.png,2.118,,,,,
,,,,30745,001,2025-10-21_20h31.41.988,HW_LDT_1,2024.2.4,MacIntel,59.88023952,,,,,,,,,,,,,,,,,,,,279.1464,279.3398,279.3398,279.8388,,,,,,,,,,,,,,1.6051,1,,,,,,,,,,,,,,m,,,,,,,,,,,,,,,,53,0,279.8393,281.4452,m,1,1.6051,,[],[],[],[],[],[],[],281.4453,283.4449,283.445,283.4451,[],[],[],[],[],[],[],,283.4451,283.4452,-0.095863715,-0.382696872,0,0,0,,0,52,52,134,1,4,word,QUALIFY,print,qualify_p.png,,,,,,
,,,,30745,001,2025-10-21_20h31.41.988,HW_LDT_1,2024.2.4,MacIntel,59.88023952,,,,,,,,,,,,,,,,,,,,283.4462,283.6389,283.639,284.1447,,,,,,,,,,,,,,0.4477,0,,,,,,,,,,,,,,z,,,,,,,,,,,,,,,,54,1,284.1452,284.5935,m,0,0.4477,,[],[],[],[],[],[],[],284.5935,286.5932,286.5932,286.6484,[],[],[],[],[],[],[],z,286.6484,286.6485,-0.095863715,-0.382696872,0,0,0,,0,53,53,25,1,4,RL,macise,print,macise_p.png,0.0546,,,,,
,,,,30745,001,2025-10-21_20h31.41.988,HW_LDT_1,2024.2.4,MacIntel,59.88023952,,,,,,,,,,,,,,,,,,,,286.6494,286.8395,286.8396,287.3428,,,,,,,,,,,,,,0.3678,0,,,,,,,,,,,,,,z,,,,,,,,,,,,,,,,55,0,287.3432,287.7117,m,0,0.3678,,[],[],[],[],[],[],[],287.7118,289.7098,289.7098,289.7099,[],[],[],[],[],[],[],,289.71,289.7102,-0.095863715,-0.382696872,0,0,0,,0,54,54,70,1,4,TL,quatily,print,quatily_p.png,,,,,,
,,,,30745,001,2025-10-21_20h31.41.988,HW_LDT_1,2024.2.4,MacIntel,59.88023952,,,,,,,,,,,,,,,,,,,,289.7113,289.9098,289.9098,290.4098,,,,,,,,,,,,,,0.0813,1,,,,,,,,,,,,,,m,,,,,,,,,,,,,,,,56,1,290.4101,290.4919,m,1,0.0813,,[],[],[],[],[],[],[],290.4919,292.497,292.497,292.5611,[],[],[],[],[],[],[],z,292.5612,292.5614,-0.095863715,-0.382696872,0,0,0,,0,55,55,107,1,4,word,EVIDENT,print,evident_p.png,0.0634,,,,,
,,,,30745,001,2025-10-21_20h31.41.988,HW_LDT_1,2024.2.4,MacIntel,59.88023952,,,,,,,,,,,,,,,,,,,,292.5622,292.7616,292.7616,293.2617,,,,,,,,,,,,,,0.0644,1,,,,,,,,,,,,,,m,,,,,,,,,,,,,,,,57,0,293.2622,293.3276,m,1,0.0644,,[],[],[],[],[],[],[],293.3276,295.3276,295.3277,295.3278,[],[],[],[],[],[],[],,295.3279,295.3279,-0.095863715,-0.382696872,0,0,0,,0,56,56,105,1,4,word,EDITOR,print,editor_p.png,,,,,,
,,,,30745,001,2025-10-21_20h31.41.988,HW_LDT_1,2024.2.4,MacIntel,59.88023952,,,,,,,,,,,,,,,,,,,,295.329,295.528,295.5281,296.028,,,,,,,,,,,,,,0.1321,1,,,,,,,,,,,,,,m,,,,,,,,,,,,,,,,58,0,296.0286,296.1614,m,1,0.1321,,[],[],[],[],[],[],[],296.1615,298.1609,298.161,298.1612,[],[],[],[],[],[],[],,298.1612,298.1613,-0.095863715,-0.382696872,0,0,0,,0,57,57,128,1,4,word,PACIFIC,cursive,pacific_c.png,,,,,,
,,,,30745,001,2025-10-21_20h31.41.988,HW_LDT_1,2024.2.4,MacIntel,59.88023952,,,,,,,,,,,,,,,,,,,,298.1623,298.3596,298.3597,298.8596,,,,,,,,,,,,,,0.0295,0,,,,,,,,,,,,,,m,,,,,,,,,,,,,,,,59,0,298.8603,298.8906,z,0,0.0295,,[],[],[],[],[],[],[],298.8906,300.8918,300.8919,300.892,[],[],[],[],[],[],[],,300.8921,300.8923,-0.095863715,-0.382696872,0,0,0,,0,58,58,126,1,4,word,OPTIMAL,print,optimal_p.png,,,,,,
,,,,30745,001,2025-10-21_20h31.41.988,HW_LDT_1,2024.2.4,MacIntel,59.88023952,,,,,,,,,,,,,,,,,,,,300.8936,301.093,301.093,301.5928,,,,,,,,,,,,,,0.0311,1,,,,,,,,,,,,,,m,,,,,,,,,,,,,,,,60,1,301.5934,301.6253,m,1,0.0311,,[],[],[],[],[],[],[],301.6254,303.6261,303.6261,303.7612,[],[],[],[],[],[],[],z,303.7613,303.7614,-0.095863715,-0.382696872,0,0,0,,0,59,59,141,1,4,word,RELIGION,print,religion_p.png,0.1343,,,,,
,,,,30745,001,2025-10-21_20h31.41.988,HW_LDT_1,2024.2.4,MacIntel,59.88023952,,,,,,,,,,,,,,,,,,,,303.7623,303.9615,303.9616,304.4594,,,,,,,,,,,,,,0.0987,0,,,,,,,,,,,,,,m,,,,,,,,,,,,,,,,61,0,304.4599,304.5594,z,0,0.0987,,[],[],[],[],[],[],[],304.5594,306.5614,306.5614,306.5616,[],[],[],[],[],[],[],,306.5617,306.5618,-0.095863715,-0.382696872,0,0,0,,0,60,60,112,1,4,word,LIBERAL,cursive,liberal_c.png,,,,,,
,,,,30745,001,2025-10-21_20h31.41.988,HW_LDT_1,2024.2.4,MacIntel,59.88023952,,,,,,,,,,,,,,,,,,,,306.5628,306.7606,306.7607,307.26,,,,,,,,,,,,,,0.0758,0,,,,,,,,,,,,,,m,,,,,,,,,,,,,,,,62,0,307.2603,307.3429,z,0,0.0758,,[],[],[],[],[],[],[],307.3431,309.3428,309.3429,309.3431,[],[],[],[],[],[],[],,309.3431,309.3432,-0.095863715,-0.382696872,0,0,0,,0,61,61,99,1,4,word,DEBATE,cursive,debate_c.png,,,,,,
,,,,30745,001,2025-10-21_20h31.41.988,HW_LDT_1,2024.2.4,MacIntel,59.88023952,,,,,,,,,,,,,,,,,,,,309.3443,309.5415,309.5416,310.0447,,,,,,,,,,,,,,0.107,0,,,,,,,,,,,,,,m,,,,,,,,,,,,,,,,63,0,310.0452,310.1588,z,0,0.107,,[],[],[],[],[],[],[],310.1589,312.1584,312.1584,312.1586,[],[],[],[],[],[],[],,312.1586,312.1586,-0.095863715,-0.382696872,0,0,0,,0,62,62,120,1,4,word,MILITARY,print,military_p.png,,,,,,
,,,,30745,001,2025-10-21_20h31.41.988,HW_LDT_1,2024.2.4,MacIntel,59.88023952,,,,,,,,,,,,,,,,,,,,312.1594,312.3469,312.347,312.8595,,,,,,,,,,,,,,0.1126,0,,,,,,,,,,,,,,z,,,,,,,,,,,,,,,,64,0,312.8602,312.976,m,0,0.1126,,[],[],[],[],[],[],[],312.976,314.9755,314.9756,314.9758,[],[],[],[],[],[],[],,314.9758,314.9759,-0.095863715,-0.382696872,0,0,0,,0,63,63,46,1,4,RL,skofen,cursive,skofen_c.png,,,,,,
,,,,30745,001,2025-10-21_20h31.41.988,HW_LDT_1,2024.2.4,MacIntel,59.88023952,,,,,,,,,,,,,,,,,,,,314.9766,315.1768,315.1769,315.6735,,,,,,,,,,,,,,0.0322,1,,,,,,,,,,,,,,z,,,,,,,,,,,,,,,,65,0,315.6739,315.7069,z,1,0.0322,,[],[],[],[],[],[],[],315.7069,317.6946,317.6947,317.6949,[],[],[],[],[],[],[],,317.6949,317.695,-0.095863715,-0.382696872,0,0,0,,0,64,64,31,1,4,RL,orimipal,print,orimipal_p.png,,,,,,
,,,,30745,001,2025-10-21_20h31.41.988,HW_LDT_1,2024.2.4,MacIntel,59.88023952,,,,,,,,,,,,,,,,,,,,317.696,317.8935,317.8937,318.3932,,,,,,,,,,,,,,1.1004,1,,,,,,,,,,,,,,m,,,,,,,,,,,,,,,,66,0,318.3936,319.4949,m,1,1.1004,,[],[],[],[],[],[],[],319.4949,321.4899,321.4899,321.49,[],[],[],[],[],[],[],,321.4901,321.4901,-0.095863715,-0.382696872,0,0,0,,0,65,65,144,1,4,word,RESIDENT,cursive,resident_c.png,,,,,,
,,,,30745,001,2025-10-21_20h31.41.988,HW_LDT_1,2024.2.4,MacIntel,59.88023952,,,,,,,,,,,,,,,,,,,,321.4911,321.6926,321.6926,322.1944,,,,,,,,,,,,,,6.9813,1,,,,,,,,,,,,,,z,,,,,,,,,,,,,,,,67,0,322.1949,329.1769,z,1,6.9813,,[],[],[],[],[],[],[],329.177,331.1765,331.1766,331.1767,[],[],[],[],[],[],[],,331.1769,331.1769,0.040613607,-0.287439846,0,0,0,,0,66,66,63,1,4,TL,miskate,print,miskate_p.png,,,,,,
,,,,30745,001,2025-10-21_20h31.41.988,HW_LDT_1,2024.2.4,MacIntel,59.88023952,,,,,,,,,,,,,,,,,,,,331.178,331.376,331.3761,331.8774,,,,,,,,,,,,,,0.4316,1,,,,,,,,,,,,,,z,,,,,,,,,,,,,,,,68,0,331.8777,332.3103,z,1,0.4316,,[],[],[],[],[],[],[],332.3103,334.3107,334.3107,334.3109,[],[],[],[],[],[],[],,334.3109,334.311,0.040613607,-0.287439846,0,0,0,,0,67,67,1,1,4,RL,afaneur,cursive,afaneur_c.png,,,,,,
,,,,30745,001,2025-10-21_20h31.41.988,HW_LDT_1,2024.2.4,MacIntel,59.88023952,,,,,,,,,,,,,,,,,,,,334.3119,334.5108,334.5108,335.0091,,,,,,,,,,,,,,0.609,1,,,,,,,,,,,,,,z,,,,,,,,,,,,,,,,69,0,335.0095,335.6252,z,1,0.609,,[],[],[],[],[],[],[],335.6252,337.6257,337.6257,337.6259,[],[],[],[],[],[],[],,337.626,337.6261,0.040613607,-0.287439846,0,0,0,,0,68,68,2,1,4,RL,asiral,cursive,asiral_c.png,,,,,,
,,,,30745,001,2025-10-21_20h31.41.988,HW_LDT_1,2024.2.4,MacIntel,59.88023952,,,,,,,,,,,,,,,,,,,,337.6273,337.8259,337.8259,338.3267,,,,,,,,,,,,,,3.6751,0,,,,,,,,,,,,,,m,,,,,,,,,,,,,,,,70,0,338.3272,342.0086,z,0,3.6751,,[],[],[],[],[],[],[],342.0086,344.008,344.008,344.0082,[],[],[],[],[],[],[],,344.0082,344.0083,0.040613607,-0.287439846,0,0,0,,0,69,69,142,1,4,word,REMOTE,cursive,remote_c.png,,,,,,
,,,,30745,001,2025-10-21_20h31.41.988,HW_LDT_1,2024.2.4,MacIntel,59.88023952,,,,,,,,,,,,,,,,,,,,344.0096,344.2085,344.2085,344.7094,,,,,,,,,,,,,,0.0332,1,,,,,,,,,,,,,,z,,,,,,,,,,,,,,,,71,0,344.7099,344.7439,z,1,0.0332,,[],[],[],[],[],[],[],344.7439,346.7439,346.7439,346.744,[],[],[],[],[],[],[],,346.744,346.7442,0.040613607,-0.287439846,0,0,0,,0,70,70,20,1,4,RL,gralekul,print,gralekul_p.png,,,,,,
,,,,30745,001,2025-10-21_20h31.41.988,HW_LDT_1,2024.2.4,MacIntel,59.88023952,,,,,,,,,,,,,,,,,,,,346.7451,346.9428,346.9429,347.4418,,,,,,,,,,,,,,0.0734,0,,,,,,,,,,,,,,z,,,,,,,,,,,,,,,,72,0,347.4423,347.5258,m,0,0.0734,,[],[],[],[],[],[],[],347.5259,349.5269,349.5269,349.5272,[],[],[],[],[],[],[],,349.5272,349.5273,0.040613607,-0.287439846,0,0,0,,0,71,71,50,1,4,RL,vecelan,cursive,vecelan_c.png,,,,,,
,,,,30745,001,2025-10-21_20h31.41.988,HW_LDT_1,2024.2.4,MacIntel,59.88023952,,,,,,,,,,,,,,,,,,,,349.5282,349.7294,349.7294,350.2274,,,,,,,,,,,,,,0.0313,0,,,,,,,,,,,,,,m,,,,,,,,,,,,,,,,73,0,350.2278,350.2597,z,0,0.0313,,[],[],[],[],[],[],[],350.2598,352.2589,352.259,352.2591,[],[],[],[],[],[],[],,352.2591,352.2593,0.040613607,-0.287439846,0,0,0,,0,72,72,89,1,4,word,CAPACITY,cursive,capacity_c.png,,,,,,
,,,,30745,001,2025-10-21_20h31.41.988,HW_LDT_1,2024.2.4,MacIntel,59.88023952,,,,,,,,,,,,,,,,,,,,352.2604,352.4602,352.4603,352.9595,,,,,,,,,,,,,,0.7088,1,,,,,,,,,,,,,,z,,,,,,,,,,,,,,,,74,0,352.9601,353.6757,z,1,0.7088,,[],[],[],[],[],[],[],353.6757,355.6768,355.6769,355.6771,[],[],[],[],[],[],[],,355.6771,355.6772,0.040613607,-0.287439846,0,0,0,,0,73,73,30,1,4,RL,nunewical,cursive,nunewical_c.png,,,,,,
,,,,30745,001,2025-10-21_20h31.41.988,HW_LDT_1,2024.2.4,MacIntel,59.88023952,,,,,,,,,,,,,,,,,,,,355.6782,355.8774,355.8774,356.3768,,,,,,,,,,,,,,0.0775,1,,,,,,,,,,,,,,z,,,,,,,,,,,,,,,,75,0,356.3772,356.4587,z,1,0.0775,,[],[],[],[],[],[],[],356.4588,358.4587,358.4587,358.4589,[],[],[],[],[],[],[],,358.459,358.459,0.040613607,-0.287439846,0,0,0,,0,74,74,54,1,4,TL,codemy,print,codemy_p.png,,,,,,
,,,,30745,001,2025-10-21_20h31.41.988,HW_LDT_1,2024.2.4,MacIntel,59.88023952,,,,,,,,,,,,,,,,,,,,358.46,358.6602,358.6603,359.1605,,,,,,,,,,,,,,1.5655,1,,,,,,,,,,,,,,z,,,,,,,,,,,,,,,,76,0,359.161,360.7272,z,1,1.5655,,[],[],[],[],[],[],[],360.7273,362.7274,362.7274,362.7275,[],[],[],[],[],[],[],,362.7276,362.7277,0.040613607,-0.287439846,0,0,0,,0,75,75,49,1,4,RL,vesofity,cursive,vesofity_c.png,,,,,,
,,,,30745,001,2025-10-21_20h31.41.988,HW_LDT_1,2024.2.4,MacIntel,59.88023952,,,,,,,,,,,,,,,,,,,,362.7287,362.9273,362.9273,363.4273,,,,,,,,,,,,,,0.0643,0,,,,,,,,,,,,,,m,,,,,,,,,,,,,,,,77,0,363.4277,363.4926,z,0,0.0643,,[],[],[],[],[],[],[],363.4927,365.4921,365.4922,365.4924,[],[],[],[],[],[],[],,365.4924,365.4927,0.040613607,-0.287439846,0,0,0,,0,76,76,118,1,4,word,MEDICINE,cursive,medicine_c.png,,,,,,
,,,,30745,001,2025-10-21_20h31.41.988,HW_LDT_1,2024.2.4,MacIntel,59.88023952,,,,,,,,,,,,,,,,,,,,365.4939,365.6912,365.6913,366.1917,,,,,,,,,,,,,,0.0307,0,,,,,,,,,,,,,,m,,,,,,,,,,,,,,,,78,0,366.1921,366.2235,z,0,0.0307,,[],[],[],[],[],[],[],366.2235,368.2254,368.2255,368.2256,[],[],[],[],[],[],[],,368.2256,368.2257,0.040613607,-0.287439846,0,0,0,,0,77,77,104,1,4,word,DOMINANT,cursive,dominant_c.png,,,,,,
,,,,30745,001,2025-10-21_20h31.41.988,HW_LDT_1,2024.2.4,MacIntel,59.88023952,,,,,,,,,,,,,,,,,,,,368.2268,368.4292,368.4292,368.9263,,,,,,,,,,,,,,0.3073,0,,,,,,,,,,,,,,m,,,,,,,,,,,,,,,,79,0,368.9267,369.2422,z,0,0.3073,,[0.04061360677083333],[-0.2874398464626736],[1],[0],[0],[0.048499999999989996],[null],369.2423,371.2428,371.2428,371.2431,[],[],[],[],[],[],[],,371.2432,371.2433,0.035407444,-0.245618761,0,0,0,,0,78,78,95,1,4,word,COMEDY,print,comedy_p.png,,,,,,
,,,,30745,001,2025-10-21_20h31.41.988,HW_LDT_1,2024.2.4,MacIntel,59.88023952,,,,,,,,,,,,,,,,,,,,371.2445,371.4418,371.4419,371.9415,,,,,,,,,,,,,,0.0663,1,,,,,,,,,,,,,,z,,,,,,,,,,,,,,,,80,0,371.9421,372.0093,z,1,0.0663,,[],[],[],[],[],[],[],372.0094,374.0104,374.0104,374.0106,[],[],[],[],[],[],[],,374.0106,382.3583,0.035407444,-0.245618761,0,0,0,space,0,79,79,48,1,4,RL,vabifity,print,vabifity_p.png,,,8.3156,,,
,,,,30745,001,2025-10-21_20h31.41.988,HW_LDT_1,2024.2.4,MacIntel,59.88023952,,,,,,,,,,,,,,,,,,,,382.3593,382.5602,382.5603,383.0592,,,,,,,,,,,,,,1.0824,1,,,,,,,,,,,,,,m,,,,,,,,,,,,,,,,81,1,383.0597,384.143,m,1,1.0824,,[],[],[],[],[],[],[],384.1431,386.1426,386.1426,386.4102,[],[],[],[],[],[],[],z,386.4103,386.4103,0.035407444,-0.245618761,0,0,0,,0,80,80,111,1,4,word,INDICATE,print,indicate_p.png,0.2669,,,,,
,,,,30745,001,2025-10-21_20h31.41.988,HW_LDT_1,2024.2.4,MacIntel,59.88023952,,,,,,,,,,,,,,,,,,,,386.4111,386.6082,386.6083,387.1076,,,,,,,,,,,,,,1.3516,1,,,,,,,,,,,,,,m,,,,,,,,,,,,,,,,82,1,387.108,388.4607,m,1,1.3516,,[],[],[],[],[],[],[],388.4608,390.4601,390.4601,395.5417,[],[],[],[],[],[],[],m,395.5418,395.5419,0.035407444,-0.245618761,0,0,0,,0,81,81,125,1,4,word,OPERATOR,print,operator_p.png,5.0739,,,,,
,,,,30745,001,2025-10-21_20h31.41.988,HW_LDT_1,2024.2.4,MacIntel,59.88023952,,,,,,,,,,,,,,,,,,,,395.5429,395.7429,395.743,396.2433,,,,,,,,,,,,,,0.9707,1,,,,,,,,,,,,,,z,,,,,,,,,,,,,,,,83,1,396.2437,397.2248,z,1,0.9707,,[],[],[],[],[],[],[],397.2249,399.225,399.225,399.944,[],[],[],[],[],[],[],z,399.9441,399.9442,0.035407444,-0.245618761,0,0,0,,0,82,82,35,1,4,RL,probice,cursive,probice_c.png,0.7184,,,,,
,,,,30745,001,2025-10-21_20h31.41.988,HW_LDT_1,2024.2.4,MacIntel,59.88023952,,,,,,,,,,,,,,,,,,,,399.9452,400.1433,400.1433,400.6456,,,,,,,,,,,,,,1.0955,0,,,,,,,,,,,,,,m,,,,,,,,,,,,,,,,84,1,400.6459,401.7421,z,0,1.0955,,[],[],[],[],[],[],[],401.7421,403.7431,403.7432,405.9904,[],[],[],[],[],[],[],m,405.9904,405.9905,0.035407444,-0.245618761,0,0,0,,0,83,83,143,1,4,word,REMOVAL,print,removal_p.png,2.2409,,,,,
,,,,30745,001,2025-10-21_20h31.41.988,HW_LDT_1,2024.2.4,MacIntel,59.88023952,,,,,,,,,,,,,,,,,,,,405.9911,406.1915,406.1916,406.6906,,,,,,,,,,,,,,1.7145,1,,,,,,,,,,,,,,m,,,,,,,,,,,,,,,,85,0,406.6912,408.4072,m,1,1.7145,,[],[],[],[],[],[],[],408.4073,410.4075,410.4075,410.4076,[],[],[],[],[],[],[],,410.4077,410.4078,0.035407444,-0.245618761,0,0,0,,0,84,84,97,1,4,word,COVERAGE,cursive,coverage_c.png,,,,,,
,,,,30745,001,2025-10-21_20h31.41.988,HW_LDT_1,2024.2.4,MacIntel,59.88023952,,,,,,,,,,,,,,,,,,,,410.4089,410.6082,410.6082,411.1074,,,,,,,,,,,,,,1.4335,1,,,,,,,,,,,,,,z,,,,,,,,,,,,,,,,86,0,411.1079,412.5423,z,1,1.4335,,[],[],[],[],[],[],[],412.5424,414.5419,414.5419,414.5421,[],[],[],[],[],[],[],,414.5421,414.5421,0.035407444,-0.245618761,0,0,0,,0,85,85,61,1,4,TL,lotace,cursive,lotace_c.png,,,,,,
,,,,30745,001,2025-10-21_20h31.41.988,HW_LDT_1,2024.2.4,MacIntel,59.88023952,,,,,,,,,,,,,,,,,,,,414.5431,414.743,414.743,415.2415,,,,,,,,,,,,,,2.2007,1,,,,,,,,,,,,,,m,,,,,,,,,,,,,,,,87,0,415.2419,417.4434,m,1,2.2007,,[],[],[],[],[],[],[],417.4434,419.4413,419.4413,419.4414,[],[],[],[],[],[],[],,419.4415,419.4416,0.035407444,-0.245618761,0,0,0,,0,86,86,121,1,4,word,MISTAKE,print,mistake_p.png,,,,,,
,,,,30745,001,2025-10-21_20h31.41.988,HW_LDT_1,2024.2.4,MacIntel,59.88023952,,,,,,,,,,,,,,,,,,,,419.4426,419.643,419.643,420.1428,,,,,,,,,,,,,,0.9766,1,,,,,,,,,,,,,,z,,,,,,,,,,,,,,,,88,1,420.1432,421.1246,z,1,0.9766,,[],[],[],[],[],[],[],421.1248,423.1246,423.1247,424.1423,[],[],[],[],[],[],[],m,424.1424,424.1426,0.035407444,-0.245618761,0,0,0,,0,87,87,18,1,4,RL,disluge,print,disluge_p.png,1.0171,,,,,
,,,,30745,001,2025-10-21_20h31.41.988,HW_LDT_1,2024.2.4,MacIntel,59.88023952,,,,,,,,,,,,,,,,,,,,424.1436,424.3426,424.3427,424.8418,,,,,,,,,,,,,,1.9,1,,,,,,,,,,,,,,z,,,,,,,,,,,,,,,,89,0,424.8423,426.7429,z,1,1.9,,[],[],[],[],[],[],[],426.7429,428.7429,428.7429,428.7431,[],[],[],[],[],[],[],,428.7432,428.7432,0.035407444,-0.245618761,0,0,0,,0,88,88,75,1,4,TL,sanile,print,sanile_p.png,,,,,,
,,,,30745,001,2025-10-21_20h31.41.988,HW_LDT_1,2024.2.4,MacIntel,59.88023952,,,,,,,,,,,,,,,,,,,,428.7443,428.9428,428.9428,429.4425,,,,,,,,,,,,,,1.7332,1,,,,,,,,,,,,,,z,,,,,,,,,,,,,,,,90,0,429.4429,431.1768,z,1,1.7332,,[],[],[],[],[],[],[],431.1769,433.1751,433.1751,433.1753,[],[],[],[],[],[],[],,433.1754,433.1754,0.035407444,-0.245618761,0,0,0,,0,89,89,71,1,4,TL,racidal,print,racidal_p.png,,,,,,
,,,,30745,001,2025-10-21_20h31.41.988,HW_LDT_1,2024.2.4,MacIntel,59.88023952,,,,,,,,,,,,,,,,,,,,433.1765,433.3746,433.3746,433.8764,,,,,,,,,,,,,,0.9976,1,,,,,,,,,,,,,,z,,,,,,,,,,,,,,,,91,0,433.8769,434.875,z,1,0.9976,,[],[],[],[],[],[],[],434.8751,436.876,436.876,436.8762,[],[],[],[],[],[],[],,436.8763,436.8763,0.035407444,-0.245618761,0,0,0,,0,90,90,41,1,4,RL,rebicent,cursive,rebicent_c.png,,,,,,
,,,,30745,001,2025-10-21_20h31.41.988,HW_LDT_1,2024.2.4,MacIntel,59.88023952,,,,,,,,,,,,,,,,,,,,436.8772,437.0754,437.0754,437.576,,,,,,,,,,,,,,0.8115,1,,,,,,,,,,,,,,z,,,,,,,,,,,,,,,,92,0,437.5763,438.3901,z,1,0.8115,,[],[],[],[],[],[],[],438.3901,440.391,440.3911,440.3913,[],[],[],[],[],[],[],,440.3913,440.3917,0.035407444,-0.245618761,0,0,0,,0,91,91,23,1,4,RL,linefal,cursive,linefal_c.png,,,,,,
,,,,30745,001,2025-10-21_20h31.41.988,HW_LDT_1,2024.2.4,MacIntel,59.88023952,,,,,,,,,,,,,,,,,,,,440.3927,440.6039,440.604,441.0928,,,,,,,,,,,,,,3.0951,1,,,,,,,,,,,,,,m,,,,,,,,,,,,,,,,93,0,441.0931,444.1899,m,1,3.0951,,[],[],[],[],[],[],[],444.1899,446.1931,446.1931,446.1933,[],[],[],[],[],[],[],,446.1934,446.1934,0.035407444,-0.245618761,0,0,0,,0,92,92,127,1,4,word,ORIGINAL,print,original_p.png,,,,,,
,,,,30745,001,2025-10-21_20h31.41.988,HW_LDT_1,2024.2.4,MacIntel,59.88023952,,,,,,,,,,,,,,,,,,,,446.1945,446.3914,446.3914,446.893,,,,,,,,,,,,,,2.0146,1,,,,,,,,,,,,,,m,,,,,,,,,,,,,,,,94,0,446.8934,448.9088,m,1,2.0146,,[],[],[],[],[],[],[],448.9088,450.9091,450.9091,450.9093,[],[],[],[],[],[],[],,450.9093,450.9094,0.035407444,-0.245618761,0,0,0,,0,93,93,135,1,4,word,QUALITY,print,quality_p.png,,,,,,
,,,,30745,001,2025-10-21_20h31.41.988,HW_LDT_1,2024.2.4,MacIntel,59.88023952,,,,,,,,,,,,,,,,,,,,450.9105,451.1086,451.1087,451.609,,,,,,,,,,,,,,0.774,1,,,,,,,,,,,,,,z,,,,,,,,,,,,,,,,95,0,451.6094,452.3904,z,1,0.774,,[],[],[],[],[],[],[],452.3905,454.39,454.39,454.3901,[],[],[],[],[],[],[],,454.3902,454.3904,0.035407444,-0.245618761,0,0,0,,0,94,94,19,1,4,RL,elacodate,cursive,elacodate_c.png,,,,,,
,,,,30745,001,2025-10-21_20h31.41.988,HW_LDT_1,2024.2.4,MacIntel,59.88023952,,,,,,,,,,,,,,,,,,,,454.3914,454.5948,454.5948,455.0924,,,,,,,,,,,,,,4.2414,1,,,,,,,,,,,,,,z,,,,,,,,,,,,,,,,96,0,455.0928,459.3396,z,1,4.2414,,[],[],[],[],[],[],[],459.3397,461.3405,461.3405,461.3406,[],[],[],[],[],[],[],,461.3407,461.3407,0.035407444,-0.245618761,0,0,0,,0,95,95,57,1,4,TL,etidor,print,etidor_p.png,,,,,,
,,,,30745,001,2025-10-21_20h31.41.988,HW_LDT_1,2024.2.4,MacIntel,59.88023952,,,,,,,,,,,,,,,,,,,,461.3419,461.5408,461.5408,462.0433,,,,,,,,,,,,,,1.3103,1,,,,,,,,,,,,,,z,,,,,,,,,,,,,,,,97,1,462.0439,463.3569,z,1,1.3103,,[],[],[],[],[],[],[],463.357,465.3575,465.3575,467.6072,[],[],[],[],[],[],[],m,467.6073,467.6074,0.035407444,-0.245618761,0,0,0,,0,96,96,39,1,4,RL,relone,cursive,relone_c.png,2.2461,,,,,
,,,,30745,001,2025-10-21_20h31.41.988,HW_LDT_1,2024.2.4,MacIntel,59.88023952,,,,,,,,,,,,,,,,,,,,467.6083,467.8087,467.8088,468.3072,,,,,,,,,,,,,,0.8012,0,,,,,,,,,,,,,,m,,,,,,,,,,,,,,,,98,0,468.3077,469.1094,z,0,0.8012,,[],[],[],[],[],[],[],469.1095,471.1072,471.1072,471.1074,[],[],[],[],[],[],[],,471.1074,471.1075,0.035407444,-0.245618761,0,0,0,,0,97,97,138,1,4,word,REFUSAL,cursive,refusal_c.png,,,,,,
,,,,30745,001,2025-10-21_20h31.41.988,HW_LDT_1,2024.2.4,MacIntel,59.88023952,,,,,,,,,,,,,,,,,,,,471.1084,471.3062,471.3063,471.8072,,,,,,,,,,,,,,2.3308,1,,,,,,,,,,,,,,z,,,,,,,,,,,,,,,,99,0,471.8076,474.1402,z,1,2.3308,,[],[],[],[],[],[],[],474.1402,476.1416,476.1417,476.1417,[],[],[],[],[],[],[],,476.1418,476.1418,0.035407444,-0.245618761,0,0,0,,0,98,98,78,1,4,TL,stragety,print,stragety_p.png,,,,,,
,,,,30745,001,2025-10-21_20h31.41.988,HW_LDT_1,2024.2.4,MacIntel,59.88023952,,,,,,,,,,,,,,,,,,,,476.1425,476.3417,476.3417,476.8393,,,,,,,,,,,,,,3.6004,0,,,,,,,,,,,,,,z,,,,,,,,,,,,,,,,100,0,476.8397,480.4409,m,0,3.6004,,[],[],[],[],[],[],[],480.441,482.4422,482.4423,482.4424,[],[],[],[],[],[],[],,482.4425,482.4426,0.035407444,-0.245618761,0,0,0,,0,99,99,68,1,4,TL,prosopal,print,prosopal_p.png,,,,,,
,,,,30745,001,2025-10-21_20h31.41.988,HW_LDT_1,2024.2.4,MacIntel,59.88023952,,,,,,,,,,,,,,,,,,,,482.4436,482.6404,482.6404,483.1423,,,,,,,,,,,,,,1.7292,1,,,,,,,,,,,,,,m,,,,,,,,,,,,,,,,101,0,483.1428,484.8728,m,1,1.7292,,[],[],[],[],[],[],[],484.8728,486.8737,486.8738,486.8739,[],[],[],[],[],[],[],,486.874,486.8741,0.035407444,-0.245618761,0,0,0,,0,100,100,131,1,4,word,POPULAR,print,popular_p.png,,,,,,
,,,,30745,001,2025-10-21_20h31.41.988,HW_LDT_1,2024.2.4,MacIntel,59.88023952,,,,,,,,,,,,,,,,,,,,486.8751,487.0561,487.0562,487.5755,,,,,,,,,,,,,,1.6102,0,,,,,,,,,,,,,,z,,,,,,,,,,,,,,,,102,0,487.5759,489.1903,m,0,1.6102,,[],[],[],[],[],[],[],489.1904,491.1903,491.1903,491.1905,[],[],[],[],[],[],[],,491.1906,491.1907,0.035407444,-0.245618761,0,0,0,,0,101,101,55,1,4,TL,corevage,cursive,corevage_c.png,,,,,,
,,,,30745,001,2025-10-21_20h31.41.988,HW_LDT_1,2024.2.4,MacIntel,59.88023952,,,,,,,,,,,,,,,,,,,,491.1919,491.3899,491.3899,491.8921,,,,,,,,,,,,,,1.6107,0,,,,,,,,,,,,,,m,,,,,,,,,,,,,,,,103,0,491.8924,493.507,z,0,1.6107,,[],[],[],[],[],[],[],493.507,495.5088,495.5089,495.5091,[],[],[],[],[],[],[],,495.5091,495.5092,0.035407444,-0.245618761,0,0,0,,0,102,102,157,1,4,word,VALIDITY,print,validity_p.png,,,,,,
,,,,30745,001,2025-10-21_20h31.41.988,HW_LDT_1,2024.2.4,MacIntel,59.88023952,,,,,,,,,,,,,,,,,,,,495.5101,495.7022,495.7022,496.209,,,,,,,,,,,,,,1.0966,1,,,,,,,,,,,,,,z,,,,,,,,,,,,,,,,104,0,496.2094,497.3068,z,1,1.0966,,[],[],[],[],[],[],[],497.3068,499.306,499.306,499.3062,[],[],[],[],[],[],[],,499.3062,499.3063,0.799982639,0.5,0,0,0,,0,103,103,72,1,4,TL,relugar,cursive,relugar_c.png,,,,,,
,,,,30745,001,2025-10-21_20h31.41.988,HW_LDT_1,2024.2.4,MacIntel,59.88023952,,,,,,,,,,,,,,,,,,,,499.3069,499.5056,499.5056,500.007,,,,,,,,,,,,,,1.7336,1,,,,,,,,,,,,,,z,,,,,,,,,,,,,,,,105,0,500.0074,501.742,z,1,1.7336,,[],[],[],[],[],[],[],501.7421,503.7418,503.7419,503.742,[],[],[],[],[],[],[],,503.742,503.7421,0.50337972,-0.279270969,0,0,0,,0,104,104,0,1,4,RL,abanemy,print,abanemy_p.png,,,,,,
,,,,30745,001,2025-10-21_20h31.41.988,HW_LDT_1,2024.2.4,MacIntel,59.88023952,,,,,,,,,,,,,,,,,,,,503.7431,503.936,503.936,504.4365,,,,,,,,,,,,,,1.8877,1,,,,,,,,,,,,,,m,,,,,,,,,,,,,,,,106,0,504.4368,506.3254,m,1,1.8877,,[],[],[],[],[],[],[],506.3256,508.3234,508.3235,508.3236,[],[],[],[],[],[],[],,508.3237,508.3238,0.50337972,-0.279270969,0,0,0,,0,105,105,136,1,4,word,RADICAL,print,radical_p.png,,,,,,
,,,,30745,001,2025-10-21_20h31.41.988,HW_LDT_1,2024.2.4,MacIntel,59.88023952,,,,,,,,,,,,,,,,,,,,508.3249,508.5067,508.5067,509.0234,,,,,,,,,,,,,,0.7006,1,,,,,,,,,,,,,,z,,,,,,,,,,,,,,,,107,0,509.0238,509.7251,z,1,0.7006,,[],[],[],[],[],[],[],509.7251,511.7233,511.7234,511.7235,[],[],[],[],[],[],[],,511.7236,511.7237,0.50337972,-0.279270969,0,0,0,,0,106,106,8,1,4,RL,casagity,cursive,casagity_c.png,,,,,,
,,,,30745,001,2025-10-21_20h31.41.988,HW_LDT_1,2024.2.4,MacIntel,59.88023952,,,,,,,,,,,,,,,,,,,,511.7246,511.9273,511.9273,512.4252,,,,,,,,,,,,,,1.5451,0,,,,,,,,,,,,,,m,,,,,,,,,,,,,,,,108,0,512.4257,513.9727,z,0,1.5451,,[],[],[],[],[],[],[],513.9728,515.9723,515.9724,515.9726,[],[],[],[],[],[],[],,515.9727,515.9727,0.50337972,-0.279270969,0,0,0,,0,107,107,133,1,4,word,PROVIDE,cursive,provide_c.png,,,,,,
,,,,30745,001,2025-10-21_20h31.41.988,HW_LDT_1,2024.2.4,MacIntel,59.88023952,,,,,,,,,,,,,,,,,,,,515.9739,516.1566,516.1567,516.6743,,,,,,,,,,,,,,0.8096,1,,,,,,,,,,,,,,z,,,,,,,,,,,,,,,,109,0,516.6747,517.4901,z,1,0.8096,,[],[],[],[],[],[],[],517.4902,519.4898,519.4899,519.49,[],[],[],[],[],[],[],,519.4901,519.4903,0.50337972,-0.279270969,0,0,0,,0,108,108,52,1,4,TL,cagetory,cursive,cagetory_c.png,,,,,,
,,,,30745,001,2025-10-21_20h31.41.988,HW_LDT_1,2024.2.4,MacIntel,59.88023952,,,,,,,,,,,,,,,,,,,,519.4913,519.6917,519.6917,520.1899,,,,,,,,,,,,,,0.4498,1,,,,,,,,,,,,,,m,,,,,,,,,,,,,,,,110,0,520.1905,520.641,m,1,0.4498,,[],[],[],[],[],[],[],520.6411,522.6441,522.6441,522.6442,[],[],[],[],[],[],[],,522.6443,522.6444,0.50337972,-0.279270969,0,0,0,,0,109,109,159,1,4,word,VETERAN,cursive,veteran_c.png,,,,,,
,,,,30745,001,2025-10-21_20h31.41.988,HW_LDT_1,2024.2.4,MacIntel,59.88023952,,,,,,,,,,,,,,,,,,,,522.6454,522.84,522.8401,523.3414,,,,,,,,,,,,,,0.7658,0,,,,,,,,,,,,,,m,,,,,,,,,,,,,,,,111,0,523.3419,524.1082,z,0,0.7658,,[],[],[],[],[],[],[],524.1083,526.1075,526.1075,526.1077,[],[],[],[],[],[],[],,526.1077,526.1078,0.50337972,-0.279270969,0,0,0,,0,110,110,85,1,4,word,BENEFIT,cursive,benefit_c.png,,,,,,
,,,,30745,001,2025-10-21_20h31.41.988,HW_LDT_1,2024.2.4,MacIntel,59.88023952,,,,,,,,,,,,,,,,,,,,526.1089,526.3081,526.3081,526.8075,,,,,,,,,,,,,,1.133,1,,,,,,,,,,,,,,m,,,,,,,,,,,,,,,,112,0,526.808,527.9418,m,1,1.133,,[],[],[],[],[],[],[],527.9418,529.9413,529.9413,529.9416,[],[],[],[],[],[],[],,529.9416,529.9417,0.50337972,-0.279270969,0,0,0,,0,111,111,145,1,4,word,RESUME,print,resume_p.png,,,,,,
,,,,30745,001,2025-10-21_20h31.41.988,HW_LDT_1,2024.2.4,MacIntel,59.88023952,,,,,,,,,,,,,,,,,,,,529.9427,530.1409,530.141,530.6398,,,,,,,,,,,,,,1.2162,0,,,,,,,,,,,,,,m,,,,,,,,,,,,,,,,113,0,530.6403,531.8572,z,0,1.2162,,[],[],[],[],[],[],[],531.8572,533.8581,533.8581,533.8583,[],[],[],[],[],[],[],,533.8583,533.8583,0.50337972,-0.279270969,0,0,0,,0,112,112,84,1,4,word,BELOVED,print,beloved_p.png,,,,,,
,,,,30745,001,2025-10-21_20h31.41.988,HW_LDT_1,2024.2.4,MacIntel,59.88023952,,,,,,,,,,,,,,,,,,,,533.8594,534.0571,534.0571,534.5584,,,,,,,,,,,,,,0.464,1,,,,,,,,,,,,,,m,,,,,,,,,,,,,,,,114,1,534.5587,535.0233,m,1,0.464,,[],[],[],[],[],[],[],535.0234,537.0231,537.0231,537.0719,[],[],[],[],[],[],[],z,537.072,537.0721,0.50337972,-0.279270969,0,0,0,,0,113,113,110,1,4,word,HERITAGE,print,heritage_p.png,0.0481,,,,,
,,,,30745,001,2025-10-21_20h31.41.988,HW_LDT_1,2024.2.4,MacIntel,59.88023952,,,,,,,,,,,,,,,,,,,,537.0732,537.2721,537.2721,537.7731,,,,,,,,,,,,,,0.0161,0,,,,,,,,,,,,,,m,,,,,,,,,,,,,,,,115,0,537.7735,537.7903,z,0,0.0161,,[],[],[],[],[],[],[],537.7903,539.7897,539.7897,539.79,[],[],[],[],[],[],[],,539.79,539.7903,0.50337972,-0.279270969,0,0,0,,0,114,114,156,1,4,word,TRIBUTE,print,tribute_p.png,,,,,,
,,,,30745,001,2025-10-21_20h31.41.988,HW_LDT_1,2024.2.4,MacIntel,59.88023952,,,,,,,,,,,,,,,,,,,,539.7913,539.9916,539.9916,540.4937,,,,,,,,,,,,,,0.0953,1,,,,,,,,,,,,,,z,,,,,,,,,,,,,,,,116,0,540.4941,540.5903,z,1,0.0953,,[],[],[],[],[],[],[],540.5903,542.5908,542.5909,542.591,[],[],[],[],[],[],[],,542.5911,542.5912,0.50337972,-0.279270969,0,0,0,,0,115,115,17,1,4,RL,denficy,cursive,denficy_c.png,,,,,,
,,,,30745,001,2025-10-21_20h31.41.988,HW_LDT_1,2024.2.4,MacIntel,59.88023952,,,,,,,,,,,,,,,,,,,,542.5923,542.7904,542.7904,543.2916,,,,,,,,,,,,,,0.04,1,,,,,,,,,,,,,,m,,,,,,,,,,,,,,,,117,0,543.2921,543.3385,m,1,0.04,,[],[],[],[],[],[],[],543.3386,545.3401,545.3401,545.3403,[],[],[],[],[],[],[],,545.3403,545.3405,0.50337972,-0.279270969,0,0,0,,0,116,116,137,1,4,word,RAPIDLY,cursive,rapidly_c.png,,,,,,
,,,,30745,001,2025-10-21_20h31.41.988,HW_LDT_1,2024.2.4,MacIntel,59.88023952,,,,,,,,,,,,,,,,,,,,545.3412,545.5409,545.5409,546.0403,,,,,,,,,,,,,,0.0095,0,,,,,,,,,,,,,,m,,,,,,,,,,,,,,,,118,1,546.0407,546.0559,z,0,0.0095,,[],[],[],[],[],[],[],546.0559,548.0562,548.0563,548.1896,[],[],[],[],[],[],[],m,548.1897,548.19,0.50337972,-0.279270969,0,0,0,,0,117,117,96,1,4,word,CONSIDER,cursive,consider_c.png,0.1246,,,,,
,,,,30745,001,2025-10-21_20h31.41.988,HW_LDT_1,2024.2.4,MacIntel,59.88023952,,,,,,,,,,,,,,,,,,,,548.1912,548.3894,548.3895,548.8887,,,,,,,,,,,,,,0.0169,0,,,,,,,,,,,,,,m,,,,,,,,,,,,,,,,119,0,548.889,548.9066,z,0,0.0169,,[],[],[],[],[],[],[],548.9067,550.9054,550.9054,550.9056,[],[],[],[],[],[],[],,550.9056,550.9056,0.50337972,-0.279270969,0,0,0,,0,118,118,103,1,4,word,DISPUTE,print,dispute_p.png,,,,,,
,,,,30745,001,2025-10-21_20h31.41.988,HW_LDT_1,2024.2.4,MacIntel,59.88023952,,,,,,,,,,,,,,,,,,,,550.9063,551.1052,551.1052,551.6057,,,,,,,,,,,,,,0.0649,0,,,,,,,,,,,,,,m,,,,,,,,,,,,,,,,120,0,551.6061,551.6723,z,0,0.0649,,[],[],[],[],[],[],[],551.6724,553.6728,553.6729,553.673,[],[],[],[],[],[],[],,553.6731,553.6732,0.50337972,-0.279270969,0,0,0,,0,119,119,83,1,4,word,ANIMAL,cursive,animal_c.png,,,,,,
,,,,30745,001,2025-10-21_20h31.41.988,HW_LDT_1,2024.2.4,MacIntel,59.88023952,,,,,,,,,,,,,,,,,,,,553.6742,553.8731,553.8731,554.3733,,,,,,,,,,,,,,0.0412,0,,,,,,,,,,,,,,z,,,,,,,,,,,,,,,,121,1,554.3737,554.4228,m,0,0.0412,,[],[],[],[],[],[],[],554.4229,556.4105,556.4105,556.4894,[],[],[],[],[],[],[],m,556.4894,556.4895,0.50337972,-0.279270969,0,0,0,,0,120,120,13,1,4,RL,crisival,cursive,crisival_c.png,0.0714,,,,,
,,,,30745,001,2025-10-21_20h31.41.988,HW_LDT_1,2024.2.4,MacIntel,59.88023952,,,,,,,,,,,,,,,,,,,,556.4906,556.6886,556.6887,557.1894,,,,,,,,,,,,,,0.0807,1,,,,,,,,,,,,,,z,,,,,,,,,,,,,,,,122,0,557.19,557.2715,z,1,0.0807,,[],[],[],[],[],[],[],557.2715,559.2717,559.2717,559.272,[],[],[],[],[],[],[],,559.272,559.2721,0.50337972,-0.279270969,0,0,0,,0,121,121,77,1,4,TL,spemicen,cursive,spemicen_c.png,,,,,,
,,,,30745,001,2025-10-21_20h31.41.988,HW_LDT_1,2024.2.4,MacIntel,59.88023952,,,,,,,,,,,,,,,,,,,,559.2731,559.4748,559.4749,559.9737,,,,,,,,,,,,,,0.0651,1,,,,,,,,,,,,,,z,,,,,,,,,,,,,,,,123,0,559.974,560.04,z,1,0.0651,,[],[],[],[],[],[],[],560.04,562.0413,562.0413,562.0415,[],[],[],[],[],[],[],,562.0417,562.0417,0.50337972,-0.279270969,0,0,0,,0,122,122,59,1,4,TL,fornute,cursive,fornute_c.png,,,,,,
,,,,30745,001,2025-10-21_20h31.41.988,HW_LDT_1,2024.2.4,MacIntel,59.88023952,,,,,,,,,,,,,,,,,,,,562.0427,562.2414,562.2414,562.7393,,,,,,,,,,,,,,0.0333,0,,,,,,,,,,,,,,m,,,,,,,,,,,,,,,,124,0,562.7397,562.7737,z,0,0.0333,,[],[],[],[],[],[],[],562.7737,564.7746,564.7746,564.7748,[],[],[],[],[],[],[],,564.7749,564.7749,0.50337972,-0.279270969,0,0,0,,0,123,123,86,1,4,word,BESIDE,print,beside_p.png,,,,,,
,,,,30745,001,2025-10-21_20h31.41.988,HW_LDT_1,2024.2.4,MacIntel,59.88023952,,,,,,,,,,,,,,,,,,,,564.7759,564.9729,564.973,565.4746,,,,,,,,,,,,,,0.1455,0,,,,,,,,,,,,,,m,,,,,,,,,,,,,,,,125,0,565.475,565.6217,z,0,0.1455,,[],[],[],[],[],[],[],565.6217,567.6218,567.6218,567.622,[],[],[],[],[],[],[],,567.622,567.6221,0.50337972,-0.279270969,0,0,0,,0,124,124,109,1,4,word,GRATEFUL,print,grateful_p.png,,,,,,
,,,,30745,001,2025-10-21_20h31.41.988,HW_LDT_1,2024.2.4,MacIntel,59.88023952,,,,,,,,,,,,,,,,,,,,567.6233,567.8241,567.8242,568.3244,,,,,,,,,,,,,,0.0489,1,,,,,,,,,,,,,,z,,,,,,,,,,,,,,,,126,1,568.3248,568.3744,z,1,0.0489,,[],[],[],[],[],[],[],568.3745,570.3725,570.3726,570.4243,[],[],[],[],[],[],[],z,570.4243,570.4244,0.50337972,-0.279270969,0,0,0,,0,125,125,34,1,4,RL,posity,cursive,posity_c.png,0.051,,,,,
,,,,30745,001,2025-10-21_20h31.41.988,HW_LDT_1,2024.2.4,MacIntel,59.88023952,,,,,,,,,,,,,,,,,,,,570.425,570.6245,570.6245,571.1246,,,,,,,,,,,,,,0.1344,0,,,,,,,,,,,,,,z,,,,,,,,,,,,,,,,127,0,571.125,571.2603,m,0,0.1344,,[],[],[],[],[],[],[],571.2603,573.2563,573.2564,573.2566,[],[],[],[],[],[],[],,573.2566,573.2567,0.50337972,-0.279270969,0,0,0,,0,126,126,74,1,4,TL,rerite,print,rerite_p.png,,,,,,
,,,,30745,001,2025-10-21_20h31.41.988,HW_LDT_1,2024.2.4,MacIntel,59.88023952,,,,,,,,,,,,,,,,,,,,573.2578,573.4571,573.4571,573.9581,,,,,,,,,,,,,,0.1071,1,,,,,,,,,,,,,,m,,,,,,,,,,,,,,,,128,0,573.9585,574.0727,m,1,0.1071,,[],[],[],[],[],[],[],574.0727,576.0716,576.0716,576.0719,[],[],[],[],[],[],[],,576.0719,576.072,0.50337972,-0.279270969,0,0,0,,0,127,127,149,1,4,word,SENATOR,print,senator_p.png,,,,,,
,,,,30745,001,2025-10-21_20h31.41.988,HW_LDT_1,2024.2.4,MacIntel,59.88023952,,,,,,,,,,,,,,,,,,,,576.073,576.2733,576.2733,576.7741,,,,,,,,,,,,,,0.1648,0,,,,,,,,,,,,,,z,,,,,,,,,,,,,,,,129,0,576.7744,576.9399,m,0,0.1648,,[],[],[],[],[],[],[],576.94,578.9389,578.9389,578.9391,[],[],[],[],[],[],[],,578.9391,578.9393,0.50337972,-0.279270969,0,0,0,,0,128,128,62,1,4,TL,locigal,print,locigal_p.png,,,,,,
,,,,30745,001,2025-10-21_20h31.41.988,HW_LDT_1,2024.2.4,MacIntel,59.88023952,,,,,,,,,,,,,,,,,,,,578.9404,579.1406,579.1406,579.641,,,,,,,,,,,,,,0.0637,1,,,,,,,,,,,,,,z,,,,,,,,,,,,,,,,130,1,579.6414,579.7056,z,1,0.0637,,[],[],[],[],[],[],[],579.7058,581.7074,581.7075,581.7224,[],[],[],[],[],[],[],z,581.7225,581.7227,0.50337972,-0.279270969,0,0,0,,0,129,129,24,1,4,RL,marmipal,cursive,marmipal_c.png,0.0091,,,,,
,,,,30745,001,2025-10-21_20h31.41.988,HW_LDT_1,2024.2.4,MacIntel,59.88023952,,,,,,,,,,,,,,,,,,,,581.7241,581.9241,581.9241,582.4236,,,,,,,,,,,,,,0.1418,0,,,,,,,,,,,,,,z,,,,,,,,,,,,,,,,131,0,582.4239,582.5722,m,0,0.1418,,[],[],[],[],[],[],[],582.5722,584.5722,584.5722,584.5723,[],[],[],[],[],[],[],,584.5724,584.5724,0.50337972,-0.279270969,0,0,0,,0,130,130,12,1,4,RL,conbicer,cursive,conbicer_c.png,,,,,,
,,,,30745,001,2025-10-21_20h31.41.988,HW_LDT_1,2024.2.4,MacIntel,59.88023952,,,,,,,,,,,,,,,,,,,,584.5731,584.7744,584.7744,585.2745,,,,,,,,,,,,,,0.0097,0,,,,,,,,,,,,,,z,,,,,,,,,,,,,,,,132,0,585.275,585.289,m,0,0.0097,,[],[],[],[],[],[],[],585.289,587.2885,587.2886,587.2886,[],[],[],[],[],[],[],,587.2886,587.2886,0.50337972,-0.279270969,0,0,0,,0,131,131,60,1,4,TL,hetirage,print,hetirage_p.png,,,,,,
,,,,30745,001,2025-10-21_20h31.41.988,HW_LDT_1,2024.2.4,MacIntel,59.88023952,,,,,,,,,,,,,,,,,,,,587.2891,587.4885,587.4885,587.9886,,,,,,,,,,,,,,0.1134,1,,,,,,,,,,,,,,m,,,,,,,,,,,,,,,,133,0,587.9888,588.1048,m,1,0.1134,,[],[],[],[],[],[],[],588.1048,590.1057,590.1058,590.1059,[],[],[],[],[],[],[],,590.106,590.106,0.50337972,-0.279270969,0,0,0,,0,132,132,119,1,4,word,MEMORY,print,memory_p.png,,,,,,
,,,,30745,001,2025-10-21_20h31.41.988,HW_LDT_1,2024.2.4,MacIntel,59.88023952,,,,,,,,,,,,,,,,,,,,590.107,590.289,590.289,590.8047,,,,,,,,,,,,,,0.064,1,,,,,,,,,,,,,,m,,,,,,,,,,,,,,,,134,0,590.8051,590.8716,m,1,0.064,,[],[],[],[],[],[],[],590.8716,592.8742,592.8742,592.8743,[],[],[],[],[],[],[],,592.8744,592.8745,0.50337972,-0.279270969,0,0,0,,0,133,133,94,1,4,word,CLINICAL,print,clinical_p.png,,,,,,
,,,,30745,001,2025-10-21_20h31.41.988,HW_LDT_1,2024.2.4,MacIntel,59.88023952,,,,,,,,,,,,,,,,,,,,592.8756,593.0724,593.0724,593.5738,,,,,,,,,,,,,,0.1002,0,,,,,,,,,,,,,,m,,,,,,,,,,,,,,,,135,0,593.5741,593.6751,z,0,0.1002,,[],[],[],[],[],[],[],593.6751,595.6741,595.6742,595.6743,[],[],[],[],[],[],[],,595.6744,595.6744,0.50337972,-0.279270969,0,0,0,,0,134,134,139,1,4,word,REGULAR,cursive,regular_c.png,,,,,,
,,,,30745,001,2025-10-21_20h31.41.988,HW_LDT_1,2024.2.4,MacIntel,59.88023952,,,,,,,,,,,,,,,,,,,,595.6754,595.8723,595.8723,596.373,,,,,,,,,,,,,,0.412,1,,,,,,,,,,,,,,z,,,,,,,,,,,,,,,,136,0,596.3735,596.7886,z,1,0.412,,[],[],[],[],[],[],[],596.7887,598.7889,598.789,598.7892,[],[],[],[],[],[],[],,598.7892,598.7893,0.50337972,-0.279270969,0,0,0,,0,135,135,66,1,4,TL,opmital,print,opmital_p.png,,,,,,
,,,,30745,001,2025-10-21_20h31.41.988,HW_LDT_1,2024.2.4,MacIntel,59.88023952,,,,,,,,,,,,,,,,,,,,598.7905,599.0039,599.004,599.4836,,,,,,,,,,,,,,0.0333,1,,,,,,,,,,,,,,z,,,,,,,,,,,,,,,,137,1,599.484,599.518,z,1,0.0333,,[],[],[],[],[],[],[],599.518,601.5071,601.5071,601.5554,[],[],[],[],[],[],[],m,601.5555,601.5556,0.50337972,-0.279270969,0,0,0,,0,136,136,38,1,4,RL,refakive,print,refakive_p.png,0.0418,,,,,
,,,,30745,001,2025-10-21_20h31.41.988,HW_LDT_1,2024.2.4,MacIntel,59.88023952,,,,,,,,,,,,,,,,,,,,601.5568,601.7567,601.7568,602.256,,,,,,,,,,,,,,0.1754,1,,,,,,,,,,,,,,m,,,,,,,,,,,,,,,,138,0,602.2565,602.4389,m,1,0.1754,,[],[],[],[],[],[],[],602.4389,604.4378,604.4378,604.438,[],[],[],[],[],[],[],,604.438,604.438,0.50337972,-0.279270969,0,0,0,,0,137,137,87,1,4,word,CAFETERIA,cursive,cafeteria_c.png,,,,,,
,,,,30745,001,2025-10-21_20h31.41.988,HW_LDT_1,2024.2.4,MacIntel,59.88023952,,,,,,,,,,,,,,,,,,,,604.4391,604.6376,604.6376,605.1386,,,,,,,,,,,,,,0.0311,0,,,,,,,,,,,,,,z,,,,,,,,,,,,,,,,139,0,605.139,605.1711,m,0,0.0311,,[],[],[],[],[],[],[],605.1711,607.1718,607.1718,607.172,[],[],[],[],[],[],[],,607.172,607.172,0.50337972,-0.279270969,0,0,0,,0,138,138,22,1,4,RL,linedal,cursive,linedal_c.png,,,,,,
,,,,30745,001,2025-10-21_20h31.41.988,HW_LDT_1,2024.2.4,MacIntel,59.88023952,,,,,,,,,,,,,,,,,,,,607.1726,607.3708,607.3709,607.8716,,,,,,,,,,,,,,0.0643,1,,,,,,,,,,,,,,m,,,,,,,,,,,,,,,,140,0,607.8722,607.9375,m,1,0.0643,,[],[],[],[],[],[],[],607.9375,609.9374,609.9374,609.9374,[],[],[],[],[],[],[],,609.9374,609.9375,0.50337972,-0.279270969,0,0,0,,0,139,139,90,1,4,word,CAPITAL,print,capital_p.png,,,,,,
,,,,30745,001,2025-10-21_20h31.41.988,HW_LDT_1,2024.2.4,MacIntel,59.88023952,,,,,,,,,,,,,,,,,,,,609.9381,610.1383,610.1384,610.6384,,,,,,,,,,,,,,0.1479,1,,,,,,,,,,,,,,m,,,,,,,,,,,,,,,,141,0,610.6386,610.7883,m,1,0.1479,,[],[],[],[],[],[],[],610.7884,612.7893,612.7893,612.7894,[],[],[],[],[],[],[],,612.7894,612.7895,0.50337972,-0.279270969,0,0,0,,0,140,140,124,1,4,word,NUMERICAL,cursive,numerical_c.png,,,,,,
,,,,30745,001,2025-10-21_20h31.41.988,HW_LDT_1,2024.2.4,MacIntel,59.88023952,,,,,,,,,,,,,,,,,,,,612.7902,612.9887,612.9888,613.4886,,,,,,,,,,,,,,0.0434,0,,,,,,,,,,,,,,z,,,,,,,,,,,,,,,,142,0,613.4891,613.5384,m,0,0.0434,,[],[],[],[],[],[],[],613.5385,615.5386,615.5386,615.5387,[],[],[],[],[],[],[],,615.5388,615.539,0.50337972,-0.279270969,0,0,0,,0,141,141,44,1,4,RL,senvilent,print,senvilent_p.png,,,,,,
,,,,30745,001,2025-10-21_20h31.41.988,HW_LDT_1,2024.2.4,MacIntel,59.88023952,,,,,,,,,,,,,,,,,,,,615.5399,615.7377,615.7377,616.2387,,,,,,,,,,,,,,0.0391,0,,,,,,,,,,,,,,z,,,,,,,,,,,,,,,,143,0,616.2392,616.2792,m,0,0.0391,,[],[],[],[],[],[],[],616.2792,618.2719,618.272,618.2722,[],[],[],[],[],[],[],,618.2722,618.2723,0.50337972,-0.279270969,0,0,0,,0,142,142,33,1,4,RL,pamest,cursive,pamest_c.png,,,,,,
,,,,30745,001,2025-10-21_20h31.41.988,HW_LDT_1,2024.2.4,MacIntel,59.88023952,,,,,,,,,,,,,,,,,,,,618.2734,618.4552,618.4552,618.9737,,,,,,,,,,,,,,0.0099,0,,,,,,,,,,,,,,z,,,,,,,,,,,,,,,,144,0,618.9741,618.9876,m,0,0.0099,,[],[],[],[],[],[],[],618.9876,620.9886,620.9886,620.9887,[],[],[],[],[],[],[],,620.9887,620.9888,0.50337972,-0.279270969,0,0,0,,0,143,143,15,1,4,RL,debave,cursive,debave_c.png,,,,,,
,,,,30745,001,2025-10-21_20h31.41.988,HW_LDT_1,2024.2.4,MacIntel,59.88023952,,,,,,,,,,,,,,,,,,,,620.9898,621.1883,621.1883,621.6908,,,,,,,,,,,,,,0.1056,1,,,,,,,,,,,,,,m,,,,,,,,,,,,,,,,145,0,621.6913,621.8053,m,1,0.1056,,[],[],[],[],[],[],[],621.8054,623.8057,623.8057,623.8058,[],[],[],[],[],[],[],,623.8059,623.806,0.50337972,-0.279270969,0,0,0,,0,144,144,92,1,4,word,CATEGORY,cursive,category_c.png,,,,,,
,,,,30745,001,2025-10-21_20h31.41.988,HW_LDT_1,2024.2.4,MacIntel,59.88023952,,,,,,,,,,,,,,,,,,,,623.807,624.0064,624.0064,624.5058,,,,,,,,,,,,,,0.0463,0,,,,,,,,,,,,,,m,,,,,,,,,,,,,,,,146,0,624.5063,624.5544,z,0,0.0463,,[],[],[],[],[],[],[],624.5544,626.5551,626.5551,626.5554,[],[],[],[],[],[],[],,626.5554,626.5555,0.50337972,-0.279270969,0,0,0,,0,145,145,146,1,4,word,RETIRE,print,retire_p.png,,,,,,
,,,,30745,001,2025-10-21_20h31.41.988,HW_LDT_1,2024.2.4,MacIntel,59.88023952,,,,,,,,,,,,,,,,,,,,626.5567,626.7553,626.7553,627.2551,,,,,,,,,,,,,,0.0802,1,,,,,,,,,,,,,,z,,,,,,,,,,,,,,,,147,0,627.2555,627.3374,z,1,0.0802,,[],[],[],[],[],[],[],627.3375,629.3404,629.3404,629.3405,[],[],[],[],[],[],[],,629.3406,629.3407,0.50337972,-0.279270969,0,0,0,,0,146,146,40,1,4,RL,reconal,print,reconal_p.png,,,,,,
,,,,30745,001,2025-10-21_20h31.41.988,HW_LDT_1,2024.2.4,MacIntel,59.88023952,,,,,,,,,,,,,,,,,,,,629.3416,629.5396,629.5397,630.0402,,,,,,,,,,,,,,0.0324,0,,,,,,,,,,,,,,m,,,,,,,,,,,,,,,,148,0,630.0405,630.0736,z,0,0.0324,,[],[],[],[],[],[],[],630.0737,632.0729,632.073,632.0731,[],[],[],[],[],[],[],,632.0732,632.0732,0.50337972,-0.279270969,0,0,0,,0,147,147,148,1,4,word,SALINE,print,saline_p.png,,,,,,
,,,,30745,001,2025-10-21_20h31.41.988,HW_LDT_1,2024.2.4,MacIntel,59.88023952,,,,,,,,,,,,,,,,,,,,632.0741,632.2742,632.2742,632.7717,,,,,,,,,,,,,,0.0666,1,,,,,,,,,,,,,,z,,,,,,,,,,,,,,,,149,0,632.7721,632.8395,z,1,0.0666,,[],[],[],[],[],[],[],632.8395,634.8384,634.8385,634.8386,[],[],[],[],[],[],[],,634.8387,634.8387,0.50337972,-0.279270969,0,0,0,,0,148,148,32,1,4,RL,patisic,cursive,patisic_c.png,,,,,,
,,,,30745,001,2025-10-21_20h31.41.988,HW_LDT_1,2024.2.4,MacIntel,59.88023952,,,,,,,,,,,,,,,,,,,,634.8398,635.0387,635.0388,635.539,,,,,,,,,,,,,,0.1341,0,,,,,,,,,,,,,,m,,,,,,,,,,,,,,,,150,1,635.5395,635.6745,z,0,0.1341,,[],[],[],[],[],[],[],635.6746,637.6727,637.6727,637.7405,[],[],[],[],[],[],[],m,637.7406,637.7406,0.50337972,-0.279270969,0,0,0,,0,149,149,82,1,4,word,AMATEUR,cursive,amateur_c.png,0.0672,,,,,
,,,,30745,001,2025-10-21_20h31.41.988,HW_LDT_1,2024.2.4,MacIntel,59.88023952,,,,,,,,,,,,,,,,,,,,637.7417,637.9383,637.9384,638.4383,,,,,,,,,,,,,,0.0672,0,,,,,,,,,,,,,,z,,,,,,,,,,,,,,,,151,0,638.4388,638.5066,m,0,0.0672,,[],[],[],[],[],[],[],638.5066,640.504,640.5041,640.5045,[],[],[],[],[],[],[],,640.5045,640.5047,0.50337972,-0.279270969,0,0,0,,0,150,150,42,1,4,RL,revune,print,revune_p.png,,,,,,
,,,,30745,001,2025-10-21_20h31.41.988,HW_LDT_1,2024.2.4,MacIntel,59.88023952,,,,,,,,,,,,,,,,,,,,640.5057,640.7049,640.705,641.2047,,,,,,,,,,,,,,0.0313,1,,,,,,,,,,,,,,z,,,,,,,,,,,,,,,,152,0,641.2051,641.2371,z,1,0.0313,,[],[],[],[],[],[],[],641.2372,643.2379,643.2379,643.2381,[],[],[],[],[],[],[],,643.2382,643.2382,0.50337972,-0.279270969,0,0,0,,0,151,151,7,1,4,RL,casena,print,casena_p.png,,,,,,
,,,,30745,001,2025-10-21_20h31.41.988,HW_LDT_1,2024.2.4,MacIntel,59.88023952,,,,,,,,,,,,,,,,,,,,643.2393,643.4375,643.4376,643.9389,,,,,,,,,,,,,,0.1126,0,,,,,,,,,,,,,,z,,,,,,,,,,,,,,,,153,1,643.9393,644.0539,m,0,0.1126,,[],[],[],[],[],[],[],644.054,646.0549,646.0549,646.1054,[],[],[],[],[],[],[],z,646.1055,646.1056,0.50337972,-0.279270969,0,0,0,,0,152,152,3,1,4,RL,bewoted,print,bewoted_p.png,0.0499,,,,,
,,,,30745,001,2025-10-21_20h31.41.988,HW_LDT_1,2024.2.4,MacIntel,59.88023952,,,,,,,,,,,,,,,,,,,,646.1063,646.3064,646.3065,646.8059,,,,,,,,,,,,,,0.1001,1,,,,,,,,,,,,,,m,,,,,,,,,,,,,,,,154,0,646.8064,646.9071,m,1,0.1001,,[],[],[],[],[],[],[],646.9072,648.9069,648.9069,648.907,[],[],[],[],[],[],[],,648.9071,648.9072,0.50337972,-0.279270969,0,0,0,,0,153,153,155,1,4,word,STRATEGY,print,strategy_p.png,,,,,,
,,,,30745,001,2025-10-21_20h31.41.988,HW_LDT_1,2024.2.4,MacIntel,59.88023952,,,,,,,,,,,,,,,,,,,,648.9082,649.1068,649.1068,649.6057,,,,,,,,,,,,,,0.0096,0,,,,,,,,,,,,,,z,,,,,,,,,,,,,,,,155,0,649.6061,649.6207,m,0,0.0096,,[],[],[],[],[],[],[],649.6208,651.6211,651.6211,651.6213,[],[],[],[],[],[],[],,651.6216,651.622,0.50337972,-0.279270969,0,0,0,,0,154,154,45,1,4,RL,spetisic,cursive,spetisic_c.png,,,,,,
,,,,30745,001,2025-10-21_20h31.41.988,HW_LDT_1,2024.2.4,MacIntel,59.88023952,,,,,,,,,,,,,,,,,,,,651.6231,651.8227,651.8227,652.3222,,,,,,,,,,,,,,0.0789,1,,,,,,,,,,,,,,m,,,,,,,,,,,,,,,,156,1,652.3225,652.4047,m,1,0.0789,,[],[],[],[],[],[],[],652.4047,654.4043,654.4044,654.4725,[],[],[],[],[],[],[],m,654.4726,654.4727,0.50337972,-0.279270969,0,0,0,,0,155,155,93,1,4,word,CEREMONY,print,ceremony_p.png,0.0673,,,,,
,,,,30745,001,2025-10-21_20h31.41.988,HW_LDT_1,2024.2.4,MacIntel,59.88023952,,,,,,,,,,,,,,,,,,,,654.4736,654.6717,654.6718,655.1738,,,,,,,,,,,,,,0.0641,1,,,,,,,,,,,,,,z,,,,,,,,,,,,,,,,157,0,655.1742,655.239,z,1,0.0641,,[],[],[],[],[],[],[],655.239,657.2401,657.2401,657.2403,[],[],[],[],[],[],[],,657.2404,657.2405,0.50337972,-0.279270969,0,0,0,,0,156,156,76,1,4,TL,setanor,print,setanor_p.png,,,,,,
,,,,30745,001,2025-10-21_20h31.41.988,HW_LDT_1,2024.2.4,MacIntel,59.88023952,,,,,,,,,,,,,,,,,,,,657.2414,657.4398,657.4399,657.9401,,,,,,,,,,,,,,0.0987,0,,,,,,,,,,,,,,z,,,,,,,,,,,,,,,,158,0,657.9406,658.0402,m,0,0.0987,,[],[],[],[],[],[],[],658.0403,660.0368,660.0369,660.037,[],[],[],[],[],[],[],,660.0371,660.0371,0.50337972,-0.279270969,0,0,0,,0,157,157,11,1,4,RL,clisimal,print,clisimal_p.png,,,,,,
,,,,30745,001,2025-10-21_20h31.41.988,HW_LDT_1,2024.2.4,MacIntel,59.88023952,,,,,,,,,,,,,,,,,,,,660.038,660.2378,660.2379,660.738,,,,,,,,,,,,,,0.115,0,,,,,,,,,,,,,,z,,,,,,,,,,,,,,,,159,0,660.7384,660.8543,m,0,0.115,,[],[],[],[],[],[],[],660.8544,662.8549,662.8549,662.8552,[],[],[],[],[],[],[],,662.8552,662.8553,0.50337972,-0.279270969,0,0,0,,0,158,158,27,1,4,RL,menowy,print,menowy_p.png,,,,,,
,,,,30745,001,2025-10-21_20h31.41.988,HW_LDT_1,2024.2.4,MacIntel,59.88023952,,,,,,,,,,,,,,,,,,,,662.8564,663.0551,663.0552,663.5563,,,,,,,,,,,,,,1.132,1,,,,,,,,,,,,,,z,,,,,,,,,,,,,,,,160,0,663.5569,664.6895,z,1,1.132,,[],[],[],[],[],[],[],664.6897,666.6874,666.6874,666.6876,[],[],[],[],[],[],[],,666.6877,666.6878,0.50337972,-0.279270969,0,0,0,,0,159,159,9,1,4,RL,cafigal,print,cafigal_p.png,,,,,,
,,,,30745,001,2025-10-21_20h31.41.988,HW_LDT_1,2024.2.4,MacIntel,59.88023952,,,,,,,,,,,,,,,,,,,,,,,,,,,,,,,,,,,,,,,,,,,,,,,,,,,,,,,,,,,,,,,,,,,,,,,,,,,,,,,,,,,,,,,,,,,,,,,,,,,,,,,,,,,,,,,,,,,,,666.6884,671.6881
