counterbalance_lists.group,counterbalance_lists.remaining,get_list.started,get_list.stopped,participant,session,date,expName,psychopyVersion,OS,frameRate,Instructions.started,Instructions.stopped,key_resp.keys,instr_done_touch.x,instr_done_touch.y,instr_done_touch.leftButton,instr_done_touch.midButton,instr_done_touch.rightButton,instr_done_touch.clicked_name,start_instr.thisRepN,start_instr.thisTrialN,start_instr.thisN,start_instr.thisIndex,start_instr.ran,pageN,phase,instruct_text,has_image,instruct_image,key_resp.rt,key_resp.duration,showProgress.started,showProgress.stopped,fix.started,fix.stopped,prac.started,prac.stopped,response.keys,response.corr,response.rt,response.duration,touch_resp.x,touch_resp.y,touch_resp.leftButton,touch_resp.midButton,touch_resp.rightButton,touch_resp.time,touch_resp.clicked_name,rt,corr,feedback.started,feedback.stopped,trials.thisRepN,trials.thisTrialN,trials.thisN,trials.thisIndex,trials.ran,TrialID,StimulusType,Condition,PrimeDuration,Prime,Target,corrAns,Instructions_expt.started,Instructions_expt.stopped,key_resp_3.keys,key_resp_3.rt,key_resp_3.duration,instr_done_touch_3.x,instr_done_touch_3.y,instr_done_touch_3.leftButton,instr_done_touch_3.midButton,instr_done_touch_3.rightButton,instr_experiment.thisRepN,instr_experiment.thisTrialN,instr_experiment.thisN,instr_experiment.thisIndex,instr_experiment.ran,trialID,flag,maintask.started,maintask.stopped,key_resp_2.keys,key_resp_2.corr,key_resp_2.rt,key_resp_2.duration,targ_click.x,targ_click.y,targ_click.leftButton,targ_click.midButton,targ_click.rightButton,targ_click.time,targ_click.clicked_name,ITI.started,ITI.stopped,probe.started,probe.stopped,click_probe.x,click_probe.y,click_probe.leftButton,click_probe.midButton,click_probe.rightButton,click_probe.time,click_probe.clicked_name,key_resp_probe.keys,Break.started,Break.stopped,break_done_touch.x,break_done_touch.y,break_done_touch.leftButton,break_done_touch.midButton,break_done_touch.rightButton,break_done_keyboard.keys,list3_trials.thisRepN,list3_trials.thisTrialN,list3_trials.thisN,list3_trials.thisIndex,list3_trials.ran,list_id,item_type,string,font,stim_file,key_resp_probe.rt,key_resp_probe.duration,break_done_keyboard.rt,break_done_keyboard.duration,End.started,End.stopped
list3,,0.5526,0.5528,30758,001,2025-10-15_20h03.29.108,HW_LDT_1,2024.2.4,MacIntel,61.34969325,,,,,,,,,,,,,,,,,,,,,,,,,,,,,,,,,,,,,,,,,,,,,,,,,,,,,,,,,,,,,,,,,,,,,,,,,,,,,,,,,,,,,,,,,,,,,,,,,,,,,,,,,,,,,,,,,,,,,,,,
,,,,30758,001,2025-10-15_20h03.29.108,HW_LDT_1,2024.2.4,MacIntel,61.34969325,0.5813,9.5431,,-0.081411434,-0.382883531,1,0,0,instr_done_button,0,0,0,0,1,1,instructions,"INSTRUCTIONS
At the start of each trial, look at the plus sign  (+) in the center of the screen.  This tells you that a trial is about to begin and where to look. Second, the plus sign will disappear and a string of letters will appear. Your task is to determine if the string of letters is a word or not. If the item is a word press the M key (on keyboard)  or touch the word button (phone/tablet).  If the item is not a word,  press the  Z key (on keyboard)  or touch the nonword button (on phone/tablet). The items will be presented for a short time. 
Press the space bar or touch  continue.",0,,,,,,,,,,,,,,,,,,,,,,,,,,,,,,,,,,,,,,,,,,,,,,,,,,,,,,,,,,,,,,,,,,,,,,,,,,,,,,,,,,,,,,,,,,,,,,,,,,,,,,
,,,,30758,001,2025-10-15_20h03.29.108,HW_LDT_1,2024.2.4,MacIntel,61.34969325,9.5447,17.9915,space,-0.134323695,-0.404517663,0,0,0,,0,1,1,1,1,2,instructions,"If your device has a keyboard, press the 'Z' key for nonwords and the 'M' key for words.





Press the space bar or touch the button below to continue.",0,keyboard-example.gif,8.4229,,,,,,,,,,,,,,,,,,,,,,,,,,,,,,,,,,,,,,,,,,,,,,,,,,,,,,,,,,,,,,,,,,,,,,,,,,,,,,,,,,,,,,,,,,,,,,,,,,,,
,,,,30758,001,2025-10-15_20h03.29.108,HW_LDT_1,2024.2.4,MacIntel,61.34969325,17.9936,27.3477,space,-0.134323695,-0.404517663,0,0,0,,0,2,2,2,1,3,instructions,"If you are using a touchscreen only device, use the buttons on the screen. Do not use the mouse.





Press the space bar or touch the button below to continue.",0,touchscreen-example.gif,9.3299,,,,,,,,,,,,,,,,,,,,,,,,,,,,,,,,,,,,,,,,,,,,,,,,,,,,,,,,,,,,,,,,,,,,,,,,,,,,,,,,,,,,,,,,,,,,,,,,,,,,
,,,,30758,001,2025-10-15_20h03.29.108,HW_LDT_1,2024.2.4,MacIntel,61.34969325,27.3496,30.6087,space,-0.134323695,-0.404517663,0,0,0,,0,3,3,3,1,4,instructions,"It is very important that you respond as quickly and accurately as possible, as each letter string will only be on the screen for two seconds. If you do not respond within this time, the message 'Too slow!' will be displayed and the experiment will progress to the next letter string. The first 20 trials will be practice trials and you will receive feedback on your answers. 

Press the space bar or touch the button below to start the practice trials.",0,,3.235,,,,,,,,,,,,,,,,,,,,,,,,,,,,,,,,,,,,,,,,,,,,,,,,,,,,,,,,,,,,,,,,,,,,,,,,,,,,,,,,,,,,,,,,,,,,,,,,,,,,
,,,,30758,001,2025-10-15_20h03.29.108,HW_LDT_1,2024.2.4,MacIntel,61.34969325,,,,,,,,,,,,,,,,,,,,,,30.651,30.8117,30.812,31.3086,31.3089,34.2294,m,1,2.8921,,[],[],[],[],[],[],[],2.8921,1,34.2297,34.7251,0,0,0,2,1,1003,WORD,"ID",16,almond,ALMOND,m,,,,,,,,,,,,,,,,,,,,,,,,,,,,,,,,,,,,,,,,,,,,,,,,,,,,,,,,,,,,,,,,,,
,,,,30758,001,2025-10-15_20h03.29.108,HW_LDT_1,2024.2.4,MacIntel,61.34969325,,,,,,,,,,,,,,,,,,,,,,34.7261,34.9243,34.9243,35.425,35.4258,36.474,m,1,1.0228,,[],[],[],[],[],[],[],1.0228,1,36.4741,36.9652,0,1,1,0,1,1001,WORD,"ID",33,utopia,UTOPIA,m,,,,,,,,,,,,,,,,,,,,,,,,,,,,,,,,,,,,,,,,,,,,,,,,,,,,,,,,,,,,,,,,,,
,,,,30758,001,2025-10-15_20h03.29.108,HW_LDT_1,2024.2.4,MacIntel,61.34969325,,,,,,,,,,,,,,,,,,,,,,36.9664,37.1583,37.1583,37.6582,37.6592,38.2239,m,1,0.538,,[],[],[],[],[],[],[],0.538,1,38.224,38.725,0,2,2,4,1,1005,WORD,UN,33,abound,SQUEAK,m,,,,,,,,,,,,,,,,,,,,,,,,,,,,,,,,,,,,,,,,,,,,,,,,,,,,,,,,,,,,,,,,,,
,,,,30758,001,2025-10-15_20h03.29.108,HW_LDT_1,2024.2.4,MacIntel,61.34969325,,,,,,,,,,,,,,,,,,,,,,38.7263,38.9244,38.9245,39.4251,39.4258,40.2147,z,1,0.7663,,[],[],[],[],[],[],[],0.7663,1,40.2148,40.7083,0,3,3,13,1,1014,NW,UN,33,winfer,ROUPET,z,,,,,,,,,,,,,,,,,,,,,,,,,,,,,,,,,,,,,,,,,,,,,,,,,,,,,,,,,,,,,,,,,,
,,,,30758,001,2025-10-15_20h03.29.108,HW_LDT_1,2024.2.4,MacIntel,61.34969325,,,,,,,,,,,,,,,,,,,,,,40.7094,40.9083,40.9083,41.4083,41.4089,42.0245,z,1,0.5864,,[],[],[],[],[],[],[],0.5864,1,42.0245,42.5247,0,4,4,12,1,1013,NW,UN,33,adveil,SPRINY,z,,,,,,,,,,,,,,,,,,,,,,,,,,,,,,,,,,,,,,,,,,,,,,,,,,,,,,,,,,,,,,,,,,
,,,,30758,001,2025-10-15_20h03.29.108,HW_LDT_1,2024.2.4,MacIntel,61.34969325,,,,,,,,,,,,,,,,,,,,,,42.5257,42.7249,42.7249,43.2238,43.2245,43.858,m,1,0.6039,,[],[],[],[],[],[],[],0.6039,1,43.8582,44.3582,0,5,5,6,1,1007,WORD,UN,16,tropic,ZOMBIE,m,,,,,,,,,,,,,,,,,,,,,,,,,,,,,,,,,,,,,,,,,,,,,,,,,,,,,,,,,,,,,,,,,,
,,,,30758,001,2025-10-15_20h03.29.108,HW_LDT_1,2024.2.4,MacIntel,61.34969325,,,,,,,,,,,,,,,,,,,,,,44.3595,44.5582,44.5583,45.0647,45.0654,45.6654,m,1,0.5883,,[],[],[],[],[],[],[],0.5883,1,45.6655,46.1583,0,6,6,1,1,1002,WORD,"ID",33,adjust,ADJUST,m,,,,,,,,,,,,,,,,,,,,,,,,,,,,,,,,,,,,,,,,,,,,,,,,,,,,,,,,,,,,,,,,,,
,,,,30758,001,2025-10-15_20h03.29.108,HW_LDT_1,2024.2.4,MacIntel,61.34969325,,,,,,,,,,,,,,,,,,,,,,46.1596,46.3582,46.3582,46.8572,46.8579,47.7081,z,1,0.8213,,[],[],[],[],[],[],[],0.8213,1,47.7082,48.2081,0,7,7,11,1,1012,NW,"ID",16,rashet,RASHET,z,,,,,,,,,,,,,,,,,,,,,,,,,,,,,,,,,,,,,,,,,,,,,,,,,,,,,,,,,,,,,,,,,,
,,,,30758,001,2025-10-15_20h03.29.108,HW_LDT_1,2024.2.4,MacIntel,61.34969325,,,,,,,,,,,,,,,,,,,,,,48.2095,48.4072,48.4072,48.8967,48.8978,49.441,m,1,0.5298,,[],[],[],[],[],[],[],0.5298,1,49.4411,49.9414,0,8,8,7,1,1008,WORD,UN,16,hurdle,VOLUME,m,,,,,,,,,,,,,,,,,,,,,,,,,,,,,,,,,,,,,,,,,,,,,,,,,,,,,,,,,,,,,,,,,,
,,,,30758,001,2025-10-15_20h03.29.108,HW_LDT_1,2024.2.4,MacIntel,61.34969325,,,,,,,,,,,,,,,,,,,,,,49.9425,50.1404,50.1404,50.6311,50.6317,51.3581,m,1,0.7079,,[],[],[],[],[],[],[],0.7079,1,51.3581,51.8582,0,9,9,3,1,1004,WORD,"ID",16,matrix,MATRIX,m,,,,,,,,,,,,,,,,,,,,,,,,,,,,,,,,,,,,,,,,,,,,,,,,,,,,,,,,,,,,,,,,,,
,,,,30758,001,2025-10-15_20h03.29.108,HW_LDT_1,2024.2.4,MacIntel,61.34969325,,,,,,,,,,,,,,,,,,,,,,51.8593,52.058,52.0581,52.5579,52.5585,53.1074,m,1,0.5234,,[],[],[],[],[],[],[],0.5234,1,53.1075,53.6073,0,10,10,5,1,1006,WORD,UN,33,frenzy,OBTAIN,m,,,,,,,,,,,,,,,,,,,,,,,,,,,,,,,,,,,,,,,,,,,,,,,,,,,,,,,,,,,,,,,,,,
,,,,30758,001,2025-10-15_20h03.29.108,HW_LDT_1,2024.2.4,MacIntel,61.34969325,,,,,,,,,,,,,,,,,,,,,,53.6084,53.808,53.8081,54.3081,54.3088,55.3404,z,1,1.004,,[],[],[],[],[],[],[],1.004,1,55.3404,55.8579,0,11,11,15,1,1016,NW,UN,16,mushed,WHAISE,z,,,,,,,,,,,,,,,,,,,,,,,,,,,,,,,,,,,,,,,,,,,,,,,,,,,,,,,,,,,,,,,,,,
,,,,30758,001,2025-10-15_20h03.29.108,HW_LDT_1,2024.2.4,MacIntel,61.34969325,,,,,,,,,,,,,,,,,,,,,,55.8586,56.0689,56.069,56.5579,56.5587,57.2745,z,1,0.6919,,[],[],[],[],[],[],[],0.6919,1,57.2745,57.7743,0,12,12,10,1,1011,NW,"ID",16,inlade,INLADE,z,,,,,,,,,,,,,,,,,,,,,,,,,,,,,,,,,,,,,,,,,,,,,,,,,,,,,,,,,,,,,,,,,,
,,,,30758,001,2025-10-15_20h03.29.108,HW_LDT_1,2024.2.4,MacIntel,61.34969325,,,,,,,,,,,,,,,,,,,,,,57.7751,57.9746,57.9747,58.4743,58.4748,59.5571,z,1,1.0548,,[],[],[],[],[],[],[],1.0548,1,59.5572,60.0574,0,13,13,14,1,1015,NW,UN,16,miaber,THRALE,z,,,,,,,,,,,,,,,,,,,,,,,,,,,,,,,,,,,,,,,,,,,,,,,,,,,,,,,,,,,,,,,,,,
,,,,30758,001,2025-10-15_20h03.29.108,HW_LDT_1,2024.2.4,MacIntel,61.34969325,,,,,,,,,,,,,,,,,,,,,,60.0585,60.2579,60.2579,60.758,60.7588,61.5413,z,1,0.756,,[],[],[],[],[],[],[],0.756,1,61.5414,62.0409,0,14,14,8,1,1009,NW,"ID",33,aslert,ASLERT,z,,,,,,,,,,,,,,,,,,,,,,,,,,,,,,,,,,,,,,,,,,,,,,,,,,,,,,,,,,,,,,,,,,
,,,,30758,001,2025-10-15_20h03.29.108,HW_LDT_1,2024.2.4,MacIntel,61.34969325,,,,,,,,,,,,,,,,,,,,,,62.0421,62.2413,62.2413,62.741,62.7418,63.758,z,1,0.9872,,[],[],[],[],[],[],[],0.9872,1,63.7581,64.257,0,15,15,9,1,1010,NW,"ID",33,fariny,FARINY,z,,,,,,,,,,,,,,,,,,,,,,,,,,,,,,,,,,,,,,,,,,,,,,,,,,,,,,,,,,,,,,,,,,
,,,,30758,001,2025-10-15_20h03.29.108,HW_LDT_1,2024.2.4,MacIntel,61.34969325,,,,,,,,,,,,,,,1,end_of_practice,"You have completed the practice trials. During the experimental trials, you will not receive feedback. On some trials you will be asked to report whether the item you just saw was in cursive or print. 
Before you begin, please ensure that you are in a comfortable and quiet location and will not be disturbed for about 15 minutes, as we cannot use your data if you do not complete all the trials. 
 When you are ready to start the experimental trials, please press space or touch the button below.",,,,,,,,,,,,,,,,,,,,,,,,,,,,,,,,,,,,,,64.265,65.6915,space,1.3994,,-0.134323695,-0.404517663,0,0,0,0,0,0,0,1,,,,,,,,,,,,,,,,,,,,,,,,,,,,,,,,,,,,,,,,,,,,,,,,,,,
,,,,30758,001,2025-10-15_20h03.29.108,HW_LDT_1,2024.2.4,MacIntel,61.34969325,,,,,,,,,,,,,,,,,,,,,,65.714,65.8911,65.8913,66.391,,,,,,,,,,,,,,1.9933,1,,,,,,,,,,,,,,z,,,,,,,,,,,,,,,,1,0,66.3924,68.3914,z,1,1.9933,,[],[],[],[],[],[],[],68.3917,70.3914,70.3916,70.3964,[],[],[],[],[],[],[],,70.3966,70.3998,-0.134323695,-0.404517663,0,0,0,,0,0,0,76,1,3,TL,stogare,cursive,stogare_c.png,,,,,,
,,,,30758,001,2025-10-15_20h03.29.108,HW_LDT_1,2024.2.4,MacIntel,61.34969325,,,,,,,,,,,,,,,,,,,,,,70.401,70.5903,70.5903,71.0913,,,,,,,,,,,,,,1.0528,0,,,,,,,,,,,,,,m,,,,,,,,,,,,,,,,2,0,71.0916,72.1455,z,0,1.0528,,[],[],[],[],[],[],[],72.1456,74.1405,74.1406,74.1407,[],[],[],[],[],[],[],,74.1407,74.1408,-0.134323695,-0.404517663,0,0,0,,0,1,1,90,1,3,word,CAPITAL,cursive,capital_c.png,,,,,,
,,,,30758,001,2025-10-15_20h03.29.108,HW_LDT_1,2024.2.4,MacIntel,61.34969325,,,,,,,,,,,,,,,,,,,,,,74.1417,74.3524,74.3527,74.8406,,,,,,,,,,,,,,0.7477,1,,,,,,,,,,,,,,m,,,,,,,,,,,,,,,,3,1,74.8413,75.5904,m,1,0.7477,,[],[],[],[],[],[],[],75.5906,77.5903,77.5903,82.5405,[],[],[],[],[],[],[],z,82.5405,82.5407,-0.134323695,-0.404517663,0,0,0,,0,2,2,156,1,3,word,TRIBUTE,print,tribute_p.png,4.9456,,,,,
,,,,30758,001,2025-10-15_20h03.29.108,HW_LDT_1,2024.2.4,MacIntel,61.34969325,,,,,,,,,,,,,,,,,,,,,,82.5419,82.7409,82.741,83.241,,,,,,,,,,,,,,1.1106,1,,,,,,,,,,,,,,m,,,,,,,,,,,,,,,,4,1,83.2422,84.3579,m,1,1.1106,,[],[],[],[],[],[],[],84.358,86.3578,86.3585,87.9234,[],[],[],[],[],[],[],m,87.9235,87.9236,-0.134323695,-0.404517663,0,0,0,,0,3,3,91,1,3,word,CARDINAL,print,cardinal_p.png,1.5591,,,,,
,,,,30758,001,2025-10-15_20h03.29.108,HW_LDT_1,2024.2.4,MacIntel,61.34969325,,,,,,,,,,,,,,,,,,,,,,87.9246,88.1237,88.1237,88.6241,,,,,,,,,,,,,,1.3927,1,,,,,,,,,,,,,,m,,,,,,,,,,,,,,,,5,0,88.6245,90.0239,m,1,1.3927,,[],[],[],[],[],[],[],90.0239,92.0244,92.0245,92.0247,[],[],[],[],[],[],[],,92.0247,92.0249,-0.134323695,-0.404517663,0,0,0,,0,4,4,155,1,3,word,STRATEGY,print,strategy_p.png,,,,,,
,,,,30758,001,2025-10-15_20h03.29.108,HW_LDT_1,2024.2.4,MacIntel,61.34969325,,,,,,,,,,,,,,,,,,,,,,92.026,92.2297,92.2298,92.7243,,,,,,,,,,,,,,0.5803,1,,,,,,,,,,,,,,m,,,,,,,,,,,,,,,,6,0,92.7255,93.3074,m,1,0.5803,,[],[],[],[],[],[],[],93.3075,95.3075,95.3075,95.3078,[],[],[],[],[],[],[],,95.3079,95.3081,-0.134323695,-0.404517663,0,0,0,,0,5,5,82,1,3,word,AMATEUR,print,amateur_p.png,,,,,,
,,,,30758,001,2025-10-15_20h03.29.108,HW_LDT_1,2024.2.4,MacIntel,61.34969325,,,,,,,,,,,,,,,,,,,,,,95.309,95.5075,95.5075,96.0074,,,,,,,,,,,,,,0.5261,1,,,,,,,,,,,,,,m,,,,,,,,,,,,,,,,7,0,96.0078,96.5405,m,1,0.5261,,[],[],[],[],[],[],[],96.5406,98.5407,98.5408,98.541,[],[],[],[],[],[],[],,98.541,98.541,-0.134323695,-0.404517663,0,0,0,,0,6,6,96,1,3,word,CONSIDER,print,consider_p.png,,,,,,
,,,,30758,001,2025-10-15_20h03.29.108,HW_LDT_1,2024.2.4,MacIntel,61.34969325,,,,,,,,,,,,,,,,,,,,,,98.5423,98.7408,98.7408,99.2407,,,,,,,,,,,,,,1.4434,1,,,,,,,,,,,,,,z,,,,,,,,,,,,,,,,8,0,99.2412,100.6897,z,1,1.4434,,[],[],[],[],[],[],[],100.6897,102.69,102.6901,102.6903,[],[],[],[],[],[],[],,102.6903,102.6905,-0.134323695,-0.404517663,0,0,0,,0,7,7,48,1,3,TL,grafetul,cursive,grafetul_c.png,,,,,,
,,,,30758,001,2025-10-15_20h03.29.108,HW_LDT_1,2024.2.4,MacIntel,61.34969325,,,,,,,,,,,,,,,,,,,,,,102.6915,102.8907,102.8907,103.3908,,,,,,,,,,,,,,1.2983,1,,,,,,,,,,,,,,z,,,,,,,,,,,,,,,,9,0,103.3911,104.6905,z,1,1.2983,,[],[],[],[],[],[],[],104.6905,106.6901,106.6901,106.6903,[],[],[],[],[],[],[],,106.6903,106.6904,-0.134323695,-0.404517663,0,0,0,,0,8,8,58,1,3,TL,nuremical,print,nuremical_p.png,,,,,,
,,,,30758,001,2025-10-15_20h03.29.108,HW_LDT_1,2024.2.4,MacIntel,61.34969325,,,,,,,,,,,,,,,,,,,,,,106.6915,106.8906,106.8907,107.3906,,,,,,,,,,,,,,0.9285,1,,,,,,,,,,,,,,z,,,,,,,,,,,,,,,,10,0,107.3911,108.323,z,1,0.9285,,[],[],[],[],[],[],[],108.3231,110.3288,110.3289,110.3292,[],[],[],[],[],[],[],,110.3292,110.3295,-0.134323695,-0.404517663,0,0,0,,0,9,9,43,1,3,TL,dedace,cursive,dedace_c.png,,,,,,
,,,,30758,001,2025-10-15_20h03.29.108,HW_LDT_1,2024.2.4,MacIntel,61.34969325,,,,,,,,,,,,,,,,,,,,,,110.3303,110.5232,110.5233,111.0232,,,,,,,,,,,,,,0.6781,1,,,,,,,,,,,,,,m,,,,,,,,,,,,,,,,11,0,111.0244,111.7072,m,1,0.6781,,[],[],[],[],[],[],[],111.7073,113.7073,113.7073,113.7074,[],[],[],[],[],[],[],,113.7075,113.7076,-0.134323695,-0.404517663,0,0,0,,0,10,10,157,1,3,word,VALIDITY,cursive,validity_c.png,,,,,,
,,,,30758,001,2025-10-15_20h03.29.108,HW_LDT_1,2024.2.4,MacIntel,61.34969325,,,,,,,,,,,,,,,,,,,,,,113.7088,113.9062,113.9062,114.4071,,,,,,,,,,,,,,0.5958,1,,,,,,,,,,,,,,m,,,,,,,,,,,,,,,,12,0,114.4074,115.0072,m,1,0.5958,,[],[],[],[],[],[],[],115.0073,117.0064,117.0064,117.0065,[],[],[],[],[],[],[],,117.0066,117.0067,-0.134323695,-0.404517663,0,0,0,,0,11,11,97,1,3,word,COVERAGE,print,coverage_p.png,,,,,,
,,,,30758,001,2025-10-15_20h03.29.108,HW_LDT_1,2024.2.4,MacIntel,61.34969325,,,,,,,,,,,,,,,,,,,,,,117.0076,117.2072,117.2072,117.7072,,,,,,,,,,,,,,0.5656,1,,,,,,,,,,,,,,m,,,,,,,,,,,,,,,,13,0,117.7075,118.2742,m,1,0.5656,,[],[],[],[],[],[],[],118.2742,120.2739,120.2739,120.2742,[],[],[],[],[],[],[],,120.2742,120.2743,-0.134323695,-0.404517663,0,0,0,,0,12,12,151,1,3,word,SPECIFIC,print,specific_p.png,,,,,,
,,,,30758,001,2025-10-15_20h03.29.108,HW_LDT_1,2024.2.4,MacIntel,61.34969325,,,,,,,,,,,,,,,,,,,,,,120.2754,120.4739,120.4739,120.9738,,,,,,,,,,,,,,0.9632,1,,,,,,,,,,,,,,z,,,,,,,,,,,,,,,,14,0,120.9742,121.9395,z,1,0.9632,,[],[],[],[],[],[],[],121.9396,123.9446,123.9447,123.9448,[],[],[],[],[],[],[],,123.9449,123.945,-0.134323695,-0.404517663,0,0,0,,0,13,13,41,1,3,TL,crinimal,print,crinimal_p.png,,,,,,
,,,,30758,001,2025-10-15_20h03.29.108,HW_LDT_1,2024.2.4,MacIntel,61.34969325,,,,,,,,,,,,,,,,,,,,,,123.9463,124.1404,124.1404,124.6404,,,,,,,,,,,,,,0.778,1,,,,,,,,,,,,,,z,,,,,,,,,,,,,,,,15,0,124.6411,125.4237,z,1,0.778,,[],[],[],[],[],[],[],125.4238,127.4228,127.4229,127.423,[],[],[],[],[],[],[],,127.423,127.4231,-0.134323695,-0.404517663,0,0,0,,0,14,14,3,1,3,RL,bebine,cursive,bebine_c.png,,,,,,
,,,,30758,001,2025-10-15_20h03.29.108,HW_LDT_1,2024.2.4,MacIntel,61.34969325,,,,,,,,,,,,,,,,,,,,,,127.4242,127.6237,127.6238,128.1228,,,,,,,,,,,,,,1.0966,1,,,,,,,,,,,,,,z,,,,,,,,,,,,,,,,16,0,128.1232,129.223,z,1,1.0966,,[],[],[],[],[],[],[],129.2231,131.2231,131.2231,131.2234,[],[],[],[],[],[],[],,131.2234,131.2235,-0.134323695,-0.404517663,0,0,0,,0,15,15,11,1,3,RL,ebiwent,cursive,ebiwent_c.png,,,,,,
,,,,30758,001,2025-10-15_20h03.29.108,HW_LDT_1,2024.2.4,MacIntel,61.34969325,,,,,,,,,,,,,,,,,,,,,,131.2244,131.4227,131.4227,131.9226,,,,,,,,,,,,,,0.9658,1,,,,,,,,,,,,,,z,,,,,,,,,,,,,,,,17,0,131.9229,132.8896,z,1,0.9658,,[],[],[],[],[],[],[],132.8896,134.8901,134.8902,134.8904,[],[],[],[],[],[],[],,134.8904,134.8905,-0.134323695,-0.404517663,0,0,0,,0,16,16,53,1,3,TL,marnigal,print,marnigal_p.png,,,,,,
,,,,30758,001,2025-10-15_20h03.29.108,HW_LDT_1,2024.2.4,MacIntel,61.34969325,,,,,,,,,,,,,,,,,,,,,,134.8917,135.0899,135.09,135.5902,,,,,,,,,,,,,,1.0535,1,,,,,,,,,,,,,,z,,,,,,,,,,,,,,,,18,0,135.5906,136.6455,z,1,1.0535,,[],[],[],[],[],[],[],136.6456,138.6401,138.6402,138.6403,[],[],[],[],[],[],[],,138.6404,138.6405,-0.134323695,-0.404517663,0,0,0,,0,17,17,35,1,3,TL,cateferia,print,cateferia_p.png,,,,,,
,,,,30758,001,2025-10-15_20h03.29.108,HW_LDT_1,2024.2.4,MacIntel,61.34969325,,,,,,,,,,,,,,,,,,,,,,138.6416,138.8395,138.8396,139.3391,,,,,,,,,,,,,,0.6111,0,,,,,,,,,,,,,,m,,,,,,,,,,,,,,,,19,0,139.3395,139.9569,z,0,0.6111,,[],[],[],[],[],[],[],139.957,141.9568,141.9569,141.957,[],[],[],[],[],[],[],,141.957,141.9572,-0.134323695,-0.404517663,0,0,0,,0,18,18,145,1,3,word,RESUME,cursive,resume_c.png,,,,,,
,,,,30758,001,2025-10-15_20h03.29.108,HW_LDT_1,2024.2.4,MacIntel,61.34969325,,,,,,,,,,,,,,,,,,,,,,141.9584,142.1566,142.1566,142.6567,,,,,,,,,,,,,,0.6749,1,,,,,,,,,,,,,,z,,,,,,,,,,,,,,,,20,1,142.657,143.3401,z,1,0.6749,,[],[],[],[],[],[],[],143.3403,145.3401,145.3401,147.9068,[],[],[],[],[],[],[],m,147.9068,147.907,-0.134323695,-0.404517663,0,0,0,,0,19,19,28,1,3,RL,rovastic,cursive,rovastic_c.png,2.5573,,,,,
,,,,30758,001,2025-10-15_20h03.29.108,HW_LDT_1,2024.2.4,MacIntel,61.34969325,,,,,,,,,,,,,,,,,,,,,,147.908,148.1068,148.1068,148.6067,,,,,,,,,,,,,,0.9058,1,,,,,,,,,,,,,,m,,,,,,,,,,,,,,,,21,0,148.6071,149.5151,m,1,0.9058,,[],[],[],[],[],[],[],149.5152,151.5062,151.5064,151.5065,[],[],[],[],[],[],[],,151.5066,151.5067,-0.134323695,-0.404517663,0,0,0,,0,20,20,132,1,3,word,PROPOSAL,print,proposal_p.png,,,,,,
,,,,30758,001,2025-10-15_20h03.29.108,HW_LDT_1,2024.2.4,MacIntel,61.34969325,,,,,,,,,,,,,,,,,,,,,,151.5078,151.6969,151.6969,152.206,,,,,,,,,,,,,,0.8452,1,,,,,,,,,,,,,,z,,,,,,,,,,,,,,,,22,0,152.2064,153.0561,z,1,0.8452,,[],[],[],[],[],[],[],153.0562,155.0566,155.0567,155.0568,[],[],[],[],[],[],[],,155.0569,155.0569,-0.134323695,-0.404517663,0,0,0,,0,21,21,68,1,3,TL,revomal,cursive,revomal_c.png,,,,,,
,,,,30758,001,2025-10-15_20h03.29.108,HW_LDT_1,2024.2.4,MacIntel,61.34969325,,,,,,,,,,,,,,,,,,,,,,155.0581,155.256,155.2561,155.7559,,,,,,,,,,,,,,0.8656,1,,,,,,,,,,,,,,z,,,,,,,,,,,,,,,,23,1,155.7562,156.6226,z,1,0.8656,,[],[],[],[],[],[],[],156.6227,158.6121,158.6122,161.2065,[],[],[],[],[],[],[],z,161.2067,161.2067,-0.134323695,-0.404517663,0,0,0,,0,22,22,79,1,3,TL,veretan,cursive,veretan_c.png,2.5882,,,,,
,,,,30758,001,2025-10-15_20h03.29.108,HW_LDT_1,2024.2.4,MacIntel,61.34969325,,,,,,,,,,,,,,,,,,,,,,161.2079,161.407,161.4071,161.9056,,,,,,,,,,,,,,3.1993,0,,,,,,,,,,,,,,m,,,,,,,,,,,,,,,,24,0,161.906,165.1057,z,0,3.1993,,[],[],[],[],[],[],[],165.1057,167.1058,167.1058,167.106,[],[],[],[],[],[],[],,167.106,167.1061,-0.134323695,-0.404517663,0,0,0,,0,23,23,117,1,3,word,MARINE,cursive,marine_c.png,,,,,,
,,,,30758,001,2025-10-15_20h03.29.108,HW_LDT_1,2024.2.4,MacIntel,61.34969325,,,,,,,,,,,,,,,,,,,,,,167.107,167.3066,167.3066,167.8065,,,,,,,,,,,,,,0.7984,1,,,,,,,,,,,,,,z,,,,,,,,,,,,,,,,25,0,167.8069,168.6061,z,1,0.7984,,[],[],[],[],[],[],[],168.6061,170.6056,170.6057,170.6061,[],[],[],[],[],[],[],,170.6061,170.6062,-0.134323695,-0.404517663,0,0,0,,0,24,24,15,1,3,RL,mifikary,cursive,mifikary_c.png,,,,,,
,,,,30758,001,2025-10-15_20h03.29.108,HW_LDT_1,2024.2.4,MacIntel,61.34969325,,,,,,,,,,,,,,,,,,,,,,170.6071,170.7964,170.7964,171.3067,,,,,,,,,,,,,,0.8782,1,,,,,,,,,,,,,,z,,,,,,,,,,,,,,,,26,0,171.3072,172.1897,z,1,0.8782,,[],[],[],[],[],[],[],172.1897,174.1898,174.1898,174.1899,[],[],[],[],[],[],[],,174.19,174.1901,-0.134323695,-0.404517663,0,0,0,,0,25,25,50,1,3,TL,lirebal,print,lirebal_p.png,,,,,,
,,,,30758,001,2025-10-15_20h03.29.108,HW_LDT_1,2024.2.4,MacIntel,61.34969325,,,,,,,,,,,,,,,,,,,,,,174.1911,174.3803,174.3803,174.8804,,,,,,,,,,,,,,0.9574,1,,,,,,,,,,,,,,m,,,,,,,,,,,,,,,,27,1,174.8807,175.839,m,1,0.9574,,[],[],[],[],[],[],[],175.8391,177.8389,177.8391,179.1116,[],[],[],[],[],[],[],m,179.1117,179.1118,-0.134323695,-0.404517663,0,0,0,,0,26,26,133,1,3,word,PROVIDE,print,provide_p.png,1.2713,,,,,
,,,,30758,001,2025-10-15_20h03.29.108,HW_LDT_1,2024.2.4,MacIntel,61.34969325,,,,,,,,,,,,,,,,,,,,,,179.1128,179.3064,179.3064,179.8056,,,,,,,,,,,,,,0.8464,1,,,,,,,,,,,,,,z,,,,,,,,,,,,,,,,28,0,179.8061,180.6561,z,1,0.8464,,[],[],[],[],[],[],[],180.6562,182.6563,182.6564,182.6565,[],[],[],[],[],[],[],,182.6565,182.6566,-0.134323695,-0.404517663,0,0,0,,0,27,27,26,1,3,RL,repifion,print,repifion_p.png,,,,,,
,,,,30758,001,2025-10-15_20h03.29.108,HW_LDT_1,2024.2.4,MacIntel,61.34969325,,,,,,,,,,,,,,,,,,,,,,182.6577,182.8564,182.8564,183.3562,,,,,,,,,,,,,,0.7461,1,,,,,,,,,,,,,,z,,,,,,,,,,,,,,,,29,0,183.3566,184.1063,z,1,0.7461,,[],[],[],[],[],[],[],184.1063,186.1062,186.1062,186.1064,[],[],[],[],[],[],[],,186.1064,186.1065,-0.134323695,-0.404517663,0,0,0,,0,28,28,78,1,3,TL,vecolity,cursive,vecolity_c.png,,,,,,
,,,,30758,001,2025-10-15_20h03.29.108,HW_LDT_1,2024.2.4,MacIntel,61.34969325,,,,,,,,,,,,,,,,,,,,,,186.1075,186.3058,186.3059,186.8062,,,,,,,,,,,,,,0.9491,1,,,,,,,,,,,,,,m,,,,,,,,,,,,,,,,30,0,186.8065,187.7562,m,1,0.9491,,[],[],[],[],[],[],[],187.7562,189.7562,189.7563,189.7564,[],[],[],[],[],[],[],,189.7564,189.7566,-0.134323695,-0.404517663,0,0,0,,0,29,29,104,1,3,word,DOMINANT,print,dominant_p.png,,,,,,
,,,,30758,001,2025-10-15_20h03.29.108,HW_LDT_1,2024.2.4,MacIntel,61.34969325,,,,,,,,,,,,,,,,,,,,,,189.7579,189.9561,189.9562,190.4561,,,,,,,,,,,,,,1.1154,1,,,,,,,,,,,,,,m,,,,,,,,,,,,,,,,31,0,190.4565,191.5724,m,1,1.1154,,[],[],[],[],[],[],[],191.5725,193.5718,193.5718,193.572,[],[],[],[],[],[],[],,193.572,193.572,-0.134323695,-0.404517663,0,0,0,,0,30,30,83,1,3,word,ANIMAL,cursive,animal_c.png,,,,,,
,,,,30758,001,2025-10-15_20h03.29.108,HW_LDT_1,2024.2.4,MacIntel,61.34969325,,,,,,,,,,,,,,,,,,,,,,193.5729,193.7638,193.7639,194.2727,,,,,,,,,,,,,,1.0767,1,,,,,,,,,,,,,,z,,,,,,,,,,,,,,,,32,0,194.273,195.3561,z,1,1.0767,,[],[],[],[],[],[],[],195.3562,197.3615,197.3615,197.3618,[],[],[],[],[],[],[],,197.3618,197.3619,-0.134323695,-0.404517663,0,0,0,,0,31,31,60,1,3,TL,panert,print,panert_p.png,,,,,,
,,,,30758,001,2025-10-15_20h03.29.108,HW_LDT_1,2024.2.4,MacIntel,61.34969325,,,,,,,,,,,,,,,,,,,,,,197.363,197.5562,197.5562,198.0553,,,,,,,,,,,,,,0.6487,0,,,,,,,,,,,,,,m,,,,,,,,,,,,,,,,33,0,198.0557,198.7053,z,0,0.6487,,[],[],[],[],[],[],[],198.7053,200.6973,200.6974,200.6976,[],[],[],[],[],[],[],,200.6977,200.6977,-0.134323695,-0.404517663,0,0,0,,0,32,32,128,1,3,word,PACIFIC,cursive,pacific_c.png,,,,,,
,,,,30758,001,2025-10-15_20h03.29.108,HW_LDT_1,2024.2.4,MacIntel,61.34969325,,,,,,,,,,,,,,,,,,,,,,200.6987,200.8889,200.889,201.3882,,,,,,,,,,,,,,0.7875,1,,,,,,,,,,,,,,m,,,,,,,,,,,,,,,,34,1,201.3886,202.1767,m,1,0.7875,,[],[],[],[],[],[],[],202.1767,204.1718,204.1718,212.0559,[],[],[],[],[],[],[],m,212.0559,212.056,-0.134323695,-0.404517663,0,0,0,,0,33,33,95,1,3,word,COMEDY,print,comedy_p.png,7.8833,,,,,
,,,,30758,001,2025-10-15_20h03.29.108,HW_LDT_1,2024.2.4,MacIntel,61.34969325,,,,,,,,,,,,,,,,,,,,,,212.0567,212.2558,212.2558,212.7559,,,,,,,,,,,,,,0.865,1,,,,,,,,,,,,,,z,,,,,,,,,,,,,,,,35,0,212.7563,213.6219,z,1,0.865,,[],[],[],[],[],[],[],213.622,215.6224,215.6225,215.6226,[],[],[],[],[],[],[],,215.6226,215.6227,-0.134323695,-0.404517663,0,0,0,,0,34,34,10,1,3,RL,efibor,print,efibor_p.png,,,,,,
,,,,30758,001,2025-10-15_20h03.29.108,HW_LDT_1,2024.2.4,MacIntel,61.34969325,,,,,,,,,,,,,,,,,,,,,,215.6238,215.8226,215.8226,216.3215,,,,,,,,,,,,,,0.6471,1,,,,,,,,,,,,,,z,,,,,,,,,,,,,,,,36,0,216.3218,216.9715,z,1,0.6471,,[],[],[],[],[],[],[],216.9716,218.9716,218.9717,218.9718,[],[],[],[],[],[],[],,218.9719,218.9719,-0.134323695,-0.404517663,0,0,0,,0,35,35,57,1,3,TL,moredate,cursive,moredate_c.png,,,,,,
,,,,30758,001,2025-10-15_20h03.29.108,HW_LDT_1,2024.2.4,MacIntel,61.34969325,,,,,,,,,,,,,,,,,,,,,,218.9729,219.1725,219.1725,219.6718,,,,,,,,,,,,,,0.69,1,,,,,,,,,,,,,,z,,,,,,,,,,,,,,,,37,0,219.6722,220.3717,z,1,0.69,,[],[],[],[],[],[],[],220.3718,222.3715,222.3717,222.372,[],[],[],[],[],[],[],,222.372,222.3721,-0.134323695,-0.404517663,0,0,0,,0,36,36,51,1,3,TL,liretal,print,liretal_p.png,,,,,,
,,,,30758,001,2025-10-15_20h03.29.108,HW_LDT_1,2024.2.4,MacIntel,61.34969325,,,,,,,,,,,,,,,,,,,,,,222.3739,222.5723,222.5723,223.0714,,,,,,,,,,,,,,0.6654,0,,,,,,,,,,,,,,m,,,,,,,,,,,,,,,,38,0,223.0718,223.7381,z,0,0.6654,,[],[],[],[],[],[],[],223.7382,225.739,225.739,225.7391,[],[],[],[],[],[],[],,225.7392,225.7393,-0.134323695,-0.404517663,0,0,0,,0,37,37,153,1,3,word,STOLEN,cursive,stolen_c.png,,,,,,
,,,,30758,001,2025-10-15_20h03.29.108,HW_LDT_1,2024.2.4,MacIntel,61.34969325,,,,,,,,,,,,,,,,,,,,,,225.7404,225.939,225.939,226.4381,,,,,,,,,,,,,,0.8118,1,,,,,,,,,,,,,,m,,,,,,,,,,,,,,,,39,0,226.4384,227.2552,m,1,0.8118,,[],[],[],[],[],[],[],227.2553,229.2555,229.2556,229.2557,[],[],[],[],[],[],[],,229.2557,229.2557,-0.134323695,-0.404517663,0,0,0,,0,38,38,148,1,3,word,SALINE,cursive,saline_c.png,,,,,,
,,,,30758,001,2025-10-15_20h03.29.108,HW_LDT_1,2024.2.4,MacIntel,61.34969325,,,,,,,,,,,,,,,,,,,,,,229.2567,229.4611,229.4611,229.9556,,,,,,,,,,,,,,0.7642,1,,,,,,,,,,,,,,m,,,,,,,,,,,,,,,,40,0,229.956,230.7214,m,1,0.7642,,[],[],[],[],[],[],[],230.7215,232.7217,232.7217,232.7218,[],[],[],[],[],[],[],,232.7218,232.7219,-0.134323695,-0.404517663,0,0,0,,0,39,39,94,1,3,word,CLINICAL,print,clinical_p.png,,,,,,
,,,,30758,001,2025-10-15_20h03.29.108,HW_LDT_1,2024.2.4,MacIntel,61.34969325,,,,,,,,,,,,,,,,,,,,,,232.7235,232.9119,232.912,233.4212,,,,,,,,,,,,,,0.6497,0,,,,,,,,,,,,,,m,,,,,,,,,,,,,,,,41,0,233.4216,234.0716,z,0,0.6497,,[],[],[],[],[],[],[],234.0716,236.0713,236.0713,236.0715,[],[],[],[],[],[],[],,236.0715,236.0716,-0.134323695,-0.404517663,0,0,0,,0,40,40,144,1,3,word,RESIDENT,cursive,resident_c.png,,,,,,
,,,,30758,001,2025-10-15_20h03.29.108,HW_LDT_1,2024.2.4,MacIntel,61.34969325,,,,,,,,,,,,,,,,,,,,,,236.0725,236.2716,236.2717,236.7714,,,,,,,,,,,,,,1.2645,1,,,,,,,,,,,,,,z,,,,,,,,,,,,,,,,42,0,236.7718,238.0385,z,1,1.2645,,[],[],[],[],[],[],[],238.0385,240.0388,240.0389,240.039,[],[],[],[],[],[],[],,240.039,240.0392,-0.134323695,-0.404517663,0,0,0,,0,41,41,71,1,3,TL,sanile,cursive,sanile_c.png,,,,,,
,,,,30758,001,2025-10-15_20h03.29.108,HW_LDT_1,2024.2.4,MacIntel,61.34969325,,,,,,,,,,,,,,,,,,,,,,240.0402,240.2387,240.2388,240.739,,,,,,,,,,,,,,1.1071,1,,,,,,,,,,,,,,z,,,,,,,,,,,,,,,,43,0,240.74,241.8555,z,1,1.1071,,[],[],[],[],[],[],[],241.8556,243.8555,243.8555,243.8556,[],[],[],[],[],[],[],,243.8556,243.8557,-0.134323695,-0.404517663,0,0,0,,0,42,42,75,1,3,TL,sloten,cursive,sloten_c.png,,,,,,
,,,,30758,001,2025-10-15_20h03.29.108,HW_LDT_1,2024.2.4,MacIntel,61.34969325,,,,,,,,,,,,,,,,,,,,,,243.8568,244.055,244.055,244.5554,,,,,,,,,,,,,,1.0809,1,,,,,,,,,,,,,,m,,,,,,,,,,,,,,,,44,0,244.5558,245.6377,m,1,1.0809,,[],[],[],[],[],[],[],245.6378,247.6295,247.6295,247.6297,[],[],[],[],[],[],[],,247.6298,247.6298,-0.134323695,-0.404517663,0,0,0,,0,43,43,102,1,3,word,DENSITY,print,density_p.png,,,,,,
,,,,30758,001,2025-10-15_20h03.29.108,HW_LDT_1,2024.2.4,MacIntel,61.34969325,,,,,,,,,,,,,,,,,,,,,,247.631,247.8213,247.8213,248.3213,,,,,,,,,,,,,,1.0329,1,,,,,,,,,,,,,,z,,,,,,,,,,,,,,,,45,0,248.3217,249.3552,z,1,1.0329,,[],[],[],[],[],[],[],249.3553,251.3546,251.3547,251.3548,[],[],[],[],[],[],[],,251.3548,251.355,-0.134323695,-0.404517663,0,0,0,,0,44,44,49,1,3,TL,incidate,print,incidate_p.png,,,,,,
,,,,30758,001,2025-10-15_20h03.29.108,HW_LDT_1,2024.2.4,MacIntel,61.34969325,,,,,,,,,,,,,,,,,,,,,,251.3559,251.5554,251.5554,252.0552,,,,,,,,,,,,,,1.7587,1,,,,,,,,,,,,,,m,,,,,,,,,,,,,,,,46,0,252.0555,253.8212,m,1,1.7587,,[],[],[],[],[],[],[],253.8212,255.8213,255.8213,255.8214,[],[],[],[],[],[],[],,255.8215,255.8215,-0.134323695,-0.404517663,0,0,0,,0,45,45,84,1,3,word,BELOVED,cursive,beloved_c.png,,,,,,
,,,,30758,001,2025-10-15_20h03.29.108,HW_LDT_1,2024.2.4,MacIntel,61.34969325,,,,,,,,,,,,,,,,,,,,,,255.8228,256.0212,256.0214,256.5213,,,,,,,,,,,,,,0.8331,1,,,,,,,,,,,,,,m,,,,,,,,,,,,,,,,47,0,256.5216,257.3555,m,1,0.8331,,[],[],[],[],[],[],[],257.3555,259.3542,259.3543,259.3544,[],[],[],[],[],[],[],,259.3545,259.3546,-0.134323695,-0.404517663,0,0,0,,0,46,46,86,1,3,word,BESIDE,cursive,beside_c.png,,,,,,
,,,,30758,001,2025-10-15_20h03.29.108,HW_LDT_1,2024.2.4,MacIntel,61.34969325,,,,,,,,,,,,,,,,,,,,,,259.3557,259.5552,259.5552,260.0553,,,,,,,,,,,,,,0.8642,1,,,,,,,,,,,,,,z,,,,,,,,,,,,,,,,48,0,260.0557,260.9214,z,1,0.8642,,[],[],[],[],[],[],[],260.9214,262.9214,262.9214,262.9216,[],[],[],[],[],[],[],,262.9217,262.9217,-0.134323695,-0.404517663,0,0,0,,0,47,47,46,1,3,TL,distupe,print,distupe_p.png,,,,,,
,,,,30758,001,2025-10-15_20h03.29.108,HW_LDT_1,2024.2.4,MacIntel,61.34969325,,,,,,,,,,,,,,,,,,,,,,262.9227,263.1214,263.1214,263.6215,,,,,,,,,,,,,,0.787,1,,,,,,,,,,,,,,z,,,,,,,,,,,,,,,,49,1,263.6219,264.4093,z,1,0.787,,[],[],[],[],[],[],[],264.4094,266.405,266.4051,268.2215,[],[],[],[],[],[],[],z,268.2215,268.2216,-0.134323695,-0.404517663,0,0,0,,0,48,48,27,1,3,RL,recile,print,recile_p.png,1.8095,,,,,
,,,,30758,001,2025-10-15_20h03.29.108,HW_LDT_1,2024.2.4,MacIntel,61.34969325,,,,,,,,,,,,,,,,,,,,,,268.2225,268.4214,268.4214,268.9214,,,,,,,,,,,,,,0.9472,1,,,,,,,,,,,,,,z,,,,,,,,,,,,,,,,50,0,268.9219,269.8713,z,1,0.9472,,[],[],[],[],[],[],[],269.8713,271.8713,271.8713,271.8715,[],[],[],[],[],[],[],,271.8715,271.8716,-0.134323695,-0.404517663,0,0,0,,0,49,49,14,1,3,RL,lofase,cursive,lofase_c.png,,,,,,
,,,,30758,001,2025-10-15_20h03.29.108,HW_LDT_1,2024.2.4,MacIntel,61.34969325,,,,,,,,,,,,,,,,,,,,,,271.8727,272.0714,272.0714,272.5712,,,,,,,,,,,,,,0.6951,1,,,,,,,,,,,,,,z,,,,,,,,,,,,,,,,51,0,272.5716,273.2712,z,1,0.6951,,[],[],[],[],[],[],[],273.2713,275.2712,275.2712,275.2714,[],[],[],[],[],[],[],,275.2714,275.2715,-0.134323695,-0.404517663,0,0,0,,0,50,50,21,1,3,RL,potugar,print,potugar_p.png,,,,,,
,,,,30758,001,2025-10-15_20h03.29.108,HW_LDT_1,2024.2.4,MacIntel,61.34969325,,,,,,,,,,,,,,,,,,,,,,275.2723,275.4708,275.4708,275.9712,,,,,,,,,,,,,,0.777,1,,,,,,,,,,,,,,z,,,,,,,,,,,,,,,,52,0,275.9715,276.7551,z,1,0.777,,[],[],[],[],[],[],[],276.7552,278.7539,278.754,278.7541,[],[],[],[],[],[],[],,278.7542,278.7542,-0.134323695,-0.404517663,0,0,0,,0,51,51,39,1,3,TL,clicinal,print,clicinal_p.png,,,,,,
,,,,30758,001,2025-10-15_20h03.29.108,HW_LDT_1,2024.2.4,MacIntel,61.34969325,,,,,,,,,,,,,,,,,,,,,,278.7553,278.9545,278.9546,279.4549,,,,,,,,,,,,,,0.9645,1,,,,,,,,,,,,,,z,,,,,,,,,,,,,,,,53,0,279.4553,280.4208,z,1,0.9645,,[],[],[],[],[],[],[],280.4208,282.4216,282.4216,282.4217,[],[],[],[],[],[],[],,282.4217,282.4218,-0.134323695,-0.404517663,0,0,0,,0,52,52,74,1,3,TL,spemicen,print,spemicen_p.png,,,,,,
,,,,30758,001,2025-10-15_20h03.29.108,HW_LDT_1,2024.2.4,MacIntel,61.34969325,,,,,,,,,,,,,,,,,,,,,,282.4228,282.6213,282.6213,283.1213,,,,,,,,,,,,,,0.8326,1,,,,,,,,,,,,,,z,,,,,,,,,,,,,,,,54,0,283.1216,283.9549,z,1,0.8326,,[],[],[],[],[],[],[],283.955,285.9541,285.9541,285.9542,[],[],[],[],[],[],[],,285.9542,285.9544,-0.134323695,-0.404517663,0,0,0,,0,53,53,70,1,3,TL,remuse,cursive,remuse_c.png,,,,,,
,,,,30758,001,2025-10-15_20h03.29.108,HW_LDT_1,2024.2.4,MacIntel,61.34969325,,,,,,,,,,,,,,,,,,,,,,285.9554,286.1548,286.1548,286.6546,,,,,,,,,,,,,,3.8413,1,,,,,,,,,,,,,,z,,,,,,,,,,,,,,,,55,0,286.6551,290.5037,z,1,3.8413,,[],[],[],[],[],[],[],290.5038,292.5048,292.5048,292.5049,[],[],[],[],[],[],[],,292.5049,292.5051,-0.134323695,-0.404517663,0,0,0,,0,54,54,6,1,3,RL,cenesony,cursive,cenesony_c.png,,,,,,
,,,,30758,001,2025-10-15_20h03.29.108,HW_LDT_1,2024.2.4,MacIntel,61.34969325,,,,,,,,,,,,,,,,,,,,,,292.5062,292.7047,292.7048,293.2047,,,,,,,,,,,,,,1.693,1,,,,,,,,,,,,,,m,,,,,,,,,,,,,,,,56,1,293.2052,294.9038,m,1,1.693,,[],[],[],[],[],[],[],294.9038,296.9047,296.9047,298.4546,[],[],[],[],[],[],[],z,298.4547,298.4548,-0.134323695,-0.404517663,0,0,0,,0,55,55,89,1,3,word,CAPACITY,cursive,capacity_c.png,1.5453,,,,,
,,,,30758,001,2025-10-15_20h03.29.108,HW_LDT_1,2024.2.4,MacIntel,61.34969325,,,,,,,,,,,,,,,,,,,,,,298.4558,298.6537,298.6537,299.1541,,,,,,,,,,,,,,2.1955,1,,,,,,,,,,,,,,m,,,,,,,,,,,,,,,,57,0,299.1546,301.355,m,1,2.1955,,[],[],[],[],[],[],[],301.3552,303.3546,303.3546,303.3547,[],[],[],[],[],[],[],,303.3548,303.3548,-0.134323695,-0.404517663,0,0,0,,0,56,56,154,1,3,word,STORAGE,cursive,storage_c.png,,,,,,
,,,,30758,001,2025-10-15_20h03.29.108,HW_LDT_1,2024.2.4,MacIntel,61.34969325,,,,,,,,,,,,,,,,,,,,,,303.3559,303.5539,303.554,304.0546,,,,,,,,,,,,,,1.0038,1,,,,,,,,,,,,,,m,,,,,,,,,,,,,,,,58,0,304.0549,305.0594,m,1,1.0038,,[],[],[],[],[],[],[],305.0595,307.0545,307.0546,307.0547,[],[],[],[],[],[],[],,307.0548,307.0548,-0.134323695,-0.404517663,0,0,0,,0,57,57,101,1,3,word,DELICATE,print,delicate_p.png,,,,,,
,,,,30758,001,2025-10-15_20h03.29.108,HW_LDT_1,2024.2.4,MacIntel,61.34969325,,,,,,,,,,,,,,,,,,,,,,307.0563,307.2545,307.2546,307.7546,,,,,,,,,,,,,,0.7481,1,,,,,,,,,,,,,,m,,,,,,,,,,,,,,,,59,0,307.755,308.5042,m,1,0.7481,,[],[],[],[],[],[],[],308.5042,310.5045,310.5045,310.5046,[],[],[],[],[],[],[],,310.5047,310.5048,-0.134323695,-0.404517663,0,0,0,,0,58,58,138,1,3,word,REFUSAL,print,refusal_p.png,,,,,,
,,,,30758,001,2025-10-15_20h03.29.108,HW_LDT_1,2024.2.4,MacIntel,61.34969325,,,,,,,,,,,,,,,,,,,,,,310.5058,310.7047,310.7048,311.2048,,,,,,,,,,,,,,1.2099,1,,,,,,,,,,,,,,m,,,,,,,,,,,,,,,,60,0,311.2052,312.421,m,1,1.2099,,[],[],[],[],[],[],[],312.4211,314.4208,314.4208,314.421,[],[],[],[],[],[],[],,314.421,314.421,-0.134323695,-0.404517663,0,0,0,,0,59,59,80,1,3,word,ACADEMY,print,academy_p.png,,,,,,
,,,,30758,001,2025-10-15_20h03.29.108,HW_LDT_1,2024.2.4,MacIntel,61.34969325,,,,,,,,,,,,,,,,,,,,,,314.4223,314.6206,314.6207,315.1211,,,,,,,,,,,,,,2.1126,1,,,,,,,,,,,,,,m,,,,,,,,,,,,,,,,61,1,315.1215,317.2368,m,1,2.1126,,[],[],[],[],[],[],[],317.2369,319.2373,319.2373,321.5702,[],[],[],[],[],[],[],z,321.5703,321.5703,-0.134323695,-0.404517663,0,0,0,,0,60,60,93,1,3,word,CEREMONY,cursive,ceremony_c.png,2.3312,,,,,
,,,,30758,001,2025-10-15_20h03.29.108,HW_LDT_1,2024.2.4,MacIntel,61.34969325,,,,,,,,,,,,,,,,,,,,,,321.571,321.7707,321.7707,322.271,,,,,,,,,,,,,,2.5261,1,,,,,,,,,,,,,,m,,,,,,,,,,,,,,,,62,1,322.2713,324.8033,m,1,2.5261,,[],[],[],[],[],[],[],324.8034,326.8043,326.8044,328.4034,[],[],[],[],[],[],[],m,328.4034,328.4035,-0.134323695,-0.404517663,0,0,0,,0,61,61,103,1,3,word,DISPUTE,print,dispute_p.png,1.5961,,,,,
,,,,30758,001,2025-10-15_20h03.29.108,HW_LDT_1,2024.2.4,MacIntel,61.34969325,,,,,,,,,,,,,,,,,,,,,,328.4041,328.6042,328.6042,329.1042,,,,,,,,,,,,,,0.8429,1,,,,,,,,,,,,,,z,,,,,,,,,,,,,,,,63,0,329.1045,329.9539,z,1,0.8429,,[],[],[],[],[],[],[],329.9539,331.9542,331.9542,331.9543,[],[],[],[],[],[],[],,331.9543,331.9544,-0.134323695,-0.404517663,0,0,0,,0,62,62,25,1,3,RL,retupar,print,retupar_p.png,,,,,,
,,,,30758,001,2025-10-15_20h03.29.108,HW_LDT_1,2024.2.4,MacIntel,61.34969325,,,,,,,,,,,,,,,,,,,,,,331.9556,332.1542,332.1543,332.6536,,,,,,,,,,,,,,1.0793,0,,,,,,,,,,,,,,m,,,,,,,,,,,,,,,,64,0,332.6539,333.7374,z,0,1.0793,,[],[],[],[],[],[],[],333.7374,335.7375,335.7376,335.7377,[],[],[],[],[],[],[],,335.7377,335.7378,-0.134323695,-0.404517663,0,0,0,,0,63,63,126,1,3,word,OPTIMAL,cursive,optimal_c.png,,,,,,
,,,,30758,001,2025-10-15_20h03.29.108,HW_LDT_1,2024.2.4,MacIntel,61.34969325,,,,,,,,,,,,,,,,,,,,,,335.7388,335.9374,335.9376,336.4366,,,,,,,,,,,,,,1.8147,1,,,,,,,,,,,,,,m,,,,,,,,,,,,,,,,65,0,336.4369,338.2535,m,1,1.8147,,[],[],[],[],[],[],[],338.2536,340.254,340.2541,340.2543,[],[],[],[],[],[],[],,340.2543,340.2543,-0.134323695,-0.404517663,0,0,0,,0,64,64,119,1,3,word,MEMORY,print,memory_p.png,,,,,,
,,,,30758,001,2025-10-15_20h03.29.108,HW_LDT_1,2024.2.4,MacIntel,61.34969325,,,,,,,,,,,,,,,,,,,,,,340.2557,340.454,340.454,340.9418,,,,,,,,,,,,,,1.4736,1,,,,,,,,,,,,,,z,,,,,,,,,,,,,,,,66,0,340.9423,342.4199,z,1,1.4736,,[],[],[],[],[],[],[],342.4199,344.4199,344.42,344.4201,[],[],[],[],[],[],[],,344.4201,344.4201,-0.134323695,-0.404517663,0,0,0,,0,65,65,34,1,3,TL,aminal,cursive,aminal_c.png,,,,,,
,,,,30758,001,2025-10-15_20h03.29.108,HW_LDT_1,2024.2.4,MacIntel,61.34969325,,,,,,,,,,,,,,,,,,,,,,344.4212,344.6202,344.6202,345.1207,,,,,,,,,,,,,,1.4258,0,,,,,,,,,,,,,,m,,,,,,,,,,,,,,,,67,0,345.1211,346.5529,z,0,1.4258,,[],[],[],[],[],[],[],346.553,348.554,348.554,348.5542,[],[],[],[],[],[],[],,348.5542,348.5543,-0.134323695,-0.404517663,0,0,0,,0,66,66,120,1,3,word,MILITARY,cursive,military_c.png,,,,,,
,,,,30758,001,2025-10-15_20h03.29.108,HW_LDT_1,2024.2.4,MacIntel,61.34969325,,,,,,,,,,,,,,,,,,,,,,348.5554,348.754,348.754,349.2537,,,,,,,,,,,,,,1.9282,1,,,,,,,,,,,,,,m,,,,,,,,,,,,,,,,68,0,349.254,351.1873,m,1,1.9282,,[],[],[],[],[],[],[],351.1873,353.1865,353.1865,353.1865,[],[],[],[],[],[],[],,353.1866,353.1866,-0.134323695,-0.404517663,0,0,0,,0,67,67,118,1,3,word,MEDICINE,print,medicine_p.png,,,,,,
,,,,30758,001,2025-10-15_20h03.29.108,HW_LDT_1,2024.2.4,MacIntel,61.34969325,,,,,,,,,,,,,,,,,,,,,,353.1874,353.3872,353.3873,353.8872,,,,,,,,,,,,,,1.181,1,,,,,,,,,,,,,,z,,,,,,,,,,,,,,,,69,0,353.8876,355.0694,z,1,1.181,,[],[],[],[],[],[],[],355.0696,357.0622,357.0622,357.0622,[],[],[],[],[],[],[],,357.0622,357.0623,-0.134323695,-0.404517663,0,0,0,,0,68,68,45,1,3,TL,dentisy,print,dentisy_p.png,,,,,,
,,,,30758,001,2025-10-15_20h03.29.108,HW_LDT_1,2024.2.4,MacIntel,61.34969325,,,,,,,,,,,,,,,,,,,,,,357.0633,357.2531,357.2532,357.7539,,,,,,,,,,,,,,0.71,1,,,,,,,,,,,,,,z,,,,,,,,,,,,,,,,70,0,357.7542,358.4699,z,1,0.71,,[],[],[],[],[],[],[],358.4699,360.4705,360.4706,360.4707,[],[],[],[],[],[],[],,360.4707,360.4708,-0.134323695,-0.404517663,0,0,0,,0,69,69,42,1,3,TL,detabe,cursive,detabe_c.png,,,,,,
,,,,30758,001,2025-10-15_20h03.29.108,HW_LDT_1,2024.2.4,MacIntel,61.34969325,,,,,,,,,,,,,,,,,,,,,,360.472,360.6705,360.6705,361.1698,,,,,,,,,,,,,,0.7779,0,,,,,,,,,,,,,,m,,,,,,,,,,,,,,,,71,0,361.1702,361.9533,z,0,0.7779,,[],[],[],[],[],[],[],361.9534,363.9537,363.9537,363.9538,[],[],[],[],[],[],[],,363.954,363.954,-0.134323695,-0.404517663,0,0,0,,0,70,70,123,1,3,word,MODERATE,cursive,moderate_c.png,,,,,,
,,,,30758,001,2025-10-15_20h03.29.108,HW_LDT_1,2024.2.4,MacIntel,61.34969325,,,,,,,,,,,,,,,,,,,,,,363.955,364.1532,364.1532,364.6538,,,,,,,,,,,,,,1.8616,1,,,,,,,,,,,,,,z,,,,,,,,,,,,,,,,72,0,364.6542,366.5203,z,1,1.8616,,[],[],[],[],[],[],[],366.5204,368.5204,368.5204,368.5205,[],[],[],[],[],[],[],,368.5205,368.5206,-0.134323695,-0.404517663,0,0,0,,0,71,71,19,1,3,RL,opcifal,cursive,opcifal_c.png,,,,,,
,,,,30758,001,2025-10-15_20h03.29.108,HW_LDT_1,2024.2.4,MacIntel,61.34969325,,,,,,,,,,,,,,,,,,,,,,368.5217,368.7193,368.7193,369.2193,,,,,,,,,,,,,,1.7656,0,,,,,,,,,,,,,,m,,,,,,,,,,,,,,,,73,0,369.2197,370.9868,z,0,1.7656,,[],[],[],[],[],[],[],370.987,372.987,372.9871,372.9872,[],[],[],[],[],[],[],,372.9873,372.9873,-0.134323695,-0.404517663,0,0,0,,0,72,72,109,1,3,word,GRATEFUL,cursive,grateful_c.png,,,,,,
,,,,30758,001,2025-10-15_20h03.29.108,HW_LDT_1,2024.2.4,MacIntel,61.34969325,,,,,,,,,,,,,,,,,,,,,,372.9883,373.1871,373.1871,373.6872,,,,,,,,,,,,,,0.7405,1,,,,,,,,,,,,,,z,,,,,,,,,,,,,,,,74,0,373.6876,374.4289,z,1,0.7405,,[],[],[],[],[],[],[],374.4289,376.4276,376.4276,376.4277,[],[],[],[],[],[],[],,376.4278,376.4278,-0.134323695,-0.404517663,0,0,0,,0,73,73,24,1,3,RL,quafidy,print,quafidy_p.png,,,,,,
,,,,30758,001,2025-10-15_20h03.29.108,HW_LDT_1,2024.2.4,MacIntel,61.34969325,,,,,,,,,,,,,,,,,,,,,,376.4288,376.6315,376.6317,377.12,,,,,,,,,,,,,,0.5872,0,,,,,,,,,,,,,,m,,,,,,,,,,,,,,,,75,0,377.1203,377.7085,z,0,0.5872,,[],[],[],[],[],[],[],377.7086,379.7035,379.7035,379.704,[],[],[],[],[],[],[],,379.7041,379.7043,-0.134323695,-0.404517663,0,0,0,,0,74,74,114,1,3,word,LOCATE,cursive,locate_c.png,,,,,,
,,,,30758,001,2025-10-15_20h03.29.108,HW_LDT_1,2024.2.4,MacIntel,61.34969325,,,,,,,,,,,,,,,,,,,,,,379.7058,379.9036,379.9037,380.4037,,,,,,,,,,,,,,0.581,0,,,,,,,,,,,,,,m,,,,,,,,,,,,,,,,76,0,380.4047,380.9875,z,0,0.581,,[],[],[],[],[],[],[],380.9876,382.987,382.9871,382.9872,[],[],[],[],[],[],[],,382.9873,382.9873,-0.134323695,-0.404517663,0,0,0,,0,75,75,99,1,3,word,DEBATE,cursive,debate_c.png,,,,,,
,,,,30758,001,2025-10-15_20h03.29.108,HW_LDT_1,2024.2.4,MacIntel,61.34969325,,,,,,,,,,,,,,,,,,,,,,382.9894,383.1871,383.1871,383.6867,,,,,,,,,,,,,,1.7943,1,,,,,,,,,,,,,,z,,,,,,,,,,,,,,,,77,1,383.687,385.4868,z,1,1.7943,,[],[],[],[],[],[],[],385.487,387.4859,387.4859,388.8361,[],[],[],[],[],[],[],z,388.8363,388.8363,-0.134323695,-0.404517663,0,0,0,,0,76,76,77,1,3,TL,vadility,cursive,vadility_c.png,1.3496,,,,,
,,,,30758,001,2025-10-15_20h03.29.108,HW_LDT_1,2024.2.4,MacIntel,61.34969325,,,,,,,,,,,,,,,,,,,,,,388.8374,389.0361,389.0361,389.5367,,,,,,,,,,,,,,0.6782,1,,,,,,,,,,,,,,z,,,,,,,,,,,,,,,,78,1,389.5373,390.2192,z,1,0.6782,,[],[],[],[],[],[],[],390.2193,392.219,392.219,393.3367,[],[],[],[],[],[],[],z,393.3369,393.3369,-0.134323695,-0.404517663,0,0,0,,0,77,77,67,1,3,TL,retome,print,retome_p.png,1.1141,,,,,
,,,,30758,001,2025-10-15_20h03.29.108,HW_LDT_1,2024.2.4,MacIntel,61.34969325,,,,,,,,,,,,,,,,,,,,,,393.3383,393.5367,393.5367,394.0362,,,,,,,,,,,,,,0.9478,1,,,,,,,,,,,,,,m,,,,,,,,,,,,,,,,79,0,394.0368,394.9857,m,1,0.9478,,[],[],[],[],[],[],[],394.9858,396.9856,396.9857,396.9857,[],[],[],[],[],[],[],,396.9858,396.9859,-0.134323695,-0.404517663,0,0,0,,0,78,78,122,1,3,word,MOBILE,cursive,mobile_c.png,,,,,,
,,,,30758,001,2025-10-15_20h03.29.108,HW_LDT_1,2024.2.4,MacIntel,61.34969325,,,,,,,,,,,,,,,,,,,,,,396.9868,397.1856,397.1856,397.6857,,,,,,,,,,,,,,0.6467,1,,,,,,,,,,,,,,z,,,,,,,,,,,,,,,,80,0,397.6862,398.3359,z,1,0.6467,,[],[],[],[],[],[],[],398.336,400.3367,400.3367,400.3369,[],[],[],[],[],[],[],,400.3369,446.5028,-0.134323695,-0.404517663,0,0,0,space,0,79,79,61,1,3,TL,pocily,print,pocily_p.png,,,46.1341,,,
,,,,30758,001,2025-10-15_20h03.29.108,HW_LDT_1,2024.2.4,MacIntel,61.34969325,,,,,,,,,,,,,,,,,,,,,,446.5039,446.7026,446.7027,447.2018,,,,,,,,,,,,,,1.5266,0,,,,,,,,,,,,,,m,,,,,,,,,,,,,,,,81,0,447.2021,448.736,z,0,1.5266,,[],[],[],[],[],[],[],448.7361,450.7241,450.7242,450.7243,[],[],[],[],[],[],[],,450.7244,450.7248,-0.134323695,-0.404517663,0,0,0,,0,80,80,159,1,3,word,VETERAN,cursive,veteran_c.png,,,,,,
,,,,30758,001,2025-10-15_20h03.29.108,HW_LDT_1,2024.2.4,MacIntel,61.34969325,,,,,,,,,,,,,,,,,,,,,,450.7258,450.9199,450.9199,451.4193,,,,,,,,,,,,,,1.243,1,,,,,,,,,,,,,,m,,,,,,,,,,,,,,,,82,1,451.4197,452.6683,m,1,1.243,,[],[],[],[],[],[],[],452.6684,454.6685,454.6685,456.8854,[],[],[],[],[],[],[],z,456.8855,456.8855,-0.134323695,-0.404517663,0,0,0,,0,81,81,141,1,3,word,RELIGION,print,religion_p.png,2.216,,,,,
,,,,30758,001,2025-10-15_20h03.29.108,HW_LDT_1,2024.2.4,MacIntel,61.34969325,,,,,,,,,,,,,,,,,,,,,,456.8861,457.0913,457.0913,457.5858,,,,,,,,,,,,,,2.2647,1,,,,,,,,,,,,,,m,,,,,,,,,,,,,,,,83,0,457.5861,459.8517,m,1,2.2647,,[],[],[],[],[],[],[],459.8517,461.852,461.8521,461.8522,[],[],[],[],[],[],[],,461.8522,461.8523,-0.134323695,-0.404517663,0,0,0,,0,82,82,158,1,3,word,VELOCITY,cursive,velocity_c.png,,,,,,
,,,,30758,001,2025-10-15_20h03.29.108,HW_LDT_1,2024.2.4,MacIntel,61.34969325,,,,,,,,,,,,,,,,,,,,,,461.8532,462.0514,462.0514,462.5524,,,,,,,,,,,,,,1.2113,1,,,,,,,,,,,,,,z,,,,,,,,,,,,,,,,84,0,462.5527,463.769,z,1,1.2113,,[],[],[],[],[],[],[],463.7691,465.7682,465.7682,465.7683,[],[],[],[],[],[],[],,465.7684,465.7684,-0.134323695,-0.404517663,0,0,0,,0,83,83,18,1,3,RL,onegator,print,onegator_p.png,,,,,,
,,,,30758,001,2025-10-15_20h03.29.108,HW_LDT_1,2024.2.4,MacIntel,61.34969325,,,,,,,,,,,,,,,,,,,,,,465.7694,465.9617,465.9617,466.4691,,,,,,,,,,,,,,0.8199,1,,,,,,,,,,,,,,z,,,,,,,,,,,,,,,,85,0,466.4694,467.2904,z,1,0.8199,,[],[],[],[],[],[],[],467.2905,469.2849,469.2849,469.2849,[],[],[],[],[],[],[],,469.285,469.2851,-0.134323695,-0.404517663,0,0,0,,0,84,84,1,1,3,RL,bewoted,cursive,bewoted_c.png,,,,,,
,,,,30758,001,2025-10-15_20h03.29.108,HW_LDT_1,2024.2.4,MacIntel,61.34969325,,,,,,,,,,,,,,,,,,,,,,469.2858,469.4855,469.4855,469.9856,,,,,,,,,,,,,,0.8963,0,,,,,,,,,,,,,,m,,,,,,,,,,,,,,,,86,0,469.9859,470.8847,z,0,0.8963,,[],[],[],[],[],[],[],470.8847,472.8847,472.8848,472.8848,[],[],[],[],[],[],[],,472.8849,472.8849,-0.134323695,-0.404517663,0,0,0,,0,85,85,149,1,3,word,SENATOR,cursive,senator_c.png,,,,,,
,,,,30758,001,2025-10-15_20h03.29.108,HW_LDT_1,2024.2.4,MacIntel,61.34969325,,,,,,,,,,,,,,,,,,,,,,472.886,473.0856,473.0856,473.5852,,,,,,,,,,,,,,0.8598,1,,,,,,,,,,,,,,m,,,,,,,,,,,,,,,,87,0,473.5855,474.4524,m,1,0.8598,,[],[],[],[],[],[],[],474.4524,476.4521,476.4523,476.4524,[],[],[],[],[],[],[],,476.4524,476.4524,-0.134323695,-0.404517663,0,0,0,,0,86,86,113,1,3,word,LITERAL,print,literal_p.png,,,,,,
,,,,30758,001,2025-10-15_20h03.29.108,HW_LDT_1,2024.2.4,MacIntel,61.34969325,,,,,,,,,,,,,,,,,,,,,,476.4535,476.6522,476.6523,477.1521,,,,,,,,,,,,,,0.6959,1,,,,,,,,,,,,,,z,,,,,,,,,,,,,,,,88,0,477.1525,477.8521,z,1,0.6959,,[],[],[],[],[],[],[],477.8521,479.8516,479.8517,479.8519,[],[],[],[],[],[],[],,479.8519,479.8519,-0.134323695,-0.404517663,0,0,0,,0,87,87,62,1,3,TL,prodive,print,prodive_p.png,,,,,,
,,,,30758,001,2025-10-15_20h03.29.108,HW_LDT_1,2024.2.4,MacIntel,61.34969325,,,,,,,,,,,,,,,,,,,,,,479.8529,480.0521,480.0522,480.5511,,,,,,,,,,,,,,0.957,1,,,,,,,,,,,,,,z,,,,,,,,,,,,,,,,89,0,480.5515,481.5189,z,1,0.957,,[],[],[],[],[],[],[],481.519,483.5189,483.5189,483.519,[],[],[],[],[],[],[],,483.5191,483.5191,-0.134323695,-0.404517663,0,0,0,,0,88,88,65,1,3,TL,resufal,print,resufal_p.png,,,,,,
,,,,30758,001,2025-10-15_20h03.29.108,HW_LDT_1,2024.2.4,MacIntel,61.34969325,,,,,,,,,,,,,,,,,,,,,,483.5202,483.7187,483.7187,484.2181,,,,,,,,,,,,,,0.6796,0,,,,,,,,,,,,,,m,,,,,,,,,,,,,,,,90,1,484.2184,484.902,z,0,0.6796,,[],[],[],[],[],[],[],484.902,486.902,486.902,488.4685,[],[],[],[],[],[],[],z,488.4685,488.4686,-0.134323695,-0.404517663,0,0,0,,0,89,89,121,1,3,word,MISTAKE,cursive,mistake_c.png,1.5656,,,,,
,,,,30758,001,2025-10-15_20h03.29.108,HW_LDT_1,2024.2.4,MacIntel,61.34969325,,,,,,,,,,,,,,,,,,,,,,488.4692,488.6686,488.6686,489.1685,,,,,,,,,,,,,,3.5966,1,,,,,,,,,,,,,,z,,,,,,,,,,,,,,,,91,0,489.1688,492.7686,z,1,3.5966,,[],[],[],[],[],[],[],492.7687,494.7686,494.7687,494.7687,[],[],[],[],[],[],[],,494.7687,494.7689,-0.134323695,-0.404517663,0,0,0,,0,90,90,36,1,3,TL,carema,cursive,carema_c.png,,,,,,
,,,,30758,001,2025-10-15_20h03.29.108,HW_LDT_1,2024.2.4,MacIntel,61.34969325,,,,,,,,,,,,,,,,,,,,,,494.7699,494.9687,494.9687,495.4683,,,,,,,,,,,,,,0.6932,1,,,,,,,,,,,,,,z,,,,,,,,,,,,,,,,92,0,495.4688,496.1686,z,1,0.6932,,[],[],[],[],[],[],[],496.1687,498.1686,498.1686,498.1687,[],[],[],[],[],[],[],,498.1687,498.1689,-0.134323695,-0.404517663,0,0,0,,0,91,91,56,1,3,TL,meromy,print,meromy_p.png,,,,,,
,,,,30758,001,2025-10-15_20h03.29.108,HW_LDT_1,2024.2.4,MacIntel,61.34969325,,,,,,,,,,,,,,,,,,,,,,498.1699,498.3681,498.3681,498.8685,,,,,,,,,,,,,,1.48,1,,,,,,,,,,,,,,m,,,,,,,,,,,,,,,,93,0,498.8689,500.3519,m,1,1.48,,[],[],[],[],[],[],[],500.3519,502.3518,502.3519,502.352,[],[],[],[],[],[],[],,502.3521,502.3521,-0.134323695,-0.404517663,0,0,0,,0,92,92,152,1,3,word,SPECIMEN,print,specimen_p.png,,,,,,
,,,,30758,001,2025-10-15_20h03.29.108,HW_LDT_1,2024.2.4,MacIntel,61.34969325,,,,,,,,,,,,,,,,,,,,,,502.3531,502.5514,502.5514,503.0518,,,,,,,,,,,,,,4.0075,1,,,,,,,,,,,,,,m,,,,,,,,,,,,,,,,94,0,503.0523,507.0683,m,1,4.0075,,[],[],[],[],[],[],[],507.0685,509.0684,509.0685,509.0686,[],[],[],[],[],[],[],,509.0686,509.0687,-0.134323695,-0.404517663,0,0,0,,0,93,93,147,1,3,word,ROMANTIC,cursive,romantic_c.png,,,,,,
,,,,30758,001,2025-10-15_20h03.29.108,HW_LDT_1,2024.2.4,MacIntel,61.34969325,,,,,,,,,,,,,,,,,,,,,,509.0697,509.2683,509.2683,509.7685,,,,,,,,,,,,,,0.753,1,,,,,,,,,,,,,,z,,,,,,,,,,,,,,,,95,0,509.7689,510.5231,z,1,0.753,,[],[],[],[],[],[],[],510.5232,512.518,512.518,512.5186,[],[],[],[],[],[],[],,512.5187,512.5189,-0.134323695,-0.404517663,0,0,0,,0,94,94,17,1,3,RL,motide,cursive,motide_c.png,,,,,,
,,,,30758,001,2025-10-15_20h03.29.108,HW_LDT_1,2024.2.4,MacIntel,61.34969325,,,,,,,,,,,,,,,,,,,,,,512.5206,512.7182,512.7183,513.2173,,,,,,,,,,,,,,0.9779,1,,,,,,,,,,,,,,z,,,,,,,,,,,,,,,,96,0,513.2177,514.2018,z,1,0.9779,,[],[],[],[],[],[],[],514.2018,516.2011,516.2012,516.2013,[],[],[],[],[],[],[],,516.2013,516.2013,-0.134323695,-0.404517663,0,0,0,,0,95,95,29,1,3,RL,selamor,cursive,selamor_c.png,,,,,,
,,,,30758,001,2025-10-15_20h03.29.108,HW_LDT_1,2024.2.4,MacIntel,61.34969325,,,,,,,,,,,,,,,,,,,,,,516.202,516.4016,516.4016,516.9017,,,,,,,,,,,,,,1.2927,1,,,,,,,,,,,,,,z,,,,,,,,,,,,,,,,97,1,516.902,518.2008,z,1,1.2927,,[],[],[],[],[],[],[],518.2008,520.2015,520.2016,521.2349,[],[],[],[],[],[],[],z,521.2349,521.2349,-0.134323695,-0.404517663,0,0,0,,0,96,96,52,1,3,TL,locigal,cursive,locigal_c.png,1.0275,,,,,
,,,,30758,001,2025-10-15_20h03.29.108,HW_LDT_1,2024.2.4,MacIntel,61.34969325,,,,,,,,,,,,,,,,,,,,,,521.2357,521.4349,521.435,521.9349,,,,,,,,,,,,,,1.4616,1,,,,,,,,,,,,,,z,,,,,,,,,,,,,,,,98,0,521.9351,523.4015,z,1,1.4616,,[],[],[],[],[],[],[],523.4015,525.4006,525.4007,525.4009,[],[],[],[],[],[],[],,525.4009,525.4009,-0.134323695,-0.404517663,0,0,0,,0,97,97,31,1,3,RL,trilude,print,trilude_p.png,,,,,,
,,,,30758,001,2025-10-15_20h03.29.108,HW_LDT_1,2024.2.4,MacIntel,61.34969325,,,,,,,,,,,,,,,,,,,,,,525.4019,525.6015,525.6015,526.1014,,,,,,,,,,,,,,0.6863,1,,,,,,,,,,,,,,m,,,,,,,,,,,,,,,,99,0,526.1018,526.789,m,1,0.6863,,[],[],[],[],[],[],[],526.7891,528.7847,528.7848,528.785,[],[],[],[],[],[],[],,528.785,528.785,-0.134323695,-0.404517663,0,0,0,,0,98,98,129,1,3,word,PARENT,print,parent_p.png,,,,,,
,,,,30758,001,2025-10-15_20h03.29.108,HW_LDT_1,2024.2.4,MacIntel,61.34969325,,,,,,,,,,,,,,,,,,,,,,528.7861,528.984,528.984,529.4836,,,,,,,,,,,,,,0.8113,1,,,,,,,,,,,,,,m,,,,,,,,,,,,,,,,100,0,529.4839,530.3014,m,1,0.8113,,[],[],[],[],[],[],[],530.3015,532.3014,532.3014,532.3016,[],[],[],[],[],[],[],,532.3016,532.3017,-0.134323695,-0.404517663,0,0,0,,0,99,99,134,1,3,word,QUALIFY,print,qualify_p.png,,,,,,
,,,,30758,001,2025-10-15_20h03.29.108,HW_LDT_1,2024.2.4,MacIntel,61.34969325,,,,,,,,,,,,,,,,,,,,,,532.3028,532.5013,532.5013,533.0013,,,,,,,,,,,,,,0.6254,1,,,,,,,,,,,,,,m,,,,,,,,,,,,,,,,101,0,533.0017,533.6337,m,1,0.6254,,[],[],[],[],[],[],[],533.6338,535.6338,535.6338,535.6339,[],[],[],[],[],[],[],,535.634,535.6341,-0.134323695,-0.404517663,0,0,0,,0,100,100,85,1,3,word,BENEFIT,print,benefit_p.png,,,,,,
,,,,30758,001,2025-10-15_20h03.29.108,HW_LDT_1,2024.2.4,MacIntel,61.34969325,,,,,,,,,,,,,,,,,,,,,,535.6351,535.8338,535.8338,536.3338,,,,,,,,,,,,,,0.8995,1,,,,,,,,,,,,,,z,,,,,,,,,,,,,,,,102,0,536.3342,537.234,z,1,0.8995,,[],[],[],[],[],[],[],537.2341,539.2336,539.2337,539.2338,[],[],[],[],[],[],[],,539.2338,539.2339,-0.134323695,-0.404517663,0,0,0,,0,101,101,32,1,3,TL,adacemy,print,adacemy_p.png,,,,,,
,,,,30758,001,2025-10-15_20h03.29.108,HW_LDT_1,2024.2.4,MacIntel,61.34969325,,,,,,,,,,,,,,,,,,,,,,539.2346,539.4248,539.4248,539.9337,,,,,,,,,,,,,,0.9911,0,,,,,,,,,,,,,,m,,,,,,,,,,,,,,,,103,0,539.9342,540.9339,z,0,0.9911,,[],[],[],[],[],[],[],540.934,542.9337,542.9337,542.9339,[],[],[],[],[],[],[],,542.9339,542.9339,-0.134323695,-0.404517663,0,0,0,,0,102,102,88,1,3,word,CAMERA,cursive,camera_c.png,,,,,,
,,,,30758,001,2025-10-15_20h03.29.108,HW_LDT_1,2024.2.4,MacIntel,61.34969325,,,,,,,,,,,,,,,,,,,,,,542.9349,543.1338,543.1339,543.6337,,,,,,,,,,,,,,1.16,1,,,,,,,,,,,,,,m,,,,,,,,,,,,,,,,104,0,543.6341,544.8011,m,1,1.16,,[],[],[],[],[],[],[],544.8012,546.8013,546.8013,546.8014,[],[],[],[],[],[],[],,546.8015,546.8016,-0.134323695,-0.404517663,0,0,0,,0,103,103,127,1,3,word,ORIGINAL,cursive,original_c.png,,,,,,
,,,,30758,001,2025-10-15_20h03.29.108,HW_LDT_1,2024.2.4,MacIntel,61.34969325,,,,,,,,,,,,,,,,,,,,,,546.8026,547.0013,547.0013,547.5004,,,,,,,,,,,,,,0.7326,1,,,,,,,,,,,,,,m,,,,,,,,,,,,,,,,105,0,547.5008,548.2339,m,1,0.7326,,[],[],[],[],[],[],[],548.2339,550.2336,550.2336,550.2338,[],[],[],[],[],[],[],,550.2338,550.2339,-0.134323695,-0.404517663,0,0,0,,0,104,104,139,1,3,word,REGULAR,print,regular_p.png,,,,,,
,,,,30758,001,2025-10-15_20h03.29.108,HW_LDT_1,2024.2.4,MacIntel,61.34969325,,,,,,,,,,,,,,,,,,,,,,550.2346,550.4337,550.4338,550.9345,,,,,,,,,,,,,,0.8789,1,,,,,,,,,,,,,,m,,,,,,,,,,,,,,,,106,0,550.9348,551.8177,m,1,0.8789,,[],[],[],[],[],[],[],551.8177,553.8178,553.8178,553.818,[],[],[],[],[],[],[],,553.8181,553.8182,-0.134323695,-0.404517663,0,0,0,,0,105,105,105,1,3,word,EDITOR,print,editor_p.png,,,,,,
,,,,30758,001,2025-10-15_20h03.29.108,HW_LDT_1,2024.2.4,MacIntel,61.34969325,,,,,,,,,,,,,,,,,,,,,,553.8192,554.0173,554.0173,554.5258,,,,,,,,,,,,,,1.8902,1,,,,,,,,,,,,,,m,,,,,,,,,,,,,,,,107,0,554.5261,556.417,m,1,1.8902,,[],[],[],[],[],[],[],556.4172,558.4177,558.4179,558.4179,[],[],[],[],[],[],[],,558.4179,558.418,-0.134323695,-0.404517663,0,0,0,,0,106,106,112,1,3,word,LIBERAL,print,liberal_p.png,,,,,,
,,,,30758,001,2025-10-15_20h03.29.108,HW_LDT_1,2024.2.4,MacIntel,61.34969325,,,,,,,,,,,,,,,,,,,,,,558.4191,558.6177,558.6177,559.1167,,,,,,,,,,,,,,3.3002,1,,,,,,,,,,,,,,m,,,,,,,,,,,,,,,,108,0,559.1171,562.4178,m,1,3.3002,,[],[],[],[],[],[],[],562.4178,564.4177,564.4177,564.4178,[],[],[],[],[],[],[],,564.4179,564.418,-0.134323695,-0.404517663,0,0,0,,0,107,107,130,1,3,word,POLICY,print,policy_p.png,,,,,,
,,,,30758,001,2025-10-15_20h03.29.108,HW_LDT_1,2024.2.4,MacIntel,61.34969325,,,,,,,,,,,,,,,,,,,,,,564.419,564.6176,564.6176,565.1167,,,,,,,,,,,,,,1.294,1,,,,,,,,,,,,,,z,,,,,,,,,,,,,,,,109,1,565.1171,566.4169,z,1,1.294,,[],[],[],[],[],[],[],566.4169,568.4176,568.4176,569.9339,[],[],[],[],[],[],[],z,569.9339,569.934,-0.134323695,-0.404517663,0,0,0,,0,108,108,72,1,3,TL,senmitent,print,senmitent_p.png,1.5145,,,,,
,,,,30758,001,2025-10-15_20h03.29.108,HW_LDT_1,2024.2.4,MacIntel,61.34969325,,,,,,,,,,,,,,,,,,,,,,569.9348,570.1339,570.1339,570.6338,,,,,,,,,,,,,,1.462,0,,,,,,,,,,,,,,z,,,,,,,,,,,,,,,,110,0,570.6341,572.1008,m,0,1.462,,[],[],[],[],[],[],[],572.1009,574.1008,574.1008,574.101,[],[],[],[],[],[],[],,574.101,574.1011,-0.134323695,-0.404517663,0,0,0,,0,109,109,20,1,3,RL,orimipal,cursive,orimipal_c.png,,,,,,
,,,,30758,001,2025-10-15_20h03.29.108,HW_LDT_1,2024.2.4,MacIntel,61.34969325,,,,,,,,,,,,,,,,,,,,,,574.102,574.3004,574.3004,574.8009,,,,,,,,,,,,,,0.6962,1,,,,,,,,,,,,,,z,,,,,,,,,,,,,,,,111,0,574.8015,575.5001,z,1,0.6962,,[],[],[],[],[],[],[],575.5001,577.5006,577.5007,577.5008,[],[],[],[],[],[],[],,577.5009,577.5009,-0.134323695,-0.404517663,0,0,0,,0,110,110,40,1,3,TL,condiser,print,condiser_p.png,,,,,,
,,,,30758,001,2025-10-15_20h03.29.108,HW_LDT_1,2024.2.4,MacIntel,61.34969325,,,,,,,,,,,,,,,,,,,,,,577.502,577.7007,577.7008,578.2,,,,,,,,,,,,,,0.7832,1,,,,,,,,,,,,,,m,,,,,,,,,,,,,,,,112,0,578.2004,578.984,m,1,0.7832,,[],[],[],[],[],[],[],578.984,580.9837,580.9838,580.984,[],[],[],[],[],[],[],,580.9841,580.9841,-0.134323695,-0.404517663,0,0,0,,0,111,111,131,1,3,word,POPULAR,print,popular_p.png,,,,,,
,,,,30758,001,2025-10-15_20h03.29.108,HW_LDT_1,2024.2.4,MacIntel,61.34969325,,,,,,,,,,,,,,,,,,,,,,580.9851,581.1837,581.1837,581.6837,,,,,,,,,,,,,,1.332,0,,,,,,,,,,,,,,m,,,,,,,,,,,,,,,,113,0,581.6841,583.0169,z,0,1.332,,[],[],[],[],[],[],[],583.017,585.0173,585.0174,585.0175,[],[],[],[],[],[],[],,585.0175,585.0176,-0.134323695,-0.404517663,0,0,0,,0,112,112,92,1,3,word,CATEGORY,cursive,category_c.png,,,,,,
,,,,30758,001,2025-10-15_20h03.29.108,HW_LDT_1,2024.2.4,MacIntel,61.34969325,,,,,,,,,,,,,,,,,,,,,,585.0186,585.2173,585.2174,585.7173,,,,,,,,,,,,,,0.6983,1,,,,,,,,,,,,,,z,,,,,,,,,,,,,,,,114,0,585.7177,586.4167,z,1,0.6983,,[],[],[],[],[],[],[],586.4168,588.4174,588.4174,588.4182,[],[],[],[],[],[],[],,588.4182,588.4183,-0.134323695,-0.404517663,0,0,0,,0,113,113,8,1,3,RL,cocewage,print,cocewage_p.png,,,,,,
,,,,30758,001,2025-10-15_20h03.29.108,HW_LDT_1,2024.2.4,MacIntel,61.34969325,,,,,,,,,,,,,,,,,,,,,,588.4198,588.6173,588.6174,589.1163,,,,,,,,,,,,,,1.2496,1,,,,,,,,,,,,,,m,,,,,,,,,,,,,,,,115,0,589.1167,590.3673,m,1,1.2496,,[],[],[],[],[],[],[],590.3674,592.3672,592.3673,592.3674,[],[],[],[],[],[],[],,592.3675,592.3675,-0.134323695,-0.404517663,0,0,0,,0,114,114,116,1,3,word,MARGINAL,print,marginal_p.png,,,,,,
,,,,30758,001,2025-10-15_20h03.29.108,HW_LDT_1,2024.2.4,MacIntel,61.34969325,,,,,,,,,,,,,,,,,,,,,,592.3689,592.5673,592.5673,593.0673,,,,,,,,,,,,,,0.696,1,,,,,,,,,,,,,,z,,,,,,,,,,,,,,,,116,0,593.0676,593.7671,z,1,0.696,,[],[],[],[],[],[],[],593.7671,595.7664,595.7664,595.7665,[],[],[],[],[],[],[],,595.7665,595.7666,-0.134323695,-0.404517663,0,0,0,,0,115,115,0,1,3,RL,afaneur,print,afaneur_p.png,,,,,,
,,,,30758,001,2025-10-15_20h03.29.108,HW_LDT_1,2024.2.4,MacIntel,61.34969325,,,,,,,,,,,,,,,,,,,,,,595.7672,595.9661,595.9662,596.4672,,,,,,,,,,,,,,0.6424,1,,,,,,,,,,,,,,z,,,,,,,,,,,,,,,,117,0,596.4676,597.1164,z,1,0.6424,,[],[],[],[],[],[],[],597.1165,599.1166,599.1166,599.1168,[],[],[],[],[],[],[],,599.1168,599.1169,-0.134323695,-0.404517663,0,0,0,,0,116,116,66,1,3,TL,retalive,cursive,retalive_c.png,,,,,,
,,,,30758,001,2025-10-15_20h03.29.108,HW_LDT_1,2024.2.4,MacIntel,61.34969325,,,,,,,,,,,,,,,,,,,,,,599.1177,599.3171,599.3172,599.8171,,,,,,,,,,,,,,0.5949,1,,,,,,,,,,,,,,z,,,,,,,,,,,,,,,,118,0,599.8176,600.4171,z,1,0.5949,,[],[],[],[],[],[],[],600.4171,602.4171,602.4172,602.4172,[],[],[],[],[],[],[],,602.4173,602.4174,-0.134323695,-0.404517663,0,0,0,,0,117,117,9,1,3,RL,docirant,print,docirant_p.png,,,,,,
,,,,30758,001,2025-10-15_20h03.29.108,HW_LDT_1,2024.2.4,MacIntel,61.34969325,,,,,,,,,,,,,,,,,,,,,,602.4184,602.6166,602.6167,603.1165,,,,,,,,,,,,,,0.6813,1,,,,,,,,,,,,,,z,,,,,,,,,,,,,,,,119,0,603.1168,603.7994,z,1,0.6813,,[],[],[],[],[],[],[],603.7996,605.8004,605.8004,605.8005,[],[],[],[],[],[],[],,605.8006,605.8007,-0.134323695,-0.404517663,0,0,0,,0,118,118,64,1,3,TL,radiply,print,radiply_p.png,,,,,,
,,,,30758,001,2025-10-15_20h03.29.108,HW_LDT_1,2024.2.4,MacIntel,61.34969325,,,,,,,,,,,,,,,,,,,,,,605.8017,605.9999,606,606.5005,,,,,,,,,,,,,,1.097,1,,,,,,,,,,,,,,m,,,,,,,,,,,,,,,,120,0,606.5011,607.6002,m,1,1.097,,[],[],[],[],[],[],[],607.6002,609.6003,609.6003,609.6005,[],[],[],[],[],[],[],,609.6005,609.6006,-0.134323695,-0.404517663,0,0,0,,0,119,119,124,1,3,word,NUMERICAL,print,numerical_p.png,,,,,,
,,,,30758,001,2025-10-15_20h03.29.108,HW_LDT_1,2024.2.4,MacIntel,61.34969325,,,,,,,,,,,,,,,,,,,,,,609.6015,609.7994,609.7995,610.3003,,,,,,,,,,,,,,0.7923,1,,,,,,,,,,,,,,m,,,,,,,,,,,,,,,,121,0,610.3007,611.1004,m,1,0.7923,,[],[],[],[],[],[],[],611.1004,613.088,613.0881,613.0882,[],[],[],[],[],[],[],,613.0883,613.0883,-0.134323695,-0.404517663,0,0,0,,0,120,120,98,1,3,word,CRIMINAL,print,criminal_p.png,,,,,,
,,,,30758,001,2025-10-15_20h03.29.108,HW_LDT_1,2024.2.4,MacIntel,61.34969325,,,,,,,,,,,,,,,,,,,,,,613.0898,613.2834,613.2834,613.7831,,,,,,,,,,,,,,0.6294,1,,,,,,,,,,,,,,z,,,,,,,,,,,,,,,,122,0,613.7834,614.4169,z,1,0.6294,,[],[],[],[],[],[],[],614.417,616.4165,616.4165,616.4166,[],[],[],[],[],[],[],,616.4166,616.4167,-0.134323695,-0.404517663,0,0,0,,0,121,121,23,1,3,RL,quakity,print,quakity_p.png,,,,,,
,,,,30758,001,2025-10-15_20h03.29.108,HW_LDT_1,2024.2.4,MacIntel,61.34969325,,,,,,,,,,,,,,,,,,,,,,616.4174,616.6163,616.6163,617.1165,,,,,,,,,,,,,,1.2312,1,,,,,,,,,,,,,,m,,,,,,,,,,,,,,,,123,0,617.1168,618.3504,m,1,1.2312,,[],[],[],[],[],[],[],618.3504,620.3501,620.3502,620.3502,[],[],[],[],[],[],[],,620.3503,620.3503,-0.134323695,-0.404517663,0,0,0,,0,122,122,142,1,3,word,REMOTE,print,remote_p.png,,,,,,
,,,,30758,001,2025-10-15_20h03.29.108,HW_LDT_1,2024.2.4,MacIntel,61.34969325,,,,,,,,,,,,,,,,,,,,,,620.3512,620.5501,620.5502,621.0502,,,,,,,,,,,,,,1.1097,1,,,,,,,,,,,,,,z,,,,,,,,,,,,,,,,124,0,621.0506,622.167,z,1,1.1097,,[],[],[],[],[],[],[],622.167,624.1667,624.1668,624.1669,[],[],[],[],[],[],[],,624.1669,624.1671,-0.134323695,-0.404517663,0,0,0,,0,123,123,2,1,3,RL,betemit,print,betemit_p.png,,,,,,
,,,,30758,001,2025-10-15_20h03.29.108,HW_LDT_1,2024.2.4,MacIntel,61.34969325,,,,,,,,,,,,,,,,,,,,,,624.168,624.3668,624.3668,624.8668,,,,,,,,,,,,,,1.1655,1,,,,,,,,,,,,,,z,,,,,,,,,,,,,,,,125,0,624.8671,626.0335,z,1,1.1655,,[],[],[],[],[],[],[],626.0335,628.0334,628.0334,628.0335,[],[],[],[],[],[],[],,628.0336,628.0336,-0.134323695,-0.404517663,0,0,0,,0,124,124,73,1,3,TL,speficic,print,speficic_p.png,,,,,,
,,,,30758,001,2025-10-15_20h03.29.108,HW_LDT_1,2024.2.4,MacIntel,61.34969325,,,,,,,,,,,,,,,,,,,,,,628.0343,628.2324,628.2325,628.7323,,,,,,,,,,,,,,2.1632,1,,,,,,,,,,,,,,m,,,,,,,,,,,,,,,,126,0,628.7325,630.8999,m,1,2.1632,,[],[],[],[],[],[],[],630.9,632.9,632.9001,632.9001,[],[],[],[],[],[],[],,632.9003,632.9003,-0.134323695,-0.404517663,0,0,0,,0,125,125,136,1,3,word,RADICAL,cursive,radical_c.png,,,,,,
,,,,30758,001,2025-10-15_20h03.29.108,HW_LDT_1,2024.2.4,MacIntel,61.34969325,,,,,,,,,,,,,,,,,,,,,,632.9013,633.1,633.1,633.6003,,,,,,,,,,,,,,6.2426,1,,,,,,,,,,,,,,z,,,,,,,,,,,,,,,,127,1,633.6008,639.8489,z,1,6.2426,,[],[],[],[],[],[],[],639.849,641.8499,641.8499,642.8833,[],[],[],[],[],[],[],z,642.8833,642.8834,-0.134323695,-0.404517663,0,0,0,,0,126,126,16,1,3,RL,mishafe,cursive,mishafe_c.png,1.0298,,,,,
,,,,30758,001,2025-10-15_20h03.29.108,HW_LDT_1,2024.2.4,MacIntel,61.34969325,,,,,,,,,,,,,,,,,,,,,,642.8841,643.0832,643.0832,643.5832,,,,,,,,,,,,,,0.8983,1,,,,,,,,,,,,,,z,,,,,,,,,,,,,,,,128,0,643.5836,644.4826,z,1,0.8983,,[],[],[],[],[],[],[],644.4826,646.4831,646.4832,646.4833,[],[],[],[],[],[],[],,646.4834,646.4834,-0.134323695,-0.404517663,0,0,0,,0,127,127,5,1,3,RL,capefory,cursive,capefory_c.png,,,,,,
,,,,30758,001,2025-10-15_20h03.29.108,HW_LDT_1,2024.2.4,MacIntel,61.34969325,,,,,,,,,,,,,,,,,,,,,,646.485,646.6832,646.6832,647.1831,,,,,,,,,,,,,,0.7476,1,,,,,,,,,,,,,,m,,,,,,,,,,,,,,,,129,0,647.1835,647.933,m,1,0.7476,,[],[],[],[],[],[],[],647.9331,649.9233,649.9233,649.9234,[],[],[],[],[],[],[],,649.9234,649.9234,-0.134323695,-0.404517663,0,0,0,,0,128,128,146,1,3,word,RETIRE,print,retire_p.png,,,,,,
,,,,30758,001,2025-10-15_20h03.29.108,HW_LDT_1,2024.2.4,MacIntel,61.34969325,,,,,,,,,,,,,,,,,,,,,,649.9242,650.1155,650.1155,650.6158,,,,,,,,,,,,,,0.71,1,,,,,,,,,,,,,,z,,,,,,,,,,,,,,,,130,0,650.6163,651.3331,z,1,0.71,,[],[],[],[],[],[],[],651.3331,653.3327,653.3328,653.3329,[],[],[],[],[],[],[],,653.333,653.3331,-0.134323695,-0.404517663,0,0,0,,0,129,129,30,1,3,RL,strapely,print,strapely_p.png,,,,,,
,,,,30758,001,2025-10-15_20h03.29.108,HW_LDT_1,2024.2.4,MacIntel,61.34969325,,,,,,,,,,,,,,,,,,,,,,653.334,653.5324,653.5324,654.0331,,,,,,,,,,,,,,0.9951,1,,,,,,,,,,,,,,z,,,,,,,,,,,,,,,,131,0,654.0335,655.033,z,1,0.9951,,[],[],[],[],[],[],[],655.0331,657.033,657.033,657.0332,[],[],[],[],[],[],[],,657.0333,657.0334,-0.134323695,-0.404517663,0,0,0,,0,130,130,59,1,3,TL,paficic,cursive,paficic_c.png,,,,,,
,,,,30758,001,2025-10-15_20h03.29.108,HW_LDT_1,2024.2.4,MacIntel,61.34969325,,,,,,,,,,,,,,,,,,,,,,657.0344,657.2331,657.2331,657.7231,,,,,,,,,,,,,,0.734,1,,,,,,,,,,,,,,m,,,,,,,,,,,,,,,,132,0,657.7234,658.4658,m,1,0.734,,[],[],[],[],[],[],[],658.4659,660.4659,660.466,660.4661,[],[],[],[],[],[],[],,660.4662,660.4662,-0.134323695,-0.404517663,0,0,0,,0,131,131,81,1,3,word,ADVISORY,print,advisory_p.png,,,,,,
,,,,30758,001,2025-10-15_20h03.29.108,HW_LDT_1,2024.2.4,MacIntel,61.34969325,,,,,,,,,,,,,,,,,,,,,,660.4673,660.6658,660.6658,661.1663,,,,,,,,,,,,,,0.8323,0,,,,,,,,,,,,,,m,,,,,,,,,,,,,,,,133,0,661.1667,661.9997,z,0,0.8323,,[],[],[],[],[],[],[],661.9998,663.9995,663.9996,663.9997,[],[],[],[],[],[],[],,663.9998,663.9998,-0.134323695,-0.404517663,0,0,0,,0,132,132,143,1,3,word,REMOVAL,cursive,removal_c.png,,,,,,
,,,,30758,001,2025-10-15_20h03.29.108,HW_LDT_1,2024.2.4,MacIntel,61.34969325,,,,,,,,,,,,,,,,,,,,,,664.0008,664.1992,664.1992,664.6996,,,,,,,,,,,,,,0.8925,1,,,,,,,,,,,,,,z,,,,,,,,,,,,,,,,134,0,664.6999,665.5996,z,1,0.8925,,[],[],[],[],[],[],[],665.5997,667.5995,667.5996,667.5997,[],[],[],[],[],[],[],,667.5997,667.5999,-0.134323695,-0.404517663,0,0,0,,0,133,133,4,1,3,RL,cafigal,cursive,cafigal_c.png,,,,,,
,,,,30758,001,2025-10-15_20h03.29.108,HW_LDT_1,2024.2.4,MacIntel,61.34969325,,,,,,,,,,,,,,,,,,,,,,667.601,667.7992,667.7992,668.2987,,,,,,,,,,,,,,1.5792,1,,,,,,,,,,,,,,m,,,,,,,,,,,,,,,,135,0,668.2989,669.8824,m,1,1.5792,,[],[],[],[],[],[],[],669.8825,671.8819,671.882,671.8821,[],[],[],[],[],[],[],,671.8821,671.8822,-0.134323695,-0.404517663,0,0,0,,0,134,134,135,1,3,word,QUALITY,print,quality_p.png,,,,,,
,,,,30758,001,2025-10-15_20h03.29.108,HW_LDT_1,2024.2.4,MacIntel,61.34969325,,,,,,,,,,,,,,,,,,,,,,671.883,672.0817,672.0817,672.5828,,,,,,,,,,,,,,0.9764,1,,,,,,,,,,,,,,m,,,,,,,,,,,,,,,,136,1,672.5832,673.5661,m,1,0.9764,,[],[],[],[],[],[],[],673.5661,675.5661,675.5661,677.9159,[],[],[],[],[],[],[],z,677.916,677.916,-0.134323695,-0.404517663,0,0,0,,0,135,135,87,1,3,word,CAFETERIA,print,cafeteria_p.png,2.3489,,,,,
,,,,30758,001,2025-10-15_20h03.29.108,HW_LDT_1,2024.2.4,MacIntel,61.34969325,,,,,,,,,,,,,,,,,,,,,,677.9167,678.1161,678.1161,678.6159,,,,,,,,,,,,,,1.7319,1,,,,,,,,,,,,,,z,,,,,,,,,,,,,,,,137,0,678.6162,680.3488,z,1,1.7319,,[],[],[],[],[],[],[],680.3489,682.3483,682.3484,682.3484,[],[],[],[],[],[],[],,682.3485,682.3485,-0.134323695,-0.404517663,0,0,0,,0,136,136,47,1,3,TL,elarobate,print,elarobate_p.png,,,,,,
,,,,30758,001,2025-10-15_20h03.29.108,HW_LDT_1,2024.2.4,MacIntel,61.34969325,,,,,,,,,,,,,,,,,,,,,,682.3492,682.5486,682.5487,683.0493,,,,,,,,,,,,,,2.7766,0,,,,,,,,,,,,,,z,,,,,,,,,,,,,,,,138,0,683.0497,685.8326,m,0,2.7766,,[],[],[],[],[],[],[],685.8326,687.8326,687.8327,687.833,[],[],[],[],[],[],[],,687.833,687.833,-0.134323695,-0.404517663,0,0,0,,0,137,137,54,1,3,TL,manire,cursive,manire_c.png,,,,,,
,,,,30758,001,2025-10-15_20h03.29.108,HW_LDT_1,2024.2.4,MacIntel,61.34969325,,,,,,,,,,,,,,,,,,,,,,687.8341,688.033,688.033,688.5326,,,,,,,,,,,,,,1.2929,1,,,,,,,,,,,,,,m,,,,,,,,,,,,,,,,139,0,688.5332,689.8315,m,1,1.2929,,[],[],[],[],[],[],[],689.8315,691.8326,691.8326,691.8328,[],[],[],[],[],[],[],,691.8328,691.8328,-0.134323695,-0.404517663,0,0,0,,0,138,138,106,1,3,word,ELABORATE,print,elaborate_p.png,,,,,,
,,,,30758,001,2025-10-15_20h03.29.108,HW_LDT_1,2024.2.4,MacIntel,61.34969325,,,,,,,,,,,,,,,,,,,,,,691.8338,692.0325,692.0325,692.5325,,,,,,,,,,,,,,0.8963,1,,,,,,,,,,,,,,z,,,,,,,,,,,,,,,,140,0,692.5329,693.4316,z,1,0.8963,,[],[],[],[],[],[],[],693.4317,695.4326,695.4326,695.4327,[],[],[],[],[],[],[],,695.4327,695.4329,-0.134323695,-0.404517663,0,0,0,,0,139,139,63,1,3,TL,racidal,cursive,racidal_c.png,,,,,,
,,,,30758,001,2025-10-15_20h03.29.108,HW_LDT_1,2024.2.4,MacIntel,61.34969325,,,,,,,,,,,,,,,,,,,,,,695.4338,695.6325,695.6325,696.1325,,,,,,,,,,,,,,1.265,1,,,,,,,,,,,,,,m,,,,,,,,,,,,,,,,141,1,696.1329,697.3988,m,1,1.265,,[],[],[],[],[],[],[],697.3988,699.3904,699.3904,703.6646,[],[],[],[],[],[],[],z,703.6647,703.6647,-0.134323695,-0.404517663,0,0,0,,0,140,140,115,1,3,word,LOGICAL,cursive,logical_c.png,4.2734,,,,,
,,,,30758,001,2025-10-15_20h03.29.108,HW_LDT_1,2024.2.4,MacIntel,61.34969325,,,,,,,,,,,,,,,,,,,,,,703.6654,703.8655,703.8655,704.3657,,,,,,,,,,,,,,1.6585,1,,,,,,,,,,,,,,m,,,,,,,,,,,,,,,,142,1,704.3662,706.0319,m,1,1.6585,,[],[],[],[],[],[],[],706.0319,708.0317,708.0317,709.5646,[],[],[],[],[],[],[],z,709.5646,709.5647,-0.134323695,-0.404517663,0,0,0,,0,141,141,100,1,3,word,DECADE,cursive,decade_c.png,1.5252,,,,,
,,,,30758,001,2025-10-15_20h03.29.108,HW_LDT_1,2024.2.4,MacIntel,61.34969325,,,,,,,,,,,,,,,,,,,,,,709.5654,709.7646,709.7646,710.2649,,,,,,,,,,,,,,2.4948,0,,,,,,,,,,,,,,m,,,,,,,,,,,,,,,,143,0,710.2652,712.7658,z,0,2.4948,,[],[],[],[],[],[],[],712.7658,714.7646,714.7646,714.7648,[],[],[],[],[],[],[],,714.7649,714.7649,-0.134323695,-0.404517663,0,0,0,,0,142,142,110,1,3,word,HERITAGE,cursive,heritage_c.png,,,,,,
,,,,30758,001,2025-10-15_20h03.29.108,HW_LDT_1,2024.2.4,MacIntel,61.34969325,,,,,,,,,,,,,,,,,,,,,,714.7658,714.9655,714.9656,715.4656,,,,,,,,,,,,,,0.6455,1,,,,,,,,,,,,,,z,,,,,,,,,,,,,,,,144,0,715.466,716.1149,z,1,0.6455,,[],[],[],[],[],[],[],716.1149,718.1031,718.1031,718.1033,[],[],[],[],[],[],[],,718.1033,718.1034,-0.134323695,-0.404517663,0,0,0,,0,143,143,7,1,3,RL,cobeny,print,cobeny_p.png,,,,,,
,,,,30758,001,2025-10-15_20h03.29.108,HW_LDT_1,2024.2.4,MacIntel,61.34969325,,,,,,,,,,,,,,,,,,,,,,718.1044,718.2979,718.298,718.7989,,,,,,,,,,,,,,1.7803,1,,,,,,,,,,,,,,z,,,,,,,,,,,,,,,,145,0,718.7994,720.5813,z,1,1.7803,,[],[],[],[],[],[],[],720.5813,722.587,722.587,722.5871,[],[],[],[],[],[],[],,722.5871,722.5872,-0.134323695,-0.404517663,0,0,0,,0,144,144,44,1,3,TL,decilate,print,decilate_p.png,,,,,,
,,,,30758,001,2025-10-15_20h03.29.108,HW_LDT_1,2024.2.4,MacIntel,61.34969325,,,,,,,,,,,,,,,,,,,,,,722.5883,722.782,722.782,723.282,,,,,,,,,,,,,,2.7238,1,,,,,,,,,,,,,,z,,,,,,,,,,,,,,,,146,0,723.2823,726.0149,z,1,2.7238,,[],[],[],[],[],[],[],726.015,728.0143,728.0143,728.0145,[],[],[],[],[],[],[],,728.0145,728.0145,-0.134323695,-0.404517663,0,0,0,,0,145,145,37,1,3,TL,cacapity,cursive,cacapity_c.png,,,,,,
,,,,30758,001,2025-10-15_20h03.29.108,HW_LDT_1,2024.2.4,MacIntel,61.34969325,,,,,,,,,,,,,,,,,,,,,,728.0153,728.2144,728.2144,728.7144,,,,,,,,,,,,,,1.4167,1,,,,,,,,,,,,,,m,,,,,,,,,,,,,,,,147,0,728.7147,730.1318,m,1,1.4167,,[],[],[],[],[],[],[],730.1318,732.1318,732.1319,732.132,[],[],[],[],[],[],[],,732.132,732.1321,-0.134323695,-0.404517663,0,0,0,,0,146,146,107,1,3,word,EVIDENT,cursive,evident_c.png,,,,,,
,,,,30758,001,2025-10-15_20h03.29.108,HW_LDT_1,2024.2.4,MacIntel,61.34969325,,,,,,,,,,,,,,,,,,,,,,732.1328,732.3314,732.3314,732.8315,,,,,,,,,,,,,,0.9105,1,,,,,,,,,,,,,,z,,,,,,,,,,,,,,,,148,0,732.8319,733.7485,z,1,0.9105,,[],[],[],[],[],[],[],733.7486,735.7537,735.7537,735.7539,[],[],[],[],[],[],[],,735.7539,735.754,-0.134323695,-0.404517663,0,0,0,,0,147,147,55,1,3,TL,mecidine,print,mecidine_p.png,,,,,,
,,,,30758,001,2025-10-15_20h03.29.108,HW_LDT_1,2024.2.4,MacIntel,61.34969325,,,,,,,,,,,,,,,,,,,,,,735.7556,735.9485,735.9485,736.4477,,,,,,,,,,,,,,0.5662,0,,,,,,,,,,,,,,m,,,,,,,,,,,,,,,,149,0,736.4481,737.0152,z,0,0.5662,,[],[],[],[],[],[],[],737.0153,739.0151,739.0151,739.0153,[],[],[],[],[],[],[],,739.0153,739.0153,-0.134323695,-0.404517663,0,0,0,,0,148,148,108,1,3,word,FORTUNE,cursive,fortune_c.png,,,,,,
,,,,30758,001,2025-10-15_20h03.29.108,HW_LDT_1,2024.2.4,MacIntel,61.34969325,,,,,,,,,,,,,,,,,,,,,,739.0161,739.2151,739.2151,739.7152,,,,,,,,,,,,,,0.6074,1,,,,,,,,,,,,,,z,,,,,,,,,,,,,,,,150,0,739.7155,740.3236,z,1,0.6074,,[],[],[],[],[],[],[],740.3237,742.3148,742.3148,742.3149,[],[],[],[],[],[],[],,742.3149,742.315,-0.134323695,-0.404517663,0,0,0,,0,149,149,13,1,3,RL,helicage,cursive,helicage_c.png,,,,,,
,,,,30758,001,2025-10-15_20h03.29.108,HW_LDT_1,2024.2.4,MacIntel,61.34969325,,,,,,,,,,,,,,,,,,,,,,742.3157,742.5151,742.5152,743.015,,,,,,,,,,,,,,0.6624,1,,,,,,,,,,,,,,z,,,,,,,,,,,,,,,,151,1,743.0153,743.6809,z,1,0.6624,,[],[],[],[],[],[],[],743.681,745.6862,745.6862,746.6984,[],[],[],[],[],[],[],z,746.6985,746.6985,-0.134323695,-0.404517663,0,0,0,,0,150,150,22,1,3,RL,procogal,print,procogal_p.png,1.0033,,,,,
,,,,30758,001,2025-10-15_20h03.29.108,HW_LDT_1,2024.2.4,MacIntel,61.34969325,,,,,,,,,,,,,,,,,,,,,,746.6993,746.8983,746.8983,747.3984,,,,,,,,,,,,,,1.3434,1,,,,,,,,,,,,,,m,,,,,,,,,,,,,,,,152,1,747.3987,748.7479,m,1,1.3434,,[],[],[],[],[],[],[],748.7479,750.7478,750.7479,751.748,[],[],[],[],[],[],[],z,751.7481,751.7482,-0.134323695,-0.404517663,0,0,0,,0,151,151,125,1,3,word,OPERATOR,print,operator_p.png,0.9929,,,,,
,,,,30758,001,2025-10-15_20h03.29.108,HW_LDT_1,2024.2.4,MacIntel,61.34969325,,,,,,,,,,,,,,,,,,,,,,751.7491,751.9484,751.9485,752.4485,,,,,,,,,,,,,,0.8469,1,,,,,,,,,,,,,,m,,,,,,,,,,,,,,,,153,1,752.4489,753.2984,m,1,0.8469,,[],[],[],[],[],[],[],753.2985,755.2979,755.2979,756.4983,[],[],[],[],[],[],[],z,756.4983,756.4985,-0.134323695,-0.404517663,0,0,0,,0,152,152,150,1,3,word,SENTIMENT,print,sentiment_p.png,1.1997,,,,,
,,,,30758,001,2025-10-15_20h03.29.108,HW_LDT_1,2024.2.4,MacIntel,61.34969325,,,,,,,,,,,,,,,,,,,,,,756.4991,756.6976,756.6976,757.1987,,,,,,,,,,,,,,0.8219,1,,,,,,,,,,,,,,z,,,,,,,,,,,,,,,,154,1,757.1992,758.0311,z,1,0.8219,,[],[],[],[],[],[],[],758.0312,760.0315,760.0315,760.7313,[],[],[],[],[],[],[],z,760.7314,760.7315,-0.134323695,-0.404517663,0,0,0,,0,153,153,12,1,3,RL,formuke,cursive,formuke_c.png,0.6992,,,,,
,,,,30758,001,2025-10-15_20h03.29.108,HW_LDT_1,2024.2.4,MacIntel,61.34969325,,,,,,,,,,,,,,,,,,,,,,760.7326,760.9316,760.9316,761.4314,,,,,,,,,,,,,,0.9784,1,,,,,,,,,,,,,,z,,,,,,,,,,,,,,,,155,0,761.4317,762.4148,z,1,0.9784,,[],[],[],[],[],[],[],762.4148,764.4147,764.4148,764.4149,[],[],[],[],[],[],[],,764.4149,764.415,-0.134323695,-0.404517663,0,0,0,,0,154,154,33,1,3,TL,adsivory,print,adsivory_p.png,,,,,,
,,,,30758,001,2025-10-15_20h03.29.108,HW_LDT_1,2024.2.4,MacIntel,61.34969325,,,,,,,,,,,,,,,,,,,,,,764.4158,764.6148,764.6148,765.1147,,,,,,,,,,,,,,0.7752,0,,,,,,,,,,,,,,m,,,,,,,,,,,,,,,,156,0,765.1151,765.8982,z,0,0.7752,,[],[],[],[],[],[],[],765.8983,767.8973,767.8973,767.8974,[],[],[],[],[],[],[],,767.8975,767.8976,-0.134323695,-0.404517663,0,0,0,,0,155,155,140,1,3,word,RELATIVE,cursive,relative_c.png,,,,,,
,,,,30758,001,2025-10-15_20h03.29.108,HW_LDT_1,2024.2.4,MacIntel,61.34969325,,,,,,,,,,,,,,,,,,,,,,767.8986,768.0977,768.0977,768.5982,,,,,,,,,,,,,,0.893,1,,,,,,,,,,,,,,m,,,,,,,,,,,,,,,,157,0,768.5986,769.4974,m,1,0.893,,[],[],[],[],[],[],[],769.4975,771.4984,771.4985,771.4986,[],[],[],[],[],[],[],,771.4987,771.4987,-0.134323695,-0.404517663,0,0,0,,0,156,156,137,1,3,word,RAPIDLY,print,rapidly_p.png,,,,,,
,,,,30758,001,2025-10-15_20h03.29.108,HW_LDT_1,2024.2.4,MacIntel,61.34969325,,,,,,,,,,,,,,,,,,,,,,771.5,771.697,771.697,772.1971,,,,,,,,,,,,,,0.9485,1,,,,,,,,,,,,,,z,,,,,,,,,,,,,,,,158,0,772.1975,773.1479,z,1,0.9485,,[],[],[],[],[],[],[],773.148,775.148,775.148,775.1481,[],[],[],[],[],[],[],,775.1481,775.1482,-0.134323695,-0.404517663,0,0,0,,0,157,157,38,1,3,TL,carnidal,print,carnidal_p.png,,,,,,
,,,,30758,001,2025-10-15_20h03.29.108,HW_LDT_1,2024.2.4,MacIntel,61.34969325,,,,,,,,,,,,,,,,,,,,,,775.149,775.3479,775.3479,775.847,,,,,,,,,,,,,,1.2308,1,,,,,,,,,,,,,,m,,,,,,,,,,,,,,,,159,0,775.8473,777.0808,m,1,1.2308,,[],[],[],[],[],[],[],777.0808,779.0804,779.0804,779.0806,[],[],[],[],[],[],[],,779.0806,779.0807,-0.134323695,-0.404517663,0,0,0,,0,158,158,111,1,3,word,INDICATE,print,indicate_p.png,,,,,,
,,,,30758,001,2025-10-15_20h03.29.108,HW_LDT_1,2024.2.4,MacIntel,61.34969325,,,,,,,,,,,,,,,,,,,,,,779.0815,779.2807,779.2808,779.7813,,,,,,,,,,,,,,3.1667,1,,,,,,,,,,,,,,z,,,,,,,,,,,,,,,,160,0,779.7817,782.9491,z,1,3.1667,,[],[],[],[],[],[],[],782.9492,784.948,784.948,784.9482,[],[],[],[],[],[],[],,784.9485,784.9486,-0.134323695,-0.404517663,0,0,0,,0,159,159,69,1,3,TL,redisent,cursive,redisent_c.png,,,,,,
,,,,30758,001,2025-10-15_20h03.29.108,HW_LDT_1,2024.2.4,MacIntel,61.34969325,,,,,,,,,,,,,,,,,,,,,,,,,,,,,,,,,,,,,,,,,,,,,,,,,,,,,,,,,,,,,,,,,,,,,,,,,,,,,,,,,,,,,,,,,,,,,,,,,,,,,,,,,,,,,,,,,,,,,,,784.9593,789.948
