counterbalance_lists.group,counterbalance_lists.remaining,get_list.started,get_list.stopped,participant,session,date,expName,psychopyVersion,OS,frameRate,Instructions.started,Instructions.stopped,key_resp.keys,instr_done_touch.x,instr_done_touch.y,instr_done_touch.leftButton,instr_done_touch.midButton,instr_done_touch.rightButton,instr_done_touch.clicked_name,start_instr.thisRepN,start_instr.thisTrialN,start_instr.thisN,start_instr.thisIndex,start_instr.ran,pageN,phase,instruct_text,has_image,instruct_image,key_resp.rt,key_resp.duration,showProgress.started,showProgress.stopped,fix.started,fix.stopped,prac.started,prac.stopped,response.keys,response.corr,response.rt,response.duration,touch_resp.x,touch_resp.y,touch_resp.leftButton,touch_resp.midButton,touch_resp.rightButton,touch_resp.time,touch_resp.clicked_name,rt,corr,feedback.started,feedback.stopped,trials.thisRepN,trials.thisTrialN,trials.thisN,trials.thisIndex,trials.ran,TrialID,StimulusType,Condition,PrimeDuration,Prime,Target,corrAns,Instructions_expt.started,Instructions_expt.stopped,key_resp_3.keys,key_resp_3.rt,key_resp_3.duration,instr_done_touch_3.x,instr_done_touch_3.y,instr_done_touch_3.leftButton,instr_done_touch_3.midButton,instr_done_touch_3.rightButton,instr_experiment.thisRepN,instr_experiment.thisTrialN,instr_experiment.thisN,instr_experiment.thisIndex,instr_experiment.ran,trialID,flag,maintask.started,maintask.stopped,key_resp_2.keys,key_resp_2.corr,key_resp_2.rt,key_resp_2.duration,targ_click.x,targ_click.y,targ_click.leftButton,targ_click.midButton,targ_click.rightButton,targ_click.time,targ_click.clicked_name,ITI.started,ITI.stopped,probe.started,probe.stopped,click_probe.x,click_probe.y,click_probe.leftButton,click_probe.midButton,click_probe.rightButton,click_probe.time,click_probe.clicked_name,key_resp_probe.keys,Break.started,Break.stopped,break_done_touch.x,break_done_touch.y,break_done_touch.leftButton,break_done_touch.midButton,break_done_touch.rightButton,break_done_keyboard.keys,list3_trials.thisRepN,list3_trials.thisTrialN,list3_trials.thisN,list3_trials.thisIndex,list3_trials.ran,list_id,item_type,string,font,stim_file,key_resp_probe.rt,key_resp_probe.duration,break_done_keyboard.rt,break_done_keyboard.duration,End.started,End.stopped
list3,,0.6417,0.6419,30766,001,2025-10-19_16h33.30.268,HW_LDT_1,2024.2.4,MacIntel,60.24096386,,,,,,,,,,,,,,,,,,,,,,,,,,,,,,,,,,,,,,,,,,,,,,,,,,,,,,,,,,,,,,,,,,,,,,,,,,,,,,,,,,,,,,,,,,,,,,,,,,,,,,,,,,,,,,,,,,,,,,,,
,,,,30766,001,2025-10-19_16h33.30.268,HW_LDT_1,2024.2.4,MacIntel,60.24096386,0.664,23.1551,,-0.043112642,-0.392643723,1,0,0,instr_done_button,0,0,0,0,1,1,instructions,"INSTRUCTIONS
At the start of each trial, look at the plus sign  (+) in the center of the screen.  This tells you that a trial is about to begin and where to look. Second, the plus sign will disappear and a string of letters will appear. Your task is to determine if the string of letters is a word or not. If the item is a word press the M key (on keyboard)  or touch the word button (phone/tablet).  If the item is not a word,  press the  Z key (on keyboard)  or touch the nonword button (on phone/tablet). The items will be presented for a short time. 
Press the space bar or touch  continue.",0,,,,,,,,,,,,,,,,,,,,,,,,,,,,,,,,,,,,,,,,,,,,,,,,,,,,,,,,,,,,,,,,,,,,,,,,,,,,,,,,,,,,,,,,,,,,,,,,,,,,,,
,,,,30766,001,2025-10-19_16h33.30.268,HW_LDT_1,2024.2.4,MacIntel,60.24096386,23.1574,31.3221,space,-0.044225691,-0.391276747,0,0,0,,0,1,1,1,1,2,instructions,"If your device has a keyboard, press the 'Z' key for nonwords and the 'M' key for words.





Press the space bar or touch the button below to continue.",0,keyboard-example.gif,8.1363,,,,,,,,,,,,,,,,,,,,,,,,,,,,,,,,,,,,,,,,,,,,,,,,,,,,,,,,,,,,,,,,,,,,,,,,,,,,,,,,,,,,,,,,,,,,,,,,,,,,
,,,,30766,001,2025-10-19_16h33.30.268,HW_LDT_1,2024.2.4,MacIntel,60.24096386,31.324,34.5385,space,-0.044225691,-0.391276747,0,0,0,,0,2,2,2,1,3,instructions,"If you are using a touchscreen only device, use the buttons on the screen. Do not use the mouse.





Press the space bar or touch the button below to continue.",0,touchscreen-example.gif,3.1899,,,,,,,,,,,,,,,,,,,,,,,,,,,,,,,,,,,,,,,,,,,,,,,,,,,,,,,,,,,,,,,,,,,,,,,,,,,,,,,,,,,,,,,,,,,,,,,,,,,,
,,,,30766,001,2025-10-19_16h33.30.268,HW_LDT_1,2024.2.4,MacIntel,60.24096386,34.5411,180.9531,space,-0.044225691,-0.391276747,0,0,0,,0,3,3,3,1,4,instructions,"It is very important that you respond as quickly and accurately as possible, as each letter string will only be on the screen for two seconds. If you do not respond within this time, the message 'Too slow!' will be displayed and the experiment will progress to the next letter string. The first 20 trials will be practice trials and you will receive feedback on your answers. 

Press the space bar or touch the button below to start the practice trials.",0,,146.3821,,,,,,,,,,,,,,,,,,,,,,,,,,,,,,,,,,,,,,,,,,,,,,,,,,,,,,,,,,,,,,,,,,,,,,,,,,,,,,,,,,,,,,,,,,,,,,,,,,,,
,,,,30766,001,2025-10-19_16h33.30.268,HW_LDT_1,2024.2.4,MacIntel,60.24096386,,,,,,,,,,,,,,,,,,,,,,180.9799,181.153,181.1534,181.653,181.6535,184.0189,z,1,2.334,,[],[],[],[],[],[],[],2.334,1,184.0193,184.5199,0,0,0,11,1,1012,NW,"ID",16,rashet,RASHET,z,,,,,,,,,,,,,,,,,,,,,,,,,,,,,,,,,,,,,,,,,,,,,,,,,,,,,,,,,,,,,,,,,,
,,,,30766,001,2025-10-19_16h33.30.268,HW_LDT_1,2024.2.4,MacIntel,60.24096386,,,,,,,,,,,,,,,,,,,,,,184.5237,184.7194,184.7194,185.2191,185.2198,186.103,z,1,0.8611,,[],[],[],[],[],[],[],0.8611,1,186.103,186.6019,0,1,1,15,1,1016,NW,UN,16,mushed,WHAISE,z,,,,,,,,,,,,,,,,,,,,,,,,,,,,,,,,,,,,,,,,,,,,,,,,,,,,,,,,,,,,,,,,,,
,,,,30766,001,2025-10-19_16h33.30.268,HW_LDT_1,2024.2.4,MacIntel,60.24096386,,,,,,,,,,,,,,,,,,,,,,186.6031,186.8028,186.8029,187.3028,187.3037,187.8695,m,1,0.5517,,[],[],[],[],[],[],[],0.5517,1,187.8696,188.3697,0,2,2,7,1,1008,WORD,UN,16,hurdle,VOLUME,m,,,,,,,,,,,,,,,,,,,,,,,,,,,,,,,,,,,,,,,,,,,,,,,,,,,,,,,,,,,,,,,,,,
,,,,30766,001,2025-10-19_16h33.30.268,HW_LDT_1,2024.2.4,MacIntel,60.24096386,,,,,,,,,,,,,,,,,,,,,,188.3707,188.5693,188.5693,189.0695,189.0702,189.7528,m,1,0.6632,,[],[],[],[],[],[],[],0.6632,1,189.753,190.2528,0,3,3,3,1,1004,WORD,"ID",16,matrix,MATRIX,m,,,,,,,,,,,,,,,,,,,,,,,,,,,,,,,,,,,,,,,,,,,,,,,,,,,,,,,,,,,,,,,,,,
,,,,30766,001,2025-10-19_16h33.30.268,HW_LDT_1,2024.2.4,MacIntel,60.24096386,,,,,,,,,,,,,,,,,,,,,,190.2541,190.4523,190.4523,190.9526,190.9534,191.8858,z,1,0.9126,,[],[],[],[],[],[],[],0.9126,1,191.8859,192.3862,0,4,4,9,1,1010,NW,"ID",33,fariny,FARINY,z,,,,,,,,,,,,,,,,,,,,,,,,,,,,,,,,,,,,,,,,,,,,,,,,,,,,,,,,,,,,,,,,,,
,,,,30766,001,2025-10-19_16h33.30.268,HW_LDT_1,2024.2.4,MacIntel,60.24096386,,,,,,,,,,,,,,,,,,,,,,192.3872,192.586,192.5861,193.0862,193.0869,193.9185,z,1,0.811,,[],[],[],[],[],[],[],0.811,1,193.9186,194.4193,0,5,5,14,1,1015,NW,UN,16,miaber,THRALE,z,,,,,,,,,,,,,,,,,,,,,,,,,,,,,,,,,,,,,,,,,,,,,,,,,,,,,,,,,,,,,,,,,,
,,,,30766,001,2025-10-19_16h33.30.268,HW_LDT_1,2024.2.4,MacIntel,60.24096386,,,,,,,,,,,,,,,,,,,,,,194.4209,194.6184,194.6185,195.1184,195.1192,195.6693,m,1,0.5421,,[],[],[],[],[],[],[],0.5421,1,195.6696,196.1684,0,6,6,0,1,1001,WORD,"ID",33,utopia,UTOPIA,m,,,,,,,,,,,,,,,,,,,,,,,,,,,,,,,,,,,,,,,,,,,,,,,,,,,,,,,,,,,,,,,,,,
,,,,30766,001,2025-10-19_16h33.30.268,HW_LDT_1,2024.2.4,MacIntel,60.24096386,,,,,,,,,,,,,,,,,,,,,,196.1697,196.3687,196.3687,196.8683,196.869,197.5527,m,1,0.6634,,[],[],[],[],[],[],[],0.6634,1,197.5529,198.0528,0,7,7,6,1,1007,WORD,UN,16,tropic,ZOMBIE,m,,,,,,,,,,,,,,,,,,,,,,,,,,,,,,,,,,,,,,,,,,,,,,,,,,,,,,,,,,,,,,,,,,
,,,,30766,001,2025-10-19_16h33.30.268,HW_LDT_1,2024.2.4,MacIntel,60.24096386,,,,,,,,,,,,,,,,,,,,,,198.0539,198.2527,198.2528,198.7517,198.7525,199.4026,m,1,0.6414,,[],[],[],[],[],[],[],0.6414,1,199.4027,199.9017,0,8,8,4,1,1005,WORD,UN,33,abound,SQUEAK,m,,,,,,,,,,,,,,,,,,,,,,,,,,,,,,,,,,,,,,,,,,,,,,,,,,,,,,,,,,,,,,,,,,
,,,,30766,001,2025-10-19_16h33.30.268,HW_LDT_1,2024.2.4,MacIntel,60.24096386,,,,,,,,,,,,,,,,,,,,,,199.9029,200.1017,200.1017,200.6016,200.6025,201.3028,m,1,0.6916,,[],[],[],[],[],[],[],0.6916,1,201.3029,201.8016,0,9,9,1,1,1002,WORD,"ID",33,adjust,ADJUST,m,,,,,,,,,,,,,,,,,,,,,,,,,,,,,,,,,,,,,,,,,,,,,,,,,,,,,,,,,,,,,,,,,,
,,,,30766,001,2025-10-19_16h33.30.268,HW_LDT_1,2024.2.4,MacIntel,60.24096386,,,,,,,,,,,,,,,,,,,,,,201.8028,202.0027,202.0027,202.5017,202.5023,203.3193,z,1,0.802,,[],[],[],[],[],[],[],0.802,1,203.3195,203.8194,0,10,10,10,1,1011,NW,"ID",16,inlade,INLADE,z,,,,,,,,,,,,,,,,,,,,,,,,,,,,,,,,,,,,,,,,,,,,,,,,,,,,,,,,,,,,,,,,,,
,,,,30766,001,2025-10-19_16h33.30.268,HW_LDT_1,2024.2.4,MacIntel,60.24096386,,,,,,,,,,,,,,,,,,,,,,203.8208,204.0193,204.0193,204.5182,204.519,205.0849,m,1,0.5485,,[],[],[],[],[],[],[],0.5485,1,205.0851,205.5849,0,11,11,2,1,1003,WORD,"ID",16,almond,ALMOND,m,,,,,,,,,,,,,,,,,,,,,,,,,,,,,,,,,,,,,,,,,,,,,,,,,,,,,,,,,,,,,,,,,,
,,,,30766,001,2025-10-19_16h33.30.268,HW_LDT_1,2024.2.4,MacIntel,60.24096386,,,,,,,,,,,,,,,,,,,,,,205.5861,205.786,205.786,206.2849,206.2856,207.035,z,1,0.7294,,[],[],[],[],[],[],[],0.7294,1,207.035,207.5359,0,12,12,13,1,1014,NW,UN,33,winfer,ROUPET,z,,,,,,,,,,,,,,,,,,,,,,,,,,,,,,,,,,,,,,,,,,,,,,,,,,,,,,,,,,,,,,,,,,
,,,,30766,001,2025-10-19_16h33.30.268,HW_LDT_1,2024.2.4,MacIntel,60.24096386,,,,,,,,,,,,,,,,,,,,,,207.5371,207.7358,207.7359,208.2359,208.2367,208.986,z,1,0.7283,,[],[],[],[],[],[],[],0.7283,1,208.9861,209.4859,0,13,13,12,1,1013,NW,UN,33,adveil,SPRINY,z,,,,,,,,,,,,,,,,,,,,,,,,,,,,,,,,,,,,,,,,,,,,,,,,,,,,,,,,,,,,,,,,,,
,,,,30766,001,2025-10-19_16h33.30.268,HW_LDT_1,2024.2.4,MacIntel,60.24096386,,,,,,,,,,,,,,,,,,,,,,209.4872,209.6858,209.6859,210.1852,210.1863,211.0691,z,1,0.8754,,[],[],[],[],[],[],[],0.8754,1,211.0692,211.5681,0,14,14,8,1,1009,NW,"ID",33,aslert,ASLERT,z,,,,,,,,,,,,,,,,,,,,,,,,,,,,,,,,,,,,,,,,,,,,,,,,,,,,,,,,,,,,,,,,,,
,,,,30766,001,2025-10-19_16h33.30.268,HW_LDT_1,2024.2.4,MacIntel,60.24096386,,,,,,,,,,,,,,,,,,,,,,211.5692,211.7682,211.7683,212.2682,212.2688,212.9851,m,1,0.7075,,[],[],[],[],[],[],[],0.7075,1,212.9852,213.486,0,15,15,5,1,1006,WORD,UN,33,frenzy,OBTAIN,m,,,,,,,,,,,,,,,,,,,,,,,,,,,,,,,,,,,,,,,,,,,,,,,,,,,,,,,,,,,,,,,,,,
,,,,30766,001,2025-10-19_16h33.30.268,HW_LDT_1,2024.2.4,MacIntel,60.24096386,,,,,,,,,,,,,,,1,end_of_practice,"You have completed the practice trials. During the experimental trials, you will not receive feedback. On some trials you will be asked to report whether the item you just saw was in cursive or print. 
Before you begin, please ensure that you are in a comfortable and quiet location and will not be disturbed for about 15 minutes, as we cannot use your data if you do not complete all the trials. 
 When you are ready to start the experimental trials, please press space or touch the button below.",,,,,,,,,,,,,,,,,,,,,,,,,,,,,,,,,,,,,,213.4927,225.9195,space,12.4126,,-0.044225691,-0.391276747,0,0,0,0,0,0,0,1,,,,,,,,,,,,,,,,,,,,,,,,,,,,,,,,,,,,,,,,,,,,,,,,,,,
,,,,30766,001,2025-10-19_16h33.30.268,HW_LDT_1,2024.2.4,MacIntel,60.24096386,,,,,,,,,,,,,,,,,,,,,,225.9383,226.1184,226.1184,226.619,,,,,,,,,,,,,,2.2809,1,,,,,,,,,,,,,,z,,,,,,,,,,,,,,,,1,0,226.622,228.9195,z,1,2.2809,,[],[],[],[],[],[],[],228.9198,230.9191,230.9193,230.9224,[],[],[],[],[],[],[],,230.9224,230.9241,-0.044225691,-0.391276747,0,0,0,,0,0,0,1,1,3,RL,bewoted,cursive,bewoted_c.png,,,,,,
,,,,30766,001,2025-10-19_16h33.30.268,HW_LDT_1,2024.2.4,MacIntel,60.24096386,,,,,,,,,,,,,,,,,,,,,,230.9249,231.1179,231.1179,231.6189,,,,,,,,,,,,,,1.8856,1,,,,,,,,,,,,,,m,,,,,,,,,,,,,,,,2,1,231.6194,233.5179,m,1,1.8856,,[],[],[],[],[],[],[],233.518,235.5179,235.5179,238.1687,[],[],[],[],[],[],[],m,238.1689,238.1691,-0.044225691,-0.391276747,0,0,0,,0,1,1,82,1,3,word,AMATEUR,print,amateur_p.png,2.6398,,,,,
,,,,30766,001,2025-10-19_16h33.30.268,HW_LDT_1,2024.2.4,MacIntel,60.24096386,,,,,,,,,,,,,,,,,,,,,,238.1702,238.3687,238.3688,238.8686,,,,,,,,,,,,,,1.5823,1,,,,,,,,,,,,,,m,,,,,,,,,,,,,,,,3,0,238.8692,240.4524,m,1,1.5823,,[],[],[],[],[],[],[],240.4525,242.4519,242.4519,242.4522,[],[],[],[],[],[],[],,242.4522,242.4524,-0.044225691,-0.391276747,0,0,0,,0,2,2,81,1,3,word,ADVISORY,print,advisory_p.png,,,,,,
,,,,30766,001,2025-10-19_16h33.30.268,HW_LDT_1,2024.2.4,MacIntel,60.24096386,,,,,,,,,,,,,,,,,,,,,,242.4535,242.6521,242.6522,243.1521,,,,,,,,,,,,,,2.504,1,,,,,,,,,,,,,,z,,,,,,,,,,,,,,,,4,0,243.1527,245.6689,z,1,2.504,,[],[],[],[],[],[],[],245.6689,247.6677,247.6678,247.6679,[],[],[],[],[],[],[],,247.668,247.6681,-0.044225691,-0.391276747,0,0,0,,0,3,3,48,1,3,TL,grafetul,cursive,grafetul_c.png,,,,,,
,,,,30766,001,2025-10-19_16h33.30.268,HW_LDT_1,2024.2.4,MacIntel,60.24096386,,,,,,,,,,,,,,,,,,,,,,247.669,247.8687,247.8688,248.3686,,,,,,,,,,,,,,2.922,1,,,,,,,,,,,,,,m,,,,,,,,,,,,,,,,5,0,248.3691,251.3019,m,1,2.922,,[],[],[],[],[],[],[],251.3021,253.3018,253.3018,253.302,[],[],[],[],[],[],[],,253.3021,253.3022,-0.044225691,-0.391276747,0,0,0,,0,4,4,109,1,3,word,GRATEFUL,cursive,grateful_c.png,,,,,,
,,,,30766,001,2025-10-19_16h33.30.268,HW_LDT_1,2024.2.4,MacIntel,60.24096386,,,,,,,,,,,,,,,,,,,,,,253.3032,253.5009,253.501,254.001,,,,,,,,,,,,,,3.0535,0,,,,,,,,,,,,,,z,,,,,,,,,,,,,,,,6,1,254.0015,257.0677,m,0,3.0535,,[],[],[],[],[],[],[],257.0677,259.0686,259.0687,260.451,[],[],[],[],[],[],[],m,260.4511,260.4512,-0.044225691,-0.391276747,0,0,0,,0,5,5,58,1,3,TL,nuremical,print,nuremical_p.png,1.3706,,,,,
,,,,30766,001,2025-10-19_16h33.30.268,HW_LDT_1,2024.2.4,MacIntel,60.24096386,,,,,,,,,,,,,,,,,,,,,,260.4522,260.6509,260.6509,261.1511,,,,,,,,,,,,,,2.5428,1,,,,,,,,,,,,,,z,,,,,,,,,,,,,,,,7,1,261.1515,263.7018,z,1,2.5428,,[],[],[],[],[],[],[],263.702,265.7008,265.7009,267.2686,[],[],[],[],[],[],[],z,267.2687,267.2688,-0.044225691,-0.391276747,0,0,0,,0,6,6,76,1,3,TL,stogare,cursive,stogare_c.png,1.5536,,,,,
,,,,30766,001,2025-10-19_16h33.30.268,HW_LDT_1,2024.2.4,MacIntel,60.24096386,,,,,,,,,,,,,,,,,,,,,,267.2698,267.4684,267.4685,267.9684,,,,,,,,,,,,,,3.3861,0,,,,,,,,,,,,,,z,,,,,,,,,,,,,,,,8,0,267.9689,271.3684,m,0,3.3861,,[],[],[],[],[],[],[],271.3685,273.3676,273.3676,273.3678,[],[],[],[],[],[],[],,273.3679,273.3679,-0.044225691,-0.391276747,0,0,0,,0,7,7,52,1,3,TL,locigal,cursive,locigal_c.png,,,,,,
,,,,30766,001,2025-10-19_16h33.30.268,HW_LDT_1,2024.2.4,MacIntel,60.24096386,,,,,,,,,,,,,,,,,,,,,,273.3689,273.5674,273.5674,274.0683,,,,,,,,,,,,,,1.1709,1,,,,,,,,,,,,,,z,,,,,,,,,,,,,,,,9,1,274.0688,275.2507,z,1,1.1709,,[],[],[],[],[],[],[],275.2508,277.2516,277.2517,278.1851,[],[],[],[],[],[],[],z,278.1851,278.1853,-0.044225691,-0.391276747,0,0,0,,0,8,8,4,1,3,RL,cafigal,cursive,cafigal_c.png,0.9197,,,,,
,,,,30766,001,2025-10-19_16h33.30.268,HW_LDT_1,2024.2.4,MacIntel,60.24096386,,,,,,,,,,,,,,,,,,,,,,278.1863,278.385,278.385,278.885,,,,,,,,,,,,,,0.7194,1,,,,,,,,,,,,,,m,,,,,,,,,,,,,,,,10,0,278.8855,279.6184,m,1,0.7194,,[],[],[],[],[],[],[],279.6186,281.6178,281.6178,281.6178,[],[],[],[],[],[],[],,281.6179,281.6179,-0.044225691,-0.391276747,0,0,0,,0,9,9,105,1,3,word,EDITOR,print,editor_p.png,,,,,,
,,,,30766,001,2025-10-19_16h33.30.268,HW_LDT_1,2024.2.4,MacIntel,60.24096386,,,,,,,,,,,,,,,,,,,,,,281.6183,281.8178,281.8178,282.3179,,,,,,,,,,,,,,2.4856,1,,,,,,,,,,,,,,z,,,,,,,,,,,,,,,,11,0,282.3181,284.8183,z,1,2.4856,,[],[],[],[],[],[],[],284.8184,286.8182,286.8183,286.8184,[],[],[],[],[],[],[],,286.8185,286.8185,-0.044225691,-0.391276747,0,0,0,,0,10,10,17,1,3,RL,motide,cursive,motide_c.png,,,,,,
,,,,30766,001,2025-10-19_16h33.30.268,HW_LDT_1,2024.2.4,MacIntel,60.24096386,,,,,,,,,,,,,,,,,,,,,,286.8195,287.0183,287.0183,287.5182,,,,,,,,,,,,,,2.6656,1,,,,,,,,,,,,,,z,,,,,,,,,,,,,,,,12,0,287.5187,290.185,z,1,2.6656,,[],[],[],[],[],[],[],290.1851,292.1849,292.1849,292.185,[],[],[],[],[],[],[],,292.1851,292.1852,-0.044225691,-0.391276747,0,0,0,,0,11,11,36,1,3,TL,carema,cursive,carema_c.png,,,,,,
,,,,30766,001,2025-10-19_16h33.30.268,HW_LDT_1,2024.2.4,MacIntel,60.24096386,,,,,,,,,,,,,,,,,,,,,,292.1861,292.3844,292.3845,292.8846,,,,,,,,,,,,,,0.9855,1,,,,,,,,,,,,,,m,,,,,,,,,,,,,,,,13,0,292.8851,293.8848,m,1,0.9855,,[],[],[],[],[],[],[],293.885,295.8838,295.8839,295.8842,[],[],[],[],[],[],[],,295.8842,295.8844,-0.044225691,-0.391276747,0,0,0,,0,12,12,158,1,3,word,VELOCITY,cursive,velocity_c.png,,,,,,
,,,,30766,001,2025-10-19_16h33.30.268,HW_LDT_1,2024.2.4,MacIntel,60.24096386,,,,,,,,,,,,,,,,,,,,,,295.8854,296.0847,296.0847,296.5848,,,,,,,,,,,,,,2.1989,1,,,,,,,,,,,,,,m,,,,,,,,,,,,,,,,14,0,296.5853,298.785,m,1,2.1989,,[],[],[],[],[],[],[],298.785,300.7846,300.7847,300.7848,[],[],[],[],[],[],[],,300.7849,300.785,-0.044225691,-0.391276747,0,0,0,,0,13,13,143,1,3,word,REMOVAL,cursive,removal_c.png,,,,,,
,,,,30766,001,2025-10-19_16h33.30.268,HW_LDT_1,2024.2.4,MacIntel,60.24096386,,,,,,,,,,,,,,,,,,,,,,300.7859,300.9847,300.9847,301.4843,,,,,,,,,,,,,,0.67,1,,,,,,,,,,,,,,m,,,,,,,,,,,,,,,,15,0,301.4848,302.1672,m,1,0.67,,[],[],[],[],[],[],[],302.1673,304.168,304.168,304.1682,[],[],[],[],[],[],[],,304.1682,304.1683,-0.044225691,-0.391276747,0,0,0,,0,14,14,137,1,3,word,RAPIDLY,print,rapidly_p.png,,,,,,
,,,,30766,001,2025-10-19_16h33.30.268,HW_LDT_1,2024.2.4,MacIntel,60.24096386,,,,,,,,,,,,,,,,,,,,,,304.1692,304.3669,304.3669,304.867,,,,,,,,,,,,,,1.5501,1,,,,,,,,,,,,,,m,,,,,,,,,,,,,,,,16,0,304.8675,306.4182,m,1,1.5501,,[],[],[],[],[],[],[],306.4184,308.4178,308.4178,308.418,[],[],[],[],[],[],[],,308.418,308.4181,-0.044225691,-0.391276747,0,0,0,,0,15,15,117,1,3,word,MARINE,cursive,marine_c.png,,,,,,
,,,,30766,001,2025-10-19_16h33.30.268,HW_LDT_1,2024.2.4,MacIntel,60.24096386,,,,,,,,,,,,,,,,,,,,,,308.419,308.6179,308.6179,309.1178,,,,,,,,,,,,,,1.5149,1,,,,,,,,,,,,,,z,,,,,,,,,,,,,,,,17,0,309.1184,310.6345,z,1,1.5149,,[],[],[],[],[],[],[],310.6345,312.6346,312.6346,312.6348,[],[],[],[],[],[],[],,312.6348,312.6349,-0.044225691,-0.391276747,0,0,0,,0,16,16,18,1,3,RL,onegator,print,onegator_p.png,,,,,,
,,,,30766,001,2025-10-19_16h33.30.268,HW_LDT_1,2024.2.4,MacIntel,60.24096386,,,,,,,,,,,,,,,,,,,,,,312.6358,312.8345,312.8345,313.3335,,,,,,,,,,,,,,0.6693,0,,,,,,,,,,,,,,z,,,,,,,,,,,,,,,,18,0,313.334,314.018,m,0,0.6693,,[],[],[],[],[],[],[],314.0181,316.0178,316.0179,316.0181,[],[],[],[],[],[],[],,316.0181,316.0182,-0.044225691,-0.391276747,0,0,0,,0,17,17,77,1,3,TL,vadility,cursive,vadility_c.png,,,,,,
,,,,30766,001,2025-10-19_16h33.30.268,HW_LDT_1,2024.2.4,MacIntel,60.24096386,,,,,,,,,,,,,,,,,,,,,,316.0192,316.2177,316.2178,316.7178,,,,,,,,,,,,,,0.9019,1,,,,,,,,,,,,,,m,,,,,,,,,,,,,,,,19,0,316.7182,317.6345,m,1,0.9019,,[],[],[],[],[],[],[],317.6345,319.6344,319.6344,319.6345,[],[],[],[],[],[],[],,319.6346,319.6347,-0.044225691,-0.391276747,0,0,0,,0,18,18,155,1,3,word,STRATEGY,print,strategy_p.png,,,,,,
,,,,30766,001,2025-10-19_16h33.30.268,HW_LDT_1,2024.2.4,MacIntel,60.24096386,,,,,,,,,,,,,,,,,,,,,,319.6358,319.8344,319.8344,320.3343,,,,,,,,,,,,,,0.92,1,,,,,,,,,,,,,,z,,,,,,,,,,,,,,,,20,0,320.3349,321.2679,z,1,0.92,,[],[],[],[],[],[],[],321.268,323.2678,323.2678,323.2679,[],[],[],[],[],[],[],,323.268,323.2681,-0.044225691,-0.391276747,0,0,0,,0,19,19,10,1,3,RL,efibor,print,efibor_p.png,,,,,,
,,,,30766,001,2025-10-19_16h33.30.268,HW_LDT_1,2024.2.4,MacIntel,60.24096386,,,,,,,,,,,,,,,,,,,,,,323.2694,323.4677,323.4678,323.9677,,,,,,,,,,,,,,1.5654,1,,,,,,,,,,,,,,m,,,,,,,,,,,,,,,,21,0,323.9681,325.5343,m,1,1.5654,,[],[],[],[],[],[],[],325.5344,327.5344,327.5344,327.5346,[],[],[],[],[],[],[],,327.5346,327.5346,-0.044225691,-0.391276747,0,0,0,,0,20,20,141,1,3,word,RELIGION,print,religion_p.png,,,,,,
,,,,30766,001,2025-10-19_16h33.30.268,HW_LDT_1,2024.2.4,MacIntel,60.24096386,,,,,,,,,,,,,,,,,,,,,,327.5357,327.7343,327.7343,328.2335,,,,,,,,,,,,,,1.0047,1,,,,,,,,,,,,,,z,,,,,,,,,,,,,,,,22,0,328.234,329.2509,z,1,1.0047,,[],[],[],[],[],[],[],329.2509,331.2508,331.2509,331.251,[],[],[],[],[],[],[],,331.2511,331.2511,-0.044225691,-0.391276747,0,0,0,,0,21,21,60,1,3,TL,panert,print,panert_p.png,,,,,,
,,,,30766,001,2025-10-19_16h33.30.268,HW_LDT_1,2024.2.4,MacIntel,60.24096386,,,,,,,,,,,,,,,,,,,,,,331.2523,331.451,331.451,331.9509,,,,,,,,,,,,,,1.9989,1,,,,,,,,,,,,,,z,,,,,,,,,,,,,,,,23,0,331.9513,333.9509,z,1,1.9989,,[],[],[],[],[],[],[],333.951,335.9508,335.9509,335.9511,[],[],[],[],[],[],[],,335.9511,335.9512,-0.044225691,-0.391276747,0,0,0,,0,22,22,19,1,3,RL,opcifal,cursive,opcifal_c.png,,,,,,
,,,,30766,001,2025-10-19_16h33.30.268,HW_LDT_1,2024.2.4,MacIntel,60.24096386,,,,,,,,,,,,,,,,,,,,,,335.9524,336.1509,336.151,336.6508,,,,,,,,,,,,,,1.7361,1,,,,,,,,,,,,,,m,,,,,,,,,,,,,,,,24,0,336.6512,338.4009,m,1,1.7361,,[],[],[],[],[],[],[],338.401,340.4008,340.4009,340.4011,[],[],[],[],[],[],[],,340.4011,340.4012,-0.044225691,-0.391276747,0,0,0,,0,23,23,84,1,3,word,BELOVED,cursive,beloved_c.png,,,,,,
,,,,30766,001,2025-10-19_16h33.30.268,HW_LDT_1,2024.2.4,MacIntel,60.24096386,,,,,,,,,,,,,,,,,,,,,,340.4021,340.6004,340.6005,341.1008,,,,,,,,,,,,,,1.1189,1,,,,,,,,,,,,,,z,,,,,,,,,,,,,,,,25,0,341.1013,342.2342,z,1,1.1189,,[],[],[],[],[],[],[],342.2343,344.234,344.234,344.2342,[],[],[],[],[],[],[],,344.2343,344.2344,-0.044225691,-0.391276747,0,0,0,,0,24,24,26,1,3,RL,repifion,print,repifion_p.png,,,,,,
,,,,30766,001,2025-10-19_16h33.30.268,HW_LDT_1,2024.2.4,MacIntel,60.24096386,,,,,,,,,,,,,,,,,,,,,,344.2356,344.4334,344.4334,344.9339,,,,,,,,,,,,,,0.8681,1,,,,,,,,,,,,,,m,,,,,,,,,,,,,,,,26,0,344.9344,345.8173,m,1,0.8681,,[],[],[],[],[],[],[],345.8174,347.8174,347.8174,347.8175,[],[],[],[],[],[],[],,347.8177,347.8177,-0.044225691,-0.391276747,0,0,0,,0,25,25,113,1,3,word,LITERAL,print,literal_p.png,,,,,,
,,,,30766,001,2025-10-19_16h33.30.268,HW_LDT_1,2024.2.4,MacIntel,60.24096386,,,,,,,,,,,,,,,,,,,,,,347.8187,348.0174,348.0174,348.5174,,,,,,,,,,,,,,2.4814,1,,,,,,,,,,,,,,z,,,,,,,,,,,,,,,,27,0,348.518,351.0005,z,1,2.4814,,[],[],[],[],[],[],[],351.0006,353.0006,353.0007,353.0009,[],[],[],[],[],[],[],,353.001,353.001,-0.044225691,-0.391276747,0,0,0,,0,26,26,78,1,3,TL,vecolity,cursive,vecolity_c.png,,,,,,
,,,,30766,001,2025-10-19_16h33.30.268,HW_LDT_1,2024.2.4,MacIntel,60.24096386,,,,,,,,,,,,,,,,,,,,,,353.002,353.2006,353.2006,353.7006,,,,,,,,,,,,,,0.7691,0,,,,,,,,,,,,,,z,,,,,,,,,,,,,,,,28,1,353.701,354.484,m,0,0.7691,,[],[],[],[],[],[],[],354.4841,356.4839,356.4839,357.6672,[],[],[],[],[],[],[],z,357.6673,357.6675,-0.044225691,-0.391276747,0,0,0,,0,27,27,0,1,3,RL,afaneur,print,afaneur_p.png,1.1703,,,,,
,,,,30766,001,2025-10-19_16h33.30.268,HW_LDT_1,2024.2.4,MacIntel,60.24096386,,,,,,,,,,,,,,,,,,,,,,357.6684,357.8672,357.8672,358.3665,,,,,,,,,,,,,,1.8521,1,,,,,,,,,,,,,,m,,,,,,,,,,,,,,,,29,0,358.3671,360.2339,m,1,1.8521,,[],[],[],[],[],[],[],360.234,362.2327,362.2327,362.2328,[],[],[],[],[],[],[],,362.2329,362.233,-0.044225691,-0.391276747,0,0,0,,0,28,28,128,1,3,word,PACIFIC,cursive,pacific_c.png,,,,,,
,,,,30766,001,2025-10-19_16h33.30.268,HW_LDT_1,2024.2.4,MacIntel,60.24096386,,,,,,,,,,,,,,,,,,,,,,362.2341,362.4328,362.4328,362.9338,,,,,,,,,,,,,,0.7818,1,,,,,,,,,,,,,,z,,,,,,,,,,,,,,,,30,0,362.9342,363.7169,z,1,0.7818,,[],[],[],[],[],[],[],363.7171,365.7159,365.716,365.7162,[],[],[],[],[],[],[],,365.7162,365.7163,-0.044225691,-0.391276747,0,0,0,,0,29,29,22,1,3,RL,procogal,print,procogal_p.png,,,,,,
,,,,30766,001,2025-10-19_16h33.30.268,HW_LDT_1,2024.2.4,MacIntel,60.24096386,,,,,,,,,,,,,,,,,,,,,,365.7172,365.9171,365.9171,366.4172,,,,,,,,,,,,,,0.8919,1,,,,,,,,,,,,,,m,,,,,,,,,,,,,,,,31,0,366.4175,367.3171,m,1,0.8919,,[],[],[],[],[],[],[],367.3172,369.3159,369.316,369.3161,[],[],[],[],[],[],[],,369.3162,369.3162,-0.044225691,-0.391276747,0,0,0,,0,30,30,100,1,3,word,DECADE,cursive,decade_c.png,,,,,,
,,,,30766,001,2025-10-19_16h33.30.268,HW_LDT_1,2024.2.4,MacIntel,60.24096386,,,,,,,,,,,,,,,,,,,,,,369.3173,369.517,369.517,370.016,,,,,,,,,,,,,,1.3039,0,,,,,,,,,,,,,,z,,,,,,,,,,,,,,,,32,0,370.0164,371.3336,m,0,1.3039,,[],[],[],[],[],[],[],371.3338,373.3335,373.3336,373.3338,[],[],[],[],[],[],[],,373.3338,373.3339,-0.044225691,-0.391276747,0,0,0,,0,31,31,72,1,3,TL,senmitent,print,senmitent_p.png,,,,,,
,,,,30766,001,2025-10-19_16h33.30.268,HW_LDT_1,2024.2.4,MacIntel,60.24096386,,,,,,,,,,,,,,,,,,,,,,373.3351,373.5335,373.5336,374.0336,,,,,,,,,,,,,,0.7149,1,,,,,,,,,,,,,,z,,,,,,,,,,,,,,,,33,1,374.0341,374.7503,z,1,0.7149,,[],[],[],[],[],[],[],374.7503,376.7502,376.7502,377.8335,[],[],[],[],[],[],[],m,377.8336,377.8337,-0.044225691,-0.391276747,0,0,0,,0,32,32,67,1,3,TL,retome,print,retome_p.png,1.0825,,,,,
,,,,30766,001,2025-10-19_16h33.30.268,HW_LDT_1,2024.2.4,MacIntel,60.24096386,,,,,,,,,,,,,,,,,,,,,,377.8346,378.0336,378.0336,378.5337,,,,,,,,,,,,,,2.2184,0,,,,,,,,,,,,,,m,,,,,,,,,,,,,,,,34,0,378.534,380.7659,z,0,2.2184,,[],[],[],[],[],[],[],380.766,382.767,382.767,382.7671,[],[],[],[],[],[],[],,382.7672,382.7673,-0.044225691,-0.391276747,0,0,0,,0,33,33,114,1,3,word,LOCATE,cursive,locate_c.png,,,,,,
,,,,30766,001,2025-10-19_16h33.30.268,HW_LDT_1,2024.2.4,MacIntel,60.24096386,,,,,,,,,,,,,,,,,,,,,,382.7681,382.9659,382.966,383.4658,,,,,,,,,,,,,,0.9381,1,,,,,,,,,,,,,,m,,,,,,,,,,,,,,,,35,0,383.4663,384.417,m,1,0.9381,,[],[],[],[],[],[],[],384.417,386.4167,386.4168,386.4169,[],[],[],[],[],[],[],,386.4169,386.417,-0.044225691,-0.391276747,0,0,0,,0,34,34,147,1,3,word,ROMANTIC,cursive,romantic_c.png,,,,,,
,,,,30766,001,2025-10-19_16h33.30.268,HW_LDT_1,2024.2.4,MacIntel,60.24096386,,,,,,,,,,,,,,,,,,,,,,386.4181,386.6168,386.6169,387.1168,,,,,,,,,,,,,,1.1582,1,,,,,,,,,,,,,,m,,,,,,,,,,,,,,,,36,0,387.1175,388.2826,m,1,1.1582,,[],[],[],[],[],[],[],388.2826,390.2834,390.2834,390.2836,[],[],[],[],[],[],[],,390.2836,390.2836,-0.044225691,-0.391276747,0,0,0,,0,35,35,145,1,3,word,RESUME,cursive,resume_c.png,,,,,,
,,,,30766,001,2025-10-19_16h33.30.268,HW_LDT_1,2024.2.4,MacIntel,60.24096386,,,,,,,,,,,,,,,,,,,,,,390.2848,390.4835,390.4835,390.9835,,,,,,,,,,,,,,0.7683,1,,,,,,,,,,,,,,z,,,,,,,,,,,,,,,,37,0,390.9839,391.7669,z,1,0.7683,,[],[],[],[],[],[],[],391.767,393.7668,393.7669,393.7671,[],[],[],[],[],[],[],,393.7671,393.7672,-0.044225691,-0.391276747,0,0,0,,0,36,36,21,1,3,RL,potugar,print,potugar_p.png,,,,,,
,,,,30766,001,2025-10-19_16h33.30.268,HW_LDT_1,2024.2.4,MacIntel,60.24096386,,,,,,,,,,,,,,,,,,,,,,393.768,393.9666,393.9666,394.4667,,,,,,,,,,,,,,0.6036,1,,,,,,,,,,,,,,m,,,,,,,,,,,,,,,,38,0,394.4673,395.0824,m,1,0.6036,,[],[],[],[],[],[],[],395.0825,397.0823,397.0824,397.0826,[],[],[],[],[],[],[],,397.0826,397.0827,-0.044225691,-0.391276747,0,0,0,,0,37,37,134,1,3,word,QUALIFY,print,qualify_p.png,,,,,,
,,,,30766,001,2025-10-19_16h33.30.268,HW_LDT_1,2024.2.4,MacIntel,60.24096386,,,,,,,,,,,,,,,,,,,,,,397.0836,397.2834,397.2834,397.7833,,,,,,,,,,,,,,1.3088,1,,,,,,,,,,,,,,m,,,,,,,,,,,,,,,,39,0,397.7838,399.1,m,1,1.3088,,[],[],[],[],[],[],[],399.1001,401.0999,401.0999,401.1001,[],[],[],[],[],[],[],,401.1001,401.1002,-0.044225691,-0.391276747,0,0,0,,0,38,38,150,1,3,word,SENTIMENT,print,sentiment_p.png,,,,,,
,,,,30766,001,2025-10-19_16h33.30.268,HW_LDT_1,2024.2.4,MacIntel,60.24096386,,,,,,,,,,,,,,,,,,,,,,401.1013,401.2986,401.2986,401.7989,,,,,,,,,,,,,,1.4363,1,,,,,,,,,,,,,,z,,,,,,,,,,,,,,,,40,0,401.7993,403.2489,z,1,1.4363,,[],[],[],[],[],[],[],403.249,405.2499,405.2499,405.2501,[],[],[],[],[],[],[],,405.2502,405.2502,-0.044225691,-0.391276747,0,0,0,,0,39,39,79,1,3,TL,veretan,cursive,veretan_c.png,,,,,,
,,,,30766,001,2025-10-19_16h33.30.268,HW_LDT_1,2024.2.4,MacIntel,60.24096386,,,,,,,,,,,,,,,,,,,,,,405.2513,405.4498,405.45,405.9499,,,,,,,,,,,,,,1.2746,1,,,,,,,,,,,,,,m,,,,,,,,,,,,,,,,41,0,405.9502,407.2334,m,1,1.2746,,[],[],[],[],[],[],[],407.2335,409.2331,409.2333,409.2334,[],[],[],[],[],[],[],,409.2335,409.2338,-0.044225691,-0.391276747,0,0,0,,0,40,40,88,1,3,word,CAMERA,cursive,camera_c.png,,,,,,
,,,,30766,001,2025-10-19_16h33.30.268,HW_LDT_1,2024.2.4,MacIntel,60.24096386,,,,,,,,,,,,,,,,,,,,,,409.235,409.4331,409.4332,409.933,,,,,,,,,,,,,,2.1422,1,,,,,,,,,,,,,,z,,,,,,,,,,,,,,,,42,0,409.9334,412.0821,z,1,2.1422,,[],[],[],[],[],[],[],412.0822,414.0829,414.083,414.0831,[],[],[],[],[],[],[],,414.0832,414.0833,-0.044225691,-0.391276747,0,0,0,,0,41,41,66,1,3,TL,retalive,cursive,retalive_c.png,,,,,,
,,,,30766,001,2025-10-19_16h33.30.268,HW_LDT_1,2024.2.4,MacIntel,60.24096386,,,,,,,,,,,,,,,,,,,,,,414.0844,414.2831,414.2831,414.7826,,,,,,,,,,,,,,0.8155,0,,,,,,,,,,,,,,m,,,,,,,,,,,,,,,,43,0,414.7832,415.5996,z,0,0.8155,,[],[],[],[],[],[],[],415.5996,417.5997,417.5997,417.5999,[],[],[],[],[],[],[],,417.5999,417.6,-0.044225691,-0.391276747,0,0,0,,0,42,42,110,1,3,word,HERITAGE,cursive,heritage_c.png,,,,,,
,,,,30766,001,2025-10-19_16h33.30.268,HW_LDT_1,2024.2.4,MacIntel,60.24096386,,,,,,,,,,,,,,,,,,,,,,417.6011,417.7998,417.7999,418.2998,,,,,,,,,,,,,,1.005,0,,,,,,,,,,,,,,z,,,,,,,,,,,,,,,,44,0,418.3003,419.3153,m,0,1.005,,[],[],[],[],[],[],[],419.3155,421.3162,421.3163,421.3165,[],[],[],[],[],[],[],,421.3165,421.3165,-0.044729313,-0.391276747,0,0,0,,0,43,43,47,1,3,TL,elarobate,print,elarobate_p.png,,,,,,
,,,,30766,001,2025-10-19_16h33.30.268,HW_LDT_1,2024.2.4,MacIntel,60.24096386,,,,,,,,,,,,,,,,,,,,,,421.3177,421.5163,421.5164,422.0153,,,,,,,,,,,,,,1.3382,1,,,,,,,,,,,,,,m,,,,,,,,,,,,,,,,45,0,422.0157,423.3657,m,1,1.3382,,[],[],[],[],[],[],[],423.3659,425.3663,425.3664,425.3665,[],[],[],[],[],[],[],,425.3666,425.3667,-0.044729313,-0.391276747,0,0,0,,0,44,44,152,1,3,word,SPECIMEN,print,specimen_p.png,,,,,,
,,,,30766,001,2025-10-19_16h33.30.268,HW_LDT_1,2024.2.4,MacIntel,60.24096386,,,,,,,,,,,,,,,,,,,,,,425.3677,425.5652,425.5653,426.0662,,,,,,,,,,,,,,0.6491,1,,,,,,,,,,,,,,m,,,,,,,,,,,,,,,,46,0,426.0666,426.7162,m,1,0.6491,,[],[],[],[],[],[],[],426.7163,428.7161,428.7162,428.7163,[],[],[],[],[],[],[],,428.7163,428.7164,-0.044729313,-0.391276747,0,0,0,,0,45,45,118,1,3,word,MEDICINE,print,medicine_p.png,,,,,,
,,,,30766,001,2025-10-19_16h33.30.268,HW_LDT_1,2024.2.4,MacIntel,60.24096386,,,,,,,,,,,,,,,,,,,,,,428.7173,428.9152,428.9153,429.4162,,,,,,,,,,,,,,2.098,1,,,,,,,,,,,,,,z,,,,,,,,,,,,,,,,47,0,429.4166,431.5161,z,1,2.098,,[],[],[],[],[],[],[],431.5162,433.5154,433.5155,433.5156,[],[],[],[],[],[],[],,433.5157,433.5159,-0.040950027,-0.388525867,0,0,0,,0,46,46,53,1,3,TL,marnigal,print,marnigal_p.png,,,,,,
,,,,30766,001,2025-10-19_16h33.30.268,HW_LDT_1,2024.2.4,MacIntel,60.24096386,,,,,,,,,,,,,,,,,,,,,,433.517,433.7161,433.7162,434.2163,,,,,,,,,,,,,,2.6416,1,,,,,,,,,,,,,,z,,,,,,,,,,,,,,,,48,0,434.2167,436.8663,z,1,2.6416,,[],[],[],[],[],[],[],436.8663,438.8652,438.8652,438.8653,[],[],[],[],[],[],[],,438.8654,438.8654,-0.040446404,-0.386452126,0,0,0,,0,47,47,25,1,3,RL,retupar,print,retupar_p.png,,,,,,
,,,,30766,001,2025-10-19_16h33.30.268,HW_LDT_1,2024.2.4,MacIntel,60.24096386,,,,,,,,,,,,,,,,,,,,,,438.8666,439.066,439.066,439.565,,,,,,,,,,,,,,0.7027,0,,,,,,,,,,,,,,z,,,,,,,,,,,,,,,,49,0,439.5655,440.2826,m,0,0.7027,,[],[],[],[],[],[],[],440.2827,442.2817,442.2817,442.2818,[],[],[],[],[],[],[],,442.2819,442.2819,-0.040446404,-0.386452126,0,0,0,,0,48,48,73,1,3,TL,speficic,print,speficic_p.png,,,,,,
,,,,30766,001,2025-10-19_16h33.30.268,HW_LDT_1,2024.2.4,MacIntel,60.24096386,,,,,,,,,,,,,,,,,,,,,,442.283,442.4817,442.4818,442.9827,,,,,,,,,,,,,,0.8855,1,,,,,,,,,,,,,,m,,,,,,,,,,,,,,,,50,0,442.9833,443.8826,m,1,0.8855,,[],[],[],[],[],[],[],443.8827,445.8816,445.8817,445.8818,[],[],[],[],[],[],[],,445.8818,445.8819,-0.040446404,-0.386452126,0,0,0,,0,49,49,148,1,3,word,SALINE,cursive,saline_c.png,,,,,,
,,,,30766,001,2025-10-19_16h33.30.268,HW_LDT_1,2024.2.4,MacIntel,60.24096386,,,,,,,,,,,,,,,,,,,,,,445.8829,446.0822,446.0822,446.5826,,,,,,,,,,,,,,0.9224,1,,,,,,,,,,,,,,m,,,,,,,,,,,,,,,,51,0,446.5833,447.5159,m,1,0.9224,,[],[],[],[],[],[],[],447.5161,449.516,449.516,449.5161,[],[],[],[],[],[],[],,449.5162,449.5163,-0.040446404,-0.386452126,0,0,0,,0,50,50,144,1,3,word,RESIDENT,cursive,resident_c.png,,,,,,
,,,,30766,001,2025-10-19_16h33.30.268,HW_LDT_1,2024.2.4,MacIntel,60.24096386,,,,,,,,,,,,,,,,,,,,,,449.5174,449.716,449.716,450.216,,,,,,,,,,,,,,1.9685,1,,,,,,,,,,,,,,z,,,,,,,,,,,,,,,,52,0,450.2164,452.199,z,1,1.9685,,[],[],[],[],[],[],[],452.1991,454.1984,454.1985,454.1986,[],[],[],[],[],[],[],,454.1986,454.1987,-0.040446404,-0.386452126,0,0,0,,0,51,51,63,1,3,TL,racidal,cursive,racidal_c.png,,,,,,
,,,,30766,001,2025-10-19_16h33.30.268,HW_LDT_1,2024.2.4,MacIntel,60.24096386,,,,,,,,,,,,,,,,,,,,,,454.1997,454.3992,454.3992,454.8991,,,,,,,,,,,,,,1.6387,1,,,,,,,,,,,,,,m,,,,,,,,,,,,,,,,53,1,454.8997,456.5492,m,1,1.6387,,[],[],[],[],[],[],[],456.5492,458.5481,458.5481,460.7493,[],[],[],[],[],[],[],z,460.7494,460.7494,-0.040446404,-0.386452126,0,0,0,,0,52,52,138,1,3,word,REFUSAL,print,refusal_p.png,2.1877,,,,,
,,,,30766,001,2025-10-19_16h33.30.268,HW_LDT_1,2024.2.4,MacIntel,60.24096386,,,,,,,,,,,,,,,,,,,,,,460.7506,460.9491,460.9491,461.4491,,,,,,,,,,,,,,1.2703,1,,,,,,,,,,,,,,m,,,,,,,,,,,,,,,,54,0,461.4496,462.7326,m,1,1.2703,,[],[],[],[],[],[],[],462.7327,464.7324,464.7324,464.7325,[],[],[],[],[],[],[],,464.7326,464.7326,-0.040446404,-0.386452126,0,0,0,,0,53,53,157,1,3,word,VALIDITY,cursive,validity_c.png,,,,,,
,,,,30766,001,2025-10-19_16h33.30.268,HW_LDT_1,2024.2.4,MacIntel,60.24096386,,,,,,,,,,,,,,,,,,,,,,464.7335,464.9315,464.9316,465.4314,,,,,,,,,,,,,,0.6924,1,,,,,,,,,,,,,,m,,,,,,,,,,,,,,,,55,0,465.4317,466.1324,m,1,0.6924,,[],[],[],[],[],[],[],466.1324,468.1324,468.1324,468.1326,[],[],[],[],[],[],[],,468.1326,468.1327,-0.040446404,-0.386452126,0,0,0,,0,54,54,130,1,3,word,POLICY,print,policy_p.png,,,,,,
,,,,30766,001,2025-10-19_16h33.30.268,HW_LDT_1,2024.2.4,MacIntel,60.24096386,,,,,,,,,,,,,,,,,,,,,,468.1335,468.3314,468.3314,468.8323,,,,,,,,,,,,,,1.1208,1,,,,,,,,,,,,,,m,,,,,,,,,,,,,,,,56,0,468.8328,469.9648,m,1,1.1208,,[],[],[],[],[],[],[],469.9649,471.9656,471.9657,471.966,[],[],[],[],[],[],[],,471.966,471.9661,-0.040446404,-0.386202431,0,0,0,,0,55,55,111,1,3,word,INDICATE,print,indicate_p.png,,,,,,
,,,,30766,001,2025-10-19_16h33.30.268,HW_LDT_1,2024.2.4,MacIntel,60.24096386,,,,,,,,,,,,,,,,,,,,,,471.9675,472.1657,472.1658,472.6656,,,,,,,,,,,,,,0.5989,1,,,,,,,,,,,,,,m,,,,,,,,,,,,,,,,57,1,472.6659,473.2657,m,1,0.5989,,[],[],[],[],[],[],[],473.2658,475.2656,475.2656,476.5323,[],[],[],[],[],[],[],m,476.5323,476.5325,-0.040446404,-0.386202431,0,0,0,,0,56,56,102,1,3,word,DENSITY,print,density_p.png,1.2656,,,,,
,,,,30766,001,2025-10-19_16h33.30.268,HW_LDT_1,2024.2.4,MacIntel,60.24096386,,,,,,,,,,,,,,,,,,,,,,476.5333,476.7323,476.7323,477.2323,,,,,,,,,,,,,,1.1375,0,,,,,,,,,,,,,,m,,,,,,,,,,,,,,,,58,0,477.2327,478.3822,z,0,1.1375,,[],[],[],[],[],[],[],478.3823,480.3823,480.3823,480.3824,[],[],[],[],[],[],[],,480.3825,480.3826,-0.040446404,-0.386202431,0,0,0,,0,57,57,149,1,3,word,SENATOR,cursive,senator_c.png,,,,,,
,,,,30766,001,2025-10-19_16h33.30.268,HW_LDT_1,2024.2.4,MacIntel,60.24096386,,,,,,,,,,,,,,,,,,,,,,480.3838,480.5823,480.5823,481.0821,,,,,,,,,,,,,,1.1027,1,,,,,,,,,,,,,,z,,,,,,,,,,,,,,,,59,0,481.0827,482.1983,z,1,1.1027,,[],[],[],[],[],[],[],482.1983,484.1987,484.1988,484.1989,[],[],[],[],[],[],[],,484.1989,484.199,-0.040446404,-0.386202431,0,0,0,,0,58,58,50,1,3,TL,lirebal,print,lirebal_p.png,,,,,,
,,,,30766,001,2025-10-19_16h33.30.268,HW_LDT_1,2024.2.4,MacIntel,60.24096386,,,,,,,,,,,,,,,,,,,,,,484.2001,484.3987,484.3987,484.8988,,,,,,,,,,,,,,2.3321,0,,,,,,,,,,,,,,m,,,,,,,,,,,,,,,,60,1,484.8993,487.2322,z,0,2.3321,,[],[],[],[],[],[],[],487.2322,489.2322,489.2322,490.3646,[],[],[],[],[],[],[],z,490.3646,490.3649,-0.040446404,-0.386202431,0,0,0,,0,59,59,92,1,3,word,CATEGORY,cursive,category_c.png,1.1318,,,,,
,,,,30766,001,2025-10-19_16h33.30.268,HW_LDT_1,2024.2.4,MacIntel,60.24096386,,,,,,,,,,,,,,,,,,,,,,490.3659,490.5644,490.5644,491.0654,,,,,,,,,,,,,,0.6861,0,,,,,,,,,,,,,,z,,,,,,,,,,,,,,,,61,0,491.0658,491.7653,m,0,0.6861,,[],[],[],[],[],[],[],491.7654,493.7653,493.7653,493.7655,[],[],[],[],[],[],[],,493.7656,493.7656,-0.040446404,-0.386202431,0,0,0,,0,60,60,41,1,3,TL,crinimal,print,crinimal_p.png,,,,,,
,,,,30766,001,2025-10-19_16h33.30.268,HW_LDT_1,2024.2.4,MacIntel,60.24096386,,,,,,,,,,,,,,,,,,,,,,493.7667,493.9654,493.9655,494.4644,,,,,,,,,,,,,,1.2535,1,,,,,,,,,,,,,,z,,,,,,,,,,,,,,,,62,0,494.4648,495.7319,z,1,1.2535,,[],[],[],[],[],[],[],495.732,497.732,497.7321,497.7322,[],[],[],[],[],[],[],,497.7322,497.7323,-0.040446404,-0.386202431,0,0,0,,0,61,61,31,1,3,RL,trilude,print,trilude_p.png,,,,,,
,,,,30766,001,2025-10-19_16h33.30.268,HW_LDT_1,2024.2.4,MacIntel,60.24096386,,,,,,,,,,,,,,,,,,,,,,497.7332,497.931,497.931,498.4319,,,,,,,,,,,,,,0.6982,0,,,,,,,,,,,,,,z,,,,,,,,,,,,,,,,63,0,498.4324,499.1319,m,0,0.6982,,[],[],[],[],[],[],[],499.1319,501.1318,501.1318,501.132,[],[],[],[],[],[],[],,501.132,501.1321,-0.040446404,-0.385952736,0,0,0,,0,62,62,39,1,3,TL,clicinal,print,clicinal_p.png,,,,,,
,,,,30766,001,2025-10-19_16h33.30.268,HW_LDT_1,2024.2.4,MacIntel,60.24096386,,,,,,,,,,,,,,,,,,,,,,501.1332,501.3318,501.3318,501.8318,,,,,,,,,,,,,,1.6374,1,,,,,,,,,,,,,,m,,,,,,,,,,,,,,,,64,0,501.8324,503.4819,m,1,1.6374,,[],[],[],[],[],[],[],503.4819,505.4819,505.4819,505.4821,[],[],[],[],[],[],[],,505.4822,505.4822,-0.040446404,-0.385952736,0,0,0,,0,63,63,96,1,3,word,CONSIDER,print,consider_p.png,,,,,,
,,,,30766,001,2025-10-19_16h33.30.268,HW_LDT_1,2024.2.4,MacIntel,60.24096386,,,,,,,,,,,,,,,,,,,,,,505.4834,505.6817,505.6818,506.1808,,,,,,,,,,,,,,1.1328,1,,,,,,,,,,,,,,m,,,,,,,,,,,,,,,,65,0,506.1813,507.3151,m,1,1.1328,,[],[],[],[],[],[],[],507.3152,509.3152,509.3153,509.3153,[],[],[],[],[],[],[],,509.3154,509.3155,-0.040446404,-0.385952736,0,0,0,,0,64,64,85,1,3,word,BENEFIT,print,benefit_p.png,,,,,,
,,,,30766,001,2025-10-19_16h33.30.268,HW_LDT_1,2024.2.4,MacIntel,60.24096386,,,,,,,,,,,,,,,,,,,,,,509.3164,509.5152,509.5153,510.0152,,,,,,,,,,,,,,1.2419,1,,,,,,,,,,,,,,z,,,,,,,,,,,,,,,,66,0,510.0156,511.2645,z,1,1.2419,,[],[],[],[],[],[],[],511.2645,513.2651,513.2651,513.2653,[],[],[],[],[],[],[],,513.2654,513.2654,-0.040446404,-0.385952736,0,0,0,,0,65,65,62,1,3,TL,prodive,print,prodive_p.png,,,,,,
,,,,30766,001,2025-10-19_16h33.30.268,HW_LDT_1,2024.2.4,MacIntel,60.24096386,,,,,,,,,,,,,,,,,,,,,,513.2665,513.4652,513.4652,513.9644,,,,,,,,,,,,,,0.8323,0,,,,,,,,,,,,,,z,,,,,,,,,,,,,,,,67,0,513.9648,514.7983,m,0,0.8323,,[],[],[],[],[],[],[],514.7984,516.7985,516.7986,516.7988,[],[],[],[],[],[],[],,516.7989,516.7991,-0.040446404,-0.385952736,0,0,0,,0,66,66,64,1,3,TL,radiply,print,radiply_p.png,,,,,,
,,,,30766,001,2025-10-19_16h33.30.268,HW_LDT_1,2024.2.4,MacIntel,60.24096386,,,,,,,,,,,,,,,,,,,,,,516.8004,516.9984,516.9985,517.4975,,,,,,,,,,,,,,1.399,1,,,,,,,,,,,,,,z,,,,,,,,,,,,,,,,68,0,517.4978,518.8983,z,1,1.399,,[],[],[],[],[],[],[],518.8984,520.8984,520.8985,520.8987,[],[],[],[],[],[],[],,520.8987,520.8989,-0.0406961,-0.385952736,0,0,0,,0,67,67,29,1,3,RL,selamor,cursive,selamor_c.png,,,,,,
,,,,30766,001,2025-10-19_16h33.30.268,HW_LDT_1,2024.2.4,MacIntel,60.24096386,,,,,,,,,,,,,,,,,,,,,,520.9001,521.0984,521.0984,521.5983,,,,,,,,,,,,,,0.969,1,,,,,,,,,,,,,,z,,,,,,,,,,,,,,,,69,0,521.5987,522.5806,z,1,0.969,,[],[],[],[],[],[],[],522.5807,524.5815,524.5816,524.5817,[],[],[],[],[],[],[],,524.5818,524.5818,-0.0406961,-0.385952736,0,0,0,,0,68,68,44,1,3,TL,decilate,print,decilate_p.png,,,,,,
,,,,30766,001,2025-10-19_16h33.30.268,HW_LDT_1,2024.2.4,MacIntel,60.24096386,,,,,,,,,,,,,,,,,,,,,,524.5829,524.7816,524.7816,525.2817,,,,,,,,,,,,,,1.0054,1,,,,,,,,,,,,,,m,,,,,,,,,,,,,,,,70,0,525.2821,526.2981,m,1,1.0054,,[],[],[],[],[],[],[],526.2981,528.298,528.2981,528.2981,[],[],[],[],[],[],[],,528.2982,528.2984,-0.0406961,-0.385952736,0,0,0,,0,69,69,125,1,3,word,OPERATOR,print,operator_p.png,,,,,,
,,,,30766,001,2025-10-19_16h33.30.268,HW_LDT_1,2024.2.4,MacIntel,60.24096386,,,,,,,,,,,,,,,,,,,,,,528.2993,528.498,528.498,528.9982,,,,,,,,,,,,,,2.2194,0,,,,,,,,,,,,,,m,,,,,,,,,,,,,,,,71,0,528.9987,531.2315,z,0,2.2194,,[],[],[],[],[],[],[],531.2316,533.2315,533.2316,533.2317,[],[],[],[],[],[],[],,533.2317,533.2318,-0.0406961,-0.385952736,0,0,0,,0,70,70,90,1,3,word,CAPITAL,cursive,capital_c.png,,,,,,
,,,,30766,001,2025-10-19_16h33.30.268,HW_LDT_1,2024.2.4,MacIntel,60.24096386,,,,,,,,,,,,,,,,,,,,,,533.2327,533.4315,533.4316,533.9317,,,,,,,,,,,,,,1.2702,1,,,,,,,,,,,,,,m,,,,,,,,,,,,,,,,72,0,533.932,535.2148,m,1,1.2702,,[],[],[],[],[],[],[],535.2149,537.2147,537.2147,537.2148,[],[],[],[],[],[],[],,537.2148,537.215,-0.0406961,-0.385952736,0,0,0,,0,71,71,124,1,3,word,NUMERICAL,print,numerical_p.png,,,,,,
,,,,30766,001,2025-10-19_16h33.30.268,HW_LDT_1,2024.2.4,MacIntel,60.24096386,,,,,,,,,,,,,,,,,,,,,,537.216,537.4147,537.4148,537.9148,,,,,,,,,,,,,,0.9479,1,,,,,,,,,,,,,,m,,,,,,,,,,,,,,,,73,0,537.9151,538.8647,m,1,0.9479,,[],[],[],[],[],[],[],538.8649,540.8648,540.8648,540.8649,[],[],[],[],[],[],[],,540.865,540.865,-0.0406961,-0.385952736,0,0,0,,0,72,72,153,1,3,word,STOLEN,cursive,stolen_c.png,,,,,,
,,,,30766,001,2025-10-19_16h33.30.268,HW_LDT_1,2024.2.4,MacIntel,60.24096386,,,,,,,,,,,,,,,,,,,,,,540.866,541.0641,541.0642,541.5647,,,,,,,,,,,,,,2.2198,1,,,,,,,,,,,,,,z,,,,,,,,,,,,,,,,74,0,541.5652,543.7973,z,1,2.2198,,[],[],[],[],[],[],[],543.7974,545.7979,545.798,545.7981,[],[],[],[],[],[],[],,545.7982,545.7984,-0.0406961,-0.385952736,0,0,0,,0,73,73,42,1,3,TL,detabe,cursive,detabe_c.png,,,,,,
,,,,30766,001,2025-10-19_16h33.30.268,HW_LDT_1,2024.2.4,MacIntel,60.24096386,,,,,,,,,,,,,,,,,,,,,,545.7992,545.9979,545.998,546.4977,,,,,,,,,,,,,,0.9703,1,,,,,,,,,,,,,,m,,,,,,,,,,,,,,,,75,0,546.4986,547.4816,m,1,0.9703,,[],[],[],[],[],[],[],547.4816,549.4819,549.4822,549.4828,[],[],[],[],[],[],[],,549.4829,549.4831,-0.0406961,-0.385952736,0,0,0,,0,74,74,116,1,3,word,MARGINAL,print,marginal_p.png,,,,,,
,,,,30766,001,2025-10-19_16h33.30.268,HW_LDT_1,2024.2.4,MacIntel,60.24096386,,,,,,,,,,,,,,,,,,,,,,549.4913,549.6808,549.6808,550.1804,,,,,,,,,,,,,,1.7506,1,,,,,,,,,,,,,,z,,,,,,,,,,,,,,,,76,0,550.1818,551.9346,z,1,1.7506,,[],[],[],[],[],[],[],551.9347,553.9313,553.9313,553.9315,[],[],[],[],[],[],[],,553.9315,553.9316,-0.0406961,-0.385952736,0,0,0,,0,75,75,9,1,3,RL,docirant,print,docirant_p.png,,,,,,
,,,,30766,001,2025-10-19_16h33.30.268,HW_LDT_1,2024.2.4,MacIntel,60.24096386,,,,,,,,,,,,,,,,,,,,,,553.9328,554.1313,554.1313,554.6313,,,,,,,,,,,,,,1.3873,1,,,,,,,,,,,,,,z,,,,,,,,,,,,,,,,77,1,554.6318,556.0313,z,1,1.3873,,[],[],[],[],[],[],[],556.0313,558.0312,558.0313,559.3479,[],[],[],[],[],[],[],z,559.348,559.348,-0.0406961,-0.385952736,0,0,0,,0,76,76,49,1,3,TL,incidate,print,incidate_p.png,1.3053,,,,,
,,,,30766,001,2025-10-19_16h33.30.268,HW_LDT_1,2024.2.4,MacIntel,60.24096386,,,,,,,,,,,,,,,,,,,,,,559.3491,559.5476,559.5476,560.0476,,,,,,,,,,,,,,1.1416,1,,,,,,,,,,,,,,m,,,,,,,,,,,,,,,,78,0,560.0484,561.1978,m,1,1.1416,,[],[],[],[],[],[],[],561.1979,563.1973,563.1974,563.1975,[],[],[],[],[],[],[],,563.1975,563.1976,-0.0406961,-0.385952736,0,0,0,,0,77,77,87,1,3,word,CAFETERIA,print,cafeteria_p.png,,,,,,
,,,,30766,001,2025-10-19_16h33.30.268,HW_LDT_1,2024.2.4,MacIntel,60.24096386,,,,,,,,,,,,,,,,,,,,,,563.1986,563.3977,563.3977,563.8976,,,,,,,,,,,,,,2.2698,1,,,,,,,,,,,,,,z,,,,,,,,,,,,,,,,79,0,563.8981,566.1812,z,1,2.2698,,[],[],[],[],[],[],[],566.1814,568.181,568.181,568.1812,[],[],[],[],[],[],[],,568.1813,568.1813,-0.0406961,-0.385952736,0,0,0,,0,78,78,68,1,3,TL,revomal,cursive,revomal_c.png,,,,,,
,,,,30766,001,2025-10-19_16h33.30.268,HW_LDT_1,2024.2.4,MacIntel,60.24096386,,,,,,,,,,,,,,,,,,,,,,568.1831,568.381,568.381,568.8811,,,,,,,,,,,,,,2.5526,0,,,,,,,,,,,,,,m,,,,,,,,,,,,,,,,80,0,568.8815,571.4477,z,0,2.5526,,[],[],[],[],[],[],[],571.4478,573.4477,573.4477,573.4479,[],[],[],[],[],[],[],,573.448,592.6799,-0.0406961,-0.385952736,0,0,0,space,0,79,79,121,1,3,word,MISTAKE,cursive,mistake_c.png,,,19.1952,,,
,,,,30766,001,2025-10-19_16h33.30.268,HW_LDT_1,2024.2.4,MacIntel,60.24096386,,,,,,,,,,,,,,,,,,,,,,592.6811,592.8805,592.8806,593.3807,,,,,,,,,,,,,,2.1513,1,,,,,,,,,,,,,,m,,,,,,,,,,,,,,,,81,0,593.3811,595.5473,m,1,2.1513,,[],[],[],[],[],[],[],595.5474,597.5473,597.5473,597.5475,[],[],[],[],[],[],[],,597.5475,597.5476,-0.0406961,-0.385952736,0,0,0,,0,80,80,115,1,3,word,LOGICAL,cursive,logical_c.png,,,,,,
,,,,30766,001,2025-10-19_16h33.30.268,HW_LDT_1,2024.2.4,MacIntel,60.24096386,,,,,,,,,,,,,,,,,,,,,,597.5486,597.7464,597.7464,598.2466,,,,,,,,,,,,,,0.7868,1,,,,,,,,,,,,,,m,,,,,,,,,,,,,,,,82,0,598.247,599.0473,m,1,0.7868,,[],[],[],[],[],[],[],599.0473,601.0471,601.0472,601.0474,[],[],[],[],[],[],[],,601.0474,601.0474,-0.0406961,-0.385952736,0,0,0,,0,81,81,136,1,3,word,RADICAL,cursive,radical_c.png,,,,,,
,,,,30766,001,2025-10-19_16h33.30.268,HW_LDT_1,2024.2.4,MacIntel,60.24096386,,,,,,,,,,,,,,,,,,,,,,601.0486,601.2472,601.2472,601.7462,,,,,,,,,,,,,,1.3039,1,,,,,,,,,,,,,,z,,,,,,,,,,,,,,,,83,0,601.7466,603.064,z,1,1.3039,,[],[],[],[],[],[],[],603.0641,605.0628,605.0628,605.0629,[],[],[],[],[],[],[],,605.063,605.0631,-0.0406961,-0.385952736,0,0,0,,0,82,82,16,1,3,RL,mishafe,cursive,mishafe_c.png,,,,,,
,,,,30766,001,2025-10-19_16h33.30.268,HW_LDT_1,2024.2.4,MacIntel,60.24096386,,,,,,,,,,,,,,,,,,,,,,605.064,605.2628,605.2628,605.7638,,,,,,,,,,,,,,1.9026,1,,,,,,,,,,,,,,z,,,,,,,,,,,,,,,,84,0,605.7645,607.6805,z,1,1.9026,,[],[],[],[],[],[],[],607.6806,609.6804,609.6805,609.6806,[],[],[],[],[],[],[],,609.6807,609.6808,-0.0406961,-0.385952736,0,0,0,,0,83,83,38,1,3,TL,carnidal,print,carnidal_p.png,,,,,,
,,,,30766,001,2025-10-19_16h33.30.268,HW_LDT_1,2024.2.4,MacIntel,60.24096386,,,,,,,,,,,,,,,,,,,,,,609.6818,609.8803,609.8804,610.3804,,,,,,,,,,,,,,0.6588,1,,,,,,,,,,,,,,m,,,,,,,,,,,,,,,,85,0,610.3808,611.0472,m,1,0.6588,,[],[],[],[],[],[],[],611.0472,613.0471,613.0471,613.0473,[],[],[],[],[],[],[],,613.0474,613.0475,-0.0406961,-0.385952736,0,0,0,,0,84,84,119,1,3,word,MEMORY,print,memory_p.png,,,,,,
,,,,30766,001,2025-10-19_16h33.30.268,HW_LDT_1,2024.2.4,MacIntel,60.24096386,,,,,,,,,,,,,,,,,,,,,,613.0489,613.246,613.246,613.747,,,,,,,,,,,,,,1.2487,1,,,,,,,,,,,,,,z,,,,,,,,,,,,,,,,86,0,613.7476,614.9972,z,1,1.2487,,[],[],[],[],[],[],[],614.9973,616.997,616.997,616.9971,[],[],[],[],[],[],[],,616.9972,616.9972,-0.0406961,-0.385952736,0,0,0,,0,85,85,33,1,3,TL,adsivory,print,adsivory_p.png,,,,,,
,,,,30766,001,2025-10-19_16h33.30.268,HW_LDT_1,2024.2.4,MacIntel,60.24096386,,,,,,,,,,,,,,,,,,,,,,616.9995,617.196,617.196,617.696,,,,,,,,,,,,,,0.8494,1,,,,,,,,,,,,,,m,,,,,,,,,,,,,,,,87,0,617.6966,618.547,m,1,0.8494,,[],[],[],[],[],[],[],618.547,620.5473,620.5474,620.5475,[],[],[],[],[],[],[],,620.5475,620.5477,-0.0406961,-0.385952736,0,0,0,,0,86,86,132,1,3,word,PROPOSAL,print,proposal_p.png,,,,,,
,,,,30766,001,2025-10-19_16h33.30.268,HW_LDT_1,2024.2.4,MacIntel,60.24096386,,,,,,,,,,,,,,,,,,,,,,620.549,620.7469,620.7469,621.2463,,,,,,,,,,,,,,0.8361,1,,,,,,,,,,,,,,z,,,,,,,,,,,,,,,,88,0,621.2469,622.097,z,1,0.8361,,[],[],[],[],[],[],[],622.0971,624.0963,624.0964,624.0966,[],[],[],[],[],[],[],,624.0967,624.0968,-0.0406961,-0.385952736,0,0,0,,0,87,87,2,1,3,RL,betemit,print,betemit_p.png,,,,,,
,,,,30766,001,2025-10-19_16h33.30.268,HW_LDT_1,2024.2.4,MacIntel,60.24096386,,,,,,,,,,,,,,,,,,,,,,624.0977,624.297,624.297,624.797,,,,,,,,,,,,,,0.7147,1,,,,,,,,,,,,,,m,,,,,,,,,,,,,,,,89,0,624.7974,625.5135,m,1,0.7147,,[],[],[],[],[],[],[],625.5135,627.5126,627.5126,627.5127,[],[],[],[],[],[],[],,627.5127,627.5128,-0.0406961,-0.385952736,0,0,0,,0,88,88,80,1,3,word,ACADEMY,print,academy_p.png,,,,,,
,,,,30766,001,2025-10-19_16h33.30.268,HW_LDT_1,2024.2.4,MacIntel,60.24096386,,,,,,,,,,,,,,,,,,,,,,627.5138,627.7136,627.7136,628.2126,,,,,,,,,,,,,,0.7045,1,,,,,,,,,,,,,,z,,,,,,,,,,,,,,,,90,0,628.2131,628.9293,z,1,0.7045,,[],[],[],[],[],[],[],628.9293,630.9302,630.9302,630.9304,[],[],[],[],[],[],[],,630.9304,630.9305,-0.0406961,-0.385952736,0,0,0,,0,89,89,7,1,3,RL,cobeny,print,cobeny_p.png,,,,,,
,,,,30766,001,2025-10-19_16h33.30.268,HW_LDT_1,2024.2.4,MacIntel,60.24096386,,,,,,,,,,,,,,,,,,,,,,630.9314,631.1292,631.1292,631.6301,,,,,,,,,,,,,,1.473,1,,,,,,,,,,,,,,m,,,,,,,,,,,,,,,,91,0,631.6305,633.1125,m,1,1.473,,[],[],[],[],[],[],[],633.1125,635.1124,635.1125,635.1126,[],[],[],[],[],[],[],,635.1126,635.1126,-0.0406961,-0.385952736,0,0,0,,0,90,90,127,1,3,word,ORIGINAL,cursive,original_c.png,,,,,,
,,,,30766,001,2025-10-19_16h33.30.268,HW_LDT_1,2024.2.4,MacIntel,60.24096386,,,,,,,,,,,,,,,,,,,,,,635.1138,635.3134,635.3135,635.8133,,,,,,,,,,,,,,1.6161,1,,,,,,,,,,,,,,m,,,,,,,,,,,,,,,,92,0,635.8138,637.4304,m,1,1.6161,,[],[],[],[],[],[],[],637.4305,639.429,639.4291,639.4292,[],[],[],[],[],[],[],,639.4292,639.4293,-0.0406961,-0.385952736,0,0,0,,0,91,91,101,1,3,word,DELICATE,print,delicate_p.png,,,,,,
,,,,30766,001,2025-10-19_16h33.30.268,HW_LDT_1,2024.2.4,MacIntel,60.24096386,,,,,,,,,,,,,,,,,,,,,,639.4303,639.629,639.6291,640.1302,,,,,,,,,,,,,,0.7514,1,,,,,,,,,,,,,,m,,,,,,,,,,,,,,,,93,0,640.1305,640.8963,m,1,0.7514,,[],[],[],[],[],[],[],640.8963,642.8968,642.8968,642.8969,[],[],[],[],[],[],[],,642.8969,642.897,-0.0406961,-0.385952736,0,0,0,,0,92,92,129,1,3,word,PARENT,print,parent_p.png,,,,,,
,,,,30766,001,2025-10-19_16h33.30.268,HW_LDT_1,2024.2.4,MacIntel,60.24096386,,,,,,,,,,,,,,,,,,,,,,642.898,643.0958,643.0958,643.5967,,,,,,,,,,,,,,1.0034,1,,,,,,,,,,,,,,m,,,,,,,,,,,,,,,,94,0,643.5972,644.6128,m,1,1.0034,,[],[],[],[],[],[],[],644.6129,646.6133,646.6134,646.6135,[],[],[],[],[],[],[],,646.6136,646.6137,-0.0406961,-0.385952736,0,0,0,,0,93,93,106,1,3,word,ELABORATE,print,elaborate_p.png,,,,,,
,,,,30766,001,2025-10-19_16h33.30.268,HW_LDT_1,2024.2.4,MacIntel,60.24096386,,,,,,,,,,,,,,,,,,,,,,646.615,646.8123,646.8123,647.3133,,,,,,,,,,,,,,1.2858,1,,,,,,,,,,,,,,m,,,,,,,,,,,,,,,,95,0,647.3137,648.6132,m,1,1.2858,,[],[],[],[],[],[],[],648.6133,650.6122,650.6123,650.6123,[],[],[],[],[],[],[],,650.6124,650.6125,-0.0406961,-0.385952736,0,0,0,,0,94,94,122,1,3,word,MOBILE,cursive,mobile_c.png,,,,,,
,,,,30766,001,2025-10-19_16h33.30.268,HW_LDT_1,2024.2.4,MacIntel,60.24096386,,,,,,,,,,,,,,,,,,,,,,650.6134,650.8128,650.8128,651.3132,,,,,,,,,,,,,,1.0861,1,,,,,,,,,,,,,,m,,,,,,,,,,,,,,,,96,1,651.3138,652.4134,m,1,1.0861,,[],[],[],[],[],[],[],652.4135,654.4132,654.4133,655.679,[],[],[],[],[],[],[],z,655.679,655.6792,-0.0406961,-0.385952736,0,0,0,,0,95,95,159,1,3,word,VETERAN,cursive,veteran_c.png,1.2551,,,,,
,,,,30766,001,2025-10-19_16h33.30.268,HW_LDT_1,2024.2.4,MacIntel,60.24096386,,,,,,,,,,,,,,,,,,,,,,655.6801,655.8798,655.8798,656.3793,,,,,,,,,,,,,,1.2156,1,,,,,,,,,,,,,,z,,,,,,,,,,,,,,,,97,0,656.38,657.5965,z,1,1.2156,,[],[],[],[],[],[],[],657.5965,659.5964,659.5965,659.5965,[],[],[],[],[],[],[],,659.5966,659.5967,-0.0406961,-0.385952736,0,0,0,,0,96,96,24,1,3,RL,quafidy,print,quafidy_p.png,,,,,,
,,,,30766,001,2025-10-19_16h33.30.268,HW_LDT_1,2024.2.4,MacIntel,60.24096386,,,,,,,,,,,,,,,,,,,,,,659.5977,659.7954,659.7955,660.2965,,,,,,,,,,,,,,1.2488,1,,,,,,,,,,,,,,z,,,,,,,,,,,,,,,,98,1,660.2968,661.5463,z,1,1.2488,,[],[],[],[],[],[],[],661.5463,663.5463,663.5464,665.2797,[],[],[],[],[],[],[],m,665.2797,665.2797,-0.0406961,-0.385952736,0,0,0,,0,97,97,65,1,3,TL,resufal,print,resufal_p.png,1.7326,,,,,
,,,,30766,001,2025-10-19_16h33.30.268,HW_LDT_1,2024.2.4,MacIntel,60.24096386,,,,,,,,,,,,,,,,,,,,,,665.2806,665.4797,665.4798,665.9792,,,,,,,,,,,,,,1.8867,0,,,,,,,,,,,,,,m,,,,,,,,,,,,,,,,99,0,665.9798,667.8798,z,0,1.8867,,[],[],[],[],[],[],[],667.8798,669.8798,669.8798,669.8799,[],[],[],[],[],[],[],,669.88,669.88,-0.0406961,-0.385952736,0,0,0,,0,98,98,108,1,3,word,FORTUNE,cursive,fortune_c.png,,,,,,
,,,,30766,001,2025-10-19_16h33.30.268,HW_LDT_1,2024.2.4,MacIntel,60.24096386,,,,,,,,,,,,,,,,,,,,,,669.8811,670.0787,670.0787,670.5798,,,,,,,,,,,,,,1.7817,1,,,,,,,,,,,,,,z,,,,,,,,,,,,,,,,100,0,670.5802,672.3629,z,1,1.7817,,[],[],[],[],[],[],[],672.3629,674.3629,674.363,674.3633,[],[],[],[],[],[],[],,674.3633,674.3634,-0.0406961,-0.385952736,0,0,0,,0,99,99,59,1,3,TL,paficic,cursive,paficic_c.png,,,,,,
,,,,30766,001,2025-10-19_16h33.30.268,HW_LDT_1,2024.2.4,MacIntel,60.24096386,,,,,,,,,,,,,,,,,,,,,,674.3644,674.562,674.562,675.063,,,,,,,,,,,,,,0.7527,0,,,,,,,,,,,,,,z,,,,,,,,,,,,,,,,101,1,675.0634,675.8296,m,0,0.7527,,[],[],[],[],[],[],[],675.8297,677.8287,677.8288,680.0464,[],[],[],[],[],[],[],m,680.0465,680.0465,-0.0406961,-0.385952736,0,0,0,,0,100,100,61,1,3,TL,pocily,print,pocily_p.png,2.2043,,,,,
,,,,30766,001,2025-10-19_16h33.30.268,HW_LDT_1,2024.2.4,MacIntel,60.24096386,,,,,,,,,,,,,,,,,,,,,,680.0475,680.2461,680.2462,680.7452,,,,,,,,,,,,,,3.0101,0,,,,,,,,,,,,,,m,,,,,,,,,,,,,,,,102,0,680.7456,683.7628,z,0,3.0101,,[],[],[],[],[],[],[],683.7628,685.7618,685.7618,685.7619,[],[],[],[],[],[],[],,685.762,685.7621,-0.0406961,-0.385952736,0,0,0,,0,101,101,120,1,3,word,MILITARY,cursive,military_c.png,,,,,,
,,,,30766,001,2025-10-19_16h33.30.268,HW_LDT_1,2024.2.4,MacIntel,60.24096386,,,,,,,,,,,,,,,,,,,,,,685.763,685.9628,685.9629,686.4626,,,,,,,,,,,,,,1.8316,1,,,,,,,,,,,,,,z,,,,,,,,,,,,,,,,103,1,686.463,688.296,z,1,1.8316,,[],[],[],[],[],[],[],688.2961,690.2961,690.2962,691.4794,[],[],[],[],[],[],[],z,691.4795,691.4797,-0.0406961,-0.385952736,0,0,0,,0,102,102,43,1,3,TL,dedace,cursive,dedace_c.png,1.17,,,,,
,,,,30766,001,2025-10-19_16h33.30.268,HW_LDT_1,2024.2.4,MacIntel,60.24096386,,,,,,,,,,,,,,,,,,,,,,691.4809,691.6786,691.6786,692.1794,,,,,,,,,,,,,,1.2418,1,,,,,,,,,,,,,,z,,,,,,,,,,,,,,,,104,1,692.1798,693.4285,z,1,1.2418,,[],[],[],[],[],[],[],693.4286,695.4294,695.4294,697.8452,[],[],[],[],[],[],[],z,697.8454,697.8454,-0.0406961,-0.385952736,0,0,0,,0,103,103,71,1,3,TL,sanile,cursive,sanile_c.png,2.4023,,,,,
,,,,30766,001,2025-10-19_16h33.30.268,HW_LDT_1,2024.2.4,MacIntel,60.24096386,,,,,,,,,,,,,,,,,,,,,,697.8466,698.0459,698.0459,698.5457,,,,,,,,,,,,,,1.0206,1,,,,,,,,,,,,,,m,,,,,,,,,,,,,,,,105,0,698.546,699.5794,m,1,1.0206,,[],[],[],[],[],[],[],699.5795,701.5792,701.5792,701.5794,[],[],[],[],[],[],[],,701.5794,701.5795,-0.0406961,-0.385952736,0,0,0,,0,104,104,156,1,3,word,TRIBUTE,print,tribute_p.png,,,,,,
,,,,30766,001,2025-10-19_16h33.30.268,HW_LDT_1,2024.2.4,MacIntel,60.24096386,,,,,,,,,,,,,,,,,,,,,,701.5806,701.7792,701.7793,702.2785,,,,,,,,,,,,,,1.386,1,,,,,,,,,,,,,,z,,,,,,,,,,,,,,,,106,0,702.2789,703.6792,z,1,1.386,,[],[],[],[],[],[],[],703.6793,705.6782,705.6783,705.6785,[],[],[],[],[],[],[],,705.6786,705.6787,-0.0406961,-0.385952736,0,0,0,,0,105,105,57,1,3,TL,moredate,cursive,moredate_c.png,,,,,,
,,,,30766,001,2025-10-19_16h33.30.268,HW_LDT_1,2024.2.4,MacIntel,60.24096386,,,,,,,,,,,,,,,,,,,,,,705.6798,705.8791,705.8791,706.3791,,,,,,,,,,,,,,0.9581,1,,,,,,,,,,,,,,m,,,,,,,,,,,,,,,,107,0,706.3796,707.3458,m,1,0.9581,,[],[],[],[],[],[],[],707.346,709.3458,709.3459,709.3462,[],[],[],[],[],[],[],,709.3463,709.3464,-0.040200941,-0.385952736,0,0,0,,0,106,106,83,1,3,word,ANIMAL,cursive,animal_c.png,,,,,,
,,,,30766,001,2025-10-19_16h33.30.268,HW_LDT_1,2024.2.4,MacIntel,60.24096386,,,,,,,,,,,,,,,,,,,,,,709.3477,709.5454,709.5455,710.0458,,,,,,,,,,,,,,0.8684,1,,,,,,,,,,,,,,z,,,,,,,,,,,,,,,,108,0,710.0463,710.9283,z,1,0.8684,,[],[],[],[],[],[],[],710.9284,712.9283,712.9283,712.9285,[],[],[],[],[],[],[],,712.9286,712.9287,-0.040200941,-0.385952736,0,0,0,,0,107,107,27,1,3,RL,recile,print,recile_p.png,,,,,,
,,,,30766,001,2025-10-19_16h33.30.268,HW_LDT_1,2024.2.4,MacIntel,60.24096386,,,,,,,,,,,,,,,,,,,,,,712.93,713.1282,713.1282,713.6281,,,,,,,,,,,,,,0.9155,0,,,,,,,,,,,,,,m,,,,,,,,,,,,,,,,109,0,713.6286,714.5457,z,0,0.9155,,[],[],[],[],[],[],[],714.5457,716.5457,716.5457,716.5459,[],[],[],[],[],[],[],,716.546,716.5461,-0.040200941,-0.385952736,0,0,0,,0,108,108,99,1,3,word,DEBATE,cursive,debate_c.png,,,,,,
,,,,30766,001,2025-10-19_16h33.30.268,HW_LDT_1,2024.2.4,MacIntel,60.24096386,,,,,,,,,,,,,,,,,,,,,,716.5473,716.7458,716.7458,717.2458,,,,,,,,,,,,,,1.2191,1,,,,,,,,,,,,,,m,,,,,,,,,,,,,,,,110,0,717.2462,718.479,m,1,1.2191,,[],[],[],[],[],[],[],718.479,720.4778,720.4778,720.4779,[],[],[],[],[],[],[],,720.478,720.478,-0.040200941,-0.385952736,0,0,0,,0,109,109,135,1,3,word,QUALITY,print,quality_p.png,,,,,,
,,,,30766,001,2025-10-19_16h33.30.268,HW_LDT_1,2024.2.4,MacIntel,60.24096386,,,,,,,,,,,,,,,,,,,,,,720.4786,720.6791,720.6791,721.1791,,,,,,,,,,,,,,0.652,1,,,,,,,,,,,,,,m,,,,,,,,,,,,,,,,111,0,721.1795,721.8457,m,1,0.652,,[],[],[],[],[],[],[],721.8458,723.8448,723.8448,723.845,[],[],[],[],[],[],[],,723.845,723.8451,-0.040200941,-0.385952736,0,0,0,,0,110,110,103,1,3,word,DISPUTE,print,dispute_p.png,,,,,,
,,,,30766,001,2025-10-19_16h33.30.268,HW_LDT_1,2024.2.4,MacIntel,60.24096386,,,,,,,,,,,,,,,,,,,,,,723.8462,724.0455,724.0456,724.5456,,,,,,,,,,,,,,1.853,1,,,,,,,,,,,,,,z,,,,,,,,,,,,,,,,112,0,724.5461,726.412,z,1,1.853,,[],[],[],[],[],[],[],726.412,728.4122,728.4122,728.4124,[],[],[],[],[],[],[],,728.4124,728.4126,-0.040200941,-0.385952736,0,0,0,,0,111,111,75,1,3,TL,sloten,cursive,sloten_c.png,,,,,,
,,,,30766,001,2025-10-19_16h33.30.268,HW_LDT_1,2024.2.4,MacIntel,60.24096386,,,,,,,,,,,,,,,,,,,,,,728.4137,728.6122,728.6122,729.1122,,,,,,,,,,,,,,1.6652,0,,,,,,,,,,,,,,m,,,,,,,,,,,,,,,,113,1,729.1127,730.7788,z,0,1.6652,,[],[],[],[],[],[],[],730.7788,732.7789,732.7789,733.5789,[],[],[],[],[],[],[],z,733.5789,733.579,-0.040200941,-0.385952736,0,0,0,,0,112,112,123,1,3,word,MODERATE,cursive,moderate_c.png,0.7903,,,,,
,,,,30766,001,2025-10-19_16h33.30.268,HW_LDT_1,2024.2.4,MacIntel,60.24096386,,,,,,,,,,,,,,,,,,,,,,733.5801,733.7788,733.7789,734.2788,,,,,,,,,,,,,,0.938,1,,,,,,,,,,,,,,z,,,,,,,,,,,,,,,,114,1,734.2792,735.2288,z,1,0.938,,[],[],[],[],[],[],[],735.2288,737.2287,737.2287,737.9454,[],[],[],[],[],[],[],z,737.9455,737.9456,-0.040200941,-0.385952736,0,0,0,,0,113,113,23,1,3,RL,quakity,print,quakity_p.png,0.7031,,,,,
,,,,30766,001,2025-10-19_16h33.30.268,HW_LDT_1,2024.2.4,MacIntel,60.24096386,,,,,,,,,,,,,,,,,,,,,,737.9465,738.1444,738.1444,738.6453,,,,,,,,,,,,,,2.8978,1,,,,,,,,,,,,,,m,,,,,,,,,,,,,,,,115,0,738.6459,741.5452,m,1,2.8978,,[],[],[],[],[],[],[],741.5453,743.5453,743.5454,743.5454,[],[],[],[],[],[],[],,743.5454,743.5456,-0.043078785,-0.385686112,0,0,0,,0,114,114,154,1,3,word,STORAGE,cursive,storage_c.png,,,,,,
,,,,30766,001,2025-10-19_16h33.30.268,HW_LDT_1,2024.2.4,MacIntel,60.24096386,,,,,,,,,,,,,,,,,,,,,,743.5465,743.7454,743.7454,744.2452,,,,,,,,,,,,,,1.9316,1,,,,,,,,,,,,,,z,,,,,,,,,,,,,,,,116,1,744.2458,746.1785,z,1,1.9316,,[],[],[],[],[],[],[],746.1786,748.1785,748.1786,749.1785,[],[],[],[],[],[],[],z,749.1785,749.1786,-0.043078785,-0.385686112,0,0,0,,0,115,115,20,1,3,RL,orimipal,cursive,orimipal_c.png,0.9989,,,,,
,,,,30766,001,2025-10-19_16h33.30.268,HW_LDT_1,2024.2.4,MacIntel,60.24096386,,,,,,,,,,,,,,,,,,,,,,749.1801,749.3786,749.3786,749.8786,,,,,,,,,,,,,,1.0084,1,,,,,,,,,,,,,,z,,,,,,,,,,,,,,,,117,0,749.8789,750.8952,z,1,1.0084,,[],[],[],[],[],[],[],750.8953,752.8946,752.8946,752.8947,[],[],[],[],[],[],[],,752.8948,752.8948,-0.043078785,-0.385686112,0,0,0,,0,116,116,51,1,3,TL,liretal,print,liretal_p.png,,,,,,
,,,,30766,001,2025-10-19_16h33.30.268,HW_LDT_1,2024.2.4,MacIntel,60.24096386,,,,,,,,,,,,,,,,,,,,,,752.8959,753.0952,753.0953,753.5953,,,,,,,,,,,,,,1.3554,1,,,,,,,,,,,,,,z,,,,,,,,,,,,,,,,118,0,753.5957,754.9616,z,1,1.3554,,[],[],[],[],[],[],[],754.9617,756.9619,756.9619,756.962,[],[],[],[],[],[],[],,756.9621,756.9621,-0.043078785,-0.386185502,0,0,0,,0,117,117,34,1,3,TL,aminal,cursive,aminal_c.png,,,,,,
,,,,30766,001,2025-10-19_16h33.30.268,HW_LDT_1,2024.2.4,MacIntel,60.24096386,,,,,,,,,,,,,,,,,,,,,,756.9631,757.1618,757.1618,757.662,,,,,,,,,,,,,,1.3919,1,,,,,,,,,,,,,,m,,,,,,,,,,,,,,,,119,0,757.6624,759.0618,m,1,1.3919,,[],[],[],[],[],[],[],759.0618,761.0618,761.0618,761.062,[],[],[],[],[],[],[],,761.062,761.0622,-0.043078785,-0.386185502,0,0,0,,0,118,118,151,1,3,word,SPECIFIC,print,specific_p.png,,,,,,
,,,,30766,001,2025-10-19_16h33.30.268,HW_LDT_1,2024.2.4,MacIntel,60.24096386,,,,,,,,,,,,,,,,,,,,,,761.0634,761.2614,761.2615,761.7617,,,,,,,,,,,,,,0.8651,1,,,,,,,,,,,,,,z,,,,,,,,,,,,,,,,120,1,761.7621,762.6284,z,1,0.8651,,[],[],[],[],[],[],[],762.6284,764.6284,764.6284,765.5285,[],[],[],[],[],[],[],z,765.5285,765.5286,-0.043078785,-0.386185502,0,0,0,,0,119,119,13,1,3,RL,helicage,cursive,helicage_c.png,0.8994,,,,,
,,,,30766,001,2025-10-19_16h33.30.268,HW_LDT_1,2024.2.4,MacIntel,60.24096386,,,,,,,,,,,,,,,,,,,,,,765.5295,765.7284,765.7285,766.2279,,,,,,,,,,,,,,0.9653,1,,,,,,,,,,,,,,z,,,,,,,,,,,,,,,,121,0,766.2285,767.1949,z,1,0.9653,,[],[],[],[],[],[],[],767.195,769.1949,769.1949,769.1951,[],[],[],[],[],[],[],,769.1951,769.1951,-0.043078785,-0.386185502,0,0,0,,0,120,120,70,1,3,TL,remuse,cursive,remuse_c.png,,,,,,
,,,,30766,001,2025-10-19_16h33.30.268,HW_LDT_1,2024.2.4,MacIntel,60.24096386,,,,,,,,,,,,,,,,,,,,,,769.1963,769.395,769.395,769.8943,,,,,,,,,,,,,,0.7996,1,,,,,,,,,,,,,,z,,,,,,,,,,,,,,,,122,0,769.8947,770.6951,z,1,0.7996,,[],[],[],[],[],[],[],770.6951,772.6951,772.6951,772.6953,[],[],[],[],[],[],[],,772.6953,772.6954,-0.043078785,-0.386185502,0,0,0,,0,121,121,15,1,3,RL,mifikary,cursive,mifikary_c.png,,,,,,
,,,,30766,001,2025-10-19_16h33.30.268,HW_LDT_1,2024.2.4,MacIntel,60.24096386,,,,,,,,,,,,,,,,,,,,,,772.6964,772.8949,772.8949,773.3941,,,,,,,,,,,,,,0.7047,0,,,,,,,,,,,,,,m,,,,,,,,,,,,,,,,123,0,773.3946,774.1116,z,0,0.7047,,[],[],[],[],[],[],[],774.1116,776.1107,776.1107,776.1109,[],[],[],[],[],[],[],,776.1109,776.1109,-0.043078785,-0.386185502,0,0,0,,0,122,122,126,1,3,word,OPTIMAL,cursive,optimal_c.png,,,,,,
,,,,30766,001,2025-10-19_16h33.30.268,HW_LDT_1,2024.2.4,MacIntel,60.24096386,,,,,,,,,,,,,,,,,,,,,,776.1119,776.3114,776.3115,776.8116,,,,,,,,,,,,,,0.9319,1,,,,,,,,,,,,,,z,,,,,,,,,,,,,,,,124,0,776.812,777.7448,z,1,0.9319,,[],[],[],[],[],[],[],777.7448,779.7448,779.7448,779.7449,[],[],[],[],[],[],[],,779.7449,779.745,-0.043078785,-0.386185502,0,0,0,,0,123,123,56,1,3,TL,meromy,print,meromy_p.png,,,,,,
,,,,30766,001,2025-10-19_16h33.30.268,HW_LDT_1,2024.2.4,MacIntel,60.24096386,,,,,,,,,,,,,,,,,,,,,,779.7462,779.9448,779.9448,780.4448,,,,,,,,,,,,,,1.1652,1,,,,,,,,,,,,,,z,,,,,,,,,,,,,,,,125,0,780.4453,781.6114,z,1,1.1652,,[],[],[],[],[],[],[],781.6114,783.6113,783.6113,783.6115,[],[],[],[],[],[],[],,783.6115,783.6116,-0.043078785,-0.386185502,0,0,0,,0,124,124,74,1,3,TL,spemicen,print,spemicen_p.png,,,,,,
,,,,30766,001,2025-10-19_16h33.30.268,HW_LDT_1,2024.2.4,MacIntel,60.24096386,,,,,,,,,,,,,,,,,,,,,,783.6126,783.8114,783.8115,784.3113,,,,,,,,,,,,,,1.065,1,,,,,,,,,,,,,,z,,,,,,,,,,,,,,,,126,1,784.3117,785.3781,z,1,1.065,,[],[],[],[],[],[],[],785.3782,787.3781,787.3782,788.3281,[],[],[],[],[],[],[],z,788.3281,788.3282,-0.043078785,-0.386185502,0,0,0,,0,125,125,35,1,3,TL,cateferia,print,cateferia_p.png,0.9367,,,,,
,,,,30766,001,2025-10-19_16h33.30.268,HW_LDT_1,2024.2.4,MacIntel,60.24096386,,,,,,,,,,,,,,,,,,,,,,788.3291,788.528,788.5281,789.0281,,,,,,,,,,,,,,1.5482,1,,,,,,,,,,,,,,z,,,,,,,,,,,,,,,,127,0,789.0286,790.5779,z,1,1.5482,,[],[],[],[],[],[],[],790.578,792.5779,792.578,792.5781,[],[],[],[],[],[],[],,792.5781,792.5782,-0.043078785,-0.386185502,0,0,0,,0,126,126,28,1,3,RL,rovastic,cursive,rovastic_c.png,,,,,,
,,,,30766,001,2025-10-19_16h33.30.268,HW_LDT_1,2024.2.4,MacIntel,60.24096386,,,,,,,,,,,,,,,,,,,,,,792.5793,792.7781,792.7781,793.278,,,,,,,,,,,,,,0.9156,1,,,,,,,,,,,,,,m,,,,,,,,,,,,,,,,128,0,793.2785,794.1946,m,1,0.9156,,[],[],[],[],[],[],[],794.1947,796.1946,796.1946,796.1947,[],[],[],[],[],[],[],,796.1948,796.1948,-0.043078785,-0.386185502,0,0,0,,0,127,127,104,1,3,word,DOMINANT,print,dominant_p.png,,,,,,
,,,,30766,001,2025-10-19_16h33.30.268,HW_LDT_1,2024.2.4,MacIntel,60.24096386,,,,,,,,,,,,,,,,,,,,,,796.196,796.3946,796.3946,796.8946,,,,,,,,,,,,,,1.0815,1,,,,,,,,,,,,,,z,,,,,,,,,,,,,,,,129,0,796.8951,797.9779,z,1,1.0815,,[],[],[],[],[],[],[],797.978,799.9772,799.9773,799.9773,[],[],[],[],[],[],[],,799.9773,799.9774,-0.043624729,-0.385927343,0,0,0,,0,128,128,37,1,3,TL,cacapity,cursive,cacapity_c.png,,,,,,
,,,,30766,001,2025-10-19_16h33.30.268,HW_LDT_1,2024.2.4,MacIntel,60.24096386,,,,,,,,,,,,,,,,,,,,,,799.9783,800.1774,800.1774,800.6779,,,,,,,,,,,,,,2.3183,1,,,,,,,,,,,,,,z,,,,,,,,,,,,,,,,130,0,800.6783,803.0112,z,1,2.3183,,[],[],[],[],[],[],[],803.0112,805.0101,805.0102,805.0102,[],[],[],[],[],[],[],,805.0103,805.0104,-0.043624729,-0.385927343,0,0,0,,0,129,129,14,1,3,RL,lofase,cursive,lofase_c.png,,,,,,
,,,,30766,001,2025-10-19_16h33.30.268,HW_LDT_1,2024.2.4,MacIntel,60.24096386,,,,,,,,,,,,,,,,,,,,,,805.0112,805.2102,805.2102,805.7111,,,,,,,,,,,,,,1.1149,1,,,,,,,,,,,,,,m,,,,,,,,,,,,,,,,131,1,805.7116,806.8277,m,1,1.1149,,[],[],[],[],[],[],[],806.8278,808.8279,808.8279,809.8947,[],[],[],[],[],[],[],m,809.8947,809.8948,-0.043624729,-0.385927343,0,0,0,,0,130,130,97,1,3,word,COVERAGE,print,coverage_p.png,1.0665,,,,,
,,,,30766,001,2025-10-19_16h33.30.268,HW_LDT_1,2024.2.4,MacIntel,60.24096386,,,,,,,,,,,,,,,,,,,,,,809.8955,810.0933,810.0933,810.5943,,,,,,,,,,,,,,0.9649,0,,,,,,,,,,,,,,z,,,,,,,,,,,,,,,,132,0,810.5948,811.5601,m,0,0.9649,,[],[],[],[],[],[],[],811.5602,813.5606,813.5606,813.5607,[],[],[],[],[],[],[],,813.5607,813.5608,-0.043624729,-0.385927343,0,0,0,,0,131,131,46,1,3,TL,distupe,print,distupe_p.png,,,,,,
,,,,30766,001,2025-10-19_16h33.30.268,HW_LDT_1,2024.2.4,MacIntel,60.24096386,,,,,,,,,,,,,,,,,,,,,,813.5618,813.7601,813.7601,814.261,,,,,,,,,,,,,,0.8583,1,,,,,,,,,,,,,,m,,,,,,,,,,,,,,,,133,0,814.2615,815.1267,m,1,0.8583,,[],[],[],[],[],[],[],815.1268,817.1278,817.1278,817.128,[],[],[],[],[],[],[],,817.128,817.1281,-0.043624729,-0.385927343,0,0,0,,0,132,132,95,1,3,word,COMEDY,print,comedy_p.png,,,,,,
,,,,30766,001,2025-10-19_16h33.30.268,HW_LDT_1,2024.2.4,MacIntel,60.24096386,,,,,,,,,,,,,,,,,,,,,,817.129,817.3277,817.3278,817.8267,,,,,,,,,,,,,,1.017,1,,,,,,,,,,,,,,z,,,,,,,,,,,,,,,,134,0,817.827,818.8447,z,1,1.017,,[],[],[],[],[],[],[],818.8447,820.8434,820.8434,820.8435,[],[],[],[],[],[],[],,820.8436,820.8436,-0.043624729,-0.385927343,0,0,0,,0,133,133,5,1,3,RL,capefory,cursive,capefory_c.png,,,,,,
,,,,30766,001,2025-10-19_16h33.30.268,HW_LDT_1,2024.2.4,MacIntel,60.24096386,,,,,,,,,,,,,,,,,,,,,,820.8447,821.0436,821.0436,821.5444,,,,,,,,,,,,,,1.2646,1,,,,,,,,,,,,,,z,,,,,,,,,,,,,,,,135,1,821.5449,822.8109,z,1,1.2646,,[],[],[],[],[],[],[],822.811,824.8098,824.8098,826.5441,[],[],[],[],[],[],[],z,826.5442,826.5442,-0.043624729,-0.385927343,0,0,0,,0,134,134,69,1,3,TL,redisent,cursive,redisent_c.png,1.7332,,,,,
,,,,30766,001,2025-10-19_16h33.30.268,HW_LDT_1,2024.2.4,MacIntel,60.24096386,,,,,,,,,,,,,,,,,,,,,,826.5451,826.7441,826.7442,827.2442,,,,,,,,,,,,,,2.1657,1,,,,,,,,,,,,,,z,,,,,,,,,,,,,,,,136,0,827.2446,829.411,z,1,2.1657,,[],[],[],[],[],[],[],829.4111,831.4108,831.4108,831.411,[],[],[],[],[],[],[],,831.411,831.411,-0.043874424,-0.385927343,0,0,0,,0,135,135,45,1,3,TL,dentisy,print,dentisy_p.png,,,,,,
,,,,30766,001,2025-10-19_16h33.30.268,HW_LDT_1,2024.2.4,MacIntel,60.24096386,,,,,,,,,,,,,,,,,,,,,,831.4121,831.6107,831.6107,832.1098,,,,,,,,,,,,,,0.8829,1,,,,,,,,,,,,,,m,,,,,,,,,,,,,,,,137,0,832.1102,832.9943,m,1,0.8829,,[],[],[],[],[],[],[],832.9943,834.993,834.9931,834.9932,[],[],[],[],[],[],[],,834.9933,834.9933,-0.044894366,-0.385927343,0,0,0,,0,136,136,98,1,3,word,CRIMINAL,print,criminal_p.png,,,,,,
,,,,30766,001,2025-10-19_16h33.30.268,HW_LDT_1,2024.2.4,MacIntel,60.24096386,,,,,,,,,,,,,,,,,,,,,,834.9941,835.194,835.194,835.694,,,,,,,,,,,,,,0.8642,1,,,,,,,,,,,,,,m,,,,,,,,,,,,,,,,138,0,835.6945,836.5601,m,1,0.8642,,[],[],[],[],[],[],[],836.5602,838.5597,838.5597,838.5598,[],[],[],[],[],[],[],,838.5599,838.56,-0.044894366,-0.385927343,0,0,0,,0,137,137,139,1,3,word,REGULAR,print,regular_p.png,,,,,,
,,,,30766,001,2025-10-19_16h33.30.268,HW_LDT_1,2024.2.4,MacIntel,60.24096386,,,,,,,,,,,,,,,,,,,,,,838.5609,838.7606,838.7607,839.2608,,,,,,,,,,,,,,2.5655,1,,,,,,,,,,,,,,z,,,,,,,,,,,,,,,,139,0,839.2612,841.8274,z,1,2.5655,,[],[],[],[],[],[],[],841.8274,843.8274,843.8274,843.8278,[],[],[],[],[],[],[],,843.8278,843.8279,-0.044894366,-0.385927343,0,0,0,,0,138,138,11,1,3,RL,ebiwent,cursive,ebiwent_c.png,,,,,,
,,,,30766,001,2025-10-19_16h33.30.268,HW_LDT_1,2024.2.4,MacIntel,60.24096386,,,,,,,,,,,,,,,,,,,,,,843.8288,844.0274,844.0274,844.5273,,,,,,,,,,,,,,0.852,1,,,,,,,,,,,,,,z,,,,,,,,,,,,,,,,140,0,844.5278,845.3939,z,1,0.852,,[],[],[],[],[],[],[],845.394,847.3939,847.3939,847.3941,[],[],[],[],[],[],[],,847.3941,847.3942,-0.044894366,-0.385927343,0,0,0,,0,139,139,3,1,3,RL,bebine,cursive,bebine_c.png,,,,,,
,,,,30766,001,2025-10-19_16h33.30.268,HW_LDT_1,2024.2.4,MacIntel,60.24096386,,,,,,,,,,,,,,,,,,,,,,847.3954,847.5933,847.5933,848.0939,,,,,,,,,,,,,,1.8485,1,,,,,,,,,,,,,,z,,,,,,,,,,,,,,,,141,0,848.0944,849.9438,z,1,1.8485,,[],[],[],[],[],[],[],849.9438,851.9438,851.9439,851.9441,[],[],[],[],[],[],[],,851.9441,851.9442,-0.044894366,-0.385927343,0,0,0,,0,140,140,55,1,3,TL,mecidine,print,mecidine_p.png,,,,,,
,,,,30766,001,2025-10-19_16h33.30.268,HW_LDT_1,2024.2.4,MacIntel,60.24096386,,,,,,,,,,,,,,,,,,,,,,851.9452,852.1428,852.1429,852.6439,,,,,,,,,,,,,,3.1073,0,,,,,,,,,,,,,,z,,,,,,,,,,,,,,,,142,0,852.6443,855.7595,m,0,3.1073,,[],[],[],[],[],[],[],855.7595,857.7594,857.7595,857.7596,[],[],[],[],[],[],[],,857.7596,857.7596,-0.044894366,-0.385927343,0,0,0,,0,141,141,32,1,3,TL,adacemy,print,adacemy_p.png,,,,,,
,,,,30766,001,2025-10-19_16h33.30.268,HW_LDT_1,2024.2.4,MacIntel,60.24096386,,,,,,,,,,,,,,,,,,,,,,857.7608,857.9605,857.9605,858.4604,,,,,,,,,,,,,,0.7818,1,,,,,,,,,,,,,,m,,,,,,,,,,,,,,,,143,0,858.4608,859.2438,m,1,0.7818,,[],[],[],[],[],[],[],859.2438,861.2439,861.2439,861.2441,[],[],[],[],[],[],[],,861.2441,861.2441,-0.044894366,-0.385927343,0,0,0,,0,142,142,146,1,3,word,RETIRE,print,retire_p.png,,,,,,
,,,,30766,001,2025-10-19_16h33.30.268,HW_LDT_1,2024.2.4,MacIntel,60.24096386,,,,,,,,,,,,,,,,,,,,,,861.2452,861.4437,861.4437,861.9438,,,,,,,,,,,,,,0.7025,1,,,,,,,,,,,,,,z,,,,,,,,,,,,,,,,144,0,861.9443,862.6605,z,1,0.7025,,[],[],[],[],[],[],[],862.6606,864.6605,864.6605,864.6606,[],[],[],[],[],[],[],,864.6606,864.6607,-0.044894366,-0.385927343,0,0,0,,0,143,143,12,1,3,RL,formuke,cursive,formuke_c.png,,,,,,
,,,,30766,001,2025-10-19_16h33.30.268,HW_LDT_1,2024.2.4,MacIntel,60.24096386,,,,,,,,,,,,,,,,,,,,,,864.6617,864.8604,864.8604,865.3604,,,,,,,,,,,,,,0.7684,1,,,,,,,,,,,,,,m,,,,,,,,,,,,,,,,145,1,865.3608,866.1437,m,1,0.7684,,[],[],[],[],[],[],[],866.1437,868.1436,868.1437,869.0094,[],[],[],[],[],[],[],m,869.0094,869.0096,-0.044894366,-0.385927343,0,0,0,,0,144,144,133,1,3,word,PROVIDE,print,provide_p.png,0.859,,,,,
,,,,30766,001,2025-10-19_16h33.30.268,HW_LDT_1,2024.2.4,MacIntel,60.24096386,,,,,,,,,,,,,,,,,,,,,,869.0105,869.2105,869.2105,869.7104,,,,,,,,,,,,,,1.3148,1,,,,,,,,,,,,,,m,,,,,,,,,,,,,,,,146,0,869.7108,871.0268,m,1,1.3148,,[],[],[],[],[],[],[],871.0269,873.0259,873.026,873.0261,[],[],[],[],[],[],[],,873.0262,873.0263,-0.044894366,-0.385927343,0,0,0,,0,145,145,89,1,3,word,CAPACITY,cursive,capacity_c.png,,,,,,
,,,,30766,001,2025-10-19_16h33.30.268,HW_LDT_1,2024.2.4,MacIntel,60.24096386,,,,,,,,,,,,,,,,,,,,,,873.0274,873.2259,873.2259,873.727,,,,,,,,,,,,,,1.6918,0,,,,,,,,,,,,,,z,,,,,,,,,,,,,,,,147,1,873.7274,875.4269,m,0,1.6918,,[],[],[],[],[],[],[],875.4269,877.4268,877.4268,878.6268,[],[],[],[],[],[],[],z,878.6268,878.627,-0.044894366,-0.385927343,0,0,0,,0,146,146,54,1,3,TL,manire,cursive,manire_c.png,1.1995,,,,,
,,,,30766,001,2025-10-19_16h33.30.268,HW_LDT_1,2024.2.4,MacIntel,60.24096386,,,,,,,,,,,,,,,,,,,,,,878.6278,878.8258,878.8259,879.3267,,,,,,,,,,,,,,1.5923,1,,,,,,,,,,,,,,m,,,,,,,,,,,,,,,,148,0,879.3272,880.9258,m,1,1.5923,,[],[],[],[],[],[],[],880.9259,882.9262,882.9262,882.9263,[],[],[],[],[],[],[],,882.9263,882.9265,-0.044894366,-0.385927343,0,0,0,,0,147,147,107,1,3,word,EVIDENT,cursive,evident_c.png,,,,,,
,,,,30766,001,2025-10-19_16h33.30.268,HW_LDT_1,2024.2.4,MacIntel,60.24096386,,,,,,,,,,,,,,,,,,,,,,882.9276,883.1262,883.1262,883.6268,,,,,,,,,,,,,,0.9085,1,,,,,,,,,,,,,,m,,,,,,,,,,,,,,,,149,0,883.6274,884.5425,m,1,0.9085,,[],[],[],[],[],[],[],884.5427,886.5435,886.5435,886.5437,[],[],[],[],[],[],[],,886.5437,886.5438,-0.039616908,-0.382423145,0,0,0,,0,148,148,112,1,3,word,LIBERAL,print,liberal_p.png,,,,,,
,,,,30766,001,2025-10-19_16h33.30.268,HW_LDT_1,2024.2.4,MacIntel,60.24096386,,,,,,,,,,,,,,,,,,,,,,886.5449,886.7434,886.7434,887.2434,,,,,,,,,,,,,,1.3921,1,,,,,,,,,,,,,,m,,,,,,,,,,,,,,,,150,0,887.2439,888.6434,m,1,1.3921,,[],[],[],[],[],[],[],888.6434,890.6433,890.6433,890.6435,[],[],[],[],[],[],[],,890.6435,890.6435,-0.039616908,-0.382423145,0,0,0,,0,149,149,93,1,3,word,CEREMONY,cursive,ceremony_c.png,,,,,,
,,,,30766,001,2025-10-19_16h33.30.268,HW_LDT_1,2024.2.4,MacIntel,60.24096386,,,,,,,,,,,,,,,,,,,,,,890.6446,890.8434,890.8434,891.3423,,,,,,,,,,,,,,2.5534,1,,,,,,,,,,,,,,z,,,,,,,,,,,,,,,,151,0,891.3427,893.9101,z,1,2.5534,,[],[],[],[],[],[],[],893.9101,895.91,895.91,895.9102,[],[],[],[],[],[],[],,895.9102,895.9104,-0.039616908,-0.382173449,0,0,0,,0,150,150,30,1,3,RL,strapely,print,strapely_p.png,,,,,,
,,,,30766,001,2025-10-19_16h33.30.268,HW_LDT_1,2024.2.4,MacIntel,60.24096386,,,,,,,,,,,,,,,,,,,,,,895.9115,896.109,896.109,896.6099,,,,,,,,,,,,,,1.0486,1,,,,,,,,,,,,,,m,,,,,,,,,,,,,,,,152,0,896.6103,897.6599,m,1,1.0486,,[],[],[],[],[],[],[],897.66,899.6599,899.66,899.6601,[],[],[],[],[],[],[],,899.6601,899.6603,-0.040882313,-0.382173449,0,0,0,,0,151,151,86,1,3,word,BESIDE,cursive,beside_c.png,,,,,,
,,,,30766,001,2025-10-19_16h33.30.268,HW_LDT_1,2024.2.4,MacIntel,60.24096386,,,,,,,,,,,,,,,,,,,,,,899.6615,899.8596,899.8597,900.3588,,,,,,,,,,,,,,2.8657,1,,,,,,,,,,,,,,z,,,,,,,,,,,,,,,,153,0,900.3591,903.2257,z,1,2.8657,,[],[],[],[],[],[],[],903.2258,905.2266,905.2266,905.2267,[],[],[],[],[],[],[],,905.2267,905.2268,-0.040882313,-0.382173449,0,0,0,,0,152,152,6,1,3,RL,cenesony,cursive,cenesony_c.png,,,,,,
,,,,30766,001,2025-10-19_16h33.30.268,HW_LDT_1,2024.2.4,MacIntel,60.24096386,,,,,,,,,,,,,,,,,,,,,,905.2278,905.4264,905.4264,905.9264,,,,,,,,,,,,,,0.7816,1,,,,,,,,,,,,,,z,,,,,,,,,,,,,,,,154,0,905.9269,906.7098,z,1,0.7816,,[],[],[],[],[],[],[],906.7099,908.7097,908.7098,908.7098,[],[],[],[],[],[],[],,908.7099,908.71,-0.040882313,-0.382173449,0,0,0,,0,153,153,8,1,3,RL,cocewage,print,cocewage_p.png,,,,,,
,,,,30766,001,2025-10-19_16h33.30.268,HW_LDT_1,2024.2.4,MacIntel,60.24096386,,,,,,,,,,,,,,,,,,,,,,908.7111,908.9089,908.9089,909.4097,,,,,,,,,,,,,,1.1484,0,,,,,,,,,,,,,,m,,,,,,,,,,,,,,,,155,0,909.4102,910.559,z,0,1.1484,,[],[],[],[],[],[],[],910.5591,912.5597,912.5598,912.5599,[],[],[],[],[],[],[],,912.56,912.56,-0.040882313,-0.382173449,0,0,0,,0,154,154,140,1,3,word,RELATIVE,cursive,relative_c.png,,,,,,
,,,,30766,001,2025-10-19_16h33.30.268,HW_LDT_1,2024.2.4,MacIntel,60.24096386,,,,,,,,,,,,,,,,,,,,,,912.5613,912.7595,912.7595,913.2589,,,,,,,,,,,,,,1.3324,1,,,,,,,,,,,,,,z,,,,,,,,,,,,,,,,156,0,913.2595,914.5929,z,1,1.3324,,[],[],[],[],[],[],[],914.593,916.593,916.593,916.5932,[],[],[],[],[],[],[],,916.5933,916.5934,-0.040882313,-0.382173449,0,0,0,,0,155,155,40,1,3,TL,condiser,print,condiser_p.png,,,,,,
,,,,30766,001,2025-10-19_16h33.30.268,HW_LDT_1,2024.2.4,MacIntel,60.24096386,,,,,,,,,,,,,,,,,,,,,,916.5944,916.7929,916.793,917.2931,,,,,,,,,,,,,,1.3751,1,,,,,,,,,,,,,,m,,,,,,,,,,,,,,,,157,0,917.2936,918.6761,m,1,1.3751,,[],[],[],[],[],[],[],918.6762,920.6753,920.6754,920.6756,[],[],[],[],[],[],[],,920.6756,920.6756,-0.040882313,-0.382173449,0,0,0,,0,156,156,91,1,3,word,CARDINAL,print,cardinal_p.png,,,,,,
,,,,30766,001,2025-10-19_16h33.30.268,HW_LDT_1,2024.2.4,MacIntel,60.24096386,,,,,,,,,,,,,,,,,,,,,,920.6767,920.8762,920.8763,921.3754,,,,,,,,,,,,,,1.4426,1,,,,,,,,,,,,,,m,,,,,,,,,,,,,,,,158,0,921.3758,922.826,m,1,1.4426,,[],[],[],[],[],[],[],922.826,924.8252,924.8253,924.8254,[],[],[],[],[],[],[],,924.8255,924.8256,-0.040882313,-0.382173449,0,0,0,,0,157,157,94,1,3,word,CLINICAL,print,clinical_p.png,,,,,,
,,,,30766,001,2025-10-19_16h33.30.268,HW_LDT_1,2024.2.4,MacIntel,60.24096386,,,,,,,,,,,,,,,,,,,,,,924.8265,925.0263,925.0263,925.5262,,,,,,,,,,,,,,0.7757,1,,,,,,,,,,,,,,m,,,,,,,,,,,,,,,,159,0,925.5267,926.3087,m,1,0.7757,,[],[],[],[],[],[],[],926.3088,928.309,928.3091,928.3092,[],[],[],[],[],[],[],,928.3093,928.3095,-0.040882313,-0.382173449,0,0,0,,0,158,158,131,1,3,word,POPULAR,print,popular_p.png,,,,,,
,,,,30766,001,2025-10-19_16h33.30.268,HW_LDT_1,2024.2.4,MacIntel,60.24096386,,,,,,,,,,,,,,,,,,,,,,928.3105,928.5095,928.5096,929.0094,,,,,,,,,,,,,,1.198,1,,,,,,,,,,,,,,m,,,,,,,,,,,,,,,,160,0,929.01,930.2095,m,1,1.198,,[],[],[],[],[],[],[],930.2095,932.2093,932.2094,932.2096,[],[],[],[],[],[],[],,932.2098,932.2099,-0.040882313,-0.382173449,0,0,0,,0,159,159,142,1,3,word,REMOTE,print,remote_p.png,,,,,,
,,,,30766,001,2025-10-19_16h33.30.268,HW_LDT_1,2024.2.4,MacIntel,60.24096386,,,,,,,,,,,,,,,,,,,,,,,,,,,,,,,,,,,,,,,,,,,,,,,,,,,,,,,,,,,,,,,,,,,,,,,,,,,,,,,,,,,,,,,,,,,,,,,,,,,,,,,,,,,,,,,,,,,,,,,932.2182,937.2095
