counterbalance_lists.group,counterbalance_lists.remaining,get_list.started,get_list.stopped,participant,session,date,expName,psychopyVersion,OS,frameRate,Instructions.started,Instructions.stopped,key_resp.keys,key_resp.rt,key_resp.duration,instr_done_touch.x,instr_done_touch.y,instr_done_touch.leftButton,instr_done_touch.midButton,instr_done_touch.rightButton,start_instr.thisRepN,start_instr.thisTrialN,start_instr.thisN,start_instr.thisIndex,start_instr.ran,pageN,phase,instruct_text,has_image,instruct_image,showProgress.started,showProgress.stopped,fix.started,fix.stopped,prac.started,prac.stopped,response.keys,response.corr,response.rt,response.duration,touch_resp.x,touch_resp.y,touch_resp.leftButton,touch_resp.midButton,touch_resp.rightButton,touch_resp.time,touch_resp.clicked_name,rt,corr,feedback.started,feedback.stopped,trials.thisRepN,trials.thisTrialN,trials.thisN,trials.thisIndex,trials.ran,TrialID,StimulusType,Condition,PrimeDuration,Prime,Target,corrAns,Instructions_expt.started,Instructions_expt.stopped,key_resp_3.keys,key_resp_3.rt,key_resp_3.duration,instr_done_touch_3.x,instr_done_touch_3.y,instr_done_touch_3.leftButton,instr_done_touch_3.midButton,instr_done_touch_3.rightButton,instr_experiment.thisRepN,instr_experiment.thisTrialN,instr_experiment.thisN,instr_experiment.thisIndex,instr_experiment.ran,trialID,flag,maintask.started,maintask.stopped,key_resp_2.keys,key_resp_2.corr,key_resp_2.rt,key_resp_2.duration,targ_click.x,targ_click.y,targ_click.leftButton,targ_click.midButton,targ_click.rightButton,targ_click.time,targ_click.clicked_name,ITI.started,ITI.stopped,probe.started,probe.stopped,click_probe.x,click_probe.y,click_probe.leftButton,click_probe.midButton,click_probe.rightButton,click_probe.time,click_probe.clicked_name,key_resp_probe.keys,Break.started,Break.stopped,break_done_touch.x,break_done_touch.y,break_done_touch.leftButton,break_done_touch.midButton,break_done_touch.rightButton,break_done_keyboard.keys,list4_trials.thisRepN,list4_trials.thisTrialN,list4_trials.thisN,list4_trials.thisIndex,list4_trials.ran,list_id,item_type,string,font,stim_file,key_resp_probe.rt,key_resp_probe.duration,break_done_keyboard.rt,break_done_keyboard.duration,End.started,End.stopped
list4,,0.4973,0.4974,30811,001,2025-10-19_12h18.18.097,HW_LDT_1,2024.2.4,MacIntel,29.94011976,,,,,,,,,,,,,,,,,,,,,,,,,,,,,,,,,,,,,,,,,,,,,,,,,,,,,,,,,,,,,,,,,,,,,,,,,,,,,,,,,,,,,,,,,,,,,,,,,,,,,,,,,,,,,,,,,,,,,,,
,,,,30811,001,2025-10-19_12h18.18.097,HW_LDT_1,2024.2.4,MacIntel,29.94011976,0.5124,1.316,space,0.7843,,-0.146749132,0.038993056,0,0,0,0,0,0,0,1,1,instructions,"INSTRUCTIONS
At the start of each trial, look at the plus sign  (+) in the center of the screen.  This tells you that a trial is about to begin and where to look. Second, the plus sign will disappear and a string of letters will appear. Your task is to determine if the string of letters is a word or not. If the item is a word press the M key (on keyboard)  or touch the word button (phone/tablet).  If the item is not a word,  press the  Z key (on keyboard)  or touch the nonword button (on phone/tablet). The items will be presented for a short time. 
Press the space bar or touch  continue.",0,,,,,,,,,,,,,,,,,,,,,,,,,,,,,,,,,,,,,,,,,,,,,,,,,,,,,,,,,,,,,,,,,,,,,,,,,,,,,,,,,,,,,,,,,,,,,,,,,,,,
,,,,30811,001,2025-10-19_12h18.18.097,HW_LDT_1,2024.2.4,MacIntel,29.94011976,1.317,1.9488,space,0.6132,,-0.146749132,0.038993056,0,0,0,0,1,1,1,1,2,instructions,"If your device has a keyboard, press the 'Z' key for nonwords and the 'M' key for words.





Press the space bar or touch the button below to continue.",0,keyboard-example.gif,,,,,,,,,,,,,,,,,,,,,,,,,,,,,,,,,,,,,,,,,,,,,,,,,,,,,,,,,,,,,,,,,,,,,,,,,,,,,,,,,,,,,,,,,,,,,,,,,,,
,,,,30811,001,2025-10-19_12h18.18.097,HW_LDT_1,2024.2.4,MacIntel,29.94011976,1.9496,3.4495,space,1.4792,,-0.146749132,0.038993056,0,0,0,0,2,2,2,1,3,instructions,"If you are using a touchscreen only device, use the buttons on the screen. Do not use the mouse.





Press the space bar or touch the button below to continue.",0,touchscreen-example.gif,,,,,,,,,,,,,,,,,,,,,,,,,,,,,,,,,,,,,,,,,,,,,,,,,,,,,,,,,,,,,,,,,,,,,,,,,,,,,,,,,,,,,,,,,,,,,,,,,,,
,,,,30811,001,2025-10-19_12h18.18.097,HW_LDT_1,2024.2.4,MacIntel,29.94011976,3.4517,5.5164,space,2.0263,,-0.146749132,0.038993056,0,0,0,0,3,3,3,1,4,instructions,"It is very important that you respond as quickly and accurately as possible, as each letter string will only be on the screen for two seconds. If you do not respond within this time, the message 'Too slow!' will be displayed and the experiment will progress to the next letter string. The first 20 trials will be practice trials and you will receive feedback on your answers. 

Press the space bar or touch the button below to start the practice trials.",0,,,,,,,,,,,,,,,,,,,,,,,,,,,,,,,,,,,,,,,,,,,,,,,,,,,,,,,,,,,,,,,,,,,,,,,,,,,,,,,,,,,,,,,,,,,,,,,,,,,,
,,,,30811,001,2025-10-19_12h18.18.097,HW_LDT_1,2024.2.4,MacIntel,29.94011976,,,,,,,,,,,,,,,,,,,,,5.5404,5.7158,5.7162,6.2156,6.2158,8.4159,z,1,2.1813,,[],[],[],[],[],[],[],2.1813,1,8.4161,8.9163,0,0,0,10,1,1011,NW,"ID",16,inlade,INLADE,z,,,,,,,,,,,,,,,,,,,,,,,,,,,,,,,,,,,,,,,,,,,,,,,,,,,,,,,,,,,,,,,,,,
,,,,30811,001,2025-10-19_12h18.18.097,HW_LDT_1,2024.2.4,MacIntel,29.94011976,,,,,,,,,,,,,,,,,,,,,8.9182,9.1159,9.116,9.6155,9.6159,10.4161,m,1,0.7661,,[],[],[],[],[],[],[],0.7661,1,10.4162,10.9163,0,1,1,1,1,1002,WORD,"ID",33,adjust,ADJUST,m,,,,,,,,,,,,,,,,,,,,,,,,,,,,,,,,,,,,,,,,,,,,,,,,,,,,,,,,,,,,,,,,,,
,,,,30811,001,2025-10-19_12h18.18.097,HW_LDT_1,2024.2.4,MacIntel,29.94011976,,,,,,,,,,,,,,,,,,,,,10.918,11.1152,11.1153,11.6161,11.6174,12.2822,m,1,0.6289,,[],[],[],[],[],[],[],0.6289,1,12.2824,12.7829,0,2,2,4,1,1005,WORD,UN,33,abound,SQUEAK,m,,,,,,,,,,,,,,,,,,,,,,,,,,,,,,,,,,,,,,,,,,,,,,,,,,,,,,,,,,,,,,,,,,
,,,,30811,001,2025-10-19_12h18.18.097,HW_LDT_1,2024.2.4,MacIntel,29.94011976,,,,,,,,,,,,,,,,,,,,,12.7847,12.9827,12.9828,13.4827,13.4838,14.3162,z,1,0.7969,,[],[],[],[],[],[],[],0.7969,1,14.3164,14.8153,0,3,3,14,1,1015,NW,UN,16,miaber,THRALE,z,,,,,,,,,,,,,,,,,,,,,,,,,,,,,,,,,,,,,,,,,,,,,,,,,,,,,,,,,,,,,,,,,,
,,,,30811,001,2025-10-19_12h18.18.097,HW_LDT_1,2024.2.4,MacIntel,29.94011976,,,,,,,,,,,,,,,,,,,,,14.8172,15.0161,15.0163,15.5162,15.5175,16.2158,z,1,0.6779,,[],[],[],[],[],[],[],0.6779,1,16.2158,16.7163,0,4,4,13,1,1014,NW,UN,33,winfer,ROUPET,z,,,,,,,,,,,,,,,,,,,,,,,,,,,,,,,,,,,,,,,,,,,,,,,,,,,,,,,,,,,,,,,,,,
,,,,30811,001,2025-10-19_12h18.18.097,HW_LDT_1,2024.2.4,MacIntel,29.94011976,,,,,,,,,,,,,,,,,,,,,16.7181,16.9162,16.9162,17.4162,17.4174,17.9826,m,1,0.5553,,[],[],[],[],[],[],[],0.5553,1,17.9828,18.482,0,5,5,5,1,1006,WORD,UN,33,frenzy,OBTAIN,m,,,,,,,,,,,,,,,,,,,,,,,,,,,,,,,,,,,,,,,,,,,,,,,,,,,,,,,,,,,,,,,,,,
,,,,30811,001,2025-10-19_12h18.18.097,HW_LDT_1,2024.2.4,MacIntel,29.94011976,,,,,,,,,,,,,,,,,,,,,18.4839,18.6823,18.6824,19.1829,19.1842,19.9163,z,1,0.7112,,[],[],[],[],[],[],[],0.7112,1,19.9164,20.4166,0,6,6,9,1,1010,NW,"ID",33,fariny,FARINY,z,,,,,,,,,,,,,,,,,,,,,,,,,,,,,,,,,,,,,,,,,,,,,,,,,,,,,,,,,,,,,,,,,,
,,,,30811,001,2025-10-19_12h18.18.097,HW_LDT_1,2024.2.4,MacIntel,29.94011976,,,,,,,,,,,,,,,,,,,,,20.4185,20.6164,20.6165,21.1155,21.1167,21.8155,z,1,0.6765,,[],[],[],[],[],[],[],0.6765,1,21.8156,22.3161,0,7,7,15,1,1016,NW,UN,16,mushed,WHAISE,z,,,,,,,,,,,,,,,,,,,,,,,,,,,,,,,,,,,,,,,,,,,,,,,,,,,,,,,,,,,,,,,,,,
,,,,30811,001,2025-10-19_12h18.18.097,HW_LDT_1,2024.2.4,MacIntel,29.94011976,,,,,,,,,,,,,,,,,,,,,22.318,22.5162,22.5163,23.0163,23.0175,23.7489,m,0,0.6986,,[],[],[],[],[],[],[],0.6986,0,23.75,24.2499,0,8,8,12,1,1013,NW,UN,33,adveil,SPRINY,z,,,,,,,,,,,,,,,,,,,,,,,,,,,,,,,,,,,,,,,,,,,,,,,,,,,,,,,,,,,,,,,,,,
,,,,30811,001,2025-10-19_12h18.18.097,HW_LDT_1,2024.2.4,MacIntel,29.94011976,,,,,,,,,,,,,,,,,,,,,24.2515,24.4497,24.4499,24.9498,24.951,25.716,z,1,0.7477,,[],[],[],[],[],[],[],0.7477,1,25.7169,26.2166,0,9,9,8,1,1009,NW,"ID",33,aslert,ASLERT,z,,,,,,,,,,,,,,,,,,,,,,,,,,,,,,,,,,,,,,,,,,,,,,,,,,,,,,,,,,,,,,,,,,
,,,,30811,001,2025-10-19_12h18.18.097,HW_LDT_1,2024.2.4,MacIntel,29.94011976,,,,,,,,,,,,,,,,,,,,,26.2183,26.4164,26.4165,26.9163,26.9177,27.8499,m,1,0.8981,,[],[],[],[],[],[],[],0.8981,1,27.85,28.3499,0,10,10,0,1,1001,WORD,"ID",33,utopia,UTOPIA,m,,,,,,,,,,,,,,,,,,,,,,,,,,,,,,,,,,,,,,,,,,,,,,,,,,,,,,,,,,,,,,,,,,
,,,,30811,001,2025-10-19_12h18.18.097,HW_LDT_1,2024.2.4,MacIntel,29.94011976,,,,,,,,,,,,,,,,,,,,,28.3515,28.5489,28.5489,29.0501,29.0513,29.7833,m,1,0.7109,,[],[],[],[],[],[],[],0.7109,1,29.7835,30.2833,0,11,11,6,1,1007,WORD,UN,16,tropic,ZOMBIE,m,,,,,,,,,,,,,,,,,,,,,,,,,,,,,,,,,,,,,,,,,,,,,,,,,,,,,,,,,,,,,,,,,,
,,,,30811,001,2025-10-19_12h18.18.097,HW_LDT_1,2024.2.4,MacIntel,29.94011976,,,,,,,,,,,,,,,,,,,,,30.2851,30.4832,30.4834,30.9832,30.9844,32.1156,m,1,1.0981,,[],[],[],[],[],[],[],1.0981,1,32.1158,32.6168,0,12,12,2,1,1003,WORD,"ID",16,almond,ALMOND,m,,,,,,,,,,,,,,,,,,,,,,,,,,,,,,,,,,,,,,,,,,,,,,,,,,,,,,,,,,,,,,,,,,
,,,,30811,001,2025-10-19_12h18.18.097,HW_LDT_1,2024.2.4,MacIntel,29.94011976,,,,,,,,,,,,,,,,,,,,,32.6185,32.8166,32.8168,33.3166,33.318,34.05,m,1,0.7091,,[],[],[],[],[],[],[],0.7091,1,34.0501,34.5501,0,13,13,3,1,1004,WORD,"ID",16,matrix,MATRIX,m,,,,,,,,,,,,,,,,,,,,,,,,,,,,,,,,,,,,,,,,,,,,,,,,,,,,,,,,,,,,,,,,,,
,,,,30811,001,2025-10-19_12h18.18.097,HW_LDT_1,2024.2.4,MacIntel,29.94011976,,,,,,,,,,,,,,,,,,,,,34.5518,34.7489,34.749,35.2488,35.2501,35.9154,m,1,0.6405,,[],[],[],[],[],[],[],0.6405,1,35.9155,36.4162,0,14,14,7,1,1008,WORD,UN,16,hurdle,VOLUME,m,,,,,,,,,,,,,,,,,,,,,,,,,,,,,,,,,,,,,,,,,,,,,,,,,,,,,,,,,,,,,,,,,,
,,,,30811,001,2025-10-19_12h18.18.097,HW_LDT_1,2024.2.4,MacIntel,29.94011976,,,,,,,,,,,,,,,,,,,,,36.4178,36.6166,36.6167,37.1167,37.1179,37.8831,z,1,0.7307,,[],[],[],[],[],[],[],0.7307,1,37.8832,38.3835,0,15,15,11,1,1012,NW,"ID",16,rashet,RASHET,z,,,,,,,,,,,,,,,,,,,,,,,,,,,,,,,,,,,,,,,,,,,,,,,,,,,,,,,,,,,,,,,,,,
,,,,30811,001,2025-10-19_12h18.18.097,HW_LDT_1,2024.2.4,MacIntel,29.94011976,,,,,,,,,,,,,,,,1,end_of_practice,"You have completed the practice trials. During the experimental trials, you will not receive feedback. On some trials you will be asked to report whether the item you just saw was in cursive or print. 
Before you begin, please ensure that you are in a comfortable and quiet location and will not be disturbed for about 15 minutes, as we cannot use your data if you do not complete all the trials. 
 When you are ready to start the experimental trials, please press space or touch the button below.",,,,,,,,,,,,,,,,,,,,,,,,,,,,,,,,,,,,38.393,39.2839,space,0.8644,,-0.146749132,0.038993056,0,0,0,0,0,0,0,1,,,,,,,,,,,,,,,,,,,,,,,,,,,,,,,,,,,,,,,,,,,,,,,,,,,
,,,,30811,001,2025-10-19_12h18.18.097,HW_LDT_1,2024.2.4,MacIntel,29.94011976,,,,,,,,,,,,,,,,,,,,,39.3031,39.4837,39.4837,39.9835,,,,,,,,,,,,,,1.0261,1,,,,,,,,,,,,,,m,,,,,,,,,,,,,,,,1,0,39.9851,41.0167,m,1,1.0261,,[],[],[],[],[],[],[],41.017,43.0172,43.0176,43.0211,[],[],[],[],[],[],[],,43.0213,43.0231,-0.146749132,0.038993056,0,0,0,,0,0,0,141,1,4,word,RELIGION,print,religion_p.png,,,,,,
,,,,30811,001,2025-10-19_12h18.18.097,HW_LDT_1,2024.2.4,MacIntel,29.94011976,,,,,,,,,,,,,,,,,,,,,43.0241,43.2169,43.2171,43.7169,,,,,,,,,,,,,,2.3164,1,,,,,,,,,,,,,,z,,,,,,,,,,,,,,,,2,0,43.7177,46.0499,z,1,2.3164,,[],[],[],[],[],[],[],46.0501,48.0504,48.0505,48.0509,[],[],[],[],[],[],[],,48.051,48.0512,-0.146749132,0.038993056,0,0,0,,0,1,1,45,1,4,RL,spetisic,cursive,spetisic_c.png,,,,,,
,,,,30811,001,2025-10-19_12h18.18.097,HW_LDT_1,2024.2.4,MacIntel,29.94011976,,,,,,,,,,,,,,,,,,,,,48.0525,48.2504,48.2504,48.7504,,,,,,,,,,,,,,0.6697,1,,,,,,,,,,,,,,m,,,,,,,,,,,,,,,,3,0,48.7512,49.4506,m,1,0.6697,,[],[],[],[],[],[],[],49.4507,51.4505,51.4506,51.451,[],[],[],[],[],[],[],,51.451,51.4512,-0.146749132,0.038993056,0,0,0,,0,2,2,83,1,4,word,ANIMAL,cursive,animal_c.png,,,,,,
,,,,30811,001,2025-10-19_12h18.18.097,HW_LDT_1,2024.2.4,MacIntel,29.94011976,,,,,,,,,,,,,,,,,,,,,51.4526,51.6496,51.6496,52.1505,,,,,,,,,,,,,,1.252,1,,,,,,,,,,,,,,m,,,,,,,,,,,,,,,,4,0,52.1513,53.4172,m,1,1.252,,[],[],[],[],[],[],[],53.4173,55.4164,55.4165,55.4168,[],[],[],[],[],[],[],,55.4168,55.417,-0.146749132,0.038993056,0,0,0,,0,3,3,111,1,4,word,INDICATE,print,indicate_p.png,,,,,,
,,,,30811,001,2025-10-19_12h18.18.097,HW_LDT_1,2024.2.4,MacIntel,29.94011976,,,,,,,,,,,,,,,,,,,,,55.4185,55.6173,55.6174,56.1172,,,,,,,,,,,,,,1.0399,0,,,,,,,,,,,,,,z,,,,,,,,,,,,,,,,5,1,56.1181,57.1841,m,0,1.0399,,[],[],[],[],[],[],[],57.1843,59.184,59.1841,61.7171,[],[],[],[],[],[],[],z,61.7172,61.7173,-0.146749132,0.038993056,0,0,0,,0,4,4,77,1,4,TL,spemicen,cursive,spemicen_c.png,2.514,,,,,
,,,,30811,001,2025-10-19_12h18.18.097,HW_LDT_1,2024.2.4,MacIntel,29.94011976,,,,,,,,,,,,,,,,,,,,,61.7184,61.9174,61.9175,62.4174,,,,,,,,,,,,,,0.3601,1,,,,,,,,,,,,,,z,,,,,,,,,,,,,,,,6,0,62.4183,62.7838,z,1,0.3601,,[],[],[],[],[],[],[],62.784,64.7841,64.7842,64.7847,[],[],[],[],[],[],[],,64.7848,64.7849,-0.146749132,0.038993056,0,0,0,,0,5,5,48,1,4,RL,vabifity,print,vabifity_p.png,,,,,,
,,,,30811,001,2025-10-19_12h18.18.097,HW_LDT_1,2024.2.4,MacIntel,29.94011976,,,,,,,,,,,,,,,,,,,,,64.7864,64.9841,64.9842,65.4843,,,,,,,,,,,,,,0.6617,1,,,,,,,,,,,,,,m,,,,,,,,,,,,,,,,7,0,65.4851,66.151,m,1,0.6617,,[],[],[],[],[],[],[],66.1511,68.1508,68.151,68.1513,[],[],[],[],[],[],[],,68.1513,68.1515,-0.146749132,0.038993056,0,0,0,,0,6,6,84,1,4,word,BELOVED,print,beloved_p.png,,,,,,
,,,,30811,001,2025-10-19_12h18.18.097,HW_LDT_1,2024.2.4,MacIntel,29.94011976,,,,,,,,,,,,,,,,,,,,,68.153,68.351,68.351,68.8511,,,,,,,,,,,,,,0.5946,1,,,,,,,,,,,,,,m,,,,,,,,,,,,,,,,8,0,68.8518,69.451,m,1,0.5946,,[],[],[],[],[],[],[],69.4511,71.4512,71.4513,71.4516,[],[],[],[],[],[],[],,71.4516,71.4517,-0.146749132,0.038993056,0,0,0,,0,7,7,95,1,4,word,COMEDY,print,comedy_p.png,,,,,,
,,,,30811,001,2025-10-19_12h18.18.097,HW_LDT_1,2024.2.4,MacIntel,29.94011976,,,,,,,,,,,,,,,,,,,,,71.4533,71.6511,71.6511,72.1511,,,,,,,,,,,,,,0.9947,1,,,,,,,,,,,,,,z,,,,,,,,,,,,,,,,9,0,72.1519,73.1509,z,1,0.9947,,[],[],[],[],[],[],[],73.151,75.1511,75.1512,75.1515,[],[],[],[],[],[],[],,75.1516,75.1517,-0.146749132,0.038993056,0,0,0,,0,8,8,79,1,4,TL,tritube,print,tritube_p.png,,,,,,
,,,,30811,001,2025-10-19_12h18.18.097,HW_LDT_1,2024.2.4,MacIntel,29.94011976,,,,,,,,,,,,,,,,,,,,,75.1531,75.3512,75.3512,75.851,,,,,,,,,,,,,,0.7651,1,,,,,,,,,,,,,,m,,,,,,,,,,,,,,,,10,0,75.8518,76.6181,m,1,0.7651,,[],[],[],[],[],[],[],76.6181,78.618,78.618,78.6183,[],[],[],[],[],[],[],,78.6184,78.6187,-0.146749132,0.038993056,0,0,0,,0,9,9,123,1,4,word,MODERATE,print,moderate_p.png,,,,,,
,,,,30811,001,2025-10-19_12h18.18.097,HW_LDT_1,2024.2.4,MacIntel,29.94011976,,,,,,,,,,,,,,,,,,,,,78.62,78.8179,78.818,79.318,,,,,,,,,,,,,,0.8262,1,,,,,,,,,,,,,,m,,,,,,,,,,,,,,,,11,0,79.3189,80.1513,m,1,0.8262,,[],[],[],[],[],[],[],80.1514,82.1513,82.1514,82.1517,[],[],[],[],[],[],[],,82.1517,82.1519,-0.146749132,0.038993056,0,0,0,,0,10,10,112,1,4,word,LIBERAL,cursive,liberal_c.png,,,,,,
,,,,30811,001,2025-10-19_12h18.18.097,HW_LDT_1,2024.2.4,MacIntel,29.94011976,,,,,,,,,,,,,,,,,,,,,82.1534,82.3513,82.3513,82.8514,,,,,,,,,,,,,,0.7307,1,,,,,,,,,,,,,,z,,,,,,,,,,,,,,,,12,0,82.852,83.5846,z,1,0.7307,,[],[],[],[],[],[],[],83.5846,85.5848,85.5849,85.5851,[],[],[],[],[],[],[],,85.5853,85.5854,-0.146749132,0.038993056,0,0,0,,0,11,11,57,1,4,TL,etidor,print,etidor_p.png,,,,,,
,,,,30811,001,2025-10-19_12h18.18.097,HW_LDT_1,2024.2.4,MacIntel,29.94011976,,,,,,,,,,,,,,,,,,,,,85.5869,85.7846,85.7847,86.2847,,,,,,,,,,,,,,0.8536,1,,,,,,,,,,,,,,z,,,,,,,,,,,,,,,,13,0,86.2855,87.1512,z,1,0.8536,,[],[],[],[],[],[],[],87.1513,89.1516,89.1516,89.1519,[],[],[],[],[],[],[],,89.1519,89.1521,-0.146749132,0.038993056,0,0,0,,0,12,12,50,1,4,RL,vecelan,cursive,vecelan_c.png,,,,,,
,,,,30811,001,2025-10-19_12h18.18.097,HW_LDT_1,2024.2.4,MacIntel,29.94011976,,,,,,,,,,,,,,,,,,,,,89.1535,89.3517,89.3518,89.8517,,,,,,,,,,,,,,1.3972,1,,,,,,,,,,,,,,z,,,,,,,,,,,,,,,,14,0,89.8524,91.2506,z,1,1.3972,,[],[],[],[],[],[],[],91.2507,93.2516,93.2517,93.252,[],[],[],[],[],[],[],,93.2521,93.2522,-0.146749132,0.038993056,0,0,0,,0,13,13,37,1,4,RL,renutal,cursive,renutal_c.png,,,,,,
,,,,30811,001,2025-10-19_12h18.18.097,HW_LDT_1,2024.2.4,MacIntel,29.94011976,,,,,,,,,,,,,,,,,,,,,93.2537,93.4516,93.4517,93.9517,,,,,,,,,,,,,,0.8588,0,,,,,,,,,,,,,,z,,,,,,,,,,,,,,,,15,0,93.9525,94.8177,m,0,0.8588,,[],[],[],[],[],[],[],94.8177,96.8183,96.8184,96.8186,[],[],[],[],[],[],[],,96.8187,96.8189,-0.146749132,0.038993056,0,0,0,,0,14,14,53,1,4,TL,cemerony,print,cemerony_p.png,,,,,,
,,,,30811,001,2025-10-19_12h18.18.097,HW_LDT_1,2024.2.4,MacIntel,29.94011976,,,,,,,,,,,,,,,,,,,,,96.8203,97.0184,97.0185,97.5174,,,,,,,,,,,,,,1.4762,1,,,,,,,,,,,,,,m,,,,,,,,,,,,,,,,16,0,97.5183,99.0185,m,1,1.4762,,[],[],[],[],[],[],[],99.0186,101.0186,101.0187,101.0189,[],[],[],[],[],[],[],,101.0189,101.0191,-0.146749132,0.038993056,0,0,0,,0,15,15,98,1,4,word,CRIMINAL,cursive,criminal_c.png,,,,,,
,,,,30811,001,2025-10-19_12h18.18.097,HW_LDT_1,2024.2.4,MacIntel,29.94011976,,,,,,,,,,,,,,,,,,,,,101.0204,101.2186,101.2187,101.7186,,,,,,,,,,,,,,0.7975,0,,,,,,,,,,,,,,z,,,,,,,,,,,,,,,,17,1,101.7194,102.5185,m,0,0.7975,,[],[],[],[],[],[],[],102.5186,104.5187,104.5188,106.452,[],[],[],[],[],[],[],m,106.4521,106.4523,-0.146749132,0.038993056,0,0,0,,0,16,16,69,1,4,TL,quafily,print,quafily_p.png,1.9205,,,,,
,,,,30811,001,2025-10-19_12h18.18.097,HW_LDT_1,2024.2.4,MacIntel,29.94011976,,,,,,,,,,,,,,,,,,,,,106.4535,106.6522,106.6522,107.152,,,,,,,,,,,,,,1.2537,1,,,,,,,,,,,,,,z,,,,,,,,,,,,,,,,18,1,107.1528,108.4188,z,1,1.2537,,[],[],[],[],[],[],[],108.4189,110.4188,110.4189,111.7519,[],[],[],[],[],[],[],z,111.7519,111.7521,-0.146749132,0.038993056,0,0,0,,0,17,17,35,1,4,RL,probice,cursive,probice_c.png,1.3177,,,,,
,,,,30811,001,2025-10-19_12h18.18.097,HW_LDT_1,2024.2.4,MacIntel,29.94011976,,,,,,,,,,,,,,,,,,,,,111.7528,111.9521,111.9521,112.4523,,,,,,,,,,,,,,0.67,1,,,,,,,,,,,,,,m,,,,,,,,,,,,,,,,19,0,112.4529,113.1523,m,1,0.67,,[],[],[],[],[],[],[],113.1524,115.1523,115.1524,115.1526,[],[],[],[],[],[],[],,115.1527,115.1529,-0.146749132,0.038993056,0,0,0,,0,18,18,107,1,4,word,EVIDENT,print,evident_p.png,,,,,,
,,,,30811,001,2025-10-19_12h18.18.097,HW_LDT_1,2024.2.4,MacIntel,29.94011976,,,,,,,,,,,,,,,,,,,,,115.1543,115.3523,115.3523,115.8523,,,,,,,,,,,,,,0.9811,1,,,,,,,,,,,,,,z,,,,,,,,,,,,,,,,20,0,115.853,116.852,z,1,0.9811,,[],[],[],[],[],[],[],116.8521,118.8523,118.8523,118.8525,[],[],[],[],[],[],[],,118.8526,118.8527,-0.146749132,0.038993056,0,0,0,,0,19,19,65,1,4,TL,orepator,print,orepator_p.png,,,,,,
,,,,30811,001,2025-10-19_12h18.18.097,HW_LDT_1,2024.2.4,MacIntel,29.94011976,,,,,,,,,,,,,,,,,,,,,118.8542,119.0524,119.0524,119.5524,,,,,,,,,,,,,,0.6415,1,,,,,,,,,,,,,,m,,,,,,,,,,,,,,,,21,0,119.5531,120.2189,m,1,0.6415,,[],[],[],[],[],[],[],120.219,122.2191,122.2192,122.2195,[],[],[],[],[],[],[],,122.2195,122.2197,-0.146749132,0.038993056,0,0,0,,0,20,20,157,1,4,word,VALIDITY,print,validity_p.png,,,,,,
,,,,30811,001,2025-10-19_12h18.18.097,HW_LDT_1,2024.2.4,MacIntel,29.94011976,,,,,,,,,,,,,,,,,,,,,122.2212,122.4191,122.4192,122.9191,,,,,,,,,,,,,,0.6825,1,,,,,,,,,,,,,,m,,,,,,,,,,,,,,,,22,0,122.9199,123.6191,m,1,0.6825,,[],[],[],[],[],[],[],123.6192,125.6192,125.6193,125.6196,[],[],[],[],[],[],[],,125.6196,125.6198,-0.146749132,0.038993056,0,0,0,,0,21,21,159,1,4,word,VETERAN,cursive,veteran_c.png,,,,,,
,,,,30811,001,2025-10-19_12h18.18.097,HW_LDT_1,2024.2.4,MacIntel,29.94011976,,,,,,,,,,,,,,,,,,,,,125.6213,125.8192,125.8193,126.3192,,,,,,,,,,,,,,0.589,1,,,,,,,,,,,,,,m,,,,,,,,,,,,,,,,23,0,126.3199,126.919,m,1,0.589,,[],[],[],[],[],[],[],126.9191,128.9192,128.9192,128.9195,[],[],[],[],[],[],[],,128.9195,128.9197,-0.146749132,0.038993056,0,0,0,,0,22,22,155,1,4,word,STRATEGY,print,strategy_p.png,,,,,,
,,,,30811,001,2025-10-19_12h18.18.097,HW_LDT_1,2024.2.4,MacIntel,29.94011976,,,,,,,,,,,,,,,,,,,,,128.9213,129.1193,129.1194,129.6193,,,,,,,,,,,,,,0.8235,1,,,,,,,,,,,,,,z,,,,,,,,,,,,,,,,24,0,129.6201,130.4526,z,1,0.8235,,[],[],[],[],[],[],[],130.4527,132.4527,132.4527,132.453,[],[],[],[],[],[],[],,132.4531,132.4531,-0.146749132,0.038993056,0,0,0,,0,23,23,70,1,4,TL,quatily,print,quatily_p.png,,,,,,
,,,,30811,001,2025-10-19_12h18.18.097,HW_LDT_1,2024.2.4,MacIntel,29.94011976,,,,,,,,,,,,,,,,,,,,,132.4547,132.6529,132.653,133.1529,,,,,,,,,,,,,,0.556,1,,,,,,,,,,,,,,m,,,,,,,,,,,,,,,,25,0,133.1535,133.7185,m,1,0.556,,[],[],[],[],[],[],[],133.7186,135.7192,135.7193,135.7195,[],[],[],[],[],[],[],,135.7196,135.7197,-0.146749132,0.038993056,0,0,0,,0,24,24,115,1,4,word,LOGICAL,print,logical_p.png,,,,,,
,,,,30811,001,2025-10-19_12h18.18.097,HW_LDT_1,2024.2.4,MacIntel,29.94011976,,,,,,,,,,,,,,,,,,,,,135.7213,135.9195,135.9195,136.4195,,,,,,,,,,,,,,1.9399,0,,,,,,,,,,,,,,m,,,,,,,,,,,,,,,,26,0,136.4203,138.3864,z,0,1.9399,,[],[],[],[],[],[],[],138.3865,140.3856,140.3857,140.3859,[],[],[],[],[],[],[],,140.3859,140.3861,-0.146749132,0.038993056,0,0,0,,0,25,25,106,1,4,word,ELABORATE,cursive,elaborate_c.png,,,,,,
,,,,30811,001,2025-10-19_12h18.18.097,HW_LDT_1,2024.2.4,MacIntel,29.94011976,,,,,,,,,,,,,,,,,,,,,140.3876,140.5863,140.5864,141.0865,,,,,,,,,,,,,,0.5365,1,,,,,,,,,,,,,,m,,,,,,,,,,,,,,,,27,1,141.0873,141.6531,m,1,0.5365,,[],[],[],[],[],[],[],141.6532,143.653,143.6531,145.1528,[],[],[],[],[],[],[],m,145.153,145.153,-0.146749132,0.038993056,0,0,0,,0,26,26,135,1,4,word,QUALITY,print,quality_p.png,1.487,,,,,
,,,,30811,001,2025-10-19_12h18.18.097,HW_LDT_1,2024.2.4,MacIntel,29.94011976,,,,,,,,,,,,,,,,,,,,,145.1538,145.3532,145.3532,145.8529,,,,,,,,,,,,,,0.7699,1,,,,,,,,,,,,,,z,,,,,,,,,,,,,,,,28,0,145.8536,146.653,z,1,0.7699,,[],[],[],[],[],[],[],146.6532,148.6532,148.6534,148.6536,[],[],[],[],[],[],[],,148.6536,148.6538,-0.146749132,0.038993056,0,0,0,,0,27,27,20,1,4,RL,gralekul,print,gralekul_p.png,,,,,,
,,,,30811,001,2025-10-19_12h18.18.097,HW_LDT_1,2024.2.4,MacIntel,29.94011976,,,,,,,,,,,,,,,,,,,,,148.6553,148.8533,148.8533,149.3532,,,,,,,,,,,,,,0.8511,1,,,,,,,,,,,,,,z,,,,,,,,,,,,,,,,29,0,149.354,150.2195,z,1,0.8511,,[],[],[],[],[],[],[],150.2195,152.2199,152.22,152.2203,[],[],[],[],[],[],[],,152.2203,152.2204,-0.146749132,0.038993056,0,0,0,,0,28,28,68,1,4,TL,prosopal,print,prosopal_p.png,,,,,,
,,,,30811,001,2025-10-19_12h18.18.097,HW_LDT_1,2024.2.4,MacIntel,29.94011976,,,,,,,,,,,,,,,,,,,,,152.2221,152.4192,152.4192,152.9199,,,,,,,,,,,,,,0.986,1,,,,,,,,,,,,,,z,,,,,,,,,,,,,,,,30,0,152.9207,153.9198,z,1,0.986,,[],[],[],[],[],[],[],153.9199,155.9202,155.9203,155.9205,[],[],[],[],[],[],[],,155.9206,155.9208,-0.146749132,0.038993056,0,0,0,,0,29,29,1,1,4,RL,afaneur,cursive,afaneur_c.png,,,,,,
,,,,30811,001,2025-10-19_12h18.18.097,HW_LDT_1,2024.2.4,MacIntel,29.94011976,,,,,,,,,,,,,,,,,,,,,155.9221,156.119,156.1192,156.6196,,,,,,,,,,,,,,0.8651,1,,,,,,,,,,,,,,m,,,,,,,,,,,,,,,,31,0,156.6198,157.4866,m,1,0.8651,,[],[],[],[],[],[],[],157.4867,159.4865,159.4866,159.4868,[],[],[],[],[],[],[],,159.4869,159.4869,-0.146749132,0.038993056,0,0,0,,0,30,30,119,1,4,word,MEMORY,print,memory_p.png,,,,,,
,,,,30811,001,2025-10-19_12h18.18.097,HW_LDT_1,2024.2.4,MacIntel,29.94011976,,,,,,,,,,,,,,,,,,,,,159.4885,159.6869,159.6869,160.1868,,,,,,,,,,,,,,0.8858,1,,,,,,,,,,,,,,m,,,,,,,,,,,,,,,,32,1,160.1877,161.0869,m,1,0.8858,,[],[],[],[],[],[],[],161.087,163.087,163.0871,164.5871,[],[],[],[],[],[],[],m,164.5871,164.5872,-0.146749132,0.038993056,0,0,0,,0,31,31,136,1,4,word,RADICAL,print,radical_p.png,1.4835,,,,,
,,,,30811,001,2025-10-19_12h18.18.097,HW_LDT_1,2024.2.4,MacIntel,29.94011976,,,,,,,,,,,,,,,,,,,,,164.5885,164.787,164.7871,165.2872,,,,,,,,,,,,,,0.7191,1,,,,,,,,,,,,,,m,,,,,,,,,,,,,,,,33,0,165.2879,166.0202,m,1,0.7191,,[],[],[],[],[],[],[],166.0203,168.0204,168.0205,168.0208,[],[],[],[],[],[],[],,168.0208,168.0211,-0.146749132,0.038993056,0,0,0,,0,32,32,110,1,4,word,HERITAGE,print,heritage_p.png,,,,,,
,,,,30811,001,2025-10-19_12h18.18.097,HW_LDT_1,2024.2.4,MacIntel,29.94011976,,,,,,,,,,,,,,,,,,,,,168.0226,168.2205,168.2205,168.7205,,,,,,,,,,,,,,0.6032,1,,,,,,,,,,,,,,m,,,,,,,,,,,,,,,,34,0,168.7213,169.3539,m,1,0.6032,,[],[],[],[],[],[],[],169.354,171.3539,171.3539,171.3542,[],[],[],[],[],[],[],,171.3542,171.3544,-0.146749132,0.038993056,0,0,0,,0,33,33,118,1,4,word,MEDICINE,cursive,medicine_c.png,,,,,,
,,,,30811,001,2025-10-19_12h18.18.097,HW_LDT_1,2024.2.4,MacIntel,29.94011976,,,,,,,,,,,,,,,,,,,,,171.3559,171.5538,171.5538,172.0539,,,,,,,,,,,,,,1.5837,1,,,,,,,,,,,,,,z,,,,,,,,,,,,,,,,35,1,172.0546,173.6536,z,1,1.5837,,[],[],[],[],[],[],[],173.6537,175.654,175.6541,176.7874,[],[],[],[],[],[],[],z,176.7875,176.7876,-0.146749132,0.038993056,0,0,0,,0,34,34,19,1,4,RL,elacodate,cursive,elacodate_c.png,1.1065,,,,,
,,,,30811,001,2025-10-19_12h18.18.097,HW_LDT_1,2024.2.4,MacIntel,29.94011976,,,,,,,,,,,,,,,,,,,,,176.789,176.9867,176.9869,177.4874,,,,,,,,,,,,,,1.0222,1,,,,,,,,,,,,,,z,,,,,,,,,,,,,,,,36,0,177.4881,178.5207,z,1,1.0222,,[],[],[],[],[],[],[],178.5208,180.5204,180.5205,180.5207,[],[],[],[],[],[],[],,180.5208,180.5209,-0.146749132,0.038993056,0,0,0,,0,35,35,26,1,4,RL,mesibine,cursive,mesibine_c.png,,,,,,
,,,,30811,001,2025-10-19_12h18.18.097,HW_LDT_1,2024.2.4,MacIntel,29.94011976,,,,,,,,,,,,,,,,,,,,,180.5223,180.7207,180.7209,181.2209,,,,,,,,,,,,,,0.769,1,,,,,,,,,,,,,,z,,,,,,,,,,,,,,,,37,0,181.2218,182.0209,z,1,0.769,,[],[],[],[],[],[],[],182.021,184.021,184.0211,184.0213,[],[],[],[],[],[],[],,184.0214,184.0216,-0.146749132,0.038993056,0,0,0,,0,36,36,63,1,4,TL,miskate,print,miskate_p.png,,,,,,
,,,,30811,001,2025-10-19_12h18.18.097,HW_LDT_1,2024.2.4,MacIntel,29.94011976,,,,,,,,,,,,,,,,,,,,,184.0232,184.2209,184.221,184.7211,,,,,,,,,,,,,,1.0308,0,,,,,,,,,,,,,,m,,,,,,,,,,,,,,,,38,0,184.7219,185.7541,z,0,1.0308,,[],[],[],[],[],[],[],185.7542,187.7543,187.7544,187.7546,[],[],[],[],[],[],[],,187.7547,187.7547,-0.146749132,0.038993056,0,0,0,,0,37,37,142,1,4,word,REMOTE,cursive,remote_c.png,,,,,,
,,,,30811,001,2025-10-19_12h18.18.097,HW_LDT_1,2024.2.4,MacIntel,29.94011976,,,,,,,,,,,,,,,,,,,,,187.7564,187.9543,187.9544,188.4544,,,,,,,,,,,,,,0.7166,1,,,,,,,,,,,,,,z,,,,,,,,,,,,,,,,39,1,188.4551,189.1875,z,1,0.7166,,[],[],[],[],[],[],[],189.1876,191.1878,191.1879,192.5536,[],[],[],[],[],[],[],z,192.5536,192.5537,-0.146749132,0.038993056,0,0,0,,0,38,38,14,1,4,RL,delahe,cursive,delahe_c.png,1.3373,,,,,
,,,,30811,001,2025-10-19_12h18.18.097,HW_LDT_1,2024.2.4,MacIntel,29.94011976,,,,,,,,,,,,,,,,,,,,,192.5544,192.7544,192.7545,193.2545,,,,,,,,,,,,,,0.8029,1,,,,,,,,,,,,,,z,,,,,,,,,,,,,,,,40,0,193.2552,194.088,z,1,0.8029,,[],[],[],[],[],[],[],194.0881,196.088,196.0881,196.0884,[],[],[],[],[],[],[],,196.0884,196.0885,-0.146749132,0.038993056,0,0,0,,0,39,39,61,1,4,TL,lotace,cursive,lotace_c.png,,,,,,
,,,,30811,001,2025-10-19_12h18.18.097,HW_LDT_1,2024.2.4,MacIntel,29.94011976,,,,,,,,,,,,,,,,,,,,,196.0898,196.2879,196.2879,196.7879,,,,,,,,,,,,,,0.8144,1,,,,,,,,,,,,,,z,,,,,,,,,,,,,,,,41,0,196.7887,197.6212,z,1,0.8144,,[],[],[],[],[],[],[],197.6214,199.6213,199.6215,199.6217,[],[],[],[],[],[],[],,199.6218,199.6219,-0.146749132,0.038993056,0,0,0,,0,40,40,58,1,4,TL,edivent,print,edivent_p.png,,,,,,
,,,,30811,001,2025-10-19_12h18.18.097,HW_LDT_1,2024.2.4,MacIntel,29.94011976,,,,,,,,,,,,,,,,,,,,,199.6234,199.8213,199.8214,200.3214,,,,,,,,,,,,,,0.6918,1,,,,,,,,,,,,,,m,,,,,,,,,,,,,,,,42,0,200.3221,201.021,m,1,0.6918,,[],[],[],[],[],[],[],201.0211,203.0212,203.0213,203.0214,[],[],[],[],[],[],[],,203.0215,203.0216,-0.146749132,0.038993056,0,0,0,,0,41,41,80,1,4,word,ACADEMY,print,academy_p.png,,,,,,
,,,,30811,001,2025-10-19_12h18.18.097,HW_LDT_1,2024.2.4,MacIntel,29.94011976,,,,,,,,,,,,,,,,,,,,,203.0228,203.2215,203.2215,203.7215,,,,,,,,,,,,,,0.7523,1,,,,,,,,,,,,,,z,,,,,,,,,,,,,,,,43,1,203.7222,204.488,z,1,0.7523,,[],[],[],[],[],[],[],204.4881,206.4881,206.4882,209.1551,[],[],[],[],[],[],[],z,209.1552,209.1554,-0.146749132,0.038993056,0,0,0,,0,42,42,64,1,4,TL,moredate,print,moredate_p.png,2.6364,,,,,
,,,,30811,001,2025-10-19_12h18.18.097,HW_LDT_1,2024.2.4,MacIntel,29.94011976,,,,,,,,,,,,,,,,,,,,,209.157,209.355,209.3551,209.855,,,,,,,,,,,,,,0.8063,1,,,,,,,,,,,,,,z,,,,,,,,,,,,,,,,44,0,209.8557,210.6883,z,1,0.8063,,[],[],[],[],[],[],[],210.6884,212.6883,212.6884,212.6887,[],[],[],[],[],[],[],,212.6887,212.6888,-0.146749132,0.038993056,0,0,0,,0,43,43,0,1,4,RL,abanemy,print,abanemy_p.png,,,,,,
,,,,30811,001,2025-10-19_12h18.18.097,HW_LDT_1,2024.2.4,MacIntel,29.94011976,,,,,,,,,,,,,,,,,,,,,212.6905,212.8884,212.8884,213.3885,,,,,,,,,,,,,,1.2368,1,,,,,,,,,,,,,,m,,,,,,,,,,,,,,,,45,0,213.3892,214.6551,m,1,1.2368,,[],[],[],[],[],[],[],214.6552,216.6551,216.6553,216.6556,[],[],[],[],[],[],[],,216.6556,216.6556,-0.146749132,0.038993056,0,0,0,,0,44,44,86,1,4,word,BESIDE,print,beside_p.png,,,,,,
,,,,30811,001,2025-10-19_12h18.18.097,HW_LDT_1,2024.2.4,MacIntel,29.94011976,,,,,,,,,,,,,,,,,,,,,216.6572,216.8551,216.8552,217.3547,,,,,,,,,,,,,,0.7512,1,,,,,,,,,,,,,,z,,,,,,,,,,,,,,,,46,0,217.3554,218.1212,z,1,0.7512,,[],[],[],[],[],[],[],218.1214,220.122,220.1221,220.1222,[],[],[],[],[],[],[],,220.1223,220.1225,-0.146749132,0.038993056,0,0,0,,0,45,45,24,1,4,RL,marmipal,cursive,marmipal_c.png,,,,,,
,,,,30811,001,2025-10-19_12h18.18.097,HW_LDT_1,2024.2.4,MacIntel,29.94011976,,,,,,,,,,,,,,,,,,,,,220.124,220.3219,220.322,220.8219,,,,,,,,,,,,,,0.8652,1,,,,,,,,,,,,,,z,,,,,,,,,,,,,,,,47,0,220.8227,221.689,z,1,0.8652,,[],[],[],[],[],[],[],221.689,223.6888,223.6889,223.6891,[],[],[],[],[],[],[],,223.6891,223.6892,-0.146749132,0.038993056,0,0,0,,0,46,46,60,1,4,TL,hetirage,print,hetirage_p.png,,,,,,
,,,,30811,001,2025-10-19_12h18.18.097,HW_LDT_1,2024.2.4,MacIntel,29.94011976,,,,,,,,,,,,,,,,,,,,,223.6908,223.8888,223.8889,224.3888,,,,,,,,,,,,,,0.737,0,,,,,,,,,,,,,,m,,,,,,,,,,,,,,,,48,0,224.3895,225.1555,z,0,0.737,,[],[],[],[],[],[],[],225.1555,227.1555,227.1555,227.1558,[],[],[],[],[],[],[],,227.1559,227.1559,-0.146749132,0.038993056,0,0,0,,0,47,47,108,1,4,word,FORTUNE,cursive,fortune_c.png,,,,,,
,,,,30811,001,2025-10-19_12h18.18.097,HW_LDT_1,2024.2.4,MacIntel,29.94011976,,,,,,,,,,,,,,,,,,,,,227.1574,227.3554,227.3556,227.8551,,,,,,,,,,,,,,0.8043,1,,,,,,,,,,,,,,z,,,,,,,,,,,,,,,,49,1,227.8557,228.6888,z,1,0.8043,,[],[],[],[],[],[],[],228.689,230.6889,230.6889,231.389,[],[],[],[],[],[],[],z,231.389,231.3892,-0.146749132,0.038993056,0,0,0,,0,48,48,6,1,4,RL,caleberia,cursive,caleberia_c.png,0.6712,,,,,
,,,,30811,001,2025-10-19_12h18.18.097,HW_LDT_1,2024.2.4,MacIntel,29.94011976,,,,,,,,,,,,,,,,,,,,,231.3904,231.589,231.589,232.0889,,,,,,,,,,,,,,0.9202,1,,,,,,,,,,,,,,m,,,,,,,,,,,,,,,,50,0,232.0897,233.022,m,1,0.9202,,[],[],[],[],[],[],[],233.0221,235.0223,235.0224,235.0227,[],[],[],[],[],[],[],,235.0227,235.0228,-0.146749132,0.038993056,0,0,0,,0,49,49,145,1,4,word,RESUME,print,resume_p.png,,,,,,
,,,,30811,001,2025-10-19_12h18.18.097,HW_LDT_1,2024.2.4,MacIntel,29.94011976,,,,,,,,,,,,,,,,,,,,,235.0244,235.2223,235.2224,235.7224,,,,,,,,,,,,,,0.8837,1,,,,,,,,,,,,,,m,,,,,,,,,,,,,,,,51,0,235.7231,236.6221,m,1,0.8837,,[],[],[],[],[],[],[],236.6222,238.6211,238.6211,238.6212,[],[],[],[],[],[],[],,238.6213,238.6214,-0.146749132,0.038993056,0,0,0,,0,50,50,134,1,4,word,QUALIFY,print,qualify_p.png,,,,,,
,,,,30811,001,2025-10-19_12h18.18.097,HW_LDT_1,2024.2.4,MacIntel,29.94011976,,,,,,,,,,,,,,,,,,,,,238.622,238.8223,238.8224,239.3222,,,,,,,,,,,,,,0.724,1,,,,,,,,,,,,,,z,,,,,,,,,,,,,,,,52,0,239.3227,240.0558,z,1,0.724,,[],[],[],[],[],[],[],240.0558,242.0555,242.0555,242.0557,[],[],[],[],[],[],[],,242.0557,242.0558,-0.146749132,0.038993056,0,0,0,,0,51,51,67,1,4,TL,polupar,print,polupar_p.png,,,,,,
,,,,30811,001,2025-10-19_12h18.18.097,HW_LDT_1,2024.2.4,MacIntel,29.94011976,,,,,,,,,,,,,,,,,,,,,242.0568,242.256,242.256,242.7559,,,,,,,,,,,,,,1.2315,0,,,,,,,,,,,,,,m,,,,,,,,,,,,,,,,53,0,242.7566,243.9892,z,0,1.2315,,[],[],[],[],[],[],[],243.9893,245.9892,245.9893,245.9895,[],[],[],[],[],[],[],,245.9895,245.9897,-0.146749132,0.038993056,0,0,0,,0,52,52,113,1,4,word,LITERAL,cursive,literal_c.png,,,,,,
,,,,30811,001,2025-10-19_12h18.18.097,HW_LDT_1,2024.2.4,MacIntel,29.94011976,,,,,,,,,,,,,,,,,,,,,245.9912,246.1894,246.1895,246.6893,,,,,,,,,,,,,,0.758,1,,,,,,,,,,,,,,z,,,,,,,,,,,,,,,,54,0,246.69,247.4557,z,1,0.758,,[],[],[],[],[],[],[],247.4559,249.4561,249.4561,249.4563,[],[],[],[],[],[],[],,249.4564,249.4565,-0.146749132,0.038993056,0,0,0,,0,53,53,40,1,4,RL,reconal,print,reconal_p.png,,,,,,
,,,,30811,001,2025-10-19_12h18.18.097,HW_LDT_1,2024.2.4,MacIntel,29.94011976,,,,,,,,,,,,,,,,,,,,,249.4579,249.656,249.6561,250.1561,,,,,,,,,,,,,,0.7161,1,,,,,,,,,,,,,,m,,,,,,,,,,,,,,,,55,1,250.157,250.8886,m,1,0.7161,,[],[],[],[],[],[],[],250.8888,252.8895,252.8895,254.3221,[],[],[],[],[],[],[],m,254.3221,254.3221,-0.146749132,0.038993056,0,0,0,,0,54,54,88,1,4,word,CAMERA,print,camera_p.png,1.4165,,,,,
,,,,30811,001,2025-10-19_12h18.18.097,HW_LDT_1,2024.2.4,MacIntel,29.94011976,,,,,,,,,,,,,,,,,,,,,254.3231,254.5232,254.5232,255.023,,,,,,,,,,,,,,0.7746,1,,,,,,,,,,,,,,z,,,,,,,,,,,,,,,,56,0,255.0238,255.8231,z,1,0.7746,,[],[],[],[],[],[],[],255.8233,257.8231,257.8232,257.8234,[],[],[],[],[],[],[],,257.8235,257.8235,-0.146749132,0.038993056,0,0,0,,0,55,55,21,1,4,RL,insibate,print,insibate_p.png,,,,,,
,,,,30811,001,2025-10-19_12h18.18.097,HW_LDT_1,2024.2.4,MacIntel,29.94011976,,,,,,,,,,,,,,,,,,,,,257.825,258.023,258.0231,258.523,,,,,,,,,,,,,,0.698,1,,,,,,,,,,,,,,z,,,,,,,,,,,,,,,,57,0,258.5238,259.2227,z,1,0.698,,[],[],[],[],[],[],[],259.2227,261.2231,261.2232,261.2234,[],[],[],[],[],[],[],,261.2234,261.2235,-0.146749132,0.038993056,0,0,0,,0,56,56,27,1,4,RL,menowy,print,menowy_p.png,,,,,,
,,,,30811,001,2025-10-19_12h18.18.097,HW_LDT_1,2024.2.4,MacIntel,29.94011976,,,,,,,,,,,,,,,,,,,,,261.225,261.423,261.4231,261.9231,,,,,,,,,,,,,,1.0284,0,,,,,,,,,,,,,,m,,,,,,,,,,,,,,,,58,0,261.9239,262.9564,z,0,1.0284,,[],[],[],[],[],[],[],262.9565,264.9565,264.9566,264.9568,[],[],[],[],[],[],[],,264.9569,264.9571,-0.146749132,0.038993056,0,0,0,,0,57,57,82,1,4,word,AMATEUR,cursive,amateur_c.png,,,,,,
,,,,30811,001,2025-10-19_12h18.18.097,HW_LDT_1,2024.2.4,MacIntel,29.94011976,,,,,,,,,,,,,,,,,,,,,264.9585,265.1565,265.1566,265.6565,,,,,,,,,,,,,,0.7695,1,,,,,,,,,,,,,,z,,,,,,,,,,,,,,,,59,1,265.6572,266.4567,z,1,0.7695,,[],[],[],[],[],[],[],266.4567,268.4565,268.4566,269.19,[],[],[],[],[],[],[],z,269.1901,269.1902,-0.146749132,0.038993056,0,0,0,,0,58,58,39,1,4,RL,relone,cursive,relone_c.png,0.7208,,,,,
,,,,30811,001,2025-10-19_12h18.18.097,HW_LDT_1,2024.2.4,MacIntel,29.94011976,,,,,,,,,,,,,,,,,,,,,269.1914,269.39,269.39,269.89,,,,,,,,,,,,,,0.7038,1,,,,,,,,,,,,,,z,,,,,,,,,,,,,,,,60,0,269.8908,270.6234,z,1,0.7038,,[],[],[],[],[],[],[],270.6235,272.6235,272.6236,272.6238,[],[],[],[],[],[],[],,272.6238,272.624,-0.146749132,0.038993056,0,0,0,,0,59,59,28,1,4,RL,mifikary,print,mifikary_p.png,,,,,,
,,,,30811,001,2025-10-19_12h18.18.097,HW_LDT_1,2024.2.4,MacIntel,29.94011976,,,,,,,,,,,,,,,,,,,,,272.6255,272.8235,272.8236,273.3235,,,,,,,,,,,,,,0.8067,1,,,,,,,,,,,,,,z,,,,,,,,,,,,,,,,61,0,273.3242,274.1568,z,1,0.8067,,[],[],[],[],[],[],[],274.1569,276.157,276.157,276.1572,[],[],[],[],[],[],[],,276.1573,276.1574,-0.146749132,0.038993056,0,0,0,,0,60,60,54,1,4,TL,codemy,print,codemy_p.png,,,,,,
,,,,30811,001,2025-10-19_12h18.18.097,HW_LDT_1,2024.2.4,MacIntel,29.94011976,,,,,,,,,,,,,,,,,,,,,276.1589,276.3569,276.357,276.8567,,,,,,,,,,,,,,1.0363,1,,,,,,,,,,,,,,z,,,,,,,,,,,,,,,,62,0,276.8576,277.9234,z,1,1.0363,,[],[],[],[],[],[],[],277.9234,279.9234,279.9235,279.9237,[],[],[],[],[],[],[],,279.9238,279.9239,-0.146749132,0.038993056,0,0,0,,0,61,61,13,1,4,RL,crisival,cursive,crisival_c.png,,,,,,
,,,,30811,001,2025-10-19_12h18.18.097,HW_LDT_1,2024.2.4,MacIntel,29.94011976,,,,,,,,,,,,,,,,,,,,,279.9252,280.1236,280.1237,280.6236,,,,,,,,,,,,,,2.9738,1,,,,,,,,,,,,,,m,,,,,,,,,,,,,,,,63,0,280.6243,283.6228,m,1,2.9738,,[],[],[],[],[],[],[],283.6229,285.6228,285.6229,285.6231,[],[],[],[],[],[],[],,285.6232,285.6233,-0.146749132,0.038993056,0,0,0,,0,62,62,124,1,4,word,NUMERICAL,cursive,numerical_c.png,,,,,,
,,,,30811,001,2025-10-19_12h18.18.097,HW_LDT_1,2024.2.4,MacIntel,29.94011976,,,,,,,,,,,,,,,,,,,,,285.6249,285.8237,285.8239,286.3238,,,,,,,,,,,,,,0.738,1,,,,,,,,,,,,,,z,,,,,,,,,,,,,,,,64,0,286.3245,287.0906,z,1,0.738,,[],[],[],[],[],[],[],287.0907,289.0905,289.0907,289.0909,[],[],[],[],[],[],[],,289.0909,289.0911,-0.146749132,0.038993056,0,0,0,,0,63,63,11,1,4,RL,clisimal,print,clisimal_p.png,,,,,,
,,,,30811,001,2025-10-19_12h18.18.097,HW_LDT_1,2024.2.4,MacIntel,29.94011976,,,,,,,,,,,,,,,,,,,,,289.0925,289.2905,289.2905,289.7897,,,,,,,,,,,,,,0.6981,1,,,,,,,,,,,,,,z,,,,,,,,,,,,,,,,65,0,289.7905,290.4904,z,1,0.6981,,[],[],[],[],[],[],[],290.4905,292.4908,292.4908,292.491,[],[],[],[],[],[],[],,292.4911,292.4912,-0.146749132,0.038993056,0,0,0,,0,64,64,31,1,4,RL,orimipal,print,orimipal_p.png,,,,,,
,,,,30811,001,2025-10-19_12h18.18.097,HW_LDT_1,2024.2.4,MacIntel,29.94011976,,,,,,,,,,,,,,,,,,,,,292.4927,292.674,292.6741,293.174,,,,,,,,,,,,,,0.8234,1,,,,,,,,,,,,,,z,,,,,,,,,,,,,,,,66,0,293.1748,294.0074,z,1,0.8234,,[],[],[],[],[],[],[],294.0074,296.0064,296.0064,296.0067,[],[],[],[],[],[],[],,296.0068,296.0068,-0.146749132,0.038993056,0,0,0,,0,65,65,17,1,4,RL,denficy,cursive,denficy_c.png,,,,,,
,,,,30811,001,2025-10-19_12h18.18.097,HW_LDT_1,2024.2.4,MacIntel,29.94011976,,,,,,,,,,,,,,,,,,,,,296.0084,296.2075,296.2076,296.7074,,,,,,,,,,,,,,0.9217,1,,,,,,,,,,,,,,m,,,,,,,,,,,,,,,,67,0,296.7082,297.6409,m,1,0.9217,,[],[],[],[],[],[],[],297.6409,299.6409,299.641,299.6412,[],[],[],[],[],[],[],,299.6413,299.6414,-0.146749132,0.038993056,0,0,0,,0,66,66,100,1,4,word,DECADE,cursive,decade_c.png,,,,,,
,,,,30811,001,2025-10-19_12h18.18.097,HW_LDT_1,2024.2.4,MacIntel,29.94011976,,,,,,,,,,,,,,,,,,,,,299.6429,299.8408,299.8409,300.3399,,,,,,,,,,,,,,0.9815,1,,,,,,,,,,,,,,m,,,,,,,,,,,,,,,,68,0,300.3407,301.3407,m,1,0.9815,,[],[],[],[],[],[],[],301.3408,303.3411,303.3411,303.3413,[],[],[],[],[],[],[],,303.3414,303.3415,-0.146749132,0.038993056,0,0,0,,0,67,67,97,1,4,word,COVERAGE,cursive,coverage_c.png,,,,,,
,,,,30811,001,2025-10-19_12h18.18.097,HW_LDT_1,2024.2.4,MacIntel,29.94011976,,,,,,,,,,,,,,,,,,,,,303.3429,303.5411,303.5411,304.0409,,,,,,,,,,,,,,0.7709,1,,,,,,,,,,,,,,m,,,,,,,,,,,,,,,,69,0,304.0417,304.8408,m,1,0.7709,,[],[],[],[],[],[],[],304.8409,306.841,306.8411,306.8414,[],[],[],[],[],[],[],,306.8415,306.8416,-0.146749132,0.038993056,0,0,0,,0,68,68,143,1,4,word,REMOVAL,print,removal_p.png,,,,,,
,,,,30811,001,2025-10-19_12h18.18.097,HW_LDT_1,2024.2.4,MacIntel,29.94011976,,,,,,,,,,,,,,,,,,,,,306.8431,307.0411,307.0412,307.541,,,,,,,,,,,,,,0.9935,1,,,,,,,,,,,,,,z,,,,,,,,,,,,,,,,70,1,307.5417,308.5409,z,1,0.9935,,[],[],[],[],[],[],[],308.5409,310.5411,310.5412,311.5409,[],[],[],[],[],[],[],z,311.5409,311.541,-0.146749132,0.038993056,0,0,0,,0,69,69,23,1,4,RL,linefal,cursive,linefal_c.png,0.991,,,,,
,,,,30811,001,2025-10-19_12h18.18.097,HW_LDT_1,2024.2.4,MacIntel,29.94011976,,,,,,,,,,,,,,,,,,,,,311.5416,311.7403,311.7403,312.2411,,,,,,,,,,,,,,1.0033,1,,,,,,,,,,,,,,m,,,,,,,,,,,,,,,,71,0,312.2418,313.2747,m,1,1.0033,,[],[],[],[],[],[],[],313.2748,315.2737,315.2737,315.2739,[],[],[],[],[],[],[],,315.274,315.2742,-0.146749132,0.038993056,0,0,0,,0,70,70,137,1,4,word,RAPIDLY,cursive,rapidly_c.png,,,,,,
,,,,30811,001,2025-10-19_12h18.18.097,HW_LDT_1,2024.2.4,MacIntel,29.94011976,,,,,,,,,,,,,,,,,,,,,315.2757,315.4737,315.4738,315.9736,,,,,,,,,,,,,,0.7631,1,,,,,,,,,,,,,,z,,,,,,,,,,,,,,,,72,0,315.9745,316.741,z,1,0.7631,,[],[],[],[],[],[],[],316.741,318.7404,318.7405,318.7407,[],[],[],[],[],[],[],,318.7408,318.7409,-0.146749132,0.038993056,0,0,0,,0,71,71,42,1,4,RL,revune,print,revune_p.png,,,,,,
,,,,30811,001,2025-10-19_12h18.18.097,HW_LDT_1,2024.2.4,MacIntel,29.94011976,,,,,,,,,,,,,,,,,,,,,318.7424,318.9404,318.9405,319.4417,,,,,,,,,,,,,,0.803,1,,,,,,,,,,,,,,z,,,,,,,,,,,,,,,,73,0,319.4424,320.2747,z,1,0.803,,[],[],[],[],[],[],[],320.2748,322.274,322.274,322.2743,[],[],[],[],[],[],[],,322.2743,322.2744,-0.146749132,0.038993056,0,0,0,,0,72,72,5,1,4,RL,bebine,print,bebine_p.png,,,,,,
,,,,30811,001,2025-10-19_12h18.18.097,HW_LDT_1,2024.2.4,MacIntel,29.94011976,,,,,,,,,,,,,,,,,,,,,322.2758,322.475,322.475,322.9748,,,,,,,,,,,,,,0.8033,1,,,,,,,,,,,,,,m,,,,,,,,,,,,,,,,74,0,322.9756,323.8084,m,1,0.8033,,[],[],[],[],[],[],[],323.8084,325.8074,325.8075,325.8077,[],[],[],[],[],[],[],,325.8078,325.8078,-0.146749132,0.038993056,0,0,0,,0,73,73,148,1,4,word,SALINE,print,saline_p.png,,,,,,
,,,,30811,001,2025-10-19_12h18.18.097,HW_LDT_1,2024.2.4,MacIntel,29.94011976,,,,,,,,,,,,,,,,,,,,,325.8093,326.0083,326.0083,326.5074,,,,,,,,,,,,,,1.2535,0,,,,,,,,,,,,,,m,,,,,,,,,,,,,,,,75,0,326.5081,327.7749,z,0,1.2535,,[],[],[],[],[],[],[],327.775,329.7742,329.7743,329.7745,[],[],[],[],[],[],[],,329.7745,329.7746,-0.146749132,0.038993056,0,0,0,,0,74,74,87,1,4,word,CAFETERIA,cursive,cafeteria_c.png,,,,,,
,,,,30811,001,2025-10-19_12h18.18.097,HW_LDT_1,2024.2.4,MacIntel,29.94011976,,,,,,,,,,,,,,,,,,,,,329.7761,329.9741,329.9741,330.4742,,,,,,,,,,,,,,0.8534,1,,,,,,,,,,,,,,z,,,,,,,,,,,,,,,,76,0,330.475,331.3407,z,1,0.8534,,[],[],[],[],[],[],[],331.3409,333.3418,333.3419,333.3421,[],[],[],[],[],[],[],,333.3422,333.3423,-0.146749132,0.038993056,0,0,0,,0,75,75,12,1,4,RL,conbicer,cursive,conbicer_c.png,,,,,,
,,,,30811,001,2025-10-19_12h18.18.097,HW_LDT_1,2024.2.4,MacIntel,29.94011976,,,,,,,,,,,,,,,,,,,,,333.3438,333.5418,333.5419,334.041,,,,,,,,,,,,,,1.2647,1,,,,,,,,,,,,,,m,,,,,,,,,,,,,,,,77,1,334.0418,335.3083,m,1,1.2647,,[],[],[],[],[],[],[],335.3085,337.3087,337.3087,338.7087,[],[],[],[],[],[],[],z,338.7088,338.7089,-0.146749132,0.038993056,0,0,0,,0,76,76,122,1,4,word,MOBILE,print,mobile_p.png,1.3752,,,,,
,,,,30811,001,2025-10-19_12h18.18.097,HW_LDT_1,2024.2.4,MacIntel,29.94011976,,,,,,,,,,,,,,,,,,,,,338.7102,338.9087,338.9087,339.4086,,,,,,,,,,,,,,0.77,1,,,,,,,,,,,,,,m,,,,,,,,,,,,,,,,78,0,339.4095,340.2088,m,1,0.77,,[],[],[],[],[],[],[],340.2089,342.2088,342.2089,342.2091,[],[],[],[],[],[],[],,342.2091,342.2092,-0.146749132,0.038993056,0,0,0,,0,77,77,109,1,4,word,GRATEFUL,print,grateful_p.png,,,,,,
,,,,30811,001,2025-10-19_12h18.18.097,HW_LDT_1,2024.2.4,MacIntel,29.94011976,,,,,,,,,,,,,,,,,,,,,342.2107,342.4087,342.4087,342.9078,,,,,,,,,,,,,,0.9376,1,,,,,,,,,,,,,,m,,,,,,,,,,,,,,,,79,0,342.9085,343.8751,m,1,0.9376,,[],[],[],[],[],[],[],343.8752,345.8746,345.8748,345.8749,[],[],[],[],[],[],[],,345.875,345.8751,-0.146749132,0.038993056,0,0,0,,0,78,78,152,1,4,word,SPECIMEN,cursive,specimen_c.png,,,,,,
,,,,30811,001,2025-10-19_12h18.18.097,HW_LDT_1,2024.2.4,MacIntel,29.94011976,,,,,,,,,,,,,,,,,,,,,345.8765,346.0756,346.0757,346.5746,,,,,,,,,,,,,,0.9712,1,,,,,,,,,,,,,,z,,,,,,,,,,,,,,,,80,0,346.5753,347.5756,z,1,0.9712,,[],[],[],[],[],[],[],347.5757,349.5747,349.5747,349.575,[],[],[],[],[],[],[],,349.5751,350.6088,-0.146749132,0.038993056,0,0,0,space,0,79,79,32,1,4,RL,patisic,cursive,patisic_c.png,,,1.0112,,,
,,,,30811,001,2025-10-19_12h18.18.097,HW_LDT_1,2024.2.4,MacIntel,29.94011976,,,,,,,,,,,,,,,,,,,,,350.6097,350.809,350.809,351.3089,,,,,,,,,,,,,,1.3955,0,,,,,,,,,,,,,,m,,,,,,,,,,,,,,,,81,0,351.3098,352.7091,z,0,1.3955,,[],[],[],[],[],[],[],352.7091,354.7082,354.7083,354.7085,[],[],[],[],[],[],[],,354.7085,354.7087,-0.146749132,0.038993056,0,0,0,,0,80,80,89,1,4,word,CAPACITY,cursive,capacity_c.png,,,,,,
,,,,30811,001,2025-10-19_12h18.18.097,HW_LDT_1,2024.2.4,MacIntel,29.94011976,,,,,,,,,,,,,,,,,,,,,354.7102,354.9089,354.909,355.4091,,,,,,,,,,,,,,0.9068,1,,,,,,,,,,,,,,z,,,,,,,,,,,,,,,,82,0,355.4098,356.3425,z,1,0.9068,,[],[],[],[],[],[],[],356.3426,358.3417,358.3417,358.342,[],[],[],[],[],[],[],,358.342,358.3421,-0.146749132,0.038993056,0,0,0,,0,81,81,73,1,4,TL,regilion,print,regilion_p.png,,,,,,
,,,,30811,001,2025-10-19_12h18.18.097,HW_LDT_1,2024.2.4,MacIntel,29.94011976,,,,,,,,,,,,,,,,,,,,,358.3436,358.5424,358.5425,359.042,,,,,,,,,,,,,,0.6865,1,,,,,,,,,,,,,,m,,,,,,,,,,,,,,,,83,0,359.0427,359.7425,m,1,0.6865,,[],[],[],[],[],[],[],359.7426,361.7416,361.7417,361.742,[],[],[],[],[],[],[],,361.742,361.742,-0.146749132,0.038993056,0,0,0,,0,82,82,154,1,4,word,STORAGE,print,storage_p.png,,,,,,
,,,,30811,001,2025-10-19_12h18.18.097,HW_LDT_1,2024.2.4,MacIntel,29.94011976,,,,,,,,,,,,,,,,,,,,,361.7435,361.9425,361.9426,362.4426,,,,,,,,,,,,,,0.6528,1,,,,,,,,,,,,,,m,,,,,,,,,,,,,,,,84,0,362.4434,363.109,m,1,0.6528,,[],[],[],[],[],[],[],363.1091,365.1095,365.1095,365.1098,[],[],[],[],[],[],[],,365.1098,365.1099,-0.146749132,0.038993056,0,0,0,,0,83,83,94,1,4,word,CLINICAL,print,clinical_p.png,,,,,,
,,,,30811,001,2025-10-19_12h18.18.097,HW_LDT_1,2024.2.4,MacIntel,29.94011976,,,,,,,,,,,,,,,,,,,,,365.1115,365.3094,365.3095,365.8094,,,,,,,,,,,,,,0.8914,0,,,,,,,,,,,,,,m,,,,,,,,,,,,,,,,85,0,365.8101,366.7091,z,0,0.8914,,[],[],[],[],[],[],[],366.7091,368.7094,368.7094,368.7096,[],[],[],[],[],[],[],,368.7097,368.7098,-0.146749132,0.038993056,0,0,0,,0,84,84,92,1,4,word,CATEGORY,cursive,category_c.png,,,,,,
,,,,30811,001,2025-10-19_12h18.18.097,HW_LDT_1,2024.2.4,MacIntel,29.94011976,,,,,,,,,,,,,,,,,,,,,368.7113,368.9094,368.9095,369.4096,,,,,,,,,,,,,,0.8361,1,,,,,,,,,,,,,,z,,,,,,,,,,,,,,,,86,1,369.4104,370.2753,z,1,0.8361,,[],[],[],[],[],[],[],370.2754,372.2763,372.2764,373.5097,[],[],[],[],[],[],[],z,373.5098,373.5099,-0.146749132,0.038993056,0,0,0,,0,85,85,4,1,4,RL,betemit,cursive,betemit_c.png,1.2067,,,,,
,,,,30811,001,2025-10-19_12h18.18.097,HW_LDT_1,2024.2.4,MacIntel,29.94011976,,,,,,,,,,,,,,,,,,,,,373.5114,373.7096,373.7097,374.2096,,,,,,,,,,,,,,0.8581,1,,,,,,,,,,,,,,m,,,,,,,,,,,,,,,,87,0,374.2104,375.075,m,1,0.8581,,[],[],[],[],[],[],[],375.0751,377.0764,377.0765,377.0767,[],[],[],[],[],[],[],,377.0768,377.0769,-0.146749132,0.038993056,0,0,0,,0,86,86,140,1,4,word,RELATIVE,print,relative_p.png,,,,,,
,,,,30811,001,2025-10-19_12h18.18.097,HW_LDT_1,2024.2.4,MacIntel,29.94011976,,,,,,,,,,,,,,,,,,,,,377.0782,377.2764,377.2765,377.7764,,,,,,,,,,,,,,0.8184,1,,,,,,,,,,,,,,z,,,,,,,,,,,,,,,,88,0,377.7772,378.6085,z,1,0.8184,,[],[],[],[],[],[],[],378.6086,380.61,380.6101,380.6103,[],[],[],[],[],[],[],,380.6104,380.6105,-0.146749132,0.038993056,0,0,0,,0,87,87,71,1,4,TL,racidal,print,racidal_p.png,,,,,,
,,,,30811,001,2025-10-19_12h18.18.097,HW_LDT_1,2024.2.4,MacIntel,29.94011976,,,,,,,,,,,,,,,,,,,,,380.6118,380.8099,380.81,381.3099,,,,,,,,,,,,,,0.973,1,,,,,,,,,,,,,,z,,,,,,,,,,,,,,,,89,0,381.3107,382.3099,z,1,0.973,,[],[],[],[],[],[],[],382.31,384.31,384.31,384.3103,[],[],[],[],[],[],[],,384.3103,384.3105,-0.146749132,0.038993056,0,0,0,,0,88,88,30,1,4,RL,nunewical,cursive,nunewical_c.png,,,,,,
,,,,30811,001,2025-10-19_12h18.18.097,HW_LDT_1,2024.2.4,MacIntel,29.94011976,,,,,,,,,,,,,,,,,,,,,384.3119,384.5099,384.5099,385.0099,,,,,,,,,,,,,,0.9386,1,,,,,,,,,,,,,,z,,,,,,,,,,,,,,,,90,0,385.0106,385.9769,z,1,0.9386,,[],[],[],[],[],[],[],385.9771,387.9767,387.9768,387.9771,[],[],[],[],[],[],[],,387.9771,387.9772,-0.146749132,0.038993056,0,0,0,,0,89,89,75,1,4,TL,sanile,print,sanile_p.png,,,,,,
,,,,30811,001,2025-10-19_12h18.18.097,HW_LDT_1,2024.2.4,MacIntel,29.94011976,,,,,,,,,,,,,,,,,,,,,387.9787,388.1767,388.1767,388.6769,,,,,,,,,,,,,,0.961,1,,,,,,,,,,,,,,z,,,,,,,,,,,,,,,,91,0,388.6777,389.6434,z,1,0.961,,[],[],[],[],[],[],[],389.6435,391.6435,391.6435,391.6437,[],[],[],[],[],[],[],,391.6438,391.6439,-0.146749132,0.038993056,0,0,0,,0,90,90,74,1,4,TL,rerite,print,rerite_p.png,,,,,,
,,,,30811,001,2025-10-19_12h18.18.097,HW_LDT_1,2024.2.4,MacIntel,29.94011976,,,,,,,,,,,,,,,,,,,,,391.6479,391.8436,391.8436,392.3429,,,,,,,,,,,,,,0.7059,1,,,,,,,,,,,,,,z,,,,,,,,,,,,,,,,92,0,392.3435,393.077,z,1,0.7059,,[],[],[],[],[],[],[],393.0772,395.077,395.0772,395.0773,[],[],[],[],[],[],[],,395.0774,395.0775,-0.146749132,0.038993056,0,0,0,,0,91,91,3,1,4,RL,bewoted,print,bewoted_p.png,,,,,,
,,,,30811,001,2025-10-19_12h18.18.097,HW_LDT_1,2024.2.4,MacIntel,29.94011976,,,,,,,,,,,,,,,,,,,,,395.079,395.277,395.277,395.7771,,,,,,,,,,,,,,0.8852,1,,,,,,,,,,,,,,m,,,,,,,,,,,,,,,,93,0,395.7777,396.677,m,1,0.8852,,[],[],[],[],[],[],[],396.6772,398.6772,398.6774,398.6775,[],[],[],[],[],[],[],,398.6776,398.6777,-0.147009549,0.037955729,0,0,0,,0,92,92,117,1,4,word,MARINE,print,marine_p.png,,,,,,
,,,,30811,001,2025-10-19_12h18.18.097,HW_LDT_1,2024.2.4,MacIntel,29.94011976,,,,,,,,,,,,,,,,,,,,,398.679,398.877,398.877,399.377,,,,,,,,,,,,,,0.5573,1,,,,,,,,,,,,,,m,,,,,,,,,,,,,,,,94,0,399.3778,399.9436,m,1,0.5573,,[],[],[],[],[],[],[],399.9437,401.9438,401.9439,401.9441,[],[],[],[],[],[],[],,401.9442,401.9444,-0.147009549,0.037434896,0,0,0,,0,93,93,90,1,4,word,CAPITAL,print,capital_p.png,,,,,,
,,,,30811,001,2025-10-19_12h18.18.097,HW_LDT_1,2024.2.4,MacIntel,29.94011976,,,,,,,,,,,,,,,,,,,,,401.9457,402.1438,402.1438,402.644,,,,,,,,,,,,,,1.5752,0,,,,,,,,,,,,,,m,,,,,,,,,,,,,,,,95,0,402.6446,404.2439,z,0,1.5752,,[],[],[],[],[],[],[],404.2441,406.2439,406.244,406.2442,[],[],[],[],[],[],[],,406.2442,406.2444,-0.147009549,0.037690972,0,0,0,,0,94,94,128,1,4,word,PACIFIC,cursive,pacific_c.png,,,,,,
,,,,30811,001,2025-10-19_12h18.18.097,HW_LDT_1,2024.2.4,MacIntel,29.94011976,,,,,,,,,,,,,,,,,,,,,406.2459,406.4439,406.4439,406.9438,,,,,,,,,,,,,,0.7534,1,,,,,,,,,,,,,,z,,,,,,,,,,,,,,,,96,0,406.9446,407.7098,z,1,0.7534,,[],[],[],[],[],[],[],407.7098,409.7107,409.7109,409.711,[],[],[],[],[],[],[],,409.7111,409.7113,-0.147009549,0.037690972,0,0,0,,0,95,95,34,1,4,RL,posity,cursive,posity_c.png,,,,,,
,,,,30811,001,2025-10-19_12h18.18.097,HW_LDT_1,2024.2.4,MacIntel,29.94011976,,,,,,,,,,,,,,,,,,,,,409.7127,409.9105,409.9106,410.4107,,,,,,,,,,,,,,1.3612,1,,,,,,,,,,,,,,z,,,,,,,,,,,,,,,,97,0,410.4114,411.7765,z,1,1.3612,,[],[],[],[],[],[],[],411.7766,413.7773,413.7774,413.7775,[],[],[],[],[],[],[],,413.7776,413.7776,-0.147009549,0.037690972,0,0,0,,0,96,96,56,1,4,TL,donimant,cursive,donimant_c.png,,,,,,
,,,,30811,001,2025-10-19_12h18.18.097,HW_LDT_1,2024.2.4,MacIntel,29.94011976,,,,,,,,,,,,,,,,,,,,,413.7788,413.9773,413.9774,414.4773,,,,,,,,,,,,,,0.8526,1,,,,,,,,,,,,,,m,,,,,,,,,,,,,,,,98,1,414.4776,415.3428,m,1,0.8526,,[],[],[],[],[],[],[],415.3429,417.3442,417.3443,417.9106,[],[],[],[],[],[],[],z,417.9106,417.9107,-0.167248264,0.037955729,0,0,0,,0,97,97,144,1,4,word,RESIDENT,cursive,resident_c.png,0.5479,,,,,
,,,,30811,001,2025-10-19_12h18.18.097,HW_LDT_1,2024.2.4,MacIntel,29.94011976,,,,,,,,,,,,,,,,,,,,,417.9116,418.1107,418.1107,418.611,,,,,,,,,,,,,,1.1126,1,,,,,,,,,,,,,,z,,,,,,,,,,,,,,,,99,0,418.6118,419.744,z,1,1.1126,,[],[],[],[],[],[],[],419.7441,421.7444,421.7444,421.7447,[],[],[],[],[],[],[],,421.7448,421.7448,-0.167248264,0.037955729,0,0,0,,0,98,98,52,1,4,TL,cagetory,cursive,cagetory_c.png,,,,,,
,,,,30811,001,2025-10-19_12h18.18.097,HW_LDT_1,2024.2.4,MacIntel,29.94011976,,,,,,,,,,,,,,,,,,,,,421.7463,421.9442,421.9443,422.4444,,,,,,,,,,,,,,1.3699,1,,,,,,,,,,,,,,z,,,,,,,,,,,,,,,,100,0,422.4452,423.8444,z,1,1.3699,,[],[],[],[],[],[],[],423.8444,425.8443,425.8444,425.8446,[],[],[],[],[],[],[],,425.8446,425.8447,-0.167248264,0.037955729,0,0,0,,0,99,99,15,1,4,RL,debave,cursive,debave_c.png,,,,,,
,,,,30811,001,2025-10-19_12h18.18.097,HW_LDT_1,2024.2.4,MacIntel,29.94011976,,,,,,,,,,,,,,,,,,,,,425.8459,426.0441,426.0441,426.5444,,,,,,,,,,,,,,1.2693,1,,,,,,,,,,,,,,z,,,,,,,,,,,,,,,,101,0,426.5451,427.8445,z,1,1.2693,,[],[],[],[],[],[],[],427.8446,429.8445,429.8445,429.8447,[],[],[],[],[],[],[],,429.8447,429.8448,-0.167248264,0.037955729,0,0,0,,0,100,100,10,1,4,RL,carminal,cursive,carminal_c.png,,,,,,
,,,,30811,001,2025-10-19_12h18.18.097,HW_LDT_1,2024.2.4,MacIntel,29.94011976,,,,,,,,,,,,,,,,,,,,,429.846,430.0444,430.0445,430.5447,,,,,,,,,,,,,,0.7797,1,,,,,,,,,,,,,,z,,,,,,,,,,,,,,,,102,0,430.5454,431.3444,z,1,0.7797,,[],[],[],[],[],[],[],431.3444,433.3446,433.3446,433.3449,[],[],[],[],[],[],[],,433.3449,433.345,-0.167248264,0.037955729,0,0,0,,0,101,101,49,1,4,RL,vesofity,cursive,vesofity_c.png,,,,,,
,,,,30811,001,2025-10-19_12h18.18.097,HW_LDT_1,2024.2.4,MacIntel,29.94011976,,,,,,,,,,,,,,,,,,,,,433.3465,433.5444,433.5446,434.0446,,,,,,,,,,,,,,1.05,1,,,,,,,,,,,,,,m,,,,,,,,,,,,,,,,103,0,434.0455,435.1102,m,1,1.05,,[],[],[],[],[],[],[],435.1103,437.1105,437.1106,437.1108,[],[],[],[],[],[],[],,437.1109,437.111,-0.167248264,0.037955729,0,0,0,,0,102,102,153,1,4,word,STOLEN,cursive,stolen_c.png,,,,,,
,,,,30811,001,2025-10-19_12h18.18.097,HW_LDT_1,2024.2.4,MacIntel,29.94011976,,,,,,,,,,,,,,,,,,,,,437.1125,437.3114,437.3115,437.8116,,,,,,,,,,,,,,0.735,1,,,,,,,,,,,,,,z,,,,,,,,,,,,,,,,104,1,437.8123,438.5779,z,1,0.735,,[],[],[],[],[],[],[],438.5779,440.5782,440.5783,441.7446,[],[],[],[],[],[],[],z,441.7446,441.7447,-0.166740451,0.037955729,0,0,0,,0,103,103,36,1,4,RL,rabigly,cursive,rabigly_c.png,1.1607,,,,,
,,,,30811,001,2025-10-19_12h18.18.097,HW_LDT_1,2024.2.4,MacIntel,29.94011976,,,,,,,,,,,,,,,,,,,,,441.7455,441.9445,441.9445,442.4449,,,,,,,,,,,,,,0.8566,1,,,,,,,,,,,,,,z,,,,,,,,,,,,,,,,105,0,442.4458,443.3116,z,1,0.8566,,[],[],[],[],[],[],[],443.3117,445.3116,445.3117,445.3118,[],[],[],[],[],[],[],,445.3118,445.3121,-0.166740451,0.037955729,0,0,0,,0,104,104,25,1,4,RL,macise,print,macise_p.png,,,,,,
,,,,30811,001,2025-10-19_12h18.18.097,HW_LDT_1,2024.2.4,MacIntel,29.94011976,,,,,,,,,,,,,,,,,,,,,445.3136,445.5116,445.5117,446.0118,,,,,,,,,,,,,,0.8715,1,,,,,,,,,,,,,,z,,,,,,,,,,,,,,,,106,0,446.0126,446.9113,z,1,0.8715,,[],[],[],[],[],[],[],446.9114,448.9117,448.9118,448.9119,[],[],[],[],[],[],[],,448.912,448.912,-0.166740451,0.037955729,0,0,0,,0,105,105,41,1,4,RL,rebicent,cursive,rebicent_c.png,,,,,,
,,,,30811,001,2025-10-19_12h18.18.097,HW_LDT_1,2024.2.4,MacIntel,29.94011976,,,,,,,,,,,,,,,,,,,,,448.9134,449.1117,449.1117,449.6118,,,,,,,,,,,,,,3.2166,1,,,,,,,,,,,,,,m,,,,,,,,,,,,,,,,107,0,449.6126,452.8451,m,1,3.2166,,[],[],[],[],[],[],[],452.8453,454.8449,454.845,454.8453,[],[],[],[],[],[],[],,454.8453,454.8454,-0.166740451,0.037955729,0,0,0,,0,106,106,96,1,4,word,CONSIDER,cursive,consider_c.png,,,,,,
,,,,30811,001,2025-10-19_12h18.18.097,HW_LDT_1,2024.2.4,MacIntel,29.94011976,,,,,,,,,,,,,,,,,,,,,454.8468,455.0454,455.0455,455.5453,,,,,,,,,,,,,,0.7627,1,,,,,,,,,,,,,,m,,,,,,,,,,,,,,,,108,0,455.5462,456.312,m,1,0.7627,,[],[],[],[],[],[],[],456.3121,458.3121,458.3121,458.3124,[],[],[],[],[],[],[],,458.3125,458.3125,-0.166740451,0.037955729,0,0,0,,0,107,107,81,1,4,word,ADVISORY,cursive,advisory_c.png,,,,,,
,,,,30811,001,2025-10-19_12h18.18.097,HW_LDT_1,2024.2.4,MacIntel,29.94011976,,,,,,,,,,,,,,,,,,,,,458.3142,458.5121,458.5121,459.0121,,,,,,,,,,,,,,1.8963,1,,,,,,,,,,,,,,z,,,,,,,,,,,,,,,,109,0,459.0129,460.9118,z,1,1.8963,,[],[],[],[],[],[],[],460.9119,462.9122,462.9124,462.9125,[],[],[],[],[],[],[],,462.9125,462.9127,-0.166740451,0.037955729,0,0,0,,0,108,108,51,1,4,TL,adsivory,cursive,adsivory_c.png,,,,,,
,,,,30811,001,2025-10-19_12h18.18.097,HW_LDT_1,2024.2.4,MacIntel,29.94011976,,,,,,,,,,,,,,,,,,,,,462.914,463.1117,463.1117,463.6121,,,,,,,,,,,,,,0.8853,1,,,,,,,,,,,,,,z,,,,,,,,,,,,,,,,110,0,463.6128,464.5118,z,1,0.8853,,[],[],[],[],[],[],[],464.5119,466.5122,466.5122,466.5124,[],[],[],[],[],[],[],,466.5124,466.5126,-0.166740451,0.037955729,0,0,0,,0,109,109,16,1,4,RL,desifate,cursive,desifate_c.png,,,,,,
,,,,30811,001,2025-10-19_12h18.18.097,HW_LDT_1,2024.2.4,MacIntel,29.94011976,,,,,,,,,,,,,,,,,,,,,466.5143,466.7124,466.7124,467.2122,,,,,,,,,,,,,,0.8273,1,,,,,,,,,,,,,,z,,,,,,,,,,,,,,,,111,0,467.2129,468.0454,z,1,0.8273,,[],[],[],[],[],[],[],468.0454,470.0456,470.0457,470.0459,[],[],[],[],[],[],[],,470.0459,470.046,-0.166740451,0.037955729,0,0,0,,0,110,110,76,1,4,TL,setanor,print,setanor_p.png,,,,,,
,,,,30811,001,2025-10-19_12h18.18.097,HW_LDT_1,2024.2.4,MacIntel,29.94011976,,,,,,,,,,,,,,,,,,,,,470.0475,470.2456,470.2457,470.7458,,,,,,,,,,,,,,0.8857,1,,,,,,,,,,,,,,m,,,,,,,,,,,,,,,,112,0,470.7465,471.6457,m,1,0.8857,,[],[],[],[],[],[],[],471.6459,473.6458,473.6459,473.6461,[],[],[],[],[],[],[],,473.6462,473.6463,-0.166740451,0.037955729,0,0,0,,0,111,111,131,1,4,word,POPULAR,print,popular_p.png,,,,,,
,,,,30811,001,2025-10-19_12h18.18.097,HW_LDT_1,2024.2.4,MacIntel,29.94011976,,,,,,,,,,,,,,,,,,,,,473.6479,473.8457,473.8457,474.3456,,,,,,,,,,,,,,0.8208,1,,,,,,,,,,,,,,m,,,,,,,,,,,,,,,,113,0,474.3459,475.1789,m,1,0.8208,,[],[],[],[],[],[],[],475.179,477.179,477.1792,477.1792,[],[],[],[],[],[],[],,477.1793,477.1794,-0.170260417,0.037955729,0,0,0,,0,112,112,120,1,4,word,MILITARY,print,military_p.png,,,,,,
,,,,30811,001,2025-10-19_12h18.18.097,HW_LDT_1,2024.2.4,MacIntel,29.94011976,,,,,,,,,,,,,,,,,,,,,477.1806,477.379,477.3791,477.8792,,,,,,,,,,,,,,2.7198,0,,,,,,,,,,,,,,m,,,,,,,,,,,,,,,,114,0,477.8799,480.6124,z,0,2.7198,,[],[],[],[],[],[],[],480.6124,482.6128,482.6129,482.6131,[],[],[],[],[],[],[],,482.6132,482.6134,-0.170260417,0.037955729,0,0,0,,0,113,113,91,1,4,word,CARDINAL,cursive,cardinal_c.png,,,,,,
,,,,30811,001,2025-10-19_12h18.18.097,HW_LDT_1,2024.2.4,MacIntel,29.94011976,,,,,,,,,,,,,,,,,,,,,482.6147,482.8126,482.8127,483.3128,,,,,,,,,,,,,,0.8953,0,,,,,,,,,,,,,,m,,,,,,,,,,,,,,,,115,0,483.3136,484.2127,z,0,0.8953,,[],[],[],[],[],[],[],484.2128,486.2121,486.2121,486.2124,[],[],[],[],[],[],[],,486.2125,486.2127,-0.170260417,0.037955729,0,0,0,,0,114,114,99,1,4,word,DEBATE,cursive,debate_c.png,,,,,,
,,,,30811,001,2025-10-19_12h18.18.097,HW_LDT_1,2024.2.4,MacIntel,29.94011976,,,,,,,,,,,,,,,,,,,,,486.2141,486.4128,486.4129,486.9128,,,,,,,,,,,,,,0.6213,1,,,,,,,,,,,,,,m,,,,,,,,,,,,,,,,116,0,486.9136,487.5463,m,1,0.6213,,[],[],[],[],[],[],[],487.5463,489.5463,489.5463,489.5466,[],[],[],[],[],[],[],,489.5467,489.5467,-0.170260417,0.037955729,0,0,0,,0,115,115,147,1,4,word,ROMANTIC,print,romantic_p.png,,,,,,
,,,,30811,001,2025-10-19_12h18.18.097,HW_LDT_1,2024.2.4,MacIntel,29.94011976,,,,,,,,,,,,,,,,,,,,,489.5482,489.7462,489.7463,490.2462,,,,,,,,,,,,,,0.8752,0,,,,,,,,,,,,,,m,,,,,,,,,,,,,,,,117,0,490.2469,491.1463,z,0,0.8752,,[],[],[],[],[],[],[],491.1465,493.1464,493.1465,493.1467,[],[],[],[],[],[],[],,493.1467,493.1469,-0.170260417,0.037955729,0,0,0,,0,116,116,104,1,4,word,DOMINANT,cursive,dominant_c.png,,,,,,
,,,,30811,001,2025-10-19_12h18.18.097,HW_LDT_1,2024.2.4,MacIntel,29.94011976,,,,,,,,,,,,,,,,,,,,,493.1482,493.3455,493.3456,493.8464,,,,,,,,,,,,,,0.7705,1,,,,,,,,,,,,,,z,,,,,,,,,,,,,,,,118,0,493.847,494.6461,z,1,0.7705,,[],[],[],[],[],[],[],494.6461,496.6464,496.6464,496.6466,[],[],[],[],[],[],[],,496.6467,496.6468,-0.170260417,0.037955729,0,0,0,,0,117,117,43,1,4,RL,rovastic,print,rovastic_p.png,,,,,,
,,,,30811,001,2025-10-19_12h18.18.097,HW_LDT_1,2024.2.4,MacIntel,29.94011976,,,,,,,,,,,,,,,,,,,,,496.6483,496.8464,496.8465,497.3466,,,,,,,,,,,,,,0.594,1,,,,,,,,,,,,,,m,,,,,,,,,,,,,,,,119,0,497.3474,497.9462,m,1,0.594,,[],[],[],[],[],[],[],497.9462,499.9464,499.9465,499.9467,[],[],[],[],[],[],[],,499.9469,499.9469,-0.170260417,0.037955729,0,0,0,,0,118,118,127,1,4,word,ORIGINAL,print,original_p.png,,,,,,
,,,,30811,001,2025-10-19_12h18.18.097,HW_LDT_1,2024.2.4,MacIntel,29.94011976,,,,,,,,,,,,,,,,,,,,,499.9484,500.1466,500.1466,500.6466,,,,,,,,,,,,,,0.796,1,,,,,,,,,,,,,,z,,,,,,,,,,,,,,,,120,0,500.6473,501.4455,z,1,0.796,,[],[],[],[],[],[],[],501.4456,503.4466,503.4466,503.4469,[],[],[],[],[],[],[],,503.447,503.4471,-0.170260417,0.037955729,0,0,0,,0,119,119,62,1,4,TL,locigal,print,locigal_p.png,,,,,,
,,,,30811,001,2025-10-19_12h18.18.097,HW_LDT_1,2024.2.4,MacIntel,29.94011976,,,,,,,,,,,,,,,,,,,,,503.4485,503.6466,503.6466,504.1466,,,,,,,,,,,,,,1.3127,1,,,,,,,,,,,,,,z,,,,,,,,,,,,,,,,121,0,504.1474,505.4797,z,1,1.3127,,[],[],[],[],[],[],[],505.4797,507.48,507.48,507.4803,[],[],[],[],[],[],[],,507.4804,507.4805,-0.170260417,0.037955729,0,0,0,,0,120,120,55,1,4,TL,corevage,cursive,corevage_c.png,,,,,,
,,,,30811,001,2025-10-19_12h18.18.097,HW_LDT_1,2024.2.4,MacIntel,29.94011976,,,,,,,,,,,,,,,,,,,,,507.482,507.6797,507.6797,508.18,,,,,,,,,,,,,,0.7361,1,,,,,,,,,,,,,,m,,,,,,,,,,,,,,,,122,0,508.1808,508.9468,m,1,0.7361,,[],[],[],[],[],[],[],508.9469,510.9468,510.9469,510.9471,[],[],[],[],[],[],[],,510.9472,510.9473,-0.170260417,0.037955729,0,0,0,,0,121,121,149,1,4,word,SENATOR,print,senator_p.png,,,,,,
,,,,30811,001,2025-10-19_12h18.18.097,HW_LDT_1,2024.2.4,MacIntel,29.94011976,,,,,,,,,,,,,,,,,,,,,510.9487,511.147,511.1471,511.6469,,,,,,,,,,,,,,1.1084,1,,,,,,,,,,,,,,z,,,,,,,,,,,,,,,,123,0,511.6477,512.7804,z,1,1.1084,,[],[],[],[],[],[],[],512.7804,514.7805,514.7806,514.7808,[],[],[],[],[],[],[],,514.7809,514.7811,-0.170260417,0.037955729,0,0,0,,0,122,122,8,1,4,RL,casagity,cursive,casagity_c.png,,,,,,
,,,,30811,001,2025-10-19_12h18.18.097,HW_LDT_1,2024.2.4,MacIntel,29.94011976,,,,,,,,,,,,,,,,,,,,,514.7828,514.9805,514.9806,515.4802,,,,,,,,,,,,,,1.0959,1,,,,,,,,,,,,,,z,,,,,,,,,,,,,,,,124,0,515.4811,516.5803,z,1,1.0959,,[],[],[],[],[],[],[],516.5803,518.5805,518.5805,518.5808,[],[],[],[],[],[],[],,518.5808,518.5809,-0.170260417,0.037955729,0,0,0,,0,123,123,44,1,4,RL,senvilent,print,senvilent_p.png,,,,,,
,,,,30811,001,2025-10-19_12h18.18.097,HW_LDT_1,2024.2.4,MacIntel,29.94011976,,,,,,,,,,,,,,,,,,,,,518.5825,518.7804,518.7805,519.2801,,,,,,,,,,,,,,1.0698,1,,,,,,,,,,,,,,m,,,,,,,,,,,,,,,,125,0,519.2809,520.3803,m,1,1.0698,,[],[],[],[],[],[],[],520.3803,522.38,522.38,522.3802,[],[],[],[],[],[],[],,522.3802,522.3803,-0.178541667,0.037955729,0,0,0,,0,124,124,116,1,4,word,MARGINAL,cursive,marginal_c.png,,,,,,
,,,,30811,001,2025-10-19_12h18.18.097,HW_LDT_1,2024.2.4,MacIntel,29.94011976,,,,,,,,,,,,,,,,,,,,,522.3819,522.5805,522.5805,523.0807,,,,,,,,,,,,,,0.8837,1,,,,,,,,,,,,,,z,,,,,,,,,,,,,,,,126,0,523.0814,523.9796,z,1,0.8837,,[],[],[],[],[],[],[],523.9796,525.9807,525.9808,525.9809,[],[],[],[],[],[],[],,525.981,525.9812,-0.178541667,0.037955729,0,0,0,,0,125,125,33,1,4,RL,pamest,cursive,pamest_c.png,,,,,,
,,,,30811,001,2025-10-19_12h18.18.097,HW_LDT_1,2024.2.4,MacIntel,29.94011976,,,,,,,,,,,,,,,,,,,,,525.9827,526.1807,526.1808,526.6797,,,,,,,,,,,,,,0.7313,1,,,,,,,,,,,,,,z,,,,,,,,,,,,,,,,127,0,526.6805,527.4138,z,1,0.7313,,[],[],[],[],[],[],[],527.4139,529.413,529.413,529.4132,[],[],[],[],[],[],[],,529.4132,529.4134,-0.178541667,0.037955729,0,0,0,,0,126,126,18,1,4,RL,disluge,print,disluge_p.png,,,,,,
,,,,30811,001,2025-10-19_12h18.18.097,HW_LDT_1,2024.2.4,MacIntel,29.94011976,,,,,,,,,,,,,,,,,,,,,529.4147,529.6136,529.6137,530.114,,,,,,,,,,,,,,0.7863,1,,,,,,,,,,,,,,m,,,,,,,,,,,,,,,,128,0,530.1147,530.9141,m,1,0.7863,,[],[],[],[],[],[],[],530.9141,532.914,532.9141,532.9143,[],[],[],[],[],[],[],,532.9144,532.9144,-0.178541667,0.037955729,0,0,0,,0,127,127,158,1,4,word,VELOCITY,cursive,velocity_c.png,,,,,,
,,,,30811,001,2025-10-19_12h18.18.097,HW_LDT_1,2024.2.4,MacIntel,29.94011976,,,,,,,,,,,,,,,,,,,,,532.9159,533.1143,533.1144,533.6132,,,,,,,,,,,,,,0.8881,1,,,,,,,,,,,,,,z,,,,,,,,,,,,,,,,129,0,533.614,534.5139,z,1,0.8881,,[],[],[],[],[],[],[],534.5139,536.5141,536.5142,536.5143,[],[],[],[],[],[],[],,536.5144,536.5145,-0.178541667,0.037955729,0,0,0,,0,128,128,72,1,4,TL,relugar,cursive,relugar_c.png,,,,,,
,,,,30811,001,2025-10-19_12h18.18.097,HW_LDT_1,2024.2.4,MacIntel,29.94011976,,,,,,,,,,,,,,,,,,,,,536.5157,536.7138,536.7138,537.2142,,,,,,,,,,,,,,1.3164,1,,,,,,,,,,,,,,m,,,,,,,,,,,,,,,,130,0,537.215,538.547,m,1,1.3164,,[],[],[],[],[],[],[],538.547,540.5478,540.5479,540.5482,[],[],[],[],[],[],[],,540.5482,540.5483,-0.178541667,0.037955729,0,0,0,,0,129,129,130,1,4,word,POLICY,cursive,policy_c.png,,,,,,
,,,,30811,001,2025-10-19_12h18.18.097,HW_LDT_1,2024.2.4,MacIntel,29.94011976,,,,,,,,,,,,,,,,,,,,,540.5499,540.7467,540.7468,541.2474,,,,,,,,,,,,,,0.8571,1,,,,,,,,,,,,,,m,,,,,,,,,,,,,,,,131,0,541.2477,542.1142,m,1,0.8571,,[],[],[],[],[],[],[],542.1142,544.1145,544.1145,544.1147,[],[],[],[],[],[],[],,544.1149,544.1149,-0.178541667,0.037955729,0,0,0,,0,130,130,150,1,4,word,SENTIMENT,print,sentiment_p.png,,,,,,
,,,,30811,001,2025-10-19_12h18.18.097,HW_LDT_1,2024.2.4,MacIntel,29.94011976,,,,,,,,,,,,,,,,,,,,,544.1163,544.3134,544.3135,544.8146,,,,,,,,,,,,,,0.7698,1,,,,,,,,,,,,,,z,,,,,,,,,,,,,,,,132,0,544.8153,545.6147,z,1,0.7698,,[],[],[],[],[],[],[],545.6147,547.6146,547.6147,547.6149,[],[],[],[],[],[],[],,547.6149,547.615,-0.178541667,0.037955729,0,0,0,,0,131,131,29,1,4,RL,motide,print,motide_p.png,,,,,,
,,,,30811,001,2025-10-19_12h18.18.097,HW_LDT_1,2024.2.4,MacIntel,29.94011976,,,,,,,,,,,,,,,,,,,,,547.6165,547.8147,547.8147,548.3147,,,,,,,,,,,,,,0.4955,1,,,,,,,,,,,,,,m,,,,,,,,,,,,,,,,133,1,548.3155,548.8139,m,1,0.4955,,[],[],[],[],[],[],[],548.814,550.8147,550.8148,551.8472,[],[],[],[],[],[],[],m,551.8473,551.8474,-0.178541667,0.037955729,0,0,0,,0,132,132,121,1,4,word,MISTAKE,print,mistake_p.png,1.006,,,,,
,,,,30811,001,2025-10-19_12h18.18.097,HW_LDT_1,2024.2.4,MacIntel,29.94011976,,,,,,,,,,,,,,,,,,,,,551.8488,552.048,552.048,552.5472,,,,,,,,,,,,,,0.8201,0,,,,,,,,,,,,,,m,,,,,,,,,,,,,,,,134,0,552.5479,553.3809,z,0,0.8201,,[],[],[],[],[],[],[],553.381,555.3811,555.3812,555.3814,[],[],[],[],[],[],[],,555.3815,555.3816,-0.178541667,0.037955729,0,0,0,,0,133,133,114,1,4,word,LOCATE,cursive,locate_c.png,,,,,,
,,,,30811,001,2025-10-19_12h18.18.097,HW_LDT_1,2024.2.4,MacIntel,29.94011976,,,,,,,,,,,,,,,,,,,,,555.3831,555.5815,555.5816,556.0807,,,,,,,,,,,,,,0.5287,1,,,,,,,,,,,,,,m,,,,,,,,,,,,,,,,135,0,556.0814,556.6145,m,1,0.5287,,[],[],[],[],[],[],[],556.6146,558.6148,558.6149,558.6152,[],[],[],[],[],[],[],,558.6152,558.6153,-0.178541667,0.037955729,0,0,0,,0,134,134,103,1,4,word,DISPUTE,print,dispute_p.png,,,,,,
,,,,30811,001,2025-10-19_12h18.18.097,HW_LDT_1,2024.2.4,MacIntel,29.94011976,,,,,,,,,,,,,,,,,,,,,558.6169,558.8142,558.8142,559.3141,,,,,,,,,,,,,,1.1181,1,,,,,,,,,,,,,,z,,,,,,,,,,,,,,,,136,0,559.3143,560.4484,z,1,1.1181,,[],[],[],[],[],[],[],560.4485,562.4484,562.4485,562.4488,[],[],[],[],[],[],[],,562.4488,562.4489,-0.178541667,0.037955729,0,0,0,,0,135,135,7,1,4,RL,casena,print,casena_p.png,,,,,,
,,,,30811,001,2025-10-19_12h18.18.097,HW_LDT_1,2024.2.4,MacIntel,29.94011976,,,,,,,,,,,,,,,,,,,,,562.4505,562.6484,562.6485,563.1474,,,,,,,,,,,,,,0.6539,1,,,,,,,,,,,,,,m,,,,,,,,,,,,,,,,137,1,563.1482,563.8149,m,1,0.6539,,[],[],[],[],[],[],[],563.815,565.8141,565.8142,566.8485,[],[],[],[],[],[],[],m,566.8485,566.8487,-0.178541667,0.037955729,0,0,0,,0,136,136,132,1,4,word,PROPOSAL,print,proposal_p.png,1.0225,,,,,
,,,,30811,001,2025-10-19_12h18.18.097,HW_LDT_1,2024.2.4,MacIntel,29.94011976,,,,,,,,,,,,,,,,,,,,,566.85,567.0485,567.0485,567.5476,,,,,,,,,,,,,,0.7172,1,,,,,,,,,,,,,,m,,,,,,,,,,,,,,,,138,0,567.5484,568.2818,m,1,0.7172,,[],[],[],[],[],[],[],568.2819,570.2819,570.282,570.2822,[],[],[],[],[],[],[],,570.2822,570.2823,-0.178541667,0.037955729,0,0,0,,0,137,137,156,1,4,word,TRIBUTE,print,tribute_p.png,,,,,,
,,,,30811,001,2025-10-19_12h18.18.097,HW_LDT_1,2024.2.4,MacIntel,29.94011976,,,,,,,,,,,,,,,,,,,,,570.2838,570.4818,570.4819,570.9809,,,,,,,,,,,,,,0.6603,1,,,,,,,,,,,,,,z,,,,,,,,,,,,,,,,139,0,570.9816,571.6481,z,1,0.6603,,[],[],[],[],[],[],[],571.6482,573.6477,573.6477,573.6479,[],[],[],[],[],[],[],,573.6479,573.6481,-0.178541667,0.037955729,0,0,0,,0,138,138,59,1,4,TL,fornute,cursive,fornute_c.png,,,,,,
,,,,30811,001,2025-10-19_12h18.18.097,HW_LDT_1,2024.2.4,MacIntel,29.94011976,,,,,,,,,,,,,,,,,,,,,573.6497,573.8485,573.8485,574.3486,,,,,,,,,,,,,,0.6864,1,,,,,,,,,,,,,,z,,,,,,,,,,,,,,,,140,0,574.3495,575.0474,z,1,0.6864,,[],[],[],[],[],[],[],575.0475,577.0478,577.0478,577.048,[],[],[],[],[],[],[],,577.0481,577.0483,-0.178541667,0.037955729,0,0,0,,0,139,139,9,1,4,RL,cafigal,print,cafigal_p.png,,,,,,
,,,,30811,001,2025-10-19_12h18.18.097,HW_LDT_1,2024.2.4,MacIntel,29.94011976,,,,,,,,,,,,,,,,,,,,,577.0498,577.248,577.2481,577.7487,,,,,,,,,,,,,,1.4594,1,,,,,,,,,,,,,,z,,,,,,,,,,,,,,,,141,1,577.7494,579.2152,z,1,1.4594,,[],[],[],[],[],[],[],579.2152,581.2147,581.2148,582.3489,[],[],[],[],[],[],[],z,582.3489,582.3491,-0.178541667,0.037955729,0,0,0,,0,140,140,22,1,4,RL,linedal,cursive,linedal_c.png,1.1207,,,,,
,,,,30811,001,2025-10-19_12h18.18.097,HW_LDT_1,2024.2.4,MacIntel,29.94011976,,,,,,,,,,,,,,,,,,,,,582.3503,582.5489,582.5489,583.0479,,,,,,,,,,,,,,0.9991,0,,,,,,,,,,,,,,m,,,,,,,,,,,,,,,,142,0,583.0484,584.0487,z,0,0.9991,,[],[],[],[],[],[],[],584.0488,586.049,586.0491,586.0493,[],[],[],[],[],[],[],,586.0494,586.0495,-0.178541667,0.037955729,0,0,0,,0,141,141,85,1,4,word,BENEFIT,cursive,benefit_c.png,,,,,,
,,,,30811,001,2025-10-19_12h18.18.097,HW_LDT_1,2024.2.4,MacIntel,29.94011976,,,,,,,,,,,,,,,,,,,,,586.0511,586.2481,586.2481,586.749,,,,,,,,,,,,,,0.8034,0,,,,,,,,,,,,,,z,,,,,,,,,,,,,,,,143,1,586.7498,587.5823,m,0,0.8034,,[],[],[],[],[],[],[],587.5825,589.5823,589.5823,591.049,[],[],[],[],[],[],[],z,591.0491,591.0492,-0.178541667,0.037955729,0,0,0,,0,142,142,66,1,4,TL,opmital,print,opmital_p.png,1.4504,,,,,
,,,,30811,001,2025-10-19_12h18.18.097,HW_LDT_1,2024.2.4,MacIntel,29.94011976,,,,,,,,,,,,,,,,,,,,,591.0506,591.2491,591.2491,591.7492,,,,,,,,,,,,,,1.1263,1,,,,,,,,,,,,,,m,,,,,,,,,,,,,,,,144,0,591.7501,592.8821,m,1,1.1263,,[],[],[],[],[],[],[],592.8821,594.8822,594.8823,594.8823,[],[],[],[],[],[],[],,594.8824,594.8824,-0.178541667,0.037955729,0,0,0,,0,143,143,139,1,4,word,REGULAR,cursive,regular_c.png,,,,,,
,,,,30811,001,2025-10-19_12h18.18.097,HW_LDT_1,2024.2.4,MacIntel,29.94011976,,,,,,,,,,,,,,,,,,,,,594.8833,595.0825,595.0826,595.5826,,,,,,,,,,,,,,0.803,1,,,,,,,,,,,,,,m,,,,,,,,,,,,,,,,145,0,595.5833,596.4161,m,1,0.803,,[],[],[],[],[],[],[],596.4162,598.4161,598.4162,598.4164,[],[],[],[],[],[],[],,598.4164,598.4166,-0.178541667,0.037955729,0,0,0,,0,144,144,125,1,4,word,OPERATOR,print,operator_p.png,,,,,,
,,,,30811,001,2025-10-19_12h18.18.097,HW_LDT_1,2024.2.4,MacIntel,29.94011976,,,,,,,,,,,,,,,,,,,,,598.418,598.6161,598.6162,599.116,,,,,,,,,,,,,,1.0363,1,,,,,,,,,,,,,,m,,,,,,,,,,,,,,,,146,0,599.1169,600.1829,m,1,1.0363,,[],[],[],[],[],[],[],600.183,602.1828,602.1829,602.1831,[],[],[],[],[],[],[],,602.1832,602.1833,-0.178541667,0.037955729,0,0,0,,0,145,145,151,1,4,word,SPECIFIC,cursive,specific_c.png,,,,,,
,,,,30811,001,2025-10-19_12h18.18.097,HW_LDT_1,2024.2.4,MacIntel,29.94011976,,,,,,,,,,,,,,,,,,,,,602.1848,602.3826,602.3826,602.8827,,,,,,,,,,,,,,1.019,0,,,,,,,,,,,,,,m,,,,,,,,,,,,,,,,147,1,602.8837,603.9161,z,0,1.019,,[],[],[],[],[],[],[],603.9162,605.9161,605.9162,607.0161,[],[],[],[],[],[],[],z,607.0162,607.0163,-0.178541667,0.037955729,0,0,0,,0,146,146,138,1,4,word,REFUSAL,cursive,refusal_c.png,1.0961,,,,,
,,,,30811,001,2025-10-19_12h18.18.097,HW_LDT_1,2024.2.4,MacIntel,29.94011976,,,,,,,,,,,,,,,,,,,,,607.0172,607.2154,607.2154,607.7162,,,,,,,,,,,,,,0.8166,1,,,,,,,,,,,,,,z,,,,,,,,,,,,,,,,148,0,607.7169,608.5493,z,1,0.8166,,[],[],[],[],[],[],[],608.5494,610.5495,610.5496,610.5499,[],[],[],[],[],[],[],,610.55,610.5501,-0.178541667,0.037955729,0,0,0,,0,147,147,47,1,4,RL,stopave,print,stopave_p.png,,,,,,
,,,,30811,001,2025-10-19_12h18.18.097,HW_LDT_1,2024.2.4,MacIntel,29.94011976,,,,,,,,,,,,,,,,,,,,,610.5515,610.7495,610.7496,611.2497,,,,,,,,,,,,,,0.8955,1,,,,,,,,,,,,,,m,,,,,,,,,,,,,,,,149,1,611.2503,612.1496,m,1,0.8955,,[],[],[],[],[],[],[],612.1496,614.1498,614.1498,614.9494,[],[],[],[],[],[],[],z,614.9495,614.9496,-0.178541667,0.037955729,0,0,0,,0,148,148,129,1,4,word,PARENT,cursive,parent_c.png,0.7832,,,,,
,,,,30811,001,2025-10-19_12h18.18.097,HW_LDT_1,2024.2.4,MacIntel,29.94011976,,,,,,,,,,,,,,,,,,,,,614.9503,615.1488,615.1488,615.65,,,,,,,,,,,,,,0.8378,1,,,,,,,,,,,,,,m,,,,,,,,,,,,,,,,150,0,615.6507,616.516,m,1,0.8378,,[],[],[],[],[],[],[],616.5162,618.5166,618.5167,618.5169,[],[],[],[],[],[],[],,618.517,618.5171,-0.178541667,0.037955729,0,0,0,,0,149,149,146,1,4,word,RETIRE,print,retire_p.png,,,,,,
,,,,30811,001,2025-10-19_12h18.18.097,HW_LDT_1,2024.2.4,MacIntel,29.94011976,,,,,,,,,,,,,,,,,,,,,618.5185,618.7159,618.716,619.2155,,,,,,,,,,,,,,1.2301,1,,,,,,,,,,,,,,z,,,,,,,,,,,,,,,,151,0,619.2163,620.4499,z,1,1.2301,,[],[],[],[],[],[],[],620.4501,622.45,622.4501,622.4503,[],[],[],[],[],[],[],,622.4504,622.4505,-0.178541667,0.037955729,0,0,0,,0,150,150,78,1,4,TL,stragety,print,stragety_p.png,,,,,,
,,,,30811,001,2025-10-19_12h18.18.097,HW_LDT_1,2024.2.4,MacIntel,29.94011976,,,,,,,,,,,,,,,,,,,,,622.452,622.6493,622.6494,623.15,,,,,,,,,,,,,,1.3191,0,,,,,,,,,,,,,,m,,,,,,,,,,,,,,,,152,1,623.1508,624.4831,z,0,1.3191,,[],[],[],[],[],[],[],624.4831,626.4833,626.4834,627.3834,[],[],[],[],[],[],[],z,627.3834,627.3835,-0.178541667,0.037955729,0,0,0,,0,151,151,102,1,4,word,DENSITY,cursive,density_c.png,0.8876,,,,,
,,,,30811,001,2025-10-19_12h18.18.097,HW_LDT_1,2024.2.4,MacIntel,29.94011976,,,,,,,,,,,,,,,,,,,,,627.3848,627.5835,627.5835,628.0835,,,,,,,,,,,,,,1.2283,0,,,,,,,,,,,,,,m,,,,,,,,,,,,,,,,153,0,628.0842,629.3168,z,0,1.2283,,[],[],[],[],[],[],[],629.3168,631.3168,631.3169,631.3171,[],[],[],[],[],[],[],,631.3171,631.3172,-0.178541667,0.037955729,0,0,0,,0,152,152,101,1,4,word,DELICATE,cursive,delicate_c.png,,,,,,
,,,,30811,001,2025-10-19_12h18.18.097,HW_LDT_1,2024.2.4,MacIntel,29.94011976,,,,,,,,,,,,,,,,,,,,,631.3187,631.5169,631.5169,632.0169,,,,,,,,,,,,,,1.325,1,,,,,,,,,,,,,,m,,,,,,,,,,,,,,,,154,0,632.0175,633.35,m,1,1.325,,[],[],[],[],[],[],[],633.3501,635.3504,635.3504,635.3507,[],[],[],[],[],[],[],,635.3507,635.3507,-0.178541667,0.037955729,0,0,0,,0,153,153,93,1,4,word,CEREMONY,print,ceremony_p.png,,,,,,
,,,,30811,001,2025-10-19_12h18.18.097,HW_LDT_1,2024.2.4,MacIntel,29.94011976,,,,,,,,,,,,,,,,,,,,,635.3523,635.5503,635.5504,636.0503,,,,,,,,,,,,,,0.6089,1,,,,,,,,,,,,,,z,,,,,,,,,,,,,,,,155,0,636.0511,636.6829,z,1,0.6089,,[],[],[],[],[],[],[],636.683,638.6838,638.6839,638.6841,[],[],[],[],[],[],[],,638.6841,638.6843,-0.178541667,0.037955729,0,0,0,,0,154,154,38,1,4,RL,refakive,print,refakive_p.png,,,,,,
,,,,30811,001,2025-10-19_12h18.18.097,HW_LDT_1,2024.2.4,MacIntel,29.94011976,,,,,,,,,,,,,,,,,,,,,638.6856,638.8837,638.8838,639.3839,,,,,,,,,,,,,,1.1921,1,,,,,,,,,,,,,,m,,,,,,,,,,,,,,,,156,1,639.3846,640.5835,m,1,1.1921,,[],[],[],[],[],[],[],640.5836,642.584,642.584,643.7836,[],[],[],[],[],[],[],z,643.7837,643.7838,-0.178541667,0.037955729,0,0,0,,0,155,155,133,1,4,word,PROVIDE,cursive,provide_c.png,1.1702,,,,,
,,,,30811,001,2025-10-19_12h18.18.097,HW_LDT_1,2024.2.4,MacIntel,29.94011976,,,,,,,,,,,,,,,,,,,,,643.7847,643.9839,643.984,644.484,,,,,,,,,,,,,,0.5837,1,,,,,,,,,,,,,,m,,,,,,,,,,,,,,,,157,0,644.4846,645.0839,m,1,0.5837,,[],[],[],[],[],[],[],645.0841,647.0841,647.0842,647.0844,[],[],[],[],[],[],[],,647.0844,647.0845,-0.178541667,0.037955729,0,0,0,,0,156,156,126,1,4,word,OPTIMAL,print,optimal_p.png,,,,,,
,,,,30811,001,2025-10-19_12h18.18.097,HW_LDT_1,2024.2.4,MacIntel,29.94011976,,,,,,,,,,,,,,,,,,,,,647.086,647.284,647.2841,647.7841,,,,,,,,,,,,,,0.5859,1,,,,,,,,,,,,,,m,,,,,,,,,,,,,,,,158,0,647.7849,648.3828,m,1,0.5859,,[],[],[],[],[],[],[],648.3829,650.3841,650.3842,650.3845,[],[],[],[],[],[],[],,650.3845,650.3846,-0.178541667,0.037955729,0,0,0,,0,157,157,105,1,4,word,EDITOR,print,editor_p.png,,,,,,
,,,,30811,001,2025-10-19_12h18.18.097,HW_LDT_1,2024.2.4,MacIntel,29.94011976,,,,,,,,,,,,,,,,,,,,,650.386,650.5841,650.5842,651.0841,,,,,,,,,,,,,,0.7543,1,,,,,,,,,,,,,,z,,,,,,,,,,,,,,,,159,0,651.0848,651.8508,z,1,0.7543,,[],[],[],[],[],[],[],651.8509,653.8509,653.8509,653.8512,[],[],[],[],[],[],[],,653.8512,653.8514,-0.178541667,0.037955729,0,0,0,,0,158,158,46,1,4,RL,skofen,cursive,skofen_c.png,,,,,,
,,,,30811,001,2025-10-19_12h18.18.097,HW_LDT_1,2024.2.4,MacIntel,29.94011976,,,,,,,,,,,,,,,,,,,,,653.8528,654.0508,654.0509,654.551,,,,,,,,,,,,,,0.8838,1,,,,,,,,,,,,,,z,,,,,,,,,,,,,,,,160,0,654.5517,655.4507,z,1,0.8838,,[],[],[],[],[],[],[],655.4507,657.4509,657.4509,657.4512,[],[],[],[],[],[],[],,657.4513,657.4514,-0.178541667,0.037955729,0,0,0,,0,159,159,2,1,4,RL,asiral,cursive,asiral_c.png,,,,,,
,,,,30811,001,2025-10-19_12h18.18.097,HW_LDT_1,2024.2.4,MacIntel,29.94011976,,,,,,,,,,,,,,,,,,,,,,,,,,,,,,,,,,,,,,,,,,,,,,,,,,,,,,,,,,,,,,,,,,,,,,,,,,,,,,,,,,,,,,,,,,,,,,,,,,,,,,,,,,,,,,,,,,,,,,657.4523,662.4514
