counterbalance_lists.group,counterbalance_lists.remaining,get_list.started,get_list.stopped,participant,session,date,expName,psychopyVersion,OS,frameRate,Instructions.started,Instructions.stopped,key_resp.keys,instr_done_touch.x,instr_done_touch.y,instr_done_touch.leftButton,instr_done_touch.midButton,instr_done_touch.rightButton,instr_done_touch.clicked_name,start_instr.thisRepN,start_instr.thisTrialN,start_instr.thisN,start_instr.thisIndex,start_instr.ran,pageN,phase,instruct_text,has_image,instruct_image,key_resp.rt,key_resp.duration,showProgress.started,showProgress.stopped,fix.started,fix.stopped,prac.started,prac.stopped,response.keys,response.corr,response.rt,response.duration,touch_resp.x,touch_resp.y,touch_resp.leftButton,touch_resp.midButton,touch_resp.rightButton,touch_resp.time,touch_resp.clicked_name,rt,corr,feedback.started,feedback.stopped,trials.thisRepN,trials.thisTrialN,trials.thisN,trials.thisIndex,trials.ran,TrialID,StimulusType,Condition,PrimeDuration,Prime,Target,corrAns,Instructions_expt.started,Instructions_expt.stopped,key_resp_3.keys,key_resp_3.rt,key_resp_3.duration,instr_done_touch_3.x,instr_done_touch_3.y,instr_done_touch_3.leftButton,instr_done_touch_3.midButton,instr_done_touch_3.rightButton,instr_experiment.thisRepN,instr_experiment.thisTrialN,instr_experiment.thisN,instr_experiment.thisIndex,instr_experiment.ran,trialID,flag,maintask.started,maintask.stopped,key_resp_2.keys,key_resp_2.corr,key_resp_2.rt,key_resp_2.duration,targ_click.x,targ_click.y,targ_click.leftButton,targ_click.midButton,targ_click.rightButton,targ_click.time,targ_click.clicked_name,ITI.started,ITI.stopped,probe.started,probe.stopped,click_probe.x,click_probe.y,click_probe.leftButton,click_probe.midButton,click_probe.rightButton,click_probe.time,click_probe.clicked_name,key_resp_probe.keys,Break.started,Break.stopped,break_done_touch.x,break_done_touch.y,break_done_touch.leftButton,break_done_touch.midButton,break_done_touch.rightButton,break_done_keyboard.keys,list1_trials.thisRepN,list1_trials.thisTrialN,list1_trials.thisN,list1_trials.thisIndex,list1_trials.ran,list_id,item_type,string,font,stim_file,key_resp_probe.rt,key_resp_probe.duration,break_done_keyboard.rt,break_done_keyboard.duration,End.started,End.stopped
list1,,0.5372,0.5373,30939,001,2025-10-16_11h16.43.320,HW_LDT_1,2024.2.4,MacIntel,64.1025641,,,,,,,,,,,,,,,,,,,,,,,,,,,,,,,,,,,,,,,,,,,,,,,,,,,,,,,,,,,,,,,,,,,,,,,,,,,,,,,,,,,,,,,,,,,,,,,,,,,,,,,,,,,,,,,,,,,,,,,,
,,,,30939,001,2025-10-16_11h16.43.320,HW_LDT_1,2024.2.4,MacIntel,64.1025641,0.5587,34.1989,,0.031245754,-0.396170177,1,0,0,instr_done_button,0,0,0,0,1,1,instructions,"INSTRUCTIONS
At the start of each trial, look at the plus sign  (+) in the center of the screen.  This tells you that a trial is about to begin and where to look. Second, the plus sign will disappear and a string of letters will appear. Your task is to determine if the string of letters is a word or not. If the item is a word press the M key (on keyboard)  or touch the word button (phone/tablet).  If the item is not a word,  press the  Z key (on keyboard)  or touch the nonword button (on phone/tablet). The items will be presented for a short time. 
Press the space bar or touch  continue.",0,,,,,,,,,,,,,,,,,,,,,,,,,,,,,,,,,,,,,,,,,,,,,,,,,,,,,,,,,,,,,,,,,,,,,,,,,,,,,,,,,,,,,,,,,,,,,,,,,,,,,,
,,,,30939,001,2025-10-16_11h16.43.320,HW_LDT_1,2024.2.4,MacIntel,64.1025641,34.201,44.9304,,0.033963145,-0.38814538,1,0,0,instr_done_button,0,1,1,1,1,2,instructions,"If your device has a keyboard, press the 'Z' key for nonwords and the 'M' key for words.





Press the space bar or touch the button below to continue.",0,keyboard-example.gif,,,,,,,,,,,,,,,,,,,,,,,,,,,,,,,,,,,,,,,,,,,,,,,,,,,,,,,,,,,,,,,,,,,,,,,,,,,,,,,,,,,,,,,,,,,,,,,,,,,,,
,,,,30939,001,2025-10-16_11h16.43.320,HW_LDT_1,2024.2.4,MacIntel,64.1025641,44.9321,49.397,,0.033963145,-0.38814538,1,0,0,instr_done_button,0,2,2,2,1,3,instructions,"If you are using a touchscreen only device, use the buttons on the screen. Do not use the mouse.





Press the space bar or touch the button below to continue.",0,touchscreen-example.gif,,,,,,,,,,,,,,,,,,,,,,,,,,,,,,,,,,,,,,,,,,,,,,,,,,,,,,,,,,,,,,,,,,,,,,,,,,,,,,,,,,,,,,,,,,,,,,,,,,,,,
,,,,30939,001,2025-10-16_11h16.43.320,HW_LDT_1,2024.2.4,MacIntel,64.1025641,49.3995,52.6803,space,0.033963145,-0.38814538,0,0,0,,0,3,3,3,1,4,instructions,"It is very important that you respond as quickly and accurately as possible, as each letter string will only be on the screen for two seconds. If you do not respond within this time, the message 'Too slow!' will be displayed and the experiment will progress to the next letter string. The first 20 trials will be practice trials and you will receive feedback on your answers. 

Press the space bar or touch the button below to start the practice trials.",0,,3.2641,,,,,,,,,,,,,,,,,,,,,,,,,,,,,,,,,,,,,,,,,,,,,,,,,,,,,,,,,,,,,,,,,,,,,,,,,,,,,,,,,,,,,,,,,,,,,,,,,,,,
,,,,30939,001,2025-10-16_11h16.43.320,HW_LDT_1,2024.2.4,MacIntel,64.1025641,,,,,,,,,,,,,,,,,,,,,,52.7107,52.8803,52.8806,53.3804,53.3809,55.4797,m,1,2.0702,,[],[],[],[],[],[],[],2.0702,1,55.4802,55.9803,0,0,0,7,1,1008,WORD,UN,16,hurdle,VOLUME,m,,,,,,,,,,,,,,,,,,,,,,,,,,,,,,,,,,,,,,,,,,,,,,,,,,,,,,,,,,,,,,,,,,
,,,,30939,001,2025-10-16_11h16.43.320,HW_LDT_1,2024.2.4,MacIntel,64.1025641,,,,,,,,,,,,,,,,,,,,,,55.982,56.1801,56.1801,56.6801,56.6813,58.2626,z,1,1.5631,,[],[],[],[],[],[],[],1.5631,1,58.2627,58.7625,0,1,1,10,1,1011,NW,"ID",16,inlade,INLADE,z,,,,,,,,,,,,,,,,,,,,,,,,,,,,,,,,,,,,,,,,,,,,,,,,,,,,,,,,,,,,,,,,,,
,,,,30939,001,2025-10-16_11h16.43.320,HW_LDT_1,2024.2.4,MacIntel,64.1025641,,,,,,,,,,,,,,,,,,,,,,58.7638,58.9637,58.9637,59.4635,59.4646,60.5458,m,1,1.0627,,[],[],[],[],[],[],[],1.0627,1,60.546,61.0458,0,2,2,6,1,1007,WORD,UN,16,tropic,ZOMBIE,m,,,,,,,,,,,,,,,,,,,,,,,,,,,,,,,,,,,,,,,,,,,,,,,,,,,,,,,,,,,,,,,,,,
,,,,30939,001,2025-10-16_11h16.43.320,HW_LDT_1,2024.2.4,MacIntel,64.1025641,,,,,,,,,,,,,,,,,,,,,,61.0471,61.2468,61.2468,61.7467,61.7479,62.8801,m,1,1.1231,,[],[],[],[],[],[],[],1.1231,1,62.8801,63.3801,0,3,3,0,1,1001,WORD,"ID",33,utopia,UTOPIA,m,,,,,,,,,,,,,,,,,,,,,,,,,,,,,,,,,,,,,,,,,,,,,,,,,,,,,,,,,,,,,,,,,,
,,,,30939,001,2025-10-16_11h16.43.320,HW_LDT_1,2024.2.4,MacIntel,64.1025641,,,,,,,,,,,,,,,,,,,,,,63.3818,63.5801,63.5802,64.08,64.0811,65.4971,z,1,1.3994,,[],[],[],[],[],[],[],1.3994,1,65.4973,65.997,0,4,4,8,1,1009,NW,"ID",33,aslert,ASLERT,z,,,,,,,,,,,,,,,,,,,,,,,,,,,,,,,,,,,,,,,,,,,,,,,,,,,,,,,,,,,,,,,,,,
,,,,30939,001,2025-10-16_11h16.43.320,HW_LDT_1,2024.2.4,MacIntel,64.1025641,,,,,,,,,,,,,,,,,,,,,,65.9985,66.1967,66.1968,66.6971,66.6982,68.5802,z,1,1.8745,,[],[],[],[],[],[],[],1.8745,1,68.5804,69.0792,0,5,5,14,1,1015,NW,UN,16,miaber,THRALE,z,,,,,,,,,,,,,,,,,,,,,,,,,,,,,,,,,,,,,,,,,,,,,,,,,,,,,,,,,,,,,,,,,,
,,,,30939,001,2025-10-16_11h16.43.320,HW_LDT_1,2024.2.4,MacIntel,64.1025641,,,,,,,,,,,,,,,,,,,,,,69.0807,69.2801,69.2803,69.7791,69.78,70.7799,m,1,0.9809,,[],[],[],[],[],[],[],0.9809,1,70.7799,71.2791,0,6,6,4,1,1005,WORD,UN,33,abound,SQUEAK,m,,,,,,,,,,,,,,,,,,,,,,,,,,,,,,,,,,,,,,,,,,,,,,,,,,,,,,,,,,,,,,,,,,
,,,,30939,001,2025-10-16_11h16.43.320,HW_LDT_1,2024.2.4,MacIntel,64.1025641,,,,,,,,,,,,,,,,,,,,,,71.2803,71.4801,71.4801,71.9801,71.9812,73.4133,m,1,1.423,,[],[],[],[],[],[],[],1.423,1,73.4134,73.9135,0,7,7,2,1,1003,WORD,"ID",16,almond,ALMOND,m,,,,,,,,,,,,,,,,,,,,,,,,,,,,,,,,,,,,,,,,,,,,,,,,,,,,,,,,,,,,,,,,,,
,,,,30939,001,2025-10-16_11h16.43.320,HW_LDT_1,2024.2.4,MacIntel,64.1025641,,,,,,,,,,,,,,,,,,,,,,73.9151,74.1135,74.1135,74.6134,74.6143,75.9968,z,1,1.3615,,[],[],[],[],[],[],[],1.3615,1,75.997,76.4959,0,8,8,12,1,1013,NW,UN,33,adveil,SPRINY,z,,,,,,,,,,,,,,,,,,,,,,,,,,,,,,,,,,,,,,,,,,,,,,,,,,,,,,,,,,,,,,,,,,
,,,,30939,001,2025-10-16_11h16.43.320,HW_LDT_1,2024.2.4,MacIntel,64.1025641,,,,,,,,,,,,,,,,,,,,,,76.4968,76.6968,76.6968,77.1974,77.1983,78.6135,z,1,1.4075,,[],[],[],[],[],[],[],1.4075,1,78.6136,79.1135,0,9,9,15,1,1016,NW,UN,16,mushed,WHAISE,z,,,,,,,,,,,,,,,,,,,,,,,,,,,,,,,,,,,,,,,,,,,,,,,,,,,,,,,,,,,,,,,,,,
,,,,30939,001,2025-10-16_11h16.43.320,HW_LDT_1,2024.2.4,MacIntel,64.1025641,,,,,,,,,,,,,,,,,,,,,,79.1149,79.3135,79.3136,79.8124,79.8134,80.8301,m,1,1.0089,,[],[],[],[],[],[],[],1.0089,1,80.8302,81.3302,0,10,10,3,1,1004,WORD,"ID",16,matrix,MATRIX,m,,,,,,,,,,,,,,,,,,,,,,,,,,,,,,,,,,,,,,,,,,,,,,,,,,,,,,,,,,,,,,,,,,
,,,,30939,001,2025-10-16_11h16.43.320,HW_LDT_1,2024.2.4,MacIntel,64.1025641,,,,,,,,,,,,,,,,,,,,,,81.3316,81.5293,81.5293,82.0301,82.031,83.0135,m,1,0.9738,,[],[],[],[],[],[],[],0.9738,1,83.0137,83.5137,0,11,11,5,1,1006,WORD,UN,33,frenzy,OBTAIN,m,,,,,,,,,,,,,,,,,,,,,,,,,,,,,,,,,,,,,,,,,,,,,,,,,,,,,,,,,,,,,,,,,,
,,,,30939,001,2025-10-16_11h16.43.320,HW_LDT_1,2024.2.4,MacIntel,64.1025641,,,,,,,,,,,,,,,,,,,,,,83.5152,83.7135,83.7135,84.2125,84.2133,85.2134,z,1,0.9904,,[],[],[],[],[],[],[],0.9904,1,85.2135,85.7125,0,12,12,11,1,1012,NW,"ID",16,rashet,RASHET,z,,,,,,,,,,,,,,,,,,,,,,,,,,,,,,,,,,,,,,,,,,,,,,,,,,,,,,,,,,,,,,,,,,
,,,,30939,001,2025-10-16_11h16.43.320,HW_LDT_1,2024.2.4,MacIntel,64.1025641,,,,,,,,,,,,,,,,,,,,,,85.7138,85.9124,85.9125,86.4135,86.4147,87.2792,m,1,0.8423,,[],[],[],[],[],[],[],0.8423,1,87.2794,87.7802,0,13,13,1,1,1002,WORD,"ID",33,adjust,ADJUST,m,,,,,,,,,,,,,,,,,,,,,,,,,,,,,,,,,,,,,,,,,,,,,,,,,,,,,,,,,,,,,,,,,,
,,,,30939,001,2025-10-16_11h16.43.320,HW_LDT_1,2024.2.4,MacIntel,64.1025641,,,,,,,,,,,,,,,,,,,,,,87.7817,87.9801,87.9802,88.4802,88.4814,89.6136,z,1,1.1115,,[],[],[],[],[],[],[],1.1115,1,89.6137,90.1136,0,14,14,9,1,1010,NW,"ID",33,fariny,FARINY,z,,,,,,,,,,,,,,,,,,,,,,,,,,,,,,,,,,,,,,,,,,,,,,,,,,,,,,,,,,,,,,,,,,
,,,,30939,001,2025-10-16_11h16.43.320,HW_LDT_1,2024.2.4,MacIntel,64.1025641,,,,,,,,,,,,,,,,,,,,,,90.115,90.3135,90.3135,90.8135,90.8144,91.8959,z,1,1.063,,[],[],[],[],[],[],[],1.063,1,91.8962,92.3968,0,15,15,13,1,1014,NW,UN,33,winfer,ROUPET,z,,,,,,,,,,,,,,,,,,,,,,,,,,,,,,,,,,,,,,,,,,,,,,,,,,,,,,,,,,,,,,,,,,
,,,,30939,001,2025-10-16_11h16.43.320,HW_LDT_1,2024.2.4,MacIntel,64.1025641,,,,,,,,,,,,,,,1,end_of_practice,"You have completed the practice trials. During the experimental trials, you will not receive feedback. On some trials you will be asked to report whether the item you just saw was in cursive or print. 
Before you begin, please ensure that you are in a comfortable and quiet location and will not be disturbed for about 15 minutes, as we cannot use your data if you do not complete all the trials. 
 When you are ready to start the experimental trials, please press space or touch the button below.",,,,,,,,,,,,,,,,,,,,,,,,,,,,,,,,,,,,,,92.4038,103.2308,space,10.8138,,0.033963145,-0.38814538,0,0,0,0,0,0,0,1,,,,,,,,,,,,,,,,,,,,,,,,,,,,,,,,,,,,,,,,,,,,,,,,,,,
,,,,30939,001,2025-10-16_11h16.43.320,HW_LDT_1,2024.2.4,MacIntel,64.1025641,,,,,,,,,,,,,,,,,,,,,,103.2426,103.4299,103.43,103.9302,,,,,,,,,,,,,,1.461,1,,,,,,,,,,,,,,m,,,,,,,,,,,,,,,,1,0,103.9319,105.3973,m,1,1.461,,[],[],[],[],[],[],[],105.3976,107.3971,107.3975,107.4009,[],[],[],[],[],[],[],,107.401,107.4025,0.033963145,-0.38814538,0,0,0,,0,0,0,157,1,1,word,VALIDITY,cursive,validity_c.png,,,,,,
,,,,30939,001,2025-10-16_11h16.43.320,HW_LDT_1,2024.2.4,MacIntel,64.1025641,,,,,,,,,,,,,,,,,,,,,,107.4033,107.5969,107.597,108.0969,,,,,,,,,,,,,,2.414,1,,,,,,,,,,,,,,m,,,,,,,,,,,,,,,,2,0,108.0975,110.5127,m,1,2.414,,[],[],[],[],[],[],[],110.5128,112.5126,112.5127,112.5128,[],[],[],[],[],[],[],,112.5129,112.513,0.033963145,-0.38814538,0,0,0,,0,1,1,155,1,1,word,STRATEGY,cursive,strategy_c.png,,,,,,
,,,,30939,001,2025-10-16_11h16.43.320,HW_LDT_1,2024.2.4,MacIntel,64.1025641,,,,,,,,,,,,,,,,,,,,,,112.514,112.7136,112.7137,113.2135,,,,,,,,,,,,,,2.0529,1,,,,,,,,,,,,,,m,,,,,,,,,,,,,,,,3,0,113.2141,115.2793,m,1,2.0529,,[],[],[],[],[],[],[],115.2794,117.2803,117.2803,117.2806,[],[],[],[],[],[],[],,117.2807,117.2809,0.033963145,-0.38814538,0,0,0,,0,2,2,152,1,1,word,SPECIMEN,cursive,specimen_c.png,,,,,,
,,,,30939,001,2025-10-16_11h16.43.320,HW_LDT_1,2024.2.4,MacIntel,64.1025641,,,,,,,,,,,,,,,,,,,,,,117.2821,117.4802,117.4802,117.9801,,,,,,,,,,,,,,1.7647,1,,,,,,,,,,,,,,m,,,,,,,,,,,,,,,,4,0,117.9808,119.7469,m,1,1.7647,,[],[],[],[],[],[],[],119.747,121.7469,121.7469,121.7471,[],[],[],[],[],[],[],,121.7471,121.7472,0.033963145,-0.38814538,0,0,0,,0,3,3,156,1,1,word,TRIBUTE,cursive,tribute_c.png,,,,,,
,,,,30939,001,2025-10-16_11h16.43.320,HW_LDT_1,2024.2.4,MacIntel,64.1025641,,,,,,,,,,,,,,,,,,,,,,121.7484,121.9469,121.9469,122.4469,,,,,,,,,,,,,,1.5145,1,,,,,,,,,,,,,,m,,,,,,,,,,,,,,,,5,0,122.4475,123.9636,m,1,1.5145,,[],[],[],[],[],[],[],123.9637,125.9636,125.9637,125.9639,[],[],[],[],[],[],[],,125.9639,125.9641,0.033963145,-0.38814538,0,0,0,,0,4,4,83,1,1,word,ANIMAL,print,animal_p.png,,,,,,
,,,,30939,001,2025-10-16_11h16.43.320,HW_LDT_1,2024.2.4,MacIntel,64.1025641,,,,,,,,,,,,,,,,,,,,,,125.9654,126.1636,126.1637,126.6637,,,,,,,,,,,,,,1.8852,1,,,,,,,,,,,,,,z,,,,,,,,,,,,,,,,6,1,126.6644,128.5637,z,1,1.8852,,[],[],[],[],[],[],[],128.5638,130.5636,130.5637,134.5136,[],[],[],[],[],[],[],m,134.5138,134.514,0.314669667,-0.331950577,0,0,0,,0,5,5,21,1,1,RL,opcifal,print,opcifal_p.png,3.9355,,,,,
,,,,30939,001,2025-10-16_11h16.43.320,HW_LDT_1,2024.2.4,MacIntel,64.1025641,,,,,,,,,,,,,,,,,,,,,,134.5155,134.7132,134.7133,135.2127,,,,,,,,,,,,,,2.7665,1,,,,,,,,,,,,,,z,,,,,,,,,,,,,,,,7,0,135.2131,137.9807,z,1,2.7665,,[],[],[],[],[],[],[],137.9809,139.9804,139.9806,139.981,[],[],[],[],[],[],[],,139.981,139.9812,0.314669667,-0.331950577,0,0,0,,0,6,6,26,1,1,RL,quafidy,cursive,quafidy_c.png,,,,,,
,,,,30939,001,2025-10-16_11h16.43.320,HW_LDT_1,2024.2.4,MacIntel,64.1025641,,,,,,,,,,,,,,,,,,,,,,139.9825,140.1794,140.1795,140.6803,,,,,,,,,,,,,,1.8483,1,,,,,,,,,,,,,,z,,,,,,,,,,,,,,,,8,0,140.681,142.5303,z,1,1.8483,,[],[],[],[],[],[],[],142.5303,144.5295,144.5295,144.5297,[],[],[],[],[],[],[],,144.5297,144.5298,0.314669667,-0.331950577,0,0,0,,0,7,7,11,1,1,RL,elacodate,print,elacodate_p.png,,,,,,
,,,,30939,001,2025-10-16_11h16.43.320,HW_LDT_1,2024.2.4,MacIntel,64.1025641,,,,,,,,,,,,,,,,,,,,,,144.5309,144.7304,144.7305,145.2294,,,,,,,,,,,,,,0.9323,1,,,,,,,,,,,,,,m,,,,,,,,,,,,,,,,9,0,145.2299,146.1637,m,1,0.9323,,[],[],[],[],[],[],[],146.1638,148.1638,148.1639,148.164,[],[],[],[],[],[],[],,148.164,148.1643,0.314669667,-0.331950577,0,0,0,,0,8,8,113,1,1,word,LITERAL,print,literal_p.png,,,,,,
,,,,30939,001,2025-10-16_11h16.43.320,HW_LDT_1,2024.2.4,MacIntel,64.1025641,,,,,,,,,,,,,,,,,,,,,,148.1656,148.3629,148.3629,148.8637,,,,,,,,,,,,,,2.0852,0,,,,,,,,,,,,,,m,,,,,,,,,,,,,,,,10,0,148.8645,150.9628,z,0,2.0852,,[],[],[],[],[],[],[],150.9629,152.9637,152.9638,152.964,[],[],[],[],[],[],[],,152.9641,152.9644,0.314669667,-0.331950577,0,0,0,,0,9,9,87,1,1,word,CAFETERIA,cursive,cafeteria_c.png,,,,,,
,,,,30939,001,2025-10-16_11h16.43.320,HW_LDT_1,2024.2.4,MacIntel,64.1025641,,,,,,,,,,,,,,,,,,,,,,152.9657,153.1627,153.1627,153.6631,,,,,,,,,,,,,,0.9374,1,,,,,,,,,,,,,,m,,,,,,,,,,,,,,,,11,0,153.6635,154.6138,m,1,0.9374,,[],[],[],[],[],[],[],154.6139,156.6138,156.6138,156.6141,[],[],[],[],[],[],[],,156.6141,156.6143,0.314669667,-0.331950577,0,0,0,,0,10,10,115,1,1,word,LOGICAL,cursive,logical_c.png,,,,,,
,,,,30939,001,2025-10-16_11h16.43.320,HW_LDT_1,2024.2.4,MacIntel,64.1025641,,,,,,,,,,,,,,,,,,,,,,156.6157,156.8138,156.8138,157.3136,,,,,,,,,,,,,,1.2322,1,,,,,,,,,,,,,,m,,,,,,,,,,,,,,,,12,0,157.3142,158.5472,m,1,1.2322,,[],[],[],[],[],[],[],158.5473,160.5471,160.5471,160.5474,[],[],[],[],[],[],[],,160.5475,160.5477,0.219183084,-0.260585088,0,0,0,,0,11,11,124,1,1,word,NUMERICAL,print,numerical_p.png,,,,,,
,,,,30939,001,2025-10-16_11h16.43.320,HW_LDT_1,2024.2.4,MacIntel,64.1025641,,,,,,,,,,,,,,,,,,,,,,160.549,160.746,160.7461,161.2471,,,,,,,,,,,,,,1.0398,1,,,,,,,,,,,,,,z,,,,,,,,,,,,,,,,13,0,161.2477,162.2972,z,1,1.0398,,[],[],[],[],[],[],[],162.2974,164.297,164.297,164.2973,[],[],[],[],[],[],[],,164.2974,164.2976,0.219183084,-0.260585088,0,0,0,,0,12,12,68,1,1,TL,prosopal,cursive,prosopal_c.png,,,,,,
,,,,30939,001,2025-10-16_11h16.43.320,HW_LDT_1,2024.2.4,MacIntel,64.1025641,,,,,,,,,,,,,,,,,,,,,,164.2989,164.4972,164.4973,164.9969,,,,,,,,,,,,,,0.932,1,,,,,,,,,,,,,,m,,,,,,,,,,,,,,,,14,0,164.9975,165.9304,m,1,0.932,,[],[],[],[],[],[],[],165.9304,167.9303,167.9303,167.9305,[],[],[],[],[],[],[],,167.9307,167.9308,0.219183084,-0.260585088,0,0,0,,0,13,13,100,1,1,word,DECADE,print,decade_p.png,,,,,,
,,,,30939,001,2025-10-16_11h16.43.320,HW_LDT_1,2024.2.4,MacIntel,64.1025641,,,,,,,,,,,,,,,,,,,,,,167.9321,168.1303,168.1303,168.6294,,,,,,,,,,,,,,1.3411,1,,,,,,,,,,,,,,z,,,,,,,,,,,,,,,,15,0,168.6299,169.9805,z,1,1.3411,,[],[],[],[],[],[],[],169.9807,171.9804,171.9804,171.9808,[],[],[],[],[],[],[],,171.9808,171.981,0.219183084,-0.260585088,0,0,0,,0,14,14,31,1,1,RL,reconal,cursive,reconal_c.png,,,,,,
,,,,30939,001,2025-10-16_11h16.43.320,HW_LDT_1,2024.2.4,MacIntel,64.1025641,,,,,,,,,,,,,,,,,,,,,,171.9823,172.1804,172.1805,172.6795,,,,,,,,,,,,,,1.6861,1,,,,,,,,,,,,,,m,,,,,,,,,,,,,,,,16,0,172.68,174.3804,m,1,1.6861,,[],[],[],[],[],[],[],174.3806,176.3805,176.3806,176.3808,[],[],[],[],[],[],[],,176.3809,176.381,0.219183084,-0.260585088,0,0,0,,0,15,15,150,1,1,word,SENTIMENT,cursive,sentiment_c.png,,,,,,
,,,,30939,001,2025-10-16_11h16.43.320,HW_LDT_1,2024.2.4,MacIntel,64.1025641,,,,,,,,,,,,,,,,,,,,,,176.3824,176.5804,176.5805,177.0803,,,,,,,,,,,,,,2.0147,0,,,,,,,,,,,,,,m,,,,,,,,,,,,,,,,17,0,177.0809,179.0972,z,0,2.0147,,[],[],[],[],[],[],[],179.0973,181.0971,181.0971,181.0975,[],[],[],[],[],[],[],,181.0975,181.0977,0.219183084,-0.260585088,0,0,0,,0,16,16,146,1,1,word,RETIRE,cursive,retire_c.png,,,,,,
,,,,30939,001,2025-10-16_11h16.43.320,HW_LDT_1,2024.2.4,MacIntel,64.1025641,,,,,,,,,,,,,,,,,,,,,,181.0989,181.2971,181.2971,181.7972,,,,,,,,,,,,,,1.4645,1,,,,,,,,,,,,,,m,,,,,,,,,,,,,,,,18,0,181.7978,183.2637,m,1,1.4645,,[],[],[],[],[],[],[],183.2638,185.2627,185.2627,185.263,[],[],[],[],[],[],[],,185.263,185.2632,0.219183084,-0.260585088,0,0,0,,0,17,17,119,1,1,word,MEMORY,cursive,memory_c.png,,,,,,
,,,,30939,001,2025-10-16_11h16.43.320,HW_LDT_1,2024.2.4,MacIntel,64.1025641,,,,,,,,,,,,,,,,,,,,,,185.2643,185.4639,185.4639,185.9638,,,,,,,,,,,,,,0.9141,1,,,,,,,,,,,,,,m,,,,,,,,,,,,,,,,19,0,185.9646,186.8795,m,1,0.9141,,[],[],[],[],[],[],[],186.8795,188.8803,188.8803,188.8804,[],[],[],[],[],[],[],,188.8805,188.8807,0.219183084,-0.260585088,0,0,0,,0,18,18,85,1,1,word,BENEFIT,print,benefit_p.png,,,,,,
,,,,30939,001,2025-10-16_11h16.43.320,HW_LDT_1,2024.2.4,MacIntel,64.1025641,,,,,,,,,,,,,,,,,,,,,,188.882,189.0803,189.0804,189.5806,,,,,,,,,,,,,,2.0572,1,,,,,,,,,,,,,,z,,,,,,,,,,,,,,,,20,0,189.5811,191.646,z,1,2.0572,,[],[],[],[],[],[],[],191.6461,193.6471,193.6472,193.6474,[],[],[],[],[],[],[],,193.6474,193.6476,0.219183084,-0.260585088,0,0,0,,0,19,19,25,1,1,RL,quakity,cursive,quakity_c.png,,,,,,
,,,,30939,001,2025-10-16_11h16.43.320,HW_LDT_1,2024.2.4,MacIntel,64.1025641,,,,,,,,,,,,,,,,,,,,,,193.649,193.847,193.8471,194.347,,,,,,,,,,,,,,1.0645,1,,,,,,,,,,,,,,z,,,,,,,,,,,,,,,,21,0,194.3476,195.4129,z,1,1.0645,,[],[],[],[],[],[],[],195.4129,197.4129,197.4129,197.4131,[],[],[],[],[],[],[],,197.4131,197.4132,0.219183084,-0.260585088,0,0,0,,0,20,20,29,1,1,RL,refakive,cursive,refakive_c.png,,,,,,
,,,,30939,001,2025-10-16_11h16.43.320,HW_LDT_1,2024.2.4,MacIntel,64.1025641,,,,,,,,,,,,,,,,,,,,,,197.4144,197.6138,197.6138,198.1137,,,,,,,,,,,,,,1.9039,1,,,,,,,,,,,,,,z,,,,,,,,,,,,,,,,22,0,198.1141,200.0305,z,1,1.9039,,[],[],[],[],[],[],[],200.0307,202.0305,202.0306,202.0309,[],[],[],[],[],[],[],,202.0309,202.031,0.219183084,-0.260585088,0,0,0,,0,21,21,22,1,1,RL,patisic,print,patisic_p.png,,,,,,
,,,,30939,001,2025-10-16_11h16.43.320,HW_LDT_1,2024.2.4,MacIntel,64.1025641,,,,,,,,,,,,,,,,,,,,,,202.0325,202.2305,202.2305,202.7304,,,,,,,,,,,,,,1.6568,0,,,,,,,,,,,,,,m,,,,,,,,,,,,,,,,23,0,202.7312,204.3973,z,0,1.6568,,[],[],[],[],[],[],[],204.3974,206.3971,206.3972,206.3975,[],[],[],[],[],[],[],,206.3976,206.3977,0.219183084,-0.260585088,0,0,0,,0,22,22,103,1,1,word,DISPUTE,cursive,dispute_c.png,,,,,,
,,,,30939,001,2025-10-16_11h16.43.320,HW_LDT_1,2024.2.4,MacIntel,64.1025641,,,,,,,,,,,,,,,,,,,,,,206.399,206.5971,206.5972,207.0971,,,,,,,,,,,,,,2.0365,1,,,,,,,,,,,,,,m,,,,,,,,,,,,,,,,24,1,207.0976,209.1472,m,1,2.0365,,[],[],[],[],[],[],[],209.1472,211.1461,211.1462,215.5473,[],[],[],[],[],[],[],z,215.5474,215.5476,0.219183084,-0.260585088,0,0,0,,0,23,23,104,1,1,word,DOMINANT,cursive,dominant_c.png,4.3879,,,,,
,,,,30939,001,2025-10-16_11h16.43.320,HW_LDT_1,2024.2.4,MacIntel,64.1025641,,,,,,,,,,,,,,,,,,,,,,215.5489,215.7462,215.7463,216.2471,,,,,,,,,,,,,,1.1362,1,,,,,,,,,,,,,,m,,,,,,,,,,,,,,,,25,0,216.2479,217.3962,m,1,1.1362,,[],[],[],[],[],[],[],217.3964,219.3971,219.3972,219.3975,[],[],[],[],[],[],[],,219.3977,219.3978,0.219183084,-0.260585088,0,0,0,,0,24,24,144,1,1,word,RESIDENT,print,resident_p.png,,,,,,
,,,,30939,001,2025-10-16_11h16.43.320,HW_LDT_1,2024.2.4,MacIntel,64.1025641,,,,,,,,,,,,,,,,,,,,,,219.3992,219.5972,219.5974,220.0972,,,,,,,,,,,,,,1.1566,1,,,,,,,,,,,,,,m,,,,,,,,,,,,,,,,26,0,220.0979,221.2638,m,1,1.1566,,[],[],[],[],[],[],[],221.2639,223.2628,223.2628,223.263,[],[],[],[],[],[],[],,223.2631,223.2632,0.219183084,-0.260585088,0,0,0,,0,25,25,96,1,1,word,CONSIDER,cursive,consider_c.png,,,,,,
,,,,30939,001,2025-10-16_11h16.43.320,HW_LDT_1,2024.2.4,MacIntel,64.1025641,,,,,,,,,,,,,,,,,,,,,,223.2642,223.4637,223.4638,223.9638,,,,,,,,,,,,,,1.0517,1,,,,,,,,,,,,,,z,,,,,,,,,,,,,,,,27,1,223.9645,225.0296,z,1,1.0517,,[],[],[],[],[],[],[],225.0297,227.0306,227.0306,228.1796,[],[],[],[],[],[],[],z,228.1797,228.1798,0.219183084,-0.260585088,0,0,0,,0,26,26,33,1,1,RL,recile,cursive,recile_c.png,1.1374,,,,,
,,,,30939,001,2025-10-16_11h16.43.320,HW_LDT_1,2024.2.4,MacIntel,64.1025641,,,,,,,,,,,,,,,,,,,,,,228.1808,228.3795,228.3795,228.8806,,,,,,,,,,,,,,0.8812,1,,,,,,,,,,,,,,z,,,,,,,,,,,,,,,,28,0,228.8813,229.7637,z,1,0.8812,,[],[],[],[],[],[],[],229.7638,231.7638,231.7639,231.7642,[],[],[],[],[],[],[],,231.7643,231.7644,0.219183084,-0.260585088,0,0,0,,0,27,27,34,1,1,RL,samite,print,samite_p.png,,,,,,
,,,,30939,001,2025-10-16_11h16.43.320,HW_LDT_1,2024.2.4,MacIntel,64.1025641,,,,,,,,,,,,,,,,,,,,,,231.7657,231.9629,231.9629,232.4638,,,,,,,,,,,,,,0.7011,1,,,,,,,,,,,,,,m,,,,,,,,,,,,,,,,29,0,232.4644,233.1805,m,1,0.7011,,[],[],[],[],[],[],[],233.1806,235.1806,235.1807,235.1809,[],[],[],[],[],[],[],,235.181,235.1811,0.219183084,-0.260585088,0,0,0,,0,28,28,106,1,1,word,ELABORATE,print,elaborate_p.png,,,,,,
,,,,30939,001,2025-10-16_11h16.43.320,HW_LDT_1,2024.2.4,MacIntel,64.1025641,,,,,,,,,,,,,,,,,,,,,,235.1824,235.3796,235.3796,235.8805,,,,,,,,,,,,,,0.9981,1,,,,,,,,,,,,,,z,,,,,,,,,,,,,,,,30,0,235.8811,236.8805,z,1,0.9981,,[],[],[],[],[],[],[],236.8805,238.8795,238.8796,238.8799,[],[],[],[],[],[],[],,238.8799,238.8799,0.219183084,-0.260585088,0,0,0,,0,29,29,74,1,1,TL,setanor,cursive,setanor_c.png,,,,,,
,,,,30939,001,2025-10-16_11h16.43.320,HW_LDT_1,2024.2.4,MacIntel,64.1025641,,,,,,,,,,,,,,,,,,,,,,238.881,239.0795,239.0796,239.5806,,,,,,,,,,,,,,0.9198,1,,,,,,,,,,,,,,m,,,,,,,,,,,,,,,,31,0,239.5813,240.5131,m,1,0.9198,,[],[],[],[],[],[],[],240.5131,242.514,242.514,242.5144,[],[],[],[],[],[],[],,242.5145,242.5147,0.219183084,-0.260585088,0,0,0,,0,30,30,132,1,1,word,PROPOSAL,cursive,proposal_c.png,,,,,,
,,,,30939,001,2025-10-16_11h16.43.320,HW_LDT_1,2024.2.4,MacIntel,64.1025641,,,,,,,,,,,,,,,,,,,,,,242.5161,242.714,242.714,243.2138,,,,,,,,,,,,,,1.19,1,,,,,,,,,,,,,,m,,,,,,,,,,,,,,,,32,0,243.2142,244.414,m,1,1.19,,[],[],[],[],[],[],[],244.4141,246.4139,246.4139,246.4142,[],[],[],[],[],[],[],,246.4142,246.4144,0.219183084,-0.260585088,0,0,0,,0,31,31,94,1,1,word,CLINICAL,cursive,clinical_c.png,,,,,,
,,,,30939,001,2025-10-16_11h16.43.320,HW_LDT_1,2024.2.4,MacIntel,64.1025641,,,,,,,,,,,,,,,,,,,,,,246.4158,246.613,246.613,247.1138,,,,,,,,,,,,,,0.7192,1,,,,,,,,,,,,,,m,,,,,,,,,,,,,,,,33,0,247.1145,247.8464,m,1,0.7192,,[],[],[],[],[],[],[],247.8465,249.8472,249.8472,249.8475,[],[],[],[],[],[],[],,249.8476,249.8477,0.219183084,-0.260585088,0,0,0,,0,32,32,84,1,1,word,BELOVED,print,beloved_p.png,,,,,,
,,,,30939,001,2025-10-16_11h16.43.320,HW_LDT_1,2024.2.4,MacIntel,64.1025641,,,,,,,,,,,,,,,,,,,,,,249.849,250.0463,250.0463,250.5462,,,,,,,,,,,,,,2.1028,0,,,,,,,,,,,,,,m,,,,,,,,,,,,,,,,34,0,250.5466,252.664,z,0,2.1028,,[],[],[],[],[],[],[],252.664,254.6629,254.6629,254.6631,[],[],[],[],[],[],[],,254.6631,254.6633,0.219183084,-0.260585088,0,0,0,,0,33,33,111,1,1,word,INDICATE,cursive,indicate_c.png,,,,,,
,,,,30939,001,2025-10-16_11h16.43.320,HW_LDT_1,2024.2.4,MacIntel,64.1025641,,,,,,,,,,,,,,,,,,,,,,254.6643,254.8638,254.8639,255.3629,,,,,,,,,,,,,,0.9709,0,,,,,,,,,,,,,,m,,,,,,,,,,,,,,,,35,0,255.3634,256.3472,z,0,0.9709,,[],[],[],[],[],[],[],256.3473,258.3471,258.3472,258.3473,[],[],[],[],[],[],[],,258.3474,258.3475,0.219183084,-0.260585088,0,0,0,,0,34,34,154,1,1,word,STORAGE,cursive,storage_c.png,,,,,,
,,,,30939,001,2025-10-16_11h16.43.320,HW_LDT_1,2024.2.4,MacIntel,64.1025641,,,,,,,,,,,,,,,,,,,,,,258.3488,258.5473,258.5474,259.0473,,,,,,,,,,,,,,1.5985,1,,,,,,,,,,,,,,z,,,,,,,,,,,,,,,,36,0,259.0478,260.6469,z,1,1.5985,,[],[],[],[],[],[],[],260.6471,262.6471,262.6473,262.6474,[],[],[],[],[],[],[],,262.6475,262.6475,0.219183084,-0.260585088,0,0,0,,0,35,35,54,1,1,TL,distupe,cursive,distupe_c.png,,,,,,
,,,,30939,001,2025-10-16_11h16.43.320,HW_LDT_1,2024.2.4,MacIntel,64.1025641,,,,,,,,,,,,,,,,,,,,,,262.6489,262.8462,262.8463,263.3472,,,,,,,,,,,,,,0.7916,0,,,,,,,,,,,,,,m,,,,,,,,,,,,,,,,37,0,263.3477,264.1474,z,0,0.7916,,[],[],[],[],[],[],[],264.1476,266.1473,266.1473,266.1476,[],[],[],[],[],[],[],,266.1477,266.1478,0.219183084,-0.260585088,0,0,0,,0,36,36,105,1,1,word,EDITOR,cursive,editor_c.png,,,,,,
,,,,30939,001,2025-10-16_11h16.43.320,HW_LDT_1,2024.2.4,MacIntel,64.1025641,,,,,,,,,,,,,,,,,,,,,,266.1491,266.3472,266.3472,266.8463,,,,,,,,,,,,,,0.9695,1,,,,,,,,,,,,,,m,,,,,,,,,,,,,,,,38,0,266.8468,267.8296,m,1,0.9695,,[],[],[],[],[],[],[],267.8297,269.8307,269.8307,269.8309,[],[],[],[],[],[],[],,269.831,269.8311,0.219183084,-0.260585088,0,0,0,,0,37,37,120,1,1,word,MILITARY,print,military_p.png,,,,,,
,,,,30939,001,2025-10-16_11h16.43.320,HW_LDT_1,2024.2.4,MacIntel,64.1025641,,,,,,,,,,,,,,,,,,,,,,269.8325,270.0306,270.0306,270.5296,,,,,,,,,,,,,,1.4876,1,,,,,,,,,,,,,,z,,,,,,,,,,,,,,,,39,0,270.53,272.0297,z,1,1.4876,,[],[],[],[],[],[],[],272.0298,274.0296,274.0296,274.0298,[],[],[],[],[],[],[],,274.0298,274.0298,0.219183084,-0.260585088,0,0,0,,0,38,38,38,1,1,RL,stopave,cursive,stopave_c.png,,,,,,
,,,,30939,001,2025-10-16_11h16.43.320,HW_LDT_1,2024.2.4,MacIntel,64.1025641,,,,,,,,,,,,,,,,,,,,,,274.0308,274.2306,274.2306,274.7305,,,,,,,,,,,,,,1.4721,1,,,,,,,,,,,,,,z,,,,,,,,,,,,,,,,40,0,274.7311,276.2134,z,1,1.4721,,[],[],[],[],[],[],[],276.2135,278.2138,278.214,278.2142,[],[],[],[],[],[],[],,278.2142,278.2143,0.219183084,-0.260585088,0,0,0,,0,39,39,79,1,1,TL,veretan,print,veretan_p.png,,,,,,
,,,,30939,001,2025-10-16_11h16.43.320,HW_LDT_1,2024.2.4,MacIntel,64.1025641,,,,,,,,,,,,,,,,,,,,,,278.2156,278.413,278.413,278.914,,,,,,,,,,,,,,3.2353,1,,,,,,,,,,,,,,z,,,,,,,,,,,,,,,,41,1,278.9146,282.1629,z,1,3.2353,,[],[],[],[],[],[],[],282.163,284.1639,284.164,285.2973,[],[],[],[],[],[],[],z,285.2973,285.2975,0.219183084,-0.260585088,0,0,0,,0,40,40,76,1,1,TL,stragety,cursive,stragety_c.png,1.1203,,,,,
,,,,30939,001,2025-10-16_11h16.43.320,HW_LDT_1,2024.2.4,MacIntel,64.1025641,,,,,,,,,,,,,,,,,,,,,,285.2988,285.4963,285.4963,285.9972,,,,,,,,,,,,,,1.5548,1,,,,,,,,,,,,,,z,,,,,,,,,,,,,,,,42,0,285.9978,287.564,z,1,1.5548,,[],[],[],[],[],[],[],287.5641,289.5641,289.5641,289.5644,[],[],[],[],[],[],[],,289.5645,289.5646,0.219183084,-0.260585088,0,0,0,,0,41,41,1,1,1,RL,adnicory,cursive,adnicory_c.png,,,,,,
,,,,30939,001,2025-10-16_11h16.43.320,HW_LDT_1,2024.2.4,MacIntel,64.1025641,,,,,,,,,,,,,,,,,,,,,,289.566,289.7638,289.7639,290.264,,,,,,,,,,,,,,0.7207,1,,,,,,,,,,,,,,m,,,,,,,,,,,,,,,,43,0,290.2647,290.9964,m,1,0.7207,,[],[],[],[],[],[],[],290.9965,292.9963,292.9963,292.9965,[],[],[],[],[],[],[],,292.9966,292.9967,0.219183084,-0.260585088,0,0,0,,0,42,42,117,1,1,word,MARINE,print,marine_p.png,,,,,,
,,,,30939,001,2025-10-16_11h16.43.320,HW_LDT_1,2024.2.4,MacIntel,64.1025641,,,,,,,,,,,,,,,,,,,,,,292.9978,293.1964,293.1965,293.6964,,,,,,,,,,,,,,0.5655,0,,,,,,,,,,,,,,z,,,,,,,,,,,,,,,,44,0,293.6969,294.2639,m,0,0.5655,,[],[],[],[],[],[],[],294.264,296.264,296.2641,296.2643,[],[],[],[],[],[],[],,296.2645,296.2646,0.219183084,-0.260585088,0,0,0,,0,43,43,42,1,1,TL,befenit,print,befenit_p.png,,,,,,
,,,,30939,001,2025-10-16_11h16.43.320,HW_LDT_1,2024.2.4,MacIntel,64.1025641,,,,,,,,,,,,,,,,,,,,,,296.2659,296.463,296.4631,296.9639,,,,,,,,,,,,,,0.782,1,,,,,,,,,,,,,,m,,,,,,,,,,,,,,,,45,1,296.9644,297.7472,m,1,0.782,,[],[],[],[],[],[],[],297.7473,299.7463,299.7464,300.8639,[],[],[],[],[],[],[],m,300.864,300.8641,0.219183084,-0.260585088,0,0,0,,0,44,44,123,1,1,word,MODERATE,print,moderate_p.png,1.1168,,,,,
,,,,30939,001,2025-10-16_11h16.43.320,HW_LDT_1,2024.2.4,MacIntel,64.1025641,,,,,,,,,,,,,,,,,,,,,,300.8654,301.0639,301.064,301.564,,,,,,,,,,,,,,0.9512,1,,,,,,,,,,,,,,z,,,,,,,,,,,,,,,,46,0,301.5646,302.5307,z,1,0.9512,,[],[],[],[],[],[],[],302.5307,304.5308,304.5308,304.5312,[],[],[],[],[],[],[],,304.5312,304.5313,0.219183084,-0.260585088,0,0,0,,0,45,45,27,1,1,RL,rasibal,print,rasibal_p.png,,,,,,
,,,,30939,001,2025-10-16_11h16.43.320,HW_LDT_1,2024.2.4,MacIntel,64.1025641,,,,,,,,,,,,,,,,,,,,,,304.5327,304.7297,304.7298,305.2306,,,,,,,,,,,,,,1.0028,1,,,,,,,,,,,,,,m,,,,,,,,,,,,,,,,47,0,305.2311,306.2475,m,1,1.0028,,[],[],[],[],[],[],[],306.2476,308.2473,308.2474,308.2476,[],[],[],[],[],[],[],,308.2477,308.2478,0.219183084,-0.260585088,0,0,0,,0,46,46,159,1,1,word,VETERAN,print,veteran_p.png,,,,,,
,,,,30939,001,2025-10-16_11h16.43.320,HW_LDT_1,2024.2.4,MacIntel,64.1025641,,,,,,,,,,,,,,,,,,,,,,308.2494,308.4474,308.4475,308.9464,,,,,,,,,,,,,,0.7528,1,,,,,,,,,,,,,,m,,,,,,,,,,,,,,,,48,0,308.9469,309.7131,m,1,0.7528,,[],[],[],[],[],[],[],309.7132,311.7137,311.7137,311.7139,[],[],[],[],[],[],[],,311.714,311.7141,0.219183084,-0.260585088,0,0,0,,0,47,47,121,1,1,word,MISTAKE,print,mistake_p.png,,,,,,
,,,,30939,001,2025-10-16_11h16.43.320,HW_LDT_1,2024.2.4,MacIntel,64.1025641,,,,,,,,,,,,,,,,,,,,,,311.7154,311.914,311.9141,312.414,,,,,,,,,,,,,,1.531,1,,,,,,,,,,,,,,z,,,,,,,,,,,,,,,,49,0,312.4147,313.9474,z,1,1.531,,[],[],[],[],[],[],[],313.9475,315.9473,315.9474,315.9477,[],[],[],[],[],[],[],,315.9477,315.9478,0.219183084,-0.260585088,0,0,0,,0,48,48,78,1,1,TL,vecolity,print,vecolity_p.png,,,,,,
,,,,30939,001,2025-10-16_11h16.43.320,HW_LDT_1,2024.2.4,MacIntel,64.1025641,,,,,,,,,,,,,,,,,,,,,,315.9492,316.1464,316.1464,316.6474,,,,,,,,,,,,,,0.9085,1,,,,,,,,,,,,,,z,,,,,,,,,,,,,,,,50,0,316.6479,317.5641,z,1,0.9085,,[],[],[],[],[],[],[],317.5641,319.5642,319.5642,319.5644,[],[],[],[],[],[],[],,319.5645,319.5646,0.219183084,-0.260585088,0,0,0,,0,49,49,8,1,1,RL,debave,print,debave_p.png,,,,,,
,,,,30939,001,2025-10-16_11h16.43.320,HW_LDT_1,2024.2.4,MacIntel,64.1025641,,,,,,,,,,,,,,,,,,,,,,319.5658,319.7631,319.7632,320.264,,,,,,,,,,,,,,1.1811,1,,,,,,,,,,,,,,z,,,,,,,,,,,,,,,,51,0,320.2647,321.4473,z,1,1.1811,,[],[],[],[],[],[],[],321.4474,323.4463,323.4464,323.4466,[],[],[],[],[],[],[],,323.4466,323.4467,0.219183084,-0.260585088,0,0,0,,0,50,50,65,1,1,TL,orinigal,cursive,orinigal_c.png,,,,,,
,,,,30939,001,2025-10-16_11h16.43.320,HW_LDT_1,2024.2.4,MacIntel,64.1025641,,,,,,,,,,,,,,,,,,,,,,323.4477,323.6465,323.6465,324.1474,,,,,,,,,,,,,,0.7404,1,,,,,,,,,,,,,,m,,,,,,,,,,,,,,,,52,0,324.148,324.8975,m,1,0.7404,,[],[],[],[],[],[],[],324.8976,326.8974,326.8975,326.8977,[],[],[],[],[],[],[],,326.8977,326.8979,0.219183084,-0.260585088,0,0,0,,0,51,51,95,1,1,word,COMEDY,cursive,comedy_c.png,,,,,,
,,,,30939,001,2025-10-16_11h16.43.320,HW_LDT_1,2024.2.4,MacIntel,64.1025641,,,,,,,,,,,,,,,,,,,,,,326.8991,327.0974,327.0974,327.5964,,,,,,,,,,,,,,0.6331,1,,,,,,,,,,,,,,z,,,,,,,,,,,,,,,,53,0,327.5968,328.2306,z,1,0.6331,,[],[],[],[],[],[],[],328.2307,330.2308,330.2309,330.231,[],[],[],[],[],[],[],,330.2311,330.2312,0.219183084,-0.260585088,0,0,0,,0,52,52,15,1,1,RL,losipal,cursive,losipal_c.png,,,,,,
,,,,30939,001,2025-10-16_11h16.43.320,HW_LDT_1,2024.2.4,MacIntel,64.1025641,,,,,,,,,,,,,,,,,,,,,,330.2325,330.4307,330.4308,330.9307,,,,,,,,,,,,,,0.7678,1,,,,,,,,,,,,,,z,,,,,,,,,,,,,,,,54,0,330.9315,331.7131,z,1,0.7678,,[],[],[],[],[],[],[],331.7131,333.714,333.714,333.7143,[],[],[],[],[],[],[],,333.7144,333.7145,0.219183084,-0.260585088,0,0,0,,0,53,53,67,1,1,TL,pocily,cursive,pocily_c.png,,,,,,
,,,,30939,001,2025-10-16_11h16.43.320,HW_LDT_1,2024.2.4,MacIntel,64.1025641,,,,,,,,,,,,,,,,,,,,,,333.7157,333.914,333.914,334.414,,,,,,,,,,,,,,0.7815,0,,,,,,,,,,,,,,z,,,,,,,,,,,,,,,,55,0,334.4146,335.1973,m,0,0.7815,,[],[],[],[],[],[],[],335.1974,337.1972,337.1972,337.1975,[],[],[],[],[],[],[],,337.1975,337.1977,0.219183084,-0.260585088,0,0,0,,0,54,54,41,1,1,TL,bevoled,print,bevoled_p.png,,,,,,
,,,,30939,001,2025-10-16_11h16.43.320,HW_LDT_1,2024.2.4,MacIntel,64.1025641,,,,,,,,,,,,,,,,,,,,,,337.199,337.3964,337.3964,337.8974,,,,,,,,,,,,,,0.8234,0,,,,,,,,,,,,,,m,,,,,,,,,,,,,,,,56,0,337.898,338.7307,z,0,0.8234,,[],[],[],[],[],[],[],338.7309,340.7308,340.7309,340.731,[],[],[],[],[],[],[],,340.7312,340.7313,0.219183084,-0.260585088,0,0,0,,0,55,55,149,1,1,word,SENATOR,cursive,senator_c.png,,,,,,
,,,,30939,001,2025-10-16_11h16.43.320,HW_LDT_1,2024.2.4,MacIntel,64.1025641,,,,,,,,,,,,,,,,,,,,,,340.7326,340.9299,340.9299,341.4307,,,,,,,,,,,,,,1.6853,1,,,,,,,,,,,,,,m,,,,,,,,,,,,,,,,57,1,341.4313,343.1308,m,1,1.6853,,[],[],[],[],[],[],[],343.1308,345.1298,345.1298,346.1475,[],[],[],[],[],[],[],z,346.1476,346.1476,0.219183084,-0.260585088,0,0,0,,0,56,56,137,1,1,word,RAPIDLY,cursive,rapidly_c.png,1.0062,,,,,
,,,,30939,001,2025-10-16_11h16.43.320,HW_LDT_1,2024.2.4,MacIntel,64.1025641,,,,,,,,,,,,,,,,,,,,,,346.149,346.3474,346.3475,346.8465,,,,,,,,,,,,,,1.3053,1,,,,,,,,,,,,,,z,,,,,,,,,,,,,,,,58,0,346.8471,348.1641,z,1,1.3053,,[],[],[],[],[],[],[],348.1642,350.1641,350.1641,350.1644,[],[],[],[],[],[],[],,350.1645,350.1647,0.219183084,-0.260585088,0,0,0,,0,57,57,51,1,1,TL,corevage,print,corevage_p.png,,,,,,
,,,,30939,001,2025-10-16_11h16.43.320,HW_LDT_1,2024.2.4,MacIntel,64.1025641,,,,,,,,,,,,,,,,,,,,,,350.1659,350.3641,350.3642,350.864,,,,,,,,,,,,,,1.3482,1,,,,,,,,,,,,,,z,,,,,,,,,,,,,,,,59,0,350.8646,352.214,z,1,1.3482,,[],[],[],[],[],[],[],352.2141,354.2131,354.2133,354.2134,[],[],[],[],[],[],[],,354.2135,354.2135,0.219183084,-0.260585088,0,0,0,,0,58,58,62,1,1,TL,mitilary,print,mitilary_p.png,,,,,,
,,,,30939,001,2025-10-16_11h16.43.320,HW_LDT_1,2024.2.4,MacIntel,64.1025641,,,,,,,,,,,,,,,,,,,,,,354.2145,354.4132,354.4132,354.9141,,,,,,,,,,,,,,0.699,1,,,,,,,,,,,,,,z,,,,,,,,,,,,,,,,60,0,354.9147,355.6143,z,1,0.699,,[],[],[],[],[],[],[],355.6144,357.6132,357.6132,357.6134,[],[],[],[],[],[],[],,357.6134,357.6135,0.219183084,-0.260585088,0,0,0,,0,59,59,36,1,1,RL,speniven,cursive,speniven_c.png,,,,,,
,,,,30939,001,2025-10-16_11h16.43.320,HW_LDT_1,2024.2.4,MacIntel,64.1025641,,,,,,,,,,,,,,,,,,,,,,357.6145,357.8142,357.8142,358.3141,,,,,,,,,,,,,,1.4036,1,,,,,,,,,,,,,,m,,,,,,,,,,,,,,,,61,0,358.3147,359.731,m,1,1.4036,,[],[],[],[],[],[],[],359.731,361.7308,361.7308,361.7309,[],[],[],[],[],[],[],,361.7309,361.731,0.219183084,-0.260585088,0,0,0,,0,60,60,141,1,1,word,RELIGION,cursive,religion_c.png,,,,,,
,,,,30939,001,2025-10-16_11h16.43.320,HW_LDT_1,2024.2.4,MacIntel,64.1025641,,,,,,,,,,,,,,,,,,,,,,361.7323,361.9298,361.9299,362.4308,,,,,,,,,,,,,,0.7807,0,,,,,,,,,,,,,,z,,,,,,,,,,,,,,,,62,0,362.4313,363.2141,m,0,0.7807,,[],[],[],[],[],[],[],363.2142,365.2141,365.2142,365.2144,[],[],[],[],[],[],[],,365.2144,365.2145,0.219183084,-0.260585088,0,0,0,,0,61,61,66,1,1,TL,panert,cursive,panert_c.png,,,,,,
,,,,30939,001,2025-10-16_11h16.43.320,HW_LDT_1,2024.2.4,MacIntel,64.1025641,,,,,,,,,,,,,,,,,,,,,,365.2158,365.4132,365.4133,365.9132,,,,,,,,,,,,,,0.8359,0,,,,,,,,,,,,,,z,,,,,,,,,,,,,,,,63,0,365.9138,366.764,m,0,0.8359,,[],[],[],[],[],[],[],366.7642,368.7641,368.7642,368.7643,[],[],[],[],[],[],[],,368.7644,368.7646,0.219183084,-0.260585088,0,0,0,,0,62,62,45,1,1,TL,cacapity,print,cacapity_p.png,,,,,,
,,,,30939,001,2025-10-16_11h16.43.320,HW_LDT_1,2024.2.4,MacIntel,64.1025641,,,,,,,,,,,,,,,,,,,,,,368.7659,368.9641,368.9641,369.4641,,,,,,,,,,,,,,1.4707,0,,,,,,,,,,,,,,z,,,,,,,,,,,,,,,,64,1,369.4646,370.9472,m,0,1.4707,,[],[],[],[],[],[],[],370.9473,372.9471,372.9472,374.1643,[],[],[],[],[],[],[],z,374.1644,374.1645,0.219183084,-0.260585088,0,0,0,,0,63,63,61,1,1,TL,mecidine,cursive,mecidine_c.png,1.2065,,,,,
,,,,30939,001,2025-10-16_11h16.43.320,HW_LDT_1,2024.2.4,MacIntel,64.1025641,,,,,,,,,,,,,,,,,,,,,,374.1659,374.3632,374.3633,374.8642,,,,,,,,,,,,,,0.8689,1,,,,,,,,,,,,,,z,,,,,,,,,,,,,,,,65,0,374.8649,375.7475,z,1,0.8689,,[],[],[],[],[],[],[],375.7475,377.7474,377.7475,377.7477,[],[],[],[],[],[],[],,377.7477,377.7478,0.219183084,-0.260585088,0,0,0,,0,64,64,18,1,1,RL,mishafe,print,mishafe_p.png,,,,,,
,,,,30939,001,2025-10-16_11h16.43.320,HW_LDT_1,2024.2.4,MacIntel,64.1025641,,,,,,,,,,,,,,,,,,,,,,377.7491,377.9465,377.9465,378.4474,,,,,,,,,,,,,,0.8648,1,,,,,,,,,,,,,,m,,,,,,,,,,,,,,,,66,1,378.4481,379.3141,m,1,0.8648,,[],[],[],[],[],[],[],379.3141,381.3142,381.3142,383.9634,[],[],[],[],[],[],[],z,383.9634,383.9635,0.219183084,-0.260585088,0,0,0,,0,65,65,136,1,1,word,RADICAL,print,radical_p.png,2.6381,,,,,
,,,,30939,001,2025-10-16_11h16.43.320,HW_LDT_1,2024.2.4,MacIntel,64.1025641,,,,,,,,,,,,,,,,,,,,,,383.9646,384.1632,384.1633,384.6642,,,,,,,,,,,,,,0.8522,1,,,,,,,,,,,,,,z,,,,,,,,,,,,,,,,67,0,384.6648,385.5309,z,1,0.8522,,[],[],[],[],[],[],[],385.531,387.5302,387.5303,387.5305,[],[],[],[],[],[],[],,387.5305,387.5305,0.219183084,-0.260585088,0,0,0,,0,66,66,43,1,1,TL,bedise,print,bedise_p.png,,,,,,
,,,,30939,001,2025-10-16_11h16.43.320,HW_LDT_1,2024.2.4,MacIntel,64.1025641,,,,,,,,,,,,,,,,,,,,,,387.5318,387.7309,387.7309,388.2299,,,,,,,,,,,,,,1.049,1,,,,,,,,,,,,,,m,,,,,,,,,,,,,,,,68,0,388.2303,389.2808,m,1,1.049,,[],[],[],[],[],[],[],389.2808,391.28,391.28,391.2801,[],[],[],[],[],[],[],,391.2802,391.2803,0.219183084,-0.260585088,0,0,0,,0,67,67,108,1,1,word,FORTUNE,print,fortune_p.png,,,,,,
,,,,30939,001,2025-10-16_11h16.43.320,HW_LDT_1,2024.2.4,MacIntel,64.1025641,,,,,,,,,,,,,,,,,,,,,,391.2813,391.4799,391.4799,391.9809,,,,,,,,,,,,,,0.641,1,,,,,,,,,,,,,,z,,,,,,,,,,,,,,,,69,1,391.9816,392.631,z,1,0.641,,[],[],[],[],[],[],[],392.6311,394.6309,394.631,396.547,[],[],[],[],[],[],[],m,396.547,396.5471,0.219183084,-0.260585088,0,0,0,,0,68,68,7,1,1,RL,delahe,print,delahe_p.png,1.9156,,,,,
,,,,30939,001,2025-10-16_11h16.43.320,HW_LDT_1,2024.2.4,MacIntel,64.1025641,,,,,,,,,,,,,,,,,,,,,,396.5485,396.7467,396.7467,397.2466,,,,,,,,,,,,,,1.4522,0,,,,,,,,,,,,,,m,,,,,,,,,,,,,,,,70,0,397.2473,398.7141,z,0,1.4522,,[],[],[],[],[],[],[],398.7142,400.7143,400.7143,400.7145,[],[],[],[],[],[],[],,400.7146,400.7147,0.219183084,-0.260585088,0,0,0,,0,69,69,140,1,1,word,RELATIVE,cursive,relative_c.png,,,,,,
,,,,30939,001,2025-10-16_11h16.43.320,HW_LDT_1,2024.2.4,MacIntel,64.1025641,,,,,,,,,,,,,,,,,,,,,,400.7162,400.9133,400.9133,401.4133,,,,,,,,,,,,,,1.1373,1,,,,,,,,,,,,,,m,,,,,,,,,,,,,,,,71,1,401.4137,402.5632,m,1,1.1373,,[],[],[],[],[],[],[],402.5634,404.5634,404.5634,405.5134,[],[],[],[],[],[],[],m,405.5135,405.5136,0.219183084,-0.260585088,0,0,0,,0,70,70,128,1,1,word,PACIFIC,print,pacific_p.png,0.9427,,,,,
,,,,30939,001,2025-10-16_11h16.43.320,HW_LDT_1,2024.2.4,MacIntel,64.1025641,,,,,,,,,,,,,,,,,,,,,,405.5148,405.7133,405.7133,406.2142,,,,,,,,,,,,,,0.9014,1,,,,,,,,,,,,,,z,,,,,,,,,,,,,,,,72,0,406.2147,407.131,z,1,0.9014,,[],[],[],[],[],[],[],407.131,409.1308,409.1309,409.1311,[],[],[],[],[],[],[],,409.1312,409.1313,0.219183084,-0.260585088,0,0,0,,0,71,71,3,1,1,RL,casena,cursive,casena_c.png,,,,,,
,,,,30939,001,2025-10-16_11h16.43.320,HW_LDT_1,2024.2.4,MacIntel,64.1025641,,,,,,,,,,,,,,,,,,,,,,409.1326,409.331,409.331,409.8309,,,,,,,,,,,,,,0.6815,1,,,,,,,,,,,,,,m,,,,,,,,,,,,,,,,73,0,409.8315,410.5136,m,1,0.6815,,[],[],[],[],[],[],[],410.5137,412.5142,412.5143,412.5144,[],[],[],[],[],[],[],,412.5146,412.5147,0.219183084,-0.260585088,0,0,0,,0,72,72,90,1,1,word,CAPITAL,print,capital_p.png,,,,,,
,,,,30939,001,2025-10-16_11h16.43.320,HW_LDT_1,2024.2.4,MacIntel,64.1025641,,,,,,,,,,,,,,,,,,,,,,412.5161,412.7143,412.7143,413.2144,,,,,,,,,,,,,,0.8143,1,,,,,,,,,,,,,,z,,,,,,,,,,,,,,,,74,1,413.2151,414.0301,z,1,0.8143,,[],[],[],[],[],[],[],414.0302,416.0309,416.031,417.4143,[],[],[],[],[],[],[],m,417.4144,417.4145,0.219183084,-0.260585088,0,0,0,,0,73,73,32,1,1,RL,rebicent,print,rebicent_p.png,1.3827,,,,,
,,,,30939,001,2025-10-16_11h16.43.320,HW_LDT_1,2024.2.4,MacIntel,64.1025641,,,,,,,,,,,,,,,,,,,,,,417.4157,417.6133,417.6133,418.1133,,,,,,,,,,,,,,1.436,1,,,,,,,,,,,,,,m,,,,,,,,,,,,,,,,75,0,418.1138,419.5637,m,1,1.436,,[],[],[],[],[],[],[],419.5638,421.5643,421.5644,421.5646,[],[],[],[],[],[],[],,421.5646,421.5648,0.219183084,-0.260585088,0,0,0,,0,74,74,118,1,1,word,MEDICINE,cursive,medicine_c.png,,,,,,
,,,,30939,001,2025-10-16_11h16.43.320,HW_LDT_1,2024.2.4,MacIntel,64.1025641,,,,,,,,,,,,,,,,,,,,,,421.5659,421.7633,421.7633,422.2633,,,,,,,,,,,,,,1.1154,1,,,,,,,,,,,,,,z,,,,,,,,,,,,,,,,76,0,422.2638,423.3809,z,1,1.1154,,[],[],[],[],[],[],[],423.381,425.3801,425.3801,425.3803,[],[],[],[],[],[],[],,425.3803,425.3803,0.219183084,-0.260585088,0,0,0,,0,75,75,35,1,1,RL,senvilent,cursive,senvilent_c.png,,,,,,
,,,,30939,001,2025-10-16_11h16.43.320,HW_LDT_1,2024.2.4,MacIntel,64.1025641,,,,,,,,,,,,,,,,,,,,,,425.3815,425.581,425.5811,426.08,,,,,,,,,,,,,,0.7371,1,,,,,,,,,,,,,,m,,,,,,,,,,,,,,,,77,0,426.0805,426.8307,m,1,0.7371,,[],[],[],[],[],[],[],426.8309,428.8299,428.8301,428.8303,[],[],[],[],[],[],[],,428.8304,428.8304,0.219183084,-0.260585088,0,0,0,,0,76,76,139,1,1,word,REGULAR,print,regular_p.png,,,,,,
,,,,30939,001,2025-10-16_11h16.43.320,HW_LDT_1,2024.2.4,MacIntel,64.1025641,,,,,,,,,,,,,,,,,,,,,,428.8315,429.0301,429.0302,429.531,,,,,,,,,,,,,,1.2317,1,,,,,,,,,,,,,,m,,,,,,,,,,,,,,,,78,1,429.5316,430.7643,m,1,1.2317,,[],[],[],[],[],[],[],430.7643,432.7642,432.7643,433.9311,[],[],[],[],[],[],[],z,433.9313,433.9314,0.219183084,-0.260585088,0,0,0,,0,77,77,147,1,1,word,ROMANTIC,cursive,romantic_c.png,1.1524,,,,,
,,,,30939,001,2025-10-16_11h16.43.320,HW_LDT_1,2024.2.4,MacIntel,64.1025641,,,,,,,,,,,,,,,,,,,,,,433.9328,434.131,434.131,434.6302,,,,,,,,,,,,,,2.2824,0,,,,,,,,,,,,,,z,,,,,,,,,,,,,,,,79,0,434.6306,436.9142,m,0,2.2824,,[],[],[],[],[],[],[],436.9143,438.9143,438.9143,438.9146,[],[],[],[],[],[],[],,438.9146,438.9147,0.219183084,-0.260585088,0,0,0,,0,78,78,73,1,1,TL,ronamtic,cursive,ronamtic_c.png,,,,,,
,,,,30939,001,2025-10-16_11h16.43.320,HW_LDT_1,2024.2.4,MacIntel,64.1025641,,,,,,,,,,,,,,,,,,,,,,438.9161,439.1143,439.1143,439.6133,,,,,,,,,,,,,,1.3375,1,,,,,,,,,,,,,,z,,,,,,,,,,,,,,,,80,1,439.6136,440.9636,z,1,1.3375,,[],[],[],[],[],[],[],440.9637,442.9644,442.9644,443.8143,[],[],[],[],[],[],[],z,443.8144,446.3469,0.219183084,-0.260585088,0,0,0,space,0,79,79,57,1,1,TL,hetirage,cursive,hetirage_c.png,0.8485,,2.5043,,,
,,,,30939,001,2025-10-16_11h16.43.320,HW_LDT_1,2024.2.4,MacIntel,64.1025641,,,,,,,,,,,,,,,,,,,,,,446.3481,446.5478,446.5479,447.0476,,,,,,,,,,,,,,1.0699,1,,,,,,,,,,,,,,z,,,,,,,,,,,,,,,,81,0,447.0483,448.1309,z,1,1.0699,,[],[],[],[],[],[],[],448.1311,450.131,450.131,450.1311,[],[],[],[],[],[],[],,450.1312,450.1313,0.219183084,-0.260585088,0,0,0,,0,80,80,52,1,1,TL,decilate,cursive,decilate_c.png,,,,,,
,,,,30939,001,2025-10-16_11h16.43.320,HW_LDT_1,2024.2.4,MacIntel,64.1025641,,,,,,,,,,,,,,,,,,,,,,450.1323,450.331,450.3311,450.83,,,,,,,,,,,,,,0.7534,1,,,,,,,,,,,,,,m,,,,,,,,,,,,,,,,82,0,450.8304,451.5978,m,1,0.7534,,[],[],[],[],[],[],[],451.5978,453.5977,453.5978,453.5979,[],[],[],[],[],[],[],,453.598,453.5981,0.219183084,-0.260585088,0,0,0,,0,81,81,127,1,1,word,ORIGINAL,cursive,original_c.png,,,,,,
,,,,30939,001,2025-10-16_11h16.43.320,HW_LDT_1,2024.2.4,MacIntel,64.1025641,,,,,,,,,,,,,,,,,,,,,,453.5993,453.7975,453.7976,454.2968,,,,,,,,,,,,,,1.804,1,,,,,,,,,,,,,,m,,,,,,,,,,,,,,,,83,1,454.2972,456.1135,m,1,1.804,,[],[],[],[],[],[],[],456.1135,458.1143,458.1144,459.2477,[],[],[],[],[],[],[],z,459.2478,459.2479,0.219183084,-0.260585088,0,0,0,,0,82,82,82,1,1,word,AMATEUR,print,amateur_p.png,1.1256,,,,,
,,,,30939,001,2025-10-16_11h16.43.320,HW_LDT_1,2024.2.4,MacIntel,64.1025641,,,,,,,,,,,,,,,,,,,,,,459.2491,459.4477,459.4477,459.9476,,,,,,,,,,,,,,1.1816,1,,,,,,,,,,,,,,m,,,,,,,,,,,,,,,,84,0,459.9481,461.1309,m,1,1.1816,,[],[],[],[],[],[],[],461.131,463.131,463.1311,463.1312,[],[],[],[],[],[],[],,463.1313,463.1314,0.219183084,-0.260585088,0,0,0,,0,83,83,80,1,1,word,ACADEMY,cursive,academy_c.png,,,,,,
,,,,30939,001,2025-10-16_11h16.43.320,HW_LDT_1,2024.2.4,MacIntel,64.1025641,,,,,,,,,,,,,,,,,,,,,,463.1329,463.331,463.331,463.831,,,,,,,,,,,,,,1.1193,1,,,,,,,,,,,,,,m,,,,,,,,,,,,,,,,85,0,463.8316,464.9635,m,1,1.1193,,[],[],[],[],[],[],[],464.9636,466.9634,466.9634,466.9635,[],[],[],[],[],[],[],,466.9636,466.9636,0.219183084,-0.260585088,0,0,0,,0,84,84,107,1,1,word,EVIDENT,print,evident_p.png,,,,,,
,,,,30939,001,2025-10-16_11h16.43.320,HW_LDT_1,2024.2.4,MacIntel,64.1025641,,,,,,,,,,,,,,,,,,,,,,466.9647,467.1644,467.1644,467.6634,,,,,,,,,,,,,,1.4193,0,,,,,,,,,,,,,,z,,,,,,,,,,,,,,,,86,1,467.6638,469.0977,m,0,1.4193,,[],[],[],[],[],[],[],469.0978,471.0976,471.0977,472.6468,[],[],[],[],[],[],[],m,472.6468,472.6469,0.219183084,-0.260585088,0,0,0,,0,85,85,72,1,1,TL,remuse,print,remuse_p.png,1.5407,,,,,
,,,,30939,001,2025-10-16_11h16.43.320,HW_LDT_1,2024.2.4,MacIntel,64.1025641,,,,,,,,,,,,,,,,,,,,,,472.6481,472.8467,472.8467,473.3476,,,,,,,,,,,,,,1.2482,0,,,,,,,,,,,,,,m,,,,,,,,,,,,,,,,87,0,473.3483,474.5977,z,0,1.2482,,[],[],[],[],[],[],[],474.5977,476.5968,476.5968,476.597,[],[],[],[],[],[],[],,476.597,476.5971,0.219183084,-0.260585088,0,0,0,,0,86,86,151,1,1,word,SPECIFIC,cursive,specific_c.png,,,,,,
,,,,30939,001,2025-10-16_11h16.43.320,HW_LDT_1,2024.2.4,MacIntel,64.1025641,,,,,,,,,,,,,,,,,,,,,,476.5984,476.7977,476.7977,477.2969,,,,,,,,,,,,,,1.0361,1,,,,,,,,,,,,,,z,,,,,,,,,,,,,,,,88,0,477.2973,478.3479,z,1,1.0361,,[],[],[],[],[],[],[],478.348,480.3474,480.3474,480.3475,[],[],[],[],[],[],[],,480.3476,480.3477,0.219183084,-0.260585088,0,0,0,,0,87,87,75,1,1,TL,speficic,cursive,speficic_c.png,,,,,,
,,,,30939,001,2025-10-16_11h16.43.320,HW_LDT_1,2024.2.4,MacIntel,64.1025641,,,,,,,,,,,,,,,,,,,,,,480.3489,480.5468,480.5468,481.0478,,,,,,,,,,,,,,1.7748,1,,,,,,,,,,,,,,z,,,,,,,,,,,,,,,,89,0,481.0484,482.8312,z,1,1.7748,,[],[],[],[],[],[],[],482.8313,484.8311,484.8311,484.8312,[],[],[],[],[],[],[],,484.8313,484.8314,0.219183084,-0.260585088,0,0,0,,0,88,88,77,1,1,TL,tritube,cursive,tritube_c.png,,,,,,
,,,,30939,001,2025-10-16_11h16.43.320,HW_LDT_1,2024.2.4,MacIntel,64.1025641,,,,,,,,,,,,,,,,,,,,,,484.8328,485.0301,485.0302,485.531,,,,,,,,,,,,,,0.9371,0,,,,,,,,,,,,,,m,,,,,,,,,,,,,,,,90,0,485.5316,486.481,z,0,0.9371,,[],[],[],[],[],[],[],486.4811,488.4801,488.4802,488.4804,[],[],[],[],[],[],[],,488.4804,488.4806,0.219183084,-0.260585088,0,0,0,,0,89,89,101,1,1,word,DELICATE,cursive,delicate_c.png,,,,,,
,,,,30939,001,2025-10-16_11h16.43.320,HW_LDT_1,2024.2.4,MacIntel,64.1025641,,,,,,,,,,,,,,,,,,,,,,488.4816,488.6801,488.6802,489.1802,,,,,,,,,,,,,,0.6492,0,,,,,,,,,,,,,,m,,,,,,,,,,,,,,,,91,0,489.1807,489.831,z,0,0.6492,,[],[],[],[],[],[],[],489.831,491.831,491.8312,491.8313,[],[],[],[],[],[],[],,491.8314,491.8315,0.219183084,-0.260585088,0,0,0,,0,90,90,116,1,1,word,MARGINAL,print,marginal_p.png,,,,,,
,,,,30939,001,2025-10-16_11h16.43.320,HW_LDT_1,2024.2.4,MacIntel,64.1025641,,,,,,,,,,,,,,,,,,,,,,491.8328,492.0302,492.0302,492.531,,,,,,,,,,,,,,0.7357,1,,,,,,,,,,,,,,m,,,,,,,,,,,,,,,,92,1,492.5314,493.2808,m,1,0.7357,,[],[],[],[],[],[],[],493.2808,495.2801,495.2801,496.0978,[],[],[],[],[],[],[],m,496.0978,496.0979,0.219183084,-0.260585088,0,0,0,,0,91,91,98,1,1,word,CRIMINAL,print,criminal_p.png,0.8168,,,,,
,,,,30939,001,2025-10-16_11h16.43.320,HW_LDT_1,2024.2.4,MacIntel,64.1025641,,,,,,,,,,,,,,,,,,,,,,496.0991,496.2977,496.2978,496.7978,,,,,,,,,,,,,,0.9642,1,,,,,,,,,,,,,,z,,,,,,,,,,,,,,,,93,0,496.7984,497.7644,z,1,0.9642,,[],[],[],[],[],[],[],497.7645,499.7636,499.7637,499.7637,[],[],[],[],[],[],[],,499.7638,499.7638,0.219183084,-0.260585088,0,0,0,,0,92,92,4,1,1,RL,carminal,print,carminal_p.png,,,,,,
,,,,30939,001,2025-10-16_11h16.43.320,HW_LDT_1,2024.2.4,MacIntel,64.1025641,,,,,,,,,,,,,,,,,,,,,,499.7649,499.9635,499.9636,500.4644,,,,,,,,,,,,,,1.786,1,,,,,,,,,,,,,,m,,,,,,,,,,,,,,,,94,0,500.465,502.2644,m,1,1.786,,[],[],[],[],[],[],[],502.2646,504.2644,504.2645,504.2647,[],[],[],[],[],[],[],,504.2648,504.2649,0.219183084,-0.260585088,0,0,0,,0,93,93,81,1,1,word,ADVISORY,cursive,advisory_c.png,,,,,,
,,,,30939,001,2025-10-16_11h16.43.320,HW_LDT_1,2024.2.4,MacIntel,64.1025641,,,,,,,,,,,,,,,,,,,,,,504.2662,504.4635,504.4635,504.9636,,,,,,,,,,,,,,0.6082,1,,,,,,,,,,,,,,z,,,,,,,,,,,,,,,,95,0,504.964,505.5811,z,1,0.6082,,[],[],[],[],[],[],[],505.5812,507.5808,507.5809,507.581,[],[],[],[],[],[],[],,507.581,507.5812,0.219183084,-0.260585088,0,0,0,,0,94,94,64,1,1,TL,orepator,cursive,orepator_c.png,,,,,,
,,,,30939,001,2025-10-16_11h16.43.320,HW_LDT_1,2024.2.4,MacIntel,64.1025641,,,,,,,,,,,,,,,,,,,,,,507.5823,507.7802,507.7803,508.2802,,,,,,,,,,,,,,1.0818,1,,,,,,,,,,,,,,m,,,,,,,,,,,,,,,,96,0,508.2808,509.3646,m,1,1.0818,,[],[],[],[],[],[],[],509.3647,511.3635,511.3636,511.3638,[],[],[],[],[],[],[],,511.3638,511.3639,0.219183084,-0.260585088,0,0,0,,0,95,95,93,1,1,word,CEREMONY,cursive,ceremony_c.png,,,,,,
,,,,30939,001,2025-10-16_11h16.43.320,HW_LDT_1,2024.2.4,MacIntel,64.1025641,,,,,,,,,,,,,,,,,,,,,,511.3648,511.5637,511.5638,512.0637,,,,,,,,,,,,,,0.6329,1,,,,,,,,,,,,,,z,,,,,,,,,,,,,,,,97,0,512.0641,512.698,z,1,0.6329,,[],[],[],[],[],[],[],512.6981,514.6979,514.698,514.6982,[],[],[],[],[],[],[],,514.6983,514.6984,0.219183084,-0.260585088,0,0,0,,0,96,96,14,1,1,RL,lofase,print,lofase_p.png,,,,,,
,,,,30939,001,2025-10-16_11h16.43.320,HW_LDT_1,2024.2.4,MacIntel,64.1025641,,,,,,,,,,,,,,,,,,,,,,514.6997,514.8978,514.8979,515.3979,,,,,,,,,,,,,,0.6694,1,,,,,,,,,,,,,,z,,,,,,,,,,,,,,,,98,0,515.3986,516.0812,z,1,0.6694,,[],[],[],[],[],[],[],516.0812,518.0801,518.0802,518.0803,[],[],[],[],[],[],[],,518.0803,518.0805,0.219183084,-0.260585088,0,0,0,,0,97,97,30,1,1,RL,relone,print,relone_p.png,,,,,,
,,,,30939,001,2025-10-16_11h16.43.320,HW_LDT_1,2024.2.4,MacIntel,64.1025641,,,,,,,,,,,,,,,,,,,,,,518.0816,518.2812,518.2813,518.7811,,,,,,,,,,,,,,0.8754,1,,,,,,,,,,,,,,z,,,,,,,,,,,,,,,,99,0,518.7816,519.6646,z,1,0.8754,,[],[],[],[],[],[],[],519.6647,521.6645,521.6645,521.6647,[],[],[],[],[],[],[],,521.6648,521.6649,0.219183084,-0.260585088,0,0,0,,0,98,98,59,1,1,TL,lirebal,cursive,lirebal_c.png,,,,,,
,,,,30939,001,2025-10-16_11h16.43.320,HW_LDT_1,2024.2.4,MacIntel,64.1025641,,,,,,,,,,,,,,,,,,,,,,521.6662,521.8644,521.8644,522.3644,,,,,,,,,,,,,,0.5979,1,,,,,,,,,,,,,,z,,,,,,,,,,,,,,,,100,0,522.3651,522.9643,z,1,0.5979,,[],[],[],[],[],[],[],522.9645,524.9644,524.9645,524.9647,[],[],[],[],[],[],[],,524.9647,524.9648,0.219183084,-0.260585088,0,0,0,,0,99,99,63,1,1,TL,molibe,cursive,molibe_c.png,,,,,,
,,,,30939,001,2025-10-16_11h16.43.320,HW_LDT_1,2024.2.4,MacIntel,64.1025641,,,,,,,,,,,,,,,,,,,,,,524.9661,525.1644,525.1645,525.6645,,,,,,,,,,,,,,0.6039,1,,,,,,,,,,,,,,m,,,,,,,,,,,,,,,,101,0,525.665,526.2813,m,1,0.6039,,[],[],[],[],[],[],[],526.2814,528.2812,528.2813,528.2815,[],[],[],[],[],[],[],,528.2816,528.2817,0.219183084,-0.260585088,0,0,0,,0,100,100,97,1,1,word,COVERAGE,print,coverage_p.png,,,,,,
,,,,30939,001,2025-10-16_11h16.43.320,HW_LDT_1,2024.2.4,MacIntel,64.1025641,,,,,,,,,,,,,,,,,,,,,,528.283,528.4812,528.4813,528.9812,,,,,,,,,,,,,,0.7743,0,,,,,,,,,,,,,,m,,,,,,,,,,,,,,,,102,0,528.9818,529.7645,z,0,0.7743,,[],[],[],[],[],[],[],529.7646,531.7647,531.7647,531.765,[],[],[],[],[],[],[],,531.765,531.7652,0.219183084,-0.260585088,0,0,0,,0,101,101,102,1,1,word,DENSITY,cursive,density_c.png,,,,,,
,,,,30939,001,2025-10-16_11h16.43.320,HW_LDT_1,2024.2.4,MacIntel,64.1025641,,,,,,,,,,,,,,,,,,,,,,531.7664,531.9645,531.9645,532.4645,,,,,,,,,,,,,,1.6696,0,,,,,,,,,,,,,,m,,,,,,,,,,,,,,,,103,0,532.4649,534.148,z,0,1.6696,,[],[],[],[],[],[],[],534.1481,536.1478,536.1478,536.1479,[],[],[],[],[],[],[],,536.148,536.1481,0.219183084,-0.260585088,0,0,0,,0,102,102,110,1,1,word,HERITAGE,cursive,heritage_c.png,,,,,,
,,,,30939,001,2025-10-16_11h16.43.320,HW_LDT_1,2024.2.4,MacIntel,64.1025641,,,,,,,,,,,,,,,,,,,,,,536.1493,536.3479,536.3479,536.8479,,,,,,,,,,,,,,1.0557,1,,,,,,,,,,,,,,m,,,,,,,,,,,,,,,,104,0,536.8487,537.9147,m,1,1.0557,,[],[],[],[],[],[],[],537.9148,539.9146,539.9147,539.9148,[],[],[],[],[],[],[],,539.9149,539.915,0.219183084,-0.260585088,0,0,0,,0,103,103,148,1,1,word,SALINE,print,saline_p.png,,,,,,
,,,,30939,001,2025-10-16_11h16.43.320,HW_LDT_1,2024.2.4,MacIntel,64.1025641,,,,,,,,,,,,,,,,,,,,,,539.9165,540.1146,540.1146,540.6137,,,,,,,,,,,,,,1.2479,1,,,,,,,,,,,,,,z,,,,,,,,,,,,,,,,105,1,540.6142,541.864,z,1,1.2479,,[],[],[],[],[],[],[],541.8641,543.8646,543.8646,544.6812,[],[],[],[],[],[],[],m,544.6813,544.6813,0.219183084,-0.260585088,0,0,0,,0,104,104,55,1,1,TL,fornute,print,fornute_p.png,0.8039,,,,,
,,,,30939,001,2025-10-16_11h16.43.320,HW_LDT_1,2024.2.4,MacIntel,64.1025641,,,,,,,,,,,,,,,,,,,,,,544.6824,544.8813,544.8813,545.3812,,,,,,,,,,,,,,0.992,1,,,,,,,,,,,,,,z,,,,,,,,,,,,,,,,106,1,545.3816,546.3813,z,1,0.992,,[],[],[],[],[],[],[],546.3813,548.3813,548.3814,549.6312,[],[],[],[],[],[],[],z,549.6313,549.6314,0.219183084,-0.260585088,0,0,0,,0,105,105,69,1,1,TL,radiply,cursive,radiply_c.png,1.2367,,,,,
,,,,30939,001,2025-10-16_11h16.43.320,HW_LDT_1,2024.2.4,MacIntel,64.1025641,,,,,,,,,,,,,,,,,,,,,,549.6326,549.8312,549.8313,550.3312,,,,,,,,,,,,,,0.8066,1,,,,,,,,,,,,,,z,,,,,,,,,,,,,,,,107,0,550.3317,551.1481,z,1,0.8066,,[],[],[],[],[],[],[],551.1482,553.1479,553.148,553.1482,[],[],[],[],[],[],[],,553.1483,553.1484,0.219183084,-0.260585088,0,0,0,,0,106,106,6,1,1,RL,crisival,print,crisival_p.png,,,,,,
,,,,30939,001,2025-10-16_11h16.43.320,HW_LDT_1,2024.2.4,MacIntel,64.1025641,,,,,,,,,,,,,,,,,,,,,,553.1498,553.3478,553.3479,553.8479,,,,,,,,,,,,,,0.7412,1,,,,,,,,,,,,,,m,,,,,,,,,,,,,,,,108,0,553.8484,554.5979,m,1,0.7412,,[],[],[],[],[],[],[],554.598,556.5978,556.5978,556.5979,[],[],[],[],[],[],[],,556.598,556.598,0.219183084,-0.260585088,0,0,0,,0,107,107,114,1,1,word,LOCATE,print,locate_p.png,,,,,,
,,,,30939,001,2025-10-16_11h16.43.320,HW_LDT_1,2024.2.4,MacIntel,64.1025641,,,,,,,,,,,,,,,,,,,,,,556.5992,556.7978,556.7978,557.2979,,,,,,,,,,,,,,0.9529,0,,,,,,,,,,,,,,m,,,,,,,,,,,,,,,,109,0,557.2983,558.2646,z,0,0.9529,,[],[],[],[],[],[],[],558.2646,560.2646,560.2646,560.2648,[],[],[],[],[],[],[],,560.2648,560.265,0.219183084,-0.260585088,0,0,0,,0,108,108,125,1,1,word,OPERATOR,cursive,operator_c.png,,,,,,
,,,,30939,001,2025-10-16_11h16.43.320,HW_LDT_1,2024.2.4,MacIntel,64.1025641,,,,,,,,,,,,,,,,,,,,,,560.2662,560.4646,560.4646,560.9645,,,,,,,,,,,,,,0.632,0,,,,,,,,,,,,,,m,,,,,,,,,,,,,,,,110,0,560.965,561.5979,z,0,0.632,,[],[],[],[],[],[],[],561.598,563.5979,563.598,563.5982,[],[],[],[],[],[],[],,563.5982,563.5982,0.219183084,-0.260585088,0,0,0,,0,109,109,122,1,1,word,MOBILE,cursive,mobile_c.png,,,,,,
,,,,30939,001,2025-10-16_11h16.43.320,HW_LDT_1,2024.2.4,MacIntel,64.1025641,,,,,,,,,,,,,,,,,,,,,,563.5993,563.7979,563.7979,564.298,,,,,,,,,,,,,,0.9488,1,,,,,,,,,,,,,,z,,,,,,,,,,,,,,,,111,0,564.2985,565.2479,z,1,0.9488,,[],[],[],[],[],[],[],565.2481,567.248,567.248,567.2481,[],[],[],[],[],[],[],,567.2482,567.2483,0.219183084,-0.260585088,0,0,0,,0,110,110,2,1,1,RL,asiral,print,asiral_p.png,,,,,,
,,,,30939,001,2025-10-16_11h16.43.320,HW_LDT_1,2024.2.4,MacIntel,64.1025641,,,,,,,,,,,,,,,,,,,,,,567.2497,567.4478,567.4479,567.948,,,,,,,,,,,,,,0.6362,0,,,,,,,,,,,,,,m,,,,,,,,,,,,,,,,112,0,567.9485,568.5981,z,0,0.6362,,[],[],[],[],[],[],[],568.5981,570.5979,570.5979,570.5982,[],[],[],[],[],[],[],,570.5982,570.5983,0.219183084,-0.260585088,0,0,0,,0,111,111,88,1,1,word,CAMERA,cursive,camera_c.png,,,,,,
,,,,30939,001,2025-10-16_11h16.43.320,HW_LDT_1,2024.2.4,MacIntel,64.1025641,,,,,,,,,,,,,,,,,,,,,,570.5997,570.7978,570.798,571.298,,,,,,,,,,,,,,0.7049,1,,,,,,,,,,,,,,m,,,,,,,,,,,,,,,,113,1,571.2985,572.0148,m,1,0.7049,,[],[],[],[],[],[],[],572.0149,574.0147,574.0147,574.8645,[],[],[],[],[],[],[],m,574.8646,574.8647,0.219183084,-0.260585088,0,0,0,,0,112,112,142,1,1,word,REMOTE,print,remote_p.png,0.849,,,,,
,,,,30939,001,2025-10-16_11h16.43.320,HW_LDT_1,2024.2.4,MacIntel,64.1025641,,,,,,,,,,,,,,,,,,,,,,574.866,575.0646,575.0646,575.5646,,,,,,,,,,,,,,1.4014,1,,,,,,,,,,,,,,z,,,,,,,,,,,,,,,,114,1,575.5653,576.9814,z,1,1.4014,,[],[],[],[],[],[],[],576.9815,578.9813,578.9813,579.7977,[],[],[],[],[],[],[],z,579.7977,579.7978,0.219183084,-0.260585088,0,0,0,,0,113,113,17,1,1,RL,menowy,cursive,menowy_c.png,0.8148,,,,,
,,,,30939,001,2025-10-16_11h16.43.320,HW_LDT_1,2024.2.4,MacIntel,64.1025641,,,,,,,,,,,,,,,,,,,,,,579.7986,579.998,579.998,580.4969,,,,,,,,,,,,,,2.3694,1,,,,,,,,,,,,,,z,,,,,,,,,,,,,,,,115,1,580.4973,582.8814,z,1,2.3694,,[],[],[],[],[],[],[],582.8814,584.8813,584.8814,589.3645,[],[],[],[],[],[],[],m,589.3646,589.3648,0.219183084,-0.260585088,0,0,0,,0,114,114,70,1,1,TL,relugar,print,relugar_p.png,4.4821,,,,,
,,,,30939,001,2025-10-16_11h16.43.320,HW_LDT_1,2024.2.4,MacIntel,64.1025641,,,,,,,,,,,,,,,,,,,,,,589.3658,589.5636,589.5636,590.0649,,,,,,,,,,,,,,1.0084,1,,,,,,,,,,,,,,z,,,,,,,,,,,,,,,,116,0,590.0654,591.0803,z,1,1.0084,,[],[],[],[],[],[],[],591.0804,593.0802,593.0803,593.0805,[],[],[],[],[],[],[],,593.0805,593.0806,0.219183084,-0.260585088,0,0,0,,0,115,115,39,1,1,RL,vabifity,cursive,vabifity_c.png,,,,,,
,,,,30939,001,2025-10-16_11h16.43.320,HW_LDT_1,2024.2.4,MacIntel,64.1025641,,,,,,,,,,,,,,,,,,,,,,593.0819,593.2802,593.2802,593.7813,,,,,,,,,,,,,,1.1419,1,,,,,,,,,,,,,,m,,,,,,,,,,,,,,,,117,0,593.7818,594.9304,m,1,1.1419,,[],[],[],[],[],[],[],594.9304,596.9312,596.9313,596.9315,[],[],[],[],[],[],[],,596.9315,596.9316,0.219183084,-0.260585088,0,0,0,,0,116,116,126,1,1,word,OPTIMAL,print,optimal_p.png,,,,,,
,,,,30939,001,2025-10-16_11h16.43.320,HW_LDT_1,2024.2.4,MacIntel,64.1025641,,,,,,,,,,,,,,,,,,,,,,596.9329,597.1312,597.1314,597.6313,,,,,,,,,,,,,,1.0363,1,,,,,,,,,,,,,,z,,,,,,,,,,,,,,,,118,0,597.6319,598.6814,z,1,1.0363,,[],[],[],[],[],[],[],598.6815,600.6814,600.6814,600.6816,[],[],[],[],[],[],[],,600.6817,600.6818,0.219183084,-0.260585088,0,0,0,,0,117,117,24,1,1,RL,probice,print,probice_p.png,,,,,,
,,,,30939,001,2025-10-16_11h16.43.320,HW_LDT_1,2024.2.4,MacIntel,64.1025641,,,,,,,,,,,,,,,,,,,,,,600.683,600.8812,600.8813,601.3802,,,,,,,,,,,,,,1.0363,1,,,,,,,,,,,,,,z,,,,,,,,,,,,,,,,119,0,601.3807,602.4304,z,1,1.0363,,[],[],[],[],[],[],[],602.4305,604.4307,604.4307,604.4309,[],[],[],[],[],[],[],,604.431,604.4311,0.219183084,-0.260585088,0,0,0,,0,118,118,44,1,1,TL,cateferia,cursive,cateferia_c.png,,,,,,
,,,,30939,001,2025-10-16_11h16.43.320,HW_LDT_1,2024.2.4,MacIntel,64.1025641,,,,,,,,,,,,,,,,,,,,,,604.4322,604.6303,604.6305,605.1303,,,,,,,,,,,,,,0.7205,1,,,,,,,,,,,,,,z,,,,,,,,,,,,,,,,120,0,605.1308,605.8647,z,1,0.7205,,[],[],[],[],[],[],[],605.8647,607.8636,607.8637,607.8639,[],[],[],[],[],[],[],,607.8639,607.864,0.219183084,-0.260585088,0,0,0,,0,119,119,53,1,1,TL,dentisy,cursive,dentisy_c.png,,,,,,
,,,,30939,001,2025-10-16_11h16.43.320,HW_LDT_1,2024.2.4,MacIntel,64.1025641,,,,,,,,,,,,,,,,,,,,,,607.8649,608.0646,608.0647,608.5647,,,,,,,,,,,,,,1.4586,1,,,,,,,,,,,,,,z,,,,,,,,,,,,,,,,121,0,608.5653,610.0312,z,1,1.4586,,[],[],[],[],[],[],[],610.0313,612.0304,612.0304,612.0306,[],[],[],[],[],[],[],,612.0306,612.0307,0.219183084,-0.260585088,0,0,0,,0,120,120,56,1,1,TL,grafetul,print,grafetul_p.png,,,,,,
,,,,30939,001,2025-10-16_11h16.43.320,HW_LDT_1,2024.2.4,MacIntel,64.1025641,,,,,,,,,,,,,,,,,,,,,,612.0316,612.231,612.2311,612.7305,,,,,,,,,,,,,,1.0363,1,,,,,,,,,,,,,,m,,,,,,,,,,,,,,,,122,1,612.7309,613.7815,m,1,1.0363,,[],[],[],[],[],[],[],613.7816,615.7814,615.7815,616.5313,[],[],[],[],[],[],[],m,616.5313,616.5316,0.219183084,-0.260585088,0,0,0,,0,121,121,99,1,1,word,DEBATE,print,debate_p.png,0.7485,,,,,
,,,,30939,001,2025-10-16_11h16.43.320,HW_LDT_1,2024.2.4,MacIntel,64.1025641,,,,,,,,,,,,,,,,,,,,,,616.5327,616.7313,616.7313,617.2303,,,,,,,,,,,,,,1.0723,1,,,,,,,,,,,,,,m,,,,,,,,,,,,,,,,123,0,617.2308,618.3148,m,1,1.0723,,[],[],[],[],[],[],[],618.315,620.3138,620.3138,620.3139,[],[],[],[],[],[],[],,620.314,620.3141,0.219183084,-0.260585088,0,0,0,,0,122,122,138,1,1,word,REFUSAL,print,refusal_p.png,,,,,,
,,,,30939,001,2025-10-16_11h16.43.320,HW_LDT_1,2024.2.4,MacIntel,64.1025641,,,,,,,,,,,,,,,,,,,,,,620.3151,620.5147,620.5147,621.0147,,,,,,,,,,,,,,0.7743,1,,,,,,,,,,,,,,z,,,,,,,,,,,,,,,,124,0,621.0153,621.7982,z,1,0.7743,,[],[],[],[],[],[],[],621.7982,623.7981,623.7981,623.7983,[],[],[],[],[],[],[],,623.7983,623.7985,0.219183084,-0.260585088,0,0,0,,0,123,123,10,1,1,RL,efibor,cursive,efibor_c.png,,,,,,
,,,,30939,001,2025-10-16_11h16.43.320,HW_LDT_1,2024.2.4,MacIntel,64.1025641,,,,,,,,,,,,,,,,,,,,,,623.7997,623.9969,623.997,624.498,,,,,,,,,,,,,,1.0563,1,,,,,,,,,,,,,,z,,,,,,,,,,,,,,,,125,0,624.4985,625.5648,z,1,1.0563,,[],[],[],[],[],[],[],625.5649,627.5646,627.5647,627.5648,[],[],[],[],[],[],[],,627.5649,627.5649,0.219183084,-0.260585088,0,0,0,,0,124,124,49,1,1,TL,clicinal,cursive,clicinal_c.png,,,,,,
,,,,30939,001,2025-10-16_11h16.43.320,HW_LDT_1,2024.2.4,MacIntel,64.1025641,,,,,,,,,,,,,,,,,,,,,,627.5663,627.7647,627.7649,628.2636,,,,,,,,,,,,,,1.0874,1,,,,,,,,,,,,,,m,,,,,,,,,,,,,,,,126,0,628.2642,629.3648,m,1,1.0874,,[],[],[],[],[],[],[],629.3648,631.3637,631.3638,631.364,[],[],[],[],[],[],[],,631.364,631.3641,0.219183084,-0.260585088,0,0,0,,0,125,125,143,1,1,word,REMOVAL,cursive,removal_c.png,,,,,,
,,,,30939,001,2025-10-16_11h16.43.320,HW_LDT_1,2024.2.4,MacIntel,64.1025641,,,,,,,,,,,,,,,,,,,,,,631.3653,631.5636,631.5637,632.0646,,,,,,,,,,,,,,1.1656,1,,,,,,,,,,,,,,m,,,,,,,,,,,,,,,,127,0,632.0652,633.2318,m,1,1.1656,,[],[],[],[],[],[],[],633.2319,635.2314,635.2315,635.2317,[],[],[],[],[],[],[],,635.2317,635.2318,0.219183084,-0.260585088,0,0,0,,0,126,126,89,1,1,word,CAPACITY,print,capacity_p.png,,,,,,
,,,,30939,001,2025-10-16_11h16.43.320,HW_LDT_1,2024.2.4,MacIntel,64.1025641,,,,,,,,,,,,,,,,,,,,,,635.2332,635.4313,635.4313,635.9315,,,,,,,,,,,,,,0.9484,1,,,,,,,,,,,,,,m,,,,,,,,,,,,,,,,128,0,635.9321,636.8814,m,1,0.9484,,[],[],[],[],[],[],[],636.8814,638.8815,638.8816,638.8817,[],[],[],[],[],[],[],,638.8818,638.882,0.219183084,-0.260585088,0,0,0,,0,127,127,131,1,1,word,POPULAR,cursive,popular_c.png,,,,,,
,,,,30939,001,2025-10-16_11h16.43.320,HW_LDT_1,2024.2.4,MacIntel,64.1025641,,,,,,,,,,,,,,,,,,,,,,638.8832,639.0815,639.0815,639.5814,,,,,,,,,,,,,,1.0868,1,,,,,,,,,,,,,,m,,,,,,,,,,,,,,,,129,0,639.5819,640.6815,m,1,1.0868,,[],[],[],[],[],[],[],640.6816,642.6807,642.6807,642.6809,[],[],[],[],[],[],[],,642.6809,642.681,0.219183084,-0.260585088,0,0,0,,0,128,128,91,1,1,word,CARDINAL,print,cardinal_p.png,,,,,,
,,,,30939,001,2025-10-16_11h16.43.320,HW_LDT_1,2024.2.4,MacIntel,64.1025641,,,,,,,,,,,,,,,,,,,,,,642.6821,642.8814,642.8814,643.3804,,,,,,,,,,,,,,1.1492,1,,,,,,,,,,,,,,z,,,,,,,,,,,,,,,,130,0,643.3809,644.5314,z,1,1.1492,,[],[],[],[],[],[],[],644.5315,646.5305,646.5305,646.5307,[],[],[],[],[],[],[],,646.5307,646.5308,0.219183084,-0.260585088,0,0,0,,0,129,129,58,1,1,TL,incidate,cursive,incidate_c.png,,,,,,
,,,,30939,001,2025-10-16_11h16.43.320,HW_LDT_1,2024.2.4,MacIntel,64.1025641,,,,,,,,,,,,,,,,,,,,,,646.5322,646.7309,646.731,647.2314,,,,,,,,,,,,,,1.1479,1,,,,,,,,,,,,,,z,,,,,,,,,,,,,,,,131,0,647.232,648.3814,z,1,1.1479,,[],[],[],[],[],[],[],648.3814,650.3814,650.3814,650.3816,[],[],[],[],[],[],[],,650.3817,650.3818,0.219183084,-0.260585088,0,0,0,,0,130,130,13,1,1,RL,linefal,print,linefal_p.png,,,,,,
,,,,30939,001,2025-10-16_11h16.43.320,HW_LDT_1,2024.2.4,MacIntel,64.1025641,,,,,,,,,,,,,,,,,,,,,,650.3831,650.5804,650.5805,651.0812,,,,,,,,,,,,,,1.2147,1,,,,,,,,,,,,,,m,,,,,,,,,,,,,,,,132,0,651.0817,652.298,m,1,1.2147,,[],[],[],[],[],[],[],652.2981,654.2981,654.2981,654.2983,[],[],[],[],[],[],[],,654.2983,654.2985,0.219183084,-0.260585088,0,0,0,,0,131,131,158,1,1,word,VELOCITY,print,velocity_p.png,,,,,,
,,,,30939,001,2025-10-16_11h16.43.320,HW_LDT_1,2024.2.4,MacIntel,64.1025641,,,,,,,,,,,,,,,,,,,,,,654.2998,654.4971,654.4972,654.9981,,,,,,,,,,,,,,0.9584,0,,,,,,,,,,,,,,z,,,,,,,,,,,,,,,,133,0,654.9988,655.9648,m,0,0.9584,,[],[],[],[],[],[],[],655.965,657.9648,657.9648,657.965,[],[],[],[],[],[],[],,657.965,657.9651,0.219183084,-0.260585088,0,0,0,,0,132,132,46,1,1,TL,catipal,print,catipal_p.png,,,,,,
,,,,30939,001,2025-10-16_11h16.43.320,HW_LDT_1,2024.2.4,MacIntel,64.1025641,,,,,,,,,,,,,,,,,,,,,,657.9665,658.1638,658.1639,658.6638,,,,,,,,,,,,,,1.0702,1,,,,,,,,,,,,,,z,,,,,,,,,,,,,,,,134,0,658.6642,659.7481,z,1,1.0702,,[],[],[],[],[],[],[],659.7482,661.7481,661.7482,661.7484,[],[],[],[],[],[],[],,661.7485,661.7486,0.219183084,-0.260585088,0,0,0,,0,133,133,71,1,1,TL,regilion,cursive,regilion_c.png,,,,,,
,,,,30939,001,2025-10-16_11h16.43.320,HW_LDT_1,2024.2.4,MacIntel,64.1025641,,,,,,,,,,,,,,,,,,,,,,661.7499,661.9481,661.9481,662.4481,,,,,,,,,,,,,,0.9477,1,,,,,,,,,,,,,,m,,,,,,,,,,,,,,,,135,0,662.4488,663.398,m,1,0.9477,,[],[],[],[],[],[],[],663.3981,665.3981,665.3982,665.3983,[],[],[],[],[],[],[],,665.3984,665.3985,0.219183084,-0.260585088,0,0,0,,0,134,134,92,1,1,word,CATEGORY,print,category_p.png,,,,,,
,,,,30939,001,2025-10-16_11h16.43.320,HW_LDT_1,2024.2.4,MacIntel,64.1025641,,,,,,,,,,,,,,,,,,,,,,665.3998,665.5983,665.5983,666.0981,,,,,,,,,,,,,,0.9476,1,,,,,,,,,,,,,,m,,,,,,,,,,,,,,,,136,0,666.0986,667.048,m,1,0.9476,,[],[],[],[],[],[],[],667.0482,669.0481,669.0481,669.0483,[],[],[],[],[],[],[],,669.0483,669.0484,0.219183084,-0.260585088,0,0,0,,0,135,135,145,1,1,word,RESUME,print,resume_p.png,,,,,,
,,,,30939,001,2025-10-16_11h16.43.320,HW_LDT_1,2024.2.4,MacIntel,64.1025641,,,,,,,,,,,,,,,,,,,,,,669.0497,669.2481,669.2481,669.7481,,,,,,,,,,,,,,1.1155,0,,,,,,,,,,,,,,z,,,,,,,,,,,,,,,,137,1,669.7487,670.865,m,0,1.1155,,[],[],[],[],[],[],[],670.8651,672.8649,672.865,673.6149,[],[],[],[],[],[],[],z,673.6149,673.6151,0.219183084,-0.260585088,0,0,0,,0,136,136,48,1,1,TL,cemerony,cursive,cemerony_c.png,0.7356,,,,,
,,,,30939,001,2025-10-16_11h16.43.320,HW_LDT_1,2024.2.4,MacIntel,64.1025641,,,,,,,,,,,,,,,,,,,,,,673.6164,673.8148,673.8148,674.3148,,,,,,,,,,,,,,1.2849,1,,,,,,,,,,,,,,m,,,,,,,,,,,,,,,,138,0,674.3155,675.6147,m,1,1.2849,,[],[],[],[],[],[],[],675.6147,677.6148,677.6148,677.615,[],[],[],[],[],[],[],,677.6151,677.6151,0.219183084,-0.260585088,0,0,0,,0,137,137,153,1,1,word,STOLEN,print,stolen_p.png,,,,,,
,,,,30939,001,2025-10-16_11h16.43.320,HW_LDT_1,2024.2.4,MacIntel,64.1025641,,,,,,,,,,,,,,,,,,,,,,677.6163,677.8139,677.8139,678.3148,,,,,,,,,,,,,,1.1198,1,,,,,,,,,,,,,,z,,,,,,,,,,,,,,,,139,1,678.3154,679.4471,z,1,1.1198,,[],[],[],[],[],[],[],679.4472,681.4481,681.4482,682.0482,[],[],[],[],[],[],[],z,682.0483,682.0484,0.219183084,-0.260585088,0,0,0,,0,138,138,0,1,1,RL,abanemy,cursive,abanemy_c.png,0.5909,,,,,
,,,,30939,001,2025-10-16_11h16.43.320,HW_LDT_1,2024.2.4,MacIntel,64.1025641,,,,,,,,,,,,,,,,,,,,,,682.0496,682.2481,682.2481,682.7481,,,,,,,,,,,,,,0.9482,1,,,,,,,,,,,,,,z,,,,,,,,,,,,,,,,140,0,682.7487,683.6981,z,1,0.9482,,[],[],[],[],[],[],[],683.6981,685.6983,685.6983,685.6986,[],[],[],[],[],[],[],,685.6987,685.6988,0.219183084,-0.260585088,0,0,0,,0,139,139,5,1,1,RL,cobeny,cursive,cobeny_c.png,,,,,,
,,,,30939,001,2025-10-16_11h16.43.320,HW_LDT_1,2024.2.4,MacIntel,64.1025641,,,,,,,,,,,,,,,,,,,,,,685.7001,685.8981,685.8981,686.3981,,,,,,,,,,,,,,1.1643,1,,,,,,,,,,,,,,m,,,,,,,,,,,,,,,,141,0,686.3987,687.5648,m,1,1.1643,,[],[],[],[],[],[],[],687.5648,689.5648,689.5649,689.5651,[],[],[],[],[],[],[],,689.5653,689.5654,0.219183084,-0.260585088,0,0,0,,0,140,140,129,1,1,word,PARENT,cursive,parent_c.png,,,,,,
,,,,30939,001,2025-10-16_11h16.43.320,HW_LDT_1,2024.2.4,MacIntel,64.1025641,,,,,,,,,,,,,,,,,,,,,,689.5667,689.7638,689.7638,690.2649,,,,,,,,,,,,,,0.6484,1,,,,,,,,,,,,,,m,,,,,,,,,,,,,,,,142,0,690.2655,690.9148,m,1,0.6484,,[],[],[],[],[],[],[],690.9149,692.9148,692.9149,692.915,[],[],[],[],[],[],[],,692.915,692.9151,0.219183084,-0.260585088,0,0,0,,0,141,141,133,1,1,word,PROVIDE,print,provide_p.png,,,,,,
,,,,30939,001,2025-10-16_11h16.43.320,HW_LDT_1,2024.2.4,MacIntel,64.1025641,,,,,,,,,,,,,,,,,,,,,,692.9164,693.1148,693.1149,693.6139,,,,,,,,,,,,,,1.2405,1,,,,,,,,,,,,,,z,,,,,,,,,,,,,,,,143,0,693.6143,694.865,z,1,1.2405,,[],[],[],[],[],[],[],694.8651,696.8649,696.8649,696.8651,[],[],[],[],[],[],[],,696.8651,696.8653,0.219183084,-0.260585088,0,0,0,,0,142,142,37,1,1,RL,skofen,print,skofen_p.png,,,,,,
,,,,30939,001,2025-10-16_11h16.43.320,HW_LDT_1,2024.2.4,MacIntel,64.1025641,,,,,,,,,,,,,,,,,,,,,,696.8665,697.0638,697.0638,697.5649,,,,,,,,,,,,,,1.5569,1,,,,,,,,,,,,,,z,,,,,,,,,,,,,,,,144,0,697.5654,699.1317,z,1,1.5569,,[],[],[],[],[],[],[],699.1317,701.1316,701.1316,701.1319,[],[],[],[],[],[],[],,701.132,701.1321,0.219183084,-0.260585088,0,0,0,,0,143,143,60,1,1,TL,manire,print,manire_p.png,,,,,,
,,,,30939,001,2025-10-16_11h16.43.320,HW_LDT_1,2024.2.4,MacIntel,64.1025641,,,,,,,,,,,,,,,,,,,,,,701.1335,701.3315,701.3315,701.8313,,,,,,,,,,,,,,0.8141,1,,,,,,,,,,,,,,z,,,,,,,,,,,,,,,,145,0,701.8317,702.6475,z,1,0.8141,,[],[],[],[],[],[],[],702.6476,704.6482,704.6482,704.6484,[],[],[],[],[],[],[],,704.6484,704.6486,0.219183084,-0.260585088,0,0,0,,0,144,144,20,1,1,RL,nunewical,print,nunewical_p.png,,,,,,
,,,,30939,001,2025-10-16_11h16.43.320,HW_LDT_1,2024.2.4,MacIntel,64.1025641,,,,,,,,,,,,,,,,,,,,,,704.6499,704.8472,704.8472,705.3482,,,,,,,,,,,,,,0.7856,0,,,,,,,,,,,,,,m,,,,,,,,,,,,,,,,146,0,705.3487,706.1469,z,0,0.7856,,[],[],[],[],[],[],[],706.1469,708.1472,708.1472,708.1473,[],[],[],[],[],[],[],,708.1474,708.1475,0.219183084,-0.260585088,0,0,0,,0,145,145,130,1,1,word,POLICY,cursive,policy_c.png,,,,,,
,,,,30939,001,2025-10-16_11h16.43.320,HW_LDT_1,2024.2.4,MacIntel,64.1025641,,,,,,,,,,,,,,,,,,,,,,708.1483,708.3472,708.3473,708.8482,,,,,,,,,,,,,,0.591,1,,,,,,,,,,,,,,z,,,,,,,,,,,,,,,,147,0,708.8486,709.4472,z,1,0.591,,[],[],[],[],[],[],[],709.4473,711.4483,711.4483,711.4485,[],[],[],[],[],[],[],,711.4486,711.4487,0.219183084,-0.260585088,0,0,0,,0,146,146,23,1,1,RL,potugar,cursive,potugar_c.png,,,,,,
,,,,30939,001,2025-10-16_11h16.43.320,HW_LDT_1,2024.2.4,MacIntel,64.1025641,,,,,,,,,,,,,,,,,,,,,,711.4501,711.6473,711.6473,712.1472,,,,,,,,,,,,,,0.999,1,,,,,,,,,,,,,,z,,,,,,,,,,,,,,,,148,0,712.1477,713.1482,z,1,0.999,,[],[],[],[],[],[],[],713.1482,715.1483,715.1483,715.1485,[],[],[],[],[],[],[],,715.1485,715.1487,0.219183084,-0.260585088,0,0,0,,0,147,147,50,1,1,TL,condiser,cursive,condiser_c.png,,,,,,
,,,,30939,001,2025-10-16_11h16.43.320,HW_LDT_1,2024.2.4,MacIntel,64.1025641,,,,,,,,,,,,,,,,,,,,,,715.1501,715.3482,715.3482,715.8482,,,,,,,,,,,,,,0.809,1,,,,,,,,,,,,,,m,,,,,,,,,,,,,,,,149,0,715.8487,716.664,m,1,0.809,,[],[],[],[],[],[],[],716.6641,718.6649,718.6649,718.6651,[],[],[],[],[],[],[],,718.6651,718.6653,0.219183084,-0.260585088,0,0,0,,0,148,148,109,1,1,word,GRATEFUL,print,grateful_p.png,,,,,,
,,,,30939,001,2025-10-16_11h16.43.320,HW_LDT_1,2024.2.4,MacIntel,64.1025641,,,,,,,,,,,,,,,,,,,,,,718.6666,718.8649,718.865,719.3648,,,,,,,,,,,,,,0.9981,1,,,,,,,,,,,,,,m,,,,,,,,,,,,,,,,150,0,719.3654,720.365,m,1,0.9981,,[],[],[],[],[],[],[],720.3651,722.3649,722.3649,722.3651,[],[],[],[],[],[],[],,722.3652,722.3653,0.219183084,-0.260585088,0,0,0,,0,149,149,112,1,1,word,LIBERAL,cursive,liberal_c.png,,,,,,
,,,,30939,001,2025-10-16_11h16.43.320,HW_LDT_1,2024.2.4,MacIntel,64.1025641,,,,,,,,,,,,,,,,,,,,,,722.3666,722.5649,722.5649,723.0648,,,,,,,,,,,,,,1.507,0,,,,,,,,,,,,,,m,,,,,,,,,,,,,,,,151,0,723.0655,724.5808,z,0,1.507,,[],[],[],[],[],[],[],724.5809,726.5805,726.5806,726.5806,[],[],[],[],[],[],[],,726.5807,726.5808,0.219183084,-0.260585088,0,0,0,,0,150,150,134,1,1,word,QUALIFY,cursive,qualify_c.png,,,,,,
,,,,30939,001,2025-10-16_11h16.43.320,HW_LDT_1,2024.2.4,MacIntel,64.1025641,,,,,,,,,,,,,,,,,,,,,,726.5821,726.7805,726.7806,727.2816,,,,,,,,,,,,,,1.1157,1,,,,,,,,,,,,,,z,,,,,,,,,,,,,,,,152,0,727.2822,728.3985,z,1,1.1157,,[],[],[],[],[],[],[],728.3987,730.3982,730.3982,730.3985,[],[],[],[],[],[],[],,730.3985,730.3987,0.219183084,-0.260585088,0,0,0,,0,151,151,28,1,1,RL,renutal,print,renutal_p.png,,,,,,
,,,,30939,001,2025-10-16_11h16.43.320,HW_LDT_1,2024.2.4,MacIntel,64.1025641,,,,,,,,,,,,,,,,,,,,,,730.3999,730.5973,730.5973,731.0982,,,,,,,,,,,,,,1.3983,1,,,,,,,,,,,,,,m,,,,,,,,,,,,,,,,153,0,731.0989,732.4982,m,1,1.3983,,[],[],[],[],[],[],[],732.4983,734.4982,734.4983,734.4985,[],[],[],[],[],[],[],,734.4986,734.4987,0.219183084,-0.260585088,0,0,0,,0,152,152,135,1,1,word,QUALITY,cursive,quality_c.png,,,,,,
,,,,30939,001,2025-10-16_11h16.43.320,HW_LDT_1,2024.2.4,MacIntel,64.1025641,,,,,,,,,,,,,,,,,,,,,,734.5,734.6982,734.6983,735.1982,,,,,,,,,,,,,,0.931,1,,,,,,,,,,,,,,z,,,,,,,,,,,,,,,,154,0,735.1989,736.1316,z,1,0.931,,[],[],[],[],[],[],[],736.1317,738.1315,738.1316,738.1318,[],[],[],[],[],[],[],,738.1319,738.132,0.219183084,-0.260585088,0,0,0,,0,153,153,16,1,1,RL,marmipal,print,marmipal_p.png,,,,,,
,,,,30939,001,2025-10-16_11h16.43.320,HW_LDT_1,2024.2.4,MacIntel,64.1025641,,,,,,,,,,,,,,,,,,,,,,738.1333,738.3315,738.3316,738.8312,,,,,,,,,,,,,,1.971,1,,,,,,,,,,,,,,z,,,,,,,,,,,,,,,,155,0,738.8317,740.8141,z,1,1.971,,[],[],[],[],[],[],[],740.8141,742.8149,742.815,742.8152,[],[],[],[],[],[],[],,742.8152,742.8154,0.219183084,-0.260585088,0,0,0,,0,154,154,40,1,1,TL,atameur,print,atameur_p.png,,,,,,
,,,,30939,001,2025-10-16_11h16.43.320,HW_LDT_1,2024.2.4,MacIntel,64.1025641,,,,,,,,,,,,,,,,,,,,,,742.8167,743.015,743.015,743.5149,,,,,,,,,,,,,,1.2694,1,,,,,,,,,,,,,,m,,,,,,,,,,,,,,,,156,0,743.5153,744.7984,m,1,1.2694,,[],[],[],[],[],[],[],744.7985,746.7983,746.7984,746.7986,[],[],[],[],[],[],[],,746.7987,746.7988,0.219183084,-0.260585088,0,0,0,,0,155,155,86,1,1,word,BESIDE,print,beside_p.png,,,,,,
,,,,30939,001,2025-10-16_11h16.43.320,HW_LDT_1,2024.2.4,MacIntel,64.1025641,,,,,,,,,,,,,,,,,,,,,,746.8001,746.9983,746.9983,747.4982,,,,,,,,,,,,,,0.6483,1,,,,,,,,,,,,,,z,,,,,,,,,,,,,,,,157,0,747.4989,748.1481,z,1,0.6483,,[],[],[],[],[],[],[],748.1482,750.1472,750.1473,750.1475,[],[],[],[],[],[],[],,750.1475,750.1476,0.219183084,-0.260585088,0,0,0,,0,156,156,12,1,1,RL,ebiwent,print,ebiwent_p.png,,,,,,
,,,,30939,001,2025-10-16_11h16.43.320,HW_LDT_1,2024.2.4,MacIntel,64.1025641,,,,,,,,,,,,,,,,,,,,,,750.1486,750.3484,750.3484,750.8483,,,,,,,,,,,,,,1.5653,1,,,,,,,,,,,,,,z,,,,,,,,,,,,,,,,158,0,750.849,752.4148,z,1,1.5653,,[],[],[],[],[],[],[],752.4149,754.414,754.4141,754.4143,[],[],[],[],[],[],[],,754.4143,754.4143,0.219183084,-0.260585088,0,0,0,,0,157,157,47,1,1,TL,cagetory,print,cagetory_p.png,,,,,,
,,,,30939,001,2025-10-16_11h16.43.320,HW_LDT_1,2024.2.4,MacIntel,64.1025641,,,,,,,,,,,,,,,,,,,,,,754.4154,754.6149,754.6149,755.114,,,,,,,,,,,,,,0.9161,1,,,,,,,,,,,,,,z,,,,,,,,,,,,,,,,159,0,755.1145,756.0316,z,1,0.9161,,[],[],[],[],[],[],[],756.0317,758.0307,758.0307,758.0308,[],[],[],[],[],[],[],,758.0309,758.0311,0.219183084,-0.260585088,0,0,0,,0,158,158,9,1,1,RL,docirant,cursive,docirant_c.png,,,,,,
,,,,30939,001,2025-10-16_11h16.43.320,HW_LDT_1,2024.2.4,MacIntel,64.1025641,,,,,,,,,,,,,,,,,,,,,,758.032,758.2308,758.2309,758.7313,,,,,,,,,,,,,,1.6652,1,,,,,,,,,,,,,,z,,,,,,,,,,,,,,,,160,0,758.732,760.3984,z,1,1.6652,,[],[],[],[],[],[],[],760.3984,762.3973,762.3974,762.3975,[],[],[],[],[],[],[],,762.3975,762.3975,0.219183084,-0.260585088,0,0,0,,0,159,159,19,1,1,RL,monebate,print,monebate_p.png,,,,,,
,,,,30939,001,2025-10-16_11h16.43.320,HW_LDT_1,2024.2.4,MacIntel,64.1025641,,,,,,,,,,,,,,,,,,,,,,,,,,,,,,,,,,,,,,,,,,,,,,,,,,,,,,,,,,,,,,,,,,,,,,,,,,,,,,,,,,,,,,,,,,,,,,,,,,,,,,,,,,,,,,,,,,,,,,,762.414,767.3986
