counterbalance_lists.group,counterbalance_lists.remaining,get_list.started,get_list.stopped,participant,session,date,expName,psychopyVersion,OS,frameRate,Instructions.started,Instructions.stopped,key_resp.keys,instr_done_touch.x,instr_done_touch.y,instr_done_touch.leftButton,instr_done_touch.midButton,instr_done_touch.rightButton,instr_done_touch.clicked_name,start_instr.thisRepN,start_instr.thisTrialN,start_instr.thisN,start_instr.thisIndex,start_instr.ran,pageN,phase,instruct_text,has_image,instruct_image,key_resp.rt,key_resp.duration,showProgress.started,showProgress.stopped,fix.started,fix.stopped,prac.started,prac.stopped,response.keys,response.corr,response.rt,response.duration,touch_resp.x,touch_resp.y,touch_resp.leftButton,touch_resp.midButton,touch_resp.rightButton,touch_resp.time,touch_resp.clicked_name,rt,corr,feedback.started,feedback.stopped,trials.thisRepN,trials.thisTrialN,trials.thisN,trials.thisIndex,trials.ran,TrialID,StimulusType,Condition,PrimeDuration,Prime,Target,corrAns,Instructions_expt.started,Instructions_expt.stopped,key_resp_3.keys,key_resp_3.rt,key_resp_3.duration,instr_done_touch_3.x,instr_done_touch_3.y,instr_done_touch_3.leftButton,instr_done_touch_3.midButton,instr_done_touch_3.rightButton,instr_experiment.thisRepN,instr_experiment.thisTrialN,instr_experiment.thisN,instr_experiment.thisIndex,instr_experiment.ran,trialID,flag,maintask.started,maintask.stopped,key_resp_2.keys,key_resp_2.corr,key_resp_2.rt,key_resp_2.duration,targ_click.x,targ_click.y,targ_click.leftButton,targ_click.midButton,targ_click.rightButton,targ_click.time,targ_click.clicked_name,ITI.started,ITI.stopped,probe.started,probe.stopped,click_probe.x,click_probe.y,click_probe.leftButton,click_probe.midButton,click_probe.rightButton,click_probe.time,click_probe.clicked_name,key_resp_probe.keys,key_resp_probe.rt,key_resp_probe.duration,Break.started,Break.stopped,break_done_touch.x,break_done_touch.y,break_done_touch.leftButton,break_done_touch.midButton,break_done_touch.rightButton,break_done_keyboard.keys,list2_trials.thisRepN,list2_trials.thisTrialN,list2_trials.thisN,list2_trials.thisIndex,list2_trials.ran,list_id,item_type,string,font,stim_file,break_done_keyboard.rt,break_done_keyboard.duration,End.started,End.stopped
list2,,0.4551,0.4553,30950,001,2025-10-16_20h22.20.347,HW_LDT_1,2024.2.4,MacIntel,59.88023952,,,,,,,,,,,,,,,,,,,,,,,,,,,,,,,,,,,,,,,,,,,,,,,,,,,,,,,,,,,,,,,,,,,,,,,,,,,,,,,,,,,,,,,,,,,,,,,,,,,,,,,,,,,,,,,,,,,,,,,,
,,,,30950,001,2025-10-16_20h22.20.347,HW_LDT_1,2024.2.4,MacIntel,59.88023952,0.4735,35.1691,,0.060168674,-0.37467113,1,0,0,instr_done_button,0,0,0,0,1,1,instructions,"INSTRUCTIONS
At the start of each trial, look at the plus sign  (+) in the center of the screen.  This tells you that a trial is about to begin and where to look. Second, the plus sign will disappear and a string of letters will appear. Your task is to determine if the string of letters is a word or not. If the item is a word press the M key (on keyboard)  or touch the word button (phone/tablet).  If the item is not a word,  press the  Z key (on keyboard)  or touch the nonword button (on phone/tablet). The items will be presented for a short time. 
Press the space bar or touch  continue.",0,,,,,,,,,,,,,,,,,,,,,,,,,,,,,,,,,,,,,,,,,,,,,,,,,,,,,,,,,,,,,,,,,,,,,,,,,,,,,,,,,,,,,,,,,,,,,,,,,,,,,,
,,,,30950,001,2025-10-16_20h22.20.347,HW_LDT_1,2024.2.4,MacIntel,59.88023952,35.1704,41.0193,space,0.344429666,-0.133751608,0,0,0,,0,1,1,1,1,2,instructions,"If your device has a keyboard, press the 'Z' key for nonwords and the 'M' key for words.





Press the space bar or touch the button below to continue.",0,keyboard-example.gif,5.8201,,,,,,,,,,,,,,,,,,,,,,,,,,,,,,,,,,,,,,,,,,,,,,,,,,,,,,,,,,,,,,,,,,,,,,,,,,,,,,,,,,,,,,,,,,,,,,,,,,,,
,,,,30950,001,2025-10-16_20h22.20.347,HW_LDT_1,2024.2.4,MacIntel,59.88023952,41.0211,44.5357,space,0.344429666,-0.133751608,0,0,0,,0,2,2,2,1,3,instructions,"If you are using a touchscreen only device, use the buttons on the screen. Do not use the mouse.





Press the space bar or touch the button below to continue.",0,touchscreen-example.gif,3.4871,,,,,,,,,,,,,,,,,,,,,,,,,,,,,,,,,,,,,,,,,,,,,,,,,,,,,,,,,,,,,,,,,,,,,,,,,,,,,,,,,,,,,,,,,,,,,,,,,,,,
,,,,30950,001,2025-10-16_20h22.20.347,HW_LDT_1,2024.2.4,MacIntel,59.88023952,44.5378,58.8358,space,0.344429666,-0.133751608,0,0,0,,0,3,3,3,1,4,instructions,"It is very important that you respond as quickly and accurately as possible, as each letter string will only be on the screen for two seconds. If you do not respond within this time, the message 'Too slow!' will be displayed and the experiment will progress to the next letter string. The first 20 trials will be practice trials and you will receive feedback on your answers. 

Press the space bar or touch the button below to start the practice trials.",0,,14.2705,,,,,,,,,,,,,,,,,,,,,,,,,,,,,,,,,,,,,,,,,,,,,,,,,,,,,,,,,,,,,,,,,,,,,,,,,,,,,,,,,,,,,,,,,,,,,,,,,,,,
,,,,30950,001,2025-10-16_20h22.20.347,HW_LDT_1,2024.2.4,MacIntel,59.88023952,,,,,,,,,,,,,,,,,,,,,,58.8631,59.0355,59.0359,59.5356,59.5359,60.5192,z,1,0.9569,,[],[],[],[],[],[],[],0.9569,1,60.5198,61.019,0,0,0,14,1,1015,NW,UN,16,miaber,THRALE,z,,,,,,,,,,,,,,,,,,,,,,,,,,,,,,,,,,,,,,,,,,,,,,,,,,,,,,,,,,,,,,,,,,
,,,,30950,001,2025-10-16_20h22.20.347,HW_LDT_1,2024.2.4,MacIntel,59.88023952,,,,,,,,,,,,,,,,,,,,,,61.0206,61.2187,61.2187,61.7186,61.7194,62.5188,m,1,0.7803,,[],[],[],[],[],[],[],0.7803,1,62.5189,63.0187,0,1,1,7,1,1008,WORD,UN,16,hurdle,VOLUME,m,,,,,,,,,,,,,,,,,,,,,,,,,,,,,,,,,,,,,,,,,,,,,,,,,,,,,,,,,,,,,,,,,,
,,,,30950,001,2025-10-16_20h22.20.347,HW_LDT_1,2024.2.4,MacIntel,59.88023952,,,,,,,,,,,,,,,,,,,,,,63.0202,63.2187,63.2188,63.7188,63.7199,64.8188,m,0,1.0736,,[],[],[],[],[],[],[],1.0736,0,64.8199,65.3187,0,2,2,10,1,1011,NW,"ID",16,inlade,INLADE,z,,,,,,,,,,,,,,,,,,,,,,,,,,,,,,,,,,,,,,,,,,,,,,,,,,,,,,,,,,,,,,,,,,
,,,,30950,001,2025-10-16_20h22.20.347,HW_LDT_1,2024.2.4,MacIntel,59.88023952,,,,,,,,,,,,,,,,,,,,,,65.3202,65.5186,65.5187,66.0187,66.0198,67.0351,z,1,0.9983,,[],[],[],[],[],[],[],0.9983,1,67.0361,67.5354,0,3,3,11,1,1012,NW,"ID",16,rashet,RASHET,z,,,,,,,,,,,,,,,,,,,,,,,,,,,,,,,,,,,,,,,,,,,,,,,,,,,,,,,,,,,,,,,,,,
,,,,30950,001,2025-10-16_20h22.20.347,HW_LDT_1,2024.2.4,MacIntel,59.88023952,,,,,,,,,,,,,,,,,,,,,,67.5369,67.7353,67.7353,68.2353,68.2364,68.9854,z,1,0.7384,,[],[],[],[],[],[],[],0.7384,1,68.9855,69.4854,0,4,4,13,1,1014,NW,UN,33,winfer,ROUPET,z,,,,,,,,,,,,,,,,,,,,,,,,,,,,,,,,,,,,,,,,,,,,,,,,,,,,,,,,,,,,,,,,,,
,,,,30950,001,2025-10-16_20h22.20.347,HW_LDT_1,2024.2.4,MacIntel,59.88023952,,,,,,,,,,,,,,,,,,,,,,69.4868,69.6854,69.6854,70.1854,70.1864,70.9521,m,1,0.7409,,[],[],[],[],[],[],[],0.7409,1,70.9523,71.4521,0,5,5,5,1,1006,WORD,UN,33,frenzy,OBTAIN,m,,,,,,,,,,,,,,,,,,,,,,,,,,,,,,,,,,,,,,,,,,,,,,,,,,,,,,,,,,,,,,,,,,
,,,,30950,001,2025-10-16_20h22.20.347,HW_LDT_1,2024.2.4,MacIntel,59.88023952,,,,,,,,,,,,,,,,,,,,,,71.4536,71.652,71.6521,72.152,72.1529,73.1021,m,1,0.9382,,[],[],[],[],[],[],[],0.9382,1,73.1023,73.602,0,6,6,6,1,1007,WORD,UN,16,tropic,ZOMBIE,m,,,,,,,,,,,,,,,,,,,,,,,,,,,,,,,,,,,,,,,,,,,,,,,,,,,,,,,,,,,,,,,,,,
,,,,30950,001,2025-10-16_20h22.20.347,HW_LDT_1,2024.2.4,MacIntel,59.88023952,,,,,,,,,,,,,,,,,,,,,,73.6035,73.8019,73.802,74.3021,74.3032,75.4688,z,1,1.1454,,[],[],[],[],[],[],[],1.1454,1,75.4689,75.9687,0,7,7,9,1,1010,NW,"ID",33,fariny,FARINY,z,,,,,,,,,,,,,,,,,,,,,,,,,,,,,,,,,,,,,,,,,,,,,,,,,,,,,,,,,,,,,,,,,,
,,,,30950,001,2025-10-16_20h22.20.347,HW_LDT_1,2024.2.4,MacIntel,59.88023952,,,,,,,,,,,,,,,,,,,,,,75.9701,76.1686,76.1687,76.6686,76.6695,77.3852,z,1,0.7062,,[],[],[],[],[],[],[],0.7062,1,77.3853,77.8854,0,8,8,15,1,1016,NW,UN,16,mushed,WHAISE,z,,,,,,,,,,,,,,,,,,,,,,,,,,,,,,,,,,,,,,,,,,,,,,,,,,,,,,,,,,,,,,,,,,
,,,,30950,001,2025-10-16_20h22.20.347,HW_LDT_1,2024.2.4,MacIntel,59.88023952,,,,,,,,,,,,,,,,,,,,,,77.8869,78.0854,78.0854,78.5853,78.5863,79.1521,m,1,0.5444,,[],[],[],[],[],[],[],0.5444,1,79.1523,79.6519,0,9,9,1,1,1002,WORD,"ID",33,adjust,ADJUST,m,,,,,,,,,,,,,,,,,,,,,,,,,,,,,,,,,,,,,,,,,,,,,,,,,,,,,,,,,,,,,,,,,,
,,,,30950,001,2025-10-16_20h22.20.347,HW_LDT_1,2024.2.4,MacIntel,59.88023952,,,,,,,,,,,,,,,,,,,,,,79.6529,79.852,79.852,80.352,80.3529,81.202,m,1,0.829,,[],[],[],[],[],[],[],0.829,1,81.2022,81.702,0,10,10,0,1,1001,WORD,"ID",33,utopia,UTOPIA,m,,,,,,,,,,,,,,,,,,,,,,,,,,,,,,,,,,,,,,,,,,,,,,,,,,,,,,,,,,,,,,,,,,
,,,,30950,001,2025-10-16_20h22.20.347,HW_LDT_1,2024.2.4,MacIntel,59.88023952,,,,,,,,,,,,,,,,,,,,,,81.7034,81.9009,81.901,82.4019,82.4028,82.9521,m,1,0.5291,,[],[],[],[],[],[],[],0.5291,1,82.9522,83.452,0,11,11,2,1,1003,WORD,"ID",16,almond,ALMOND,m,,,,,,,,,,,,,,,,,,,,,,,,,,,,,,,,,,,,,,,,,,,,,,,,,,,,,,,,,,,,,,,,,,
,,,,30950,001,2025-10-16_20h22.20.347,HW_LDT_1,2024.2.4,MacIntel,59.88023952,,,,,,,,,,,,,,,,,,,,,,83.4535,83.6519,83.652,84.1517,84.1526,84.802,m,1,0.6172,,[],[],[],[],[],[],[],0.6172,1,84.8022,85.302,0,12,12,4,1,1005,WORD,UN,33,abound,SQUEAK,m,,,,,,,,,,,,,,,,,,,,,,,,,,,,,,,,,,,,,,,,,,,,,,,,,,,,,,,,,,,,,,,,,,
,,,,30950,001,2025-10-16_20h22.20.347,HW_LDT_1,2024.2.4,MacIntel,59.88023952,,,,,,,,,,,,,,,,,,,,,,85.3033,85.5019,85.502,86.002,86.003,86.6519,m,1,0.6384,,[],[],[],[],[],[],[],0.6384,1,86.6521,87.152,0,13,13,3,1,1004,WORD,"ID",16,matrix,MATRIX,m,,,,,,,,,,,,,,,,,,,,,,,,,,,,,,,,,,,,,,,,,,,,,,,,,,,,,,,,,,,,,,,,,,
,,,,30950,001,2025-10-16_20h22.20.347,HW_LDT_1,2024.2.4,MacIntel,59.88023952,,,,,,,,,,,,,,,,,,,,,,87.1534,87.3519,87.352,87.8519,87.8529,88.8354,z,1,0.9605,,[],[],[],[],[],[],[],0.9605,1,88.8356,89.3353,0,14,14,12,1,1013,NW,UN,33,adveil,SPRINY,z,,,,,,,,,,,,,,,,,,,,,,,,,,,,,,,,,,,,,,,,,,,,,,,,,,,,,,,,,,,,,,,,,,
,,,,30950,001,2025-10-16_20h22.20.347,HW_LDT_1,2024.2.4,MacIntel,59.88023952,,,,,,,,,,,,,,,,,,,,,,89.3368,89.5353,89.5353,90.0353,90.0362,90.8685,z,1,0.8162,,[],[],[],[],[],[],[],0.8162,1,90.8688,91.3687,0,15,15,8,1,1009,NW,"ID",33,aslert,ASLERT,z,,,,,,,,,,,,,,,,,,,,,,,,,,,,,,,,,,,,,,,,,,,,,,,,,,,,,,,,,,,,,,,,,,
,,,,30950,001,2025-10-16_20h22.20.347,HW_LDT_1,2024.2.4,MacIntel,59.88023952,,,,,,,,,,,,,,,1,end_of_practice,"You have completed the practice trials. During the experimental trials, you will not receive feedback. On some trials you will be asked to report whether the item you just saw was in cursive or print. 
Before you begin, please ensure that you are in a comfortable and quiet location and will not be disturbed for about 15 minutes, as we cannot use your data if you do not complete all the trials. 
 When you are ready to start the experimental trials, please press space or touch the button below.",,,,,,,,,,,,,,,,,,,,,,,,,,,,,,,,,,,,,,91.3749,115.136,space,23.7342,,0.344429666,-0.133751608,0,0,0,0,0,0,0,1,,,,,,,,,,,,,,,,,,,,,,,,,,,,,,,,,,,,,,,,,,,,,,,,,,,
,,,,30950,001,2025-10-16_20h22.20.347,HW_LDT_1,2024.2.4,MacIntel,59.88023952,,,,,,,,,,,,,,,,,,,,,,115.1501,115.335,115.335,115.8354,,,,,,,,,,,,,,1.5452,0,,,,,,,,,,,,,,z,,,,,,,,,,,,,,,,1,1,115.8374,117.3858,m,0,1.5452,,[],[],[],[],[],[],[],117.3861,119.3856,119.3858,121.6857,[],[],[],[],[],[],[],m,2.2949,,121.686,121.6882,0.344429666,-0.133751608,0,0,0,,0,0,0,79,1,2,TL,vadility,print,vadility_p.png,,,,
,,,,30950,001,2025-10-16_20h22.20.347,HW_LDT_1,2024.2.4,MacIntel,59.88023952,,,,,,,,,,,,,,,,,,,,,,121.689,121.8853,121.8854,122.385,,,,,,,,,,,,,,1.9153,1,,,,,,,,,,,,,,m,,,,,,,,,,,,,,,,2,1,122.3855,124.3021,m,1,1.9153,,[],[],[],[],[],[],[],124.3022,126.3021,126.3021,127.5188,[],[],[],[],[],[],[],z,1.2151,,127.5189,127.519,0.344429666,-0.133751608,0,0,0,,0,1,1,132,1,2,word,PROPOSAL,cursive,proposal_c.png,,,,
,,,,30950,001,2025-10-16_20h22.20.347,HW_LDT_1,2024.2.4,MacIntel,59.88023952,,,,,,,,,,,,,,,,,,,,,,127.52,127.7186,127.7186,128.2185,,,,,,,,,,,,,,2.5974,0,,,,,,,,,,,,,,m,,,,,,,,,,,,,,,,3,0,128.2192,130.8187,z,0,2.5974,,[],[],[],[],[],[],[],130.8189,132.8186,132.8187,132.8189,[],[],[],[],[],[],[],,,,132.819,132.8191,0.344429666,-0.133751608,0,0,0,,0,2,2,121,1,2,word,MISTAKE,cursive,mistake_c.png,,,,
,,,,30950,001,2025-10-16_20h22.20.347,HW_LDT_1,2024.2.4,MacIntel,59.88023952,,,,,,,,,,,,,,,,,,,,,,132.8204,133.0186,133.0187,133.5186,,,,,,,,,,,,,,2.2712,0,,,,,,,,,,,,,,m,,,,,,,,,,,,,,,,4,0,133.5193,135.8021,z,0,2.2712,,[],[],[],[],[],[],[],135.8022,137.8018,137.802,137.8022,[],[],[],[],[],[],[],,,,137.8023,137.8025,0.344429666,-0.133751608,0,0,0,,0,3,3,123,1,2,word,MODERATE,cursive,moderate_c.png,,,,
,,,,30950,001,2025-10-16_20h22.20.347,HW_LDT_1,2024.2.4,MacIntel,59.88023952,,,,,,,,,,,,,,,,,,,,,,137.8038,138.0019,138.002,138.5019,,,,,,,,,,,,,,0.9746,1,,,,,,,,,,,,,,z,,,,,,,,,,,,,,,,5,0,138.5025,139.4854,z,1,0.9746,,[],[],[],[],[],[],[],139.4855,141.4852,141.4854,141.4856,[],[],[],[],[],[],[],,,,141.4857,141.4858,0.344429666,-0.133751608,0,0,0,,0,4,4,31,1,2,RL,spetisic,print,spetisic_p.png,,,,
,,,,30950,001,2025-10-16_20h22.20.347,HW_LDT_1,2024.2.4,MacIntel,59.88023952,,,,,,,,,,,,,,,,,,,,,,141.4869,141.6853,141.6853,142.1852,,,,,,,,,,,,,,1.1801,1,,,,,,,,,,,,,,z,,,,,,,,,,,,,,,,6,0,142.1859,143.3685,z,1,1.1801,,[],[],[],[],[],[],[],143.3687,145.3686,145.3687,145.3691,[],[],[],[],[],[],[],,,,145.3692,145.3693,0.344429666,-0.133751608,0,0,0,,0,5,5,0,1,2,RL,adnicory,print,adnicory_p.png,,,,
,,,,30950,001,2025-10-16_20h22.20.347,HW_LDT_1,2024.2.4,MacIntel,59.88023952,,,,,,,,,,,,,,,,,,,,,,145.3707,145.5685,145.5686,146.0686,,,,,,,,,,,,,,0.8377,1,,,,,,,,,,,,,,z,,,,,,,,,,,,,,,,7,1,146.0692,146.9187,z,1,0.8377,,[],[],[],[],[],[],[],146.9188,148.9187,148.9188,150.3187,[],[],[],[],[],[],[],m,1.3987,,150.3188,150.3191,0.344429666,-0.133751608,0,0,0,,0,6,6,2,1,2,RL,casagity,print,casagity_p.png,,,,
,,,,30950,001,2025-10-16_20h22.20.347,HW_LDT_1,2024.2.4,MacIntel,59.88023952,,,,,,,,,,,,,,,,,,,,,,150.3202,150.5186,150.5186,151.0185,,,,,,,,,,,,,,1.7877,1,,,,,,,,,,,,,,m,,,,,,,,,,,,,,,,8,0,151.0191,152.8186,m,1,1.7877,,[],[],[],[],[],[],[],152.8188,154.8186,154.8187,154.8189,[],[],[],[],[],[],[],,,,154.819,154.8192,0.344429666,-0.133751608,0,0,0,,0,7,7,119,1,2,word,MEMORY,cursive,memory_c.png,,,,
,,,,30950,001,2025-10-16_20h22.20.347,HW_LDT_1,2024.2.4,MacIntel,59.88023952,,,,,,,,,,,,,,,,,,,,,,154.8204,155.0187,155.0187,155.5185,,,,,,,,,,,,,,1.5411,0,,,,,,,,,,,,,,m,,,,,,,,,,,,,,,,9,0,155.5192,157.0686,z,0,1.5411,,[],[],[],[],[],[],[],157.0687,159.0686,159.0687,159.0688,[],[],[],[],[],[],[],,,,159.0689,159.069,0.344429666,-0.133751608,0,0,0,,0,8,8,106,1,2,word,ELABORATE,cursive,elaborate_c.png,,,,
,,,,30950,001,2025-10-16_20h22.20.347,HW_LDT_1,2024.2.4,MacIntel,59.88023952,,,,,,,,,,,,,,,,,,,,,,159.07,159.2686,159.2686,159.7686,,,,,,,,,,,,,,1.3403,1,,,,,,,,,,,,,,z,,,,,,,,,,,,,,,,10,1,159.7691,161.1187,z,1,1.3403,,[],[],[],[],[],[],[],161.1187,163.1185,163.1186,165.3186,[],[],[],[],[],[],[],z,2.1983,,165.3186,165.3188,0.344429666,-0.133751608,0,0,0,,0,9,9,74,1,2,TL,rerite,cursive,rerite_c.png,,,,
,,,,30950,001,2025-10-16_20h22.20.347,HW_LDT_1,2024.2.4,MacIntel,59.88023952,,,,,,,,,,,,,,,,,,,,,,165.3198,165.5185,165.5186,166.0185,,,,,,,,,,,,,,3.1045,1,,,,,,,,,,,,,,z,,,,,,,,,,,,,,,,11,0,166.0192,169.1354,z,1,3.1045,,[],[],[],[],[],[],[],169.1355,171.1354,171.1354,171.1356,[],[],[],[],[],[],[],,,,171.1357,171.1359,0.344429666,-0.133751608,0,0,0,,0,10,10,54,1,2,TL,liretal,cursive,liretal_c.png,,,,
,,,,30950,001,2025-10-16_20h22.20.347,HW_LDT_1,2024.2.4,MacIntel,59.88023952,,,,,,,,,,,,,,,,,,,,,,171.1371,171.3353,171.3353,171.8352,,,,,,,,,,,,,,0.8549,1,,,,,,,,,,,,,,z,,,,,,,,,,,,,,,,12,0,171.8357,172.7021,z,1,0.8549,,[],[],[],[],[],[],[],172.7023,174.7019,174.702,174.7022,[],[],[],[],[],[],[],,,,174.7022,174.7024,0.344429666,-0.133751608,0,0,0,,0,11,11,35,1,2,RL,vesofity,print,vesofity_p.png,,,,
,,,,30950,001,2025-10-16_20h22.20.347,HW_LDT_1,2024.2.4,MacIntel,59.88023952,,,,,,,,,,,,,,,,,,,,,,174.7036,174.9008,174.9009,175.4019,,,,,,,,,,,,,,1.9551,1,,,,,,,,,,,,,,z,,,,,,,,,,,,,,,,13,1,175.4024,177.3678,z,1,1.9551,,[],[],[],[],[],[],[],177.3679,179.3686,179.3687,180.9508,[],[],[],[],[],[],[],z,1.5814,,180.9509,180.9511,0.344429666,-0.133751608,0,0,0,,0,12,12,51,1,2,TL,etidor,cursive,etidor_c.png,,,,
,,,,30950,001,2025-10-16_20h22.20.347,HW_LDT_1,2024.2.4,MacIntel,59.88023952,,,,,,,,,,,,,,,,,,,,,,180.9518,181.152,181.152,181.651,,,,,,,,,,,,,,2.7233,1,,,,,,,,,,,,,,z,,,,,,,,,,,,,,,,14,0,181.6516,184.3852,z,1,2.7233,,[],[],[],[],[],[],[],184.3853,186.3852,186.3853,186.3855,[],[],[],[],[],[],[],,,,186.3855,186.3856,0.344429666,-0.133751608,0,0,0,,0,13,13,67,1,2,TL,quafily,cursive,quafily_c.png,,,,
,,,,30950,001,2025-10-16_20h22.20.347,HW_LDT_1,2024.2.4,MacIntel,59.88023952,,,,,,,,,,,,,,,,,,,,,,186.3869,186.5851,186.5853,187.0843,,,,,,,,,,,,,,1.655,1,,,,,,,,,,,,,,z,,,,,,,,,,,,,,,,15,1,187.0849,188.7509,z,1,1.655,,[],[],[],[],[],[],[],188.751,190.7513,190.7513,192.3687,[],[],[],[],[],[],[],z,1.6067,,192.3687,192.369,0.344429666,-0.133751608,0,0,0,,0,14,14,40,1,2,TL,bevoled,cursive,bevoled_c.png,,,,
,,,,30950,001,2025-10-16_20h22.20.347,HW_LDT_1,2024.2.4,MacIntel,59.88023952,,,,,,,,,,,,,,,,,,,,,,192.3702,192.5685,192.5686,193.0685,,,,,,,,,,,,,,2.5546,1,,,,,,,,,,,,,,z,,,,,,,,,,,,,,,,16,0,193.069,195.6354,z,1,2.5546,,[],[],[],[],[],[],[],195.6355,197.6352,197.6353,197.6355,[],[],[],[],[],[],[],,,,197.6356,197.6357,0.344429666,-0.133751608,0,0,0,,0,15,15,44,1,2,TL,catipal,cursive,catipal_c.png,,,,
,,,,30950,001,2025-10-16_20h22.20.347,HW_LDT_1,2024.2.4,MacIntel,59.88023952,,,,,,,,,,,,,,,,,,,,,,197.637,197.8345,197.8345,198.3351,,,,,,,,,,,,,,1.0971,0,,,,,,,,,,,,,,m,,,,,,,,,,,,,,,,17,0,198.3359,199.4343,z,0,1.0971,,[],[],[],[],[],[],[],199.4344,201.4352,201.4353,201.4355,[],[],[],[],[],[],[],,,,201.4356,201.4357,0.344429666,-0.133751608,0,0,0,,0,16,16,138,1,2,word,REFUSAL,cursive,refusal_c.png,,,,
,,,,30950,001,2025-10-16_20h22.20.347,HW_LDT_1,2024.2.4,MacIntel,59.88023952,,,,,,,,,,,,,,,,,,,,,,201.437,201.6344,201.6344,202.1352,,,,,,,,,,,,,,0.7558,1,,,,,,,,,,,,,,z,,,,,,,,,,,,,,,,18,0,202.1359,202.902,z,1,0.7558,,[],[],[],[],[],[],[],202.9021,204.9018,204.9019,204.9022,[],[],[],[],[],[],[],,,,204.9022,204.9024,0.344429666,-0.133751608,0,0,0,,0,17,17,10,1,2,RL,disluge,cursive,disluge_c.png,,,,
,,,,30950,001,2025-10-16_20h22.20.347,HW_LDT_1,2024.2.4,MacIntel,59.88023952,,,,,,,,,,,,,,,,,,,,,,204.9037,205.1019,205.1019,205.6009,,,,,,,,,,,,,,1.1092,1,,,,,,,,,,,,,,m,,,,,,,,,,,,,,,,19,0,205.6013,206.7177,m,1,1.1092,,[],[],[],[],[],[],[],206.7178,208.7187,208.7187,208.7189,[],[],[],[],[],[],[],,,,208.7189,208.7191,0.344429666,-0.133751608,0,0,0,,0,18,18,130,1,2,word,POLICY,print,policy_p.png,,,,
,,,,30950,001,2025-10-16_20h22.20.347,HW_LDT_1,2024.2.4,MacIntel,59.88023952,,,,,,,,,,,,,,,,,,,,,,208.7204,208.9184,208.9186,209.4185,,,,,,,,,,,,,,0.8296,1,,,,,,,,,,,,,,z,,,,,,,,,,,,,,,,20,0,209.4191,210.2517,z,1,0.8296,,[],[],[],[],[],[],[],210.2518,212.2519,212.2519,212.2522,[],[],[],[],[],[],[],,,,212.2523,212.2523,0.344429666,-0.133751608,0,0,0,,0,19,19,75,1,2,TL,ronamtic,print,ronamtic_p.png,,,,
,,,,30950,001,2025-10-16_20h22.20.347,HW_LDT_1,2024.2.4,MacIntel,59.88023952,,,,,,,,,,,,,,,,,,,,,,212.2536,212.4517,212.4517,212.9518,,,,,,,,,,,,,,0.7474,1,,,,,,,,,,,,,,z,,,,,,,,,,,,,,,,21,0,212.9524,213.7019,z,1,0.7474,,[],[],[],[],[],[],[],213.702,215.7018,215.7019,215.7021,[],[],[],[],[],[],[],,,,215.7022,215.7022,0.344429666,-0.133751608,0,0,0,,0,20,20,9,1,2,RL,denficy,print,denficy_p.png,,,,
,,,,30950,001,2025-10-16_20h22.20.347,HW_LDT_1,2024.2.4,MacIntel,59.88023952,,,,,,,,,,,,,,,,,,,,,,215.7035,215.9018,215.9019,216.4018,,,,,,,,,,,,,,1.4701,1,,,,,,,,,,,,,,m,,,,,,,,,,,,,,,,22,0,216.4024,217.8852,m,1,1.4701,,[],[],[],[],[],[],[],217.8853,219.8851,219.8851,219.8852,[],[],[],[],[],[],[],,,,219.8853,219.8853,0.344429666,-0.133751608,0,0,0,,0,21,21,156,1,2,word,TRIBUTE,cursive,tribute_c.png,,,,
,,,,30950,001,2025-10-16_20h22.20.347,HW_LDT_1,2024.2.4,MacIntel,59.88023952,,,,,,,,,,,,,,,,,,,,,,219.8861,220.0853,220.0853,220.5852,,,,,,,,,,,,,,0.7863,1,,,,,,,,,,,,,,z,,,,,,,,,,,,,,,,23,0,220.5857,221.3845,z,1,0.7863,,[],[],[],[],[],[],[],221.3846,223.3851,223.3852,223.3854,[],[],[],[],[],[],[],,,,223.3855,223.3856,0.344429666,-0.133751608,0,0,0,,0,22,22,16,1,2,RL,losipal,print,losipal_p.png,,,,
,,,,30950,001,2025-10-16_20h22.20.347,HW_LDT_1,2024.2.4,MacIntel,59.88023952,,,,,,,,,,,,,,,,,,,,,,223.3868,223.5851,223.5851,224.0843,,,,,,,,,,,,,,0.9051,0,,,,,,,,,,,,,,m,,,,,,,,,,,,,,,,24,0,224.0849,225.002,z,0,0.9051,,[],[],[],[],[],[],[],225.0021,227.0018,227.0019,227.0021,[],[],[],[],[],[],[],,,,227.0022,227.0023,0.344429666,-0.133751608,0,0,0,,0,23,23,113,1,2,word,LITERAL,cursive,literal_c.png,,,,
,,,,30950,001,2025-10-16_20h22.20.347,HW_LDT_1,2024.2.4,MacIntel,59.88023952,,,,,,,,,,,,,,,,,,,,,,227.0034,227.2019,227.2019,227.7018,,,,,,,,,,,,,,0.7881,1,,,,,,,,,,,,,,m,,,,,,,,,,,,,,,,25,0,227.7024,228.5019,m,1,0.7881,,[],[],[],[],[],[],[],228.5021,230.5017,230.5018,230.5019,[],[],[],[],[],[],[],,,,230.502,230.5021,0.344429666,-0.133751608,0,0,0,,0,24,24,154,1,2,word,STORAGE,print,storage_p.png,,,,
,,,,30950,001,2025-10-16_20h22.20.347,HW_LDT_1,2024.2.4,MacIntel,59.88023952,,,,,,,,,,,,,,,,,,,,,,230.503,230.7019,230.7019,231.2018,,,,,,,,,,,,,,0.59,1,,,,,,,,,,,,,,m,,,,,,,,,,,,,,,,26,0,231.2024,231.8013,m,1,0.59,,[],[],[],[],[],[],[],231.8015,233.8018,233.8019,233.8021,[],[],[],[],[],[],[],,,,233.8022,233.8022,0.344429666,-0.133751608,0,0,0,,0,25,25,127,1,2,word,ORIGINAL,print,original_p.png,,,,
,,,,30950,001,2025-10-16_20h22.20.347,HW_LDT_1,2024.2.4,MacIntel,59.88023952,,,,,,,,,,,,,,,,,,,,,,233.8035,234.0018,234.0018,234.5018,,,,,,,,,,,,,,0.6542,1,,,,,,,,,,,,,,z,,,,,,,,,,,,,,,,27,0,234.5024,235.1686,z,1,0.6542,,[],[],[],[],[],[],[],235.1687,237.1683,237.1684,237.1686,[],[],[],[],[],[],[],,,,237.1687,237.1688,0.344429666,-0.133751608,0,0,0,,0,26,26,6,1,2,RL,conbicer,print,conbicer_p.png,,,,
,,,,30950,001,2025-10-16_20h22.20.347,HW_LDT_1,2024.2.4,MacIntel,59.88023952,,,,,,,,,,,,,,,,,,,,,,237.1699,237.3685,237.3686,237.8684,,,,,,,,,,,,,,1.1314,1,,,,,,,,,,,,,,z,,,,,,,,,,,,,,,,28,0,237.8691,239.0019,z,1,1.1314,,[],[],[],[],[],[],[],239.0019,241.0018,241.0019,241.0022,[],[],[],[],[],[],[],,,,241.0023,241.0024,0.344429666,-0.133751608,0,0,0,,0,27,27,59,1,2,TL,miskate,cursive,miskate_c.png,,,,
,,,,30950,001,2025-10-16_20h22.20.347,HW_LDT_1,2024.2.4,MacIntel,59.88023952,,,,,,,,,,,,,,,,,,,,,,241.0037,241.2019,241.202,241.7017,,,,,,,,,,,,,,0.6718,1,,,,,,,,,,,,,,m,,,,,,,,,,,,,,,,29,0,241.702,242.3852,m,1,0.6718,,[],[],[],[],[],[],[],242.3854,244.3852,244.3852,244.3854,[],[],[],[],[],[],[],,,,244.3854,244.3856,0.344429666,-0.133751608,0,0,0,,0,28,28,131,1,2,word,POPULAR,cursive,popular_c.png,,,,
,,,,30950,001,2025-10-16_20h22.20.347,HW_LDT_1,2024.2.4,MacIntel,59.88023952,,,,,,,,,,,,,,,,,,,,,,244.3869,244.5851,244.5852,245.0852,,,,,,,,,,,,,,1.1881,0,,,,,,,,,,,,,,z,,,,,,,,,,,,,,,,30,0,245.0858,246.2852,m,0,1.1881,,[],[],[],[],[],[],[],246.2853,248.2851,248.2852,248.2854,[],[],[],[],[],[],[],,,,248.2854,248.2856,0.344429666,-0.133751608,0,0,0,,0,29,29,47,1,2,TL,crinimal,cursive,crinimal_c.png,,,,
,,,,30950,001,2025-10-16_20h22.20.347,HW_LDT_1,2024.2.4,MacIntel,59.88023952,,,,,,,,,,,,,,,,,,,,,,248.2867,248.485,248.4851,248.9852,,,,,,,,,,,,,,0.8211,1,,,,,,,,,,,,,,m,,,,,,,,,,,,,,,,31,0,248.9857,249.8186,m,1,0.8211,,[],[],[],[],[],[],[],249.8186,251.8184,251.8185,251.8187,[],[],[],[],[],[],[],,,,251.8187,251.8189,0.344429666,-0.133751608,0,0,0,,0,30,30,92,1,2,word,CATEGORY,print,category_p.png,,,,
,,,,30950,001,2025-10-16_20h22.20.347,HW_LDT_1,2024.2.4,MacIntel,59.88023952,,,,,,,,,,,,,,,,,,,,,,251.8201,252.0184,252.0185,252.5185,,,,,,,,,,,,,,1.1974,1,,,,,,,,,,,,,,z,,,,,,,,,,,,,,,,32,0,252.5191,253.7185,z,1,1.1974,,[],[],[],[],[],[],[],253.7187,255.7184,255.7185,255.7188,[],[],[],[],[],[],[],,,,255.7189,255.7189,0.344429666,-0.133751608,0,0,0,,0,31,31,46,1,2,TL,codemy,cursive,codemy_c.png,,,,
,,,,30950,001,2025-10-16_20h22.20.347,HW_LDT_1,2024.2.4,MacIntel,59.88023952,,,,,,,,,,,,,,,,,,,,,,255.7202,255.9184,255.9185,256.4184,,,,,,,,,,,,,,1.0288,1,,,,,,,,,,,,,,m,,,,,,,,,,,,,,,,33,0,256.419,257.4516,m,1,1.0288,,[],[],[],[],[],[],[],257.4517,259.4518,259.4518,259.452,[],[],[],[],[],[],[],,,,259.4522,259.4522,0.344429666,-0.133751608,0,0,0,,0,32,32,155,1,2,word,STRATEGY,cursive,strategy_c.png,,,,
,,,,30950,001,2025-10-16_20h22.20.347,HW_LDT_1,2024.2.4,MacIntel,59.88023952,,,,,,,,,,,,,,,,,,,,,,259.4536,259.6517,259.6517,260.1519,,,,,,,,,,,,,,1.0215,1,,,,,,,,,,,,,,z,,,,,,,,,,,,,,,,34,0,260.1523,261.1852,z,1,1.0215,,[],[],[],[],[],[],[],261.1853,263.1851,263.1852,263.1855,[],[],[],[],[],[],[],,,,263.1855,263.1856,0.344429666,-0.133751608,0,0,0,,0,33,33,64,1,2,TL,paficic,print,paficic_p.png,,,,
,,,,30950,001,2025-10-16_20h22.20.347,HW_LDT_1,2024.2.4,MacIntel,59.88023952,,,,,,,,,,,,,,,,,,,,,,263.1868,263.3851,263.3851,263.8851,,,,,,,,,,,,,,1.4058,1,,,,,,,,,,,,,,z,,,,,,,,,,,,,,,,35,1,263.8857,265.3019,z,1,1.4058,,[],[],[],[],[],[],[],265.302,267.3019,267.302,269.3517,[],[],[],[],[],[],[],z,2.0474,,269.3519,269.352,0.344429666,-0.133751608,0,0,0,,0,34,34,38,1,2,TL,atameur,cursive,atameur_c.png,,,,
,,,,30950,001,2025-10-16_20h22.20.347,HW_LDT_1,2024.2.4,MacIntel,59.88023952,,,,,,,,,,,,,,,,,,,,,,269.353,269.5518,269.5518,270.0519,,,,,,,,,,,,,,1.1546,1,,,,,,,,,,,,,,m,,,,,,,,,,,,,,,,36,0,270.0524,271.2185,m,1,1.1546,,[],[],[],[],[],[],[],271.2186,273.2184,273.2184,273.2186,[],[],[],[],[],[],[],,,,273.2187,273.2187,0.344429666,-0.133751608,0,0,0,,0,35,35,88,1,2,word,CAMERA,print,camera_p.png,,,,
,,,,30950,001,2025-10-16_20h22.20.347,HW_LDT_1,2024.2.4,MacIntel,59.88023952,,,,,,,,,,,,,,,,,,,,,,273.2197,273.4184,273.4185,273.9185,,,,,,,,,,,,,,1.6402,1,,,,,,,,,,,,,,m,,,,,,,,,,,,,,,,37,0,273.9191,275.5685,m,1,1.6402,,[],[],[],[],[],[],[],275.5686,277.5685,277.5685,277.5688,[],[],[],[],[],[],[],,,,277.5688,277.5689,0.344429666,-0.133751608,0,0,0,,0,36,36,116,1,2,word,MARGINAL,cursive,marginal_c.png,,,,
,,,,30950,001,2025-10-16_20h22.20.347,HW_LDT_1,2024.2.4,MacIntel,59.88023952,,,,,,,,,,,,,,,,,,,,,,277.5702,277.7684,277.7684,278.2684,,,,,,,,,,,,,,0.64,1,,,,,,,,,,,,,,m,,,,,,,,,,,,,,,,38,0,278.2692,278.9184,m,1,0.64,,[],[],[],[],[],[],[],278.9186,280.9184,280.9185,280.9187,[],[],[],[],[],[],[],,,,280.9188,280.9189,0.344429666,-0.133751608,0,0,0,,0,37,37,115,1,2,word,LOGICAL,print,logical_p.png,,,,
,,,,30950,001,2025-10-16_20h22.20.347,HW_LDT_1,2024.2.4,MacIntel,59.88023952,,,,,,,,,,,,,,,,,,,,,,280.9202,281.1185,281.1185,281.6184,,,,,,,,,,,,,,0.9045,1,,,,,,,,,,,,,,z,,,,,,,,,,,,,,,,39,0,281.619,282.5353,z,1,0.9045,,[],[],[],[],[],[],[],282.5354,284.535,284.5351,284.5353,[],[],[],[],[],[],[],,,,284.5353,284.5355,0.344429666,-0.133751608,0,0,0,,0,38,38,69,1,2,TL,resufal,cursive,resufal_c.png,,,,
,,,,30950,001,2025-10-16_20h22.20.347,HW_LDT_1,2024.2.4,MacIntel,59.88023952,,,,,,,,,,,,,,,,,,,,,,284.5366,284.7351,284.7351,285.2352,,,,,,,,,,,,,,0.8153,1,,,,,,,,,,,,,,m,,,,,,,,,,,,,,,,40,0,285.2357,286.0518,m,1,0.8153,,[],[],[],[],[],[],[],286.0519,288.0519,288.0519,288.0521,[],[],[],[],[],[],[],,,,288.0522,288.0523,0.344429666,-0.133751608,0,0,0,,0,39,39,81,1,2,word,ADVISORY,print,advisory_p.png,,,,
,,,,30950,001,2025-10-16_20h22.20.347,HW_LDT_1,2024.2.4,MacIntel,59.88023952,,,,,,,,,,,,,,,,,,,,,,288.0535,288.2517,288.2518,288.7517,,,,,,,,,,,,,,0.8035,1,,,,,,,,,,,,,,z,,,,,,,,,,,,,,,,41,0,288.7524,289.5686,z,1,0.8035,,[],[],[],[],[],[],[],289.5688,291.5684,291.5685,291.5687,[],[],[],[],[],[],[],,,,291.5687,291.5688,0.344429666,-0.133751608,0,0,0,,0,40,40,28,1,2,RL,revune,cursive,revune_c.png,,,,
,,,,30950,001,2025-10-16_20h22.20.347,HW_LDT_1,2024.2.4,MacIntel,59.88023952,,,,,,,,,,,,,,,,,,,,,,291.5701,291.7685,291.7685,292.2674,,,,,,,,,,,,,,1.0943,0,,,,,,,,,,,,,,m,,,,,,,,,,,,,,,,42,1,292.268,293.3682,z,0,1.0943,,[],[],[],[],[],[],[],293.3683,295.3684,295.3685,296.4852,[],[],[],[],[],[],[],z,1.1052,,296.4853,296.4855,0.344429666,-0.133751608,0,0,0,,0,41,41,125,1,2,word,OPERATOR,cursive,operator_c.png,,,,
,,,,30950,001,2025-10-16_20h22.20.347,HW_LDT_1,2024.2.4,MacIntel,59.88023952,,,,,,,,,,,,,,,,,,,,,,296.4868,296.6845,296.6845,297.1842,,,,,,,,,,,,,,1.3984,1,,,,,,,,,,,,,,m,,,,,,,,,,,,,,,,43,0,297.1848,298.5843,m,1,1.3984,,[],[],[],[],[],[],[],298.5843,300.5843,300.5844,300.5846,[],[],[],[],[],[],[],,,,300.5847,300.5848,0.344429666,-0.133751608,0,0,0,,0,42,42,142,1,2,word,REMOTE,cursive,remote_c.png,,,,
,,,,30950,001,2025-10-16_20h22.20.347,HW_LDT_1,2024.2.4,MacIntel,59.88023952,,,,,,,,,,,,,,,,,,,,,,300.5859,300.785,300.7851,301.2851,,,,,,,,,,,,,,1.2232,1,,,,,,,,,,,,,,z,,,,,,,,,,,,,,,,44,1,301.2858,302.5184,z,1,1.2232,,[],[],[],[],[],[],[],302.5185,304.5184,304.5185,305.5185,[],[],[],[],[],[],[],z,0.9909,,305.5186,305.5187,0.344429666,-0.133751608,0,0,0,,0,43,43,17,1,2,RL,macise,cursive,macise_c.png,,,,
,,,,30950,001,2025-10-16_20h22.20.347,HW_LDT_1,2024.2.4,MacIntel,59.88023952,,,,,,,,,,,,,,,,,,,,,,305.5199,305.7175,305.7175,306.2175,,,,,,,,,,,,,,1.0889,1,,,,,,,,,,,,,,m,,,,,,,,,,,,,,,,45,0,306.2181,307.3185,m,1,1.0889,,[],[],[],[],[],[],[],307.3186,309.3175,309.3176,309.3178,[],[],[],[],[],[],[],,,,309.3179,309.318,0.344429666,-0.133751608,0,0,0,,0,44,44,145,1,2,word,RESUME,cursive,resume_c.png,,,,
,,,,30950,001,2025-10-16_20h22.20.347,HW_LDT_1,2024.2.4,MacIntel,59.88023952,,,,,,,,,,,,,,,,,,,,,,309.3193,309.5184,309.5184,310.0184,,,,,,,,,,,,,,1.8874,0,,,,,,,,,,,,,,z,,,,,,,,,,,,,,,,46,0,310.019,311.9182,m,0,1.8874,,[],[],[],[],[],[],[],311.9183,313.9184,313.9185,313.9187,[],[],[],[],[],[],[],,,,313.9187,313.9188,0.344429666,-0.133751608,0,0,0,,0,45,45,37,1,2,TL,adacemy,cursive,adacemy_c.png,,,,
,,,,30950,001,2025-10-16_20h22.20.347,HW_LDT_1,2024.2.4,MacIntel,59.88023952,,,,,,,,,,,,,,,,,,,,,,313.9201,314.1181,314.1181,314.6184,,,,,,,,,,,,,,1.9045,1,,,,,,,,,,,,,,z,,,,,,,,,,,,,,,,47,0,314.619,316.5352,z,1,1.9045,,[],[],[],[],[],[],[],316.5353,318.5351,318.5352,318.5355,[],[],[],[],[],[],[],,,,318.5356,318.5356,0.344429666,-0.133751608,0,0,0,,0,46,46,14,1,2,RL,insibate,cursive,insibate_c.png,,,,
,,,,30950,001,2025-10-16_20h22.20.347,HW_LDT_1,2024.2.4,MacIntel,59.88023952,,,,,,,,,,,,,,,,,,,,,,318.5369,318.7351,318.7352,319.2352,,,,,,,,,,,,,,2.8213,0,,,,,,,,,,,,,,m,,,,,,,,,,,,,,,,48,0,319.2358,322.0685,z,0,2.8213,,[],[],[],[],[],[],[],322.0686,324.0684,324.0685,324.0687,[],[],[],[],[],[],[],,,,324.0688,324.0689,0.344429666,-0.133751608,0,0,0,,0,47,47,111,1,2,word,INDICATE,cursive,indicate_c.png,,,,
,,,,30950,001,2025-10-16_20h22.20.347,HW_LDT_1,2024.2.4,MacIntel,59.88023952,,,,,,,,,,,,,,,,,,,,,,324.0702,324.268,324.268,324.7683,,,,,,,,,,,,,,1.1309,1,,,,,,,,,,,,,,z,,,,,,,,,,,,,,,,49,1,324.7689,325.902,z,1,1.1309,,[],[],[],[],[],[],[],325.902,327.9017,327.9018,329.5518,[],[],[],[],[],[],[],z,1.6388,,329.5519,329.5521,0.344429666,-0.133751608,0,0,0,,0,48,48,78,1,2,TL,stogare,print,stogare_p.png,,,,
,,,,30950,001,2025-10-16_20h22.20.347,HW_LDT_1,2024.2.4,MacIntel,59.88023952,,,,,,,,,,,,,,,,,,,,,,329.5534,329.7517,329.7517,330.2517,,,,,,,,,,,,,,2.0536,1,,,,,,,,,,,,,,z,,,,,,,,,,,,,,,,50,0,330.2523,332.3175,z,1,2.0536,,[],[],[],[],[],[],[],332.3175,334.3184,334.3185,334.3187,[],[],[],[],[],[],[],,,,334.3187,334.3189,0.344429666,-0.133751608,0,0,0,,0,49,49,41,1,2,TL,befenit,cursive,befenit_c.png,,,,
,,,,30950,001,2025-10-16_20h22.20.347,HW_LDT_1,2024.2.4,MacIntel,59.88023952,,,,,,,,,,,,,,,,,,,,,,334.3201,334.5184,334.5184,335.0184,,,,,,,,,,,,,,0.9971,1,,,,,,,,,,,,,,z,,,,,,,,,,,,,,,,51,0,335.0189,336.0185,z,1,0.9971,,[],[],[],[],[],[],[],336.0185,338.0184,338.0184,338.0187,[],[],[],[],[],[],[],,,,338.0187,338.0188,0.344429666,-0.133751608,0,0,0,,0,50,50,15,1,2,RL,linedal,print,linedal_p.png,,,,
,,,,30950,001,2025-10-16_20h22.20.347,HW_LDT_1,2024.2.4,MacIntel,59.88023952,,,,,,,,,,,,,,,,,,,,,,338.02,338.2183,338.2184,338.7184,,,,,,,,,,,,,,1.5711,1,,,,,,,,,,,,,,z,,,,,,,,,,,,,,,,52,0,338.719,340.302,z,1,1.5711,,[],[],[],[],[],[],[],340.302,342.3017,342.3018,342.302,[],[],[],[],[],[],[],,,,342.3021,342.3022,0.344429666,-0.133751608,0,0,0,,0,51,51,52,1,2,TL,elarobate,cursive,elarobate_c.png,,,,
,,,,30950,001,2025-10-16_20h22.20.347,HW_LDT_1,2024.2.4,MacIntel,59.88023952,,,,,,,,,,,,,,,,,,,,,,342.3034,342.5017,342.5018,343.0017,,,,,,,,,,,,,,1.5486,0,,,,,,,,,,,,,,m,,,,,,,,,,,,,,,,53,1,343.0021,344.5519,z,0,1.5486,,[],[],[],[],[],[],[],344.5519,346.5517,346.5517,348.2508,[],[],[],[],[],[],[],z,1.6984,,348.2509,348.251,0.344429666,-0.133751608,0,0,0,,0,52,52,90,1,2,word,CAPITAL,cursive,capital_c.png,,,,
,,,,30950,001,2025-10-16_20h22.20.347,HW_LDT_1,2024.2.4,MacIntel,59.88023952,,,,,,,,,,,,,,,,,,,,,,348.252,348.4517,348.4518,348.9517,,,,,,,,,,,,,,1.5702,1,,,,,,,,,,,,,,m,,,,,,,,,,,,,,,,54,0,348.9523,350.5352,m,1,1.5702,,[],[],[],[],[],[],[],350.5353,352.5341,352.5341,352.5342,[],[],[],[],[],[],[],,,,352.5343,352.5344,0.344429666,-0.133751608,0,0,0,,0,53,53,135,1,2,word,QUALITY,cursive,quality_c.png,,,,
,,,,30950,001,2025-10-16_20h22.20.347,HW_LDT_1,2024.2.4,MacIntel,59.88023952,,,,,,,,,,,,,,,,,,,,,,352.5355,352.7344,352.7344,353.235,,,,,,,,,,,,,,1.2818,0,,,,,,,,,,,,,,m,,,,,,,,,,,,,,,,55,0,353.2356,354.5184,z,0,1.2818,,[],[],[],[],[],[],[],354.5185,356.5183,356.5184,356.5186,[],[],[],[],[],[],[],,,,356.5187,356.5188,0.344429666,-0.133751608,0,0,0,,0,54,54,85,1,2,word,BENEFIT,cursive,benefit_c.png,,,,
,,,,30950,001,2025-10-16_20h22.20.347,HW_LDT_1,2024.2.4,MacIntel,59.88023952,,,,,,,,,,,,,,,,,,,,,,356.52,356.7183,356.7184,357.2184,,,,,,,,,,,,,,0.8306,1,,,,,,,,,,,,,,z,,,,,,,,,,,,,,,,56,0,357.219,358.0508,z,1,0.8306,,[],[],[],[],[],[],[],358.0508,360.0508,360.0509,360.0511,[],[],[],[],[],[],[],,,,360.0511,360.0511,0.344429666,-0.133751608,0,0,0,,0,55,55,50,1,2,TL,donimant,print,donimant_p.png,,,,
,,,,30950,001,2025-10-16_20h22.20.347,HW_LDT_1,2024.2.4,MacIntel,59.88023952,,,,,,,,,,,,,,,,,,,,,,360.0527,360.2517,360.2518,360.7517,,,,,,,,,,,,,,1.7876,1,,,,,,,,,,,,,,z,,,,,,,,,,,,,,,,57,0,360.7523,362.5519,z,1,1.7876,,[],[],[],[],[],[],[],362.552,364.5517,364.5518,364.5521,[],[],[],[],[],[],[],,,,364.5522,364.5522,0.344429666,-0.133751608,0,0,0,,0,56,56,1,1,2,RL,caleberia,print,caleberia_p.png,,,,
,,,,30950,001,2025-10-16_20h22.20.347,HW_LDT_1,2024.2.4,MacIntel,59.88023952,,,,,,,,,,,,,,,,,,,,,,364.5535,364.7517,364.7517,365.2508,,,,,,,,,,,,,,0.6642,1,,,,,,,,,,,,,,m,,,,,,,,,,,,,,,,58,0,365.2515,365.9185,m,1,0.6642,,[],[],[],[],[],[],[],365.9185,367.9183,367.9184,367.9186,[],[],[],[],[],[],[],,,,367.9187,367.9188,0.344429666,-0.133751608,0,0,0,,0,57,57,144,1,2,word,RESIDENT,print,resident_p.png,,,,
,,,,30950,001,2025-10-16_20h22.20.347,HW_LDT_1,2024.2.4,MacIntel,59.88023952,,,,,,,,,,,,,,,,,,,,,,367.92,368.1175,368.1175,368.6174,,,,,,,,,,,,,,0.598,1,,,,,,,,,,,,,,z,,,,,,,,,,,,,,,,59,0,368.6181,369.2184,z,1,0.598,,[],[],[],[],[],[],[],369.2185,371.2184,371.2184,371.2186,[],[],[],[],[],[],[],,,,371.2187,371.2188,0.344429666,-0.133751608,0,0,0,,0,58,58,21,1,2,RL,pamest,print,pamest_p.png,,,,
,,,,30950,001,2025-10-16_20h22.20.347,HW_LDT_1,2024.2.4,MacIntel,59.88023952,,,,,,,,,,,,,,,,,,,,,,371.2201,371.4175,371.4175,371.9183,,,,,,,,,,,,,,0.7379,1,,,,,,,,,,,,,,m,,,,,,,,,,,,,,,,60,0,371.919,372.6685,m,1,0.7379,,[],[],[],[],[],[],[],372.6686,374.6683,374.6684,374.6687,[],[],[],[],[],[],[],,,,374.6688,374.669,0.344429666,-0.133751608,0,0,0,,0,59,59,122,1,2,word,MOBILE,print,mobile_p.png,,,,
,,,,30950,001,2025-10-16_20h22.20.347,HW_LDT_1,2024.2.4,MacIntel,59.88023952,,,,,,,,,,,,,,,,,,,,,,374.6701,374.8685,374.8685,375.3674,,,,,,,,,,,,,,0.9724,1,,,,,,,,,,,,,,z,,,,,,,,,,,,,,,,61,0,375.368,376.3517,z,1,0.9724,,[],[],[],[],[],[],[],376.3519,378.3517,378.3517,378.3521,[],[],[],[],[],[],[],,,,378.3521,378.3522,0.344429666,-0.133751608,0,0,0,,0,60,60,63,1,2,TL,orinigal,print,orinigal_p.png,,,,
,,,,30950,001,2025-10-16_20h22.20.347,HW_LDT_1,2024.2.4,MacIntel,59.88023952,,,,,,,,,,,,,,,,,,,,,,378.3534,378.5517,378.5517,379.0517,,,,,,,,,,,,,,0.8226,1,,,,,,,,,,,,,,z,,,,,,,,,,,,,,,,62,0,379.0522,379.8851,z,1,0.8226,,[],[],[],[],[],[],[],379.8851,381.885,381.885,381.8852,[],[],[],[],[],[],[],,,,381.8852,381.8854,0.344429666,-0.133751608,0,0,0,,0,61,61,13,1,2,RL,helicage,print,helicage_p.png,,,,
,,,,30950,001,2025-10-16_20h22.20.347,HW_LDT_1,2024.2.4,MacIntel,59.88023952,,,,,,,,,,,,,,,,,,,,,,381.8866,382.0851,382.0851,382.5843,,,,,,,,,,,,,,0.6216,1,,,,,,,,,,,,,,z,,,,,,,,,,,,,,,,63,0,382.5849,383.2175,z,1,0.6216,,[],[],[],[],[],[],[],383.2176,385.2178,385.2179,385.2182,[],[],[],[],[],[],[],,,,385.2182,385.2183,0.344429666,-0.133751608,0,0,0,,0,62,62,72,1,2,TL,revomal,print,revomal_p.png,,,,
,,,,30950,001,2025-10-16_20h22.20.347,HW_LDT_1,2024.2.4,MacIntel,59.88023952,,,,,,,,,,,,,,,,,,,,,,385.2194,385.4183,385.4183,385.9184,,,,,,,,,,,,,,2.0363,1,,,,,,,,,,,,,,z,,,,,,,,,,,,,,,,64,0,385.9189,387.9673,z,1,2.0363,,[],[],[],[],[],[],[],387.9674,389.9684,389.9684,389.9687,[],[],[],[],[],[],[],,,,389.9687,389.9688,0.344429666,-0.133751608,0,0,0,,0,63,63,68,1,2,TL,quatily,cursive,quatily_c.png,,,,
,,,,30950,001,2025-10-16_20h22.20.347,HW_LDT_1,2024.2.4,MacIntel,59.88023952,,,,,,,,,,,,,,,,,,,,,,389.97,390.1675,390.1675,390.6683,,,,,,,,,,,,,,0.888,1,,,,,,,,,,,,,,z,,,,,,,,,,,,,,,,65,1,390.6688,391.5685,z,1,0.888,,[],[],[],[],[],[],[],391.5686,393.5684,393.5684,395.0684,[],[],[],[],[],[],[],m,1.4986,,395.0684,395.0686,0.344429666,-0.133751608,0,0,0,,0,64,64,60,1,2,TL,molibe,print,molibe_p.png,,,,
,,,,30950,001,2025-10-16_20h22.20.347,HW_LDT_1,2024.2.4,MacIntel,59.88023952,,,,,,,,,,,,,,,,,,,,,,395.0697,395.2683,395.2684,395.7683,,,,,,,,,,,,,,1.3975,1,,,,,,,,,,,,,,m,,,,,,,,,,,,,,,,66,0,395.7689,397.1684,m,1,1.3975,,[],[],[],[],[],[],[],397.1684,399.1683,399.1683,399.1684,[],[],[],[],[],[],[],,,,399.1685,399.1685,0.344429666,-0.133751608,0,0,0,,0,65,65,143,1,2,word,REMOVAL,print,removal_p.png,,,,
,,,,30950,001,2025-10-16_20h22.20.347,HW_LDT_1,2024.2.4,MacIntel,59.88023952,,,,,,,,,,,,,,,,,,,,,,399.1694,399.3684,399.3685,399.8684,,,,,,,,,,,,,,1.1034,1,,,,,,,,,,,,,,m,,,,,,,,,,,,,,,,67,1,399.869,400.9841,m,1,1.1034,,[],[],[],[],[],[],[],400.9842,402.985,402.9851,404.2518,[],[],[],[],[],[],[],z,1.2648,,404.2518,404.2519,0.344429666,-0.133751608,0,0,0,,0,66,66,141,1,2,word,RELIGION,cursive,religion_c.png,,,,
,,,,30950,001,2025-10-16_20h22.20.347,HW_LDT_1,2024.2.4,MacIntel,59.88023952,,,,,,,,,,,,,,,,,,,,,,404.253,404.4516,404.4517,404.9516,,,,,,,,,,,,,,0.9891,0,,,,,,,,,,,,,,m,,,,,,,,,,,,,,,,68,0,404.9522,405.9515,z,0,0.9891,,[],[],[],[],[],[],[],405.9516,407.9517,407.9517,407.9519,[],[],[],[],[],[],[],,,,407.9519,407.952,0.344429666,-0.133751608,0,0,0,,0,67,67,126,1,2,word,OPTIMAL,cursive,optimal_c.png,,,,
,,,,30950,001,2025-10-16_20h22.20.347,HW_LDT_1,2024.2.4,MacIntel,59.88023952,,,,,,,,,,,,,,,,,,,,,,407.9533,408.1516,408.1516,408.6516,,,,,,,,,,,,,,0.7471,1,,,,,,,,,,,,,,m,,,,,,,,,,,,,,,,69,0,408.6523,409.4016,m,1,0.7471,,[],[],[],[],[],[],[],409.4017,411.4008,411.4008,411.401,[],[],[],[],[],[],[],,,,411.401,411.4011,0.344429666,-0.133751608,0,0,0,,0,68,68,139,1,2,word,REGULAR,cursive,regular_c.png,,,,
,,,,30950,001,2025-10-16_20h22.20.347,HW_LDT_1,2024.2.4,MacIntel,59.88023952,,,,,,,,,,,,,,,,,,,,,,411.4023,411.6017,411.6017,412.1017,,,,,,,,,,,,,,1.3704,1,,,,,,,,,,,,,,z,,,,,,,,,,,,,,,,70,0,412.1023,413.4851,z,1,1.3704,,[],[],[],[],[],[],[],413.4852,415.4841,415.4841,415.4843,[],[],[],[],[],[],[],,,,415.4843,415.4845,0.344429666,-0.133751608,0,0,0,,0,69,69,34,1,2,RL,trilude,cursive,trilude_c.png,,,,
,,,,30950,001,2025-10-16_20h22.20.347,HW_LDT_1,2024.2.4,MacIntel,59.88023952,,,,,,,,,,,,,,,,,,,,,,415.4856,415.6844,415.6845,416.1851,,,,,,,,,,,,,,0.7874,1,,,,,,,,,,,,,,z,,,,,,,,,,,,,,,,71,0,416.1857,416.9851,z,1,0.7874,,[],[],[],[],[],[],[],416.9851,418.985,418.9851,418.9853,[],[],[],[],[],[],[],,,,418.9853,418.9854,0.344429666,-0.133751608,0,0,0,,0,70,70,8,1,2,RL,desifate,print,desifate_p.png,,,,
,,,,30950,001,2025-10-16_20h22.20.347,HW_LDT_1,2024.2.4,MacIntel,59.88023952,,,,,,,,,,,,,,,,,,,,,,418.9866,419.1842,419.1842,419.6841,,,,,,,,,,,,,,0.8381,1,,,,,,,,,,,,,,z,,,,,,,,,,,,,,,,72,1,419.6847,420.5342,z,1,0.8381,,[],[],[],[],[],[],[],420.5343,422.535,422.5351,424.1175,[],[],[],[],[],[],[],z,1.5713,,424.1176,424.1176,0.344429666,-0.133751608,0,0,0,,0,71,71,39,1,2,TL,aminal,print,aminal_p.png,,,,
,,,,30950,001,2025-10-16_20h22.20.347,HW_LDT_1,2024.2.4,MacIntel,59.88023952,,,,,,,,,,,,,,,,,,,,,,424.1187,424.3183,424.3183,424.8183,,,,,,,,,,,,,,1.356,1,,,,,,,,,,,,,,z,,,,,,,,,,,,,,,,73,0,424.8189,426.1849,z,1,1.356,,[],[],[],[],[],[],[],426.185,428.1849,428.185,428.1853,[],[],[],[],[],[],[],,,,428.1853,428.1854,0.344429666,-0.133751608,0,0,0,,0,72,72,20,1,2,RL,onegator,cursive,onegator_c.png,,,,
,,,,30950,001,2025-10-16_20h22.20.347,HW_LDT_1,2024.2.4,MacIntel,59.88023952,,,,,,,,,,,,,,,,,,,,,,428.1866,428.3848,428.3849,428.885,,,,,,,,,,,,,,2.2577,1,,,,,,,,,,,,,,m,,,,,,,,,,,,,,,,74,0,428.8856,431.1517,m,1,2.2577,,[],[],[],[],[],[],[],431.1518,433.1508,433.1508,433.151,[],[],[],[],[],[],[],,,,433.1512,433.1513,0.344429666,-0.133751608,0,0,0,,0,73,73,140,1,2,word,RELATIVE,print,relative_p.png,,,,
,,,,30950,001,2025-10-16_20h22.20.347,HW_LDT_1,2024.2.4,MacIntel,59.88023952,,,,,,,,,,,,,,,,,,,,,,433.1525,433.3517,433.3517,433.8509,,,,,,,,,,,,,,1.1916,1,,,,,,,,,,,,,,m,,,,,,,,,,,,,,,,75,0,433.8514,435.0517,m,1,1.1916,,[],[],[],[],[],[],[],435.0518,437.0516,437.0516,437.0519,[],[],[],[],[],[],[],,,,437.052,437.052,0.344429666,-0.133751608,0,0,0,,0,74,74,158,1,2,word,VELOCITY,print,velocity_p.png,,,,
,,,,30950,001,2025-10-16_20h22.20.347,HW_LDT_1,2024.2.4,MacIntel,59.88023952,,,,,,,,,,,,,,,,,,,,,,437.0533,437.2517,437.2518,437.7517,,,,,,,,,,,,,,0.6711,1,,,,,,,,,,,,,,m,,,,,,,,,,,,,,,,76,0,437.7522,438.4351,m,1,0.6711,,[],[],[],[],[],[],[],438.4352,440.435,440.4352,440.4353,[],[],[],[],[],[],[],,,,440.4353,440.4354,0.344429666,-0.133751608,0,0,0,,0,75,75,149,1,2,word,SENATOR,print,senator_p.png,,,,
,,,,30950,001,2025-10-16_20h22.20.347,HW_LDT_1,2024.2.4,MacIntel,59.88023952,,,,,,,,,,,,,,,,,,,,,,440.4366,440.635,440.635,441.1351,,,,,,,,,,,,,,1.0488,1,,,,,,,,,,,,,,m,,,,,,,,,,,,,,,,77,0,441.1357,442.1853,m,1,1.0488,,[],[],[],[],[],[],[],442.1854,444.1849,444.185,444.1852,[],[],[],[],[],[],[],,,,444.1852,444.1853,0.344429666,-0.133751608,0,0,0,,0,76,76,84,1,2,word,BELOVED,cursive,beloved_c.png,,,,
,,,,30950,001,2025-10-16_20h22.20.347,HW_LDT_1,2024.2.4,MacIntel,59.88023952,,,,,,,,,,,,,,,,,,,,,,444.1862,444.3849,444.385,444.885,,,,,,,,,,,,,,0.5789,1,,,,,,,,,,,,,,m,,,,,,,,,,,,,,,,78,0,444.8855,445.4673,m,1,0.5789,,[],[],[],[],[],[],[],445.4674,447.4683,447.4683,447.4686,[],[],[],[],[],[],[],,,,447.4686,447.4688,0.344429666,-0.133751608,0,0,0,,0,77,77,129,1,2,word,PARENT,print,parent_p.png,,,,
,,,,30950,001,2025-10-16_20h22.20.347,HW_LDT_1,2024.2.4,MacIntel,59.88023952,,,,,,,,,,,,,,,,,,,,,,447.47,447.6683,447.6683,448.1683,,,,,,,,,,,,,,0.8109,1,,,,,,,,,,,,,,m,,,,,,,,,,,,,,,,79,0,448.1689,448.9847,m,1,0.8109,,[],[],[],[],[],[],[],448.9848,450.9848,450.985,450.9852,[],[],[],[],[],[],[],,,,450.9852,450.9853,0.344429666,-0.133751608,0,0,0,,0,78,78,112,1,2,word,LIBERAL,print,liberal_p.png,,,,
,,,,30950,001,2025-10-16_20h22.20.347,HW_LDT_1,2024.2.4,MacIntel,59.88023952,,,,,,,,,,,,,,,,,,,,,,450.9863,451.185,451.1851,451.6851,,,,,,,,,,,,,,1.2709,1,,,,,,,,,,,,,,m,,,,,,,,,,,,,,,,80,0,451.6857,452.9683,m,1,1.2709,,[],[],[],[],[],[],[],452.9685,454.9683,454.9683,454.9686,[],[],[],[],[],[],[],,,,454.9686,482.4683,0.344429666,-0.133751608,0,0,0,space,0,79,79,98,1,2,word,CRIMINAL,cursive,criminal_c.png,27.4669,,,
,,,,30950,001,2025-10-16_20h22.20.347,HW_LDT_1,2024.2.4,MacIntel,59.88023952,,,,,,,,,,,,,,,,,,,,,,482.4692,482.6682,482.6683,483.1683,,,,,,,,,,,,,,1.2211,1,,,,,,,,,,,,,,z,,,,,,,,,,,,,,,,81,0,483.1689,484.4017,z,1,1.2211,,[],[],[],[],[],[],[],484.4019,486.4016,486.4017,486.4019,[],[],[],[],[],[],[],,,,486.402,486.402,0.344429666,-0.133751608,0,0,0,,0,80,80,42,1,2,TL,bedise,cursive,bedise_c.png,,,,
,,,,30950,001,2025-10-16_20h22.20.347,HW_LDT_1,2024.2.4,MacIntel,59.88023952,,,,,,,,,,,,,,,,,,,,,,486.4032,486.6016,486.6017,487.1016,,,,,,,,,,,,,,1.8047,1,,,,,,,,,,,,,,m,,,,,,,,,,,,,,,,82,0,487.1022,488.9184,m,1,1.8047,,[],[],[],[],[],[],[],488.9185,490.9182,490.9183,490.9185,[],[],[],[],[],[],[],,,,490.9185,490.9186,0.344429666,-0.133751608,0,0,0,,0,81,81,124,1,2,word,NUMERICAL,cursive,numerical_c.png,,,,
,,,,30950,001,2025-10-16_20h22.20.347,HW_LDT_1,2024.2.4,MacIntel,59.88023952,,,,,,,,,,,,,,,,,,,,,,490.9199,491.1183,491.1184,491.6183,,,,,,,,,,,,,,0.6145,1,,,,,,,,,,,,,,z,,,,,,,,,,,,,,,,83,0,491.6188,492.235,z,1,0.6145,,[],[],[],[],[],[],[],492.2351,494.2349,494.235,494.2352,[],[],[],[],[],[],[],,,,494.2352,494.2353,0.344429666,-0.133751608,0,0,0,,0,82,82,32,1,2,RL,speniven,print,speniven_p.png,,,,
,,,,30950,001,2025-10-16_20h22.20.347,HW_LDT_1,2024.2.4,MacIntel,59.88023952,,,,,,,,,,,,,,,,,,,,,,494.2367,494.4349,494.4349,494.9349,,,,,,,,,,,,,,1.1478,1,,,,,,,,,,,,,,m,,,,,,,,,,,,,,,,84,0,494.9355,496.0848,m,1,1.1478,,[],[],[],[],[],[],[],496.0848,498.0849,498.085,498.0851,[],[],[],[],[],[],[],,,,498.0851,498.0851,0.344429666,-0.133751608,0,0,0,,0,83,83,97,1,2,word,COVERAGE,cursive,coverage_c.png,,,,
,,,,30950,001,2025-10-16_20h22.20.347,HW_LDT_1,2024.2.4,MacIntel,59.88023952,,,,,,,,,,,,,,,,,,,,,,498.0862,498.2849,498.285,498.7844,,,,,,,,,,,,,,1.4155,0,,,,,,,,,,,,,,z,,,,,,,,,,,,,,,,85,0,498.7848,500.2016,m,0,1.4155,,[],[],[],[],[],[],[],500.2017,502.2017,502.2017,502.2019,[],[],[],[],[],[],[],,,,502.202,502.2021,0.344429666,-0.133751608,0,0,0,,0,84,84,61,1,2,TL,nuremical,cursive,nuremical_c.png,,,,
,,,,30950,001,2025-10-16_20h22.20.347,HW_LDT_1,2024.2.4,MacIntel,59.88023952,,,,,,,,,,,,,,,,,,,,,,502.2033,502.4016,502.4016,502.9015,,,,,,,,,,,,,,0.7974,1,,,,,,,,,,,,,,z,,,,,,,,,,,,,,,,86,0,502.9022,503.7016,z,1,0.7974,,[],[],[],[],[],[],[],503.7017,505.7016,505.7016,505.7019,[],[],[],[],[],[],[],,,,505.7019,505.702,0.344429666,-0.133751608,0,0,0,,0,85,85,70,1,2,TL,retalive,print,retalive_p.png,,,,
,,,,30950,001,2025-10-16_20h22.20.347,HW_LDT_1,2024.2.4,MacIntel,59.88023952,,,,,,,,,,,,,,,,,,,,,,505.7032,505.9016,505.9016,506.4015,,,,,,,,,,,,,,0.638,1,,,,,,,,,,,,,,z,,,,,,,,,,,,,,,,87,0,506.4021,507.0516,z,1,0.638,,[],[],[],[],[],[],[],507.0517,509.0517,509.0517,509.0518,[],[],[],[],[],[],[],,,,509.0519,509.0521,0.344429666,-0.133751608,0,0,0,,0,86,86,3,1,2,RL,capefory,print,capefory_p.png,,,,
,,,,30950,001,2025-10-16_20h22.20.347,HW_LDT_1,2024.2.4,MacIntel,59.88023952,,,,,,,,,,,,,,,,,,,,,,509.0533,509.2517,509.2517,509.7517,,,,,,,,,,,,,,0.688,1,,,,,,,,,,,,,,z,,,,,,,,,,,,,,,,88,0,509.7523,510.4517,z,1,0.688,,[],[],[],[],[],[],[],510.4518,512.4515,512.4516,512.4519,[],[],[],[],[],[],[],,,,512.452,512.452,0.344429666,-0.133751608,0,0,0,,0,87,87,43,1,2,TL,carema,print,carema_p.png,,,,
,,,,30950,001,2025-10-16_20h22.20.347,HW_LDT_1,2024.2.4,MacIntel,59.88023952,,,,,,,,,,,,,,,,,,,,,,512.4532,512.6516,512.6516,513.1516,,,,,,,,,,,,,,1.5138,1,,,,,,,,,,,,,,z,,,,,,,,,,,,,,,,89,0,513.1523,514.6682,z,1,1.5138,,[],[],[],[],[],[],[],514.6682,516.6683,516.6683,516.6686,[],[],[],[],[],[],[],,,,516.6687,516.6687,0.344429666,-0.133751608,0,0,0,,0,88,88,71,1,2,TL,retome,cursive,retome_c.png,,,,
,,,,30950,001,2025-10-16_20h22.20.347,HW_LDT_1,2024.2.4,MacIntel,59.88023952,,,,,,,,,,,,,,,,,,,,,,516.67,516.8683,516.8683,517.3682,,,,,,,,,,,,,,1.2879,1,,,,,,,,,,,,,,m,,,,,,,,,,,,,,,,90,0,517.3688,518.6675,m,1,1.2879,,[],[],[],[],[],[],[],518.6675,520.6681,520.6681,520.6682,[],[],[],[],[],[],[],,,,520.6683,520.6684,0.344429666,-0.133751608,0,0,0,,0,89,89,148,1,2,word,SALINE,cursive,saline_c.png,,,,
,,,,30950,001,2025-10-16_20h22.20.347,HW_LDT_1,2024.2.4,MacIntel,59.88023952,,,,,,,,,,,,,,,,,,,,,,520.6693,520.8683,520.8683,521.3673,,,,,,,,,,,,,,1.133,1,,,,,,,,,,,,,,z,,,,,,,,,,,,,,,,91,0,521.3679,522.5017,z,1,1.133,,[],[],[],[],[],[],[],522.5018,524.5015,524.5016,524.5017,[],[],[],[],[],[],[],,,,524.5018,524.502,0.344429666,-0.133751608,0,0,0,,0,90,90,66,1,2,TL,prodive,cursive,prodive_c.png,,,,
,,,,30950,001,2025-10-16_20h22.20.347,HW_LDT_1,2024.2.4,MacIntel,59.88023952,,,,,,,,,,,,,,,,,,,,,,524.503,524.7016,524.7016,525.2014,,,,,,,,,,,,,,0.682,1,,,,,,,,,,,,,,z,,,,,,,,,,,,,,,,92,0,525.2017,525.8846,z,1,0.682,,[],[],[],[],[],[],[],525.8847,527.885,527.885,527.8852,[],[],[],[],[],[],[],,,,527.8853,527.8854,0.344429666,-0.133751608,0,0,0,,0,91,91,36,1,2,RL,vecelan,print,vecelan_p.png,,,,
,,,,30950,001,2025-10-16_20h22.20.347,HW_LDT_1,2024.2.4,MacIntel,59.88023952,,,,,,,,,,,,,,,,,,,,,,527.8866,528.085,528.085,528.5849,,,,,,,,,,,,,,0.9813,1,,,,,,,,,,,,,,z,,,,,,,,,,,,,,,,93,0,528.5854,529.5684,z,1,0.9813,,[],[],[],[],[],[],[],529.5684,531.5683,531.5683,531.5686,[],[],[],[],[],[],[],,,,531.5686,531.5687,0.344429666,-0.133751608,0,0,0,,0,92,92,45,1,2,TL,carnidal,cursive,carnidal_c.png,,,,
,,,,30950,001,2025-10-16_20h22.20.347,HW_LDT_1,2024.2.4,MacIntel,59.88023952,,,,,,,,,,,,,,,,,,,,,,531.5699,531.7683,531.7684,532.2682,,,,,,,,,,,,,,0.9548,1,,,,,,,,,,,,,,m,,,,,,,,,,,,,,,,94,0,532.2688,533.2349,m,1,0.9548,,[],[],[],[],[],[],[],533.2351,535.2349,535.2351,535.2352,[],[],[],[],[],[],[],,,,535.2353,535.2354,0.344429666,-0.133751608,0,0,0,,0,93,93,151,1,2,word,SPECIFIC,print,specific_p.png,,,,
,,,,30950,001,2025-10-16_20h22.20.347,HW_LDT_1,2024.2.4,MacIntel,59.88023952,,,,,,,,,,,,,,,,,,,,,,535.2366,535.4339,535.4341,535.9349,,,,,,,,,,,,,,2.2212,0,,,,,,,,,,,,,,m,,,,,,,,,,,,,,,,95,0,535.9355,538.1683,z,0,2.2212,,[],[],[],[],[],[],[],538.1684,540.1684,540.1684,540.1687,[],[],[],[],[],[],[],,,,540.1687,540.1688,0.344429666,-0.133751608,0,0,0,,0,94,94,120,1,2,word,MILITARY,cursive,military_c.png,,,,
,,,,30950,001,2025-10-16_20h22.20.347,HW_LDT_1,2024.2.4,MacIntel,59.88023952,,,,,,,,,,,,,,,,,,,,,,540.1699,540.3684,540.3684,540.8681,,,,,,,,,,,,,,0.8984,0,,,,,,,,,,,,,,m,,,,,,,,,,,,,,,,96,0,540.8685,541.7682,z,0,0.8984,,[],[],[],[],[],[],[],541.7683,543.7682,543.7683,543.7685,[],[],[],[],[],[],[],,,,543.7685,543.7686,0.344429666,-0.133751608,0,0,0,,0,95,95,117,1,2,word,MARINE,cursive,marine_c.png,,,,
,,,,30950,001,2025-10-16_20h22.20.347,HW_LDT_1,2024.2.4,MacIntel,59.88023952,,,,,,,,,,,,,,,,,,,,,,543.7697,543.9682,543.9682,544.4682,,,,,,,,,,,,,,0.8079,1,,,,,,,,,,,,,,z,,,,,,,,,,,,,,,,97,0,544.4688,545.285,z,1,0.8079,,[],[],[],[],[],[],[],545.2851,547.2848,547.2849,547.2852,[],[],[],[],[],[],[],,,,547.2852,547.2853,0.344429666,-0.133751608,0,0,0,,0,96,96,73,1,2,TL,redisent,print,redisent_p.png,,,,
,,,,30950,001,2025-10-16_20h22.20.347,HW_LDT_1,2024.2.4,MacIntel,59.88023952,,,,,,,,,,,,,,,,,,,,,,547.2867,547.4849,547.4849,547.9849,,,,,,,,,,,,,,0.9047,1,,,,,,,,,,,,,,z,,,,,,,,,,,,,,,,98,1,547.9855,548.9017,z,1,0.9047,,[],[],[],[],[],[],[],548.9018,550.9016,550.9017,552.6351,[],[],[],[],[],[],[],z,1.7255,,552.6351,552.6352,0.344429666,-0.133751608,0,0,0,,0,97,97,48,1,2,TL,detabe,print,detabe_p.png,,,,
,,,,30950,001,2025-10-16_20h22.20.347,HW_LDT_1,2024.2.4,MacIntel,59.88023952,,,,,,,,,,,,,,,,,,,,,,552.6363,552.8349,552.8349,553.3348,,,,,,,,,,,,,,0.7042,1,,,,,,,,,,,,,,m,,,,,,,,,,,,,,,,99,0,553.3354,554.0516,m,1,0.7042,,[],[],[],[],[],[],[],554.0517,556.0515,556.0515,556.0517,[],[],[],[],[],[],[],,,,556.0518,556.0519,0.344429666,-0.133751608,0,0,0,,0,98,98,101,1,2,word,DELICATE,print,delicate_p.png,,,,
,,,,30950,001,2025-10-16_20h22.20.347,HW_LDT_1,2024.2.4,MacIntel,59.88023952,,,,,,,,,,,,,,,,,,,,,,556.0531,556.2515,556.2516,556.7514,,,,,,,,,,,,,,0.5882,1,,,,,,,,,,,,,,m,,,,,,,,,,,,,,,,100,0,556.7518,557.3516,m,1,0.5882,,[],[],[],[],[],[],[],557.3518,559.3516,559.3516,559.3518,[],[],[],[],[],[],[],,,,559.3519,559.3521,0.344429666,-0.133751608,0,0,0,,0,99,99,87,1,2,word,CAFETERIA,print,cafeteria_p.png,,,,
,,,,30950,001,2025-10-16_20h22.20.347,HW_LDT_1,2024.2.4,MacIntel,59.88023952,,,,,,,,,,,,,,,,,,,,,,559.3533,559.5516,559.5516,560.0515,,,,,,,,,,,,,,0.6472,1,,,,,,,,,,,,,,z,,,,,,,,,,,,,,,,101,1,560.0521,560.7016,z,1,0.6472,,[],[],[],[],[],[],[],560.7016,562.7016,562.7016,564.7349,[],[],[],[],[],[],[],z,2.0217,,564.735,564.7352,0.344429666,-0.133751608,0,0,0,,0,100,100,4,1,2,RL,cenesony,print,cenesony_p.png,,,,
,,,,30950,001,2025-10-16_20h22.20.347,HW_LDT_1,2024.2.4,MacIntel,59.88023952,,,,,,,,,,,,,,,,,,,,,,564.7363,564.9348,564.9349,565.4349,,,,,,,,,,,,,,1.5878,1,,,,,,,,,,,,,,m,,,,,,,,,,,,,,,,102,1,565.4354,567.035,m,1,1.5878,,[],[],[],[],[],[],[],567.035,569.0348,569.0349,570.2683,[],[],[],[],[],[],[],m,1.2213,,570.2684,570.2686,0.344429666,-0.133751608,0,0,0,,0,101,101,104,1,2,word,DOMINANT,print,dominant_p.png,,,,
,,,,30950,001,2025-10-16_20h22.20.347,HW_LDT_1,2024.2.4,MacIntel,59.88023952,,,,,,,,,,,,,,,,,,,,,,570.2698,570.4684,570.4684,570.9682,,,,,,,,,,,,,,1.1548,0,,,,,,,,,,,,,,m,,,,,,,,,,,,,,,,103,0,570.9688,572.135,z,0,1.1548,,[],[],[],[],[],[],[],572.1351,574.1349,574.1349,574.1351,[],[],[],[],[],[],[],,,,574.1351,574.1352,0.344429666,-0.133751608,0,0,0,,0,102,102,103,1,2,word,DISPUTE,cursive,dispute_c.png,,,,
,,,,30950,001,2025-10-16_20h22.20.347,HW_LDT_1,2024.2.4,MacIntel,59.88023952,,,,,,,,,,,,,,,,,,,,,,574.1364,574.3348,574.3349,574.8349,,,,,,,,,,,,,,1.2146,1,,,,,,,,,,,,,,z,,,,,,,,,,,,,,,,104,0,574.8355,576.0516,z,1,1.2146,,[],[],[],[],[],[],[],576.0517,578.0515,578.0515,578.0518,[],[],[],[],[],[],[],,,,578.0518,578.052,0.344429666,-0.133751608,0,0,0,,0,103,103,24,1,2,RL,rasibal,cursive,rasibal_c.png,,,,
,,,,30950,001,2025-10-16_20h22.20.347,HW_LDT_1,2024.2.4,MacIntel,59.88023952,,,,,,,,,,,,,,,,,,,,,,578.0532,578.2515,578.2516,578.7515,,,,,,,,,,,,,,1.5045,1,,,,,,,,,,,,,,z,,,,,,,,,,,,,,,,105,1,578.752,580.2676,z,1,1.5045,,[],[],[],[],[],[],[],580.2677,582.2682,582.2682,583.5016,[],[],[],[],[],[],[],z,1.2317,,583.5017,583.5018,0.344429666,-0.133751608,0,0,0,,0,104,104,5,1,2,RL,clisimal,cursive,clisimal_c.png,,,,
,,,,30950,001,2025-10-16_20h22.20.347,HW_LDT_1,2024.2.4,MacIntel,59.88023952,,,,,,,,,,,,,,,,,,,,,,583.5029,583.7014,583.7014,584.2015,,,,,,,,,,,,,,1.1212,1,,,,,,,,,,,,,,m,,,,,,,,,,,,,,,,106,0,584.2021,585.3349,m,1,1.1212,,[],[],[],[],[],[],[],585.335,587.3349,587.3349,587.3351,[],[],[],[],[],[],[],,,,587.3351,587.3352,0.344429666,-0.133751608,0,0,0,,0,105,105,136,1,2,word,RADICAL,cursive,radical_c.png,,,,
,,,,30950,001,2025-10-16_20h22.20.347,HW_LDT_1,2024.2.4,MacIntel,59.88023952,,,,,,,,,,,,,,,,,,,,,,587.3365,587.5348,587.5348,588.0348,,,,,,,,,,,,,,1.0992,0,,,,,,,,,,,,,,m,,,,,,,,,,,,,,,,107,0,588.0353,589.1352,z,0,1.0992,,[],[],[],[],[],[],[],589.1354,591.1349,591.1349,591.1351,[],[],[],[],[],[],[],,,,591.1352,591.1352,0.344429666,-0.133751608,0,0,0,,0,106,106,109,1,2,word,GRATEFUL,cursive,grateful_c.png,,,,
,,,,30950,001,2025-10-16_20h22.20.347,HW_LDT_1,2024.2.4,MacIntel,59.88023952,,,,,,,,,,,,,,,,,,,,,,591.1365,591.3348,591.3348,591.835,,,,,,,,,,,,,,1.0042,1,,,,,,,,,,,,,,m,,,,,,,,,,,,,,,,108,0,591.8356,592.8512,m,1,1.0042,,[],[],[],[],[],[],[],592.8513,594.8514,594.8514,594.8515,[],[],[],[],[],[],[],,,,594.8517,594.8517,0.344429666,-0.133751608,0,0,0,,0,107,107,133,1,2,word,PROVIDE,cursive,provide_c.png,,,,
,,,,30950,001,2025-10-16_20h22.20.347,HW_LDT_1,2024.2.4,MacIntel,59.88023952,,,,,,,,,,,,,,,,,,,,,,594.8526,595.0515,595.0515,595.5515,,,,,,,,,,,,,,0.7974,1,,,,,,,,,,,,,,z,,,,,,,,,,,,,,,,109,1,595.5521,596.3516,z,1,0.7974,,[],[],[],[],[],[],[],596.3517,598.3515,598.3515,599.8016,[],[],[],[],[],[],[],z,1.4386,,599.8017,599.8018,0.344429666,-0.133751608,0,0,0,,0,108,108,7,1,2,RL,cocewage,cursive,cocewage_c.png,,,,
,,,,30950,001,2025-10-16_20h22.20.347,HW_LDT_1,2024.2.4,MacIntel,59.88023952,,,,,,,,,,,,,,,,,,,,,,599.8032,600.0014,600.0015,600.5015,,,,,,,,,,,,,,0.6816,1,,,,,,,,,,,,,,m,,,,,,,,,,,,,,,,110,0,600.5021,601.1848,m,1,0.6816,,[],[],[],[],[],[],[],601.1849,603.1849,603.1849,603.1852,[],[],[],[],[],[],[],,,,603.1852,603.1854,0.344429666,-0.133751608,0,0,0,,0,109,109,110,1,2,word,HERITAGE,print,heritage_p.png,,,,
,,,,30950,001,2025-10-16_20h22.20.347,HW_LDT_1,2024.2.4,MacIntel,59.88023952,,,,,,,,,,,,,,,,,,,,,,603.1867,603.3848,603.3849,603.8847,,,,,,,,,,,,,,0.6218,1,,,,,,,,,,,,,,z,,,,,,,,,,,,,,,,111,0,603.8851,604.5182,z,1,0.6218,,[],[],[],[],[],[],[],604.5183,606.5181,606.5182,606.5185,[],[],[],[],[],[],[],,,,606.5185,606.5186,0.344429666,-0.133751608,0,0,0,,0,110,110,11,1,2,RL,formuke,print,formuke_p.png,,,,
,,,,30950,001,2025-10-16_20h22.20.347,HW_LDT_1,2024.2.4,MacIntel,59.88023952,,,,,,,,,,,,,,,,,,,,,,606.5198,606.7182,606.7182,607.2181,,,,,,,,,,,,,,0.9235,1,,,,,,,,,,,,,,z,,,,,,,,,,,,,,,,112,0,607.2187,608.1516,z,1,0.9235,,[],[],[],[],[],[],[],608.1517,610.1516,610.1516,610.1518,[],[],[],[],[],[],[],,,,610.1519,610.152,0.344429666,-0.133751608,0,0,0,,0,111,111,19,1,2,RL,monebate,cursive,monebate_c.png,,,,
,,,,30950,001,2025-10-16_20h22.20.347,HW_LDT_1,2024.2.4,MacIntel,59.88023952,,,,,,,,,,,,,,,,,,,,,,610.1533,610.3514,610.3515,610.8515,,,,,,,,,,,,,,0.7979,1,,,,,,,,,,,,,,m,,,,,,,,,,,,,,,,113,0,610.852,611.6516,m,1,0.7979,,[],[],[],[],[],[],[],611.6518,613.6515,613.6516,613.6518,[],[],[],[],[],[],[],,,,613.6518,613.6519,0.344429666,-0.133751608,0,0,0,,0,112,112,159,1,2,word,VETERAN,print,veteran_p.png,,,,
,,,,30950,001,2025-10-16_20h22.20.347,HW_LDT_1,2024.2.4,MacIntel,59.88023952,,,,,,,,,,,,,,,,,,,,,,613.6533,613.8514,613.8515,614.3515,,,,,,,,,,,,,,1.2808,1,,,,,,,,,,,,,,m,,,,,,,,,,,,,,,,114,0,614.352,615.634,m,1,1.2808,,[],[],[],[],[],[],[],615.634,617.6349,617.6349,617.6351,[],[],[],[],[],[],[],,,,617.6352,617.6353,0.344429666,-0.133751608,0,0,0,,0,113,113,91,1,2,word,CARDINAL,cursive,cardinal_c.png,,,,
,,,,30950,001,2025-10-16_20h22.20.347,HW_LDT_1,2024.2.4,MacIntel,59.88023952,,,,,,,,,,,,,,,,,,,,,,617.6365,617.8348,617.8348,618.3348,,,,,,,,,,,,,,1.0539,1,,,,,,,,,,,,,,m,,,,,,,,,,,,,,,,115,0,618.3354,619.4017,m,1,1.0539,,[],[],[],[],[],[],[],619.4017,621.4015,621.4015,621.4017,[],[],[],[],[],[],[],,,,621.4017,621.4019,0.344429666,-0.133751608,0,0,0,,0,114,114,157,1,2,word,VALIDITY,print,validity_p.png,,,,
,,,,30950,001,2025-10-16_20h22.20.347,HW_LDT_1,2024.2.4,MacIntel,59.88023952,,,,,,,,,,,,,,,,,,,,,,621.4032,621.6015,621.6015,622.1005,,,,,,,,,,,,,,0.5887,1,,,,,,,,,,,,,,m,,,,,,,,,,,,,,,,116,0,622.1011,622.7017,m,1,0.5887,,[],[],[],[],[],[],[],622.7018,624.7005,624.7006,624.7007,[],[],[],[],[],[],[],,,,624.7008,624.7009,0.344429666,-0.133751608,0,0,0,,0,115,115,93,1,2,word,CEREMONY,print,ceremony_p.png,,,,
,,,,30950,001,2025-10-16_20h22.20.347,HW_LDT_1,2024.2.4,MacIntel,59.88023952,,,,,,,,,,,,,,,,,,,,,,624.7021,624.9014,624.9015,625.4015,,,,,,,,,,,,,,0.7973,0,,,,,,,,,,,,,,m,,,,,,,,,,,,,,,,117,0,625.402,626.2015,z,0,0.7973,,[],[],[],[],[],[],[],626.2016,628.2015,628.2015,628.2017,[],[],[],[],[],[],[],,,,628.2017,628.2018,0.344429666,-0.133751608,0,0,0,,0,116,116,105,1,2,word,EDITOR,cursive,editor_c.png,,,,
,,,,30950,001,2025-10-16_20h22.20.347,HW_LDT_1,2024.2.4,MacIntel,59.88023952,,,,,,,,,,,,,,,,,,,,,,628.2031,628.4015,628.4015,628.9014,,,,,,,,,,,,,,0.6966,1,,,,,,,,,,,,,,m,,,,,,,,,,,,,,,,118,1,628.902,629.6006,m,1,0.6966,,[],[],[],[],[],[],[],629.6008,631.6015,631.6015,633.5015,[],[],[],[],[],[],[],z,1.889,,633.5016,633.5018,0.344429666,-0.133751608,0,0,0,,0,117,117,146,1,2,word,RETIRE,cursive,retire_c.png,,,,
,,,,30950,001,2025-10-16_20h22.20.347,HW_LDT_1,2024.2.4,MacIntel,59.88023952,,,,,,,,,,,,,,,,,,,,,,633.5032,633.7004,633.7005,634.2015,,,,,,,,,,,,,,1.2701,1,,,,,,,,,,,,,,z,,,,,,,,,,,,,,,,119,1,634.2021,635.4845,z,1,1.2701,,[],[],[],[],[],[],[],635.4846,637.4848,637.4848,638.3181,[],[],[],[],[],[],[],z,0.8317,,638.3182,638.3183,0.344429666,-0.133751608,0,0,0,,0,118,118,76,1,2,TL,senmitent,cursive,senmitent_c.png,,,,
,,,,30950,001,2025-10-16_20h22.20.347,HW_LDT_1,2024.2.4,MacIntel,59.88023952,,,,,,,,,,,,,,,,,,,,,,638.3193,638.5172,638.5173,639.0181,,,,,,,,,,,,,,0.7143,1,,,,,,,,,,,,,,m,,,,,,,,,,,,,,,,120,0,639.0187,639.7348,m,1,0.7143,,[],[],[],[],[],[],[],639.7348,641.7348,641.7348,641.735,[],[],[],[],[],[],[],,,,641.7351,641.7352,0.344429666,-0.133751608,0,0,0,,0,119,119,100,1,2,word,DECADE,print,decade_p.png,,,,
,,,,30950,001,2025-10-16_20h22.20.347,HW_LDT_1,2024.2.4,MacIntel,59.88023952,,,,,,,,,,,,,,,,,,,,,,641.7363,641.9348,641.9348,642.4341,,,,,,,,,,,,,,0.5821,1,,,,,,,,,,,,,,m,,,,,,,,,,,,,,,,121,0,642.4348,643.0182,m,1,0.5821,,[],[],[],[],[],[],[],643.0182,645.0182,645.0182,645.0184,[],[],[],[],[],[],[],,,,645.0184,645.0185,0.344429666,-0.133751608,0,0,0,,0,120,120,137,1,2,word,RAPIDLY,print,rapidly_p.png,,,,
,,,,30950,001,2025-10-16_20h22.20.347,HW_LDT_1,2024.2.4,MacIntel,59.88023952,,,,,,,,,,,,,,,,,,,,,,645.0197,645.2181,645.2182,645.7172,,,,,,,,,,,,,,0.9273,1,,,,,,,,,,,,,,z,,,,,,,,,,,,,,,,122,1,645.7178,646.6513,z,1,0.9273,,[],[],[],[],[],[],[],646.6514,648.6515,648.6515,649.5015,[],[],[],[],[],[],[],z,0.8484,,649.5015,649.5016,0.344429666,-0.133751608,0,0,0,,0,121,121,27,1,2,RL,repifion,cursive,repifion_c.png,,,,
,,,,30950,001,2025-10-16_20h22.20.347,HW_LDT_1,2024.2.4,MacIntel,59.88023952,,,,,,,,,,,,,,,,,,,,,,649.5027,649.701,649.7011,650.2014,,,,,,,,,,,,,,0.7377,1,,,,,,,,,,,,,,z,,,,,,,,,,,,,,,,123,0,650.202,650.9505,z,1,0.7377,,[],[],[],[],[],[],[],650.9506,652.9505,652.9506,652.9509,[],[],[],[],[],[],[],,,,652.9509,652.951,0.344429666,-0.133751608,0,0,0,,0,122,122,26,1,2,RL,retupar,cursive,retupar_c.png,,,,
,,,,30950,001,2025-10-16_20h22.20.347,HW_LDT_1,2024.2.4,MacIntel,59.88023952,,,,,,,,,,,,,,,,,,,,,,652.9521,653.1515,653.1515,653.6514,,,,,,,,,,,,,,1.0318,1,,,,,,,,,,,,,,z,,,,,,,,,,,,,,,,124,0,653.6521,654.6847,z,1,1.0318,,[],[],[],[],[],[],[],654.6849,656.6848,656.6848,656.685,[],[],[],[],[],[],[],,,,656.685,656.6852,0.344429666,-0.133751608,0,0,0,,0,123,123,49,1,2,TL,dedace,print,dedace_p.png,,,,
,,,,30950,001,2025-10-16_20h22.20.347,HW_LDT_1,2024.2.4,MacIntel,59.88023952,,,,,,,,,,,,,,,,,,,,,,656.6865,656.8848,656.8849,657.3848,,,,,,,,,,,,,,0.8043,1,,,,,,,,,,,,,,z,,,,,,,,,,,,,,,,125,0,657.3854,658.2015,z,1,0.8043,,[],[],[],[],[],[],[],658.2016,660.2055,660.2055,660.2056,[],[],[],[],[],[],[],,,,660.2056,660.2057,0.344429666,-0.133751608,0,0,0,,0,124,124,29,1,2,RL,samite,cursive,samite_c.png,,,,
,,,,30950,001,2025-10-16_20h22.20.347,HW_LDT_1,2024.2.4,MacIntel,59.88023952,,,,,,,,,,,,,,,,,,,,,,660.2065,660.4015,660.4016,660.9014,,,,,,,,,,,,,,0.9213,1,,,,,,,,,,,,,,m,,,,,,,,,,,,,,,,126,0,660.902,661.8348,m,1,0.9213,,[],[],[],[],[],[],[],661.8349,663.8348,663.8348,663.835,[],[],[],[],[],[],[],,,,663.8351,663.8352,0.344429666,-0.133751608,0,0,0,,0,125,125,107,1,2,word,EVIDENT,cursive,evident_c.png,,,,
,,,,30950,001,2025-10-16_20h22.20.347,HW_LDT_1,2024.2.4,MacIntel,59.88023952,,,,,,,,,,,,,,,,,,,,,,663.8364,664.0347,664.0348,664.534,,,,,,,,,,,,,,0.709,1,,,,,,,,,,,,,,z,,,,,,,,,,,,,,,,127,0,664.5346,665.2515,z,1,0.709,,[],[],[],[],[],[],[],665.2517,667.2514,667.2515,667.2517,[],[],[],[],[],[],[],,,,667.2518,667.2519,0.344429666,-0.133751608,0,0,0,,0,126,126,18,1,2,RL,mesibine,print,mesibine_p.png,,,,
,,,,30950,001,2025-10-16_20h22.20.347,HW_LDT_1,2024.2.4,MacIntel,59.88023952,,,,,,,,,,,,,,,,,,,,,,667.2531,667.4515,667.4515,667.9514,,,,,,,,,,,,,,0.637,1,,,,,,,,,,,,,,m,,,,,,,,,,,,,,,,128,0,667.9519,668.6015,m,1,0.637,,[],[],[],[],[],[],[],668.6016,670.6014,670.6015,670.6017,[],[],[],[],[],[],[],,,,670.6018,670.6019,0.344429666,-0.133751608,0,0,0,,0,127,127,99,1,2,word,DEBATE,print,debate_p.png,,,,
,,,,30950,001,2025-10-16_20h22.20.347,HW_LDT_1,2024.2.4,MacIntel,59.88023952,,,,,,,,,,,,,,,,,,,,,,670.6031,670.8014,670.8015,671.3014,,,,,,,,,,,,,,0.6542,0,,,,,,,,,,,,,,m,,,,,,,,,,,,,,,,129,0,671.302,671.968,z,0,0.6542,,[],[],[],[],[],[],[],671.9681,673.9681,673.9681,673.9683,[],[],[],[],[],[],[],,,,673.9684,673.9685,0.344429666,-0.133751608,0,0,0,,0,128,128,150,1,2,word,SENTIMENT,cursive,sentiment_c.png,,,,
,,,,30950,001,2025-10-16_20h22.20.347,HW_LDT_1,2024.2.4,MacIntel,59.88023952,,,,,,,,,,,,,,,,,,,,,,673.9696,674.1672,674.1673,674.6681,,,,,,,,,,,,,,1.1885,1,,,,,,,,,,,,,,z,,,,,,,,,,,,,,,,130,0,674.6686,675.868,z,1,1.1885,,[],[],[],[],[],[],[],675.8681,677.8681,677.8682,677.8684,[],[],[],[],[],[],[],,,,677.8685,677.8685,0.344429666,-0.133751608,0,0,0,,0,129,129,53,1,2,TL,edivent,cursive,edivent_c.png,,,,
,,,,30950,001,2025-10-16_20h22.20.347,HW_LDT_1,2024.2.4,MacIntel,59.88023952,,,,,,,,,,,,,,,,,,,,,,677.8699,678.0682,678.0682,678.568,,,,,,,,,,,,,,0.6309,1,,,,,,,,,,,,,,m,,,,,,,,,,,,,,,,131,0,678.5687,679.2015,m,1,0.6309,,[],[],[],[],[],[],[],679.2015,681.2014,681.2014,681.2017,[],[],[],[],[],[],[],,,,681.2018,681.2019,0.344429666,-0.133751608,0,0,0,,0,130,130,96,1,2,word,CONSIDER,print,consider_p.png,,,,
,,,,30950,001,2025-10-16_20h22.20.347,HW_LDT_1,2024.2.4,MacIntel,59.88023952,,,,,,,,,,,,,,,,,,,,,,681.2031,681.4014,681.4015,681.9015,,,,,,,,,,,,,,0.9909,0,,,,,,,,,,,,,,m,,,,,,,,,,,,,,,,132,0,681.902,682.9014,z,0,0.9909,,[],[],[],[],[],[],[],682.9015,684.9012,684.9013,684.9015,[],[],[],[],[],[],[],,,,684.9015,684.9016,0.344429666,-0.133751608,0,0,0,,0,131,131,86,1,2,word,BESIDE,cursive,beside_c.png,,,,
,,,,30950,001,2025-10-16_20h22.20.347,HW_LDT_1,2024.2.4,MacIntel,59.88023952,,,,,,,,,,,,,,,,,,,,,,684.9025,685.1016,685.1016,685.6006,,,,,,,,,,,,,,1.0885,1,,,,,,,,,,,,,,z,,,,,,,,,,,,,,,,133,0,685.6011,686.7006,z,1,1.0885,,[],[],[],[],[],[],[],686.7007,688.7014,688.7015,688.7017,[],[],[],[],[],[],[],,,,688.7018,688.7018,0.344429666,-0.133751608,0,0,0,,0,132,132,25,1,2,RL,rabigly,print,rabigly_p.png,,,,
,,,,30950,001,2025-10-16_20h22.20.347,HW_LDT_1,2024.2.4,MacIntel,59.88023952,,,,,,,,,,,,,,,,,,,,,,688.7031,688.9014,688.9014,689.4013,,,,,,,,,,,,,,0.8312,1,,,,,,,,,,,,,,m,,,,,,,,,,,,,,,,134,0,689.4016,690.2338,m,1,0.8312,,[],[],[],[],[],[],[],690.2339,692.2348,692.2349,692.235,[],[],[],[],[],[],[],,,,692.2351,692.2352,0.344429666,-0.133751608,0,0,0,,0,133,133,102,1,2,word,DENSITY,print,density_p.png,,,,
,,,,30950,001,2025-10-16_20h22.20.347,HW_LDT_1,2024.2.4,MacIntel,59.88023952,,,,,,,,,,,,,,,,,,,,,,692.2367,692.4348,692.4349,692.9347,,,,,,,,,,,,,,1.188,0,,,,,,,,,,,,,,z,,,,,,,,,,,,,,,,135,0,692.9354,694.1349,m,0,1.188,,[],[],[],[],[],[],[],694.135,696.1346,696.1346,696.1348,[],[],[],[],[],[],[],,,,696.1348,696.1349,0.344429666,-0.133751608,0,0,0,,0,134,134,56,1,2,TL,marnigal,cursive,marnigal_c.png,,,,
,,,,30950,001,2025-10-16_20h22.20.347,HW_LDT_1,2024.2.4,MacIntel,59.88023952,,,,,,,,,,,,,,,,,,,,,,696.1357,696.3347,696.3348,696.8348,,,,,,,,,,,,,,1.3547,1,,,,,,,,,,,,,,z,,,,,,,,,,,,,,,,136,0,696.8353,698.2015,z,1,1.3547,,[],[],[],[],[],[],[],698.2016,700.2014,700.2015,700.2017,[],[],[],[],[],[],[],,,,700.2017,700.2018,0.344429666,-0.133751608,0,0,0,,0,135,135,57,1,2,TL,meromy,cursive,meromy_c.png,,,,
,,,,30950,001,2025-10-16_20h22.20.347,HW_LDT_1,2024.2.4,MacIntel,59.88023952,,,,,,,,,,,,,,,,,,,,,,700.2031,700.4014,700.4014,700.9006,,,,,,,,,,,,,,0.689,1,,,,,,,,,,,,,,m,,,,,,,,,,,,,,,,137,0,700.9012,701.6015,m,1,0.689,,[],[],[],[],[],[],[],701.6015,703.6014,703.6015,703.6016,[],[],[],[],[],[],[],,,,703.6016,703.6018,0.344429666,-0.133751608,0,0,0,,0,136,136,152,1,2,word,SPECIMEN,print,specimen_p.png,,,,
,,,,30950,001,2025-10-16_20h22.20.347,HW_LDT_1,2024.2.4,MacIntel,59.88023952,,,,,,,,,,,,,,,,,,,,,,703.603,703.8014,703.8014,704.3013,,,,,,,,,,,,,,0.7415,1,,,,,,,,,,,,,,z,,,,,,,,,,,,,,,,138,0,704.3019,705.0514,z,1,0.7415,,[],[],[],[],[],[],[],705.0515,707.0514,707.0515,707.0516,[],[],[],[],[],[],[],,,,707.0517,707.0518,0.344429666,-0.133751608,0,0,0,,0,137,137,12,1,2,RL,gralekul,cursive,gralekul_c.png,,,,
,,,,30950,001,2025-10-16_20h22.20.347,HW_LDT_1,2024.2.4,MacIntel,59.88023952,,,,,,,,,,,,,,,,,,,,,,707.053,707.2513,707.2515,707.7514,,,,,,,,,,,,,,0.5869,1,,,,,,,,,,,,,,m,,,,,,,,,,,,,,,,139,0,707.7519,708.3516,m,1,0.5869,,[],[],[],[],[],[],[],708.3517,710.3514,710.3515,710.3516,[],[],[],[],[],[],[],,,,710.3517,710.3518,0.344429666,-0.133751608,0,0,0,,0,138,138,83,1,2,word,ANIMAL,print,animal_p.png,,,,
,,,,30950,001,2025-10-16_20h22.20.347,HW_LDT_1,2024.2.4,MacIntel,59.88023952,,,,,,,,,,,,,,,,,,,,,,710.3529,710.5505,710.5506,711.0514,,,,,,,,,,,,,,0.7394,1,,,,,,,,,,,,,,z,,,,,,,,,,,,,,,,140,0,711.052,711.8014,z,1,0.7394,,[],[],[],[],[],[],[],711.8015,713.8005,713.8006,713.8008,[],[],[],[],[],[],[],,,,713.8009,713.8009,0.344429666,-0.133751608,0,0,0,,0,139,139,58,1,2,TL,mitilary,cursive,mitilary_c.png,,,,
,,,,30950,001,2025-10-16_20h22.20.347,HW_LDT_1,2024.2.4,MacIntel,59.88023952,,,,,,,,,,,,,,,,,,,,,,713.8022,714.0014,714.0014,714.5014,,,,,,,,,,,,,,0.6876,1,,,,,,,,,,,,,,z,,,,,,,,,,,,,,,,141,0,714.5022,715.2014,z,1,0.6876,,[],[],[],[],[],[],[],715.2016,717.2006,717.2006,717.2008,[],[],[],[],[],[],[],,,,717.2009,717.201,0.344429666,-0.133751608,0,0,0,,0,140,140,77,1,2,TL,sloten,print,sloten_p.png,,,,
,,,,30950,001,2025-10-16_20h22.20.347,HW_LDT_1,2024.2.4,MacIntel,59.88023952,,,,,,,,,,,,,,,,,,,,,,717.2022,717.4014,717.4014,717.9013,,,,,,,,,,,,,,1.0138,1,,,,,,,,,,,,,,m,,,,,,,,,,,,,,,,142,0,717.902,718.9174,m,1,1.0138,,[],[],[],[],[],[],[],718.9175,720.9179,720.9179,720.9181,[],[],[],[],[],[],[],,,,720.9182,720.9183,0.344429666,-0.133751608,0,0,0,,0,141,141,82,1,2,word,AMATEUR,cursive,amateur_c.png,,,,
,,,,30950,001,2025-10-16_20h22.20.347,HW_LDT_1,2024.2.4,MacIntel,59.88023952,,,,,,,,,,,,,,,,,,,,,,720.9191,721.118,721.1181,721.6181,,,,,,,,,,,,,,0.5877,1,,,,,,,,,,,,,,m,,,,,,,,,,,,,,,,143,1,721.6187,722.2182,m,1,0.5877,,[],[],[],[],[],[],[],722.2183,724.218,724.2181,724.9515,[],[],[],[],[],[],[],z,0.722,,724.9516,724.9517,0.344429666,-0.133751608,0,0,0,,0,142,142,95,1,2,word,COMEDY,cursive,comedy_c.png,,,,
,,,,30950,001,2025-10-16_20h22.20.347,HW_LDT_1,2024.2.4,MacIntel,59.88023952,,,,,,,,,,,,,,,,,,,,,,724.953,725.1514,725.1515,725.6515,,,,,,,,,,,,,,2.4312,1,,,,,,,,,,,,,,m,,,,,,,,,,,,,,,,144,0,725.652,728.0849,m,1,2.4312,,[],[],[],[],[],[],[],728.085,730.0848,730.0849,730.085,[],[],[],[],[],[],[],,,,730.085,730.0851,0.344429666,-0.133751608,0,0,0,,0,143,143,134,1,2,word,QUALIFY,cursive,qualify_c.png,,,,
,,,,30950,001,2025-10-16_20h22.20.347,HW_LDT_1,2024.2.4,MacIntel,59.88023952,,,,,,,,,,,,,,,,,,,,,,730.0863,730.2847,730.2847,730.7847,,,,,,,,,,,,,,1.2714,1,,,,,,,,,,,,,,z,,,,,,,,,,,,,,,,145,0,730.7853,732.0673,z,1,1.2714,,[],[],[],[],[],[],[],732.0674,734.068,734.0681,734.0683,[],[],[],[],[],[],[],,,,734.0684,734.0684,0.344429666,-0.133751608,0,0,0,,0,144,144,30,1,2,RL,selamor,print,selamor_p.png,,,,
,,,,30950,001,2025-10-16_20h22.20.347,HW_LDT_1,2024.2.4,MacIntel,59.88023952,,,,,,,,,,,,,,,,,,,,,,734.0696,734.268,734.2681,734.7681,,,,,,,,,,,,,,0.7478,1,,,,,,,,,,,,,,z,,,,,,,,,,,,,,,,146,1,734.7687,735.5176,z,1,0.7478,,[],[],[],[],[],[],[],735.5176,737.5182,737.5182,739.0013,[],[],[],[],[],[],[],z,1.4804,,739.0013,739.0014,0.344429666,-0.133751608,0,0,0,,0,145,145,22,1,2,RL,posity,print,posity_p.png,,,,
,,,,30950,001,2025-10-16_20h22.20.347,HW_LDT_1,2024.2.4,MacIntel,59.88023952,,,,,,,,,,,,,,,,,,,,,,739.002,739.2005,739.2006,739.7014,,,,,,,,,,,,,,0.6547,1,,,,,,,,,,,,,,m,,,,,,,,,,,,,,,,147,0,739.7019,740.368,m,1,0.6547,,[],[],[],[],[],[],[],740.3681,742.368,742.368,742.3683,[],[],[],[],[],[],[],,,,742.3684,742.3685,0.344429666,-0.133751608,0,0,0,,0,146,146,147,1,2,word,ROMANTIC,print,romantic_p.png,,,,
,,,,30950,001,2025-10-16_20h22.20.347,HW_LDT_1,2024.2.4,MacIntel,59.88023952,,,,,,,,,,,,,,,,,,,,,,742.3696,742.5681,742.5681,743.0671,,,,,,,,,,,,,,0.5575,1,,,,,,,,,,,,,,m,,,,,,,,,,,,,,,,148,0,743.0678,743.6347,m,1,0.5575,,[],[],[],[],[],[],[],743.6347,745.6345,745.6346,745.6348,[],[],[],[],[],[],[],,,,745.6348,745.6348,0.344429666,-0.133751608,0,0,0,,0,147,147,89,1,2,word,CAPACITY,print,capacity_p.png,,,,
,,,,30950,001,2025-10-16_20h22.20.347,HW_LDT_1,2024.2.4,MacIntel,59.88023952,,,,,,,,,,,,,,,,,,,,,,745.6356,745.8347,745.8347,746.3347,,,,,,,,,,,,,,0.671,1,,,,,,,,,,,,,,m,,,,,,,,,,,,,,,,149,0,746.3353,747.0181,m,1,0.671,,[],[],[],[],[],[],[],747.0182,749.0181,749.0182,749.0184,[],[],[],[],[],[],[],,,,749.0185,749.0185,0.344429666,-0.133751608,0,0,0,,0,148,148,114,1,2,word,LOCATE,print,locate_p.png,,,,
,,,,30950,001,2025-10-16_20h22.20.347,HW_LDT_1,2024.2.4,MacIntel,59.88023952,,,,,,,,,,,,,,,,,,,,,,749.0199,749.2182,749.2183,749.718,,,,,,,,,,,,,,0.614,1,,,,,,,,,,,,,,z,,,,,,,,,,,,,,,,150,0,749.7187,750.3347,z,1,0.614,,[],[],[],[],[],[],[],750.3348,752.334,752.334,752.3342,[],[],[],[],[],[],[],,,,752.3342,752.3344,0.344429666,-0.133751608,0,0,0,,0,149,149,33,1,2,RL,strapely,cursive,strapely_c.png,,,,
,,,,30950,001,2025-10-16_20h22.20.347,HW_LDT_1,2024.2.4,MacIntel,59.88023952,,,,,,,,,,,,,,,,,,,,,,752.3353,752.5347,752.5347,753.0347,,,,,,,,,,,,,,0.5638,1,,,,,,,,,,,,,,m,,,,,,,,,,,,,,,,151,0,753.0353,753.6006,m,1,0.5638,,[],[],[],[],[],[],[],753.6007,755.6013,755.6014,755.6017,[],[],[],[],[],[],[],,,,755.6017,755.6019,0.344429666,-0.133751608,0,0,0,,0,150,150,153,1,2,word,STOLEN,print,stolen_p.png,,,,
,,,,30950,001,2025-10-16_20h22.20.347,HW_LDT_1,2024.2.4,MacIntel,59.88023952,,,,,,,,,,,,,,,,,,,,,,755.6031,755.8013,755.8013,756.3013,,,,,,,,,,,,,,0.5725,1,,,,,,,,,,,,,,m,,,,,,,,,,,,,,,,152,0,756.3019,756.8845,m,1,0.5725,,[],[],[],[],[],[],[],756.8845,758.8847,758.8847,758.8849,[],[],[],[],[],[],[],,,,758.885,758.8851,0.344429666,-0.133751608,0,0,0,,0,151,151,118,1,2,word,MEDICINE,print,medicine_p.png,,,,
,,,,30950,001,2025-10-16_20h22.20.347,HW_LDT_1,2024.2.4,MacIntel,59.88023952,,,,,,,,,,,,,,,,,,,,,,758.8863,759.0836,759.0836,759.5847,,,,,,,,,,,,,,0.7217,1,,,,,,,,,,,,,,z,,,,,,,,,,,,,,,,153,0,759.5852,760.3181,z,1,0.7217,,[],[],[],[],[],[],[],760.3182,762.318,762.318,762.3183,[],[],[],[],[],[],[],,,,762.3184,762.3185,0.344429666,-0.133751608,0,0,0,,0,152,152,65,1,2,TL,polupar,cursive,polupar_c.png,,,,
,,,,30950,001,2025-10-16_20h22.20.347,HW_LDT_1,2024.2.4,MacIntel,59.88023952,,,,,,,,,,,,,,,,,,,,,,762.3197,762.518,762.518,763.018,,,,,,,,,,,,,,0.7873,1,,,,,,,,,,,,,,m,,,,,,,,,,,,,,,,154,0,763.0185,763.8171,m,1,0.7873,,[],[],[],[],[],[],[],763.8172,765.8177,765.8177,765.8179,[],[],[],[],[],[],[],,,,765.8179,765.8181,0.344429666,-0.133751608,0,0,0,,0,153,153,94,1,2,word,CLINICAL,cursive,clinical_c.png,,,,
,,,,30950,001,2025-10-16_20h22.20.347,HW_LDT_1,2024.2.4,MacIntel,59.88023952,,,,,,,,,,,,,,,,,,,,,,765.8193,766.018,766.018,766.5181,,,,,,,,,,,,,,0.7546,1,,,,,,,,,,,,,,z,,,,,,,,,,,,,,,,155,0,766.5185,767.2848,z,1,0.7546,,[],[],[],[],[],[],[],767.2848,769.2847,769.2847,769.285,[],[],[],[],[],[],[],,,,769.2851,769.2852,0.344429666,-0.133751608,0,0,0,,0,154,154,62,1,2,TL,opmital,cursive,opmital_c.png,,,,
,,,,30950,001,2025-10-16_20h22.20.347,HW_LDT_1,2024.2.4,MacIntel,59.88023952,,,,,,,,,,,,,,,,,,,,,,769.2864,769.4847,769.4848,769.9847,,,,,,,,,,,,,,0.6645,1,,,,,,,,,,,,,,z,,,,,,,,,,,,,,,,156,0,769.9852,770.6515,z,1,0.6645,,[],[],[],[],[],[],[],770.6516,772.6513,772.6513,772.6515,[],[],[],[],[],[],[],,,,772.6515,772.6516,0.344429666,-0.133751608,0,0,0,,0,155,155,55,1,2,TL,lotace,print,lotace_p.png,,,,
,,,,30950,001,2025-10-16_20h22.20.347,HW_LDT_1,2024.2.4,MacIntel,59.88023952,,,,,,,,,,,,,,,,,,,,,,772.6526,772.8513,772.8514,773.3513,,,,,,,,,,,,,,0.6489,1,,,,,,,,,,,,,,m,,,,,,,,,,,,,,,,157,0,773.3519,774.0017,m,1,0.6489,,[],[],[],[],[],[],[],774.0018,776.0013,776.0014,776.0016,[],[],[],[],[],[],[],,,,776.0017,776.0018,0.344429666,-0.133751608,0,0,0,,0,156,156,128,1,2,word,PACIFIC,print,pacific_p.png,,,,
,,,,30950,001,2025-10-16_20h22.20.347,HW_LDT_1,2024.2.4,MacIntel,59.88023952,,,,,,,,,,,,,,,,,,,,,,776.003,776.2013,776.2013,776.7014,,,,,,,,,,,,,,0.6487,1,,,,,,,,,,,,,,z,,,,,,,,,,,,,,,,158,0,776.7019,777.3514,z,1,0.6487,,[],[],[],[],[],[],[],777.3516,779.3511,779.3511,779.3514,[],[],[],[],[],[],[],,,,779.3514,779.3514,0.344429666,-0.133751608,0,0,0,,0,157,157,23,1,2,RL,procogal,cursive,procogal_c.png,,,,
,,,,30950,001,2025-10-16_20h22.20.347,HW_LDT_1,2024.2.4,MacIntel,59.88023952,,,,,,,,,,,,,,,,,,,,,,779.3522,779.5513,779.5513,780.0514,,,,,,,,,,,,,,0.9878,1,,,,,,,,,,,,,,m,,,,,,,,,,,,,,,,159,0,780.0519,781.0513,m,1,0.9878,,[],[],[],[],[],[],[],781.0515,783.0514,783.0515,783.0516,[],[],[],[],[],[],[],,,,783.0517,783.0518,0.344429666,-0.133751608,0,0,0,,0,158,158,80,1,2,word,ACADEMY,cursive,academy_c.png,,,,
,,,,30950,001,2025-10-16_20h22.20.347,HW_LDT_1,2024.2.4,MacIntel,59.88023952,,,,,,,,,,,,,,,,,,,,,,783.053,783.2513,783.2514,783.7513,,,,,,,,,,,,,,0.5908,1,,,,,,,,,,,,,,m,,,,,,,,,,,,,,,,160,0,783.7521,784.3513,m,1,0.5908,,[],[],[],[],[],[],[],784.3514,786.3514,786.3514,786.3516,[],[],[],[],[],[],[],,,,786.3517,786.3518,0.344429666,-0.133751608,0,0,0,,0,159,159,108,1,2,word,FORTUNE,print,fortune_p.png,,,,
,,,,30950,001,2025-10-16_20h22.20.347,HW_LDT_1,2024.2.4,MacIntel,59.88023952,,,,,,,,,,,,,,,,,,,,,,,,,,,,,,,,,,,,,,,,,,,,,,,,,,,,,,,,,,,,,,,,,,,,,,,,,,,,,,,,,,,,,,,,,,,,,,,,,,,,,,,,,,,,,,,,,,,,,,,786.3619,791.3517
