counterbalance_lists.group,counterbalance_lists.remaining,get_list.started,get_list.stopped,participant,session,date,expName,psychopyVersion,OS,frameRate,Instructions.started,Instructions.stopped,key_resp.keys,key_resp.rt,key_resp.duration,instr_done_touch.x,instr_done_touch.y,instr_done_touch.leftButton,instr_done_touch.midButton,instr_done_touch.rightButton,start_instr.thisRepN,start_instr.thisTrialN,start_instr.thisN,start_instr.thisIndex,start_instr.ran,pageN,phase,instruct_text,has_image,instruct_image,showProgress.started,showProgress.stopped,fix.started,fix.stopped,prac.started,prac.stopped,response.keys,response.corr,response.rt,response.duration,touch_resp.x,touch_resp.y,touch_resp.leftButton,touch_resp.midButton,touch_resp.rightButton,touch_resp.time,touch_resp.clicked_name,rt,corr,feedback.started,feedback.stopped,trials.thisRepN,trials.thisTrialN,trials.thisN,trials.thisIndex,trials.ran,TrialID,StimulusType,Condition,PrimeDuration,Prime,Target,corrAns,Instructions_expt.started,Instructions_expt.stopped,key_resp_3.keys,key_resp_3.rt,key_resp_3.duration,instr_done_touch_3.x,instr_done_touch_3.y,instr_done_touch_3.leftButton,instr_done_touch_3.midButton,instr_done_touch_3.rightButton,instr_experiment.thisRepN,instr_experiment.thisTrialN,instr_experiment.thisN,instr_experiment.thisIndex,instr_experiment.ran,trialID,flag,maintask.started,maintask.stopped,key_resp_2.keys,key_resp_2.corr,key_resp_2.rt,key_resp_2.duration,targ_click.x,targ_click.y,targ_click.leftButton,targ_click.midButton,targ_click.rightButton,targ_click.time,targ_click.clicked_name,ITI.started,ITI.stopped,probe.started,probe.stopped,click_probe.x,click_probe.y,click_probe.leftButton,click_probe.midButton,click_probe.rightButton,click_probe.time,click_probe.clicked_name,key_resp_probe.keys,Break.started,Break.stopped,break_done_touch.x,break_done_touch.y,break_done_touch.leftButton,break_done_touch.midButton,break_done_touch.rightButton,break_done_keyboard.keys,list1_trials.thisRepN,list1_trials.thisTrialN,list1_trials.thisN,list1_trials.thisIndex,list1_trials.ran,list_id,item_type,string,font,stim_file,key_resp_probe.rt,key_resp_probe.duration,break_done_keyboard.rt,break_done_keyboard.duration,End.started,End.stopped
list1,,0.454,0.4541,30971,001,2025-12-05_14h36.38.904,HW_LDT_1,2024.2.4,MacIntel,60.24096386,,,,,,,,,,,,,,,,,,,,,,,,,,,,,,,,,,,,,,,,,,,,,,,,,,,,,,,,,,,,,,,,,,,,,,,,,,,,,,,,,,,,,,,,,,,,,,,,,,,,,,,,,,,,,,,,,,,,,,,
,,,,30971,001,2025-12-05_14h36.38.904,HW_LDT_1,2024.2.4,MacIntel,60.24096386,0.473,25.6349,space,25.1403,,-0.168546824,-0.183015676,0,0,0,0,0,0,0,1,1,instructions,"INSTRUCTIONS
At the start of each trial, look at the plus sign  (+) in the center of the screen.  This tells you that a trial is about to begin and where to look. Second, the plus sign will disappear and a string of letters will appear. Your task is to determine if the string of letters is a word or not. If the item is a word press the M key (on keyboard)  or touch the word button (phone/tablet).  If the item is not a word,  press the  Z key (on keyboard)  or touch the nonword button (on phone/tablet). The items will be presented for a short time. 
Press the space bar or touch  continue.",0,,,,,,,,,,,,,,,,,,,,,,,,,,,,,,,,,,,,,,,,,,,,,,,,,,,,,,,,,,,,,,,,,,,,,,,,,,,,,,,,,,,,,,,,,,,,,,,,,,,,
,,,,30971,001,2025-12-05_14h36.38.904,HW_LDT_1,2024.2.4,MacIntel,60.24096386,25.6359,31.2173,space,5.5611,,-0.168546824,-0.183015676,0,0,0,0,1,1,1,1,2,instructions,"If your device has a keyboard, press the 'Z' key for nonwords and the 'M' key for words.





Press the space bar or touch the button below to continue.",0,keyboard-example.gif,,,,,,,,,,,,,,,,,,,,,,,,,,,,,,,,,,,,,,,,,,,,,,,,,,,,,,,,,,,,,,,,,,,,,,,,,,,,,,,,,,,,,,,,,,,,,,,,,,,
,,,,30971,001,2025-12-05_14h36.38.904,HW_LDT_1,2024.2.4,MacIntel,60.24096386,31.219,32.5683,space,1.3182,,-0.168546824,-0.183015676,0,0,0,0,2,2,2,1,3,instructions,"If you are using a touchscreen only device, use the buttons on the screen. Do not use the mouse.





Press the space bar or touch the button below to continue.",0,touchscreen-example.gif,,,,,,,,,,,,,,,,,,,,,,,,,,,,,,,,,,,,,,,,,,,,,,,,,,,,,,,,,,,,,,,,,,,,,,,,,,,,,,,,,,,,,,,,,,,,,,,,,,,
,,,,30971,001,2025-12-05_14h36.38.904,HW_LDT_1,2024.2.4,MacIntel,60.24096386,32.5702,41.8507,space,9.2512,,-0.168546824,-0.183015676,0,0,0,0,3,3,3,1,4,instructions,"It is very important that you respond as quickly and accurately as possible, as each letter string will only be on the screen for two seconds. If you do not respond within this time, the message 'Too slow!' will be displayed and the experiment will progress to the next letter string. The first 20 trials will be practice trials and you will receive feedback on your answers. 

Press the space bar or touch the button below to start the practice trials.",0,,,,,,,,,,,,,,,,,,,,,,,,,,,,,,,,,,,,,,,,,,,,,,,,,,,,,,,,,,,,,,,,,,,,,,,,,,,,,,,,,,,,,,,,,,,,,,,,,,,,
,,,,30971,001,2025-12-05_14h36.38.904,HW_LDT_1,2024.2.4,MacIntel,60.24096386,,,,,,,,,,,,,,,,,,,,,41.8762,42.0516,42.0519,42.5509,42.5513,44.0849,z,1,1.5048,,[],[],[],[],[],[],[],1.5048,1,44.0854,44.5846,0,0,0,9,1,1010,NW,"ID",33,fariny,FARINY,z,,,,,,,,,,,,,,,,,,,,,,,,,,,,,,,,,,,,,,,,,,,,,,,,,,,,,,,,,,,,,,,,,,
,,,,30971,001,2025-12-05_14h36.38.904,HW_LDT_1,2024.2.4,MacIntel,60.24096386,,,,,,,,,,,,,,,,,,,,,44.5864,44.7847,44.7848,45.2836,45.2849,46.1513,z,1,0.8456,,[],[],[],[],[],[],[],0.8456,1,46.1515,46.6505,0,1,1,15,1,1016,NW,UN,16,mushed,WHAISE,z,,,,,,,,,,,,,,,,,,,,,,,,,,,,,,,,,,,,,,,,,,,,,,,,,,,,,,,,,,,,,,,,,,
,,,,30971,001,2025-12-05_14h36.38.904,HW_LDT_1,2024.2.4,MacIntel,60.24096386,,,,,,,,,,,,,,,,,,,,,46.6522,46.8512,46.8514,47.3503,47.3516,47.9689,m,1,0.6066,,[],[],[],[],[],[],[],0.6066,1,47.9691,48.4671,0,2,2,5,1,1006,WORD,UN,33,frenzy,OBTAIN,m,,,,,,,,,,,,,,,,,,,,,,,,,,,,,,,,,,,,,,,,,,,,,,,,,,,,,,,,,,,,,,,,,,
,,,,30971,001,2025-12-05_14h36.38.904,HW_LDT_1,2024.2.4,MacIntel,60.24096386,,,,,,,,,,,,,,,,,,,,,48.4686,48.6679,48.668,49.1669,49.1681,49.767,m,1,0.5799,,[],[],[],[],[],[],[],0.5799,1,49.7671,50.267,0,3,3,1,1,1002,WORD,"ID",33,adjust,ADJUST,m,,,,,,,,,,,,,,,,,,,,,,,,,,,,,,,,,,,,,,,,,,,,,,,,,,,,,,,,,,,,,,,,,,
,,,,30971,001,2025-12-05_14h36.38.904,HW_LDT_1,2024.2.4,MacIntel,60.24096386,,,,,,,,,,,,,,,,,,,,,50.2685,50.4679,50.468,50.9669,50.9681,51.468,m,1,0.4796,,[],[],[],[],[],[],[],0.4796,1,51.4682,51.9671,0,4,4,7,1,1008,WORD,UN,16,hurdle,VOLUME,m,,,,,,,,,,,,,,,,,,,,,,,,,,,,,,,,,,,,,,,,,,,,,,,,,,,,,,,,,,,,,,,,,,
,,,,30971,001,2025-12-05_14h36.38.904,HW_LDT_1,2024.2.4,MacIntel,60.24096386,,,,,,,,,,,,,,,,,,,,,51.9685,52.1669,52.167,52.6669,52.668,53.5513,m,0,0.8636,,[],[],[],[],[],[],[],0.8636,0,53.5524,54.0513,0,5,5,8,1,1009,NW,"ID",33,aslert,ASLERT,z,,,,,,,,,,,,,,,,,,,,,,,,,,,,,,,,,,,,,,,,,,,,,,,,,,,,,,,,,,,,,,,,,,
,,,,30971,001,2025-12-05_14h36.38.904,HW_LDT_1,2024.2.4,MacIntel,60.24096386,,,,,,,,,,,,,,,,,,,,,54.0528,54.2514,54.2514,54.7512,54.7523,55.418,m,1,0.6556,,[],[],[],[],[],[],[],0.6556,1,55.4191,55.9172,0,6,6,3,1,1004,WORD,"ID",16,matrix,MATRIX,m,,,,,,,,,,,,,,,,,,,,,,,,,,,,,,,,,,,,,,,,,,,,,,,,,,,,,,,,,,,,,,,,,,
,,,,30971,001,2025-12-05_14h36.38.904,HW_LDT_1,2024.2.4,MacIntel,60.24096386,,,,,,,,,,,,,,,,,,,,,55.9186,56.118,56.118,56.6171,56.618,57.5845,m,1,0.9488,,[],[],[],[],[],[],[],0.9488,1,57.5846,58.0846,0,7,7,2,1,1003,WORD,"ID",16,almond,ALMOND,m,,,,,,,,,,,,,,,,,,,,,,,,,,,,,,,,,,,,,,,,,,,,,,,,,,,,,,,,,,,,,,,,,,
,,,,30971,001,2025-12-05_14h36.38.904,HW_LDT_1,2024.2.4,MacIntel,60.24096386,,,,,,,,,,,,,,,,,,,,,58.0862,58.2846,58.2846,58.7846,58.7858,59.4513,m,1,0.6447,,[],[],[],[],[],[],[],0.6447,1,59.4514,59.9513,0,8,8,4,1,1005,WORD,UN,33,abound,SQUEAK,m,,,,,,,,,,,,,,,,,,,,,,,,,,,,,,,,,,,,,,,,,,,,,,,,,,,,,,,,,,,,,,,,,,
,,,,30971,001,2025-12-05_14h36.38.904,HW_LDT_1,2024.2.4,MacIntel,60.24096386,,,,,,,,,,,,,,,,,,,,,59.9528,60.1502,60.1503,60.6513,60.6523,61.5846,z,1,0.9154,,[],[],[],[],[],[],[],0.9154,1,61.5848,62.0846,0,9,9,13,1,1014,NW,UN,33,winfer,ROUPET,z,,,,,,,,,,,,,,,,,,,,,,,,,,,,,,,,,,,,,,,,,,,,,,,,,,,,,,,,,,,,,,,,,,
,,,,30971,001,2025-12-05_14h36.38.904,HW_LDT_1,2024.2.4,MacIntel,60.24096386,,,,,,,,,,,,,,,,,,,,,62.0861,62.2846,62.2846,62.7838,62.7848,63.4678,m,1,0.6624,,[],[],[],[],[],[],[],0.6624,1,63.468,63.967,0,10,10,0,1,1001,WORD,"ID",33,utopia,UTOPIA,m,,,,,,,,,,,,,,,,,,,,,,,,,,,,,,,,,,,,,,,,,,,,,,,,,,,,,,,,,,,,,,,,,,
,,,,30971,001,2025-12-05_14h36.38.904,HW_LDT_1,2024.2.4,MacIntel,60.24096386,,,,,,,,,,,,,,,,,,,,,63.9684,64.1669,64.167,64.6679,64.669,65.5179,z,1,0.8281,,[],[],[],[],[],[],[],0.8281,1,65.5181,66.018,0,11,11,14,1,1015,NW,UN,16,miaber,THRALE,z,,,,,,,,,,,,,,,,,,,,,,,,,,,,,,,,,,,,,,,,,,,,,,,,,,,,,,,,,,,,,,,,,,
,,,,30971,001,2025-12-05_14h36.38.904,HW_LDT_1,2024.2.4,MacIntel,60.24096386,,,,,,,,,,,,,,,,,,,,,66.0194,66.218,66.218,66.7169,66.718,67.4846,m,0,0.7455,,[],[],[],[],[],[],[],0.7455,0,67.4854,67.9844,0,12,12,11,1,1012,NW,"ID",16,rashet,RASHET,z,,,,,,,,,,,,,,,,,,,,,,,,,,,,,,,,,,,,,,,,,,,,,,,,,,,,,,,,,,,,,,,,,,
,,,,30971,001,2025-12-05_14h36.38.904,HW_LDT_1,2024.2.4,MacIntel,60.24096386,,,,,,,,,,,,,,,,,,,,,67.9858,68.1846,68.1846,68.6846,68.6856,69.7169,z,1,1.0105,,[],[],[],[],[],[],[],1.0105,1,69.7177,70.218,0,13,13,12,1,1013,NW,UN,33,adveil,SPRINY,z,,,,,,,,,,,,,,,,,,,,,,,,,,,,,,,,,,,,,,,,,,,,,,,,,,,,,,,,,,,,,,,,,,
,,,,30971,001,2025-12-05_14h36.38.904,HW_LDT_1,2024.2.4,MacIntel,60.24096386,,,,,,,,,,,,,,,,,,,,,70.2194,70.4179,70.4179,70.9179,70.9189,71.8011,z,1,0.8617,,[],[],[],[],[],[],[],0.8617,1,71.8012,72.3009,0,14,14,10,1,1011,NW,"ID",16,inlade,INLADE,z,,,,,,,,,,,,,,,,,,,,,,,,,,,,,,,,,,,,,,,,,,,,,,,,,,,,,,,,,,,,,,,,,,
,,,,30971,001,2025-12-05_14h36.38.904,HW_LDT_1,2024.2.4,MacIntel,60.24096386,,,,,,,,,,,,,,,,,,,,,72.3014,72.5003,72.5003,73.0013,73.0023,73.7847,m,1,0.7642,,[],[],[],[],[],[],[],0.7642,1,73.7848,74.2844,0,15,15,6,1,1007,WORD,UN,16,tropic,ZOMBIE,m,,,,,,,,,,,,,,,,,,,,,,,,,,,,,,,,,,,,,,,,,,,,,,,,,,,,,,,,,,,,,,,,,,
,,,,30971,001,2025-12-05_14h36.38.904,HW_LDT_1,2024.2.4,MacIntel,60.24096386,,,,,,,,,,,,,,,,1,end_of_practice,"You have completed the practice trials. During the experimental trials, you will not receive feedback. On some trials you will be asked to report whether the item you just saw was in cursive or print. 
Before you begin, please ensure that you are in a comfortable and quiet location and will not be disturbed for about 15 minutes, as we cannot use your data if you do not complete all the trials. 
 When you are ready to start the experimental trials, please press space or touch the button below.",,,,,,,,,,,,,,,,,,,,,,,,,,,,,,,,,,,,74.286,88.8519,space,14.5451,,-0.168546824,-0.183015676,0,0,0,0,0,0,0,1,,,,,,,,,,,,,,,,,,,,,,,,,,,,,,,,,,,,,,,,,,,,,,,,,,,
,,,,30971,001,2025-12-05_14h36.38.904,HW_LDT_1,2024.2.4,MacIntel,60.24096386,,,,,,,,,,,,,,,,,,,,,88.8618,89.0512,89.0512,89.5513,,,,,,,,,,,,,,1.6506,0,,,,,,,,,,,,,,z,,,,,,,,,,,,,,,,1,0,89.553,91.2184,m,0,1.6506,,[],[],[],[],[],[],[],91.2186,93.2182,93.2185,93.2217,[],[],[],[],[],[],[],,93.2217,93.2231,-0.168546824,-0.183015676,0,0,0,,0,0,0,50,1,1,TL,condiser,cursive,condiser_c.png,,,,,,
,,,,30971,001,2025-12-05_14h36.38.904,HW_LDT_1,2024.2.4,MacIntel,60.24096386,,,,,,,,,,,,,,,,,,,,,93.224,93.4174,93.4175,93.9169,,,,,,,,,,,,,,0.7371,1,,,,,,,,,,,,,,m,,,,,,,,,,,,,,,,2,0,93.9176,94.6681,m,1,0.7371,,[],[],[],[],[],[],[],94.6682,96.6679,96.6681,96.6683,[],[],[],[],[],[],[],,96.6683,96.6684,-0.168546824,-0.183015676,0,0,0,,0,1,1,128,1,1,word,PACIFIC,print,pacific_p.png,,,,,,
,,,,30971,001,2025-12-05_14h36.38.904,HW_LDT_1,2024.2.4,MacIntel,60.24096386,,,,,,,,,,,,,,,,,,,,,96.6697,96.8679,96.868,97.3669,,,,,,,,,,,,,,0.8462,1,,,,,,,,,,,,,,z,,,,,,,,,,,,,,,,3,0,97.3676,98.2172,z,1,0.8462,,[],[],[],[],[],[],[],98.2173,100.2169,100.2171,100.2173,[],[],[],[],[],[],[],,100.2173,100.2175,-0.168546824,-0.183015676,0,0,0,,0,2,2,67,1,1,TL,pocily,cursive,pocily_c.png,,,,,,
,,,,30971,001,2025-12-05_14h36.38.904,HW_LDT_1,2024.2.4,MacIntel,60.24096386,,,,,,,,,,,,,,,,,,,,,100.2187,100.4179,100.4179,100.9179,,,,,,,,,,,,,,1.362,1,,,,,,,,,,,,,,z,,,,,,,,,,,,,,,,4,0,100.9186,102.2844,z,1,1.362,,[],[],[],[],[],[],[],102.2844,104.2846,104.2847,104.285,[],[],[],[],[],[],[],,104.285,104.2851,-0.168546824,-0.183015676,0,0,0,,0,3,3,63,1,1,TL,molibe,cursive,molibe_c.png,,,,,,
,,,,30971,001,2025-12-05_14h36.38.904,HW_LDT_1,2024.2.4,MacIntel,60.24096386,,,,,,,,,,,,,,,,,,,,,104.2864,104.4836,104.4837,104.9843,,,,,,,,,,,,,,1.423,1,,,,,,,,,,,,,,z,,,,,,,,,,,,,,,,5,0,104.9848,106.417,z,1,1.423,,[],[],[],[],[],[],[],106.4172,108.4179,108.418,108.4183,[],[],[],[],[],[],[],,108.4184,108.4185,-0.168546824,-0.183015676,0,0,0,,0,4,4,33,1,1,RL,recile,cursive,recile_c.png,,,,,,
,,,,30971,001,2025-12-05_14h36.38.904,HW_LDT_1,2024.2.4,MacIntel,60.24096386,,,,,,,,,,,,,,,,,,,,,108.4198,108.6169,108.6169,109.1179,,,,,,,,,,,,,,0.6872,1,,,,,,,,,,,,,,m,,,,,,,,,,,,,,,,6,0,109.1186,109.818,m,1,0.6872,,[],[],[],[],[],[],[],109.8182,111.8179,111.818,111.8184,[],[],[],[],[],[],[],,111.8184,111.8186,-0.168546824,-0.183015676,0,0,0,,0,5,5,124,1,1,word,NUMERICAL,print,numerical_p.png,,,,,,
,,,,30971,001,2025-12-05_14h36.38.904,HW_LDT_1,2024.2.4,MacIntel,60.24096386,,,,,,,,,,,,,,,,,,,,,111.8199,112.018,112.0181,112.518,,,,,,,,,,,,,,1.28,1,,,,,,,,,,,,,,z,,,,,,,,,,,,,,,,7,0,112.5186,113.8013,z,1,1.28,,[],[],[],[],[],[],[],113.8014,115.8005,115.8007,115.801,[],[],[],[],[],[],[],,115.801,115.8012,-0.168546824,-0.183015676,0,0,0,,0,6,6,2,1,1,RL,asiral,print,asiral_p.png,,,,,,
,,,,30971,001,2025-12-05_14h36.38.904,HW_LDT_1,2024.2.4,MacIntel,60.24096386,,,,,,,,,,,,,,,,,,,,,115.8025,116.0002,116.0003,116.5002,,,,,,,,,,,,,,0.6644,1,,,,,,,,,,,,,,m,,,,,,,,,,,,,,,,8,0,116.5009,117.168,m,1,0.6644,,[],[],[],[],[],[],[],117.1681,119.1679,119.168,119.1684,[],[],[],[],[],[],[],,119.1684,119.1684,-0.168546824,-0.183015676,0,0,0,,0,7,7,144,1,1,word,RESIDENT,print,resident_p.png,,,,,,
,,,,30971,001,2025-12-05_14h36.38.904,HW_LDT_1,2024.2.4,MacIntel,60.24096386,,,,,,,,,,,,,,,,,,,,,119.1699,119.3679,119.3679,119.8669,,,,,,,,,,,,,,0.6646,1,,,,,,,,,,,,,,m,,,,,,,,,,,,,,,,9,0,119.8676,120.5346,m,1,0.6646,,[],[],[],[],[],[],[],120.5347,122.5345,122.5347,122.5349,[],[],[],[],[],[],[],,122.5349,122.5351,-0.168546824,-0.183015676,0,0,0,,0,8,8,133,1,1,word,PROVIDE,print,provide_p.png,,,,,,
,,,,30971,001,2025-12-05_14h36.38.904,HW_LDT_1,2024.2.4,MacIntel,60.24096386,,,,,,,,,,,,,,,,,,,,,122.5363,122.7346,122.7347,123.2346,,,,,,,,,,,,,,0.6972,1,,,,,,,,,,,,,,z,,,,,,,,,,,,,,,,10,0,123.2353,123.9347,z,1,0.6972,,[],[],[],[],[],[],[],123.9349,125.9345,125.9346,125.9349,[],[],[],[],[],[],[],,125.935,125.9351,-0.168546824,-0.183015676,0,0,0,,0,9,9,30,1,1,RL,relone,print,relone_p.png,,,,,,
,,,,30971,001,2025-12-05_14h36.38.904,HW_LDT_1,2024.2.4,MacIntel,60.24096386,,,,,,,,,,,,,,,,,,,,,125.9364,126.1345,126.1345,126.6345,,,,,,,,,,,,,,0.7371,1,,,,,,,,,,,,,,m,,,,,,,,,,,,,,,,11,1,126.6351,127.3846,m,1,0.7371,,[],[],[],[],[],[],[],127.3847,129.3845,129.3846,131.2181,[],[],[],[],[],[],[],z,131.2182,131.2184,-0.168546824,-0.183015676,0,0,0,,0,10,10,80,1,1,word,ACADEMY,cursive,academy_c.png,1.8251,,,,,
,,,,30971,001,2025-12-05_14h36.38.904,HW_LDT_1,2024.2.4,MacIntel,60.24096386,,,,,,,,,,,,,,,,,,,,,131.2194,131.4173,131.4173,131.9169,,,,,,,,,,,,,,1.6724,1,,,,,,,,,,,,,,z,,,,,,,,,,,,,,,,12,1,131.9176,133.6013,z,1,1.6724,,[],[],[],[],[],[],[],133.6014,135.6013,135.6014,136.6846,[],[],[],[],[],[],[],z,136.6848,136.6848,-0.168546824,-0.183015676,0,0,0,,0,11,11,9,1,1,RL,docirant,cursive,docirant_c.png,1.0706,,,,,
,,,,30971,001,2025-12-05_14h36.38.904,HW_LDT_1,2024.2.4,MacIntel,60.24096386,,,,,,,,,,,,,,,,,,,,,136.6859,136.8846,136.8846,137.3845,,,,,,,,,,,,,,0.999,1,,,,,,,,,,,,,,z,,,,,,,,,,,,,,,,13,0,137.3851,138.3854,z,1,0.999,,[],[],[],[],[],[],[],138.3855,140.3836,140.3837,140.3838,[],[],[],[],[],[],[],,140.3839,140.3841,-0.168546824,-0.183015676,0,0,0,,0,12,12,6,1,1,RL,crisival,print,crisival_p.png,,,,,,
,,,,30971,001,2025-12-05_14h36.38.904,HW_LDT_1,2024.2.4,MacIntel,60.24096386,,,,,,,,,,,,,,,,,,,,,140.3855,140.5847,140.5848,141.0845,,,,,,,,,,,,,,0.7365,1,,,,,,,,,,,,,,m,,,,,,,,,,,,,,,,14,1,141.0851,141.8346,m,1,0.7365,,[],[],[],[],[],[],[],141.8346,143.8345,143.8346,145.1681,[],[],[],[],[],[],[],m,145.1682,145.1683,-0.168546824,-0.183015676,0,0,0,,0,13,13,99,1,1,word,DEBATE,print,debate_p.png,1.3311,,,,,
,,,,30971,001,2025-12-05_14h36.38.904,HW_LDT_1,2024.2.4,MacIntel,60.24096386,,,,,,,,,,,,,,,,,,,,,145.1695,145.3669,145.367,145.8679,,,,,,,,,,,,,,1.6393,1,,,,,,,,,,,,,,m,,,,,,,,,,,,,,,,15,0,145.8685,147.5179,m,1,1.6393,,[],[],[],[],[],[],[],147.518,149.5177,149.5177,149.5179,[],[],[],[],[],[],[],,149.5179,149.5181,-0.168546824,-0.183015676,0,0,0,,0,14,14,155,1,1,word,STRATEGY,cursive,strategy_c.png,,,,,,
,,,,30971,001,2025-12-05_14h36.38.904,HW_LDT_1,2024.2.4,MacIntel,60.24096386,,,,,,,,,,,,,,,,,,,,,149.5194,149.7179,149.7179,150.218,,,,,,,,,,,,,,1.7636,1,,,,,,,,,,,,,,z,,,,,,,,,,,,,,,,16,0,150.2186,151.9846,z,1,1.7636,,[],[],[],[],[],[],[],151.9847,153.9846,153.9847,153.9849,[],[],[],[],[],[],[],,153.9849,153.9851,-0.168546824,-0.183015676,0,0,0,,0,15,15,38,1,1,RL,stopave,cursive,stopave_c.png,,,,,,
,,,,30971,001,2025-12-05_14h36.38.904,HW_LDT_1,2024.2.4,MacIntel,60.24096386,,,,,,,,,,,,,,,,,,,,,153.9863,154.1846,154.1846,154.6845,,,,,,,,,,,,,,1.7892,0,,,,,,,,,,,,,,m,,,,,,,,,,,,,,,,17,0,154.6851,156.4846,z,0,1.7892,,[],[],[],[],[],[],[],156.4847,158.4836,158.4836,158.4839,[],[],[],[],[],[],[],,158.484,158.4841,-0.168546824,-0.183015676,0,0,0,,0,16,16,105,1,1,word,EDITOR,cursive,editor_c.png,,,,,,
,,,,30971,001,2025-12-05_14h36.38.904,HW_LDT_1,2024.2.4,MacIntel,60.24096386,,,,,,,,,,,,,,,,,,,,,158.4854,158.6845,158.6846,159.1846,,,,,,,,,,,,,,1.3741,1,,,,,,,,,,,,,,z,,,,,,,,,,,,,,,,18,0,159.1852,160.567,z,1,1.3741,,[],[],[],[],[],[],[],160.5671,162.5679,162.568,162.5682,[],[],[],[],[],[],[],,162.5683,162.5684,-0.168546824,-0.183015676,0,0,0,,0,17,17,3,1,1,RL,casena,cursive,casena_c.png,,,,,,
,,,,30971,001,2025-12-05_14h36.38.904,HW_LDT_1,2024.2.4,MacIntel,60.24096386,,,,,,,,,,,,,,,,,,,,,162.5698,162.7679,162.7679,163.2678,,,,,,,,,,,,,,2.0194,1,,,,,,,,,,,,,,m,,,,,,,,,,,,,,,,19,0,163.2684,165.3016,m,1,2.0194,,[],[],[],[],[],[],[],165.3016,167.3012,167.3013,167.3015,[],[],[],[],[],[],[],,167.3016,167.3017,-0.168546824,-0.183015676,0,0,0,,0,18,18,143,1,1,word,REMOVAL,cursive,removal_c.png,,,,,,
,,,,30971,001,2025-12-05_14h36.38.904,HW_LDT_1,2024.2.4,MacIntel,60.24096386,,,,,,,,,,,,,,,,,,,,,167.3032,167.5003,167.5003,168.0012,,,,,,,,,,,,,,1.2136,1,,,,,,,,,,,,,,m,,,,,,,,,,,,,,,,20,0,168.0018,169.2179,m,1,1.2136,,[],[],[],[],[],[],[],169.2179,171.217,171.2171,171.2173,[],[],[],[],[],[],[],,171.2173,171.2174,-0.168546824,-0.183015676,0,0,0,,0,19,19,119,1,1,word,MEMORY,cursive,memory_c.png,,,,,,
,,,,30971,001,2025-12-05_14h36.38.904,HW_LDT_1,2024.2.4,MacIntel,60.24096386,,,,,,,,,,,,,,,,,,,,,171.2186,171.418,171.418,171.918,,,,,,,,,,,,,,1.0041,0,,,,,,,,,,,,,,m,,,,,,,,,,,,,,,,21,0,171.9185,172.9346,z,0,1.0041,,[],[],[],[],[],[],[],172.9347,174.9347,174.9348,174.9349,[],[],[],[],[],[],[],,174.9349,174.9351,-0.168546824,-0.183015676,0,0,0,,0,20,20,146,1,1,word,RETIRE,cursive,retire_c.png,,,,,,
,,,,30971,001,2025-12-05_14h36.38.904,HW_LDT_1,2024.2.4,MacIntel,60.24096386,,,,,,,,,,,,,,,,,,,,,174.9364,175.1346,175.1346,175.6346,,,,,,,,,,,,,,0.9637,1,,,,,,,,,,,,,,m,,,,,,,,,,,,,,,,22,0,175.6352,176.6013,m,1,0.9637,,[],[],[],[],[],[],[],176.6014,178.6012,178.6013,178.6016,[],[],[],[],[],[],[],,178.6016,178.6017,-0.168546824,-0.183015676,0,0,0,,0,21,21,156,1,1,word,TRIBUTE,cursive,tribute_c.png,,,,,,
,,,,30971,001,2025-12-05_14h36.38.904,HW_LDT_1,2024.2.4,MacIntel,60.24096386,,,,,,,,,,,,,,,,,,,,,178.603,178.8006,178.8007,179.3012,,,,,,,,,,,,,,1.3075,1,,,,,,,,,,,,,,m,,,,,,,,,,,,,,,,23,0,179.3018,180.617,m,1,1.3075,,[],[],[],[],[],[],[],180.6171,182.6169,182.6171,182.6173,[],[],[],[],[],[],[],,182.6173,182.6174,-0.168546824,-0.183015676,0,0,0,,0,22,22,104,1,1,word,DOMINANT,cursive,dominant_c.png,,,,,,
,,,,30971,001,2025-12-05_14h36.38.904,HW_LDT_1,2024.2.4,MacIntel,60.24096386,,,,,,,,,,,,,,,,,,,,,182.6188,182.8171,182.8172,183.317,,,,,,,,,,,,,,0.8252,0,,,,,,,,,,,,,,z,,,,,,,,,,,,,,,,24,0,183.3176,184.1512,m,0,0.8252,,[],[],[],[],[],[],[],184.1513,186.1508,186.1509,186.1511,[],[],[],[],[],[],[],,186.1512,186.1513,-0.168546824,-0.183015676,0,0,0,,0,23,23,47,1,1,TL,cagetory,print,cagetory_p.png,,,,,,
,,,,30971,001,2025-12-05_14h36.38.904,HW_LDT_1,2024.2.4,MacIntel,60.24096386,,,,,,,,,,,,,,,,,,,,,186.1525,186.3503,186.3503,186.8512,,,,,,,,,,,,,,1.0406,1,,,,,,,,,,,,,,m,,,,,,,,,,,,,,,,25,0,186.8518,187.901,m,1,1.0406,,[],[],[],[],[],[],[],187.9011,189.9011,189.9011,189.9014,[],[],[],[],[],[],[],,189.9015,189.9016,-0.168546824,-0.183015676,0,0,0,,0,24,24,157,1,1,word,VALIDITY,cursive,validity_c.png,,,,,,
,,,,30971,001,2025-12-05_14h36.38.904,HW_LDT_1,2024.2.4,MacIntel,60.24096386,,,,,,,,,,,,,,,,,,,,,189.9028,190.1003,190.1004,190.6012,,,,,,,,,,,,,,1.3039,1,,,,,,,,,,,,,,m,,,,,,,,,,,,,,,,26,0,190.6018,191.9179,m,1,1.3039,,[],[],[],[],[],[],[],191.918,193.9179,193.918,193.9183,[],[],[],[],[],[],[],,193.9183,193.9184,-0.168546824,-0.183015676,0,0,0,,0,25,25,134,1,1,word,QUALIFY,cursive,qualify_c.png,,,,,,
,,,,30971,001,2025-12-05_14h36.38.904,HW_LDT_1,2024.2.4,MacIntel,60.24096386,,,,,,,,,,,,,,,,,,,,,193.92,194.1179,194.1179,194.6171,,,,,,,,,,,,,,1.4879,1,,,,,,,,,,,,,,m,,,,,,,,,,,,,,,,27,0,194.6177,196.118,m,1,1.4879,,[],[],[],[],[],[],[],196.118,198.1178,198.1179,198.1181,[],[],[],[],[],[],[],,198.1182,198.1182,-0.168546824,-0.183015676,0,0,0,,0,26,26,129,1,1,word,PARENT,cursive,parent_c.png,,,,,,
,,,,30971,001,2025-12-05_14h36.38.904,HW_LDT_1,2024.2.4,MacIntel,60.24096386,,,,,,,,,,,,,,,,,,,,,198.1194,198.3179,198.318,198.8179,,,,,,,,,,,,,,1.7153,0,,,,,,,,,,,,,,m,,,,,,,,,,,,,,,,28,1,198.8185,200.5349,z,0,1.7153,,[],[],[],[],[],[],[],200.535,202.5345,202.5345,203.7012,[],[],[],[],[],[],[],z,203.7013,203.7015,-0.168546824,-0.183015676,0,0,0,,0,27,27,149,1,1,word,SENATOR,cursive,senator_c.png,1.1552,,,,,
,,,,30971,001,2025-12-05_14h36.38.904,HW_LDT_1,2024.2.4,MacIntel,60.24096386,,,,,,,,,,,,,,,,,,,,,203.7027,203.9013,203.9014,204.4012,,,,,,,,,,,,,,0.9744,1,,,,,,,,,,,,,,m,,,,,,,,,,,,,,,,29,0,204.4019,205.3845,m,1,0.9744,,[],[],[],[],[],[],[],205.3847,207.3845,207.3846,207.3848,[],[],[],[],[],[],[],,207.3849,207.385,-0.168546824,-0.183015676,0,0,0,,0,28,28,92,1,1,word,CATEGORY,print,category_p.png,,,,,,
,,,,30971,001,2025-12-05_14h36.38.904,HW_LDT_1,2024.2.4,MacIntel,60.24096386,,,,,,,,,,,,,,,,,,,,,207.3863,207.5845,207.5846,208.0845,,,,,,,,,,,,,,1.1706,1,,,,,,,,,,,,,,m,,,,,,,,,,,,,,,,30,0,208.0851,209.2679,m,1,1.1706,,[],[],[],[],[],[],[],209.268,211.2678,211.2679,211.2682,[],[],[],[],[],[],[],,211.2682,211.2683,-0.168546824,-0.183015676,0,0,0,,0,29,29,96,1,1,word,CONSIDER,cursive,consider_c.png,,,,,,
,,,,30971,001,2025-12-05_14h36.38.904,HW_LDT_1,2024.2.4,MacIntel,60.24096386,,,,,,,,,,,,,,,,,,,,,211.2698,211.4679,211.4679,211.9681,,,,,,,,,,,,,,1.0194,1,,,,,,,,,,,,,,m,,,,,,,,,,,,,,,,31,0,211.9686,213.0003,m,1,1.0194,,[],[],[],[],[],[],[],213.0005,215.0012,215.0014,215.0016,[],[],[],[],[],[],[],,215.0016,215.0017,-0.168546824,-0.183015676,0,0,0,,0,30,30,118,1,1,word,MEDICINE,cursive,medicine_c.png,,,,,,
,,,,30971,001,2025-12-05_14h36.38.904,HW_LDT_1,2024.2.4,MacIntel,60.24096386,,,,,,,,,,,,,,,,,,,,,215.003,215.2012,215.2012,215.7002,,,,,,,,,,,,,,0.9916,1,,,,,,,,,,,,,,m,,,,,,,,,,,,,,,,32,0,215.7008,216.7013,m,1,0.9916,,[],[],[],[],[],[],[],216.7013,218.7012,218.7013,218.7015,[],[],[],[],[],[],[],,218.7016,218.7017,-0.168546824,-0.183015676,0,0,0,,0,31,31,121,1,1,word,MISTAKE,print,mistake_p.png,,,,,,
,,,,30971,001,2025-12-05_14h36.38.904,HW_LDT_1,2024.2.4,MacIntel,60.24096386,,,,,,,,,,,,,,,,,,,,,218.703,218.9013,218.9013,219.4012,,,,,,,,,,,,,,0.8751,1,,,,,,,,,,,,,,z,,,,,,,,,,,,,,,,33,0,219.4018,220.2846,z,1,0.8751,,[],[],[],[],[],[],[],220.2847,222.2845,222.2846,222.2849,[],[],[],[],[],[],[],,222.2849,222.285,-0.168546824,-0.183015676,0,0,0,,0,32,32,46,1,1,TL,catipal,print,catipal_p.png,,,,,,
,,,,30971,001,2025-12-05_14h36.38.904,HW_LDT_1,2024.2.4,MacIntel,60.24096386,,,,,,,,,,,,,,,,,,,,,222.2863,222.4845,222.4847,222.9846,,,,,,,,,,,,,,0.8039,1,,,,,,,,,,,,,,z,,,,,,,,,,,,,,,,34,0,222.9852,223.8014,z,1,0.8039,,[],[],[],[],[],[],[],223.8016,225.8002,225.8003,225.8005,[],[],[],[],[],[],[],,225.8006,225.8006,-0.168546824,-0.183015676,0,0,0,,0,33,33,24,1,1,RL,probice,print,probice_p.png,,,,,,
,,,,30971,001,2025-12-05_14h36.38.904,HW_LDT_1,2024.2.4,MacIntel,60.24096386,,,,,,,,,,,,,,,,,,,,,225.8019,226.0002,226.0003,226.5002,,,,,,,,,,,,,,0.7052,1,,,,,,,,,,,,,,m,,,,,,,,,,,,,,,,35,0,226.5008,227.2179,m,1,0.7052,,[],[],[],[],[],[],[],227.2181,229.2178,229.2179,229.2182,[],[],[],[],[],[],[],,229.2182,229.2183,-0.168546824,-0.183015676,0,0,0,,0,34,34,95,1,1,word,COMEDY,cursive,comedy_c.png,,,,,,
,,,,30971,001,2025-12-05_14h36.38.904,HW_LDT_1,2024.2.4,MacIntel,60.24096386,,,,,,,,,,,,,,,,,,,,,229.2196,229.4179,229.4179,229.918,,,,,,,,,,,,,,0.5539,1,,,,,,,,,,,,,,m,,,,,,,,,,,,,,,,36,0,229.9185,230.4845,m,1,0.5539,,[],[],[],[],[],[],[],230.4846,232.4846,232.4846,232.4848,[],[],[],[],[],[],[],,232.4849,232.485,-0.168546824,-0.183015676,0,0,0,,0,35,35,108,1,1,word,FORTUNE,print,fortune_p.png,,,,,,
,,,,30971,001,2025-12-05_14h36.38.904,HW_LDT_1,2024.2.4,MacIntel,60.24096386,,,,,,,,,,,,,,,,,,,,,232.4863,232.6835,232.6836,233.1836,,,,,,,,,,,,,,0.6128,1,,,,,,,,,,,,,,z,,,,,,,,,,,,,,,,37,0,233.1841,233.8011,z,1,0.6128,,[],[],[],[],[],[],[],233.8012,235.8013,235.8013,235.8014,[],[],[],[],[],[],[],,235.8016,235.8016,-0.168546824,-0.183015676,0,0,0,,0,36,36,14,1,1,RL,lofase,print,lofase_p.png,,,,,,
,,,,30971,001,2025-12-05_14h36.38.904,HW_LDT_1,2024.2.4,MacIntel,60.24096386,,,,,,,,,,,,,,,,,,,,,235.803,236.0012,236.0012,236.5012,,,,,,,,,,,,,,1.3873,0,,,,,,,,,,,,,,m,,,,,,,,,,,,,,,,38,0,236.5018,237.9012,z,0,1.3873,,[],[],[],[],[],[],[],237.9014,239.9014,239.9014,239.9016,[],[],[],[],[],[],[],,239.9018,239.9019,-0.168546824,-0.183015676,0,0,0,,0,37,37,110,1,1,word,HERITAGE,cursive,heritage_c.png,,,,,,
,,,,30971,001,2025-12-05_14h36.38.904,HW_LDT_1,2024.2.4,MacIntel,60.24096386,,,,,,,,,,,,,,,,,,,,,239.9033,240.1003,240.1003,240.6013,,,,,,,,,,,,,,1.5377,1,,,,,,,,,,,,,,z,,,,,,,,,,,,,,,,39,0,240.6019,242.1513,z,1,1.5377,,[],[],[],[],[],[],[],242.1514,244.1512,244.1512,244.1515,[],[],[],[],[],[],[],,244.1515,244.1517,-0.168546824,-0.183015676,0,0,0,,0,38,38,26,1,1,RL,quafidy,cursive,quafidy_c.png,,,,,,
,,,,30971,001,2025-12-05_14h36.38.904,HW_LDT_1,2024.2.4,MacIntel,60.24096386,,,,,,,,,,,,,,,,,,,,,244.1529,244.3512,244.3513,244.8503,,,,,,,,,,,,,,0.8079,1,,,,,,,,,,,,,,z,,,,,,,,,,,,,,,,40,0,244.8508,245.6671,z,1,0.8079,,[],[],[],[],[],[],[],245.6672,247.6673,247.6674,247.6677,[],[],[],[],[],[],[],,247.6678,247.668,-0.168546824,-0.182764894,0,0,0,,0,39,39,22,1,1,RL,patisic,print,patisic_p.png,,,,,,
,,,,30971,001,2025-12-05_14h36.38.904,HW_LDT_1,2024.2.4,MacIntel,60.24096386,,,,,,,,,,,,,,,,,,,,,247.6693,247.8679,247.8679,248.3677,,,,,,,,,,,,,,1.0053,1,,,,,,,,,,,,,,m,,,,,,,,,,,,,,,,41,0,248.3683,249.3847,m,1,1.0053,,[],[],[],[],[],[],[],249.3847,251.3846,251.3846,251.3849,[],[],[],[],[],[],[],,251.3849,251.385,-0.168546824,-0.182764894,0,0,0,,0,40,40,81,1,1,word,ADVISORY,cursive,advisory_c.png,,,,,,
,,,,30971,001,2025-12-05_14h36.38.904,HW_LDT_1,2024.2.4,MacIntel,60.24096386,,,,,,,,,,,,,,,,,,,,,251.3864,251.5845,251.5846,252.0836,,,,,,,,,,,,,,1.2704,1,,,,,,,,,,,,,,m,,,,,,,,,,,,,,,,42,0,252.0841,253.367,m,1,1.2704,,[],[],[],[],[],[],[],253.3671,255.3678,255.3678,255.3681,[],[],[],[],[],[],[],,255.3682,255.3683,-0.168546824,-0.182764894,0,0,0,,0,41,41,94,1,1,word,CLINICAL,cursive,clinical_c.png,,,,,,
,,,,30971,001,2025-12-05_14h36.38.904,HW_LDT_1,2024.2.4,MacIntel,60.24096386,,,,,,,,,,,,,,,,,,,,,255.3696,255.5678,255.5679,256.0679,,,,,,,,,,,,,,0.5703,1,,,,,,,,,,,,,,m,,,,,,,,,,,,,,,,43,0,256.0685,256.6503,m,1,0.5703,,[],[],[],[],[],[],[],256.6504,258.6511,258.6512,258.6515,[],[],[],[],[],[],[],,258.6515,258.6516,-0.168546824,-0.182764894,0,0,0,,0,42,42,83,1,1,word,ANIMAL,print,animal_p.png,,,,,,
,,,,30971,001,2025-12-05_14h36.38.904,HW_LDT_1,2024.2.4,MacIntel,60.24096386,,,,,,,,,,,,,,,,,,,,,258.6529,258.8512,258.8513,259.3512,,,,,,,,,,,,,,1.0532,0,,,,,,,,,,,,,,z,,,,,,,,,,,,,,,,44,0,259.3519,260.4179,m,0,1.0532,,[],[],[],[],[],[],[],260.418,262.4178,262.4179,262.4182,[],[],[],[],[],[],[],,262.4182,262.4183,-0.168546824,-0.182764894,0,0,0,,0,43,43,66,1,1,TL,panert,cursive,panert_c.png,,,,,,
,,,,30971,001,2025-12-05_14h36.38.904,HW_LDT_1,2024.2.4,MacIntel,60.24096386,,,,,,,,,,,,,,,,,,,,,262.4196,262.6178,262.6179,263.1176,,,,,,,,,,,,,,0.5878,1,,,,,,,,,,,,,,m,,,,,,,,,,,,,,,,45,0,263.1182,263.7179,m,1,0.5878,,[],[],[],[],[],[],[],263.718,265.7179,265.7179,265.7181,[],[],[],[],[],[],[],,265.7182,265.7182,-0.168546824,-0.182764894,0,0,0,,0,44,44,98,1,1,word,CRIMINAL,print,criminal_p.png,,,,,,
,,,,30971,001,2025-12-05_14h36.38.904,HW_LDT_1,2024.2.4,MacIntel,60.24096386,,,,,,,,,,,,,,,,,,,,,265.7195,265.9174,265.9174,266.4179,,,,,,,,,,,,,,0.6222,1,,,,,,,,,,,,,,m,,,,,,,,,,,,,,,,46,0,266.4184,267.0503,m,1,0.6222,,[],[],[],[],[],[],[],267.0504,269.0512,269.0512,269.0516,[],[],[],[],[],[],[],,269.0516,269.0517,-0.168546824,-0.182764894,0,0,0,,0,45,45,115,1,1,word,LOGICAL,cursive,logical_c.png,,,,,,
,,,,30971,001,2025-12-05_14h36.38.904,HW_LDT_1,2024.2.4,MacIntel,60.24096386,,,,,,,,,,,,,,,,,,,,,269.0531,269.2512,269.2512,269.7512,,,,,,,,,,,,,,1.946,1,,,,,,,,,,,,,,z,,,,,,,,,,,,,,,,47,0,269.7518,271.7013,z,1,1.946,,[],[],[],[],[],[],[],271.7015,273.7012,273.7013,273.7015,[],[],[],[],[],[],[],,273.7016,273.7017,-0.168546824,-0.182764894,0,0,0,,0,46,46,44,1,1,TL,cateferia,cursive,cateferia_c.png,,,,,,
,,,,30971,001,2025-12-05_14h36.38.904,HW_LDT_1,2024.2.4,MacIntel,60.24096386,,,,,,,,,,,,,,,,,,,,,273.703,273.9012,273.9012,274.4012,,,,,,,,,,,,,,0.6869,1,,,,,,,,,,,,,,m,,,,,,,,,,,,,,,,48,1,274.4017,275.1012,m,1,0.6869,,[],[],[],[],[],[],[],275.1013,277.1011,277.1012,278.7846,[],[],[],[],[],[],[],z,278.7847,278.7847,-0.168546824,-0.182764894,0,0,0,,0,47,47,109,1,1,word,GRATEFUL,print,grateful_p.png,1.6806,,,,,
,,,,30971,001,2025-12-05_14h36.38.904,HW_LDT_1,2024.2.4,MacIntel,60.24096386,,,,,,,,,,,,,,,,,,,,,278.7859,278.9846,278.9846,279.4845,,,,,,,,,,,,,,2.4861,1,,,,,,,,,,,,,,z,,,,,,,,,,,,,,,,49,0,279.4851,281.9837,z,1,2.4861,,[],[],[],[],[],[],[],281.9838,283.9845,283.9846,283.9847,[],[],[],[],[],[],[],,283.9849,283.9849,-0.168546824,-0.182764894,0,0,0,,0,48,48,48,1,1,TL,cemerony,cursive,cemerony_c.png,,,,,,
,,,,30971,001,2025-12-05_14h36.38.904,HW_LDT_1,2024.2.4,MacIntel,60.24096386,,,,,,,,,,,,,,,,,,,,,283.9863,284.1846,284.1846,284.6846,,,,,,,,,,,,,,0.7909,1,,,,,,,,,,,,,,z,,,,,,,,,,,,,,,,50,0,284.6851,285.4846,z,1,0.7909,,[],[],[],[],[],[],[],285.4846,287.4845,287.4846,287.4848,[],[],[],[],[],[],[],,287.4848,287.4849,-0.168546824,-0.182764894,0,0,0,,0,49,49,12,1,1,RL,ebiwent,print,ebiwent_p.png,,,,,,
,,,,30971,001,2025-12-05_14h36.38.904,HW_LDT_1,2024.2.4,MacIntel,60.24096386,,,,,,,,,,,,,,,,,,,,,287.4862,287.6846,287.6846,288.1846,,,,,,,,,,,,,,0.9469,1,,,,,,,,,,,,,,z,,,,,,,,,,,,,,,,51,1,288.1851,289.1345,z,1,0.9469,,[],[],[],[],[],[],[],289.1346,291.1345,291.1346,293.1853,[],[],[],[],[],[],[],z,293.1853,293.1854,-0.168546824,-0.182764894,0,0,0,,0,50,50,70,1,1,TL,relugar,print,relugar_p.png,2.0498,,,,,
,,,,30971,001,2025-12-05_14h36.38.904,HW_LDT_1,2024.2.4,MacIntel,60.24096386,,,,,,,,,,,,,,,,,,,,,293.1868,293.3836,293.3837,293.8845,,,,,,,,,,,,,,1.804,0,,,,,,,,,,,,,,m,,,,,,,,,,,,,,,,52,0,293.8851,295.7012,z,0,1.804,,[],[],[],[],[],[],[],295.7013,297.7011,297.7013,297.7014,[],[],[],[],[],[],[],,297.7015,297.7016,-0.168546824,-0.182764894,0,0,0,,0,51,51,111,1,1,word,INDICATE,cursive,indicate_c.png,,,,,,
,,,,30971,001,2025-12-05_14h36.38.904,HW_LDT_1,2024.2.4,MacIntel,60.24096386,,,,,,,,,,,,,,,,,,,,,297.7029,297.9012,297.9012,298.4011,,,,,,,,,,,,,,1.7464,1,,,,,,,,,,,,,,z,,,,,,,,,,,,,,,,53,0,298.4017,300.1505,z,1,1.7464,,[],[],[],[],[],[],[],300.1505,302.1502,302.1503,302.1506,[],[],[],[],[],[],[],,302.1507,302.1508,-0.168546824,-0.182764894,0,0,0,,0,52,52,17,1,1,RL,menowy,cursive,menowy_c.png,,,,,,
,,,,30971,001,2025-12-05_14h36.38.904,HW_LDT_1,2024.2.4,MacIntel,60.24096386,,,,,,,,,,,,,,,,,,,,,302.152,302.3503,302.3503,302.8509,,,,,,,,,,,,,,1.5139,0,,,,,,,,,,,,,,m,,,,,,,,,,,,,,,,54,0,302.8516,304.367,z,0,1.5139,,[],[],[],[],[],[],[],304.367,306.367,306.3671,306.3673,[],[],[],[],[],[],[],,306.3673,306.3674,-0.168546824,-0.182764894,0,0,0,,0,53,53,87,1,1,word,CAFETERIA,cursive,cafeteria_c.png,,,,,,
,,,,30971,001,2025-12-05_14h36.38.904,HW_LDT_1,2024.2.4,MacIntel,60.24096386,,,,,,,,,,,,,,,,,,,,,306.3688,306.5679,306.5679,307.0678,,,,,,,,,,,,,,1.2141,0,,,,,,,,,,,,,,z,,,,,,,,,,,,,,,,55,0,307.0685,308.2846,m,0,1.2141,,[],[],[],[],[],[],[],308.2848,310.2845,310.2845,310.2848,[],[],[],[],[],[],[],,310.2849,310.285,-0.168546824,-0.182764894,0,0,0,,0,54,54,15,1,1,RL,losipal,cursive,losipal_c.png,,,,,,
,,,,30971,001,2025-12-05_14h36.38.904,HW_LDT_1,2024.2.4,MacIntel,60.24096386,,,,,,,,,,,,,,,,,,,,,310.2863,310.4846,310.4846,310.9845,,,,,,,,,,,,,,0.8046,1,,,,,,,,,,,,,,z,,,,,,,,,,,,,,,,56,0,310.9851,311.8012,z,1,0.8046,,[],[],[],[],[],[],[],311.8013,313.8013,313.8013,313.8016,[],[],[],[],[],[],[],,313.8016,313.8017,-0.168546824,-0.182764894,0,0,0,,0,55,55,20,1,1,RL,nunewical,print,nunewical_p.png,,,,,,
,,,,30971,001,2025-12-05_14h36.38.904,HW_LDT_1,2024.2.4,MacIntel,60.24096386,,,,,,,,,,,,,,,,,,,,,313.8029,314.0007,314.0008,314.5002,,,,,,,,,,,,,,0.8311,1,,,,,,,,,,,,,,z,,,,,,,,,,,,,,,,57,0,314.5008,315.3346,z,1,0.8311,,[],[],[],[],[],[],[],315.3346,317.3346,317.3346,317.3348,[],[],[],[],[],[],[],,317.3349,317.335,-0.168546824,-0.182764894,0,0,0,,0,56,56,60,1,1,TL,manire,print,manire_p.png,,,,,,
,,,,30971,001,2025-12-05_14h36.38.904,HW_LDT_1,2024.2.4,MacIntel,60.24096386,,,,,,,,,,,,,,,,,,,,,317.3362,317.534,317.534,318.0346,,,,,,,,,,,,,,0.78,1,,,,,,,,,,,,,,m,,,,,,,,,,,,,,,,58,0,318.0352,318.8177,m,1,0.78,,[],[],[],[],[],[],[],318.8178,320.8178,320.8179,320.8181,[],[],[],[],[],[],[],,320.8182,320.8183,-0.168546824,-0.182764894,0,0,0,,0,57,57,85,1,1,word,BENEFIT,print,benefit_p.png,,,,,,
,,,,30971,001,2025-12-05_14h36.38.904,HW_LDT_1,2024.2.4,MacIntel,60.24096386,,,,,,,,,,,,,,,,,,,,,320.8196,321.0179,321.018,321.5178,,,,,,,,,,,,,,1.4533,1,,,,,,,,,,,,,,z,,,,,,,,,,,,,,,,59,0,321.5184,322.9847,z,1,1.4533,,[],[],[],[],[],[],[],322.9848,324.9841,324.9841,324.9844,[],[],[],[],[],[],[],,324.9845,324.9846,-0.168546824,-0.182764894,0,0,0,,0,58,58,68,1,1,TL,prosopal,cursive,prosopal_c.png,,,,,,
,,,,30971,001,2025-12-05_14h36.38.904,HW_LDT_1,2024.2.4,MacIntel,60.24096386,,,,,,,,,,,,,,,,,,,,,324.9859,325.1846,325.1846,325.6836,,,,,,,,,,,,,,0.6548,1,,,,,,,,,,,,,,m,,,,,,,,,,,,,,,,60,1,325.6842,326.3512,m,1,0.6548,,[],[],[],[],[],[],[],326.3513,328.3502,328.3502,329.4671,[],[],[],[],[],[],[],m,329.4672,329.4674,-0.168546824,-0.182764894,0,0,0,,0,59,59,131,1,1,word,POPULAR,cursive,popular_c.png,1.1159,,,,,
,,,,30971,001,2025-12-05_14h36.38.904,HW_LDT_1,2024.2.4,MacIntel,60.24096386,,,,,,,,,,,,,,,,,,,,,329.4686,329.6678,329.6678,330.1678,,,,,,,,,,,,,,2.2895,1,,,,,,,,,,,,,,z,,,,,,,,,,,,,,,,61,0,330.1684,332.4669,z,1,2.2895,,[],[],[],[],[],[],[],332.467,334.4669,334.467,334.4672,[],[],[],[],[],[],[],,334.4672,334.4673,-0.168546824,-0.182764894,0,0,0,,0,60,60,28,1,1,RL,renutal,print,renutal_p.png,,,,,,
,,,,30971,001,2025-12-05_14h36.38.904,HW_LDT_1,2024.2.4,MacIntel,60.24096386,,,,,,,,,,,,,,,,,,,,,334.4686,334.6678,334.6678,335.1675,,,,,,,,,,,,,,1.7707,1,,,,,,,,,,,,,,z,,,,,,,,,,,,,,,,62,0,335.1682,336.9513,z,1,1.7707,,[],[],[],[],[],[],[],336.9514,338.9512,338.9512,338.9514,[],[],[],[],[],[],[],,338.9515,338.9516,-0.168546824,-0.182764894,0,0,0,,0,61,61,61,1,1,TL,mecidine,cursive,mecidine_c.png,,,,,,
,,,,30971,001,2025-12-05_14h36.38.904,HW_LDT_1,2024.2.4,MacIntel,60.24096386,,,,,,,,,,,,,,,,,,,,,338.9528,339.1512,339.1512,339.6507,,,,,,,,,,,,,,0.7876,1,,,,,,,,,,,,,,z,,,,,,,,,,,,,,,,63,0,339.6513,340.4513,z,1,0.7876,,[],[],[],[],[],[],[],340.4514,342.4512,342.4513,342.4515,[],[],[],[],[],[],[],,342.4516,342.4517,-0.168546824,-0.182764894,0,0,0,,0,62,62,29,1,1,RL,refakive,cursive,refakive_c.png,,,,,,
,,,,30971,001,2025-12-05_14h36.38.904,HW_LDT_1,2024.2.4,MacIntel,60.24096386,,,,,,,,,,,,,,,,,,,,,342.453,342.6512,342.6512,343.1511,,,,,,,,,,,,,,1.1633,1,,,,,,,,,,,,,,z,,,,,,,,,,,,,,,,64,0,343.1517,344.3176,z,1,1.1633,,[],[],[],[],[],[],[],344.3176,346.3179,346.3179,346.3181,[],[],[],[],[],[],[],,346.3181,346.3183,-0.168546824,-0.182764894,0,0,0,,0,63,63,79,1,1,TL,veretan,print,veretan_p.png,,,,,,
,,,,30971,001,2025-12-05_14h36.38.904,HW_LDT_1,2024.2.4,MacIntel,60.24096386,,,,,,,,,,,,,,,,,,,,,346.3195,346.5178,346.5179,347.0169,,,,,,,,,,,,,,0.7211,1,,,,,,,,,,,,,,z,,,,,,,,,,,,,,,,65,0,347.0175,347.7512,z,1,0.7211,,[],[],[],[],[],[],[],347.7513,349.7503,349.7503,349.7506,[],[],[],[],[],[],[],,349.7506,349.7507,-0.168546824,-0.182764894,0,0,0,,0,64,64,55,1,1,TL,fornute,print,fornute_p.png,,,,,,
,,,,30971,001,2025-12-05_14h36.38.904,HW_LDT_1,2024.2.4,MacIntel,60.24096386,,,,,,,,,,,,,,,,,,,,,349.7519,349.9511,349.9512,350.4503,,,,,,,,,,,,,,0.782,1,,,,,,,,,,,,,,z,,,,,,,,,,,,,,,,66,0,350.4508,351.2346,z,1,0.782,,[],[],[],[],[],[],[],351.2347,353.2336,353.2337,353.2338,[],[],[],[],[],[],[],,353.2339,353.2339,-0.168546824,-0.182764894,0,0,0,,0,65,65,40,1,1,TL,atameur,print,atameur_p.png,,,,,,
,,,,30971,001,2025-12-05_14h36.38.904,HW_LDT_1,2024.2.4,MacIntel,60.24096386,,,,,,,,,,,,,,,,,,,,,353.2353,353.4345,353.4346,353.9345,,,,,,,,,,,,,,2.2038,1,,,,,,,,,,,,,,m,,,,,,,,,,,,,,,,67,0,353.9351,356.1513,m,1,2.2038,,[],[],[],[],[],[],[],356.1514,358.1512,358.1512,358.1514,[],[],[],[],[],[],[],,358.1515,358.1516,-0.168546824,-0.182764894,0,0,0,,0,66,66,142,1,1,word,REMOTE,print,remote_p.png,,,,,,
,,,,30971,001,2025-12-05_14h36.38.904,HW_LDT_1,2024.2.4,MacIntel,60.24096386,,,,,,,,,,,,,,,,,,,,,358.1529,358.3511,358.3512,358.8512,,,,,,,,,,,,,,0.8704,1,,,,,,,,,,,,,,m,,,,,,,,,,,,,,,,68,0,358.8517,359.7336,m,1,0.8704,,[],[],[],[],[],[],[],359.7337,361.7347,361.7347,361.7349,[],[],[],[],[],[],[],,361.7349,361.735,-0.168546824,-0.182764894,0,0,0,,0,67,67,122,1,1,word,MOBILE,cursive,mobile_c.png,,,,,,
,,,,30971,001,2025-12-05_14h36.38.904,HW_LDT_1,2024.2.4,MacIntel,60.24096386,,,,,,,,,,,,,,,,,,,,,361.7364,361.9345,361.9345,362.4346,,,,,,,,,,,,,,0.6586,1,,,,,,,,,,,,,,z,,,,,,,,,,,,,,,,69,1,362.4352,363.1013,z,1,0.6586,,[],[],[],[],[],[],[],363.1013,365.1002,365.1003,366.5513,[],[],[],[],[],[],[],z,366.5514,366.5515,-0.168546824,-0.182764894,0,0,0,,0,68,68,43,1,1,TL,bedise,print,bedise_p.png,1.4401,,,,,
,,,,30971,001,2025-12-05_14h36.38.904,HW_LDT_1,2024.2.4,MacIntel,60.24096386,,,,,,,,,,,,,,,,,,,,,366.5525,366.7512,366.7513,367.2511,,,,,,,,,,,,,,1.1029,1,,,,,,,,,,,,,,m,,,,,,,,,,,,,,,,70,0,367.2517,368.3679,m,1,1.1029,,[],[],[],[],[],[],[],368.368,370.3669,370.3669,370.3671,[],[],[],[],[],[],[],,370.3672,370.3673,-0.168546824,-0.182764894,0,0,0,,0,69,69,86,1,1,word,BESIDE,print,beside_p.png,,,,,,
,,,,30971,001,2025-12-05_14h36.38.904,HW_LDT_1,2024.2.4,MacIntel,60.24096386,,,,,,,,,,,,,,,,,,,,,370.3685,370.5679,370.568,371.0669,,,,,,,,,,,,,,0.8546,1,,,,,,,,,,,,,,m,,,,,,,,,,,,,,,,71,0,371.0675,371.9346,m,1,0.8546,,[],[],[],[],[],[],[],371.9346,373.9345,373.9345,373.9348,[],[],[],[],[],[],[],,373.9348,373.9349,-0.168546824,-0.182764894,0,0,0,,0,70,70,136,1,1,word,RADICAL,print,radical_p.png,,,,,,
,,,,30971,001,2025-12-05_14h36.38.904,HW_LDT_1,2024.2.4,MacIntel,60.24096386,,,,,,,,,,,,,,,,,,,,,373.9361,374.134,374.134,374.6343,,,,,,,,,,,,,,1.7216,1,,,,,,,,,,,,,,m,,,,,,,,,,,,,,,,72,1,374.6349,376.3679,m,1,1.7216,,[],[],[],[],[],[],[],376.368,378.3672,378.3673,379.0678,[],[],[],[],[],[],[],m,379.0678,379.0679,-0.168546824,-0.182764894,0,0,0,,0,71,71,91,1,1,word,CARDINAL,print,cardinal_p.png,0.6994,,,,,
,,,,30971,001,2025-12-05_14h36.38.904,HW_LDT_1,2024.2.4,MacIntel,60.24096386,,,,,,,,,,,,,,,,,,,,,379.0692,379.2678,379.2679,379.7678,,,,,,,,,,,,,,1.8531,1,,,,,,,,,,,,,,m,,,,,,,,,,,,,,,,73,0,379.7683,381.6345,m,1,1.8531,,[],[],[],[],[],[],[],381.6345,383.6338,383.6338,383.634,[],[],[],[],[],[],[],,383.6341,383.6342,-0.168546824,-0.182764894,0,0,0,,0,72,72,93,1,1,word,CEREMONY,cursive,ceremony_c.png,,,,,,
,,,,30971,001,2025-12-05_14h36.38.904,HW_LDT_1,2024.2.4,MacIntel,60.24096386,,,,,,,,,,,,,,,,,,,,,383.6356,383.8345,383.8345,384.3345,,,,,,,,,,,,,,0.7196,1,,,,,,,,,,,,,,m,,,,,,,,,,,,,,,,74,0,384.3351,385.0679,m,1,0.7196,,[],[],[],[],[],[],[],385.068,387.0669,387.0669,387.0671,[],[],[],[],[],[],[],,387.0672,387.0673,-0.168546824,-0.182764894,0,0,0,,0,73,73,97,1,1,word,COVERAGE,print,coverage_p.png,,,,,,
,,,,30971,001,2025-12-05_14h36.38.904,HW_LDT_1,2024.2.4,MacIntel,60.24096386,,,,,,,,,,,,,,,,,,,,,387.0686,387.2678,387.2679,387.7669,,,,,,,,,,,,,,0.7419,1,,,,,,,,,,,,,,z,,,,,,,,,,,,,,,,75,0,387.7674,388.5179,z,1,0.7419,,[],[],[],[],[],[],[],388.5179,390.5178,390.5179,390.5181,[],[],[],[],[],[],[],,390.5181,390.5183,-0.168546824,-0.182764894,0,0,0,,0,74,74,27,1,1,RL,rasibal,print,rasibal_p.png,,,,,,
,,,,30971,001,2025-12-05_14h36.38.904,HW_LDT_1,2024.2.4,MacIntel,60.24096386,,,,,,,,,,,,,,,,,,,,,390.5196,390.7169,390.717,391.2178,,,,,,,,,,,,,,0.9876,1,,,,,,,,,,,,,,z,,,,,,,,,,,,,,,,76,0,391.2184,392.218,z,1,0.9876,,[],[],[],[],[],[],[],392.218,394.2178,394.2179,394.2181,[],[],[],[],[],[],[],,394.2182,394.2184,-0.168546824,-0.182514112,0,0,0,,0,75,75,19,1,1,RL,monebate,print,monebate_p.png,,,,,,
,,,,30971,001,2025-12-05_14h36.38.904,HW_LDT_1,2024.2.4,MacIntel,60.24096386,,,,,,,,,,,,,,,,,,,,,394.2197,394.4169,394.417,394.9178,,,,,,,,,,,,,,1.4205,1,,,,,,,,,,,,,,m,,,,,,,,,,,,,,,,77,0,394.9184,396.3502,m,1,1.4205,,[],[],[],[],[],[],[],396.3503,398.3511,398.3512,398.3514,[],[],[],[],[],[],[],,398.3515,398.3515,-0.168546824,-0.181493981,0,0,0,,0,76,76,152,1,1,word,SPECIMEN,cursive,specimen_c.png,,,,,,
,,,,30971,001,2025-12-05_14h36.38.904,HW_LDT_1,2024.2.4,MacIntel,60.24096386,,,,,,,,,,,,,,,,,,,,,398.353,398.5513,398.5513,399.0504,,,,,,,,,,,,,,0.6483,1,,,,,,,,,,,,,,m,,,,,,,,,,,,,,,,78,1,399.051,399.7012,m,1,0.6483,,[],[],[],[],[],[],[],399.7014,401.7012,401.7012,404.2179,[],[],[],[],[],[],[],z,404.218,404.2181,-0.168546824,-0.181493981,0,0,0,,0,77,77,114,1,1,word,LOCATE,print,locate_p.png,2.5049,,,,,
,,,,30971,001,2025-12-05_14h36.38.904,HW_LDT_1,2024.2.4,MacIntel,60.24096386,,,,,,,,,,,,,,,,,,,,,404.2193,404.4179,404.4179,404.918,,,,,,,,,,,,,,1.2303,1,,,,,,,,,,,,,,z,,,,,,,,,,,,,,,,79,0,404.9186,406.1513,z,1,1.2303,,[],[],[],[],[],[],[],406.1513,408.1511,408.1512,408.1515,[],[],[],[],[],[],[],,408.1515,408.1516,-0.168546824,-0.181493981,0,0,0,,0,78,78,74,1,1,TL,setanor,cursive,setanor_c.png,,,,,,
,,,,30971,001,2025-12-05_14h36.38.904,HW_LDT_1,2024.2.4,MacIntel,60.24096386,,,,,,,,,,,,,,,,,,,,,408.1529,408.3511,408.3512,408.8512,,,,,,,,,,,,,,1.4574,1,,,,,,,,,,,,,,z,,,,,,,,,,,,,,,,80,0,408.8518,410.3179,z,1,1.4574,,[],[],[],[],[],[],[],410.3179,412.3179,412.3179,412.3182,[],[],[],[],[],[],[],,412.3182,518.235,-0.168546824,-0.181493981,0,0,0,space,0,79,79,71,1,1,TL,regilion,cursive,regilion_c.png,,,105.8854,,,
,,,,30971,001,2025-12-05_14h36.38.904,HW_LDT_1,2024.2.4,MacIntel,60.24096386,,,,,,,,,,,,,,,,,,,,,518.2362,518.4344,518.4345,518.9338,,,,,,,,,,,,,,1.5807,0,,,,,,,,,,,,,,m,,,,,,,,,,,,,,,,81,0,518.9344,520.5179,z,0,1.5807,,[],[],[],[],[],[],[],520.5182,522.517,522.517,522.5173,[],[],[],[],[],[],[],,522.5173,522.5174,-0.168546824,-0.181493981,0,0,0,,0,80,80,88,1,1,word,CAMERA,cursive,camera_c.png,,,,,,
,,,,30971,001,2025-12-05_14h36.38.904,HW_LDT_1,2024.2.4,MacIntel,60.24096386,,,,,,,,,,,,,,,,,,,,,522.5187,522.7178,522.7179,523.2178,,,,,,,,,,,,,,2.0203,0,,,,,,,,,,,,,,m,,,,,,,,,,,,,,,,82,0,523.2185,525.2511,z,0,2.0203,,[],[],[],[],[],[],[],525.2513,527.2512,527.2512,527.2515,[],[],[],[],[],[],[],,527.2515,527.2517,-0.168546824,-0.181493981,0,0,0,,0,81,81,151,1,1,word,SPECIFIC,cursive,specific_c.png,,,,,,
,,,,30971,001,2025-12-05_14h36.38.904,HW_LDT_1,2024.2.4,MacIntel,60.24096386,,,,,,,,,,,,,,,,,,,,,527.253,527.4502,527.4503,527.9512,,,,,,,,,,,,,,1.0037,1,,,,,,,,,,,,,,z,,,,,,,,,,,,,,,,83,0,527.9517,528.9673,z,1,1.0037,,[],[],[],[],[],[],[],528.9674,530.9677,530.9678,530.968,[],[],[],[],[],[],[],,530.9681,530.9681,-0.168546824,-0.181493981,0,0,0,,0,82,82,49,1,1,TL,clicinal,cursive,clicinal_c.png,,,,,,
,,,,30971,001,2025-12-05_14h36.38.904,HW_LDT_1,2024.2.4,MacIntel,60.24096386,,,,,,,,,,,,,,,,,,,,,530.9694,531.1678,531.1678,531.6678,,,,,,,,,,,,,,1.2224,1,,,,,,,,,,,,,,z,,,,,,,,,,,,,,,,84,0,531.6683,532.9012,z,1,1.2224,,[],[],[],[],[],[],[],532.9014,534.9012,534.9012,534.9014,[],[],[],[],[],[],[],,534.9015,534.9015,-0.168546824,-0.181493981,0,0,0,,0,83,83,31,1,1,RL,reconal,cursive,reconal_c.png,,,,,,
,,,,30971,001,2025-12-05_14h36.38.904,HW_LDT_1,2024.2.4,MacIntel,60.24096386,,,,,,,,,,,,,,,,,,,,,534.9029,535.1005,535.1005,535.6011,,,,,,,,,,,,,,0.753,1,,,,,,,,,,,,,,m,,,,,,,,,,,,,,,,85,0,535.6018,536.368,m,1,0.753,,[],[],[],[],[],[],[],536.368,538.3678,538.3678,538.3681,[],[],[],[],[],[],[],,538.3682,538.3683,-0.168546824,-0.181493981,0,0,0,,0,84,84,113,1,1,word,LITERAL,print,literal_p.png,,,,,,
,,,,30971,001,2025-12-05_14h36.38.904,HW_LDT_1,2024.2.4,MacIntel,60.24096386,,,,,,,,,,,,,,,,,,,,,538.3695,538.5669,538.5669,539.0669,,,,,,,,,,,,,,1.3591,1,,,,,,,,,,,,,,z,,,,,,,,,,,,,,,,86,0,539.0674,540.4336,z,1,1.3591,,[],[],[],[],[],[],[],540.4338,542.4344,542.4345,542.4347,[],[],[],[],[],[],[],,542.4347,542.4348,-0.168546824,-0.181493981,0,0,0,,0,85,85,72,1,1,TL,remuse,print,remuse_p.png,,,,,,
,,,,30971,001,2025-12-05_14h36.38.904,HW_LDT_1,2024.2.4,MacIntel,60.24096386,,,,,,,,,,,,,,,,,,,,,542.436,542.6344,542.6345,543.1345,,,,,,,,,,,,,,0.7716,1,,,,,,,,,,,,,,z,,,,,,,,,,,,,,,,87,0,543.1351,543.9179,z,1,0.7716,,[],[],[],[],[],[],[],543.918,545.9178,545.9178,545.9181,[],[],[],[],[],[],[],,545.9181,545.9182,-0.168546824,-0.181493981,0,0,0,,0,86,86,42,1,1,TL,befenit,print,befenit_p.png,,,,,,
,,,,30971,001,2025-12-05_14h36.38.904,HW_LDT_1,2024.2.4,MacIntel,60.24096386,,,,,,,,,,,,,,,,,,,,,545.9195,546.1178,546.1178,546.6169,,,,,,,,,,,,,,0.9212,1,,,,,,,,,,,,,,z,,,,,,,,,,,,,,,,88,0,546.6175,547.5511,z,1,0.9212,,[],[],[],[],[],[],[],547.5512,549.5506,549.5506,549.5507,[],[],[],[],[],[],[],,549.5508,549.5509,-0.168546824,-0.181493981,0,0,0,,0,87,87,13,1,1,RL,linefal,print,linefal_p.png,,,,,,
,,,,30971,001,2025-12-05_14h36.38.904,HW_LDT_1,2024.2.4,MacIntel,60.24096386,,,,,,,,,,,,,,,,,,,,,549.5522,549.7511,549.7512,550.2502,,,,,,,,,,,,,,2.0817,1,,,,,,,,,,,,,,z,,,,,,,,,,,,,,,,89,0,550.2508,552.3343,z,1,2.0817,,[],[],[],[],[],[],[],552.3343,554.3344,554.3345,554.3348,[],[],[],[],[],[],[],,554.3349,554.3349,-0.168546824,-0.181493981,0,0,0,,0,88,88,5,1,1,RL,cobeny,cursive,cobeny_c.png,,,,,,
,,,,30971,001,2025-12-05_14h36.38.904,HW_LDT_1,2024.2.4,MacIntel,60.24096386,,,,,,,,,,,,,,,,,,,,,554.3363,554.5345,554.5346,555.0345,,,,,,,,,,,,,,0.83,1,,,,,,,,,,,,,,z,,,,,,,,,,,,,,,,90,0,555.0352,555.8679,z,1,0.83,,[],[],[],[],[],[],[],555.8681,557.8669,557.8669,557.8672,[],[],[],[],[],[],[],,557.8672,557.8673,-0.168546824,-0.181493981,0,0,0,,0,89,89,8,1,1,RL,debave,print,debave_p.png,,,,,,
,,,,30971,001,2025-12-05_14h36.38.904,HW_LDT_1,2024.2.4,MacIntel,60.24096386,,,,,,,,,,,,,,,,,,,,,557.8686,558.0678,558.0678,558.5677,,,,,,,,,,,,,,2.5704,1,,,,,,,,,,,,,,z,,,,,,,,,,,,,,,,91,0,558.5684,561.1508,z,1,2.5704,,[],[],[],[],[],[],[],561.1508,563.1507,563.1508,563.151,[],[],[],[],[],[],[],,563.1511,563.1512,-0.168546824,-0.181493981,0,0,0,,0,90,90,57,1,1,TL,hetirage,cursive,hetirage_c.png,,,,,,
,,,,30971,001,2025-12-05_14h36.38.904,HW_LDT_1,2024.2.4,MacIntel,60.24096386,,,,,,,,,,,,,,,,,,,,,563.1524,563.3511,563.3512,563.8511,,,,,,,,,,,,,,0.637,1,,,,,,,,,,,,,,m,,,,,,,,,,,,,,,,92,0,563.8517,564.5011,m,1,0.637,,[],[],[],[],[],[],[],564.5013,566.5011,566.5012,566.5014,[],[],[],[],[],[],[],,566.5014,566.5016,-0.168546824,-0.181493981,0,0,0,,0,91,91,139,1,1,word,REGULAR,print,regular_p.png,,,,,,
,,,,30971,001,2025-12-05_14h36.38.904,HW_LDT_1,2024.2.4,MacIntel,60.24096386,,,,,,,,,,,,,,,,,,,,,566.5028,566.7011,566.7011,567.2011,,,,,,,,,,,,,,0.6822,1,,,,,,,,,,,,,,z,,,,,,,,,,,,,,,,93,0,567.2017,567.8851,z,1,0.6822,,[],[],[],[],[],[],[],567.8852,569.8844,569.8845,569.8847,[],[],[],[],[],[],[],,569.8847,569.8848,-0.168546824,-0.181493981,0,0,0,,0,92,92,51,1,1,TL,corevage,print,corevage_p.png,,,,,,
,,,,30971,001,2025-12-05_14h36.38.904,HW_LDT_1,2024.2.4,MacIntel,60.24096386,,,,,,,,,,,,,,,,,,,,,569.8861,570.0845,570.0846,570.5844,,,,,,,,,,,,,,0.9887,1,,,,,,,,,,,,,,m,,,,,,,,,,,,,,,,94,1,570.585,571.5845,m,1,0.9887,,[],[],[],[],[],[],[],571.5846,573.5843,573.5844,574.4519,[],[],[],[],[],[],[],m,574.4519,574.4521,-0.168546824,-0.181493981,0,0,0,,0,93,93,123,1,1,word,MODERATE,print,moderate_p.png,0.8666,,,,,
,,,,30971,001,2025-12-05_14h36.38.904,HW_LDT_1,2024.2.4,MacIntel,60.24096386,,,,,,,,,,,,,,,,,,,,,574.4533,574.6511,574.6512,575.1511,,,,,,,,,,,,,,0.8865,1,,,,,,,,,,,,,,z,,,,,,,,,,,,,,,,95,1,575.1517,576.0502,z,1,0.8865,,[],[],[],[],[],[],[],576.0502,578.0511,578.0511,578.7345,[],[],[],[],[],[],[],z,578.7346,578.7346,-0.168546824,-0.181493981,0,0,0,,0,94,94,59,1,1,TL,lirebal,cursive,lirebal_c.png,0.6736,,,,,
,,,,30971,001,2025-12-05_14h36.38.904,HW_LDT_1,2024.2.4,MacIntel,60.24096386,,,,,,,,,,,,,,,,,,,,,578.7358,578.9345,578.9345,579.4345,,,,,,,,,,,,,,0.6209,1,,,,,,,,,,,,,,m,,,,,,,,,,,,,,,,96,0,579.4351,580.0678,m,1,0.6209,,[],[],[],[],[],[],[],580.0679,582.0677,582.0679,582.068,[],[],[],[],[],[],[],,582.0681,582.0682,-0.168546824,-0.181493981,0,0,0,,0,95,95,100,1,1,word,DECADE,print,decade_p.png,,,,,,
,,,,30971,001,2025-12-05_14h36.38.904,HW_LDT_1,2024.2.4,MacIntel,60.24096386,,,,,,,,,,,,,,,,,,,,,582.0694,582.2678,582.2679,582.7678,,,,,,,,,,,,,,0.6968,1,,,,,,,,,,,,,,z,,,,,,,,,,,,,,,,97,0,582.7683,583.4678,z,1,0.6968,,[],[],[],[],[],[],[],583.4679,585.4678,585.4679,585.4681,[],[],[],[],[],[],[],,585.4681,585.4683,-0.168546824,-0.181493981,0,0,0,,0,96,96,41,1,1,TL,bevoled,print,bevoled_p.png,,,,,,
,,,,30971,001,2025-12-05_14h36.38.904,HW_LDT_1,2024.2.4,MacIntel,60.24096386,,,,,,,,,,,,,,,,,,,,,585.4695,585.6671,585.6671,586.1678,,,,,,,,,,,,,,0.7369,1,,,,,,,,,,,,,,m,,,,,,,,,,,,,,,,98,1,586.1684,586.9169,m,1,0.7369,,[],[],[],[],[],[],[],586.917,588.9177,588.9178,590.0185,[],[],[],[],[],[],[],m,590.0186,590.0186,-0.168546824,-0.181493981,0,0,0,,0,97,97,158,1,1,word,VELOCITY,print,velocity_p.png,1.0998,,,,,
,,,,30971,001,2025-12-05_14h36.38.904,HW_LDT_1,2024.2.4,MacIntel,60.24096386,,,,,,,,,,,,,,,,,,,,,590.0198,590.2179,590.218,590.7169,,,,,,,,,,,,,,1.8042,1,,,,,,,,,,,,,,z,,,,,,,,,,,,,,,,99,1,590.7174,592.5345,z,1,1.8042,,[],[],[],[],[],[],[],592.5346,594.5337,594.5338,595.1185,[],[],[],[],[],[],[],z,595.1186,595.1187,-0.168546824,-0.181493981,0,0,0,,0,98,98,75,1,1,TL,speficic,cursive,speficic_c.png,0.5839,,,,,
,,,,30971,001,2025-12-05_14h36.38.904,HW_LDT_1,2024.2.4,MacIntel,60.24096386,,,,,,,,,,,,,,,,,,,,,595.1198,595.3178,595.3179,595.8178,,,,,,,,,,,,,,0.9551,1,,,,,,,,,,,,,,m,,,,,,,,,,,,,,,,100,0,595.8184,596.7845,m,1,0.9551,,[],[],[],[],[],[],[],596.7846,598.7836,598.7836,598.7838,[],[],[],[],[],[],[],,598.7839,598.784,-0.168546824,-0.181493981,0,0,0,,0,99,99,89,1,1,word,CAPACITY,print,capacity_p.png,,,,,,
,,,,30971,001,2025-12-05_14h36.38.904,HW_LDT_1,2024.2.4,MacIntel,60.24096386,,,,,,,,,,,,,,,,,,,,,598.7852,598.9844,598.9845,599.4836,,,,,,,,,,,,,,0.8053,1,,,,,,,,,,,,,,m,,,,,,,,,,,,,,,,101,1,599.4841,600.3011,m,1,0.8053,,[],[],[],[],[],[],[],600.3012,602.3012,602.3012,602.9179,[],[],[],[],[],[],[],m,602.918,602.9181,-0.168546824,-0.181493981,0,0,0,,0,100,100,90,1,1,word,CAPITAL,print,capital_p.png,0.6041,,,,,
,,,,30971,001,2025-12-05_14h36.38.904,HW_LDT_1,2024.2.4,MacIntel,60.24096386,,,,,,,,,,,,,,,,,,,,,602.9191,603.1178,603.1178,603.6178,,,,,,,,,,,,,,0.7638,1,,,,,,,,,,,,,,z,,,,,,,,,,,,,,,,102,0,603.6183,604.3843,z,1,0.7638,,[],[],[],[],[],[],[],604.3844,606.3837,606.3838,606.3839,[],[],[],[],[],[],[],,606.384,606.384,-0.168546824,-0.181493981,0,0,0,,0,101,101,78,1,1,TL,vecolity,print,vecolity_p.png,,,,,,
,,,,30971,001,2025-12-05_14h36.38.904,HW_LDT_1,2024.2.4,MacIntel,60.24096386,,,,,,,,,,,,,,,,,,,,,606.3853,606.5844,606.5844,607.0844,,,,,,,,,,,,,,1.4881,1,,,,,,,,,,,,,,z,,,,,,,,,,,,,,,,103,0,607.085,608.5845,z,1,1.4881,,[],[],[],[],[],[],[],608.5846,610.5845,610.5847,610.5847,[],[],[],[],[],[],[],,610.5849,610.585,-0.168546824,-0.181493981,0,0,0,,0,102,102,4,1,1,RL,carminal,print,carminal_p.png,,,,,,
,,,,30971,001,2025-12-05_14h36.38.904,HW_LDT_1,2024.2.4,MacIntel,60.24096386,,,,,,,,,,,,,,,,,,,,,610.5863,610.7845,610.7845,611.2844,,,,,,,,,,,,,,0.7868,1,,,,,,,,,,,,,,m,,,,,,,,,,,,,,,,104,0,611.2849,612.0845,m,1,0.7868,,[],[],[],[],[],[],[],612.0845,614.0844,614.0846,614.0847,[],[],[],[],[],[],[],,614.0847,614.085,-0.168546824,-0.181740513,0,0,0,,0,103,103,107,1,1,word,EVIDENT,print,evident_p.png,,,,,,
,,,,30971,001,2025-12-05_14h36.38.904,HW_LDT_1,2024.2.4,MacIntel,60.24096386,,,,,,,,,,,,,,,,,,,,,614.0862,614.2838,614.2838,614.7845,,,,,,,,,,,,,,1.52,1,,,,,,,,,,,,,,m,,,,,,,,,,,,,,,,105,0,614.7852,616.318,m,1,1.52,,[],[],[],[],[],[],[],616.3181,618.3177,618.3178,618.3181,[],[],[],[],[],[],[],,618.3181,618.3183,-0.168546824,-0.181740513,0,0,0,,0,104,104,154,1,1,word,STORAGE,cursive,storage_c.png,,,,,,
,,,,30971,001,2025-12-05_14h36.38.904,HW_LDT_1,2024.2.4,MacIntel,60.24096386,,,,,,,,,,,,,,,,,,,,,618.3196,618.5177,618.5178,619.0178,,,,,,,,,,,,,,2.0879,1,,,,,,,,,,,,,,z,,,,,,,,,,,,,,,,106,0,619.0183,621.1179,z,1,2.0879,,[],[],[],[],[],[],[],621.1179,623.1177,623.1179,623.1181,[],[],[],[],[],[],[],,623.1181,623.1182,-0.168546824,-0.181740513,0,0,0,,0,105,105,1,1,1,RL,adnicory,cursive,adnicory_c.png,,,,,,
,,,,30971,001,2025-12-05_14h36.38.904,HW_LDT_1,2024.2.4,MacIntel,60.24096386,,,,,,,,,,,,,,,,,,,,,623.1194,623.3177,623.3178,623.8177,,,,,,,,,,,,,,0.9205,1,,,,,,,,,,,,,,z,,,,,,,,,,,,,,,,107,0,623.8184,624.7512,z,1,0.9205,,[],[],[],[],[],[],[],624.7512,626.7511,626.7512,626.7515,[],[],[],[],[],[],[],,626.7515,626.7516,-0.168546824,-0.181740513,0,0,0,,0,106,106,11,1,1,RL,elacodate,print,elacodate_p.png,,,,,,
,,,,30971,001,2025-12-05_14h36.38.904,HW_LDT_1,2024.2.4,MacIntel,60.24096386,,,,,,,,,,,,,,,,,,,,,626.7529,626.951,626.9511,627.451,,,,,,,,,,,,,,1.1371,1,,,,,,,,,,,,,,m,,,,,,,,,,,,,,,,108,1,627.4516,628.6002,m,1,1.1371,,[],[],[],[],[],[],[],628.6003,630.601,630.6012,631.718,[],[],[],[],[],[],[],z,631.718,631.7182,-0.168546824,-0.181740513,0,0,0,,0,107,107,141,1,1,word,RELIGION,cursive,religion_c.png,1.1044,,,,,
,,,,30971,001,2025-12-05_14h36.38.904,HW_LDT_1,2024.2.4,MacIntel,60.24096386,,,,,,,,,,,,,,,,,,,,,631.7194,631.917,631.9171,632.4178,,,,,,,,,,,,,,1.7135,0,,,,,,,,,,,,,,m,,,,,,,,,,,,,,,,109,0,632.4184,634.1347,z,0,1.7135,,[],[],[],[],[],[],[],634.1347,636.1345,636.1345,636.1347,[],[],[],[],[],[],[],,636.1347,636.1348,-0.168546824,-0.181740513,0,0,0,,0,108,108,103,1,1,word,DISPUTE,cursive,dispute_c.png,,,,,,
,,,,30971,001,2025-12-05_14h36.38.904,HW_LDT_1,2024.2.4,MacIntel,60.24096386,,,,,,,,,,,,,,,,,,,,,636.1361,636.3345,636.3345,636.8344,,,,,,,,,,,,,,0.8052,1,,,,,,,,,,,,,,m,,,,,,,,,,,,,,,,110,1,636.835,637.6511,m,1,0.8052,,[],[],[],[],[],[],[],637.6512,639.6508,639.6509,640.6679,[],[],[],[],[],[],[],z,640.668,640.6681,-0.168546824,-0.181740513,0,0,0,,0,109,109,137,1,1,word,RAPIDLY,cursive,rapidly_c.png,1.0158,,,,,
,,,,30971,001,2025-12-05_14h36.38.904,HW_LDT_1,2024.2.4,MacIntel,60.24096386,,,,,,,,,,,,,,,,,,,,,640.6694,640.8677,640.8678,641.3678,,,,,,,,,,,,,,1.1819,1,,,,,,,,,,,,,,z,,,,,,,,,,,,,,,,111,0,641.3684,642.5514,z,1,1.1819,,[],[],[],[],[],[],[],642.5515,644.5509,644.551,644.551,[],[],[],[],[],[],[],,644.551,644.5511,-0.168546824,-0.181740513,0,0,0,,0,110,110,25,1,1,RL,quakity,cursive,quakity_c.png,,,,,,
,,,,30971,001,2025-12-05_14h36.38.904,HW_LDT_1,2024.2.4,MacIntel,60.24096386,,,,,,,,,,,,,,,,,,,,,644.5516,644.7511,644.7512,645.2511,,,,,,,,,,,,,,0.6823,1,,,,,,,,,,,,,,z,,,,,,,,,,,,,,,,112,0,645.2517,645.935,z,1,0.6823,,[],[],[],[],[],[],[],645.9351,647.9344,647.9345,647.9347,[],[],[],[],[],[],[],,647.9348,647.9349,-0.168546824,-0.181740513,0,0,0,,0,111,111,37,1,1,RL,skofen,print,skofen_p.png,,,,,,
,,,,30971,001,2025-12-05_14h36.38.904,HW_LDT_1,2024.2.4,MacIntel,60.24096386,,,,,,,,,,,,,,,,,,,,,647.9362,648.1345,648.1345,648.6344,,,,,,,,,,,,,,1.453,1,,,,,,,,,,,,,,z,,,,,,,,,,,,,,,,113,0,648.6351,650.1002,z,1,1.453,,[],[],[],[],[],[],[],650.1003,652.1011,652.1011,652.1014,[],[],[],[],[],[],[],,652.1014,652.1015,-0.168546824,-0.181740513,0,0,0,,0,112,112,52,1,1,TL,decilate,cursive,decilate_c.png,,,,,,
,,,,30971,001,2025-12-05_14h36.38.904,HW_LDT_1,2024.2.4,MacIntel,60.24096386,,,,,,,,,,,,,,,,,,,,,652.1029,652.3011,652.3011,652.8011,,,,,,,,,,,,,,0.6299,1,,,,,,,,,,,,,,m,,,,,,,,,,,,,,,,114,0,652.8017,653.4345,m,1,0.6299,,[],[],[],[],[],[],[],653.4346,655.4344,655.4345,655.4347,[],[],[],[],[],[],[],,655.4348,655.4349,-0.168546824,-0.181740513,0,0,0,,0,113,113,126,1,1,word,OPTIMAL,print,optimal_p.png,,,,,,
,,,,30971,001,2025-12-05_14h36.38.904,HW_LDT_1,2024.2.4,MacIntel,60.24096386,,,,,,,,,,,,,,,,,,,,,655.4361,655.6344,655.6344,656.1344,,,,,,,,,,,,,,0.6454,1,,,,,,,,,,,,,,m,,,,,,,,,,,,,,,,115,0,656.1352,656.7838,m,1,0.6454,,[],[],[],[],[],[],[],656.7838,658.7845,658.7846,658.7848,[],[],[],[],[],[],[],,658.7849,658.7849,-0.168546824,-0.181489731,0,0,0,,0,114,114,153,1,1,word,STOLEN,print,stolen_p.png,,,,,,
,,,,30971,001,2025-12-05_14h36.38.904,HW_LDT_1,2024.2.4,MacIntel,60.24096386,,,,,,,,,,,,,,,,,,,,,658.7862,658.9845,658.9845,659.4844,,,,,,,,,,,,,,1.2873,1,,,,,,,,,,,,,,m,,,,,,,,,,,,,,,,116,1,659.485,660.7846,m,1,1.2873,,[],[],[],[],[],[],[],660.7847,662.7845,662.7845,663.4186,[],[],[],[],[],[],[],m,663.4186,663.4187,-0.168546824,-0.181489731,0,0,0,,0,115,115,159,1,1,word,VETERAN,print,veteran_p.png,0.6332,,,,,
,,,,30971,001,2025-12-05_14h36.38.904,HW_LDT_1,2024.2.4,MacIntel,60.24096386,,,,,,,,,,,,,,,,,,,,,663.4201,663.6177,663.6178,664.1168,,,,,,,,,,,,,,0.8164,1,,,,,,,,,,,,,,z,,,,,,,,,,,,,,,,117,0,664.1174,664.935,z,1,0.8164,,[],[],[],[],[],[],[],664.935,666.9345,666.9345,666.9347,[],[],[],[],[],[],[],,666.9348,666.9348,-0.168546824,-0.181489731,0,0,0,,0,116,116,65,1,1,TL,orinigal,cursive,orinigal_c.png,,,,,,
,,,,30971,001,2025-12-05_14h36.38.904,HW_LDT_1,2024.2.4,MacIntel,60.24096386,,,,,,,,,,,,,,,,,,,,,666.9361,667.1341,667.1341,667.6344,,,,,,,,,,,,,,1.099,1,,,,,,,,,,,,,,m,,,,,,,,,,,,,,,,118,0,667.635,668.7352,m,1,1.099,,[],[],[],[],[],[],[],668.7353,670.7345,670.7345,670.7347,[],[],[],[],[],[],[],,670.7348,670.7348,-0.168546824,-0.181489731,0,0,0,,0,117,117,132,1,1,word,PROPOSAL,cursive,proposal_c.png,,,,,,
,,,,30971,001,2025-12-05_14h36.38.904,HW_LDT_1,2024.2.4,MacIntel,60.24096386,,,,,,,,,,,,,,,,,,,,,670.7361,670.9344,670.9345,671.4344,,,,,,,,,,,,,,1.6279,1,,,,,,,,,,,,,,z,,,,,,,,,,,,,,,,119,0,671.4351,673.0679,z,1,1.6279,,[],[],[],[],[],[],[],673.0681,675.0678,675.0679,675.0681,[],[],[],[],[],[],[],,675.0682,675.0682,-0.168546824,-0.181489731,0,0,0,,0,118,118,35,1,1,RL,senvilent,cursive,senvilent_c.png,,,,,,
,,,,30971,001,2025-12-05_14h36.38.904,HW_LDT_1,2024.2.4,MacIntel,60.24096386,,,,,,,,,,,,,,,,,,,,,675.0694,675.2678,675.2678,675.7678,,,,,,,,,,,,,,0.6542,1,,,,,,,,,,,,,,m,,,,,,,,,,,,,,,,120,0,675.7684,676.4344,m,1,0.6542,,[],[],[],[],[],[],[],676.4346,678.4345,678.4345,678.4347,[],[],[],[],[],[],[],,678.4348,678.4348,-0.168546824,-0.181489731,0,0,0,,0,119,119,117,1,1,word,MARINE,print,marine_p.png,,,,,,
,,,,30971,001,2025-12-05_14h36.38.904,HW_LDT_1,2024.2.4,MacIntel,60.24096386,,,,,,,,,,,,,,,,,,,,,678.4361,678.6344,678.6344,679.1344,,,,,,,,,,,,,,2.071,0,,,,,,,,,,,,,,m,,,,,,,,,,,,,,,,121,0,679.135,681.2179,z,0,2.071,,[],[],[],[],[],[],[],681.2179,683.2177,683.2178,683.218,[],[],[],[],[],[],[],,683.2181,683.2182,-0.168546824,-0.181489731,0,0,0,,0,120,120,102,1,1,word,DENSITY,cursive,density_c.png,,,,,,
,,,,30971,001,2025-12-05_14h36.38.904,HW_LDT_1,2024.2.4,MacIntel,60.24096386,,,,,,,,,,,,,,,,,,,,,683.2195,683.4178,683.4178,683.9177,,,,,,,,,,,,,,0.6702,1,,,,,,,,,,,,,,z,,,,,,,,,,,,,,,,122,0,683.9183,684.6012,z,1,0.6702,,[],[],[],[],[],[],[],684.6012,686.6011,686.6011,686.6014,[],[],[],[],[],[],[],,686.6014,686.6015,-0.168546824,-0.181489731,0,0,0,,0,121,121,7,1,1,RL,delahe,print,delahe_p.png,,,,,,
,,,,30971,001,2025-12-05_14h36.38.904,HW_LDT_1,2024.2.4,MacIntel,60.24096386,,,,,,,,,,,,,,,,,,,,,686.6028,686.8011,686.8011,687.3011,,,,,,,,,,,,,,1.6704,1,,,,,,,,,,,,,,z,,,,,,,,,,,,,,,,123,1,687.3017,688.9836,z,1,1.6704,,[],[],[],[],[],[],[],688.9837,690.9844,690.9845,691.8345,[],[],[],[],[],[],[],z,691.8345,691.8347,-0.168546824,-0.181489731,0,0,0,,0,122,122,73,1,1,TL,ronamtic,cursive,ronamtic_c.png,0.8416,,,,,
,,,,30971,001,2025-12-05_14h36.38.904,HW_LDT_1,2024.2.4,MacIntel,60.24096386,,,,,,,,,,,,,,,,,,,,,691.8357,692.0344,692.0344,692.5344,,,,,,,,,,,,,,1.4067,1,,,,,,,,,,,,,,z,,,,,,,,,,,,,,,,124,0,692.535,693.9512,z,1,1.4067,,[],[],[],[],[],[],[],693.9512,695.9502,695.9502,695.9505,[],[],[],[],[],[],[],,695.9505,695.9506,-0.168546824,-0.181489731,0,0,0,,0,123,123,34,1,1,RL,samite,print,samite_p.png,,,,,,
,,,,30971,001,2025-12-05_14h36.38.904,HW_LDT_1,2024.2.4,MacIntel,60.24096386,,,,,,,,,,,,,,,,,,,,,695.9519,696.1511,696.1512,696.6511,,,,,,,,,,,,,,1.6732,1,,,,,,,,,,,,,,z,,,,,,,,,,,,,,,,125,0,696.6517,698.3346,z,1,1.6732,,[],[],[],[],[],[],[],698.3346,700.3344,700.3345,700.3347,[],[],[],[],[],[],[],,700.3347,700.3349,-0.168546824,-0.181489731,0,0,0,,0,124,124,10,1,1,RL,efibor,cursive,efibor_c.png,,,,,,
,,,,30971,001,2025-12-05_14h36.38.904,HW_LDT_1,2024.2.4,MacIntel,60.24096386,,,,,,,,,,,,,,,,,,,,,700.3363,700.5344,700.5344,701.0337,,,,,,,,,,,,,,1.2879,1,,,,,,,,,,,,,,z,,,,,,,,,,,,,,,,126,1,701.0343,702.3345,z,1,1.2879,,[],[],[],[],[],[],[],702.3345,704.3345,704.3345,705.1168,[],[],[],[],[],[],[],z,705.1169,705.117,-0.168546824,-0.181489731,0,0,0,,0,125,125,53,1,1,TL,dentisy,cursive,dentisy_c.png,0.7718,,,,,
,,,,30971,001,2025-12-05_14h36.38.904,HW_LDT_1,2024.2.4,MacIntel,60.24096386,,,,,,,,,,,,,,,,,,,,,705.1182,705.3177,705.3179,705.8167,,,,,,,,,,,,,,0.9213,1,,,,,,,,,,,,,,m,,,,,,,,,,,,,,,,127,0,705.8174,706.7512,m,1,0.9213,,[],[],[],[],[],[],[],706.7512,708.7511,708.7512,708.7514,[],[],[],[],[],[],[],,708.7514,708.7516,-0.168546824,-0.181489731,0,0,0,,0,126,126,82,1,1,word,AMATEUR,print,amateur_p.png,,,,,,
,,,,30971,001,2025-12-05_14h36.38.904,HW_LDT_1,2024.2.4,MacIntel,60.24096386,,,,,,,,,,,,,,,,,,,,,708.7529,708.9511,708.9512,709.4511,,,,,,,,,,,,,,0.954,1,,,,,,,,,,,,,,m,,,,,,,,,,,,,,,,128,0,709.4516,710.4178,m,1,0.954,,[],[],[],[],[],[],[],710.4178,712.4178,712.4178,712.418,[],[],[],[],[],[],[],,712.418,712.4181,-0.168546824,-0.181489731,0,0,0,,0,127,127,147,1,1,word,ROMANTIC,cursive,romantic_c.png,,,,,,
,,,,30971,001,2025-12-05_14h36.38.904,HW_LDT_1,2024.2.4,MacIntel,60.24096386,,,,,,,,,,,,,,,,,,,,,712.4193,712.6177,712.6177,713.1178,,,,,,,,,,,,,,0.9195,1,,,,,,,,,,,,,,z,,,,,,,,,,,,,,,,129,0,713.1185,714.0501,z,1,0.9195,,[],[],[],[],[],[],[],714.0502,716.0511,716.0511,716.0514,[],[],[],[],[],[],[],,716.0514,716.0516,-0.168546824,-0.181489731,0,0,0,,0,128,128,16,1,1,RL,marmipal,print,marmipal_p.png,,,,,,
,,,,30971,001,2025-12-05_14h36.38.904,HW_LDT_1,2024.2.4,MacIntel,60.24096386,,,,,,,,,,,,,,,,,,,,,716.0528,716.2511,716.2511,716.7501,,,,,,,,,,,,,,1.5666,1,,,,,,,,,,,,,,z,,,,,,,,,,,,,,,,130,0,716.7506,718.3184,z,1,1.5666,,[],[],[],[],[],[],[],718.3185,720.3171,720.3173,720.3174,[],[],[],[],[],[],[],,720.3174,720.3175,-0.168546824,-0.181489731,0,0,0,,0,129,129,23,1,1,RL,potugar,cursive,potugar_c.png,,,,,,
,,,,30971,001,2025-12-05_14h36.38.904,HW_LDT_1,2024.2.4,MacIntel,60.24096386,,,,,,,,,,,,,,,,,,,,,720.3188,720.5168,720.5169,721.0168,,,,,,,,,,,,,,1.8648,1,,,,,,,,,,,,,,z,,,,,,,,,,,,,,,,131,0,721.0174,722.8845,z,1,1.8648,,[],[],[],[],[],[],[],722.8846,724.8835,724.8835,724.8836,[],[],[],[],[],[],[],,724.8837,724.8838,-0.168546824,-0.181489731,0,0,0,,0,130,130,36,1,1,RL,speniven,cursive,speniven_c.png,,,,,,
,,,,30971,001,2025-12-05_14h36.38.904,HW_LDT_1,2024.2.4,MacIntel,60.24096386,,,,,,,,,,,,,,,,,,,,,724.8851,725.0844,725.0845,725.5844,,,,,,,,,,,,,,1.0316,0,,,,,,,,,,,,,,m,,,,,,,,,,,,,,,,132,0,725.5851,726.6178,z,0,1.0316,,[],[],[],[],[],[],[],726.6179,728.6168,728.6169,728.617,[],[],[],[],[],[],[],,728.617,728.6172,-0.168546824,-0.181489731,0,0,0,,0,131,131,101,1,1,word,DELICATE,cursive,delicate_c.png,,,,,,
,,,,30971,001,2025-12-05_14h36.38.904,HW_LDT_1,2024.2.4,MacIntel,60.24096386,,,,,,,,,,,,,,,,,,,,,728.6186,728.8177,728.8177,729.3175,,,,,,,,,,,,,,1.704,0,,,,,,,,,,,,,,m,,,,,,,,,,,,,,,,133,0,729.3181,731.0335,z,0,1.704,,[],[],[],[],[],[],[],731.0337,733.0345,733.0345,733.0347,[],[],[],[],[],[],[],,733.0348,733.0349,-0.168546824,-0.181489731,0,0,0,,0,132,132,140,1,1,word,RELATIVE,cursive,relative_c.png,,,,,,
,,,,30971,001,2025-12-05_14h36.38.904,HW_LDT_1,2024.2.4,MacIntel,60.24096386,,,,,,,,,,,,,,,,,,,,,733.0362,733.2344,733.2346,733.7344,,,,,,,,,,,,,,0.7208,1,,,,,,,,,,,,,,m,,,,,,,,,,,,,,,,134,0,733.735,734.4678,m,1,0.7208,,[],[],[],[],[],[],[],734.4679,736.4667,736.4668,736.467,[],[],[],[],[],[],[],,736.4671,736.4671,-0.168546824,-0.181489731,0,0,0,,0,133,133,84,1,1,word,BELOVED,print,beloved_p.png,,,,,,
,,,,30971,001,2025-12-05_14h36.38.904,HW_LDT_1,2024.2.4,MacIntel,60.24096386,,,,,,,,,,,,,,,,,,,,,736.4685,736.6677,736.6678,737.1668,,,,,,,,,,,,,,1.3063,1,,,,,,,,,,,,,,z,,,,,,,,,,,,,,,,135,0,737.1674,738.4844,z,1,1.3063,,[],[],[],[],[],[],[],738.4845,740.4845,740.4845,740.4847,[],[],[],[],[],[],[],,740.4848,740.4849,-0.168546824,-0.181489731,0,0,0,,0,134,134,0,1,1,RL,abanemy,cursive,abanemy_c.png,,,,,,
,,,,30971,001,2025-12-05_14h36.38.904,HW_LDT_1,2024.2.4,MacIntel,60.24096386,,,,,,,,,,,,,,,,,,,,,740.4862,740.6844,740.6845,741.1844,,,,,,,,,,,,,,0.8876,1,,,,,,,,,,,,,,z,,,,,,,,,,,,,,,,136,0,741.185,742.0835,z,1,0.8876,,[],[],[],[],[],[],[],742.0836,744.0834,744.0834,744.0836,[],[],[],[],[],[],[],,744.0836,744.0838,-0.168546824,-0.181238949,0,0,0,,0,135,135,76,1,1,TL,stragety,cursive,stragety_c.png,,,,,,
,,,,30971,001,2025-12-05_14h36.38.904,HW_LDT_1,2024.2.4,MacIntel,60.24096386,,,,,,,,,,,,,,,,,,,,,744.0849,744.2844,744.2844,744.7845,,,,,,,,,,,,,,1.8061,1,,,,,,,,,,,,,,m,,,,,,,,,,,,,,,,137,0,744.7851,746.6011,m,1,1.8061,,[],[],[],[],[],[],[],746.6011,748.6011,748.6011,748.6013,[],[],[],[],[],[],[],,748.6013,748.6014,-0.168546824,-0.179402714,0,0,0,,0,136,136,120,1,1,word,MILITARY,print,military_p.png,,,,,,
,,,,30971,001,2025-12-05_14h36.38.904,HW_LDT_1,2024.2.4,MacIntel,60.24096386,,,,,,,,,,,,,,,,,,,,,748.6027,748.801,748.8011,749.3011,,,,,,,,,,,,,,1.1713,1,,,,,,,,,,,,,,z,,,,,,,,,,,,,,,,138,0,749.3017,750.4844,z,1,1.1713,,[],[],[],[],[],[],[],750.4845,752.484,752.4841,752.4844,[],[],[],[],[],[],[],,752.4844,752.4845,-0.168835861,-0.179555733,0,0,0,,0,137,137,69,1,1,TL,radiply,cursive,radiply_c.png,,,,,,
,,,,30971,001,2025-12-05_14h36.38.904,HW_LDT_1,2024.2.4,MacIntel,60.24096386,,,,,,,,,,,,,,,,,,,,,752.4858,752.6844,752.6844,753.1842,,,,,,,,,,,,,,1.1037,1,,,,,,,,,,,,,,z,,,,,,,,,,,,,,,,139,0,753.1848,754.301,z,1,1.1037,,[],[],[],[],[],[],[],754.3011,756.3007,756.3009,756.3011,[],[],[],[],[],[],[],,756.3011,756.3012,-0.168835861,-0.179555733,0,0,0,,0,138,138,54,1,1,TL,distupe,cursive,distupe_c.png,,,,,,
,,,,30971,001,2025-12-05_14h36.38.904,HW_LDT_1,2024.2.4,MacIntel,60.24096386,,,,,,,,,,,,,,,,,,,,,756.3027,756.5012,756.5013,757.0011,,,,,,,,,,,,,,1.4074,1,,,,,,,,,,,,,,m,,,,,,,,,,,,,,,,140,0,757.0018,758.4177,m,1,1.4074,,[],[],[],[],[],[],[],758.4178,760.4177,760.4177,760.418,[],[],[],[],[],[],[],,760.418,760.4181,-0.168835861,-0.179555733,0,0,0,,0,139,139,150,1,1,word,SENTIMENT,cursive,sentiment_c.png,,,,,,
,,,,30971,001,2025-12-05_14h36.38.904,HW_LDT_1,2024.2.4,MacIntel,60.24096386,,,,,,,,,,,,,,,,,,,,,760.4194,760.6168,760.6169,761.1178,,,,,,,,,,,,,,1.0203,1,,,,,,,,,,,,,,m,,,,,,,,,,,,,,,,141,0,761.1184,762.1502,m,1,1.0203,,[],[],[],[],[],[],[],762.1502,764.1508,764.1508,764.151,[],[],[],[],[],[],[],,764.1511,764.1511,-0.169095144,-0.179810766,0,0,0,,0,140,140,135,1,1,word,QUALITY,cursive,quality_c.png,,,,,,
,,,,30971,001,2025-12-05_14h36.38.904,HW_LDT_1,2024.2.4,MacIntel,60.24096386,,,,,,,,,,,,,,,,,,,,,764.1523,764.3511,764.3512,764.8511,,,,,,,,,,,,,,0.6955,1,,,,,,,,,,,,,,z,,,,,,,,,,,,,,,,142,1,764.8516,765.5513,z,1,0.6955,,[],[],[],[],[],[],[],765.5514,767.5511,767.5511,768.3335,[],[],[],[],[],[],[],z,768.3336,768.3337,-0.169095144,-0.179810766,0,0,0,,0,141,141,39,1,1,RL,vabifity,cursive,vabifity_c.png,0.7718,,,,,
,,,,30971,001,2025-12-05_14h36.38.904,HW_LDT_1,2024.2.4,MacIntel,60.24096386,,,,,,,,,,,,,,,,,,,,,768.3348,768.5344,768.5345,769.0334,,,,,,,,,,,,,,0.9379,1,,,,,,,,,,,,,,m,,,,,,,,,,,,,,,,143,1,769.0341,769.9844,m,1,0.9379,,[],[],[],[],[],[],[],769.9845,771.9844,771.9845,772.4844,[],[],[],[],[],[],[],z,772.4845,772.4847,-0.169095144,-0.179810766,0,0,0,,0,142,142,127,1,1,word,ORIGINAL,cursive,original_c.png,0.4893,,,,,
,,,,30971,001,2025-12-05_14h36.38.904,HW_LDT_1,2024.2.4,MacIntel,60.24096386,,,,,,,,,,,,,,,,,,,,,772.4858,772.6838,772.6838,773.1844,,,,,,,,,,,,,,0.7557,1,,,,,,,,,,,,,,z,,,,,,,,,,,,,,,,144,1,773.1849,773.9511,z,1,0.7557,,[],[],[],[],[],[],[],773.9512,775.951,775.9512,776.4518,[],[],[],[],[],[],[],m,776.4519,776.4521,-0.169095144,-0.179810766,0,0,0,,0,143,143,45,1,1,TL,cacapity,print,cacapity_p.png,0.4997,,,,,
,,,,30971,001,2025-12-05_14h36.38.904,HW_LDT_1,2024.2.4,MacIntel,60.24096386,,,,,,,,,,,,,,,,,,,,,776.4533,776.6511,776.6511,777.1501,,,,,,,,,,,,,,0.9535,1,,,,,,,,,,,,,,m,,,,,,,,,,,,,,,,145,0,777.1507,778.1173,m,1,0.9535,,[],[],[],[],[],[],[],778.1175,780.1177,780.1178,780.118,[],[],[],[],[],[],[],,780.1181,780.1182,-0.169095144,-0.179810766,0,0,0,,0,144,144,112,1,1,word,LIBERAL,cursive,liberal_c.png,,,,,,
,,,,30971,001,2025-12-05_14h36.38.904,HW_LDT_1,2024.2.4,MacIntel,60.24096386,,,,,,,,,,,,,,,,,,,,,780.1196,780.3177,780.3177,780.8177,,,,,,,,,,,,,,0.687,1,,,,,,,,,,,,,,m,,,,,,,,,,,,,,,,146,0,780.8185,781.5177,m,1,0.687,,[],[],[],[],[],[],[],781.5179,783.5168,783.5168,783.517,[],[],[],[],[],[],[],,783.5171,783.5172,-0.169095144,-0.179810766,0,0,0,,0,145,145,138,1,1,word,REFUSAL,print,refusal_p.png,,,,,,
,,,,30971,001,2025-12-05_14h36.38.904,HW_LDT_1,2024.2.4,MacIntel,60.24096386,,,,,,,,,,,,,,,,,,,,,783.5186,783.7167,783.7168,784.2177,,,,,,,,,,,,,,0.6208,1,,,,,,,,,,,,,,m,,,,,,,,,,,,,,,,147,0,784.2183,784.8511,m,1,0.6208,,[],[],[],[],[],[],[],784.8512,786.8511,786.8512,786.8513,[],[],[],[],[],[],[],,786.8514,786.8515,-0.169095144,-0.179810766,0,0,0,,0,146,146,106,1,1,word,ELABORATE,print,elaborate_p.png,,,,,,
,,,,30971,001,2025-12-05_14h36.38.904,HW_LDT_1,2024.2.4,MacIntel,60.24096386,,,,,,,,,,,,,,,,,,,,,786.8529,787.0512,787.0512,787.5501,,,,,,,,,,,,,,0.8373,0,,,,,,,,,,,,,,m,,,,,,,,,,,,,,,,148,0,787.5507,788.4002,z,0,0.8373,,[],[],[],[],[],[],[],788.4003,790.4012,790.4013,790.4015,[],[],[],[],[],[],[],,790.4015,790.4017,-0.169095144,-0.179559984,0,0,0,,0,147,147,125,1,1,word,OPERATOR,cursive,operator_c.png,,,,,,
,,,,30971,001,2025-12-05_14h36.38.904,HW_LDT_1,2024.2.4,MacIntel,60.24096386,,,,,,,,,,,,,,,,,,,,,790.403,790.6011,790.6012,791.1002,,,,,,,,,,,,,,0.6261,1,,,,,,,,,,,,,,z,,,,,,,,,,,,,,,,149,0,791.1008,791.7344,z,1,0.6261,,[],[],[],[],[],[],[],791.7345,793.7345,793.7345,793.7347,[],[],[],[],[],[],[],,793.7349,793.735,-0.169095144,-0.179559984,0,0,0,,0,148,148,21,1,1,RL,opcifal,print,opcifal_p.png,,,,,,
,,,,30971,001,2025-12-05_14h36.38.904,HW_LDT_1,2024.2.4,MacIntel,60.24096386,,,,,,,,,,,,,,,,,,,,,793.7364,793.9344,793.9344,794.4344,,,,,,,,,,,,,,0.9133,1,,,,,,,,,,,,,,z,,,,,,,,,,,,,,,,150,0,794.4352,795.3502,z,1,0.9133,,[],[],[],[],[],[],[],795.3503,797.351,797.3511,797.3513,[],[],[],[],[],[],[],,797.3514,797.3515,-0.169095144,-0.179559984,0,0,0,,0,149,149,58,1,1,TL,incidate,cursive,incidate_c.png,,,,,,
,,,,30971,001,2025-12-05_14h36.38.904,HW_LDT_1,2024.2.4,MacIntel,60.24096386,,,,,,,,,,,,,,,,,,,,,797.3528,797.5511,797.5511,798.0511,,,,,,,,,,,,,,0.5913,1,,,,,,,,,,,,,,z,,,,,,,,,,,,,,,,151,0,798.0517,798.6509,z,1,0.5913,,[],[],[],[],[],[],[],798.651,800.6511,800.6511,800.6514,[],[],[],[],[],[],[],,800.6514,800.6516,-0.169095144,-0.179559984,0,0,0,,0,150,150,32,1,1,RL,rebicent,print,rebicent_p.png,,,,,,
,,,,30971,001,2025-12-05_14h36.38.904,HW_LDT_1,2024.2.4,MacIntel,60.24096386,,,,,,,,,,,,,,,,,,,,,800.653,800.85,800.8501,801.3508,,,,,,,,,,,,,,0.7873,1,,,,,,,,,,,,,,m,,,,,,,,,,,,,,,,152,0,801.3513,802.1502,m,1,0.7873,,[],[],[],[],[],[],[],802.1503,804.1511,804.1511,804.1513,[],[],[],[],[],[],[],,804.1514,804.1516,-0.169095144,-0.179559984,0,0,0,,0,151,151,148,1,1,word,SALINE,print,saline_p.png,,,,,,
,,,,30971,001,2025-12-05_14h36.38.904,HW_LDT_1,2024.2.4,MacIntel,60.24096386,,,,,,,,,,,,,,,,,,,,,804.1528,804.3501,804.3502,804.851,,,,,,,,,,,,,,0.849,1,,,,,,,,,,,,,,z,,,,,,,,,,,,,,,,153,1,804.8517,805.7017,z,1,0.849,,[],[],[],[],[],[],[],805.7018,807.701,807.7011,808.8844,[],[],[],[],[],[],[],m,808.8845,808.8846,-0.169095144,-0.179559984,0,0,0,,0,152,152,62,1,1,TL,mitilary,print,mitilary_p.png,1.1702,,,,,
,,,,30971,001,2025-12-05_14h36.38.904,HW_LDT_1,2024.2.4,MacIntel,60.24096386,,,,,,,,,,,,,,,,,,,,,808.8857,809.0845,809.0845,809.5844,,,,,,,,,,,,,,1.2062,1,,,,,,,,,,,,,,z,,,,,,,,,,,,,,,,154,0,809.5849,810.8012,z,1,1.2062,,[],[],[],[],[],[],[],810.8013,812.8011,812.8012,812.8014,[],[],[],[],[],[],[],,812.8014,812.8015,-0.169095144,-0.179559984,0,0,0,,0,153,153,77,1,1,TL,tritube,cursive,tritube_c.png,,,,,,
,,,,30971,001,2025-12-05_14h36.38.904,HW_LDT_1,2024.2.4,MacIntel,60.24096386,,,,,,,,,,,,,,,,,,,,,812.8028,813.0012,813.0012,813.5011,,,,,,,,,,,,,,0.6034,1,,,,,,,,,,,,,,z,,,,,,,,,,,,,,,,155,0,813.5017,814.1178,z,1,0.6034,,[],[],[],[],[],[],[],814.1179,816.1177,816.1178,816.118,[],[],[],[],[],[],[],,816.1181,816.1182,-0.169095144,-0.179559984,0,0,0,,0,154,154,18,1,1,RL,mishafe,print,mishafe_p.png,,,,,,
,,,,30971,001,2025-12-05_14h36.38.904,HW_LDT_1,2024.2.4,MacIntel,60.24096386,,,,,,,,,,,,,,,,,,,,,816.1194,816.3178,816.3178,816.8177,,,,,,,,,,,,,,0.986,1,,,,,,,,,,,,,,z,,,,,,,,,,,,,,,,156,0,816.8183,817.8178,z,1,0.986,,[],[],[],[],[],[],[],817.8179,819.8178,819.8178,819.8181,[],[],[],[],[],[],[],,819.8182,819.8183,-0.169095144,-0.179559984,0,0,0,,0,155,155,56,1,1,TL,grafetul,print,grafetul_p.png,,,,,,
,,,,30971,001,2025-12-05_14h36.38.904,HW_LDT_1,2024.2.4,MacIntel,60.24096386,,,,,,,,,,,,,,,,,,,,,819.8196,820.0168,820.0169,820.5178,,,,,,,,,,,,,,0.7952,1,,,,,,,,,,,,,,m,,,,,,,,,,,,,,,,157,0,820.5183,821.317,m,1,0.7952,,[],[],[],[],[],[],[],821.317,823.3177,823.3178,823.3181,[],[],[],[],[],[],[],,823.3181,823.3182,-0.169095144,-0.179559984,0,0,0,,0,156,156,116,1,1,word,MARGINAL,print,marginal_p.png,,,,,,
,,,,30971,001,2025-12-05_14h36.38.904,HW_LDT_1,2024.2.4,MacIntel,60.24096386,,,,,,,,,,,,,,,,,,,,,823.3195,823.5177,823.5178,824.0177,,,,,,,,,,,,,,0.7709,1,,,,,,,,,,,,,,m,,,,,,,,,,,,,,,,158,0,824.0184,824.8011,m,1,0.7709,,[],[],[],[],[],[],[],824.8012,826.8011,826.8011,826.8013,[],[],[],[],[],[],[],,826.8013,826.8016,-0.169095144,-0.179559984,0,0,0,,0,157,157,130,1,1,word,POLICY,cursive,policy_c.png,,,,,,
,,,,30971,001,2025-12-05_14h36.38.904,HW_LDT_1,2024.2.4,MacIntel,60.24096386,,,,,,,,,,,,,,,,,,,,,826.8027,827.0011,827.0011,827.501,,,,,,,,,,,,,,0.8374,1,,,,,,,,,,,,,,z,,,,,,,,,,,,,,,,159,0,827.5016,828.3502,z,1,0.8374,,[],[],[],[],[],[],[],828.3503,830.3501,830.3501,830.3504,[],[],[],[],[],[],[],,830.3505,830.3505,-0.169095144,-0.179559984,0,0,0,,0,158,158,64,1,1,TL,orepator,cursive,orepator_c.png,,,,,,
,,,,30971,001,2025-12-05_14h36.38.904,HW_LDT_1,2024.2.4,MacIntel,60.24096386,,,,,,,,,,,,,,,,,,,,,830.3518,830.5511,830.5512,831.051,,,,,,,,,,,,,,0.6705,1,,,,,,,,,,,,,,m,,,,,,,,,,,,,,,,160,0,831.0517,831.7335,m,1,0.6705,,[],[],[],[],[],[],[],831.7336,833.7345,833.7346,833.7348,[],[],[],[],[],[],[],,833.7348,833.7349,-0.169095144,-0.179559984,0,0,0,,0,159,159,145,1,1,word,RESUME,print,resume_p.png,,,,,,
,,,,30971,001,2025-12-05_14h36.38.904,HW_LDT_1,2024.2.4,MacIntel,60.24096386,,,,,,,,,,,,,,,,,,,,,,,,,,,,,,,,,,,,,,,,,,,,,,,,,,,,,,,,,,,,,,,,,,,,,,,,,,,,,,,,,,,,,,,,,,,,,,,,,,,,,,,,,,,,,,,,,,,,,,833.7491,838.7341
