counterbalance_lists.group,counterbalance_lists.remaining,get_list.started,get_list.stopped,participant,session,date,expName,psychopyVersion,OS,frameRate,Instructions.started,Instructions.stopped,key_resp.keys,instr_done_touch.x,instr_done_touch.y,instr_done_touch.leftButton,instr_done_touch.midButton,instr_done_touch.rightButton,instr_done_touch.clicked_name,start_instr.thisRepN,start_instr.thisTrialN,start_instr.thisN,start_instr.thisIndex,start_instr.ran,pageN,phase,instruct_text,has_image,instruct_image,showProgress.started,showProgress.stopped,fix.started,fix.stopped,prac.started,prac.stopped,response.keys,response.corr,response.rt,response.duration,touch_resp.x,touch_resp.y,touch_resp.leftButton,touch_resp.midButton,touch_resp.rightButton,touch_resp.time,touch_resp.clicked_name,rt,corr,feedback.started,feedback.stopped,trials.thisRepN,trials.thisTrialN,trials.thisN,trials.thisIndex,trials.ran,TrialID,StimulusType,Condition,PrimeDuration,Prime,Target,corrAns,Instructions_expt.started,Instructions_expt.stopped,key_resp_3.keys,instr_done_touch_3.x,instr_done_touch_3.y,instr_done_touch_3.leftButton,instr_done_touch_3.midButton,instr_done_touch_3.rightButton,instr_done_touch_3.clicked_name,instr_experiment.thisRepN,instr_experiment.thisTrialN,instr_experiment.thisN,instr_experiment.thisIndex,instr_experiment.ran,trialID,flag,maintask.started,maintask.stopped,key_resp_2.keys,key_resp_2.corr,key_resp_2.rt,key_resp_2.duration,targ_click.x,targ_click.y,targ_click.leftButton,targ_click.midButton,targ_click.rightButton,targ_click.time,targ_click.clicked_name,ITI.started,ITI.stopped,probe.started,probe.stopped,click_probe.x,click_probe.y,click_probe.leftButton,click_probe.midButton,click_probe.rightButton,click_probe.time,click_probe.clicked_name,key_resp_probe.keys,key_resp_probe.rt,key_resp_probe.duration,Break.started,Break.stopped,break_done_touch.x,break_done_touch.y,break_done_touch.leftButton,break_done_touch.midButton,break_done_touch.rightButton,break_done_keyboard.keys,list1_trials.thisRepN,list1_trials.thisTrialN,list1_trials.thisN,list1_trials.thisIndex,list1_trials.ran,list_id,item_type,string,font,stim_file,break_done_touch.clicked_name,End.started,End.stopped
list1,,0.4413,0.4415,31096,001,2025-10-19_19h07.28.808,HW_LDT_1,2024.2.4,MacIntel,61.72839506,,,,,,,,,,,,,,,,,,,,,,,,,,,,,,,,,,,,,,,,,,,,,,,,,,,,,,,,,,,,,,,,,,,,,,,,,,,,,,,,,,,,,,,,,,,,,,,,,,,,,,,,,,,,,,,,,,,,
,,,,31096,001,2025-10-19_19h07.28.808,HW_LDT_1,2024.2.4,MacIntel,61.72839506,0.4578,19.8659,,0.045230035,-0.386805556,1,0,0,instr_done_button,0,0,0,0,1,1,instructions,"INSTRUCTIONS
At the start of each trial, look at the plus sign  (+) in the center of the screen.  This tells you that a trial is about to begin and where to look. Second, the plus sign will disappear and a string of letters will appear. Your task is to determine if the string of letters is a word or not. If the item is a word press the M key (on keyboard)  or touch the word button (phone/tablet).  If the item is not a word,  press the  Z key (on keyboard)  or touch the nonword button (on phone/tablet). The items will be presented for a short time. 
Press the space bar or touch  continue.",0,,,,,,,,,,,,,,,,,,,,,,,,,,,,,,,,,,,,,,,,,,,,,,,,,,,,,,,,,,,,,,,,,,,,,,,,,,,,,,,,,,,,,,,,,,,,,,,,,,
,,,,31096,001,2025-10-19_19h07.28.808,HW_LDT_1,2024.2.4,MacIntel,61.72839506,19.8675,26.1987,,0.050772569,-0.402178819,1,0,0,instr_done_button,0,1,1,1,1,2,instructions,"If your device has a keyboard, press the 'Z' key for nonwords and the 'M' key for words.





Press the space bar or touch the button below to continue.",0,keyboard-example.gif,,,,,,,,,,,,,,,,,,,,,,,,,,,,,,,,,,,,,,,,,,,,,,,,,,,,,,,,,,,,,,,,,,,,,,,,,,,,,,,,,,,,,,,,,,,,,,,,,
,,,,31096,001,2025-10-19_19h07.28.808,HW_LDT_1,2024.2.4,MacIntel,61.72839506,26.2,33.4156,,0.067947049,-0.420416667,1,0,0,instr_done_button,0,2,2,2,1,3,instructions,"If you are using a touchscreen only device, use the buttons on the screen. Do not use the mouse.





Press the space bar or touch the button below to continue.",0,touchscreen-example.gif,,,,,,,,,,,,,,,,,,,,,,,,,,,,,,,,,,,,,,,,,,,,,,,,,,,,,,,,,,,,,,,,,,,,,,,,,,,,,,,,,,,,,,,,,,,,,,,,,
,,,,31096,001,2025-10-19_19h07.28.808,HW_LDT_1,2024.2.4,MacIntel,61.72839506,33.4174,41.7498,,-0.003945313,-0.385763889,1,0,0,instr_done_button,0,3,3,3,1,4,instructions,"It is very important that you respond as quickly and accurately as possible, as each letter string will only be on the screen for two seconds. If you do not respond within this time, the message 'Too slow!' will be displayed and the experiment will progress to the next letter string. The first 20 trials will be practice trials and you will receive feedback on your answers. 

Press the space bar or touch the button below to start the practice trials.",0,,,,,,,,,,,,,,,,,,,,,,,,,,,,,,,,,,,,,,,,,,,,,,,,,,,,,,,,,,,,,,,,,,,,,,,,,,,,,,,,,,,,,,,,,,,,,,,,,,
,,,,31096,001,2025-10-19_19h07.28.808,HW_LDT_1,2024.2.4,MacIntel,61.72839506,,,,,,,,,,,,,,,,,,,,41.7811,41.9496,41.9497,42.4491,42.4494,45.1829,m,1,2.7049,,[],[],[],[],[],[],[],2.7049,1,45.1835,45.6827,0,0,0,4,1,1005,WORD,UN,33,abound,SQUEAK,m,,,,,,,,,,,,,,,,,,,,,,,,,,,,,,,,,,,,,,,,,,,,,,,,,,,,,,,,,,,,,,,,
,,,,31096,001,2025-10-19_19h07.28.808,HW_LDT_1,2024.2.4,MacIntel,61.72839506,,,,,,,,,,,,,,,,,,,,45.6842,45.8832,45.8832,46.3831,46.3843,47.35,z,1,0.9446,,[],[],[],[],[],[],[],0.9446,1,47.3501,47.8501,0,1,1,8,1,1009,NW,"ID",33,aslert,ASLERT,z,,,,,,,,,,,,,,,,,,,,,,,,,,,,,,,,,,,,,,,,,,,,,,,,,,,,,,,,,,,,,,,,
,,,,31096,001,2025-10-19_19h07.28.808,HW_LDT_1,2024.2.4,MacIntel,61.72839506,,,,,,,,,,,,,,,,,,,,47.8515,48.0489,48.049,48.55,48.5511,49.3834,m,1,0.8113,,[],[],[],[],[],[],[],0.8113,1,49.3836,49.8823,0,2,2,3,1,1004,WORD,"ID",16,matrix,MATRIX,m,,,,,,,,,,,,,,,,,,,,,,,,,,,,,,,,,,,,,,,,,,,,,,,,,,,,,,,,,,,,,,,,
,,,,31096,001,2025-10-19_19h07.28.808,HW_LDT_1,2024.2.4,MacIntel,61.72839506,,,,,,,,,,,,,,,,,,,,49.8838,50.0834,50.0835,50.5822,50.5832,51.233,m,1,0.6321,,[],[],[],[],[],[],[],0.6321,1,51.2333,51.7324,0,3,3,1,1,1002,WORD,"ID",33,adjust,ADJUST,m,,,,,,,,,,,,,,,,,,,,,,,,,,,,,,,,,,,,,,,,,,,,,,,,,,,,,,,,,,,,,,,,
,,,,31096,001,2025-10-19_19h07.28.808,HW_LDT_1,2024.2.4,MacIntel,61.72839506,,,,,,,,,,,,,,,,,,,,51.7338,51.9333,51.9334,52.4334,52.4343,53.2001,z,1,0.7565,,[],[],[],[],[],[],[],0.7565,1,53.2003,53.7002,0,4,4,10,1,1011,NW,"ID",16,inlade,INLADE,z,,,,,,,,,,,,,,,,,,,,,,,,,,,,,,,,,,,,,,,,,,,,,,,,,,,,,,,,,,,,,,,,
,,,,31096,001,2025-10-19_19h07.28.808,HW_LDT_1,2024.2.4,MacIntel,61.72839506,,,,,,,,,,,,,,,,,,,,53.7016,53.8993,53.8994,54.4001,54.4012,55.1336,m,1,0.7225,,[],[],[],[],[],[],[],0.7225,1,55.1338,55.6324,0,5,5,0,1,1001,WORD,"ID",33,utopia,UTOPIA,m,,,,,,,,,,,,,,,,,,,,,,,,,,,,,,,,,,,,,,,,,,,,,,,,,,,,,,,,,,,,,,,,
,,,,31096,001,2025-10-19_19h07.28.808,HW_LDT_1,2024.2.4,MacIntel,61.72839506,,,,,,,,,,,,,,,,,,,,55.6336,55.8334,55.8335,56.3335,56.3346,57.1673,z,1,0.8113,,[],[],[],[],[],[],[],0.8113,1,57.1674,57.666,0,6,6,14,1,1015,NW,UN,16,miaber,THRALE,z,,,,,,,,,,,,,,,,,,,,,,,,,,,,,,,,,,,,,,,,,,,,,,,,,,,,,,,,,,,,,,,,
,,,,31096,001,2025-10-19_19h07.28.808,HW_LDT_1,2024.2.4,MacIntel,61.72839506,,,,,,,,,,,,,,,,,,,,57.6674,57.8659,57.866,58.3669,58.3679,59.1169,z,1,0.7294,,[],[],[],[],[],[],[],0.7294,1,59.117,59.617,0,7,7,9,1,1010,NW,"ID",33,fariny,FARINY,z,,,,,,,,,,,,,,,,,,,,,,,,,,,,,,,,,,,,,,,,,,,,,,,,,,,,,,,,,,,,,,,,
,,,,31096,001,2025-10-19_19h07.28.808,HW_LDT_1,2024.2.4,MacIntel,61.72839506,,,,,,,,,,,,,,,,,,,,59.6185,59.8169,59.8169,60.3169,60.3178,60.9003,m,1,0.5626,,[],[],[],[],[],[],[],0.5626,1,60.9005,61.3995,0,8,8,2,1,1003,WORD,"ID",16,almond,ALMOND,m,,,,,,,,,,,,,,,,,,,,,,,,,,,,,,,,,,,,,,,,,,,,,,,,,,,,,,,,,,,,,,,,
,,,,31096,001,2025-10-19_19h07.28.808,HW_LDT_1,2024.2.4,MacIntel,61.72839506,,,,,,,,,,,,,,,,,,,,61.4009,61.5993,61.5993,62.1003,62.1012,62.8162,z,1,0.6959,,[],[],[],[],[],[],[],0.6959,1,62.8164,63.3171,0,9,9,12,1,1013,NW,UN,33,adveil,SPRINY,z,,,,,,,,,,,,,,,,,,,,,,,,,,,,,,,,,,,,,,,,,,,,,,,,,,,,,,,,,,,,,,,,
,,,,31096,001,2025-10-19_19h07.28.808,HW_LDT_1,2024.2.4,MacIntel,61.72839506,,,,,,,,,,,,,,,,,,,,63.3184,63.517,63.5171,64.017,64.0178,64.7671,z,1,0.7296,,[],[],[],[],[],[],[],0.7296,1,64.7672,65.2672,0,10,10,11,1,1012,NW,"ID",16,rashet,RASHET,z,,,,,,,,,,,,,,,,,,,,,,,,,,,,,,,,,,,,,,,,,,,,,,,,,,,,,,,,,,,,,,,,
,,,,31096,001,2025-10-19_19h07.28.808,HW_LDT_1,2024.2.4,MacIntel,61.72839506,,,,,,,,,,,,,,,,,,,,65.2685,65.466,65.4661,65.967,65.9681,66.5337,m,1,0.5552,,[],[],[],[],[],[],[],0.5552,1,66.5337,67.0329,0,11,11,7,1,1008,WORD,UN,16,hurdle,VOLUME,m,,,,,,,,,,,,,,,,,,,,,,,,,,,,,,,,,,,,,,,,,,,,,,,,,,,,,,,,,,,,,,,,
,,,,31096,001,2025-10-19_19h07.28.808,HW_LDT_1,2024.2.4,MacIntel,61.72839506,,,,,,,,,,,,,,,,,,,,67.0342,67.2337,67.2338,67.7329,67.7339,68.4001,m,1,0.6465,,[],[],[],[],[],[],[],0.6465,1,68.4002,68.9006,0,12,12,6,1,1007,WORD,UN,16,tropic,ZOMBIE,m,,,,,,,,,,,,,,,,,,,,,,,,,,,,,,,,,,,,,,,,,,,,,,,,,,,,,,,,,,,,,,,,
,,,,31096,001,2025-10-19_19h07.28.808,HW_LDT_1,2024.2.4,MacIntel,61.72839506,,,,,,,,,,,,,,,,,,,,68.9019,69.1006,69.1006,69.5995,69.6004,70.2006,m,1,0.5784,,[],[],[],[],[],[],[],0.5784,1,70.2008,70.7006,0,13,13,5,1,1006,WORD,UN,33,frenzy,OBTAIN,m,,,,,,,,,,,,,,,,,,,,,,,,,,,,,,,,,,,,,,,,,,,,,,,,,,,,,,,,,,,,,,,,
,,,,31096,001,2025-10-19_19h07.28.808,HW_LDT_1,2024.2.4,MacIntel,61.72839506,,,,,,,,,,,,,,,,,,,,70.7019,70.9005,70.9005,71.4006,71.4014,71.9506,z,1,0.5285,,[],[],[],[],[],[],[],0.5285,1,71.9508,72.4497,0,14,14,15,1,1016,NW,UN,16,mushed,WHAISE,z,,,,,,,,,,,,,,,,,,,,,,,,,,,,,,,,,,,,,,,,,,,,,,,,,,,,,,,,,,,,,,,,
,,,,31096,001,2025-10-19_19h07.28.808,HW_LDT_1,2024.2.4,MacIntel,61.72839506,,,,,,,,,,,,,,,,,,,,72.4511,72.6506,72.6506,73.1506,73.1515,74.2173,z,1,1.0449,,[],[],[],[],[],[],[],1.0449,1,74.2175,74.7163,0,15,15,13,1,1014,NW,UN,33,winfer,ROUPET,z,,,,,,,,,,,,,,,,,,,,,,,,,,,,,,,,,,,,,,,,,,,,,,,,,,,,,,,,,,,,,,,,
,,,,31096,001,2025-10-19_19h07.28.808,HW_LDT_1,2024.2.4,MacIntel,61.72839506,,,,,,,,,,,,,,,1,end_of_practice,"You have completed the practice trials. During the experimental trials, you will not receive feedback. On some trials you will be asked to report whether the item you just saw was in cursive or print. 
Before you begin, please ensure that you are in a comfortable and quiet location and will not be disturbed for about 15 minutes, as we cannot use your data if you do not complete all the trials. 
 When you are ready to start the experimental trials, please press space or touch the button below.",,,,,,,,,,,,,,,,,,,,,,,,,,,,,,,,,,,,74.7234,87.7845,,0.026215278,-0.394335938,1,0,0,instr_done_button_3,0,0,0,0,1,,,,,,,,,,,,,,,,,,,,,,,,,,,,,,,,,,,,,,,,,,,,,,,,,,
,,,,31096,001,2025-10-19_19h07.28.808,HW_LDT_1,2024.2.4,MacIntel,61.72839506,,,,,,,,,,,,,,,,,,,,87.7939,87.9845,87.9846,88.4833,,,,,,,,,,,,,,0.9687,1,,,,,,,,,,,,,,z,,,,,,,,,,,,,,,1,1,88.4844,89.4673,z,1,0.9687,,[],[],[],[],[],[],[],89.4677,91.467,91.4673,94.6505,[],[],[],[],[],[],[],z,3.1728,,94.6508,94.6531,-0.374978299,-0.261905382,0,0,0,,0,0,0,9,1,1,RL,docirant,cursive,docirant_c.png,,,
,,,,31096,001,2025-10-19_19h07.28.808,HW_LDT_1,2024.2.4,MacIntel,61.72839506,,,,,,,,,,,,,,,,,,,,94.6539,94.8512,94.8513,95.3506,,,,,,,,,,,,,,0.8353,1,,,,,,,,,,,,,,m,,,,,,,,,,,,,,,2,0,95.3513,96.2013,m,1,0.8353,,[],[],[],[],[],[],[],96.2016,98.2005,98.2005,98.2008,[],[],[],[],[],[],[],,,,98.2008,98.2009,-0.374978299,-0.261905382,0,0,0,,0,1,1,81,1,1,word,ADVISORY,cursive,advisory_c.png,,,
,,,,31096,001,2025-10-19_19h07.28.808,HW_LDT_1,2024.2.4,MacIntel,61.72839506,,,,,,,,,,,,,,,,,,,,98.202,98.4002,98.4003,98.9013,,,,,,,,,,,,,,1.0533,1,,,,,,,,,,,,,,m,,,,,,,,,,,,,,,3,0,98.9019,99.9682,m,1,1.0533,,[],[],[],[],[],[],[],99.9683,101.968,101.9682,101.9685,[],[],[],[],[],[],[],,,,101.9686,101.9688,-0.374978299,-0.261905382,0,0,0,,0,2,2,124,1,1,word,NUMERICAL,print,numerical_p.png,,,
,,,,31096,001,2025-10-19_19h07.28.808,HW_LDT_1,2024.2.4,MacIntel,61.72839506,,,,,,,,,,,,,,,,,,,,101.9701,102.1671,102.1671,102.668,,,,,,,,,,,,,,0.7201,1,,,,,,,,,,,,,,m,,,,,,,,,,,,,,,4,0,102.6687,103.4015,m,1,0.7201,,[],[],[],[],[],[],[],103.4017,105.4015,105.4015,105.4017,[],[],[],[],[],[],[],,,,105.4019,105.4021,-0.374978299,-0.261905382,0,0,0,,0,3,3,112,1,1,word,LIBERAL,cursive,liberal_c.png,,,
,,,,31096,001,2025-10-19_19h07.28.808,HW_LDT_1,2024.2.4,MacIntel,61.72839506,,,,,,,,,,,,,,,,,,,,105.4033,105.6015,105.6015,106.1015,,,,,,,,,,,,,,0.6459,1,,,,,,,,,,,,,,m,,,,,,,,,,,,,,,5,1,106.1022,106.7514,m,1,0.6459,,[],[],[],[],[],[],[],106.7515,108.7517,108.7517,111.1673,[],[],[],[],[],[],[],z,2.4038,,111.1675,111.1675,-0.435759549,-0.3009375,0,0,0,,0,4,4,156,1,1,word,TRIBUTE,cursive,tribute_c.png,,,
,,,,31096,001,2025-10-19_19h07.28.808,HW_LDT_1,2024.2.4,MacIntel,61.72839506,,,,,,,,,,,,,,,,,,,,111.1685,111.3684,111.3684,111.8683,,,,,,,,,,,,,,1.2354,1,,,,,,,,,,,,,,m,,,,,,,,,,,,,,,6,0,111.8689,113.1183,m,1,1.2354,,[],[],[],[],[],[],[],113.1185,115.1184,115.1185,115.119,[],[],[],[],[],[],[],,,,115.1191,115.1193,-0.435759549,-0.3009375,0,0,0,,0,5,5,93,1,1,word,CEREMONY,cursive,ceremony_c.png,,,
,,,,31096,001,2025-10-19_19h07.28.808,HW_LDT_1,2024.2.4,MacIntel,61.72839506,,,,,,,,,,,,,,,,,,,,115.1203,115.3175,115.3176,115.8184,,,,,,,,,,,,,,1.0202,1,,,,,,,,,,,,,,z,,,,,,,,,,,,,,,7,0,115.8191,116.8521,z,1,1.0202,,[],[],[],[],[],[],[],116.8523,118.8518,118.852,118.8521,[],[],[],[],[],[],[],,,,118.8522,118.8524,-0.435759549,-0.3009375,0,0,0,,0,6,6,57,1,1,TL,hetirage,cursive,hetirage_c.png,,,
,,,,31096,001,2025-10-19_19h07.28.808,HW_LDT_1,2024.2.4,MacIntel,61.72839506,,,,,,,,,,,,,,,,,,,,118.8536,119.0519,119.052,119.5509,,,,,,,,,,,,,,0.7891,1,,,,,,,,,,,,,,z,,,,,,,,,,,,,,,8,0,119.5515,120.351,z,1,0.7891,,[],[],[],[],[],[],[],120.3511,122.3509,122.351,122.3512,[],[],[],[],[],[],[],,,,122.3513,122.3514,-0.435759549,-0.3009375,0,0,0,,0,7,7,0,1,1,RL,abanemy,cursive,abanemy_c.png,,,
,,,,31096,001,2025-10-19_19h07.28.808,HW_LDT_1,2024.2.4,MacIntel,61.72839506,,,,,,,,,,,,,,,,,,,,122.3526,122.5509,122.551,123.0521,,,,,,,,,,,,,,0.685,0,,,,,,,,,,,,,,z,,,,,,,,,,,,,,,9,1,123.0526,123.7514,m,0,0.685,,[],[],[],[],[],[],[],123.7515,125.7521,125.7521,127.7344,[],[],[],[],[],[],[],m,1.971,,127.7345,127.7347,0.278177083,-0.181736111,0,0,0,,0,8,8,8,1,1,RL,debave,print,debave_p.png,,,
,,,,31096,001,2025-10-19_19h07.28.808,HW_LDT_1,2024.2.4,MacIntel,61.72839506,,,,,,,,,,,,,,,,,,,,127.7357,127.9345,127.9345,128.4352,,,,,,,,,,,,,,0.8538,1,,,,,,,,,,,,,,m,,,,,,,,,,,,,,,10,1,128.4357,129.3024,m,1,0.8538,,[],[],[],[],[],[],[],129.3025,131.3012,131.3012,132.868,[],[],[],[],[],[],[],z,1.556,,132.8681,132.8682,0.278177083,-0.181736111,0,0,0,,0,9,9,132,1,1,word,PROPOSAL,cursive,proposal_c.png,,,
,,,,31096,001,2025-10-19_19h07.28.808,HW_LDT_1,2024.2.4,MacIntel,61.72839506,,,,,,,,,,,,,,,,,,,,132.8696,133.0681,133.0681,133.5679,,,,,,,,,,,,,,0.6714,1,,,,,,,,,,,,,,m,,,,,,,,,,,,,,,11,0,133.5684,134.2523,m,1,0.6714,,[],[],[],[],[],[],[],134.2525,136.2524,136.2524,136.2528,[],[],[],[],[],[],[],,,,136.2528,136.253,0.278177083,-0.181736111,0,0,0,,0,10,10,108,1,1,word,FORTUNE,print,fortune_p.png,,,
,,,,31096,001,2025-10-19_19h07.28.808,HW_LDT_1,2024.2.4,MacIntel,61.72839506,,,,,,,,,,,,,,,,,,,,136.2541,136.4523,136.4523,136.9523,,,,,,,,,,,,,,0.6703,1,,,,,,,,,,,,,,z,,,,,,,,,,,,,,,12,0,136.9529,137.6358,z,1,0.6703,,[],[],[],[],[],[],[],137.6359,139.6347,139.6348,139.635,[],[],[],[],[],[],[],,,,139.635,139.6351,0.278177083,-0.181736111,0,0,0,,0,11,11,60,1,1,TL,manire,print,manire_p.png,,,
,,,,31096,001,2025-10-19_19h07.28.808,HW_LDT_1,2024.2.4,MacIntel,61.72839506,,,,,,,,,,,,,,,,,,,,139.6361,139.835,139.8351,140.3358,,,,,,,,,,,,,,1.2365,1,,,,,,,,,,,,,,z,,,,,,,,,,,,,,,13,0,140.3365,141.5858,z,1,1.2365,,[],[],[],[],[],[],[],141.5858,143.5849,143.5849,143.5851,[],[],[],[],[],[],[],,,,143.5851,143.5853,0.278177083,-0.181736111,0,0,0,,0,12,12,40,1,1,TL,atameur,print,atameur_p.png,,,
,,,,31096,001,2025-10-19_19h07.28.808,HW_LDT_1,2024.2.4,MacIntel,61.72839506,,,,,,,,,,,,,,,,,,,,143.5866,143.7859,143.7859,144.2858,,,,,,,,,,,,,,0.7063,0,,,,,,,,,,,,,,z,,,,,,,,,,,,,,,14,0,144.2864,145.0025,m,0,0.7063,,[],[],[],[],[],[],[],145.0026,147.0026,147.0026,147.0028,[],[],[],[],[],[],[],,,,147.0028,147.0029,0.278177083,-0.181736111,0,0,0,,0,13,13,66,1,1,TL,panert,cursive,panert_c.png,,,
,,,,31096,001,2025-10-19_19h07.28.808,HW_LDT_1,2024.2.4,MacIntel,61.72839506,,,,,,,,,,,,,,,,,,,,147.0042,147.2017,147.2017,147.7026,,,,,,,,,,,,,,0.7705,1,,,,,,,,,,,,,,m,,,,,,,,,,,,,,,15,1,147.7032,148.4851,m,1,0.7705,,[],[],[],[],[],[],[],148.4851,150.486,150.4861,151.8028,[],[],[],[],[],[],[],z,1.3043,,151.8029,151.8031,0.278177083,-0.181736111,0,0,0,,0,14,14,157,1,1,word,VALIDITY,cursive,validity_c.png,,,
,,,,31096,001,2025-10-19_19h07.28.808,HW_LDT_1,2024.2.4,MacIntel,61.72839506,,,,,,,,,,,,,,,,,,,,151.8044,152.0028,152.0028,152.5028,,,,,,,,,,,,,,0.9381,1,,,,,,,,,,,,,,z,,,,,,,,,,,,,,,16,0,152.5034,153.4521,z,1,0.9381,,[],[],[],[],[],[],[],153.4522,155.453,155.4531,155.4533,[],[],[],[],[],[],[],,,,155.4533,155.4534,0.278177083,-0.181736111,0,0,0,,0,15,15,47,1,1,TL,cagetory,print,cagetory_p.png,,,
,,,,31096,001,2025-10-19_19h07.28.808,HW_LDT_1,2024.2.4,MacIntel,61.72839506,,,,,,,,,,,,,,,,,,,,155.4546,155.6519,155.6519,156.1521,,,,,,,,,,,,,,1.0904,0,,,,,,,,,,,,,,z,,,,,,,,,,,,,,,17,0,156.1526,157.253,m,0,1.0904,,[],[],[],[],[],[],[],157.2531,159.2529,159.253,159.2533,[],[],[],[],[],[],[],,,,159.2534,159.2535,0.278177083,-0.181736111,0,0,0,,0,16,16,73,1,1,TL,ronamtic,cursive,ronamtic_c.png,,,
,,,,31096,001,2025-10-19_19h07.28.808,HW_LDT_1,2024.2.4,MacIntel,61.72839506,,,,,,,,,,,,,,,,,,,,159.2546,159.4529,159.453,159.9529,,,,,,,,,,,,,,0.7049,1,,,,,,,,,,,,,,z,,,,,,,,,,,,,,,18,0,159.9534,160.6687,z,1,0.7049,,[],[],[],[],[],[],[],160.6688,162.6696,162.6697,162.6699,[],[],[],[],[],[],[],,,,162.67,162.6701,0.278177083,-0.181736111,0,0,0,,0,17,17,30,1,1,RL,relone,print,relone_p.png,,,
,,,,31096,001,2025-10-19_19h07.28.808,HW_LDT_1,2024.2.4,MacIntel,61.72839506,,,,,,,,,,,,,,,,,,,,162.6713,162.8697,162.8698,163.3696,,,,,,,,,,,,,,0.6368,1,,,,,,,,,,,,,,z,,,,,,,,,,,,,,,19,0,163.3703,164.0197,z,1,0.6368,,[],[],[],[],[],[],[],164.0199,166.0198,166.0199,166.02,[],[],[],[],[],[],[],,,,166.02,166.0204,0.278177083,-0.181736111,0,0,0,,0,18,18,14,1,1,RL,lofase,print,lofase_p.png,,,
,,,,31096,001,2025-10-19_19h07.28.808,HW_LDT_1,2024.2.4,MacIntel,61.72839506,,,,,,,,,,,,,,,,,,,,166.0216,166.2198,166.2198,166.7198,,,,,,,,,,,,,,0.8706,1,,,,,,,,,,,,,,z,,,,,,,,,,,,,,,20,0,166.7204,167.6033,z,1,0.8706,,[],[],[],[],[],[],[],167.6034,169.6022,169.6023,169.6025,[],[],[],[],[],[],[],,,,169.6026,169.6026,0.278177083,-0.181736111,0,0,0,,0,19,19,79,1,1,TL,veretan,print,veretan_p.png,,,
,,,,31096,001,2025-10-19_19h07.28.808,HW_LDT_1,2024.2.4,MacIntel,61.72839506,,,,,,,,,,,,,,,,,,,,169.6039,169.8032,169.8033,170.3033,,,,,,,,,,,,,,0.6376,1,,,,,,,,,,,,,,m,,,,,,,,,,,,,,,21,0,170.3038,170.9534,m,1,0.6376,,[],[],[],[],[],[],[],170.9535,172.9533,172.9534,172.9537,[],[],[],[],[],[],[],,,,172.9538,172.954,0.278177083,-0.181736111,0,0,0,,0,20,20,115,1,1,word,LOGICAL,cursive,logical_c.png,,,
,,,,31096,001,2025-10-19_19h07.28.808,HW_LDT_1,2024.2.4,MacIntel,61.72839506,,,,,,,,,,,,,,,,,,,,172.9551,173.1533,173.1534,173.6525,,,,,,,,,,,,,,0.838,0,,,,,,,,,,,,,,m,,,,,,,,,,,,,,,22,1,173.653,174.5035,z,0,0.838,,[],[],[],[],[],[],[],174.5037,176.5034,176.5035,178.0368,[],[],[],[],[],[],[],z,1.521,,178.037,178.0373,0.278177083,-0.181736111,0,0,0,,0,21,21,111,1,1,word,INDICATE,cursive,indicate_c.png,,,
,,,,31096,001,2025-10-19_19h07.28.808,HW_LDT_1,2024.2.4,MacIntel,61.72839506,,,,,,,,,,,,,,,,,,,,178.0385,178.2368,178.2369,178.7368,,,,,,,,,,,,,,0.8038,1,,,,,,,,,,,,,,z,,,,,,,,,,,,,,,23,0,178.7375,179.5526,z,1,0.8038,,[],[],[],[],[],[],[],179.5527,181.5527,181.5527,181.5529,[],[],[],[],[],[],[],,,,181.553,181.5531,0.278177083,-0.181736111,0,0,0,,0,22,22,11,1,1,RL,elacodate,print,elacodate_p.png,,,
,,,,31096,001,2025-10-19_19h07.28.808,HW_LDT_1,2024.2.4,MacIntel,61.72839506,,,,,,,,,,,,,,,,,,,,181.5542,181.7528,181.7528,182.2536,,,,,,,,,,,,,,1.2362,1,,,,,,,,,,,,,,z,,,,,,,,,,,,,,,24,0,182.2542,183.5037,z,1,1.2362,,[],[],[],[],[],[],[],183.5039,185.5036,185.5037,185.5039,[],[],[],[],[],[],[],,,,185.5039,185.504,0.278177083,-0.181736111,0,0,0,,0,23,23,50,1,1,TL,condiser,cursive,condiser_c.png,,,
,,,,31096,001,2025-10-19_19h07.28.808,HW_LDT_1,2024.2.4,MacIntel,61.72839506,,,,,,,,,,,,,,,,,,,,185.5053,185.7027,185.7027,186.2037,,,,,,,,,,,,,,0.9747,1,,,,,,,,,,,,,,z,,,,,,,,,,,,,,,25,0,186.2043,187.1871,z,1,0.9747,,[],[],[],[],[],[],[],187.1872,189.187,189.1871,189.1873,[],[],[],[],[],[],[],,,,189.1873,189.1875,0.278177083,-0.181736111,0,0,0,,0,24,24,74,1,1,TL,setanor,cursive,setanor_c.png,,,
,,,,31096,001,2025-10-19_19h07.28.808,HW_LDT_1,2024.2.4,MacIntel,61.72839506,,,,,,,,,,,,,,,,,,,,189.1886,189.3862,189.3862,189.8871,,,,,,,,,,,,,,0.6084,1,,,,,,,,,,,,,,m,,,,,,,,,,,,,,,26,0,189.8877,190.5035,m,1,0.6084,,[],[],[],[],[],[],[],190.5036,192.5039,192.5039,192.5041,[],[],[],[],[],[],[],,,,192.5042,192.5043,0.278177083,-0.181736111,0,0,0,,0,25,25,144,1,1,word,RESIDENT,print,resident_p.png,,,
,,,,31096,001,2025-10-19_19h07.28.808,HW_LDT_1,2024.2.4,MacIntel,61.72839506,,,,,,,,,,,,,,,,,,,,192.5054,192.7039,192.7039,193.2038,,,,,,,,,,,,,,0.6721,1,,,,,,,,,,,,,,m,,,,,,,,,,,,,,,27,0,193.2043,193.8874,m,1,0.6721,,[],[],[],[],[],[],[],193.8875,195.8872,195.8873,195.8876,[],[],[],[],[],[],[],,,,195.8877,195.8879,0.278177083,-0.181736111,0,0,0,,0,26,26,91,1,1,word,CARDINAL,print,cardinal_p.png,,,
,,,,31096,001,2025-10-19_19h07.28.808,HW_LDT_1,2024.2.4,MacIntel,61.72839506,,,,,,,,,,,,,,,,,,,,195.889,196.0863,196.0864,196.5873,,,,,,,,,,,,,,0.6032,1,,,,,,,,,,,,,,m,,,,,,,,,,,,,,,28,1,196.5879,197.204,m,1,0.6032,,[],[],[],[],[],[],[],197.2041,199.2039,199.204,200.1041,[],[],[],[],[],[],[],m,0.8873,,200.1042,200.1043,0.278177083,-0.181736111,0,0,0,,0,27,27,84,1,1,word,BELOVED,print,beloved_p.png,,,
,,,,31096,001,2025-10-19_19h07.28.808,HW_LDT_1,2024.2.4,MacIntel,61.72839506,,,,,,,,,,,,,,,,,,,,200.1053,200.3041,200.3042,200.8041,,,,,,,,,,,,,,1.1204,0,,,,,,,,,,,,,,m,,,,,,,,,,,,,,,29,0,200.8047,201.9365,z,0,1.1204,,[],[],[],[],[],[],[],201.9366,203.9375,203.9375,203.9378,[],[],[],[],[],[],[],,,,203.9378,203.938,0.278177083,-0.181736111,0,0,0,,0,28,28,149,1,1,word,SENATOR,cursive,senator_c.png,,,
,,,,31096,001,2025-10-19_19h07.28.808,HW_LDT_1,2024.2.4,MacIntel,61.72839506,,,,,,,,,,,,,,,,,,,,203.9392,204.1376,204.1376,204.6365,,,,,,,,,,,,,,1.1701,0,,,,,,,,,,,,,,z,,,,,,,,,,,,,,,30,0,204.6371,205.821,m,0,1.1701,,[],[],[],[],[],[],[],205.8212,207.8209,207.821,207.8212,[],[],[],[],[],[],[],,,,207.8212,207.8212,0.278177083,-0.181736111,0,0,0,,0,29,29,78,1,1,TL,vecolity,print,vecolity_p.png,,,
,,,,31096,001,2025-10-19_19h07.28.808,HW_LDT_1,2024.2.4,MacIntel,61.72839506,,,,,,,,,,,,,,,,,,,,207.8224,208.021,208.021,208.521,,,,,,,,,,,,,,1.6381,0,,,,,,,,,,,,,,z,,,,,,,,,,,,,,,31,0,208.5215,210.171,m,0,1.6381,,[],[],[],[],[],[],[],210.1712,212.17,212.1701,212.1703,[],[],[],[],[],[],[],,,,212.1703,212.1705,0.278177083,-0.181736111,0,0,0,,0,30,30,52,1,1,TL,decilate,cursive,decilate_c.png,,,
,,,,31096,001,2025-10-19_19h07.28.808,HW_LDT_1,2024.2.4,MacIntel,61.72839506,,,,,,,,,,,,,,,,,,,,212.1716,212.3701,212.3702,212.8711,,,,,,,,,,,,,,0.7536,0,,,,,,,,,,,,,,m,,,,,,,,,,,,,,,32,0,212.8717,213.6379,z,0,0.7536,,[],[],[],[],[],[],[],213.638,215.6369,215.6369,215.6371,[],[],[],[],[],[],[],,,,215.6371,215.6373,0.278177083,-0.181736111,0,0,0,,0,31,31,87,1,1,word,CAFETERIA,cursive,cafeteria_c.png,,,
,,,,31096,001,2025-10-19_19h07.28.808,HW_LDT_1,2024.2.4,MacIntel,61.72839506,,,,,,,,,,,,,,,,,,,,215.6385,215.8378,215.8379,216.3378,,,,,,,,,,,,,,0.7868,1,,,,,,,,,,,,,,m,,,,,,,,,,,,,,,33,0,216.3382,217.1379,m,1,0.7868,,[],[],[],[],[],[],[],217.138,219.1378,219.1379,219.1381,[],[],[],[],[],[],[],,,,219.1381,219.1381,0.278177083,-0.181736111,0,0,0,,0,32,32,103,1,1,word,DISPUTE,cursive,dispute_c.png,,,
,,,,31096,001,2025-10-19_19h07.28.808,HW_LDT_1,2024.2.4,MacIntel,61.72839506,,,,,,,,,,,,,,,,,,,,219.1392,219.3369,219.3369,219.8379,,,,,,,,,,,,,,0.6312,1,,,,,,,,,,,,,,m,,,,,,,,,,,,,,,34,1,219.8384,220.4714,m,1,0.6312,,[],[],[],[],[],[],[],220.4715,222.4713,222.4713,224.1214,[],[],[],[],[],[],[],m,1.6362,,224.1215,224.1216,0.278177083,-0.181736111,0,0,0,,0,33,33,142,1,1,word,REMOTE,print,remote_p.png,,,
,,,,31096,001,2025-10-19_19h07.28.808,HW_LDT_1,2024.2.4,MacIntel,61.72839506,,,,,,,,,,,,,,,,,,,,224.1225,224.3213,224.3214,224.8214,,,,,,,,,,,,,,0.5862,1,,,,,,,,,,,,,,m,,,,,,,,,,,,,,,35,0,224.8219,225.4213,m,1,0.5862,,[],[],[],[],[],[],[],225.4215,227.4215,227.4215,227.4217,[],[],[],[],[],[],[],,,,227.4218,227.4219,0.278177083,-0.181736111,0,0,0,,0,34,34,86,1,1,word,BESIDE,print,beside_p.png,,,
,,,,31096,001,2025-10-19_19h07.28.808,HW_LDT_1,2024.2.4,MacIntel,61.72839506,,,,,,,,,,,,,,,,,,,,227.4228,227.6214,227.6214,228.1204,,,,,,,,,,,,,,0.8879,1,,,,,,,,,,,,,,z,,,,,,,,,,,,,,,36,0,228.1209,229.0216,z,1,0.8879,,[],[],[],[],[],[],[],229.0217,231.0204,231.0206,231.0207,[],[],[],[],[],[],[],,,,231.0207,231.0207,0.278177083,-0.181736111,0,0,0,,0,35,35,33,1,1,RL,recile,cursive,recile_c.png,,,
,,,,31096,001,2025-10-19_19h07.28.808,HW_LDT_1,2024.2.4,MacIntel,61.72839506,,,,,,,,,,,,,,,,,,,,231.0218,231.2205,231.2206,231.7205,,,,,,,,,,,,,,0.6033,1,,,,,,,,,,,,,,m,,,,,,,,,,,,,,,37,0,231.7209,232.3383,m,1,0.6033,,[],[],[],[],[],[],[],232.3384,234.3382,234.3383,234.3384,[],[],[],[],[],[],[],,,,234.3384,234.3385,0.278177083,-0.181736111,0,0,0,,0,36,36,131,1,1,word,POPULAR,cursive,popular_c.png,,,
,,,,31096,001,2025-10-19_19h07.28.808,HW_LDT_1,2024.2.4,MacIntel,61.72839506,,,,,,,,,,,,,,,,,,,,234.3394,234.5373,234.5373,235.0383,,,,,,,,,,,,,,0.5806,1,,,,,,,,,,,,,,m,,,,,,,,,,,,,,,38,0,235.0388,235.6216,m,1,0.5806,,[],[],[],[],[],[],[],235.6217,237.6207,237.6208,237.6209,[],[],[],[],[],[],[],,,,237.6209,237.621,0.278177083,-0.181736111,0,0,0,,0,37,37,114,1,1,word,LOCATE,print,locate_p.png,,,
,,,,31096,001,2025-10-19_19h07.28.808,HW_LDT_1,2024.2.4,MacIntel,61.72839506,,,,,,,,,,,,,,,,,,,,237.622,237.8216,237.8217,238.3216,,,,,,,,,,,,,,1.5642,0,,,,,,,,,,,,,,m,,,,,,,,,,,,,,,39,0,238.3221,239.8884,z,0,1.5642,,[],[],[],[],[],[],[],239.8885,241.8874,241.8876,241.8877,[],[],[],[],[],[],[],,,,241.8877,241.8878,0.278177083,-0.181736111,0,0,0,,0,38,38,102,1,1,word,DENSITY,cursive,density_c.png,,,
,,,,31096,001,2025-10-19_19h07.28.808,HW_LDT_1,2024.2.4,MacIntel,61.72839506,,,,,,,,,,,,,,,,,,,,241.8888,242.0877,242.0877,242.5886,,,,,,,,,,,,,,0.7035,1,,,,,,,,,,,,,,z,,,,,,,,,,,,,,,40,0,242.589,243.3054,z,1,0.7035,,[],[],[],[],[],[],[],243.3055,245.3054,245.3055,245.3057,[],[],[],[],[],[],[],,,,245.3057,245.3058,0.278177083,-0.181736111,0,0,0,,0,39,39,31,1,1,RL,reconal,cursive,reconal_c.png,,,
,,,,31096,001,2025-10-19_19h07.28.808,HW_LDT_1,2024.2.4,MacIntel,61.72839506,,,,,,,,,,,,,,,,,,,,245.307,245.5043,245.5043,246.0053,,,,,,,,,,,,,,1.0032,0,,,,,,,,,,,,,,m,,,,,,,,,,,,,,,41,0,246.0059,247.0219,z,0,1.0032,,[],[],[],[],[],[],[],247.0221,249.022,249.0221,249.0222,[],[],[],[],[],[],[],,,,249.0222,249.0223,0.278177083,-0.181736111,0,0,0,,0,40,40,105,1,1,word,EDITOR,cursive,editor_c.png,,,
,,,,31096,001,2025-10-19_19h07.28.808,HW_LDT_1,2024.2.4,MacIntel,61.72839506,,,,,,,,,,,,,,,,,,,,249.0234,249.2219,249.2219,249.7221,,,,,,,,,,,,,,0.7739,0,,,,,,,,,,,,,,m,,,,,,,,,,,,,,,42,0,249.7226,250.5056,z,0,0.7739,,[],[],[],[],[],[],[],250.5058,252.5057,252.5057,252.5059,[],[],[],[],[],[],[],,,,252.5059,252.506,0.278177083,-0.181736111,0,0,0,,0,41,41,140,1,1,word,RELATIVE,cursive,relative_c.png,,,
,,,,31096,001,2025-10-19_19h07.28.808,HW_LDT_1,2024.2.4,MacIntel,61.72839506,,,,,,,,,,,,,,,,,,,,252.5072,252.7054,252.7055,253.2055,,,,,,,,,,,,,,0.6702,1,,,,,,,,,,,,,,z,,,,,,,,,,,,,,,43,0,253.2061,253.8889,z,1,0.6702,,[],[],[],[],[],[],[],253.8889,255.8888,255.8889,255.889,[],[],[],[],[],[],[],,,,255.889,255.8893,0.278177083,-0.181736111,0,0,0,,0,42,42,24,1,1,RL,probice,print,probice_p.png,,,
,,,,31096,001,2025-10-19_19h07.28.808,HW_LDT_1,2024.2.4,MacIntel,61.72839506,,,,,,,,,,,,,,,,,,,,255.8903,256.0888,256.0889,256.5888,,,,,,,,,,,,,,0.7608,1,,,,,,,,,,,,,,z,,,,,,,,,,,,,,,44,0,256.5895,257.3554,z,1,0.7608,,[],[],[],[],[],[],[],257.3555,259.3546,259.3546,259.3548,[],[],[],[],[],[],[],,,,259.3548,259.3549,0.278177083,-0.181736111,0,0,0,,0,43,43,56,1,1,TL,grafetul,print,grafetul_p.png,,,
,,,,31096,001,2025-10-19_19h07.28.808,HW_LDT_1,2024.2.4,MacIntel,61.72839506,,,,,,,,,,,,,,,,,,,,259.3559,259.5546,259.5546,260.0556,,,,,,,,,,,,,,0.5034,1,,,,,,,,,,,,,,m,,,,,,,,,,,,,,,45,0,260.0561,260.5724,m,1,0.5034,,[],[],[],[],[],[],[],260.5725,262.5724,262.5724,262.5726,[],[],[],[],[],[],[],,,,262.5727,262.5727,0.278177083,-0.181736111,0,0,0,,0,44,44,98,1,1,word,CRIMINAL,print,criminal_p.png,,,
,,,,31096,001,2025-10-19_19h07.28.808,HW_LDT_1,2024.2.4,MacIntel,61.72839506,,,,,,,,,,,,,,,,,,,,262.5736,262.7724,262.7725,263.2724,,,,,,,,,,,,,,0.6699,1,,,,,,,,,,,,,,m,,,,,,,,,,,,,,,46,0,263.2729,263.9558,m,1,0.6699,,[],[],[],[],[],[],[],263.9559,265.9559,265.9559,265.9561,[],[],[],[],[],[],[],,,,265.9561,265.9561,0.278177083,-0.181736111,0,0,0,,0,45,45,135,1,1,word,QUALITY,cursive,quality_c.png,,,
,,,,31096,001,2025-10-19_19h07.28.808,HW_LDT_1,2024.2.4,MacIntel,61.72839506,,,,,,,,,,,,,,,,,,,,265.9572,266.1551,266.1552,266.6549,,,,,,,,,,,,,,0.6478,1,,,,,,,,,,,,,,z,,,,,,,,,,,,,,,47,0,266.6553,267.3059,z,1,0.6478,,[],[],[],[],[],[],[],267.3059,269.3061,269.3062,269.3063,[],[],[],[],[],[],[],,,,269.3063,269.3064,0.278177083,-0.181736111,0,0,0,,0,46,46,67,1,1,TL,pocily,cursive,pocily_c.png,,,
,,,,31096,001,2025-10-19_19h07.28.808,HW_LDT_1,2024.2.4,MacIntel,61.72839506,,,,,,,,,,,,,,,,,,,,269.3076,269.5049,269.5049,270.0049,,,,,,,,,,,,,,0.7219,1,,,,,,,,,,,,,,z,,,,,,,,,,,,,,,48,0,270.0053,270.7395,z,1,0.7219,,[],[],[],[],[],[],[],270.7395,272.7395,272.7395,272.7397,[],[],[],[],[],[],[],,,,272.7397,272.7398,0.278177083,-0.181736111,0,0,0,,0,47,47,3,1,1,RL,casena,cursive,casena_c.png,,,
,,,,31096,001,2025-10-19_19h07.28.808,HW_LDT_1,2024.2.4,MacIntel,61.72839506,,,,,,,,,,,,,,,,,,,,272.7409,272.9395,272.9395,273.4385,,,,,,,,,,,,,,0.5045,1,,,,,,,,,,,,,,m,,,,,,,,,,,,,,,49,0,273.439,273.9562,m,1,0.5045,,[],[],[],[],[],[],[],273.9562,275.9561,275.9562,275.9564,[],[],[],[],[],[],[],,,,275.9565,275.9565,0.278177083,-0.181736111,0,0,0,,0,48,48,99,1,1,word,DEBATE,print,debate_p.png,,,
,,,,31096,001,2025-10-19_19h07.28.808,HW_LDT_1,2024.2.4,MacIntel,61.72839506,,,,,,,,,,,,,,,,,,,,275.9574,276.156,276.156,276.6561,,,,,,,,,,,,,,0.6245,1,,,,,,,,,,,,,,m,,,,,,,,,,,,,,,50,0,276.6565,277.2894,m,1,0.6245,,[],[],[],[],[],[],[],277.2895,279.2895,279.2896,279.2899,[],[],[],[],[],[],[],,,,279.29,279.2901,0.278177083,-0.181736111,0,0,0,,0,49,49,95,1,1,word,COMEDY,cursive,comedy_c.png,,,
,,,,31096,001,2025-10-19_19h07.28.808,HW_LDT_1,2024.2.4,MacIntel,61.72839506,,,,,,,,,,,,,,,,,,,,279.2912,279.4895,279.4896,279.9895,,,,,,,,,,,,,,0.6201,1,,,,,,,,,,,,,,z,,,,,,,,,,,,,,,51,0,279.99,280.6226,z,1,0.6201,,[],[],[],[],[],[],[],280.6227,282.622,282.622,282.6222,[],[],[],[],[],[],[],,,,282.6222,282.6223,0.278177083,-0.181736111,0,0,0,,0,50,50,10,1,1,RL,efibor,cursive,efibor_c.png,,,
,,,,31096,001,2025-10-19_19h07.28.808,HW_LDT_1,2024.2.4,MacIntel,61.72839506,,,,,,,,,,,,,,,,,,,,282.6233,282.8221,282.8221,283.323,,,,,,,,,,,,,,0.6868,1,,,,,,,,,,,,,,m,,,,,,,,,,,,,,,52,0,283.3234,284.0231,m,1,0.6868,,[],[],[],[],[],[],[],284.0232,286.0231,286.0231,286.0233,[],[],[],[],[],[],[],,,,286.0234,286.0234,0.278177083,-0.181736111,0,0,0,,0,51,51,129,1,1,word,PARENT,cursive,parent_c.png,,,
,,,,31096,001,2025-10-19_19h07.28.808,HW_LDT_1,2024.2.4,MacIntel,61.72839506,,,,,,,,,,,,,,,,,,,,286.0243,286.2226,286.2226,286.7231,,,,,,,,,,,,,,0.6221,1,,,,,,,,,,,,,,m,,,,,,,,,,,,,,,53,0,286.7236,287.3564,m,1,0.6221,,[],[],[],[],[],[],[],287.3565,289.3564,289.3565,289.3566,[],[],[],[],[],[],[],,,,289.3566,289.3567,0.278177083,-0.181736111,0,0,0,,0,52,52,94,1,1,word,CLINICAL,cursive,clinical_c.png,,,
,,,,31096,001,2025-10-19_19h07.28.808,HW_LDT_1,2024.2.4,MacIntel,61.72839506,,,,,,,,,,,,,,,,,,,,289.3576,289.5564,289.5564,290.0565,,,,,,,,,,,,,,0.7881,0,,,,,,,,,,,,,,z,,,,,,,,,,,,,,,54,1,290.0571,290.8566,m,0,0.7881,,[],[],[],[],[],[],[],290.8567,292.8555,292.8556,294.0056,[],[],[],[],[],[],[],m,1.1384,,294.0057,294.0058,0.278177083,-0.181736111,0,0,0,,0,53,53,49,1,1,TL,clicinal,cursive,clicinal_c.png,,,
,,,,31096,001,2025-10-19_19h07.28.808,HW_LDT_1,2024.2.4,MacIntel,61.72839506,,,,,,,,,,,,,,,,,,,,294.0069,294.2065,294.2066,294.7066,,,,,,,,,,,,,,1.3532,1,,,,,,,,,,,,,,m,,,,,,,,,,,,,,,55,0,294.707,296.0724,m,1,1.3532,,[],[],[],[],[],[],[],296.0724,298.0733,298.0734,298.0735,[],[],[],[],[],[],[],,,,298.0735,298.0736,0.278177083,-0.181736111,0,0,0,,0,54,54,158,1,1,word,VELOCITY,print,velocity_p.png,,,
,,,,31096,001,2025-10-19_19h07.28.808,HW_LDT_1,2024.2.4,MacIntel,61.72839506,,,,,,,,,,,,,,,,,,,,298.0746,298.2733,298.2734,298.7733,,,,,,,,,,,,,,1.9218,0,,,,,,,,,,,,,,z,,,,,,,,,,,,,,,56,0,298.7738,300.7065,m,0,1.9218,,[],[],[],[],[],[],[],300.7066,302.7067,302.7068,302.7069,[],[],[],[],[],[],[],,,,302.7071,302.7071,0.278177083,-0.181736111,0,0,0,,0,55,55,61,1,1,TL,mecidine,cursive,mecidine_c.png,,,
,,,,31096,001,2025-10-19_19h07.28.808,HW_LDT_1,2024.2.4,MacIntel,61.72839506,,,,,,,,,,,,,,,,,,,,302.7081,302.9068,302.9069,303.4069,,,,,,,,,,,,,,1.1539,1,,,,,,,,,,,,,,z,,,,,,,,,,,,,,,57,0,303.4075,304.5736,z,1,1.1539,,[],[],[],[],[],[],[],304.5737,306.5734,306.5736,306.5737,[],[],[],[],[],[],[],,,,306.5738,306.5739,0.278177083,-0.181736111,0,0,0,,0,56,56,4,1,1,RL,carminal,print,carminal_p.png,,,
,,,,31096,001,2025-10-19_19h07.28.808,HW_LDT_1,2024.2.4,MacIntel,61.72839506,,,,,,,,,,,,,,,,,,,,306.5751,306.7725,306.7726,307.2735,,,,,,,,,,,,,,0.9536,1,,,,,,,,,,,,,,m,,,,,,,,,,,,,,,58,0,307.2741,308.2395,m,1,0.9536,,[],[],[],[],[],[],[],308.2396,310.2393,310.2393,310.2394,[],[],[],[],[],[],[],,,,310.2395,310.2396,0.278177083,-0.181736111,0,0,0,,0,57,57,128,1,1,word,PACIFIC,print,pacific_p.png,,,
,,,,31096,001,2025-10-19_19h07.28.808,HW_LDT_1,2024.2.4,MacIntel,61.72839506,,,,,,,,,,,,,,,,,,,,310.2407,310.4402,310.4403,310.9403,,,,,,,,,,,,,,0.7372,1,,,,,,,,,,,,,,m,,,,,,,,,,,,,,,59,0,310.9407,311.6904,m,1,0.7372,,[],[],[],[],[],[],[],311.6905,313.6903,313.6904,313.6906,[],[],[],[],[],[],[],,,,313.6907,313.6909,0.278177083,-0.181736111,0,0,0,,0,58,58,107,1,1,word,EVIDENT,print,evident_p.png,,,
,,,,31096,001,2025-10-19_19h07.28.808,HW_LDT_1,2024.2.4,MacIntel,61.72839506,,,,,,,,,,,,,,,,,,,,313.6921,313.8895,313.8895,314.3904,,,,,,,,,,,,,,0.7315,1,,,,,,,,,,,,,,z,,,,,,,,,,,,,,,60,0,314.3909,315.1239,z,1,0.7315,,[],[],[],[],[],[],[],315.124,317.1228,317.1229,317.1231,[],[],[],[],[],[],[],,,,317.1231,317.1233,0.278177083,-0.181736111,0,0,0,,0,59,59,26,1,1,RL,quafidy,cursive,quafidy_c.png,,,
,,,,31096,001,2025-10-19_19h07.28.808,HW_LDT_1,2024.2.4,MacIntel,61.72839506,,,,,,,,,,,,,,,,,,,,317.1243,317.3228,317.3228,317.8237,,,,,,,,,,,,,,0.6199,1,,,,,,,,,,,,,,m,,,,,,,,,,,,,,,61,0,317.8244,318.4572,m,1,0.6199,,[],[],[],[],[],[],[],318.4574,320.4563,320.4563,320.4565,[],[],[],[],[],[],[],,,,320.4566,320.4566,0.278177083,-0.181736111,0,0,0,,0,60,60,100,1,1,word,DECADE,print,decade_p.png,,,
,,,,31096,001,2025-10-19_19h07.28.808,HW_LDT_1,2024.2.4,MacIntel,61.72839506,,,,,,,,,,,,,,,,,,,,320.4579,320.6562,320.6562,321.1572,,,,,,,,,,,,,,0.8195,1,,,,,,,,,,,,,,m,,,,,,,,,,,,,,,62,0,321.1577,321.9897,m,1,0.8195,,[],[],[],[],[],[],[],321.9898,323.9907,323.9907,323.9909,[],[],[],[],[],[],[],,,,323.9909,323.991,0.278177083,-0.181736111,0,0,0,,0,61,61,121,1,1,word,MISTAKE,print,mistake_p.png,,,
,,,,31096,001,2025-10-19_19h07.28.808,HW_LDT_1,2024.2.4,MacIntel,61.72839506,,,,,,,,,,,,,,,,,,,,323.9922,324.1907,324.1907,324.6908,,,,,,,,,,,,,,0.6034,1,,,,,,,,,,,,,,m,,,,,,,,,,,,,,,63,0,324.6913,325.3064,m,1,0.6034,,[],[],[],[],[],[],[],325.3065,327.3075,327.3075,327.3077,[],[],[],[],[],[],[],,,,327.3077,327.3079,0.278177083,-0.181736111,0,0,0,,0,62,62,138,1,1,word,REFUSAL,print,refusal_p.png,,,
,,,,31096,001,2025-10-19_19h07.28.808,HW_LDT_1,2024.2.4,MacIntel,61.72839506,,,,,,,,,,,,,,,,,,,,327.3091,327.5063,327.5063,328.0064,,,,,,,,,,,,,,1.0903,1,,,,,,,,,,,,,,z,,,,,,,,,,,,,,,64,0,328.0069,329.1075,z,1,1.0903,,[],[],[],[],[],[],[],329.1076,331.1064,331.1065,331.1066,[],[],[],[],[],[],[],,,,331.1067,331.1068,0.278177083,-0.181736111,0,0,0,,0,63,63,17,1,1,RL,menowy,cursive,menowy_c.png,,,
,,,,31096,001,2025-10-19_19h07.28.808,HW_LDT_1,2024.2.4,MacIntel,61.72839506,,,,,,,,,,,,,,,,,,,,331.1079,331.3075,331.3075,331.8074,,,,,,,,,,,,,,0.6969,1,,,,,,,,,,,,,,z,,,,,,,,,,,,,,,65,0,331.808,332.5075,z,1,0.6969,,[],[],[],[],[],[],[],332.5075,334.5075,334.5076,334.5077,[],[],[],[],[],[],[],,,,334.5078,334.5079,0.278177083,-0.181736111,0,0,0,,0,64,64,54,1,1,TL,distupe,cursive,distupe_c.png,,,
,,,,31096,001,2025-10-19_19h07.28.808,HW_LDT_1,2024.2.4,MacIntel,61.72839506,,,,,,,,,,,,,,,,,,,,334.5091,334.7075,334.7075,335.2075,,,,,,,,,,,,,,0.9487,1,,,,,,,,,,,,,,m,,,,,,,,,,,,,,,66,0,335.2081,336.1578,m,1,0.9487,,[],[],[],[],[],[],[],336.1578,338.1577,338.1577,338.1578,[],[],[],[],[],[],[],,,,338.1579,338.158,0.278177083,-0.181736111,0,0,0,,0,65,65,150,1,1,word,SENTIMENT,cursive,sentiment_c.png,,,
,,,,31096,001,2025-10-19_19h07.28.808,HW_LDT_1,2024.2.4,MacIntel,61.72839506,,,,,,,,,,,,,,,,,,,,338.1592,338.3568,338.3568,338.8568,,,,,,,,,,,,,,0.7867,1,,,,,,,,,,,,,,z,,,,,,,,,,,,,,,67,0,338.8574,339.6578,z,1,0.7867,,[],[],[],[],[],[],[],339.6578,341.657,341.657,341.6572,[],[],[],[],[],[],[],,,,341.6573,341.6574,0.278177083,-0.181736111,0,0,0,,0,66,66,55,1,1,TL,fornute,print,fornute_p.png,,,
,,,,31096,001,2025-10-19_19h07.28.808,HW_LDT_1,2024.2.4,MacIntel,61.72839506,,,,,,,,,,,,,,,,,,,,341.6585,341.8578,341.8579,342.3578,,,,,,,,,,,,,,0.9037,1,,,,,,,,,,,,,,z,,,,,,,,,,,,,,,68,0,342.3583,343.2735,z,1,0.9037,,[],[],[],[],[],[],[],343.2736,345.2745,345.2745,345.2748,[],[],[],[],[],[],[],,,,345.2749,345.2751,0.278177083,-0.181736111,0,0,0,,0,67,67,42,1,1,TL,befenit,print,befenit_p.png,,,
,,,,31096,001,2025-10-19_19h07.28.808,HW_LDT_1,2024.2.4,MacIntel,61.72839506,,,,,,,,,,,,,,,,,,,,345.2762,345.4744,345.4745,345.9745,,,,,,,,,,,,,,0.9034,0,,,,,,,,,,,,,,z,,,,,,,,,,,,,,,69,0,345.9752,346.8902,m,0,0.9034,,[],[],[],[],[],[],[],346.8902,348.8906,348.8907,348.8908,[],[],[],[],[],[],[],,,,348.8908,348.891,0.278177083,-0.181736111,0,0,0,,0,68,68,65,1,1,TL,orinigal,cursive,orinigal_c.png,,,
,,,,31096,001,2025-10-19_19h07.28.808,HW_LDT_1,2024.2.4,MacIntel,61.72839506,,,,,,,,,,,,,,,,,,,,348.892,349.0913,349.0913,349.5912,,,,,,,,,,,,,,0.6718,1,,,,,,,,,,,,,,z,,,,,,,,,,,,,,,70,0,349.5918,350.2738,z,1,0.6718,,[],[],[],[],[],[],[],350.2739,352.2746,352.2747,352.2749,[],[],[],[],[],[],[],,,,352.275,352.275,0.278177083,-0.181736111,0,0,0,,0,69,69,27,1,1,RL,rasibal,print,rasibal_p.png,,,
,,,,31096,001,2025-10-19_19h07.28.808,HW_LDT_1,2024.2.4,MacIntel,61.72839506,,,,,,,,,,,,,,,,,,,,352.2764,352.4746,352.4747,352.9747,,,,,,,,,,,,,,0.632,1,,,,,,,,,,,,,,z,,,,,,,,,,,,,,,71,0,352.9753,353.6082,z,1,0.632,,[],[],[],[],[],[],[],353.6084,355.6081,355.6082,355.6084,[],[],[],[],[],[],[],,,,355.6085,355.6087,0.278177083,-0.181736111,0,0,0,,0,70,70,13,1,1,RL,linefal,print,linefal_p.png,,,
,,,,31096,001,2025-10-19_19h07.28.808,HW_LDT_1,2024.2.4,MacIntel,61.72839506,,,,,,,,,,,,,,,,,,,,355.6099,355.8081,355.8081,356.3081,,,,,,,,,,,,,,0.6193,1,,,,,,,,,,,,,,z,,,,,,,,,,,,,,,72,1,356.3088,356.9406,z,1,0.6193,,[],[],[],[],[],[],[],356.9407,358.9406,358.9406,360.3583,[],[],[],[],[],[],[],m,1.4053,,360.3584,360.3585,0.278177083,-0.181736111,0,0,0,,0,71,71,70,1,1,TL,relugar,print,relugar_p.png,,,
,,,,31096,001,2025-10-19_19h07.28.808,HW_LDT_1,2024.2.4,MacIntel,61.72839506,,,,,,,,,,,,,,,,,,,,360.3598,360.5582,360.5582,361.0582,,,,,,,,,,,,,,0.8241,1,,,,,,,,,,,,,,z,,,,,,,,,,,,,,,73,0,361.0587,361.8916,z,1,0.8241,,[],[],[],[],[],[],[],361.8917,363.8917,363.8917,363.8919,[],[],[],[],[],[],[],,,,363.8919,363.8922,0.278177083,-0.181736111,0,0,0,,0,72,72,76,1,1,TL,stragety,cursive,stragety_c.png,,,
,,,,31096,001,2025-10-19_19h07.28.808,HW_LDT_1,2024.2.4,MacIntel,61.72839506,,,,,,,,,,,,,,,,,,,,363.8932,364.0906,364.0907,364.5916,,,,,,,,,,,,,,0.6039,0,,,,,,,,,,,,,,m,,,,,,,,,,,,,,,74,0,364.5922,365.2076,z,0,0.6039,,[],[],[],[],[],[],[],365.2077,367.2083,367.2084,367.2086,[],[],[],[],[],[],[],,,,367.2086,367.2087,0.278177083,-0.181736111,0,0,0,,0,73,73,146,1,1,word,RETIRE,cursive,retire_c.png,,,
,,,,31096,001,2025-10-19_19h07.28.808,HW_LDT_1,2024.2.4,MacIntel,61.72839506,,,,,,,,,,,,,,,,,,,,367.2099,367.4073,367.4074,367.9083,,,,,,,,,,,,,,0.5536,1,,,,,,,,,,,,,,z,,,,,,,,,,,,,,,75,0,367.909,368.4741,z,1,0.5536,,[],[],[],[],[],[],[],368.4742,370.4751,370.4751,370.4753,[],[],[],[],[],[],[],,,,370.4754,370.4754,0.278177083,-0.181736111,0,0,0,,0,74,74,75,1,1,TL,speficic,cursive,speficic_c.png,,,
,,,,31096,001,2025-10-19_19h07.28.808,HW_LDT_1,2024.2.4,MacIntel,61.72839506,,,,,,,,,,,,,,,,,,,,370.4766,370.6752,370.6752,371.1751,,,,,,,,,,,,,,0.82,1,,,,,,,,,,,,,,m,,,,,,,,,,,,,,,76,0,371.1755,372.0085,m,1,0.82,,[],[],[],[],[],[],[],372.0085,374.0076,374.0076,374.0078,[],[],[],[],[],[],[],,,,374.0079,374.008,0.278177083,-0.181736111,0,0,0,,0,75,75,117,1,1,word,MARINE,print,marine_p.png,,,
,,,,31096,001,2025-10-19_19h07.28.808,HW_LDT_1,2024.2.4,MacIntel,61.72839506,,,,,,,,,,,,,,,,,,,,374.0091,374.2077,374.2077,374.7086,,,,,,,,,,,,,,0.6534,1,,,,,,,,,,,,,,z,,,,,,,,,,,,,,,77,0,374.7091,375.3752,z,1,0.6534,,[],[],[],[],[],[],[],375.3754,377.3752,377.3753,377.3755,[],[],[],[],[],[],[],,,,377.3755,377.3756,0.278177083,-0.181736111,0,0,0,,0,76,76,62,1,1,TL,mitilary,print,mitilary_p.png,,,
,,,,31096,001,2025-10-19_19h07.28.808,HW_LDT_1,2024.2.4,MacIntel,61.72839506,,,,,,,,,,,,,,,,,,,,377.3769,377.5743,377.5743,378.0743,,,,,,,,,,,,,,0.5885,1,,,,,,,,,,,,,,m,,,,,,,,,,,,,,,78,1,378.0748,378.6748,m,1,0.5885,,[],[],[],[],[],[],[],378.6749,380.6743,380.6743,382.5755,[],[],[],[],[],[],[],z,1.8878,,382.5756,382.5758,0.278177083,-0.181736111,0,0,0,,0,77,77,147,1,1,word,ROMANTIC,cursive,romantic_c.png,,,
,,,,31096,001,2025-10-19_19h07.28.808,HW_LDT_1,2024.2.4,MacIntel,61.72839506,,,,,,,,,,,,,,,,,,,,382.577,382.7744,382.7744,383.2754,,,,,,,,,,,,,,0.7368,1,,,,,,,,,,,,,,z,,,,,,,,,,,,,,,79,1,383.2759,384.0255,z,1,0.7368,,[],[],[],[],[],[],[],384.0256,386.0255,386.0256,387.459,[],[],[],[],[],[],[],z,1.4328,,387.459,387.4592,0.278177083,-0.181736111,0,0,0,,0,78,78,2,1,1,RL,asiral,print,asiral_p.png,,,
,,,,31096,001,2025-10-19_19h07.28.808,HW_LDT_1,2024.2.4,MacIntel,61.72839506,,,,,,,,,,,,,,,,,,,,387.4603,387.6588,387.6589,388.1589,,,,,,,,,,,,,,0.8646,1,,,,,,,,,,,,,,m,,,,,,,,,,,,,,,80,1,388.1595,389.0255,m,1,0.8646,,[],[],[],[],[],[],[],389.0256,391.0246,391.0246,392.5591,[],[],[],[],[],[],[],z,1.5223,,392.5591,400.0254,0.053224826,-0.398554688,1,0,0,,0,79,79,96,1,1,word,CONSIDER,cursive,consider_c.png,break_done_button,,
,,,,31096,001,2025-10-19_19h07.28.808,HW_LDT_1,2024.2.4,MacIntel,61.72839506,,,,,,,,,,,,,,,,,,,,400.0263,400.2247,400.2248,400.7258,,,,,,,,,,,,,,0.7989,1,,,,,,,,,,,,,,z,,,,,,,,,,,,,,,81,0,400.7265,401.5262,z,1,0.7989,,[],[],[],[],[],[],[],401.5265,403.526,403.5261,403.5262,[],[],[],[],[],[],[],,,,403.5263,403.5263,0.053224826,-0.398554688,0,0,0,,0,80,80,35,1,1,RL,senvilent,cursive,senvilent_c.png,,,
,,,,31096,001,2025-10-19_19h07.28.808,HW_LDT_1,2024.2.4,MacIntel,61.72839506,,,,,,,,,,,,,,,,,,,,403.5276,403.7261,403.7261,404.2261,,,,,,,,,,,,,,0.6368,1,,,,,,,,,,,,,,z,,,,,,,,,,,,,,,82,0,404.2267,404.8761,z,1,0.6368,,[],[],[],[],[],[],[],404.8762,406.8752,406.8753,406.8754,[],[],[],[],[],[],[],,,,406.8755,406.8755,0.053224826,-0.398554688,0,0,0,,0,81,81,21,1,1,RL,opcifal,print,opcifal_p.png,,,
,,,,31096,001,2025-10-19_19h07.28.808,HW_LDT_1,2024.2.4,MacIntel,61.72839506,,,,,,,,,,,,,,,,,,,,406.8767,407.0762,407.0762,407.5759,,,,,,,,,,,,,,0.6319,1,,,,,,,,,,,,,,z,,,,,,,,,,,,,,,83,0,407.5764,408.2096,z,1,0.6319,,[],[],[],[],[],[],[],408.2096,410.2096,410.2097,410.2098,[],[],[],[],[],[],[],,,,410.2099,410.21,0.053224826,-0.398554688,0,0,0,,0,82,82,68,1,1,TL,prosopal,cursive,prosopal_c.png,,,
,,,,31096,001,2025-10-19_19h07.28.808,HW_LDT_1,2024.2.4,MacIntel,61.72839506,,,,,,,,,,,,,,,,,,,,410.2112,410.4096,410.4096,410.9087,,,,,,,,,,,,,,0.7547,0,,,,,,,,,,,,,,z,,,,,,,,,,,,,,,84,0,410.9091,411.6754,m,0,0.7547,,[],[],[],[],[],[],[],411.6755,413.6764,413.6765,413.6767,[],[],[],[],[],[],[],,,,413.6768,413.6769,0.053224826,-0.398554688,0,0,0,,0,83,83,77,1,1,TL,tritube,cursive,tritube_c.png,,,
,,,,31096,001,2025-10-19_19h07.28.808,HW_LDT_1,2024.2.4,MacIntel,61.72839506,,,,,,,,,,,,,,,,,,,,413.6779,413.8764,413.8765,414.3764,,,,,,,,,,,,,,0.5979,1,,,,,,,,,,,,,,z,,,,,,,,,,,,,,,85,0,414.377,414.9764,z,1,0.5979,,[],[],[],[],[],[],[],414.9764,416.9756,416.9756,416.9758,[],[],[],[],[],[],[],,,,416.9758,416.9759,0.053224826,-0.398554688,0,0,0,,0,84,84,34,1,1,RL,samite,print,samite_p.png,,,
,,,,31096,001,2025-10-19_19h07.28.808,HW_LDT_1,2024.2.4,MacIntel,61.72839506,,,,,,,,,,,,,,,,,,,,416.9771,417.1764,417.1765,417.6765,,,,,,,,,,,,,,0.6378,1,,,,,,,,,,,,,,z,,,,,,,,,,,,,,,86,0,417.6771,418.3265,z,1,0.6378,,[],[],[],[],[],[],[],418.3266,420.3266,420.3266,420.3268,[],[],[],[],[],[],[],,,,420.3269,420.327,0.053224826,-0.398554688,0,0,0,,0,85,85,29,1,1,RL,refakive,cursive,refakive_c.png,,,
,,,,31096,001,2025-10-19_19h07.28.808,HW_LDT_1,2024.2.4,MacIntel,61.72839506,,,,,,,,,,,,,,,,,,,,420.3281,420.5266,420.5266,421.0257,,,,,,,,,,,,,,0.5717,1,,,,,,,,,,,,,,z,,,,,,,,,,,,,,,87,0,421.0261,421.61,z,1,0.5717,,[],[],[],[],[],[],[],421.6101,423.61,423.61,423.6102,[],[],[],[],[],[],[],,,,423.6103,423.6106,0.053224826,-0.398554688,0,0,0,,0,86,86,23,1,1,RL,potugar,cursive,potugar_c.png,,,
,,,,31096,001,2025-10-19_19h07.28.808,HW_LDT_1,2024.2.4,MacIntel,61.72839506,,,,,,,,,,,,,,,,,,,,423.6117,423.8101,423.8101,424.3099,,,,,,,,,,,,,,0.6246,1,,,,,,,,,,,,,,m,,,,,,,,,,,,,,,88,0,424.3106,424.9433,m,1,0.6246,,[],[],[],[],[],[],[],424.9435,426.9433,426.9434,426.9436,[],[],[],[],[],[],[],,,,426.9437,426.9439,0.053224826,-0.398554688,0,0,0,,0,87,87,136,1,1,word,RADICAL,print,radical_p.png,,,
,,,,31096,001,2025-10-19_19h07.28.808,HW_LDT_1,2024.2.4,MacIntel,61.72839506,,,,,,,,,,,,,,,,,,,,426.9449,427.1426,427.1427,427.6424,,,,,,,,,,,,,,0.6331,0,,,,,,,,,,,,,,m,,,,,,,,,,,,,,,89,0,427.6428,428.2766,z,0,0.6331,,[],[],[],[],[],[],[],428.2766,430.2758,430.2759,430.2761,[],[],[],[],[],[],[],,,,430.2761,430.2762,0.053224826,-0.398554688,0,0,0,,0,88,88,130,1,1,word,POLICY,cursive,policy_c.png,,,
,,,,31096,001,2025-10-19_19h07.28.808,HW_LDT_1,2024.2.4,MacIntel,61.72839506,,,,,,,,,,,,,,,,,,,,430.2774,430.4767,430.4768,430.9769,,,,,,,,,,,,,,0.6704,1,,,,,,,,,,,,,,z,,,,,,,,,,,,,,,90,0,430.9774,431.6602,z,1,0.6704,,[],[],[],[],[],[],[],431.6603,433.6592,433.6593,433.6594,[],[],[],[],[],[],[],,,,433.6595,433.6596,0.053224826,-0.398554688,0,0,0,,0,89,89,37,1,1,RL,skofen,print,skofen_p.png,,,
,,,,31096,001,2025-10-19_19h07.28.808,HW_LDT_1,2024.2.4,MacIntel,61.72839506,,,,,,,,,,,,,,,,,,,,433.6608,433.8602,433.8603,434.3602,,,,,,,,,,,,,,0.7866,1,,,,,,,,,,,,,,z,,,,,,,,,,,,,,,91,0,434.3606,435.1603,z,1,0.7866,,[],[],[],[],[],[],[],435.1604,437.1602,437.1603,437.1604,[],[],[],[],[],[],[],,,,437.1605,437.1605,0.053224826,-0.398554688,0,0,0,,0,90,90,58,1,1,TL,incidate,cursive,incidate_c.png,,,
,,,,31096,001,2025-10-19_19h07.28.808,HW_LDT_1,2024.2.4,MacIntel,61.72839506,,,,,,,,,,,,,,,,,,,,437.1615,437.3603,437.3603,437.8604,,,,,,,,,,,,,,0.6196,1,,,,,,,,,,,,,,m,,,,,,,,,,,,,,,92,0,437.861,438.4937,m,1,0.6196,,[],[],[],[],[],[],[],438.4938,440.4928,440.4928,440.4929,[],[],[],[],[],[],[],,,,440.493,440.4931,0.053224826,-0.398554688,0,0,0,,0,91,91,120,1,1,word,MILITARY,print,military_p.png,,,
,,,,31096,001,2025-10-19_19h07.28.808,HW_LDT_1,2024.2.4,MacIntel,61.72839506,,,,,,,,,,,,,,,,,,,,440.4938,440.6937,440.6937,441.1927,,,,,,,,,,,,,,0.6875,1,,,,,,,,,,,,,,m,,,,,,,,,,,,,,,93,0,441.1931,441.8938,m,1,0.6875,,[],[],[],[],[],[],[],441.8939,443.8938,443.8938,443.894,[],[],[],[],[],[],[],,,,443.894,443.8941,0.053224826,-0.398554688,0,0,0,,0,92,92,116,1,1,word,MARGINAL,print,marginal_p.png,,,
,,,,31096,001,2025-10-19_19h07.28.808,HW_LDT_1,2024.2.4,MacIntel,61.72839506,,,,,,,,,,,,,,,,,,,,443.8948,444.0939,444.094,444.5938,,,,,,,,,,,,,,0.9033,1,,,,,,,,,,,,,,z,,,,,,,,,,,,,,,94,0,444.5944,445.5106,z,1,0.9033,,[],[],[],[],[],[],[],445.5107,447.5107,447.5107,447.5109,[],[],[],[],[],[],[],,,,447.5109,447.5111,0.053224826,-0.398554688,0,0,0,,0,93,93,48,1,1,TL,cemerony,cursive,cemerony_c.png,,,
,,,,31096,001,2025-10-19_19h07.28.808,HW_LDT_1,2024.2.4,MacIntel,61.72839506,,,,,,,,,,,,,,,,,,,,447.5122,447.7106,447.7106,448.2105,,,,,,,,,,,,,,0.953,1,,,,,,,,,,,,,,z,,,,,,,,,,,,,,,95,1,448.211,449.1775,z,1,0.953,,[],[],[],[],[],[],[],449.1776,451.1774,451.1774,452.7109,[],[],[],[],[],[],[],z,1.5211,,452.7109,452.711,0.053224826,-0.398554688,0,0,0,,0,94,94,28,1,1,RL,renutal,print,renutal_p.png,,,
,,,,31096,001,2025-10-19_19h07.28.808,HW_LDT_1,2024.2.4,MacIntel,61.72839506,,,,,,,,,,,,,,,,,,,,452.7123,452.9107,452.9107,453.4108,,,,,,,,,,,,,,0.7738,1,,,,,,,,,,,,,,z,,,,,,,,,,,,,,,96,0,453.4113,454.1942,z,1,0.7738,,[],[],[],[],[],[],[],454.1942,456.1942,456.1942,456.1944,[],[],[],[],[],[],[],,,,456.1944,456.1945,0.053224826,-0.398554688,0,0,0,,0,95,95,15,1,1,RL,losipal,cursive,losipal_c.png,,,
,,,,31096,001,2025-10-19_19h07.28.808,HW_LDT_1,2024.2.4,MacIntel,61.72839506,,,,,,,,,,,,,,,,,,,,456.1956,456.3942,456.3942,456.8942,,,,,,,,,,,,,,0.7364,0,,,,,,,,,,,,,,m,,,,,,,,,,,,,,,97,0,456.8948,457.6443,z,0,0.7364,,[],[],[],[],[],[],[],457.6444,459.6443,459.6443,459.6445,[],[],[],[],[],[],[],,,,459.6445,459.6446,0.053224826,-0.398554688,0,0,0,,0,96,96,110,1,1,word,HERITAGE,cursive,heritage_c.png,,,
,,,,31096,001,2025-10-19_19h07.28.808,HW_LDT_1,2024.2.4,MacIntel,61.72839506,,,,,,,,,,,,,,,,,,,,459.6456,459.8432,459.8433,460.3443,,,,,,,,,,,,,,0.7313,1,,,,,,,,,,,,,,z,,,,,,,,,,,,,,,98,0,460.345,461.0777,z,1,0.7313,,[],[],[],[],[],[],[],461.0778,463.0777,463.0777,463.0778,[],[],[],[],[],[],[],,,,463.078,463.078,0.053224826,-0.398554688,0,0,0,,0,97,97,46,1,1,TL,catipal,print,catipal_p.png,,,
,,,,31096,001,2025-10-19_19h07.28.808,HW_LDT_1,2024.2.4,MacIntel,61.72839506,,,,,,,,,,,,,,,,,,,,463.0789,463.2777,463.2777,463.7777,,,,,,,,,,,,,,0.6318,0,,,,,,,,,,,,,,m,,,,,,,,,,,,,,,99,0,463.7781,464.411,z,0,0.6318,,[],[],[],[],[],[],[],464.4111,466.411,466.4111,466.4113,[],[],[],[],[],[],[],,,,466.4113,466.4113,0.053224826,-0.398554688,0,0,0,,0,98,98,151,1,1,word,SPECIFIC,cursive,specific_c.png,,,
,,,,31096,001,2025-10-19_19h07.28.808,HW_LDT_1,2024.2.4,MacIntel,61.72839506,,,,,,,,,,,,,,,,,,,,466.4123,466.6107,466.6107,467.1112,,,,,,,,,,,,,,0.5695,1,,,,,,,,,,,,,,m,,,,,,,,,,,,,,,100,0,467.1116,467.6944,m,1,0.5695,,[],[],[],[],[],[],[],467.6945,469.6945,469.6946,469.6947,[],[],[],[],[],[],[],,,,469.6947,469.6948,0.053224826,-0.398554688,0,0,0,,0,99,99,89,1,1,word,CAPACITY,print,capacity_p.png,,,
,,,,31096,001,2025-10-19_19h07.28.808,HW_LDT_1,2024.2.4,MacIntel,61.72839506,,,,,,,,,,,,,,,,,,,,469.6959,469.8945,469.8945,470.3945,,,,,,,,,,,,,,0.6314,1,,,,,,,,,,,,,,m,,,,,,,,,,,,,,,101,0,470.3952,471.0278,m,1,0.6314,,[],[],[],[],[],[],[],471.028,473.0279,473.0279,473.0281,[],[],[],[],[],[],[],,,,473.0282,473.0282,0.053224826,-0.398554688,0,0,0,,0,100,100,133,1,1,word,PROVIDE,print,provide_p.png,,,
,,,,31096,001,2025-10-19_19h07.28.808,HW_LDT_1,2024.2.4,MacIntel,61.72839506,,,,,,,,,,,,,,,,,,,,473.0293,473.228,473.2281,473.7279,,,,,,,,,,,,,,0.47,1,,,,,,,,,,,,,,m,,,,,,,,,,,,,,,102,0,473.7285,474.2114,m,1,0.47,,[],[],[],[],[],[],[],474.2116,476.2113,476.2114,476.2115,[],[],[],[],[],[],[],,,,476.2115,476.2116,0.053224826,-0.398554688,0,0,0,,0,101,101,83,1,1,word,ANIMAL,print,animal_p.png,,,
,,,,31096,001,2025-10-19_19h07.28.808,HW_LDT_1,2024.2.4,MacIntel,61.72839506,,,,,,,,,,,,,,,,,,,,476.2126,476.4114,476.4114,476.9114,,,,,,,,,,,,,,0.486,1,,,,,,,,,,,,,,m,,,,,,,,,,,,,,,103,0,476.9119,477.4113,m,1,0.486,,[],[],[],[],[],[],[],477.4113,479.4115,479.4115,479.4117,[],[],[],[],[],[],[],,,,479.4117,479.4118,0.053224826,-0.398554688,0,0,0,,0,102,102,85,1,1,word,BENEFIT,print,benefit_p.png,,,
,,,,31096,001,2025-10-19_19h07.28.808,HW_LDT_1,2024.2.4,MacIntel,61.72839506,,,,,,,,,,,,,,,,,,,,479.4132,479.6114,479.6114,480.1105,,,,,,,,,,,,,,0.6875,1,,,,,,,,,,,,,,m,,,,,,,,,,,,,,,104,0,480.1109,480.8116,m,1,0.6875,,[],[],[],[],[],[],[],480.8117,482.8113,482.8114,482.8116,[],[],[],[],[],[],[],,,,482.8117,482.8118,0.053224826,-0.398554688,0,0,0,,0,103,103,92,1,1,word,CATEGORY,print,category_p.png,,,
,,,,31096,001,2025-10-19_19h07.28.808,HW_LDT_1,2024.2.4,MacIntel,61.72839506,,,,,,,,,,,,,,,,,,,,482.8127,483.0115,483.0116,483.5116,,,,,,,,,,,,,,1.0639,1,,,,,,,,,,,,,,z,,,,,,,,,,,,,,,105,0,483.5122,484.5782,z,1,1.0639,,[],[],[],[],[],[],[],484.5783,486.5773,486.5773,486.5775,[],[],[],[],[],[],[],,,,486.5775,486.5776,0.053224826,-0.398554688,0,0,0,,0,104,104,45,1,1,TL,cacapity,print,cacapity_p.png,,,
,,,,31096,001,2025-10-19_19h07.28.808,HW_LDT_1,2024.2.4,MacIntel,61.72839506,,,,,,,,,,,,,,,,,,,,486.5785,486.7784,486.7784,487.2783,,,,,,,,,,,,,,0.8022,1,,,,,,,,,,,,,,m,,,,,,,,,,,,,,,106,0,487.2788,488.0952,m,1,0.8022,,[],[],[],[],[],[],[],488.0953,490.0942,490.0943,490.0944,[],[],[],[],[],[],[],,,,490.0945,490.0946,0.053224826,-0.398554688,0,0,0,,0,105,105,137,1,1,word,RAPIDLY,cursive,rapidly_c.png,,,
,,,,31096,001,2025-10-19_19h07.28.808,HW_LDT_1,2024.2.4,MacIntel,61.72839506,,,,,,,,,,,,,,,,,,,,490.0958,490.295,490.2951,490.7951,,,,,,,,,,,,,,0.7152,1,,,,,,,,,,,,,,m,,,,,,,,,,,,,,,107,0,490.7955,491.512,m,1,0.7152,,[],[],[],[],[],[],[],491.5121,493.5118,493.5119,493.512,[],[],[],[],[],[],[],,,,493.5121,493.5122,0.053224826,-0.398554688,0,0,0,,0,106,106,155,1,1,word,STRATEGY,cursive,strategy_c.png,,,
,,,,31096,001,2025-10-19_19h07.28.808,HW_LDT_1,2024.2.4,MacIntel,61.72839506,,,,,,,,,,,,,,,,,,,,493.5132,493.7108,493.7109,494.2119,,,,,,,,,,,,,,0.6368,1,,,,,,,,,,,,,,z,,,,,,,,,,,,,,,108,0,494.2125,494.8619,z,1,0.6368,,[],[],[],[],[],[],[],494.862,496.8619,496.8619,496.8621,[],[],[],[],[],[],[],,,,496.8622,496.8622,0.053224826,-0.398554688,0,0,0,,0,107,107,7,1,1,RL,delahe,print,delahe_p.png,,,
,,,,31096,001,2025-10-19_19h07.28.808,HW_LDT_1,2024.2.4,MacIntel,61.72839506,,,,,,,,,,,,,,,,,,,,496.8631,497.0621,497.0621,497.5619,,,,,,,,,,,,,,0.7373,1,,,,,,,,,,,,,,z,,,,,,,,,,,,,,,109,0,497.5625,498.3121,z,1,0.7373,,[],[],[],[],[],[],[],498.3122,500.312,500.312,500.3123,[],[],[],[],[],[],[],,,,500.3123,500.3124,0.053224826,-0.398554688,0,0,0,,0,108,108,16,1,1,RL,marmipal,print,marmipal_p.png,,,
,,,,31096,001,2025-10-19_19h07.28.808,HW_LDT_1,2024.2.4,MacIntel,61.72839506,,,,,,,,,,,,,,,,,,,,500.3133,500.512,500.512,501.0121,,,,,,,,,,,,,,0.9471,1,,,,,,,,,,,,,,m,,,,,,,,,,,,,,,110,0,501.0127,501.9621,m,1,0.9471,,[],[],[],[],[],[],[],501.9621,503.9611,503.9611,503.9612,[],[],[],[],[],[],[],,,,503.9613,503.9613,0.053224826,-0.398554688,0,0,0,,0,109,109,113,1,1,word,LITERAL,print,literal_p.png,,,
,,,,31096,001,2025-10-19_19h07.28.808,HW_LDT_1,2024.2.4,MacIntel,61.72839506,,,,,,,,,,,,,,,,,,,,503.9623,504.162,504.1621,504.6611,,,,,,,,,,,,,,0.8043,1,,,,,,,,,,,,,,z,,,,,,,,,,,,,,,111,0,504.6616,505.4789,z,1,0.8043,,[],[],[],[],[],[],[],505.479,507.4784,507.4784,507.4786,[],[],[],[],[],[],[],,,,507.4786,507.4786,0.053224826,-0.398554688,0,0,0,,0,110,110,72,1,1,TL,remuse,print,remuse_p.png,,,
,,,,31096,001,2025-10-19_19h07.28.808,HW_LDT_1,2024.2.4,MacIntel,61.72839506,,,,,,,,,,,,,,,,,,,,507.4798,507.6787,507.6788,508.1791,,,,,,,,,,,,,,1.503,1,,,,,,,,,,,,,,z,,,,,,,,,,,,,,,112,0,508.1795,509.6957,z,1,1.503,,[],[],[],[],[],[],[],509.6957,511.6955,511.6955,511.6956,[],[],[],[],[],[],[],,,,511.6956,511.6957,0.053224826,-0.398554688,0,0,0,,0,111,111,69,1,1,TL,radiply,cursive,radiply_c.png,,,
,,,,31096,001,2025-10-19_19h07.28.808,HW_LDT_1,2024.2.4,MacIntel,61.72839506,,,,,,,,,,,,,,,,,,,,511.6965,511.8946,511.8946,512.3954,,,,,,,,,,,,,,0.9082,1,,,,,,,,,,,,,,z,,,,,,,,,,,,,,,113,0,512.396,513.3113,z,1,0.9082,,[],[],[],[],[],[],[],513.3113,515.3122,515.3123,515.3124,[],[],[],[],[],[],[],,,,515.3125,515.3127,0.053224826,-0.398554688,0,0,0,,0,112,112,20,1,1,RL,nunewical,print,nunewical_p.png,,,
,,,,31096,001,2025-10-19_19h07.28.808,HW_LDT_1,2024.2.4,MacIntel,61.72839506,,,,,,,,,,,,,,,,,,,,515.3137,515.5114,515.5114,516.0122,,,,,,,,,,,,,,0.6485,1,,,,,,,,,,,,,,m,,,,,,,,,,,,,,,114,0,516.0126,516.6623,m,1,0.6485,,[],[],[],[],[],[],[],516.6623,518.6624,518.6625,518.6627,[],[],[],[],[],[],[],,,,518.6628,518.6628,0.053224826,-0.398554688,0,0,0,,0,113,113,145,1,1,word,RESUME,print,resume_p.png,,,
,,,,31096,001,2025-10-19_19h07.28.808,HW_LDT_1,2024.2.4,MacIntel,61.72839506,,,,,,,,,,,,,,,,,,,,518.6637,518.8624,518.8624,519.3624,,,,,,,,,,,,,,1.0479,1,,,,,,,,,,,,,,m,,,,,,,,,,,,,,,115,1,519.3629,520.4124,m,1,1.0479,,[],[],[],[],[],[],[],520.4124,522.4115,522.4116,523.5283,[],[],[],[],[],[],[],z,1.1048,,523.5284,523.5285,0.053224826,-0.398554688,0,0,0,,0,114,114,122,1,1,word,MOBILE,cursive,mobile_c.png,,,
,,,,31096,001,2025-10-19_19h07.28.808,HW_LDT_1,2024.2.4,MacIntel,61.72839506,,,,,,,,,,,,,,,,,,,,523.5293,523.7288,523.7289,524.2284,,,,,,,,,,,,,,1.3156,1,,,,,,,,,,,,,,m,,,,,,,,,,,,,,,116,0,524.2289,525.5458,m,1,1.3156,,[],[],[],[],[],[],[],525.5459,527.5459,527.546,527.5462,[],[],[],[],[],[],[],,,,527.5462,527.5463,0.053224826,-0.398554688,0,0,0,,0,115,115,119,1,1,word,MEMORY,cursive,memory_c.png,,,
,,,,31096,001,2025-10-19_19h07.28.808,HW_LDT_1,2024.2.4,MacIntel,61.72839506,,,,,,,,,,,,,,,,,,,,527.5477,527.7449,527.7449,528.2451,,,,,,,,,,,,,,0.7376,1,,,,,,,,,,,,,,z,,,,,,,,,,,,,,,117,0,528.2455,528.9961,z,1,0.7376,,[],[],[],[],[],[],[],528.9962,530.9962,530.9963,530.9964,[],[],[],[],[],[],[],,,,530.9965,530.9965,0.053224826,-0.398554688,0,0,0,,0,116,116,41,1,1,TL,bevoled,print,bevoled_p.png,,,
,,,,31096,001,2025-10-19_19h07.28.808,HW_LDT_1,2024.2.4,MacIntel,61.72839506,,,,,,,,,,,,,,,,,,,,530.9977,531.1961,531.1961,531.6961,,,,,,,,,,,,,,1.3203,0,,,,,,,,,,,,,,m,,,,,,,,,,,,,,,118,0,531.6967,533.0297,z,0,1.3203,,[],[],[],[],[],[],[],533.0297,535.0295,535.0296,535.0298,[],[],[],[],[],[],[],,,,535.0299,535.0301,0.053224826,-0.398554688,0,0,0,,0,117,117,101,1,1,word,DELICATE,cursive,delicate_c.png,,,
,,,,31096,001,2025-10-19_19h07.28.808,HW_LDT_1,2024.2.4,MacIntel,61.72839506,,,,,,,,,,,,,,,,,,,,535.0311,535.2295,535.2296,535.7295,,,,,,,,,,,,,,0.787,1,,,,,,,,,,,,,,m,,,,,,,,,,,,,,,119,0,535.73,536.5286,m,1,0.787,,[],[],[],[],[],[],[],536.5286,538.5286,538.5287,538.5288,[],[],[],[],[],[],[],,,,538.5288,538.529,0.053224826,-0.398554688,0,0,0,,0,118,118,143,1,1,word,REMOVAL,cursive,removal_c.png,,,
,,,,31096,001,2025-10-19_19h07.28.808,HW_LDT_1,2024.2.4,MacIntel,61.72839506,,,,,,,,,,,,,,,,,,,,538.5301,538.7296,538.7297,539.2296,,,,,,,,,,,,,,1.1705,1,,,,,,,,,,,,,,m,,,,,,,,,,,,,,,120,0,539.2302,540.4131,m,1,1.1705,,[],[],[],[],[],[],[],540.4132,542.4121,542.4122,542.4123,[],[],[],[],[],[],[],,,,542.4124,542.4125,0.053224826,-0.398554688,0,0,0,,0,119,119,154,1,1,word,STORAGE,cursive,storage_c.png,,,
,,,,31096,001,2025-10-19_19h07.28.808,HW_LDT_1,2024.2.4,MacIntel,61.72839506,,,,,,,,,,,,,,,,,,,,542.4136,542.6131,542.6131,543.113,,,,,,,,,,,,,,0.6652,1,,,,,,,,,,,,,,m,,,,,,,,,,,,,,,121,0,543.1136,543.7797,m,1,0.6652,,[],[],[],[],[],[],[],543.7798,545.7789,545.7789,545.779,[],[],[],[],[],[],[],,,,545.7791,545.7793,0.053224826,-0.398554688,0,0,0,,0,120,120,109,1,1,word,GRATEFUL,print,grateful_p.png,,,
,,,,31096,001,2025-10-19_19h07.28.808,HW_LDT_1,2024.2.4,MacIntel,61.72839506,,,,,,,,,,,,,,,,,,,,545.7804,545.9789,545.979,546.4789,,,,,,,,,,,,,,0.6045,1,,,,,,,,,,,,,,z,,,,,,,,,,,,,,,122,1,546.4794,547.0955,z,1,0.6045,,[],[],[],[],[],[],[],547.0957,549.0965,549.0965,550.4301,[],[],[],[],[],[],[],z,1.325,,550.4302,550.4303,0.053224826,-0.398554688,0,0,0,,0,121,121,18,1,1,RL,mishafe,print,mishafe_p.png,,,
,,,,31096,001,2025-10-19_19h07.28.808,HW_LDT_1,2024.2.4,MacIntel,61.72839506,,,,,,,,,,,,,,,,,,,,550.4315,550.6297,550.6298,551.1299,,,,,,,,,,,,,,1.7037,1,,,,,,,,,,,,,,z,,,,,,,,,,,,,,,123,0,551.1306,552.8467,z,1,1.7037,,[],[],[],[],[],[],[],552.8469,554.8466,554.8466,554.8468,[],[],[],[],[],[],[],,,,554.8469,554.8472,0.053224826,-0.398554688,0,0,0,,0,122,122,71,1,1,TL,regilion,cursive,regilion_c.png,,,
,,,,31096,001,2025-10-19_19h07.28.808,HW_LDT_1,2024.2.4,MacIntel,61.72839506,,,,,,,,,,,,,,,,,,,,554.8484,555.0467,555.0467,555.5457,,,,,,,,,,,,,,0.8383,0,,,,,,,,,,,,,,m,,,,,,,,,,,,,,,124,0,555.5462,556.3967,z,0,0.8383,,[],[],[],[],[],[],[],556.3969,558.3958,558.3958,558.396,[],[],[],[],[],[],[],,,,558.396,558.3961,0.053224826,-0.398554688,0,0,0,,0,123,123,125,1,1,word,OPERATOR,cursive,operator_c.png,,,
,,,,31096,001,2025-10-19_19h07.28.808,HW_LDT_1,2024.2.4,MacIntel,61.72839506,,,,,,,,,,,,,,,,,,,,558.3972,558.5957,558.5957,559.0968,,,,,,,,,,,,,,0.7369,1,,,,,,,,,,,,,,z,,,,,,,,,,,,,,,125,1,559.0974,559.8459,z,1,0.7369,,[],[],[],[],[],[],[],559.846,561.8462,561.8462,562.8296,[],[],[],[],[],[],[],z,0.9712,,562.8297,562.8297,0.053224826,-0.398554688,0,0,0,,0,124,124,25,1,1,RL,quakity,cursive,quakity_c.png,,,
,,,,31096,001,2025-10-19_19h07.28.808,HW_LDT_1,2024.2.4,MacIntel,61.72839506,,,,,,,,,,,,,,,,,,,,562.8309,563.0302,563.0302,563.5292,,,,,,,,,,,,,,0.8232,1,,,,,,,,,,,,,,z,,,,,,,,,,,,,,,126,0,563.5298,564.3637,z,1,0.8232,,[],[],[],[],[],[],[],564.3638,566.3626,566.3627,566.3629,[],[],[],[],[],[],[],,,,566.3629,566.363,0.053224826,-0.398554688,0,0,0,,0,125,125,19,1,1,RL,monebate,print,monebate_p.png,,,
,,,,31096,001,2025-10-19_19h07.28.808,HW_LDT_1,2024.2.4,MacIntel,61.72839506,,,,,,,,,,,,,,,,,,,,566.3643,566.5627,566.5627,567.0636,,,,,,,,,,,,,,1.5363,1,,,,,,,,,,,,,,z,,,,,,,,,,,,,,,127,0,567.0642,568.6136,z,1,1.5363,,[],[],[],[],[],[],[],568.6137,570.6127,570.6128,570.613,[],[],[],[],[],[],[],,,,570.613,570.6132,0.053224826,-0.398554688,0,0,0,,0,126,126,59,1,1,TL,lirebal,cursive,lirebal_c.png,,,
,,,,31096,001,2025-10-19_19h07.28.808,HW_LDT_1,2024.2.4,MacIntel,61.72839506,,,,,,,,,,,,,,,,,,,,570.6144,570.8138,570.8139,571.3137,,,,,,,,,,,,,,0.9239,1,,,,,,,,,,,,,,z,,,,,,,,,,,,,,,128,0,571.3144,572.2473,z,1,0.9239,,[],[],[],[],[],[],[],572.2474,574.2461,574.2461,574.2463,[],[],[],[],[],[],[],,,,574.2464,574.2465,0.053224826,-0.398554688,0,0,0,,0,127,127,39,1,1,RL,vabifity,cursive,vabifity_c.png,,,
,,,,31096,001,2025-10-19_19h07.28.808,HW_LDT_1,2024.2.4,MacIntel,61.72839506,,,,,,,,,,,,,,,,,,,,574.2475,574.4463,574.4463,574.9471,,,,,,,,,,,,,,0.8893,1,,,,,,,,,,,,,,z,,,,,,,,,,,,,,,129,0,574.9477,575.8472,z,1,0.8893,,[],[],[],[],[],[],[],575.8473,577.8472,577.8473,577.8475,[],[],[],[],[],[],[],,,,577.8476,577.8478,0.053224826,-0.398554688,0,0,0,,0,128,128,64,1,1,TL,orepator,cursive,orepator_c.png,,,
,,,,31096,001,2025-10-19_19h07.28.808,HW_LDT_1,2024.2.4,MacIntel,61.72839506,,,,,,,,,,,,,,,,,,,,577.8488,578.0472,578.0473,578.5473,,,,,,,,,,,,,,0.6189,1,,,,,,,,,,,,,,m,,,,,,,,,,,,,,,130,1,578.548,579.1806,m,1,0.6189,,[],[],[],[],[],[],[],579.1808,581.1806,581.1807,582.4973,[],[],[],[],[],[],[],m,1.3083,,582.4974,582.4976,0.053224826,-0.398554688,0,0,0,,0,129,129,97,1,1,word,COVERAGE,print,coverage_p.png,,,
,,,,31096,001,2025-10-19_19h07.28.808,HW_LDT_1,2024.2.4,MacIntel,61.72839506,,,,,,,,,,,,,,,,,,,,582.4986,582.6963,582.6964,583.1973,,,,,,,,,,,,,,0.5568,1,,,,,,,,,,,,,,z,,,,,,,,,,,,,,,131,0,583.1979,583.7642,z,1,0.5568,,[],[],[],[],[],[],[],583.7643,585.7633,585.7633,585.7635,[],[],[],[],[],[],[],,,,585.7635,585.7637,0.053224826,-0.398554688,0,0,0,,0,130,130,12,1,1,RL,ebiwent,print,ebiwent_p.png,,,
,,,,31096,001,2025-10-19_19h07.28.808,HW_LDT_1,2024.2.4,MacIntel,61.72839506,,,,,,,,,,,,,,,,,,,,585.7648,585.9641,585.9642,586.4642,,,,,,,,,,,,,,0.9693,1,,,,,,,,,,,,,,m,,,,,,,,,,,,,,,132,0,586.4648,587.4465,m,1,0.9693,,[],[],[],[],[],[],[],587.4466,589.4475,589.4476,589.4477,[],[],[],[],[],[],[],,,,589.4478,589.4478,0.053224826,-0.398554688,0,0,0,,0,131,131,127,1,1,word,ORIGINAL,cursive,original_c.png,,,
,,,,31096,001,2025-10-19_19h07.28.808,HW_LDT_1,2024.2.4,MacIntel,61.72839506,,,,,,,,,,,,,,,,,,,,589.449,589.6465,589.6466,590.1475,,,,,,,,,,,,,,0.6709,1,,,,,,,,,,,,,,m,,,,,,,,,,,,,,,133,0,590.1481,590.8311,m,1,0.6709,,[],[],[],[],[],[],[],590.8312,592.8309,592.831,592.8311,[],[],[],[],[],[],[],,,,592.8311,592.8313,0.053224826,-0.398554688,0,0,0,,0,132,132,80,1,1,word,ACADEMY,cursive,academy_c.png,,,
,,,,31096,001,2025-10-19_19h07.28.808,HW_LDT_1,2024.2.4,MacIntel,61.72839506,,,,,,,,,,,,,,,,,,,,592.8325,593.031,593.031,593.531,,,,,,,,,,,,,,1.2359,0,,,,,,,,,,,,,,z,,,,,,,,,,,,,,,134,0,593.5315,594.781,m,0,1.2359,,[],[],[],[],[],[],[],594.7811,596.7811,596.7812,596.7815,[],[],[],[],[],[],[],,,,596.7815,596.7816,0.053224826,-0.398554688,0,0,0,,0,133,133,1,1,1,RL,adnicory,cursive,adnicory_c.png,,,
,,,,31096,001,2025-10-19_19h07.28.808,HW_LDT_1,2024.2.4,MacIntel,61.72839506,,,,,,,,,,,,,,,,,,,,596.7827,596.98,596.98,597.4811,,,,,,,,,,,,,,0.6869,1,,,,,,,,,,,,,,z,,,,,,,,,,,,,,,135,0,597.4816,598.1801,z,1,0.6869,,[],[],[],[],[],[],[],598.1802,600.1811,600.1812,600.1815,[],[],[],[],[],[],[],,,,600.1815,600.1816,0.053224826,-0.398554688,0,0,0,,0,134,134,38,1,1,RL,stopave,cursive,stopave_c.png,,,
,,,,31096,001,2025-10-19_19h07.28.808,HW_LDT_1,2024.2.4,MacIntel,61.72839506,,,,,,,,,,,,,,,,,,,,600.1828,600.3803,600.3803,600.8812,,,,,,,,,,,,,,0.6367,1,,,,,,,,,,,,,,m,,,,,,,,,,,,,,,136,0,600.8817,601.5305,m,1,0.6367,,[],[],[],[],[],[],[],601.5306,603.5311,603.5312,603.5314,[],[],[],[],[],[],[],,,,603.5315,603.5317,0.053224826,-0.398554688,0,0,0,,0,135,135,104,1,1,word,DOMINANT,cursive,dominant_c.png,,,
,,,,31096,001,2025-10-19_19h07.28.808,HW_LDT_1,2024.2.4,MacIntel,61.72839506,,,,,,,,,,,,,,,,,,,,603.5327,603.7313,603.7313,604.2312,,,,,,,,,,,,,,0.6199,1,,,,,,,,,,,,,,m,,,,,,,,,,,,,,,137,1,604.2318,604.8646,m,1,0.6199,,[],[],[],[],[],[],[],604.8646,606.8638,606.8638,607.9148,[],[],[],[],[],[],[],z,1.0383,,607.9148,607.9149,0.053224826,-0.398554688,0,0,0,,0,136,136,141,1,1,word,RELIGION,cursive,religion_c.png,,,
,,,,31096,001,2025-10-19_19h07.28.808,HW_LDT_1,2024.2.4,MacIntel,61.72839506,,,,,,,,,,,,,,,,,,,,607.916,608.1145,608.1146,608.6137,,,,,,,,,,,,,,0.7046,1,,,,,,,,,,,,,,z,,,,,,,,,,,,,,,138,0,608.6142,609.3315,z,1,0.7046,,[],[],[],[],[],[],[],609.3315,611.3304,611.3305,611.3306,[],[],[],[],[],[],[],,,,611.3306,611.3307,0.053224826,-0.398554688,0,0,0,,0,137,137,32,1,1,RL,rebicent,print,rebicent_p.png,,,
,,,,31096,001,2025-10-19_19h07.28.808,HW_LDT_1,2024.2.4,MacIntel,61.72839506,,,,,,,,,,,,,,,,,,,,611.332,611.5314,611.5314,612.0314,,,,,,,,,,,,,,0.9824,1,,,,,,,,,,,,,,m,,,,,,,,,,,,,,,139,0,612.0319,613.015,m,1,0.9824,,[],[],[],[],[],[],[],613.0151,615.0148,615.0148,615.015,[],[],[],[],[],[],[],,,,615.0151,615.0152,0.053224826,-0.398554688,0,0,0,,0,138,138,148,1,1,word,SALINE,print,saline_p.png,,,
,,,,31096,001,2025-10-19_19h07.28.808,HW_LDT_1,2024.2.4,MacIntel,61.72839506,,,,,,,,,,,,,,,,,,,,615.0164,615.2148,615.2149,615.7149,,,,,,,,,,,,,,0.6536,1,,,,,,,,,,,,,,m,,,,,,,,,,,,,,,140,0,615.7153,616.3811,m,1,0.6536,,[],[],[],[],[],[],[],616.3812,618.3806,618.3806,618.3808,[],[],[],[],[],[],[],,,,618.3808,618.3809,0.053224826,-0.398554688,0,0,0,,0,139,139,153,1,1,word,STOLEN,print,stolen_p.png,,,
,,,,31096,001,2025-10-19_19h07.28.808,HW_LDT_1,2024.2.4,MacIntel,61.72839506,,,,,,,,,,,,,,,,,,,,618.3821,618.5816,618.5817,619.0806,,,,,,,,,,,,,,0.638,0,,,,,,,,,,,,,,m,,,,,,,,,,,,,,,141,0,619.0812,619.7317,z,0,0.638,,[],[],[],[],[],[],[],619.7318,621.7308,621.7308,621.731,[],[],[],[],[],[],[],,,,621.7311,621.7312,0.053224826,-0.398554688,0,0,0,,0,140,140,88,1,1,word,CAMERA,cursive,camera_c.png,,,
,,,,31096,001,2025-10-19_19h07.28.808,HW_LDT_1,2024.2.4,MacIntel,61.72839506,,,,,,,,,,,,,,,,,,,,621.7326,621.9318,621.9318,622.4319,,,,,,,,,,,,,,0.574,1,,,,,,,,,,,,,,m,,,,,,,,,,,,,,,142,1,622.4324,623.0142,m,1,0.574,,[],[],[],[],[],[],[],623.0143,625.0153,625.0153,626.1319,[],[],[],[],[],[],[],m,1.1155,,626.132,626.132,0.053224826,-0.398554688,0,0,0,,0,141,141,159,1,1,word,VETERAN,print,veteran_p.png,,,
,,,,31096,001,2025-10-19_19h07.28.808,HW_LDT_1,2024.2.4,MacIntel,61.72839506,,,,,,,,,,,,,,,,,,,,626.1331,626.3319,626.3319,626.8316,,,,,,,,,,,,,,0.6869,1,,,,,,,,,,,,,,z,,,,,,,,,,,,,,,143,0,626.8322,627.5321,z,1,0.6869,,[],[],[],[],[],[],[],627.5322,629.531,629.531,629.5313,[],[],[],[],[],[],[],,,,629.5314,629.5315,0.053224826,-0.398554688,0,0,0,,0,142,142,51,1,1,TL,corevage,print,corevage_p.png,,,
,,,,31096,001,2025-10-19_19h07.28.808,HW_LDT_1,2024.2.4,MacIntel,61.72839506,,,,,,,,,,,,,,,,,,,,629.5327,629.7321,629.7321,630.2321,,,,,,,,,,,,,,0.8649,1,,,,,,,,,,,,,,m,,,,,,,,,,,,,,,144,0,630.2326,631.0986,m,1,0.8649,,[],[],[],[],[],[],[],631.0987,633.0987,633.0988,633.099,[],[],[],[],[],[],[],,,,633.0991,633.0993,0.053224826,-0.398554688,0,0,0,,0,143,143,118,1,1,word,MEDICINE,cursive,medicine_c.png,,,
,,,,31096,001,2025-10-19_19h07.28.808,HW_LDT_1,2024.2.4,MacIntel,61.72839506,,,,,,,,,,,,,,,,,,,,633.1004,633.2988,633.2988,633.7989,,,,,,,,,,,,,,0.5706,1,,,,,,,,,,,,,,m,,,,,,,,,,,,,,,145,1,633.7994,634.3822,m,1,0.5706,,[],[],[],[],[],[],[],634.3823,636.3821,636.3822,637.7822,[],[],[],[],[],[],[],m,1.387,,637.7823,637.7825,0.053224826,-0.398554688,0,0,0,,0,144,144,90,1,1,word,CAPITAL,print,capital_p.png,,,
,,,,31096,001,2025-10-19_19h07.28.808,HW_LDT_1,2024.2.4,MacIntel,61.72839506,,,,,,,,,,,,,,,,,,,,637.7835,637.9822,637.9823,638.4821,,,,,,,,,,,,,,1.1698,1,,,,,,,,,,,,,,z,,,,,,,,,,,,,,,146,0,638.4827,639.6658,z,1,1.1698,,[],[],[],[],[],[],[],639.6658,641.6657,641.6657,641.6659,[],[],[],[],[],[],[],,,,641.6659,641.666,0.053224826,-0.398554688,0,0,0,,0,145,145,6,1,1,RL,crisival,print,crisival_p.png,,,
,,,,31096,001,2025-10-19_19h07.28.808,HW_LDT_1,2024.2.4,MacIntel,61.72839506,,,,,,,,,,,,,,,,,,,,641.6672,641.8648,641.8648,642.3656,,,,,,,,,,,,,,0.6868,1,,,,,,,,,,,,,,m,,,,,,,,,,,,,,,147,0,642.3663,643.0657,m,1,0.6868,,[],[],[],[],[],[],[],643.0657,645.0656,645.0657,645.0658,[],[],[],[],[],[],[],,,,645.0658,645.0659,0.053224826,-0.398554688,0,0,0,,0,146,146,82,1,1,word,AMATEUR,print,amateur_p.png,,,
,,,,31096,001,2025-10-19_19h07.28.808,HW_LDT_1,2024.2.4,MacIntel,61.72839506,,,,,,,,,,,,,,,,,,,,645.067,645.2658,645.2658,645.7658,,,,,,,,,,,,,,1.1201,1,,,,,,,,,,,,,,z,,,,,,,,,,,,,,,148,0,645.7664,646.8992,z,1,1.1201,,[],[],[],[],[],[],[],646.8992,648.8993,648.8993,648.8996,[],[],[],[],[],[],[],,,,648.8996,648.8998,0.053224826,-0.398554688,0,0,0,,0,147,147,22,1,1,RL,patisic,print,patisic_p.png,,,
,,,,31096,001,2025-10-19_19h07.28.808,HW_LDT_1,2024.2.4,MacIntel,61.72839506,,,,,,,,,,,,,,,,,,,,648.901,649.0991,649.0992,649.5993,,,,,,,,,,,,,,1.0385,1,,,,,,,,,,,,,,m,,,,,,,,,,,,,,,149,1,649.5998,650.6483,m,1,1.0385,,[],[],[],[],[],[],[],650.6483,652.6489,652.649,654.9161,[],[],[],[],[],[],[],z,2.2584,,654.9162,654.9163,0.053224826,-0.398554688,0,0,0,,0,148,148,126,1,1,word,OPTIMAL,print,optimal_p.png,,,
,,,,31096,001,2025-10-19_19h07.28.808,HW_LDT_1,2024.2.4,MacIntel,61.72839506,,,,,,,,,,,,,,,,,,,,654.9173,655.1161,655.1162,655.6159,,,,,,,,,,,,,,0.7537,1,,,,,,,,,,,,,,z,,,,,,,,,,,,,,,150,0,655.6165,656.3828,z,1,0.7537,,[],[],[],[],[],[],[],656.3828,658.3827,658.3827,658.3829,[],[],[],[],[],[],[],,,,658.383,658.383,0.053224826,-0.398554688,0,0,0,,0,149,149,44,1,1,TL,cateferia,cursive,cateferia_c.png,,,
,,,,31096,001,2025-10-19_19h07.28.808,HW_LDT_1,2024.2.4,MacIntel,61.72839506,,,,,,,,,,,,,,,,,,,,658.3838,658.5828,658.5828,659.0828,,,,,,,,,,,,,,1.0029,1,,,,,,,,,,,,,,m,,,,,,,,,,,,,,,151,0,659.0835,660.0995,m,1,1.0029,,[],[],[],[],[],[],[],660.0996,662.0996,662.0996,662.0999,[],[],[],[],[],[],[],,,,662.0999,662.1001,0.053224826,-0.398554688,0,0,0,,0,150,150,123,1,1,word,MODERATE,print,moderate_p.png,,,
,,,,31096,001,2025-10-19_19h07.28.808,HW_LDT_1,2024.2.4,MacIntel,61.72839506,,,,,,,,,,,,,,,,,,,,662.1014,662.2996,662.2996,662.7996,,,,,,,,,,,,,,0.7204,1,,,,,,,,,,,,,,m,,,,,,,,,,,,,,,152,1,662.8001,663.533,m,1,0.7204,,[],[],[],[],[],[],[],663.5331,665.532,665.532,667.2654,[],[],[],[],[],[],[],z,1.7217,,667.2654,667.2656,0.053224826,-0.398554688,0,0,0,,0,151,151,139,1,1,word,REGULAR,print,regular_p.png,,,
,,,,31096,001,2025-10-19_19h07.28.808,HW_LDT_1,2024.2.4,MacIntel,61.72839506,,,,,,,,,,,,,,,,,,,,667.2665,667.4657,667.4657,667.9664,,,,,,,,,,,,,,1.1526,1,,,,,,,,,,,,,,m,,,,,,,,,,,,,,,153,0,667.967,669.1331,m,1,1.1526,,[],[],[],[],[],[],[],669.1332,671.1332,671.1332,671.1333,[],[],[],[],[],[],[],,,,671.1334,671.1335,0.053224826,-0.398554688,0,0,0,,0,152,152,152,1,1,word,SPECIMEN,cursive,specimen_c.png,,,
,,,,31096,001,2025-10-19_19h07.28.808,HW_LDT_1,2024.2.4,MacIntel,61.72839506,,,,,,,,,,,,,,,,,,,,671.1345,671.332,671.3321,671.8333,,,,,,,,,,,,,,0.8245,1,,,,,,,,,,,,,,z,,,,,,,,,,,,,,,154,1,671.8337,672.6666,z,1,0.8245,,[],[],[],[],[],[],[],672.6666,674.6665,674.6666,675.6165,[],[],[],[],[],[],[],z,0.9478,,675.6165,675.6167,0.053224826,-0.398554688,0,0,0,,0,153,153,53,1,1,TL,dentisy,cursive,dentisy_c.png,,,
,,,,31096,001,2025-10-19_19h07.28.808,HW_LDT_1,2024.2.4,MacIntel,61.72839506,,,,,,,,,,,,,,,,,,,,675.6174,675.8156,675.8156,676.3168,,,,,,,,,,,,,,1.6571,1,,,,,,,,,,,,,,z,,,,,,,,,,,,,,,155,0,676.3172,677.9834,z,1,1.6571,,[],[],[],[],[],[],[],677.9835,679.9834,679.9835,679.9836,[],[],[],[],[],[],[],,,,679.9837,679.9838,0.053224826,-0.398554688,0,0,0,,0,154,154,63,1,1,TL,molibe,cursive,molibe_c.png,,,
,,,,31096,001,2025-10-19_19h07.28.808,HW_LDT_1,2024.2.4,MacIntel,61.72839506,,,,,,,,,,,,,,,,,,,,679.9851,680.1834,680.1834,680.6833,,,,,,,,,,,,,,0.5863,1,,,,,,,,,,,,,,z,,,,,,,,,,,,,,,156,0,680.6839,681.2834,z,1,0.5863,,[],[],[],[],[],[],[],681.2836,683.2833,683.2834,683.2836,[],[],[],[],[],[],[],,,,683.2836,683.2836,0.053224826,-0.398554688,0,0,0,,0,155,155,43,1,1,TL,bedise,print,bedise_p.png,,,
,,,,31096,001,2025-10-19_19h07.28.808,HW_LDT_1,2024.2.4,MacIntel,61.72839506,,,,,,,,,,,,,,,,,,,,683.2845,683.4835,683.4835,683.9835,,,,,,,,,,,,,,0.7039,1,,,,,,,,,,,,,,z,,,,,,,,,,,,,,,157,0,683.9839,684.7001,z,1,0.7039,,[],[],[],[],[],[],[],684.7003,686.7002,686.7003,686.7005,[],[],[],[],[],[],[],,,,686.7005,686.7006,0.053224826,-0.398554688,0,0,0,,0,156,156,5,1,1,RL,cobeny,cursive,cobeny_c.png,,,
,,,,31096,001,2025-10-19_19h07.28.808,HW_LDT_1,2024.2.4,MacIntel,61.72839506,,,,,,,,,,,,,,,,,,,,686.7018,686.9003,686.9004,687.4003,,,,,,,,,,,,,,0.8198,1,,,,,,,,,,,,,,m,,,,,,,,,,,,,,,158,0,687.4007,688.2336,m,1,0.8198,,[],[],[],[],[],[],[],688.2337,690.2334,690.2334,690.2335,[],[],[],[],[],[],[],,,,690.2335,690.2335,0.053224826,-0.398554688,0,0,0,,0,157,157,106,1,1,word,ELABORATE,print,elaborate_p.png,,,
,,,,31096,001,2025-10-19_19h07.28.808,HW_LDT_1,2024.2.4,MacIntel,61.72839506,,,,,,,,,,,,,,,,,,,,690.2341,690.4337,690.4338,690.9337,,,,,,,,,,,,,,1.2226,0,,,,,,,,,,,,,,z,,,,,,,,,,,,,,,159,0,690.9343,692.1667,m,0,1.2226,,[],[],[],[],[],[],[],692.1668,694.1667,694.1668,694.1669,[],[],[],[],[],[],[],,,,694.1669,694.167,0.053224826,-0.398554688,0,0,0,,0,158,158,36,1,1,RL,speniven,cursive,speniven_c.png,,,
,,,,31096,001,2025-10-19_19h07.28.808,HW_LDT_1,2024.2.4,MacIntel,61.72839506,,,,,,,,,,,,,,,,,,,,694.168,694.367,694.3671,694.8672,,,,,,,,,,,,,,0.8528,1,,,,,,,,,,,,,,m,,,,,,,,,,,,,,,160,0,694.8678,695.7338,m,1,0.8528,,[],[],[],[],[],[],[],695.7339,697.7328,697.7328,697.733,[],[],[],[],[],[],[],,,,697.733,697.7331,0.053224826,-0.398554688,0,0,0,,0,159,159,134,1,1,word,QUALIFY,cursive,qualify_c.png,,,
,,,,31096,001,2025-10-19_19h07.28.808,HW_LDT_1,2024.2.4,MacIntel,61.72839506,,,,,,,,,,,,,,,,,,,,,,,,,,,,,,,,,,,,,,,,,,,,,,,,,,,,,,,,,,,,,,,,,,,,,,,,,,,,,,,,,,,,,,,,,,,,,,,,,,,,,,,,,,,,,,,,,,,697.7495,702.7338
