counterbalance_lists.group,counterbalance_lists.remaining,get_list.started,get_list.stopped,participant,session,date,expName,psychopyVersion,OS,frameRate,Instructions.started,Instructions.stopped,key_resp.keys,key_resp.rt,key_resp.duration,instr_done_touch.x,instr_done_touch.y,instr_done_touch.leftButton,instr_done_touch.midButton,instr_done_touch.rightButton,instr_done_touch.clicked_name,start_instr.thisRepN,start_instr.thisTrialN,start_instr.thisN,start_instr.thisIndex,start_instr.ran,pageN,phase,instruct_text,has_image,instruct_image,showProgress.started,showProgress.stopped,fix.started,fix.stopped,prac.started,prac.stopped,response.keys,response.corr,response.rt,response.duration,touch_resp.x,touch_resp.y,touch_resp.leftButton,touch_resp.midButton,touch_resp.rightButton,touch_resp.time,touch_resp.clicked_name,rt,corr,feedback.started,feedback.stopped,trials.thisRepN,trials.thisTrialN,trials.thisN,trials.thisIndex,trials.ran,TrialID,StimulusType,Condition,PrimeDuration,Prime,Target,corrAns,Instructions_expt.started,Instructions_expt.stopped,key_resp_3.keys,key_resp_3.rt,key_resp_3.duration,instr_done_touch_3.x,instr_done_touch_3.y,instr_done_touch_3.leftButton,instr_done_touch_3.midButton,instr_done_touch_3.rightButton,instr_experiment.thisRepN,instr_experiment.thisTrialN,instr_experiment.thisN,instr_experiment.thisIndex,instr_experiment.ran,trialID,flag,maintask.started,maintask.stopped,key_resp_2.keys,key_resp_2.corr,key_resp_2.rt,key_resp_2.duration,targ_click.x,targ_click.y,targ_click.leftButton,targ_click.midButton,targ_click.rightButton,targ_click.time,targ_click.clicked_name,ITI.started,ITI.stopped,probe.started,probe.stopped,click_probe.x,click_probe.y,click_probe.leftButton,click_probe.midButton,click_probe.rightButton,click_probe.time,click_probe.clicked_name,key_resp_probe.keys,Break.started,Break.stopped,break_done_touch.x,break_done_touch.y,break_done_touch.leftButton,break_done_touch.midButton,break_done_touch.rightButton,break_done_keyboard.keys,list1_trials.thisRepN,list1_trials.thisTrialN,list1_trials.thisN,list1_trials.thisIndex,list1_trials.ran,list_id,item_type,string,font,stim_file,key_resp_probe.rt,key_resp_probe.duration,break_done_keyboard.rt,break_done_keyboard.duration,End.started,End.stopped
list1,,0.4538,0.454,31160,001,2025-10-16_18h46.47.463,HW_LDT_1,2024.2.4,MacIntel,56.81818182,,,,,,,,,,,,,,,,,,,,,,,,,,,,,,,,,,,,,,,,,,,,,,,,,,,,,,,,,,,,,,,,,,,,,,,,,,,,,,,,,,,,,,,,,,,,,,,,,,,,,,,,,,,,,,,,,,,,,,,,
,,,,31160,001,2025-10-16_18h46.47.463,HW_LDT_1,2024.2.4,MacIntel,56.81818182,0.4738,29.4273,space,28.9314,,0.121850347,-0.379641594,0,0,0,,0,0,0,0,1,1,instructions,"INSTRUCTIONS
At the start of each trial, look at the plus sign  (+) in the center of the screen.  This tells you that a trial is about to begin and where to look. Second, the plus sign will disappear and a string of letters will appear. Your task is to determine if the string of letters is a word or not. If the item is a word press the M key (on keyboard)  or touch the word button (phone/tablet).  If the item is not a word,  press the  Z key (on keyboard)  or touch the nonword button (on phone/tablet). The items will be presented for a short time. 
Press the space bar or touch  continue.",0,,,,,,,,,,,,,,,,,,,,,,,,,,,,,,,,,,,,,,,,,,,,,,,,,,,,,,,,,,,,,,,,,,,,,,,,,,,,,,,,,,,,,,,,,,,,,,,,,,,,
,,,,31160,001,2025-10-16_18h46.47.463,HW_LDT_1,2024.2.4,MacIntel,56.81818182,29.4292,34.6089,space,5.1293,,0.121850347,-0.379641594,0,0,0,,0,1,1,1,1,2,instructions,"If your device has a keyboard, press the 'Z' key for nonwords and the 'M' key for words.





Press the space bar or touch the button below to continue.",0,keyboard-example.gif,,,,,,,,,,,,,,,,,,,,,,,,,,,,,,,,,,,,,,,,,,,,,,,,,,,,,,,,,,,,,,,,,,,,,,,,,,,,,,,,,,,,,,,,,,,,,,,,,,,
,,,,31160,001,2025-10-16_18h46.47.463,HW_LDT_1,2024.2.4,MacIntel,56.81818182,34.6105,37.7588,space,3.1216,,0.121850347,-0.379641594,0,0,0,,0,2,2,2,1,3,instructions,"If you are using a touchscreen only device, use the buttons on the screen. Do not use the mouse.





Press the space bar or touch the button below to continue.",0,touchscreen-example.gif,,,,,,,,,,,,,,,,,,,,,,,,,,,,,,,,,,,,,,,,,,,,,,,,,,,,,,,,,,,,,,,,,,,,,,,,,,,,,,,,,,,,,,,,,,,,,,,,,,,
,,,,31160,001,2025-10-16_18h46.47.463,HW_LDT_1,2024.2.4,MacIntel,56.81818182,37.7612,53.3252,space,15.5415,,0.121850347,-0.379641594,0,0,0,,0,3,3,3,1,4,instructions,"It is very important that you respond as quickly and accurately as possible, as each letter string will only be on the screen for two seconds. If you do not respond within this time, the message 'Too slow!' will be displayed and the experiment will progress to the next letter string. The first 20 trials will be practice trials and you will receive feedback on your answers. 

Press the space bar or touch the button below to start the practice trials.",0,,,,,,,,,,,,,,,,,,,,,,,,,,,,,,,,,,,,,,,,,,,,,,,,,,,,,,,,,,,,,,,,,,,,,,,,,,,,,,,,,,,,,,,,,,,,,,,,,,,,
,,,,31160,001,2025-10-16_18h46.47.463,HW_LDT_1,2024.2.4,MacIntel,56.81818182,,,,,,,,,,,,,,,,,,,,,,53.356,53.5261,53.5264,54.0248,54.0249,56.2917,z,1,2.2505,,[],[],[],[],[],[],[],2.2505,1,56.2922,56.7926,0,0,0,9,1,1010,NW,"ID",33,fariny,FARINY,z,,,,,,,,,,,,,,,,,,,,,,,,,,,,,,,,,,,,,,,,,,,,,,,,,,,,,,,,,,,,,,,,,,
,,,,31160,001,2025-10-16_18h46.47.463,HW_LDT_1,2024.2.4,MacIntel,56.81818182,,,,,,,,,,,,,,,,,,,,,,56.7944,56.9904,56.9905,57.491,57.4926,58.874,m,1,1.355,,[],[],[],[],[],[],[],1.355,1,58.8741,59.374,0,1,1,5,1,1006,WORD,UN,33,frenzy,OBTAIN,m,,,,,,,,,,,,,,,,,,,,,,,,,,,,,,,,,,,,,,,,,,,,,,,,,,,,,,,,,,,,,,,,,,
,,,,31160,001,2025-10-16_18h46.47.463,HW_LDT_1,2024.2.4,MacIntel,56.81818182,,,,,,,,,,,,,,,,,,,,,,59.3748,59.5753,59.5755,60.0751,60.0764,60.8086,m,1,0.7156,,[],[],[],[],[],[],[],0.7156,1,60.8088,61.3077,0,2,2,6,1,1007,WORD,UN,16,tropic,ZOMBIE,m,,,,,,,,,,,,,,,,,,,,,,,,,,,,,,,,,,,,,,,,,,,,,,,,,,,,,,,,,,,,,,,,,,
,,,,31160,001,2025-10-16_18h46.47.463,HW_LDT_1,2024.2.4,MacIntel,56.81818182,,,,,,,,,,,,,,,,,,,,,,61.3091,61.5089,61.5093,62.0087,62.0097,62.9414,z,1,0.9143,,[],[],[],[],[],[],[],0.9143,1,62.9416,63.4419,0,3,3,14,1,1015,NW,UN,16,miaber,THRALE,z,,,,,,,,,,,,,,,,,,,,,,,,,,,,,,,,,,,,,,,,,,,,,,,,,,,,,,,,,,,,,,,,,,
,,,,31160,001,2025-10-16_18h46.47.463,HW_LDT_1,2024.2.4,MacIntel,56.81818182,,,,,,,,,,,,,,,,,,,,,,63.4435,63.6409,63.6409,64.1413,64.1424,64.7912,m,1,0.6316,,[],[],[],[],[],[],[],0.6316,1,64.7914,65.292,0,4,4,2,1,1003,WORD,"ID",16,almond,ALMOND,m,,,,,,,,,,,,,,,,,,,,,,,,,,,,,,,,,,,,,,,,,,,,,,,,,,,,,,,,,,,,,,,,,,
,,,,31160,001,2025-10-16_18h46.47.463,HW_LDT_1,2024.2.4,MacIntel,56.81818182,,,,,,,,,,,,,,,,,,,,,,65.2934,65.4918,65.4919,65.991,65.992,67.142,z,1,1.1282,,[],[],[],[],[],[],[],1.1282,1,67.1422,67.641,0,5,5,10,1,1011,NW,"ID",16,inlade,INLADE,z,,,,,,,,,,,,,,,,,,,,,,,,,,,,,,,,,,,,,,,,,,,,,,,,,,,,,,,,,,,,,,,,,,
,,,,31160,001,2025-10-16_18h46.47.463,HW_LDT_1,2024.2.4,MacIntel,56.81818182,,,,,,,,,,,,,,,,,,,,,,67.6426,67.8416,67.8417,68.3417,68.3426,69.1585,z,1,0.7902,,[],[],[],[],[],[],[],0.7902,1,69.1586,69.6575,0,6,6,15,1,1016,NW,UN,16,mushed,WHAISE,z,,,,,,,,,,,,,,,,,,,,,,,,,,,,,,,,,,,,,,,,,,,,,,,,,,,,,,,,,,,,,,,,,,
,,,,31160,001,2025-10-16_18h46.47.463,HW_LDT_1,2024.2.4,MacIntel,56.81818182,,,,,,,,,,,,,,,,,,,,,,69.6591,69.8571,69.8571,70.3576,70.3586,71.0253,m,1,0.6564,,[],[],[],[],[],[],[],0.6564,1,71.0255,71.5249,0,7,7,7,1,1008,WORD,UN,16,hurdle,VOLUME,m,,,,,,,,,,,,,,,,,,,,,,,,,,,,,,,,,,,,,,,,,,,,,,,,,,,,,,,,,,,,,,,,,,
,,,,31160,001,2025-10-16_18h46.47.463,HW_LDT_1,2024.2.4,MacIntel,56.81818182,,,,,,,,,,,,,,,,,,,,,,71.5256,71.7243,71.7243,72.2243,72.2255,72.9421,z,1,0.7034,,[],[],[],[],[],[],[],0.7034,1,72.9421,73.4408,0,8,8,12,1,1013,NW,UN,33,adveil,SPRINY,z,,,,,,,,,,,,,,,,,,,,,,,,,,,,,,,,,,,,,,,,,,,,,,,,,,,,,,,,,,,,,,,,,,
,,,,31160,001,2025-10-16_18h46.47.463,HW_LDT_1,2024.2.4,MacIntel,56.81818182,,,,,,,,,,,,,,,,,,,,,,73.4416,73.6419,73.642,74.1416,74.1426,74.7412,m,1,0.5785,,[],[],[],[],[],[],[],0.5785,1,74.7413,75.2419,0,9,9,1,1,1002,WORD,"ID",33,adjust,ADJUST,m,,,,,,,,,,,,,,,,,,,,,,,,,,,,,,,,,,,,,,,,,,,,,,,,,,,,,,,,,,,,,,,,,,
,,,,31160,001,2025-10-16_18h46.47.463,HW_LDT_1,2024.2.4,MacIntel,56.81818182,,,,,,,,,,,,,,,,,,,,,,75.2432,75.4415,75.4416,75.9417,75.943,76.7245,z,1,0.766,,[],[],[],[],[],[],[],0.766,1,76.7246,77.2253,0,10,10,8,1,1009,NW,"ID",33,aslert,ASLERT,z,,,,,,,,,,,,,,,,,,,,,,,,,,,,,,,,,,,,,,,,,,,,,,,,,,,,,,,,,,,,,,,,,,
,,,,31160,001,2025-10-16_18h46.47.463,HW_LDT_1,2024.2.4,MacIntel,56.81818182,,,,,,,,,,,,,,,,,,,,,,77.2269,77.4251,77.4252,77.925,77.926,78.7239,z,1,0.7775,,[],[],[],[],[],[],[],0.7775,1,78.724,79.2251,0,11,11,11,1,1012,NW,"ID",16,rashet,RASHET,z,,,,,,,,,,,,,,,,,,,,,,,,,,,,,,,,,,,,,,,,,,,,,,,,,,,,,,,,,,,,,,,,,,
,,,,31160,001,2025-10-16_18h46.47.463,HW_LDT_1,2024.2.4,MacIntel,56.81818182,,,,,,,,,,,,,,,,,,,,,,79.2264,79.424,79.424,79.9244,79.9255,80.7076,m,1,0.7591,,[],[],[],[],[],[],[],0.7591,1,80.7078,81.2084,0,12,12,0,1,1001,WORD,"ID",33,utopia,UTOPIA,m,,,,,,,,,,,,,,,,,,,,,,,,,,,,,,,,,,,,,,,,,,,,,,,,,,,,,,,,,,,,,,,,,,
,,,,31160,001,2025-10-16_18h46.47.463,HW_LDT_1,2024.2.4,MacIntel,56.81818182,,,,,,,,,,,,,,,,,,,,,,81.2099,81.4084,81.4084,81.9087,81.9096,82.4582,m,1,0.5358,,[],[],[],[],[],[],[],0.5358,1,82.4582,82.9587,0,13,13,4,1,1005,WORD,UN,33,abound,SQUEAK,m,,,,,,,,,,,,,,,,,,,,,,,,,,,,,,,,,,,,,,,,,,,,,,,,,,,,,,,,,,,,,,,,,,
,,,,31160,001,2025-10-16_18h46.47.463,HW_LDT_1,2024.2.4,MacIntel,56.81818182,,,,,,,,,,,,,,,,,,,,,,82.9602,83.1584,83.1585,83.6575,83.6586,84.3575,m,1,0.6773,,[],[],[],[],[],[],[],0.6773,1,84.3576,84.8585,0,14,14,3,1,1004,WORD,"ID",16,matrix,MATRIX,m,,,,,,,,,,,,,,,,,,,,,,,,,,,,,,,,,,,,,,,,,,,,,,,,,,,,,,,,,,,,,,,,,,
,,,,31160,001,2025-10-16_18h46.47.463,HW_LDT_1,2024.2.4,MacIntel,56.81818182,,,,,,,,,,,,,,,,,,,,,,84.8603,85.0585,85.0585,85.5581,85.5585,86.241,z,1,0.6661,,[],[],[],[],[],[],[],0.6661,1,86.2411,86.741,0,15,15,13,1,1014,NW,UN,33,winfer,ROUPET,z,,,,,,,,,,,,,,,,,,,,,,,,,,,,,,,,,,,,,,,,,,,,,,,,,,,,,,,,,,,,,,,,,,
,,,,31160,001,2025-10-16_18h46.47.463,HW_LDT_1,2024.2.4,MacIntel,56.81818182,,,,,,,,,,,,,,,,,1,end_of_practice,"You have completed the practice trials. During the experimental trials, you will not receive feedback. On some trials you will be asked to report whether the item you just saw was in cursive or print. 
Before you begin, please ensure that you are in a comfortable and quiet location and will not be disturbed for about 15 minutes, as we cannot use your data if you do not complete all the trials. 
 When you are ready to start the experimental trials, please press space or touch the button below.",,,,,,,,,,,,,,,,,,,,,,,,,,,,,,,,,,,,86.7483,91.6764,space,4.8971,,0.121850347,-0.379641594,0,0,0,0,0,0,0,1,,,,,,,,,,,,,,,,,,,,,,,,,,,,,,,,,,,,,,,,,,,,,,,,,,,
,,,,31160,001,2025-10-16_18h46.47.463,HW_LDT_1,2024.2.4,MacIntel,56.81818182,,,,,,,,,,,,,,,,,,,,,,91.6879,91.8749,91.875,92.3751,,,,,,,,,,,,,,1.3682,1,,,,,,,,,,,,,,z,,,,,,,,,,,,,,,,1,0,92.3769,93.7575,z,1,1.3682,,[],[],[],[],[],[],[],93.7576,95.7588,95.759,95.7615,[],[],[],[],[],[],[],,95.7617,95.7633,0.121850347,-0.379641594,0,0,0,,0,0,0,4,1,1,RL,carminal,print,carminal_p.png,,,,,,
,,,,31160,001,2025-10-16_18h46.47.463,HW_LDT_1,2024.2.4,MacIntel,56.81818182,,,,,,,,,,,,,,,,,,,,,,95.7642,95.9583,95.9583,96.4582,,,,,,,,,,,,,,1.6208,0,,,,,,,,,,,,,,z,,,,,,,,,,,,,,,,2,0,96.4589,98.0909,m,0,1.6208,,[],[],[],[],[],[],[],98.091,100.0916,100.0917,100.0921,[],[],[],[],[],[],[],,100.0922,100.0923,0.121850347,-0.379641594,0,0,0,,0,1,1,48,1,1,TL,cemerony,cursive,cemerony_c.png,,,,,,
,,,,31160,001,2025-10-16_18h46.47.463,HW_LDT_1,2024.2.4,MacIntel,56.81818182,,,,,,,,,,,,,,,,,,,,,,100.0937,100.2915,100.2915,100.7918,,,,,,,,,,,,,,0.8228,1,,,,,,,,,,,,,,m,,,,,,,,,,,,,,,,3,0,100.7925,101.6249,m,1,0.8228,,[],[],[],[],[],[],[],101.625,103.6249,103.625,103.6252,[],[],[],[],[],[],[],,103.6253,103.6253,0.121850347,-0.379641594,0,0,0,,0,2,2,91,1,1,word,CARDINAL,print,cardinal_p.png,,,,,,
,,,,31160,001,2025-10-16_18h46.47.463,HW_LDT_1,2024.2.4,MacIntel,56.81818182,,,,,,,,,,,,,,,,,,,,,,103.6264,103.825,103.8251,104.3248,,,,,,,,,,,,,,0.6864,1,,,,,,,,,,,,,,m,,,,,,,,,,,,,,,,4,0,104.3251,105.0237,m,1,0.6864,,[],[],[],[],[],[],[],105.0238,107.025,107.0251,107.0253,[],[],[],[],[],[],[],,107.0255,107.0256,0.121850347,-0.379641594,0,0,0,,0,3,3,131,1,1,word,POPULAR,cursive,popular_c.png,,,,,,
,,,,31160,001,2025-10-16_18h46.47.463,HW_LDT_1,2024.2.4,MacIntel,56.81818182,,,,,,,,,,,,,,,,,,,,,,107.0269,107.2251,107.2252,107.7251,,,,,,,,,,,,,,2.3036,1,,,,,,,,,,,,,,m,,,,,,,,,,,,,,,,5,0,107.7257,110.0415,m,1,2.3036,,[],[],[],[],[],[],[],110.0415,112.0417,112.0418,112.0421,[],[],[],[],[],[],[],,112.0422,112.0423,0.121850347,-0.379641594,0,0,0,,0,4,4,156,1,1,word,TRIBUTE,cursive,tribute_c.png,,,,,,
,,,,31160,001,2025-10-16_18h46.47.463,HW_LDT_1,2024.2.4,MacIntel,56.81818182,,,,,,,,,,,,,,,,,,,,,,112.0434,112.2416,112.2417,112.7416,,,,,,,,,,,,,,0.7864,1,,,,,,,,,,,,,,z,,,,,,,,,,,,,,,,6,0,112.7423,113.5406,z,1,0.7864,,[],[],[],[],[],[],[],113.5406,115.5414,115.5415,115.5418,[],[],[],[],[],[],[],,115.5418,115.5419,0.121850347,-0.379641594,0,0,0,,0,5,5,30,1,1,RL,relone,print,relone_p.png,,,,,,
,,,,31160,001,2025-10-16_18h46.47.463,HW_LDT_1,2024.2.4,MacIntel,56.81818182,,,,,,,,,,,,,,,,,,,,,,115.543,115.7417,115.7418,116.2418,,,,,,,,,,,,,,0.8738,1,,,,,,,,,,,,,,z,,,,,,,,,,,,,,,,7,0,116.2427,117.1252,z,1,0.8738,,[],[],[],[],[],[],[],117.1252,119.1249,119.1251,119.1252,[],[],[],[],[],[],[],,119.1252,119.1254,0.121850347,-0.379641594,0,0,0,,0,6,6,55,1,1,TL,fornute,print,fornute_p.png,,,,,,
,,,,31160,001,2025-10-16_18h46.47.463,HW_LDT_1,2024.2.4,MacIntel,56.81818182,,,,,,,,,,,,,,,,,,,,,,119.1266,119.3249,119.325,119.8249,,,,,,,,,,,,,,0.871,1,,,,,,,,,,,,,,m,,,,,,,,,,,,,,,,8,0,119.8255,120.7084,m,1,0.871,,[],[],[],[],[],[],[],120.7085,122.7082,122.7083,122.7086,[],[],[],[],[],[],[],,122.7086,122.7088,0.121850347,-0.379641594,0,0,0,,0,7,7,153,1,1,word,STOLEN,print,stolen_p.png,,,,,,
,,,,31160,001,2025-10-16_18h46.47.463,HW_LDT_1,2024.2.4,MacIntel,56.81818182,,,,,,,,,,,,,,,,,,,,,,122.7099,122.9083,122.9084,123.4083,,,,,,,,,,,,,,1.753,0,,,,,,,,,,,,,,m,,,,,,,,,,,,,,,,9,0,123.409,125.1747,z,0,1.753,,[],[],[],[],[],[],[],125.1748,127.175,127.175,127.1753,[],[],[],[],[],[],[],,127.1753,127.1755,0.121850347,-0.379641594,0,0,0,,0,8,8,102,1,1,word,DENSITY,cursive,density_c.png,,,,,,
,,,,31160,001,2025-10-16_18h46.47.463,HW_LDT_1,2024.2.4,MacIntel,56.81818182,,,,,,,,,,,,,,,,,,,,,,127.1768,127.374,127.374,127.875,,,,,,,,,,,,,,0.8746,1,,,,,,,,,,,,,,m,,,,,,,,,,,,,,,,10,0,127.8756,128.7584,m,1,0.8746,,[],[],[],[],[],[],[],128.7584,130.7583,130.7584,130.7587,[],[],[],[],[],[],[],,130.7588,130.7589,0.121850347,-0.379641594,0,0,0,,0,9,9,116,1,1,word,MARGINAL,print,marginal_p.png,,,,,,
,,,,31160,001,2025-10-16_18h46.47.463,HW_LDT_1,2024.2.4,MacIntel,56.81818182,,,,,,,,,,,,,,,,,,,,,,130.7603,130.9583,130.9583,131.4584,,,,,,,,,,,,,,0.7052,1,,,,,,,,,,,,,,m,,,,,,,,,,,,,,,,11,0,131.4589,132.175,m,1,0.7052,,[],[],[],[],[],[],[],132.175,134.175,134.175,134.1754,[],[],[],[],[],[],[],,134.1755,134.1757,0.121850347,-0.379641594,0,0,0,,0,10,10,121,1,1,word,MISTAKE,print,mistake_p.png,,,,,,
,,,,31160,001,2025-10-16_18h46.47.463,HW_LDT_1,2024.2.4,MacIntel,56.81818182,,,,,,,,,,,,,,,,,,,,,,134.1771,134.375,134.375,134.875,,,,,,,,,,,,,,0.8048,1,,,,,,,,,,,,,,z,,,,,,,,,,,,,,,,12,0,134.8757,135.6918,z,1,0.8048,,[],[],[],[],[],[],[],135.6919,137.6917,137.6918,137.6919,[],[],[],[],[],[],[],,137.692,137.6922,0.121850347,-0.379641594,0,0,0,,0,11,11,11,1,1,RL,elacodate,print,elacodate_p.png,,,,,,
,,,,31160,001,2025-10-16_18h46.47.463,HW_LDT_1,2024.2.4,MacIntel,56.81818182,,,,,,,,,,,,,,,,,,,,,,137.6936,137.8917,137.8917,138.3917,,,,,,,,,,,,,,0.6319,1,,,,,,,,,,,,,,z,,,,,,,,,,,,,,,,13,0,138.3922,139.0253,z,1,0.6319,,[],[],[],[],[],[],[],139.0253,141.0249,141.0251,141.0252,[],[],[],[],[],[],[],,141.0253,141.0256,0.121850347,-0.379641594,0,0,0,,0,12,12,60,1,1,TL,manire,print,manire_p.png,,,,,,
,,,,31160,001,2025-10-16_18h46.47.463,HW_LDT_1,2024.2.4,MacIntel,56.81818182,,,,,,,,,,,,,,,,,,,,,,141.027,141.225,141.2251,141.725,,,,,,,,,,,,,,1.2029,1,,,,,,,,,,,,,,m,,,,,,,,,,,,,,,,14,0,141.7256,142.9417,m,1,1.2029,,[],[],[],[],[],[],[],142.9417,144.9415,144.9415,144.9417,[],[],[],[],[],[],[],,144.9418,144.942,0.121850347,-0.379641594,0,0,0,,0,13,13,93,1,1,word,CEREMONY,cursive,ceremony_c.png,,,,,,
,,,,31160,001,2025-10-16_18h46.47.463,HW_LDT_1,2024.2.4,MacIntel,56.81818182,,,,,,,,,,,,,,,,,,,,,,144.9432,145.1417,145.1417,145.6416,,,,,,,,,,,,,,0.6484,1,,,,,,,,,,,,,,m,,,,,,,,,,,,,,,,15,0,145.6422,146.2918,m,1,0.6484,,[],[],[],[],[],[],[],146.2919,148.2908,148.2908,148.291,[],[],[],[],[],[],[],,148.291,148.2911,0.121850347,-0.379641594,0,0,0,,0,14,14,138,1,1,word,REFUSAL,print,refusal_p.png,,,,,,
,,,,31160,001,2025-10-16_18h46.47.463,HW_LDT_1,2024.2.4,MacIntel,56.81818182,,,,,,,,,,,,,,,,,,,,,,148.2921,148.4915,148.4916,148.9916,,,,,,,,,,,,,,2.2655,1,,,,,,,,,,,,,,z,,,,,,,,,,,,,,,,16,0,148.9924,151.2587,z,1,2.2655,,[],[],[],[],[],[],[],151.2589,153.2584,153.2585,153.2587,[],[],[],[],[],[],[],,153.2588,153.2588,0.121850347,-0.379641594,0,0,0,,0,15,15,54,1,1,TL,distupe,cursive,distupe_c.png,,,,,,
,,,,31160,001,2025-10-16_18h46.47.463,HW_LDT_1,2024.2.4,MacIntel,56.81818182,,,,,,,,,,,,,,,,,,,,,,153.2599,153.4584,153.4585,153.9583,,,,,,,,,,,,,,0.9406,1,,,,,,,,,,,,,,m,,,,,,,,,,,,,,,,17,0,153.9589,154.9084,m,1,0.9406,,[],[],[],[],[],[],[],154.9085,156.908,156.9081,156.9082,[],[],[],[],[],[],[],,156.9082,156.9084,0.121850347,-0.379641594,0,0,0,,0,16,16,141,1,1,word,RELIGION,cursive,religion_c.png,,,,,,
,,,,31160,001,2025-10-16_18h46.47.463,HW_LDT_1,2024.2.4,MacIntel,56.81818182,,,,,,,,,,,,,,,,,,,,,,156.9093,157.1081,157.1081,157.6084,,,,,,,,,,,,,,0.5486,1,,,,,,,,,,,,,,m,,,,,,,,,,,,,,,,18,1,157.6089,158.1584,m,1,0.5486,,[],[],[],[],[],[],[],158.1585,160.1583,160.1583,170.5587,[],[],[],[],[],[],[],m,170.5588,170.5589,0.121850347,-0.379641594,0,0,0,,0,17,17,114,1,1,word,LOCATE,print,locate_p.png,10.4,,,,,
,,,,31160,001,2025-10-16_18h46.47.463,HW_LDT_1,2024.2.4,MacIntel,56.81818182,,,,,,,,,,,,,,,,,,,,,,170.5595,170.7582,170.7583,171.2582,,,,,,,,,,,,,,1.9539,1,,,,,,,,,,,,,,z,,,,,,,,,,,,,,,,19,0,171.2589,173.2247,z,1,1.9539,,[],[],[],[],[],[],[],173.2248,175.225,175.2252,175.2255,[],[],[],[],[],[],[],,175.2255,175.2258,0.121850347,-0.379641594,0,0,0,,0,18,18,9,1,1,RL,docirant,cursive,docirant_c.png,,,,,,
,,,,31160,001,2025-10-16_18h46.47.463,HW_LDT_1,2024.2.4,MacIntel,56.81818182,,,,,,,,,,,,,,,,,,,,,,175.2273,175.4143,175.4143,175.925,,,,,,,,,,,,,,0.8626,1,,,,,,,,,,,,,,m,,,,,,,,,,,,,,,,20,0,175.9257,176.7913,m,1,0.8626,,[],[],[],[],[],[],[],176.7914,178.7917,178.7918,178.792,[],[],[],[],[],[],[],,178.7921,178.7922,0.121850347,-0.379641594,0,0,0,,0,19,19,152,1,1,word,SPECIMEN,cursive,specimen_c.png,,,,,,
,,,,31160,001,2025-10-16_18h46.47.463,HW_LDT_1,2024.2.4,MacIntel,56.81818182,,,,,,,,,,,,,,,,,,,,,,178.7935,178.9914,178.9915,179.4917,,,,,,,,,,,,,,1.1046,1,,,,,,,,,,,,,,z,,,,,,,,,,,,,,,,21,0,179.4925,180.6082,z,1,1.1046,,[],[],[],[],[],[],[],180.6083,182.6082,182.6082,182.6086,[],[],[],[],[],[],[],,182.6087,182.6088,0.121850347,-0.379641594,0,0,0,,0,20,20,47,1,1,TL,cagetory,print,cagetory_p.png,,,,,,
,,,,31160,001,2025-10-16_18h46.47.463,HW_LDT_1,2024.2.4,MacIntel,56.81818182,,,,,,,,,,,,,,,,,,,,,,182.61,182.8078,182.8078,183.3082,,,,,,,,,,,,,,0.8874,1,,,,,,,,,,,,,,z,,,,,,,,,,,,,,,,22,0,183.3087,184.208,z,1,0.8874,,[],[],[],[],[],[],[],184.2081,186.2082,186.2083,186.2084,[],[],[],[],[],[],[],,186.2085,186.2086,0.121850347,-0.379641594,0,0,0,,0,21,21,78,1,1,TL,vecolity,print,vecolity_p.png,,,,,,
,,,,31160,001,2025-10-16_18h46.47.463,HW_LDT_1,2024.2.4,MacIntel,56.81818182,,,,,,,,,,,,,,,,,,,,,,186.2097,186.4082,186.4082,186.9083,,,,,,,,,,,,,,0.838,1,,,,,,,,,,,,,,z,,,,,,,,,,,,,,,,23,0,186.9094,187.7581,z,1,0.838,,[],[],[],[],[],[],[],187.7582,189.7582,189.7583,189.7585,[],[],[],[],[],[],[],,189.7586,189.7588,0.121850347,-0.379641594,0,0,0,,0,22,22,33,1,1,RL,recile,cursive,recile_c.png,,,,,,
,,,,31160,001,2025-10-16_18h46.47.463,HW_LDT_1,2024.2.4,MacIntel,56.81818182,,,,,,,,,,,,,,,,,,,,,,189.7601,189.9583,189.9583,190.4582,,,,,,,,,,,,,,0.8306,1,,,,,,,,,,,,,,z,,,,,,,,,,,,,,,,24,1,190.4588,191.2912,z,1,0.8306,,[],[],[],[],[],[],[],191.2913,193.2916,193.2917,194.8921,[],[],[],[],[],[],[],m,194.8922,194.8923,0.121850347,-0.379641594,0,0,0,,0,23,23,79,1,1,TL,veretan,print,veretan_p.png,1.5997,,,,,
,,,,31160,001,2025-10-16_18h46.47.463,HW_LDT_1,2024.2.4,MacIntel,56.81818182,,,,,,,,,,,,,,,,,,,,,,194.8937,195.0917,195.0917,195.5915,,,,,,,,,,,,,,1.858,0,,,,,,,,,,,,,,m,,,,,,,,,,,,,,,,25,0,195.5921,197.4581,z,0,1.858,,[],[],[],[],[],[],[],197.4582,199.4582,199.4583,199.4585,[],[],[],[],[],[],[],,199.4586,199.4586,0.121850347,-0.379641594,0,0,0,,0,24,24,119,1,1,word,MEMORY,cursive,memory_c.png,,,,,,
,,,,31160,001,2025-10-16_18h46.47.463,HW_LDT_1,2024.2.4,MacIntel,56.81818182,,,,,,,,,,,,,,,,,,,,,,199.4599,199.6582,199.6582,200.1582,,,,,,,,,,,,,,0.8797,1,,,,,,,,,,,,,,m,,,,,,,,,,,,,,,,26,0,200.1587,201.0416,m,1,0.8797,,[],[],[],[],[],[],[],201.0416,203.0415,203.0416,203.0419,[],[],[],[],[],[],[],,203.0419,203.042,0.121850347,-0.379641594,0,0,0,,0,25,25,130,1,1,word,POLICY,cursive,policy_c.png,,,,,,
,,,,31160,001,2025-10-16_18h46.47.463,HW_LDT_1,2024.2.4,MacIntel,56.81818182,,,,,,,,,,,,,,,,,,,,,,203.0432,203.2416,203.2418,203.7415,,,,,,,,,,,,,,1.9919,1,,,,,,,,,,,,,,z,,,,,,,,,,,,,,,,27,1,203.742,205.7416,z,1,1.9919,,[],[],[],[],[],[],[],205.7416,207.7416,207.7416,209.641,[],[],[],[],[],[],[],z,209.6411,209.6412,0.121850347,-0.379641594,0,0,0,,0,26,26,36,1,1,RL,speniven,cursive,speniven_c.png,1.8975,,,,,
,,,,31160,001,2025-10-16_18h46.47.463,HW_LDT_1,2024.2.4,MacIntel,56.81818182,,,,,,,,,,,,,,,,,,,,,,209.6424,209.8416,209.8416,210.3415,,,,,,,,,,,,,,3.1207,1,,,,,,,,,,,,,,z,,,,,,,,,,,,,,,,28,0,210.3421,213.475,z,1,3.1207,,[],[],[],[],[],[],[],213.4751,215.4749,215.4749,215.4751,[],[],[],[],[],[],[],,215.4752,215.4753,0.121850347,-0.379641594,0,0,0,,0,27,27,58,1,1,TL,incidate,cursive,incidate_c.png,,,,,,
,,,,31160,001,2025-10-16_18h46.47.463,HW_LDT_1,2024.2.4,MacIntel,56.81818182,,,,,,,,,,,,,,,,,,,,,,215.4766,215.675,215.675,216.1749,,,,,,,,,,,,,,1.024,1,,,,,,,,,,,,,,m,,,,,,,,,,,,,,,,29,0,216.1755,217.2081,m,1,1.024,,[],[],[],[],[],[],[],217.2081,219.2082,219.2083,219.2085,[],[],[],[],[],[],[],,219.2086,219.2087,0.121850347,-0.379641594,0,0,0,,0,28,28,127,1,1,word,ORIGINAL,cursive,original_c.png,,,,,,
,,,,31160,001,2025-10-16_18h46.47.463,HW_LDT_1,2024.2.4,MacIntel,56.81818182,,,,,,,,,,,,,,,,,,,,,,219.2101,219.4082,219.4082,219.908,,,,,,,,,,,,,,0.7659,1,,,,,,,,,,,,,,z,,,,,,,,,,,,,,,,30,0,219.9085,220.6755,z,1,0.7659,,[],[],[],[],[],[],[],220.6756,222.6748,222.6749,222.6751,[],[],[],[],[],[],[],,222.6751,222.6754,0.121850347,-0.379641594,0,0,0,,0,29,29,27,1,1,RL,rasibal,print,rasibal_p.png,,,,,,
,,,,31160,001,2025-10-16_18h46.47.463,HW_LDT_1,2024.2.4,MacIntel,56.81818182,,,,,,,,,,,,,,,,,,,,,,222.6765,222.8749,222.875,223.3749,,,,,,,,,,,,,,0.665,1,,,,,,,,,,,,,,m,,,,,,,,,,,,,,,,31,0,223.3756,224.0419,m,1,0.665,,[],[],[],[],[],[],[],224.0421,226.0415,226.0416,226.0418,[],[],[],[],[],[],[],,226.0419,226.042,0.121850347,-0.379641594,0,0,0,,0,30,30,82,1,1,word,AMATEUR,print,amateur_p.png,,,,,,
,,,,31160,001,2025-10-16_18h46.47.463,HW_LDT_1,2024.2.4,MacIntel,56.81818182,,,,,,,,,,,,,,,,,,,,,,226.0435,226.2414,226.2414,226.7415,,,,,,,,,,,,,,2.7584,0,,,,,,,,,,,,,,m,,,,,,,,,,,,,,,,32,1,226.7421,229.5083,z,0,2.7584,,[],[],[],[],[],[],[],229.5084,231.5081,231.5082,232.9083,[],[],[],[],[],[],[],z,232.9084,232.9085,0.121850347,-0.379641594,0,0,0,,0,31,31,129,1,1,word,PARENT,cursive,parent_c.png,1.3986,,,,,
,,,,31160,001,2025-10-16_18h46.47.463,HW_LDT_1,2024.2.4,MacIntel,56.81818182,,,,,,,,,,,,,,,,,,,,,,232.9098,233.1081,233.1081,233.6079,,,,,,,,,,,,,,0.7905,1,,,,,,,,,,,,,,z,,,,,,,,,,,,,,,,33,1,233.6087,234.4085,z,1,0.7905,,[],[],[],[],[],[],[],234.4087,236.4081,236.4081,242.9579,[],[],[],[],[],[],[],m,242.958,242.958,0.121850347,-0.379641594,0,0,0,,0,32,32,16,1,1,RL,marmipal,print,marmipal_p.png,6.5372,,,,,
,,,,31160,001,2025-10-16_18h46.47.463,HW_LDT_1,2024.2.4,MacIntel,56.81818182,,,,,,,,,,,,,,,,,,,,,,242.9592,243.1581,243.1581,243.6583,,,,,,,,,,,,,,0.8643,1,,,,,,,,,,,,,,m,,,,,,,,,,,,,,,,34,0,243.6599,244.5248,m,1,0.8643,,[],[],[],[],[],[],[],244.5248,246.5246,246.5247,246.5247,[],[],[],[],[],[],[],,246.5247,246.5248,0.121850347,-0.379641594,0,0,0,,0,33,33,98,1,1,word,CRIMINAL,print,criminal_p.png,,,,,,
,,,,31160,001,2025-10-16_18h46.47.463,HW_LDT_1,2024.2.4,MacIntel,56.81818182,,,,,,,,,,,,,,,,,,,,,,246.5254,246.7248,246.7248,247.2247,,,,,,,,,,,,,,0.6714,1,,,,,,,,,,,,,,m,,,,,,,,,,,,,,,,35,1,247.2253,247.908,m,1,0.6714,,[],[],[],[],[],[],[],247.908,249.908,249.9081,251.1915,[],[],[],[],[],[],[],m,251.1915,251.1916,0.121850347,-0.379641594,0,0,0,,0,34,34,108,1,1,word,FORTUNE,print,fortune_p.png,1.2829,,,,,
,,,,31160,001,2025-10-16_18h46.47.463,HW_LDT_1,2024.2.4,MacIntel,56.81818182,,,,,,,,,,,,,,,,,,,,,,251.1928,251.3915,251.3915,251.8915,,,,,,,,,,,,,,1.347,1,,,,,,,,,,,,,,m,,,,,,,,,,,,,,,,36,0,251.8922,253.2416,m,1,1.347,,[],[],[],[],[],[],[],253.2417,255.2416,255.2416,255.2418,[],[],[],[],[],[],[],,255.2418,255.242,0.121850347,-0.379641594,0,0,0,,0,35,35,81,1,1,word,ADVISORY,cursive,advisory_c.png,,,,,,
,,,,31160,001,2025-10-16_18h46.47.463,HW_LDT_1,2024.2.4,MacIntel,56.81818182,,,,,,,,,,,,,,,,,,,,,,255.2434,255.4415,255.4415,255.9414,,,,,,,,,,,,,,2.9875,1,,,,,,,,,,,,,,z,,,,,,,,,,,,,,,,37,0,255.942,258.9413,z,1,2.9875,,[],[],[],[],[],[],[],258.9414,260.9412,260.9412,260.9413,[],[],[],[],[],[],[],,260.9413,260.9413,0.121850347,-0.379641594,0,0,0,,0,36,36,26,1,1,RL,quafidy,cursive,quafidy_c.png,,,,,,
,,,,31160,001,2025-10-16_18h46.47.463,HW_LDT_1,2024.2.4,MacIntel,56.81818182,,,,,,,,,,,,,,,,,,,,,,260.9419,261.1414,261.1414,261.6415,,,,,,,,,,,,,,1.1393,1,,,,,,,,,,,,,,m,,,,,,,,,,,,,,,,38,1,261.6446,262.7915,m,1,1.1393,,[],[],[],[],[],[],[],262.7917,264.7915,264.7916,266.1085,[],[],[],[],[],[],[],z,266.1086,266.1088,0.121850347,-0.379641594,0,0,0,,0,37,37,150,1,1,word,SENTIMENT,cursive,sentiment_c.png,1.315,,,,,
,,,,31160,001,2025-10-16_18h46.47.463,HW_LDT_1,2024.2.4,MacIntel,56.81818182,,,,,,,,,,,,,,,,,,,,,,266.1101,266.308,266.3081,266.8082,,,,,,,,,,,,,,0.7301,1,,,,,,,,,,,,,,m,,,,,,,,,,,,,,,,39,1,266.8089,267.5416,m,1,0.7301,,[],[],[],[],[],[],[],267.5416,269.5412,269.5413,270.7083,[],[],[],[],[],[],[],m,270.7085,270.7086,0.121850347,-0.379641594,0,0,0,,0,38,38,106,1,1,word,ELABORATE,print,elaborate_p.png,1.1654,,,,,
,,,,31160,001,2025-10-16_18h46.47.463,HW_LDT_1,2024.2.4,MacIntel,56.81818182,,,,,,,,,,,,,,,,,,,,,,270.7096,270.9081,270.9081,271.4082,,,,,,,,,,,,,,3.8804,1,,,,,,,,,,,,,,z,,,,,,,,,,,,,,,,40,0,271.4087,275.2915,z,1,3.8804,,[],[],[],[],[],[],[],275.2916,277.2915,277.2916,277.2918,[],[],[],[],[],[],[],,277.2919,277.292,0.121850347,-0.379641594,0,0,0,,0,39,39,69,1,1,TL,radiply,cursive,radiply_c.png,,,,,,
,,,,31160,001,2025-10-16_18h46.47.463,HW_LDT_1,2024.2.4,MacIntel,56.81818182,,,,,,,,,,,,,,,,,,,,,,277.2935,277.4915,277.4915,277.9914,,,,,,,,,,,,,,0.9538,1,,,,,,,,,,,,,,z,,,,,,,,,,,,,,,,41,0,277.9919,278.9572,z,1,0.9538,,[],[],[],[],[],[],[],278.9574,280.9582,280.9583,280.9584,[],[],[],[],[],[],[],,280.9586,280.9587,0.121850347,-0.379641594,0,0,0,,0,40,40,12,1,1,RL,ebiwent,print,ebiwent_p.png,,,,,,
,,,,31160,001,2025-10-16_18h46.47.463,HW_LDT_1,2024.2.4,MacIntel,56.81818182,,,,,,,,,,,,,,,,,,,,,,280.9602,281.158,281.158,281.6582,,,,,,,,,,,,,,3.7711,1,,,,,,,,,,,,,,z,,,,,,,,,,,,,,,,42,1,281.6587,285.4414,z,1,3.7711,,[],[],[],[],[],[],[],285.4416,287.4416,287.4416,288.5082,[],[],[],[],[],[],[],z,288.5082,288.5083,0.121850347,-0.379641594,0,0,0,,0,41,41,52,1,1,TL,decilate,cursive,decilate_c.png,1.0549,,,,,
,,,,31160,001,2025-10-16_18h46.47.463,HW_LDT_1,2024.2.4,MacIntel,56.81818182,,,,,,,,,,,,,,,,,,,,,,288.5096,288.7082,288.7083,289.2082,,,,,,,,,,,,,,1.2567,1,,,,,,,,,,,,,,z,,,,,,,,,,,,,,,,43,0,289.2088,290.4744,z,1,1.2567,,[],[],[],[],[],[],[],290.4745,292.4748,292.4748,292.4751,[],[],[],[],[],[],[],,292.4752,292.4754,0.121850347,-0.379641594,0,0,0,,0,42,42,72,1,1,TL,remuse,print,remuse_p.png,,,,,,
,,,,31160,001,2025-10-16_18h46.47.463,HW_LDT_1,2024.2.4,MacIntel,56.81818182,,,,,,,,,,,,,,,,,,,,,,292.4768,292.6748,292.6748,293.1748,,,,,,,,,,,,,,3.9046,0,,,,,,,,,,,,,,m,,,,,,,,,,,,,,,,44,0,293.1754,297.0913,z,0,3.9046,,[],[],[],[],[],[],[],297.0916,299.0914,299.0915,299.0919,[],[],[],[],[],[],[],,299.0919,299.0921,0.121850347,-0.379641594,0,0,0,,0,43,43,110,1,1,word,HERITAGE,cursive,heritage_c.png,,,,,,
,,,,31160,001,2025-10-16_18h46.47.463,HW_LDT_1,2024.2.4,MacIntel,56.81818182,,,,,,,,,,,,,,,,,,,,,,299.0944,299.2914,299.2914,299.7913,,,,,,,,,,,,,,4.1027,0,,,,,,,,,,,,,,m,,,,,,,,,,,,,,,,45,0,299.7921,303.908,z,0,4.1027,,[],[],[],[],[],[],[],303.9081,305.9081,305.9082,305.9085,[],[],[],[],[],[],[],,305.9085,305.9087,0.121850347,-0.379641594,0,0,0,,0,44,44,149,1,1,word,SENATOR,cursive,senator_c.png,,,,,,
,,,,31160,001,2025-10-16_18h46.47.463,HW_LDT_1,2024.2.4,MacIntel,56.81818182,,,,,,,,,,,,,,,,,,,,,,305.91,306.1071,306.1072,306.607,,,,,,,,,,,,,,0.8094,1,,,,,,,,,,,,,,m,,,,,,,,,,,,,,,,46,0,306.6077,307.4242,m,1,0.8094,,[],[],[],[],[],[],[],307.4242,309.4237,309.4238,309.424,[],[],[],[],[],[],[],,309.4241,309.4242,0.121850347,-0.379641594,0,0,0,,0,45,45,120,1,1,word,MILITARY,print,military_p.png,,,,,,
,,,,31160,001,2025-10-16_18h46.47.463,HW_LDT_1,2024.2.4,MacIntel,56.81818182,,,,,,,,,,,,,,,,,,,,,,309.4255,309.6246,309.6247,310.1247,,,,,,,,,,,,,,1.3691,0,,,,,,,,,,,,,,z,,,,,,,,,,,,,,,,47,0,310.1253,311.5072,m,0,1.3691,,[],[],[],[],[],[],[],311.5073,313.5071,313.5071,313.5073,[],[],[],[],[],[],[],,313.5074,313.5075,0.121850347,-0.379641594,0,0,0,,0,46,46,66,1,1,TL,panert,cursive,panert_c.png,,,,,,
,,,,31160,001,2025-10-16_18h46.47.463,HW_LDT_1,2024.2.4,MacIntel,56.81818182,,,,,,,,,,,,,,,,,,,,,,313.5092,313.7082,313.7083,314.2072,,,,,,,,,,,,,,0.8548,1,,,,,,,,,,,,,,z,,,,,,,,,,,,,,,,48,0,314.208,315.0735,z,1,0.8548,,[],[],[],[],[],[],[],315.0736,317.0746,317.0746,317.0748,[],[],[],[],[],[],[],,317.0748,317.0748,0.121850347,-0.379641594,0,0,0,,0,47,47,8,1,1,RL,debave,print,debave_p.png,,,,,,
,,,,31160,001,2025-10-16_18h46.47.463,HW_LDT_1,2024.2.4,MacIntel,56.81818182,,,,,,,,,,,,,,,,,,,,,,317.0757,317.2748,317.275,317.7749,,,,,,,,,,,,,,3.0887,1,,,,,,,,,,,,,,z,,,,,,,,,,,,,,,,49,0,317.7758,320.8765,z,1,3.0887,,[],[],[],[],[],[],[],320.8767,322.8747,322.8747,322.8749,[],[],[],[],[],[],[],,322.8749,322.8751,0.121850347,-0.379641594,0,0,0,,0,48,48,44,1,1,TL,cateferia,cursive,cateferia_c.png,,,,,,
,,,,31160,001,2025-10-16_18h46.47.463,HW_LDT_1,2024.2.4,MacIntel,56.81818182,,,,,,,,,,,,,,,,,,,,,,322.8765,323.0747,323.0747,323.5744,,,,,,,,,,,,,,2.2408,1,,,,,,,,,,,,,,z,,,,,,,,,,,,,,,,50,0,323.5747,325.8252,z,1,2.2408,,[],[],[],[],[],[],[],325.8252,327.8246,327.8247,327.8249,[],[],[],[],[],[],[],,327.825,327.8251,0.121850347,-0.379641594,0,0,0,,0,49,49,74,1,1,TL,setanor,cursive,setanor_c.png,,,,,,
,,,,31160,001,2025-10-16_18h46.47.463,HW_LDT_1,2024.2.4,MacIntel,56.81818182,,,,,,,,,,,,,,,,,,,,,,327.8264,328.0247,328.0248,328.5244,,,,,,,,,,,,,,1.0207,1,,,,,,,,,,,,,,m,,,,,,,,,,,,,,,,51,0,328.5249,329.5579,m,1,1.0207,,[],[],[],[],[],[],[],329.5579,331.558,331.5581,331.5582,[],[],[],[],[],[],[],,331.5583,331.5583,0.121850347,-0.379641594,0,0,0,,0,50,50,104,1,1,word,DOMINANT,cursive,dominant_c.png,,,,,,
,,,,31160,001,2025-10-16_18h46.47.463,HW_LDT_1,2024.2.4,MacIntel,56.81818182,,,,,,,,,,,,,,,,,,,,,,331.5592,331.7581,331.7582,332.2579,,,,,,,,,,,,,,0.6888,0,,,,,,,,,,,,,,z,,,,,,,,,,,,,,,,52,0,332.2583,332.957,m,0,0.6888,,[],[],[],[],[],[],[],332.9571,334.9581,334.9583,334.9584,[],[],[],[],[],[],[],,334.9586,334.9587,0.121850347,-0.379641594,0,0,0,,0,51,51,62,1,1,TL,mitilary,print,mitilary_p.png,,,,,,
,,,,31160,001,2025-10-16_18h46.47.463,HW_LDT_1,2024.2.4,MacIntel,56.81818182,,,,,,,,,,,,,,,,,,,,,,334.9598,335.158,335.158,335.6581,,,,,,,,,,,,,,1.1533,0,,,,,,,,,,,,,,z,,,,,,,,,,,,,,,,53,0,335.6587,336.8235,m,0,1.1533,,[],[],[],[],[],[],[],336.8236,338.8248,338.8248,338.825,[],[],[],[],[],[],[],,338.825,338.8251,0.121850347,-0.379641594,0,0,0,,0,52,52,75,1,1,TL,speficic,cursive,speficic_c.png,,,,,,
,,,,31160,001,2025-10-16_18h46.47.463,HW_LDT_1,2024.2.4,MacIntel,56.81818182,,,,,,,,,,,,,,,,,,,,,,338.8265,339.0247,339.0247,339.5245,,,,,,,,,,,,,,0.766,1,,,,,,,,,,,,,,m,,,,,,,,,,,,,,,,54,0,339.525,340.2917,m,1,0.766,,[],[],[],[],[],[],[],340.2917,342.2905,342.2906,342.2909,[],[],[],[],[],[],[],,342.291,342.291,0.121850347,-0.379641594,0,0,0,,0,53,53,83,1,1,word,ANIMAL,print,animal_p.png,,,,,,
,,,,31160,001,2025-10-16_18h46.47.463,HW_LDT_1,2024.2.4,MacIntel,56.81818182,,,,,,,,,,,,,,,,,,,,,,342.2924,342.4913,342.4914,342.9905,,,,,,,,,,,,,,0.7053,1,,,,,,,,,,,,,,m,,,,,,,,,,,,,,,,55,1,342.9916,343.7082,m,1,0.7053,,[],[],[],[],[],[],[],343.7082,345.7071,345.7071,346.9581,[],[],[],[],[],[],[],m,346.9581,346.9583,0.121850347,-0.379641594,0,0,0,,0,54,54,133,1,1,word,PROVIDE,print,provide_p.png,1.2408,,,,,
,,,,31160,001,2025-10-16_18h46.47.463,HW_LDT_1,2024.2.4,MacIntel,56.81818182,,,,,,,,,,,,,,,,,,,,,,346.9594,347.1581,347.1582,347.6581,,,,,,,,,,,,,,3.0397,1,,,,,,,,,,,,,,z,,,,,,,,,,,,,,,,56,0,347.6587,350.7079,z,1,3.0397,,[],[],[],[],[],[],[],350.708,352.708,352.7081,352.7083,[],[],[],[],[],[],[],,352.7083,352.7085,0.121850347,-0.379641594,0,0,0,,0,55,55,5,1,1,RL,cobeny,cursive,cobeny_c.png,,,,,,
,,,,31160,001,2025-10-16_18h46.47.463,HW_LDT_1,2024.2.4,MacIntel,56.81818182,,,,,,,,,,,,,,,,,,,,,,352.7097,352.9071,352.9071,353.4081,,,,,,,,,,,,,,3.8536,1,,,,,,,,,,,,,,z,,,,,,,,,,,,,,,,57,0,353.4089,357.2747,z,1,3.8536,,[],[],[],[],[],[],[],357.2749,359.2745,359.2746,359.2749,[],[],[],[],[],[],[],,359.2749,359.275,0.121850347,-0.379641594,0,0,0,,0,56,56,38,1,1,RL,stopave,cursive,stopave_c.png,,,,,,
,,,,31160,001,2025-10-16_18h46.47.463,HW_LDT_1,2024.2.4,MacIntel,56.81818182,,,,,,,,,,,,,,,,,,,,,,359.2773,359.4748,359.4748,359.9739,,,,,,,,,,,,,,3.7548,1,,,,,,,,,,,,,,m,,,,,,,,,,,,,,,,58,0,359.9748,363.7406,m,1,3.7548,,[],[],[],[],[],[],[],363.7406,365.7411,365.7412,365.7415,[],[],[],[],[],[],[],,365.7418,365.7418,0.121850347,-0.379641594,0,0,0,,0,57,57,111,1,1,word,INDICATE,cursive,indicate_c.png,,,,,,
,,,,31160,001,2025-10-16_18h46.47.463,HW_LDT_1,2024.2.4,MacIntel,56.81818182,,,,,,,,,,,,,,,,,,,,,,365.7431,365.9404,365.9404,366.4414,,,,,,,,,,,,,,0.8116,1,,,,,,,,,,,,,,m,,,,,,,,,,,,,,,,59,0,366.4422,367.2579,m,1,0.8116,,[],[],[],[],[],[],[],367.2579,369.258,369.2581,369.2583,[],[],[],[],[],[],[],,369.2583,369.2585,0.121850347,-0.379641594,0,0,0,,0,58,58,118,1,1,word,MEDICINE,cursive,medicine_c.png,,,,,,
,,,,31160,001,2025-10-16_18h46.47.463,HW_LDT_1,2024.2.4,MacIntel,56.81818182,,,,,,,,,,,,,,,,,,,,,,369.2597,369.4579,369.458,369.9571,,,,,,,,,,,,,,2.5544,1,,,,,,,,,,,,,,z,,,,,,,,,,,,,,,,60,0,369.9579,372.5247,z,1,2.5544,,[],[],[],[],[],[],[],372.5247,374.5247,374.5247,374.5249,[],[],[],[],[],[],[],,374.525,374.5251,0.121850347,-0.379641594,0,0,0,,0,59,59,0,1,1,RL,abanemy,cursive,abanemy_c.png,,,,,,
,,,,31160,001,2025-10-16_18h46.47.463,HW_LDT_1,2024.2.4,MacIntel,56.81818182,,,,,,,,,,,,,,,,,,,,,,374.5259,374.724,374.7241,375.2237,,,,,,,,,,,,,,0.9223,1,,,,,,,,,,,,,,m,,,,,,,,,,,,,,,,61,0,375.2242,376.1582,m,1,0.9223,,[],[],[],[],[],[],[],376.1583,378.1576,378.1578,378.1583,[],[],[],[],[],[],[],,378.1585,378.1587,0.121850347,-0.379641594,0,0,0,,0,60,60,107,1,1,word,EVIDENT,print,evident_p.png,,,,,,
,,,,31160,001,2025-10-16_18h46.47.463,HW_LDT_1,2024.2.4,MacIntel,56.81818182,,,,,,,,,,,,,,,,,,,,,,378.1613,378.358,378.3581,378.8573,,,,,,,,,,,,,,4.3428,0,,,,,,,,,,,,,,m,,,,,,,,,,,,,,,,62,0,378.8584,383.2071,z,0,4.3428,,[],[],[],[],[],[],[],383.2072,385.2081,385.2081,385.2083,[],[],[],[],[],[],[],,385.2084,385.2084,0.121850347,-0.379641594,0,0,0,,0,61,61,105,1,1,word,EDITOR,cursive,editor_c.png,,,,,,
,,,,31160,001,2025-10-16_18h46.47.463,HW_LDT_1,2024.2.4,MacIntel,56.81818182,,,,,,,,,,,,,,,,,,,,,,385.2098,385.4078,385.4078,385.9079,,,,,,,,,,,,,,2.6799,1,,,,,,,,,,,,,,m,,,,,,,,,,,,,,,,63,0,385.9085,388.5914,m,1,2.6799,,[],[],[],[],[],[],[],388.5916,390.5905,390.5906,390.5909,[],[],[],[],[],[],[],,390.591,390.591,0.121850347,-0.379641594,0,0,0,,0,62,62,88,1,1,word,CAMERA,cursive,camera_c.png,,,,,,
,,,,31160,001,2025-10-16_18h46.47.463,HW_LDT_1,2024.2.4,MacIntel,56.81818182,,,,,,,,,,,,,,,,,,,,,,390.5924,390.7903,390.7903,391.2913,,,,,,,,,,,,,,0.7795,1,,,,,,,,,,,,,,z,,,,,,,,,,,,,,,,64,0,391.2919,392.0738,z,1,0.7795,,[],[],[],[],[],[],[],392.0739,394.0746,394.0748,394.0749,[],[],[],[],[],[],[],,394.075,394.0751,0.121850347,-0.379641594,0,0,0,,0,63,63,43,1,1,TL,bedise,print,bedise_p.png,,,,,,
,,,,31160,001,2025-10-16_18h46.47.463,HW_LDT_1,2024.2.4,MacIntel,56.81818182,,,,,,,,,,,,,,,,,,,,,,394.0765,394.2737,394.2738,394.7738,,,,,,,,,,,,,,0.7977,1,,,,,,,,,,,,,,z,,,,,,,,,,,,,,,,65,0,394.7745,395.5739,z,1,0.7977,,[],[],[],[],[],[],[],395.574,397.5746,397.5747,397.5749,[],[],[],[],[],[],[],,397.5749,397.5751,0.121850347,-0.379641594,0,0,0,,0,64,64,6,1,1,RL,crisival,print,crisival_p.png,,,,,,
,,,,31160,001,2025-10-16_18h46.47.463,HW_LDT_1,2024.2.4,MacIntel,56.81818182,,,,,,,,,,,,,,,,,,,,,,397.5767,397.7748,397.7749,398.2747,,,,,,,,,,,,,,1.2967,1,,,,,,,,,,,,,,m,,,,,,,,,,,,,,,,66,1,398.2752,399.5739,m,1,1.2967,,[],[],[],[],[],[],[],399.5739,401.5747,401.5748,402.9571,[],[],[],[],[],[],[],z,402.9572,402.9574,0.121850347,-0.379641594,0,0,0,,0,65,65,140,1,1,word,RELATIVE,cursive,relative_c.png,1.3709,,,,,
,,,,31160,001,2025-10-16_18h46.47.463,HW_LDT_1,2024.2.4,MacIntel,56.81818182,,,,,,,,,,,,,,,,,,,,,,402.9586,403.1581,403.1581,403.658,,,,,,,,,,,,,,1.7889,1,,,,,,,,,,,,,,m,,,,,,,,,,,,,,,,67,0,403.6587,405.4578,m,1,1.7889,,[],[],[],[],[],[],[],405.4579,407.458,407.4581,407.4582,[],[],[],[],[],[],[],,407.4583,407.4584,0.121850347,-0.379641594,0,0,0,,0,66,66,103,1,1,word,DISPUTE,cursive,dispute_c.png,,,,,,
,,,,31160,001,2025-10-16_18h46.47.463,HW_LDT_1,2024.2.4,MacIntel,56.81818182,,,,,,,,,,,,,,,,,,,,,,407.4599,407.6579,407.6579,408.157,,,,,,,,,,,,,,0.9209,1,,,,,,,,,,,,,,z,,,,,,,,,,,,,,,,68,1,408.1578,409.0913,z,1,0.9209,,[],[],[],[],[],[],[],409.0914,411.0912,411.0913,415.4413,[],[],[],[],[],[],[],z,415.4417,415.4419,0.121850347,-0.379641594,0,0,0,,0,67,67,2,1,1,RL,asiral,print,asiral_p.png,4.3386,,,,,
,,,,31160,001,2025-10-16_18h46.47.463,HW_LDT_1,2024.2.4,MacIntel,56.81818182,,,,,,,,,,,,,,,,,,,,,,415.4437,415.641,415.641,416.1414,,,,,,,,,,,,,,0.8794,1,,,,,,,,,,,,,,z,,,,,,,,,,,,,,,,69,1,416.1431,417.0248,z,1,0.8794,,[],[],[],[],[],[],[],417.0249,419.0247,419.0248,420.2913,[],[],[],[],[],[],[],m,420.2914,420.2915,0.121850347,-0.379641594,0,0,0,,0,68,68,42,1,1,TL,befenit,print,befenit_p.png,1.2644,,,,,
,,,,31160,001,2025-10-16_18h46.47.463,HW_LDT_1,2024.2.4,MacIntel,56.81818182,,,,,,,,,,,,,,,,,,,,,,420.2927,420.4906,420.4906,420.9913,,,,,,,,,,,,,,2.8217,1,,,,,,,,,,,,,,m,,,,,,,,,,,,,,,,70,0,420.9921,423.8239,m,1,2.8217,,[],[],[],[],[],[],[],423.8239,425.8246,425.8246,425.8248,[],[],[],[],[],[],[],,425.8248,425.8249,0.121850347,-0.379641594,0,0,0,,0,69,69,154,1,1,word,STORAGE,cursive,storage_c.png,,,,,,
,,,,31160,001,2025-10-16_18h46.47.463,HW_LDT_1,2024.2.4,MacIntel,56.81818182,,,,,,,,,,,,,,,,,,,,,,425.8262,426.0246,426.0246,426.5246,,,,,,,,,,,,,,1.4314,1,,,,,,,,,,,,,,z,,,,,,,,,,,,,,,,71,0,426.5251,427.9581,z,1,1.4314,,[],[],[],[],[],[],[],427.9583,429.9579,429.9581,429.9584,[],[],[],[],[],[],[],,429.9585,429.9586,0.121850347,-0.379641594,0,0,0,,0,70,70,22,1,1,RL,patisic,print,patisic_p.png,,,,,,
,,,,31160,001,2025-10-16_18h46.47.463,HW_LDT_1,2024.2.4,MacIntel,56.81818182,,,,,,,,,,,,,,,,,,,,,,429.96,430.1579,430.158,430.6574,,,,,,,,,,,,,,0.9879,1,,,,,,,,,,,,,,z,,,,,,,,,,,,,,,,72,0,430.6579,431.6577,z,1,0.9879,,[],[],[],[],[],[],[],431.6579,433.6575,433.6575,433.6577,[],[],[],[],[],[],[],,433.6577,433.6579,0.121850347,-0.379641594,0,0,0,,0,71,71,20,1,1,RL,nunewical,print,nunewical_p.png,,,,,,
,,,,31160,001,2025-10-16_18h46.47.463,HW_LDT_1,2024.2.4,MacIntel,56.81818182,,,,,,,,,,,,,,,,,,,,,,433.6594,433.8578,433.8578,434.358,,,,,,,,,,,,,,0.887,1,,,,,,,,,,,,,,m,,,,,,,,,,,,,,,,73,0,434.3587,435.2574,m,1,0.887,,[],[],[],[],[],[],[],435.2575,437.258,437.258,437.2582,[],[],[],[],[],[],[],,437.2582,437.2584,0.121850347,-0.379641594,0,0,0,,0,72,72,159,1,1,word,VETERAN,print,veteran_p.png,,,,,,
,,,,31160,001,2025-10-16_18h46.47.463,HW_LDT_1,2024.2.4,MacIntel,56.81818182,,,,,,,,,,,,,,,,,,,,,,437.2596,437.4579,437.458,437.958,,,,,,,,,,,,,,1.0744,0,,,,,,,,,,,,,,m,,,,,,,,,,,,,,,,74,1,437.9586,439.0412,z,0,1.0744,,[],[],[],[],[],[],[],439.0413,441.0413,441.0413,444.3086,[],[],[],[],[],[],[],m,444.3086,444.3086,0.121850347,-0.379641594,0,0,0,,0,73,73,86,1,1,word,BESIDE,print,beside_p.png,3.2556,,,,,
,,,,31160,001,2025-10-16_18h46.47.463,HW_LDT_1,2024.2.4,MacIntel,56.81818182,,,,,,,,,,,,,,,,,,,,,,444.3095,444.5078,444.5079,445.008,,,,,,,,,,,,,,1.7053,1,,,,,,,,,,,,,,m,,,,,,,,,,,,,,,,75,0,445.0086,446.7246,m,1,1.7053,,[],[],[],[],[],[],[],446.7246,448.7247,448.7247,448.7249,[],[],[],[],[],[],[],,448.725,448.7251,0.121850347,-0.379641594,0,0,0,,0,74,74,128,1,1,word,PACIFIC,print,pacific_p.png,,,,,,
,,,,31160,001,2025-10-16_18h46.47.463,HW_LDT_1,2024.2.4,MacIntel,56.81818182,,,,,,,,,,,,,,,,,,,,,,448.7264,448.9245,448.9246,449.4246,,,,,,,,,,,,,,0.6926,1,,,,,,,,,,,,,,m,,,,,,,,,,,,,,,,76,0,449.4252,450.1246,m,1,0.6926,,[],[],[],[],[],[],[],450.1247,452.1245,452.1246,452.1247,[],[],[],[],[],[],[],,452.1248,452.125,0.121850347,-0.379641594,0,0,0,,0,75,75,84,1,1,word,BELOVED,print,beloved_p.png,,,,,,
,,,,31160,001,2025-10-16_18h46.47.463,HW_LDT_1,2024.2.4,MacIntel,56.81818182,,,,,,,,,,,,,,,,,,,,,,452.1264,452.3246,452.3246,452.8244,,,,,,,,,,,,,,1.1712,1,,,,,,,,,,,,,,m,,,,,,,,,,,,,,,,77,0,452.8246,454.0076,m,1,1.1712,,[],[],[],[],[],[],[],454.0077,456.008,456.008,456.0083,[],[],[],[],[],[],[],,456.0083,456.0085,0.12320627,-0.38093801,0,0,0,,0,76,76,96,1,1,word,CONSIDER,cursive,consider_c.png,,,,,,
,,,,31160,001,2025-10-16_18h46.47.463,HW_LDT_1,2024.2.4,MacIntel,56.81818182,,,,,,,,,,,,,,,,,,,,,,456.0101,456.2078,456.2079,456.7079,,,,,,,,,,,,,,0.7527,1,,,,,,,,,,,,,,m,,,,,,,,,,,,,,,,78,0,456.7087,457.474,m,1,0.7527,,[],[],[],[],[],[],[],457.4741,459.4746,459.4746,459.4748,[],[],[],[],[],[],[],,459.4749,459.4751,0.12320627,-0.38093801,0,0,0,,0,77,77,100,1,1,word,DECADE,print,decade_p.png,,,,,,
,,,,31160,001,2025-10-16_18h46.47.463,HW_LDT_1,2024.2.4,MacIntel,56.81818182,,,,,,,,,,,,,,,,,,,,,,459.4761,459.6749,459.6749,460.1746,,,,,,,,,,,,,,0.8363,0,,,,,,,,,,,,,,z,,,,,,,,,,,,,,,,79,0,460.1755,461.0243,m,0,0.8363,,[],[],[],[],[],[],[],461.0243,463.025,463.025,463.0252,[],[],[],[],[],[],[],,463.0254,463.0255,0.12320627,-0.38093801,0,0,0,,0,78,78,73,1,1,TL,ronamtic,cursive,ronamtic_c.png,,,,,,
,,,,31160,001,2025-10-16_18h46.47.463,HW_LDT_1,2024.2.4,MacIntel,56.81818182,,,,,,,,,,,,,,,,,,,,,,463.0267,463.2247,463.2248,463.7246,,,,,,,,,,,,,,0.68,1,,,,,,,,,,,,,,m,,,,,,,,,,,,,,,,80,0,463.7253,464.4081,m,1,0.68,,[],[],[],[],[],[],[],464.4082,466.4078,466.4078,466.408,[],[],[],[],[],[],[],,466.408,502.0414,0.12320627,-0.38093801,0,0,0,space,0,79,79,142,1,1,word,REMOTE,print,remote_p.png,,,35.6023,,,
,,,,31160,001,2025-10-16_18h46.47.463,HW_LDT_1,2024.2.4,MacIntel,56.81818182,,,,,,,,,,,,,,,,,,,,,,502.0431,502.2411,502.2412,502.7411,,,,,,,,,,,,,,2.5549,1,,,,,,,,,,,,,,z,,,,,,,,,,,,,,,,81,1,502.7425,505.3083,z,1,2.5549,,[],[],[],[],[],[],[],505.3086,507.3077,507.3078,508.7076,[],[],[],[],[],[],[],z,508.7077,508.7077,0.12320627,-0.38093801,0,0,0,,0,80,80,31,1,1,RL,reconal,cursive,reconal_c.png,1.3885,,,,,
,,,,31160,001,2025-10-16_18h46.47.463,HW_LDT_1,2024.2.4,MacIntel,56.81818182,,,,,,,,,,,,,,,,,,,,,,508.7083,508.8962,508.8962,509.4081,,,,,,,,,,,,,,1.007,1,,,,,,,,,,,,,,m,,,,,,,,,,,,,,,,82,0,509.4086,510.4247,m,1,1.007,,[],[],[],[],[],[],[],510.4248,512.4247,512.4247,512.425,[],[],[],[],[],[],[],,512.425,512.4252,0.114832699,-0.389434848,0,0,0,,0,81,81,148,1,1,word,SALINE,print,saline_p.png,,,,,,
,,,,31160,001,2025-10-16_18h46.47.463,HW_LDT_1,2024.2.4,MacIntel,56.81818182,,,,,,,,,,,,,,,,,,,,,,512.4266,512.6237,512.6237,513.1247,,,,,,,,,,,,,,1.3715,1,,,,,,,,,,,,,,m,,,,,,,,,,,,,,,,83,1,513.1252,514.5082,m,1,1.3715,,[],[],[],[],[],[],[],514.5082,516.507,516.507,517.9747,[],[],[],[],[],[],[],z,517.9748,517.9748,0.114832699,-0.389434848,0,0,0,,0,82,82,146,1,1,word,RETIRE,cursive,retire_c.png,1.4667,,,,,
,,,,31160,001,2025-10-16_18h46.47.463,HW_LDT_1,2024.2.4,MacIntel,56.81818182,,,,,,,,,,,,,,,,,,,,,,517.9758,518.1736,518.1736,518.6746,,,,,,,,,,,,,,1.9702,1,,,,,,,,,,,,,,m,,,,,,,,,,,,,,,,84,0,518.6754,520.6578,m,1,1.9702,,[],[],[],[],[],[],[],520.6578,522.6578,522.6578,522.658,[],[],[],[],[],[],[],,522.6581,522.6583,0.114832699,-0.389434848,0,0,0,,0,83,83,151,1,1,word,SPECIFIC,cursive,specific_c.png,,,,,,
,,,,31160,001,2025-10-16_18h46.47.463,HW_LDT_1,2024.2.4,MacIntel,56.81818182,,,,,,,,,,,,,,,,,,,,,,522.6592,522.8578,522.8579,523.3578,,,,,,,,,,,,,,1.0052,1,,,,,,,,,,,,,,m,,,,,,,,,,,,,,,,85,0,523.3583,524.3742,m,1,1.0052,,[],[],[],[],[],[],[],524.3742,526.3744,526.3745,526.3747,[],[],[],[],[],[],[],,526.3747,526.3747,0.114832699,-0.389434848,0,0,0,,0,84,84,94,1,1,word,CLINICAL,cursive,clinical_c.png,,,,,,
,,,,31160,001,2025-10-16_18h46.47.463,HW_LDT_1,2024.2.4,MacIntel,56.81818182,,,,,,,,,,,,,,,,,,,,,,526.3753,526.5746,526.5746,527.0742,,,,,,,,,,,,,,0.6994,1,,,,,,,,,,,,,,m,,,,,,,,,,,,,,,,86,0,527.0744,527.7743,m,1,0.6994,,[],[],[],[],[],[],[],527.7744,529.7745,529.7746,529.7749,[],[],[],[],[],[],[],,529.775,529.7751,0.114832699,-0.389434848,0,0,0,,0,85,85,157,1,1,word,VALIDITY,cursive,validity_c.png,,,,,,
,,,,31160,001,2025-10-16_18h46.47.463,HW_LDT_1,2024.2.4,MacIntel,56.81818182,,,,,,,,,,,,,,,,,,,,,,529.7766,529.9736,529.9736,530.4746,,,,,,,,,,,,,,0.6579,1,,,,,,,,,,,,,,m,,,,,,,,,,,,,,,,87,0,530.4752,531.1413,m,1,0.6579,,[],[],[],[],[],[],[],531.1414,533.1403,533.1403,533.1405,[],[],[],[],[],[],[],,533.1406,533.1407,0.114832699,-0.389434848,0,0,0,,0,86,86,99,1,1,word,DEBATE,print,debate_p.png,,,,,,
,,,,31160,001,2025-10-16_18h46.47.463,HW_LDT_1,2024.2.4,MacIntel,56.81818182,,,,,,,,,,,,,,,,,,,,,,533.1421,533.3414,533.3415,533.8399,,,,,,,,,,,,,,2.7866,1,,,,,,,,,,,,,,m,,,,,,,,,,,,,,,,88,0,533.8403,536.64,m,1,2.7866,,[],[],[],[],[],[],[],536.6401,538.6409,538.6409,538.6435,[],[],[],[],[],[],[],,538.6438,538.6444,0.114832699,-0.389434848,0,0,0,,0,87,87,87,1,1,word,CAFETERIA,cursive,cafeteria_c.png,,,,,,
,,,,31160,001,2025-10-16_18h46.47.463,HW_LDT_1,2024.2.4,MacIntel,56.81818182,,,,,,,,,,,,,,,,,,,,,,538.655,538.8434,538.8435,539.3408,,,,,,,,,,,,,,0.6918,0,,,,,,,,,,,,,,z,,,,,,,,,,,,,,,,89,0,539.3427,540.0402,m,0,0.6918,,[],[],[],[],[],[],[],540.0403,542.0402,542.0403,542.0406,[],[],[],[],[],[],[],,542.0407,542.0408,0.114832699,-0.389434848,0,0,0,,0,88,88,61,1,1,TL,mecidine,cursive,mecidine_c.png,,,,,,
,,,,31160,001,2025-10-16_18h46.47.463,HW_LDT_1,2024.2.4,MacIntel,56.81818182,,,,,,,,,,,,,,,,,,,,,,542.0423,542.2411,542.2412,542.74,,,,,,,,,,,,,,0.805,1,,,,,,,,,,,,,,z,,,,,,,,,,,,,,,,90,0,542.7403,543.5568,z,1,0.805,,[],[],[],[],[],[],[],543.5568,545.5578,545.5578,545.5579,[],[],[],[],[],[],[],,545.558,545.558,0.114832699,-0.389434848,0,0,0,,0,89,89,51,1,1,TL,corevage,print,corevage_p.png,,,,,,
,,,,31160,001,2025-10-16_18h46.47.463,HW_LDT_1,2024.2.4,MacIntel,56.81818182,,,,,,,,,,,,,,,,,,,,,,545.559,545.7571,545.7572,546.2579,,,,,,,,,,,,,,2.0383,1,,,,,,,,,,,,,,m,,,,,,,,,,,,,,,,91,0,546.259,548.3087,m,1,2.0383,,[],[],[],[],[],[],[],548.3087,550.3078,550.3079,550.3079,[],[],[],[],[],[],[],,550.308,550.3081,0.114832699,-0.389434848,0,0,0,,0,90,90,155,1,1,word,STRATEGY,cursive,strategy_c.png,,,,,,
,,,,31160,001,2025-10-16_18h46.47.463,HW_LDT_1,2024.2.4,MacIntel,56.81818182,,,,,,,,,,,,,,,,,,,,,,550.3092,550.5077,550.5078,551.0069,,,,,,,,,,,,,,3.1659,1,,,,,,,,,,,,,,z,,,,,,,,,,,,,,,,92,0,551.0073,554.1741,z,1,3.1659,,[],[],[],[],[],[],[],554.1741,556.1743,556.1743,556.1744,[],[],[],[],[],[],[],,556.1745,556.1745,0.114832699,-0.389434848,0,0,0,,0,91,91,76,1,1,TL,stragety,cursive,stragety_c.png,,,,,,
,,,,31160,001,2025-10-16_18h46.47.463,HW_LDT_1,2024.2.4,MacIntel,56.81818182,,,,,,,,,,,,,,,,,,,,,,556.1753,556.3736,556.3736,556.8745,,,,,,,,,,,,,,0.8151,1,,,,,,,,,,,,,,m,,,,,,,,,,,,,,,,93,0,556.8748,557.6912,m,1,0.8151,,[],[],[],[],[],[],[],557.6914,559.6907,559.6908,559.6909,[],[],[],[],[],[],[],,559.691,559.6911,0.114832699,-0.389434848,0,0,0,,0,92,92,90,1,1,word,CAPITAL,print,capital_p.png,,,,,,
,,,,31160,001,2025-10-16_18h46.47.463,HW_LDT_1,2024.2.4,MacIntel,56.81818182,,,,,,,,,,,,,,,,,,,,,,559.6925,559.8912,559.8912,560.3912,,,,,,,,,,,,,,0.8223,1,,,,,,,,,,,,,,m,,,,,,,,,,,,,,,,94,0,560.3919,561.2236,m,1,0.8223,,[],[],[],[],[],[],[],561.2237,563.2245,563.2246,563.2248,[],[],[],[],[],[],[],,563.2249,563.225,0.114832699,-0.389434848,0,0,0,,0,93,93,124,1,1,word,NUMERICAL,print,numerical_p.png,,,,,,
,,,,31160,001,2025-10-16_18h46.47.463,HW_LDT_1,2024.2.4,MacIntel,56.81818182,,,,,,,,,,,,,,,,,,,,,,563.2265,563.4235,563.4237,563.9236,,,,,,,,,,,,,,1.7074,1,,,,,,,,,,,,,,z,,,,,,,,,,,,,,,,95,0,563.9244,565.6415,z,1,1.7074,,[],[],[],[],[],[],[],565.6415,567.641,567.6411,567.6414,[],[],[],[],[],[],[],,567.6414,567.6415,0.114832699,-0.389434848,0,0,0,,0,94,94,39,1,1,RL,vabifity,cursive,vabifity_c.png,,,,,,
,,,,31160,001,2025-10-16_18h46.47.463,HW_LDT_1,2024.2.4,MacIntel,56.81818182,,,,,,,,,,,,,,,,,,,,,,567.643,567.8411,567.8411,568.3408,,,,,,,,,,,,,,0.9833,1,,,,,,,,,,,,,,m,,,,,,,,,,,,,,,,96,0,568.3411,569.325,m,1,0.9833,,[],[],[],[],[],[],[],569.3251,571.3245,571.3246,571.3247,[],[],[],[],[],[],[],,571.3247,571.3248,0.114832699,-0.389434848,0,0,0,,0,95,95,143,1,1,word,REMOVAL,cursive,removal_c.png,,,,,,
,,,,31160,001,2025-10-16_18h46.47.463,HW_LDT_1,2024.2.4,MacIntel,56.81818182,,,,,,,,,,,,,,,,,,,,,,571.326,571.5235,571.5236,572.0245,,,,,,,,,,,,,,0.8647,1,,,,,,,,,,,,,,m,,,,,,,,,,,,,,,,97,0,572.0253,572.8912,m,1,0.8647,,[],[],[],[],[],[],[],572.8913,574.8911,574.8912,574.8913,[],[],[],[],[],[],[],,574.8914,574.8914,0.114832699,-0.389434848,0,0,0,,0,96,96,158,1,1,word,VELOCITY,print,velocity_p.png,,,,,,
,,,,31160,001,2025-10-16_18h46.47.463,HW_LDT_1,2024.2.4,MacIntel,56.81818182,,,,,,,,,,,,,,,,,,,,,,574.8927,575.0912,575.0913,575.5902,,,,,,,,,,,,,,0.6716,1,,,,,,,,,,,,,,m,,,,,,,,,,,,,,,,98,0,575.5908,576.2737,m,1,0.6716,,[],[],[],[],[],[],[],576.2737,578.2747,578.2749,578.2751,[],[],[],[],[],[],[],,578.2752,578.2753,0.114832699,-0.389434848,0,0,0,,0,97,97,95,1,1,word,COMEDY,cursive,comedy_c.png,,,,,,
,,,,31160,001,2025-10-16_18h46.47.463,HW_LDT_1,2024.2.4,MacIntel,56.81818182,,,,,,,,,,,,,,,,,,,,,,578.2769,578.4745,578.4745,578.9746,,,,,,,,,,,,,,0.8197,1,,,,,,,,,,,,,,z,,,,,,,,,,,,,,,,99,0,578.9754,579.8077,z,1,0.8197,,[],[],[],[],[],[],[],579.8077,581.8074,581.8074,581.8076,[],[],[],[],[],[],[],,581.8076,581.8076,0.114832699,-0.389434848,0,0,0,,0,98,98,18,1,1,RL,mishafe,print,mishafe_p.png,,,,,,
,,,,31160,001,2025-10-16_18h46.47.463,HW_LDT_1,2024.2.4,MacIntel,56.81818182,,,,,,,,,,,,,,,,,,,,,,581.8081,582.0074,582.0074,582.5078,,,,,,,,,,,,,,1.4584,1,,,,,,,,,,,,,,m,,,,,,,,,,,,,,,,100,0,582.5087,583.9743,m,1,1.4584,,[],[],[],[],[],[],[],583.9744,585.9737,585.9737,585.9739,[],[],[],[],[],[],[],,585.974,585.9741,0.114832699,-0.389434848,0,0,0,,0,99,99,122,1,1,word,MOBILE,cursive,mobile_c.png,,,,,,
,,,,31160,001,2025-10-16_18h46.47.463,HW_LDT_1,2024.2.4,MacIntel,56.81818182,,,,,,,,,,,,,,,,,,,,,,585.9757,586.1736,586.1737,586.6745,,,,,,,,,,,,,,3.7853,1,,,,,,,,,,,,,,z,,,,,,,,,,,,,,,,101,0,586.6752,590.4743,z,1,3.7853,,[],[],[],[],[],[],[],590.4743,592.4735,592.4736,592.4737,[],[],[],[],[],[],[],,592.4737,592.4739,0.114832699,-0.389434848,0,0,0,,0,100,100,15,1,1,RL,losipal,cursive,losipal_c.png,,,,,,
,,,,31160,001,2025-10-16_18h46.47.463,HW_LDT_1,2024.2.4,MacIntel,56.81818182,,,,,,,,,,,,,,,,,,,,,,592.4754,592.6743,592.6743,593.1736,,,,,,,,,,,,,,0.7781,1,,,,,,,,,,,,,,m,,,,,,,,,,,,,,,,102,0,593.1743,593.9578,m,1,0.7781,,[],[],[],[],[],[],[],593.958,595.9579,595.9579,595.9584,[],[],[],[],[],[],[],,595.9585,595.9587,0.114832699,-0.389434848,0,0,0,,0,101,101,144,1,1,word,RESIDENT,print,resident_p.png,,,,,,
,,,,31160,001,2025-10-16_18h46.47.463,HW_LDT_1,2024.2.4,MacIntel,56.81818182,,,,,,,,,,,,,,,,,,,,,,595.9614,596.157,596.157,596.6579,,,,,,,,,,,,,,0.8234,0,,,,,,,,,,,,,,z,,,,,,,,,,,,,,,,103,1,596.6588,597.4909,m,0,0.8234,,[],[],[],[],[],[],[],597.4909,599.4911,599.4913,600.9911,[],[],[],[],[],[],[],z,600.9911,600.9912,0.114832699,-0.389434848,0,0,0,,0,102,102,65,1,1,TL,orinigal,cursive,orinigal_c.png,1.4897,,,,,
,,,,31160,001,2025-10-16_18h46.47.463,HW_LDT_1,2024.2.4,MacIntel,56.81818182,,,,,,,,,,,,,,,,,,,,,,600.992,601.1903,601.1903,601.6911,,,,,,,,,,,,,,0.913,1,,,,,,,,,,,,,,z,,,,,,,,,,,,,,,,104,0,601.6918,602.6079,z,1,0.913,,[],[],[],[],[],[],[],602.608,604.6067,604.6068,604.6069,[],[],[],[],[],[],[],,604.6069,604.6071,0.114832699,-0.389434848,0,0,0,,0,103,103,70,1,1,TL,relugar,print,relugar_p.png,,,,,,
,,,,31160,001,2025-10-16_18h46.47.463,HW_LDT_1,2024.2.4,MacIntel,56.81818182,,,,,,,,,,,,,,,,,,,,,,604.6083,604.8078,604.8078,605.3078,,,,,,,,,,,,,,3.3374,1,,,,,,,,,,,,,,z,,,,,,,,,,,,,,,,105,0,605.3085,608.6575,z,1,3.3374,,[],[],[],[],[],[],[],608.6575,610.6576,610.6577,610.6578,[],[],[],[],[],[],[],,610.6578,610.6579,0.114832699,-0.389434848,0,0,0,,0,104,104,53,1,1,TL,dentisy,cursive,dentisy_c.png,,,,,,
,,,,31160,001,2025-10-16_18h46.47.463,HW_LDT_1,2024.2.4,MacIntel,56.81818182,,,,,,,,,,,,,,,,,,,,,,610.6585,610.857,610.857,611.3578,,,,,,,,,,,,,,0.9513,1,,,,,,,,,,,,,,m,,,,,,,,,,,,,,,,106,0,611.3603,612.3242,m,1,0.9513,,[],[],[],[],[],[],[],612.3243,614.3243,614.3243,614.3245,[],[],[],[],[],[],[],,614.3246,614.3246,0.114832699,-0.389434848,0,0,0,,0,105,105,92,1,1,word,CATEGORY,print,category_p.png,,,,,,
,,,,31160,001,2025-10-16_18h46.47.463,HW_LDT_1,2024.2.4,MacIntel,56.81818182,,,,,,,,,,,,,,,,,,,,,,614.3257,614.5243,614.5243,615.024,,,,,,,,,,,,,,4.7307,1,,,,,,,,,,,,,,z,,,,,,,,,,,,,,,,107,0,615.0247,619.7576,z,1,4.7307,,[],[],[],[],[],[],[],619.7577,621.7569,621.757,621.7572,[],[],[],[],[],[],[],,621.7572,621.7574,0.114832699,-0.389434848,0,0,0,,0,106,106,68,1,1,TL,prosopal,cursive,prosopal_c.png,,,,,,
,,,,31160,001,2025-10-16_18h46.47.463,HW_LDT_1,2024.2.4,MacIntel,56.81818182,,,,,,,,,,,,,,,,,,,,,,621.7583,621.9569,621.957,622.4568,,,,,,,,,,,,,,0.955,1,,,,,,,,,,,,,,m,,,,,,,,,,,,,,,,108,1,622.4572,623.4245,m,1,0.955,,[],[],[],[],[],[],[],623.4246,625.4245,625.4246,628.8743,[],[],[],[],[],[],[],m,628.8744,628.8745,0.114832699,-0.389434848,0,0,0,,0,107,107,139,1,1,word,REGULAR,print,regular_p.png,3.4489,,,,,
,,,,31160,001,2025-10-16_18h46.47.463,HW_LDT_1,2024.2.4,MacIntel,56.81818182,,,,,,,,,,,,,,,,,,,,,,628.8758,629.0742,629.0743,629.5744,,,,,,,,,,,,,,5.1209,1,,,,,,,,,,,,,,z,,,,,,,,,,,,,,,,109,0,629.5748,634.7077,z,1,5.1209,,[],[],[],[],[],[],[],634.7078,636.7077,636.7078,636.7079,[],[],[],[],[],[],[],,636.7081,636.7081,0.114832699,-0.389434848,0,0,0,,0,108,108,10,1,1,RL,efibor,cursive,efibor_c.png,,,,,,
,,,,31160,001,2025-10-16_18h46.47.463,HW_LDT_1,2024.2.4,MacIntel,56.81818182,,,,,,,,,,,,,,,,,,,,,,636.7094,636.9077,636.9077,637.4076,,,,,,,,,,,,,,2.1878,1,,,,,,,,,,,,,,z,,,,,,,,,,,,,,,,110,0,637.4082,639.6076,z,1,2.1878,,[],[],[],[],[],[],[],639.6077,641.6077,641.6077,641.608,[],[],[],[],[],[],[],,641.608,641.6082,0.114832699,-0.389434848,0,0,0,,0,109,109,57,1,1,TL,hetirage,cursive,hetirage_c.png,,,,,,
,,,,31160,001,2025-10-16_18h46.47.463,HW_LDT_1,2024.2.4,MacIntel,56.81818182,,,,,,,,,,,,,,,,,,,,,,641.6097,641.8077,641.8078,642.3077,,,,,,,,,,,,,,1.1558,1,,,,,,,,,,,,,,z,,,,,,,,,,,,,,,,111,0,642.3082,643.4745,z,1,1.1558,,[],[],[],[],[],[],[],643.4746,645.4743,645.4744,645.4746,[],[],[],[],[],[],[],,645.4747,645.4748,0.114832699,-0.389434848,0,0,0,,0,110,110,46,1,1,TL,catipal,print,catipal_p.png,,,,,,
,,,,31160,001,2025-10-16_18h46.47.463,HW_LDT_1,2024.2.4,MacIntel,56.81818182,,,,,,,,,,,,,,,,,,,,,,645.4762,645.6744,645.6745,646.1748,,,,,,,,,,,,,,1.146,1,,,,,,,,,,,,,,m,,,,,,,,,,,,,,,,112,0,646.1757,647.3242,m,1,1.146,,[],[],[],[],[],[],[],647.3242,649.3243,649.3244,649.3245,[],[],[],[],[],[],[],,649.3246,649.3247,0.114832699,-0.389434848,0,0,0,,0,111,111,135,1,1,word,QUALITY,cursive,quality_c.png,,,,,,
,,,,31160,001,2025-10-16_18h46.47.463,HW_LDT_1,2024.2.4,MacIntel,56.81818182,,,,,,,,,,,,,,,,,,,,,,649.3258,649.5238,649.5239,650.0243,,,,,,,,,,,,,,0.8872,1,,,,,,,,,,,,,,z,,,,,,,,,,,,,,,,113,0,650.0249,650.9244,z,1,0.8872,,[],[],[],[],[],[],[],650.9244,652.9244,652.9244,652.9247,[],[],[],[],[],[],[],,652.9248,652.9249,0.114832699,-0.389434848,0,0,0,,0,112,112,37,1,1,RL,skofen,print,skofen_p.png,,,,,,
,,,,31160,001,2025-10-16_18h46.47.463,HW_LDT_1,2024.2.4,MacIntel,56.81818182,,,,,,,,,,,,,,,,,,,,,,652.9261,653.1243,653.1244,653.6234,,,,,,,,,,,,,,0.7334,1,,,,,,,,,,,,,,z,,,,,,,,,,,,,,,,114,0,653.6241,654.3586,z,1,0.7334,,[],[],[],[],[],[],[],654.3586,656.3576,656.3576,656.3607,[],[],[],[],[],[],[],,656.3611,656.3612,0.114832699,-0.389434848,0,0,0,,0,113,113,19,1,1,RL,monebate,print,monebate_p.png,,,,,,
,,,,31160,001,2025-10-16_18h46.47.463,HW_LDT_1,2024.2.4,MacIntel,56.81818182,,,,,,,,,,,,,,,,,,,,,,656.369,656.5577,656.5578,657.0578,,,,,,,,,,,,,,0.7741,1,,,,,,,,,,,,,,z,,,,,,,,,,,,,,,,115,0,657.0587,657.8406,z,1,0.7741,,[],[],[],[],[],[],[],657.8407,659.8411,659.8412,659.8414,[],[],[],[],[],[],[],,659.8414,659.8415,0.114832699,-0.389434848,0,0,0,,0,114,114,41,1,1,TL,bevoled,print,bevoled_p.png,,,,,,
,,,,31160,001,2025-10-16_18h46.47.463,HW_LDT_1,2024.2.4,MacIntel,56.81818182,,,,,,,,,,,,,,,,,,,,,,659.843,660.0411,660.0412,660.5408,,,,,,,,,,,,,,0.7154,1,,,,,,,,,,,,,,z,,,,,,,,,,,,,,,,116,0,660.541,661.2578,z,1,0.7154,,[],[],[],[],[],[],[],661.2579,663.2578,663.2578,663.2581,[],[],[],[],[],[],[],,663.2581,663.2582,0.114832699,-0.389434848,0,0,0,,0,115,115,32,1,1,RL,rebicent,print,rebicent_p.png,,,,,,
,,,,31160,001,2025-10-16_18h46.47.463,HW_LDT_1,2024.2.4,MacIntel,56.81818182,,,,,,,,,,,,,,,,,,,,,,663.2607,663.4576,663.4576,663.9575,,,,,,,,,,,,,,2.371,1,,,,,,,,,,,,,,z,,,,,,,,,,,,,,,,117,0,663.9582,666.3408,z,1,2.371,,[],[],[],[],[],[],[],666.3409,668.3411,668.3412,668.3414,[],[],[],[],[],[],[],,668.3414,668.3415,0.114832699,-0.389434848,0,0,0,,0,116,116,25,1,1,RL,quakity,cursive,quakity_c.png,,,,,,
,,,,31160,001,2025-10-16_18h46.47.463,HW_LDT_1,2024.2.4,MacIntel,56.81818182,,,,,,,,,,,,,,,,,,,,,,668.3425,668.5409,668.541,669.041,,,,,,,,,,,,,,1.3201,1,,,,,,,,,,,,,,m,,,,,,,,,,,,,,,,118,1,669.0416,670.3745,m,1,1.3201,,[],[],[],[],[],[],[],670.3745,672.3744,672.3745,673.7074,[],[],[],[],[],[],[],z,673.7075,673.7075,0.114832699,-0.389434848,0,0,0,,0,117,117,112,1,1,word,LIBERAL,cursive,liberal_c.png,1.3215,,,,,
,,,,31160,001,2025-10-16_18h46.47.463,HW_LDT_1,2024.2.4,MacIntel,56.81818182,,,,,,,,,,,,,,,,,,,,,,673.7084,673.9074,673.9074,674.4077,,,,,,,,,,,,,,0.855,1,,,,,,,,,,,,,,m,,,,,,,,,,,,,,,,119,0,674.4082,675.2741,m,1,0.855,,[],[],[],[],[],[],[],675.2742,677.2744,677.2745,677.2749,[],[],[],[],[],[],[],,677.2749,677.275,0.114832699,-0.389434848,0,0,0,,0,118,118,97,1,1,word,COVERAGE,print,coverage_p.png,,,,,,
,,,,31160,001,2025-10-16_18h46.47.463,HW_LDT_1,2024.2.4,MacIntel,56.81818182,,,,,,,,,,,,,,,,,,,,,,677.2762,677.4742,677.4742,677.9745,,,,,,,,,,,,,,0.7377,1,,,,,,,,,,,,,,z,,,,,,,,,,,,,,,,120,0,677.9752,678.7245,z,1,0.7377,,[],[],[],[],[],[],[],678.7246,680.7243,680.7243,680.7244,[],[],[],[],[],[],[],,680.7245,680.7247,0.114832699,-0.389434848,0,0,0,,0,119,119,24,1,1,RL,probice,print,probice_p.png,,,,,,
,,,,31160,001,2025-10-16_18h46.47.463,HW_LDT_1,2024.2.4,MacIntel,56.81818182,,,,,,,,,,,,,,,,,,,,,,680.7257,680.9243,680.9244,681.4243,,,,,,,,,,,,,,0.9644,1,,,,,,,,,,,,,,z,,,,,,,,,,,,,,,,121,1,681.4251,682.3911,z,1,0.9644,,[],[],[],[],[],[],[],682.3911,684.391,684.3911,685.4244,[],[],[],[],[],[],[],z,685.4244,685.4245,0.114832699,-0.389434848,0,0,0,,0,120,120,49,1,1,TL,clicinal,cursive,clicinal_c.png,1.0233,,,,,
,,,,31160,001,2025-10-16_18h46.47.463,HW_LDT_1,2024.2.4,MacIntel,56.81818182,,,,,,,,,,,,,,,,,,,,,,685.4254,685.6244,685.6244,686.1244,,,,,,,,,,,,,,2.5046,1,,,,,,,,,,,,,,z,,,,,,,,,,,,,,,,122,0,686.125,688.6407,z,1,2.5046,,[],[],[],[],[],[],[],688.6408,690.641,690.6411,690.6413,[],[],[],[],[],[],[],,690.6414,690.6415,0.114832699,-0.389434848,0,0,0,,0,121,121,63,1,1,TL,molibe,cursive,molibe_c.png,,,,,,
,,,,31160,001,2025-10-16_18h46.47.463,HW_LDT_1,2024.2.4,MacIntel,56.81818182,,,,,,,,,,,,,,,,,,,,,,690.643,690.841,690.841,691.341,,,,,,,,,,,,,,0.6707,1,,,,,,,,,,,,,,z,,,,,,,,,,,,,,,,123,0,691.3416,692.0243,z,1,0.6707,,[],[],[],[],[],[],[],692.0245,694.0244,694.0244,694.0246,[],[],[],[],[],[],[],,694.0246,694.0248,0.114832699,-0.389434848,0,0,0,,0,122,122,13,1,1,RL,linefal,print,linefal_p.png,,,,,,
,,,,31160,001,2025-10-16_18h46.47.463,HW_LDT_1,2024.2.4,MacIntel,56.81818182,,,,,,,,,,,,,,,,,,,,,,694.0261,694.2243,694.2243,694.7242,,,,,,,,,,,,,,1.2084,1,,,,,,,,,,,,,,z,,,,,,,,,,,,,,,,124,0,694.7246,695.94,z,1,1.2084,,[],[],[],[],[],[],[],695.9401,697.941,697.941,697.9412,[],[],[],[],[],[],[],,697.9412,697.9414,0.114832699,-0.389434848,0,0,0,,0,123,123,59,1,1,TL,lirebal,cursive,lirebal_c.png,,,,,,
,,,,31160,001,2025-10-16_18h46.47.463,HW_LDT_1,2024.2.4,MacIntel,56.81818182,,,,,,,,,,,,,,,,,,,,,,697.9438,698.141,698.141,698.641,,,,,,,,,,,,,,2.1585,1,,,,,,,,,,,,,,m,,,,,,,,,,,,,,,,125,0,698.6416,700.8078,m,1,2.1585,,[],[],[],[],[],[],[],700.8079,702.8075,702.8076,702.8077,[],[],[],[],[],[],[],,702.8078,702.8078,0.114832699,-0.389434848,0,0,0,,0,124,124,80,1,1,word,ACADEMY,cursive,academy_c.png,,,,,,
,,,,31160,001,2025-10-16_18h46.47.463,HW_LDT_1,2024.2.4,MacIntel,56.81818182,,,,,,,,,,,,,,,,,,,,,,702.8088,703.0077,703.0078,703.5078,,,,,,,,,,,,,,1.3303,1,,,,,,,,,,,,,,z,,,,,,,,,,,,,,,,126,0,703.5085,704.8412,z,1,1.3303,,[],[],[],[],[],[],[],704.8413,706.8408,706.8409,706.8411,[],[],[],[],[],[],[],,706.8411,706.8412,0.114832699,-0.389434848,0,0,0,,0,125,125,56,1,1,TL,grafetul,print,grafetul_p.png,,,,,,
,,,,31160,001,2025-10-16_18h46.47.463,HW_LDT_1,2024.2.4,MacIntel,56.81818182,,,,,,,,,,,,,,,,,,,,,,706.8425,707.041,707.0411,707.541,,,,,,,,,,,,,,1.6375,0,,,,,,,,,,,,,,m,,,,,,,,,,,,,,,,127,0,707.5415,709.1906,z,0,1.6375,,[],[],[],[],[],[],[],709.1908,711.1908,711.191,711.1911,[],[],[],[],[],[],[],,711.1912,711.1913,0.114832699,-0.389434848,0,0,0,,0,126,126,134,1,1,word,QUALIFY,cursive,qualify_c.png,,,,,,
,,,,31160,001,2025-10-16_18h46.47.463,HW_LDT_1,2024.2.4,MacIntel,56.81818182,,,,,,,,,,,,,,,,,,,,,,711.1925,711.391,711.391,711.891,,,,,,,,,,,,,,0.7041,1,,,,,,,,,,,,,,z,,,,,,,,,,,,,,,,128,0,711.8916,712.6073,z,1,0.7041,,[],[],[],[],[],[],[],712.6074,714.6076,714.6078,714.608,[],[],[],[],[],[],[],,714.6081,714.6082,0.114832699,-0.389434848,0,0,0,,0,127,127,21,1,1,RL,opcifal,print,opcifal_p.png,,,,,,
,,,,31160,001,2025-10-16_18h46.47.463,HW_LDT_1,2024.2.4,MacIntel,56.81818182,,,,,,,,,,,,,,,,,,,,,,714.61,714.8078,714.8078,715.3079,,,,,,,,,,,,,,2.8265,1,,,,,,,,,,,,,,z,,,,,,,,,,,,,,,,129,1,715.3086,718.1399,z,1,2.8265,,[],[],[],[],[],[],[],718.14,720.1409,720.1411,721.2074,[],[],[],[],[],[],[],z,721.2075,721.2076,0.114832699,-0.389434848,0,0,0,,0,128,128,50,1,1,TL,condiser,cursive,condiser_c.png,1.055,,,,,
,,,,31160,001,2025-10-16_18h46.47.463,HW_LDT_1,2024.2.4,MacIntel,56.81818182,,,,,,,,,,,,,,,,,,,,,,721.2084,721.4067,721.4067,721.9076,,,,,,,,,,,,,,7.198,1,,,,,,,,,,,,,,z,,,,,,,,,,,,,,,,130,1,721.9083,729.1078,z,1,7.198,,[],[],[],[],[],[],[],729.1079,731.1066,731.1068,732.1077,[],[],[],[],[],[],[],z,732.1078,732.108,0.114832699,-0.389434848,0,0,0,,0,129,129,64,1,1,TL,orepator,cursive,orepator_c.png,0.9897,,,,,
,,,,31160,001,2025-10-16_18h46.47.463,HW_LDT_1,2024.2.4,MacIntel,56.81818182,,,,,,,,,,,,,,,,,,,,,,732.109,732.3066,732.3067,732.8079,,,,,,,,,,,,,,6.6691,1,,,,,,,,,,,,,,z,,,,,,,,,,,,,,,,131,0,732.8084,739.4901,z,1,6.6691,,[],[],[],[],[],[],[],739.4901,741.4909,741.491,741.4911,[],[],[],[],[],[],[],,741.4912,741.4913,0.114832699,-0.389434848,0,0,0,,0,130,130,29,1,1,RL,refakive,cursive,refakive_c.png,,,,,,
,,,,31160,001,2025-10-16_18h46.47.463,HW_LDT_1,2024.2.4,MacIntel,56.81818182,,,,,,,,,,,,,,,,,,,,,,741.4925,741.6909,741.6909,742.1909,,,,,,,,,,,,,,1.2143,1,,,,,,,,,,,,,,z,,,,,,,,,,,,,,,,132,1,742.1916,743.4076,z,1,1.2143,,[],[],[],[],[],[],[],743.4076,745.4077,745.4077,749.8576,[],[],[],[],[],[],[],m,749.8576,749.8577,0.114832699,-0.389434848,0,0,0,,0,131,131,45,1,1,TL,cacapity,print,cacapity_p.png,4.4366,,,,,
,,,,31160,001,2025-10-16_18h46.47.463,HW_LDT_1,2024.2.4,MacIntel,56.81818182,,,,,,,,,,,,,,,,,,,,,,749.8585,750.0577,750.0577,750.5575,,,,,,,,,,,,,,1.4491,1,,,,,,,,,,,,,,m,,,,,,,,,,,,,,,,133,0,750.5581,752.0082,m,1,1.4491,,[],[],[],[],[],[],[],752.0086,754.0075,754.0076,754.0078,[],[],[],[],[],[],[],,754.0078,754.008,0.114832699,-0.389434848,0,0,0,,0,132,132,132,1,1,word,PROPOSAL,cursive,proposal_c.png,,,,,,
,,,,31160,001,2025-10-16_18h46.47.463,HW_LDT_1,2024.2.4,MacIntel,56.81818182,,,,,,,,,,,,,,,,,,,,,,754.0095,754.2076,754.2076,754.7066,,,,,,,,,,,,,,0.7884,1,,,,,,,,,,,,,,m,,,,,,,,,,,,,,,,134,0,754.7073,755.5068,m,1,0.7884,,[],[],[],[],[],[],[],755.5069,757.5079,757.5079,757.5081,[],[],[],[],[],[],[],,757.5082,757.5082,0.114832699,-0.389434848,0,0,0,,0,133,133,123,1,1,word,MODERATE,print,moderate_p.png,,,,,,
,,,,31160,001,2025-10-16_18h46.47.463,HW_LDT_1,2024.2.4,MacIntel,56.81818182,,,,,,,,,,,,,,,,,,,,,,757.5094,757.7075,757.7075,758.2078,,,,,,,,,,,,,,2.4016,1,,,,,,,,,,,,,,z,,,,,,,,,,,,,,,,135,0,758.2086,760.6232,z,1,2.4016,,[],[],[],[],[],[],[],760.6233,762.6243,762.6244,762.6246,[],[],[],[],[],[],[],,762.6246,762.6248,0.114832699,-0.389434848,0,0,0,,0,134,134,23,1,1,RL,potugar,cursive,potugar_c.png,,,,,,
,,,,31160,001,2025-10-16_18h46.47.463,HW_LDT_1,2024.2.4,MacIntel,56.81818182,,,,,,,,,,,,,,,,,,,,,,762.6259,762.8241,762.8242,763.3242,,,,,,,,,,,,,,0.7869,1,,,,,,,,,,,,,,z,,,,,,,,,,,,,,,,136,0,763.3248,764.123,z,1,0.7869,,[],[],[],[],[],[],[],764.1231,766.1231,766.1232,766.1234,[],[],[],[],[],[],[],,766.1234,766.1234,0.114832699,-0.389434848,0,0,0,,0,135,135,7,1,1,RL,delahe,print,delahe_p.png,,,,,,
,,,,31160,001,2025-10-16_18h46.47.463,HW_LDT_1,2024.2.4,MacIntel,56.81818182,,,,,,,,,,,,,,,,,,,,,,766.1245,766.3242,766.3242,766.8244,,,,,,,,,,,,,,1.6648,1,,,,,,,,,,,,,,z,,,,,,,,,,,,,,,,137,1,766.8251,768.4909,z,1,1.6648,,[],[],[],[],[],[],[],768.491,770.4904,770.4905,771.5068,[],[],[],[],[],[],[],z,771.5069,771.507,0.114832699,-0.389434848,0,0,0,,0,136,136,67,1,1,TL,pocily,cursive,pocily_c.png,1.016,,,,,
,,,,31160,001,2025-10-16_18h46.47.463,HW_LDT_1,2024.2.4,MacIntel,56.81818182,,,,,,,,,,,,,,,,,,,,,,771.5081,771.7076,771.7076,772.2066,,,,,,,,,,,,,,1.0153,1,,,,,,,,,,,,,,m,,,,,,,,,,,,,,,,138,0,772.2069,773.2243,m,1,1.0153,,[],[],[],[],[],[],[],773.2244,775.2242,775.2245,775.2248,[],[],[],[],[],[],[],,775.2249,775.225,0.114832699,-0.389434848,0,0,0,,0,137,137,85,1,1,word,BENEFIT,print,benefit_p.png,,,,,,
,,,,31160,001,2025-10-16_18h46.47.463,HW_LDT_1,2024.2.4,MacIntel,56.81818182,,,,,,,,,,,,,,,,,,,,,,775.2268,775.4234,775.4235,775.9244,,,,,,,,,,,,,,0.8182,1,,,,,,,,,,,,,,m,,,,,,,,,,,,,,,,139,0,775.9253,776.7573,m,1,0.8182,,[],[],[],[],[],[],[],776.7574,778.7575,778.7575,778.7577,[],[],[],[],[],[],[],,778.7578,778.7579,0.114832699,-0.389434848,0,0,0,,0,138,138,113,1,1,word,LITERAL,print,literal_p.png,,,,,,
,,,,31160,001,2025-10-16_18h46.47.463,HW_LDT_1,2024.2.4,MacIntel,56.81818182,,,,,,,,,,,,,,,,,,,,,,778.7592,778.9576,778.9577,779.4576,,,,,,,,,,,,,,0.7696,1,,,,,,,,,,,,,,z,,,,,,,,,,,,,,,,140,0,779.4583,780.2407,z,1,0.7696,,[],[],[],[],[],[],[],780.2407,782.2408,782.2409,782.2411,[],[],[],[],[],[],[],,782.2411,782.2412,0.114832699,-0.389434848,0,0,0,,0,139,139,28,1,1,RL,renutal,print,renutal_p.png,,,,,,
,,,,31160,001,2025-10-16_18h46.47.463,HW_LDT_1,2024.2.4,MacIntel,56.81818182,,,,,,,,,,,,,,,,,,,,,,782.2425,782.4408,782.4408,782.94,,,,,,,,,,,,,,1.037,1,,,,,,,,,,,,,,z,,,,,,,,,,,,,,,,141,0,782.9413,783.9906,z,1,1.037,,[],[],[],[],[],[],[],783.9906,785.991,785.991,785.9913,[],[],[],[],[],[],[],,785.9914,785.9915,0.114832699,-0.389434848,0,0,0,,0,140,140,71,1,1,TL,regilion,cursive,regilion_c.png,,,,,,
,,,,31160,001,2025-10-16_18h46.47.463,HW_LDT_1,2024.2.4,MacIntel,56.81818182,,,,,,,,,,,,,,,,,,,,,,785.993,786.19,786.1901,786.691,,,,,,,,,,,,,,0.7406,1,,,,,,,,,,,,,,m,,,,,,,,,,,,,,,,142,0,786.6917,787.44,m,1,0.7406,,[],[],[],[],[],[],[],787.4401,789.4406,789.4406,789.4407,[],[],[],[],[],[],[],,789.4408,789.4408,0.114832699,-0.389434848,0,0,0,,0,141,141,89,1,1,word,CAPACITY,print,capacity_p.png,,,,,,
,,,,31160,001,2025-10-16_18h46.47.463,HW_LDT_1,2024.2.4,MacIntel,56.81818182,,,,,,,,,,,,,,,,,,,,,,789.4415,789.6409,789.641,790.1411,,,,,,,,,,,,,,0.9378,1,,,,,,,,,,,,,,m,,,,,,,,,,,,,,,,143,0,790.1416,791.09,m,1,0.9378,,[],[],[],[],[],[],[],791.0901,793.0905,793.0906,793.0907,[],[],[],[],[],[],[],,793.0908,793.0908,0.114832699,-0.389434848,0,0,0,,0,142,142,145,1,1,word,RESUME,print,resume_p.png,,,,,,
,,,,31160,001,2025-10-16_18h46.47.463,HW_LDT_1,2024.2.4,MacIntel,56.81818182,,,,,,,,,,,,,,,,,,,,,,793.0915,793.2911,793.2911,793.7909,,,,,,,,,,,,,,0.7703,1,,,,,,,,,,,,,,m,,,,,,,,,,,,,,,,144,0,793.7913,794.574,m,1,0.7703,,[],[],[],[],[],[],[],794.574,796.5739,796.5739,796.574,[],[],[],[],[],[],[],,796.574,796.574,0.114832699,-0.389434848,0,0,0,,0,143,143,109,1,1,word,GRATEFUL,print,grateful_p.png,,,,,,
,,,,31160,001,2025-10-16_18h46.47.463,HW_LDT_1,2024.2.4,MacIntel,56.81818182,,,,,,,,,,,,,,,,,,,,,,796.5748,796.7731,796.7731,797.2745,,,,,,,,,,,,,,0.7735,1,,,,,,,,,,,,,,m,,,,,,,,,,,,,,,,145,0,797.275,798.0576,m,1,0.7735,,[],[],[],[],[],[],[],798.0577,800.0566,800.0566,800.0568,[],[],[],[],[],[],[],,800.0569,800.0569,0.114832699,-0.389434848,0,0,0,,0,144,144,115,1,1,word,LOGICAL,cursive,logical_c.png,,,,,,
,,,,31160,001,2025-10-16_18h46.47.463,HW_LDT_1,2024.2.4,MacIntel,56.81818182,,,,,,,,,,,,,,,,,,,,,,800.0585,800.2565,800.2566,800.7575,,,,,,,,,,,,,,0.8571,1,,,,,,,,,,,,,,z,,,,,,,,,,,,,,,,146,0,800.758,801.6239,z,1,0.8571,,[],[],[],[],[],[],[],801.624,803.6241,803.6242,803.6244,[],[],[],[],[],[],[],,803.6244,803.6244,0.114832699,-0.389434848,0,0,0,,0,145,145,40,1,1,TL,atameur,print,atameur_p.png,,,,,,
,,,,31160,001,2025-10-16_18h46.47.463,HW_LDT_1,2024.2.4,MacIntel,56.81818182,,,,,,,,,,,,,,,,,,,,,,803.6255,803.8243,803.8243,804.3233,,,,,,,,,,,,,,0.7324,1,,,,,,,,,,,,,,m,,,,,,,,,,,,,,,,147,0,804.324,805.0578,m,1,0.7324,,[],[],[],[],[],[],[],805.0578,807.0575,807.0576,807.0578,[],[],[],[],[],[],[],,807.0578,807.0579,0.114832699,-0.389434848,0,0,0,,0,146,146,136,1,1,word,RADICAL,print,radical_p.png,,,,,,
,,,,31160,001,2025-10-16_18h46.47.463,HW_LDT_1,2024.2.4,MacIntel,56.81818182,,,,,,,,,,,,,,,,,,,,,,807.0592,807.2567,807.2568,807.7576,,,,,,,,,,,,,,1.6052,1,,,,,,,,,,,,,,z,,,,,,,,,,,,,,,,148,0,807.7582,809.374,z,1,1.6052,,[],[],[],[],[],[],[],809.374,811.3732,811.3733,811.3735,[],[],[],[],[],[],[],,811.3735,811.3736,0.114832699,-0.389434848,0,0,0,,0,147,147,77,1,1,TL,tritube,cursive,tritube_c.png,,,,,,
,,,,31160,001,2025-10-16_18h46.47.463,HW_LDT_1,2024.2.4,MacIntel,56.81818182,,,,,,,,,,,,,,,,,,,,,,811.3749,811.5742,811.5742,812.0739,,,,,,,,,,,,,,0.754,1,,,,,,,,,,,,,,z,,,,,,,,,,,,,,,,149,0,812.0745,812.8409,z,1,0.754,,[],[],[],[],[],[],[],812.8409,814.8409,814.8409,814.8412,[],[],[],[],[],[],[],,814.8412,814.8414,0.114832699,-0.389434848,0,0,0,,0,148,148,34,1,1,RL,samite,print,samite_p.png,,,,,,
,,,,31160,001,2025-10-16_18h46.47.463,HW_LDT_1,2024.2.4,MacIntel,56.81818182,,,,,,,,,,,,,,,,,,,,,,814.8426,815.0399,815.04,815.5398,,,,,,,,,,,,,,5.1211,1,,,,,,,,,,,,,,z,,,,,,,,,,,,,,,,150,0,815.5403,820.6735,z,1,5.1211,,[],[],[],[],[],[],[],820.6735,822.6742,822.6743,822.6744,[],[],[],[],[],[],[],,822.6745,822.6746,0.114832699,-0.389434848,0,0,0,,0,149,149,17,1,1,RL,menowy,cursive,menowy_c.png,,,,,,
,,,,31160,001,2025-10-16_18h46.47.463,HW_LDT_1,2024.2.4,MacIntel,56.81818182,,,,,,,,,,,,,,,,,,,,,,822.6759,822.874,822.8742,823.3741,,,,,,,,,,,,,,4.4406,1,,,,,,,,,,,,,,z,,,,,,,,,,,,,,,,151,0,823.3747,827.8241,z,1,4.4406,,[],[],[],[],[],[],[],827.8243,829.8242,829.8243,829.8245,[],[],[],[],[],[],[],,829.8245,829.8248,0.114832699,-0.389434848,0,0,0,,0,150,150,35,1,1,RL,senvilent,cursive,senvilent_c.png,,,,,,
,,,,31160,001,2025-10-16_18h46.47.463,HW_LDT_1,2024.2.4,MacIntel,56.81818182,,,,,,,,,,,,,,,,,,,,,,829.8266,830.0233,830.0233,830.5232,,,,,,,,,,,,,,2.8868,1,,,,,,,,,,,,,,m,,,,,,,,,,,,,,,,152,0,830.5238,833.4241,m,1,2.8868,,[],[],[],[],[],[],[],833.4241,835.4244,835.4245,835.4246,[],[],[],[],[],[],[],,835.4246,835.4249,0.114832699,-0.389434848,0,0,0,,0,151,151,101,1,1,word,DELICATE,cursive,delicate_c.png,,,,,,
,,,,31160,001,2025-10-16_18h46.47.463,HW_LDT_1,2024.2.4,MacIntel,56.81818182,,,,,,,,,,,,,,,,,,,,,,835.4263,835.6242,835.6243,836.1243,,,,,,,,,,,,,,0.7788,1,,,,,,,,,,,,,,z,,,,,,,,,,,,,,,,153,0,836.1252,836.9062,z,1,0.7788,,[],[],[],[],[],[],[],836.9064,838.9066,838.9066,838.907,[],[],[],[],[],[],[],,838.9071,838.9072,0.114832699,-0.389434848,0,0,0,,0,152,152,14,1,1,RL,lofase,print,lofase_p.png,,,,,,
,,,,31160,001,2025-10-16_18h46.47.463,HW_LDT_1,2024.2.4,MacIntel,56.81818182,,,,,,,,,,,,,,,,,,,,,,838.9084,839.1075,839.1075,839.6071,,,,,,,,,,,,,,0.8739,1,,,,,,,,,,,,,,m,,,,,,,,,,,,,,,,154,0,839.6079,840.4906,m,1,0.8739,,[],[],[],[],[],[],[],840.4907,842.4909,842.4909,842.4912,[],[],[],[],[],[],[],,842.4912,842.4914,0.114832699,-0.389434848,0,0,0,,0,153,153,117,1,1,word,MARINE,print,marine_p.png,,,,,,
,,,,31160,001,2025-10-16_18h46.47.463,HW_LDT_1,2024.2.4,MacIntel,56.81818182,,,,,,,,,,,,,,,,,,,,,,842.4928,842.6909,842.691,843.1908,,,,,,,,,,,,,,0.849,1,,,,,,,,,,,,,,m,,,,,,,,,,,,,,,,155,0,843.1914,844.0414,m,1,0.849,,[],[],[],[],[],[],[],844.0416,846.0409,846.041,846.0411,[],[],[],[],[],[],[],,846.0412,846.0413,0.114832699,-0.389434848,0,0,0,,0,154,154,126,1,1,word,OPTIMAL,print,optimal_p.png,,,,,,
,,,,31160,001,2025-10-16_18h46.47.463,HW_LDT_1,2024.2.4,MacIntel,56.81818182,,,,,,,,,,,,,,,,,,,,,,846.0427,846.2408,846.2408,846.7409,,,,,,,,,,,,,,5.6392,1,,,,,,,,,,,,,,z,,,,,,,,,,,,,,,,156,0,846.7415,852.3907,z,1,5.6392,,[],[],[],[],[],[],[],852.391,854.3907,854.3907,854.391,[],[],[],[],[],[],[],,854.391,854.3911,0.114832699,-0.389434848,0,0,0,,0,155,155,1,1,1,RL,adnicory,cursive,adnicory_c.png,,,,,,
,,,,31160,001,2025-10-16_18h46.47.463,HW_LDT_1,2024.2.4,MacIntel,56.81818182,,,,,,,,,,,,,,,,,,,,,,854.3925,854.5908,854.5909,855.0909,,,,,,,,,,,,,,1.0542,1,,,,,,,,,,,,,,m,,,,,,,,,,,,,,,,157,0,855.0914,856.1573,m,1,1.0542,,[],[],[],[],[],[],[],856.1573,858.1576,858.1576,858.1578,[],[],[],[],[],[],[],,858.1578,858.1579,0.114832699,-0.389434848,0,0,0,,0,156,156,137,1,1,word,RAPIDLY,cursive,rapidly_c.png,,,,,,
,,,,31160,001,2025-10-16_18h46.47.463,HW_LDT_1,2024.2.4,MacIntel,56.81818182,,,,,,,,,,,,,,,,,,,,,,858.1594,858.3574,858.3575,858.8575,,,,,,,,,,,,,,0.8365,1,,,,,,,,,,,,,,m,,,,,,,,,,,,,,,,158,0,858.8581,859.7073,m,1,0.8365,,[],[],[],[],[],[],[],859.7073,861.7075,861.7076,861.7077,[],[],[],[],[],[],[],,861.7077,861.7079,0.114832699,-0.389434848,0,0,0,,0,157,157,147,1,1,word,ROMANTIC,cursive,romantic_c.png,,,,,,
,,,,31160,001,2025-10-16_18h46.47.463,HW_LDT_1,2024.2.4,MacIntel,56.81818182,,,,,,,,,,,,,,,,,,,,,,861.7091,861.9075,861.9075,862.4075,,,,,,,,,,,,,,1.1517,0,,,,,,,,,,,,,,m,,,,,,,,,,,,,,,,159,0,862.4083,863.574,z,0,1.1517,,[],[],[],[],[],[],[],863.574,865.574,865.574,865.5741,[],[],[],[],[],[],[],,865.5742,865.5743,0.114832699,-0.389434848,0,0,0,,0,158,158,125,1,1,word,OPERATOR,cursive,operator_c.png,,,,,,
,,,,31160,001,2025-10-16_18h46.47.463,HW_LDT_1,2024.2.4,MacIntel,56.81818182,,,,,,,,,,,,,,,,,,,,,,865.5753,865.7742,865.7743,866.2742,,,,,,,,,,,,,,5.8705,1,,,,,,,,,,,,,,z,,,,,,,,,,,,,,,,160,0,866.2749,872.1576,z,1,5.8705,,[],[],[],[],[],[],[],872.1576,874.1575,874.1575,874.1578,[],[],[],[],[],[],[],,874.1579,874.1579,0.114832699,-0.389434848,0,0,0,,0,159,159,3,1,1,RL,casena,cursive,casena_c.png,,,,,,
,,,,31160,001,2025-10-16_18h46.47.463,HW_LDT_1,2024.2.4,MacIntel,56.81818182,,,,,,,,,,,,,,,,,,,,,,,,,,,,,,,,,,,,,,,,,,,,,,,,,,,,,,,,,,,,,,,,,,,,,,,,,,,,,,,,,,,,,,,,,,,,,,,,,,,,,,,,,,,,,,,,,,,,,,,874.1756,879.1576
