counterbalance_lists.group,counterbalance_lists.remaining,get_list.started,get_list.stopped,participant,session,date,expName,psychopyVersion,OS,frameRate,Instructions.started,Instructions.stopped,key_resp.keys,instr_done_touch.x,instr_done_touch.y,instr_done_touch.leftButton,instr_done_touch.midButton,instr_done_touch.rightButton,instr_done_touch.clicked_name,start_instr.thisRepN,start_instr.thisTrialN,start_instr.thisN,start_instr.thisIndex,start_instr.ran,pageN,phase,instruct_text,has_image,instruct_image,showProgress.started,showProgress.stopped,fix.started,fix.stopped,prac.started,prac.stopped,response.keys,response.corr,response.rt,response.duration,touch_resp.x,touch_resp.y,touch_resp.leftButton,touch_resp.midButton,touch_resp.rightButton,touch_resp.time,touch_resp.clicked_name,rt,corr,feedback.started,feedback.stopped,trials.thisRepN,trials.thisTrialN,trials.thisN,trials.thisIndex,trials.ran,TrialID,StimulusType,Condition,PrimeDuration,Prime,Target,corrAns,Instructions_expt.started,Instructions_expt.stopped,key_resp_3.keys,instr_done_touch_3.x,instr_done_touch_3.y,instr_done_touch_3.leftButton,instr_done_touch_3.midButton,instr_done_touch_3.rightButton,instr_done_touch_3.clicked_name,instr_experiment.thisRepN,instr_experiment.thisTrialN,instr_experiment.thisN,instr_experiment.thisIndex,instr_experiment.ran,trialID,flag,maintask.started,maintask.stopped,key_resp_2.keys,key_resp_2.corr,key_resp_2.rt,key_resp_2.duration,targ_click.x,targ_click.y,targ_click.leftButton,targ_click.midButton,targ_click.rightButton,targ_click.time,targ_click.clicked_name,ITI.started,ITI.stopped,probe.started,probe.stopped,click_probe.x,click_probe.y,click_probe.leftButton,click_probe.midButton,click_probe.rightButton,click_probe.time,click_probe.clicked_name,key_resp_probe.keys,key_resp_probe.rt,key_resp_probe.duration,Break.started,Break.stopped,break_done_touch.x,break_done_touch.y,break_done_touch.leftButton,break_done_touch.midButton,break_done_touch.rightButton,break_done_keyboard.keys,list4_trials.thisRepN,list4_trials.thisTrialN,list4_trials.thisN,list4_trials.thisIndex,list4_trials.ran,list_id,item_type,string,font,stim_file,break_done_touch.clicked_name,End.started,End.stopped
list4,,0.4494,0.4495,31194,001,2025-11-06_11h18.19.669,HW_LDT_1,2024.2.4,MacIntel,60.24096386,,,,,,,,,,,,,,,,,,,,,,,,,,,,,,,,,,,,,,,,,,,,,,,,,,,,,,,,,,,,,,,,,,,,,,,,,,,,,,,,,,,,,,,,,,,,,,,,,,,,,,,,,,,,,,,,,,,,
,,,,31194,001,2025-11-06_11h18.19.669,HW_LDT_1,2024.2.4,MacIntel,60.24096386,0.4662,13.6256,,0.01281684,-0.423294271,1,0,0,instr_done_button,0,0,0,0,1,1,instructions,"INSTRUCTIONS
At the start of each trial, look at the plus sign  (+) in the center of the screen.  This tells you that a trial is about to begin and where to look. Second, the plus sign will disappear and a string of letters will appear. Your task is to determine if the string of letters is a word or not. If the item is a word press the M key (on keyboard)  or touch the word button (phone/tablet).  If the item is not a word,  press the  Z key (on keyboard)  or touch the nonword button (on phone/tablet). The items will be presented for a short time. 
Press the space bar or touch  continue.",0,,,,,,,,,,,,,,,,,,,,,,,,,,,,,,,,,,,,,,,,,,,,,,,,,,,,,,,,,,,,,,,,,,,,,,,,,,,,,,,,,,,,,,,,,,,,,,,,,,
,,,,31194,001,2025-11-06_11h18.19.669,HW_LDT_1,2024.2.4,MacIntel,60.24096386,13.6272,16.2246,,0.01281684,-0.420811632,1,0,0,instr_done_button,0,1,1,1,1,2,instructions,"If your device has a keyboard, press the 'Z' key for nonwords and the 'M' key for words.





Press the space bar or touch the button below to continue.",0,keyboard-example.gif,,,,,,,,,,,,,,,,,,,,,,,,,,,,,,,,,,,,,,,,,,,,,,,,,,,,,,,,,,,,,,,,,,,,,,,,,,,,,,,,,,,,,,,,,,,,,,,,,
,,,,31194,001,2025-11-06_11h18.19.669,HW_LDT_1,2024.2.4,MacIntel,60.24096386,16.2258,18.975,,0.01281684,-0.420811632,1,0,0,instr_done_button,0,2,2,2,1,3,instructions,"If you are using a touchscreen only device, use the buttons on the screen. Do not use the mouse.





Press the space bar or touch the button below to continue.",0,touchscreen-example.gif,,,,,,,,,,,,,,,,,,,,,,,,,,,,,,,,,,,,,,,,,,,,,,,,,,,,,,,,,,,,,,,,,,,,,,,,,,,,,,,,,,,,,,,,,,,,,,,,,
,,,,31194,001,2025-11-06_11h18.19.669,HW_LDT_1,2024.2.4,MacIntel,60.24096386,18.9766,21.7085,,0.01281684,-0.420282118,1,0,0,instr_done_button,0,3,3,3,1,4,instructions,"It is very important that you respond as quickly and accurately as possible, as each letter string will only be on the screen for two seconds. If you do not respond within this time, the message 'Too slow!' will be displayed and the experiment will progress to the next letter string. The first 20 trials will be practice trials and you will receive feedback on your answers. 

Press the space bar or touch the button below to start the practice trials.",0,,,,,,,,,,,,,,,,,,,,,,,,,,,,,,,,,,,,,,,,,,,,,,,,,,,,,,,,,,,,,,,,,,,,,,,,,,,,,,,,,,,,,,,,,,,,,,,,,,
,,,,31194,001,2025-11-06_11h18.19.669,HW_LDT_1,2024.2.4,MacIntel,60.24096386,,,,,,,,,,,,,,,,,,,,21.7342,21.908,21.9081,22.4074,22.4076,25.3758,m,1,2.9486,,[],[],[],[],[],[],[],2.9486,1,25.3764,25.8751,0,0,0,1,1,1002,WORD,"ID",33,adjust,ADJUST,m,,,,,,,,,,,,,,,,,,,,,,,,,,,,,,,,,,,,,,,,,,,,,,,,,,,,,,,,,,,,,,,,
,,,,31194,001,2025-11-06_11h18.19.669,HW_LDT_1,2024.2.4,MacIntel,60.24096386,,,,,,,,,,,,,,,,,,,,25.876,26.0753,26.0753,26.5751,26.5764,28.292,z,1,1.6932,,[],[],[],[],[],[],[],1.6932,1,28.2921,28.7917,0,1,1,14,1,1015,NW,UN,16,miaber,THRALE,z,,,,,,,,,,,,,,,,,,,,,,,,,,,,,,,,,,,,,,,,,,,,,,,,,,,,,,,,,,,,,,,,
,,,,31194,001,2025-11-06_11h18.19.669,HW_LDT_1,2024.2.4,MacIntel,60.24096386,,,,,,,,,,,,,,,,,,,,28.7925,28.9908,28.9908,29.4917,29.4929,30.4579,z,1,0.9487,,[],[],[],[],[],[],[],0.9487,1,30.458,30.9583,0,2,2,10,1,1011,NW,"ID",16,inlade,INLADE,z,,,,,,,,,,,,,,,,,,,,,,,,,,,,,,,,,,,,,,,,,,,,,,,,,,,,,,,,,,,,,,,,
,,,,31194,001,2025-11-06_11h18.19.669,HW_LDT_1,2024.2.4,MacIntel,60.24096386,,,,,,,,,,,,,,,,,,,,30.9592,31.1573,31.1573,31.6573,31.6579,32.225,m,1,0.5562,,[],[],[],[],[],[],[],0.5562,1,32.2251,32.725,0,3,3,0,1,1001,WORD,"ID",33,utopia,UTOPIA,m,,,,,,,,,,,,,,,,,,,,,,,,,,,,,,,,,,,,,,,,,,,,,,,,,,,,,,,,,,,,,,,,
,,,,31194,001,2025-11-06_11h18.19.669,HW_LDT_1,2024.2.4,MacIntel,60.24096386,,,,,,,,,,,,,,,,,,,,32.7259,32.9252,32.9252,33.425,33.4256,34.2409,z,1,0.7954,,[],[],[],[],[],[],[],0.7954,1,34.2411,34.7416,0,4,4,13,1,1014,NW,UN,33,winfer,ROUPET,z,,,,,,,,,,,,,,,,,,,,,,,,,,,,,,,,,,,,,,,,,,,,,,,,,,,,,,,,,,,,,,,,
,,,,31194,001,2025-11-06_11h18.19.669,HW_LDT_1,2024.2.4,MacIntel,60.24096386,,,,,,,,,,,,,,,,,,,,34.7424,34.9418,34.9419,35.4408,35.4415,36.0253,m,1,0.5614,,[],[],[],[],[],[],[],0.5614,1,36.0254,36.5243,0,5,5,7,1,1008,WORD,UN,16,hurdle,VOLUME,m,,,,,,,,,,,,,,,,,,,,,,,,,,,,,,,,,,,,,,,,,,,,,,,,,,,,,,,,,,,,,,,,
,,,,31194,001,2025-11-06_11h18.19.669,HW_LDT_1,2024.2.4,MacIntel,60.24096386,,,,,,,,,,,,,,,,,,,,36.5255,36.7249,36.7249,37.2252,37.2262,37.9254,z,1,0.6789,,[],[],[],[],[],[],[],0.6789,1,37.9255,38.4249,0,6,6,15,1,1016,NW,UN,16,mushed,WHAISE,z,,,,,,,,,,,,,,,,,,,,,,,,,,,,,,,,,,,,,,,,,,,,,,,,,,,,,,,,,,,,,,,,
,,,,31194,001,2025-11-06_11h18.19.669,HW_LDT_1,2024.2.4,MacIntel,60.24096386,,,,,,,,,,,,,,,,,,,,38.4261,38.6244,38.6245,39.1243,39.1251,39.8749,z,1,0.7294,,[],[],[],[],[],[],[],0.7294,1,39.875,40.3751,0,7,7,8,1,1009,NW,"ID",33,aslert,ASLERT,z,,,,,,,,,,,,,,,,,,,,,,,,,,,,,,,,,,,,,,,,,,,,,,,,,,,,,,,,,,,,,,,,
,,,,31194,001,2025-11-06_11h18.19.669,HW_LDT_1,2024.2.4,MacIntel,60.24096386,,,,,,,,,,,,,,,,,,,,40.3765,40.575,40.575,41.0753,41.0758,41.7086,m,1,0.6132,,[],[],[],[],[],[],[],0.6132,1,41.7087,42.2089,0,8,8,2,1,1003,WORD,"ID",16,almond,ALMOND,m,,,,,,,,,,,,,,,,,,,,,,,,,,,,,,,,,,,,,,,,,,,,,,,,,,,,,,,,,,,,,,,,
,,,,31194,001,2025-11-06_11h18.19.669,HW_LDT_1,2024.2.4,MacIntel,60.24096386,,,,,,,,,,,,,,,,,,,,42.2101,42.4086,42.4086,42.9085,42.9091,43.6588,z,1,0.7297,,[],[],[],[],[],[],[],0.7297,1,43.6589,44.1586,0,9,9,9,1,1010,NW,"ID",33,fariny,FARINY,z,,,,,,,,,,,,,,,,,,,,,,,,,,,,,,,,,,,,,,,,,,,,,,,,,,,,,,,,,,,,,,,,
,,,,31194,001,2025-11-06_11h18.19.669,HW_LDT_1,2024.2.4,MacIntel,60.24096386,,,,,,,,,,,,,,,,,,,,44.1595,44.3586,44.3586,44.8588,44.8597,45.5244,m,1,0.6547,,[],[],[],[],[],[],[],0.6547,1,45.5244,46.0244,0,10,10,4,1,1005,WORD,UN,33,abound,SQUEAK,m,,,,,,,,,,,,,,,,,,,,,,,,,,,,,,,,,,,,,,,,,,,,,,,,,,,,,,,,,,,,,,,,
,,,,31194,001,2025-11-06_11h18.19.669,HW_LDT_1,2024.2.4,MacIntel,60.24096386,,,,,,,,,,,,,,,,,,,,46.0253,46.2253,46.2254,46.7244,46.725,47.3422,m,1,0.5994,,[],[],[],[],[],[],[],0.5994,1,47.3423,47.8421,0,11,11,5,1,1006,WORD,UN,33,frenzy,OBTAIN,m,,,,,,,,,,,,,,,,,,,,,,,,,,,,,,,,,,,,,,,,,,,,,,,,,,,,,,,,,,,,,,,,
,,,,31194,001,2025-11-06_11h18.19.669,HW_LDT_1,2024.2.4,MacIntel,60.24096386,,,,,,,,,,,,,,,,,,,,47.8433,48.0421,48.0421,48.5411,48.5417,49.3589,m,1,0.7951,,[],[],[],[],[],[],[],0.7951,1,49.3591,49.8578,0,12,12,6,1,1007,WORD,UN,16,tropic,ZOMBIE,m,,,,,,,,,,,,,,,,,,,,,,,,,,,,,,,,,,,,,,,,,,,,,,,,,,,,,,,,,,,,,,,,
,,,,31194,001,2025-11-06_11h18.19.669,HW_LDT_1,2024.2.4,MacIntel,60.24096386,,,,,,,,,,,,,,,,,,,,49.8586,50.0588,50.0588,50.5588,50.5597,51.3078,z,1,0.7285,,[],[],[],[],[],[],[],0.7285,1,51.3079,51.8091,0,13,13,12,1,1013,NW,UN,33,adveil,SPRINY,z,,,,,,,,,,,,,,,,,,,,,,,,,,,,,,,,,,,,,,,,,,,,,,,,,,,,,,,,,,,,,,,,
,,,,31194,001,2025-11-06_11h18.19.669,HW_LDT_1,2024.2.4,MacIntel,60.24096386,,,,,,,,,,,,,,,,,,,,51.8103,52.008,52.008,52.5089,52.5101,53.209,m,1,0.69,,[],[],[],[],[],[],[],0.69,1,53.2091,53.709,0,14,14,3,1,1004,WORD,"ID",16,matrix,MATRIX,m,,,,,,,,,,,,,,,,,,,,,,,,,,,,,,,,,,,,,,,,,,,,,,,,,,,,,,,,,,,,,,,,
,,,,31194,001,2025-11-06_11h18.19.669,HW_LDT_1,2024.2.4,MacIntel,60.24096386,,,,,,,,,,,,,,,,,,,,53.7102,53.9081,53.9082,54.4089,54.41,55.5589,z,1,1.1273,,[],[],[],[],[],[],[],1.1273,1,55.559,56.0591,0,15,15,11,1,1012,NW,"ID",16,rashet,RASHET,z,,,,,,,,,,,,,,,,,,,,,,,,,,,,,,,,,,,,,,,,,,,,,,,,,,,,,,,,,,,,,,,,
,,,,31194,001,2025-11-06_11h18.19.669,HW_LDT_1,2024.2.4,MacIntel,60.24096386,,,,,,,,,,,,,,,1,end_of_practice,"You have completed the practice trials. During the experimental trials, you will not receive feedback. On some trials you will be asked to report whether the item you just saw was in cursive or print. 
Before you begin, please ensure that you are in a comfortable and quiet location and will not be disturbed for about 15 minutes, as we cannot use your data if you do not complete all the trials. 
 When you are ready to start the experimental trials, please press space or touch the button below.",,,,,,,,,,,,,,,,,,,,,,,,,,,,,,,,,,,,56.0646,57.3594,,0.023576389,-0.400807292,1,0,0,instr_done_button_3,0,0,0,0,1,,,,,,,,,,,,,,,,,,,,,,,,,,,,,,,,,,,,,,,,,,,,,,,,,,
,,,,31194,001,2025-11-06_11h18.19.669,HW_LDT_1,2024.2.4,MacIntel,60.24096386,,,,,,,,,,,,,,,,,,,,57.381,57.5591,57.5592,58.0589,,,,,,,,,,,,,,1.6343,1,,,,,,,,,,,,,,m,,,,,,,,,,,,,,,1,1,58.0598,59.7088,m,1,1.6343,,[],[],[],[],[],[],[],59.7091,61.7082,61.7084,63.9258,[],[],[],[],[],[],[],z,2.2068,,63.9259,63.9286,0.082703993,-0.146966146,0,0,0,,0,0,0,98,1,4,word,CRIMINAL,cursive,criminal_c.png,,,
,,,,31194,001,2025-11-06_11h18.19.669,HW_LDT_1,2024.2.4,MacIntel,60.24096386,,,,,,,,,,,,,,,,,,,,63.9295,64.1258,64.1259,64.6258,,,,,,,,,,,,,,1.4579,1,,,,,,,,,,,,,,m,,,,,,,,,,,,,,,2,0,64.6262,66.0928,m,1,1.4579,,[],[],[],[],[],[],[],66.093,68.0926,68.0926,68.0928,[],[],[],[],[],[],[],,,,68.0928,68.0929,0.082703993,-0.146966146,0,0,0,,0,1,1,141,1,4,word,RELIGION,print,religion_p.png,,,
,,,,31194,001,2025-11-06_11h18.19.669,HW_LDT_1,2024.2.4,MacIntel,60.24096386,,,,,,,,,,,,,,,,,,,,68.0936,68.2926,68.2926,68.7925,,,,,,,,,,,,,,1.1085,1,,,,,,,,,,,,,,m,,,,,,,,,,,,,,,3,0,68.793,69.9089,m,1,1.1085,,[],[],[],[],[],[],[],69.9091,71.9093,71.9094,71.9096,[],[],[],[],[],[],[],,,,71.9096,71.9097,0.082703993,-0.146966146,0,0,0,,0,2,2,145,1,4,word,RESUME,print,resume_p.png,,,
,,,,31194,001,2025-11-06_11h18.19.669,HW_LDT_1,2024.2.4,MacIntel,60.24096386,,,,,,,,,,,,,,,,,,,,71.9108,72.1084,72.1084,72.6087,,,,,,,,,,,,,,1.3537,1,,,,,,,,,,,,,,m,,,,,,,,,,,,,,,4,0,72.6094,73.9762,m,1,1.3537,,[],[],[],[],[],[],[],73.9762,75.9753,75.9753,75.9754,[],[],[],[],[],[],[],,,,75.9754,75.9755,0.082703993,-0.146966146,0,0,0,,0,3,3,81,1,4,word,ADVISORY,cursive,advisory_c.png,,,
,,,,31194,001,2025-11-06_11h18.19.669,HW_LDT_1,2024.2.4,MacIntel,60.24096386,,,,,,,,,,,,,,,,,,,,75.9763,76.1754,76.1754,76.6763,,,,,,,,,,,,,,1.0853,1,,,,,,,,,,,,,,z,,,,,,,,,,,,,,,5,0,76.677,77.7763,z,1,1.0853,,[],[],[],[],[],[],[],77.7765,79.7762,79.7762,79.7764,[],[],[],[],[],[],[],,,,79.7764,79.7764,0.082703993,-0.146966146,0,0,0,,0,4,4,44,1,4,RL,senvilent,print,senvilent_p.png,,,
,,,,31194,001,2025-11-06_11h18.19.669,HW_LDT_1,2024.2.4,MacIntel,60.24096386,,,,,,,,,,,,,,,,,,,,79.7774,79.9763,79.9764,80.4752,,,,,,,,,,,,,,2.3376,1,,,,,,,,,,,,,,z,,,,,,,,,,,,,,,6,0,80.4756,82.826,z,1,2.3376,,[],[],[],[],[],[],[],82.8262,84.8256,84.8257,84.826,[],[],[],[],[],[],[],,,,84.8261,84.8262,0.082703993,-0.146966146,0,0,0,,0,5,5,49,1,4,RL,vesofity,cursive,vesofity_c.png,,,
,,,,31194,001,2025-11-06_11h18.19.669,HW_LDT_1,2024.2.4,MacIntel,60.24096386,,,,,,,,,,,,,,,,,,,,84.8274,85.0262,85.0263,85.5264,,,,,,,,,,,,,,0.7201,0,,,,,,,,,,,,,,z,,,,,,,,,,,,,,,7,0,85.5268,86.2598,m,0,0.7201,,[],[],[],[],[],[],[],86.2599,88.26,88.2601,88.2603,[],[],[],[],[],[],[],,,,88.2603,88.2604,0.082703993,-0.146966146,0,0,0,,0,6,6,68,1,4,TL,prosopal,print,prosopal_p.png,,,
,,,,31194,001,2025-11-06_11h18.19.669,HW_LDT_1,2024.2.4,MacIntel,60.24096386,,,,,,,,,,,,,,,,,,,,88.2615,88.4598,88.4598,88.9598,,,,,,,,,,,,,,2.0355,0,,,,,,,,,,,,,,m,,,,,,,,,,,,,,,8,0,88.9601,91.01,z,0,2.0355,,[],[],[],[],[],[],[],91.0102,93.0099,93.0099,93.01,[],[],[],[],[],[],[],,,,93.0101,93.0101,0.082703993,-0.146966146,0,0,0,,0,7,7,138,1,4,word,REFUSAL,cursive,refusal_c.png,,,
,,,,31194,001,2025-11-06_11h18.19.669,HW_LDT_1,2024.2.4,MacIntel,60.24096386,,,,,,,,,,,,,,,,,,,,93.0109,93.2099,93.21,93.7095,,,,,,,,,,,,,,2.5035,1,,,,,,,,,,,,,,z,,,,,,,,,,,,,,,9,0,93.71,96.2265,z,1,2.5035,,[],[],[],[],[],[],[],96.2266,98.2266,98.2267,98.2268,[],[],[],[],[],[],[],,,,98.2268,98.2269,0.082703993,-0.146966146,0,0,0,,0,8,8,26,1,4,RL,mesibine,cursive,mesibine_c.png,,,
,,,,31194,001,2025-11-06_11h18.19.669,HW_LDT_1,2024.2.4,MacIntel,60.24096386,,,,,,,,,,,,,,,,,,,,98.2277,98.4267,98.4268,98.9267,,,,,,,,,,,,,,1.0534,1,,,,,,,,,,,,,,m,,,,,,,,,,,,,,,10,0,98.9272,99.9935,m,1,1.0534,,[],[],[],[],[],[],[],99.9936,101.9935,101.9936,101.9938,[],[],[],[],[],[],[],,,,101.9939,101.9941,0.082703993,-0.146966146,0,0,0,,0,9,9,94,1,4,word,CLINICAL,print,clinical_p.png,,,
,,,,31194,001,2025-11-06_11h18.19.669,HW_LDT_1,2024.2.4,MacIntel,60.24096386,,,,,,,,,,,,,,,,,,,,101.9955,102.1928,102.1928,102.6936,,,,,,,,,,,,,,0.6527,1,,,,,,,,,,,,,,m,,,,,,,,,,,,,,,11,0,102.6942,103.36,m,1,0.6527,,[],[],[],[],[],[],[],103.3601,105.3602,105.3602,105.3605,[],[],[],[],[],[],[],,,,105.3605,105.3607,0.082703993,-0.146966146,0,0,0,,0,10,10,140,1,4,word,RELATIVE,print,relative_p.png,,,
,,,,31194,001,2025-11-06_11h18.19.669,HW_LDT_1,2024.2.4,MacIntel,60.24096386,,,,,,,,,,,,,,,,,,,,105.3619,105.5601,105.5602,106.0603,,,,,,,,,,,,,,0.7661,1,,,,,,,,,,,,,,z,,,,,,,,,,,,,,,12,1,106.0605,106.8273,z,1,0.7661,,[],[],[],[],[],[],[],106.8273,108.8269,108.8269,110.177,[],[],[],[],[],[],[],m,1.3368,,110.1771,110.1772,0.082703993,-0.146966146,0,0,0,,0,11,11,74,1,4,TL,rerite,print,rerite_p.png,,,
,,,,31194,001,2025-11-06_11h18.19.669,HW_LDT_1,2024.2.4,MacIntel,60.24096386,,,,,,,,,,,,,,,,,,,,110.178,110.377,110.377,110.8772,,,,,,,,,,,,,,2.0858,1,,,,,,,,,,,,,,z,,,,,,,,,,,,,,,13,0,110.8778,112.9772,z,1,2.0858,,[],[],[],[],[],[],[],112.9773,114.9771,114.9772,114.9774,[],[],[],[],[],[],[],,,,114.9774,114.9776,0.082703993,-0.146966146,0,0,0,,0,12,12,56,1,4,TL,donimant,cursive,donimant_c.png,,,
,,,,31194,001,2025-11-06_11h18.19.669,HW_LDT_1,2024.2.4,MacIntel,60.24096386,,,,,,,,,,,,,,,,,,,,114.9784,115.1772,115.1773,115.6764,,,,,,,,,,,,,,1.3759,1,,,,,,,,,,,,,,z,,,,,,,,,,,,,,,14,0,115.6769,117.0605,z,1,1.3759,,[],[],[],[],[],[],[],117.0606,119.0607,119.0607,119.0608,[],[],[],[],[],[],[],,,,119.0609,119.0609,0.082703993,-0.146966146,0,0,0,,0,13,13,53,1,4,TL,cemerony,print,cemerony_p.png,,,
,,,,31194,001,2025-11-06_11h18.19.669,HW_LDT_1,2024.2.4,MacIntel,60.24096386,,,,,,,,,,,,,,,,,,,,119.0618,119.2605,119.2605,119.7603,,,,,,,,,,,,,,1.1369,1,,,,,,,,,,,,,,z,,,,,,,,,,,,,,,15,0,119.7607,120.9103,z,1,1.1369,,[],[],[],[],[],[],[],120.9104,122.9107,122.9107,122.9109,[],[],[],[],[],[],[],,,,122.9109,122.911,0.082703993,-0.146966146,0,0,0,,0,14,14,10,1,4,RL,carminal,cursive,carminal_c.png,,,
,,,,31194,001,2025-11-06_11h18.19.669,HW_LDT_1,2024.2.4,MacIntel,60.24096386,,,,,,,,,,,,,,,,,,,,122.9118,123.1105,123.1106,123.6106,,,,,,,,,,,,,,0.5918,1,,,,,,,,,,,,,,m,,,,,,,,,,,,,,,16,1,123.6111,124.2108,m,1,0.5918,,[],[],[],[],[],[],[],124.2108,126.2107,126.2108,128.7277,[],[],[],[],[],[],[],z,2.506,,128.7278,128.728,0.082703993,-0.146966146,0,0,0,,0,15,15,155,1,4,word,STRATEGY,print,strategy_p.png,,,
,,,,31194,001,2025-11-06_11h18.19.669,HW_LDT_1,2024.2.4,MacIntel,60.24096386,,,,,,,,,,,,,,,,,,,,128.7294,128.9274,128.9274,129.4276,,,,,,,,,,,,,,1.8025,0,,,,,,,,,,,,,,m,,,,,,,,,,,,,,,17,0,129.4281,131.2443,z,0,1.8025,,[],[],[],[],[],[],[],131.2444,133.2443,133.2443,133.2445,[],[],[],[],[],[],[],,,,133.2446,133.2447,0.082703993,-0.146966146,0,0,0,,0,16,16,101,1,4,word,DELICATE,cursive,delicate_c.png,,,
,,,,31194,001,2025-11-06_11h18.19.669,HW_LDT_1,2024.2.4,MacIntel,60.24096386,,,,,,,,,,,,,,,,,,,,133.2461,133.4443,133.4444,133.9442,,,,,,,,,,,,,,1.253,0,,,,,,,,,,,,,,z,,,,,,,,,,,,,,,18,1,133.9446,135.2111,m,0,1.253,,[],[],[],[],[],[],[],135.2112,137.2109,137.211,138.2611,[],[],[],[],[],[],[],z,1.0376,,138.2612,138.2614,0.082703993,-0.146966146,0,0,0,,0,17,17,39,1,4,RL,relone,cursive,relone_c.png,,,
,,,,31194,001,2025-11-06_11h18.19.669,HW_LDT_1,2024.2.4,MacIntel,60.24096386,,,,,,,,,,,,,,,,,,,,138.2625,138.461,138.461,138.9611,,,,,,,,,,,,,,1.3874,1,,,,,,,,,,,,,,z,,,,,,,,,,,,,,,19,1,138.9615,140.3614,z,1,1.3874,,[],[],[],[],[],[],[],140.3615,142.361,142.3611,143.5281,[],[],[],[],[],[],[],m,1.154,,143.5281,143.5284,0.082703993,-0.146966146,0,0,0,,0,18,18,79,1,4,TL,tritube,print,tritube_p.png,,,
,,,,31194,001,2025-11-06_11h18.19.669,HW_LDT_1,2024.2.4,MacIntel,60.24096386,,,,,,,,,,,,,,,,,,,,143.5296,143.7277,143.7277,144.2276,,,,,,,,,,,,,,1.3135,1,,,,,,,,,,,,,,z,,,,,,,,,,,,,,,20,0,144.228,145.5446,z,1,1.3135,,[],[],[],[],[],[],[],145.5446,147.5445,147.5446,147.5448,[],[],[],[],[],[],[],,,,147.5448,147.5449,0.082703993,-0.146966146,0,0,0,,0,19,19,2,1,4,RL,asiral,cursive,asiral_c.png,,,
,,,,31194,001,2025-11-06_11h18.19.669,HW_LDT_1,2024.2.4,MacIntel,60.24096386,,,,,,,,,,,,,,,,,,,,147.5461,147.7445,147.7445,148.2442,,,,,,,,,,,,,,1.7199,1,,,,,,,,,,,,,,m,,,,,,,,,,,,,,,21,0,148.2446,149.9782,m,1,1.7199,,[],[],[],[],[],[],[],149.9782,151.9782,151.9782,151.9785,[],[],[],[],[],[],[],,,,151.9785,151.9786,0.082703993,-0.146966146,0,0,0,,0,20,20,82,1,4,word,AMATEUR,cursive,amateur_c.png,,,
,,,,31194,001,2025-11-06_11h18.19.669,HW_LDT_1,2024.2.4,MacIntel,60.24096386,,,,,,,,,,,,,,,,,,,,151.9799,152.1779,152.178,152.6782,,,,,,,,,,,,,,2.1316,1,,,,,,,,,,,,,,z,,,,,,,,,,,,,,,22,0,152.6788,154.8116,z,1,2.1316,,[],[],[],[],[],[],[],154.8117,156.8117,156.8118,156.812,[],[],[],[],[],[],[],,,,156.812,156.8122,0.082703993,-0.146966146,0,0,0,,0,21,21,36,1,4,RL,rabigly,cursive,rabigly_c.png,,,
,,,,31194,001,2025-11-06_11h18.19.669,HW_LDT_1,2024.2.4,MacIntel,60.24096386,,,,,,,,,,,,,,,,,,,,156.8136,157.0117,157.0117,157.5116,,,,,,,,,,,,,,0.7696,1,,,,,,,,,,,,,,m,,,,,,,,,,,,,,,23,0,157.5121,158.2951,m,1,0.7696,,[],[],[],[],[],[],[],158.2953,160.2941,160.2942,160.2943,[],[],[],[],[],[],[],,,,160.2943,160.2944,0.082703993,-0.146966146,0,0,0,,0,22,22,117,1,4,word,MARINE,print,marine_p.png,,,
,,,,31194,001,2025-11-06_11h18.19.669,HW_LDT_1,2024.2.4,MacIntel,60.24096386,,,,,,,,,,,,,,,,,,,,160.2953,160.495,160.4951,160.9949,,,,,,,,,,,,,,0.7205,1,,,,,,,,,,,,,,m,,,,,,,,,,,,,,,24,0,160.9953,161.7284,m,1,0.7205,,[],[],[],[],[],[],[],161.7284,163.7283,163.7284,163.7284,[],[],[],[],[],[],[],,,,163.7285,163.7286,0.082703993,-0.146966146,0,0,0,,0,23,23,95,1,4,word,COMEDY,print,comedy_p.png,,,
,,,,31194,001,2025-11-06_11h18.19.669,HW_LDT_1,2024.2.4,MacIntel,60.24096386,,,,,,,,,,,,,,,,,,,,163.7293,163.9281,163.9282,164.4282,,,,,,,,,,,,,,0.7478,1,,,,,,,,,,,,,,m,,,,,,,,,,,,,,,25,1,164.4285,165.1783,m,1,0.7478,,[],[],[],[],[],[],[],165.1783,167.1785,167.1785,168.0955,[],[],[],[],[],[],[],m,0.9091,,168.0956,168.0958,0.082703993,-0.146966146,0,0,0,,0,24,24,136,1,4,word,RADICAL,print,radical_p.png,,,
,,,,31194,001,2025-11-06_11h18.19.669,HW_LDT_1,2024.2.4,MacIntel,60.24096386,,,,,,,,,,,,,,,,,,,,168.0973,168.2953,168.2953,168.7952,,,,,,,,,,,,,,0.7872,1,,,,,,,,,,,,,,z,,,,,,,,,,,,,,,26,0,168.7956,169.5952,z,1,0.7872,,[],[],[],[],[],[],[],169.5953,171.5948,171.5949,171.5951,[],[],[],[],[],[],[],,,,171.5951,171.5951,0.082703993,-0.146966146,0,0,0,,0,25,25,27,1,4,RL,menowy,print,menowy_p.png,,,
,,,,31194,001,2025-11-06_11h18.19.669,HW_LDT_1,2024.2.4,MacIntel,60.24096386,,,,,,,,,,,,,,,,,,,,171.5959,171.7951,171.7952,172.2952,,,,,,,,,,,,,,0.6196,1,,,,,,,,,,,,,,m,,,,,,,,,,,,,,,27,0,172.2956,172.9286,m,1,0.6196,,[],[],[],[],[],[],[],172.9288,174.9288,174.9289,174.9291,[],[],[],[],[],[],[],,,,174.9293,174.9293,0.082703993,-0.146966146,0,0,0,,0,26,26,127,1,4,word,ORIGINAL,print,original_p.png,,,
,,,,31194,001,2025-11-06_11h18.19.669,HW_LDT_1,2024.2.4,MacIntel,60.24096386,,,,,,,,,,,,,,,,,,,,174.9305,175.1286,175.1286,175.6286,,,,,,,,,,,,,,1.7364,1,,,,,,,,,,,,,,z,,,,,,,,,,,,,,,28,0,175.629,177.3784,z,1,1.7364,,[],[],[],[],[],[],[],177.3785,179.3789,179.3789,179.3792,[],[],[],[],[],[],[],,,,179.3793,179.3793,0.082703993,-0.146966146,0,0,0,,0,27,27,4,1,4,RL,betemit,cursive,betemit_c.png,,,
,,,,31194,001,2025-11-06_11h18.19.669,HW_LDT_1,2024.2.4,MacIntel,60.24096386,,,,,,,,,,,,,,,,,,,,179.3805,179.5787,179.5788,180.0787,,,,,,,,,,,,,,0.8494,1,,,,,,,,,,,,,,z,,,,,,,,,,,,,,,29,0,180.0791,180.9289,z,1,0.8494,,[],[],[],[],[],[],[],180.929,182.9289,182.9289,182.929,[],[],[],[],[],[],[],,,,182.929,182.9291,0.082703993,-0.146966146,0,0,0,,0,28,28,28,1,4,RL,mifikary,print,mifikary_p.png,,,
,,,,31194,001,2025-11-06_11h18.19.669,HW_LDT_1,2024.2.4,MacIntel,60.24096386,,,,,,,,,,,,,,,,,,,,182.9298,183.1288,183.1289,183.6285,,,,,,,,,,,,,,1.4042,1,,,,,,,,,,,,,,z,,,,,,,,,,,,,,,30,0,183.6288,185.0457,z,1,1.4042,,[],[],[],[],[],[],[],185.0458,187.0456,187.0456,187.0458,[],[],[],[],[],[],[],,,,187.0458,187.0458,0.082703993,-0.146966146,0,0,0,,0,29,29,52,1,4,TL,cagetory,cursive,cagetory_c.png,,,
,,,,31194,001,2025-11-06_11h18.19.669,HW_LDT_1,2024.2.4,MacIntel,60.24096386,,,,,,,,,,,,,,,,,,,,187.0466,187.2456,187.2456,187.7456,,,,,,,,,,,,,,0.9254,1,,,,,,,,,,,,,,z,,,,,,,,,,,,,,,31,0,187.7459,188.6789,z,1,0.9254,,[],[],[],[],[],[],[],188.6791,190.679,190.679,190.6791,[],[],[],[],[],[],[],,,,190.6792,190.6793,0.082703993,-0.146966146,0,0,0,,0,30,30,67,1,4,TL,polupar,print,polupar_p.png,,,
,,,,31194,001,2025-11-06_11h18.19.669,HW_LDT_1,2024.2.4,MacIntel,60.24096386,,,,,,,,,,,,,,,,,,,,190.6806,190.879,190.879,191.3791,,,,,,,,,,,,,,1.0194,1,,,,,,,,,,,,,,z,,,,,,,,,,,,,,,32,1,191.3796,192.4126,z,1,1.0194,,[],[],[],[],[],[],[],192.4128,194.4119,194.4119,195.5284,[],[],[],[],[],[],[],z,1.1051,,195.5284,195.5285,0.082703993,-0.146966146,0,0,0,,0,31,31,33,1,4,RL,pamest,cursive,pamest_c.png,,,
,,,,31194,001,2025-11-06_11h18.19.669,HW_LDT_1,2024.2.4,MacIntel,60.24096386,,,,,,,,,,,,,,,,,,,,195.5292,195.7291,195.7291,196.2291,,,,,,,,,,,,,,1.2531,1,,,,,,,,,,,,,,m,,,,,,,,,,,,,,,33,0,196.2294,197.4954,m,1,1.2531,,[],[],[],[],[],[],[],197.4955,199.496,199.4961,199.4964,[],[],[],[],[],[],[],,,,199.4965,199.4966,0.082703993,-0.146966146,0,0,0,,0,32,32,116,1,4,word,MARGINAL,cursive,marginal_c.png,,,
,,,,31194,001,2025-11-06_11h18.19.669,HW_LDT_1,2024.2.4,MacIntel,60.24096386,,,,,,,,,,,,,,,,,,,,199.4977,199.6959,199.6959,200.1959,,,,,,,,,,,,,,3.2087,1,,,,,,,,,,,,,,z,,,,,,,,,,,,,,,34,0,200.1964,203.4126,z,1,3.2087,,[],[],[],[],[],[],[],203.4127,205.4128,205.4129,205.413,[],[],[],[],[],[],[],,,,205.4131,205.4131,0.082703993,-0.146966146,0,0,0,,0,33,33,23,1,4,RL,linefal,cursive,linefal_c.png,,,
,,,,31194,001,2025-11-06_11h18.19.669,HW_LDT_1,2024.2.4,MacIntel,60.24096386,,,,,,,,,,,,,,,,,,,,205.4142,205.6127,205.6127,206.1122,,,,,,,,,,,,,,1.4529,1,,,,,,,,,,,,,,z,,,,,,,,,,,,,,,35,0,206.1127,207.5795,z,1,1.4529,,[],[],[],[],[],[],[],207.5796,209.5795,209.5795,209.5796,[],[],[],[],[],[],[],,,,209.5796,209.5796,0.082703993,-0.146966146,0,0,0,,0,34,34,12,1,4,RL,conbicer,cursive,conbicer_c.png,,,
,,,,31194,001,2025-11-06_11h18.19.669,HW_LDT_1,2024.2.4,MacIntel,60.24096386,,,,,,,,,,,,,,,,,,,,209.5804,209.7795,209.7795,210.2795,,,,,,,,,,,,,,0.9977,1,,,,,,,,,,,,,,z,,,,,,,,,,,,,,,36,0,210.28,211.2796,z,1,0.9977,,[],[],[],[],[],[],[],211.2797,213.2795,213.2796,213.2797,[],[],[],[],[],[],[],,,,213.2797,213.2797,0.082703993,-0.146966146,0,0,0,,0,35,35,25,1,4,RL,macise,print,macise_p.png,,,
,,,,31194,001,2025-11-06_11h18.19.669,HW_LDT_1,2024.2.4,MacIntel,60.24096386,,,,,,,,,,,,,,,,,,,,213.2805,213.4796,213.4796,213.9797,,,,,,,,,,,,,,2.4361,1,,,,,,,,,,,,,,z,,,,,,,,,,,,,,,37,0,213.9802,216.4298,z,1,2.4361,,[],[],[],[],[],[],[],216.4298,218.4298,218.4298,218.4301,[],[],[],[],[],[],[],,,,218.4301,218.4302,0.082703993,-0.146966146,0,0,0,,0,36,36,41,1,4,RL,rebicent,cursive,rebicent_c.png,,,
,,,,31194,001,2025-11-06_11h18.19.669,HW_LDT_1,2024.2.4,MacIntel,60.24096386,,,,,,,,,,,,,,,,,,,,218.4313,218.6297,218.6297,219.1299,,,,,,,,,,,,,,0.853,0,,,,,,,,,,,,,,z,,,,,,,,,,,,,,,38,0,219.1304,219.9962,m,0,0.853,,[],[],[],[],[],[],[],219.9963,221.9965,221.9965,221.9966,[],[],[],[],[],[],[],,,,221.9966,221.9967,0.082703993,-0.146966146,0,0,0,,0,37,37,51,1,4,TL,adsivory,cursive,adsivory_c.png,,,
,,,,31194,001,2025-11-06_11h18.19.669,HW_LDT_1,2024.2.4,MacIntel,60.24096386,,,,,,,,,,,,,,,,,,,,221.9975,222.1967,222.1967,222.6965,,,,,,,,,,,,,,0.8862,1,,,,,,,,,,,,,,z,,,,,,,,,,,,,,,39,0,222.697,223.5967,z,1,0.8862,,[],[],[],[],[],[],[],223.5968,225.5966,225.5966,225.5967,[],[],[],[],[],[],[],,,,225.5968,225.5968,0.082703993,-0.146966146,0,0,0,,0,38,38,64,1,4,TL,moredate,print,moredate_p.png,,,
,,,,31194,001,2025-11-06_11h18.19.669,HW_LDT_1,2024.2.4,MacIntel,60.24096386,,,,,,,,,,,,,,,,,,,,225.5979,225.7967,225.7967,226.2965,,,,,,,,,,,,,,0.9036,1,,,,,,,,,,,,,,z,,,,,,,,,,,,,,,40,0,226.2968,227.2131,z,1,0.9036,,[],[],[],[],[],[],[],227.2131,229.2128,229.2129,229.213,[],[],[],[],[],[],[],,,,229.213,229.2131,0.082703993,-0.146966146,0,0,0,,0,39,39,16,1,4,RL,desifate,cursive,desifate_c.png,,,
,,,,31194,001,2025-11-06_11h18.19.669,HW_LDT_1,2024.2.4,MacIntel,60.24096386,,,,,,,,,,,,,,,,,,,,229.2138,229.4133,229.4133,229.9133,,,,,,,,,,,,,,0.7528,1,,,,,,,,,,,,,,m,,,,,,,,,,,,,,,41,1,229.9137,230.6801,m,1,0.7528,,[],[],[],[],[],[],[],230.6802,232.6801,232.6801,234.0135,[],[],[],[],[],[],[],z,1.3258,,234.0135,234.0136,0.082703993,-0.146966146,0,0,0,,0,40,40,134,1,4,word,QUALIFY,print,qualify_p.png,,,
,,,,31194,001,2025-11-06_11h18.19.669,HW_LDT_1,2024.2.4,MacIntel,60.24096386,,,,,,,,,,,,,,,,,,,,234.0144,234.2134,234.2134,234.713,,,,,,,,,,,,,,1.0384,0,,,,,,,,,,,,,,m,,,,,,,,,,,,,,,42,0,234.7133,235.7636,z,0,1.0384,,[],[],[],[],[],[],[],235.7637,237.7636,237.7637,237.764,[],[],[],[],[],[],[],,,,237.764,237.7641,0.082703993,-0.146966146,0,0,0,,0,41,41,139,1,4,word,REGULAR,cursive,regular_c.png,,,
,,,,31194,001,2025-11-06_11h18.19.669,HW_LDT_1,2024.2.4,MacIntel,60.24096386,,,,,,,,,,,,,,,,,,,,237.7659,237.9635,237.9636,238.4635,,,,,,,,,,,,,,0.7594,0,,,,,,,,,,,,,,m,,,,,,,,,,,,,,,43,0,238.4639,239.2307,z,0,0.7594,,[],[],[],[],[],[],[],239.2308,241.2303,241.2304,241.2306,[],[],[],[],[],[],[],,,,241.2307,241.2308,0.082703993,-0.146966146,0,0,0,,0,42,42,142,1,4,word,REMOTE,cursive,remote_c.png,,,
,,,,31194,001,2025-11-06_11h18.19.669,HW_LDT_1,2024.2.4,MacIntel,60.24096386,,,,,,,,,,,,,,,,,,,,241.2318,241.4303,241.4304,241.9299,,,,,,,,,,,,,,0.8714,1,,,,,,,,,,,,,,m,,,,,,,,,,,,,,,44,0,241.9305,242.814,m,1,0.8714,,[],[],[],[],[],[],[],242.8141,244.8137,244.8138,244.8139,[],[],[],[],[],[],[],,,,244.8139,244.814,0.082703993,-0.146966146,0,0,0,,0,43,43,152,1,4,word,SPECIMEN,cursive,specimen_c.png,,,
,,,,31194,001,2025-11-06_11h18.19.669,HW_LDT_1,2024.2.4,MacIntel,60.24096386,,,,,,,,,,,,,,,,,,,,244.8148,245.0139,245.0139,245.5138,,,,,,,,,,,,,,0.7417,1,,,,,,,,,,,,,,m,,,,,,,,,,,,,,,45,0,245.5142,246.2629,m,1,0.7417,,[],[],[],[],[],[],[],246.2631,248.2637,248.2637,248.2638,[],[],[],[],[],[],[],,,,248.2639,248.2639,0.082703993,-0.146966146,0,0,0,,0,44,44,104,1,4,word,DOMINANT,cursive,dominant_c.png,,,
,,,,31194,001,2025-11-06_11h18.19.669,HW_LDT_1,2024.2.4,MacIntel,60.24096386,,,,,,,,,,,,,,,,,,,,248.2646,248.4637,248.4638,248.9638,,,,,,,,,,,,,,1.0826,1,,,,,,,,,,,,,,m,,,,,,,,,,,,,,,46,0,248.9642,250.0474,m,1,1.0826,,[],[],[],[],[],[],[],250.0475,252.0463,252.0465,252.0465,[],[],[],[],[],[],[],,,,252.0466,252.0466,0.082703993,-0.146966146,0,0,0,,0,45,45,133,1,4,word,PROVIDE,cursive,provide_c.png,,,
,,,,31194,001,2025-11-06_11h18.19.669,HW_LDT_1,2024.2.4,MacIntel,60.24096386,,,,,,,,,,,,,,,,,,,,252.0474,252.2474,252.2474,252.7473,,,,,,,,,,,,,,2.636,1,,,,,,,,,,,,,,z,,,,,,,,,,,,,,,47,0,252.7479,255.3973,z,1,2.636,,[],[],[],[],[],[],[],255.3974,257.3973,257.3974,257.3975,[],[],[],[],[],[],[],,,,257.3975,257.3976,0.082703993,-0.146966146,0,0,0,,0,46,46,14,1,4,RL,delahe,cursive,delahe_c.png,,,
,,,,31194,001,2025-11-06_11h18.19.669,HW_LDT_1,2024.2.4,MacIntel,60.24096386,,,,,,,,,,,,,,,,,,,,257.3987,257.5973,257.5974,258.0974,,,,,,,,,,,,,,3.2699,1,,,,,,,,,,,,,,z,,,,,,,,,,,,,,,48,0,258.0976,261.381,z,1,3.2699,,[],[],[],[],[],[],[],261.381,263.3802,263.3803,263.3805,[],[],[],[],[],[],[],,,,263.3805,263.3806,0.082703993,-0.146966146,0,0,0,,0,47,47,30,1,4,RL,nunewical,cursive,nunewical_c.png,,,
,,,,31194,001,2025-11-06_11h18.19.669,HW_LDT_1,2024.2.4,MacIntel,60.24096386,,,,,,,,,,,,,,,,,,,,263.3812,263.5809,263.5809,264.081,,,,,,,,,,,,,,1.2029,1,,,,,,,,,,,,,,m,,,,,,,,,,,,,,,49,0,264.0815,265.2978,m,1,1.2029,,[],[],[],[],[],[],[],265.2979,267.2976,267.2977,267.2977,[],[],[],[],[],[],[],,,,267.2977,267.2978,0.082703993,-0.146966146,0,0,0,,0,48,48,151,1,4,word,SPECIFIC,cursive,specific_c.png,,,
,,,,31194,001,2025-11-06_11h18.19.669,HW_LDT_1,2024.2.4,MacIntel,60.24096386,,,,,,,,,,,,,,,,,,,,267.2986,267.4976,267.4976,267.997,,,,,,,,,,,,,,0.8707,0,,,,,,,,,,,,,,z,,,,,,,,,,,,,,,50,0,267.9974,268.8811,m,0,0.8707,,[],[],[],[],[],[],[],268.8811,270.8811,270.8811,270.8812,[],[],[],[],[],[],[],,,,270.8812,270.8812,0.082703993,-0.146966146,0,0,0,,0,49,49,73,1,4,TL,regilion,print,regilion_p.png,,,
,,,,31194,001,2025-11-06_11h18.19.669,HW_LDT_1,2024.2.4,MacIntel,60.24096386,,,,,,,,,,,,,,,,,,,,270.882,271.0804,271.0804,271.5811,,,,,,,,,,,,,,0.6699,1,,,,,,,,,,,,,,m,,,,,,,,,,,,,,,51,0,271.5814,272.2648,m,1,0.6699,,[],[],[],[],[],[],[],272.2649,274.2645,274.2646,274.2647,[],[],[],[],[],[],[],,,,274.2647,274.2648,0.082703993,-0.146966146,0,0,0,,0,50,50,110,1,4,word,HERITAGE,print,heritage_p.png,,,
,,,,31194,001,2025-11-06_11h18.19.669,HW_LDT_1,2024.2.4,MacIntel,60.24096386,,,,,,,,,,,,,,,,,,,,274.2655,274.4645,274.4645,274.9644,,,,,,,,,,,,,,0.8371,1,,,,,,,,,,,,,,z,,,,,,,,,,,,,,,52,1,274.9648,275.8148,z,1,0.8371,,[],[],[],[],[],[],[],275.8148,277.8146,277.8146,278.7979,[],[],[],[],[],[],[],m,0.9821,,278.798,278.798,0.082703993,-0.146966146,0,0,0,,0,51,51,11,1,4,RL,clisimal,print,clisimal_p.png,,,
,,,,31194,001,2025-11-06_11h18.19.669,HW_LDT_1,2024.2.4,MacIntel,60.24096386,,,,,,,,,,,,,,,,,,,,278.7988,278.9979,278.9979,279.4979,,,,,,,,,,,,,,1.0715,1,,,,,,,,,,,,,,m,,,,,,,,,,,,,,,53,1,279.4982,280.5815,m,1,1.0715,,[],[],[],[],[],[],[],280.5817,282.5805,282.5806,283.5815,[],[],[],[],[],[],[],z,0.9886,,283.5816,283.5818,0.082703993,-0.146966146,0,0,0,,0,52,52,83,1,4,word,ANIMAL,cursive,animal_c.png,,,
,,,,31194,001,2025-11-06_11h18.19.669,HW_LDT_1,2024.2.4,MacIntel,60.24096386,,,,,,,,,,,,,,,,,,,,283.583,283.7813,283.7813,284.2815,,,,,,,,,,,,,,1.099,1,,,,,,,,,,,,,,z,,,,,,,,,,,,,,,54,1,284.2821,285.3818,z,1,1.099,,[],[],[],[],[],[],[],285.3819,287.3816,287.3816,288.5649,[],[],[],[],[],[],[],z,1.1753,,288.5649,288.565,0.082703993,-0.146966146,0,0,0,,0,53,53,72,1,4,TL,relugar,cursive,relugar_c.png,,,
,,,,31194,001,2025-11-06_11h18.19.669,HW_LDT_1,2024.2.4,MacIntel,60.24096386,,,,,,,,,,,,,,,,,,,,288.5658,288.7642,288.7642,289.2648,,,,,,,,,,,,,,0.8476,1,,,,,,,,,,,,,,m,,,,,,,,,,,,,,,55,0,289.2652,290.1149,m,1,0.8476,,[],[],[],[],[],[],[],290.115,292.115,292.115,292.1151,[],[],[],[],[],[],[],,,,292.1151,292.1152,0.082703993,-0.146966146,0,0,0,,0,54,54,100,1,4,word,DECADE,cursive,decade_c.png,,,
,,,,31194,001,2025-11-06_11h18.19.669,HW_LDT_1,2024.2.4,MacIntel,60.24096386,,,,,,,,,,,,,,,,,,,,292.1159,292.315,292.315,292.815,,,,,,,,,,,,,,0.8193,1,,,,,,,,,,,,,,z,,,,,,,,,,,,,,,56,0,292.8155,293.6484,z,1,0.8193,,[],[],[],[],[],[],[],293.6484,295.6485,295.6486,295.6488,[],[],[],[],[],[],[],,,,295.6489,295.6489,0.082703993,-0.146966146,0,0,0,,0,55,55,38,1,4,RL,refakive,print,refakive_p.png,,,
,,,,31194,001,2025-11-06_11h18.19.669,HW_LDT_1,2024.2.4,MacIntel,60.24096386,,,,,,,,,,,,,,,,,,,,295.6499,295.8485,295.8485,296.3484,,,,,,,,,,,,,,1.2582,1,,,,,,,,,,,,,,z,,,,,,,,,,,,,,,57,1,296.3488,297.6145,z,1,1.2582,,[],[],[],[],[],[],[],297.6146,299.6152,299.6152,300.7153,[],[],[],[],[],[],[],z,1.0867,,300.7155,300.7156,0.082703993,-0.146966146,0,0,0,,0,56,56,34,1,4,RL,posity,cursive,posity_c.png,,,
,,,,31194,001,2025-11-06_11h18.19.669,HW_LDT_1,2024.2.4,MacIntel,60.24096386,,,,,,,,,,,,,,,,,,,,300.7169,300.9153,300.9155,301.4151,,,,,,,,,,,,,,0.7085,1,,,,,,,,,,,,,,m,,,,,,,,,,,,,,,58,0,301.4155,302.1319,m,1,0.7085,,[],[],[],[],[],[],[],302.1319,304.132,304.132,304.1321,[],[],[],[],[],[],[],,,,304.1322,304.1322,0.082703993,-0.146966146,0,0,0,,0,57,57,80,1,4,word,ACADEMY,print,academy_p.png,,,
,,,,31194,001,2025-11-06_11h18.19.669,HW_LDT_1,2024.2.4,MacIntel,60.24096386,,,,,,,,,,,,,,,,,,,,304.1329,304.3319,304.3319,304.8322,,,,,,,,,,,,,,0.808,1,,,,,,,,,,,,,,m,,,,,,,,,,,,,,,59,0,304.8327,305.6488,m,1,0.808,,[],[],[],[],[],[],[],305.6488,307.6486,307.6487,307.6487,[],[],[],[],[],[],[],,,,307.6487,307.6488,0.082703993,-0.146966146,0,0,0,,0,58,58,125,1,4,word,OPERATOR,print,operator_p.png,,,
,,,,31194,001,2025-11-06_11h18.19.669,HW_LDT_1,2024.2.4,MacIntel,60.24096386,,,,,,,,,,,,,,,,,,,,307.6495,307.8487,307.8488,308.3487,,,,,,,,,,,,,,0.6697,1,,,,,,,,,,,,,,m,,,,,,,,,,,,,,,60,0,308.3493,309.0322,m,1,0.6697,,[],[],[],[],[],[],[],309.0324,311.0321,311.0321,311.0322,[],[],[],[],[],[],[],,,,311.0323,311.0324,0.082703993,-0.146966146,0,0,0,,0,59,59,146,1,4,word,RETIRE,print,retire_p.png,,,
,,,,31194,001,2025-11-06_11h18.19.669,HW_LDT_1,2024.2.4,MacIntel,60.24096386,,,,,,,,,,,,,,,,,,,,311.0331,311.2322,311.2322,311.7318,,,,,,,,,,,,,,1.4812,1,,,,,,,,,,,,,,z,,,,,,,,,,,,,,,61,0,311.7321,313.2154,z,1,1.4812,,[],[],[],[],[],[],[],313.2154,315.2156,315.2156,315.2158,[],[],[],[],[],[],[],,,,315.2158,315.2159,0.082703993,-0.146966146,0,0,0,,0,60,60,35,1,4,RL,probice,cursive,probice_c.png,,,
,,,,31194,001,2025-11-06_11h18.19.669,HW_LDT_1,2024.2.4,MacIntel,60.24096386,,,,,,,,,,,,,,,,,,,,315.2169,315.4155,315.4156,315.9152,,,,,,,,,,,,,,0.6096,1,,,,,,,,,,,,,,m,,,,,,,,,,,,,,,62,1,315.9155,316.5323,m,1,0.6096,,[],[],[],[],[],[],[],316.5324,318.5322,318.5322,319.4656,[],[],[],[],[],[],[],m,0.9203,,319.4657,319.4657,0.082703993,-0.146966146,0,0,0,,0,61,61,143,1,4,word,REMOVAL,print,removal_p.png,,,
,,,,31194,001,2025-11-06_11h18.19.669,HW_LDT_1,2024.2.4,MacIntel,60.24096386,,,,,,,,,,,,,,,,,,,,319.4664,319.6656,319.6657,320.1659,,,,,,,,,,,,,,0.7858,1,,,,,,,,,,,,,,z,,,,,,,,,,,,,,,63,0,320.1665,320.9658,z,1,0.7858,,[],[],[],[],[],[],[],320.9659,322.9657,322.9658,322.9659,[],[],[],[],[],[],[],,,,322.9659,322.966,0.082703993,-0.146966146,0,0,0,,0,62,62,20,1,4,RL,gralekul,print,gralekul_p.png,,,
,,,,31194,001,2025-11-06_11h18.19.669,HW_LDT_1,2024.2.4,MacIntel,60.24096386,,,,,,,,,,,,,,,,,,,,322.9667,323.1658,323.1659,323.6658,,,,,,,,,,,,,,1.075,1,,,,,,,,,,,,,,m,,,,,,,,,,,,,,,64,0,323.6661,324.7492,m,1,1.075,,[],[],[],[],[],[],[],324.7492,326.7491,326.7491,326.7493,[],[],[],[],[],[],[],,,,326.7493,326.7493,0.082703993,-0.146966146,0,0,0,,0,63,63,88,1,4,word,CAMERA,print,camera_p.png,,,
,,,,31194,001,2025-11-06_11h18.19.669,HW_LDT_1,2024.2.4,MacIntel,60.24096386,,,,,,,,,,,,,,,,,,,,326.75,326.949,326.9491,327.4492,,,,,,,,,,,,,,0.853,1,,,,,,,,,,,,,,z,,,,,,,,,,,,,,,65,0,327.4496,328.316,z,1,0.853,,[],[],[],[],[],[],[],328.316,330.3159,330.316,330.316,[],[],[],[],[],[],[],,,,330.3161,330.3161,0.082703993,-0.146966146,0,0,0,,0,64,64,70,1,4,TL,quatily,print,quatily_p.png,,,
,,,,31194,001,2025-11-06_11h18.19.669,HW_LDT_1,2024.2.4,MacIntel,60.24096386,,,,,,,,,,,,,,,,,,,,330.3168,330.515,330.5151,331.0153,,,,,,,,,,,,,,1.8876,0,,,,,,,,,,,,,,m,,,,,,,,,,,,,,,66,0,331.0157,332.9154,z,0,1.8876,,[],[],[],[],[],[],[],332.9156,334.916,334.916,334.9162,[],[],[],[],[],[],[],,,,334.9162,334.9162,0.082703993,-0.146966146,0,0,0,,0,65,65,114,1,4,word,LOCATE,cursive,locate_c.png,,,
,,,,31194,001,2025-11-06_11h18.19.669,HW_LDT_1,2024.2.4,MacIntel,60.24096386,,,,,,,,,,,,,,,,,,,,334.917,335.116,335.116,335.6155,,,,,,,,,,,,,,1.3986,1,,,,,,,,,,,,,,m,,,,,,,,,,,,,,,67,0,335.6158,337.016,m,1,1.3986,,[],[],[],[],[],[],[],337.0162,339.0162,339.0162,339.0163,[],[],[],[],[],[],[],,,,339.0163,339.0165,0.082703993,-0.146966146,0,0,0,,0,66,66,106,1,4,word,ELABORATE,cursive,elaborate_c.png,,,
,,,,31194,001,2025-11-06_11h18.19.669,HW_LDT_1,2024.2.4,MacIntel,60.24096386,,,,,,,,,,,,,,,,,,,,339.0172,339.2161,339.2162,339.7162,,,,,,,,,,,,,,1.9548,1,,,,,,,,,,,,,,z,,,,,,,,,,,,,,,68,0,339.7168,341.6827,z,1,1.9548,,[],[],[],[],[],[],[],341.6827,343.683,343.683,343.6832,[],[],[],[],[],[],[],,,,343.6832,343.6833,0.082703993,-0.146966146,0,0,0,,0,67,67,45,1,4,RL,spetisic,cursive,spetisic_c.png,,,
,,,,31194,001,2025-11-06_11h18.19.669,HW_LDT_1,2024.2.4,MacIntel,60.24096386,,,,,,,,,,,,,,,,,,,,343.6844,343.8831,343.8831,344.383,,,,,,,,,,,,,,1.3711,1,,,,,,,,,,,,,,m,,,,,,,,,,,,,,,69,1,344.3835,345.7663,m,1,1.3711,,[],[],[],[],[],[],[],345.7663,347.7653,347.7653,348.7165,[],[],[],[],[],[],[],z,0.9396,,348.7166,348.7167,0.082703993,-0.146966146,0,0,0,,0,68,68,89,1,4,word,CAPACITY,cursive,capacity_c.png,,,
,,,,31194,001,2025-11-06_11h18.19.669,HW_LDT_1,2024.2.4,MacIntel,60.24096386,,,,,,,,,,,,,,,,,,,,348.7178,348.9165,348.9165,349.4163,,,,,,,,,,,,,,0.7201,1,,,,,,,,,,,,,,m,,,,,,,,,,,,,,,70,0,349.4167,350.1489,m,1,0.7201,,[],[],[],[],[],[],[],350.149,352.1497,352.1498,352.1499,[],[],[],[],[],[],[],,,,352.1499,352.1499,0.082703993,-0.146966146,0,0,0,,0,69,69,105,1,4,word,EDITOR,print,editor_p.png,,,
,,,,31194,001,2025-11-06_11h18.19.669,HW_LDT_1,2024.2.4,MacIntel,60.24096386,,,,,,,,,,,,,,,,,,,,352.1507,352.3498,352.3498,352.8498,,,,,,,,,,,,,,0.9144,1,,,,,,,,,,,,,,z,,,,,,,,,,,,,,,71,0,352.8501,353.7666,z,1,0.9144,,[],[],[],[],[],[],[],353.7666,355.7661,355.7661,355.7663,[],[],[],[],[],[],[],,,,355.7663,355.7664,0.082703993,-0.146966146,0,0,0,,0,70,70,60,1,4,TL,hetirage,print,hetirage_p.png,,,
,,,,31194,001,2025-11-06_11h18.19.669,HW_LDT_1,2024.2.4,MacIntel,60.24096386,,,,,,,,,,,,,,,,,,,,355.7671,355.9665,355.9665,356.4656,,,,,,,,,,,,,,1.3539,1,,,,,,,,,,,,,,m,,,,,,,,,,,,,,,72,1,356.466,357.8333,m,1,1.3539,,[],[],[],[],[],[],[],357.8335,359.8333,359.8334,360.6499,[],[],[],[],[],[],[],z,0.8155,,360.6501,360.6501,0.082703993,-0.146966146,0,0,0,,0,71,71,159,1,4,word,VETERAN,cursive,veteran_c.png,,,
,,,,31194,001,2025-11-06_11h18.19.669,HW_LDT_1,2024.2.4,MacIntel,60.24096386,,,,,,,,,,,,,,,,,,,,360.6508,360.85,360.85,361.35,,,,,,,,,,,,,,1.1088,1,,,,,,,,,,,,,,m,,,,,,,,,,,,,,,73,0,361.3505,362.4668,m,1,1.1088,,[],[],[],[],[],[],[],362.467,364.4666,364.4667,364.4667,[],[],[],[],[],[],[],,,,364.4667,364.4668,0.074665799,-0.136362847,0,0,0,,0,72,72,111,1,4,word,INDICATE,print,indicate_p.png,,,
,,,,31194,001,2025-11-06_11h18.19.669,HW_LDT_1,2024.2.4,MacIntel,60.24096386,,,,,,,,,,,,,,,,,,,,364.4675,364.6668,364.6668,365.1667,,,,,,,,,,,,,,1.0924,1,,,,,,,,,,,,,,m,,,,,,,,,,,,,,,74,0,365.1671,366.266,m,1,1.0924,,[],[],[],[],[],[],[],366.2661,368.267,368.2671,368.2672,[],[],[],[],[],[],[],,,,368.2673,368.2674,0.074665799,-0.136362847,0,0,0,,0,73,73,96,1,4,word,CONSIDER,cursive,consider_c.png,,,
,,,,31194,001,2025-11-06_11h18.19.669,HW_LDT_1,2024.2.4,MacIntel,60.24096386,,,,,,,,,,,,,,,,,,,,368.2685,368.4668,368.4669,368.967,,,,,,,,,,,,,,0.6695,0,,,,,,,,,,,,,,z,,,,,,,,,,,,,,,75,0,368.9677,369.6503,m,0,0.6695,,[],[],[],[],[],[],[],369.6503,371.6503,371.6504,371.6505,[],[],[],[],[],[],[],,,,371.6505,371.6506,0.074665799,-0.136362847,0,0,0,,0,74,74,62,1,4,TL,locigal,print,locigal_p.png,,,
,,,,31194,001,2025-11-06_11h18.19.669,HW_LDT_1,2024.2.4,MacIntel,60.24096386,,,,,,,,,,,,,,,,,,,,371.6512,371.8503,371.8503,372.3494,,,,,,,,,,,,,,0.9889,0,,,,,,,,,,,,,,m,,,,,,,,,,,,,,,76,0,372.3497,373.3503,z,0,0.9889,,[],[],[],[],[],[],[],373.3504,375.3504,375.3504,375.3505,[],[],[],[],[],[],[],,,,375.3505,375.3506,0.074665799,-0.136362847,0,0,0,,0,75,75,85,1,4,word,BENEFIT,cursive,benefit_c.png,,,
,,,,31194,001,2025-11-06_11h18.19.669,HW_LDT_1,2024.2.4,MacIntel,60.24096386,,,,,,,,,,,,,,,,,,,,375.3513,375.5498,375.5499,376.0499,,,,,,,,,,,,,,0.8537,1,,,,,,,,,,,,,,z,,,,,,,,,,,,,,,77,0,376.0504,376.9173,z,1,0.8537,,[],[],[],[],[],[],[],376.9174,378.9164,378.9164,378.9166,[],[],[],[],[],[],[],,,,378.9167,378.9168,0.074665799,-0.136362847,0,0,0,,0,76,76,71,1,4,TL,racidal,print,racidal_p.png,,,
,,,,31194,001,2025-11-06_11h18.19.669,HW_LDT_1,2024.2.4,MacIntel,60.24096386,,,,,,,,,,,,,,,,,,,,378.9179,379.1172,379.1172,379.6163,,,,,,,,,,,,,,0.704,1,,,,,,,,,,,,,,z,,,,,,,,,,,,,,,78,0,379.6167,380.3338,z,1,0.704,,[],[],[],[],[],[],[],380.3339,382.3341,382.3341,382.3343,[],[],[],[],[],[],[],,,,382.3343,382.3343,0.074665799,-0.136362847,0,0,0,,0,77,77,9,1,4,RL,cafigal,print,cafigal_p.png,,,
,,,,31194,001,2025-11-06_11h18.19.669,HW_LDT_1,2024.2.4,MacIntel,60.24096386,,,,,,,,,,,,,,,,,,,,382.3355,382.5339,382.5339,383.034,,,,,,,,,,,,,,1.0027,1,,,,,,,,,,,,,,z,,,,,,,,,,,,,,,79,0,383.0346,384.0508,z,1,1.0027,,[],[],[],[],[],[],[],384.0509,386.0507,386.0507,386.0509,[],[],[],[],[],[],[],,,,386.0509,386.0509,0.074665799,-0.136362847,0,0,0,,0,78,78,19,1,4,RL,elacodate,cursive,elacodate_c.png,,,
,,,,31194,001,2025-11-06_11h18.19.669,HW_LDT_1,2024.2.4,MacIntel,60.24096386,,,,,,,,,,,,,,,,,,,,386.0518,386.25,386.25,386.7506,,,,,,,,,,,,,,1.2367,1,,,,,,,,,,,,,,z,,,,,,,,,,,,,,,80,0,386.751,388.001,z,1,1.2367,,[],[],[],[],[],[],[],388.0011,390.0008,390.001,390.001,[],[],[],[],[],[],[],,,,390.0012,394.1671,0.024348958,-0.422947049,1,0,0,,0,79,79,8,1,4,RL,casagity,cursive,casagity_c.png,break_done_button,,
,,,,31194,001,2025-11-06_11h18.19.669,HW_LDT_1,2024.2.4,MacIntel,60.24096386,,,,,,,,,,,,,,,,,,,,394.1681,394.3675,394.3675,394.8666,,,,,,,,,,,,,,1.0538,1,,,,,,,,,,,,,,m,,,,,,,,,,,,,,,81,0,394.8669,395.9344,m,1,1.0538,,[],[],[],[],[],[],[],395.9345,397.9343,397.9344,397.9346,[],[],[],[],[],[],[],,,,397.9346,397.9347,0.024348958,-0.422947049,0,0,0,,0,80,80,153,1,4,word,STOLEN,cursive,stolen_c.png,,,
,,,,31194,001,2025-11-06_11h18.19.669,HW_LDT_1,2024.2.4,MacIntel,60.24096386,,,,,,,,,,,,,,,,,,,,397.9358,398.1342,398.1343,398.6342,,,,,,,,,,,,,,0.7927,1,,,,,,,,,,,,,,m,,,,,,,,,,,,,,,82,0,398.6346,399.4344,m,1,0.7927,,[],[],[],[],[],[],[],399.4344,401.4344,401.4344,401.4345,[],[],[],[],[],[],[],,,,401.4346,401.4346,0.024348958,-0.422947049,0,0,0,,0,81,81,103,1,4,word,DISPUTE,print,dispute_p.png,,,
,,,,31194,001,2025-11-06_11h18.19.669,HW_LDT_1,2024.2.4,MacIntel,60.24096386,,,,,,,,,,,,,,,,,,,,401.4354,401.6342,401.6343,402.1343,,,,,,,,,,,,,,2.1222,0,,,,,,,,,,,,,,m,,,,,,,,,,,,,,,83,0,402.1347,404.2678,z,0,2.1222,,[],[],[],[],[],[],[],404.2678,406.2679,406.2679,406.268,[],[],[],[],[],[],[],,,,406.268,406.268,0.024348958,-0.422947049,0,0,0,,0,82,82,113,1,4,word,LITERAL,cursive,literal_c.png,,,
,,,,31194,001,2025-11-06_11h18.19.669,HW_LDT_1,2024.2.4,MacIntel,60.24096386,,,,,,,,,,,,,,,,,,,,406.2688,406.468,406.4681,406.9673,,,,,,,,,,,,,,0.6589,1,,,,,,,,,,,,,,m,,,,,,,,,,,,,,,84,1,406.9677,407.6337,m,1,0.6589,,[],[],[],[],[],[],[],407.6338,409.6339,409.634,410.2681,[],[],[],[],[],[],[],m,0.6267,,410.2681,410.2683,0.024348958,-0.422947049,0,0,0,,0,83,83,122,1,4,word,MOBILE,print,mobile_p.png,,,
,,,,31194,001,2025-11-06_11h18.19.669,HW_LDT_1,2024.2.4,MacIntel,60.24096386,,,,,,,,,,,,,,,,,,,,410.2698,410.468,410.468,410.9681,,,,,,,,,,,,,,1.2693,1,,,,,,,,,,,,,,z,,,,,,,,,,,,,,,85,0,410.9687,412.2515,z,1,1.2693,,[],[],[],[],[],[],[],412.2516,414.2515,414.2516,414.2518,[],[],[],[],[],[],[],,,,414.2518,414.2519,0.024348958,-0.422947049,0,0,0,,0,84,84,17,1,4,RL,denficy,cursive,denficy_c.png,,,
,,,,31194,001,2025-11-06_11h18.19.669,HW_LDT_1,2024.2.4,MacIntel,60.24096386,,,,,,,,,,,,,,,,,,,,414.2529,414.4513,414.4513,414.9514,,,,,,,,,,,,,,0.7532,1,,,,,,,,,,,,,,z,,,,,,,,,,,,,,,86,0,414.9518,415.7181,z,1,0.7532,,[],[],[],[],[],[],[],415.7181,417.7182,417.7183,417.7183,[],[],[],[],[],[],[],,,,417.7183,417.7184,0.024348958,-0.422947049,0,0,0,,0,85,85,40,1,4,RL,reconal,print,reconal_p.png,,,
,,,,31194,001,2025-11-06_11h18.19.669,HW_LDT_1,2024.2.4,MacIntel,60.24096386,,,,,,,,,,,,,,,,,,,,417.7192,417.9182,417.9183,418.4181,,,,,,,,,,,,,,0.6701,1,,,,,,,,,,,,,,z,,,,,,,,,,,,,,,87,0,418.4185,419.1015,z,1,0.6701,,[],[],[],[],[],[],[],419.1016,421.1015,421.1015,421.1017,[],[],[],[],[],[],[],,,,421.1017,421.1017,0.024348958,-0.422947049,0,0,0,,0,86,86,43,1,4,RL,rovastic,print,rovastic_p.png,,,
,,,,31194,001,2025-11-06_11h18.19.669,HW_LDT_1,2024.2.4,MacIntel,60.24096386,,,,,,,,,,,,,,,,,,,,421.1025,421.3014,421.3014,421.8015,,,,,,,,,,,,,,0.9028,1,,,,,,,,,,,,,,z,,,,,,,,,,,,,,,88,0,421.8018,422.7185,z,1,0.9028,,[],[],[],[],[],[],[],422.7186,424.7183,424.7184,424.7184,[],[],[],[],[],[],[],,,,424.7185,424.7185,0.024348958,-0.422947049,0,0,0,,0,87,87,7,1,4,RL,casena,print,casena_p.png,,,
,,,,31194,001,2025-11-06_11h18.19.669,HW_LDT_1,2024.2.4,MacIntel,60.24096386,,,,,,,,,,,,,,,,,,,,424.7192,424.9183,424.9183,425.4183,,,,,,,,,,,,,,1.1715,1,,,,,,,,,,,,,,z,,,,,,,,,,,,,,,89,0,425.4187,426.6017,z,1,1.1715,,[],[],[],[],[],[],[],426.6018,428.6015,428.6015,428.6016,[],[],[],[],[],[],[],,,,428.6017,428.6017,0.024348958,-0.422947049,0,0,0,,0,88,88,66,1,4,TL,opmital,print,opmital_p.png,,,
,,,,31194,001,2025-11-06_11h18.19.669,HW_LDT_1,2024.2.4,MacIntel,60.24096386,,,,,,,,,,,,,,,,,,,,428.6029,428.8018,428.8018,429.3016,,,,,,,,,,,,,,1.1059,1,,,,,,,,,,,,,,z,,,,,,,,,,,,,,,90,1,429.302,430.4185,z,1,1.1059,,[],[],[],[],[],[],[],430.4185,432.4185,432.4186,433.1185,[],[],[],[],[],[],[],z,0.6866,,433.1186,433.1186,0.024348958,-0.422947049,0,0,0,,0,89,89,32,1,4,RL,patisic,cursive,patisic_c.png,,,
,,,,31194,001,2025-11-06_11h18.19.669,HW_LDT_1,2024.2.4,MacIntel,60.24096386,,,,,,,,,,,,,,,,,,,,433.1196,433.3187,433.3188,433.8186,,,,,,,,,,,,,,0.7367,1,,,,,,,,,,,,,,z,,,,,,,,,,,,,,,91,0,433.8191,434.5687,z,1,0.7367,,[],[],[],[],[],[],[],434.5689,436.5688,436.5689,436.5691,[],[],[],[],[],[],[],,,,436.5691,436.5691,0.024348958,-0.422947049,0,0,0,,0,90,90,0,1,4,RL,abanemy,print,abanemy_p.png,,,
,,,,31194,001,2025-11-06_11h18.19.669,HW_LDT_1,2024.2.4,MacIntel,60.24096386,,,,,,,,,,,,,,,,,,,,436.5703,436.7686,436.7687,437.2686,,,,,,,,,,,,,,0.6534,1,,,,,,,,,,,,,,m,,,,,,,,,,,,,,,92,1,437.2689,437.9351,m,1,0.6534,,[],[],[],[],[],[],[],437.9352,439.9354,439.9355,440.6523,[],[],[],[],[],[],[],m,0.7085,,440.6524,440.6525,0.024348958,-0.422947049,0,0,0,,0,91,91,119,1,4,word,MEMORY,print,memory_p.png,,,
,,,,31194,001,2025-11-06_11h18.19.669,HW_LDT_1,2024.2.4,MacIntel,60.24096386,,,,,,,,,,,,,,,,,,,,440.6539,440.8521,440.8522,441.3521,,,,,,,,,,,,,,1.475,1,,,,,,,,,,,,,,z,,,,,,,,,,,,,,,93,1,441.3526,442.8354,z,1,1.475,,[],[],[],[],[],[],[],442.8356,444.8355,444.8356,445.9856,[],[],[],[],[],[],[],z,1.1368,,445.9857,445.9859,0.024348958,-0.422947049,0,0,0,,0,92,92,37,1,4,RL,renutal,cursive,renutal_c.png,,,
,,,,31194,001,2025-11-06_11h18.19.669,HW_LDT_1,2024.2.4,MacIntel,60.24096386,,,,,,,,,,,,,,,,,,,,445.987,446.1855,446.1855,446.6856,,,,,,,,,,,,,,1.8912,1,,,,,,,,,,,,,,z,,,,,,,,,,,,,,,94,0,446.6861,448.5857,z,1,1.8912,,[],[],[],[],[],[],[],448.5857,450.5856,450.5856,450.5858,[],[],[],[],[],[],[],,,,450.5858,450.5858,0.024348958,-0.422947049,0,0,0,,0,93,93,77,1,4,TL,spemicen,cursive,spemicen_c.png,,,
,,,,31194,001,2025-11-06_11h18.19.669,HW_LDT_1,2024.2.4,MacIntel,60.24096386,,,,,,,,,,,,,,,,,,,,450.5865,450.7856,450.7856,451.2857,,,,,,,,,,,,,,0.8691,1,,,,,,,,,,,,,,z,,,,,,,,,,,,,,,95,0,451.2864,452.1691,z,1,0.8691,,[],[],[],[],[],[],[],452.1692,454.1691,454.1692,454.1692,[],[],[],[],[],[],[],,,,454.1693,454.1693,0.024348958,-0.422947049,0,0,0,,0,94,94,47,1,4,RL,stopave,print,stopave_p.png,,,
,,,,31194,001,2025-11-06_11h18.19.669,HW_LDT_1,2024.2.4,MacIntel,60.24096386,,,,,,,,,,,,,,,,,,,,454.1701,454.3691,454.3691,454.869,,,,,,,,,,,,,,1.5037,0,,,,,,,,,,,,,,m,,,,,,,,,,,,,,,96,0,454.8695,456.385,z,0,1.5037,,[],[],[],[],[],[],[],456.385,458.3859,458.3859,458.386,[],[],[],[],[],[],[],,,,458.386,458.3861,0.024348958,-0.422947049,0,0,0,,0,95,95,144,1,4,word,RESIDENT,cursive,resident_c.png,,,
,,,,31194,001,2025-11-06_11h18.19.669,HW_LDT_1,2024.2.4,MacIntel,60.24096386,,,,,,,,,,,,,,,,,,,,458.3868,458.586,458.586,459.0857,,,,,,,,,,,,,,0.6251,1,,,,,,,,,,,,,,m,,,,,,,,,,,,,,,97,0,459.086,459.7192,m,1,0.6251,,[],[],[],[],[],[],[],459.7193,461.7193,461.7194,461.7195,[],[],[],[],[],[],[],,,,461.7195,461.7196,0.024348958,-0.422947049,0,0,0,,0,96,96,115,1,4,word,LOGICAL,print,logical_p.png,,,
,,,,31194,001,2025-11-06_11h18.19.669,HW_LDT_1,2024.2.4,MacIntel,60.24096386,,,,,,,,,,,,,,,,,,,,461.7202,461.9185,461.9186,462.4192,,,,,,,,,,,,,,0.9697,1,,,,,,,,,,,,,,z,,,,,,,,,,,,,,,98,0,462.4196,463.402,z,1,0.9697,,[],[],[],[],[],[],[],463.402,465.4023,465.4023,465.4024,[],[],[],[],[],[],[],,,,465.4024,465.4025,0.024348958,-0.422947049,0,0,0,,0,97,97,50,1,4,RL,vecelan,cursive,vecelan_c.png,,,
,,,,31194,001,2025-11-06_11h18.19.669,HW_LDT_1,2024.2.4,MacIntel,60.24096386,,,,,,,,,,,,,,,,,,,,465.4032,465.6024,465.6024,466.1027,,,,,,,,,,,,,,0.6564,1,,,,,,,,,,,,,,m,,,,,,,,,,,,,,,99,0,466.103,466.7695,m,1,0.6564,,[],[],[],[],[],[],[],466.7696,468.7693,468.7694,468.7696,[],[],[],[],[],[],[],,,,468.7696,468.7697,0.024348958,-0.422947049,0,0,0,,0,98,98,84,1,4,word,BELOVED,print,beloved_p.png,,,
,,,,31194,001,2025-11-06_11h18.19.669,HW_LDT_1,2024.2.4,MacIntel,60.24096386,,,,,,,,,,,,,,,,,,,,468.7707,468.9694,468.9694,469.4696,,,,,,,,,,,,,,1.0193,1,,,,,,,,,,,,,,z,,,,,,,,,,,,,,,100,0,469.4701,470.5029,z,1,1.0193,,[],[],[],[],[],[],[],470.503,472.5028,472.5028,472.5029,[],[],[],[],[],[],[],,,,472.503,472.503,0.024348958,-0.422947049,0,0,0,,0,99,99,6,1,4,RL,caleberia,cursive,caleberia_c.png,,,
,,,,31194,001,2025-11-06_11h18.19.669,HW_LDT_1,2024.2.4,MacIntel,60.24096386,,,,,,,,,,,,,,,,,,,,472.5037,472.7028,472.7028,473.203,,,,,,,,,,,,,,0.665,1,,,,,,,,,,,,,,m,,,,,,,,,,,,,,,101,0,473.2034,473.8696,m,1,0.665,,[],[],[],[],[],[],[],473.8696,475.8688,475.8689,475.869,[],[],[],[],[],[],[],,,,475.8691,475.8691,0.024348958,-0.422947049,0,0,0,,0,100,100,121,1,4,word,MISTAKE,print,mistake_p.png,,,
,,,,31194,001,2025-11-06_11h18.19.669,HW_LDT_1,2024.2.4,MacIntel,60.24096386,,,,,,,,,,,,,,,,,,,,475.8699,476.0695,476.0696,476.5696,,,,,,,,,,,,,,1.4706,1,,,,,,,,,,,,,,z,,,,,,,,,,,,,,,102,0,476.5699,478.0531,z,1,1.4706,,[],[],[],[],[],[],[],478.0532,480.0527,480.0527,480.0529,[],[],[],[],[],[],[],,,,480.0529,480.053,0.024348958,-0.422947049,0,0,0,,0,101,101,46,1,4,RL,skofen,cursive,skofen_c.png,,,
,,,,31194,001,2025-11-06_11h18.19.669,HW_LDT_1,2024.2.4,MacIntel,60.24096386,,,,,,,,,,,,,,,,,,,,480.0538,480.253,480.253,480.753,,,,,,,,,,,,,,1.7815,1,,,,,,,,,,,,,,z,,,,,,,,,,,,,,,103,0,480.7534,482.5364,z,1,1.7815,,[],[],[],[],[],[],[],482.5364,484.5363,484.5363,484.5365,[],[],[],[],[],[],[],,,,484.5365,484.5365,0.024348958,-0.422947049,0,0,0,,0,102,102,24,1,4,RL,marmipal,cursive,marmipal_c.png,,,
,,,,31194,001,2025-11-06_11h18.19.669,HW_LDT_1,2024.2.4,MacIntel,60.24096386,,,,,,,,,,,,,,,,,,,,484.5373,484.7365,484.7365,485.2363,,,,,,,,,,,,,,0.6972,1,,,,,,,,,,,,,,z,,,,,,,,,,,,,,,104,0,485.2367,485.9364,z,1,0.6972,,[],[],[],[],[],[],[],485.9364,487.9362,487.9363,487.9363,[],[],[],[],[],[],[],,,,487.9364,487.9364,0.024348958,-0.422947049,0,0,0,,0,103,103,29,1,4,RL,motide,print,motide_p.png,,,
,,,,31194,001,2025-11-06_11h18.19.669,HW_LDT_1,2024.2.4,MacIntel,60.24096386,,,,,,,,,,,,,,,,,,,,487.9371,488.1367,488.1368,488.6365,,,,,,,,,,,,,,0.72,1,,,,,,,,,,,,,,z,,,,,,,,,,,,,,,105,0,488.6368,489.3702,z,1,0.72,,[],[],[],[],[],[],[],489.3702,491.3696,491.3697,491.3699,[],[],[],[],[],[],[],,,,491.3699,491.37,0.024348958,-0.422947049,0,0,0,,0,104,104,61,1,4,TL,lotace,cursive,lotace_c.png,,,
,,,,31194,001,2025-11-06_11h18.19.669,HW_LDT_1,2024.2.4,MacIntel,60.24096386,,,,,,,,,,,,,,,,,,,,491.3711,491.5702,491.5702,492.07,,,,,,,,,,,,,,0.6751,1,,,,,,,,,,,,,,m,,,,,,,,,,,,,,,106,0,492.0703,492.7535,m,1,0.6751,,[],[],[],[],[],[],[],492.7535,494.7534,494.7534,494.7536,[],[],[],[],[],[],[],,,,494.7536,494.7537,0.024348958,-0.422947049,0,0,0,,0,105,105,154,1,4,word,STORAGE,print,storage_p.png,,,
,,,,31194,001,2025-11-06_11h18.19.669,HW_LDT_1,2024.2.4,MacIntel,60.24096386,,,,,,,,,,,,,,,,,,,,494.7547,494.9535,494.9535,495.4534,,,,,,,,,,,,,,0.8054,1,,,,,,,,,,,,,,m,,,,,,,,,,,,,,,107,0,495.4537,496.2703,m,1,0.8054,,[],[],[],[],[],[],[],496.2704,498.2702,498.2702,498.2704,[],[],[],[],[],[],[],,,,498.2704,498.2705,0.024348958,-0.422947049,0,0,0,,0,106,106,147,1,4,word,ROMANTIC,print,romantic_p.png,,,
,,,,31194,001,2025-11-06_11h18.19.669,HW_LDT_1,2024.2.4,MacIntel,60.24096386,,,,,,,,,,,,,,,,,,,,498.2716,498.4701,498.4701,498.9701,,,,,,,,,,,,,,0.8224,1,,,,,,,,,,,,,,z,,,,,,,,,,,,,,,108,0,498.9705,499.8039,z,1,0.8224,,[],[],[],[],[],[],[],499.8039,501.8037,501.8037,501.8038,[],[],[],[],[],[],[],,,,501.8039,501.8039,0.024348958,-0.422947049,0,0,0,,0,107,107,31,1,4,RL,orimipal,print,orimipal_p.png,,,
,,,,31194,001,2025-11-06_11h18.19.669,HW_LDT_1,2024.2.4,MacIntel,60.24096386,,,,,,,,,,,,,,,,,,,,501.805,502.0035,502.0036,502.5035,,,,,,,,,,,,,,1.4027,1,,,,,,,,,,,,,,z,,,,,,,,,,,,,,,109,0,502.5041,503.92,z,1,1.4027,,[],[],[],[],[],[],[],503.9201,505.9197,505.9198,505.9198,[],[],[],[],[],[],[],,,,505.9198,505.92,0.024348958,-0.422947049,0,0,0,,0,108,108,69,1,4,TL,quafily,print,quafily_p.png,,,
,,,,31194,001,2025-11-06_11h18.19.669,HW_LDT_1,2024.2.4,MacIntel,60.24096386,,,,,,,,,,,,,,,,,,,,505.9207,506.1203,506.1204,506.6206,,,,,,,,,,,,,,0.9306,1,,,,,,,,,,,,,,m,,,,,,,,,,,,,,,110,0,506.6213,507.5536,m,1,0.9306,,[],[],[],[],[],[],[],507.5536,509.5537,509.5538,509.5539,[],[],[],[],[],[],[],,,,509.5539,509.5539,0.024348958,-0.422947049,0,0,0,,0,109,109,129,1,4,word,PARENT,cursive,parent_c.png,,,
,,,,31194,001,2025-11-06_11h18.19.669,HW_LDT_1,2024.2.4,MacIntel,60.24096386,,,,,,,,,,,,,,,,,,,,509.5546,509.7539,509.7539,510.2537,,,,,,,,,,,,,,0.7364,1,,,,,,,,,,,,,,m,,,,,,,,,,,,,,,111,0,510.2541,511.0038,m,1,0.7364,,[],[],[],[],[],[],[],511.0039,513.0041,513.0041,513.0043,[],[],[],[],[],[],[],,,,513.0043,513.0045,0.024348958,-0.422947049,0,0,0,,0,110,110,90,1,4,word,CAPITAL,print,capital_p.png,,,
,,,,31194,001,2025-11-06_11h18.19.669,HW_LDT_1,2024.2.4,MacIntel,60.24096386,,,,,,,,,,,,,,,,,,,,513.0056,513.2038,513.2039,513.7034,,,,,,,,,,,,,,1.2489,1,,,,,,,,,,,,,,z,,,,,,,,,,,,,,,112,0,513.704,514.9541,z,1,1.2489,,[],[],[],[],[],[],[],514.9541,516.9542,516.9542,516.9544,[],[],[],[],[],[],[],,,,516.9544,516.9545,0.024348958,-0.422947049,0,0,0,,0,111,111,22,1,4,RL,linedal,cursive,linedal_c.png,,,
,,,,31194,001,2025-11-06_11h18.19.669,HW_LDT_1,2024.2.4,MacIntel,60.24096386,,,,,,,,,,,,,,,,,,,,516.9556,517.1539,517.1539,517.6539,,,,,,,,,,,,,,0.8865,1,,,,,,,,,,,,,,z,,,,,,,,,,,,,,,113,0,517.6544,518.5536,z,1,0.8865,,[],[],[],[],[],[],[],518.5536,520.554,520.554,520.5542,[],[],[],[],[],[],[],,,,520.5542,520.5543,0.024348958,-0.422947049,0,0,0,,0,112,112,5,1,4,RL,bebine,print,bebine_p.png,,,
,,,,31194,001,2025-11-06_11h18.19.669,HW_LDT_1,2024.2.4,MacIntel,60.24096386,,,,,,,,,,,,,,,,,,,,520.5554,520.7539,520.754,521.2541,,,,,,,,,,,,,,0.8534,1,,,,,,,,,,,,,,m,,,,,,,,,,,,,,,114,0,521.2544,522.1209,m,1,0.8534,,[],[],[],[],[],[],[],522.1209,524.121,524.121,524.1212,[],[],[],[],[],[],[],,,,524.1212,524.1213,0.024348958,-0.422947049,0,0,0,,0,113,113,137,1,4,word,RAPIDLY,cursive,rapidly_c.png,,,
,,,,31194,001,2025-11-06_11h18.19.669,HW_LDT_1,2024.2.4,MacIntel,60.24096386,,,,,,,,,,,,,,,,,,,,524.1223,524.3207,524.3208,524.8209,,,,,,,,,,,,,,1.7054,1,,,,,,,,,,,,,,z,,,,,,,,,,,,,,,115,0,524.8213,526.5372,z,1,1.7054,,[],[],[],[],[],[],[],526.5373,528.5376,528.5376,528.5377,[],[],[],[],[],[],[],,,,528.5377,528.5378,0.024348958,-0.422947049,0,0,0,,0,114,114,63,1,4,TL,miskate,print,miskate_p.png,,,
,,,,31194,001,2025-11-06_11h18.19.669,HW_LDT_1,2024.2.4,MacIntel,60.24096386,,,,,,,,,,,,,,,,,,,,528.5385,528.7375,528.7376,529.2367,,,,,,,,,,,,,,5.2051,1,,,,,,,,,,,,,,z,,,,,,,,,,,,,,,116,0,529.237,534.4545,z,1,5.2051,,[],[],[],[],[],[],[],534.4546,536.4545,536.4545,536.4546,[],[],[],[],[],[],[],,,,536.4547,536.4548,0.024348958,-0.422947049,0,0,0,,0,115,115,57,1,4,TL,etidor,print,etidor_p.png,,,
,,,,31194,001,2025-11-06_11h18.19.669,HW_LDT_1,2024.2.4,MacIntel,60.24096386,,,,,,,,,,,,,,,,,,,,536.4559,536.6545,536.6545,537.154,,,,,,,,,,,,,,1.9582,1,,,,,,,,,,,,,,m,,,,,,,,,,,,,,,117,1,537.1546,539.1212,m,1,1.9582,,[],[],[],[],[],[],[],539.1212,541.1212,541.1213,542.6881,[],[],[],[],[],[],[],z,1.5543,,542.6882,542.6883,0.024348958,-0.422947049,0,0,0,,0,116,116,118,1,4,word,MEDICINE,cursive,medicine_c.png,,,
,,,,31194,001,2025-11-06_11h18.19.669,HW_LDT_1,2024.2.4,MacIntel,60.24096386,,,,,,,,,,,,,,,,,,,,542.6898,542.8879,542.8879,543.3879,,,,,,,,,,,,,,1.8194,0,,,,,,,,,,,,,,m,,,,,,,,,,,,,,,118,0,543.3883,545.2213,z,0,1.8194,,[],[],[],[],[],[],[],545.2214,547.2214,547.2214,547.2215,[],[],[],[],[],[],[],,,,547.2215,547.2216,0.024348958,-0.422947049,0,0,0,,0,117,117,102,1,4,word,DENSITY,cursive,density_c.png,,,
,,,,31194,001,2025-11-06_11h18.19.669,HW_LDT_1,2024.2.4,MacIntel,60.24096386,,,,,,,,,,,,,,,,,,,,547.2224,547.4214,547.4214,547.9214,,,,,,,,,,,,,,3.0861,1,,,,,,,,,,,,,,z,,,,,,,,,,,,,,,119,1,547.922,551.0216,z,1,3.0861,,[],[],[],[],[],[],[],551.0217,553.0215,553.0216,553.9216,[],[],[],[],[],[],[],z,0.8923,,553.9216,553.9217,0.024348958,-0.422947049,0,0,0,,0,118,118,55,1,4,TL,corevage,cursive,corevage_c.png,,,
,,,,31194,001,2025-11-06_11h18.19.669,HW_LDT_1,2024.2.4,MacIntel,60.24096386,,,,,,,,,,,,,,,,,,,,553.9223,554.1216,554.1216,554.6215,,,,,,,,,,,,,,1.2917,1,,,,,,,,,,,,,,m,,,,,,,,,,,,,,,120,0,554.6222,555.9218,m,1,1.2917,,[],[],[],[],[],[],[],555.9218,557.9216,557.9217,557.9217,[],[],[],[],[],[],[],,,,557.9218,557.9219,0.024348958,-0.422947049,0,0,0,,0,119,119,91,1,4,word,CARDINAL,cursive,cardinal_c.png,,,
,,,,31194,001,2025-11-06_11h18.19.669,HW_LDT_1,2024.2.4,MacIntel,60.24096386,,,,,,,,,,,,,,,,,,,,557.9227,558.1217,558.1218,558.6218,,,,,,,,,,,,,,0.9743,1,,,,,,,,,,,,,,m,,,,,,,,,,,,,,,121,0,558.6225,559.6053,m,1,0.9743,,[],[],[],[],[],[],[],559.6054,561.605,561.605,561.6051,[],[],[],[],[],[],[],,,,561.6051,561.6052,0.024348958,-0.422947049,0,0,0,,0,120,120,156,1,4,word,TRIBUTE,print,tribute_p.png,,,
,,,,31194,001,2025-11-06_11h18.19.669,HW_LDT_1,2024.2.4,MacIntel,60.24096386,,,,,,,,,,,,,,,,,,,,561.6062,561.8048,561.8048,562.305,,,,,,,,,,,,,,0.7696,1,,,,,,,,,,,,,,m,,,,,,,,,,,,,,,122,0,562.3054,563.0884,m,1,0.7696,,[],[],[],[],[],[],[],563.0884,565.0886,565.0887,565.0888,[],[],[],[],[],[],[],,,,565.089,565.0891,0.024348958,-0.422947049,0,0,0,,0,121,121,157,1,4,word,VALIDITY,print,validity_p.png,,,
,,,,31194,001,2025-11-06_11h18.19.669,HW_LDT_1,2024.2.4,MacIntel,60.24096386,,,,,,,,,,,,,,,,,,,,565.0902,565.2886,565.2886,565.7884,,,,,,,,,,,,,,0.8642,1,,,,,,,,,,,,,,z,,,,,,,,,,,,,,,123,1,565.7889,566.6553,z,1,0.8642,,[],[],[],[],[],[],[],566.6553,568.6544,568.6544,570.2053,[],[],[],[],[],[],[],z,1.5383,,570.2053,570.2055,0.024348958,-0.422947049,0,0,0,,0,122,122,65,1,4,TL,orepator,print,orepator_p.png,,,
,,,,31194,001,2025-11-06_11h18.19.669,HW_LDT_1,2024.2.4,MacIntel,60.24096386,,,,,,,,,,,,,,,,,,,,570.2062,570.4052,570.4052,570.9051,,,,,,,,,,,,,,2.0247,1,,,,,,,,,,,,,,m,,,,,,,,,,,,,,,124,0,570.9056,572.9383,m,1,2.0247,,[],[],[],[],[],[],[],572.9384,574.9387,574.9387,574.9388,[],[],[],[],[],[],[],,,,574.9388,574.9389,0.024348958,-0.422947049,0,0,0,,0,123,123,126,1,4,word,OPTIMAL,print,optimal_p.png,,,
,,,,31194,001,2025-11-06_11h18.19.669,HW_LDT_1,2024.2.4,MacIntel,60.24096386,,,,,,,,,,,,,,,,,,,,574.9397,575.1388,575.1388,575.6387,,,,,,,,,,,,,,272.5422,1,,,,,,,,,,,,,,m,,,,,,,,,,,,,,,125,0,575.6391,848.1957,m,1,272.5422,,[],[],[],[],[],[],[],848.196,850.1955,850.1955,850.1958,[],[],[],[],[],[],[],,,,850.1958,850.196,0.024392429,-0.42370246,0,0,0,,0,124,124,86,1,4,word,BESIDE,print,beside_p.png,,,
,,,,31194,001,2025-11-06_11h18.19.669,HW_LDT_1,2024.2.4,MacIntel,60.24096386,,,,,,,,,,,,,,,,,,,,850.1985,850.3955,850.3955,850.8955,,,,,,,,,,,,,,1.5967,1,,,,,,,,,,,,,,m,,,,,,,,,,,,,,,126,0,850.8964,852.4955,m,1,1.5967,,[],[],[],[],[],[],[],852.4955,854.4955,854.4955,854.4956,[],[],[],[],[],[],[],,,,854.4956,854.4958,0.024392429,-0.42370246,0,0,0,,0,125,125,149,1,4,word,SENATOR,print,senator_p.png,,,
,,,,31194,001,2025-11-06_11h18.19.669,HW_LDT_1,2024.2.4,MacIntel,60.24096386,,,,,,,,,,,,,,,,,,,,854.4967,854.6955,854.6956,855.1956,,,,,,,,,,,,,,1.6133,1,,,,,,,,,,,,,,z,,,,,,,,,,,,,,,127,0,855.1961,856.8124,z,1,1.6133,,[],[],[],[],[],[],[],856.8125,858.8124,858.8124,858.8125,[],[],[],[],[],[],[],,,,858.8126,858.8126,0.024392429,-0.42370246,0,0,0,,0,126,126,13,1,4,RL,crisival,cursive,crisival_c.png,,,
,,,,31194,001,2025-11-06_11h18.19.669,HW_LDT_1,2024.2.4,MacIntel,60.24096386,,,,,,,,,,,,,,,,,,,,858.8138,859.0123,859.0124,859.5124,,,,,,,,,,,,,,1.2585,1,,,,,,,,,,,,,,m,,,,,,,,,,,,,,,128,0,859.5129,860.7791,m,1,1.2585,,[],[],[],[],[],[],[],860.7792,862.7792,862.7792,862.7793,[],[],[],[],[],[],[],,,,862.7793,862.7794,0.024392429,-0.42370246,0,0,0,,0,127,127,112,1,4,word,LIBERAL,cursive,liberal_c.png,,,
,,,,31194,001,2025-11-06_11h18.19.669,HW_LDT_1,2024.2.4,MacIntel,60.24096386,,,,,,,,,,,,,,,,,,,,862.7802,862.9792,862.9792,863.4792,,,,,,,,,,,,,,0.9528,1,,,,,,,,,,,,,,z,,,,,,,,,,,,,,,129,0,863.4798,864.446,z,1,0.9528,,[],[],[],[],[],[],[],864.446,866.4459,866.4459,866.4459,[],[],[],[],[],[],[],,,,866.446,866.4461,0.024392429,-0.42370246,0,0,0,,0,128,128,75,1,4,TL,sanile,print,sanile_p.png,,,
,,,,31194,001,2025-11-06_11h18.19.669,HW_LDT_1,2024.2.4,MacIntel,60.24096386,,,,,,,,,,,,,,,,,,,,866.4469,866.6459,866.6459,867.1459,,,,,,,,,,,,,,1.1317,1,,,,,,,,,,,,,,m,,,,,,,,,,,,,,,130,0,867.1465,868.2792,m,1,1.1317,,[],[],[],[],[],[],[],868.2793,870.2792,870.2792,870.2794,[],[],[],[],[],[],[],,,,870.2795,870.2795,0.024392429,-0.42370246,0,0,0,,0,129,129,148,1,4,word,SALINE,print,saline_p.png,,,
,,,,31194,001,2025-11-06_11h18.19.669,HW_LDT_1,2024.2.4,MacIntel,60.24096386,,,,,,,,,,,,,,,,,,,,870.2807,870.4791,870.4791,870.9793,,,,,,,,,,,,,,2.1374,1,,,,,,,,,,,,,,m,,,,,,,,,,,,,,,131,0,870.9797,873.1296,m,1,2.1374,,[],[],[],[],[],[],[],873.1296,875.1296,875.1296,875.1298,[],[],[],[],[],[],[],,,,875.1298,875.1299,0.024392429,-0.42370246,0,0,0,,0,130,130,120,1,4,word,MILITARY,print,military_p.png,,,
,,,,31194,001,2025-11-06_11h18.19.669,HW_LDT_1,2024.2.4,MacIntel,60.24096386,,,,,,,,,,,,,,,,,,,,875.1314,875.3295,875.3295,875.8296,,,,,,,,,,,,,,1.8527,1,,,,,,,,,,,,,,z,,,,,,,,,,,,,,,132,0,875.8299,877.6963,z,1,1.8527,,[],[],[],[],[],[],[],877.6963,879.696,879.6961,879.6961,[],[],[],[],[],[],[],,,,879.6962,879.6962,0.024392429,-0.42370246,0,0,0,,0,131,131,78,1,4,TL,stragety,print,stragety_p.png,,,
,,,,31194,001,2025-11-06_11h18.19.669,HW_LDT_1,2024.2.4,MacIntel,60.24096386,,,,,,,,,,,,,,,,,,,,879.697,879.8962,879.8963,880.3963,,,,,,,,,,,,,,1.1387,1,,,,,,,,,,,,,,m,,,,,,,,,,,,,,,133,0,880.3967,881.5465,m,1,1.1387,,[],[],[],[],[],[],[],881.5466,883.5464,883.5464,883.5466,[],[],[],[],[],[],[],,,,883.5466,883.5466,0.024392429,-0.42370246,0,0,0,,0,132,132,93,1,4,word,CEREMONY,print,ceremony_p.png,,,
,,,,31194,001,2025-11-06_11h18.19.669,HW_LDT_1,2024.2.4,MacIntel,60.24096386,,,,,,,,,,,,,,,,,,,,883.5474,883.7463,883.7464,884.2464,,,,,,,,,,,,,,0.7386,0,,,,,,,,,,,,,,m,,,,,,,,,,,,,,,134,0,884.2467,884.9962,z,0,0.7386,,[],[],[],[],[],[],[],884.9963,886.9965,886.9965,886.9967,[],[],[],[],[],[],[],,,,886.9967,886.9967,0.024392429,-0.42370246,0,0,0,,0,133,133,108,1,4,word,FORTUNE,cursive,fortune_c.png,,,
,,,,31194,001,2025-11-06_11h18.19.669,HW_LDT_1,2024.2.4,MacIntel,60.24096386,,,,,,,,,,,,,,,,,,,,886.9975,887.1966,887.1966,887.6965,,,,,,,,,,,,,,6.8699,1,,,,,,,,,,,,,,z,,,,,,,,,,,,,,,135,0,887.6969,894.5804,z,1,6.8699,,[],[],[],[],[],[],[],894.5805,896.58,896.5802,896.5802,[],[],[],[],[],[],[],,,,896.5802,896.5803,0.024392429,-0.42370246,0,0,0,,0,134,134,21,1,4,RL,insibate,print,insibate_p.png,,,
,,,,31194,001,2025-11-06_11h18.19.669,HW_LDT_1,2024.2.4,MacIntel,60.24096386,,,,,,,,,,,,,,,,,,,,896.5811,896.7801,896.7802,897.2802,,,,,,,,,,,,,,2.4355,1,,,,,,,,,,,,,,m,,,,,,,,,,,,,,,136,0,897.2807,899.7302,m,1,2.4355,,[],[],[],[],[],[],[],899.7303,901.7302,901.7302,901.7304,[],[],[],[],[],[],[],,,,901.7304,901.7304,0.024392429,-0.42370246,0,0,0,,0,135,135,97,1,4,word,COVERAGE,cursive,coverage_c.png,,,
,,,,31194,001,2025-11-06_11h18.19.669,HW_LDT_1,2024.2.4,MacIntel,60.24096386,,,,,,,,,,,,,,,,,,,,901.7312,901.9302,901.9303,902.4303,,,,,,,,,,,,,,1.1865,1,,,,,,,,,,,,,,z,,,,,,,,,,,,,,,137,1,902.4306,903.6299,z,1,1.1865,,[],[],[],[],[],[],[],903.63,905.6294,905.6295,908.1305,[],[],[],[],[],[],[],z,2.5007,,908.1306,908.1306,0.024392429,-0.42370246,0,0,0,,0,136,136,42,1,4,RL,revune,print,revune_p.png,,,
,,,,31194,001,2025-11-06_11h18.19.669,HW_LDT_1,2024.2.4,MacIntel,60.24096386,,,,,,,,,,,,,,,,,,,,908.1315,908.3306,908.3306,908.8306,,,,,,,,,,,,,,1.3859,0,,,,,,,,,,,,,,m,,,,,,,,,,,,,,,138,0,908.8312,910.2307,z,0,1.3859,,[],[],[],[],[],[],[],910.2308,912.2305,912.2306,912.2308,[],[],[],[],[],[],[],,,,912.2308,912.2308,0.024392429,-0.42370246,0,0,0,,0,137,137,99,1,4,word,DEBATE,cursive,debate_c.png,,,
,,,,31194,001,2025-11-06_11h18.19.669,HW_LDT_1,2024.2.4,MacIntel,60.24096386,,,,,,,,,,,,,,,,,,,,912.2317,912.4306,912.4306,912.9307,,,,,,,,,,,,,,1.1021,1,,,,,,,,,,,,,,m,,,,,,,,,,,,,,,139,0,912.9316,914.0475,m,1,1.1021,,[],[],[],[],[],[],[],914.0476,916.0469,916.0469,916.0471,[],[],[],[],[],[],[],,,,916.0471,916.0472,0.024392429,-0.42370246,0,0,0,,0,138,138,109,1,4,word,GRATEFUL,print,grateful_p.png,,,
,,,,31194,001,2025-11-06_11h18.19.669,HW_LDT_1,2024.2.4,MacIntel,60.24096386,,,,,,,,,,,,,,,,,,,,916.0479,916.2473,916.2474,916.7472,,,,,,,,,,,,,,0.7031,1,,,,,,,,,,,,,,z,,,,,,,,,,,,,,,140,0,916.7477,917.4641,z,1,0.7031,,[],[],[],[],[],[],[],917.4642,919.464,919.464,919.4641,[],[],[],[],[],[],[],,,,919.4642,919.4643,0.024392429,-0.42370246,0,0,0,,0,139,139,18,1,4,RL,disluge,print,disluge_p.png,,,
,,,,31194,001,2025-11-06_11h18.19.669,HW_LDT_1,2024.2.4,MacIntel,60.24096386,,,,,,,,,,,,,,,,,,,,919.465,919.664,919.664,920.1641,,,,,,,,,,,,,,16.6143,1,,,,,,,,,,,,,,m,,,,,,,,,,,,,,,141,0,920.1646,936.781,m,1,16.6143,,[],[],[],[],[],[],[],936.7811,938.7813,938.7813,938.7815,[],[],[],[],[],[],[],,,,938.7815,938.7817,0.024392429,-0.42370246,0,0,0,,0,140,140,124,1,4,word,NUMERICAL,cursive,numerical_c.png,,,
,,,,31194,001,2025-11-06_11h18.19.669,HW_LDT_1,2024.2.4,MacIntel,60.24096386,,,,,,,,,,,,,,,,,,,,938.7829,938.9811,938.9812,939.4812,,,,,,,,,,,,,,1.7753,1,,,,,,,,,,,,,,z,,,,,,,,,,,,,,,142,0,939.4816,941.2647,z,1,1.7753,,[],[],[],[],[],[],[],941.2647,943.2647,943.2647,943.2648,[],[],[],[],[],[],[],,,,943.2648,943.2649,0.024392429,-0.42370246,0,0,0,,0,141,141,1,1,4,RL,afaneur,cursive,afaneur_c.png,,,
,,,,31194,001,2025-11-06_11h18.19.669,HW_LDT_1,2024.2.4,MacIntel,60.24096386,,,,,,,,,,,,,,,,,,,,943.2656,943.4648,943.4648,943.9646,,,,,,,,,,,,,,1.2365,0,,,,,,,,,,,,,,m,,,,,,,,,,,,,,,143,0,943.9651,945.2149,z,0,1.2365,,[],[],[],[],[],[],[],945.215,947.2139,947.214,947.2142,[],[],[],[],[],[],[],,,,947.2142,947.2143,0.024392429,-0.42370246,0,0,0,,0,142,142,135,1,4,word,QUALITY,print,quality_p.png,,,
,,,,31194,001,2025-11-06_11h18.19.669,HW_LDT_1,2024.2.4,MacIntel,60.24096386,,,,,,,,,,,,,,,,,,,,947.2153,947.4149,947.415,947.9138,,,,,,,,,,,,,,22.8048,0,,,,,,,,,,,,,,m,,,,,,,,,,,,,,,144,0,947.9141,970.7323,z,0,22.8048,,[],[],[],[],[],[],[],970.7324,972.7322,972.7323,972.7324,[],[],[],[],[],[],[],,,,972.7324,972.7324,0.024392429,-0.42370246,0,0,0,,0,143,143,87,1,4,word,CAFETERIA,cursive,cafeteria_c.png,,,
,,,,31194,001,2025-11-06_11h18.19.669,HW_LDT_1,2024.2.4,MacIntel,60.24096386,,,,,,,,,,,,,,,,,,,,972.7334,972.9323,972.9323,973.4312,,,,,,,,,,,,,,0.9053,1,,,,,,,,,,,,,,z,,,,,,,,,,,,,,,145,0,973.4315,974.3487,z,1,0.9053,,[],[],[],[],[],[],[],974.3488,976.3489,976.3489,976.349,[],[],[],[],[],[],[],,,,976.349,976.3491,0.024392429,-0.42370246,0,0,0,,0,144,144,3,1,4,RL,bewoted,print,bewoted_p.png,,,
,,,,31194,001,2025-11-06_11h18.19.669,HW_LDT_1,2024.2.4,MacIntel,60.24096386,,,,,,,,,,,,,,,,,,,,976.3498,976.5489,976.5489,977.0481,,,,,,,,,,,,,,10.4498,0,,,,,,,,,,,,,,m,,,,,,,,,,,,,,,146,0,977.0484,987.4992,z,0,10.4498,,[],[],[],[],[],[],[],987.4993,989.4993,989.4993,989.4993,[],[],[],[],[],[],[],,,,989.4994,989.4995,0.024392429,-0.42370246,0,0,0,,0,145,145,128,1,4,word,PACIFIC,cursive,pacific_c.png,,,
,,,,31194,001,2025-11-06_11h18.19.669,HW_LDT_1,2024.2.4,MacIntel,60.24096386,,,,,,,,,,,,,,,,,,,,989.5002,989.6983,989.6983,990.1992,,,,,,,,,,,,,,1.9857,1,,,,,,,,,,,,,,m,,,,,,,,,,,,,,,147,0,990.1996,992.1994,m,1,1.9857,,[],[],[],[],[],[],[],992.1994,994.1993,994.1993,994.1995,[],[],[],[],[],[],[],,,,994.1995,994.1996,0.024392429,-0.42370246,0,0,0,,0,146,146,158,1,4,word,VELOCITY,cursive,velocity_c.png,,,
,,,,31194,001,2025-11-06_11h18.19.669,HW_LDT_1,2024.2.4,MacIntel,60.24096386,,,,,,,,,,,,,,,,,,,,994.2003,994.3983,994.3983,994.8984,,,,,,,,,,,,,,1.0868,1,,,,,,,,,,,,,,m,,,,,,,,,,,,,,,148,0,994.8988,995.9994,m,1,1.0868,,[],[],[],[],[],[],[],995.9995,997.9992,997.9992,997.9994,[],[],[],[],[],[],[],,,,997.9994,997.9994,0.024392429,-0.42370246,0,0,0,,0,147,147,130,1,4,word,POLICY,cursive,policy_c.png,,,
,,,,31194,001,2025-11-06_11h18.19.669,HW_LDT_1,2024.2.4,MacIntel,60.24096386,,,,,,,,,,,,,,,,,,,,998.0001,998.1994,998.1994,998.6985,,,,,,,,,,,,,,0.9873,0,,,,,,,,,,,,,,m,,,,,,,,,,,,,,,149,0,998.6988,999.6997,z,0,0.9873,,[],[],[],[],[],[],[],999.6997,1001.6986,1001.6986,1001.6987,[],[],[],[],[],[],[],,,,1001.6987,1001.6988,0.024392429,-0.42370246,0,0,0,,0,148,148,92,1,4,word,CATEGORY,cursive,category_c.png,,,
,,,,31194,001,2025-11-06_11h18.19.669,HW_LDT_1,2024.2.4,MacIntel,60.24096386,,,,,,,,,,,,,,,,,,,,1001.6995,1001.8996,1001.8996,1002.3994,,,,,,,,,,,,,,0.816,1,,,,,,,,,,,,,,z,,,,,,,,,,,,,,,150,0,1002.3998,1003.2164,z,1,0.816,,[],[],[],[],[],[],[],1003.2165,1005.2158,1005.2158,1005.216,[],[],[],[],[],[],[],,,,1005.216,1005.2161,0.024392429,-0.42370246,0,0,0,,0,149,149,48,1,4,RL,vabifity,print,vabifity_p.png,,,
,,,,31194,001,2025-11-06_11h18.19.669,HW_LDT_1,2024.2.4,MacIntel,60.24096386,,,,,,,,,,,,,,,,,,,,1005.2168,1005.4164,1005.4164,1005.9153,,,,,,,,,,,,,,1.3703,1,,,,,,,,,,,,,,z,,,,,,,,,,,,,,,151,0,1005.9158,1007.2998,z,1,1.3703,,[],[],[],[],[],[],[],1007.2999,1009.299,1009.2991,1009.2991,[],[],[],[],[],[],[],,,,1009.2992,1009.2992,0.024392429,-0.42370246,0,0,0,,0,150,150,58,1,4,TL,edivent,print,edivent_p.png,,,
,,,,31194,001,2025-11-06_11h18.19.669,HW_LDT_1,2024.2.4,MacIntel,60.24096386,,,,,,,,,,,,,,,,,,,,1009.3,1009.4993,1009.4993,1009.9998,,,,,,,,,,,,,,1.1028,1,,,,,,,,,,,,,,m,,,,,,,,,,,,,,,152,0,1010.0002,1011.1165,m,1,1.1028,,[],[],[],[],[],[],[],1011.1166,1013.1157,1013.1157,1013.1158,[],[],[],[],[],[],[],,,,1013.1159,1013.116,0.024392429,-0.42370246,0,0,0,,0,151,151,131,1,4,word,POPULAR,print,popular_p.png,,,
,,,,31194,001,2025-11-06_11h18.19.669,HW_LDT_1,2024.2.4,MacIntel,60.24096386,,,,,,,,,,,,,,,,,,,,1013.1171,1013.3157,1013.3157,1013.8156,,,,,,,,,,,,,,0.8365,1,,,,,,,,,,,,,,z,,,,,,,,,,,,,,,153,0,1013.8159,1014.6668,z,1,0.8365,,[],[],[],[],[],[],[],1014.6669,1016.6661,1016.6662,1016.6663,[],[],[],[],[],[],[],,,,1016.6663,1016.6663,0.024392429,-0.42370246,0,0,0,,0,152,152,54,1,4,TL,codemy,print,codemy_p.png,,,
,,,,31194,001,2025-11-06_11h18.19.669,HW_LDT_1,2024.2.4,MacIntel,60.24096386,,,,,,,,,,,,,,,,,,,,1016.667,1016.8664,1016.8664,1017.3667,,,,,,,,,,,,,,2.1869,1,,,,,,,,,,,,,,z,,,,,,,,,,,,,,,154,0,1017.3671,1019.5665,z,1,2.1869,,[],[],[],[],[],[],[],1019.5667,1021.5668,1021.5668,1021.5669,[],[],[],[],[],[],[],,,,1021.567,1021.567,0.024392429,-0.42370246,0,0,0,,0,153,153,59,1,4,TL,fornute,cursive,fornute_c.png,,,
,,,,31194,001,2025-11-06_11h18.19.669,HW_LDT_1,2024.2.4,MacIntel,60.24096386,,,,,,,,,,,,,,,,,,,,1021.5677,1021.7667,1021.7668,1022.2669,,,,,,,,,,,,,,1.4527,1,,,,,,,,,,,,,,z,,,,,,,,,,,,,,,155,0,1022.2675,1023.7336,z,1,1.4527,,[],[],[],[],[],[],[],1023.7336,1025.7325,1025.7326,1025.7327,[],[],[],[],[],[],[],,,,1025.7327,1025.7328,0.024392429,-0.42370246,0,0,0,,0,154,154,76,1,4,TL,setanor,print,setanor_p.png,,,
,,,,31194,001,2025-11-06_11h18.19.669,HW_LDT_1,2024.2.4,MacIntel,60.24096386,,,,,,,,,,,,,,,,,,,,1025.7335,1025.9335,1025.9335,1026.4328,,,,,,,,,,,,,,2.4427,1,,,,,,,,,,,,,,m,,,,,,,,,,,,,,,156,0,1026.4332,1028.884,m,1,2.4427,,[],[],[],[],[],[],[],1028.8842,1030.8826,1030.8827,1030.8828,[],[],[],[],[],[],[],,,,1030.8828,1030.8829,0.024392429,-0.42370246,0,0,0,,0,155,155,150,1,4,word,SENTIMENT,print,sentiment_p.png,,,
,,,,31194,001,2025-11-06_11h18.19.669,HW_LDT_1,2024.2.4,MacIntel,60.24096386,,,,,,,,,,,,,,,,,,,,1030.8836,1031.0837,1031.0837,1031.5837,,,,,,,,,,,,,,1.1032,1,,,,,,,,,,,,,,m,,,,,,,,,,,,,,,157,0,1031.584,1032.7006,m,1,1.1032,,[],[],[],[],[],[],[],1032.7007,1034.6995,1034.6995,1034.6996,[],[],[],[],[],[],[],,,,1034.6996,1034.6996,0.024392429,-0.42370246,0,0,0,,0,156,156,132,1,4,word,PROPOSAL,print,proposal_p.png,,,
,,,,31194,001,2025-11-06_11h18.19.669,HW_LDT_1,2024.2.4,MacIntel,60.24096386,,,,,,,,,,,,,,,,,,,,1034.7004,1034.9005,1034.9005,1035.4001,,,,,,,,,,,,,,1.8358,1,,,,,,,,,,,,,,m,,,,,,,,,,,,,,,158,0,1035.4006,1037.2506,m,1,1.8358,,[],[],[],[],[],[],[],1037.2507,1039.2498,1039.2499,1039.25,[],[],[],[],[],[],[],,,,1039.2501,1039.2502,0.024392429,-0.42370246,0,0,0,,0,157,157,107,1,4,word,EVIDENT,print,evident_p.png,,,
,,,,31194,001,2025-11-06_11h18.19.669,HW_LDT_1,2024.2.4,MacIntel,60.24096386,,,,,,,,,,,,,,,,,,,,1039.2512,1039.4497,1039.4497,1039.9496,,,,,,,,,,,,,,0.9218,1,,,,,,,,,,,,,,m,,,,,,,,,,,,,,,159,1,1039.9499,1040.8842,m,1,0.9218,,[],[],[],[],[],[],[],1040.8843,1042.8832,1042.8833,1046.4175,[],[],[],[],[],[],[],m,3.5214,,1046.4176,1046.4178,0.024392429,-0.42370246,0,0,0,,0,158,158,123,1,4,word,MODERATE,print,moderate_p.png,,,
,,,,31194,001,2025-11-06_11h18.19.669,HW_LDT_1,2024.2.4,MacIntel,60.24096386,,,,,,,,,,,,,,,,,,,,1046.4189,1046.6174,1046.6175,1047.1166,,,,,,,,,,,,,,1.4363,1,,,,,,,,,,,,,,z,,,,,,,,,,,,,,,160,0,1047.1172,1048.5674,z,1,1.4363,,[],[],[],[],[],[],[],1048.5675,1050.5675,1050.5675,1050.5677,[],[],[],[],[],[],[],,,,1050.5677,1050.5677,0.024392429,-0.42370246,0,0,0,,0,159,159,15,1,4,RL,debave,cursive,debave_c.png,,,
,,,,31194,001,2025-11-06_11h18.19.669,HW_LDT_1,2024.2.4,MacIntel,60.24096386,,,,,,,,,,,,,,,,,,,,,,,,,,,,,,,,,,,,,,,,,,,,,,,,,,,,,,,,,,,,,,,,,,,,,,,,,,,,,,,,,,,,,,,,,,,,,,,,,,,,,,,,,,,,,,,,,,,1050.5682,1055.568
