counterbalance_lists.group,counterbalance_lists.remaining,get_list.started,get_list.stopped,participant,session,date,expName,psychopyVersion,OS,frameRate,Instructions.started,Instructions.stopped,key_resp.keys,key_resp.rt,key_resp.duration,instr_done_touch.x,instr_done_touch.y,instr_done_touch.leftButton,instr_done_touch.midButton,instr_done_touch.rightButton,start_instr.thisRepN,start_instr.thisTrialN,start_instr.thisN,start_instr.thisIndex,start_instr.ran,pageN,phase,instruct_text,has_image,instruct_image,showProgress.started,showProgress.stopped,fix.started,fix.stopped,prac.started,prac.stopped,response.keys,response.corr,response.rt,response.duration,touch_resp.x,touch_resp.y,touch_resp.leftButton,touch_resp.midButton,touch_resp.rightButton,touch_resp.time,touch_resp.clicked_name,rt,corr,feedback.started,feedback.stopped,trials.thisRepN,trials.thisTrialN,trials.thisN,trials.thisIndex,trials.ran,TrialID,StimulusType,Condition,PrimeDuration,Prime,Target,corrAns,Instructions_expt.started,Instructions_expt.stopped,key_resp_3.keys,instr_done_touch_3.x,instr_done_touch_3.y,instr_done_touch_3.leftButton,instr_done_touch_3.midButton,instr_done_touch_3.rightButton,instr_done_touch_3.clicked_name,instr_experiment.thisRepN,instr_experiment.thisTrialN,instr_experiment.thisN,instr_experiment.thisIndex,instr_experiment.ran,trialID,flag,maintask.started,maintask.stopped,key_resp_2.keys,key_resp_2.corr,key_resp_2.rt,key_resp_2.duration,targ_click.x,targ_click.y,targ_click.leftButton,targ_click.midButton,targ_click.rightButton,targ_click.time,targ_click.clicked_name,ITI.started,ITI.stopped,probe.started,probe.stopped,click_probe.x,click_probe.y,click_probe.leftButton,click_probe.midButton,click_probe.rightButton,click_probe.time,click_probe.clicked_name,key_resp_probe.keys,Break.started,Break.stopped,break_done_touch.x,break_done_touch.y,break_done_touch.leftButton,break_done_touch.midButton,break_done_touch.rightButton,break_done_keyboard.keys,list2_trials.thisRepN,list2_trials.thisTrialN,list2_trials.thisN,list2_trials.thisIndex,list2_trials.ran,list_id,item_type,string,font,stim_file,key_resp_probe.rt,key_resp_probe.duration,break_done_keyboard.rt,break_done_keyboard.duration,End.started,End.stopped
list2,,4.521,4.521,31261,001,2025-10-18_12h04.55.863,HW_LDT_1,2024.2.4,MacIntel,58.82352941,,,,,,,,,,,,,,,,,,,,,,,,,,,,,,,,,,,,,,,,,,,,,,,,,,,,,,,,,,,,,,,,,,,,,,,,,,,,,,,,,,,,,,,,,,,,,,,,,,,,,,,,,,,,,,,,,,,,,,
,,,,31261,001,2025-10-18_12h04.55.863,HW_LDT_1,2024.2.4,MacIntel,58.82352941,4.54,31.742,space,27.165,,-0.056583243,-0.382480958,0,0,0,0,0,0,0,1,1,instructions,"INSTRUCTIONS
At the start of each trial, look at the plus sign  (+) in the center of the screen.  This tells you that a trial is about to begin and where to look. Second, the plus sign will disappear and a string of letters will appear. Your task is to determine if the string of letters is a word or not. If the item is a word press the M key (on keyboard)  or touch the word button (phone/tablet).  If the item is not a word,  press the  Z key (on keyboard)  or touch the nonword button (on phone/tablet). The items will be presented for a short time. 
Press the space bar or touch  continue.",0,,,,,,,,,,,,,,,,,,,,,,,,,,,,,,,,,,,,,,,,,,,,,,,,,,,,,,,,,,,,,,,,,,,,,,,,,,,,,,,,,,,,,,,,,,,,,,,,,,,
,,,,31261,001,2025-10-18_12h04.55.863,HW_LDT_1,2024.2.4,MacIntel,58.82352941,31.744,35.937,space,4.168,,-0.056583243,-0.382480958,0,0,0,0,1,1,1,1,2,instructions,"If your device has a keyboard, press the 'Z' key for nonwords and the 'M' key for words.





Press the space bar or touch the button below to continue.",0,keyboard-example.gif,,,,,,,,,,,,,,,,,,,,,,,,,,,,,,,,,,,,,,,,,,,,,,,,,,,,,,,,,,,,,,,,,,,,,,,,,,,,,,,,,,,,,,,,,,,,,,,,,,
,,,,31261,001,2025-10-18_12h04.55.863,HW_LDT_1,2024.2.4,MacIntel,58.82352941,35.938,38.42,space,2.445,,-0.056583243,-0.382480958,0,0,0,0,2,2,2,1,3,instructions,"If you are using a touchscreen only device, use the buttons on the screen. Do not use the mouse.





Press the space bar or touch the button below to continue.",0,touchscreen-example.gif,,,,,,,,,,,,,,,,,,,,,,,,,,,,,,,,,,,,,,,,,,,,,,,,,,,,,,,,,,,,,,,,,,,,,,,,,,,,,,,,,,,,,,,,,,,,,,,,,,
,,,,31261,001,2025-10-18_12h04.55.863,HW_LDT_1,2024.2.4,MacIntel,58.82352941,38.423,48.404,space,9.949,,-0.056583243,-0.382480958,0,0,0,0,3,3,3,1,4,instructions,"It is very important that you respond as quickly and accurately as possible, as each letter string will only be on the screen for two seconds. If you do not respond within this time, the message 'Too slow!' will be displayed and the experiment will progress to the next letter string. The first 20 trials will be practice trials and you will receive feedback on your answers. 

Press the space bar or touch the button below to start the practice trials.",0,,,,,,,,,,,,,,,,,,,,,,,,,,,,,,,,,,,,,,,,,,,,,,,,,,,,,,,,,,,,,,,,,,,,,,,,,,,,,,,,,,,,,,,,,,,,,,,,,,,
,,,,31261,001,2025-10-18_12h04.55.863,HW_LDT_1,2024.2.4,MacIntel,58.82352941,,,,,,,,,,,,,,,,,,,,,48.427,48.604,48.604,49.104,49.104,50.32,m,1,1.183,,[],[],[],[],[],[],[],1.183,1,50.321,50.82,0,0,0,2,1,1003,WORD,"ID",16,almond,ALMOND,m,,,,,,,,,,,,,,,,,,,,,,,,,,,,,,,,,,,,,,,,,,,,,,,,,,,,,,,,,,,,,,,,,
,,,,31261,001,2025-10-18_12h04.55.863,HW_LDT_1,2024.2.4,MacIntel,58.82352941,,,,,,,,,,,,,,,,,,,,,50.822,51.02,51.02,51.519,51.52,52.44,m,1,0.901,,[],[],[],[],[],[],[],0.901,1,52.44,52.937,0,1,1,0,1,1001,WORD,"ID",33,utopia,UTOPIA,m,,,,,,,,,,,,,,,,,,,,,,,,,,,,,,,,,,,,,,,,,,,,,,,,,,,,,,,,,,,,,,,,,
,,,,31261,001,2025-10-18_12h04.55.863,HW_LDT_1,2024.2.4,MacIntel,58.82352941,,,,,,,,,,,,,,,,,,,,,52.938,53.136,53.137,53.637,53.638,54.52,z,1,0.862,,[],[],[],[],[],[],[],0.862,1,54.52,55.02,0,2,2,9,1,1010,NW,"ID",33,fariny,FARINY,z,,,,,,,,,,,,,,,,,,,,,,,,,,,,,,,,,,,,,,,,,,,,,,,,,,,,,,,,,,,,,,,,,
,,,,31261,001,2025-10-18_12h04.55.863,HW_LDT_1,2024.2.4,MacIntel,58.82352941,,,,,,,,,,,,,,,,,,,,,55.021,55.22,55.22,55.72,55.721,56.457,m,1,0.72,,[],[],[],[],[],[],[],0.72,1,56.457,56.953,0,3,3,3,1,1004,WORD,"ID",16,matrix,MATRIX,m,,,,,,,,,,,,,,,,,,,,,,,,,,,,,,,,,,,,,,,,,,,,,,,,,,,,,,,,,,,,,,,,,
,,,,31261,001,2025-10-18_12h04.55.863,HW_LDT_1,2024.2.4,MacIntel,58.82352941,,,,,,,,,,,,,,,,,,,,,56.955,57.153,57.153,57.653,57.654,58.72,z,1,1.046,,[],[],[],[],[],[],[],1.046,1,58.72,59.22,0,4,4,15,1,1016,NW,UN,16,mushed,WHAISE,z,,,,,,,,,,,,,,,,,,,,,,,,,,,,,,,,,,,,,,,,,,,,,,,,,,,,,,,,,,,,,,,,,
,,,,31261,001,2025-10-18_12h04.55.863,HW_LDT_1,2024.2.4,MacIntel,58.82352941,,,,,,,,,,,,,,,,,,,,,59.221,59.42,59.42,59.92,59.921,60.653,m,1,0.713,,[],[],[],[],[],[],[],0.713,1,60.653,61.159,0,5,5,6,1,1007,WORD,UN,16,tropic,ZOMBIE,m,,,,,,,,,,,,,,,,,,,,,,,,,,,,,,,,,,,,,,,,,,,,,,,,,,,,,,,,,,,,,,,,,
,,,,31261,001,2025-10-18_12h04.55.863,HW_LDT_1,2024.2.4,MacIntel,58.82352941,,,,,,,,,,,,,,,,,,,,,61.16,61.353,61.353,61.853,61.854,62.769,m,1,0.894,,[],[],[],[],[],[],[],0.894,1,62.769,63.269,0,6,6,4,1,1005,WORD,UN,33,abound,SQUEAK,m,,,,,,,,,,,,,,,,,,,,,,,,,,,,,,,,,,,,,,,,,,,,,,,,,,,,,,,,,,,,,,,,,
,,,,31261,001,2025-10-18_12h04.55.863,HW_LDT_1,2024.2.4,MacIntel,58.82352941,,,,,,,,,,,,,,,,,,,,,63.271,63.47,63.47,63.969,63.971,65.056,m,1,1.069,,[],[],[],[],[],[],[],1.069,1,65.057,65.553,0,7,7,1,1,1002,WORD,"ID",33,adjust,ADJUST,m,,,,,,,,,,,,,,,,,,,,,,,,,,,,,,,,,,,,,,,,,,,,,,,,,,,,,,,,,,,,,,,,,
,,,,31261,001,2025-10-18_12h04.55.863,HW_LDT_1,2024.2.4,MacIntel,58.82352941,,,,,,,,,,,,,,,,,,,,,65.554,65.753,65.753,66.253,66.254,67.103,z,1,0.828,,[],[],[],[],[],[],[],0.828,1,67.103,67.603,0,8,8,11,1,1012,NW,"ID",16,rashet,RASHET,z,,,,,,,,,,,,,,,,,,,,,,,,,,,,,,,,,,,,,,,,,,,,,,,,,,,,,,,,,,,,,,,,,
,,,,31261,001,2025-10-18_12h04.55.863,HW_LDT_1,2024.2.4,MacIntel,58.82352941,,,,,,,,,,,,,,,,,,,,,67.604,67.803,67.803,68.302,68.304,69.219,z,1,0.903,,[],[],[],[],[],[],[],0.903,1,69.22,69.72,0,9,9,12,1,1013,NW,UN,33,adveil,SPRINY,z,,,,,,,,,,,,,,,,,,,,,,,,,,,,,,,,,,,,,,,,,,,,,,,,,,,,,,,,,,,,,,,,,
,,,,31261,001,2025-10-18_12h04.55.863,HW_LDT_1,2024.2.4,MacIntel,58.82352941,,,,,,,,,,,,,,,,,,,,,69.721,69.919,69.92,70.419,70.421,71.436,m,1,0.994,,[],[],[],[],[],[],[],0.994,1,71.437,71.936,0,10,10,5,1,1006,WORD,UN,33,frenzy,OBTAIN,m,,,,,,,,,,,,,,,,,,,,,,,,,,,,,,,,,,,,,,,,,,,,,,,,,,,,,,,,,,,,,,,,,
,,,,31261,001,2025-10-18_12h04.55.863,HW_LDT_1,2024.2.4,MacIntel,58.82352941,,,,,,,,,,,,,,,,,,,,,71.937,72.136,72.136,72.636,72.637,73.37,z,1,0.712,,[],[],[],[],[],[],[],0.712,1,73.37,73.869,0,11,11,8,1,1009,NW,"ID",33,aslert,ASLERT,z,,,,,,,,,,,,,,,,,,,,,,,,,,,,,,,,,,,,,,,,,,,,,,,,,,,,,,,,,,,,,,,,,
,,,,31261,001,2025-10-18_12h04.55.863,HW_LDT_1,2024.2.4,MacIntel,58.82352941,,,,,,,,,,,,,,,,,,,,,73.87,74.07,74.07,74.569,74.57,75.403,z,1,0.814,,[],[],[],[],[],[],[],0.814,1,75.403,75.903,0,12,12,13,1,1014,NW,UN,33,winfer,ROUPET,z,,,,,,,,,,,,,,,,,,,,,,,,,,,,,,,,,,,,,,,,,,,,,,,,,,,,,,,,,,,,,,,,,
,,,,31261,001,2025-10-18_12h04.55.863,HW_LDT_1,2024.2.4,MacIntel,58.82352941,,,,,,,,,,,,,,,,,,,,,75.904,76.103,76.103,76.603,76.604,77.353,z,1,0.729,,[],[],[],[],[],[],[],0.729,1,77.353,77.853,0,13,13,10,1,1011,NW,"ID",16,inlade,INLADE,z,,,,,,,,,,,,,,,,,,,,,,,,,,,,,,,,,,,,,,,,,,,,,,,,,,,,,,,,,,,,,,,,,
,,,,31261,001,2025-10-18_12h04.55.863,HW_LDT_1,2024.2.4,MacIntel,58.82352941,,,,,,,,,,,,,,,,,,,,,77.854,78.053,78.053,78.553,78.554,79.253,z,1,0.679,,[],[],[],[],[],[],[],0.679,1,79.253,79.753,0,14,14,14,1,1015,NW,UN,16,miaber,THRALE,z,,,,,,,,,,,,,,,,,,,,,,,,,,,,,,,,,,,,,,,,,,,,,,,,,,,,,,,,,,,,,,,,,
,,,,31261,001,2025-10-18_12h04.55.863,HW_LDT_1,2024.2.4,MacIntel,58.82352941,,,,,,,,,,,,,,,,,,,,,79.754,79.953,79.953,80.453,80.454,81.106,m,1,0.635,,[],[],[],[],[],[],[],0.635,1,81.106,81.603,0,15,15,7,1,1008,WORD,UN,16,hurdle,VOLUME,m,,,,,,,,,,,,,,,,,,,,,,,,,,,,,,,,,,,,,,,,,,,,,,,,,,,,,,,,,,,,,,,,,
,,,,31261,001,2025-10-18_12h04.55.863,HW_LDT_1,2024.2.4,MacIntel,58.82352941,,,,,,,,,,,,,,,,1,end_of_practice,"You have completed the practice trials. During the experimental trials, you will not receive feedback. On some trials you will be asked to report whether the item you just saw was in cursive or print. 
Before you begin, please ensure that you are in a comfortable and quiet location and will not be disturbed for about 15 minutes, as we cannot use your data if you do not complete all the trials. 
 When you are ready to start the experimental trials, please press space or touch the button below.",,,,,,,,,,,,,,,,,,,,,,,,,,,,,,,,,,,,81.612,91.437,,-0.020674646,-0.410772579,1,0,0,instr_done_button_3,0,0,0,0,1,,,,,,,,,,,,,,,,,,,,,,,,,,,,,,,,,,,,,,,,,,,,,,,,,,,
,,,,31261,001,2025-10-18_12h04.55.863,HW_LDT_1,2024.2.4,MacIntel,58.82352941,,,,,,,,,,,,,,,,,,,,,91.45,91.636,91.636,92.135,,,,,,,,,,,,,,0.922,1,,,,,,,,,,,,,,z,,,,,,,,,,,,,,,1,0,92.137,93.07,z,1,0.922,,[],[],[],[],[],[],[],93.071,95.069,95.07,95.075,[],[],[],[],[],[],[],,95.075,95.078,-0.020674646,-0.410772579,0,0,0,,0,0,0,78,1,2,TL,stogare,print,stogare_p.png,,,,,,
,,,,31261,001,2025-10-18_12h04.55.863,HW_LDT_1,2024.2.4,MacIntel,58.82352941,,,,,,,,,,,,,,,,,,,,,95.078,95.269,95.269,95.769,,,,,,,,,,,,,,1.727,0,,,,,,,,,,,,,,z,,,,,,,,,,,,,,,2,0,95.77,97.506,m,0,1.727,,[],[],[],[],[],[],[],97.506,99.503,99.503,99.503,[],[],[],[],[],[],[],,99.503,99.504,-0.020674646,-0.410772579,0,0,0,,0,1,1,47,1,2,TL,crinimal,cursive,crinimal_c.png,,,,,,
,,,,31261,001,2025-10-18_12h04.55.863,HW_LDT_1,2024.2.4,MacIntel,58.82352941,,,,,,,,,,,,,,,,,,,,,99.505,99.702,99.702,100.203,,,,,,,,,,,,,,1.496,1,,,,,,,,,,,,,,z,,,,,,,,,,,,,,,3,0,100.203,101.703,z,1,1.496,,[],[],[],[],[],[],[],101.703,103.703,103.703,103.703,[],[],[],[],[],[],[],,103.703,103.704,-0.020674646,-0.410772579,0,0,0,,0,2,2,66,1,2,TL,prodive,cursive,prodive_c.png,,,,,,
,,,,31261,001,2025-10-18_12h04.55.863,HW_LDT_1,2024.2.4,MacIntel,58.82352941,,,,,,,,,,,,,,,,,,,,,103.704,103.902,103.903,104.403,,,,,,,,,,,,,,0.906,1,,,,,,,,,,,,,,z,,,,,,,,,,,,,,,4,0,104.403,105.319,z,1,0.906,,[],[],[],[],[],[],[],105.319,107.319,107.319,107.32,[],[],[],[],[],[],[],,107.32,107.32,-0.020674646,-0.410772579,0,0,0,,0,3,3,75,1,2,TL,ronamtic,print,ronamtic_p.png,,,,,,
,,,,31261,001,2025-10-18_12h04.55.863,HW_LDT_1,2024.2.4,MacIntel,58.82352941,,,,,,,,,,,,,,,,,,,,,107.321,107.519,107.519,108.019,,,,,,,,,,,,,,0.753,1,,,,,,,,,,,,,,z,,,,,,,,,,,,,,,5,0,108.019,108.786,z,1,0.753,,[],[],[],[],[],[],[],108.786,110.786,110.786,110.786,[],[],[],[],[],[],[],,110.786,110.786,-0.020674646,-0.410772579,0,0,0,,0,4,4,60,1,2,TL,molibe,print,molibe_p.png,,,,,,
,,,,31261,001,2025-10-18_12h04.55.863,HW_LDT_1,2024.2.4,MacIntel,58.82352941,,,,,,,,,,,,,,,,,,,,,110.787,110.986,110.986,111.486,,,,,,,,,,,,,,0.828,1,,,,,,,,,,,,,,m,,,,,,,,,,,,,,,6,1,111.486,112.323,m,1,0.828,,[],[],[],[],[],[],[],112.323,114.319,114.319,116.339,[],[],[],[],[],[],[],m,116.34,116.34,-0.020674646,-0.410772579,0,0,0,,0,5,5,91,1,2,word,CARDINAL,cursive,cardinal_c.png,2.012,,,,,
,,,,31261,001,2025-10-18_12h04.55.863,HW_LDT_1,2024.2.4,MacIntel,58.82352941,,,,,,,,,,,,,,,,,,,,,116.341,116.536,116.536,117.036,,,,,,,,,,,,,,2.494,0,,,,,,,,,,,,,,z,,,,,,,,,,,,,,,7,0,117.036,119.539,m,0,2.494,,[],[],[],[],[],[],[],119.54,121.536,121.536,121.536,[],[],[],[],[],[],[],,121.537,121.537,-0.020674646,-0.410772579,0,0,0,,0,6,6,76,1,2,TL,senmitent,cursive,senmitent_c.png,,,,,,
,,,,31261,001,2025-10-18_12h04.55.863,HW_LDT_1,2024.2.4,MacIntel,58.82352941,,,,,,,,,,,,,,,,,,,,,121.538,121.736,121.736,122.236,,,,,,,,,,,,,,1.836,1,,,,,,,,,,,,,,m,,,,,,,,,,,,,,,8,0,122.236,124.086,m,1,1.836,,[],[],[],[],[],[],[],124.086,126.086,126.086,126.086,[],[],[],[],[],[],[],,126.086,126.086,-0.020674646,-0.410772579,0,0,0,,0,7,7,97,1,2,word,COVERAGE,cursive,coverage_c.png,,,,,,
,,,,31261,001,2025-10-18_12h04.55.863,HW_LDT_1,2024.2.4,MacIntel,58.82352941,,,,,,,,,,,,,,,,,,,,,126.087,126.286,126.286,126.786,,,,,,,,,,,,,,2.554,1,,,,,,,,,,,,,,z,,,,,,,,,,,,,,,9,0,126.786,129.352,z,1,2.554,,[],[],[],[],[],[],[],129.353,131.352,131.353,131.353,[],[],[],[],[],[],[],,131.353,131.353,-0.020674646,-0.410772579,0,0,0,,0,8,8,10,1,2,RL,disluge,cursive,disluge_c.png,,,,,,
,,,,31261,001,2025-10-18_12h04.55.863,HW_LDT_1,2024.2.4,MacIntel,58.82352941,,,,,,,,,,,,,,,,,,,,,131.354,131.552,131.552,132.052,,,,,,,,,,,,,,1.325,1,,,,,,,,,,,,,,m,,,,,,,,,,,,,,,10,0,132.053,133.386,m,1,1.325,,[],[],[],[],[],[],[],133.386,135.386,135.386,135.386,[],[],[],[],[],[],[],,135.386,135.387,-0.020674646,-0.410772579,0,0,0,,0,9,9,85,1,2,word,BENEFIT,cursive,benefit_c.png,,,,,,
,,,,31261,001,2025-10-18_12h04.55.863,HW_LDT_1,2024.2.4,MacIntel,58.82352941,,,,,,,,,,,,,,,,,,,,,135.388,135.586,135.586,136.086,,,,,,,,,,,,,,1.236,1,,,,,,,,,,,,,,m,,,,,,,,,,,,,,,11,0,136.086,137.336,m,1,1.236,,[],[],[],[],[],[],[],137.336,139.336,139.336,139.336,[],[],[],[],[],[],[],,139.336,139.336,-0.020674646,-0.410772579,0,0,0,,0,10,10,154,1,2,word,STORAGE,print,storage_p.png,,,,,,
,,,,31261,001,2025-10-18_12h04.55.863,HW_LDT_1,2024.2.4,MacIntel,58.82352941,,,,,,,,,,,,,,,,,,,,,139.337,139.536,139.536,140.036,,,,,,,,,,,,,,0.757,1,,,,,,,,,,,,,,m,,,,,,,,,,,,,,,12,0,140.036,140.802,m,1,0.757,,[],[],[],[],[],[],[],140.803,142.802,142.802,142.803,[],[],[],[],[],[],[],,142.803,142.803,-0.020674646,-0.410772579,0,0,0,,0,11,11,158,1,2,word,VELOCITY,print,velocity_p.png,,,,,,
,,,,31261,001,2025-10-18_12h04.55.863,HW_LDT_1,2024.2.4,MacIntel,58.82352941,,,,,,,,,,,,,,,,,,,,,142.804,143.002,143.002,143.502,,,,,,,,,,,,,,1.372,1,,,,,,,,,,,,,,m,,,,,,,,,,,,,,,13,0,143.503,144.886,m,1,1.372,,[],[],[],[],[],[],[],144.886,146.885,146.886,146.886,[],[],[],[],[],[],[],,146.886,146.886,-0.020674646,-0.410772579,0,0,0,,0,12,12,117,1,2,word,MARINE,cursive,marine_c.png,,,,,,
,,,,31261,001,2025-10-18_12h04.55.863,HW_LDT_1,2024.2.4,MacIntel,58.82352941,,,,,,,,,,,,,,,,,,,,,146.887,147.085,147.085,147.586,,,,,,,,,,,,,,1.752,1,,,,,,,,,,,,,,m,,,,,,,,,,,,,,,14,0,147.586,149.352,m,1,1.752,,[],[],[],[],[],[],[],149.352,151.352,151.352,151.353,[],[],[],[],[],[],[],,151.353,151.353,-0.020674646,-0.410772579,0,0,0,,0,13,13,153,1,2,word,STOLEN,print,stolen_p.png,,,,,,
,,,,31261,001,2025-10-18_12h04.55.863,HW_LDT_1,2024.2.4,MacIntel,58.82352941,,,,,,,,,,,,,,,,,,,,,151.354,151.552,151.552,152.052,,,,,,,,,,,,,,1.02,1,,,,,,,,,,,,,,m,,,,,,,,,,,,,,,15,0,152.053,153.086,m,1,1.02,,[],[],[],[],[],[],[],153.086,155.085,155.086,155.086,[],[],[],[],[],[],[],,155.086,155.087,-0.020674646,-0.410772579,0,0,0,,0,14,14,108,1,2,word,FORTUNE,print,fortune_p.png,,,,,,
,,,,31261,001,2025-10-18_12h04.55.863,HW_LDT_1,2024.2.4,MacIntel,58.82352941,,,,,,,,,,,,,,,,,,,,,155.088,155.285,155.285,155.785,,,,,,,,,,,,,,1.171,0,,,,,,,,,,,,,,m,,,,,,,,,,,,,,,16,0,155.786,156.969,z,0,1.171,,[],[],[],[],[],[],[],156.969,158.969,158.969,158.969,[],[],[],[],[],[],[],,158.969,158.969,-0.020674646,-0.410772579,0,0,0,,0,15,15,105,1,2,word,EDITOR,cursive,editor_c.png,,,,,,
,,,,31261,001,2025-10-18_12h04.55.863,HW_LDT_1,2024.2.4,MacIntel,58.82352941,,,,,,,,,,,,,,,,,,,,,158.97,159.169,159.169,159.669,,,,,,,,,,,,,,1.369,1,,,,,,,,,,,,,,z,,,,,,,,,,,,,,,17,1,159.669,161.052,z,1,1.369,,[],[],[],[],[],[],[],161.052,163.052,163.052,165.119,[],[],[],[],[],[],[],m,165.119,165.119,-0.020674646,-0.410772579,0,0,0,,0,16,16,0,1,2,RL,adnicory,print,adnicory_p.png,2.058,,,,,
,,,,31261,001,2025-10-18_12h04.55.863,HW_LDT_1,2024.2.4,MacIntel,58.82352941,,,,,,,,,,,,,,,,,,,,,165.12,165.318,165.318,165.819,,,,,,,,,,,,,,2.042,0,,,,,,,,,,,,,,m,,,,,,,,,,,,,,,18,0,165.819,167.869,z,0,2.042,,[],[],[],[],[],[],[],167.869,169.869,169.869,169.869,[],[],[],[],[],[],[],,169.869,169.87,-0.020674646,-0.410772579,0,0,0,,0,17,17,125,1,2,word,OPERATOR,cursive,operator_c.png,,,,,,
,,,,31261,001,2025-10-18_12h04.55.863,HW_LDT_1,2024.2.4,MacIntel,58.82352941,,,,,,,,,,,,,,,,,,,,,169.871,170.068,170.068,170.568,,,,,,,,,,,,,,3.58,1,,,,,,,,,,,,,,z,,,,,,,,,,,,,,,19,0,170.569,174.152,z,1,3.58,,[],[],[],[],[],[],[],174.152,176.152,176.152,176.153,[],[],[],[],[],[],[],,176.153,176.153,-0.020674646,-0.410772579,0,0,0,,0,18,18,44,1,2,TL,catipal,cursive,catipal_c.png,,,,,,
,,,,31261,001,2025-10-18_12h04.55.863,HW_LDT_1,2024.2.4,MacIntel,58.82352941,,,,,,,,,,,,,,,,,,,,,176.154,176.352,176.352,176.852,,,,,,,,,,,,,,6.32,0,,,,,,,,,,,,,,m,,,,,,,,,,,,,,,20,1,176.853,183.185,z,0,6.32,,[],[],[],[],[],[],[],183.186,185.185,185.185,186.952,[],[],[],[],[],[],[],z,186.952,186.953,-0.020674646,-0.410772579,0,0,0,,0,19,19,120,1,2,word,MILITARY,cursive,military_c.png,1.753,,,,,
,,,,31261,001,2025-10-18_12h04.55.863,HW_LDT_1,2024.2.4,MacIntel,58.82352941,,,,,,,,,,,,,,,,,,,,,186.954,187.151,187.151,187.652,,,,,,,,,,,,,,1.605,1,,,,,,,,,,,,,,z,,,,,,,,,,,,,,,21,0,187.653,189.269,z,1,1.605,,[],[],[],[],[],[],[],189.269,191.269,191.269,191.269,[],[],[],[],[],[],[],,191.269,191.269,-0.020674646,-0.410772579,0,0,0,,0,20,20,55,1,2,TL,lotace,print,lotace_p.png,,,,,,
,,,,31261,001,2025-10-18_12h04.55.863,HW_LDT_1,2024.2.4,MacIntel,58.82352941,,,,,,,,,,,,,,,,,,,,,191.27,191.468,191.468,191.969,,,,,,,,,,,,,,0.769,1,,,,,,,,,,,,,,z,,,,,,,,,,,,,,,22,1,191.969,192.752,z,1,0.769,,[],[],[],[],[],[],[],192.752,194.752,194.752,196.752,[],[],[],[],[],[],[],m,196.752,196.752,-0.020674646,-0.410772579,0,0,0,,0,21,21,4,1,2,RL,cenesony,print,cenesony_p.png,1.988,,,,,
,,,,31261,001,2025-10-18_12h04.55.863,HW_LDT_1,2024.2.4,MacIntel,58.82352941,,,,,,,,,,,,,,,,,,,,,196.753,196.952,196.952,197.452,,,,,,,,,,,,,,1.189,1,,,,,,,,,,,,,,z,,,,,,,,,,,,,,,23,0,197.452,198.652,z,1,1.189,,[],[],[],[],[],[],[],198.652,200.652,200.652,200.653,[],[],[],[],[],[],[],,200.653,200.653,-0.020674646,-0.410772579,0,0,0,,0,22,22,48,1,2,TL,detabe,print,detabe_p.png,,,,,,
,,,,31261,001,2025-10-18_12h04.55.863,HW_LDT_1,2024.2.4,MacIntel,58.82352941,,,,,,,,,,,,,,,,,,,,,200.654,200.852,200.852,201.352,,,,,,,,,,,,,,0.958,1,,,,,,,,,,,,,,m,,,,,,,,,,,,,,,24,0,201.352,202.319,m,1,0.958,,[],[],[],[],[],[],[],202.319,204.318,204.319,204.319,[],[],[],[],[],[],[],,204.319,204.319,-0.020674646,-0.410772579,0,0,0,,0,23,23,81,1,2,word,ADVISORY,print,advisory_p.png,,,,,,
,,,,31261,001,2025-10-18_12h04.55.863,HW_LDT_1,2024.2.4,MacIntel,58.82352941,,,,,,,,,,,,,,,,,,,,,204.32,204.518,204.518,205.018,,,,,,,,,,,,,,1.155,1,,,,,,,,,,,,,,m,,,,,,,,,,,,,,,25,0,205.019,206.185,m,1,1.155,,[],[],[],[],[],[],[],206.185,208.185,208.185,208.186,[],[],[],[],[],[],[],,208.186,208.186,-0.020674646,-0.410772579,0,0,0,,0,24,24,83,1,2,word,ANIMAL,print,animal_p.png,,,,,,
,,,,31261,001,2025-10-18_12h04.55.863,HW_LDT_1,2024.2.4,MacIntel,58.82352941,,,,,,,,,,,,,,,,,,,,,208.187,208.385,208.385,208.885,,,,,,,,,,,,,,2.012,1,,,,,,,,,,,,,,m,,,,,,,,,,,,,,,26,0,208.886,210.906,m,1,2.012,,[],[],[],[],[],[],[],210.906,212.902,212.902,212.902,[],[],[],[],[],[],[],,212.902,212.903,-0.020674646,-0.410772579,0,0,0,,0,25,25,84,1,2,word,BELOVED,cursive,beloved_c.png,,,,,,
,,,,31261,001,2025-10-18_12h04.55.863,HW_LDT_1,2024.2.4,MacIntel,58.82352941,,,,,,,,,,,,,,,,,,,,,212.904,213.102,213.102,213.602,,,,,,,,,,,,,,2.978,0,,,,,,,,,,,,,,m,,,,,,,,,,,,,,,27,0,213.602,216.585,z,0,2.978,,[],[],[],[],[],[],[],216.585,218.585,218.585,218.586,[],[],[],[],[],[],[],,218.586,218.586,-0.020674646,-0.410772579,0,0,0,,0,26,26,141,1,2,word,RELIGION,cursive,religion_c.png,,,,,,
,,,,31261,001,2025-10-18_12h04.55.863,HW_LDT_1,2024.2.4,MacIntel,58.82352941,,,,,,,,,,,,,,,,,,,,,218.587,218.785,218.785,219.285,,,,,,,,,,,,,,1.315,1,,,,,,,,,,,,,,z,,,,,,,,,,,,,,,28,0,219.286,220.602,z,1,1.315,,[],[],[],[],[],[],[],220.602,222.602,222.602,222.602,[],[],[],[],[],[],[],,222.602,222.602,-0.020674646,-0.410772579,0,0,0,,0,27,27,77,1,2,TL,sloten,print,sloten_p.png,,,,,,
,,,,31261,001,2025-10-18_12h04.55.863,HW_LDT_1,2024.2.4,MacIntel,58.82352941,,,,,,,,,,,,,,,,,,,,,222.603,222.801,222.802,223.302,,,,,,,,,,,,,,0.826,1,,,,,,,,,,,,,,m,,,,,,,,,,,,,,,29,0,223.302,224.138,m,1,0.826,,[],[],[],[],[],[],[],224.138,226.135,226.135,226.136,[],[],[],[],[],[],[],,226.136,226.136,-0.020674646,-0.410772579,0,0,0,,0,28,28,96,1,2,word,CONSIDER,print,consider_p.png,,,,,,
,,,,31261,001,2025-10-18_12h04.55.863,HW_LDT_1,2024.2.4,MacIntel,58.82352941,,,,,,,,,,,,,,,,,,,,,226.137,226.335,226.335,226.835,,,,,,,,,,,,,,1.004,1,,,,,,,,,,,,,,m,,,,,,,,,,,,,,,30,1,226.836,227.851,m,1,1.004,,[],[],[],[],[],[],[],227.851,229.852,229.852,230.935,[],[],[],[],[],[],[],m,230.935,230.935,-0.020674646,-0.410772579,0,0,0,,0,29,29,115,1,2,word,LOGICAL,print,logical_p.png,1.074,,,,,
,,,,31261,001,2025-10-18_12h04.55.863,HW_LDT_1,2024.2.4,MacIntel,58.82352941,,,,,,,,,,,,,,,,,,,,,230.936,231.135,231.135,231.635,,,,,,,,,,,,,,1.363,1,,,,,,,,,,,,,,z,,,,,,,,,,,,,,,31,0,231.635,233.002,z,1,1.363,,[],[],[],[],[],[],[],233.002,235.001,235.002,235.002,[],[],[],[],[],[],[],,235.002,235.002,-0.020674646,-0.410772579,0,0,0,,0,30,30,42,1,2,TL,bedise,cursive,bedise_c.png,,,,,,
,,,,31261,001,2025-10-18_12h04.55.863,HW_LDT_1,2024.2.4,MacIntel,58.82352941,,,,,,,,,,,,,,,,,,,,,235.003,235.201,235.202,235.701,,,,,,,,,,,,,,1.069,1,,,,,,,,,,,,,,m,,,,,,,,,,,,,,,32,0,235.702,236.785,m,1,1.069,,[],[],[],[],[],[],[],236.785,238.785,238.785,238.785,[],[],[],[],[],[],[],,238.785,238.785,-0.020674646,-0.410772579,0,0,0,,0,31,31,133,1,2,word,PROVIDE,cursive,provide_c.png,,,,,,
,,,,31261,001,2025-10-18_12h04.55.863,HW_LDT_1,2024.2.4,MacIntel,58.82352941,,,,,,,,,,,,,,,,,,,,,238.786,238.985,238.985,239.485,,,,,,,,,,,,,,1.17,1,,,,,,,,,,,,,,m,,,,,,,,,,,,,,,33,0,239.486,240.668,m,1,1.17,,[],[],[],[],[],[],[],240.668,242.668,242.668,242.669,[],[],[],[],[],[],[],,242.669,242.669,-0.020674646,-0.410772579,0,0,0,,0,32,32,148,1,2,word,SALINE,cursive,saline_c.png,,,,,,
,,,,31261,001,2025-10-18_12h04.55.863,HW_LDT_1,2024.2.4,MacIntel,58.82352941,,,,,,,,,,,,,,,,,,,,,242.67,242.868,242.868,243.368,,,,,,,,,,,,,,1.128,1,,,,,,,,,,,,,,z,,,,,,,,,,,,,,,34,0,243.369,244.502,z,1,1.128,,[],[],[],[],[],[],[],244.502,246.502,246.502,246.502,[],[],[],[],[],[],[],,246.502,246.502,-0.020674646,-0.410772579,0,0,0,,0,33,33,39,1,2,TL,aminal,print,aminal_p.png,,,,,,
,,,,31261,001,2025-10-18_12h04.55.863,HW_LDT_1,2024.2.4,MacIntel,58.82352941,,,,,,,,,,,,,,,,,,,,,246.503,246.701,246.702,247.201,,,,,,,,,,,,,,1.294,1,,,,,,,,,,,,,,z,,,,,,,,,,,,,,,35,0,247.202,248.501,z,1,1.294,,[],[],[],[],[],[],[],248.502,250.501,250.502,250.502,[],[],[],[],[],[],[],,250.502,250.502,-0.020674646,-0.410772579,0,0,0,,0,34,34,43,1,2,TL,carema,print,carema_p.png,,,,,,
,,,,31261,001,2025-10-18_12h04.55.863,HW_LDT_1,2024.2.4,MacIntel,58.82352941,,,,,,,,,,,,,,,,,,,,,250.503,250.701,250.701,251.201,,,,,,,,,,,,,,1.752,1,,,,,,,,,,,,,,z,,,,,,,,,,,,,,,36,0,251.202,252.968,z,1,1.752,,[],[],[],[],[],[],[],252.968,254.968,254.968,254.969,[],[],[],[],[],[],[],,254.969,254.969,-0.020674646,-0.410772579,0,0,0,,0,35,35,35,1,2,RL,vesofity,print,vesofity_p.png,,,,,,
,,,,31261,001,2025-10-18_12h04.55.863,HW_LDT_1,2024.2.4,MacIntel,58.82352941,,,,,,,,,,,,,,,,,,,,,254.97,255.168,255.168,255.668,,,,,,,,,,,,,,1.244,1,,,,,,,,,,,,,,m,,,,,,,,,,,,,,,37,0,255.669,256.922,m,1,1.244,,[],[],[],[],[],[],[],256.922,258.918,258.918,258.918,[],[],[],[],[],[],[],,258.919,258.919,-0.020674646,-0.410772579,0,0,0,,0,36,36,86,1,2,word,BESIDE,cursive,beside_c.png,,,,,,
,,,,31261,001,2025-10-18_12h04.55.863,HW_LDT_1,2024.2.4,MacIntel,58.82352941,,,,,,,,,,,,,,,,,,,,,258.92,259.118,259.118,259.618,,,,,,,,,,,,,,3.787,0,,,,,,,,,,,,,,z,,,,,,,,,,,,,,,38,0,259.618,263.418,m,0,3.787,,[],[],[],[],[],[],[],263.418,265.418,265.418,265.418,[],[],[],[],[],[],[],,265.419,265.419,-0.020674646,-0.410772579,0,0,0,,0,37,37,68,1,2,TL,quatily,cursive,quatily_c.png,,,,,,
,,,,31261,001,2025-10-18_12h04.55.863,HW_LDT_1,2024.2.4,MacIntel,58.82352941,,,,,,,,,,,,,,,,,,,,,265.42,265.618,265.618,266.118,,,,,,,,,,,,,,1.837,1,,,,,,,,,,,,,,z,,,,,,,,,,,,,,,39,0,266.119,267.968,z,1,1.837,,[],[],[],[],[],[],[],267.968,269.968,269.968,269.968,[],[],[],[],[],[],[],,269.968,269.969,-0.020674646,-0.410772579,0,0,0,,0,38,38,73,1,2,TL,redisent,print,redisent_p.png,,,,,,
,,,,31261,001,2025-10-18_12h04.55.863,HW_LDT_1,2024.2.4,MacIntel,58.82352941,,,,,,,,,,,,,,,,,,,,,269.97,270.168,270.168,270.668,,,,,,,,,,,,,,6.471,1,,,,,,,,,,,,,,z,,,,,,,,,,,,,,,40,0,270.668,277.151,z,1,6.471,,[],[],[],[],[],[],[],277.151,279.151,279.151,279.152,[],[],[],[],[],[],[],,279.152,279.152,-0.020674646,-0.410772579,0,0,0,,0,39,39,5,1,2,RL,clisimal,cursive,clisimal_c.png,,,,,,
,,,,31261,001,2025-10-18_12h04.55.863,HW_LDT_1,2024.2.4,MacIntel,58.82352941,,,,,,,,,,,,,,,,,,,,,279.153,279.351,279.351,279.851,,,,,,,,,,,,,,3.273,0,,,,,,,,,,,,,,m,,,,,,,,,,,,,,,41,0,279.852,283.135,z,0,3.273,,[],[],[],[],[],[],[],283.135,285.134,285.134,285.134,[],[],[],[],[],[],[],,285.134,285.134,-0.020674646,-0.410772579,0,0,0,,0,40,40,135,1,2,word,QUALITY,cursive,quality_c.png,,,,,,
,,,,31261,001,2025-10-18_12h04.55.863,HW_LDT_1,2024.2.4,MacIntel,58.82352941,,,,,,,,,,,,,,,,,,,,,285.135,285.335,285.335,285.834,,,,,,,,,,,,,,0.853,1,,,,,,,,,,,,,,m,,,,,,,,,,,,,,,42,0,285.835,286.701,m,1,0.853,,[],[],[],[],[],[],[],286.701,288.701,288.701,288.702,[],[],[],[],[],[],[],,288.702,288.702,-0.020674646,-0.410772579,0,0,0,,0,41,41,140,1,2,word,RELATIVE,print,relative_p.png,,,,,,
,,,,31261,001,2025-10-18_12h04.55.863,HW_LDT_1,2024.2.4,MacIntel,58.82352941,,,,,,,,,,,,,,,,,,,,,288.703,288.901,288.901,289.401,,,,,,,,,,,,,,1.137,0,,,,,,,,,,,,,,z,,,,,,,,,,,,,,,43,0,289.402,290.551,m,0,1.137,,[],[],[],[],[],[],[],290.551,292.551,292.551,292.552,[],[],[],[],[],[],[],,292.552,292.552,-0.020674646,-0.410772579,0,0,0,,0,42,42,15,1,2,RL,linedal,print,linedal_p.png,,,,,,
,,,,31261,001,2025-10-18_12h04.55.863,HW_LDT_1,2024.2.4,MacIntel,58.82352941,,,,,,,,,,,,,,,,,,,,,292.553,292.751,292.751,293.251,,,,,,,,,,,,,,1.203,1,,,,,,,,,,,,,,z,,,,,,,,,,,,,,,44,0,293.251,294.468,z,1,1.203,,[],[],[],[],[],[],[],294.468,296.468,296.468,296.468,[],[],[],[],[],[],[],,296.468,296.469,-0.020674646,-0.410772579,0,0,0,,0,43,43,19,1,2,RL,monebate,cursive,monebate_c.png,,,,,,
,,,,31261,001,2025-10-18_12h04.55.863,HW_LDT_1,2024.2.4,MacIntel,58.82352941,,,,,,,,,,,,,,,,,,,,,296.47,296.667,296.667,297.168,,,,,,,,,,,,,,0.658,1,,,,,,,,,,,,,,m,,,,,,,,,,,,,,,45,0,297.168,297.835,m,1,0.658,,[],[],[],[],[],[],[],297.835,299.834,299.835,299.835,[],[],[],[],[],[],[],,299.835,299.835,-0.020674646,-0.410772579,0,0,0,,0,44,44,130,1,2,word,POLICY,print,policy_p.png,,,,,,
,,,,31261,001,2025-10-18_12h04.55.863,HW_LDT_1,2024.2.4,MacIntel,58.82352941,,,,,,,,,,,,,,,,,,,,,299.836,300.035,300.035,300.534,,,,,,,,,,,,,,1.322,1,,,,,,,,,,,,,,m,,,,,,,,,,,,,,,46,0,300.535,301.868,m,1,1.322,,[],[],[],[],[],[],[],301.868,303.868,303.868,303.868,[],[],[],[],[],[],[],,303.868,303.868,-0.020674646,-0.410772579,0,0,0,,0,45,45,136,1,2,word,RADICAL,cursive,radical_c.png,,,,,,
,,,,31261,001,2025-10-18_12h04.55.863,HW_LDT_1,2024.2.4,MacIntel,58.82352941,,,,,,,,,,,,,,,,,,,,,303.87,304.068,304.068,304.568,,,,,,,,,,,,,,0.803,1,,,,,,,,,,,,,,m,,,,,,,,,,,,,,,47,0,304.568,305.385,m,1,0.803,,[],[],[],[],[],[],[],305.385,307.384,307.385,307.385,[],[],[],[],[],[],[],,307.385,307.385,-0.020674646,-0.410772579,0,0,0,,0,46,46,80,1,2,word,ACADEMY,cursive,academy_c.png,,,,,,
,,,,31261,001,2025-10-18_12h04.55.863,HW_LDT_1,2024.2.4,MacIntel,58.82352941,,,,,,,,,,,,,,,,,,,,,307.386,307.584,307.585,308.084,,,,,,,,,,,,,,0.928,1,,,,,,,,,,,,,,z,,,,,,,,,,,,,,,48,0,308.085,309.018,z,1,0.928,,[],[],[],[],[],[],[],309.018,311.017,311.018,311.018,[],[],[],[],[],[],[],,311.018,311.018,-0.020674646,-0.410772579,0,0,0,,0,47,47,6,1,2,RL,conbicer,print,conbicer_p.png,,,,,,
,,,,31261,001,2025-10-18_12h04.55.863,HW_LDT_1,2024.2.4,MacIntel,58.82352941,,,,,,,,,,,,,,,,,,,,,311.019,311.218,311.218,311.718,,,,,,,,,,,,,,0.869,1,,,,,,,,,,,,,,m,,,,,,,,,,,,,,,49,0,311.718,312.6,m,1,0.869,,[],[],[],[],[],[],[],312.601,314.601,314.601,314.601,[],[],[],[],[],[],[],,314.602,314.602,-0.020674646,-0.410772579,0,0,0,,0,48,48,132,1,2,word,PROPOSAL,cursive,proposal_c.png,,,,,,
,,,,31261,001,2025-10-18_12h04.55.863,HW_LDT_1,2024.2.4,MacIntel,58.82352941,,,,,,,,,,,,,,,,,,,,,314.603,314.801,314.801,315.301,,,,,,,,,,,,,,0.803,1,,,,,,,,,,,,,,z,,,,,,,,,,,,,,,50,0,315.302,316.118,z,1,0.803,,[],[],[],[],[],[],[],316.118,318.118,318.118,318.118,[],[],[],[],[],[],[],,318.118,318.118,-0.020674646,-0.410772579,0,0,0,,0,49,49,30,1,2,RL,selamor,print,selamor_p.png,,,,,,
,,,,31261,001,2025-10-18_12h04.55.863,HW_LDT_1,2024.2.4,MacIntel,58.82352941,,,,,,,,,,,,,,,,,,,,,318.119,318.317,318.318,318.816,,,,,,,,,,,,,,0.724,1,,,,,,,,,,,,,,m,,,,,,,,,,,,,,,51,1,318.817,319.551,m,1,0.724,,[],[],[],[],[],[],[],319.551,321.551,321.551,323.251,[],[],[],[],[],[],[],m,323.251,323.252,-0.020674646,-0.410772579,0,0,0,,0,50,50,93,1,2,word,CEREMONY,print,ceremony_p.png,1.688,,,,,
,,,,31261,001,2025-10-18_12h04.55.863,HW_LDT_1,2024.2.4,MacIntel,58.82352941,,,,,,,,,,,,,,,,,,,,,323.252,323.451,323.451,323.951,,,,,,,,,,,,,,2.037,1,,,,,,,,,,,,,,z,,,,,,,,,,,,,,,52,0,323.951,326.001,z,1,2.037,,[],[],[],[],[],[],[],326.001,328.001,328.001,328.001,[],[],[],[],[],[],[],,328.001,328.002,-0.020674646,-0.410772579,0,0,0,,0,51,51,69,1,2,TL,resufal,cursive,resufal_c.png,,,,,,
,,,,31261,001,2025-10-18_12h04.55.863,HW_LDT_1,2024.2.4,MacIntel,58.82352941,,,,,,,,,,,,,,,,,,,,,328.003,328.201,328.201,328.701,,,,,,,,,,,,,,2.754,1,,,,,,,,,,,,,,z,,,,,,,,,,,,,,,53,0,328.701,331.468,z,1,2.754,,[],[],[],[],[],[],[],331.468,333.468,333.468,333.468,[],[],[],[],[],[],[],,333.468,333.468,-0.020674646,-0.410772579,0,0,0,,0,52,52,54,1,2,TL,liretal,cursive,liretal_c.png,,,,,,
,,,,31261,001,2025-10-18_12h04.55.863,HW_LDT_1,2024.2.4,MacIntel,58.82352941,,,,,,,,,,,,,,,,,,,,,333.469,333.667,333.667,334.167,,,,,,,,,,,,,,2.242,0,,,,,,,,,,,,,,m,,,,,,,,,,,,,,,54,0,334.168,336.417,z,0,2.242,,[],[],[],[],[],[],[],336.418,338.417,338.418,338.418,[],[],[],[],[],[],[],,338.418,338.418,-0.020674646,-0.410772579,0,0,0,,0,53,53,145,1,2,word,RESUME,cursive,resume_c.png,,,,,,
,,,,31261,001,2025-10-18_12h04.55.863,HW_LDT_1,2024.2.4,MacIntel,58.82352941,,,,,,,,,,,,,,,,,,,,,338.42,338.617,338.617,339.117,,,,,,,,,,,,,,4.612,1,,,,,,,,,,,,,,z,,,,,,,,,,,,,,,55,0,339.118,343.734,z,1,4.612,,[],[],[],[],[],[],[],343.734,345.734,345.734,345.735,[],[],[],[],[],[],[],,345.735,345.735,-0.020674646,-0.410772579,0,0,0,,0,54,54,56,1,2,TL,marnigal,cursive,marnigal_c.png,,,,,,
,,,,31261,001,2025-10-18_12h04.55.863,HW_LDT_1,2024.2.4,MacIntel,58.82352941,,,,,,,,,,,,,,,,,,,,,345.736,345.933,345.933,346.434,,,,,,,,,,,,,,0.607,1,,,,,,,,,,,,,,m,,,,,,,,,,,,,,,56,1,346.435,347.051,m,1,0.607,,[],[],[],[],[],[],[],347.051,349.051,349.051,350.484,[],[],[],[],[],[],[],m,350.484,350.484,-0.020674646,-0.410772579,0,0,0,,0,55,55,137,1,2,word,RAPIDLY,print,rapidly_p.png,1.421,,,,,
,,,,31261,001,2025-10-18_12h04.55.863,HW_LDT_1,2024.2.4,MacIntel,58.82352941,,,,,,,,,,,,,,,,,,,,,350.485,350.684,350.684,351.184,,,,,,,,,,,,,,1.504,0,,,,,,,,,,,,,,m,,,,,,,,,,,,,,,57,0,351.185,352.701,z,0,1.504,,[],[],[],[],[],[],[],352.701,354.701,354.701,354.701,[],[],[],[],[],[],[],,354.701,354.701,-0.020674646,-0.410772579,0,0,0,,0,56,56,138,1,2,word,REFUSAL,cursive,refusal_c.png,,,,,,
,,,,31261,001,2025-10-18_12h04.55.863,HW_LDT_1,2024.2.4,MacIntel,58.82352941,,,,,,,,,,,,,,,,,,,,,354.703,354.901,354.901,355.401,,,,,,,,,,,,,,1.404,1,,,,,,,,,,,,,,m,,,,,,,,,,,,,,,58,0,355.401,356.817,m,1,1.404,,[],[],[],[],[],[],[],356.818,358.817,358.817,358.818,[],[],[],[],[],[],[],,358.818,358.818,-0.020674646,-0.410772579,0,0,0,,0,57,57,143,1,2,word,REMOVAL,print,removal_p.png,,,,,,
,,,,31261,001,2025-10-18_12h04.55.863,HW_LDT_1,2024.2.4,MacIntel,58.82352941,,,,,,,,,,,,,,,,,,,,,358.819,359.017,359.017,359.517,,,,,,,,,,,,,,1.914,1,,,,,,,,,,,,,,m,,,,,,,,,,,,,,,59,0,359.518,361.438,m,1,1.914,,[],[],[],[],[],[],[],361.438,363.434,363.434,363.434,[],[],[],[],[],[],[],,363.434,363.435,-0.020674646,-0.410772579,0,0,0,,0,58,58,155,1,2,word,STRATEGY,cursive,strategy_c.png,,,,,,
,,,,31261,001,2025-10-18_12h04.55.863,HW_LDT_1,2024.2.4,MacIntel,58.82352941,,,,,,,,,,,,,,,,,,,,,363.436,363.634,363.634,364.134,,,,,,,,,,,,,,1.207,0,,,,,,,,,,,,,,m,,,,,,,,,,,,,,,60,1,364.134,365.351,z,0,1.207,,[],[],[],[],[],[],[],365.351,367.35,367.351,368.534,[],[],[],[],[],[],[],z,368.534,368.534,-0.020674646,-0.410772579,0,0,0,,0,59,59,124,1,2,word,NUMERICAL,cursive,numerical_c.png,1.17,,,,,
,,,,31261,001,2025-10-18_12h04.55.863,HW_LDT_1,2024.2.4,MacIntel,58.82352941,,,,,,,,,,,,,,,,,,,,,368.535,368.733,368.733,369.234,,,,,,,,,,,,,,1.308,1,,,,,,,,,,,,,,z,,,,,,,,,,,,,,,61,1,369.235,370.551,z,1,1.308,,[],[],[],[],[],[],[],370.551,372.551,372.551,377.25,[],[],[],[],[],[],[],z,377.25,377.25,-0.020674646,-0.410772579,0,0,0,,0,60,60,67,1,2,TL,quafily,cursive,quafily_c.png,4.692,,,,,
,,,,31261,001,2025-10-18_12h04.55.863,HW_LDT_1,2024.2.4,MacIntel,58.82352941,,,,,,,,,,,,,,,,,,,,,377.251,377.45,377.45,377.95,,,,,,,,,,,,,,2.543,1,,,,,,,,,,,,,,z,,,,,,,,,,,,,,,62,0,377.951,380.501,z,1,2.543,,[],[],[],[],[],[],[],380.501,382.501,382.501,382.501,[],[],[],[],[],[],[],,382.501,382.501,-0.020674646,-0.410772579,0,0,0,,0,61,61,65,1,2,TL,polupar,cursive,polupar_c.png,,,,,,
,,,,31261,001,2025-10-18_12h04.55.863,HW_LDT_1,2024.2.4,MacIntel,58.82352941,,,,,,,,,,,,,,,,,,,,,382.503,382.701,382.701,383.201,,,,,,,,,,,,,,1.077,1,,,,,,,,,,,,,,z,,,,,,,,,,,,,,,63,0,383.201,384.284,z,1,1.077,,[],[],[],[],[],[],[],384.284,386.283,386.283,386.284,[],[],[],[],[],[],[],,386.284,386.284,-0.020674646,-0.410772579,0,0,0,,0,62,62,28,1,2,RL,revune,cursive,revune_c.png,,,,,,
,,,,31261,001,2025-10-18_12h04.55.863,HW_LDT_1,2024.2.4,MacIntel,58.82352941,,,,,,,,,,,,,,,,,,,,,386.285,386.484,386.484,386.983,,,,,,,,,,,,,,1.597,1,,,,,,,,,,,,,,m,,,,,,,,,,,,,,,64,0,386.983,388.587,m,1,1.597,,[],[],[],[],[],[],[],388.587,390.584,390.584,390.584,[],[],[],[],[],[],[],,390.585,390.585,-0.020674646,-0.410772579,0,0,0,,0,63,63,159,1,2,word,VETERAN,print,veteran_p.png,,,,,,
,,,,31261,001,2025-10-18_12h04.55.863,HW_LDT_1,2024.2.4,MacIntel,58.82352941,,,,,,,,,,,,,,,,,,,,,390.586,390.784,390.784,391.284,,,,,,,,,,,,,,0.687,1,,,,,,,,,,,,,,z,,,,,,,,,,,,,,,65,0,391.284,391.983,z,1,0.687,,[],[],[],[],[],[],[],391.983,393.984,393.984,393.984,[],[],[],[],[],[],[],,393.984,393.984,-0.020674646,-0.410772579,0,0,0,,0,64,64,3,1,2,RL,capefory,print,capefory_p.png,,,,,,
,,,,31261,001,2025-10-18_12h04.55.863,HW_LDT_1,2024.2.4,MacIntel,58.82352941,,,,,,,,,,,,,,,,,,,,,393.985,394.184,394.184,394.684,,,,,,,,,,,,,,1.128,1,,,,,,,,,,,,,,z,,,,,,,,,,,,,,,66,1,394.684,395.816,z,1,1.128,,[],[],[],[],[],[],[],395.816,397.817,397.817,398.8,[],[],[],[],[],[],[],z,398.8,398.8,-0.020674646,-0.410772579,0,0,0,,0,65,65,20,1,2,RL,onegator,cursive,onegator_c.png,0.971,,,,,
,,,,31261,001,2025-10-18_12h04.55.863,HW_LDT_1,2024.2.4,MacIntel,58.82352941,,,,,,,,,,,,,,,,,,,,,398.801,399,399.001,399.5,,,,,,,,,,,,,,0.77,1,,,,,,,,,,,,,,z,,,,,,,,,,,,,,,67,1,399.501,400.284,z,1,0.77,,[],[],[],[],[],[],[],400.284,402.284,402.284,403.083,[],[],[],[],[],[],[],z,403.083,403.083,-0.020674646,-0.410772579,0,0,0,,0,66,66,26,1,2,RL,retupar,cursive,retupar_c.png,0.796,,,,,
,,,,31261,001,2025-10-18_12h04.55.863,HW_LDT_1,2024.2.4,MacIntel,58.82352941,,,,,,,,,,,,,,,,,,,,,403.084,403.284,403.284,403.784,,,,,,,,,,,,,,0.677,1,,,,,,,,,,,,,,m,,,,,,,,,,,,,,,68,0,403.784,404.471,m,1,0.677,,[],[],[],[],[],[],[],404.471,406.467,406.467,406.467,[],[],[],[],[],[],[],,406.467,406.467,-0.020674646,-0.410772579,0,0,0,,0,67,67,87,1,2,word,CAFETERIA,print,cafeteria_p.png,,,,,,
,,,,31261,001,2025-10-18_12h04.55.863,HW_LDT_1,2024.2.4,MacIntel,58.82352941,,,,,,,,,,,,,,,,,,,,,406.468,406.667,406.667,407.167,,,,,,,,,,,,,,0.762,1,,,,,,,,,,,,,,m,,,,,,,,,,,,,,,69,0,407.168,407.937,m,1,0.762,,[],[],[],[],[],[],[],407.938,409.934,409.934,409.934,[],[],[],[],[],[],[],,409.934,409.935,-0.020674646,-0.410772579,0,0,0,,0,68,68,144,1,2,word,RESIDENT,print,resident_p.png,,,,,,
,,,,31261,001,2025-10-18_12h04.55.863,HW_LDT_1,2024.2.4,MacIntel,58.82352941,,,,,,,,,,,,,,,,,,,,,409.936,410.133,410.134,410.634,,,,,,,,,,,,,,0.639,1,,,,,,,,,,,,,,m,,,,,,,,,,,,,,,70,0,410.634,411.284,m,1,0.639,,[],[],[],[],[],[],[],411.284,413.283,413.283,413.283,[],[],[],[],[],[],[],,413.283,413.284,-0.020674646,-0.410772579,0,0,0,,0,69,69,128,1,2,word,PACIFIC,print,pacific_p.png,,,,,,
,,,,31261,001,2025-10-18_12h04.55.863,HW_LDT_1,2024.2.4,MacIntel,58.82352941,,,,,,,,,,,,,,,,,,,,,413.285,413.484,413.484,413.985,,,,,,,,,,,,,,0.508,1,,,,,,,,,,,,,,m,,,,,,,,,,,,,,,71,0,413.985,414.5,m,1,0.508,,[],[],[],[],[],[],[],414.5,416.5,416.5,416.501,[],[],[],[],[],[],[],,416.501,416.501,-0.020674646,-0.410772579,0,0,0,,0,70,70,147,1,2,word,ROMANTIC,print,romantic_p.png,,,,,,
,,,,31261,001,2025-10-18_12h04.55.863,HW_LDT_1,2024.2.4,MacIntel,58.82352941,,,,,,,,,,,,,,,,,,,,,416.501,416.7,416.7,417.2,,,,,,,,,,,,,,2.326,1,,,,,,,,,,,,,,z,,,,,,,,,,,,,,,72,0,417.201,419.534,z,1,2.326,,[],[],[],[],[],[],[],419.534,421.534,421.534,421.534,[],[],[],[],[],[],[],,421.534,421.534,-0.020674646,-0.410772579,0,0,0,,0,71,71,23,1,2,RL,procogal,cursive,procogal_c.png,,,,,,
,,,,31261,001,2025-10-18_12h04.55.863,HW_LDT_1,2024.2.4,MacIntel,58.82352941,,,,,,,,,,,,,,,,,,,,,421.535,421.733,421.734,422.233,,,,,,,,,,,,,,4.006,1,,,,,,,,,,,,,,m,,,,,,,,,,,,,,,73,0,422.234,426.249,m,1,4.006,,[],[],[],[],[],[],[],426.25,428.25,428.25,428.251,[],[],[],[],[],[],[],,428.251,428.251,-0.020674646,-0.410772579,0,0,0,,0,72,72,107,1,2,word,EVIDENT,cursive,evident_c.png,,,,,,
,,,,31261,001,2025-10-18_12h04.55.863,HW_LDT_1,2024.2.4,MacIntel,58.82352941,,,,,,,,,,,,,,,,,,,,,428.252,428.45,428.45,428.95,,,,,,,,,,,,,,2.178,1,,,,,,,,,,,,,,z,,,,,,,,,,,,,,,74,0,428.951,431.133,z,1,2.178,,[],[],[],[],[],[],[],431.134,433.133,433.134,433.134,[],[],[],[],[],[],[],,433.134,433.134,-0.020674646,-0.410772579,0,0,0,,0,73,73,2,1,2,RL,casagity,print,casagity_p.png,,,,,,
,,,,31261,001,2025-10-18_12h04.55.863,HW_LDT_1,2024.2.4,MacIntel,58.82352941,,,,,,,,,,,,,,,,,,,,,433.135,433.333,433.333,433.833,,,,,,,,,,,,,,0.704,1,,,,,,,,,,,,,,m,,,,,,,,,,,,,,,75,0,433.834,434.549,m,1,0.704,,[],[],[],[],[],[],[],434.55,436.55,436.55,436.551,[],[],[],[],[],[],[],,436.551,436.551,-0.020674646,-0.410772579,0,0,0,,0,74,74,152,1,2,word,SPECIMEN,print,specimen_p.png,,,,,,
,,,,31261,001,2025-10-18_12h04.55.863,HW_LDT_1,2024.2.4,MacIntel,58.82352941,,,,,,,,,,,,,,,,,,,,,436.552,436.749,436.749,437.25,,,,,,,,,,,,,,2.846,1,,,,,,,,,,,,,,z,,,,,,,,,,,,,,,76,0,437.251,440.1,z,1,2.846,,[],[],[],[],[],[],[],440.1,442.1,442.1,442.1,[],[],[],[],[],[],[],,442.101,442.101,-0.020674646,-0.410772579,0,0,0,,0,75,75,62,1,2,TL,opmital,cursive,opmital_c.png,,,,,,
,,,,31261,001,2025-10-18_12h04.55.863,HW_LDT_1,2024.2.4,MacIntel,58.82352941,,,,,,,,,,,,,,,,,,,,,442.102,442.3,442.3,442.8,,,,,,,,,,,,,,2.775,1,,,,,,,,,,,,,,z,,,,,,,,,,,,,,,77,0,442.801,445.584,z,1,2.775,,[],[],[],[],[],[],[],445.584,447.583,447.583,447.584,[],[],[],[],[],[],[],,447.584,447.584,-0.020674646,-0.410772579,0,0,0,,0,76,76,29,1,2,RL,samite,cursive,samite_c.png,,,,,,
,,,,31261,001,2025-10-18_12h04.55.863,HW_LDT_1,2024.2.4,MacIntel,58.82352941,,,,,,,,,,,,,,,,,,,,,447.585,447.783,447.783,448.283,,,,,,,,,,,,,,1.98,1,,,,,,,,,,,,,,z,,,,,,,,,,,,,,,78,0,448.283,450.267,z,1,1.98,,[],[],[],[],[],[],[],450.267,452.267,452.267,452.267,[],[],[],[],[],[],[],,452.267,452.267,-0.020674646,-0.410772579,0,0,0,,0,77,77,45,1,2,TL,carnidal,cursive,carnidal_c.png,,,,,,
,,,,31261,001,2025-10-18_12h04.55.863,HW_LDT_1,2024.2.4,MacIntel,58.82352941,,,,,,,,,,,,,,,,,,,,,452.268,452.467,452.467,452.967,,,,,,,,,,,,,,0.923,0,,,,,,,,,,,,,,m,,,,,,,,,,,,,,,79,0,452.967,453.9,z,0,0.923,,[],[],[],[],[],[],[],453.9,455.9,455.9,455.901,[],[],[],[],[],[],[],,455.901,455.901,-0.020674646,-0.410772579,0,0,0,,0,78,78,106,1,2,word,ELABORATE,cursive,elaborate_c.png,,,,,,
,,,,31261,001,2025-10-18_12h04.55.863,HW_LDT_1,2024.2.4,MacIntel,58.82352941,,,,,,,,,,,,,,,,,,,,,455.902,456.1,456.1,456.6,,,,,,,,,,,,,,0.641,0,,,,,,,,,,,,,,z,,,,,,,,,,,,,,,80,0,456.6,457.25,m,0,0.641,,[],[],[],[],[],[],[],457.25,459.25,459.25,459.25,[],[],[],[],[],[],[],,459.251,529.283,-0.020674646,-0.410772579,0,0,0,space,0,79,79,11,1,2,RL,formuke,print,formuke_p.png,,,70.003,,,
,,,,31261,001,2025-10-18_12h04.55.863,HW_LDT_1,2024.2.4,MacIntel,58.82352941,,,,,,,,,,,,,,,,,,,,,529.284,529.483,529.483,529.983,,,,,,,,,,,,,,2.503,1,,,,,,,,,,,,,,m,,,,,,,,,,,,,,,81,0,529.983,532.5,m,1,2.503,,[],[],[],[],[],[],[],532.5,534.5,534.5,534.5,[],[],[],[],[],[],[],,534.5,534.5,-0.020674646,-0.410772579,0,0,0,,0,80,80,98,1,2,word,CRIMINAL,cursive,criminal_c.png,,,,,,
,,,,31261,001,2025-10-18_12h04.55.863,HW_LDT_1,2024.2.4,MacIntel,58.82352941,,,,,,,,,,,,,,,,,,,,,534.501,534.699,534.699,535.199,,,,,,,,,,,,,,1.92,1,,,,,,,,,,,,,,m,,,,,,,,,,,,,,,82,0,535.2,537.133,m,1,1.92,,[],[],[],[],[],[],[],537.133,539.133,539.133,539.133,[],[],[],[],[],[],[],,539.133,539.134,-0.020674646,-0.410772579,0,0,0,,0,81,81,109,1,2,word,GRATEFUL,cursive,grateful_c.png,,,,,,
,,,,31261,001,2025-10-18_12h04.55.863,HW_LDT_1,2024.2.4,MacIntel,58.82352941,,,,,,,,,,,,,,,,,,,,,539.135,539.333,539.333,539.833,,,,,,,,,,,,,,1.191,1,,,,,,,,,,,,,,z,,,,,,,,,,,,,,,83,0,539.833,541.033,z,1,1.191,,[],[],[],[],[],[],[],541.033,543.033,543.033,543.033,[],[],[],[],[],[],[],,543.033,543.033,-0.020674646,-0.410772579,0,0,0,,0,82,82,46,1,2,TL,codemy,cursive,codemy_c.png,,,,,,
,,,,31261,001,2025-10-18_12h04.55.863,HW_LDT_1,2024.2.4,MacIntel,58.82352941,,,,,,,,,,,,,,,,,,,,,543.034,543.232,543.233,543.733,,,,,,,,,,,,,,0.779,1,,,,,,,,,,,,,,m,,,,,,,,,,,,,,,84,0,543.733,544.519,m,1,0.779,,[],[],[],[],[],[],[],544.519,546.516,546.516,546.516,[],[],[],[],[],[],[],,546.516,546.517,-0.020674646,-0.410772579,0,0,0,,0,83,83,92,1,2,word,CATEGORY,print,category_p.png,,,,,,
,,,,31261,001,2025-10-18_12h04.55.863,HW_LDT_1,2024.2.4,MacIntel,58.82352941,,,,,,,,,,,,,,,,,,,,,546.518,546.716,546.716,547.216,,,,,,,,,,,,,,1.87,1,,,,,,,,,,,,,,z,,,,,,,,,,,,,,,85,0,547.217,549.099,z,1,1.87,,[],[],[],[],[],[],[],549.1,551.099,551.099,551.1,[],[],[],[],[],[],[],,551.1,551.1,-0.020674646,-0.410772579,0,0,0,,0,84,84,53,1,2,TL,edivent,cursive,edivent_c.png,,,,,,
,,,,31261,001,2025-10-18_12h04.55.863,HW_LDT_1,2024.2.4,MacIntel,58.82352941,,,,,,,,,,,,,,,,,,,,,551.101,551.299,551.299,551.799,,,,,,,,,,,,,,1.52,1,,,,,,,,,,,,,,z,,,,,,,,,,,,,,,86,0,551.8,553.333,z,1,1.52,,[],[],[],[],[],[],[],553.333,555.332,555.332,555.333,[],[],[],[],[],[],[],,555.333,555.333,-0.020674646,-0.410772579,0,0,0,,0,85,85,63,1,2,TL,orinigal,print,orinigal_p.png,,,,,,
,,,,31261,001,2025-10-18_12h04.55.863,HW_LDT_1,2024.2.4,MacIntel,58.82352941,,,,,,,,,,,,,,,,,,,,,555.334,555.532,555.533,556.033,,,,,,,,,,,,,,0.67,1,,,,,,,,,,,,,,m,,,,,,,,,,,,,,,87,0,556.033,556.716,m,1,0.67,,[],[],[],[],[],[],[],556.716,558.716,558.716,558.716,[],[],[],[],[],[],[],,558.716,558.717,-0.020674646,-0.410772579,0,0,0,,0,86,86,149,1,2,word,SENATOR,print,senator_p.png,,,,,,
,,,,31261,001,2025-10-18_12h04.55.863,HW_LDT_1,2024.2.4,MacIntel,58.82352941,,,,,,,,,,,,,,,,,,,,,558.718,558.916,558.916,559.415,,,,,,,,,,,,,,1.54,1,,,,,,,,,,,,,,m,,,,,,,,,,,,,,,88,0,559.416,560.966,m,1,1.54,,[],[],[],[],[],[],[],560.966,562.966,562.966,562.967,[],[],[],[],[],[],[],,562.967,562.967,-0.020674646,-0.410772579,0,0,0,,0,87,87,82,1,2,word,AMATEUR,cursive,amateur_c.png,,,,,,
,,,,31261,001,2025-10-18_12h04.55.863,HW_LDT_1,2024.2.4,MacIntel,58.82352941,,,,,,,,,,,,,,,,,,,,,562.968,563.166,563.166,563.666,,,,,,,,,,,,,,1.025,1,,,,,,,,,,,,,,z,,,,,,,,,,,,,,,89,0,563.666,564.7,z,1,1.025,,[],[],[],[],[],[],[],564.7,566.699,566.699,566.7,[],[],[],[],[],[],[],,566.7,566.7,-0.020674646,-0.410772579,0,0,0,,0,88,88,1,1,2,RL,caleberia,print,caleberia_p.png,,,,,,
,,,,31261,001,2025-10-18_12h04.55.863,HW_LDT_1,2024.2.4,MacIntel,58.82352941,,,,,,,,,,,,,,,,,,,,,566.701,566.899,566.899,567.399,,,,,,,,,,,,,,3.747,1,,,,,,,,,,,,,,z,,,,,,,,,,,,,,,90,1,567.4,571.149,z,1,3.747,,[],[],[],[],[],[],[],571.149,573.148,573.148,574.433,[],[],[],[],[],[],[],z,574.433,574.433,-0.020674646,-0.410772579,0,0,0,,0,89,89,58,1,2,TL,mitilary,cursive,mitilary_c.png,1.28,,,,,
,,,,31261,001,2025-10-18_12h04.55.863,HW_LDT_1,2024.2.4,MacIntel,58.82352941,,,,,,,,,,,,,,,,,,,,,574.434,574.632,574.632,575.132,,,,,,,,,,,,,,3.877,0,,,,,,,,,,,,,,m,,,,,,,,,,,,,,,91,0,575.133,579.016,z,0,3.877,,[],[],[],[],[],[],[],579.016,581.016,581.016,581.016,[],[],[],[],[],[],[],,581.016,581.017,-0.020674646,-0.410772579,0,0,0,,0,90,90,111,1,2,word,INDICATE,cursive,indicate_c.png,,,,,,
,,,,31261,001,2025-10-18_12h04.55.863,HW_LDT_1,2024.2.4,MacIntel,58.82352941,,,,,,,,,,,,,,,,,,,,,581.017,581.215,581.215,581.716,,,,,,,,,,,,,,0.77,1,,,,,,,,,,,,,,m,,,,,,,,,,,,,,,92,0,581.716,582.499,m,1,0.77,,[],[],[],[],[],[],[],582.5,584.499,584.499,584.5,[],[],[],[],[],[],[],,584.5,584.5,-0.020674646,-0.410772579,0,0,0,,0,91,91,100,1,2,word,DECADE,print,decade_p.png,,,,,,
,,,,31261,001,2025-10-18_12h04.55.863,HW_LDT_1,2024.2.4,MacIntel,58.82352941,,,,,,,,,,,,,,,,,,,,,584.501,584.699,584.699,585.199,,,,,,,,,,,,,,1.27,1,,,,,,,,,,,,,,z,,,,,,,,,,,,,,,93,1,585.2,586.483,z,1,1.27,,[],[],[],[],[],[],[],586.483,588.482,588.482,591.366,[],[],[],[],[],[],[],z,591.366,591.366,-0.020674646,-0.410772579,0,0,0,,0,92,92,13,1,2,RL,helicage,print,helicage_p.png,2.879,,,,,
,,,,31261,001,2025-10-18_12h04.55.863,HW_LDT_1,2024.2.4,MacIntel,58.82352941,,,,,,,,,,,,,,,,,,,,,591.367,591.565,591.566,592.066,,,,,,,,,,,,,,1.103,1,,,,,,,,,,,,,,z,,,,,,,,,,,,,,,94,0,592.066,593.182,z,1,1.103,,[],[],[],[],[],[],[],593.183,595.182,595.182,595.183,[],[],[],[],[],[],[],,595.183,595.183,-0.020674646,-0.410772579,0,0,0,,0,93,93,8,1,2,RL,desifate,print,desifate_p.png,,,,,,
,,,,31261,001,2025-10-18_12h04.55.863,HW_LDT_1,2024.2.4,MacIntel,58.82352941,,,,,,,,,,,,,,,,,,,,,595.184,595.382,595.382,595.882,,,,,,,,,,,,,,2.477,1,,,,,,,,,,,,,,z,,,,,,,,,,,,,,,95,0,595.883,598.366,z,1,2.477,,[],[],[],[],[],[],[],598.366,600.366,600.366,600.366,[],[],[],[],[],[],[],,600.366,600.366,-0.020674646,-0.410772579,0,0,0,,0,94,94,41,1,2,TL,befenit,cursive,befenit_c.png,,,,,,
,,,,31261,001,2025-10-18_12h04.55.863,HW_LDT_1,2024.2.4,MacIntel,58.82352941,,,,,,,,,,,,,,,,,,,,,600.367,600.566,600.566,601.066,,,,,,,,,,,,,,0.688,1,,,,,,,,,,,,,,m,,,,,,,,,,,,,,,96,0,601.066,601.766,m,1,0.688,,[],[],[],[],[],[],[],601.766,603.765,603.765,603.765,[],[],[],[],[],[],[],,603.765,603.765,-0.020674646,-0.410772579,0,0,0,,0,95,95,101,1,2,word,DELICATE,print,delicate_p.png,,,,,,
,,,,31261,001,2025-10-18_12h04.55.863,HW_LDT_1,2024.2.4,MacIntel,58.82352941,,,,,,,,,,,,,,,,,,,,,603.766,603.965,603.965,604.465,,,,,,,,,,,,,,0.572,1,,,,,,,,,,,,,,m,,,,,,,,,,,,,,,97,0,604.466,605.049,m,1,0.572,,[],[],[],[],[],[],[],605.049,607.049,607.049,607.049,[],[],[],[],[],[],[],,607.05,607.05,-0.020674646,-0.410772579,0,0,0,,0,96,96,112,1,2,word,LIBERAL,print,liberal_p.png,,,,,,
,,,,31261,001,2025-10-18_12h04.55.863,HW_LDT_1,2024.2.4,MacIntel,58.82352941,,,,,,,,,,,,,,,,,,,,,607.051,607.248,607.248,607.748,,,,,,,,,,,,,,0.623,1,,,,,,,,,,,,,,m,,,,,,,,,,,,,,,98,0,607.748,608.382,m,1,0.623,,[],[],[],[],[],[],[],608.382,610.382,610.382,610.383,[],[],[],[],[],[],[],,610.383,610.383,-0.020674646,-0.410772579,0,0,0,,0,97,97,89,1,2,word,CAPACITY,print,capacity_p.png,,,,,,
,,,,31261,001,2025-10-18_12h04.55.863,HW_LDT_1,2024.2.4,MacIntel,58.82352941,,,,,,,,,,,,,,,,,,,,,610.383,610.582,610.582,611.082,,,,,,,,,,,,,,0.822,1,,,,,,,,,,,,,,z,,,,,,,,,,,,,,,99,1,611.083,611.916,z,1,0.822,,[],[],[],[],[],[],[],611.916,613.915,613.915,618.869,[],[],[],[],[],[],[],m,618.87,618.87,-0.020674646,-0.410772579,0,0,0,,0,98,98,21,1,2,RL,pamest,print,pamest_p.png,4.945,,,,,
,,,,31261,001,2025-10-18_12h04.55.863,HW_LDT_1,2024.2.4,MacIntel,58.82352941,,,,,,,,,,,,,,,,,,,,,618.871,619.065,619.065,619.565,,,,,,,,,,,,,,1.197,1,,,,,,,,,,,,,,z,,,,,,,,,,,,,,,100,0,619.566,620.766,z,1,1.197,,[],[],[],[],[],[],[],620.766,622.765,622.765,622.766,[],[],[],[],[],[],[],,622.766,622.766,-0.020674646,-0.410772579,0,0,0,,0,99,99,36,1,2,RL,vecelan,print,vecelan_p.png,,,,,,
,,,,31261,001,2025-10-18_12h04.55.863,HW_LDT_1,2024.2.4,MacIntel,58.82352941,,,,,,,,,,,,,,,,,,,,,622.767,622.965,622.965,623.465,,,,,,,,,,,,,,4.18,1,,,,,,,,,,,,,,z,,,,,,,,,,,,,,,101,0,623.466,627.65,z,1,4.18,,[],[],[],[],[],[],[],627.65,629.649,629.649,629.649,[],[],[],[],[],[],[],,629.649,629.65,-0.020674646,-0.410772579,0,0,0,,0,100,100,61,1,2,TL,nuremical,cursive,nuremical_c.png,,,,,,
,,,,31261,001,2025-10-18_12h04.55.863,HW_LDT_1,2024.2.4,MacIntel,58.82352941,,,,,,,,,,,,,,,,,,,,,629.651,629.849,629.849,630.349,,,,,,,,,,,,,,1.363,1,,,,,,,,,,,,,,m,,,,,,,,,,,,,,,102,0,630.349,631.72,m,1,1.363,,[],[],[],[],[],[],[],631.72,633.715,633.715,633.716,[],[],[],[],[],[],[],,633.716,633.716,-0.020674646,-0.410772579,0,0,0,,0,101,101,150,1,2,word,SENTIMENT,cursive,sentiment_c.png,,,,,,
,,,,31261,001,2025-10-18_12h04.55.863,HW_LDT_1,2024.2.4,MacIntel,58.82352941,,,,,,,,,,,,,,,,,,,,,633.717,633.915,633.915,634.415,,,,,,,,,,,,,,4.205,1,,,,,,,,,,,,,,z,,,,,,,,,,,,,,,103,0,634.416,638.632,z,1,4.205,,[],[],[],[],[],[],[],638.632,640.632,640.632,640.632,[],[],[],[],[],[],[],,640.632,640.633,-0.020674646,-0.410772579,0,0,0,,0,102,102,17,1,2,RL,macise,cursive,macise_c.png,,,,,,
,,,,31261,001,2025-10-18_12h04.55.863,HW_LDT_1,2024.2.4,MacIntel,58.82352941,,,,,,,,,,,,,,,,,,,,,640.634,640.832,640.832,641.332,,,,,,,,,,,,,,1.337,1,,,,,,,,,,,,,,z,,,,,,,,,,,,,,,104,0,641.332,642.682,z,1,1.337,,[],[],[],[],[],[],[],642.682,644.682,644.682,644.682,[],[],[],[],[],[],[],,644.682,644.683,-0.020674646,-0.410772579,0,0,0,,0,103,103,18,1,2,RL,mesibine,print,mesibine_p.png,,,,,,
,,,,31261,001,2025-10-18_12h04.55.863,HW_LDT_1,2024.2.4,MacIntel,58.82352941,,,,,,,,,,,,,,,,,,,,,644.684,644.882,644.882,645.382,,,,,,,,,,,,,,3.34,0,,,,,,,,,,,,,,m,,,,,,,,,,,,,,,105,0,645.383,648.731,z,0,3.34,,[],[],[],[],[],[],[],648.731,650.732,650.732,650.733,[],[],[],[],[],[],[],,650.733,650.733,-0.020674646,-0.410772579,0,0,0,,0,104,104,121,1,2,word,MISTAKE,cursive,mistake_c.png,,,,,,
,,,,31261,001,2025-10-18_12h04.55.863,HW_LDT_1,2024.2.4,MacIntel,58.82352941,,,,,,,,,,,,,,,,,,,,,650.734,650.932,650.932,651.432,,,,,,,,,,,,,,1.17,1,,,,,,,,,,,,,,z,,,,,,,,,,,,,,,106,0,651.432,652.615,z,1,1.17,,[],[],[],[],[],[],[],652.616,654.615,654.615,654.616,[],[],[],[],[],[],[],,654.616,654.616,-0.020674646,-0.410772579,0,0,0,,0,105,105,70,1,2,TL,retalive,print,retalive_p.png,,,,,,
,,,,31261,001,2025-10-18_12h04.55.863,HW_LDT_1,2024.2.4,MacIntel,58.82352941,,,,,,,,,,,,,,,,,,,,,654.617,654.815,654.815,655.315,,,,,,,,,,,,,,2.919,1,,,,,,,,,,,,,,z,,,,,,,,,,,,,,,107,0,655.316,658.249,z,1,2.919,,[],[],[],[],[],[],[],658.249,660.248,660.249,660.249,[],[],[],[],[],[],[],,660.249,660.249,-0.020674646,-0.410772579,0,0,0,,0,106,106,14,1,2,RL,insibate,cursive,insibate_c.png,,,,,,
,,,,31261,001,2025-10-18_12h04.55.863,HW_LDT_1,2024.2.4,MacIntel,58.82352941,,,,,,,,,,,,,,,,,,,,,660.25,660.448,660.449,660.949,,,,,,,,,,,,,,1.577,1,,,,,,,,,,,,,,m,,,,,,,,,,,,,,,108,0,660.949,662.536,m,1,1.577,,[],[],[],[],[],[],[],662.536,664.531,664.531,664.532,[],[],[],[],[],[],[],,664.532,664.532,-0.020674646,-0.410772579,0,0,0,,0,107,107,116,1,2,word,MARGINAL,cursive,marginal_c.png,,,,,,
,,,,31261,001,2025-10-18_12h04.55.863,HW_LDT_1,2024.2.4,MacIntel,58.82352941,,,,,,,,,,,,,,,,,,,,,664.533,664.732,664.732,665.232,,,,,,,,,,,,,,0.738,1,,,,,,,,,,,,,,m,,,,,,,,,,,,,,,109,0,665.232,665.982,m,1,0.738,,[],[],[],[],[],[],[],665.982,667.981,667.981,667.981,[],[],[],[],[],[],[],,667.982,667.982,-0.020674646,-0.410772579,0,0,0,,0,108,108,131,1,2,word,POPULAR,cursive,popular_c.png,,,,,,
,,,,31261,001,2025-10-18_12h04.55.863,HW_LDT_1,2024.2.4,MacIntel,58.82352941,,,,,,,,,,,,,,,,,,,,,667.983,668.182,668.182,668.682,,,,,,,,,,,,,,6.386,0,,,,,,,,,,,,,,m,,,,,,,,,,,,,,,110,0,668.682,675.082,z,0,6.386,,[],[],[],[],[],[],[],675.082,677.081,677.081,677.082,[],[],[],[],[],[],[],,677.082,677.082,-0.020674646,-0.410772579,0,0,0,,0,109,109,103,1,2,word,DISPUTE,cursive,dispute_c.png,,,,,,
,,,,31261,001,2025-10-18_12h04.55.863,HW_LDT_1,2024.2.4,MacIntel,58.82352941,,,,,,,,,,,,,,,,,,,,,677.083,677.282,677.282,677.782,,,,,,,,,,,,,,0.629,1,,,,,,,,,,,,,,m,,,,,,,,,,,,,,,111,0,677.782,678.419,m,1,0.629,,[],[],[],[],[],[],[],678.419,680.415,680.415,680.416,[],[],[],[],[],[],[],,680.416,680.416,-0.020674646,-0.410772579,0,0,0,,0,110,110,157,1,2,word,VALIDITY,print,validity_p.png,,,,,,
,,,,31261,001,2025-10-18_12h04.55.863,HW_LDT_1,2024.2.4,MacIntel,58.82352941,,,,,,,,,,,,,,,,,,,,,680.417,680.615,680.615,681.115,,,,,,,,,,,,,,0.537,1,,,,,,,,,,,,,,m,,,,,,,,,,,,,,,112,0,681.116,681.665,m,1,0.537,,[],[],[],[],[],[],[],681.665,683.665,683.665,683.666,[],[],[],[],[],[],[],,683.666,683.666,-0.020674646,-0.410772579,0,0,0,,0,111,111,127,1,2,word,ORIGINAL,print,original_p.png,,,,,,
,,,,31261,001,2025-10-18_12h04.55.863,HW_LDT_1,2024.2.4,MacIntel,58.82352941,,,,,,,,,,,,,,,,,,,,,683.667,683.865,683.865,684.365,,,,,,,,,,,,,,0.687,1,,,,,,,,,,,,,,z,,,,,,,,,,,,,,,113,0,684.366,685.065,z,1,0.687,,[],[],[],[],[],[],[],685.065,687.065,687.065,687.066,[],[],[],[],[],[],[],,687.066,687.066,-0.020674646,-0.410772579,0,0,0,,0,112,112,49,1,2,TL,dedace,print,dedace_p.png,,,,,,
,,,,31261,001,2025-10-18_12h04.55.863,HW_LDT_1,2024.2.4,MacIntel,58.82352941,,,,,,,,,,,,,,,,,,,,,687.067,687.265,687.265,687.765,,,,,,,,,,,,,,4.573,0,,,,,,,,,,,,,,m,,,,,,,,,,,,,,,114,0,687.766,692.348,z,0,4.573,,[],[],[],[],[],[],[],692.348,694.348,694.348,694.348,[],[],[],[],[],[],[],,694.348,694.349,-0.020674646,-0.410772579,0,0,0,,0,113,113,113,1,2,word,LITERAL,cursive,literal_c.png,,,,,,
,,,,31261,001,2025-10-18_12h04.55.863,HW_LDT_1,2024.2.4,MacIntel,58.82352941,,,,,,,,,,,,,,,,,,,,,694.35,694.548,694.548,695.047,,,,,,,,,,,,,,2.722,1,,,,,,,,,,,,,,z,,,,,,,,,,,,,,,115,0,695.048,697.782,z,1,2.722,,[],[],[],[],[],[],[],697.782,699.781,699.782,699.782,[],[],[],[],[],[],[],,699.782,699.782,-0.020674646,-0.410772579,0,0,0,,0,114,114,27,1,2,RL,repifion,cursive,repifion_c.png,,,,,,
,,,,31261,001,2025-10-18_12h04.55.863,HW_LDT_1,2024.2.4,MacIntel,58.82352941,,,,,,,,,,,,,,,,,,,,,699.783,699.981,699.981,700.482,,,,,,,,,,,,,,2.729,1,,,,,,,,,,,,,,z,,,,,,,,,,,,,,,116,0,700.482,703.215,z,1,2.729,,[],[],[],[],[],[],[],703.215,705.215,705.215,705.216,[],[],[],[],[],[],[],,705.216,705.216,-0.020674646,-0.410772579,0,0,0,,0,115,115,12,1,2,RL,gralekul,cursive,gralekul_c.png,,,,,,
,,,,31261,001,2025-10-18_12h04.55.863,HW_LDT_1,2024.2.4,MacIntel,58.82352941,,,,,,,,,,,,,,,,,,,,,705.217,705.415,705.415,705.915,,,,,,,,,,,,,,0.87,1,,,,,,,,,,,,,,z,,,,,,,,,,,,,,,117,0,705.915,706.797,z,1,0.87,,[],[],[],[],[],[],[],706.797,708.798,708.798,708.799,[],[],[],[],[],[],[],,708.799,708.799,-0.020674646,-0.410772579,0,0,0,,0,116,116,32,1,2,RL,speniven,print,speniven_p.png,,,,,,
,,,,31261,001,2025-10-18_12h04.55.863,HW_LDT_1,2024.2.4,MacIntel,58.82352941,,,,,,,,,,,,,,,,,,,,,708.8,708.998,708.998,709.498,,,,,,,,,,,,,,0.754,1,,,,,,,,,,,,,,z,,,,,,,,,,,,,,,118,1,709.499,710.265,z,1,0.754,,[],[],[],[],[],[],[],710.265,712.265,712.265,716.798,[],[],[],[],[],[],[],m,716.798,716.799,-0.020674646,-0.410772579,0,0,0,,0,117,117,9,1,2,RL,denficy,print,denficy_p.png,4.524,,,,,
,,,,31261,001,2025-10-18_12h04.55.863,HW_LDT_1,2024.2.4,MacIntel,58.82352941,,,,,,,,,,,,,,,,,,,,,716.799,716.998,716.998,717.498,,,,,,,,,,,,,,1.192,1,,,,,,,,,,,,,,z,,,,,,,,,,,,,,,119,0,717.499,718.698,z,1,1.192,,[],[],[],[],[],[],[],718.698,720.698,720.698,720.699,[],[],[],[],[],[],[],,720.699,720.699,-0.020674646,-0.410772579,0,0,0,,0,118,118,38,1,2,TL,atameur,cursive,atameur_c.png,,,,,,
,,,,31261,001,2025-10-18_12h04.55.863,HW_LDT_1,2024.2.4,MacIntel,58.82352941,,,,,,,,,,,,,,,,,,,,,720.7,720.898,720.898,721.397,,,,,,,,,,,,,,125.062,1,,,,,,,,,,,,,,z,,,,,,,,,,,,,,,120,0,721.398,846.463,z,1,125.062,,[],[],[],[],[],[],[],846.463,848.464,848.464,848.465,[],[],[],[],[],[],[],,848.465,848.465,0.034820457,-0.397714908,0,0,0,,0,119,119,79,1,2,TL,vadility,print,vadility_p.png,,,,,,
,,,,31261,001,2025-10-18_12h04.55.863,HW_LDT_1,2024.2.4,MacIntel,58.82352941,,,,,,,,,,,,,,,,,,,,,848.466,848.664,848.664,849.164,,,,,,,,,,,,,,2.959,1,,,,,,,,,,,,,,m,,,,,,,,,,,,,,,121,0,849.164,852.133,m,1,2.959,,[],[],[],[],[],[],[],852.133,854.131,854.131,854.131,[],[],[],[],[],[],[],,854.131,854.131,0.034820457,-0.397714908,0,0,0,,0,120,120,114,1,2,word,LOCATE,print,locate_p.png,,,,,,
,,,,31261,001,2025-10-18_12h04.55.863,HW_LDT_1,2024.2.4,MacIntel,58.82352941,,,,,,,,,,,,,,,,,,,,,854.133,854.33,854.33,854.83,,,,,,,,,,,,,,2.225,1,,,,,,,,,,,,,,z,,,,,,,,,,,,,,,122,0,854.831,857.064,z,1,2.225,,[],[],[],[],[],[],[],857.064,859.064,859.064,859.064,[],[],[],[],[],[],[],,859.064,859.064,0.034820457,-0.397714908,0,0,0,,0,121,121,52,1,2,TL,elarobate,cursive,elarobate_c.png,,,,,,
,,,,31261,001,2025-10-18_12h04.55.863,HW_LDT_1,2024.2.4,MacIntel,58.82352941,,,,,,,,,,,,,,,,,,,,,859.066,859.264,859.264,859.764,,,,,,,,,,,,,,3.854,1,,,,,,,,,,,,,,z,,,,,,,,,,,,,,,123,0,859.764,863.631,z,1,3.854,,[],[],[],[],[],[],[],863.631,865.63,865.631,865.631,[],[],[],[],[],[],[],,865.631,865.631,0.034820457,-0.397714908,0,0,0,,0,122,122,59,1,2,TL,miskate,cursive,miskate_c.png,,,,,,
,,,,31261,001,2025-10-18_12h04.55.863,HW_LDT_1,2024.2.4,MacIntel,58.82352941,,,,,,,,,,,,,,,,,,,,,865.632,865.829,865.829,866.33,,,,,,,,,,,,,,0.638,1,,,,,,,,,,,,,,z,,,,,,,,,,,,,,,124,0,866.331,866.981,z,1,0.638,,[],[],[],[],[],[],[],866.981,868.98,868.98,868.981,[],[],[],[],[],[],[],,868.981,868.981,0.034820457,-0.397714908,0,0,0,,0,123,123,25,1,2,RL,rabigly,print,rabigly_p.png,,,,,,
,,,,31261,001,2025-10-18_12h04.55.863,HW_LDT_1,2024.2.4,MacIntel,58.82352941,,,,,,,,,,,,,,,,,,,,,868.982,869.18,869.18,869.68,,,,,,,,,,,,,,0.676,1,,,,,,,,,,,,,,m,,,,,,,,,,,,,,,125,1,869.681,870.363,m,1,0.676,,[],[],[],[],[],[],[],870.363,872.364,872.364,873.597,[],[],[],[],[],[],[],m,873.597,873.597,0.034820457,-0.397714908,0,0,0,,0,124,124,102,1,2,word,DENSITY,print,density_p.png,1.22,,,,,
,,,,31261,001,2025-10-18_12h04.55.863,HW_LDT_1,2024.2.4,MacIntel,58.82352941,,,,,,,,,,,,,,,,,,,,,873.598,873.797,873.797,874.297,,,,,,,,,,,,,,0.772,1,,,,,,,,,,,,,,m,,,,,,,,,,,,,,,126,1,874.297,875.08,m,1,0.772,,[],[],[],[],[],[],[],875.081,877.08,877.08,878.047,[],[],[],[],[],[],[],m,878.047,878.048,0.034820457,-0.397714908,0,0,0,,0,125,125,129,1,2,word,PARENT,print,parent_p.png,0.954,,,,,
,,,,31261,001,2025-10-18_12h04.55.863,HW_LDT_1,2024.2.4,MacIntel,58.82352941,,,,,,,,,,,,,,,,,,,,,878.048,878.247,878.247,878.747,,,,,,,,,,,,,,0.98,1,,,,,,,,,,,,,,z,,,,,,,,,,,,,,,127,0,878.747,879.73,z,1,0.98,,[],[],[],[],[],[],[],879.731,881.73,881.73,881.731,[],[],[],[],[],[],[],,881.731,881.731,0.034820457,-0.397714908,0,0,0,,0,126,126,37,1,2,TL,adacemy,cursive,adacemy_c.png,,,,,,
,,,,31261,001,2025-10-18_12h04.55.863,HW_LDT_1,2024.2.4,MacIntel,58.82352941,,,,,,,,,,,,,,,,,,,,,881.732,881.93,881.93,882.43,,,,,,,,,,,,,,3.454,0,,,,,,,,,,,,,,m,,,,,,,,,,,,,,,128,0,882.431,885.897,z,0,3.454,,[],[],[],[],[],[],[],885.897,887.897,887.897,887.897,[],[],[],[],[],[],[],,887.898,887.898,0.034820457,-0.397714908,0,0,0,,0,127,127,126,1,2,word,OPTIMAL,cursive,optimal_c.png,,,,,,
,,,,31261,001,2025-10-18_12h04.55.863,HW_LDT_1,2024.2.4,MacIntel,58.82352941,,,,,,,,,,,,,,,,,,,,,887.899,888.097,888.097,888.597,,,,,,,,,,,,,,0.621,1,,,,,,,,,,,,,,m,,,,,,,,,,,,,,,129,0,888.597,889.23,m,1,0.621,,[],[],[],[],[],[],[],889.23,891.23,891.23,891.231,[],[],[],[],[],[],[],,891.231,891.231,0.034820457,-0.397714908,0,0,0,,0,128,128,88,1,2,word,CAMERA,print,camera_p.png,,,,,,
,,,,31261,001,2025-10-18_12h04.55.863,HW_LDT_1,2024.2.4,MacIntel,58.82352941,,,,,,,,,,,,,,,,,,,,,891.232,891.43,891.43,891.93,,,,,,,,,,,,,,0.753,1,,,,,,,,,,,,,,z,,,,,,,,,,,,,,,130,0,891.931,892.697,z,1,0.753,,[],[],[],[],[],[],[],892.697,894.696,894.696,894.697,[],[],[],[],[],[],[],,894.697,894.697,0.034820457,-0.397714908,0,0,0,,0,129,129,22,1,2,RL,posity,print,posity_p.png,,,,,,
,,,,31261,001,2025-10-18_12h04.55.863,HW_LDT_1,2024.2.4,MacIntel,58.82352941,,,,,,,,,,,,,,,,,,,,,894.698,894.896,894.896,895.396,,,,,,,,,,,,,,4.304,1,,,,,,,,,,,,,,z,,,,,,,,,,,,,,,131,0,895.397,899.714,z,1,4.304,,[],[],[],[],[],[],[],899.714,901.714,901.714,901.714,[],[],[],[],[],[],[],,901.714,901.714,0.034820457,-0.397714908,0,0,0,,0,130,130,34,1,2,RL,trilude,cursive,trilude_c.png,,,,,,
,,,,31261,001,2025-10-18_12h04.55.863,HW_LDT_1,2024.2.4,MacIntel,58.82352941,,,,,,,,,,,,,,,,,,,,,901.715,901.913,901.914,902.414,,,,,,,,,,,,,,0.936,1,,,,,,,,,,,,,,m,,,,,,,,,,,,,,,132,0,902.414,903.364,m,1,0.936,,[],[],[],[],[],[],[],903.364,905.363,905.363,905.364,[],[],[],[],[],[],[],,905.364,905.364,0.034820457,-0.397714908,0,0,0,,0,131,131,95,1,2,word,COMEDY,cursive,comedy_c.png,,,,,,
,,,,31261,001,2025-10-18_12h04.55.863,HW_LDT_1,2024.2.4,MacIntel,58.82352941,,,,,,,,,,,,,,,,,,,,,905.365,905.563,905.563,906.063,,,,,,,,,,,,,,1.637,1,,,,,,,,,,,,,,m,,,,,,,,,,,,,,,133,0,906.064,907.713,m,1,1.637,,[],[],[],[],[],[],[],907.714,909.713,909.713,909.714,[],[],[],[],[],[],[],,909.714,909.714,0.034820457,-0.397714908,0,0,0,,0,132,132,119,1,2,word,MEMORY,cursive,memory_c.png,,,,,,
,,,,31261,001,2025-10-18_12h04.55.863,HW_LDT_1,2024.2.4,MacIntel,58.82352941,,,,,,,,,,,,,,,,,,,,,909.715,909.913,909.913,910.413,,,,,,,,,,,,,,3.229,1,,,,,,,,,,,,,,z,,,,,,,,,,,,,,,134,1,910.414,913.646,z,1,3.229,,[],[],[],[],[],[],[],913.646,915.646,915.647,916.879,[],[],[],[],[],[],[],z,916.88,916.88,0.034820457,-0.397714908,0,0,0,,0,133,133,57,1,2,TL,meromy,cursive,meromy_c.png,1.221,,,,,
,,,,31261,001,2025-10-18_12h04.55.863,HW_LDT_1,2024.2.4,MacIntel,58.82352941,,,,,,,,,,,,,,,,,,,,,916.881,917.08,917.08,917.58,,,,,,,,,,,,,,3.724,0,,,,,,,,,,,,,,m,,,,,,,,,,,,,,,135,0,917.58,921.313,z,0,3.724,,[],[],[],[],[],[],[],921.313,923.313,923.313,923.314,[],[],[],[],[],[],[],,923.314,923.314,0.034820457,-0.397714908,0,0,0,,0,134,134,134,1,2,word,QUALIFY,cursive,qualify_c.png,,,,,,
,,,,31261,001,2025-10-18_12h04.55.863,HW_LDT_1,2024.2.4,MacIntel,58.82352941,,,,,,,,,,,,,,,,,,,,,923.315,923.513,923.513,924.013,,,,,,,,,,,,,,0.94,1,,,,,,,,,,,,,,z,,,,,,,,,,,,,,,136,1,924.014,924.963,z,1,0.94,,[],[],[],[],[],[],[],924.964,926.963,926.963,929.75,[],[],[],[],[],[],[],m,929.75,929.751,0.034820457,-0.397714908,0,0,0,,0,135,135,31,1,2,RL,spetisic,print,spetisic_p.png,2.779,,,,,
,,,,31261,001,2025-10-18_12h04.55.863,HW_LDT_1,2024.2.4,MacIntel,58.82352941,,,,,,,,,,,,,,,,,,,,,929.752,929.946,929.946,930.447,,,,,,,,,,,,,,0.936,1,,,,,,,,,,,,,,z,,,,,,,,,,,,,,,137,1,930.447,931.397,z,1,0.936,,[],[],[],[],[],[],[],931.397,933.396,933.397,934.547,[],[],[],[],[],[],[],m,934.547,934.547,0.034820457,-0.397714908,0,0,0,,0,136,136,16,1,2,RL,losipal,print,losipal_p.png,1.137,,,,,
,,,,31261,001,2025-10-18_12h04.55.863,HW_LDT_1,2024.2.4,MacIntel,58.82352941,,,,,,,,,,,,,,,,,,,,,934.548,934.746,934.747,935.246,,,,,,,,,,,,,,2.309,0,,,,,,,,,,,,,,m,,,,,,,,,,,,,,,138,0,935.247,937.563,z,0,2.309,,[],[],[],[],[],[],[],937.563,939.564,939.564,939.564,[],[],[],[],[],[],[],,939.564,939.565,0.034820457,-0.397714908,0,0,0,,0,137,137,142,1,2,word,REMOTE,cursive,remote_c.png,,,,,,
,,,,31261,001,2025-10-18_12h04.55.863,HW_LDT_1,2024.2.4,MacIntel,58.82352941,,,,,,,,,,,,,,,,,,,,,939.565,939.763,939.763,940.263,,,,,,,,,,,,,,0.741,1,,,,,,,,,,,,,,z,,,,,,,,,,,,,,,139,1,940.264,941.013,z,1,0.741,,[],[],[],[],[],[],[],941.013,943.013,943.013,945.53,[],[],[],[],[],[],[],m,945.53,945.53,0.034820457,-0.397714908,0,0,0,,0,138,138,72,1,2,TL,revomal,print,revomal_p.png,2.504,,,,,
,,,,31261,001,2025-10-18_12h04.55.863,HW_LDT_1,2024.2.4,MacIntel,58.82352941,,,,,,,,,,,,,,,,,,,,,945.531,945.73,945.73,946.23,,,,,,,,,,,,,,0.806,1,,,,,,,,,,,,,,m,,,,,,,,,,,,,,,140,0,946.23,947.047,m,1,0.806,,[],[],[],[],[],[],[],947.047,949.046,949.047,949.047,[],[],[],[],[],[],[],,949.047,949.047,0.034820457,-0.397714908,0,0,0,,0,139,139,122,1,2,word,MOBILE,print,mobile_p.png,,,,,,
,,,,31261,001,2025-10-18_12h04.55.863,HW_LDT_1,2024.2.4,MacIntel,58.82352941,,,,,,,,,,,,,,,,,,,,,949.048,949.246,949.246,949.746,,,,,,,,,,,,,,0.612,1,,,,,,,,,,,,,,m,,,,,,,,,,,,,,,141,0,949.747,950.366,m,1,0.612,,[],[],[],[],[],[],[],950.366,952.363,952.363,952.364,[],[],[],[],[],[],[],,952.364,952.364,0.034820457,-0.397714908,0,0,0,,0,140,140,118,1,2,word,MEDICINE,print,medicine_p.png,,,,,,
,,,,31261,001,2025-10-18_12h04.55.863,HW_LDT_1,2024.2.4,MacIntel,58.82352941,,,,,,,,,,,,,,,,,,,,,952.365,952.563,952.563,953.063,,,,,,,,,,,,,,2.524,1,,,,,,,,,,,,,,z,,,,,,,,,,,,,,,142,0,953.064,955.597,z,1,2.524,,[],[],[],[],[],[],[],955.597,957.596,957.596,957.597,[],[],[],[],[],[],[],,957.597,957.597,0.034820457,-0.397714908,0,0,0,,0,141,141,7,1,2,RL,cocewage,cursive,cocewage_c.png,,,,,,
,,,,31261,001,2025-10-18_12h04.55.863,HW_LDT_1,2024.2.4,MacIntel,58.82352941,,,,,,,,,,,,,,,,,,,,,957.598,957.796,957.796,958.296,,,,,,,,,,,,,,1.247,1,,,,,,,,,,,,,,z,,,,,,,,,,,,,,,143,0,958.297,959.547,z,1,1.247,,[],[],[],[],[],[],[],959.547,961.548,961.548,961.548,[],[],[],[],[],[],[],,961.548,961.548,0.034820457,-0.397714908,0,0,0,,0,142,142,24,1,2,RL,rasibal,cursive,rasibal_c.png,,,,,,
,,,,31261,001,2025-10-18_12h04.55.863,HW_LDT_1,2024.2.4,MacIntel,58.82352941,,,,,,,,,,,,,,,,,,,,,961.55,961.747,961.747,962.247,,,,,,,,,,,,,,2.643,1,,,,,,,,,,,,,,m,,,,,,,,,,,,,,,144,0,962.247,964.902,m,1,2.643,,[],[],[],[],[],[],[],964.902,966.895,966.895,966.895,[],[],[],[],[],[],[],,966.895,966.896,0.034820457,-0.397714908,0,0,0,,0,143,143,151,1,2,word,SPECIFIC,print,specific_p.png,,,,,,
,,,,31261,001,2025-10-18_12h04.55.863,HW_LDT_1,2024.2.4,MacIntel,58.82352941,,,,,,,,,,,,,,,,,,,,,966.896,967.096,967.096,967.596,,,,,,,,,,,,,,0.822,1,,,,,,,,,,,,,,z,,,,,,,,,,,,,,,145,0,967.597,968.43,z,1,0.822,,[],[],[],[],[],[],[],968.43,970.43,970.43,970.43,[],[],[],[],[],[],[],,970.43,970.43,0.034820457,-0.397714908,0,0,0,,0,144,144,50,1,2,TL,donimant,print,donimant_p.png,,,,,,
,,,,31261,001,2025-10-18_12h04.55.863,HW_LDT_1,2024.2.4,MacIntel,58.82352941,,,,,,,,,,,,,,,,,,,,,970.431,970.63,970.63,971.129,,,,,,,,,,,,,,1.658,0,,,,,,,,,,,,,,m,,,,,,,,,,,,,,,146,0,971.13,972.797,z,0,1.658,,[],[],[],[],[],[],[],972.797,974.796,974.796,974.797,[],[],[],[],[],[],[],,974.797,974.797,0.034820457,-0.397714908,0,0,0,,0,145,145,139,1,2,word,REGULAR,cursive,regular_c.png,,,,,,
,,,,31261,001,2025-10-18_12h04.55.863,HW_LDT_1,2024.2.4,MacIntel,58.82352941,,,,,,,,,,,,,,,,,,,,,974.798,974.996,974.996,975.495,,,,,,,,,,,,,,1.242,1,,,,,,,,,,,,,,z,,,,,,,,,,,,,,,147,1,975.496,976.746,z,1,1.242,,[],[],[],[],[],[],[],976.747,978.746,978.746,980.58,[],[],[],[],[],[],[],z,980.58,980.58,0.034820457,-0.397714908,0,0,0,,0,146,146,33,1,2,RL,strapely,cursive,strapely_c.png,1.828,,,,,
,,,,31261,001,2025-10-18_12h04.55.863,HW_LDT_1,2024.2.4,MacIntel,58.82352941,,,,,,,,,,,,,,,,,,,,,980.581,980.78,980.78,981.28,,,,,,,,,,,,,,0.542,1,,,,,,,,,,,,,,m,,,,,,,,,,,,,,,148,1,981.28,981.832,m,1,0.542,,[],[],[],[],[],[],[],981.832,983.829,983.829,984.73,[],[],[],[],[],[],[],m,984.73,984.73,0.034820457,-0.397714908,0,0,0,,0,147,147,99,1,2,word,DEBATE,print,debate_p.png,0.89,,,,,
,,,,31261,001,2025-10-18_12h04.55.863,HW_LDT_1,2024.2.4,MacIntel,58.82352941,,,,,,,,,,,,,,,,,,,,,984.731,984.929,984.929,985.429,,,,,,,,,,,,,,0.753,1,,,,,,,,,,,,,,z,,,,,,,,,,,,,,,149,0,985.43,986.196,z,1,0.753,,[],[],[],[],[],[],[],986.196,988.196,988.196,988.197,[],[],[],[],[],[],[],,988.197,988.197,0.034820457,-0.397714908,0,0,0,,0,148,148,74,1,2,TL,rerite,cursive,rerite_c.png,,,,,,
,,,,31261,001,2025-10-18_12h04.55.863,HW_LDT_1,2024.2.4,MacIntel,58.82352941,,,,,,,,,,,,,,,,,,,,,988.198,988.396,988.396,988.895,,,,,,,,,,,,,,0.588,1,,,,,,,,,,,,,,m,,,,,,,,,,,,,,,150,0,988.896,989.496,m,1,0.588,,[],[],[],[],[],[],[],989.496,991.496,991.496,991.496,[],[],[],[],[],[],[],,991.496,991.496,0.034820457,-0.397714908,0,0,0,,0,149,149,104,1,2,word,DOMINANT,print,dominant_p.png,,,,,,
,,,,31261,001,2025-10-18_12h04.55.863,HW_LDT_1,2024.2.4,MacIntel,58.82352941,,,,,,,,,,,,,,,,,,,,,991.497,991.696,991.696,992.196,,,,,,,,,,,,,,1.046,0,,,,,,,,,,,,,,m,,,,,,,,,,,,,,,151,0,992.197,993.246,z,0,1.046,,[],[],[],[],[],[],[],993.246,995.246,995.246,995.247,[],[],[],[],[],[],[],,995.247,995.247,0.034820457,-0.397714908,0,0,0,,0,150,150,146,1,2,word,RETIRE,cursive,retire_c.png,,,,,,
,,,,31261,001,2025-10-18_12h04.55.863,HW_LDT_1,2024.2.4,MacIntel,58.82352941,,,,,,,,,,,,,,,,,,,,,995.248,995.446,995.446,995.946,,,,,,,,,,,,,,1.056,1,,,,,,,,,,,,,,m,,,,,,,,,,,,,,,152,0,995.947,997.013,m,1,1.056,,[],[],[],[],[],[],[],997.013,999.013,999.013,999.013,[],[],[],[],[],[],[],,999.013,999.014,0.034820457,-0.397714908,0,0,0,,0,151,151,156,1,2,word,TRIBUTE,cursive,tribute_c.png,,,,,,
,,,,31261,001,2025-10-18_12h04.55.863,HW_LDT_1,2024.2.4,MacIntel,58.82352941,,,,,,,,,,,,,,,,,,,,,999.014,999.213,999.213,999.713,,,,,,,,,,,,,,1.029,1,,,,,,,,,,,,,,z,,,,,,,,,,,,,,,153,0,999.713,1000.746,z,1,1.029,,[],[],[],[],[],[],[],1000.746,1002.746,1002.746,1002.747,[],[],[],[],[],[],[],,1002.747,1002.747,0.034820457,-0.397714908,0,0,0,,0,152,152,51,1,2,TL,etidor,cursive,etidor_c.png,,,,,,
,,,,31261,001,2025-10-18_12h04.55.863,HW_LDT_1,2024.2.4,MacIntel,58.82352941,,,,,,,,,,,,,,,,,,,,,1002.748,1002.946,1002.946,1003.446,,,,,,,,,,,,,,1.112,1,,,,,,,,,,,,,,z,,,,,,,,,,,,,,,154,0,1003.447,1004.563,z,1,1.112,,[],[],[],[],[],[],[],1004.563,1006.562,1006.562,1006.562,[],[],[],[],[],[],[],,1006.563,1006.563,0.034820457,-0.397714908,0,0,0,,0,153,153,64,1,2,TL,paficic,print,paficic_p.png,,,,,,
,,,,31261,001,2025-10-18_12h04.55.863,HW_LDT_1,2024.2.4,MacIntel,58.82352941,,,,,,,,,,,,,,,,,,,,,1006.564,1006.763,1006.763,1007.262,,,,,,,,,,,,,,0.587,1,,,,,,,,,,,,,,m,,,,,,,,,,,,,,,155,1,1007.263,1007.863,m,1,0.587,,[],[],[],[],[],[],[],1007.863,1009.863,1009.863,1012.013,[],[],[],[],[],[],[],m,1012.013,1012.013,0.034820457,-0.397714908,0,0,0,,0,154,154,110,1,2,word,HERITAGE,print,heritage_p.png,2.14,,,,,
,,,,31261,001,2025-10-18_12h04.55.863,HW_LDT_1,2024.2.4,MacIntel,58.82352941,,,,,,,,,,,,,,,,,,,,,1012.014,1012.213,1012.213,1012.712,,,,,,,,,,,,,,2.222,1,,,,,,,,,,,,,,z,,,,,,,,,,,,,,,156,0,1012.713,1014.946,z,1,2.222,,[],[],[],[],[],[],[],1014.946,1016.946,1016.946,1016.946,[],[],[],[],[],[],[],,1016.946,1016.946,0.034820457,-0.397714908,0,0,0,,0,155,155,71,1,2,TL,retome,cursive,retome_c.png,,,,,,
,,,,31261,001,2025-10-18_12h04.55.863,HW_LDT_1,2024.2.4,MacIntel,58.82352941,,,,,,,,,,,,,,,,,,,,,1016.947,1017.146,1017.146,1017.646,,,,,,,,,,,,,,3.197,0,,,,,,,,,,,,,,m,,,,,,,,,,,,,,,157,0,1017.646,1020.847,z,0,3.197,,[],[],[],[],[],[],[],1020.847,1022.846,1022.846,1022.846,[],[],[],[],[],[],[],,1022.846,1022.847,0.034820457,-0.397714908,0,0,0,,0,156,156,123,1,2,word,MODERATE,cursive,moderate_c.png,,,,,,
,,,,31261,001,2025-10-18_12h04.55.863,HW_LDT_1,2024.2.4,MacIntel,58.82352941,,,,,,,,,,,,,,,,,,,,,1022.848,1023.046,1023.046,1023.546,,,,,,,,,,,,,,1.954,1,,,,,,,,,,,,,,z,,,,,,,,,,,,,,,158,0,1023.546,1025.512,z,1,1.954,,[],[],[],[],[],[],[],1025.512,1027.513,1027.513,1027.513,[],[],[],[],[],[],[],,1027.513,1027.513,0.034820457,-0.397714908,0,0,0,,0,157,157,40,1,2,TL,bevoled,cursive,bevoled_c.png,,,,,,
,,,,31261,001,2025-10-18_12h04.55.863,HW_LDT_1,2024.2.4,MacIntel,58.82352941,,,,,,,,,,,,,,,,,,,,,1027.514,1027.713,1027.713,1028.213,,,,,,,,,,,,,,1.076,1,,,,,,,,,,,,,,m,,,,,,,,,,,,,,,159,0,1028.213,1029.3,m,1,1.076,,[],[],[],[],[],[],[],1029.3,1031.296,1031.296,1031.296,[],[],[],[],[],[],[],,1031.296,1031.297,0.034820457,-0.397714908,0,0,0,,0,158,158,94,1,2,word,CLINICAL,cursive,clinical_c.png,,,,,,
,,,,31261,001,2025-10-18_12h04.55.863,HW_LDT_1,2024.2.4,MacIntel,58.82352941,,,,,,,,,,,,,,,,,,,,,1031.297,1031.496,1031.496,1031.996,,,,,,,,,,,,,,1.604,0,,,,,,,,,,,,,,m,,,,,,,,,,,,,,,160,0,1031.996,1033.613,z,0,1.604,,[],[],[],[],[],[],[],1033.613,1035.613,1035.613,1035.613,[],[],[],[],[],[],[],,1035.613,1035.613,0.034820457,-0.397714908,0,0,0,,0,159,159,90,1,2,word,CAPITAL,cursive,capital_c.png,,,,,,
,,,,31261,001,2025-10-18_12h04.55.863,HW_LDT_1,2024.2.4,MacIntel,58.82352941,,,,,,,,,,,,,,,,,,,,,,,,,,,,,,,,,,,,,,,,,,,,,,,,,,,,,,,,,,,,,,,,,,,,,,,,,,,,,,,,,,,,,,,,,,,,,,,,,,,,,,,,,,,,,,,,,,,,,1035.63,1040.582
