counterbalance_lists.group,counterbalance_lists.remaining,get_list.started,get_list.stopped,participant,session,date,expName,psychopyVersion,OS,frameRate,Instructions.started,Instructions.stopped,key_resp.keys,key_resp.rt,key_resp.duration,instr_done_touch.x,instr_done_touch.y,instr_done_touch.leftButton,instr_done_touch.midButton,instr_done_touch.rightButton,start_instr.thisRepN,start_instr.thisTrialN,start_instr.thisN,start_instr.thisIndex,start_instr.ran,pageN,phase,instruct_text,has_image,instruct_image,showProgress.started,showProgress.stopped,fix.started,fix.stopped,prac.started,prac.stopped,response.keys,response.corr,response.rt,response.duration,touch_resp.x,touch_resp.y,touch_resp.leftButton,touch_resp.midButton,touch_resp.rightButton,touch_resp.time,touch_resp.clicked_name,rt,corr,feedback.started,feedback.stopped,trials.thisRepN,trials.thisTrialN,trials.thisN,trials.thisIndex,trials.ran,TrialID,StimulusType,Condition,PrimeDuration,Prime,Target,corrAns,Instructions_expt.started,Instructions_expt.stopped,key_resp_3.keys,instr_done_touch_3.x,instr_done_touch_3.y,instr_done_touch_3.leftButton,instr_done_touch_3.midButton,instr_done_touch_3.rightButton,instr_done_touch_3.clicked_name,instr_experiment.thisRepN,instr_experiment.thisTrialN,instr_experiment.thisN,instr_experiment.thisIndex,instr_experiment.ran,trialID,flag,maintask.started,maintask.stopped,key_resp_2.keys,key_resp_2.corr,key_resp_2.rt,key_resp_2.duration,targ_click.x,targ_click.y,targ_click.leftButton,targ_click.midButton,targ_click.rightButton,targ_click.time,targ_click.clicked_name,ITI.started,ITI.stopped,probe.started,probe.stopped,click_probe.x,click_probe.y,click_probe.leftButton,click_probe.midButton,click_probe.rightButton,click_probe.time,click_probe.clicked_name,key_resp_probe.keys,Break.started,Break.stopped,break_done_touch.x,break_done_touch.y,break_done_touch.leftButton,break_done_touch.midButton,break_done_touch.rightButton,break_done_keyboard.keys,list4_trials.thisRepN,list4_trials.thisTrialN,list4_trials.thisN,list4_trials.thisIndex,list4_trials.ran,list_id,item_type,string,font,stim_file,key_resp_probe.rt,key_resp_probe.duration,break_done_keyboard.rt,break_done_keyboard.duration,End.started,End.stopped
list4,,0.508,0.5081,31549,001,2025-10-19_12h18.07.706,HW_LDT_1,2024.2.4,MacIntel,30.03003003,,,,,,,,,,,,,,,,,,,,,,,,,,,,,,,,,,,,,,,,,,,,,,,,,,,,,,,,,,,,,,,,,,,,,,,,,,,,,,,,,,,,,,,,,,,,,,,,,,,,,,,,,,,,,,,,,,,,,,
,,,,31549,001,2025-10-19_12h18.07.706,HW_LDT_1,2024.2.4,MacIntel,30.03003003,0.5294,25.0512,space,24.4852,,0.220594618,0.042039931,0,0,0,0,0,0,0,1,1,instructions,"INSTRUCTIONS
At the start of each trial, look at the plus sign  (+) in the center of the screen.  This tells you that a trial is about to begin and where to look. Second, the plus sign will disappear and a string of letters will appear. Your task is to determine if the string of letters is a word or not. If the item is a word press the M key (on keyboard)  or touch the word button (phone/tablet).  If the item is not a word,  press the  Z key (on keyboard)  or touch the nonword button (on phone/tablet). The items will be presented for a short time. 
Press the space bar or touch  continue.",0,,,,,,,,,,,,,,,,,,,,,,,,,,,,,,,,,,,,,,,,,,,,,,,,,,,,,,,,,,,,,,,,,,,,,,,,,,,,,,,,,,,,,,,,,,,,,,,,,,,
,,,,31549,001,2025-10-19_12h18.07.706,HW_LDT_1,2024.2.4,MacIntel,30.03003003,25.0546,31.0835,space,5.9897,,0.220594618,0.042039931,0,0,0,0,1,1,1,1,2,instructions,"If your device has a keyboard, press the 'Z' key for nonwords and the 'M' key for words.





Press the space bar or touch the button below to continue.",0,keyboard-example.gif,,,,,,,,,,,,,,,,,,,,,,,,,,,,,,,,,,,,,,,,,,,,,,,,,,,,,,,,,,,,,,,,,,,,,,,,,,,,,,,,,,,,,,,,,,,,,,,,,,
,,,,31549,001,2025-10-19_12h18.07.706,HW_LDT_1,2024.2.4,MacIntel,30.03003003,31.0859,35.2505,space,4.1357,,0.220594618,0.042039931,0,0,0,0,2,2,2,1,3,instructions,"If you are using a touchscreen only device, use the buttons on the screen. Do not use the mouse.





Press the space bar or touch the button below to continue.",0,touchscreen-example.gif,,,,,,,,,,,,,,,,,,,,,,,,,,,,,,,,,,,,,,,,,,,,,,,,,,,,,,,,,,,,,,,,,,,,,,,,,,,,,,,,,,,,,,,,,,,,,,,,,,
,,,,31549,001,2025-10-19_12h18.07.706,HW_LDT_1,2024.2.4,MacIntel,30.03003003,35.2533,41.6502,space,6.377,,0.220594618,0.042039931,0,0,0,0,3,3,3,1,4,instructions,"It is very important that you respond as quickly and accurately as possible, as each letter string will only be on the screen for two seconds. If you do not respond within this time, the message 'Too slow!' will be displayed and the experiment will progress to the next letter string. The first 20 trials will be practice trials and you will receive feedback on your answers. 

Press the space bar or touch the button below to start the practice trials.",0,,,,,,,,,,,,,,,,,,,,,,,,,,,,,,,,,,,,,,,,,,,,,,,,,,,,,,,,,,,,,,,,,,,,,,,,,,,,,,,,,,,,,,,,,,,,,,,,,,,
,,,,31549,001,2025-10-19_12h18.07.706,HW_LDT_1,2024.2.4,MacIntel,30.03003003,,,,,,,,,,,,,,,,,,,,,41.6799,41.8502,41.8504,42.3501,42.3505,45.3172,z,1,2.9249,,[],[],[],[],[],[],[],2.9249,1,45.3178,45.8169,0,0,0,10,1,1011,NW,"ID",16,inlade,INLADE,z,,,,,,,,,,,,,,,,,,,,,,,,,,,,,,,,,,,,,,,,,,,,,,,,,,,,,,,,,,,,,,,,,
,,,,31549,001,2025-10-19_12h18.07.706,HW_LDT_1,2024.2.4,MacIntel,30.03003003,,,,,,,,,,,,,,,,,,,,,45.8187,46.0159,46.016,46.5165,46.5179,48.5836,m,1,2.0278,,[],[],[],[],[],[],[],2.0278,1,48.5839,49.0833,0,1,1,5,1,1006,WORD,UN,33,frenzy,OBTAIN,m,,,,,,,,,,,,,,,,,,,,,,,,,,,,,,,,,,,,,,,,,,,,,,,,,,,,,,,,,,,,,,,,,
,,,,31549,001,2025-10-19_12h18.07.706,HW_LDT_1,2024.2.4,MacIntel,30.03003003,,,,,,,,,,,,,,,,,,,,,49.0849,49.2833,49.2833,49.7833,49.7845,50.6168,m,1,0.8092,,[],[],[],[],[],[],[],0.8092,1,50.617,51.1166,0,2,2,1,1,1002,WORD,"ID",33,adjust,ADJUST,m,,,,,,,,,,,,,,,,,,,,,,,,,,,,,,,,,,,,,,,,,,,,,,,,,,,,,,,,,,,,,,,,,
,,,,31549,001,2025-10-19_12h18.07.706,HW_LDT_1,2024.2.4,MacIntel,30.03003003,,,,,,,,,,,,,,,,,,,,,51.1183,51.3166,51.3166,51.8166,51.8176,53.1831,z,1,1.3298,,[],[],[],[],[],[],[],1.3298,1,53.1833,53.6826,0,3,3,12,1,1013,NW,UN,33,adveil,SPRINY,z,,,,,,,,,,,,,,,,,,,,,,,,,,,,,,,,,,,,,,,,,,,,,,,,,,,,,,,,,,,,,,,,,
,,,,31549,001,2025-10-19_12h18.07.706,HW_LDT_1,2024.2.4,MacIntel,30.03003003,,,,,,,,,,,,,,,,,,,,,53.6841,53.8832,53.8832,54.3833,54.3842,55.55,z,1,1.1409,,[],[],[],[],[],[],[],1.1409,1,55.5501,56.0497,0,4,4,13,1,1014,NW,UN,33,winfer,ROUPET,z,,,,,,,,,,,,,,,,,,,,,,,,,,,,,,,,,,,,,,,,,,,,,,,,,,,,,,,,,,,,,,,,,
,,,,31549,001,2025-10-19_12h18.07.706,HW_LDT_1,2024.2.4,MacIntel,30.03003003,,,,,,,,,,,,,,,,,,,,,56.0502,56.2499,56.2499,56.7499,56.7507,57.55,m,1,0.7673,,[],[],[],[],[],[],[],0.7673,1,57.5502,58.0499,0,5,5,0,1,1001,WORD,"ID",33,utopia,UTOPIA,m,,,,,,,,,,,,,,,,,,,,,,,,,,,,,,,,,,,,,,,,,,,,,,,,,,,,,,,,,,,,,,,,,
,,,,31549,001,2025-10-19_12h18.07.706,HW_LDT_1,2024.2.4,MacIntel,30.03003003,,,,,,,,,,,,,,,,,,,,,58.0516,58.2499,58.2499,58.7497,58.7506,59.4166,m,1,0.6589,,[],[],[],[],[],[],[],0.6589,1,59.4167,59.9166,0,6,6,3,1,1004,WORD,"ID",16,matrix,MATRIX,m,,,,,,,,,,,,,,,,,,,,,,,,,,,,,,,,,,,,,,,,,,,,,,,,,,,,,,,,,,,,,,,,,
,,,,31549,001,2025-10-19_12h18.07.706,HW_LDT_1,2024.2.4,MacIntel,30.03003003,,,,,,,,,,,,,,,,,,,,,59.9182,60.1165,60.1165,60.6166,60.6177,61.7166,z,1,1.0819,,[],[],[],[],[],[],[],1.0819,1,61.7167,62.2166,0,7,7,15,1,1016,NW,UN,16,mushed,WHAISE,z,,,,,,,,,,,,,,,,,,,,,,,,,,,,,,,,,,,,,,,,,,,,,,,,,,,,,,,,,,,,,,,,,
,,,,31549,001,2025-10-19_12h18.07.706,HW_LDT_1,2024.2.4,MacIntel,30.03003003,,,,,,,,,,,,,,,,,,,,,62.2182,62.4166,62.4167,62.9165,62.9175,63.9164,z,1,0.9681,,[],[],[],[],[],[],[],0.9681,1,63.9167,64.4167,0,8,8,8,1,1009,NW,"ID",33,aslert,ASLERT,z,,,,,,,,,,,,,,,,,,,,,,,,,,,,,,,,,,,,,,,,,,,,,,,,,,,,,,,,,,,,,,,,,
,,,,31549,001,2025-10-19_12h18.07.706,HW_LDT_1,2024.2.4,MacIntel,30.03003003,,,,,,,,,,,,,,,,,,,,,64.4184,64.6168,64.6169,65.1166,65.1174,67.1167,z,1,1.9847,,[],[],[],[],[],[],[],1.9847,1,67.1168,67.6167,0,9,9,11,1,1012,NW,"ID",16,rashet,RASHET,z,,,,,,,,,,,,,,,,,,,,,,,,,,,,,,,,,,,,,,,,,,,,,,,,,,,,,,,,,,,,,,,,,
,,,,31549,001,2025-10-19_12h18.07.706,HW_LDT_1,2024.2.4,MacIntel,30.03003003,,,,,,,,,,,,,,,,,,,,,67.6182,67.8167,67.8167,68.3163,68.3168,70.4165,z,1,2.0658,,[],[],[],[],[],[],[],2.0658,1,70.4167,70.9167,0,10,10,9,1,1010,NW,"ID",33,fariny,FARINY,z,,,,,,,,,,,,,,,,,,,,,,,,,,,,,,,,,,,,,,,,,,,,,,,,,,,,,,,,,,,,,,,,,
,,,,31549,001,2025-10-19_12h18.07.706,HW_LDT_1,2024.2.4,MacIntel,30.03003003,,,,,,,,,,,,,,,,,,,,,70.9183,71.1166,71.1166,71.6166,71.6176,74.2833,z,1,2.6345,,[],[],[],[],[],[],[],2.6345,1,74.2835,74.7832,0,11,11,14,1,1015,NW,UN,16,miaber,THRALE,z,,,,,,,,,,,,,,,,,,,,,,,,,,,,,,,,,,,,,,,,,,,,,,,,,,,,,,,,,,,,,,,,,
,,,,31549,001,2025-10-19_12h18.07.706,HW_LDT_1,2024.2.4,MacIntel,30.03003003,,,,,,,,,,,,,,,,,,,,,74.7846,74.9832,74.9832,75.4832,75.4845,76.4159,z,0,0.9106,,[],[],[],[],[],[],[],0.9106,0,76.4167,76.9165,0,12,12,4,1,1005,WORD,UN,33,abound,SQUEAK,m,,,,,,,,,,,,,,,,,,,,,,,,,,,,,,,,,,,,,,,,,,,,,,,,,,,,,,,,,,,,,,,,,
,,,,31549,001,2025-10-19_12h18.07.706,HW_LDT_1,2024.2.4,MacIntel,30.03003003,,,,,,,,,,,,,,,,,,,,,76.9181,77.1165,77.1166,77.6159,77.6165,78.4835,m,1,0.8413,,[],[],[],[],[],[],[],0.8413,1,78.4848,78.9834,0,13,13,6,1,1007,WORD,UN,16,tropic,ZOMBIE,m,,,,,,,,,,,,,,,,,,,,,,,,,,,,,,,,,,,,,,,,,,,,,,,,,,,,,,,,,,,,,,,,,
,,,,31549,001,2025-10-19_12h18.07.706,HW_LDT_1,2024.2.4,MacIntel,30.03003003,,,,,,,,,,,,,,,,,,,,,78.985,79.1831,79.1832,79.6833,79.6843,81.1166,m,1,1.3944,,[],[],[],[],[],[],[],1.3944,1,81.1167,81.6166,0,14,14,7,1,1008,WORD,UN,16,hurdle,VOLUME,m,,,,,,,,,,,,,,,,,,,,,,,,,,,,,,,,,,,,,,,,,,,,,,,,,,,,,,,,,,,,,,,,,
,,,,31549,001,2025-10-19_12h18.07.706,HW_LDT_1,2024.2.4,MacIntel,30.03003003,,,,,,,,,,,,,,,,,,,,,81.6178,81.8159,81.816,82.3169,82.3178,83.4499,m,1,1.1059,,[],[],[],[],[],[],[],1.1059,1,83.45,83.9501,0,15,15,2,1,1003,WORD,"ID",16,almond,ALMOND,m,,,,,,,,,,,,,,,,,,,,,,,,,,,,,,,,,,,,,,,,,,,,,,,,,,,,,,,,,,,,,,,,,
,,,,31549,001,2025-10-19_12h18.07.706,HW_LDT_1,2024.2.4,MacIntel,30.03003003,,,,,,,,,,,,,,,,1,end_of_practice,"You have completed the practice trials. During the experimental trials, you will not receive feedback. On some trials you will be asked to report whether the item you just saw was in cursive or print. 
Before you begin, please ensure that you are in a comfortable and quiet location and will not be disturbed for about 15 minutes, as we cannot use your data if you do not complete all the trials. 
 When you are ready to start the experimental trials, please press space or touch the button below.",,,,,,,,,,,,,,,,,,,,,,,,,,,,,,,,,,,,83.9574,87.8849,,0.029544271,-0.414270833,1,0,0,instr_done_button_3,0,0,0,0,1,,,,,,,,,,,,,,,,,,,,,,,,,,,,,,,,,,,,,,,,,,,,,,,,,,,
,,,,31549,001,2025-10-19_12h18.07.706,HW_LDT_1,2024.2.4,MacIntel,30.03003003,,,,,,,,,,,,,,,,,,,,,87.9046,88.0832,88.0832,88.5835,,,,,,,,,,,,,,1.445,1,,,,,,,,,,,,,,m,,,,,,,,,,,,,,,1,0,88.585,90.0505,m,1,1.445,,[],[],[],[],[],[],[],90.0508,92.0503,92.0506,92.0541,[],[],[],[],[],[],[],,92.0542,92.0559,0.029544271,-0.412352431,0,0,0,,0,0,0,99,1,4,word,DEBATE,cursive,debate_c.png,,,,,,
,,,,31549,001,2025-10-19_12h18.07.706,HW_LDT_1,2024.2.4,MacIntel,30.03003003,,,,,,,,,,,,,,,,,,,,,92.0568,92.2499,92.2499,92.7491,,,,,,,,,,,,,,2.2194,1,,,,,,,,,,,,,,m,,,,,,,,,,,,,,,2,0,92.7497,94.9835,m,1,2.2194,,[],[],[],[],[],[],[],94.9836,96.9834,96.9835,96.9837,[],[],[],[],[],[],[],,96.9837,96.9839,0.029544271,-0.412352431,0,0,0,,0,1,1,107,1,4,word,EVIDENT,print,evident_p.png,,,,,,
,,,,31549,001,2025-10-19_12h18.07.706,HW_LDT_1,2024.2.4,MacIntel,30.03003003,,,,,,,,,,,,,,,,,,,,,96.9853,97.1825,97.1826,97.6832,,,,,,,,,,,,,,1.1102,1,,,,,,,,,,,,,,m,,,,,,,,,,,,,,,3,0,97.6837,98.817,m,1,1.1102,,[],[],[],[],[],[],[],98.8171,100.8167,100.8168,100.8171,[],[],[],[],[],[],[],,100.8171,100.8172,0.029544271,-0.412352431,0,0,0,,0,2,2,89,1,4,word,CAPACITY,cursive,capacity_c.png,,,,,,
,,,,31549,001,2025-10-19_12h18.07.706,HW_LDT_1,2024.2.4,MacIntel,30.03003003,,,,,,,,,,,,,,,,,,,,,100.8184,101.0159,101.0159,101.5166,,,,,,,,,,,,,,0.6656,0,,,,,,,,,,,,,,z,,,,,,,,,,,,,,,4,0,101.5172,102.1839,m,0,0.6656,,[],[],[],[],[],[],[],102.184,104.1833,104.1834,104.1837,[],[],[],[],[],[],[],,104.1838,104.184,0.029544271,-0.412352431,0,0,0,,0,3,3,62,1,4,TL,locigal,print,locigal_p.png,,,,,,
,,,,31549,001,2025-10-19_12h18.07.706,HW_LDT_1,2024.2.4,MacIntel,30.03003003,,,,,,,,,,,,,,,,,,,,,104.1857,104.3834,104.3834,104.8834,,,,,,,,,,,,,,0.669,1,,,,,,,,,,,,,,m,,,,,,,,,,,,,,,5,0,104.8843,105.5835,m,1,0.669,,[],[],[],[],[],[],[],105.5836,107.5834,107.5835,107.5837,[],[],[],[],[],[],[],,107.5838,107.584,0.029544271,-0.412352431,0,0,0,,0,4,4,135,1,4,word,QUALITY,print,quality_p.png,,,,,,
,,,,31549,001,2025-10-19_12h18.07.706,HW_LDT_1,2024.2.4,MacIntel,30.03003003,,,,,,,,,,,,,,,,,,,,,107.5855,107.7834,107.7835,108.2832,,,,,,,,,,,,,,1.2509,1,,,,,,,,,,,,,,z,,,,,,,,,,,,,,,6,0,108.284,109.5493,z,1,1.2509,,[],[],[],[],[],[],[],109.5494,111.5503,111.5503,111.5506,[],[],[],[],[],[],[],,111.5508,111.5509,0.034878472,-0.406445312,0,0,0,,0,5,5,40,1,4,RL,reconal,print,reconal_p.png,,,,,,
,,,,31549,001,2025-10-19_12h18.07.706,HW_LDT_1,2024.2.4,MacIntel,30.03003003,,,,,,,,,,,,,,,,,,,,,111.5523,111.7499,111.75,112.2499,,,,,,,,,,,,,,2.0024,1,,,,,,,,,,,,,,m,,,,,,,,,,,,,,,7,0,112.2505,114.2838,m,1,2.0024,,[],[],[],[],[],[],[],114.2839,116.283,116.2831,116.2832,[],[],[],[],[],[],[],,116.2833,116.2834,0.03375,-0.407617187,0,0,0,,0,6,6,96,1,4,word,CONSIDER,cursive,consider_c.png,,,,,,
,,,,31549,001,2025-10-19_12h18.07.706,HW_LDT_1,2024.2.4,MacIntel,30.03003003,,,,,,,,,,,,,,,,,,,,,116.284,116.4833,116.4833,116.9833,,,,,,,,,,,,,,1.414,1,,,,,,,,,,,,,,m,,,,,,,,,,,,,,,8,1,116.9839,118.4168,m,1,1.414,,[],[],[],[],[],[],[],118.4171,120.4168,120.4169,124.05,[],[],[],[],[],[],[],z,124.05,124.0502,0.03375,-0.407617187,0,0,0,,0,7,7,82,1,4,word,AMATEUR,cursive,amateur_c.png,3.6311,,,,,
,,,,31549,001,2025-10-19_12h18.07.706,HW_LDT_1,2024.2.4,MacIntel,30.03003003,,,,,,,,,,,,,,,,,,,,,124.0514,124.2496,124.2497,124.7499,,,,,,,,,,,,,,2.8144,1,,,,,,,,,,,,,,z,,,,,,,,,,,,,,,9,0,124.7506,127.5835,z,1,2.8144,,[],[],[],[],[],[],[],127.5837,129.5833,129.5833,129.5835,[],[],[],[],[],[],[],,129.5835,129.5837,0.03375,-0.407617187,0,0,0,,0,8,8,71,1,4,TL,racidal,print,racidal_p.png,,,,,,
,,,,31549,001,2025-10-19_12h18.07.706,HW_LDT_1,2024.2.4,MacIntel,30.03003003,,,,,,,,,,,,,,,,,,,,,129.5846,129.7834,129.7835,130.2834,,,,,,,,,,,,,,1.5352,1,,,,,,,,,,,,,,z,,,,,,,,,,,,,,,10,0,130.2841,131.8495,z,1,1.5352,,[],[],[],[],[],[],[],131.8496,133.8496,133.8496,133.8498,[],[],[],[],[],[],[],,133.8498,133.8499,0.03375,-0.407617187,0,0,0,,0,9,9,76,1,4,TL,setanor,print,setanor_p.png,,,,,,
,,,,31549,001,2025-10-19_12h18.07.706,HW_LDT_1,2024.2.4,MacIntel,30.03003003,,,,,,,,,,,,,,,,,,,,,133.8508,134.0496,134.0496,134.55,,,,,,,,,,,,,,1.5717,1,,,,,,,,,,,,,,m,,,,,,,,,,,,,,,11,0,134.5506,136.1502,m,1,1.5717,,[],[],[],[],[],[],[],136.1503,138.15,138.1501,138.1504,[],[],[],[],[],[],[],,138.1504,138.1507,0.03375,-0.407617187,0,0,0,,0,10,10,146,1,4,word,RETIRE,print,retire_p.png,,,,,,
,,,,31549,001,2025-10-19_12h18.07.706,HW_LDT_1,2024.2.4,MacIntel,30.03003003,,,,,,,,,,,,,,,,,,,,,138.1523,138.35,138.3501,138.8499,,,,,,,,,,,,,,2.1499,0,,,,,,,,,,,,,,m,,,,,,,,,,,,,,,12,0,138.8505,141.0169,z,0,2.1499,,[],[],[],[],[],[],[],141.017,143.0168,143.0169,143.0172,[],[],[],[],[],[],[],,143.0173,143.0174,0.03375,-0.407617187,0,0,0,,0,11,11,128,1,4,word,PACIFIC,cursive,pacific_c.png,,,,,,
,,,,31549,001,2025-10-19_12h18.07.706,HW_LDT_1,2024.2.4,MacIntel,30.03003003,,,,,,,,,,,,,,,,,,,,,143.0189,143.2166,143.2167,143.7168,,,,,,,,,,,,,,1.7025,1,,,,,,,,,,,,,,m,,,,,,,,,,,,,,,13,0,143.7173,145.4501,m,1,1.7025,,[],[],[],[],[],[],[],145.4501,147.4501,147.4501,147.4504,[],[],[],[],[],[],[],,147.4505,147.4506,0.03375,-0.407617187,0,0,0,,0,12,12,94,1,4,word,CLINICAL,print,clinical_p.png,,,,,,
,,,,31549,001,2025-10-19_12h18.07.706,HW_LDT_1,2024.2.4,MacIntel,30.03003003,,,,,,,,,,,,,,,,,,,,,147.4523,147.65,147.6501,148.1501,,,,,,,,,,,,,,2.1899,1,,,,,,,,,,,,,,m,,,,,,,,,,,,,,,14,0,148.1506,150.3501,m,1,2.1899,,[],[],[],[],[],[],[],150.3502,152.35,152.35,152.3502,[],[],[],[],[],[],[],,152.3502,152.3503,0.03375,-0.407617187,0,0,0,,0,13,13,100,1,4,word,DECADE,cursive,decade_c.png,,,,,,
,,,,31549,001,2025-10-19_12h18.07.706,HW_LDT_1,2024.2.4,MacIntel,30.03003003,,,,,,,,,,,,,,,,,,,,,152.3513,152.55,152.5501,153.05,,,,,,,,,,,,,,2.0709,0,,,,,,,,,,,,,,m,,,,,,,,,,,,,,,15,0,153.0506,155.1501,z,0,2.0709,,[],[],[],[],[],[],[],155.1502,157.15,157.1502,157.1503,[],[],[],[],[],[],[],,157.1504,157.1506,0.03375,-0.407617187,0,0,0,,0,14,14,138,1,4,word,REFUSAL,cursive,refusal_c.png,,,,,,
,,,,31549,001,2025-10-19_12h18.07.706,HW_LDT_1,2024.2.4,MacIntel,30.03003003,,,,,,,,,,,,,,,,,,,,,157.1521,157.3502,157.3502,157.8502,,,,,,,,,,,,,,1.3405,1,,,,,,,,,,,,,,z,,,,,,,,,,,,,,,16,1,157.851,159.2163,z,1,1.3405,,[],[],[],[],[],[],[],159.2164,161.2168,161.2168,163.1834,[],[],[],[],[],[],[],m,163.1834,163.1836,0.03375,-0.407617187,0,0,0,,0,15,15,75,1,4,TL,sanile,print,sanile_p.png,1.9427,,,,,
,,,,31549,001,2025-10-19_12h18.07.706,HW_LDT_1,2024.2.4,MacIntel,30.03003003,,,,,,,,,,,,,,,,,,,,,163.1849,163.3835,163.3835,163.8833,,,,,,,,,,,,,,3.676,1,,,,,,,,,,,,,,z,,,,,,,,,,,,,,,17,0,163.8836,167.5836,z,1,3.676,,[],[],[],[],[],[],[],167.5837,169.5835,169.5836,169.5838,[],[],[],[],[],[],[],,169.5839,169.584,0.03375,-0.407617187,0,0,0,,0,16,16,16,1,4,RL,desifate,cursive,desifate_c.png,,,,,,
,,,,31549,001,2025-10-19_12h18.07.706,HW_LDT_1,2024.2.4,MacIntel,30.03003003,,,,,,,,,,,,,,,,,,,,,169.5853,169.7835,169.7835,170.2835,,,,,,,,,,,,,,2.4402,1,,,,,,,,,,,,,,m,,,,,,,,,,,,,,,18,0,170.284,172.7502,m,1,2.4402,,[],[],[],[],[],[],[],172.7504,174.7501,174.7502,174.7505,[],[],[],[],[],[],[],,174.7506,174.7507,0.03375,-0.407617187,0,0,0,,0,17,17,136,1,4,word,RADICAL,print,radical_p.png,,,,,,
,,,,31549,001,2025-10-19_12h18.07.706,HW_LDT_1,2024.2.4,MacIntel,30.03003003,,,,,,,,,,,,,,,,,,,,,174.7522,174.9501,174.9502,175.4503,,,,,,,,,,,,,,2.8916,0,,,,,,,,,,,,,,m,,,,,,,,,,,,,,,19,0,175.4509,178.3501,z,0,2.8916,,[],[],[],[],[],[],[],178.3502,180.3501,180.3501,180.3503,[],[],[],[],[],[],[],,180.3505,180.3508,0.03375,-0.407617187,0,0,0,,0,18,18,108,1,4,word,FORTUNE,cursive,fortune_c.png,,,,,,
,,,,31549,001,2025-10-19_12h18.07.706,HW_LDT_1,2024.2.4,MacIntel,30.03003003,,,,,,,,,,,,,,,,,,,,,180.3524,180.5502,180.5502,181.0501,,,,,,,,,,,,,,1.5887,1,,,,,,,,,,,,,,z,,,,,,,,,,,,,,,20,0,181.0507,182.6504,z,1,1.5887,,[],[],[],[],[],[],[],182.6504,184.6492,184.6493,184.6495,[],[],[],[],[],[],[],,184.6495,184.6496,0.03375,-0.407617187,0,0,0,,0,19,19,64,1,4,TL,moredate,print,moredate_p.png,,,,,,
,,,,31549,001,2025-10-19_12h18.07.706,HW_LDT_1,2024.2.4,MacIntel,30.03003003,,,,,,,,,,,,,,,,,,,,,184.6507,184.8501,184.8501,185.3501,,,,,,,,,,,,,,2.5351,1,,,,,,,,,,,,,,z,,,,,,,,,,,,,,,21,0,185.3507,187.9169,z,1,2.5351,,[],[],[],[],[],[],[],187.9171,189.9169,189.917,189.9172,[],[],[],[],[],[],[],,189.9173,189.9174,0.03375,-0.407617187,0,0,0,,0,20,20,72,1,4,TL,relugar,cursive,relugar_c.png,,,,,,
,,,,31549,001,2025-10-19_12h18.07.706,HW_LDT_1,2024.2.4,MacIntel,30.03003003,,,,,,,,,,,,,,,,,,,,,189.919,190.1168,190.1168,190.617,,,,,,,,,,,,,,0.9358,1,,,,,,,,,,,,,,m,,,,,,,,,,,,,,,22,0,190.6176,191.5828,m,1,0.9358,,[],[],[],[],[],[],[],191.5829,193.5836,193.5837,193.5839,[],[],[],[],[],[],[],,193.5839,193.584,0.03375,-0.407617187,0,0,0,,0,21,21,147,1,4,word,ROMANTIC,print,romantic_p.png,,,,,,
,,,,31549,001,2025-10-19_12h18.07.706,HW_LDT_1,2024.2.4,MacIntel,30.03003003,,,,,,,,,,,,,,,,,,,,,193.5854,193.7837,193.7837,194.2835,,,,,,,,,,,,,,4.6684,1,,,,,,,,,,,,,,m,,,,,,,,,,,,,,,23,0,194.2841,198.9836,m,1,4.6684,,[],[],[],[],[],[],[],198.9836,200.9835,200.9836,200.9838,[],[],[],[],[],[],[],,200.9839,200.9841,0.03375,-0.407617187,0,0,0,,0,22,22,129,1,4,word,PARENT,cursive,parent_c.png,,,,,,
,,,,31549,001,2025-10-19_12h18.07.706,HW_LDT_1,2024.2.4,MacIntel,30.03003003,,,,,,,,,,,,,,,,,,,,,200.9856,201.1835,201.1836,201.6835,,,,,,,,,,,,,,1.2362,1,,,,,,,,,,,,,,m,,,,,,,,,,,,,,,24,0,201.6841,202.9504,m,1,1.2362,,[],[],[],[],[],[],[],202.9506,204.9502,204.9504,204.9505,[],[],[],[],[],[],[],,204.9506,204.9506,0.03375,-0.407617187,0,0,0,,0,23,23,154,1,4,word,STORAGE,print,storage_p.png,,,,,,
,,,,31549,001,2025-10-19_12h18.07.706,HW_LDT_1,2024.2.4,MacIntel,30.03003003,,,,,,,,,,,,,,,,,,,,,204.9521,205.1502,205.1502,205.6504,,,,,,,,,,,,,,1.9984,1,,,,,,,,,,,,,,z,,,,,,,,,,,,,,,25,0,205.651,207.6503,z,1,1.9984,,[],[],[],[],[],[],[],207.6504,209.6502,209.6502,209.6503,[],[],[],[],[],[],[],,209.6504,209.6505,0.03375,-0.407617187,0,0,0,,0,24,24,68,1,4,TL,prosopal,print,prosopal_p.png,,,,,,
,,,,31549,001,2025-10-19_12h18.07.706,HW_LDT_1,2024.2.4,MacIntel,30.03003003,,,,,,,,,,,,,,,,,,,,,209.6518,209.8501,209.8502,210.3503,,,,,,,,,,,,,,2.3968,1,,,,,,,,,,,,,,z,,,,,,,,,,,,,,,26,0,210.3509,212.7501,z,1,2.3968,,[],[],[],[],[],[],[],212.7502,214.7501,214.7502,214.7504,[],[],[],[],[],[],[],,214.7504,214.7505,0.03375,-0.407617187,0,0,0,,0,25,25,32,1,4,RL,patisic,cursive,patisic_c.png,,,,,,
,,,,31549,001,2025-10-19_12h18.07.706,HW_LDT_1,2024.2.4,MacIntel,30.03003003,,,,,,,,,,,,,,,,,,,,,214.7521,214.9502,214.9502,215.4497,,,,,,,,,,,,,,1.7366,1,,,,,,,,,,,,,,m,,,,,,,,,,,,,,,27,0,215.4501,217.2159,m,1,1.7366,,[],[],[],[],[],[],[],217.2161,219.2168,219.2168,219.2171,[],[],[],[],[],[],[],,219.2171,219.2173,0.03375,-0.407617187,0,0,0,,0,26,26,83,1,4,word,ANIMAL,cursive,animal_c.png,,,,,,
,,,,31549,001,2025-10-19_12h18.07.706,HW_LDT_1,2024.2.4,MacIntel,30.03003003,,,,,,,,,,,,,,,,,,,,,219.2188,219.4163,219.4164,219.917,,,,,,,,,,,,,,1.2358,1,,,,,,,,,,,,,,m,,,,,,,,,,,,,,,28,0,219.9176,221.1838,m,1,1.2358,,[],[],[],[],[],[],[],221.1839,223.1834,223.1836,223.1837,[],[],[],[],[],[],[],,223.1839,223.184,0.03375,-0.407617187,0,0,0,,0,27,27,117,1,4,word,MARINE,print,marine_p.png,,,,,,
,,,,31549,001,2025-10-19_12h18.07.706,HW_LDT_1,2024.2.4,MacIntel,30.03003003,,,,,,,,,,,,,,,,,,,,,223.1856,223.3838,223.3838,223.8837,,,,,,,,,,,,,,1.8029,1,,,,,,,,,,,,,,m,,,,,,,,,,,,,,,29,0,223.8842,225.7171,m,1,1.8029,,[],[],[],[],[],[],[],225.7172,227.7169,227.7169,227.7171,[],[],[],[],[],[],[],,227.7172,227.7173,0.03375,-0.407617187,0,0,0,,0,28,28,134,1,4,word,QUALIFY,print,qualify_p.png,,,,,,
,,,,31549,001,2025-10-19_12h18.07.706,HW_LDT_1,2024.2.4,MacIntel,30.03003003,,,,,,,,,,,,,,,,,,,,,227.7188,227.917,227.9171,228.417,,,,,,,,,,,,,,1.6534,0,,,,,,,,,,,,,,z,,,,,,,,,,,,,,,30,0,228.4177,230.0838,m,0,1.6534,,[],[],[],[],[],[],[],230.084,232.0836,232.0837,232.0839,[],[],[],[],[],[],[],,232.084,232.0841,0.03375,-0.407617187,0,0,0,,0,29,29,30,1,4,RL,nunewical,cursive,nunewical_c.png,,,,,,
,,,,31549,001,2025-10-19_12h18.07.706,HW_LDT_1,2024.2.4,MacIntel,30.03003003,,,,,,,,,,,,,,,,,,,,,232.0856,232.2836,232.2837,232.7836,,,,,,,,,,,,,,5.6242,0,,,,,,,,,,,,,,m,,,,,,,,,,,,,,,31,0,232.7843,238.4169,z,0,5.6242,,[],[],[],[],[],[],[],238.417,240.4169,240.417,240.4172,[],[],[],[],[],[],[],,240.4172,240.4173,0.03375,-0.407617187,0,0,0,,0,30,30,153,1,4,word,STOLEN,cursive,stolen_c.png,,,,,,
,,,,31549,001,2025-10-19_12h18.07.706,HW_LDT_1,2024.2.4,MacIntel,30.03003003,,,,,,,,,,,,,,,,,,,,,240.4189,240.617,240.6171,241.1169,,,,,,,,,,,,,,1.6032,0,,,,,,,,,,,,,,m,,,,,,,,,,,,,,,32,0,241.1176,242.7503,z,0,1.6032,,[],[],[],[],[],[],[],242.7504,244.7503,244.7503,244.7506,[],[],[],[],[],[],[],,244.7507,244.7508,0.03375,-0.407617187,0,0,0,,0,31,31,142,1,4,word,REMOTE,cursive,remote_c.png,,,,,,
,,,,31549,001,2025-10-19_12h18.07.706,HW_LDT_1,2024.2.4,MacIntel,30.03003003,,,,,,,,,,,,,,,,,,,,,244.7524,244.9503,244.9503,245.4503,,,,,,,,,,,,,,1.5413,1,,,,,,,,,,,,,,z,,,,,,,,,,,,,,,33,1,245.4509,247.0171,z,1,1.5413,,[],[],[],[],[],[],[],247.0171,249.017,249.017,250.6837,[],[],[],[],[],[],[],z,250.6839,250.684,0.03375,-0.407617187,0,0,0,,0,32,32,50,1,4,RL,vecelan,cursive,vecelan_c.png,1.6541,,,,,
,,,,31549,001,2025-10-19_12h18.07.706,HW_LDT_1,2024.2.4,MacIntel,30.03003003,,,,,,,,,,,,,,,,,,,,,250.6856,250.8836,250.8836,251.3836,,,,,,,,,,,,,,3.1019,1,,,,,,,,,,,,,,m,,,,,,,,,,,,,,,34,0,251.3842,254.5172,m,1,3.1019,,[],[],[],[],[],[],[],254.5172,256.5168,256.5168,256.517,[],[],[],[],[],[],[],,256.5171,256.5172,0.03375,-0.407617187,0,0,0,,0,33,33,133,1,4,word,PROVIDE,cursive,provide_c.png,,,,,,
,,,,31549,001,2025-10-19_12h18.07.706,HW_LDT_1,2024.2.4,MacIntel,30.03003003,,,,,,,,,,,,,,,,,,,,,256.5183,256.7169,256.717,257.2168,,,,,,,,,,,,,,3.1369,1,,,,,,,,,,,,,,m,,,,,,,,,,,,,,,35,0,257.2173,260.3838,m,1,3.1369,0.0046,[],[],[],[],[],[],[],260.3838,262.3828,262.3829,262.383,[],[],[],[],[],[],[],,262.3831,262.3831,0.03375,-0.407617187,0,0,0,,0,34,34,81,1,4,word,ADVISORY,cursive,advisory_c.png,,,,,,
,,,,31549,001,2025-10-19_12h18.07.706,HW_LDT_1,2024.2.4,MacIntel,30.03003003,,,,,,,,,,,,,,,,,,,,,262.3839,262.5836,262.5836,263.0836,,,,,,,,,,,,,,2.3709,1,,,,,,,,,,,,,,z,,,,,,,,,,,,,,,36,0,263.0842,265.4837,z,1,2.3709,,[],[],[],[],[],[],[],265.4837,267.4837,267.4837,267.484,[],[],[],[],[],[],[],,267.484,267.4842,0.03375,-0.407617187,0,0,0,,0,35,35,46,1,4,RL,skofen,cursive,skofen_c.png,,,,,,
,,,,31549,001,2025-10-19_12h18.07.706,HW_LDT_1,2024.2.4,MacIntel,30.03003003,,,,,,,,,,,,,,,,,,,,,267.4859,267.6837,267.6837,268.1826,,,,,,,,,,,,,,2.7371,1,,,,,,,,,,,,,,m,,,,,,,,,,,,,,,37,1,268.183,270.9503,m,1,2.7371,,[],[],[],[],[],[],[],270.9503,272.9496,272.9497,274.8837,[],[],[],[],[],[],[],z,274.8837,274.8839,0.03375,-0.407617187,0,0,0,,0,36,36,106,1,4,word,ELABORATE,cursive,elaborate_c.png,1.9244,,,,,
,,,,31549,001,2025-10-19_12h18.07.706,HW_LDT_1,2024.2.4,MacIntel,30.03003003,,,,,,,,,,,,,,,,,,,,,274.8852,275.0837,275.0837,275.5836,,,,,,,,,,,,,,2.8218,1,,,,,,,,,,,,,,z,,,,,,,,,,,,,,,38,0,275.5843,278.4163,z,1,2.8218,,[],[],[],[],[],[],[],278.4163,280.4169,280.4169,280.4171,[],[],[],[],[],[],[],,280.4172,280.4173,0.03375,-0.407617187,0,0,0,,0,37,37,79,1,4,TL,tritube,print,tritube_p.png,,,,,,
,,,,31549,001,2025-10-19_12h18.07.706,HW_LDT_1,2024.2.4,MacIntel,30.03003003,,,,,,,,,,,,,,,,,,,,,280.4185,280.6159,280.616,281.1169,,,,,,,,,,,,,,2.2972,1,,,,,,,,,,,,,,z,,,,,,,,,,,,,,,39,0,281.1173,283.417,z,1,2.2972,,[],[],[],[],[],[],[],283.417,285.4171,285.4171,285.4174,[],[],[],[],[],[],[],,285.4174,285.4176,0.03375,-0.407617187,0,0,0,,0,38,38,5,1,4,RL,bebine,print,bebine_p.png,,,,,,
,,,,31549,001,2025-10-19_12h18.07.706,HW_LDT_1,2024.2.4,MacIntel,30.03003003,,,,,,,,,,,,,,,,,,,,,285.4191,285.6169,285.617,286.1169,,,,,,,,,,,,,,1.3798,1,,,,,,,,,,,,,,m,,,,,,,,,,,,,,,40,0,286.1173,287.517,m,1,1.3798,,[],[],[],[],[],[],[],287.5171,289.5169,289.5169,289.5171,[],[],[],[],[],[],[],,289.5171,289.5173,0.03375,-0.407617187,0,0,0,,0,39,39,110,1,4,word,HERITAGE,print,heritage_p.png,,,,,,
,,,,31549,001,2025-10-19_12h18.07.706,HW_LDT_1,2024.2.4,MacIntel,30.03003003,,,,,,,,,,,,,,,,,,,,,289.5183,289.717,289.7171,290.217,,,,,,,,,,,,,,2.2582,1,,,,,,,,,,,,,,z,,,,,,,,,,,,,,,41,1,290.2175,292.4838,z,1,2.2582,,[],[],[],[],[],[],[],292.4838,294.4836,294.4837,296.0502,[],[],[],[],[],[],[],m,296.0503,296.0505,0.03375,-0.407617187,0,0,0,,0,40,40,42,1,4,RL,revune,print,revune_p.png,1.537,,,,,
,,,,31549,001,2025-10-19_12h18.07.706,HW_LDT_1,2024.2.4,MacIntel,30.03003003,,,,,,,,,,,,,,,,,,,,,296.0515,296.2503,296.2503,296.7504,,,,,,,,,,,,,,1.6173,1,,,,,,,,,,,,,,z,,,,,,,,,,,,,,,42,0,296.7508,298.384,z,1,1.6173,,[],[],[],[],[],[],[],298.384,300.3837,300.3838,300.384,[],[],[],[],[],[],[],,300.384,300.3842,0.03375,-0.407617187,0,0,0,,0,41,41,65,1,4,TL,orepator,print,orepator_p.png,,,,,,
,,,,31549,001,2025-10-19_12h18.07.706,HW_LDT_1,2024.2.4,MacIntel,30.03003003,,,,,,,,,,,,,,,,,,,,,300.3857,300.5836,300.5837,301.0837,,,,,,,,,,,,,,1.7692,1,,,,,,,,,,,,,,m,,,,,,,,,,,,,,,43,0,301.0842,302.8838,m,1,1.7692,,[],[],[],[],[],[],[],302.8839,304.8837,304.8838,304.884,[],[],[],[],[],[],[],,304.8841,304.8841,0.03375,-0.407617187,0,0,0,,0,42,42,126,1,4,word,OPTIMAL,print,optimal_p.png,,,,,,
,,,,31549,001,2025-10-19_12h18.07.706,HW_LDT_1,2024.2.4,MacIntel,30.03003003,,,,,,,,,,,,,,,,,,,,,304.8855,305.0839,305.084,305.5837,,,,,,,,,,,,,,0.9024,1,,,,,,,,,,,,,,m,,,,,,,,,,,,,,,44,0,305.5843,306.5167,m,1,0.9024,,[],[],[],[],[],[],[],306.5168,308.5172,308.5172,308.5176,[],[],[],[],[],[],[],,308.5176,308.5177,0.03375,-0.407617187,0,0,0,,0,43,43,120,1,4,word,MILITARY,print,military_p.png,,,,,,
,,,,31549,001,2025-10-19_12h18.07.706,HW_LDT_1,2024.2.4,MacIntel,30.03003003,,,,,,,,,,,,,,,,,,,,,308.5192,308.717,308.717,309.2165,,,,,,,,,,,,,,0.733,1,,,,,,,,,,,,,,m,,,,,,,,,,,,,,,45,0,309.2169,309.9506,m,1,0.733,,[],[],[],[],[],[],[],309.9507,311.9503,311.9503,311.9505,[],[],[],[],[],[],[],,311.9506,311.9506,0.03375,-0.407617187,0,0,0,,0,44,44,122,1,4,word,MOBILE,print,mobile_p.png,,,,,,
,,,,31549,001,2025-10-19_12h18.07.706,HW_LDT_1,2024.2.4,MacIntel,30.03003003,,,,,,,,,,,,,,,,,,,,,311.9519,312.1503,312.1504,312.6504,,,,,,,,,,,,,,0.6709,0,,,,,,,,,,,,,,z,,,,,,,,,,,,,,,46,0,312.651,313.3504,m,0,0.6709,,[],[],[],[],[],[],[],313.3504,315.3503,315.3503,315.3504,[],[],[],[],[],[],[],,315.3505,315.3507,0.03375,-0.407617187,0,0,0,,0,45,45,70,1,4,TL,quatily,print,quatily_p.png,,,,,,
,,,,31549,001,2025-10-19_12h18.07.706,HW_LDT_1,2024.2.4,MacIntel,30.03003003,,,,,,,,,,,,,,,,,,,,,315.3521,315.5504,315.5505,316.0506,,,,,,,,,,,,,,1.435,1,,,,,,,,,,,,,,m,,,,,,,,,,,,,,,47,0,316.0511,317.517,m,1,1.435,,[],[],[],[],[],[],[],317.5172,319.517,319.5171,319.5173,[],[],[],[],[],[],[],,319.5174,319.5175,0.03375,-0.407617187,0,0,0,,0,46,46,152,1,4,word,SPECIMEN,cursive,specimen_c.png,,,,,,
,,,,31549,001,2025-10-19_12h18.07.706,HW_LDT_1,2024.2.4,MacIntel,30.03003003,,,,,,,,,,,,,,,,,,,,,319.519,319.7171,319.7171,320.217,,,,,,,,,,,,,,1.7362,1,,,,,,,,,,,,,,z,,,,,,,,,,,,,,,48,0,320.2176,321.9837,z,1,1.7362,,[],[],[],[],[],[],[],321.9838,323.9837,323.9838,323.984,[],[],[],[],[],[],[],,323.984,323.9841,0.03375,-0.407617187,0,0,0,,0,47,47,28,1,4,RL,mifikary,print,mifikary_p.png,,,,,,
,,,,31549,001,2025-10-19_12h18.07.706,HW_LDT_1,2024.2.4,MacIntel,30.03003003,,,,,,,,,,,,,,,,,,,,,323.9856,324.1828,324.1829,324.6834,,,,,,,,,,,,,,2.3037,1,,,,,,,,,,,,,,z,,,,,,,,,,,,,,,49,0,324.6837,327.017,z,1,2.3037,,[],[],[],[],[],[],[],327.0171,329.0171,329.0171,329.0174,[],[],[],[],[],[],[],,329.0174,329.0175,0.03375,-0.407617187,0,0,0,,0,48,48,38,1,4,RL,refakive,print,refakive_p.png,,,,,,
,,,,31549,001,2025-10-19_12h18.07.706,HW_LDT_1,2024.2.4,MacIntel,30.03003003,,,,,,,,,,,,,,,,,,,,,329.019,329.2171,329.2171,329.717,,,,,,,,,,,,,,1.8362,1,,,,,,,,,,,,,,m,,,,,,,,,,,,,,,50,0,329.7175,331.5838,m,1,1.8362,,[],[],[],[],[],[],[],331.5838,333.5831,333.5832,333.5833,[],[],[],[],[],[],[],,333.5833,333.5833,0.03375,-0.407617187,0,0,0,,0,49,49,123,1,4,word,MODERATE,print,moderate_p.png,,,,,,
,,,,31549,001,2025-10-19_12h18.07.706,HW_LDT_1,2024.2.4,MacIntel,30.03003003,,,,,,,,,,,,,,,,,,,,,333.5844,333.7838,333.7839,334.2831,,,,,,,,,,,,,,1.8367,1,,,,,,,,,,,,,,z,,,,,,,,,,,,,,,51,0,334.2836,336.1507,z,1,1.8367,,[],[],[],[],[],[],[],336.1508,338.1505,338.1506,338.1508,[],[],[],[],[],[],[],,338.1509,338.151,0.03375,-0.407617187,0,0,0,,0,50,50,2,1,4,RL,asiral,cursive,asiral_c.png,,,,,,
,,,,31549,001,2025-10-19_12h18.07.706,HW_LDT_1,2024.2.4,MacIntel,30.03003003,,,,,,,,,,,,,,,,,,,,,338.1525,338.3504,338.3504,338.8504,,,,,,,,,,,,,,2.1176,1,,,,,,,,,,,,,,z,,,,,,,,,,,,,,,52,1,338.8509,340.9837,z,1,2.1176,,[],[],[],[],[],[],[],340.9837,342.9838,342.9838,346.9172,[],[],[],[],[],[],[],z,346.9172,346.9173,0.03375,-0.407617187,0,0,0,,0,51,51,41,1,4,RL,rebicent,cursive,rebicent_c.png,3.9234,,,,,
,,,,31549,001,2025-10-19_12h18.07.706,HW_LDT_1,2024.2.4,MacIntel,30.03003003,,,,,,,,,,,,,,,,,,,,,346.9187,347.1172,347.1173,347.617,,,,,,,,,,,,,,2.7077,1,,,,,,,,,,,,,,m,,,,,,,,,,,,,,,53,0,347.6176,350.3496,m,1,2.7077,,[],[],[],[],[],[],[],350.3496,352.3505,352.3506,352.3509,[],[],[],[],[],[],[],,352.3509,352.351,0.03375,-0.407617187,0,0,0,,0,52,52,124,1,4,word,NUMERICAL,cursive,numerical_c.png,,,,,,
,,,,31549,001,2025-10-19_12h18.07.706,HW_LDT_1,2024.2.4,MacIntel,30.03003003,,,,,,,,,,,,,,,,,,,,,352.3523,352.5505,352.5505,353.0505,,,,,,,,,,,,,,1.2241,1,,,,,,,,,,,,,,z,,,,,,,,,,,,,,,54,0,353.051,354.2837,z,1,1.2241,,[],[],[],[],[],[],[],354.2838,356.2837,356.2838,356.284,[],[],[],[],[],[],[],,356.284,356.2841,0.03375,-0.407617187,0,0,0,,0,53,53,1,1,4,RL,afaneur,cursive,afaneur_c.png,,,,,,
,,,,31549,001,2025-10-19_12h18.07.706,HW_LDT_1,2024.2.4,MacIntel,30.03003003,,,,,,,,,,,,,,,,,,,,,356.2855,356.4839,356.484,356.9839,,,,,,,,,,,,,,2.0248,1,,,,,,,,,,,,,,m,,,,,,,,,,,,,,,55,0,356.9846,359.0173,m,1,2.0248,,[],[],[],[],[],[],[],359.0173,361.0172,361.0173,361.0175,[],[],[],[],[],[],[],,361.0175,361.0176,0.03375,-0.407617187,0,0,0,,0,54,54,105,1,4,word,EDITOR,print,editor_p.png,,,,,,
,,,,31549,001,2025-10-19_12h18.07.706,HW_LDT_1,2024.2.4,MacIntel,30.03003003,,,,,,,,,,,,,,,,,,,,,361.0191,361.2171,361.2172,361.7172,,,,,,,,,,,,,,0.7355,1,,,,,,,,,,,,,,m,,,,,,,,,,,,,,,56,1,361.7178,362.4838,m,1,0.7355,,[],[],[],[],[],[],[],362.4838,364.4838,364.4839,365.6175,[],[],[],[],[],[],[],m,365.6175,365.6177,0.03375,-0.407617187,0,0,0,,0,55,55,143,1,4,word,REMOVAL,print,removal_p.png,1.1036,,,,,
,,,,31549,001,2025-10-19_12h18.07.706,HW_LDT_1,2024.2.4,MacIntel,30.03003003,,,,,,,,,,,,,,,,,,,,,365.6194,365.8172,365.8173,366.3171,,,,,,,,,,,,,,1.5702,0,,,,,,,,,,,,,,z,,,,,,,,,,,,,,,57,0,366.3175,367.9162,m,0,1.5702,,[],[],[],[],[],[],[],367.9163,369.9171,369.9171,369.9172,[],[],[],[],[],[],[],,369.9172,369.9174,0.03375,-0.407617187,0,0,0,,0,56,56,37,1,4,RL,renutal,cursive,renutal_c.png,,,,,,
,,,,31549,001,2025-10-19_12h18.07.706,HW_LDT_1,2024.2.4,MacIntel,30.03003003,,,,,,,,,,,,,,,,,,,,,369.9189,370.1173,370.1173,370.6173,,,,,,,,,,,,,,0.7082,1,,,,,,,,,,,,,,m,,,,,,,,,,,,,,,58,0,370.6179,371.3506,m,1,0.7082,,[],[],[],[],[],[],[],371.3507,373.3504,373.3504,373.3506,[],[],[],[],[],[],[],,373.3506,373.3506,0.03375,-0.407617187,0,0,0,,0,57,57,119,1,4,word,MEMORY,print,memory_p.png,,,,,,
,,,,31549,001,2025-10-19_12h18.07.706,HW_LDT_1,2024.2.4,MacIntel,30.03003003,,,,,,,,,,,,,,,,,,,,,373.3516,373.5506,373.5506,374.0504,,,,,,,,,,,,,,1.4366,0,,,,,,,,,,,,,,m,,,,,,,,,,,,,,,59,0,374.0508,375.5171,z,0,1.4366,,[],[],[],[],[],[],[],375.5173,377.5171,377.5172,377.5174,[],[],[],[],[],[],[],,377.5174,377.5174,0.03375,-0.407617187,0,0,0,,0,58,58,116,1,4,word,MARGINAL,cursive,marginal_c.png,,,,,,
,,,,31549,001,2025-10-19_12h18.07.706,HW_LDT_1,2024.2.4,MacIntel,30.03003003,,,,,,,,,,,,,,,,,,,,,377.5191,377.717,377.7171,378.2174,,,,,,,,,,,,,,2.3029,1,,,,,,,,,,,,,,z,,,,,,,,,,,,,,,60,0,378.2179,380.5506,z,1,2.3029,,[],[],[],[],[],[],[],380.5506,382.5505,382.5506,382.5508,[],[],[],[],[],[],[],,382.5508,382.5509,0.03375,-0.407617187,0,0,0,,0,59,59,31,1,4,RL,orimipal,print,orimipal_p.png,,,,,,
,,,,31549,001,2025-10-19_12h18.07.706,HW_LDT_1,2024.2.4,MacIntel,30.03003003,,,,,,,,,,,,,,,,,,,,,382.5525,382.7502,382.7502,383.2505,,,,,,,,,,,,,,2.3198,0,,,,,,,,,,,,,,z,,,,,,,,,,,,,,,61,0,383.2511,385.5839,m,0,2.3198,,[],[],[],[],[],[],[],385.5841,387.5839,387.5839,387.5841,[],[],[],[],[],[],[],,387.5841,387.5842,0.03375,-0.407617187,0,0,0,,0,60,60,22,1,4,RL,linedal,cursive,linedal_c.png,,,,,,
,,,,31549,001,2025-10-19_12h18.07.706,HW_LDT_1,2024.2.4,MacIntel,30.03003003,,,,,,,,,,,,,,,,,,,,,387.5855,387.7836,387.7836,388.2839,,,,,,,,,,,,,,3.8916,1,,,,,,,,,,,,,,m,,,,,,,,,,,,,,,62,1,388.2845,392.1839,m,1,3.8916,,[],[],[],[],[],[],[],392.1839,394.1839,394.1839,395.6505,[],[],[],[],[],[],[],m,395.6506,395.6506,0.03375,-0.407617187,0,0,0,,0,61,61,103,1,4,word,DISPUTE,print,dispute_p.png,1.4544,,,,,
,,,,31549,001,2025-10-19_12h18.07.706,HW_LDT_1,2024.2.4,MacIntel,30.03003003,,,,,,,,,,,,,,,,,,,,,395.6515,395.8506,395.8506,396.3506,,,,,,,,,,,,,,2.4025,0,,,,,,,,,,,,,,z,,,,,,,,,,,,,,,63,1,396.3511,398.7839,m,0,2.4025,,[],[],[],[],[],[],[],398.784,400.7838,400.7839,402.1839,[],[],[],[],[],[],[],z,402.184,402.1841,0.03375,-0.407617187,0,0,0,,0,62,62,39,1,4,RL,relone,cursive,relone_c.png,1.3704,,,,,
,,,,31549,001,2025-10-19_12h18.07.706,HW_LDT_1,2024.2.4,MacIntel,30.03003003,,,,,,,,,,,,,,,,,,,,,402.1857,402.3838,402.3838,402.8839,,,,,,,,,,,,,,1.1052,1,,,,,,,,,,,,,,m,,,,,,,,,,,,,,,64,0,402.8844,404.0171,m,1,1.1052,,[],[],[],[],[],[],[],404.0172,406.0164,406.0164,406.0167,[],[],[],[],[],[],[],,406.0168,406.0168,0.03375,-0.407617187,0,0,0,,0,63,63,131,1,4,word,POPULAR,print,popular_p.png,,,,,,
,,,,31549,001,2025-10-19_12h18.07.706,HW_LDT_1,2024.2.4,MacIntel,30.03003003,,,,,,,,,,,,,,,,,,,,,406.0177,406.2173,406.2174,406.7174,,,,,,,,,,,,,,1.636,1,,,,,,,,,,,,,,m,,,,,,,,,,,,,,,65,0,406.7179,408.383,m,1,1.636,,[],[],[],[],[],[],[],408.3831,410.3834,410.3834,410.3836,[],[],[],[],[],[],[],,410.3837,410.3837,0.03375,-0.407617187,0,0,0,,0,64,64,130,1,4,word,POLICY,cursive,policy_c.png,,,,,,
,,,,31549,001,2025-10-19_12h18.07.706,HW_LDT_1,2024.2.4,MacIntel,30.03003003,,,,,,,,,,,,,,,,,,,,,410.3851,410.5838,410.5839,411.0839,,,,,,,,,,,,,,2.4696,1,,,,,,,,,,,,,,z,,,,,,,,,,,,,,,66,0,411.0845,413.5839,z,1,2.4696,,[],[],[],[],[],[],[],413.584,415.584,415.584,415.5842,[],[],[],[],[],[],[],,415.5842,415.5843,0.03375,-0.407617187,0,0,0,,0,65,65,69,1,4,TL,quafily,print,quafily_p.png,,,,,,
,,,,31549,001,2025-10-19_12h18.07.706,HW_LDT_1,2024.2.4,MacIntel,30.03003003,,,,,,,,,,,,,,,,,,,,,415.5859,415.784,415.784,416.284,,,,,,,,,,,,,,1.8986,1,,,,,,,,,,,,,,z,,,,,,,,,,,,,,,67,0,416.2846,418.1843,z,1,1.8986,,[],[],[],[],[],[],[],418.1844,420.184,420.184,420.1842,[],[],[],[],[],[],[],,420.1842,420.1843,0.03375,-0.407617187,0,0,0,,0,66,66,47,1,4,RL,stopave,print,stopave_p.png,,,,,,
,,,,31549,001,2025-10-19_12h18.07.706,HW_LDT_1,2024.2.4,MacIntel,30.03003003,,,,,,,,,,,,,,,,,,,,,420.1858,420.3839,420.3839,420.8839,,,,,,,,,,,,,,4.7208,1,,,,,,,,,,,,,,z,,,,,,,,,,,,,,,68,0,420.8844,425.6166,z,1,4.7208,,[],[],[],[],[],[],[],425.6167,427.6173,427.6173,427.6175,[],[],[],[],[],[],[],,427.6175,427.6177,0.03375,-0.407617187,0,0,0,,0,67,67,4,1,4,RL,betemit,cursive,betemit_c.png,,,,,,
,,,,31549,001,2025-10-19_12h18.07.706,HW_LDT_1,2024.2.4,MacIntel,30.03003003,,,,,,,,,,,,,,,,,,,,,427.6192,427.8174,427.8174,428.3175,,,,,,,,,,,,,,2.1459,1,,,,,,,,,,,,,,z,,,,,,,,,,,,,,,69,1,428.3181,430.4841,z,1,2.1459,,[],[],[],[],[],[],[],430.4842,432.484,432.484,434.2507,[],[],[],[],[],[],[],z,434.2508,434.2509,0.03375,-0.407617187,0,0,0,,0,68,68,7,1,4,RL,casena,print,casena_p.png,1.7564,,,,,
,,,,31549,001,2025-10-19_12h18.07.706,HW_LDT_1,2024.2.4,MacIntel,30.03003003,,,,,,,,,,,,,,,,,,,,,434.252,434.4506,434.4506,434.9506,,,,,,,,,,,,,,1.1026,0,,,,,,,,,,,,,,z,,,,,,,,,,,,,,,70,0,434.9512,436.084,m,0,1.1026,,[],[],[],[],[],[],[],436.0841,438.084,438.084,438.0842,[],[],[],[],[],[],[],,438.0842,438.0843,0.03375,-0.407617187,0,0,0,,0,69,69,48,1,4,RL,vabifity,print,vabifity_p.png,,,,,,
,,,,31549,001,2025-10-19_12h18.07.706,HW_LDT_1,2024.2.4,MacIntel,30.03003003,,,,,,,,,,,,,,,,,,,,,438.0856,438.284,438.2841,438.7839,,,,,,,,,,,,,,2.7026,1,,,,,,,,,,,,,,m,,,,,,,,,,,,,,,71,0,438.7844,441.5173,m,1,2.7026,,[],[],[],[],[],[],[],441.5174,443.5173,443.5174,443.5176,[],[],[],[],[],[],[],,443.5176,443.5178,0.03375,-0.407617187,0,0,0,,0,70,70,158,1,4,word,VELOCITY,cursive,velocity_c.png,,,,,,
,,,,31549,001,2025-10-19_12h18.07.706,HW_LDT_1,2024.2.4,MacIntel,30.03003003,,,,,,,,,,,,,,,,,,,,,443.5192,443.7172,443.7172,444.2173,,,,,,,,,,,,,,0.7105,1,,,,,,,,,,,,,,m,,,,,,,,,,,,,,,72,0,444.2178,444.9499,m,1,0.7105,,[],[],[],[],[],[],[],444.95,446.9508,446.9508,446.9511,[],[],[],[],[],[],[],,446.9511,446.9512,0.03375,-0.407617187,0,0,0,,0,71,71,140,1,4,word,RELATIVE,print,relative_p.png,,,,,,
,,,,31549,001,2025-10-19_12h18.07.706,HW_LDT_1,2024.2.4,MacIntel,30.03003003,,,,,,,,,,,,,,,,,,,,,446.9527,447.1504,447.1504,447.6507,,,,,,,,,,,,,,1.1692,0,,,,,,,,,,,,,,m,,,,,,,,,,,,,,,73,1,447.6511,448.8508,z,0,1.1692,,[],[],[],[],[],[],[],448.8509,450.8497,450.8498,451.784,[],[],[],[],[],[],[],z,451.7842,451.7842,0.03375,-0.407617187,0,0,0,,0,72,72,139,1,4,word,REGULAR,cursive,regular_c.png,0.9235,,,,,
,,,,31549,001,2025-10-19_12h18.07.706,HW_LDT_1,2024.2.4,MacIntel,30.03003003,,,,,,,,,,,,,,,,,,,,,451.7855,451.9841,451.9841,452.4841,,,,,,,,,,,,,,2.015,1,,,,,,,,,,,,,,z,,,,,,,,,,,,,,,74,0,452.4849,454.5174,z,1,2.015,,[],[],[],[],[],[],[],454.5174,456.5174,456.5174,456.5176,[],[],[],[],[],[],[],,456.5176,456.5177,0.03375,-0.407617187,0,0,0,,0,73,73,17,1,4,RL,denficy,cursive,denficy_c.png,,,,,,
,,,,31549,001,2025-10-19_12h18.07.706,HW_LDT_1,2024.2.4,MacIntel,30.03003003,,,,,,,,,,,,,,,,,,,,,456.5191,456.7176,456.7177,457.2176,,,,,,,,,,,,,,2.8568,1,,,,,,,,,,,,,,z,,,,,,,,,,,,,,,75,0,457.2183,460.0835,z,1,2.8568,,[],[],[],[],[],[],[],460.0837,462.084,462.0841,462.0842,[],[],[],[],[],[],[],,462.0842,462.0843,0.03375,-0.407617187,0,0,0,,0,74,74,23,1,4,RL,linefal,cursive,linefal_c.png,,,,,,
,,,,31549,001,2025-10-19_12h18.07.706,HW_LDT_1,2024.2.4,MacIntel,30.03003003,,,,,,,,,,,,,,,,,,,,,462.0858,462.2841,462.2841,462.7841,,,,,,,,,,,,,,2.2841,1,,,,,,,,,,,,,,m,,,,,,,,,,,,,,,76,0,462.7846,465.0843,m,1,2.2841,,[],[],[],[],[],[],[],465.0844,467.084,467.0841,467.0842,[],[],[],[],[],[],[],,467.0843,467.0844,0.03375,-0.407617187,0,0,0,,0,75,75,118,1,4,word,MEDICINE,cursive,medicine_c.png,,,,,,
,,,,31549,001,2025-10-19_12h18.07.706,HW_LDT_1,2024.2.4,MacIntel,30.03003003,,,,,,,,,,,,,,,,,,,,,467.086,467.2839,467.284,467.7841,,,,,,,,,,,,,,4.1027,1,,,,,,,,,,,,,,m,,,,,,,,,,,,,,,77,0,467.7847,471.9175,m,1,4.1027,,[],[],[],[],[],[],[],471.9176,473.9172,473.9172,473.9173,[],[],[],[],[],[],[],,473.9173,473.9174,0.03375,-0.407617187,0,0,0,,0,76,76,125,1,4,word,OPERATOR,print,operator_p.png,,,,,,
,,,,31549,001,2025-10-19_12h18.07.706,HW_LDT_1,2024.2.4,MacIntel,30.03003003,,,,,,,,,,,,,,,,,,,,,473.918,474.1173,474.1173,474.6172,,,,,,,,,,,,,,1.7091,1,,,,,,,,,,,,,,m,,,,,,,,,,,,,,,78,0,474.6176,476.3507,m,1,1.7091,,[],[],[],[],[],[],[],476.3508,478.3508,478.3508,478.351,[],[],[],[],[],[],[],,478.3511,478.3512,0.03375,-0.407617187,0,0,0,,0,77,77,137,1,4,word,RAPIDLY,cursive,rapidly_c.png,,,,,,
,,,,31549,001,2025-10-19_12h18.07.706,HW_LDT_1,2024.2.4,MacIntel,30.03003003,,,,,,,,,,,,,,,,,,,,,478.3527,478.5509,478.5509,479.0511,,,,,,,,,,,,,,1.0029,1,,,,,,,,,,,,,,m,,,,,,,,,,,,,,,79,1,479.0517,480.0844,m,1,1.0029,,[],[],[],[],[],[],[],480.0845,482.0842,482.0843,483.7175,[],[],[],[],[],[],[],m,483.7175,483.7176,0.03375,-0.407617187,0,0,0,,0,78,78,109,1,4,word,GRATEFUL,print,grateful_p.png,1.6308,,,,,
,,,,31549,001,2025-10-19_12h18.07.706,HW_LDT_1,2024.2.4,MacIntel,30.03003003,,,,,,,,,,,,,,,,,,,,,483.7187,483.9177,483.9177,484.4175,,,,,,,,,,,,,,2.5836,1,,,,,,,,,,,,,,m,,,,,,,,,,,,,,,80,0,484.4181,487.0175,m,1,2.5836,,[],[],[],[],[],[],[],487.0177,489.0175,489.0176,489.0177,[],[],[],[],[],[],[],,489.0178,491.2182,0.03375,-0.407617187,0,0,0,space,0,79,79,159,1,4,word,VETERAN,cursive,veteran_c.png,,,2.1552,,,
,,,,31549,001,2025-10-19_12h18.07.706,HW_LDT_1,2024.2.4,MacIntel,30.03003003,,,,,,,,,,,,,,,,,,,,,491.2197,491.4168,491.4169,491.9165,,,,,,,,,,,,,,2.271,1,,,,,,,,,,,,,,m,,,,,,,,,,,,,,,81,0,491.917,494.2174,m,1,2.271,,[],[],[],[],[],[],[],494.2176,496.2176,496.2177,496.2179,[],[],[],[],[],[],[],,496.218,496.2181,0.03375,-0.407617187,0,0,0,,0,80,80,91,1,4,word,CARDINAL,cursive,cardinal_c.png,,,,,,
,,,,31549,001,2025-10-19_12h18.07.706,HW_LDT_1,2024.2.4,MacIntel,30.03003003,,,,,,,,,,,,,,,,,,,,,496.2196,496.4169,496.4169,496.9176,,,,,,,,,,,,,,2.4501,1,,,,,,,,,,,,,,z,,,,,,,,,,,,,,,82,0,496.9183,499.3836,z,1,2.4501,,[],[],[],[],[],[],[],499.3837,501.3844,501.3844,501.3847,[],[],[],[],[],[],[],,501.3848,501.3848,0.03375,-0.407617187,0,0,0,,0,81,81,33,1,4,RL,pamest,cursive,pamest_c.png,,,,,,
,,,,31549,001,2025-10-19_12h18.07.706,HW_LDT_1,2024.2.4,MacIntel,30.03003003,,,,,,,,,,,,,,,,,,,,,501.3864,501.5842,501.5842,502.0831,,,,,,,,,,,,,,1.3044,0,,,,,,,,,,,,,,z,,,,,,,,,,,,,,,83,0,502.0838,503.4172,m,0,1.3044,,[],[],[],[],[],[],[],503.4172,505.4176,505.4176,505.4179,[],[],[],[],[],[],[],,505.418,505.418,0.03375,-0.407617187,0,0,0,,0,82,82,77,1,4,TL,spemicen,cursive,spemicen_c.png,,,,,,
,,,,31549,001,2025-10-19_12h18.07.706,HW_LDT_1,2024.2.4,MacIntel,30.03003003,,,,,,,,,,,,,,,,,,,,,505.4196,505.6173,505.6174,506.1173,,,,,,,,,,,,,,1.7203,1,,,,,,,,,,,,,,m,,,,,,,,,,,,,,,84,0,506.1178,507.8508,m,1,1.7203,,[],[],[],[],[],[],[],507.8508,509.8509,509.851,509.8512,[],[],[],[],[],[],[],,509.8512,509.8513,0.03375,-0.407617187,0,0,0,,0,83,83,97,1,4,word,COVERAGE,cursive,coverage_c.png,,,,,,
,,,,31549,001,2025-10-19_12h18.07.706,HW_LDT_1,2024.2.4,MacIntel,30.03003003,,,,,,,,,,,,,,,,,,,,,509.8525,510.0508,510.0508,510.5508,,,,,,,,,,,,,,1.1777,1,,,,,,,,,,,,,,m,,,,,,,,,,,,,,,85,0,510.5515,511.7497,m,1,1.1777,,[],[],[],[],[],[],[],511.7499,513.7508,513.7508,513.751,[],[],[],[],[],[],[],,513.7511,513.7512,0.03375,-0.407617187,0,0,0,,0,84,84,157,1,4,word,VALIDITY,print,validity_p.png,,,,,,
,,,,31549,001,2025-10-19_12h18.07.706,HW_LDT_1,2024.2.4,MacIntel,30.03003003,,,,,,,,,,,,,,,,,,,,,513.7525,513.951,513.9511,514.451,,,,,,,,,,,,,,0.83,1,,,,,,,,,,,,,,m,,,,,,,,,,,,,,,86,0,514.4517,515.2841,m,1,0.83,,[],[],[],[],[],[],[],515.2843,517.2842,517.2843,517.2845,[],[],[],[],[],[],[],,517.2845,517.2846,0.03375,-0.407617187,0,0,0,,0,85,85,86,1,4,word,BESIDE,print,beside_p.png,,,,,,
,,,,31549,001,2025-10-19_12h18.07.706,HW_LDT_1,2024.2.4,MacIntel,30.03003003,,,,,,,,,,,,,,,,,,,,,517.2861,517.4843,517.4843,517.9842,,,,,,,,,,,,,,0.7029,0,,,,,,,,,,,,,,z,,,,,,,,,,,,,,,87,1,517.9848,518.7178,m,0,0.7029,,[],[],[],[],[],[],[],518.7179,520.7167,520.7168,521.7176,[],[],[],[],[],[],[],m,521.7177,521.7178,0.03375,-0.407617187,0,0,0,,0,86,86,66,1,4,TL,opmital,print,opmital_p.png,0.9881,,,,,
,,,,31549,001,2025-10-19_12h18.07.706,HW_LDT_1,2024.2.4,MacIntel,30.03003003,,,,,,,,,,,,,,,,,,,,,521.7189,521.9175,521.9175,522.4174,,,,,,,,,,,,,,1.9026,1,,,,,,,,,,,,,,z,,,,,,,,,,,,,,,88,0,522.4178,524.3499,z,1,1.9026,,[],[],[],[],[],[],[],524.35,526.3509,526.3509,526.3511,[],[],[],[],[],[],[],,526.3512,526.3513,0.03375,-0.407617187,0,0,0,,0,87,87,25,1,4,RL,macise,print,macise_p.png,,,,,,
,,,,31549,001,2025-10-19_12h18.07.706,HW_LDT_1,2024.2.4,MacIntel,30.03003003,,,,,,,,,,,,,,,,,,,,,526.3527,526.551,526.551,527.0508,,,,,,,,,,,,,,0.9021,1,,,,,,,,,,,,,,m,,,,,,,,,,,,,,,89,0,527.0513,527.9843,m,1,0.9021,,[],[],[],[],[],[],[],527.9843,529.9841,529.9842,529.9843,[],[],[],[],[],[],[],,529.9844,529.9845,0.03375,-0.407617187,0,0,0,,0,88,88,112,1,4,word,LIBERAL,cursive,liberal_c.png,,,,,,
,,,,31549,001,2025-10-19_12h18.07.706,HW_LDT_1,2024.2.4,MacIntel,30.03003003,,,,,,,,,,,,,,,,,,,,,529.9858,530.1842,530.1842,530.6843,,,,,,,,,,,,,,1.3166,1,,,,,,,,,,,,,,z,,,,,,,,,,,,,,,90,0,530.6848,532.0177,z,1,1.3166,,[],[],[],[],[],[],[],532.0178,534.0175,534.0175,534.0177,[],[],[],[],[],[],[],,534.0177,534.0178,0.03375,-0.407617187,0,0,0,,0,89,89,6,1,4,RL,caleberia,cursive,caleberia_c.png,,,,,,
,,,,31549,001,2025-10-19_12h18.07.706,HW_LDT_1,2024.2.4,MacIntel,30.03003003,,,,,,,,,,,,,,,,,,,,,534.0193,534.2175,534.2175,534.7174,,,,,,,,,,,,,,0.8869,1,,,,,,,,,,,,,,m,,,,,,,,,,,,,,,91,0,534.7179,535.6176,m,1,0.8869,,[],[],[],[],[],[],[],535.6178,537.6167,537.6167,537.6168,[],[],[],[],[],[],[],,537.6169,537.617,0.03375,-0.407617187,0,0,0,,0,90,90,127,1,4,word,ORIGINAL,print,original_p.png,,,,,,
,,,,31549,001,2025-10-19_12h18.07.706,HW_LDT_1,2024.2.4,MacIntel,30.03003003,,,,,,,,,,,,,,,,,,,,,537.6181,537.8165,537.8165,538.3176,,,,,,,,,,,,,,1.4523,1,,,,,,,,,,,,,,m,,,,,,,,,,,,,,,92,0,538.3183,539.7844,m,1,1.4523,,[],[],[],[],[],[],[],539.7844,541.7842,541.7843,541.7844,[],[],[],[],[],[],[],,541.7845,541.7847,0.03375,-0.407617187,0,0,0,,0,91,91,95,1,4,word,COMEDY,print,comedy_p.png,,,,,,
,,,,31549,001,2025-10-19_12h18.07.706,HW_LDT_1,2024.2.4,MacIntel,30.03003003,,,,,,,,,,,,,,,,,,,,,541.786,541.9842,541.9843,542.4842,,,,,,,,,,,,,,1.0028,1,,,,,,,,,,,,,,m,,,,,,,,,,,,,,,93,0,542.485,543.5176,m,1,1.0028,,[],[],[],[],[],[],[],543.5177,545.5177,545.5178,545.518,[],[],[],[],[],[],[],,545.518,545.5181,0.03375,-0.407617187,0,0,0,,0,92,92,90,1,4,word,CAPITAL,print,capital_p.png,,,,,,
,,,,31549,001,2025-10-19_12h18.07.706,HW_LDT_1,2024.2.4,MacIntel,30.03003003,,,,,,,,,,,,,,,,,,,,,545.5195,545.7177,545.7178,546.2177,,,,,,,,,,,,,,1.7194,1,,,,,,,,,,,,,,z,,,,,,,,,,,,,,,94,0,546.2183,547.9504,z,1,1.7194,,[],[],[],[],[],[],[],547.9504,549.9509,549.9509,549.9511,[],[],[],[],[],[],[],,549.9512,549.9513,0.03375,-0.407617187,0,0,0,,0,93,93,44,1,4,RL,senvilent,print,senvilent_p.png,,,,,,
,,,,31549,001,2025-10-19_12h18.07.706,HW_LDT_1,2024.2.4,MacIntel,30.03003003,,,,,,,,,,,,,,,,,,,,,549.9528,550.1508,550.1508,550.651,,,,,,,,,,,,,,1.8022,1,,,,,,,,,,,,,,m,,,,,,,,,,,,,,,95,0,550.6515,552.4843,m,1,1.8022,,[],[],[],[],[],[],[],552.4844,554.4842,554.4842,554.4844,[],[],[],[],[],[],[],,554.4845,554.4845,0.03375,-0.407617187,0,0,0,,0,94,94,155,1,4,word,STRATEGY,print,strategy_p.png,,,,,,
,,,,31549,001,2025-10-19_12h18.07.706,HW_LDT_1,2024.2.4,MacIntel,30.03003003,,,,,,,,,,,,,,,,,,,,,554.4859,554.6843,554.6844,555.1843,,,,,,,,,,,,,,1.2357,0,,,,,,,,,,,,,,z,,,,,,,,,,,,,,,96,0,555.1849,556.4511,m,0,1.2357,,[],[],[],[],[],[],[],556.4512,558.4509,558.4509,558.4511,[],[],[],[],[],[],[],,558.4511,558.4514,0.03375,-0.407617187,0,0,0,,0,95,95,78,1,4,TL,stragety,print,stragety_p.png,,,,,,
,,,,31549,001,2025-10-19_12h18.07.706,HW_LDT_1,2024.2.4,MacIntel,30.03003003,,,,,,,,,,,,,,,,,,,,,558.4529,558.6511,558.6512,559.151,,,,,,,,,,,,,,0.6022,1,,,,,,,,,,,,,,m,,,,,,,,,,,,,,,97,0,559.1517,559.7843,m,1,0.6022,,[],[],[],[],[],[],[],559.7843,561.7842,561.7842,561.7845,[],[],[],[],[],[],[],,561.7845,561.7847,0.03375,-0.407617187,0,0,0,,0,96,96,132,1,4,word,PROPOSAL,print,proposal_p.png,,,,,,
,,,,31549,001,2025-10-19_12h18.07.706,HW_LDT_1,2024.2.4,MacIntel,30.03003003,,,,,,,,,,,,,,,,,,,,,561.7861,561.9843,561.9843,562.4842,,,,,,,,,,,,,,1.5225,1,,,,,,,,,,,,,,z,,,,,,,,,,,,,,,98,0,562.4848,564.0177,z,1,1.5225,,[],[],[],[],[],[],[],564.0179,566.0175,566.0175,566.0177,[],[],[],[],[],[],[],,566.0178,566.0179,0.03375,-0.407617187,0,0,0,,0,97,97,21,1,4,RL,insibate,print,insibate_p.png,,,,,,
,,,,31549,001,2025-10-19_12h18.07.706,HW_LDT_1,2024.2.4,MacIntel,30.03003003,,,,,,,,,,,,,,,,,,,,,566.0193,566.2176,566.2176,566.7175,,,,,,,,,,,,,,1.7033,1,,,,,,,,,,,,,,z,,,,,,,,,,,,,,,99,0,566.718,568.4511,z,1,1.7033,,[],[],[],[],[],[],[],568.4513,570.4511,570.4511,570.4513,[],[],[],[],[],[],[],,570.4514,570.4514,0.03375,-0.407617187,0,0,0,,0,98,98,12,1,4,RL,conbicer,cursive,conbicer_c.png,,,,,,
,,,,31549,001,2025-10-19_12h18.07.706,HW_LDT_1,2024.2.4,MacIntel,30.03003003,,,,,,,,,,,,,,,,,,,,,570.4529,570.6509,570.651,571.1504,,,,,,,,,,,,,,3.1147,1,,,,,,,,,,,,,,m,,,,,,,,,,,,,,,100,0,571.1509,574.2843,m,1,3.1147,,[],[],[],[],[],[],[],574.2844,576.2837,576.2837,576.2839,[],[],[],[],[],[],[],,576.284,576.284,0.03375,-0.407617187,0,0,0,,0,99,99,145,1,4,word,RESUME,print,resume_p.png,,,,,,
,,,,31549,001,2025-10-19_12h18.07.706,HW_LDT_1,2024.2.4,MacIntel,30.03003003,,,,,,,,,,,,,,,,,,,,,576.2849,576.4844,576.4844,576.9845,,,,,,,,,,,,,,1.9518,1,,,,,,,,,,,,,,z,,,,,,,,,,,,,,,101,0,576.9851,578.9509,z,1,1.9518,,[],[],[],[],[],[],[],578.9509,580.9508,580.9509,580.9511,[],[],[],[],[],[],[],,580.9511,580.9512,0.03375,-0.407617187,0,0,0,,0,100,100,56,1,4,TL,donimant,cursive,donimant_c.png,,,,,,
,,,,31549,001,2025-10-19_12h18.07.706,HW_LDT_1,2024.2.4,MacIntel,30.03003003,,,,,,,,,,,,,,,,,,,,,580.9525,581.1509,581.1509,581.6509,,,,,,,,,,,,,,2.3359,1,,,,,,,,,,,,,,z,,,,,,,,,,,,,,,102,0,581.6516,584.0178,z,1,2.3359,,[],[],[],[],[],[],[],584.0179,586.0168,586.0169,586.0172,[],[],[],[],[],[],[],,586.0172,586.0173,0.03375,-0.407617187,0,0,0,,0,101,101,26,1,4,RL,mesibine,cursive,mesibine_c.png,,,,,,
,,,,31549,001,2025-10-19_12h18.07.706,HW_LDT_1,2024.2.4,MacIntel,30.03003003,,,,,,,,,,,,,,,,,,,,,586.0188,586.2175,586.2176,586.7176,,,,,,,,,,,,,,2.2039,1,,,,,,,,,,,,,,z,,,,,,,,,,,,,,,103,0,586.7181,588.9509,z,1,2.2039,,[],[],[],[],[],[],[],588.951,590.9509,590.9509,590.9511,[],[],[],[],[],[],[],,590.9511,590.9513,0.03375,-0.407617187,0,0,0,,0,102,102,10,1,4,RL,carminal,cursive,carminal_c.png,,,,,,
,,,,31549,001,2025-10-19_12h18.07.706,HW_LDT_1,2024.2.4,MacIntel,30.03003003,,,,,,,,,,,,,,,,,,,,,590.9526,591.1509,591.1509,591.6501,,,,,,,,,,,,,,1.4701,1,,,,,,,,,,,,,,z,,,,,,,,,,,,,,,104,0,591.6506,593.151,z,1,1.4701,,[],[],[],[],[],[],[],593.1511,595.1509,595.1509,595.1511,[],[],[],[],[],[],[],,595.1512,595.1513,0.03375,-0.407617187,0,0,0,,0,103,103,11,1,4,RL,clisimal,print,clisimal_p.png,,,,,,
,,,,31549,001,2025-10-19_12h18.07.706,HW_LDT_1,2024.2.4,MacIntel,30.03003003,,,,,,,,,,,,,,,,,,,,,595.1528,595.351,595.351,595.851,,,,,,,,,,,,,,4.5225,1,,,,,,,,,,,,,,z,,,,,,,,,,,,,,,105,0,595.8515,600.3845,z,1,4.5225,,[],[],[],[],[],[],[],600.3847,602.3843,602.3843,602.3845,[],[],[],[],[],[],[],,602.3845,602.3847,0.799978299,0.5,0,0,0,,0,104,104,54,1,4,TL,codemy,print,codemy_p.png,,,,,,
,,,,31549,001,2025-10-19_12h18.07.706,HW_LDT_1,2024.2.4,MacIntel,30.03003003,,,,,,,,,,,,,,,,,,,,,602.3863,602.5843,602.5843,603.0843,,,,,,,,,,,,,,4.5695,0,,,,,,,,,,,,,,m,,,,,,,,,,,,,,,106,0,603.0849,607.6844,z,0,4.5695,,[],[],[],[],[],[],[],607.6845,609.6845,609.6845,609.6847,[],[],[],[],[],[],[],,609.6848,609.6849,0.799978299,0.5,0,0,0,,0,105,105,113,1,4,word,LITERAL,cursive,literal_c.png,,,,,,
,,,,31549,001,2025-10-19_12h18.07.706,HW_LDT_1,2024.2.4,MacIntel,30.03003003,,,,,,,,,,,,,,,,,,,,,609.6863,609.8846,609.8847,610.3844,,,,,,,,,,,,,,3.5186,1,,,,,,,,,,,,,,m,,,,,,,,,,,,,,,107,0,610.3851,613.918,m,1,3.5186,,[],[],[],[],[],[],[],613.918,615.9178,615.9178,615.9181,[],[],[],[],[],[],[],,615.9181,615.9182,0.799978299,0.5,0,0,0,,0,106,106,98,1,4,word,CRIMINAL,cursive,criminal_c.png,,,,,,
,,,,31549,001,2025-10-19_12h18.07.706,HW_LDT_1,2024.2.4,MacIntel,30.03003003,,,,,,,,,,,,,,,,,,,,,615.9198,616.1176,616.1177,616.6175,,,,,,,,,,,,,,3.5446,1,,,,,,,,,,,,,,z,,,,,,,,,,,,,,,108,0,616.618,620.1845,z,1,3.5446,,[],[],[],[],[],[],[],620.1846,622.1834,622.1834,622.1836,[],[],[],[],[],[],[],,622.1837,622.1839,0.799978299,0.5,0,0,0,,0,107,107,9,1,4,RL,cafigal,print,cafigal_p.png,,,,,,
,,,,31549,001,2025-10-19_12h18.07.706,HW_LDT_1,2024.2.4,MacIntel,30.03003003,,,,,,,,,,,,,,,,,,,,,622.1855,622.3844,622.3844,622.8843,,,,,,,,,,,,,,2.5836,1,,,,,,,,,,,,,,m,,,,,,,,,,,,,,,109,0,622.8849,625.4844,m,1,2.5836,,[],[],[],[],[],[],[],625.4845,627.4845,627.4845,627.4847,[],[],[],[],[],[],[],,627.4847,627.4848,0.799978299,0.5,0,0,0,,0,108,108,149,1,4,word,SENATOR,print,senator_p.png,,,,,,
,,,,31549,001,2025-10-19_12h18.07.706,HW_LDT_1,2024.2.4,MacIntel,30.03003003,,,,,,,,,,,,,,,,,,,,,627.4863,627.6845,627.6845,628.1842,,,,,,,,,,,,,,1.9457,1,,,,,,,,,,,,,,z,,,,,,,,,,,,,,,110,0,628.1848,630.1509,z,1,1.9457,,[],[],[],[],[],[],[],630.1511,632.1515,632.1515,632.1518,[],[],[],[],[],[],[],,632.1518,632.152,0.78953559,0.415742188,0,0,0,,0,109,109,13,1,4,RL,crisival,cursive,crisival_c.png,,,,,,
,,,,31549,001,2025-10-19_12h18.07.706,HW_LDT_1,2024.2.4,MacIntel,30.03003003,,,,,,,,,,,,,,,,,,,,,632.1533,632.3513,632.3514,632.8509,,,,,,,,,,,,,,3.3329,1,,,,,,,,,,,,,,z,,,,,,,,,,,,,,,111,1,632.8512,636.1849,z,1,3.3329,,[],[],[],[],[],[],[],636.185,638.1844,638.1845,640.4846,[],[],[],[],[],[],[],m,640.4847,640.4848,0.796119792,0.40015625,0,0,0,,0,110,110,43,1,4,RL,rovastic,print,rovastic_p.png,2.2774,,,,,
,,,,31549,001,2025-10-19_12h18.07.706,HW_LDT_1,2024.2.4,MacIntel,30.03003003,,,,,,,,,,,,,,,,,,,,,640.4864,640.6844,640.6846,641.1845,,,,,,,,,,,,,,5.6495,0,,,,,,,,,,,,,,m,,,,,,,,,,,,,,,112,0,641.1854,646.8513,z,0,5.6495,,[],[],[],[],[],[],[],646.8514,648.8502,648.8502,648.8504,[],[],[],[],[],[],[],,648.8505,648.8506,0.796119792,0.40015625,0,0,0,,0,111,111,144,1,4,word,RESIDENT,cursive,resident_c.png,,,,,,
,,,,31549,001,2025-10-19_12h18.07.706,HW_LDT_1,2024.2.4,MacIntel,30.03003003,,,,,,,,,,,,,,,,,,,,,648.8522,649.0511,649.0512,649.5513,,,,,,,,,,,,,,2.2474,1,,,,,,,,,,,,,,z,,,,,,,,,,,,,,,113,1,649.5519,651.8179,z,1,2.2474,,[],[],[],[],[],[],[],651.818,653.8177,653.8177,656.3513,[],[],[],[],[],[],[],z,656.3514,656.3516,0.799978299,0.43562066,0,0,0,,0,112,112,3,1,4,RL,bewoted,print,bewoted_p.png,2.5031,,,,,
,,,,31549,001,2025-10-19_12h18.07.706,HW_LDT_1,2024.2.4,MacIntel,30.03003003,,,,,,,,,,,,,,,,,,,,,656.3533,656.5513,656.5513,657.0511,,,,,,,,,,,,,,2.1743,0,,,,,,,,,,,,,,m,,,,,,,,,,,,,,,114,0,657.0517,659.2513,z,0,2.1743,,[],[],[],[],[],[],[],659.2514,661.2511,661.2511,661.2514,[],[],[],[],[],[],[],,661.2514,661.2515,0.799978299,0.43562066,0,0,0,,0,113,113,92,1,4,word,CATEGORY,cursive,category_c.png,,,,,,
,,,,31549,001,2025-10-19_12h18.07.706,HW_LDT_1,2024.2.4,MacIntel,30.03003003,,,,,,,,,,,,,,,,,,,,,661.253,661.4512,661.4513,661.9511,,,,,,,,,,,,,,1.3029,1,,,,,,,,,,,,,,z,,,,,,,,,,,,,,,115,0,661.9518,663.2847,z,1,1.3029,,[],[],[],[],[],[],[],663.2849,665.2846,665.2847,665.2848,[],[],[],[],[],[],[],,665.2849,665.2851,0.799978299,0.43562066,0,0,0,,0,114,114,52,1,4,TL,cagetory,cursive,cagetory_c.png,,,,,,
,,,,31549,001,2025-10-19_12h18.07.706,HW_LDT_1,2024.2.4,MacIntel,30.03003003,,,,,,,,,,,,,,,,,,,,,665.2865,665.4844,665.4844,665.9846,,,,,,,,,,,,,,1.2809,1,,,,,,,,,,,,,,z,,,,,,,,,,,,,,,116,0,665.9852,667.2847,z,1,1.2809,,[],[],[],[],[],[],[],667.2848,669.2837,669.2838,669.2839,[],[],[],[],[],[],[],,669.284,669.284,0.799978299,0.43562066,0,0,0,,0,115,115,57,1,4,TL,etidor,print,etidor_p.png,,,,,,
,,,,31549,001,2025-10-19_12h18.07.706,HW_LDT_1,2024.2.4,MacIntel,30.03003003,,,,,,,,,,,,,,,,,,,,,669.2856,669.4847,669.4849,669.9847,,,,,,,,,,,,,,2.4215,1,,,,,,,,,,,,,,z,,,,,,,,,,,,,,,117,1,669.9854,672.4175,z,1,2.4215,,[],[],[],[],[],[],[],672.4176,674.4179,674.418,676.0515,[],[],[],[],[],[],[],z,676.0515,676.0517,0.799978299,0.43562066,0,0,0,,0,116,116,20,1,4,RL,gralekul,print,gralekul_p.png,1.6034,,,,,
,,,,31549,001,2025-10-19_12h18.07.706,HW_LDT_1,2024.2.4,MacIntel,30.03003003,,,,,,,,,,,,,,,,,,,,,676.0533,676.2511,676.2512,676.7503,,,,,,,,,,,,,,2.4774,1,,,,,,,,,,,,,,z,,,,,,,,,,,,,,,118,0,676.7507,679.2515,z,1,2.4774,,[],[],[],[],[],[],[],679.2516,681.2511,681.2512,681.2514,[],[],[],[],[],[],[],,681.2515,681.2516,0.799978299,0.43562066,0,0,0,,0,117,117,58,1,4,TL,edivent,print,edivent_p.png,,,,,,
,,,,31549,001,2025-10-19_12h18.07.706,HW_LDT_1,2024.2.4,MacIntel,30.03003003,,,,,,,,,,,,,,,,,,,,,681.253,681.4512,681.4513,681.9514,,,,,,,,,,,,,,3.1932,1,,,,,,,,,,,,,,m,,,,,,,,,,,,,,,119,1,681.9521,685.151,m,1,3.1932,,[],[],[],[],[],[],[],685.151,687.1512,687.1513,688.2844,[],[],[],[],[],[],[],m,688.2845,688.2846,0.799978299,0.43562066,0,0,0,,0,118,118,156,1,4,word,TRIBUTE,print,tribute_p.png,1.104,,,,,
,,,,31549,001,2025-10-19_12h18.07.706,HW_LDT_1,2024.2.4,MacIntel,30.03003003,,,,,,,,,,,,,,,,,,,,,688.286,688.4845,688.4845,688.9846,,,,,,,,,,,,,,1.2884,1,,,,,,,,,,,,,,m,,,,,,,,,,,,,,,120,0,688.9852,690.2845,m,1,1.2884,,[],[],[],[],[],[],[],690.2846,692.2845,692.2845,692.2848,[],[],[],[],[],[],[],,692.2849,692.2849,0.799978299,0.43562066,0,0,0,,0,119,119,148,1,4,word,SALINE,print,saline_p.png,,,,,,
,,,,31549,001,2025-10-19_12h18.07.706,HW_LDT_1,2024.2.4,MacIntel,30.03003003,,,,,,,,,,,,,,,,,,,,,692.2866,692.4844,692.4845,692.9846,,,,,,,,,,,,,,2.2971,1,,,,,,,,,,,,,,z,,,,,,,,,,,,,,,121,0,692.9853,695.2845,z,1,2.2971,,[],[],[],[],[],[],[],695.2846,697.2847,697.2848,697.285,[],[],[],[],[],[],[],,697.285,697.2852,0.799978299,0.43562066,0,0,0,,0,120,120,55,1,4,TL,corevage,cursive,corevage_c.png,,,,,,
,,,,31549,001,2025-10-19_12h18.07.706,HW_LDT_1,2024.2.4,MacIntel,30.03003003,,,,,,,,,,,,,,,,,,,,,697.2865,697.4845,697.4846,697.9846,,,,,,,,,,,,,,3.3316,1,,,,,,,,,,,,,,z,,,,,,,,,,,,,,,122,0,697.9851,701.3179,z,1,3.3316,,[],[],[],[],[],[],[],701.3179,703.318,703.318,703.3182,[],[],[],[],[],[],[],,703.3183,703.3184,0.799978299,0.43562066,0,0,0,,0,121,121,24,1,4,RL,marmipal,cursive,marmipal_c.png,,,,,,
,,,,31549,001,2025-10-19_12h18.07.706,HW_LDT_1,2024.2.4,MacIntel,30.03003003,,,,,,,,,,,,,,,,,,,,,703.3199,703.5179,703.518,704.0181,,,,,,,,,,,,,,1.8025,1,,,,,,,,,,,,,,z,,,,,,,,,,,,,,,123,0,704.0188,705.8514,z,1,1.8025,,[],[],[],[],[],[],[],705.8515,707.8513,707.8514,707.8515,[],[],[],[],[],[],[],,707.8516,707.8517,0.799978299,0.43562066,0,0,0,,0,122,122,60,1,4,TL,hetirage,print,hetirage_p.png,,,,,,
,,,,31549,001,2025-10-19_12h18.07.706,HW_LDT_1,2024.2.4,MacIntel,30.03003003,,,,,,,,,,,,,,,,,,,,,707.8531,708.0512,708.0512,708.5514,,,,,,,,,,,,,,2.1467,1,,,,,,,,,,,,,,z,,,,,,,,,,,,,,,124,0,708.552,710.718,z,1,2.1467,,[],[],[],[],[],[],[],710.7181,712.718,712.718,712.7181,[],[],[],[],[],[],[],,712.7182,712.7184,0.799978299,0.43562066,0,0,0,,0,123,123,36,1,4,RL,rabigly,cursive,rabigly_c.png,,,,,,
,,,,31549,001,2025-10-19_12h18.07.706,HW_LDT_1,2024.2.4,MacIntel,30.03003003,,,,,,,,,,,,,,,,,,,,,712.7198,712.9172,712.9172,713.4179,,,,,,,,,,,,,,1.006,1,,,,,,,,,,,,,,z,,,,,,,,,,,,,,,125,0,713.4184,714.4513,z,1,1.006,,[],[],[],[],[],[],[],714.4514,716.4512,716.4512,716.4514,[],[],[],[],[],[],[],,716.4514,716.4516,0.799978299,0.43562066,0,0,0,,0,124,124,29,1,4,RL,motide,print,motide_p.png,,,,,,
,,,,31549,001,2025-10-19_12h18.07.706,HW_LDT_1,2024.2.4,MacIntel,30.03003003,,,,,,,,,,,,,,,,,,,,,716.4531,716.6514,716.6514,717.1512,,,,,,,,,,,,,,1.0693,1,,,,,,,,,,,,,,z,,,,,,,,,,,,,,,126,0,717.1517,718.2512,z,1,1.0693,,[],[],[],[],[],[],[],718.2514,720.2512,720.2512,720.2515,[],[],[],[],[],[],[],,720.2515,720.2516,0.799978299,0.43562066,0,0,0,,0,125,125,45,1,4,RL,spetisic,cursive,spetisic_c.png,,,,,,
,,,,31549,001,2025-10-19_12h18.07.706,HW_LDT_1,2024.2.4,MacIntel,30.03003003,,,,,,,,,,,,,,,,,,,,,720.253,720.4513,720.4513,720.9511,,,,,,,,,,,,,,0.8471,1,,,,,,,,,,,,,,z,,,,,,,,,,,,,,,127,0,720.9516,721.8182,z,1,0.8471,,[],[],[],[],[],[],[],721.8183,723.8179,723.8179,723.8181,[],[],[],[],[],[],[],,723.8182,723.8183,0.799978299,0.43562066,0,0,0,,0,126,126,0,1,4,RL,abanemy,print,abanemy_p.png,,,,,,
,,,,31549,001,2025-10-19_12h18.07.706,HW_LDT_1,2024.2.4,MacIntel,30.03003003,,,,,,,,,,,,,,,,,,,,,723.8194,724.018,724.018,724.518,,,,,,,,,,,,,,1.1166,1,,,,,,,,,,,,,,m,,,,,,,,,,,,,,,128,0,724.5185,725.6515,m,1,1.1166,,[],[],[],[],[],[],[],725.6516,727.6514,727.6514,727.6516,[],[],[],[],[],[],[],,727.6516,727.6518,0.799978299,0.43562066,0,0,0,,0,127,127,80,1,4,word,ACADEMY,print,academy_p.png,,,,,,
,,,,31549,001,2025-10-19_12h18.07.706,HW_LDT_1,2024.2.4,MacIntel,30.03003003,,,,,,,,,,,,,,,,,,,,,727.6533,727.8513,727.8513,728.3514,,,,,,,,,,,,,,1.5789,1,,,,,,,,,,,,,,z,,,,,,,,,,,,,,,129,1,728.3521,729.9515,z,1,1.5789,,[],[],[],[],[],[],[],729.9516,731.9514,731.9515,733.218,[],[],[],[],[],[],[],m,733.2181,733.2182,0.799978299,0.43562066,0,0,0,,0,128,128,73,1,4,TL,regilion,print,regilion_p.png,1.2371,,,,,
,,,,31549,001,2025-10-19_12h18.07.706,HW_LDT_1,2024.2.4,MacIntel,30.03003003,,,,,,,,,,,,,,,,,,,,,733.2194,733.4182,733.4182,733.9179,,,,,,,,,,,,,,1.332,0,,,,,,,,,,,,,,m,,,,,,,,,,,,,,,130,0,733.9185,735.2519,z,0,1.332,,[],[],[],[],[],[],[],735.252,737.2513,737.2514,737.2516,[],[],[],[],[],[],[],,737.2516,737.2518,0.799978299,0.43562066,0,0,0,,0,129,129,114,1,4,word,LOCATE,cursive,locate_c.png,,,,,,
,,,,31549,001,2025-10-19_12h18.07.706,HW_LDT_1,2024.2.4,MacIntel,30.03003003,,,,,,,,,,,,,,,,,,,,,737.2533,737.4513,737.4513,737.9514,,,,,,,,,,,,,,2.4356,1,,,,,,,,,,,,,,z,,,,,,,,,,,,,,,131,0,737.9521,740.4182,z,1,2.4356,,[],[],[],[],[],[],[],740.4182,742.4179,742.4179,742.4181,[],[],[],[],[],[],[],,742.4182,742.4183,0.799978299,0.43562066,0,0,0,,0,130,130,53,1,4,TL,cemerony,print,cemerony_p.png,,,,,,
,,,,31549,001,2025-10-19_12h18.07.706,HW_LDT_1,2024.2.4,MacIntel,30.03003003,,,,,,,,,,,,,,,,,,,,,742.4197,742.6181,742.6181,743.118,,,,,,,,,,,,,,1.4765,1,,,,,,,,,,,,,,z,,,,,,,,,,,,,,,132,0,743.1186,744.6182,z,1,1.4765,,[],[],[],[],[],[],[],744.6182,746.6179,746.618,746.6182,[],[],[],[],[],[],[],,746.6182,746.6183,0.799978299,0.43562066,0,0,0,,0,131,131,67,1,4,TL,polupar,print,polupar_p.png,,,,,,
,,,,31549,001,2025-10-19_12h18.07.706,HW_LDT_1,2024.2.4,MacIntel,30.03003003,,,,,,,,,,,,,,,,,,,,,746.6198,746.818,746.818,747.3179,,,,,,,,,,,,,,4.1697,1,,,,,,,,,,,,,,z,,,,,,,,,,,,,,,133,0,747.3185,751.5171,z,1,4.1697,,[],[],[],[],[],[],[],751.5172,753.518,753.5181,753.5183,[],[],[],[],[],[],[],,753.5184,753.5184,0.799978299,0.43562066,0,0,0,,0,132,132,51,1,4,TL,adsivory,cursive,adsivory_c.png,,,,,,
,,,,31549,001,2025-10-19_12h18.07.706,HW_LDT_1,2024.2.4,MacIntel,30.03003003,,,,,,,,,,,,,,,,,,,,,753.52,753.7178,753.718,754.2181,,,,,,,,,,,,,,2.5025,1,,,,,,,,,,,,,,z,,,,,,,,,,,,,,,134,1,754.2188,756.7508,z,1,2.5025,,[],[],[],[],[],[],[],756.7509,758.7517,758.7518,760.5849,[],[],[],[],[],[],[],z,760.585,760.5852,0.799978299,0.43562066,0,0,0,,0,133,133,49,1,4,RL,vesofity,cursive,vesofity_c.png,1.819,,,,,
,,,,31549,001,2025-10-19_12h18.07.706,HW_LDT_1,2024.2.4,MacIntel,30.03003003,,,,,,,,,,,,,,,,,,,,,760.5868,760.7848,760.7849,761.2844,,,,,,,,,,,,,,1.8874,1,,,,,,,,,,,,,,z,,,,,,,,,,,,,,,135,0,761.2849,763.185,z,1,1.8874,,[],[],[],[],[],[],[],763.1852,765.1849,765.1849,765.1851,[],[],[],[],[],[],[],,765.1852,765.1853,0.799978299,0.43562066,0,0,0,,0,134,134,63,1,4,TL,miskate,print,miskate_p.png,,,,,,
,,,,31549,001,2025-10-19_12h18.07.706,HW_LDT_1,2024.2.4,MacIntel,30.03003003,,,,,,,,,,,,,,,,,,,,,765.1868,765.3847,765.3848,765.8847,,,,,,,,,,,,,,1.6647,1,,,,,,,,,,,,,,m,,,,,,,,,,,,,,,136,0,765.8855,767.5512,m,1,1.6647,,[],[],[],[],[],[],[],767.5512,769.5518,769.5519,769.5521,[],[],[],[],[],[],[],,769.5521,769.5523,0.784835069,0.406857639,0,0,0,,0,135,135,141,1,4,word,RELIGION,print,religion_p.png,,,,,,
,,,,31549,001,2025-10-19_12h18.07.706,HW_LDT_1,2024.2.4,MacIntel,30.03003003,,,,,,,,,,,,,,,,,,,,,769.5536,769.7513,769.7514,770.2515,,,,,,,,,,,,,,2.0022,0,,,,,,,,,,,,,,m,,,,,,,,,,,,,,,137,0,770.2523,772.2847,z,0,2.0022,,[],[],[],[],[],[],[],772.285,774.2843,774.2844,774.2847,[],[],[],[],[],[],[],,774.2847,774.2848,0.784544271,0.405208333,0,0,0,,0,136,136,101,1,4,word,DELICATE,cursive,delicate_c.png,,,,,,
,,,,31549,001,2025-10-19_12h18.07.706,HW_LDT_1,2024.2.4,MacIntel,30.03003003,,,,,,,,,,,,,,,,,,,,,774.2863,774.4847,774.4847,774.9847,,,,,,,,,,,,,,2.0324,1,,,,,,,,,,,,,,z,,,,,,,,,,,,,,,138,0,774.9854,777.019,z,1,2.0324,,[],[],[],[],[],[],[],777.0191,779.018,779.0181,779.0183,[],[],[],[],[],[],[],,779.0184,779.0184,0.784544271,0.405208333,0,0,0,,0,137,137,15,1,4,RL,debave,cursive,debave_c.png,,,,,,
,,,,31549,001,2025-10-19_12h18.07.706,HW_LDT_1,2024.2.4,MacIntel,30.03003003,,,,,,,,,,,,,,,,,,,,,779.0199,779.2181,779.2181,779.7179,,,,,,,,,,,,,,1.6563,1,,,,,,,,,,,,,,m,,,,,,,,,,,,,,,139,1,779.7184,781.3848,m,1,1.6563,,[],[],[],[],[],[],[],781.3849,783.3846,783.3847,784.6513,[],[],[],[],[],[],[],z,784.6514,784.6515,0.784544271,0.405208333,0,0,0,,0,138,138,102,1,4,word,DENSITY,cursive,density_c.png,1.2649,,,,,
,,,,31549,001,2025-10-19_12h18.07.706,HW_LDT_1,2024.2.4,MacIntel,30.03003003,,,,,,,,,,,,,,,,,,,,,784.6528,784.8508,784.8509,785.3516,,,,,,,,,,,,,,1.5138,1,,,,,,,,,,,,,,m,,,,,,,,,,,,,,,140,0,785.3522,786.885,m,1,1.5138,,[],[],[],[],[],[],[],786.8851,788.8848,788.8848,788.8851,[],[],[],[],[],[],[],,788.8851,788.8852,0.784544271,0.405208333,0,0,0,,0,139,139,121,1,4,word,MISTAKE,print,mistake_p.png,,,,,,
,,,,31549,001,2025-10-19_12h18.07.706,HW_LDT_1,2024.2.4,MacIntel,30.03003003,,,,,,,,,,,,,,,,,,,,,788.8866,789.0848,789.0849,789.5848,,,,,,,,,,,,,,1.6695,1,,,,,,,,,,,,,,z,,,,,,,,,,,,,,,141,0,789.5854,791.2844,z,1,1.6695,,[],[],[],[],[],[],[],791.2845,793.2841,793.2841,793.2843,[],[],[],[],[],[],[],,793.2844,793.2845,0.784544271,0.405208333,0,0,0,,0,140,140,14,1,4,RL,delahe,cursive,delahe_c.png,,,,,,
,,,,31549,001,2025-10-19_12h18.07.706,HW_LDT_1,2024.2.4,MacIntel,30.03003003,,,,,,,,,,,,,,,,,,,,,793.2859,793.484,793.4841,793.9848,,,,,,,,,,,,,,1.4831,1,,,,,,,,,,,,,,m,,,,,,,,,,,,,,,142,0,793.9855,795.4847,m,1,1.4831,,[],[],[],[],[],[],[],795.4848,797.4848,797.4849,797.4851,[],[],[],[],[],[],[],,797.4852,797.4853,0.784544271,0.405208333,0,0,0,,0,141,141,115,1,4,word,LOGICAL,print,logical_p.png,,,,,,
,,,,31549,001,2025-10-19_12h18.07.706,HW_LDT_1,2024.2.4,MacIntel,30.03003003,,,,,,,,,,,,,,,,,,,,,797.4867,797.6847,797.6847,798.1848,,,,,,,,,,,,,,2.7691,1,,,,,,,,,,,,,,z,,,,,,,,,,,,,,,143,0,798.1855,800.9849,z,1,2.7691,,[],[],[],[],[],[],[],800.9851,802.9848,802.9848,802.9849,[],[],[],[],[],[],[],,802.985,802.9851,0.784544271,0.405208333,0,0,0,,0,142,142,35,1,4,RL,probice,cursive,probice_c.png,,,,,,
,,,,31549,001,2025-10-19_12h18.07.706,HW_LDT_1,2024.2.4,MacIntel,30.03003003,,,,,,,,,,,,,,,,,,,,,802.9867,803.1848,803.1849,803.6847,,,,,,,,,,,,,,1.2859,1,,,,,,,,,,,,,,z,,,,,,,,,,,,,,,144,1,803.6852,804.9848,z,1,1.2859,,[],[],[],[],[],[],[],804.9849,806.9838,806.9839,808.4838,[],[],[],[],[],[],[],z,808.4839,808.484,0.784544271,0.405208333,0,0,0,,0,143,143,18,1,4,RL,disluge,print,disluge_p.png,1.4898,,,,,
,,,,31549,001,2025-10-19_12h18.07.706,HW_LDT_1,2024.2.4,MacIntel,30.03003003,,,,,,,,,,,,,,,,,,,,,808.4854,808.6847,808.6848,809.1848,,,,,,,,,,,,,,2.138,0,,,,,,,,,,,,,,m,,,,,,,,,,,,,,,145,1,809.1855,811.3514,z,0,2.138,,[],[],[],[],[],[],[],811.3516,813.3519,813.352,814.1516,[],[],[],[],[],[],[],z,814.1516,814.1519,0.783702257,0.397513021,0,0,0,,0,144,144,87,1,4,word,CAFETERIA,cursive,cafeteria_c.png,0.7832,,,,,
,,,,31549,001,2025-10-19_12h18.07.706,HW_LDT_1,2024.2.4,MacIntel,30.03003003,,,,,,,,,,,,,,,,,,,,,814.1534,814.3515,814.3515,814.8515,,,,,,,,,,,,,,2.7127,1,,,,,,,,,,,,,,m,,,,,,,,,,,,,,,146,0,814.8521,817.5851,m,1,2.7127,,[],[],[],[],[],[],[],817.5851,819.5849,819.5849,819.5852,[],[],[],[],[],[],[],,819.5852,819.5853,0.783446181,0.397513021,0,0,0,,0,145,145,84,1,4,word,BELOVED,print,beloved_p.png,,,,,,
,,,,31549,001,2025-10-19_12h18.07.706,HW_LDT_1,2024.2.4,MacIntel,30.03003003,,,,,,,,,,,,,,,,,,,,,819.5869,819.7849,819.785,820.285,,,,,,,,,,,,,,3.6739,1,,,,,,,,,,,,,,z,,,,,,,,,,,,,,,147,0,820.2856,823.985,z,1,3.6739,,[],[],[],[],[],[],[],823.9851,825.9842,825.9842,825.9845,[],[],[],[],[],[],[],,825.9845,825.9847,0.783446181,0.397513021,0,0,0,,0,146,146,34,1,4,RL,posity,cursive,posity_c.png,,,,,,
,,,,31549,001,2025-10-19_12h18.07.706,HW_LDT_1,2024.2.4,MacIntel,30.03003003,,,,,,,,,,,,,,,,,,,,,825.9862,826.1849,826.1849,826.6847,,,,,,,,,,,,,,2.6028,1,,,,,,,,,,,,,,z,,,,,,,,,,,,,,,148,0,826.6854,829.3183,z,1,2.6028,,[],[],[],[],[],[],[],829.3184,831.3182,831.3182,831.3184,[],[],[],[],[],[],[],,831.3184,831.3186,0.783185764,0.395720486,0,0,0,,0,147,147,19,1,4,RL,elacodate,cursive,elacodate_c.png,,,,,,
,,,,31549,001,2025-10-19_12h18.07.706,HW_LDT_1,2024.2.4,MacIntel,30.03003003,,,,,,,,,,,,,,,,,,,,,831.32,831.5175,831.5175,832.0182,,,,,,,,,,,,,,1.0127,1,,,,,,,,,,,,,,z,,,,,,,,,,,,,,,149,0,832.0189,833.0516,z,1,1.0127,,[],[],[],[],[],[],[],833.0518,835.0516,835.0517,835.0518,[],[],[],[],[],[],[],,835.0518,835.052,0.783185764,0.39546441,0,0,0,,0,148,148,27,1,4,RL,menowy,print,menowy_p.png,,,,,,
,,,,31549,001,2025-10-19_12h18.07.706,HW_LDT_1,2024.2.4,MacIntel,30.03003003,,,,,,,,,,,,,,,,,,,,,835.0534,835.2516,835.2517,835.7515,,,,,,,,,,,,,,1.0703,0,,,,,,,,,,,,,,m,,,,,,,,,,,,,,,150,1,835.7522,836.8508,z,0,1.0703,,[],[],[],[],[],[],[],836.8509,838.8514,838.8515,840.518,[],[],[],[],[],[],[],m,840.518,840.5182,0.782929688,0.397521701,0,0,0,,0,149,149,88,1,4,word,CAMERA,print,camera_p.png,1.6431,,,,,
,,,,31549,001,2025-10-19_12h18.07.706,HW_LDT_1,2024.2.4,MacIntel,30.03003003,,,,,,,,,,,,,,,,,,,,,840.5196,840.7182,840.7182,841.2183,,,,,,,,,,,,,,3.8351,1,,,,,,,,,,,,,,z,,,,,,,,,,,,,,,151,0,841.2188,845.085,z,1,3.8351,,[],[],[],[],[],[],[],845.085,847.085,847.085,847.0852,[],[],[],[],[],[],[],,847.0853,847.0854,0.782929688,0.397521701,0,0,0,,0,150,150,8,1,4,RL,casagity,cursive,casagity_c.png,,,,,,
,,,,31549,001,2025-10-19_12h18.07.706,HW_LDT_1,2024.2.4,MacIntel,30.03003003,,,,,,,,,,,,,,,,,,,,,847.0869,847.285,847.285,847.785,,,,,,,,,,,,,,1.124,1,,,,,,,,,,,,,,m,,,,,,,,,,,,,,,152,0,847.7856,848.9182,m,1,1.124,,[],[],[],[],[],[],[],848.9184,850.9182,850.9183,850.9185,[],[],[],[],[],[],[],,850.9186,850.9187,0.782929688,0.397521701,0,0,0,,0,151,151,93,1,4,word,CEREMONY,print,ceremony_p.png,,,,,,
,,,,31549,001,2025-10-19_12h18.07.706,HW_LDT_1,2024.2.4,MacIntel,30.03003003,,,,,,,,,,,,,,,,,,,,,850.9201,851.1185,851.1185,851.6179,,,,,,,,,,,,,,3.3697,1,,,,,,,,,,,,,,m,,,,,,,,,,,,,,,153,0,851.6186,855.0184,m,1,3.3697,,[],[],[],[],[],[],[],855.0186,857.0183,857.0183,857.0185,[],[],[],[],[],[],[],,857.0186,857.0187,0.782929688,0.397521701,0,0,0,,0,152,152,111,1,4,word,INDICATE,print,indicate_p.png,,,,,,
,,,,31549,001,2025-10-19_12h18.07.706,HW_LDT_1,2024.2.4,MacIntel,30.03003003,,,,,,,,,,,,,,,,,,,,,857.0201,857.2182,857.2183,857.7183,,,,,,,,,,,,,,1.2187,0,,,,,,,,,,,,,,m,,,,,,,,,,,,,,,154,0,857.719,858.9517,z,0,1.2187,,[],[],[],[],[],[],[],858.9519,860.9515,860.9515,860.9517,[],[],[],[],[],[],[],,860.9517,860.9518,0.782929688,0.397521701,0,0,0,,0,153,153,85,1,4,word,BENEFIT,cursive,benefit_c.png,,,,,,
,,,,31549,001,2025-10-19_12h18.07.706,HW_LDT_1,2024.2.4,MacIntel,30.03003003,,,,,,,,,,,,,,,,,,,,,860.9534,861.1516,861.1517,861.6517,,,,,,,,,,,,,,2.4696,0,,,,,,,,,,,,,,m,,,,,,,,,,,,,,,155,0,861.6522,864.1516,z,0,2.4696,,[],[],[],[],[],[],[],864.1517,866.1516,866.1516,866.1518,[],[],[],[],[],[],[],,866.152,866.1521,0.782929688,0.397521701,0,0,0,,0,154,154,104,1,4,word,DOMINANT,cursive,dominant_c.png,,,,,,
,,,,31549,001,2025-10-19_12h18.07.706,HW_LDT_1,2024.2.4,MacIntel,30.03003003,,,,,,,,,,,,,,,,,,,,,866.1536,866.3516,866.3516,866.8515,,,,,,,,,,,,,,3.8712,1,,,,,,,,,,,,,,m,,,,,,,,,,,,,,,156,0,866.8522,870.7518,m,1,3.8712,,[],[],[],[],[],[],[],870.7519,872.7515,872.7516,872.7517,[],[],[],[],[],[],[],,872.7518,872.752,0.782929688,0.397521701,0,0,0,,0,155,155,150,1,4,word,SENTIMENT,print,sentiment_p.png,,,,,,
,,,,31549,001,2025-10-19_12h18.07.706,HW_LDT_1,2024.2.4,MacIntel,30.03003003,,,,,,,,,,,,,,,,,,,,,872.7534,872.9516,872.9516,873.4515,,,,,,,,,,,,,,1.3536,1,,,,,,,,,,,,,,z,,,,,,,,,,,,,,,157,0,873.4523,874.8183,z,1,1.3536,,[],[],[],[],[],[],[],874.8185,876.8183,876.8184,876.8186,[],[],[],[],[],[],[],,876.8186,876.8187,0.782929688,0.397521701,0,0,0,,0,156,156,59,1,4,TL,fornute,cursive,fornute_c.png,,,,,,
,,,,31549,001,2025-10-19_12h18.07.706,HW_LDT_1,2024.2.4,MacIntel,30.03003003,,,,,,,,,,,,,,,,,,,,,876.8204,877.0184,877.0185,877.5183,,,,,,,,,,,,,,1.7556,1,,,,,,,,,,,,,,z,,,,,,,,,,,,,,,158,0,877.5191,879.285,z,1,1.7556,,[],[],[],[],[],[],[],879.2852,881.285,881.2851,881.2853,[],[],[],[],[],[],[],,881.2854,881.2855,0.782929688,0.397521701,0,0,0,,0,157,157,74,1,4,TL,rerite,print,rerite_p.png,,,,,,
,,,,31549,001,2025-10-19_12h18.07.706,HW_LDT_1,2024.2.4,MacIntel,30.03003003,,,,,,,,,,,,,,,,,,,,,881.287,881.485,881.485,881.985,,,,,,,,,,,,,,1.5625,0,,,,,,,,,,,,,,z,,,,,,,,,,,,,,,159,1,881.9858,883.5517,m,0,1.5625,,[],[],[],[],[],[],[],883.5518,885.5511,885.5512,886.5185,[],[],[],[],[],[],[],z,886.5185,886.5187,0.782929688,0.397521701,0,0,0,,0,158,158,61,1,4,TL,lotace,cursive,lotace_c.png,0.9422,,,,,
,,,,31549,001,2025-10-19_12h18.07.706,HW_LDT_1,2024.2.4,MacIntel,30.03003003,,,,,,,,,,,,,,,,,,,,,886.5202,886.7184,886.7184,887.218,,,,,,,,,,,,,,1.6694,0,,,,,,,,,,,,,,m,,,,,,,,,,,,,,,160,0,887.2187,888.9185,z,0,1.6694,,[],[],[],[],[],[],[],888.9186,890.9184,890.9185,890.9187,[],[],[],[],[],[],[],,890.9187,890.9188,0.782929688,0.397521701,0,0,0,,0,159,159,151,1,4,word,SPECIFIC,cursive,specific_c.png,,,,,,
,,,,31549,001,2025-10-19_12h18.07.706,HW_LDT_1,2024.2.4,MacIntel,30.03003003,,,,,,,,,,,,,,,,,,,,,,,,,,,,,,,,,,,,,,,,,,,,,,,,,,,,,,,,,,,,,,,,,,,,,,,,,,,,,,,,,,,,,,,,,,,,,,,,,,,,,,,,,,,,,,,,,,,,,890.9195,895.9188
