counterbalance_lists.group,counterbalance_lists.remaining,get_list.started,get_list.stopped,participant,session,date,expName,psychopyVersion,OS,frameRate,Instructions.started,Instructions.stopped,key_resp.keys,instr_done_touch.x,instr_done_touch.y,instr_done_touch.leftButton,instr_done_touch.midButton,instr_done_touch.rightButton,instr_done_touch.clicked_name,start_instr.thisRepN,start_instr.thisTrialN,start_instr.thisN,start_instr.thisIndex,start_instr.ran,pageN,phase,instruct_text,has_image,instruct_image,key_resp.rt,key_resp.duration,showProgress.started,showProgress.stopped,fix.started,fix.stopped,prac.started,prac.stopped,response.keys,response.corr,response.rt,response.duration,touch_resp.x,touch_resp.y,touch_resp.leftButton,touch_resp.midButton,touch_resp.rightButton,touch_resp.time,touch_resp.clicked_name,rt,corr,feedback.started,feedback.stopped,trials.thisRepN,trials.thisTrialN,trials.thisN,trials.thisIndex,trials.ran,TrialID,StimulusType,Condition,PrimeDuration,Prime,Target,corrAns,Instructions_expt.started,Instructions_expt.stopped,key_resp_3.keys,instr_done_touch_3.x,instr_done_touch_3.y,instr_done_touch_3.leftButton,instr_done_touch_3.midButton,instr_done_touch_3.rightButton,instr_done_touch_3.clicked_name,instr_experiment.thisRepN,instr_experiment.thisTrialN,instr_experiment.thisN,instr_experiment.thisIndex,instr_experiment.ran,trialID,flag,maintask.started,maintask.stopped,key_resp_2.keys,key_resp_2.corr,key_resp_2.rt,key_resp_2.duration,targ_click.x,targ_click.y,targ_click.leftButton,targ_click.midButton,targ_click.rightButton,targ_click.time,targ_click.clicked_name,ITI.started,ITI.stopped,probe.started,probe.stopped,click_probe.x,click_probe.y,click_probe.leftButton,click_probe.midButton,click_probe.rightButton,click_probe.time,click_probe.clicked_name,key_resp_probe.keys,Break.started,Break.stopped,break_done_touch.x,break_done_touch.y,break_done_touch.leftButton,break_done_touch.midButton,break_done_touch.rightButton,break_done_keyboard.keys,list1_trials.thisRepN,list1_trials.thisTrialN,list1_trials.thisN,list1_trials.thisIndex,list1_trials.ran,list_id,item_type,string,font,stim_file,key_resp_probe.rt,key_resp_probe.duration,break_done_keyboard.rt,break_done_keyboard.duration,End.started,End.stopped
list1,,0.4514,0.4516,31554,001,2025-10-18_17h52.10.662,HW_LDT_1,2024.2.4,MacIntel,63.29113924,,,,,,,,,,,,,,,,,,,,,,,,,,,,,,,,,,,,,,,,,,,,,,,,,,,,,,,,,,,,,,,,,,,,,,,,,,,,,,,,,,,,,,,,,,,,,,,,,,,,,,,,,,,,,,,,,,,,,,,
,,,,31554,001,2025-10-18_17h52.10.662,HW_LDT_1,2024.2.4,MacIntel,63.29113924,0.4695,14.7859,,-0.09789428,-0.402747552,1,0,0,instr_done_button,0,0,0,0,1,1,instructions,"INSTRUCTIONS
At the start of each trial, look at the plus sign  (+) in the center of the screen.  This tells you that a trial is about to begin and where to look. Second, the plus sign will disappear and a string of letters will appear. Your task is to determine if the string of letters is a word or not. If the item is a word press the M key (on keyboard)  or touch the word button (phone/tablet).  If the item is not a word,  press the  Z key (on keyboard)  or touch the nonword button (on phone/tablet). The items will be presented for a short time. 
Press the space bar or touch  continue.",0,,,,,,,,,,,,,,,,,,,,,,,,,,,,,,,,,,,,,,,,,,,,,,,,,,,,,,,,,,,,,,,,,,,,,,,,,,,,,,,,,,,,,,,,,,,,,,,,,,,,,
,,,,31554,001,2025-10-18_17h52.10.662,HW_LDT_1,2024.2.4,MacIntel,63.29113924,14.7878,19.7351,space,-0.09789428,-0.402747552,0,0,0,,0,1,1,1,1,2,instructions,"If your device has a keyboard, press the 'Z' key for nonwords and the 'M' key for words.





Press the space bar or touch the button below to continue.",0,keyboard-example.gif,4.9245,,,,,,,,,,,,,,,,,,,,,,,,,,,,,,,,,,,,,,,,,,,,,,,,,,,,,,,,,,,,,,,,,,,,,,,,,,,,,,,,,,,,,,,,,,,,,,,,,,,
,,,,31554,001,2025-10-18_17h52.10.662,HW_LDT_1,2024.2.4,MacIntel,63.29113924,19.7366,23.0693,space,-0.09789428,-0.402747552,0,0,0,,0,2,2,2,1,3,instructions,"If you are using a touchscreen only device, use the buttons on the screen. Do not use the mouse.





Press the space bar or touch the button below to continue.",0,touchscreen-example.gif,3.3145,,,,,,,,,,,,,,,,,,,,,,,,,,,,,,,,,,,,,,,,,,,,,,,,,,,,,,,,,,,,,,,,,,,,,,,,,,,,,,,,,,,,,,,,,,,,,,,,,,,
,,,,31554,001,2025-10-18_17h52.10.662,HW_LDT_1,2024.2.4,MacIntel,63.29113924,23.0712,25.802,space,-0.09789428,-0.402747552,0,0,0,,0,3,3,3,1,4,instructions,"It is very important that you respond as quickly and accurately as possible, as each letter string will only be on the screen for two seconds. If you do not respond within this time, the message 'Too slow!' will be displayed and the experiment will progress to the next letter string. The first 20 trials will be practice trials and you will receive feedback on your answers. 

Press the space bar or touch the button below to start the practice trials.",0,,2.7126,,,,,,,,,,,,,,,,,,,,,,,,,,,,,,,,,,,,,,,,,,,,,,,,,,,,,,,,,,,,,,,,,,,,,,,,,,,,,,,,,,,,,,,,,,,,,,,,,,,
,,,,31554,001,2025-10-18_17h52.10.662,HW_LDT_1,2024.2.4,MacIntel,63.29113924,,,,,,,,,,,,,,,,,,,,,,25.8267,26.0024,26.0027,26.5025,26.5028,27.7687,m,1,1.2365,,[],[],[],[],[],[],[],1.2365,1,27.7688,28.269,0,0,0,4,1,1005,WORD,UN,33,abound,SQUEAK,m,,,,,,,,,,,,,,,,,,,,,,,,,,,,,,,,,,,,,,,,,,,,,,,,,,,,,,,,,,,,,,,,,
,,,,31554,001,2025-10-18_17h52.10.662,HW_LDT_1,2024.2.4,MacIntel,63.29113924,,,,,,,,,,,,,,,,,,,,,,28.2705,28.4687,28.4688,28.9687,28.9698,29.7355,m,1,0.7554,,[],[],[],[],[],[],[],0.7554,1,29.7357,30.2355,0,1,1,0,1,1001,WORD,"ID",33,utopia,UTOPIA,m,,,,,,,,,,,,,,,,,,,,,,,,,,,,,,,,,,,,,,,,,,,,,,,,,,,,,,,,,,,,,,,,,
,,,,31554,001,2025-10-18_17h52.10.662,HW_LDT_1,2024.2.4,MacIntel,63.29113924,,,,,,,,,,,,,,,,,,,,,,30.2371,30.4354,30.4354,30.9353,30.9366,31.8521,z,1,0.8931,,[],[],[],[],[],[],[],0.8931,1,31.8523,32.3512,0,2,2,14,1,1015,NW,UN,16,miaber,THRALE,z,,,,,,,,,,,,,,,,,,,,,,,,,,,,,,,,,,,,,,,,,,,,,,,,,,,,,,,,,,,,,,,,,
,,,,31554,001,2025-10-18_17h52.10.662,HW_LDT_1,2024.2.4,MacIntel,63.29113924,,,,,,,,,,,,,,,,,,,,,,32.353,32.552,32.552,33.052,33.0529,33.7347,z,1,0.672,,[],[],[],[],[],[],[],0.672,1,33.7351,34.2354,0,3,3,11,1,1012,NW,"ID",16,rashet,RASHET,z,,,,,,,,,,,,,,,,,,,,,,,,,,,,,,,,,,,,,,,,,,,,,,,,,,,,,,,,,,,,,,,,,
,,,,31554,001,2025-10-18_17h52.10.662,HW_LDT_1,2024.2.4,MacIntel,63.29113924,,,,,,,,,,,,,,,,,,,,,,34.237,34.4353,34.4354,34.9354,34.9364,35.6525,m,1,0.7065,,[],[],[],[],[],[],[],0.7065,1,35.6526,36.1522,0,4,4,3,1,1004,WORD,"ID",16,matrix,MATRIX,m,,,,,,,,,,,,,,,,,,,,,,,,,,,,,,,,,,,,,,,,,,,,,,,,,,,,,,,,,,,,,,,,,
,,,,31554,001,2025-10-18_17h52.10.662,HW_LDT_1,2024.2.4,MacIntel,63.29113924,,,,,,,,,,,,,,,,,,,,,,36.1534,36.3521,36.3521,36.852,36.8533,37.4855,m,1,0.6116,,[],[],[],[],[],[],[],0.6116,1,37.4857,37.9854,0,5,5,2,1,1003,WORD,"ID",16,almond,ALMOND,m,,,,,,,,,,,,,,,,,,,,,,,,,,,,,,,,,,,,,,,,,,,,,,,,,,,,,,,,,,,,,,,,,
,,,,31554,001,2025-10-18_17h52.10.662,HW_LDT_1,2024.2.4,MacIntel,63.29113924,,,,,,,,,,,,,,,,,,,,,,37.9869,38.1853,38.1854,38.6845,38.6854,39.7845,z,1,1.0895,,[],[],[],[],[],[],[],1.0895,1,39.7847,40.2845,0,6,6,13,1,1014,NW,UN,33,winfer,ROUPET,z,,,,,,,,,,,,,,,,,,,,,,,,,,,,,,,,,,,,,,,,,,,,,,,,,,,,,,,,,,,,,,,,,
,,,,31554,001,2025-10-18_17h52.10.662,HW_LDT_1,2024.2.4,MacIntel,63.29113924,,,,,,,,,,,,,,,,,,,,,,40.286,40.4845,40.4846,40.9853,40.9862,41.9347,z,1,0.9265,,[],[],[],[],[],[],[],0.9265,1,41.9349,42.4345,0,7,7,15,1,1016,NW,UN,16,mushed,WHAISE,z,,,,,,,,,,,,,,,,,,,,,,,,,,,,,,,,,,,,,,,,,,,,,,,,,,,,,,,,,,,,,,,,,
,,,,31554,001,2025-10-18_17h52.10.662,HW_LDT_1,2024.2.4,MacIntel,63.29113924,,,,,,,,,,,,,,,,,,,,,,42.4359,42.6344,42.6344,43.1352,43.1362,43.9854,z,1,0.8316,,[],[],[],[],[],[],[],0.8316,1,43.9856,44.4845,0,8,8,8,1,1009,NW,"ID",33,aslert,ASLERT,z,,,,,,,,,,,,,,,,,,,,,,,,,,,,,,,,,,,,,,,,,,,,,,,,,,,,,,,,,,,,,,,,,
,,,,31554,001,2025-10-18_17h52.10.662,HW_LDT_1,2024.2.4,MacIntel,63.29113924,,,,,,,,,,,,,,,,,,,,,,44.4858,44.6844,44.6844,45.1852,45.1863,45.9021,m,1,0.6959,,[],[],[],[],[],[],[],0.6959,1,45.9022,46.4011,0,9,9,1,1,1002,WORD,"ID",33,adjust,ADJUST,m,,,,,,,,,,,,,,,,,,,,,,,,,,,,,,,,,,,,,,,,,,,,,,,,,,,,,,,,,,,,,,,,,
,,,,31554,001,2025-10-18_17h52.10.662,HW_LDT_1,2024.2.4,MacIntel,63.29113924,,,,,,,,,,,,,,,,,,,,,,46.4025,46.6019,46.602,47.1019,47.1029,48.4521,m,0,1.329,,[],[],[],[],[],[],[],1.329,0,48.4532,48.952,0,10,10,10,1,1011,NW,"ID",16,inlade,INLADE,z,,,,,,,,,,,,,,,,,,,,,,,,,,,,,,,,,,,,,,,,,,,,,,,,,,,,,,,,,,,,,,,,,
,,,,31554,001,2025-10-18_17h52.10.662,HW_LDT_1,2024.2.4,MacIntel,63.29113924,,,,,,,,,,,,,,,,,,,,,,48.9534,49.152,49.152,49.652,49.653,50.5355,z,1,0.8609,,[],[],[],[],[],[],[],0.8609,1,50.5365,51.0353,0,11,11,9,1,1010,NW,"ID",33,fariny,FARINY,z,,,,,,,,,,,,,,,,,,,,,,,,,,,,,,,,,,,,,,,,,,,,,,,,,,,,,,,,,,,,,,,,,
,,,,31554,001,2025-10-18_17h52.10.662,HW_LDT_1,2024.2.4,MacIntel,63.29113924,,,,,,,,,,,,,,,,,,,,,,51.0367,51.2352,51.2352,51.7352,51.7362,52.5186,m,1,0.7615,,[],[],[],[],[],[],[],0.7615,1,52.5189,53.0187,0,12,12,7,1,1008,WORD,UN,16,hurdle,VOLUME,m,,,,,,,,,,,,,,,,,,,,,,,,,,,,,,,,,,,,,,,,,,,,,,,,,,,,,,,,,,,,,,,,,
,,,,31554,001,2025-10-18_17h52.10.662,HW_LDT_1,2024.2.4,MacIntel,63.29113924,,,,,,,,,,,,,,,,,,,,,,53.0201,53.2186,53.2186,53.7185,53.7196,55.0186,m,1,1.2808,,[],[],[],[],[],[],[],1.2808,1,55.0188,55.5179,0,13,13,5,1,1006,WORD,UN,33,frenzy,OBTAIN,m,,,,,,,,,,,,,,,,,,,,,,,,,,,,,,,,,,,,,,,,,,,,,,,,,,,,,,,,,,,,,,,,,
,,,,31554,001,2025-10-18_17h52.10.662,HW_LDT_1,2024.2.4,MacIntel,63.29113924,,,,,,,,,,,,,,,,,,,,,,55.5193,55.7185,55.7186,56.2188,56.2198,57.0854,z,1,0.8561,,[],[],[],[],[],[],[],0.8561,1,57.0856,57.5849,0,14,14,12,1,1013,NW,UN,33,adveil,SPRINY,z,,,,,,,,,,,,,,,,,,,,,,,,,,,,,,,,,,,,,,,,,,,,,,,,,,,,,,,,,,,,,,,,,
,,,,31554,001,2025-10-18_17h52.10.662,HW_LDT_1,2024.2.4,MacIntel,63.29113924,,,,,,,,,,,,,,,,,,,,,,57.5864,57.7852,57.7853,58.2853,58.2862,59.0187,m,1,0.7117,,[],[],[],[],[],[],[],0.7117,1,59.0189,59.5185,0,15,15,6,1,1007,WORD,UN,16,tropic,ZOMBIE,m,,,,,,,,,,,,,,,,,,,,,,,,,,,,,,,,,,,,,,,,,,,,,,,,,,,,,,,,,,,,,,,,,
,,,,31554,001,2025-10-18_17h52.10.662,HW_LDT_1,2024.2.4,MacIntel,63.29113924,,,,,,,,,,,,,,,1,end_of_practice,"You have completed the practice trials. During the experimental trials, you will not receive feedback. On some trials you will be asked to report whether the item you just saw was in cursive or print. 
Before you begin, please ensure that you are in a comfortable and quiet location and will not be disturbed for about 15 minutes, as we cannot use your data if you do not complete all the trials. 
 When you are ready to start the experimental trials, please press space or touch the button below.",,,,,,,,,,,,,,,,,,,,,,,,,,,,,,,,,,,,,,59.5253,72.585,,-0.043780604,-0.383539343,1,0,0,instr_done_button_3,0,0,0,0,1,,,,,,,,,,,,,,,,,,,,,,,,,,,,,,,,,,,,,,,,,,,,,,,,,,,
,,,,31554,001,2025-10-18_17h52.10.662,HW_LDT_1,2024.2.4,MacIntel,63.29113924,,,,,,,,,,,,,,,,,,,,,,72.5942,72.7851,72.7853,73.2851,,,,,,,,,,,,,,1.4011,1,,,,,,,,,,,,,,z,,,,,,,,,,,,,,,1,0,73.2868,74.7025,z,1,1.4011,,[],[],[],[],[],[],[],74.7028,76.7021,76.7024,76.7053,[],[],[],[],[],[],[],,76.7054,76.7067,-0.043780604,-0.383539343,0,0,0,,0,0,0,60,1,1,TL,manire,print,manire_p.png,,,,,,
,,,,31554,001,2025-10-18_17h52.10.662,HW_LDT_1,2024.2.4,MacIntel,63.29113924,,,,,,,,,,,,,,,,,,,,,,76.7075,76.9018,76.9019,77.4017,,,,,,,,,,,,,,2.6718,1,,,,,,,,,,,,,,z,,,,,,,,,,,,,,,2,0,77.4025,80.0852,z,1,2.6718,,[],[],[],[],[],[],[],80.0854,82.0847,82.0848,82.0851,[],[],[],[],[],[],[],,82.0852,82.0854,-0.043780604,-0.383539343,0,0,0,,0,1,1,77,1,1,TL,tritube,cursive,tritube_c.png,,,,,,
,,,,31554,001,2025-10-18_17h52.10.662,HW_LDT_1,2024.2.4,MacIntel,63.29113924,,,,,,,,,,,,,,,,,,,,,,82.0868,82.2851,82.2852,82.7851,,,,,,,,,,,,,,3.7209,0,,,,,,,,,,,,,,m,,,,,,,,,,,,,,,3,0,82.7858,86.5185,z,0,3.7209,,[],[],[],[],[],[],[],86.5187,88.5184,88.5185,88.5188,[],[],[],[],[],[],[],,88.5189,88.5192,-0.043780604,-0.383539343,0,0,0,,0,2,2,125,1,1,word,OPERATOR,cursive,operator_c.png,,,,,,
,,,,31554,001,2025-10-18_17h52.10.662,HW_LDT_1,2024.2.4,MacIntel,63.29113924,,,,,,,,,,,,,,,,,,,,,,88.5205,88.7184,88.7184,89.2184,,,,,,,,,,,,,,1.4318,1,,,,,,,,,,,,,,z,,,,,,,,,,,,,,,4,0,89.2191,90.6518,z,1,1.4318,,[],[],[],[],[],[],[],90.6519,92.6512,92.6513,92.6516,[],[],[],[],[],[],[],,92.6517,92.6518,-0.043780604,-0.383539343,0,0,0,,0,3,3,19,1,1,RL,monebate,print,monebate_p.png,,,,,,
,,,,31554,001,2025-10-18_17h52.10.662,HW_LDT_1,2024.2.4,MacIntel,63.29113924,,,,,,,,,,,,,,,,,,,,,,92.653,92.8517,92.8517,93.3517,,,,,,,,,,,,,,0.8467,1,,,,,,,,,,,,,,m,,,,,,,,,,,,,,,5,0,93.3524,94.2017,m,1,0.8467,,[],[],[],[],[],[],[],94.2019,96.2018,96.2018,96.2022,[],[],[],[],[],[],[],,96.2022,96.2023,-0.043780604,-0.383539343,0,0,0,,0,4,4,132,1,1,word,PROPOSAL,cursive,proposal_c.png,,,,,,
,,,,31554,001,2025-10-18_17h52.10.662,HW_LDT_1,2024.2.4,MacIntel,63.29113924,,,,,,,,,,,,,,,,,,,,,,96.2035,96.4017,96.4017,96.9016,,,,,,,,,,,,,,0.8318,1,,,,,,,,,,,,,,m,,,,,,,,,,,,,,,6,1,96.9025,97.7353,m,1,0.8318,,[],[],[],[],[],[],[],97.7355,99.7349,99.7351,101.202,[],[],[],[],[],[],[],z,101.2022,101.2024,-0.043780604,-0.383539343,0,0,0,,0,5,5,154,1,1,word,STORAGE,cursive,storage_c.png,1.4542,,,,,
,,,,31554,001,2025-10-18_17h52.10.662,HW_LDT_1,2024.2.4,MacIntel,63.29113924,,,,,,,,,,,,,,,,,,,,,,101.2038,101.4016,101.4017,101.9016,,,,,,,,,,,,,,0.7115,1,,,,,,,,,,,,,,m,,,,,,,,,,,,,,,7,1,101.9022,102.6184,m,1,0.7115,,[],[],[],[],[],[],[],102.6185,104.6184,104.6184,105.9518,[],[],[],[],[],[],[],m,105.952,105.9521,-0.043780604,-0.383539343,0,0,0,,0,6,6,91,1,1,word,CARDINAL,print,cardinal_p.png,1.3212,,,,,
,,,,31554,001,2025-10-18_17h52.10.662,HW_LDT_1,2024.2.4,MacIntel,63.29113924,,,,,,,,,,,,,,,,,,,,,,105.9533,106.1518,106.1518,106.6517,,,,,,,,,,,,,,0.921,1,,,,,,,,,,,,,,z,,,,,,,,,,,,,,,8,0,106.6523,107.5851,z,1,0.921,,[],[],[],[],[],[],[],107.5852,109.585,109.5851,109.5855,[],[],[],[],[],[],[],,109.5856,109.5857,-0.043780604,-0.383539343,0,0,0,,0,7,7,8,1,1,RL,debave,print,debave_p.png,,,,,,
,,,,31554,001,2025-10-18_17h52.10.662,HW_LDT_1,2024.2.4,MacIntel,63.29113924,,,,,,,,,,,,,,,,,,,,,,109.587,109.785,109.785,110.2849,,,,,,,,,,,,,,0.8702,1,,,,,,,,,,,,,,z,,,,,,,,,,,,,,,9,0,110.2855,111.1683,z,1,0.8702,,[],[],[],[],[],[],[],111.1685,113.1683,113.1683,113.1686,[],[],[],[],[],[],[],,113.1686,113.1688,-0.043780604,-0.383539343,0,0,0,,0,8,8,12,1,1,RL,ebiwent,print,ebiwent_p.png,,,,,,
,,,,31554,001,2025-10-18_17h52.10.662,HW_LDT_1,2024.2.4,MacIntel,63.29113924,,,,,,,,,,,,,,,,,,,,,,113.1702,113.3683,113.3684,113.8679,,,,,,,,,,,,,,1.0153,1,,,,,,,,,,,,,,z,,,,,,,,,,,,,,,10,0,113.8687,114.8851,z,1,1.0153,,[],[],[],[],[],[],[],114.8852,116.8848,116.8849,116.8851,[],[],[],[],[],[],[],,116.8852,116.8853,-0.043780604,-0.383539343,0,0,0,,0,9,9,11,1,1,RL,elacodate,print,elacodate_p.png,,,,,,
,,,,31554,001,2025-10-18_17h52.10.662,HW_LDT_1,2024.2.4,MacIntel,63.29113924,,,,,,,,,,,,,,,,,,,,,,116.8866,117.0848,117.0849,117.5838,,,,,,,,,,,,,,3.3804,0,,,,,,,,,,,,,,m,,,,,,,,,,,,,,,11,0,117.5845,120.9682,z,0,3.3804,,[],[],[],[],[],[],[],120.9683,122.9682,122.9683,122.9685,[],[],[],[],[],[],[],,122.9685,122.9688,-0.043780604,-0.383539343,0,0,0,,0,10,10,111,1,1,word,INDICATE,cursive,indicate_c.png,,,,,,
,,,,31554,001,2025-10-18_17h52.10.662,HW_LDT_1,2024.2.4,MacIntel,63.29113924,,,,,,,,,,,,,,,,,,,,,,122.97,123.1682,123.1682,123.6681,,,,,,,,,,,,,,4.387,1,,,,,,,,,,,,,,z,,,,,,,,,,,,,,,12,1,123.6687,128.0682,z,1,4.387,,[],[],[],[],[],[],[],128.0683,130.0681,130.0681,130.9172,[],[],[],[],[],[],[],z,130.9173,130.9175,-0.043780604,-0.383539343,0,0,0,,0,11,11,15,1,1,RL,losipal,cursive,losipal_c.png,0.8368,,,,,
,,,,31554,001,2025-10-18_17h52.10.662,HW_LDT_1,2024.2.4,MacIntel,63.29113924,,,,,,,,,,,,,,,,,,,,,,130.9189,131.1181,131.1181,131.6182,,,,,,,,,,,,,,0.8368,1,,,,,,,,,,,,,,m,,,,,,,,,,,,,,,13,1,131.6187,132.4682,m,1,0.8368,,[],[],[],[],[],[],[],132.4683,134.4682,134.4682,135.3682,[],[],[],[],[],[],[],m,135.3683,135.3686,-0.043780604,-0.383539343,0,0,0,,0,12,12,148,1,1,word,SALINE,print,saline_p.png,0.8993,,,,,
,,,,31554,001,2025-10-18_17h52.10.662,HW_LDT_1,2024.2.4,MacIntel,63.29113924,,,,,,,,,,,,,,,,,,,,,,135.3698,135.5681,135.5682,136.0671,,,,,,,,,,,,,,0.7093,1,,,,,,,,,,,,,,m,,,,,,,,,,,,,,,14,0,136.0677,136.7848,m,1,0.7093,,[],[],[],[],[],[],[],136.7849,138.7837,138.7838,138.784,[],[],[],[],[],[],[],,138.7841,138.7843,-0.043780604,-0.383539343,0,0,0,,0,13,13,114,1,1,word,LOCATE,print,locate_p.png,,,,,,
,,,,31554,001,2025-10-18_17h52.10.662,HW_LDT_1,2024.2.4,MacIntel,63.29113924,,,,,,,,,,,,,,,,,,,,,,138.7854,138.9847,138.9848,139.484,,,,,,,,,,,,,,0.8146,0,,,,,,,,,,,,,,z,,,,,,,,,,,,,,,15,0,139.4847,140.3005,m,0,0.8146,,[],[],[],[],[],[],[],140.3008,142.3014,142.3015,142.3017,[],[],[],[],[],[],[],,142.3017,142.3018,-0.043780604,-0.383539343,0,0,0,,0,14,14,49,1,1,TL,clicinal,cursive,clicinal_c.png,,,,,,
,,,,31554,001,2025-10-18_17h52.10.662,HW_LDT_1,2024.2.4,MacIntel,63.29113924,,,,,,,,,,,,,,,,,,,,,,142.303,142.5004,142.5004,143.0014,,,,,,,,,,,,,,0.9529,1,,,,,,,,,,,,,,m,,,,,,,,,,,,,,,16,0,143.002,143.9675,m,1,0.9529,,[],[],[],[],[],[],[],143.9676,145.968,145.968,145.9683,[],[],[],[],[],[],[],,145.9684,145.9685,-0.043780604,-0.383539343,0,0,0,,0,15,15,150,1,1,word,SENTIMENT,cursive,sentiment_c.png,,,,,,
,,,,31554,001,2025-10-18_17h52.10.662,HW_LDT_1,2024.2.4,MacIntel,63.29113924,,,,,,,,,,,,,,,,,,,,,,145.9698,146.1671,146.1671,146.668,,,,,,,,,,,,,,0.9372,1,,,,,,,,,,,,,,z,,,,,,,,,,,,,,,17,0,146.6686,147.6181,z,1,0.9372,,[],[],[],[],[],[],[],147.6182,149.6173,149.6173,149.6175,[],[],[],[],[],[],[],,149.6176,149.6177,-0.043780604,-0.383539343,0,0,0,,0,16,16,24,1,1,RL,probice,print,probice_p.png,,,,,,
,,,,31554,001,2025-10-18_17h52.10.662,HW_LDT_1,2024.2.4,MacIntel,63.29113924,,,,,,,,,,,,,,,,,,,,,,149.619,149.817,149.8172,150.318,,,,,,,,,,,,,,2.7241,1,,,,,,,,,,,,,,m,,,,,,,,,,,,,,,18,0,150.3186,153.0514,m,1,2.7241,,[],[],[],[],[],[],[],153.0517,155.0508,155.0509,155.0511,[],[],[],[],[],[],[],,155.0512,155.0513,-0.043780604,-0.383539343,0,0,0,,0,17,17,101,1,1,word,DELICATE,cursive,delicate_c.png,,,,,,
,,,,31554,001,2025-10-18_17h52.10.662,HW_LDT_1,2024.2.4,MacIntel,63.29113924,,,,,,,,,,,,,,,,,,,,,,155.0526,155.2514,155.2515,155.7514,,,,,,,,,,,,,,0.8704,1,,,,,,,,,,,,,,z,,,,,,,,,,,,,,,19,0,155.752,156.6338,z,1,0.8704,,[],[],[],[],[],[],[],156.6338,158.6346,158.6347,158.635,[],[],[],[],[],[],[],,158.6351,158.6353,-0.043780604,-0.383539343,0,0,0,,0,18,18,4,1,1,RL,carminal,print,carminal_p.png,,,,,,
,,,,31554,001,2025-10-18_17h52.10.662,HW_LDT_1,2024.2.4,MacIntel,63.29113924,,,,,,,,,,,,,,,,,,,,,,158.6365,158.8339,158.8339,159.3346,,,,,,,,,,,,,,2.163,1,,,,,,,,,,,,,,m,,,,,,,,,,,,,,,20,0,159.3353,161.5013,m,1,2.163,,[],[],[],[],[],[],[],161.5014,163.5013,163.5015,163.5017,[],[],[],[],[],[],[],,163.5017,163.5019,-0.043780604,-0.383539343,0,0,0,,0,19,19,110,1,1,word,HERITAGE,cursive,heritage_c.png,,,,,,
,,,,31554,001,2025-10-18_17h52.10.662,HW_LDT_1,2024.2.4,MacIntel,63.29113924,,,,,,,,,,,,,,,,,,,,,,163.503,163.7013,163.7013,164.2013,,,,,,,,,,,,,,0.9489,1,,,,,,,,,,,,,,m,,,,,,,,,,,,,,,21,0,164.2018,165.1519,m,1,0.9489,,[],[],[],[],[],[],[],165.152,167.1503,167.1503,167.1506,[],[],[],[],[],[],[],,167.1506,167.1508,-0.043780604,-0.383539343,0,0,0,,0,20,20,86,1,1,word,BESIDE,print,beside_p.png,,,,,,
,,,,31554,001,2025-10-18_17h52.10.662,HW_LDT_1,2024.2.4,MacIntel,63.29113924,,,,,,,,,,,,,,,,,,,,,,167.152,167.3512,167.3512,167.8514,,,,,,,,,,,,,,1.5202,0,,,,,,,,,,,,,,m,,,,,,,,,,,,,,,22,0,167.8519,169.3837,z,0,1.5202,,[],[],[],[],[],[],[],169.3837,171.3847,171.3848,171.3849,[],[],[],[],[],[],[],,171.385,171.3852,-0.043780604,-0.383539343,0,0,0,,0,21,21,81,1,1,word,ADVISORY,cursive,advisory_c.png,,,,,,
,,,,31554,001,2025-10-18_17h52.10.662,HW_LDT_1,2024.2.4,MacIntel,63.29113924,,,,,,,,,,,,,,,,,,,,,,171.3863,171.5836,171.5836,172.0846,,,,,,,,,,,,,,2.2382,0,,,,,,,,,,,,,,z,,,,,,,,,,,,,,,23,1,172.0852,174.3347,m,0,2.2382,,[],[],[],[],[],[],[],174.3348,176.3345,176.3346,178.0513,[],[],[],[],[],[],[],z,178.0515,178.0516,-0.043780604,-0.383539343,0,0,0,,0,22,22,52,1,1,TL,decilate,cursive,decilate_c.png,1.7038,,,,,
,,,,31554,001,2025-10-18_17h52.10.662,HW_LDT_1,2024.2.4,MacIntel,63.29113924,,,,,,,,,,,,,,,,,,,,,,178.0528,178.2512,178.2512,178.7512,,,,,,,,,,,,,,2.3402,1,,,,,,,,,,,,,,m,,,,,,,,,,,,,,,24,0,178.7517,181.1004,m,1,2.3402,,[],[],[],[],[],[],[],181.1005,183.1012,183.1012,183.1014,[],[],[],[],[],[],[],,183.1015,183.1016,-0.043780604,-0.383539343,0,0,0,,0,23,23,136,1,1,word,RADICAL,print,radical_p.png,,,,,,
,,,,31554,001,2025-10-18_17h52.10.662,HW_LDT_1,2024.2.4,MacIntel,63.29113924,,,,,,,,,,,,,,,,,,,,,,183.1029,183.3002,183.3003,183.8013,,,,,,,,,,,,,,3.9462,1,,,,,,,,,,,,,,z,,,,,,,,,,,,,,,25,0,183.8018,187.7512,z,1,3.9462,,[],[],[],[],[],[],[],187.7513,189.7512,189.7512,189.7515,[],[],[],[],[],[],[],,189.7515,189.7516,-0.043780604,-0.383539343,0,0,0,,0,24,24,57,1,1,TL,hetirage,cursive,hetirage_c.png,,,,,,
,,,,31554,001,2025-10-18_17h52.10.662,HW_LDT_1,2024.2.4,MacIntel,63.29113924,,,,,,,,,,,,,,,,,,,,,,189.753,189.9502,189.9503,190.4511,,,,,,,,,,,,,,1.4694,1,,,,,,,,,,,,,,m,,,,,,,,,,,,,,,26,0,190.4517,191.9345,m,1,1.4694,,[],[],[],[],[],[],[],191.9347,193.9335,193.9336,193.9338,[],[],[],[],[],[],[],,193.9339,193.934,-0.043780604,-0.383539343,0,0,0,,0,25,25,147,1,1,word,ROMANTIC,cursive,romantic_c.png,,,,,,
,,,,31554,001,2025-10-18_17h52.10.662,HW_LDT_1,2024.2.4,MacIntel,63.29113924,,,,,,,,,,,,,,,,,,,,,,193.9352,194.1343,194.1344,194.6344,,,,,,,,,,,,,,3.1987,1,,,,,,,,,,,,,,z,,,,,,,,,,,,,,,27,0,194.635,197.8345,z,1,3.1987,,[],[],[],[],[],[],[],197.8347,199.8344,199.8345,199.8347,[],[],[],[],[],[],[],,199.8349,199.8349,-0.043780604,-0.383539343,0,0,0,,0,26,26,9,1,1,RL,docirant,cursive,docirant_c.png,,,,,,
,,,,31554,001,2025-10-18_17h52.10.662,HW_LDT_1,2024.2.4,MacIntel,63.29113924,,,,,,,,,,,,,,,,,,,,,,199.8363,200.0344,200.0344,200.5344,,,,,,,,,,,,,,3.4985,0,,,,,,,,,,,,,,m,,,,,,,,,,,,,,,28,0,200.5349,204.0345,z,0,3.4985,,[],[],[],[],[],[],[],204.0346,206.0344,206.0345,206.0347,[],[],[],[],[],[],[],,206.0349,206.035,-0.043780604,-0.383539343,0,0,0,,0,27,27,149,1,1,word,SENATOR,cursive,senator_c.png,,,,,,
,,,,31554,001,2025-10-18_17h52.10.662,HW_LDT_1,2024.2.4,MacIntel,63.29113924,,,,,,,,,,,,,,,,,,,,,,206.0363,206.2344,206.2345,206.7344,,,,,,,,,,,,,,2.0904,1,,,,,,,,,,,,,,z,,,,,,,,,,,,,,,29,1,206.735,208.8337,z,1,2.0904,,[],[],[],[],[],[],[],208.8339,210.8334,210.8335,211.8508,[],[],[],[],[],[],[],m,211.8509,211.851,-0.043780604,-0.383539343,0,0,0,,0,28,28,56,1,1,TL,grafetul,print,grafetul_p.png,1.0155,,,,,
,,,,31554,001,2025-10-18_17h52.10.662,HW_LDT_1,2024.2.4,MacIntel,63.29113924,,,,,,,,,,,,,,,,,,,,,,211.8517,212.05,212.0501,212.551,,,,,,,,,,,,,,1.1706,1,,,,,,,,,,,,,,m,,,,,,,,,,,,,,,30,0,212.5516,213.7344,m,1,1.1706,,[],[],[],[],[],[],[],213.7346,215.7343,215.7343,215.7346,[],[],[],[],[],[],[],,215.7346,215.7347,-0.043780604,-0.383539343,0,0,0,,0,29,29,134,1,1,word,QUALIFY,cursive,qualify_c.png,,,,,,
,,,,31554,001,2025-10-18_17h52.10.662,HW_LDT_1,2024.2.4,MacIntel,63.29113924,,,,,,,,,,,,,,,,,,,,,,215.7359,215.9343,215.9344,216.4333,,,,,,,,,,,,,,1.1548,1,,,,,,,,,,,,,,m,,,,,,,,,,,,,,,31,0,216.434,217.6012,m,1,1.1548,,[],[],[],[],[],[],[],217.6013,219.601,219.6011,219.6014,[],[],[],[],[],[],[],,219.6014,219.6015,-0.043780604,-0.383539343,0,0,0,,0,30,30,155,1,1,word,STRATEGY,cursive,strategy_c.png,,,,,,
,,,,31554,001,2025-10-18_17h52.10.662,HW_LDT_1,2024.2.4,MacIntel,63.29113924,,,,,,,,,,,,,,,,,,,,,,219.6029,219.801,219.801,220.301,,,,,,,,,,,,,,3.3536,1,,,,,,,,,,,,,,z,,,,,,,,,,,,,,,32,0,220.3015,223.6678,z,1,3.3536,,[],[],[],[],[],[],[],223.6678,225.6667,225.6668,225.6669,[],[],[],[],[],[],[],,225.667,225.6671,-0.043780604,-0.383539343,0,0,0,,0,31,31,71,1,1,TL,regilion,cursive,regilion_c.png,,,,,,
,,,,31554,001,2025-10-18_17h52.10.662,HW_LDT_1,2024.2.4,MacIntel,63.29113924,,,,,,,,,,,,,,,,,,,,,,225.6683,225.8676,225.8677,226.3676,,,,,,,,,,,,,,1.4203,1,,,,,,,,,,,,,,z,,,,,,,,,,,,,,,33,0,226.3682,227.801,z,1,1.4203,,[],[],[],[],[],[],[],227.8011,229.801,229.8011,229.8013,[],[],[],[],[],[],[],,229.8014,229.8014,-0.043780604,-0.383539343,0,0,0,,0,32,32,39,1,1,RL,vabifity,cursive,vabifity_c.png,,,,,,
,,,,31554,001,2025-10-18_17h52.10.662,HW_LDT_1,2024.2.4,MacIntel,63.29113924,,,,,,,,,,,,,,,,,,,,,,229.8028,230.0009,230.001,230.501,,,,,,,,,,,,,,0.8651,1,,,,,,,,,,,,,,m,,,,,,,,,,,,,,,34,0,230.5014,231.3676,m,1,0.8651,,[],[],[],[],[],[],[],231.3676,233.3675,233.3675,233.3678,[],[],[],[],[],[],[],,233.3679,233.368,-0.043780604,-0.383539343,0,0,0,,0,33,33,156,1,1,word,TRIBUTE,cursive,tribute_c.png,,,,,,
,,,,31554,001,2025-10-18_17h52.10.662,HW_LDT_1,2024.2.4,MacIntel,63.29113924,,,,,,,,,,,,,,,,,,,,,,233.3691,233.5666,233.5666,234.0666,,,,,,,,,,,,,,0.7214,1,,,,,,,,,,,,,,m,,,,,,,,,,,,,,,35,0,234.0672,234.8011,m,1,0.7214,,[],[],[],[],[],[],[],234.8012,236.8008,236.8009,236.801,[],[],[],[],[],[],[],,236.8011,236.8013,-0.043780604,-0.383539343,0,0,0,,0,34,34,139,1,1,word,REGULAR,print,regular_p.png,,,,,,
,,,,31554,001,2025-10-18_17h52.10.662,HW_LDT_1,2024.2.4,MacIntel,63.29113924,,,,,,,,,,,,,,,,,,,,,,236.8025,236.9999,237,237.4999,,,,,,,,,,,,,,2.7252,1,,,,,,,,,,,,,,z,,,,,,,,,,,,,,,36,0,237.5005,240.2343,z,1,2.7252,,[],[],[],[],[],[],[],240.2343,242.2342,242.2342,242.2345,[],[],[],[],[],[],[],,242.2346,242.2346,-0.043780604,-0.383539343,0,0,0,,0,35,35,0,1,1,RL,abanemy,cursive,abanemy_c.png,,,,,,
,,,,31554,001,2025-10-18_17h52.10.662,HW_LDT_1,2024.2.4,MacIntel,63.29113924,,,,,,,,,,,,,,,,,,,,,,242.2359,242.4341,242.4343,242.9342,,,,,,,,,,,,,,1.2396,1,,,,,,,,,,,,,,m,,,,,,,,,,,,,,,37,0,242.9348,244.1842,m,1,1.2396,,[],[],[],[],[],[],[],244.1843,246.1832,246.1833,246.1834,[],[],[],[],[],[],[],,246.1835,246.1836,-0.043780604,-0.383539343,0,0,0,,0,36,36,157,1,1,word,VALIDITY,cursive,validity_c.png,,,,,,
,,,,31554,001,2025-10-18_17h52.10.662,HW_LDT_1,2024.2.4,MacIntel,63.29113924,,,,,,,,,,,,,,,,,,,,,,246.1848,246.3842,246.3842,246.8841,,,,,,,,,,,,,,1.1539,1,,,,,,,,,,,,,,z,,,,,,,,,,,,,,,38,0,246.8847,248.0509,z,1,1.1539,,[],[],[],[],[],[],[],248.051,250.0508,250.0509,250.0511,[],[],[],[],[],[],[],,250.0512,250.0512,-0.043780604,-0.383539343,0,0,0,,0,37,37,34,1,1,RL,samite,print,samite_p.png,,,,,,
,,,,31554,001,2025-10-18_17h52.10.662,HW_LDT_1,2024.2.4,MacIntel,63.29113924,,,,,,,,,,,,,,,,,,,,,,250.0524,250.2499,250.25,250.7508,,,,,,,,,,,,,,0.7527,1,,,,,,,,,,,,,,m,,,,,,,,,,,,,,,39,0,250.7514,251.5168,m,1,0.7527,,[],[],[],[],[],[],[],251.517,253.5175,253.5176,253.5178,[],[],[],[],[],[],[],,253.5179,253.518,-0.043780604,-0.383539343,0,0,0,,0,38,38,124,1,1,word,NUMERICAL,print,numerical_p.png,,,,,,
,,,,31554,001,2025-10-18_17h52.10.662,HW_LDT_1,2024.2.4,MacIntel,63.29113924,,,,,,,,,,,,,,,,,,,,,,253.5191,253.7165,253.7165,254.2165,,,,,,,,,,,,,,1.133,1,,,,,,,,,,,,,,m,,,,,,,,,,,,,,,40,0,254.2171,255.351,m,1,1.133,,[],[],[],[],[],[],[],255.3512,257.3508,257.3508,257.3511,[],[],[],[],[],[],[],,257.3512,257.3513,-0.043780604,-0.383539343,0,0,0,,0,39,39,120,1,1,word,MILITARY,print,military_p.png,,,,,,
,,,,31554,001,2025-10-18_17h52.10.662,HW_LDT_1,2024.2.4,MacIntel,63.29113924,,,,,,,,,,,,,,,,,,,,,,257.3525,257.5498,257.5499,258.0507,,,,,,,,,,,,,,1.1227,1,,,,,,,,,,,,,,m,,,,,,,,,,,,,,,41,0,258.0513,259.1834,m,1,1.1227,,[],[],[],[],[],[],[],259.1836,261.184,261.1841,261.1843,[],[],[],[],[],[],[],,261.1844,261.1845,-0.043780604,-0.383539343,0,0,0,,0,40,40,117,1,1,word,MARINE,print,marine_p.png,,,,,,
,,,,31554,001,2025-10-18_17h52.10.662,HW_LDT_1,2024.2.4,MacIntel,63.29113924,,,,,,,,,,,,,,,,,,,,,,261.1857,261.3841,261.3842,261.884,,,,,,,,,,,,,,2.2322,1,,,,,,,,,,,,,,z,,,,,,,,,,,,,,,42,0,261.8847,264.1178,z,1,2.2322,,[],[],[],[],[],[],[],264.1179,266.1164,266.1166,266.1167,[],[],[],[],[],[],[],,266.1168,266.1169,-0.043780604,-0.383539343,0,0,0,,0,41,41,44,1,1,TL,cateferia,cursive,cateferia_c.png,,,,,,
,,,,31554,001,2025-10-18_17h52.10.662,HW_LDT_1,2024.2.4,MacIntel,63.29113924,,,,,,,,,,,,,,,,,,,,,,266.1182,266.3173,266.3174,266.8174,,,,,,,,,,,,,,0.835,1,,,,,,,,,,,,,,z,,,,,,,,,,,,,,,43,0,266.8179,267.6673,z,1,0.835,,[],[],[],[],[],[],[],267.6674,269.6674,269.6676,269.6679,[],[],[],[],[],[],[],,269.6679,269.6681,-0.043780604,-0.383539343,0,0,0,,0,42,42,27,1,1,RL,rasibal,print,rasibal_p.png,,,,,,
,,,,31554,001,2025-10-18_17h52.10.662,HW_LDT_1,2024.2.4,MacIntel,63.29113924,,,,,,,,,,,,,,,,,,,,,,269.6698,269.8671,269.8672,270.3673,,,,,,,,,,,,,,1.0034,1,,,,,,,,,,,,,,z,,,,,,,,,,,,,,,44,0,270.368,271.3841,z,1,1.0034,,[],[],[],[],[],[],[],271.3842,273.3839,273.384,273.3842,[],[],[],[],[],[],[],,273.3843,273.3845,-0.043780604,-0.383539343,0,0,0,,0,43,43,43,1,1,TL,bedise,print,bedise_p.png,,,,,,
,,,,31554,001,2025-10-18_17h52.10.662,HW_LDT_1,2024.2.4,MacIntel,63.29113924,,,,,,,,,,,,,,,,,,,,,,273.3857,273.583,273.5832,274.0831,,,,,,,,,,,,,,1.4376,1,,,,,,,,,,,,,,m,,,,,,,,,,,,,,,45,1,274.0837,275.5341,m,1,1.4376,,[],[],[],[],[],[],[],275.5341,277.5341,277.5341,281.9174,[],[],[],[],[],[],[],z,281.9176,281.9178,-0.043780604,-0.383539343,0,0,0,,0,44,44,141,1,1,word,RELIGION,cursive,religion_c.png,4.3719,,,,,
,,,,31554,001,2025-10-18_17h52.10.662,HW_LDT_1,2024.2.4,MacIntel,63.29113924,,,,,,,,,,,,,,,,,,,,,,281.9191,282.1172,282.1173,282.6163,,,,,,,,,,,,,,1.1664,1,,,,,,,,,,,,,,z,,,,,,,,,,,,,,,46,0,282.617,283.7843,z,1,1.1664,,[],[],[],[],[],[],[],283.7845,285.7839,285.784,285.7842,[],[],[],[],[],[],[],,285.7842,285.7844,-0.043780604,-0.383539343,0,0,0,,0,45,45,37,1,1,RL,skofen,print,skofen_p.png,,,,,,
,,,,31554,001,2025-10-18_17h52.10.662,HW_LDT_1,2024.2.4,MacIntel,63.29113924,,,,,,,,,,,,,,,,,,,,,,285.7856,285.984,285.984,286.4833,,,,,,,,,,,,,,1.6038,1,,,,,,,,,,,,,,z,,,,,,,,,,,,,,,47,0,286.4839,288.1007,z,1,1.6038,,[],[],[],[],[],[],[],288.1007,290.0996,290.0997,290.0998,[],[],[],[],[],[],[],,290.0999,290.1001,-0.043780604,-0.383539343,0,0,0,,0,46,46,70,1,1,TL,relugar,print,relugar_p.png,,,,,,
,,,,31554,001,2025-10-18_17h52.10.662,HW_LDT_1,2024.2.4,MacIntel,63.29113924,,,,,,,,,,,,,,,,,,,,,,290.1013,290.3006,290.3007,290.8006,,,,,,,,,,,,,,0.8297,0,,,,,,,,,,,,,,z,,,,,,,,,,,,,,,48,0,290.8012,291.6338,m,0,0.8297,,[],[],[],[],[],[],[],291.6339,293.6339,293.634,293.6342,[],[],[],[],[],[],[],,293.6343,293.6344,-0.043780604,-0.383539343,0,0,0,,0,47,47,45,1,1,TL,cacapity,print,cacapity_p.png,,,,,,
,,,,31554,001,2025-10-18_17h52.10.662,HW_LDT_1,2024.2.4,MacIntel,63.29113924,,,,,,,,,,,,,,,,,,,,,,293.6357,293.8329,293.8329,294.3339,,,,,,,,,,,,,,3.8414,1,,,,,,,,,,,,,,z,,,,,,,,,,,,,,,49,0,294.3344,298.184,z,1,3.8414,,[],[],[],[],[],[],[],298.1841,300.1838,300.1839,300.1841,[],[],[],[],[],[],[],,300.1842,300.1842,-0.043780604,-0.383539343,0,0,0,,0,48,48,48,1,1,TL,cemerony,cursive,cemerony_c.png,,,,,,
,,,,31554,001,2025-10-18_17h52.10.662,HW_LDT_1,2024.2.4,MacIntel,63.29113924,,,,,,,,,,,,,,,,,,,,,,300.1855,300.3839,300.3839,300.8829,,,,,,,,,,,,,,1.7083,1,,,,,,,,,,,,,,z,,,,,,,,,,,,,,,50,0,300.8835,302.6005,z,1,1.7083,,[],[],[],[],[],[],[],302.6007,304.6004,304.6005,304.6008,[],[],[],[],[],[],[],,304.6008,304.6009,-0.043780604,-0.383539343,0,0,0,,0,49,49,31,1,1,RL,reconal,cursive,reconal_c.png,,,,,,
,,,,31554,001,2025-10-18_17h52.10.662,HW_LDT_1,2024.2.4,MacIntel,63.29113924,,,,,,,,,,,,,,,,,,,,,,304.6021,304.8,304.8,305.2996,,,,,,,,,,,,,,2.4885,1,,,,,,,,,,,,,,z,,,,,,,,,,,,,,,51,0,305.3002,307.8007,z,1,2.4885,,[],[],[],[],[],[],[],307.8008,309.8005,309.8005,309.8008,[],[],[],[],[],[],[],,309.8009,309.801,-0.043780604,-0.383539343,0,0,0,,0,50,50,53,1,1,TL,dentisy,cursive,dentisy_c.png,,,,,,
,,,,31554,001,2025-10-18_17h52.10.662,HW_LDT_1,2024.2.4,MacIntel,63.29113924,,,,,,,,,,,,,,,,,,,,,,309.8022,310.0004,310.0005,310.5006,,,,,,,,,,,,,,0.6917,1,,,,,,,,,,,,,,m,,,,,,,,,,,,,,,52,0,310.5012,311.2006,m,1,0.6917,,[],[],[],[],[],[],[],311.2007,313.1995,313.1996,313.1998,[],[],[],[],[],[],[],,313.1998,313.1999,-0.043780604,-0.383539343,0,0,0,,0,51,51,113,1,1,word,LITERAL,print,literal_p.png,,,,,,
,,,,31554,001,2025-10-18_17h52.10.662,HW_LDT_1,2024.2.4,MacIntel,63.29113924,,,,,,,,,,,,,,,,,,,,,,313.2012,313.4005,313.4005,313.9005,,,,,,,,,,,,,,1.4985,1,,,,,,,,,,,,,,z,,,,,,,,,,,,,,,53,0,313.9009,315.4006,z,1,1.4985,,[],[],[],[],[],[],[],315.4008,317.3995,317.3996,317.3999,[],[],[],[],[],[],[],,317.3999,317.4,-0.043780604,-0.383539343,0,0,0,,0,52,52,46,1,1,TL,catipal,print,catipal_p.png,,,,,,
,,,,31554,001,2025-10-18_17h52.10.662,HW_LDT_1,2024.2.4,MacIntel,63.29113924,,,,,,,,,,,,,,,,,,,,,,317.4012,317.5997,317.5998,318.1004,,,,,,,,,,,,,,2.3655,1,,,,,,,,,,,,,,m,,,,,,,,,,,,,,,54,0,318.1009,320.4674,m,1,2.3655,,[],[],[],[],[],[],[],320.4674,322.4671,322.4672,322.4674,[],[],[],[],[],[],[],,322.4674,322.4675,-0.043780604,-0.383539343,0,0,0,,0,53,53,88,1,1,word,CAMERA,cursive,camera_c.png,,,,,,
,,,,31554,001,2025-10-18_17h52.10.662,HW_LDT_1,2024.2.4,MacIntel,63.29113924,,,,,,,,,,,,,,,,,,,,,,322.4688,322.6661,322.6661,323.1663,,,,,,,,,,,,,,3.9594,1,,,,,,,,,,,,,,z,,,,,,,,,,,,,,,55,0,323.1668,327.1338,z,1,3.9594,,[],[],[],[],[],[],[],327.1341,329.1338,329.1339,329.134,[],[],[],[],[],[],[],,329.1341,329.1342,-0.043780604,-0.383539343,0,0,0,,0,54,54,36,1,1,RL,speniven,cursive,speniven_c.png,,,,,,
,,,,31554,001,2025-10-18_17h52.10.662,HW_LDT_1,2024.2.4,MacIntel,63.29113924,,,,,,,,,,,,,,,,,,,,,,329.1354,329.3336,329.3336,329.8328,,,,,,,,,,,,,,1.4495,1,,,,,,,,,,,,,,z,,,,,,,,,,,,,,,56,0,329.8333,331.2838,z,1,1.4495,,[],[],[],[],[],[],[],331.2838,333.2837,333.2837,333.2839,[],[],[],[],[],[],[],,333.2839,333.284,-0.043780604,-0.383539343,0,0,0,,0,55,55,22,1,1,RL,patisic,print,patisic_p.png,,,,,,
,,,,31554,001,2025-10-18_17h52.10.662,HW_LDT_1,2024.2.4,MacIntel,63.29113924,,,,,,,,,,,,,,,,,,,,,,333.2852,333.4836,333.4837,333.9836,,,,,,,,,,,,,,0.8919,1,,,,,,,,,,,,,,m,,,,,,,,,,,,,,,57,0,333.9841,334.8828,m,1,0.8919,,[],[],[],[],[],[],[],334.8829,336.8837,336.8838,336.884,[],[],[],[],[],[],[],,336.884,336.8841,-0.043780604,-0.383539343,0,0,0,,0,56,56,138,1,1,word,REFUSAL,print,refusal_p.png,,,,,,
,,,,31554,001,2025-10-18_17h52.10.662,HW_LDT_1,2024.2.4,MacIntel,63.29113924,,,,,,,,,,,,,,,,,,,,,,336.8853,337.0837,337.0837,337.5836,,,,,,,,,,,,,,0.887,1,,,,,,,,,,,,,,z,,,,,,,,,,,,,,,58,0,337.5841,338.4837,z,1,0.887,,[],[],[],[],[],[],[],338.4838,340.4835,340.4835,340.4838,[],[],[],[],[],[],[],,340.4838,340.4839,-0.043780604,-0.383539343,0,0,0,,0,57,57,30,1,1,RL,relone,print,relone_p.png,,,,,,
,,,,31554,001,2025-10-18_17h52.10.662,HW_LDT_1,2024.2.4,MacIntel,63.29113924,,,,,,,,,,,,,,,,,,,,,,340.4853,340.6827,340.6828,341.1836,,,,,,,,,,,,,,1.7871,1,,,,,,,,,,,,,,z,,,,,,,,,,,,,,,59,0,341.1841,342.9837,z,1,1.7871,,[],[],[],[],[],[],[],342.9838,344.9827,344.9827,344.983,[],[],[],[],[],[],[],,344.983,344.9832,-0.043780604,-0.383539343,0,0,0,,0,58,58,55,1,1,TL,fornute,print,fornute_p.png,,,,,,
,,,,31554,001,2025-10-18_17h52.10.662,HW_LDT_1,2024.2.4,MacIntel,63.29113924,,,,,,,,,,,,,,,,,,,,,,344.9843,345.1827,345.1827,345.6835,,,,,,,,,,,,,,1.2578,1,,,,,,,,,,,,,,z,,,,,,,,,,,,,,,60,0,345.6841,346.9503,z,1,1.2578,,[],[],[],[],[],[],[],346.9504,348.9503,348.9503,348.9506,[],[],[],[],[],[],[],,348.9507,348.9507,-0.043780604,-0.383539343,0,0,0,,0,59,59,78,1,1,TL,vecolity,print,vecolity_p.png,,,,,,
,,,,31554,001,2025-10-18_17h52.10.662,HW_LDT_1,2024.2.4,MacIntel,63.29113924,,,,,,,,,,,,,,,,,,,,,,348.9519,349.1502,349.1503,349.6503,,,,,,,,,,,,,,0.9809,1,,,,,,,,,,,,,,m,,,,,,,,,,,,,,,61,0,349.6509,350.6327,m,1,0.9809,,[],[],[],[],[],[],[],350.6328,352.6335,352.6336,352.6339,[],[],[],[],[],[],[],,352.6339,352.634,-0.043780604,-0.383539343,0,0,0,,0,60,60,90,1,1,word,CAPITAL,print,capital_p.png,,,,,,
,,,,31554,001,2025-10-18_17h52.10.662,HW_LDT_1,2024.2.4,MacIntel,63.29113924,,,,,,,,,,,,,,,,,,,,,,352.6352,352.8335,352.8336,353.3336,,,,,,,,,,,,,,1.0246,1,,,,,,,,,,,,,,z,,,,,,,,,,,,,,,62,0,353.3342,354.367,z,1,1.0246,,[],[],[],[],[],[],[],354.367,356.3669,356.3669,356.3671,[],[],[],[],[],[],[],,356.3671,356.3673,-0.043780604,-0.383539343,0,0,0,,0,61,61,7,1,1,RL,delahe,print,delahe_p.png,,,,,,
,,,,31554,001,2025-10-18_17h52.10.662,HW_LDT_1,2024.2.4,MacIntel,63.29113924,,,,,,,,,,,,,,,,,,,,,,356.3684,356.5666,356.5667,357.0668,,,,,,,,,,,,,,2.4898,1,,,,,,,,,,,,,,z,,,,,,,,,,,,,,,63,0,357.0674,359.5669,z,1,2.4898,,[],[],[],[],[],[],[],359.5671,361.566,361.566,361.5662,[],[],[],[],[],[],[],,361.5663,361.5663,-0.043780604,-0.383539343,0,0,0,,0,62,62,76,1,1,TL,stragety,cursive,stragety_c.png,,,,,,
,,,,31554,001,2025-10-18_17h52.10.662,HW_LDT_1,2024.2.4,MacIntel,63.29113924,,,,,,,,,,,,,,,,,,,,,,361.5676,361.7669,361.767,362.2668,,,,,,,,,,,,,,0.9078,1,,,,,,,,,,,,,,m,,,,,,,,,,,,,,,64,0,362.2673,363.1836,m,1,0.9078,,[],[],[],[],[],[],[],363.1837,365.1835,365.1835,365.1837,[],[],[],[],[],[],[],,365.1838,365.1839,-0.043780604,-0.383539343,0,0,0,,0,63,63,123,1,1,word,MODERATE,print,moderate_p.png,,,,,,
,,,,31554,001,2025-10-18_17h52.10.662,HW_LDT_1,2024.2.4,MacIntel,63.29113924,,,,,,,,,,,,,,,,,,,,,,365.1852,365.3834,365.3835,365.8834,,,,,,,,,,,,,,0.7779,1,,,,,,,,,,,,,,z,,,,,,,,,,,,,,,65,0,365.8843,366.6669,z,1,0.7779,,[],[],[],[],[],[],[],366.667,368.6668,368.6668,368.6671,[],[],[],[],[],[],[],,368.6672,368.6673,-0.043780604,-0.383539343,0,0,0,,0,64,64,14,1,1,RL,lofase,print,lofase_p.png,,,,,,
,,,,31554,001,2025-10-18_17h52.10.662,HW_LDT_1,2024.2.4,MacIntel,63.29113924,,,,,,,,,,,,,,,,,,,,,,368.6686,368.8668,368.8668,369.3668,,,,,,,,,,,,,,2.2872,0,,,,,,,,,,,,,,z,,,,,,,,,,,,,,,66,0,369.3673,371.667,m,0,2.2872,,[],[],[],[],[],[],[],371.6671,373.6668,373.6668,373.6671,[],[],[],[],[],[],[],,373.6671,373.6673,-0.043780604,-0.383539343,0,0,0,,0,65,65,67,1,1,TL,pocily,cursive,pocily_c.png,,,,,,
,,,,31554,001,2025-10-18_17h52.10.662,HW_LDT_1,2024.2.4,MacIntel,63.29113924,,,,,,,,,,,,,,,,,,,,,,373.6685,373.8667,373.8668,374.3668,,,,,,,,,,,,,,0.8202,1,,,,,,,,,,,,,,m,,,,,,,,,,,,,,,67,0,374.3674,375.2002,m,1,0.8202,,[],[],[],[],[],[],[],375.2003,377.2001,377.2002,377.2003,[],[],[],[],[],[],[],,377.2005,377.2005,-0.043780604,-0.383539343,0,0,0,,0,66,66,107,1,1,word,EVIDENT,print,evident_p.png,,,,,,
,,,,31554,001,2025-10-18_17h52.10.662,HW_LDT_1,2024.2.4,MacIntel,63.29113924,,,,,,,,,,,,,,,,,,,,,,377.202,377.4,377.4001,377.9001,,,,,,,,,,,,,,2.7035,1,,,,,,,,,,,,,,m,,,,,,,,,,,,,,,68,0,377.9006,380.6168,m,1,2.7035,,[],[],[],[],[],[],[],380.6168,382.6167,382.6167,382.617,[],[],[],[],[],[],[],,382.617,382.6171,-0.043780604,-0.383539343,0,0,0,,0,67,67,118,1,1,word,MEDICINE,cursive,medicine_c.png,,,,,,
,,,,31554,001,2025-10-18_17h52.10.662,HW_LDT_1,2024.2.4,MacIntel,63.29113924,,,,,,,,,,,,,,,,,,,,,,382.6183,382.8167,382.8168,383.3167,,,,,,,,,,,,,,3.1377,1,,,,,,,,,,,,,,m,,,,,,,,,,,,,,,69,0,383.3173,386.4669,m,1,3.1377,,[],[],[],[],[],[],[],386.4669,388.4667,388.4667,388.4669,[],[],[],[],[],[],[],,388.467,388.4671,-0.043780604,-0.383539343,0,0,0,,0,68,68,122,1,1,word,MOBILE,cursive,mobile_c.png,,,,,,
,,,,31554,001,2025-10-18_17h52.10.662,HW_LDT_1,2024.2.4,MacIntel,63.29113924,,,,,,,,,,,,,,,,,,,,,,388.4683,388.6666,388.6667,389.1667,,,,,,,,,,,,,,1.149,1,,,,,,,,,,,,,,m,,,,,,,,,,,,,,,70,0,389.1672,390.317,m,1,1.149,,[],[],[],[],[],[],[],390.3171,392.3166,392.3168,392.3169,[],[],[],[],[],[],[],,392.3169,392.317,-0.043780604,-0.383539343,0,0,0,,0,69,69,131,1,1,word,POPULAR,cursive,popular_c.png,,,,,,
,,,,31554,001,2025-10-18_17h52.10.662,HW_LDT_1,2024.2.4,MacIntel,63.29113924,,,,,,,,,,,,,,,,,,,,,,392.3183,392.5167,392.5167,393.0167,,,,,,,,,,,,,,0.8869,1,,,,,,,,,,,,,,z,,,,,,,,,,,,,,,71,0,393.0173,393.9168,z,1,0.8869,,[],[],[],[],[],[],[],393.9168,395.9167,395.9167,395.9169,[],[],[],[],[],[],[],,395.9169,395.917,-0.043780604,-0.383539343,0,0,0,,0,70,70,18,1,1,RL,mishafe,print,mishafe_p.png,,,,,,
,,,,31554,001,2025-10-18_17h52.10.662,HW_LDT_1,2024.2.4,MacIntel,63.29113924,,,,,,,,,,,,,,,,,,,,,,395.9182,396.1166,396.1167,396.6165,,,,,,,,,,,,,,1.1325,1,,,,,,,,,,,,,,z,,,,,,,,,,,,,,,72,0,396.617,397.7503,z,1,1.1325,,[],[],[],[],[],[],[],397.7504,399.75,399.75,399.7502,[],[],[],[],[],[],[],,399.7503,399.7504,-0.043780604,-0.383539343,0,0,0,,0,71,71,62,1,1,TL,mitilary,print,mitilary_p.png,,,,,,
,,,,31554,001,2025-10-18_17h52.10.662,HW_LDT_1,2024.2.4,MacIntel,63.29113924,,,,,,,,,,,,,,,,,,,,,,399.7517,399.95,399.95,400.45,,,,,,,,,,,,,,1.7871,0,,,,,,,,,,,,,,z,,,,,,,,,,,,,,,73,0,400.4505,402.25,m,0,1.7871,,[],[],[],[],[],[],[],402.2501,404.2499,404.2499,404.2502,[],[],[],[],[],[],[],,404.2502,404.2503,-0.043780604,-0.383539343,0,0,0,,0,72,72,58,1,1,TL,incidate,cursive,incidate_c.png,,,,,,
,,,,31554,001,2025-10-18_17h52.10.662,HW_LDT_1,2024.2.4,MacIntel,63.29113924,,,,,,,,,,,,,,,,,,,,,,404.2515,404.4492,404.4492,404.9499,,,,,,,,,,,,,,0.687,1,,,,,,,,,,,,,,m,,,,,,,,,,,,,,,74,0,404.9505,405.6501,m,1,0.687,,[],[],[],[],[],[],[],405.6502,407.6499,407.65,407.6501,[],[],[],[],[],[],[],,407.6502,407.6502,-0.043780604,-0.383539343,0,0,0,,0,73,73,95,1,1,word,COMEDY,cursive,comedy_c.png,,,,,,
,,,,31554,001,2025-10-18_17h52.10.662,HW_LDT_1,2024.2.4,MacIntel,63.29113924,,,,,,,,,,,,,,,,,,,,,,407.6515,407.85,407.8501,408.3499,,,,,,,,,,,,,,1.3148,1,,,,,,,,,,,,,,z,,,,,,,,,,,,,,,75,1,408.3504,409.6666,z,1,1.3148,,[],[],[],[],[],[],[],409.6667,411.6666,411.6666,414.9333,[],[],[],[],[],[],[],m,414.9334,414.9334,-0.043780604,-0.383539343,0,0,0,,0,74,74,51,1,1,TL,corevage,print,corevage_p.png,3.2652,,,,,
,,,,31554,001,2025-10-18_17h52.10.662,HW_LDT_1,2024.2.4,MacIntel,63.29113924,,,,,,,,,,,,,,,,,,,,,,414.9345,415.1332,415.1333,415.6333,,,,,,,,,,,,,,3.5038,1,,,,,,,,,,,,,,z,,,,,,,,,,,,,,,76,0,415.634,419.1499,z,1,3.5038,,[],[],[],[],[],[],[],419.1501,421.1499,421.15,421.1502,[],[],[],[],[],[],[],,421.1503,421.1504,-0.043780604,-0.383539343,0,0,0,,0,75,75,63,1,1,TL,molibe,cursive,molibe_c.png,,,,,,
,,,,31554,001,2025-10-18_17h52.10.662,HW_LDT_1,2024.2.4,MacIntel,63.29113924,,,,,,,,,,,,,,,,,,,,,,421.1516,421.3498,421.3499,421.85,,,,,,,,,,,,,,1.254,1,,,,,,,,,,,,,,m,,,,,,,,,,,,,,,77,1,421.8505,423.1165,m,1,1.254,,[],[],[],[],[],[],[],423.1166,425.1159,425.116,429.716,[],[],[],[],[],[],[],m,429.7161,429.7163,-0.043780604,-0.383539343,0,0,0,,0,76,76,116,1,1,word,MARGINAL,print,marginal_p.png,4.5883,,,,,
,,,,31554,001,2025-10-18_17h52.10.662,HW_LDT_1,2024.2.4,MacIntel,63.29113924,,,,,,,,,,,,,,,,,,,,,,429.7175,429.9164,429.9165,430.4155,,,,,,,,,,,,,,2.5401,0,,,,,,,,,,,,,,m,,,,,,,,,,,,,,,78,0,430.4161,432.9667,z,0,2.5401,,[],[],[],[],[],[],[],432.9667,434.9654,434.9654,434.9659,[],[],[],[],[],[],[],,434.9659,434.966,-0.043780604,-0.383539343,0,0,0,,0,77,77,146,1,1,word,RETIRE,cursive,retire_c.png,,,,,,
,,,,31554,001,2025-10-18_17h52.10.662,HW_LDT_1,2024.2.4,MacIntel,63.29113924,,,,,,,,,,,,,,,,,,,,,,434.9671,435.1654,435.1654,435.6664,,,,,,,,,,,,,,1.9584,1,,,,,,,,,,,,,,m,,,,,,,,,,,,,,,79,0,435.6669,437.6331,m,1,1.9584,,[],[],[],[],[],[],[],437.6332,439.6331,439.6332,439.6333,[],[],[],[],[],[],[],,439.6335,439.6335,-0.043780604,-0.383539343,0,0,0,,0,78,78,102,1,1,word,DENSITY,cursive,density_c.png,,,,,,
,,,,31554,001,2025-10-18_17h52.10.662,HW_LDT_1,2024.2.4,MacIntel,63.29113924,,,,,,,,,,,,,,,,,,,,,,439.6348,439.8331,439.8331,440.3331,,,,,,,,,,,,,,2.5203,1,,,,,,,,,,,,,,z,,,,,,,,,,,,,,,80,1,440.3336,442.8665,z,1,2.5203,,[],[],[],[],[],[],[],442.8666,444.8663,444.8664,445.6998,[],[],[],[],[],[],[],z,445.6999,461.0824,-0.043780604,-0.383539343,0,0,0,space,0,79,79,68,1,1,TL,prosopal,cursive,prosopal_c.png,0.8326,,15.3541,,,
,,,,31554,001,2025-10-18_17h52.10.662,HW_LDT_1,2024.2.4,MacIntel,63.29113924,,,,,,,,,,,,,,,,,,,,,,461.0838,461.2829,461.283,461.783,,,,,,,,,,,,,,2.0036,1,,,,,,,,,,,,,,z,,,,,,,,,,,,,,,81,0,461.7837,463.7998,z,1,2.0036,,[],[],[],[],[],[],[],463.7999,465.7996,465.7997,465.7998,[],[],[],[],[],[],[],,465.7999,465.8,-0.043780604,-0.383539343,0,0,0,,0,80,80,1,1,1,RL,adnicory,cursive,adnicory_c.png,,,,,,
,,,,31554,001,2025-10-18_17h52.10.662,HW_LDT_1,2024.2.4,MacIntel,63.29113924,,,,,,,,,,,,,,,,,,,,,,465.8012,465.9995,465.9996,466.4997,,,,,,,,,,,,,,0.954,1,,,,,,,,,,,,,,m,,,,,,,,,,,,,,,82,0,466.5003,467.4663,m,1,0.954,,[],[],[],[],[],[],[],467.4664,469.4653,469.4654,469.4656,[],[],[],[],[],[],[],,469.4657,469.4658,-0.043780604,-0.383539343,0,0,0,,0,81,81,145,1,1,word,RESUME,print,resume_p.png,,,,,,
,,,,31554,001,2025-10-18_17h52.10.662,HW_LDT_1,2024.2.4,MacIntel,63.29113924,,,,,,,,,,,,,,,,,,,,,,469.467,469.6662,469.6662,470.1663,,,,,,,,,,,,,,1.5356,1,,,,,,,,,,,,,,z,,,,,,,,,,,,,,,83,0,470.1668,471.7162,z,1,1.5356,,[],[],[],[],[],[],[],471.7163,473.7162,473.7162,473.7165,[],[],[],[],[],[],[],,473.7166,473.7166,-0.043780604,-0.383539343,0,0,0,,0,82,82,42,1,1,TL,befenit,print,befenit_p.png,,,,,,
,,,,31554,001,2025-10-18_17h52.10.662,HW_LDT_1,2024.2.4,MacIntel,63.29113924,,,,,,,,,,,,,,,,,,,,,,473.7178,473.9159,473.916,474.4152,,,,,,,,,,,,,,3.4579,1,,,,,,,,,,,,,,z,,,,,,,,,,,,,,,84,0,474.4158,477.883,z,1,3.4579,,[],[],[],[],[],[],[],477.8831,479.883,479.883,479.8832,[],[],[],[],[],[],[],,479.8832,479.8834,-0.045162031,-0.381928387,0,0,0,,0,83,83,17,1,1,RL,menowy,cursive,menowy_c.png,,,,,,
,,,,31554,001,2025-10-18_17h52.10.662,HW_LDT_1,2024.2.4,MacIntel,63.29113924,,,,,,,,,,,,,,,,,,,,,,479.8846,480.0828,480.0829,480.5826,,,,,,,,,,,,,,2.064,1,,,,,,,,,,,,,,z,,,,,,,,,,,,,,,85,0,480.5832,482.6486,z,1,2.064,,[],[],[],[],[],[],[],482.6487,484.6499,484.6499,484.6501,[],[],[],[],[],[],[],,484.6501,484.6501,-0.04593988,-0.381928387,0,0,0,,0,84,84,10,1,1,RL,efibor,cursive,efibor_c.png,,,,,,
,,,,31554,001,2025-10-18_17h52.10.662,HW_LDT_1,2024.2.4,MacIntel,63.29113924,,,,,,,,,,,,,,,,,,,,,,484.6511,484.8495,484.8495,485.3494,,,,,,,,,,,,,,4.7196,0,,,,,,,,,,,,,,z,,,,,,,,,,,,,,,86,0,485.35,490.083,m,0,4.7196,,[],[],[],[],[],[],[],490.0831,492.0828,492.0829,492.083,[],[],[],[],[],[],[],,492.0831,492.0832,-0.04593988,-0.381928387,0,0,0,,0,85,85,26,1,1,RL,quafidy,cursive,quafidy_c.png,,,,,,
,,,,31554,001,2025-10-18_17h52.10.662,HW_LDT_1,2024.2.4,MacIntel,63.29113924,,,,,,,,,,,,,,,,,,,,,,492.0843,492.2818,492.2818,492.7827,,,,,,,,,,,,,,2.0038,0,,,,,,,,,,,,,,m,,,,,,,,,,,,,,,87,0,492.7832,494.7987,z,0,2.0038,,[],[],[],[],[],[],[],494.7988,496.7991,496.7992,496.7994,[],[],[],[],[],[],[],,496.7994,496.7995,-0.04593988,-0.381928387,0,0,0,,0,86,86,87,1,1,word,CAFETERIA,cursive,cafeteria_c.png,,,,,,
,,,,31554,001,2025-10-18_17h52.10.662,HW_LDT_1,2024.2.4,MacIntel,63.29113924,,,,,,,,,,,,,,,,,,,,,,496.8006,496.9985,496.9985,497.4994,,,,,,,,,,,,,,1.8033,0,,,,,,,,,,,,,,z,,,,,,,,,,,,,,,88,0,497.5002,499.3162,m,0,1.8033,,[],[],[],[],[],[],[],499.3163,501.3161,501.3161,501.3164,[],[],[],[],[],[],[],,501.3165,501.3165,-0.04593988,-0.381928387,0,0,0,,0,87,87,75,1,1,TL,speficic,cursive,speficic_c.png,,,,,,
,,,,31554,001,2025-10-18_17h52.10.662,HW_LDT_1,2024.2.4,MacIntel,63.29113924,,,,,,,,,,,,,,,,,,,,,,501.3178,501.5151,501.5152,502.0161,,,,,,,,,,,,,,1.1132,1,,,,,,,,,,,,,,m,,,,,,,,,,,,,,,89,0,502.0167,503.1327,m,1,1.1132,,[],[],[],[],[],[],[],503.1328,505.1317,505.1318,505.132,[],[],[],[],[],[],[],,505.1321,505.1322,-0.04593988,-0.381928387,0,0,0,,0,88,88,96,1,1,word,CONSIDER,cursive,consider_c.png,,,,,,
,,,,31554,001,2025-10-18_17h52.10.662,HW_LDT_1,2024.2.4,MacIntel,63.29113924,,,,,,,,,,,,,,,,,,,,,,505.1334,505.3327,505.3327,505.8327,,,,,,,,,,,,,,0.9973,1,,,,,,,,,,,,,,z,,,,,,,,,,,,,,,90,1,505.8333,506.8327,z,1,0.9973,,[],[],[],[],[],[],[],506.8328,508.8317,508.8318,510.3495,[],[],[],[],[],[],[],z,510.3495,510.3497,-0.04593988,-0.381928387,0,0,0,,0,89,89,40,1,1,TL,atameur,print,atameur_p.png,1.5161,,,,,
,,,,31554,001,2025-10-18_17h52.10.662,HW_LDT_1,2024.2.4,MacIntel,63.29113924,,,,,,,,,,,,,,,,,,,,,,510.3507,510.5493,510.5494,511.0484,,,,,,,,,,,,,,1.2036,1,,,,,,,,,,,,,,m,,,,,,,,,,,,,,,91,1,511.049,512.2662,m,1,1.2036,,[],[],[],[],[],[],[],512.2663,514.266,514.2661,515.2827,[],[],[],[],[],[],[],m,515.2828,515.2829,-0.04593988,-0.381928387,0,0,0,,0,90,90,133,1,1,word,PROVIDE,print,provide_p.png,1.008,,,,,
,,,,31554,001,2025-10-18_17h52.10.662,HW_LDT_1,2024.2.4,MacIntel,63.29113924,,,,,,,,,,,,,,,,,,,,,,515.284,515.4827,515.4827,515.9826,,,,,,,,,,,,,,2.3986,1,,,,,,,,,,,,,,m,,,,,,,,,,,,,,,92,0,515.9832,518.3828,m,1,2.3986,,[],[],[],[],[],[],[],518.3829,520.3827,520.3827,520.3829,[],[],[],[],[],[],[],,520.3829,520.383,-0.04593988,-0.381928387,0,0,0,,0,91,91,82,1,1,word,AMATEUR,print,amateur_p.png,,,,,,
,,,,31554,001,2025-10-18_17h52.10.662,HW_LDT_1,2024.2.4,MacIntel,63.29113924,,,,,,,,,,,,,,,,,,,,,,520.3843,520.5827,520.5827,521.0826,,,,,,,,,,,,,,2.456,1,,,,,,,,,,,,,,m,,,,,,,,,,,,,,,93,0,521.0831,523.5494,m,1,2.456,,[],[],[],[],[],[],[],523.5494,525.5493,525.5493,525.5495,[],[],[],[],[],[],[],,525.5496,525.5496,-0.04593988,-0.381928387,0,0,0,,0,92,92,104,1,1,word,DOMINANT,cursive,dominant_c.png,,,,,,
,,,,31554,001,2025-10-18_17h52.10.662,HW_LDT_1,2024.2.4,MacIntel,63.29113924,,,,,,,,,,,,,,,,,,,,,,525.5508,525.7492,525.7492,526.2493,,,,,,,,,,,,,,1.9369,1,,,,,,,,,,,,,,m,,,,,,,,,,,,,,,94,0,526.2499,528.1993,m,1,1.9369,,[],[],[],[],[],[],[],528.1994,530.1992,530.1993,530.1995,[],[],[],[],[],[],[],,530.1996,530.1996,-0.04593988,-0.381928387,0,0,0,,0,93,93,137,1,1,word,RAPIDLY,cursive,rapidly_c.png,,,,,,
,,,,31554,001,2025-10-18_17h52.10.662,HW_LDT_1,2024.2.4,MacIntel,63.29113924,,,,,,,,,,,,,,,,,,,,,,530.2008,530.3992,530.3993,530.8992,,,,,,,,,,,,,,1.4138,1,,,,,,,,,,,,,,m,,,,,,,,,,,,,,,95,0,530.8998,532.3157,m,1,1.4138,,[],[],[],[],[],[],[],532.3158,534.3159,534.3159,534.3162,[],[],[],[],[],[],[],,534.3162,534.3163,-0.04593988,-0.381928387,0,0,0,,0,94,94,143,1,1,word,REMOVAL,cursive,removal_c.png,,,,,,
,,,,31554,001,2025-10-18_17h52.10.662,HW_LDT_1,2024.2.4,MacIntel,63.29113924,,,,,,,,,,,,,,,,,,,,,,534.3175,534.5159,534.5159,535.0149,,,,,,,,,,,,,,2.0869,1,,,,,,,,,,,,,,z,,,,,,,,,,,,,,,96,0,535.0156,537.1159,z,1,2.0869,,[],[],[],[],[],[],[],537.1161,539.1159,539.1159,539.1163,[],[],[],[],[],[],[],,539.1163,539.1165,-0.04593988,-0.381928387,0,0,0,,0,95,95,6,1,1,RL,crisival,print,crisival_p.png,,,,,,
,,,,31554,001,2025-10-18_17h52.10.662,HW_LDT_1,2024.2.4,MacIntel,63.29113924,,,,,,,,,,,,,,,,,,,,,,539.1178,539.3159,539.3159,539.8149,,,,,,,,,,,,,,0.8547,1,,,,,,,,,,,,,,m,,,,,,,,,,,,,,,97,0,539.8156,540.6826,m,1,0.8547,,[],[],[],[],[],[],[],540.6827,542.6825,542.6825,542.6828,[],[],[],[],[],[],[],,542.6828,542.6829,-0.04593988,-0.381928387,0,0,0,,0,96,96,100,1,1,word,DECADE,print,decade_p.png,,,,,,
,,,,31554,001,2025-10-18_17h52.10.662,HW_LDT_1,2024.2.4,MacIntel,63.29113924,,,,,,,,,,,,,,,,,,,,,,542.6842,542.8825,542.8826,543.3825,,,,,,,,,,,,,,2.8298,1,,,,,,,,,,,,,,m,,,,,,,,,,,,,,,98,0,543.383,546.2158,m,1,2.8298,,[],[],[],[],[],[],[],546.2159,548.2159,548.2159,548.2161,[],[],[],[],[],[],[],,548.2161,548.2162,-0.04593988,-0.381928387,0,0,0,,0,97,97,80,1,1,word,ACADEMY,cursive,academy_c.png,,,,,,
,,,,31554,001,2025-10-18_17h52.10.662,HW_LDT_1,2024.2.4,MacIntel,63.29113924,,,,,,,,,,,,,,,,,,,,,,548.2174,548.4158,548.4159,548.9159,,,,,,,,,,,,,,0.9066,1,,,,,,,,,,,,,,m,,,,,,,,,,,,,,,99,0,548.9164,549.8325,m,1,0.9066,,[],[],[],[],[],[],[],549.8326,551.8325,551.8325,551.8327,[],[],[],[],[],[],[],,551.8327,551.8329,-0.04593988,-0.381928387,0,0,0,,0,98,98,127,1,1,word,ORIGINAL,cursive,original_c.png,,,,,,
,,,,31554,001,2025-10-18_17h52.10.662,HW_LDT_1,2024.2.4,MacIntel,63.29113924,,,,,,,,,,,,,,,,,,,,,,551.8341,552.0325,552.0325,552.5324,,,,,,,,,,,,,,2.2704,1,,,,,,,,,,,,,,z,,,,,,,,,,,,,,,100,0,552.533,554.8159,z,1,2.2704,,[],[],[],[],[],[],[],554.8159,556.8157,556.8158,556.8161,[],[],[],[],[],[],[],,556.8161,556.8163,-0.04593988,-0.381928387,0,0,0,,0,99,99,64,1,1,TL,orepator,cursive,orepator_c.png,,,,,,
,,,,31554,001,2025-10-18_17h52.10.662,HW_LDT_1,2024.2.4,MacIntel,63.29113924,,,,,,,,,,,,,,,,,,,,,,556.8176,557.0148,557.0148,557.5149,,,,,,,,,,,,,,0.9246,1,,,,,,,,,,,,,,m,,,,,,,,,,,,,,,101,0,557.5154,558.4492,m,1,0.9246,,[],[],[],[],[],[],[],558.4493,560.449,560.4491,560.4493,[],[],[],[],[],[],[],,560.4494,560.4495,-0.04593988,-0.381928387,0,0,0,,0,100,100,115,1,1,word,LOGICAL,cursive,logical_c.png,,,,,,
,,,,31554,001,2025-10-18_17h52.10.662,HW_LDT_1,2024.2.4,MacIntel,63.29113924,,,,,,,,,,,,,,,,,,,,,,560.4508,560.6481,560.6482,561.1491,,,,,,,,,,,,,,0.9036,1,,,,,,,,,,,,,,m,,,,,,,,,,,,,,,102,0,561.1496,562.0655,m,1,0.9036,,[],[],[],[],[],[],[],562.0656,564.0658,564.0658,564.066,[],[],[],[],[],[],[],,564.0661,564.0661,-0.04593988,-0.381928387,0,0,0,,0,101,101,89,1,1,word,CAPACITY,print,capacity_p.png,,,,,,
,,,,31554,001,2025-10-18_17h52.10.662,HW_LDT_1,2024.2.4,MacIntel,63.29113924,,,,,,,,,,,,,,,,,,,,,,564.0673,564.2657,564.2657,564.7657,,,,,,,,,,,,,,0.7971,0,,,,,,,,,,,,,,z,,,,,,,,,,,,,,,103,0,564.7663,565.5646,m,0,0.7971,,[],[],[],[],[],[],[],565.5647,567.5648,567.5648,567.565,[],[],[],[],[],[],[],,567.5652,567.5652,-0.04593988,-0.381928387,0,0,0,,0,102,102,66,1,1,TL,panert,cursive,panert_c.png,,,,,,
,,,,31554,001,2025-10-18_17h52.10.662,HW_LDT_1,2024.2.4,MacIntel,63.29113924,,,,,,,,,,,,,,,,,,,,,,567.5664,567.7657,567.7657,568.2657,,,,,,,,,,,,,,0.5823,1,,,,,,,,,,,,,,m,,,,,,,,,,,,,,,104,0,568.2662,568.8492,m,1,0.5823,,[],[],[],[],[],[],[],568.8494,570.849,570.849,570.8492,[],[],[],[],[],[],[],,570.8493,570.8495,-0.04593988,-0.381928387,0,0,0,,0,103,103,85,1,1,word,BENEFIT,print,benefit_p.png,,,,,,
,,,,31554,001,2025-10-18_17h52.10.662,HW_LDT_1,2024.2.4,MacIntel,63.29113924,,,,,,,,,,,,,,,,,,,,,,570.8507,571.049,571.049,571.549,,,,,,,,,,,,,,0.724,1,,,,,,,,,,,,,,m,,,,,,,,,,,,,,,105,0,571.5497,572.2824,m,1,0.724,,[],[],[],[],[],[],[],572.2825,574.2813,574.2814,574.2817,[],[],[],[],[],[],[],,574.2817,574.2818,-0.04593988,-0.381928387,0,0,0,,0,104,104,121,1,1,word,MISTAKE,print,mistake_p.png,,,,,,
,,,,31554,001,2025-10-18_17h52.10.662,HW_LDT_1,2024.2.4,MacIntel,63.29113924,,,,,,,,,,,,,,,,,,,,,,574.2831,574.4823,574.4824,574.9824,,,,,,,,,,,,,,1.3566,1,,,,,,,,,,,,,,m,,,,,,,,,,,,,,,106,0,574.983,576.3488,m,1,1.3566,,[],[],[],[],[],[],[],576.3489,578.348,578.3481,578.3483,[],[],[],[],[],[],[],,578.3484,578.3485,-0.04593988,-0.381928387,0,0,0,,0,105,105,119,1,1,word,MEMORY,cursive,memory_c.png,,,,,,
,,,,31554,001,2025-10-18_17h52.10.662,HW_LDT_1,2024.2.4,MacIntel,63.29113924,,,,,,,,,,,,,,,,,,,,,,578.3497,578.5491,578.5491,579.0485,,,,,,,,,,,,,,0.8713,1,,,,,,,,,,,,,,z,,,,,,,,,,,,,,,107,0,579.0491,579.9324,z,1,0.8713,,[],[],[],[],[],[],[],579.9325,581.9314,581.9315,581.9316,[],[],[],[],[],[],[],,581.9316,581.9318,-0.04593988,-0.381928387,0,0,0,,0,106,106,2,1,1,RL,asiral,print,asiral_p.png,,,,,,
,,,,31554,001,2025-10-18_17h52.10.662,HW_LDT_1,2024.2.4,MacIntel,63.29113924,,,,,,,,,,,,,,,,,,,,,,581.933,582.1323,582.1323,582.6314,,,,,,,,,,,,,,0.9748,1,,,,,,,,,,,,,,z,,,,,,,,,,,,,,,108,0,582.6319,583.6157,z,1,0.9748,,[],[],[],[],[],[],[],583.6158,585.6147,585.6147,585.615,[],[],[],[],[],[],[],,585.6151,585.6152,-0.04593988,-0.381928387,0,0,0,,0,107,107,41,1,1,TL,bevoled,print,bevoled_p.png,,,,,,
,,,,31554,001,2025-10-18_17h52.10.662,HW_LDT_1,2024.2.4,MacIntel,63.29113924,,,,,,,,,,,,,,,,,,,,,,585.6163,585.8147,585.8147,586.3147,,,,,,,,,,,,,,1.0975,1,,,,,,,,,,,,,,m,,,,,,,,,,,,,,,109,0,586.3152,587.4156,m,1,1.0975,,[],[],[],[],[],[],[],587.4157,589.4156,589.4157,589.4158,[],[],[],[],[],[],[],,589.4158,589.416,-0.04593988,-0.381928387,0,0,0,,0,108,108,97,1,1,word,COVERAGE,print,coverage_p.png,,,,,,
,,,,31554,001,2025-10-18_17h52.10.662,HW_LDT_1,2024.2.4,MacIntel,63.29113924,,,,,,,,,,,,,,,,,,,,,,589.4171,589.6157,589.6157,590.1156,,,,,,,,,,,,,,3.7911,1,,,,,,,,,,,,,,z,,,,,,,,,,,,,,,110,0,590.1161,593.9148,z,1,3.7911,,[],[],[],[],[],[],[],593.9149,595.9156,595.9156,595.9158,[],[],[],[],[],[],[],,595.9159,595.916,-0.04593988,-0.381928387,0,0,0,,0,109,109,35,1,1,RL,senvilent,cursive,senvilent_c.png,,,,,,
,,,,31554,001,2025-10-18_17h52.10.662,HW_LDT_1,2024.2.4,MacIntel,63.29113924,,,,,,,,,,,,,,,,,,,,,,595.9173,596.115,596.1151,596.6155,,,,,,,,,,,,,,3.1654,1,,,,,,,,,,,,,,z,,,,,,,,,,,,,,,111,0,596.6161,599.7823,z,1,3.1654,,[],[],[],[],[],[],[],599.7833,601.7822,601.7823,601.7825,[],[],[],[],[],[],[],,601.7825,601.7826,-0.04593988,-0.381928387,0,0,0,,0,110,110,74,1,1,TL,setanor,cursive,setanor_c.png,,,,,,
,,,,31554,001,2025-10-18_17h52.10.662,HW_LDT_1,2024.2.4,MacIntel,63.29113924,,,,,,,,,,,,,,,,,,,,,,601.7838,601.9822,601.9822,602.4821,,,,,,,,,,,,,,0.9198,1,,,,,,,,,,,,,,m,,,,,,,,,,,,,,,112,0,602.4827,603.4156,m,1,0.9198,,[],[],[],[],[],[],[],603.4157,605.4146,605.4147,605.4148,[],[],[],[],[],[],[],,605.4149,605.415,-0.04593988,-0.381928387,0,0,0,,0,111,111,153,1,1,word,STOLEN,print,stolen_p.png,,,,,,
,,,,31554,001,2025-10-18_17h52.10.662,HW_LDT_1,2024.2.4,MacIntel,63.29113924,,,,,,,,,,,,,,,,,,,,,,605.4163,605.6155,605.6155,606.1146,,,,,,,,,,,,,,0.9718,1,,,,,,,,,,,,,,z,,,,,,,,,,,,,,,113,1,606.1151,607.0988,z,1,0.9718,,[],[],[],[],[],[],[],607.0989,609.0988,609.0988,610.3822,[],[],[],[],[],[],[],m,610.3824,610.3825,-0.04593988,-0.381928387,0,0,0,,0,112,112,32,1,1,RL,rebicent,print,rebicent_p.png,1.2729,,,,,
,,,,31554,001,2025-10-18_17h52.10.662,HW_LDT_1,2024.2.4,MacIntel,63.29113924,,,,,,,,,,,,,,,,,,,,,,610.3838,610.5821,610.5822,611.0821,,,,,,,,,,,,,,0.8489,1,,,,,,,,,,,,,,m,,,,,,,,,,,,,,,114,1,611.0827,611.9325,m,1,0.8489,,[],[],[],[],[],[],[],611.9326,613.9312,613.9313,615.1656,[],[],[],[],[],[],[],m,615.1656,615.1657,-0.04593988,-0.381928387,0,0,0,,0,113,113,158,1,1,word,VELOCITY,print,velocity_p.png,1.2221,,,,,
,,,,31554,001,2025-10-18_17h52.10.662,HW_LDT_1,2024.2.4,MacIntel,63.29113924,,,,,,,,,,,,,,,,,,,,,,615.1667,615.3646,615.3646,615.8645,,,,,,,,,,,,,,1.5046,1,,,,,,,,,,,,,,z,,,,,,,,,,,,,,,115,0,615.8651,617.3822,z,1,1.5046,,[],[],[],[],[],[],[],617.3823,619.3821,619.3822,619.3823,[],[],[],[],[],[],[],,619.3823,619.3824,-0.04593988,-0.381928387,0,0,0,,0,114,114,54,1,1,TL,distupe,cursive,distupe_c.png,,,,,,
,,,,31554,001,2025-10-18_17h52.10.662,HW_LDT_1,2024.2.4,MacIntel,63.29113924,,,,,,,,,,,,,,,,,,,,,,619.3839,619.5821,619.5821,620.0821,,,,,,,,,,,,,,1.5573,1,,,,,,,,,,,,,,z,,,,,,,,,,,,,,,116,0,620.0826,621.6489,z,1,1.5573,,[],[],[],[],[],[],[],621.6491,623.6487,623.6487,623.6489,[],[],[],[],[],[],[],,623.6489,623.6491,-0.04593988,-0.381928387,0,0,0,,0,115,115,16,1,1,RL,marmipal,print,marmipal_p.png,,,,,,
,,,,31554,001,2025-10-18_17h52.10.662,HW_LDT_1,2024.2.4,MacIntel,63.29113924,,,,,,,,,,,,,,,,,,,,,,623.6502,623.8487,623.8488,624.3487,,,,,,,,,,,,,,3.3367,1,,,,,,,,,,,,,,z,,,,,,,,,,,,,,,117,1,624.3494,627.6979,z,1,3.3367,,[],[],[],[],[],[],[],627.698,629.6988,629.6989,630.5814,[],[],[],[],[],[],[],z,630.5815,630.5816,-0.04593988,-0.381928387,0,0,0,,0,116,116,25,1,1,RL,quakity,cursive,quakity_c.png,0.8736,,,,,
,,,,31554,001,2025-10-18_17h52.10.662,HW_LDT_1,2024.2.4,MacIntel,63.29113924,,,,,,,,,,,,,,,,,,,,,,630.5827,630.7821,630.7821,631.282,,,,,,,,,,,,,,2.7136,1,,,,,,,,,,,,,,m,,,,,,,,,,,,,,,118,0,631.2827,633.9979,m,1,2.7136,,[],[],[],[],[],[],[],633.9981,635.9988,635.9988,635.999,[],[],[],[],[],[],[],,635.9991,635.9992,-0.04593988,-0.381928387,0,0,0,,0,117,117,94,1,1,word,CLINICAL,cursive,clinical_c.png,,,,,,
,,,,31554,001,2025-10-18_17h52.10.662,HW_LDT_1,2024.2.4,MacIntel,63.29113924,,,,,,,,,,,,,,,,,,,,,,636.0005,636.1986,636.1987,636.6987,,,,,,,,,,,,,,1.6573,1,,,,,,,,,,,,,,z,,,,,,,,,,,,,,,119,0,636.6993,638.3645,z,1,1.6573,,[],[],[],[],[],[],[],638.3646,640.3653,640.3653,640.3655,[],[],[],[],[],[],[],,640.3656,640.3657,-0.04593988,-0.381928387,0,0,0,,0,118,118,3,1,1,RL,casena,cursive,casena_c.png,,,,,,
,,,,31554,001,2025-10-18_17h52.10.662,HW_LDT_1,2024.2.4,MacIntel,63.29113924,,,,,,,,,,,,,,,,,,,,,,640.3668,640.5654,640.5655,641.0653,,,,,,,,,,,,,,0.8195,1,,,,,,,,,,,,,,m,,,,,,,,,,,,,,,120,1,641.0659,641.8987,m,1,0.8195,,[],[],[],[],[],[],[],641.8988,643.8988,643.8988,644.782,[],[],[],[],[],[],[],m,644.782,644.7822,-0.04593988,-0.381928387,0,0,0,,0,119,119,106,1,1,word,ELABORATE,print,elaborate_p.png,0.8809,,,,,
,,,,31554,001,2025-10-18_17h52.10.662,HW_LDT_1,2024.2.4,MacIntel,63.29113924,,,,,,,,,,,,,,,,,,,,,,644.7832,644.9819,644.9819,645.4811,,,,,,,,,,,,,,0.9832,1,,,,,,,,,,,,,,m,,,,,,,,,,,,,,,121,0,645.4816,646.4656,m,1,0.9832,,[],[],[],[],[],[],[],646.4657,648.4653,648.4653,648.4658,[],[],[],[],[],[],[],,648.4658,648.4658,-0.04593988,-0.381928387,0,0,0,,0,120,120,108,1,1,word,FORTUNE,print,fortune_p.png,,,,,,
,,,,31554,001,2025-10-18_17h52.10.662,HW_LDT_1,2024.2.4,MacIntel,63.29113924,,,,,,,,,,,,,,,,,,,,,,648.467,648.6652,648.6653,649.1652,,,,,,,,,,,,,,1.7368,1,,,,,,,,,,,,,,m,,,,,,,,,,,,,,,122,0,649.1658,650.9145,m,1,1.7368,,[],[],[],[],[],[],[],650.9145,652.9153,652.9153,652.9156,[],[],[],[],[],[],[],,652.9156,652.9157,-0.04593988,-0.381928387,0,0,0,,0,121,121,103,1,1,word,DISPUTE,cursive,dispute_c.png,,,,,,
,,,,31554,001,2025-10-18_17h52.10.662,HW_LDT_1,2024.2.4,MacIntel,63.29113924,,,,,,,,,,,,,,,,,,,,,,652.9168,653.1152,653.1152,653.6144,,,,,,,,,,,,,,3.0458,1,,,,,,,,,,,,,,z,,,,,,,,,,,,,,,123,0,653.6151,656.6643,z,1,3.0458,,[],[],[],[],[],[],[],656.6644,658.6643,658.6643,658.6645,[],[],[],[],[],[],[],,658.6646,658.6647,-0.04593988,-0.381928387,0,0,0,,0,122,122,33,1,1,RL,recile,cursive,recile_c.png,,,,,,
,,,,31554,001,2025-10-18_17h52.10.662,HW_LDT_1,2024.2.4,MacIntel,63.29113924,,,,,,,,,,,,,,,,,,,,,,658.6659,658.8652,658.8652,659.3652,,,,,,,,,,,,,,3.8205,1,,,,,,,,,,,,,,m,,,,,,,,,,,,,,,124,0,659.3657,663.1977,m,1,3.8205,,[],[],[],[],[],[],[],663.1978,665.1976,665.1977,665.1978,[],[],[],[],[],[],[],,665.1978,665.198,-0.046190662,-0.381928387,0,0,0,,0,123,123,105,1,1,word,EDITOR,cursive,editor_c.png,,,,,,
,,,,31554,001,2025-10-18_17h52.10.662,HW_LDT_1,2024.2.4,MacIntel,63.29113924,,,,,,,,,,,,,,,,,,,,,,665.1991,665.3985,665.3985,665.8985,,,,,,,,,,,,,,1.0371,1,,,,,,,,,,,,,,m,,,,,,,,,,,,,,,125,0,665.899,666.9485,m,1,1.0371,,[],[],[],[],[],[],[],666.9486,668.9476,668.9476,668.9479,[],[],[],[],[],[],[],,668.9479,668.948,-0.046190662,-0.381928387,0,0,0,,0,124,124,98,1,1,word,CRIMINAL,print,criminal_p.png,,,,,,
,,,,31554,001,2025-10-18_17h52.10.662,HW_LDT_1,2024.2.4,MacIntel,63.29113924,,,,,,,,,,,,,,,,,,,,,,668.9492,669.1476,669.1476,669.6485,,,,,,,,,,,,,,0.936,1,,,,,,,,,,,,,,z,,,,,,,,,,,,,,,126,0,669.649,670.5986,z,1,0.936,,[],[],[],[],[],[],[],670.5986,672.5985,672.5986,672.5988,[],[],[],[],[],[],[],,672.5988,672.599,-0.046190662,-0.381928387,0,0,0,,0,125,125,47,1,1,TL,cagetory,print,cagetory_p.png,,,,,,
,,,,31554,001,2025-10-18_17h52.10.662,HW_LDT_1,2024.2.4,MacIntel,63.29113924,,,,,,,,,,,,,,,,,,,,,,672.6002,672.7985,672.7985,673.2985,,,,,,,,,,,,,,1.0375,1,,,,,,,,,,,,,,m,,,,,,,,,,,,,,,127,0,673.2991,674.3486,m,1,1.0375,,[],[],[],[],[],[],[],674.3486,676.3476,676.3477,676.3478,[],[],[],[],[],[],[],,676.3478,676.348,-0.046190662,-0.381928387,0,0,0,,0,126,126,130,1,1,word,POLICY,cursive,policy_c.png,,,,,,
,,,,31554,001,2025-10-18_17h52.10.662,HW_LDT_1,2024.2.4,MacIntel,63.29113924,,,,,,,,,,,,,,,,,,,,,,676.3493,676.5475,676.5475,677.0485,,,,,,,,,,,,,,0.9879,1,,,,,,,,,,,,,,z,,,,,,,,,,,,,,,128,1,677.0491,678.0485,z,1,0.9879,,[],[],[],[],[],[],[],678.0486,680.0484,680.0485,682.1483,[],[],[],[],[],[],[],m,682.1483,682.1485,-0.046441445,-0.381928387,0,0,0,,0,127,127,21,1,1,RL,opcifal,print,opcifal_p.png,2.0971,,,,,
,,,,31554,001,2025-10-18_17h52.10.662,HW_LDT_1,2024.2.4,MacIntel,63.29113924,,,,,,,,,,,,,,,,,,,,,,682.1495,682.3484,682.3484,682.8484,,,,,,,,,,,,,,0.7535,1,,,,,,,,,,,,,,m,,,,,,,,,,,,,,,129,0,682.849,683.6151,m,1,0.7535,,[],[],[],[],[],[],[],683.6153,685.6151,685.6151,685.6153,[],[],[],[],[],[],[],,685.6153,685.6154,-0.046441445,-0.381928387,0,0,0,,0,128,128,142,1,1,word,REMOTE,print,remote_p.png,,,,,,
,,,,31554,001,2025-10-18_17h52.10.662,HW_LDT_1,2024.2.4,MacIntel,63.29113924,,,,,,,,,,,,,,,,,,,,,,685.6163,685.8151,685.8151,686.315,,,,,,,,,,,,,,1.5537,1,,,,,,,,,,,,,,m,,,,,,,,,,,,,,,130,0,686.3156,687.8812,m,1,1.5537,,[],[],[],[],[],[],[],687.8813,689.8817,689.8817,689.8819,[],[],[],[],[],[],[],,689.8819,689.882,-0.046441445,-0.381928387,0,0,0,,0,129,129,128,1,1,word,PACIFIC,print,pacific_p.png,,,,,,
,,,,31554,001,2025-10-18_17h52.10.662,HW_LDT_1,2024.2.4,MacIntel,63.29113924,,,,,,,,,,,,,,,,,,,,,,689.8833,690.0817,690.0817,690.5817,,,,,,,,,,,,,,3.5801,1,,,,,,,,,,,,,,z,,,,,,,,,,,,,,,131,1,690.5823,694.165,z,1,3.5801,,[],[],[],[],[],[],[],694.1651,696.165,696.165,696.7484,[],[],[],[],[],[],[],z,696.7485,696.7487,-0.046441445,-0.381928387,0,0,0,,0,130,130,50,1,1,TL,condiser,cursive,condiser_c.png,0.5717,,,,,
,,,,31554,001,2025-10-18_17h52.10.662,HW_LDT_1,2024.2.4,MacIntel,63.29113924,,,,,,,,,,,,,,,,,,,,,,696.7499,696.9483,696.9484,697.4479,,,,,,,,,,,,,,2.0917,1,,,,,,,,,,,,,,m,,,,,,,,,,,,,,,132,0,697.4486,699.5483,m,1,2.0917,,[],[],[],[],[],[],[],699.5484,701.5483,701.5483,701.5486,[],[],[],[],[],[],[],,701.5486,701.5487,-0.046441445,-0.381928387,0,0,0,,0,131,131,152,1,1,word,SPECIMEN,cursive,specimen_c.png,,,,,,
,,,,31554,001,2025-10-18_17h52.10.662,HW_LDT_1,2024.2.4,MacIntel,63.29113924,,,,,,,,,,,,,,,,,,,,,,701.55,701.7483,701.7483,702.2483,,,,,,,,,,,,,,2.3991,1,,,,,,,,,,,,,,z,,,,,,,,,,,,,,,133,1,702.2489,704.6487,z,1,2.3991,,[],[],[],[],[],[],[],704.6487,706.6482,706.6482,707.2317,[],[],[],[],[],[],[],z,707.2318,707.232,-0.046947259,-0.381928387,0,0,0,,0,132,132,69,1,1,TL,radiply,cursive,radiply_c.png,0.5826,,,,,
,,,,31554,001,2025-10-18_17h52.10.662,HW_LDT_1,2024.2.4,MacIntel,63.29113924,,,,,,,,,,,,,,,,,,,,,,707.2331,707.4317,707.4317,707.9317,,,,,,,,,,,,,,1.404,1,,,,,,,,,,,,,,m,,,,,,,,,,,,,,,134,0,707.9323,709.3484,m,1,1.404,,[],[],[],[],[],[],[],709.3484,711.3483,711.3483,711.3486,[],[],[],[],[],[],[],,711.3486,711.3487,-0.046947259,-0.381928387,0,0,0,,0,133,133,112,1,1,word,LIBERAL,cursive,liberal_c.png,,,,,,
,,,,31554,001,2025-10-18_17h52.10.662,HW_LDT_1,2024.2.4,MacIntel,63.29113924,,,,,,,,,,,,,,,,,,,,,,711.3501,711.5483,711.5483,712.0482,,,,,,,,,,,,,,2.7908,1,,,,,,,,,,,,,,z,,,,,,,,,,,,,,,135,0,712.0488,714.8483,z,1,2.7908,,[],[],[],[],[],[],[],714.8484,716.8482,716.8482,716.8485,[],[],[],[],[],[],[],,716.8486,716.8487,-0.046947259,-0.381928387,0,0,0,,0,134,134,23,1,1,RL,potugar,cursive,potugar_c.png,,,,,,
,,,,31554,001,2025-10-18_17h52.10.662,HW_LDT_1,2024.2.4,MacIntel,63.29113924,,,,,,,,,,,,,,,,,,,,,,716.85,717.0483,717.0483,717.5482,,,,,,,,,,,,,,1.0625,1,,,,,,,,,,,,,,m,,,,,,,,,,,,,,,136,0,717.5488,718.6148,m,1,1.0625,,[],[],[],[],[],[],[],718.615,720.615,720.6151,720.6153,[],[],[],[],[],[],[],,720.6154,720.6155,-0.046947259,-0.381928387,0,0,0,,0,135,135,126,1,1,word,OPTIMAL,print,optimal_p.png,,,,,,
,,,,31554,001,2025-10-18_17h52.10.662,HW_LDT_1,2024.2.4,MacIntel,63.29113924,,,,,,,,,,,,,,,,,,,,,,720.6166,720.8149,720.815,721.3148,,,,,,,,,,,,,,0.8234,1,,,,,,,,,,,,,,z,,,,,,,,,,,,,,,137,1,721.3153,722.1483,z,1,0.8234,,[],[],[],[],[],[],[],722.1484,724.1482,724.1482,724.9483,[],[],[],[],[],[],[],m,724.9483,724.9484,-0.046947259,-0.381928387,0,0,0,,0,136,136,13,1,1,RL,linefal,print,linefal_p.png,0.7882,,,,,
,,,,31554,001,2025-10-18_17h52.10.662,HW_LDT_1,2024.2.4,MacIntel,63.29113924,,,,,,,,,,,,,,,,,,,,,,724.9495,725.1479,725.148,725.6482,,,,,,,,,,,,,,1.3235,1,,,,,,,,,,,,,,m,,,,,,,,,,,,,,,138,1,725.6487,726.9816,m,1,1.3235,,[],[],[],[],[],[],[],726.9818,728.9815,728.9815,729.965,[],[],[],[],[],[],[],m,729.9651,729.9652,-0.046947259,-0.381928387,0,0,0,,0,137,137,109,1,1,word,GRATEFUL,print,grateful_p.png,0.9713,,,,,
,,,,31554,001,2025-10-18_17h52.10.662,HW_LDT_1,2024.2.4,MacIntel,63.29113924,,,,,,,,,,,,,,,,,,,,,,729.9664,730.1648,730.1648,730.6648,,,,,,,,,,,,,,0.7318,1,,,,,,,,,,,,,,m,,,,,,,,,,,,,,,139,0,730.6654,731.3981,m,1,0.7318,,[],[],[],[],[],[],[],731.3982,733.3975,733.3976,733.3976,[],[],[],[],[],[],[],,733.3977,733.3978,-0.046947259,-0.381928387,0,0,0,,0,138,138,92,1,1,word,CATEGORY,print,category_p.png,,,,,,
,,,,31554,001,2025-10-18_17h52.10.662,HW_LDT_1,2024.2.4,MacIntel,63.29113924,,,,,,,,,,,,,,,,,,,,,,733.3986,733.5982,733.5983,734.0973,,,,,,,,,,,,,,1.771,1,,,,,,,,,,,,,,m,,,,,,,,,,,,,,,140,0,734.0979,735.8816,m,1,1.771,,[],[],[],[],[],[],[],735.8818,737.8814,737.8815,737.8817,[],[],[],[],[],[],[],,737.8818,737.8819,-0.047198041,-0.381928387,0,0,0,,0,139,139,151,1,1,word,SPECIFIC,cursive,specific_c.png,,,,,,
,,,,31554,001,2025-10-18_17h52.10.662,HW_LDT_1,2024.2.4,MacIntel,63.29113924,,,,,,,,,,,,,,,,,,,,,,737.8831,738.0814,738.0814,738.5814,,,,,,,,,,,,,,1.0875,1,,,,,,,,,,,,,,m,,,,,,,,,,,,,,,141,0,738.582,739.6815,m,1,1.0875,,[],[],[],[],[],[],[],739.6816,741.6814,741.6815,741.6817,[],[],[],[],[],[],[],,741.6818,741.6818,-0.047198041,-0.381928387,0,0,0,,0,140,140,93,1,1,word,CEREMONY,cursive,ceremony_c.png,,,,,,
,,,,31554,001,2025-10-18_17h52.10.662,HW_LDT_1,2024.2.4,MacIntel,63.29113924,,,,,,,,,,,,,,,,,,,,,,741.683,741.8814,741.8815,742.3814,,,,,,,,,,,,,,0.8821,1,,,,,,,,,,,,,,m,,,,,,,,,,,,,,,142,0,742.382,743.2649,m,1,0.8821,,[],[],[],[],[],[],[],743.265,745.2648,745.2648,745.2651,[],[],[],[],[],[],[],,745.2652,745.2652,-0.047198041,-0.381928387,0,0,0,,0,141,141,129,1,1,word,PARENT,cursive,parent_c.png,,,,,,
,,,,31554,001,2025-10-18_17h52.10.662,HW_LDT_1,2024.2.4,MacIntel,63.29113924,,,,,,,,,,,,,,,,,,,,,,745.2665,745.4637,745.4637,745.9647,,,,,,,,,,,,,,0.8226,1,,,,,,,,,,,,,,z,,,,,,,,,,,,,,,143,0,745.9653,746.7972,z,1,0.8226,,[],[],[],[],[],[],[],746.7974,748.7982,748.7982,748.7984,[],[],[],[],[],[],[],,748.7984,748.7984,-0.047198041,-0.381928387,0,0,0,,0,142,142,5,1,1,RL,cobeny,cursive,cobeny_c.png,,,,,,
,,,,31554,001,2025-10-18_17h52.10.662,HW_LDT_1,2024.2.4,MacIntel,63.29113924,,,,,,,,,,,,,,,,,,,,,,748.7996,748.9982,748.9984,749.4981,,,,,,,,,,,,,,0.8871,1,,,,,,,,,,,,,,m,,,,,,,,,,,,,,,144,0,749.4987,750.3978,m,1,0.8871,,[],[],[],[],[],[],[],750.3979,752.3971,752.3971,752.3974,[],[],[],[],[],[],[],,752.3974,752.3975,-0.047198041,-0.381928387,0,0,0,,0,143,143,159,1,1,word,VETERAN,print,veteran_p.png,,,,,,
,,,,31554,001,2025-10-18_17h52.10.662,HW_LDT_1,2024.2.4,MacIntel,63.29113924,,,,,,,,,,,,,,,,,,,,,,752.3987,752.5979,752.598,753.098,,,,,,,,,,,,,,0.6237,1,,,,,,,,,,,,,,m,,,,,,,,,,,,,,,145,0,753.0986,753.7304,m,1,0.6237,,[],[],[],[],[],[],[],753.7305,755.7306,755.7307,755.7309,[],[],[],[],[],[],[],,755.7309,755.731,-0.047198041,-0.381928387,0,0,0,,0,144,144,99,1,1,word,DEBATE,print,debate_p.png,,,,,,
,,,,31554,001,2025-10-18_17h52.10.662,HW_LDT_1,2024.2.4,MacIntel,63.29113924,,,,,,,,,,,,,,,,,,,,,,755.732,755.9306,755.9306,756.4313,,,,,,,,,,,,,,1.4234,1,,,,,,,,,,,,,,m,,,,,,,,,,,,,,,146,0,756.4319,757.8647,m,1,1.4234,,[],[],[],[],[],[],[],757.8648,759.8646,759.8647,759.8648,[],[],[],[],[],[],[],,759.8649,759.865,-0.047198041,-0.381928387,0,0,0,,0,145,145,140,1,1,word,RELATIVE,cursive,relative_c.png,,,,,,
,,,,31554,001,2025-10-18_17h52.10.662,HW_LDT_1,2024.2.4,MacIntel,63.29113924,,,,,,,,,,,,,,,,,,,,,,759.8662,760.0636,760.0637,760.5636,,,,,,,,,,,,,,1.7205,1,,,,,,,,,,,,,,z,,,,,,,,,,,,,,,147,0,760.5642,762.2981,z,1,1.7205,,[],[],[],[],[],[],[],762.2982,764.2979,764.298,764.2982,[],[],[],[],[],[],[],,764.2982,764.2983,-0.047198041,-0.381928387,0,0,0,,0,146,146,20,1,1,RL,nunewical,print,nunewical_p.png,,,,,,
,,,,31554,001,2025-10-18_17h52.10.662,HW_LDT_1,2024.2.4,MacIntel,63.29113924,,,,,,,,,,,,,,,,,,,,,,764.2995,764.498,764.498,764.998,,,,,,,,,,,,,,1.1409,1,,,,,,,,,,,,,,z,,,,,,,,,,,,,,,148,0,764.9985,766.147,z,1,1.1409,,[],[],[],[],[],[],[],766.1472,768.1479,768.148,768.1482,[],[],[],[],[],[],[],,768.1482,768.1483,-0.047198041,-0.381928387,0,0,0,,0,147,147,28,1,1,RL,renutal,print,renutal_p.png,,,,,,
,,,,31554,001,2025-10-18_17h52.10.662,HW_LDT_1,2024.2.4,MacIntel,63.29113924,,,,,,,,,,,,,,,,,,,,,,768.1495,768.348,768.348,768.8479,,,,,,,,,,,,,,3.2361,1,,,,,,,,,,,,,,z,,,,,,,,,,,,,,,149,0,768.8484,772.098,z,1,3.2361,,[],[],[],[],[],[],[],772.0981,774.097,774.0971,774.0973,[],[],[],[],[],[],[],,774.0974,774.0975,-0.047198041,-0.381928387,0,0,0,,0,148,148,73,1,1,TL,ronamtic,cursive,ronamtic_c.png,,,,,,
,,,,31554,001,2025-10-18_17h52.10.662,HW_LDT_1,2024.2.4,MacIntel,63.29113924,,,,,,,,,,,,,,,,,,,,,,774.0987,774.2968,774.297,774.797,,,,,,,,,,,,,,0.7642,1,,,,,,,,,,,,,,m,,,,,,,,,,,,,,,150,0,774.7975,775.5646,m,1,0.7642,,[],[],[],[],[],[],[],775.5646,777.5645,777.5646,777.5648,[],[],[],[],[],[],[],,777.5649,777.5651,-0.047198041,-0.381928387,0,0,0,,0,149,149,83,1,1,word,ANIMAL,print,animal_p.png,,,,,,
,,,,31554,001,2025-10-18_17h52.10.662,HW_LDT_1,2024.2.4,MacIntel,63.29113924,,,,,,,,,,,,,,,,,,,,,,777.5662,777.7644,777.7645,778.2645,,,,,,,,,,,,,,1.6077,1,,,,,,,,,,,,,,z,,,,,,,,,,,,,,,151,1,778.2651,779.8802,z,1,1.6077,,[],[],[],[],[],[],[],779.8803,781.8805,781.8805,782.4145,[],[],[],[],[],[],[],z,782.4147,782.4149,-0.047198041,-0.381928387,0,0,0,,0,150,150,61,1,1,TL,mecidine,cursive,mecidine_c.png,0.5218,,,,,
,,,,31554,001,2025-10-18_17h52.10.662,HW_LDT_1,2024.2.4,MacIntel,63.29113924,,,,,,,,,,,,,,,,,,,,,,782.416,782.6146,782.6146,783.1145,,,,,,,,,,,,,,2.3799,1,,,,,,,,,,,,,,m,,,,,,,,,,,,,,,152,0,783.1151,785.497,m,1,2.3799,,[],[],[],[],[],[],[],785.4971,787.4978,787.4979,787.498,[],[],[],[],[],[],[],,787.4981,787.4982,-0.047198041,-0.381928387,0,0,0,,0,151,151,135,1,1,word,QUALITY,cursive,quality_c.png,,,,,,
,,,,31554,001,2025-10-18_17h52.10.662,HW_LDT_1,2024.2.4,MacIntel,63.29113924,,,,,,,,,,,,,,,,,,,,,,787.4994,787.6972,787.6973,788.1978,,,,,,,,,,,,,,4.2027,1,,,,,,,,,,,,,,z,,,,,,,,,,,,,,,153,0,788.1983,792.4146,z,1,4.2027,,[],[],[],[],[],[],[],792.4147,794.4145,794.4146,794.4148,[],[],[],[],[],[],[],,794.4149,794.415,-0.047198041,-0.381928387,0,0,0,,0,152,152,59,1,1,TL,lirebal,cursive,lirebal_c.png,,,,,,
,,,,31554,001,2025-10-18_17h52.10.662,HW_LDT_1,2024.2.4,MacIntel,63.29113924,,,,,,,,,,,,,,,,,,,,,,794.416,794.6147,794.6147,795.1145,,,,,,,,,,,,,,0.999,1,,,,,,,,,,,,,,m,,,,,,,,,,,,,,,154,1,795.115,796.1149,m,1,0.999,,[],[],[],[],[],[],[],796.1149,798.1145,798.1145,800.0802,[],[],[],[],[],[],[],m,800.0803,800.0804,-0.047448823,-0.381928387,0,0,0,,0,153,153,84,1,1,word,BELOVED,print,beloved_p.png,1.9554,,,,,
,,,,31554,001,2025-10-18_17h52.10.662,HW_LDT_1,2024.2.4,MacIntel,63.29113924,,,,,,,,,,,,,,,,,,,,,,800.0818,800.2811,800.2811,800.7811,,,,,,,,,,,,,,2.3866,0,,,,,,,,,,,,,,z,,,,,,,,,,,,,,,155,0,800.7818,803.1813,m,0,2.3866,,[],[],[],[],[],[],[],803.1813,805.1811,805.1812,805.1814,[],[],[],[],[],[],[],,805.1814,805.1815,-0.047448823,-0.381673354,0,0,0,,0,154,154,65,1,1,TL,orinigal,cursive,orinigal_c.png,,,,,,
,,,,31554,001,2025-10-18_17h52.10.662,HW_LDT_1,2024.2.4,MacIntel,63.29113924,,,,,,,,,,,,,,,,,,,,,,805.1828,805.3802,805.3802,805.881,,,,,,,,,,,,,,2.8466,1,,,,,,,,,,,,,,z,,,,,,,,,,,,,,,156,0,805.8816,808.7311,z,1,2.8466,,[],[],[],[],[],[],[],808.7311,810.73,810.7301,810.7303,[],[],[],[],[],[],[],,810.7303,810.7305,-0.047448823,-0.381673354,0,0,0,,0,155,155,38,1,1,RL,stopave,cursive,stopave_c.png,,,,,,
,,,,31554,001,2025-10-18_17h52.10.662,HW_LDT_1,2024.2.4,MacIntel,63.29113924,,,,,,,,,,,,,,,,,,,,,,810.7316,810.9311,810.9311,811.4306,,,,,,,,,,,,,,0.9831,1,,,,,,,,,,,,,,z,,,,,,,,,,,,,,,157,0,811.4314,812.4154,z,1,0.9831,,[],[],[],[],[],[],[],812.4154,814.4143,814.4145,814.4146,[],[],[],[],[],[],[],,814.4146,814.4148,-0.047448823,-0.381673354,0,0,0,,0,156,156,79,1,1,TL,veretan,print,veretan_p.png,,,,,,
,,,,31554,001,2025-10-18_17h52.10.662,HW_LDT_1,2024.2.4,MacIntel,63.29113924,,,,,,,,,,,,,,,,,,,,,,814.4161,814.6134,814.6134,815.1143,,,,,,,,,,,,,,0.9034,1,,,,,,,,,,,,,,z,,,,,,,,,,,,,,,158,0,815.115,816.0311,z,1,0.9034,,[],[],[],[],[],[],[],816.0312,818.03,818.0301,818.0303,[],[],[],[],[],[],[],,818.0303,818.0304,-0.047448823,-0.381673354,0,0,0,,0,157,157,29,1,1,RL,refakive,cursive,refakive_c.png,,,,,,
,,,,31554,001,2025-10-18_17h52.10.662,HW_LDT_1,2024.2.4,MacIntel,63.29113924,,,,,,,,,,,,,,,,,,,,,,818.0317,818.2311,818.2311,818.73,,,,,,,,,,,,,,0.9829,1,,,,,,,,,,,,,,z,,,,,,,,,,,,,,,159,1,818.7308,819.7146,z,1,0.9829,,[],[],[],[],[],[],[],819.7147,821.7144,821.7145,822.3643,[],[],[],[],[],[],[],m,822.3644,822.3646,-0.047448823,-0.381673354,0,0,0,,0,158,158,72,1,1,TL,remuse,print,remuse_p.png,0.6421,,,,,
,,,,31554,001,2025-10-18_17h52.10.662,HW_LDT_1,2024.2.4,MacIntel,63.29113924,,,,,,,,,,,,,,,,,,,,,,822.3657,822.5644,822.5645,823.0642,,,,,,,,,,,,,,1.2743,0,,,,,,,,,,,,,,m,,,,,,,,,,,,,,,160,0,823.065,824.3477,z,0,1.2743,,[],[],[],[],[],[],[],824.3478,826.3476,826.3477,826.3478,[],[],[],[],[],[],[],,826.3479,826.348,-0.047448823,-0.381673354,0,0,0,,0,159,159,144,1,1,word,RESIDENT,print,resident_p.png,,,,,,
,,,,31554,001,2025-10-18_17h52.10.662,HW_LDT_1,2024.2.4,MacIntel,63.29113924,,,,,,,,,,,,,,,,,,,,,,,,,,,,,,,,,,,,,,,,,,,,,,,,,,,,,,,,,,,,,,,,,,,,,,,,,,,,,,,,,,,,,,,,,,,,,,,,,,,,,,,,,,,,,,,,,,,,,,826.3619,831.3475
