counterbalance_lists.group,counterbalance_lists.remaining,get_list.started,get_list.stopped,participant,session,date,expName,psychopyVersion,OS,frameRate,Instructions.started,Instructions.stopped,key_resp.keys,instr_done_touch.x,instr_done_touch.y,instr_done_touch.leftButton,instr_done_touch.midButton,instr_done_touch.rightButton,instr_done_touch.clicked_name,start_instr.thisRepN,start_instr.thisTrialN,start_instr.thisN,start_instr.thisIndex,start_instr.ran,pageN,phase,instruct_text,has_image,instruct_image,showProgress.started,showProgress.stopped,fix.started,fix.stopped,prac.started,prac.stopped,response.keys,response.corr,touch_resp.x,touch_resp.y,touch_resp.leftButton,touch_resp.midButton,touch_resp.rightButton,touch_resp.time,touch_resp.clicked_name,rt,corr,feedback.started,feedback.stopped,trials.thisRepN,trials.thisTrialN,trials.thisN,trials.thisIndex,trials.ran,TrialID,StimulusType,Condition,PrimeDuration,Prime,Target,corrAns,response.rt,response.duration,Instructions_expt.started,Instructions_expt.stopped,key_resp_3.keys,instr_done_touch_3.x,instr_done_touch_3.y,instr_done_touch_3.leftButton,instr_done_touch_3.midButton,instr_done_touch_3.rightButton,instr_done_touch_3.clicked_name,instr_experiment.thisRepN,instr_experiment.thisTrialN,instr_experiment.thisN,instr_experiment.thisIndex,instr_experiment.ran,trialID,flag,maintask.started,maintask.stopped,key_resp_2.keys,key_resp_2.corr,targ_click.x,targ_click.y,targ_click.leftButton,targ_click.midButton,targ_click.rightButton,targ_click.time,targ_click.clicked_name,ITI.started,ITI.stopped,probe.started,probe.stopped,click_probe.x,click_probe.y,click_probe.leftButton,click_probe.midButton,click_probe.rightButton,click_probe.time,click_probe.clicked_name,key_resp_probe.keys,Break.started,Break.stopped,break_done_touch.x,break_done_touch.y,break_done_touch.leftButton,break_done_touch.midButton,break_done_touch.rightButton,break_done_keyboard.keys,list2_trials.thisRepN,list2_trials.thisTrialN,list2_trials.thisN,list2_trials.thisIndex,list2_trials.ran,list_id,item_type,string,font,stim_file,key_resp_2.rt,key_resp_2.duration,key_resp_probe.rt,key_resp_probe.duration,break_done_touch.clicked_name,End.started,End.stopped
list2,,0.4855,0.4858,31622,001,2025-11-05_10h50.25.488,HW_LDT_1,2024.2.4,MacIntel,59.88023952,,,,,,,,,,,,,,,,,,,,,,,,,,,,,,,,,,,,,,,,,,,,,,,,,,,,,,,,,,,,,,,,,,,,,,,,,,,,,,,,,,,,,,,,,,,,,,,,,,,,,,,,,,,,,,,,,,,,
,,,,31622,001,2025-11-05_10h50.25.488,HW_LDT_1,2024.2.4,MacIntel,59.88023952,0.5088,25.1934,,-0.136375122,-0.368494466,1,0,0,instr_done_button,0,0,0,0,1,1,instructions,"INSTRUCTIONS
At the start of each trial, look at the plus sign  (+) in the center of the screen.  This tells you that a trial is about to begin and where to look. Second, the plus sign will disappear and a string of letters will appear. Your task is to determine if the string of letters is a word or not. If the item is a word press the M key (on keyboard)  or touch the word button (phone/tablet).  If the item is not a word,  press the  Z key (on keyboard)  or touch the nonword button (on phone/tablet). The items will be presented for a short time. 
Press the space bar or touch  continue.",0,,,,,,,,,,,,,,,,,,,,,,,,,,,,,,,,,,,,,,,,,,,,,,,,,,,,,,,,,,,,,,,,,,,,,,,,,,,,,,,,,,,,,,,,,,,,,,,,,,
,,,,31622,001,2025-11-05_10h50.25.488,HW_LDT_1,2024.2.4,MacIntel,59.88023952,25.1945,34.16,,-0.101325005,-0.387555067,1,0,0,instr_done_button,0,1,1,1,1,2,instructions,"If your device has a keyboard, press the 'Z' key for nonwords and the 'M' key for words.





Press the space bar or touch the button below to continue.",0,keyboard-example.gif,,,,,,,,,,,,,,,,,,,,,,,,,,,,,,,,,,,,,,,,,,,,,,,,,,,,,,,,,,,,,,,,,,,,,,,,,,,,,,,,,,,,,,,,,,,,,,,,,
,,,,31622,001,2025-11-05_10h50.25.488,HW_LDT_1,2024.2.4,MacIntel,59.88023952,34.162,58.7454,,-0.095948079,-0.383991496,1,0,0,instr_done_button,0,2,2,2,1,3,instructions,"If you are using a touchscreen only device, use the buttons on the screen. Do not use the mouse.





Press the space bar or touch the button below to continue.",0,touchscreen-example.gif,,,,,,,,,,,,,,,,,,,,,,,,,,,,,,,,,,,,,,,,,,,,,,,,,,,,,,,,,,,,,,,,,,,,,,,,,,,,,,,,,,,,,,,,,,,,,,,,,
,,,,31622,001,2025-11-05_10h50.25.488,HW_LDT_1,2024.2.4,MacIntel,59.88023952,58.7485,74.8114,,-0.095374552,-0.381697252,1,0,0,instr_done_button,0,3,3,3,1,4,instructions,"It is very important that you respond as quickly and accurately as possible, as each letter string will only be on the screen for two seconds. If you do not respond within this time, the message 'Too slow!' will be displayed and the experiment will progress to the next letter string. The first 20 trials will be practice trials and you will receive feedback on your answers. 

Press the space bar or touch the button below to start the practice trials.",0,,,,,,,,,,,,,,,,,,,,,,,,,,,,,,,,,,,,,,,,,,,,,,,,,,,,,,,,,,,,,,,,,,,,,,,,,,,,,,,,,,,,,,,,,,,,,,,,,,
,,,,31622,001,2025-11-05_10h50.25.488,HW_LDT_1,2024.2.4,MacIntel,59.88023952,,,,,,,,,,,,,,,,,,,,74.8404,75.0128,75.0131,75.5123,75.5127,76.6464,,0,[-0.31283257378472223],[-0.35502427842881945],[1],[0],[0],[1.1291999999992868],"[""button_left""]",1.1292,1,76.6469,77.1465,0,0,0,12,1,1013,NW,UN,33,adveil,SPRINY,z,,,,,,,,,,,,,,,,,,,,,,,,,,,,,,,,,,,,,,,,,,,,,,,,,,,,,,,,,,,,,,,,,,
,,,,31622,001,2025-11-05_10h50.25.488,HW_LDT_1,2024.2.4,MacIntel,59.88023952,,,,,,,,,,,,,,,,,,,,77.1485,77.3461,77.3461,77.8461,77.8469,78.6965,,0,[-0.29744893391927085],[-0.3449197048611111],[1],[0],[0],[0.8478999999984751],"[""button_left""]",0.8479,1,78.6966,79.196,0,1,1,10,1,1011,NW,"ID",16,inlade,INLADE,z,,,,,,,,,,,,,,,,,,,,,,,,,,,,,,,,,,,,,,,,,,,,,,,,,,,,,,,,,,,,,,,,,,
,,,,31622,001,2025-11-05_10h50.25.488,HW_LDT_1,2024.2.4,MacIntel,59.88023952,,,,,,,,,,,,,,,,,,,,79.1969,79.3962,79.3962,79.8964,79.8971,81.7123,,0,[0.3369643825954861],[-0.30621744791666666],[1],[0],[0],[1.813699999999244],"[""button_right""]",1.8137,1,81.7124,82.2132,0,2,2,3,1,1004,WORD,"ID",16,matrix,MATRIX,m,,,,,,,,,,,,,,,,,,,,,,,,,,,,,,,,,,,,,,,,,,,,,,,,,,,,,,,,,,,,,,,,,,
,,,,31622,001,2025-11-05_10h50.25.488,HW_LDT_1,2024.2.4,MacIntel,59.88023952,,,,,,,,,,,,,,,,,,,,82.2143,82.4131,82.4131,82.9133,82.914,84.0133,,0,[-0.3309298366970486],[-0.31206095377604165],[1],[0],[0],[1.0980999999977712],"[""button_left""]",1.0981,1,84.0134,84.5137,0,3,3,13,1,1014,NW,UN,33,winfer,ROUPET,z,,,,,,,,,,,,,,,,,,,,,,,,,,,,,,,,,,,,,,,,,,,,,,,,,,,,,,,,,,,,,,,,,,
,,,,31622,001,2025-11-05_10h50.25.488,HW_LDT_1,2024.2.4,MacIntel,59.88023952,,,,,,,,,,,,,,,,,,,,84.5147,84.7122,84.7122,85.2132,85.214,85.8132,,0,[0.26250474717881944],[-0.3285275607638889],[1],[0],[0],[0.598100000001466],"[""button_right""]",0.5981,1,85.8132,86.3125,0,4,4,5,1,1006,WORD,UN,33,frenzy,OBTAIN,m,,,,,,,,,,,,,,,,,,,,,,,,,,,,,,,,,,,,,,,,,,,,,,,,,,,,,,,,,,,,,,,,,,
,,,,31622,001,2025-11-05_10h50.25.488,HW_LDT_1,2024.2.4,MacIntel,59.88023952,,,,,,,,,,,,,,,,,,,,86.3132,86.5129,86.5129,87.0133,87.014,87.7301,,0,[-0.32414198133680555],[-0.30729668511284725],[1],[0],[0],[0.7146999999992545],"[""button_left""]",0.7147,1,87.7302,88.2303,0,5,5,8,1,1009,NW,"ID",33,aslert,ASLERT,z,,,,,,,,,,,,,,,,,,,,,,,,,,,,,,,,,,,,,,,,,,,,,,,,,,,,,,,,,,,,,,,,,,
,,,,31622,001,2025-11-05_10h50.25.488,HW_LDT_1,2024.2.4,MacIntel,59.88023952,,,,,,,,,,,,,,,,,,,,88.2313,88.4298,88.4299,88.9301,88.9317,89.8797,,0,[-0.5440143330891927],[-0.31749613444010416],[1],[0],[0],[0.9471999999992136],"[""button_left""]",0.9472,1,89.8798,90.38,0,6,6,15,1,1016,NW,UN,16,mushed,WHAISE,z,,,,,,,,,,,,,,,,,,,,,,,,,,,,,,,,,,,,,,,,,,,,,,,,,,,,,,,,,,,,,,,,,,
,,,,31622,001,2025-11-05_10h50.25.488,HW_LDT_1,2024.2.4,MacIntel,59.88023952,,,,,,,,,,,,,,,,,,,,90.3812,90.5796,90.5796,91.0803,91.0811,91.997,,0,[0.294207763671875],[-0.2718243408203125],[1],[0],[0],[0.9146999999992431],"[""button_right""]",0.9147,1,91.9971,92.4972,0,7,7,7,1,1008,WORD,UN,16,hurdle,VOLUME,m,,,,,,,,,,,,,,,,,,,,,,,,,,,,,,,,,,,,,,,,,,,,,,,,,,,,,,,,,,,,,,,,,,
,,,,31622,001,2025-11-05_10h50.25.488,HW_LDT_1,2024.2.4,MacIntel,59.88023952,,,,,,,,,,,,,,,,,,,,92.4983,92.6972,92.6972,93.1975,93.1986,94.2797,,0,[-0.271915045844184],[-0.3478411865234375],[1],[0],[0],[1.0801999999992518],"[""button_left""]",1.0802,1,94.2797,94.7795,0,8,8,11,1,1012,NW,"ID",16,rashet,RASHET,z,,,,,,,,,,,,,,,,,,,,,,,,,,,,,,,,,,,,,,,,,,,,,,,,,,,,,,,,,,,,,,,,,,
,,,,31622,001,2025-11-05_10h50.25.488,HW_LDT_1,2024.2.4,MacIntel,59.88023952,,,,,,,,,,,,,,,,,,,,94.78,94.9803,94.9803,95.4804,95.481,96.6641,,0,[0.2481411404079861],[-0.29686604817708334],[1],[0],[0],[1.1820000000000164],"[""button_right""]",1.182,1,96.6642,97.164,0,9,9,0,1,1001,WORD,"ID",33,utopia,UTOPIA,m,,,,,,,,,,,,,,,,,,,,,,,,,,,,,,,,,,,,,,,,,,,,,,,,,,,,,,,,,,,,,,,,,,
,,,,31622,001,2025-11-05_10h50.25.488,HW_LDT_1,2024.2.4,MacIntel,59.88023952,,,,,,,,,,,,,,,,,,,,97.1653,97.3642,97.3642,97.8642,97.8648,99.2306,m,1,[],[],[],[],[],[],[],1.3415,1,99.2307,99.731,0,10,10,6,1,1007,WORD,UN,16,tropic,ZOMBIE,m,1.3415,,,,,,,,,,,,,,,,,,,,,,,,,,,,,,,,,,,,,,,,,,,,,,,,,,,,,,,,,,,,,,,,,
,,,,31622,001,2025-11-05_10h50.25.488,HW_LDT_1,2024.2.4,MacIntel,59.88023952,,,,,,,,,,,,,,,,,,,,99.732,99.931,99.931,100.431,100.4318,105.8983,,0,[-0.24858968098958334],[-0.31257059733072917],[1],[0],[0],[5.4652999999970575],"[""button_left""]",5.4653,1,105.8983,106.3978,0,11,11,9,1,1010,NW,"ID",33,fariny,FARINY,z,,,,,,,,,,,,,,,,,,,,,,,,,,,,,,,,,,,,,,,,,,,,,,,,,,,,,,,,,,,,,,,,,,
,,,,31622,001,2025-11-05_10h50.25.488,HW_LDT_1,2024.2.4,MacIntel,59.88023952,,,,,,,,,,,,,,,,,,,,106.399,106.598,106.5981,107.0981,107.0987,109.0471,,0,[-0.26255584716796876],[-0.29251017252604167],[1],[0],[0],[1.947399999998538],"[""button_left""]",1.9474,1,109.0473,109.5472,0,12,12,14,1,1015,NW,UN,16,miaber,THRALE,z,,,,,,,,,,,,,,,,,,,,,,,,,,,,,,,,,,,,,,,,,,,,,,,,,,,,,,,,,,,,,,,,,,
,,,,31622,001,2025-11-05_10h50.25.488,HW_LDT_1,2024.2.4,MacIntel,59.88023952,,,,,,,,,,,,,,,,,,,,109.5481,109.7476,109.7476,110.2483,110.249,111.664,,0,[0.40057535807291667],[-0.3524541558159722],[1],[0],[0],[1.4138000000007196],"[""button_right""]",1.4138,1,111.6641,112.1651,0,13,13,1,1,1002,WORD,"ID",33,adjust,ADJUST,m,,,,,,,,,,,,,,,,,,,,,,,,,,,,,,,,,,,,,,,,,,,,,,,,,,,,,,,,,,,,,,,,,,
,,,,31622,001,2025-11-05_10h50.25.488,HW_LDT_1,2024.2.4,MacIntel,59.88023952,,,,,,,,,,,,,,,,,,,,112.1656,112.3645,112.3645,112.8654,112.8662,113.7492,,0,[0.4205712890625],[-0.3327629258897569],[1],[0],[0],[0.8816999999992845],"[""button_right""]",0.8817,1,113.7492,114.2483,0,14,14,2,1,1003,WORD,"ID",16,almond,ALMOND,m,,,,,,,,,,,,,,,,,,,,,,,,,,,,,,,,,,,,,,,,,,,,,,,,,,,,,,,,,,,,,,,,,,
,,,,31622,001,2025-11-05_10h50.25.488,HW_LDT_1,2024.2.4,MacIntel,59.88023952,,,,,,,,,,,,,,,,,,,,114.2488,114.4482,114.4482,114.9488,114.9493,117.0154,,0,[0.29831095377604167],[-0.2854606797960069],[1],[0],[0],[2.0651000000015074],"[""button_right""]",2.0651,1,117.0155,117.5147,0,15,15,4,1,1005,WORD,UN,33,abound,SQUEAK,m,,,,,,,,,,,,,,,,,,,,,,,,,,,,,,,,,,,,,,,,,,,,,,,,,,,,,,,,,,,,,,,,,,
,,,,31622,001,2025-11-05_10h50.25.488,HW_LDT_1,2024.2.4,MacIntel,59.88023952,,,,,,,,,,,,,,,1,end_of_practice,"You have completed the practice trials. During the experimental trials, you will not receive feedback. On some trials you will be asked to report whether the item you just saw was in cursive or print. 
Before you begin, please ensure that you are in a comfortable and quiet location and will not be disturbed for about 15 minutes, as we cannot use your data if you do not complete all the trials. 
 When you are ready to start the experimental trials, please press space or touch the button below.",,,,,,,,,,,,,,,,,,,,,,,,,,,,,,,,,,,,117.5185,177.7529,,0.080397949,-0.384028524,1,0,0,instr_done_button_3,0,0,0,0,1,,,,,,,,,,,,,,,,,,,,,,,,,,,,,,,,,,,,,,,,,,,,,,,,,,
,,,,31622,001,2025-11-05_10h50.25.488,HW_LDT_1,2024.2.4,MacIntel,59.88023952,,,,,,,,,,,,,,,,,,,,177.7663,177.9524,177.9524,178.4521,,,,,,,,,,,,0.9612,1,,,,,,,,,,,,,,m,,,,,,,,,,,,,,,,,1,0,178.453,179.42,,0,[0.4889192708333333],[-0.31856519911024306],[1],[0],[0],[0.9611999999992236],"[""button_right_main""]",179.4201,181.419,181.4191,181.4237,[],[],[],[],[],[],[],,181.424,181.4281,0.298485514,-0.255162964,0,0,0,,0,0,0,92,1,2,word,CATEGORY,print,category_p.png,,,,,,,
,,,,31622,001,2025-11-05_10h50.25.488,HW_LDT_1,2024.2.4,MacIntel,59.88023952,,,,,,,,,,,,,,,,,,,,181.4296,181.6198,181.6198,182.1198,,,,,,,,,,,,1.5935,1,,,,,,,,,,,,,,z,,,,,,,,,,,,,,,,,2,0,182.1202,183.7199,z,1,[],[],[],[],[],[],[],183.7199,185.72,185.7201,185.7205,[],[],[],[],[],[],[],,185.7206,185.7208,0.298485514,-0.255162964,0,0,0,,0,1,1,8,1,2,RL,desifate,print,desifate_p.png,1.5935,,,,,,
,,,,31622,001,2025-11-05_10h50.25.488,HW_LDT_1,2024.2.4,MacIntel,59.88023952,,,,,,,,,,,,,,,,,,,,185.7224,185.9201,185.9201,186.4202,,,,,,,,,,,,0.8463,1,,,,,,,,,,,,,,z,,,,,,,,,,,,,,,,,3,0,186.4207,187.2692,z,1,[],[],[],[],[],[],[],187.2693,189.2693,189.2694,189.2696,[],[],[],[],[],[],[],,189.2697,189.2697,0.298485514,-0.255162964,0,0,0,,0,2,2,16,1,2,RL,losipal,print,losipal_p.png,0.8463,,,,,,
,,,,31622,001,2025-11-05_10h50.25.488,HW_LDT_1,2024.2.4,MacIntel,59.88023952,,,,,,,,,,,,,,,,,,,,189.2709,189.47,189.47,189.9693,,,,,,,,,,,,0.6962,1,,,,,,,,,,,,,,m,,,,,,,,,,,,,,,,,4,0,189.9697,190.6699,m,1,[],[],[],[],[],[],[],190.67,192.6705,192.6706,192.6709,[],[],[],[],[],[],[],,192.6709,192.671,0.298485514,-0.255162964,0,0,0,,0,3,3,114,1,2,word,LOCATE,print,locate_p.png,0.6962,,,,,,
,,,,31622,001,2025-11-05_10h50.25.488,HW_LDT_1,2024.2.4,MacIntel,59.88023952,,,,,,,,,,,,,,,,,,,,192.672,192.8705,192.8706,193.37,,,,,,,,,,,,0.9385,1,,,,,,,,,,,,,,m,,,,,,,,,,,,,,,,,5,1,193.3704,194.3203,m,1,[],[],[],[],[],[],[],194.3204,196.3201,196.3201,198.1199,[],[],[],[],[],[],[],z,198.12,198.1204,0.298485514,-0.255162964,0,0,0,,0,4,4,80,1,2,word,ACADEMY,cursive,academy_c.png,0.9385,,1.7989,,,,
,,,,31622,001,2025-11-05_10h50.25.488,HW_LDT_1,2024.2.4,MacIntel,59.88023952,,,,,,,,,,,,,,,,,,,,198.1211,198.321,198.321,198.821,,,,,,,,,,,,1.3206,1,,,,,,,,,,,,,,m,,,,,,,,,,,,,,,,,6,0,198.8214,200.1541,m,1,[],[],[],[],[],[],[],200.1542,202.154,202.1541,202.1545,[],[],[],[],[],[],[],,202.1545,202.1547,0.298485514,-0.255162964,0,0,0,,0,5,5,132,1,2,word,PROPOSAL,cursive,proposal_c.png,1.3206,,,,,,
,,,,31622,001,2025-11-05_10h50.25.488,HW_LDT_1,2024.2.4,MacIntel,59.88023952,,,,,,,,,,,,,,,,,,,,202.1561,202.3545,202.3546,202.8534,,,,,,,,,,,,1.7622,0,,,,,,,,,,,,,,z,,,,,,,,,,,,,,,,,7,0,202.8537,204.6212,m,0,[],[],[],[],[],[],[],204.6212,206.6215,206.6216,206.6218,[],[],[],[],[],[],[],,206.6218,206.622,0.298485514,-0.255162964,0,0,0,,0,6,6,61,1,2,TL,nuremical,cursive,nuremical_c.png,1.7622,,,,,,
,,,,31622,001,2025-11-05_10h50.25.488,HW_LDT_1,2024.2.4,MacIntel,59.88023952,,,,,,,,,,,,,,,,,,,,206.6229,206.8212,206.8212,207.3205,,,,,,,,,,,,0.9285,1,,,,,,,,,,,,,,z,,,,,,,,,,,,,,,,,8,0,207.3209,208.2549,z,1,[],[],[],[],[],[],[],208.255,210.2551,210.2551,210.2553,[],[],[],[],[],[],[],,210.2553,210.2554,0.298485514,-0.255162964,0,0,0,,0,7,7,48,1,2,TL,detabe,print,detabe_p.png,0.9285,,,,,,
,,,,31622,001,2025-11-05_10h50.25.488,HW_LDT_1,2024.2.4,MacIntel,59.88023952,,,,,,,,,,,,,,,,,,,,210.2564,210.4549,210.4549,210.9544,,,,,,,,,,,,0.9643,1,,,,,,,,,,,,,,z,,,,,,,,,,,,,,,,,9,0,210.9549,211.9205,z,1,[],[],[],[],[],[],[],211.9206,213.921,213.921,213.9212,[],[],[],[],[],[],[],,213.9212,213.9213,0.298485514,-0.255162964,0,0,0,,0,8,8,60,1,2,TL,molibe,print,molibe_p.png,0.9643,,,,,,
,,,,31622,001,2025-11-05_10h50.25.488,HW_LDT_1,2024.2.4,MacIntel,59.88023952,,,,,,,,,,,,,,,,,,,,213.9223,214.122,214.122,214.622,,,,,,,,,,,,3.2766,1,,,,,,,,,,,,,,z,,,,,,,,,,,,,,,,,10,0,214.6223,217.9045,z,1,[],[],[],[],[],[],[],217.9047,219.9056,219.9058,219.9059,[],[],[],[],[],[],[],,219.9059,219.9061,0.298485514,-0.255162964,0,0,0,,0,9,9,14,1,2,RL,insibate,cursive,insibate_c.png,3.2766,,,,,,
,,,,31622,001,2025-11-05_10h50.25.488,HW_LDT_1,2024.2.4,MacIntel,59.88023952,,,,,,,,,,,,,,,,,,,,219.9074,220.1057,220.1057,220.6058,,,,,,,,,,,,1.4534,1,,,,,,,,,,,,,,m,,,,,,,,,,,,,,,,,11,0,220.6062,222.0715,m,1,[],[],[],[],[],[],[],222.0716,224.0727,224.0727,224.0729,[],[],[],[],[],[],[],,224.0729,224.0731,0.298485514,-0.255162964,0,0,0,,0,10,10,156,1,2,word,TRIBUTE,cursive,tribute_c.png,1.4534,,,,,,
,,,,31622,001,2025-11-05_10h50.25.488,HW_LDT_1,2024.2.4,MacIntel,59.88023952,,,,,,,,,,,,,,,,,,,,224.0746,224.2717,224.2717,224.7727,,,,,,,,,,,,0.9099,1,,,,,,,,,,,,,,z,,,,,,,,,,,,,,,,,12,1,224.7731,225.6882,z,1,[],[],[],[],[],[],[],225.6883,227.6886,227.6886,229.2554,[],[],[],[],[],[],[],z,229.2554,229.2555,0.298485514,-0.255162964,0,0,0,,0,11,11,38,1,2,TL,atameur,cursive,atameur_c.png,0.9099,,1.5661,,,,
,,,,31622,001,2025-11-05_10h50.25.488,HW_LDT_1,2024.2.4,MacIntel,59.88023952,,,,,,,,,,,,,,,,,,,,229.2564,229.4565,229.4565,229.9564,,,,,,,,,,,,0.8968,1,,,,,,,,,,,,,,z,,,,,,,,,,,,,,,,,13,0,229.9568,230.8555,z,1,[],[],[],[],[],[],[],230.8555,232.8557,232.8557,232.8559,[],[],[],[],[],[],[],,232.8559,232.856,0.298485514,-0.255162964,0,0,0,,0,12,12,31,1,2,RL,spetisic,print,spetisic_p.png,0.8968,,,,,,
,,,,31622,001,2025-11-05_10h50.25.488,HW_LDT_1,2024.2.4,MacIntel,59.88023952,,,,,,,,,,,,,,,,,,,,232.8574,233.0566,233.0567,233.5567,,,,,,,,,,,,1.5969,1,,,,,,,,,,,,,,z,,,,,,,,,,,,,,,,,14,0,233.5571,235.1564,z,1,[],[],[],[],[],[],[],235.1565,237.1569,237.1569,237.157,[],[],[],[],[],[],[],,237.1571,237.1572,0.298485514,-0.255162964,0,0,0,,0,13,13,34,1,2,RL,trilude,cursive,trilude_c.png,1.5969,,,,,,
,,,,31622,001,2025-11-05_10h50.25.488,HW_LDT_1,2024.2.4,MacIntel,59.88023952,,,,,,,,,,,,,,,,,,,,237.1583,237.3557,237.3558,237.8558,,,,,,,,,,,,0.8113,1,,,,,,,,,,,,,,z,,,,,,,,,,,,,,,,,15,0,237.8561,238.673,z,1,[],[],[],[],[],[],[],238.6731,240.6737,240.6738,240.674,[],[],[],[],[],[],[],,240.674,240.674,0.298485514,-0.255162964,0,0,0,,0,14,14,13,1,2,RL,helicage,print,helicage_p.png,0.8113,,,,,,
,,,,31622,001,2025-11-05_10h50.25.488,HW_LDT_1,2024.2.4,MacIntel,59.88023952,,,,,,,,,,,,,,,,,,,,240.6751,240.873,240.873,241.3727,,,,,,,,,,,,0.839,1,,,,,,,,,,,,,,z,,,,,,,,,,,,,,,,,16,0,241.3731,242.223,z,1,[],[],[],[],[],[],[],242.2231,244.2229,244.223,244.2232,[],[],[],[],[],[],[],,244.2232,244.2232,0.298485514,-0.255162964,0,0,0,,0,15,15,10,1,2,RL,disluge,cursive,disluge_c.png,0.839,,,,,,
,,,,31622,001,2025-11-05_10h50.25.488,HW_LDT_1,2024.2.4,MacIntel,59.88023952,,,,,,,,,,,,,,,,,,,,244.2243,244.4232,244.4233,244.9241,,,,,,,,,,,,1.4389,1,,,,,,,,,,,,,,m,,,,,,,,,,,,,,,,,17,0,244.9244,246.3743,m,1,[],[],[],[],[],[],[],246.3744,248.3734,248.3734,248.3736,[],[],[],[],[],[],[],,248.3736,248.3737,0.298485514,-0.255162964,0,0,0,,0,16,16,110,1,2,word,HERITAGE,print,heritage_p.png,1.4389,,,,,,
,,,,31622,001,2025-11-05_10h50.25.488,HW_LDT_1,2024.2.4,MacIntel,59.88023952,,,,,,,,,,,,,,,,,,,,248.375,248.5743,248.5743,249.0743,,,,,,,,,,,,1.564,0,,,,,,,,,,,,,,m,,,,,,,,,,,,,,,,,18,0,249.0747,250.6403,z,0,[],[],[],[],[],[],[],250.6403,252.6413,252.6413,252.6414,[],[],[],[],[],[],[],,252.6415,252.6416,0.298485514,-0.255162964,0,0,0,,0,17,17,155,1,2,word,STRATEGY,cursive,strategy_c.png,1.564,,,,,,
,,,,31622,001,2025-11-05_10h50.25.488,HW_LDT_1,2024.2.4,MacIntel,59.88023952,,,,,,,,,,,,,,,,,,,,252.6429,252.8414,252.8415,253.3413,,,,,,,,,,,,0.8043,1,,,,,,,,,,,,,,z,,,,,,,,,,,,,,,,,19,0,253.3418,254.1577,z,1,[],[],[],[],[],[],[],254.1577,256.1576,256.1577,256.1578,[],[],[],[],[],[],[],,256.1579,256.158,0.298485514,-0.255162964,0,0,0,,0,18,18,68,1,2,TL,quatily,cursive,quatily_c.png,0.8043,,,,,,
,,,,31622,001,2025-11-05_10h50.25.488,HW_LDT_1,2024.2.4,MacIntel,59.88023952,,,,,,,,,,,,,,,,,,,,256.1593,256.3577,256.3577,256.8569,,,,,,,,,,,,0.7638,1,,,,,,,,,,,,,,m,,,,,,,,,,,,,,,,,20,0,256.8571,257.6236,m,1,[],[],[],[],[],[],[],257.6237,259.6247,259.6247,259.6248,[],[],[],[],[],[],[],,259.6248,259.6248,0.298485514,-0.255162964,0,0,0,,0,19,19,97,1,2,word,COVERAGE,cursive,coverage_c.png,0.7638,,,,,,
,,,,31622,001,2025-11-05_10h50.25.488,HW_LDT_1,2024.2.4,MacIntel,59.88023952,,,,,,,,,,,,,,,,,,,,259.6257,259.8247,259.8247,260.325,,,,,,,,,,,,1.1704,1,,,,,,,,,,,,,,m,,,,,,,,,,,,,,,,,21,0,260.3255,261.5086,m,1,[],[],[],[],[],[],[],261.5087,263.5082,263.5083,263.5084,[],[],[],[],[],[],[],,263.5084,263.5084,0.298485514,-0.255162964,0,0,0,,0,20,20,134,1,2,word,QUALIFY,cursive,qualify_c.png,1.1704,,,,,,
,,,,31622,001,2025-11-05_10h50.25.488,HW_LDT_1,2024.2.4,MacIntel,59.88023952,,,,,,,,,,,,,,,,,,,,263.5091,263.7072,263.7072,264.2076,,,,,,,,,,,,0.859,1,,,,,,,,,,,,,,m,,,,,,,,,,,,,,,,,22,0,264.2086,265.0751,m,1,[],[],[],[],[],[],[],265.0752,267.0755,267.0755,267.0758,[],[],[],[],[],[],[],,267.0758,267.0759,0.298485514,-0.255162964,0,0,0,,0,21,21,151,1,2,word,SPECIFIC,print,specific_p.png,0.859,,,,,,
,,,,31622,001,2025-11-05_10h50.25.488,HW_LDT_1,2024.2.4,MacIntel,59.88023952,,,,,,,,,,,,,,,,,,,,267.0773,267.2747,267.2747,267.7756,,,,,,,,,,,,1.8647,1,,,,,,,,,,,,,,m,,,,,,,,,,,,,,,,,23,0,267.776,269.6413,m,1,[],[],[],[],[],[],[],269.6414,271.6426,271.6426,271.6428,[],[],[],[],[],[],[],,271.6428,271.6429,0.298485514,-0.255162964,0,0,0,,0,22,22,99,1,2,word,DEBATE,print,debate_p.png,1.8647,,,,,,
,,,,31622,001,2025-11-05_10h50.25.488,HW_LDT_1,2024.2.4,MacIntel,59.88023952,,,,,,,,,,,,,,,,,,,,271.6439,271.8425,271.8425,272.342,,,,,,,,,,,,1.9395,1,,,,,,,,,,,,,,m,,,,,,,,,,,,,,,,,24,0,272.3424,274.2926,m,1,[],[],[],[],[],[],[],274.2927,276.2928,276.2928,276.293,[],[],[],[],[],[],[],,276.2931,276.2931,0.298485514,-0.255162964,0,0,0,,0,23,23,159,1,2,word,VETERAN,print,veteran_p.png,1.9395,,,,,,
,,,,31622,001,2025-11-05_10h50.25.488,HW_LDT_1,2024.2.4,MacIntel,59.88023952,,,,,,,,,,,,,,,,,,,,276.2941,276.4926,276.4926,276.992,,,,,,,,,,,,1.5314,1,,,,,,,,,,,,,,z,,,,,,,,,,,,,,,,,25,0,276.9924,278.5253,z,1,[],[],[],[],[],[],[],278.5253,280.5265,280.5265,280.5266,[],[],[],[],[],[],[],,280.5267,280.5268,0.298485514,-0.255162964,0,0,0,,0,24,24,71,1,2,TL,retome,cursive,retome_c.png,1.5314,,,,,,
,,,,31622,001,2025-11-05_10h50.25.488,HW_LDT_1,2024.2.4,MacIntel,59.88023952,,,,,,,,,,,,,,,,,,,,280.5279,280.7265,280.7265,281.2265,,,,,,,,,,,,1.0099,1,,,,,,,,,,,,,,m,,,,,,,,,,,,,,,,,26,1,281.2269,282.2426,m,1,[],[],[],[],[],[],[],282.2426,284.2425,284.2426,285.827,[-0.2362797376844618],[-0.338809814453125],[1],[0],[0],[1.5843000000007237],"[""button_left_probe""]",,285.8271,285.8272,-0.236279738,-0.338809814,1,0,0,,0,25,25,123,1,2,word,MODERATE,cursive,moderate_c.png,1.0099,,,,,,
,,,,31622,001,2025-11-05_10h50.25.488,HW_LDT_1,2024.2.4,MacIntel,59.88023952,,,,,,,,,,,,,,,,,,,,285.8287,286.0261,286.0261,286.526,,,,,,,,,,,,0.8726,1,,,,,,,,,,,,,,z,,,,,,,,,,,,,,,,,27,0,286.5264,287.4104,z,1,[],[],[],[],[],[],[],287.4104,289.4104,289.4104,289.4107,[],[],[],[],[],[],[],,289.4107,289.4108,-0.236279738,-0.338809814,0,0,0,,0,26,26,26,1,2,RL,retupar,cursive,retupar_c.png,0.8726,,,,,,
,,,,31622,001,2025-11-05_10h50.25.488,HW_LDT_1,2024.2.4,MacIntel,59.88023952,,,,,,,,,,,,,,,,,,,,289.4124,289.6104,289.6104,290.1103,,,,,,,,,,,,1.7053,1,,,,,,,,,,,,,,m,,,,,,,,,,,,,,,,,28,0,290.1106,291.8272,m,1,[],[],[],[],[],[],[],291.8273,293.8264,293.8264,293.8267,[],[],[],[],[],[],[],,293.8267,293.8267,-0.236279738,-0.338809814,0,0,0,,0,27,27,140,1,2,word,RELATIVE,print,relative_p.png,1.7053,,,,,,
,,,,31622,001,2025-11-05_10h50.25.488,HW_LDT_1,2024.2.4,MacIntel,59.88023952,,,,,,,,,,,,,,,,,,,,293.828,294.0273,294.0274,294.5263,,,,,,,,,,,,1.0648,0,,,,,,,,,,,,,,m,,,,,,,,,,,,,,,,,29,0,294.5267,295.5932,z,0,[],[],[],[],[],[],[],295.5934,297.5933,297.5934,297.5935,[],[],[],[],[],[],[],,297.5936,297.5937,-0.236279738,-0.338809814,0,0,0,,0,28,28,113,1,2,word,LITERAL,cursive,literal_c.png,1.0648,,,,,,
,,,,31622,001,2025-11-05_10h50.25.488,HW_LDT_1,2024.2.4,MacIntel,59.88023952,,,,,,,,,,,,,,,,,,,,297.5946,297.7933,297.7934,298.2943,,,,,,,,,,,,0.9307,1,,,,,,,,,,,,,,m,,,,,,,,,,,,,,,,,30,0,298.2947,299.2274,m,1,[],[],[],[],[],[],[],299.2274,301.2276,301.2276,301.2278,[],[],[],[],[],[],[],,301.2279,301.2279,-0.236279738,-0.338809814,0,0,0,,0,29,29,143,1,2,word,REMOVAL,print,removal_p.png,0.9307,,,,,,
,,,,31622,001,2025-11-05_10h50.25.488,HW_LDT_1,2024.2.4,MacIntel,59.88023952,,,,,,,,,,,,,,,,,,,,301.2289,301.4276,301.4276,301.9279,,,,,,,,,,,,1.4615,1,,,,,,,,,,,,,,z,,,,,,,,,,,,,,,,,31,0,301.9283,303.3946,z,1,[],[],[],[],[],[],[],303.3947,305.3947,305.3949,305.395,[],[],[],[],[],[],[],,305.395,305.3951,-0.236279738,-0.338809814,0,0,0,,0,30,30,4,1,2,RL,cenesony,print,cenesony_p.png,1.4615,,,,,,
,,,,31622,001,2025-11-05_10h50.25.488,HW_LDT_1,2024.2.4,MacIntel,59.88023952,,,,,,,,,,,,,,,,,,,,305.3962,305.5948,305.5949,306.0949,,,,,,,,,,,,3.0625,0,,,,,,,,,,,,,,m,,,,,,,,,,,,,,,,,32,0,306.0952,309.1616,z,0,[],[],[],[],[],[],[],309.1617,311.1615,311.1616,311.1617,[],[],[],[],[],[],[],,311.1617,311.1618,-0.236279738,-0.338809814,0,0,0,,0,31,31,109,1,2,word,GRATEFUL,cursive,grateful_c.png,3.0625,,,,,,
,,,,31622,001,2025-11-05_10h50.25.488,HW_LDT_1,2024.2.4,MacIntel,59.88023952,,,,,,,,,,,,,,,,,,,,311.1623,311.3618,311.3618,311.8619,,,,,,,,,,,,0.7622,0,,,,,,,,,,,,,,m,,,,,,,,,,,,,,,,,33,1,311.8622,312.628,z,0,[],[],[],[],[],[],[],312.628,314.6287,314.6288,315.6113,[-0.301994391547309],[-0.3026342095269097],[1],[0],[0],[0.9824000000022011],"[""button_left_probe""]",,315.6114,315.6115,-0.301994392,-0.30263421,1,0,0,,0,32,32,138,1,2,word,REFUSAL,cursive,refusal_c.png,0.7622,,,,,,
,,,,31622,001,2025-11-05_10h50.25.488,HW_LDT_1,2024.2.4,MacIntel,59.88023952,,,,,,,,,,,,,,,,,,,,315.6122,315.8122,315.8122,316.3122,,,,,,,,,,,,1.5315,1,,,,,,,,,,,,,,z,,,,,,,,,,,,,,,,,34,0,316.3127,317.845,z,1,[],[],[],[],[],[],[],317.845,319.8458,319.8458,319.846,[],[],[],[],[],[],[],,319.846,319.8461,-0.301994392,-0.30263421,0,0,0,,0,33,33,78,1,2,TL,stogare,print,stogare_p.png,1.5315,,,,,,
,,,,31622,001,2025-11-05_10h50.25.488,HW_LDT_1,2024.2.4,MacIntel,59.88023952,,,,,,,,,,,,,,,,,,,,319.8472,320.0458,320.0458,320.5458,,,,,,,,,,,,1.555,1,,,,,,,,,,,,,,z,,,,,,,,,,,,,,,,,35,1,320.5462,322.1126,z,1,[],[],[],[],[],[],[],322.1127,324.1128,324.1128,325.0449,[],[],[],[],[],[],[],z,325.0449,325.0449,-0.301994392,-0.30263421,0,0,0,,0,34,34,46,1,2,TL,codemy,cursive,codemy_c.png,1.555,,0.9264,,,,
,,,,31622,001,2025-11-05_10h50.25.488,HW_LDT_1,2024.2.4,MacIntel,59.88023952,,,,,,,,,,,,,,,,,,,,325.0459,325.2456,325.2456,325.7462,,,,,,,,,,,,0.6982,1,,,,,,,,,,,,,,m,,,,,,,,,,,,,,,,,36,0,325.7467,326.4459,m,1,[],[],[],[],[],[],[],326.446,328.4464,328.4465,328.4465,[],[],[],[],[],[],[],,328.4465,328.4467,-0.301994392,-0.30263421,0,0,0,,0,35,35,127,1,2,word,ORIGINAL,print,original_p.png,0.6982,,,,,,
,,,,31622,001,2025-11-05_10h50.25.488,HW_LDT_1,2024.2.4,MacIntel,59.88023952,,,,,,,,,,,,,,,,,,,,328.4483,328.6464,328.6464,329.1464,,,,,,,,,,,,0.9266,1,,,,,,,,,,,,,,z,,,,,,,,,,,,,,,,,37,0,329.1468,330.0787,z,1,[],[],[],[],[],[],[],330.0787,332.0798,332.0798,332.08,[],[],[],[],[],[],[],,332.0801,332.0801,-0.301994392,-0.30263421,0,0,0,,0,36,36,25,1,2,RL,rabigly,print,rabigly_p.png,0.9266,,,,,,
,,,,31622,001,2025-11-05_10h50.25.488,HW_LDT_1,2024.2.4,MacIntel,59.88023952,,,,,,,,,,,,,,,,,,,,332.0811,332.2799,332.28,332.78,,,,,,,,,,,,0.729,1,,,,,,,,,,,,,,z,,,,,,,,,,,,,,,,,38,0,332.7804,333.5121,z,1,[],[],[],[],[],[],[],333.5122,335.5135,335.5135,335.5137,[],[],[],[],[],[],[],,335.5137,335.5138,-0.301994392,-0.30263421,0,0,0,,0,37,37,17,1,2,RL,macise,cursive,macise_c.png,0.729,,,,,,
,,,,31622,001,2025-11-05_10h50.25.488,HW_LDT_1,2024.2.4,MacIntel,59.88023952,,,,,,,,,,,,,,,,,,,,335.515,335.7135,335.7135,336.2136,,,,,,,,,,,,0.81,1,,,,,,,,,,,,,,z,,,,,,,,,,,,,,,,,39,0,336.2141,337.03,z,1,[],[],[],[],[],[],[],337.0301,339.0297,339.0297,339.0299,[],[],[],[],[],[],[],,339.0299,339.03,-0.301994392,-0.30263421,0,0,0,,0,38,38,63,1,2,TL,orinigal,print,orinigal_p.png,0.81,,,,,,
,,,,31622,001,2025-11-05_10h50.25.488,HW_LDT_1,2024.2.4,MacIntel,59.88023952,,,,,,,,,,,,,,,,,,,,339.0311,339.2304,339.2304,339.7304,,,,,,,,,,,,2.2758,1,,,,,,,,,,,,,,z,,,,,,,,,,,,,,,,,40,0,339.7308,342.013,z,1,[],[],[],[],[],[],[],342.0131,344.0128,344.0128,344.0129,[],[],[],[],[],[],[],,344.013,344.013,-0.301994392,-0.30263421,0,0,0,,0,39,39,24,1,2,RL,rasibal,cursive,rasibal_c.png,2.2758,,,,,,
,,,,31622,001,2025-11-05_10h50.25.488,HW_LDT_1,2024.2.4,MacIntel,59.88023952,,,,,,,,,,,,,,,,,,,,344.0137,344.2134,344.2134,344.7138,,,,,,,,,,,,0.9108,1,,,,,,,,,,,,,,z,,,,,,,,,,,,,,,,,41,0,344.7141,345.6301,z,1,[],[],[],[],[],[],[],345.6302,347.631,347.631,347.6311,[],[],[],[],[],[],[],,347.6312,347.6312,-0.301994392,-0.30263421,0,0,0,,0,40,40,73,1,2,TL,redisent,print,redisent_p.png,0.9108,,,,,,
,,,,31622,001,2025-11-05_10h50.25.488,HW_LDT_1,2024.2.4,MacIntel,59.88023952,,,,,,,,,,,,,,,,,,,,347.6322,347.8302,347.8302,348.3311,,,,,,,,,,,,0.7454,1,,,,,,,,,,,,,,m,,,,,,,,,,,,,,,,,42,0,348.3314,349.081,m,1,[],[],[],[],[],[],[],349.0811,351.0809,351.0809,351.0811,[],[],[],[],[],[],[],,351.0811,351.0812,-0.301994392,-0.30263421,0,0,0,,0,41,41,122,1,2,word,MOBILE,print,mobile_p.png,0.7454,,,,,,
,,,,31622,001,2025-11-05_10h50.25.488,HW_LDT_1,2024.2.4,MacIntel,59.88023952,,,,,,,,,,,,,,,,,,,,351.0821,351.2812,351.2813,351.7813,,,,,,,,,,,,1.3113,1,,,,,,,,,,,,,,z,,,,,,,,,,,,,,,,,43,0,351.7817,353.0969,z,1,[],[],[],[],[],[],[],353.097,355.0981,355.0982,355.0983,[],[],[],[],[],[],[],,355.0984,355.0984,-0.301994392,-0.30263421,0,0,0,,0,42,42,0,1,2,RL,adnicory,print,adnicory_p.png,1.3113,,,,,,
,,,,31622,001,2025-11-05_10h50.25.488,HW_LDT_1,2024.2.4,MacIntel,59.88023952,,,,,,,,,,,,,,,,,,,,355.0994,355.2982,355.2982,355.7983,,,,,,,,,,,,1.539,1,,,,,,,,,,,,,,z,,,,,,,,,,,,,,,,,44,1,355.7986,357.3485,z,1,[],[],[],[],[],[],[],357.3485,359.3474,359.3474,361.1816,[],[],[],[],[],[],[],z,361.1816,361.1817,-0.301994392,-0.30263421,0,0,0,,0,43,43,67,1,2,TL,quafily,cursive,quafily_c.png,1.539,,1.8218,,,,
,,,,31622,001,2025-11-05_10h50.25.488,HW_LDT_1,2024.2.4,MacIntel,59.88023952,,,,,,,,,,,,,,,,,,,,361.1828,361.3819,361.382,361.8813,,,,,,,,,,,,2.0426,1,,,,,,,,,,,,,,m,,,,,,,,,,,,,,,,,45,0,361.8816,363.9312,m,1,[],[],[],[],[],[],[],363.9313,365.9315,365.9316,365.9318,[],[],[],[],[],[],[],,365.9318,365.9318,-0.301994392,-0.30263421,0,0,0,,0,44,44,88,1,2,word,CAMERA,print,camera_p.png,2.0426,,,,,,
,,,,31622,001,2025-11-05_10h50.25.488,HW_LDT_1,2024.2.4,MacIntel,59.88023952,,,,,,,,,,,,,,,,,,,,365.9327,366.1317,366.1318,366.6321,,,,,,,,,,,,2.0813,1,,,,,,,,,,,,,,z,,,,,,,,,,,,,,,,,46,0,366.6326,368.7149,z,1,[],[],[],[],[],[],[],368.7149,370.7159,370.7159,370.716,[],[],[],[],[],[],[],,370.7161,370.7162,-0.301994392,-0.30263421,0,0,0,,0,45,45,5,1,2,RL,clisimal,cursive,clisimal_c.png,2.0813,,,,,,
,,,,31622,001,2025-11-05_10h50.25.488,HW_LDT_1,2024.2.4,MacIntel,59.88023952,,,,,,,,,,,,,,,,,,,,370.7172,370.9159,370.9159,371.415,,,,,,,,,,,,1.1862,0,,,,,,,,,,,,,,m,,,,,,,,,,,,,,,,,47,0,371.4165,372.6147,z,0,[],[],[],[],[],[],[],372.6148,374.616,374.616,374.6162,[],[],[],[],[],[],[],,374.6162,374.6163,-0.301994392,-0.30263421,0,0,0,,0,46,46,106,1,2,word,ELABORATE,cursive,elaborate_c.png,1.1862,,,,,,
,,,,31622,001,2025-11-05_10h50.25.488,HW_LDT_1,2024.2.4,MacIntel,59.88023952,,,,,,,,,,,,,,,,,,,,374.6172,374.8162,374.8162,375.3161,,,,,,,,,,,,1.3391,0,,,,,,,,,,,,,,m,,,,,,,,,,,,,,,,,48,0,375.3165,376.6661,z,0,[],[],[],[],[],[],[],376.6661,378.6661,378.6662,378.6663,[],[],[],[],[],[],[],,378.6663,378.6664,-0.301994392,-0.30263421,0,0,0,,0,47,47,117,1,2,word,MARINE,cursive,marine_c.png,1.3391,,,,,,
,,,,31622,001,2025-11-05_10h50.25.488,HW_LDT_1,2024.2.4,MacIntel,59.88023952,,,,,,,,,,,,,,,,,,,,378.6671,378.8665,378.8665,379.3662,,,,,,,,,,,,2.0296,0,,,,,,,,,,,,,,m,,,,,,,,,,,,,,,,,49,0,379.3665,381.3986,z,0,[],[],[],[],[],[],[],381.3987,383.3996,383.3996,383.3998,[],[],[],[],[],[],[],,383.3998,383.3999,-0.301994392,-0.30263421,0,0,0,,0,48,48,103,1,2,word,DISPUTE,cursive,dispute_c.png,2.0296,,,,,,
,,,,31622,001,2025-11-05_10h50.25.488,HW_LDT_1,2024.2.4,MacIntel,59.88023952,,,,,,,,,,,,,,,,,,,,383.4008,383.5996,383.5997,384.0995,,,,,,,,,,,,1.1617,1,,,,,,,,,,,,,,m,,,,,,,,,,,,,,,,,50,0,384.1,385.2667,m,1,[],[],[],[],[],[],[],385.2668,387.267,387.267,387.2672,[],[],[],[],[],[],[],,387.2673,387.2673,-0.301994392,-0.30263421,0,0,0,,0,49,49,154,1,2,word,STORAGE,print,storage_p.png,1.1617,,,,,,
,,,,31622,001,2025-11-05_10h50.25.488,HW_LDT_1,2024.2.4,MacIntel,59.88023952,,,,,,,,,,,,,,,,,,,,387.2682,387.4662,387.4663,387.967,,,,,,,,,,,,1.4283,1,,,,,,,,,,,,,,z,,,,,,,,,,,,,,,,,51,0,387.9671,389.4003,z,1,[],[],[],[],[],[],[],389.4003,391.4006,391.4007,391.4008,[],[],[],[],[],[],[],,391.4008,391.401,-0.301994392,-0.30263421,0,0,0,,0,50,50,22,1,2,RL,posity,print,posity_p.png,1.4283,,,,,,
,,,,31622,001,2025-11-05_10h50.25.488,HW_LDT_1,2024.2.4,MacIntel,59.88023952,,,,,,,,,,,,,,,,,,,,391.4018,391.5998,391.5998,392.0996,,,,,,,,,,,,2.0946,0,,,,,,,,,,,,,,m,,,,,,,,,,,,,,,,,52,1,392.1,394.1996,z,0,[],[],[],[],[],[],[],394.1997,396.2009,396.2009,397.0508,[],[],[],[],[],[],[],z,397.0509,397.051,-0.301994392,-0.30263421,0,0,0,,0,51,51,94,1,2,word,CLINICAL,cursive,clinical_c.png,2.0946,,0.8395,,,,
,,,,31622,001,2025-11-05_10h50.25.488,HW_LDT_1,2024.2.4,MacIntel,59.88023952,,,,,,,,,,,,,,,,,,,,397.0519,397.2507,397.2507,397.7498,,,,,,,,,,,,2.428,1,,,,,,,,,,,,,,z,,,,,,,,,,,,,,,,,53,0,397.75,400.1841,z,1,[],[],[],[],[],[],[],400.1842,402.1835,402.1835,402.1838,[],[],[],[],[],[],[],,402.1838,402.1838,-0.301994392,-0.30263421,0,0,0,,0,52,52,2,1,2,RL,casagity,print,casagity_p.png,2.428,,,,,,
,,,,31622,001,2025-11-05_10h50.25.488,HW_LDT_1,2024.2.4,MacIntel,59.88023952,,,,,,,,,,,,,,,,,,,,402.1846,402.3904,402.3904,402.8836,,,,,,,,,,,,1.4839,1,,,,,,,,,,,,,,z,,,,,,,,,,,,,,,,,54,0,402.884,404.3681,,0,[-0.301994391547309],[-0.3026342095269097],[1],[0],[0],[1.4838999999985845],"[""button_left_main""]",404.3682,406.3678,406.3678,406.368,[],[],[],[],[],[],[],,406.368,406.368,-0.301994392,-0.30263421,0,0,0,,0,53,53,76,1,2,TL,senmitent,cursive,senmitent_c.png,,,,,,,
,,,,31622,001,2025-11-05_10h50.25.488,HW_LDT_1,2024.2.4,MacIntel,59.88023952,,,,,,,,,,,,,,,,,,,,406.3689,406.5671,406.5671,407.0683,,,,,,,,,,,,2.3824,1,,,,,,,,,,,,,,z,,,,,,,,,,,,,,,,,55,0,407.0687,409.4516,,0,[-0.34664659288194444],[-0.3343185763888889],[1],[0],[0],[2.3823999999984835],"[""button_left_main""]",409.4516,411.452,411.452,411.4522,[],[],[],[],[],[],[],,411.4522,411.4523,-0.346646593,-0.334318576,0,0,0,,0,54,54,79,1,2,TL,vadility,print,vadility_p.png,,,,,,,
,,,,31622,001,2025-11-05_10h50.25.488,HW_LDT_1,2024.2.4,MacIntel,59.88023952,,,,,,,,,,,,,,,,,,,,411.4532,411.6515,411.6515,412.1514,,,,,,,,,,,,0.983,1,,,,,,,,,,,,,,z,,,,,,,,,,,,,,,,,56,0,412.1517,413.1351,,0,[-0.33717278374565973],[-0.33722161187065974],[1],[0],[0],[0.9829999999999472],"[""button_left_main""]",413.1352,415.1355,415.1355,415.1357,[],[],[],[],[],[],[],,415.1358,415.1358,-0.337172784,-0.337221612,0,0,0,,0,55,55,9,1,2,RL,denficy,print,denficy_p.png,,,,,,,
,,,,31622,001,2025-11-05_10h50.25.488,HW_LDT_1,2024.2.4,MacIntel,59.88023952,,,,,,,,,,,,,,,,,,,,415.1368,415.3355,415.3356,415.8356,,,,,,,,,,,,0.7465,1,,,,,,,,,,,,,,z,,,,,,,,,,,,,,,,,57,0,415.8359,416.5845,z,1,[],[],[],[],[],[],[],416.5845,418.5858,418.5858,418.586,[],[],[],[],[],[],[],,418.586,418.586,-0.337172784,-0.337221612,0,0,0,,0,56,56,65,1,2,TL,polupar,cursive,polupar_c.png,0.7465,,,,,,
,,,,31622,001,2025-11-05_10h50.25.488,HW_LDT_1,2024.2.4,MacIntel,59.88023952,,,,,,,,,,,,,,,,,,,,418.587,418.7846,418.7846,419.2859,,,,,,,,,,,,0.9209,1,,,,,,,,,,,,,,z,,,,,,,,,,,,,,,,,58,0,419.2862,420.2184,z,1,[],[],[],[],[],[],[],420.2186,422.2189,422.2189,422.219,[],[],[],[],[],[],[],,422.2191,422.2191,-0.337172784,-0.337221612,0,0,0,,0,57,57,58,1,2,TL,mitilary,cursive,mitilary_c.png,0.9209,,,,,,
,,,,31622,001,2025-11-05_10h50.25.488,HW_LDT_1,2024.2.4,MacIntel,59.88023952,,,,,,,,,,,,,,,,,,,,422.22,422.4185,422.4185,422.9191,,,,,,,,,,,,0.9144,1,,,,,,,,,,,,,,z,,,,,,,,,,,,,,,,,59,1,422.9194,423.8356,z,1,[],[],[],[],[],[],[],423.8357,425.8361,425.8361,428.2687,[],[],[],[],[],[],[],m,428.2687,428.2688,0.232347276,-0.370740967,0,0,0,,0,58,58,43,1,2,TL,carema,print,carema_p.png,0.9144,,2.4265,,,,
,,,,31622,001,2025-11-05_10h50.25.488,HW_LDT_1,2024.2.4,MacIntel,59.88023952,,,,,,,,,,,,,,,,,,,,428.2696,428.4698,428.4698,428.9696,,,,,,,,,,,,1.1656,1,,,,,,,,,,,,,,z,,,,,,,,,,,,,,,,,60,0,428.9699,430.1365,z,1,[],[],[],[],[],[],[],430.1366,432.1362,432.1362,432.1363,[],[],[],[],[],[],[],,432.1363,432.1364,0.232347276,-0.370740967,0,0,0,,0,59,59,44,1,2,TL,catipal,cursive,catipal_c.png,1.1656,,,,,,
,,,,31622,001,2025-11-05_10h50.25.488,HW_LDT_1,2024.2.4,MacIntel,59.88023952,,,,,,,,,,,,,,,,,,,,432.1371,432.3367,432.3368,432.8368,,,,,,,,,,,,1.0861,1,,,,,,,,,,,,,,m,,,,,,,,,,,,,,,,,61,0,432.8371,433.9366,m,1,[],[],[],[],[],[],[],433.9366,435.937,435.937,435.9371,[],[],[],[],[],[],[],,435.9372,435.9373,0.232347276,-0.370740967,0,0,0,,0,60,60,137,1,2,word,RAPIDLY,print,rapidly_p.png,1.0861,,,,,,
,,,,31622,001,2025-11-05_10h50.25.488,HW_LDT_1,2024.2.4,MacIntel,59.88023952,,,,,,,,,,,,,,,,,,,,435.9381,436.1358,436.1359,436.636,,,,,,,,,,,,1.0118,1,,,,,,,,,,,,,,m,,,,,,,,,,,,,,,,,62,1,436.6363,437.6533,m,1,[],[],[],[],[],[],[],437.6534,439.6535,439.6536,441.0866,[],[],[],[],[],[],[],z,441.0866,441.0867,-0.145294732,-0.357731188,0,0,0,,0,61,61,95,1,2,word,COMEDY,cursive,comedy_c.png,1.0118,,1.4303,,,,
,,,,31622,001,2025-11-05_10h50.25.488,HW_LDT_1,2024.2.4,MacIntel,59.88023952,,,,,,,,,,,,,,,,,,,,441.0873,441.2871,441.2871,441.7873,,,,,,,,,,,,2.4806,1,,,,,,,,,,,,,,z,,,,,,,,,,,,,,,,,63,0,441.7877,444.2696,z,1,[],[],[],[],[],[],[],444.2696,446.271,446.271,446.2711,[],[],[],[],[],[],[],,446.2712,446.2712,-0.145294732,-0.357731188,0,0,0,,0,62,62,70,1,2,TL,retalive,print,retalive_p.png,2.4806,,,,,,
,,,,31622,001,2025-11-05_10h50.25.488,HW_LDT_1,2024.2.4,MacIntel,59.88023952,,,,,,,,,,,,,,,,,,,,446.2721,446.4707,446.4707,446.971,,,,,,,,,,,,0.8535,1,,,,,,,,,,,,,,z,,,,,,,,,,,,,,,,,64,0,446.9713,447.8378,z,1,[],[],[],[],[],[],[],447.8378,449.8378,449.8378,449.8379,[],[],[],[],[],[],[],,449.838,449.838,-0.145294732,-0.357731188,0,0,0,,0,63,63,30,1,2,RL,selamor,print,selamor_p.png,0.8535,,,,,,
,,,,31622,001,2025-11-05_10h50.25.488,HW_LDT_1,2024.2.4,MacIntel,59.88023952,,,,,,,,,,,,,,,,,,,,449.8387,450.038,450.038,450.5376,,,,,,,,,,,,1.4471,1,,,,,,,,,,,,,,m,,,,,,,,,,,,,,,,,65,0,450.538,451.9872,m,1,[],[],[],[],[],[],[],451.9873,453.987,453.987,453.9871,[],[],[],[],[],[],[],,453.9871,453.9872,-0.145294732,-0.357731188,0,0,0,,0,64,64,150,1,2,word,SENTIMENT,cursive,sentiment_c.png,1.4471,,,,,,
,,,,31622,001,2025-11-05_10h50.25.488,HW_LDT_1,2024.2.4,MacIntel,59.88023952,,,,,,,,,,,,,,,,,,,,453.9879,454.187,454.187,454.6882,,,,,,,,,,,,0.8149,1,,,,,,,,,,,,,,z,,,,,,,,,,,,,,,,,66,0,454.6886,455.504,z,1,[],[],[],[],[],[],[],455.5041,457.505,457.505,457.5051,[],[],[],[],[],[],[],,457.5051,457.5052,-0.145294732,-0.357731188,0,0,0,,0,65,65,1,1,2,RL,caleberia,print,caleberia_p.png,0.8149,,,,,,
,,,,31622,001,2025-11-05_10h50.25.488,HW_LDT_1,2024.2.4,MacIntel,59.88023952,,,,,,,,,,,,,,,,,,,,457.5059,457.7049,457.7049,458.2049,,,,,,,,,,,,0.7319,1,,,,,,,,,,,,,,z,,,,,,,,,,,,,,,,,67,0,458.2052,458.9378,z,1,[],[],[],[],[],[],[],458.9379,460.9386,460.9387,460.9388,[],[],[],[],[],[],[],,460.9388,460.9389,-0.145294732,-0.357731188,0,0,0,,0,66,66,74,1,2,TL,rerite,cursive,rerite_c.png,0.7319,,,,,,
,,,,31622,001,2025-11-05_10h50.25.488,HW_LDT_1,2024.2.4,MacIntel,59.88023952,,,,,,,,,,,,,,,,,,,,460.9398,461.1377,461.1378,461.6386,,,,,,,,,,,,1.9929,1,,,,,,,,,,,,,,z,,,,,,,,,,,,,,,,,68,0,461.6389,463.6378,z,1,[],[],[],[],[],[],[],463.6378,465.639,465.639,465.6392,[],[],[],[],[],[],[],,465.6392,465.6393,-0.145294732,-0.357731188,0,0,0,,0,67,67,32,1,2,RL,speniven,print,speniven_p.png,1.9929,,,,,,
,,,,31622,001,2025-11-05_10h50.25.488,HW_LDT_1,2024.2.4,MacIntel,59.88023952,,,,,,,,,,,,,,,,,,,,465.6404,465.8385,465.8386,466.339,,,,,,,,,,,,1.321,1,,,,,,,,,,,,,,m,,,,,,,,,,,,,,,,,69,0,466.3393,467.6725,m,1,[],[],[],[],[],[],[],467.6725,469.6724,469.6724,469.6725,[],[],[],[],[],[],[],,469.6725,469.6727,-0.145294732,-0.357731188,0,0,0,,0,68,68,147,1,2,word,ROMANTIC,print,romantic_p.png,1.321,,,,,,
,,,,31622,001,2025-11-05_10h50.25.488,HW_LDT_1,2024.2.4,MacIntel,59.88023952,,,,,,,,,,,,,,,,,,,,469.6733,469.8726,469.8727,470.3727,,,,,,,,,,,,1.2613,1,,,,,,,,,,,,,,m,,,,,,,,,,,,,,,,,70,1,470.3731,471.6385,m,1,[],[],[],[],[],[],[],471.6386,473.6396,473.6396,475.4893,[],[],[],[],[],[],[],m,475.4893,475.4894,-0.054887017,-0.345319485,0,0,0,,0,69,69,115,1,2,word,LOGICAL,print,logical_p.png,1.2613,,1.8473,,,,
,,,,31622,001,2025-11-05_10h50.25.488,HW_LDT_1,2024.2.4,MacIntel,59.88023952,,,,,,,,,,,,,,,,,,,,475.4901,475.6887,475.6887,476.1897,,,,,,,,,,,,1.4137,1,,,,,,,,,,,,,,z,,,,,,,,,,,,,,,,,71,0,476.19,477.6052,z,1,[],[],[],[],[],[],[],477.6053,479.6059,479.606,479.6061,[],[],[],[],[],[],[],,479.6061,479.6063,-0.054887017,-0.345319485,0,0,0,,0,70,70,6,1,2,RL,conbicer,print,conbicer_p.png,1.4137,,,,,,
,,,,31622,001,2025-11-05_10h50.25.488,HW_LDT_1,2024.2.4,MacIntel,59.88023952,,,,,,,,,,,,,,,,,,,,479.6071,479.8065,479.8066,480.3058,,,,,,,,,,,,0.6802,1,,,,,,,,,,,,,,z,,,,,,,,,,,,,,,,,72,1,480.3061,480.9888,z,1,[],[],[],[],[],[],[],480.9888,482.9892,482.9892,484.3226,[],[],[],[],[],[],[],z,484.3226,484.3227,-0.054887017,-0.345319485,0,0,0,,0,71,71,12,1,2,RL,gralekul,cursive,gralekul_c.png,0.6802,,1.3224,,,,
,,,,31622,001,2025-11-05_10h50.25.488,HW_LDT_1,2024.2.4,MacIntel,59.88023952,,,,,,,,,,,,,,,,,,,,484.3234,484.5227,484.5227,485.0236,,,,,,,,,,,,0.661,1,,,,,,,,,,,,,,z,,,,,,,,,,,,,,,,,73,0,485.024,485.6895,z,1,[],[],[],[],[],[],[],485.6895,487.6898,487.6898,487.6899,[],[],[],[],[],[],[],,487.6899,487.69,-0.054887017,-0.345319485,0,0,0,,0,72,72,35,1,2,RL,vesofity,print,vesofity_p.png,0.661,,,,,,
,,,,31622,001,2025-11-05_10h50.25.488,HW_LDT_1,2024.2.4,MacIntel,59.88023952,,,,,,,,,,,,,,,,,,,,487.6909,487.8898,487.8898,488.3895,,,,,,,,,,,,0.9277,1,,,,,,,,,,,,,,m,,,,,,,,,,,,,,,,,74,0,488.3899,489.3228,m,1,[],[],[],[],[],[],[],489.3228,491.3236,491.3237,491.3237,[],[],[],[],[],[],[],,491.3238,491.3238,-0.054887017,-0.345319485,0,0,0,,0,73,73,84,1,2,word,BELOVED,cursive,beloved_c.png,0.9277,,,,,,
,,,,31622,001,2025-11-05_10h50.25.488,HW_LDT_1,2024.2.4,MacIntel,59.88023952,,,,,,,,,,,,,,,,,,,,491.3254,491.5241,491.5242,492.0236,,,,,,,,,,,,1.0139,1,,,,,,,,,,,,,,z,,,,,,,,,,,,,,,,,75,0,492.024,493.0402,z,1,[],[],[],[],[],[],[],493.0402,495.0401,495.0402,495.0403,[],[],[],[],[],[],[],,495.0404,495.0404,-0.054887017,-0.345319485,0,0,0,,0,74,74,64,1,2,TL,paficic,print,paficic_p.png,1.0139,,,,,,
,,,,31622,001,2025-11-05_10h50.25.488,HW_LDT_1,2024.2.4,MacIntel,59.88023952,,,,,,,,,,,,,,,,,,,,495.0413,495.2409,495.2409,495.741,,,,,,,,,,,,1.5792,0,,,,,,,,,,,,,,m,,,,,,,,,,,,,,,,,76,0,495.7414,497.3237,z,0,[],[],[],[],[],[],[],497.3237,499.3243,499.3244,499.3245,[],[],[],[],[],[],[],,499.3245,499.3245,-0.054887017,-0.345319485,0,0,0,,0,75,75,120,1,2,word,MILITARY,cursive,military_c.png,1.5792,,,,,,
,,,,31622,001,2025-11-05_10h50.25.488,HW_LDT_1,2024.2.4,MacIntel,59.88023952,,,,,,,,,,,,,,,,,,,,499.3252,499.5243,499.5244,500.0238,,,,,,,,,,,,1.3912,1,,,,,,,,,,,,,,z,,,,,,,,,,,,,,,,,77,0,500.0243,501.4244,z,1,[],[],[],[],[],[],[],501.4244,503.4239,503.4239,503.424,[],[],[],[],[],[],[],,503.424,503.424,-0.054887017,-0.345319485,0,0,0,,0,76,76,57,1,2,TL,meromy,cursive,meromy_c.png,1.3912,,,,,,
,,,,31622,001,2025-11-05_10h50.25.488,HW_LDT_1,2024.2.4,MacIntel,59.88023952,,,,,,,,,,,,,,,,,,,,503.4247,503.6235,503.6236,504.1248,,,,,,,,,,,,0.7812,1,,,,,,,,,,,,,,z,,,,,,,,,,,,,,,,,78,0,504.1253,504.9078,z,1,[],[],[],[],[],[],[],504.9078,506.9085,506.9085,506.9086,[],[],[],[],[],[],[],,506.9087,506.9087,-0.054887017,-0.345319485,0,0,0,,0,77,77,54,1,2,TL,liretal,cursive,liretal_c.png,0.7812,,,,,,
,,,,31622,001,2025-11-05_10h50.25.488,HW_LDT_1,2024.2.4,MacIntel,59.88023952,,,,,,,,,,,,,,,,,,,,506.9104,507.1075,507.1075,507.6085,,,,,,,,,,,,1.3549,1,,,,,,,,,,,,,,m,,,,,,,,,,,,,,,,,79,0,507.609,508.9752,m,1,[],[],[],[],[],[],[],508.9753,510.9753,510.9754,510.9755,[],[],[],[],[],[],[],,510.9755,510.9756,-0.054887017,-0.345319485,0,0,0,,0,78,78,81,1,2,word,ADVISORY,print,advisory_p.png,1.3549,,,,,,
,,,,31622,001,2025-11-05_10h50.25.488,HW_LDT_1,2024.2.4,MacIntel,59.88023952,,,,,,,,,,,,,,,,,,,,510.9765,511.1753,511.1753,511.6754,,,,,,,,,,,,0.7226,0,,,,,,,,,,,,,,m,,,,,,,,,,,,,,,,,80,0,511.6758,512.4088,z,0,[],[],[],[],[],[],[],512.4089,514.4089,514.409,514.4091,[],[],[],[],[],[],[],,514.4091,527.4426,-0.107837728,-0.400168796,1,0,0,,0,79,79,121,1,2,word,MISTAKE,cursive,mistake_c.png,0.7226,,,,break_done_button,,
,,,,31622,001,2025-11-05_10h50.25.488,HW_LDT_1,2024.2.4,MacIntel,59.88023952,,,,,,,,,,,,,,,,,,,,527.4432,527.6427,527.6428,528.1431,,,,,,,,,,,,1.2204,1,,,,,,,,,,,,,,m,,,,,,,,,,,,,,,,,81,0,528.1434,529.3756,m,1,[],[],[],[],[],[],[],529.3756,531.3767,531.3768,531.3769,[],[],[],[],[],[],[],,531.3769,531.377,-0.107837728,-0.400168796,0,0,0,,0,80,80,153,1,2,word,STOLEN,print,stolen_p.png,1.2204,,,,,,
,,,,31622,001,2025-11-05_10h50.25.488,HW_LDT_1,2024.2.4,MacIntel,59.88023952,,,,,,,,,,,,,,,,,,,,531.378,531.5756,531.5756,532.0757,,,,,,,,,,,,1.2472,1,,,,,,,,,,,,,,m,,,,,,,,,,,,,,,,,82,0,532.0761,533.3256,m,1,[],[],[],[],[],[],[],533.3257,535.327,535.327,535.3271,[],[],[],[],[],[],[],,535.3272,535.3273,-0.107837728,-0.400168796,0,0,0,,0,81,81,101,1,2,word,DELICATE,print,delicate_p.png,1.2472,,,,,,
,,,,31622,001,2025-11-05_10h50.25.488,HW_LDT_1,2024.2.4,MacIntel,59.88023952,,,,,,,,,,,,,,,,,,,,535.3282,535.5266,535.5267,536.027,,,,,,,,,,,,0.9297,1,,,,,,,,,,,,,,m,,,,,,,,,,,,,,,,,83,1,536.0274,536.9594,m,1,[],[],[],[],[],[],[],536.9595,538.9594,538.9594,541.5098,[-0.2978076850043403],[-0.33822835286458336],[1],[0],[0],[2.5500999999977694],"[""button_left_probe""]",,541.5098,541.5098,-0.297807685,-0.338228353,1,0,0,,0,82,82,142,1,2,word,REMOTE,cursive,remote_c.png,0.9297,,,,,,
,,,,31622,001,2025-11-05_10h50.25.488,HW_LDT_1,2024.2.4,MacIntel,59.88023952,,,,,,,,,,,,,,,,,,,,541.5106,541.7104,541.7104,542.2101,,,,,,,,,,,,2.4985,1,,,,,,,,,,,,,,z,,,,,,,,,,,,,,,,,84,0,542.2104,544.71,z,1,[],[],[],[],[],[],[],544.7101,546.7104,546.7104,546.7106,[],[],[],[],[],[],[],,546.7106,546.7107,-0.297807685,-0.338228353,0,0,0,,0,83,83,51,1,2,TL,etidor,cursive,etidor_c.png,2.4985,,,,,,
,,,,31622,001,2025-11-05_10h50.25.488,HW_LDT_1,2024.2.4,MacIntel,59.88023952,,,,,,,,,,,,,,,,,,,,546.7115,546.9111,546.9111,547.4104,,,,,,,,,,,,0.9614,0,,,,,,,,,,,,,,m,,,,,,,,,,,,,,,,,85,0,547.4108,548.3778,z,0,[],[],[],[],[],[],[],548.3778,550.3777,550.3777,550.3779,[],[],[],[],[],[],[],,550.3779,550.378,-0.297807685,-0.338228353,0,0,0,,0,84,84,146,1,2,word,RETIRE,cursive,retire_c.png,0.9614,,,,,,
,,,,31622,001,2025-11-05_10h50.25.488,HW_LDT_1,2024.2.4,MacIntel,59.88023952,,,,,,,,,,,,,,,,,,,,550.3789,550.5777,550.5778,551.078,,,,,,,,,,,,1.7134,1,,,,,,,,,,,,,,z,,,,,,,,,,,,,,,,,86,1,551.0784,552.7937,z,1,[],[],[],[],[],[],[],552.7937,554.7949,554.7949,556.1774,[],[],[],[],[],[],[],z,556.1775,556.1777,-0.297807685,-0.338228353,0,0,0,,0,85,85,20,1,2,RL,onegator,cursive,onegator_c.png,1.7134,,1.3817,,,,
,,,,31622,001,2025-11-05_10h50.25.488,HW_LDT_1,2024.2.4,MacIntel,59.88023952,,,,,,,,,,,,,,,,,,,,556.1786,556.3785,556.3785,556.878,,,,,,,,,,,,1.1551,1,,,,,,,,,,,,,,z,,,,,,,,,,,,,,,,,87,0,556.8783,558.0452,z,1,[],[],[],[],[],[],[],558.0453,560.0453,560.0453,560.0454,[],[],[],[],[],[],[],,560.0455,560.0455,-0.297807685,-0.338228353,0,0,0,,0,86,86,39,1,2,TL,aminal,print,aminal_p.png,1.1551,,,,,,
,,,,31622,001,2025-11-05_10h50.25.488,HW_LDT_1,2024.2.4,MacIntel,59.88023952,,,,,,,,,,,,,,,,,,,,560.0465,560.2453,560.2453,560.7454,,,,,,,,,,,,1.2702,1,,,,,,,,,,,,,,m,,,,,,,,,,,,,,,,,88,0,560.7458,562.0282,m,1,[],[],[],[],[],[],[],562.0283,564.029,564.029,564.0291,[],[],[],[],[],[],[],,564.0291,564.0292,-0.297807685,-0.338228353,0,0,0,,0,87,87,112,1,2,word,LIBERAL,print,liberal_p.png,1.2702,,,,,,
,,,,31622,001,2025-11-05_10h50.25.488,HW_LDT_1,2024.2.4,MacIntel,59.88023952,,,,,,,,,,,,,,,,,,,,564.0303,564.2286,564.2286,564.728,,,,,,,,,,,,0.9445,1,,,,,,,,,,,,,,z,,,,,,,,,,,,,,,,,89,0,564.7284,565.6789,z,1,[],[],[],[],[],[],[],565.679,567.678,567.678,567.6781,[],[],[],[],[],[],[],,567.6781,567.6781,-0.297807685,-0.338228353,0,0,0,,0,88,88,18,1,2,RL,mesibine,print,mesibine_p.png,0.9445,,,,,,
,,,,31622,001,2025-11-05_10h50.25.488,HW_LDT_1,2024.2.4,MacIntel,59.88023952,,,,,,,,,,,,,,,,,,,,567.6786,567.8792,567.8792,568.3782,,,,,,,,,,,,0.745,1,,,,,,,,,,,,,,z,,,,,,,,,,,,,,,,,90,0,568.3786,569.1292,z,1,[],[],[],[],[],[],[],569.1293,571.1294,571.1295,571.1296,[],[],[],[],[],[],[],,571.1297,571.1298,-0.297807685,-0.338228353,0,0,0,,0,89,89,36,1,2,RL,vecelan,print,vecelan_p.png,0.745,,,,,,
,,,,31622,001,2025-11-05_10h50.25.488,HW_LDT_1,2024.2.4,MacIntel,59.88023952,,,,,,,,,,,,,,,,,,,,571.1306,571.3294,571.3294,571.8294,,,,,,,,,,,,0.9481,1,,,,,,,,,,,,,,m,,,,,,,,,,,,,,,,,91,0,571.8298,572.7784,m,1,[],[],[],[],[],[],[],572.7785,574.7786,574.7787,574.7788,[],[],[],[],[],[],[],,574.7788,574.7788,-0.297807685,-0.338228353,0,0,0,,0,90,90,96,1,2,word,CONSIDER,print,consider_p.png,0.9481,,,,,,
,,,,31622,001,2025-11-05_10h50.25.488,HW_LDT_1,2024.2.4,MacIntel,59.88023952,,,,,,,,,,,,,,,,,,,,574.7799,574.9794,574.9794,575.4794,,,,,,,,,,,,0.7804,1,,,,,,,,,,,,,,z,,,,,,,,,,,,,,,,,92,0,575.4798,576.262,z,1,[],[],[],[],[],[],[],576.2621,578.2632,578.2632,578.2633,[],[],[],[],[],[],[],,578.2634,578.2635,-0.297807685,-0.338228353,0,0,0,,0,91,91,11,1,2,RL,formuke,print,formuke_p.png,0.7804,,,,,,
,,,,31622,001,2025-11-05_10h50.25.488,HW_LDT_1,2024.2.4,MacIntel,59.88023952,,,,,,,,,,,,,,,,,,,,578.2646,578.4621,578.4622,578.9632,,,,,,,,,,,,1.4472,1,,,,,,,,,,,,,,m,,,,,,,,,,,,,,,,,93,0,578.9635,580.4124,m,1,[],[],[],[],[],[],[],580.4124,582.4139,582.414,582.4142,[],[],[],[],[],[],[],,582.4142,582.4143,-0.297807685,-0.338228353,0,0,0,,0,92,92,89,1,2,word,CAPACITY,print,capacity_p.png,1.4472,,,,,,
,,,,31622,001,2025-11-05_10h50.25.488,HW_LDT_1,2024.2.4,MacIntel,59.88023952,,,,,,,,,,,,,,,,,,,,582.4155,582.6132,582.6132,583.1127,,,,,,,,,,,,1.4937,1,,,,,,,,,,,,,,m,,,,,,,,,,,,,,,,,94,0,583.1131,584.6137,m,1,[],[],[],[],[],[],[],584.6137,586.6128,586.6129,586.6131,[],[],[],[],[],[],[],,586.6131,586.6131,-0.297807685,-0.338228353,0,0,0,,0,93,93,102,1,2,word,DENSITY,print,density_p.png,1.4937,,,,,,
,,,,31622,001,2025-11-05_10h50.25.488,HW_LDT_1,2024.2.4,MacIntel,59.88023952,,,,,,,,,,,,,,,,,,,,586.6147,586.814,586.8141,587.3128,,,,,,,,,,,,1.2228,1,,,,,,,,,,,,,,m,,,,,,,,,,,,,,,,,95,0,587.3133,588.5475,m,1,[],[],[],[],[],[],[],588.5476,590.5475,590.5475,590.5477,[],[],[],[],[],[],[],,590.5478,590.5478,-0.297807685,-0.338228353,0,0,0,,0,94,94,149,1,2,word,SENATOR,print,senator_p.png,1.2228,,,,,,
,,,,31622,001,2025-11-05_10h50.25.488,HW_LDT_1,2024.2.4,MacIntel,59.88023952,,,,,,,,,,,,,,,,,,,,590.5493,590.7475,590.7475,591.2475,,,,,,,,,,,,2.6809,0,,,,,,,,,,,,,,z,,,,,,,,,,,,,,,,,96,1,591.2481,593.9303,m,0,[],[],[],[],[],[],[],593.9309,595.9312,595.9312,598.8312,[],[],[],[],[],[],[],z,598.8313,598.8315,-0.297807685,-0.338228353,0,0,0,,0,95,95,47,1,2,TL,crinimal,cursive,crinimal_c.png,2.6809,,2.8877,,,,
,,,,31622,001,2025-11-05_10h50.25.488,HW_LDT_1,2024.2.4,MacIntel,59.88023952,,,,,,,,,,,,,,,,,,,,598.8326,599.0314,599.0314,599.5316,,,,,,,,,,,,1.2787,1,,,,,,,,,,,,,,z,,,,,,,,,,,,,,,,,97,0,599.5322,600.8135,z,1,[],[],[],[],[],[],[],600.8135,602.8144,602.8144,602.8147,[],[],[],[],[],[],[],,602.8147,602.8148,-0.297807685,-0.338228353,0,0,0,,0,96,96,77,1,2,TL,sloten,print,sloten_p.png,1.2787,,,,,,
,,,,31622,001,2025-11-05_10h50.25.488,HW_LDT_1,2024.2.4,MacIntel,59.88023952,,,,,,,,,,,,,,,,,,,,602.8161,603.0152,603.0154,603.515,,,,,,,,,,,,2.3976,1,,,,,,,,,,,,,,m,,,,,,,,,,,,,,,,,98,0,603.5155,605.9142,m,1,[],[],[],[],[],[],[],605.9145,607.9153,607.9153,607.9155,[],[],[],[],[],[],[],,607.9155,607.9157,-0.297807685,-0.338228353,0,0,0,,0,97,97,152,1,2,word,SPECIMEN,print,specimen_p.png,2.3976,,,,,,
,,,,31622,001,2025-11-05_10h50.25.488,HW_LDT_1,2024.2.4,MacIntel,59.88023952,,,,,,,,,,,,,,,,,,,,607.9167,608.1142,608.1143,608.6153,,,,,,,,,,,,1.5044,1,,,,,,,,,,,,,,m,,,,,,,,,,,,,,,,,99,0,608.6156,610.1323,m,1,[],[],[],[],[],[],[],610.1324,612.1313,612.1313,612.1314,[],[],[],[],[],[],[],,612.1315,612.1316,-0.297807685,-0.338228353,0,0,0,,0,98,98,145,1,2,word,RESUME,cursive,resume_c.png,1.5044,,,,,,
,,,,31622,001,2025-11-05_10h50.25.488,HW_LDT_1,2024.2.4,MacIntel,59.88023952,,,,,,,,,,,,,,,,,,,,612.1329,612.3323,612.3324,612.8324,,,,,,,,,,,,1.5101,0,,,,,,,,,,,,,,m,,,,,,,,,,,,,,,,,100,0,612.8327,614.3488,z,0,[],[],[],[],[],[],[],614.3488,616.3495,616.3495,616.3497,[],[],[],[],[],[],[],,616.3498,616.3498,-0.297807685,-0.338228353,0,0,0,,0,99,99,82,1,2,word,AMATEUR,cursive,amateur_c.png,1.5101,,,,,,
,,,,31622,001,2025-11-05_10h50.25.488,HW_LDT_1,2024.2.4,MacIntel,59.88023952,,,,,,,,,,,,,,,,,,,,616.351,616.5492,616.5494,617.0492,,,,,,,,,,,,2.4977,1,,,,,,,,,,,,,,m,,,,,,,,,,,,,,,,,101,0,617.05,619.549,m,1,[],[],[],[],[],[],[],619.549,621.5498,621.5498,621.5499,[],[],[],[],[],[],[],,621.55,621.5504,-0.297807685,-0.338228353,0,0,0,,0,100,100,93,1,2,word,CEREMONY,print,ceremony_p.png,2.4977,,,,,,
,,,,31622,001,2025-11-05_10h50.25.488,HW_LDT_1,2024.2.4,MacIntel,59.88023952,,,,,,,,,,,,,,,,,,,,621.5515,621.7496,621.7496,622.2493,,,,,,,,,,,,1.9791,1,,,,,,,,,,,,,,z,,,,,,,,,,,,,,,,,102,0,622.2497,624.2317,z,1,[],[],[],[],[],[],[],624.2317,626.2333,626.2333,626.2335,[],[],[],[],[],[],[],,626.2335,626.2338,-0.297807685,-0.338228353,0,0,0,,0,101,101,3,1,2,RL,capefory,print,capefory_p.png,1.9791,,,,,,
,,,,31622,001,2025-11-05_10h50.25.488,HW_LDT_1,2024.2.4,MacIntel,59.88023952,,,,,,,,,,,,,,,,,,,,626.2349,626.4334,626.4335,626.9333,,,,,,,,,,,,1.0763,1,,,,,,,,,,,,,,z,,,,,,,,,,,,,,,,,103,0,626.934,628.0165,z,1,[],[],[],[],[],[],[],628.0165,630.0165,630.0165,630.0168,[],[],[],[],[],[],[],,630.0169,630.0172,-0.297807685,-0.338228353,0,0,0,,0,102,102,42,1,2,TL,bedise,cursive,bedise_c.png,1.0763,,,,,,
,,,,31622,001,2025-11-05_10h50.25.488,HW_LDT_1,2024.2.4,MacIntel,59.88023952,,,,,,,,,,,,,,,,,,,,630.0183,630.2167,630.2168,630.7168,,,,,,,,,,,,0.9968,1,,,,,,,,,,,,,,m,,,,,,,,,,,,,,,,,104,0,630.7173,631.7161,m,1,[],[],[],[],[],[],[],631.7162,633.7165,633.7165,633.7167,[],[],[],[],[],[],[],,633.7168,633.7168,-0.297807685,-0.338228353,0,0,0,,0,103,103,128,1,2,word,PACIFIC,print,pacific_p.png,0.9968,,,,,,
,,,,31622,001,2025-11-05_10h50.25.488,HW_LDT_1,2024.2.4,MacIntel,59.88023952,,,,,,,,,,,,,,,,,,,,633.7182,633.917,633.9171,634.4166,,,,,,,,,,,,0.7949,0,,,,,,,,,,,,,,m,,,,,,,,,,,,,,,,,105,1,634.4175,635.2171,z,0,[],[],[],[],[],[],[],635.2172,637.2173,637.2173,638.4336,[],[],[],[],[],[],[],z,638.4338,638.4339,-0.297807685,-0.338228353,0,0,0,,0,104,104,90,1,2,word,CAPITAL,cursive,capital_c.png,0.7949,,1.214,,,,
,,,,31622,001,2025-11-05_10h50.25.488,HW_LDT_1,2024.2.4,MacIntel,59.88023952,,,,,,,,,,,,,,,,,,,,638.4346,638.6333,638.6333,639.1341,,,,,,,,,,,,1.0968,1,,,,,,,,,,,,,,z,,,,,,,,,,,,,,,,,106,1,639.1348,640.2337,z,1,[],[],[],[],[],[],[],640.2338,642.2331,642.2331,643.6349,[],[],[],[],[],[],[],m,643.6349,643.6349,-0.297807685,-0.338228353,0,0,0,,0,105,105,15,1,2,RL,linedal,print,linedal_p.png,1.0968,,1.4005,,,,
,,,,31622,001,2025-11-05_10h50.25.488,HW_LDT_1,2024.2.4,MacIntel,59.88023952,,,,,,,,,,,,,,,,,,,,643.6355,643.8345,643.8345,644.3341,,,,,,,,,,,,1.8373,0,,,,,,,,,,,,,,m,,,,,,,,,,,,,,,,,107,0,644.3346,646.1847,z,0,[],[],[],[],[],[],[],646.1848,648.1848,648.1848,648.1851,[],[],[],[],[],[],[],,648.1852,648.1855,-0.297807685,-0.338228353,0,0,0,,0,106,106,91,1,2,word,CARDINAL,cursive,cardinal_c.png,1.8373,,,,,,
,,,,31622,001,2025-11-05_10h50.25.488,HW_LDT_1,2024.2.4,MacIntel,59.88023952,,,,,,,,,,,,,,,,,,,,648.1865,648.3836,648.3837,648.8847,,,,,,,,,,,,0.7368,0,,,,,,,,,,,,,,z,,,,,,,,,,,,,,,,,108,0,648.8857,649.6349,m,0,[],[],[],[],[],[],[],649.6349,651.6344,651.6344,651.6346,[],[],[],[],[],[],[],,651.6346,651.6347,-0.297807685,-0.338228353,0,0,0,,0,107,107,37,1,2,TL,adacemy,cursive,adacemy_c.png,0.7368,,,,,,
,,,,31622,001,2025-11-05_10h50.25.488,HW_LDT_1,2024.2.4,MacIntel,59.88023952,,,,,,,,,,,,,,,,,,,,651.6361,651.835,651.835,652.335,,,,,,,,,,,,0.8243,1,,,,,,,,,,,,,,z,,,,,,,,,,,,,,,,,109,0,652.3361,653.1685,z,1,[],[],[],[],[],[],[],653.1685,655.1681,655.1682,655.1683,[],[],[],[],[],[],[],,655.1684,655.1684,-0.297807685,-0.338228353,0,0,0,,0,108,108,33,1,2,RL,strapely,cursive,strapely_c.png,0.8243,,,,,,
,,,,31622,001,2025-11-05_10h50.25.488,HW_LDT_1,2024.2.4,MacIntel,59.88023952,,,,,,,,,,,,,,,,,,,,655.1692,655.3685,655.3685,655.868,,,,,,,,,,,,1.0449,1,,,,,,,,,,,,,,m,,,,,,,,,,,,,,,,,110,0,655.8682,656.9186,m,1,[],[],[],[],[],[],[],656.9187,658.9188,658.9189,658.9189,[],[],[],[],[],[],[],,658.919,658.9191,-0.297807685,-0.338228353,0,0,0,,0,109,109,104,1,2,word,DOMINANT,print,dominant_p.png,1.0449,,,,,,
,,,,31622,001,2025-11-05_10h50.25.488,HW_LDT_1,2024.2.4,MacIntel,59.88023952,,,,,,,,,,,,,,,,,,,,658.9204,659.1188,659.1188,659.6178,,,,,,,,,,,,1.773,1,,,,,,,,,,,,,,z,,,,,,,,,,,,,,,,,111,0,659.6187,661.4011,z,1,[],[],[],[],[],[],[],661.4013,663.4023,663.4023,663.4025,[],[],[],[],[],[],[],,663.4025,663.4026,-0.297807685,-0.338228353,0,0,0,,0,110,110,28,1,2,RL,revune,cursive,revune_c.png,1.773,,,,,,
,,,,31622,001,2025-11-05_10h50.25.488,HW_LDT_1,2024.2.4,MacIntel,59.88023952,,,,,,,,,,,,,,,,,,,,663.4037,663.6027,663.6027,664.1024,,,,,,,,,,,,1.5617,1,,,,,,,,,,,,,,m,,,,,,,,,,,,,,,,,112,1,664.1028,665.669,m,1,[],[],[],[],[],[],[],665.6691,667.6691,667.6691,671.0362,[],[],[],[],[],[],[],m,671.0363,671.0365,0.263505385,-0.305545586,0,0,0,,0,111,111,144,1,2,word,RESIDENT,print,resident_p.png,1.5617,,3.3661,,,,
,,,,31622,001,2025-11-05_10h50.25.488,HW_LDT_1,2024.2.4,MacIntel,59.88023952,,,,,,,,,,,,,,,,,,,,671.0375,671.2365,671.2365,671.7361,,,,,,,,,,,,4.7198,1,,,,,,,,,,,,,,z,,,,,,,,,,,,,,,,,113,0,671.7367,676.4697,z,1,[],[],[],[],[],[],[],676.4698,678.4699,678.4699,678.4702,[],[],[],[],[],[],[],,678.4702,678.4706,0.263505385,-0.305545586,0,0,0,,0,112,112,40,1,2,TL,bevoled,cursive,bevoled_c.png,4.7198,,,,,,
,,,,31622,001,2025-11-05_10h50.25.488,HW_LDT_1,2024.2.4,MacIntel,59.88023952,,,,,,,,,,,,,,,,,,,,678.4719,678.6702,678.6702,679.1697,,,,,,,,,,,,1.4132,0,,,,,,,,,,,,,,m,,,,,,,,,,,,,,,,,114,0,679.1707,680.5856,z,0,[],[],[],[],[],[],[],680.5856,682.5866,682.5866,682.5868,[],[],[],[],[],[],[],,682.5868,682.5869,0.263505385,-0.305545586,0,0,0,,0,113,113,126,1,2,word,OPTIMAL,cursive,optimal_c.png,1.4132,,,,,,
,,,,31622,001,2025-11-05_10h50.25.488,HW_LDT_1,2024.2.4,MacIntel,59.88023952,,,,,,,,,,,,,,,,,,,,682.5882,682.7869,682.7871,683.287,,,,,,,,,,,,1.3307,1,,,,,,,,,,,,,,m,,,,,,,,,,,,,,,,,115,1,683.2879,684.62,m,1,[],[],[],[],[],[],[],684.6201,686.6206,686.6207,689.5041,[],[],[],[],[],[],[],z,689.5042,689.5042,0.263505385,-0.305545586,0,0,0,,0,114,114,136,1,2,word,RADICAL,cursive,radical_c.png,1.3307,,2.8786,,,,
,,,,31622,001,2025-11-05_10h50.25.488,HW_LDT_1,2024.2.4,MacIntel,59.88023952,,,,,,,,,,,,,,,,,,,,689.5051,689.7034,689.7035,690.2043,,,,,,,,,,,,1.0292,1,,,,,,,,,,,,,,z,,,,,,,,,,,,,,,,,116,0,690.2049,691.2373,z,1,[],[],[],[],[],[],[],691.2373,693.2377,693.2378,693.238,[],[],[],[],[],[],[],,693.2383,693.2385,0.263505385,-0.305545586,0,0,0,,0,115,115,7,1,2,RL,cocewage,cursive,cocewage_c.png,1.0292,,,,,,
,,,,31622,001,2025-11-05_10h50.25.488,HW_LDT_1,2024.2.4,MacIntel,59.88023952,,,,,,,,,,,,,,,,,,,,693.2403,693.4379,693.438,693.9378,,,,,,,,,,,,0.9315,1,,,,,,,,,,,,,,z,,,,,,,,,,,,,,,,,117,1,693.9382,694.8704,z,1,[],[],[],[],[],[],[],694.8707,696.8714,696.8714,697.7539,[],[],[],[],[],[],[],z,697.7542,697.7547,0.263505385,-0.305545586,0,0,0,,0,116,116,49,1,2,TL,dedace,print,dedace_p.png,0.9315,,0.8815,,,,
,,,,31622,001,2025-11-05_10h50.25.488,HW_LDT_1,2024.2.4,MacIntel,59.88023952,,,,,,,,,,,,,,,,,,,,697.7554,697.9547,697.9548,698.455,,,,,,,,,,,,0.8773,1,,,,,,,,,,,,,,m,,,,,,,,,,,,,,,,,118,0,698.4557,699.3382,m,1,[],[],[],[],[],[],[],699.3382,701.3376,701.3377,701.3379,[],[],[],[],[],[],[],,701.3379,701.3383,0.263505385,-0.305545586,0,0,0,,0,117,117,129,1,2,word,PARENT,print,parent_p.png,0.8773,,,,,,
,,,,31622,001,2025-11-05_10h50.25.488,HW_LDT_1,2024.2.4,MacIntel,59.88023952,,,,,,,,,,,,,,,,,,,,701.3395,701.5381,701.5381,702.0382,,,,,,,,,,,,1.9551,1,,,,,,,,,,,,,,m,,,,,,,,,,,,,,,,,119,0,702.0389,704.0051,m,1,[],[],[],[],[],[],[],704.0052,706.0053,706.0053,706.0057,[],[],[],[],[],[],[],,706.0058,706.0059,0.263505385,-0.305545586,0,0,0,,0,118,118,124,1,2,word,NUMERICAL,cursive,numerical_c.png,1.9551,,,,,,
,,,,31622,001,2025-11-05_10h50.25.488,HW_LDT_1,2024.2.4,MacIntel,59.88023952,,,,,,,,,,,,,,,,,,,,706.0066,706.2054,706.2054,706.7045,,,,,,,,,,,,1.7721,1,,,,,,,,,,,,,,m,,,,,,,,,,,,,,,,,120,0,706.7052,708.4878,m,1,[],[],[],[],[],[],[],708.488,710.4885,710.4886,710.4886,[],[],[],[],[],[],[],,710.4887,710.4887,0.263505385,-0.305545586,0,0,0,,0,119,119,133,1,2,word,PROVIDE,cursive,provide_c.png,1.7721,,,,,,
,,,,31622,001,2025-11-05_10h50.25.488,HW_LDT_1,2024.2.4,MacIntel,59.88023952,,,,,,,,,,,,,,,,,,,,710.4894,710.6886,710.6886,711.1879,,,,,,,,,,,,0.9958,1,,,,,,,,,,,,,,m,,,,,,,,,,,,,,,,,121,1,711.1883,712.1877,m,1,[],[],[],[],[],[],[],712.1878,714.1889,714.1889,715.8558,[],[],[],[],[],[],[],m,715.8559,715.856,0.263505385,-0.305545586,0,0,0,,0,120,120,158,1,2,word,VELOCITY,print,velocity_p.png,0.9958,,1.6629,,,,
,,,,31622,001,2025-11-05_10h50.25.488,HW_LDT_1,2024.2.4,MacIntel,59.88023952,,,,,,,,,,,,,,,,,,,,715.8567,716.056,716.0561,716.5549,,,,,,,,,,,,0.7893,0,,,,,,,,,,,,,,z,,,,,,,,,,,,,,,,,122,0,716.5553,717.3551,m,0,[],[],[],[],[],[],[],717.3551,719.3555,719.3555,719.3558,[],[],[],[],[],[],[],,719.3558,719.3559,0.263505385,-0.305545586,0,0,0,,0,121,121,50,1,2,TL,donimant,print,donimant_p.png,0.7893,,,,,,
,,,,31622,001,2025-11-05_10h50.25.488,HW_LDT_1,2024.2.4,MacIntel,59.88023952,,,,,,,,,,,,,,,,,,,,719.3572,719.5562,719.5562,720.0563,,,,,,,,,,,,0.6971,1,,,,,,,,,,,,,,z,,,,,,,,,,,,,,,,,123,0,720.057,720.7555,z,1,[],[],[],[],[],[],[],720.7557,722.7556,722.7557,722.7558,[],[],[],[],[],[],[],,722.7559,722.7559,0.263505385,-0.305545586,0,0,0,,0,122,122,27,1,2,RL,repifion,cursive,repifion_c.png,0.6971,,,,,,
,,,,31622,001,2025-11-05_10h50.25.488,HW_LDT_1,2024.2.4,MacIntel,59.88023952,,,,,,,,,,,,,,,,,,,,722.7575,722.956,722.9561,723.4565,,,,,,,,,,,,0.8373,1,,,,,,,,,,,,,,z,,,,,,,,,,,,,,,,,124,0,723.4572,724.3065,z,1,[],[],[],[],[],[],[],724.3066,726.3066,726.3066,726.3068,[],[],[],[],[],[],[],,726.3069,726.307,0.263505385,-0.305545586,0,0,0,,0,123,123,21,1,2,RL,pamest,print,pamest_p.png,0.8373,,,,,,
,,,,31622,001,2025-11-05_10h50.25.488,HW_LDT_1,2024.2.4,MacIntel,59.88023952,,,,,,,,,,,,,,,,,,,,726.3084,726.5058,726.5059,727.0067,,,,,,,,,,,,0.5805,1,,,,,,,,,,,,,,z,,,,,,,,,,,,,,,,,125,0,727.0071,727.5896,z,1,[],[],[],[],[],[],[],727.5897,729.5896,729.5896,729.5898,[],[],[],[],[],[],[],,729.5899,729.59,0.263505385,-0.305545586,0,0,0,,0,124,124,55,1,2,TL,lotace,print,lotace_p.png,0.5805,,,,,,
,,,,31622,001,2025-11-05_10h50.25.488,HW_LDT_1,2024.2.4,MacIntel,59.88023952,,,,,,,,,,,,,,,,,,,,729.5914,729.7892,729.7892,730.2904,,,,,,,,,,,,1.1793,1,,,,,,,,,,,,,,z,,,,,,,,,,,,,,,,,126,0,730.2911,731.4725,z,1,[],[],[],[],[],[],[],731.4726,733.4731,733.4731,733.4733,[],[],[],[],[],[],[],,733.4734,733.4734,0.263505385,-0.305545586,0,0,0,,0,125,125,62,1,2,TL,opmital,cursive,opmital_c.png,1.1793,,,,,,
,,,,31622,001,2025-11-05_10h50.25.488,HW_LDT_1,2024.2.4,MacIntel,59.88023952,,,,,,,,,,,,,,,,,,,,733.4748,733.6741,733.6741,734.1741,,,,,,,,,,,,0.7283,1,,,,,,,,,,,,,,m,,,,,,,,,,,,,,,,,127,0,734.1748,734.9061,m,1,[],[],[],[],[],[],[],734.9062,736.9074,736.9074,736.9076,[],[],[],[],[],[],[],,736.9076,736.9078,0.263505385,-0.305545586,0,0,0,,0,126,126,118,1,2,word,MEDICINE,print,medicine_p.png,0.7283,,,,,,
,,,,31622,001,2025-11-05_10h50.25.488,HW_LDT_1,2024.2.4,MacIntel,59.88023952,,,,,,,,,,,,,,,,,,,,736.9091,737.1072,737.1073,737.6063,,,,,,,,,,,,0.9617,1,,,,,,,,,,,,,,m,,,,,,,,,,,,,,,,,128,0,737.6067,738.5739,m,1,[],[],[],[],[],[],[],738.574,740.5744,740.5744,740.5747,[],[],[],[],[],[],[],,740.5749,740.575,0.263505385,-0.305545586,0,0,0,,0,127,127,119,1,2,word,MEMORY,cursive,memory_c.png,0.9617,,,,,,
,,,,31622,001,2025-11-05_10h50.25.488,HW_LDT_1,2024.2.4,MacIntel,59.88023952,,,,,,,,,,,,,,,,,,,,740.576,740.7743,740.7743,741.2743,,,,,,,,,,,,4.2119,0,,,,,,,,,,,,,,z,,,,,,,,,,,,,,,,,129,0,741.2748,745.491,m,0,[],[],[],[],[],[],[],745.4911,747.4915,747.4915,747.4916,[],[],[],[],[],[],[],,747.4916,747.4918,0.263505385,-0.305545586,0,0,0,,0,128,128,52,1,2,TL,elarobate,cursive,elarobate_c.png,4.2119,,,,,,
,,,,31622,001,2025-11-05_10h50.25.488,HW_LDT_1,2024.2.4,MacIntel,59.88023952,,,,,,,,,,,,,,,,,,,,747.4932,747.6914,747.6914,748.1915,,,,,,,,,,,,1.097,1,,,,,,,,,,,,,,m,,,,,,,,,,,,,,,,,130,0,748.1919,749.2909,m,1,[],[],[],[],[],[],[],749.291,751.2917,751.2917,751.2918,[],[],[],[],[],[],[],,751.2919,751.292,0.263505385,-0.305545586,0,0,0,,0,129,129,139,1,2,word,REGULAR,cursive,regular_c.png,1.097,,,,,,
,,,,31622,001,2025-11-05_10h50.25.488,HW_LDT_1,2024.2.4,MacIntel,59.88023952,,,,,,,,,,,,,,,,,,,,751.2933,751.4909,751.491,751.9911,,,,,,,,,,,,1.7153,1,,,,,,,,,,,,,,z,,,,,,,,,,,,,,,,,131,0,751.9915,753.7086,z,1,[],[],[],[],[],[],[],753.7086,755.7086,755.7087,755.7089,[],[],[],[],[],[],[],,755.7089,755.709,0.263505385,-0.305545586,0,0,0,,0,130,130,19,1,2,RL,monebate,cursive,monebate_c.png,1.7153,,,,,,
,,,,31622,001,2025-11-05_10h50.25.488,HW_LDT_1,2024.2.4,MacIntel,59.88023952,,,,,,,,,,,,,,,,,,,,755.7106,755.9084,755.9084,756.4084,,,,,,,,,,,,1.2432,1,,,,,,,,,,,,,,m,,,,,,,,,,,,,,,,,132,0,756.4092,757.6586,m,1,[],[],[],[],[],[],[],757.6587,759.6589,759.6589,759.6592,[],[],[],[],[],[],[],,759.6592,759.6596,0.263505385,-0.305545586,0,0,0,,0,131,131,83,1,2,word,ANIMAL,print,animal_p.png,1.2432,,,,,,
,,,,31622,001,2025-11-05_10h50.25.488,HW_LDT_1,2024.2.4,MacIntel,59.88023952,,,,,,,,,,,,,,,,,,,,759.6607,759.8579,759.858,760.359,,,,,,,,,,,,1.519,1,,,,,,,,,,,,,,m,,,,,,,,,,,,,,,,,133,0,760.3596,761.8911,m,1,[],[],[],[],[],[],[],761.8911,763.8912,763.8912,763.8913,[],[],[],[],[],[],[],,763.8913,763.8915,0.263505385,-0.305545586,0,0,0,,0,132,132,148,1,2,word,SALINE,cursive,saline_c.png,1.519,,,,,,
,,,,31622,001,2025-11-05_10h50.25.488,HW_LDT_1,2024.2.4,MacIntel,59.88023952,,,,,,,,,,,,,,,,,,,,763.8922,764.0925,764.0925,764.5925,,,,,,,,,,,,1.0301,1,,,,,,,,,,,,,,m,,,,,,,,,,,,,,,,,134,0,764.5933,765.6253,m,1,[],[],[],[],[],[],[],765.6254,767.626,767.6261,767.6262,[],[],[],[],[],[],[],,767.6263,767.6264,0.263505385,-0.305545586,0,0,0,,0,133,133,107,1,2,word,EVIDENT,cursive,evident_c.png,1.0301,,,,,,
,,,,31622,001,2025-11-05_10h50.25.488,HW_LDT_1,2024.2.4,MacIntel,59.88023952,,,,,,,,,,,,,,,,,,,,767.6277,767.8261,767.8262,768.3262,,,,,,,,,,,,2.0128,1,,,,,,,,,,,,,,z,,,,,,,,,,,,,,,,,135,0,768.3269,770.3426,z,1,[],[],[],[],[],[],[],770.3426,772.3429,772.3429,772.343,[],[],[],[],[],[],[],,772.343,772.3431,0.263505385,-0.305545586,0,0,0,,0,134,134,59,1,2,TL,miskate,cursive,miskate_c.png,2.0128,,,,,,
,,,,31622,001,2025-11-05_10h50.25.488,HW_LDT_1,2024.2.4,MacIntel,59.88023952,,,,,,,,,,,,,,,,,,,,772.3438,772.5428,772.5429,773.0433,,,,,,,,,,,,1.4107,1,,,,,,,,,,,,,,z,,,,,,,,,,,,,,,,,136,0,773.044,774.4598,z,1,[],[],[],[],[],[],[],774.4598,776.4588,776.4588,776.4592,[],[],[],[],[],[],[],,776.4592,776.4592,0.263505385,-0.305545586,0,0,0,,0,135,135,41,1,2,TL,befenit,cursive,befenit_c.png,1.4107,,,,,,
,,,,31622,001,2025-11-05_10h50.25.488,HW_LDT_1,2024.2.4,MacIntel,59.88023952,,,,,,,,,,,,,,,,,,,,776.4606,776.66,776.6601,777.159,,,,,,,,,,,,1.6558,1,,,,,,,,,,,,,,m,,,,,,,,,,,,,,,,,137,0,777.1596,778.8269,m,1,[],[],[],[],[],[],[],778.8271,780.827,780.827,780.8272,[],[],[],[],[],[],[],,780.8273,780.8274,0.263505385,-0.305545586,0,0,0,,0,136,136,131,1,2,word,POPULAR,cursive,popular_c.png,1.6558,,,,,,
,,,,31622,001,2025-11-05_10h50.25.488,HW_LDT_1,2024.2.4,MacIntel,59.88023952,,,,,,,,,,,,,,,,,,,,780.8287,781.027,781.027,781.5259,,,,,,,,,,,,1.3457,0,,,,,,,,,,,,,,m,,,,,,,,,,,,,,,,,138,0,781.5263,782.8771,z,0,[],[],[],[],[],[],[],782.8772,784.8762,784.8763,784.8764,[],[],[],[],[],[],[],,784.8764,784.8765,0.263505385,-0.305545586,0,0,0,,0,137,137,125,1,2,word,OPERATOR,cursive,operator_c.png,1.3457,,,,,,
,,,,31622,001,2025-11-05_10h50.25.488,HW_LDT_1,2024.2.4,MacIntel,59.88023952,,,,,,,,,,,,,,,,,,,,784.8779,785.0772,785.0773,785.5773,,,,,,,,,,,,1.3279,1,,,,,,,,,,,,,,z,,,,,,,,,,,,,,,,,139,0,785.5778,786.9093,z,1,[],[],[],[],[],[],[],786.9094,788.9106,788.9106,788.9108,[],[],[],[],[],[],[],,788.9109,788.911,0.263505385,-0.305545586,0,0,0,,0,138,138,56,1,2,TL,marnigal,cursive,marnigal_c.png,1.3279,,,,,,
,,,,31622,001,2025-11-05_10h50.25.488,HW_LDT_1,2024.2.4,MacIntel,59.88023952,,,,,,,,,,,,,,,,,,,,788.9122,789.1106,789.1106,789.6105,,,,,,,,,,,,1.4713,0,,,,,,,,,,,,,,m,,,,,,,,,,,,,,,,,140,0,789.6111,791.0935,z,0,[],[],[],[],[],[],[],791.0935,793.0944,793.0944,793.0946,[],[],[],[],[],[],[],,793.0948,793.0948,0.263505385,-0.305545586,0,0,0,,0,139,139,105,1,2,word,EDITOR,cursive,editor_c.png,1.4713,,,,,,
,,,,31622,001,2025-11-05_10h50.25.488,HW_LDT_1,2024.2.4,MacIntel,59.88023952,,,,,,,,,,,,,,,,,,,,793.0961,793.2935,793.2935,793.7945,,,,,,,,,,,,1.9445,0,,,,,,,,,,,,,,m,,,,,,,,,,,,,,,,,141,1,793.795,795.7447,z,0,[],[],[],[],[],[],[],795.7448,797.7445,797.7446,799.1442,[],[],[],[],[],[],[],z,799.1443,799.1444,0.263505385,-0.305545586,0,0,0,,0,140,140,116,1,2,word,MARGINAL,cursive,marginal_c.png,1.9445,,1.3979,,,,
,,,,31622,001,2025-11-05_10h50.25.488,HW_LDT_1,2024.2.4,MacIntel,59.88023952,,,,,,,,,,,,,,,,,,,,799.1449,799.3443,799.3444,799.8446,,,,,,,,,,,,1.1112,1,,,,,,,,,,,,,,m,,,,,,,,,,,,,,,,,142,0,799.845,800.9613,m,1,[],[],[],[],[],[],[],800.9613,802.9606,802.9607,802.9609,[],[],[],[],[],[],[],,802.9609,802.961,0.263505385,-0.305545586,0,0,0,,0,141,141,130,1,2,word,POLICY,print,policy_p.png,1.1112,,,,,,
,,,,31622,001,2025-11-05_10h50.25.488,HW_LDT_1,2024.2.4,MacIntel,59.88023952,,,,,,,,,,,,,,,,,,,,802.9624,803.1606,803.1607,803.6614,,,,,,,,,,,,1.4316,1,,,,,,,,,,,,,,m,,,,,,,,,,,,,,,,,143,0,803.662,805.0947,m,1,[],[],[],[],[],[],[],805.0947,807.0954,807.0955,807.0957,[],[],[],[],[],[],[],,807.0958,807.0958,0.263505385,-0.305545586,0,0,0,,0,142,142,98,1,2,word,CRIMINAL,cursive,criminal_c.png,1.4316,,,,,,
,,,,31622,001,2025-11-05_10h50.25.488,HW_LDT_1,2024.2.4,MacIntel,59.88023952,,,,,,,,,,,,,,,,,,,,807.0971,807.2953,807.2954,807.7956,,,,,,,,,,,,1.8391,0,,,,,,,,,,,,,,z,,,,,,,,,,,,,,,,,144,0,807.7964,809.6456,m,0,[],[],[],[],[],[],[],809.6457,811.6458,811.6459,811.646,[],[],[],[],[],[],[],,811.6461,811.6462,0.263505385,-0.305545586,0,0,0,,0,143,143,66,1,2,TL,prodive,cursive,prodive_c.png,1.8391,,,,,,
,,,,31622,001,2025-11-05_10h50.25.488,HW_LDT_1,2024.2.4,MacIntel,59.88023952,,,,,,,,,,,,,,,,,,,,811.6472,811.8458,811.8458,812.3454,,,,,,,,,,,,1.5658,1,,,,,,,,,,,,,,z,,,,,,,,,,,,,,,,,145,0,812.3457,813.9123,z,1,[],[],[],[],[],[],[],813.9123,815.9125,815.9126,815.9128,[],[],[],[],[],[],[],,815.9128,815.913,0.263505385,-0.305545586,0,0,0,,0,144,144,75,1,2,TL,ronamtic,print,ronamtic_p.png,1.5658,,,,,,
,,,,31622,001,2025-11-05_10h50.25.488,HW_LDT_1,2024.2.4,MacIntel,59.88023952,,,,,,,,,,,,,,,,,,,,815.9142,816.1127,816.1127,816.6121,,,,,,,,,,,,1.996,1,,,,,,,,,,,,,,m,,,,,,,,,,,,,,,,,146,0,816.6126,818.6127,m,1,[],[],[],[],[],[],[],818.6127,820.6119,820.612,820.6122,[],[],[],[],[],[],[],,820.6122,820.6123,0.263505385,-0.305545586,0,0,0,,0,145,145,135,1,2,word,QUALITY,cursive,quality_c.png,1.996,,,,,,
,,,,31622,001,2025-11-05_10h50.25.488,HW_LDT_1,2024.2.4,MacIntel,59.88023952,,,,,,,,,,,,,,,,,,,,820.6134,820.813,820.813,821.313,,,,,,,,,,,,1.8626,1,,,,,,,,,,,,,,z,,,,,,,,,,,,,,,,,147,0,821.3137,823.1785,z,1,[],[],[],[],[],[],[],823.1785,825.1789,825.179,825.1792,[],[],[],[],[],[],[],,825.1793,825.1793,0.263505385,-0.305545586,0,0,0,,0,146,146,72,1,2,TL,revomal,print,revomal_p.png,1.8626,,,,,,
,,,,31622,001,2025-11-05_10h50.25.488,HW_LDT_1,2024.2.4,MacIntel,59.88023952,,,,,,,,,,,,,,,,,,,,825.1808,825.3789,825.3789,825.8795,,,,,,,,,,,,3.9959,1,,,,,,,,,,,,,,z,,,,,,,,,,,,,,,,,148,0,825.8801,829.879,z,1,[],[],[],[],[],[],[],829.8791,831.8793,831.8794,831.8795,[],[],[],[],[],[],[],,831.8796,831.8797,0.263505385,-0.305545586,0,0,0,,0,147,147,53,1,2,TL,edivent,cursive,edivent_c.png,3.9959,,,,,,
,,,,31622,001,2025-11-05_10h50.25.488,HW_LDT_1,2024.2.4,MacIntel,59.88023952,,,,,,,,,,,,,,,,,,,,831.881,832.0805,832.0805,832.5805,,,,,,,,,,,,1.8607,0,,,,,,,,,,,,,,m,,,,,,,,,,,,,,,,,149,1,832.5814,834.4458,z,0,[],[],[],[],[],[],[],834.4459,836.4469,836.447,837.4975,[],[],[],[],[],[],[],z,837.4976,837.498,0.263505385,-0.305545586,0,0,0,,0,148,148,111,1,2,word,INDICATE,cursive,indicate_c.png,1.8607,,1.0492,,,,
,,,,31622,001,2025-11-05_10h50.25.488,HW_LDT_1,2024.2.4,MacIntel,59.88023952,,,,,,,,,,,,,,,,,,,,837.4986,837.6976,837.6976,838.1975,,,,,,,,,,,,1.4793,1,,,,,,,,,,,,,,m,,,,,,,,,,,,,,,,,150,0,838.198,839.6796,m,1,[],[],[],[],[],[],[],839.6797,841.6808,841.6808,841.681,[],[],[],[],[],[],[],,841.681,841.681,0.263505385,-0.305545586,0,0,0,,0,149,149,86,1,2,word,BESIDE,cursive,beside_c.png,1.4793,,,,,,
,,,,31622,001,2025-11-05_10h50.25.488,HW_LDT_1,2024.2.4,MacIntel,59.88023952,,,,,,,,,,,,,,,,,,,,841.6825,841.8812,841.8812,842.3805,,,,,,,,,,,,1.505,1,,,,,,,,,,,,,,z,,,,,,,,,,,,,,,,,151,0,842.3813,843.899,z,1,[],[],[],[],[],[],[],843.8991,845.8972,845.8973,845.8974,[],[],[],[],[],[],[],,845.8974,845.8976,0.263505385,-0.305545586,0,0,0,,0,150,150,69,1,2,TL,resufal,cursive,resufal_c.png,1.505,,,,,,
,,,,31622,001,2025-11-05_10h50.25.488,HW_LDT_1,2024.2.4,MacIntel,59.88023952,,,,,,,,,,,,,,,,,,,,845.8989,846.098,846.098,846.5981,,,,,,,,,,,,1.3435,1,,,,,,,,,,,,,,z,,,,,,,,,,,,,,,,,152,0,846.5988,847.9468,z,1,[],[],[],[],[],[],[],847.9469,849.9485,849.9486,849.949,[],[],[],[],[],[],[],,849.9492,849.9493,0.263505385,-0.305545586,0,0,0,,0,151,151,23,1,2,RL,procogal,cursive,procogal_c.png,1.3435,,,,,,
,,,,31622,001,2025-11-05_10h50.25.488,HW_LDT_1,2024.2.4,MacIntel,59.88023952,,,,,,,,,,,,,,,,,,,,849.9502,850.1476,850.1476,850.6486,,,,,,,,,,,,1.4379,1,,,,,,,,,,,,,,m,,,,,,,,,,,,,,,,,153,1,850.6492,852.0981,m,1,[],[],[],[],[],[],[],852.0982,854.0986,854.0987,856.0977,[],[],[],[],[],[],[],m,856.0977,856.0977,0.263505385,-0.305545586,0,0,0,,0,152,152,87,1,2,word,CAFETERIA,print,cafeteria_p.png,1.4379,,1.9972,,,,
,,,,31622,001,2025-11-05_10h50.25.488,HW_LDT_1,2024.2.4,MacIntel,59.88023952,,,,,,,,,,,,,,,,,,,,856.0986,856.2989,856.2989,856.7981,,,,,,,,,,,,1.3448,1,,,,,,,,,,,,,,m,,,,,,,,,,,,,,,,,154,0,856.7985,858.1487,m,1,[],[],[],[],[],[],[],858.1488,860.1486,860.1486,860.1488,[],[],[],[],[],[],[],,860.1488,860.1491,0.263505385,-0.305545586,0,0,0,,0,153,153,141,1,2,word,RELIGION,cursive,religion_c.png,1.3448,,,,,,
,,,,31622,001,2025-11-05_10h50.25.488,HW_LDT_1,2024.2.4,MacIntel,59.88023952,,,,,,,,,,,,,,,,,,,,860.1497,860.3487,860.3487,860.8483,,,,,,,,,,,,2.7763,1,,,,,,,,,,,,,,z,,,,,,,,,,,,,,,,,155,0,860.8485,863.6325,z,1,[],[],[],[],[],[],[],863.6326,865.6319,865.632,865.6321,[],[],[],[],[],[],[],,865.6323,865.6324,0.263505385,-0.305545586,0,0,0,,0,154,154,29,1,2,RL,samite,cursive,samite_c.png,2.7763,,,,,,
,,,,31622,001,2025-11-05_10h50.25.488,HW_LDT_1,2024.2.4,MacIntel,59.88023952,,,,,,,,,,,,,,,,,,,,865.6336,865.8327,865.833,866.3319,,,,,,,,,,,,1.7888,1,,,,,,,,,,,,,,z,,,,,,,,,,,,,,,,,156,0,866.3323,868.1325,z,1,[],[],[],[],[],[],[],868.1326,870.133,870.133,870.1333,[],[],[],[],[],[],[],,870.1334,870.1336,0.263505385,-0.305545586,0,0,0,,0,155,155,45,1,2,TL,carnidal,cursive,carnidal_c.png,1.7888,,,,,,
,,,,31622,001,2025-11-05_10h50.25.488,HW_LDT_1,2024.2.4,MacIntel,59.88023952,,,,,,,,,,,,,,,,,,,,870.1348,870.3331,870.3332,870.833,,,,,,,,,,,,1.6104,1,,,,,,,,,,,,,,m,,,,,,,,,,,,,,,,,157,0,870.8334,872.4497,m,1,[],[],[],[],[],[],[],872.4498,874.4499,874.45,874.45,[],[],[],[],[],[],[],,874.4501,874.4502,0.263505385,-0.305545586,0,0,0,,0,156,156,157,1,2,word,VALIDITY,print,validity_p.png,1.6104,,,,,,
,,,,31622,001,2025-11-05_10h50.25.488,HW_LDT_1,2024.2.4,MacIntel,59.88023952,,,,,,,,,,,,,,,,,,,,874.4515,874.65,874.6501,875.1501,,,,,,,,,,,,14.0774,1,,,,,,,,,,,,,,m,,,,,,,,,,,,,,,,,158,0,875.151,889.2342,m,1,[],[],[],[],[],[],[],889.2342,891.2344,891.2345,891.2349,[],[],[],[],[],[],[],,891.2349,891.2352,0.263505385,-0.305545586,0,0,0,,0,157,157,108,1,2,word,FORTUNE,print,fortune_p.png,14.0774,,,,,,
,,,,31622,001,2025-11-05_10h50.25.488,HW_LDT_1,2024.2.4,MacIntel,59.88023952,,,,,,,,,,,,,,,,,,,,891.2364,891.4345,891.4346,891.9345,,,,,,,,,,,,1.9145,1,,,,,,,,,,,,,,m,,,,,,,,,,,,,,,,,159,0,891.9353,893.8505,m,1,[],[],[],[],[],[],[],893.8506,895.8503,895.8503,895.8505,[],[],[],[],[],[],[],,895.8505,895.8506,0.263505385,-0.305545586,0,0,0,,0,158,158,100,1,2,word,DECADE,print,decade_p.png,1.9145,,,,,,
,,,,31622,001,2025-11-05_10h50.25.488,HW_LDT_1,2024.2.4,MacIntel,59.88023952,,,,,,,,,,,,,,,,,,,,895.8519,896.0512,896.0512,896.5515,,,,,,,,,,,,3.5037,0,,,,,,,,,,,,,,m,,,,,,,,,,,,,,,,,160,0,896.5523,900.0684,z,0,[],[],[],[],[],[],[],900.0686,902.0675,902.0676,902.0676,[],[],[],[],[],[],[],,902.0677,902.0678,0.263505385,-0.305545586,0,0,0,,0,159,159,85,1,2,word,BENEFIT,cursive,benefit_c.png,3.5037,,,,,,
,,,,31622,001,2025-11-05_10h50.25.488,HW_LDT_1,2024.2.4,MacIntel,59.88023952,,,,,,,,,,,,,,,,,,,,,,,,,,,,,,,,,,,,,,,,,,,,,,,,,,,,,,,,,,,,,,,,,,,,,,,,,,,,,,,,,,,,,,,,,,,,,,,,,,,,,,,,,,,,,,,,,,,902.0831,907.0692
