counterbalance_lists.group,counterbalance_lists.remaining,get_list.started,get_list.stopped,participant,session,date,expName,psychopyVersion,OS,frameRate,Instructions.started,Instructions.stopped,key_resp.keys,key_resp.rt,key_resp.duration,instr_done_touch.x,instr_done_touch.y,instr_done_touch.leftButton,instr_done_touch.midButton,instr_done_touch.rightButton,start_instr.thisRepN,start_instr.thisTrialN,start_instr.thisN,start_instr.thisIndex,start_instr.ran,pageN,phase,instruct_text,has_image,instruct_image,showProgress.started,showProgress.stopped,fix.started,fix.stopped,prac.started,prac.stopped,response.keys,response.corr,response.rt,response.duration,touch_resp.x,touch_resp.y,touch_resp.leftButton,touch_resp.midButton,touch_resp.rightButton,touch_resp.time,touch_resp.clicked_name,rt,corr,feedback.started,feedback.stopped,trials.thisRepN,trials.thisTrialN,trials.thisN,trials.thisIndex,trials.ran,TrialID,StimulusType,Condition,PrimeDuration,Prime,Target,corrAns,Instructions_expt.started,Instructions_expt.stopped,key_resp_3.keys,instr_done_touch_3.x,instr_done_touch_3.y,instr_done_touch_3.leftButton,instr_done_touch_3.midButton,instr_done_touch_3.rightButton,instr_done_touch_3.clicked_name,instr_experiment.thisRepN,instr_experiment.thisTrialN,instr_experiment.thisN,instr_experiment.thisIndex,instr_experiment.ran,trialID,flag,maintask.started,maintask.stopped,key_resp_2.keys,key_resp_2.corr,key_resp_2.rt,key_resp_2.duration,targ_click.x,targ_click.y,targ_click.leftButton,targ_click.midButton,targ_click.rightButton,targ_click.time,targ_click.clicked_name,ITI.started,ITI.stopped,probe.started,probe.stopped,click_probe.x,click_probe.y,click_probe.leftButton,click_probe.midButton,click_probe.rightButton,click_probe.time,click_probe.clicked_name,key_resp_probe.keys,Break.started,Break.stopped,break_done_touch.x,break_done_touch.y,break_done_touch.leftButton,break_done_touch.midButton,break_done_touch.rightButton,break_done_keyboard.keys,list1_trials.thisRepN,list1_trials.thisTrialN,list1_trials.thisN,list1_trials.thisIndex,list1_trials.ran,list_id,item_type,string,font,stim_file,key_resp_probe.rt,key_resp_probe.duration,break_done_touch.clicked_name,End.started,End.stopped
list1,,0.4046,0.4048,31637,001,2025-10-15_16h16.24.588,HW_LDT_1,2024.2.4,MacIntel,107.5268817,,,,,,,,,,,,,,,,,,,,,,,,,,,,,,,,,,,,,,,,,,,,,,,,,,,,,,,,,,,,,,,,,,,,,,,,,,,,,,,,,,,,,,,,,,,,,,,,,,,,,,,,,,,,,,,,,,,,,
,,,,31637,001,2025-10-15_16h16.24.588,HW_LDT_1,2024.2.4,MacIntel,107.5268817,0.4243,61.2471,space,60.8082,,0.108577216,-0.268559854,0,0,0,0,0,0,0,1,1,instructions,"INSTRUCTIONS
At the start of each trial, look at the plus sign  (+) in the center of the screen.  This tells you that a trial is about to begin and where to look. Second, the plus sign will disappear and a string of letters will appear. Your task is to determine if the string of letters is a word or not. If the item is a word press the M key (on keyboard)  or touch the word button (phone/tablet).  If the item is not a word,  press the  Z key (on keyboard)  or touch the nonword button (on phone/tablet). The items will be presented for a short time. 
Press the space bar or touch  continue.",0,,,,,,,,,,,,,,,,,,,,,,,,,,,,,,,,,,,,,,,,,,,,,,,,,,,,,,,,,,,,,,,,,,,,,,,,,,,,,,,,,,,,,,,,,,,,,,,,,,
,,,,31637,001,2025-10-15_16h16.24.588,HW_LDT_1,2024.2.4,MacIntel,107.5268817,61.2484,66.8636,space,5.5946,,0.108577216,-0.268559854,0,0,0,0,1,1,1,1,2,instructions,"If your device has a keyboard, press the 'Z' key for nonwords and the 'M' key for words.





Press the space bar or touch the button below to continue.",0,keyboard-example.gif,,,,,,,,,,,,,,,,,,,,,,,,,,,,,,,,,,,,,,,,,,,,,,,,,,,,,,,,,,,,,,,,,,,,,,,,,,,,,,,,,,,,,,,,,,,,,,,,,
,,,,31637,001,2025-10-15_16h16.24.588,HW_LDT_1,2024.2.4,MacIntel,107.5268817,66.865,71.9261,space,5.0386,,0.108577216,-0.268559854,0,0,0,0,2,2,2,1,3,instructions,"If you are using a touchscreen only device, use the buttons on the screen. Do not use the mouse.





Press the space bar or touch the button below to continue.",0,touchscreen-example.gif,,,,,,,,,,,,,,,,,,,,,,,,,,,,,,,,,,,,,,,,,,,,,,,,,,,,,,,,,,,,,,,,,,,,,,,,,,,,,,,,,,,,,,,,,,,,,,,,,
,,,,31637,001,2025-10-15_16h16.24.588,HW_LDT_1,2024.2.4,MacIntel,107.5268817,71.9274,86.9388,space,14.9949,,0.108577216,-0.268559854,0,0,0,0,3,3,3,1,4,instructions,"It is very important that you respond as quickly and accurately as possible, as each letter string will only be on the screen for two seconds. If you do not respond within this time, the message 'Too slow!' will be displayed and the experiment will progress to the next letter string. The first 20 trials will be practice trials and you will receive feedback on your answers. 

Press the space bar or touch the button below to start the practice trials.",0,,,,,,,,,,,,,,,,,,,,,,,,,,,,,,,,,,,,,,,,,,,,,,,,,,,,,,,,,,,,,,,,,,,,,,,,,,,,,,,,,,,,,,,,,,,,,,,,,,
,,,,31637,001,2025-10-15_16h16.24.588,HW_LDT_1,2024.2.4,MacIntel,107.5268817,,,,,,,,,,,,,,,,,,,,,86.964,87.1366,87.1368,87.6375,87.638,89.5521,z,1,1.8962,,[],[],[],[],[],[],[],1.8962,1,89.5524,90.05,0,0,0,15,1,1016,NW,UN,16,mushed,WHAISE,z,,,,,,,,,,,,,,,,,,,,,,,,,,,,,,,,,,,,,,,,,,,,,,,,,,,,,,,,,,,,,,,,
,,,,31637,001,2025-10-15_16h16.24.588,HW_LDT_1,2024.2.4,MacIntel,107.5268817,,,,,,,,,,,,,,,,,,,,,90.0512,90.2476,90.2476,90.7469,90.748,91.5423,m,1,0.7861,,[],[],[],[],[],[],[],0.7861,1,91.5425,92.042,0,1,1,6,1,1007,WORD,UN,16,tropic,ZOMBIE,m,,,,,,,,,,,,,,,,,,,,,,,,,,,,,,,,,,,,,,,,,,,,,,,,,,,,,,,,,,,,,,,,
,,,,31637,001,2025-10-15_16h16.24.588,HW_LDT_1,2024.2.4,MacIntel,107.5268817,,,,,,,,,,,,,,,,,,,,,92.0436,92.2383,92.2383,92.7383,92.7394,93.7809,z,1,1.0261,,[],[],[],[],[],[],[],1.0261,1,93.781,94.2805,0,2,2,13,1,1014,NW,UN,33,winfer,ROUPET,z,,,,,,,,,,,,,,,,,,,,,,,,,,,,,,,,,,,,,,,,,,,,,,,,,,,,,,,,,,,,,,,,
,,,,31637,001,2025-10-15_16h16.24.588,HW_LDT_1,2024.2.4,MacIntel,107.5268817,,,,,,,,,,,,,,,,,,,,,94.2817,94.4808,94.4809,94.9807,94.9812,95.9141,m,1,0.9214,,[],[],[],[],[],[],[],0.9214,1,95.9142,96.4144,0,3,3,0,1,1001,WORD,"ID",33,utopia,UTOPIA,m,,,,,,,,,,,,,,,,,,,,,,,,,,,,,,,,,,,,,,,,,,,,,,,,,,,,,,,,,,,,,,,,
,,,,31637,001,2025-10-15_16h16.24.588,HW_LDT_1,2024.2.4,MacIntel,107.5268817,,,,,,,,,,,,,,,,,,,,,96.4154,96.6142,96.6143,97.114,97.1146,97.8645,m,1,0.7351,,[],[],[],[],[],[],[],0.7351,1,97.8646,98.3643,0,4,4,1,1,1002,WORD,"ID",33,adjust,ADJUST,m,,,,,,,,,,,,,,,,,,,,,,,,,,,,,,,,,,,,,,,,,,,,,,,,,,,,,,,,,,,,,,,,
,,,,31637,001,2025-10-15_16h16.24.588,HW_LDT_1,2024.2.4,MacIntel,107.5268817,,,,,,,,,,,,,,,,,,,,,98.3652,98.5644,98.5645,99.0643,99.0654,99.9726,z,1,0.8987,,[],[],[],[],[],[],[],0.8987,1,99.9728,100.4724,0,5,5,14,1,1015,NW,UN,16,miaber,THRALE,z,,,,,,,,,,,,,,,,,,,,,,,,,,,,,,,,,,,,,,,,,,,,,,,,,,,,,,,,,,,,,,,,
,,,,31637,001,2025-10-15_16h16.24.588,HW_LDT_1,2024.2.4,MacIntel,107.5268817,,,,,,,,,,,,,,,,,,,,,100.4733,100.6725,100.6727,101.1726,101.1735,102.28,z,1,1.0949,,[],[],[],[],[],[],[],1.0949,1,102.2802,102.781,0,6,6,8,1,1009,NW,"ID",33,aslert,ASLERT,z,,,,,,,,,,,,,,,,,,,,,,,,,,,,,,,,,,,,,,,,,,,,,,,,,,,,,,,,,,,,,,,,
,,,,31637,001,2025-10-15_16h16.24.588,HW_LDT_1,2024.2.4,MacIntel,107.5268817,,,,,,,,,,,,,,,,,,,,,102.7823,102.9798,102.9799,103.4804,103.4814,104.2642,m,1,0.7697,,[],[],[],[],[],[],[],0.7697,1,104.2643,104.7596,0,7,7,3,1,1004,WORD,"ID",16,matrix,MATRIX,m,,,,,,,,,,,,,,,,,,,,,,,,,,,,,,,,,,,,,,,,,,,,,,,,,,,,,,,,,,,,,,,,
,,,,31637,001,2025-10-15_16h16.24.588,HW_LDT_1,2024.2.4,MacIntel,107.5268817,,,,,,,,,,,,,,,,,,,,,104.7613,104.9593,104.9593,105.4592,105.4601,106.1216,m,1,0.6518,,[],[],[],[],[],[],[],0.6518,1,106.1216,106.6205,0,8,8,2,1,1003,WORD,"ID",16,almond,ALMOND,m,,,,,,,,,,,,,,,,,,,,,,,,,,,,,,,,,,,,,,,,,,,,,,,,,,,,,,,,,,,,,,,,
,,,,31637,001,2025-10-15_16h16.24.588,HW_LDT_1,2024.2.4,MacIntel,107.5268817,,,,,,,,,,,,,,,,,,,,,106.6217,106.8215,106.8216,107.3217,107.323,108.2392,z,1,0.9056,,[],[],[],[],[],[],[],0.9056,1,108.2392,108.735,0,9,9,9,1,1010,NW,"ID",33,fariny,FARINY,z,,,,,,,,,,,,,,,,,,,,,,,,,,,,,,,,,,,,,,,,,,,,,,,,,,,,,,,,,,,,,,,,
,,,,31637,001,2025-10-15_16h16.24.588,HW_LDT_1,2024.2.4,MacIntel,107.5268817,,,,,,,,,,,,,,,,,,,,,108.7364,108.9307,108.9308,109.4297,109.4307,110.4224,z,1,0.9832,,[],[],[],[],[],[],[],0.9832,1,110.4226,110.9216,0,10,10,11,1,1012,NW,"ID",16,rashet,RASHET,z,,,,,,,,,,,,,,,,,,,,,,,,,,,,,,,,,,,,,,,,,,,,,,,,,,,,,,,,,,,,,,,,
,,,,31637,001,2025-10-15_16h16.24.588,HW_LDT_1,2024.2.4,MacIntel,107.5268817,,,,,,,,,,,,,,,,,,,,,110.9223,111.1226,111.1227,111.6223,111.6228,112.456,z,1,0.8201,,[],[],[],[],[],[],[],0.8201,1,112.4561,112.956,0,11,11,10,1,1011,NW,"ID",16,inlade,INLADE,z,,,,,,,,,,,,,,,,,,,,,,,,,,,,,,,,,,,,,,,,,,,,,,,,,,,,,,,,,,,,,,,,
,,,,31637,001,2025-10-15_16h16.24.588,HW_LDT_1,2024.2.4,MacIntel,107.5268817,,,,,,,,,,,,,,,,,,,,,112.9577,113.1558,113.1558,113.6535,113.6543,114.3262,m,1,0.6603,,[],[],[],[],[],[],[],0.6603,1,114.3263,114.8255,0,12,12,5,1,1006,WORD,UN,33,frenzy,OBTAIN,m,,,,,,,,,,,,,,,,,,,,,,,,,,,,,,,,,,,,,,,,,,,,,,,,,,,,,,,,,,,,,,,,
,,,,31637,001,2025-10-15_16h16.24.588,HW_LDT_1,2024.2.4,MacIntel,107.5268817,,,,,,,,,,,,,,,,,,,,,114.8269,115.0256,115.0257,115.5258,115.5268,116.2178,m,1,0.6827,,[],[],[],[],[],[],[],0.6827,1,116.2178,116.7182,0,13,13,4,1,1005,WORD,UN,33,abound,SQUEAK,m,,,,,,,,,,,,,,,,,,,,,,,,,,,,,,,,,,,,,,,,,,,,,,,,,,,,,,,,,,,,,,,,
,,,,31637,001,2025-10-15_16h16.24.588,HW_LDT_1,2024.2.4,MacIntel,107.5268817,,,,,,,,,,,,,,,,,,,,,116.7195,116.918,116.9182,117.418,117.4185,118.1266,z,1,0.6967,,[],[],[],[],[],[],[],0.6967,1,118.1267,118.6258,0,14,14,12,1,1013,NW,UN,33,adveil,SPRINY,z,,,,,,,,,,,,,,,,,,,,,,,,,,,,,,,,,,,,,,,,,,,,,,,,,,,,,,,,,,,,,,,,
,,,,31637,001,2025-10-15_16h16.24.588,HW_LDT_1,2024.2.4,MacIntel,107.5268817,,,,,,,,,,,,,,,,,,,,,118.6271,118.8268,118.8269,119.3265,119.3271,120.0683,m,1,0.7292,,[],[],[],[],[],[],[],0.7292,1,120.0684,120.5683,0,15,15,7,1,1008,WORD,UN,16,hurdle,VOLUME,m,,,,,,,,,,,,,,,,,,,,,,,,,,,,,,,,,,,,,,,,,,,,,,,,,,,,,,,,,,,,,,,,
,,,,31637,001,2025-10-15_16h16.24.588,HW_LDT_1,2024.2.4,MacIntel,107.5268817,,,,,,,,,,,,,,,,1,end_of_practice,"You have completed the practice trials. During the experimental trials, you will not receive feedback. On some trials you will be asked to report whether the item you just saw was in cursive or print. 
Before you begin, please ensure that you are in a comfortable and quiet location and will not be disturbed for about 15 minutes, as we cannot use your data if you do not complete all the trials. 
 When you are ready to start the experimental trials, please press space or touch the button below.",,,,,,,,,,,,,,,,,,,,,,,,,,,,,,,,,,,,120.5734,135.2558,,0.039951224,-0.390128968,1,0,0,instr_done_button_3,0,0,0,0,1,,,,,,,,,,,,,,,,,,,,,,,,,,,,,,,,,,,,,,,,,,,,,,,,,,
,,,,31637,001,2025-10-15_16h16.24.588,HW_LDT_1,2024.2.4,MacIntel,107.5268817,,,,,,,,,,,,,,,,,,,,,135.2628,135.4508,135.4508,135.9564,,,,,,,,,,,,,,2.1331,1,,,,,,,,,,,,,,z,,,,,,,,,,,,,,,1,0,135.9575,138.0973,z,1,2.1331,,[],[],[],[],[],[],[],138.0976,140.0968,140.0972,140.1004,[],[],[],[],[],[],[],,140.1005,140.1021,0.058953373,-0.208808697,0,0,0,,0,0,0,39,1,1,RL,vabifity,cursive,vabifity_c.png,,,,,
,,,,31637,001,2025-10-15_16h16.24.588,HW_LDT_1,2024.2.4,MacIntel,107.5268817,,,,,,,,,,,,,,,,,,,,,140.103,140.3001,140.3001,140.7967,,,,,,,,,,,,,,0.7211,1,,,,,,,,,,,,,,m,,,,,,,,,,,,,,,2,1,140.7974,141.5245,m,1,0.7211,,[],[],[],[],[],[],[],141.5246,143.5257,143.5258,146.0325,[],[],[],[],[],[],[],m,146.0325,146.0326,0.306477348,-0.321705522,0,0,0,,0,1,1,142,1,1,word,REMOTE,print,remote_p.png,2.5057,,,,
,,,,31637,001,2025-10-15_16h16.24.588,HW_LDT_1,2024.2.4,MacIntel,107.5268817,,,,,,,,,,,,,,,,,,,,,146.0333,146.2301,146.2302,146.7308,,,,,,,,,,,,,,2.0863,0,,,,,,,,,,,,,,m,,,,,,,,,,,,,,,3,0,146.7311,148.8227,z,0,2.0863,,[],[],[],[],[],[],[],148.8227,150.8227,150.8227,150.8231,[],[],[],[],[],[],[],,150.8231,150.8233,0.241389716,-0.109465939,0,0,0,,0,2,2,110,1,1,word,HERITAGE,cursive,heritage_c.png,,,,,
,,,,31637,001,2025-10-15_16h16.24.588,HW_LDT_1,2024.2.4,MacIntel,107.5268817,,,,,,,,,,,,,,,,,,,,,150.8245,151.0227,151.0228,151.5213,,,,,,,,,,,,,,1.366,1,,,,,,,,,,,,,,z,,,,,,,,,,,,,,,4,0,151.5222,152.8933,z,1,1.366,,[],[],[],[],[],[],[],152.8934,154.8934,154.8936,154.8937,[],[],[],[],[],[],[],,154.8937,154.8938,0.241389716,-0.109465939,0,0,0,,0,3,3,20,1,1,RL,nunewical,print,nunewical_p.png,,,,,
,,,,31637,001,2025-10-15_16h16.24.588,HW_LDT_1,2024.2.4,MacIntel,107.5268817,,,,,,,,,,,,,,,,,,,,,154.8946,155.0935,155.0936,155.5933,,,,,,,,,,,,,,0.8735,1,,,,,,,,,,,,,,m,,,,,,,,,,,,,,,5,0,155.594,156.4697,m,1,0.8735,,[],[],[],[],[],[],[],156.4698,158.4675,158.4676,158.4678,[],[],[],[],[],[],[],,158.4679,158.4681,0.241389716,-0.109465939,0,0,0,,0,4,4,145,1,1,word,RESUME,print,resume_p.png,,,,,
,,,,31637,001,2025-10-15_16h16.24.588,HW_LDT_1,2024.2.4,MacIntel,107.5268817,,,,,,,,,,,,,,,,,,,,,158.4695,158.669,158.6691,159.1686,,,,,,,,,,,,,,2.1923,0,,,,,,,,,,,,,,m,,,,,,,,,,,,,,,6,0,159.1693,161.3674,z,0,2.1923,,[],[],[],[],[],[],[],161.3675,163.3633,163.3635,163.3638,[],[],[],[],[],[],[],,163.3639,163.3641,0.241389716,-0.109465939,0,0,0,,0,5,5,101,1,1,word,DELICATE,cursive,delicate_c.png,,,,,
,,,,31637,001,2025-10-15_16h16.24.588,HW_LDT_1,2024.2.4,MacIntel,107.5268817,,,,,,,,,,,,,,,,,,,,,163.3649,163.5627,163.5629,164.062,,,,,,,,,,,,,,1.6499,1,,,,,,,,,,,,,,z,,,,,,,,,,,,,,,7,0,164.0626,165.7171,z,1,1.6499,,[],[],[],[],[],[],[],165.7172,167.7178,167.718,167.7183,[],[],[],[],[],[],[],,167.7184,167.7185,0.241389716,-0.109465939,0,0,0,,0,6,6,73,1,1,TL,ronamtic,cursive,ronamtic_c.png,,,,,
,,,,31637,001,2025-10-15_16h16.24.588,HW_LDT_1,2024.2.4,MacIntel,107.5268817,,,,,,,,,,,,,,,,,,,,,167.7199,167.9178,167.9178,168.4134,,,,,,,,,,,,,,0.9452,1,,,,,,,,,,,,,,m,,,,,,,,,,,,,,,8,1,168.414,169.3642,m,1,0.9452,,[],[],[],[],[],[],[],169.3643,171.359,171.359,173.9445,[-0.2703249007936508],[-0.2573784722222222],[1],[0],[0],[2.5854000000357757],"[""button_left_probe""]",,173.9446,173.9447,-0.270324901,-0.257378472,1,0,0,,0,7,7,95,1,1,word,COMEDY,cursive,comedy_c.png,,,,,
,,,,31637,001,2025-10-15_16h16.24.588,HW_LDT_1,2024.2.4,MacIntel,107.5268817,,,,,,,,,,,,,,,,,,,,,173.9456,174.142,174.142,174.6422,,,,,,,,,,,,,,2.7302,1,,,,,,,,,,,,,,z,,,,,,,,,,,,,,,9,0,174.643,177.3798,z,1,2.7302,,[],[],[],[],[],[],[],177.3799,179.3789,179.3789,179.3792,[],[],[],[],[],[],[],,179.3794,179.3795,-0.014045966,-0.139413856,0,0,0,,0,8,8,58,1,1,TL,incidate,cursive,incidate_c.png,,,,,
,,,,31637,001,2025-10-15_16h16.24.588,HW_LDT_1,2024.2.4,MacIntel,107.5268817,,,,,,,,,,,,,,,,,,,,,179.3807,179.5814,179.5814,180.0757,,,,,,,,,,,,,,1.2645,1,,,,,,,,,,,,,,z,,,,,,,,,,,,,,,10,0,180.0764,181.347,z,1,1.2645,,[],[],[],[],[],[],[],181.3471,183.3462,183.3463,183.3466,[],[],[],[],[],[],[],,183.3466,183.3468,-0.014045966,-0.139413856,0,0,0,,0,9,9,9,1,1,RL,docirant,cursive,docirant_c.png,,,,,
,,,,31637,001,2025-10-15_16h16.24.588,HW_LDT_1,2024.2.4,MacIntel,107.5268817,,,,,,,,,,,,,,,,,,,,,183.348,183.5456,183.5457,184.0466,,,,,,,,,,,,,,0.6657,1,,,,,,,,,,,,,,m,,,,,,,,,,,,,,,11,0,184.0471,184.7183,m,1,0.6657,,[],[],[],[],[],[],[],184.7183,186.7138,186.7139,186.714,[],[],[],[],[],[],[],,186.7142,186.7144,-0.014045966,-0.139413856,0,0,0,,0,10,10,90,1,1,word,CAPITAL,print,capital_p.png,,,,,
,,,,31637,001,2025-10-15_16h16.24.588,HW_LDT_1,2024.2.4,MacIntel,107.5268817,,,,,,,,,,,,,,,,,,,,,186.7159,186.9123,186.9124,187.4152,,,,,,,,,,,,,,2.5171,1,,,,,,,,,,,,,,z,,,,,,,,,,,,,,,12,0,187.4163,189.9373,z,1,2.5171,,[],[],[],[],[],[],[],189.9374,191.9342,191.9343,191.9346,[],[],[],[],[],[],[],,191.9346,191.9348,-0.014045966,-0.139413856,0,0,0,,0,11,11,55,1,1,TL,fornute,print,fornute_p.png,,,,,
,,,,31637,001,2025-10-15_16h16.24.588,HW_LDT_1,2024.2.4,MacIntel,107.5268817,,,,,,,,,,,,,,,,,,,,,191.9362,192.1343,192.1344,192.6343,,,,,,,,,,,,,,2.3336,1,,,,,,,,,,,,,,z,,,,,,,,,,,,,,,13,1,192.6348,194.9705,z,1,2.3336,,[],[],[],[],[],[],[],194.9706,196.9717,196.9718,199.5643,[],[],[],[],[],[],[],z,199.5644,199.5644,-0.16953125,-0.229460152,0,0,0,,0,12,12,54,1,1,TL,distupe,cursive,distupe_c.png,2.5877,,,,
,,,,31637,001,2025-10-15_16h16.24.588,HW_LDT_1,2024.2.4,MacIntel,107.5268817,,,,,,,,,,,,,,,,,,,,,199.5653,199.7652,199.7653,200.2609,,,,,,,,,,,,,,1.014,1,,,,,,,,,,,,,,z,,,,,,,,,,,,,,,14,0,200.2613,201.2792,z,1,1.014,,[],[],[],[],[],[],[],201.2792,203.2842,203.2843,203.2846,[],[],[],[],[],[],[],,203.2846,203.2848,-0.16953125,-0.229460152,0,0,0,,0,13,13,6,1,1,RL,crisival,print,crisival_p.png,,,,,
,,,,31637,001,2025-10-15_16h16.24.588,HW_LDT_1,2024.2.4,MacIntel,107.5268817,,,,,,,,,,,,,,,,,,,,,203.2861,203.4837,203.4837,203.9843,,,,,,,,,,,,,,1.0072,1,,,,,,,,,,,,,,m,,,,,,,,,,,,,,,15,0,203.9849,204.9974,m,1,1.0072,,[],[],[],[],[],[],[],204.9975,206.9957,206.9957,206.9961,[],[],[],[],[],[],[],,206.9961,206.9962,-0.16953125,-0.229460152,0,0,0,,0,14,14,127,1,1,word,ORIGINAL,cursive,original_c.png,,,,,
,,,,31637,001,2025-10-15_16h16.24.588,HW_LDT_1,2024.2.4,MacIntel,107.5268817,,,,,,,,,,,,,,,,,,,,,206.9972,207.1926,207.1926,207.6926,,,,,,,,,,,,,,0.8522,1,,,,,,,,,,,,,,z,,,,,,,,,,,,,,,16,1,207.6932,208.5511,z,1,0.8522,,[],[],[],[],[],[],[],208.5511,210.551,210.551,213.2017,[],[],[],[],[],[],[],z,213.2017,213.2018,0.003104332,-0.11854332,0,0,0,,0,15,15,14,1,1,RL,lofase,print,lofase_p.png,2.6465,,,,
,,,,31637,001,2025-10-15_16h16.24.588,HW_LDT_1,2024.2.4,MacIntel,107.5268817,,,,,,,,,,,,,,,,,,,,,213.2024,213.4019,213.402,213.902,,,,,,,,,,,,,,2.502,1,,,,,,,,,,,,,,z,,,,,,,,,,,,,,,17,0,213.9024,216.4099,z,1,2.502,,[],[],[],[],[],[],[],216.4099,218.4102,218.4103,218.4106,[],[],[],[],[],[],[],,218.4106,218.4108,0.003104332,-0.11854332,0,0,0,,0,16,16,47,1,1,TL,cagetory,print,cagetory_p.png,,,,,
,,,,31637,001,2025-10-15_16h16.24.588,HW_LDT_1,2024.2.4,MacIntel,107.5268817,,,,,,,,,,,,,,,,,,,,,218.4121,218.6058,218.6058,219.1054,,,,,,,,,,,,,,1.6561,1,,,,,,,,,,,,,,z,,,,,,,,,,,,,,,18,1,219.106,220.7678,z,1,1.6561,,[],[],[],[],[],[],[],220.7678,222.7643,222.7644,224.9176,[],[],[],[],[],[],[],m,224.9176,224.9178,0.003104332,-0.11854332,0,0,0,,0,17,17,78,1,1,TL,vecolity,print,vecolity_p.png,2.1494,,,,
,,,,31637,001,2025-10-15_16h16.24.588,HW_LDT_1,2024.2.4,MacIntel,107.5268817,,,,,,,,,,,,,,,,,,,,,224.9185,225.1178,225.1178,225.6176,,,,,,,,,,,,,,1.0943,1,,,,,,,,,,,,,,z,,,,,,,,,,,,,,,19,0,225.6181,226.7176,z,1,1.0943,,[],[],[],[],[],[],[],226.7177,228.7135,228.7135,228.7136,[],[],[],[],[],[],[],,228.7136,228.7138,0.003104332,-0.11854332,0,0,0,,0,18,18,60,1,1,TL,manire,print,manire_p.png,,,,,
,,,,31637,001,2025-10-15_16h16.24.588,HW_LDT_1,2024.2.4,MacIntel,107.5268817,,,,,,,,,,,,,,,,,,,,,228.7147,228.9111,228.9111,229.4088,,,,,,,,,,,,,,1.2575,1,,,,,,,,,,,,,,z,,,,,,,,,,,,,,,20,1,229.4093,230.6718,z,1,1.2575,,[],[],[],[],[],[],[],230.6718,232.6739,232.6739,234.1811,[0.2944279100529101],[-0.326541832010582],[1],[0],[0],[1.5069000000357278],"[""button_right_probe""]",,234.1811,234.1812,0.29442791,-0.326541832,1,0,0,,0,19,19,7,1,1,RL,delahe,print,delahe_p.png,,,,,
,,,,31637,001,2025-10-15_16h16.24.588,HW_LDT_1,2024.2.4,MacIntel,107.5268817,,,,,,,,,,,,,,,,,,,,,234.1819,234.3808,234.3809,234.881,,,,,,,,,,,,,,0.9316,1,,,,,,,,,,,,,,m,,,,,,,,,,,,,,,21,0,234.8813,235.8135,m,1,0.9316,,[],[],[],[],[],[],[],235.8136,237.8134,237.8134,237.8137,[],[],[],[],[],[],[],,237.8138,237.8139,0.177604167,0.040071098,0,0,0,,0,20,20,83,1,1,word,ANIMAL,print,animal_p.png,,,,,
,,,,31637,001,2025-10-15_16h16.24.588,HW_LDT_1,2024.2.4,MacIntel,107.5268817,,,,,,,,,,,,,,,,,,,,,237.8152,238.0136,238.0137,238.5093,,,,,,,,,,,,,,1.3663,1,,,,,,,,,,,,,,m,,,,,,,,,,,,,,,22,0,238.5098,239.8789,m,1,1.3663,,[],[],[],[],[],[],[],239.8789,241.8765,241.8765,241.8767,[],[],[],[],[],[],[],,241.8767,241.8767,0.177604167,0.040071098,0,0,0,,0,21,21,138,1,1,word,REFUSAL,print,refusal_p.png,,,,,
,,,,31637,001,2025-10-15_16h16.24.588,HW_LDT_1,2024.2.4,MacIntel,107.5268817,,,,,,,,,,,,,,,,,,,,,241.8774,242.0755,242.0756,242.5759,,,,,,,,,,,,,,1.2198,1,,,,,,,,,,,,,,z,,,,,,,,,,,,,,,23,0,242.5764,243.8014,z,1,1.2198,,[],[],[],[],[],[],[],243.8014,245.8015,245.8016,245.8017,[],[],[],[],[],[],[],,245.8018,245.8018,0.177604167,0.040071098,0,0,0,,0,22,22,67,1,1,TL,pocily,cursive,pocily_c.png,,,,,
,,,,31637,001,2025-10-15_16h16.24.588,HW_LDT_1,2024.2.4,MacIntel,107.5268817,,,,,,,,,,,,,,,,,,,,,245.8026,245.9976,245.9977,246.5007,,,,,,,,,,,,,,2.5482,1,,,,,,,,,,,,,,m,,,,,,,,,,,,,,,24,0,246.5012,249.0552,m,1,2.5482,,[],[],[],[],[],[],[],249.0552,251.0568,251.0568,251.0571,[],[],[],[],[],[],[],,251.0571,251.0573,0.177604167,0.040071098,0,0,0,,0,23,23,134,1,1,word,QUALIFY,cursive,qualify_c.png,,,,,
,,,,31637,001,2025-10-15_16h16.24.588,HW_LDT_1,2024.2.4,MacIntel,107.5268817,,,,,,,,,,,,,,,,,,,,,251.0582,251.2593,251.2593,251.7563,,,,,,,,,,,,,,0.9285,1,,,,,,,,,,,,,,m,,,,,,,,,,,,,,,25,1,251.7567,252.6882,m,1,0.9285,,[],[],[],[],[],[],[],252.6882,254.6844,254.6844,256.1095,[],[],[],[],[],[],[],m,256.1095,256.1095,0.177604167,0.040071098,0,0,0,,0,24,24,136,1,1,word,RADICAL,print,radical_p.png,1.4246,,,,
,,,,31637,001,2025-10-15_16h16.24.588,HW_LDT_1,2024.2.4,MacIntel,107.5268817,,,,,,,,,,,,,,,,,,,,,256.1101,256.3035,256.3036,256.8095,,,,,,,,,,,,,,1.4698,1,,,,,,,,,,,,,,z,,,,,,,,,,,,,,,26,0,256.8102,258.2842,z,1,1.4698,,[],[],[],[],[],[],[],258.2843,260.2843,260.2844,260.2846,[],[],[],[],[],[],[],,260.2847,260.2848,0.177604167,0.040071098,0,0,0,,0,25,25,51,1,1,TL,corevage,print,corevage_p.png,,,,,
,,,,31637,001,2025-10-15_16h16.24.588,HW_LDT_1,2024.2.4,MacIntel,107.5268817,,,,,,,,,,,,,,,,,,,,,260.2861,260.4843,260.4844,260.9843,,,,,,,,,,,,,,0.9304,1,,,,,,,,,,,,,,z,,,,,,,,,,,,,,,27,0,260.9848,261.9176,z,1,0.9304,,[],[],[],[],[],[],[],261.9177,263.9172,263.9172,263.9176,[],[],[],[],[],[],[],,263.9176,263.9177,0.177604167,0.040071098,0,0,0,,0,26,26,2,1,1,RL,asiral,print,asiral_p.png,,,,,
,,,,31637,001,2025-10-15_16h16.24.588,HW_LDT_1,2024.2.4,MacIntel,107.5268817,,,,,,,,,,,,,,,,,,,,,263.919,264.1136,264.1136,264.6137,,,,,,,,,,,,,,1.091,1,,,,,,,,,,,,,,m,,,,,,,,,,,,,,,28,0,264.6143,265.7101,m,1,1.091,,[],[],[],[],[],[],[],265.7103,267.7046,267.7047,267.7051,[],[],[],[],[],[],[],,267.7051,267.7053,0.177604167,0.042195767,0,0,0,,0,27,27,97,1,1,word,COVERAGE,print,coverage_p.png,,,,,
,,,,31637,001,2025-10-15_16h16.24.588,HW_LDT_1,2024.2.4,MacIntel,107.5268817,,,,,,,,,,,,,,,,,,,,,267.7059,267.9051,267.9051,268.401,,,,,,,,,,,,,,0.9883,1,,,,,,,,,,,,,,m,,,,,,,,,,,,,,,29,0,268.4016,269.3935,m,1,0.9883,,[],[],[],[],[],[],[],269.3937,271.3885,271.3885,271.3888,[],[],[],[],[],[],[],,271.3889,271.389,0.177604167,0.042195767,0,0,0,,0,28,28,98,1,1,word,CRIMINAL,print,criminal_p.png,,,,,
,,,,31637,001,2025-10-15_16h16.24.588,HW_LDT_1,2024.2.4,MacIntel,107.5268817,,,,,,,,,,,,,,,,,,,,,271.3904,271.5884,271.5885,272.0884,,,,,,,,,,,,,,1.0243,1,,,,,,,,,,,,,,m,,,,,,,,,,,,,,,30,0,272.0888,273.1184,m,1,1.0243,,[],[],[],[],[],[],[],273.1184,275.1165,275.1165,275.1168,[],[],[],[],[],[],[],,275.117,275.117,0.177604167,0.042195767,0,0,0,,0,29,29,157,1,1,word,VALIDITY,cursive,validity_c.png,,,,,
,,,,31637,001,2025-10-15_16h16.24.588,HW_LDT_1,2024.2.4,MacIntel,107.5268817,,,,,,,,,,,,,,,,,,,,,275.1181,275.3171,275.3171,275.8173,,,,,,,,,,,,,,0.7968,1,,,,,,,,,,,,,,z,,,,,,,,,,,,,,,31,0,275.8178,276.6176,z,1,0.7968,,[],[],[],[],[],[],[],276.6176,278.6166,278.6167,278.6169,[],[],[],[],[],[],[],,278.617,278.6172,0.177604167,0.042195767,0,0,0,,0,30,30,19,1,1,RL,monebate,print,monebate_p.png,,,,,
,,,,31637,001,2025-10-15_16h16.24.588,HW_LDT_1,2024.2.4,MacIntel,107.5268817,,,,,,,,,,,,,,,,,,,,,278.6185,278.8168,278.8169,279.3172,,,,,,,,,,,,,,1.2768,0,,,,,,,,,,,,,,m,,,,,,,,,,,,,,,32,0,279.3179,280.6011,z,0,1.2768,,[],[],[],[],[],[],[],280.6011,282.5984,282.5985,282.5986,[],[],[],[],[],[],[],,282.5987,282.5988,0.177604167,0.042195767,0,0,0,,0,31,31,87,1,1,word,CAFETERIA,cursive,cafeteria_c.png,,,,,
,,,,31637,001,2025-10-15_16h16.24.588,HW_LDT_1,2024.2.4,MacIntel,107.5268817,,,,,,,,,,,,,,,,,,,,,282.5996,282.797,282.797,283.2968,,,,,,,,,,,,,,3.0752,1,,,,,,,,,,,,,,z,,,,,,,,,,,,,,,33,0,283.2975,286.3758,z,1,3.0752,,[],[],[],[],[],[],[],286.3758,288.376,288.3761,288.3762,[],[],[],[],[],[],[],,288.3762,288.3764,0.177604167,0.042195767,0,0,0,,0,32,32,52,1,1,TL,decilate,cursive,decilate_c.png,,,,,
,,,,31637,001,2025-10-15_16h16.24.588,HW_LDT_1,2024.2.4,MacIntel,107.5268817,,,,,,,,,,,,,,,,,,,,,288.3772,288.576,288.5761,289.0719,,,,,,,,,,,,,,2.9036,1,,,,,,,,,,,,,,z,,,,,,,,,,,,,,,34,0,289.0724,291.9811,z,1,2.9036,,[],[],[],[],[],[],[],291.9811,293.98,293.9801,293.9803,[],[],[],[],[],[],[],,293.9804,293.9804,0.177604167,0.042195767,0,0,0,,0,33,33,77,1,1,TL,tritube,cursive,tritube_c.png,,,,,
,,,,31637,001,2025-10-15_16h16.24.588,HW_LDT_1,2024.2.4,MacIntel,107.5268817,,,,,,,,,,,,,,,,,,,,,293.9817,294.18,294.1801,294.68,,,,,,,,,,,,,,1.0055,1,,,,,,,,,,,,,,m,,,,,,,,,,,,,,,35,0,294.6805,295.6919,m,1,1.0055,,[],[],[],[],[],[],[],295.692,297.6885,297.6887,297.689,[],[],[],[],[],[],[],,297.689,297.6891,0.177604167,0.042195767,0,0,0,,0,34,34,152,1,1,word,SPECIMEN,cursive,specimen_c.png,,,,,
,,,,31637,001,2025-10-15_16h16.24.588,HW_LDT_1,2024.2.4,MacIntel,107.5268817,,,,,,,,,,,,,,,,,,,,,297.6904,297.8887,297.8888,298.3886,,,,,,,,,,,,,,0.7317,1,,,,,,,,,,,,,,m,,,,,,,,,,,,,,,36,0,298.3892,299.1217,m,1,0.7317,,[],[],[],[],[],[],[],299.1217,301.1218,301.1219,301.1221,[],[],[],[],[],[],[],,301.1221,301.1222,0.177604167,0.042195767,0,0,0,,0,35,35,81,1,1,word,ADVISORY,cursive,advisory_c.png,,,,,
,,,,31637,001,2025-10-15_16h16.24.588,HW_LDT_1,2024.2.4,MacIntel,107.5268817,,,,,,,,,,,,,,,,,,,,,301.1232,301.3217,301.3217,301.8171,,,,,,,,,,,,,,0.8434,1,,,,,,,,,,,,,,z,,,,,,,,,,,,,,,37,1,301.8177,302.6677,z,1,0.8434,,[],[],[],[],[],[],[],302.6678,304.6637,304.6637,308.4094,[],[],[],[],[],[],[],z,308.4095,308.4096,0.149524636,-0.053236607,0,0,0,,0,36,36,34,1,1,RL,samite,print,samite_p.png,3.7408,,,,
,,,,31637,001,2025-10-15_16h16.24.588,HW_LDT_1,2024.2.4,MacIntel,107.5268817,,,,,,,,,,,,,,,,,,,,,308.4105,308.609,308.6092,309.1102,,,,,,,,,,,,,,1.2318,1,,,,,,,,,,,,,,m,,,,,,,,,,,,,,,38,0,309.1108,310.3434,m,1,1.2318,,[],[],[],[],[],[],[],310.3435,312.3384,312.3385,312.3387,[],[],[],[],[],[],[],,312.3388,312.3389,0.149524636,-0.053236607,0,0,0,,0,37,37,131,1,1,word,POPULAR,cursive,popular_c.png,,,,,
,,,,31637,001,2025-10-15_16h16.24.588,HW_LDT_1,2024.2.4,MacIntel,107.5268817,,,,,,,,,,,,,,,,,,,,,312.3402,312.5385,312.5386,313.0385,,,,,,,,,,,,,,1.1892,1,,,,,,,,,,,,,,z,,,,,,,,,,,,,,,39,0,313.0389,314.2343,z,1,1.1892,,[],[],[],[],[],[],[],314.2343,316.2301,316.2302,316.2304,[],[],[],[],[],[],[],,316.2305,316.2305,0.149524636,-0.053236607,0,0,0,,0,38,38,59,1,1,TL,lirebal,cursive,lirebal_c.png,,,,,
,,,,31637,001,2025-10-15_16h16.24.588,HW_LDT_1,2024.2.4,MacIntel,107.5268817,,,,,,,,,,,,,,,,,,,,,316.2319,316.4303,316.4304,316.9302,,,,,,,,,,,,,,1.2389,1,,,,,,,,,,,,,,z,,,,,,,,,,,,,,,40,0,316.9308,318.1726,z,1,1.2389,,[],[],[],[],[],[],[],318.1726,320.1728,320.1728,320.1731,[],[],[],[],[],[],[],,320.1731,320.1732,0.149524636,-0.053236607,0,0,0,,0,39,39,12,1,1,RL,ebiwent,print,ebiwent_p.png,,,,,
,,,,31637,001,2025-10-15_16h16.24.588,HW_LDT_1,2024.2.4,MacIntel,107.5268817,,,,,,,,,,,,,,,,,,,,,320.1744,320.369,320.3691,320.8724,,,,,,,,,,,,,,0.8144,1,,,,,,,,,,,,,,z,,,,,,,,,,,,,,,41,0,320.8728,321.6923,z,1,0.8144,,[],[],[],[],[],[],[],321.6923,323.6923,323.6923,323.6926,[],[],[],[],[],[],[],,323.6926,323.6927,0.149524636,-0.053236607,0,0,0,,0,40,40,43,1,1,TL,bedise,print,bedise_p.png,,,,,
,,,,31637,001,2025-10-15_16h16.24.588,HW_LDT_1,2024.2.4,MacIntel,107.5268817,,,,,,,,,,,,,,,,,,,,,323.6939,323.8919,323.892,324.3931,,,,,,,,,,,,,,2.5029,1,,,,,,,,,,,,,,z,,,,,,,,,,,,,,,42,0,324.3937,326.9019,z,1,2.5029,,[],[],[],[],[],[],[],326.9019,328.9022,328.9022,328.9022,[],[],[],[],[],[],[],,328.9023,328.9023,0.149524636,-0.053236607,0,0,0,,0,41,41,49,1,1,TL,clicinal,cursive,clicinal_c.png,,,,,
,,,,31637,001,2025-10-15_16h16.24.588,HW_LDT_1,2024.2.4,MacIntel,107.5268817,,,,,,,,,,,,,,,,,,,,,328.9031,329.102,329.1021,329.602,,,,,,,,,,,,,,3.2518,0,,,,,,,,,,,,,,z,,,,,,,,,,,,,,,43,1,329.6027,332.8604,m,0,3.2518,,[],[],[],[],[],[],[],332.8605,334.8604,334.8605,336.877,[],[],[],[],[],[],[],z,336.8771,336.8771,0.149524636,-0.053236607,0,0,0,,0,42,42,25,1,1,RL,quakity,cursive,quakity_c.png,2.0161,,,,
,,,,31637,001,2025-10-15_16h16.24.588,HW_LDT_1,2024.2.4,MacIntel,107.5268817,,,,,,,,,,,,,,,,,,,,,336.8779,337.0728,337.0729,337.5729,,,,,,,,,,,,,,1.3033,0,,,,,,,,,,,,,,z,,,,,,,,,,,,,,,44,0,337.5735,338.8813,m,0,1.3033,,[],[],[],[],[],[],[],338.8814,340.8813,340.8814,340.8816,[],[],[],[],[],[],[],,340.8817,340.8819,0.149524636,-0.053236607,0,0,0,,0,43,43,65,1,1,TL,orinigal,cursive,orinigal_c.png,,,,,
,,,,31637,001,2025-10-15_16h16.24.588,HW_LDT_1,2024.2.4,MacIntel,107.5268817,,,,,,,,,,,,,,,,,,,,,340.8832,341.0771,341.0771,341.5761,,,,,,,,,,,,,,1.0332,1,,,,,,,,,,,,,,m,,,,,,,,,,,,,,,45,0,341.5765,342.6112,m,1,1.0332,,[],[],[],[],[],[],[],342.6113,344.6072,344.6073,344.6076,[],[],[],[],[],[],[],,344.6077,344.6079,0.149524636,-0.053236607,0,0,0,,0,44,44,159,1,1,word,VETERAN,print,veteran_p.png,,,,,
,,,,31637,001,2025-10-15_16h16.24.588,HW_LDT_1,2024.2.4,MacIntel,107.5268817,,,,,,,,,,,,,,,,,,,,,344.6091,344.8019,344.802,345.3018,,,,,,,,,,,,,,1.22,1,,,,,,,,,,,,,,z,,,,,,,,,,,,,,,46,0,345.3024,346.5262,z,1,1.22,,[],[],[],[],[],[],[],346.5263,348.5211,348.5211,348.5214,[],[],[],[],[],[],[],,348.5214,348.5215,0.149524636,-0.053236607,0,0,0,,0,45,45,33,1,1,RL,recile,cursive,recile_c.png,,,,,
,,,,31637,001,2025-10-15_16h16.24.588,HW_LDT_1,2024.2.4,MacIntel,107.5268817,,,,,,,,,,,,,,,,,,,,,348.523,348.7176,348.7176,349.2209,,,,,,,,,,,,,,0.7815,1,,,,,,,,,,,,,,m,,,,,,,,,,,,,,,47,0,349.2214,350.0036,m,1,0.7815,,[],[],[],[],[],[],[],350.0036,351.9979,351.998,351.9983,[],[],[],[],[],[],[],,351.9983,351.9983,0.149524636,-0.053236607,0,0,0,,0,46,46,107,1,1,word,EVIDENT,print,evident_p.png,,,,,
,,,,31637,001,2025-10-15_16h16.24.588,HW_LDT_1,2024.2.4,MacIntel,107.5268817,,,,,,,,,,,,,,,,,,,,,351.9991,352.197,352.1971,352.6968,,,,,,,,,,,,,,1.0281,1,,,,,,,,,,,,,,m,,,,,,,,,,,,,,,48,0,352.6974,353.731,m,1,1.0281,,[],[],[],[],[],[],[],353.731,355.7259,355.7259,355.726,[],[],[],[],[],[],[],,355.726,355.7261,0.149524636,-0.053236607,0,0,0,,0,47,47,109,1,1,word,GRATEFUL,print,grateful_p.png,,,,,
,,,,31637,001,2025-10-15_16h16.24.588,HW_LDT_1,2024.2.4,MacIntel,107.5268817,,,,,,,,,,,,,,,,,,,,,355.7267,355.9263,355.9264,356.4261,,,,,,,,,,,,,,0.6906,1,,,,,,,,,,,,,,z,,,,,,,,,,,,,,,49,0,356.4268,357.1229,z,1,0.6906,,[],[],[],[],[],[],[],357.1229,359.1179,359.1179,359.1182,[],[],[],[],[],[],[],,359.1182,359.1184,0.149524636,-0.053236607,0,0,0,,0,48,48,30,1,1,RL,relone,print,relone_p.png,,,,,
,,,,31637,001,2025-10-15_16h16.24.588,HW_LDT_1,2024.2.4,MacIntel,107.5268817,,,,,,,,,,,,,,,,,,,,,359.1197,359.3175,359.3175,359.8178,,,,,,,,,,,,,,0.812,1,,,,,,,,,,,,,,m,,,,,,,,,,,,,,,50,0,359.8184,360.6342,m,1,0.812,,[],[],[],[],[],[],[],360.6344,362.6354,362.6354,362.6357,[],[],[],[],[],[],[],,362.6357,362.6358,0.149524636,-0.053236607,0,0,0,,0,49,49,148,1,1,word,SALINE,print,saline_p.png,,,,,
,,,,31637,001,2025-10-15_16h16.24.588,HW_LDT_1,2024.2.4,MacIntel,107.5268817,,,,,,,,,,,,,,,,,,,,,362.6371,362.8354,362.8355,363.3351,,,,,,,,,,,,,,0.8901,1,,,,,,,,,,,,,,z,,,,,,,,,,,,,,,51,0,363.3357,364.2301,z,1,0.8901,,[],[],[],[],[],[],[],364.2302,366.23,366.2301,366.2302,[],[],[],[],[],[],[],,366.2302,366.2303,0.149524636,-0.053236607,0,0,0,,0,50,50,27,1,1,RL,rasibal,print,rasibal_p.png,,,,,
,,,,31637,001,2025-10-15_16h16.24.588,HW_LDT_1,2024.2.4,MacIntel,107.5268817,,,,,,,,,,,,,,,,,,,,,366.2311,366.4257,366.4257,366.9259,,,,,,,,,,,,,,0.7864,1,,,,,,,,,,,,,,z,,,,,,,,,,,,,,,52,1,366.9265,367.7187,z,1,0.7864,,[],[],[],[],[],[],[],367.7188,369.7187,369.7187,371.5846,[],[],[],[],[],[],[],z,371.5847,371.5848,0.149524636,-0.053236607,0,0,0,,0,51,51,31,1,1,RL,reconal,cursive,reconal_c.png,1.8635,,,,
,,,,31637,001,2025-10-15_16h16.24.588,HW_LDT_1,2024.2.4,MacIntel,107.5268817,,,,,,,,,,,,,,,,,,,,,371.5858,371.7855,371.7855,372.2855,,,,,,,,,,,,,,0.9862,1,,,,,,,,,,,,,,m,,,,,,,,,,,,,,,53,0,372.2862,373.2772,m,1,0.9862,,[],[],[],[],[],[],[],373.2773,375.2771,375.2771,375.2773,[],[],[],[],[],[],[],,375.2773,375.2774,0.149524636,-0.053236607,0,0,0,,0,52,52,108,1,1,word,FORTUNE,print,fortune_p.png,,,,,
,,,,31637,001,2025-10-15_16h16.24.588,HW_LDT_1,2024.2.4,MacIntel,107.5268817,,,,,,,,,,,,,,,,,,,,,375.278,375.4737,375.4738,375.9765,,,,,,,,,,,,,,3.2283,1,,,,,,,,,,,,,,m,,,,,,,,,,,,,,,54,0,375.9772,379.2095,m,1,3.2283,,[],[],[],[],[],[],[],379.2095,381.2094,381.2097,381.2099,[],[],[],[],[],[],[],,381.2099,381.21,0.149524636,-0.053236607,0,0,0,,0,53,53,154,1,1,word,STORAGE,cursive,storage_c.png,,,,,
,,,,31637,001,2025-10-15_16h16.24.588,HW_LDT_1,2024.2.4,MacIntel,107.5268817,,,,,,,,,,,,,,,,,,,,,381.2108,381.4097,381.4098,381.91,,,,,,,,,,,,,,0.9531,1,,,,,,,,,,,,,,m,,,,,,,,,,,,,,,55,0,381.9106,382.8686,m,1,0.9531,,[],[],[],[],[],[],[],382.8686,384.8682,384.8683,384.8684,[],[],[],[],[],[],[],,384.8684,384.8685,0.150512566,-0.054546958,0,0,0,,0,54,54,121,1,1,word,MISTAKE,print,mistake_p.png,,,,,
,,,,31637,001,2025-10-15_16h16.24.588,HW_LDT_1,2024.2.4,MacIntel,107.5268817,,,,,,,,,,,,,,,,,,,,,384.8692,385.0688,385.0688,385.5688,,,,,,,,,,,,,,1.1152,1,,,,,,,,,,,,,,z,,,,,,,,,,,,,,,56,1,385.5694,386.6851,z,1,1.1152,,[],[],[],[],[],[],[],386.6852,388.6855,388.6856,390.6772,[],[],[],[],[],[],[],z,390.6773,390.6774,0.150512566,-0.054546958,0,0,0,,0,55,55,23,1,1,RL,potugar,cursive,potugar_c.png,1.9864,,,,
,,,,31637,001,2025-10-15_16h16.24.588,HW_LDT_1,2024.2.4,MacIntel,107.5268817,,,,,,,,,,,,,,,,,,,,,390.6782,390.8776,390.8776,391.3772,,,,,,,,,,,,,,1.3941,1,,,,,,,,,,,,,,m,,,,,,,,,,,,,,,57,1,391.3779,392.7774,m,1,1.3941,,[],[],[],[],[],[],[],392.7775,394.7773,394.7773,396.2938,[],[],[],[],[],[],[],z,396.2938,396.2939,0.150512566,-0.054546958,0,0,0,,0,56,56,137,1,1,word,RAPIDLY,cursive,rapidly_c.png,1.516,,,,
,,,,31637,001,2025-10-15_16h16.24.588,HW_LDT_1,2024.2.4,MacIntel,107.5268817,,,,,,,,,,,,,,,,,,,,,396.2946,396.4939,396.4939,396.9936,,,,,,,,,,,,,,1.3859,1,,,,,,,,,,,,,,m,,,,,,,,,,,,,,,58,1,396.9939,398.3849,m,1,1.3859,,[],[],[],[],[],[],[],398.385,400.3851,400.3851,401.6355,[],[],[],[],[],[],[],z,401.6356,401.6357,0.150512566,-0.054546958,0,0,0,,0,57,57,132,1,1,word,PROPOSAL,cursive,proposal_c.png,1.2453,,,,
,,,,31637,001,2025-10-15_16h16.24.588,HW_LDT_1,2024.2.4,MacIntel,107.5268817,,,,,,,,,,,,,,,,,,,,,401.6366,401.8346,401.8346,402.3352,,,,,,,,,,,,,,1.3066,1,,,,,,,,,,,,,,z,,,,,,,,,,,,,,,59,0,402.3359,403.6438,z,1,1.3066,,[],[],[],[],[],[],[],403.6439,405.6433,405.6433,405.6435,[],[],[],[],[],[],[],,405.6437,405.6437,0.150512566,-0.054546958,0,0,0,,0,58,58,76,1,1,TL,stragety,cursive,stragety_c.png,,,,,
,,,,31637,001,2025-10-15_16h16.24.588,HW_LDT_1,2024.2.4,MacIntel,107.5268817,,,,,,,,,,,,,,,,,,,,,405.6449,405.8396,405.8397,406.3396,,,,,,,,,,,,,,1.7794,1,,,,,,,,,,,,,,z,,,,,,,,,,,,,,,60,1,406.3402,408.1259,z,1,1.7794,,[],[],[],[],[],[],[],408.126,410.1245,410.1245,411.3719,[],[],[],[],[],[],[],z,411.3719,411.372,0.150512566,-0.054546958,0,0,0,,0,59,59,15,1,1,RL,losipal,cursive,losipal_c.png,1.2438,,,,
,,,,31637,001,2025-10-15_16h16.24.588,HW_LDT_1,2024.2.4,MacIntel,107.5268817,,,,,,,,,,,,,,,,,,,,,411.3727,411.5722,411.5723,412.073,,,,,,,,,,,,,,1.6948,1,,,,,,,,,,,,,,m,,,,,,,,,,,,,,,61,0,412.0733,413.7698,m,1,1.6948,,[],[],[],[],[],[],[],413.7699,415.7707,415.7708,415.7711,[],[],[],[],[],[],[],,415.7712,415.7712,0.150512566,-0.054546958,0,0,0,,0,60,60,86,1,1,word,BESIDE,print,beside_p.png,,,,,
,,,,31637,001,2025-10-15_16h16.24.588,HW_LDT_1,2024.2.4,MacIntel,107.5268817,,,,,,,,,,,,,,,,,,,,,415.7723,415.9685,415.9685,416.468,,,,,,,,,,,,,,3.6995,1,,,,,,,,,,,,,,z,,,,,,,,,,,,,,,62,0,416.4684,420.1687,z,1,3.6995,,[],[],[],[],[],[],[],420.1689,422.1682,422.1683,422.1684,[],[],[],[],[],[],[],,422.1685,422.1685,0.15125248,-0.05203373,0,0,0,,0,61,61,36,1,1,RL,speniven,cursive,speniven_c.png,,,,,
,,,,31637,001,2025-10-15_16h16.24.588,HW_LDT_1,2024.2.4,MacIntel,107.5268817,,,,,,,,,,,,,,,,,,,,,422.1692,422.3679,422.368,422.8687,,,,,,,,,,,,,,1.4655,1,,,,,,,,,,,,,,z,,,,,,,,,,,,,,,63,0,422.8691,424.3355,z,1,1.4655,,[],[],[],[],[],[],[],424.3356,426.3355,426.3356,426.3357,[],[],[],[],[],[],[],,426.3358,426.3359,0.15125248,-0.051785714,0,0,0,,0,62,62,29,1,1,RL,refakive,cursive,refakive_c.png,,,,,
,,,,31637,001,2025-10-15_16h16.24.588,HW_LDT_1,2024.2.4,MacIntel,107.5268817,,,,,,,,,,,,,,,,,,,,,426.3367,426.5356,426.5356,427.0355,,,,,,,,,,,,,,1.0272,1,,,,,,,,,,,,,,m,,,,,,,,,,,,,,,64,0,427.0359,428.0687,m,1,1.0272,,[],[],[],[],[],[],[],428.0688,430.0686,430.0687,430.0689,[],[],[],[],[],[],[],,430.0689,430.0689,0.151008598,-0.051785714,0,0,0,,0,63,63,129,1,1,word,PARENT,cursive,parent_c.png,,,,,
,,,,31637,001,2025-10-15_16h16.24.588,HW_LDT_1,2024.2.4,MacIntel,107.5268817,,,,,,,,,,,,,,,,,,,,,430.0696,430.2689,430.2689,430.7681,,,,,,,,,,,,,,0.8111,1,,,,,,,,,,,,,,m,,,,,,,,,,,,,,,65,0,430.7686,431.5849,m,1,0.8111,,[],[],[],[],[],[],[],431.585,433.5855,433.5856,433.5856,[],[],[],[],[],[],[],,433.5857,433.5858,0.152476025,-0.046064815,0,0,0,,0,64,64,89,1,1,word,CAPACITY,print,capacity_p.png,,,,,
,,,,31637,001,2025-10-15_16h16.24.588,HW_LDT_1,2024.2.4,MacIntel,107.5268817,,,,,,,,,,,,,,,,,,,,,433.5866,433.7856,433.7856,434.2855,,,,,,,,,,,,,,0.9021,1,,,,,,,,,,,,,,z,,,,,,,,,,,,,,,66,0,434.2862,435.194,z,1,0.9021,,[],[],[],[],[],[],[],435.1941,437.1937,437.1938,437.1939,[],[],[],[],[],[],[],,437.1939,437.1939,0.150429894,-0.046821263,0,0,0,,0,65,65,8,1,1,RL,debave,print,debave_p.png,,,,,
,,,,31637,001,2025-10-15_16h16.24.588,HW_LDT_1,2024.2.4,MacIntel,107.5268817,,,,,,,,,,,,,,,,,,,,,437.1947,437.394,437.394,437.8938,,,,,,,,,,,,,,1.5368,1,,,,,,,,,,,,,,m,,,,,,,,,,,,,,,67,0,437.8942,439.4357,m,1,1.5368,,[],[],[],[],[],[],[],439.4358,441.4357,441.4357,441.4359,[],[],[],[],[],[],[],,441.436,441.4361,0.150429894,-0.046821263,0,0,0,,0,66,66,104,1,1,word,DOMINANT,cursive,dominant_c.png,,,,,
,,,,31637,001,2025-10-15_16h16.24.588,HW_LDT_1,2024.2.4,MacIntel,107.5268817,,,,,,,,,,,,,,,,,,,,,441.4375,441.6311,441.6312,442.1397,,,,,,,,,,,,,,3.0445,0,,,,,,,,,,,,,,z,,,,,,,,,,,,,,,68,0,442.1403,445.1872,m,0,3.0445,,[],[],[],[],[],[],[],445.1873,447.1884,447.1885,447.1885,[],[],[],[],[],[],[],,447.1885,447.1886,0.150429894,-0.046821263,0,0,0,,0,67,67,48,1,1,TL,cemerony,cursive,cemerony_c.png,,,,,
,,,,31637,001,2025-10-15_16h16.24.588,HW_LDT_1,2024.2.4,MacIntel,107.5268817,,,,,,,,,,,,,,,,,,,,,447.1892,447.3886,447.3886,447.8941,,,,,,,,,,,,,,1.0804,1,,,,,,,,,,,,,,m,,,,,,,,,,,,,,,69,0,447.8946,448.9808,m,1,1.0804,,[],[],[],[],[],[],[],448.9808,450.9802,450.9803,450.9805,[],[],[],[],[],[],[],,450.9806,450.9806,0.150429894,-0.046821263,0,0,0,,0,68,68,122,1,1,word,MOBILE,cursive,mobile_c.png,,,,,
,,,,31637,001,2025-10-15_16h16.24.588,HW_LDT_1,2024.2.4,MacIntel,107.5268817,,,,,,,,,,,,,,,,,,,,,450.9819,451.1802,451.1803,451.6754,,,,,,,,,,,,,,1.1537,1,,,,,,,,,,,,,,z,,,,,,,,,,,,,,,70,0,451.6759,452.8345,z,1,1.1537,,[],[],[],[],[],[],[],452.8345,454.8346,454.8346,454.8349,[],[],[],[],[],[],[],,454.8349,454.835,0.150429894,-0.046821263,0,0,0,,0,69,69,0,1,1,RL,abanemy,cursive,abanemy_c.png,,,,,
,,,,31637,001,2025-10-15_16h16.24.588,HW_LDT_1,2024.2.4,MacIntel,107.5268817,,,,,,,,,,,,,,,,,,,,,454.8363,455.0306,455.0307,455.5303,,,,,,,,,,,,,,0.8286,1,,,,,,,,,,,,,,m,,,,,,,,,,,,,,,71,0,455.5309,456.3636,m,1,0.8286,,[],[],[],[],[],[],[],456.3637,458.3647,458.3647,458.3648,[],[],[],[],[],[],[],,458.3649,458.365,0.150429894,-0.046821263,0,0,0,,0,70,70,84,1,1,word,BELOVED,print,beloved_p.png,,,,,
,,,,31637,001,2025-10-15_16h16.24.588,HW_LDT_1,2024.2.4,MacIntel,107.5268817,,,,,,,,,,,,,,,,,,,,,458.3658,458.5648,458.5649,459.0647,,,,,,,,,,,,,,1.1598,1,,,,,,,,,,,,,,z,,,,,,,,,,,,,,,72,0,459.0653,460.2316,z,1,1.1598,,[],[],[],[],[],[],[],460.2317,462.2304,462.2304,462.2305,[],[],[],[],[],[],[],,462.2306,462.2307,0.150429894,-0.046821263,0,0,0,,0,71,71,38,1,1,RL,stopave,cursive,stopave_c.png,,,,,
,,,,31637,001,2025-10-15_16h16.24.588,HW_LDT_1,2024.2.4,MacIntel,107.5268817,,,,,,,,,,,,,,,,,,,,,462.2315,462.4315,462.4315,462.9318,,,,,,,,,,,,,,1.5265,0,,,,,,,,,,,,,,z,,,,,,,,,,,,,,,73,0,462.9324,464.4647,m,0,1.5265,,[],[],[],[],[],[],[],464.4648,466.4648,466.4648,466.4651,[],[],[],[],[],[],[],,466.4651,466.4653,0.150429894,-0.046821263,0,0,0,,0,72,72,75,1,1,TL,speficic,cursive,speficic_c.png,,,,,
,,,,31637,001,2025-10-15_16h16.24.588,HW_LDT_1,2024.2.4,MacIntel,107.5268817,,,,,,,,,,,,,,,,,,,,,466.4665,466.6648,466.6648,467.1598,,,,,,,,,,,,,,1.7177,1,,,,,,,,,,,,,,m,,,,,,,,,,,,,,,74,1,467.1604,468.8789,m,1,1.7177,,[],[],[],[],[],[],[],468.879,470.88,470.88,472.584,[],[],[],[],[],[],[],z,472.584,472.5841,0.150429894,-0.046821263,0,0,0,,0,73,73,82,1,1,word,AMATEUR,print,amateur_p.png,1.6982,,,,
,,,,31637,001,2025-10-15_16h16.24.588,HW_LDT_1,2024.2.4,MacIntel,107.5268817,,,,,,,,,,,,,,,,,,,,,472.5847,472.7845,472.7845,473.2848,,,,,,,,,,,,,,0.9528,1,,,,,,,,,,,,,,m,,,,,,,,,,,,,,,75,0,473.2853,474.2386,m,1,0.9528,,[],[],[],[],[],[],[],474.2387,476.2386,476.2386,476.2388,[],[],[],[],[],[],[],,476.2388,476.239,0.150429894,-0.046821263,0,0,0,,0,74,74,123,1,1,word,MODERATE,print,moderate_p.png,,,,,
,,,,31637,001,2025-10-15_16h16.24.588,HW_LDT_1,2024.2.4,MacIntel,107.5268817,,,,,,,,,,,,,,,,,,,,,476.2402,476.4386,476.4387,476.939,,,,,,,,,,,,,,1.3667,1,,,,,,,,,,,,,,m,,,,,,,,,,,,,,,76,0,476.9395,478.3108,m,1,1.3667,,[],[],[],[],[],[],[],478.3109,480.3091,480.3092,480.3094,[],[],[],[],[],[],[],,480.3094,480.3095,0.150429894,-0.046821263,0,0,0,,0,75,75,120,1,1,word,MILITARY,print,military_p.png,,,,,
,,,,31637,001,2025-10-15_16h16.24.588,HW_LDT_1,2024.2.4,MacIntel,107.5268817,,,,,,,,,,,,,,,,,,,,,480.3103,480.5096,480.5097,481.0097,,,,,,,,,,,,,,3.5299,1,,,,,,,,,,,,,,z,,,,,,,,,,,,,,,77,0,481.0102,484.5437,z,1,3.5299,,[],[],[],[],[],[],[],484.5438,486.5429,486.5429,486.5431,[],[],[],[],[],[],[],,486.5432,486.5433,0.150429894,-0.046821263,0,0,0,,0,76,76,61,1,1,TL,mecidine,cursive,mecidine_c.png,,,,,
,,,,31637,001,2025-10-15_16h16.24.588,HW_LDT_1,2024.2.4,MacIntel,107.5268817,,,,,,,,,,,,,,,,,,,,,486.5447,486.7438,486.7439,487.244,,,,,,,,,,,,,,1.7806,1,,,,,,,,,,,,,,z,,,,,,,,,,,,,,,78,0,487.2446,489.0273,z,1,1.7806,,[],[],[],[],[],[],[],489.0273,491.0272,491.0272,491.0273,[],[],[],[],[],[],[],,491.0273,491.0273,0.150429894,-0.049313823,0,0,0,,0,77,77,63,1,1,TL,molibe,cursive,molibe_c.png,,,,,
,,,,31637,001,2025-10-15_16h16.24.588,HW_LDT_1,2024.2.4,MacIntel,107.5268817,,,,,,,,,,,,,,,,,,,,,491.0281,491.2273,491.2274,491.7262,,,,,,,,,,,,,,0.9154,0,,,,,,,,,,,,,,m,,,,,,,,,,,,,,,79,0,491.7269,492.643,z,0,0.9154,,[],[],[],[],[],[],[],492.6431,494.6428,494.6428,494.6429,[],[],[],[],[],[],[],,494.6429,494.6431,0.150429894,-0.049313823,0,0,0,,0,78,78,146,1,1,word,RETIRE,cursive,retire_c.png,,,,,
,,,,31637,001,2025-10-15_16h16.24.588,HW_LDT_1,2024.2.4,MacIntel,107.5268817,,,,,,,,,,,,,,,,,,,,,494.6442,494.8431,494.8431,495.3421,,,,,,,,,,,,,,0.9105,1,,,,,,,,,,,,,,z,,,,,,,,,,,,,,,80,0,495.3426,496.2593,z,1,0.9105,,[],[],[],[],[],[],[],496.2594,498.2602,498.2603,498.2604,[],[],[],[],[],[],[],,498.2604,526.0567,0.120597718,-0.389976025,1,0,0,,0,79,79,28,1,1,RL,renutal,print,renutal_p.png,,,break_done_button,,
,,,,31637,001,2025-10-15_16h16.24.588,HW_LDT_1,2024.2.4,MacIntel,107.5268817,,,,,,,,,,,,,,,,,,,,,526.0573,526.2559,526.2559,526.7566,,,,,,,,,,,,,,1.244,1,,,,,,,,,,,,,,z,,,,,,,,,,,,,,,81,0,526.7571,528.0065,z,1,1.244,,[],[],[],[],[],[],[],528.0065,530.0066,530.0067,530.0069,[],[],[],[],[],[],[],,530.007,530.0071,0.120597718,-0.389976025,0,0,0,,0,80,80,17,1,1,RL,menowy,cursive,menowy_c.png,,,,,
,,,,31637,001,2025-10-15_16h16.24.588,HW_LDT_1,2024.2.4,MacIntel,107.5268817,,,,,,,,,,,,,,,,,,,,,530.0084,530.2065,530.2066,530.7066,,,,,,,,,,,,,,2.3693,1,,,,,,,,,,,,,,z,,,,,,,,,,,,,,,82,0,530.7072,533.0814,z,1,2.3693,,[],[],[],[],[],[],[],533.0815,535.0814,535.0815,535.0815,[],[],[],[],[],[],[],,535.0815,535.0816,0.120597718,-0.389976025,0,0,0,,0,81,81,50,1,1,TL,condiser,cursive,condiser_c.png,,,,,
,,,,31637,001,2025-10-15_16h16.24.588,HW_LDT_1,2024.2.4,MacIntel,107.5268817,,,,,,,,,,,,,,,,,,,,,535.0823,535.2816,535.2817,535.7814,,,,,,,,,,,,,,0.8204,1,,,,,,,,,,,,,,m,,,,,,,,,,,,,,,83,0,535.7818,536.6065,m,1,0.8204,,[],[],[],[],[],[],[],536.6065,538.6065,538.6067,538.6068,[],[],[],[],[],[],[],,538.6069,538.6071,0.120597718,-0.389976025,0,0,0,,0,82,82,126,1,1,word,OPTIMAL,print,optimal_p.png,,,,,
,,,,31637,001,2025-10-15_16h16.24.588,HW_LDT_1,2024.2.4,MacIntel,107.5268817,,,,,,,,,,,,,,,,,,,,,538.6083,538.8024,538.8025,539.3064,,,,,,,,,,,,,,0.7404,1,,,,,,,,,,,,,,m,,,,,,,,,,,,,,,84,0,539.3067,540.0524,m,1,0.7404,,[],[],[],[],[],[],[],540.0525,542.0475,542.0475,542.0477,[],[],[],[],[],[],[],,542.0479,542.048,0.120597718,-0.389976025,0,0,0,,0,83,83,113,1,1,word,LITERAL,print,literal_p.png,,,,,
,,,,31637,001,2025-10-15_16h16.24.588,HW_LDT_1,2024.2.4,MacIntel,107.5268817,,,,,,,,,,,,,,,,,,,,,542.0493,542.2473,542.2474,542.7424,,,,,,,,,,,,,,0.6923,1,,,,,,,,,,,,,,z,,,,,,,,,,,,,,,85,0,542.7428,543.4425,z,1,0.6923,,[],[],[],[],[],[],[],543.4426,545.4426,545.4426,545.4427,[],[],[],[],[],[],[],,545.4427,545.4427,0.120597718,-0.389976025,0,0,0,,0,84,84,24,1,1,RL,probice,print,probice_p.png,,,,,
,,,,31637,001,2025-10-15_16h16.24.588,HW_LDT_1,2024.2.4,MacIntel,107.5268817,,,,,,,,,,,,,,,,,,,,,545.4434,545.6387,545.6387,546.1393,,,,,,,,,,,,,,1.3249,1,,,,,,,,,,,,,,z,,,,,,,,,,,,,,,86,0,546.1399,547.4678,z,1,1.3249,,[],[],[],[],[],[],[],547.4679,549.4684,549.4684,549.4686,[],[],[],[],[],[],[],,549.4687,549.4688,0.120597718,-0.389976025,0,0,0,,0,85,85,70,1,1,TL,relugar,print,relugar_p.png,,,,,
,,,,31637,001,2025-10-15_16h16.24.588,HW_LDT_1,2024.2.4,MacIntel,107.5268817,,,,,,,,,,,,,,,,,,,,,549.4701,549.6681,549.6681,550.1681,,,,,,,,,,,,,,1.6638,0,,,,,,,,,,,,,,m,,,,,,,,,,,,,,,87,0,550.1686,551.8388,z,0,1.6638,,[],[],[],[],[],[],[],551.8389,553.8349,553.835,553.8352,[],[],[],[],[],[],[],,553.8355,553.8355,0.120597718,-0.389976025,0,0,0,,0,86,86,103,1,1,word,DISPUTE,cursive,dispute_c.png,,,,,
,,,,31637,001,2025-10-15_16h16.24.588,HW_LDT_1,2024.2.4,MacIntel,107.5268817,,,,,,,,,,,,,,,,,,,,,553.8372,554.034,554.0341,554.5386,,,,,,,,,,,,,,1.9956,1,,,,,,,,,,,,,,z,,,,,,,,,,,,,,,88,0,554.5391,556.5389,z,1,1.9956,,[],[],[],[],[],[],[],556.5389,558.5348,558.5348,558.535,[],[],[],[],[],[],[],,558.535,558.5351,0.120597718,-0.389976025,0,0,0,,0,87,87,45,1,1,TL,cacapity,print,cacapity_p.png,,,,,
,,,,31637,001,2025-10-15_16h16.24.588,HW_LDT_1,2024.2.4,MacIntel,107.5268817,,,,,,,,,,,,,,,,,,,,,558.5364,558.7352,558.7353,559.2354,,,,,,,,,,,,,,2.041,1,,,,,,,,,,,,,,z,,,,,,,,,,,,,,,89,0,559.2359,561.2774,z,1,2.041,,[],[],[],[],[],[],[],561.2775,563.2775,563.2775,563.2778,[],[],[],[],[],[],[],,563.2778,563.2779,0.120597718,-0.389976025,0,0,0,,0,88,88,57,1,1,TL,hetirage,cursive,hetirage_c.png,,,,,
,,,,31637,001,2025-10-15_16h16.24.588,HW_LDT_1,2024.2.4,MacIntel,107.5268817,,,,,,,,,,,,,,,,,,,,,563.2792,563.4768,563.4768,563.9774,,,,,,,,,,,,,,1.1481,1,,,,,,,,,,,,,,m,,,,,,,,,,,,,,,90,0,563.9778,565.1275,m,1,1.1481,,[],[],[],[],[],[],[],565.1276,567.1277,567.1278,567.1279,[],[],[],[],[],[],[],,567.1279,567.1279,0.120597718,-0.389976025,0,0,0,,0,89,89,141,1,1,word,RELIGION,cursive,religion_c.png,,,,,
,,,,31637,001,2025-10-15_16h16.24.588,HW_LDT_1,2024.2.4,MacIntel,107.5268817,,,,,,,,,,,,,,,,,,,,,567.1289,567.3273,567.3273,567.8261,,,,,,,,,,,,,,0.8556,1,,,,,,,,,,,,,,m,,,,,,,,,,,,,,,91,0,567.8266,568.6848,m,1,0.8556,,[],[],[],[],[],[],[],568.6848,570.6822,570.6822,570.6824,[],[],[],[],[],[],[],,570.6824,570.6825,0.120597718,-0.389976025,0,0,0,,0,90,90,124,1,1,word,NUMERICAL,print,numerical_p.png,,,,,
,,,,31637,001,2025-10-15_16h16.24.588,HW_LDT_1,2024.2.4,MacIntel,107.5268817,,,,,,,,,,,,,,,,,,,,,570.6836,570.8766,570.8766,571.3767,,,,,,,,,,,,,,0.7295,1,,,,,,,,,,,,,,m,,,,,,,,,,,,,,,92,0,571.3773,572.1082,m,1,0.7295,,[],[],[],[],[],[],[],572.1083,574.1098,574.1098,574.1099,[],[],[],[],[],[],[],,574.1099,574.11,0.120597718,-0.389976025,0,0,0,,0,91,91,130,1,1,word,POLICY,cursive,policy_c.png,,,,,
,,,,31637,001,2025-10-15_16h16.24.588,HW_LDT_1,2024.2.4,MacIntel,107.5268817,,,,,,,,,,,,,,,,,,,,,574.1111,574.3104,574.3104,574.8056,,,,,,,,,,,,,,2.6786,0,,,,,,,,,,,,,,m,,,,,,,,,,,,,,,93,0,574.8063,577.4876,z,0,2.6786,,[],[],[],[],[],[],[],577.4878,579.487,579.487,579.487,[],[],[],[],[],[],[],,579.4871,579.4872,0.120597718,-0.389976025,0,0,0,,0,92,92,111,1,1,word,INDICATE,cursive,indicate_c.png,,,,,
,,,,31637,001,2025-10-15_16h16.24.588,HW_LDT_1,2024.2.4,MacIntel,107.5268817,,,,,,,,,,,,,,,,,,,,,579.4881,579.6885,579.6885,580.1886,,,,,,,,,,,,,,1.207,0,,,,,,,,,,,,,,m,,,,,,,,,,,,,,,94,1,580.189,581.4013,z,0,1.207,,[],[],[],[],[],[],[],581.4014,583.4006,583.4006,584.8661,[],[],[],[],[],[],[],z,584.8661,584.8663,0.120597718,-0.389976025,0,0,0,,0,93,93,105,1,1,word,EDITOR,cursive,editor_c.png,1.4622,,,,
,,,,31637,001,2025-10-15_16h16.24.588,HW_LDT_1,2024.2.4,MacIntel,107.5268817,,,,,,,,,,,,,,,,,,,,,584.8672,585.0678,585.068,585.5632,,,,,,,,,,,,,,1.3824,1,,,,,,,,,,,,,,z,,,,,,,,,,,,,,,95,0,585.5637,586.9473,z,1,1.3824,,[],[],[],[],[],[],[],586.9473,588.9476,588.9477,588.948,[],[],[],[],[],[],[],,588.9481,588.9481,0.120597718,-0.389976025,0,0,0,,0,94,94,74,1,1,TL,setanor,cursive,setanor_c.png,,,,,
,,,,31637,001,2025-10-15_16h16.24.588,HW_LDT_1,2024.2.4,MacIntel,107.5268817,,,,,,,,,,,,,,,,,,,,,588.9495,589.1474,589.1474,589.6432,,,,,,,,,,,,,,1.0356,1,,,,,,,,,,,,,,m,,,,,,,,,,,,,,,96,0,589.6439,590.6805,m,1,1.0356,,[],[],[],[],[],[],[],590.6806,592.6806,592.6806,592.6808,[],[],[],[],[],[],[],,592.6808,592.6809,0.120597718,-0.389976025,0,0,0,,0,95,95,128,1,1,word,PACIFIC,print,pacific_p.png,,,,,
,,,,31637,001,2025-10-15_16h16.24.588,HW_LDT_1,2024.2.4,MacIntel,107.5268817,,,,,,,,,,,,,,,,,,,,,592.6818,592.8803,592.8803,593.3811,,,,,,,,,,,,,,1.2868,1,,,,,,,,,,,,,,m,,,,,,,,,,,,,,,97,0,593.3817,594.673,m,1,1.2868,,[],[],[],[],[],[],[],594.673,596.6722,596.6723,596.6724,[],[],[],[],[],[],[],,596.6724,596.6724,0.120597718,-0.389976025,0,0,0,,0,96,96,143,1,1,word,REMOVAL,cursive,removal_c.png,,,,,
,,,,31637,001,2025-10-15_16h16.24.588,HW_LDT_1,2024.2.4,MacIntel,107.5268817,,,,,,,,,,,,,,,,,,,,,596.673,596.8725,596.8725,597.3731,,,,,,,,,,,,,,0.8613,1,,,,,,,,,,,,,,z,,,,,,,,,,,,,,,98,0,597.3735,598.2399,z,1,0.8613,,[],[],[],[],[],[],[],598.2399,600.2399,600.2399,600.24,[],[],[],[],[],[],[],,600.24,600.2402,0.120597718,-0.389976025,0,0,0,,0,97,97,11,1,1,RL,elacodate,print,elacodate_p.png,,,,,
,,,,31637,001,2025-10-15_16h16.24.588,HW_LDT_1,2024.2.4,MacIntel,107.5268817,,,,,,,,,,,,,,,,,,,,,600.2409,600.44,600.4401,600.9396,,,,,,,,,,,,,,0.8552,1,,,,,,,,,,,,,,m,,,,,,,,,,,,,,,99,0,600.9399,601.7983,m,1,0.8552,,[],[],[],[],[],[],[],601.7984,603.7983,603.7983,603.7985,[],[],[],[],[],[],[],,603.7987,603.7987,0.120597718,-0.389976025,0,0,0,,0,98,98,158,1,1,word,VELOCITY,print,velocity_p.png,,,,,
,,,,31637,001,2025-10-15_16h16.24.588,HW_LDT_1,2024.2.4,MacIntel,107.5268817,,,,,,,,,,,,,,,,,,,,,603.7994,603.9983,603.9983,604.4981,,,,,,,,,,,,,,0.9014,0,,,,,,,,,,,,,,z,,,,,,,,,,,,,,,100,0,604.4984,605.4067,m,0,0.9014,,[],[],[],[],[],[],[],605.4068,607.4066,607.4066,607.4068,[],[],[],[],[],[],[],,607.4068,607.4068,0.120597718,-0.389976025,0,0,0,,0,99,99,66,1,1,TL,panert,cursive,panert_c.png,,,,,
,,,,31637,001,2025-10-15_16h16.24.588,HW_LDT_1,2024.2.4,MacIntel,107.5268817,,,,,,,,,,,,,,,,,,,,,607.4077,607.6064,607.6064,608.1065,,,,,,,,,,,,,,1.5264,1,,,,,,,,,,,,,,z,,,,,,,,,,,,,,,101,0,608.1068,609.6397,z,1,1.5264,,[],[],[],[],[],[],[],609.6398,611.64,611.64,611.64,[],[],[],[],[],[],[],,611.64,611.6402,0.120597718,-0.389976025,0,0,0,,0,100,100,69,1,1,TL,radiply,cursive,radiply_c.png,,,,,
,,,,31637,001,2025-10-15_16h16.24.588,HW_LDT_1,2024.2.4,MacIntel,107.5268817,,,,,,,,,,,,,,,,,,,,,611.6409,611.8397,611.8397,612.34,,,,,,,,,,,,,,1.6314,1,,,,,,,,,,,,,,m,,,,,,,,,,,,,,,102,0,612.3406,613.9733,m,1,1.6314,,[],[],[],[],[],[],[],613.9733,615.9734,615.9734,615.9735,[],[],[],[],[],[],[],,615.9736,615.9736,0.120597718,-0.389976025,0,0,0,,0,101,101,156,1,1,word,TRIBUTE,cursive,tribute_c.png,,,,,
,,,,31637,001,2025-10-15_16h16.24.588,HW_LDT_1,2024.2.4,MacIntel,107.5268817,,,,,,,,,,,,,,,,,,,,,615.9743,616.1733,616.1733,616.6733,,,,,,,,,,,,,,0.986,1,,,,,,,,,,,,,,z,,,,,,,,,,,,,,,103,0,616.6736,617.6651,z,1,0.986,,[],[],[],[],[],[],[],617.6652,619.665,619.665,619.6653,[],[],[],[],[],[],[],,619.6653,619.6654,0.120597718,-0.389976025,0,0,0,,0,102,102,41,1,1,TL,bevoled,print,bevoled_p.png,,,,,
,,,,31637,001,2025-10-15_16h16.24.588,HW_LDT_1,2024.2.4,MacIntel,107.5268817,,,,,,,,,,,,,,,,,,,,,619.6666,619.865,619.8651,620.365,,,,,,,,,,,,,,1.1816,1,,,,,,,,,,,,,,z,,,,,,,,,,,,,,,104,0,620.3655,621.5482,z,1,1.1816,,[],[],[],[],[],[],[],621.5483,623.5483,623.5484,623.5486,[],[],[],[],[],[],[],,623.5487,623.5488,0.120597718,-0.389976025,0,0,0,,0,103,103,79,1,1,TL,veretan,print,veretan_p.png,,,,,
,,,,31637,001,2025-10-15_16h16.24.588,HW_LDT_1,2024.2.4,MacIntel,107.5268817,,,,,,,,,,,,,,,,,,,,,623.55,623.7441,623.7441,624.2429,,,,,,,,,,,,,,1.5935,1,,,,,,,,,,,,,,m,,,,,,,,,,,,,,,105,0,624.2434,625.8428,m,1,1.5935,,[],[],[],[],[],[],[],625.8428,627.8385,627.8387,627.8389,[],[],[],[],[],[],[],,627.839,627.839,0.120597718,-0.389976025,0,0,0,,0,104,104,92,1,1,word,CATEGORY,print,category_p.png,,,,,
,,,,31637,001,2025-10-15_16h16.24.588,HW_LDT_1,2024.2.4,MacIntel,107.5268817,,,,,,,,,,,,,,,,,,,,,627.8404,628.0385,628.0385,628.539,,,,,,,,,,,,,,1.1254,0,,,,,,,,,,,,,,m,,,,,,,,,,,,,,,106,1,628.5396,629.6686,z,0,1.1254,,[],[],[],[],[],[],[],629.6686,631.6656,631.6658,633.1724,[],[],[],[],[],[],[],z,633.1725,633.1726,0.120597718,-0.389976025,0,0,0,,0,105,105,125,1,1,word,OPERATOR,cursive,operator_c.png,1.5009,,,,
,,,,31637,001,2025-10-15_16h16.24.588,HW_LDT_1,2024.2.4,MacIntel,107.5268817,,,,,,,,,,,,,,,,,,,,,633.1737,633.3724,633.3724,633.873,,,,,,,,,,,,,,0.9383,1,,,,,,,,,,,,,,m,,,,,,,,,,,,,,,107,0,633.8736,634.8137,m,1,0.9383,,[],[],[],[],[],[],[],634.8138,636.8148,636.8148,636.8149,[],[],[],[],[],[],[],,636.8149,636.815,0.120597718,-0.389976025,0,0,0,,0,106,106,100,1,1,word,DECADE,print,decade_p.png,,,,,
,,,,31637,001,2025-10-15_16h16.24.588,HW_LDT_1,2024.2.4,MacIntel,107.5268817,,,,,,,,,,,,,,,,,,,,,636.8157,637.014,637.0141,637.5146,,,,,,,,,,,,,,1.2486,1,,,,,,,,,,,,,,z,,,,,,,,,,,,,,,108,0,637.515,638.7649,z,1,1.2486,,[],[],[],[],[],[],[],638.7649,640.7651,640.7652,640.7654,[],[],[],[],[],[],[],,640.7655,640.7655,0.120597718,-0.389976025,0,0,0,,0,107,107,22,1,1,RL,patisic,print,patisic_p.png,,,,,
,,,,31637,001,2025-10-15_16h16.24.588,HW_LDT_1,2024.2.4,MacIntel,107.5268817,,,,,,,,,,,,,,,,,,,,,640.7669,640.9649,640.9649,641.4686,,,,,,,,,,,,,,0.7398,1,,,,,,,,,,,,,,z,,,,,,,,,,,,,,,109,0,641.4692,642.2098,z,1,0.7398,,[],[],[],[],[],[],[],642.2098,644.2095,644.2095,644.2098,[],[],[],[],[],[],[],,644.2099,644.2099,0.120597718,-0.389976025,0,0,0,,0,108,108,13,1,1,RL,linefal,print,linefal_p.png,,,,,
,,,,31637,001,2025-10-15_16h16.24.588,HW_LDT_1,2024.2.4,MacIntel,107.5268817,,,,,,,,,,,,,,,,,,,,,644.2111,644.4098,644.4099,644.9102,,,,,,,,,,,,,,0.9522,1,,,,,,,,,,,,,,m,,,,,,,,,,,,,,,110,0,644.9108,645.869,m,1,0.9522,,[],[],[],[],[],[],[],645.8691,647.8691,647.8691,647.8692,[],[],[],[],[],[],[],,647.8692,647.8693,0.120597718,-0.389976025,0,0,0,,0,109,109,139,1,1,word,REGULAR,print,regular_p.png,,,,,
,,,,31637,001,2025-10-15_16h16.24.588,HW_LDT_1,2024.2.4,MacIntel,107.5268817,,,,,,,,,,,,,,,,,,,,,647.87,648.0691,648.0692,648.569,,,,,,,,,,,,,,0.7531,0,,,,,,,,,,,,,,z,,,,,,,,,,,,,,,111,0,648.5693,649.3277,m,0,0.7531,,[],[],[],[],[],[],[],649.3278,651.3269,651.327,651.3272,[],[],[],[],[],[],[],,651.3273,651.3273,0.120597718,-0.389976025,0,0,0,,0,110,110,62,1,1,TL,mitilary,print,mitilary_p.png,,,,,
,,,,31637,001,2025-10-15_16h16.24.588,HW_LDT_1,2024.2.4,MacIntel,107.5268817,,,,,,,,,,,,,,,,,,,,,651.3286,651.5231,651.5232,652.0266,,,,,,,,,,,,,,1.9661,1,,,,,,,,,,,,,,m,,,,,,,,,,,,,,,112,0,652.0272,653.9976,m,1,1.9661,,[],[],[],[],[],[],[],653.9976,655.993,655.993,655.9931,[],[],[],[],[],[],[],,655.9931,655.9932,0.120597718,-0.389976025,0,0,0,,0,111,111,151,1,1,word,SPECIFIC,cursive,specific_c.png,,,,,
,,,,31637,001,2025-10-15_16h16.24.588,HW_LDT_1,2024.2.4,MacIntel,107.5268817,,,,,,,,,,,,,,,,,,,,,655.9943,656.1937,656.1937,656.6939,,,,,,,,,,,,,,1.4447,1,,,,,,,,,,,,,,z,,,,,,,,,,,,,,,113,0,656.6946,658.1439,z,1,1.4447,,[],[],[],[],[],[],[],658.144,660.1433,660.1434,660.1436,[],[],[],[],[],[],[],,660.1436,660.1438,0.120597718,-0.389976025,0,0,0,,0,112,112,1,1,1,RL,adnicory,cursive,adnicory_c.png,,,,,
,,,,31637,001,2025-10-15_16h16.24.588,HW_LDT_1,2024.2.4,MacIntel,107.5268817,,,,,,,,,,,,,,,,,,,,,660.1451,660.3433,660.3434,660.8442,,,,,,,,,,,,,,0.7294,1,,,,,,,,,,,,,,m,,,,,,,,,,,,,,,114,0,660.8446,661.5789,m,1,0.7294,,[],[],[],[],[],[],[],661.579,663.5765,663.5766,663.5767,[],[],[],[],[],[],[],,663.5768,663.5769,0.120597718,-0.389976025,0,0,0,,0,113,113,99,1,1,word,DEBATE,print,debate_p.png,,,,,
,,,,31637,001,2025-10-15_16h16.24.588,HW_LDT_1,2024.2.4,MacIntel,107.5268817,,,,,,,,,,,,,,,,,,,,,663.5778,663.7768,663.7768,664.2765,,,,,,,,,,,,,,0.8027,1,,,,,,,,,,,,,,z,,,,,,,,,,,,,,,115,1,664.2769,665.0858,z,1,0.8027,,[],[],[],[],[],[],[],665.0858,667.086,667.086,669.736,[],[],[],[],[],[],[],z,669.736,669.7361,0.120597718,-0.389976025,0,0,0,,0,114,114,4,1,1,RL,carminal,print,carminal_p.png,2.6447,,,,
,,,,31637,001,2025-10-15_16h16.24.588,HW_LDT_1,2024.2.4,MacIntel,107.5268817,,,,,,,,,,,,,,,,,,,,,669.7367,669.9359,669.936,670.4358,,,,,,,,,,,,,,0.8704,1,,,,,,,,,,,,,,m,,,,,,,,,,,,,,,116,0,670.4363,671.3109,m,1,0.8704,,[],[],[],[],[],[],[],671.3109,673.3108,673.3108,673.3109,[],[],[],[],[],[],[],,673.311,673.311,0.120597718,-0.389976025,0,0,0,,0,115,115,133,1,1,word,PROVIDE,print,provide_p.png,,,,,
,,,,31637,001,2025-10-15_16h16.24.588,HW_LDT_1,2024.2.4,MacIntel,107.5268817,,,,,,,,,,,,,,,,,,,,,673.312,673.5103,673.5103,674.011,,,,,,,,,,,,,,0.9059,0,,,,,,,,,,,,,,m,,,,,,,,,,,,,,,117,0,674.0116,674.9194,z,0,0.9059,,[],[],[],[],[],[],[],674.9194,676.9192,676.9193,676.9194,[],[],[],[],[],[],[],,676.9194,676.9195,0.120597718,-0.389976025,0,0,0,,0,116,116,88,1,1,word,CAMERA,cursive,camera_c.png,,,,,
,,,,31637,001,2025-10-15_16h16.24.588,HW_LDT_1,2024.2.4,MacIntel,107.5268817,,,,,,,,,,,,,,,,,,,,,676.9204,677.1191,677.1192,677.6193,,,,,,,,,,,,,,0.7649,1,,,,,,,,,,,,,,z,,,,,,,,,,,,,,,118,0,677.62,678.3859,z,1,0.7649,,[],[],[],[],[],[],[],678.386,680.3859,680.386,680.3861,[],[],[],[],[],[],[],,680.3862,680.3862,0.120597718,-0.389976025,0,0,0,,0,117,117,32,1,1,RL,rebicent,print,rebicent_p.png,,,,,
,,,,31637,001,2025-10-15_16h16.24.588,HW_LDT_1,2024.2.4,MacIntel,107.5268817,,,,,,,,,,,,,,,,,,,,,680.3871,680.5855,680.5856,681.0859,,,,,,,,,,,,,,0.9363,1,,,,,,,,,,,,,,z,,,,,,,,,,,,,,,119,0,681.0865,682.0275,z,1,0.9363,,[],[],[],[],[],[],[],682.0276,684.0277,684.0278,684.0279,[],[],[],[],[],[],[],,684.028,684.0281,0.120597718,-0.389976025,0,0,0,,0,118,118,26,1,1,RL,quafidy,cursive,quafidy_c.png,,,,,
,,,,31637,001,2025-10-15_16h16.24.588,HW_LDT_1,2024.2.4,MacIntel,107.5268817,,,,,,,,,,,,,,,,,,,,,684.0294,684.2264,684.2264,684.7261,,,,,,,,,,,,,,2.0895,1,,,,,,,,,,,,,,m,,,,,,,,,,,,,,,120,0,684.7268,686.8226,m,1,2.0895,,[],[],[],[],[],[],[],686.8226,688.8182,688.8183,688.8185,[],[],[],[],[],[],[],,688.8185,688.8187,0.120597718,-0.389976025,0,0,0,,0,119,119,102,1,1,word,DENSITY,cursive,density_c.png,,,,,
,,,,31637,001,2025-10-15_16h16.24.588,HW_LDT_1,2024.2.4,MacIntel,107.5268817,,,,,,,,,,,,,,,,,,,,,688.82,689.017,689.017,689.5187,,,,,,,,,,,,,,1.2923,1,,,,,,,,,,,,,,z,,,,,,,,,,,,,,,121,0,689.5194,690.8175,z,1,1.2923,,[],[],[],[],[],[],[],690.8175,692.8191,692.8191,692.8194,[],[],[],[],[],[],[],,692.8195,692.8196,0.120597718,-0.389976025,0,0,0,,0,120,120,56,1,1,TL,grafetul,print,grafetul_p.png,,,,,
,,,,31637,001,2025-10-15_16h16.24.588,HW_LDT_1,2024.2.4,MacIntel,107.5268817,,,,,,,,,,,,,,,,,,,,,692.8209,693.0191,693.0192,693.5149,,,,,,,,,,,,,,0.9529,1,,,,,,,,,,,,,,z,,,,,,,,,,,,,,,122,0,693.5155,694.4724,z,1,0.9529,,[],[],[],[],[],[],[],694.4725,696.4724,696.4724,696.4725,[],[],[],[],[],[],[],,696.4725,696.4726,0.120597718,-0.389976025,0,0,0,,0,121,121,3,1,1,RL,casena,cursive,casena_c.png,,,,,
,,,,31637,001,2025-10-15_16h16.24.588,HW_LDT_1,2024.2.4,MacIntel,107.5268817,,,,,,,,,,,,,,,,,,,,,696.4736,696.6725,696.6726,697.1727,,,,,,,,,,,,,,1.9289,1,,,,,,,,,,,,,,m,,,,,,,,,,,,,,,123,0,697.173,699.1065,m,1,1.9289,,[],[],[],[],[],[],[],699.1066,701.1068,701.1069,701.107,[],[],[],[],[],[],[],,701.1071,701.1072,0.120597718,-0.389976025,0,0,0,,0,122,122,112,1,1,word,LIBERAL,cursive,liberal_c.png,,,,,
,,,,31637,001,2025-10-15_16h16.24.588,HW_LDT_1,2024.2.4,MacIntel,107.5268817,,,,,,,,,,,,,,,,,,,,,701.1082,701.3067,701.3067,701.8067,,,,,,,,,,,,,,1.0354,1,,,,,,,,,,,,,,m,,,,,,,,,,,,,,,124,0,701.8074,702.8484,m,1,1.0354,,[],[],[],[],[],[],[],702.8484,704.8485,704.8486,704.8487,[],[],[],[],[],[],[],,704.8489,704.8489,0.120597718,-0.389976025,0,0,0,,0,123,123,114,1,1,word,LOCATE,print,locate_p.png,,,,,
,,,,31637,001,2025-10-15_16h16.24.588,HW_LDT_1,2024.2.4,MacIntel,107.5268817,,,,,,,,,,,,,,,,,,,,,704.8502,705.0482,705.0482,705.544,,,,,,,,,,,,,,0.8526,1,,,,,,,,,,,,,,z,,,,,,,,,,,,,,,125,0,705.5447,706.4013,z,1,0.8526,,[],[],[],[],[],[],[],706.4014,708.3972,708.3972,708.3974,[],[],[],[],[],[],[],,708.3974,708.3975,0.120597718,-0.389976025,0,0,0,,0,124,124,44,1,1,TL,cateferia,cursive,cateferia_c.png,,,,,
,,,,31637,001,2025-10-15_16h16.24.588,HW_LDT_1,2024.2.4,MacIntel,107.5268817,,,,,,,,,,,,,,,,,,,,,708.3984,708.5917,708.5918,709.0929,,,,,,,,,,,,,,3.3122,1,,,,,,,,,,,,,,z,,,,,,,,,,,,,,,126,0,709.0935,712.4098,z,1,3.3122,,[],[],[],[],[],[],[],712.4099,714.4107,714.4109,714.411,[],[],[],[],[],[],[],,714.411,714.411,0.120597718,-0.389976025,0,0,0,,0,125,125,53,1,1,TL,dentisy,cursive,dentisy_c.png,,,,,
,,,,31637,001,2025-10-15_16h16.24.588,HW_LDT_1,2024.2.4,MacIntel,107.5268817,,,,,,,,,,,,,,,,,,,,,714.4119,714.6109,714.6109,715.1111,,,,,,,,,,,,,,0.9094,1,,,,,,,,,,,,,,m,,,,,,,,,,,,,,,127,0,715.1116,716.0267,m,1,0.9094,,[],[],[],[],[],[],[],716.0267,718.0269,718.027,718.0272,[],[],[],[],[],[],[],,718.0272,718.0273,0.120597718,-0.389976025,0,0,0,,0,126,126,117,1,1,word,MARINE,print,marine_p.png,,,,,
,,,,31637,001,2025-10-15_16h16.24.588,HW_LDT_1,2024.2.4,MacIntel,107.5268817,,,,,,,,,,,,,,,,,,,,,718.0283,718.227,718.227,718.7271,,,,,,,,,,,,,,0.9024,1,,,,,,,,,,,,,,z,,,,,,,,,,,,,,,128,0,718.7278,719.6357,z,1,0.9024,,[],[],[],[],[],[],[],719.6358,721.6349,721.635,721.6351,[],[],[],[],[],[],[],,721.6351,721.6351,0.120597718,-0.389976025,0,0,0,,0,127,127,18,1,1,RL,mishafe,print,mishafe_p.png,,,,,
,,,,31637,001,2025-10-15_16h16.24.588,HW_LDT_1,2024.2.4,MacIntel,107.5268817,,,,,,,,,,,,,,,,,,,,,721.6364,721.8359,721.836,722.336,,,,,,,,,,,,,,0.9446,1,,,,,,,,,,,,,,m,,,,,,,,,,,,,,,129,0,722.3366,723.2851,m,1,0.9446,,[],[],[],[],[],[],[],723.2852,725.2861,725.2861,725.2863,[],[],[],[],[],[],[],,725.2863,725.2864,0.120597718,-0.389976025,0,0,0,,0,128,128,106,1,1,word,ELABORATE,print,elaborate_p.png,,,,,
,,,,31637,001,2025-10-15_16h16.24.588,HW_LDT_1,2024.2.4,MacIntel,107.5268817,,,,,,,,,,,,,,,,,,,,,725.2873,725.4859,725.4861,725.9816,,,,,,,,,,,,,,2.3579,1,,,,,,,,,,,,,,m,,,,,,,,,,,,,,,130,1,725.9824,728.3442,m,1,2.3579,,[],[],[],[],[],[],[],728.3442,730.3381,730.3382,731.7161,[],[],[],[],[],[],[],z,731.7161,731.7162,0.120597718,-0.389976025,0,0,0,,0,129,129,155,1,1,word,STRATEGY,cursive,strategy_c.png,1.3757,,,,
,,,,31637,001,2025-10-15_16h16.24.588,HW_LDT_1,2024.2.4,MacIntel,107.5268817,,,,,,,,,,,,,,,,,,,,,731.717,731.911,731.911,732.4145,,,,,,,,,,,,,,0.8435,1,,,,,,,,,,,,,,m,,,,,,,,,,,,,,,131,0,732.4147,733.2644,m,1,0.8435,,[],[],[],[],[],[],[],733.2644,735.2613,735.2613,735.2614,[],[],[],[],[],[],[],,735.2615,735.2615,0.120597718,-0.389976025,0,0,0,,0,130,130,153,1,1,word,STOLEN,print,stolen_p.png,,,,,
,,,,31637,001,2025-10-15_16h16.24.588,HW_LDT_1,2024.2.4,MacIntel,107.5268817,,,,,,,,,,,,,,,,,,,,,735.2624,735.4555,735.4556,735.9556,,,,,,,,,,,,,,0.7663,1,,,,,,,,,,,,,,z,,,,,,,,,,,,,,,132,0,735.9561,736.7229,z,1,0.7663,,[],[],[],[],[],[],[],736.7229,738.7233,738.7234,738.7236,[],[],[],[],[],[],[],,738.7236,738.7238,0.120597718,-0.389976025,0,0,0,,0,131,131,37,1,1,RL,skofen,print,skofen_p.png,,,,,
,,,,31637,001,2025-10-15_16h16.24.588,HW_LDT_1,2024.2.4,MacIntel,107.5268817,,,,,,,,,,,,,,,,,,,,,738.7251,738.919,738.9191,739.4217,,,,,,,,,,,,,,0.7572,1,,,,,,,,,,,,,,z,,,,,,,,,,,,,,,133,0,739.4223,740.1848,z,1,0.7572,,[],[],[],[],[],[],[],740.1849,742.184,742.1841,742.1843,[],[],[],[],[],[],[],,742.1843,742.1844,0.120597718,-0.389976025,0,0,0,,0,132,132,5,1,1,RL,cobeny,cursive,cobeny_c.png,,,,,
,,,,31637,001,2025-10-15_16h16.24.588,HW_LDT_1,2024.2.4,MacIntel,107.5268817,,,,,,,,,,,,,,,,,,,,,742.1854,742.3845,742.3845,742.8809,,,,,,,,,,,,,,1.0278,0,,,,,,,,,,,,,,m,,,,,,,,,,,,,,,134,0,742.8815,743.9102,z,0,1.0278,,[],[],[],[],[],[],[],743.9102,745.9061,745.9061,745.9062,[],[],[],[],[],[],[],,745.9062,745.9063,0.120597718,-0.389976025,0,0,0,,0,133,133,149,1,1,word,SENATOR,cursive,senator_c.png,,,,,
,,,,31637,001,2025-10-15_16h16.24.588,HW_LDT_1,2024.2.4,MacIntel,107.5268817,,,,,,,,,,,,,,,,,,,,,745.9074,746.1016,746.1016,746.6017,,,,,,,,,,,,,,0.7909,1,,,,,,,,,,,,,,z,,,,,,,,,,,,,,,135,0,746.6024,747.3973,z,1,0.7909,,[],[],[],[],[],[],[],747.3973,749.3926,749.3927,749.3928,[],[],[],[],[],[],[],,749.3929,749.3929,0.120597718,-0.389976025,0,0,0,,0,134,134,42,1,1,TL,befenit,print,befenit_p.png,,,,,
,,,,31637,001,2025-10-15_16h16.24.588,HW_LDT_1,2024.2.4,MacIntel,107.5268817,,,,,,,,,,,,,,,,,,,,,749.3938,749.593,749.593,750.0934,,,,,,,,,,,,,,3.9146,1,,,,,,,,,,,,,,m,,,,,,,,,,,,,,,136,0,750.0938,754.0127,m,1,3.9146,,[],[],[],[],[],[],[],754.0128,756.0084,756.0084,756.0086,[],[],[],[],[],[],[],,756.0086,756.0086,0.120597718,-0.389976025,0,0,0,,0,135,135,135,1,1,word,QUALITY,cursive,quality_c.png,,,,,
,,,,31637,001,2025-10-15_16h16.24.588,HW_LDT_1,2024.2.4,MacIntel,107.5268817,,,,,,,,,,,,,,,,,,,,,756.0094,756.2056,756.2056,756.7057,,,,,,,,,,,,,,1.5298,1,,,,,,,,,,,,,,z,,,,,,,,,,,,,,,137,1,756.7061,758.2401,z,1,1.5298,,[],[],[],[],[],[],[],758.2402,760.2401,760.2402,761.7154,[],[],[],[],[],[],[],z,761.7155,761.7155,0.120597718,-0.389976025,0,0,0,,0,136,136,16,1,1,RL,marmipal,print,marmipal_p.png,1.4699,,,,
,,,,31637,001,2025-10-15_16h16.24.588,HW_LDT_1,2024.2.4,MacIntel,107.5268817,,,,,,,,,,,,,,,,,,,,,761.7162,761.9151,761.9152,762.4151,,,,,,,,,,,,,,1.0277,1,,,,,,,,,,,,,,m,,,,,,,,,,,,,,,138,0,762.4156,763.4487,m,1,1.0277,,[],[],[],[],[],[],[],763.4487,765.4486,765.4487,765.4489,[],[],[],[],[],[],[],,765.449,765.4491,0.120597718,-0.389976025,0,0,0,,0,137,137,85,1,1,word,BENEFIT,print,benefit_p.png,,,,,
,,,,31637,001,2025-10-15_16h16.24.588,HW_LDT_1,2024.2.4,MacIntel,107.5268817,,,,,,,,,,,,,,,,,,,,,765.4506,765.6442,765.6443,766.1506,,,,,,,,,,,,,,2.0286,1,,,,,,,,,,,,,,z,,,,,,,,,,,,,,,139,0,766.1511,768.1854,z,1,2.0286,,[],[],[],[],[],[],[],768.1855,770.1843,770.1844,770.1846,[],[],[],[],[],[],[],,770.1846,770.1847,0.120597718,-0.389976025,0,0,0,,0,138,138,71,1,1,TL,regilion,cursive,regilion_c.png,,,,,
,,,,31637,001,2025-10-15_16h16.24.588,HW_LDT_1,2024.2.4,MacIntel,107.5268817,,,,,,,,,,,,,,,,,,,,,770.1854,770.3861,770.3861,770.8852,,,,,,,,,,,,,,0.9182,1,,,,,,,,,,,,,,m,,,,,,,,,,,,,,,140,0,770.8859,771.8105,m,1,0.9182,,[],[],[],[],[],[],[],771.8107,773.8095,773.8096,773.8098,[],[],[],[],[],[],[],,773.8098,773.8099,0.120597718,-0.389976025,0,0,0,,0,139,139,96,1,1,word,CONSIDER,cursive,consider_c.png,,,,,
,,,,31637,001,2025-10-15_16h16.24.588,HW_LDT_1,2024.2.4,MacIntel,107.5268817,,,,,,,,,,,,,,,,,,,,,773.8112,774.0101,774.0101,774.5051,,,,,,,,,,,,,,1.5954,1,,,,,,,,,,,,,,m,,,,,,,,,,,,,,,141,0,774.5056,776.1059,m,1,1.5954,,[],[],[],[],[],[],[],776.106,778.1016,778.1016,778.1017,[],[],[],[],[],[],[],,778.1017,778.1017,0.120597718,-0.389976025,0,0,0,,0,140,140,116,1,1,word,MARGINAL,print,marginal_p.png,,,,,
,,,,31637,001,2025-10-15_16h16.24.588,HW_LDT_1,2024.2.4,MacIntel,107.5268817,,,,,,,,,,,,,,,,,,,,,778.1024,778.3015,778.3015,778.8038,,,,,,,,,,,,,,1.1099,1,,,,,,,,,,,,,,m,,,,,,,,,,,,,,,142,1,778.8044,779.9191,m,1,1.1099,,[],[],[],[],[],[],[],779.9192,781.9141,781.9142,782.6132,[],[],[],[],[],[],[],z,782.6132,782.6133,0.120597718,-0.389976025,0,0,0,,0,141,141,93,1,1,word,CEREMONY,cursive,ceremony_c.png,0.6937,,,,
,,,,31637,001,2025-10-15_16h16.24.588,HW_LDT_1,2024.2.4,MacIntel,107.5268817,,,,,,,,,,,,,,,,,,,,,782.6139,782.8101,782.8101,783.3104,,,,,,,,,,,,,,2.1591,1,,,,,,,,,,,,,,m,,,,,,,,,,,,,,,143,0,783.311,785.4744,m,1,2.1591,,[],[],[],[],[],[],[],785.4745,787.4724,787.4725,787.4727,[],[],[],[],[],[],[],,787.4728,787.4729,0.120597718,-0.389976025,0,0,0,,0,142,142,119,1,1,word,MEMORY,cursive,memory_c.png,,,,,
,,,,31637,001,2025-10-15_16h16.24.588,HW_LDT_1,2024.2.4,MacIntel,107.5268817,,,,,,,,,,,,,,,,,,,,,787.4742,787.6725,787.6726,788.1673,,,,,,,,,,,,,,1.4367,1,,,,,,,,,,,,,,m,,,,,,,,,,,,,,,144,0,788.1679,789.6102,m,1,1.4367,,[],[],[],[],[],[],[],789.6104,791.6104,791.6104,791.6107,[],[],[],[],[],[],[],,791.6107,791.6109,0.120597718,-0.389976025,0,0,0,,0,143,143,118,1,1,word,MEDICINE,cursive,medicine_c.png,,,,,
,,,,31637,001,2025-10-15_16h16.24.588,HW_LDT_1,2024.2.4,MacIntel,107.5268817,,,,,,,,,,,,,,,,,,,,,791.6121,791.81,791.8101,792.3101,,,,,,,,,,,,,,1.0141,1,,,,,,,,,,,,,,m,,,,,,,,,,,,,,,145,0,792.3105,793.3309,m,1,1.0141,,[],[],[],[],[],[],[],793.3309,795.3319,795.332,795.3321,[],[],[],[],[],[],[],,795.3322,795.3324,0.120597718,-0.389976025,0,0,0,,0,144,144,115,1,1,word,LOGICAL,cursive,logical_c.png,,,,,
,,,,31637,001,2025-10-15_16h16.24.588,HW_LDT_1,2024.2.4,MacIntel,107.5268817,,,,,,,,,,,,,,,,,,,,,795.3336,795.5278,795.5278,796.0273,,,,,,,,,,,,,,1.0782,1,,,,,,,,,,,,,,m,,,,,,,,,,,,,,,146,0,796.0277,797.1109,m,1,1.0782,,[],[],[],[],[],[],[],797.111,799.1101,799.1102,799.1104,[],[],[],[],[],[],[],,799.1104,799.1106,0.120597718,-0.389976025,0,0,0,,0,145,145,91,1,1,word,CARDINAL,print,cardinal_p.png,,,,,
,,,,31637,001,2025-10-15_16h16.24.588,HW_LDT_1,2024.2.4,MacIntel,107.5268817,,,,,,,,,,,,,,,,,,,,,799.1118,799.3111,799.3112,799.811,,,,,,,,,,,,,,0.9862,1,,,,,,,,,,,,,,z,,,,,,,,,,,,,,,147,0,799.8116,800.8027,z,1,0.9862,,[],[],[],[],[],[],[],800.8027,802.8028,802.8028,802.803,[],[],[],[],[],[],[],,802.803,802.8031,0.120597718,-0.389976025,0,0,0,,0,146,146,46,1,1,TL,catipal,print,catipal_p.png,,,,,
,,,,31637,001,2025-10-15_16h16.24.588,HW_LDT_1,2024.2.4,MacIntel,107.5268817,,,,,,,,,,,,,,,,,,,,,802.8039,803.0029,803.003,803.5027,,,,,,,,,,,,,,0.8536,1,,,,,,,,,,,,,,z,,,,,,,,,,,,,,,148,0,803.503,804.3612,z,1,0.8536,,[],[],[],[],[],[],[],804.3613,806.3609,806.361,806.3611,[],[],[],[],[],[],[],,806.3611,806.3612,0.120597718,-0.389976025,0,0,0,,0,147,147,72,1,1,TL,remuse,print,remuse_p.png,,,,,
,,,,31637,001,2025-10-15_16h16.24.588,HW_LDT_1,2024.2.4,MacIntel,107.5268817,,,,,,,,,,,,,,,,,,,,,806.3619,806.5611,806.5611,807.0613,,,,,,,,,,,,,,0.7733,1,,,,,,,,,,,,,,z,,,,,,,,,,,,,,,149,0,807.0619,807.836,z,1,0.7733,,[],[],[],[],[],[],[],807.836,809.8362,809.8362,809.8364,[],[],[],[],[],[],[],,809.8364,809.8365,0.120597718,-0.389976025,0,0,0,,0,148,148,21,1,1,RL,opcifal,print,opcifal_p.png,,,,,
,,,,31637,001,2025-10-15_16h16.24.588,HW_LDT_1,2024.2.4,MacIntel,107.5268817,,,,,,,,,,,,,,,,,,,,,809.8374,810.0362,810.0362,810.536,,,,,,,,,,,,,,1.8954,1,,,,,,,,,,,,,,m,,,,,,,,,,,,,,,150,0,810.5362,812.4364,m,1,1.8954,,[],[],[],[],[],[],[],812.4364,814.4362,814.4364,814.4365,[],[],[],[],[],[],[],,814.4365,814.4367,0.120597718,-0.389976025,0,0,0,,0,149,149,150,1,1,word,SENTIMENT,cursive,sentiment_c.png,,,,,
,,,,31637,001,2025-10-15_16h16.24.588,HW_LDT_1,2024.2.4,MacIntel,107.5268817,,,,,,,,,,,,,,,,,,,,,814.4379,814.6318,814.6318,815.1368,,,,,,,,,,,,,,0.8032,1,,,,,,,,,,,,,,z,,,,,,,,,,,,,,,151,0,815.1376,815.9462,z,1,0.8032,,[],[],[],[],[],[],[],815.9463,817.9478,817.9479,817.9481,[],[],[],[],[],[],[],,817.9482,817.9484,0.120597718,-0.389976025,0,0,0,,0,150,150,10,1,1,RL,efibor,cursive,efibor_c.png,,,,,
,,,,31637,001,2025-10-15_16h16.24.588,HW_LDT_1,2024.2.4,MacIntel,107.5268817,,,,,,,,,,,,,,,,,,,,,817.9499,818.1491,818.1492,818.6478,,,,,,,,,,,,,,1.0073,1,,,,,,,,,,,,,,m,,,,,,,,,,,,,,,152,0,818.6484,819.6564,m,1,1.0073,,[],[],[],[],[],[],[],819.6564,821.6562,821.6562,821.6563,[],[],[],[],[],[],[],,821.6564,821.6565,0.120597718,-0.389976025,0,0,0,,0,151,151,80,1,1,word,ACADEMY,cursive,academy_c.png,,,,,
,,,,31637,001,2025-10-15_16h16.24.588,HW_LDT_1,2024.2.4,MacIntel,107.5268817,,,,,,,,,,,,,,,,,,,,,821.6572,821.8525,821.8526,822.352,,,,,,,,,,,,,,1.7275,1,,,,,,,,,,,,,,z,,,,,,,,,,,,,,,153,0,822.3524,824.081,z,1,1.7275,,[],[],[],[],[],[],[],824.081,826.0807,826.0808,826.0809,[],[],[],[],[],[],[],,826.081,826.081,0.120597718,-0.389976025,0,0,0,,0,152,152,35,1,1,RL,senvilent,cursive,senvilent_c.png,,,,,
,,,,31637,001,2025-10-15_16h16.24.588,HW_LDT_1,2024.2.4,MacIntel,107.5268817,,,,,,,,,,,,,,,,,,,,,826.0823,826.2805,826.2806,826.7807,,,,,,,,,,,,,,0.7189,1,,,,,,,,,,,,,,m,,,,,,,,,,,,,,,154,0,826.7812,827.5031,m,1,0.7189,,[],[],[],[],[],[],[],827.5032,829.5015,829.5015,829.5018,[],[],[],[],[],[],[],,829.5018,829.5019,0.120597718,-0.389976025,0,0,0,,0,153,153,147,1,1,word,ROMANTIC,cursive,romantic_c.png,,,,,
,,,,31637,001,2025-10-15_16h16.24.588,HW_LDT_1,2024.2.4,MacIntel,107.5268817,,,,,,,,,,,,,,,,,,,,,829.5029,829.7017,829.7018,830.2018,,,,,,,,,,,,,,1.8535,1,,,,,,,,,,,,,,z,,,,,,,,,,,,,,,155,1,830.2023,832.0612,z,1,1.8535,,[],[],[],[],[],[],[],832.0613,834.0608,834.0609,834.9945,[],[],[],[],[],[],[],z,834.9946,834.9946,0.120597718,-0.389976025,0,0,0,,0,154,154,64,1,1,TL,orepator,cursive,orepator_c.png,0.9286,,,,
,,,,31637,001,2025-10-15_16h16.24.588,HW_LDT_1,2024.2.4,MacIntel,107.5268817,,,,,,,,,,,,,,,,,,,,,834.9951,835.1945,835.1946,835.6945,,,,,,,,,,,,,,1.2344,1,,,,,,,,,,,,,,z,,,,,,,,,,,,,,,156,1,835.6949,836.9362,z,1,1.2344,,[],[],[],[],[],[],[],836.9362,838.936,838.936,841.6778,[],[],[],[],[],[],[],z,841.6779,841.6781,0.120597718,-0.389976025,0,0,0,,0,155,155,40,1,1,TL,atameur,print,atameur_p.png,2.7369,,,,
,,,,31637,001,2025-10-15_16h16.24.588,HW_LDT_1,2024.2.4,MacIntel,107.5268817,,,,,,,,,,,,,,,,,,,,,841.6789,841.8777,841.8777,842.3777,,,,,,,,,,,,,,1.3455,0,,,,,,,,,,,,,,m,,,,,,,,,,,,,,,157,1,842.3781,843.7278,z,0,1.3455,,[],[],[],[],[],[],[],843.7279,845.7277,845.7278,847.2778,[],[],[],[],[],[],[],z,847.2778,847.2779,0.120597718,-0.389976025,0,0,0,,0,156,156,140,1,1,word,RELATIVE,cursive,relative_c.png,1.5457,,,,
,,,,31637,001,2025-10-15_16h16.24.588,HW_LDT_1,2024.2.4,MacIntel,107.5268817,,,,,,,,,,,,,,,,,,,,,847.2786,847.4778,847.4779,847.9777,,,,,,,,,,,,,,1.0028,1,,,,,,,,,,,,,,z,,,,,,,,,,,,,,,158,0,847.9781,848.9861,z,1,1.0028,,[],[],[],[],[],[],[],848.9862,850.9863,850.9864,850.9865,[],[],[],[],[],[],[],,850.9866,850.9866,0.120597718,-0.389976025,0,0,0,,0,157,157,68,1,1,TL,prosopal,cursive,prosopal_c.png,,,,,
,,,,31637,001,2025-10-15_16h16.24.588,HW_LDT_1,2024.2.4,MacIntel,107.5268817,,,,,,,,,,,,,,,,,,,,,850.9874,851.1819,851.1819,851.6817,,,,,,,,,,,,,,1.0608,1,,,,,,,,,,,,,,m,,,,,,,,,,,,,,,159,0,851.6821,852.7487,m,1,1.0608,,[],[],[],[],[],[],[],852.7488,854.7486,854.7486,854.7488,[],[],[],[],[],[],[],,854.7488,854.7489,0.120597718,-0.389976025,0,0,0,,0,158,158,144,1,1,word,RESIDENT,print,resident_p.png,,,,,
,,,,31637,001,2025-10-15_16h16.24.588,HW_LDT_1,2024.2.4,MacIntel,107.5268817,,,,,,,,,,,,,,,,,,,,,854.7497,854.9488,854.9489,855.4487,,,,,,,,,,,,,,1.5308,1,,,,,,,,,,,,,,m,,,,,,,,,,,,,,,160,0,855.4493,856.9821,m,1,1.5308,,[],[],[],[],[],[],[],856.9821,858.9818,858.9818,858.982,[],[],[],[],[],[],[],,858.982,858.9821,0.120597718,-0.389976025,0,0,0,,0,159,159,94,1,1,word,CLINICAL,cursive,clinical_c.png,,,,,
,,,,31637,001,2025-10-15_16h16.24.588,HW_LDT_1,2024.2.4,MacIntel,107.5268817,,,,,,,,,,,,,,,,,,,,,,,,,,,,,,,,,,,,,,,,,,,,,,,,,,,,,,,,,,,,,,,,,,,,,,,,,,,,,,,,,,,,,,,,,,,,,,,,,,,,,,,,,,,,,,,,,,,,858.9954,863.9815
