counterbalance_lists.group,counterbalance_lists.remaining,get_list.started,get_list.stopped,participant,session,date,expName,psychopyVersion,OS,frameRate,Instructions.started,Instructions.stopped,key_resp.keys,instr_done_touch.x,instr_done_touch.y,instr_done_touch.leftButton,instr_done_touch.midButton,instr_done_touch.rightButton,instr_done_touch.clicked_name,start_instr.thisRepN,start_instr.thisTrialN,start_instr.thisN,start_instr.thisIndex,start_instr.ran,pageN,phase,instruct_text,has_image,instruct_image,showProgress.started,showProgress.stopped,fix.started,fix.stopped,prac.started,prac.stopped,response.keys,response.corr,touch_resp.x,touch_resp.y,touch_resp.leftButton,touch_resp.midButton,touch_resp.rightButton,touch_resp.time,touch_resp.clicked_name,rt,corr,feedback.started,feedback.stopped,trials.thisRepN,trials.thisTrialN,trials.thisN,trials.thisIndex,trials.ran,TrialID,StimulusType,Condition,PrimeDuration,Prime,Target,corrAns,Instructions_expt.started,Instructions_expt.stopped,key_resp_3.keys,instr_done_touch_3.x,instr_done_touch_3.y,instr_done_touch_3.leftButton,instr_done_touch_3.midButton,instr_done_touch_3.rightButton,instr_done_touch_3.clicked_name,instr_experiment.thisRepN,instr_experiment.thisTrialN,instr_experiment.thisN,instr_experiment.thisIndex,instr_experiment.ran,trialID,flag,maintask.started,maintask.stopped,key_resp_2.keys,key_resp_2.corr,targ_click.x,targ_click.y,targ_click.leftButton,targ_click.midButton,targ_click.rightButton,targ_click.time,targ_click.clicked_name,ITI.started,ITI.stopped,probe.started,probe.stopped,click_probe.x,click_probe.y,click_probe.leftButton,click_probe.midButton,click_probe.rightButton,click_probe.time,click_probe.clicked_name,key_resp_probe.keys,Break.started,Break.stopped,break_done_touch.x,break_done_touch.y,break_done_touch.leftButton,break_done_touch.midButton,break_done_touch.rightButton,break_done_keyboard.keys,list1_trials.thisRepN,list1_trials.thisTrialN,list1_trials.thisN,list1_trials.thisIndex,list1_trials.ran,list_id,item_type,string,font,stim_file,break_done_touch.clicked_name,End.started,End.stopped
list1,,0.516,0.516,31651,001,2025-10-18_19h46.19.365,HW_LDT_1,2024.2.4,Win32,111.1111111,,,,,,,,,,,,,,,,,,,,,,,,,,,,,,,,,,,,,,,,,,,,,,,,,,,,,,,,,,,,,,,,,,,,,,,,,,,,,,,,,,,,,,,,,,,,,,,,,,,,,,,,,,,,,,
,,,,31651,001,2025-10-18_19h46.19.365,HW_LDT_1,2024.2.4,Win32,111.1111111,0.5355,2.1554,,-0.026041667,-0.372916667,1,0,0,instr_done_button,0,0,0,0,1,1,instructions,"INSTRUCTIONS
At the start of each trial, look at the plus sign  (+) in the center of the screen.  This tells you that a trial is about to begin and where to look. Second, the plus sign will disappear and a string of letters will appear. Your task is to determine if the string of letters is a word or not. If the item is a word press the M key (on keyboard)  or touch the word button (phone/tablet).  If the item is not a word,  press the  Z key (on keyboard)  or touch the nonword button (on phone/tablet). The items will be presented for a short time. 
Press the space bar or touch  continue.",0,,,,,,,,,,,,,,,,,,,,,,,,,,,,,,,,,,,,,,,,,,,,,,,,,,,,,,,,,,,,,,,,,,,,,,,,,,,,,,,,,,,,,,,,,,,,
,,,,31651,001,2025-10-18_19h46.19.365,HW_LDT_1,2024.2.4,Win32,111.1111111,2.157,3.1228,,-0.024479167,-0.355208333,1,0,0,instr_done_button,0,1,1,1,1,2,instructions,"If your device has a keyboard, press the 'Z' key for nonwords and the 'M' key for words.





Press the space bar or touch the button below to continue.",0,keyboard-example.gif,,,,,,,,,,,,,,,,,,,,,,,,,,,,,,,,,,,,,,,,,,,,,,,,,,,,,,,,,,,,,,,,,,,,,,,,,,,,,,,,,,,,,,,,,,,
,,,,31651,001,2025-10-18_19h46.19.365,HW_LDT_1,2024.2.4,Win32,111.1111111,3.1245,14.2993,,0.030208333,-0.400520833,1,0,0,instr_done_button,0,2,2,2,1,3,instructions,"If you are using a touchscreen only device, use the buttons on the screen. Do not use the mouse.





Press the space bar or touch the button below to continue.",0,touchscreen-example.gif,,,,,,,,,,,,,,,,,,,,,,,,,,,,,,,,,,,,,,,,,,,,,,,,,,,,,,,,,,,,,,,,,,,,,,,,,,,,,,,,,,,,,,,,,,,
,,,,31651,001,2025-10-18_19h46.19.365,HW_LDT_1,2024.2.4,Win32,111.1111111,14.3008,30.1069,,0.140625,-0.396354167,1,0,0,instr_done_button,0,3,3,3,1,4,instructions,"It is very important that you respond as quickly and accurately as possible, as each letter string will only be on the screen for two seconds. If you do not respond within this time, the message 'Too slow!' will be displayed and the experiment will progress to the next letter string. The first 20 trials will be practice trials and you will receive feedback on your answers. 

Press the space bar or touch the button below to start the practice trials.",0,,,,,,,,,,,,,,,,,,,,,,,,,,,,,,,,,,,,,,,,,,,,,,,,,,,,,,,,,,,,,,,,,,,,,,,,,,,,,,,,,,,,,,,,,,,,
,,,,31651,001,2025-10-18_19h46.19.365,HW_LDT_1,2024.2.4,Win32,111.1111111,,,,,,,,,,,,,,,,,,,,30.146,30.3053,30.3055,30.8061,30.8064,32.6675,,0,[-0.46041666666666664],[-0.3177083333333333],[1],[0],[0],[1.858300000071523],"[""button_left""]",1.8583,1,32.6679,33.1686,0,0,0,12,1,1013,NW,UN,33,adveil,SPRINY,z,,,,,,,,,,,,,,,,,,,,,,,,,,,,,,,,,,,,,,,,,,,,,,,,,,,,,,,,,,,,
,,,,31651,001,2025-10-18_19h46.19.365,HW_LDT_1,2024.2.4,Win32,111.1111111,,,,,,,,,,,,,,,,,,,,33.1698,33.3684,33.3685,33.8689,33.8705,35.1458,,0,[0.3796875],[-0.3125],[1],[0],[0],[1.2747000000476874],"[""button_right""]",1.2747,1,35.1458,35.6466,0,1,1,7,1,1008,WORD,UN,16,hurdle,VOLUME,m,,,,,,,,,,,,,,,,,,,,,,,,,,,,,,,,,,,,,,,,,,,,,,,,,,,,,,,,,,,,
,,,,31651,001,2025-10-18_19h46.19.365,HW_LDT_1,2024.2.4,Win32,111.1111111,,,,,,,,,,,,,,,,,,,,35.6476,35.847,35.847,36.348,36.3492,37.4411,,0,[-0.4244791666666667],[-0.3020833333333333],[1],[0],[0],[1.091200000047678],"[""button_left""]",1.0912,1,37.4412,37.942,0,2,2,13,1,1014,NW,UN,33,winfer,ROUPET,z,,,,,,,,,,,,,,,,,,,,,,,,,,,,,,,,,,,,,,,,,,,,,,,,,,,,,,,,,,,,
,,,,31651,001,2025-10-18_19h46.19.365,HW_LDT_1,2024.2.4,Win32,111.1111111,,,,,,,,,,,,,,,,,,,,37.9433,38.1422,38.1422,38.6428,38.6439,39.5192,,0,[0.37916666666666665],[-0.3125],[1],[0],[0],[0.8743999999761627],"[""button_right""]",0.8744,1,39.5194,40.0202,0,3,3,3,1,1004,WORD,"ID",16,matrix,MATRIX,m,,,,,,,,,,,,,,,,,,,,,,,,,,,,,,,,,,,,,,,,,,,,,,,,,,,,,,,,,,,,
,,,,31651,001,2025-10-18_19h46.19.365,HW_LDT_1,2024.2.4,Win32,111.1111111,,,,,,,,,,,,,,,,,,,,40.0218,40.2203,40.2203,40.7215,40.7227,41.6555,,0,[0.3859375],[-0.31145833333333334],[1],[0],[0],[0.9322999999523205],"[""button_right""]",0.9323,1,41.6556,42.1567,0,4,4,4,1,1005,WORD,UN,33,abound,SQUEAK,m,,,,,,,,,,,,,,,,,,,,,,,,,,,,,,,,,,,,,,,,,,,,,,,,,,,,,,,,,,,,
,,,,31651,001,2025-10-18_19h46.19.365,HW_LDT_1,2024.2.4,Win32,111.1111111,,,,,,,,,,,,,,,,,,,,42.1575,42.3566,42.3567,42.8574,42.858,43.6087,,0,[0.3875],[-0.3067708333333333],[1],[0],[0],[0.75],"[""button_right""]",0.75,1,43.6088,44.1094,0,5,5,0,1,1001,WORD,"ID",33,utopia,UTOPIA,m,,,,,,,,,,,,,,,,,,,,,,,,,,,,,,,,,,,,,,,,,,,,,,,,,,,,,,,,,,,,
,,,,31651,001,2025-10-18_19h46.19.365,HW_LDT_1,2024.2.4,Win32,111.1111111,,,,,,,,,,,,,,,,,,,,44.1107,44.3097,44.3097,44.8104,44.8115,45.4781,,0,[0.4010416666666667],[-0.31354166666666666],[1],[0],[0],[0.6657999999523128],"[""button_right""]",0.6658,1,45.4782,45.9795,0,6,6,6,1,1007,WORD,UN,16,tropic,ZOMBIE,m,,,,,,,,,,,,,,,,,,,,,,,,,,,,,,,,,,,,,,,,,,,,,,,,,,,,,,,,,,,,
,,,,31651,001,2025-10-18_19h46.19.365,HW_LDT_1,2024.2.4,Win32,111.1111111,,,,,,,,,,,,,,,,,,,,45.9806,46.1798,46.1799,46.6801,46.681,47.573,,0,[-0.4140625],[-0.30104166666666665],[1],[0],[0],[0.8913999999761586],"[""button_left""]",0.8914,1,47.5731,48.0741,0,7,7,11,1,1012,NW,"ID",16,rashet,RASHET,z,,,,,,,,,,,,,,,,,,,,,,,,,,,,,,,,,,,,,,,,,,,,,,,,,,,,,,,,,,,,
,,,,31651,001,2025-10-18_19h46.19.365,HW_LDT_1,2024.2.4,Win32,111.1111111,,,,,,,,,,,,,,,,,,,,48.0756,48.2739,48.2739,48.7748,48.7757,49.4841,,0,[0.37864583333333335],[-0.3078125],[1],[0],[0],[0.707800000071515],"[""button_right""]",0.7078,1,49.4842,49.9854,0,8,8,1,1,1002,WORD,"ID",33,adjust,ADJUST,m,,,,,,,,,,,,,,,,,,,,,,,,,,,,,,,,,,,,,,,,,,,,,,,,,,,,,,,,,,,,
,,,,31651,001,2025-10-18_19h46.19.365,HW_LDT_1,2024.2.4,Win32,111.1111111,,,,,,,,,,,,,,,,,,,,49.9863,50.1855,50.1856,50.686,50.6866,52.0077,,0,[-0.40677083333333336],[-0.30885416666666665],[1],[0],[0],[1.3202000000476914],"[""button_left""]",1.3202,1,52.0077,52.5083,0,9,9,8,1,1009,NW,"ID",33,aslert,ASLERT,z,,,,,,,,,,,,,,,,,,,,,,,,,,,,,,,,,,,,,,,,,,,,,,,,,,,,,,,,,,,,
,,,,31651,001,2025-10-18_19h46.19.365,HW_LDT_1,2024.2.4,Win32,111.1111111,,,,,,,,,,,,,,,,,,,,52.5095,52.706,52.7061,53.2066,53.2075,54.1663,,0,[-0.40677083333333336],[-0.31666666666666665],[1],[0],[0],[0.9580000000000126],"[""button_left""]",0.958,1,54.1664,54.6673,0,10,10,10,1,1011,NW,"ID",16,inlade,INLADE,z,,,,,,,,,,,,,,,,,,,,,,,,,,,,,,,,,,,,,,,,,,,,,,,,,,,,,,,,,,,,
,,,,31651,001,2025-10-18_19h46.19.365,HW_LDT_1,2024.2.4,Win32,111.1111111,,,,,,,,,,,,,,,,,,,,54.6685,54.8677,54.8677,55.3684,55.3693,56.3866,,0,[-0.40520833333333334],[-0.31197916666666664],[1],[0],[0],[1.0165000000000077],"[""button_left""]",1.0165,1,56.3867,56.8876,0,11,11,14,1,1015,NW,UN,16,miaber,THRALE,z,,,,,,,,,,,,,,,,,,,,,,,,,,,,,,,,,,,,,,,,,,,,,,,,,,,,,,,,,,,,
,,,,31651,001,2025-10-18_19h46.19.365,HW_LDT_1,2024.2.4,Win32,111.1111111,,,,,,,,,,,,,,,,,,,,56.8886,57.0875,57.0876,57.588,57.5887,58.3895,,0,[0.38697916666666665],[-0.32083333333333336],[1],[0],[0],[0.8000999999046314],"[""button_right""]",0.8001,1,58.3896,58.8901,0,12,12,2,1,1003,WORD,"ID",16,almond,ALMOND,m,,,,,,,,,,,,,,,,,,,,,,,,,,,,,,,,,,,,,,,,,,,,,,,,,,,,,,,,,,,,
,,,,31651,001,2025-10-18_19h46.19.365,HW_LDT_1,2024.2.4,Win32,111.1111111,,,,,,,,,,,,,,,,,,,,58.8912,59.0904,59.0904,59.5911,59.5919,60.5092,,0,[-0.4005208333333333],[-0.2890625],[1],[0],[0],[0.9166000000238483],"[""button_left""]",0.9166,1,60.5093,61.0103,0,13,13,9,1,1010,NW,"ID",33,fariny,FARINY,z,,,,,,,,,,,,,,,,,,,,,,,,,,,,,,,,,,,,,,,,,,,,,,,,,,,,,,,,,,,,
,,,,31651,001,2025-10-18_19h46.19.365,HW_LDT_1,2024.2.4,Win32,111.1111111,,,,,,,,,,,,,,,,,,,,61.0112,61.2107,61.2107,61.7111,61.7118,62.6375,,0,[-0.415625],[-0.2916666666666667],[1],[0],[0],[0.924899999976148],"[""button_left""]",0.9249,1,62.6377,63.1385,0,14,14,15,1,1016,NW,UN,16,mushed,WHAISE,z,,,,,,,,,,,,,,,,,,,,,,,,,,,,,,,,,,,,,,,,,,,,,,,,,,,,,,,,,,,,
,,,,31651,001,2025-10-18_19h46.19.365,HW_LDT_1,2024.2.4,Win32,111.1111111,,,,,,,,,,,,,,,,,,,,63.1396,63.3386,63.3386,63.8398,63.8408,64.6656,,0,[0.38125],[-0.30625],[1],[0],[0],[0.8236000000238448],"[""button_right""]",0.8236,1,64.6657,65.1668,0,15,15,5,1,1006,WORD,UN,33,frenzy,OBTAIN,m,,,,,,,,,,,,,,,,,,,,,,,,,,,,,,,,,,,,,,,,,,,,,,,,,,,,,,,,,,,,
,,,,31651,001,2025-10-18_19h46.19.365,HW_LDT_1,2024.2.4,Win32,111.1111111,,,,,,,,,,,,,,,1,end_of_practice,"You have completed the practice trials. During the experimental trials, you will not receive feedback. On some trials you will be asked to report whether the item you just saw was in cursive or print. 
Before you begin, please ensure that you are in a comfortable and quiet location and will not be disturbed for about 15 minutes, as we cannot use your data if you do not complete all the trials. 
 When you are ready to start the experimental trials, please press space or touch the button below.",,,,,,,,,,,,,,,,,,,,,,,,,,,,,,,,,,65.1725,86.3903,,-0.059895833,-0.395833333,1,0,0,instr_done_button_3,0,0,0,0,1,,,,,,,,,,,,,,,,,,,,,,,,,,,,,,,,,,,,,,,,,,,,,,
,,,,31651,001,2025-10-18_19h46.19.365,HW_LDT_1,2024.2.4,Win32,111.1111111,,,,,,,,,,,,,,,,,,,,86.3976,86.5909,86.5909,87.0918,,,,,,,,,,,,0.9894,1,,,,,,,,,,,,,,m,,,,,,,,,,,,,,,1,0,87.0931,88.085,,0,[0.39375],[-0.31197916666666664],[1],[0],[0],[0.9894000000953724],"[""button_right_main""]",88.0852,90.0876,90.0878,90.0903,[],[],[],[],[],[],[],,90.0903,90.0927,0.39375,-0.311979167,0,0,0,,0,0,0,107,1,1,word,EVIDENT,print,evident_p.png,,,
,,,,31651,001,2025-10-18_19h46.19.365,HW_LDT_1,2024.2.4,Win32,111.1111111,,,,,,,,,,,,,,,,,,,,90.0933,90.2879,90.288,90.789,,,,,,,,,,,,0.8329,1,,,,,,,,,,,,,,m,,,,,,,,,,,,,,,2,1,90.7895,91.6231,,0,[0.38958333333333334],[-0.2984375],[1],[0],[0],[0.8328999999761777],"[""button_right_main""]",91.6232,93.6176,93.6177,95.1951,[0.39791666666666664],[-0.3078125],[1],[0],[0],[1.577100000023819],"[""button_right_probe""]",,95.1952,95.1954,0.397916667,-0.3078125,1,0,0,,0,1,1,97,1,1,word,COVERAGE,print,coverage_p.png,,,
,,,,31651,001,2025-10-18_19h46.19.365,HW_LDT_1,2024.2.4,Win32,111.1111111,,,,,,,,,,,,,,,,,,,,95.196,95.3953,95.3954,95.8961,,,,,,,,,,,,1.1591,1,,,,,,,,,,,,,,m,,,,,,,,,,,,,,,3,0,95.8967,97.0563,,0,[0.3880208333333333],[-0.3104166666666667],[1],[0],[0],[1.159100000023841],"[""button_right_main""]",97.0564,99.051,99.051,99.0513,[],[],[],[],[],[],[],,99.0514,99.0516,0.388020833,-0.310416667,0,0,0,,0,2,2,115,1,1,word,LOGICAL,cursive,logical_c.png,,,
,,,,31651,001,2025-10-18_19h46.19.365,HW_LDT_1,2024.2.4,Win32,111.1111111,,,,,,,,,,,,,,,,,,,,99.0525,99.251,99.2511,99.7526,,,,,,,,,,,,1.1837,1,,,,,,,,,,,,,,z,,,,,,,,,,,,,,,4,0,99.7532,100.9371,,0,[-0.3723958333333333],[-0.3109375],[1],[0],[0],[1.1837000000477076],"[""button_left_main""]",100.9372,102.9317,102.9318,102.932,[],[],[],[],[],[],[],,102.9321,102.9322,-0.371354167,-0.311979167,0,0,0,,0,3,3,69,1,1,TL,radiply,cursive,radiply_c.png,,,
,,,,31651,001,2025-10-18_19h46.19.365,HW_LDT_1,2024.2.4,Win32,111.1111111,,,,,,,,,,,,,,,,,,,,102.9334,103.1325,103.1326,103.6328,,,,,,,,,,,,0.8835,1,,,,,,,,,,,,,,z,,,,,,,,,,,,,,,5,0,103.6332,104.5176,,0,[-0.3640625],[-0.30052083333333335],[1],[0],[0],[0.883499999999998],"[""button_left_main""]",104.5177,106.5124,106.5124,106.5126,[],[],[],[],[],[],[],,106.5127,106.5128,-0.365104167,-0.300520833,0,0,0,,0,4,4,7,1,1,RL,delahe,print,delahe_p.png,,,
,,,,31651,001,2025-10-18_19h46.19.365,HW_LDT_1,2024.2.4,Win32,111.1111111,,,,,,,,,,,,,,,,,,,,106.5139,106.7126,106.7127,107.2138,,,,,,,,,,,,0.8498,0,,,,,,,,,,,,,,m,,,,,,,,,,,,,,,6,0,107.2142,108.0645,,0,[-0.37552083333333336],[-0.29322916666666665],[1],[0],[0],[0.8497999999523245],"[""button_left_main""]",108.0647,110.0593,110.0593,110.0596,[],[],[],[],[],[],[],,110.0596,110.0598,-0.3734375,-0.293229167,0,0,0,,0,5,5,88,1,1,word,CAMERA,cursive,camera_c.png,,,
,,,,31651,001,2025-10-18_19h46.19.365,HW_LDT_1,2024.2.4,Win32,111.1111111,,,,,,,,,,,,,,,,,,,,110.0606,110.2601,110.2601,110.7606,,,,,,,,,,,,0.9619,1,,,,,,,,,,,,,,z,,,,,,,,,,,,,,,7,0,110.7609,111.7233,,0,[-0.3723958333333333],[-0.3015625],[1],[0],[0],[0.961900000095369],"[""button_left_main""]",111.7234,113.7231,113.7231,113.7233,[],[],[],[],[],[],[],,113.7234,113.7235,-0.372395833,-0.3015625,0,0,0,,0,6,6,78,1,1,TL,vecolity,print,vecolity_p.png,,,
,,,,31651,001,2025-10-18_19h46.19.365,HW_LDT_1,2024.2.4,Win32,111.1111111,,,,,,,,,,,,,,,,,,,,113.7242,113.9236,113.9236,114.4241,,,,,,,,,,,,0.9757,1,,,,,,,,,,,,,,z,,,,,,,,,,,,,,,8,1,114.4245,115.4006,,0,[-0.37604166666666666],[-0.296875],[1],[0],[0],[0.9757000000476808],"[""button_left_main""]",115.4007,117.3953,117.3954,118.4553,[0.43333333333333335],[-0.3026041666666667],[1],[0],[0],[1.0596999999284833],"[""button_right_probe""]",,118.4553,118.4554,0.433333333,-0.302604167,1,0,0,,0,7,7,44,1,1,TL,cateferia,cursive,cateferia_c.png,,,
,,,,31651,001,2025-10-18_19h46.19.365,HW_LDT_1,2024.2.4,Win32,111.1111111,,,,,,,,,,,,,,,,,,,,118.4562,118.6556,118.6556,119.1564,,,,,,,,,,,,1.4679,1,,,,,,,,,,,,,,z,,,,,,,,,,,,,,,9,0,119.1566,120.6252,,0,[-0.3567708333333333],[-0.31302083333333336],[1],[0],[0],[1.4679000000953693],"[""button_left_main""]",120.6253,122.62,122.6201,122.6202,[],[],[],[],[],[],[],,122.6203,122.6203,-0.35625,-0.313541667,0,0,0,,0,8,8,10,1,1,RL,efibor,cursive,efibor_c.png,,,
,,,,31651,001,2025-10-18_19h46.19.365,HW_LDT_1,2024.2.4,Win32,111.1111111,,,,,,,,,,,,,,,,,,,,122.6211,122.8205,122.8206,123.321,,,,,,,,,,,,1.4348,1,,,,,,,,,,,,,,m,,,,,,,,,,,,,,,10,0,123.3217,124.7571,,0,[0.3932291666666667],[-0.3],[1],[0],[0],[1.434800000071533],"[""button_right_main""]",124.7571,126.7516,126.7516,126.7519,[],[],[],[],[],[],[],,126.7519,126.7521,0.393229167,-0.3,0,0,0,,0,9,9,129,1,1,word,PARENT,cursive,parent_c.png,,,
,,,,31651,001,2025-10-18_19h46.19.365,HW_LDT_1,2024.2.4,Win32,111.1111111,,,,,,,,,,,,,,,,,,,,126.7529,126.952,126.952,127.4525,,,,,,,,,,,,1.1008,1,,,,,,,,,,,,,,z,,,,,,,,,,,,,,,11,0,127.4528,128.554,,0,[-0.3229166666666667],[-0.29739583333333336],[1],[0],[0],[1.1007999999523008],"[""button_left_main""]",128.554,130.5486,130.5487,130.549,[],[],[],[],[],[],[],,130.549,130.5491,-0.322916667,-0.297395833,0,0,0,,0,10,10,12,1,1,RL,ebiwent,print,ebiwent_p.png,,,
,,,,31651,001,2025-10-18_19h46.19.365,HW_LDT_1,2024.2.4,Win32,111.1111111,,,,,,,,,,,,,,,,,,,,130.5498,130.7491,130.7491,131.2499,,,,,,,,,,,,1.2672,1,,,,,,,,,,,,,,m,,,,,,,,,,,,,,,12,0,131.2504,132.5181,,0,[0.3802083333333333],[-0.31145833333333334],[1],[0],[0],[1.2672000000476942],"[""button_right_main""]",132.5183,134.5129,134.513,134.5131,[],[],[],[],[],[],[],,134.5131,134.5133,0.380208333,-0.311458333,0,0,0,,0,11,11,121,1,1,word,MISTAKE,print,mistake_p.png,,,
,,,,31651,001,2025-10-18_19h46.19.365,HW_LDT_1,2024.2.4,Win32,111.1111111,,,,,,,,,,,,,,,,,,,,134.5141,134.7132,134.7132,135.214,,,,,,,,,,,,1.1006,0,,,,,,,,,,,,,,m,,,,,,,,,,,,,,,13,0,135.2145,136.3157,,0,[-0.32447916666666665],[-0.3078125],[1],[0],[0],[1.10060000002386],"[""button_left_main""]",136.3157,138.3108,138.3108,138.3109,[],[],[],[],[],[],[],,138.3109,138.3111,-0.323958333,-0.308854167,0,0,0,,0,12,12,149,1,1,word,SENATOR,cursive,senator_c.png,,,
,,,,31651,001,2025-10-18_19h46.19.365,HW_LDT_1,2024.2.4,Win32,111.1111111,,,,,,,,,,,,,,,,,,,,138.312,138.5107,138.5108,139.0117,,,,,,,,,,,,1.3009,1,,,,,,,,,,,,,,z,,,,,,,,,,,,,,,14,0,139.0121,140.3134,,0,[-0.325],[-0.296875],[1],[0],[0],[1.300899999976167],"[""button_left_main""]",140.3135,142.3081,142.3082,142.3084,[],[],[],[],[],[],[],,142.3085,142.3087,-0.324479167,-0.303125,0,0,0,,0,13,13,74,1,1,TL,setanor,cursive,setanor_c.png,,,
,,,,31651,001,2025-10-18_19h46.19.365,HW_LDT_1,2024.2.4,Win32,111.1111111,,,,,,,,,,,,,,,,,,,,142.3097,142.5087,142.5087,143.0092,,,,,,,,,,,,1.3851,1,,,,,,,,,,,,,,z,,,,,,,,,,,,,,,15,0,143.0096,144.3951,,0,[-0.32395833333333335],[-0.309375],[1],[0],[0],[1.38510000002384],"[""button_left_main""]",144.3953,146.3897,146.3898,146.39,[],[],[],[],[],[],[],,146.3901,146.3902,-0.323958333,-0.309375,0,0,0,,0,14,14,71,1,1,TL,regilion,cursive,regilion_c.png,,,
,,,,31651,001,2025-10-18_19h46.19.365,HW_LDT_1,2024.2.4,Win32,111.1111111,,,,,,,,,,,,,,,,,,,,146.3909,146.5903,146.5903,147.0907,,,,,,,,,,,,1.8689,1,,,,,,,,,,,,,,z,,,,,,,,,,,,,,,16,1,147.091,148.9602,,0,[-0.3234375],[-0.296875],[1],[0],[0],[1.8689000000953513],"[""button_left_main""]",148.9603,150.9549,150.955,152.3232,[-0.34427083333333336],[-0.275],[1],[0],[0],[1.367999999999995],"[""button_left_probe""]",,152.3232,152.3233,-0.344270833,-0.275,1,0,0,,0,15,15,50,1,1,TL,condiser,cursive,condiser_c.png,,,
,,,,31651,001,2025-10-18_19h46.19.365,HW_LDT_1,2024.2.4,Win32,111.1111111,,,,,,,,,,,,,,,,,,,,152.324,152.5236,152.5236,153.0243,,,,,,,,,,,,1.6957,1,,,,,,,,,,,,,,z,,,,,,,,,,,,,,,17,0,153.0247,154.721,,0,[-0.3182291666666667],[-0.3104166666666667],[1],[0],[0],[1.6956999999284506],"[""button_left_main""]",154.721,156.7232,156.7232,156.7234,[],[],[],[],[],[],[],,156.7235,156.7236,-0.318229167,-0.310416667,0,0,0,,0,16,16,5,1,1,RL,cobeny,cursive,cobeny_c.png,,,
,,,,31651,001,2025-10-18_19h46.19.365,HW_LDT_1,2024.2.4,Win32,111.1111111,,,,,,,,,,,,,,,,,,,,156.7243,156.9222,156.9223,157.423,,,,,,,,,,,,1.3338,1,,,,,,,,,,,,,,z,,,,,,,,,,,,,,,18,0,157.4235,158.758,,0,[-0.31927083333333334],[-0.296875],[1],[0],[0],[1.333799999952305],"[""button_left_main""]",158.758,160.7532,160.7533,160.7536,[],[],[],[],[],[],[],,160.7536,160.7537,-0.319270833,-0.297916667,0,0,0,,0,17,17,9,1,1,RL,docirant,cursive,docirant_c.png,,,
,,,,31651,001,2025-10-18_19h46.19.365,HW_LDT_1,2024.2.4,Win32,111.1111111,,,,,,,,,,,,,,,,,,,,160.7545,160.9533,160.9534,161.4542,,,,,,,,,,,,1.4926,1,,,,,,,,,,,,,,m,,,,,,,,,,,,,,,19,0,161.4547,162.9476,,0,[0.3859375],[-0.3109375],[1],[0],[0],[1.492600000023856],"[""button_right_main""]",162.9477,164.9425,164.9427,164.9429,[],[],[],[],[],[],[],,164.943,164.9432,0.3859375,-0.3109375,0,0,0,,0,18,18,156,1,1,word,TRIBUTE,cursive,tribute_c.png,,,
,,,,31651,001,2025-10-18_19h46.19.365,HW_LDT_1,2024.2.4,Win32,111.1111111,,,,,,,,,,,,,,,,,,,,164.9443,165.1429,165.1429,165.6435,,,,,,,,,,,,1.5179,1,,,,,,,,,,,,,,z,,,,,,,,,,,,,,,20,0,165.6439,167.1623,,0,[-0.3328125],[-0.27291666666666664],[1],[0],[0],[1.5179000000953522],"[""button_left_main""]",167.1623,169.1574,169.1575,169.1577,[],[],[],[],[],[],[],,169.1577,169.1577,-0.33125,-0.278125,0,0,0,,0,19,19,28,1,1,RL,renutal,print,renutal_p.png,,,
,,,,31651,001,2025-10-18_19h46.19.365,HW_LDT_1,2024.2.4,Win32,111.1111111,,,,,,,,,,,,,,,,,,,,169.1586,169.3573,169.3573,169.858,,,,,,,,,,,,1.4013,0,,,,,,,,,,,,,,m,,,,,,,,,,,,,,,21,0,169.8585,171.2601,,0,[-0.30364583333333334],[-0.315625],[1],[0],[0],[1.4013000000715294],"[""button_left_main""]",171.2601,173.2549,173.255,173.255,[],[],[],[],[],[],[],,173.2551,173.2552,-0.303645833,-0.315625,0,0,0,,0,20,20,125,1,1,word,OPERATOR,cursive,operator_c.png,,,
,,,,31651,001,2025-10-18_19h46.19.365,HW_LDT_1,2024.2.4,Win32,111.1111111,,,,,,,,,,,,,,,,,,,,173.2561,173.4554,173.4554,173.956,,,,,,,,,,,,1.3594,1,,,,,,,,,,,,,,z,,,,,,,,,,,,,,,22,0,173.9566,175.3163,,0,[-0.31666666666666665],[-0.2765625],[1],[0],[0],[1.359399999976148],"[""button_left_main""]",175.3164,177.3112,177.3113,177.3115,[],[],[],[],[],[],[],,177.3115,177.3116,-0.31875,-0.280208333,0,0,0,,0,21,21,16,1,1,RL,marmipal,print,marmipal_p.png,,,
,,,,31651,001,2025-10-18_19h46.19.365,HW_LDT_1,2024.2.4,Win32,111.1111111,,,,,,,,,,,,,,,,,,,,177.3127,177.512,177.5121,178.0126,,,,,,,,,,,,1.3254,1,,,,,,,,,,,,,,z,,,,,,,,,,,,,,,23,0,178.0132,179.339,,0,[-0.3125],[-0.30520833333333336],[1],[0],[0],[1.3253999999761845],"[""button_left_main""]",179.3391,181.3342,181.3342,181.3344,[],[],[],[],[],[],[],,181.3345,181.3346,-0.3109375,-0.309375,0,0,0,,0,22,22,49,1,1,TL,clicinal,cursive,clicinal_c.png,,,
,,,,31651,001,2025-10-18_19h46.19.365,HW_LDT_1,2024.2.4,Win32,111.1111111,,,,,,,,,,,,,,,,,,,,181.3358,181.5346,181.5346,182.0353,,,,,,,,,,,,0.7832,1,,,,,,,,,,,,,,m,,,,,,,,,,,,,,,24,0,182.0358,182.8193,,0,[0.39479166666666665],[-0.2890625],[1],[0],[0],[0.7831999999284847],"[""button_right_main""]",182.8193,184.814,184.8141,184.8142,[],[],[],[],[],[],[],,184.8142,184.8143,0.394791667,-0.2890625,0,0,0,,0,23,23,126,1,1,word,OPTIMAL,print,optimal_p.png,,,
,,,,31651,001,2025-10-18_19h46.19.365,HW_LDT_1,2024.2.4,Win32,111.1111111,,,,,,,,,,,,,,,,,,,,184.8152,185.0144,185.0145,185.5157,,,,,,,,,,,,0.7915,1,,,,,,,,,,,,,,m,,,,,,,,,,,,,,,25,0,185.5162,186.308,,0,[0.3854166666666667],[-0.3098958333333333],[1],[0],[0],[0.7915000000000134],"[""button_right_main""]",186.308,188.3031,188.3032,188.3034,[],[],[],[],[],[],[],,188.3034,188.3036,0.385416667,-0.309895833,0,0,0,,0,24,24,108,1,1,word,FORTUNE,print,fortune_p.png,,,
,,,,31651,001,2025-10-18_19h46.19.365,HW_LDT_1,2024.2.4,Win32,111.1111111,,,,,,,,,,,,,,,,,,,,188.3045,188.5032,188.5033,189.0039,,,,,,,,,,,,1.2341,1,,,,,,,,,,,,,,m,,,,,,,,,,,,,,,26,0,189.0044,190.239,,0,[0.3770833333333333],[-0.3125],[1],[0],[0],[1.2341000000238296],"[""button_right_main""]",190.2391,192.2341,192.2342,192.2343,[],[],[],[],[],[],[],,192.2343,192.2344,0.377083333,-0.3125,0,0,0,,0,25,25,157,1,1,word,VALIDITY,cursive,validity_c.png,,,
,,,,31651,001,2025-10-18_19h46.19.365,HW_LDT_1,2024.2.4,Win32,111.1111111,,,,,,,,,,,,,,,,,,,,192.2353,192.4339,192.434,192.9351,,,,,,,,,,,,1.5933,1,,,,,,,,,,,,,,z,,,,,,,,,,,,,,,27,1,192.9356,194.5294,,0,[-0.3255208333333333],[-0.31354166666666666],[1],[0],[0],[1.5932999999523076],"[""button_left_main""]",194.5295,196.5239,196.524,198.0258,[-0.3182291666666667],[-0.31354166666666666],[1],[0],[0],[1.501499999999993],"[""button_left_probe""]",,198.0259,198.0259,-0.318229167,-0.313541667,1,0,0,,0,26,26,1,1,1,RL,adnicory,cursive,adnicory_c.png,,,
,,,,31651,001,2025-10-18_19h46.19.365,HW_LDT_1,2024.2.4,Win32,111.1111111,,,,,,,,,,,,,,,,,,,,198.0267,198.2262,198.2262,198.727,,,,,,,,,,,,0.9586,1,,,,,,,,,,,,,,m,,,,,,,,,,,,,,,28,1,198.7274,199.6865,,0,[0.37135416666666665],[-0.3260416666666667],[1],[0],[0],[0.9586000000238641],"[""button_right_main""]",199.6866,201.6812,201.6813,203.0501,[0.3729166666666667],[-0.32916666666666666],[1],[0],[0],[1.3687000000476814],"[""button_right_probe""]",,203.0501,203.0502,0.372916667,-0.329166667,1,0,0,,0,27,27,139,1,1,word,REGULAR,print,regular_p.png,,,
,,,,31651,001,2025-10-18_19h46.19.365,HW_LDT_1,2024.2.4,Win32,111.1111111,,,,,,,,,,,,,,,,,,,,203.051,203.2505,203.2505,203.7515,,,,,,,,,,,,1.5512,1,,,,,,,,,,,,,,z,,,,,,,,,,,,,,,29,1,203.7519,205.3035,,0,[-0.4322916666666667],[-0.3458333333333333],[1],[0],[0],[1.551200000047686],"[""button_left_main""]",205.3036,207.2979,207.298,208.4749,[-0.3567708333333333],[-0.3125],[1],[0],[0],[1.1766999999284735],"[""button_left_probe""]",,208.4749,208.475,-0.356770833,-0.3125,1,0,0,,0,28,28,31,1,1,RL,reconal,cursive,reconal_c.png,,,
,,,,31651,001,2025-10-18_19h46.19.365,HW_LDT_1,2024.2.4,Win32,111.1111111,,,,,,,,,,,,,,,,,,,,208.4758,208.6758,208.6758,209.1764,,,,,,,,,,,,1.4676,1,,,,,,,,,,,,,,z,,,,,,,,,,,,,,,30,0,209.1768,210.6447,,0,[-0.32083333333333336],[-0.3177083333333333],[1],[0],[0],[1.4676000000238218],"[""button_left_main""]",210.6448,212.6396,212.6396,212.6399,[],[],[],[],[],[],[],,212.6399,212.64,-0.320833333,-0.3234375,0,0,0,,0,29,29,39,1,1,RL,vabifity,cursive,vabifity_c.png,,,
,,,,31651,001,2025-10-18_19h46.19.365,HW_LDT_1,2024.2.4,Win32,111.1111111,,,,,,,,,,,,,,,,,,,,212.6411,212.8399,212.84,213.3407,,,,,,,,,,,,0.9173,1,,,,,,,,,,,,,,m,,,,,,,,,,,,,,,31,0,213.341,214.2587,,0,[0.40572916666666664],[-0.3223958333333333],[1],[0],[0],[0.9173000000715206],"[""button_right_main""]",214.2588,216.2532,216.2533,216.2533,[],[],[],[],[],[],[],,216.2534,216.2534,0.405729167,-0.322395833,0,0,0,,0,30,30,106,1,1,word,ELABORATE,print,elaborate_p.png,,,
,,,,31651,001,2025-10-18_19h46.19.365,HW_LDT_1,2024.2.4,Win32,111.1111111,,,,,,,,,,,,,,,,,,,,216.2548,216.4538,216.4538,216.9543,,,,,,,,,,,,1.2428,1,,,,,,,,,,,,,,z,,,,,,,,,,,,,,,32,0,216.9546,218.1979,,0,[-0.33645833333333336],[-0.2791666666666667],[1],[0],[0],[1.2427999999523536],"[""button_left_main""]",218.1979,220.1927,220.1927,220.1929,[],[],[],[],[],[],[],,220.193,220.193,-0.333854167,-0.281770833,0,0,0,,0,31,31,11,1,1,RL,elacodate,print,elacodate_p.png,,,
,,,,31651,001,2025-10-18_19h46.19.365,HW_LDT_1,2024.2.4,Win32,111.1111111,,,,,,,,,,,,,,,,,,,,220.1939,220.393,220.393,220.8936,,,,,,,,,,,,1.3929,1,,,,,,,,,,,,,,m,,,,,,,,,,,,,,,33,0,220.8941,222.2874,,0,[0.3770833333333333],[-0.31354166666666666],[1],[0],[0],[1.39289999997618],"[""button_right_main""]",222.2874,224.2822,224.2822,224.2824,[],[],[],[],[],[],[],,224.2825,224.2826,0.377083333,-0.313541667,0,0,0,,0,32,32,138,1,1,word,REFUSAL,print,refusal_p.png,,,
,,,,31651,001,2025-10-18_19h46.19.365,HW_LDT_1,2024.2.4,Win32,111.1111111,,,,,,,,,,,,,,,,,,,,224.2832,224.4825,224.4825,224.9833,,,,,,,,,,,,1.1839,1,,,,,,,,,,,,,,z,,,,,,,,,,,,,,,34,0,224.9838,226.1682,,0,[-0.3109375],[-0.31614583333333335],[1],[0],[0],[1.1839000000953774],"[""button_left_main""]",226.1682,228.1631,228.1632,228.1632,[],[],[],[],[],[],[],,228.1633,228.1633,-0.3109375,-0.316145833,0,0,0,,0,33,33,42,1,1,TL,befenit,print,befenit_p.png,,,
,,,,31651,001,2025-10-18_19h46.19.365,HW_LDT_1,2024.2.4,Win32,111.1111111,,,,,,,,,,,,,,,,,,,,228.164,228.3666,228.3666,228.864,,,,,,,,,,,,0.9759,1,,,,,,,,,,,,,,m,,,,,,,,,,,,,,,35,0,228.8642,229.8405,,0,[0.38697916666666665],[-0.30520833333333336],[1],[0],[0],[0.97589999997615],"[""button_right_main""]",229.8406,231.8352,231.8352,231.8354,[],[],[],[],[],[],[],,231.8354,231.8354,0.386979167,-0.305208333,0,0,0,,0,34,34,85,1,1,word,BENEFIT,print,benefit_p.png,,,
,,,,31651,001,2025-10-18_19h46.19.365,HW_LDT_1,2024.2.4,Win32,111.1111111,,,,,,,,,,,,,,,,,,,,231.8364,232.0355,232.0356,232.5369,,,,,,,,,,,,1.4092,1,,,,,,,,,,,,,,z,,,,,,,,,,,,,,,36,1,232.5373,233.9469,,0,[-0.3296875],[-0.30885416666666665],[1],[0],[0],[1.4091999999284326],"[""button_left_main""]",233.947,235.9415,235.9415,237.0014,[-0.34270833333333334],[-0.3020833333333333],[1],[0],[0],[1.0596999999284549],"[""button_left_probe""]",,237.0015,237.0015,-0.342708333,-0.302083333,1,0,0,,0,35,35,76,1,1,TL,stragety,cursive,stragety_c.png,,,
,,,,31651,001,2025-10-18_19h46.19.365,HW_LDT_1,2024.2.4,Win32,111.1111111,,,,,,,,,,,,,,,,,,,,237.0023,237.2018,237.2019,237.6974,,,,,,,,,,,,0.9808,1,,,,,,,,,,,,,,m,,,,,,,,,,,,,,,37,0,237.6978,238.679,,0,[0.3880208333333333],[-0.3234375],[1],[0],[0],[0.9807999999523531],"[""button_right_main""]",238.6791,240.6736,240.6736,240.6737,[],[],[],[],[],[],[],,240.6738,240.6738,0.388020833,-0.3234375,0,0,0,,0,36,36,124,1,1,word,NUMERICAL,print,numerical_p.png,,,
,,,,31651,001,2025-10-18_19h46.19.365,HW_LDT_1,2024.2.4,Win32,111.1111111,,,,,,,,,,,,,,,,,,,,240.6749,240.8738,240.8739,241.375,,,,,,,,,,,,1.2336,1,,,,,,,,,,,,,,z,,,,,,,,,,,,,,,38,0,241.3755,242.6098,,0,[-0.3458333333333333],[-0.3072916666666667],[1],[0],[0],[1.2336000000238414],"[""button_left_main""]",242.6099,244.605,244.605,244.6054,[],[],[],[],[],[],[],,244.6054,244.6055,-0.345833333,-0.318229167,0,0,0,,0,37,37,25,1,1,RL,quakity,cursive,quakity_c.png,,,
,,,,31651,001,2025-10-18_19h46.19.365,HW_LDT_1,2024.2.4,Win32,111.1111111,,,,,,,,,,,,,,,,,,,,244.6062,244.8052,244.8053,245.3071,,,,,,,,,,,,1.7671,0,,,,,,,,,,,,,,z,,,,,,,,,,,,,,,39,0,245.3075,247.0751,,0,[0.35260416666666666],[-0.33645833333333336],[1],[0],[0],[1.767100000023845],"[""button_right_main""]",247.0751,249.0701,249.0702,249.0704,[],[],[],[],[],[],[],,249.0704,249.0705,0.352604167,-0.336458333,0,0,0,,0,38,38,65,1,1,TL,orinigal,cursive,orinigal_c.png,,,
,,,,31651,001,2025-10-18_19h46.19.365,HW_LDT_1,2024.2.4,Win32,111.1111111,,,,,,,,,,,,,,,,,,,,249.0716,249.2703,249.2704,249.7712,,,,,,,,,,,,0.9416,1,,,,,,,,,,,,,,m,,,,,,,,,,,,,,,40,0,249.7718,250.7138,,0,[0.384375],[-0.31614583333333335],[1],[0],[0],[0.9416000000238682],"[""button_right_main""]",250.7138,252.709,252.709,252.7092,[],[],[],[],[],[],[],,252.7093,252.7093,0.384375,-0.316145833,0,0,0,,0,39,39,153,1,1,word,STOLEN,print,stolen_p.png,,,
,,,,31651,001,2025-10-18_19h46.19.365,HW_LDT_1,2024.2.4,Win32,111.1111111,,,,,,,,,,,,,,,,,,,,252.7101,252.9089,252.9089,253.4094,,,,,,,,,,,,1.076,1,,,,,,,,,,,,,,m,,,,,,,,,,,,,,,41,0,253.4098,254.4862,,0,[0.3692708333333333],[-0.31666666666666665],[1],[0],[0],[1.075999999999965],"[""button_right_main""]",254.4862,256.4808,256.4808,256.4809,[],[],[],[],[],[],[],,256.481,256.481,0.369270833,-0.316666667,0,0,0,,0,40,40,109,1,1,word,GRATEFUL,print,grateful_p.png,,,
,,,,31651,001,2025-10-18_19h46.19.365,HW_LDT_1,2024.2.4,Win32,111.1111111,,,,,,,,,,,,,,,,,,,,256.4817,256.6815,256.6815,257.1819,,,,,,,,,,,,0.8172,1,,,,,,,,,,,,,,m,,,,,,,,,,,,,,,42,0,257.1822,257.9998,,0,[0.38333333333333336],[-0.3182291666666667],[1],[0],[0],[0.817199999928448],"[""button_right_main""]",257.9999,259.9948,259.9949,259.995,[],[],[],[],[],[],[],,259.9951,259.9951,0.383333333,-0.318229167,0,0,0,,0,41,41,117,1,1,word,MARINE,print,marine_p.png,,,
,,,,31651,001,2025-10-18_19h46.19.365,HW_LDT_1,2024.2.4,Win32,111.1111111,,,,,,,,,,,,,,,,,,,,259.9961,260.1949,260.195,260.696,,,,,,,,,,,,1.5012,0,,,,,,,,,,,,,,m,,,,,,,,,,,,,,,43,0,260.6965,262.1982,,0,[-0.33177083333333335],[-0.32864583333333336],[1],[0],[0],[1.5012000000476746],"[""button_left_main""]",262.1982,264.1927,264.1928,264.1929,[],[],[],[],[],[],[],,264.193,264.1931,-0.331770833,-0.328645833,0,0,0,,0,42,42,111,1,1,word,INDICATE,cursive,indicate_c.png,,,
,,,,31651,001,2025-10-18_19h46.19.365,HW_LDT_1,2024.2.4,Win32,111.1111111,,,,,,,,,,,,,,,,,,,,264.1939,264.3931,264.3931,264.8973,,,,,,,,,,,,0.8802,1,,,,,,,,,,,,,,z,,,,,,,,,,,,,,,44,0,264.8978,265.7782,,0,[-0.32760416666666664],[-0.321875],[1],[0],[0],[0.8802000000476937],"[""button_left_main""]",265.7784,267.7736,267.7736,267.7738,[],[],[],[],[],[],[],,267.7738,267.7739,-0.328645833,-0.3234375,0,0,0,,0,43,43,23,1,1,RL,potugar,cursive,potugar_c.png,,,
,,,,31651,001,2025-10-18_19h46.19.365,HW_LDT_1,2024.2.4,Win32,111.1111111,,,,,,,,,,,,,,,,,,,,267.7746,267.9737,267.9737,268.4742,,,,,,,,,,,,0.8753,1,,,,,,,,,,,,,,m,,,,,,,,,,,,,,,45,0,268.4747,269.3503,,0,[0.3807291666666667],[-0.32447916666666665],[1],[0],[0],[0.8753000000714906],"[""button_right_main""]",269.3503,271.3454,271.3455,271.3456,[],[],[],[],[],[],[],,271.3456,271.3457,0.380729167,-0.324479167,0,0,0,,0,44,44,91,1,1,word,CARDINAL,print,cardinal_p.png,,,
,,,,31651,001,2025-10-18_19h46.19.365,HW_LDT_1,2024.2.4,Win32,111.1111111,,,,,,,,,,,,,,,,,,,,271.3466,271.5457,271.5458,272.0462,,,,,,,,,,,,0.6836,1,,,,,,,,,,,,,,m,,,,,,,,,,,,,,,46,0,272.0464,272.7303,,0,[0.37083333333333335],[-0.3307291666666667],[1],[0],[0],[0.6835999999046294],"[""button_right_main""]",272.7304,274.7255,274.7256,274.7258,[],[],[],[],[],[],[],,274.7258,274.7259,0.370833333,-0.330729167,0,0,0,,0,45,45,131,1,1,word,POPULAR,cursive,popular_c.png,,,
,,,,31651,001,2025-10-18_19h46.19.365,HW_LDT_1,2024.2.4,Win32,111.1111111,,,,,,,,,,,,,,,,,,,,274.727,274.9258,274.9258,275.4266,,,,,,,,,,,,0.9088,1,,,,,,,,,,,,,,z,,,,,,,,,,,,,,,47,0,275.427,276.3362,,0,[-0.3328125],[-0.31197916666666664],[1],[0],[0],[0.908800000071551],"[""button_left_main""]",276.3362,278.331,278.3311,278.3313,[],[],[],[],[],[],[],,278.3313,278.3314,-0.333854167,-0.3125,0,0,0,,0,46,46,63,1,1,TL,molibe,cursive,molibe_c.png,,,
,,,,31651,001,2025-10-18_19h46.19.365,HW_LDT_1,2024.2.4,Win32,111.1111111,,,,,,,,,,,,,,,,,,,,278.3324,278.5312,278.5312,279.032,,,,,,,,,,,,0.942,1,,,,,,,,,,,,,,m,,,,,,,,,,,,,,,48,0,279.0325,279.9749,,0,[0.384375],[-0.2890625],[1],[0],[0],[0.9420000000000073],"[""button_right_main""]",279.975,281.9695,281.9695,281.9695,[],[],[],[],[],[],[],,281.9696,281.9697,0.384375,-0.2890625,0,0,0,,0,47,47,84,1,1,word,BELOVED,print,beloved_p.png,,,
,,,,31651,001,2025-10-18_19h46.19.365,HW_LDT_1,2024.2.4,Win32,111.1111111,,,,,,,,,,,,,,,,,,,,281.9703,282.1699,282.1699,282.6709,,,,,,,,,,,,1.4511,1,,,,,,,,,,,,,,m,,,,,,,,,,,,,,,49,0,282.6713,284.1227,,0,[0.3692708333333333],[-0.321875],[1],[0],[0],[1.451100000023871],"[""button_right_main""]",284.1228,286.1178,286.1178,286.118,[],[],[],[],[],[],[],,286.1181,286.1182,0.369270833,-0.321875,0,0,0,,0,48,48,93,1,1,word,CEREMONY,cursive,ceremony_c.png,,,
,,,,31651,001,2025-10-18_19h46.19.365,HW_LDT_1,2024.2.4,Win32,111.1111111,,,,,,,,,,,,,,,,,,,,286.1191,286.3181,286.3181,286.8189,,,,,,,,,,,,1.8764,1,,,,,,,,,,,,,,m,,,,,,,,,,,,,,,50,0,286.8193,288.6963,,0,[0.353125],[-0.321875],[1],[0],[0],[1.8764000000953729],"[""button_right_main""]",288.6965,290.6914,290.6914,290.6916,[],[],[],[],[],[],[],,290.6916,290.6917,0.352604167,-0.322395833,0,0,0,,0,49,49,135,1,1,word,QUALITY,cursive,quality_c.png,,,
,,,,31651,001,2025-10-18_19h46.19.365,HW_LDT_1,2024.2.4,Win32,111.1111111,,,,,,,,,,,,,,,,,,,,290.6924,290.8914,290.8914,291.3923,,,,,,,,,,,,2.0854,0,,,,,,,,,,,,,,z,,,,,,,,,,,,,,,51,0,291.3927,293.4785,,0,[0.34739583333333335],[-0.32135416666666666],[1],[0],[0],[2.0853999999761186],"[""button_right_main""]",293.4786,295.4737,295.4738,295.474,[],[],[],[],[],[],[],,295.474,295.474,0.347395833,-0.321354167,0,0,0,,0,50,50,48,1,1,TL,cemerony,cursive,cemerony_c.png,,,
,,,,31651,001,2025-10-18_19h46.19.365,HW_LDT_1,2024.2.4,Win32,111.1111111,,,,,,,,,,,,,,,,,,,,295.4748,295.6736,295.6736,296.1747,,,,,,,,,,,,1.685,0,,,,,,,,,,,,,,m,,,,,,,,,,,,,,,52,0,296.175,297.8604,,0,[-0.31875],[-0.3234375],[1],[0],[0],[1.6850000000000023],"[""button_left_main""]",297.8604,299.8561,299.8562,299.8563,[],[],[],[],[],[],[],,299.8564,299.8565,-0.31875,-0.3234375,0,0,0,,0,51,51,94,1,1,word,CLINICAL,cursive,clinical_c.png,,,
,,,,31651,001,2025-10-18_19h46.19.365,HW_LDT_1,2024.2.4,Win32,111.1111111,,,,,,,,,,,,,,,,,,,,299.8571,300.0553,300.0553,300.5564,,,,,,,,,,,,2.0349,1,,,,,,,,,,,,,,z,,,,,,,,,,,,,,,53,0,300.5567,302.5924,,0,[-0.31979166666666664],[-0.33645833333333336],[1],[0],[0],[2.0349000000953765],"[""button_left_main""]",302.5924,304.5875,304.5875,304.5877,[],[],[],[],[],[],[],,304.5878,304.5878,-0.318229167,-0.338541667,0,0,0,,0,52,52,36,1,1,RL,speniven,cursive,speniven_c.png,,,
,,,,31651,001,2025-10-18_19h46.19.365,HW_LDT_1,2024.2.4,Win32,111.1111111,,,,,,,,,,,,,,,,,,,,304.5886,304.7878,304.7878,305.2883,,,,,,,,,,,,2.0434,0,,,,,,,,,,,,,,m,,,,,,,,,,,,,,,54,0,305.2888,307.3327,,0,[-0.3109375],[-0.33125],[1],[0],[0],[2.043400000095346],"[""button_left_main""]",307.3328,309.3277,309.3278,309.328,[],[],[],[],[],[],[],,309.3281,309.3282,-0.3109375,-0.33125,0,0,0,,0,53,53,102,1,1,word,DENSITY,cursive,density_c.png,,,
,,,,31651,001,2025-10-18_19h46.19.365,HW_LDT_1,2024.2.4,Win32,111.1111111,,,,,,,,,,,,,,,,,,,,309.3292,309.5278,309.5278,310.0287,,,,,,,,,,,,2.4278,1,,,,,,,,,,,,,,z,,,,,,,,,,,,,,,55,0,310.0291,312.4573,,0,[-0.32760416666666664],[-0.30833333333333335],[1],[0],[0],[2.4278000000714997],"[""button_left_main""]",312.4573,314.452,314.452,314.4521,[],[],[],[],[],[],[],,314.4521,314.4523,-0.324479167,-0.3109375,0,0,0,,0,54,54,77,1,1,TL,tritube,cursive,tritube_c.png,,,
,,,,31651,001,2025-10-18_19h46.19.365,HW_LDT_1,2024.2.4,Win32,111.1111111,,,,,,,,,,,,,,,,,,,,314.4532,314.6463,314.6463,315.1531,,,,,,,,,,,,0.9595,1,,,,,,,,,,,,,,z,,,,,,,,,,,,,,,56,0,315.1534,316.1135,,0,[-0.3171875],[-0.28541666666666665],[1],[0],[0],[0.9594999999999914],"[""button_left_main""]",316.1136,318.1081,318.1081,318.1083,[],[],[],[],[],[],[],,318.1083,318.1085,-0.318229167,-0.284375,0,0,0,,0,55,55,27,1,1,RL,rasibal,print,rasibal_p.png,,,
,,,,31651,001,2025-10-18_19h46.19.365,HW_LDT_1,2024.2.4,Win32,111.1111111,,,,,,,,,,,,,,,,,,,,318.1093,318.3077,318.3077,318.8086,,,,,,,,,,,,0.8674,1,,,,,,,,,,,,,,m,,,,,,,,,,,,,,,57,0,318.8089,319.6768,,0,[0.390625],[-0.31979166666666664],[1],[0],[0],[0.8674000000953583],"[""button_right_main""]",319.6768,321.6713,321.6714,321.6715,[],[],[],[],[],[],[],,321.6716,321.6717,0.390625,-0.319791667,0,0,0,,0,56,56,86,1,1,word,BESIDE,print,beside_p.png,,,
,,,,31651,001,2025-10-18_19h46.19.365,HW_LDT_1,2024.2.4,Win32,111.1111111,,,,,,,,,,,,,,,,,,,,321.6725,321.8717,321.8718,322.3722,,,,,,,,,,,,2.2612,1,,,,,,,,,,,,,,z,,,,,,,,,,,,,,,58,0,322.3726,324.6342,,0,[-0.29739583333333336],[-0.31875],[1],[0],[0],[2.2612000000477224],"[""button_left_main""]",324.6343,326.6286,326.6287,326.6288,[],[],[],[],[],[],[],,326.6288,326.6289,-0.297395833,-0.31875,0,0,0,,0,57,57,68,1,1,TL,prosopal,cursive,prosopal_c.png,,,
,,,,31651,001,2025-10-18_19h46.19.365,HW_LDT_1,2024.2.4,Win32,111.1111111,,,,,,,,,,,,,,,,,,,,326.6297,326.8293,326.8293,327.3296,,,,,,,,,,,,1.0759,1,,,,,,,,,,,,,,z,,,,,,,,,,,,,,,59,0,327.33,328.4064,,0,[-0.31302083333333336],[-0.30885416666666665],[1],[0],[0],[1.0758999999761159],"[""button_left_main""]",328.4066,330.4011,330.4012,330.4013,[],[],[],[],[],[],[],,330.4013,330.4013,-0.313020833,-0.308854167,0,0,0,,0,58,58,20,1,1,RL,nunewical,print,nunewical_p.png,,,
,,,,31651,001,2025-10-18_19h46.19.365,HW_LDT_1,2024.2.4,Win32,111.1111111,,,,,,,,,,,,,,,,,,,,330.4021,330.6019,330.6019,331.1022,,,,,,,,,,,,2.0188,1,,,,,,,,,,,,,,m,,,,,,,,,,,,,,,60,1,331.1027,333.1219,,0,[0.3515625],[-0.3307291666666667],[1],[0],[0],[2.018799999952307],"[""button_right_main""]",333.122,335.1169,335.1169,336.1599,[-0.31979166666666664],[-0.3072916666666667],[1],[0],[0],[1.042799999952308],"[""button_left_probe""]",,336.16,336.16,-0.319791667,-0.307291667,1,0,0,,0,59,59,122,1,1,word,MOBILE,cursive,mobile_c.png,,,
,,,,31651,001,2025-10-18_19h46.19.365,HW_LDT_1,2024.2.4,Win32,111.1111111,,,,,,,,,,,,,,,,,,,,336.1607,336.3607,336.3607,336.8608,,,,,,,,,,,,1.6682,1,,,,,,,,,,,,,,m,,,,,,,,,,,,,,,61,1,336.8614,338.5301,,0,[0.3640625],[-0.33489583333333334],[1],[0],[0],[1.6682000000477046],"[""button_right_main""]",338.5301,340.5247,340.5247,341.7766,[0.3703125],[-0.334375],[1],[0],[0],[1.2516000000238137],"[""button_right_probe""]",,341.7767,341.7768,0.3703125,-0.334375,1,0,0,,0,60,60,89,1,1,word,CAPACITY,print,capacity_p.png,,,
,,,,31651,001,2025-10-18_19h46.19.365,HW_LDT_1,2024.2.4,Win32,111.1111111,,,,,,,,,,,,,,,,,,,,341.7776,341.9771,341.9772,342.4778,,,,,,,,,,,,1.0341,1,,,,,,,,,,,,,,m,,,,,,,,,,,,,,,62,0,342.4781,343.5125,,0,[0.3828125],[-0.309375],[1],[0],[0],[1.034100000023841],"[""button_right_main""]",343.5127,345.5073,345.5073,345.5075,[],[],[],[],[],[],[],,345.5075,345.5076,0.3828125,-0.309375,0,0,0,,0,61,61,112,1,1,word,LIBERAL,cursive,liberal_c.png,,,
,,,,31651,001,2025-10-18_19h46.19.365,HW_LDT_1,2024.2.4,Win32,111.1111111,,,,,,,,,,,,,,,,,,,,345.5084,345.7078,345.7078,346.2085,,,,,,,,,,,,2.1269,1,,,,,,,,,,,,,,z,,,,,,,,,,,,,,,63,0,346.2094,348.3366,,0,[-0.3338541666666667],[-0.30833333333333335],[1],[0],[0],[2.1268999999761604],"[""button_left_main""]",348.3366,350.3314,350.3314,350.3316,[],[],[],[],[],[],[],,350.3317,350.3317,-0.333854167,-0.308333333,0,0,0,,0,62,62,75,1,1,TL,speficic,cursive,speficic_c.png,,,
,,,,31651,001,2025-10-18_19h46.19.365,HW_LDT_1,2024.2.4,Win32,111.1111111,,,,,,,,,,,,,,,,,,,,350.3326,350.5316,350.5316,351.0325,,,,,,,,,,,,0.7416,0,,,,,,,,,,,,,,z,,,,,,,,,,,,,,,64,0,351.033,351.7752,,0,[0.37604166666666666],[-0.32083333333333336],[1],[0],[0],[0.7416000000238228],"[""button_right_main""]",351.7752,353.7698,353.7698,353.77,[],[],[],[],[],[],[],,353.77,353.7702,0.376041667,-0.320833333,0,0,0,,0,63,63,56,1,1,TL,grafetul,print,grafetul_p.png,,,
,,,,31651,001,2025-10-18_19h46.19.365,HW_LDT_1,2024.2.4,Win32,111.1111111,,,,,,,,,,,,,,,,,,,,353.7709,353.97,353.97,354.4653,,,,,,,,,,,,0.9978,1,,,,,,,,,,,,,,z,,,,,,,,,,,,,,,65,0,354.4658,355.4641,,0,[-0.33645833333333336],[-0.284375],[1],[0],[0],[0.9977999999522922],"[""button_left_main""]",355.4642,357.4586,357.4586,357.4588,[],[],[],[],[],[],[],,357.4589,357.4589,-0.332291667,-0.3015625,0,0,0,,0,64,64,70,1,1,TL,relugar,print,relugar_p.png,,,
,,,,31651,001,2025-10-18_19h46.19.365,HW_LDT_1,2024.2.4,Win32,111.1111111,,,,,,,,,,,,,,,,,,,,357.46,357.6594,357.6594,358.1597,,,,,,,,,,,,1.0343,1,,,,,,,,,,,,,,z,,,,,,,,,,,,,,,66,0,358.16,359.1947,,0,[-0.33541666666666664],[-0.290625],[1],[0],[0],[1.0343000000715392],"[""button_left_main""]",359.1948,361.1895,361.1896,361.1898,[],[],[],[],[],[],[],,361.1898,361.1899,-0.333333333,-0.297395833,0,0,0,,0,65,65,30,1,1,RL,relone,print,relone_p.png,,,
,,,,31651,001,2025-10-18_19h46.19.365,HW_LDT_1,2024.2.4,Win32,111.1111111,,,,,,,,,,,,,,,,,,,,361.191,361.3901,361.3901,361.8847,,,,,,,,,,,,0.8395,1,,,,,,,,,,,,,,m,,,,,,,,,,,,,,,67,0,361.8852,362.725,,0,[0.3859375],[-0.3177083333333333],[1],[0],[0],[0.8394999999999868],"[""button_right_main""]",362.725,364.7197,364.7198,364.7199,[],[],[],[],[],[],[],,364.7199,364.72,0.3859375,-0.317708333,0,0,0,,0,66,66,136,1,1,word,RADICAL,print,radical_p.png,,,
,,,,31651,001,2025-10-18_19h46.19.365,HW_LDT_1,2024.2.4,Win32,111.1111111,,,,,,,,,,,,,,,,,,,,364.7211,364.9201,364.9201,365.421,,,,,,,,,,,,1.1925,1,,,,,,,,,,,,,,z,,,,,,,,,,,,,,,68,0,365.4215,366.6142,,0,[-0.32083333333333336],[-0.32135416666666666],[1],[0],[0],[1.1924999999999955],"[""button_left_main""]",366.6143,368.6088,368.6089,368.609,[],[],[],[],[],[],[],,368.6091,368.6091,-0.315104167,-0.341145833,0,0,0,,0,67,67,54,1,1,TL,distupe,cursive,distupe_c.png,,,
,,,,31651,001,2025-10-18_19h46.19.365,HW_LDT_1,2024.2.4,Win32,111.1111111,,,,,,,,,,,,,,,,,,,,368.6099,368.8097,368.8097,369.3101,,,,,,,,,,,,1.8685,1,,,,,,,,,,,,,,m,,,,,,,,,,,,,,,69,0,369.3107,371.1795,,0,[0.359375],[-0.3328125],[1],[0],[0],[1.86850000000004],"[""button_right_main""]",371.1795,373.1743,373.1743,373.1745,[],[],[],[],[],[],[],,373.1746,373.1746,0.359375,-0.3328125,0,0,0,,0,68,68,141,1,1,word,RELIGION,cursive,religion_c.png,,,
,,,,31651,001,2025-10-18_19h46.19.365,HW_LDT_1,2024.2.4,Win32,111.1111111,,,,,,,,,,,,,,,,,,,,373.1755,373.3744,373.3745,373.8752,,,,,,,,,,,,0.9925,1,,,,,,,,,,,,,,m,,,,,,,,,,,,,,,70,1,373.8756,374.8684,,0,[0.37447916666666664],[-0.31979166666666664],[1],[0],[0],[0.9925000000000068],"[""button_right_main""]",374.8684,376.8632,376.8633,378.6412,[-0.3182291666666667],[-0.3109375],[1],[0],[0],[1.77770000004773],"[""button_left_probe""]",,378.6412,378.6413,-0.318229167,-0.3109375,1,0,0,,0,69,69,80,1,1,word,ACADEMY,cursive,academy_c.png,,,
,,,,31651,001,2025-10-18_19h46.19.365,HW_LDT_1,2024.2.4,Win32,111.1111111,,,,,,,,,,,,,,,,,,,,378.6419,378.8417,378.8417,379.3424,,,,,,,,,,,,0.9918,1,,,,,,,,,,,,,,z,,,,,,,,,,,,,,,71,0,379.3427,380.335,,0,[-0.31666666666666665],[-0.3223958333333333],[1],[0],[0],[0.9917999999522635],"[""button_left_main""]",380.3351,382.3297,382.3297,382.3299,[],[],[],[],[],[],[],,382.3299,382.3299,-0.316666667,-0.322395833,0,0,0,,0,70,70,32,1,1,RL,rebicent,print,rebicent_p.png,,,
,,,,31651,001,2025-10-18_19h46.19.365,HW_LDT_1,2024.2.4,Win32,111.1111111,,,,,,,,,,,,,,,,,,,,382.3308,382.5299,382.5299,383.0308,,,,,,,,,,,,1.7192,0,,,,,,,,,,,,,,m,,,,,,,,,,,,,,,72,0,383.0311,384.7506,,0,[-0.2989583333333333],[-0.33541666666666664],[1],[0],[0],[1.7192000000476924],"[""button_left_main""]",384.7507,386.7448,386.7448,386.745,[],[],[],[],[],[],[],,386.7451,386.7452,-0.298958333,-0.335416667,0,0,0,,0,71,71,146,1,1,word,RETIRE,cursive,retire_c.png,,,
,,,,31651,001,2025-10-18_19h46.19.365,HW_LDT_1,2024.2.4,Win32,111.1111111,,,,,,,,,,,,,,,,,,,,386.7462,386.9451,386.9452,387.4458,,,,,,,,,,,,0.8585,1,,,,,,,,,,,,,,z,,,,,,,,,,,,,,,73,0,387.4464,388.3054,,0,[-0.32760416666666664],[-0.2875],[1],[0],[0],[0.8584999999999923],"[""button_left_main""]",388.3055,390.3004,390.3006,390.3007,[],[],[],[],[],[],[],,390.3008,390.3009,-0.328125,-0.288541667,0,0,0,,0,72,72,37,1,1,RL,skofen,print,skofen_p.png,,,
,,,,31651,001,2025-10-18_19h46.19.365,HW_LDT_1,2024.2.4,Win32,111.1111111,,,,,,,,,,,,,,,,,,,,390.3019,390.5009,390.501,391.0018,,,,,,,,,,,,1.0586,1,,,,,,,,,,,,,,m,,,,,,,,,,,,,,,74,0,391.0022,392.0612,,0,[0.3671875],[-0.3026041666666667],[1],[0],[0],[1.05860000002383],"[""button_right_main""]",392.0612,394.056,394.056,394.0562,[],[],[],[],[],[],[],,394.0563,394.0564,0.3671875,-0.302604167,0,0,0,,0,73,73,92,1,1,word,CATEGORY,print,category_p.png,,,
,,,,31651,001,2025-10-18_19h46.19.365,HW_LDT_1,2024.2.4,Win32,111.1111111,,,,,,,,,,,,,,,,,,,,394.0574,394.2561,394.2561,394.7569,,,,,,,,,,,,1.1426,1,,,,,,,,,,,,,,m,,,,,,,,,,,,,,,75,0,394.7573,395.9002,,0,[0.3463541666666667],[-0.3260416666666667],[1],[0],[0],[1.1426000000238332],"[""button_right_main""]",395.9003,397.8951,397.8952,397.8954,[],[],[],[],[],[],[],,397.8954,397.8955,0.346354167,-0.326041667,0,0,0,,0,74,74,150,1,1,word,SENTIMENT,cursive,sentiment_c.png,,,
,,,,31651,001,2025-10-18_19h46.19.365,HW_LDT_1,2024.2.4,Win32,111.1111111,,,,,,,,,,,,,,,,,,,,397.8963,398.0956,398.0957,398.596,,,,,,,,,,,,0.6586,1,,,,,,,,,,,,,,m,,,,,,,,,,,,,,,76,0,398.5965,399.2554,,0,[0.4078125],[-0.30052083333333335],[1],[0],[0],[0.6586000000238528],"[""button_right_main""]",399.2554,401.2504,401.2505,401.2507,[],[],[],[],[],[],[],,401.2508,401.2508,0.4078125,-0.300520833,0,0,0,,0,75,75,98,1,1,word,CRIMINAL,print,criminal_p.png,,,
,,,,31651,001,2025-10-18_19h46.19.365,HW_LDT_1,2024.2.4,Win32,111.1111111,,,,,,,,,,,,,,,,,,,,401.2515,401.4504,401.4504,401.9511,,,,,,,,,,,,1.0844,1,,,,,,,,,,,,,,m,,,,,,,,,,,,,,,77,0,401.9514,403.0362,,0,[0.3984375],[-0.334375],[1],[0],[0],[1.0844000000953997],"[""button_right_main""]",403.0362,405.0309,405.031,405.0312,[],[],[],[],[],[],[],,405.0312,405.0313,0.3984375,-0.334375,0,0,0,,0,76,76,81,1,1,word,ADVISORY,cursive,advisory_c.png,,,
,,,,31651,001,2025-10-18_19h46.19.365,HW_LDT_1,2024.2.4,Win32,111.1111111,,,,,,,,,,,,,,,,,,,,405.032,405.2311,405.2312,405.7319,,,,,,,,,,,,1.1009,1,,,,,,,,,,,,,,z,,,,,,,,,,,,,,,78,0,405.7322,406.8335,,0,[-0.3421875],[-0.3151041666666667],[1],[0],[0],[1.10089999997615],"[""button_left_main""]",406.8336,408.8286,408.8286,408.8287,[],[],[],[],[],[],[],,408.8288,408.8289,-0.339583333,-0.327083333,0,0,0,,0,77,77,40,1,1,TL,atameur,print,atameur_p.png,,,
,,,,31651,001,2025-10-18_19h46.19.365,HW_LDT_1,2024.2.4,Win32,111.1111111,,,,,,,,,,,,,,,,,,,,408.8298,409.0285,409.0286,409.5298,,,,,,,,,,,,1.5509,0,,,,,,,,,,,,,,m,,,,,,,,,,,,,,,79,0,409.5303,411.0816,,0,[-0.3375],[-0.29322916666666665],[1],[0],[0],[1.5508999999761386],"[""button_left_main""]",411.0816,413.0766,413.0767,413.0767,[],[],[],[],[],[],[],,413.0769,413.0769,-0.330729167,-0.3140625,0,0,0,,0,78,78,151,1,1,word,SPECIFIC,cursive,specific_c.png,,,
,,,,31651,001,2025-10-18_19h46.19.365,HW_LDT_1,2024.2.4,Win32,111.1111111,,,,,,,,,,,,,,,,,,,,413.0783,413.2765,413.2765,413.7775,,,,,,,,,,,,1.8272,1,,,,,,,,,,,,,,m,,,,,,,,,,,,,,,80,0,413.7779,415.6058,,0,[0.40729166666666666],[-0.3328125],[1],[0],[0],[1.8272000000476964],"[""button_right_main""]",415.6058,417.5998,417.5998,417.6,[],[],[],[],[],[],[],,417.6001,423.9011,-0.024479167,-0.355208333,1,0,0,,0,79,79,159,1,1,word,VETERAN,print,veteran_p.png,break_done_button,,
,,,,31651,001,2025-10-18_19h46.19.365,HW_LDT_1,2024.2.4,Win32,111.1111111,,,,,,,,,,,,,,,,,,,,423.9019,424.1013,424.1014,424.6026,,,,,,,,,,,,2.3186,0,,,,,,,,,,,,,,m,,,,,,,,,,,,,,,81,0,424.6031,426.9223,,0,[-0.3614583333333333],[-0.2520833333333333],[1],[0],[0],[2.318600000023821],"[""button_left_main""]",426.9224,428.9171,428.9171,428.9173,[],[],[],[],[],[],[],,428.9174,428.9174,-0.361458333,-0.252083333,0,0,0,,0,80,80,140,1,1,word,RELATIVE,cursive,relative_c.png,,,
,,,,31651,001,2025-10-18_19h46.19.365,HW_LDT_1,2024.2.4,Win32,111.1111111,,,,,,,,,,,,,,,,,,,,428.9182,429.1177,429.1177,429.6182,,,,,,,,,,,,1.6179,1,,,,,,,,,,,,,,z,,,,,,,,,,,,,,,82,1,429.6188,431.2372,,0,[-0.34427083333333336],[-0.3026041666666667],[1],[0],[0],[1.6178999999762027],"[""button_left_main""]",431.2372,433.2325,433.2325,434.4588,[-0.35],[-0.30625],[1],[0],[0],[1.2261000000238482],"[""button_left_probe""]",,434.4588,434.4588,-0.35,-0.30625,1,0,0,,0,81,81,67,1,1,TL,pocily,cursive,pocily_c.png,,,
,,,,31651,001,2025-10-18_19h46.19.365,HW_LDT_1,2024.2.4,Win32,111.1111111,,,,,,,,,,,,,,,,,,,,434.4595,434.6589,434.6589,435.1604,,,,,,,,,,,,1.2002,1,,,,,,,,,,,,,,z,,,,,,,,,,,,,,,83,1,435.1609,436.3616,,0,[-0.359375],[-0.29375],[1],[0],[0],[1.20020000004763],"[""button_left_main""]",436.3616,438.3569,438.357,439.9669,[0.39479166666666665],[-0.3296875],[1],[0],[0],[1.6098999999761645],"[""button_right_probe""]",,439.9669,439.967,0.394791667,-0.3296875,1,0,0,,0,82,82,2,1,1,RL,asiral,print,asiral_p.png,,,
,,,,31651,001,2025-10-18_19h46.19.365,HW_LDT_1,2024.2.4,Win32,111.1111111,,,,,,,,,,,,,,,,,,,,439.9677,440.1676,440.1676,440.6685,,,,,,,,,,,,1.0104,0,,,,,,,,,,,,,,z,,,,,,,,,,,,,,,84,0,440.6689,441.6798,,0,[0.3828125],[-0.3229166666666667],[1],[0],[0],[1.0104000000953874],"[""button_right_main""]",441.6798,443.6815,443.6815,443.6817,[],[],[],[],[],[],[],,443.6818,443.6819,0.3828125,-0.322916667,0,0,0,,0,83,83,46,1,1,TL,catipal,print,catipal_p.png,,,
,,,,31651,001,2025-10-18_19h46.19.365,HW_LDT_1,2024.2.4,Win32,111.1111111,,,,,,,,,,,,,,,,,,,,443.6826,443.8812,443.8813,444.3823,,,,,,,,,,,,2.1692,1,,,,,,,,,,,,,,z,,,,,,,,,,,,,,,85,0,444.3828,446.5525,,0,[-0.35520833333333335],[-0.32083333333333336],[1],[0],[0],[2.1691999999284803],"[""button_left_main""]",446.5525,448.5466,448.5466,448.5467,[],[],[],[],[],[],[],,448.5468,448.5468,-0.355208333,-0.320833333,0,0,0,,0,84,84,72,1,1,TL,remuse,print,remuse_p.png,,,
,,,,31651,001,2025-10-18_19h46.19.365,HW_LDT_1,2024.2.4,Win32,111.1111111,,,,,,,,,,,,,,,,,,,,448.5479,448.7471,448.7471,449.2478,,,,,,,,,,,,1.7853,1,,,,,,,,,,,,,,z,,,,,,,,,,,,,,,86,0,449.2481,451.0338,,0,[-0.3536458333333333],[-0.3078125],[1],[0],[0],[1.7853000000715156],"[""button_left_main""]",451.0338,453.0289,453.0289,453.029,[],[],[],[],[],[],[],,453.029,453.0291,-0.353645833,-0.3078125,0,0,0,,0,85,85,6,1,1,RL,crisival,print,crisival_p.png,,,
,,,,31651,001,2025-10-18_19h46.19.365,HW_LDT_1,2024.2.4,Win32,111.1111111,,,,,,,,,,,,,,,,,,,,453.0302,453.2288,453.2288,453.7296,,,,,,,,,,,,2.4111,1,,,,,,,,,,,,,,z,,,,,,,,,,,,,,,87,1,453.7299,456.1415,,0,[-0.3453125],[-0.31614583333333335],[1],[0],[0],[2.4111000000239073],"[""button_left_main""]",456.1416,458.1362,458.1362,459.3129,[-0.36770833333333336],[-0.3177083333333333],[1],[0],[0],[1.1766000000237682],"[""button_left_probe""]",,459.3129,459.313,-0.367708333,-0.317708333,1,0,0,,0,86,86,59,1,1,TL,lirebal,cursive,lirebal_c.png,,,
,,,,31651,001,2025-10-18_19h46.19.365,HW_LDT_1,2024.2.4,Win32,111.1111111,,,,,,,,,,,,,,,,,,,,459.3138,459.5133,459.5133,460.0069,,,,,,,,,,,,1.5836,1,,,,,,,,,,,,,,m,,,,,,,,,,,,,,,88,0,460.0075,461.5917,,0,[0.3375],[-0.321875],[1],[0],[0],[1.5836000000238073],"[""button_right_main""]",461.5918,463.5861,463.5861,463.5863,[],[],[],[],[],[],[],,463.5863,463.5864,0.336979167,-0.328125,0,0,0,,0,87,87,116,1,1,word,MARGINAL,print,marginal_p.png,,,
,,,,31651,001,2025-10-18_19h46.19.365,HW_LDT_1,2024.2.4,Win32,111.1111111,,,,,,,,,,,,,,,,,,,,463.5872,463.7867,463.7868,464.2828,,,,,,,,,,,,0.8909,1,,,,,,,,,,,,,,m,,,,,,,,,,,,,,,89,0,464.2831,465.1744,,0,[0.3848958333333333],[-0.33541666666666664],[1],[0],[0],[0.8908999999761136],"[""button_right_main""]",465.1745,467.1748,467.1748,467.1751,[],[],[],[],[],[],[],,467.1751,467.1751,0.384895833,-0.335416667,0,0,0,,0,88,88,120,1,1,word,MILITARY,print,military_p.png,,,
,,,,31651,001,2025-10-18_19h46.19.365,HW_LDT_1,2024.2.4,Win32,111.1111111,,,,,,,,,,,,,,,,,,,,467.1761,467.3752,467.3752,467.8759,,,,,,,,,,,,1.7185,1,,,,,,,,,,,,,,z,,,,,,,,,,,,,,,90,0,467.8763,469.5951,,0,[-0.37395833333333334],[-0.30885416666666665],[1],[0],[0],[1.7185000000000628],"[""button_left_main""]",469.5952,471.59,471.59,471.5901,[],[],[],[],[],[],[],,471.5901,471.5902,-0.372395833,-0.311979167,0,0,0,,0,89,89,41,1,1,TL,bevoled,print,bevoled_p.png,,,
,,,,31651,001,2025-10-18_19h46.19.365,HW_LDT_1,2024.2.4,Win32,111.1111111,,,,,,,,,,,,,,,,,,,,471.591,471.7902,471.7902,472.2919,,,,,,,,,,,,2.018,1,,,,,,,,,,,,,,m,,,,,,,,,,,,,,,91,0,472.2923,474.3107,,0,[0.3541666666666667],[-0.340625],[1],[0],[0],[2.018000000000029],"[""button_right_main""]",474.3108,476.3057,476.3058,476.3059,[],[],[],[],[],[],[],,476.3061,476.3061,0.354166667,-0.340625,0,0,0,,0,90,90,82,1,1,word,AMATEUR,print,amateur_p.png,,,
,,,,31651,001,2025-10-18_19h46.19.365,HW_LDT_1,2024.2.4,Win32,111.1111111,,,,,,,,,,,,,,,,,,,,476.3068,476.5056,476.5056,477.0005,,,,,,,,,,,,1.2237,1,,,,,,,,,,,,,,z,,,,,,,,,,,,,,,92,0,477.0008,478.2249,,0,[-0.35208333333333336],[-0.31927083333333334],[1],[0],[0],[1.223699999928499],"[""button_left_main""]",478.225,480.2222,480.2222,480.2223,[],[],[],[],[],[],[],,480.2223,480.2224,-0.352083333,-0.319270833,0,0,0,,0,91,91,47,1,1,TL,cagetory,print,cagetory_p.png,,,
,,,,31651,001,2025-10-18_19h46.19.365,HW_LDT_1,2024.2.4,Win32,111.1111111,,,,,,,,,,,,,,,,,,,,480.2232,480.42,480.4201,480.9208,,,,,,,,,,,,0.9921,1,,,,,,,,,,,,,,z,,,,,,,,,,,,,,,93,0,480.9212,481.9138,,0,[-0.36302083333333335],[-0.3380208333333333],[1],[0],[0],[0.9921000000238109],"[""button_left_main""]",481.9139,483.9091,483.9092,483.9094,[],[],[],[],[],[],[],,483.9094,483.9095,-0.363020833,-0.338020833,0,0,0,,0,92,92,24,1,1,RL,probice,print,probice_p.png,,,
,,,,31651,001,2025-10-18_19h46.19.365,HW_LDT_1,2024.2.4,Win32,111.1111111,,,,,,,,,,,,,,,,,,,,483.9103,484.109,484.109,484.6096,,,,,,,,,,,,2.2949,0,,,,,,,,,,,,,,m,,,,,,,,,,,,,,,94,0,484.6099,486.9051,,0,[-0.3484375],[-0.32708333333333334],[1],[0],[0],[2.29489999997611],"[""button_left_main""]",486.9051,488.8999,488.9,488.9001,[],[],[],[],[],[],[],,488.9002,488.9006,-0.3484375,-0.327083333,0,0,0,,0,93,93,96,1,1,word,CONSIDER,cursive,consider_c.png,,,
,,,,31651,001,2025-10-18_19h46.19.365,HW_LDT_1,2024.2.4,Win32,111.1111111,,,,,,,,,,,,,,,,,,,,488.9014,489.0999,489.0999,489.6011,,,,,,,,,,,,0.8417,1,,,,,,,,,,,,,,m,,,,,,,,,,,,,,,95,0,489.6017,490.4437,,0,[0.37604166666666666],[-0.3151041666666667],[1],[0],[0],[0.8417000000476946],"[""button_right_main""]",490.4438,492.4382,492.4382,492.4384,[],[],[],[],[],[],[],,492.4384,492.4385,0.379166667,-0.319791667,0,0,0,,0,94,94,142,1,1,word,REMOTE,print,remote_p.png,,,
,,,,31651,001,2025-10-18_19h46.19.365,HW_LDT_1,2024.2.4,Win32,111.1111111,,,,,,,,,,,,,,,,,,,,492.4395,492.6388,492.6389,493.1392,,,,,,,,,,,,1.3181,1,,,,,,,,,,,,,,z,,,,,,,,,,,,,,,96,0,493.1396,494.4579,,0,[-0.3359375],[-0.36041666666666666],[1],[0],[0],[1.3181000000238328],"[""button_left_main""]",494.458,496.4526,496.4526,496.4528,[],[],[],[],[],[],[],,496.4528,496.4528,-0.3359375,-0.360416667,0,0,0,,0,95,95,3,1,1,RL,casena,cursive,casena_c.png,,,
,,,,31651,001,2025-10-18_19h46.19.365,HW_LDT_1,2024.2.4,Win32,111.1111111,,,,,,,,,,,,,,,,,,,,496.4536,496.6527,496.6527,497.1536,,,,,,,,,,,,2.1274,1,,,,,,,,,,,,,,z,,,,,,,,,,,,,,,97,1,497.154,499.2819,,0,[-0.3463541666666667],[-0.3265625],[1],[0],[0],[2.1273999999762054],"[""button_left_main""]",499.2819,501.2768,501.2769,504.1977,[-0.3458333333333333],[-0.33229166666666665],[1],[0],[0],[2.9206000000237964],"[""button_left_probe""]",,504.1978,504.1979,-0.345833333,-0.332291667,1,0,0,,0,96,96,4,1,1,RL,carminal,print,carminal_p.png,,,
,,,,31651,001,2025-10-18_19h46.19.365,HW_LDT_1,2024.2.4,Win32,111.1111111,,,,,,,,,,,,,,,,,,,,504.1986,504.3981,504.3981,504.8991,,,,,,,,,,,,2.5692,1,,,,,,,,,,,,,,z,,,,,,,,,,,,,,,98,0,504.8999,507.4694,,0,[-0.3536458333333333],[-0.3296875],[1],[0],[0],[2.5691999999285144],"[""button_left_main""]",507.4694,509.4639,509.464,509.4641,[],[],[],[],[],[],[],,509.4641,509.4641,-0.353645833,-0.3296875,0,0,0,,0,97,97,38,1,1,RL,stopave,cursive,stopave_c.png,,,
,,,,31651,001,2025-10-18_19h46.19.365,HW_LDT_1,2024.2.4,Win32,111.1111111,,,,,,,,,,,,,,,,,,,,509.4649,509.6585,509.6586,510.165,,,,,,,,,,,,1.0757,1,,,,,,,,,,,,,,m,,,,,,,,,,,,,,,99,0,510.1655,511.2415,,0,[0.3640625],[-0.32083333333333336],[1],[0],[0],[1.0757000000476182],"[""button_right_main""]",511.2416,513.2363,513.2364,513.2366,[],[],[],[],[],[],[],,513.2366,513.2367,0.3640625,-0.320833333,0,0,0,,0,98,98,152,1,1,word,SPECIMEN,cursive,specimen_c.png,,,
,,,,31651,001,2025-10-18_19h46.19.365,HW_LDT_1,2024.2.4,Win32,111.1111111,,,,,,,,,,,,,,,,,,,,513.2376,513.4366,513.4367,513.9307,,,,,,,,,,,,1.1326,1,,,,,,,,,,,,,,z,,,,,,,,,,,,,,,100,0,513.9311,515.0639,,0,[-0.346875],[-0.33229166666666665],[1],[0],[0],[1.1326000000237855],"[""button_left_main""]",515.064,517.0591,517.0592,517.0594,[],[],[],[],[],[],[],,517.0594,517.0595,-0.346875,-0.332291667,0,0,0,,0,99,99,15,1,1,RL,losipal,cursive,losipal_c.png,,,
,,,,31651,001,2025-10-18_19h46.19.365,HW_LDT_1,2024.2.4,Win32,111.1111111,,,,,,,,,,,,,,,,,,,,517.0602,517.2591,517.2592,517.7602,,,,,,,,,,,,1.5182,1,,,,,,,,,,,,,,m,,,,,,,,,,,,,,,101,1,517.7605,519.2793,,0,[0.3723958333333333],[-0.30416666666666664],[1],[0],[0],[1.5182000000477274],"[""button_right_main""]",519.2793,521.2735,521.2736,522.2915,[-0.3619791666666667],[-0.3015625],[1],[0],[0],[1.0177999999523308],"[""button_left_probe""]",,522.2916,522.2917,-0.361979167,-0.3015625,1,0,0,,0,100,100,154,1,1,word,STORAGE,cursive,storage_c.png,,,
,,,,31651,001,2025-10-18_19h46.19.365,HW_LDT_1,2024.2.4,Win32,111.1111111,,,,,,,,,,,,,,,,,,,,522.2924,522.4921,522.4921,522.9933,,,,,,,,,,,,2.0952,1,,,,,,,,,,,,,,z,,,,,,,,,,,,,,,102,0,522.9938,525.0894,,0,[-0.3546875],[-0.32083333333333336],[1],[0],[0],[2.095199999928468],"[""button_left_main""]",525.0894,527.0908,527.0908,527.0909,[],[],[],[],[],[],[],,527.0909,527.0911,-0.3546875,-0.320833333,0,0,0,,0,101,101,55,1,1,TL,fornute,print,fornute_p.png,,,
,,,,31651,001,2025-10-18_19h46.19.365,HW_LDT_1,2024.2.4,Win32,111.1111111,,,,,,,,,,,,,,,,,,,,527.0918,527.2911,527.2911,527.7916,,,,,,,,,,,,1.0928,1,,,,,,,,,,,,,,m,,,,,,,,,,,,,,,103,0,527.7921,528.8854,,0,[0.3770833333333333],[-0.3177083333333333],[1],[0],[0],[1.0927999999522626],"[""button_right_main""]",528.8854,530.8796,530.8796,530.8797,[],[],[],[],[],[],[],,530.8797,530.8798,0.377083333,-0.317708333,0,0,0,,0,102,102,128,1,1,word,PACIFIC,print,pacific_p.png,,,
,,,,31651,001,2025-10-18_19h46.19.365,HW_LDT_1,2024.2.4,Win32,111.1111111,,,,,,,,,,,,,,,,,,,,530.8806,531.0803,531.0803,531.581,,,,,,,,,,,,3.3623,0,,,,,,,,,,,,,,m,,,,,,,,,,,,,,,104,0,531.5814,534.9441,,0,[-0.3255208333333333],[-0.31614583333333335],[1],[0],[0],[3.3623000000715138],"[""button_left_main""]",534.9442,536.9394,536.9394,536.9396,[],[],[],[],[],[],[],,536.9396,536.9397,-0.325520833,-0.316145833,0,0,0,,0,103,103,110,1,1,word,HERITAGE,cursive,heritage_c.png,,,
,,,,31651,001,2025-10-18_19h46.19.365,HW_LDT_1,2024.2.4,Win32,111.1111111,,,,,,,,,,,,,,,,,,,,536.9405,537.1393,537.1394,537.6401,,,,,,,,,,,,2.0855,1,,,,,,,,,,,,,,m,,,,,,,,,,,,,,,105,0,537.6405,539.7264,,0,[0.40572916666666664],[-0.31197916666666664],[1],[0],[0],[2.0855000000000246],"[""button_right_main""]",539.7264,541.7215,541.7216,541.7218,[],[],[],[],[],[],[],,541.7218,541.7219,0.405729167,-0.311979167,0,0,0,,0,104,104,148,1,1,word,SALINE,print,saline_p.png,,,
,,,,31651,001,2025-10-18_19h46.19.365,HW_LDT_1,2024.2.4,Win32,111.1111111,,,,,,,,,,,,,,,,,,,,541.7226,541.9214,541.9214,542.4224,,,,,,,,,,,,2.828,0,,,,,,,,,,,,,,m,,,,,,,,,,,,,,,106,1,542.4228,545.2513,,0,[-0.3307291666666667],[-0.3151041666666667],[1],[0],[0],[2.8279999999999745],"[""button_left_main""]",545.2514,547.246,547.2461,548.3315,[-0.3484375],[-0.2984375],[1],[0],[0],[1.0852999999523263],"[""button_left_probe""]",,548.3316,548.3317,-0.3484375,-0.2984375,1,0,0,,0,105,105,105,1,1,word,EDITOR,cursive,editor_c.png,,,
,,,,31651,001,2025-10-18_19h46.19.365,HW_LDT_1,2024.2.4,Win32,111.1111111,,,,,,,,,,,,,,,,,,,,548.3324,548.532,548.532,549.0325,,,,,,,,,,,,1.0338,1,,,,,,,,,,,,,,m,,,,,,,,,,,,,,,107,0,549.0329,550.0671,,0,[0.3671875],[-0.315625],[1],[0],[0],[1.0337999999522935],"[""button_right_main""]",550.0672,552.0618,552.0618,552.0619,[],[],[],[],[],[],[],,552.062,552.062,0.3671875,-0.315625,0,0,0,,0,106,106,132,1,1,word,PROPOSAL,cursive,proposal_c.png,,,
,,,,31651,001,2025-10-18_19h46.19.365,HW_LDT_1,2024.2.4,Win32,111.1111111,,,,,,,,,,,,,,,,,,,,552.0626,552.2623,552.2623,552.7628,,,,,,,,,,,,1.1009,1,,,,,,,,,,,,,,m,,,,,,,,,,,,,,,108,0,552.7631,553.8643,,0,[0.3796875],[-0.309375],[1],[0],[0],[1.10089999997615],"[""button_right_main""]",553.8644,555.8596,555.8596,555.8598,[],[],[],[],[],[],[],,555.8599,555.8599,0.3796875,-0.309375,0,0,0,,0,107,107,145,1,1,word,RESUME,print,resume_p.png,,,
,,,,31651,001,2025-10-18_19h46.19.365,HW_LDT_1,2024.2.4,Win32,111.1111111,,,,,,,,,,,,,,,,,,,,555.8608,556.0595,556.0596,556.5603,,,,,,,,,,,,0.7334,1,,,,,,,,,,,,,,m,,,,,,,,,,,,,,,109,0,556.5608,557.2946,,0,[0.3703125],[-0.3307291666666667],[1],[0],[0],[0.7333999999760863],"[""button_right_main""]",557.2947,559.2893,559.2893,559.2894,[],[],[],[],[],[],[],,559.2894,559.2895,0.3703125,-0.330729167,0,0,0,,0,108,108,114,1,1,word,LOCATE,print,locate_p.png,,,
,,,,31651,001,2025-10-18_19h46.19.365,HW_LDT_1,2024.2.4,Win32,111.1111111,,,,,,,,,,,,,,,,,,,,559.2903,559.4896,559.4897,559.9907,,,,,,,,,,,,1.96,1,,,,,,,,,,,,,,z,,,,,,,,,,,,,,,110,0,559.9912,561.9518,,0,[-0.3453125],[-0.2942708333333333],[1],[0],[0],[1.9600000000000364],"[""button_left_main""]",561.9519,563.9463,563.9463,563.9464,[],[],[],[],[],[],[],,563.9464,563.9465,-0.344270833,-0.303125,0,0,0,,0,109,109,62,1,1,TL,mitilary,print,mitilary_p.png,,,
,,,,31651,001,2025-10-18_19h46.19.365,HW_LDT_1,2024.2.4,Win32,111.1111111,,,,,,,,,,,,,,,,,,,,563.9474,564.1466,564.1466,564.6473,,,,,,,,,,,,1.4853,1,,,,,,,,,,,,,,m,,,,,,,,,,,,,,,111,0,564.6477,566.1334,,0,[0.35208333333333336],[-0.3171875],[1],[0],[0],[1.4852999999523036],"[""button_right_main""]",566.1335,568.1281,568.1281,568.1283,[],[],[],[],[],[],[],,568.1283,568.1284,0.352083333,-0.3171875,0,0,0,,0,110,110,143,1,1,word,REMOVAL,cursive,removal_c.png,,,
,,,,31651,001,2025-10-18_19h46.19.365,HW_LDT_1,2024.2.4,Win32,111.1111111,,,,,,,,,,,,,,,,,,,,568.1293,568.3281,568.3281,568.8288,,,,,,,,,,,,2.8201,1,,,,,,,,,,,,,,z,,,,,,,,,,,,,,,112,0,568.8292,571.6496,,0,[-0.303125],[-0.3390625],[1],[0],[0],[2.8201000000237855],"[""button_left_main""]",571.6497,573.6443,573.6443,573.6444,[],[],[],[],[],[],[],,573.6445,573.6445,-0.303125,-0.3390625,0,0,0,,0,111,111,52,1,1,TL,decilate,cursive,decilate_c.png,,,
,,,,31651,001,2025-10-18_19h46.19.365,HW_LDT_1,2024.2.4,Win32,111.1111111,,,,,,,,,,,,,,,,,,,,573.6454,573.8453,573.8453,574.3456,,,,,,,,,,,,0.7085,1,,,,,,,,,,,,,,m,,,,,,,,,,,,,,,113,0,574.346,575.0548,,0,[0.3567708333333333],[-0.3125],[1],[0],[0],[0.7085000000000719],"[""button_right_main""]",575.0549,577.0495,577.0496,577.0498,[],[],[],[],[],[],[],,577.0498,577.05,0.358854167,-0.315625,0,0,0,,0,112,112,83,1,1,word,ANIMAL,print,animal_p.png,,,
,,,,31651,001,2025-10-18_19h46.19.365,HW_LDT_1,2024.2.4,Win32,111.1111111,,,,,,,,,,,,,,,,,,,,577.0506,577.2497,577.2498,577.7507,,,,,,,,,,,,0.8754,1,,,,,,,,,,,,,,m,,,,,,,,,,,,,,,114,0,577.7511,578.6269,,0,[0.3625],[-0.3109375],[1],[0],[0],[0.8753999999762527],"[""button_right_main""]",578.6269,580.6242,580.6243,580.6246,[],[],[],[],[],[],[],,580.6246,580.6246,0.3625,-0.3109375,0,0,0,,0,113,113,99,1,1,word,DEBATE,print,debate_p.png,,,
,,,,31651,001,2025-10-18_19h46.19.365,HW_LDT_1,2024.2.4,Win32,111.1111111,,,,,,,,,,,,,,,,,,,,580.6255,580.8224,580.8224,581.3231,,,,,,,,,,,,1.5927,0,,,,,,,,,,,,,,z,,,,,,,,,,,,,,,115,0,581.3236,582.9167,,0,[0.3776041666666667],[-0.30625],[1],[0],[0],[1.5927000000477847],"[""button_right_main""]",582.9167,584.9114,584.9115,584.9115,[],[],[],[],[],[],[],,584.9116,584.9117,0.377604167,-0.30625,0,0,0,,0,114,114,34,1,1,RL,samite,print,samite_p.png,,,
,,,,31651,001,2025-10-18_19h46.19.365,HW_LDT_1,2024.2.4,Win32,111.1111111,,,,,,,,,,,,,,,,,,,,584.9125,585.1126,585.1126,585.613,,,,,,,,,,,,3.3651,0,,,,,,,,,,,,,,m,,,,,,,,,,,,,,,116,0,585.6136,588.979,,0,[-0.3151041666666667],[-0.3229166666666667],[1],[0],[0],[3.3651000000238582],"[""button_left_main""]",588.979,590.9792,590.9792,590.9794,[],[],[],[],[],[],[],,590.9794,590.9795,-0.315104167,-0.322916667,0,0,0,,0,115,115,134,1,1,word,QUALIFY,cursive,qualify_c.png,,,
,,,,31651,001,2025-10-18_19h46.19.365,HW_LDT_1,2024.2.4,Win32,111.1111111,,,,,,,,,,,,,,,,,,,,590.9808,591.1796,591.1797,591.6799,,,,,,,,,,,,0.9676,1,,,,,,,,,,,,,,z,,,,,,,,,,,,,,,117,0,591.6803,592.6485,,0,[-0.33645833333333336],[-0.2984375],[1],[0],[0],[0.9676000000238218],"[""button_left_main""]",592.6485,594.6429,594.643,594.6432,[],[],[],[],[],[],[],,594.6432,594.6433,-0.3359375,-0.301041667,0,0,0,,0,116,116,19,1,1,RL,monebate,print,monebate_p.png,,,
,,,,31651,001,2025-10-18_19h46.19.365,HW_LDT_1,2024.2.4,Win32,111.1111111,,,,,,,,,,,,,,,,,,,,594.6443,594.8433,594.8433,595.3442,,,,,,,,,,,,0.8752,1,,,,,,,,,,,,,,m,,,,,,,,,,,,,,,118,1,595.3446,596.2202,,0,[0.39114583333333336],[-0.2869791666666667],[1],[0],[0],[0.8752000000476983],"[""button_right_main""]",596.2203,598.215,598.2151,599.7338,[-0.32083333333333336],[-0.325],[1],[0],[0],[1.518699999928458],"[""button_left_probe""]",,599.7339,599.734,-0.320833333,-0.325,1,0,0,,0,117,117,147,1,1,word,ROMANTIC,cursive,romantic_c.png,,,
,,,,31651,001,2025-10-18_19h46.19.365,HW_LDT_1,2024.2.4,Win32,111.1111111,,,,,,,,,,,,,,,,,,,,599.7346,599.9349,599.9349,600.4354,,,,,,,,,,,,1.2338,1,,,,,,,,,,,,,,z,,,,,,,,,,,,,,,119,0,600.4357,601.6701,,0,[-0.340625],[-0.29791666666666666],[1],[0],[0],[1.2337999999522253],"[""button_left_main""]",601.6702,603.6648,603.6649,603.665,[],[],[],[],[],[],[],,603.6651,603.6652,-0.340625,-0.297916667,0,0,0,,0,118,118,79,1,1,TL,veretan,print,veretan_p.png,,,
,,,,31651,001,2025-10-18_19h46.19.365,HW_LDT_1,2024.2.4,Win32,111.1111111,,,,,,,,,,,,,,,,,,,,603.6662,603.8653,603.8653,604.366,,,,,,,,,,,,1.7849,1,,,,,,,,,,,,,,z,,,,,,,,,,,,,,,120,0,604.3666,606.1519,,0,[-0.36770833333333336],[-0.246875],[1],[0],[0],[1.7848999999762327],"[""button_left_main""]",606.152,608.1471,608.1471,608.1473,[],[],[],[],[],[],[],,608.1473,608.1473,-0.366145833,-0.256770833,0,0,0,,0,119,119,26,1,1,RL,quafidy,cursive,quafidy_c.png,,,
,,,,31651,001,2025-10-18_19h46.19.365,HW_LDT_1,2024.2.4,Win32,111.1111111,,,,,,,,,,,,,,,,,,,,608.1482,608.3472,608.3472,608.8505,,,,,,,,,,,,1.6906,1,,,,,,,,,,,,,,z,,,,,,,,,,,,,,,121,0,608.8508,610.5418,,0,[-0.328125],[-0.3229166666666667],[1],[0],[0],[1.6906000000238919],"[""button_left_main""]",610.5418,612.5366,612.5366,612.537,[],[],[],[],[],[],[],,612.537,612.5372,-0.328125,-0.322916667,0,0,0,,0,120,120,8,1,1,RL,debave,print,debave_p.png,,,
,,,,31651,001,2025-10-18_19h46.19.365,HW_LDT_1,2024.2.4,Win32,111.1111111,,,,,,,,,,,,,,,,,,,,612.5379,612.7373,612.7373,613.2376,,,,,,,,,,,,2.169,1,,,,,,,,,,,,,,z,,,,,,,,,,,,,,,122,1,613.2381,615.4076,,0,[-0.3703125],[-0.31354166666666666],[1],[0],[0],[2.1689999999999827],"[""button_left_main""]",615.4076,617.4024,617.4025,620.0229,[-0.37135416666666665],[-0.3078125],[1],[0],[0],[2.6201999999284453],"[""button_left_probe""]",,620.023,620.023,-0.371354167,-0.3078125,1,0,0,,0,121,121,35,1,1,RL,senvilent,cursive,senvilent_c.png,,,
,,,,31651,001,2025-10-18_19h46.19.365,HW_LDT_1,2024.2.4,Win32,111.1111111,,,,,,,,,,,,,,,,,,,,620.0238,620.2234,620.2234,620.7239,,,,,,,,,,,,1.5767,1,,,,,,,,,,,,,,z,,,,,,,,,,,,,,,123,0,620.7243,622.3014,,0,[-0.375],[-0.29583333333333334],[1],[0],[0],[1.5766999999284508],"[""button_left_main""]",622.3014,624.2962,624.2963,624.2965,[],[],[],[],[],[],[],,624.2966,624.2967,-0.375,-0.295833333,0,0,0,,0,122,122,14,1,1,RL,lofase,print,lofase_p.png,,,
,,,,31651,001,2025-10-18_19h46.19.365,HW_LDT_1,2024.2.4,Win32,111.1111111,,,,,,,,,,,,,,,,,,,,624.2976,624.4966,624.4967,624.997,,,,,,,,,,,,3.5299,1,,,,,,,,,,,,,,z,,,,,,,,,,,,,,,124,0,624.9974,628.5277,,0,[-0.39114583333333336],[-0.275],[1],[0],[0],[3.5298999999762373],"[""button_left_main""]",628.5278,630.522,630.5221,630.5222,[],[],[],[],[],[],[],,630.5222,630.5222,-0.393229167,-0.271875,0,0,0,,0,123,123,61,1,1,TL,mecidine,cursive,mecidine_c.png,,,
,,,,31651,001,2025-10-18_19h46.19.365,HW_LDT_1,2024.2.4,Win32,111.1111111,,,,,,,,,,,,,,,,,,,,630.523,630.7227,630.7227,631.2234,,,,,,,,,,,,1.9603,1,,,,,,,,,,,,,,m,,,,,,,,,,,,,,,125,0,631.2238,633.1844,,0,[0.371875],[-0.30572916666666666],[1],[0],[0],[1.9602999999522126],"[""button_right_main""]",633.1845,635.1797,635.1798,635.18,[],[],[],[],[],[],[],,635.18,635.1801,0.371875,-0.305729167,0,0,0,,0,124,124,104,1,1,word,DOMINANT,cursive,dominant_c.png,,,
,,,,31651,001,2025-10-18_19h46.19.365,HW_LDT_1,2024.2.4,Win32,111.1111111,,,,,,,,,,,,,,,,,,,,635.181,635.38,635.38,635.8807,,,,,,,,,,,,1.1172,1,,,,,,,,,,,,,,z,,,,,,,,,,,,,,,126,0,635.8812,636.9987,,0,[-0.3729166666666667],[-0.29739583333333336],[1],[0],[0],[1.1172000000477738],"[""button_left_main""]",636.9988,638.9966,638.9967,638.9969,[],[],[],[],[],[],[],,638.997,638.997,-0.372916667,-0.297395833,0,0,0,,0,125,125,43,1,1,TL,bedise,print,bedise_p.png,,,
,,,,31651,001,2025-10-18_19h46.19.365,HW_LDT_1,2024.2.4,Win32,111.1111111,,,,,,,,,,,,,,,,,,,,638.998,639.1939,639.194,639.6959,,,,,,,,,,,,1.5171,1,,,,,,,,,,,,,,z,,,,,,,,,,,,,,,127,0,639.6963,641.2136,,0,[-0.39791666666666664],[-0.29791666666666666],[1],[0],[0],[1.5171000000237882],"[""button_left_main""]",641.2137,643.2083,643.2083,643.2086,[],[],[],[],[],[],[],,643.2086,643.2086,-0.397916667,-0.297916667,0,0,0,,0,126,126,60,1,1,TL,manire,print,manire_p.png,,,
,,,,31651,001,2025-10-18_19h46.19.365,HW_LDT_1,2024.2.4,Win32,111.1111111,,,,,,,,,,,,,,,,,,,,643.2102,643.4085,643.4085,643.9096,,,,,,,,,,,,2.219,1,,,,,,,,,,,,,,m,,,,,,,,,,,,,,,128,0,643.9099,646.1291,,0,[0.34791666666666665],[-0.3182291666666667],[1],[0],[0],[2.219000000000051],"[""button_right_main""]",646.1292,648.1237,648.1238,648.1239,[],[],[],[],[],[],[],,648.124,648.1241,0.349479167,-0.316145833,0,0,0,,0,127,127,118,1,1,word,MEDICINE,cursive,medicine_c.png,,,
,,,,31651,001,2025-10-18_19h46.19.365,HW_LDT_1,2024.2.4,Win32,111.1111111,,,,,,,,,,,,,,,,,,,,648.1249,648.3272,648.3272,648.825,,,,,,,,,,,,2.8116,1,,,,,,,,,,,,,,z,,,,,,,,,,,,,,,129,0,648.8255,651.6376,,0,[-0.35885416666666664],[-0.3375],[1],[0],[0],[2.811600000023873],"[""button_left_main""]",651.6377,653.6346,653.6346,653.6348,[],[],[],[],[],[],[],,653.6348,653.6349,-0.351041667,-0.350520833,0,0,0,,0,128,128,33,1,1,RL,recile,cursive,recile_c.png,,,
,,,,31651,001,2025-10-18_19h46.19.365,HW_LDT_1,2024.2.4,Win32,111.1111111,,,,,,,,,,,,,,,,,,,,653.6355,653.8325,653.8325,654.3335,,,,,,,,,,,,3.6459,1,,,,,,,,,,,,,,z,,,,,,,,,,,,,,,130,0,654.3339,657.9804,,0,[-0.37864583333333335],[-0.2833333333333333],[1],[0],[0],[3.645899999976109],"[""button_left_main""]",657.9805,659.9751,659.9751,659.9753,[],[],[],[],[],[],[],,659.9754,659.9755,-0.378645833,-0.283333333,0,0,0,,0,129,129,64,1,1,TL,orepator,cursive,orepator_c.png,,,
,,,,31651,001,2025-10-18_19h46.19.365,HW_LDT_1,2024.2.4,Win32,111.1111111,,,,,,,,,,,,,,,,,,,,659.9764,660.176,660.176,660.6764,,,,,,,,,,,,1.9435,0,,,,,,,,,,,,,,m,,,,,,,,,,,,,,,131,0,660.677,662.6208,,0,[-0.3494791666666667],[-0.31614583333333335],[1],[0],[0],[1.9434999999999718],"[""button_left_main""]",662.6208,664.6153,664.6153,664.6155,[],[],[],[],[],[],[],,664.6155,664.6156,-0.349479167,-0.316145833,0,0,0,,0,130,130,103,1,1,word,DISPUTE,cursive,dispute_c.png,,,
,,,,31651,001,2025-10-18_19h46.19.365,HW_LDT_1,2024.2.4,Win32,111.1111111,,,,,,,,,,,,,,,,,,,,664.6168,664.8156,664.8157,665.3171,,,,,,,,,,,,0.9917,1,,,,,,,,,,,,,,z,,,,,,,,,,,,,,,132,0,665.3175,666.3096,,0,[-0.3645833333333333],[-0.2911458333333333],[1],[0],[0],[0.9917000000476719],"[""button_left_main""]",666.3097,668.3043,668.3043,668.3045,[],[],[],[],[],[],[],,668.3045,668.3045,-0.372395833,-0.302604167,0,0,0,,0,131,131,18,1,1,RL,mishafe,print,mishafe_p.png,,,
,,,,31651,001,2025-10-18_19h46.19.365,HW_LDT_1,2024.2.4,Win32,111.1111111,,,,,,,,,,,,,,,,,,,,668.3053,668.505,668.5051,669.0054,,,,,,,,,,,,0.7671,1,,,,,,,,,,,,,,m,,,,,,,,,,,,,,,133,0,669.0058,669.7733,,0,[0.390625],[-0.3046875],[1],[0],[0],[0.7671000000239019],"[""button_right_main""]",669.7734,671.7681,671.7681,671.7684,[],[],[],[],[],[],[],,671.7684,671.7685,0.390625,-0.3046875,0,0,0,,0,132,132,100,1,1,word,DECADE,print,decade_p.png,,,
,,,,31651,001,2025-10-18_19h46.19.365,HW_LDT_1,2024.2.4,Win32,111.1111111,,,,,,,,,,,,,,,,,,,,671.7702,671.9683,671.9685,672.4691,,,,,,,,,,,,0.817,1,,,,,,,,,,,,,,m,,,,,,,,,,,,,,,134,1,672.4695,673.2869,,0,[0.3546875],[-0.32135416666666666],[1],[0],[0],[0.8170000000000073],"[""button_right_main""]",673.287,675.282,675.2821,676.7254,[-0.41354166666666664],[-0.27708333333333335],[1],[0],[0],[1.4431999999284244],"[""button_left_probe""]",,676.7254,676.7256,-0.413541667,-0.277083333,1,0,0,,0,133,133,137,1,1,word,RAPIDLY,cursive,rapidly_c.png,,,
,,,,31651,001,2025-10-18_19h46.19.365,HW_LDT_1,2024.2.4,Win32,111.1111111,,,,,,,,,,,,,,,,,,,,676.7263,676.9261,676.9262,677.4272,,,,,,,,,,,,1.1668,1,,,,,,,,,,,,,,m,,,,,,,,,,,,,,,135,0,677.4277,678.595,,0,[0.409375],[-0.31614583333333335],[1],[0],[0],[1.1667999999523317],"[""button_right_main""]",678.595,680.5896,680.5896,680.5897,[],[],[],[],[],[],[],,680.5897,680.5899,0.409375,-0.316145833,0,0,0,,0,134,134,133,1,1,word,PROVIDE,print,provide_p.png,,,
,,,,31651,001,2025-10-18_19h46.19.365,HW_LDT_1,2024.2.4,Win32,111.1111111,,,,,,,,,,,,,,,,,,,,680.5909,680.7899,680.79,681.2908,,,,,,,,,,,,1.2014,1,,,,,,,,,,,,,,m,,,,,,,,,,,,,,,136,0,681.2912,682.4928,,0,[0.39947916666666666],[-0.30833333333333335],[1],[0],[0],[1.2013999999761609],"[""button_right_main""]",682.4929,684.4871,684.4872,684.4873,[],[],[],[],[],[],[],,684.4873,684.4875,0.399479167,-0.308333333,0,0,0,,0,135,135,113,1,1,word,LITERAL,print,literal_p.png,,,
,,,,31651,001,2025-10-18_19h46.19.365,HW_LDT_1,2024.2.4,Win32,111.1111111,,,,,,,,,,,,,,,,,,,,684.4885,684.6876,684.6876,685.1882,,,,,,,,,,,,0.7288,1,,,,,,,,,,,,,,m,,,,,,,,,,,,,,,137,0,685.1886,685.9177,,0,[0.4197916666666667],[-0.2989583333333333],[1],[0],[0],[0.7288000000716011],"[""button_right_main""]",685.9177,687.9174,687.9175,687.9176,[],[],[],[],[],[],[],,687.9176,687.9176,0.416666667,-0.309895833,0,0,0,,0,136,136,95,1,1,word,COMEDY,cursive,comedy_c.png,,,
,,,,31651,001,2025-10-18_19h46.19.365,HW_LDT_1,2024.2.4,Win32,111.1111111,,,,,,,,,,,,,,,,,,,,687.9183,688.1178,688.1179,688.6185,,,,,,,,,,,,1.1008,1,,,,,,,,,,,,,,z,,,,,,,,,,,,,,,138,0,688.6188,689.7201,,0,[-0.39375],[-0.29739583333333336],[1],[0],[0],[1.1007999999523008],"[""button_left_main""]",689.7202,691.7151,691.7153,691.7154,[],[],[],[],[],[],[],,691.7154,691.7156,-0.3875,-0.3125,0,0,0,,0,137,137,22,1,1,RL,patisic,print,patisic_p.png,,,
,,,,31651,001,2025-10-18_19h46.19.365,HW_LDT_1,2024.2.4,Win32,111.1111111,,,,,,,,,,,,,,,,,,,,691.7163,691.9152,691.9153,692.4158,,,,,,,,,,,,3.3795,1,,,,,,,,,,,,,,z,,,,,,,,,,,,,,,139,0,692.4161,695.796,,0,[-0.36302083333333335],[-0.25885416666666666],[1],[0],[0],[3.3795000000000073],"[""button_left_main""]",695.7961,697.7911,697.7911,697.7913,[],[],[],[],[],[],[],,697.7913,697.7914,-0.363020833,-0.258854167,0,0,0,,0,138,138,57,1,1,TL,hetirage,cursive,hetirage_c.png,,,
,,,,31651,001,2025-10-18_19h46.19.365,HW_LDT_1,2024.2.4,Win32,111.1111111,,,,,,,,,,,,,,,,,,,,697.7921,697.9909,697.991,698.4922,,,,,,,,,,,,1.2254,1,,,,,,,,,,,,,,z,,,,,,,,,,,,,,,140,0,698.4926,699.7185,,0,[-0.40989583333333335],[-0.2916666666666667],[1],[0],[0],[1.2253999999761618],"[""button_left_main""]",699.7186,701.7133,701.7134,701.7137,[],[],[],[],[],[],[],,701.7137,701.7138,-0.409895833,-0.291666667,0,0,0,,0,139,139,13,1,1,RL,linefal,print,linefal_p.png,,,
,,,,31651,001,2025-10-18_19h46.19.365,HW_LDT_1,2024.2.4,Win32,111.1111111,,,,,,,,,,,,,,,,,,,,701.7148,701.9138,701.9138,702.4144,,,,,,,,,,,,0.8752,0,,,,,,,,,,,,,,z,,,,,,,,,,,,,,,141,0,702.4148,703.2906,,0,[0.453125],[-0.30833333333333335],[1],[0],[0],[0.8752000000475846],"[""button_right_main""]",703.2906,705.2857,705.2858,705.2859,[],[],[],[],[],[],[],,705.286,705.286,0.453125,-0.308333333,0,0,0,,0,140,140,66,1,1,TL,panert,cursive,panert_c.png,,,
,,,,31651,001,2025-10-18_19h46.19.365,HW_LDT_1,2024.2.4,Win32,111.1111111,,,,,,,,,,,,,,,,,,,,705.2868,705.486,705.486,705.9863,,,,,,,,,,,,1.2432,1,,,,,,,,,,,,,,z,,,,,,,,,,,,,,,142,0,705.9865,707.2299,,0,[-0.44635416666666666],[-0.2671875],[1],[0],[0],[1.2431999999284926],"[""button_left_main""]",707.2299,709.2246,709.2246,709.2247,[],[],[],[],[],[],[],,709.2248,709.2248,-0.446354167,-0.2671875,0,0,0,,0,141,141,45,1,1,TL,cacapity,print,cacapity_p.png,,,
,,,,31651,001,2025-10-18_19h46.19.365,HW_LDT_1,2024.2.4,Win32,111.1111111,,,,,,,,,,,,,,,,,,,,709.2256,709.4251,709.4251,709.9257,,,,,,,,,,,,0.9093,1,,,,,,,,,,,,,,m,,,,,,,,,,,,,,,143,0,709.9261,710.8358,,0,[0.40520833333333334],[-0.3229166666666667],[1],[0],[0],[0.9092999999522817],"[""button_right_main""]",710.836,712.8302,712.8302,712.8304,[],[],[],[],[],[],[],,712.8304,712.8305,0.405208333,-0.322916667,0,0,0,,0,142,142,130,1,1,word,POLICY,cursive,policy_c.png,,,
,,,,31651,001,2025-10-18_19h46.19.365,HW_LDT_1,2024.2.4,Win32,111.1111111,,,,,,,,,,,,,,,,,,,,712.8313,713.0305,713.0305,713.5311,,,,,,,,,,,,2.9869,0,,,,,,,,,,,,,,z,,,,,,,,,,,,,,,144,1,713.5315,716.5189,,0,[0.39114583333333336],[-0.28958333333333336],[1],[0],[0],[2.986899999976117],"[""button_right_main""]",716.5189,718.5137,718.5137,719.5989,[-0.3875],[-0.3375],[1],[0],[0],[1.0851000000238855],"[""button_left_probe""]",,719.599,719.5991,-0.3875,-0.3375,1,0,0,,0,143,143,73,1,1,TL,ronamtic,cursive,ronamtic_c.png,,,
,,,,31651,001,2025-10-18_19h46.19.365,HW_LDT_1,2024.2.4,Win32,111.1111111,,,,,,,,,,,,,,,,,,,,719.5997,719.7995,719.7995,720.2997,,,,,,,,,,,,2.3613,1,,,,,,,,,,,,,,z,,,,,,,,,,,,,,,145,0,720.2999,722.6616,,0,[-0.37447916666666664],[-0.3109375],[1],[0],[0],[2.3612999999523936],"[""button_left_main""]",722.6617,724.6563,724.6563,724.6564,[],[],[],[],[],[],[],,724.6564,724.6565,-0.374479167,-0.3109375,0,0,0,,0,144,144,51,1,1,TL,corevage,print,corevage_p.png,,,
,,,,31651,001,2025-10-18_19h46.19.365,HW_LDT_1,2024.2.4,Win32,111.1111111,,,,,,,,,,,,,,,,,,,,724.6573,724.8566,724.8567,725.3579,,,,,,,,,,,,3.988,1,,,,,,,,,,,,,,z,,,,,,,,,,,,,,,146,1,725.3585,729.3468,,0,[-0.36354166666666665],[-0.3265625],[1],[0],[0],[3.9880000000000564],"[""button_left_main""]",729.3468,731.3416,731.3417,732.1593,[-0.37083333333333335],[-0.31614583333333335],[1],[0],[0],[0.8175999999045871],"[""button_left_probe""]",,732.1593,732.1595,-0.370833333,-0.316145833,1,0,0,,0,145,145,0,1,1,RL,abanemy,cursive,abanemy_c.png,,,
,,,,31651,001,2025-10-18_19h46.19.365,HW_LDT_1,2024.2.4,Win32,111.1111111,,,,,,,,,,,,,,,,,,,,732.1603,732.3543,732.3543,732.8548,,,,,,,,,,,,2.5704,1,,,,,,,,,,,,,,z,,,,,,,,,,,,,,,147,0,732.8553,735.4261,,0,[-0.37447916666666664],[-0.32083333333333336],[1],[0],[0],[2.570399999976189],"[""button_left_main""]",735.4261,737.4257,737.4258,737.4259,[],[],[],[],[],[],[],,737.426,737.4262,-0.374479167,-0.3234375,0,0,0,,0,146,146,21,1,1,RL,opcifal,print,opcifal_p.png,,,
,,,,31651,001,2025-10-18_19h46.19.365,HW_LDT_1,2024.2.4,Win32,111.1111111,,,,,,,,,,,,,,,,,,,,737.427,737.6264,737.6264,738.1271,,,,,,,,,,,,2.0016,1,,,,,,,,,,,,,,m,,,,,,,,,,,,,,,148,1,738.1277,740.1297,,0,[0.42083333333333334],[-0.32916666666666666],[1],[0],[0],[2.0016000000238137],"[""button_right_main""]",740.1297,742.1245,742.1245,743.6941,[0.36614583333333334],[-0.3453125],[1],[0],[0],[1.569399999976099],"[""button_right_probe""]",,743.6941,743.6943,0.366145833,-0.3453125,1,0,0,,0,147,147,90,1,1,word,CAPITAL,print,capital_p.png,,,
,,,,31651,001,2025-10-18_19h46.19.365,HW_LDT_1,2024.2.4,Win32,111.1111111,,,,,,,,,,,,,,,,,,,,743.695,743.8946,743.8946,744.3946,,,,,,,,,,,,1.76,1,,,,,,,,,,,,,,z,,,,,,,,,,,,,,,149,0,744.3951,746.1555,,0,[-0.37135416666666665],[-0.3078125],[1],[0],[0],[1.759999999999991],"[""button_left_main""]",746.1556,748.1521,748.1521,748.1522,[],[],[],[],[],[],[],,748.1522,748.1523,-0.371354167,-0.3078125,0,0,0,,0,148,148,17,1,1,RL,menowy,cursive,menowy_c.png,,,
,,,,31651,001,2025-10-18_19h46.19.365,HW_LDT_1,2024.2.4,Win32,111.1111111,,,,,,,,,,,,,,,,,,,,748.1529,748.3505,748.3505,748.8513,,,,,,,,,,,,0.8087,1,,,,,,,,,,,,,,m,,,,,,,,,,,,,,,150,0,748.8516,749.6608,,0,[0.42083333333333334],[-0.30416666666666664],[1],[0],[0],[0.8087000000476792],"[""button_right_main""]",749.6608,751.6585,751.6586,751.6587,[],[],[],[],[],[],[],,751.6588,751.6589,0.423958333,-0.326041667,0,0,0,,0,149,149,123,1,1,word,MODERATE,print,moderate_p.png,,,
,,,,31651,001,2025-10-18_19h46.19.365,HW_LDT_1,2024.2.4,Win32,111.1111111,,,,,,,,,,,,,,,,,,,,751.6598,751.8559,751.8559,752.3567,,,,,,,,,,,,4.481,1,,,,,,,,,,,,,,z,,,,,,,,,,,,,,,151,0,752.3571,756.8384,,0,[-0.3390625],[-0.3067708333333333],[1],[0],[0],[4.4809999999999945],"[""button_left_main""]",756.8384,758.833,758.833,758.8332,[],[],[],[],[],[],[],,758.8332,758.8333,-0.3390625,-0.306770833,0,0,0,,0,150,150,53,1,1,TL,dentisy,cursive,dentisy_c.png,,,
,,,,31651,001,2025-10-18_19h46.19.365,HW_LDT_1,2024.2.4,Win32,111.1111111,,,,,,,,,,,,,,,,,,,,758.8342,759.0338,759.0338,759.5341,,,,,,,,,,,,1.9956,1,,,,,,,,,,,,,,m,,,,,,,,,,,,,,,152,0,759.5345,761.5305,,0,[0.39427083333333335],[-0.290625],[1],[0],[0],[1.9956000000238419],"[""button_right_main""]",761.5306,763.5325,763.5326,763.5327,[],[],[],[],[],[],[],,763.5328,763.533,0.394270833,-0.290625,0,0,0,,0,151,151,127,1,1,word,ORIGINAL,cursive,original_c.png,,,
,,,,31651,001,2025-10-18_19h46.19.365,HW_LDT_1,2024.2.4,Win32,111.1111111,,,,,,,,,,,,,,,,,,,,763.5337,763.7327,763.7327,764.2332,,,,,,,,,,,,2.1271,1,,,,,,,,,,,,,,z,,,,,,,,,,,,,,,153,1,764.2337,766.3611,,0,[-0.38385416666666666],[-0.3067708333333333],[1],[0],[0],[2.127100000023802],"[""button_left_main""]",766.3613,768.3558,768.3559,769.6244,[-0.3729166666666667],[-0.3223958333333333],[1],[0],[0],[1.268299999952319],"[""button_left_probe""]",,769.6244,769.6245,-0.372916667,-0.322395833,1,0,0,,0,152,152,29,1,1,RL,refakive,cursive,refakive_c.png,,,
,,,,31651,001,2025-10-18_19h46.19.365,HW_LDT_1,2024.2.4,Win32,111.1111111,,,,,,,,,,,,,,,,,,,,769.6251,769.8251,769.8251,770.3259,,,,,,,,,,,,2.9782,1,,,,,,,,,,,,,,m,,,,,,,,,,,,,,,154,0,770.3264,773.305,,0,[0.36666666666666664],[-0.29322916666666665],[1],[0],[0],[2.9781999999285063],"[""button_right_main""]",773.305,775.3002,775.3003,775.3005,[],[],[],[],[],[],[],,775.3006,775.3007,0.366666667,-0.293229167,0,0,0,,0,153,153,87,1,1,word,CAFETERIA,cursive,cafeteria_c.png,,,
,,,,31651,001,2025-10-18_19h46.19.365,HW_LDT_1,2024.2.4,Win32,111.1111111,,,,,,,,,,,,,,,,,,,,775.3015,775.5003,775.5003,776.0006,,,,,,,,,,,,1.7519,1,,,,,,,,,,,,,,m,,,,,,,,,,,,,,,155,0,776.001,777.7533,,0,[0.36354166666666665],[-0.30520833333333336],[1],[0],[0],[1.7519000000954748],"[""button_right_main""]",777.7534,779.7486,779.7486,779.7487,[],[],[],[],[],[],[],,779.7488,779.7489,0.363541667,-0.305208333,0,0,0,,0,154,154,144,1,1,word,RESIDENT,print,resident_p.png,,,
,,,,31651,001,2025-10-18_19h46.19.365,HW_LDT_1,2024.2.4,Win32,111.1111111,,,,,,,,,,,,,,,,,,,,779.75,779.9484,779.9485,780.449,,,,,,,,,,,,2.194,1,,,,,,,,,,,,,,m,,,,,,,,,,,,,,,156,0,780.4495,782.6441,,0,[0.37916666666666665],[-0.3],[1],[0],[0],[2.19399999999996],"[""button_right_main""]",782.6442,784.6393,784.6393,784.6395,[],[],[],[],[],[],[],,784.6396,784.6396,0.378125,-0.302083333,0,0,0,,0,155,155,155,1,1,word,STRATEGY,cursive,strategy_c.png,,,
,,,,31651,001,2025-10-18_19h46.19.365,HW_LDT_1,2024.2.4,Win32,111.1111111,,,,,,,,,,,,,,,,,,,,784.6406,784.8396,784.8397,785.3402,,,,,,,,,,,,7.9359,1,,,,,,,,,,,,,,z,,,,,,,,,,,,,,,157,0,785.3407,793.2769,,0,[-0.37447916666666664],[-0.2869791666666667],[1],[0],[0],[7.935899999976186],"[""button_left_main""]",793.2769,795.272,795.272,795.2723,[],[],[],[],[],[],[],,795.2723,795.2725,-0.374479167,-0.286979167,0,0,0,,0,156,156,58,1,1,TL,incidate,cursive,incidate_c.png,,,
,,,,31651,001,2025-10-18_19h46.19.365,HW_LDT_1,2024.2.4,Win32,111.1111111,,,,,,,,,,,,,,,,,,,,795.2732,795.472,795.4721,795.9755,,,,,,,,,,,,0.7892,1,,,,,,,,,,,,,,m,,,,,,,,,,,,,,,158,1,795.9759,796.7655,,0,[0.35833333333333334],[-0.30104166666666665],[1],[0],[0],[0.789199999928428],"[""button_right_main""]",796.7655,798.7604,798.7604,800.0988,[0.36666666666666664],[-0.31614583333333335],[1],[0],[0],[1.3381000000238146],"[""button_right_probe""]",,800.0988,800.0988,0.366666667,-0.316145833,1,0,0,,0,157,157,158,1,1,word,VELOCITY,print,velocity_p.png,,,
,,,,31651,001,2025-10-18_19h46.19.365,HW_LDT_1,2024.2.4,Win32,111.1111111,,,,,,,,,,,,,,,,,,,,800.0994,800.2963,800.2964,800.7972,,,,,,,,,,,,3.8796,1,,,,,,,,,,,,,,m,,,,,,,,,,,,,,,159,0,800.7976,804.6774,,0,[0.3807291666666667],[-0.2989583333333333],[1],[0],[0],[3.8796000000238564],"[""button_right_main""]",804.6775,806.6728,806.6729,806.673,[],[],[],[],[],[],[],,806.673,806.6731,0.380729167,-0.298958333,0,0,0,,0,158,158,101,1,1,word,DELICATE,cursive,delicate_c.png,,,
,,,,31651,001,2025-10-18_19h46.19.365,HW_LDT_1,2024.2.4,Win32,111.1111111,,,,,,,,,,,,,,,,,,,,806.6739,806.873,806.8731,807.3732,,,,,,,,,,,,1.5267,1,,,,,,,,,,,,,,m,,,,,,,,,,,,,,,160,0,807.3736,808.9005,,0,[0.48489583333333336],[-0.31927083333333334],[1],[0],[0],[1.52670000004764],"[""button_right_main""]",808.9006,810.8956,810.8956,810.8958,[],[],[],[],[],[],[],,810.8958,810.8959,0.484895833,-0.319270833,0,0,0,,0,159,159,119,1,1,word,MEMORY,cursive,memory_c.png,,,
,,,,31651,001,2025-10-18_19h46.19.365,HW_LDT_1,2024.2.4,Win32,111.1111111,,,,,,,,,,,,,,,,,,,,,,,,,,,,,,,,,,,,,,,,,,,,,,,,,,,,,,,,,,,,,,,,,,,,,,,,,,,,,,,,,,,,,,,,,,,,,,,,,,,,,,,,,,,,,810.9089,815.8949
