counterbalance_lists.group,counterbalance_lists.remaining,get_list.started,get_list.stopped,participant,session,date,expName,psychopyVersion,OS,frameRate,Instructions.started,Instructions.stopped,key_resp.keys,key_resp.rt,key_resp.duration,instr_done_touch.x,instr_done_touch.y,instr_done_touch.leftButton,instr_done_touch.midButton,instr_done_touch.rightButton,start_instr.thisRepN,start_instr.thisTrialN,start_instr.thisN,start_instr.thisIndex,start_instr.ran,pageN,phase,instruct_text,has_image,instruct_image,showProgress.started,showProgress.stopped,fix.started,fix.stopped,prac.started,prac.stopped,response.keys,response.corr,response.rt,response.duration,touch_resp.x,touch_resp.y,touch_resp.leftButton,touch_resp.midButton,touch_resp.rightButton,touch_resp.time,touch_resp.clicked_name,rt,corr,feedback.started,feedback.stopped,trials.thisRepN,trials.thisTrialN,trials.thisN,trials.thisIndex,trials.ran,TrialID,StimulusType,Condition,PrimeDuration,Prime,Target,corrAns,Instructions_expt.started,Instructions_expt.stopped,key_resp_3.keys,key_resp_3.rt,key_resp_3.duration,instr_done_touch_3.x,instr_done_touch_3.y,instr_done_touch_3.leftButton,instr_done_touch_3.midButton,instr_done_touch_3.rightButton,instr_experiment.thisRepN,instr_experiment.thisTrialN,instr_experiment.thisN,instr_experiment.thisIndex,instr_experiment.ran,trialID,flag,maintask.started,maintask.stopped,key_resp_2.keys,key_resp_2.corr,key_resp_2.rt,key_resp_2.duration,targ_click.x,targ_click.y,targ_click.leftButton,targ_click.midButton,targ_click.rightButton,targ_click.time,targ_click.clicked_name,ITI.started,ITI.stopped,probe.started,probe.stopped,click_probe.x,click_probe.y,click_probe.leftButton,click_probe.midButton,click_probe.rightButton,click_probe.time,click_probe.clicked_name,key_resp_probe.keys,Break.started,Break.stopped,break_done_touch.x,break_done_touch.y,break_done_touch.leftButton,break_done_touch.midButton,break_done_touch.rightButton,break_done_keyboard.keys,list2_trials.thisRepN,list2_trials.thisTrialN,list2_trials.thisN,list2_trials.thisIndex,list2_trials.ran,list_id,item_type,string,font,stim_file,key_resp_probe.rt,key_resp_probe.duration,break_done_keyboard.rt,break_done_keyboard.duration,End.started,End.stopped
list2,,0.4091,0.4091,31676,001,2025-10-16_19h02.56.604,HW_LDT_1,2024.2.4,MacIntel,119.047619,,,,,,,,,,,,,,,,,,,,,,,,,,,,,,,,,,,,,,,,,,,,,,,,,,,,,,,,,,,,,,,,,,,,,,,,,,,,,,,,,,,,,,,,,,,,,,,,,,,,,,,,,,,,,,,,,,,,,,,
,,,,31676,001,2025-10-16_19h02.56.604,HW_LDT_1,2024.2.4,MacIntel,119.047619,0.428,24.7772,space,24.3286,,-0.067385913,-0.373594577,0,0,0,0,0,0,0,1,1,instructions,"INSTRUCTIONS
At the start of each trial, look at the plus sign  (+) in the center of the screen.  This tells you that a trial is about to begin and where to look. Second, the plus sign will disappear and a string of letters will appear. Your task is to determine if the string of letters is a word or not. If the item is a word press the M key (on keyboard)  or touch the word button (phone/tablet).  If the item is not a word,  press the  Z key (on keyboard)  or touch the nonword button (on phone/tablet). The items will be presented for a short time. 
Press the space bar or touch  continue.",0,,,,,,,,,,,,,,,,,,,,,,,,,,,,,,,,,,,,,,,,,,,,,,,,,,,,,,,,,,,,,,,,,,,,,,,,,,,,,,,,,,,,,,,,,,,,,,,,,,,,
,,,,31676,001,2025-10-16_19h02.56.604,HW_LDT_1,2024.2.4,MacIntel,119.047619,24.7792,29.4774,space,4.6764,,-0.067385913,-0.373594577,0,0,0,0,1,1,1,1,2,instructions,"If your device has a keyboard, press the 'Z' key for nonwords and the 'M' key for words.





Press the space bar or touch the button below to continue.",0,keyboard-example.gif,,,,,,,,,,,,,,,,,,,,,,,,,,,,,,,,,,,,,,,,,,,,,,,,,,,,,,,,,,,,,,,,,,,,,,,,,,,,,,,,,,,,,,,,,,,,,,,,,,,
,,,,31676,001,2025-10-16_19h02.56.604,HW_LDT_1,2024.2.4,MacIntel,119.047619,29.4789,32.1691,space,2.6681,,-0.067385913,-0.373594577,0,0,0,0,2,2,2,1,3,instructions,"If you are using a touchscreen only device, use the buttons on the screen. Do not use the mouse.





Press the space bar or touch the button below to continue.",0,touchscreen-example.gif,,,,,,,,,,,,,,,,,,,,,,,,,,,,,,,,,,,,,,,,,,,,,,,,,,,,,,,,,,,,,,,,,,,,,,,,,,,,,,,,,,,,,,,,,,,,,,,,,,,
,,,,31676,001,2025-10-16_19h02.56.604,HW_LDT_1,2024.2.4,MacIntel,119.047619,32.1712,35.4514,space,3.2589,,-0.067385913,-0.373594577,0,0,0,0,3,3,3,1,4,instructions,"It is very important that you respond as quickly and accurately as possible, as each letter string will only be on the screen for two seconds. If you do not respond within this time, the message 'Too slow!' will be displayed and the experiment will progress to the next letter string. The first 20 trials will be practice trials and you will receive feedback on your answers. 

Press the space bar or touch the button below to start the practice trials.",0,,,,,,,,,,,,,,,,,,,,,,,,,,,,,,,,,,,,,,,,,,,,,,,,,,,,,,,,,,,,,,,,,,,,,,,,,,,,,,,,,,,,,,,,,,,,,,,,,,,,
,,,,31676,001,2025-10-16_19h02.56.604,HW_LDT_1,2024.2.4,MacIntel,119.047619,,,,,,,,,,,,,,,,,,,,,35.4787,35.6515,35.6519,36.1521,36.1525,37.8933,z,1,1.7215,,[],[],[],[],[],[],[],1.7215,1,37.8936,38.3938,0,0,0,15,1,1016,NW,UN,16,mushed,WHAISE,z,,,,,,,,,,,,,,,,,,,,,,,,,,,,,,,,,,,,,,,,,,,,,,,,,,,,,,,,,,,,,,,,,,
,,,,31676,001,2025-10-16_19h02.56.604,HW_LDT_1,2024.2.4,MacIntel,119.047619,,,,,,,,,,,,,,,,,,,,,38.395,38.5935,38.5935,39.0935,39.0943,39.8936,z,1,0.7875,,[],[],[],[],[],[],[],0.7875,1,39.8937,40.3937,0,1,1,11,1,1012,NW,"ID",16,rashet,RASHET,z,,,,,,,,,,,,,,,,,,,,,,,,,,,,,,,,,,,,,,,,,,,,,,,,,,,,,,,,,,,,,,,,,,
,,,,31676,001,2025-10-16_19h02.56.604,HW_LDT_1,2024.2.4,MacIntel,119.047619,,,,,,,,,,,,,,,,,,,,,40.395,40.5936,40.5936,41.0936,41.0947,42.1512,m,1,1.0421,,[],[],[],[],[],[],[],1.0421,1,42.1513,42.6519,0,2,2,2,1,1003,WORD,"ID",16,almond,ALMOND,m,,,,,,,,,,,,,,,,,,,,,,,,,,,,,,,,,,,,,,,,,,,,,,,,,,,,,,,,,,,,,,,,,,
,,,,31676,001,2025-10-16_19h02.56.604,HW_LDT_1,2024.2.4,MacIntel,119.047619,,,,,,,,,,,,,,,,,,,,,42.6534,42.8519,42.852,43.352,43.3529,44.1686,z,1,0.8038,,[],[],[],[],[],[],[],0.8038,1,44.1687,44.6685,0,3,3,8,1,1009,NW,"ID",33,aslert,ASLERT,z,,,,,,,,,,,,,,,,,,,,,,,,,,,,,,,,,,,,,,,,,,,,,,,,,,,,,,,,,,,,,,,,,,
,,,,31676,001,2025-10-16_19h02.56.604,HW_LDT_1,2024.2.4,MacIntel,119.047619,,,,,,,,,,,,,,,,,,,,,44.6699,44.8686,44.8686,45.3685,45.3697,46.0936,m,1,0.7083,,[],[],[],[],[],[],[],0.7083,1,46.0937,46.5927,0,4,4,4,1,1005,WORD,UN,33,abound,SQUEAK,m,,,,,,,,,,,,,,,,,,,,,,,,,,,,,,,,,,,,,,,,,,,,,,,,,,,,,,,,,,,,,,,,,,
,,,,31676,001,2025-10-16_19h02.56.604,HW_LDT_1,2024.2.4,MacIntel,119.047619,,,,,,,,,,,,,,,,,,,,,46.5939,46.7933,46.7933,47.2934,47.2944,47.9768,m,1,0.6676,,[],[],[],[],[],[],[],0.6676,1,47.977,48.4769,0,5,5,3,1,1004,WORD,"ID",16,matrix,MATRIX,m,,,,,,,,,,,,,,,,,,,,,,,,,,,,,,,,,,,,,,,,,,,,,,,,,,,,,,,,,,,,,,,,,,
,,,,31676,001,2025-10-16_19h02.56.604,HW_LDT_1,2024.2.4,MacIntel,119.047619,,,,,,,,,,,,,,,,,,,,,48.4781,48.6768,48.6769,49.1769,49.1777,49.7269,m,1,0.5341,,[],[],[],[],[],[],[],0.5341,1,49.727,50.227,0,6,6,1,1,1002,WORD,"ID",33,adjust,ADJUST,m,,,,,,,,,,,,,,,,,,,,,,,,,,,,,,,,,,,,,,,,,,,,,,,,,,,,,,,,,,,,,,,,,,
,,,,31676,001,2025-10-16_19h02.56.604,HW_LDT_1,2024.2.4,MacIntel,119.047619,,,,,,,,,,,,,,,,,,,,,50.2284,50.4267,50.4267,50.9268,50.9279,51.8265,z,1,0.8849,,[],[],[],[],[],[],[],0.8849,1,51.8266,52.3262,0,7,7,9,1,1010,NW,"ID",33,fariny,FARINY,z,,,,,,,,,,,,,,,,,,,,,,,,,,,,,,,,,,,,,,,,,,,,,,,,,,,,,,,,,,,,,,,,,,
,,,,31676,001,2025-10-16_19h02.56.604,HW_LDT_1,2024.2.4,MacIntel,119.047619,,,,,,,,,,,,,,,,,,,,,52.3274,52.5268,52.5269,53.0266,53.0275,53.8769,z,1,0.8345,,[],[],[],[],[],[],[],0.8345,1,53.877,54.376,0,8,8,12,1,1013,NW,UN,33,adveil,SPRINY,z,,,,,,,,,,,,,,,,,,,,,,,,,,,,,,,,,,,,,,,,,,,,,,,,,,,,,,,,,,,,,,,,,,
,,,,31676,001,2025-10-16_19h02.56.604,HW_LDT_1,2024.2.4,MacIntel,119.047619,,,,,,,,,,,,,,,,,,,,,54.377,54.5768,54.5768,55.0768,55.0778,55.9518,z,1,0.8595,,[],[],[],[],[],[],[],0.8595,1,55.9519,56.4517,0,9,9,13,1,1014,NW,UN,33,winfer,ROUPET,z,,,,,,,,,,,,,,,,,,,,,,,,,,,,,,,,,,,,,,,,,,,,,,,,,,,,,,,,,,,,,,,,,,
,,,,31676,001,2025-10-16_19h02.56.604,HW_LDT_1,2024.2.4,MacIntel,119.047619,,,,,,,,,,,,,,,,,,,,,56.4529,56.6508,56.6508,57.1518,57.1527,57.6847,m,1,0.5169,,[],[],[],[],[],[],[],0.5169,1,57.6848,58.1853,0,10,10,7,1,1008,WORD,UN,16,hurdle,VOLUME,m,,,,,,,,,,,,,,,,,,,,,,,,,,,,,,,,,,,,,,,,,,,,,,,,,,,,,,,,,,,,,,,,,,
,,,,31676,001,2025-10-16_19h02.56.604,HW_LDT_1,2024.2.4,MacIntel,119.047619,,,,,,,,,,,,,,,,,,,,,58.1866,58.385,58.385,58.8844,58.8851,59.5101,m,1,0.6081,,[],[],[],[],[],[],[],0.6081,1,59.5101,60.0101,0,11,11,5,1,1006,WORD,UN,33,frenzy,OBTAIN,m,,,,,,,,,,,,,,,,,,,,,,,,,,,,,,,,,,,,,,,,,,,,,,,,,,,,,,,,,,,,,,,,,,
,,,,31676,001,2025-10-16_19h02.56.604,HW_LDT_1,2024.2.4,MacIntel,119.047619,,,,,,,,,,,,,,,,,,,,,60.0112,60.21,60.21,60.7099,60.7107,61.2675,m,1,0.5418,,[],[],[],[],[],[],[],0.5418,1,61.2677,61.7684,0,12,12,6,1,1007,WORD,UN,16,tropic,ZOMBIE,m,,,,,,,,,,,,,,,,,,,,,,,,,,,,,,,,,,,,,,,,,,,,,,,,,,,,,,,,,,,,,,,,,,
,,,,31676,001,2025-10-16_19h02.56.604,HW_LDT_1,2024.2.4,MacIntel,119.047619,,,,,,,,,,,,,,,,,,,,,61.7696,61.9684,61.9685,62.4684,62.4691,63.1174,m,1,0.6339,,[],[],[],[],[],[],[],0.6339,1,63.1175,63.6184,0,13,13,0,1,1001,WORD,"ID",33,utopia,UTOPIA,m,,,,,,,,,,,,,,,,,,,,,,,,,,,,,,,,,,,,,,,,,,,,,,,,,,,,,,,,,,,,,,,,,,
,,,,31676,001,2025-10-16_19h02.56.604,HW_LDT_1,2024.2.4,MacIntel,119.047619,,,,,,,,,,,,,,,,,,,,,63.6198,63.8183,63.8183,64.3176,64.3183,65.0353,z,1,0.7016,,[],[],[],[],[],[],[],0.7016,1,65.0354,65.535,0,14,14,10,1,1011,NW,"ID",16,inlade,INLADE,z,,,,,,,,,,,,,,,,,,,,,,,,,,,,,,,,,,,,,,,,,,,,,,,,,,,,,,,,,,,,,,,,,,
,,,,31676,001,2025-10-16_19h02.56.604,HW_LDT_1,2024.2.4,MacIntel,119.047619,,,,,,,,,,,,,,,,,,,,,65.5364,65.735,65.735,66.235,66.2357,67.1101,z,1,0.8591,,[],[],[],[],[],[],[],0.8591,1,67.1103,67.6091,0,15,15,14,1,1015,NW,UN,16,miaber,THRALE,z,,,,,,,,,,,,,,,,,,,,,,,,,,,,,,,,,,,,,,,,,,,,,,,,,,,,,,,,,,,,,,,,,,
,,,,31676,001,2025-10-16_19h02.56.604,HW_LDT_1,2024.2.4,MacIntel,119.047619,,,,,,,,,,,,,,,,1,end_of_practice,"You have completed the practice trials. During the experimental trials, you will not receive feedback. On some trials you will be asked to report whether the item you just saw was in cursive or print. 
Before you begin, please ensure that you are in a comfortable and quiet location and will not be disturbed for about 15 minutes, as we cannot use your data if you do not complete all the trials. 
 When you are ready to start the experimental trials, please press space or touch the button below.",,,,,,,,,,,,,,,,,,,,,,,,,,,,,,,,,,,,67.6158,79.168,space,11.529,,-0.067385913,-0.373594577,0,0,0,0,0,0,0,1,,,,,,,,,,,,,,,,,,,,,,,,,,,,,,,,,,,,,,,,,,,,,,,,,,,
,,,,31676,001,2025-10-16_19h02.56.604,HW_LDT_1,2024.2.4,MacIntel,119.047619,,,,,,,,,,,,,,,,,,,,,79.1804,79.3681,79.3682,79.8678,,,,,,,,,,,,,,1.1346,1,,,,,,,,,,,,,,m,,,,,,,,,,,,,,,,1,0,79.8695,81.0101,m,1,1.1346,,[],[],[],[],[],[],[],81.0105,83.009,83.0092,83.0122,[],[],[],[],[],[],[],,83.0124,83.0142,-0.067385913,-0.373594577,0,0,0,,0,0,0,139,1,2,word,REGULAR,cursive,regular_c.png,,,,,,
,,,,31676,001,2025-10-16_19h02.56.604,HW_LDT_1,2024.2.4,MacIntel,119.047619,,,,,,,,,,,,,,,,,,,,,83.0151,83.2097,83.2098,83.7098,,,,,,,,,,,,,,0.5776,1,,,,,,,,,,,,,,m,,,,,,,,,,,,,,,,2,0,83.7103,84.2931,m,1,0.5776,,[],[],[],[],[],[],[],84.2932,86.2931,86.2932,86.2933,[],[],[],[],[],[],[],,86.2933,86.2935,-0.067385913,-0.373594577,0,0,0,,0,1,1,131,1,2,word,POPULAR,cursive,popular_c.png,,,,,,
,,,,31676,001,2025-10-16_19h02.56.604,HW_LDT_1,2024.2.4,MacIntel,119.047619,,,,,,,,,,,,,,,,,,,,,86.2946,86.4922,86.4923,86.993,,,,,,,,,,,,,,0.9532,1,,,,,,,,,,,,,,z,,,,,,,,,,,,,,,,3,0,86.9936,87.9514,z,1,0.9532,,[],[],[],[],[],[],[],87.9515,89.9513,89.9514,89.9516,[],[],[],[],[],[],[],,89.9517,89.9518,-0.067385913,-0.373594577,0,0,0,,0,2,2,46,1,2,TL,codemy,cursive,codemy_c.png,,,,,,
,,,,31676,001,2025-10-16_19h02.56.604,HW_LDT_1,2024.2.4,MacIntel,119.047619,,,,,,,,,,,,,,,,,,,,,89.953,90.1507,90.1508,90.6513,,,,,,,,,,,,,,0.945,1,,,,,,,,,,,,,,m,,,,,,,,,,,,,,,,4,0,90.6519,91.6015,m,1,0.945,,[],[],[],[],[],[],[],91.6015,93.6013,93.6013,93.6016,[],[],[],[],[],[],[],,93.6016,93.6016,-0.067385913,-0.373594577,0,0,0,,0,3,3,117,1,2,word,MARINE,cursive,marine_c.png,,,,,,
,,,,31676,001,2025-10-16_19h02.56.604,HW_LDT_1,2024.2.4,MacIntel,119.047619,,,,,,,,,,,,,,,,,,,,,93.6024,93.8004,93.8005,94.3004,,,,,,,,,,,,,,0.9623,1,,,,,,,,,,,,,,z,,,,,,,,,,,,,,,,5,0,94.3011,95.2675,z,1,0.9623,,[],[],[],[],[],[],[],95.2676,97.268,97.268,97.2682,[],[],[],[],[],[],[],,97.2682,97.2684,-0.067385913,-0.373594577,0,0,0,,0,4,4,31,1,2,RL,spetisic,print,spetisic_p.png,,,,,,
,,,,31676,001,2025-10-16_19h02.56.604,HW_LDT_1,2024.2.4,MacIntel,119.047619,,,,,,,,,,,,,,,,,,,,,97.2694,97.4672,97.4673,97.968,,,,,,,,,,,,,,1.2028,1,,,,,,,,,,,,,,z,,,,,,,,,,,,,,,,6,1,97.9685,99.1763,z,1,1.2028,,[],[],[],[],[],[],[],99.1763,101.1756,101.1757,103.6849,[],[],[],[],[],[],[],z,103.685,103.6852,-0.067385913,-0.373594577,0,0,0,,0,5,5,32,1,2,RL,speniven,print,speniven_p.png,2.508,,,,,
,,,,31676,001,2025-10-16_19h02.56.604,HW_LDT_1,2024.2.4,MacIntel,119.047619,,,,,,,,,,,,,,,,,,,,,103.6861,103.8846,103.8847,104.3845,,,,,,,,,,,,,,1.4606,1,,,,,,,,,,,,,,z,,,,,,,,,,,,,,,,7,0,104.3849,105.8513,z,1,1.4606,,[],[],[],[],[],[],[],105.8515,107.8512,107.8514,107.8517,[],[],[],[],[],[],[],,107.8518,107.8518,-0.067385913,-0.373594577,0,0,0,,0,6,6,30,1,2,RL,selamor,print,selamor_p.png,,,,,,
,,,,31676,001,2025-10-16_19h02.56.604,HW_LDT_1,2024.2.4,MacIntel,119.047619,,,,,,,,,,,,,,,,,,,,,107.8531,108.0512,108.0513,108.5505,,,,,,,,,,,,,,1.1829,1,,,,,,,,,,,,,,z,,,,,,,,,,,,,,,,8,0,108.551,109.7344,z,1,1.1829,,[],[],[],[],[],[],[],109.7346,111.7344,111.7345,111.7347,[],[],[],[],[],[],[],,111.7348,111.7349,-0.067385913,-0.373594577,0,0,0,,0,7,7,78,1,2,TL,stogare,print,stogare_p.png,,,,,,
,,,,31676,001,2025-10-16_19h02.56.604,HW_LDT_1,2024.2.4,MacIntel,119.047619,,,,,,,,,,,,,,,,,,,,,111.7358,111.9345,111.9345,112.434,,,,,,,,,,,,,,0.6779,1,,,,,,,,,,,,,,m,,,,,,,,,,,,,,,,9,0,112.4344,113.1179,m,1,0.6779,,[],[],[],[],[],[],[],113.1179,115.1178,115.1178,115.118,[],[],[],[],[],[],[],,115.1181,115.1182,-0.067385913,-0.373594577,0,0,0,,0,8,8,99,1,2,word,DEBATE,print,debate_p.png,,,,,,
,,,,31676,001,2025-10-16_19h02.56.604,HW_LDT_1,2024.2.4,MacIntel,119.047619,,,,,,,,,,,,,,,,,,,,,115.1189,115.3176,115.3177,115.8168,,,,,,,,,,,,,,0.8545,1,,,,,,,,,,,,,,z,,,,,,,,,,,,,,,,10,0,115.8173,116.6751,z,1,0.8545,,[],[],[],[],[],[],[],116.6752,118.676,118.6761,118.6762,[],[],[],[],[],[],[],,118.6762,118.6764,-0.067385913,-0.373594577,0,0,0,,0,9,9,74,1,2,TL,rerite,cursive,rerite_c.png,,,,,,
,,,,31676,001,2025-10-16_19h02.56.604,HW_LDT_1,2024.2.4,MacIntel,119.047619,,,,,,,,,,,,,,,,,,,,,118.6773,118.876,118.8761,119.376,,,,,,,,,,,,,,0.5871,1,,,,,,,,,,,,,,z,,,,,,,,,,,,,,,,11,0,119.3764,119.968,z,1,0.5871,,[],[],[],[],[],[],[],119.968,121.9676,121.9677,121.9679,[],[],[],[],[],[],[],,121.9679,121.9681,-0.067385913,-0.373594577,0,0,0,,0,10,10,35,1,2,RL,vesofity,print,vesofity_p.png,,,,,,
,,,,31676,001,2025-10-16_19h02.56.604,HW_LDT_1,2024.2.4,MacIntel,119.047619,,,,,,,,,,,,,,,,,,,,,121.9691,122.1677,122.1677,122.6675,,,,,,,,,,,,,,0.5952,1,,,,,,,,,,,,,,z,,,,,,,,,,,,,,,,12,1,122.6682,123.2667,z,1,0.5952,,[],[],[],[],[],[],[],123.2668,125.2676,125.2677,126.7427,[],[],[],[],[],[],[],m,126.7428,126.7428,-0.067385913,-0.373594577,0,0,0,,0,11,11,36,1,2,RL,vecelan,print,vecelan_p.png,1.4708,,,,,
,,,,31676,001,2025-10-16_19h02.56.604,HW_LDT_1,2024.2.4,MacIntel,119.047619,,,,,,,,,,,,,,,,,,,,,126.7437,126.9417,126.9417,127.4428,,,,,,,,,,,,,,1.3402,1,,,,,,,,,,,,,,z,,,,,,,,,,,,,,,,13,0,127.4433,128.7843,z,1,1.3402,,[],[],[],[],[],[],[],128.7844,130.7843,130.7844,130.7845,[],[],[],[],[],[],[],,130.7845,130.7846,-0.067385913,-0.373594577,0,0,0,,0,12,12,19,1,2,RL,monebate,cursive,monebate_c.png,,,,,,
,,,,31676,001,2025-10-16_19h02.56.604,HW_LDT_1,2024.2.4,MacIntel,119.047619,,,,,,,,,,,,,,,,,,,,,130.7855,130.9844,130.9844,131.4843,,,,,,,,,,,,,,1.6782,0,,,,,,,,,,,,,,m,,,,,,,,,,,,,,,,14,0,131.4848,133.1677,z,0,1.6782,,[],[],[],[],[],[],[],133.1677,135.1677,135.1678,135.1679,[],[],[],[],[],[],[],,135.1679,135.1681,-0.067385913,-0.373594577,0,0,0,,0,13,13,103,1,2,word,DISPUTE,cursive,dispute_c.png,,,,,,
,,,,31676,001,2025-10-16_19h02.56.604,HW_LDT_1,2024.2.4,MacIntel,119.047619,,,,,,,,,,,,,,,,,,,,,135.1693,135.3676,135.3677,135.8675,,,,,,,,,,,,,,1.4285,1,,,,,,,,,,,,,,m,,,,,,,,,,,,,,,,15,0,135.8678,137.301,m,1,1.4285,,[],[],[],[],[],[],[],137.3012,139.3006,139.3006,139.3009,[],[],[],[],[],[],[],,139.3009,139.301,-0.067385913,-0.373594577,0,0,0,,0,14,14,108,1,2,word,FORTUNE,print,fortune_p.png,,,,,,
,,,,31676,001,2025-10-16_19h02.56.604,HW_LDT_1,2024.2.4,MacIntel,119.047619,,,,,,,,,,,,,,,,,,,,,139.302,139.5008,139.501,140.0008,,,,,,,,,,,,,,0.9031,1,,,,,,,,,,,,,,m,,,,,,,,,,,,,,,,16,0,140.0013,140.9093,m,1,0.9031,,[],[],[],[],[],[],[],140.9094,142.9088,142.9089,142.9089,[],[],[],[],[],[],[],,142.9091,142.9091,-0.067385913,-0.373594577,0,0,0,,0,15,15,130,1,2,word,POLICY,print,policy_p.png,,,,,,
,,,,31676,001,2025-10-16_19h02.56.604,HW_LDT_1,2024.2.4,MacIntel,119.047619,,,,,,,,,,,,,,,,,,,,,142.9101,143.1082,143.1082,143.6093,,,,,,,,,,,,,,1.628,1,,,,,,,,,,,,,,m,,,,,,,,,,,,,,,,17,0,143.6099,145.2429,m,1,1.628,,[],[],[],[],[],[],[],145.243,147.2419,147.2419,147.2421,[],[],[],[],[],[],[],,147.2422,147.2422,-0.067385913,-0.373594577,0,0,0,,0,16,16,93,1,2,word,CEREMONY,print,ceremony_p.png,,,,,,
,,,,31676,001,2025-10-16_19h02.56.604,HW_LDT_1,2024.2.4,MacIntel,119.047619,,,,,,,,,,,,,,,,,,,,,147.2432,147.4416,147.4417,147.9424,,,,,,,,,,,,,,0.6279,1,,,,,,,,,,,,,,m,,,,,,,,,,,,,,,,18,0,147.9431,148.5759,m,1,0.6279,,[],[],[],[],[],[],[],148.576,150.5757,150.5758,150.576,[],[],[],[],[],[],[],,150.5761,150.5761,-0.067385913,-0.373594577,0,0,0,,0,17,17,128,1,2,word,PACIFIC,print,pacific_p.png,,,,,,
,,,,31676,001,2025-10-16_19h02.56.604,HW_LDT_1,2024.2.4,MacIntel,119.047619,,,,,,,,,,,,,,,,,,,,,150.5771,150.7759,150.7759,151.2758,,,,,,,,,,,,,,1.3785,1,,,,,,,,,,,,,,m,,,,,,,,,,,,,,,,19,0,151.2763,152.6582,m,1,1.3785,,[],[],[],[],[],[],[],152.6583,154.659,154.6591,154.6592,[],[],[],[],[],[],[],,154.6593,154.6593,-0.067385913,-0.373594577,0,0,0,,0,18,18,94,1,2,word,CLINICAL,cursive,clinical_c.png,,,,,,
,,,,31676,001,2025-10-16_19h02.56.604,HW_LDT_1,2024.2.4,MacIntel,119.047619,,,,,,,,,,,,,,,,,,,,,154.6602,154.8592,154.8593,155.3583,,,,,,,,,,,,,,0.5795,1,,,,,,,,,,,,,,m,,,,,,,,,,,,,,,,20,0,155.3587,155.9425,m,1,0.5795,,[],[],[],[],[],[],[],155.9426,157.9426,157.9426,157.9428,[],[],[],[],[],[],[],,157.9428,157.9429,-0.067385913,-0.373594577,0,0,0,,0,19,19,140,1,2,word,RELATIVE,print,relative_p.png,,,,,,
,,,,31676,001,2025-10-16_19h02.56.604,HW_LDT_1,2024.2.4,MacIntel,119.047619,,,,,,,,,,,,,,,,,,,,,157.9439,158.1422,158.1423,158.6421,,,,,,,,,,,,,,0.6393,1,,,,,,,,,,,,,,m,,,,,,,,,,,,,,,,21,0,158.6425,159.2831,m,1,0.6393,,[],[],[],[],[],[],[],159.2832,161.2839,161.2839,161.2841,[],[],[],[],[],[],[],,161.2842,161.2843,-0.067385913,-0.373594577,0,0,0,,0,20,20,101,1,2,word,DELICATE,print,delicate_p.png,,,,,,
,,,,31676,001,2025-10-16_19h02.56.604,HW_LDT_1,2024.2.4,MacIntel,119.047619,,,,,,,,,,,,,,,,,,,,,161.2853,161.484,161.484,161.9841,,,,,,,,,,,,,,0.7687,1,,,,,,,,,,,,,,z,,,,,,,,,,,,,,,,22,0,161.9846,162.759,z,1,0.7687,,[],[],[],[],[],[],[],162.7591,164.7586,164.7587,164.7589,[],[],[],[],[],[],[],,164.7589,164.759,-0.067385913,-0.373594577,0,0,0,,0,21,21,49,1,2,TL,dedace,print,dedace_p.png,,,,,,
,,,,31676,001,2025-10-16_19h02.56.604,HW_LDT_1,2024.2.4,MacIntel,119.047619,,,,,,,,,,,,,,,,,,,,,164.7597,164.9592,164.9592,165.4579,,,,,,,,,,,,,,1.7711,1,,,,,,,,,,,,,,m,,,,,,,,,,,,,,,,23,0,165.4583,167.234,m,1,1.7711,,[],[],[],[],[],[],[],167.234,169.2337,169.2338,169.2339,[],[],[],[],[],[],[],,169.2339,169.234,-0.067385913,-0.373594577,0,0,0,,0,22,22,134,1,2,word,QUALIFY,cursive,qualify_c.png,,,,,,
,,,,31676,001,2025-10-16_19h02.56.604,HW_LDT_1,2024.2.4,MacIntel,119.047619,,,,,,,,,,,,,,,,,,,,,169.2351,169.4339,169.4339,169.9339,,,,,,,,,,,,,,1.1452,1,,,,,,,,,,,,,,z,,,,,,,,,,,,,,,,24,0,169.9345,171.0838,z,1,1.1452,,[],[],[],[],[],[],[],171.0839,173.0838,173.0838,173.084,[],[],[],[],[],[],[],,173.0842,173.0842,-0.067385913,-0.373594577,0,0,0,,0,23,23,58,1,2,TL,mitilary,cursive,mitilary_c.png,,,,,,
,,,,31676,001,2025-10-16_19h02.56.604,HW_LDT_1,2024.2.4,MacIntel,119.047619,,,,,,,,,,,,,,,,,,,,,173.0851,173.283,173.2831,173.7839,,,,,,,,,,,,,,0.681,0,,,,,,,,,,,,,,z,,,,,,,,,,,,,,,,25,0,173.7844,174.4672,m,0,0.681,,[],[],[],[],[],[],[],174.4674,176.4664,176.4665,176.4667,[],[],[],[],[],[],[],,176.4667,176.4667,-0.067385913,-0.373594577,0,0,0,,0,24,24,64,1,2,TL,paficic,print,paficic_p.png,,,,,,
,,,,31676,001,2025-10-16_19h02.56.604,HW_LDT_1,2024.2.4,MacIntel,119.047619,,,,,,,,,,,,,,,,,,,,,176.4675,176.6669,176.6669,177.1672,,,,,,,,,,,,,,2.5108,1,,,,,,,,,,,,,,z,,,,,,,,,,,,,,,,26,0,177.1677,179.6836,z,1,2.5108,,[],[],[],[],[],[],[],179.6837,181.6831,181.6831,181.6833,[],[],[],[],[],[],[],,181.6833,181.6835,-0.067385913,-0.373594577,0,0,0,,0,25,25,67,1,2,TL,quafily,cursive,quafily_c.png,,,,,,
,,,,31676,001,2025-10-16_19h02.56.604,HW_LDT_1,2024.2.4,MacIntel,119.047619,,,,,,,,,,,,,,,,,,,,,181.6844,181.8838,181.8839,182.3827,,,,,,,,,,,,,,1.0796,0,,,,,,,,,,,,,,z,,,,,,,,,,,,,,,,27,0,182.3831,183.4672,m,0,1.0796,,[],[],[],[],[],[],[],183.4672,185.4672,185.4673,185.4674,[],[],[],[],[],[],[],,185.4675,185.4675,-0.067385913,-0.373594577,0,0,0,,0,26,26,47,1,2,TL,crinimal,cursive,crinimal_c.png,,,,,,
,,,,31676,001,2025-10-16_19h02.56.604,HW_LDT_1,2024.2.4,MacIntel,119.047619,,,,,,,,,,,,,,,,,,,,,185.4682,185.6671,185.6671,186.1671,,,,,,,,,,,,,,1.7693,1,,,,,,,,,,,,,,z,,,,,,,,,,,,,,,,28,0,186.1675,187.9418,z,1,1.7693,,[],[],[],[],[],[],[],187.942,189.9417,189.9418,189.9419,[],[],[],[],[],[],[],,189.942,189.942,-0.067385913,-0.373594577,0,0,0,,0,27,27,37,1,2,TL,adacemy,cursive,adacemy_c.png,,,,,,
,,,,31676,001,2025-10-16_19h02.56.604,HW_LDT_1,2024.2.4,MacIntel,119.047619,,,,,,,,,,,,,,,,,,,,,189.9428,190.1419,190.1419,190.6417,,,,,,,,,,,,,,0.7118,1,,,,,,,,,,,,,,m,,,,,,,,,,,,,,,,29,0,190.6426,191.3584,m,1,0.7118,,[],[],[],[],[],[],[],191.3586,193.3584,193.3584,193.3585,[],[],[],[],[],[],[],,193.3585,193.3586,-0.067385913,-0.373594577,0,0,0,,0,28,28,92,1,2,word,CATEGORY,print,category_p.png,,,,,,
,,,,31676,001,2025-10-16_19h02.56.604,HW_LDT_1,2024.2.4,MacIntel,119.047619,,,,,,,,,,,,,,,,,,,,,193.3592,193.5589,193.5589,194.0584,,,,,,,,,,,,,,0.6608,1,,,,,,,,,,,,,,m,,,,,,,,,,,,,,,,30,0,194.0588,194.7254,m,1,0.6608,,[],[],[],[],[],[],[],194.7255,196.7252,196.7253,196.7254,[],[],[],[],[],[],[],,196.7255,196.7256,-0.067385913,-0.373594577,0,0,0,,0,29,29,114,1,2,word,LOCATE,print,locate_p.png,,,,,,
,,,,31676,001,2025-10-16_19h02.56.604,HW_LDT_1,2024.2.4,MacIntel,119.047619,,,,,,,,,,,,,,,,,,,,,196.7265,196.9244,196.9244,197.425,,,,,,,,,,,,,,1.3128,1,,,,,,,,,,,,,,z,,,,,,,,,,,,,,,,31,1,197.4255,198.741,z,1,1.3128,,[],[],[],[],[],[],[],198.7411,200.7419,200.7421,202.7918,[],[],[],[],[],[],[],z,202.7919,202.7921,-0.067385913,-0.373594577,0,0,0,,0,30,30,26,1,2,RL,retupar,cursive,retupar_c.png,2.0469,,,,,
,,,,31676,001,2025-10-16_19h02.56.604,HW_LDT_1,2024.2.4,MacIntel,119.047619,,,,,,,,,,,,,,,,,,,,,202.7934,202.9911,202.9911,203.4918,,,,,,,,,,,,,,1.9951,1,,,,,,,,,,,,,,z,,,,,,,,,,,,,,,,32,1,203.4926,205.4918,z,1,1.9951,,[],[],[],[],[],[],[],205.492,207.4918,207.4919,212.2491,[],[],[],[],[],[],[],z,212.2492,212.2493,-0.067385913,-0.373594577,0,0,0,,0,31,31,73,1,2,TL,redisent,print,redisent_p.png,4.7536,,,,,
,,,,31676,001,2025-10-16_19h02.56.604,HW_LDT_1,2024.2.4,MacIntel,119.047619,,,,,,,,,,,,,,,,,,,,,212.2502,212.4499,212.4499,212.9501,,,,,,,,,,,,,,0.9719,1,,,,,,,,,,,,,,m,,,,,,,,,,,,,,,,33,1,212.9504,213.9251,m,1,0.9719,,[],[],[],[],[],[],[],213.9252,215.925,215.925,218.2666,[],[],[],[],[],[],[],z,218.2668,218.2669,-0.067385913,-0.373594577,0,0,0,,0,32,32,133,1,2,word,PROVIDE,cursive,provide_c.png,2.3372,,,,,
,,,,31676,001,2025-10-16_19h02.56.604,HW_LDT_1,2024.2.4,MacIntel,119.047619,,,,,,,,,,,,,,,,,,,,,218.2754,218.4659,218.466,218.9668,,,,,,,,,,,,,,1.3782,1,,,,,,,,,,,,,,z,,,,,,,,,,,,,,,,34,0,218.9673,220.3501,z,1,1.3782,,[],[],[],[],[],[],[],220.3503,222.3502,222.3503,222.3504,[],[],[],[],[],[],[],,222.3505,222.3505,-0.067385913,-0.373594577,0,0,0,,0,33,33,29,1,2,RL,samite,cursive,samite_c.png,,,,,,
,,,,31676,001,2025-10-16_19h02.56.604,HW_LDT_1,2024.2.4,MacIntel,119.047619,,,,,,,,,,,,,,,,,,,,,222.3525,222.5499,222.55,223.0499,,,,,,,,,,,,,,0.8707,1,,,,,,,,,,,,,,m,,,,,,,,,,,,,,,,35,0,223.0504,223.9241,m,1,0.8707,,[],[],[],[],[],[],[],223.9242,225.924,225.924,225.9242,[],[],[],[],[],[],[],,225.9243,225.9245,-0.067385913,-0.373594577,0,0,0,,0,34,34,104,1,2,word,DOMINANT,print,dominant_p.png,,,,,,
,,,,31676,001,2025-10-16_19h02.56.604,HW_LDT_1,2024.2.4,MacIntel,119.047619,,,,,,,,,,,,,,,,,,,,,225.9256,226.1239,226.124,226.6249,,,,,,,,,,,,,,0.7119,1,,,,,,,,,,,,,,m,,,,,,,,,,,,,,,,36,0,226.6256,227.3407,m,1,0.7119,,[],[],[],[],[],[],[],227.3407,229.3413,229.3413,229.3415,[],[],[],[],[],[],[],,229.3416,229.3416,-0.067385913,-0.373594577,0,0,0,,0,35,35,118,1,2,word,MEDICINE,print,medicine_p.png,,,,,,
,,,,31676,001,2025-10-16_19h02.56.604,HW_LDT_1,2024.2.4,MacIntel,119.047619,,,,,,,,,,,,,,,,,,,,,229.3428,229.5416,229.5416,230.0416,,,,,,,,,,,,,,0.8619,1,,,,,,,,,,,,,,z,,,,,,,,,,,,,,,,37,0,230.0422,230.9084,z,1,0.8619,,[],[],[],[],[],[],[],230.9084,232.9081,232.9082,232.9083,[],[],[],[],[],[],[],,232.9084,232.9084,-0.067385913,-0.373594577,0,0,0,,0,36,36,13,1,2,RL,helicage,print,helicage_p.png,,,,,,
,,,,31676,001,2025-10-16_19h02.56.604,HW_LDT_1,2024.2.4,MacIntel,119.047619,,,,,,,,,,,,,,,,,,,,,232.9091,233.1081,233.1083,233.6084,,,,,,,,,,,,,,1.2317,1,,,,,,,,,,,,,,z,,,,,,,,,,,,,,,,38,0,233.609,234.8416,z,1,1.2317,,[],[],[],[],[],[],[],234.8417,236.8417,236.8417,236.8419,[],[],[],[],[],[],[],,236.8419,236.842,-0.067385913,-0.373594577,0,0,0,,0,37,37,71,1,2,TL,retome,cursive,retome_c.png,,,,,,
,,,,31676,001,2025-10-16_19h02.56.604,HW_LDT_1,2024.2.4,MacIntel,119.047619,,,,,,,,,,,,,,,,,,,,,236.8433,237.0414,237.0416,237.5415,,,,,,,,,,,,,,1.2949,1,,,,,,,,,,,,,,m,,,,,,,,,,,,,,,,39,0,237.5419,238.8415,m,1,1.2949,,[],[],[],[],[],[],[],238.8415,240.8409,240.841,240.8411,[],[],[],[],[],[],[],,240.8411,240.8412,-0.067385913,-0.373594577,0,0,0,,0,38,38,81,1,2,word,ADVISORY,print,advisory_p.png,,,,,,
,,,,31676,001,2025-10-16_19h02.56.604,HW_LDT_1,2024.2.4,MacIntel,119.047619,,,,,,,,,,,,,,,,,,,,,240.8422,241.0411,241.0411,241.5415,,,,,,,,,,,,,,1.1291,0,,,,,,,,,,,,,,m,,,,,,,,,,,,,,,,40,0,241.542,242.6744,z,0,1.1291,,[],[],[],[],[],[],[],242.6745,244.6746,244.6746,244.6747,[],[],[],[],[],[],[],,244.6748,244.6749,-0.067385913,-0.373594577,0,0,0,,0,39,39,90,1,2,word,CAPITAL,cursive,capital_c.png,,,,,,
,,,,31676,001,2025-10-16_19h02.56.604,HW_LDT_1,2024.2.4,MacIntel,119.047619,,,,,,,,,,,,,,,,,,,,,244.676,244.8747,244.8747,245.3747,,,,,,,,,,,,,,1.0863,1,,,,,,,,,,,,,,z,,,,,,,,,,,,,,,,41,0,245.3753,246.4664,z,1,1.0863,,[],[],[],[],[],[],[],246.4666,248.4664,248.4664,248.4666,[],[],[],[],[],[],[],,248.4666,248.4667,-0.067385913,-0.373594577,0,0,0,,0,40,40,41,1,2,TL,befenit,cursive,befenit_c.png,,,,,,
,,,,31676,001,2025-10-16_19h02.56.604,HW_LDT_1,2024.2.4,MacIntel,119.047619,,,,,,,,,,,,,,,,,,,,,248.4676,248.6662,248.6663,249.1664,,,,,,,,,,,,,,0.7354,1,,,,,,,,,,,,,,z,,,,,,,,,,,,,,,,42,0,249.1671,249.9081,z,1,0.7354,,[],[],[],[],[],[],[],249.9081,251.9079,251.9079,251.9081,[],[],[],[],[],[],[],,251.9081,251.9082,-0.067385913,-0.373594577,0,0,0,,0,41,41,8,1,2,RL,desifate,print,desifate_p.png,,,,,,
,,,,31676,001,2025-10-16_19h02.56.604,HW_LDT_1,2024.2.4,MacIntel,119.047619,,,,,,,,,,,,,,,,,,,,,251.9094,252.1079,252.1079,252.608,,,,,,,,,,,,,,0.7205,1,,,,,,,,,,,,,,z,,,,,,,,,,,,,,,,43,1,252.6086,253.3329,z,1,0.7205,,[],[],[],[],[],[],[],253.3329,255.3328,255.3329,256.2497,[],[],[],[],[],[],[],z,256.2497,256.2499,-0.067385913,-0.373594577,0,0,0,,0,42,42,44,1,2,TL,catipal,cursive,catipal_c.png,0.9122,,,,,
,,,,31676,001,2025-10-16_19h02.56.604,HW_LDT_1,2024.2.4,MacIntel,119.047619,,,,,,,,,,,,,,,,,,,,,256.2511,256.4496,256.4497,256.9496,,,,,,,,,,,,,,1.5366,1,,,,,,,,,,,,,,m,,,,,,,,,,,,,,,,44,0,256.9502,258.4913,m,1,1.5366,,[],[],[],[],[],[],[],258.4914,260.4912,260.4912,260.4913,[],[],[],[],[],[],[],,260.4914,260.4916,-0.067385913,-0.373594577,0,0,0,,0,43,43,82,1,2,word,AMATEUR,cursive,amateur_c.png,,,,,,
,,,,31676,001,2025-10-16_19h02.56.604,HW_LDT_1,2024.2.4,MacIntel,119.047619,,,,,,,,,,,,,,,,,,,,,260.4928,260.6908,260.6909,261.1914,,,,,,,,,,,,,,1.6031,1,,,,,,,,,,,,,,m,,,,,,,,,,,,,,,,45,0,261.1919,262.7985,m,1,1.6031,,[],[],[],[],[],[],[],262.7985,264.7994,264.7995,264.7998,[],[],[],[],[],[],[],,264.7998,264.7999,-0.067385913,-0.373594577,0,0,0,,0,44,44,141,1,2,word,RELIGION,cursive,religion_c.png,,,,,,
,,,,31676,001,2025-10-16_19h02.56.604,HW_LDT_1,2024.2.4,MacIntel,119.047619,,,,,,,,,,,,,,,,,,,,,264.8007,264.9988,264.9988,265.4994,,,,,,,,,,,,,,0.9867,1,,,,,,,,,,,,,,z,,,,,,,,,,,,,,,,46,0,265.4998,266.4912,z,1,0.9867,,[],[],[],[],[],[],[],266.4913,268.4911,268.4912,268.4914,[],[],[],[],[],[],[],,268.4915,268.4915,-0.067385913,-0.373594577,0,0,0,,0,45,45,22,1,2,RL,posity,print,posity_p.png,,,,,,
,,,,31676,001,2025-10-16_19h02.56.604,HW_LDT_1,2024.2.4,MacIntel,119.047619,,,,,,,,,,,,,,,,,,,,,268.4925,268.6911,268.6912,269.1911,,,,,,,,,,,,,,3.3315,1,,,,,,,,,,,,,,m,,,,,,,,,,,,,,,,47,0,269.1917,272.5244,m,1,3.3315,,[],[],[],[],[],[],[],272.5246,274.5242,274.5243,274.5244,[],[],[],[],[],[],[],,274.5245,274.5245,-0.067385913,-0.373594577,0,0,0,,0,46,46,135,1,2,word,QUALITY,cursive,quality_c.png,,,,,,
,,,,31676,001,2025-10-16_19h02.56.604,HW_LDT_1,2024.2.4,MacIntel,119.047619,,,,,,,,,,,,,,,,,,,,,274.5255,274.7244,274.7244,275.2243,,,,,,,,,,,,,,2.5531,1,,,,,,,,,,,,,,z,,,,,,,,,,,,,,,,48,0,275.2251,277.7828,z,1,2.5531,,[],[],[],[],[],[],[],277.7829,279.7817,279.7817,279.7819,[],[],[],[],[],[],[],,279.7819,279.782,-0.067385913,-0.373594577,0,0,0,,0,47,47,59,1,2,TL,miskate,cursive,miskate_c.png,,,,,,
,,,,31676,001,2025-10-16_19h02.56.604,HW_LDT_1,2024.2.4,MacIntel,119.047619,,,,,,,,,,,,,,,,,,,,,279.7827,279.9826,279.9827,280.4826,,,,,,,,,,,,,,0.8036,1,,,,,,,,,,,,,,m,,,,,,,,,,,,,,,,49,0,280.4831,281.291,m,1,0.8036,,[],[],[],[],[],[],[],281.2912,283.2922,283.2922,283.2923,[],[],[],[],[],[],[],,283.2923,283.2923,-0.067385913,-0.373594577,0,0,0,,0,48,48,144,1,2,word,RESIDENT,print,resident_p.png,,,,,,
,,,,31676,001,2025-10-16_19h02.56.604,HW_LDT_1,2024.2.4,MacIntel,119.047619,,,,,,,,,,,,,,,,,,,,,283.2928,283.4901,283.4901,283.9909,,,,,,,,,,,,,,0.787,1,,,,,,,,,,,,,,z,,,,,,,,,,,,,,,,50,0,283.9913,284.7827,z,1,0.787,,[],[],[],[],[],[],[],284.7829,286.7825,286.7826,286.7827,[],[],[],[],[],[],[],,286.7827,286.7828,-0.067385913,-0.373594577,0,0,0,,0,49,49,2,1,2,RL,casagity,print,casagity_p.png,,,,,,
,,,,31676,001,2025-10-16_19h02.56.604,HW_LDT_1,2024.2.4,MacIntel,119.047619,,,,,,,,,,,,,,,,,,,,,286.7836,286.9826,286.9826,287.4824,,,,,,,,,,,,,,1.2537,1,,,,,,,,,,,,,,z,,,,,,,,,,,,,,,,51,0,287.4829,288.7409,z,1,1.2537,,[],[],[],[],[],[],[],288.741,290.7409,290.7409,290.7411,[],[],[],[],[],[],[],,290.7412,290.7412,-0.067385913,-0.373594577,0,0,0,,0,50,50,66,1,2,TL,prodive,cursive,prodive_c.png,,,,,,
,,,,31676,001,2025-10-16_19h02.56.604,HW_LDT_1,2024.2.4,MacIntel,119.047619,,,,,,,,,,,,,,,,,,,,,290.7425,290.9407,290.9407,291.4408,,,,,,,,,,,,,,0.84,1,,,,,,,,,,,,,,m,,,,,,,,,,,,,,,,52,0,291.4414,292.2822,m,1,0.84,,[],[],[],[],[],[],[],292.2823,294.2826,294.2826,294.2827,[],[],[],[],[],[],[],,294.2828,294.2829,-0.067385913,-0.373594577,0,0,0,,0,51,51,149,1,2,word,SENATOR,print,senator_p.png,,,,,,
,,,,31676,001,2025-10-16_19h02.56.604,HW_LDT_1,2024.2.4,MacIntel,119.047619,,,,,,,,,,,,,,,,,,,,,294.2838,294.4818,294.4819,294.9817,,,,,,,,,,,,,,1.016,1,,,,,,,,,,,,,,z,,,,,,,,,,,,,,,,53,0,294.9822,295.9993,z,1,1.016,,[],[],[],[],[],[],[],295.9994,297.9989,297.999,297.999,[],[],[],[],[],[],[],,297.9992,297.9992,-0.067385913,-0.373594577,0,0,0,,0,52,52,48,1,2,TL,detabe,print,detabe_p.png,,,,,,
,,,,31676,001,2025-10-16_19h02.56.604,HW_LDT_1,2024.2.4,MacIntel,119.047619,,,,,,,,,,,,,,,,,,,,,298,298.1991,298.1991,298.699,,,,,,,,,,,,,,0.8029,1,,,,,,,,,,,,,,m,,,,,,,,,,,,,,,,54,1,298.6997,299.5076,m,1,0.8029,,[],[],[],[],[],[],[],299.5077,301.5071,301.5072,302.5075,[],[],[],[],[],[],[],m,302.5076,302.5078,-0.067385913,-0.373594577,0,0,0,,0,53,53,152,1,2,word,SPECIMEN,print,specimen_p.png,0.9963,,,,,
,,,,31676,001,2025-10-16_19h02.56.604,HW_LDT_1,2024.2.4,MacIntel,119.047619,,,,,,,,,,,,,,,,,,,,,302.5089,302.7075,302.7075,303.2074,,,,,,,,,,,,,,0.8035,1,,,,,,,,,,,,,,z,,,,,,,,,,,,,,,,55,0,303.2078,304.0149,z,1,0.8035,,[],[],[],[],[],[],[],304.0149,306.0148,306.0149,306.015,[],[],[],[],[],[],[],,306.015,306.015,-0.067385913,-0.373594577,0,0,0,,0,54,54,77,1,2,TL,sloten,print,sloten_p.png,,,,,,
,,,,31676,001,2025-10-16_19h02.56.604,HW_LDT_1,2024.2.4,MacIntel,119.047619,,,,,,,,,,,,,,,,,,,,,306.0157,306.2157,306.2159,306.7158,,,,,,,,,,,,,,1.6543,0,,,,,,,,,,,,,,m,,,,,,,,,,,,,,,,56,0,306.7165,308.3742,z,0,1.6543,,[],[],[],[],[],[],[],308.3743,310.3731,310.3732,310.3733,[],[],[],[],[],[],[],,310.3733,310.3734,-0.067385913,-0.373594577,0,0,0,,0,55,55,126,1,2,word,OPTIMAL,cursive,optimal_c.png,,,,,,
,,,,31676,001,2025-10-16_19h02.56.604,HW_LDT_1,2024.2.4,MacIntel,119.047619,,,,,,,,,,,,,,,,,,,,,310.3744,310.5741,310.5742,311.0739,,,,,,,,,,,,,,1.2703,1,,,,,,,,,,,,,,m,,,,,,,,,,,,,,,,57,0,311.0746,312.3486,m,1,1.2703,,[],[],[],[],[],[],[],312.3488,314.3486,314.3487,314.3488,[],[],[],[],[],[],[],,314.3488,314.3489,-0.067385913,-0.373594577,0,0,0,,0,56,56,142,1,2,word,REMOTE,cursive,remote_c.png,,,,,,
,,,,31676,001,2025-10-16_19h02.56.604,HW_LDT_1,2024.2.4,MacIntel,119.047619,,,,,,,,,,,,,,,,,,,,,314.35,314.5481,314.5481,315.0488,,,,,,,,,,,,,,1.1655,1,,,,,,,,,,,,,,z,,,,,,,,,,,,,,,,58,0,315.0494,316.2159,z,1,1.1655,,[],[],[],[],[],[],[],316.2159,318.2155,318.2156,318.2158,[],[],[],[],[],[],[],,318.2158,318.2159,-0.067385913,-0.373594577,0,0,0,,0,57,57,33,1,2,RL,strapely,cursive,strapely_c.png,,,,,,
,,,,31676,001,2025-10-16_19h02.56.604,HW_LDT_1,2024.2.4,MacIntel,119.047619,,,,,,,,,,,,,,,,,,,,,318.217,318.4155,318.4155,318.9156,,,,,,,,,,,,,,1.9778,1,,,,,,,,,,,,,,m,,,,,,,,,,,,,,,,59,0,318.9162,320.899,m,1,1.9778,,[],[],[],[],[],[],[],320.8992,322.8986,322.8986,322.8987,[],[],[],[],[],[],[],,322.8989,322.8989,-0.067385913,-0.373594577,0,0,0,,0,58,58,155,1,2,word,STRATEGY,cursive,strategy_c.png,,,,,,
,,,,31676,001,2025-10-16_19h02.56.604,HW_LDT_1,2024.2.4,MacIntel,119.047619,,,,,,,,,,,,,,,,,,,,,322.8999,323.0988,323.0989,323.5983,,,,,,,,,,,,,,0.7956,1,,,,,,,,,,,,,,z,,,,,,,,,,,,,,,,60,0,323.5989,324.3988,z,1,0.7956,,[],[],[],[],[],[],[],324.3989,326.398,326.3981,326.3983,[],[],[],[],[],[],[],,326.3983,326.3984,-0.067385913,-0.373594577,0,0,0,,0,59,59,25,1,2,RL,rabigly,print,rabigly_p.png,,,,,,
,,,,31676,001,2025-10-16_19h02.56.604,HW_LDT_1,2024.2.4,MacIntel,119.047619,,,,,,,,,,,,,,,,,,,,,326.3997,326.5988,326.5988,327.0987,,,,,,,,,,,,,,1.0194,1,,,,,,,,,,,,,,m,,,,,,,,,,,,,,,,61,0,327.0992,328.1239,m,1,1.0194,,[],[],[],[],[],[],[],328.124,330.1237,330.1238,330.124,[],[],[],[],[],[],[],,330.1241,330.1242,-0.067385913,-0.373594577,0,0,0,,0,60,60,157,1,2,word,VALIDITY,print,validity_p.png,,,,,,
,,,,31676,001,2025-10-16_19h02.56.604,HW_LDT_1,2024.2.4,MacIntel,119.047619,,,,,,,,,,,,,,,,,,,,,330.1253,330.3238,330.3238,330.8228,,,,,,,,,,,,,,1.6125,0,,,,,,,,,,,,,,m,,,,,,,,,,,,,,,,62,0,330.8233,332.4407,z,0,1.6125,,[],[],[],[],[],[],[],332.4408,334.4408,334.4408,334.441,[],[],[],[],[],[],[],,334.441,334.441,-0.067385913,-0.373594577,0,0,0,,0,61,61,111,1,2,word,INDICATE,cursive,indicate_c.png,,,,,,
,,,,31676,001,2025-10-16_19h02.56.604,HW_LDT_1,2024.2.4,MacIntel,119.047619,,,,,,,,,,,,,,,,,,,,,334.4421,334.6404,334.6405,335.1399,,,,,,,,,,,,,,1.7208,1,,,,,,,,,,,,,,z,,,,,,,,,,,,,,,,63,0,335.1404,336.8653,z,1,1.7208,,[],[],[],[],[],[],[],336.8653,338.8646,338.8647,338.8651,[],[],[],[],[],[],[],,338.8651,338.8652,-0.067385913,-0.373594577,0,0,0,,0,62,62,1,1,2,RL,caleberia,print,caleberia_p.png,,,,,,
,,,,31676,001,2025-10-16_19h02.56.604,HW_LDT_1,2024.2.4,MacIntel,119.047619,,,,,,,,,,,,,,,,,,,,,338.8662,339.0653,339.0654,339.5653,,,,,,,,,,,,,,1.0115,1,,,,,,,,,,,,,,z,,,,,,,,,,,,,,,,64,0,339.5658,340.5821,z,1,1.0115,,[],[],[],[],[],[],[],340.5822,342.5819,342.582,342.5822,[],[],[],[],[],[],[],,342.5822,342.5823,-0.067385913,-0.373594577,0,0,0,,0,63,63,75,1,2,TL,ronamtic,print,ronamtic_p.png,,,,,,
,,,,31676,001,2025-10-16_19h02.56.604,HW_LDT_1,2024.2.4,MacIntel,119.047619,,,,,,,,,,,,,,,,,,,,,342.5832,342.781,342.7811,343.2821,,,,,,,,,,,,,,1.5354,1,,,,,,,,,,,,,,z,,,,,,,,,,,,,,,,65,0,343.2827,344.8236,z,1,1.5354,,[],[],[],[],[],[],[],344.8237,346.8235,346.8235,346.8237,[],[],[],[],[],[],[],,346.8237,346.8239,-0.067385913,-0.373594577,0,0,0,,0,64,64,23,1,2,RL,procogal,cursive,procogal_c.png,,,,,,
,,,,31676,001,2025-10-16_19h02.56.604,HW_LDT_1,2024.2.4,MacIntel,119.047619,,,,,,,,,,,,,,,,,,,,,346.8248,347.0236,347.0237,347.5236,,,,,,,,,,,,,,2.4531,1,,,,,,,,,,,,,,m,,,,,,,,,,,,,,,,66,0,347.5242,349.982,m,1,2.4531,,[],[],[],[],[],[],[],349.9821,351.9819,351.9819,351.9821,[],[],[],[],[],[],[],,351.9822,351.9822,-0.067385913,-0.373594577,0,0,0,,0,65,65,98,1,2,word,CRIMINAL,cursive,criminal_c.png,,,,,,
,,,,31676,001,2025-10-16_19h02.56.604,HW_LDT_1,2024.2.4,MacIntel,119.047619,,,,,,,,,,,,,,,,,,,,,351.9833,352.1819,352.1819,352.6819,,,,,,,,,,,,,,0.8028,1,,,,,,,,,,,,,,m,,,,,,,,,,,,,,,,67,0,352.6825,353.4903,m,1,0.8028,,[],[],[],[],[],[],[],353.4905,355.4901,355.4901,355.4903,[],[],[],[],[],[],[],,355.4903,355.4903,-0.067385913,-0.373594577,0,0,0,,0,66,66,137,1,2,word,RAPIDLY,print,rapidly_p.png,,,,,,
,,,,31676,001,2025-10-16_19h02.56.604,HW_LDT_1,2024.2.4,MacIntel,119.047619,,,,,,,,,,,,,,,,,,,,,355.4914,355.6894,355.6894,356.1901,,,,,,,,,,,,,,1.4543,1,,,,,,,,,,,,,,z,,,,,,,,,,,,,,,,68,0,356.1905,357.6485,z,1,1.4543,,[],[],[],[],[],[],[],357.6485,359.6484,359.6485,359.6488,[],[],[],[],[],[],[],,359.6489,359.649,-0.067385913,-0.373594577,0,0,0,,0,67,67,7,1,2,RL,cocewage,cursive,cocewage_c.png,,,,,,
,,,,31676,001,2025-10-16_19h02.56.604,HW_LDT_1,2024.2.4,MacIntel,119.047619,,,,,,,,,,,,,,,,,,,,,359.6502,359.8481,359.8481,360.3479,,,,,,,,,,,,,,1.1123,0,,,,,,,,,,,,,,m,,,,,,,,,,,,,,,,69,0,360.3483,361.4652,z,0,1.1123,,[],[],[],[],[],[],[],361.4653,363.4651,363.4652,363.4654,[],[],[],[],[],[],[],,363.4655,363.4657,-0.067385913,-0.373594577,0,0,0,,0,68,68,105,1,2,word,EDITOR,cursive,editor_c.png,,,,,,
,,,,31676,001,2025-10-16_19h02.56.604,HW_LDT_1,2024.2.4,MacIntel,119.047619,,,,,,,,,,,,,,,,,,,,,363.467,363.6642,363.6643,364.1649,,,,,,,,,,,,,,0.8359,1,,,,,,,,,,,,,,z,,,,,,,,,,,,,,,,70,0,364.1654,365.0068,z,1,0.8359,,[],[],[],[],[],[],[],365.0069,367.0062,367.0063,367.0064,[],[],[],[],[],[],[],,367.0065,367.0066,-0.067385913,-0.373594577,0,0,0,,0,69,69,16,1,2,RL,losipal,print,losipal_p.png,,,,,,
,,,,31676,001,2025-10-16_19h02.56.604,HW_LDT_1,2024.2.4,MacIntel,119.047619,,,,,,,,,,,,,,,,,,,,,367.0077,367.2067,367.2068,367.7058,,,,,,,,,,,,,,0.9793,1,,,,,,,,,,,,,,z,,,,,,,,,,,,,,,,71,0,367.7062,368.6893,z,1,0.9793,,[],[],[],[],[],[],[],368.6893,370.6902,370.6903,370.6906,[],[],[],[],[],[],[],,370.6907,370.6907,-0.067385913,-0.373594577,0,0,0,,0,70,70,43,1,2,TL,carema,print,carema_p.png,,,,,,
,,,,31676,001,2025-10-16_19h02.56.604,HW_LDT_1,2024.2.4,MacIntel,119.047619,,,,,,,,,,,,,,,,,,,,,370.6918,370.8898,370.8898,371.3899,,,,,,,,,,,,,,0.8117,1,,,,,,,,,,,,,,m,,,,,,,,,,,,,,,,72,0,371.3904,372.2065,m,1,0.8117,,[],[],[],[],[],[],[],372.2066,374.2066,374.2066,374.2068,[],[],[],[],[],[],[],,374.2068,374.2069,-0.067385913,-0.373594577,0,0,0,,0,71,71,154,1,2,word,STORAGE,print,storage_p.png,,,,,,
,,,,31676,001,2025-10-16_19h02.56.604,HW_LDT_1,2024.2.4,MacIntel,119.047619,,,,,,,,,,,,,,,,,,,,,374.2078,374.4057,374.4058,374.9065,,,,,,,,,,,,,,1.6536,0,,,,,,,,,,,,,,m,,,,,,,,,,,,,,,,73,0,374.9071,376.5651,z,0,1.6536,,[],[],[],[],[],[],[],376.5652,378.565,378.5651,378.5652,[],[],[],[],[],[],[],,378.5652,378.5653,-0.067385913,-0.373594577,0,0,0,,0,72,72,121,1,2,word,MISTAKE,cursive,mistake_c.png,,,,,,
,,,,31676,001,2025-10-16_19h02.56.604,HW_LDT_1,2024.2.4,MacIntel,119.047619,,,,,,,,,,,,,,,,,,,,,378.5664,378.7648,378.7649,379.2649,,,,,,,,,,,,,,1.1623,1,,,,,,,,,,,,,,m,,,,,,,,,,,,,,,,74,0,379.2654,380.4315,m,1,1.1623,,[],[],[],[],[],[],[],380.4316,382.4315,382.4315,382.4317,[],[],[],[],[],[],[],,382.4318,382.4318,-0.067385913,-0.373594577,0,0,0,,0,73,73,87,1,2,word,CAFETERIA,print,cafeteria_p.png,,,,,,
,,,,31676,001,2025-10-16_19h02.56.604,HW_LDT_1,2024.2.4,MacIntel,119.047619,,,,,,,,,,,,,,,,,,,,,382.4328,382.6314,382.6314,383.1315,,,,,,,,,,,,,,2.0871,1,,,,,,,,,,,,,,m,,,,,,,,,,,,,,,,75,0,383.1319,385.2233,m,1,2.0871,,[],[],[],[],[],[],[],385.2234,387.2232,387.2232,387.2234,[],[],[],[],[],[],[],,387.2235,387.2236,-0.067385913,-0.373594577,0,0,0,,0,74,74,145,1,2,word,RESUME,cursive,resume_c.png,,,,,,
,,,,31676,001,2025-10-16_19h02.56.604,HW_LDT_1,2024.2.4,MacIntel,119.047619,,,,,,,,,,,,,,,,,,,,,387.2247,387.4232,387.4233,387.9227,,,,,,,,,,,,,,1.3458,1,,,,,,,,,,,,,,z,,,,,,,,,,,,,,,,76,0,387.9231,389.2729,z,1,1.3458,,[],[],[],[],[],[],[],389.273,391.2727,391.2727,391.2729,[],[],[],[],[],[],[],,391.2729,391.273,-0.067385913,-0.373594577,0,0,0,,0,75,75,17,1,2,RL,macise,cursive,macise_c.png,,,,,,
,,,,31676,001,2025-10-16_19h02.56.604,HW_LDT_1,2024.2.4,MacIntel,119.047619,,,,,,,,,,,,,,,,,,,,,391.2741,391.4731,391.4731,391.9732,,,,,,,,,,,,,,0.9305,1,,,,,,,,,,,,,,m,,,,,,,,,,,,,,,,77,0,391.9737,392.9064,m,1,0.9305,,[],[],[],[],[],[],[],392.9064,394.9063,394.9063,394.9065,[],[],[],[],[],[],[],,394.9066,394.9067,-0.067385913,-0.373594577,0,0,0,,0,76,76,110,1,2,word,HERITAGE,print,heritage_p.png,,,,,,
,,,,31676,001,2025-10-16_19h02.56.604,HW_LDT_1,2024.2.4,MacIntel,119.047619,,,,,,,,,,,,,,,,,,,,,394.9075,395.1063,395.1064,395.6064,,,,,,,,,,,,,,0.6816,1,,,,,,,,,,,,,,m,,,,,,,,,,,,,,,,78,1,395.607,396.2896,m,1,0.6816,,[],[],[],[],[],[],[],396.2898,398.2897,398.2897,399.2314,[],[],[],[],[],[],[],m,399.2314,399.2316,-0.067385913,-0.373594577,0,0,0,,0,77,77,122,1,2,word,MOBILE,print,mobile_p.png,0.9376,,,,,
,,,,31676,001,2025-10-16_19h02.56.604,HW_LDT_1,2024.2.4,MacIntel,119.047619,,,,,,,,,,,,,,,,,,,,,399.2324,399.4313,399.4314,399.9313,,,,,,,,,,,,,,4.3528,1,,,,,,,,,,,,,,z,,,,,,,,,,,,,,,,79,0,399.9318,404.2897,z,1,4.3528,,[],[],[],[],[],[],[],404.2899,406.2896,406.2896,406.2898,[],[],[],[],[],[],[],,406.2898,406.2899,-0.067385913,-0.373594577,0,0,0,,0,78,78,27,1,2,RL,repifion,cursive,repifion_c.png,,,,,,
,,,,31676,001,2025-10-16_19h02.56.604,HW_LDT_1,2024.2.4,MacIntel,119.047619,,,,,,,,,,,,,,,,,,,,,406.2909,406.4896,406.4897,406.9895,,,,,,,,,,,,,,0.7868,1,,,,,,,,,,,,,,m,,,,,,,,,,,,,,,,80,1,406.9902,407.7814,m,1,0.7868,,[],[],[],[],[],[],[],407.7814,409.7812,409.7813,413.273,[],[],[],[],[],[],[],z,413.273,420.807,-0.067385913,-0.373594577,0,0,0,space,0,79,79,158,1,2,word,VELOCITY,print,velocity_p.png,3.4909,,7.4929,,,
,,,,31676,001,2025-10-16_19h02.56.604,HW_LDT_1,2024.2.4,MacIntel,119.047619,,,,,,,,,,,,,,,,,,,,,420.808,421.0059,421.0059,421.5061,,,,,,,,,,,,,,1.6361,1,,,,,,,,,,,,,,m,,,,,,,,,,,,,,,,81,1,421.5068,423.1477,m,1,1.6361,,[],[],[],[],[],[],[],423.1478,425.1477,425.1478,426.3562,[],[],[],[],[],[],[],m,426.3562,426.3564,-0.067385913,-0.373594577,0,0,0,,0,80,80,83,1,2,word,ANIMAL,print,animal_p.png,1.2043,,,,,
,,,,31676,001,2025-10-16_19h02.56.604,HW_LDT_1,2024.2.4,MacIntel,119.047619,,,,,,,,,,,,,,,,,,,,,426.3576,426.5561,426.5563,427.0554,,,,,,,,,,,,,,1.4698,1,,,,,,,,,,,,,,m,,,,,,,,,,,,,,,,82,0,427.056,428.5311,m,1,1.4698,,[],[],[],[],[],[],[],428.5311,430.5303,430.5304,430.5305,[],[],[],[],[],[],[],,430.5306,430.5307,-0.067385913,-0.373594577,0,0,0,,0,81,81,148,1,2,word,SALINE,cursive,saline_c.png,,,,,,
,,,,31676,001,2025-10-16_19h02.56.604,HW_LDT_1,2024.2.4,MacIntel,119.047619,,,,,,,,,,,,,,,,,,,,,430.5315,430.731,430.7311,431.2307,,,,,,,,,,,,,,1.466,1,,,,,,,,,,,,,,m,,,,,,,,,,,,,,,,83,0,431.2311,432.6978,m,1,1.466,,[],[],[],[],[],[],[],432.6979,434.6977,434.6978,434.6979,[],[],[],[],[],[],[],,434.6979,434.698,-0.067385913,-0.373594577,0,0,0,,0,82,82,146,1,2,word,RETIRE,cursive,retire_c.png,,,,,,
,,,,31676,001,2025-10-16_19h02.56.604,HW_LDT_1,2024.2.4,MacIntel,119.047619,,,,,,,,,,,,,,,,,,,,,434.6991,434.8977,434.8977,435.397,,,,,,,,,,,,,,0.9818,1,,,,,,,,,,,,,,z,,,,,,,,,,,,,,,,84,0,435.3977,436.381,z,1,0.9818,,[],[],[],[],[],[],[],436.3811,438.3799,438.38,438.3801,[],[],[],[],[],[],[],,438.3802,438.3803,-0.067385913,-0.373594577,0,0,0,,0,83,83,63,1,2,TL,orinigal,print,orinigal_p.png,,,,,,
,,,,31676,001,2025-10-16_19h02.56.604,HW_LDT_1,2024.2.4,MacIntel,119.047619,,,,,,,,,,,,,,,,,,,,,438.3813,438.581,438.581,439.0811,,,,,,,,,,,,,,0.9033,1,,,,,,,,,,,,,,m,,,,,,,,,,,,,,,,85,0,439.0815,439.9894,m,1,0.9033,,[],[],[],[],[],[],[],439.9895,441.9894,441.9895,441.9897,[],[],[],[],[],[],[],,441.9897,441.9897,-0.067385913,-0.373594577,0,0,0,,0,84,84,95,1,2,word,COMEDY,cursive,comedy_c.png,,,,,,
,,,,31676,001,2025-10-16_19h02.56.604,HW_LDT_1,2024.2.4,MacIntel,119.047619,,,,,,,,,,,,,,,,,,,,,441.9909,442.1892,442.1892,442.6892,,,,,,,,,,,,,,2.6115,1,,,,,,,,,,,,,,z,,,,,,,,,,,,,,,,86,0,442.6898,445.3055,z,1,2.6115,,[],[],[],[],[],[],[],445.3055,447.3058,447.3058,447.306,[],[],[],[],[],[],[],,447.3061,447.3061,-0.067385913,-0.373594577,0,0,0,,0,85,85,20,1,2,RL,onegator,cursive,onegator_c.png,,,,,,
,,,,31676,001,2025-10-16_19h02.56.604,HW_LDT_1,2024.2.4,MacIntel,119.047619,,,,,,,,,,,,,,,,,,,,,447.3085,447.5055,447.5055,448.0058,,,,,,,,,,,,,,3.7533,1,,,,,,,,,,,,,,z,,,,,,,,,,,,,,,,87,0,448.0062,451.7642,z,1,3.7533,,[],[],[],[],[],[],[],451.7643,453.7633,453.7634,453.7636,[],[],[],[],[],[],[],,453.7637,453.7638,-0.067385913,-0.373594577,0,0,0,,0,86,86,5,1,2,RL,clisimal,cursive,clisimal_c.png,,,,,,
,,,,31676,001,2025-10-16_19h02.56.604,HW_LDT_1,2024.2.4,MacIntel,119.047619,,,,,,,,,,,,,,,,,,,,,453.765,453.9633,453.9633,454.4635,,,,,,,,,,,,,,1.0634,1,,,,,,,,,,,,,,m,,,,,,,,,,,,,,,,88,0,454.4642,455.53,m,1,1.0634,,[],[],[],[],[],[],[],455.53,457.5308,457.5308,457.5311,[],[],[],[],[],[],[],,457.5311,457.5312,-0.067385913,-0.373594577,0,0,0,,0,87,87,132,1,2,word,PROPOSAL,cursive,proposal_c.png,,,,,,
,,,,31676,001,2025-10-16_19h02.56.604,HW_LDT_1,2024.2.4,MacIntel,119.047619,,,,,,,,,,,,,,,,,,,,,457.5329,457.7309,457.7309,458.2299,,,,,,,,,,,,,,4.7627,1,,,,,,,,,,,,,,z,,,,,,,,,,,,,,,,89,0,458.2303,462.9974,z,1,4.7627,,[],[],[],[],[],[],[],462.9976,464.9972,464.9973,464.9975,[],[],[],[],[],[],[],,464.9975,464.9976,-0.067385913,-0.373594577,0,0,0,,0,88,88,61,1,2,TL,nuremical,cursive,nuremical_c.png,,,,,,
,,,,31676,001,2025-10-16_19h02.56.604,HW_LDT_1,2024.2.4,MacIntel,119.047619,,,,,,,,,,,,,,,,,,,,,464.9986,465.1965,465.1965,465.6963,,,,,,,,,,,,,,1.3542,1,,,,,,,,,,,,,,z,,,,,,,,,,,,,,,,90,0,465.6968,467.0548,z,1,1.3542,,[],[],[],[],[],[],[],467.0549,469.0556,469.0557,469.0559,[],[],[],[],[],[],[],,469.056,469.056,-0.067385913,-0.373594577,0,0,0,,0,89,89,70,1,2,TL,retalive,print,retalive_p.png,,,,,,
,,,,31676,001,2025-10-16_19h02.56.604,HW_LDT_1,2024.2.4,MacIntel,119.047619,,,,,,,,,,,,,,,,,,,,,469.057,469.2555,469.2556,469.7556,,,,,,,,,,,,,,1.1446,1,,,,,,,,,,,,,,z,,,,,,,,,,,,,,,,91,0,469.7564,470.9057,z,1,1.1446,,[],[],[],[],[],[],[],470.9059,472.9051,472.9051,472.9053,[],[],[],[],[],[],[],,472.9054,472.9055,-0.067385913,-0.373594577,0,0,0,,0,90,90,21,1,2,RL,pamest,print,pamest_p.png,,,,,,
,,,,31676,001,2025-10-16_19h02.56.604,HW_LDT_1,2024.2.4,MacIntel,119.047619,,,,,,,,,,,,,,,,,,,,,472.9064,473.1056,473.1057,473.6051,,,,,,,,,,,,,,0.9536,1,,,,,,,,,,,,,,z,,,,,,,,,,,,,,,,92,0,473.6056,474.5639,z,1,0.9536,,[],[],[],[],[],[],[],474.5639,476.5638,476.5638,476.5641,[],[],[],[],[],[],[],,476.5641,476.5641,-0.067385913,-0.373594577,0,0,0,,0,91,91,6,1,2,RL,conbicer,print,conbicer_p.png,,,,,,
,,,,31676,001,2025-10-16_19h02.56.604,HW_LDT_1,2024.2.4,MacIntel,119.047619,,,,,,,,,,,,,,,,,,,,,476.5651,476.7638,476.7639,477.2639,,,,,,,,,,,,,,1.845,1,,,,,,,,,,,,,,z,,,,,,,,,,,,,,,,93,0,477.2645,479.1141,z,1,1.845,,[],[],[],[],[],[],[],479.1141,481.1129,481.1129,481.1132,[],[],[],[],[],[],[],,481.1133,481.1133,-0.067385913,-0.373594577,0,0,0,,0,92,92,42,1,2,TL,bedise,cursive,bedise_c.png,,,,,,
,,,,31676,001,2025-10-16_19h02.56.604,HW_LDT_1,2024.2.4,MacIntel,119.047619,,,,,,,,,,,,,,,,,,,,,481.1144,481.3133,481.3133,481.8129,,,,,,,,,,,,,,2.471,1,,,,,,,,,,,,,,z,,,,,,,,,,,,,,,,94,0,481.8133,484.2887,z,1,2.471,,[],[],[],[],[],[],[],484.2888,486.2888,486.2889,486.2891,[],[],[],[],[],[],[],,486.2892,486.2892,-0.067385913,-0.373594577,0,0,0,,0,93,93,38,1,2,TL,atameur,cursive,atameur_c.png,,,,,,
,,,,31676,001,2025-10-16_19h02.56.604,HW_LDT_1,2024.2.4,MacIntel,119.047619,,,,,,,,,,,,,,,,,,,,,486.2903,486.4883,486.4884,486.9887,,,,,,,,,,,,,,1.8696,1,,,,,,,,,,,,,,z,,,,,,,,,,,,,,,,95,0,486.9893,488.8638,z,1,1.8696,,[],[],[],[],[],[],[],488.8639,490.8636,490.8636,490.8638,[],[],[],[],[],[],[],,490.8639,490.864,-0.067385913,-0.373594577,0,0,0,,0,94,94,57,1,2,TL,meromy,cursive,meromy_c.png,,,,,,
,,,,31676,001,2025-10-16_19h02.56.604,HW_LDT_1,2024.2.4,MacIntel,119.047619,,,,,,,,,,,,,,,,,,,,,490.8649,491.0637,491.0637,491.5636,,,,,,,,,,,,,,1.6787,1,,,,,,,,,,,,,,m,,,,,,,,,,,,,,,,96,0,491.564,493.247,m,1,1.6787,,[],[],[],[],[],[],[],493.2471,495.2471,495.2471,495.2474,[],[],[],[],[],[],[],,495.2474,495.2475,-0.067385913,-0.373594577,0,0,0,,0,95,95,86,1,2,word,BESIDE,cursive,beside_c.png,,,,,,
,,,,31676,001,2025-10-16_19h02.56.604,HW_LDT_1,2024.2.4,MacIntel,119.047619,,,,,,,,,,,,,,,,,,,,,495.2488,495.4469,495.4469,495.9463,,,,,,,,,,,,,,2.0284,1,,,,,,,,,,,,,,z,,,,,,,,,,,,,,,,97,0,495.9469,497.9805,z,1,2.0284,,[],[],[],[],[],[],[],497.9806,499.9798,499.9799,499.9801,[],[],[],[],[],[],[],,499.9802,499.9802,-0.067385913,-0.373594577,0,0,0,,0,96,96,53,1,2,TL,edivent,cursive,edivent_c.png,,,,,,
,,,,31676,001,2025-10-16_19h02.56.604,HW_LDT_1,2024.2.4,MacIntel,119.047619,,,,,,,,,,,,,,,,,,,,,499.9813,500.1803,500.1804,500.6801,,,,,,,,,,,,,,1.6809,1,,,,,,,,,,,,,,m,,,,,,,,,,,,,,,,98,1,500.6806,502.3628,m,1,1.6809,,[],[],[],[],[],[],[],502.3629,504.3637,504.3638,505.5553,[],[],[],[],[],[],[],z,505.5553,505.5555,-0.067385913,-0.373594577,0,0,0,,0,97,97,116,1,2,word,MARGINAL,cursive,marginal_c.png,1.1871,,,,,
,,,,31676,001,2025-10-16_19h02.56.604,HW_LDT_1,2024.2.4,MacIntel,119.047619,,,,,,,,,,,,,,,,,,,,,505.5566,505.7552,505.7553,506.2551,,,,,,,,,,,,,,1.7454,1,,,,,,,,,,,,,,m,,,,,,,,,,,,,,,,99,0,506.2557,508.0045,m,1,1.7454,,[],[],[],[],[],[],[],508.0047,510.0051,510.0052,510.0054,[],[],[],[],[],[],[],,510.0055,510.0056,-0.067385913,-0.373594577,0,0,0,,0,98,98,150,1,2,word,SENTIMENT,cursive,sentiment_c.png,,,,,,
,,,,31676,001,2025-10-16_19h02.56.604,HW_LDT_1,2024.2.4,MacIntel,119.047619,,,,,,,,,,,,,,,,,,,,,510.0067,510.2051,510.2052,510.7051,,,,,,,,,,,,,,3.895,1,,,,,,,,,,,,,,z,,,,,,,,,,,,,,,,100,0,510.7056,514.6053,z,1,3.895,,[],[],[],[],[],[],[],514.6053,516.605,516.6051,516.6053,[],[],[],[],[],[],[],,516.6054,516.6054,-0.067385913,-0.373594577,0,0,0,,0,99,99,52,1,2,TL,elarobate,cursive,elarobate_c.png,,,,,,
,,,,31676,001,2025-10-16_19h02.56.604,HW_LDT_1,2024.2.4,MacIntel,119.047619,,,,,,,,,,,,,,,,,,,,,516.6067,516.8051,516.8051,517.3049,,,,,,,,,,,,,,2.5712,1,,,,,,,,,,,,,,z,,,,,,,,,,,,,,,,101,1,517.3053,519.8801,z,1,2.5712,,[],[],[],[],[],[],[],519.8802,521.8793,521.8794,523.1208,[],[],[],[],[],[],[],z,523.1209,523.121,-0.067385913,-0.373594577,0,0,0,,0,100,100,51,1,2,TL,etidor,cursive,etidor_c.png,1.2365,,,,,
,,,,31676,001,2025-10-16_19h02.56.604,HW_LDT_1,2024.2.4,MacIntel,119.047619,,,,,,,,,,,,,,,,,,,,,523.1217,523.3215,523.3215,523.8211,,,,,,,,,,,,,,2.4322,1,,,,,,,,,,,,,,z,,,,,,,,,,,,,,,,102,1,523.8216,526.255,z,1,2.4322,,[],[],[],[],[],[],[],526.2551,528.255,528.255,529.0135,[],[],[],[],[],[],[],z,529.0135,529.0138,-0.067385913,-0.373594577,0,0,0,,0,101,101,69,1,2,TL,resufal,cursive,resufal_c.png,0.7542,,,,,
,,,,31676,001,2025-10-16_19h02.56.604,HW_LDT_1,2024.2.4,MacIntel,119.047619,,,,,,,,,,,,,,,,,,,,,529.015,529.2124,529.2125,529.7132,,,,,,,,,,,,,,1.0287,1,,,,,,,,,,,,,,m,,,,,,,,,,,,,,,,103,0,529.7138,530.7461,m,1,1.0287,,[],[],[],[],[],[],[],530.7463,532.7466,532.7467,532.7469,[],[],[],[],[],[],[],,532.7469,532.7469,-0.067385913,-0.373594577,0,0,0,,0,102,102,143,1,2,word,REMOVAL,print,removal_p.png,,,,,,
,,,,31676,001,2025-10-16_19h02.56.604,HW_LDT_1,2024.2.4,MacIntel,119.047619,,,,,,,,,,,,,,,,,,,,,532.7479,532.9466,532.9467,533.4457,,,,,,,,,,,,,,1.1456,1,,,,,,,,,,,,,,m,,,,,,,,,,,,,,,,104,0,533.4462,534.5958,m,1,1.1456,,[],[],[],[],[],[],[],534.5959,536.5956,536.5957,536.5958,[],[],[],[],[],[],[],,536.5958,536.596,-0.067385913,-0.373594577,0,0,0,,0,103,103,84,1,2,word,BELOVED,cursive,beloved_c.png,,,,,,
,,,,31676,001,2025-10-16_19h02.56.604,HW_LDT_1,2024.2.4,MacIntel,119.047619,,,,,,,,,,,,,,,,,,,,,536.5968,536.796,536.796,537.2967,,,,,,,,,,,,,,0.7737,1,,,,,,,,,,,,,,m,,,,,,,,,,,,,,,,105,0,537.2971,538.0717,m,1,0.7737,,[],[],[],[],[],[],[],538.0717,540.0714,540.0716,540.0716,[],[],[],[],[],[],[],,540.0718,540.0718,-0.067385913,-0.373594577,0,0,0,,0,104,104,153,1,2,word,STOLEN,print,stolen_p.png,,,,,,
,,,,31676,001,2025-10-16_19h02.56.604,HW_LDT_1,2024.2.4,MacIntel,119.047619,,,,,,,,,,,,,,,,,,,,,540.0728,540.2715,540.2717,540.7713,,,,,,,,,,,,,,1.1605,1,,,,,,,,,,,,,,m,,,,,,,,,,,,,,,,106,0,540.7719,541.9381,m,1,1.1605,,[],[],[],[],[],[],[],541.9381,543.9381,543.9381,543.9383,[],[],[],[],[],[],[],,543.9383,543.9385,-0.067385913,-0.373594577,0,0,0,,0,105,105,96,1,2,word,CONSIDER,print,consider_p.png,,,,,,
,,,,31676,001,2025-10-16_19h02.56.604,HW_LDT_1,2024.2.4,MacIntel,119.047619,,,,,,,,,,,,,,,,,,,,,543.9394,544.1382,544.1382,544.6375,,,,,,,,,,,,,,0.6081,1,,,,,,,,,,,,,,m,,,,,,,,,,,,,,,,107,0,544.6379,545.2465,m,1,0.6081,,[],[],[],[],[],[],[],545.2465,547.2457,547.2458,547.246,[],[],[],[],[],[],[],,547.246,547.2461,-0.067385913,-0.373594577,0,0,0,,0,106,106,115,1,2,word,LOGICAL,print,logical_p.png,,,,,,
,,,,31676,001,2025-10-16_19h02.56.604,HW_LDT_1,2024.2.4,MacIntel,119.047619,,,,,,,,,,,,,,,,,,,,,547.247,547.4457,547.4457,547.9466,,,,,,,,,,,,,,1.3359,1,,,,,,,,,,,,,,m,,,,,,,,,,,,,,,,108,0,547.947,549.2882,m,1,1.3359,,[],[],[],[],[],[],[],549.2882,551.2882,551.2883,551.2885,[],[],[],[],[],[],[],,551.2885,551.2885,-0.067385913,-0.373594577,0,0,0,,0,107,107,136,1,2,word,RADICAL,cursive,radical_c.png,,,,,,
,,,,31676,001,2025-10-16_19h02.56.604,HW_LDT_1,2024.2.4,MacIntel,119.047619,,,,,,,,,,,,,,,,,,,,,551.2896,551.4881,551.4882,551.9879,,,,,,,,,,,,,,4.3367,1,,,,,,,,,,,,,,z,,,,,,,,,,,,,,,,109,0,551.9884,556.3297,z,1,4.3367,,[],[],[],[],[],[],[],556.3298,558.3288,558.3288,558.329,[],[],[],[],[],[],[],,558.3291,558.3291,-0.067385913,-0.373594577,0,0,0,,0,108,108,62,1,2,TL,opmital,cursive,opmital_c.png,,,,,,
,,,,31676,001,2025-10-16_19h02.56.604,HW_LDT_1,2024.2.4,MacIntel,119.047619,,,,,,,,,,,,,,,,,,,,,558.3299,558.5296,558.5297,559.0292,,,,,,,,,,,,,,3.4876,1,,,,,,,,,,,,,,z,,,,,,,,,,,,,,,,110,0,559.0298,562.5213,z,1,3.4876,,[],[],[],[],[],[],[],562.5213,564.5212,564.5212,564.5214,[],[],[],[],[],[],[],,564.5215,564.5216,-0.067385913,-0.373594577,0,0,0,,0,109,109,45,1,2,TL,carnidal,cursive,carnidal_c.png,,,,,,
,,,,31676,001,2025-10-16_19h02.56.604,HW_LDT_1,2024.2.4,MacIntel,119.047619,,,,,,,,,,,,,,,,,,,,,564.5225,564.7212,564.7213,565.2214,,,,,,,,,,,,,,2.2449,0,,,,,,,,,,,,,,m,,,,,,,,,,,,,,,,111,1,565.222,567.471,z,0,2.2449,,[],[],[],[],[],[],[],567.4711,569.4711,569.4711,570.4294,[],[],[],[],[],[],[],z,570.4295,570.4295,-0.067385913,-0.373594577,0,0,0,,0,110,110,113,1,2,word,LITERAL,cursive,literal_c.png,0.9545,,,,,
,,,,31676,001,2025-10-16_19h02.56.604,HW_LDT_1,2024.2.4,MacIntel,119.047619,,,,,,,,,,,,,,,,,,,,,570.4306,570.6294,570.6295,571.1295,,,,,,,,,,,,,,0.8739,1,,,,,,,,,,,,,,m,,,,,,,,,,,,,,,,112,0,571.1299,572.0046,m,1,0.8739,,[],[],[],[],[],[],[],572.0046,574.0044,574.0044,574.0047,[],[],[],[],[],[],[],,574.0048,574.0048,-0.067385913,-0.373594577,0,0,0,,0,111,111,89,1,2,word,CAPACITY,print,capacity_p.png,,,,,,
,,,,31676,001,2025-10-16_19h02.56.604,HW_LDT_1,2024.2.4,MacIntel,119.047619,,,,,,,,,,,,,,,,,,,,,574.006,574.204,574.204,574.7045,,,,,,,,,,,,,,0.7124,1,,,,,,,,,,,,,,m,,,,,,,,,,,,,,,,113,0,574.7049,575.4211,m,1,0.7124,,[],[],[],[],[],[],[],575.4212,577.4213,577.4213,577.4215,[],[],[],[],[],[],[],,577.4217,577.4217,-0.067385913,-0.373594577,0,0,0,,0,112,112,88,1,2,word,CAMERA,print,camera_p.png,,,,,,
,,,,31676,001,2025-10-16_19h02.56.604,HW_LDT_1,2024.2.4,MacIntel,119.047619,,,,,,,,,,,,,,,,,,,,,577.4229,577.6209,577.6209,578.121,,,,,,,,,,,,,,0.603,1,,,,,,,,,,,,,,m,,,,,,,,,,,,,,,,114,0,578.1217,578.7287,m,1,0.603,,[],[],[],[],[],[],[],578.7288,580.7293,580.7294,580.7295,[],[],[],[],[],[],[],,580.7296,580.7297,-0.067385913,-0.373594577,0,0,0,,0,113,113,147,1,2,word,ROMANTIC,print,romantic_p.png,,,,,,
,,,,31676,001,2025-10-16_19h02.56.604,HW_LDT_1,2024.2.4,MacIntel,119.047619,,,,,,,,,,,,,,,,,,,,,580.7307,580.9293,580.9293,581.4294,,,,,,,,,,,,,,2.2194,0,,,,,,,,,,,,,,m,,,,,,,,,,,,,,,,115,1,581.43,583.6538,z,0,2.2194,,[],[],[],[],[],[],[],583.6538,585.6545,585.6547,586.6368,[],[],[],[],[],[],[],z,586.6369,586.637,-0.067385913,-0.373594577,0,0,0,,0,114,114,106,1,2,word,ELABORATE,cursive,elaborate_c.png,0.9778,,,,,
,,,,31676,001,2025-10-16_19h02.56.604,HW_LDT_1,2024.2.4,MacIntel,119.047619,,,,,,,,,,,,,,,,,,,,,586.6378,586.8378,586.8378,587.3377,,,,,,,,,,,,,,4.1777,1,,,,,,,,,,,,,,z,,,,,,,,,,,,,,,,116,0,587.3383,591.5212,z,1,4.1777,,[],[],[],[],[],[],[],591.5213,593.521,593.5211,593.5214,[],[],[],[],[],[],[],,593.5214,593.5215,-0.067385913,-0.373594577,0,0,0,,0,115,115,56,1,2,TL,marnigal,cursive,marnigal_c.png,,,,,,
,,,,31676,001,2025-10-16_19h02.56.604,HW_LDT_1,2024.2.4,MacIntel,119.047619,,,,,,,,,,,,,,,,,,,,,593.5234,593.7209,593.721,594.2211,,,,,,,,,,,,,,2.4029,0,,,,,,,,,,,,,,m,,,,,,,,,,,,,,,,117,0,594.2216,596.6293,z,0,2.4029,,[],[],[],[],[],[],[],596.6294,598.6289,598.6289,598.6292,[],[],[],[],[],[],[],,598.6292,598.6292,-0.067385913,-0.373594577,0,0,0,,0,116,116,138,1,2,word,REFUSAL,cursive,refusal_c.png,,,,,,
,,,,31676,001,2025-10-16_19h02.56.604,HW_LDT_1,2024.2.4,MacIntel,119.047619,,,,,,,,,,,,,,,,,,,,,598.6302,598.8292,598.8292,599.3282,,,,,,,,,,,,,,2.4546,1,,,,,,,,,,,,,,m,,,,,,,,,,,,,,,,118,0,599.3287,601.7873,m,1,2.4546,,[],[],[],[],[],[],[],601.7874,603.7864,603.7865,603.7866,[],[],[],[],[],[],[],,603.7867,603.7867,-0.067385913,-0.373594577,0,0,0,,0,117,117,119,1,2,word,MEMORY,cursive,memory_c.png,,,,,,
,,,,31676,001,2025-10-16_19h02.56.604,HW_LDT_1,2024.2.4,MacIntel,119.047619,,,,,,,,,,,,,,,,,,,,,603.7875,603.9867,603.9868,604.4873,,,,,,,,,,,,,,2.8038,1,,,,,,,,,,,,,,z,,,,,,,,,,,,,,,,119,0,604.4876,607.2958,z,1,2.8038,,[],[],[],[],[],[],[],607.2959,609.2959,609.2959,609.2963,[],[],[],[],[],[],[],,609.2963,609.2964,-0.067385913,-0.373594577,0,0,0,,0,118,118,14,1,2,RL,insibate,cursive,insibate_c.png,,,,,,
,,,,31676,001,2025-10-16_19h02.56.604,HW_LDT_1,2024.2.4,MacIntel,119.047619,,,,,,,,,,,,,,,,,,,,,609.2975,609.4959,609.4959,609.9957,,,,,,,,,,,,,,1.1034,1,,,,,,,,,,,,,,z,,,,,,,,,,,,,,,,120,0,609.9963,611.1039,z,1,1.1034,,[],[],[],[],[],[],[],611.1039,613.104,613.1041,613.1044,[],[],[],[],[],[],[],,613.1045,613.1045,-0.067385913,-0.373594577,0,0,0,,0,119,119,39,1,2,TL,aminal,print,aminal_p.png,,,,,,
,,,,31676,001,2025-10-16_19h02.56.604,HW_LDT_1,2024.2.4,MacIntel,119.047619,,,,,,,,,,,,,,,,,,,,,613.1056,613.304,613.304,613.8039,,,,,,,,,,,,,,0.8867,1,,,,,,,,,,,,,,z,,,,,,,,,,,,,,,,121,0,613.8044,614.6957,z,1,0.8867,,[],[],[],[],[],[],[],614.6958,616.6956,616.6957,616.6958,[],[],[],[],[],[],[],,616.6959,616.696,-0.067385913,-0.373594577,0,0,0,,0,120,120,60,1,2,TL,molibe,print,molibe_p.png,,,,,,
,,,,31676,001,2025-10-16_19h02.56.604,HW_LDT_1,2024.2.4,MacIntel,119.047619,,,,,,,,,,,,,,,,,,,,,616.6969,616.8956,616.8956,617.3949,,,,,,,,,,,,,,3.1292,1,,,,,,,,,,,,,,z,,,,,,,,,,,,,,,,122,0,617.3954,620.5281,z,1,3.1292,,[],[],[],[],[],[],[],620.5282,622.5289,622.5289,622.5292,[],[],[],[],[],[],[],,622.5292,622.5293,-0.067385913,-0.373594577,0,0,0,,0,121,121,68,1,2,TL,quatily,cursive,quatily_c.png,,,,,,
,,,,31676,001,2025-10-16_19h02.56.604,HW_LDT_1,2024.2.4,MacIntel,119.047619,,,,,,,,,,,,,,,,,,,,,622.5302,622.729,622.729,623.228,,,,,,,,,,,,,,1.1464,1,,,,,,,,,,,,,,z,,,,,,,,,,,,,,,,123,0,623.2284,624.3781,z,1,1.1464,,[],[],[],[],[],[],[],624.3782,626.3788,626.3788,626.379,[],[],[],[],[],[],[],,626.3791,626.3792,-0.067385913,-0.373594577,0,0,0,,0,122,122,34,1,2,RL,trilude,cursive,trilude_c.png,,,,,,
,,,,31676,001,2025-10-16_19h02.56.604,HW_LDT_1,2024.2.4,MacIntel,119.047619,,,,,,,,,,,,,,,,,,,,,626.3802,626.5789,626.5789,627.079,,,,,,,,,,,,,,0.9449,0,,,,,,,,,,,,,,m,,,,,,,,,,,,,,,,124,1,627.0794,628.028,z,0,0.9449,,[],[],[],[],[],[],[],628.0281,630.0284,630.0284,631.1032,[],[],[],[],[],[],[],z,631.1033,631.1034,-0.067385913,-0.373594577,0,0,0,,0,123,123,85,1,2,word,BENEFIT,cursive,benefit_c.png,1.071,,,,,
,,,,31676,001,2025-10-16_19h02.56.604,HW_LDT_1,2024.2.4,MacIntel,119.047619,,,,,,,,,,,,,,,,,,,,,631.1043,631.304,631.304,631.804,,,,,,,,,,,,,,1.7611,1,,,,,,,,,,,,,,z,,,,,,,,,,,,,,,,125,0,631.8046,633.5705,z,1,1.7611,,[],[],[],[],[],[],[],633.5707,635.5696,635.5697,635.5698,[],[],[],[],[],[],[],,635.5698,635.57,-0.067385913,-0.373594577,0,0,0,,0,124,124,12,1,2,RL,gralekul,cursive,gralekul_c.png,,,,,,
,,,,31676,001,2025-10-16_19h02.56.604,HW_LDT_1,2024.2.4,MacIntel,119.047619,,,,,,,,,,,,,,,,,,,,,635.5709,635.7695,635.7696,636.2706,,,,,,,,,,,,,,0.7652,1,,,,,,,,,,,,,,z,,,,,,,,,,,,,,,,126,0,636.2712,637.0371,z,1,0.7652,,[],[],[],[],[],[],[],637.0372,639.0372,639.0374,639.0376,[],[],[],[],[],[],[],,639.0377,639.0378,-0.067385913,-0.373594577,0,0,0,,0,125,125,55,1,2,TL,lotace,print,lotace_p.png,,,,,,
,,,,31676,001,2025-10-16_19h02.56.604,HW_LDT_1,2024.2.4,MacIntel,119.047619,,,,,,,,,,,,,,,,,,,,,639.0388,639.237,639.2371,639.7371,,,,,,,,,,,,,,1.8372,1,,,,,,,,,,,,,,z,,,,,,,,,,,,,,,,127,0,639.7375,641.5779,z,1,1.8372,,[],[],[],[],[],[],[],641.578,643.5786,643.5787,643.5788,[],[],[],[],[],[],[],,643.5788,643.5789,-0.067385913,-0.373594577,0,0,0,,0,126,126,76,1,2,TL,senmitent,cursive,senmitent_c.png,,,,,,
,,,,31676,001,2025-10-16_19h02.56.604,HW_LDT_1,2024.2.4,MacIntel,119.047619,,,,,,,,,,,,,,,,,,,,,643.5799,643.7786,643.7787,644.2787,,,,,,,,,,,,,,0.8625,1,,,,,,,,,,,,,,m,,,,,,,,,,,,,,,,128,1,644.2792,645.1454,m,1,0.8625,,[],[],[],[],[],[],[],645.1455,647.1451,647.1452,651.5954,[],[],[],[],[],[],[],z,651.5955,651.5956,-0.067385913,-0.373594577,0,0,0,,0,127,127,100,1,2,word,DECADE,print,decade_p.png,4.4452,,,,,
,,,,31676,001,2025-10-16_19h02.56.604,HW_LDT_1,2024.2.4,MacIntel,119.047619,,,,,,,,,,,,,,,,,,,,,651.5966,651.795,651.795,652.2954,,,,,,,,,,,,,,1.8369,1,,,,,,,,,,,,,,z,,,,,,,,,,,,,,,,129,0,652.2958,654.1364,z,1,1.8369,,[],[],[],[],[],[],[],654.1364,656.1369,656.137,656.1373,[],[],[],[],[],[],[],,656.1374,656.1374,-0.067385913,-0.373594577,0,0,0,,0,128,128,50,1,2,TL,donimant,print,donimant_p.png,,,,,,
,,,,31676,001,2025-10-16_19h02.56.604,HW_LDT_1,2024.2.4,MacIntel,119.047619,,,,,,,,,,,,,,,,,,,,,656.1385,656.3369,656.3369,656.8368,,,,,,,,,,,,,,0.9535,1,,,,,,,,,,,,,,z,,,,,,,,,,,,,,,,130,0,656.8373,657.7953,z,1,0.9535,,[],[],[],[],[],[],[],657.7953,659.7952,659.7953,659.7954,[],[],[],[],[],[],[],,659.7954,659.7955,-0.067385913,-0.373594577,0,0,0,,0,129,129,11,1,2,RL,formuke,print,formuke_p.png,,,,,,
,,,,31676,001,2025-10-16_19h02.56.604,HW_LDT_1,2024.2.4,MacIntel,119.047619,,,,,,,,,,,,,,,,,,,,,659.7964,659.9948,659.9949,660.495,,,,,,,,,,,,,,0.8532,1,,,,,,,,,,,,,,m,,,,,,,,,,,,,,,,131,0,660.4954,661.3538,m,1,0.8532,,[],[],[],[],[],[],[],661.3538,663.3535,663.3535,663.3538,[],[],[],[],[],[],[],,663.3538,663.3539,-0.067385913,-0.373594577,0,0,0,,0,130,130,129,1,2,word,PARENT,print,parent_p.png,,,,,,
,,,,31676,001,2025-10-16_19h02.56.604,HW_LDT_1,2024.2.4,MacIntel,119.047619,,,,,,,,,,,,,,,,,,,,,663.3548,663.5532,663.5533,664.0528,,,,,,,,,,,,,,4.9039,1,,,,,,,,,,,,,,m,,,,,,,,,,,,,,,,132,0,664.0532,668.9614,m,1,4.9039,,[],[],[],[],[],[],[],668.9614,670.9618,670.9618,670.962,[],[],[],[],[],[],[],,670.9621,670.9622,-0.067385913,-0.373594577,0,0,0,,0,131,131,120,1,2,word,MILITARY,cursive,military_c.png,,,,,,
,,,,31676,001,2025-10-16_19h02.56.604,HW_LDT_1,2024.2.4,MacIntel,119.047619,,,,,,,,,,,,,,,,,,,,,670.963,671.1618,671.1618,671.6617,,,,,,,,,,,,,,1.273,1,,,,,,,,,,,,,,m,,,,,,,,,,,,,,,,133,0,671.6622,672.9369,m,1,1.273,,[],[],[],[],[],[],[],672.937,674.9366,674.9368,674.9369,[],[],[],[],[],[],[],,674.937,674.937,-0.067385913,-0.373594577,0,0,0,,0,132,132,156,1,2,word,TRIBUTE,cursive,tribute_c.png,,,,,,
,,,,31676,001,2025-10-16_19h02.56.604,HW_LDT_1,2024.2.4,MacIntel,119.047619,,,,,,,,,,,,,,,,,,,,,674.9379,675.1366,675.1367,675.6367,,,,,,,,,,,,,,0.7784,1,,,,,,,,,,,,,,m,,,,,,,,,,,,,,,,134,0,675.6371,676.4201,m,1,0.7784,,[],[],[],[],[],[],[],676.4202,678.4192,678.4193,678.4194,[],[],[],[],[],[],[],,678.4194,678.4197,-0.067385913,-0.373594577,0,0,0,,0,133,133,102,1,2,word,DENSITY,print,density_p.png,,,,,,
,,,,31676,001,2025-10-16_19h02.56.604,HW_LDT_1,2024.2.4,MacIntel,119.047619,,,,,,,,,,,,,,,,,,,,,678.4207,678.6202,678.6202,679.1203,,,,,,,,,,,,,,1.6518,1,,,,,,,,,,,,,,m,,,,,,,,,,,,,,,,135,0,679.121,680.7784,m,1,1.6518,,[],[],[],[],[],[],[],680.7785,682.7774,682.7774,682.7776,[],[],[],[],[],[],[],,682.7777,682.7778,-0.067385913,-0.373594577,0,0,0,,0,134,134,97,1,2,word,COVERAGE,cursive,coverage_c.png,,,,,,
,,,,31676,001,2025-10-16_19h02.56.604,HW_LDT_1,2024.2.4,MacIntel,119.047619,,,,,,,,,,,,,,,,,,,,,682.7786,682.978,682.978,683.4783,,,,,,,,,,,,,,1.8529,1,,,,,,,,,,,,,,m,,,,,,,,,,,,,,,,136,0,683.4788,685.3362,m,1,1.8529,,[],[],[],[],[],[],[],685.3363,687.3356,687.3357,687.3359,[],[],[],[],[],[],[],,687.3359,687.336,-0.067385913,-0.373594577,0,0,0,,0,135,135,91,1,2,word,CARDINAL,cursive,cardinal_c.png,,,,,,
,,,,31676,001,2025-10-16_19h02.56.604,HW_LDT_1,2024.2.4,MacIntel,119.047619,,,,,,,,,,,,,,,,,,,,,687.337,687.5366,687.5367,688.0364,,,,,,,,,,,,,,1.0702,1,,,,,,,,,,,,,,m,,,,,,,,,,,,,,,,137,1,688.0368,689.1116,m,1,1.0702,,[],[],[],[],[],[],[],689.1118,691.1116,691.1116,692.5199,[],[],[],[],[],[],[],z,692.5199,692.52,-0.067385913,-0.373594577,0,0,0,,0,136,136,80,1,2,word,ACADEMY,cursive,academy_c.png,1.4032,,,,,
,,,,31676,001,2025-10-16_19h02.56.604,HW_LDT_1,2024.2.4,MacIntel,119.047619,,,,,,,,,,,,,,,,,,,,,692.5209,692.7199,692.72,693.2189,,,,,,,,,,,,,,1.0204,1,,,,,,,,,,,,,,z,,,,,,,,,,,,,,,,138,0,693.2194,694.2446,z,1,1.0204,,[],[],[],[],[],[],[],694.2446,696.244,696.244,696.2442,[],[],[],[],[],[],[],,696.2443,696.2444,-0.067385913,-0.373594577,0,0,0,,0,137,137,9,1,2,RL,denficy,print,denficy_p.png,,,,,,
,,,,31676,001,2025-10-16_19h02.56.604,HW_LDT_1,2024.2.4,MacIntel,119.047619,,,,,,,,,,,,,,,,,,,,,696.2452,696.4448,696.4449,696.945,,,,,,,,,,,,,,1.8391,1,,,,,,,,,,,,,,z,,,,,,,,,,,,,,,,139,1,696.9455,698.7864,z,1,1.8391,,[],[],[],[],[],[],[],698.7866,700.7865,700.7865,701.7534,[],[],[],[],[],[],[],z,701.7535,701.7536,-0.067385913,-0.373594577,0,0,0,,0,138,138,24,1,2,RL,rasibal,cursive,rasibal_c.png,0.9624,,,,,
,,,,31676,001,2025-10-16_19h02.56.604,HW_LDT_1,2024.2.4,MacIntel,119.047619,,,,,,,,,,,,,,,,,,,,,701.7544,701.9528,701.9528,702.4521,,,,,,,,,,,,,,0.8784,1,,,,,,,,,,,,,,z,,,,,,,,,,,,,,,,140,0,702.4525,703.3364,z,1,0.8784,,[],[],[],[],[],[],[],703.3365,705.3364,705.3364,705.3366,[],[],[],[],[],[],[],,705.3366,705.3366,-0.067385913,-0.373594577,0,0,0,,0,139,139,0,1,2,RL,adnicory,print,adnicory_p.png,,,,,,
,,,,31676,001,2025-10-16_19h02.56.604,HW_LDT_1,2024.2.4,MacIntel,119.047619,,,,,,,,,,,,,,,,,,,,,705.3376,705.5363,705.5363,706.0364,,,,,,,,,,,,,,1.212,1,,,,,,,,,,,,,,z,,,,,,,,,,,,,,,,141,0,706.0368,707.2528,z,1,1.212,,[],[],[],[],[],[],[],707.2529,709.2524,709.2525,709.2527,[],[],[],[],[],[],[],,709.2528,709.2528,-0.067385913,-0.373594577,0,0,0,,0,140,140,65,1,2,TL,polupar,cursive,polupar_c.png,,,,,,
,,,,31676,001,2025-10-16_19h02.56.604,HW_LDT_1,2024.2.4,MacIntel,119.047619,,,,,,,,,,,,,,,,,,,,,709.2539,709.4531,709.4532,709.9521,,,,,,,,,,,,,,1.824,1,,,,,,,,,,,,,,m,,,,,,,,,,,,,,,,142,0,709.9525,711.7774,m,1,1.824,,[],[],[],[],[],[],[],711.7775,713.7775,713.7775,713.7776,[],[],[],[],[],[],[],,713.7777,713.7778,-0.067385913,-0.373594577,0,0,0,,0,141,141,124,1,2,word,NUMERICAL,cursive,numerical_c.png,,,,,,
,,,,31676,001,2025-10-16_19h02.56.604,HW_LDT_1,2024.2.4,MacIntel,119.047619,,,,,,,,,,,,,,,,,,,,,713.7786,713.9779,713.9779,714.477,,,,,,,,,,,,,,0.8723,1,,,,,,,,,,,,,,z,,,,,,,,,,,,,,,,143,0,714.4776,715.3531,z,1,0.8723,,[],[],[],[],[],[],[],715.3532,717.3529,717.3529,717.353,[],[],[],[],[],[],[],,717.353,717.3531,-0.067385913,-0.373594577,0,0,0,,0,142,142,15,1,2,RL,linedal,print,linedal_p.png,,,,,,
,,,,31676,001,2025-10-16_19h02.56.604,HW_LDT_1,2024.2.4,MacIntel,119.047619,,,,,,,,,,,,,,,,,,,,,717.3542,717.5529,717.5529,718.0529,,,,,,,,,,,,,,1.8866,1,,,,,,,,,,,,,,z,,,,,,,,,,,,,,,,144,1,718.0533,719.9446,z,1,1.8866,,[],[],[],[],[],[],[],719.9447,721.9445,721.9446,723.0362,[],[],[],[],[],[],[],z,723.0363,723.0364,-0.067385913,-0.373594577,0,0,0,,0,143,143,28,1,2,RL,revune,cursive,revune_c.png,1.0875,,,,,
,,,,31676,001,2025-10-16_19h02.56.604,HW_LDT_1,2024.2.4,MacIntel,119.047619,,,,,,,,,,,,,,,,,,,,,723.0374,723.2363,723.2364,723.7361,,,,,,,,,,,,,,1.0367,1,,,,,,,,,,,,,,m,,,,,,,,,,,,,,,,145,1,723.7367,724.778,m,1,1.0367,,[],[],[],[],[],[],[],724.7781,726.7776,726.7776,727.6361,[],[],[],[],[],[],[],m,727.6362,727.6363,-0.067385913,-0.373594577,0,0,0,,0,144,144,159,1,2,word,VETERAN,print,veteran_p.png,0.8544,,,,,
,,,,31676,001,2025-10-16_19h02.56.604,HW_LDT_1,2024.2.4,MacIntel,119.047619,,,,,,,,,,,,,,,,,,,,,727.6371,727.836,727.8361,728.3354,,,,,,,,,,,,,,1.2454,1,,,,,,,,,,,,,,m,,,,,,,,,,,,,,,,146,0,728.3359,729.5852,m,1,1.2454,,[],[],[],[],[],[],[],729.5853,731.5857,731.5857,731.5858,[],[],[],[],[],[],[],,731.5859,731.5859,-0.067385913,-0.373594577,0,0,0,,0,145,145,127,1,2,word,ORIGINAL,print,original_p.png,,,,,,
,,,,31676,001,2025-10-16_19h02.56.604,HW_LDT_1,2024.2.4,MacIntel,119.047619,,,,,,,,,,,,,,,,,,,,,731.587,731.7863,731.7863,732.2857,,,,,,,,,,,,,,1.0241,1,,,,,,,,,,,,,,z,,,,,,,,,,,,,,,,147,0,732.2862,733.3112,z,1,1.0241,,[],[],[],[],[],[],[],733.3112,735.3112,735.3112,735.3114,[],[],[],[],[],[],[],,735.3115,735.3116,-0.067385913,-0.373594577,0,0,0,,0,146,146,3,1,2,RL,capefory,print,capefory_p.png,,,,,,
,,,,31676,001,2025-10-16_19h02.56.604,HW_LDT_1,2024.2.4,MacIntel,119.047619,,,,,,,,,,,,,,,,,,,,,735.3126,735.5112,735.5113,736.0101,,,,,,,,,,,,,,3.0381,1,,,,,,,,,,,,,,z,,,,,,,,,,,,,,,,148,0,736.0106,739.052,z,1,3.0381,,[],[],[],[],[],[],[],739.0521,741.052,741.052,741.0523,[],[],[],[],[],[],[],,741.0524,741.0524,-0.067385913,-0.373594577,0,0,0,,0,147,147,54,1,2,TL,liretal,cursive,liretal_c.png,,,,,,
,,,,31676,001,2025-10-16_19h02.56.604,HW_LDT_1,2024.2.4,MacIntel,119.047619,,,,,,,,,,,,,,,,,,,,,741.0533,741.2526,741.2526,741.7526,,,,,,,,,,,,,,0.7536,1,,,,,,,,,,,,,,z,,,,,,,,,,,,,,,,149,0,741.753,742.511,z,1,0.7536,,[],[],[],[],[],[],[],742.5112,744.5107,744.5107,744.5109,[],[],[],[],[],[],[],,744.511,744.511,-0.067385913,-0.373594577,0,0,0,,0,148,148,18,1,2,RL,mesibine,print,mesibine_p.png,,,,,,
,,,,31676,001,2025-10-16_19h02.56.604,HW_LDT_1,2024.2.4,MacIntel,119.047619,,,,,,,,,,,,,,,,,,,,,744.5119,744.7111,744.7111,745.21,,,,,,,,,,,,,,1.4081,1,,,,,,,,,,,,,,z,,,,,,,,,,,,,,,,150,0,745.2104,746.6191,z,1,1.4081,,[],[],[],[],[],[],[],746.6192,748.6192,748.6193,748.6194,[],[],[],[],[],[],[],,748.6195,748.6196,-0.067385913,-0.373594577,0,0,0,,0,149,149,79,1,2,TL,vadility,print,vadility_p.png,,,,,,
,,,,31676,001,2025-10-16_19h02.56.604,HW_LDT_1,2024.2.4,MacIntel,119.047619,,,,,,,,,,,,,,,,,,,,,748.6204,748.8193,748.8193,749.3192,,,,,,,,,,,,,,1.1367,0,,,,,,,,,,,,,,m,,,,,,,,,,,,,,,,151,0,749.3197,750.461,z,0,1.1367,,[],[],[],[],[],[],[],750.461,752.4609,752.461,752.461,[],[],[],[],[],[],[],,752.4611,752.4613,-0.067385913,-0.373594577,0,0,0,,0,150,150,123,1,2,word,MODERATE,cursive,moderate_c.png,,,,,,
,,,,31676,001,2025-10-16_19h02.56.604,HW_LDT_1,2024.2.4,MacIntel,119.047619,,,,,,,,,,,,,,,,,,,,,752.4622,752.6608,752.6609,753.16,,,,,,,,,,,,,,1.1384,1,,,,,,,,,,,,,,m,,,,,,,,,,,,,,,,152,0,753.1604,754.3025,m,1,1.1384,,[],[],[],[],[],[],[],754.3027,756.3024,756.3024,756.3026,[],[],[],[],[],[],[],,756.3026,756.3027,-0.067385913,-0.373594577,0,0,0,,0,151,151,151,1,2,word,SPECIFIC,print,specific_p.png,,,,,,
,,,,31676,001,2025-10-16_19h02.56.604,HW_LDT_1,2024.2.4,MacIntel,119.047619,,,,,,,,,,,,,,,,,,,,,756.3037,756.5024,756.5025,757.0024,,,,,,,,,,,,,,1.3535,0,,,,,,,,,,,,,,m,,,,,,,,,,,,,,,,153,0,757.003,758.36,z,0,1.3535,,[],[],[],[],[],[],[],758.3602,760.3608,760.3609,760.3609,[],[],[],[],[],[],[],,760.361,760.3611,-0.067385913,-0.373594577,0,0,0,,0,152,152,125,1,2,word,OPERATOR,cursive,operator_c.png,,,,,,
,,,,31676,001,2025-10-16_19h02.56.604,HW_LDT_1,2024.2.4,MacIntel,119.047619,,,,,,,,,,,,,,,,,,,,,760.3619,760.5608,760.5608,761.061,,,,,,,,,,,,,,0.7115,1,,,,,,,,,,,,,,z,,,,,,,,,,,,,,,,154,1,761.0614,761.7775,z,1,0.7115,,[],[],[],[],[],[],[],761.7776,763.7772,763.7773,764.8771,[],[],[],[],[],[],[],m,764.8772,764.8773,-0.067385913,-0.373594577,0,0,0,,0,153,153,4,1,2,RL,cenesony,print,cenesony_p.png,1.0959,,,,,
,,,,31676,001,2025-10-16_19h02.56.604,HW_LDT_1,2024.2.4,MacIntel,119.047619,,,,,,,,,,,,,,,,,,,,,764.8781,765.0773,765.0774,765.5775,,,,,,,,,,,,,,1.545,1,,,,,,,,,,,,,,m,,,,,,,,,,,,,,,,155,0,765.5781,767.1274,m,1,1.545,,[],[],[],[],[],[],[],767.1276,769.1274,769.1275,769.1276,[],[],[],[],[],[],[],,769.1277,769.1277,-0.067385913,-0.373594577,0,0,0,,0,154,154,107,1,2,word,EVIDENT,cursive,evident_c.png,,,,,,
,,,,31676,001,2025-10-16_19h02.56.604,HW_LDT_1,2024.2.4,MacIntel,119.047619,,,,,,,,,,,,,,,,,,,,,769.1286,769.3273,769.3274,769.8272,,,,,,,,,,,,,,4.2283,1,,,,,,,,,,,,,,m,,,,,,,,,,,,,,,,156,1,769.8278,774.06,m,1,4.2283,,[],[],[],[],[],[],[],774.06,776.0597,776.0598,777.1608,[],[],[],[],[],[],[],z,777.1609,777.1609,-0.067385913,-0.373594577,0,0,0,,0,155,155,109,1,2,word,GRATEFUL,cursive,grateful_c.png,1.1006,,,,,
,,,,31676,001,2025-10-16_19h02.56.604,HW_LDT_1,2024.2.4,MacIntel,119.047619,,,,,,,,,,,,,,,,,,,,,777.1618,777.3605,777.3605,777.8595,,,,,,,,,,,,,,1.2051,1,,,,,,,,,,,,,,z,,,,,,,,,,,,,,,,157,1,777.8597,779.0688,z,1,1.2051,,[],[],[],[],[],[],[],779.0688,781.0688,781.0689,782.3184,[],[],[],[],[],[],[],m,782.3186,782.3187,-0.067385913,-0.373594577,0,0,0,,0,156,156,72,1,2,TL,revomal,print,revomal_p.png,1.2458,,,,,
,,,,31676,001,2025-10-16_19h02.56.604,HW_LDT_1,2024.2.4,MacIntel,119.047619,,,,,,,,,,,,,,,,,,,,,782.3196,782.5188,782.5189,783.0189,,,,,,,,,,,,,,3.3284,1,,,,,,,,,,,,,,z,,,,,,,,,,,,,,,,158,0,783.0195,786.3523,z,1,3.3284,,[],[],[],[],[],[],[],786.3524,788.3521,788.3522,788.3523,[],[],[],[],[],[],[],,788.3523,788.3524,-0.067385913,-0.373594577,0,0,0,,0,157,157,10,1,2,RL,disluge,cursive,disluge_c.png,,,,,,
,,,,31676,001,2025-10-16_19h02.56.604,HW_LDT_1,2024.2.4,MacIntel,119.047619,,,,,,,,,,,,,,,,,,,,,788.3534,788.5521,788.5521,789.0521,,,,,,,,,,,,,,0.9702,1,,,,,,,,,,,,,,m,,,,,,,,,,,,,,,,159,0,789.0526,790.0273,m,1,0.9702,,[],[],[],[],[],[],[],790.0273,792.0272,792.0272,792.0273,[],[],[],[],[],[],[],,792.0274,792.0275,-0.067385913,-0.373594577,0,0,0,,0,158,158,112,1,2,word,LIBERAL,print,liberal_p.png,,,,,,
,,,,31676,001,2025-10-16_19h02.56.604,HW_LDT_1,2024.2.4,MacIntel,119.047619,,,,,,,,,,,,,,,,,,,,,792.0284,792.2267,792.2268,792.7263,,,,,,,,,,,,,,2.8792,1,,,,,,,,,,,,,,z,,,,,,,,,,,,,,,,160,0,792.7267,795.6106,z,1,2.8792,,[],[],[],[],[],[],[],795.6108,797.6103,797.6104,797.6106,[],[],[],[],[],[],[],,797.6106,797.6107,-0.067385913,-0.373594577,0,0,0,,0,159,159,40,1,2,TL,bevoled,cursive,bevoled_c.png,,,,,,
,,,,31676,001,2025-10-16_19h02.56.604,HW_LDT_1,2024.2.4,MacIntel,119.047619,,,,,,,,,,,,,,,,,,,,,,,,,,,,,,,,,,,,,,,,,,,,,,,,,,,,,,,,,,,,,,,,,,,,,,,,,,,,,,,,,,,,,,,,,,,,,,,,,,,,,,,,,,,,,,,,,,,,,,797.6254,802.6103
