counterbalance_lists.group,counterbalance_lists.remaining,get_list.started,get_list.stopped,participant,session,date,expName,psychopyVersion,OS,frameRate,Instructions.started,Instructions.stopped,key_resp.keys,instr_done_touch.x,instr_done_touch.y,instr_done_touch.leftButton,instr_done_touch.midButton,instr_done_touch.rightButton,instr_done_touch.clicked_name,start_instr.thisRepN,start_instr.thisTrialN,start_instr.thisN,start_instr.thisIndex,start_instr.ran,pageN,phase,instruct_text,has_image,instruct_image,key_resp.rt,key_resp.duration,showProgress.started,showProgress.stopped,fix.started,fix.stopped,prac.started,prac.stopped,response.keys,response.corr,response.rt,response.duration,touch_resp.x,touch_resp.y,touch_resp.leftButton,touch_resp.midButton,touch_resp.rightButton,touch_resp.time,touch_resp.clicked_name,rt,corr,feedback.started,feedback.stopped,trials.thisRepN,trials.thisTrialN,trials.thisN,trials.thisIndex,trials.ran,TrialID,StimulusType,Condition,PrimeDuration,Prime,Target,corrAns,Instructions_expt.started,Instructions_expt.stopped,key_resp_3.keys,key_resp_3.rt,key_resp_3.duration,instr_done_touch_3.x,instr_done_touch_3.y,instr_done_touch_3.leftButton,instr_done_touch_3.midButton,instr_done_touch_3.rightButton,instr_experiment.thisRepN,instr_experiment.thisTrialN,instr_experiment.thisN,instr_experiment.thisIndex,instr_experiment.ran,trialID,flag,maintask.started,maintask.stopped,key_resp_2.keys,key_resp_2.corr,key_resp_2.rt,key_resp_2.duration,targ_click.x,targ_click.y,targ_click.leftButton,targ_click.midButton,targ_click.rightButton,targ_click.time,targ_click.clicked_name,ITI.started,ITI.stopped,probe.started,probe.stopped,click_probe.x,click_probe.y,click_probe.leftButton,click_probe.midButton,click_probe.rightButton,click_probe.time,click_probe.clicked_name,key_resp_probe.keys,key_resp_probe.rt,key_resp_probe.duration,Break.started,Break.stopped,break_done_touch.x,break_done_touch.y,break_done_touch.leftButton,break_done_touch.midButton,break_done_touch.rightButton,break_done_keyboard.keys,list1_trials.thisRepN,list1_trials.thisTrialN,list1_trials.thisN,list1_trials.thisIndex,list1_trials.ran,list_id,item_type,string,font,stim_file,break_done_touch.clicked_name,End.started,End.stopped
list1,,0.4175,0.4177,31697,001,2025-10-16_12h38.37.446,HW_LDT_1,2024.2.4,MacIntel,60.24096386,,,,,,,,,,,,,,,,,,,,,,,,,,,,,,,,,,,,,,,,,,,,,,,,,,,,,,,,,,,,,,,,,,,,,,,,,,,,,,,,,,,,,,,,,,,,,,,,,,,,,,,,,,,,,,,,,,,,,,,
,,,,31697,001,2025-10-16_12h38.37.446,HW_LDT_1,2024.2.4,MacIntel,60.24096386,0.4384,24.0037,,-0.014211107,-0.425810971,1,0,0,instr_done_button,0,0,0,0,1,1,instructions,"INSTRUCTIONS
At the start of each trial, look at the plus sign  (+) in the center of the screen.  This tells you that a trial is about to begin and where to look. Second, the plus sign will disappear and a string of letters will appear. Your task is to determine if the string of letters is a word or not. If the item is a word press the M key (on keyboard)  or touch the word button (phone/tablet).  If the item is not a word,  press the  Z key (on keyboard)  or touch the nonword button (on phone/tablet). The items will be presented for a short time. 
Press the space bar or touch  continue.",0,,,,,,,,,,,,,,,,,,,,,,,,,,,,,,,,,,,,,,,,,,,,,,,,,,,,,,,,,,,,,,,,,,,,,,,,,,,,,,,,,,,,,,,,,,,,,,,,,,,,,
,,,,31697,001,2025-10-16_12h38.37.446,HW_LDT_1,2024.2.4,MacIntel,60.24096386,24.0062,30.9046,space,-0.110805876,-0.246059783,0,0,0,,0,1,1,1,1,2,instructions,"If your device has a keyboard, press the 'Z' key for nonwords and the 'M' key for words.





Press the space bar or touch the button below to continue.",0,keyboard-example.gif,6.8714,,,,,,,,,,,,,,,,,,,,,,,,,,,,,,,,,,,,,,,,,,,,,,,,,,,,,,,,,,,,,,,,,,,,,,,,,,,,,,,,,,,,,,,,,,,,,,,,,,,
,,,,31697,001,2025-10-16_12h38.37.446,HW_LDT_1,2024.2.4,MacIntel,60.24096386,30.911,32.7033,space,-0.110805876,-0.246059783,0,0,0,,0,2,2,2,1,3,instructions,"If you are using a touchscreen only device, use the buttons on the screen. Do not use the mouse.





Press the space bar or touch the button below to continue.",0,touchscreen-example.gif,1.768,,,,,,,,,,,,,,,,,,,,,,,,,,,,,,,,,,,,,,,,,,,,,,,,,,,,,,,,,,,,,,,,,,,,,,,,,,,,,,,,,,,,,,,,,,,,,,,,,,,
,,,,31697,001,2025-10-16_12h38.37.446,HW_LDT_1,2024.2.4,MacIntel,60.24096386,32.7053,39.5199,space,-0.110805876,-0.246059783,0,0,0,,0,3,3,3,1,4,instructions,"It is very important that you respond as quickly and accurately as possible, as each letter string will only be on the screen for two seconds. If you do not respond within this time, the message 'Too slow!' will be displayed and the experiment will progress to the next letter string. The first 20 trials will be practice trials and you will receive feedback on your answers. 

Press the space bar or touch the button below to start the practice trials.",0,,6.7987,,,,,,,,,,,,,,,,,,,,,,,,,,,,,,,,,,,,,,,,,,,,,,,,,,,,,,,,,,,,,,,,,,,,,,,,,,,,,,,,,,,,,,,,,,,,,,,,,,,
,,,,31697,001,2025-10-16_12h38.37.446,HW_LDT_1,2024.2.4,MacIntel,60.24096386,,,,,,,,,,,,,,,,,,,,,,39.5355,39.7192,39.7196,40.2201,40.2205,41.8369,m,1,1.5863,,[],[],[],[],[],[],[],1.5863,1,41.8374,42.337,0,0,0,1,1,1002,WORD,"ID",33,adjust,ADJUST,m,,,,,,,,,,,,,,,,,,,,,,,,,,,,,,,,,,,,,,,,,,,,,,,,,,,,,,,,,,,,,,,,,
,,,,31697,001,2025-10-16_12h38.37.446,HW_LDT_1,2024.2.4,MacIntel,60.24096386,,,,,,,,,,,,,,,,,,,,,,42.3392,42.5365,42.5366,43.0366,43.0379,44.4523,z,1,1.3951,,[],[],[],[],[],[],[],1.3951,1,44.4525,44.9529,0,1,1,12,1,1013,NW,UN,33,adveil,SPRINY,z,,,,,,,,,,,,,,,,,,,,,,,,,,,,,,,,,,,,,,,,,,,,,,,,,,,,,,,,,,,,,,,,,
,,,,31697,001,2025-10-16_12h38.37.446,HW_LDT_1,2024.2.4,MacIntel,60.24096386,,,,,,,,,,,,,,,,,,,,,,44.9537,45.1532,45.1534,45.6528,45.6533,46.9528,m,1,1.2804,,[],[],[],[],[],[],[],1.2804,1,46.9529,47.4522,0,2,2,4,1,1005,WORD,UN,33,abound,SQUEAK,m,,,,,,,,,,,,,,,,,,,,,,,,,,,,,,,,,,,,,,,,,,,,,,,,,,,,,,,,,,,,,,,,,
,,,,31697,001,2025-10-16_12h38.37.446,HW_LDT_1,2024.2.4,MacIntel,60.24096386,,,,,,,,,,,,,,,,,,,,,,47.4537,47.653,47.6531,48.1522,48.1534,49.2032,z,1,1.0335,,[],[],[],[],[],[],[],1.0335,1,49.2034,49.7034,0,3,3,10,1,1011,NW,"ID",16,inlade,INLADE,z,,,,,,,,,,,,,,,,,,,,,,,,,,,,,,,,,,,,,,,,,,,,,,,,,,,,,,,,,,,,,,,,,
,,,,31697,001,2025-10-16_12h38.37.446,HW_LDT_1,2024.2.4,MacIntel,60.24096386,,,,,,,,,,,,,,,,,,,,,,49.7053,49.9032,49.9035,50.4031,50.4045,51.3854,m,1,0.9601,,[],[],[],[],[],[],[],0.9601,1,51.3856,51.8866,0,4,4,3,1,1004,WORD,"ID",16,matrix,MATRIX,m,,,,,,,,,,,,,,,,,,,,,,,,,,,,,,,,,,,,,,,,,,,,,,,,,,,,,,,,,,,,,,,,,
,,,,31697,001,2025-10-16_12h38.37.446,HW_LDT_1,2024.2.4,MacIntel,60.24096386,,,,,,,,,,,,,,,,,,,,,,51.8883,52.0864,52.0865,52.5866,52.5879,53.7855,m,1,1.1801,,[],[],[],[],[],[],[],1.1801,1,53.7857,54.2864,0,5,5,5,1,1006,WORD,UN,33,frenzy,OBTAIN,m,,,,,,,,,,,,,,,,,,,,,,,,,,,,,,,,,,,,,,,,,,,,,,,,,,,,,,,,,,,,,,,,,
,,,,31697,001,2025-10-16_12h38.37.446,HW_LDT_1,2024.2.4,MacIntel,60.24096386,,,,,,,,,,,,,,,,,,,,,,54.2876,54.4866,54.4867,54.9855,54.9865,56.0032,z,1,0.9976,,[],[],[],[],[],[],[],0.9976,1,56.0034,56.5031,0,6,6,8,1,1009,NW,"ID",33,aslert,ASLERT,z,,,,,,,,,,,,,,,,,,,,,,,,,,,,,,,,,,,,,,,,,,,,,,,,,,,,,,,,,,,,,,,,,
,,,,31697,001,2025-10-16_12h38.37.446,HW_LDT_1,2024.2.4,MacIntel,60.24096386,,,,,,,,,,,,,,,,,,,,,,56.5048,56.7032,56.7033,57.2031,57.2043,58.4696,m,1,1.2498,,[],[],[],[],[],[],[],1.2498,1,58.4699,58.9694,0,7,7,6,1,1007,WORD,UN,16,tropic,ZOMBIE,m,,,,,,,,,,,,,,,,,,,,,,,,,,,,,,,,,,,,,,,,,,,,,,,,,,,,,,,,,,,,,,,,,
,,,,31697,001,2025-10-16_12h38.37.446,HW_LDT_1,2024.2.4,MacIntel,60.24096386,,,,,,,,,,,,,,,,,,,,,,58.9707,59.1696,59.1696,59.6689,59.6696,60.3364,m,1,0.6474,,[],[],[],[],[],[],[],0.6474,1,60.3366,60.8369,0,8,8,2,1,1003,WORD,"ID",16,almond,ALMOND,m,,,,,,,,,,,,,,,,,,,,,,,,,,,,,,,,,,,,,,,,,,,,,,,,,,,,,,,,,,,,,,,,,
,,,,31697,001,2025-10-16_12h38.37.446,HW_LDT_1,2024.2.4,MacIntel,60.24096386,,,,,,,,,,,,,,,,,,,,,,60.8391,61.0364,61.0364,61.5364,61.5388,62.4029,z,1,0.8368,,[],[],[],[],[],[],[],0.8368,1,62.4033,62.9023,0,9,9,14,1,1015,NW,UN,16,miaber,THRALE,z,,,,,,,,,,,,,,,,,,,,,,,,,,,,,,,,,,,,,,,,,,,,,,,,,,,,,,,,,,,,,,,,,
,,,,31697,001,2025-10-16_12h38.37.446,HW_LDT_1,2024.2.4,MacIntel,60.24096386,,,,,,,,,,,,,,,,,,,,,,62.9063,63.102,63.1021,63.6027,63.6033,64.5528,z,1,0.9395,,[],[],[],[],[],[],[],0.9395,1,64.553,65.0526,0,10,10,13,1,1014,NW,UN,33,winfer,ROUPET,z,,,,,,,,,,,,,,,,,,,,,,,,,,,,,,,,,,,,,,,,,,,,,,,,,,,,,,,,,,,,,,,,,
,,,,31697,001,2025-10-16_12h38.37.446,HW_LDT_1,2024.2.4,MacIntel,60.24096386,,,,,,,,,,,,,,,,,,,,,,65.0544,65.253,65.2531,65.7517,65.7527,66.4354,m,1,0.6765,,[],[],[],[],[],[],[],0.6765,1,66.4355,66.9351,0,11,11,7,1,1008,WORD,UN,16,hurdle,VOLUME,m,,,,,,,,,,,,,,,,,,,,,,,,,,,,,,,,,,,,,,,,,,,,,,,,,,,,,,,,,,,,,,,,,
,,,,31697,001,2025-10-16_12h38.37.446,HW_LDT_1,2024.2.4,MacIntel,60.24096386,,,,,,,,,,,,,,,,,,,,,,66.9357,67.1363,67.1363,67.6355,67.6368,68.5685,z,1,0.9222,,[],[],[],[],[],[],[],0.9222,1,68.5685,69.0697,0,12,12,15,1,1016,NW,UN,16,mushed,WHAISE,z,,,,,,,,,,,,,,,,,,,,,,,,,,,,,,,,,,,,,,,,,,,,,,,,,,,,,,,,,,,,,,,,,
,,,,31697,001,2025-10-16_12h38.37.446,HW_LDT_1,2024.2.4,MacIntel,60.24096386,,,,,,,,,,,,,,,,,,,,,,69.0712,69.2687,69.2688,69.769,69.7703,70.5529,z,1,0.7677,,[],[],[],[],[],[],[],0.7677,1,70.553,71.0531,0,13,13,9,1,1010,NW,"ID",33,fariny,FARINY,z,,,,,,,,,,,,,,,,,,,,,,,,,,,,,,,,,,,,,,,,,,,,,,,,,,,,,,,,,,,,,,,,,
,,,,31697,001,2025-10-16_12h38.37.446,HW_LDT_1,2024.2.4,MacIntel,60.24096386,,,,,,,,,,,,,,,,,,,,,,71.0567,71.252,71.252,71.753,71.7537,72.5862,m,1,0.8164,,[],[],[],[],[],[],[],0.8164,1,72.5864,73.0865,0,14,14,0,1,1001,WORD,"ID",33,utopia,UTOPIA,m,,,,,,,,,,,,,,,,,,,,,,,,,,,,,,,,,,,,,,,,,,,,,,,,,,,,,,,,,,,,,,,,,
,,,,31697,001,2025-10-16_12h38.37.446,HW_LDT_1,2024.2.4,MacIntel,60.24096386,,,,,,,,,,,,,,,,,,,,,,73.088,73.2855,73.2855,73.7855,73.7863,74.47,z,1,0.6526,,[],[],[],[],[],[],[],0.6526,1,74.4702,74.9688,0,15,15,11,1,1012,NW,"ID",16,rashet,RASHET,z,,,,,,,,,,,,,,,,,,,,,,,,,,,,,,,,,,,,,,,,,,,,,,,,,,,,,,,,,,,,,,,,,
,,,,31697,001,2025-10-16_12h38.37.446,HW_LDT_1,2024.2.4,MacIntel,60.24096386,,,,,,,,,,,,,,,1,end_of_practice,"You have completed the practice trials. During the experimental trials, you will not receive feedback. On some trials you will be asked to report whether the item you just saw was in cursive or print. 
Before you begin, please ensure that you are in a comfortable and quiet location and will not be disturbed for about 15 minutes, as we cannot use your data if you do not complete all the trials. 
 When you are ready to start the experimental trials, please press space or touch the button below.",,,,,,,,,,,,,,,,,,,,,,,,,,,,,,,,,,,,,,74.9773,78.8532,space,3.8385,,-0.110805876,-0.246059783,0,0,0,0,0,0,0,1,,,,,,,,,,,,,,,,,,,,,,,,,,,,,,,,,,,,,,,,,,,,,,,,,,
,,,,31697,001,2025-10-16_12h38.37.446,HW_LDT_1,2024.2.4,MacIntel,60.24096386,,,,,,,,,,,,,,,,,,,,,,78.8589,79.053,79.053,79.5521,,,,,,,,,,,,,,0.7705,1,,,,,,,,,,,,,,z,,,,,,,,,,,,,,,,1,1,79.5549,80.3367,z,1,0.7705,,[],[],[],[],[],[],[],80.337,82.3358,82.3361,85.9041,[],[],[],[],[],[],[],m,3.5525,,85.9047,85.9086,-0.110805876,-0.246059783,0,0,0,,0,0,0,8,1,1,RL,debave,print,debave_p.png,,,
,,,,31697,001,2025-10-16_12h38.37.446,HW_LDT_1,2024.2.4,MacIntel,60.24096386,,,,,,,,,,,,,,,,,,,,,,85.9134,86.1029,86.1031,86.602,,,,,,,,,,,,,,2.4957,1,,,,,,,,,,,,,,m,,,,,,,,,,,,,,,,2,0,86.6028,89.103,m,1,2.4957,,[],[],[],[],[],[],[],89.1032,91.1022,91.1023,91.1028,[],[],[],[],[],[],[],,,,91.1029,91.103,-0.110805876,-0.246059783,0,0,0,,0,1,1,124,1,1,word,NUMERICAL,print,numerical_p.png,,,
,,,,31697,001,2025-10-16_12h38.37.446,HW_LDT_1,2024.2.4,MacIntel,60.24096386,,,,,,,,,,,,,,,,,,,,,,91.106,91.3089,91.3089,91.8029,,,,,,,,,,,,,,1.217,1,,,,,,,,,,,,,,z,,,,,,,,,,,,,,,,3,0,91.804,93.0359,z,1,1.217,,[],[],[],[],[],[],[],93.0359,95.0362,95.0363,95.0364,[],[],[],[],[],[],[],,,,95.0365,95.0365,-0.110805876,-0.246059783,0,0,0,,0,2,2,47,1,1,TL,cagetory,print,cagetory_p.png,,,
,,,,31697,001,2025-10-16_12h38.37.446,HW_LDT_1,2024.2.4,MacIntel,60.24096386,,,,,,,,,,,,,,,,,,,,,,95.0375,95.236,95.236,95.7364,,,,,,,,,,,,,,1.0347,1,,,,,,,,,,,,,,z,,,,,,,,,,,,,,,,4,0,95.7374,96.7863,z,1,1.0347,,[],[],[],[],[],[],[],96.7864,98.7862,98.7864,98.7867,[],[],[],[],[],[],[],,,,98.7867,98.7868,-0.110805876,-0.246059783,0,0,0,,0,3,3,43,1,1,TL,bedise,print,bedise_p.png,,,
,,,,31697,001,2025-10-16_12h38.37.446,HW_LDT_1,2024.2.4,MacIntel,60.24096386,,,,,,,,,,,,,,,,,,,,,,98.7887,98.9853,98.9854,99.4862,,,,,,,,,,,,,,1.3755,0,,,,,,,,,,,,,,z,,,,,,,,,,,,,,,,5,1,99.4871,100.8697,m,0,1.3755,,[],[],[],[],[],[],[],100.8699,102.8696,102.8697,104.8361,[],[],[],[],[],[],[],z,1.9588,,104.8363,104.8366,-0.110805876,-0.246059783,0,0,0,,0,4,4,49,1,1,TL,clicinal,cursive,clicinal_c.png,,,
,,,,31697,001,2025-10-16_12h38.37.446,HW_LDT_1,2024.2.4,MacIntel,60.24096386,,,,,,,,,,,,,,,,,,,,,,104.8389,105.0363,105.0363,105.5356,,,,,,,,,,,,,,2.5532,0,,,,,,,,,,,,,,z,,,,,,,,,,,,,,,,6,1,105.5365,108.1025,m,0,2.5532,,[],[],[],[],[],[],[],108.1027,110.1031,110.1032,111.3693,[],[],[],[],[],[],[],z,1.2521,,111.3695,111.3695,-0.110805876,-0.246059783,0,0,0,,0,5,5,66,1,1,TL,panert,cursive,panert_c.png,,,
,,,,31697,001,2025-10-16_12h38.37.446,HW_LDT_1,2024.2.4,MacIntel,60.24096386,,,,,,,,,,,,,,,,,,,,,,111.3701,111.5687,111.5687,112.0687,,,,,,,,,,,,,,1.0364,1,,,,,,,,,,,,,,m,,,,,,,,,,,,,,,,7,0,112.0695,113.1196,m,1,1.0364,,[],[],[],[],[],[],[],113.1198,115.1195,115.1196,115.1199,[],[],[],[],[],[],[],,,,115.1199,115.1201,-0.110805876,-0.246059783,0,0,0,,0,6,6,133,1,1,word,PROVIDE,print,provide_p.png,,,
,,,,31697,001,2025-10-16_12h38.37.446,HW_LDT_1,2024.2.4,MacIntel,60.24096386,,,,,,,,,,,,,,,,,,,,,,115.1218,115.3196,115.3196,115.8196,,,,,,,,,,,,,,1.0531,1,,,,,,,,,,,,,,z,,,,,,,,,,,,,,,,8,1,115.8203,116.8859,z,1,1.0531,,[],[],[],[],[],[],[],116.886,118.8862,118.8862,119.7019,[],[],[],[],[],[],[],z,0.8038,,119.7021,119.7022,-0.110805876,-0.246059783,0,0,0,,0,7,7,44,1,1,TL,cateferia,cursive,cateferia_c.png,,,
,,,,31697,001,2025-10-16_12h38.37.446,HW_LDT_1,2024.2.4,MacIntel,60.24096386,,,,,,,,,,,,,,,,,,,,,,119.7037,119.9029,119.9029,120.403,,,,,,,,,,,,,,1.8236,1,,,,,,,,,,,,,,m,,,,,,,,,,,,,,,,9,0,120.4038,122.2362,m,1,1.8236,,[],[],[],[],[],[],[],122.2364,124.2361,124.2362,124.2364,[],[],[],[],[],[],[],,,,124.2365,124.2366,-0.110805876,-0.246059783,0,0,0,,0,8,8,154,1,1,word,STORAGE,cursive,storage_c.png,,,
,,,,31697,001,2025-10-16_12h38.37.446,HW_LDT_1,2024.2.4,MacIntel,60.24096386,,,,,,,,,,,,,,,,,,,,,,124.2383,124.4362,124.4363,124.9361,,,,,,,,,,,,,,1.4036,1,,,,,,,,,,,,,,m,,,,,,,,,,,,,,,,10,0,124.9372,126.3528,m,1,1.4036,,[],[],[],[],[],[],[],126.3531,128.3529,128.353,128.3534,[],[],[],[],[],[],[],,,,128.3535,128.3539,-0.110805876,-0.246059783,0,0,0,,0,9,9,93,1,1,word,CEREMONY,cursive,ceremony_c.png,,,
,,,,31697,001,2025-10-16_12h38.37.446,HW_LDT_1,2024.2.4,MacIntel,60.24096386,,,,,,,,,,,,,,,,,,,,,,128.357,128.5528,128.5529,129.0528,,,,,,,,,,,,,,1.1762,1,,,,,,,,,,,,,,m,,,,,,,,,,,,,,,,11,0,129.0537,130.2359,m,1,1.1762,,[],[],[],[],[],[],[],130.236,132.2362,132.2363,132.2366,[],[],[],[],[],[],[],,,,132.2367,132.237,-0.110805876,-0.246059783,0,0,0,,0,10,10,91,1,1,word,CARDINAL,print,cardinal_p.png,,,
,,,,31697,001,2025-10-16_12h38.37.446,HW_LDT_1,2024.2.4,MacIntel,60.24096386,,,,,,,,,,,,,,,,,,,,,,132.2388,132.4361,132.4362,132.9362,,,,,,,,,,,,,,0.9985,1,,,,,,,,,,,,,,z,,,,,,,,,,,,,,,,12,0,132.937,133.9364,z,1,0.9985,,[],[],[],[],[],[],[],133.9365,135.9359,135.9361,135.9362,[],[],[],[],[],[],[],,,,135.9362,135.9363,-0.110805876,-0.246059783,0,0,0,,0,11,11,36,1,1,RL,speniven,cursive,speniven_c.png,,,
,,,,31697,001,2025-10-16_12h38.37.446,HW_LDT_1,2024.2.4,MacIntel,60.24096386,,,,,,,,,,,,,,,,,,,,,,135.9374,136.1363,136.1363,136.6362,,,,,,,,,,,,,,0.8035,1,,,,,,,,,,,,,,m,,,,,,,,,,,,,,,,13,0,136.6372,137.4529,m,1,0.8035,,[],[],[],[],[],[],[],137.4529,139.4529,139.4529,139.4534,[],[],[],[],[],[],[],,,,139.4535,139.4538,-0.110805876,-0.246059783,0,0,0,,0,12,12,82,1,1,word,AMATEUR,print,amateur_p.png,,,
,,,,31697,001,2025-10-16_12h38.37.446,HW_LDT_1,2024.2.4,MacIntel,60.24096386,,,,,,,,,,,,,,,,,,,,,,139.4562,139.653,139.6531,140.1532,,,,,,,,,,,,,,0.8696,1,,,,,,,,,,,,,,m,,,,,,,,,,,,,,,,14,0,140.154,141.0362,m,1,0.8696,,[],[],[],[],[],[],[],141.0363,143.0362,143.0363,143.0366,[],[],[],[],[],[],[],,,,143.0366,143.0369,-0.110805876,-0.246059783,0,0,0,,0,13,13,86,1,1,word,BESIDE,print,beside_p.png,,,
,,,,31697,001,2025-10-16_12h38.37.446,HW_LDT_1,2024.2.4,MacIntel,60.24096386,,,,,,,,,,,,,,,,,,,,,,143.0382,143.236,143.2361,143.7361,,,,,,,,,,,,,,1.1217,1,,,,,,,,,,,,,,m,,,,,,,,,,,,,,,,15,0,143.7367,144.8696,m,1,1.1217,,[],[],[],[],[],[],[],144.8696,146.8695,146.8695,146.8697,[],[],[],[],[],[],[],,,,146.8698,146.87,-0.110805876,-0.246059783,0,0,0,,0,14,14,141,1,1,word,RELIGION,cursive,religion_c.png,,,
,,,,31697,001,2025-10-16_12h38.37.446,HW_LDT_1,2024.2.4,MacIntel,60.24096386,,,,,,,,,,,,,,,,,,,,,,146.8712,147.0694,147.0695,147.5694,,,,,,,,,,,,,,0.7537,1,,,,,,,,,,,,,,m,,,,,,,,,,,,,,,,16,0,147.5702,148.3362,m,1,0.7537,,[],[],[],[],[],[],[],148.3363,150.3361,150.3362,150.3365,[],[],[],[],[],[],[],,,,150.3366,150.3367,-0.110805876,-0.246059783,0,0,0,,0,15,15,85,1,1,word,BENEFIT,print,benefit_p.png,,,
,,,,31697,001,2025-10-16_12h38.37.446,HW_LDT_1,2024.2.4,MacIntel,60.24096386,,,,,,,,,,,,,,,,,,,,,,150.3388,150.5362,150.5362,151.0361,,,,,,,,,,,,,,1.2862,1,,,,,,,,,,,,,,z,,,,,,,,,,,,,,,,17,0,151.0369,152.336,z,1,1.2862,,[],[],[],[],[],[],[],152.3361,154.336,154.3362,154.3364,[],[],[],[],[],[],[],,,,154.3364,154.3365,-0.110805876,-0.246059783,0,0,0,,0,16,16,50,1,1,TL,condiser,cursive,condiser_c.png,,,
,,,,31697,001,2025-10-16_12h38.37.446,HW_LDT_1,2024.2.4,MacIntel,60.24096386,,,,,,,,,,,,,,,,,,,,,,154.338,154.5355,154.5356,155.0361,,,,,,,,,,,,,,0.9359,1,,,,,,,,,,,,,,m,,,,,,,,,,,,,,,,18,0,155.0367,155.9861,m,1,0.9359,,[],[],[],[],[],[],[],155.9861,157.9862,157.9862,157.9866,[],[],[],[],[],[],[],,,,157.9867,157.9868,-0.110805876,-0.246059783,0,0,0,,0,17,17,89,1,1,word,CAPACITY,print,capacity_p.png,,,
,,,,31697,001,2025-10-16_12h38.37.446,HW_LDT_1,2024.2.4,MacIntel,60.24096386,,,,,,,,,,,,,,,,,,,,,,157.9886,158.1861,158.1862,158.6862,,,,,,,,,,,,,,1.5081,0,,,,,,,,,,,,,,m,,,,,,,,,,,,,,,,19,0,158.6868,160.2027,z,0,1.5081,,[],[],[],[],[],[],[],160.2029,162.2028,162.2029,162.2031,[],[],[],[],[],[],[],,,,162.2031,162.2036,-0.110805876,-0.246059783,0,0,0,,0,18,18,105,1,1,word,EDITOR,cursive,editor_c.png,,,
,,,,31697,001,2025-10-16_12h38.37.446,HW_LDT_1,2024.2.4,MacIntel,60.24096386,,,,,,,,,,,,,,,,,,,,,,162.2053,162.4024,162.4024,162.8913,,,,,,,,,,,,,,0.746,1,,,,,,,,,,,,,,m,,,,,,,,,,,,,,,,20,0,162.8926,163.6527,m,1,0.746,,[],[],[],[],[],[],[],163.6528,165.6527,165.6527,165.653,[],[],[],[],[],[],[],,,,165.6531,165.6532,-0.110805876,-0.246059783,0,0,0,,0,19,19,83,1,1,word,ANIMAL,print,animal_p.png,,,
,,,,31697,001,2025-10-16_12h38.37.446,HW_LDT_1,2024.2.4,MacIntel,60.24096386,,,,,,,,,,,,,,,,,,,,,,165.6549,165.8527,165.8527,166.3527,,,,,,,,,,,,,,1.0752,1,,,,,,,,,,,,,,z,,,,,,,,,,,,,,,,21,0,166.3533,167.4361,z,1,1.0752,,[],[],[],[],[],[],[],167.4362,169.4359,169.436,169.4364,[],[],[],[],[],[],[],,,,169.4365,169.4366,-0.110805876,-0.246059783,0,0,0,,0,20,20,78,1,1,TL,vecolity,print,vecolity_p.png,,,
,,,,31697,001,2025-10-16_12h38.37.446,HW_LDT_1,2024.2.4,MacIntel,60.24096386,,,,,,,,,,,,,,,,,,,,,,169.4384,169.6359,169.6361,170.136,,,,,,,,,,,,,,1.3199,1,,,,,,,,,,,,,,z,,,,,,,,,,,,,,,,22,0,170.1367,171.4693,z,1,1.3199,,[],[],[],[],[],[],[],171.4693,173.4693,173.4695,173.4697,[],[],[],[],[],[],[],,,,173.4699,173.47,-0.110805876,-0.246059783,0,0,0,,0,21,21,40,1,1,TL,atameur,print,atameur_p.png,,,
,,,,31697,001,2025-10-16_12h38.37.446,HW_LDT_1,2024.2.4,MacIntel,60.24096386,,,,,,,,,,,,,,,,,,,,,,173.4716,173.6693,173.6694,174.1691,,,,,,,,,,,,,,0.7866,1,,,,,,,,,,,,,,z,,,,,,,,,,,,,,,,23,0,174.1698,174.9693,z,1,0.7866,,[],[],[],[],[],[],[],174.9695,176.9693,176.9694,176.9698,[],[],[],[],[],[],[],,,,176.9699,176.97,-0.110805876,-0.246059783,0,0,0,,0,22,22,70,1,1,TL,relugar,print,relugar_p.png,,,
,,,,31697,001,2025-10-16_12h38.37.446,HW_LDT_1,2024.2.4,MacIntel,60.24096386,,,,,,,,,,,,,,,,,,,,,,176.9722,177.1693,177.1693,177.669,,,,,,,,,,,,,,1.2919,0,,,,,,,,,,,,,,m,,,,,,,,,,,,,,,,24,0,177.67,178.9693,z,0,1.2919,,[],[],[],[],[],[],[],178.9695,180.9693,180.9694,180.9698,[],[],[],[],[],[],[],,,,180.9699,180.9701,-0.110805876,-0.246059783,0,0,0,,0,23,23,134,1,1,word,QUALIFY,cursive,qualify_c.png,,,
,,,,31697,001,2025-10-16_12h38.37.446,HW_LDT_1,2024.2.4,MacIntel,60.24096386,,,,,,,,,,,,,,,,,,,,,,180.9725,181.1695,181.1695,181.6694,,,,,,,,,,,,,,0.6861,1,,,,,,,,,,,,,,m,,,,,,,,,,,,,,,,25,0,181.6704,182.3693,m,1,0.6861,,[],[],[],[],[],[],[],182.3693,184.3689,184.3689,184.3691,[],[],[],[],[],[],[],,,,184.3691,184.3691,-0.110805876,-0.246059783,0,0,0,,0,24,24,121,1,1,word,MISTAKE,print,mistake_p.png,,,
,,,,31697,001,2025-10-16_12h38.37.446,HW_LDT_1,2024.2.4,MacIntel,60.24096386,,,,,,,,,,,,,,,,,,,,,,184.3701,184.5693,184.5694,185.0688,,,,,,,,,,,,,,1.1911,0,,,,,,,,,,,,,,m,,,,,,,,,,,,,,,,26,0,185.069,186.2695,z,0,1.1911,,[],[],[],[],[],[],[],186.2696,188.2694,188.2694,188.2697,[],[],[],[],[],[],[],,,,188.2698,188.27,-0.110805876,-0.246059783,0,0,0,,0,25,25,135,1,1,word,QUALITY,cursive,quality_c.png,,,
,,,,31697,001,2025-10-16_12h38.37.446,HW_LDT_1,2024.2.4,MacIntel,60.24096386,,,,,,,,,,,,,,,,,,,,,,188.2718,188.4693,188.4693,188.9692,,,,,,,,,,,,,,0.969,1,,,,,,,,,,,,,,m,,,,,,,,,,,,,,,,27,1,188.9699,189.9525,m,1,0.969,,[],[],[],[],[],[],[],189.9526,191.9527,191.9528,193.0023,[],[],[],[],[],[],[],z,1.0355,,193.0024,193.0025,-0.111315387,-0.248641304,0,0,0,,0,26,26,152,1,1,word,SPECIMEN,cursive,specimen_c.png,,,
,,,,31697,001,2025-10-16_12h38.37.446,HW_LDT_1,2024.2.4,MacIntel,60.24096386,,,,,,,,,,,,,,,,,,,,,,193.0036,193.2026,193.2026,193.7025,,,,,,,,,,,,,,1.0649,1,,,,,,,,,,,,,,m,,,,,,,,,,,,,,,,28,0,193.7034,194.7691,m,1,1.0649,,[],[],[],[],[],[],[],194.7692,196.7693,196.7693,196.7696,[],[],[],[],[],[],[],,,,196.7696,196.7698,-0.111315387,-0.248641304,0,0,0,,0,27,27,98,1,1,word,CRIMINAL,print,criminal_p.png,,,
,,,,31697,001,2025-10-16_12h38.37.446,HW_LDT_1,2024.2.4,MacIntel,60.24096386,,,,,,,,,,,,,,,,,,,,,,196.7713,196.9693,196.9693,197.4692,,,,,,,,,,,,,,0.9033,1,,,,,,,,,,,,,,z,,,,,,,,,,,,,,,,29,0,197.4699,198.3858,z,1,0.9033,,[],[],[],[],[],[],[],198.3859,200.3859,200.3859,200.3862,[],[],[],[],[],[],[],,,,200.3863,200.3864,-0.111315387,-0.248641304,0,0,0,,0,28,28,45,1,1,TL,cacapity,print,cacapity_p.png,,,
,,,,31697,001,2025-10-16_12h38.37.446,HW_LDT_1,2024.2.4,MacIntel,60.24096386,,,,,,,,,,,,,,,,,,,,,,200.3882,200.586,200.5861,201.0859,,,,,,,,,,,,,,2.4705,0,,,,,,,,,,,,,,m,,,,,,,,,,,,,,,,30,0,201.0864,203.5686,z,0,2.4705,,[],[],[],[],[],[],[],203.5687,205.5691,205.5693,205.5696,[],[],[],[],[],[],[],,,,205.5698,205.5699,-0.111315387,-0.248641304,0,0,0,,0,29,29,111,1,1,word,INDICATE,cursive,indicate_c.png,,,
,,,,31697,001,2025-10-16_12h38.37.446,HW_LDT_1,2024.2.4,MacIntel,60.24096386,,,,,,,,,,,,,,,,,,,,,,205.5724,205.7692,205.7693,206.2692,,,,,,,,,,,,,,1.6108,1,,,,,,,,,,,,,,z,,,,,,,,,,,,,,,,31,0,206.2701,207.886,z,1,1.6108,,[],[],[],[],[],[],[],207.8862,209.8859,209.886,209.8865,[],[],[],[],[],[],[],,,,209.8866,209.8868,-0.111315387,-0.248641304,0,0,0,,0,30,30,13,1,1,RL,linefal,print,linefal_p.png,,,
,,,,31697,001,2025-10-16_12h38.37.446,HW_LDT_1,2024.2.4,MacIntel,60.24096386,,,,,,,,,,,,,,,,,,,,,,209.8897,210.0858,210.0859,210.5858,,,,,,,,,,,,,,1.2232,1,,,,,,,,,,,,,,z,,,,,,,,,,,,,,,,32,0,210.587,211.8193,z,1,1.2232,,[],[],[],[],[],[],[],211.8194,213.8193,213.8194,213.8197,[],[],[],[],[],[],[],,,,213.8198,213.82,-0.111315387,-0.248641304,0,0,0,,0,31,31,18,1,1,RL,mishafe,print,mishafe_p.png,,,
,,,,31697,001,2025-10-16_12h38.37.446,HW_LDT_1,2024.2.4,MacIntel,60.24096386,,,,,,,,,,,,,,,,,,,,,,213.8218,214.0191,214.0192,214.519,,,,,,,,,,,,,,1.0861,1,,,,,,,,,,,,,,z,,,,,,,,,,,,,,,,33,0,214.5196,215.6192,z,1,1.0861,,[],[],[],[],[],[],[],215.6193,217.6193,217.6194,217.6198,[],[],[],[],[],[],[],,,,217.6199,217.62,-0.111315387,-0.248641304,0,0,0,,0,32,32,19,1,1,RL,monebate,print,monebate_p.png,,,
,,,,31697,001,2025-10-16_12h38.37.446,HW_LDT_1,2024.2.4,MacIntel,60.24096386,,,,,,,,,,,,,,,,,,,,,,217.6219,217.8191,217.8191,218.3187,,,,,,,,,,,,,,0.9845,1,,,,,,,,,,,,,,m,,,,,,,,,,,,,,,,34,0,218.3193,219.3188,m,1,0.9845,,[],[],[],[],[],[],[],219.3189,221.3192,221.3194,221.3196,[],[],[],[],[],[],[],,,,221.3196,221.3198,-0.111315387,-0.248641304,0,0,0,,0,33,33,106,1,1,word,ELABORATE,print,elaborate_p.png,,,
,,,,31697,001,2025-10-16_12h38.37.446,HW_LDT_1,2024.2.4,MacIntel,60.24096386,,,,,,,,,,,,,,,,,,,,,,221.3216,221.5191,221.5191,222.0191,,,,,,,,,,,,,,1.5209,1,,,,,,,,,,,,,,z,,,,,,,,,,,,,,,,35,0,222.0199,223.5525,z,1,1.5209,,[],[],[],[],[],[],[],223.5527,225.5524,225.5524,225.5528,[],[],[],[],[],[],[],,,,225.5528,225.553,-0.111315387,-0.248641304,0,0,0,,0,34,34,62,1,1,TL,mitilary,print,mitilary_p.png,,,
,,,,31697,001,2025-10-16_12h38.37.446,HW_LDT_1,2024.2.4,MacIntel,60.24096386,,,,,,,,,,,,,,,,,,,,,,225.5547,225.7524,225.7524,226.2526,,,,,,,,,,,,,,0.7168,1,,,,,,,,,,,,,,m,,,,,,,,,,,,,,,,36,0,226.2538,226.9856,m,1,0.7168,,[],[],[],[],[],[],[],226.9857,228.9858,228.9858,228.9862,[],[],[],[],[],[],[],,,,228.9863,228.9865,-0.110521399,-0.248641304,0,0,0,,0,35,35,84,1,1,word,BELOVED,print,beloved_p.png,,,
,,,,31697,001,2025-10-16_12h38.37.446,HW_LDT_1,2024.2.4,MacIntel,60.24096386,,,,,,,,,,,,,,,,,,,,,,228.9892,229.1857,229.1858,229.6875,,,,,,,,,,,,,,0.8168,1,,,,,,,,,,,,,,z,,,,,,,,,,,,,,,,37,0,229.6883,230.5191,z,1,0.8168,,[],[],[],[],[],[],[],230.5191,232.519,232.5191,232.5193,[],[],[],[],[],[],[],,,,232.5193,232.5195,-0.110521399,-0.248641304,0,0,0,,0,36,36,6,1,1,RL,crisival,print,crisival_p.png,,,
,,,,31697,001,2025-10-16_12h38.37.446,HW_LDT_1,2024.2.4,MacIntel,60.24096386,,,,,,,,,,,,,,,,,,,,,,232.5212,232.719,232.719,233.219,,,,,,,,,,,,,,1.1367,1,,,,,,,,,,,,,,m,,,,,,,,,,,,,,,,38,0,233.2197,234.369,m,1,1.1367,,[],[],[],[],[],[],[],234.369,236.3689,236.369,236.3692,[],[],[],[],[],[],[],,,,236.3693,236.3695,-0.110521399,-0.248641304,0,0,0,,0,37,37,137,1,1,word,RAPIDLY,cursive,rapidly_c.png,,,
,,,,31697,001,2025-10-16_12h38.37.446,HW_LDT_1,2024.2.4,MacIntel,60.24096386,,,,,,,,,,,,,,,,,,,,,,236.371,236.569,236.5691,237.069,,,,,,,,,,,,,,0.9032,1,,,,,,,,,,,,,,z,,,,,,,,,,,,,,,,39,0,237.0698,237.9848,z,1,0.9032,,[],[],[],[],[],[],[],237.9848,239.9862,239.9866,239.9871,[],[],[],[],[],[],[],,,,239.9873,239.9875,-0.110521399,-0.248641304,0,0,0,,0,38,38,52,1,1,TL,decilate,cursive,decilate_c.png,,,
,,,,31697,001,2025-10-16_12h38.37.446,HW_LDT_1,2024.2.4,MacIntel,60.24096386,,,,,,,,,,,,,,,,,,,,,,239.9903,240.185,240.185,240.6857,,,,,,,,,,,,,,0.821,1,,,,,,,,,,,,,,m,,,,,,,,,,,,,,,,40,0,240.6866,241.5182,m,1,0.821,,[],[],[],[],[],[],[],241.5183,243.5186,243.5186,243.5188,[],[],[],[],[],[],[],,,,243.5189,243.5189,-0.108929178,-0.248615829,0,0,0,,0,39,39,123,1,1,word,MODERATE,print,moderate_p.png,,,
,,,,31697,001,2025-10-16_12h38.37.446,HW_LDT_1,2024.2.4,MacIntel,60.24096386,,,,,,,,,,,,,,,,,,,,,,243.52,243.7191,243.7191,244.218,,,,,,,,,,,,,,1.2368,0,,,,,,,,,,,,,,z,,,,,,,,,,,,,,,,41,1,244.2187,245.4681,m,0,1.2368,,[],[],[],[],[],[],[],245.4681,247.469,247.469,248.2523,[],[],[],[],[],[],[],z,0.7711,,248.2523,248.2525,-0.108929178,-0.248615829,0,0,0,,0,40,40,48,1,1,TL,cemerony,cursive,cemerony_c.png,,,
,,,,31697,001,2025-10-16_12h38.37.446,HW_LDT_1,2024.2.4,MacIntel,60.24096386,,,,,,,,,,,,,,,,,,,,,,248.2535,248.4512,248.4514,248.9523,,,,,,,,,,,,,,1.0698,1,,,,,,,,,,,,,,z,,,,,,,,,,,,,,,,42,0,248.9531,250.0356,z,1,1.0698,,[],[],[],[],[],[],[],250.0356,252.0356,252.0357,252.0361,[],[],[],[],[],[],[],,,,252.0362,252.0363,-0.108929178,-0.248615829,0,0,0,,0,41,41,34,1,1,RL,samite,print,samite_p.png,,,
,,,,31697,001,2025-10-16_12h38.37.446,HW_LDT_1,2024.2.4,MacIntel,60.24096386,,,,,,,,,,,,,,,,,,,,,,252.0386,252.2356,252.2357,252.7357,,,,,,,,,,,,,,0.8565,1,,,,,,,,,,,,,,z,,,,,,,,,,,,,,,,43,0,252.7366,253.6025,z,1,0.8565,,[],[],[],[],[],[],[],253.6025,255.6024,255.6025,255.6027,[],[],[],[],[],[],[],,,,255.6028,255.6029,-0.108929178,-0.248615829,0,0,0,,0,42,42,58,1,1,TL,incidate,cursive,incidate_c.png,,,
,,,,31697,001,2025-10-16_12h38.37.446,HW_LDT_1,2024.2.4,MacIntel,60.24096386,,,,,,,,,,,,,,,,,,,,,,255.6047,255.8013,255.8013,256.3023,,,,,,,,,,,,,,0.8193,0,,,,,,,,,,,,,,m,,,,,,,,,,,,,,,,44,0,256.3032,257.1355,z,0,0.8193,,[],[],[],[],[],[],[],257.1357,259.1347,259.1349,259.1351,[],[],[],[],[],[],[],,,,259.1352,259.1353,-0.109200917,-0.248097826,0,0,0,,0,43,43,130,1,1,word,POLICY,cursive,policy_c.png,,,
,,,,31697,001,2025-10-16_12h38.37.446,HW_LDT_1,2024.2.4,MacIntel,60.24096386,,,,,,,,,,,,,,,,,,,,,,259.1369,259.3356,259.3357,259.8355,,,,,,,,,,,,,,1.1032,1,,,,,,,,,,,,,,m,,,,,,,,,,,,,,,,45,0,259.8362,260.9513,m,1,1.1032,,[],[],[],[],[],[],[],260.9514,262.9522,262.9523,262.9525,[],[],[],[],[],[],[],,,,262.9525,262.9526,-0.109200917,-0.248097826,0,0,0,,0,44,44,95,1,1,word,COMEDY,cursive,comedy_c.png,,,
,,,,31697,001,2025-10-16_12h38.37.446,HW_LDT_1,2024.2.4,MacIntel,60.24096386,,,,,,,,,,,,,,,,,,,,,,262.9544,263.1523,263.1524,263.6514,,,,,,,,,,,,,,0.9064,1,,,,,,,,,,,,,,z,,,,,,,,,,,,,,,,46,0,263.6522,264.568,z,1,0.9064,,[],[],[],[],[],[],[],264.568,266.5689,266.569,266.5691,[],[],[],[],[],[],[],,,,266.5693,266.5694,-0.109200917,-0.248097826,0,0,0,,0,45,45,42,1,1,TL,befenit,print,befenit_p.png,,,
,,,,31697,001,2025-10-16_12h38.37.446,HW_LDT_1,2024.2.4,MacIntel,60.24096386,,,,,,,,,,,,,,,,,,,,,,266.571,266.768,266.7681,267.2688,,,,,,,,,,,,,,0.7699,0,,,,,,,,,,,,,,m,,,,,,,,,,,,,,,,47,0,267.2693,268.0522,z,0,0.7699,,[],[],[],[],[],[],[],268.0523,270.0514,270.0514,270.0519,[],[],[],[],[],[],[],,,,270.052,270.0521,-0.109200917,-0.248097826,0,0,0,,0,46,46,149,1,1,word,SENATOR,cursive,senator_c.png,,,
,,,,31697,001,2025-10-16_12h38.37.446,HW_LDT_1,2024.2.4,MacIntel,60.24096386,,,,,,,,,,,,,,,,,,,,,,270.0544,270.2523,270.2523,270.7522,,,,,,,,,,,,,,0.8651,1,,,,,,,,,,,,,,z,,,,,,,,,,,,,,,,48,1,270.7528,271.6189,z,1,0.8651,,[],[],[],[],[],[],[],271.6189,273.6181,273.6181,276.0343,[],[],[],[],[],[],[],z,2.4074,,276.0343,276.0344,-0.109200917,-0.248097826,0,0,0,,0,47,47,26,1,1,RL,quafidy,cursive,quafidy_c.png,,,
,,,,31697,001,2025-10-16_12h38.37.446,HW_LDT_1,2024.2.4,MacIntel,60.24096386,,,,,,,,,,,,,,,,,,,,,,276.0353,276.2355,276.2357,276.7347,,,,,,,,,,,,,,1.6424,1,,,,,,,,,,,,,,z,,,,,,,,,,,,,,,,49,0,276.7355,278.3848,z,1,1.6424,,[],[],[],[],[],[],[],278.385,280.3855,280.3855,280.3859,[],[],[],[],[],[],[],,,,280.3859,280.3861,-0.109200917,-0.248097826,0,0,0,,0,48,48,63,1,1,TL,molibe,cursive,molibe_c.png,,,
,,,,31697,001,2025-10-16_12h38.37.446,HW_LDT_1,2024.2.4,MacIntel,60.24096386,,,,,,,,,,,,,,,,,,,,,,280.3887,280.5845,280.5847,281.0855,,,,,,,,,,,,,,0.9184,1,,,,,,,,,,,,,,z,,,,,,,,,,,,,,,,50,1,281.0867,282.0188,z,1,0.9184,,[],[],[],[],[],[],[],282.0189,284.0188,284.0189,285.0681,[],[],[],[],[],[],[],z,1.0385,,285.0683,285.0684,-0.109200917,-0.248097826,0,0,0,,0,49,49,14,1,1,RL,lofase,print,lofase_p.png,,,
,,,,31697,001,2025-10-16_12h38.37.446,HW_LDT_1,2024.2.4,MacIntel,60.24096386,,,,,,,,,,,,,,,,,,,,,,285.0694,285.2679,285.2679,285.768,,,,,,,,,,,,,,1.2197,1,,,,,,,,,,,,,,m,,,,,,,,,,,,,,,,51,1,285.7687,287.0012,m,1,1.2197,,[],[],[],[],[],[],[],287.0013,289.0018,289.0021,290.6515,[],[],[],[],[],[],[],z,1.6373,,290.6519,290.6523,-0.109200917,-0.248097826,0,0,0,,0,50,50,88,1,1,word,CAMERA,cursive,camera_c.png,,,
,,,,31697,001,2025-10-16_12h38.37.446,HW_LDT_1,2024.2.4,MacIntel,60.24096386,,,,,,,,,,,,,,,,,,,,,,290.6553,290.8512,290.8512,291.3525,,,,,,,,,,,,,,0.9364,1,,,,,,,,,,,,,,z,,,,,,,,,,,,,,,,52,0,291.3538,292.302,z,1,0.9364,,[],[],[],[],[],[],[],292.302,294.3034,294.3034,294.3036,[],[],[],[],[],[],[],,,,294.3036,294.3036,-0.109752887,-0.255341372,0,0,0,,0,51,51,60,1,1,TL,manire,print,manire_p.png,,,
,,,,31697,001,2025-10-16_12h38.37.446,HW_LDT_1,2024.2.4,MacIntel,60.24096386,,,,,,,,,,,,,,,,,,,,,,294.3042,294.5012,294.5012,295.0022,,,,,,,,,,,,,,1.5199,1,,,,,,,,,,,,,,z,,,,,,,,,,,,,,,,53,0,295.003,296.5346,z,1,1.5199,,[],[],[],[],[],[],[],296.5348,298.5353,298.5354,298.5356,[],[],[],[],[],[],[],,,,298.5357,298.5359,-0.109752887,-0.255341372,0,0,0,,0,52,52,73,1,1,TL,ronamtic,cursive,ronamtic_c.png,,,
,,,,31697,001,2025-10-16_12h38.37.446,HW_LDT_1,2024.2.4,MacIntel,60.24096386,,,,,,,,,,,,,,,,,,,,,,298.5384,298.7355,298.7355,299.2354,,,,,,,,,,,,,,0.92,1,,,,,,,,,,,,,,z,,,,,,,,,,,,,,,,54,0,299.2363,300.1678,z,1,0.92,,[],[],[],[],[],[],[],300.1679,302.1687,302.1691,302.1701,[],[],[],[],[],[],[],,,,302.1705,302.1706,-0.109752887,-0.255341372,0,0,0,,0,53,53,53,1,1,TL,dentisy,cursive,dentisy_c.png,,,
,,,,31697,001,2025-10-16_12h38.37.446,HW_LDT_1,2024.2.4,MacIntel,60.24096386,,,,,,,,,,,,,,,,,,,,,,302.1726,302.3689,302.369,302.8688,,,,,,,,,,,,,,0.3264,0,,,,,,,,,,,,,,z,,,,,,,,,,,,,,,,55,0,302.8699,303.2011,m,0,0.3264,,[],[],[],[],[],[],[],303.2013,305.2022,305.2022,305.2024,[],[],[],[],[],[],[],,,,305.2025,305.2026,-0.109752887,-0.255341372,0,0,0,,0,54,54,17,1,1,RL,menowy,cursive,menowy_c.png,,,
,,,,31697,001,2025-10-16_12h38.37.446,HW_LDT_1,2024.2.4,MacIntel,60.24096386,,,,,,,,,,,,,,,,,,,,,,305.2046,305.4011,305.4012,305.902,,,,,,,,,,,,,,0.2483,0,,,,,,,,,,,,,,z,,,,,,,,,,,,,,,,56,1,305.9026,306.1519,m,0,0.2483,,[],[],[],[],[],[],[],306.1521,308.1521,308.1522,308.2022,[],[],[],[],[],[],[],z,0.0361,,308.2022,308.2024,-0.109752887,-0.255341372,0,0,0,,0,55,55,71,1,1,TL,regilion,cursive,regilion_c.png,,,
,,,,31697,001,2025-10-16_12h38.37.446,HW_LDT_1,2024.2.4,MacIntel,60.24096386,,,,,,,,,,,,,,,,,,,,,,308.2038,308.4021,308.4021,308.902,,,,,,,,,,,,,,0.1871,0,,,,,,,,,,,,,,z,,,,,,,,,,,,,,,,57,0,308.9026,309.102,m,0,0.1871,,[],[],[],[],[],[],[],309.1021,311.1021,311.1021,311.1024,[],[],[],[],[],[],[],,,,311.1025,311.1026,-0.109752887,-0.255341372,0,0,0,,0,56,56,28,1,1,RL,renutal,print,renutal_p.png,,,
,,,,31697,001,2025-10-16_12h38.37.446,HW_LDT_1,2024.2.4,MacIntel,60.24096386,,,,,,,,,,,,,,,,,,,,,,311.1043,311.3013,311.3013,311.8012,,,,,,,,,,,,,,0.0545,0,,,,,,,,,,,,,,z,,,,,,,,,,,,,,,,58,0,311.8018,311.8689,m,0,0.0545,,[],[],[],[],[],[],[],311.869,313.8688,313.8689,313.8694,[],[],[],[],[],[],[],,,,313.8697,313.87,-0.109752887,-0.255341372,0,0,0,,0,57,57,38,1,1,RL,stopave,cursive,stopave_c.png,,,
,,,,31697,001,2025-10-16_12h38.37.446,HW_LDT_1,2024.2.4,MacIntel,60.24096386,,,,,,,,,,,,,,,,,,,,,,313.873,314.0678,314.068,314.5687,,,,,,,,,,,,,,0.0741,0,,,,,,,,,,,,,,z,,,,,,,,,,,,,,,,59,0,314.5696,314.6521,m,0,0.0741,,[],[],[],[],[],[],[],314.6523,316.6519,316.652,316.6522,[],[],[],[],[],[],[],,,,316.6522,316.6523,-0.109752887,-0.255341372,0,0,0,,0,58,58,69,1,1,TL,radiply,cursive,radiply_c.png,,,
,,,,31697,001,2025-10-16_12h38.37.446,HW_LDT_1,2024.2.4,MacIntel,60.24096386,,,,,,,,,,,,,,,,,,,,,,316.6535,316.852,316.852,317.352,,,,,,,,,,,,,,0.1081,1,,,,,,,,,,,,,,m,,,,,,,,,,,,,,,,60,0,317.3527,317.4683,m,1,0.1081,,[],[],[],[],[],[],[],317.4685,319.4679,319.4681,319.4683,[],[],[],[],[],[],[],,,,319.4684,319.4685,-0.109752887,-0.255341372,0,0,0,,0,59,59,129,1,1,word,PARENT,cursive,parent_c.png,,,
,,,,31697,001,2025-10-16_12h38.37.446,HW_LDT_1,2024.2.4,MacIntel,60.24096386,,,,,,,,,,,,,,,,,,,,,,319.4699,319.6687,319.6688,320.1678,,,,,,,,,,,,,,0.4208,1,,,,,,,,,,,,,,m,,,,,,,,,,,,,,,,61,0,320.1686,320.6013,m,1,0.4208,,[],[],[],[],[],[],[],320.6013,322.6021,322.6021,322.6023,[],[],[],[],[],[],[],,,,322.6024,322.6025,-0.109752887,-0.255341372,0,0,0,,0,60,60,81,1,1,word,ADVISORY,cursive,advisory_c.png,,,
,,,,31697,001,2025-10-16_12h38.37.446,HW_LDT_1,2024.2.4,MacIntel,60.24096386,,,,,,,,,,,,,,,,,,,,,,322.6044,322.802,322.8021,323.3012,,,,,,,,,,,,,,1.0895,1,,,,,,,,,,,,,,z,,,,,,,,,,,,,,,,62,0,323.3018,324.4017,z,1,1.0895,,[],[],[],[],[],[],[],324.4017,326.4021,326.4022,326.4025,[],[],[],[],[],[],[],,,,326.4027,326.4028,-0.109752887,-0.255341372,0,0,0,,0,61,61,7,1,1,RL,delahe,print,delahe_p.png,,,
,,,,31697,001,2025-10-16_12h38.37.446,HW_LDT_1,2024.2.4,MacIntel,60.24096386,,,,,,,,,,,,,,,,,,,,,,326.4043,326.602,326.602,327.102,,,,,,,,,,,,,,1.7893,0,,,,,,,,,,,,,,m,,,,,,,,,,,,,,,,63,0,327.1028,328.9021,z,0,1.7893,,[],[],[],[],[],[],[],328.9021,330.9019,330.9019,330.9021,[],[],[],[],[],[],[],,,,330.9021,330.9023,-0.109752887,-0.255341372,0,0,0,,0,62,62,150,1,1,word,SENTIMENT,cursive,sentiment_c.png,,,
,,,,31697,001,2025-10-16_12h38.37.446,HW_LDT_1,2024.2.4,MacIntel,60.24096386,,,,,,,,,,,,,,,,,,,,,,330.9035,331.102,331.102,331.6019,,,,,,,,,,,,,,1.2565,1,,,,,,,,,,,,,,m,,,,,,,,,,,,,,,,64,0,331.6025,332.8685,m,1,1.2565,,[],[],[],[],[],[],[],332.8685,334.8687,334.8688,334.8691,[],[],[],[],[],[],[],,,,334.8691,334.8693,-0.109752887,-0.255341372,0,0,0,,0,63,63,100,1,1,word,DECADE,print,decade_p.png,,,
,,,,31697,001,2025-10-16_12h38.37.446,HW_LDT_1,2024.2.4,MacIntel,60.24096386,,,,,,,,,,,,,,,,,,,,,,334.8717,335.0686,335.0687,335.5686,,,,,,,,,,,,,,1.2243,1,,,,,,,,,,,,,,m,,,,,,,,,,,,,,,,65,0,335.5692,336.802,m,1,1.2243,,[],[],[],[],[],[],[],336.8021,338.802,338.8021,338.8026,[],[],[],[],[],[],[],,,,338.8027,338.8028,-0.109752887,-0.255341372,0,0,0,,0,64,64,147,1,1,word,ROMANTIC,cursive,romantic_c.png,,,
,,,,31697,001,2025-10-16_12h38.37.446,HW_LDT_1,2024.2.4,MacIntel,60.24096386,,,,,,,,,,,,,,,,,,,,,,338.8045,339.002,339.0021,339.5021,,,,,,,,,,,,,,1.4643,1,,,,,,,,,,,,,,m,,,,,,,,,,,,,,,,66,1,339.5029,340.9702,m,1,1.4643,,[],[],[],[],[],[],[],340.9703,342.9686,342.9687,344.9687,[],[],[],[],[],[],[],z,1.9925,,344.9687,344.9689,-0.109752887,-0.255341372,0,0,0,,0,65,65,157,1,1,word,VALIDITY,cursive,validity_c.png,,,
,,,,31697,001,2025-10-16_12h38.37.446,HW_LDT_1,2024.2.4,MacIntel,60.24096386,,,,,,,,,,,,,,,,,,,,,,344.971,345.1683,345.1684,345.6686,,,,,,,,,,,,,,1.9923,1,,,,,,,,,,,,,,z,,,,,,,,,,,,,,,,67,0,345.6692,347.6686,z,1,1.9923,,[],[],[],[],[],[],[],347.6688,349.6686,349.6687,349.6691,[],[],[],[],[],[],[],,,,349.6692,349.6694,-0.109752887,-0.255341372,0,0,0,,0,66,66,61,1,1,TL,mecidine,cursive,mecidine_c.png,,,
,,,,31697,001,2025-10-16_12h38.37.446,HW_LDT_1,2024.2.4,MacIntel,60.24096386,,,,,,,,,,,,,,,,,,,,,,349.6708,349.8687,349.8687,350.3687,,,,,,,,,,,,,,0.9855,1,,,,,,,,,,,,,,z,,,,,,,,,,,,,,,,68,0,350.3695,351.3686,z,1,0.9855,,[],[],[],[],[],[],[],351.3687,353.3685,353.3686,353.3687,[],[],[],[],[],[],[],,,,353.3687,353.3688,-0.112325917,-0.264733356,0,0,0,,0,67,67,16,1,1,RL,marmipal,print,marmipal_p.png,,,
,,,,31697,001,2025-10-16_12h38.37.446,HW_LDT_1,2024.2.4,MacIntel,60.24096386,,,,,,,,,,,,,,,,,,,,,,353.3704,353.5685,353.5686,354.0685,,,,,,,,,,,,,,0.8927,1,,,,,,,,,,,,,,m,,,,,,,,,,,,,,,,69,0,354.0691,354.9689,m,1,0.8927,,[],[],[],[],[],[],[],354.9692,356.9685,356.9686,356.9688,[],[],[],[],[],[],[],,,,356.9688,356.9689,-0.112325917,-0.264733356,0,0,0,,0,68,68,127,1,1,word,ORIGINAL,cursive,original_c.png,,,
,,,,31697,001,2025-10-16_12h38.37.446,HW_LDT_1,2024.2.4,MacIntel,60.24096386,,,,,,,,,,,,,,,,,,,,,,356.9704,357.1686,357.1687,357.6685,,,,,,,,,,,,,,1.3366,1,,,,,,,,,,,,,,m,,,,,,,,,,,,,,,,70,0,357.6692,359.0185,m,1,1.3366,,[],[],[],[],[],[],[],359.0187,361.019,361.0194,361.02,[],[],[],[],[],[],[],,,,361.0202,361.0205,-0.112325917,-0.264733356,0,0,0,,0,69,69,132,1,1,word,PROPOSAL,cursive,proposal_c.png,,,
,,,,31697,001,2025-10-16_12h38.37.446,HW_LDT_1,2024.2.4,MacIntel,60.24096386,,,,,,,,,,,,,,,,,,,,,,361.0237,361.2185,361.2186,361.7186,,,,,,,,,,,,,,1.1184,1,,,,,,,,,,,,,,m,,,,,,,,,,,,,,,,71,0,361.7194,362.8519,m,1,1.1184,,[],[],[],[],[],[],[],362.852,364.8518,364.8518,364.852,[],[],[],[],[],[],[],,,,364.852,364.8522,-0.112325917,-0.264733356,0,0,0,,0,70,70,90,1,1,word,CAPITAL,print,capital_p.png,,,
,,,,31697,001,2025-10-16_12h38.37.446,HW_LDT_1,2024.2.4,MacIntel,60.24096386,,,,,,,,,,,,,,,,,,,,,,364.8533,365.0518,365.0519,365.5519,,,,,,,,,,,,,,0.739,1,,,,,,,,,,,,,,m,,,,,,,,,,,,,,,,72,0,365.5526,366.3019,m,1,0.739,,[],[],[],[],[],[],[],366.302,368.3019,368.3019,368.3021,[],[],[],[],[],[],[],,,,368.3022,368.3024,-0.112325917,-0.264733356,0,0,0,,0,71,71,107,1,1,word,EVIDENT,print,evident_p.png,,,
,,,,31697,001,2025-10-16_12h38.37.446,HW_LDT_1,2024.2.4,MacIntel,60.24096386,,,,,,,,,,,,,,,,,,,,,,368.304,368.5019,368.502,369.002,,,,,,,,,,,,,,1.1532,1,,,,,,,,,,,,,,m,,,,,,,,,,,,,,,,73,0,369.0028,370.1686,m,1,1.1532,,[],[],[],[],[],[],[],370.1687,372.1686,372.1686,372.1688,[],[],[],[],[],[],[],,,,372.1689,372.169,-0.108491848,-0.259217901,0,0,0,,0,72,72,96,1,1,word,CONSIDER,cursive,consider_c.png,,,
,,,,31697,001,2025-10-16_12h38.37.446,HW_LDT_1,2024.2.4,MacIntel,60.24096386,,,,,,,,,,,,,,,,,,,,,,372.1707,372.3684,372.3685,372.8683,,,,,,,,,,,,,,0.9199,1,,,,,,,,,,,,,,z,,,,,,,,,,,,,,,,74,0,372.869,373.8019,z,1,0.9199,,[],[],[],[],[],[],[],373.802,375.8022,375.8025,375.8031,[],[],[],[],[],[],[],,,,375.8033,375.8036,-0.108491848,-0.259217901,0,0,0,,0,73,73,57,1,1,TL,hetirage,cursive,hetirage_c.png,,,
,,,,31697,001,2025-10-16_12h38.37.446,HW_LDT_1,2024.2.4,MacIntel,60.24096386,,,,,,,,,,,,,,,,,,,,,,375.8067,376.0018,376.0019,376.5019,,,,,,,,,,,,,,0.0058,0,,,,,,,,,,,,,,z,,,,,,,,,,,,,,,,75,0,376.5027,376.5182,m,0,0.0058,,[],[],[],[],[],[],[],376.5184,378.5185,378.5185,378.5188,[],[],[],[],[],[],[],,,,378.5189,378.519,-0.108491848,-0.259217901,0,0,0,,0,74,74,67,1,1,TL,pocily,cursive,pocily_c.png,,,
,,,,31697,001,2025-10-16_12h38.37.446,HW_LDT_1,2024.2.4,MacIntel,60.24096386,,,,,,,,,,,,,,,,,,,,,,378.5205,378.7185,378.7185,379.2184,,,,,,,,,,,,,,0.0531,1,,,,,,,,,,,,,,m,,,,,,,,,,,,,,,,76,0,379.2191,379.2851,m,1,0.0531,,[],[],[],[],[],[],[],379.2852,381.2851,381.2851,381.2854,[],[],[],[],[],[],[],,,,381.2855,381.2856,-0.108491848,-0.259217901,0,0,0,,0,75,75,113,1,1,word,LITERAL,print,literal_p.png,,,
,,,,31697,001,2025-10-16_12h38.37.446,HW_LDT_1,2024.2.4,MacIntel,60.24096386,,,,,,,,,,,,,,,,,,,,,,381.2868,381.4852,381.4852,381.9852,,,,,,,,,,,,,,0.0361,1,,,,,,,,,,,,,,z,,,,,,,,,,,,,,,,77,0,381.9857,382.0351,z,1,0.0361,,[],[],[],[],[],[],[],382.0351,384.035,384.0351,384.0353,[],[],[],[],[],[],[],,,,384.0353,384.0354,-0.108491848,-0.259217901,0,0,0,,0,76,76,1,1,1,RL,adnicory,cursive,adnicory_c.png,,,
,,,,31697,001,2025-10-16_12h38.37.446,HW_LDT_1,2024.2.4,MacIntel,60.24096386,,,,,,,,,,,,,,,,,,,,,,384.0369,384.2351,384.2352,384.7351,,,,,,,,,,,,,,0.1585,1,,,,,,,,,,,,,,m,,,,,,,,,,,,,,,,78,0,384.7359,384.9016,m,1,0.1585,,[],[],[],[],[],[],[],384.9017,386.9018,386.9019,386.9023,[],[],[],[],[],[],[],,,,386.9023,386.9025,-0.108491848,-0.259217901,0,0,0,,0,77,77,97,1,1,word,COVERAGE,print,coverage_p.png,,,
,,,,31697,001,2025-10-16_12h38.37.446,HW_LDT_1,2024.2.4,MacIntel,60.24096386,,,,,,,,,,,,,,,,,,,,,,386.9045,387.1018,387.1018,387.6018,,,,,,,,,,,,,,0.0526,0,,,,,,,,,,,,,,z,,,,,,,,,,,,,,,,79,1,387.6027,387.6685,m,0,0.0526,,[],[],[],[],[],[],[],387.6686,389.6685,389.6686,389.9852,[],[],[],[],[],[],[],z,0.3068,,389.9852,389.9853,-0.108491848,-0.259217901,0,0,0,,0,78,78,12,1,1,RL,ebiwent,print,ebiwent_p.png,,,
,,,,31697,001,2025-10-16_12h38.37.446,HW_LDT_1,2024.2.4,MacIntel,60.24096386,,,,,,,,,,,,,,,,,,,,,,389.9866,390.1851,390.1852,390.6851,,,,,,,,,,,,,,1.0267,1,,,,,,,,,,,,,,z,,,,,,,,,,,,,,,,80,0,390.6859,391.7184,z,1,1.0267,,[],[],[],[],[],[],[],391.7184,393.7183,393.7185,393.7186,[],[],[],[],[],[],[],,,,393.7187,521.2688,-0.046390965,-0.367650306,1,0,0,,0,79,79,51,1,1,TL,corevage,print,corevage_p.png,break_done_button,,
,,,,31697,001,2025-10-16_12h38.37.446,HW_LDT_1,2024.2.4,MacIntel,60.24096386,,,,,,,,,,,,,,,,,,,,,,521.2714,521.468,521.468,521.9675,,,,,,,,,,,,,,2.5422,1,,,,,,,,,,,,,,m,,,,,,,,,,,,,,,,81,0,521.9681,524.5179,m,1,2.5422,,[],[],[],[],[],[],[],524.518,526.5169,526.5169,526.5173,[],[],[],[],[],[],[],,,,526.5173,526.5174,-0.046390965,-0.367650306,0,0,0,,0,80,80,148,1,1,word,SALINE,print,saline_p.png,,,
,,,,31697,001,2025-10-16_12h38.37.446,HW_LDT_1,2024.2.4,MacIntel,60.24096386,,,,,,,,,,,,,,,,,,,,,,526.5186,526.7178,526.7178,527.2175,,,,,,,,,,,,,,1.0504,1,,,,,,,,,,,,,,m,,,,,,,,,,,,,,,,82,1,527.2209,528.2845,m,1,1.0504,,[],[],[],[],[],[],[],528.2846,530.2845,530.2845,531.9178,[],[],[],[],[],[],[],m,1.621,,531.9179,531.9181,-0.045384681,-0.36739555,0,0,0,,0,81,81,139,1,1,word,REGULAR,print,regular_p.png,,,
,,,,31697,001,2025-10-16_12h38.37.446,HW_LDT_1,2024.2.4,MacIntel,60.24096386,,,,,,,,,,,,,,,,,,,,,,531.9201,532.1179,532.1179,532.618,,,,,,,,,,,,,,0.9539,1,,,,,,,,,,,,,,z,,,,,,,,,,,,,,,,83,0,532.6186,533.5845,z,1,0.9539,,[],[],[],[],[],[],[],533.5846,535.5845,535.5846,535.5848,[],[],[],[],[],[],[],,,,535.5849,535.585,-0.045384681,-0.36739555,0,0,0,,0,82,82,55,1,1,TL,fornute,print,fornute_p.png,,,
,,,,31697,001,2025-10-16_12h38.37.446,HW_LDT_1,2024.2.4,MacIntel,60.24096386,,,,,,,,,,,,,,,,,,,,,,535.5866,535.7845,535.7845,536.2839,,,,,,,,,,,,,,0.6755,1,,,,,,,,,,,,,,m,,,,,,,,,,,,,,,,84,0,536.2847,536.9678,m,1,0.6755,,[],[],[],[],[],[],[],536.9679,538.9681,538.9682,538.9687,[],[],[],[],[],[],[],,,,538.9688,538.9689,-0.045384681,-0.36739555,0,0,0,,0,83,83,99,1,1,word,DEBATE,print,debate_p.png,,,
,,,,31697,001,2025-10-16_12h38.37.446,HW_LDT_1,2024.2.4,MacIntel,60.24096386,,,,,,,,,,,,,,,,,,,,,,538.9706,539.167,539.1671,539.6678,,,,,,,,,,,,,,0.9042,1,,,,,,,,,,,,,,z,,,,,,,,,,,,,,,,85,0,539.6686,540.5836,z,1,0.9042,,[],[],[],[],[],[],[],540.5837,542.5845,542.5846,542.5849,[],[],[],[],[],[],[],,,,542.585,542.5851,-0.045384681,-0.36739555,0,0,0,,0,84,84,56,1,1,TL,grafetul,print,grafetul_p.png,,,
,,,,31697,001,2025-10-16_12h38.37.446,HW_LDT_1,2024.2.4,MacIntel,60.24096386,,,,,,,,,,,,,,,,,,,,,,542.5866,542.7845,542.7846,543.2836,,,,,,,,,,,,,,0.7871,1,,,,,,,,,,,,,,m,,,,,,,,,,,,,,,,86,0,543.2844,544.0844,m,1,0.7871,,[],[],[],[],[],[],[],544.0845,546.0847,546.0848,546.0851,[],[],[],[],[],[],[],,,,546.0851,546.0853,-0.045384681,-0.36739555,0,0,0,,0,85,85,153,1,1,word,STOLEN,print,stolen_p.png,,,
,,,,31697,001,2025-10-16_12h38.37.446,HW_LDT_1,2024.2.4,MacIntel,60.24096386,,,,,,,,,,,,,,,,,,,,,,546.0874,546.2845,546.2845,546.7844,,,,,,,,,,,,,,0.9881,1,,,,,,,,,,,,,,z,,,,,,,,,,,,,,,,87,1,546.7851,547.7836,z,1,0.9881,,[],[],[],[],[],[],[],547.7836,549.7846,549.7846,551.1344,[],[],[],[],[],[],[],m,1.3375,,551.1345,551.1346,-0.045384681,-0.36739555,0,0,0,,0,86,86,2,1,1,RL,asiral,print,asiral_p.png,,,
,,,,31697,001,2025-10-16_12h38.37.446,HW_LDT_1,2024.2.4,MacIntel,60.24096386,,,,,,,,,,,,,,,,,,,,,,551.1358,551.3345,551.3346,551.8347,,,,,,,,,,,,,,1.8029,1,,,,,,,,,,,,,,m,,,,,,,,,,,,,,,,88,0,551.8355,553.6511,m,1,1.8029,,[],[],[],[],[],[],[],553.6512,555.6512,555.6512,555.6515,[],[],[],[],[],[],[],,,,555.6516,555.6517,-0.045384681,-0.36739555,0,0,0,,0,87,87,120,1,1,word,MILITARY,print,military_p.png,,,
,,,,31697,001,2025-10-16_12h38.37.446,HW_LDT_1,2024.2.4,MacIntel,60.24096386,,,,,,,,,,,,,,,,,,,,,,555.6532,555.8503,555.8504,556.3511,,,,,,,,,,,,,,1.203,1,,,,,,,,,,,,,,z,,,,,,,,,,,,,,,,89,1,556.3522,557.5678,z,1,1.203,,[],[],[],[],[],[],[],557.5679,559.5678,559.5678,561.2344,[],[],[],[],[],[],[],z,1.6545,,561.2345,561.2346,-0.045384681,-0.36739555,0,0,0,,0,88,88,29,1,1,RL,refakive,cursive,refakive_c.png,,,
,,,,31697,001,2025-10-16_12h38.37.446,HW_LDT_1,2024.2.4,MacIntel,60.24096386,,,,,,,,,,,,,,,,,,,,,,561.2366,561.4345,561.4346,561.9346,,,,,,,,,,,,,,1.8092,0,,,,,,,,,,,,,,m,,,,,,,,,,,,,,,,90,0,561.9355,563.7515,z,0,1.8092,,[],[],[],[],[],[],[],563.7519,565.7514,565.7515,565.7529,[],[],[],[],[],[],[],,,,565.7537,565.7541,-0.045384681,-0.367145041,0,0,0,,0,89,89,102,1,1,word,DENSITY,cursive,density_c.png,,,
,,,,31697,001,2025-10-16_12h38.37.446,HW_LDT_1,2024.2.4,MacIntel,60.24096386,,,,,,,,,,,,,,,,,,,,,,565.7571,565.9511,565.9511,566.4513,,,,,,,,,,,,,,2.3039,0,,,,,,,,,,,,,,m,,,,,,,,,,,,,,,,91,0,566.452,568.7676,z,0,2.3039,,[],[],[],[],[],[],[],568.7678,570.7677,570.7678,570.768,[],[],[],[],[],[],[],,,,570.7681,570.7682,-0.0390625,-0.359761379,0,0,0,,0,90,90,119,1,1,word,MEMORY,cursive,memory_c.png,,,
,,,,31697,001,2025-10-16_12h38.37.446,HW_LDT_1,2024.2.4,MacIntel,60.24096386,,,,,,,,,,,,,,,,,,,,,,570.7704,570.9678,570.9679,571.4678,,,,,,,,,,,,,,1.3577,1,,,,,,,,,,,,,,z,,,,,,,,,,,,,,,,92,0,571.469,572.8342,z,1,1.3577,,[],[],[],[],[],[],[],572.8345,574.8344,574.8345,574.8347,[],[],[],[],[],[],[],,,,574.8348,574.8349,-0.040128227,-0.365140965,0,0,0,,0,91,91,25,1,1,RL,quakity,cursive,quakity_c.png,,,
,,,,31697,001,2025-10-16_12h38.37.446,HW_LDT_1,2024.2.4,MacIntel,60.24096386,,,,,,,,,,,,,,,,,,,,,,574.8364,575.0344,575.0345,575.5342,,,,,,,,,,,,,,1.1367,1,,,,,,,,,,,,,,m,,,,,,,,,,,,,,,,93,0,575.5351,576.6843,m,1,1.1367,,[],[],[],[],[],[],[],576.6845,578.6843,578.6844,578.6846,[],[],[],[],[],[],[],,,,578.6847,578.6849,-0.040128227,-0.365140965,0,0,0,,0,92,92,115,1,1,word,LOGICAL,cursive,logical_c.png,,,
,,,,31697,001,2025-10-16_12h38.37.446,HW_LDT_1,2024.2.4,MacIntel,60.24096386,,,,,,,,,,,,,,,,,,,,,,578.6866,578.8844,578.8845,579.3842,,,,,,,,,,,,,,0.8704,1,,,,,,,,,,,,,,z,,,,,,,,,,,,,,,,94,0,579.3847,580.2667,z,1,0.8704,,[],[],[],[],[],[],[],580.2669,582.2678,582.2679,582.2682,[],[],[],[],[],[],[],,,,582.2683,582.2684,-0.040128227,-0.365140965,0,0,0,,0,93,93,46,1,1,TL,catipal,print,catipal_p.png,,,
,,,,31697,001,2025-10-16_12h38.37.446,HW_LDT_1,2024.2.4,MacIntel,60.24096386,,,,,,,,,,,,,,,,,,,,,,582.2706,582.4676,582.4677,582.9677,,,,,,,,,,,,,,1.1739,1,,,,,,,,,,,,,,z,,,,,,,,,,,,,,,,95,0,582.9686,584.1513,z,1,1.1739,,[],[],[],[],[],[],[],584.1515,586.1509,586.151,586.1515,[],[],[],[],[],[],[],,,,586.1516,586.1517,-0.040128227,-0.365140965,0,0,0,,0,94,94,5,1,1,RL,cobeny,cursive,cobeny_c.png,,,
,,,,31697,001,2025-10-16_12h38.37.446,HW_LDT_1,2024.2.4,MacIntel,60.24096386,,,,,,,,,,,,,,,,,,,,,,586.1538,586.351,586.351,586.851,,,,,,,,,,,,,,0.7531,1,,,,,,,,,,,,,,z,,,,,,,,,,,,,,,,96,0,586.8517,587.6176,z,1,0.7531,,[],[],[],[],[],[],[],587.6176,589.6176,589.6176,589.6179,[],[],[],[],[],[],[],,,,589.618,589.6181,-0.040620754,-0.384803838,0,0,0,,0,95,95,32,1,1,RL,rebicent,print,rebicent_p.png,,,
,,,,31697,001,2025-10-16_12h38.37.446,HW_LDT_1,2024.2.4,MacIntel,60.24096386,,,,,,,,,,,,,,,,,,,,,,589.6196,589.8175,589.8176,590.3177,,,,,,,,,,,,,,1.2403,0,,,,,,,,,,,,,,m,,,,,,,,,,,,,,,,97,0,590.3183,591.568,z,0,1.2403,,[],[],[],[],[],[],[],591.568,593.5677,593.5678,593.568,[],[],[],[],[],[],[],,,,593.568,593.5681,-0.040620754,-0.384803838,0,0,0,,0,96,96,140,1,1,word,RELATIVE,cursive,relative_c.png,,,
,,,,31697,001,2025-10-16_12h38.37.446,HW_LDT_1,2024.2.4,MacIntel,60.24096386,,,,,,,,,,,,,,,,,,,,,,593.5694,593.7666,593.7667,594.2675,,,,,,,,,,,,,,0.054,1,,,,,,,,,,,,,,z,,,,,,,,,,,,,,,,98,1,594.2683,594.3344,z,1,0.054,,[],[],[],[],[],[],[],594.3345,596.334,596.334,596.3673,[],[],[],[],[],[],[],m,0.0318,,596.3673,596.3675,-0.040620754,-0.384803838,0,0,0,,0,97,97,59,1,1,TL,lirebal,cursive,lirebal_c.png,,,
,,,,31697,001,2025-10-16_12h38.37.446,HW_LDT_1,2024.2.4,MacIntel,60.24096386,,,,,,,,,,,,,,,,,,,,,,596.3693,596.5677,596.5678,597.0675,,,,,,,,,,,,,,0.0864,0,,,,,,,,,,,,,,z,,,,,,,,,,,,,,,,99,0,597.0682,597.1675,m,0,0.0864,,[],[],[],[],[],[],[],597.1677,599.1677,599.1677,599.1679,[],[],[],[],[],[],[],,,,599.168,599.1681,-0.040620754,-0.384803838,0,0,0,,0,98,98,10,1,1,RL,efibor,cursive,efibor_c.png,,,
,,,,31697,001,2025-10-16_12h38.37.446,HW_LDT_1,2024.2.4,MacIntel,60.24096386,,,,,,,,,,,,,,,,,,,,,,599.1694,599.3673,599.3673,599.8676,,,,,,,,,,,,,,0.0352,1,,,,,,,,,,,,,,m,,,,,,,,,,,,,,,,100,0,599.8687,599.9175,m,1,0.0352,,[],[],[],[],[],[],[],599.9176,601.9177,601.9177,601.9179,[],[],[],[],[],[],[],,,,601.9179,601.918,-0.040620754,-0.384803838,0,0,0,,0,99,99,103,1,1,word,DISPUTE,cursive,dispute_c.png,,,
,,,,31697,001,2025-10-16_12h38.37.446,HW_LDT_1,2024.2.4,MacIntel,60.24096386,,,,,,,,,,,,,,,,,,,,,,601.919,602.1176,602.1176,602.6176,,,,,,,,,,,,,,0.0872,0,,,,,,,,,,,,,,m,,,,,,,,,,,,,,,,101,0,602.6183,602.7176,z,0,0.0872,,[],[],[],[],[],[],[],602.7177,604.7176,604.7176,604.7178,[],[],[],[],[],[],[],,,,604.7178,604.718,-0.040620754,-0.384803838,0,0,0,,0,100,100,110,1,1,word,HERITAGE,cursive,heritage_c.png,,,
,,,,31697,001,2025-10-16_12h38.37.446,HW_LDT_1,2024.2.4,MacIntel,60.24096386,,,,,,,,,,,,,,,,,,,,,,604.7195,604.9177,604.9177,605.4176,,,,,,,,,,,,,,0.1367,1,,,,,,,,,,,,,,m,,,,,,,,,,,,,,,,102,0,605.4181,605.5676,m,1,0.1367,,[],[],[],[],[],[],[],605.5677,607.5672,607.5672,607.5674,[],[],[],[],[],[],[],,,,607.5674,607.5675,-0.040620754,-0.384803838,0,0,0,,0,101,101,131,1,1,word,POPULAR,cursive,popular_c.png,,,
,,,,31697,001,2025-10-16_12h38.37.446,HW_LDT_1,2024.2.4,MacIntel,60.24096386,,,,,,,,,,,,,,,,,,,,,,607.5682,607.7673,607.7674,608.2676,,,,,,,,,,,,,,0.0344,0,,,,,,,,,,,,,,m,,,,,,,,,,,,,,,,103,1,608.2685,608.3172,z,0,0.0344,,[],[],[],[],[],[],[],608.3173,610.3176,610.3177,610.4008,[],[],[],[],[],[],[],m,0.0706,,610.4009,610.4011,-0.040620754,-0.384803838,0,0,0,,0,102,102,104,1,1,word,DOMINANT,cursive,dominant_c.png,,,
,,,,31697,001,2025-10-16_12h38.37.446,HW_LDT_1,2024.2.4,MacIntel,60.24096386,,,,,,,,,,,,,,,,,,,,,,610.4031,610.6008,610.6009,611.1009,,,,,,,,,,,,,,0.0281,1,,,,,,,,,,,,,,z,,,,,,,,,,,,,,,,104,0,611.1034,611.1341,z,1,0.0281,,[],[],[],[],[],[],[],611.1341,613.1342,613.1343,613.1346,[],[],[],[],[],[],[],,,,613.1346,613.1348,-0.040620754,-0.384803838,0,0,0,,0,103,103,76,1,1,TL,stragety,cursive,stragety_c.png,,,
,,,,31697,001,2025-10-16_12h38.37.446,HW_LDT_1,2024.2.4,MacIntel,60.24096386,,,,,,,,,,,,,,,,,,,,,,613.1367,613.3342,613.3343,613.8343,,,,,,,,,,,,,,0.2032,0,,,,,,,,,,,,,,m,,,,,,,,,,,,,,,,105,1,613.8352,614.051,z,0,0.2032,,[],[],[],[],[],[],[],614.0511,616.0508,616.0509,616.0842,[],[],[],[],[],[],[],m,0.0204,,616.0843,616.0844,-0.040620754,-0.384803838,0,0,0,,0,104,104,146,1,1,word,RETIRE,cursive,retire_c.png,,,
,,,,31697,001,2025-10-16_12h38.37.446,HW_LDT_1,2024.2.4,MacIntel,60.24096386,,,,,,,,,,,,,,,,,,,,,,616.0858,616.2843,616.2843,616.7841,,,,,,,,,,,,,,0.0369,1,,,,,,,,,,,,,,z,,,,,,,,,,,,,,,,106,1,616.7847,616.8344,z,1,0.0369,,[],[],[],[],[],[],[],616.8345,618.8341,618.8342,619.1675,[],[],[],[],[],[],[],m,0.3214,,619.1676,619.1677,-0.040620754,-0.384803838,0,0,0,,0,105,105,20,1,1,RL,nunewical,print,nunewical_p.png,,,
,,,,31697,001,2025-10-16_12h38.37.446,HW_LDT_1,2024.2.4,MacIntel,60.24096386,,,,,,,,,,,,,,,,,,,,,,619.1691,619.3675,619.3676,619.8675,,,,,,,,,,,,,,0.4626,1,,,,,,,,,,,,,,z,,,,,,,,,,,,,,,,107,1,619.8684,620.3338,z,1,0.4626,,[],[],[],[],[],[],[],620.3338,622.3341,622.3341,622.5843,[],[],[],[],[],[],[],m,0.2389,,622.5844,622.5845,-0.040620754,-0.384803838,0,0,0,,0,106,106,31,1,1,RL,reconal,cursive,reconal_c.png,,,
,,,,31697,001,2025-10-16_12h38.37.446,HW_LDT_1,2024.2.4,MacIntel,60.24096386,,,,,,,,,,,,,,,,,,,,,,622.587,622.7841,622.7842,623.2841,,,,,,,,,,,,,,0.237,0,,,,,,,,,,,,,,z,,,,,,,,,,,,,,,,108,0,623.2846,623.5341,m,0,0.237,,[],[],[],[],[],[],[],623.5343,625.5342,625.5344,625.5346,[],[],[],[],[],[],[],,,,625.5347,625.5348,-0.040620754,-0.384803838,0,0,0,,0,107,107,72,1,1,TL,remuse,print,remuse_p.png,,,
,,,,31697,001,2025-10-16_12h38.37.446,HW_LDT_1,2024.2.4,MacIntel,60.24096386,,,,,,,,,,,,,,,,,,,,,,625.5364,625.7334,625.7335,626.2332,,,,,,,,,,,,,,0.1211,0,,,,,,,,,,,,,,z,,,,,,,,,,,,,,,,109,0,626.2339,626.3674,m,0,0.1211,,[],[],[],[],[],[],[],626.3675,628.3674,628.3675,628.3678,[],[],[],[],[],[],[],,,,628.3679,628.3681,-0.040620754,-0.384803838,0,0,0,,0,108,108,74,1,1,TL,setanor,cursive,setanor_c.png,,,
,,,,31697,001,2025-10-16_12h38.37.446,HW_LDT_1,2024.2.4,MacIntel,60.24096386,,,,,,,,,,,,,,,,,,,,,,628.3695,628.5675,628.5676,629.0675,,,,,,,,,,,,,,0.0198,0,,,,,,,,,,,,,,z,,,,,,,,,,,,,,,,110,0,629.0681,629.1008,m,0,0.0198,,[],[],[],[],[],[],[],629.1009,631.1008,631.1008,631.101,[],[],[],[],[],[],[],,,,631.101,631.1011,-0.040620754,-0.384803838,0,0,0,,0,109,109,35,1,1,RL,senvilent,cursive,senvilent_c.png,,,
,,,,31697,001,2025-10-16_12h38.37.446,HW_LDT_1,2024.2.4,MacIntel,60.24096386,,,,,,,,,,,,,,,,,,,,,,631.1028,631.3007,631.3008,631.8006,,,,,,,,,,,,,,0.1654,1,,,,,,,,,,,,,,z,,,,,,,,,,,,,,,,111,0,631.8012,631.9675,z,1,0.1654,,[],[],[],[],[],[],[],631.9675,633.9671,633.9672,633.9672,[],[],[],[],[],[],[],,,,633.9673,633.9675,-0.040620754,-0.384803838,0,0,0,,0,110,110,11,1,1,RL,elacodate,print,elacodate_p.png,,,
,,,,31697,001,2025-10-16_12h38.37.446,HW_LDT_1,2024.2.4,MacIntel,60.24096386,,,,,,,,,,,,,,,,,,,,,,633.9685,634.1673,634.1673,634.6674,,,,,,,,,,,,,,0.1199,0,,,,,,,,,,,,,,m,,,,,,,,,,,,,,,,112,0,634.6682,634.8007,z,0,0.1199,,[],[],[],[],[],[],[],634.8009,636.8007,636.8008,636.801,[],[],[],[],[],[],[],,,,636.801,636.8011,-0.040620754,-0.384803838,0,0,0,,0,111,111,116,1,1,word,MARGINAL,print,marginal_p.png,,,
,,,,31697,001,2025-10-16_12h38.37.446,HW_LDT_1,2024.2.4,MacIntel,60.24096386,,,,,,,,,,,,,,,,,,,,,,636.8024,637.0009,637.0009,637.5007,,,,,,,,,,,,,,0.187,0,,,,,,,,,,,,,,z,,,,,,,,,,,,,,,,113,0,637.5011,637.7007,m,0,0.187,,[],[],[],[],[],[],[],637.7008,639.7007,639.7008,639.7009,[],[],[],[],[],[],[],,,,639.7011,639.7011,-0.040620754,-0.384803838,0,0,0,,0,112,112,0,1,1,RL,abanemy,cursive,abanemy_c.png,,,
,,,,31697,001,2025-10-16_12h38.37.446,HW_LDT_1,2024.2.4,MacIntel,60.24096386,,,,,,,,,,,,,,,,,,,,,,639.7023,639.9007,639.9008,640.4006,,,,,,,,,,,,,,0.4207,0,,,,,,,,,,,,,,m,,,,,,,,,,,,,,,,114,0,640.401,640.8341,z,0,0.4207,,[],[],[],[],[],[],[],640.8342,642.8341,642.8341,642.8343,[],[],[],[],[],[],[],,,,642.8344,642.8345,-0.040620754,-0.384803838,0,0,0,,0,113,113,122,1,1,word,MOBILE,cursive,mobile_c.png,,,
,,,,31697,001,2025-10-16_12h38.37.446,HW_LDT_1,2024.2.4,MacIntel,60.24096386,,,,,,,,,,,,,,,,,,,,,,642.836,643.0341,643.0342,643.5341,,,,,,,,,,,,,,3.1413,0,,,,,,,,,,,,,,z,,,,,,,,,,,,,,,,115,0,643.5349,646.6839,m,0,3.1413,,[],[],[],[],[],[],[],646.6843,648.6841,648.6841,648.6845,[],[],[],[],[],[],[],,,,648.6847,648.6849,-0.040620754,-0.384803838,0,0,0,,0,114,114,27,1,1,RL,rasibal,print,rasibal_p.png,,,
,,,,31697,001,2025-10-16_12h38.37.446,HW_LDT_1,2024.2.4,MacIntel,60.24096386,,,,,,,,,,,,,,,,,,,,,,648.6878,648.8841,648.8841,649.3842,,,,,,,,,,,,,,0.2555,0,,,,,,,,,,,,,,m,,,,,,,,,,,,,,,,116,0,649.3853,649.6509,z,0,0.2555,,[],[],[],[],[],[],[],649.651,651.6508,651.6509,651.6511,[],[],[],[],[],[],[],,,,651.6511,651.6512,-0.040620754,-0.384803838,0,0,0,,0,115,115,151,1,1,word,SPECIFIC,cursive,specific_c.png,,,
,,,,31697,001,2025-10-16_12h38.37.446,HW_LDT_1,2024.2.4,MacIntel,60.24096386,,,,,,,,,,,,,,,,,,,,,,651.6538,651.8507,651.8507,652.3507,,,,,,,,,,,,,,1.5887,1,,,,,,,,,,,,,,z,,,,,,,,,,,,,,,,117,0,652.3514,653.9508,z,1,1.5887,,[],[],[],[],[],[],[],653.9509,655.9506,655.9507,655.9509,[],[],[],[],[],[],[],,,,655.9509,655.951,-0.040620754,-0.384803838,0,0,0,,0,116,116,24,1,1,RL,probice,print,probice_p.png,,,
,,,,31697,001,2025-10-16_12h38.37.446,HW_LDT_1,2024.2.4,MacIntel,60.24096386,,,,,,,,,,,,,,,,,,,,,,655.9521,656.1507,656.1507,656.6508,,,,,,,,,,,,,,0.14,1,,,,,,,,,,,,,,m,,,,,,,,,,,,,,,,118,0,656.6518,656.8008,m,1,0.14,,[],[],[],[],[],[],[],656.8011,658.8007,658.8007,658.801,[],[],[],[],[],[],[],,,,658.801,658.8012,-0.040620754,-0.384803838,0,0,0,,0,117,117,92,1,1,word,CATEGORY,print,category_p.png,,,
,,,,31697,001,2025-10-16_12h38.37.446,HW_LDT_1,2024.2.4,MacIntel,60.24096386,,,,,,,,,,,,,,,,,,,,,,658.8033,659.0007,659.0007,659.5004,,,,,,,,,,,,,,0.0368,1,,,,,,,,,,,,,,m,,,,,,,,,,,,,,,,119,0,659.5007,659.5507,m,1,0.0368,,[],[],[],[],[],[],[],659.5507,661.5507,661.5507,661.5524,[],[],[],[],[],[],[],,,,661.5524,661.5526,-0.040620754,-0.384803838,0,0,0,,0,118,118,125,1,1,word,OPERATOR,cursive,operator_c.png,,,
,,,,31697,001,2025-10-16_12h38.37.446,HW_LDT_1,2024.2.4,MacIntel,60.24096386,,,,,,,,,,,,,,,,,,,,,,661.5541,661.7498,661.7499,662.2506,,,,,,,,,,,,,,0.0525,1,,,,,,,,,,,,,,z,,,,,,,,,,,,,,,,120,0,662.2514,662.3174,z,1,0.0525,,[],[],[],[],[],[],[],662.3176,664.3174,664.3175,664.3178,[],[],[],[],[],[],[],,,,664.3178,664.3179,-0.040620754,-0.384803838,0,0,0,,0,119,119,41,1,1,TL,bevoled,print,bevoled_p.png,,,
,,,,31697,001,2025-10-16_12h38.37.446,HW_LDT_1,2024.2.4,MacIntel,60.24096386,,,,,,,,,,,,,,,,,,,,,,664.3194,664.5174,664.5174,665.0174,,,,,,,,,,,,,,0.0359,1,,,,,,,,,,,,,,m,,,,,,,,,,,,,,,,121,0,665.0179,665.0668,m,1,0.0359,,[],[],[],[],[],[],[],665.067,667.0674,667.0675,667.0678,[],[],[],[],[],[],[],,,,667.0679,667.0681,-0.040620754,-0.384803838,0,0,0,,0,120,120,156,1,1,word,TRIBUTE,cursive,tribute_c.png,,,
,,,,31697,001,2025-10-16_12h38.37.446,HW_LDT_1,2024.2.4,MacIntel,60.24096386,,,,,,,,,,,,,,,,,,,,,,667.0701,667.2674,667.2674,667.7673,,,,,,,,,,,,,,0.1642,0,,,,,,,,,,,,,,z,,,,,,,,,,,,,,,,122,0,667.7681,667.9339,m,0,0.1642,,[],[],[],[],[],[],[],667.9341,669.9333,669.9336,669.9339,[],[],[],[],[],[],[],,,,669.9339,669.9341,-0.040620754,-0.384803838,0,0,0,,0,121,121,64,1,1,TL,orepator,cursive,orepator_c.png,,,
,,,,31697,001,2025-10-16_12h38.37.446,HW_LDT_1,2024.2.4,MacIntel,60.24096386,,,,,,,,,,,,,,,,,,,,,,669.9353,670.134,670.134,670.6339,,,,,,,,,,,,,,0.1569,1,,,,,,,,,,,,,,z,,,,,,,,,,,,,,,,123,0,670.6344,670.8003,z,1,0.1569,,[],[],[],[],[],[],[],670.8004,672.8007,672.8008,672.8012,[],[],[],[],[],[],[],,,,672.8014,672.8014,-0.040620754,-0.384803838,0,0,0,,0,122,122,68,1,1,TL,prosopal,cursive,prosopal_c.png,,,
,,,,31697,001,2025-10-16_12h38.37.446,HW_LDT_1,2024.2.4,MacIntel,60.24096386,,,,,,,,,,,,,,,,,,,,,,672.8029,672.9996,672.9996,673.5006,,,,,,,,,,,,,,0.3488,1,,,,,,,,,,,,,,m,,,,,,,,,,,,,,,,124,0,673.5012,673.851,m,1,0.3488,,[],[],[],[],[],[],[],673.851,675.8501,675.8504,675.8509,[],[],[],[],[],[],[],,,,675.8509,675.8511,-0.040620754,-0.384803838,0,0,0,,0,123,123,126,1,1,word,OPTIMAL,print,optimal_p.png,,,
,,,,31697,001,2025-10-16_12h38.37.446,HW_LDT_1,2024.2.4,MacIntel,60.24096386,,,,,,,,,,,,,,,,,,,,,,675.8528,676.0507,676.0507,676.5496,,,,,,,,,,,,,,0.1692,1,,,,,,,,,,,,,,m,,,,,,,,,,,,,,,,125,0,676.5502,676.733,m,1,0.1692,,[],[],[],[],[],[],[],676.733,678.7339,678.734,678.7341,[],[],[],[],[],[],[],,,,678.7341,678.7342,-0.040620754,-0.384803838,0,0,0,,0,124,124,159,1,1,word,VETERAN,print,veteran_p.png,,,
,,,,31697,001,2025-10-16_12h38.37.446,HW_LDT_1,2024.2.4,MacIntel,60.24096386,,,,,,,,,,,,,,,,,,,,,,678.7357,678.9339,678.934,679.4328,,,,,,,,,,,,,,0.106,1,,,,,,,,,,,,,,m,,,,,,,,,,,,,,,,126,0,679.4332,679.5508,m,1,0.106,,[],[],[],[],[],[],[],679.5509,681.5505,681.5506,681.5508,[],[],[],[],[],[],[],,,,681.5509,681.5511,-0.040620754,-0.384803838,0,0,0,,0,125,125,118,1,1,word,MEDICINE,cursive,medicine_c.png,,,
,,,,31697,001,2025-10-16_12h38.37.446,HW_LDT_1,2024.2.4,MacIntel,60.24096386,,,,,,,,,,,,,,,,,,,,,,681.5525,681.7505,681.7506,682.2506,,,,,,,,,,,,,,0.1403,0,,,,,,,,,,,,,,m,,,,,,,,,,,,,,,,127,0,682.2521,682.4008,z,0,0.1403,,[],[],[],[],[],[],[],682.4009,684.4006,684.4007,684.4009,[],[],[],[],[],[],[],,,,684.401,684.4011,-0.040620754,-0.384803838,0,0,0,,0,126,126,144,1,1,word,RESIDENT,print,resident_p.png,,,
,,,,31697,001,2025-10-16_12h38.37.446,HW_LDT_1,2024.2.4,MacIntel,60.24096386,,,,,,,,,,,,,,,,,,,,,,684.4027,684.6006,684.6006,685.0996,,,,,,,,,,,,,,0.2488,1,,,,,,,,,,,,,,m,,,,,,,,,,,,,,,,128,0,685.1003,685.3504,m,1,0.2488,,[],[],[],[],[],[],[],685.3504,687.3496,687.3496,687.3501,[],[],[],[],[],[],[],,,,687.3502,687.3503,-0.040620754,-0.384803838,0,0,0,,0,127,127,155,1,1,word,STRATEGY,cursive,strategy_c.png,,,
,,,,31697,001,2025-10-16_12h38.37.446,HW_LDT_1,2024.2.4,MacIntel,60.24096386,,,,,,,,,,,,,,,,,,,,,,687.3524,687.5506,687.5507,688.0507,,,,,,,,,,,,,,1.0876,1,,,,,,,,,,,,,,m,,,,,,,,,,,,,,,,129,0,688.0512,689.1506,m,1,1.0876,,[],[],[],[],[],[],[],689.1507,691.1509,691.1512,691.1517,[],[],[],[],[],[],[],,,,691.1518,691.1521,-0.040620754,-0.384803838,0,0,0,,0,128,128,128,1,1,word,PACIFIC,print,pacific_p.png,,,
,,,,31697,001,2025-10-16_12h38.37.446,HW_LDT_1,2024.2.4,MacIntel,60.24096386,,,,,,,,,,,,,,,,,,,,,,691.1547,691.3507,691.3508,691.8506,,,,,,,,,,,,,,0.8413,1,,,,,,,,,,,,,,z,,,,,,,,,,,,,,,,130,0,691.8515,692.7004,z,1,0.8413,,[],[],[],[],[],[],[],692.7005,694.7007,694.7007,694.7011,[],[],[],[],[],[],[],,,,694.7013,694.7015,-0.040620754,-0.384803838,0,0,0,,0,129,129,54,1,1,TL,distupe,cursive,distupe_c.png,,,
,,,,31697,001,2025-10-16_12h38.37.446,HW_LDT_1,2024.2.4,MacIntel,60.24096386,,,,,,,,,,,,,,,,,,,,,,694.7038,694.9007,694.9008,695.4006,,,,,,,,,,,,,,0.8399,1,,,,,,,,,,,,,,z,,,,,,,,,,,,,,,,131,0,695.4016,696.2495,z,1,0.8399,,[],[],[],[],[],[],[],696.2496,698.2496,698.2496,698.25,[],[],[],[],[],[],[],,,,698.2501,698.2503,-0.040620754,-0.384803838,0,0,0,,0,130,130,22,1,1,RL,patisic,print,patisic_p.png,,,
,,,,31697,001,2025-10-16_12h38.37.446,HW_LDT_1,2024.2.4,MacIntel,60.24096386,,,,,,,,,,,,,,,,,,,,,,698.2516,698.4507,698.4508,698.9499,,,,,,,,,,,,,,0.982,1,,,,,,,,,,,,,,z,,,,,,,,,,,,,,,,132,0,698.9506,699.9338,z,1,0.982,,[],[],[],[],[],[],[],699.9339,701.9338,701.9339,701.934,[],[],[],[],[],[],[],,,,701.9341,701.9342,-0.040620754,-0.384803838,0,0,0,,0,131,131,39,1,1,RL,vabifity,cursive,vabifity_c.png,,,
,,,,31697,001,2025-10-16_12h38.37.446,HW_LDT_1,2024.2.4,MacIntel,60.24096386,,,,,,,,,,,,,,,,,,,,,,701.9356,702.1338,702.1339,702.6331,,,,,,,,,,,,,,1.3158,1,,,,,,,,,,,,,,m,,,,,,,,,,,,,,,,133,1,702.6339,703.9506,m,1,1.3158,,[],[],[],[],[],[],[],703.9507,705.9506,705.9507,707.5675,[],[],[],[],[],[],[],z,1.6039,,707.5679,707.568,-0.040620754,-0.384803838,0,0,0,,0,132,132,112,1,1,word,LIBERAL,cursive,liberal_c.png,,,
,,,,31697,001,2025-10-16_12h38.37.446,HW_LDT_1,2024.2.4,MacIntel,60.24096386,,,,,,,,,,,,,,,,,,,,,,707.5702,707.7663,707.7663,708.2671,,,,,,,,,,,,,,0.8418,1,,,,,,,,,,,,,,z,,,,,,,,,,,,,,,,134,0,708.268,709.1161,z,1,0.8418,,[],[],[],[],[],[],[],709.1162,711.1162,711.1163,711.1165,[],[],[],[],[],[],[],,,,711.1165,711.1166,-0.040620754,-0.384803838,0,0,0,,0,133,133,79,1,1,TL,veretan,print,veretan_p.png,,,
,,,,31697,001,2025-10-16_12h38.37.446,HW_LDT_1,2024.2.4,MacIntel,60.24096386,,,,,,,,,,,,,,,,,,,,,,711.1175,711.3161,711.3162,711.8164,,,,,,,,,,,,,,0.6992,1,,,,,,,,,,,,,,m,,,,,,,,,,,,,,,,135,0,711.8172,712.5173,m,1,0.6992,,[],[],[],[],[],[],[],712.5175,714.5162,714.5163,714.5165,[],[],[],[],[],[],[],,,,714.5167,714.517,-0.040620754,-0.384803838,0,0,0,,0,134,134,114,1,1,word,LOCATE,print,locate_p.png,,,
,,,,31697,001,2025-10-16_12h38.37.446,HW_LDT_1,2024.2.4,MacIntel,60.24096386,,,,,,,,,,,,,,,,,,,,,,714.5183,714.7172,714.7172,715.2162,,,,,,,,,,,,,,0.7531,1,,,,,,,,,,,,,,m,,,,,,,,,,,,,,,,136,0,715.2169,715.9835,m,1,0.7531,,[],[],[],[],[],[],[],715.9837,717.9828,717.9829,717.983,[],[],[],[],[],[],[],,,,717.9831,717.9831,-0.040620754,-0.384803838,0,0,0,,0,135,135,158,1,1,word,VELOCITY,print,velocity_p.png,,,
,,,,31697,001,2025-10-16_12h38.37.446,HW_LDT_1,2024.2.4,MacIntel,60.24096386,,,,,,,,,,,,,,,,,,,,,,717.9843,718.1838,718.1839,718.6825,,,,,,,,,,,,,,0.6441,1,,,,,,,,,,,,,,z,,,,,,,,,,,,,,,,137,0,718.6829,719.3337,z,1,0.6441,,[],[],[],[],[],[],[],719.3339,721.3329,721.3332,721.3334,[],[],[],[],[],[],[],,,,721.3336,721.3337,-0.040620754,-0.384803838,0,0,0,,0,136,136,30,1,1,RL,relone,print,relone_p.png,,,
,,,,31697,001,2025-10-16_12h38.37.446,HW_LDT_1,2024.2.4,MacIntel,60.24096386,,,,,,,,,,,,,,,,,,,,,,721.3353,721.5327,721.5327,722.0338,,,,,,,,,,,,,,0.7227,0,,,,,,,,,,,,,,m,,,,,,,,,,,,,,,,138,0,722.0349,722.7672,z,0,0.7227,,[],[],[],[],[],[],[],722.7673,724.7673,724.7673,724.7675,[],[],[],[],[],[],[],,,,724.7676,724.7677,-0.040620754,-0.384803838,0,0,0,,0,137,137,101,1,1,word,DELICATE,cursive,delicate_c.png,,,
,,,,31697,001,2025-10-16_12h38.37.446,HW_LDT_1,2024.2.4,MacIntel,60.24096386,,,,,,,,,,,,,,,,,,,,,,724.7696,724.9672,724.9672,725.4671,,,,,,,,,,,,,,0.6699,1,,,,,,,,,,,,,,z,,,,,,,,,,,,,,,,139,0,725.4678,726.1495,z,1,0.6699,,[],[],[],[],[],[],[],726.1496,728.1505,728.1506,728.1508,[],[],[],[],[],[],[],,,,728.1508,728.1509,-0.040620754,-0.384803838,0,0,0,,0,138,138,4,1,1,RL,carminal,print,carminal_p.png,,,
,,,,31697,001,2025-10-16_12h38.37.446,HW_LDT_1,2024.2.4,MacIntel,60.24096386,,,,,,,,,,,,,,,,,,,,,,728.1531,728.3505,728.3505,728.8505,,,,,,,,,,,,,,1.0536,1,,,,,,,,,,,,,,m,,,,,,,,,,,,,,,,140,0,728.8511,729.9172,m,1,1.0536,,[],[],[],[],[],[],[],729.9173,731.9162,731.9163,731.9169,[],[],[],[],[],[],[],,,,731.917,731.9172,-0.040620754,-0.384803838,0,0,0,,0,139,139,136,1,1,word,RADICAL,print,radical_p.png,,,
,,,,31697,001,2025-10-16_12h38.37.446,HW_LDT_1,2024.2.4,MacIntel,60.24096386,,,,,,,,,,,,,,,,,,,,,,731.9202,732.1172,732.1172,732.6171,,,,,,,,,,,,,,0.9011,1,,,,,,,,,,,,,,m,,,,,,,,,,,,,,,,141,1,732.618,733.5326,m,1,0.9011,,[],[],[],[],[],[],[],733.5327,735.5327,735.5329,737.5837,[],[],[],[],[],[],[],m,2.0426,,737.5838,737.584,-0.040620754,-0.384803838,0,0,0,,0,140,140,142,1,1,word,REMOTE,print,remote_p.png,,,
,,,,31697,001,2025-10-16_12h38.37.446,HW_LDT_1,2024.2.4,MacIntel,60.24096386,,,,,,,,,,,,,,,,,,,,,,737.5852,737.7838,737.7838,738.2828,,,,,,,,,,,,,,1.2583,1,,,,,,,,,,,,,,z,,,,,,,,,,,,,,,,142,0,738.2836,739.5503,z,1,1.2583,,[],[],[],[],[],[],[],739.5505,741.5504,741.5505,741.5508,[],[],[],[],[],[],[],,,,741.5509,741.551,-0.040620754,-0.384803838,0,0,0,,0,141,141,3,1,1,RL,casena,cursive,casena_c.png,,,
,,,,31697,001,2025-10-16_12h38.37.446,HW_LDT_1,2024.2.4,MacIntel,60.24096386,,,,,,,,,,,,,,,,,,,,,,741.5529,741.7499,741.75,742.2503,,,,,,,,,,,,,,0.9586,1,,,,,,,,,,,,,,z,,,,,,,,,,,,,,,,143,0,742.2512,743.2163,z,1,0.9586,,[],[],[],[],[],[],[],743.2163,745.217,745.217,745.2173,[],[],[],[],[],[],[],,,,745.2174,745.2175,-0.040620754,-0.384803838,0,0,0,,0,142,142,37,1,1,RL,skofen,print,skofen_p.png,,,
,,,,31697,001,2025-10-16_12h38.37.446,HW_LDT_1,2024.2.4,MacIntel,60.24096386,,,,,,,,,,,,,,,,,,,,,,745.2191,745.4172,745.4173,745.9172,,,,,,,,,,,,,,0.847,1,,,,,,,,,,,,,,m,,,,,,,,,,,,,,,,144,0,745.9183,746.7662,m,1,0.847,,[],[],[],[],[],[],[],746.7663,748.7671,748.7672,748.7675,[],[],[],[],[],[],[],,,,748.7676,748.7677,-0.040620754,-0.384803838,0,0,0,,0,143,143,138,1,1,word,REFUSAL,print,refusal_p.png,,,
,,,,31697,001,2025-10-16_12h38.37.446,HW_LDT_1,2024.2.4,MacIntel,60.24096386,,,,,,,,,,,,,,,,,,,,,,748.7696,748.967,748.9671,749.4663,,,,,,,,,,,,,,0.6531,0,,,,,,,,,,,,,,m,,,,,,,,,,,,,,,,145,0,749.467,750.1329,z,0,0.6531,,[],[],[],[],[],[],[],750.1329,752.1328,752.1328,752.1331,[],[],[],[],[],[],[],,,,752.1331,752.1332,-0.040620754,-0.384803838,0,0,0,,0,144,144,87,1,1,word,CAFETERIA,cursive,cafeteria_c.png,,,
,,,,31697,001,2025-10-16_12h38.37.446,HW_LDT_1,2024.2.4,MacIntel,60.24096386,,,,,,,,,,,,,,,,,,,,,,752.1347,752.3337,752.3337,752.8337,,,,,,,,,,,,,,0.9099,1,,,,,,,,,,,,,,m,,,,,,,,,,,,,,,,146,0,752.8344,753.7494,m,1,0.9099,,[],[],[],[],[],[],[],753.7494,755.7503,755.7503,755.7505,[],[],[],[],[],[],[],,,,755.7505,755.7507,-0.039975374,-0.388820482,0,0,0,,0,145,145,145,1,1,word,RESUME,print,resume_p.png,,,
,,,,31697,001,2025-10-16_12h38.37.446,HW_LDT_1,2024.2.4,MacIntel,60.24096386,,,,,,,,,,,,,,,,,,,,,,755.7519,755.9503,755.9503,756.4495,,,,,,,,,,,,,,0.7536,1,,,,,,,,,,,,,,z,,,,,,,,,,,,,,,,147,0,756.4503,757.2171,z,1,0.7536,,[],[],[],[],[],[],[],757.2174,759.2162,759.2163,759.2168,[],[],[],[],[],[],[],,,,759.2169,759.217,-0.039975374,-0.388820482,0,0,0,,0,146,146,21,1,1,RL,opcifal,print,opcifal_p.png,,,
,,,,31697,001,2025-10-16_12h38.37.446,HW_LDT_1,2024.2.4,MacIntel,60.24096386,,,,,,,,,,,,,,,,,,,,,,759.2187,759.417,759.417,759.917,,,,,,,,,,,,,,0.9249,1,,,,,,,,,,,,,,m,,,,,,,,,,,,,,,,148,1,759.9178,760.8503,m,1,0.9249,,[],[],[],[],[],[],[],760.8504,762.8503,762.8504,763.4337,[],[],[],[],[],[],[],z,0.5717,,763.4338,763.434,-0.039975374,-0.388820482,0,0,0,,0,147,147,94,1,1,word,CLINICAL,cursive,clinical_c.png,,,
,,,,31697,001,2025-10-16_12h38.37.446,HW_LDT_1,2024.2.4,MacIntel,60.24096386,,,,,,,,,,,,,,,,,,,,,,763.4352,763.6336,763.6337,764.1336,,,,,,,,,,,,,,0.7088,1,,,,,,,,,,,,,,m,,,,,,,,,,,,,,,,149,0,764.1343,764.8503,m,1,0.7088,,[],[],[],[],[],[],[],764.8504,766.8502,766.8502,766.8505,[],[],[],[],[],[],[],,,,766.8505,766.8506,-0.039975374,-0.388820482,0,0,0,,0,148,148,108,1,1,word,FORTUNE,print,fortune_p.png,,,
,,,,31697,001,2025-10-16_12h38.37.446,HW_LDT_1,2024.2.4,MacIntel,60.24096386,,,,,,,,,,,,,,,,,,,,,,766.8521,767.0504,767.0505,767.5503,,,,,,,,,,,,,,0.753,1,,,,,,,,,,,,,,z,,,,,,,,,,,,,,,,150,0,767.551,768.3172,z,1,0.753,,[],[],[],[],[],[],[],768.3173,770.3169,770.3171,770.3174,[],[],[],[],[],[],[],,,,770.3175,770.3177,-0.039975374,-0.388820482,0,0,0,,0,149,149,75,1,1,TL,speficic,cursive,speficic_c.png,,,
,,,,31697,001,2025-10-16_12h38.37.446,HW_LDT_1,2024.2.4,MacIntel,60.24096386,,,,,,,,,,,,,,,,,,,,,,770.3198,770.5169,770.5169,771.0169,,,,,,,,,,,,,,0.7696,0,,,,,,,,,,,,,,m,,,,,,,,,,,,,,,,151,0,771.0177,771.8002,z,0,0.7696,,[],[],[],[],[],[],[],771.8003,773.8002,773.8002,773.8004,[],[],[],[],[],[],[],,,,773.8004,773.8007,-0.039975374,-0.388820482,0,0,0,,0,150,150,143,1,1,word,REMOVAL,cursive,removal_c.png,,,
,,,,31697,001,2025-10-16_12h38.37.446,HW_LDT_1,2024.2.4,MacIntel,60.24096386,,,,,,,,,,,,,,,,,,,,,,773.8018,774.0002,774.0003,774.5002,,,,,,,,,,,,,,0.8871,1,,,,,,,,,,,,,,z,,,,,,,,,,,,,,,,152,0,774.5007,775.4002,z,1,0.8871,,[],[],[],[],[],[],[],775.4004,777.4002,777.4003,777.4006,[],[],[],[],[],[],[],,,,777.4007,777.4009,-0.039975374,-0.388820482,0,0,0,,0,151,151,65,1,1,TL,orinigal,cursive,orinigal_c.png,,,
,,,,31697,001,2025-10-16_12h38.37.446,HW_LDT_1,2024.2.4,MacIntel,60.24096386,,,,,,,,,,,,,,,,,,,,,,777.4021,777.6003,777.6004,778.1003,,,,,,,,,,,,,,0.8348,1,,,,,,,,,,,,,,m,,,,,,,,,,,,,,,,153,1,778.1012,778.95,m,1,0.8348,,[],[],[],[],[],[],[],778.95,780.9502,780.9504,781.8336,[],[],[],[],[],[],[],m,0.8732,,781.8338,781.834,-0.034200917,-0.391584579,0,0,0,,0,152,152,117,1,1,word,MARINE,print,marine_p.png,,,
,,,,31697,001,2025-10-16_12h38.37.446,HW_LDT_1,2024.2.4,MacIntel,60.24096386,,,,,,,,,,,,,,,,,,,,,,781.8366,782.0336,782.0337,782.5336,,,,,,,,,,,,,,1.986,0,,,,,,,,,,,,,,m,,,,,,,,,,,,,,,,154,0,782.5346,784.5335,z,0,1.986,,[],[],[],[],[],[],[],784.5336,786.5334,786.5335,786.5336,[],[],[],[],[],[],[],,,,786.5337,786.5337,-0.034200917,-0.391584579,0,0,0,,0,153,153,80,1,1,word,ACADEMY,cursive,academy_c.png,,,
,,,,31697,001,2025-10-16_12h38.37.446,HW_LDT_1,2024.2.4,MacIntel,60.24096386,,,,,,,,,,,,,,,,,,,,,,786.5346,786.7335,786.7336,787.2335,,,,,,,,,,,,,,1.2387,1,,,,,,,,,,,,,,z,,,,,,,,,,,,,,,,155,0,787.2345,788.4835,z,1,1.2387,,[],[],[],[],[],[],[],788.4837,790.4834,790.4834,790.4836,[],[],[],[],[],[],[],,,,790.4836,790.4837,-0.034200917,-0.391584579,0,0,0,,0,154,154,33,1,1,RL,recile,cursive,recile_c.png,,,
,,,,31697,001,2025-10-16_12h38.37.446,HW_LDT_1,2024.2.4,MacIntel,60.24096386,,,,,,,,,,,,,,,,,,,,,,790.4846,790.6837,790.6837,791.1832,,,,,,,,,,,,,,1.0048,1,,,,,,,,,,,,,,z,,,,,,,,,,,,,,,,156,0,791.1834,792.2001,z,1,1.0048,,[],[],[],[],[],[],[],792.2002,794.2005,794.2009,794.2016,[],[],[],[],[],[],[],,,,794.2017,794.2018,-0.034200917,-0.391584579,0,0,0,,0,155,155,77,1,1,TL,tritube,cursive,tritube_c.png,,,
,,,,31697,001,2025-10-16_12h38.37.446,HW_LDT_1,2024.2.4,MacIntel,60.24096386,,,,,,,,,,,,,,,,,,,,,,794.2049,794.4003,794.4003,794.9002,,,,,,,,,,,,,,1.0693,1,,,,,,,,,,,,,,z,,,,,,,,,,,,,,,,157,0,794.9012,795.9836,z,1,1.0693,,[],[],[],[],[],[],[],795.9836,797.9834,797.9835,797.9837,[],[],[],[],[],[],[],,,,797.9837,797.9838,-0.034200917,-0.391584579,0,0,0,,0,156,156,15,1,1,RL,losipal,cursive,losipal_c.png,,,
,,,,31697,001,2025-10-16_12h38.37.446,HW_LDT_1,2024.2.4,MacIntel,60.24096386,,,,,,,,,,,,,,,,,,,,,,797.9851,798.1835,798.1835,798.6835,,,,,,,,,,,,,,2.1035,1,,,,,,,,,,,,,,z,,,,,,,,,,,,,,,,158,0,798.6842,800.8002,z,1,2.1035,,[],[],[],[],[],[],[],800.8003,802.8002,802.8002,802.8004,[],[],[],[],[],[],[],,,,802.8004,802.8006,-0.034200917,-0.391584579,0,0,0,,0,157,157,9,1,1,RL,docirant,cursive,docirant_c.png,,,
,,,,31697,001,2025-10-16_12h38.37.446,HW_LDT_1,2024.2.4,MacIntel,60.24096386,,,,,,,,,,,,,,,,,,,,,,802.8022,803.0001,803.0003,803.5001,,,,,,,,,,,,,,1.4033,1,,,,,,,,,,,,,,z,,,,,,,,,,,,,,,,159,0,803.5008,804.9169,z,1,1.4033,,[],[],[],[],[],[],[],804.9169,806.9174,806.9179,806.9186,[],[],[],[],[],[],[],,,,806.9187,806.9191,-0.034200917,-0.391584579,0,0,0,,0,158,158,23,1,1,RL,potugar,cursive,potugar_c.png,,,
,,,,31697,001,2025-10-16_12h38.37.446,HW_LDT_1,2024.2.4,MacIntel,60.24096386,,,,,,,,,,,,,,,,,,,,,,806.9222,807.1167,807.1169,807.6168,,,,,,,,,,,,,,0.9019,1,,,,,,,,,,,,,,m,,,,,,,,,,,,,,,,160,0,807.6179,808.5332,m,1,0.9019,,[],[],[],[],[],[],[],808.5332,810.5331,810.5331,810.5332,[],[],[],[],[],[],[],,,,810.5332,810.5332,-0.034451427,-0.391070822,0,0,0,,0,159,159,109,1,1,word,GRATEFUL,print,grateful_p.png,,,
,,,,31697,001,2025-10-16_12h38.37.446,HW_LDT_1,2024.2.4,MacIntel,60.24096386,,,,,,,,,,,,,,,,,,,,,,,,,,,,,,,,,,,,,,,,,,,,,,,,,,,,,,,,,,,,,,,,,,,,,,,,,,,,,,,,,,,,,,,,,,,,,,,,,,,,,,,,,,,,,,,,,,,,,,810.5465,815.5337
