counterbalance_lists.group,counterbalance_lists.remaining,get_list.started,get_list.stopped,participant,session,date,expName,psychopyVersion,OS,frameRate,Instructions.started,Instructions.stopped,key_resp.keys,instr_done_touch.x,instr_done_touch.y,instr_done_touch.leftButton,instr_done_touch.midButton,instr_done_touch.rightButton,instr_done_touch.clicked_name,start_instr.thisRepN,start_instr.thisTrialN,start_instr.thisN,start_instr.thisIndex,start_instr.ran,pageN,phase,instruct_text,has_image,instruct_image,showProgress.started,showProgress.stopped,fix.started,fix.stopped,prac.started,prac.stopped,response.keys,response.corr,response.rt,response.duration,touch_resp.x,touch_resp.y,touch_resp.leftButton,touch_resp.midButton,touch_resp.rightButton,touch_resp.time,touch_resp.clicked_name,rt,corr,feedback.started,feedback.stopped,trials.thisRepN,trials.thisTrialN,trials.thisN,trials.thisIndex,trials.ran,TrialID,StimulusType,Condition,PrimeDuration,Prime,Target,corrAns,Instructions_expt.started,Instructions_expt.stopped,key_resp_3.keys,key_resp_3.rt,key_resp_3.duration,instr_done_touch_3.x,instr_done_touch_3.y,instr_done_touch_3.leftButton,instr_done_touch_3.midButton,instr_done_touch_3.rightButton,instr_experiment.thisRepN,instr_experiment.thisTrialN,instr_experiment.thisN,instr_experiment.thisIndex,instr_experiment.ran,trialID,flag,maintask.started,maintask.stopped,key_resp_2.keys,key_resp_2.corr,key_resp_2.rt,key_resp_2.duration,targ_click.x,targ_click.y,targ_click.leftButton,targ_click.midButton,targ_click.rightButton,targ_click.time,targ_click.clicked_name,ITI.started,ITI.stopped,probe.started,probe.stopped,click_probe.x,click_probe.y,click_probe.leftButton,click_probe.midButton,click_probe.rightButton,click_probe.time,click_probe.clicked_name,key_resp_probe.keys,Break.started,Break.stopped,break_done_touch.x,break_done_touch.y,break_done_touch.leftButton,break_done_touch.midButton,break_done_touch.rightButton,break_done_keyboard.keys,list4_trials.thisRepN,list4_trials.thisTrialN,list4_trials.thisN,list4_trials.thisIndex,list4_trials.ran,list_id,item_type,string,font,stim_file,key_resp_probe.rt,key_resp_probe.duration,break_done_keyboard.rt,break_done_keyboard.duration,End.started,End.stopped
list4,,0.4201,0.4203,31704,001,2025-10-15_22h12.01.902,HW_LDT_1,2024.2.4,MacIntel,30.03003003,,,,,,,,,,,,,,,,,,,,,,,,,,,,,,,,,,,,,,,,,,,,,,,,,,,,,,,,,,,,,,,,,,,,,,,,,,,,,,,,,,,,,,,,,,,,,,,,,,,,,,,,,,,,,,,,,,,,,,
,,,,31704,001,2025-10-15_22h12.01.902,HW_LDT_1,2024.2.4,MacIntel,30.03003003,0.4415,18.6691,,-0.096996528,-0.404869792,1,0,0,instr_done_button,0,0,0,0,1,1,instructions,"INSTRUCTIONS
At the start of each trial, look at the plus sign  (+) in the center of the screen.  This tells you that a trial is about to begin and where to look. Second, the plus sign will disappear and a string of letters will appear. Your task is to determine if the string of letters is a word or not. If the item is a word press the M key (on keyboard)  or touch the word button (phone/tablet).  If the item is not a word,  press the  Z key (on keyboard)  or touch the nonword button (on phone/tablet). The items will be presented for a short time. 
Press the space bar or touch  continue.",0,,,,,,,,,,,,,,,,,,,,,,,,,,,,,,,,,,,,,,,,,,,,,,,,,,,,,,,,,,,,,,,,,,,,,,,,,,,,,,,,,,,,,,,,,,,,,,,,,,,,
,,,,31704,001,2025-10-15_22h12.01.902,HW_LDT_1,2024.2.4,MacIntel,30.03003003,18.6716,23.5341,,-0.103828125,-0.41781684,1,0,0,instr_done_button,0,1,1,1,1,2,instructions,"If your device has a keyboard, press the 'Z' key for nonwords and the 'M' key for words.





Press the space bar or touch the button below to continue.",0,keyboard-example.gif,,,,,,,,,,,,,,,,,,,,,,,,,,,,,,,,,,,,,,,,,,,,,,,,,,,,,,,,,,,,,,,,,,,,,,,,,,,,,,,,,,,,,,,,,,,,,,,,,,,
,,,,31704,001,2025-10-15_22h12.01.902,HW_LDT_1,2024.2.4,MacIntel,30.03003003,23.536,26.0342,,-0.103828125,-0.41781684,1,0,0,instr_done_button,0,2,2,2,1,3,instructions,"If you are using a touchscreen only device, use the buttons on the screen. Do not use the mouse.





Press the space bar or touch the button below to continue.",0,touchscreen-example.gif,,,,,,,,,,,,,,,,,,,,,,,,,,,,,,,,,,,,,,,,,,,,,,,,,,,,,,,,,,,,,,,,,,,,,,,,,,,,,,,,,,,,,,,,,,,,,,,,,,,
,,,,31704,001,2025-10-15_22h12.01.902,HW_LDT_1,2024.2.4,MacIntel,30.03003003,26.0367,31.6676,,-0.102790799,-0.416497396,1,0,0,instr_done_button,0,3,3,3,1,4,instructions,"It is very important that you respond as quickly and accurately as possible, as each letter string will only be on the screen for two seconds. If you do not respond within this time, the message 'Too slow!' will be displayed and the experiment will progress to the next letter string. The first 20 trials will be practice trials and you will receive feedback on your answers. 

Press the space bar or touch the button below to start the practice trials.",0,,,,,,,,,,,,,,,,,,,,,,,,,,,,,,,,,,,,,,,,,,,,,,,,,,,,,,,,,,,,,,,,,,,,,,,,,,,,,,,,,,,,,,,,,,,,,,,,,,,,
,,,,31704,001,2025-10-15_22h12.01.902,HW_LDT_1,2024.2.4,MacIntel,30.03003003,,,,,,,,,,,,,,,,,,,,31.6988,31.867,31.8672,32.3674,32.3678,35.4013,m,1,2.9926,,[],[],[],[],[],[],[],2.9926,1,35.402,35.9008,0,0,0,7,1,1008,WORD,UN,16,hurdle,VOLUME,m,,,,,,,,,,,,,,,,,,,,,,,,,,,,,,,,,,,,,,,,,,,,,,,,,,,,,,,,,,,,,,,,,,
,,,,31704,001,2025-10-15_22h12.01.902,HW_LDT_1,2024.2.4,MacIntel,30.03003003,,,,,,,,,,,,,,,,,,,,35.9025,36.1006,36.1006,36.6005,36.6019,37.9671,z,1,1.3482,,[],[],[],[],[],[],[],1.3482,1,37.9672,38.4673,0,1,1,9,1,1010,NW,"ID",33,fariny,FARINY,z,,,,,,,,,,,,,,,,,,,,,,,,,,,,,,,,,,,,,,,,,,,,,,,,,,,,,,,,,,,,,,,,,,
,,,,31704,001,2025-10-15_22h12.01.902,HW_LDT_1,2024.2.4,MacIntel,30.03003003,,,,,,,,,,,,,,,,,,,,38.4688,38.6671,38.6672,39.1672,39.1684,40.0673,m,1,0.8628,,[],[],[],[],[],[],[],0.8628,1,40.0675,40.5665,0,2,2,0,1,1001,WORD,"ID",33,utopia,UTOPIA,m,,,,,,,,,,,,,,,,,,,,,,,,,,,,,,,,,,,,,,,,,,,,,,,,,,,,,,,,,,,,,,,,,,
,,,,31704,001,2025-10-15_22h12.01.902,HW_LDT_1,2024.2.4,MacIntel,30.03003003,,,,,,,,,,,,,,,,,,,,40.5682,40.7671,40.7672,41.2671,41.268,42.034,z,1,0.744,,[],[],[],[],[],[],[],0.744,1,42.0341,42.5339,0,3,3,13,1,1014,NW,UN,33,winfer,ROUPET,z,,,,,,,,,,,,,,,,,,,,,,,,,,,,,,,,,,,,,,,,,,,,,,,,,,,,,,,,,,,,,,,,,,
,,,,31704,001,2025-10-15_22h12.01.902,HW_LDT_1,2024.2.4,MacIntel,30.03003003,,,,,,,,,,,,,,,,,,,,42.5357,42.7337,42.7339,43.2339,43.2352,43.9672,m,1,0.7035,,[],[],[],[],[],[],[],0.7035,1,43.9674,44.4674,0,4,4,6,1,1007,WORD,UN,16,tropic,ZOMBIE,m,,,,,,,,,,,,,,,,,,,,,,,,,,,,,,,,,,,,,,,,,,,,,,,,,,,,,,,,,,,,,,,,,,
,,,,31704,001,2025-10-15_22h12.01.902,HW_LDT_1,2024.2.4,MacIntel,30.03003003,,,,,,,,,,,,,,,,,,,,44.4691,44.6673,44.6673,45.1672,45.1682,45.9341,m,1,0.7309,,[],[],[],[],[],[],[],0.7309,1,45.9343,46.4338,0,5,5,3,1,1004,WORD,"ID",16,matrix,MATRIX,m,,,,,,,,,,,,,,,,,,,,,,,,,,,,,,,,,,,,,,,,,,,,,,,,,,,,,,,,,,,,,,,,,,
,,,,31704,001,2025-10-15_22h12.01.902,HW_LDT_1,2024.2.4,MacIntel,30.03003003,,,,,,,,,,,,,,,,,,,,46.4356,46.6339,46.634,47.1339,47.135,48.0339,z,1,0.8625,,[],[],[],[],[],[],[],0.8625,1,48.0341,48.534,0,6,6,8,1,1009,NW,"ID",33,aslert,ASLERT,z,,,,,,,,,,,,,,,,,,,,,,,,,,,,,,,,,,,,,,,,,,,,,,,,,,,,,,,,,,,,,,,,,,
,,,,31704,001,2025-10-15_22h12.01.902,HW_LDT_1,2024.2.4,MacIntel,30.03003003,,,,,,,,,,,,,,,,,,,,48.5358,48.7339,48.734,49.2339,49.2351,50.6671,z,1,1.4154,,[],[],[],[],[],[],[],1.4154,1,50.6672,51.1673,0,7,7,15,1,1016,NW,UN,16,mushed,WHAISE,z,,,,,,,,,,,,,,,,,,,,,,,,,,,,,,,,,,,,,,,,,,,,,,,,,,,,,,,,,,,,,,,,,,
,,,,31704,001,2025-10-15_22h12.01.902,HW_LDT_1,2024.2.4,MacIntel,30.03003003,,,,,,,,,,,,,,,,,,,,51.1687,51.3672,51.3673,51.8667,51.8678,54.0339,m,1,2.1304,,[],[],[],[],[],[],[],2.1304,1,54.0341,54.5333,0,8,8,5,1,1006,WORD,UN,33,frenzy,OBTAIN,m,,,,,,,,,,,,,,,,,,,,,,,,,,,,,,,,,,,,,,,,,,,,,,,,,,,,,,,,,,,,,,,,,,
,,,,31704,001,2025-10-15_22h12.01.902,HW_LDT_1,2024.2.4,MacIntel,30.03003003,,,,,,,,,,,,,,,,,,,,54.5348,54.734,54.7341,55.2339,55.2356,56.2007,z,1,0.9496,,[],[],[],[],[],[],[],0.9496,1,56.2008,56.6996,0,9,9,11,1,1012,NW,"ID",16,rashet,RASHET,z,,,,,,,,,,,,,,,,,,,,,,,,,,,,,,,,,,,,,,,,,,,,,,,,,,,,,,,,,,,,,,,,,,
,,,,31704,001,2025-10-15_22h12.01.902,HW_LDT_1,2024.2.4,MacIntel,30.03003003,,,,,,,,,,,,,,,,,,,,56.7008,56.9005,56.9006,57.4006,57.4018,58.2675,m,1,0.8286,,[],[],[],[],[],[],[],0.8286,1,58.2677,58.7676,0,10,10,2,1,1003,WORD,"ID",16,almond,ALMOND,m,,,,,,,,,,,,,,,,,,,,,,,,,,,,,,,,,,,,,,,,,,,,,,,,,,,,,,,,,,,,,,,,,,
,,,,31704,001,2025-10-15_22h12.01.902,HW_LDT_1,2024.2.4,MacIntel,30.03003003,,,,,,,,,,,,,,,,,,,,58.769,58.9672,58.9672,59.4672,59.4681,60.6005,z,1,1.1155,,[],[],[],[],[],[],[],1.1155,1,60.6006,61.1006,0,11,11,10,1,1011,NW,"ID",16,inlade,INLADE,z,,,,,,,,,,,,,,,,,,,,,,,,,,,,,,,,,,,,,,,,,,,,,,,,,,,,,,,,,,,,,,,,,,
,,,,31704,001,2025-10-15_22h12.01.902,HW_LDT_1,2024.2.4,MacIntel,30.03003003,,,,,,,,,,,,,,,,,,,,61.1023,61.3005,61.3006,61.8005,61.8018,62.6337,m,1,0.8227,,[],[],[],[],[],[],[],0.8227,1,62.6338,63.1342,0,12,12,1,1,1002,WORD,"ID",33,adjust,ADJUST,m,,,,,,,,,,,,,,,,,,,,,,,,,,,,,,,,,,,,,,,,,,,,,,,,,,,,,,,,,,,,,,,,,,
,,,,31704,001,2025-10-15_22h12.01.902,HW_LDT_1,2024.2.4,MacIntel,30.03003003,,,,,,,,,,,,,,,,,,,,63.1357,63.3338,63.3338,63.834,63.835,65.5669,z,1,1.7107,,[],[],[],[],[],[],[],1.7107,1,65.567,66.0674,0,13,13,14,1,1015,NW,UN,16,miaber,THRALE,z,,,,,,,,,,,,,,,,,,,,,,,,,,,,,,,,,,,,,,,,,,,,,,,,,,,,,,,,,,,,,,,,,,
,,,,31704,001,2025-10-15_22h12.01.902,HW_LDT_1,2024.2.4,MacIntel,30.03003003,,,,,,,,,,,,,,,,,,,,66.0689,66.2673,66.2673,66.7673,66.7682,68.3341,z,1,1.5288,,[],[],[],[],[],[],[],1.5288,1,68.3343,68.834,0,14,14,12,1,1013,NW,UN,33,adveil,SPRINY,z,,,,,,,,,,,,,,,,,,,,,,,,,,,,,,,,,,,,,,,,,,,,,,,,,,,,,,,,,,,,,,,,,,
,,,,31704,001,2025-10-15_22h12.01.902,HW_LDT_1,2024.2.4,MacIntel,30.03003003,,,,,,,,,,,,,,,,,,,,68.8356,69.0339,69.0339,69.534,69.5349,70.5675,m,1,1.0109,,[],[],[],[],[],[],[],1.0109,1,70.5676,71.0674,0,15,15,4,1,1005,WORD,UN,33,abound,SQUEAK,m,,,,,,,,,,,,,,,,,,,,,,,,,,,,,,,,,,,,,,,,,,,,,,,,,,,,,,,,,,,,,,,,,,
,,,,31704,001,2025-10-15_22h12.01.902,HW_LDT_1,2024.2.4,MacIntel,30.03003003,,,,,,,,,,,,,,,1,end_of_practice,"You have completed the practice trials. During the experimental trials, you will not receive feedback. On some trials you will be asked to report whether the item you just saw was in cursive or print. 
Before you begin, please ensure that you are in a comfortable and quiet location and will not be disturbed for about 15 minutes, as we cannot use your data if you do not complete all the trials. 
 When you are ready to start the experimental trials, please press space or touch the button below.",,,,,,,,,,,,,,,,,,,,,,,,,,,,,,,,,,,,71.0739,230.1009,space,158.9901,,-0.102790799,-0.416497396,0,0,0,0,0,0,0,1,,,,,,,,,,,,,,,,,,,,,,,,,,,,,,,,,,,,,,,,,,,,,,,,,,,
,,,,31704,001,2025-10-15_22h12.01.902,HW_LDT_1,2024.2.4,MacIntel,30.03003003,,,,,,,,,,,,,,,,,,,,230.111,230.3008,230.3008,230.8,,,,,,,,,,,,,,2.4683,1,,,,,,,,,,,,,,m,,,,,,,,,,,,,,,,1,0,230.8016,233.3015,m,1,2.4683,,[],[],[],[],[],[],[],233.302,235.3011,235.3014,235.3049,[],[],[],[],[],[],[],,235.3051,235.3066,-0.102790799,-0.416497396,0,0,0,,0,0,0,107,1,4,word,EVIDENT,print,evident_p.png,,,,,,
,,,,31704,001,2025-10-15_22h12.01.902,HW_LDT_1,2024.2.4,MacIntel,30.03003003,,,,,,,,,,,,,,,,,,,,235.3074,235.5007,235.5008,236.0007,,,,,,,,,,,,,,0.7498,1,,,,,,,,,,,,,,m,,,,,,,,,,,,,,,,2,0,236.0014,236.7676,m,1,0.7498,,[],[],[],[],[],[],[],236.7677,238.7675,238.7676,238.7679,[],[],[],[],[],[],[],,238.7679,238.7681,-0.102790799,-0.416497396,0,0,0,,0,1,1,154,1,4,word,STORAGE,print,storage_p.png,,,,,,
,,,,31704,001,2025-10-15_22h12.01.902,HW_LDT_1,2024.2.4,MacIntel,30.03003003,,,,,,,,,,,,,,,,,,,,238.7695,238.9664,238.9664,239.4674,,,,,,,,,,,,,,0.9644,1,,,,,,,,,,,,,,z,,,,,,,,,,,,,,,,3,0,239.468,240.4344,z,1,0.9644,,[],[],[],[],[],[],[],240.4345,242.434,242.4341,242.4343,[],[],[],[],[],[],[],,242.4344,242.4345,-0.102790799,-0.416497396,0,0,0,,0,2,2,44,1,4,RL,senvilent,print,senvilent_p.png,,,,,,
,,,,31704,001,2025-10-15_22h12.01.902,HW_LDT_1,2024.2.4,MacIntel,30.03003003,,,,,,,,,,,,,,,,,,,,242.4358,242.6341,242.6341,243.1341,,,,,,,,,,,,,,2.5884,1,,,,,,,,,,,,,,z,,,,,,,,,,,,,,,,4,0,243.1347,245.7341,z,1,2.5884,,[],[],[],[],[],[],[],245.7343,247.7333,247.7334,247.7336,[],[],[],[],[],[],[],,247.7337,247.7338,-0.102790799,-0.416497396,0,0,0,,0,3,3,46,1,4,RL,skofen,cursive,skofen_c.png,,,,,,
,,,,31704,001,2025-10-15_22h12.01.902,HW_LDT_1,2024.2.4,MacIntel,30.03003003,,,,,,,,,,,,,,,,,,,,247.7352,247.9341,247.9342,248.4341,,,,,,,,,,,,,,1.7364,1,,,,,,,,,,,,,,m,,,,,,,,,,,,,,,,5,0,248.4347,250.201,m,1,1.7364,,[],[],[],[],[],[],[],250.2011,252.2008,252.2008,252.2012,[],[],[],[],[],[],[],,252.2012,252.2014,-0.102790799,-0.416497396,0,0,0,,0,4,4,151,1,4,word,SPECIFIC,cursive,specific_c.png,,,,,,
,,,,31704,001,2025-10-15_22h12.01.902,HW_LDT_1,2024.2.4,MacIntel,30.03003003,,,,,,,,,,,,,,,,,,,,252.2028,252.4008,252.4009,252.9007,,,,,,,,,,,,,,0.8691,1,,,,,,,,,,,,,,m,,,,,,,,,,,,,,,,6,0,252.9014,253.8009,m,1,0.8691,,[],[],[],[],[],[],[],253.8011,255.8008,255.801,255.8014,[],[],[],[],[],[],[],,255.8015,255.8017,-0.102790799,-0.416497396,0,0,0,,0,5,5,130,1,4,word,POLICY,cursive,policy_c.png,,,,,,
,,,,31704,001,2025-10-15_22h12.01.902,HW_LDT_1,2024.2.4,MacIntel,30.03003003,,,,,,,,,,,,,,,,,,,,255.8032,256.0007,256.0008,256.5007,,,,,,,,,,,,,,1.416,1,,,,,,,,,,,,,,m,,,,,,,,,,,,,,,,7,0,256.5012,257.9343,m,1,1.416,,[],[],[],[],[],[],[],257.9345,259.9342,259.9343,259.9346,[],[],[],[],[],[],[],,259.9346,259.9347,-0.102790799,-0.416497396,0,0,0,,0,6,6,157,1,4,word,VALIDITY,print,validity_p.png,,,,,,
,,,,31704,001,2025-10-15_22h12.01.902,HW_LDT_1,2024.2.4,MacIntel,30.03003003,,,,,,,,,,,,,,,,,,,,259.9362,260.1341,260.1342,260.6342,,,,,,,,,,,,,,1.7811,1,,,,,,,,,,,,,,z,,,,,,,,,,,,,,,,8,1,260.6349,262.4343,z,1,1.7811,,[],[],[],[],[],[],[],262.4345,264.4341,264.4342,268.601,[],[],[],[],[],[],[],z,268.6011,268.6013,-0.102790799,-0.416497396,0,0,0,,0,7,7,45,1,4,RL,spetisic,cursive,spetisic_c.png,4.1363,,,,,
,,,,31704,001,2025-10-15_22h12.01.902,HW_LDT_1,2024.2.4,MacIntel,30.03003003,,,,,,,,,,,,,,,,,,,,268.6026,268.8009,268.8009,269.3003,,,,,,,,,,,,,,0.9634,1,,,,,,,,,,,,,,m,,,,,,,,,,,,,,,,9,0,269.3009,270.2675,m,1,0.9634,,[],[],[],[],[],[],[],270.2676,272.2675,272.2675,272.2677,[],[],[],[],[],[],[],,272.2678,272.268,-0.102790799,-0.416497396,0,0,0,,0,8,8,127,1,4,word,ORIGINAL,print,original_p.png,,,,,,
,,,,31704,001,2025-10-15_22h12.01.902,HW_LDT_1,2024.2.4,MacIntel,30.03003003,,,,,,,,,,,,,,,,,,,,272.2695,272.4676,272.4677,272.9672,,,,,,,,,,,,,,0.9694,1,,,,,,,,,,,,,,z,,,,,,,,,,,,,,,,10,1,272.968,273.9676,z,1,0.9694,,[],[],[],[],[],[],[],273.9677,275.9676,275.9677,279.2677,[],[],[],[],[],[],[],m,279.2678,279.2681,-0.102790799,-0.416497396,0,0,0,,0,9,9,48,1,4,RL,vabifity,print,vabifity_p.png,3.2698,,,,,
,,,,31704,001,2025-10-15_22h12.01.902,HW_LDT_1,2024.2.4,MacIntel,30.03003003,,,,,,,,,,,,,,,,,,,,279.2696,279.4675,279.4675,279.9676,,,,,,,,,,,,,,1.106,1,,,,,,,,,,,,,,z,,,,,,,,,,,,,,,,11,1,279.9682,281.1006,z,1,1.106,,[],[],[],[],[],[],[],281.1006,283.1008,283.1008,284.9338,[],[],[],[],[],[],[],m,284.9338,284.9338,-0.102790799,-0.416497396,0,0,0,,0,10,10,54,1,4,TL,codemy,print,codemy_p.png,1.83,,,,,
,,,,31704,001,2025-10-15_22h12.01.902,HW_LDT_1,2024.2.4,MacIntel,30.03003003,,,,,,,,,,,,,,,,,,,,284.9343,285.1337,285.1337,285.6338,,,,,,,,,,,,,,1.0837,1,,,,,,,,,,,,,,m,,,,,,,,,,,,,,,,12,0,285.6341,286.7345,m,1,1.0837,,[],[],[],[],[],[],[],286.7347,288.7341,288.7343,288.7345,[],[],[],[],[],[],[],,288.7346,288.7347,-0.102790799,-0.416497396,0,0,0,,0,11,11,90,1,4,word,CAPITAL,print,capital_p.png,,,,,,
,,,,31704,001,2025-10-15_22h12.01.902,HW_LDT_1,2024.2.4,MacIntel,30.03003003,,,,,,,,,,,,,,,,,,,,288.736,288.9333,288.9334,289.4341,,,,,,,,,,,,,,2.0799,0,,,,,,,,,,,,,,m,,,,,,,,,,,,,,,,13,0,289.4346,291.5343,z,0,2.0799,,[],[],[],[],[],[],[],291.5344,293.5343,293.5343,293.5345,[],[],[],[],[],[],[],,293.5345,293.5347,-0.102790799,-0.416497396,0,0,0,,0,12,12,108,1,4,word,FORTUNE,cursive,fortune_c.png,,,,,,
,,,,31704,001,2025-10-15_22h12.01.902,HW_LDT_1,2024.2.4,MacIntel,30.03003003,,,,,,,,,,,,,,,,,,,,293.5362,293.7343,293.7343,294.2341,,,,,,,,,,,,,,1.6527,1,,,,,,,,,,,,,,m,,,,,,,,,,,,,,,,14,0,294.2347,295.9012,m,1,1.6527,,[],[],[],[],[],[],[],295.9013,297.9008,297.9008,297.9011,[],[],[],[],[],[],[],,297.9011,297.9012,-0.102790799,-0.416497396,0,0,0,,0,13,13,98,1,4,word,CRIMINAL,cursive,criminal_c.png,,,,,,
,,,,31704,001,2025-10-15_22h12.01.902,HW_LDT_1,2024.2.4,MacIntel,30.03003003,,,,,,,,,,,,,,,,,,,,297.9027,298.1008,298.1009,298.6009,,,,,,,,,,,,,,1.6904,1,,,,,,,,,,,,,,z,,,,,,,,,,,,,,,,15,0,298.6014,300.3009,z,1,1.6904,,[],[],[],[],[],[],[],300.301,302.3009,302.3009,302.3011,[],[],[],[],[],[],[],,302.3012,302.3013,-0.102790799,-0.416497396,0,0,0,,0,14,14,57,1,4,TL,etidor,print,etidor_p.png,,,,,,
,,,,31704,001,2025-10-15_22h12.01.902,HW_LDT_1,2024.2.4,MacIntel,30.03003003,,,,,,,,,,,,,,,,,,,,302.3027,302.5,302.5,303.0009,,,,,,,,,,,,,,1.0528,1,,,,,,,,,,,,,,z,,,,,,,,,,,,,,,,16,0,303.0015,304.0675,z,1,1.0528,,[],[],[],[],[],[],[],304.0676,306.0676,306.0677,306.068,[],[],[],[],[],[],[],,306.068,306.0682,-0.102790799,-0.416497396,0,0,0,,0,15,15,79,1,4,TL,tritube,print,tritube_p.png,,,,,,
,,,,31704,001,2025-10-15_22h12.01.902,HW_LDT_1,2024.2.4,MacIntel,30.03003003,,,,,,,,,,,,,,,,,,,,306.0696,306.2676,306.2677,306.7676,,,,,,,,,,,,,,2.8346,1,,,,,,,,,,,,,,z,,,,,,,,,,,,,,,,17,1,306.7682,309.6343,z,1,2.8346,,[],[],[],[],[],[],[],309.6343,311.6342,311.6342,313.0677,[],[],[],[],[],[],[],z,313.0677,313.0679,-0.102790799,-0.416497396,0,0,0,,0,16,16,19,1,4,RL,elacodate,cursive,elacodate_c.png,1.4034,,,,,
,,,,31704,001,2025-10-15_22h12.01.902,HW_LDT_1,2024.2.4,MacIntel,30.03003003,,,,,,,,,,,,,,,,,,,,313.0693,313.2676,313.2676,313.7675,,,,,,,,,,,,,,1.2654,1,,,,,,,,,,,,,,z,,,,,,,,,,,,,,,,18,1,313.7682,315.0345,z,1,1.2654,,[],[],[],[],[],[],[],315.0346,317.0342,317.0343,319.4006,[],[],[],[],[],[],[],z,319.4007,319.4008,-0.102790799,-0.416497396,0,0,0,,0,17,17,40,1,4,RL,reconal,print,reconal_p.png,2.3369,,,,,
,,,,31704,001,2025-10-15_22h12.01.902,HW_LDT_1,2024.2.4,MacIntel,30.03003003,,,,,,,,,,,,,,,,,,,,319.4022,319.6009,319.6009,320.1007,,,,,,,,,,,,,,2.0303,1,,,,,,,,,,,,,,z,,,,,,,,,,,,,,,,19,1,320.1015,322.1343,z,1,2.0303,,[],[],[],[],[],[],[],322.1344,324.1345,324.1345,325.5678,[],[],[],[],[],[],[],z,325.5679,325.5682,-0.102790799,-0.416497396,0,0,0,,0,18,18,35,1,4,RL,probice,cursive,probice_c.png,1.4031,,,,,
,,,,31704,001,2025-10-15_22h12.01.902,HW_LDT_1,2024.2.4,MacIntel,30.03003003,,,,,,,,,,,,,,,,,,,,325.5697,325.7676,325.7676,326.2677,,,,,,,,,,,,,,1.3026,1,,,,,,,,,,,,,,m,,,,,,,,,,,,,,,,20,0,326.2683,327.6002,m,1,1.3026,,[],[],[],[],[],[],[],327.6002,329.6009,329.601,329.6013,[],[],[],[],[],[],[],,329.6013,329.6015,-0.102790799,-0.416497396,0,0,0,,0,19,19,88,1,4,word,CAMERA,print,camera_p.png,,,,,,
,,,,31704,001,2025-10-15_22h12.01.902,HW_LDT_1,2024.2.4,MacIntel,30.03003003,,,,,,,,,,,,,,,,,,,,329.6029,329.8009,329.8011,330.301,,,,,,,,,,,,,,0.9729,1,,,,,,,,,,,,,,m,,,,,,,,,,,,,,,,21,0,330.3016,331.3006,m,1,0.9729,,[],[],[],[],[],[],[],331.3006,333.3008,333.3009,333.301,[],[],[],[],[],[],[],,333.3011,333.3013,-0.102790799,-0.416497396,0,0,0,,0,20,20,149,1,4,word,SENATOR,print,senator_p.png,,,,,,
,,,,31704,001,2025-10-15_22h12.01.902,HW_LDT_1,2024.2.4,MacIntel,30.03003003,,,,,,,,,,,,,,,,,,,,333.3027,333.501,333.501,334.0009,,,,,,,,,,,,,,0.9383,1,,,,,,,,,,,,,,z,,,,,,,,,,,,,,,,22,0,334.0015,334.9676,z,1,0.9383,,[],[],[],[],[],[],[],334.9678,336.9676,336.9677,336.9679,[],[],[],[],[],[],[],,336.9681,336.9681,-0.102790799,-0.416497396,0,0,0,,0,21,21,76,1,4,TL,setanor,print,setanor_p.png,,,,,,
,,,,31704,001,2025-10-15_22h12.01.902,HW_LDT_1,2024.2.4,MacIntel,30.03003003,,,,,,,,,,,,,,,,,,,,336.9697,337.1674,337.1675,337.6675,,,,,,,,,,,,,,2.1645,1,,,,,,,,,,,,,,z,,,,,,,,,,,,,,,,23,0,337.6682,339.8341,z,1,2.1645,,[],[],[],[],[],[],[],339.8342,341.8341,341.8343,341.8344,[],[],[],[],[],[],[],,341.8345,341.8346,-0.102790799,-0.416497396,0,0,0,,0,22,22,4,1,4,RL,betemit,cursive,betemit_c.png,,,,,,
,,,,31704,001,2025-10-15_22h12.01.902,HW_LDT_1,2024.2.4,MacIntel,30.03003003,,,,,,,,,,,,,,,,,,,,341.836,342.0342,342.0342,342.5343,,,,,,,,,,,,,,1.1444,1,,,,,,,,,,,,,,m,,,,,,,,,,,,,,,,24,0,342.5349,343.701,m,1,1.1444,,[],[],[],[],[],[],[],343.7011,345.701,345.701,345.7013,[],[],[],[],[],[],[],,345.7013,345.7015,-0.102790799,-0.416497396,0,0,0,,0,23,23,80,1,4,word,ACADEMY,print,academy_p.png,,,,,,
,,,,31704,001,2025-10-15_22h12.01.902,HW_LDT_1,2024.2.4,MacIntel,30.03003003,,,,,,,,,,,,,,,,,,,,345.703,345.9009,345.901,346.4005,,,,,,,,,,,,,,3.4404,1,,,,,,,,,,,,,,z,,,,,,,,,,,,,,,,25,0,346.4011,349.8678,z,1,3.4404,,[],[],[],[],[],[],[],349.8678,351.8675,351.8676,351.8677,[],[],[],[],[],[],[],,351.8678,351.868,-0.102790799,-0.416497396,0,0,0,,0,24,24,73,1,4,TL,regilion,print,regilion_p.png,,,,,,
,,,,31704,001,2025-10-15_22h12.01.902,HW_LDT_1,2024.2.4,MacIntel,30.03003003,,,,,,,,,,,,,,,,,,,,351.8693,352.0676,352.0677,352.5676,,,,,,,,,,,,,,1.5188,0,,,,,,,,,,,,,,m,,,,,,,,,,,,,,,,26,0,352.5683,354.101,z,0,1.5188,,[],[],[],[],[],[],[],354.1011,356.101,356.101,356.1013,[],[],[],[],[],[],[],,356.1014,356.1015,-0.102790799,-0.416497396,0,0,0,,0,25,25,128,1,4,word,PACIFIC,cursive,pacific_c.png,,,,,,
,,,,31704,001,2025-10-15_22h12.01.902,HW_LDT_1,2024.2.4,MacIntel,30.03003003,,,,,,,,,,,,,,,,,,,,356.103,356.3009,356.301,356.8009,,,,,,,,,,,,,,1.4029,1,,,,,,,,,,,,,,z,,,,,,,,,,,,,,,,27,0,356.8015,358.2342,z,1,1.4029,,[],[],[],[],[],[],[],358.2343,360.2342,360.2343,360.2346,[],[],[],[],[],[],[],,360.2347,360.2348,-0.102790799,-0.416497396,0,0,0,,0,26,26,26,1,4,RL,mesibine,cursive,mesibine_c.png,,,,,,
,,,,31704,001,2025-10-15_22h12.01.902,HW_LDT_1,2024.2.4,MacIntel,30.03003003,,,,,,,,,,,,,,,,,,,,360.2362,360.4343,360.4344,360.9343,,,,,,,,,,,,,,1.5445,1,,,,,,,,,,,,,,z,,,,,,,,,,,,,,,,28,0,360.9348,362.5011,z,1,1.5445,,[],[],[],[],[],[],[],362.5011,364.5009,364.501,364.5013,[],[],[],[],[],[],[],,364.5013,364.5015,-0.102790799,-0.416497396,0,0,0,,0,27,27,36,1,4,RL,rabigly,cursive,rabigly_c.png,,,,,,
,,,,31704,001,2025-10-15_22h12.01.902,HW_LDT_1,2024.2.4,MacIntel,30.03003003,,,,,,,,,,,,,,,,,,,,364.503,364.701,364.701,365.2009,,,,,,,,,,,,,,1.2016,1,,,,,,,,,,,,,,m,,,,,,,,,,,,,,,,29,0,365.2015,366.4344,m,1,1.2016,,[],[],[],[],[],[],[],366.4345,368.4343,368.4344,368.4347,[],[],[],[],[],[],[],,368.4347,368.4348,-0.102790799,-0.416497396,0,0,0,,0,28,28,150,1,4,word,SENTIMENT,print,sentiment_p.png,,,,,,
,,,,31704,001,2025-10-15_22h12.01.902,HW_LDT_1,2024.2.4,MacIntel,30.03003003,,,,,,,,,,,,,,,,,,,,368.4362,368.6342,368.6343,369.1342,,,,,,,,,,,,,,1.1079,0,,,,,,,,,,,,,,m,,,,,,,,,,,,,,,,30,0,369.1349,370.2667,z,0,1.1079,,[],[],[],[],[],[],[],370.2668,372.2666,372.2667,372.2669,[],[],[],[],[],[],[],,372.267,372.267,-0.102790799,-0.416497396,0,0,0,,0,29,29,138,1,4,word,REFUSAL,cursive,refusal_c.png,,,,,,
,,,,31704,001,2025-10-15_22h12.01.902,HW_LDT_1,2024.2.4,MacIntel,30.03003003,,,,,,,,,,,,,,,,,,,,372.2684,372.4677,372.4677,372.9676,,,,,,,,,,,,,,0.9418,1,,,,,,,,,,,,,,m,,,,,,,,,,,,,,,,31,0,372.9682,373.9345,m,1,0.9418,,[],[],[],[],[],[],[],373.9346,375.9343,375.9343,375.9346,[],[],[],[],[],[],[],,375.9346,375.9348,-0.102790799,-0.416497396,0,0,0,,0,30,30,81,1,4,word,ADVISORY,cursive,advisory_c.png,,,,,,
,,,,31704,001,2025-10-15_22h12.01.902,HW_LDT_1,2024.2.4,MacIntel,30.03003003,,,,,,,,,,,,,,,,,,,,375.9365,376.1342,376.1344,376.6344,,,,,,,,,,,,,,1.7144,1,,,,,,,,,,,,,,z,,,,,,,,,,,,,,,,32,1,376.635,378.3677,z,1,1.7144,,[],[],[],[],[],[],[],378.3678,380.367,380.367,381.5999,[],[],[],[],[],[],[],z,381.6,381.6001,-0.102790799,-0.416497396,0,0,0,,0,31,31,39,1,4,RL,relone,cursive,relone_c.png,1.2319,,,,,
,,,,31704,001,2025-10-15_22h12.01.902,HW_LDT_1,2024.2.4,MacIntel,30.03003003,,,,,,,,,,,,,,,,,,,,381.601,381.801,381.801,382.301,,,,,,,,,,,,,,1.3183,1,,,,,,,,,,,,,,m,,,,,,,,,,,,,,,,33,0,382.3016,383.6343,m,1,1.3183,,[],[],[],[],[],[],[],383.6344,385.6343,385.6344,385.6346,[],[],[],[],[],[],[],,385.6347,385.6348,-0.102790799,-0.416497396,0,0,0,,0,32,32,112,1,4,word,LIBERAL,cursive,liberal_c.png,,,,,,
,,,,31704,001,2025-10-15_22h12.01.902,HW_LDT_1,2024.2.4,MacIntel,30.03003003,,,,,,,,,,,,,,,,,,,,385.6364,385.8343,385.8343,386.3343,,,,,,,,,,,,,,2.2697,1,,,,,,,,,,,,,,z,,,,,,,,,,,,,,,,34,0,386.3349,388.6344,z,1,2.2697,,[],[],[],[],[],[],[],388.6345,390.6343,390.6344,390.6346,[],[],[],[],[],[],[],,390.6347,390.6348,-0.102790799,-0.416497396,0,0,0,,0,33,33,75,1,4,TL,sanile,print,sanile_p.png,,,,,,
,,,,31704,001,2025-10-15_22h12.01.902,HW_LDT_1,2024.2.4,MacIntel,30.03003003,,,,,,,,,,,,,,,,,,,,390.6363,390.8343,390.8343,391.3333,,,,,,,,,,,,,,0.9728,1,,,,,,,,,,,,,,z,,,,,,,,,,,,,,,,35,0,391.3338,392.3334,z,1,0.9728,,[],[],[],[],[],[],[],392.3335,394.3344,394.3345,394.3347,[],[],[],[],[],[],[],,394.3348,394.3348,-0.102790799,-0.416497396,0,0,0,,0,34,34,37,1,4,RL,renutal,cursive,renutal_c.png,,,,,,
,,,,31704,001,2025-10-15_22h12.01.902,HW_LDT_1,2024.2.4,MacIntel,30.03003003,,,,,,,,,,,,,,,,,,,,394.3362,394.5344,394.5345,395.0343,,,,,,,,,,,,,,1.7363,1,,,,,,,,,,,,,,z,,,,,,,,,,,,,,,,36,0,395.0349,396.8011,z,1,1.7363,,[],[],[],[],[],[],[],396.8013,398.801,398.8011,398.8013,[],[],[],[],[],[],[],,398.8014,398.8015,-0.102790799,-0.416497396,0,0,0,,0,35,35,64,1,4,TL,moredate,print,moredate_p.png,,,,,,
,,,,31704,001,2025-10-15_22h12.01.902,HW_LDT_1,2024.2.4,MacIntel,30.03003003,,,,,,,,,,,,,,,,,,,,398.803,399.0009,399.001,399.501,,,,,,,,,,,,,,0.7765,1,,,,,,,,,,,,,,m,,,,,,,,,,,,,,,,37,0,399.5017,400.3011,m,1,0.7765,,[],[],[],[],[],[],[],400.3012,402.301,402.3011,402.3013,[],[],[],[],[],[],[],,402.3013,402.3015,-0.102790799,-0.416497396,0,0,0,,0,36,36,117,1,4,word,MARINE,print,marine_p.png,,,,,,
,,,,31704,001,2025-10-15_22h12.01.902,HW_LDT_1,2024.2.4,MacIntel,30.03003003,,,,,,,,,,,,,,,,,,,,402.3029,402.5009,402.5011,403.001,,,,,,,,,,,,,,1.0788,1,,,,,,,,,,,,,,z,,,,,,,,,,,,,,,,38,1,403.0018,404.1012,z,1,1.0788,,[],[],[],[],[],[],[],404.1013,406.101,406.1011,408.9011,[],[],[],[],[],[],[],z,408.9013,408.9014,-0.102790799,-0.416497396,0,0,0,,0,37,37,60,1,4,TL,hetirage,print,hetirage_p.png,2.7838,,,,,
,,,,31704,001,2025-10-15_22h12.01.902,HW_LDT_1,2024.2.4,MacIntel,30.03003003,,,,,,,,,,,,,,,,,,,,408.9028,409.101,409.1011,409.5999,,,,,,,,,,,,,,4.1594,1,,,,,,,,,,,,,,m,,,,,,,,,,,,,,,,39,0,409.6004,413.7676,m,1,4.1594,,[],[],[],[],[],[],[],413.7677,415.7676,415.7678,415.7679,[],[],[],[],[],[],[],,415.768,415.768,-0.102790799,-0.416497396,0,0,0,,0,38,38,121,1,4,word,MISTAKE,print,mistake_p.png,,,,,,
,,,,31704,001,2025-10-15_22h12.01.902,HW_LDT_1,2024.2.4,MacIntel,30.03003003,,,,,,,,,,,,,,,,,,,,415.7694,415.9676,415.9676,416.4677,,,,,,,,,,,,,,1.3693,1,,,,,,,,,,,,,,z,,,,,,,,,,,,,,,,40,0,416.4683,417.8677,z,1,1.3693,,[],[],[],[],[],[],[],417.8679,419.8677,419.8677,419.868,[],[],[],[],[],[],[],,419.868,419.8682,-0.102790799,-0.416497396,0,0,0,,0,39,39,38,1,4,RL,refakive,print,refakive_p.png,,,,,,
,,,,31704,001,2025-10-15_22h12.01.902,HW_LDT_1,2024.2.4,MacIntel,30.03003003,,,,,,,,,,,,,,,,,,,,419.8696,420.0677,420.0678,420.5677,,,,,,,,,,,,,,3.5361,1,,,,,,,,,,,,,,z,,,,,,,,,,,,,,,,41,0,420.5683,424.1345,z,1,3.5361,,[],[],[],[],[],[],[],424.1346,426.1343,426.1344,426.1346,[],[],[],[],[],[],[],,426.1347,426.1348,-0.102790799,-0.416497396,0,0,0,,0,40,40,55,1,4,TL,corevage,cursive,corevage_c.png,,,,,,
,,,,31704,001,2025-10-15_22h12.01.902,HW_LDT_1,2024.2.4,MacIntel,30.03003003,,,,,,,,,,,,,,,,,,,,426.1363,426.3343,426.3344,426.8343,,,,,,,,,,,,,,2.336,1,,,,,,,,,,,,,,m,,,,,,,,,,,,,,,,42,0,426.8349,429.2011,m,1,2.336,,[],[],[],[],[],[],[],429.2012,431.201,431.2011,431.2013,[],[],[],[],[],[],[],,431.2014,431.2015,-0.102790799,-0.416497396,0,0,0,,0,41,41,82,1,4,word,AMATEUR,cursive,amateur_c.png,,,,,,
,,,,31704,001,2025-10-15_22h12.01.902,HW_LDT_1,2024.2.4,MacIntel,30.03003003,,,,,,,,,,,,,,,,,,,,431.203,431.401,431.401,431.901,,,,,,,,,,,,,,1.716,1,,,,,,,,,,,,,,z,,,,,,,,,,,,,,,,43,1,431.9019,433.6346,z,1,1.716,,[],[],[],[],[],[],[],433.6348,435.6344,435.6345,436.9677,[],[],[],[],[],[],[],z,436.9678,436.9679,-0.102790799,-0.416497396,0,0,0,,0,42,42,30,1,4,RL,nunewical,cursive,nunewical_c.png,1.3035,,,,,
,,,,31704,001,2025-10-15_22h12.01.902,HW_LDT_1,2024.2.4,MacIntel,30.03003003,,,,,,,,,,,,,,,,,,,,436.9695,437.1675,437.1676,437.6677,,,,,,,,,,,,,,1.7058,1,,,,,,,,,,,,,,z,,,,,,,,,,,,,,,,44,0,437.6684,439.4008,z,1,1.7058,,[],[],[],[],[],[],[],439.4008,441.401,441.4011,441.4013,[],[],[],[],[],[],[],,441.4014,441.4015,-0.102790799,-0.416497396,0,0,0,,0,43,43,70,1,4,TL,quatily,print,quatily_p.png,,,,,,
,,,,31704,001,2025-10-15_22h12.01.902,HW_LDT_1,2024.2.4,MacIntel,30.03003003,,,,,,,,,,,,,,,,,,,,441.4029,441.6011,441.6012,442.101,,,,,,,,,,,,,,1.1112,1,,,,,,,,,,,,,,z,,,,,,,,,,,,,,,,45,0,442.1015,443.2345,z,1,1.1112,,[],[],[],[],[],[],[],443.2346,445.2344,445.2345,445.2346,[],[],[],[],[],[],[],,445.2347,445.2348,-0.102790799,-0.416497396,0,0,0,,0,44,44,41,1,4,RL,rebicent,cursive,rebicent_c.png,,,,,,
,,,,31704,001,2025-10-15_22h12.01.902,HW_LDT_1,2024.2.4,MacIntel,30.03003003,,,,,,,,,,,,,,,,,,,,445.2362,445.4343,445.4343,445.9343,,,,,,,,,,,,,,1.051,1,,,,,,,,,,,,,,m,,,,,,,,,,,,,,,,46,0,445.935,447.0011,m,1,1.051,,[],[],[],[],[],[],[],447.0012,449.001,449.0011,449.0014,[],[],[],[],[],[],[],,449.0015,449.0015,-0.102790799,-0.416497396,0,0,0,,0,45,45,120,1,4,word,MILITARY,print,military_p.png,,,,,,
,,,,31704,001,2025-10-15_22h12.01.902,HW_LDT_1,2024.2.4,MacIntel,30.03003003,,,,,,,,,,,,,,,,,,,,449.003,449.2011,449.2011,449.7011,,,,,,,,,,,,,,1.0028,1,,,,,,,,,,,,,,m,,,,,,,,,,,,,,,,47,0,449.7018,450.7344,m,1,1.0028,,[],[],[],[],[],[],[],450.7345,452.7343,452.7345,452.7346,[],[],[],[],[],[],[],,452.7347,452.7348,-0.102790799,-0.416497396,0,0,0,,0,46,46,143,1,4,word,REMOVAL,print,removal_p.png,,,,,,
,,,,31704,001,2025-10-15_22h12.01.902,HW_LDT_1,2024.2.4,MacIntel,30.03003003,,,,,,,,,,,,,,,,,,,,452.7362,452.9344,452.9344,453.4343,,,,,,,,,,,,,,0.803,1,,,,,,,,,,,,,,z,,,,,,,,,,,,,,,,48,0,453.4349,454.2679,z,1,0.803,,[],[],[],[],[],[],[],454.268,456.2677,456.2678,456.268,[],[],[],[],[],[],[],,456.2681,456.2682,-0.102790799,-0.416497396,0,0,0,,0,47,47,27,1,4,RL,menowy,print,menowy_p.png,,,,,,
,,,,31704,001,2025-10-15_22h12.01.902,HW_LDT_1,2024.2.4,MacIntel,30.03003003,,,,,,,,,,,,,,,,,,,,456.2696,456.4677,456.4677,456.9678,,,,,,,,,,,,,,1.3025,0,,,,,,,,,,,,,,m,,,,,,,,,,,,,,,,49,0,456.9684,458.301,z,0,1.3025,,[],[],[],[],[],[],[],458.3011,460.3011,460.3012,460.3014,[],[],[],[],[],[],[],,460.3015,460.3015,-0.102790799,-0.416497396,0,0,0,,0,48,48,92,1,4,word,CATEGORY,cursive,category_c.png,,,,,,
,,,,31704,001,2025-10-15_22h12.01.902,HW_LDT_1,2024.2.4,MacIntel,30.03003003,,,,,,,,,,,,,,,,,,,,460.303,460.5011,460.5012,461.0011,,,,,,,,,,,,,,0.9244,1,,,,,,,,,,,,,,z,,,,,,,,,,,,,,,,50,0,461.0016,461.9344,z,1,0.9244,,[],[],[],[],[],[],[],461.9344,463.9344,463.9344,463.9346,[],[],[],[],[],[],[],,463.9347,463.9348,-0.102790799,-0.416497396,0,0,0,,0,49,49,43,1,4,RL,rovastic,print,rovastic_p.png,,,,,,
,,,,31704,001,2025-10-15_22h12.01.902,HW_LDT_1,2024.2.4,MacIntel,30.03003003,,,,,,,,,,,,,,,,,,,,463.9362,464.1344,464.1345,464.6343,,,,,,,,,,,,,,2.1195,0,,,,,,,,,,,,,,m,,,,,,,,,,,,,,,,51,1,464.6349,466.7678,z,0,2.1195,,[],[],[],[],[],[],[],466.7678,468.7678,468.7678,469.5345,[],[],[],[],[],[],[],z,469.5346,469.5347,-0.102790799,-0.416497396,0,0,0,,0,50,50,101,1,4,word,DELICATE,cursive,delicate_c.png,0.7444,,,,,
,,,,31704,001,2025-10-15_22h12.01.902,HW_LDT_1,2024.2.4,MacIntel,30.03003003,,,,,,,,,,,,,,,,,,,,469.5361,469.7344,469.7345,470.2344,,,,,,,,,,,,,,1.1529,1,,,,,,,,,,,,,,z,,,,,,,,,,,,,,,,52,0,470.235,471.401,z,1,1.1529,,[],[],[],[],[],[],[],471.4011,473.401,473.4011,473.4012,[],[],[],[],[],[],[],,473.4012,473.4014,-0.102790799,-0.416497396,0,0,0,,0,51,51,22,1,4,RL,linedal,cursive,linedal_c.png,,,,,,
,,,,31704,001,2025-10-15_22h12.01.902,HW_LDT_1,2024.2.4,MacIntel,30.03003003,,,,,,,,,,,,,,,,,,,,473.4028,473.6011,473.6012,474.1011,,,,,,,,,,,,,,1.5902,1,,,,,,,,,,,,,,z,,,,,,,,,,,,,,,,53,0,474.1018,475.701,z,1,1.5902,,[],[],[],[],[],[],[],475.7012,477.7011,477.7011,477.7014,[],[],[],[],[],[],[],,477.7014,477.7015,-0.102790799,-0.416497396,0,0,0,,0,52,52,68,1,4,TL,prosopal,print,prosopal_p.png,,,,,,
,,,,31704,001,2025-10-15_22h12.01.902,HW_LDT_1,2024.2.4,MacIntel,30.03003003,,,,,,,,,,,,,,,,,,,,477.7029,477.901,477.901,478.4012,,,,,,,,,,,,,,1.104,1,,,,,,,,,,,,,,m,,,,,,,,,,,,,,,,54,0,478.4018,479.5344,m,1,1.104,,[],[],[],[],[],[],[],479.5345,481.5344,481.5345,481.5347,[],[],[],[],[],[],[],,481.5347,481.5349,-0.102790799,-0.416497396,0,0,0,,0,53,53,86,1,4,word,BESIDE,print,beside_p.png,,,,,,
,,,,31704,001,2025-10-15_22h12.01.902,HW_LDT_1,2024.2.4,MacIntel,30.03003003,,,,,,,,,,,,,,,,,,,,481.5363,481.7345,481.7346,482.2344,,,,,,,,,,,,,,1.083,1,,,,,,,,,,,,,,m,,,,,,,,,,,,,,,,55,1,482.235,483.3346,m,1,1.083,,[],[],[],[],[],[],[],483.3347,485.3344,485.3345,487.1679,[],[],[],[],[],[],[],z,487.168,487.1681,-0.102790799,-0.416497396,0,0,0,,0,54,54,137,1,4,word,RAPIDLY,cursive,rapidly_c.png,1.8034,,,,,
,,,,31704,001,2025-10-15_22h12.01.902,HW_LDT_1,2024.2.4,MacIntel,30.03003003,,,,,,,,,,,,,,,,,,,,487.1695,487.3678,487.3679,487.8678,,,,,,,,,,,,,,1.8641,1,,,,,,,,,,,,,,m,,,,,,,,,,,,,,,,56,0,487.8683,489.7343,m,1,1.8641,,[],[],[],[],[],[],[],489.7345,491.7345,491.7346,491.7347,[],[],[],[],[],[],[],,491.7348,491.7349,-0.102790799,-0.416497396,0,0,0,,0,55,55,116,1,4,word,MARGINAL,cursive,marginal_c.png,,,,,,
,,,,31704,001,2025-10-15_22h12.01.902,HW_LDT_1,2024.2.4,MacIntel,30.03003003,,,,,,,,,,,,,,,,,,,,491.7363,491.9344,491.9345,492.4345,,,,,,,,,,,,,,0.9365,1,,,,,,,,,,,,,,m,,,,,,,,,,,,,,,,57,0,492.4351,493.4012,m,1,0.9365,,[],[],[],[],[],[],[],493.4013,495.4005,495.4005,495.4007,[],[],[],[],[],[],[],,495.4007,495.4008,-0.102790799,-0.416497396,0,0,0,,0,56,56,103,1,4,word,DISPUTE,print,dispute_p.png,,,,,,
,,,,31704,001,2025-10-15_22h12.01.902,HW_LDT_1,2024.2.4,MacIntel,30.03003003,,,,,,,,,,,,,,,,,,,,495.4019,495.601,495.6011,496.101,,,,,,,,,,,,,,0.8889,1,,,,,,,,,,,,,,m,,,,,,,,,,,,,,,,58,0,496.1017,497.0013,m,1,0.8889,,[],[],[],[],[],[],[],497.0014,499.0012,499.0013,499.0014,[],[],[],[],[],[],[],,499.0015,499.0015,-0.102790799,-0.416497396,0,0,0,,0,57,57,135,1,4,word,QUALITY,print,quality_p.png,,,,,,
,,,,31704,001,2025-10-15_22h12.01.902,HW_LDT_1,2024.2.4,MacIntel,30.03003003,,,,,,,,,,,,,,,,,,,,499.003,499.2012,499.2012,499.7011,,,,,,,,,,,,,,1.255,1,,,,,,,,,,,,,,z,,,,,,,,,,,,,,,,59,0,499.7018,500.968,z,1,1.255,,[],[],[],[],[],[],[],500.9681,502.9678,502.9679,502.9681,[],[],[],[],[],[],[],,502.9682,502.9683,-0.102790799,-0.416497396,0,0,0,,0,58,58,74,1,4,TL,rerite,print,rerite_p.png,,,,,,
,,,,31704,001,2025-10-15_22h12.01.902,HW_LDT_1,2024.2.4,MacIntel,30.03003003,,,,,,,,,,,,,,,,,,,,502.9698,503.1678,503.1679,503.6679,,,,,,,,,,,,,,0.8029,1,,,,,,,,,,,,,,z,,,,,,,,,,,,,,,,60,0,503.6685,504.5013,z,1,0.8029,,[],[],[],[],[],[],[],504.5013,506.5012,506.5013,506.5015,[],[],[],[],[],[],[],,506.5015,506.5016,-0.102790799,-0.416497396,0,0,0,,0,59,59,20,1,4,RL,gralekul,print,gralekul_p.png,,,,,,
,,,,31704,001,2025-10-15_22h12.01.902,HW_LDT_1,2024.2.4,MacIntel,30.03003003,,,,,,,,,,,,,,,,,,,,506.503,506.7012,506.7012,507.2012,,,,,,,,,,,,,,0.7129,1,,,,,,,,,,,,,,z,,,,,,,,,,,,,,,,61,1,507.2018,507.9347,z,1,0.7129,,[],[],[],[],[],[],[],507.9348,509.9345,509.9345,511.3345,[],[],[],[],[],[],[],m,511.3345,511.3347,-0.102790799,-0.416497396,0,0,0,,0,60,60,31,1,4,RL,orimipal,print,orimipal_p.png,1.3964,,,,,
,,,,31704,001,2025-10-15_22h12.01.902,HW_LDT_1,2024.2.4,MacIntel,30.03003003,,,,,,,,,,,,,,,,,,,,511.3358,511.5346,511.5347,512.0344,,,,,,,,,,,,,,1.257,1,,,,,,,,,,,,,,m,,,,,,,,,,,,,,,,62,0,512.0349,513.3012,m,1,1.257,,[],[],[],[],[],[],[],513.3013,515.3011,515.3012,515.3014,[],[],[],[],[],[],[],,515.3014,515.3016,-0.102790799,-0.416497396,0,0,0,,0,61,61,155,1,4,word,STRATEGY,print,strategy_p.png,,,,,,
,,,,31704,001,2025-10-15_22h12.01.902,HW_LDT_1,2024.2.4,MacIntel,30.03003003,,,,,,,,,,,,,,,,,,,,515.303,515.5012,515.5012,516.0006,,,,,,,,,,,,,,1.0742,1,,,,,,,,,,,,,,m,,,,,,,,,,,,,,,,63,0,516.0011,517.1013,m,1,1.0742,,[],[],[],[],[],[],[],517.1014,519.1006,519.1006,519.1008,[],[],[],[],[],[],[],,519.1009,519.101,-0.102790799,-0.416497396,0,0,0,,0,62,62,152,1,4,word,SPECIMEN,cursive,specimen_c.png,,,,,,
,,,,31704,001,2025-10-15_22h12.01.902,HW_LDT_1,2024.2.4,MacIntel,30.03003003,,,,,,,,,,,,,,,,,,,,519.1026,519.3011,519.3012,519.8013,,,,,,,,,,,,,,0.9469,1,,,,,,,,,,,,,,z,,,,,,,,,,,,,,,,64,0,519.8019,520.7679,z,1,0.9469,,[],[],[],[],[],[],[],520.768,522.7678,522.7679,522.7681,[],[],[],[],[],[],[],,522.7681,522.7683,-0.102790799,-0.416497396,0,0,0,,0,63,63,67,1,4,TL,polupar,print,polupar_p.png,,,,,,
,,,,31704,001,2025-10-15_22h12.01.902,HW_LDT_1,2024.2.4,MacIntel,30.03003003,,,,,,,,,,,,,,,,,,,,522.7696,522.9678,522.9679,523.4678,,,,,,,,,,,,,,1.1709,1,,,,,,,,,,,,,,z,,,,,,,,,,,,,,,,65,1,523.4683,524.6679,z,1,1.1709,,[],[],[],[],[],[],[],524.668,526.6678,526.6679,527.5678,[],[],[],[],[],[],[],z,527.568,527.5681,-0.102790799,-0.416497396,0,0,0,,0,64,64,12,1,4,RL,conbicer,cursive,conbicer_c.png,0.8705,,,,,
,,,,31704,001,2025-10-15_22h12.01.902,HW_LDT_1,2024.2.4,MacIntel,30.03003003,,,,,,,,,,,,,,,,,,,,527.5696,527.7679,527.7679,528.2679,,,,,,,,,,,,,,0.7364,1,,,,,,,,,,,,,,m,,,,,,,,,,,,,,,,66,0,528.2685,529.0346,m,1,0.7364,,[],[],[],[],[],[],[],529.0348,531.0346,531.0346,531.0348,[],[],[],[],[],[],[],,531.0349,531.0349,-0.102790799,-0.416497396,0,0,0,,0,65,65,110,1,4,word,HERITAGE,print,heritage_p.png,,,,,,
,,,,31704,001,2025-10-15_22h12.01.902,HW_LDT_1,2024.2.4,MacIntel,30.03003003,,,,,,,,,,,,,,,,,,,,531.0364,531.2345,531.2346,531.7344,,,,,,,,,,,,,,1.8176,1,,,,,,,,,,,,,,z,,,,,,,,,,,,,,,,67,0,531.7352,533.568,z,1,1.8176,,[],[],[],[],[],[],[],533.5681,535.5679,535.568,535.5682,[],[],[],[],[],[],[],,535.5682,535.5683,-0.102790799,-0.416497396,0,0,0,,0,66,66,1,1,4,RL,afaneur,cursive,afaneur_c.png,,,,,,
,,,,31704,001,2025-10-15_22h12.01.902,HW_LDT_1,2024.2.4,MacIntel,30.03003003,,,,,,,,,,,,,,,,,,,,535.5698,535.7678,535.7679,536.2679,,,,,,,,,,,,,,1.169,1,,,,,,,,,,,,,,z,,,,,,,,,,,,,,,,68,0,536.2685,537.468,z,1,1.169,,[],[],[],[],[],[],[],537.468,539.468,539.468,539.4682,[],[],[],[],[],[],[],,539.4684,539.4685,-0.102790799,-0.416497396,0,0,0,,0,67,67,11,1,4,RL,clisimal,print,clisimal_p.png,,,,,,
,,,,31704,001,2025-10-15_22h12.01.902,HW_LDT_1,2024.2.4,MacIntel,30.03003003,,,,,,,,,,,,,,,,,,,,539.4699,539.6679,539.668,540.1678,,,,,,,,,,,,,,0.933,1,,,,,,,,,,,,,,z,,,,,,,,,,,,,,,,69,0,540.1685,541.1024,z,1,0.933,,[],[],[],[],[],[],[],541.1025,543.1013,543.1013,543.1015,[],[],[],[],[],[],[],,543.1016,543.1017,-0.102790799,-0.416497396,0,0,0,,0,68,68,8,1,4,RL,casagity,cursive,casagity_c.png,,,,,,
,,,,31704,001,2025-10-15_22h12.01.902,HW_LDT_1,2024.2.4,MacIntel,30.03003003,,,,,,,,,,,,,,,,,,,,543.1032,543.3003,543.3003,543.8012,,,,,,,,,,,,,,0.7991,1,,,,,,,,,,,,,,m,,,,,,,,,,,,,,,,70,0,543.8018,544.6019,m,1,0.7991,,[],[],[],[],[],[],[],544.6019,546.6013,546.6013,546.6015,[],[],[],[],[],[],[],,546.6015,546.6017,-0.102790799,-0.416497396,0,0,0,,0,69,69,147,1,4,word,ROMANTIC,print,romantic_p.png,,,,,,
,,,,31704,001,2025-10-15_22h12.01.902,HW_LDT_1,2024.2.4,MacIntel,30.03003003,,,,,,,,,,,,,,,,,,,,546.6031,546.8011,546.8011,547.3012,,,,,,,,,,,,,,3.9358,0,,,,,,,,,,,,,,m,,,,,,,,,,,,,,,,71,0,547.3018,551.2681,z,0,3.9358,,[],[],[],[],[],[],[],551.2681,553.2679,553.268,553.2682,[],[],[],[],[],[],[],,553.2682,553.2683,-0.102790799,-0.416497396,0,0,0,,0,70,70,133,1,4,word,PROVIDE,cursive,provide_c.png,,,,,,
,,,,31704,001,2025-10-15_22h12.01.902,HW_LDT_1,2024.2.4,MacIntel,30.03003003,,,,,,,,,,,,,,,,,,,,553.2697,553.4678,553.4679,553.9678,,,,,,,,,,,,,,2.879,1,,,,,,,,,,,,,,z,,,,,,,,,,,,,,,,72,0,553.9684,556.868,z,1,2.879,,[],[],[],[],[],[],[],556.8681,558.8678,558.8679,558.8682,[],[],[],[],[],[],[],,558.8682,558.8683,-0.102790799,-0.416497396,0,0,0,,0,71,71,32,1,4,RL,patisic,cursive,patisic_c.png,,,,,,
,,,,31704,001,2025-10-15_22h12.01.902,HW_LDT_1,2024.2.4,MacIntel,30.03003003,,,,,,,,,,,,,,,,,,,,558.8696,559.0678,559.0679,559.5679,,,,,,,,,,,,,,0.97,1,,,,,,,,,,,,,,z,,,,,,,,,,,,,,,,73,0,559.5686,560.5681,z,1,0.97,,[],[],[],[],[],[],[],560.5681,562.5678,562.5679,562.5681,[],[],[],[],[],[],[],,562.5681,562.5681,-0.102790799,-0.416497396,0,0,0,,0,72,72,5,1,4,RL,bebine,print,bebine_p.png,,,,,,
,,,,31704,001,2025-10-15_22h12.01.902,HW_LDT_1,2024.2.4,MacIntel,30.03003003,,,,,,,,,,,,,,,,,,,,562.5696,562.7679,562.768,563.2669,,,,,,,,,,,,,,1.9805,1,,,,,,,,,,,,,,z,,,,,,,,,,,,,,,,74,0,563.2673,565.268,z,1,1.9805,,[],[],[],[],[],[],[],565.2681,567.268,567.2681,567.2682,[],[],[],[],[],[],[],,567.2683,567.2684,-0.102790799,-0.416497396,0,0,0,,0,73,73,53,1,4,TL,cemerony,print,cemerony_p.png,,,,,,
,,,,31704,001,2025-10-15_22h12.01.902,HW_LDT_1,2024.2.4,MacIntel,30.03003003,,,,,,,,,,,,,,,,,,,,567.2699,567.4679,567.4679,567.9679,,,,,,,,,,,,,,1.7979,1,,,,,,,,,,,,,,z,,,,,,,,,,,,,,,,75,0,567.9685,569.7678,z,1,1.7979,,[],[],[],[],[],[],[],569.7678,571.7678,571.7679,571.7681,[],[],[],[],[],[],[],,571.7681,571.7683,-0.102790799,-0.416497396,0,0,0,,0,74,74,69,1,4,TL,quafily,print,quafily_p.png,,,,,,
,,,,31704,001,2025-10-15_22h12.01.902,HW_LDT_1,2024.2.4,MacIntel,30.03003003,,,,,,,,,,,,,,,,,,,,571.7698,571.9679,571.968,572.468,,,,,,,,,,,,,,0.8878,1,,,,,,,,,,,,,,m,,,,,,,,,,,,,,,,76,0,572.4687,573.3681,m,1,0.8878,,[],[],[],[],[],[],[],573.3683,575.3678,575.368,575.3681,[],[],[],[],[],[],[],,575.3682,575.3683,-0.102790799,-0.416497396,0,0,0,,0,75,75,126,1,4,word,OPTIMAL,print,optimal_p.png,,,,,,
,,,,31704,001,2025-10-15_22h12.01.902,HW_LDT_1,2024.2.4,MacIntel,30.03003003,,,,,,,,,,,,,,,,,,,,575.3696,575.5679,575.568,576.0679,,,,,,,,,,,,,,1.1692,1,,,,,,,,,,,,,,m,,,,,,,,,,,,,,,,77,0,576.0686,577.2679,m,1,1.1692,,[],[],[],[],[],[],[],577.2681,579.2679,579.268,579.2682,[],[],[],[],[],[],[],,579.2683,579.2685,-0.102790799,-0.416497396,0,0,0,,0,76,76,158,1,4,word,VELOCITY,cursive,velocity_c.png,,,,,,
,,,,31704,001,2025-10-15_22h12.01.902,HW_LDT_1,2024.2.4,MacIntel,30.03003003,,,,,,,,,,,,,,,,,,,,579.2698,579.468,579.4681,579.968,,,,,,,,,,,,,,0.7205,1,,,,,,,,,,,,,,m,,,,,,,,,,,,,,,,78,0,579.9685,580.7014,m,1,0.7205,,[],[],[],[],[],[],[],580.7014,582.7012,582.7013,582.7014,[],[],[],[],[],[],[],,582.7015,582.7016,-0.102790799,-0.416497396,0,0,0,,0,77,77,109,1,4,word,GRATEFUL,print,grateful_p.png,,,,,,
,,,,31704,001,2025-10-15_22h12.01.902,HW_LDT_1,2024.2.4,MacIntel,30.03003003,,,,,,,,,,,,,,,,,,,,582.703,582.9012,582.9013,583.401,,,,,,,,,,,,,,0.992,1,,,,,,,,,,,,,,z,,,,,,,,,,,,,,,,79,1,583.4013,584.4013,z,1,0.992,,[],[],[],[],[],[],[],584.4014,586.4013,586.4013,589.968,[],[],[],[],[],[],[],z,589.9681,589.9683,-0.102790799,-0.416497396,0,0,0,,0,78,78,63,1,4,TL,miskate,print,miskate_p.png,3.5501,,,,,
,,,,31704,001,2025-10-15_22h12.01.902,HW_LDT_1,2024.2.4,MacIntel,30.03003003,,,,,,,,,,,,,,,,,,,,589.9698,590.1679,590.1679,590.6679,,,,,,,,,,,,,,0.8779,1,,,,,,,,,,,,,,z,,,,,,,,,,,,,,,,80,0,590.6686,591.5681,z,1,0.8779,,[],[],[],[],[],[],[],591.5681,593.568,593.568,593.5682,[],[],[],[],[],[],[],,593.5684,652.2683,-0.102790799,-0.416497396,0,0,0,space,0,79,79,28,1,4,RL,mifikary,print,mifikary_p.png,,,58.6531,,,
,,,,31704,001,2025-10-15_22h12.01.902,HW_LDT_1,2024.2.4,MacIntel,30.03003003,,,,,,,,,,,,,,,,,,,,652.2698,652.468,652.4681,652.968,,,,,,,,,,,,,,1.4513,1,,,,,,,,,,,,,,z,,,,,,,,,,,,,,,,81,0,652.9686,654.4349,z,1,1.4513,,[],[],[],[],[],[],[],654.4352,656.4346,656.4347,656.4349,[],[],[],[],[],[],[],,656.4349,656.435,-0.102790799,-0.416497396,0,0,0,,0,80,80,3,1,4,RL,bewoted,print,bewoted_p.png,,,,,,
,,,,31704,001,2025-10-15_22h12.01.902,HW_LDT_1,2024.2.4,MacIntel,30.03003003,,,,,,,,,,,,,,,,,,,,656.4364,656.6347,656.6347,657.1348,,,,,,,,,,,,,,3.3497,0,,,,,,,,,,,,,,m,,,,,,,,,,,,,,,,82,0,657.1355,660.5014,z,0,3.3497,,[],[],[],[],[],[],[],660.5016,662.5013,662.5014,662.5016,[],[],[],[],[],[],[],,662.5016,662.5017,-0.102790799,-0.416497396,0,0,0,,0,81,81,124,1,4,word,NUMERICAL,cursive,numerical_c.png,,,,,,
,,,,31704,001,2025-10-15_22h12.01.902,HW_LDT_1,2024.2.4,MacIntel,30.03003003,,,,,,,,,,,,,,,,,,,,662.5033,662.7013,662.7014,663.2013,,,,,,,,,,,,,,0.9897,1,,,,,,,,,,,,,,z,,,,,,,,,,,,,,,,83,0,663.2019,664.2015,z,1,0.9897,,[],[],[],[],[],[],[],664.2015,666.2015,666.2015,666.2017,[],[],[],[],[],[],[],,666.2018,666.2019,-0.102790799,-0.416497396,0,0,0,,0,82,82,14,1,4,RL,delahe,cursive,delahe_c.png,,,,,,
,,,,31704,001,2025-10-15_22h12.01.902,HW_LDT_1,2024.2.4,MacIntel,30.03003003,,,,,,,,,,,,,,,,,,,,666.2033,666.4013,666.4015,666.9015,,,,,,,,,,,,,,1.6644,1,,,,,,,,,,,,,,z,,,,,,,,,,,,,,,,84,1,666.9021,668.5679,z,1,1.6644,,[],[],[],[],[],[],[],668.568,670.568,670.568,672.0347,[],[],[],[],[],[],[],z,672.0348,672.0348,-0.102790799,-0.416497396,0,0,0,,0,83,83,13,1,4,RL,crisival,cursive,crisival_c.png,1.4551,,,,,
,,,,31704,001,2025-10-15_22h12.01.902,HW_LDT_1,2024.2.4,MacIntel,30.03003003,,,,,,,,,,,,,,,,,,,,672.036,672.2345,672.2346,672.7347,,,,,,,,,,,,,,3.9284,1,,,,,,,,,,,,,,z,,,,,,,,,,,,,,,,85,0,672.7353,676.6675,z,1,3.9284,,[],[],[],[],[],[],[],676.6676,678.668,678.6681,678.6683,[],[],[],[],[],[],[],,678.6684,678.6685,-0.102790799,-0.416497396,0,0,0,,0,84,84,24,1,4,RL,marmipal,cursive,marmipal_c.png,,,,,,
,,,,31704,001,2025-10-15_22h12.01.902,HW_LDT_1,2024.2.4,MacIntel,30.03003003,,,,,,,,,,,,,,,,,,,,678.6698,678.8681,678.8681,679.368,,,,,,,,,,,,,,2.0638,1,,,,,,,,,,,,,,m,,,,,,,,,,,,,,,,86,0,679.3685,681.4347,m,1,2.0638,,[],[],[],[],[],[],[],681.4348,683.4347,683.4347,683.4349,[],[],[],[],[],[],[],,683.435,683.4352,-0.102790799,-0.416497396,0,0,0,,0,85,85,156,1,4,word,TRIBUTE,print,tribute_p.png,,,,,,
,,,,31704,001,2025-10-15_22h12.01.902,HW_LDT_1,2024.2.4,MacIntel,30.03003003,,,,,,,,,,,,,,,,,,,,683.4366,683.6348,683.6348,684.1349,,,,,,,,,,,,,,1.191,1,,,,,,,,,,,,,,m,,,,,,,,,,,,,,,,87,0,684.1354,685.3349,m,1,1.191,,[],[],[],[],[],[],[],685.3349,687.3346,687.3347,687.3349,[],[],[],[],[],[],[],,687.3349,687.335,-0.102790799,-0.416497396,0,0,0,,0,86,86,134,1,4,word,QUALIFY,print,qualify_p.png,,,,,,
,,,,31704,001,2025-10-15_22h12.01.902,HW_LDT_1,2024.2.4,MacIntel,30.03003003,,,,,,,,,,,,,,,,,,,,687.3365,687.5346,687.5347,688.0348,,,,,,,,,,,,,,1.8762,1,,,,,,,,,,,,,,z,,,,,,,,,,,,,,,,88,0,688.0354,689.9348,z,1,1.8762,,[],[],[],[],[],[],[],689.935,691.9349,691.9349,691.9351,[],[],[],[],[],[],[],,691.9351,691.9352,-0.102790799,-0.416497396,0,0,0,,0,87,87,17,1,4,RL,denficy,cursive,denficy_c.png,,,,,,
,,,,31704,001,2025-10-15_22h12.01.902,HW_LDT_1,2024.2.4,MacIntel,30.03003003,,,,,,,,,,,,,,,,,,,,691.9366,692.1345,692.1346,692.6347,,,,,,,,,,,,,,1.4647,1,,,,,,,,,,,,,,z,,,,,,,,,,,,,,,,89,0,692.6353,694.1014,z,1,1.4647,,[],[],[],[],[],[],[],694.1015,696.1003,696.1003,696.1005,[],[],[],[],[],[],[],,696.1006,696.1007,-0.102790799,-0.416497396,0,0,0,,0,88,88,10,1,4,RL,carminal,cursive,carminal_c.png,,,,,,
,,,,31704,001,2025-10-15_22h12.01.902,HW_LDT_1,2024.2.4,MacIntel,30.03003003,,,,,,,,,,,,,,,,,,,,696.1018,696.3013,696.3013,696.8013,,,,,,,,,,,,,,0.729,1,,,,,,,,,,,,,,m,,,,,,,,,,,,,,,,90,0,696.802,697.5345,m,1,0.729,,[],[],[],[],[],[],[],697.5345,699.5347,699.5347,699.5348,[],[],[],[],[],[],[],,699.5349,699.5349,-0.102790799,-0.416497396,0,0,0,,0,89,89,145,1,4,word,RESUME,print,resume_p.png,,,,,,
,,,,31704,001,2025-10-15_22h12.01.902,HW_LDT_1,2024.2.4,MacIntel,30.03003003,,,,,,,,,,,,,,,,,,,,699.5362,699.7347,699.7348,700.2347,,,,,,,,,,,,,,1.4696,1,,,,,,,,,,,,,,m,,,,,,,,,,,,,,,,91,0,700.2352,701.7347,m,1,1.4696,0.0274,[],[],[],[],[],[],[],701.7349,703.7347,703.7348,703.735,[],[],[],[],[],[],[],,703.735,703.7352,-0.102790799,-0.416497396,0,0,0,,0,90,90,100,1,4,word,DECADE,cursive,decade_c.png,,,,,,
,,,,31704,001,2025-10-15_22h12.01.902,HW_LDT_1,2024.2.4,MacIntel,30.03003003,,,,,,,,,,,,,,,,,,,,703.7365,703.9347,703.9348,704.4347,,,,,,,,,,,,,,1.1341,1,,,,,,,,,,,,,,z,,,,,,,,,,,,,,,,92,0,704.4352,705.601,z,1,1.1341,,[],[],[],[],[],[],[],705.601,707.6014,707.6015,707.6018,[],[],[],[],[],[],[],,707.6018,707.6019,-0.102790799,-0.416497396,0,0,0,,0,91,91,50,1,4,RL,vecelan,cursive,vecelan_c.png,,,,,,
,,,,31704,001,2025-10-15_22h12.01.902,HW_LDT_1,2024.2.4,MacIntel,30.03003003,,,,,,,,,,,,,,,,,,,,707.6033,707.8015,707.8016,708.3015,,,,,,,,,,,,,,1.2027,1,,,,,,,,,,,,,,m,,,,,,,,,,,,,,,,93,0,708.302,709.5347,m,1,1.2027,,[],[],[],[],[],[],[],709.5348,711.5348,711.5348,711.535,[],[],[],[],[],[],[],,711.5351,711.5352,-0.102790799,-0.416497396,0,0,0,,0,92,92,141,1,4,word,RELIGION,print,religion_p.png,,,,,,
,,,,31704,001,2025-10-15_22h12.01.902,HW_LDT_1,2024.2.4,MacIntel,30.03003003,,,,,,,,,,,,,,,,,,,,711.5366,711.7349,711.7349,712.2348,,,,,,,,,,,,,,1.5139,1,,,,,,,,,,,,,,z,,,,,,,,,,,,,,,,94,0,712.2355,713.7683,z,1,1.5139,,[],[],[],[],[],[],[],713.7685,715.7682,715.7683,715.7684,[],[],[],[],[],[],[],,715.7685,715.7686,-0.102790799,-0.416497396,0,0,0,,0,93,93,2,1,4,RL,asiral,cursive,asiral_c.png,,,,,,
,,,,31704,001,2025-10-15_22h12.01.902,HW_LDT_1,2024.2.4,MacIntel,30.03003003,,,,,,,,,,,,,,,,,,,,715.77,715.9679,715.968,716.4682,,,,,,,,,,,,,,1.8446,1,,,,,,,,,,,,,,z,,,,,,,,,,,,,,,,95,1,716.4689,718.3348,z,1,1.8446,,[],[],[],[],[],[],[],718.3348,720.3348,720.3349,722.1351,[],[],[],[],[],[],[],z,722.1352,722.1353,-0.102790799,-0.416497396,0,0,0,,0,94,94,33,1,4,RL,pamest,cursive,pamest_c.png,1.7786,,,,,
,,,,31704,001,2025-10-15_22h12.01.902,HW_LDT_1,2024.2.4,MacIntel,30.03003003,,,,,,,,,,,,,,,,,,,,722.137,722.3349,722.335,722.8348,,,,,,,,,,,,,,1.0375,1,,,,,,,,,,,,,,z,,,,,,,,,,,,,,,,96,0,722.8354,723.9016,z,1,1.0375,,[],[],[],[],[],[],[],723.9018,725.9017,725.9017,725.9019,[],[],[],[],[],[],[],,725.9019,725.9021,-0.102790799,-0.416497396,0,0,0,,0,95,95,47,1,4,RL,stopave,print,stopave_p.png,,,,,,
,,,,31704,001,2025-10-15_22h12.01.902,HW_LDT_1,2024.2.4,MacIntel,30.03003003,,,,,,,,,,,,,,,,,,,,725.9035,726.1016,726.1016,726.6016,,,,,,,,,,,,,,0.9476,1,,,,,,,,,,,,,,z,,,,,,,,,,,,,,,,97,0,726.6023,727.5674,z,1,0.9476,,[],[],[],[],[],[],[],727.5674,729.5683,729.5683,729.5686,[],[],[],[],[],[],[],,729.5686,729.5687,-0.102790799,-0.416497396,0,0,0,,0,96,96,21,1,4,RL,insibate,print,insibate_p.png,,,,,,
,,,,31704,001,2025-10-15_22h12.01.902,HW_LDT_1,2024.2.4,MacIntel,30.03003003,,,,,,,,,,,,,,,,,,,,729.5701,729.7682,729.7682,730.2682,,,,,,,,,,,,,,1.0468,1,,,,,,,,,,,,,,m,,,,,,,,,,,,,,,,98,0,730.2689,731.335,m,1,1.0468,,[],[],[],[],[],[],[],731.3351,733.3348,733.3349,733.3351,[],[],[],[],[],[],[],,733.3352,733.3353,-0.102790799,-0.416497396,0,0,0,,0,97,97,146,1,4,word,RETIRE,print,retire_p.png,,,,,,
,,,,31704,001,2025-10-15_22h12.01.902,HW_LDT_1,2024.2.4,MacIntel,30.03003003,,,,,,,,,,,,,,,,,,,,733.3368,733.5348,733.5349,734.0348,,,,,,,,,,,,,,1.1181,1,,,,,,,,,,,,,,m,,,,,,,,,,,,,,,,99,0,734.0354,735.1682,m,1,1.1181,,[],[],[],[],[],[],[],735.1682,737.1682,737.1682,737.1685,[],[],[],[],[],[],[],,737.1686,737.1687,-0.102790799,-0.416497396,0,0,0,,0,98,98,93,1,4,word,CEREMONY,print,ceremony_p.png,,,,,,
,,,,31704,001,2025-10-15_22h12.01.902,HW_LDT_1,2024.2.4,MacIntel,30.03003003,,,,,,,,,,,,,,,,,,,,737.1701,737.3671,737.3671,737.8676,,,,,,,,,,,,,,1.1034,1,,,,,,,,,,,,,,z,,,,,,,,,,,,,,,,100,0,737.8681,739.0016,z,1,1.1034,,[],[],[],[],[],[],[],739.0016,741.0014,741.0014,741.0017,[],[],[],[],[],[],[],,741.0017,741.0018,-0.102790799,-0.416497396,0,0,0,,0,99,99,42,1,4,RL,revune,print,revune_p.png,,,,,,
,,,,31704,001,2025-10-15_22h12.01.902,HW_LDT_1,2024.2.4,MacIntel,30.03003003,,,,,,,,,,,,,,,,,,,,741.0034,741.2016,741.2017,741.7016,,,,,,,,,,,,,,1.303,1,,,,,,,,,,,,,,z,,,,,,,,,,,,,,,,101,0,741.7022,743.0348,z,1,1.303,,[],[],[],[],[],[],[],743.035,745.0348,745.0349,745.0351,[],[],[],[],[],[],[],,745.0351,745.0354,-0.102790799,-0.416497396,0,0,0,,0,100,100,66,1,4,TL,opmital,print,opmital_p.png,,,,,,
,,,,31704,001,2025-10-15_22h12.01.902,HW_LDT_1,2024.2.4,MacIntel,30.03003003,,,,,,,,,,,,,,,,,,,,745.0369,745.2349,745.235,745.7349,,,,,,,,,,,,,,1.2498,1,,,,,,,,,,,,,,z,,,,,,,,,,,,,,,,102,0,745.7355,747.0015,z,1,1.2498,,[],[],[],[],[],[],[],747.0017,749.0016,749.0016,749.0018,[],[],[],[],[],[],[],,749.0018,749.0019,-0.102790799,-0.416497396,0,0,0,,0,101,101,25,1,4,RL,macise,print,macise_p.png,,,,,,
,,,,31704,001,2025-10-15_22h12.01.902,HW_LDT_1,2024.2.4,MacIntel,30.03003003,,,,,,,,,,,,,,,,,,,,749.0029,749.2015,749.2016,749.7014,,,,,,,,,,,,,,0.9205,1,,,,,,,,,,,,,,m,,,,,,,,,,,,,,,,103,0,749.7019,750.635,m,1,0.9205,,[],[],[],[],[],[],[],750.6351,752.6348,752.6349,752.6351,[],[],[],[],[],[],[],,752.6351,752.6353,-0.102790799,-0.416497396,0,0,0,,0,102,102,84,1,4,word,BELOVED,print,beloved_p.png,,,,,,
,,,,31704,001,2025-10-15_22h12.01.902,HW_LDT_1,2024.2.4,MacIntel,30.03003003,,,,,,,,,,,,,,,,,,,,752.6367,752.835,752.835,753.3348,,,,,,,,,,,,,,0.869,1,,,,,,,,,,,,,,m,,,,,,,,,,,,,,,,104,0,753.3354,754.2343,m,1,0.869,,[],[],[],[],[],[],[],754.2345,756.235,756.235,756.2352,[],[],[],[],[],[],[],,756.2353,756.2354,-0.102790799,-0.416497396,0,0,0,,0,103,103,119,1,4,word,MEMORY,print,memory_p.png,,,,,,
,,,,31704,001,2025-10-15_22h12.01.902,HW_LDT_1,2024.2.4,MacIntel,30.03003003,,,,,,,,,,,,,,,,,,,,756.237,756.4349,756.4349,756.9348,,,,,,,,,,,,,,1.413,1,,,,,,,,,,,,,,z,,,,,,,,,,,,,,,,105,1,756.9353,758.3683,z,1,1.413,,[],[],[],[],[],[],[],758.3684,760.3682,760.3683,761.9352,[],[],[],[],[],[],[],z,761.9353,761.9355,-0.102790799,-0.416497396,0,0,0,,0,104,104,16,1,4,RL,desifate,cursive,desifate_c.png,1.5414,,,,,
,,,,31704,001,2025-10-15_22h12.01.902,HW_LDT_1,2024.2.4,MacIntel,30.03003003,,,,,,,,,,,,,,,,,,,,761.9369,762.1349,762.1349,762.6349,,,,,,,,,,,,,,0.9697,1,,,,,,,,,,,,,,z,,,,,,,,,,,,,,,,106,0,762.6356,763.6345,z,1,0.9697,,[],[],[],[],[],[],[],763.6346,765.6348,765.6348,765.6349,[],[],[],[],[],[],[],,765.635,765.635,-0.102790799,-0.416497396,0,0,0,,0,105,105,23,1,4,RL,linefal,cursive,linefal_c.png,,,,,,
,,,,31704,001,2025-10-15_22h12.01.902,HW_LDT_1,2024.2.4,MacIntel,30.03003003,,,,,,,,,,,,,,,,,,,,765.6356,765.8348,765.8348,766.3349,,,,,,,,,,,,,,0.8492,1,,,,,,,,,,,,,,z,,,,,,,,,,,,,,,,107,0,766.3355,767.2016,z,1,0.8492,,[],[],[],[],[],[],[],767.2017,769.2015,769.2016,769.2018,[],[],[],[],[],[],[],,769.2018,769.2019,-0.102790799,-0.416497396,0,0,0,,0,106,106,29,1,4,RL,motide,print,motide_p.png,,,,,,
,,,,31704,001,2025-10-15_22h12.01.902,HW_LDT_1,2024.2.4,MacIntel,30.03003003,,,,,,,,,,,,,,,,,,,,769.2033,769.4015,769.4016,769.9009,,,,,,,,,,,,,,1.0965,1,,,,,,,,,,,,,,z,,,,,,,,,,,,,,,,108,0,769.9016,771.0014,z,1,1.0965,,[],[],[],[],[],[],[],771.0014,773.0015,773.0016,773.0019,[],[],[],[],[],[],[],,773.0019,773.002,-0.102790799,-0.416497396,0,0,0,,0,107,107,71,1,4,TL,racidal,print,racidal_p.png,,,,,,
,,,,31704,001,2025-10-15_22h12.01.902,HW_LDT_1,2024.2.4,MacIntel,30.03003003,,,,,,,,,,,,,,,,,,,,773.0033,773.2015,773.2016,773.7015,,,,,,,,,,,,,,0.8753,1,,,,,,,,,,,,,,z,,,,,,,,,,,,,,,,109,0,773.7021,774.6017,z,1,0.8753,,[],[],[],[],[],[],[],774.6018,776.6015,776.6016,776.6018,[],[],[],[],[],[],[],,776.6018,776.6019,-0.102790799,-0.416497396,0,0,0,,0,108,108,15,1,4,RL,debave,cursive,debave_c.png,,,,,,
,,,,31704,001,2025-10-15_22h12.01.902,HW_LDT_1,2024.2.4,MacIntel,30.03003003,,,,,,,,,,,,,,,,,,,,776.6034,776.8015,776.8016,777.3014,,,,,,,,,,,,,,0.7693,1,,,,,,,,,,,,,,z,,,,,,,,,,,,,,,,110,0,777.3019,778.1015,z,1,0.7693,,[],[],[],[],[],[],[],778.1016,780.1014,780.1015,780.1016,[],[],[],[],[],[],[],,780.1018,780.1018,-0.102790799,-0.416497396,0,0,0,,0,109,109,65,1,4,TL,orepator,print,orepator_p.png,,,,,,
,,,,31704,001,2025-10-15_22h12.01.902,HW_LDT_1,2024.2.4,MacIntel,30.03003003,,,,,,,,,,,,,,,,,,,,780.1032,780.3015,780.3015,780.8015,,,,,,,,,,,,,,1.0887,0,,,,,,,,,,,,,,m,,,,,,,,,,,,,,,,111,1,780.8021,781.9014,z,0,1.0887,,[],[],[],[],[],[],[],781.9015,783.9016,783.9016,784.9349,[],[],[],[],[],[],[],z,784.935,784.9352,-0.102790799,-0.416497396,0,0,0,,0,110,110,99,1,4,word,DEBATE,cursive,debate_c.png,1.0186,,,,,
,,,,31704,001,2025-10-15_22h12.01.902,HW_LDT_1,2024.2.4,MacIntel,30.03003003,,,,,,,,,,,,,,,,,,,,784.9364,785.135,785.135,785.6349,,,,,,,,,,,,,,0.8097,1,,,,,,,,,,,,,,z,,,,,,,,,,,,,,,,112,0,785.6354,786.4679,z,1,0.8097,,[],[],[],[],[],[],[],786.468,788.4674,788.4674,788.4677,[],[],[],[],[],[],[],,788.4677,788.4678,-0.102790799,-0.416497396,0,0,0,,0,111,111,52,1,4,TL,cagetory,cursive,cagetory_c.png,,,,,,
,,,,31704,001,2025-10-15_22h12.01.902,HW_LDT_1,2024.2.4,MacIntel,30.03003003,,,,,,,,,,,,,,,,,,,,788.4693,788.6682,788.6682,789.1683,,,,,,,,,,,,,,0.8175,1,,,,,,,,,,,,,,m,,,,,,,,,,,,,,,,113,0,789.1689,790.0016,m,1,0.8175,,[],[],[],[],[],[],[],790.0017,792.0014,792.0014,792.0016,[],[],[],[],[],[],[],,792.0017,792.0018,-0.102790799,-0.416497396,0,0,0,,0,112,112,105,1,4,word,EDITOR,print,editor_p.png,,,,,,
,,,,31704,001,2025-10-15_22h12.01.902,HW_LDT_1,2024.2.4,MacIntel,30.03003003,,,,,,,,,,,,,,,,,,,,792.0033,792.2015,792.2015,792.7015,,,,,,,,,,,,,,2.0451,1,,,,,,,,,,,,,,m,,,,,,,,,,,,,,,,114,0,792.7022,794.7672,m,1,2.0451,,[],[],[],[],[],[],[],794.7673,796.7681,796.7682,796.7684,[],[],[],[],[],[],[],,796.7685,796.7686,-0.102790799,-0.416497396,0,0,0,,0,113,113,96,1,4,word,CONSIDER,cursive,consider_c.png,,,,,,
,,,,31704,001,2025-10-15_22h12.01.902,HW_LDT_1,2024.2.4,MacIntel,30.03003003,,,,,,,,,,,,,,,,,,,,796.77,796.9682,796.9682,797.4681,,,,,,,,,,,,,,1.024,1,,,,,,,,,,,,,,m,,,,,,,,,,,,,,,,115,0,797.4688,798.5015,m,1,1.024,,[],[],[],[],[],[],[],798.5016,800.5006,800.5006,800.5008,[],[],[],[],[],[],[],,800.5009,800.501,-0.102790799,-0.416497396,0,0,0,,0,114,114,104,1,4,word,DOMINANT,cursive,dominant_c.png,,,,,,
,,,,31704,001,2025-10-15_22h12.01.902,HW_LDT_1,2024.2.4,MacIntel,30.03003003,,,,,,,,,,,,,,,,,,,,800.5021,800.7015,800.7016,801.2015,,,,,,,,,,,,,,1.1786,1,,,,,,,,,,,,,,m,,,,,,,,,,,,,,,,116,0,801.2021,802.4014,m,1,1.1786,,[],[],[],[],[],[],[],802.4015,804.4016,804.4016,804.4019,[],[],[],[],[],[],[],,804.4019,804.402,-0.102790799,-0.416497396,0,0,0,,0,115,115,91,1,4,word,CARDINAL,cursive,cardinal_c.png,,,,,,
,,,,31704,001,2025-10-15_22h12.01.902,HW_LDT_1,2024.2.4,MacIntel,30.03003003,,,,,,,,,,,,,,,,,,,,804.4038,804.6015,804.6015,805.1016,,,,,,,,,,,,,,0.8053,1,,,,,,,,,,,,,,m,,,,,,,,,,,,,,,,117,0,805.1022,805.9349,m,1,0.8053,,[],[],[],[],[],[],[],805.935,807.9348,807.9349,807.9352,[],[],[],[],[],[],[],,807.9353,807.9353,-0.102790799,-0.416497396,0,0,0,,0,116,116,132,1,4,word,PROPOSAL,print,proposal_p.png,,,,,,
,,,,31704,001,2025-10-15_22h12.01.902,HW_LDT_1,2024.2.4,MacIntel,30.03003003,,,,,,,,,,,,,,,,,,,,807.9368,808.1349,808.1349,808.6349,,,,,,,,,,,,,,1.6033,1,,,,,,,,,,,,,,m,,,,,,,,,,,,,,,,118,0,808.6353,810.2684,m,1,1.6033,,[],[],[],[],[],[],[],810.2685,812.2674,812.2675,812.2675,[],[],[],[],[],[],[],,812.2676,812.2676,-0.102790799,-0.416497396,0,0,0,,0,117,117,144,1,4,word,RESIDENT,cursive,resident_c.png,,,,,,
,,,,31704,001,2025-10-15_22h12.01.902,HW_LDT_1,2024.2.4,MacIntel,30.03003003,,,,,,,,,,,,,,,,,,,,812.2687,812.4684,812.4685,812.9685,,,,,,,,,,,,,,0.7177,1,,,,,,,,,,,,,,m,,,,,,,,,,,,,,,,119,0,812.9691,813.7015,m,1,0.7177,,[],[],[],[],[],[],[],813.7015,815.7015,815.7015,815.7017,[],[],[],[],[],[],[],,815.7017,815.7019,-0.102790799,-0.416497396,0,0,0,,0,118,118,129,1,4,word,PARENT,cursive,parent_c.png,,,,,,
,,,,31704,001,2025-10-15_22h12.01.902,HW_LDT_1,2024.2.4,MacIntel,30.03003003,,,,,,,,,,,,,,,,,,,,815.7032,815.9018,815.9018,816.4016,,,,,,,,,,,,,,1.0494,1,,,,,,,,,,,,,,z,,,,,,,,,,,,,,,,120,0,816.4022,817.4685,z,1,1.0494,,[],[],[],[],[],[],[],817.4686,819.4683,819.4683,819.4686,[],[],[],[],[],[],[],,819.4687,819.4687,-0.102790799,-0.416497396,0,0,0,,0,119,119,61,1,4,TL,lotace,cursive,lotace_c.png,,,,,,
,,,,31704,001,2025-10-15_22h12.01.902,HW_LDT_1,2024.2.4,MacIntel,30.03003003,,,,,,,,,,,,,,,,,,,,819.4702,819.6685,819.6686,820.1683,,,,,,,,,,,,,,1.4821,1,,,,,,,,,,,,,,m,,,,,,,,,,,,,,,,121,0,820.1691,821.6687,m,1,1.4821,,[],[],[],[],[],[],[],821.6688,823.6684,823.6684,823.6687,[],[],[],[],[],[],[],,823.6687,823.6689,-0.102790799,-0.416497396,0,0,0,,0,120,120,159,1,4,word,VETERAN,cursive,veteran_c.png,,,,,,
,,,,31704,001,2025-10-15_22h12.01.902,HW_LDT_1,2024.2.4,MacIntel,30.03003003,,,,,,,,,,,,,,,,,,,,823.6704,823.8682,823.8683,824.3682,,,,,,,,,,,,,,0.648,1,,,,,,,,,,,,,,m,,,,,,,,,,,,,,,,122,1,824.3689,825.0349,m,1,0.648,,[],[],[],[],[],[],[],825.0351,827.0349,827.0349,827.835,[],[],[],[],[],[],[],m,827.835,827.8351,-0.102790799,-0.416497396,0,0,0,,0,121,121,136,1,4,word,RADICAL,print,radical_p.png,0.7978,,,,,
,,,,31704,001,2025-10-15_22h12.01.902,HW_LDT_1,2024.2.4,MacIntel,30.03003003,,,,,,,,,,,,,,,,,,,,827.8361,828.035,828.035,828.5349,,,,,,,,,,,,,,0.9378,1,,,,,,,,,,,,,,z,,,,,,,,,,,,,,,,123,0,828.5355,829.5016,z,1,0.9378,,[],[],[],[],[],[],[],829.5018,831.5016,831.5016,831.5019,[],[],[],[],[],[],[],,831.5019,831.502,-0.102790799,-0.416497396,0,0,0,,0,122,122,58,1,4,TL,edivent,print,edivent_p.png,,,,,,
,,,,31704,001,2025-10-15_22h12.01.902,HW_LDT_1,2024.2.4,MacIntel,30.03003003,,,,,,,,,,,,,,,,,,,,831.5034,831.7012,831.7012,832.2016,,,,,,,,,,,,,,1.5433,1,,,,,,,,,,,,,,z,,,,,,,,,,,,,,,,124,1,832.2022,833.7673,z,1,1.5433,,[],[],[],[],[],[],[],833.7674,835.7682,835.7683,837.0683,[],[],[],[],[],[],[],z,837.0684,837.0685,-0.102790799,-0.416497396,0,0,0,,0,123,123,78,1,4,TL,stragety,print,stragety_p.png,1.2742,,,,,
,,,,31704,001,2025-10-15_22h12.01.902,HW_LDT_1,2024.2.4,MacIntel,30.03003003,,,,,,,,,,,,,,,,,,,,837.07,837.2682,837.2682,837.7681,,,,,,,,,,,,,,0.8182,1,,,,,,,,,,,,,,m,,,,,,,,,,,,,,,,125,0,837.7687,838.6017,m,1,0.8182,,[],[],[],[],[],[],[],838.6018,840.6018,840.6018,840.602,[],[],[],[],[],[],[],,840.602,840.6021,-0.102790799,-0.416497396,0,0,0,,0,124,124,140,1,4,word,RELATIVE,print,relative_p.png,,,,,,
,,,,31704,001,2025-10-15_22h12.01.902,HW_LDT_1,2024.2.4,MacIntel,30.03003003,,,,,,,,,,,,,,,,,,,,840.6037,840.8016,840.8018,841.3013,,,,,,,,,,,,,,1.3031,1,,,,,,,,,,,,,,m,,,,,,,,,,,,,,,,126,1,841.302,842.635,m,1,1.3031,,[],[],[],[],[],[],[],842.6351,844.6349,844.635,845.7683,[],[],[],[],[],[],[],z,845.7683,845.7684,-0.102790799,-0.416497396,0,0,0,,0,125,125,83,1,4,word,ANIMAL,cursive,animal_c.png,1.1209,,,,,
,,,,31704,001,2025-10-15_22h12.01.902,HW_LDT_1,2024.2.4,MacIntel,30.03003003,,,,,,,,,,,,,,,,,,,,845.7699,845.968,845.968,846.4682,,,,,,,,,,,,,,0.9848,1,,,,,,,,,,,,,,z,,,,,,,,,,,,,,,,127,1,846.469,847.4686,z,1,0.9848,,[],[],[],[],[],[],[],847.4687,849.4683,849.4684,851.2684,[],[],[],[],[],[],[],z,851.2684,851.2686,-0.102790799,-0.416497396,0,0,0,,0,126,126,7,1,4,RL,casena,print,casena_p.png,1.7703,,,,,
,,,,31704,001,2025-10-15_22h12.01.902,HW_LDT_1,2024.2.4,MacIntel,30.03003003,,,,,,,,,,,,,,,,,,,,851.27,851.4683,851.4684,851.9683,,,,,,,,,,,,,,2.3358,1,,,,,,,,,,,,,,z,,,,,,,,,,,,,,,,128,0,851.9691,854.335,z,1,2.3358,,[],[],[],[],[],[],[],854.3352,856.3349,856.335,856.3352,[],[],[],[],[],[],[],,856.3353,856.3355,-0.102790799,-0.416497396,0,0,0,,0,127,127,6,1,4,RL,caleberia,cursive,caleberia_c.png,,,,,,
,,,,31704,001,2025-10-15_22h12.01.902,HW_LDT_1,2024.2.4,MacIntel,30.03003003,,,,,,,,,,,,,,,,,,,,856.3369,856.535,856.535,857.0349,,,,,,,,,,,,,,0.6628,1,,,,,,,,,,,,,,m,,,,,,,,,,,,,,,,129,0,857.0354,857.7016,m,1,0.6628,,[],[],[],[],[],[],[],857.7016,859.7013,859.7013,859.7015,[],[],[],[],[],[],[],,859.7016,859.7017,-0.102790799,-0.416497396,0,0,0,,0,128,128,125,1,4,word,OPERATOR,print,operator_p.png,,,,,,
,,,,31704,001,2025-10-15_22h12.01.902,HW_LDT_1,2024.2.4,MacIntel,30.03003003,,,,,,,,,,,,,,,,,,,,859.7031,859.9016,859.9016,860.4017,,,,,,,,,,,,,,3.2358,1,,,,,,,,,,,,,,z,,,,,,,,,,,,,,,,130,0,860.4024,863.6684,z,1,3.2358,,[],[],[],[],[],[],[],863.6684,865.6683,865.6684,865.6686,[],[],[],[],[],[],[],,865.6686,865.6687,-0.102790799,-0.416497396,0,0,0,,0,129,129,51,1,4,TL,adsivory,cursive,adsivory_c.png,,,,,,
,,,,31704,001,2025-10-15_22h12.01.902,HW_LDT_1,2024.2.4,MacIntel,30.03003003,,,,,,,,,,,,,,,,,,,,865.6703,865.8683,865.8683,866.3682,,,,,,,,,,,,,,0.9075,1,,,,,,,,,,,,,,m,,,,,,,,,,,,,,,,131,0,866.369,867.3007,m,1,0.9075,,[],[],[],[],[],[],[],867.3007,869.3006,869.3006,869.3008,[],[],[],[],[],[],[],,869.3008,869.301,-0.102790799,-0.416497396,0,0,0,,0,130,130,123,1,4,word,MODERATE,print,moderate_p.png,,,,,,
,,,,31704,001,2025-10-15_22h12.01.902,HW_LDT_1,2024.2.4,MacIntel,30.03003003,,,,,,,,,,,,,,,,,,,,869.3023,869.5017,869.5017,870.0017,,,,,,,,,,,,,,0.8687,1,,,,,,,,,,,,,,z,,,,,,,,,,,,,,,,132,0,870.0023,870.9013,z,1,0.8687,,[],[],[],[],[],[],[],870.9014,872.9013,872.9013,872.9014,[],[],[],[],[],[],[],,872.9015,872.9015,-0.102790799,-0.416497396,0,0,0,,0,131,131,62,1,4,TL,locigal,print,locigal_p.png,,,,,,
,,,,31704,001,2025-10-15_22h12.01.902,HW_LDT_1,2024.2.4,MacIntel,30.03003003,,,,,,,,,,,,,,,,,,,,872.9026,873.1009,873.101,873.6016,,,,,,,,,,,,,,1.1167,1,,,,,,,,,,,,,,z,,,,,,,,,,,,,,,,133,0,873.6022,874.734,z,1,1.1167,,[],[],[],[],[],[],[],874.7342,876.7351,876.7352,876.7354,[],[],[],[],[],[],[],,876.7354,876.7355,-0.102790799,-0.416497396,0,0,0,,0,132,132,49,1,4,RL,vesofity,cursive,vesofity_c.png,,,,,,
,,,,31704,001,2025-10-15_22h12.01.902,HW_LDT_1,2024.2.4,MacIntel,30.03003003,,,,,,,,,,,,,,,,,,,,876.737,876.935,876.9351,877.435,,,,,,,,,,,,,,0.7455,1,,,,,,,,,,,,,,m,,,,,,,,,,,,,,,,134,0,877.4356,878.2015,m,1,0.7455,,[],[],[],[],[],[],[],878.2016,880.2017,880.2018,880.202,[],[],[],[],[],[],[],,880.2021,880.2022,-0.102790799,-0.416497396,0,0,0,,0,133,133,122,1,4,word,MOBILE,print,mobile_p.png,,,,,,
,,,,31704,001,2025-10-15_22h12.01.902,HW_LDT_1,2024.2.4,MacIntel,30.03003003,,,,,,,,,,,,,,,,,,,,880.2037,880.4018,880.4019,880.9016,,,,,,,,,,,,,,0.6386,1,,,,,,,,,,,,,,m,,,,,,,,,,,,,,,,135,0,880.9023,881.5682,m,1,0.6386,,[],[],[],[],[],[],[],881.5682,883.5678,883.5679,883.568,[],[],[],[],[],[],[],,883.568,883.568,-0.102790799,-0.416497396,0,0,0,,0,134,134,115,1,4,word,LOGICAL,print,logical_p.png,,,,,,
,,,,31704,001,2025-10-15_22h12.01.902,HW_LDT_1,2024.2.4,MacIntel,30.03003003,,,,,,,,,,,,,,,,,,,,883.5685,883.7679,883.768,884.268,,,,,,,,,,,,,,1.4654,1,,,,,,,,,,,,,,z,,,,,,,,,,,,,,,,136,0,884.2681,885.7346,z,1,1.4654,,[],[],[],[],[],[],[],885.7347,887.7351,887.7351,887.7353,[],[],[],[],[],[],[],,887.7353,887.7355,-0.102790799,-0.416497396,0,0,0,,0,135,135,18,1,4,RL,disluge,print,disluge_p.png,,,,,,
,,,,31704,001,2025-10-15_22h12.01.902,HW_LDT_1,2024.2.4,MacIntel,30.03003003,,,,,,,,,,,,,,,,,,,,887.7369,887.9348,887.9349,888.435,,,,,,,,,,,,,,1.5119,0,,,,,,,,,,,,,,m,,,,,,,,,,,,,,,,137,1,888.4358,889.9684,z,0,1.5119,,[],[],[],[],[],[],[],889.9685,891.9679,891.968,893.1351,[],[],[],[],[],[],[],z,893.1351,893.1352,-0.102790799,-0.416497396,0,0,0,,0,136,136,87,1,4,word,CAFETERIA,cursive,cafeteria_c.png,1.1398,,,,,
,,,,31704,001,2025-10-15_22h12.01.902,HW_LDT_1,2024.2.4,MacIntel,30.03003003,,,,,,,,,,,,,,,,,,,,893.1366,893.3351,893.3351,893.835,,,,,,,,,,,,,,0.7361,1,,,,,,,,,,,,,,m,,,,,,,,,,,,,,,,138,0,893.8356,894.6017,m,1,0.7361,,[],[],[],[],[],[],[],894.6018,896.6018,896.6019,896.6021,[],[],[],[],[],[],[],,896.6021,896.6023,-0.102790799,-0.416497396,0,0,0,,0,137,137,95,1,4,word,COMEDY,print,comedy_p.png,,,,,,
,,,,31704,001,2025-10-15_22h12.01.902,HW_LDT_1,2024.2.4,MacIntel,30.03003003,,,,,,,,,,,,,,,,,,,,896.6039,896.8018,896.8018,897.3018,,,,,,,,,,,,,,1.0028,1,,,,,,,,,,,,,,m,,,,,,,,,,,,,,,,139,0,897.3024,898.3344,m,1,1.0028,,[],[],[],[],[],[],[],898.3345,900.335,900.3351,900.3352,[],[],[],[],[],[],[],,900.3353,900.3354,-0.102790799,-0.416497396,0,0,0,,0,138,138,94,1,4,word,CLINICAL,print,clinical_p.png,,,,,,
,,,,31704,001,2025-10-15_22h12.01.902,HW_LDT_1,2024.2.4,MacIntel,30.03003003,,,,,,,,,,,,,,,,,,,,900.3368,900.535,900.5351,901.035,,,,,,,,,,,,,,1.47,1,,,,,,,,,,,,,,z,,,,,,,,,,,,,,,,140,0,901.0355,902.5351,z,1,1.47,,[],[],[],[],[],[],[],902.5351,904.5351,904.5351,904.5353,[],[],[],[],[],[],[],,904.5353,904.5355,-0.102790799,-0.416497396,0,0,0,,0,139,139,56,1,4,TL,donimant,cursive,donimant_c.png,,,,,,
,,,,31704,001,2025-10-15_22h12.01.902,HW_LDT_1,2024.2.4,MacIntel,30.03003003,,,,,,,,,,,,,,,,,,,,904.5369,904.735,904.735,905.235,,,,,,,,,,,,,,1.4031,1,,,,,,,,,,,,,,m,,,,,,,,,,,,,,,,141,0,905.2357,906.6685,m,1,1.4031,,[],[],[],[],[],[],[],906.6686,908.6683,908.6684,908.6686,[],[],[],[],[],[],[],,908.6687,908.6688,-0.102790799,-0.416497396,0,0,0,,0,140,140,118,1,4,word,MEDICINE,cursive,medicine_c.png,,,,,,
,,,,31704,001,2025-10-15_22h12.01.902,HW_LDT_1,2024.2.4,MacIntel,30.03003003,,,,,,,,,,,,,,,,,,,,908.6701,908.8676,908.8677,909.3684,,,,,,,,,,,,,,0.9024,1,,,,,,,,,,,,,,m,,,,,,,,,,,,,,,,142,0,909.369,910.3019,m,1,0.9024,,[],[],[],[],[],[],[],910.302,912.3015,912.3015,912.3016,[],[],[],[],[],[],[],,912.3016,912.3016,-0.102790799,-0.416497396,0,0,0,,0,141,141,97,1,4,word,COVERAGE,cursive,coverage_c.png,,,,,,
,,,,31704,001,2025-10-15_22h12.01.902,HW_LDT_1,2024.2.4,MacIntel,30.03003003,,,,,,,,,,,,,,,,,,,,912.3022,912.5014,912.5014,913.0019,,,,,,,,,,,,,,0.7117,1,,,,,,,,,,,,,,m,,,,,,,,,,,,,,,,143,0,913.0025,913.7351,m,1,0.7117,,[],[],[],[],[],[],[],913.7352,915.735,915.735,915.7353,[],[],[],[],[],[],[],,915.7353,915.7354,-0.102790799,-0.416497396,0,0,0,,0,142,142,131,1,4,word,POPULAR,print,popular_p.png,,,,,,
,,,,31704,001,2025-10-15_22h12.01.902,HW_LDT_1,2024.2.4,MacIntel,30.03003003,,,,,,,,,,,,,,,,,,,,915.7367,915.9343,915.9344,916.434,,,,,,,,,,,,,,0.7882,1,,,,,,,,,,,,,,m,,,,,,,,,,,,,,,,144,0,916.4346,917.2353,m,1,0.7882,,[],[],[],[],[],[],[],917.2354,919.2351,919.2352,919.2354,[],[],[],[],[],[],[],,919.2354,919.2356,-0.102790799,-0.416497396,0,0,0,,0,143,143,148,1,4,word,SALINE,print,saline_p.png,,,,,,
,,,,31704,001,2025-10-15_22h12.01.902,HW_LDT_1,2024.2.4,MacIntel,30.03003003,,,,,,,,,,,,,,,,,,,,919.2369,919.435,919.4351,919.935,,,,,,,,,,,,,,0.6647,1,,,,,,,,,,,,,,m,,,,,,,,,,,,,,,,145,0,919.9356,920.6018,m,1,0.6647,,[],[],[],[],[],[],[],920.6019,922.6019,922.602,922.6022,[],[],[],[],[],[],[],,922.6023,922.6025,-0.102790799,-0.416497396,0,0,0,,0,144,144,111,1,4,word,INDICATE,print,indicate_p.png,,,,,,
,,,,31704,001,2025-10-15_22h12.01.902,HW_LDT_1,2024.2.4,MacIntel,30.03003003,,,,,,,,,,,,,,,,,,,,922.6039,922.8018,922.8019,923.3018,,,,,,,,,,,,,,2.8824,1,,,,,,,,,,,,,,z,,,,,,,,,,,,,,,,146,0,923.3026,926.2017,z,1,2.8824,,[],[],[],[],[],[],[],926.2017,928.202,928.2021,928.2023,[],[],[],[],[],[],[],,928.2024,928.2025,-0.102790799,-0.416497396,0,0,0,,0,145,145,34,1,4,RL,posity,cursive,posity_c.png,,,,,,
,,,,31704,001,2025-10-15_22h12.01.902,HW_LDT_1,2024.2.4,MacIntel,30.03003003,,,,,,,,,,,,,,,,,,,,928.2039,928.4017,928.4018,928.9017,,,,,,,,,,,,,,1.1386,1,,,,,,,,,,,,,,z,,,,,,,,,,,,,,,,147,0,928.9023,930.0688,z,1,1.1386,,[],[],[],[],[],[],[],930.0689,932.0684,932.0685,932.0686,[],[],[],[],[],[],[],,932.0687,932.0688,-0.102790799,-0.416497396,0,0,0,,0,146,146,77,1,4,TL,spemicen,cursive,spemicen_c.png,,,,,,
,,,,31704,001,2025-10-15_22h12.01.902,HW_LDT_1,2024.2.4,MacIntel,30.03003003,,,,,,,,,,,,,,,,,,,,932.0703,932.2685,932.2685,932.7685,,,,,,,,,,,,,,2.408,1,,,,,,,,,,,,,,m,,,,,,,,,,,,,,,,148,0,932.7691,935.2018,m,1,2.408,,[],[],[],[],[],[],[],935.2019,937.2019,937.2019,937.2022,[],[],[],[],[],[],[],,937.2022,937.2024,-0.102790799,-0.416497396,0,0,0,,0,147,147,142,1,4,word,REMOTE,cursive,remote_c.png,,,,,,
,,,,31704,001,2025-10-15_22h12.01.902,HW_LDT_1,2024.2.4,MacIntel,30.03003003,,,,,,,,,,,,,,,,,,,,937.2038,937.4019,937.4019,937.9018,,,,,,,,,,,,,,2.5432,0,,,,,,,,,,,,,,m,,,,,,,,,,,,,,,,149,0,937.9024,940.4687,z,0,2.5432,,[],[],[],[],[],[],[],940.4688,942.4684,942.4684,942.4687,[],[],[],[],[],[],[],,942.4687,942.4689,-0.102790799,-0.416497396,0,0,0,,0,148,148,89,1,4,word,CAPACITY,cursive,capacity_c.png,,,,,,
,,,,31704,001,2025-10-15_22h12.01.902,HW_LDT_1,2024.2.4,MacIntel,30.03003003,,,,,,,,,,,,,,,,,,,,942.4702,942.6685,942.6685,943.1683,,,,,,,,,,,,,,1.7029,1,,,,,,,,,,,,,,m,,,,,,,,,,,,,,,,150,0,943.1689,944.9018,m,1,1.7029,,[],[],[],[],[],[],[],944.9018,946.9017,946.9017,946.902,[],[],[],[],[],[],[],,946.9021,946.9022,-0.102790799,-0.416497396,0,0,0,,0,149,149,139,1,4,word,REGULAR,cursive,regular_c.png,,,,,,
,,,,31704,001,2025-10-15_22h12.01.902,HW_LDT_1,2024.2.4,MacIntel,30.03003003,,,,,,,,,,,,,,,,,,,,946.9036,947.1018,947.1019,947.6018,,,,,,,,,,,,,,1.1362,1,,,,,,,,,,,,,,z,,,,,,,,,,,,,,,,151,0,947.6024,948.7685,z,1,1.1362,,[],[],[],[],[],[],[],948.7686,950.7679,950.768,950.7682,[],[],[],[],[],[],[],,950.7682,950.7684,-0.102790799,-0.416497396,0,0,0,,0,150,150,0,1,4,RL,abanemy,print,abanemy_p.png,,,,,,
,,,,31704,001,2025-10-15_22h12.01.902,HW_LDT_1,2024.2.4,MacIntel,30.03003003,,,,,,,,,,,,,,,,,,,,950.7698,950.9685,950.9686,951.4684,,,,,,,,,,,,,,1.5365,0,,,,,,,,,,,,,,m,,,,,,,,,,,,,,,,152,0,951.469,953.0353,z,0,1.5365,,[],[],[],[],[],[],[],953.0353,955.035,955.0351,955.0354,[],[],[],[],[],[],[],,955.0354,955.0355,-0.102790799,-0.416497396,0,0,0,,0,151,151,85,1,4,word,BENEFIT,cursive,benefit_c.png,,,,,,
,,,,31704,001,2025-10-15_22h12.01.902,HW_LDT_1,2024.2.4,MacIntel,30.03003003,,,,,,,,,,,,,,,,,,,,955.0364,955.235,955.2351,955.735,,,,,,,,,,,,,,3.3373,0,,,,,,,,,,,,,,m,,,,,,,,,,,,,,,,153,0,955.7355,959.1018,z,0,3.3373,,[],[],[],[],[],[],[],959.1019,961.1018,961.1018,961.102,[],[],[],[],[],[],[],,961.102,961.1021,-0.102790799,-0.416497396,0,0,0,,0,152,152,113,1,4,word,LITERAL,cursive,literal_c.png,,,,,,
,,,,31704,001,2025-10-15_22h12.01.902,HW_LDT_1,2024.2.4,MacIntel,30.03003003,,,,,,,,,,,,,,,,,,,,961.1034,961.3009,961.301,961.8013,,,,,,,,,,,,,,2.3038,1,,,,,,,,,,,,,,z,,,,,,,,,,,,,,,,154,0,961.8018,964.1352,z,1,2.3038,,[],[],[],[],[],[],[],964.1353,966.1352,966.1352,966.1354,[],[],[],[],[],[],[],,966.1354,966.1355,-0.102790799,-0.416497396,0,0,0,,0,153,153,59,1,4,TL,fornute,cursive,fornute_c.png,,,,,,
,,,,31704,001,2025-10-15_22h12.01.902,HW_LDT_1,2024.2.4,MacIntel,30.03003003,,,,,,,,,,,,,,,,,,,,966.1366,966.3349,966.335,966.8343,,,,,,,,,,,,,,4.0914,1,,,,,,,,,,,,,,m,,,,,,,,,,,,,,,,155,0,966.8348,970.9344,m,1,4.0914,,[],[],[],[],[],[],[],970.9344,972.9352,972.9352,972.9355,[],[],[],[],[],[],[],,972.9355,972.9356,-0.102790799,-0.416497396,0,0,0,,0,154,154,153,1,4,word,STOLEN,cursive,stolen_c.png,,,,,,
,,,,31704,001,2025-10-15_22h12.01.902,HW_LDT_1,2024.2.4,MacIntel,30.03003003,,,,,,,,,,,,,,,,,,,,972.9371,973.1346,973.1346,973.6351,,,,,,,,,,,,,,2.8298,0,,,,,,,,,,,,,,m,,,,,,,,,,,,,,,,156,1,973.6355,976.4684,z,0,2.8298,,[],[],[],[],[],[],[],976.4686,978.4684,978.4684,979.8021,[],[],[],[],[],[],[],z,979.8022,979.8023,-0.102790799,-0.416497396,0,0,0,,0,155,155,102,1,4,word,DENSITY,cursive,density_c.png,1.3118,,,,,
,,,,31704,001,2025-10-15_22h12.01.902,HW_LDT_1,2024.2.4,MacIntel,30.03003003,,,,,,,,,,,,,,,,,,,,979.8037,980.0008,980.0008,980.5021,,,,,,,,,,,,,,2.8361,1,,,,,,,,,,,,,,m,,,,,,,,,,,,,,,,157,0,980.5027,983.3686,m,1,2.8361,,[],[],[],[],[],[],[],983.3686,985.3687,985.3687,985.369,[],[],[],[],[],[],[],,985.3691,985.3691,-0.102790799,-0.416497396,0,0,0,,0,156,156,106,1,4,word,ELABORATE,cursive,elaborate_c.png,,,,,,
,,,,31704,001,2025-10-15_22h12.01.902,HW_LDT_1,2024.2.4,MacIntel,30.03003003,,,,,,,,,,,,,,,,,,,,985.3706,985.5685,985.5686,986.0684,,,,,,,,,,,,,,1.1039,1,,,,,,,,,,,,,,z,,,,,,,,,,,,,,,,158,0,986.0691,987.2022,z,1,1.1039,,[],[],[],[],[],[],[],987.2023,989.2019,989.202,989.2022,[],[],[],[],[],[],[],,989.2022,989.2024,-0.102790799,-0.416497396,0,0,0,,0,157,157,9,1,4,RL,cafigal,print,cafigal_p.png,,,,,,
,,,,31704,001,2025-10-15_22h12.01.902,HW_LDT_1,2024.2.4,MacIntel,30.03003003,,,,,,,,,,,,,,,,,,,,989.2038,989.4018,989.4018,989.9019,,,,,,,,,,,,,,1.437,1,,,,,,,,,,,,,,z,,,,,,,,,,,,,,,,159,0,989.9026,991.3685,z,1,1.437,,[],[],[],[],[],[],[],991.3686,993.3684,993.3684,993.3686,[],[],[],[],[],[],[],,993.3687,993.3688,-0.102790799,-0.416497396,0,0,0,,0,158,158,72,1,4,TL,relugar,cursive,relugar_c.png,,,,,,
,,,,31704,001,2025-10-15_22h12.01.902,HW_LDT_1,2024.2.4,MacIntel,30.03003003,,,,,,,,,,,,,,,,,,,,993.3702,993.568,993.568,994.0684,,,,,,,,,,,,,,2.7221,0,,,,,,,,,,,,,,m,,,,,,,,,,,,,,,,160,0,994.0691,996.8021,z,0,2.7221,,[],[],[],[],[],[],[],996.8022,998.802,998.802,998.8023,[],[],[],[],[],[],[],,998.8023,998.8025,-0.102790799,-0.416497396,0,0,0,,0,159,159,114,1,4,word,LOCATE,cursive,locate_c.png,,,,,,
,,,,31704,001,2025-10-15_22h12.01.902,HW_LDT_1,2024.2.4,MacIntel,30.03003003,,,,,,,,,,,,,,,,,,,,,,,,,,,,,,,,,,,,,,,,,,,,,,,,,,,,,,,,,,,,,,,,,,,,,,,,,,,,,,,,,,,,,,,,,,,,,,,,,,,,,,,,,,,,,,,,,,,,,998.8033,1003.8023
