counterbalance_lists.group,counterbalance_lists.remaining,get_list.started,get_list.stopped,participant,session,date,expName,psychopyVersion,OS,frameRate,Instructions.started,Instructions.stopped,key_resp.keys,key_resp.rt,key_resp.duration,instr_done_touch.x,instr_done_touch.y,instr_done_touch.leftButton,instr_done_touch.midButton,instr_done_touch.rightButton,start_instr.thisRepN,start_instr.thisTrialN,start_instr.thisN,start_instr.thisIndex,start_instr.ran,pageN,phase,instruct_text,has_image,instruct_image,showProgress.started,showProgress.stopped,fix.started,fix.stopped,prac.started,prac.stopped,response.keys,response.corr,response.rt,response.duration,touch_resp.x,touch_resp.y,touch_resp.leftButton,touch_resp.midButton,touch_resp.rightButton,touch_resp.time,touch_resp.clicked_name,rt,corr,feedback.started,feedback.stopped,trials.thisRepN,trials.thisTrialN,trials.thisN,trials.thisIndex,trials.ran,TrialID,StimulusType,Condition,PrimeDuration,Prime,Target,corrAns,Instructions_expt.started,Instructions_expt.stopped,key_resp_3.keys,key_resp_3.rt,key_resp_3.duration,instr_done_touch_3.x,instr_done_touch_3.y,instr_done_touch_3.leftButton,instr_done_touch_3.midButton,instr_done_touch_3.rightButton,instr_experiment.thisRepN,instr_experiment.thisTrialN,instr_experiment.thisN,instr_experiment.thisIndex,instr_experiment.ran,trialID,flag,maintask.started,maintask.stopped,key_resp_2.keys,key_resp_2.corr,key_resp_2.rt,key_resp_2.duration,targ_click.x,targ_click.y,targ_click.leftButton,targ_click.midButton,targ_click.rightButton,targ_click.time,targ_click.clicked_name,ITI.started,ITI.stopped,probe.started,probe.stopped,click_probe.x,click_probe.y,click_probe.leftButton,click_probe.midButton,click_probe.rightButton,click_probe.time,click_probe.clicked_name,key_resp_probe.keys,Break.started,Break.stopped,break_done_touch.x,break_done_touch.y,break_done_touch.leftButton,break_done_touch.midButton,break_done_touch.rightButton,break_done_keyboard.keys,list2_trials.thisRepN,list2_trials.thisTrialN,list2_trials.thisN,list2_trials.thisIndex,list2_trials.ran,list_id,item_type,string,font,stim_file,key_resp_probe.rt,key_resp_probe.duration,break_done_keyboard.rt,break_done_keyboard.duration,End.started,End.stopped
list2,,0.5415,0.5416,31776,001,2025-10-15_20h22.14.412,HW_LDT_1,2024.2.4,MacIntel,62.5,,,,,,,,,,,,,,,,,,,,,,,,,,,,,,,,,,,,,,,,,,,,,,,,,,,,,,,,,,,,,,,,,,,,,,,,,,,,,,,,,,,,,,,,,,,,,,,,,,,,,,,,,,,,,,,,,,,,,,,
,,,,31776,001,2025-10-15_20h22.14.412,HW_LDT_1,2024.2.4,MacIntel,62.5,0.5558,23.9748,space,23.3886,,-0.113336062,-0.078939868,0,0,0,0,0,0,0,1,1,instructions,"INSTRUCTIONS
At the start of each trial, look at the plus sign  (+) in the center of the screen.  This tells you that a trial is about to begin and where to look. Second, the plus sign will disappear and a string of letters will appear. Your task is to determine if the string of letters is a word or not. If the item is a word press the M key (on keyboard)  or touch the word button (phone/tablet).  If the item is not a word,  press the  Z key (on keyboard)  or touch the nonword button (on phone/tablet). The items will be presented for a short time. 
Press the space bar or touch  continue.",0,,,,,,,,,,,,,,,,,,,,,,,,,,,,,,,,,,,,,,,,,,,,,,,,,,,,,,,,,,,,,,,,,,,,,,,,,,,,,,,,,,,,,,,,,,,,,,,,,,,,
,,,,31776,001,2025-10-15_20h22.14.412,HW_LDT_1,2024.2.4,MacIntel,62.5,23.9761,28.4083,space,4.404,,-0.113336062,-0.078939868,0,0,0,0,1,1,1,1,2,instructions,"If your device has a keyboard, press the 'Z' key for nonwords and the 'M' key for words.





Press the space bar or touch the button below to continue.",0,keyboard-example.gif,,,,,,,,,,,,,,,,,,,,,,,,,,,,,,,,,,,,,,,,,,,,,,,,,,,,,,,,,,,,,,,,,,,,,,,,,,,,,,,,,,,,,,,,,,,,,,,,,,,
,,,,31776,001,2025-10-15_20h22.14.412,HW_LDT_1,2024.2.4,MacIntel,62.5,28.4105,29.6735,space,1.2332,,-0.113336062,-0.078939868,0,0,0,0,2,2,2,1,3,instructions,"If you are using a touchscreen only device, use the buttons on the screen. Do not use the mouse.





Press the space bar or touch the button below to continue.",0,touchscreen-example.gif,,,,,,,,,,,,,,,,,,,,,,,,,,,,,,,,,,,,,,,,,,,,,,,,,,,,,,,,,,,,,,,,,,,,,,,,,,,,,,,,,,,,,,,,,,,,,,,,,,,
,,,,31776,001,2025-10-15_20h22.14.412,HW_LDT_1,2024.2.4,MacIntel,62.5,29.6756,32.908,space,3.2123,,-0.113336062,-0.078939868,0,0,0,0,3,3,3,1,4,instructions,"It is very important that you respond as quickly and accurately as possible, as each letter string will only be on the screen for two seconds. If you do not respond within this time, the message 'Too slow!' will be displayed and the experiment will progress to the next letter string. The first 20 trials will be practice trials and you will receive feedback on your answers. 

Press the space bar or touch the button below to start the practice trials.",0,,,,,,,,,,,,,,,,,,,,,,,,,,,,,,,,,,,,,,,,,,,,,,,,,,,,,,,,,,,,,,,,,,,,,,,,,,,,,,,,,,,,,,,,,,,,,,,,,,,,
,,,,31776,001,2025-10-15_20h22.14.412,HW_LDT_1,2024.2.4,MacIntel,62.5,,,,,,,,,,,,,,,,,,,,,32.9345,33.1076,33.108,33.6084,33.6088,35.1256,z,1,1.4982,,[],[],[],[],[],[],[],1.4982,1,35.1263,35.624,0,0,0,13,1,1014,NW,UN,33,winfer,ROUPET,z,,,,,,,,,,,,,,,,,,,,,,,,,,,,,,,,,,,,,,,,,,,,,,,,,,,,,,,,,,,,,,,,,,
,,,,31776,001,2025-10-15_20h22.14.412,HW_LDT_1,2024.2.4,MacIntel,62.5,,,,,,,,,,,,,,,,,,,,,35.6264,35.8249,35.825,36.3237,36.3247,37.1908,m,1,0.8511,,[],[],[],[],[],[],[],0.8511,1,37.1909,37.6904,0,1,1,3,1,1004,WORD,"ID",16,matrix,MATRIX,m,,,,,,,,,,,,,,,,,,,,,,,,,,,,,,,,,,,,,,,,,,,,,,,,,,,,,,,,,,,,,,,,,,
,,,,31776,001,2025-10-15_20h22.14.412,HW_LDT_1,2024.2.4,MacIntel,62.5,,,,,,,,,,,,,,,,,,,,,37.6921,37.8904,37.8904,38.3906,38.3923,39.8741,z,1,1.4687,,[],[],[],[],[],[],[],1.4687,1,39.8742,40.3741,0,2,2,10,1,1011,NW,"ID",16,inlade,INLADE,z,,,,,,,,,,,,,,,,,,,,,,,,,,,,,,,,,,,,,,,,,,,,,,,,,,,,,,,,,,,,,,,,,,
,,,,31776,001,2025-10-15_20h22.14.412,HW_LDT_1,2024.2.4,MacIntel,62.5,,,,,,,,,,,,,,,,,,,,,40.376,40.5738,40.5738,41.0743,41.0757,41.774,m,1,0.6827,,[],[],[],[],[],[],[],0.6827,1,41.7741,42.2739,0,3,3,1,1,1002,WORD,"ID",33,adjust,ADJUST,m,,,,,,,,,,,,,,,,,,,,,,,,,,,,,,,,,,,,,,,,,,,,,,,,,,,,,,,,,,,,,,,,,,
,,,,31776,001,2025-10-15_20h22.14.412,HW_LDT_1,2024.2.4,MacIntel,62.5,,,,,,,,,,,,,,,,,,,,,42.2761,42.4737,42.4737,42.9735,42.9741,43.7068,z,1,0.7192,,[],[],[],[],[],[],[],0.7192,1,43.7069,44.2073,0,4,4,15,1,1016,NW,UN,16,mushed,WHAISE,z,,,,,,,,,,,,,,,,,,,,,,,,,,,,,,,,,,,,,,,,,,,,,,,,,,,,,,,,,,,,,,,,,,
,,,,31776,001,2025-10-15_20h22.14.412,HW_LDT_1,2024.2.4,MacIntel,62.5,,,,,,,,,,,,,,,,,,,,,44.2094,44.4071,44.4071,44.907,44.908,45.4899,m,1,0.5658,,[],[],[],[],[],[],[],0.5658,1,45.4899,45.9907,0,5,5,6,1,1007,WORD,UN,16,tropic,ZOMBIE,m,,,,,,,,,,,,,,,,,,,,,,,,,,,,,,,,,,,,,,,,,,,,,,,,,,,,,,,,,,,,,,,,,,
,,,,31776,001,2025-10-15_20h22.14.412,HW_LDT_1,2024.2.4,MacIntel,62.5,,,,,,,,,,,,,,,,,,,,,45.9926,46.1902,46.1903,46.6899,46.6904,47.5402,z,1,0.8337,,[],[],[],[],[],[],[],0.8337,1,47.5404,48.0407,0,6,6,8,1,1009,NW,"ID",33,aslert,ASLERT,z,,,,,,,,,,,,,,,,,,,,,,,,,,,,,,,,,,,,,,,,,,,,,,,,,,,,,,,,,,,,,,,,,,
,,,,31776,001,2025-10-15_20h22.14.412,HW_LDT_1,2024.2.4,MacIntel,62.5,,,,,,,,,,,,,,,,,,,,,48.0431,48.2401,48.2401,48.7408,48.742,49.4732,m,1,0.7183,,[],[],[],[],[],[],[],0.7183,1,49.4733,49.9731,0,7,7,5,1,1006,WORD,UN,33,frenzy,OBTAIN,m,,,,,,,,,,,,,,,,,,,,,,,,,,,,,,,,,,,,,,,,,,,,,,,,,,,,,,,,,,,,,,,,,,
,,,,31776,001,2025-10-15_20h22.14.412,HW_LDT_1,2024.2.4,MacIntel,62.5,,,,,,,,,,,,,,,,,,,,,49.9739,50.1729,50.1729,50.6729,50.6738,51.6569,z,1,0.9654,,[],[],[],[],[],[],[],0.9654,1,51.6571,52.1572,0,8,8,12,1,1013,NW,UN,33,adveil,SPRINY,z,,,,,,,,,,,,,,,,,,,,,,,,,,,,,,,,,,,,,,,,,,,,,,,,,,,,,,,,,,,,,,,,,,
,,,,31776,001,2025-10-15_20h22.14.412,HW_LDT_1,2024.2.4,MacIntel,62.5,,,,,,,,,,,,,,,,,,,,,52.1587,52.3568,52.3568,52.8569,52.8579,54.1735,z,1,1.299,,[],[],[],[],[],[],[],1.299,1,54.1736,54.673,0,9,9,9,1,1010,NW,"ID",33,fariny,FARINY,z,,,,,,,,,,,,,,,,,,,,,,,,,,,,,,,,,,,,,,,,,,,,,,,,,,,,,,,,,,,,,,,,,,
,,,,31776,001,2025-10-15_20h22.14.412,HW_LDT_1,2024.2.4,MacIntel,62.5,,,,,,,,,,,,,,,,,,,,,54.6739,54.8733,54.8733,55.373,55.3735,56.1563,m,1,0.7661,,[],[],[],[],[],[],[],0.7661,1,56.1565,56.6567,0,10,10,0,1,1001,WORD,"ID",33,utopia,UTOPIA,m,,,,,,,,,,,,,,,,,,,,,,,,,,,,,,,,,,,,,,,,,,,,,,,,,,,,,,,,,,,,,,,,,,
,,,,31776,001,2025-10-15_20h22.14.412,HW_LDT_1,2024.2.4,MacIntel,62.5,,,,,,,,,,,,,,,,,,,,,56.6586,56.8562,56.8562,57.3562,57.3567,57.9232,m,1,0.5488,,[],[],[],[],[],[],[],0.5488,1,57.9233,58.4228,0,11,11,7,1,1008,WORD,UN,16,hurdle,VOLUME,m,,,,,,,,,,,,,,,,,,,,,,,,,,,,,,,,,,,,,,,,,,,,,,,,,,,,,,,,,,,,,,,,,,
,,,,31776,001,2025-10-15_20h22.14.412,HW_LDT_1,2024.2.4,MacIntel,62.5,,,,,,,,,,,,,,,,,,,,,58.4236,58.6233,58.6233,59.1233,59.1242,60.8065,z,1,1.6668,,[],[],[],[],[],[],[],1.6668,1,60.8067,61.3065,0,12,12,11,1,1012,NW,"ID",16,rashet,RASHET,z,,,,,,,,,,,,,,,,,,,,,,,,,,,,,,,,,,,,,,,,,,,,,,,,,,,,,,,,,,,,,,,,,,
,,,,31776,001,2025-10-15_20h22.14.412,HW_LDT_1,2024.2.4,MacIntel,62.5,,,,,,,,,,,,,,,,,,,,,61.308,61.5065,61.5065,62.0066,62.0075,62.856,m,1,0.8363,,[],[],[],[],[],[],[],0.8363,1,62.8561,63.3564,0,13,13,2,1,1003,WORD,"ID",16,almond,ALMOND,m,,,,,,,,,,,,,,,,,,,,,,,,,,,,,,,,,,,,,,,,,,,,,,,,,,,,,,,,,,,,,,,,,,
,,,,31776,001,2025-10-15_20h22.14.412,HW_LDT_1,2024.2.4,MacIntel,62.5,,,,,,,,,,,,,,,,,,,,,63.3576,63.5563,63.5563,64.056,64.0565,65.5226,m,1,1.4503,,[],[],[],[],[],[],[],1.4503,1,65.5227,66.0225,0,14,14,4,1,1005,WORD,UN,33,abound,SQUEAK,m,,,,,,,,,,,,,,,,,,,,,,,,,,,,,,,,,,,,,,,,,,,,,,,,,,,,,,,,,,,,,,,,,,
,,,,31776,001,2025-10-15_20h22.14.412,HW_LDT_1,2024.2.4,MacIntel,62.5,,,,,,,,,,,,,,,,,,,,,66.0232,66.2224,66.2225,66.7225,66.7228,67.8063,z,1,1.0659,,[],[],[],[],[],[],[],1.0659,1,67.8063,68.3061,0,15,15,14,1,1015,NW,UN,16,miaber,THRALE,z,,,,,,,,,,,,,,,,,,,,,,,,,,,,,,,,,,,,,,,,,,,,,,,,,,,,,,,,,,,,,,,,,,
,,,,31776,001,2025-10-15_20h22.14.412,HW_LDT_1,2024.2.4,MacIntel,62.5,,,,,,,,,,,,,,,,1,end_of_practice,"You have completed the practice trials. During the experimental trials, you will not receive feedback. On some trials you will be asked to report whether the item you just saw was in cursive or print. 
Before you begin, please ensure that you are in a comfortable and quiet location and will not be disturbed for about 15 minutes, as we cannot use your data if you do not complete all the trials. 
 When you are ready to start the experimental trials, please press space or touch the button below.",,,,,,,,,,,,,,,,,,,,,,,,,,,,,,,,,,,,68.312,123.5878,space,55.2524,,-0.113551655,-0.078494066,0,0,0,0,0,0,0,1,,,,,,,,,,,,,,,,,,,,,,,,,,,,,,,,,,,,,,,,,,,,,,,,,,,
,,,,31776,001,2025-10-15_20h22.14.412,HW_LDT_1,2024.2.4,MacIntel,62.5,,,,,,,,,,,,,,,,,,,,,123.6007,123.7863,123.7864,124.2854,,,,,,,,,,,,,,1.3768,1,,,,,,,,,,,,,,z,,,,,,,,,,,,,,,,1,0,124.2862,125.6712,z,1,1.3768,,[],[],[],[],[],[],[],125.6713,127.6708,127.6711,127.674,[],[],[],[],[],[],[],,127.6742,127.6758,-0.113551655,-0.078494066,0,0,0,,0,0,0,49,1,2,TL,dedace,print,dedace_p.png,,,,,,
,,,,31776,001,2025-10-15_20h22.14.412,HW_LDT_1,2024.2.4,MacIntel,62.5,,,,,,,,,,,,,,,,,,,,,127.6767,127.8694,127.8695,128.3694,,,,,,,,,,,,,,1.2426,1,,,,,,,,,,,,,,z,,,,,,,,,,,,,,,,2,0,128.3698,129.6205,z,1,1.2426,,[],[],[],[],[],[],[],129.6208,131.6202,131.6203,131.6205,[],[],[],[],[],[],[],,131.6206,131.6207,-0.113551655,-0.078494066,0,0,0,,0,1,1,54,1,2,TL,liretal,cursive,liretal_c.png,,,,,,
,,,,31776,001,2025-10-15_20h22.14.412,HW_LDT_1,2024.2.4,MacIntel,62.5,,,,,,,,,,,,,,,,,,,,,131.6221,131.8194,131.8195,132.3202,,,,,,,,,,,,,,1.1455,1,,,,,,,,,,,,,,z,,,,,,,,,,,,,,,,3,0,132.3209,133.4702,z,1,1.1455,,[],[],[],[],[],[],[],133.4703,135.4701,135.4701,135.4704,[],[],[],[],[],[],[],,135.4705,135.4707,-0.113551655,-0.078494066,0,0,0,,0,2,2,43,1,2,TL,carema,print,carema_p.png,,,,,,
,,,,31776,001,2025-10-15_20h22.14.412,HW_LDT_1,2024.2.4,MacIntel,62.5,,,,,,,,,,,,,,,,,,,,,135.4722,135.6702,135.6702,136.17,,,,,,,,,,,,,,1.226,1,,,,,,,,,,,,,,m,,,,,,,,,,,,,,,,4,1,136.1708,137.4034,m,1,1.226,,[],[],[],[],[],[],[],137.4036,139.4032,139.4033,141.7529,[],[],[],[],[],[],[],z,141.7529,141.753,-0.113551655,-0.078494066,0,0,0,,0,3,3,91,1,2,word,CARDINAL,cursive,cardinal_c.png,2.3447,,,,,
,,,,31776,001,2025-10-15_20h22.14.412,HW_LDT_1,2024.2.4,MacIntel,62.5,,,,,,,,,,,,,,,,,,,,,141.7536,141.952,141.952,142.4528,,,,,,,,,,,,,,1.2808,1,,,,,,,,,,,,,,z,,,,,,,,,,,,,,,,5,0,142.4531,143.7364,z,1,1.2808,,[],[],[],[],[],[],[],143.7365,145.7355,145.7357,145.7359,[],[],[],[],[],[],[],,145.7359,145.736,-0.113551655,-0.078494066,0,0,0,,0,4,4,32,1,2,RL,speniven,print,speniven_p.png,,,,,,
,,,,31776,001,2025-10-15_20h22.14.412,HW_LDT_1,2024.2.4,MacIntel,62.5,,,,,,,,,,,,,,,,,,,,,145.7371,145.9363,145.9363,146.4363,,,,,,,,,,,,,,1.6547,1,,,,,,,,,,,,,,z,,,,,,,,,,,,,,,,6,0,146.4369,148.1021,z,1,1.6547,,[],[],[],[],[],[],[],148.1023,150.1019,150.102,150.1024,[],[],[],[],[],[],[],,150.1025,150.1027,-0.113551655,-0.078494066,0,0,0,,0,5,5,12,1,2,RL,gralekul,cursive,gralekul_c.png,,,,,,
,,,,31776,001,2025-10-15_20h22.14.412,HW_LDT_1,2024.2.4,MacIntel,62.5,,,,,,,,,,,,,,,,,,,,,150.1039,150.3027,150.3028,150.8023,,,,,,,,,,,,,,1.0199,1,,,,,,,,,,,,,,m,,,,,,,,,,,,,,,,7,0,150.803,151.8358,m,1,1.0199,,[],[],[],[],[],[],[],151.8358,153.836,153.836,153.8363,[],[],[],[],[],[],[],,153.8364,153.8366,-0.113551655,-0.078494066,0,0,0,,0,6,6,156,1,2,word,TRIBUTE,cursive,tribute_c.png,,,,,,
,,,,31776,001,2025-10-15_20h22.14.412,HW_LDT_1,2024.2.4,MacIntel,62.5,,,,,,,,,,,,,,,,,,,,,153.8377,154.036,154.036,154.536,,,,,,,,,,,,,,1.4408,1,,,,,,,,,,,,,,z,,,,,,,,,,,,,,,,8,0,154.5365,155.986,z,1,1.4408,,[],[],[],[],[],[],[],155.9861,157.9855,157.9856,157.9856,[],[],[],[],[],[],[],,157.9856,157.9857,-0.113551655,-0.078494066,0,0,0,,0,7,7,70,1,2,TL,retalive,print,retalive_p.png,,,,,,
,,,,31776,001,2025-10-15_20h22.14.412,HW_LDT_1,2024.2.4,MacIntel,62.5,,,,,,,,,,,,,,,,,,,,,157.9865,158.186,158.186,158.685,,,,,,,,,,,,,,1.5268,1,,,,,,,,,,,,,,z,,,,,,,,,,,,,,,,9,0,158.6857,160.2186,z,1,1.5268,,[],[],[],[],[],[],[],160.2187,162.219,162.219,162.2193,[],[],[],[],[],[],[],,162.2194,162.2196,-0.113551655,-0.078494066,0,0,0,,0,8,8,40,1,2,TL,bevoled,cursive,bevoled_c.png,,,,,,
,,,,31776,001,2025-10-15_20h22.14.412,HW_LDT_1,2024.2.4,MacIntel,62.5,,,,,,,,,,,,,,,,,,,,,162.221,162.4189,162.419,162.9189,,,,,,,,,,,,,,0.7246,1,,,,,,,,,,,,,,m,,,,,,,,,,,,,,,,10,0,162.9196,163.6524,m,1,0.7246,,[],[],[],[],[],[],[],163.6525,165.6522,165.6522,165.6523,[],[],[],[],[],[],[],,165.6524,165.6526,-0.113551655,-0.078494066,0,0,0,,0,9,9,92,1,2,word,CATEGORY,print,category_p.png,,,,,,
,,,,31776,001,2025-10-15_20h22.14.412,HW_LDT_1,2024.2.4,MacIntel,62.5,,,,,,,,,,,,,,,,,,,,,165.6537,165.8517,165.8517,166.3523,,,,,,,,,,,,,,1.1198,1,,,,,,,,,,,,,,m,,,,,,,,,,,,,,,,11,0,166.353,167.4852,m,1,1.1198,,[],[],[],[],[],[],[],167.4853,169.4846,169.4846,169.4848,[],[],[],[],[],[],[],,169.4849,169.4851,-0.113551655,-0.078494066,0,0,0,,0,10,10,94,1,2,word,CLINICAL,cursive,clinical_c.png,,,,,,
,,,,31776,001,2025-10-15_20h22.14.412,HW_LDT_1,2024.2.4,MacIntel,62.5,,,,,,,,,,,,,,,,,,,,,169.4866,169.6855,169.6855,170.1853,,,,,,,,,,,,,,0.7939,1,,,,,,,,,,,,,,z,,,,,,,,,,,,,,,,12,0,170.1858,170.9851,z,1,0.7939,,[],[],[],[],[],[],[],170.9852,172.9852,172.9852,172.9854,[],[],[],[],[],[],[],,172.9855,172.9856,-0.113551655,-0.078494066,0,0,0,,0,11,11,77,1,2,TL,sloten,print,sloten_p.png,,,,,,
,,,,31776,001,2025-10-15_20h22.14.412,HW_LDT_1,2024.2.4,MacIntel,62.5,,,,,,,,,,,,,,,,,,,,,172.9865,173.1852,173.1853,173.6852,,,,,,,,,,,,,,2.2564,1,,,,,,,,,,,,,,m,,,,,,,,,,,,,,,,13,1,173.6858,175.9515,m,1,2.2564,,[],[],[],[],[],[],[],175.9516,177.9512,177.9512,179.3349,[],[],[],[],[],[],[],z,179.335,179.3353,-0.113551655,-0.078494066,0,0,0,,0,12,12,117,1,2,word,MARINE,cursive,marine_c.png,1.3772,,,,,
,,,,31776,001,2025-10-15_20h22.14.412,HW_LDT_1,2024.2.4,MacIntel,62.5,,,,,,,,,,,,,,,,,,,,,179.3365,179.5351,179.5351,180.0349,,,,,,,,,,,,,,2.9566,1,,,,,,,,,,,,,,z,,,,,,,,,,,,,,,,14,0,180.0355,183.0017,z,1,2.9566,,[],[],[],[],[],[],[],183.0019,185.0016,185.0016,185.0018,[],[],[],[],[],[],[],,185.0019,185.002,-0.113551655,-0.078494066,0,0,0,,0,13,13,37,1,2,TL,adacemy,cursive,adacemy_c.png,,,,,,
,,,,31776,001,2025-10-15_20h22.14.412,HW_LDT_1,2024.2.4,MacIntel,62.5,,,,,,,,,,,,,,,,,,,,,185.0038,185.2015,185.2016,185.7005,,,,,,,,,,,,,,0.6657,1,,,,,,,,,,,,,,m,,,,,,,,,,,,,,,,15,1,185.701,186.3681,m,1,0.6657,,[],[],[],[],[],[],[],186.3682,188.368,188.3681,189.718,[],[],[],[],[],[],[],m,189.7181,189.7182,-0.113551655,-0.078494066,0,0,0,,0,14,14,83,1,2,word,ANIMAL,print,animal_p.png,1.3433,,,,,
,,,,31776,001,2025-10-15_20h22.14.412,HW_LDT_1,2024.2.4,MacIntel,62.5,,,,,,,,,,,,,,,,,,,,,189.7196,189.9181,189.9181,190.4179,,,,,,,,,,,,,,1.8968,1,,,,,,,,,,,,,,z,,,,,,,,,,,,,,,,16,0,190.4186,192.3168,z,1,1.8968,,[],[],[],[],[],[],[],192.3169,194.317,194.317,194.3172,[],[],[],[],[],[],[],,194.3172,194.3173,-0.113551655,-0.078494066,0,0,0,,0,15,15,50,1,2,TL,donimant,print,donimant_p.png,,,,,,
,,,,31776,001,2025-10-15_20h22.14.412,HW_LDT_1,2024.2.4,MacIntel,62.5,,,,,,,,,,,,,,,,,,,,,194.3185,194.518,194.5181,195.0177,,,,,,,,,,,,,,0.7447,1,,,,,,,,,,,,,,m,,,,,,,,,,,,,,,,17,1,195.0182,195.7677,m,1,0.7447,,[],[],[],[],[],[],[],195.7678,197.7675,197.7676,198.9002,[],[],[],[],[],[],[],m,198.9003,198.9004,-0.113551655,-0.078494066,0,0,0,,0,16,16,89,1,2,word,CAPACITY,print,capacity_p.png,1.1234,,,,,
,,,,31776,001,2025-10-15_20h22.14.412,HW_LDT_1,2024.2.4,MacIntel,62.5,,,,,,,,,,,,,,,,,,,,,198.9009,199.101,199.101,199.6009,,,,,,,,,,,,,,2.2465,1,,,,,,,,,,,,,,m,,,,,,,,,,,,,,,,18,0,199.6015,201.8508,m,1,2.2465,,[],[],[],[],[],[],[],201.851,203.8509,203.8509,203.8511,[],[],[],[],[],[],[],,203.8512,203.8513,-0.113551655,-0.078494066,0,0,0,,0,17,17,95,1,2,word,COMEDY,cursive,comedy_c.png,,,,,,
,,,,31776,001,2025-10-15_20h22.14.412,HW_LDT_1,2024.2.4,MacIntel,62.5,,,,,,,,,,,,,,,,,,,,,203.8528,204.0504,204.0504,204.551,,,,,,,,,,,,,,1.2549,0,,,,,,,,,,,,,,z,,,,,,,,,,,,,,,,19,0,204.5514,205.8173,m,0,1.2549,,[],[],[],[],[],[],[],205.8175,207.8172,207.8172,207.8174,[],[],[],[],[],[],[],,207.8174,207.8176,-0.113551655,-0.078494066,0,0,0,,0,18,18,27,1,2,RL,repifion,cursive,repifion_c.png,,,,,,
,,,,31776,001,2025-10-15_20h22.14.412,HW_LDT_1,2024.2.4,MacIntel,62.5,,,,,,,,,,,,,,,,,,,,,207.8188,208.0173,208.0174,208.5171,,,,,,,,,,,,,,1.4265,1,,,,,,,,,,,,,,z,,,,,,,,,,,,,,,,20,0,208.5177,209.9501,z,1,1.4265,,[],[],[],[],[],[],[],209.9502,211.9502,211.9502,211.9503,[],[],[],[],[],[],[],,211.9504,211.9505,-0.113551655,-0.078494066,0,0,0,,0,19,19,73,1,2,TL,redisent,print,redisent_p.png,,,,,,
,,,,31776,001,2025-10-15_20h22.14.412,HW_LDT_1,2024.2.4,MacIntel,62.5,,,,,,,,,,,,,,,,,,,,,211.9511,212.1505,212.1505,212.6505,,,,,,,,,,,,,,2.1629,1,,,,,,,,,,,,,,z,,,,,,,,,,,,,,,,21,0,212.6511,214.8162,z,1,2.1629,,[],[],[],[],[],[],[],214.8163,216.8169,216.817,216.8172,[],[],[],[],[],[],[],,216.8173,216.8175,-0.113551655,-0.078494066,0,0,0,,0,20,20,68,1,2,TL,quatily,cursive,quatily_c.png,,,,,,
,,,,31776,001,2025-10-15_20h22.14.412,HW_LDT_1,2024.2.4,MacIntel,62.5,,,,,,,,,,,,,,,,,,,,,216.8186,217.0168,217.0169,217.5169,,,,,,,,,,,,,,2.1381,1,,,,,,,,,,,,,,z,,,,,,,,,,,,,,,,22,0,217.5178,219.6663,z,1,2.1381,,[],[],[],[],[],[],[],219.6664,221.6662,221.6662,221.6664,[],[],[],[],[],[],[],,221.6665,221.6665,-0.113551655,-0.078494066,0,0,0,,0,21,21,28,1,2,RL,revune,cursive,revune_c.png,,,,,,
,,,,31776,001,2025-10-15_20h22.14.412,HW_LDT_1,2024.2.4,MacIntel,62.5,,,,,,,,,,,,,,,,,,,,,221.6678,221.8662,221.8662,222.3667,,,,,,,,,,,,,,1.5116,1,,,,,,,,,,,,,,m,,,,,,,,,,,,,,,,23,0,222.3674,223.8834,m,1,1.5116,,[],[],[],[],[],[],[],223.8835,225.8832,225.8833,225.8833,[],[],[],[],[],[],[],,225.8834,225.8834,-0.113551655,-0.078494066,0,0,0,,0,22,22,132,1,2,word,PROPOSAL,cursive,proposal_c.png,,,,,,
,,,,31776,001,2025-10-15_20h22.14.412,HW_LDT_1,2024.2.4,MacIntel,62.5,,,,,,,,,,,,,,,,,,,,,225.8847,226.0833,226.0833,226.5832,,,,,,,,,,,,,,1.0033,1,,,,,,,,,,,,,,m,,,,,,,,,,,,,,,,24,0,226.584,227.5998,m,1,1.0033,,[],[],[],[],[],[],[],227.5998,229.5995,229.5997,229.5998,[],[],[],[],[],[],[],,229.5998,229.6,-0.113551655,-0.078494066,0,0,0,,0,23,23,104,1,2,word,DOMINANT,print,dominant_p.png,,,,,,
,,,,31776,001,2025-10-15_20h22.14.412,HW_LDT_1,2024.2.4,MacIntel,62.5,,,,,,,,,,,,,,,,,,,,,229.601,229.7998,229.7998,230.2993,,,,,,,,,,,,,,2.3132,1,,,,,,,,,,,,,,m,,,,,,,,,,,,,,,,25,0,230.3,232.6156,m,1,2.3132,,[],[],[],[],[],[],[],232.6157,234.6162,234.6162,234.6164,[],[],[],[],[],[],[],,234.6165,234.6166,-0.113551655,-0.078494066,0,0,0,,0,24,24,119,1,2,word,MEMORY,cursive,memory_c.png,,,,,,
,,,,31776,001,2025-10-15_20h22.14.412,HW_LDT_1,2024.2.4,MacIntel,62.5,,,,,,,,,,,,,,,,,,,,,234.6179,234.8163,234.8163,235.3162,,,,,,,,,,,,,,0.8951,1,,,,,,,,,,,,,,m,,,,,,,,,,,,,,,,26,1,235.3168,236.2161,m,1,0.8951,,[],[],[],[],[],[],[],236.2161,238.2161,238.2161,239.0494,[],[],[],[],[],[],[],m,239.0495,239.0496,-0.113551655,-0.078494066,0,0,0,,0,25,25,143,1,2,word,REMOVAL,print,removal_p.png,0.8302,,,,,
,,,,31776,001,2025-10-15_20h22.14.412,HW_LDT_1,2024.2.4,MacIntel,62.5,,,,,,,,,,,,,,,,,,,,,239.0507,239.2493,239.2494,239.749,,,,,,,,,,,,,,0.722,1,,,,,,,,,,,,,,m,,,,,,,,,,,,,,,,27,0,239.7493,240.482,m,1,0.722,,[],[],[],[],[],[],[],240.482,242.4826,242.4826,242.4828,[],[],[],[],[],[],[],,242.4829,242.483,-0.113551655,-0.078494066,0,0,0,,0,26,26,140,1,2,word,RELATIVE,print,relative_p.png,,,,,,
,,,,31776,001,2025-10-15_20h22.14.412,HW_LDT_1,2024.2.4,MacIntel,62.5,,,,,,,,,,,,,,,,,,,,,242.4842,242.6826,242.6827,243.1825,,,,,,,,,,,,,,2.263,0,,,,,,,,,,,,,,m,,,,,,,,,,,,,,,,28,1,243.1832,245.4491,z,0,2.263,,[],[],[],[],[],[],[],245.4492,247.4491,247.4492,248.4323,[],[],[],[],[],[],[],z,248.4323,248.4324,-0.113551655,-0.078494066,0,0,0,,0,27,27,111,1,2,word,INDICATE,cursive,indicate_c.png,0.9795,,,,,
,,,,31776,001,2025-10-15_20h22.14.412,HW_LDT_1,2024.2.4,MacIntel,62.5,,,,,,,,,,,,,,,,,,,,,248.4333,248.6317,248.6318,249.1323,,,,,,,,,,,,,,0.729,1,,,,,,,,,,,,,,m,,,,,,,,,,,,,,,,29,0,249.1331,249.8655,m,1,0.729,,[],[],[],[],[],[],[],249.8657,251.8648,251.8649,251.8651,[],[],[],[],[],[],[],,251.8651,251.8652,-0.113551655,-0.078494066,0,0,0,,0,28,28,127,1,2,word,ORIGINAL,print,original_p.png,,,,,,
,,,,31776,001,2025-10-15_20h22.14.412,HW_LDT_1,2024.2.4,MacIntel,62.5,,,,,,,,,,,,,,,,,,,,,251.8664,252.0655,252.0656,252.5656,,,,,,,,,,,,,,0.9214,1,,,,,,,,,,,,,,m,,,,,,,,,,,,,,,,30,0,252.566,253.4989,m,1,0.9214,,[],[],[],[],[],[],[],253.499,255.4987,255.4988,255.4989,[],[],[],[],[],[],[],,255.499,255.4991,-0.113551655,-0.078494066,0,0,0,,0,29,29,87,1,2,word,CAFETERIA,print,cafeteria_p.png,,,,,,
,,,,31776,001,2025-10-15_20h22.14.412,HW_LDT_1,2024.2.4,MacIntel,62.5,,,,,,,,,,,,,,,,,,,,,255.5002,255.6986,255.6986,256.1988,,,,,,,,,,,,,,2.7465,0,,,,,,,,,,,,,,z,,,,,,,,,,,,,,,,31,0,256.1994,258.9485,m,0,2.7465,,[],[],[],[],[],[],[],258.9485,260.948,260.9481,260.9481,[],[],[],[],[],[],[],,260.9482,260.9482,-0.113551655,-0.078494066,0,0,0,,0,30,30,61,1,2,TL,nuremical,cursive,nuremical_c.png,,,,,,
,,,,31776,001,2025-10-15_20h22.14.412,HW_LDT_1,2024.2.4,MacIntel,62.5,,,,,,,,,,,,,,,,,,,,,260.9488,261.1485,261.1486,261.6485,,,,,,,,,,,,,,0.888,1,,,,,,,,,,,,,,z,,,,,,,,,,,,,,,,32,0,261.6491,262.5485,z,1,0.888,,[],[],[],[],[],[],[],262.5487,264.5484,264.5485,264.5487,[],[],[],[],[],[],[],,264.5488,264.5489,-0.113551655,-0.078494066,0,0,0,,0,31,31,21,1,2,RL,pamest,print,pamest_p.png,,,,,,
,,,,31776,001,2025-10-15_20h22.14.412,HW_LDT_1,2024.2.4,MacIntel,62.5,,,,,,,,,,,,,,,,,,,,,264.5501,264.7482,264.7483,265.2484,,,,,,,,,,,,,,1.5465,1,,,,,,,,,,,,,,z,,,,,,,,,,,,,,,,33,1,265.249,266.7971,z,1,1.5465,,[],[],[],[],[],[],[],266.7972,268.7973,268.7973,270.6315,[],[],[],[],[],[],[],z,270.6316,270.6318,-0.113551655,-0.078494066,0,0,0,,0,32,32,60,1,2,TL,molibe,print,molibe_p.png,1.8326,,,,,
,,,,31776,001,2025-10-15_20h22.14.412,HW_LDT_1,2024.2.4,MacIntel,62.5,,,,,,,,,,,,,,,,,,,,,270.633,270.8311,270.8312,271.3313,,,,,,,,,,,,,,1.3704,1,,,,,,,,,,,,,,m,,,,,,,,,,,,,,,,34,0,271.3319,272.7149,m,1,1.3704,,[],[],[],[],[],[],[],272.715,274.7143,274.7144,274.7145,[],[],[],[],[],[],[],,274.7145,274.7146,-0.113551655,-0.078494066,0,0,0,,0,33,33,128,1,2,word,PACIFIC,print,pacific_p.png,,,,,,
,,,,31776,001,2025-10-15_20h22.14.412,HW_LDT_1,2024.2.4,MacIntel,62.5,,,,,,,,,,,,,,,,,,,,,274.7153,274.9145,274.9145,275.4146,,,,,,,,,,,,,,2.0044,1,,,,,,,,,,,,,,z,,,,,,,,,,,,,,,,35,0,275.4152,277.4311,z,1,2.0044,,[],[],[],[],[],[],[],277.4312,279.43,279.4301,279.4301,[],[],[],[],[],[],[],,279.4302,279.4303,-0.113551655,-0.078494066,0,0,0,,0,34,34,8,1,2,RL,desifate,print,desifate_p.png,,,,,,
,,,,31776,001,2025-10-15_20h22.14.412,HW_LDT_1,2024.2.4,MacIntel,62.5,,,,,,,,,,,,,,,,,,,,,279.4314,279.6304,279.6304,280.13,,,,,,,,,,,,,,0.836,1,,,,,,,,,,,,,,z,,,,,,,,,,,,,,,,36,0,280.1304,280.98,z,1,0.836,,[],[],[],[],[],[],[],280.9801,282.9806,282.9807,282.9808,[],[],[],[],[],[],[],,282.9808,282.9808,-0.113551655,-0.078494066,0,0,0,,0,35,35,26,1,2,RL,retupar,cursive,retupar_c.png,,,,,,
,,,,31776,001,2025-10-15_20h22.14.412,HW_LDT_1,2024.2.4,MacIntel,62.5,,,,,,,,,,,,,,,,,,,,,282.9819,283.1801,283.1801,283.6802,,,,,,,,,,,,,,1.7818,0,,,,,,,,,,,,,,m,,,,,,,,,,,,,,,,37,0,283.6804,285.4631,z,0,1.7818,,[],[],[],[],[],[],[],285.4633,287.4638,287.4639,287.4639,[],[],[],[],[],[],[],,287.4639,287.464,-0.113551655,-0.078494066,0,0,0,,0,36,36,120,1,2,word,MILITARY,cursive,military_c.png,,,,,,
,,,,31776,001,2025-10-15_20h22.14.412,HW_LDT_1,2024.2.4,MacIntel,62.5,,,,,,,,,,,,,,,,,,,,,287.4647,287.6634,287.6634,288.1634,,,,,,,,,,,,,,0.7269,1,,,,,,,,,,,,,,m,,,,,,,,,,,,,,,,38,0,288.1636,288.8968,m,1,0.7269,,[],[],[],[],[],[],[],288.8968,290.897,290.897,290.8973,[],[],[],[],[],[],[],,290.8973,290.8973,-0.113551655,-0.078494066,0,0,0,,0,37,37,129,1,2,word,PARENT,print,parent_p.png,,,,,,
,,,,31776,001,2025-10-15_20h22.14.412,HW_LDT_1,2024.2.4,MacIntel,62.5,,,,,,,,,,,,,,,,,,,,,290.8983,291.097,291.097,291.5967,,,,,,,,,,,,,,2.4546,1,,,,,,,,,,,,,,m,,,,,,,,,,,,,,,,39,1,291.5971,294.064,m,1,2.4546,,[],[],[],[],[],[],[],294.064,296.0636,296.0636,297.6803,[],[],[],[],[],[],[],z,297.6803,297.6804,-0.113551655,-0.078494066,0,0,0,,0,38,38,155,1,2,word,STRATEGY,cursive,strategy_c.png,1.6059,,,,,
,,,,31776,001,2025-10-15_20h22.14.412,HW_LDT_1,2024.2.4,MacIntel,62.5,,,,,,,,,,,,,,,,,,,,,297.6813,297.8802,297.8802,298.38,,,,,,,,,,,,,,0.8382,1,,,,,,,,,,,,,,m,,,,,,,,,,,,,,,,40,0,298.3804,299.2303,m,1,0.8382,,[],[],[],[],[],[],[],299.2303,301.2301,301.2301,301.2302,[],[],[],[],[],[],[],,301.2302,301.2303,-0.113551655,-0.078494066,0,0,0,,0,39,39,153,1,2,word,STOLEN,print,stolen_p.png,,,,,,
,,,,31776,001,2025-10-15_20h22.14.412,HW_LDT_1,2024.2.4,MacIntel,62.5,,,,,,,,,,,,,,,,,,,,,301.2314,301.4297,301.4299,301.9301,,,,,,,,,,,,,,2.3885,1,,,,,,,,,,,,,,m,,,,,,,,,,,,,,,,41,0,301.9304,304.3301,m,1,2.3885,,[],[],[],[],[],[],[],304.3302,306.3291,306.3292,306.3295,[],[],[],[],[],[],[],,306.3295,306.3297,-0.113551655,-0.078494066,0,0,0,,0,40,40,134,1,2,word,QUALIFY,cursive,qualify_c.png,,,,,,
,,,,31776,001,2025-10-15_20h22.14.412,HW_LDT_1,2024.2.4,MacIntel,62.5,,,,,,,,,,,,,,,,,,,,,306.3308,306.53,306.5301,307.0289,,,,,,,,,,,,,,0.825,1,,,,,,,,,,,,,,m,,,,,,,,,,,,,,,,42,0,307.0296,307.8629,m,1,0.825,,[],[],[],[],[],[],[],307.863,309.8624,309.8624,309.8629,[],[],[],[],[],[],[],,309.863,309.8631,-0.113551655,-0.078494066,0,0,0,,0,41,41,102,1,2,word,DENSITY,print,density_p.png,,,,,,
,,,,31776,001,2025-10-15_20h22.14.412,HW_LDT_1,2024.2.4,MacIntel,62.5,,,,,,,,,,,,,,,,,,,,,309.8639,310.0631,310.0632,310.5629,,,,,,,,,,,,,,1.1368,1,,,,,,,,,,,,,,z,,,,,,,,,,,,,,,,43,0,310.5635,311.7128,z,1,1.1368,,[],[],[],[],[],[],[],311.7129,313.7129,313.713,313.7132,[],[],[],[],[],[],[],,313.7133,313.7134,-0.113551655,-0.078494066,0,0,0,,0,42,42,31,1,2,RL,spetisic,print,spetisic_p.png,,,,,,
,,,,31776,001,2025-10-15_20h22.14.412,HW_LDT_1,2024.2.4,MacIntel,62.5,,,,,,,,,,,,,,,,,,,,,313.7143,313.9123,313.9123,314.4123,,,,,,,,,,,,,,1.0866,1,,,,,,,,,,,,,,m,,,,,,,,,,,,,,,,44,1,314.413,315.513,m,1,1.0866,,[],[],[],[],[],[],[],315.5131,317.5128,317.5128,318.679,[],[],[],[],[],[],[],m,318.6791,318.6792,-0.113551655,-0.078494066,0,0,0,,0,43,43,157,1,2,word,VALIDITY,print,validity_p.png,1.1565,,,,,
,,,,31776,001,2025-10-15_20h22.14.412,HW_LDT_1,2024.2.4,MacIntel,62.5,,,,,,,,,,,,,,,,,,,,,318.6806,318.8794,318.8795,319.3795,,,,,,,,,,,,,,0.937,1,,,,,,,,,,,,,,z,,,,,,,,,,,,,,,,45,0,319.3802,320.3294,z,1,0.937,,[],[],[],[],[],[],[],320.3295,322.3289,322.329,322.3292,[],[],[],[],[],[],[],,322.3293,322.3294,-0.113551655,-0.078494066,0,0,0,,0,44,44,36,1,2,RL,vecelan,print,vecelan_p.png,,,,,,
,,,,31776,001,2025-10-15_20h22.14.412,HW_LDT_1,2024.2.4,MacIntel,62.5,,,,,,,,,,,,,,,,,,,,,322.3307,322.5287,322.5287,323.0287,,,,,,,,,,,,,,0.7372,1,,,,,,,,,,,,,,m,,,,,,,,,,,,,,,,46,0,323.0294,323.7793,m,1,0.7372,,[],[],[],[],[],[],[],323.7794,325.7787,325.7787,325.7788,[],[],[],[],[],[],[],,325.7789,325.7789,-0.113551655,-0.078494066,0,0,0,,0,45,45,112,1,2,word,LIBERAL,print,liberal_p.png,,,,,,
,,,,31776,001,2025-10-15_20h22.14.412,HW_LDT_1,2024.2.4,MacIntel,62.5,,,,,,,,,,,,,,,,,,,,,325.7797,325.979,325.9791,326.479,,,,,,,,,,,,,,0.9871,1,,,,,,,,,,,,,,z,,,,,,,,,,,,,,,,47,1,326.4797,327.479,z,1,0.9871,,[],[],[],[],[],[],[],327.4791,329.479,329.479,331.8789,[],[],[],[],[],[],[],m,331.879,331.8791,-0.113551655,-0.078494066,0,0,0,,0,46,46,16,1,2,RL,losipal,print,losipal_p.png,2.3914,,,,,
,,,,31776,001,2025-10-15_20h22.14.412,HW_LDT_1,2024.2.4,MacIntel,62.5,,,,,,,,,,,,,,,,,,,,,331.8805,332.0789,332.0789,332.5783,,,,,,,,,,,,,,1.6545,1,,,,,,,,,,,,,,m,,,,,,,,,,,,,,,,48,0,332.5788,334.2455,m,1,1.6545,,[],[],[],[],[],[],[],334.2455,336.2453,336.2453,336.2457,[],[],[],[],[],[],[],,336.2458,336.2459,-0.113551655,-0.078494066,0,0,0,,0,47,47,98,1,2,word,CRIMINAL,cursive,criminal_c.png,,,,,,
,,,,31776,001,2025-10-15_20h22.14.412,HW_LDT_1,2024.2.4,MacIntel,62.5,,,,,,,,,,,,,,,,,,,,,336.247,336.4449,336.4449,336.9452,,,,,,,,,,,,,,1.9377,1,,,,,,,,,,,,,,m,,,,,,,,,,,,,,,,49,0,336.9458,338.8953,m,1,1.9377,,[],[],[],[],[],[],[],338.8954,340.8946,340.8946,340.8947,[],[],[],[],[],[],[],,340.8948,340.8948,-0.113551655,-0.078494066,0,0,0,,0,48,48,82,1,2,word,AMATEUR,cursive,amateur_c.png,,,,,,
,,,,31776,001,2025-10-15_20h22.14.412,HW_LDT_1,2024.2.4,MacIntel,62.5,,,,,,,,,,,,,,,,,,,,,340.8962,341.0943,341.0943,341.5945,,,,,,,,,,,,,,1.4375,1,,,,,,,,,,,,,,z,,,,,,,,,,,,,,,,50,1,341.5951,343.0448,z,1,1.4375,,[],[],[],[],[],[],[],343.0449,345.0449,345.0449,346.1784,[],[],[],[],[],[],[],z,346.1784,346.1785,-0.113551655,-0.078494066,0,0,0,,0,49,49,3,1,2,RL,capefory,print,capefory_p.png,1.1229,,,,,
,,,,31776,001,2025-10-15_20h22.14.412,HW_LDT_1,2024.2.4,MacIntel,62.5,,,,,,,,,,,,,,,,,,,,,346.1799,346.3781,346.3782,346.8781,,,,,,,,,,,,,,1.0211,1,,,,,,,,,,,,,,m,,,,,,,,,,,,,,,,51,0,346.8787,347.9115,m,1,1.0211,,[],[],[],[],[],[],[],347.9116,349.9112,349.9112,349.9113,[],[],[],[],[],[],[],,349.9114,349.9114,-0.113551655,-0.078494066,0,0,0,,0,50,50,158,1,2,word,VELOCITY,print,velocity_p.png,,,,,,
,,,,31776,001,2025-10-15_20h22.14.412,HW_LDT_1,2024.2.4,MacIntel,62.5,,,,,,,,,,,,,,,,,,,,,349.9123,350.1114,350.1115,350.6112,,,,,,,,,,,,,,0.777,1,,,,,,,,,,,,,,z,,,,,,,,,,,,,,,,52,0,350.6117,351.394,z,1,0.777,,[],[],[],[],[],[],[],351.3941,353.3935,353.3935,353.3935,[],[],[],[],[],[],[],,353.3936,353.3936,-0.113551655,-0.078494066,0,0,0,,0,51,51,2,1,2,RL,casagity,print,casagity_p.png,,,,,,
,,,,31776,001,2025-10-15_20h22.14.412,HW_LDT_1,2024.2.4,MacIntel,62.5,,,,,,,,,,,,,,,,,,,,,353.3942,353.5937,353.5938,354.0946,,,,,,,,,,,,,,2.821,0,,,,,,,,,,,,,,m,,,,,,,,,,,,,,,,53,0,354.0952,356.9279,z,0,2.821,,[],[],[],[],[],[],[],356.9279,358.9277,358.9277,358.9278,[],[],[],[],[],[],[],,358.9279,358.9279,-0.113551655,-0.078494066,0,0,0,,0,52,52,107,1,2,word,EVIDENT,cursive,evident_c.png,,,,,,
,,,,31776,001,2025-10-15_20h22.14.412,HW_LDT_1,2024.2.4,MacIntel,62.5,,,,,,,,,,,,,,,,,,,,,358.9291,359.1275,359.1275,359.6276,,,,,,,,,,,,,,1.2707,1,,,,,,,,,,,,,,m,,,,,,,,,,,,,,,,54,0,359.6281,360.9111,m,1,1.2707,,[],[],[],[],[],[],[],360.9111,362.9102,362.9102,362.9103,[],[],[],[],[],[],[],,362.9104,362.9104,-0.113551655,-0.078494066,0,0,0,,0,53,53,136,1,2,word,RADICAL,cursive,radical_c.png,,,,,,
,,,,31776,001,2025-10-15_20h22.14.412,HW_LDT_1,2024.2.4,MacIntel,62.5,,,,,,,,,,,,,,,,,,,,,362.9115,363.1108,363.1109,363.6111,,,,,,,,,,,,,,2.1764,1,,,,,,,,,,,,,,m,,,,,,,,,,,,,,,,55,0,363.6118,365.7939,m,1,2.1764,,[],[],[],[],[],[],[],365.7939,367.794,367.794,367.7942,[],[],[],[],[],[],[],,367.7942,367.7943,-0.113551655,-0.078494066,0,0,0,,0,54,54,116,1,2,word,MARGINAL,cursive,marginal_c.png,,,,,,
,,,,31776,001,2025-10-15_20h22.14.412,HW_LDT_1,2024.2.4,MacIntel,62.5,,,,,,,,,,,,,,,,,,,,,367.7952,367.9942,367.9942,368.4943,,,,,,,,,,,,,,1.8379,1,,,,,,,,,,,,,,m,,,,,,,,,,,,,,,,56,0,368.495,370.3439,m,1,1.8379,,[],[],[],[],[],[],[],370.3441,372.3429,372.343,372.3432,[],[],[],[],[],[],[],,372.3434,372.3436,-0.113551655,-0.078494066,0,0,0,,0,55,55,152,1,2,word,SPECIMEN,print,specimen_p.png,,,,,,
,,,,31776,001,2025-10-15_20h22.14.412,HW_LDT_1,2024.2.4,MacIntel,62.5,,,,,,,,,,,,,,,,,,,,,372.3451,372.5438,372.544,373.0439,,,,,,,,,,,,,,2.0437,1,,,,,,,,,,,,,,m,,,,,,,,,,,,,,,,57,0,373.0445,375.0943,m,1,2.0437,,[],[],[],[],[],[],[],375.0944,377.0937,377.0937,377.0938,[],[],[],[],[],[],[],,377.0939,377.0939,-0.113551655,-0.078494066,0,0,0,,0,56,56,101,1,2,word,DELICATE,print,delicate_p.png,,,,,,
,,,,31776,001,2025-10-15_20h22.14.412,HW_LDT_1,2024.2.4,MacIntel,62.5,,,,,,,,,,,,,,,,,,,,,377.0951,377.2934,377.2934,377.7938,,,,,,,,,,,,,,3.0877,1,,,,,,,,,,,,,,z,,,,,,,,,,,,,,,,58,0,377.7942,380.8936,z,1,3.0877,,[],[],[],[],[],[],[],380.8936,382.8937,382.8944,382.8954,[],[],[],[],[],[],[],,382.8954,382.8955,-0.113551655,-0.078494066,0,0,0,,0,57,57,57,1,2,TL,meromy,cursive,meromy_c.png,,,,,,
,,,,31776,001,2025-10-15_20h22.14.412,HW_LDT_1,2024.2.4,MacIntel,62.5,,,,,,,,,,,,,,,,,,,,,382.8971,383.0938,383.0939,383.593,,,,,,,,,,,,,,1.6381,1,,,,,,,,,,,,,,m,,,,,,,,,,,,,,,,59,0,383.5939,385.243,m,1,1.6381,,[],[],[],[],[],[],[],385.2431,387.2432,387.2433,387.2436,[],[],[],[],[],[],[],,387.2436,387.2437,-0.113551655,-0.078494066,0,0,0,,0,58,58,124,1,2,word,NUMERICAL,cursive,numerical_c.png,,,,,,
,,,,31776,001,2025-10-15_20h22.14.412,HW_LDT_1,2024.2.4,MacIntel,62.5,,,,,,,,,,,,,,,,,,,,,387.2443,387.4432,387.4433,387.943,,,,,,,,,,,,,,1.5239,1,,,,,,,,,,,,,,z,,,,,,,,,,,,,,,,60,0,387.9433,389.4771,z,1,1.5239,,[],[],[],[],[],[],[],389.4771,391.4768,391.4769,391.4771,[],[],[],[],[],[],[],,391.4771,391.4772,-0.113551655,-0.078494066,0,0,0,,0,59,59,42,1,2,TL,bedise,cursive,bedise_c.png,,,,,,
,,,,31776,001,2025-10-15_20h22.14.412,HW_LDT_1,2024.2.4,MacIntel,62.5,,,,,,,,,,,,,,,,,,,,,391.4783,391.6759,391.676,392.1765,,,,,,,,,,,,,,1.015,1,,,,,,,,,,,,,,m,,,,,,,,,,,,,,,,61,0,392.177,393.1942,m,1,1.015,,[],[],[],[],[],[],[],393.1943,395.1927,395.1928,395.1934,[],[],[],[],[],[],[],,395.1935,395.1935,-0.113551655,-0.078494066,0,0,0,,0,60,60,86,1,2,word,BESIDE,cursive,beside_c.png,,,,,,
,,,,31776,001,2025-10-15_20h22.14.412,HW_LDT_1,2024.2.4,MacIntel,62.5,,,,,,,,,,,,,,,,,,,,,395.195,395.3927,395.393,395.8934,,,,,,,,,,,,,,1.6268,0,,,,,,,,,,,,,,m,,,,,,,,,,,,,,,,62,0,395.8939,397.526,z,0,1.6268,,[],[],[],[],[],[],[],397.5262,399.5254,399.5254,399.5256,[],[],[],[],[],[],[],,399.5256,399.5256,-0.113551655,-0.078494066,0,0,0,,0,61,61,97,1,2,word,COVERAGE,cursive,coverage_c.png,,,,,,
,,,,31776,001,2025-10-15_20h22.14.412,HW_LDT_1,2024.2.4,MacIntel,62.5,,,,,,,,,,,,,,,,,,,,,399.527,399.7252,399.7254,400.2263,,,,,,,,,,,,,,0.8729,1,,,,,,,,,,,,,,m,,,,,,,,,,,,,,,,63,0,400.227,401.1096,m,1,0.8729,,[],[],[],[],[],[],[],401.1097,403.1094,403.1095,403.1097,[],[],[],[],[],[],[],,403.1097,403.1099,-0.113551655,-0.078494066,0,0,0,,0,62,62,110,1,2,word,HERITAGE,print,heritage_p.png,,,,,,
,,,,31776,001,2025-10-15_20h22.14.412,HW_LDT_1,2024.2.4,MacIntel,62.5,,,,,,,,,,,,,,,,,,,,,403.1108,403.3093,403.3093,403.8084,,,,,,,,,,,,,,1.112,1,,,,,,,,,,,,,,z,,,,,,,,,,,,,,,,64,0,403.809,404.928,z,1,1.112,,[],[],[],[],[],[],[],404.9282,406.9258,406.9258,406.9259,[],[],[],[],[],[],[],,406.9259,406.926,-0.113551655,-0.078494066,0,0,0,,0,63,63,22,1,2,RL,posity,print,posity_p.png,,,,,,
,,,,31776,001,2025-10-15_20h22.14.412,HW_LDT_1,2024.2.4,MacIntel,62.5,,,,,,,,,,,,,,,,,,,,,406.9274,407.126,407.126,407.6259,,,,,,,,,,,,,,1.0564,1,,,,,,,,,,,,,,m,,,,,,,,,,,,,,,,65,0,407.627,408.6926,m,1,1.0564,,[],[],[],[],[],[],[],408.6927,410.6925,410.6927,410.6928,[],[],[],[],[],[],[],,410.6928,410.6932,-0.113551655,-0.078494066,0,0,0,,0,64,64,122,1,2,word,MOBILE,print,mobile_p.png,,,,,,
,,,,31776,001,2025-10-15_20h22.14.412,HW_LDT_1,2024.2.4,MacIntel,62.5,,,,,,,,,,,,,,,,,,,,,410.6946,410.8922,410.8923,411.3923,,,,,,,,,,,,,,1.1053,1,,,,,,,,,,,,,,m,,,,,,,,,,,,,,,,66,0,411.3933,412.5092,m,1,1.1053,,[],[],[],[],[],[],[],412.5093,414.5089,414.509,414.5091,[],[],[],[],[],[],[],,414.5092,414.5092,-0.113551655,-0.078494066,0,0,0,,0,65,65,108,1,2,word,FORTUNE,print,fortune_p.png,,,,,,
,,,,31776,001,2025-10-15_20h22.14.412,HW_LDT_1,2024.2.4,MacIntel,62.5,,,,,,,,,,,,,,,,,,,,,414.5108,414.7081,414.7081,415.2086,,,,,,,,,,,,,,0.9747,1,,,,,,,,,,,,,,z,,,,,,,,,,,,,,,,67,0,415.2088,416.1922,z,1,0.9747,,[],[],[],[],[],[],[],416.1923,418.192,418.1923,418.1925,[],[],[],[],[],[],[],,418.1925,418.1926,-0.113551655,-0.078494066,0,0,0,,0,66,66,4,1,2,RL,cenesony,print,cenesony_p.png,,,,,,
,,,,31776,001,2025-10-15_20h22.14.412,HW_LDT_1,2024.2.4,MacIntel,62.5,,,,,,,,,,,,,,,,,,,,,418.1942,418.3917,418.3917,418.8917,,,,,,,,,,,,,,1.7745,1,,,,,,,,,,,,,,z,,,,,,,,,,,,,,,,68,0,418.8921,420.6759,z,1,1.7745,,[],[],[],[],[],[],[],420.676,422.6753,422.6754,422.6757,[],[],[],[],[],[],[],,422.6757,422.6758,-0.113551655,-0.078494066,0,0,0,,0,67,67,17,1,2,RL,macise,cursive,macise_c.png,,,,,,
,,,,31776,001,2025-10-15_20h22.14.412,HW_LDT_1,2024.2.4,MacIntel,62.5,,,,,,,,,,,,,,,,,,,,,422.6776,422.8753,422.8753,423.3752,,,,,,,,,,,,,,1.9274,1,,,,,,,,,,,,,,z,,,,,,,,,,,,,,,,69,0,423.3759,425.3101,z,1,1.9274,,[],[],[],[],[],[],[],425.3102,427.3085,427.3085,427.3086,[],[],[],[],[],[],[],,427.3087,427.3087,-0.113551655,-0.078494066,0,0,0,,0,68,68,62,1,2,TL,opmital,cursive,opmital_c.png,,,,,,
,,,,31776,001,2025-10-15_20h22.14.412,HW_LDT_1,2024.2.4,MacIntel,62.5,,,,,,,,,,,,,,,,,,,,,427.3106,427.5084,427.5084,428.0081,,,,,,,,,,,,,,1.2329,0,,,,,,,,,,,,,,z,,,,,,,,,,,,,,,,70,0,428.0084,429.2434,m,0,1.2329,,[],[],[],[],[],[],[],429.2436,431.2409,431.241,431.2413,[],[],[],[],[],[],[],,431.2414,431.2414,-0.113551655,-0.078494066,0,0,0,,0,69,69,79,1,2,TL,vadility,print,vadility_p.png,,,,,,
,,,,31776,001,2025-10-15_20h22.14.412,HW_LDT_1,2024.2.4,MacIntel,62.5,,,,,,,,,,,,,,,,,,,,,431.2437,431.4416,431.4417,431.9435,,,,,,,,,,,,,,1.4057,0,,,,,,,,,,,,,,m,,,,,,,,,,,,,,,,71,1,431.944,433.3574,z,0,1.4057,,[],[],[],[],[],[],[],433.3574,435.3577,435.3578,437.191,[],[],[],[],[],[],[],z,437.1911,437.1911,-0.113551655,-0.078494066,0,0,0,,0,70,70,123,1,2,word,MODERATE,cursive,moderate_c.png,1.8256,,,,,
,,,,31776,001,2025-10-15_20h22.14.412,HW_LDT_1,2024.2.4,MacIntel,62.5,,,,,,,,,,,,,,,,,,,,,437.1918,437.3912,437.3912,437.8914,,,,,,,,,,,,,,3.8415,1,,,,,,,,,,,,,,z,,,,,,,,,,,,,,,,72,0,437.8919,441.7409,z,1,3.8415,,[],[],[],[],[],[],[],441.741,443.7411,443.7411,443.7413,[],[],[],[],[],[],[],,443.7413,443.7415,-0.113551655,-0.078494066,0,0,0,,0,71,71,56,1,2,TL,marnigal,cursive,marnigal_c.png,,,,,,
,,,,31776,001,2025-10-15_20h22.14.412,HW_LDT_1,2024.2.4,MacIntel,62.5,,,,,,,,,,,,,,,,,,,,,443.7431,443.9421,443.9422,444.4406,,,,,,,,,,,,,,0.7755,1,,,,,,,,,,,,,,z,,,,,,,,,,,,,,,,73,0,444.441,445.2234,z,1,0.7755,,[],[],[],[],[],[],[],445.2235,447.2244,447.2244,447.2246,[],[],[],[],[],[],[],,447.2246,447.2246,-0.113551655,-0.078494066,0,0,0,,0,72,72,30,1,2,RL,selamor,print,selamor_p.png,,,,,,
,,,,31776,001,2025-10-15_20h22.14.412,HW_LDT_1,2024.2.4,MacIntel,62.5,,,,,,,,,,,,,,,,,,,,,447.226,447.4243,447.4243,447.9247,,,,,,,,,,,,,,1.0916,1,,,,,,,,,,,,,,z,,,,,,,,,,,,,,,,74,0,447.9252,449.0242,z,1,1.0916,,[],[],[],[],[],[],[],449.0242,451.0242,451.0242,451.0244,[],[],[],[],[],[],[],,451.0244,451.0245,-0.113551655,-0.078494066,0,0,0,,0,73,73,13,1,2,RL,helicage,print,helicage_p.png,,,,,,
,,,,31776,001,2025-10-15_20h22.14.412,HW_LDT_1,2024.2.4,MacIntel,62.5,,,,,,,,,,,,,,,,,,,,,451.0256,451.2239,451.2239,451.7242,,,,,,,,,,,,,,1.0641,1,,,,,,,,,,,,,,m,,,,,,,,,,,,,,,,75,0,451.7246,452.7915,m,1,1.0641,,[],[],[],[],[],[],[],452.7916,454.7906,454.7907,454.7908,[],[],[],[],[],[],[],,454.7908,454.7909,-0.113551655,-0.078494066,0,0,0,,0,74,74,133,1,2,word,PROVIDE,cursive,provide_c.png,,,,,,
,,,,31776,001,2025-10-15_20h22.14.412,HW_LDT_1,2024.2.4,MacIntel,62.5,,,,,,,,,,,,,,,,,,,,,454.792,454.9908,454.9908,455.4902,,,,,,,,,,,,,,2.3263,1,,,,,,,,,,,,,,z,,,,,,,,,,,,,,,,76,0,455.4905,457.8238,z,1,2.3263,,[],[],[],[],[],[],[],457.824,459.8238,459.824,459.8241,[],[],[],[],[],[],[],,459.8241,459.8242,-0.113551655,-0.078494066,0,0,0,,0,75,75,53,1,2,TL,edivent,cursive,edivent_c.png,,,,,,
,,,,31776,001,2025-10-15_20h22.14.412,HW_LDT_1,2024.2.4,MacIntel,62.5,,,,,,,,,,,,,,,,,,,,,459.8256,460.0233,460.0233,460.5226,,,,,,,,,,,,,,1.795,1,,,,,,,,,,,,,,z,,,,,,,,,,,,,,,,77,0,460.5231,462.3233,z,1,1.795,,[],[],[],[],[],[],[],462.3233,464.3228,464.3228,464.323,[],[],[],[],[],[],[],,464.323,464.3232,-0.113551655,-0.078494066,0,0,0,,0,76,76,76,1,2,TL,senmitent,cursive,senmitent_c.png,,,,,,
,,,,31776,001,2025-10-15_20h22.14.412,HW_LDT_1,2024.2.4,MacIntel,62.5,,,,,,,,,,,,,,,,,,,,,464.3246,464.5232,464.5233,465.0228,,,,,,,,,,,,,,1.1754,1,,,,,,,,,,,,,,z,,,,,,,,,,,,,,,,78,0,465.0234,466.2068,z,1,1.1754,,[],[],[],[],[],[],[],466.2069,468.2068,468.207,468.2071,[],[],[],[],[],[],[],,468.2072,468.2072,-0.113551655,-0.078494066,0,0,0,,0,77,77,35,1,2,RL,vesofity,print,vesofity_p.png,,,,,,
,,,,31776,001,2025-10-15_20h22.14.412,HW_LDT_1,2024.2.4,MacIntel,62.5,,,,,,,,,,,,,,,,,,,,,468.2086,468.4068,468.4068,468.9067,,,,,,,,,,,,,,0.6754,1,,,,,,,,,,,,,,m,,,,,,,,,,,,,,,,79,0,468.9072,469.59,m,1,0.6754,,[],[],[],[],[],[],[],469.5903,471.5899,471.59,471.5901,[],[],[],[],[],[],[],,471.5902,471.5903,-0.113551655,-0.078494066,0,0,0,,0,78,78,144,1,2,word,RESIDENT,print,resident_p.png,,,,,,
,,,,31776,001,2025-10-15_20h22.14.412,HW_LDT_1,2024.2.4,MacIntel,62.5,,,,,,,,,,,,,,,,,,,,,471.5917,471.7896,471.7896,472.29,,,,,,,,,,,,,,1.0263,1,,,,,,,,,,,,,,z,,,,,,,,,,,,,,,,80,0,472.2904,473.3231,z,1,1.0263,,[],[],[],[],[],[],[],473.3231,475.3231,475.3231,475.3233,[],[],[],[],[],[],[],,475.3233,1004.852,0.472528356,0.441961676,0,0,0,space,0,79,79,44,1,2,TL,catipal,cursive,catipal_c.png,,,529.501,,,
,,,,31776,001,2025-10-15_20h22.14.412,HW_LDT_1,2024.2.4,MacIntel,62.5,,,,,,,,,,,,,,,,,,,,,1004.8538,1005.0519,1005.0521,1005.5521,,,,,,,,,,,,,,1.0913,1,,,,,,,,,,,,,,z,,,,,,,,,,,,,,,,81,0,1005.553,1006.652,z,1,1.0913,,[],[],[],[],[],[],[],1006.6522,1008.6518,1008.6518,1008.652,[],[],[],[],[],[],[],,1008.652,1008.6522,0.472528356,0.441961676,0,0,0,,0,80,80,0,1,2,RL,adnicory,print,adnicory_p.png,,,,,,
,,,,31776,001,2025-10-15_20h22.14.412,HW_LDT_1,2024.2.4,MacIntel,62.5,,,,,,,,,,,,,,,,,,,,,1008.6534,1008.8518,1008.8519,1009.3517,,,,,,,,,,,,,,0.9302,1,,,,,,,,,,,,,,z,,,,,,,,,,,,,,,,82,0,1009.3525,1010.285,z,1,0.9302,,[],[],[],[],[],[],[],1010.2851,1012.2841,1012.2841,1012.2842,[],[],[],[],[],[],[],,1012.2843,1012.2844,0.472528356,0.441961676,0,0,0,,0,81,81,74,1,2,TL,rerite,cursive,rerite_c.png,,,,,,
,,,,31776,001,2025-10-15_20h22.14.412,HW_LDT_1,2024.2.4,MacIntel,62.5,,,,,,,,,,,,,,,,,,,,,1012.2854,1012.4849,1012.485,1012.985,,,,,,,,,,,,,,0.6544,1,,,,,,,,,,,,,,m,,,,,,,,,,,,,,,,83,1,1012.9856,1013.6512,m,1,0.6544,,[],[],[],[],[],[],[],1013.6512,1015.6515,1015.6516,1016.8342,[],[],[],[],[],[],[],z,1016.8343,1016.8344,0.472528356,0.441961676,0,0,0,,0,82,82,141,1,2,word,RELIGION,cursive,religion_c.png,1.1719,,,,,
,,,,31776,001,2025-10-15_20h22.14.412,HW_LDT_1,2024.2.4,MacIntel,62.5,,,,,,,,,,,,,,,,,,,,,1016.8357,1017.0348,1017.0349,1017.5347,,,,,,,,,,,,,,0.6216,1,,,,,,,,,,,,,,m,,,,,,,,,,,,,,,,84,0,1017.5354,1018.1681,m,1,0.6216,,[],[],[],[],[],[],[],1018.1682,1020.1676,1020.1677,1020.1679,[],[],[],[],[],[],[],,1020.168,1020.168,0.472528356,0.441961676,0,0,0,,0,83,83,130,1,2,word,POLICY,print,policy_p.png,,,,,,
,,,,31776,001,2025-10-15_20h22.14.412,HW_LDT_1,2024.2.4,MacIntel,62.5,,,,,,,,,,,,,,,,,,,,,1020.1692,1020.368,1020.368,1020.8679,,,,,,,,,,,,,,1.0044,1,,,,,,,,,,,,,,z,,,,,,,,,,,,,,,,85,0,1020.8687,1021.8847,z,1,1.0044,,[],[],[],[],[],[],[],1021.8848,1023.8846,1023.8846,1023.8849,[],[],[],[],[],[],[],,1023.885,1023.8852,0.472528356,0.441961676,0,0,0,,0,84,84,65,1,2,TL,polupar,cursive,polupar_c.png,,,,,,
,,,,31776,001,2025-10-15_20h22.14.412,HW_LDT_1,2024.2.4,MacIntel,62.5,,,,,,,,,,,,,,,,,,,,,1023.887,1024.0845,1024.0846,1024.5846,,,,,,,,,,,,,,0.8209,1,,,,,,,,,,,,,,z,,,,,,,,,,,,,,,,86,0,1024.5852,1025.4168,z,1,0.8209,,[],[],[],[],[],[],[],1025.4169,1027.4169,1027.417,1027.4172,[],[],[],[],[],[],[],,1027.4172,1027.4173,0.472528356,0.441961676,0,0,0,,0,85,85,71,1,2,TL,retome,cursive,retome_c.png,,,,,,
,,,,31776,001,2025-10-15_20h22.14.412,HW_LDT_1,2024.2.4,MacIntel,62.5,,,,,,,,,,,,,,,,,,,,,1027.4186,1027.6177,1027.6177,1028.1177,,,,,,,,,,,,,,0.6046,1,,,,,,,,,,,,,,m,,,,,,,,,,,,,,,,87,0,1028.1183,1028.7344,m,1,0.6046,,[],[],[],[],[],[],[],1028.7344,1030.7343,1030.7343,1030.7344,[],[],[],[],[],[],[],,1030.7344,1030.7345,0.472528356,0.441961676,0,0,0,,0,86,86,154,1,2,word,STORAGE,print,storage_p.png,,,,,,
,,,,31776,001,2025-10-15_20h22.14.412,HW_LDT_1,2024.2.4,MacIntel,62.5,,,,,,,,,,,,,,,,,,,,,1030.7358,1030.9343,1030.9343,1031.4343,,,,,,,,,,,,,,1.1469,1,,,,,,,,,,,,,,m,,,,,,,,,,,,,,,,88,0,1031.4349,1032.5842,m,1,1.1469,,[],[],[],[],[],[],[],1032.5842,1034.5832,1034.5832,1034.5834,[],[],[],[],[],[],[],,1034.5834,1034.5835,0.472528356,0.441961676,0,0,0,,0,87,87,142,1,2,word,REMOTE,cursive,remote_c.png,,,,,,
,,,,31776,001,2025-10-15_20h22.14.412,HW_LDT_1,2024.2.4,MacIntel,62.5,,,,,,,,,,,,,,,,,,,,,1034.5846,1034.7831,1034.7831,1035.2839,,,,,,,,,,,,,,1.7467,1,,,,,,,,,,,,,,z,,,,,,,,,,,,,,,,89,0,1035.2845,1037.0339,z,1,1.7467,,[],[],[],[],[],[],[],1037.034,1039.0327,1039.0329,1039.0329,[],[],[],[],[],[],[],,1039.0329,1039.033,0.472528356,0.441961676,0,0,0,,0,88,88,7,1,2,RL,cocewage,cursive,cocewage_c.png,,,,,,
,,,,31776,001,2025-10-15_20h22.14.412,HW_LDT_1,2024.2.4,MacIntel,62.5,,,,,,,,,,,,,,,,,,,,,1039.034,1039.2339,1039.2339,1039.7338,,,,,,,,,,,,,,1.3536,1,,,,,,,,,,,,,,z,,,,,,,,,,,,,,,,90,0,1039.7343,1041.1001,z,1,1.3536,,[],[],[],[],[],[],[],1041.1002,1043.0993,1043.0993,1043.0995,[],[],[],[],[],[],[],,1043.0995,1043.0996,0.472528356,0.441961676,0,0,0,,0,89,89,69,1,2,TL,resufal,cursive,resufal_c.png,,,,,,
,,,,31776,001,2025-10-15_20h22.14.412,HW_LDT_1,2024.2.4,MacIntel,62.5,,,,,,,,,,,,,,,,,,,,,1043.1005,1043.2993,1043.2993,1043.7993,,,,,,,,,,,,,,0.9489,1,,,,,,,,,,,,,,z,,,,,,,,,,,,,,,,91,0,1043.7997,1044.7502,z,1,0.9489,,[],[],[],[],[],[],[],1044.7503,1046.7501,1046.7501,1046.7503,[],[],[],[],[],[],[],,1046.7504,1046.7505,0.472528356,0.441961676,0,0,0,,0,90,90,23,1,2,RL,procogal,cursive,procogal_c.png,,,,,,
,,,,31776,001,2025-10-15_20h22.14.412,HW_LDT_1,2024.2.4,MacIntel,62.5,,,,,,,,,,,,,,,,,,,,,1046.7518,1046.9493,1046.9493,1047.4502,,,,,,,,,,,,,,1.631,0,,,,,,,,,,,,,,m,,,,,,,,,,,,,,,,92,0,1047.4507,1049.0827,z,0,1.631,,[],[],[],[],[],[],[],1049.0828,1051.0826,1051.0827,1051.0828,[],[],[],[],[],[],[],,1051.0829,1051.0829,0.472528356,0.441961676,0,0,0,,0,91,91,113,1,2,word,LITERAL,cursive,literal_c.png,,,,,,
,,,,31776,001,2025-10-15_20h22.14.412,HW_LDT_1,2024.2.4,MacIntel,62.5,,,,,,,,,,,,,,,,,,,,,1051.0837,1051.2826,1051.2826,1051.783,,,,,,,,,,,,,,0.9646,1,,,,,,,,,,,,,,z,,,,,,,,,,,,,,,,93,0,1051.7834,1052.7498,z,1,0.9646,,[],[],[],[],[],[],[],1052.7499,1054.7497,1054.7498,1054.7499,[],[],[],[],[],[],[],,1054.7499,1054.7499,0.472528356,0.441961676,0,0,0,,0,92,92,9,1,2,RL,denficy,print,denficy_p.png,,,,,,
,,,,31776,001,2025-10-15_20h22.14.412,HW_LDT_1,2024.2.4,MacIntel,62.5,,,,,,,,,,,,,,,,,,,,,1054.751,1054.9493,1054.9493,1055.4493,,,,,,,,,,,,,,2.3551,1,,,,,,,,,,,,,,z,,,,,,,,,,,,,,,,94,0,1055.4495,1057.8164,z,1,2.3551,,[],[],[],[],[],[],[],1057.8164,1059.816,1059.816,1059.8161,[],[],[],[],[],[],[],,1059.8161,1059.8162,0.472528356,0.441961676,0,0,0,,0,93,93,34,1,2,RL,trilude,cursive,trilude_c.png,,,,,,
,,,,31776,001,2025-10-15_20h22.14.412,HW_LDT_1,2024.2.4,MacIntel,62.5,,,,,,,,,,,,,,,,,,,,,1059.8168,1060.0162,1060.0162,1060.5156,,,,,,,,,,,,,,2.0996,0,,,,,,,,,,,,,,m,,,,,,,,,,,,,,,,95,0,1060.516,1062.6163,z,0,2.0996,,[],[],[],[],[],[],[],1062.6164,1064.6161,1064.6161,1064.6163,[],[],[],[],[],[],[],,1064.6164,1064.6165,0.472528356,0.441961676,0,0,0,,0,94,94,105,1,2,word,EDITOR,cursive,editor_c.png,,,,,,
,,,,31776,001,2025-10-15_20h22.14.412,HW_LDT_1,2024.2.4,MacIntel,62.5,,,,,,,,,,,,,,,,,,,,,1064.6173,1064.8161,1064.8161,1065.3161,,,,,,,,,,,,,,1.9373,1,,,,,,,,,,,,,,z,,,,,,,,,,,,,,,,96,0,1065.3165,1067.2661,z,1,1.9373,,[],[],[],[],[],[],[],1067.2661,1069.2658,1069.2659,1069.2661,[],[],[],[],[],[],[],,1069.2661,1069.2661,0.472528356,0.441961676,0,0,0,,0,95,95,20,1,2,RL,onegator,cursive,onegator_c.png,,,,,,
,,,,31776,001,2025-10-15_20h22.14.412,HW_LDT_1,2024.2.4,MacIntel,62.5,,,,,,,,,,,,,,,,,,,,,1069.2668,1069.4659,1069.4659,1069.9659,,,,,,,,,,,,,,0.8542,1,,,,,,,,,,,,,,z,,,,,,,,,,,,,,,,97,0,1069.9662,1070.8326,z,1,0.8542,,[],[],[],[],[],[],[],1070.8327,1072.8323,1072.8323,1072.8323,[],[],[],[],[],[],[],,1072.8323,1072.8323,0.472528356,0.441961676,0,0,0,,0,96,96,39,1,2,TL,aminal,print,aminal_p.png,,,,,,
,,,,31776,001,2025-10-15_20h22.14.412,HW_LDT_1,2024.2.4,MacIntel,62.5,,,,,,,,,,,,,,,,,,,,,1072.8328,1073.0325,1073.0325,1073.5324,,,,,,,,,,,,,,0.7414,1,,,,,,,,,,,,,,m,,,,,,,,,,,,,,,,98,0,1073.5327,1074.2824,m,1,0.7414,,[],[],[],[],[],[],[],1074.2824,1076.2814,1076.2814,1076.2816,[],[],[],[],[],[],[],,1076.2817,1076.2818,0.472528356,0.441961676,0,0,0,,0,97,97,99,1,2,word,DEBATE,print,debate_p.png,,,,,,
,,,,31776,001,2025-10-15_20h22.14.412,HW_LDT_1,2024.2.4,MacIntel,62.5,,,,,,,,,,,,,,,,,,,,,1076.2829,1076.4822,1076.4822,1076.9823,,,,,,,,,,,,,,2.1033,1,,,,,,,,,,,,,,z,,,,,,,,,,,,,,,,99,0,1076.9827,1079.099,z,1,2.1033,,[],[],[],[],[],[],[],1079.0991,1081.099,1081.099,1081.0992,[],[],[],[],[],[],[],,1081.0992,1081.0993,0.472305455,0.437346527,0,0,0,,0,98,98,59,1,2,TL,miskate,cursive,miskate_c.png,,,,,,
,,,,31776,001,2025-10-15_20h22.14.412,HW_LDT_1,2024.2.4,MacIntel,62.5,,,,,,,,,,,,,,,,,,,,,1081.1002,1081.299,1081.299,1081.7989,,,,,,,,,,,,,,0.7382,1,,,,,,,,,,,,,,m,,,,,,,,,,,,,,,,100,0,1081.7994,1082.5489,m,1,0.7382,,[],[],[],[],[],[],[],1082.549,1084.548,1084.548,1084.5482,[],[],[],[],[],[],[],,1084.5482,1084.5486,0.472305455,0.437346527,0,0,0,,0,99,99,159,1,2,word,VETERAN,print,veteran_p.png,,,,,,
,,,,31776,001,2025-10-15_20h22.14.412,HW_LDT_1,2024.2.4,MacIntel,62.5,,,,,,,,,,,,,,,,,,,,,1084.5496,1084.7487,1084.7488,1085.2488,,,,,,,,,,,,,,1.9534,1,,,,,,,,,,,,,,m,,,,,,,,,,,,,,,,101,0,1085.2492,1087.2154,m,1,1.9534,,[],[],[],[],[],[],[],1087.2155,1089.2153,1089.2153,1089.2155,[],[],[],[],[],[],[],,1089.2156,1089.2156,0.472305455,0.437346527,0,0,0,,0,100,100,103,1,2,word,DISPUTE,cursive,dispute_c.png,,,,,,
,,,,31776,001,2025-10-15_20h22.14.412,HW_LDT_1,2024.2.4,MacIntel,62.5,,,,,,,,,,,,,,,,,,,,,1089.2165,1089.4142,1089.4142,1089.9152,,,,,,,,,,,,,,0.7204,0,,,,,,,,,,,,,,z,,,,,,,,,,,,,,,,102,0,1089.9158,1090.6486,m,0,0.7204,,[],[],[],[],[],[],[],1090.6487,1092.6481,1092.6481,1092.6483,[],[],[],[],[],[],[],,1092.6484,1092.6487,0.47302897,0.433312383,0,0,0,,0,101,101,47,1,2,TL,crinimal,cursive,crinimal_c.png,,,,,,
,,,,31776,001,2025-10-15_20h22.14.412,HW_LDT_1,2024.2.4,MacIntel,62.5,,,,,,,,,,,,,,,,,,,,,1092.6498,1092.8478,1092.8478,1093.3482,,,,,,,,,,,,,,0.9205,1,,,,,,,,,,,,,,z,,,,,,,,,,,,,,,,103,0,1093.3489,1094.2817,z,1,0.9205,,[],[],[],[],[],[],[],1094.2817,1096.2809,1096.2809,1096.281,[],[],[],[],[],[],[],,1096.281,1096.2811,0.47302897,0.433312383,0,0,0,,0,102,102,72,1,2,TL,revomal,print,revomal_p.png,,,,,,
,,,,31776,001,2025-10-15_20h22.14.412,HW_LDT_1,2024.2.4,MacIntel,62.5,,,,,,,,,,,,,,,,,,,,,1096.2824,1096.4815,1096.4815,1096.9814,,,,,,,,,,,,,,1.5572,1,,,,,,,,,,,,,,m,,,,,,,,,,,,,,,,104,0,1096.9821,1098.5483,m,1,1.5572,,[],[],[],[],[],[],[],1098.5486,1100.5479,1100.5479,1100.5482,[],[],[],[],[],[],[],,1100.5482,1100.5483,0.47302897,0.433312383,0,0,0,,0,103,103,131,1,2,word,POPULAR,cursive,popular_c.png,,,,,,
,,,,31776,001,2025-10-15_20h22.14.412,HW_LDT_1,2024.2.4,MacIntel,62.5,,,,,,,,,,,,,,,,,,,,,1100.5496,1100.7479,1100.748,1101.2481,,,,,,,,,,,,,,0.8707,1,,,,,,,,,,,,,,z,,,,,,,,,,,,,,,,105,0,1101.2485,1102.1303,z,1,0.8707,,[],[],[],[],[],[],[],1102.1303,1104.131,1104.131,1104.1313,[],[],[],[],[],[],[],,1104.1313,1104.1314,0.47302897,0.433312383,0,0,0,,0,104,104,78,1,2,TL,stogare,print,stogare_p.png,,,,,,
,,,,31776,001,2025-10-15_20h22.14.412,HW_LDT_1,2024.2.4,MacIntel,62.5,,,,,,,,,,,,,,,,,,,,,1104.1328,1104.3307,1104.3308,1104.8312,,,,,,,,,,,,,,2.6074,1,,,,,,,,,,,,,,m,,,,,,,,,,,,,,,,106,0,1104.8317,1107.4479,m,1,2.6074,,[],[],[],[],[],[],[],1107.4479,1109.4478,1109.4478,1109.448,[],[],[],[],[],[],[],,1109.448,1109.4481,0.47302897,0.433312383,0,0,0,,0,105,105,150,1,2,word,SENTIMENT,cursive,sentiment_c.png,,,,,,
,,,,31776,001,2025-10-15_20h22.14.412,HW_LDT_1,2024.2.4,MacIntel,62.5,,,,,,,,,,,,,,,,,,,,,1109.4495,1109.6477,1109.6477,1110.1476,,,,,,,,,,,,,,0.9912,1,,,,,,,,,,,,,,z,,,,,,,,,,,,,,,,107,0,1110.1481,1111.1477,z,1,0.9912,,[],[],[],[],[],[],[],1111.1478,1113.1474,1113.1474,1113.1476,[],[],[],[],[],[],[],,1113.1476,1113.1476,0.47302897,0.433312383,0,0,0,,0,106,106,25,1,2,RL,rabigly,print,rabigly_p.png,,,,,,
,,,,31776,001,2025-10-15_20h22.14.412,HW_LDT_1,2024.2.4,MacIntel,62.5,,,,,,,,,,,,,,,,,,,,,1113.1483,1113.3475,1113.3475,1113.8475,,,,,,,,,,,,,,2.1707,0,,,,,,,,,,,,,,m,,,,,,,,,,,,,,,,108,0,1113.848,1116.0308,z,0,2.1707,,[],[],[],[],[],[],[],1116.0309,1118.0306,1118.0307,1118.0308,[],[],[],[],[],[],[],,1118.0308,1118.031,0.47302897,0.433312383,0,0,0,,0,107,107,138,1,2,word,REFUSAL,cursive,refusal_c.png,,,,,,
,,,,31776,001,2025-10-15_20h22.14.412,HW_LDT_1,2024.2.4,MacIntel,62.5,,,,,,,,,,,,,,,,,,,,,1118.0323,1118.2298,1118.2299,1118.7302,,,,,,,,,,,,,,2.2052,1,,,,,,,,,,,,,,m,,,,,,,,,,,,,,,,109,0,1118.7307,1120.9473,m,1,2.2052,,[],[],[],[],[],[],[],1120.9474,1122.9472,1122.9472,1122.9473,[],[],[],[],[],[],[],,1122.9473,1122.9474,0.47302897,0.433312383,0,0,0,,0,108,108,146,1,2,word,RETIRE,cursive,retire_c.png,,,,,,
,,,,31776,001,2025-10-15_20h22.14.412,HW_LDT_1,2024.2.4,MacIntel,62.5,,,,,,,,,,,,,,,,,,,,,1122.9488,1123.1471,1123.1472,1123.6469,,,,,,,,,,,,,,0.705,1,,,,,,,,,,,,,,m,,,,,,,,,,,,,,,,110,0,1123.6473,1124.3639,m,1,0.705,,[],[],[],[],[],[],[],1124.364,1126.3637,1126.3638,1126.364,[],[],[],[],[],[],[],,1126.364,1126.3641,0.47259413,0.433312383,0,0,0,,0,109,109,151,1,2,word,SPECIFIC,print,specific_p.png,,,,,,
,,,,31776,001,2025-10-15_20h22.14.412,HW_LDT_1,2024.2.4,MacIntel,62.5,,,,,,,,,,,,,,,,,,,,,1126.3656,1126.5631,1126.5631,1127.0637,,,,,,,,,,,,,,1.1549,1,,,,,,,,,,,,,,z,,,,,,,,,,,,,,,,111,0,1127.0642,1128.2305,z,1,1.1549,,[],[],[],[],[],[],[],1128.2306,1130.2302,1130.2302,1130.2305,[],[],[],[],[],[],[],,1130.2305,1130.2306,0.47259413,0.43353163,0,0,0,,0,110,110,63,1,2,TL,orinigal,print,orinigal_p.png,,,,,,
,,,,31776,001,2025-10-15_20h22.14.412,HW_LDT_1,2024.2.4,MacIntel,62.5,,,,,,,,,,,,,,,,,,,,,1130.2319,1130.4302,1130.4303,1130.9301,,,,,,,,,,,,,,1.5717,0,,,,,,,,,,,,,,m,,,,,,,,,,,,,,,,112,1,1130.9306,1132.5135,z,0,1.5717,,[],[],[],[],[],[],[],1132.5136,1134.5134,1134.5134,1135.4967,[],[],[],[],[],[],[],z,1135.4968,1135.4969,0.47259413,0.43353163,0,0,0,,0,111,111,121,1,2,word,MISTAKE,cursive,mistake_c.png,0.9749,,,,,
,,,,31776,001,2025-10-15_20h22.14.412,HW_LDT_1,2024.2.4,MacIntel,62.5,,,,,,,,,,,,,,,,,,,,,1135.4981,1135.6967,1135.6968,1136.1966,,,,,,,,,,,,,,0.6292,1,,,,,,,,,,,,,,m,,,,,,,,,,,,,,,,113,0,1136.1971,1136.83,m,1,0.6292,,[],[],[],[],[],[],[],1136.83,1138.8299,1138.8299,1138.83,[],[],[],[],[],[],[],,1138.83,1138.8301,0.47259413,0.43353163,0,0,0,,0,112,112,114,1,2,word,LOCATE,print,locate_p.png,,,,,,
,,,,31776,001,2025-10-15_20h22.14.412,HW_LDT_1,2024.2.4,MacIntel,62.5,,,,,,,,,,,,,,,,,,,,,1138.8313,1139.03,1139.03,1139.5294,,,,,,,,,,,,,,1.7891,0,,,,,,,,,,,,,,m,,,,,,,,,,,,,,,,114,1,1139.5299,1141.3294,z,0,1.7891,,[],[],[],[],[],[],[],1141.3295,1143.3298,1143.3298,1144.1799,[],[],[],[],[],[],[],z,1144.1799,1144.18,0.47259413,0.43353163,0,0,0,,0,113,113,106,1,2,word,ELABORATE,cursive,elaborate_c.png,0.8441,,,,,
,,,,31776,001,2025-10-15_20h22.14.412,HW_LDT_1,2024.2.4,MacIntel,62.5,,,,,,,,,,,,,,,,,,,,,1144.181,1144.3792,1144.3792,1144.8799,,,,,,,,,,,,,,1.7718,0,,,,,,,,,,,,,,m,,,,,,,,,,,,,,,,115,0,1144.8804,1146.6625,z,0,1.7718,,[],[],[],[],[],[],[],1146.6627,1148.6631,1148.6632,1148.6633,[],[],[],[],[],[],[],,1148.6633,1148.6634,0.47259413,0.43353163,0,0,0,,0,114,114,109,1,2,word,GRATEFUL,cursive,grateful_c.png,,,,,,
,,,,31776,001,2025-10-15_20h22.14.412,HW_LDT_1,2024.2.4,MacIntel,62.5,,,,,,,,,,,,,,,,,,,,,1148.6645,1148.8628,1148.8629,1149.3628,,,,,,,,,,,,,,1.038,1,,,,,,,,,,,,,,z,,,,,,,,,,,,,,,,116,0,1149.3633,1150.4132,z,1,1.038,,[],[],[],[],[],[],[],1150.4133,1152.4129,1152.413,1152.4131,[],[],[],[],[],[],[],,1152.4131,1152.4132,0.47259413,0.43353163,0,0,0,,0,115,115,29,1,2,RL,samite,cursive,samite_c.png,,,,,,
,,,,31776,001,2025-10-15_20h22.14.412,HW_LDT_1,2024.2.4,MacIntel,62.5,,,,,,,,,,,,,,,,,,,,,1152.4149,1152.6128,1152.6128,1153.113,,,,,,,,,,,,,,0.7945,1,,,,,,,,,,,,,,z,,,,,,,,,,,,,,,,117,1,1153.1133,1153.9129,z,1,0.7945,,[],[],[],[],[],[],[],1153.913,1155.9125,1155.9125,1156.8462,[],[],[],[],[],[],[],m,1156.8463,1156.8464,0.47259413,0.43353163,0,0,0,,0,116,116,55,1,2,TL,lotace,print,lotace_p.png,0.928,,,,,
,,,,31776,001,2025-10-15_20h22.14.412,HW_LDT_1,2024.2.4,MacIntel,62.5,,,,,,,,,,,,,,,,,,,,,1156.8472,1157.0461,1157.0461,1157.5451,,,,,,,,,,,,,,1.007,1,,,,,,,,,,,,,,z,,,,,,,,,,,,,,,,118,0,1157.5458,1158.5628,z,1,1.007,,[],[],[],[],[],[],[],1158.5628,1160.5626,1160.5627,1160.5628,[],[],[],[],[],[],[],,1160.5628,1160.5629,0.47259413,0.43353163,0,0,0,,0,117,117,41,1,2,TL,befenit,cursive,befenit_c.png,,,,,,
,,,,31776,001,2025-10-15_20h22.14.412,HW_LDT_1,2024.2.4,MacIntel,62.5,,,,,,,,,,,,,,,,,,,,,1160.5638,1160.7623,1160.7624,1161.2621,,,,,,,,,,,,,,3.1883,1,,,,,,,,,,,,,,m,,,,,,,,,,,,,,,,119,1,1161.2633,1164.4624,m,1,3.1883,,[],[],[],[],[],[],[],1164.4627,1166.4624,1166.4625,1167.4957,[],[],[],[],[],[],[],z,1167.4958,1167.4959,0.47259413,0.43353163,0,0,0,,0,118,118,145,1,2,word,RESUME,cursive,resume_c.png,1.0232,,,,,
,,,,31776,001,2025-10-15_20h22.14.412,HW_LDT_1,2024.2.4,MacIntel,62.5,,,,,,,,,,,,,,,,,,,,,1167.4972,1167.6953,1167.6953,1168.1954,,,,,,,,,,,,,,1.2055,1,,,,,,,,,,,,,,m,,,,,,,,,,,,,,,,120,0,1168.1963,1169.4124,m,1,1.2055,,[],[],[],[],[],[],[],1169.4125,1171.4127,1171.4128,1171.4131,[],[],[],[],[],[],[],,1171.4131,1171.4134,0.47259413,0.43353163,0,0,0,,0,119,119,93,1,2,word,CEREMONY,print,ceremony_p.png,,,,,,
,,,,31776,001,2025-10-15_20h22.14.412,HW_LDT_1,2024.2.4,MacIntel,62.5,,,,,,,,,,,,,,,,,,,,,1171.4146,1171.6119,1171.612,1172.1121,,,,,,,,,,,,,,1.4916,1,,,,,,,,,,,,,,z,,,,,,,,,,,,,,,,121,0,1172.113,1173.6119,z,1,1.4916,,[],[],[],[],[],[],[],1173.6121,1175.6117,1175.6118,1175.6119,[],[],[],[],[],[],[],,1175.6119,1175.612,0.47259413,0.43353163,0,0,0,,0,120,120,24,1,2,RL,rasibal,cursive,rasibal_c.png,,,,,,
,,,,31776,001,2025-10-15_20h22.14.412,HW_LDT_1,2024.2.4,MacIntel,62.5,,,,,,,,,,,,,,,,,,,,,1175.6134,1175.8118,1175.8119,1176.3115,,,,,,,,,,,,,,1.5621,1,,,,,,,,,,,,,,z,,,,,,,,,,,,,,,,122,0,1176.3121,1177.8786,z,1,1.5621,,[],[],[],[],[],[],[],1177.8787,1179.8786,1179.8786,1179.8787,[],[],[],[],[],[],[],,1179.8788,1179.8789,0.47259413,0.43353163,0,0,0,,0,121,121,51,1,2,TL,etidor,cursive,etidor_c.png,,,,,,
,,,,31776,001,2025-10-15_20h22.14.412,HW_LDT_1,2024.2.4,MacIntel,62.5,,,,,,,,,,,,,,,,,,,,,1179.8804,1180.0785,1180.0785,1180.5783,,,,,,,,,,,,,,3.607,0,,,,,,,,,,,,,,z,,,,,,,,,,,,,,,,123,1,1180.5788,1184.1951,m,0,3.607,,[],[],[],[],[],[],[],1184.1951,1186.1947,1186.1949,1186.8944,[],[],[],[],[],[],[],z,1186.8946,1186.8946,0.471468662,0.433305075,0,0,0,,0,122,122,67,1,2,TL,quafily,cursive,quafily_c.png,0.6923,,,,,
,,,,31776,001,2025-10-15_20h22.14.412,HW_LDT_1,2024.2.4,MacIntel,62.5,,,,,,,,,,,,,,,,,,,,,1186.8955,1187.0939,1187.094,1187.5943,,,,,,,,,,,,,,0.7406,1,,,,,,,,,,,,,,m,,,,,,,,,,,,,,,,124,1,1187.5951,1188.345,m,1,0.7406,,[],[],[],[],[],[],[],1188.3451,1190.3434,1190.3434,1191.2781,[],[],[],[],[],[],[],m,1191.2781,1191.2788,0.471468662,0.433305075,0,0,0,,0,123,123,115,1,2,word,LOGICAL,print,logical_p.png,0.9296,,,,,
,,,,31776,001,2025-10-15_20h22.14.412,HW_LDT_1,2024.2.4,MacIntel,62.5,,,,,,,,,,,,,,,,,,,,,1191.2806,1191.477,1191.477,1191.9774,,,,,,,,,,,,,,0.9916,1,,,,,,,,,,,,,,m,,,,,,,,,,,,,,,,125,0,1191.9777,1192.9775,m,1,0.9916,,[],[],[],[],[],[],[],1192.9776,1194.9767,1194.9767,1194.9769,[],[],[],[],[],[],[],,1194.9769,1194.977,0.471468662,0.433305075,0,0,0,,0,124,124,118,1,2,word,MEDICINE,print,medicine_p.png,,,,,,
,,,,31776,001,2025-10-15_20h22.14.412,HW_LDT_1,2024.2.4,MacIntel,62.5,,,,,,,,,,,,,,,,,,,,,1194.9779,1195.1782,1195.1783,1195.6777,,,,,,,,,,,,,,1.0906,1,,,,,,,,,,,,,,m,,,,,,,,,,,,,,,,126,0,1195.6782,1196.7776,m,1,1.0906,,[],[],[],[],[],[],[],1196.7777,1198.7767,1198.7768,1198.7769,[],[],[],[],[],[],[],,1198.7769,1198.777,0.471468662,0.433305075,0,0,0,,0,125,125,96,1,2,word,CONSIDER,print,consider_p.png,,,,,,
,,,,31776,001,2025-10-15_20h22.14.412,HW_LDT_1,2024.2.4,MacIntel,62.5,,,,,,,,,,,,,,,,,,,,,1198.7776,1198.9776,1198.9776,1199.4775,,,,,,,,,,,,,,0.6248,1,,,,,,,,,,,,,,m,,,,,,,,,,,,,,,,127,0,1199.4779,1200.1106,m,1,0.6248,,[],[],[],[],[],[],[],1200.1107,1202.1108,1202.1108,1202.111,[],[],[],[],[],[],[],,1202.111,1202.1111,0.471468662,0.433305075,0,0,0,,0,126,126,147,1,2,word,ROMANTIC,print,romantic_p.png,,,,,,
,,,,31776,001,2025-10-15_20h22.14.412,HW_LDT_1,2024.2.4,MacIntel,62.5,,,,,,,,,,,,,,,,,,,,,1202.113,1202.3107,1202.3108,1202.8106,,,,,,,,,,,,,,0.6918,1,,,,,,,,,,,,,,z,,,,,,,,,,,,,,,,128,0,1202.811,1203.5106,z,1,0.6918,,[],[],[],[],[],[],[],1203.5106,1205.5102,1205.5103,1205.5104,[],[],[],[],[],[],[],,1205.5104,1205.5105,0.471468662,0.433305075,0,0,0,,0,127,127,6,1,2,RL,conbicer,print,conbicer_p.png,,,,,,
,,,,31776,001,2025-10-15_20h22.14.412,HW_LDT_1,2024.2.4,MacIntel,62.5,,,,,,,,,,,,,,,,,,,,,1205.5112,1205.7104,1205.7104,1206.21,,,,,,,,,,,,,,1.8419,1,,,,,,,,,,,,,,z,,,,,,,,,,,,,,,,129,0,1206.2104,1208.0602,z,1,1.8419,,[],[],[],[],[],[],[],1208.0603,1210.06,1210.06,1210.0601,[],[],[],[],[],[],[],,1210.0602,1210.0602,0.471468662,0.433305075,0,0,0,,0,128,128,52,1,2,TL,elarobate,cursive,elarobate_c.png,,,,,,
,,,,31776,001,2025-10-15_20h22.14.412,HW_LDT_1,2024.2.4,MacIntel,62.5,,,,,,,,,,,,,,,,,,,,,1210.0608,1210.2599,1210.2599,1210.7596,,,,,,,,,,,,,,2.0743,1,,,,,,,,,,,,,,z,,,,,,,,,,,,,,,,130,0,1210.76,1212.8437,z,1,2.0743,,[],[],[],[],[],[],[],1212.8438,1214.8439,1214.8439,1214.8441,[],[],[],[],[],[],[],,1214.8441,1214.8443,0.471468662,0.433305075,0,0,0,,0,129,129,33,1,2,RL,strapely,cursive,strapely_c.png,,,,,,
,,,,31776,001,2025-10-15_20h22.14.412,HW_LDT_1,2024.2.4,MacIntel,62.5,,,,,,,,,,,,,,,,,,,,,1214.8457,1215.0432,1215.0432,1215.5435,,,,,,,,,,,,,,1.9909,1,,,,,,,,,,,,,,z,,,,,,,,,,,,,,,,131,0,1215.544,1217.5434,z,1,1.9909,,[],[],[],[],[],[],[],1217.5434,1219.5432,1219.5433,1219.5435,[],[],[],[],[],[],[],,1219.5435,1219.5437,0.470091061,0.429724041,0,0,0,,0,130,130,5,1,2,RL,clisimal,cursive,clisimal_c.png,,,,,,
,,,,31776,001,2025-10-15_20h22.14.412,HW_LDT_1,2024.2.4,MacIntel,62.5,,,,,,,,,,,,,,,,,,,,,1219.5447,1219.7434,1219.7435,1220.243,,,,,,,,,,,,,,1.6503,0,,,,,,,,,,,,,,m,,,,,,,,,,,,,,,,132,0,1220.2433,1221.8952,z,0,1.6503,,[],[],[],[],[],[],[],1221.8952,1223.8928,1223.8928,1223.893,[],[],[],[],[],[],[],,1223.893,1223.893,0.470091061,0.429724041,0,0,0,,0,131,131,125,1,2,word,OPERATOR,cursive,operator_c.png,,,,,,
,,,,31776,001,2025-10-15_20h22.14.412,HW_LDT_1,2024.2.4,MacIntel,62.5,,,,,,,,,,,,,,,,,,,,,1223.8937,1224.0931,1224.0932,1224.5933,,,,,,,,,,,,,,0.9419,1,,,,,,,,,,,,,,m,,,,,,,,,,,,,,,,133,0,1224.5937,1225.5431,m,1,0.9419,,[],[],[],[],[],[],[],1225.5432,1227.5433,1227.5433,1227.5434,[],[],[],[],[],[],[],,1227.5434,1227.5435,0.470091061,0.429724041,0,0,0,,0,132,132,80,1,2,word,ACADEMY,cursive,academy_c.png,,,,,,
,,,,31776,001,2025-10-15_20h22.14.412,HW_LDT_1,2024.2.4,MacIntel,62.5,,,,,,,,,,,,,,,,,,,,,1227.5446,1227.7431,1227.7431,1228.243,,,,,,,,,,,,,,1.909,0,,,,,,,,,,,,,,m,,,,,,,,,,,,,,,,134,0,1228.2434,1230.1589,z,0,1.909,,[],[],[],[],[],[],[],1230.159,1232.1592,1232.1593,1232.1593,[],[],[],[],[],[],[],,1232.1593,1232.1593,0.470091061,0.429724041,0,0,0,,0,133,133,135,1,2,word,QUALITY,cursive,quality_c.png,,,,,,
,,,,31776,001,2025-10-15_20h22.14.412,HW_LDT_1,2024.2.4,MacIntel,62.5,,,,,,,,,,,,,,,,,,,,,1232.16,1232.3595,1232.3595,1232.8588,,,,,,,,,,,,,,1.3338,1,,,,,,,,,,,,,,z,,,,,,,,,,,,,,,,135,1,1232.8593,1234.1942,z,1,1.3338,,[],[],[],[],[],[],[],1234.1944,1236.1932,1236.1933,1237.6593,[],[],[],[],[],[],[],m,1237.6594,1237.6595,0.470522246,0.429950596,0,0,0,,0,134,134,1,1,2,RL,caleberia,print,caleberia_p.png,1.4639,,,,,
,,,,31776,001,2025-10-15_20h22.14.412,HW_LDT_1,2024.2.4,MacIntel,62.5,,,,,,,,,,,,,,,,,,,,,1237.6608,1237.8589,1237.8589,1238.3585,,,,,,,,,,,,,,2.0724,1,,,,,,,,,,,,,,z,,,,,,,,,,,,,,,,136,0,1238.3589,1240.443,z,1,2.0724,,[],[],[],[],[],[],[],1240.4431,1242.4424,1242.4425,1242.4427,[],[],[],[],[],[],[],,1242.4427,1242.4427,0.469572176,0.429709425,0,0,0,,0,135,135,10,1,2,RL,disluge,cursive,disluge_c.png,,,,,,
,,,,31776,001,2025-10-15_20h22.14.412,HW_LDT_1,2024.2.4,MacIntel,62.5,,,,,,,,,,,,,,,,,,,,,1242.4438,1242.6421,1242.6421,1243.142,,,,,,,,,,,,,,1.3268,1,,,,,,,,,,,,,,m,,,,,,,,,,,,,,,,137,0,1243.1424,1244.4755,m,1,1.3268,,[],[],[],[],[],[],[],1244.4756,1246.4756,1246.4756,1246.4757,[],[],[],[],[],[],[],,1246.4758,1246.4758,0.469572176,0.429709425,0,0,0,,0,136,136,88,1,2,word,CAMERA,print,camera_p.png,,,,,,
,,,,31776,001,2025-10-15_20h22.14.412,HW_LDT_1,2024.2.4,MacIntel,62.5,,,,,,,,,,,,,,,,,,,,,1246.4771,1246.6756,1246.6757,1247.1752,,,,,,,,,,,,,,0.7323,1,,,,,,,,,,,,,,m,,,,,,,,,,,,,,,,138,0,1247.1755,1247.9088,m,1,0.7323,,[],[],[],[],[],[],[],1247.9088,1249.9083,1249.9083,1249.9086,[],[],[],[],[],[],[],,1249.9086,1249.9087,0.469572176,0.429709425,0,0,0,,0,137,137,149,1,2,word,SENATOR,print,senator_p.png,,,,,,
,,,,31776,001,2025-10-15_20h22.14.412,HW_LDT_1,2024.2.4,MacIntel,62.5,,,,,,,,,,,,,,,,,,,,,1249.9098,1250.1085,1250.1085,1250.6084,,,,,,,,,,,,,,0.8915,1,,,,,,,,,,,,,,z,,,,,,,,,,,,,,,,139,0,1250.6087,1251.5088,z,1,0.8915,,[],[],[],[],[],[],[],1251.5088,1253.5086,1253.5086,1253.5088,[],[],[],[],[],[],[],,1253.5088,1253.5089,0.469572176,0.429709425,0,0,0,,0,138,138,15,1,2,RL,linedal,print,linedal_p.png,,,,,,
,,,,31776,001,2025-10-15_20h22.14.412,HW_LDT_1,2024.2.4,MacIntel,62.5,,,,,,,,,,,,,,,,,,,,,1253.5099,1253.7083,1253.7083,1254.2085,,,,,,,,,,,,,,0.9896,1,,,,,,,,,,,,,,z,,,,,,,,,,,,,,,,140,0,1254.209,1255.2083,z,1,0.9896,,[],[],[],[],[],[],[],1255.2083,1257.2085,1257.2086,1257.2087,[],[],[],[],[],[],[],,1257.2088,1257.2088,0.469572176,0.429709425,0,0,0,,0,139,139,46,1,2,TL,codemy,cursive,codemy_c.png,,,,,,
,,,,31776,001,2025-10-15_20h22.14.412,HW_LDT_1,2024.2.4,MacIntel,62.5,,,,,,,,,,,,,,,,,,,,,1257.2101,1257.4081,1257.4082,1257.9083,,,,,,,,,,,,,,1.4422,1,,,,,,,,,,,,,,z,,,,,,,,,,,,,,,,141,0,1257.9089,1259.3586,z,1,1.4422,,[],[],[],[],[],[],[],1259.3586,1261.3583,1261.3583,1261.3585,[],[],[],[],[],[],[],,1261.3585,1261.3586,0.470924199,0.428540108,0,0,0,,0,140,140,58,1,2,TL,mitilary,cursive,mitilary_c.png,,,,,,
,,,,31776,001,2025-10-15_20h22.14.412,HW_LDT_1,2024.2.4,MacIntel,62.5,,,,,,,,,,,,,,,,,,,,,1261.3597,1261.5583,1261.5584,1262.0581,,,,,,,,,,,,,,1.5743,1,,,,,,,,,,,,,,m,,,,,,,,,,,,,,,,142,0,1262.0585,1263.6415,m,1,1.5743,,[],[],[],[],[],[],[],1263.6416,1265.6416,1265.6416,1265.6418,[],[],[],[],[],[],[],,1265.6419,1265.642,0.470924199,0.430571796,0,0,0,,0,141,141,139,1,2,word,REGULAR,cursive,regular_c.png,,,,,,
,,,,31776,001,2025-10-15_20h22.14.412,HW_LDT_1,2024.2.4,MacIntel,62.5,,,,,,,,,,,,,,,,,,,,,1265.6437,1265.8411,1265.8411,1266.3414,,,,,,,,,,,,,,1.3097,1,,,,,,,,,,,,,,z,,,,,,,,,,,,,,,,143,0,1266.342,1267.6577,z,1,1.3097,,[],[],[],[],[],[],[],1267.6577,1269.658,1269.6581,1269.6584,[],[],[],[],[],[],[],,1269.6584,1269.6585,0.47112883,0.430571796,0,0,0,,0,142,142,75,1,2,TL,ronamtic,print,ronamtic_p.png,,,,,,
,,,,31776,001,2025-10-15_20h22.14.412,HW_LDT_1,2024.2.4,MacIntel,62.5,,,,,,,,,,,,,,,,,,,,,1269.6597,1269.8577,1269.8577,1270.3572,,,,,,,,,,,,,,2.1326,0,,,,,,,,,,,,,,m,,,,,,,,,,,,,,,,144,0,1270.3579,1272.4922,z,0,2.1326,,[],[],[],[],[],[],[],1272.4923,1274.4912,1274.4912,1274.4916,[],[],[],[],[],[],[],,1274.4917,1274.4917,0.473003391,0.433454894,0,0,0,,0,143,143,90,1,2,word,CAPITAL,cursive,capital_c.png,,,,,,
,,,,31776,001,2025-10-15_20h22.14.412,HW_LDT_1,2024.2.4,MacIntel,62.5,,,,,,,,,,,,,,,,,,,,,1274.493,1274.6901,1274.6902,1275.1909,,,,,,,,,,,,,,1.0599,1,,,,,,,,,,,,,,z,,,,,,,,,,,,,,,,145,0,1275.1911,1276.2574,z,1,1.0599,,[],[],[],[],[],[],[],1276.2575,1278.2575,1278.2576,1278.2578,[],[],[],[],[],[],[],,1278.2578,1278.2579,0.473003391,0.433670486,0,0,0,,0,144,144,18,1,2,RL,mesibine,print,mesibine_p.png,,,,,,
,,,,31776,001,2025-10-15_20h22.14.412,HW_LDT_1,2024.2.4,MacIntel,62.5,,,,,,,,,,,,,,,,,,,,,1278.2595,1278.4569,1278.4569,1278.9576,,,,,,,,,,,,,,2.2133,1,,,,,,,,,,,,,,z,,,,,,,,,,,,,,,,146,0,1278.9581,1281.1743,z,1,2.2133,,[],[],[],[],[],[],[],1281.1743,1283.1733,1283.1734,1283.1736,[],[],[],[],[],[],[],,1283.1736,1283.1737,0.473003391,0.433670486,0,0,0,,0,145,145,45,1,2,TL,carnidal,cursive,carnidal_c.png,,,,,,
,,,,31776,001,2025-10-15_20h22.14.412,HW_LDT_1,2024.2.4,MacIntel,62.5,,,,,,,,,,,,,,,,,,,,,1283.175,1283.3731,1283.3732,1283.874,,,,,,,,,,,,,,1.7274,1,,,,,,,,,,,,,,z,,,,,,,,,,,,,,,,147,0,1283.8743,1285.6074,z,1,1.7274,,[],[],[],[],[],[],[],1285.6075,1287.6073,1287.6075,1287.6078,[],[],[],[],[],[],[],,1287.6078,1287.608,0.473003391,0.433670486,0,0,0,,0,146,146,14,1,2,RL,insibate,cursive,insibate_c.png,,,,,,
,,,,31776,001,2025-10-15_20h22.14.412,HW_LDT_1,2024.2.4,MacIntel,62.5,,,,,,,,,,,,,,,,,,,,,1287.6097,1287.8072,1287.8073,1288.3073,,,,,,,,,,,,,,1.275,1,,,,,,,,,,,,,,m,,,,,,,,,,,,,,,,148,0,1288.3079,1289.5901,m,1,1.275,,[],[],[],[],[],[],[],1289.5902,1291.5904,1291.5904,1291.5907,[],[],[],[],[],[],[],,1291.5907,1291.5909,0.472776836,0.426946913,0,0,0,,0,147,147,100,1,2,word,DECADE,print,decade_p.png,,,,,,
,,,,31776,001,2025-10-15_20h22.14.412,HW_LDT_1,2024.2.4,MacIntel,62.5,,,,,,,,,,,,,,,,,,,,,1291.5921,1291.7902,1291.7903,1292.2905,,,,,,,,,,,,,,0.909,1,,,,,,,,,,,,,,z,,,,,,,,,,,,,,,,149,1,1292.2911,1293.207,z,1,0.909,,[],[],[],[],[],[],[],1293.2072,1295.206,1295.2061,1296.4236,[],[],[],[],[],[],[],m,1296.4236,1296.4237,0.473438231,0.423636284,0,0,0,,0,148,148,64,1,2,TL,paficic,print,paficic_p.png,1.2142,,,,,
,,,,31776,001,2025-10-15_20h22.14.412,HW_LDT_1,2024.2.4,MacIntel,62.5,,,,,,,,,,,,,,,,,,,,,1296.4248,1296.6235,1296.6236,1297.1236,,,,,,,,,,,,,,1.4976,1,,,,,,,,,,,,,,z,,,,,,,,,,,,,,,,150,0,1297.1241,1298.6234,z,1,1.4976,,[],[],[],[],[],[],[],1298.6236,1300.6234,1300.6235,1300.6236,[],[],[],[],[],[],[],,1300.6236,1300.6238,0.473438231,0.423636284,0,0,0,,0,149,149,48,1,2,TL,detabe,print,detabe_p.png,,,,,,
,,,,31776,001,2025-10-15_20h22.14.412,HW_LDT_1,2024.2.4,MacIntel,62.5,,,,,,,,,,,,,,,,,,,,,1300.6251,1300.8235,1300.8235,1301.3232,,,,,,,,,,,,,,2.505,0,,,,,,,,,,,,,,m,,,,,,,,,,,,,,,,151,0,1301.3237,1303.8397,z,0,2.505,,[],[],[],[],[],[],[],1303.8397,1305.8398,1305.8398,1305.8401,[],[],[],[],[],[],[],,1305.8401,1305.8402,0.473438231,0.423636284,0,0,0,,0,150,150,126,1,2,word,OPTIMAL,cursive,optimal_c.png,,,,,,
,,,,31776,001,2025-10-15_20h22.14.412,HW_LDT_1,2024.2.4,MacIntel,62.5,,,,,,,,,,,,,,,,,,,,,1305.8416,1306.0398,1306.0399,1306.5398,,,,,,,,,,,,,,0.9617,1,,,,,,,,,,,,,,m,,,,,,,,,,,,,,,,152,0,1306.5405,1307.5059,m,1,0.9617,,[],[],[],[],[],[],[],1307.506,1309.5063,1309.5064,1309.5066,[],[],[],[],[],[],[],,1309.5066,1309.5068,0.473438231,0.423636284,0,0,0,,0,151,151,84,1,2,word,BELOVED,cursive,beloved_c.png,,,,,,
,,,,31776,001,2025-10-15_20h22.14.412,HW_LDT_1,2024.2.4,MacIntel,62.5,,,,,,,,,,,,,,,,,,,,,1309.508,1309.7063,1309.7064,1310.2066,,,,,,,,,,,,,,1.4036,1,,,,,,,,,,,,,,z,,,,,,,,,,,,,,,,153,1,1310.2073,1311.6228,z,1,1.4036,,[],[],[],[],[],[],[],1311.6229,1313.6228,1313.6228,1314.2721,[],[],[],[],[],[],[],z,1314.2722,1314.2723,0.473438231,0.423636284,0,0,0,,0,152,152,19,1,2,RL,monebate,cursive,monebate_c.png,0.6447,,,,,
,,,,31776,001,2025-10-15_20h22.14.412,HW_LDT_1,2024.2.4,MacIntel,62.5,,,,,,,,,,,,,,,,,,,,,1314.2734,1314.472,1314.472,1314.9729,,,,,,,,,,,,,,0.6744,1,,,,,,,,,,,,,,m,,,,,,,,,,,,,,,,154,0,1314.9734,1315.6557,m,1,0.6744,,[],[],[],[],[],[],[],1315.6558,1317.6562,1317.6562,1317.6563,[],[],[],[],[],[],[],,1317.6563,1317.6564,0.473438231,0.423636284,0,0,0,,0,153,153,137,1,2,word,RAPIDLY,print,rapidly_p.png,,,,,,
,,,,31776,001,2025-10-15_20h22.14.412,HW_LDT_1,2024.2.4,MacIntel,62.5,,,,,,,,,,,,,,,,,,,,,1317.6575,1317.8561,1317.8562,1318.356,,,,,,,,,,,,,,1.4476,1,,,,,,,,,,,,,,m,,,,,,,,,,,,,,,,155,0,1318.3567,1319.8059,m,1,1.4476,,[],[],[],[],[],[],[],1319.806,1321.8058,1321.8058,1321.806,[],[],[],[],[],[],[],,1321.806,1321.8061,0.473438231,0.423636284,0,0,0,,0,154,154,148,1,2,word,SALINE,cursive,saline_c.png,,,,,,
,,,,31776,001,2025-10-15_20h22.14.412,HW_LDT_1,2024.2.4,MacIntel,62.5,,,,,,,,,,,,,,,,,,,,,1321.8071,1322.0059,1322.0059,1322.5058,,,,,,,,,,,,,,2.1784,1,,,,,,,,,,,,,,z,,,,,,,,,,,,,,,,156,0,1322.5065,1324.6891,z,1,2.1784,,[],[],[],[],[],[],[],1324.6892,1326.689,1326.689,1326.6892,[],[],[],[],[],[],[],,1326.6893,1326.6893,0.473438231,0.423636284,0,0,0,,0,155,155,66,1,2,TL,prodive,cursive,prodive_c.png,,,,,,
,,,,31776,001,2025-10-15_20h22.14.412,HW_LDT_1,2024.2.4,MacIntel,62.5,,,,,,,,,,,,,,,,,,,,,1326.6905,1326.8891,1326.8891,1327.389,,,,,,,,,,,,,,1.9564,1,,,,,,,,,,,,,,z,,,,,,,,,,,,,,,,157,0,1327.3896,1329.3556,z,1,1.9564,,[],[],[],[],[],[],[],1329.3556,1331.3556,1331.3556,1331.3558,[],[],[],[],[],[],[],,1331.3559,1331.356,0.473438231,0.423636284,0,0,0,,0,156,156,38,1,2,TL,atameur,cursive,atameur_c.png,,,,,,
,,,,31776,001,2025-10-15_20h22.14.412,HW_LDT_1,2024.2.4,MacIntel,62.5,,,,,,,,,,,,,,,,,,,,,1331.3571,1331.5556,1331.5556,1332.0555,,,,,,,,,,,,,,1.4115,0,,,,,,,,,,,,,,m,,,,,,,,,,,,,,,,158,1,1332.0557,1333.4721,z,0,1.4115,,[],[],[],[],[],[],[],1333.4721,1335.472,1335.4721,1336.2221,[],[],[],[],[],[],[],z,1336.2222,1336.2222,0.473438231,0.423636284,0,0,0,,0,157,157,85,1,2,word,BENEFIT,cursive,benefit_c.png,0.7404,,,,,
,,,,31776,001,2025-10-15_20h22.14.412,HW_LDT_1,2024.2.4,MacIntel,62.5,,,,,,,,,,,,,,,,,,,,,1336.2235,1336.422,1336.422,1336.9219,,,,,,,,,,,,,,0.7749,1,,,,,,,,,,,,,,z,,,,,,,,,,,,,,,,159,1,1336.9225,1337.7054,z,1,0.7749,,[],[],[],[],[],[],[],1337.7054,1339.7052,1339.7052,1340.8715,[],[],[],[],[],[],[],m,1340.8715,1340.8715,0.473438231,0.423636284,0,0,0,,0,158,158,11,1,2,RL,formuke,print,formuke_p.png,1.1637,,,,,
,,,,31776,001,2025-10-15_20h22.14.412,HW_LDT_1,2024.2.4,MacIntel,62.5,,,,,,,,,,,,,,,,,,,,,1340.872,1341.0716,1341.0717,1341.5718,,,,,,,,,,,,,,0.8934,1,,,,,,,,,,,,,,m,,,,,,,,,,,,,,,,160,0,1341.5724,1342.4712,m,1,0.8934,,[],[],[],[],[],[],[],1342.4712,1344.4715,1344.4716,1344.4718,[],[],[],[],[],[],[],,1344.4719,1344.4719,0.473438231,0.423636284,0,0,0,,0,159,159,81,1,2,word,ADVISORY,print,advisory_p.png,,,,,,
,,,,31776,001,2025-10-15_20h22.14.412,HW_LDT_1,2024.2.4,MacIntel,62.5,,,,,,,,,,,,,,,,,,,,,,,,,,,,,,,,,,,,,,,,,,,,,,,,,,,,,,,,,,,,,,,,,,,,,,,,,,,,,,,,,,,,,,,,,,,,,,,,,,,,,,,,,,,,,,,,,,,,,,1344.482,1349.4718
