counterbalance_lists.group,counterbalance_lists.remaining,get_list.started,get_list.stopped,participant,session,date,expName,psychopyVersion,OS,frameRate,Instructions.started,Instructions.stopped,key_resp.keys,instr_done_touch.x,instr_done_touch.y,instr_done_touch.leftButton,instr_done_touch.midButton,instr_done_touch.rightButton,instr_done_touch.clicked_name,start_instr.thisRepN,start_instr.thisTrialN,start_instr.thisN,start_instr.thisIndex,start_instr.ran,pageN,phase,instruct_text,has_image,instruct_image,key_resp.rt,key_resp.duration,showProgress.started,showProgress.stopped,fix.started,fix.stopped,prac.started,prac.stopped,response.keys,response.corr,response.rt,response.duration,touch_resp.x,touch_resp.y,touch_resp.leftButton,touch_resp.midButton,touch_resp.rightButton,touch_resp.time,touch_resp.clicked_name,rt,corr,feedback.started,feedback.stopped,trials.thisRepN,trials.thisTrialN,trials.thisN,trials.thisIndex,trials.ran,TrialID,StimulusType,Condition,PrimeDuration,Prime,Target,corrAns,Instructions_expt.started,Instructions_expt.stopped,key_resp_3.keys,instr_done_touch_3.x,instr_done_touch_3.y,instr_done_touch_3.leftButton,instr_done_touch_3.midButton,instr_done_touch_3.rightButton,instr_done_touch_3.clicked_name,instr_experiment.thisRepN,instr_experiment.thisTrialN,instr_experiment.thisN,instr_experiment.thisIndex,instr_experiment.ran,trialID,flag,maintask.started,maintask.stopped,key_resp_2.keys,key_resp_2.corr,key_resp_2.rt,key_resp_2.duration,targ_click.x,targ_click.y,targ_click.leftButton,targ_click.midButton,targ_click.rightButton,targ_click.time,targ_click.clicked_name,ITI.started,ITI.stopped,probe.started,probe.stopped,click_probe.x,click_probe.y,click_probe.leftButton,click_probe.midButton,click_probe.rightButton,click_probe.time,click_probe.clicked_name,key_resp_probe.keys,Break.started,Break.stopped,break_done_touch.x,break_done_touch.y,break_done_touch.leftButton,break_done_touch.midButton,break_done_touch.rightButton,break_done_keyboard.keys,list4_trials.thisRepN,list4_trials.thisTrialN,list4_trials.thisN,list4_trials.thisIndex,list4_trials.ran,list_id,item_type,string,font,stim_file,key_resp_probe.rt,key_resp_probe.duration,break_done_keyboard.rt,break_done_keyboard.duration,End.started,End.stopped
list4,,0.4021,0.4022,31783,001,2025-11-18_19h58.31.548,HW_LDT_1,2024.2.4,MacIntel,59.52380952,,,,,,,,,,,,,,,,,,,,,,,,,,,,,,,,,,,,,,,,,,,,,,,,,,,,,,,,,,,,,,,,,,,,,,,,,,,,,,,,,,,,,,,,,,,,,,,,,,,,,,,,,,,,,,,,,,,,,,,
,,,,31783,001,2025-11-18_19h58.31.548,HW_LDT_1,2024.2.4,MacIntel,59.52380952,0.4205,24.6213,,-0.057336087,-0.390450439,1,0,0,instr_done_button,0,0,0,0,1,1,instructions,"INSTRUCTIONS
At the start of each trial, look at the plus sign  (+) in the center of the screen.  This tells you that a trial is about to begin and where to look. Second, the plus sign will disappear and a string of letters will appear. Your task is to determine if the string of letters is a word or not. If the item is a word press the M key (on keyboard)  or touch the word button (phone/tablet).  If the item is not a word,  press the  Z key (on keyboard)  or touch the nonword button (on phone/tablet). The items will be presented for a short time. 
Press the space bar or touch  continue.",0,,,,,,,,,,,,,,,,,,,,,,,,,,,,,,,,,,,,,,,,,,,,,,,,,,,,,,,,,,,,,,,,,,,,,,,,,,,,,,,,,,,,,,,,,,,,,,,,,,,,,
,,,,31783,001,2025-11-18_19h58.31.548,HW_LDT_1,2024.2.4,MacIntel,59.52380952,24.6226,30.1851,space,-0.057336087,-0.390450439,0,0,0,,0,1,1,1,1,2,instructions,"If your device has a keyboard, press the 'Z' key for nonwords and the 'M' key for words.





Press the space bar or touch the button below to continue.",0,keyboard-example.gif,5.5339,,,,,,,,,,,,,,,,,,,,,,,,,,,,,,,,,,,,,,,,,,,,,,,,,,,,,,,,,,,,,,,,,,,,,,,,,,,,,,,,,,,,,,,,,,,,,,,,,,,
,,,,31783,001,2025-11-18_19h58.31.548,HW_LDT_1,2024.2.4,MacIntel,59.52380952,30.1866,32.3908,space,-0.057336087,-0.390450439,0,0,0,,0,2,2,2,1,3,instructions,"If you are using a touchscreen only device, use the buttons on the screen. Do not use the mouse.





Press the space bar or touch the button below to continue.",0,touchscreen-example.gif,2.1753,,,,,,,,,,,,,,,,,,,,,,,,,,,,,,,,,,,,,,,,,,,,,,,,,,,,,,,,,,,,,,,,,,,,,,,,,,,,,,,,,,,,,,,,,,,,,,,,,,,
,,,,31783,001,2025-11-18_19h58.31.548,HW_LDT_1,2024.2.4,MacIntel,59.52380952,32.3927,44.7172,space,-0.057336087,-0.390450439,0,0,0,,0,3,3,3,1,4,instructions,"It is very important that you respond as quickly and accurately as possible, as each letter string will only be on the screen for two seconds. If you do not respond within this time, the message 'Too slow!' will be displayed and the experiment will progress to the next letter string. The first 20 trials will be practice trials and you will receive feedback on your answers. 

Press the space bar or touch the button below to start the practice trials.",0,,12.2981,,,,,,,,,,,,,,,,,,,,,,,,,,,,,,,,,,,,,,,,,,,,,,,,,,,,,,,,,,,,,,,,,,,,,,,,,,,,,,,,,,,,,,,,,,,,,,,,,,,
,,,,31783,001,2025-11-18_19h58.31.548,HW_LDT_1,2024.2.4,MacIntel,59.52380952,,,,,,,,,,,,,,,,,,,,,,44.7471,44.9189,44.919,45.4074,45.4076,46.1724,m,0,0.7309,,[],[],[],[],[],[],[],0.7309,0,46.1727,46.6659,0,0,0,14,1,1015,NW,UN,16,miaber,THRALE,z,,,,,,,,,,,,,,,,,,,,,,,,,,,,,,,,,,,,,,,,,,,,,,,,,,,,,,,,,,,,,,,,,
,,,,31783,001,2025-11-18_19h58.31.548,HW_LDT_1,2024.2.4,MacIntel,59.52380952,,,,,,,,,,,,,,,,,,,,,,46.6674,46.8541,46.8543,47.3574,47.3582,48.0303,m,1,0.646,,[],[],[],[],[],[],[],0.646,1,48.031,48.5324,0,1,1,0,1,1001,WORD,"ID",33,utopia,UTOPIA,m,,,,,,,,,,,,,,,,,,,,,,,,,,,,,,,,,,,,,,,,,,,,,,,,,,,,,,,,,,,,,,,,,
,,,,31783,001,2025-11-18_19h58.31.548,HW_LDT_1,2024.2.4,MacIntel,59.52380952,,,,,,,,,,,,,,,,,,,,,,48.534,48.7358,48.7358,49.2339,49.235,50.028,z,1,0.7731,,[],[],[],[],[],[],[],0.7731,1,50.0281,50.5225,0,2,2,15,1,1016,NW,UN,16,mushed,WHAISE,z,,,,,,,,,,,,,,,,,,,,,,,,,,,,,,,,,,,,,,,,,,,,,,,,,,,,,,,,,,,,,,,,,
,,,,31783,001,2025-11-18_19h58.31.548,HW_LDT_1,2024.2.4,MacIntel,59.52380952,,,,,,,,,,,,,,,,,,,,,,50.5236,50.7174,50.7176,51.2209,51.2219,51.944,m,1,0.7012,,[],[],[],[],[],[],[],0.7012,1,51.944,52.4369,0,3,3,3,1,1004,WORD,"ID",16,matrix,MATRIX,m,,,,,,,,,,,,,,,,,,,,,,,,,,,,,,,,,,,,,,,,,,,,,,,,,,,,,,,,,,,,,,,,,
,,,,31783,001,2025-11-18_19h58.31.548,HW_LDT_1,2024.2.4,MacIntel,59.52380952,,,,,,,,,,,,,,,,,,,,,,52.4381,52.6385,52.6386,53.125,53.1259,53.7803,m,1,0.6443,,[],[],[],[],[],[],[],0.6443,1,53.7804,54.2797,0,4,4,4,1,1005,WORD,UN,33,abound,SQUEAK,m,,,,,,,,,,,,,,,,,,,,,,,,,,,,,,,,,,,,,,,,,,,,,,,,,,,,,,,,,,,,,,,,,
,,,,31783,001,2025-11-18_19h58.31.548,HW_LDT_1,2024.2.4,MacIntel,59.52380952,,,,,,,,,,,,,,,,,,,,,,54.2814,54.4704,54.4705,54.973,54.974,55.5969,z,1,0.5976,,[],[],[],[],[],[],[],0.5976,1,55.5971,56.0857,0,5,5,11,1,1012,NW,"ID",16,rashet,RASHET,z,,,,,,,,,,,,,,,,,,,,,,,,,,,,,,,,,,,,,,,,,,,,,,,,,,,,,,,,,,,,,,,,,
,,,,31783,001,2025-11-18_19h58.31.548,HW_LDT_1,2024.2.4,MacIntel,59.52380952,,,,,,,,,,,,,,,,,,,,,,56.0864,56.2869,56.2869,56.7753,56.7761,57.5288,z,1,0.7327,,[],[],[],[],[],[],[],0.7327,1,57.5289,58.0245,0,6,6,9,1,1010,NW,"ID",33,fariny,FARINY,z,,,,,,,,,,,,,,,,,,,,,,,,,,,,,,,,,,,,,,,,,,,,,,,,,,,,,,,,,,,,,,,,,
,,,,31783,001,2025-11-18_19h58.31.548,HW_LDT_1,2024.2.4,MacIntel,59.52380952,,,,,,,,,,,,,,,,,,,,,,58.0257,58.2195,58.2196,58.7148,58.7164,59.33,m,1,0.5977,,[],[],[],[],[],[],[],0.5977,1,59.3301,59.8329,0,7,7,5,1,1006,WORD,UN,33,frenzy,OBTAIN,m,,,,,,,,,,,,,,,,,,,,,,,,,,,,,,,,,,,,,,,,,,,,,,,,,,,,,,,,,,,,,,,,,
,,,,31783,001,2025-11-18_19h58.31.548,HW_LDT_1,2024.2.4,MacIntel,59.52380952,,,,,,,,,,,,,,,,,,,,,,59.8347,60.0233,60.0234,60.5272,60.5281,61.2497,z,1,0.7037,,[],[],[],[],[],[],[],0.7037,1,61.2498,61.7503,0,8,8,12,1,1013,NW,UN,33,adveil,SPRINY,z,,,,,,,,,,,,,,,,,,,,,,,,,,,,,,,,,,,,,,,,,,,,,,,,,,,,,,,,,,,,,,,,,
,,,,31783,001,2025-11-18_19h58.31.548,HW_LDT_1,2024.2.4,MacIntel,59.52380952,,,,,,,,,,,,,,,,,,,,,,61.7521,61.941,61.941,62.4465,62.4473,63.0734,m,1,0.6058,,[],[],[],[],[],[],[],0.6058,1,63.0735,63.566,0,9,9,6,1,1007,WORD,UN,16,tropic,ZOMBIE,m,,,,,,,,,,,,,,,,,,,,,,,,,,,,,,,,,,,,,,,,,,,,,,,,,,,,,,,,,,,,,,,,,
,,,,31783,001,2025-11-18_19h58.31.548,HW_LDT_1,2024.2.4,MacIntel,59.52380952,,,,,,,,,,,,,,,,,,,,,,63.5671,63.769,63.769,64.2641,64.2649,64.9562,z,1,0.6755,,[],[],[],[],[],[],[],0.6755,1,64.9562,65.46,0,10,10,13,1,1014,NW,UN,33,winfer,ROUPET,z,,,,,,,,,,,,,,,,,,,,,,,,,,,,,,,,,,,,,,,,,,,,,,,,,,,,,,,,,,,,,,,,,
,,,,31783,001,2025-11-18_19h58.31.548,HW_LDT_1,2024.2.4,MacIntel,59.52380952,,,,,,,,,,,,,,,,,,,,,,65.4611,65.6573,65.6575,66.1596,66.1603,67.0411,z,1,0.8655,,[],[],[],[],[],[],[],0.8655,1,67.0413,67.5398,0,11,11,8,1,1009,NW,"ID",33,aslert,ASLERT,z,,,,,,,,,,,,,,,,,,,,,,,,,,,,,,,,,,,,,,,,,,,,,,,,,,,,,,,,,,,,,,,,,
,,,,31783,001,2025-11-18_19h58.31.548,HW_LDT_1,2024.2.4,MacIntel,59.52380952,,,,,,,,,,,,,,,,,,,,,,67.541,67.7329,67.733,68.2411,68.2421,68.9605,z,1,0.6942,,[],[],[],[],[],[],[],0.6942,1,68.9605,69.4649,0,12,12,10,1,1011,NW,"ID",16,inlade,INLADE,z,,,,,,,,,,,,,,,,,,,,,,,,,,,,,,,,,,,,,,,,,,,,,,,,,,,,,,,,,,,,,,,,,
,,,,31783,001,2025-11-18_19h58.31.548,HW_LDT_1,2024.2.4,MacIntel,59.52380952,,,,,,,,,,,,,,,,,,,,,,69.4661,69.6554,69.6555,70.1677,70.1685,70.7573,m,1,0.5614,,[],[],[],[],[],[],[],0.5614,1,70.7575,71.25,0,13,13,7,1,1008,WORD,UN,16,hurdle,VOLUME,m,,,,,,,,,,,,,,,,,,,,,,,,,,,,,,,,,,,,,,,,,,,,,,,,,,,,,,,,,,,,,,,,,
,,,,31783,001,2025-11-18_19h58.31.548,HW_LDT_1,2024.2.4,MacIntel,59.52380952,,,,,,,,,,,,,,,,,,,,,,71.2507,71.4464,71.4465,71.9501,71.9513,72.5432,m,1,0.5669,,[],[],[],[],[],[],[],0.5669,1,72.5433,73.0377,0,14,14,2,1,1003,WORD,"ID",16,almond,ALMOND,m,,,,,,,,,,,,,,,,,,,,,,,,,,,,,,,,,,,,,,,,,,,,,,,,,,,,,,,,,,,,,,,,,
,,,,31783,001,2025-11-18_19h58.31.548,HW_LDT_1,2024.2.4,MacIntel,59.52380952,,,,,,,,,,,,,,,,,,,,,,73.0388,73.2271,73.2271,73.7364,73.7375,74.3118,m,1,0.5539,,[],[],[],[],[],[],[],0.5539,1,74.3119,74.8145,0,15,15,1,1,1002,WORD,"ID",33,adjust,ADJUST,m,,,,,,,,,,,,,,,,,,,,,,,,,,,,,,,,,,,,,,,,,,,,,,,,,,,,,,,,,,,,,,,,,
,,,,31783,001,2025-11-18_19h58.31.548,HW_LDT_1,2024.2.4,MacIntel,59.52380952,,,,,,,,,,,,,,,1,end_of_practice,"You have completed the practice trials. During the experimental trials, you will not receive feedback. On some trials you will be asked to report whether the item you just saw was in cursive or print. 
Before you begin, please ensure that you are in a comfortable and quiet location and will not be disturbed for about 15 minutes, as we cannot use your data if you do not complete all the trials. 
 When you are ready to start the experimental trials, please press space or touch the button below.",,,,,,,,,,,,,,,,,,,,,,,,,,,,,,,,,,,,,,74.8211,97.7426,,-0.01518514,-0.383967896,1,0,0,instr_done_button_3,0,0,0,0,1,,,,,,,,,,,,,,,,,,,,,,,,,,,,,,,,,,,,,,,,,,,,,,,,,,,
,,,,31783,001,2025-11-18_19h58.31.548,HW_LDT_1,2024.2.4,MacIntel,59.52380952,,,,,,,,,,,,,,,,,,,,,,97.7611,97.9315,97.9315,98.4424,,,,,,,,,,,,,,0.8888,1,,,,,,,,,,,,,,z,,,,,,,,,,,,,,,1,0,98.4438,99.3353,z,1,0.8888,,[],[],[],[],[],[],[],99.3356,101.336,101.3363,101.3405,[],[],[],[],[],[],[],,101.3407,101.3434,-0.01518514,-0.383967896,0,0,0,,0,0,0,10,1,4,RL,carminal,cursive,carminal_c.png,,,,,,
,,,,31783,001,2025-11-18_19h58.31.548,HW_LDT_1,2024.2.4,MacIntel,59.52380952,,,,,,,,,,,,,,,,,,,,,,101.3445,101.5358,101.5359,102.0339,,,,,,,,,,,,,,0.8665,1,,,,,,,,,,,,,,z,,,,,,,,,,,,,,,2,0,102.0345,102.9128,z,1,0.8665,,[],[],[],[],[],[],[],102.9129,104.905,104.905,104.9053,[],[],[],[],[],[],[],,104.9053,104.9055,-0.01518514,-0.383967896,0,0,0,,0,1,1,49,1,4,RL,vesofity,cursive,vesofity_c.png,,,,,,
,,,,31783,001,2025-11-18_19h58.31.548,HW_LDT_1,2024.2.4,MacIntel,59.52380952,,,,,,,,,,,,,,,,,,,,,,104.9071,105.0934,105.0934,105.6021,,,,,,,,,,,,,,1.1763,1,,,,,,,,,,,,,,z,,,,,,,,,,,,,,,3,1,105.6026,106.7893,z,1,1.1763,,[],[],[],[],[],[],[],106.7894,108.7829,108.7829,110.7878,[],[],[],[],[],[],[],m,110.7879,110.7879,-0.01518514,-0.383967896,0,0,0,,0,2,2,20,1,4,RL,gralekul,print,gralekul_p.png,2.0005,,,,,
,,,,31783,001,2025-11-18_19h58.31.548,HW_LDT_1,2024.2.4,MacIntel,59.52380952,,,,,,,,,,,,,,,,,,,,,,110.7886,110.9764,110.9764,111.4924,,,,,,,,,,,,,,0.7088,1,,,,,,,,,,,,,,m,,,,,,,,,,,,,,,4,0,111.493,112.2119,m,1,0.7088,,[],[],[],[],[],[],[],112.2121,114.2073,114.2074,114.2077,[],[],[],[],[],[],[],,114.2077,114.2079,-0.01518514,-0.383967896,0,0,0,,0,3,3,136,1,4,word,RADICAL,print,radical_p.png,,,,,,
,,,,31783,001,2025-11-18_19h58.31.548,HW_LDT_1,2024.2.4,MacIntel,59.52380952,,,,,,,,,,,,,,,,,,,,,,114.2095,114.4007,114.4008,114.9052,,,,,,,,,,,,,,0.8122,1,,,,,,,,,,,,,,m,,,,,,,,,,,,,,,5,0,114.9057,115.7196,m,1,0.8122,,[],[],[],[],[],[],[],115.7197,117.7172,117.7172,117.7175,[],[],[],[],[],[],[],,117.7177,117.7177,-0.01518514,-0.383967896,0,0,0,,0,4,4,122,1,4,word,MOBILE,print,mobile_p.png,,,,,,
,,,,31783,001,2025-11-18_19h58.31.548,HW_LDT_1,2024.2.4,MacIntel,59.52380952,,,,,,,,,,,,,,,,,,,,,,117.7196,117.9091,117.9092,118.408,,,,,,,,,,,,,,0.7966,1,,,,,,,,,,,,,,z,,,,,,,,,,,,,,,6,0,118.4085,119.2148,z,1,0.7966,,[],[],[],[],[],[],[],119.215,121.2094,121.2094,121.2096,[],[],[],[],[],[],[],,121.2097,121.2098,-0.01518514,-0.383967896,0,0,0,,0,5,5,47,1,4,RL,stopave,print,stopave_p.png,,,,,,
,,,,31783,001,2025-11-18_19h58.31.548,HW_LDT_1,2024.2.4,MacIntel,59.52380952,,,,,,,,,,,,,,,,,,,,,,121.2109,121.4132,121.4132,121.902,,,,,,,,,,,,,,1.3587,1,,,,,,,,,,,,,,z,,,,,,,,,,,,,,,7,0,121.9026,123.2699,z,1,1.3587,,[],[],[],[],[],[],[],123.2699,125.2606,125.2607,125.2608,[],[],[],[],[],[],[],,125.2609,125.2611,-0.01518514,-0.383967896,0,0,0,,0,6,6,42,1,4,RL,revune,print,revune_p.png,,,,,,
,,,,31783,001,2025-11-18_19h58.31.548,HW_LDT_1,2024.2.4,MacIntel,59.52380952,,,,,,,,,,,,,,,,,,,,,,125.262,125.4641,125.4641,125.9525,,,,,,,,,,,,,,1.1768,1,,,,,,,,,,,,,,z,,,,,,,,,,,,,,,8,0,125.9531,127.1398,z,1,1.1768,,[],[],[],[],[],[],[],127.1398,129.139,129.1391,129.1394,[],[],[],[],[],[],[],,129.1394,129.1395,-0.01518514,-0.383967896,0,0,0,,0,7,7,8,1,4,RL,casagity,cursive,casagity_c.png,,,,,,
,,,,31783,001,2025-11-18_19h58.31.548,HW_LDT_1,2024.2.4,MacIntel,59.52380952,,,,,,,,,,,,,,,,,,,,,,129.141,129.3305,129.3305,129.8298,,,,,,,,,,,,,,0.9173,1,,,,,,,,,,,,,,m,,,,,,,,,,,,,,,9,0,129.83,130.7479,m,1,0.9173,,[],[],[],[],[],[],[],130.7479,132.7394,132.7394,132.7396,[],[],[],[],[],[],[],,132.7396,132.7398,-0.01518514,-0.383967896,0,0,0,,0,8,8,134,1,4,word,QUALIFY,print,qualify_p.png,,,,,,
,,,,31783,001,2025-11-18_19h58.31.548,HW_LDT_1,2024.2.4,MacIntel,59.52380952,,,,,,,,,,,,,,,,,,,,,,132.7407,132.9312,132.9313,133.4317,,,,,,,,,,,,,,0.7169,1,,,,,,,,,,,,,,m,,,,,,,,,,,,,,,10,0,133.4325,134.1594,m,1,0.7169,,[],[],[],[],[],[],[],134.1595,136.1529,136.153,136.1533,[],[],[],[],[],[],[],,136.1533,136.1535,-0.01518514,-0.383967896,0,0,0,,0,9,9,148,1,4,word,SALINE,print,saline_p.png,,,,,,
,,,,31783,001,2025-11-18_19h58.31.548,HW_LDT_1,2024.2.4,MacIntel,59.52380952,,,,,,,,,,,,,,,,,,,,,,136.1551,136.3577,136.3578,136.8455,,,,,,,,,,,,,,1.0228,1,,,,,,,,,,,,,,z,,,,,,,,,,,,,,,11,0,136.8459,137.8789,z,1,1.0228,,[],[],[],[],[],[],[],137.8789,139.8679,139.8679,139.8683,[],[],[],[],[],[],[],,139.8683,139.8685,-0.01518514,-0.383967896,0,0,0,,0,10,10,41,1,4,RL,rebicent,cursive,rebicent_c.png,,,,,,
,,,,31783,001,2025-11-18_19h58.31.548,HW_LDT_1,2024.2.4,MacIntel,59.52380952,,,,,,,,,,,,,,,,,,,,,,139.8695,140.0726,140.0726,140.5639,,,,,,,,,,,,,,0.6822,1,,,,,,,,,,,,,,m,,,,,,,,,,,,,,,12,0,140.5645,141.2562,m,1,0.6822,,[],[],[],[],[],[],[],141.2562,143.2542,143.2542,143.2544,[],[],[],[],[],[],[],,143.2544,143.2546,-0.01518514,-0.383967896,0,0,0,,0,11,11,83,1,4,word,ANIMAL,cursive,animal_c.png,,,,,,
,,,,31783,001,2025-11-18_19h58.31.548,HW_LDT_1,2024.2.4,MacIntel,59.52380952,,,,,,,,,,,,,,,,,,,,,,143.2555,143.4579,143.4582,143.953,,,,,,,,,,,,,,0.7448,1,,,,,,,,,,,,,,m,,,,,,,,,,,,,,,13,0,143.9533,144.7082,m,1,0.7448,,[],[],[],[],[],[],[],144.7083,146.7053,146.7054,146.7057,[],[],[],[],[],[],[],,146.7057,146.706,-0.01518514,-0.383967896,0,0,0,,0,12,12,125,1,4,word,OPERATOR,print,operator_p.png,,,,,,
,,,,31783,001,2025-11-18_19h58.31.548,HW_LDT_1,2024.2.4,MacIntel,59.52380952,,,,,,,,,,,,,,,,,,,,,,146.7076,146.8989,146.8989,147.4027,,,,,,,,,,,,,,0.5774,1,,,,,,,,,,,,,,m,,,,,,,,,,,,,,,14,0,147.4032,147.984,m,1,0.5774,,[],[],[],[],[],[],[],147.9841,149.9782,149.9782,149.9785,[],[],[],[],[],[],[],,149.9786,149.9787,-0.01518514,-0.383967896,0,0,0,,0,13,13,126,1,4,word,OPTIMAL,print,optimal_p.png,,,,,,
,,,,31783,001,2025-11-18_19h58.31.548,HW_LDT_1,2024.2.4,MacIntel,59.52380952,,,,,,,,,,,,,,,,,,,,,,149.9801,150.1676,150.1677,150.6778,,,,,,,,,,,,,,0.8978,1,,,,,,,,,,,,,,z,,,,,,,,,,,,,,,15,0,150.6783,151.5849,z,1,0.8978,,[],[],[],[],[],[],[],151.585,153.5772,153.5772,153.5774,[],[],[],[],[],[],[],,153.5774,153.5775,-0.01518514,-0.383967896,0,0,0,,0,14,14,13,1,4,RL,crisival,cursive,crisival_c.png,,,,,,
,,,,31783,001,2025-11-18_19h58.31.548,HW_LDT_1,2024.2.4,MacIntel,59.52380952,,,,,,,,,,,,,,,,,,,,,,153.5786,153.7659,153.7659,154.2698,,,,,,,,,,,,,,0.7132,1,,,,,,,,,,,,,,m,,,,,,,,,,,,,,,16,1,154.2702,154.9853,m,1,0.7132,,[],[],[],[],[],[],[],154.9854,156.9746,156.9747,158.362,[],[],[],[],[],[],[],m,158.3621,158.3622,-0.01518514,-0.383967896,0,0,0,,0,15,15,111,1,4,word,INDICATE,print,indicate_p.png,1.3866,,,,,
,,,,31783,001,2025-11-18_19h58.31.548,HW_LDT_1,2024.2.4,MacIntel,59.52380952,,,,,,,,,,,,,,,,,,,,,,158.3631,158.5579,158.5579,159.0573,,,,,,,,,,,,,,1.123,1,,,,,,,,,,,,,,m,,,,,,,,,,,,,,,17,0,159.0577,160.1886,m,1,1.123,,[],[],[],[],[],[],[],160.1887,162.1827,162.1828,162.1829,[],[],[],[],[],[],[],,162.1829,162.1831,-0.01518514,-0.383967896,0,0,0,,0,16,16,124,1,4,word,NUMERICAL,cursive,numerical_c.png,,,,,,
,,,,31783,001,2025-11-18_19h58.31.548,HW_LDT_1,2024.2.4,MacIntel,59.52380952,,,,,,,,,,,,,,,,,,,,,,162.1843,162.3713,162.3714,162.8847,,,,,,,,,,,,,,0.8028,1,,,,,,,,,,,,,,z,,,,,,,,,,,,,,,18,0,162.8852,163.6959,z,1,0.8028,,[],[],[],[],[],[],[],163.6959,165.6842,165.6843,165.6844,[],[],[],[],[],[],[],,165.6845,165.6846,-0.01518514,-0.383967896,0,0,0,,0,17,17,21,1,4,RL,insibate,print,insibate_p.png,,,,,,
,,,,31783,001,2025-11-18_19h58.31.548,HW_LDT_1,2024.2.4,MacIntel,59.52380952,,,,,,,,,,,,,,,,,,,,,,165.6855,165.8888,165.8888,166.3745,,,,,,,,,,,,,,0.7676,1,,,,,,,,,,,,,,z,,,,,,,,,,,,,,,19,0,166.375,167.1536,z,1,0.7676,,[],[],[],[],[],[],[],167.1537,169.142,169.1421,169.1423,[],[],[],[],[],[],[],,169.1424,169.1426,-0.01518514,-0.383967896,0,0,0,,0,18,18,54,1,4,TL,codemy,print,codemy_p.png,,,,,,
,,,,31783,001,2025-11-18_19h58.31.548,HW_LDT_1,2024.2.4,MacIntel,59.52380952,,,,,,,,,,,,,,,,,,,,,,169.1436,169.3466,169.3466,169.8437,,,,,,,,,,,,,,0.6776,0,,,,,,,,,,,,,,m,,,,,,,,,,,,,,,20,0,169.8441,170.5228,z,0,0.6776,,[],[],[],[],[],[],[],170.5228,172.5219,172.5219,172.5222,[],[],[],[],[],[],[],,172.5222,172.5223,-0.01518514,-0.383967896,0,0,0,,0,19,19,114,1,4,word,LOCATE,cursive,locate_c.png,,,,,,
,,,,31783,001,2025-11-18_19h58.31.548,HW_LDT_1,2024.2.4,MacIntel,59.52380952,,,,,,,,,,,,,,,,,,,,,,172.5234,172.7246,172.7246,173.2189,,,,,,,,,,,,,,1.203,1,,,,,,,,,,,,,,z,,,,,,,,,,,,,,,21,0,173.2193,174.4323,z,1,1.203,,[],[],[],[],[],[],[],174.4323,176.4326,176.4326,176.4327,[],[],[],[],[],[],[],,176.4328,176.4329,-0.01518514,-0.383967896,0,0,0,,0,20,20,24,1,4,RL,marmipal,cursive,marmipal_c.png,,,,,,
,,,,31783,001,2025-11-18_19h58.31.548,HW_LDT_1,2024.2.4,MacIntel,59.52380952,,,,,,,,,,,,,,,,,,,,,,176.434,176.6237,176.6237,177.128,,,,,,,,,,,,,,1.144,1,,,,,,,,,,,,,,z,,,,,,,,,,,,,,,22,0,177.1285,178.2747,z,1,1.144,,[],[],[],[],[],[],[],178.2747,180.2762,180.2763,180.2765,[],[],[],[],[],[],[],,180.2766,180.2767,-0.01518514,-0.383967896,0,0,0,,0,21,21,70,1,4,TL,quatily,print,quatily_p.png,,,,,,
,,,,31783,001,2025-11-18_19h58.31.548,HW_LDT_1,2024.2.4,MacIntel,59.52380952,,,,,,,,,,,,,,,,,,,,,,180.2784,180.467,180.467,180.9683,,,,,,,,,,,,,,0.6888,1,,,,,,,,,,,,,,m,,,,,,,,,,,,,,,23,0,180.9688,181.6612,m,1,0.6888,,[],[],[],[],[],[],[],181.6612,183.6637,183.6637,183.6639,[],[],[],[],[],[],[],,183.6639,183.664,-0.01518514,-0.383967896,0,0,0,,0,22,22,80,1,4,word,ACADEMY,print,academy_p.png,,,,,,
,,,,31783,001,2025-11-18_19h58.31.548,HW_LDT_1,2024.2.4,MacIntel,59.52380952,,,,,,,,,,,,,,,,,,,,,,183.6652,183.867,183.867,184.3663,,,,,,,,,,,,,,1.037,1,,,,,,,,,,,,,,z,,,,,,,,,,,,,,,24,0,184.3667,185.4044,z,1,1.037,,[],[],[],[],[],[],[],185.4045,187.4001,187.4001,187.4003,[],[],[],[],[],[],[],,187.4004,187.4004,-0.01518514,-0.383967896,0,0,0,,0,23,23,26,1,4,RL,mesibine,cursive,mesibine_c.png,,,,,,
,,,,31783,001,2025-11-18_19h58.31.548,HW_LDT_1,2024.2.4,MacIntel,59.52380952,,,,,,,,,,,,,,,,,,,,,,187.4016,187.59,187.5901,188.1002,,,,,,,,,,,,,,0.6351,1,,,,,,,,,,,,,,m,,,,,,,,,,,,,,,25,0,188.1007,188.7468,m,1,0.6351,,[],[],[],[],[],[],[],188.7468,190.7407,190.7408,190.7411,[],[],[],[],[],[],[],,190.7412,190.7413,-0.01518514,-0.383967896,0,0,0,,0,24,24,119,1,4,word,MEMORY,print,memory_p.png,,,,,,
,,,,31783,001,2025-11-18_19h58.31.548,HW_LDT_1,2024.2.4,MacIntel,59.52380952,,,,,,,,,,,,,,,,,,,,,,190.7426,190.9419,190.942,191.4405,,,,,,,,,,,,,,0.5946,1,,,,,,,,,,,,,,m,,,,,,,,,,,,,,,26,0,191.441,192.0363,m,1,0.5946,,[],[],[],[],[],[],[],192.0364,194.0246,194.0247,194.0248,[],[],[],[],[],[],[],,194.0249,194.0249,-0.01518514,-0.383967896,0,0,0,,0,25,25,121,1,4,word,MISTAKE,print,mistake_p.png,,,,,,
,,,,31783,001,2025-11-18_19h58.31.548,HW_LDT_1,2024.2.4,MacIntel,59.52380952,,,,,,,,,,,,,,,,,,,,,,194.0257,194.2231,194.2231,194.7177,,,,,,,,,,,,,,0.6748,1,,,,,,,,,,,,,,z,,,,,,,,,,,,,,,27,0,194.7185,195.3995,z,1,0.6748,,[],[],[],[],[],[],[],195.3996,197.4022,197.4023,197.4027,[],[],[],[],[],[],[],,197.403,197.4032,-0.01518514,-0.383967896,0,0,0,,0,26,26,38,1,4,RL,refakive,print,refakive_p.png,,,,,,
,,,,31783,001,2025-11-18_19h58.31.548,HW_LDT_1,2024.2.4,MacIntel,59.52380952,,,,,,,,,,,,,,,,,,,,,,197.4042,197.5917,197.5918,198.0941,,,,,,,,,,,,,,0.7223,1,,,,,,,,,,,,,,z,,,,,,,,,,,,,,,28,0,198.0944,198.8257,z,1,0.7223,,[],[],[],[],[],[],[],198.8258,200.8282,200.8282,200.8285,[],[],[],[],[],[],[],,200.8285,200.8286,-0.01518514,-0.383967896,0,0,0,,0,27,27,5,1,4,RL,bebine,print,bebine_p.png,,,,,,
,,,,31783,001,2025-11-18_19h58.31.548,HW_LDT_1,2024.2.4,MacIntel,59.52380952,,,,,,,,,,,,,,,,,,,,,,200.83,201.0332,201.0334,201.523,,,,,,,,,,,,,,0.6674,1,,,,,,,,,,,,,,z,,,,,,,,,,,,,,,29,0,201.5235,202.1983,z,1,0.6674,,[],[],[],[],[],[],[],202.1983,204.1921,204.1921,204.1924,[],[],[],[],[],[],[],,204.1924,204.1924,-0.01518514,-0.383967896,0,0,0,,0,28,28,36,1,4,RL,rabigly,cursive,rabigly_c.png,,,,,,
,,,,31783,001,2025-11-18_19h58.31.548,HW_LDT_1,2024.2.4,MacIntel,59.52380952,,,,,,,,,,,,,,,,,,,,,,204.1935,204.3966,204.3966,204.8913,,,,,,,,,,,,,,1.1581,1,,,,,,,,,,,,,,z,,,,,,,,,,,,,,,30,0,204.8919,206.0602,z,1,1.1581,,[],[],[],[],[],[],[],206.0602,208.0599,208.0599,208.0602,[],[],[],[],[],[],[],,208.0602,208.0604,-0.01518514,-0.383967896,0,0,0,,0,29,29,30,1,4,RL,nunewical,cursive,nunewical_c.png,,,,,,
,,,,31783,001,2025-11-18_19h58.31.548,HW_LDT_1,2024.2.4,MacIntel,59.52380952,,,,,,,,,,,,,,,,,,,,,,208.0617,208.2512,208.2512,208.7579,,,,,,,,,,,,,,1.2371,1,,,,,,,,,,,,,,z,,,,,,,,,,,,,,,31,0,208.7583,209.9961,z,1,1.2371,,[],[],[],[],[],[],[],209.9962,211.9858,211.9858,211.9861,[],[],[],[],[],[],[],,211.9862,211.9862,-0.01518514,-0.383967896,0,0,0,,0,30,30,53,1,4,TL,cemerony,print,cemerony_p.png,,,,,,
,,,,31783,001,2025-11-18_19h58.31.548,HW_LDT_1,2024.2.4,MacIntel,59.52380952,,,,,,,,,,,,,,,,,,,,,,211.9877,212.1904,212.1904,212.6878,,,,,,,,,,,,,,0.8797,1,,,,,,,,,,,,,,z,,,,,,,,,,,,,,,32,0,212.6882,213.5792,z,1,0.8797,,[],[],[],[],[],[],[],213.5793,215.5736,215.5738,215.574,[],[],[],[],[],[],[],,215.574,215.5742,-0.01518514,-0.383967896,0,0,0,,0,31,31,31,1,4,RL,orimipal,print,orimipal_p.png,,,,,,
,,,,31783,001,2025-11-18_19h58.31.548,HW_LDT_1,2024.2.4,MacIntel,59.52380952,,,,,,,,,,,,,,,,,,,,,,215.5757,215.7779,215.7779,216.2685,,,,,,,,,,,,,,1.1689,1,,,,,,,,,,,,,,m,,,,,,,,,,,,,,,33,0,216.269,217.439,m,1,1.1689,,[],[],[],[],[],[],[],217.439,219.438,219.4381,219.4383,[],[],[],[],[],[],[],,219.4384,219.4385,-0.01518514,-0.383967896,0,0,0,,0,32,32,120,1,4,word,MILITARY,print,military_p.png,,,,,,
,,,,31783,001,2025-11-18_19h58.31.548,HW_LDT_1,2024.2.4,MacIntel,59.52380952,,,,,,,,,,,,,,,,,,,,,,219.44,219.6265,219.6265,220.1392,,,,,,,,,,,,,,0.6879,0,,,,,,,,,,,,,,m,,,,,,,,,,,,,,,34,0,220.1397,220.8381,z,0,0.6879,,[],[],[],[],[],[],[],220.8382,222.8274,222.8274,222.8277,[],[],[],[],[],[],[],,222.8277,222.8278,-0.01518514,-0.383967896,0,0,0,,0,33,33,87,1,4,word,CAFETERIA,cursive,cafeteria_c.png,,,,,,
,,,,31783,001,2025-11-18_19h58.31.548,HW_LDT_1,2024.2.4,MacIntel,59.52380952,,,,,,,,,,,,,,,,,,,,,,222.8288,223.0324,223.0324,223.5253,,,,,,,,,,,,,,0.8045,0,,,,,,,,,,,,,,m,,,,,,,,,,,,,,,35,0,223.5258,224.3384,z,0,0.8045,,[],[],[],[],[],[],[],224.3385,226.34,226.34,226.3402,[],[],[],[],[],[],[],,226.3403,226.3404,-0.01518514,-0.383967896,0,0,0,,0,34,34,133,1,4,word,PROVIDE,cursive,provide_c.png,,,,,,
,,,,31783,001,2025-11-18_19h58.31.548,HW_LDT_1,2024.2.4,MacIntel,59.52380952,,,,,,,,,,,,,,,,,,,,,,226.3416,226.5309,226.531,227.0453,,,,,,,,,,,,,,0.9101,1,,,,,,,,,,,,,,m,,,,,,,,,,,,,,,36,0,227.0458,227.9587,m,1,0.9101,,[],[],[],[],[],[],[],227.9587,229.9562,229.9563,229.9564,[],[],[],[],[],[],[],,229.9564,229.9565,-0.01518514,-0.383967896,0,0,0,,0,35,35,118,1,4,word,MEDICINE,cursive,medicine_c.png,,,,,,
,,,,31783,001,2025-11-18_19h58.31.548,HW_LDT_1,2024.2.4,MacIntel,59.52380952,,,,,,,,,,,,,,,,,,,,,,229.9575,230.15,230.15,230.6463,,,,,,,,,,,,,,0.6418,1,,,,,,,,,,,,,,m,,,,,,,,,,,,,,,37,0,230.6468,231.2991,m,1,0.6418,,[],[],[],[],[],[],[],231.2992,233.3036,233.3037,233.304,[],[],[],[],[],[],[],,233.3041,233.3041,-0.01518514,-0.383967896,0,0,0,,0,36,36,143,1,4,word,REMOVAL,print,removal_p.png,,,,,,
,,,,31783,001,2025-11-18_19h58.31.548,HW_LDT_1,2024.2.4,MacIntel,59.52380952,,,,,,,,,,,,,,,,,,,,,,233.3056,233.4955,233.4955,234.0055,,,,,,,,,,,,,,0.6141,1,,,,,,,,,,,,,,m,,,,,,,,,,,,,,,38,0,234.0061,234.6218,m,1,0.6141,,[],[],[],[],[],[],[],234.6218,236.6254,236.6255,236.6255,[],[],[],[],[],[],[],,236.6255,236.6255,-0.01518514,-0.383967896,0,0,0,,0,37,37,147,1,4,word,ROMANTIC,print,romantic_p.png,,,,,,
,,,,31783,001,2025-11-18_19h58.31.548,HW_LDT_1,2024.2.4,MacIntel,59.52380952,,,,,,,,,,,,,,,,,,,,,,236.6262,236.8257,236.8257,237.3163,,,,,,,,,,,,,,0.708,1,,,,,,,,,,,,,,z,,,,,,,,,,,,,,,39,0,237.3168,238.0274,z,1,0.708,,[],[],[],[],[],[],[],238.0275,240.0217,240.0218,240.0219,[],[],[],[],[],[],[],,240.022,240.022,-0.01518514,-0.383967896,0,0,0,,0,38,38,39,1,4,RL,relone,cursive,relone_c.png,,,,,,
,,,,31783,001,2025-11-18_19h58.31.548,HW_LDT_1,2024.2.4,MacIntel,59.52380952,,,,,,,,,,,,,,,,,,,,,,240.0231,240.2115,240.2116,240.7213,,,,,,,,,,,,,,0.6194,1,,,,,,,,,,,,,,m,,,,,,,,,,,,,,,40,1,240.7217,241.3507,m,1,0.6194,,[],[],[],[],[],[],[],241.3507,243.3523,243.3524,244.8928,[],[],[],[],[],[],[],z,244.8928,244.8929,-0.01518514,-0.383967896,0,0,0,,0,39,39,95,1,4,word,COMEDY,print,comedy_p.png,1.5308,,,,,
,,,,31783,001,2025-11-18_19h58.31.548,HW_LDT_1,2024.2.4,MacIntel,59.52380952,,,,,,,,,,,,,,,,,,,,,,244.8936,245.0936,245.0936,245.5875,,,,,,,,,,,,,,0.9514,1,,,,,,,,,,,,,,z,,,,,,,,,,,,,,,41,1,245.5881,246.5499,z,1,0.9514,,[],[],[],[],[],[],[],246.5499,248.5476,248.5476,249.6335,[],[],[],[],[],[],[],z,249.6336,249.6336,-0.01518514,-0.383967896,0,0,0,,0,40,40,52,1,4,TL,cagetory,cursive,cagetory_c.png,1.0766,,,,,
,,,,31783,001,2025-11-18_19h58.31.548,HW_LDT_1,2024.2.4,MacIntel,59.52380952,,,,,,,,,,,,,,,,,,,,,,249.6345,249.8233,249.8234,250.3216,,,,,,,,,,,,,,0.7618,1,,,,,,,,,,,,,,m,,,,,,,,,,,,,,,42,0,250.322,251.0846,m,1,0.7618,,[],[],[],[],[],[],[],251.0846,253.0853,253.0854,253.0857,[],[],[],[],[],[],[],,253.0857,253.0858,-0.01518514,-0.383967896,0,0,0,,0,41,41,100,1,4,word,DECADE,cursive,decade_c.png,,,,,,
,,,,31783,001,2025-11-18_19h58.31.548,HW_LDT_1,2024.2.4,MacIntel,59.52380952,,,,,,,,,,,,,,,,,,,,,,253.0873,253.2751,253.2752,253.786,,,,,,,,,,,,,,1.2261,0,,,,,,,,,,,,,,m,,,,,,,,,,,,,,,43,0,253.7865,255.0136,z,0,1.2261,,[],[],[],[],[],[],[],255.0136,257.0122,257.0122,257.0124,[],[],[],[],[],[],[],,257.0124,257.0125,-0.01518514,-0.383967896,0,0,0,,0,42,42,101,1,4,word,DELICATE,cursive,delicate_c.png,,,,,,
,,,,31783,001,2025-11-18_19h58.31.548,HW_LDT_1,2024.2.4,MacIntel,59.52380952,,,,,,,,,,,,,,,,,,,,,,257.0137,257.215,257.2151,257.7105,,,,,,,,,,,,,,0.618,1,,,,,,,,,,,,,,m,,,,,,,,,,,,,,,44,0,257.7115,258.3308,m,1,0.618,,[],[],[],[],[],[],[],258.3309,260.3234,260.3234,260.3236,[],[],[],[],[],[],[],,260.3236,260.3237,-0.01518514,-0.383967896,0,0,0,,0,43,43,117,1,4,word,MARINE,print,marine_p.png,,,,,,
,,,,31783,001,2025-11-18_19h58.31.548,HW_LDT_1,2024.2.4,MacIntel,59.52380952,,,,,,,,,,,,,,,,,,,,,,260.3246,260.5287,260.5287,261.0216,,,,,,,,,,,,,,1.0124,1,,,,,,,,,,,,,,m,,,,,,,,,,,,,,,45,0,261.022,262.0438,m,1,1.0124,,[],[],[],[],[],[],[],262.0439,264.0368,264.0368,264.0369,[],[],[],[],[],[],[],,264.037,264.037,-0.01518514,-0.383967896,0,0,0,,0,44,44,123,1,4,word,MODERATE,print,moderate_p.png,,,,,,
,,,,31783,001,2025-11-18_19h58.31.548,HW_LDT_1,2024.2.4,MacIntel,59.52380952,,,,,,,,,,,,,,,,,,,,,,264.038,264.2249,264.225,264.7293,,,,,,,,,,,,,,1.0246,0,,,,,,,,,,,,,,m,,,,,,,,,,,,,,,46,0,264.7298,265.7639,z,0,1.0246,,[],[],[],[],[],[],[],265.7641,267.7525,267.7526,267.7527,[],[],[],[],[],[],[],,267.7528,267.7529,-0.01518514,-0.383967896,0,0,0,,0,45,45,113,1,4,word,LITERAL,cursive,literal_c.png,,,,,,
,,,,31783,001,2025-11-18_19h58.31.548,HW_LDT_1,2024.2.4,MacIntel,59.52380952,,,,,,,,,,,,,,,,,,,,,,267.7542,267.9552,267.9552,268.4533,,,,,,,,,,,,,,0.7189,0,,,,,,,,,,,,,,m,,,,,,,,,,,,,,,47,0,268.4538,269.1824,z,0,0.7189,,[],[],[],[],[],[],[],269.1824,271.187,271.187,271.1872,[],[],[],[],[],[],[],,271.1872,271.1873,-0.01518514,-0.383967896,0,0,0,,0,46,46,102,1,4,word,DENSITY,cursive,density_c.png,,,,,,
,,,,31783,001,2025-11-18_19h58.31.548,HW_LDT_1,2024.2.4,MacIntel,59.52380952,,,,,,,,,,,,,,,,,,,,,,271.1883,271.3756,271.3757,271.8761,,,,,,,,,,,,,,0.7237,0,,,,,,,,,,,,,,m,,,,,,,,,,,,,,,48,0,271.8766,272.6091,z,0,0.7237,,[],[],[],[],[],[],[],272.6092,274.6008,274.6009,274.6011,[],[],[],[],[],[],[],,274.6012,274.6013,-0.01518514,-0.383967896,0,0,0,,0,47,47,138,1,4,word,REFUSAL,cursive,refusal_c.png,,,,,,
,,,,31783,001,2025-11-18_19h58.31.548,HW_LDT_1,2024.2.4,MacIntel,59.52380952,,,,,,,,,,,,,,,,,,,,,,274.6024,274.7899,274.7899,275.3019,,,,,,,,,,,,,,0.7216,1,,,,,,,,,,,,,,z,,,,,,,,,,,,,,,49,0,275.3025,276.025,z,1,0.7216,,[],[],[],[],[],[],[],276.0251,278.0186,278.0186,278.0187,[],[],[],[],[],[],[],,278.0188,278.0188,-0.01518514,-0.383967896,0,0,0,,0,48,48,32,1,4,RL,patisic,cursive,patisic_c.png,,,,,,
,,,,31783,001,2025-11-18_19h58.31.548,HW_LDT_1,2024.2.4,MacIntel,59.52380952,,,,,,,,,,,,,,,,,,,,,,278.0196,278.2174,278.2174,278.7159,,,,,,,,,,,,,,0.8417,1,,,,,,,,,,,,,,z,,,,,,,,,,,,,,,50,0,278.7168,279.5594,z,1,0.8417,,[],[],[],[],[],[],[],279.5595,281.5567,281.5567,281.5569,[],[],[],[],[],[],[],,281.5569,281.557,-0.01518514,-0.383967896,0,0,0,,0,49,49,77,1,4,TL,spemicen,cursive,spemicen_c.png,,,,,,
,,,,31783,001,2025-11-18_19h58.31.548,HW_LDT_1,2024.2.4,MacIntel,59.52380952,,,,,,,,,,,,,,,,,,,,,,281.5579,281.7477,281.7477,282.2612,,,,,,,,,,,,,,0.6423,1,,,,,,,,,,,,,,m,,,,,,,,,,,,,,,51,0,282.2617,282.9045,m,1,0.6423,,[],[],[],[],[],[],[],282.9046,284.8971,284.8971,284.8973,[],[],[],[],[],[],[],,284.8973,284.8975,-0.01518514,-0.383967896,0,0,0,,0,50,50,157,1,4,word,VALIDITY,print,validity_p.png,,,,,,
,,,,31783,001,2025-11-18_19h58.31.548,HW_LDT_1,2024.2.4,MacIntel,59.52380952,,,,,,,,,,,,,,,,,,,,,,284.8984,285.0861,285.0861,285.5917,,,,,,,,,,,,,,0.6956,0,,,,,,,,,,,,,,m,,,,,,,,,,,,,,,52,0,285.592,286.2884,z,0,0.6956,,[],[],[],[],[],[],[],286.2884,288.2911,288.2911,288.2913,[],[],[],[],[],[],[],,288.2914,288.2914,-0.01518514,-0.383967896,0,0,0,,0,51,51,144,1,4,word,RESIDENT,cursive,resident_c.png,,,,,,
,,,,31783,001,2025-11-18_19h58.31.548,HW_LDT_1,2024.2.4,MacIntel,59.52380952,,,,,,,,,,,,,,,,,,,,,,288.2923,288.4895,288.4896,288.9853,,,,,,,,,,,,,,0.6685,1,,,,,,,,,,,,,,m,,,,,,,,,,,,,,,53,1,288.986,289.662,m,1,0.6685,,[],[],[],[],[],[],[],289.6621,291.6508,291.6508,292.6556,[],[],[],[],[],[],[],m,292.6556,292.6558,-0.01518514,-0.383967896,0,0,0,,0,52,52,94,1,4,word,CLINICAL,print,clinical_p.png,0.9955,,,,,
,,,,31783,001,2025-11-18_19h58.31.548,HW_LDT_1,2024.2.4,MacIntel,59.52380952,,,,,,,,,,,,,,,,,,,,,,292.6568,292.8451,292.8453,293.3456,,,,,,,,,,,,,,0.6054,1,,,,,,,,,,,,,,m,,,,,,,,,,,,,,,54,0,293.3463,293.9566,m,1,0.6054,,[],[],[],[],[],[],[],293.9567,295.9574,295.9575,295.9575,[],[],[],[],[],[],[],,295.9576,295.9577,-0.01518514,-0.383967896,0,0,0,,0,53,53,90,1,4,word,CAPITAL,print,capital_p.png,,,,,,
,,,,31783,001,2025-11-18_19h58.31.548,HW_LDT_1,2024.2.4,MacIntel,59.52380952,,,,,,,,,,,,,,,,,,,,,,295.9585,296.1565,296.1565,296.6567,,,,,,,,,,,,,,0.6442,1,,,,,,,,,,,,,,m,,,,,,,,,,,,,,,55,1,296.6571,297.3097,m,1,0.6442,,[],[],[],[],[],[],[],297.3097,299.3075,299.3075,300.3312,[],[],[],[],[],[],[],m,300.3313,300.3313,-0.01518514,-0.383967896,0,0,0,,0,54,54,149,1,4,word,SENATOR,print,senator_p.png,1.0217,,,,,
,,,,31783,001,2025-11-18_19h58.31.548,HW_LDT_1,2024.2.4,MacIntel,59.52380952,,,,,,,,,,,,,,,,,,,,,,300.3322,300.5222,300.5222,301.0251,,,,,,,,,,,,,,0.6284,1,,,,,,,,,,,,,,m,,,,,,,,,,,,,,,56,0,301.0259,301.6651,m,1,0.6284,,[],[],[],[],[],[],[],301.6651,303.6626,303.6626,303.6628,[],[],[],[],[],[],[],,303.6628,303.6628,-0.01518514,-0.383967896,0,0,0,,0,55,55,154,1,4,word,STORAGE,print,storage_p.png,,,,,,
,,,,31783,001,2025-11-18_19h58.31.548,HW_LDT_1,2024.2.4,MacIntel,59.52380952,,,,,,,,,,,,,,,,,,,,,,303.6637,303.8518,303.8519,304.3566,,,,,,,,,,,,,,0.7777,1,,,,,,,,,,,,,,z,,,,,,,,,,,,,,,57,0,304.3572,305.1358,z,1,0.7777,,[],[],[],[],[],[],[],305.1358,307.1378,307.1379,307.1381,[],[],[],[],[],[],[],,307.1382,307.1383,-0.01518514,-0.383967896,0,0,0,,0,56,56,25,1,4,RL,macise,print,macise_p.png,,,,,,
,,,,31783,001,2025-11-18_19h58.31.548,HW_LDT_1,2024.2.4,MacIntel,59.52380952,,,,,,,,,,,,,,,,,,,,,,307.1396,307.3412,307.3413,307.8296,,,,,,,,,,,,,,0.6339,1,,,,,,,,,,,,,,z,,,,,,,,,,,,,,,58,0,307.8302,308.4723,z,1,0.6339,,[],[],[],[],[],[],[],308.4723,310.469,310.469,310.4692,[],[],[],[],[],[],[],,310.4692,310.4694,-0.01518514,-0.383967896,0,0,0,,0,57,57,17,1,4,RL,denficy,cursive,denficy_c.png,,,,,,
,,,,31783,001,2025-11-18_19h58.31.548,HW_LDT_1,2024.2.4,MacIntel,59.52380952,,,,,,,,,,,,,,,,,,,,,,310.4704,310.658,310.658,311.1715,,,,,,,,,,,,,,0.9538,1,,,,,,,,,,,,,,z,,,,,,,,,,,,,,,59,0,311.1718,312.1352,z,1,0.9538,,[],[],[],[],[],[],[],312.1353,314.1286,314.1287,314.129,[],[],[],[],[],[],[],,314.129,314.1291,-0.01518514,-0.383967896,0,0,0,,0,58,58,61,1,4,TL,lotace,cursive,lotace_c.png,,,,,,
,,,,31783,001,2025-11-18_19h58.31.548,HW_LDT_1,2024.2.4,MacIntel,59.52380952,,,,,,,,,,,,,,,,,,,,,,314.1304,314.3346,314.3347,314.8195,,,,,,,,,,,,,,0.6602,1,,,,,,,,,,,,,,z,,,,,,,,,,,,,,,60,0,314.82,315.4909,z,1,0.6602,,[],[],[],[],[],[],[],315.491,317.4826,317.4826,317.4829,[],[],[],[],[],[],[],,317.483,317.483,-0.01518514,-0.383967896,0,0,0,,0,59,59,12,1,4,RL,conbicer,cursive,conbicer_c.png,,,,,,
,,,,31783,001,2025-11-18_19h58.31.548,HW_LDT_1,2024.2.4,MacIntel,59.52380952,,,,,,,,,,,,,,,,,,,,,,317.4845,317.6722,317.6723,318.1815,,,,,,,,,,,,,,0.6793,0,,,,,,,,,,,,,,m,,,,,,,,,,,,,,,61,0,318.1818,318.8703,z,0,0.6793,,[],[],[],[],[],[],[],318.8704,320.8613,320.8613,320.8616,[],[],[],[],[],[],[],,320.8617,320.8618,-0.01518514,-0.383967896,0,0,0,,0,60,60,158,1,4,word,VELOCITY,cursive,velocity_c.png,,,,,,
,,,,31783,001,2025-11-18_19h58.31.548,HW_LDT_1,2024.2.4,MacIntel,59.52380952,,,,,,,,,,,,,,,,,,,,,,320.8629,321.066,321.066,321.5568,,,,,,,,,,,,,,1.0948,1,,,,,,,,,,,,,,m,,,,,,,,,,,,,,,62,0,321.5574,322.6611,m,1,1.0948,,[],[],[],[],[],[],[],322.6613,324.6592,324.6593,324.6594,[],[],[],[],[],[],[],,324.6594,324.6595,-0.01518514,-0.383967896,0,0,0,,0,61,61,137,1,4,word,RAPIDLY,cursive,rapidly_c.png,,,,,,
,,,,31783,001,2025-11-18_19h58.31.548,HW_LDT_1,2024.2.4,MacIntel,59.52380952,,,,,,,,,,,,,,,,,,,,,,324.6603,324.8597,324.8598,325.362,,,,,,,,,,,,,,1.1952,1,,,,,,,,,,,,,,z,,,,,,,,,,,,,,,63,1,325.3624,326.5672,z,1,1.1952,,[],[],[],[],[],[],[],326.5675,328.5688,328.5689,329.6165,[],[],[],[],[],[],[],m,329.6165,329.6166,-0.01518514,-0.383967896,0,0,0,,0,62,62,33,1,4,RL,pamest,cursive,pamest_c.png,1.0386,,,,,
,,,,31783,001,2025-11-18_19h58.31.548,HW_LDT_1,2024.2.4,MacIntel,59.52380952,,,,,,,,,,,,,,,,,,,,,,329.6174,329.8173,329.8173,330.3194,,,,,,,,,,,,,,0.8412,0,,,,,,,,,,,,,,m,,,,,,,,,,,,,,,64,0,330.3196,331.1709,z,0,0.8412,,[],[],[],[],[],[],[],331.1709,333.1741,333.1741,333.1743,[],[],[],[],[],[],[],,333.1743,333.1743,-0.01518514,-0.383967896,0,0,0,,0,63,63,108,1,4,word,FORTUNE,cursive,fortune_c.png,,,,,,
,,,,31783,001,2025-11-18_19h58.31.548,HW_LDT_1,2024.2.4,MacIntel,59.52380952,,,,,,,,,,,,,,,,,,,,,,333.1752,333.3674,333.3674,333.8742,,,,,,,,,,,,,,0.8271,1,,,,,,,,,,,,,,z,,,,,,,,,,,,,,,65,0,333.8745,334.7023,z,1,0.8271,,[],[],[],[],[],[],[],334.7023,336.6933,336.6933,336.6935,[],[],[],[],[],[],[],,336.6935,336.6937,-0.01518514,-0.383967896,0,0,0,,0,64,64,14,1,4,RL,delahe,cursive,delahe_c.png,,,,,,
,,,,31783,001,2025-11-18_19h58.31.548,HW_LDT_1,2024.2.4,MacIntel,59.52380952,,,,,,,,,,,,,,,,,,,,,,336.6955,336.8814,336.8814,337.393,,,,,,,,,,,,,,0.6807,1,,,,,,,,,,,,,,m,,,,,,,,,,,,,,,66,0,337.3942,338.0758,m,1,0.6807,,[],[],[],[],[],[],[],338.0759,340.0702,340.0703,340.0704,[],[],[],[],[],[],[],,340.0705,340.0708,-0.01518514,-0.383967896,0,0,0,,0,65,65,105,1,4,word,EDITOR,print,editor_p.png,,,,,,
,,,,31783,001,2025-11-18_19h58.31.548,HW_LDT_1,2024.2.4,MacIntel,59.52380952,,,,,,,,,,,,,,,,,,,,,,340.0723,340.2737,340.2737,340.7716,,,,,,,,,,,,,,0.9443,1,,,,,,,,,,,,,,z,,,,,,,,,,,,,,,67,0,340.7725,341.7265,z,1,0.9443,,[],[],[],[],[],[],[],341.7265,343.7261,343.7261,343.7263,[],[],[],[],[],[],[],,343.7263,343.7264,-0.01518514,-0.383967896,0,0,0,,0,66,66,35,1,4,RL,probice,cursive,probice_c.png,,,,,,
,,,,31783,001,2025-11-18_19h58.31.548,HW_LDT_1,2024.2.4,MacIntel,59.52380952,,,,,,,,,,,,,,,,,,,,,,343.7283,343.9192,343.9192,344.4235,,,,,,,,,,,,,,0.6576,1,,,,,,,,,,,,,,z,,,,,,,,,,,,,,,68,0,344.424,345.0893,z,1,0.6576,,[],[],[],[],[],[],[],345.0893,347.0854,347.0854,347.0856,[],[],[],[],[],[],[],,347.0856,347.0857,-0.01518514,-0.383967896,0,0,0,,0,67,67,59,1,4,TL,fornute,cursive,fornute_c.png,,,,,,
,,,,31783,001,2025-11-18_19h58.31.548,HW_LDT_1,2024.2.4,MacIntel,59.52380952,,,,,,,,,,,,,,,,,,,,,,347.0865,347.29,347.29,347.7804,,,,,,,,,,,,,,0.6341,1,,,,,,,,,,,,,,m,,,,,,,,,,,,,,,69,0,347.7809,348.417,m,1,0.6341,,[],[],[],[],[],[],[],348.417,350.4139,350.414,350.4141,[],[],[],[],[],[],[],,350.4141,350.4142,-0.01518514,-0.383967896,0,0,0,,0,68,68,109,1,4,word,GRATEFUL,print,grateful_p.png,,,,,,
,,,,31783,001,2025-11-18_19h58.31.548,HW_LDT_1,2024.2.4,MacIntel,59.52380952,,,,,,,,,,,,,,,,,,,,,,350.4151,350.6098,350.6098,351.1066,,,,,,,,,,,,,,0.7016,0,,,,,,,,,,,,,,m,,,,,,,,,,,,,,,70,0,351.107,351.8092,z,0,0.7016,,[],[],[],[],[],[],[],351.8093,353.8116,353.8116,353.8118,[],[],[],[],[],[],[],,353.8118,353.8119,-0.01518514,-0.383967896,0,0,0,,0,69,69,129,1,4,word,PARENT,cursive,parent_c.png,,,,,,
,,,,31783,001,2025-11-18_19h58.31.548,HW_LDT_1,2024.2.4,MacIntel,59.52380952,,,,,,,,,,,,,,,,,,,,,,353.8127,354.0057,354.0058,354.506,,,,,,,,,,,,,,0.7252,1,,,,,,,,,,,,,,z,,,,,,,,,,,,,,,71,0,354.5067,355.2424,z,1,0.7252,,[],[],[],[],[],[],[],355.2425,357.2445,357.2446,357.2448,[],[],[],[],[],[],[],,357.2448,357.2449,-0.01518514,-0.383967896,0,0,0,,0,70,70,4,1,4,RL,betemit,cursive,betemit_c.png,,,,,,
,,,,31783,001,2025-11-18_19h58.31.548,HW_LDT_1,2024.2.4,MacIntel,59.52380952,,,,,,,,,,,,,,,,,,,,,,357.2465,357.4362,357.4362,357.9365,,,,,,,,,,,,,,0.8597,1,,,,,,,,,,,,,,z,,,,,,,,,,,,,,,72,0,357.9371,358.7974,z,1,0.8597,,[],[],[],[],[],[],[],358.7975,360.7933,360.7933,360.7936,[],[],[],[],[],[],[],,360.7936,360.7938,-0.01518514,-0.383967896,0,0,0,,0,71,71,64,1,4,TL,moredate,print,moredate_p.png,,,,,,
,,,,31783,001,2025-11-18_19h58.31.548,HW_LDT_1,2024.2.4,MacIntel,59.52380952,,,,,,,,,,,,,,,,,,,,,,360.7951,360.9837,360.9839,361.4954,,,,,,,,,,,,,,0.6727,1,,,,,,,,,,,,,,z,,,,,,,,,,,,,,,73,0,361.4963,362.1698,z,1,0.6727,,[],[],[],[],[],[],[],362.1699,364.1647,364.1647,364.1649,[],[],[],[],[],[],[],,364.165,364.165,-0.01518514,-0.383967896,0,0,0,,0,72,72,3,1,4,RL,bewoted,print,bewoted_p.png,,,,,,
,,,,31783,001,2025-11-18_19h58.31.548,HW_LDT_1,2024.2.4,MacIntel,59.52380952,,,,,,,,,,,,,,,,,,,,,,364.166,364.3593,364.3593,364.8641,,,,,,,,,,,,,,0.8179,1,,,,,,,,,,,,,,z,,,,,,,,,,,,,,,74,0,364.8646,365.6922,z,1,0.8179,,[],[],[],[],[],[],[],365.6923,367.6844,367.6845,367.6846,[],[],[],[],[],[],[],,367.6846,367.6846,-0.01518514,-0.383967896,0,0,0,,0,73,73,23,1,4,RL,linefal,cursive,linefal_c.png,,,,,,
,,,,31783,001,2025-11-18_19h58.31.548,HW_LDT_1,2024.2.4,MacIntel,59.52380952,,,,,,,,,,,,,,,,,,,,,,367.6855,367.8735,367.8735,368.3805,,,,,,,,,,,,,,0.7046,1,,,,,,,,,,,,,,m,,,,,,,,,,,,,,,75,0,368.3812,369.0867,m,1,0.7046,,[],[],[],[],[],[],[],369.0867,371.0837,371.0838,371.0839,[],[],[],[],[],[],[],,371.0839,371.084,-0.01518514,-0.383967896,0,0,0,,0,74,74,141,1,4,word,RELIGION,print,religion_p.png,,,,,,
,,,,31783,001,2025-11-18_19h58.31.548,HW_LDT_1,2024.2.4,MacIntel,59.52380952,,,,,,,,,,,,,,,,,,,,,,371.0848,371.2877,371.2877,371.7752,,,,,,,,,,,,,,1.1205,1,,,,,,,,,,,,,,z,,,,,,,,,,,,,,,76,0,371.7758,372.9066,z,1,1.1205,,[],[],[],[],[],[],[],372.9066,374.8999,374.8999,374.9001,[],[],[],[],[],[],[],,374.9002,374.9003,-0.01518514,-0.383967896,0,0,0,,0,75,75,44,1,4,RL,senvilent,print,senvilent_p.png,,,,,,
,,,,31783,001,2025-11-18_19h58.31.548,HW_LDT_1,2024.2.4,MacIntel,59.52380952,,,,,,,,,,,,,,,,,,,,,,374.9011,375.0888,375.0888,375.6032,,,,,,,,,,,,,,1.1321,1,,,,,,,,,,,,,,m,,,,,,,,,,,,,,,77,0,375.6036,376.7363,m,1,1.1321,,[],[],[],[],[],[],[],376.7364,378.7316,378.7317,378.732,[],[],[],[],[],[],[],,378.7321,378.7322,-0.01518514,-0.383967896,0,0,0,,0,76,76,159,1,4,word,VETERAN,cursive,veteran_c.png,,,,,,
,,,,31783,001,2025-11-18_19h58.31.548,HW_LDT_1,2024.2.4,MacIntel,59.52380952,,,,,,,,,,,,,,,,,,,,,,378.7337,378.9359,378.936,379.4231,,,,,,,,,,,,,,0.7458,1,,,,,,,,,,,,,,z,,,,,,,,,,,,,,,78,0,379.4237,380.17,z,1,0.7458,,[],[],[],[],[],[],[],380.1701,382.173,382.173,382.1731,[],[],[],[],[],[],[],,382.1731,382.1733,-0.01518514,-0.383967896,0,0,0,,0,77,77,67,1,4,TL,polupar,print,polupar_p.png,,,,,,
,,,,31783,001,2025-11-18_19h58.31.548,HW_LDT_1,2024.2.4,MacIntel,59.52380952,,,,,,,,,,,,,,,,,,,,,,382.1742,382.3699,382.3699,382.8688,,,,,,,,,,,,,,1.4575,0,,,,,,,,,,,,,,m,,,,,,,,,,,,,,,79,0,382.8692,384.3367,z,0,1.4575,,[],[],[],[],[],[],[],384.3367,386.3355,386.3356,386.3358,[],[],[],[],[],[],[],,386.3358,386.3359,-0.01518514,-0.383967896,0,0,0,,0,78,78,89,1,4,word,CAPACITY,cursive,capacity_c.png,,,,,,
,,,,31783,001,2025-11-18_19h58.31.548,HW_LDT_1,2024.2.4,MacIntel,59.52380952,,,,,,,,,,,,,,,,,,,,,,386.3373,386.5243,386.5244,387.0257,,,,,,,,,,,,,,0.9083,1,,,,,,,,,,,,,,z,,,,,,,,,,,,,,,80,0,387.0261,387.9445,z,1,0.9083,,[],[],[],[],[],[],[],387.9445,389.9437,389.9438,389.9439,[],[],[],[],[],[],[],,389.9439,393.111,-0.01518514,-0.383967896,0,0,0,space,0,79,79,27,1,4,RL,menowy,print,menowy_p.png,,,3.1454,,,
,,,,31783,001,2025-11-18_19h58.31.548,HW_LDT_1,2024.2.4,MacIntel,59.52380952,,,,,,,,,,,,,,,,,,,,,,393.1118,393.3129,393.313,393.8061,,,,,,,,,,,,,,0.8503,1,,,,,,,,,,,,,,z,,,,,,,,,,,,,,,81,0,393.8064,394.6573,z,1,0.8503,,[],[],[],[],[],[],[],394.6573,396.6571,396.6571,396.6574,[],[],[],[],[],[],[],,396.6575,396.6576,-0.01518514,-0.379927368,0,0,0,,0,80,80,15,1,4,RL,debave,cursive,debave_c.png,,,,,,
,,,,31783,001,2025-11-18_19h58.31.548,HW_LDT_1,2024.2.4,MacIntel,59.52380952,,,,,,,,,,,,,,,,,,,,,,396.659,396.8584,396.8585,397.3521,,,,,,,,,,,,,,0.9275,1,,,,,,,,,,,,,,m,,,,,,,,,,,,,,,82,0,397.3528,398.2834,m,1,0.9275,,[],[],[],[],[],[],[],398.2834,400.2791,400.2791,400.2793,[],[],[],[],[],[],[],,400.2793,400.2793,-0.01518514,-0.378172472,0,0,0,,0,81,81,146,1,4,word,RETIRE,print,retire_p.png,,,,,,
,,,,31783,001,2025-11-18_19h58.31.548,HW_LDT_1,2024.2.4,MacIntel,59.52380952,,,,,,,,,,,,,,,,,,,,,,400.28,400.4806,400.4806,400.9684,,,,,,,,,,,,,,0.6895,1,,,,,,,,,,,,,,z,,,,,,,,,,,,,,,83,0,400.9688,401.6593,z,1,0.6895,,[],[],[],[],[],[],[],401.6594,403.6595,403.6595,403.6596,[],[],[],[],[],[],[],,403.6596,403.6598,-0.01518514,-0.377916395,0,0,0,,0,82,82,6,1,4,RL,caleberia,cursive,caleberia_c.png,,,,,,
,,,,31783,001,2025-11-18_19h58.31.548,HW_LDT_1,2024.2.4,MacIntel,59.52380952,,,,,,,,,,,,,,,,,,,,,,403.6608,403.8526,403.8526,404.3617,,,,,,,,,,,,,,0.6494,1,,,,,,,,,,,,,,z,,,,,,,,,,,,,,,84,0,404.3622,405.0233,z,1,0.6494,,[],[],[],[],[],[],[],405.0234,407.0163,407.0163,407.0165,[],[],[],[],[],[],[],,407.0165,407.0166,-0.01518514,-0.376874186,0,0,0,,0,83,83,22,1,4,RL,linedal,cursive,linedal_c.png,,,,,,
,,,,31783,001,2025-11-18_19h58.31.548,HW_LDT_1,2024.2.4,MacIntel,59.52380952,,,,,,,,,,,,,,,,,,,,,,407.0176,407.2125,407.2125,407.7127,,,,,,,,,,,,,,0.7564,1,,,,,,,,,,,,,,m,,,,,,,,,,,,,,,85,0,407.7135,408.4813,m,1,0.7564,,[],[],[],[],[],[],[],408.4814,410.4753,410.4753,410.4754,[],[],[],[],[],[],[],,410.4755,410.4755,-0.01518514,-0.377684869,0,0,0,,0,84,84,103,1,4,word,DISPUTE,print,dispute_p.png,,,,,,
,,,,31783,001,2025-11-18_19h58.31.548,HW_LDT_1,2024.2.4,MacIntel,59.52380952,,,,,,,,,,,,,,,,,,,,,,410.4767,410.6636,410.6636,411.1698,,,,,,,,,,,,,,0.6165,0,,,,,,,,,,,,,,z,,,,,,,,,,,,,,,86,1,411.1704,411.7972,m,0,0.6165,,[],[],[],[],[],[],[],411.7974,413.7967,413.7968,415.2545,[],[],[],[],[],[],[],m,415.2545,415.2545,-0.01518514,-0.377684869,0,0,0,,0,85,85,63,1,4,TL,miskate,print,miskate_p.png,1.4525,,,,,
,,,,31783,001,2025-11-18_19h58.31.548,HW_LDT_1,2024.2.4,MacIntel,59.52380952,,,,,,,,,,,,,,,,,,,,,,415.2553,415.4576,415.4577,415.9466,,,,,,,,,,,,,,0.687,1,,,,,,,,,,,,,,m,,,,,,,,,,,,,,,87,0,415.9471,416.6441,m,1,0.687,,[],[],[],[],[],[],[],416.6442,418.6428,418.6428,418.6429,[],[],[],[],[],[],[],,418.6429,418.643,-0.01518514,-0.377684869,0,0,0,,0,86,86,107,1,4,word,EVIDENT,print,evident_p.png,,,,,,
,,,,31783,001,2025-11-18_19h58.31.548,HW_LDT_1,2024.2.4,MacIntel,59.52380952,,,,,,,,,,,,,,,,,,,,,,418.6438,418.8423,418.8423,419.3464,,,,,,,,,,,,,,0.8003,1,,,,,,,,,,,,,,z,,,,,,,,,,,,,,,88,0,419.3469,420.1577,z,1,0.8003,,[],[],[],[],[],[],[],420.1578,422.1455,422.1455,422.1457,[],[],[],[],[],[],[],,422.1458,422.1459,-0.01518514,-0.377684869,0,0,0,,0,87,87,16,1,4,RL,desifate,cursive,desifate_c.png,,,,,,
,,,,31783,001,2025-11-18_19h58.31.548,HW_LDT_1,2024.2.4,MacIntel,59.52380952,,,,,,,,,,,,,,,,,,,,,,422.1474,422.3391,422.3391,422.8396,,,,,,,,,,,,,,0.7153,0,,,,,,,,,,,,,,m,,,,,,,,,,,,,,,89,1,422.84,423.5583,z,0,0.7153,,[],[],[],[],[],[],[],423.5583,425.5596,425.5596,426.4922,[],[],[],[],[],[],[],z,426.4922,426.4923,-0.01518514,-0.377684869,0,0,0,,0,88,88,106,1,4,word,ELABORATE,cursive,elaborate_c.png,0.9222,,,,,
,,,,31783,001,2025-11-18_19h58.31.548,HW_LDT_1,2024.2.4,MacIntel,59.52380952,,,,,,,,,,,,,,,,,,,,,,426.4928,426.6922,426.6923,427.1922,,,,,,,,,,,,,,1.1749,1,,,,,,,,,,,,,,z,,,,,,,,,,,,,,,90,0,427.1924,428.3759,z,1,1.1749,,[],[],[],[],[],[],[],428.3759,430.3756,430.3756,430.3757,[],[],[],[],[],[],[],,430.3757,430.3758,-0.01518514,-0.377684869,0,0,0,,0,89,89,7,1,4,RL,casena,print,casena_p.png,,,,,,
,,,,31783,001,2025-11-18_19h58.31.548,HW_LDT_1,2024.2.4,MacIntel,59.52380952,,,,,,,,,,,,,,,,,,,,,,430.3764,430.5758,430.5759,431.0755,,,,,,,,,,,,,,0.8301,1,,,,,,,,,,,,,,z,,,,,,,,,,,,,,,91,0,431.0757,431.909,z,1,0.8301,,[],[],[],[],[],[],[],431.909,433.9137,433.9138,433.914,[],[],[],[],[],[],[],,433.9141,433.9143,-0.01518514,-0.376898329,0,0,0,,0,90,90,2,1,4,RL,asiral,cursive,asiral_c.png,,,,,,
,,,,31783,001,2025-11-18_19h58.31.548,HW_LDT_1,2024.2.4,MacIntel,59.52380952,,,,,,,,,,,,,,,,,,,,,,433.9156,434.1039,434.1039,434.6054,,,,,,,,,,,,,,1.0462,1,,,,,,,,,,,,,,m,,,,,,,,,,,,,,,92,0,434.6059,435.6532,m,1,1.0462,,[],[],[],[],[],[],[],435.6532,437.6548,437.6548,437.6551,[],[],[],[],[],[],[],,437.6551,437.6552,-0.01518514,-0.37668023,0,0,0,,0,91,91,98,1,4,word,CRIMINAL,cursive,criminal_c.png,,,,,,
,,,,31783,001,2025-11-18_19h58.31.548,HW_LDT_1,2024.2.4,MacIntel,59.52380952,,,,,,,,,,,,,,,,,,,,,,437.6564,437.8444,437.8445,438.3549,,,,,,,,,,,,,,1.0703,1,,,,,,,,,,,,,,z,,,,,,,,,,,,,,,93,0,438.3553,439.4349,z,1,1.0703,,[],[],[],[],[],[],[],439.435,441.4321,441.4321,441.4324,[],[],[],[],[],[],[],,441.4324,441.433,-0.01518514,-0.376527574,0,0,0,,0,92,92,76,1,4,TL,setanor,print,setanor_p.png,,,,,,
,,,,31783,001,2025-11-18_19h58.31.548,HW_LDT_1,2024.2.4,MacIntel,59.52380952,,,,,,,,,,,,,,,,,,,,,,441.4343,441.6236,441.6237,442.1279,,,,,,,,,,,,,,0.7015,1,,,,,,,,,,,,,,z,,,,,,,,,,,,,,,94,0,442.1283,442.8325,z,1,0.7015,,[-0.015185139973958333],[-0.37512858072916666],[1],[0],[0],[0.29899999999997817],[null],442.8326,444.8279,444.8279,444.8282,[],[],[],[],[],[],[],,444.8282,444.8283,-0.01518514,-0.375128581,0,0,0,,0,93,93,0,1,4,RL,abanemy,print,abanemy_p.png,,,,,,
,,,,31783,001,2025-11-18_19h58.31.548,HW_LDT_1,2024.2.4,MacIntel,59.52380952,,,,,,,,,,,,,,,,,,,,,,444.829,445.0162,445.0162,445.5174,,,,,,,,,,,,,,0.6082,1,,,,,,,,,,,,,,m,,,,,,,,,,,,,,,95,1,445.5179,446.1265,m,1,0.6082,,[],[],[],[],[],[],[],446.1267,448.1247,448.1247,449.472,[],[],[],[],[],[],[],m,449.4721,449.4721,-0.01518514,-0.375128581,0,0,0,,0,94,94,115,1,4,word,LOGICAL,print,logical_p.png,1.337,,,,,
,,,,31783,001,2025-11-18_19h58.31.548,HW_LDT_1,2024.2.4,MacIntel,59.52380952,,,,,,,,,,,,,,,,,,,,,,449.4729,449.6766,449.6767,450.1707,,,,,,,,,,,,,,0.6152,1,,,,,,,,,,,,,,m,,,,,,,,,,,,,,,96,0,450.1713,450.7975,m,1,0.6152,,[],[],[],[],[],[],[],450.7976,452.8026,452.8026,452.8027,[],[],[],[],[],[],[],,452.8027,452.8028,-0.01518514,-0.375128581,0,0,0,,0,95,95,131,1,4,word,POPULAR,print,popular_p.png,,,,,,
,,,,31783,001,2025-11-18_19h58.31.548,HW_LDT_1,2024.2.4,MacIntel,59.52380952,,,,,,,,,,,,,,,,,,,,,,452.8034,453.0021,453.0021,453.4947,,,,,,,,,,,,,,0.6882,0,,,,,,,,,,,,,,m,,,,,,,,,,,,,,,97,1,453.4954,454.1934,z,0,0.6882,,[],[],[],[],[],[],[],454.1934,456.1883,456.1883,457.1069,[],[],[],[],[],[],[],z,457.107,457.107,-0.01518514,-0.375128581,0,0,0,,0,96,96,85,1,4,word,BENEFIT,cursive,benefit_c.png,0.9176,,,,,
,,,,31783,001,2025-11-18_19h58.31.548,HW_LDT_1,2024.2.4,MacIntel,59.52380952,,,,,,,,,,,,,,,,,,,,,,457.1078,457.3081,457.3082,457.8009,,,,,,,,,,,,,,1.0339,1,,,,,,,,,,,,,,z,,,,,,,,,,,,,,,98,0,457.8018,458.8462,z,1,1.0339,,[],[],[],[],[],[],[],458.8463,460.8423,460.8424,460.8425,[],[],[],[],[],[],[],,460.8426,460.8427,-0.01518514,-0.375128581,0,0,0,,0,97,97,58,1,4,TL,edivent,print,edivent_p.png,,,,,,
,,,,31783,001,2025-11-18_19h58.31.548,HW_LDT_1,2024.2.4,MacIntel,59.52380952,,,,,,,,,,,,,,,,,,,,,,460.8443,461.0332,461.0332,461.5313,,,,,,,,,,,,,,1.7083,1,,,,,,,,,,,,,,m,,,,,,,,,,,,,,,99,1,461.5318,463.2503,m,1,1.7083,,[],[],[],[],[],[],[],463.2503,465.2485,465.2485,466.3555,[],[],[],[],[],[],[],z,466.3556,466.3556,-0.01518514,-0.375128581,0,0,0,,0,98,98,128,1,4,word,PACIFIC,cursive,pacific_c.png,1.0981,,,,,
,,,,31783,001,2025-11-18_19h58.31.548,HW_LDT_1,2024.2.4,MacIntel,59.52380952,,,,,,,,,,,,,,,,,,,,,,466.3565,466.5489,466.5489,467.0541,,,,,,,,,,,,,,1.3794,0,,,,,,,,,,,,,,m,,,,,,,,,,,,,,,100,1,467.0548,468.4429,z,0,1.3794,,[],[],[],[],[],[],[],468.443,470.431,470.431,471.0864,[],[],[],[],[],[],[],z,471.0865,471.0865,-0.01518514,-0.375128581,0,0,0,,0,99,99,151,1,4,word,SPECIFIC,cursive,specific_c.png,0.6479,,,,,
,,,,31783,001,2025-11-18_19h58.31.548,HW_LDT_1,2024.2.4,MacIntel,59.52380952,,,,,,,,,,,,,,,,,,,,,,471.0874,471.2872,471.2872,471.7749,,,,,,,,,,,,,,1.3006,1,,,,,,,,,,,,,,m,,,,,,,,,,,,,,,101,0,471.7753,473.0871,m,1,1.3006,,[],[],[],[],[],[],[],473.0871,475.0874,475.0875,475.0876,[],[],[],[],[],[],[],,475.0876,475.0877,-0.01518514,-0.375128581,0,0,0,,0,100,100,153,1,4,word,STOLEN,cursive,stolen_c.png,,,,,,
,,,,31783,001,2025-11-18_19h58.31.548,HW_LDT_1,2024.2.4,MacIntel,59.52380952,,,,,,,,,,,,,,,,,,,,,,475.0886,475.2782,475.2783,475.7904,,,,,,,,,,,,,,1.3306,1,,,,,,,,,,,,,,z,,,,,,,,,,,,,,,102,0,475.7909,477.1237,z,1,1.3306,,[],[],[],[],[],[],[],477.1238,479.1206,479.1206,479.1209,[],[],[],[],[],[],[],,479.121,479.1211,-0.01518514,-0.375128581,0,0,0,,0,101,101,65,1,4,TL,orepator,print,orepator_p.png,,,,,,
,,,,31783,001,2025-11-18_19h58.31.548,HW_LDT_1,2024.2.4,MacIntel,59.52380952,,,,,,,,,,,,,,,,,,,,,,479.1226,479.325,479.325,479.8189,,,,,,,,,,,,,,1.7469,0,,,,,,,,,,,,,,z,,,,,,,,,,,,,,,103,0,479.8196,481.5751,m,0,1.7469,,[],[],[],[],[],[],[],481.5751,483.568,483.5681,483.5683,[],[],[],[],[],[],[],,483.5683,483.5685,-0.01518514,-0.375128581,0,0,0,,0,102,102,62,1,4,TL,locigal,print,locigal_p.png,,,,,,
,,,,31783,001,2025-11-18_19h58.31.548,HW_LDT_1,2024.2.4,MacIntel,59.52380952,,,,,,,,,,,,,,,,,,,,,,483.5693,483.7601,483.7601,484.2581,,,,,,,,,,,,,,0.6667,0,,,,,,,,,,,,,,m,,,,,,,,,,,,,,,104,1,484.2584,484.9322,z,0,0.6667,,[],[],[],[],[],[],[],484.9323,486.9343,486.9344,487.784,[],[],[],[],[],[],[],z,487.784,487.7842,-0.01518514,-0.375128581,0,0,0,,0,103,103,142,1,4,word,REMOTE,cursive,remote_c.png,0.8478,,,,,
,,,,31783,001,2025-11-18_19h58.31.548,HW_LDT_1,2024.2.4,MacIntel,59.52380952,,,,,,,,,,,,,,,,,,,,,,487.785,487.9728,487.9729,488.4747,,,,,,,,,,,,,,0.8152,1,,,,,,,,,,,,,,z,,,,,,,,,,,,,,,105,0,488.4754,489.2996,z,1,0.8152,,[],[],[],[],[],[],[],489.2998,491.293,491.2931,491.2932,[],[],[],[],[],[],[],,491.2933,491.2934,-0.01518514,-0.375128581,0,0,0,,0,104,104,18,1,4,RL,disluge,print,disluge_p.png,,,,,,
,,,,31783,001,2025-11-18_19h58.31.548,HW_LDT_1,2024.2.4,MacIntel,59.52380952,,,,,,,,,,,,,,,,,,,,,,491.2945,491.4871,491.4871,491.9865,,,,,,,,,,,,,,1.0126,1,,,,,,,,,,,,,,m,,,,,,,,,,,,,,,106,0,491.9873,493.0096,m,1,1.0126,,[],[],[],[],[],[],[],493.0098,495.0087,495.0088,495.0089,[],[],[],[],[],[],[],,495.0089,495.009,-0.01518514,-0.375128581,0,0,0,,0,105,105,150,1,4,word,SENTIMENT,print,sentiment_p.png,,,,,,
,,,,31783,001,2025-11-18_19h58.31.548,HW_LDT_1,2024.2.4,MacIntel,59.52380952,,,,,,,,,,,,,,,,,,,,,,495.0098,495.1977,495.1978,495.6996,,,,,,,,,,,,,,0.7966,1,,,,,,,,,,,,,,z,,,,,,,,,,,,,,,107,0,495.7002,496.5035,z,1,0.7966,,[],[],[],[],[],[],[],496.5036,498.5004,498.5005,498.5008,[],[],[],[],[],[],[],,498.5008,498.501,-0.01518514,-0.375128581,0,0,0,,0,106,106,75,1,4,TL,sanile,print,sanile_p.png,,,,,,
,,,,31783,001,2025-11-18_19h58.31.548,HW_LDT_1,2024.2.4,MacIntel,59.52380952,,,,,,,,,,,,,,,,,,,,,,498.5023,498.7044,498.7044,499.1928,,,,,,,,,,,,,,0.8531,1,,,,,,,,,,,,,,z,,,,,,,,,,,,,,,108,0,499.1933,500.0561,z,1,0.8531,,[],[],[],[],[],[],[],500.0561,502.0468,502.0468,502.0471,[],[],[],[],[],[],[],,502.0471,502.0472,-0.01518514,-0.375128581,0,0,0,,0,107,107,66,1,4,TL,opmital,print,opmital_p.png,,,,,,
,,,,31783,001,2025-11-18_19h58.31.548,HW_LDT_1,2024.2.4,MacIntel,59.52380952,,,,,,,,,,,,,,,,,,,,,,502.0485,502.2375,502.2375,502.7497,,,,,,,,,,,,,,0.7525,1,,,,,,,,,,,,,,z,,,,,,,,,,,,,,,109,0,502.7502,503.5118,z,1,0.7525,,[],[],[],[],[],[],[],503.5119,505.5098,505.5098,505.5101,[],[],[],[],[],[],[],,505.5102,505.5103,-0.01518514,-0.375128581,0,0,0,,0,108,108,72,1,4,TL,relugar,cursive,relugar_c.png,,,,,,
,,,,31783,001,2025-11-18_19h58.31.548,HW_LDT_1,2024.2.4,MacIntel,59.52380952,,,,,,,,,,,,,,,,,,,,,,505.5116,505.6996,505.6996,506.1976,,,,,,,,,,,,,,0.6679,1,,,,,,,,,,,,,,z,,,,,,,,,,,,,,,110,0,506.198,506.8671,z,1,0.6679,,[],[],[],[],[],[],[],506.8672,508.8619,508.862,508.8621,[],[],[],[],[],[],[],,508.8622,508.8622,-0.01518514,-0.375128581,0,0,0,,0,109,109,51,1,4,TL,adsivory,cursive,adsivory_c.png,,,,,,
,,,,31783,001,2025-11-18_19h58.31.548,HW_LDT_1,2024.2.4,MacIntel,59.52380952,,,,,,,,,,,,,,,,,,,,,,508.8633,509.0546,509.0546,509.5587,,,,,,,,,,,,,,1.1846,1,,,,,,,,,,,,,,z,,,,,,,,,,,,,,,111,0,509.5592,510.7525,z,1,1.1846,,[],[],[],[],[],[],[],510.7525,512.7464,512.7464,512.7466,[],[],[],[],[],[],[],,512.7466,512.7468,-0.01518514,-0.375128581,0,0,0,,0,110,110,45,1,4,RL,spetisic,cursive,spetisic_c.png,,,,,,
,,,,31783,001,2025-11-18_19h58.31.548,HW_LDT_1,2024.2.4,MacIntel,59.52380952,,,,,,,,,,,,,,,,,,,,,,512.7481,512.9502,512.9503,513.4453,,,,,,,,,,,,,,0.6693,1,,,,,,,,,,,,,,z,,,,,,,,,,,,,,,112,0,513.4458,514.1247,z,1,0.6693,,[],[],[],[],[],[],[],514.1247,516.1208,516.1208,516.1211,[],[],[],[],[],[],[],,516.1211,516.1212,-0.01518514,-0.375128581,0,0,0,,0,111,111,48,1,4,RL,vabifity,print,vabifity_p.png,,,,,,
,,,,31783,001,2025-11-18_19h58.31.548,HW_LDT_1,2024.2.4,MacIntel,59.52380952,,,,,,,,,,,,,,,,,,,,,,516.1223,516.325,516.325,516.8139,,,,,,,,,,,,,,0.6534,1,,,,,,,,,,,,,,z,,,,,,,,,,,,,,,113,0,516.8143,517.4693,z,1,0.6534,,[],[],[],[],[],[],[],517.4694,519.4657,519.4658,519.466,[],[],[],[],[],[],[],,519.466,519.4661,-0.01518514,-0.375128581,0,0,0,,0,112,112,11,1,4,RL,clisimal,print,clisimal_p.png,,,,,,
,,,,31783,001,2025-11-18_19h58.31.548,HW_LDT_1,2024.2.4,MacIntel,59.52380952,,,,,,,,,,,,,,,,,,,,,,519.4671,519.6551,519.6551,520.1582,,,,,,,,,,,,,,0.6477,1,,,,,,,,,,,,,,z,,,,,,,,,,,,,,,114,0,520.1589,520.8164,z,1,0.6477,,[],[],[],[],[],[],[],520.8165,522.8157,522.8158,522.816,[],[],[],[],[],[],[],,522.8161,522.8162,-0.01518514,-0.375128581,0,0,0,,0,113,113,43,1,4,RL,rovastic,print,rovastic_p.png,,,,,,
,,,,31783,001,2025-11-18_19h58.31.548,HW_LDT_1,2024.2.4,MacIntel,59.52380952,,,,,,,,,,,,,,,,,,,,,,522.8176,523.0187,523.0187,523.512,,,,,,,,,,,,,,0.6301,1,,,,,,,,,,,,,,z,,,,,,,,,,,,,,,115,1,523.5123,524.1432,z,1,0.6301,,[],[],[],[],[],[],[],524.1433,526.1357,526.1357,527.1661,[],[],[],[],[],[],[],z,527.1662,527.1662,-0.01518514,-0.375128581,0,0,0,,0,114,114,1,1,4,RL,afaneur,cursive,afaneur_c.png,1.0229,,,,,
,,,,31783,001,2025-11-18_19h58.31.548,HW_LDT_1,2024.2.4,MacIntel,59.52380952,,,,,,,,,,,,,,,,,,,,,,527.1673,527.3646,527.3646,527.8656,,,,,,,,,,,,,,0.7438,1,,,,,,,,,,,,,,z,,,,,,,,,,,,,,,116,0,527.8659,528.6207,z,1,0.7438,,[],[],[],[],[],[],[],528.6209,530.6213,530.6213,530.6215,[],[],[],[],[],[],[],,530.6215,530.6216,-0.01518514,-0.375128581,0,0,0,,0,115,115,29,1,4,RL,motide,print,motide_p.png,,,,,,
,,,,31783,001,2025-11-18_19h58.31.548,HW_LDT_1,2024.2.4,MacIntel,59.52380952,,,,,,,,,,,,,,,,,,,,,,530.6232,530.8133,530.8133,531.3116,,,,,,,,,,,,,,0.8046,1,,,,,,,,,,,,,,z,,,,,,,,,,,,,,,117,1,531.3124,532.1273,z,1,0.8046,,[],[],[],[],[],[],[],532.1274,534.1233,534.1234,534.8971,[],[],[],[],[],[],[],z,534.8972,534.8972,-0.01518514,-0.375128581,0,0,0,,0,116,116,69,1,4,TL,quafily,print,quafily_p.png,0.7725,,,,,
,,,,31783,001,2025-11-18_19h58.31.548,HW_LDT_1,2024.2.4,MacIntel,59.52380952,,,,,,,,,,,,,,,,,,,,,,534.898,535.0915,535.0915,535.589,,,,,,,,,,,,,,1.3917,1,,,,,,,,,,,,,,m,,,,,,,,,,,,,,,118,0,535.5896,536.982,m,1,1.3917,,[],[],[],[],[],[],[],536.982,538.9731,538.9732,538.9734,[],[],[],[],[],[],[],,538.9734,538.9735,-0.01518514,-0.375128581,0,0,0,,0,117,117,88,1,4,word,CAMERA,print,camera_p.png,,,,,,
,,,,31783,001,2025-11-18_19h58.31.548,HW_LDT_1,2024.2.4,MacIntel,59.52380952,,,,,,,,,,,,,,,,,,,,,,538.9749,539.1614,539.1615,539.6665,,,,,,,,,,,,,,0.7947,0,,,,,,,,,,,,,,m,,,,,,,,,,,,,,,119,0,539.6671,540.4644,z,0,0.7947,,[],[],[],[],[],[],[],540.4645,542.4665,542.4666,542.4667,[],[],[],[],[],[],[],,542.4668,542.4668,-0.01518514,-0.375128581,0,0,0,,0,118,118,116,1,4,word,MARGINAL,cursive,marginal_c.png,,,,,,
,,,,31783,001,2025-11-18_19h58.31.548,HW_LDT_1,2024.2.4,MacIntel,59.52380952,,,,,,,,,,,,,,,,,,,,,,542.4681,542.6564,542.6564,543.1613,,,,,,,,,,,,,,0.9845,1,,,,,,,,,,,,,,m,,,,,,,,,,,,,,,120,0,543.1619,544.1567,m,1,0.9845,,[],[],[],[],[],[],[],544.1568,546.1615,546.1615,546.1618,[],[],[],[],[],[],[],,546.1618,546.1619,-0.01518514,-0.375128581,0,0,0,,0,119,119,135,1,4,word,QUALITY,print,quality_p.png,,,,,,
,,,,31783,001,2025-11-18_19h58.31.548,HW_LDT_1,2024.2.4,MacIntel,59.52380952,,,,,,,,,,,,,,,,,,,,,,546.1633,546.3518,546.3518,546.8578,,,,,,,,,,,,,,1.0487,0,,,,,,,,,,,,,,m,,,,,,,,,,,,,,,121,1,546.8582,547.9157,z,0,1.0487,,[],[],[],[],[],[],[],547.9157,549.9188,549.9188,551.1502,[],[],[],[],[],[],[],z,551.1502,551.1503,-0.01518514,-0.375128581,0,0,0,,0,120,120,130,1,4,word,POLICY,cursive,policy_c.png,1.2209,,,,,
,,,,31783,001,2025-11-18_19h58.31.548,HW_LDT_1,2024.2.4,MacIntel,59.52380952,,,,,,,,,,,,,,,,,,,,,,551.1509,551.3502,551.3502,551.8409,,,,,,,,,,,,,,1.4574,1,,,,,,,,,,,,,,m,,,,,,,,,,,,,,,122,0,551.8414,553.3093,m,1,1.4574,,[],[],[],[],[],[],[],553.3095,555.3006,555.3007,555.3009,[],[],[],[],[],[],[],,555.301,555.3011,-0.01518514,-0.375128581,0,0,0,,0,121,121,96,1,4,word,CONSIDER,cursive,consider_c.png,,,,,,
,,,,31783,001,2025-11-18_19h58.31.548,HW_LDT_1,2024.2.4,MacIntel,59.52380952,,,,,,,,,,,,,,,,,,,,,,555.3024,555.4911,555.4911,556.0037,,,,,,,,,,,,,,1.4716,0,,,,,,,,,,,,,,m,,,,,,,,,,,,,,,123,0,556.0041,557.4848,z,0,1.4716,,[],[],[],[],[],[],[],557.4848,559.4816,559.4816,559.4818,[],[],[],[],[],[],[],,559.4818,559.4819,-0.01518514,-0.375128581,0,0,0,,0,122,122,92,1,4,word,CATEGORY,cursive,category_c.png,,,,,,
,,,,31783,001,2025-11-18_19h58.31.548,HW_LDT_1,2024.2.4,MacIntel,59.52380952,,,,,,,,,,,,,,,,,,,,,,559.4831,559.6854,559.6855,560.1842,,,,,,,,,,,,,,0.9481,1,,,,,,,,,,,,,,z,,,,,,,,,,,,,,,124,0,560.1848,561.1396,z,1,0.9481,,[],[],[],[],[],[],[],561.1397,563.1299,563.1299,563.13,[],[],[],[],[],[],[],,563.1301,563.1301,-0.01518514,-0.375128581,0,0,0,,0,123,123,78,1,4,TL,stragety,print,stragety_p.png,,,,,,
,,,,31783,001,2025-11-18_19h58.31.548,HW_LDT_1,2024.2.4,MacIntel,59.52380952,,,,,,,,,,,,,,,,,,,,,,563.131,563.318,563.318,563.8216,,,,,,,,,,,,,,0.788,1,,,,,,,,,,,,,,m,,,,,,,,,,,,,,,125,0,563.822,564.6197,m,1,0.788,,[],[],[],[],[],[],[],564.6198,566.6156,566.6156,566.6157,[],[],[],[],[],[],[],,566.6158,566.6159,-0.01518514,-0.375128581,0,0,0,,0,124,124,140,1,4,word,RELATIVE,print,relative_p.png,,,,,,
,,,,31783,001,2025-11-18_19h58.31.548,HW_LDT_1,2024.2.4,MacIntel,59.52380952,,,,,,,,,,,,,,,,,,,,,,566.617,566.8066,566.8066,567.3104,,,,,,,,,,,,,,0.8709,1,,,,,,,,,,,,,,z,,,,,,,,,,,,,,,126,0,567.311,568.1899,z,1,0.8709,,[],[],[],[],[],[],[],568.1899,570.1817,570.1818,570.1818,[],[],[],[],[],[],[],,570.1818,570.182,-0.01518514,-0.375128581,0,0,0,,0,125,125,71,1,4,TL,racidal,print,racidal_p.png,,,,,,
,,,,31783,001,2025-11-18_19h58.31.548,HW_LDT_1,2024.2.4,MacIntel,59.52380952,,,,,,,,,,,,,,,,,,,,,,570.1828,570.385,570.3851,570.8843,,,,,,,,,,,,,,1.223,1,,,,,,,,,,,,,,z,,,,,,,,,,,,,,,127,0,570.8846,572.1085,z,1,1.223,,[],[],[],[],[],[],[],572.1085,574.1023,574.1023,574.1025,[],[],[],[],[],[],[],,574.1026,574.1028,-0.01518514,-0.375128581,0,0,0,,0,126,126,55,1,4,TL,corevage,cursive,corevage_c.png,,,,,,
,,,,31783,001,2025-11-18_19h58.31.548,HW_LDT_1,2024.2.4,MacIntel,59.52380952,,,,,,,,,,,,,,,,,,,,,,574.1043,574.2994,574.2994,574.8013,,,,,,,,,,,,,,0.9156,1,,,,,,,,,,,,,,m,,,,,,,,,,,,,,,128,0,574.8018,575.7183,m,1,0.9156,,[],[],[],[],[],[],[],575.7183,577.7169,577.7169,577.7171,[],[],[],[],[],[],[],,577.7171,577.7171,-0.01518514,-0.375128581,0,0,0,,0,127,127,152,1,4,word,SPECIMEN,cursive,specimen_c.png,,,,,,
,,,,31783,001,2025-11-18_19h58.31.548,HW_LDT_1,2024.2.4,MacIntel,59.52380952,,,,,,,,,,,,,,,,,,,,,,577.7179,577.907,577.907,578.4203,,,,,,,,,,,,,,0.8272,1,,,,,,,,,,,,,,z,,,,,,,,,,,,,,,129,0,578.4208,579.2589,z,1,0.8272,,[],[],[],[],[],[],[],579.259,581.257,581.257,581.257,[],[],[],[],[],[],[],,581.2571,581.2571,-0.01518514,-0.375128581,0,0,0,,0,128,128,40,1,4,RL,reconal,print,reconal_p.png,,,,,,
,,,,31783,001,2025-11-18_19h58.31.548,HW_LDT_1,2024.2.4,MacIntel,59.52380952,,,,,,,,,,,,,,,,,,,,,,581.2578,581.4544,581.4544,581.9605,,,,,,,,,,,,,,0.7005,1,,,,,,,,,,,,,,z,,,,,,,,,,,,,,,130,0,581.9608,582.6618,z,1,0.7005,,[],[],[],[],[],[],[],582.6619,584.6605,584.6605,584.6607,[],[],[],[],[],[],[],,584.6607,584.6608,-0.01518514,-0.375128581,0,0,0,,0,129,129,9,1,4,RL,cafigal,print,cafigal_p.png,,,,,,
,,,,31783,001,2025-11-18_19h58.31.548,HW_LDT_1,2024.2.4,MacIntel,59.52380952,,,,,,,,,,,,,,,,,,,,,,584.6617,584.852,584.852,585.3511,,,,,,,,,,,,,,0.9181,1,,,,,,,,,,,,,,z,,,,,,,,,,,,,,,131,0,585.3518,586.28,z,1,0.9181,,[],[],[],[],[],[],[],586.28,588.2741,588.2741,588.2743,[],[],[],[],[],[],[],,588.2743,588.2744,-0.01518514,-0.375128581,0,0,0,,0,130,130,79,1,4,TL,tritube,print,tritube_p.png,,,,,,
,,,,31783,001,2025-11-18_19h58.31.548,HW_LDT_1,2024.2.4,MacIntel,59.52380952,,,,,,,,,,,,,,,,,,,,,,588.2753,588.4627,588.4627,588.9694,,,,,,,,,,,,,,0.8323,1,,,,,,,,,,,,,,m,,,,,,,,,,,,,,,132,0,588.9699,589.8116,m,1,0.8323,,[],[],[],[],[],[],[],589.8116,591.8099,591.81,591.8102,[],[],[],[],[],[],[],,591.8103,591.8103,-0.01518514,-0.375128581,0,0,0,,0,131,131,127,1,4,word,ORIGINAL,print,original_p.png,,,,,,
,,,,31783,001,2025-11-18_19h58.31.548,HW_LDT_1,2024.2.4,MacIntel,59.52380952,,,,,,,,,,,,,,,,,,,,,,591.8113,592.0023,592.0023,592.5069,,,,,,,,,,,,,,0.7918,0,,,,,,,,,,,,,,m,,,,,,,,,,,,,,,133,0,592.5073,593.2998,z,0,0.7918,,[],[],[],[],[],[],[],593.2999,595.2941,595.2941,595.2943,[],[],[],[],[],[],[],,595.2943,595.2945,-0.01518514,-0.375128581,0,0,0,,0,132,132,97,1,4,word,COVERAGE,cursive,coverage_c.png,,,,,,
,,,,31783,001,2025-11-18_19h58.31.548,HW_LDT_1,2024.2.4,MacIntel,59.52380952,,,,,,,,,,,,,,,,,,,,,,595.2957,595.4998,595.4999,595.9847,,,,,,,,,,,,,,1.3811,1,,,,,,,,,,,,,,m,,,,,,,,,,,,,,,134,1,595.9851,597.3672,m,1,1.3811,,[],[],[],[],[],[],[],597.3672,599.3609,599.361,600.0807,[],[],[],[],[],[],[],z,600.0808,600.0809,-0.01518514,-0.375128581,0,0,0,,0,133,133,139,1,4,word,REGULAR,cursive,regular_c.png,0.7123,,,,,
,,,,31783,001,2025-11-18_19h58.31.548,HW_LDT_1,2024.2.4,MacIntel,59.52380952,,,,,,,,,,,,,,,,,,,,,,600.0823,600.2701,600.2701,600.7761,,,,,,,,,,,,,,1.0591,1,,,,,,,,,,,,,,z,,,,,,,,,,,,,,,135,0,600.7765,601.8433,z,1,1.0591,,[],[],[],[],[],[],[],601.8435,603.8465,603.8465,603.8468,[],[],[],[],[],[],[],,603.8469,603.847,-0.01518514,-0.375128581,0,0,0,,0,134,134,60,1,4,TL,hetirage,print,hetirage_p.png,,,,,,
,,,,31783,001,2025-11-18_19h58.31.548,HW_LDT_1,2024.2.4,MacIntel,59.52380952,,,,,,,,,,,,,,,,,,,,,,603.8483,604.0375,604.0375,604.5421,,,,,,,,,,,,,,1.1475,0,,,,,,,,,,,,,,m,,,,,,,,,,,,,,,136,0,604.5426,605.6926,z,0,1.1475,,[],[],[],[],[],[],[],605.6927,607.6849,607.685,607.6851,[],[],[],[],[],[],[],,607.6851,607.6852,-0.01518514,-0.375128581,0,0,0,,0,135,135,99,1,4,word,DEBATE,cursive,debate_c.png,,,,,,
,,,,31783,001,2025-11-18_19h58.31.548,HW_LDT_1,2024.2.4,MacIntel,59.52380952,,,,,,,,,,,,,,,,,,,,,,607.6859,607.879,607.879,608.3835,,,,,,,,,,,,,,1.0071,1,,,,,,,,,,,,,,m,,,,,,,,,,,,,,,137,0,608.3841,609.4018,m,1,1.0071,,[],[],[],[],[],[],[],609.402,611.3949,611.3949,611.3951,[],[],[],[],[],[],[],,611.3953,611.3953,-0.01518514,-0.375128581,0,0,0,,0,136,136,84,1,4,word,BELOVED,print,beloved_p.png,,,,,,
,,,,31783,001,2025-11-18_19h58.31.548,HW_LDT_1,2024.2.4,MacIntel,59.52380952,,,,,,,,,,,,,,,,,,,,,,611.3969,611.5965,611.5966,612.099,,,,,,,,,,,,,,0.9607,1,,,,,,,,,,,,,,z,,,,,,,,,,,,,,,138,0,612.0995,613.0722,z,1,0.9607,,[],[],[],[],[],[],[],613.0723,615.0697,615.0698,615.0699,[],[],[],[],[],[],[],,615.0699,615.07,-0.01518514,-0.375128581,0,0,0,,0,137,137,19,1,4,RL,elacodate,cursive,elacodate_c.png,,,,,,
,,,,31783,001,2025-11-18_19h58.31.548,HW_LDT_1,2024.2.4,MacIntel,59.52380952,,,,,,,,,,,,,,,,,,,,,,615.071,615.2711,615.2712,615.7677,,,,,,,,,,,,,,0.9431,0,,,,,,,,,,,,,,m,,,,,,,,,,,,,,,139,0,615.7683,616.7121,z,0,0.9431,,[],[],[],[],[],[],[],616.7122,618.7139,618.7139,618.7141,[],[],[],[],[],[],[],,618.7142,618.7143,-0.01518514,-0.375128581,0,0,0,,0,138,138,156,1,4,word,TRIBUTE,print,tribute_p.png,,,,,,
,,,,31783,001,2025-11-18_19h58.31.548,HW_LDT_1,2024.2.4,MacIntel,59.52380952,,,,,,,,,,,,,,,,,,,,,,618.7155,618.9042,618.9043,619.4203,,,,,,,,,,,,,,0.7571,1,,,,,,,,,,,,,,m,,,,,,,,,,,,,,,140,0,619.421,620.1875,m,1,0.7571,,[],[],[],[],[],[],[],620.1876,622.1876,622.1877,622.1879,[],[],[],[],[],[],[],,622.1879,622.188,-0.01518514,-0.375128581,0,0,0,,0,139,139,145,1,4,word,RESUME,print,resume_p.png,,,,,,
,,,,31783,001,2025-11-18_19h58.31.548,HW_LDT_1,2024.2.4,MacIntel,59.52380952,,,,,,,,,,,,,,,,,,,,,,622.1891,622.3773,622.3773,622.8842,,,,,,,,,,,,,,1.4626,1,,,,,,,,,,,,,,z,,,,,,,,,,,,,,,141,0,622.8845,624.3575,z,1,1.4626,,[],[],[],[],[],[],[],624.3575,626.3586,626.3586,626.3588,[],[],[],[],[],[],[],,626.3589,626.359,-0.01518514,-0.375128581,0,0,0,,0,140,140,34,1,4,RL,posity,cursive,posity_c.png,,,,,,
,,,,31783,001,2025-11-18_19h58.31.548,HW_LDT_1,2024.2.4,MacIntel,59.52380952,,,,,,,,,,,,,,,,,,,,,,626.36,626.5629,626.5629,627.0546,,,,,,,,,,,,,,0.9085,0,,,,,,,,,,,,,,z,,,,,,,,,,,,,,,142,0,627.0551,627.9645,m,0,0.9085,,[],[],[],[],[],[],[],627.9646,629.9628,629.9628,629.9629,[],[],[],[],[],[],[],,629.963,629.963,-0.01518514,-0.375128581,0,0,0,,0,141,141,73,1,4,TL,regilion,print,regilion_p.png,,,,,,
,,,,31783,001,2025-11-18_19h58.31.548,HW_LDT_1,2024.2.4,MacIntel,59.52380952,,,,,,,,,,,,,,,,,,,,,,629.9638,630.1576,630.1577,630.6577,,,,,,,,,,,,,,0.9178,1,,,,,,,,,,,,,,m,,,,,,,,,,,,,,,143,0,630.6581,631.5852,m,1,0.9178,,[],[],[],[],[],[],[],631.5852,633.5814,633.5815,633.5816,[],[],[],[],[],[],[],,633.5816,633.5818,-0.01518514,-0.375128581,0,0,0,,0,142,142,155,1,4,word,STRATEGY,print,strategy_p.png,,,,,,
,,,,31783,001,2025-11-18_19h58.31.548,HW_LDT_1,2024.2.4,MacIntel,59.52380952,,,,,,,,,,,,,,,,,,,,,,633.5829,633.7704,633.7704,634.2713,,,,,,,,,,,,,,0.79,1,,,,,,,,,,,,,,z,,,,,,,,,,,,,,,144,0,634.272,635.0722,z,1,0.79,,[],[],[],[],[],[],[],635.0722,637.0754,637.0754,637.0756,[],[],[],[],[],[],[],,637.0756,637.0757,-0.01518514,-0.375128581,0,0,0,,0,143,143,28,1,4,RL,mifikary,print,mifikary_p.png,,,,,,
,,,,31783,001,2025-11-18_19h58.31.548,HW_LDT_1,2024.2.4,MacIntel,59.52380952,,,,,,,,,,,,,,,,,,,,,,637.0769,637.2663,637.2663,637.764,,,,,,,,,,,,,,1.0323,1,,,,,,,,,,,,,,m,,,,,,,,,,,,,,,145,1,637.7647,638.7999,m,1,1.0323,,[],[],[],[],[],[],[],638.8,640.8005,640.8005,641.2969,[],[],[],[],[],[],[],z,641.297,641.297,-0.01518514,-0.375128581,0,0,0,,0,144,144,81,1,4,word,ADVISORY,cursive,advisory_c.png,0.4875,,,,,
,,,,31783,001,2025-11-18_19h58.31.548,HW_LDT_1,2024.2.4,MacIntel,59.52380952,,,,,,,,,,,,,,,,,,,,,,641.2978,641.4969,641.497,641.9946,,,,,,,,,,,,,,0.7097,0,,,,,,,,,,,,,,z,,,,,,,,,,,,,,,146,0,641.9953,642.7162,m,0,0.7097,,[],[],[],[],[],[],[],642.7162,644.7051,644.7051,644.7052,[],[],[],[],[],[],[],,644.7053,644.7053,-0.01518514,-0.375128581,0,0,0,,0,145,145,68,1,4,TL,prosopal,print,prosopal_p.png,,,,,,
,,,,31783,001,2025-11-18_19h58.31.548,HW_LDT_1,2024.2.4,MacIntel,59.52380952,,,,,,,,,,,,,,,,,,,,,,644.7061,644.908,644.908,645.4021,,,,,,,,,,,,,,0.7836,1,,,,,,,,,,,,,,m,,,,,,,,,,,,,,,147,0,645.4024,646.1964,m,1,0.7836,,[],[],[],[],[],[],[],646.1965,648.1867,648.1867,648.1868,[],[],[],[],[],[],[],,648.1868,648.1869,-0.01518514,-0.375128581,0,0,0,,0,146,146,132,1,4,word,PROPOSAL,print,proposal_p.png,,,,,,
,,,,31783,001,2025-11-18_19h58.31.548,HW_LDT_1,2024.2.4,MacIntel,59.52380952,,,,,,,,,,,,,,,,,,,,,,648.1878,648.3803,648.3803,648.8905,,,,,,,,,,,,,,1.0436,1,,,,,,,,,,,,,,z,,,,,,,,,,,,,,,148,0,648.8911,649.9463,z,1,1.0436,,[],[],[],[],[],[],[],649.9464,651.9387,651.9387,651.9389,[],[],[],[],[],[],[],,651.9391,651.9393,-0.01518514,-0.375128581,0,0,0,,0,147,147,56,1,4,TL,donimant,cursive,donimant_c.png,,,,,,
,,,,31783,001,2025-11-18_19h58.31.548,HW_LDT_1,2024.2.4,MacIntel,59.52380952,,,,,,,,,,,,,,,,,,,,,,651.9403,652.1429,652.143,652.6285,,,,,,,,,,,,,,0.745,1,,,,,,,,,,,,,,m,,,,,,,,,,,,,,,149,1,652.6291,653.3842,m,1,0.745,,[],[],[],[],[],[],[],653.3842,655.3754,655.3755,656.531,[],[],[],[],[],[],[],m,656.531,656.5311,-0.01518514,-0.375128581,0,0,0,,0,148,148,86,1,4,word,BESIDE,print,beside_p.png,1.1552,,,,,
,,,,31783,001,2025-11-18_19h58.31.548,HW_LDT_1,2024.2.4,MacIntel,59.52380952,,,,,,,,,,,,,,,,,,,,,,656.5319,656.7304,656.7304,657.2324,,,,,,,,,,,,,,0.8297,1,,,,,,,,,,,,,,z,,,,,,,,,,,,,,,150,1,657.2329,658.0732,z,1,0.8297,,[],[],[],[],[],[],[],658.0732,660.0749,660.075,661.2914,[],[],[],[],[],[],[],z,661.2915,661.2915,-0.01518514,-0.375128581,0,0,0,,0,149,149,37,1,4,RL,renutal,cursive,renutal_c.png,1.2065,,,,,
,,,,31783,001,2025-11-18_19h58.31.548,HW_LDT_1,2024.2.4,MacIntel,59.52380952,,,,,,,,,,,,,,,,,,,,,,661.2923,661.4911,661.4911,661.9862,,,,,,,,,,,,,,1.0139,1,,,,,,,,,,,,,,z,,,,,,,,,,,,,,,151,1,661.9869,663.012,z,1,1.0139,,[],[],[],[],[],[],[],663.0121,665.002,665.002,665.9434,[],[],[],[],[],[],[],z,665.9434,665.9435,-0.01518514,-0.375128581,0,0,0,,0,150,150,46,1,4,RL,skofen,cursive,skofen_c.png,0.9396,,,,,
,,,,31783,001,2025-11-18_19h58.31.548,HW_LDT_1,2024.2.4,MacIntel,59.52380952,,,,,,,,,,,,,,,,,,,,,,665.9442,666.1446,666.1446,666.6387,,,,,,,,,,,,,,1.6363,1,,,,,,,,,,,,,,z,,,,,,,,,,,,,,,152,1,666.6394,668.2853,z,1,1.6363,,[],[],[],[],[],[],[],668.2854,670.2744,670.2744,671.1279,[],[],[],[],[],[],[],z,671.128,671.1281,-0.01518514,-0.375128581,0,0,0,,0,151,151,50,1,4,RL,vecelan,cursive,vecelan_c.png,0.8529,,,,,
,,,,31783,001,2025-11-18_19h58.31.548,HW_LDT_1,2024.2.4,MacIntel,59.52380952,,,,,,,,,,,,,,,,,,,,,,671.1289,671.3259,671.326,671.8285,,,,,,,,,,,,,,1.19,0,,,,,,,,,,,,,,m,,,,,,,,,,,,,,,153,0,671.8288,673.0195,z,0,1.19,,[],[],[],[],[],[],[],673.0196,675.0104,675.0105,675.0105,[],[],[],[],[],[],[],,675.0106,675.0107,-0.01518514,-0.375128581,0,0,0,,0,152,152,91,1,4,word,CARDINAL,cursive,cardinal_c.png,,,,,,
,,,,31783,001,2025-11-18_19h58.31.548,HW_LDT_1,2024.2.4,MacIntel,59.52380952,,,,,,,,,,,,,,,,,,,,,,675.0117,675.2101,675.2101,675.7101,,,,,,,,,,,,,,0.6418,1,,,,,,,,,,,,,,m,,,,,,,,,,,,,,,154,0,675.7104,676.3609,m,1,0.6418,,[],[],[],[],[],[],[],676.361,678.3608,678.3609,678.361,[],[],[],[],[],[],[],,678.361,678.361,-0.01518514,-0.375128581,0,0,0,,0,153,153,93,1,4,word,CEREMONY,print,ceremony_p.png,,,,,,
,,,,31783,001,2025-11-18_19h58.31.548,HW_LDT_1,2024.2.4,MacIntel,59.52380952,,,,,,,,,,,,,,,,,,,,,,678.3622,678.564,678.564,679.0574,,,,,,,,,,,,,,1.1744,1,,,,,,,,,,,,,,m,,,,,,,,,,,,,,,155,0,679.058,680.2331,m,1,1.1744,,[],[],[],[],[],[],[],680.2333,682.2258,682.2258,682.226,[],[],[],[],[],[],[],,682.2261,682.2262,-0.01518514,-0.375128581,0,0,0,,0,154,154,104,1,4,word,DOMINANT,cursive,dominant_c.png,,,,,,
,,,,31783,001,2025-11-18_19h58.31.548,HW_LDT_1,2024.2.4,MacIntel,59.52380952,,,,,,,,,,,,,,,,,,,,,,682.2276,682.4294,682.4294,682.9194,,,,,,,,,,,,,,0.8449,1,,,,,,,,,,,,,,z,,,,,,,,,,,,,,,156,0,682.92,683.7672,z,1,0.8449,,[],[],[],[],[],[],[],683.7672,685.7685,685.7685,685.7686,[],[],[],[],[],[],[],,685.7686,685.7687,-0.01518514,-0.375128581,0,0,0,,0,155,155,57,1,4,TL,etidor,print,etidor_p.png,,,,,,
,,,,31783,001,2025-11-18_19h58.31.548,HW_LDT_1,2024.2.4,MacIntel,59.52380952,,,,,,,,,,,,,,,,,,,,,,685.7696,685.965,685.965,686.4644,,,,,,,,,,,,,,0.8739,1,,,,,,,,,,,,,,m,,,,,,,,,,,,,,,157,0,686.4648,687.3393,m,1,0.8739,,[],[],[],[],[],[],[],687.3394,689.3318,689.3318,689.332,[],[],[],[],[],[],[],,689.332,689.3322,-0.01518514,-0.375128581,0,0,0,,0,156,156,110,1,4,word,HERITAGE,print,heritage_p.png,,,,,,
,,,,31783,001,2025-11-18_19h58.31.548,HW_LDT_1,2024.2.4,MacIntel,59.52380952,,,,,,,,,,,,,,,,,,,,,,689.3337,689.5228,689.5228,690.0306,,,,,,,,,,,,,,1.2109,1,,,,,,,,,,,,,,m,,,,,,,,,,,,,,,158,1,690.0309,691.2504,m,1,1.2109,,[],[],[],[],[],[],[],691.2504,693.2493,693.2494,693.9838,[],[],[],[],[],[],[],z,693.9838,693.9839,-0.01518514,-0.375128581,0,0,0,,0,157,157,82,1,4,word,AMATEUR,cursive,amateur_c.png,0.7248,,,,,
,,,,31783,001,2025-11-18_19h58.31.548,HW_LDT_1,2024.2.4,MacIntel,59.52380952,,,,,,,,,,,,,,,,,,,,,,693.985,694.1835,694.1835,694.6863,,,,,,,,,,,,,,0.9209,1,,,,,,,,,,,,,,z,,,,,,,,,,,,,,,159,0,694.687,695.6169,z,1,0.9209,,[],[],[],[],[],[],[],695.617,697.6116,697.6116,697.6118,[],[],[],[],[],[],[],,697.6118,697.6119,-0.01518514,-0.375128581,0,0,0,,0,158,158,74,1,4,TL,rerite,print,rerite_p.png,,,,,,
,,,,31783,001,2025-11-18_19h58.31.548,HW_LDT_1,2024.2.4,MacIntel,59.52380952,,,,,,,,,,,,,,,,,,,,,,697.6127,697.8022,697.8023,698.3058,,,,,,,,,,,,,,1.1288,1,,,,,,,,,,,,,,m,,,,,,,,,,,,,,,160,0,698.3063,699.4441,m,1,1.1288,,[],[],[],[],[],[],[],699.4442,701.449,701.449,701.4492,[],[],[],[],[],[],[],,701.4492,701.4492,-0.01518514,-0.375128581,0,0,0,,0,159,159,112,1,4,word,LIBERAL,cursive,liberal_c.png,,,,,,
,,,,31783,001,2025-11-18_19h58.31.548,HW_LDT_1,2024.2.4,MacIntel,59.52380952,,,,,,,,,,,,,,,,,,,,,,,,,,,,,,,,,,,,,,,,,,,,,,,,,,,,,,,,,,,,,,,,,,,,,,,,,,,,,,,,,,,,,,,,,,,,,,,,,,,,,,,,,,,,,,,,,,,,,,701.4498,706.4398
