counterbalance_lists.group,counterbalance_lists.remaining,get_list.started,get_list.stopped,participant,session,date,expName,psychopyVersion,OS,frameRate,Instructions.started,Instructions.stopped,key_resp.keys,instr_done_touch.x,instr_done_touch.y,instr_done_touch.leftButton,instr_done_touch.midButton,instr_done_touch.rightButton,instr_done_touch.clicked_name,start_instr.thisRepN,start_instr.thisTrialN,start_instr.thisN,start_instr.thisIndex,start_instr.ran,pageN,phase,instruct_text,has_image,instruct_image,showProgress.started,showProgress.stopped,fix.started,fix.stopped,prac.started,prac.stopped,response.keys,response.corr,response.rt,response.duration,touch_resp.x,touch_resp.y,touch_resp.leftButton,touch_resp.midButton,touch_resp.rightButton,touch_resp.time,touch_resp.clicked_name,rt,corr,feedback.started,feedback.stopped,trials.thisRepN,trials.thisTrialN,trials.thisN,trials.thisIndex,trials.ran,TrialID,StimulusType,Condition,PrimeDuration,Prime,Target,corrAns,Instructions_expt.started,Instructions_expt.stopped,key_resp_3.keys,key_resp_3.rt,key_resp_3.duration,instr_done_touch_3.x,instr_done_touch_3.y,instr_done_touch_3.leftButton,instr_done_touch_3.midButton,instr_done_touch_3.rightButton,instr_experiment.thisRepN,instr_experiment.thisTrialN,instr_experiment.thisN,instr_experiment.thisIndex,instr_experiment.ran,trialID,flag,maintask.started,maintask.stopped,key_resp_2.keys,key_resp_2.corr,key_resp_2.rt,key_resp_2.duration,targ_click.x,targ_click.y,targ_click.leftButton,targ_click.midButton,targ_click.rightButton,targ_click.time,targ_click.clicked_name,ITI.started,ITI.stopped,probe.started,probe.stopped,click_probe.x,click_probe.y,click_probe.leftButton,click_probe.midButton,click_probe.rightButton,click_probe.time,click_probe.clicked_name,key_resp_probe.keys,Break.started,Break.stopped,break_done_touch.x,break_done_touch.y,break_done_touch.leftButton,break_done_touch.midButton,break_done_touch.rightButton,break_done_keyboard.keys,list1_trials.thisRepN,list1_trials.thisTrialN,list1_trials.thisN,list1_trials.thisIndex,list1_trials.ran,list_id,item_type,string,font,stim_file,key_resp_probe.rt,key_resp_probe.duration,break_done_touch.clicked_name,End.started,End.stopped
list1,,0.4276,0.4277,31788,001,2025-10-16_22h14.21.983,HW_LDT_1,2024.2.4,MacIntel,63.69426752,,,,,,,,,,,,,,,,,,,,,,,,,,,,,,,,,,,,,,,,,,,,,,,,,,,,,,,,,,,,,,,,,,,,,,,,,,,,,,,,,,,,,,,,,,,,,,,,,,,,,,,,,,,,,,,,,,,,,
,,,,31788,001,2025-10-16_22h14.21.983,HW_LDT_1,2024.2.4,MacIntel,63.69426752,0.4493,32.1799,,0.057764894,-0.415384419,1,0,0,instr_done_button,0,0,0,0,1,1,instructions,"INSTRUCTIONS
At the start of each trial, look at the plus sign  (+) in the center of the screen.  This tells you that a trial is about to begin and where to look. Second, the plus sign will disappear and a string of letters will appear. Your task is to determine if the string of letters is a word or not. If the item is a word press the M key (on keyboard)  or touch the word button (phone/tablet).  If the item is not a word,  press the  Z key (on keyboard)  or touch the nonword button (on phone/tablet). The items will be presented for a short time. 
Press the space bar or touch  continue.",0,,,,,,,,,,,,,,,,,,,,,,,,,,,,,,,,,,,,,,,,,,,,,,,,,,,,,,,,,,,,,,,,,,,,,,,,,,,,,,,,,,,,,,,,,,,,,,,,,,,
,,,,31788,001,2025-10-16_22h14.21.983,HW_LDT_1,2024.2.4,MacIntel,63.69426752,32.1819,36.0289,,0.071234868,-0.385435086,1,0,0,instr_done_button,0,1,1,1,1,2,instructions,"If your device has a keyboard, press the 'Z' key for nonwords and the 'M' key for words.





Press the space bar or touch the button below to continue.",0,keyboard-example.gif,,,,,,,,,,,,,,,,,,,,,,,,,,,,,,,,,,,,,,,,,,,,,,,,,,,,,,,,,,,,,,,,,,,,,,,,,,,,,,,,,,,,,,,,,,,,,,,,,,
,,,,31788,001,2025-10-16_22h14.21.983,HW_LDT_1,2024.2.4,MacIntel,63.69426752,36.0294,41.0288,,0.071234868,-0.385435086,1,0,0,instr_done_button,0,2,2,2,1,3,instructions,"If you are using a touchscreen only device, use the buttons on the screen. Do not use the mouse.





Press the space bar or touch the button below to continue.",0,touchscreen-example.gif,,,,,,,,,,,,,,,,,,,,,,,,,,,,,,,,,,,,,,,,,,,,,,,,,,,,,,,,,,,,,,,,,,,,,,,,,,,,,,,,,,,,,,,,,,,,,,,,,,
,,,,31788,001,2025-10-16_22h14.21.983,HW_LDT_1,2024.2.4,MacIntel,63.69426752,41.031,51.3614,,0.071234868,-0.385435086,1,0,0,instr_done_button,0,3,3,3,1,4,instructions,"It is very important that you respond as quickly and accurately as possible, as each letter string will only be on the screen for two seconds. If you do not respond within this time, the message 'Too slow!' will be displayed and the experiment will progress to the next letter string. The first 20 trials will be practice trials and you will receive feedback on your answers. 

Press the space bar or touch the button below to start the practice trials.",0,,,,,,,,,,,,,,,,,,,,,,,,,,,,,,,,,,,,,,,,,,,,,,,,,,,,,,,,,,,,,,,,,,,,,,,,,,,,,,,,,,,,,,,,,,,,,,,,,,,
,,,,31788,001,2025-10-16_22h14.21.983,HW_LDT_1,2024.2.4,MacIntel,63.69426752,,,,,,,,,,,,,,,,,,,,51.3911,51.5613,51.5616,52.062,52.0623,53.5494,z,1,1.4622,,[],[],[],[],[],[],[],1.4622,1,53.5497,54.0453,0,0,0,14,1,1015,NW,UN,16,miaber,THRALE,z,,,,,,,,,,,,,,,,,,,,,,,,,,,,,,,,,,,,,,,,,,,,,,,,,,,,,,,,,,,,,,,,,
,,,,31788,001,2025-10-16_22h14.21.983,HW_LDT_1,2024.2.4,MacIntel,63.69426752,,,,,,,,,,,,,,,,,,,,54.0467,54.245,54.245,54.7448,54.7453,55.4779,m,1,0.7231,,[],[],[],[],[],[],[],0.7231,1,55.478,55.9782,0,1,1,1,1,1002,WORD,"ID",33,adjust,ADJUST,m,,,,,,,,,,,,,,,,,,,,,,,,,,,,,,,,,,,,,,,,,,,,,,,,,,,,,,,,,,,,,,,,,
,,,,31788,001,2025-10-16_22h14.21.983,HW_LDT_1,2024.2.4,MacIntel,63.69426752,,,,,,,,,,,,,,,,,,,,55.9793,56.1783,56.1784,56.6783,56.6792,57.2112,m,1,0.5173,,[],[],[],[],[],[],[],0.5173,1,57.2114,57.7115,0,2,2,2,1,1003,WORD,"ID",16,almond,ALMOND,m,,,,,,,,,,,,,,,,,,,,,,,,,,,,,,,,,,,,,,,,,,,,,,,,,,,,,,,,,,,,,,,,,
,,,,31788,001,2025-10-16_22h14.21.983,HW_LDT_1,2024.2.4,MacIntel,63.69426752,,,,,,,,,,,,,,,,,,,,57.713,57.9114,57.9116,58.4111,58.4121,59.0612,m,1,0.6316,,[],[],[],[],[],[],[],0.6316,1,59.0614,59.5613,0,3,3,3,1,1004,WORD,"ID",16,matrix,MATRIX,m,,,,,,,,,,,,,,,,,,,,,,,,,,,,,,,,,,,,,,,,,,,,,,,,,,,,,,,,,,,,,,,,,
,,,,31788,001,2025-10-16_22h14.21.983,HW_LDT_1,2024.2.4,MacIntel,63.69426752,,,,,,,,,,,,,,,,,,,,59.562,59.7614,59.7615,60.261,60.262,60.995,z,1,0.7167,,[],[],[],[],[],[],[],0.7167,1,60.9951,61.4948,0,4,4,12,1,1013,NW,UN,33,adveil,SPRINY,z,,,,,,,,,,,,,,,,,,,,,,,,,,,,,,,,,,,,,,,,,,,,,,,,,,,,,,,,,,,,,,,,,
,,,,31788,001,2025-10-16_22h14.21.983,HW_LDT_1,2024.2.4,MacIntel,63.69426752,,,,,,,,,,,,,,,,,,,,61.496,61.6947,61.6948,62.1946,62.1956,62.9614,z,1,0.7475,,[],[],[],[],[],[],[],0.7475,1,62.9615,63.4615,0,5,5,8,1,1009,NW,"ID",33,aslert,ASLERT,z,,,,,,,,,,,,,,,,,,,,,,,,,,,,,,,,,,,,,,,,,,,,,,,,,,,,,,,,,,,,,,,,,
,,,,31788,001,2025-10-16_22h14.21.983,HW_LDT_1,2024.2.4,MacIntel,63.69426752,,,,,,,,,,,,,,,,,,,,63.4628,63.6607,63.6607,64.1613,64.162,64.8946,z,1,0.7154,,[],[],[],[],[],[],[],0.7154,1,64.8948,65.3946,0,6,6,15,1,1016,NW,UN,16,mushed,WHAISE,z,,,,,,,,,,,,,,,,,,,,,,,,,,,,,,,,,,,,,,,,,,,,,,,,,,,,,,,,,,,,,,,,,
,,,,31788,001,2025-10-16_22h14.21.983,HW_LDT_1,2024.2.4,MacIntel,63.69426752,,,,,,,,,,,,,,,,,,,,65.3959,65.5946,65.5947,66.0945,66.0954,66.7945,m,1,0.6813,,[],[],[],[],[],[],[],0.6813,1,66.7946,67.2938,0,7,7,0,1,1001,WORD,"ID",33,utopia,UTOPIA,m,,,,,,,,,,,,,,,,,,,,,,,,,,,,,,,,,,,,,,,,,,,,,,,,,,,,,,,,,,,,,,,,,
,,,,31788,001,2025-10-16_22h14.21.983,HW_LDT_1,2024.2.4,MacIntel,63.69426752,,,,,,,,,,,,,,,,,,,,67.295,67.4945,67.4945,67.9945,67.9953,68.7603,z,1,0.7451,,[],[],[],[],[],[],[],0.7451,1,68.7604,69.2611,0,8,8,13,1,1014,NW,UN,33,winfer,ROUPET,z,,,,,,,,,,,,,,,,,,,,,,,,,,,,,,,,,,,,,,,,,,,,,,,,,,,,,,,,,,,,,,,,,
,,,,31788,001,2025-10-16_22h14.21.983,HW_LDT_1,2024.2.4,MacIntel,63.69426752,,,,,,,,,,,,,,,,,,,,69.2627,69.4607,69.4608,69.961,69.9619,70.7611,z,1,0.7803,,[],[],[],[],[],[],[],0.7803,1,70.7612,71.2607,0,9,9,10,1,1011,NW,"ID",16,inlade,INLADE,z,,,,,,,,,,,,,,,,,,,,,,,,,,,,,,,,,,,,,,,,,,,,,,,,,,,,,,,,,,,,,,,,,
,,,,31788,001,2025-10-16_22h14.21.983,HW_LDT_1,2024.2.4,MacIntel,63.69426752,,,,,,,,,,,,,,,,,,,,71.2621,71.4609,71.461,71.961,71.962,72.6943,z,1,0.7225,,[],[],[],[],[],[],[],0.7225,1,72.6945,73.1942,0,10,10,9,1,1010,NW,"ID",33,fariny,FARINY,z,,,,,,,,,,,,,,,,,,,,,,,,,,,,,,,,,,,,,,,,,,,,,,,,,,,,,,,,,,,,,,,,,
,,,,31788,001,2025-10-16_22h14.21.983,HW_LDT_1,2024.2.4,MacIntel,63.69426752,,,,,,,,,,,,,,,,,,,,73.1955,73.3942,73.3942,73.8934,73.8942,74.6942,z,1,0.7827,,[],[],[],[],[],[],[],0.7827,1,74.6943,75.1942,0,11,11,11,1,1012,NW,"ID",16,rashet,RASHET,z,,,,,,,,,,,,,,,,,,,,,,,,,,,,,,,,,,,,,,,,,,,,,,,,,,,,,,,,,,,,,,,,,
,,,,31788,001,2025-10-16_22h14.21.983,HW_LDT_1,2024.2.4,MacIntel,63.69426752,,,,,,,,,,,,,,,,,,,,75.1954,75.3938,75.3938,75.8941,75.8952,76.5108,m,1,0.5892,,[],[],[],[],[],[],[],0.5892,1,76.511,77.0107,0,12,12,4,1,1005,WORD,UN,33,abound,SQUEAK,m,,,,,,,,,,,,,,,,,,,,,,,,,,,,,,,,,,,,,,,,,,,,,,,,,,,,,,,,,,,,,,,,,
,,,,31788,001,2025-10-16_22h14.21.983,HW_LDT_1,2024.2.4,MacIntel,63.69426752,,,,,,,,,,,,,,,,,,,,77.0117,77.2107,77.2108,77.7107,77.7116,78.3607,m,1,0.6316,,[],[],[],[],[],[],[],0.6316,1,78.3609,78.8597,0,13,13,5,1,1006,WORD,UN,33,frenzy,OBTAIN,m,,,,,,,,,,,,,,,,,,,,,,,,,,,,,,,,,,,,,,,,,,,,,,,,,,,,,,,,,,,,,,,,,
,,,,31788,001,2025-10-16_22h14.21.983,HW_LDT_1,2024.2.4,MacIntel,63.69426752,,,,,,,,,,,,,,,,,,,,78.8612,79.0607,79.0607,79.5606,79.5615,80.0608,m,1,0.4827,,[],[],[],[],[],[],[],0.4827,1,80.0609,80.5607,0,14,14,6,1,1007,WORD,UN,16,tropic,ZOMBIE,m,,,,,,,,,,,,,,,,,,,,,,,,,,,,,,,,,,,,,,,,,,,,,,,,,,,,,,,,,,,,,,,,,
,,,,31788,001,2025-10-16_22h14.21.983,HW_LDT_1,2024.2.4,MacIntel,63.69426752,,,,,,,,,,,,,,,,,,,,80.5619,80.7607,80.7607,81.2606,81.2616,81.7274,m,1,0.4486,,[],[],[],[],[],[],[],0.4486,1,81.7275,82.2273,0,15,15,7,1,1008,WORD,UN,16,hurdle,VOLUME,m,,,,,,,,,,,,,,,,,,,,,,,,,,,,,,,,,,,,,,,,,,,,,,,,,,,,,,,,,,,,,,,,,
,,,,31788,001,2025-10-16_22h14.21.983,HW_LDT_1,2024.2.4,MacIntel,63.69426752,,,,,,,,,,,,,,,1,end_of_practice,"You have completed the practice trials. During the experimental trials, you will not receive feedback. On some trials you will be asked to report whether the item you just saw was in cursive or print. 
Before you begin, please ensure that you are in a comfortable and quiet location and will not be disturbed for about 15 minutes, as we cannot use your data if you do not complete all the trials. 
 When you are ready to start the experimental trials, please press space or touch the button below.",,,,,,,,,,,,,,,,,,,,,,,,,,,,,,,,,,,,82.2352,131.6592,space,49.3994,,0.071234868,-0.385435086,0,0,0,0,0,0,0,1,,,,,,,,,,,,,,,,,,,,,,,,,,,,,,,,,,,,,,,,,,,,,,,,,,
,,,,31788,001,2025-10-16_22h14.21.983,HW_LDT_1,2024.2.4,MacIntel,63.69426752,,,,,,,,,,,,,,,,,,,,131.6677,131.8576,131.8577,132.3585,,,,,,,,,,,,,,0.6838,1,,,,,,,,,,,,,,m,,,,,,,,,,,,,,,,1,0,132.3639,133.059,m,1,0.6838,,[],[],[],[],[],[],[],133.0593,135.0577,135.058,135.0606,[],[],[],[],[],[],[],,135.0607,135.0622,0.071234868,-0.385435086,0,0,0,,0,0,0,83,1,1,word,ANIMAL,print,animal_p.png,,,,,
,,,,31788,001,2025-10-16_22h14.21.983,HW_LDT_1,2024.2.4,MacIntel,63.69426752,,,,,,,,,,,,,,,,,,,,135.063,135.2577,135.2577,135.7577,,,,,,,,,,,,,,2.374,1,,,,,,,,,,,,,,z,,,,,,,,,,,,,,,,2,1,135.7583,138.1408,z,1,2.374,,[],[],[],[],[],[],[],138.1409,140.1416,140.1417,143.0916,[],[],[],[],[],[],[],z,143.0917,143.0918,0.071234868,-0.385435086,0,0,0,,0,1,1,9,1,1,RL,docirant,cursive,docirant_c.png,2.9411,,,,
,,,,31788,001,2025-10-16_22h14.21.983,HW_LDT_1,2024.2.4,MacIntel,63.69426752,,,,,,,,,,,,,,,,,,,,143.0929,143.2914,143.2915,143.7914,,,,,,,,,,,,,,1.6469,1,,,,,,,,,,,,,,z,,,,,,,,,,,,,,,,3,0,143.7919,145.4414,z,1,1.6469,,[],[],[],[],[],[],[],145.4415,147.4414,147.4414,147.4416,[],[],[],[],[],[],[],,147.4416,147.4418,0.071234868,-0.385435086,0,0,0,,0,2,2,78,1,1,TL,vecolity,print,vecolity_p.png,,,,,
,,,,31788,001,2025-10-16_22h14.21.983,HW_LDT_1,2024.2.4,MacIntel,63.69426752,,,,,,,,,,,,,,,,,,,,147.4427,147.6414,147.6414,148.1413,,,,,,,,,,,,,,1.0221,1,,,,,,,,,,,,,,m,,,,,,,,,,,,,,,,4,0,148.1418,149.1746,m,1,1.0221,,[],[],[],[],[],[],[],149.1748,151.1744,151.1745,151.1747,[],[],[],[],[],[],[],,151.1747,151.1748,0.071234868,-0.385435086,0,0,0,,0,3,3,117,1,1,word,MARINE,print,marine_p.png,,,,,
,,,,31788,001,2025-10-16_22h14.21.983,HW_LDT_1,2024.2.4,MacIntel,63.69426752,,,,,,,,,,,,,,,,,,,,151.1759,151.3743,151.3744,151.8744,,,,,,,,,,,,,,0.7911,1,,,,,,,,,,,,,,m,,,,,,,,,,,,,,,,5,0,151.8749,152.6747,m,1,0.7911,,[],[],[],[],[],[],[],152.6748,154.6744,154.6745,154.6747,[],[],[],[],[],[],[],,154.6748,154.6749,0.071234868,-0.385435086,0,0,0,,0,4,4,84,1,1,word,BELOVED,print,beloved_p.png,,,,,
,,,,31788,001,2025-10-16_22h14.21.983,HW_LDT_1,2024.2.4,MacIntel,63.69426752,,,,,,,,,,,,,,,,,,,,154.6763,154.8743,154.8744,155.3743,,,,,,,,,,,,,,1.7268,1,,,,,,,,,,,,,,m,,,,,,,,,,,,,,,,6,1,155.3748,157.1077,m,1,1.7268,,[],[],[],[],[],[],[],157.1077,159.1075,159.1076,160.8901,[],[],[],[],[],[],[],z,160.8902,160.8903,0.071234868,-0.385435086,0,0,0,,0,5,5,127,1,1,word,ORIGINAL,cursive,original_c.png,1.7763,,,,
,,,,31788,001,2025-10-16_22h14.21.983,HW_LDT_1,2024.2.4,MacIntel,63.69426752,,,,,,,,,,,,,,,,,,,,160.8915,161.0909,161.0909,161.5907,,,,,,,,,,,,,,1.1037,1,,,,,,,,,,,,,,m,,,,,,,,,,,,,,,,7,0,161.5913,162.7076,m,1,1.1037,,[],[],[],[],[],[],[],162.7076,164.7072,164.7073,164.7075,[],[],[],[],[],[],[],,164.7075,164.7077,0.071234868,-0.385435086,0,0,0,,0,6,6,158,1,1,word,VELOCITY,print,velocity_p.png,,,,,
,,,,31788,001,2025-10-16_22h14.21.983,HW_LDT_1,2024.2.4,MacIntel,63.69426752,,,,,,,,,,,,,,,,,,,,164.7087,164.9072,164.9072,165.4071,,,,,,,,,,,,,,0.7764,1,,,,,,,,,,,,,,m,,,,,,,,,,,,,,,,8,0,165.4077,166.1906,m,1,0.7764,,[],[],[],[],[],[],[],166.1907,168.1904,168.1905,168.1907,[],[],[],[],[],[],[],,168.1907,168.1908,0.071234868,-0.385435086,0,0,0,,0,7,7,126,1,1,word,OPTIMAL,print,optimal_p.png,,,,,
,,,,31788,001,2025-10-16_22h14.21.983,HW_LDT_1,2024.2.4,MacIntel,63.69426752,,,,,,,,,,,,,,,,,,,,168.1918,168.3904,168.3905,168.8903,,,,,,,,,,,,,,1.107,1,,,,,,,,,,,,,,m,,,,,,,,,,,,,,,,9,0,168.8907,170.0071,m,1,1.107,,[],[],[],[],[],[],[],170.0072,172.007,172.007,172.0071,[],[],[],[],[],[],[],,172.0072,172.0073,0.071234868,-0.385435086,0,0,0,,0,8,8,112,1,1,word,LIBERAL,cursive,liberal_c.png,,,,,
,,,,31788,001,2025-10-16_22h14.21.983,HW_LDT_1,2024.2.4,MacIntel,63.69426752,,,,,,,,,,,,,,,,,,,,172.0082,172.2069,172.2069,172.707,,,,,,,,,,,,,,3.2643,0,,,,,,,,,,,,,,m,,,,,,,,,,,,,,,,10,0,172.7076,175.9734,z,0,3.2643,,[],[],[],[],[],[],[],175.9734,177.9733,177.9734,177.9736,[],[],[],[],[],[],[],,177.9736,177.9739,0.071234868,-0.385435086,0,0,0,,0,9,9,110,1,1,word,HERITAGE,cursive,heritage_c.png,,,,,
,,,,31788,001,2025-10-16_22h14.21.983,HW_LDT_1,2024.2.4,MacIntel,63.69426752,,,,,,,,,,,,,,,,,,,,177.9749,178.1734,178.1735,178.6734,,,,,,,,,,,,,,2.6203,1,,,,,,,,,,,,,,z,,,,,,,,,,,,,,,,11,0,178.6739,181.3067,z,1,2.6203,,[],[],[],[],[],[],[],181.3067,183.3065,183.3065,183.3067,[],[],[],[],[],[],[],,183.3067,183.3069,0.071234868,-0.385435086,0,0,0,,0,10,10,17,1,1,RL,menowy,cursive,menowy_c.png,,,,,
,,,,31788,001,2025-10-16_22h14.21.983,HW_LDT_1,2024.2.4,MacIntel,63.69426752,,,,,,,,,,,,,,,,,,,,183.3079,183.5055,183.5055,184.0065,,,,,,,,,,,,,,1.0921,1,,,,,,,,,,,,,,z,,,,,,,,,,,,,,,,12,0,184.007,185.1065,z,1,1.0921,,[],[],[],[],[],[],[],185.1066,187.1063,187.1063,187.1065,[],[],[],[],[],[],[],,187.1066,187.1067,0.071234868,-0.385435086,0,0,0,,0,11,11,40,1,1,TL,atameur,print,atameur_p.png,,,,,
,,,,31788,001,2025-10-16_22h14.21.983,HW_LDT_1,2024.2.4,MacIntel,63.69426752,,,,,,,,,,,,,,,,,,,,187.1078,187.3062,187.3063,187.8058,,,,,,,,,,,,,,5.2754,1,,,,,,,,,,,,,,z,,,,,,,,,,,,,,,,13,0,187.8064,193.0892,z,1,5.2754,,[],[],[],[],[],[],[],193.0894,195.0894,195.0895,195.0897,[],[],[],[],[],[],[],,195.0898,195.09,0.071234868,-0.385435086,0,0,0,,0,12,12,44,1,1,TL,cateferia,cursive,cateferia_c.png,,,,,
,,,,31788,001,2025-10-16_22h14.21.983,HW_LDT_1,2024.2.4,MacIntel,63.69426752,,,,,,,,,,,,,,,,,,,,195.0916,195.2886,195.2886,195.7893,,,,,,,,,,,,,,1.6536,1,,,,,,,,,,,,,,z,,,,,,,,,,,,,,,,14,0,195.7899,197.4559,z,1,1.6536,,[],[],[],[],[],[],[],197.456,199.4558,199.4558,199.456,[],[],[],[],[],[],[],,199.4561,199.4562,0.071234868,-0.385435086,0,0,0,,0,13,13,7,1,1,RL,delahe,print,delahe_p.png,,,,,
,,,,31788,001,2025-10-16_22h14.21.983,HW_LDT_1,2024.2.4,MacIntel,63.69426752,,,,,,,,,,,,,,,,,,,,199.4572,199.656,199.6561,200.1562,,,,,,,,,,,,,,1.1294,1,,,,,,,,,,,,,,m,,,,,,,,,,,,,,,,15,0,200.1567,201.2892,m,1,1.1294,,[],[],[],[],[],[],[],201.2894,203.2891,203.2892,203.2894,[],[],[],[],[],[],[],,203.2894,203.2895,0.071234868,-0.385435086,0,0,0,,0,14,14,137,1,1,word,RAPIDLY,cursive,rapidly_c.png,,,,,
,,,,31788,001,2025-10-16_22h14.21.983,HW_LDT_1,2024.2.4,MacIntel,63.69426752,,,,,,,,,,,,,,,,,,,,203.2906,203.489,203.4892,203.9885,,,,,,,,,,,,,,0.9053,1,,,,,,,,,,,,,,z,,,,,,,,,,,,,,,,16,0,203.9889,204.9058,z,1,0.9053,,[],[],[],[],[],[],[],204.9059,206.9058,206.9059,206.906,[],[],[],[],[],[],[],,206.906,206.9062,0.071234868,-0.385435086,0,0,0,,0,15,15,12,1,1,RL,ebiwent,print,ebiwent_p.png,,,,,
,,,,31788,001,2025-10-16_22h14.21.983,HW_LDT_1,2024.2.4,MacIntel,63.69426752,,,,,,,,,,,,,,,,,,,,206.9075,207.1058,207.1058,207.6058,,,,,,,,,,,,,,3.0393,1,,,,,,,,,,,,,,z,,,,,,,,,,,,,,,,17,0,207.6063,210.6556,z,1,3.0393,,[],[],[],[],[],[],[],210.6556,212.6553,212.6553,212.6555,[],[],[],[],[],[],[],,212.6556,212.6557,0.071234868,-0.385435086,0,0,0,,0,16,16,52,1,1,TL,decilate,cursive,decilate_c.png,,,,,
,,,,31788,001,2025-10-16_22h14.21.983,HW_LDT_1,2024.2.4,MacIntel,63.69426752,,,,,,,,,,,,,,,,,,,,212.6568,212.8554,212.8554,213.3546,,,,,,,,,,,,,,1.1956,1,,,,,,,,,,,,,,z,,,,,,,,,,,,,,,,18,0,213.3551,214.5547,z,1,1.1956,,[],[],[],[],[],[],[],214.555,216.5551,216.5552,216.5554,[],[],[],[],[],[],[],,216.5555,216.5556,0.071234868,-0.385435086,0,0,0,,0,17,17,32,1,1,RL,rebicent,print,rebicent_p.png,,,,,
,,,,31788,001,2025-10-16_22h14.21.983,HW_LDT_1,2024.2.4,MacIntel,63.69426752,,,,,,,,,,,,,,,,,,,,216.5566,216.7552,216.7553,217.2552,,,,,,,,,,,,,,5.296,1,,,,,,,,,,,,,,z,,,,,,,,,,,,,,,,19,0,217.2557,222.555,z,1,5.296,,[],[],[],[],[],[],[],222.5552,224.5549,224.555,224.5552,[],[],[],[],[],[],[],,224.5552,224.5554,0.071234868,-0.385435086,0,0,0,,0,18,18,65,1,1,TL,orinigal,cursive,orinigal_c.png,,,,,
,,,,31788,001,2025-10-16_22h14.21.983,HW_LDT_1,2024.2.4,MacIntel,63.69426752,,,,,,,,,,,,,,,,,,,,224.5567,224.7549,224.7549,225.2549,,,,,,,,,,,,,,3.387,1,,,,,,,,,,,,,,z,,,,,,,,,,,,,,,,20,0,225.2555,228.6549,z,1,3.387,,[],[],[],[],[],[],[],228.6551,230.6546,230.6547,230.6549,[],[],[],[],[],[],[],,230.6549,230.655,0.071234868,-0.385435086,0,0,0,,0,19,19,45,1,1,TL,cacapity,print,cacapity_p.png,,,,,
,,,,31788,001,2025-10-16_22h14.21.983,HW_LDT_1,2024.2.4,MacIntel,63.69426752,,,,,,,,,,,,,,,,,,,,230.6568,230.8547,230.8548,231.3539,,,,,,,,,,,,,,3.5634,0,,,,,,,,,,,,,,m,,,,,,,,,,,,,,,,21,0,231.3546,234.9212,z,0,3.5634,,[],[],[],[],[],[],[],234.9213,236.9208,236.9208,236.921,[],[],[],[],[],[],[],,236.9211,236.9211,0.071234868,-0.385435086,0,0,0,,0,20,20,140,1,1,word,RELATIVE,cursive,relative_c.png,,,,,
,,,,31788,001,2025-10-16_22h14.21.983,HW_LDT_1,2024.2.4,MacIntel,63.69426752,,,,,,,,,,,,,,,,,,,,236.9224,237.121,237.1211,237.621,,,,,,,,,,,,,,1.9952,1,,,,,,,,,,,,,,m,,,,,,,,,,,,,,,,22,0,237.6215,239.6211,m,1,1.9952,,[],[],[],[],[],[],[],239.6211,241.6209,241.621,241.6212,[],[],[],[],[],[],[],,241.6212,241.6213,0.071234868,-0.385435086,0,0,0,,0,21,21,80,1,1,word,ACADEMY,cursive,academy_c.png,,,,,
,,,,31788,001,2025-10-16_22h14.21.983,HW_LDT_1,2024.2.4,MacIntel,63.69426752,,,,,,,,,,,,,,,,,,,,241.6222,241.8209,241.8209,242.3208,,,,,,,,,,,,,,1.4981,1,,,,,,,,,,,,,,z,,,,,,,,,,,,,,,,23,0,242.3213,243.8208,z,1,1.4981,,[],[],[],[],[],[],[],243.8209,245.8207,245.8207,245.8209,[],[],[],[],[],[],[],,245.821,245.821,0.071234868,-0.385435086,0,0,0,,0,22,22,19,1,1,RL,monebate,print,monebate_p.png,,,,,
,,,,31788,001,2025-10-16_22h14.21.983,HW_LDT_1,2024.2.4,MacIntel,63.69426752,,,,,,,,,,,,,,,,,,,,245.822,246.0202,246.0202,246.5207,,,,,,,,,,,,,,1.0962,1,,,,,,,,,,,,,,m,,,,,,,,,,,,,,,,24,0,246.5211,247.6207,m,1,1.0962,,[],[],[],[],[],[],[],247.6208,249.6205,249.6206,249.6207,[],[],[],[],[],[],[],,249.6208,249.6208,0.071234868,-0.385435086,0,0,0,,0,23,23,124,1,1,word,NUMERICAL,print,numerical_p.png,,,,,
,,,,31788,001,2025-10-16_22h14.21.983,HW_LDT_1,2024.2.4,MacIntel,63.69426752,,,,,,,,,,,,,,,,,,,,249.6219,249.8195,249.8196,250.3205,,,,,,,,,,,,,,3.2924,1,,,,,,,,,,,,,,m,,,,,,,,,,,,,,,,25,0,250.321,253.6206,m,1,3.2924,,[],[],[],[],[],[],[],253.6207,255.6202,255.6203,255.6205,[],[],[],[],[],[],[],,255.6206,255.6206,0.071234868,-0.385435086,0,0,0,,0,24,24,151,1,1,word,SPECIFIC,cursive,specific_c.png,,,,,
,,,,31788,001,2025-10-16_22h14.21.983,HW_LDT_1,2024.2.4,MacIntel,63.69426752,,,,,,,,,,,,,,,,,,,,255.6218,255.8195,255.8196,256.3202,,,,,,,,,,,,,,2.1806,0,,,,,,,,,,,,,,m,,,,,,,,,,,,,,,,26,0,256.3208,258.5035,z,0,2.1806,,[],[],[],[],[],[],[],258.5036,260.5034,260.5035,260.5037,[],[],[],[],[],[],[],,260.5038,260.5038,0.071234868,-0.385435086,0,0,0,,0,25,25,149,1,1,word,SENATOR,cursive,senator_c.png,,,,,
,,,,31788,001,2025-10-16_22h14.21.983,HW_LDT_1,2024.2.4,MacIntel,63.69426752,,,,,,,,,,,,,,,,,,,,260.5048,260.7035,260.7035,261.2026,,,,,,,,,,,,,,0.8812,1,,,,,,,,,,,,,,z,,,,,,,,,,,,,,,,27,0,261.203,262.0867,z,1,0.8812,,[],[],[],[],[],[],[],262.0869,264.0864,264.0865,264.0867,[],[],[],[],[],[],[],,264.0868,264.0868,0.071234868,-0.385435086,0,0,0,,0,26,26,18,1,1,RL,mishafe,print,mishafe_p.png,,,,,
,,,,31788,001,2025-10-16_22h14.21.983,HW_LDT_1,2024.2.4,MacIntel,63.69426752,,,,,,,,,,,,,,,,,,,,264.0879,264.2859,264.2859,264.7859,,,,,,,,,,,,,,2.4088,1,,,,,,,,,,,,,,z,,,,,,,,,,,,,,,,28,0,264.7864,267.2026,z,1,2.4088,,[],[],[],[],[],[],[],267.2027,269.2031,269.2031,269.2032,[],[],[],[],[],[],[],,269.2032,269.2033,0.071234868,-0.385435086,0,0,0,,0,27,27,11,1,1,RL,elacodate,print,elacodate_p.png,,,,,
,,,,31788,001,2025-10-16_22h14.21.983,HW_LDT_1,2024.2.4,MacIntel,63.69426752,,,,,,,,,,,,,,,,,,,,269.2043,269.4032,269.4032,269.9025,,,,,,,,,,,,,,1.4895,1,,,,,,,,,,,,,,z,,,,,,,,,,,,,,,,29,0,269.903,271.403,z,1,1.4895,,[],[],[],[],[],[],[],271.4031,273.4029,273.4029,273.4031,[],[],[],[],[],[],[],,273.4032,273.4032,0.071234868,-0.385435086,0,0,0,,0,28,28,47,1,1,TL,cagetory,print,cagetory_p.png,,,,,
,,,,31788,001,2025-10-16_22h14.21.983,HW_LDT_1,2024.2.4,MacIntel,63.69426752,,,,,,,,,,,,,,,,,,,,273.4043,273.6027,273.6028,274.1026,,,,,,,,,,,,,,0.8562,1,,,,,,,,,,,,,,m,,,,,,,,,,,,,,,,30,0,274.1031,274.9696,m,1,0.8562,,[],[],[],[],[],[],[],274.9698,276.9695,276.9695,276.9697,[],[],[],[],[],[],[],,276.9697,276.9698,0.071234868,-0.385435086,0,0,0,,0,29,29,116,1,1,word,MARGINAL,print,marginal_p.png,,,,,
,,,,31788,001,2025-10-16_22h14.21.983,HW_LDT_1,2024.2.4,MacIntel,63.69426752,,,,,,,,,,,,,,,,,,,,276.9708,277.1694,277.1695,277.6694,,,,,,,,,,,,,,1.1251,1,,,,,,,,,,,,,,m,,,,,,,,,,,,,,,,31,1,277.67,278.8026,m,1,1.1251,,[],[],[],[],[],[],[],278.8028,280.8026,280.8027,282.4193,[],[],[],[],[],[],[],z,282.4194,282.4195,0.071234868,-0.385435086,0,0,0,,0,30,30,81,1,1,word,ADVISORY,cursive,advisory_c.png,1.6064,,,,
,,,,31788,001,2025-10-16_22h14.21.983,HW_LDT_1,2024.2.4,MacIntel,63.69426752,,,,,,,,,,,,,,,,,,,,282.4208,282.6192,282.6192,283.1191,,,,,,,,,,,,,,3.237,1,,,,,,,,,,,,,,m,,,,,,,,,,,,,,,,32,0,283.1196,286.3691,m,1,3.237,,[],[],[],[],[],[],[],286.3692,288.369,288.369,288.3691,[],[],[],[],[],[],[],,288.3692,288.3693,0.071234868,-0.385435086,0,0,0,,0,31,31,88,1,1,word,CAMERA,cursive,camera_c.png,,,,,
,,,,31788,001,2025-10-16_22h14.21.983,HW_LDT_1,2024.2.4,MacIntel,63.69426752,,,,,,,,,,,,,,,,,,,,288.3705,288.569,288.5691,289.0689,,,,,,,,,,,,,,5.7821,1,,,,,,,,,,,,,,z,,,,,,,,,,,,,,,,33,0,289.0694,294.8526,z,1,5.7821,,[],[],[],[],[],[],[],294.8526,296.8521,296.8522,296.8523,[],[],[],[],[],[],[],,296.8523,296.8523,0.071234868,-0.385435086,0,0,0,,0,32,32,68,1,1,TL,prosopal,cursive,prosopal_c.png,,,,,
,,,,31788,001,2025-10-16_22h14.21.983,HW_LDT_1,2024.2.4,MacIntel,63.69426752,,,,,,,,,,,,,,,,,,,,296.8533,297.0521,297.0521,297.552,,,,,,,,,,,,,,2.404,0,,,,,,,,,,,,,,m,,,,,,,,,,,,,,,,34,1,297.5525,299.9678,z,0,2.404,,[],[],[],[],[],[],[],299.9679,301.9684,301.9685,303.2518,[],[],[],[],[],[],[],z,303.2519,303.252,0.071234868,-0.385435086,0,0,0,,0,33,33,105,1,1,word,EDITOR,cursive,editor_c.png,1.2729,,,,
,,,,31788,001,2025-10-16_22h14.21.983,HW_LDT_1,2024.2.4,MacIntel,63.69426752,,,,,,,,,,,,,,,,,,,,303.2531,303.4517,303.4517,303.9518,,,,,,,,,,,,,,1.2202,1,,,,,,,,,,,,,,z,,,,,,,,,,,,,,,,35,0,303.9523,305.1851,z,1,1.2202,,[],[],[],[],[],[],[],305.1851,307.1842,307.1843,307.1844,[],[],[],[],[],[],[],,307.1844,307.1845,0.071234868,-0.385435086,0,0,0,,0,34,34,62,1,1,TL,mitilary,print,mitilary_p.png,,,,,
,,,,31788,001,2025-10-16_22h14.21.983,HW_LDT_1,2024.2.4,MacIntel,63.69426752,,,,,,,,,,,,,,,,,,,,307.1856,307.3845,307.3845,307.8849,,,,,,,,,,,,,,1.0565,1,,,,,,,,,,,,,,m,,,,,,,,,,,,,,,,36,0,307.8854,308.9515,m,1,1.0565,,[],[],[],[],[],[],[],308.9516,310.9515,310.9516,310.9518,[],[],[],[],[],[],[],,310.9518,310.9519,0.071234868,-0.385435086,0,0,0,,0,35,35,123,1,1,word,MODERATE,print,moderate_p.png,,,,,
,,,,31788,001,2025-10-16_22h14.21.983,HW_LDT_1,2024.2.4,MacIntel,63.69426752,,,,,,,,,,,,,,,,,,,,310.9531,311.1516,311.1516,311.6521,,,,,,,,,,,,,,3.1716,1,,,,,,,,,,,,,,z,,,,,,,,,,,,,,,,37,1,311.6536,314.8354,z,1,3.1716,,[],[],[],[],[],[],[],314.8357,316.8345,316.8346,317.9346,[],[],[],[],[],[],[],z,317.9347,317.9349,0.071234868,-0.385435086,0,0,0,,0,36,36,57,1,1,TL,hetirage,cursive,hetirage_c.png,1.0879,,,,
,,,,31788,001,2025-10-16_22h14.21.983,HW_LDT_1,2024.2.4,MacIntel,63.69426752,,,,,,,,,,,,,,,,,,,,317.9385,318.1345,318.1346,318.6344,,,,,,,,,,,,,,2.0647,1,,,,,,,,,,,,,,z,,,,,,,,,,,,,,,,38,0,318.6353,320.7011,z,1,2.0647,,[],[],[],[],[],[],[],320.7012,322.7011,322.7012,322.7014,[],[],[],[],[],[],[],,322.7014,322.7015,0.071234868,-0.385435086,0,0,0,,0,37,37,22,1,1,RL,patisic,print,patisic_p.png,,,,,
,,,,31788,001,2025-10-16_22h14.21.983,HW_LDT_1,2024.2.4,MacIntel,63.69426752,,,,,,,,,,,,,,,,,,,,322.7024,322.9008,322.9009,323.401,,,,,,,,,,,,,,1.1074,1,,,,,,,,,,,,,,z,,,,,,,,,,,,,,,,39,0,323.4017,324.5177,z,1,1.1074,,[],[],[],[],[],[],[],324.5177,326.5173,326.5175,326.5176,[],[],[],[],[],[],[],,326.5177,326.5177,0.071234868,-0.385435086,0,0,0,,0,38,38,79,1,1,TL,veretan,print,veretan_p.png,,,,,
,,,,31788,001,2025-10-16_22h14.21.983,HW_LDT_1,2024.2.4,MacIntel,63.69426752,,,,,,,,,,,,,,,,,,,,326.5187,326.7176,326.7176,327.2175,,,,,,,,,,,,,,1.7489,0,,,,,,,,,,,,,,m,,,,,,,,,,,,,,,,40,0,327.218,328.9674,z,0,1.7489,,[],[],[],[],[],[],[],328.9676,330.9669,330.9669,330.9671,[],[],[],[],[],[],[],,330.9671,330.9674,0.071234868,-0.385435086,0,0,0,,0,39,39,101,1,1,word,DELICATE,cursive,delicate_c.png,,,,,
,,,,31788,001,2025-10-16_22h14.21.983,HW_LDT_1,2024.2.4,MacIntel,63.69426752,,,,,,,,,,,,,,,,,,,,330.9685,331.1673,331.1675,331.6673,,,,,,,,,,,,,,1.2871,1,,,,,,,,,,,,,,z,,,,,,,,,,,,,,,,41,0,331.6679,332.9673,z,1,1.2871,,[],[],[],[],[],[],[],332.9674,334.9672,334.9674,334.9676,[],[],[],[],[],[],[],,334.9676,334.9677,0.071234868,-0.385435086,0,0,0,,0,40,40,70,1,1,TL,relugar,print,relugar_p.png,,,,,
,,,,31788,001,2025-10-16_22h14.21.983,HW_LDT_1,2024.2.4,MacIntel,63.69426752,,,,,,,,,,,,,,,,,,,,334.9684,335.1671,335.1671,335.6672,,,,,,,,,,,,,,0.9928,1,,,,,,,,,,,,,,z,,,,,,,,,,,,,,,,42,0,335.6677,336.6672,z,1,0.9928,,[],[],[],[],[],[],[],336.6673,338.6673,338.6673,338.6675,[],[],[],[],[],[],[],,338.6675,338.6675,0.071234868,-0.385435086,0,0,0,,0,41,41,27,1,1,RL,rasibal,print,rasibal_p.png,,,,,
,,,,31788,001,2025-10-16_22h14.21.983,HW_LDT_1,2024.2.4,MacIntel,63.69426752,,,,,,,,,,,,,,,,,,,,338.6689,338.867,338.8671,339.367,,,,,,,,,,,,,,1.1199,1,,,,,,,,,,,,,,m,,,,,,,,,,,,,,,,43,0,339.3676,340.5004,m,1,1.1199,,[],[],[],[],[],[],[],340.5005,342.5001,342.5002,342.5003,[],[],[],[],[],[],[],,342.5004,342.5005,0.071234868,-0.385435086,0,0,0,,0,42,42,154,1,1,word,STORAGE,cursive,storage_c.png,,,,,
,,,,31788,001,2025-10-16_22h14.21.983,HW_LDT_1,2024.2.4,MacIntel,63.69426752,,,,,,,,,,,,,,,,,,,,342.5014,342.7004,342.7004,343.2002,,,,,,,,,,,,,,1.5724,1,,,,,,,,,,,,,,z,,,,,,,,,,,,,,,,44,0,343.2008,344.7836,z,1,1.5724,,[],[],[],[],[],[],[],344.7837,346.7826,346.7828,346.7829,[],[],[],[],[],[],[],,346.783,346.7831,0.071234868,-0.385435086,0,0,0,,0,43,43,15,1,1,RL,losipal,cursive,losipal_c.png,,,,,
,,,,31788,001,2025-10-16_22h14.21.983,HW_LDT_1,2024.2.4,MacIntel,63.69426752,,,,,,,,,,,,,,,,,,,,346.7842,346.9827,346.9827,347.4826,,,,,,,,,,,,,,2.9871,1,,,,,,,,,,,,,,z,,,,,,,,,,,,,,,,45,0,347.483,350.4833,z,1,2.9871,,[],[],[],[],[],[],[],350.4833,352.4831,352.4831,352.4833,[],[],[],[],[],[],[],,352.4833,352.4835,0.071234868,-0.385435086,0,0,0,,0,44,44,74,1,1,TL,setanor,cursive,setanor_c.png,,,,,
,,,,31788,001,2025-10-16_22h14.21.983,HW_LDT_1,2024.2.4,MacIntel,63.69426752,,,,,,,,,,,,,,,,,,,,352.4844,352.683,352.6831,353.1831,,,,,,,,,,,,,,0.8416,1,,,,,,,,,,,,,,m,,,,,,,,,,,,,,,,46,0,353.1836,354.0331,m,1,0.8416,,[],[],[],[],[],[],[],354.0332,356.0329,356.0331,356.0332,[],[],[],[],[],[],[],,356.0332,356.0334,0.071234868,-0.385435086,0,0,0,,0,45,45,114,1,1,word,LOCATE,print,locate_p.png,,,,,
,,,,31788,001,2025-10-16_22h14.21.983,HW_LDT_1,2024.2.4,MacIntel,63.69426752,,,,,,,,,,,,,,,,,,,,356.0345,356.2327,356.2328,356.7324,,,,,,,,,,,,,,1.3455,1,,,,,,,,,,,,,,m,,,,,,,,,,,,,,,,47,0,356.7329,358.083,m,1,1.3455,,[],[],[],[],[],[],[],358.0831,360.0825,360.0825,360.0826,[],[],[],[],[],[],[],,360.0828,360.0828,0.071234868,-0.385435086,0,0,0,,0,46,46,129,1,1,word,PARENT,cursive,parent_c.png,,,,,
,,,,31788,001,2025-10-16_22h14.21.983,HW_LDT_1,2024.2.4,MacIntel,63.69426752,,,,,,,,,,,,,,,,,,,,360.084,360.2825,360.2826,360.7827,,,,,,,,,,,,,,1.3617,1,,,,,,,,,,,,,,z,,,,,,,,,,,,,,,,48,0,360.7833,362.1495,z,1,1.3617,,[],[],[],[],[],[],[],362.1495,364.1494,364.1494,364.1496,[],[],[],[],[],[],[],,364.1497,364.1497,0.071234868,-0.385435086,0,0,0,,0,47,47,31,1,1,RL,reconal,cursive,reconal_c.png,,,,,
,,,,31788,001,2025-10-16_22h14.21.983,HW_LDT_1,2024.2.4,MacIntel,63.69426752,,,,,,,,,,,,,,,,,,,,364.1505,364.3493,364.3494,364.8493,,,,,,,,,,,,,,0.8721,1,,,,,,,,,,,,,,z,,,,,,,,,,,,,,,,49,0,364.8499,365.7328,z,1,0.8721,,[],[],[],[],[],[],[],365.7328,367.7325,367.7326,367.7327,[],[],[],[],[],[],[],,367.7328,367.7329,0.071234868,-0.385435086,0,0,0,,0,48,48,43,1,1,TL,bedise,print,bedise_p.png,,,,,
,,,,31788,001,2025-10-16_22h14.21.983,HW_LDT_1,2024.2.4,MacIntel,63.69426752,,,,,,,,,,,,,,,,,,,,367.7338,367.9322,367.9324,368.4325,,,,,,,,,,,,,,2.7369,1,,,,,,,,,,,,,,z,,,,,,,,,,,,,,,,50,0,368.4331,371.1826,z,1,2.7369,,[],[],[],[],[],[],[],371.1827,373.1822,373.1824,373.1825,[],[],[],[],[],[],[],,373.1825,373.1826,0.071234868,-0.385435086,0,0,0,,0,49,49,58,1,1,TL,incidate,cursive,incidate_c.png,,,,,
,,,,31788,001,2025-10-16_22h14.21.983,HW_LDT_1,2024.2.4,MacIntel,63.69426752,,,,,,,,,,,,,,,,,,,,373.1836,373.3823,373.3823,373.8822,,,,,,,,,,,,,,0.9096,1,,,,,,,,,,,,,,m,,,,,,,,,,,,,,,,51,0,373.8827,374.7989,m,1,0.9096,,[],[],[],[],[],[],[],374.7991,376.7988,376.7989,376.799,[],[],[],[],[],[],[],,376.799,376.7992,0.071234868,-0.385435086,0,0,0,,0,50,50,157,1,1,word,VALIDITY,cursive,validity_c.png,,,,,
,,,,31788,001,2025-10-16_22h14.21.983,HW_LDT_1,2024.2.4,MacIntel,63.69426752,,,,,,,,,,,,,,,,,,,,376.7999,376.998,376.998,377.4987,,,,,,,,,,,,,,0.738,1,,,,,,,,,,,,,,m,,,,,,,,,,,,,,,,52,0,377.4992,378.2488,m,1,0.738,,[],[],[],[],[],[],[],378.249,380.2486,380.2487,380.2488,[],[],[],[],[],[],[],,380.2489,380.249,0.071234868,-0.385435086,0,0,0,,0,51,51,94,1,1,word,CLINICAL,cursive,clinical_c.png,,,,,
,,,,31788,001,2025-10-16_22h14.21.983,HW_LDT_1,2024.2.4,MacIntel,63.69426752,,,,,,,,,,,,,,,,,,,,380.2502,380.4478,380.448,380.948,,,,,,,,,,,,,,0.8784,1,,,,,,,,,,,,,,m,,,,,,,,,,,,,,,,53,0,380.9486,381.8314,m,1,0.8784,,[],[],[],[],[],[],[],381.8315,383.8318,383.8319,383.832,[],[],[],[],[],[],[],,383.8321,383.8322,0.071234868,-0.385435086,0,0,0,,0,52,52,131,1,1,word,POPULAR,cursive,popular_c.png,,,,,
,,,,31788,001,2025-10-16_22h14.21.983,HW_LDT_1,2024.2.4,MacIntel,63.69426752,,,,,,,,,,,,,,,,,,,,383.8333,384.0318,384.0319,384.5318,,,,,,,,,,,,,,1.5383,1,,,,,,,,,,,,,,z,,,,,,,,,,,,,,,,54,0,384.5322,386.0813,z,1,1.5383,,[],[],[],[],[],[],[],386.0815,388.0815,388.0816,388.0817,[],[],[],[],[],[],[],,388.0818,388.0818,0.071234868,-0.385435086,0,0,0,,0,53,53,67,1,1,TL,pocily,cursive,pocily_c.png,,,,,
,,,,31788,001,2025-10-16_22h14.21.983,HW_LDT_1,2024.2.4,MacIntel,63.69426752,,,,,,,,,,,,,,,,,,,,388.0826,388.2817,388.2817,388.7813,,,,,,,,,,,,,,0.6218,0,,,,,,,,,,,,,,z,,,,,,,,,,,,,,,,55,0,388.7817,389.4148,m,0,0.6218,,[],[],[],[],[],[],[],389.415,391.4149,391.4149,391.4151,[],[],[],[],[],[],[],,391.4151,391.4152,0.071234868,-0.385435086,0,0,0,,0,54,54,66,1,1,TL,panert,cursive,panert_c.png,,,,,
,,,,31788,001,2025-10-16_22h14.21.983,HW_LDT_1,2024.2.4,MacIntel,63.69426752,,,,,,,,,,,,,,,,,,,,391.4159,391.6149,391.615,392.1149,,,,,,,,,,,,,,3.513,1,,,,,,,,,,,,,,z,,,,,,,,,,,,,,,,56,0,392.1153,395.6314,z,1,3.513,,[],[],[],[],[],[],[],395.6315,397.6313,397.6314,397.6316,[],[],[],[],[],[],[],,397.6319,397.6321,0.071234868,-0.385435086,0,0,0,,0,55,55,69,1,1,TL,radiply,cursive,radiply_c.png,,,,,
,,,,31788,001,2025-10-16_22h14.21.983,HW_LDT_1,2024.2.4,MacIntel,63.69426752,,,,,,,,,,,,,,,,,,,,397.6333,397.8307,397.8308,398.3314,,,,,,,,,,,,,,1.5371,1,,,,,,,,,,,,,,z,,,,,,,,,,,,,,,,57,0,398.3319,399.8811,z,1,1.5371,,[],[],[],[],[],[],[],399.8812,401.881,401.8811,401.8813,[],[],[],[],[],[],[],,401.8814,401.8816,0.071234868,-0.385435086,0,0,0,,0,56,56,5,1,1,RL,cobeny,cursive,cobeny_c.png,,,,,
,,,,31788,001,2025-10-16_22h14.21.983,HW_LDT_1,2024.2.4,MacIntel,63.69426752,,,,,,,,,,,,,,,,,,,,401.8824,402.081,402.081,402.5811,,,,,,,,,,,,,,0.6883,1,,,,,,,,,,,,,,z,,,,,,,,,,,,,,,,58,1,402.5818,403.2812,z,1,0.6883,,[],[],[],[],[],[],[],403.2813,405.2809,405.281,406.5309,[],[],[],[],[],[],[],m,406.531,406.5312,0.071234868,-0.385435086,0,0,0,,0,57,57,14,1,1,RL,lofase,print,lofase_p.png,1.2395,,,,
,,,,31788,001,2025-10-16_22h14.21.983,HW_LDT_1,2024.2.4,MacIntel,63.69426752,,,,,,,,,,,,,,,,,,,,406.5323,406.7309,406.7309,407.2307,,,,,,,,,,,,,,1.24,1,,,,,,,,,,,,,,z,,,,,,,,,,,,,,,,59,0,407.231,408.4809,z,1,1.24,,[],[],[],[],[],[],[],408.481,410.4807,410.4808,410.4809,[],[],[],[],[],[],[],,410.4811,410.4812,0.071234868,-0.385435086,0,0,0,,0,58,58,2,1,1,RL,asiral,print,asiral_p.png,,,,,
,,,,31788,001,2025-10-16_22h14.21.983,HW_LDT_1,2024.2.4,MacIntel,63.69426752,,,,,,,,,,,,,,,,,,,,410.4824,410.6808,410.6808,411.1807,,,,,,,,,,,,,,0.7223,1,,,,,,,,,,,,,,z,,,,,,,,,,,,,,,,60,1,411.1814,411.914,z,1,0.7223,,[],[],[],[],[],[],[],411.9141,413.9132,413.9132,415.1807,[],[],[],[],[],[],[],m,415.1807,415.1808,0.071234868,-0.385435086,0,0,0,,0,59,59,30,1,1,RL,relone,print,relone_p.png,1.2575,,,,
,,,,31788,001,2025-10-16_22h14.21.983,HW_LDT_1,2024.2.4,MacIntel,63.69426752,,,,,,,,,,,,,,,,,,,,415.1823,415.3804,415.3804,415.8804,,,,,,,,,,,,,,0.8958,1,,,,,,,,,,,,,,m,,,,,,,,,,,,,,,,61,1,415.8811,416.7807,m,1,0.8958,,[],[],[],[],[],[],[],416.7807,418.7802,418.7803,421.497,[],[],[],[],[],[],[],m,421.4971,421.4972,0.071234868,-0.385435086,0,0,0,,0,60,60,86,1,1,word,BESIDE,print,beside_p.png,2.7083,,,,
,,,,31788,001,2025-10-16_22h14.21.983,HW_LDT_1,2024.2.4,MacIntel,63.69426752,,,,,,,,,,,,,,,,,,,,421.4986,421.6969,421.697,422.197,,,,,,,,,,,,,,1.5476,1,,,,,,,,,,,,,,m,,,,,,,,,,,,,,,,62,0,422.1975,423.7471,m,1,1.5476,,[],[],[],[],[],[],[],423.7472,425.7468,425.7468,425.7469,[],[],[],[],[],[],[],,425.747,425.7472,0.071234868,-0.385435086,0,0,0,,0,61,61,115,1,1,word,LOGICAL,cursive,logical_c.png,,,,,
,,,,31788,001,2025-10-16_22h14.21.983,HW_LDT_1,2024.2.4,MacIntel,63.69426752,,,,,,,,,,,,,,,,,,,,425.7485,425.9467,425.9468,426.4467,,,,,,,,,,,,,,0.8399,1,,,,,,,,,,,,,,z,,,,,,,,,,,,,,,,63,0,426.4473,427.2968,z,1,0.8399,,[],[],[],[],[],[],[],427.2968,429.2966,429.2967,429.2968,[],[],[],[],[],[],[],,429.2969,429.297,0.071234868,-0.385435086,0,0,0,,0,62,62,8,1,1,RL,debave,print,debave_p.png,,,,,
,,,,31788,001,2025-10-16_22h14.21.983,HW_LDT_1,2024.2.4,MacIntel,63.69426752,,,,,,,,,,,,,,,,,,,,429.2985,429.4966,429.4967,429.9957,,,,,,,,,,,,,,0.7796,1,,,,,,,,,,,,,,z,,,,,,,,,,,,,,,,64,0,429.9963,430.78,z,1,0.7796,,[],[],[],[],[],[],[],430.78,432.7804,432.7804,432.7806,[],[],[],[],[],[],[],,432.7807,432.7807,0.071234868,-0.385435086,0,0,0,,0,63,63,63,1,1,TL,molibe,cursive,molibe_c.png,,,,,
,,,,31788,001,2025-10-16_22h14.21.983,HW_LDT_1,2024.2.4,MacIntel,63.69426752,,,,,,,,,,,,,,,,,,,,432.7825,432.9802,432.9803,433.4796,,,,,,,,,,,,,,0.657,1,,,,,,,,,,,,,,m,,,,,,,,,,,,,,,,65,0,433.4801,434.1465,m,1,0.657,,[],[],[],[],[],[],[],434.1465,436.1464,436.1464,436.1465,[],[],[],[],[],[],[],,436.1466,436.1467,0.071234868,-0.385435086,0,0,0,,0,64,64,144,1,1,word,RESIDENT,print,resident_p.png,,,,,
,,,,31788,001,2025-10-16_22h14.21.983,HW_LDT_1,2024.2.4,MacIntel,63.69426752,,,,,,,,,,,,,,,,,,,,436.1479,436.3462,436.3462,436.8463,,,,,,,,,,,,,,1.2739,1,,,,,,,,,,,,,,m,,,,,,,,,,,,,,,,66,0,436.8469,438.13,m,1,1.2739,,[],[],[],[],[],[],[],438.1301,440.1295,440.1295,440.1297,[],[],[],[],[],[],[],,440.1297,440.1299,0.071234868,-0.385435086,0,0,0,,0,65,65,104,1,1,word,DOMINANT,cursive,dominant_c.png,,,,,
,,,,31788,001,2025-10-16_22h14.21.983,HW_LDT_1,2024.2.4,MacIntel,63.69426752,,,,,,,,,,,,,,,,,,,,440.131,440.3287,440.3287,440.8295,,,,,,,,,,,,,,1.2231,0,,,,,,,,,,,,,,z,,,,,,,,,,,,,,,,67,0,440.8301,442.0629,m,0,1.2231,,[],[],[],[],[],[],[],442.0629,444.0626,444.0626,444.0627,[],[],[],[],[],[],[],,444.0629,444.0629,0.071234868,-0.385435086,0,0,0,,0,66,66,49,1,1,TL,clicinal,cursive,clicinal_c.png,,,,,
,,,,31788,001,2025-10-16_22h14.21.983,HW_LDT_1,2024.2.4,MacIntel,63.69426752,,,,,,,,,,,,,,,,,,,,444.0641,444.2627,444.2627,444.7627,,,,,,,,,,,,,,0.6434,1,,,,,,,,,,,,,,m,,,,,,,,,,,,,,,,68,0,444.7632,445.4118,m,1,0.6434,,[],[],[],[],[],[],[],445.4119,447.4125,447.4125,447.4128,[],[],[],[],[],[],[],,447.4128,447.4128,0.071234868,-0.385435086,0,0,0,,0,67,67,97,1,1,word,COVERAGE,print,coverage_p.png,,,,,
,,,,31788,001,2025-10-16_22h14.21.983,HW_LDT_1,2024.2.4,MacIntel,63.69426752,,,,,,,,,,,,,,,,,,,,447.4139,447.6126,447.6126,448.1116,,,,,,,,,,,,,,0.6069,1,,,,,,,,,,,,,,m,,,,,,,,,,,,,,,,69,0,448.1121,448.7292,m,1,0.6069,,[],[],[],[],[],[],[],448.7293,450.729,450.729,450.7291,[],[],[],[],[],[],[],,450.7291,450.7292,0.071234868,-0.385435086,0,0,0,,0,68,68,82,1,1,word,AMATEUR,print,amateur_p.png,,,,,
,,,,31788,001,2025-10-16_22h14.21.983,HW_LDT_1,2024.2.4,MacIntel,63.69426752,,,,,,,,,,,,,,,,,,,,450.7302,450.9291,450.9292,451.4284,,,,,,,,,,,,,,1.4586,1,,,,,,,,,,,,,,z,,,,,,,,,,,,,,,,70,0,451.4289,452.8958,z,1,1.4586,,[],[],[],[],[],[],[],452.8958,454.895,454.895,454.8953,[],[],[],[],[],[],[],,454.8953,454.8954,0.071234868,-0.385435086,0,0,0,,0,69,69,73,1,1,TL,ronamtic,cursive,ronamtic_c.png,,,,,
,,,,31788,001,2025-10-16_22h14.21.983,HW_LDT_1,2024.2.4,MacIntel,63.69426752,,,,,,,,,,,,,,,,,,,,454.8964,455.0956,455.0956,455.5955,,,,,,,,,,,,,,0.8955,1,,,,,,,,,,,,,,z,,,,,,,,,,,,,,,,71,1,455.596,456.4956,z,1,0.8955,,[],[],[],[],[],[],[],456.4957,458.4954,458.4955,459.8622,[],[],[],[],[],[],[],z,459.8622,459.8624,0.071234868,-0.385435086,0,0,0,,0,70,70,46,1,1,TL,catipal,print,catipal_p.png,1.3573,,,,
,,,,31788,001,2025-10-16_22h14.21.983,HW_LDT_1,2024.2.4,MacIntel,63.69426752,,,,,,,,,,,,,,,,,,,,459.8637,460.0617,460.0618,460.5621,,,,,,,,,,,,,,2.0233,1,,,,,,,,,,,,,,m,,,,,,,,,,,,,,,,72,0,460.5627,462.5955,m,1,2.0233,,[],[],[],[],[],[],[],462.5955,464.5952,464.5952,464.5954,[],[],[],[],[],[],[],,464.5954,464.5955,0.071234868,-0.385435086,0,0,0,,0,71,71,120,1,1,word,MILITARY,print,military_p.png,,,,,
,,,,31788,001,2025-10-16_22h14.21.983,HW_LDT_1,2024.2.4,MacIntel,63.69426752,,,,,,,,,,,,,,,,,,,,464.5965,464.7951,464.7951,465.2952,,,,,,,,,,,,,,2.4432,1,,,,,,,,,,,,,,z,,,,,,,,,,,,,,,,73,0,465.2957,467.7452,z,1,2.4432,,[],[],[],[],[],[],[],467.7452,469.745,469.745,469.7452,[],[],[],[],[],[],[],,469.7452,469.7453,0.071234868,-0.385435086,0,0,0,,0,72,72,10,1,1,RL,efibor,cursive,efibor_c.png,,,,,
,,,,31788,001,2025-10-16_22h14.21.983,HW_LDT_1,2024.2.4,MacIntel,63.69426752,,,,,,,,,,,,,,,,,,,,469.7464,469.9445,469.9445,470.445,,,,,,,,,,,,,,1.0074,1,,,,,,,,,,,,,,z,,,,,,,,,,,,,,,,74,0,470.4455,471.4618,z,1,1.0074,,[],[],[],[],[],[],[],471.4619,473.4612,473.4613,473.4614,[],[],[],[],[],[],[],,473.4614,473.4614,0.071234868,-0.385435086,0,0,0,,0,73,73,21,1,1,RL,opcifal,print,opcifal_p.png,,,,,
,,,,31788,001,2025-10-16_22h14.21.983,HW_LDT_1,2024.2.4,MacIntel,63.69426752,,,,,,,,,,,,,,,,,,,,473.4621,473.6617,473.6618,474.1616,,,,,,,,,,,,,,2.0412,1,,,,,,,,,,,,,,z,,,,,,,,,,,,,,,,75,0,474.1623,476.2113,z,1,2.0412,,[],[],[],[],[],[],[],476.2115,478.2113,478.2115,478.2116,[],[],[],[],[],[],[],,478.2117,478.2117,0.071234868,-0.385435086,0,0,0,,0,74,74,64,1,1,TL,orepator,cursive,orepator_c.png,,,,,
,,,,31788,001,2025-10-16_22h14.21.983,HW_LDT_1,2024.2.4,MacIntel,63.69426752,,,,,,,,,,,,,,,,,,,,478.2128,478.4114,478.4115,478.9112,,,,,,,,,,,,,,1.7613,0,,,,,,,,,,,,,,m,,,,,,,,,,,,,,,,76,0,478.9117,480.6781,z,0,1.7613,,[],[],[],[],[],[],[],480.6782,482.6779,482.678,482.6782,[],[],[],[],[],[],[],,482.6782,482.6783,0.071234868,-0.385435086,0,0,0,,0,75,75,125,1,1,word,OPERATOR,cursive,operator_c.png,,,,,
,,,,31788,001,2025-10-16_22h14.21.983,HW_LDT_1,2024.2.4,MacIntel,63.69426752,,,,,,,,,,,,,,,,,,,,482.6794,482.8779,482.8779,483.3778,,,,,,,,,,,,,,1.647,0,,,,,,,,,,,,,,m,,,,,,,,,,,,,,,,77,0,483.3783,485.0278,z,0,1.647,,[],[],[],[],[],[],[],485.0279,487.0276,487.0276,487.0278,[],[],[],[],[],[],[],,487.0279,487.028,0.071234868,-0.385435086,0,0,0,,0,76,76,111,1,1,word,INDICATE,cursive,indicate_c.png,,,,,
,,,,31788,001,2025-10-16_22h14.21.983,HW_LDT_1,2024.2.4,MacIntel,63.69426752,,,,,,,,,,,,,,,,,,,,487.029,487.2278,487.2278,487.7276,,,,,,,,,,,,,,3.0635,1,,,,,,,,,,,,,,z,,,,,,,,,,,,,,,,78,0,487.7282,490.7943,z,1,3.0635,,[],[],[],[],[],[],[],490.7944,492.7942,492.7942,492.7943,[],[],[],[],[],[],[],,492.7944,492.7944,0.071234868,-0.385435086,0,0,0,,0,77,77,75,1,1,TL,speficic,cursive,speficic_c.png,,,,,
,,,,31788,001,2025-10-16_22h14.21.983,HW_LDT_1,2024.2.4,MacIntel,63.69426752,,,,,,,,,,,,,,,,,,,,492.7957,492.994,492.994,493.494,,,,,,,,,,,,,,2.1643,1,,,,,,,,,,,,,,z,,,,,,,,,,,,,,,,79,0,493.4947,495.6606,z,1,2.1643,,[],[],[],[],[],[],[],495.6608,497.6606,497.6606,497.6608,[],[],[],[],[],[],[],,497.6608,497.6609,0.071234868,-0.385435086,0,0,0,,0,78,78,54,1,1,TL,distupe,cursive,distupe_c.png,,,,,
,,,,31788,001,2025-10-16_22h14.21.983,HW_LDT_1,2024.2.4,MacIntel,63.69426752,,,,,,,,,,,,,,,,,,,,497.6621,497.8605,497.8606,498.3605,,,,,,,,,,,,,,2.1082,1,,,,,,,,,,,,,,m,,,,,,,,,,,,,,,,80,0,498.361,500.4766,m,1,2.1082,,[],[],[],[],[],[],[],500.4767,502.4762,502.4762,502.4764,[],[],[],[],[],[],[],,502.4764,574.2249,0.071234868,-0.385435086,1,0,0,,0,79,79,119,1,1,word,MEMORY,cursive,memory_c.png,,,break_done_button,,
,,,,31788,001,2025-10-16_22h14.21.983,HW_LDT_1,2024.2.4,MacIntel,63.69426752,,,,,,,,,,,,,,,,,,,,574.2269,574.4244,574.4244,574.9242,,,,,,,,,,,,,,1.3202,1,,,,,,,,,,,,,,m,,,,,,,,,,,,,,,,81,0,574.9251,576.2574,m,1,1.3202,,[],[],[],[],[],[],[],576.2575,578.2573,578.2574,578.2576,[],[],[],[],[],[],[],,578.2576,578.2577,0.071234868,-0.385435086,0,0,0,,0,80,80,91,1,1,word,CARDINAL,print,cardinal_p.png,,,,,
,,,,31788,001,2025-10-16_22h14.21.983,HW_LDT_1,2024.2.4,MacIntel,63.69426752,,,,,,,,,,,,,,,,,,,,578.2586,578.4574,578.4574,578.9574,,,,,,,,,,,,,,1.0205,1,,,,,,,,,,,,,,z,,,,,,,,,,,,,,,,82,1,578.9579,579.9907,z,1,1.0205,,[],[],[],[],[],[],[],579.9908,581.9906,581.9906,583.3901,[],[],[],[],[],[],[],m,583.3902,583.3903,0.071234868,-0.385435086,0,0,0,,0,81,81,34,1,1,RL,samite,print,samite_p.png,1.3868,,,,
,,,,31788,001,2025-10-16_22h14.21.983,HW_LDT_1,2024.2.4,MacIntel,63.69426752,,,,,,,,,,,,,,,,,,,,583.3913,583.5907,583.5907,584.0905,,,,,,,,,,,,,,1.5475,1,,,,,,,,,,,,,,m,,,,,,,,,,,,,,,,83,0,584.091,585.6405,m,1,1.5475,,[],[],[],[],[],[],[],585.6405,587.6394,587.6395,587.6396,[],[],[],[],[],[],[],,587.6397,587.6397,0.071234868,-0.385435086,0,0,0,,0,82,82,96,1,1,word,CONSIDER,cursive,consider_c.png,,,,,
,,,,31788,001,2025-10-16_22h14.21.983,HW_LDT_1,2024.2.4,MacIntel,63.69426752,,,,,,,,,,,,,,,,,,,,587.6408,587.8403,587.8404,588.3397,,,,,,,,,,,,,,0.7211,1,,,,,,,,,,,,,,m,,,,,,,,,,,,,,,,84,0,588.3402,589.0736,m,1,0.7211,,[],[],[],[],[],[],[],589.0737,591.0734,591.0736,591.0737,[],[],[],[],[],[],[],,591.0737,591.0738,0.071234868,-0.385435086,0,0,0,,0,83,83,95,1,1,word,COMEDY,cursive,comedy_c.png,,,,,
,,,,31788,001,2025-10-16_22h14.21.983,HW_LDT_1,2024.2.4,MacIntel,63.69426752,,,,,,,,,,,,,,,,,,,,591.0747,591.2735,591.2735,591.7735,,,,,,,,,,,,,,0.6539,1,,,,,,,,,,,,,,m,,,,,,,,,,,,,,,,85,0,591.774,592.4402,m,1,0.6539,,[],[],[],[],[],[],[],592.4403,594.4401,594.4401,594.4402,[],[],[],[],[],[],[],,594.4402,594.4404,0.071234868,-0.385435086,0,0,0,,0,84,84,138,1,1,word,REFUSAL,print,refusal_p.png,,,,,
,,,,31788,001,2025-10-16_22h14.21.983,HW_LDT_1,2024.2.4,MacIntel,63.69426752,,,,,,,,,,,,,,,,,,,,594.4414,594.64,594.64,595.14,,,,,,,,,,,,,,0.7815,1,,,,,,,,,,,,,,z,,,,,,,,,,,,,,,,86,0,595.1405,595.9233,z,1,0.7815,,[],[],[],[],[],[],[],595.9233,597.9232,597.9233,597.9234,[],[],[],[],[],[],[],,597.9235,597.9235,0.071234868,-0.385435086,0,0,0,,0,85,85,29,1,1,RL,refakive,cursive,refakive_c.png,,,,,
,,,,31788,001,2025-10-16_22h14.21.983,HW_LDT_1,2024.2.4,MacIntel,63.69426752,,,,,,,,,,,,,,,,,,,,597.9245,598.1232,598.1233,598.6232,,,,,,,,,,,,,,0.727,1,,,,,,,,,,,,,,m,,,,,,,,,,,,,,,,87,0,598.6238,599.3565,m,1,0.727,,[],[],[],[],[],[],[],599.3566,601.3565,601.3565,601.3566,[],[],[],[],[],[],[],,601.3567,601.3567,0.071234868,-0.385435086,0,0,0,,0,86,86,107,1,1,word,EVIDENT,print,evident_p.png,,,,,
,,,,31788,001,2025-10-16_22h14.21.983,HW_LDT_1,2024.2.4,MacIntel,63.69426752,,,,,,,,,,,,,,,,,,,,601.3578,601.5565,601.5565,602.0565,,,,,,,,,,,,,,0.5944,1,,,,,,,,,,,,,,m,,,,,,,,,,,,,,,,88,0,602.0569,602.6565,m,1,0.5944,,[],[],[],[],[],[],[],602.6566,604.6561,604.6562,604.6563,[],[],[],[],[],[],[],,604.6563,604.6564,0.071234868,-0.385435086,0,0,0,,0,87,87,85,1,1,word,BENEFIT,print,benefit_p.png,,,,,
,,,,31788,001,2025-10-16_22h14.21.983,HW_LDT_1,2024.2.4,MacIntel,63.69426752,,,,,,,,,,,,,,,,,,,,604.6575,604.8562,604.8563,605.3562,,,,,,,,,,,,,,0.6039,1,,,,,,,,,,,,,,m,,,,,,,,,,,,,,,,89,1,605.3568,605.973,m,1,0.6039,,[],[],[],[],[],[],[],605.9731,607.9729,607.9729,609.7886,[],[],[],[],[],[],[],m,609.7888,609.7889,0.071234868,-0.385435086,0,0,0,,0,88,88,153,1,1,word,STOLEN,print,stolen_p.png,1.8123,,,,
,,,,31788,001,2025-10-16_22h14.21.983,HW_LDT_1,2024.2.4,MacIntel,63.69426752,,,,,,,,,,,,,,,,,,,,609.79,609.9894,609.9895,610.4894,,,,,,,,,,,,,,3.6262,1,,,,,,,,,,,,,,z,,,,,,,,,,,,,,,,90,0,610.49,614.1216,z,1,3.6262,,[],[],[],[],[],[],[],614.1217,616.1227,616.1228,616.123,[],[],[],[],[],[],[],,616.123,616.1231,0.071234868,-0.385435086,0,0,0,,0,89,89,38,1,1,RL,stopave,cursive,stopave_c.png,,,,,
,,,,31788,001,2025-10-16_22h14.21.983,HW_LDT_1,2024.2.4,MacIntel,63.69426752,,,,,,,,,,,,,,,,,,,,616.1243,616.3223,616.3224,616.8215,,,,,,,,,,,,,,1.2805,1,,,,,,,,,,,,,,z,,,,,,,,,,,,,,,,91,0,616.8232,618.1053,z,1,1.2805,,[],[],[],[],[],[],[],618.1054,620.1061,620.1062,620.1065,[],[],[],[],[],[],[],,620.1066,620.1068,0.071234868,-0.385435086,0,0,0,,0,90,90,26,1,1,RL,quafidy,cursive,quafidy_c.png,,,,,
,,,,31788,001,2025-10-16_22h14.21.983,HW_LDT_1,2024.2.4,MacIntel,63.69426752,,,,,,,,,,,,,,,,,,,,620.1092,620.3057,620.3058,620.8057,,,,,,,,,,,,,,1.0043,1,,,,,,,,,,,,,,z,,,,,,,,,,,,,,,,92,0,620.8065,621.8216,z,1,1.0043,,[],[],[],[],[],[],[],621.8217,623.8224,623.8224,623.8225,[],[],[],[],[],[],[],,623.8226,623.8226,0.071234868,-0.385435086,0,0,0,,0,91,91,55,1,1,TL,fornute,print,fornute_p.png,,,,,
,,,,31788,001,2025-10-16_22h14.21.983,HW_LDT_1,2024.2.4,MacIntel,63.69426752,,,,,,,,,,,,,,,,,,,,623.8236,624.0214,624.0214,624.5223,,,,,,,,,,,,,,1.545,1,,,,,,,,,,,,,,z,,,,,,,,,,,,,,,,93,0,624.5229,626.0741,z,1,1.545,,[],[],[],[],[],[],[],626.0742,628.072,628.072,628.0723,[],[],[],[],[],[],[],,628.0724,628.0724,0.071234868,-0.385435086,0,0,0,,0,92,92,25,1,1,RL,quakity,cursive,quakity_c.png,,,,,
,,,,31788,001,2025-10-16_22h14.21.983,HW_LDT_1,2024.2.4,MacIntel,63.69426752,,,,,,,,,,,,,,,,,,,,628.0737,628.2721,628.2721,628.7715,,,,,,,,,,,,,,0.9225,1,,,,,,,,,,,,,,m,,,,,,,,,,,,,,,,94,1,628.7721,629.7053,m,1,0.9225,,[],[],[],[],[],[],[],629.7054,631.7046,631.7047,632.9052,[],[],[],[],[],[],[],m,632.9053,632.9054,0.071234868,-0.385435086,0,0,0,,0,93,93,142,1,1,word,REMOTE,print,remote_p.png,1.197,,,,
,,,,31788,001,2025-10-16_22h14.21.983,HW_LDT_1,2024.2.4,MacIntel,63.69426752,,,,,,,,,,,,,,,,,,,,632.9065,633.1052,633.1052,633.6051,,,,,,,,,,,,,,1.5798,1,,,,,,,,,,,,,,z,,,,,,,,,,,,,,,,95,0,633.6056,635.1884,z,1,1.5798,,[],[],[],[],[],[],[],635.1884,637.1884,637.1885,637.1886,[],[],[],[],[],[],[],,637.1887,637.1887,0.071234868,-0.385435086,0,0,0,,0,94,94,33,1,1,RL,recile,cursive,recile_c.png,,,,,
,,,,31788,001,2025-10-16_22h14.21.983,HW_LDT_1,2024.2.4,MacIntel,63.69426752,,,,,,,,,,,,,,,,,,,,637.1897,637.3883,637.3883,637.8883,,,,,,,,,,,,,,1.5735,0,,,,,,,,,,,,,,m,,,,,,,,,,,,,,,,96,1,637.8889,639.4716,z,0,1.5735,,[],[],[],[],[],[],[],639.4717,641.4715,641.4715,643.9043,[],[],[],[],[],[],[],z,643.9045,643.9046,0.071234868,-0.385435086,0,0,0,,0,95,95,102,1,1,word,DENSITY,cursive,density_c.png,2.4319,,,,
,,,,31788,001,2025-10-16_22h14.21.983,HW_LDT_1,2024.2.4,MacIntel,63.69426752,,,,,,,,,,,,,,,,,,,,643.9059,644.1048,644.1048,644.6047,,,,,,,,,,,,,,1.4284,1,,,,,,,,,,,,,,z,,,,,,,,,,,,,,,,97,0,644.6052,646.0376,z,1,1.4284,,[],[],[],[],[],[],[],646.0376,648.0379,648.038,648.0381,[],[],[],[],[],[],[],,648.0381,648.0382,0.071234868,-0.385435086,0,0,0,,0,96,96,39,1,1,RL,vabifity,cursive,vabifity_c.png,,,,,
,,,,31788,001,2025-10-16_22h14.21.983,HW_LDT_1,2024.2.4,MacIntel,63.69426752,,,,,,,,,,,,,,,,,,,,648.0393,648.238,648.238,648.737,,,,,,,,,,,,,,1.1213,1,,,,,,,,,,,,,,z,,,,,,,,,,,,,,,,98,0,648.7375,649.8713,z,1,1.1213,,[],[],[],[],[],[],[],649.8713,651.8711,651.8711,651.8713,[],[],[],[],[],[],[],,651.8714,651.8714,0.071234868,-0.385435086,0,0,0,,0,97,97,72,1,1,TL,remuse,print,remuse_p.png,,,,,
,,,,31788,001,2025-10-16_22h14.21.983,HW_LDT_1,2024.2.4,MacIntel,63.69426752,,,,,,,,,,,,,,,,,,,,651.8725,652.071,652.0711,652.571,,,,,,,,,,,,,,0.6074,1,,,,,,,,,,,,,,m,,,,,,,,,,,,,,,,99,0,652.5717,653.1878,m,1,0.6074,,[],[],[],[],[],[],[],653.1879,655.1876,655.1876,655.1878,[],[],[],[],[],[],[],,655.1878,655.1879,0.071234868,-0.385435086,0,0,0,,0,98,98,121,1,1,word,MISTAKE,print,mistake_p.png,,,,,
,,,,31788,001,2025-10-16_22h14.21.983,HW_LDT_1,2024.2.4,MacIntel,63.69426752,,,,,,,,,,,,,,,,,,,,655.1889,655.3876,655.3876,655.8876,,,,,,,,,,,,,,1.5587,1,,,,,,,,,,,,,,m,,,,,,,,,,,,,,,,100,0,655.888,657.4543,m,1,1.5587,,[],[],[],[],[],[],[],657.4544,659.4541,659.4541,659.4543,[],[],[],[],[],[],[],,659.4544,659.4544,0.071234868,-0.385435086,0,0,0,,0,99,99,150,1,1,word,SENTIMENT,cursive,sentiment_c.png,,,,,
,,,,31788,001,2025-10-16_22h14.21.983,HW_LDT_1,2024.2.4,MacIntel,63.69426752,,,,,,,,,,,,,,,,,,,,659.4555,659.6542,659.6542,660.154,,,,,,,,,,,,,,2.8713,1,,,,,,,,,,,,,,m,,,,,,,,,,,,,,,,101,0,660.1546,663.0366,m,1,2.8713,,[],[],[],[],[],[],[],663.0367,665.0372,665.0373,665.0374,[],[],[],[],[],[],[],,665.0374,665.0375,0.071234868,-0.385435086,0,0,0,,0,100,100,135,1,1,word,QUALITY,cursive,quality_c.png,,,,,
,,,,31788,001,2025-10-16_22h14.21.983,HW_LDT_1,2024.2.4,MacIntel,63.69426752,,,,,,,,,,,,,,,,,,,,665.0386,665.2372,665.2372,665.7372,,,,,,,,,,,,,,1.2064,1,,,,,,,,,,,,,,m,,,,,,,,,,,,,,,,102,0,665.7376,666.954,m,1,1.2064,,[],[],[],[],[],[],[],666.954,668.9532,668.9533,668.9534,[],[],[],[],[],[],[],,668.9535,668.9535,0.071234868,-0.385435086,0,0,0,,0,101,101,132,1,1,word,PROPOSAL,cursive,proposal_c.png,,,,,
,,,,31788,001,2025-10-16_22h14.21.983,HW_LDT_1,2024.2.4,MacIntel,63.69426752,,,,,,,,,,,,,,,,,,,,668.9544,669.1536,669.1537,669.6538,,,,,,,,,,,,,,2.3886,0,,,,,,,,,,,,,,m,,,,,,,,,,,,,,,,103,0,669.6543,672.0534,z,0,2.3886,,[],[],[],[],[],[],[],672.0535,674.0535,674.0536,674.0537,[],[],[],[],[],[],[],,674.0538,674.0538,0.071234868,-0.385435086,0,0,0,,0,102,102,103,1,1,word,DISPUTE,cursive,dispute_c.png,,,,,
,,,,31788,001,2025-10-16_22h14.21.983,HW_LDT_1,2024.2.4,MacIntel,63.69426752,,,,,,,,,,,,,,,,,,,,674.055,674.253,674.253,674.7535,,,,,,,,,,,,,,0.7033,1,,,,,,,,,,,,,,m,,,,,,,,,,,,,,,,104,1,674.754,675.4699,m,1,0.7033,,[],[],[],[],[],[],[],675.47,677.4699,677.47,678.7034,[],[],[],[],[],[],[],m,678.7035,678.7035,0.071234868,-0.385435086,0,0,0,,0,103,103,145,1,1,word,RESUME,print,resume_p.png,1.2318,,,,
,,,,31788,001,2025-10-16_22h14.21.983,HW_LDT_1,2024.2.4,MacIntel,63.69426752,,,,,,,,,,,,,,,,,,,,678.7046,678.9032,678.9032,679.4033,,,,,,,,,,,,,,2.0537,1,,,,,,,,,,,,,,z,,,,,,,,,,,,,,,,105,0,679.4038,681.4694,z,1,2.0537,,[],[],[],[],[],[],[],681.4695,683.4698,683.4698,683.47,[],[],[],[],[],[],[],,683.47,683.4701,0.071234868,-0.385435086,0,0,0,,0,104,104,0,1,1,RL,abanemy,cursive,abanemy_c.png,,,,,
,,,,31788,001,2025-10-16_22h14.21.983,HW_LDT_1,2024.2.4,MacIntel,63.69426752,,,,,,,,,,,,,,,,,,,,683.4713,683.6698,683.6698,684.1697,,,,,,,,,,,,,,1.5064,1,,,,,,,,,,,,,,z,,,,,,,,,,,,,,,,106,0,684.1702,685.6865,z,1,1.5064,,[],[],[],[],[],[],[],685.6866,687.6864,687.6864,687.6865,[],[],[],[],[],[],[],,687.6867,687.6867,0.071234868,-0.385435086,0,0,0,,0,105,105,77,1,1,TL,tritube,cursive,tritube_c.png,,,,,
,,,,31788,001,2025-10-16_22h14.21.983,HW_LDT_1,2024.2.4,MacIntel,63.69426752,,,,,,,,,,,,,,,,,,,,687.6876,687.8862,687.8862,688.3853,,,,,,,,,,,,,,1.4387,1,,,,,,,,,,,,,,z,,,,,,,,,,,,,,,,107,1,688.3855,689.8364,z,1,1.4387,,[],[],[],[],[],[],[],689.8365,691.8362,691.8364,693.2862,[],[],[],[],[],[],[],z,693.2864,693.2865,0.071234868,-0.385435086,0,0,0,,0,106,106,59,1,1,TL,lirebal,cursive,lirebal_c.png,1.4394,,,,
,,,,31788,001,2025-10-16_22h14.21.983,HW_LDT_1,2024.2.4,MacIntel,63.69426752,,,,,,,,,,,,,,,,,,,,693.2876,693.4862,693.4862,693.9856,,,,,,,,,,,,,,0.704,1,,,,,,,,,,,,,,m,,,,,,,,,,,,,,,,108,0,693.9862,694.7028,m,1,0.704,,[],[],[],[],[],[],[],694.7029,696.7027,696.7027,696.7028,[],[],[],[],[],[],[],,696.7029,696.703,0.071234868,-0.385435086,0,0,0,,0,107,107,100,1,1,word,DECADE,print,decade_p.png,,,,,
,,,,31788,001,2025-10-16_22h14.21.983,HW_LDT_1,2024.2.4,MacIntel,63.69426752,,,,,,,,,,,,,,,,,,,,696.704,696.9026,696.9026,697.4026,,,,,,,,,,,,,,0.632,1,,,,,,,,,,,,,,m,,,,,,,,,,,,,,,,109,0,697.4032,698.036,m,1,0.632,,[],[],[],[],[],[],[],698.0361,700.0358,700.0359,700.036,[],[],[],[],[],[],[],,700.0361,700.0361,0.071234868,-0.385435086,0,0,0,,0,108,108,89,1,1,word,CAPACITY,print,capacity_p.png,,,,,
,,,,31788,001,2025-10-16_22h14.21.983,HW_LDT_1,2024.2.4,MacIntel,63.69426752,,,,,,,,,,,,,,,,,,,,700.0371,700.2358,700.2358,700.7358,,,,,,,,,,,,,,0.8141,1,,,,,,,,,,,,,,m,,,,,,,,,,,,,,,,110,1,700.7363,701.5525,m,1,0.8141,,[],[],[],[],[],[],[],701.5525,703.5518,703.5519,704.7029,[],[],[],[],[],[],[],z,704.703,704.7031,0.071234868,-0.385435086,0,0,0,,0,109,109,147,1,1,word,ROMANTIC,cursive,romantic_c.png,1.15,,,,
,,,,31788,001,2025-10-16_22h14.21.983,HW_LDT_1,2024.2.4,MacIntel,63.69426752,,,,,,,,,,,,,,,,,,,,704.7053,704.9025,704.9026,705.4016,,,,,,,,,,,,,,2.6228,0,,,,,,,,,,,,,,m,,,,,,,,,,,,,,,,111,0,705.4023,708.0356,z,0,2.6228,,[],[],[],[],[],[],[],708.0358,710.0354,710.0354,710.0357,[],[],[],[],[],[],[],,710.0357,710.0358,0.071234868,-0.385435086,0,0,0,,0,110,110,87,1,1,word,CAFETERIA,cursive,cafeteria_c.png,,,,,
,,,,31788,001,2025-10-16_22h14.21.983,HW_LDT_1,2024.2.4,MacIntel,63.69426752,,,,,,,,,,,,,,,,,,,,710.037,710.2351,710.2351,710.7354,,,,,,,,,,,,,,0.6207,1,,,,,,,,,,,,,,m,,,,,,,,,,,,,,,,112,0,710.7359,711.3687,m,1,0.6207,,[],[],[],[],[],[],[],711.3688,713.3686,713.3687,713.3688,[],[],[],[],[],[],[],,713.3688,713.3689,0.071234868,-0.385435086,0,0,0,,0,111,111,99,1,1,word,DEBATE,print,debate_p.png,,,,,
,,,,31788,001,2025-10-16_22h14.21.983,HW_LDT_1,2024.2.4,MacIntel,63.69426752,,,,,,,,,,,,,,,,,,,,713.37,713.5686,713.5687,714.0686,,,,,,,,,,,,,,0.6152,1,,,,,,,,,,,,,,m,,,,,,,,,,,,,,,,113,0,714.069,714.6853,m,1,0.6152,,[],[],[],[],[],[],[],714.6854,716.6853,716.6853,716.6854,[],[],[],[],[],[],[],,716.6855,716.6856,0.071234868,-0.385435086,0,0,0,,0,112,112,133,1,1,word,PROVIDE,print,provide_p.png,,,,,
,,,,31788,001,2025-10-16_22h14.21.983,HW_LDT_1,2024.2.4,MacIntel,63.69426752,,,,,,,,,,,,,,,,,,,,716.6867,716.8852,716.8852,717.3852,,,,,,,,,,,,,,0.5938,1,,,,,,,,,,,,,,m,,,,,,,,,,,,,,,,114,0,717.3856,717.9852,m,1,0.5938,,[],[],[],[],[],[],[],717.9853,719.985,719.985,719.9852,[],[],[],[],[],[],[],,719.9852,719.9854,0.071234868,-0.385435086,0,0,0,,0,113,113,139,1,1,word,REGULAR,print,regular_p.png,,,,,
,,,,31788,001,2025-10-16_22h14.21.983,HW_LDT_1,2024.2.4,MacIntel,63.69426752,,,,,,,,,,,,,,,,,,,,719.9868,720.185,720.1851,720.6848,,,,,,,,,,,,,,1.8711,1,,,,,,,,,,,,,,z,,,,,,,,,,,,,,,,115,0,720.6852,722.5684,z,1,1.8711,,[],[],[],[],[],[],[],722.5685,724.5682,724.5682,724.5684,[],[],[],[],[],[],[],,724.5684,724.5685,0.071234868,-0.385435086,0,0,0,,0,114,114,3,1,1,RL,casena,cursive,casena_c.png,,,,,
,,,,31788,001,2025-10-16_22h14.21.983,HW_LDT_1,2024.2.4,MacIntel,63.69426752,,,,,,,,,,,,,,,,,,,,724.5696,724.7682,724.7682,725.2681,,,,,,,,,,,,,,1.1765,1,,,,,,,,,,,,,,z,,,,,,,,,,,,,,,,116,0,725.2686,726.4515,z,1,1.1765,,[],[],[],[],[],[],[],726.4516,728.4513,728.4515,728.4516,[],[],[],[],[],[],[],,728.4516,728.4516,0.071234868,-0.385435086,0,0,0,,0,115,115,76,1,1,TL,stragety,cursive,stragety_c.png,,,,,
,,,,31788,001,2025-10-16_22h14.21.983,HW_LDT_1,2024.2.4,MacIntel,63.69426752,,,,,,,,,,,,,,,,,,,,728.4532,728.6512,728.6512,729.1514,,,,,,,,,,,,,,1.0898,1,,,,,,,,,,,,,,m,,,,,,,,,,,,,,,,117,0,729.1518,730.2515,m,1,1.0898,,[],[],[],[],[],[],[],730.2516,732.2512,732.2513,732.2515,[],[],[],[],[],[],[],,732.2515,732.2516,0.071234868,-0.385435086,0,0,0,,0,116,116,152,1,1,word,SPECIMEN,cursive,specimen_c.png,,,,,
,,,,31788,001,2025-10-16_22h14.21.983,HW_LDT_1,2024.2.4,MacIntel,63.69426752,,,,,,,,,,,,,,,,,,,,732.2526,732.4512,732.4512,732.9506,,,,,,,,,,,,,,0.8392,1,,,,,,,,,,,,,,m,,,,,,,,,,,,,,,,118,1,732.9511,733.8013,m,1,0.8392,,[],[],[],[],[],[],[],733.8015,735.8011,735.8011,736.9178,[],[],[],[],[],[],[],z,736.9179,736.918,0.071234868,-0.385435086,0,0,0,,0,117,117,146,1,1,word,RETIRE,cursive,retire_c.png,1.1048,,,,
,,,,31788,001,2025-10-16_22h14.21.983,HW_LDT_1,2024.2.4,MacIntel,63.69426752,,,,,,,,,,,,,,,,,,,,736.919,737.1171,737.1172,737.6175,,,,,,,,,,,,,,2.6197,1,,,,,,,,,,,,,,z,,,,,,,,,,,,,,,,119,0,737.6179,740.2501,z,1,2.6197,,[],[],[],[],[],[],[],740.2502,742.2501,742.2501,742.2504,[],[],[],[],[],[],[],,742.2504,742.2505,0.071234868,-0.385435086,0,0,0,,0,118,118,48,1,1,TL,cemerony,cursive,cemerony_c.png,,,,,
,,,,31788,001,2025-10-16_22h14.21.983,HW_LDT_1,2024.2.4,MacIntel,63.69426752,,,,,,,,,,,,,,,,,,,,742.2513,742.4508,742.4509,742.9508,,,,,,,,,,,,,,0.9211,1,,,,,,,,,,,,,,z,,,,,,,,,,,,,,,,120,1,742.9511,743.8834,z,1,0.9211,,[],[],[],[],[],[],[],743.8834,745.884,745.8841,747.034,[],[],[],[],[],[],[],m,747.0342,747.0342,0.071234868,-0.385435086,0,0,0,,0,119,119,41,1,1,TL,bevoled,print,bevoled_p.png,1.1378,,,,
,,,,31788,001,2025-10-16_22h14.21.983,HW_LDT_1,2024.2.4,MacIntel,63.69426752,,,,,,,,,,,,,,,,,,,,747.0351,747.2336,747.2337,747.734,,,,,,,,,,,,,,1.0546,1,,,,,,,,,,,,,,m,,,,,,,,,,,,,,,,121,1,747.7345,748.8007,m,1,1.0546,,[],[],[],[],[],[],[],748.8008,750.8005,750.8005,752.2499,[],[],[],[],[],[],[],m,752.2499,752.2501,0.071234868,-0.385435086,0,0,0,,0,120,120,113,1,1,word,LITERAL,print,literal_p.png,1.4379,,,,
,,,,31788,001,2025-10-16_22h14.21.983,HW_LDT_1,2024.2.4,MacIntel,63.69426752,,,,,,,,,,,,,,,,,,,,752.2509,752.4505,752.4505,752.9503,,,,,,,,,,,,,,0.7914,1,,,,,,,,,,,,,,z,,,,,,,,,,,,,,,,122,0,752.9509,753.7499,z,1,0.7914,,[],[],[],[],[],[],[],753.7499,755.7503,755.7503,755.7506,[],[],[],[],[],[],[],,755.7506,755.7507,0.071234868,-0.385435086,0,0,0,,0,121,121,60,1,1,TL,manire,print,manire_p.png,,,,,
,,,,31788,001,2025-10-16_22h14.21.983,HW_LDT_1,2024.2.4,MacIntel,63.69426752,,,,,,,,,,,,,,,,,,,,755.7516,755.9503,755.9503,756.4502,,,,,,,,,,,,,,3.2779,1,,,,,,,,,,,,,,z,,,,,,,,,,,,,,,,123,0,756.4507,759.7336,z,1,3.2779,,[],[],[],[],[],[],[],759.7338,761.7333,761.7333,761.7335,[],[],[],[],[],[],[],,761.7335,761.7336,0.071234868,-0.385435086,0,0,0,,0,122,122,61,1,1,TL,mecidine,cursive,mecidine_c.png,,,,,
,,,,31788,001,2025-10-16_22h14.21.983,HW_LDT_1,2024.2.4,MacIntel,63.69426752,,,,,,,,,,,,,,,,,,,,761.7345,761.9331,761.9332,762.4336,,,,,,,,,,,,,,0.9545,1,,,,,,,,,,,,,,z,,,,,,,,,,,,,,,,124,0,762.434,763.4006,z,1,0.9545,,[],[],[],[],[],[],[],763.4007,765.3999,765.4,765.4001,[],[],[],[],[],[],[],,765.4002,765.4002,0.071234868,-0.385435086,0,0,0,,0,123,123,51,1,1,TL,corevage,print,corevage_p.png,,,,,
,,,,31788,001,2025-10-16_22h14.21.983,HW_LDT_1,2024.2.4,MacIntel,63.69426752,,,,,,,,,,,,,,,,,,,,765.4013,765.5998,765.5999,766.0996,,,,,,,,,,,,,,0.5419,1,,,,,,,,,,,,,,m,,,,,,,,,,,,,,,,125,1,766.1001,766.65,m,1,0.5419,,[],[],[],[],[],[],[],766.6501,768.649,768.649,769.7997,[],[],[],[],[],[],[],m,769.7997,769.7999,0.071234868,-0.385435086,0,0,0,,0,124,124,136,1,1,word,RADICAL,print,radical_p.png,1.1385,,,,
,,,,31788,001,2025-10-16_22h14.21.983,HW_LDT_1,2024.2.4,MacIntel,63.69426752,,,,,,,,,,,,,,,,,,,,769.8007,769.9996,769.9997,770.4997,,,,,,,,,,,,,,0.6871,1,,,,,,,,,,,,,,m,,,,,,,,,,,,,,,,126,0,770.5002,771.1998,m,1,0.6871,,[],[],[],[],[],[],[],771.1998,773.1996,773.1996,773.1999,[],[],[],[],[],[],[],,773.1999,773.2,0.071234868,-0.385435086,0,0,0,,0,125,125,109,1,1,word,GRATEFUL,print,grateful_p.png,,,,,
,,,,31788,001,2025-10-16_22h14.21.983,HW_LDT_1,2024.2.4,MacIntel,63.69426752,,,,,,,,,,,,,,,,,,,,773.2012,773.3996,773.3996,773.8996,,,,,,,,,,,,,,0.8212,1,,,,,,,,,,,,,,z,,,,,,,,,,,,,,,,127,0,773.9001,774.733,z,1,0.8212,,[],[],[],[],[],[],[],774.7331,776.7328,776.7329,776.733,[],[],[],[],[],[],[],,776.733,776.7331,0.071234868,-0.385435086,0,0,0,,0,126,126,28,1,1,RL,renutal,print,renutal_p.png,,,,,
,,,,31788,001,2025-10-16_22h14.21.983,HW_LDT_1,2024.2.4,MacIntel,63.69426752,,,,,,,,,,,,,,,,,,,,776.734,776.9328,776.9328,777.4323,,,,,,,,,,,,,,1.4713,1,,,,,,,,,,,,,,m,,,,,,,,,,,,,,,,128,0,777.4328,778.9161,m,1,1.4713,,[],[],[],[],[],[],[],778.9161,780.9159,780.9159,780.9161,[],[],[],[],[],[],[],,780.9161,780.9161,0.070707801,-0.38335657,0,0,0,,0,127,127,155,1,1,word,STRATEGY,cursive,strategy_c.png,,,,,
,,,,31788,001,2025-10-16_22h14.21.983,HW_LDT_1,2024.2.4,MacIntel,63.69426752,,,,,,,,,,,,,,,,,,,,780.9169,781.1162,781.1162,781.6159,,,,,,,,,,,,,,0.7226,1,,,,,,,,,,,,,,m,,,,,,,,,,,,,,,,129,0,781.6165,782.3486,m,1,0.7226,,[],[],[],[],[],[],[],782.3487,784.3491,784.3492,784.3494,[],[],[],[],[],[],[],,784.3494,784.3495,0.070707801,-0.38335657,0,0,0,,0,128,128,148,1,1,word,SALINE,print,saline_p.png,,,,,
,,,,31788,001,2025-10-16_22h14.21.983,HW_LDT_1,2024.2.4,MacIntel,63.69426752,,,,,,,,,,,,,,,,,,,,784.3502,784.5491,784.5491,785.0491,,,,,,,,,,,,,,1.0543,1,,,,,,,,,,,,,,z,,,,,,,,,,,,,,,,130,0,785.0496,786.1158,z,1,1.0543,,[],[],[],[],[],[],[],786.1159,788.1157,788.1157,788.1159,[],[],[],[],[],[],[],,788.116,788.1161,0.070707801,-0.38335657,0,0,0,,0,129,129,23,1,1,RL,potugar,cursive,potugar_c.png,,,,,
,,,,31788,001,2025-10-16_22h14.21.983,HW_LDT_1,2024.2.4,MacIntel,63.69426752,,,,,,,,,,,,,,,,,,,,788.1169,788.3154,788.3155,788.8151,,,,,,,,,,,,,,1.2755,1,,,,,,,,,,,,,,m,,,,,,,,,,,,,,,,131,1,788.8158,790.0989,m,1,1.2755,,[],[],[],[],[],[],[],790.0991,792.0989,792.099,793.082,[],[],[],[],[],[],[],z,793.082,793.0822,0.070707801,-0.38335657,0,0,0,,0,130,130,130,1,1,word,POLICY,cursive,policy_c.png,0.9767,,,,
,,,,31788,001,2025-10-16_22h14.21.983,HW_LDT_1,2024.2.4,MacIntel,63.69426752,,,,,,,,,,,,,,,,,,,,793.0831,793.2815,793.2815,793.7822,,,,,,,,,,,,,,1.2547,1,,,,,,,,,,,,,,m,,,,,,,,,,,,,,,,132,0,793.7825,795.0487,m,1,1.2547,,[],[],[],[],[],[],[],795.0489,797.0487,797.0488,797.049,[],[],[],[],[],[],[],,797.049,797.049,0.070707801,-0.38335657,0,0,0,,0,131,131,143,1,1,word,REMOVAL,cursive,removal_c.png,,,,,
,,,,31788,001,2025-10-16_22h14.21.983,HW_LDT_1,2024.2.4,MacIntel,63.69426752,,,,,,,,,,,,,,,,,,,,797.0499,797.2486,797.2487,797.7486,,,,,,,,,,,,,,0.7375,1,,,,,,,,,,,,,,z,,,,,,,,,,,,,,,,133,0,797.7491,798.4987,z,1,0.7375,,[],[],[],[],[],[],[],798.4988,800.4976,800.4978,800.4979,[],[],[],[],[],[],[],,800.498,800.4981,0.070707801,-0.38335657,0,0,0,,0,132,132,24,1,1,RL,probice,print,probice_p.png,,,,,
,,,,31788,001,2025-10-16_22h14.21.983,HW_LDT_1,2024.2.4,MacIntel,63.69426752,,,,,,,,,,,,,,,,,,,,800.4989,800.6985,800.6987,801.1979,,,,,,,,,,,,,,0.8047,1,,,,,,,,,,,,,,m,,,,,,,,,,,,,,,,134,0,801.1984,802.0151,m,1,0.8047,,[],[],[],[],[],[],[],802.0153,804.015,804.0151,804.0153,[],[],[],[],[],[],[],,804.0154,804.0155,0.070707801,-0.38335657,0,0,0,,0,133,133,92,1,1,word,CATEGORY,print,category_p.png,,,,,
,,,,31788,001,2025-10-16_22h14.21.983,HW_LDT_1,2024.2.4,MacIntel,63.69426752,,,,,,,,,,,,,,,,,,,,804.0164,804.2148,804.2149,804.7149,,,,,,,,,,,,,,1.781,1,,,,,,,,,,,,,,z,,,,,,,,,,,,,,,,135,0,804.7156,806.4976,z,1,1.781,,[],[],[],[],[],[],[],806.4977,808.4982,808.4982,808.4984,[],[],[],[],[],[],[],,808.4984,808.4984,0.070707801,-0.38335657,0,0,0,,0,134,134,50,1,1,TL,condiser,cursive,condiser_c.png,,,,,
,,,,31788,001,2025-10-16_22h14.21.983,HW_LDT_1,2024.2.4,MacIntel,63.69426752,,,,,,,,,,,,,,,,,,,,808.4996,808.6981,808.6982,809.1981,,,,,,,,,,,,,,0.7399,1,,,,,,,,,,,,,,m,,,,,,,,,,,,,,,,136,0,809.1988,809.9481,m,1,0.7399,,[],[],[],[],[],[],[],809.9483,811.948,811.948,811.9483,[],[],[],[],[],[],[],,811.9483,811.9484,0.070707801,-0.38335657,0,0,0,,0,135,135,159,1,1,word,VETERAN,print,veteran_p.png,,,,,
,,,,31788,001,2025-10-16_22h14.21.983,HW_LDT_1,2024.2.4,MacIntel,63.69426752,,,,,,,,,,,,,,,,,,,,811.9494,812.148,812.148,812.648,,,,,,,,,,,,,,1.1903,1,,,,,,,,,,,,,,z,,,,,,,,,,,,,,,,137,0,812.6486,813.848,z,1,1.1903,,[],[],[],[],[],[],[],813.8481,815.847,815.8471,815.8472,[],[],[],[],[],[],[],,815.8472,815.8473,0.070707801,-0.38335657,0,0,0,,0,136,136,4,1,1,RL,carminal,print,carminal_p.png,,,,,
,,,,31788,001,2025-10-16_22h14.21.983,HW_LDT_1,2024.2.4,MacIntel,63.69426752,,,,,,,,,,,,,,,,,,,,815.8484,816.0479,816.048,816.5479,,,,,,,,,,,,,,1.5227,1,,,,,,,,,,,,,,z,,,,,,,,,,,,,,,,138,0,816.5484,818.0805,z,1,1.5227,,[],[],[],[],[],[],[],818.0806,820.081,820.081,820.0812,[],[],[],[],[],[],[],,820.0813,820.0813,0.070707801,-0.38335657,0,0,0,,0,137,137,16,1,1,RL,marmipal,print,marmipal_p.png,,,,,
,,,,31788,001,2025-10-16_22h14.21.983,HW_LDT_1,2024.2.4,MacIntel,63.69426752,,,,,,,,,,,,,,,,,,,,820.0826,820.281,820.2811,820.781,,,,,,,,,,,,,,0.6089,1,,,,,,,,,,,,,,m,,,,,,,,,,,,,,,,139,0,820.7816,821.3976,m,1,0.6089,,[],[],[],[],[],[],[],821.3978,823.3975,823.3977,823.3978,[],[],[],[],[],[],[],,823.3979,823.3979,0.070707801,-0.38335657,0,0,0,,0,138,138,106,1,1,word,ELABORATE,print,elaborate_p.png,,,,,
,,,,31788,001,2025-10-16_22h14.21.983,HW_LDT_1,2024.2.4,MacIntel,63.69426752,,,,,,,,,,,,,,,,,,,,823.3992,823.5972,823.5973,824.0976,,,,,,,,,,,,,,0.7398,1,,,,,,,,,,,,,,z,,,,,,,,,,,,,,,,140,0,824.0981,824.8475,z,1,0.7398,,[],[],[],[],[],[],[],824.8477,826.8474,826.8474,826.8476,[],[],[],[],[],[],[],,826.8476,826.8476,0.070707801,-0.38335657,0,0,0,,0,139,139,20,1,1,RL,nunewical,print,nunewical_p.png,,,,,
,,,,31788,001,2025-10-16_22h14.21.983,HW_LDT_1,2024.2.4,MacIntel,63.69426752,,,,,,,,,,,,,,,,,,,,826.849,827.0468,827.047,827.5474,,,,,,,,,,,,,,1.473,1,,,,,,,,,,,,,,m,,,,,,,,,,,,,,,,141,0,827.5479,829.0306,m,1,1.473,,[],[],[],[],[],[],[],829.0307,831.0305,831.0306,831.0307,[],[],[],[],[],[],[],,831.0308,831.0308,0.070707801,-0.38335657,0,0,0,,0,140,140,141,1,1,word,RELIGION,cursive,religion_c.png,,,,,
,,,,31788,001,2025-10-16_22h14.21.983,HW_LDT_1,2024.2.4,MacIntel,63.69426752,,,,,,,,,,,,,,,,,,,,831.032,831.2306,831.2306,831.7299,,,,,,,,,,,,,,0.9132,1,,,,,,,,,,,,,,m,,,,,,,,,,,,,,,,142,0,831.7304,832.6472,m,1,0.9132,,[],[],[],[],[],[],[],832.6472,834.6472,834.6473,834.6474,[],[],[],[],[],[],[],,834.6475,834.6476,0.070707801,-0.38335657,0,0,0,,0,141,141,93,1,1,word,CEREMONY,cursive,ceremony_c.png,,,,,
,,,,31788,001,2025-10-16_22h14.21.983,HW_LDT_1,2024.2.4,MacIntel,63.69426752,,,,,,,,,,,,,,,,,,,,834.6488,834.8471,834.8472,835.3471,,,,,,,,,,,,,,0.7745,1,,,,,,,,,,,,,,z,,,,,,,,,,,,,,,,143,0,835.3477,836.1305,z,1,0.7745,,[],[],[],[],[],[],[],836.1306,838.1297,838.1298,838.13,[],[],[],[],[],[],[],,838.1301,838.1301,0.070707801,-0.38335657,0,0,0,,0,142,142,37,1,1,RL,skofen,print,skofen_p.png,,,,,
,,,,31788,001,2025-10-16_22h14.21.983,HW_LDT_1,2024.2.4,MacIntel,63.69426752,,,,,,,,,,,,,,,,,,,,838.1311,838.3303,838.3303,838.8302,,,,,,,,,,,,,,0.7413,1,,,,,,,,,,,,,,z,,,,,,,,,,,,,,,,144,0,838.8307,839.5804,z,1,0.7413,,[],[],[],[],[],[],[],839.5805,841.5801,841.5802,841.5804,[],[],[],[],[],[],[],,841.5804,841.5805,0.070707801,-0.38335657,0,0,0,,0,143,143,6,1,1,RL,crisival,print,crisival_p.png,,,,,
,,,,31788,001,2025-10-16_22h14.21.983,HW_LDT_1,2024.2.4,MacIntel,63.69426752,,,,,,,,,,,,,,,,,,,,841.5815,841.7801,841.7802,842.28,,,,,,,,,,,,,,1.631,1,,,,,,,,,,,,,,z,,,,,,,,,,,,,,,,145,0,842.2805,843.9128,z,1,1.631,,[],[],[],[],[],[],[],843.9129,845.9133,845.9133,845.9134,[],[],[],[],[],[],[],,845.9136,845.9136,0.070707801,-0.38335657,0,0,0,,0,144,144,53,1,1,TL,dentisy,cursive,dentisy_c.png,,,,,
,,,,31788,001,2025-10-16_22h14.21.983,HW_LDT_1,2024.2.4,MacIntel,63.69426752,,,,,,,,,,,,,,,,,,,,845.9147,846.1129,846.113,846.6133,,,,,,,,,,,,,,0.7899,1,,,,,,,,,,,,,,z,,,,,,,,,,,,,,,,146,0,846.6138,847.4126,z,1,0.7899,,[],[],[],[],[],[],[],847.4127,849.4132,849.4133,849.4134,[],[],[],[],[],[],[],,849.4134,849.4135,0.070707801,-0.38335657,0,0,0,,0,145,145,13,1,1,RL,linefal,print,linefal_p.png,,,,,
,,,,31788,001,2025-10-16_22h14.21.983,HW_LDT_1,2024.2.4,MacIntel,63.69426752,,,,,,,,,,,,,,,,,,,,849.4146,849.6131,849.6132,850.1123,,,,,,,,,,,,,,2.1401,1,,,,,,,,,,,,,,z,,,,,,,,,,,,,,,,147,0,850.1129,852.2624,z,1,2.1401,,[],[],[],[],[],[],[],852.2624,854.2636,854.2637,854.2639,[],[],[],[],[],[],[],,854.2639,854.264,0.070707801,-0.38335657,0,0,0,,0,146,146,35,1,1,RL,senvilent,cursive,senvilent_c.png,,,,,
,,,,31788,001,2025-10-16_22h14.21.983,HW_LDT_1,2024.2.4,MacIntel,63.69426752,,,,,,,,,,,,,,,,,,,,854.2652,854.4622,854.4623,854.963,,,,,,,,,,,,,,2.4954,1,,,,,,,,,,,,,,m,,,,,,,,,,,,,,,,148,0,854.9636,857.463,m,1,2.4954,,[],[],[],[],[],[],[],857.4631,859.4628,859.4629,859.4629,[],[],[],[],[],[],[],,859.4631,859.4631,0.070707801,-0.38335657,0,0,0,,0,147,147,108,1,1,word,FORTUNE,print,fortune_p.png,,,,,
,,,,31788,001,2025-10-16_22h14.21.983,HW_LDT_1,2024.2.4,MacIntel,63.69426752,,,,,,,,,,,,,,,,,,,,859.4642,859.6628,859.6628,860.1619,,,,,,,,,,,,,,1.2244,1,,,,,,,,,,,,,,m,,,,,,,,,,,,,,,,149,1,860.1624,861.3957,m,1,1.2244,,[],[],[],[],[],[],[],861.3957,863.3959,863.396,865.0457,[],[],[],[],[],[],[],m,865.0458,865.0459,0.070707801,-0.38335657,0,0,0,,0,148,148,156,1,1,word,TRIBUTE,cursive,tribute_c.png,1.6411,,,,
,,,,31788,001,2025-10-16_22h14.21.983,HW_LDT_1,2024.2.4,MacIntel,63.69426752,,,,,,,,,,,,,,,,,,,,865.0471,865.2459,865.246,865.7458,,,,,,,,,,,,,,0.8576,1,,,,,,,,,,,,,,m,,,,,,,,,,,,,,,,150,0,865.7463,866.6125,m,1,0.8576,,[],[],[],[],[],[],[],866.6126,868.6124,868.6124,868.6125,[],[],[],[],[],[],[],,868.6126,868.6127,0.070707801,-0.38335657,0,0,0,,0,149,149,122,1,1,word,MOBILE,cursive,mobile_c.png,,,,,
,,,,31788,001,2025-10-16_22h14.21.983,HW_LDT_1,2024.2.4,MacIntel,63.69426752,,,,,,,,,,,,,,,,,,,,868.6138,868.8124,868.8124,869.3124,,,,,,,,,,,,,,0.6138,1,,,,,,,,,,,,,,m,,,,,,,,,,,,,,,,151,0,869.3129,869.9291,m,1,0.6138,,[],[],[],[],[],[],[],869.9292,871.9287,871.9288,871.9289,[],[],[],[],[],[],[],,871.9289,871.9292,0.070707801,-0.38335657,0,0,0,,0,150,150,90,1,1,word,CAPITAL,print,capital_p.png,,,,,
,,,,31788,001,2025-10-16_22h14.21.983,HW_LDT_1,2024.2.4,MacIntel,63.69426752,,,,,,,,,,,,,,,,,,,,871.9305,872.129,872.129,872.629,,,,,,,,,,,,,,0.7905,1,,,,,,,,,,,,,,z,,,,,,,,,,,,,,,,152,1,872.6296,873.4282,z,1,0.7905,,[],[],[],[],[],[],[],873.4283,875.4289,875.4289,876.5122,[],[],[],[],[],[],[],m,876.5122,876.5126,0.070707801,-0.38335657,0,0,0,,0,151,151,56,1,1,TL,grafetul,print,grafetul_p.png,1.0789,,,,
,,,,31788,001,2025-10-16_22h14.21.983,HW_LDT_1,2024.2.4,MacIntel,63.69426752,,,,,,,,,,,,,,,,,,,,876.514,876.7121,876.7121,877.2121,,,,,,,,,,,,,,2.4428,1,,,,,,,,,,,,,,m,,,,,,,,,,,,,,,,153,0,877.2128,879.6618,m,1,2.4428,,[],[],[],[],[],[],[],879.6619,881.6619,881.6619,881.6621,[],[],[],[],[],[],[],,881.6621,881.6622,0.070707801,-0.38335657,0,0,0,,0,152,152,134,1,1,word,QUALIFY,cursive,qualify_c.png,,,,,
,,,,31788,001,2025-10-16_22h14.21.983,HW_LDT_1,2024.2.4,MacIntel,63.69426752,,,,,,,,,,,,,,,,,,,,881.6634,881.8619,881.8619,882.3619,,,,,,,,,,,,,,1.6405,1,,,,,,,,,,,,,,z,,,,,,,,,,,,,,,,154,0,882.3623,884.0118,z,1,1.6405,,[],[],[],[],[],[],[],884.012,886.0117,886.0118,886.012,[],[],[],[],[],[],[],,886.012,886.0121,0.070707801,-0.38335657,0,0,0,,0,153,153,36,1,1,RL,speniven,cursive,speniven_c.png,,,,,
,,,,31788,001,2025-10-16_22h14.21.983,HW_LDT_1,2024.2.4,MacIntel,63.69426752,,,,,,,,,,,,,,,,,,,,886.0132,886.2116,886.2117,886.7117,,,,,,,,,,,,,,1.2927,1,,,,,,,,,,,,,,z,,,,,,,,,,,,,,,,155,0,886.7123,888.0116,z,1,1.2927,,[],[],[],[],[],[],[],888.0117,890.0115,890.0116,890.0118,[],[],[],[],[],[],[],,890.0118,890.0119,0.070707801,-0.38335657,0,0,0,,0,154,154,71,1,1,TL,regilion,cursive,regilion_c.png,,,,,
,,,,31788,001,2025-10-16_22h14.21.983,HW_LDT_1,2024.2.4,MacIntel,63.69426752,,,,,,,,,,,,,,,,,,,,890.0132,890.2114,890.2114,890.7115,,,,,,,,,,,,,,0.6917,1,,,,,,,,,,,,,,z,,,,,,,,,,,,,,,,156,0,890.7117,891.4116,z,1,0.6917,,[],[],[],[],[],[],[],891.4118,893.4114,893.4114,893.4117,[],[],[],[],[],[],[],,893.4117,893.4119,0.070707801,-0.38335657,0,0,0,,0,155,155,42,1,1,TL,befenit,print,befenit_p.png,,,,,
,,,,31788,001,2025-10-16_22h14.21.983,HW_LDT_1,2024.2.4,MacIntel,63.69426752,,,,,,,,,,,,,,,,,,,,893.4133,893.6114,893.6114,894.1114,,,,,,,,,,,,,,0.6234,1,,,,,,,,,,,,,,m,,,,,,,,,,,,,,,,157,0,894.1119,894.7448,m,1,0.6234,,[],[],[],[],[],[],[],894.7448,896.7445,896.7446,896.7447,[],[],[],[],[],[],[],,896.7448,896.7449,0.070707801,-0.38335657,0,0,0,,0,156,156,98,1,1,word,CRIMINAL,print,criminal_p.png,,,,,
,,,,31788,001,2025-10-16_22h14.21.983,HW_LDT_1,2024.2.4,MacIntel,63.69426752,,,,,,,,,,,,,,,,,,,,896.7459,896.9446,896.9446,897.4445,,,,,,,,,,,,,,1.2901,1,,,,,,,,,,,,,,m,,,,,,,,,,,,,,,,158,0,897.4451,898.7445,m,1,1.2901,,[],[],[],[],[],[],[],898.7446,900.7444,900.7444,900.7446,[],[],[],[],[],[],[],,900.7447,900.7447,0.070707801,-0.38335657,0,0,0,,0,157,157,118,1,1,word,MEDICINE,cursive,medicine_c.png,,,,,
,,,,31788,001,2025-10-16_22h14.21.983,HW_LDT_1,2024.2.4,MacIntel,63.69426752,,,,,,,,,,,,,,,,,,,,900.746,900.9444,900.9444,901.4442,,,,,,,,,,,,,,0.8632,1,,,,,,,,,,,,,,m,,,,,,,,,,,,,,,,159,1,901.4445,902.311,m,1,0.8632,,[],[],[],[],[],[],[],902.311,904.3109,904.311,905.5277,[],[],[],[],[],[],[],m,905.5277,905.5277,0.070707801,-0.38335657,0,0,0,,0,158,158,128,1,1,word,PACIFIC,print,pacific_p.png,1.2144,,,,
,,,,31788,001,2025-10-16_22h14.21.983,HW_LDT_1,2024.2.4,MacIntel,63.69426752,,,,,,,,,,,,,,,,,,,,905.5289,905.7276,905.7277,906.2275,,,,,,,,,,,,,,2.2937,1,,,,,,,,,,,,,,z,,,,,,,,,,,,,,,,160,0,906.228,908.5275,z,1,2.2937,,[],[],[],[],[],[],[],908.5275,910.5273,910.5274,910.5275,[],[],[],[],[],[],[],,910.5276,910.5276,0.070707801,-0.38335657,0,0,0,,0,159,159,1,1,1,RL,adnicory,cursive,adnicory_c.png,,,,,
,,,,31788,001,2025-10-16_22h14.21.983,HW_LDT_1,2024.2.4,MacIntel,63.69426752,,,,,,,,,,,,,,,,,,,,,,,,,,,,,,,,,,,,,,,,,,,,,,,,,,,,,,,,,,,,,,,,,,,,,,,,,,,,,,,,,,,,,,,,,,,,,,,,,,,,,,,,,,,,,,,,,,,,910.544,915.5283
