counterbalance_lists.group,counterbalance_lists.remaining,get_list.started,get_list.stopped,participant,session,date,expName,psychopyVersion,OS,frameRate,Instructions.started,Instructions.stopped,key_resp.keys,instr_done_touch.x,instr_done_touch.y,instr_done_touch.leftButton,instr_done_touch.midButton,instr_done_touch.rightButton,instr_done_touch.clicked_name,start_instr.thisRepN,start_instr.thisTrialN,start_instr.thisN,start_instr.thisIndex,start_instr.ran,pageN,phase,instruct_text,has_image,instruct_image,key_resp.rt,key_resp.duration,showProgress.started,showProgress.stopped,fix.started,fix.stopped,prac.started,prac.stopped,response.keys,response.corr,response.rt,response.duration,touch_resp.x,touch_resp.y,touch_resp.leftButton,touch_resp.midButton,touch_resp.rightButton,touch_resp.time,touch_resp.clicked_name,rt,corr,feedback.started,feedback.stopped,trials.thisRepN,trials.thisTrialN,trials.thisN,trials.thisIndex,trials.ran,TrialID,StimulusType,Condition,PrimeDuration,Prime,Target,corrAns,Instructions_expt.started,Instructions_expt.stopped,key_resp_3.keys,instr_done_touch_3.x,instr_done_touch_3.y,instr_done_touch_3.leftButton,instr_done_touch_3.midButton,instr_done_touch_3.rightButton,instr_done_touch_3.clicked_name,instr_experiment.thisRepN,instr_experiment.thisTrialN,instr_experiment.thisN,instr_experiment.thisIndex,instr_experiment.ran,trialID,flag,maintask.started,maintask.stopped,key_resp_2.keys,key_resp_2.corr,key_resp_2.rt,key_resp_2.duration,targ_click.x,targ_click.y,targ_click.leftButton,targ_click.midButton,targ_click.rightButton,targ_click.time,targ_click.clicked_name,ITI.started,ITI.stopped,probe.started,probe.stopped,click_probe.x,click_probe.y,click_probe.leftButton,click_probe.midButton,click_probe.rightButton,click_probe.time,click_probe.clicked_name,key_resp_probe.keys,key_resp_probe.rt,key_resp_probe.duration,Break.started,Break.stopped,break_done_touch.x,break_done_touch.y,break_done_touch.leftButton,break_done_touch.midButton,break_done_touch.rightButton,break_done_keyboard.keys,list3_trials.thisRepN,list3_trials.thisTrialN,list3_trials.thisN,list3_trials.thisIndex,list3_trials.ran,list_id,item_type,string,font,stim_file,break_done_touch.clicked_name,End.started,End.stopped
list3,,0.3947,0.395,31793,001,2025-10-19_14h32.06.820,HW_LDT_1,2024.2.4,MacIntel,60.24096386,,,,,,,,,,,,,,,,,,,,,,,,,,,,,,,,,,,,,,,,,,,,,,,,,,,,,,,,,,,,,,,,,,,,,,,,,,,,,,,,,,,,,,,,,,,,,,,,,,,,,,,,,,,,,,,,,,,,,,
,,,,31793,001,2025-10-19_14h32.06.820,HW_LDT_1,2024.2.4,MacIntel,60.24096386,0.4156,44.039,,0.041141493,-0.426527778,1,0,0,instr_done_button,0,0,0,0,1,1,instructions,"INSTRUCTIONS
At the start of each trial, look at the plus sign  (+) in the center of the screen.  This tells you that a trial is about to begin and where to look. Second, the plus sign will disappear and a string of letters will appear. Your task is to determine if the string of letters is a word or not. If the item is a word press the M key (on keyboard)  or touch the word button (phone/tablet).  If the item is not a word,  press the  Z key (on keyboard)  or touch the nonword button (on phone/tablet). The items will be presented for a short time. 
Press the space bar or touch  continue.",0,,,,,,,,,,,,,,,,,,,,,,,,,,,,,,,,,,,,,,,,,,,,,,,,,,,,,,,,,,,,,,,,,,,,,,,,,,,,,,,,,,,,,,,,,,,,,,,,,,,,
,,,,31793,001,2025-10-19_14h32.06.820,HW_LDT_1,2024.2.4,MacIntel,60.24096386,44.0414,55.0704,,0.041141493,-0.425286458,1,0,0,instr_done_button,0,1,1,1,1,2,instructions,"If your device has a keyboard, press the 'Z' key for nonwords and the 'M' key for words.





Press the space bar or touch the button below to continue.",0,keyboard-example.gif,,,,,,,,,,,,,,,,,,,,,,,,,,,,,,,,,,,,,,,,,,,,,,,,,,,,,,,,,,,,,,,,,,,,,,,,,,,,,,,,,,,,,,,,,,,,,,,,,,,
,,,,31793,001,2025-10-19_14h32.06.820,HW_LDT_1,2024.2.4,MacIntel,60.24096386,55.0722,57.3051,space,0.03828559,-0.395,0,0,0,,0,2,2,2,1,3,instructions,"If you are using a touchscreen only device, use the buttons on the screen. Do not use the mouse.





Press the space bar or touch the button below to continue.",0,touchscreen-example.gif,2.2094,,,,,,,,,,,,,,,,,,,,,,,,,,,,,,,,,,,,,,,,,,,,,,,,,,,,,,,,,,,,,,,,,,,,,,,,,,,,,,,,,,,,,,,,,,,,,,,,,,
,,,,31793,001,2025-10-19_14h32.06.820,HW_LDT_1,2024.2.4,MacIntel,60.24096386,57.3073,67.2707,space,0.03828559,-0.395,0,0,0,,0,3,3,3,1,4,instructions,"It is very important that you respond as quickly and accurately as possible, as each letter string will only be on the screen for two seconds. If you do not respond within this time, the message 'Too slow!' will be displayed and the experiment will progress to the next letter string. The first 20 trials will be practice trials and you will receive feedback on your answers. 

Press the space bar or touch the button below to start the practice trials.",0,,9.9376,,,,,,,,,,,,,,,,,,,,,,,,,,,,,,,,,,,,,,,,,,,,,,,,,,,,,,,,,,,,,,,,,,,,,,,,,,,,,,,,,,,,,,,,,,,,,,,,,,
,,,,31793,001,2025-10-19_14h32.06.820,HW_LDT_1,2024.2.4,MacIntel,60.24096386,,,,,,,,,,,,,,,,,,,,,,67.299,67.4704,67.4706,67.9714,67.9718,69.7379,z,1,1.737,,[],[],[],[],[],[],[],1.737,1,69.7383,70.2373,0,0,0,8,1,1009,NW,"ID",33,aslert,ASLERT,z,,,,,,,,,,,,,,,,,,,,,,,,,,,,,,,,,,,,,,,,,,,,,,,,,,,,,,,,,,,,,,,,
,,,,31793,001,2025-10-19_14h32.06.820,HW_LDT_1,2024.2.4,MacIntel,60.24096386,,,,,,,,,,,,,,,,,,,,,,70.2385,70.4382,70.4383,70.938,70.9391,72.3047,z,1,1.3487,,[],[],[],[],[],[],[],1.3487,1,72.3049,72.8049,0,1,1,14,1,1015,NW,UN,16,miaber,THRALE,z,,,,,,,,,,,,,,,,,,,,,,,,,,,,,,,,,,,,,,,,,,,,,,,,,,,,,,,,,,,,,,,,
,,,,31793,001,2025-10-19_14h32.06.820,HW_LDT_1,2024.2.4,MacIntel,60.24096386,,,,,,,,,,,,,,,,,,,,,,72.8065,73.0046,73.0046,73.5046,73.5059,74.7047,m,1,1.1902,,[],[],[],[],[],[],[],1.1902,1,74.7048,75.2045,0,2,2,4,1,1005,WORD,UN,33,abound,SQUEAK,m,,,,,,,,,,,,,,,,,,,,,,,,,,,,,,,,,,,,,,,,,,,,,,,,,,,,,,,,,,,,,,,,
,,,,31793,001,2025-10-19_14h32.06.820,HW_LDT_1,2024.2.4,MacIntel,60.24096386,,,,,,,,,,,,,,,,,,,,,,75.2061,75.4046,75.4046,75.9037,75.9046,76.7047,m,1,0.7811,,[],[],[],[],[],[],[],0.7811,1,76.7049,77.2036,0,3,3,7,1,1008,WORD,UN,16,hurdle,VOLUME,m,,,,,,,,,,,,,,,,,,,,,,,,,,,,,,,,,,,,,,,,,,,,,,,,,,,,,,,,,,,,,,,,
,,,,31793,001,2025-10-19_14h32.06.820,HW_LDT_1,2024.2.4,MacIntel,60.24096386,,,,,,,,,,,,,,,,,,,,,,77.2049,77.4046,77.4047,77.9046,77.9056,78.7043,z,1,0.7901,,[],[],[],[],[],[],[],0.7901,1,78.7044,79.2039,0,4,4,9,1,1010,NW,"ID",33,fariny,FARINY,z,,,,,,,,,,,,,,,,,,,,,,,,,,,,,,,,,,,,,,,,,,,,,,,,,,,,,,,,,,,,,,,,
,,,,31793,001,2025-10-19_14h32.06.820,HW_LDT_1,2024.2.4,MacIntel,60.24096386,,,,,,,,,,,,,,,,,,,,,,79.205,79.4038,79.4038,79.9045,79.9056,80.4878,z,1,0.5733,,[],[],[],[],[],[],[],0.5733,1,80.4881,80.9879,0,5,5,13,1,1014,NW,UN,33,winfer,ROUPET,z,,,,,,,,,,,,,,,,,,,,,,,,,,,,,,,,,,,,,,,,,,,,,,,,,,,,,,,,,,,,,,,,
,,,,31793,001,2025-10-19_14h32.06.820,HW_LDT_1,2024.2.4,MacIntel,60.24096386,,,,,,,,,,,,,,,,,,,,,,80.9892,81.1868,81.1869,81.688,81.6894,82.6704,m,1,0.9741,,[],[],[],[],[],[],[],0.9741,1,82.6705,83.1709,0,6,6,6,1,1007,WORD,UN,16,tropic,ZOMBIE,m,,,,,,,,,,,,,,,,,,,,,,,,,,,,,,,,,,,,,,,,,,,,,,,,,,,,,,,,,,,,,,,,
,,,,31793,001,2025-10-19_14h32.06.820,HW_LDT_1,2024.2.4,MacIntel,60.24096386,,,,,,,,,,,,,,,,,,,,,,83.1723,83.3712,83.3712,83.8715,83.8727,84.7546,m,1,0.8729,,[],[],[],[],[],[],[],0.8729,1,84.7548,85.2544,0,7,7,3,1,1004,WORD,"ID",16,matrix,MATRIX,m,,,,,,,,,,,,,,,,,,,,,,,,,,,,,,,,,,,,,,,,,,,,,,,,,,,,,,,,,,,,,,,,
,,,,31793,001,2025-10-19_14h32.06.820,HW_LDT_1,2024.2.4,MacIntel,60.24096386,,,,,,,,,,,,,,,,,,,,,,85.256,85.4546,85.4546,85.9547,85.9558,87.1549,z,1,1.1794,,[],[],[],[],[],[],[],1.1794,1,87.1552,87.6546,0,8,8,10,1,1011,NW,"ID",16,inlade,INLADE,z,,,,,,,,,,,,,,,,,,,,,,,,,,,,,,,,,,,,,,,,,,,,,,,,,,,,,,,,,,,,,,,,
,,,,31793,001,2025-10-19_14h32.06.820,HW_LDT_1,2024.2.4,MacIntel,60.24096386,,,,,,,,,,,,,,,,,,,,,,87.6561,87.8546,87.8547,88.3536,88.3545,89.404,z,1,1.033,,[],[],[],[],[],[],[],1.033,1,89.4041,89.9047,0,9,9,12,1,1013,NW,UN,33,adveil,SPRINY,z,,,,,,,,,,,,,,,,,,,,,,,,,,,,,,,,,,,,,,,,,,,,,,,,,,,,,,,,,,,,,,,,
,,,,31793,001,2025-10-19_14h32.06.820,HW_LDT_1,2024.2.4,MacIntel,60.24096386,,,,,,,,,,,,,,,,,,,,,,89.9064,90.1047,90.1048,90.6037,90.6044,91.3712,m,1,0.7566,,[],[],[],[],[],[],[],0.7566,1,91.3714,91.8703,0,10,10,5,1,1006,WORD,UN,33,frenzy,OBTAIN,m,,,,,,,,,,,,,,,,,,,,,,,,,,,,,,,,,,,,,,,,,,,,,,,,,,,,,,,,,,,,,,,,
,,,,31793,001,2025-10-19_14h32.06.820,HW_LDT_1,2024.2.4,MacIntel,60.24096386,,,,,,,,,,,,,,,,,,,,,,91.8715,92.0715,92.0716,92.5714,92.5725,94.588,m,0,1.9965,,[],[],[],[],[],[],[],1.9965,0,94.589,95.0881,0,11,11,15,1,1016,NW,UN,16,mushed,WHAISE,z,,,,,,,,,,,,,,,,,,,,,,,,,,,,,,,,,,,,,,,,,,,,,,,,,,,,,,,,,,,,,,,,
,,,,31793,001,2025-10-19_14h32.06.820,HW_LDT_1,2024.2.4,MacIntel,60.24096386,,,,,,,,,,,,,,,,,,,,,,95.0895,95.2879,95.2879,95.7869,95.7876,96.6712,m,1,0.8752,,[],[],[],[],[],[],[],0.8752,1,96.6721,97.1713,0,12,12,2,1,1003,WORD,"ID",16,almond,ALMOND,m,,,,,,,,,,,,,,,,,,,,,,,,,,,,,,,,,,,,,,,,,,,,,,,,,,,,,,,,,,,,,,,,
,,,,31793,001,2025-10-19_14h32.06.820,HW_LDT_1,2024.2.4,MacIntel,60.24096386,,,,,,,,,,,,,,,,,,,,,,97.1726,97.3713,97.3714,97.8713,97.8721,100.587,m,1,2.6958,,[],[],[],[],[],[],[],2.6958,1,100.5872,101.0879,0,13,13,0,1,1001,WORD,"ID",33,utopia,UTOPIA,m,,,,,,,,,,,,,,,,,,,,,,,,,,,,,,,,,,,,,,,,,,,,,,,,,,,,,,,,,,,,,,,,
,,,,31793,001,2025-10-19_14h32.06.820,HW_LDT_1,2024.2.4,MacIntel,60.24096386,,,,,,,,,,,,,,,,,,,,,,101.0894,101.2882,101.2883,101.7878,101.7884,102.5713,m,1,0.7649,,[],[],[],[],[],[],[],0.7649,1,102.5714,103.0714,0,14,14,1,1,1002,WORD,"ID",33,adjust,ADJUST,m,,,,,,,,,,,,,,,,,,,,,,,,,,,,,,,,,,,,,,,,,,,,,,,,,,,,,,,,,,,,,,,,
,,,,31793,001,2025-10-19_14h32.06.820,HW_LDT_1,2024.2.4,MacIntel,60.24096386,,,,,,,,,,,,,,,,,,,,,,103.0729,103.2714,103.2715,103.7712,103.7722,104.5383,z,1,0.7456,,[],[],[],[],[],[],[],0.7456,1,104.5385,105.0381,0,15,15,11,1,1012,NW,"ID",16,rashet,RASHET,z,,,,,,,,,,,,,,,,,,,,,,,,,,,,,,,,,,,,,,,,,,,,,,,,,,,,,,,,,,,,,,,,
,,,,31793,001,2025-10-19_14h32.06.820,HW_LDT_1,2024.2.4,MacIntel,60.24096386,,,,,,,,,,,,,,,1,end_of_practice,"You have completed the practice trials. During the experimental trials, you will not receive feedback. On some trials you will be asked to report whether the item you just saw was in cursive or print. 
Before you begin, please ensure that you are in a comfortable and quiet location and will not be disturbed for about 15 minutes, as we cannot use your data if you do not complete all the trials. 
 When you are ready to start the experimental trials, please press space or touch the button below.",,,,,,,,,,,,,,,,,,,,,,,,,,,,,,,,,,,,,,105.045,121.6226,,-0.007322049,-0.415833333,1,0,0,,0,0,0,0,1,,,,,,,,,,,,,,,,,,,,,,,,,,,,,,,,,,,,,,,,,,,,,,,,,,
,,,,31793,001,2025-10-19_14h32.06.820,HW_LDT_1,2024.2.4,MacIntel,60.24096386,,,,,,,,,,,,,,,,,,,,,,121.6421,121.8212,121.8213,122.3211,,,,,,,,,,,,,,1.1354,1,,,,,,,,,,,,,,m,,,,,,,,,,,,,,,1,1,122.3219,123.472,m,1,1.1354,,[],[],[],[],[],[],[],123.4723,125.4709,125.4711,127.3219,[],[],[],[],[],[],[],m,1.8377,,127.3222,127.3252,0.092565104,-0.168541667,0,0,0,,0,0,0,129,1,3,word,PARENT,print,parent_p.png,,,
,,,,31793,001,2025-10-19_14h32.06.820,HW_LDT_1,2024.2.4,MacIntel,60.24096386,,,,,,,,,,,,,,,,,,,,,,127.3263,127.5214,127.5215,128.0214,,,,,,,,,,,,,,1.7201,1,,,,,,,,,,,,,,m,,,,,,,,,,,,,,,2,1,128.0222,129.7539,m,1,1.7201,,[],[],[],[],[],[],[],129.7541,131.7538,131.7538,132.8047,[],[],[],[],[],[],[],z,1.0386,,132.8049,132.805,0.092565104,-0.168541667,0,0,0,,0,1,1,136,1,3,word,RADICAL,cursive,radical_c.png,,,
,,,,31793,001,2025-10-19_14h32.06.820,HW_LDT_1,2024.2.4,MacIntel,60.24096386,,,,,,,,,,,,,,,,,,,,,,132.8066,133.0047,133.0048,133.5046,,,,,,,,,,,,,,1.6487,0,,,,,,,,,,,,,,m,,,,,,,,,,,,,,,3,0,133.5053,135.1549,z,0,1.6487,,[],[],[],[],[],[],[],135.155,137.1539,137.154,137.1542,[],[],[],[],[],[],[],,,,137.1543,137.1545,0.092565104,-0.168541667,0,0,0,,0,2,2,122,1,3,word,MOBILE,cursive,mobile_c.png,,,
,,,,31793,001,2025-10-19_14h32.06.820,HW_LDT_1,2024.2.4,MacIntel,60.24096386,,,,,,,,,,,,,,,,,,,,,,137.1561,137.3545,137.3546,137.854,,,,,,,,,,,,,,1.6536,1,,,,,,,,,,,,,,z,,,,,,,,,,,,,,,4,0,137.8547,139.5214,z,1,1.6536,,[],[],[],[],[],[],[],139.5215,141.5214,141.5215,141.5218,[],[],[],[],[],[],[],,,,141.5219,141.522,0.092565104,-0.168541667,0,0,0,,0,3,3,31,1,3,RL,trilude,print,trilude_p.png,,,
,,,,31793,001,2025-10-19_14h32.06.820,HW_LDT_1,2024.2.4,MacIntel,60.24096386,,,,,,,,,,,,,,,,,,,,,,141.5234,141.7213,141.7213,142.2211,,,,,,,,,,,,,,1.4324,1,,,,,,,,,,,,,,z,,,,,,,,,,,,,,,5,0,142.2214,143.6546,z,1,1.4324,,[],[],[],[],[],[],[],143.6547,145.6547,145.6547,145.6551,[],[],[],[],[],[],[],,,,145.6552,145.6553,0.092565104,-0.168541667,0,0,0,,0,4,4,28,1,3,RL,rovastic,cursive,rovastic_c.png,,,
,,,,31793,001,2025-10-19_14h32.06.820,HW_LDT_1,2024.2.4,MacIntel,60.24096386,,,,,,,,,,,,,,,,,,,,,,145.6568,145.8547,145.8547,146.3543,,,,,,,,,,,,,,1.7327,1,,,,,,,,,,,,,,m,,,,,,,,,,,,,,,6,0,146.3546,148.0878,m,1,1.7327,,[],[],[],[],[],[],[],148.088,150.088,150.0881,150.0885,[],[],[],[],[],[],[],,,,150.0885,150.0888,0.092565104,-0.168541667,0,0,0,,0,5,5,146,1,3,word,RETIRE,print,retire_p.png,,,
,,,,31793,001,2025-10-19_14h32.06.820,HW_LDT_1,2024.2.4,MacIntel,60.24096386,,,,,,,,,,,,,,,,,,,,,,150.0899,150.288,150.288,150.788,,,,,,,,,,,,,,0.8525,1,,,,,,,,,,,,,,m,,,,,,,,,,,,,,,7,0,150.7885,151.6547,m,1,0.8525,,[],[],[],[],[],[],[],151.6548,153.6546,153.6548,153.6551,[],[],[],[],[],[],[],,,,153.6551,153.6553,0.092565104,-0.168541667,0,0,0,,0,6,6,87,1,3,word,CAFETERIA,print,cafeteria_p.png,,,
,,,,31793,001,2025-10-19_14h32.06.820,HW_LDT_1,2024.2.4,MacIntel,60.24096386,,,,,,,,,,,,,,,,,,,,,,153.6568,153.8546,153.8546,154.3547,,,,,,,,,,,,,,1.4193,0,,,,,,,,,,,,,,z,,,,,,,,,,,,,,,8,1,154.3553,155.7881,m,0,1.4193,,[],[],[],[],[],[],[],155.7882,157.7881,157.7881,159.9047,[],[],[],[],[],[],[],z,2.1036,,159.9048,159.9051,0.092565104,-0.168541667,0,0,0,,0,7,7,37,1,3,TL,cacapity,cursive,cacapity_c.png,,,
,,,,31793,001,2025-10-19_14h32.06.820,HW_LDT_1,2024.2.4,MacIntel,60.24096386,,,,,,,,,,,,,,,,,,,,,,159.9064,160.1047,160.1047,160.6046,,,,,,,,,,,,,,1.486,1,,,,,,,,,,,,,,m,,,,,,,,,,,,,,,9,0,160.6052,162.1047,m,1,1.486,,[],[],[],[],[],[],[],162.1048,164.1048,164.1048,164.105,[],[],[],[],[],[],[],,,,164.1051,164.1053,0.092565104,-0.168541667,0,0,0,,0,8,8,159,1,3,word,VETERAN,cursive,veteran_c.png,,,
,,,,31793,001,2025-10-19_14h32.06.820,HW_LDT_1,2024.2.4,MacIntel,60.24096386,,,,,,,,,,,,,,,,,,,,,,164.1069,164.3045,164.3046,164.8046,,,,,,,,,,,,,,1.0796,0,,,,,,,,,,,,,,m,,,,,,,,,,,,,,,10,0,164.8052,165.8879,z,0,1.0796,,[],[],[],[],[],[],[],165.888,167.8879,167.888,167.8882,[],[],[],[],[],[],[],,,,167.8883,167.8885,0.092565104,-0.168541667,0,0,0,,0,9,9,114,1,3,word,LOCATE,cursive,locate_c.png,,,
,,,,31793,001,2025-10-19_14h32.06.820,HW_LDT_1,2024.2.4,MacIntel,60.24096386,,,,,,,,,,,,,,,,,,,,,,167.89,168.0881,168.0882,168.5875,,,,,,,,,,,,,,1.5915,1,,,,,,,,,,,,,,z,,,,,,,,,,,,,,,11,0,168.5881,170.1881,z,1,1.5915,,[],[],[],[],[],[],[],170.1881,172.1879,172.1879,172.1881,[],[],[],[],[],[],[],,,,172.1882,172.1883,0.092565104,-0.168541667,0,0,0,,0,10,10,60,1,3,TL,panert,print,panert_p.png,,,
,,,,31793,001,2025-10-19_14h32.06.820,HW_LDT_1,2024.2.4,MacIntel,60.24096386,,,,,,,,,,,,,,,,,,,,,,172.1894,172.388,172.388,172.888,,,,,,,,,,,,,,1.1866,0,,,,,,,,,,,,,,z,,,,,,,,,,,,,,,12,0,172.8886,174.0881,m,0,1.1866,,[],[],[],[],[],[],[],174.0882,176.0871,176.0872,176.0875,[],[],[],[],[],[],[],,,,176.0876,176.0877,0.092565104,-0.168541667,0,0,0,,0,11,11,45,1,3,TL,dentisy,print,dentisy_p.png,,,
,,,,31793,001,2025-10-19_14h32.06.820,HW_LDT_1,2024.2.4,MacIntel,60.24096386,,,,,,,,,,,,,,,,,,,,,,176.0892,176.2881,176.2881,176.788,,,,,,,,,,,,,,0.986,0,,,,,,,,,,,,,,z,,,,,,,,,,,,,,,13,0,176.7887,177.7881,m,0,0.986,,[],[],[],[],[],[],[],177.7881,179.7878,179.7878,179.7881,[],[],[],[],[],[],[],,,,179.7881,179.7883,0.092565104,-0.168541667,0,0,0,,0,12,12,49,1,3,TL,incidate,print,incidate_p.png,,,
,,,,31793,001,2025-10-19_14h32.06.820,HW_LDT_1,2024.2.4,MacIntel,60.24096386,,,,,,,,,,,,,,,,,,,,,,179.7897,179.9872,179.9873,180.4881,,,,,,,,,,,,,,0.7538,1,,,,,,,,,,,,,,m,,,,,,,,,,,,,,,14,0,180.4886,181.2548,m,1,0.7538,,[],[],[],[],[],[],[],181.2548,183.2539,183.2539,183.2542,[],[],[],[],[],[],[],,,,183.2542,183.2543,0.092565104,-0.168541667,0,0,0,,0,13,13,130,1,3,word,POLICY,print,policy_p.png,,,
,,,,31793,001,2025-10-19_14h32.06.820,HW_LDT_1,2024.2.4,MacIntel,60.24096386,,,,,,,,,,,,,,,,,,,,,,183.2554,183.4547,183.4547,183.9546,,,,,,,,,,,,,,0.7804,1,,,,,,,,,,,,,,m,,,,,,,,,,,,,,,15,0,183.9554,184.7379,m,1,0.7804,,[],[],[],[],[],[],[],184.7379,186.738,186.7381,186.7382,[],[],[],[],[],[],[],,,,186.7383,186.7384,0.092565104,-0.168541667,0,0,0,,0,14,14,151,1,3,word,SPECIFIC,print,specific_p.png,,,
,,,,31793,001,2025-10-19_14h32.06.820,HW_LDT_1,2024.2.4,MacIntel,60.24096386,,,,,,,,,,,,,,,,,,,,,,186.7396,186.9374,186.9374,187.4379,,,,,,,,,,,,,,1.1813,1,,,,,,,,,,,,,,m,,,,,,,,,,,,,,,16,0,187.4383,188.6213,m,1,1.1813,,[],[],[],[],[],[],[],188.6214,190.6205,190.6205,190.6207,[],[],[],[],[],[],[],,,,190.6207,190.6208,0.092309028,-0.168797743,0,0,0,,0,15,15,84,1,3,word,BELOVED,cursive,beloved_c.png,,,
,,,,31793,001,2025-10-19_14h32.06.820,HW_LDT_1,2024.2.4,MacIntel,60.24096386,,,,,,,,,,,,,,,,,,,,,,190.6219,190.8213,190.8214,191.3212,,,,,,,,,,,,,,1.3147,1,,,,,,,,,,,,,,m,,,,,,,,,,,,,,,17,0,191.3217,192.6381,m,1,1.3147,,[],[],[],[],[],[],[],192.6381,194.6381,194.6381,194.6384,[],[],[],[],[],[],[],,,,194.6386,194.6387,0.092309028,-0.168797743,0,0,0,,0,16,16,148,1,3,word,SALINE,cursive,saline_c.png,,,
,,,,31793,001,2025-10-19_14h32.06.820,HW_LDT_1,2024.2.4,MacIntel,60.24096386,,,,,,,,,,,,,,,,,,,,,,194.6402,194.838,194.8381,195.3379,,,,,,,,,,,,,,1.103,1,,,,,,,,,,,,,,m,,,,,,,,,,,,,,,18,0,195.3384,196.4548,m,1,1.103,,[],[],[],[],[],[],[],196.4548,198.4547,198.4548,198.4551,[],[],[],[],[],[],[],,,,198.4552,198.4553,0.092309028,-0.168797743,0,0,0,,0,17,17,100,1,3,word,DECADE,cursive,decade_c.png,,,
,,,,31793,001,2025-10-19_14h32.06.820,HW_LDT_1,2024.2.4,MacIntel,60.24096386,,,,,,,,,,,,,,,,,,,,,,198.4569,198.6547,198.6548,199.1546,,,,,,,,,,,,,,0.7982,1,,,,,,,,,,,,,,m,,,,,,,,,,,,,,,19,0,199.1552,199.9547,m,1,0.7982,,[],[],[],[],[],[],[],199.9548,201.9549,201.955,201.9552,[],[],[],[],[],[],[],,,,201.9553,201.9556,0.091536458,-0.168797743,0,0,0,,0,18,18,155,1,3,word,STRATEGY,print,strategy_p.png,,,
,,,,31793,001,2025-10-19_14h32.06.820,HW_LDT_1,2024.2.4,MacIntel,60.24096386,,,,,,,,,,,,,,,,,,,,,,201.9569,202.1546,202.1547,202.6548,,,,,,,,,,,,,,2.9129,0,,,,,,,,,,,,,,z,,,,,,,,,,,,,,,20,0,202.6555,205.5704,m,0,2.9129,,[],[],[],[],[],[],[],205.5705,207.5713,207.5714,207.5717,[],[],[],[],[],[],[],,,,207.5718,207.572,0.091280382,-0.168797743,0,0,0,,0,19,19,79,1,3,TL,veretan,cursive,veretan_c.png,,,
,,,,31793,001,2025-10-19_14h32.06.820,HW_LDT_1,2024.2.4,MacIntel,60.24096386,,,,,,,,,,,,,,,,,,,,,,207.5732,207.7714,207.7714,208.2713,,,,,,,,,,,,,,1.1155,1,,,,,,,,,,,,,,z,,,,,,,,,,,,,,,21,1,208.2719,209.3881,z,1,1.1155,,[],[],[],[],[],[],[],209.3882,211.388,211.3882,214.0883,[],[],[],[],[],[],[],z,2.6996,,214.0885,214.0886,0.091280382,-0.168797743,0,0,0,,0,20,20,66,1,3,TL,retalive,cursive,retalive_c.png,,,
,,,,31793,001,2025-10-19_14h32.06.820,HW_LDT_1,2024.2.4,MacIntel,60.24096386,,,,,,,,,,,,,,,,,,,,,,214.09,214.2881,214.2881,214.7881,,,,,,,,,,,,,,2.5316,1,,,,,,,,,,,,,,z,,,,,,,,,,,,,,,22,0,214.7887,217.3213,z,1,2.5316,,[],[],[],[],[],[],[],217.3215,219.3213,219.3215,219.3216,[],[],[],[],[],[],[],,,,219.3217,219.3219,0.091280382,-0.168797743,0,0,0,,0,21,21,1,1,3,RL,bewoted,cursive,bewoted_c.png,,,
,,,,31793,001,2025-10-19_14h32.06.820,HW_LDT_1,2024.2.4,MacIntel,60.24096386,,,,,,,,,,,,,,,,,,,,,,219.3233,219.5215,219.5215,220.0211,,,,,,,,,,,,,,1.0729,1,,,,,,,,,,,,,,z,,,,,,,,,,,,,,,23,0,220.0218,221.1048,z,1,1.0729,,[],[],[],[],[],[],[],221.105,223.1047,223.1048,223.105,[],[],[],[],[],[],[],,,,223.105,223.1051,0.091280382,-0.168797743,0,0,0,,0,22,22,48,1,3,TL,grafetul,cursive,grafetul_c.png,,,
,,,,31793,001,2025-10-19_14h32.06.820,HW_LDT_1,2024.2.4,MacIntel,60.24096386,,,,,,,,,,,,,,,,,,,,,,223.1062,223.3048,223.3049,223.8048,,,,,,,,,,,,,,1.485,1,,,,,,,,,,,,,,z,,,,,,,,,,,,,,,24,0,223.8054,225.3047,z,1,1.485,,[],[],[],[],[],[],[],225.3048,227.3047,227.3048,227.305,[],[],[],[],[],[],[],,,,227.3051,227.3053,0.091280382,-0.168797743,0,0,0,,0,23,23,29,1,3,RL,selamor,cursive,selamor_c.png,,,
,,,,31793,001,2025-10-19_14h32.06.820,HW_LDT_1,2024.2.4,MacIntel,60.24096386,,,,,,,,,,,,,,,,,,,,,,227.3067,227.5047,227.5047,228.0048,,,,,,,,,,,,,,1.5532,1,,,,,,,,,,,,,,z,,,,,,,,,,,,,,,25,0,228.0054,229.5712,z,1,1.5532,,[],[],[],[],[],[],[],229.5713,231.5714,231.5714,231.5718,[],[],[],[],[],[],[],,,,231.5718,231.5719,0.091280382,-0.168797743,0,0,0,,0,24,24,22,1,3,RL,procogal,print,procogal_p.png,,,
,,,,31793,001,2025-10-19_14h32.06.820,HW_LDT_1,2024.2.4,MacIntel,60.24096386,,,,,,,,,,,,,,,,,,,,,,231.5734,231.7714,231.7714,232.2714,,,,,,,,,,,,,,2.2972,1,,,,,,,,,,,,,,z,,,,,,,,,,,,,,,26,0,232.272,234.5714,z,1,2.2972,,[],[],[],[],[],[],[],234.5715,236.5714,236.5714,236.5717,[],[],[],[],[],[],[],,,,236.5718,236.572,0.091280382,-0.168797743,0,0,0,,0,25,25,19,1,3,RL,opcifal,cursive,opcifal_c.png,,,
,,,,31793,001,2025-10-19_14h32.06.820,HW_LDT_1,2024.2.4,MacIntel,60.24096386,,,,,,,,,,,,,,,,,,,,,,236.5734,236.7714,236.7714,237.2714,,,,,,,,,,,,,,1.2223,1,,,,,,,,,,,,,,z,,,,,,,,,,,,,,,27,0,237.2721,238.5044,z,1,1.2223,,[],[],[],[],[],[],[],238.5045,240.5047,240.5048,240.505,[],[],[],[],[],[],[],,,,240.5051,240.5052,0.091280382,-0.168797743,0,0,0,,0,26,26,6,1,3,RL,cenesony,cursive,cenesony_c.png,,,
,,,,31793,001,2025-10-19_14h32.06.820,HW_LDT_1,2024.2.4,MacIntel,60.24096386,,,,,,,,,,,,,,,,,,,,,,240.5067,240.7043,240.7044,241.2035,,,,,,,,,,,,,,1.417,1,,,,,,,,,,,,,,m,,,,,,,,,,,,,,,28,0,241.204,242.6216,m,1,1.417,,[],[],[],[],[],[],[],242.6218,244.6214,244.6215,244.6218,[],[],[],[],[],[],[],,,,244.6218,244.622,0.091280382,-0.168797743,0,0,0,,0,27,27,137,1,3,word,RAPIDLY,print,rapidly_p.png,,,
,,,,31793,001,2025-10-19_14h32.06.820,HW_LDT_1,2024.2.4,MacIntel,60.24096386,,,,,,,,,,,,,,,,,,,,,,244.6234,244.8208,244.8209,245.3214,,,,,,,,,,,,,,3.8691,1,,,,,,,,,,,,,,z,,,,,,,,,,,,,,,29,1,245.3219,249.2047,z,1,3.8691,,[],[],[],[],[],[],[],249.2048,251.2047,251.2047,252.7537,[],[],[],[],[],[],[],m,1.5414,,252.7537,252.7538,0.092092014,-0.168819444,0,0,0,,0,28,28,33,1,3,TL,adsivory,print,adsivory_p.png,,,
,,,,31793,001,2025-10-19_14h32.06.820,HW_LDT_1,2024.2.4,MacIntel,60.24096386,,,,,,,,,,,,,,,,,,,,,,252.7546,252.9548,252.9548,253.4544,,,,,,,,,,,,,,1.5863,1,,,,,,,,,,,,,,z,,,,,,,,,,,,,,,30,0,253.4546,255.0546,z,1,1.5863,,[],[],[],[],[],[],[],255.0547,257.0547,257.0548,257.0551,[],[],[],[],[],[],[],,,,257.0551,257.0552,0.092092014,-0.167725694,0,0,0,,0,29,29,70,1,3,TL,remuse,cursive,remuse_c.png,,,
,,,,31793,001,2025-10-19_14h32.06.820,HW_LDT_1,2024.2.4,MacIntel,60.24096386,,,,,,,,,,,,,,,,,,,,,,257.0567,257.2546,257.2547,257.7548,,,,,,,,,,,,,,1.0857,1,,,,,,,,,,,,,,m,,,,,,,,,,,,,,,31,0,257.7555,258.8548,m,1,1.0857,,[],[],[],[],[],[],[],258.8549,260.8548,260.8548,260.8549,[],[],[],[],[],[],[],,,,260.8549,260.855,0.092092014,-0.166944444,0,0,0,,0,30,30,113,1,3,word,LITERAL,print,literal_p.png,,,
,,,,31793,001,2025-10-19_14h32.06.820,HW_LDT_1,2024.2.4,MacIntel,60.24096386,,,,,,,,,,,,,,,,,,,,,,260.856,261.0547,261.0547,261.5538,,,,,,,,,,,,,,1.4202,1,,,,,,,,,,,,,,z,,,,,,,,,,,,,,,32,1,261.5543,262.9881,z,1,1.4202,,[],[],[],[],[],[],[],262.9882,264.9881,264.9881,266.7715,[],[],[],[],[],[],[],m,1.7818,,266.7715,266.7716,0.092092014,-0.166944444,0,0,0,,0,31,31,61,1,3,TL,pocily,print,pocily_p.png,,,
,,,,31793,001,2025-10-19_14h32.06.820,HW_LDT_1,2024.2.4,MacIntel,60.24096386,,,,,,,,,,,,,,,,,,,,,,266.7728,266.9714,266.9714,267.4713,,,,,,,,,,,,,,1.47,0,,,,,,,,,,,,,,z,,,,,,,,,,,,,,,33,0,267.4718,268.9549,m,0,1.47,,[],[],[],[],[],[],[],268.955,270.9547,270.9548,270.9551,[],[],[],[],[],[],[],,,,270.9552,270.9554,0.092092014,-0.166944444,0,0,0,,0,32,32,55,1,3,TL,mecidine,print,mecidine_p.png,,,
,,,,31793,001,2025-10-19_14h32.06.820,HW_LDT_1,2024.2.4,MacIntel,60.24096386,,,,,,,,,,,,,,,,,,,,,,270.9568,271.1547,271.1548,271.6546,,,,,,,,,,,,,,1.3892,1,,,,,,,,,,,,,,m,,,,,,,,,,,,,,,34,0,271.6552,273.0548,m,1,1.3892,,[],[],[],[],[],[],[],273.0548,275.0536,275.0536,275.0538,[],[],[],[],[],[],[],,,,275.0539,275.0539,0.094188368,-0.164275174,0,0,0,,0,33,33,135,1,3,word,QUALITY,print,quality_p.png,,,
,,,,31793,001,2025-10-19_14h32.06.820,HW_LDT_1,2024.2.4,MacIntel,60.24096386,,,,,,,,,,,,,,,,,,,,,,275.0548,275.2547,275.2547,275.7549,,,,,,,,,,,,,,1.6018,1,,,,,,,,,,,,,,z,,,,,,,,,,,,,,,35,0,275.7556,277.3714,z,1,1.6018,,[],[],[],[],[],[],[],277.3715,279.3714,279.3714,279.3717,[],[],[],[],[],[],[],,,,279.3717,279.3719,0.094188368,-0.164275174,0,0,0,,0,34,34,21,1,3,RL,potugar,print,potugar_p.png,,,
,,,,31793,001,2025-10-19_14h32.06.820,HW_LDT_1,2024.2.4,MacIntel,60.24096386,,,,,,,,,,,,,,,,,,,,,,279.3732,279.5715,279.5716,280.0714,,,,,,,,,,,,,,1.2867,1,,,,,,,,,,,,,,m,,,,,,,,,,,,,,,36,0,280.072,281.3714,m,1,1.2867,,[],[],[],[],[],[],[],281.3715,283.3715,283.3715,283.3718,[],[],[],[],[],[],[],,,,283.372,283.372,0.094188368,-0.163763021,0,0,0,,0,35,35,82,1,3,word,AMATEUR,print,amateur_p.png,,,
,,,,31793,001,2025-10-19_14h32.06.820,HW_LDT_1,2024.2.4,MacIntel,60.24096386,,,,,,,,,,,,,,,,,,,,,,283.373,283.5715,283.5716,284.0704,,,,,,,,,,,,,,1.4002,1,,,,,,,,,,,,,,z,,,,,,,,,,,,,,,37,0,284.0707,285.4716,z,1,1.4002,,[],[],[],[],[],[],[],285.4716,287.4714,287.4715,287.4717,[],[],[],[],[],[],[],,,,287.4719,287.4721,0.094188368,-0.163763021,0,0,0,,0,36,36,3,1,3,RL,bebine,cursive,bebine_c.png,,,
,,,,31793,001,2025-10-19_14h32.06.820,HW_LDT_1,2024.2.4,MacIntel,60.24096386,,,,,,,,,,,,,,,,,,,,,,287.4738,287.6714,287.6715,288.1714,,,,,,,,,,,,,,3.9526,1,,,,,,,,,,,,,,m,,,,,,,,,,,,,,,38,0,288.1721,292.1381,m,1,3.9526,,[],[],[],[],[],[],[],292.1382,294.138,294.1381,294.1383,[],[],[],[],[],[],[],,,,294.1384,294.1386,0.094192708,-0.163763021,0,0,0,,0,37,37,93,1,3,word,CEREMONY,cursive,ceremony_c.png,,,
,,,,31793,001,2025-10-19_14h32.06.820,HW_LDT_1,2024.2.4,MacIntel,60.24096386,,,,,,,,,,,,,,,,,,,,,,294.1399,294.338,294.3381,294.8381,,,,,,,,,,,,,,1.5379,1,,,,,,,,,,,,,,z,,,,,,,,,,,,,,,39,0,294.8386,296.3881,z,1,1.5379,,[],[],[],[],[],[],[],296.3881,298.3881,298.3881,298.3883,[],[],[],[],[],[],[],,,,298.3884,298.3884,0.094192708,-0.163763021,0,0,0,,0,38,38,9,1,3,RL,docirant,print,docirant_p.png,,,
,,,,31793,001,2025-10-19_14h32.06.820,HW_LDT_1,2024.2.4,MacIntel,60.24096386,,,,,,,,,,,,,,,,,,,,,,298.3898,298.5881,298.5881,299.0881,,,,,,,,,,,,,,1.6206,0,,,,,,,,,,,,,,m,,,,,,,,,,,,,,,40,0,299.0888,300.7215,z,0,1.6206,,[],[],[],[],[],[],[],300.7215,302.7214,302.7215,302.7217,[],[],[],[],[],[],[],,,,302.7218,302.7219,0.094192708,-0.163763021,0,0,0,,0,39,39,108,1,3,word,FORTUNE,cursive,fortune_c.png,,,
,,,,31793,001,2025-10-19_14h32.06.820,HW_LDT_1,2024.2.4,MacIntel,60.24096386,,,,,,,,,,,,,,,,,,,,,,302.7236,302.9214,302.9214,303.421,,,,,,,,,,,,,,0.9019,1,,,,,,,,,,,,,,m,,,,,,,,,,,,,,,41,0,303.4216,304.3381,m,1,0.9019,,[],[],[],[],[],[],[],304.3381,306.3382,306.3382,306.3385,[],[],[],[],[],[],[],,,,306.3386,306.3387,0.094192708,-0.163763021,0,0,0,,0,40,40,125,1,3,word,OPERATOR,print,operator_p.png,,,
,,,,31793,001,2025-10-19_14h32.06.820,HW_LDT_1,2024.2.4,MacIntel,60.24096386,,,,,,,,,,,,,,,,,,,,,,306.3402,306.538,306.5382,307.038,,,,,,,,,,,,,,0.7205,1,,,,,,,,,,,,,,m,,,,,,,,,,,,,,,42,1,307.0386,307.7714,m,1,0.7205,,[],[],[],[],[],[],[],307.7715,309.7714,309.7715,311.6208,[],[],[],[],[],[],[],m,1.8369,,311.6209,311.621,0.094192708,-0.163763021,0,0,0,,0,41,41,94,1,3,word,CLINICAL,print,clinical_p.png,,,
,,,,31793,001,2025-10-19_14h32.06.820,HW_LDT_1,2024.2.4,MacIntel,60.24096386,,,,,,,,,,,,,,,,,,,,,,311.6223,311.8212,311.8212,312.3214,,,,,,,,,,,,,,1.429,1,,,,,,,,,,,,,,z,,,,,,,,,,,,,,,43,0,312.322,313.7544,z,1,1.429,,[],[],[],[],[],[],[],313.7545,315.7547,315.7548,315.7549,[],[],[],[],[],[],[],,,,315.755,315.7552,0.094192708,-0.163763021,0,0,0,,0,42,42,25,1,3,RL,retupar,print,retupar_p.png,,,
,,,,31793,001,2025-10-19_14h32.06.820,HW_LDT_1,2024.2.4,MacIntel,60.24096386,,,,,,,,,,,,,,,,,,,,,,315.7561,315.9547,315.9548,316.4547,,,,,,,,,,,,,,0.8361,1,,,,,,,,,,,,,,m,,,,,,,,,,,,,,,44,0,316.4552,317.3048,m,1,0.8361,,[],[],[],[],[],[],[],317.3049,319.3045,319.3045,319.3047,[],[],[],[],[],[],[],,,,319.3048,319.3049,0.094192708,-0.163763021,0,0,0,,0,43,43,96,1,3,word,CONSIDER,print,consider_p.png,,,
,,,,31793,001,2025-10-19_14h32.06.820,HW_LDT_1,2024.2.4,MacIntel,60.24096386,,,,,,,,,,,,,,,,,,,,,,319.3064,319.5043,319.5043,320.0044,,,,,,,,,,,,,,1.7031,1,,,,,,,,,,,,,,m,,,,,,,,,,,,,,,45,0,320.0049,321.7216,m,1,1.7031,,[],[],[],[],[],[],[],321.7216,323.7215,323.7215,323.7219,[],[],[],[],[],[],[],,,,323.722,323.7221,0.094192708,-0.163763021,0,0,0,,0,44,44,80,1,3,word,ACADEMY,print,academy_p.png,,,
,,,,31793,001,2025-10-19_14h32.06.820,HW_LDT_1,2024.2.4,MacIntel,60.24096386,,,,,,,,,,,,,,,,,,,,,,323.7236,323.9215,323.9215,324.4214,,,,,,,,,,,,,,1.7554,1,,,,,,,,,,,,,,z,,,,,,,,,,,,,,,46,0,324.422,326.1882,z,1,1.7554,,[],[],[],[],[],[],[],326.1882,328.1882,328.1882,328.1884,[],[],[],[],[],[],[],,,,328.1885,328.1887,0.094192708,-0.163763021,0,0,0,,0,45,45,12,1,3,RL,formuke,cursive,formuke_c.png,,,
,,,,31793,001,2025-10-19_14h32.06.820,HW_LDT_1,2024.2.4,MacIntel,60.24096386,,,,,,,,,,,,,,,,,,,,,,328.1901,328.388,328.3881,328.8881,,,,,,,,,,,,,,2.7154,0,,,,,,,,,,,,,,m,,,,,,,,,,,,,,,47,0,328.8887,331.6048,z,0,2.7154,,[],[],[],[],[],[],[],331.605,333.6048,333.6049,333.605,[],[],[],[],[],[],[],,,,333.6051,333.6052,0.094192708,-0.163763021,0,0,0,,0,46,46,127,1,3,word,ORIGINAL,cursive,original_c.png,,,
,,,,31793,001,2025-10-19_14h32.06.820,HW_LDT_1,2024.2.4,MacIntel,60.24096386,,,,,,,,,,,,,,,,,,,,,,333.6068,333.8048,333.8048,334.3048,,,,,,,,,,,,,,3.2849,1,,,,,,,,,,,,,,m,,,,,,,,,,,,,,,48,0,334.3053,337.6037,m,1,3.2849,,[],[],[],[],[],[],[],337.6038,339.6048,339.6048,339.605,[],[],[],[],[],[],[],,,,339.605,339.6051,0.094192708,-0.163763021,0,0,0,,0,47,47,133,1,3,word,PROVIDE,print,provide_p.png,,,
,,,,31793,001,2025-10-19_14h32.06.820,HW_LDT_1,2024.2.4,MacIntel,60.24096386,,,,,,,,,,,,,,,,,,,,,,339.6064,339.8048,339.8048,340.3039,,,,,,,,,,,,,,2.2859,1,,,,,,,,,,,,,,z,,,,,,,,,,,,,,,49,0,340.3044,342.6037,z,1,2.2859,,[],[],[],[],[],[],[],342.6037,344.6037,344.6038,344.6039,[],[],[],[],[],[],[],,,,344.604,344.6041,0.094192708,-0.163763021,0,0,0,,0,48,48,54,1,3,TL,manire,cursive,manire_c.png,,,
,,,,31793,001,2025-10-19_14h32.06.820,HW_LDT_1,2024.2.4,MacIntel,60.24096386,,,,,,,,,,,,,,,,,,,,,,344.6053,344.8048,344.8049,345.3038,,,,,,,,,,,,,,1.5591,0,,,,,,,,,,,,,,z,,,,,,,,,,,,,,,50,0,345.3041,346.8704,m,0,1.5591,,[],[],[],[],[],[],[],346.8704,348.8714,348.8715,348.8716,[],[],[],[],[],[],[],,,,348.8717,348.8719,0.094192708,-0.163763021,0,0,0,,0,49,49,58,1,3,TL,nuremical,print,nuremical_p.png,,,
,,,,31793,001,2025-10-19_14h32.06.820,HW_LDT_1,2024.2.4,MacIntel,60.24096386,,,,,,,,,,,,,,,,,,,,,,348.8732,349.0705,349.0705,349.5704,,,,,,,,,,,,,,1.1872,1,,,,,,,,,,,,,,m,,,,,,,,,,,,,,,51,0,349.5708,350.7716,m,1,1.1872,,[],[],[],[],[],[],[],350.7717,352.7704,352.7705,352.7707,[],[],[],[],[],[],[],,,,352.7707,352.7708,0.094192708,-0.163763021,0,0,0,,0,50,50,95,1,3,word,COMEDY,print,comedy_p.png,,,
,,,,31793,001,2025-10-19_14h32.06.820,HW_LDT_1,2024.2.4,MacIntel,60.24096386,,,,,,,,,,,,,,,,,,,,,,352.772,352.9714,352.9714,353.4704,,,,,,,,,,,,,,3.2161,1,,,,,,,,,,,,,,z,,,,,,,,,,,,,,,52,0,353.4709,356.688,z,1,3.2161,,[],[],[],[],[],[],[],356.6881,358.6882,358.6883,358.6886,[],[],[],[],[],[],[],,,,358.6886,358.6888,0.094192708,-0.163763021,0,0,0,,0,51,51,53,1,3,TL,marnigal,print,marnigal_p.png,,,
,,,,31793,001,2025-10-19_14h32.06.820,HW_LDT_1,2024.2.4,MacIntel,60.24096386,,,,,,,,,,,,,,,,,,,,,,358.6901,358.8881,358.8881,359.387,,,,,,,,,,,,,,1.1211,1,,,,,,,,,,,,,,z,,,,,,,,,,,,,,,53,0,359.3875,360.5216,z,1,1.1211,,[],[],[],[],[],[],[],360.5217,362.5206,362.5206,362.5207,[],[],[],[],[],[],[],,,,362.5209,362.521,0.094192708,-0.163763021,0,0,0,,0,52,52,57,1,3,TL,moredate,cursive,moredate_c.png,,,
,,,,31793,001,2025-10-19_14h32.06.820,HW_LDT_1,2024.2.4,MacIntel,60.24096386,,,,,,,,,,,,,,,,,,,,,,362.5222,362.7215,362.7215,363.2215,,,,,,,,,,,,,,0.9318,0,,,,,,,,,,,,,,m,,,,,,,,,,,,,,,54,0,363.2222,364.1548,z,0,0.9318,,[],[],[],[],[],[],[],364.1549,366.1541,366.1541,366.1544,[],[],[],[],[],[],[],,,,366.1544,366.1544,0.094192708,-0.163763021,0,0,0,,0,53,53,88,1,3,word,CAMERA,cursive,camera_c.png,,,
,,,,31793,001,2025-10-19_14h32.06.820,HW_LDT_1,2024.2.4,MacIntel,60.24096386,,,,,,,,,,,,,,,,,,,,,,366.1559,366.3538,366.3538,366.8549,,,,,,,,,,,,,,1.1534,1,,,,,,,,,,,,,,m,,,,,,,,,,,,,,,55,1,366.8555,368.0215,m,1,1.1534,,[],[],[],[],[],[],[],368.0217,370.0213,370.0214,371.6549,[],[],[],[],[],[],[],m,1.6331,,371.6549,371.655,0.094192708,-0.163763021,0,0,0,,0,54,54,119,1,3,word,MEMORY,print,memory_p.png,,,
,,,,31793,001,2025-10-19_14h32.06.820,HW_LDT_1,2024.2.4,MacIntel,60.24096386,,,,,,,,,,,,,,,,,,,,,,371.6562,371.8538,371.8538,372.3548,,,,,,,,,,,,,,2.4818,1,,,,,,,,,,,,,,z,,,,,,,,,,,,,,,56,0,372.3554,374.8381,z,1,2.4818,,[],[],[],[],[],[],[],374.8382,376.8381,376.8381,376.8383,[],[],[],[],[],[],[],,,,376.8384,376.8386,0.094192708,-0.163763021,0,0,0,,0,55,55,5,1,3,RL,capefory,cursive,capefory_c.png,,,
,,,,31793,001,2025-10-19_14h32.06.820,HW_LDT_1,2024.2.4,MacIntel,60.24096386,,,,,,,,,,,,,,,,,,,,,,376.8398,377.0381,377.0381,377.5381,,,,,,,,,,,,,,2.6572,1,,,,,,,,,,,,,,z,,,,,,,,,,,,,,,57,0,377.5387,380.2048,z,1,2.6572,,[],[],[],[],[],[],[],380.2049,382.2043,382.2043,382.2045,[],[],[],[],[],[],[],,,,382.2046,382.2047,0.094192708,-0.163763021,0,0,0,,0,56,56,69,1,3,TL,redisent,cursive,redisent_c.png,,,
,,,,31793,001,2025-10-19_14h32.06.820,HW_LDT_1,2024.2.4,MacIntel,60.24096386,,,,,,,,,,,,,,,,,,,,,,382.206,382.4048,382.4049,382.9049,,,,,,,,,,,,,,1.4519,0,,,,,,,,,,,,,,m,,,,,,,,,,,,,,,58,0,382.9056,384.3705,z,0,1.4519,,[],[],[],[],[],[],[],384.3707,386.3714,386.3714,386.3716,[],[],[],[],[],[],[],,,,386.3716,386.3716,0.094192708,-0.163763021,0,0,0,,0,57,57,154,1,3,word,STORAGE,cursive,storage_c.png,,,
,,,,31793,001,2025-10-19_14h32.06.820,HW_LDT_1,2024.2.4,MacIntel,60.24096386,,,,,,,,,,,,,,,,,,,,,,386.3729,386.5702,386.5702,387.0715,,,,,,,,,,,,,,1.2362,1,,,,,,,,,,,,,,m,,,,,,,,,,,,,,,59,0,387.072,388.3215,m,1,1.2362,,[],[],[],[],[],[],[],388.3216,390.3213,390.3214,390.3216,[],[],[],[],[],[],[],,,,390.3217,390.3217,0.094192708,-0.163763021,0,0,0,,0,58,58,98,1,3,word,CRIMINAL,print,criminal_p.png,,,
,,,,31793,001,2025-10-19_14h32.06.820,HW_LDT_1,2024.2.4,MacIntel,60.24096386,,,,,,,,,,,,,,,,,,,,,,390.3231,390.5214,390.5215,391.0214,,,,,,,,,,,,,,1.3065,1,,,,,,,,,,,,,,m,,,,,,,,,,,,,,,60,1,391.0222,392.3382,m,1,1.3065,,[],[],[],[],[],[],[],392.3383,394.3381,394.3381,396.0548,[],[],[],[],[],[],[],z,1.7036,,396.0548,396.055,0.094192708,-0.163763021,0,0,0,,0,59,59,142,1,3,word,REMOTE,print,remote_p.png,,,
,,,,31793,001,2025-10-19_14h32.06.820,HW_LDT_1,2024.2.4,MacIntel,60.24096386,,,,,,,,,,,,,,,,,,,,,,396.0565,396.2549,396.2549,396.7549,,,,,,,,,,,,,,1.7736,0,,,,,,,,,,,,,,m,,,,,,,,,,,,,,,61,0,396.7556,398.5378,z,0,1.7736,,[],[],[],[],[],[],[],398.5379,400.5382,400.5382,400.5384,[],[],[],[],[],[],[],,,,400.5384,400.5386,0.094192708,-0.163763021,0,0,0,,0,60,60,123,1,3,word,MODERATE,cursive,moderate_c.png,,,
,,,,31793,001,2025-10-19_14h32.06.820,HW_LDT_1,2024.2.4,MacIntel,60.24096386,,,,,,,,,,,,,,,,,,,,,,400.5402,400.7382,400.7383,401.2368,,,,,,,,,,,,,,2.0159,1,,,,,,,,,,,,,,z,,,,,,,,,,,,,,,62,1,401.2371,403.2547,z,1,2.0159,,[],[],[],[],[],[],[],403.2548,405.2547,405.2548,406.7539,[],[],[],[],[],[],[],z,1.4864,,406.7539,406.7541,0.094192708,-0.163763021,0,0,0,,0,61,61,8,1,3,RL,cocewage,print,cocewage_p.png,,,
,,,,31793,001,2025-10-19_14h32.06.820,HW_LDT_1,2024.2.4,MacIntel,60.24096386,,,,,,,,,,,,,,,,,,,,,,406.7555,406.9549,406.9549,407.4537,,,,,,,,,,,,,,0.8708,0,,,,,,,,,,,,,,z,,,,,,,,,,,,,,,63,0,407.4542,408.338,m,0,0.8708,,[],[],[],[],[],[],[],408.3381,410.3381,410.3381,410.3383,[],[],[],[],[],[],[],,,,410.3383,410.3384,0.094192708,-0.163763021,0,0,0,,0,62,62,35,1,3,TL,cateferia,print,cateferia_p.png,,,
,,,,31793,001,2025-10-19_14h32.06.820,HW_LDT_1,2024.2.4,MacIntel,60.24096386,,,,,,,,,,,,,,,,,,,,,,410.3398,410.5381,410.5382,411.0381,,,,,,,,,,,,,,2.1371,1,,,,,,,,,,,,,,z,,,,,,,,,,,,,,,64,0,411.0387,413.1883,z,1,2.1371,,[],[],[],[],[],[],[],413.1885,415.1881,415.1882,415.1884,[],[],[],[],[],[],[],,,,415.1885,415.1886,0.094192708,-0.163763021,0,0,0,,0,63,63,72,1,3,TL,senmitent,print,senmitent_p.png,,,
,,,,31793,001,2025-10-19_14h32.06.820,HW_LDT_1,2024.2.4,MacIntel,60.24096386,,,,,,,,,,,,,,,,,,,,,,415.1901,415.3881,415.3882,415.8881,,,,,,,,,,,,,,5.031,1,,,,,,,,,,,,,,z,,,,,,,,,,,,,,,65,0,415.8886,420.9213,z,1,5.031,,[],[],[],[],[],[],[],420.9213,422.9215,422.9215,422.9218,[],[],[],[],[],[],[],,,,422.9218,422.9219,0.094192708,-0.163763021,0,0,0,,0,64,64,39,1,3,TL,clicinal,print,clicinal_p.png,,,
,,,,31793,001,2025-10-19_14h32.06.820,HW_LDT_1,2024.2.4,MacIntel,60.24096386,,,,,,,,,,,,,,,,,,,,,,422.9235,423.1214,423.1215,423.6214,,,,,,,,,,,,,,2.0865,1,,,,,,,,,,,,,,m,,,,,,,,,,,,,,,66,0,423.622,425.7215,m,1,2.0865,,[],[],[],[],[],[],[],425.7216,427.7215,427.7216,427.7217,[],[],[],[],[],[],[],,,,427.7218,427.7219,0.094192708,-0.163763021,0,0,0,,0,65,65,105,1,3,word,EDITOR,print,editor_p.png,,,
,,,,31793,001,2025-10-19_14h32.06.820,HW_LDT_1,2024.2.4,MacIntel,60.24096386,,,,,,,,,,,,,,,,,,,,,,427.7235,427.9207,427.9207,428.4214,,,,,,,,,,,,,,3.3821,1,,,,,,,,,,,,,,z,,,,,,,,,,,,,,,67,0,428.4219,431.8049,z,1,3.3821,,[],[],[],[],[],[],[],431.8051,433.8049,433.805,433.8053,[],[],[],[],[],[],[],,,,433.8054,433.8055,0.094192708,-0.163763021,0,0,0,,0,66,66,63,1,3,TL,racidal,cursive,racidal_c.png,,,
,,,,31793,001,2025-10-19_14h32.06.820,HW_LDT_1,2024.2.4,MacIntel,60.24096386,,,,,,,,,,,,,,,,,,,,,,433.8071,434.0048,434.0048,434.5049,,,,,,,,,,,,,,2.3526,0,,,,,,,,,,,,,,m,,,,,,,,,,,,,,,68,0,434.5054,436.8715,z,0,2.3526,,[],[],[],[],[],[],[],436.8715,438.8715,438.8715,438.8718,[],[],[],[],[],[],[],,,,438.8719,438.872,0.094192708,-0.163763021,0,0,0,,0,67,67,90,1,3,word,CAPITAL,cursive,capital_c.png,,,
,,,,31793,001,2025-10-19_14h32.06.820,HW_LDT_1,2024.2.4,MacIntel,60.24096386,,,,,,,,,,,,,,,,,,,,,,438.8734,439.0715,439.0715,439.5715,,,,,,,,,,,,,,1.6729,1,,,,,,,,,,,,,,z,,,,,,,,,,,,,,,69,1,439.5721,441.2548,z,1,1.6729,,[],[],[],[],[],[],[],441.2548,443.2548,443.2549,449.0886,[-0.23346354166666666],[-0.2861197916666667],[1],[0],[0],[5.8336000000237505],"[""button_left_probe""]",,,,449.0887,449.0888,-0.233463542,-0.286119792,1,0,0,,0,68,68,41,1,3,TL,crinimal,print,crinimal_p.png,,,
,,,,31793,001,2025-10-19_14h32.06.820,HW_LDT_1,2024.2.4,MacIntel,60.24096386,,,,,,,,,,,,,,,,,,,,,,449.09,449.2879,449.288,449.7879,,,,,,,,,,,,,,2.2158,1,,,,,,,,,,,,,,z,,,,,,,,,,,,,,,70,1,449.7884,452.0047,,0,,,[-0.23513020833333334],[-0.28643663194444446],[1],[0],[0],[2.2158000000119955],"[""button_left_main""]",452.0049,454.0045,454.0046,458.0049,[-0.231875],[-0.28868923611111114],[1],[0],[0],[4.000099999994063],"[""button_left_probe""]",,,,458.0049,458.0051,-0.231875,-0.288689236,1,0,0,,0,69,69,40,1,3,TL,condiser,print,condiser_p.png,,,
,,,,31793,001,2025-10-19_14h32.06.820,HW_LDT_1,2024.2.4,MacIntel,60.24096386,,,,,,,,,,,,,,,,,,,,,,458.0062,458.2049,458.2049,458.7048,,,,,,,,,,,,,,2.9824,1,,,,,,,,,,,,,,m,,,,,,,,,,,,,,,71,0,458.7053,461.6883,,0,,,[0.28380208333333334],[-0.31254774305555555],[1],[0],[0],[2.9824000000060096],"[""button_right_main""]",461.6883,463.6882,463.6883,463.6885,[],[],[],[],[],[],[],,,,463.6886,463.6887,0.282374132,-0.311571181,0,0,0,,0,70,70,117,1,3,word,MARINE,cursive,marine_c.png,,,
,,,,31793,001,2025-10-19_14h32.06.820,HW_LDT_1,2024.2.4,MacIntel,60.24096386,,,,,,,,,,,,,,,,,,,,,,463.69,463.8881,463.8881,464.3881,,,,,,,,,,,,,,1.6822,1,,,,,,,,,,,,,,m,,,,,,,,,,,,,,,72,0,464.3888,466.0717,,0,,,[0.30147135416666665],[-0.31472222222222224],[1],[0],[0],[1.6822000000179287],"[""button_right_main""]",466.0718,468.0716,468.0717,468.072,[],[],[],[],[],[],[],,,,468.072,468.0722,0.301471354,-0.314722222,0,0,0,,0,71,71,153,1,3,word,STOLEN,cursive,stolen_c.png,,,
,,,,31793,001,2025-10-19_14h32.06.820,HW_LDT_1,2024.2.4,MacIntel,60.24096386,,,,,,,,,,,,,,,,,,,,,,468.0736,468.2714,468.2714,468.7715,,,,,,,,,,,,,,1.1489,1,,,,,,,,,,,,,,m,,,,,,,,,,,,,,,73,0,468.772,469.9213,,0,,,[0.30147135416666665],[-0.31918402777777777],[1],[0],[0],[1.1489000000059377],"[""button_right_main""]",469.9214,471.9215,471.9215,471.9217,[],[],[],[],[],[],[],,,,471.9218,471.9219,0.301618924,-0.319483507,0,0,0,,0,72,72,101,1,3,word,DELICATE,print,delicate_p.png,,,
,,,,31793,001,2025-10-19_14h32.06.820,HW_LDT_1,2024.2.4,MacIntel,60.24096386,,,,,,,,,,,,,,,,,,,,,,471.9233,472.1204,472.1205,472.6215,,,,,,,,,,,,,,4.3657,1,,,,,,,,,,,,,,z,,,,,,,,,,,,,,,74,0,472.6219,476.9883,,0,,,[-0.30420138888888887],[-0.26179253472222225],[1],[0],[0],[4.36570000001791],"[""button_left_main""]",476.9883,478.9882,478.9882,478.9886,[],[],[],[],[],[],[],,,,478.9886,478.9888,-0.304201389,-0.261927083,0,0,0,,0,73,73,73,1,3,TL,speficic,print,speficic_p.png,,,
,,,,31793,001,2025-10-19_14h32.06.820,HW_LDT_1,2024.2.4,MacIntel,60.24096386,,,,,,,,,,,,,,,,,,,,,,478.9904,479.1881,479.1882,479.6871,,,,,,,,,,,,,,3.2334,0,,,,,,,,,,,,,,z,,,,,,,,,,,,,,,75,1,479.6876,482.9215,,0,,,[0.26510850694444443],[-0.3385546875],[1],[0],[0],[3.2333999999762],"[""button_right_main""]",482.9216,484.9214,484.9215,486.487,[-0.33601128472222225],[-0.2899565972222222],[1],[0],[0],[1.5652999999821304],"[""button_left_probe""]",,,,486.487,486.487,-0.336011285,-0.289956597,1,0,0,,0,74,74,76,1,3,TL,stogare,cursive,stogare_c.png,,,
,,,,31793,001,2025-10-19_14h32.06.820,HW_LDT_1,2024.2.4,MacIntel,60.24096386,,,,,,,,,,,,,,,,,,,,,,486.4877,486.6882,486.6882,487.1883,,,,,,,,,,,,,,2.0323,1,,,,,,,,,,,,,,m,,,,,,,,,,,,,,,76,0,487.1887,489.2216,,0,,,[0.2941753472222222],[-0.296640625],[1],[0],[0],[2.032300000011901],"[""button_right_main""]",489.2216,491.2215,491.2216,491.2218,[],[],[],[],[],[],[],,,,491.2219,491.2219,0.048932292,-0.261015625,0,0,0,,0,75,75,103,1,3,word,DISPUTE,print,dispute_p.png,,,
,,,,31793,001,2025-10-19_14h32.06.820,HW_LDT_1,2024.2.4,MacIntel,60.24096386,,,,,,,,,,,,,,,,,,,,,,491.2233,491.4214,491.4215,491.9214,,,,,,,,,,,,,,2.1491,1,,,,,,,,,,,,,,z,,,,,,,,,,,,,,,77,0,491.9219,494.0715,,0,,,[-0.3284201388888889],[-0.26936197916666665],[1],[0],[0],[2.149099999994064],"[""button_left_main""]",494.0715,496.0711,496.0712,496.0714,[],[],[],[],[],[],[],,,,496.0715,496.0716,-0.328420139,-0.269361979,0,0,0,,0,76,76,59,1,3,TL,paficic,cursive,paficic_c.png,,,
,,,,31793,001,2025-10-19_14h32.06.820,HW_LDT_1,2024.2.4,MacIntel,60.24096386,,,,,,,,,,,,,,,,,,,,,,496.0726,496.2715,496.2716,496.7714,,,,,,,,,,,,,,1.0989,1,,,,,,,,,,,,,,m,,,,,,,,,,,,,,,78,1,496.772,497.8713,,0,,,[0.3112847222222222],[-0.34044704861111114],[1],[0],[0],[1.0989000000058695],"[""button_right_main""]",497.8714,499.8716,499.8716,503.805,[-0.3183246527777778],[-0.29870225694444447],[1],[0],[0],[3.933099999993942],"[""button_left_probe""]",,,,503.8051,503.8052,-0.318324653,-0.298702257,1,0,0,,0,77,77,141,1,3,word,RELIGION,print,religion_p.png,,,
,,,,31793,001,2025-10-19_14h32.06.820,HW_LDT_1,2024.2.4,MacIntel,60.24096386,,,,,,,,,,,,,,,,,,,,,,503.8064,504.0049,504.0049,504.5047,,,,,,,,,,,,,,3.9993,0,,,,,,,,,,,,,,m,,,,,,,,,,,,,,,79,0,504.505,508.5048,,0,,,[-0.29031684027777777],[-0.24065538194444444],[1],[0],[0],[3.9992999999820995],"[""button_left_main""]",508.505,510.5049,510.5049,510.5053,[],[],[],[],[],[],[],,,,510.5053,510.5054,-0.29031684,-0.240789931,0,0,0,,0,78,78,150,1,3,word,SENTIMENT,print,sentiment_p.png,,,
,,,,31793,001,2025-10-19_14h32.06.820,HW_LDT_1,2024.2.4,MacIntel,60.24096386,,,,,,,,,,,,,,,,,,,,,,510.5069,510.705,510.705,511.2038,,,,,,,,,,,,,,1.8166,1,,,,,,,,,,,,,,z,,,,,,,,,,,,,,,80,1,511.2043,513.0213,,0,,,[-0.291171875],[-0.2446831597222222],[1],[0],[0],[1.8165999999940823],"[""button_left_main""]",513.0214,515.0212,515.0213,517.3049,[-0.31453125],[-0.32818142361111113],[1],[0],[0],[2.283599999993953],"[""button_left_probe""]",,,,517.3051,746.8845,-0.049756944,-0.430998264,1,0,0,,0,79,79,11,1,3,RL,ebiwent,cursive,ebiwent_c.png,break_done_button,,
,,,,31793,001,2025-10-19_14h32.06.820,HW_LDT_1,2024.2.4,MacIntel,60.24096386,,,,,,,,,,,,,,,,,,,,,,746.8871,747.084,747.084,747.583,,,,,,,,,,,,,,4.1377,0,,,,,,,,,,,,,,m,,,,,,,,,,,,,,,81,0,747.5837,751.734,z,0,4.1377,,[],[],[],[],[],[],[],751.7341,753.7339,753.7341,753.7344,[],[],[],[],[],[],[],,,,753.7344,753.7345,0.02859809,-0.208797743,0,0,0,,0,80,80,140,1,3,word,RELATIVE,cursive,relative_c.png,,,
,,,,31793,001,2025-10-19_14h32.06.820,HW_LDT_1,2024.2.4,MacIntel,60.24096386,,,,,,,,,,,,,,,,,,,,,,753.7361,753.9339,753.934,754.4339,,,,,,,,,,,,,,3.0694,1,,,,,,,,,,,,,,m,,,,,,,,,,,,,,,82,0,754.4347,757.5173,m,1,3.0694,,[],[],[],[],[],[],[],757.5174,759.5173,759.5173,759.5176,[],[],[],[],[],[],[],,,,759.5177,759.5178,0.02859809,-0.208797743,0,0,0,,0,81,81,143,1,3,word,REMOVAL,cursive,removal_c.png,,,
,,,,31793,001,2025-10-19_14h32.06.820,HW_LDT_1,2024.2.4,MacIntel,60.24096386,,,,,,,,,,,,,,,,,,,,,,759.5193,759.7168,759.7169,760.2174,,,,,,,,,,,,,,0.9235,1,,,,,,,,,,,,,,z,,,,,,,,,,,,,,,83,0,760.218,761.1505,z,1,0.9235,,[],[],[],[],[],[],[],761.1507,763.1505,763.1506,763.1508,[],[],[],[],[],[],[],,,,763.1508,763.151,0.02859809,-0.208797743,0,0,0,,0,82,82,10,1,3,RL,efibor,print,efibor_p.png,,,
,,,,31793,001,2025-10-19_14h32.06.820,HW_LDT_1,2024.2.4,MacIntel,60.24096386,,,,,,,,,,,,,,,,,,,,,,763.1527,763.35,763.3501,763.8506,,,,,,,,,,,,,,2.5153,0,,,,,,,,,,,,,,m,,,,,,,,,,,,,,,84,0,763.8513,766.3675,z,0,2.5153,,[],[],[],[],[],[],[],766.3676,768.3672,768.3673,768.3675,[],[],[],[],[],[],[],,,,768.3677,768.3677,0.02859809,-0.208797743,0,0,0,,0,83,83,144,1,3,word,RESIDENT,cursive,resident_c.png,,,
,,,,31793,001,2025-10-19_14h32.06.820,HW_LDT_1,2024.2.4,MacIntel,60.24096386,,,,,,,,,,,,,,,,,,,,,,768.3692,768.5671,768.5672,769.0672,,,,,,,,,,,,,,2.7567,1,,,,,,,,,,,,,,z,,,,,,,,,,,,,,,85,0,769.0678,771.8341,z,1,2.7567,,[],[],[],[],[],[],[],771.8342,773.8339,773.8339,773.834,[],[],[],[],[],[],[],,,,773.8341,773.8342,0.02859809,-0.208797743,0,0,0,,0,84,84,64,1,3,TL,radiply,print,radiply_p.png,,,
,,,,31793,001,2025-10-19_14h32.06.820,HW_LDT_1,2024.2.4,MacIntel,60.24096386,,,,,,,,,,,,,,,,,,,,,,773.8357,774.033,774.0331,774.534,,,,,,,,,,,,,,1.3985,1,,,,,,,,,,,,,,z,,,,,,,,,,,,,,,86,0,774.5346,775.9339,z,1,1.3985,,[],[],[],[],[],[],[],775.9341,777.934,777.934,777.9342,[],[],[],[],[],[],[],,,,777.9343,777.9344,0.02859809,-0.208797743,0,0,0,,0,85,85,2,1,3,RL,betemit,print,betemit_p.png,,,
,,,,31793,001,2025-10-19_14h32.06.820,HW_LDT_1,2024.2.4,MacIntel,60.24096386,,,,,,,,,,,,,,,,,,,,,,777.9358,778.1341,778.1341,778.6336,,,,,,,,,,,,,,3.0628,1,,,,,,,,,,,,,,z,,,,,,,,,,,,,,,87,0,778.6339,781.7003,z,1,3.0628,,[],[],[],[],[],[],[],781.7004,783.7006,783.7006,783.7008,[],[],[],[],[],[],[],,,,783.7008,783.7009,0.02859809,-0.208797743,0,0,0,,0,86,86,34,1,3,TL,aminal,cursive,aminal_c.png,,,
,,,,31793,001,2025-10-19_14h32.06.820,HW_LDT_1,2024.2.4,MacIntel,60.24096386,,,,,,,,,,,,,,,,,,,,,,783.702,783.9006,783.9006,784.4006,,,,,,,,,,,,,,2.8697,1,,,,,,,,,,,,,,z,,,,,,,,,,,,,,,88,0,784.4012,787.2839,z,1,2.8697,,[],[],[],[],[],[],[],787.284,789.284,789.284,789.2842,[],[],[],[],[],[],[],,,,789.2843,789.2844,0.02859809,-0.208797743,0,0,0,,0,87,87,38,1,3,TL,carnidal,print,carnidal_p.png,,,
,,,,31793,001,2025-10-19_14h32.06.820,HW_LDT_1,2024.2.4,MacIntel,60.24096386,,,,,,,,,,,,,,,,,,,,,,789.2858,789.4839,789.4839,789.9838,,,,,,,,,,,,,,1.6319,1,,,,,,,,,,,,,,m,,,,,,,,,,,,,,,89,1,789.9843,791.6171,m,1,1.6319,,[],[],[],[],[],[],[],791.6172,793.6173,793.6173,795.3009,[],[],[],[],[],[],[],m,1.6714,,795.301,795.3011,0.02859809,-0.208797743,0,0,0,,0,88,88,134,1,3,word,QUALIFY,print,qualify_p.png,,,
,,,,31793,001,2025-10-19_14h32.06.820,HW_LDT_1,2024.2.4,MacIntel,60.24096386,,,,,,,,,,,,,,,,,,,,,,795.3023,795.5006,795.5006,796.0001,,,,,,,,,,,,,,1.4537,1,,,,,,,,,,,,,,z,,,,,,,,,,,,,,,90,0,796.0006,797.4664,z,1,1.4537,,[],[],[],[],[],[],[],797.4665,799.4674,799.4674,799.4677,[],[],[],[],[],[],[],,,,799.4678,799.4678,0.02859809,-0.208797743,0,0,0,,0,89,89,26,1,3,RL,repifion,print,repifion_p.png,,,
,,,,31793,001,2025-10-19_14h32.06.820,HW_LDT_1,2024.2.4,MacIntel,60.24096386,,,,,,,,,,,,,,,,,,,,,,799.4693,799.6662,799.6663,800.1674,,,,,,,,,,,,,,1.6476,1,,,,,,,,,,,,,,z,,,,,,,,,,,,,,,91,0,800.1681,801.8171,z,1,1.6476,,[],[],[],[],[],[],[],801.8172,803.8172,803.8172,803.8174,[],[],[],[],[],[],[],,,,803.8175,803.8176,0.02859809,-0.208797743,0,0,0,,0,90,90,13,1,3,RL,helicage,cursive,helicage_c.png,,,
,,,,31793,001,2025-10-19_14h32.06.820,HW_LDT_1,2024.2.4,MacIntel,60.24096386,,,,,,,,,,,,,,,,,,,,,,803.8187,804.0172,804.0173,804.5173,,,,,,,,,,,,,,1.1821,1,,,,,,,,,,,,,,z,,,,,,,,,,,,,,,92,0,804.5179,805.7009,z,1,1.1821,,[],[],[],[],[],[],[],805.7009,807.6996,807.6997,807.7,[],[],[],[],[],[],[],,,,807.7001,807.7002,0.02859809,-0.208797743,0,0,0,,0,91,91,46,1,3,TL,distupe,print,distupe_p.png,,,
,,,,31793,001,2025-10-19_14h32.06.820,HW_LDT_1,2024.2.4,MacIntel,60.24096386,,,,,,,,,,,,,,,,,,,,,,807.7017,807.9005,807.9006,808.4006,,,,,,,,,,,,,,1.7571,1,,,,,,,,,,,,,,z,,,,,,,,,,,,,,,93,1,808.4011,810.1674,z,1,1.7571,,[],[],[],[],[],[],[],810.1675,812.1674,812.1674,813.5507,[],[],[],[],[],[],[],z,1.3703,,813.5508,813.5509,0.02859809,-0.208797743,0,0,0,,0,92,92,36,1,3,TL,carema,cursive,carema_c.png,,,
,,,,31793,001,2025-10-19_14h32.06.820,HW_LDT_1,2024.2.4,MacIntel,60.24096386,,,,,,,,,,,,,,,,,,,,,,813.5524,813.7506,813.7507,814.2506,,,,,,,,,,,,,,1.3319,1,,,,,,,,,,,,,,z,,,,,,,,,,,,,,,94,0,814.2512,815.584,z,1,1.3319,,[],[],[],[],[],[],[],815.584,817.584,817.5841,817.5844,[],[],[],[],[],[],[],,,,817.5844,817.5846,0.02859809,-0.208797743,0,0,0,,0,93,93,71,1,3,TL,sanile,cursive,sanile_c.png,,,
,,,,31793,001,2025-10-19_14h32.06.820,HW_LDT_1,2024.2.4,MacIntel,60.24096386,,,,,,,,,,,,,,,,,,,,,,817.5861,817.7839,817.784,818.2832,,,,,,,,,,,,,,3.1862,1,,,,,,,,,,,,,,m,,,,,,,,,,,,,,,95,0,818.2838,821.4841,m,1,3.1862,,[],[],[],[],[],[],[],821.4842,823.484,823.484,823.4842,[],[],[],[],[],[],[],,,,823.4842,823.4843,0.02859809,-0.208797743,0,0,0,,0,94,94,118,1,3,word,MEDICINE,print,medicine_p.png,,,
,,,,31793,001,2025-10-19_14h32.06.820,HW_LDT_1,2024.2.4,MacIntel,60.24096386,,,,,,,,,,,,,,,,,,,,,,823.4858,823.6841,823.6841,824.184,,,,,,,,,,,,,,3.2653,1,,,,,,,,,,,,,,m,,,,,,,,,,,,,,,96,0,824.1846,827.4509,m,1,3.2653,,[],[],[],[],[],[],[],827.4509,829.4507,829.4508,829.451,[],[],[],[],[],[],[],,,,829.4511,829.4512,0.02859809,-0.208797743,0,0,0,,0,95,95,124,1,3,word,NUMERICAL,print,numerical_p.png,,,
,,,,31793,001,2025-10-19_14h32.06.820,HW_LDT_1,2024.2.4,MacIntel,60.24096386,,,,,,,,,,,,,,,,,,,,,,829.4525,829.6506,829.6506,830.1506,,,,,,,,,,,,,,4.4532,1,,,,,,,,,,,,,,m,,,,,,,,,,,,,,,97,1,830.1512,834.6165,m,1,4.4532,,[],[],[],[],[],[],[],834.6166,836.6173,836.6173,837.6508,[],[],[],[],[],[],[],z,1.0207,,837.6509,837.6512,0.02859809,-0.208797743,0,0,0,,0,96,96,145,1,3,word,RESUME,cursive,resume_c.png,,,
,,,,31793,001,2025-10-19_14h32.06.820,HW_LDT_1,2024.2.4,MacIntel,60.24096386,,,,,,,,,,,,,,,,,,,,,,837.6526,837.8507,837.8507,838.3507,,,,,,,,,,,,,,1.3703,1,,,,,,,,,,,,,,z,,,,,,,,,,,,,,,98,0,838.3512,839.7331,z,1,1.3703,,[],[],[],[],[],[],[],839.7332,841.7334,841.7335,841.7337,[],[],[],[],[],[],[],,,,841.7338,841.7339,0.02859809,-0.208797743,0,0,0,,0,97,97,50,1,3,TL,lirebal,print,lirebal_p.png,,,
,,,,31793,001,2025-10-19_14h32.06.820,HW_LDT_1,2024.2.4,MacIntel,60.24096386,,,,,,,,,,,,,,,,,,,,,,841.7353,841.9339,841.9341,842.4339,,,,,,,,,,,,,,2.5883,1,,,,,,,,,,,,,,m,,,,,,,,,,,,,,,99,0,842.4345,845.0342,m,1,2.5883,,[],[],[],[],[],[],[],845.0343,847.0341,847.0341,847.0343,[],[],[],[],[],[],[],,,,847.0344,847.0345,0.02859809,-0.208797743,0,0,0,,0,98,98,156,1,3,word,TRIBUTE,print,tribute_p.png,,,
,,,,31793,001,2025-10-19_14h32.06.820,HW_LDT_1,2024.2.4,MacIntel,60.24096386,,,,,,,,,,,,,,,,,,,,,,847.036,847.2339,847.234,847.7332,,,,,,,,,,,,,,1.3247,1,,,,,,,,,,,,,,z,,,,,,,,,,,,,,,100,0,847.7337,849.0673,z,1,1.3247,,[],[],[],[],[],[],[],849.0675,851.0674,851.0675,851.0677,[],[],[],[],[],[],[],,,,851.0677,851.0678,0.02859809,-0.208797743,0,0,0,,0,99,99,20,1,3,RL,orimipal,cursive,orimipal_c.png,,,
,,,,31793,001,2025-10-19_14h32.06.820,HW_LDT_1,2024.2.4,MacIntel,60.24096386,,,,,,,,,,,,,,,,,,,,,,851.0692,851.2675,851.2675,851.7674,,,,,,,,,,,,,,0.9861,1,,,,,,,,,,,,,,z,,,,,,,,,,,,,,,101,0,851.768,852.7674,z,1,0.9861,,[],[],[],[],[],[],[],852.7674,854.7673,854.7673,854.7676,[],[],[],[],[],[],[],,,,854.7676,854.7677,0.02859809,-0.208797743,0,0,0,,0,100,100,42,1,3,TL,detabe,cursive,detabe_c.png,,,
,,,,31793,001,2025-10-19_14h32.06.820,HW_LDT_1,2024.2.4,MacIntel,60.24096386,,,,,,,,,,,,,,,,,,,,,,854.7688,854.9673,854.9673,855.467,,,,,,,,,,,,,,1.6372,1,,,,,,,,,,,,,,m,,,,,,,,,,,,,,,102,0,855.4673,857.1175,m,1,1.6372,,[],[],[],[],[],[],[],857.1177,859.1173,859.1174,859.1176,[],[],[],[],[],[],[],,,,859.1176,859.1178,0.02859809,-0.208797743,0,0,0,,0,101,101,112,1,3,word,LIBERAL,print,liberal_p.png,,,
,,,,31793,001,2025-10-19_14h32.06.820,HW_LDT_1,2024.2.4,MacIntel,60.24096386,,,,,,,,,,,,,,,,,,,,,,859.1193,859.3173,859.3173,859.8173,,,,,,,,,,,,,,1.0524,1,,,,,,,,,,,,,,z,,,,,,,,,,,,,,,103,0,859.8179,860.8834,z,1,1.0524,,[],[],[],[],[],[],[],860.8834,862.884,862.8841,862.8843,[],[],[],[],[],[],[],,,,862.8843,862.8844,0.02859809,-0.208797743,0,0,0,,0,102,102,78,1,3,TL,vecolity,cursive,vecolity_c.png,,,
,,,,31793,001,2025-10-19_14h32.06.820,HW_LDT_1,2024.2.4,MacIntel,60.24096386,,,,,,,,,,,,,,,,,,,,,,862.8859,863.0841,863.0841,863.584,,,,,,,,,,,,,,3.2222,1,,,,,,,,,,,,,,m,,,,,,,,,,,,,,,104,0,863.5845,866.8172,m,1,3.2222,,[],[],[],[],[],[],[],866.8173,868.8172,868.8172,868.8174,[],[],[],[],[],[],[],,,,868.8175,868.8176,0.02859809,-0.208797743,0,0,0,,0,103,103,111,1,3,word,INDICATE,print,indicate_p.png,,,
,,,,31793,001,2025-10-19_14h32.06.820,HW_LDT_1,2024.2.4,MacIntel,60.24096386,,,,,,,,,,,,,,,,,,,,,,868.8188,869.0173,869.0174,869.517,,,,,,,,,,,,,,1.2248,1,,,,,,,,,,,,,,m,,,,,,,,,,,,,,,105,0,869.5174,870.7508,m,1,1.2248,,[],[],[],[],[],[],[],870.7508,872.7506,872.7507,872.7508,[],[],[],[],[],[],[],,,,872.7509,872.7511,0.02859809,-0.208797743,0,0,0,,0,104,104,132,1,3,word,PROPOSAL,print,proposal_p.png,,,
,,,,31793,001,2025-10-19_14h32.06.820,HW_LDT_1,2024.2.4,MacIntel,60.24096386,,,,,,,,,,,,,,,,,,,,,,872.7526,872.9503,872.9503,873.4507,,,,,,,,,,,,,,1.3314,1,,,,,,,,,,,,,,m,,,,,,,,,,,,,,,106,0,873.4513,874.7839,m,1,1.3314,,[],[],[],[],[],[],[],874.784,876.784,876.7841,876.7843,[],[],[],[],[],[],[],,,,876.7844,876.7845,0.02859809,-0.208797743,0,0,0,,0,105,105,81,1,3,word,ADVISORY,print,advisory_p.png,,,
,,,,31793,001,2025-10-19_14h32.06.820,HW_LDT_1,2024.2.4,MacIntel,60.24096386,,,,,,,,,,,,,,,,,,,,,,876.7862,876.9839,876.9839,877.4842,,,,,,,,,,,,,,1.2231,1,,,,,,,,,,,,,,z,,,,,,,,,,,,,,,107,0,877.4848,878.7174,z,1,1.2231,,[],[],[],[],[],[],[],878.7175,880.7173,880.7174,880.7176,[],[],[],[],[],[],[],,,,880.7176,880.7178,0.02859809,-0.208797743,0,0,0,,0,106,106,56,1,3,TL,meromy,print,meromy_p.png,,,
,,,,31793,001,2025-10-19_14h32.06.820,HW_LDT_1,2024.2.4,MacIntel,60.24096386,,,,,,,,,,,,,,,,,,,,,,880.7192,880.917,880.9171,881.4173,,,,,,,,,,,,,,1.5067,0,,,,,,,,,,,,,,m,,,,,,,,,,,,,,,108,0,881.4179,882.934,z,0,1.5067,,[],[],[],[],[],[],[],882.9341,884.934,884.934,884.9342,[],[],[],[],[],[],[],,,,884.9343,884.9343,0.02859809,-0.208797743,0,0,0,,0,107,107,110,1,3,word,HERITAGE,cursive,heritage_c.png,,,
,,,,31793,001,2025-10-19_14h32.06.820,HW_LDT_1,2024.2.4,MacIntel,60.24096386,,,,,,,,,,,,,,,,,,,,,,884.9358,885.1333,885.1333,885.6335,,,,,,,,,,,,,,2.3915,1,,,,,,,,,,,,,,z,,,,,,,,,,,,,,,109,0,885.6341,888.034,z,1,2.3915,,[],[],[],[],[],[],[],888.0341,890.0332,890.0332,890.0334,[],[],[],[],[],[],[],,,,890.0334,890.0335,0.02859809,-0.208797743,0,0,0,,0,108,108,74,1,3,TL,spemicen,print,spemicen_p.png,,,
,,,,31793,001,2025-10-19_14h32.06.820,HW_LDT_1,2024.2.4,MacIntel,60.24096386,,,,,,,,,,,,,,,,,,,,,,890.0349,890.234,890.234,890.734,,,,,,,,,,,,,,2.903,1,,,,,,,,,,,,,,z,,,,,,,,,,,,,,,110,0,890.7345,893.6506,z,1,2.903,,[],[],[],[],[],[],[],893.6508,895.6498,895.6499,895.65,[],[],[],[],[],[],[],,,,895.6501,895.6502,0.02859809,-0.208797743,0,0,0,,0,109,109,77,1,3,TL,vadility,cursive,vadility_c.png,,,
,,,,31793,001,2025-10-19_14h32.06.820,HW_LDT_1,2024.2.4,MacIntel,60.24096386,,,,,,,,,,,,,,,,,,,,,,895.6516,895.8507,895.8507,896.3506,,,,,,,,,,,,,,1.4087,0,,,,,,,,,,,,,,m,,,,,,,,,,,,,,,111,0,896.351,897.7675,z,0,1.4087,,[],[],[],[],[],[],[],897.7676,899.7674,899.7675,899.7677,[],[],[],[],[],[],[],,,,899.7677,899.7678,0.02859809,-0.208797743,0,0,0,,0,110,110,149,1,3,word,SENATOR,cursive,senator_c.png,,,
,,,,31793,001,2025-10-19_14h32.06.820,HW_LDT_1,2024.2.4,MacIntel,60.24096386,,,,,,,,,,,,,,,,,,,,,,899.7692,899.9669,899.967,900.4673,,,,,,,,,,,,,,1.8403,1,,,,,,,,,,,,,,m,,,,,,,,,,,,,,,112,0,900.468,902.3174,m,1,1.8403,,[],[],[],[],[],[],[],902.3175,904.3174,904.3174,904.3176,[],[],[],[],[],[],[],,,,904.3177,904.3178,0.02859809,-0.208797743,0,0,0,,0,111,111,102,1,3,word,DENSITY,print,density_p.png,,,
,,,,31793,001,2025-10-19_14h32.06.820,HW_LDT_1,2024.2.4,MacIntel,60.24096386,,,,,,,,,,,,,,,,,,,,,,904.3191,904.5174,904.5174,905.0173,,,,,,,,,,,,,,2.5358,1,,,,,,,,,,,,,,m,,,,,,,,,,,,,,,113,0,905.0179,907.5667,m,1,2.5358,,[],[],[],[],[],[],[],907.5668,909.5675,909.5676,909.5678,[],[],[],[],[],[],[],,,,909.5679,909.5681,0.02859809,-0.208797743,0,0,0,,0,112,112,106,1,3,word,ELABORATE,print,elaborate_p.png,,,
,,,,31793,001,2025-10-19_14h32.06.820,HW_LDT_1,2024.2.4,MacIntel,60.24096386,,,,,,,,,,,,,,,,,,,,,,909.5697,909.7674,909.7675,910.2674,,,,,,,,,,,,,,2.4323,1,,,,,,,,,,,,,,m,,,,,,,,,,,,,,,114,0,910.2679,912.7008,m,1,2.4323,,[],[],[],[],[],[],[],912.7009,914.7007,914.7008,914.701,[],[],[],[],[],[],[],,,,914.7011,914.7012,0.02859809,-0.208797743,0,0,0,,0,113,113,86,1,3,word,BESIDE,cursive,beside_c.png,,,
,,,,31793,001,2025-10-19_14h32.06.820,HW_LDT_1,2024.2.4,MacIntel,60.24096386,,,,,,,,,,,,,,,,,,,,,,914.7025,914.8996,914.8997,915.4006,,,,,,,,,,,,,,1.9151,1,,,,,,,,,,,,,,z,,,,,,,,,,,,,,,115,0,915.4011,917.3169,z,1,1.9151,,[],[],[],[],[],[],[],917.3171,919.3174,919.3174,919.3176,[],[],[],[],[],[],[],,,,919.3177,919.3177,0.02859809,-0.208797743,0,0,0,,0,114,114,62,1,3,TL,prodive,print,prodive_p.png,,,
,,,,31793,001,2025-10-19_14h32.06.820,HW_LDT_1,2024.2.4,MacIntel,60.24096386,,,,,,,,,,,,,,,,,,,,,,919.3193,919.5167,919.5168,920.017,,,,,,,,,,,,,,1.3708,1,,,,,,,,,,,,,,z,,,,,,,,,,,,,,,116,0,920.0171,921.4009,z,1,1.3708,,[],[],[],[],[],[],[],921.401,923.4007,923.4008,923.401,[],[],[],[],[],[],[],,,,923.4011,923.4013,0.02859809,-0.208797743,0,0,0,,0,115,115,23,1,3,RL,quakity,print,quakity_p.png,,,
,,,,31793,001,2025-10-19_14h32.06.820,HW_LDT_1,2024.2.4,MacIntel,60.24096386,,,,,,,,,,,,,,,,,,,,,,923.4028,923.6005,923.6005,924.1006,,,,,,,,,,,,,,1.5489,1,,,,,,,,,,,,,,m,,,,,,,,,,,,,,,117,1,924.1013,925.6511,m,1,1.5489,,[],[],[],[],[],[],[],925.6511,927.6506,927.6506,928.5672,[],[],[],[],[],[],[],z,0.9038,,928.5673,928.5673,0.02859809,-0.208797743,0,0,0,,0,116,116,115,1,3,word,LOGICAL,cursive,logical_c.png,,,
,,,,31793,001,2025-10-19_14h32.06.820,HW_LDT_1,2024.2.4,MacIntel,60.24096386,,,,,,,,,,,,,,,,,,,,,,928.5682,928.7674,928.7674,929.2675,,,,,,,,,,,,,,1.9801,1,,,,,,,,,,,,,,z,,,,,,,,,,,,,,,118,0,929.268,931.2506,z,1,1.9801,,[],[],[],[],[],[],[],931.2507,933.2507,933.2508,933.251,[],[],[],[],[],[],[],,,,933.251,933.2511,0.02859809,-0.208797743,0,0,0,,0,117,117,30,1,3,RL,strapely,print,strapely_p.png,,,
,,,,31793,001,2025-10-19_14h32.06.820,HW_LDT_1,2024.2.4,MacIntel,60.24096386,,,,,,,,,,,,,,,,,,,,,,933.2525,933.4508,933.4509,933.9507,,,,,,,,,,,,,,0.9082,1,,,,,,,,,,,,,,z,,,,,,,,,,,,,,,119,0,933.9513,934.8675,z,1,0.9082,,[],[],[],[],[],[],[],934.8675,936.8673,936.8674,936.8676,[],[],[],[],[],[],[],,,,936.8676,936.8678,0.02859809,-0.208797743,0,0,0,,0,118,118,18,1,3,RL,onegator,print,onegator_p.png,,,
,,,,31793,001,2025-10-19_14h32.06.820,HW_LDT_1,2024.2.4,MacIntel,60.24096386,,,,,,,,,,,,,,,,,,,,,,936.8691,937.0674,937.0674,937.5674,,,,,,,,,,,,,,1.2723,1,,,,,,,,,,,,,,z,,,,,,,,,,,,,,,120,1,937.5681,938.8506,z,1,1.2723,,[],[],[],[],[],[],[],938.8507,940.8506,940.8507,941.8007,[],[],[],[],[],[],[],z,0.937,,941.8008,941.8009,0.02859809,-0.208797743,0,0,0,,0,119,119,14,1,3,RL,lofase,cursive,lofase_c.png,,,
,,,,31793,001,2025-10-19_14h32.06.820,HW_LDT_1,2024.2.4,MacIntel,60.24096386,,,,,,,,,,,,,,,,,,,,,,941.8022,942.0008,942.0009,942.5007,,,,,,,,,,,,,,1.7656,0,,,,,,,,,,,,,,m,,,,,,,,,,,,,,,121,0,942.5012,944.2675,z,0,1.7656,,[],[],[],[],[],[],[],944.2676,946.2673,946.2674,946.2676,[],[],[],[],[],[],[],,,,946.2676,946.2677,0.02859809,-0.208797743,0,0,0,,0,120,120,99,1,3,word,DEBATE,cursive,debate_c.png,,,
,,,,31793,001,2025-10-19_14h32.06.820,HW_LDT_1,2024.2.4,MacIntel,60.24096386,,,,,,,,,,,,,,,,,,,,,,946.2693,946.4675,946.4675,946.9673,,,,,,,,,,,,,,1.0865,1,,,,,,,,,,,,,,z,,,,,,,,,,,,,,,122,0,946.9679,948.0676,z,1,1.0865,,[],[],[],[],[],[],[],948.0676,950.0672,950.0672,950.0674,[],[],[],[],[],[],[],,,,950.0674,950.0676,0.02859809,-0.208797743,0,0,0,,0,121,121,43,1,3,TL,dedace,cursive,dedace_c.png,,,
,,,,31793,001,2025-10-19_14h32.06.820,HW_LDT_1,2024.2.4,MacIntel,60.24096386,,,,,,,,,,,,,,,,,,,,,,950.069,950.2673,950.2673,950.7674,,,,,,,,,,,,,,1.8036,0,,,,,,,,,,,,,,m,,,,,,,,,,,,,,,123,1,950.7681,952.584,z,0,1.8036,,[],[],[],[],[],[],[],952.5841,954.5831,954.5831,955.3339,[],[],[],[],[],[],[],z,0.7485,,955.3339,955.3339,0.02859809,-0.208797743,0,0,0,,0,122,122,128,1,3,word,PACIFIC,cursive,pacific_c.png,,,
,,,,31793,001,2025-10-19_14h32.06.820,HW_LDT_1,2024.2.4,MacIntel,60.24096386,,,,,,,,,,,,,,,,,,,,,,955.3345,955.534,955.534,956.034,,,,,,,,,,,,,,1.6991,1,,,,,,,,,,,,,,z,,,,,,,,,,,,,,,124,0,956.0345,957.7343,z,1,1.6991,,[],[],[],[],[],[],[],957.7343,959.7341,959.7341,959.7342,[],[],[],[],[],[],[],,,,959.7343,959.7344,0.02859809,-0.208797743,0,0,0,,0,123,123,51,1,3,TL,liretal,print,liretal_p.png,,,
,,,,31793,001,2025-10-19_14h32.06.820,HW_LDT_1,2024.2.4,MacIntel,60.24096386,,,,,,,,,,,,,,,,,,,,,,959.7357,959.9341,959.9341,960.4337,,,,,,,,,,,,,,3.7038,1,,,,,,,,,,,,,,m,,,,,,,,,,,,,,,125,0,960.4339,964.1508,m,1,3.7038,,[],[],[],[],[],[],[],964.1508,966.1507,966.1508,966.151,[],[],[],[],[],[],[],,,,966.151,966.1512,0.02859809,-0.208797743,0,0,0,,0,124,124,138,1,3,word,REFUSAL,print,refusal_p.png,,,
,,,,31793,001,2025-10-19_14h32.06.820,HW_LDT_1,2024.2.4,MacIntel,60.24096386,,,,,,,,,,,,,,,,,,,,,,966.1525,966.3506,966.3507,966.8507,,,,,,,,,,,,,,2.0692,1,,,,,,,,,,,,,,z,,,,,,,,,,,,,,,126,1,966.8512,968.9342,z,1,2.0692,,[],[],[],[],[],[],[],968.9343,970.934,970.9341,971.6174,[],[],[],[],[],[],[],z,0.674,,971.6175,971.6176,0.02859809,-0.208797743,0,0,0,,0,125,125,75,1,3,TL,sloten,cursive,sloten_c.png,,,
,,,,31793,001,2025-10-19_14h32.06.820,HW_LDT_1,2024.2.4,MacIntel,60.24096386,,,,,,,,,,,,,,,,,,,,,,971.6189,971.8174,971.8174,972.3172,,,,,,,,,,,,,,0.8487,1,,,,,,,,,,,,,,m,,,,,,,,,,,,,,,127,0,972.3178,973.1674,m,1,0.8487,,[],[],[],[],[],[],[],973.1675,975.1673,975.1674,975.1676,[],[],[],[],[],[],[],,,,975.1676,975.1677,0.02859809,-0.208797743,0,0,0,,0,126,126,131,1,3,word,POPULAR,print,popular_p.png,,,
,,,,31793,001,2025-10-19_14h32.06.820,HW_LDT_1,2024.2.4,MacIntel,60.24096386,,,,,,,,,,,,,,,,,,,,,,975.1691,975.3673,975.3673,975.8674,,,,,,,,,,,,,,0.9366,1,,,,,,,,,,,,,,z,,,,,,,,,,,,,,,128,0,975.8679,976.8175,z,1,0.9366,,[],[],[],[],[],[],[],976.8175,978.8169,978.8169,978.8171,[],[],[],[],[],[],[],,,,978.8172,978.8173,0.02859809,-0.208797743,0,0,0,,0,127,127,7,1,3,RL,cobeny,print,cobeny_p.png,,,
,,,,31793,001,2025-10-19_14h32.06.820,HW_LDT_1,2024.2.4,MacIntel,60.24096386,,,,,,,,,,,,,,,,,,,,,,978.8187,979.0175,979.0175,979.5174,,,,,,,,,,,,,,1.7525,1,,,,,,,,,,,,,,z,,,,,,,,,,,,,,,129,0,979.5179,981.2841,z,1,1.7525,,[],[],[],[],[],[],[],981.2842,983.284,983.2841,983.2843,[],[],[],[],[],[],[],,,,983.2843,983.2843,0.02859809,-0.208797743,0,0,0,,0,128,128,47,1,3,TL,elarobate,print,elarobate_p.png,,,
,,,,31793,001,2025-10-19_14h32.06.820,HW_LDT_1,2024.2.4,MacIntel,60.24096386,,,,,,,,,,,,,,,,,,,,,,983.2857,983.4841,983.4842,983.983,,,,,,,,,,,,,,2.2484,0,,,,,,,,,,,,,,m,,,,,,,,,,,,,,,130,1,983.9835,986.2338,z,0,2.2484,,[],[],[],[],[],[],[],986.2338,988.2341,988.2341,988.9672,[],[],[],[],[],[],[],z,0.7325,,988.9673,988.9674,0.02859809,-0.208797743,0,0,0,,0,129,129,109,1,3,word,GRATEFUL,cursive,grateful_c.png,,,
,,,,31793,001,2025-10-19_14h32.06.820,HW_LDT_1,2024.2.4,MacIntel,60.24096386,,,,,,,,,,,,,,,,,,,,,,988.9687,989.1674,989.1675,989.6673,,,,,,,,,,,,,,2.8028,1,,,,,,,,,,,,,,m,,,,,,,,,,,,,,,131,0,989.6678,992.4841,m,1,2.8028,,[],[],[],[],[],[],[],992.4841,994.4841,994.4841,994.4843,[],[],[],[],[],[],[],,,,994.4843,994.4844,0.02859809,-0.208797743,0,0,0,,0,130,130,152,1,3,word,SPECIMEN,print,specimen_p.png,,,
,,,,31793,001,2025-10-19_14h32.06.820,HW_LDT_1,2024.2.4,MacIntel,60.24096386,,,,,,,,,,,,,,,,,,,,,,994.4858,994.6841,994.6841,995.1841,,,,,,,,,,,,,,1.3197,1,,,,,,,,,,,,,,m,,,,,,,,,,,,,,,132,0,995.1847,996.5175,m,1,1.3197,,[],[],[],[],[],[],[],996.5177,998.5175,998.5175,998.5176,[],[],[],[],[],[],[],,,,998.5177,998.5178,0.02859809,-0.208797743,0,0,0,,0,131,131,116,1,3,word,MARGINAL,print,marginal_p.png,,,
,,,,31793,001,2025-10-19_14h32.06.820,HW_LDT_1,2024.2.4,MacIntel,60.24096386,,,,,,,,,,,,,,,,,,,,,,998.5194,998.7174,998.7175,999.2175,,,,,,,,,,,,,,4.9192,0,,,,,,,,,,,,,,m,,,,,,,,,,,,,,,133,0,999.2181,1004.1508,z,0,4.9192,,[],[],[],[],[],[],[],1004.1509,1006.1507,1006.1507,1006.151,[],[],[],[],[],[],[],,,,1006.1511,1006.1512,0.02859809,-0.208797743,0,0,0,,0,132,132,120,1,3,word,MILITARY,cursive,military_c.png,,,
,,,,31793,001,2025-10-19_14h32.06.820,HW_LDT_1,2024.2.4,MacIntel,60.24096386,,,,,,,,,,,,,,,,,,,,,,1006.1526,1006.3502,1006.3503,1006.8497,,,,,,,,,,,,,,1.7372,1,,,,,,,,,,,,,,z,,,,,,,,,,,,,,,134,0,1006.8502,1008.6007,z,1,1.7372,,[],[],[],[],[],[],[],1008.6008,1010.6007,1010.6007,1010.601,[],[],[],[],[],[],[],,,,1010.601,1010.6011,0.02859809,-0.208797743,0,0,0,,0,133,133,0,1,3,RL,afaneur,print,afaneur_p.png,,,
,,,,31793,001,2025-10-19_14h32.06.820,HW_LDT_1,2024.2.4,MacIntel,60.24096386,,,,,,,,,,,,,,,,,,,,,,1010.6026,1010.8004,1010.8004,1011.3007,,,,,,,,,,,,,,0.9644,1,,,,,,,,,,,,,,m,,,,,,,,,,,,,,,135,0,1011.3013,1012.2671,m,1,0.9644,,[],[],[],[],[],[],[],1012.2672,1014.2673,1014.2674,1014.2676,[],[],[],[],[],[],[],,,,1014.2677,1014.2678,0.02859809,-0.208797743,0,0,0,,0,134,134,97,1,3,word,COVERAGE,print,coverage_p.png,,,
,,,,31793,001,2025-10-19_14h32.06.820,HW_LDT_1,2024.2.4,MacIntel,60.24096386,,,,,,,,,,,,,,,,,,,,,,1014.2693,1014.4673,1014.4674,1014.9674,,,,,,,,,,,,,,2.5489,0,,,,,,,,,,,,,,m,,,,,,,,,,,,,,,136,0,1014.9679,1017.5174,z,0,2.5489,,[],[],[],[],[],[],[],1017.5175,1019.5174,1019.5174,1019.5176,[],[],[],[],[],[],[],,,,1019.5177,1019.5179,0.02859809,-0.208797743,0,0,0,,0,135,135,121,1,3,word,MISTAKE,cursive,mistake_c.png,,,
,,,,31793,001,2025-10-19_14h32.06.820,HW_LDT_1,2024.2.4,MacIntel,60.24096386,,,,,,,,,,,,,,,,,,,,,,1019.5192,1019.7175,1019.7175,1020.2174,,,,,,,,,,,,,,0.8983,1,,,,,,,,,,,,,,z,,,,,,,,,,,,,,,137,0,1020.218,1021.1173,z,1,0.8983,,[],[],[],[],[],[],[],1021.1173,1023.1164,1023.1165,1023.1166,[],[],[],[],[],[],[],,,,1023.1167,1023.1167,0.02859809,-0.208797743,0,0,0,,0,136,136,27,1,3,RL,recile,print,recile_p.png,,,
,,,,31793,001,2025-10-19_14h32.06.820,HW_LDT_1,2024.2.4,MacIntel,60.24096386,,,,,,,,,,,,,,,,,,,,,,1023.1178,1023.3175,1023.3175,1023.8176,,,,,,,,,,,,,,1.2805,1,,,,,,,,,,,,,,m,,,,,,,,,,,,,,,138,0,1023.8183,1025.1001,m,1,1.2805,,[],[],[],[],[],[],[],1025.1001,1027.1008,1027.1008,1027.1011,[],[],[],[],[],[],[],,,,1027.1011,1027.1011,0.02859809,-0.208797743,0,0,0,,0,137,137,104,1,3,word,DOMINANT,print,dominant_p.png,,,
,,,,31793,001,2025-10-19_14h32.06.820,HW_LDT_1,2024.2.4,MacIntel,60.24096386,,,,,,,,,,,,,,,,,,,,,,1027.1026,1027.3007,1027.3008,1027.8008,,,,,,,,,,,,,,1.0532,1,,,,,,,,,,,,,,z,,,,,,,,,,,,,,,139,0,1027.8013,1028.8674,z,1,1.0532,,[],[],[],[],[],[],[],1028.8675,1030.8673,1030.8674,1030.8676,[],[],[],[],[],[],[],,,,1030.8676,1030.8678,0.02859809,-0.208797743,0,0,0,,0,138,138,67,1,3,TL,retome,print,retome_p.png,,,
,,,,31793,001,2025-10-19_14h32.06.820,HW_LDT_1,2024.2.4,MacIntel,60.24096386,,,,,,,,,,,,,,,,,,,,,,1030.869,1031.0671,1031.0671,1031.5674,,,,,,,,,,,,,,1.6531,1,,,,,,,,,,,,,,z,,,,,,,,,,,,,,,140,0,1031.568,1033.2339,z,1,1.6531,,[],[],[],[],[],[],[],1033.2341,1035.234,1035.2341,1035.2343,[],[],[],[],[],[],[],,,,1035.2343,1035.2345,0.02859809,-0.208797743,0,0,0,,0,139,139,24,1,3,RL,quafidy,print,quafidy_p.png,,,
,,,,31793,001,2025-10-19_14h32.06.820,HW_LDT_1,2024.2.4,MacIntel,60.24096386,,,,,,,,,,,,,,,,,,,,,,1035.2357,1035.434,1035.4341,1035.9341,,,,,,,,,,,,,,1.2085,1,,,,,,,,,,,,,,m,,,,,,,,,,,,,,,141,0,1035.9346,1037.1508,m,1,1.2085,,[],[],[],[],[],[],[],1037.151,1039.1508,1039.1509,1039.151,[],[],[],[],[],[],[],,,,1039.151,1039.1512,0.02859809,-0.208797743,0,0,0,,0,140,140,139,1,3,word,REGULAR,print,regular_p.png,,,
,,,,31793,001,2025-10-19_14h32.06.820,HW_LDT_1,2024.2.4,MacIntel,60.24096386,,,,,,,,,,,,,,,,,,,,,,1039.1527,1039.3507,1039.3508,1039.8508,,,,,,,,,,,,,,0.9251,1,,,,,,,,,,,,,,z,,,,,,,,,,,,,,,142,0,1039.8514,1040.7843,z,1,0.9251,,[],[],[],[],[],[],[],1040.7843,1042.7832,1042.7833,1042.7835,[],[],[],[],[],[],[],,,,1042.7837,1042.7837,0.02859809,-0.208797743,0,0,0,,0,141,141,65,1,3,TL,resufal,print,resufal_p.png,,,
,,,,31793,001,2025-10-19_14h32.06.820,HW_LDT_1,2024.2.4,MacIntel,60.24096386,,,,,,,,,,,,,,,,,,,,,,1042.7851,1042.984,1042.9841,1043.484,,,,,,,,,,,,,,2.1358,1,,,,,,,,,,,,,,z,,,,,,,,,,,,,,,143,0,1043.4846,1045.6341,z,1,2.1358,,[],[],[],[],[],[],[],1045.6343,1047.6342,1047.6342,1047.6345,[],[],[],[],[],[],[],,,,1047.6346,1047.6348,0.02859809,-0.208797743,0,0,0,,0,142,142,15,1,3,RL,mifikary,cursive,mifikary_c.png,,,
,,,,31793,001,2025-10-19_14h32.06.820,HW_LDT_1,2024.2.4,MacIntel,60.24096386,,,,,,,,,,,,,,,,,,,,,,1047.636,1047.834,1047.834,1048.3341,,,,,,,,,,,,,,1.7817,1,,,,,,,,,,,,,,z,,,,,,,,,,,,,,,144,0,1048.3348,1050.1174,z,1,1.7817,,[],[],[],[],[],[],[],1050.1175,1052.1174,1052.1174,1052.1176,[],[],[],[],[],[],[],,,,1052.1176,1052.1177,0.02859809,-0.208797743,0,0,0,,0,143,143,44,1,3,TL,decilate,print,decilate_p.png,,,
,,,,31793,001,2025-10-19_14h32.06.820,HW_LDT_1,2024.2.4,MacIntel,60.24096386,,,,,,,,,,,,,,,,,,,,,,1052.1191,1052.3174,1052.3175,1052.8171,,,,,,,,,,,,,,1.6206,1,,,,,,,,,,,,,,m,,,,,,,,,,,,,,,145,0,1052.8177,1054.4507,m,1,1.6206,,[],[],[],[],[],[],[],1054.4508,1056.4508,1056.4509,1056.4512,[],[],[],[],[],[],[],,,,1056.4512,1056.4514,0.02859809,-0.208797743,0,0,0,,0,144,144,91,1,3,word,CARDINAL,print,cardinal_p.png,,,
,,,,31793,001,2025-10-19_14h32.06.820,HW_LDT_1,2024.2.4,MacIntel,60.24096386,,,,,,,,,,,,,,,,,,,,,,1056.4529,1056.6507,1056.6508,1057.1507,,,,,,,,,,,,,,1.6074,1,,,,,,,,,,,,,,z,,,,,,,,,,,,,,,146,0,1057.1513,1058.7675,z,1,1.6074,,[],[],[],[],[],[],[],1058.7676,1060.7673,1060.7674,1060.7676,[],[],[],[],[],[],[],,,,1060.7677,1060.7678,0.02859809,-0.208797743,0,0,0,,0,145,145,68,1,3,TL,revomal,cursive,revomal_c.png,,,
,,,,31793,001,2025-10-19_14h32.06.820,HW_LDT_1,2024.2.4,MacIntel,60.24096386,,,,,,,,,,,,,,,,,,,,,,1060.7691,1060.9665,1060.9665,1061.4671,,,,,,,,,,,,,,1.2191,1,,,,,,,,,,,,,,m,,,,,,,,,,,,,,,147,1,1061.4672,1062.7009,m,1,1.2191,,[],[],[],[],[],[],[],1062.7009,1064.7002,1064.7002,1065.4998,[],[],[],[],[],[],[],z,0.7908,,1065.4999,1065.4999,0.02859809,-0.208797743,0,0,0,,0,146,146,158,1,3,word,VELOCITY,cursive,velocity_c.png,,,
,,,,31793,001,2025-10-19_14h32.06.820,HW_LDT_1,2024.2.4,MacIntel,60.24096386,,,,,,,,,,,,,,,,,,,,,,1065.5011,1065.6997,1065.6998,1066.2007,,,,,,,,,,,,,,1.2051,1,,,,,,,,,,,,,,z,,,,,,,,,,,,,,,148,0,1066.2013,1067.4164,z,1,1.2051,,[],[],[],[],[],[],[],1067.4165,1069.4174,1069.4175,1069.4176,[],[],[],[],[],[],[],,,,1069.4177,1069.4178,0.02859809,-0.208797743,0,0,0,,0,147,147,16,1,3,RL,mishafe,cursive,mishafe_c.png,,,
,,,,31793,001,2025-10-19_14h32.06.820,HW_LDT_1,2024.2.4,MacIntel,60.24096386,,,,,,,,,,,,,,,,,,,,,,1069.4192,1069.6174,1069.6175,1070.1169,,,,,,,,,,,,,,1.3787,1,,,,,,,,,,,,,,z,,,,,,,,,,,,,,,149,0,1070.1173,1071.4995,z,1,1.3787,,[],[],[],[],[],[],[],1071.4995,1073.5007,1073.5008,1073.501,[],[],[],[],[],[],[],,,,1073.501,1073.5012,0.02859809,-0.208797743,0,0,0,,0,148,148,17,1,3,RL,motide,cursive,motide_c.png,,,
,,,,31793,001,2025-10-19_14h32.06.820,HW_LDT_1,2024.2.4,MacIntel,60.24096386,,,,,,,,,,,,,,,,,,,,,,1073.5026,1073.7007,1073.7007,1074.2001,,,,,,,,,,,,,,3.3082,1,,,,,,,,,,,,,,z,,,,,,,,,,,,,,,150,0,1074.2006,1077.5175,z,1,3.3082,,[],[],[],[],[],[],[],1077.5176,1079.5173,1079.5173,1079.5176,[],[],[],[],[],[],[],,,,1079.5176,1079.5177,0.02859809,-0.208797743,0,0,0,,0,149,149,52,1,3,TL,locigal,cursive,locigal_c.png,,,
,,,,31793,001,2025-10-19_14h32.06.820,HW_LDT_1,2024.2.4,MacIntel,60.24096386,,,,,,,,,,,,,,,,,,,,,,1079.519,1079.7174,1079.7175,1080.2175,,,,,,,,,,,,,,2.9517,1,,,,,,,,,,,,,,m,,,,,,,,,,,,,,,151,0,1080.218,1083.1841,m,1,2.9517,,[],[],[],[],[],[],[],1083.1841,1085.1841,1085.1841,1085.1844,[],[],[],[],[],[],[],,,,1085.1844,1085.1846,0.02859809,-0.208797743,0,0,0,,0,150,150,107,1,3,word,EVIDENT,cursive,evident_c.png,,,
,,,,31793,001,2025-10-19_14h32.06.820,HW_LDT_1,2024.2.4,MacIntel,60.24096386,,,,,,,,,,,,,,,,,,,,,,1085.1858,1085.3831,1085.3832,1085.8831,,,,,,,,,,,,,,2.2255,1,,,,,,,,,,,,,,m,,,,,,,,,,,,,,,152,0,1085.8838,1088.1175,m,1,2.2255,,[],[],[],[],[],[],[],1088.1176,1090.1168,1090.1168,1090.117,[],[],[],[],[],[],[],,,,1090.1171,1090.1172,0.02859809,-0.208797743,0,0,0,,0,151,151,83,1,3,word,ANIMAL,cursive,animal_c.png,,,
,,,,31793,001,2025-10-19_14h32.06.820,HW_LDT_1,2024.2.4,MacIntel,60.24096386,,,,,,,,,,,,,,,,,,,,,,1090.1185,1090.3174,1090.3175,1090.8174,,,,,,,,,,,,,,1.2862,0,,,,,,,,,,,,,,m,,,,,,,,,,,,,,,153,0,1090.818,1092.1167,z,0,1.2862,,[],[],[],[],[],[],[],1092.1168,1094.1165,1094.1165,1094.1168,[],[],[],[],[],[],[],,,,1094.1169,1094.1169,0.02859809,-0.208797743,0,0,0,,0,152,152,92,1,3,word,CATEGORY,cursive,category_c.png,,,
,,,,31793,001,2025-10-19_14h32.06.820,HW_LDT_1,2024.2.4,MacIntel,60.24096386,,,,,,,,,,,,,,,,,,,,,,1094.1181,1094.3164,1094.3165,1094.8165,,,,,,,,,,,,,,3.2371,1,,,,,,,,,,,,,,m,,,,,,,,,,,,,,,154,0,1094.8169,1098.0669,m,1,3.2371,,[],[],[],[],[],[],[],1098.0669,1100.0674,1100.0674,1100.0676,[],[],[],[],[],[],[],,,,1100.0676,1100.0677,0.02859809,-0.208797743,0,0,0,,0,153,153,89,1,3,word,CAPACITY,cursive,capacity_c.png,,,
,,,,31793,001,2025-10-19_14h32.06.820,HW_LDT_1,2024.2.4,MacIntel,60.24096386,,,,,,,,,,,,,,,,,,,,,,1100.0688,1100.2667,1100.2667,1100.7666,,,,,,,,,,,,,,0.968,1,,,,,,,,,,,,,,z,,,,,,,,,,,,,,,155,0,1100.7672,1101.7505,z,1,0.968,,[],[],[],[],[],[],[],1101.7505,1103.7508,1103.7508,1103.7511,[],[],[],[],[],[],[],,,,1103.7511,1103.7511,0.02859809,-0.208797743,0,0,0,,0,154,154,4,1,3,RL,cafigal,cursive,cafigal_c.png,,,
,,,,31793,001,2025-10-19_14h32.06.820,HW_LDT_1,2024.2.4,MacIntel,60.24096386,,,,,,,,,,,,,,,,,,,,,,1103.7525,1103.9508,1103.9508,1104.4506,,,,,,,,,,,,,,2.1874,1,,,,,,,,,,,,,,m,,,,,,,,,,,,,,,156,0,1104.4512,1106.6499,m,1,2.1874,,[],[],[],[],[],[],[],1106.65,1108.6498,1108.6498,1108.65,[],[],[],[],[],[],[],,,,1108.65,1108.6502,0.02859809,-0.208797743,0,0,0,,0,155,155,157,1,3,word,VALIDITY,cursive,validity_c.png,,,
,,,,31793,001,2025-10-19_14h32.06.820,HW_LDT_1,2024.2.4,MacIntel,60.24096386,,,,,,,,,,,,,,,,,,,,,,1108.6516,1108.8507,1108.8508,1109.3499,,,,,,,,,,,,,,2.5819,0,,,,,,,,,,,,,,m,,,,,,,,,,,,,,,157,0,1109.3503,1111.934,z,0,2.5819,,[],[],[],[],[],[],[],1111.934,1113.934,1113.9341,1113.9344,[],[],[],[],[],[],[],,,,1113.9344,1113.9347,0.02859809,-0.208797743,0,0,0,,0,156,156,126,1,3,word,OPTIMAL,cursive,optimal_c.png,,,
,,,,31793,001,2025-10-19_14h32.06.820,HW_LDT_1,2024.2.4,MacIntel,60.24096386,,,,,,,,,,,,,,,,,,,,,,1113.9361,1114.1341,1114.1341,1114.6333,,,,,,,,,,,,,,1.9464,1,,,,,,,,,,,,,,m,,,,,,,,,,,,,,,158,0,1114.6338,1116.5831,m,1,1.9464,,[],[],[],[],[],[],[],1116.5832,1118.5842,1118.5843,1118.5845,[],[],[],[],[],[],[],,,,1118.5846,1118.5848,0.02859809,-0.208797743,0,0,0,,0,157,157,147,1,3,word,ROMANTIC,cursive,romantic_c.png,,,
,,,,31793,001,2025-10-19_14h32.06.820,HW_LDT_1,2024.2.4,MacIntel,60.24096386,,,,,,,,,,,,,,,,,,,,,,1118.5863,1118.7841,1118.7842,1119.284,,,,,,,,,,,,,,1.2366,1,,,,,,,,,,,,,,z,,,,,,,,,,,,,,,159,0,1119.2844,1120.5333,z,1,1.2366,,[],[],[],[],[],[],[],1120.5333,1122.5339,1122.5339,1122.5339,[],[],[],[],[],[],[],,,,1122.5339,1122.534,0.02859809,-0.208797743,0,0,0,,0,158,158,32,1,3,TL,adacemy,print,adacemy_p.png,,,
,,,,31793,001,2025-10-19_14h32.06.820,HW_LDT_1,2024.2.4,MacIntel,60.24096386,,,,,,,,,,,,,,,,,,,,,,1122.5344,1122.7339,1122.734,1123.2341,,,,,,,,,,,,,,2.8317,1,,,,,,,,,,,,,,m,,,,,,,,,,,,,,,160,0,1123.2347,1126.0674,m,1,2.8317,,[],[],[],[],[],[],[],1126.0675,1128.0674,1128.0675,1128.0677,[],[],[],[],[],[],[],,,,1128.0677,1128.0678,0.02859809,-0.208797743,0,0,0,,0,159,159,85,1,3,word,BENEFIT,print,benefit_p.png,,,
,,,,31793,001,2025-10-19_14h32.06.820,HW_LDT_1,2024.2.4,MacIntel,60.24096386,,,,,,,,,,,,,,,,,,,,,,,,,,,,,,,,,,,,,,,,,,,,,,,,,,,,,,,,,,,,,,,,,,,,,,,,,,,,,,,,,,,,,,,,,,,,,,,,,,,,,,,,,,,,,,,,,,,,,1128.0764,1133.0679
