counterbalance_lists.group,counterbalance_lists.remaining,get_list.started,get_list.stopped,participant,session,date,expName,psychopyVersion,OS,frameRate,Instructions.started,Instructions.stopped,key_resp.keys,key_resp.rt,key_resp.duration,instr_done_touch.x,instr_done_touch.y,instr_done_touch.leftButton,instr_done_touch.midButton,instr_done_touch.rightButton,start_instr.thisRepN,start_instr.thisTrialN,start_instr.thisN,start_instr.thisIndex,start_instr.ran,pageN,phase,instruct_text,has_image,instruct_image,showProgress.started,showProgress.stopped,fix.started,fix.stopped,prac.started,prac.stopped,response.keys,response.corr,response.rt,response.duration,touch_resp.x,touch_resp.y,touch_resp.leftButton,touch_resp.midButton,touch_resp.rightButton,touch_resp.time,touch_resp.clicked_name,rt,corr,feedback.started,feedback.stopped,trials.thisRepN,trials.thisTrialN,trials.thisN,trials.thisIndex,trials.ran,TrialID,StimulusType,Condition,PrimeDuration,Prime,Target,corrAns,Instructions_expt.started,Instructions_expt.stopped,key_resp_3.keys,key_resp_3.rt,key_resp_3.duration,instr_done_touch_3.x,instr_done_touch_3.y,instr_done_touch_3.leftButton,instr_done_touch_3.midButton,instr_done_touch_3.rightButton,instr_experiment.thisRepN,instr_experiment.thisTrialN,instr_experiment.thisN,instr_experiment.thisIndex,instr_experiment.ran,trialID,flag,maintask.started,maintask.stopped,key_resp_2.keys,key_resp_2.corr,key_resp_2.rt,key_resp_2.duration,targ_click.x,targ_click.y,targ_click.leftButton,targ_click.midButton,targ_click.rightButton,targ_click.time,targ_click.clicked_name,ITI.started,ITI.stopped,probe.started,probe.stopped,click_probe.x,click_probe.y,click_probe.leftButton,click_probe.midButton,click_probe.rightButton,click_probe.time,click_probe.clicked_name,key_resp_probe.keys,Break.started,Break.stopped,break_done_touch.x,break_done_touch.y,break_done_touch.leftButton,break_done_touch.midButton,break_done_touch.rightButton,break_done_keyboard.keys,list1_trials.thisRepN,list1_trials.thisTrialN,list1_trials.thisN,list1_trials.thisIndex,list1_trials.ran,list_id,item_type,string,font,stim_file,key_resp_probe.rt,key_resp_probe.duration,break_done_keyboard.rt,break_done_keyboard.duration,End.started,End.stopped
list1,,4.282,4.282,31795,001,2025-10-20_12h58.36.834,HW_LDT_1,2024.2.4,MacIntel,58.82352941,,,,,,,,,,,,,,,,,,,,,,,,,,,,,,,,,,,,,,,,,,,,,,,,,,,,,,,,,,,,,,,,,,,,,,,,,,,,,,,,,,,,,,,,,,,,,,,,,,,,,,,,,,,,,,,,,,,,,,,
,,,,31795,001,2025-10-20_12h58.36.834,HW_LDT_1,2024.2.4,MacIntel,58.82352941,4.298,6.058,space,1.725,,-0.041349293,-0.398803047,0,0,0,0,0,0,0,1,1,instructions,"INSTRUCTIONS
At the start of each trial, look at the plus sign  (+) in the center of the screen.  This tells you that a trial is about to begin and where to look. Second, the plus sign will disappear and a string of letters will appear. Your task is to determine if the string of letters is a word or not. If the item is a word press the M key (on keyboard)  or touch the word button (phone/tablet).  If the item is not a word,  press the  Z key (on keyboard)  or touch the nonword button (on phone/tablet). The items will be presented for a short time. 
Press the space bar or touch  continue.",0,,,,,,,,,,,,,,,,,,,,,,,,,,,,,,,,,,,,,,,,,,,,,,,,,,,,,,,,,,,,,,,,,,,,,,,,,,,,,,,,,,,,,,,,,,,,,,,,,,,,
,,,,31795,001,2025-10-20_12h58.36.834,HW_LDT_1,2024.2.4,MacIntel,58.82352941,6.059,9.941,space,3.841,,0.158868335,-0.241022851,0,0,0,0,1,1,1,1,2,instructions,"If your device has a keyboard, press the 'Z' key for nonwords and the 'M' key for words.





Press the space bar or touch the button below to continue.",0,keyboard-example.gif,,,,,,,,,,,,,,,,,,,,,,,,,,,,,,,,,,,,,,,,,,,,,,,,,,,,,,,,,,,,,,,,,,,,,,,,,,,,,,,,,,,,,,,,,,,,,,,,,,,
,,,,31795,001,2025-10-20_12h58.36.834,HW_LDT_1,2024.2.4,MacIntel,58.82352941,9.942,11.374,space,1.399,,0.158868335,-0.241022851,0,0,0,0,2,2,2,1,3,instructions,"If you are using a touchscreen only device, use the buttons on the screen. Do not use the mouse.





Press the space bar or touch the button below to continue.",0,touchscreen-example.gif,,,,,,,,,,,,,,,,,,,,,,,,,,,,,,,,,,,,,,,,,,,,,,,,,,,,,,,,,,,,,,,,,,,,,,,,,,,,,,,,,,,,,,,,,,,,,,,,,,,
,,,,31795,001,2025-10-20_12h58.36.834,HW_LDT_1,2024.2.4,MacIntel,58.82352941,11.376,21.291,space,9.877,,0.37867247,-0.122415669,0,0,0,0,3,3,3,1,4,instructions,"It is very important that you respond as quickly and accurately as possible, as each letter string will only be on the screen for two seconds. If you do not respond within this time, the message 'Too slow!' will be displayed and the experiment will progress to the next letter string. The first 20 trials will be practice trials and you will receive feedback on your answers. 

Press the space bar or touch the button below to start the practice trials.",0,,,,,,,,,,,,,,,,,,,,,,,,,,,,,,,,,,,,,,,,,,,,,,,,,,,,,,,,,,,,,,,,,,,,,,,,,,,,,,,,,,,,,,,,,,,,,,,,,,,,
,,,,31795,001,2025-10-20_12h58.36.834,HW_LDT_1,2024.2.4,MacIntel,58.82352941,,,,,,,,,,,,,,,,,,,,,21.313,21.491,21.491,21.991,21.992,24.742,m,0,2.721,,[],[],[],[],[],[],[],2.721,0,24.742,25.241,0,0,0,15,1,1016,NW,UN,16,mushed,WHAISE,z,,,,,,,,,,,,,,,,,,,,,,,,,,,,,,,,,,,,,,,,,,,,,,,,,,,,,,,,,,,,,,,,,,
,,,,31795,001,2025-10-20_12h58.36.834,HW_LDT_1,2024.2.4,MacIntel,58.82352941,,,,,,,,,,,,,,,,,,,,,25.242,25.441,25.441,25.941,25.942,27.974,m,1,2.016,,[],[],[],[],[],[],[],2.016,1,27.975,28.474,0,1,1,2,1,1003,WORD,"ID",16,almond,ALMOND,m,,,,,,,,,,,,,,,,,,,,,,,,,,,,,,,,,,,,,,,,,,,,,,,,,,,,,,,,,,,,,,,,,,
,,,,31795,001,2025-10-20_12h58.36.834,HW_LDT_1,2024.2.4,MacIntel,58.82352941,,,,,,,,,,,,,,,,,,,,,28.475,28.674,28.674,29.174,29.174,30.474,m,1,1.28,,[],[],[],[],[],[],[],1.28,1,30.474,30.974,0,2,2,1,1,1002,WORD,"ID",33,adjust,ADJUST,m,,,,,,,,,,,,,,,,,,,,,,,,,,,,,,,,,,,,,,,,,,,,,,,,,,,,,,,,,,,,,,,,,,
,,,,31795,001,2025-10-20_12h58.36.834,HW_LDT_1,2024.2.4,MacIntel,58.82352941,,,,,,,,,,,,,,,,,,,,,30.975,31.174,31.174,31.673,31.674,32.341,m,1,0.648,,[],[],[],[],[],[],[],0.648,1,32.341,32.841,0,3,3,6,1,1007,WORD,UN,16,tropic,ZOMBIE,m,,,,,,,,,,,,,,,,,,,,,,,,,,,,,,,,,,,,,,,,,,,,,,,,,,,,,,,,,,,,,,,,,,
,,,,31795,001,2025-10-20_12h58.36.834,HW_LDT_1,2024.2.4,MacIntel,58.82352941,,,,,,,,,,,,,,,,,,,,,32.842,33.041,33.041,33.541,33.541,34.674,z,1,1.113,,[],[],[],[],[],[],[],1.113,1,34.674,35.174,0,4,4,14,1,1015,NW,UN,16,miaber,THRALE,z,,,,,,,,,,,,,,,,,,,,,,,,,,,,,,,,,,,,,,,,,,,,,,,,,,,,,,,,,,,,,,,,,,
,,,,31795,001,2025-10-20_12h58.36.834,HW_LDT_1,2024.2.4,MacIntel,58.82352941,,,,,,,,,,,,,,,,,,,,,35.175,35.374,35.374,35.873,35.874,36.958,z,1,1.062,,[],[],[],[],[],[],[],1.062,1,36.958,37.457,0,5,5,10,1,1011,NW,"ID",16,inlade,INLADE,z,,,,,,,,,,,,,,,,,,,,,,,,,,,,,,,,,,,,,,,,,,,,,,,,,,,,,,,,,,,,,,,,,,
,,,,31795,001,2025-10-20_12h58.36.834,HW_LDT_1,2024.2.4,MacIntel,58.82352941,,,,,,,,,,,,,,,,,,,,,37.458,37.657,37.657,38.157,38.158,38.857,m,1,0.679,,[],[],[],[],[],[],[],0.679,1,38.857,39.358,0,6,6,3,1,1004,WORD,"ID",16,matrix,MATRIX,m,,,,,,,,,,,,,,,,,,,,,,,,,,,,,,,,,,,,,,,,,,,,,,,,,,,,,,,,,,,,,,,,,,
,,,,31795,001,2025-10-20_12h58.36.834,HW_LDT_1,2024.2.4,MacIntel,58.82352941,,,,,,,,,,,,,,,,,,,,,39.358,39.557,39.557,40.057,40.058,41.457,z,1,1.382,,[],[],[],[],[],[],[],1.382,1,41.458,41.958,0,7,7,11,1,1012,NW,"ID",16,rashet,RASHET,z,,,,,,,,,,,,,,,,,,,,,,,,,,,,,,,,,,,,,,,,,,,,,,,,,,,,,,,,,,,,,,,,,,
,,,,31795,001,2025-10-20_12h58.36.834,HW_LDT_1,2024.2.4,MacIntel,58.82352941,,,,,,,,,,,,,,,,,,,,,41.959,42.157,42.157,42.657,42.658,43.991,m,0,1.318,,[],[],[],[],[],[],[],1.318,0,43.992,44.491,0,8,8,12,1,1013,NW,UN,33,adveil,SPRINY,z,,,,,,,,,,,,,,,,,,,,,,,,,,,,,,,,,,,,,,,,,,,,,,,,,,,,,,,,,,,,,,,,,,
,,,,31795,001,2025-10-20_12h58.36.834,HW_LDT_1,2024.2.4,MacIntel,58.82352941,,,,,,,,,,,,,,,,,,,,,44.491,44.691,44.691,45.191,45.191,45.957,m,1,0.746,,[],[],[],[],[],[],[],0.746,1,45.958,46.457,0,9,9,0,1,1001,WORD,"ID",33,utopia,UTOPIA,m,,,,,,,,,,,,,,,,,,,,,,,,,,,,,,,,,,,,,,,,,,,,,,,,,,,,,,,,,,,,,,,,,,
,,,,31795,001,2025-10-20_12h58.36.834,HW_LDT_1,2024.2.4,MacIntel,58.82352941,,,,,,,,,,,,,,,,,,,,,46.458,46.657,46.657,47.157,47.158,47.957,z,1,0.779,,[],[],[],[],[],[],[],0.779,1,47.957,48.457,0,10,10,13,1,1014,NW,UN,33,winfer,ROUPET,z,,,,,,,,,,,,,,,,,,,,,,,,,,,,,,,,,,,,,,,,,,,,,,,,,,,,,,,,,,,,,,,,,,
,,,,31795,001,2025-10-20_12h58.36.834,HW_LDT_1,2024.2.4,MacIntel,58.82352941,,,,,,,,,,,,,,,,,,,,,48.458,48.657,48.657,49.157,49.158,49.774,m,1,0.595,,[],[],[],[],[],[],[],0.595,1,49.774,50.274,0,11,11,5,1,1006,WORD,UN,33,frenzy,OBTAIN,m,,,,,,,,,,,,,,,,,,,,,,,,,,,,,,,,,,,,,,,,,,,,,,,,,,,,,,,,,,,,,,,,,,
,,,,31795,001,2025-10-20_12h58.36.834,HW_LDT_1,2024.2.4,MacIntel,58.82352941,,,,,,,,,,,,,,,,,,,,,50.275,50.474,50.474,50.974,50.975,51.493,m,1,0.505,,[],[],[],[],[],[],[],0.505,1,51.493,51.991,0,12,12,7,1,1008,WORD,UN,16,hurdle,VOLUME,m,,,,,,,,,,,,,,,,,,,,,,,,,,,,,,,,,,,,,,,,,,,,,,,,,,,,,,,,,,,,,,,,,,
,,,,31795,001,2025-10-20_12h58.36.834,HW_LDT_1,2024.2.4,MacIntel,58.82352941,,,,,,,,,,,,,,,,,,,,,51.991,52.191,52.191,52.691,52.691,53.441,z,1,0.742,,[],[],[],[],[],[],[],0.742,1,53.441,53.94,0,13,13,9,1,1010,NW,"ID",33,fariny,FARINY,z,,,,,,,,,,,,,,,,,,,,,,,,,,,,,,,,,,,,,,,,,,,,,,,,,,,,,,,,,,,,,,,,,,
,,,,31795,001,2025-10-20_12h58.36.834,HW_LDT_1,2024.2.4,MacIntel,58.82352941,,,,,,,,,,,,,,,,,,,,,53.941,54.14,54.14,54.641,54.641,55.441,z,1,0.789,,[],[],[],[],[],[],[],0.789,1,55.441,55.941,0,14,14,8,1,1009,NW,"ID",33,aslert,ASLERT,z,,,,,,,,,,,,,,,,,,,,,,,,,,,,,,,,,,,,,,,,,,,,,,,,,,,,,,,,,,,,,,,,,,
,,,,31795,001,2025-10-20_12h58.36.834,HW_LDT_1,2024.2.4,MacIntel,58.82352941,,,,,,,,,,,,,,,,,,,,,55.941,56.141,56.141,56.641,56.641,57.393,m,1,0.738,,[],[],[],[],[],[],[],0.738,1,57.393,57.891,0,15,15,4,1,1005,WORD,UN,33,abound,SQUEAK,m,,,,,,,,,,,,,,,,,,,,,,,,,,,,,,,,,,,,,,,,,,,,,,,,,,,,,,,,,,,,,,,,,,
,,,,31795,001,2025-10-20_12h58.36.834,HW_LDT_1,2024.2.4,MacIntel,58.82352941,,,,,,,,,,,,,,,,1,end_of_practice,"You have completed the practice trials. During the experimental trials, you will not receive feedback. On some trials you will be asked to report whether the item you just saw was in cursive or print. 
Before you begin, please ensure that you are in a comfortable and quiet location and will not be disturbed for about 15 minutes, as we cannot use your data if you do not complete all the trials. 
 When you are ready to start the experimental trials, please press space or touch the button below.",,,,,,,,,,,,,,,,,,,,,,,,,,,,,,,,,,,,57.897,59.607,space,1.679,,0.37867247,-0.122415669,0,0,0,0,0,0,0,1,,,,,,,,,,,,,,,,,,,,,,,,,,,,,,,,,,,,,,,,,,,,,,,,,,,
,,,,31795,001,2025-10-20_12h58.36.834,HW_LDT_1,2024.2.4,MacIntel,58.82352941,,,,,,,,,,,,,,,,,,,,,59.619,59.807,59.807,60.307,,,,,,,,,,,,,,0.768,1,,,,,,,,,,,,,,m,,,,,,,,,,,,,,,,1,0,60.308,61.091,m,1,0.768,,[],[],[],[],[],[],[],61.092,63.091,63.091,63.094,[],[],[],[],[],[],[],,63.095,63.096,0.37867247,-0.122415669,0,0,0,,0,0,0,131,1,1,word,POPULAR,cursive,popular_c.png,,,,,,
,,,,31795,001,2025-10-20_12h58.36.834,HW_LDT_1,2024.2.4,MacIntel,58.82352941,,,,,,,,,,,,,,,,,,,,,63.097,63.29,63.29,63.79,,,,,,,,,,,,,,0.974,1,,,,,,,,,,,,,,z,,,,,,,,,,,,,,,,2,0,63.791,64.774,z,1,0.974,,[],[],[],[],[],[],[],64.774,66.774,66.774,66.774,[],[],[],[],[],[],[],,66.774,66.775,0.37867247,-0.122415669,0,0,0,,0,1,1,2,1,1,RL,asiral,print,asiral_p.png,,,,,,
,,,,31795,001,2025-10-20_12h58.36.834,HW_LDT_1,2024.2.4,MacIntel,58.82352941,,,,,,,,,,,,,,,,,,,,,66.775,66.974,66.974,67.473,,,,,,,,,,,,,,0.772,1,,,,,,,,,,,,,,m,,,,,,,,,,,,,,,,3,0,67.474,68.257,m,1,0.772,,[],[],[],[],[],[],[],68.257,70.257,70.257,70.257,[],[],[],[],[],[],[],,70.257,70.257,0.37867247,-0.122415669,0,0,0,,0,2,2,132,1,1,word,PROPOSAL,cursive,proposal_c.png,,,,,,
,,,,31795,001,2025-10-20_12h58.36.834,HW_LDT_1,2024.2.4,MacIntel,58.82352941,,,,,,,,,,,,,,,,,,,,,70.258,70.457,70.457,70.957,,,,,,,,,,,,,,1.073,1,,,,,,,,,,,,,,m,,,,,,,,,,,,,,,,4,0,70.957,72.04,m,1,1.073,,[],[],[],[],[],[],[],72.04,74.041,74.041,74.041,[],[],[],[],[],[],[],,74.041,74.041,0.37867247,-0.122415669,0,0,0,,0,3,3,122,1,1,word,MOBILE,cursive,mobile_c.png,,,,,,
,,,,31795,001,2025-10-20_12h58.36.834,HW_LDT_1,2024.2.4,MacIntel,58.82352941,,,,,,,,,,,,,,,,,,,,,74.042,74.24,74.24,74.741,,,,,,,,,,,,,,1.528,0,,,,,,,,,,,,,,z,,,,,,,,,,,,,,,,5,1,74.741,76.277,m,0,1.528,,[],[],[],[],[],[],[],76.277,78.273,78.273,81.14,[],[],[],[],[],[],[],z,81.141,81.141,0.37867247,-0.122415669,0,0,0,,0,4,4,36,1,1,RL,speniven,cursive,speniven_c.png,2.854,,,,,
,,,,31795,001,2025-10-20_12h58.36.834,HW_LDT_1,2024.2.4,MacIntel,58.82352941,,,,,,,,,,,,,,,,,,,,,81.142,81.34,81.34,81.84,,,,,,,,,,,,,,3.46,1,,,,,,,,,,,,,,m,,,,,,,,,,,,,,,,6,0,81.841,85.309,m,1,3.46,,[],[],[],[],[],[],[],85.309,87.307,87.307,87.307,[],[],[],[],[],[],[],,87.307,87.308,0.37867247,-0.122415669,0,0,0,,0,5,5,103,1,1,word,DISPUTE,cursive,dispute_c.png,,,,,,
,,,,31795,001,2025-10-20_12h58.36.834,HW_LDT_1,2024.2.4,MacIntel,58.82352941,,,,,,,,,,,,,,,,,,,,,87.309,87.507,87.507,88.007,,,,,,,,,,,,,,1.376,1,,,,,,,,,,,,,,z,,,,,,,,,,,,,,,,7,0,88.007,89.391,z,1,1.376,,[],[],[],[],[],[],[],89.391,91.391,91.391,91.391,[],[],[],[],[],[],[],,91.391,91.391,0.37867247,-0.122415669,0,0,0,,0,6,6,67,1,1,TL,pocily,cursive,pocily_c.png,,,,,,
,,,,31795,001,2025-10-20_12h58.36.834,HW_LDT_1,2024.2.4,MacIntel,58.82352941,,,,,,,,,,,,,,,,,,,,,91.392,91.59,91.59,92.09,,,,,,,,,,,,,,0.679,1,,,,,,,,,,,,,,m,,,,,,,,,,,,,,,,8,0,92.091,92.777,m,1,0.679,,[],[],[],[],[],[],[],92.777,94.774,94.774,94.774,[],[],[],[],[],[],[],,94.774,94.774,0.37867247,-0.122415669,0,0,0,,0,7,7,84,1,1,word,BELOVED,print,beloved_p.png,,,,,,
,,,,31795,001,2025-10-20_12h58.36.834,HW_LDT_1,2024.2.4,MacIntel,58.82352941,,,,,,,,,,,,,,,,,,,,,94.774,94.974,94.974,95.474,,,,,,,,,,,,,,0.83,1,,,,,,,,,,,,,,m,,,,,,,,,,,,,,,,9,0,95.474,96.31,m,1,0.83,,[],[],[],[],[],[],[],96.31,98.307,98.307,98.307,[],[],[],[],[],[],[],,98.307,98.307,0.37867247,-0.122415669,0,0,0,,0,8,8,97,1,1,word,COVERAGE,print,coverage_p.png,,,,,,
,,,,31795,001,2025-10-20_12h58.36.834,HW_LDT_1,2024.2.4,MacIntel,58.82352941,,,,,,,,,,,,,,,,,,,,,98.308,98.507,98.507,99.007,,,,,,,,,,,,,,0.855,1,,,,,,,,,,,,,,m,,,,,,,,,,,,,,,,10,1,99.007,99.874,m,1,0.855,,[],[],[],[],[],[],[],99.874,101.874,101.874,103.074,[],[],[],[],[],[],[],m,103.074,103.074,0.37867247,-0.122415669,0,0,0,,0,9,9,91,1,1,word,CARDINAL,print,cardinal_p.png,1.187,,,,,
,,,,31795,001,2025-10-20_12h58.36.834,HW_LDT_1,2024.2.4,MacIntel,58.82352941,,,,,,,,,,,,,,,,,,,,,103.075,103.274,103.274,103.773,,,,,,,,,,,,,,1.713,1,,,,,,,,,,,,,,z,,,,,,,,,,,,,,,,11,0,103.774,105.49,z,1,1.713,,[],[],[],[],[],[],[],105.491,107.49,107.49,107.491,[],[],[],[],[],[],[],,107.491,107.491,0.37867247,-0.122415669,0,0,0,,0,10,10,44,1,1,TL,cateferia,cursive,cateferia_c.png,,,,,,
,,,,31795,001,2025-10-20_12h58.36.834,HW_LDT_1,2024.2.4,MacIntel,58.82352941,,,,,,,,,,,,,,,,,,,,,107.491,107.69,107.69,108.189,,,,,,,,,,,,,,0.604,1,,,,,,,,,,,,,,m,,,,,,,,,,,,,,,,12,0,108.19,108.807,m,1,0.604,,[],[],[],[],[],[],[],108.807,110.807,110.807,110.807,[],[],[],[],[],[],[],,110.807,110.807,0.37867247,-0.122415669,0,0,0,,0,11,11,80,1,1,word,ACADEMY,cursive,academy_c.png,,,,,,
,,,,31795,001,2025-10-20_12h58.36.834,HW_LDT_1,2024.2.4,MacIntel,58.82352941,,,,,,,,,,,,,,,,,,,,,110.808,111.007,111.007,111.506,,,,,,,,,,,,,,0.623,1,,,,,,,,,,,,,,m,,,,,,,,,,,,,,,,13,0,111.507,112.141,m,1,0.623,,[],[],[],[],[],[],[],112.141,114.14,114.14,114.14,[],[],[],[],[],[],[],,114.14,114.14,0.37867247,-0.122415669,0,0,0,,0,12,12,128,1,1,word,PACIFIC,print,pacific_p.png,,,,,,
,,,,31795,001,2025-10-20_12h58.36.834,HW_LDT_1,2024.2.4,MacIntel,58.82352941,,,,,,,,,,,,,,,,,,,,,114.141,114.34,114.34,114.84,,,,,,,,,,,,,,0.591,1,,,,,,,,,,,,,,m,,,,,,,,,,,,,,,,14,0,114.84,115.44,m,1,0.591,,[],[],[],[],[],[],[],115.44,117.44,117.44,117.44,[],[],[],[],[],[],[],,117.44,117.441,0.37867247,-0.122415669,0,0,0,,0,13,13,117,1,1,word,MARINE,print,marine_p.png,,,,,,
,,,,31795,001,2025-10-20_12h58.36.834,HW_LDT_1,2024.2.4,MacIntel,58.82352941,,,,,,,,,,,,,,,,,,,,,117.441,117.64,117.64,118.14,,,,,,,,,,,,,,0.803,1,,,,,,,,,,,,,,z,,,,,,,,,,,,,,,,15,0,118.14,118.957,z,1,0.803,,[],[],[],[],[],[],[],118.957,120.956,120.956,120.957,[],[],[],[],[],[],[],,120.957,120.957,0.37867247,-0.122415669,0,0,0,,0,14,14,76,1,1,TL,stragety,cursive,stragety_c.png,,,,,,
,,,,31795,001,2025-10-20_12h58.36.834,HW_LDT_1,2024.2.4,MacIntel,58.82352941,,,,,,,,,,,,,,,,,,,,,120.957,121.157,121.157,121.657,,,,,,,,,,,,,,0.756,1,,,,,,,,,,,,,,m,,,,,,,,,,,,,,,,16,0,121.657,122.423,m,1,0.756,,[],[],[],[],[],[],[],122.423,124.424,124.424,124.424,[],[],[],[],[],[],[],,124.424,124.424,0.37867247,-0.122415669,0,0,0,,0,15,15,120,1,1,word,MILITARY,print,military_p.png,,,,,,
,,,,31795,001,2025-10-20_12h58.36.834,HW_LDT_1,2024.2.4,MacIntel,58.82352941,,,,,,,,,,,,,,,,,,,,,124.425,124.623,124.623,125.123,,,,,,,,,,,,,,0.677,1,,,,,,,,,,,,,,m,,,,,,,,,,,,,,,,17,1,125.124,125.807,m,1,0.677,,[],[],[],[],[],[],[],125.807,127.806,127.806,129.19,[],[],[],[],[],[],[],z,129.19,129.19,0.37867247,-0.122415669,0,0,0,,0,16,16,95,1,1,word,COMEDY,cursive,comedy_c.png,1.377,,,,,
,,,,31795,001,2025-10-20_12h58.36.834,HW_LDT_1,2024.2.4,MacIntel,58.82352941,,,,,,,,,,,,,,,,,,,,,129.191,129.39,129.39,129.89,,,,,,,,,,,,,,1.724,1,,,,,,,,,,,,,,z,,,,,,,,,,,,,,,,18,0,129.89,131.623,z,1,1.724,,[],[],[],[],[],[],[],131.624,133.624,133.624,133.624,[],[],[],[],[],[],[],,133.624,133.624,0.37867247,-0.122415669,0,0,0,,0,17,17,58,1,1,TL,incidate,cursive,incidate_c.png,,,,,,
,,,,31795,001,2025-10-20_12h58.36.834,HW_LDT_1,2024.2.4,MacIntel,58.82352941,,,,,,,,,,,,,,,,,,,,,133.624,133.823,133.823,134.323,,,,,,,,,,,,,,0.77,1,,,,,,,,,,,,,,z,,,,,,,,,,,,,,,,19,0,134.324,135.106,z,1,0.77,,[],[],[],[],[],[],[],135.107,137.107,137.107,137.107,[],[],[],[],[],[],[],,137.107,137.107,0.37867247,-0.122415669,0,0,0,,0,18,18,13,1,1,RL,linefal,print,linefal_p.png,,,,,,
,,,,31795,001,2025-10-20_12h58.36.834,HW_LDT_1,2024.2.4,MacIntel,58.82352941,,,,,,,,,,,,,,,,,,,,,137.107,137.307,137.307,137.806,,,,,,,,,,,,,,0.605,0,,,,,,,,,,,,,,z,,,,,,,,,,,,,,,,20,0,137.806,138.423,m,0,0.605,,[],[],[],[],[],[],[],138.423,140.423,140.423,140.424,[],[],[],[],[],[],[],,140.424,140.424,0.37867247,-0.122415669,0,0,0,,0,19,19,45,1,1,TL,cacapity,print,cacapity_p.png,,,,,,
,,,,31795,001,2025-10-20_12h58.36.834,HW_LDT_1,2024.2.4,MacIntel,58.82352941,,,,,,,,,,,,,,,,,,,,,140.424,140.623,140.624,141.122,,,,,,,,,,,,,,1.02,0,,,,,,,,,,,,,,m,,,,,,,,,,,,,,,,21,0,141.123,142.157,z,0,1.02,,[],[],[],[],[],[],[],142.157,144.157,144.157,144.157,[],[],[],[],[],[],[],,144.157,144.157,0.37867247,-0.122415669,0,0,0,,0,20,20,105,1,1,word,EDITOR,cursive,editor_c.png,,,,,,
,,,,31795,001,2025-10-20_12h58.36.834,HW_LDT_1,2024.2.4,MacIntel,58.82352941,,,,,,,,,,,,,,,,,,,,,144.158,144.356,144.356,144.857,,,,,,,,,,,,,,1.136,1,,,,,,,,,,,,,,z,,,,,,,,,,,,,,,,22,0,144.857,146.007,z,1,1.136,,[],[],[],[],[],[],[],146.007,148.006,148.006,148.006,[],[],[],[],[],[],[],,148.007,148.007,0.37867247,-0.122415669,0,0,0,,0,21,21,22,1,1,RL,patisic,print,patisic_p.png,,,,,,
,,,,31795,001,2025-10-20_12h58.36.834,HW_LDT_1,2024.2.4,MacIntel,58.82352941,,,,,,,,,,,,,,,,,,,,,148.007,148.207,148.207,148.706,,,,,,,,,,,,,,0.795,0,,,,,,,,,,,,,,z,,,,,,,,,,,,,,,,23,0,148.707,149.507,m,0,0.795,,[],[],[],[],[],[],[],149.507,151.507,151.507,151.507,[],[],[],[],[],[],[],,151.507,151.507,0.37867247,-0.122415669,0,0,0,,0,22,22,66,1,1,TL,panert,cursive,panert_c.png,,,,,,
,,,,31795,001,2025-10-20_12h58.36.834,HW_LDT_1,2024.2.4,MacIntel,58.82352941,,,,,,,,,,,,,,,,,,,,,151.508,151.707,151.707,152.207,,,,,,,,,,,,,,2.029,1,,,,,,,,,,,,,,z,,,,,,,,,,,,,,,,24,0,152.207,154.24,z,1,2.029,,[],[],[],[],[],[],[],154.24,156.24,156.24,156.24,[],[],[],[],[],[],[],,156.24,156.24,0.37867247,-0.122415669,0,0,0,,0,23,23,54,1,1,TL,distupe,cursive,distupe_c.png,,,,,,
,,,,31795,001,2025-10-20_12h58.36.834,HW_LDT_1,2024.2.4,MacIntel,58.82352941,,,,,,,,,,,,,,,,,,,,,156.241,156.44,156.44,156.94,,,,,,,,,,,,,,0.92,1,,,,,,,,,,,,,,z,,,,,,,,,,,,,,,,25,0,156.94,157.873,z,1,0.92,,[],[],[],[],[],[],[],157.873,159.873,159.873,159.873,[],[],[],[],[],[],[],,159.873,159.874,0.37867247,-0.122415669,0,0,0,,0,24,24,28,1,1,RL,renutal,print,renutal_p.png,,,,,,
,,,,31795,001,2025-10-20_12h58.36.834,HW_LDT_1,2024.2.4,MacIntel,58.82352941,,,,,,,,,,,,,,,,,,,,,159.874,160.073,160.073,160.573,,,,,,,,,,,,,,1.37,1,,,,,,,,,,,,,,z,,,,,,,,,,,,,,,,26,0,160.574,161.956,z,1,1.37,,[],[],[],[],[],[],[],161.956,163.956,163.957,163.957,[],[],[],[],[],[],[],,163.957,163.957,0.37867247,-0.122415669,0,0,0,,0,25,25,75,1,1,TL,speficic,cursive,speficic_c.png,,,,,,
,,,,31795,001,2025-10-20_12h58.36.834,HW_LDT_1,2024.2.4,MacIntel,58.82352941,,,,,,,,,,,,,,,,,,,,,163.958,164.156,164.157,164.656,,,,,,,,,,,,,,0.988,1,,,,,,,,,,,,,,z,,,,,,,,,,,,,,,,27,0,164.657,165.657,z,1,0.988,,[],[],[],[],[],[],[],165.657,167.656,167.656,167.657,[],[],[],[],[],[],[],,167.657,167.657,0.37867247,-0.122415669,0,0,0,,0,26,26,47,1,1,TL,cagetory,print,cagetory_p.png,,,,,,
,,,,31795,001,2025-10-20_12h58.36.834,HW_LDT_1,2024.2.4,MacIntel,58.82352941,,,,,,,,,,,,,,,,,,,,,167.657,167.856,167.856,168.356,,,,,,,,,,,,,,0.936,1,,,,,,,,,,,,,,m,,,,,,,,,,,,,,,,28,0,168.357,169.306,m,1,0.936,,[],[],[],[],[],[],[],169.306,171.306,171.306,171.307,[],[],[],[],[],[],[],,171.307,171.307,0.37867247,-0.122415669,0,0,0,,0,27,27,148,1,1,word,SALINE,print,saline_p.png,,,,,,
,,,,31795,001,2025-10-20_12h58.36.834,HW_LDT_1,2024.2.4,MacIntel,58.82352941,,,,,,,,,,,,,,,,,,,,,171.307,171.506,171.506,172.006,,,,,,,,,,,,,,0.591,1,,,,,,,,,,,,,,m,,,,,,,,,,,,,,,,29,0,172.007,172.607,m,1,0.591,,[],[],[],[],[],[],[],172.607,174.606,174.606,174.606,[],[],[],[],[],[],[],,174.606,174.606,0.37867247,-0.122415669,0,0,0,,0,28,28,133,1,1,word,PROVIDE,print,provide_p.png,,,,,,
,,,,31795,001,2025-10-20_12h58.36.834,HW_LDT_1,2024.2.4,MacIntel,58.82352941,,,,,,,,,,,,,,,,,,,,,174.607,174.806,174.806,175.306,,,,,,,,,,,,,,0.646,1,,,,,,,,,,,,,,m,,,,,,,,,,,,,,,,30,0,175.307,175.959,m,1,0.646,,[],[],[],[],[],[],[],175.959,177.956,177.956,177.957,[],[],[],[],[],[],[],,177.957,177.957,0.37867247,-0.122415669,0,0,0,,0,29,29,107,1,1,word,EVIDENT,print,evident_p.png,,,,,,
,,,,31795,001,2025-10-20_12h58.36.834,HW_LDT_1,2024.2.4,MacIntel,58.82352941,,,,,,,,,,,,,,,,,,,,,177.957,178.156,178.156,178.656,,,,,,,,,,,,,,0.594,1,,,,,,,,,,,,,,m,,,,,,,,,,,,,,,,31,0,178.657,179.257,m,1,0.594,,[],[],[],[],[],[],[],179.257,181.257,181.257,181.257,[],[],[],[],[],[],[],,181.257,181.257,0.37867247,-0.122415669,0,0,0,,0,30,30,126,1,1,word,OPTIMAL,print,optimal_p.png,,,,,,
,,,,31795,001,2025-10-20_12h58.36.834,HW_LDT_1,2024.2.4,MacIntel,58.82352941,,,,,,,,,,,,,,,,,,,,,181.258,181.456,181.457,181.956,,,,,,,,,,,,,,1.546,1,,,,,,,,,,,,,,z,,,,,,,,,,,,,,,,32,0,181.957,183.506,z,1,1.546,,[],[],[],[],[],[],[],183.506,185.506,185.506,185.507,[],[],[],[],[],[],[],,185.507,185.507,0.37867247,-0.122415669,0,0,0,,0,31,31,71,1,1,TL,regilion,cursive,regilion_c.png,,,,,,
,,,,31795,001,2025-10-20_12h58.36.834,HW_LDT_1,2024.2.4,MacIntel,58.82352941,,,,,,,,,,,,,,,,,,,,,185.507,185.706,185.706,186.207,,,,,,,,,,,,,,0.862,1,,,,,,,,,,,,,,z,,,,,,,,,,,,,,,,33,0,186.207,187.073,z,1,0.862,,[],[],[],[],[],[],[],187.073,189.073,189.073,189.073,[],[],[],[],[],[],[],,189.073,189.074,0.37867247,-0.122415669,0,0,0,,0,32,32,34,1,1,RL,samite,print,samite_p.png,,,,,,
,,,,31795,001,2025-10-20_12h58.36.834,HW_LDT_1,2024.2.4,MacIntel,58.82352941,,,,,,,,,,,,,,,,,,,,,189.074,189.272,189.273,189.773,,,,,,,,,,,,,,0.753,1,,,,,,,,,,,,,,m,,,,,,,,,,,,,,,,34,0,189.773,190.539,m,1,0.753,,[],[],[],[],[],[],[],190.539,192.54,192.54,192.54,[],[],[],[],[],[],[],,192.54,192.54,0.37867247,-0.122415669,0,0,0,,0,33,33,114,1,1,word,LOCATE,print,locate_p.png,,,,,,
,,,,31795,001,2025-10-20_12h58.36.834,HW_LDT_1,2024.2.4,MacIntel,58.82352941,,,,,,,,,,,,,,,,,,,,,192.541,192.739,192.739,193.24,,,,,,,,,,,,,,1.22,1,,,,,,,,,,,,,,m,,,,,,,,,,,,,,,,35,0,193.24,194.473,m,1,1.22,,[],[],[],[],[],[],[],194.473,196.473,196.473,196.473,[],[],[],[],[],[],[],,196.473,196.473,0.37867247,-0.122415669,0,0,0,,0,34,34,86,1,1,word,BESIDE,print,beside_p.png,,,,,,
,,,,31795,001,2025-10-20_12h58.36.834,HW_LDT_1,2024.2.4,MacIntel,58.82352941,,,,,,,,,,,,,,,,,,,,,196.474,196.673,196.673,197.173,,,,,,,,,,,,,,1.087,1,,,,,,,,,,,,,,z,,,,,,,,,,,,,,,,36,0,197.173,198.273,z,1,1.087,,[],[],[],[],[],[],[],198.273,200.273,200.273,200.273,[],[],[],[],[],[],[],,200.273,200.274,0.37867247,-0.122415669,0,0,0,,0,35,35,1,1,1,RL,adnicory,cursive,adnicory_c.png,,,,,,
,,,,31795,001,2025-10-20_12h58.36.834,HW_LDT_1,2024.2.4,MacIntel,58.82352941,,,,,,,,,,,,,,,,,,,,,200.274,200.473,200.473,200.973,,,,,,,,,,,,,,0.591,1,,,,,,,,,,,,,,m,,,,,,,,,,,,,,,,37,0,200.973,201.573,m,1,0.591,,[],[],[],[],[],[],[],201.573,203.573,203.573,203.573,[],[],[],[],[],[],[],,203.573,203.573,0.37867247,-0.122415669,0,0,0,,0,36,36,100,1,1,word,DECADE,print,decade_p.png,,,,,,
,,,,31795,001,2025-10-20_12h58.36.834,HW_LDT_1,2024.2.4,MacIntel,58.82352941,,,,,,,,,,,,,,,,,,,,,203.574,203.773,203.773,204.273,,,,,,,,,,,,,,0.857,1,,,,,,,,,,,,,,z,,,,,,,,,,,,,,,,38,0,204.273,205.14,z,1,0.857,,[],[],[],[],[],[],[],205.14,207.14,207.14,207.14,[],[],[],[],[],[],[],,207.14,207.14,0.37867247,-0.122415669,0,0,0,,0,37,37,20,1,1,RL,nunewical,print,nunewical_p.png,,,,,,
,,,,31795,001,2025-10-20_12h58.36.834,HW_LDT_1,2024.2.4,MacIntel,58.82352941,,,,,,,,,,,,,,,,,,,,,207.14,207.34,207.34,207.84,,,,,,,,,,,,,,0.725,1,,,,,,,,,,,,,,m,,,,,,,,,,,,,,,,39,0,207.84,208.572,m,1,0.725,,[],[],[],[],[],[],[],208.573,210.573,210.573,210.573,[],[],[],[],[],[],[],,210.573,210.573,0.37867247,-0.122415669,0,0,0,,0,38,38,144,1,1,word,RESIDENT,print,resident_p.png,,,,,,
,,,,31795,001,2025-10-20_12h58.36.834,HW_LDT_1,2024.2.4,MacIntel,58.82352941,,,,,,,,,,,,,,,,,,,,,210.574,210.773,210.773,211.272,,,,,,,,,,,,,,0.778,1,,,,,,,,,,,,,,z,,,,,,,,,,,,,,,,40,0,211.273,212.056,z,1,0.778,,[],[],[],[],[],[],[],212.056,214.056,214.056,214.057,[],[],[],[],[],[],[],,214.057,214.057,0.37867247,-0.122415669,0,0,0,,0,39,39,33,1,1,RL,recile,cursive,recile_c.png,,,,,,
,,,,31795,001,2025-10-20_12h58.36.834,HW_LDT_1,2024.2.4,MacIntel,58.82352941,,,,,,,,,,,,,,,,,,,,,214.058,214.256,214.256,214.756,,,,,,,,,,,,,,1.253,1,,,,,,,,,,,,,,z,,,,,,,,,,,,,,,,41,0,214.756,216.023,z,1,1.253,,[],[],[],[],[],[],[],216.023,218.023,218.023,218.023,[],[],[],[],[],[],[],,218.023,218.023,0.37867247,-0.122415669,0,0,0,,0,40,40,59,1,1,TL,lirebal,cursive,lirebal_c.png,,,,,,
,,,,31795,001,2025-10-20_12h58.36.834,HW_LDT_1,2024.2.4,MacIntel,58.82352941,,,,,,,,,,,,,,,,,,,,,218.024,218.222,218.222,218.723,,,,,,,,,,,,,,0.875,0,,,,,,,,,,,,,,z,,,,,,,,,,,,,,,,42,0,218.723,219.606,m,0,0.875,,[],[],[],[],[],[],[],219.606,221.606,221.606,221.607,[],[],[],[],[],[],[],,221.607,221.607,0.37867247,-0.122415669,0,0,0,,0,41,41,65,1,1,TL,orinigal,cursive,orinigal_c.png,,,,,,
,,,,31795,001,2025-10-20_12h58.36.834,HW_LDT_1,2024.2.4,MacIntel,58.82352941,,,,,,,,,,,,,,,,,,,,,221.608,221.806,221.806,222.306,,,,,,,,,,,,,,0.693,1,,,,,,,,,,,,,,m,,,,,,,,,,,,,,,,43,0,222.307,223.006,m,1,0.693,,[],[],[],[],[],[],[],223.006,225.006,225.006,225.006,[],[],[],[],[],[],[],,225.006,225.006,0.37867247,-0.122415669,0,0,0,,0,42,42,137,1,1,word,RAPIDLY,cursive,rapidly_c.png,,,,,,
,,,,31795,001,2025-10-20_12h58.36.834,HW_LDT_1,2024.2.4,MacIntel,58.82352941,,,,,,,,,,,,,,,,,,,,,225.007,225.206,225.206,225.706,,,,,,,,,,,,,,1.67,1,,,,,,,,,,,,,,z,,,,,,,,,,,,,,,,44,0,225.707,227.39,z,1,1.67,,[],[],[],[],[],[],[],227.39,229.389,229.39,229.39,[],[],[],[],[],[],[],,229.39,229.39,0.37867247,-0.122415669,0,0,0,,0,43,43,50,1,1,TL,condiser,cursive,condiser_c.png,,,,,,
,,,,31795,001,2025-10-20_12h58.36.834,HW_LDT_1,2024.2.4,MacIntel,58.82352941,,,,,,,,,,,,,,,,,,,,,229.39,229.589,229.589,230.089,,,,,,,,,,,,,,0.679,1,,,,,,,,,,,,,,m,,,,,,,,,,,,,,,,45,0,230.09,230.775,m,1,0.679,,[],[],[],[],[],[],[],230.775,232.773,232.773,232.773,[],[],[],[],[],[],[],,232.773,232.773,0.37867247,-0.122415669,0,0,0,,0,44,44,130,1,1,word,POLICY,cursive,policy_c.png,,,,,,
,,,,31795,001,2025-10-20_12h58.36.834,HW_LDT_1,2024.2.4,MacIntel,58.82352941,,,,,,,,,,,,,,,,,,,,,232.774,232.973,232.973,233.473,,,,,,,,,,,,,,1.086,1,,,,,,,,,,,,,,z,,,,,,,,,,,,,,,,46,0,233.473,234.573,z,1,1.086,,[],[],[],[],[],[],[],234.573,236.573,236.573,236.573,[],[],[],[],[],[],[],,236.573,236.573,0.37867247,-0.122415669,0,0,0,,0,45,45,68,1,1,TL,prosopal,cursive,prosopal_c.png,,,,,,
,,,,31795,001,2025-10-20_12h58.36.834,HW_LDT_1,2024.2.4,MacIntel,58.82352941,,,,,,,,,,,,,,,,,,,,,236.574,236.773,236.773,237.273,,,,,,,,,,,,,,1.321,0,,,,,,,,,,,,,,m,,,,,,,,,,,,,,,,47,0,237.273,238.606,z,0,1.321,,[],[],[],[],[],[],[],238.606,240.606,240.606,240.606,[],[],[],[],[],[],[],,240.606,240.606,0.37867247,-0.122415669,0,0,0,,0,46,46,140,1,1,word,RELATIVE,cursive,relative_c.png,,,,,,
,,,,31795,001,2025-10-20_12h58.36.834,HW_LDT_1,2024.2.4,MacIntel,58.82352941,,,,,,,,,,,,,,,,,,,,,240.607,240.806,240.806,241.306,,,,,,,,,,,,,,0.64,1,,,,,,,,,,,,,,z,,,,,,,,,,,,,,,,48,1,241.306,241.956,z,1,0.64,,[],[],[],[],[],[],[],241.956,243.956,243.956,244.939,[],[],[],[],[],[],[],m,244.94,244.94,0.37867247,-0.122415669,0,0,0,,0,47,47,7,1,1,RL,delahe,print,delahe_p.png,0.971,,,,,
,,,,31795,001,2025-10-20_12h58.36.834,HW_LDT_1,2024.2.4,MacIntel,58.82352941,,,,,,,,,,,,,,,,,,,,,244.94,245.139,245.139,245.639,,,,,,,,,,,,,,0.979,1,,,,,,,,,,,,,,z,,,,,,,,,,,,,,,,49,0,245.64,246.623,z,1,0.979,,[],[],[],[],[],[],[],246.623,248.623,248.623,248.623,[],[],[],[],[],[],[],,248.623,248.623,0.37867247,-0.122415669,0,0,0,,0,48,48,53,1,1,TL,dentisy,cursive,dentisy_c.png,,,,,,
,,,,31795,001,2025-10-20_12h58.36.834,HW_LDT_1,2024.2.4,MacIntel,58.82352941,,,,,,,,,,,,,,,,,,,,,248.624,248.823,248.823,249.323,,,,,,,,,,,,,,0.539,1,,,,,,,,,,,,,,m,,,,,,,,,,,,,,,,50,0,249.323,249.873,m,1,0.539,,[],[],[],[],[],[],[],249.873,251.873,251.873,251.873,[],[],[],[],[],[],[],,251.873,251.873,0.37867247,-0.122415669,0,0,0,,0,49,49,139,1,1,word,REGULAR,print,regular_p.png,,,,,,
,,,,31795,001,2025-10-20_12h58.36.834,HW_LDT_1,2024.2.4,MacIntel,58.82352941,,,,,,,,,,,,,,,,,,,,,251.874,252.073,252.073,252.573,,,,,,,,,,,,,,0.792,1,,,,,,,,,,,,,,z,,,,,,,,,,,,,,,,51,0,252.573,253.373,z,1,0.792,,[],[],[],[],[],[],[],253.373,255.373,255.373,255.373,[],[],[],[],[],[],[],,255.373,255.373,0.37867247,-0.122415669,0,0,0,,0,50,50,74,1,1,TL,setanor,cursive,setanor_c.png,,,,,,
,,,,31795,001,2025-10-20_12h58.36.834,HW_LDT_1,2024.2.4,MacIntel,58.82352941,,,,,,,,,,,,,,,,,,,,,255.374,255.573,255.573,256.073,,,,,,,,,,,,,,0.604,1,,,,,,,,,,,,,,m,,,,,,,,,,,,,,,,52,0,256.073,256.689,m,1,0.604,,[],[],[],[],[],[],[],256.689,258.689,258.689,258.69,[],[],[],[],[],[],[],,258.69,258.69,0.37867247,-0.122415669,0,0,0,,0,51,51,109,1,1,word,GRATEFUL,print,grateful_p.png,,,,,,
,,,,31795,001,2025-10-20_12h58.36.834,HW_LDT_1,2024.2.4,MacIntel,58.82352941,,,,,,,,,,,,,,,,,,,,,258.69,258.889,258.889,259.389,,,,,,,,,,,,,,0.695,1,,,,,,,,,,,,,,z,,,,,,,,,,,,,,,,53,1,259.39,260.089,z,1,0.695,,[],[],[],[],[],[],[],260.089,262.089,262.089,263.408,[],[],[],[],[],[],[],m,263.408,263.408,0.37867247,-0.122415669,0,0,0,,0,52,52,5,1,1,RL,cobeny,cursive,cobeny_c.png,1.313,,,,,
,,,,31795,001,2025-10-20_12h58.36.834,HW_LDT_1,2024.2.4,MacIntel,58.82352941,,,,,,,,,,,,,,,,,,,,,263.409,263.606,263.606,264.106,,,,,,,,,,,,,,0.554,1,,,,,,,,,,,,,,m,,,,,,,,,,,,,,,,54,1,264.106,264.673,m,1,0.554,,[],[],[],[],[],[],[],264.673,266.672,266.673,267.889,[],[],[],[],[],[],[],z,267.889,267.889,0.37867247,-0.122415669,0,0,0,,0,53,53,129,1,1,word,PARENT,cursive,parent_c.png,1.205,,,,,
,,,,31795,001,2025-10-20_12h58.36.834,HW_LDT_1,2024.2.4,MacIntel,58.82352941,,,,,,,,,,,,,,,,,,,,,267.89,268.089,268.089,268.589,,,,,,,,,,,,,,0.696,1,,,,,,,,,,,,,,m,,,,,,,,,,,,,,,,55,0,268.59,269.291,m,1,0.696,,[],[],[],[],[],[],[],269.291,271.289,271.289,271.29,[],[],[],[],[],[],[],,271.29,271.29,0.37867247,-0.122415669,0,0,0,,0,54,54,154,1,1,word,STORAGE,cursive,storage_c.png,,,,,,
,,,,31795,001,2025-10-20_12h58.36.834,HW_LDT_1,2024.2.4,MacIntel,58.82352941,,,,,,,,,,,,,,,,,,,,,271.291,271.488,271.489,271.989,,,,,,,,,,,,,,0.69,1,,,,,,,,,,,,,,z,,,,,,,,,,,,,,,,56,0,271.99,272.688,z,1,0.69,,[],[],[],[],[],[],[],272.689,274.689,274.689,274.689,[],[],[],[],[],[],[],,274.69,274.69,0.37867247,-0.122415669,0,0,0,,0,55,55,42,1,1,TL,befenit,print,befenit_p.png,,,,,,
,,,,31795,001,2025-10-20_12h58.36.834,HW_LDT_1,2024.2.4,MacIntel,58.82352941,,,,,,,,,,,,,,,,,,,,,274.69,274.888,274.888,275.389,,,,,,,,,,,,,,0.675,1,,,,,,,,,,,,,,m,,,,,,,,,,,,,,,,57,0,275.389,276.073,m,1,0.675,,[],[],[],[],[],[],[],276.073,278.072,278.073,278.073,[],[],[],[],[],[],[],,278.073,278.073,0.37867247,-0.122415669,0,0,0,,0,56,56,82,1,1,word,AMATEUR,print,amateur_p.png,,,,,,
,,,,31795,001,2025-10-20_12h58.36.834,HW_LDT_1,2024.2.4,MacIntel,58.82352941,,,,,,,,,,,,,,,,,,,,,278.074,278.273,278.273,278.773,,,,,,,,,,,,,,1.487,1,,,,,,,,,,,,,,z,,,,,,,,,,,,,,,,58,0,278.773,280.272,z,1,1.487,,[],[],[],[],[],[],[],280.273,282.273,282.273,282.273,[],[],[],[],[],[],[],,282.273,282.273,0.37867247,-0.122415669,0,0,0,,0,57,57,73,1,1,TL,ronamtic,cursive,ronamtic_c.png,,,,,,
,,,,31795,001,2025-10-20_12h58.36.834,HW_LDT_1,2024.2.4,MacIntel,58.82352941,,,,,,,,,,,,,,,,,,,,,282.274,282.473,282.473,282.972,,,,,,,,,,,,,,0.822,1,,,,,,,,,,,,,,m,,,,,,,,,,,,,,,,59,0,282.973,283.806,m,1,0.822,,[],[],[],[],[],[],[],283.806,285.806,285.806,285.806,[],[],[],[],[],[],[],,285.806,285.806,0.37867247,-0.122415669,0,0,0,,0,58,58,115,1,1,word,LOGICAL,cursive,logical_c.png,,,,,,
,,,,31795,001,2025-10-20_12h58.36.834,HW_LDT_1,2024.2.4,MacIntel,58.82352941,,,,,,,,,,,,,,,,,,,,,285.807,286.006,286.006,286.506,,,,,,,,,,,,,,0.593,1,,,,,,,,,,,,,,m,,,,,,,,,,,,,,,,60,0,286.506,287.106,m,1,0.593,,[],[],[],[],[],[],[],287.106,289.106,289.106,289.106,[],[],[],[],[],[],[],,289.106,289.106,0.37867247,-0.122415669,0,0,0,,0,59,59,99,1,1,word,DEBATE,print,debate_p.png,,,,,,
,,,,31795,001,2025-10-20_12h58.36.834,HW_LDT_1,2024.2.4,MacIntel,58.82352941,,,,,,,,,,,,,,,,,,,,,289.107,289.306,289.306,289.806,,,,,,,,,,,,,,0.97,0,,,,,,,,,,,,,,m,,,,,,,,,,,,,,,,61,0,289.806,290.788,z,0,0.97,,[],[],[],[],[],[],[],290.788,292.789,292.789,292.789,[],[],[],[],[],[],[],,292.789,292.789,0.37867247,-0.122415669,0,0,0,,0,60,60,125,1,1,word,OPERATOR,cursive,operator_c.png,,,,,,
,,,,31795,001,2025-10-20_12h58.36.834,HW_LDT_1,2024.2.4,MacIntel,58.82352941,,,,,,,,,,,,,,,,,,,,,292.79,292.989,292.989,293.489,,,,,,,,,,,,,,0.896,1,,,,,,,,,,,,,,m,,,,,,,,,,,,,,,,62,0,293.489,294.392,m,1,0.896,,[],[],[],[],[],[],[],294.392,296.389,296.389,296.389,[],[],[],[],[],[],[],,296.389,296.389,0.37867247,-0.122415669,0,0,0,,0,61,61,88,1,1,word,CAMERA,cursive,camera_c.png,,,,,,
,,,,31795,001,2025-10-20_12h58.36.834,HW_LDT_1,2024.2.4,MacIntel,58.82352941,,,,,,,,,,,,,,,,,,,,,296.39,296.589,296.589,297.089,,,,,,,,,,,,,,0.853,1,,,,,,,,,,,,,,z,,,,,,,,,,,,,,,,63,0,297.089,297.956,z,1,0.853,,[],[],[],[],[],[],[],297.956,299.956,299.956,299.956,[],[],[],[],[],[],[],,299.956,299.956,0.37867247,-0.122415669,0,0,0,,0,62,62,4,1,1,RL,carminal,print,carminal_p.png,,,,,,
,,,,31795,001,2025-10-20_12h58.36.834,HW_LDT_1,2024.2.4,MacIntel,58.82352941,,,,,,,,,,,,,,,,,,,,,299.957,300.156,300.156,300.656,,,,,,,,,,,,,,1.525,1,,,,,,,,,,,,,,m,,,,,,,,,,,,,,,,64,0,300.656,302.189,m,1,1.525,,[],[],[],[],[],[],[],302.189,304.189,304.189,304.189,[],[],[],[],[],[],[],,304.189,304.189,0.37867247,-0.122415669,0,0,0,,0,63,63,155,1,1,word,STRATEGY,cursive,strategy_c.png,,,,,,
,,,,31795,001,2025-10-20_12h58.36.834,HW_LDT_1,2024.2.4,MacIntel,58.82352941,,,,,,,,,,,,,,,,,,,,,304.191,304.389,304.389,304.889,,,,,,,,,,,,,,0.687,0,,,,,,,,,,,,,,z,,,,,,,,,,,,,,,,65,0,304.889,305.588,m,0,0.687,,[],[],[],[],[],[],[],305.588,307.589,307.589,307.589,[],[],[],[],[],[],[],,307.589,307.589,0.37867247,-0.122415669,0,0,0,,0,64,64,3,1,1,RL,casena,cursive,casena_c.png,,,,,,
,,,,31795,001,2025-10-20_12h58.36.834,HW_LDT_1,2024.2.4,MacIntel,58.82352941,,,,,,,,,,,,,,,,,,,,,307.59,307.789,307.789,308.288,,,,,,,,,,,,,,1.188,1,,,,,,,,,,,,,,m,,,,,,,,,,,,,,,,66,0,308.289,309.489,m,1,1.188,,[],[],[],[],[],[],[],309.489,311.489,311.489,311.489,[],[],[],[],[],[],[],,311.489,311.489,0.37867247,-0.122415669,0,0,0,,0,65,65,96,1,1,word,CONSIDER,cursive,consider_c.png,,,,,,
,,,,31795,001,2025-10-20_12h58.36.834,HW_LDT_1,2024.2.4,MacIntel,58.82352941,,,,,,,,,,,,,,,,,,,,,311.49,311.688,311.688,312.189,,,,,,,,,,,,,,0.77,1,,,,,,,,,,,,,,m,,,,,,,,,,,,,,,,67,0,312.189,312.972,m,1,0.77,,[],[],[],[],[],[],[],312.973,314.972,314.972,314.972,[],[],[],[],[],[],[],,314.972,314.972,0.37867247,-0.122415669,0,0,0,,0,66,66,94,1,1,word,CLINICAL,cursive,clinical_c.png,,,,,,
,,,,31795,001,2025-10-20_12h58.36.834,HW_LDT_1,2024.2.4,MacIntel,58.82352941,,,,,,,,,,,,,,,,,,,,,314.973,315.172,315.172,315.672,,,,,,,,,,,,,,0.73,1,,,,,,,,,,,,,,m,,,,,,,,,,,,,,,,68,0,315.672,316.408,m,1,0.73,,[],[],[],[],[],[],[],316.408,318.405,318.406,318.406,[],[],[],[],[],[],[],,318.406,318.406,0.37867247,-0.122415669,0,0,0,,0,67,67,141,1,1,word,RELIGION,cursive,religion_c.png,,,,,,
,,,,31795,001,2025-10-20_12h58.36.834,HW_LDT_1,2024.2.4,MacIntel,58.82352941,,,,,,,,,,,,,,,,,,,,,318.407,318.605,318.605,319.105,,,,,,,,,,,,,,0.805,1,,,,,,,,,,,,,,z,,,,,,,,,,,,,,,,69,0,319.106,319.922,z,1,0.805,,[],[],[],[],[],[],[],319.922,321.922,321.922,321.922,[],[],[],[],[],[],[],,321.923,321.923,0.37867247,-0.122415669,0,0,0,,0,68,68,23,1,1,RL,potugar,cursive,potugar_c.png,,,,,,
,,,,31795,001,2025-10-20_12h58.36.834,HW_LDT_1,2024.2.4,MacIntel,58.82352941,,,,,,,,,,,,,,,,,,,,,321.923,322.122,322.122,322.621,,,,,,,,,,,,,,0.709,1,,,,,,,,,,,,,,z,,,,,,,,,,,,,,,,70,0,322.622,323.339,z,1,0.709,,[],[],[],[],[],[],[],323.339,325.338,325.338,325.338,[],[],[],[],[],[],[],,325.339,325.339,0.37867247,-0.122415669,0,0,0,,0,69,69,31,1,1,RL,reconal,cursive,reconal_c.png,,,,,,
,,,,31795,001,2025-10-20_12h58.36.834,HW_LDT_1,2024.2.4,MacIntel,58.82352941,,,,,,,,,,,,,,,,,,,,,325.34,325.539,325.539,326.039,,,,,,,,,,,,,,0.592,1,,,,,,,,,,,,,,z,,,,,,,,,,,,,,,,71,0,326.039,326.639,z,1,0.592,,[],[],[],[],[],[],[],326.639,328.639,328.639,328.639,[],[],[],[],[],[],[],,328.639,328.639,0.37867247,-0.122415669,0,0,0,,0,70,70,12,1,1,RL,ebiwent,print,ebiwent_p.png,,,,,,
,,,,31795,001,2025-10-20_12h58.36.834,HW_LDT_1,2024.2.4,MacIntel,58.82352941,,,,,,,,,,,,,,,,,,,,,328.64,328.839,328.839,329.339,,,,,,,,,,,,,,0.67,0,,,,,,,,,,,,,,m,,,,,,,,,,,,,,,,72,0,329.339,330.022,z,0,0.67,,[],[],[],[],[],[],[],330.022,332.022,332.022,332.022,[],[],[],[],[],[],[],,332.022,332.023,0.37867247,-0.122415669,0,0,0,,0,71,71,146,1,1,word,RETIRE,cursive,retire_c.png,,,,,,
,,,,31795,001,2025-10-20_12h58.36.834,HW_LDT_1,2024.2.4,MacIntel,58.82352941,,,,,,,,,,,,,,,,,,,,,332.023,332.222,332.222,332.722,,,,,,,,,,,,,,1.04,1,,,,,,,,,,,,,,z,,,,,,,,,,,,,,,,73,0,332.722,333.772,z,1,1.04,,[],[],[],[],[],[],[],333.772,335.772,335.772,335.773,[],[],[],[],[],[],[],,335.773,335.773,0.37867247,-0.122415669,0,0,0,,0,72,72,9,1,1,RL,docirant,cursive,docirant_c.png,,,,,,
,,,,31795,001,2025-10-20_12h58.36.834,HW_LDT_1,2024.2.4,MacIntel,58.82352941,,,,,,,,,,,,,,,,,,,,,335.774,335.972,335.972,336.472,,,,,,,,,,,,,,0.996,1,,,,,,,,,,,,,,z,,,,,,,,,,,,,,,,74,1,336.472,337.472,z,1,0.996,,[],[],[],[],[],[],[],337.472,339.471,339.471,340.922,[],[],[],[],[],[],[],z,340.922,340.922,0.37867247,-0.122415669,0,0,0,,0,73,73,56,1,1,TL,grafetul,print,grafetul_p.png,1.443,,,,,
,,,,31795,001,2025-10-20_12h58.36.834,HW_LDT_1,2024.2.4,MacIntel,58.82352941,,,,,,,,,,,,,,,,,,,,,340.923,341.122,341.122,341.622,,,,,,,,,,,,,,1.27,0,,,,,,,,,,,,,,m,,,,,,,,,,,,,,,,75,0,341.622,342.906,z,0,1.27,,[],[],[],[],[],[],[],342.906,344.905,344.905,344.906,[],[],[],[],[],[],[],,344.906,344.906,0.37867247,-0.122415669,0,0,0,,0,74,74,134,1,1,word,QUALIFY,cursive,qualify_c.png,,,,,,
,,,,31795,001,2025-10-20_12h58.36.834,HW_LDT_1,2024.2.4,MacIntel,58.82352941,,,,,,,,,,,,,,,,,,,,,344.906,345.105,345.105,345.605,,,,,,,,,,,,,,0.758,1,,,,,,,,,,,,,,m,,,,,,,,,,,,,,,,76,1,345.606,346.372,m,1,0.758,,[],[],[],[],[],[],[],346.372,348.372,348.372,349.406,[],[],[],[],[],[],[],z,349.406,349.406,0.37867247,-0.122415669,0,0,0,,0,75,75,136,1,1,word,RADICAL,print,radical_p.png,1.031,,,,,
,,,,31795,001,2025-10-20_12h58.36.834,HW_LDT_1,2024.2.4,MacIntel,58.82352941,,,,,,,,,,,,,,,,,,,,,349.407,349.606,349.606,350.105,,,,,,,,,,,,,,0.878,1,,,,,,,,,,,,,,z,,,,,,,,,,,,,,,,77,0,350.106,350.989,z,1,0.878,,[],[],[],[],[],[],[],350.989,352.988,352.988,352.988,[],[],[],[],[],[],[],,352.988,352.989,0.37867247,-0.122415669,0,0,0,,0,76,76,37,1,1,RL,skofen,print,skofen_p.png,,,,,,
,,,,31795,001,2025-10-20_12h58.36.834,HW_LDT_1,2024.2.4,MacIntel,58.82352941,,,,,,,,,,,,,,,,,,,,,352.989,353.188,353.188,353.688,,,,,,,,,,,,,,0.804,1,,,,,,,,,,,,,,z,,,,,,,,,,,,,,,,78,0,353.688,354.505,z,1,0.804,,[],[],[],[],[],[],[],354.506,356.505,356.505,356.505,[],[],[],[],[],[],[],,356.505,356.506,0.37867247,-0.122415669,0,0,0,,0,77,77,40,1,1,TL,atameur,print,atameur_p.png,,,,,,
,,,,31795,001,2025-10-20_12h58.36.834,HW_LDT_1,2024.2.4,MacIntel,58.82352941,,,,,,,,,,,,,,,,,,,,,356.506,356.705,356.705,357.205,,,,,,,,,,,,,,0.62,1,,,,,,,,,,,,,,z,,,,,,,,,,,,,,,,79,0,357.206,357.839,z,1,0.62,,[],[],[],[],[],[],[],357.839,359.839,359.839,359.839,[],[],[],[],[],[],[],,359.839,359.839,0.37867247,-0.122415669,0,0,0,,0,78,78,25,1,1,RL,quakity,cursive,quakity_c.png,,,,,,
,,,,31795,001,2025-10-20_12h58.36.834,HW_LDT_1,2024.2.4,MacIntel,58.82352941,,,,,,,,,,,,,,,,,,,,,359.84,360.039,360.039,360.539,,,,,,,,,,,,,,0.96,1,,,,,,,,,,,,,,m,,,,,,,,,,,,,,,,80,0,360.539,361.505,m,1,0.96,,[],[],[],[],[],[],[],361.505,363.505,363.505,363.505,[],[],[],[],[],[],[],,363.505,369.955,0.37867247,-0.122415669,0,0,0,space,0,79,79,93,1,1,word,CEREMONY,cursive,ceremony_c.png,,,6.424,,,
,,,,31795,001,2025-10-20_12h58.36.834,HW_LDT_1,2024.2.4,MacIntel,58.82352941,,,,,,,,,,,,,,,,,,,,,369.956,370.155,370.155,370.655,,,,,,,,,,,,,,0.72,1,,,,,,,,,,,,,,m,,,,,,,,,,,,,,,,81,0,370.655,371.389,m,1,0.72,,[],[],[],[],[],[],[],371.389,373.388,373.389,373.389,[],[],[],[],[],[],[],,373.389,373.389,0.37867247,-0.122415669,0,0,0,,0,80,80,121,1,1,word,MISTAKE,print,mistake_p.png,,,,,,
,,,,31795,001,2025-10-20_12h58.36.834,HW_LDT_1,2024.2.4,MacIntel,58.82352941,,,,,,,,,,,,,,,,,,,,,373.39,373.588,373.589,374.088,,,,,,,,,,,,,,0.911,1,,,,,,,,,,,,,,z,,,,,,,,,,,,,,,,82,0,374.088,375.005,z,1,0.911,,[],[],[],[],[],[],[],375.005,377.005,377.005,377.005,[],[],[],[],[],[],[],,377.005,377.006,0.37867247,-0.122415669,0,0,0,,0,81,81,46,1,1,TL,catipal,print,catipal_p.png,,,,,,
,,,,31795,001,2025-10-20_12h58.36.834,HW_LDT_1,2024.2.4,MacIntel,58.82352941,,,,,,,,,,,,,,,,,,,,,377.006,377.205,377.205,377.705,,,,,,,,,,,,,,0.545,1,,,,,,,,,,,,,,m,,,,,,,,,,,,,,,,83,0,377.705,378.258,m,1,0.545,,[],[],[],[],[],[],[],378.258,380.255,380.255,380.255,[],[],[],[],[],[],[],,380.255,380.255,0.37867247,-0.122415669,0,0,0,,0,82,82,83,1,1,word,ANIMAL,print,animal_p.png,,,,,,
,,,,31795,001,2025-10-20_12h58.36.834,HW_LDT_1,2024.2.4,MacIntel,58.82352941,,,,,,,,,,,,,,,,,,,,,380.256,380.455,380.455,380.955,,,,,,,,,,,,,,1.222,1,,,,,,,,,,,,,,z,,,,,,,,,,,,,,,,84,0,380.955,382.189,z,1,1.222,,[],[],[],[],[],[],[],382.189,384.188,384.188,384.188,[],[],[],[],[],[],[],,384.188,384.189,0.37867247,-0.122415669,0,0,0,,0,83,83,15,1,1,RL,losipal,cursive,losipal_c.png,,,,,,
,,,,31795,001,2025-10-20_12h58.36.834,HW_LDT_1,2024.2.4,MacIntel,58.82352941,,,,,,,,,,,,,,,,,,,,,384.189,384.388,384.389,384.888,,,,,,,,,,,,,,0.711,1,,,,,,,,,,,,,,z,,,,,,,,,,,,,,,,85,0,384.889,385.605,z,1,0.711,,[],[],[],[],[],[],[],385.605,387.605,387.605,387.605,[],[],[],[],[],[],[],,387.605,387.605,0.37867247,-0.122415669,0,0,0,,0,84,84,57,1,1,TL,hetirage,cursive,hetirage_c.png,,,,,,
,,,,31795,001,2025-10-20_12h58.36.834,HW_LDT_1,2024.2.4,MacIntel,58.82352941,,,,,,,,,,,,,,,,,,,,,387.606,387.805,387.805,388.305,,,,,,,,,,,,,,0.733,1,,,,,,,,,,,,,,m,,,,,,,,,,,,,,,,86,0,388.305,389.039,m,1,0.733,,[],[],[],[],[],[],[],389.039,391.038,391.039,391.039,[],[],[],[],[],[],[],,391.039,391.039,0.37867247,-0.122415669,0,0,0,,0,85,85,118,1,1,word,MEDICINE,cursive,medicine_c.png,,,,,,
,,,,31795,001,2025-10-20_12h58.36.834,HW_LDT_1,2024.2.4,MacIntel,58.82352941,,,,,,,,,,,,,,,,,,,,,391.039,391.237,391.238,391.738,,,,,,,,,,,,,,1.007,1,,,,,,,,,,,,,,z,,,,,,,,,,,,,,,,87,0,391.739,392.755,z,1,1.007,,[],[],[],[],[],[],[],392.755,394.755,394.755,394.755,[],[],[],[],[],[],[],,394.755,394.755,0.37867247,-0.122415669,0,0,0,,0,86,86,24,1,1,RL,probice,print,probice_p.png,,,,,,
,,,,31795,001,2025-10-20_12h58.36.834,HW_LDT_1,2024.2.4,MacIntel,58.82352941,,,,,,,,,,,,,,,,,,,,,394.756,394.955,394.955,395.455,,,,,,,,,,,,,,1.157,1,,,,,,,,,,,,,,m,,,,,,,,,,,,,,,,88,0,395.455,396.622,m,1,1.157,,[],[],[],[],[],[],[],396.622,398.622,398.622,398.622,[],[],[],[],[],[],[],,398.622,398.622,0.37867247,-0.122415669,0,0,0,,0,87,87,124,1,1,word,NUMERICAL,print,numerical_p.png,,,,,,
,,,,31795,001,2025-10-20_12h58.36.834,HW_LDT_1,2024.2.4,MacIntel,58.82352941,,,,,,,,,,,,,,,,,,,,,398.623,398.822,398.822,399.322,,,,,,,,,,,,,,0.763,1,,,,,,,,,,,,,,m,,,,,,,,,,,,,,,,89,0,399.322,400.091,m,1,0.763,,[],[],[],[],[],[],[],400.091,402.088,402.088,402.089,[],[],[],[],[],[],[],,402.089,402.089,0.37867247,-0.122415669,0,0,0,,0,88,88,90,1,1,word,CAPITAL,print,capital_p.png,,,,,,
,,,,31795,001,2025-10-20_12h58.36.834,HW_LDT_1,2024.2.4,MacIntel,58.82352941,,,,,,,,,,,,,,,,,,,,,402.089,402.289,402.289,402.788,,,,,,,,,,,,,,0.692,1,,,,,,,,,,,,,,m,,,,,,,,,,,,,,,,90,0,402.788,403.488,m,1,0.692,,[],[],[],[],[],[],[],403.488,405.488,405.488,405.489,[],[],[],[],[],[],[],,405.489,405.489,0.37867247,-0.122415669,0,0,0,,0,89,89,152,1,1,word,SPECIMEN,cursive,specimen_c.png,,,,,,
,,,,31795,001,2025-10-20_12h58.36.834,HW_LDT_1,2024.2.4,MacIntel,58.82352941,,,,,,,,,,,,,,,,,,,,,405.489,405.688,405.688,406.188,,,,,,,,,,,,,,0.853,1,,,,,,,,,,,,,,m,,,,,,,,,,,,,,,,91,0,406.188,407.055,m,1,0.853,,[],[],[],[],[],[],[],407.055,409.055,409.055,409.055,[],[],[],[],[],[],[],,409.055,409.055,0.37867247,-0.122415669,0,0,0,,0,90,90,135,1,1,word,QUALITY,cursive,quality_c.png,,,,,,
,,,,31795,001,2025-10-20_12h58.36.834,HW_LDT_1,2024.2.4,MacIntel,58.82352941,,,,,,,,,,,,,,,,,,,,,409.056,409.255,409.255,409.755,,,,,,,,,,,,,,0.996,1,,,,,,,,,,,,,,z,,,,,,,,,,,,,,,,92,1,409.755,410.755,z,1,0.996,,[],[],[],[],[],[],[],410.755,412.755,412.755,413.821,[],[],[],[],[],[],[],z,413.821,413.821,0.37867247,-0.122415669,0,0,0,,0,91,91,62,1,1,TL,mitilary,print,mitilary_p.png,1.054,,,,,
,,,,31795,001,2025-10-20_12h58.36.834,HW_LDT_1,2024.2.4,MacIntel,58.82352941,,,,,,,,,,,,,,,,,,,,,413.822,414.022,414.022,414.522,,,,,,,,,,,,,,1.106,1,,,,,,,,,,,,,,z,,,,,,,,,,,,,,,,93,0,414.522,415.638,z,1,1.106,,[],[],[],[],[],[],[],415.639,417.638,417.638,417.638,[],[],[],[],[],[],[],,417.638,417.639,0.37867247,-0.122415669,0,0,0,,0,92,92,35,1,1,RL,senvilent,cursive,senvilent_c.png,,,,,,
,,,,31795,001,2025-10-20_12h58.36.834,HW_LDT_1,2024.2.4,MacIntel,58.82352941,,,,,,,,,,,,,,,,,,,,,417.639,417.837,417.838,418.338,,,,,,,,,,,,,,0.836,1,,,,,,,,,,,,,,z,,,,,,,,,,,,,,,,94,0,418.339,419.188,z,1,0.836,,[],[],[],[],[],[],[],419.188,421.188,421.188,421.188,[],[],[],[],[],[],[],,421.188,421.189,0.37867247,-0.122415669,0,0,0,,0,93,93,10,1,1,RL,efibor,cursive,efibor_c.png,,,,,,
,,,,31795,001,2025-10-20_12h58.36.834,HW_LDT_1,2024.2.4,MacIntel,58.82352941,,,,,,,,,,,,,,,,,,,,,421.189,421.388,421.388,421.888,,,,,,,,,,,,,,0.64,1,,,,,,,,,,,,,,z,,,,,,,,,,,,,,,,95,1,421.889,422.538,z,1,0.64,,[],[],[],[],[],[],[],422.538,424.538,424.538,425.555,[],[],[],[],[],[],[],z,425.555,425.555,0.37867247,-0.122415669,0,0,0,,0,94,94,26,1,1,RL,quafidy,cursive,quafidy_c.png,1.004,,,,,
,,,,31795,001,2025-10-20_12h58.36.834,HW_LDT_1,2024.2.4,MacIntel,58.82352941,,,,,,,,,,,,,,,,,,,,,425.556,425.755,425.755,426.255,,,,,,,,,,,,,,1.187,1,,,,,,,,,,,,,,m,,,,,,,,,,,,,,,,96,0,426.255,427.455,m,1,1.187,,[],[],[],[],[],[],[],427.455,429.455,429.455,429.455,[],[],[],[],[],[],[],,429.455,429.455,0.37867247,-0.122415669,0,0,0,,0,95,95,150,1,1,word,SENTIMENT,cursive,sentiment_c.png,,,,,,
,,,,31795,001,2025-10-20_12h58.36.834,HW_LDT_1,2024.2.4,MacIntel,58.82352941,,,,,,,,,,,,,,,,,,,,,429.456,429.654,429.654,430.155,,,,,,,,,,,,,,0.737,1,,,,,,,,,,,,,,m,,,,,,,,,,,,,,,,97,0,430.155,430.905,m,1,0.737,,[],[],[],[],[],[],[],430.905,432.905,432.905,432.905,[],[],[],[],[],[],[],,432.905,432.905,0.37867247,-0.122415669,0,0,0,,0,96,96,108,1,1,word,FORTUNE,print,fortune_p.png,,,,,,
,,,,31795,001,2025-10-20_12h58.36.834,HW_LDT_1,2024.2.4,MacIntel,58.82352941,,,,,,,,,,,,,,,,,,,,,432.906,433.104,433.105,433.605,,,,,,,,,,,,,,0.897,1,,,,,,,,,,,,,,z,,,,,,,,,,,,,,,,98,1,433.605,434.505,z,1,0.897,,[],[],[],[],[],[],[],434.505,436.505,436.505,437.555,[],[],[],[],[],[],[],z,437.555,437.555,0.37867247,-0.122415669,0,0,0,,0,97,97,72,1,1,TL,remuse,print,remuse_p.png,1.04,,,,,
,,,,31795,001,2025-10-20_12h58.36.834,HW_LDT_1,2024.2.4,MacIntel,58.82352941,,,,,,,,,,,,,,,,,,,,,437.556,437.755,437.755,438.255,,,,,,,,,,,,,,0.745,1,,,,,,,,,,,,,,m,,,,,,,,,,,,,,,,99,0,438.255,439.007,m,1,0.745,,[],[],[],[],[],[],[],439.008,441.005,441.005,441.005,[],[],[],[],[],[],[],,441.005,441.006,0.37867247,-0.122415669,0,0,0,,0,98,98,138,1,1,word,REFUSAL,print,refusal_p.png,,,,,,
,,,,31795,001,2025-10-20_12h58.36.834,HW_LDT_1,2024.2.4,MacIntel,58.82352941,,,,,,,,,,,,,,,,,,,,,441.007,441.205,441.205,441.705,,,,,,,,,,,,,,0.653,1,,,,,,,,,,,,,,z,,,,,,,,,,,,,,,,100,0,441.705,442.371,z,1,0.653,,[],[],[],[],[],[],[],442.372,444.371,444.371,444.372,[],[],[],[],[],[],[],,444.372,444.372,0.37867247,-0.122415669,0,0,0,,0,99,99,8,1,1,RL,debave,print,debave_p.png,,,,,,
,,,,31795,001,2025-10-20_12h58.36.834,HW_LDT_1,2024.2.4,MacIntel,58.82352941,,,,,,,,,,,,,,,,,,,,,444.373,444.571,444.572,445.07,,,,,,,,,,,,,,0.977,1,,,,,,,,,,,,,,m,,,,,,,,,,,,,,,,101,0,445.071,446.055,m,1,0.977,,[],[],[],[],[],[],[],446.055,448.055,448.055,448.055,[],[],[],[],[],[],[],,448.055,448.055,0.37867247,-0.122415669,0,0,0,,0,100,100,112,1,1,word,LIBERAL,cursive,liberal_c.png,,,,,,
,,,,31795,001,2025-10-20_12h58.36.834,HW_LDT_1,2024.2.4,MacIntel,58.82352941,,,,,,,,,,,,,,,,,,,,,448.056,448.255,448.255,448.755,,,,,,,,,,,,,,0.847,1,,,,,,,,,,,,,,z,,,,,,,,,,,,,,,,102,1,448.755,449.605,z,1,0.847,,[],[],[],[],[],[],[],449.605,451.605,451.605,453.005,[],[],[],[],[],[],[],z,453.005,453.005,0.37867247,-0.122415669,0,0,0,,0,101,101,78,1,1,TL,vecolity,print,vecolity_p.png,1.39,,,,,
,,,,31795,001,2025-10-20_12h58.36.834,HW_LDT_1,2024.2.4,MacIntel,58.82352941,,,,,,,,,,,,,,,,,,,,,453.006,453.205,453.205,453.705,,,,,,,,,,,,,,0.836,1,,,,,,,,,,,,,,z,,,,,,,,,,,,,,,,103,0,453.705,454.555,z,1,0.836,,[],[],[],[],[],[],[],454.555,456.554,456.554,456.554,[],[],[],[],[],[],[],,456.554,456.554,0.37867247,-0.122415669,0,0,0,,0,102,102,32,1,1,RL,rebicent,print,rebicent_p.png,,,,,,
,,,,31795,001,2025-10-20_12h58.36.834,HW_LDT_1,2024.2.4,MacIntel,58.82352941,,,,,,,,,,,,,,,,,,,,,456.555,456.754,456.755,457.254,,,,,,,,,,,,,,0.991,1,,,,,,,,,,,,,,z,,,,,,,,,,,,,,,,104,0,457.255,458.255,z,1,0.991,,[],[],[],[],[],[],[],458.255,460.255,460.255,460.255,[],[],[],[],[],[],[],,460.255,460.255,0.37867247,-0.122415669,0,0,0,,0,103,103,0,1,1,RL,abanemy,cursive,abanemy_c.png,,,,,,
,,,,31795,001,2025-10-20_12h58.36.834,HW_LDT_1,2024.2.4,MacIntel,58.82352941,,,,,,,,,,,,,,,,,,,,,460.255,460.455,460.455,460.955,,,,,,,,,,,,,,0.57,1,,,,,,,,,,,,,,z,,,,,,,,,,,,,,,,105,0,460.955,461.538,z,1,0.57,,[],[],[],[],[],[],[],461.538,463.538,463.538,463.538,[],[],[],[],[],[],[],,463.538,463.538,0.37867247,-0.122415669,0,0,0,,0,104,104,43,1,1,TL,bedise,print,bedise_p.png,,,,,,
,,,,31795,001,2025-10-20_12h58.36.834,HW_LDT_1,2024.2.4,MacIntel,58.82352941,,,,,,,,,,,,,,,,,,,,,463.539,463.738,463.738,464.238,,,,,,,,,,,,,,0.561,1,,,,,,,,,,,,,,z,,,,,,,,,,,,,,,,106,0,464.238,464.805,z,1,0.561,,[],[],[],[],[],[],[],464.805,466.805,466.805,466.805,[],[],[],[],[],[],[],,466.805,466.805,0.37867247,-0.122415669,0,0,0,,0,105,105,30,1,1,RL,relone,print,relone_p.png,,,,,,
,,,,31795,001,2025-10-20_12h58.36.834,HW_LDT_1,2024.2.4,MacIntel,58.82352941,,,,,,,,,,,,,,,,,,,,,466.806,467.005,467.005,467.505,,,,,,,,,,,,,,0.654,1,,,,,,,,,,,,,,z,,,,,,,,,,,,,,,,107,0,467.505,468.171,z,1,0.654,,[],[],[],[],[],[],[],468.171,470.171,470.171,470.171,[],[],[],[],[],[],[],,470.171,470.171,0.37867247,-0.122415669,0,0,0,,0,106,106,70,1,1,TL,relugar,print,relugar_p.png,,,,,,
,,,,31795,001,2025-10-20_12h58.36.834,HW_LDT_1,2024.2.4,MacIntel,58.82352941,,,,,,,,,,,,,,,,,,,,,470.172,470.371,470.371,470.871,,,,,,,,,,,,,,0.525,1,,,,,,,,,,,,,,z,,,,,,,,,,,,,,,,108,0,470.872,471.405,z,1,0.525,,[],[],[],[],[],[],[],471.405,473.404,473.404,473.404,[],[],[],[],[],[],[],,473.404,473.404,0.37867247,-0.122415669,0,0,0,,0,107,107,6,1,1,RL,crisival,print,crisival_p.png,,,,,,
,,,,31795,001,2025-10-20_12h58.36.834,HW_LDT_1,2024.2.4,MacIntel,58.82352941,,,,,,,,,,,,,,,,,,,,,473.405,473.604,473.604,474.105,,,,,,,,,,,,,,0.704,0,,,,,,,,,,,,,,z,,,,,,,,,,,,,,,,109,0,474.105,474.821,m,0,0.704,,[],[],[],[],[],[],[],474.821,476.821,476.821,476.821,[],[],[],[],[],[],[],,476.822,476.822,0.37867247,-0.122415669,0,0,0,,0,108,108,49,1,1,TL,clicinal,cursive,clicinal_c.png,,,,,,
,,,,31795,001,2025-10-20_12h58.36.834,HW_LDT_1,2024.2.4,MacIntel,58.82352941,,,,,,,,,,,,,,,,,,,,,476.822,477.021,477.021,477.521,,,,,,,,,,,,,,0.989,0,,,,,,,,,,,,,,m,,,,,,,,,,,,,,,,110,0,477.521,478.521,z,0,0.989,,[],[],[],[],[],[],[],478.521,480.521,480.521,480.522,[],[],[],[],[],[],[],,480.522,480.522,0.37867247,-0.122415669,0,0,0,,0,109,109,110,1,1,word,HERITAGE,cursive,heritage_c.png,,,,,,
,,,,31795,001,2025-10-20_12h58.36.834,HW_LDT_1,2024.2.4,MacIntel,58.82352941,,,,,,,,,,,,,,,,,,,,,480.523,480.721,480.721,481.221,,,,,,,,,,,,,,0.825,1,,,,,,,,,,,,,,m,,,,,,,,,,,,,,,,111,0,481.221,482.054,m,1,0.825,,[],[],[],[],[],[],[],482.054,484.054,484.055,484.055,[],[],[],[],[],[],[],,484.055,484.055,0.37867247,-0.122415669,0,0,0,,0,110,110,143,1,1,word,REMOVAL,cursive,removal_c.png,,,,,,
,,,,31795,001,2025-10-20_12h58.36.834,HW_LDT_1,2024.2.4,MacIntel,58.82352941,,,,,,,,,,,,,,,,,,,,,484.056,484.254,484.254,484.754,,,,,,,,,,,,,,0.72,1,,,,,,,,,,,,,,z,,,,,,,,,,,,,,,,112,0,484.754,485.488,z,1,0.72,,[],[],[],[],[],[],[],485.488,487.488,487.488,487.488,[],[],[],[],[],[],[],,487.488,487.488,0.37867247,-0.122415669,0,0,0,,0,111,111,77,1,1,TL,tritube,cursive,tritube_c.png,,,,,,
,,,,31795,001,2025-10-20_12h58.36.834,HW_LDT_1,2024.2.4,MacIntel,58.82352941,,,,,,,,,,,,,,,,,,,,,487.489,487.688,487.688,488.188,,,,,,,,,,,,,,0.74,1,,,,,,,,,,,,,,m,,,,,,,,,,,,,,,,113,1,488.188,488.938,m,1,0.74,,[],[],[],[],[],[],[],488.938,490.938,490.938,491.938,[],[],[],[],[],[],[],z,491.938,491.938,0.37867247,-0.122415669,0,0,0,,0,112,112,104,1,1,word,DOMINANT,cursive,dominant_c.png,0.994,,,,,
,,,,31795,001,2025-10-20_12h58.36.834,HW_LDT_1,2024.2.4,MacIntel,58.82352941,,,,,,,,,,,,,,,,,,,,,491.939,492.138,492.138,492.638,,,,,,,,,,,,,,0.687,1,,,,,,,,,,,,,,z,,,,,,,,,,,,,,,,114,0,492.638,493.337,z,1,0.687,,[],[],[],[],[],[],[],493.337,495.338,495.338,495.338,[],[],[],[],[],[],[],,495.338,495.338,0.37867247,-0.122415669,0,0,0,,0,113,113,11,1,1,RL,elacodate,print,elacodate_p.png,,,,,,
,,,,31795,001,2025-10-20_12h58.36.834,HW_LDT_1,2024.2.4,MacIntel,58.82352941,,,,,,,,,,,,,,,,,,,,,495.339,495.538,495.538,496.038,,,,,,,,,,,,,,0.902,1,,,,,,,,,,,,,,m,,,,,,,,,,,,,,,,115,0,496.038,496.955,m,1,0.902,,[],[],[],[],[],[],[],496.955,498.954,498.955,498.955,[],[],[],[],[],[],[],,498.955,498.955,0.37867247,-0.122415669,0,0,0,,0,114,114,92,1,1,word,CATEGORY,print,category_p.png,,,,,,
,,,,31795,001,2025-10-20_12h58.36.834,HW_LDT_1,2024.2.4,MacIntel,58.82352941,,,,,,,,,,,,,,,,,,,,,498.956,499.154,499.154,499.654,,,,,,,,,,,,,,0.691,1,,,,,,,,,,,,,,z,,,,,,,,,,,,,,,,116,0,499.655,500.354,z,1,0.691,,[],[],[],[],[],[],[],500.354,502.354,502.354,502.355,[],[],[],[],[],[],[],,502.355,502.355,0.37867247,-0.122415669,0,0,0,,0,115,115,41,1,1,TL,bevoled,print,bevoled_p.png,,,,,,
,,,,31795,001,2025-10-20_12h58.36.834,HW_LDT_1,2024.2.4,MacIntel,58.82352941,,,,,,,,,,,,,,,,,,,,,502.355,502.554,502.554,503.054,,,,,,,,,,,,,,0.645,1,,,,,,,,,,,,,,z,,,,,,,,,,,,,,,,117,0,503.054,503.704,z,1,0.645,,[],[],[],[],[],[],[],503.705,505.704,505.705,505.705,[],[],[],[],[],[],[],,505.705,505.705,0.37867247,-0.122415669,0,0,0,,0,116,116,16,1,1,RL,marmipal,print,marmipal_p.png,,,,,,
,,,,31795,001,2025-10-20_12h58.36.834,HW_LDT_1,2024.2.4,MacIntel,58.82352941,,,,,,,,,,,,,,,,,,,,,505.705,505.904,505.904,506.404,,,,,,,,,,,,,,0.621,0,,,,,,,,,,,,,,m,,,,,,,,,,,,,,,,118,0,506.405,507.038,z,0,0.621,,[],[],[],[],[],[],[],507.038,509.038,509.038,509.038,[],[],[],[],[],[],[],,509.038,509.038,0.37867247,-0.122415669,0,0,0,,0,117,117,101,1,1,word,DELICATE,cursive,delicate_c.png,,,,,,
,,,,31795,001,2025-10-20_12h58.36.834,HW_LDT_1,2024.2.4,MacIntel,58.82352941,,,,,,,,,,,,,,,,,,,,,509.039,509.238,509.238,509.738,,,,,,,,,,,,,,0.937,1,,,,,,,,,,,,,,m,,,,,,,,,,,,,,,,119,0,509.738,510.688,m,1,0.937,,[],[],[],[],[],[],[],510.688,512.688,512.688,512.688,[],[],[],[],[],[],[],,512.688,512.688,0.37867247,-0.122415669,0,0,0,,0,118,118,158,1,1,word,VELOCITY,print,velocity_p.png,,,,,,
,,,,31795,001,2025-10-20_12h58.36.834,HW_LDT_1,2024.2.4,MacIntel,58.82352941,,,,,,,,,,,,,,,,,,,,,512.689,512.888,512.888,513.388,,,,,,,,,,,,,,1.344,0,,,,,,,,,,,,,,m,,,,,,,,,,,,,,,,120,0,513.388,514.738,z,0,1.344,,[],[],[],[],[],[],[],514.738,516.738,516.738,516.738,[],[],[],[],[],[],[],,516.738,516.738,0.37867247,-0.122415669,0,0,0,,0,119,119,151,1,1,word,SPECIFIC,cursive,specific_c.png,,,,,,
,,,,31795,001,2025-10-20_12h58.36.834,HW_LDT_1,2024.2.4,MacIntel,58.82352941,,,,,,,,,,,,,,,,,,,,,516.739,516.937,516.937,517.438,,,,,,,,,,,,,,0.66,1,,,,,,,,,,,,,,m,,,,,,,,,,,,,,,,121,0,517.438,518.104,m,1,0.66,,[],[],[],[],[],[],[],518.104,520.104,520.104,520.105,[],[],[],[],[],[],[],,520.105,520.105,0.37867247,-0.122415669,0,0,0,,0,120,120,145,1,1,word,RESUME,print,resume_p.png,,,,,,
,,,,31795,001,2025-10-20_12h58.36.834,HW_LDT_1,2024.2.4,MacIntel,58.82352941,,,,,,,,,,,,,,,,,,,,,520.105,520.304,520.304,520.804,,,,,,,,,,,,,,0.853,1,,,,,,,,,,,,,,m,,,,,,,,,,,,,,,,122,0,520.804,521.671,m,1,0.853,,[],[],[],[],[],[],[],521.671,523.671,523.671,523.671,[],[],[],[],[],[],[],,523.671,523.671,0.37867247,-0.122415669,0,0,0,,0,121,121,127,1,1,word,ORIGINAL,cursive,original_c.png,,,,,,
,,,,31795,001,2025-10-20_12h58.36.834,HW_LDT_1,2024.2.4,MacIntel,58.82352941,,,,,,,,,,,,,,,,,,,,,523.672,523.871,523.871,524.371,,,,,,,,,,,,,,0.703,1,,,,,,,,,,,,,,m,,,,,,,,,,,,,,,,123,0,524.371,525.088,m,1,0.703,,[],[],[],[],[],[],[],525.088,527.088,527.088,527.088,[],[],[],[],[],[],[],,527.088,527.088,0.37867247,-0.122415669,0,0,0,,0,122,122,159,1,1,word,VETERAN,print,veteran_p.png,,,,,,
,,,,31795,001,2025-10-20_12h58.36.834,HW_LDT_1,2024.2.4,MacIntel,58.82352941,,,,,,,,,,,,,,,,,,,,,527.089,527.288,527.288,527.788,,,,,,,,,,,,,,0.653,1,,,,,,,,,,,,,,z,,,,,,,,,,,,,,,,124,0,527.788,528.454,z,1,0.653,,[],[],[],[],[],[],[],528.454,530.454,530.454,530.454,[],[],[],[],[],[],[],,530.454,530.455,0.37867247,-0.122415669,0,0,0,,0,123,123,21,1,1,RL,opcifal,print,opcifal_p.png,,,,,,
,,,,31795,001,2025-10-20_12h58.36.834,HW_LDT_1,2024.2.4,MacIntel,58.82352941,,,,,,,,,,,,,,,,,,,,,530.455,530.654,530.654,531.154,,,,,,,,,,,,,,0.974,1,,,,,,,,,,,,,,m,,,,,,,,,,,,,,,,125,1,531.154,532.138,m,1,0.974,,[],[],[],[],[],[],[],532.138,534.137,534.137,535.488,[],[],[],[],[],[],[],z,535.488,535.488,0.37867247,-0.122415669,0,0,0,,0,124,124,113,1,1,word,LITERAL,print,literal_p.png,1.338,,,,,
,,,,31795,001,2025-10-20_12h58.36.834,HW_LDT_1,2024.2.4,MacIntel,58.82352941,,,,,,,,,,,,,,,,,,,,,535.489,535.687,535.688,536.187,,,,,,,,,,,,,,0.904,0,,,,,,,,,,,,,,m,,,,,,,,,,,,,,,,126,0,536.188,537.104,z,0,0.904,,[],[],[],[],[],[],[],537.104,539.104,539.104,539.105,[],[],[],[],[],[],[],,539.105,539.105,0.37867247,-0.122415669,0,0,0,,0,125,125,87,1,1,word,CAFETERIA,cursive,cafeteria_c.png,,,,,,
,,,,31795,001,2025-10-20_12h58.36.834,HW_LDT_1,2024.2.4,MacIntel,58.82352941,,,,,,,,,,,,,,,,,,,,,539.105,539.304,539.304,539.804,,,,,,,,,,,,,,0.57,1,,,,,,,,,,,,,,m,,,,,,,,,,,,,,,,127,0,539.804,540.387,m,1,0.57,,[],[],[],[],[],[],[],540.387,542.387,542.387,542.388,[],[],[],[],[],[],[],,542.388,542.388,0.37867247,-0.122415669,0,0,0,,0,126,126,153,1,1,word,STOLEN,print,stolen_p.png,,,,,,
,,,,31795,001,2025-10-20_12h58.36.834,HW_LDT_1,2024.2.4,MacIntel,58.82352941,,,,,,,,,,,,,,,,,,,,,542.388,542.587,542.587,543.087,,,,,,,,,,,,,,0.608,1,,,,,,,,,,,,,,m,,,,,,,,,,,,,,,,128,0,543.088,543.704,m,1,0.608,,[],[],[],[],[],[],[],543.704,545.704,545.704,545.704,[],[],[],[],[],[],[],,545.704,545.704,0.37867247,-0.122415669,0,0,0,,0,127,127,123,1,1,word,MODERATE,print,moderate_p.png,,,,,,
,,,,31795,001,2025-10-20_12h58.36.834,HW_LDT_1,2024.2.4,MacIntel,58.82352941,,,,,,,,,,,,,,,,,,,,,545.705,545.904,545.904,546.404,,,,,,,,,,,,,,0.662,1,,,,,,,,,,,,,,z,,,,,,,,,,,,,,,,129,0,546.404,547.071,z,1,0.662,,[],[],[],[],[],[],[],547.071,549.07,549.07,549.07,[],[],[],[],[],[],[],,549.07,549.071,0.37867247,-0.122415669,0,0,0,,0,128,128,52,1,1,TL,decilate,cursive,decilate_c.png,,,,,,
,,,,31795,001,2025-10-20_12h58.36.834,HW_LDT_1,2024.2.4,MacIntel,58.82352941,,,,,,,,,,,,,,,,,,,,,549.071,549.271,549.271,549.771,,,,,,,,,,,,,,0.954,1,,,,,,,,,,,,,,m,,,,,,,,,,,,,,,,130,0,549.771,550.737,m,1,0.954,,[],[],[],[],[],[],[],550.738,552.737,552.737,552.737,[],[],[],[],[],[],[],,552.737,552.737,0.37867247,-0.122415669,0,0,0,,0,129,129,85,1,1,word,BENEFIT,print,benefit_p.png,,,,,,
,,,,31795,001,2025-10-20_12h58.36.834,HW_LDT_1,2024.2.4,MacIntel,58.82352941,,,,,,,,,,,,,,,,,,,,,552.738,552.937,552.937,553.438,,,,,,,,,,,,,,0.76,0,,,,,,,,,,,,,,m,,,,,,,,,,,,,,,,131,1,553.438,554.204,z,0,0.76,,[],[],[],[],[],[],[],554.204,556.203,556.203,556.937,[],[],[],[],[],[],[],z,556.937,556.938,0.37867247,-0.122415669,0,0,0,,0,130,130,149,1,1,word,SENATOR,cursive,senator_c.png,0.721,,,,,
,,,,31795,001,2025-10-20_12h58.36.834,HW_LDT_1,2024.2.4,MacIntel,58.82352941,,,,,,,,,,,,,,,,,,,,,556.938,557.137,557.137,557.636,,,,,,,,,,,,,,0.87,1,,,,,,,,,,,,,,z,,,,,,,,,,,,,,,,132,0,557.637,558.521,z,1,0.87,,[],[],[],[],[],[],[],558.521,560.52,560.52,560.521,[],[],[],[],[],[],[],,560.521,560.521,0.37867247,-0.122415669,0,0,0,,0,131,131,17,1,1,RL,menowy,cursive,menowy_c.png,,,,,,
,,,,31795,001,2025-10-20_12h58.36.834,HW_LDT_1,2024.2.4,MacIntel,58.82352941,,,,,,,,,,,,,,,,,,,,,560.521,560.721,560.721,561.22,,,,,,,,,,,,,,0.714,1,,,,,,,,,,,,,,m,,,,,,,,,,,,,,,,133,0,561.22,561.939,m,1,0.714,,[],[],[],[],[],[],[],561.939,563.937,563.937,563.938,[],[],[],[],[],[],[],,563.938,563.938,0.37867247,-0.122415669,0,0,0,,0,132,132,157,1,1,word,VALIDITY,cursive,validity_c.png,,,,,,
,,,,31795,001,2025-10-20_12h58.36.834,HW_LDT_1,2024.2.4,MacIntel,58.82352941,,,,,,,,,,,,,,,,,,,,,563.938,564.137,564.137,564.637,,,,,,,,,,,,,,0.77,1,,,,,,,,,,,,,,m,,,,,,,,,,,,,,,,134,1,564.638,565.421,m,1,0.77,,[],[],[],[],[],[],[],565.421,567.42,567.42,568.287,[],[],[],[],[],[],[],z,568.287,568.288,0.37867247,-0.122415669,0,0,0,,0,133,133,81,1,1,word,ADVISORY,cursive,advisory_c.png,0.856,,,,,
,,,,31795,001,2025-10-20_12h58.36.834,HW_LDT_1,2024.2.4,MacIntel,58.82352941,,,,,,,,,,,,,,,,,,,,,568.288,568.487,568.487,568.987,,,,,,,,,,,,,,1.22,1,,,,,,,,,,,,,,z,,,,,,,,,,,,,,,,135,1,568.987,570.221,z,1,1.22,,[],[],[],[],[],[],[],570.221,572.221,572.221,573.487,[],[],[],[],[],[],[],z,573.487,573.488,0.37867247,-0.122415669,0,0,0,,0,134,134,60,1,1,TL,manire,print,manire_p.png,1.254,,,,,
,,,,31795,001,2025-10-20_12h58.36.834,HW_LDT_1,2024.2.4,MacIntel,58.82352941,,,,,,,,,,,,,,,,,,,,,573.488,573.687,573.687,574.187,,,,,,,,,,,,,,0.796,1,,,,,,,,,,,,,,m,,,,,,,,,,,,,,,,136,0,574.187,574.989,m,1,0.796,,[],[],[],[],[],[],[],574.989,576.987,576.987,576.987,[],[],[],[],[],[],[],,576.988,576.988,0.37867247,-0.122415669,0,0,0,,0,135,135,156,1,1,word,TRIBUTE,cursive,tribute_c.png,,,,,,
,,,,31795,001,2025-10-20_12h58.36.834,HW_LDT_1,2024.2.4,MacIntel,58.82352941,,,,,,,,,,,,,,,,,,,,,576.988,577.187,577.187,577.687,,,,,,,,,,,,,,0.829,1,,,,,,,,,,,,,,z,,,,,,,,,,,,,,,,137,1,577.688,578.52,z,1,0.829,,[],[],[],[],[],[],[],578.521,580.52,580.521,581.354,[],[],[],[],[],[],[],z,581.354,581.354,0.37867247,-0.122415669,0,0,0,,0,136,136,38,1,1,RL,stopave,cursive,stopave_c.png,0.82,,,,,
,,,,31795,001,2025-10-20_12h58.36.834,HW_LDT_1,2024.2.4,MacIntel,58.82352941,,,,,,,,,,,,,,,,,,,,,581.355,581.554,581.554,582.054,,,,,,,,,,,,,,0.764,1,,,,,,,,,,,,,,z,,,,,,,,,,,,,,,,138,0,582.054,582.821,z,1,0.764,,[],[],[],[],[],[],[],582.821,584.82,584.82,584.821,[],[],[],[],[],[],[],,584.821,584.821,0.37867247,-0.122415669,0,0,0,,0,137,137,27,1,1,RL,rasibal,print,rasibal_p.png,,,,,,
,,,,31795,001,2025-10-20_12h58.36.834,HW_LDT_1,2024.2.4,MacIntel,58.82352941,,,,,,,,,,,,,,,,,,,,,584.821,585.021,585.021,585.521,,,,,,,,,,,,,,0.737,0,,,,,,,,,,,,,,z,,,,,,,,,,,,,,,,139,1,585.521,586.271,m,0,0.737,,[],[],[],[],[],[],[],586.271,588.27,588.271,589.154,[],[],[],[],[],[],[],z,589.154,589.154,0.37867247,-0.122415669,0,0,0,,0,138,138,48,1,1,TL,cemerony,cursive,cemerony_c.png,0.87,,,,,
,,,,31795,001,2025-10-20_12h58.36.834,HW_LDT_1,2024.2.4,MacIntel,58.82352941,,,,,,,,,,,,,,,,,,,,,589.155,589.354,589.354,589.854,,,,,,,,,,,,,,0.658,1,,,,,,,,,,,,,,z,,,,,,,,,,,,,,,,140,1,589.854,590.52,z,1,0.658,,[],[],[],[],[],[],[],590.52,592.52,592.521,593.137,[],[],[],[],[],[],[],z,593.137,593.137,0.37867247,-0.122415669,0,0,0,,0,139,139,29,1,1,RL,refakive,cursive,refakive_c.png,0.612,,,,,
,,,,31795,001,2025-10-20_12h58.36.834,HW_LDT_1,2024.2.4,MacIntel,58.82352941,,,,,,,,,,,,,,,,,,,,,593.138,593.337,593.337,593.837,,,,,,,,,,,,,,0.737,1,,,,,,,,,,,,,,z,,,,,,,,,,,,,,,,141,0,593.837,594.587,z,1,0.737,,[],[],[],[],[],[],[],594.587,596.587,596.587,596.587,[],[],[],[],[],[],[],,596.587,596.587,0.37867247,-0.122415669,0,0,0,,0,140,140,79,1,1,TL,veretan,print,veretan_p.png,,,,,,
,,,,31795,001,2025-10-20_12h58.36.834,HW_LDT_1,2024.2.4,MacIntel,58.82352941,,,,,,,,,,,,,,,,,,,,,596.588,596.787,596.787,597.287,,,,,,,,,,,,,,0.71,1,,,,,,,,,,,,,,m,,,,,,,,,,,,,,,,142,0,597.287,598.004,m,1,0.71,,[],[],[],[],[],[],[],598.004,600.004,600.004,600.004,[],[],[],[],[],[],[],,600.004,600.004,0.37867247,-0.122415669,0,0,0,,0,141,141,116,1,1,word,MARGINAL,print,marginal_p.png,,,,,,
,,,,31795,001,2025-10-20_12h58.36.834,HW_LDT_1,2024.2.4,MacIntel,58.82352941,,,,,,,,,,,,,,,,,,,,,600.005,600.204,600.204,600.704,,,,,,,,,,,,,,0.626,1,,,,,,,,,,,,,,z,,,,,,,,,,,,,,,,143,1,600.704,601.337,z,1,0.626,,[],[],[],[],[],[],[],601.337,603.337,603.337,603.971,[],[],[],[],[],[],[],z,603.971,603.971,0.37867247,-0.122415669,0,0,0,,0,142,142,63,1,1,TL,molibe,cursive,molibe_c.png,0.63,,,,,
,,,,31795,001,2025-10-20_12h58.36.834,HW_LDT_1,2024.2.4,MacIntel,58.82352941,,,,,,,,,,,,,,,,,,,,,603.971,604.17,604.17,604.67,,,,,,,,,,,,,,0.655,1,,,,,,,,,,,,,,m,,,,,,,,,,,,,,,,144,0,604.671,605.337,m,1,0.655,,[],[],[],[],[],[],[],605.337,607.337,607.337,607.337,[],[],[],[],[],[],[],,607.337,607.337,0.37867247,-0.122415669,0,0,0,,0,143,143,147,1,1,word,ROMANTIC,cursive,romantic_c.png,,,,,,
,,,,31795,001,2025-10-20_12h58.36.834,HW_LDT_1,2024.2.4,MacIntel,58.82352941,,,,,,,,,,,,,,,,,,,,,607.338,607.536,607.537,608.037,,,,,,,,,,,,,,0.738,1,,,,,,,,,,,,,,z,,,,,,,,,,,,,,,,145,0,608.037,608.787,z,1,0.738,,[],[],[],[],[],[],[],608.787,610.787,610.787,610.787,[],[],[],[],[],[],[],,610.787,610.787,0.37867247,-0.122415669,0,0,0,,0,144,144,14,1,1,RL,lofase,print,lofase_p.png,,,,,,
,,,,31795,001,2025-10-20_12h58.36.834,HW_LDT_1,2024.2.4,MacIntel,58.82352941,,,,,,,,,,,,,,,,,,,,,610.788,610.987,610.987,611.486,,,,,,,,,,,,,,0.637,0,,,,,,,,,,,,,,m,,,,,,,,,,,,,,,,146,0,611.486,612.137,z,0,0.637,,[],[],[],[],[],[],[],612.137,614.137,614.137,614.137,[],[],[],[],[],[],[],,614.137,614.137,0.37867247,-0.122415669,0,0,0,,0,145,145,102,1,1,word,DENSITY,cursive,density_c.png,,,,,,
,,,,31795,001,2025-10-20_12h58.36.834,HW_LDT_1,2024.2.4,MacIntel,58.82352941,,,,,,,,,,,,,,,,,,,,,614.138,614.337,614.337,614.837,,,,,,,,,,,,,,0.741,1,,,,,,,,,,,,,,m,,,,,,,,,,,,,,,,147,0,614.837,615.587,m,1,0.741,,[],[],[],[],[],[],[],615.587,617.587,617.587,617.587,[],[],[],[],[],[],[],,617.587,617.587,0.37867247,-0.122415669,0,0,0,,0,146,146,106,1,1,word,ELABORATE,print,elaborate_p.png,,,,,,
,,,,31795,001,2025-10-20_12h58.36.834,HW_LDT_1,2024.2.4,MacIntel,58.82352941,,,,,,,,,,,,,,,,,,,,,617.588,617.787,617.787,618.287,,,,,,,,,,,,,,0.61,1,,,,,,,,,,,,,,m,,,,,,,,,,,,,,,,148,0,618.287,618.904,m,1,0.61,,[],[],[],[],[],[],[],618.904,620.904,620.904,620.904,[],[],[],[],[],[],[],,620.904,620.904,0.37867247,-0.122415669,0,0,0,,0,147,147,142,1,1,word,REMOTE,print,remote_p.png,,,,,,
,,,,31795,001,2025-10-20_12h58.36.834,HW_LDT_1,2024.2.4,MacIntel,58.82352941,,,,,,,,,,,,,,,,,,,,,620.905,621.104,621.104,621.603,,,,,,,,,,,,,,0.546,1,,,,,,,,,,,,,,m,,,,,,,,,,,,,,,,149,0,621.603,622.156,m,1,0.546,,[],[],[],[],[],[],[],622.156,624.154,624.154,624.154,[],[],[],[],[],[],[],,624.154,624.154,0.37867247,-0.122415669,0,0,0,,0,148,148,98,1,1,word,CRIMINAL,print,criminal_p.png,,,,,,
,,,,31795,001,2025-10-20_12h58.36.834,HW_LDT_1,2024.2.4,MacIntel,58.82352941,,,,,,,,,,,,,,,,,,,,,624.155,624.354,624.354,624.854,,,,,,,,,,,,,,0.639,1,,,,,,,,,,,,,,z,,,,,,,,,,,,,,,,150,0,624.854,625.504,z,1,0.639,,[],[],[],[],[],[],[],625.504,627.504,627.504,627.504,[],[],[],[],[],[],[],,627.504,627.504,0.37867247,-0.122415669,0,0,0,,0,149,149,19,1,1,RL,monebate,print,monebate_p.png,,,,,,
,,,,31795,001,2025-10-20_12h58.36.834,HW_LDT_1,2024.2.4,MacIntel,58.82352941,,,,,,,,,,,,,,,,,,,,,627.505,627.704,627.704,628.203,,,,,,,,,,,,,,0.578,1,,,,,,,,,,,,,,z,,,,,,,,,,,,,,,,151,0,628.204,628.787,z,1,0.578,,[],[],[],[],[],[],[],628.787,630.787,630.787,630.787,[],[],[],[],[],[],[],,630.787,630.787,0.37867247,-0.122415669,0,0,0,,0,150,150,18,1,1,RL,mishafe,print,mishafe_p.png,,,,,,
,,,,31795,001,2025-10-20_12h58.36.834,HW_LDT_1,2024.2.4,MacIntel,58.82352941,,,,,,,,,,,,,,,,,,,,,630.788,630.987,630.987,631.486,,,,,,,,,,,,,,1.37,1,,,,,,,,,,,,,,z,,,,,,,,,,,,,,,,152,0,631.486,632.87,z,1,1.37,,[],[],[],[],[],[],[],632.87,634.87,634.87,634.871,[],[],[],[],[],[],[],,634.871,634.871,0.37867247,-0.122415669,0,0,0,,0,151,151,51,1,1,TL,corevage,print,corevage_p.png,,,,,,
,,,,31795,001,2025-10-20_12h58.36.834,HW_LDT_1,2024.2.4,MacIntel,58.82352941,,,,,,,,,,,,,,,,,,,,,634.872,635.07,635.07,635.57,,,,,,,,,,,,,,1.037,1,,,,,,,,,,,,,,m,,,,,,,,,,,,,,,,153,0,635.571,636.62,m,1,1.037,,[],[],[],[],[],[],[],636.621,638.62,638.62,638.62,[],[],[],[],[],[],[],,638.62,638.62,0.37867247,-0.122415669,0,0,0,,0,152,152,119,1,1,word,MEMORY,cursive,memory_c.png,,,,,,
,,,,31795,001,2025-10-20_12h58.36.834,HW_LDT_1,2024.2.4,MacIntel,58.82352941,,,,,,,,,,,,,,,,,,,,,638.621,638.82,638.82,639.32,,,,,,,,,,,,,,0.774,1,,,,,,,,,,,,,,z,,,,,,,,,,,,,,,,154,1,639.32,640.104,z,1,0.774,,[],[],[],[],[],[],[],640.104,642.103,642.103,642.587,[],[],[],[],[],[],[],z,642.587,642.587,0.37867247,-0.122415669,0,0,0,,0,153,153,64,1,1,TL,orepator,cursive,orepator_c.png,0.47,,,,,
,,,,31795,001,2025-10-20_12h58.36.834,HW_LDT_1,2024.2.4,MacIntel,58.82352941,,,,,,,,,,,,,,,,,,,,,642.588,642.787,642.787,643.287,,,,,,,,,,,,,,0.937,1,,,,,,,,,,,,,,z,,,,,,,,,,,,,,,,155,1,643.287,644.237,z,1,0.937,,[],[],[],[],[],[],[],644.237,646.237,646.237,646.803,[],[],[],[],[],[],[],z,646.803,646.804,0.37867247,-0.122415669,0,0,0,,0,154,154,69,1,1,TL,radiply,cursive,radiply_c.png,0.561,,,,,
,,,,31795,001,2025-10-20_12h58.36.834,HW_LDT_1,2024.2.4,MacIntel,58.82352941,,,,,,,,,,,,,,,,,,,,,646.804,647.003,647.003,647.503,,,,,,,,,,,,,,1.42,0,,,,,,,,,,,,,,m,,,,,,,,,,,,,,,,156,0,647.504,648.937,z,0,1.42,,[],[],[],[],[],[],[],648.937,650.937,650.937,650.937,[],[],[],[],[],[],[],,650.937,650.937,0.37867247,-0.122415669,0,0,0,,0,155,155,111,1,1,word,INDICATE,cursive,indicate_c.png,,,,,,
,,,,31795,001,2025-10-20_12h58.36.834,HW_LDT_1,2024.2.4,MacIntel,58.82352941,,,,,,,,,,,,,,,,,,,,,650.938,651.137,651.137,651.637,,,,,,,,,,,,,,0.638,1,,,,,,,,,,,,,,z,,,,,,,,,,,,,,,,157,0,651.637,652.287,z,1,0.638,,[],[],[],[],[],[],[],652.287,654.286,654.287,654.287,[],[],[],[],[],[],[],,654.287,654.287,0.37867247,-0.122415669,0,0,0,,0,156,156,55,1,1,TL,fornute,print,fornute_p.png,,,,,,
,,,,31795,001,2025-10-20_12h58.36.834,HW_LDT_1,2024.2.4,MacIntel,58.82352941,,,,,,,,,,,,,,,,,,,,,654.288,654.487,654.487,654.987,,,,,,,,,,,,,,0.689,0,,,,,,,,,,,,,,z,,,,,,,,,,,,,,,,158,1,654.987,655.687,m,0,0.689,,[],[],[],[],[],[],[],655.687,657.687,657.687,658.753,[],[],[],[],[],[],[],z,658.754,658.754,0.37867247,-0.122415669,0,0,0,,0,157,157,61,1,1,TL,mecidine,cursive,mecidine_c.png,1.054,,,,,
,,,,31795,001,2025-10-20_12h58.36.834,HW_LDT_1,2024.2.4,MacIntel,58.82352941,,,,,,,,,,,,,,,,,,,,,658.754,658.954,658.954,659.453,,,,,,,,,,,,,,0.857,1,,,,,,,,,,,,,,z,,,,,,,,,,,,,,,,159,0,659.454,660.32,z,1,0.857,,[],[],[],[],[],[],[],660.32,662.32,662.32,662.32,[],[],[],[],[],[],[],,662.321,662.321,0.37867247,-0.122415669,0,0,0,,0,158,158,39,1,1,RL,vabifity,cursive,vabifity_c.png,,,,,,
,,,,31795,001,2025-10-20_12h58.36.834,HW_LDT_1,2024.2.4,MacIntel,58.82352941,,,,,,,,,,,,,,,,,,,,,662.321,662.519,662.519,663.02,,,,,,,,,,,,,,0.543,1,,,,,,,,,,,,,,m,,,,,,,,,,,,,,,,160,0,663.02,663.57,m,1,0.543,,[],[],[],[],[],[],[],663.57,665.57,665.57,665.57,[],[],[],[],[],[],[],,665.57,665.57,0.37867247,-0.122415669,0,0,0,,0,159,159,89,1,1,word,CAPACITY,print,capacity_p.png,,,,,,
,,,,31795,001,2025-10-20_12h58.36.834,HW_LDT_1,2024.2.4,MacIntel,58.82352941,,,,,,,,,,,,,,,,,,,,,,,,,,,,,,,,,,,,,,,,,,,,,,,,,,,,,,,,,,,,,,,,,,,,,,,,,,,,,,,,,,,,,,,,,,,,,,,,,,,,,,,,,,,,,,,,,,,,,,665.58,670.607
