counterbalance_lists.group,counterbalance_lists.remaining,get_list.started,get_list.stopped,participant,session,date,expName,psychopyVersion,OS,frameRate,Instructions.started,Instructions.stopped,key_resp.keys,key_resp.rt,key_resp.duration,instr_done_touch.x,instr_done_touch.y,instr_done_touch.leftButton,instr_done_touch.midButton,instr_done_touch.rightButton,start_instr.thisRepN,start_instr.thisTrialN,start_instr.thisN,start_instr.thisIndex,start_instr.ran,pageN,phase,instruct_text,has_image,instruct_image,showProgress.started,showProgress.stopped,fix.started,fix.stopped,prac.started,prac.stopped,response.keys,response.corr,response.rt,response.duration,touch_resp.x,touch_resp.y,touch_resp.leftButton,touch_resp.midButton,touch_resp.rightButton,touch_resp.time,touch_resp.clicked_name,rt,corr,feedback.started,feedback.stopped,trials.thisRepN,trials.thisTrialN,trials.thisN,trials.thisIndex,trials.ran,TrialID,StimulusType,Condition,PrimeDuration,Prime,Target,corrAns,Instructions_expt.started,Instructions_expt.stopped,key_resp_3.keys,instr_done_touch_3.x,instr_done_touch_3.y,instr_done_touch_3.leftButton,instr_done_touch_3.midButton,instr_done_touch_3.rightButton,instr_done_touch_3.clicked_name,instr_experiment.thisRepN,instr_experiment.thisTrialN,instr_experiment.thisN,instr_experiment.thisIndex,instr_experiment.ran,trialID,flag,maintask.started,maintask.stopped,key_resp_2.keys,key_resp_2.corr,key_resp_2.rt,key_resp_2.duration,targ_click.x,targ_click.y,targ_click.leftButton,targ_click.midButton,targ_click.rightButton,targ_click.time,targ_click.clicked_name,ITI.started,ITI.stopped,probe.started,probe.stopped,click_probe.x,click_probe.y,click_probe.leftButton,click_probe.midButton,click_probe.rightButton,click_probe.time,click_probe.clicked_name,key_resp_probe.keys,Break.started,Break.stopped,break_done_touch.x,break_done_touch.y,break_done_touch.leftButton,break_done_touch.midButton,break_done_touch.rightButton,break_done_keyboard.keys,list3_trials.thisRepN,list3_trials.thisTrialN,list3_trials.thisN,list3_trials.thisIndex,list3_trials.ran,list_id,item_type,string,font,stim_file,key_resp_probe.rt,key_resp_probe.duration,break_done_keyboard.rt,break_done_keyboard.duration,End.started,End.stopped
list3,,0.4275,0.4278,31790,001,2025-10-22_09h15.52.049,HW_LDT_1,2024.2.4,MacIntel,60.24096386,,,,,,,,,,,,,,,,,,,,,,,,,,,,,,,,,,,,,,,,,,,,,,,,,,,,,,,,,,,,,,,,,,,,,,,,,,,,,,,,,,,,,,,,,,,,,,,,,,,,,,,,,,,,,,,,,,,,,,
,,,,31790,001,2025-10-22_09h15.52.049,HW_LDT_1,2024.2.4,MacIntel,60.24096386,0.4577,28.9368,space,28.432,,0.007749295,-0.401786092,0,0,0,0,0,0,0,1,1,instructions,"INSTRUCTIONS
At the start of each trial, look at the plus sign  (+) in the center of the screen.  This tells you that a trial is about to begin and where to look. Second, the plus sign will disappear and a string of letters will appear. Your task is to determine if the string of letters is a word or not. If the item is a word press the M key (on keyboard)  or touch the word button (phone/tablet).  If the item is not a word,  press the  Z key (on keyboard)  or touch the nonword button (on phone/tablet). The items will be presented for a short time. 
Press the space bar or touch  continue.",0,,,,,,,,,,,,,,,,,,,,,,,,,,,,,,,,,,,,,,,,,,,,,,,,,,,,,,,,,,,,,,,,,,,,,,,,,,,,,,,,,,,,,,,,,,,,,,,,,,,
,,,,31790,001,2025-10-22_09h15.52.049,HW_LDT_1,2024.2.4,MacIntel,60.24096386,28.9384,35.6626,space,6.6928,,0.007749295,-0.401786092,0,0,0,0,1,1,1,1,2,instructions,"If your device has a keyboard, press the 'Z' key for nonwords and the 'M' key for words.





Press the space bar or touch the button below to continue.",0,keyboard-example.gif,,,,,,,,,,,,,,,,,,,,,,,,,,,,,,,,,,,,,,,,,,,,,,,,,,,,,,,,,,,,,,,,,,,,,,,,,,,,,,,,,,,,,,,,,,,,,,,,,,
,,,,31790,001,2025-10-22_09h15.52.049,HW_LDT_1,2024.2.4,MacIntel,60.24096386,35.6637,37.2978,space,1.5994,,0.007749295,-0.401786092,0,0,0,0,2,2,2,1,3,instructions,"If you are using a touchscreen only device, use the buttons on the screen. Do not use the mouse.





Press the space bar or touch the button below to continue.",0,touchscreen-example.gif,,,,,,,,,,,,,,,,,,,,,,,,,,,,,,,,,,,,,,,,,,,,,,,,,,,,,,,,,,,,,,,,,,,,,,,,,,,,,,,,,,,,,,,,,,,,,,,,,,
,,,,31790,001,2025-10-22_09h15.52.049,HW_LDT_1,2024.2.4,MacIntel,60.24096386,37.2999,39.0463,space,1.7155,,0.007749295,-0.401786092,0,0,0,0,3,3,3,1,4,instructions,"It is very important that you respond as quickly and accurately as possible, as each letter string will only be on the screen for two seconds. If you do not respond within this time, the message 'Too slow!' will be displayed and the experiment will progress to the next letter string. The first 20 trials will be practice trials and you will receive feedback on your answers. 

Press the space bar or touch the button below to start the practice trials.",0,,,,,,,,,,,,,,,,,,,,,,,,,,,,,,,,,,,,,,,,,,,,,,,,,,,,,,,,,,,,,,,,,,,,,,,,,,,,,,,,,,,,,,,,,,,,,,,,,,,
,,,,31790,001,2025-10-22_09h15.52.049,HW_LDT_1,2024.2.4,MacIntel,60.24096386,,,,,,,,,,,,,,,,,,,,,39.0816,39.2341,39.2343,39.7466,39.7469,41.963,z,1,2.1809,,[],[],[],[],[],[],[],2.1809,1,41.9633,42.4683,0,0,0,11,1,1012,NW,"ID",16,rashet,RASHET,z,,,,,,,,,,,,,,,,,,,,,,,,,,,,,,,,,,,,,,,,,,,,,,,,,,,,,,,,,,,,,,,,,
,,,,31790,001,2025-10-22_09h15.52.049,HW_LDT_1,2024.2.4,MacIntel,60.24096386,,,,,,,,,,,,,,,,,,,,,42.4697,42.6682,42.6683,43.1624,43.1632,44.0288,z,1,0.8435,,[],[],[],[],[],[],[],0.8435,1,44.029,44.5299,0,1,1,15,1,1016,NW,UN,16,mushed,WHAISE,z,,,,,,,,,,,,,,,,,,,,,,,,,,,,,,,,,,,,,,,,,,,,,,,,,,,,,,,,,,,,,,,,,
,,,,31790,001,2025-10-22_09h15.52.049,HW_LDT_1,2024.2.4,MacIntel,60.24096386,,,,,,,,,,,,,,,,,,,,,44.5313,44.7298,44.7298,45.2182,45.2191,46.5512,z,1,1.3068,,[],[],[],[],[],[],[],1.3068,1,46.5513,47.0521,0,2,2,12,1,1013,NW,UN,33,adveil,SPRINY,z,,,,,,,,,,,,,,,,,,,,,,,,,,,,,,,,,,,,,,,,,,,,,,,,,,,,,,,,,,,,,,,,,
,,,,31790,001,2025-10-22_09h15.52.049,HW_LDT_1,2024.2.4,MacIntel,60.24096386,,,,,,,,,,,,,,,,,,,,,47.0533,47.2485,47.2486,47.7514,47.7524,48.7849,m,1,1.0078,,[],[],[],[],[],[],[],1.0078,1,48.7849,49.2852,0,3,3,1,1,1002,WORD,"ID",33,adjust,ADJUST,m,,,,,,,,,,,,,,,,,,,,,,,,,,,,,,,,,,,,,,,,,,,,,,,,,,,,,,,,,,,,,,,,,
,,,,31790,001,2025-10-22_09h15.52.049,HW_LDT_1,2024.2.4,MacIntel,60.24096386,,,,,,,,,,,,,,,,,,,,,49.2864,49.4827,49.4828,49.9815,49.982,51.2496,z,1,1.2553,,[],[],[],[],[],[],[],1.2553,1,51.2496,51.75,0,4,4,9,1,1010,NW,"ID",33,fariny,FARINY,z,,,,,,,,,,,,,,,,,,,,,,,,,,,,,,,,,,,,,,,,,,,,,,,,,,,,,,,,,,,,,,,,,
,,,,31790,001,2025-10-22_09h15.52.049,HW_LDT_1,2024.2.4,MacIntel,60.24096386,,,,,,,,,,,,,,,,,,,,,51.7512,51.952,51.9521,52.4516,52.4526,53.5986,z,1,1.1213,,[],[],[],[],[],[],[],1.1213,1,53.599,54.0964,0,5,5,14,1,1015,NW,UN,16,miaber,THRALE,z,,,,,,,,,,,,,,,,,,,,,,,,,,,,,,,,,,,,,,,,,,,,,,,,,,,,,,,,,,,,,,,,,
,,,,31790,001,2025-10-22_09h15.52.049,HW_LDT_1,2024.2.4,MacIntel,60.24096386,,,,,,,,,,,,,,,,,,,,,54.098,54.2941,54.2941,54.7992,54.7997,55.7849,m,1,0.9635,,[],[],[],[],[],[],[],0.9635,1,55.785,56.2828,0,6,6,6,1,1007,WORD,UN,16,tropic,ZOMBIE,m,,,,,,,,,,,,,,,,,,,,,,,,,,,,,,,,,,,,,,,,,,,,,,,,,,,,,,,,,,,,,,,,,
,,,,31790,001,2025-10-22_09h15.52.049,HW_LDT_1,2024.2.4,MacIntel,60.24096386,,,,,,,,,,,,,,,,,,,,,56.2837,56.4797,56.4798,56.9795,56.9803,57.8684,m,1,0.8663,,[],[],[],[],[],[],[],0.8663,1,57.8685,58.3667,0,7,7,0,1,1001,WORD,"ID",33,utopia,UTOPIA,m,,,,,,,,,,,,,,,,,,,,,,,,,,,,,,,,,,,,,,,,,,,,,,,,,,,,,,,,,,,,,,,,,
,,,,31790,001,2025-10-22_09h15.52.049,HW_LDT_1,2024.2.4,MacIntel,60.24096386,,,,,,,,,,,,,,,,,,,,,58.3682,58.5682,58.5682,59.0682,59.069,60.5825,z,1,1.4888,,[],[],[],[],[],[],[],1.4888,1,60.5826,61.0819,0,8,8,8,1,1009,NW,"ID",33,aslert,ASLERT,z,,,,,,,,,,,,,,,,,,,,,,,,,,,,,,,,,,,,,,,,,,,,,,,,,,,,,,,,,,,,,,,,,
,,,,31790,001,2025-10-22_09h15.52.049,HW_LDT_1,2024.2.4,MacIntel,60.24096386,,,,,,,,,,,,,,,,,,,,,61.0838,61.282,61.282,61.7813,61.7822,63.1156,z,1,1.3169,,[],[],[],[],[],[],[],1.3169,1,63.1157,63.6155,0,9,9,13,1,1014,NW,UN,33,winfer,ROUPET,z,,,,,,,,,,,,,,,,,,,,,,,,,,,,,,,,,,,,,,,,,,,,,,,,,,,,,,,,,,,,,,,,,
,,,,31790,001,2025-10-22_09h15.52.049,HW_LDT_1,2024.2.4,MacIntel,60.24096386,,,,,,,,,,,,,,,,,,,,,63.617,63.8152,63.8153,64.316,64.3169,65.5489,m,1,1.2165,,[],[],[],[],[],[],[],1.2165,1,65.5491,66.0471,0,10,10,3,1,1004,WORD,"ID",16,matrix,MATRIX,m,,,,,,,,,,,,,,,,,,,,,,,,,,,,,,,,,,,,,,,,,,,,,,,,,,,,,,,,,,,,,,,,,
,,,,31790,001,2025-10-22_09h15.52.049,HW_LDT_1,2024.2.4,MacIntel,60.24096386,,,,,,,,,,,,,,,,,,,,,66.0478,66.2487,66.2487,66.7467,66.7482,67.3323,m,1,0.5676,,[],[],[],[],[],[],[],0.5676,1,67.3324,67.8322,0,11,11,2,1,1003,WORD,"ID",16,almond,ALMOND,m,,,,,,,,,,,,,,,,,,,,,,,,,,,,,,,,,,,,,,,,,,,,,,,,,,,,,,,,,,,,,,,,,
,,,,31790,001,2025-10-22_09h15.52.049,HW_LDT_1,2024.2.4,MacIntel,60.24096386,,,,,,,,,,,,,,,,,,,,,67.8338,68.0322,68.0322,68.53,68.5309,69.1464,m,1,0.599,,[],[],[],[],[],[],[],0.599,1,69.1465,69.6485,0,12,12,4,1,1005,WORD,UN,33,abound,SQUEAK,m,,,,,,,,,,,,,,,,,,,,,,,,,,,,,,,,,,,,,,,,,,,,,,,,,,,,,,,,,,,,,,,,,
,,,,31790,001,2025-10-22_09h15.52.049,HW_LDT_1,2024.2.4,MacIntel,60.24096386,,,,,,,,,,,,,,,,,,,,,69.6502,69.8477,69.8478,70.3478,70.3482,71.5314,z,1,1.1667,,[],[],[],[],[],[],[],1.1667,1,71.5316,72.0318,0,13,13,10,1,1011,NW,"ID",16,inlade,INLADE,z,,,,,,,,,,,,,,,,,,,,,,,,,,,,,,,,,,,,,,,,,,,,,,,,,,,,,,,,,,,,,,,,,
,,,,31790,001,2025-10-22_09h15.52.049,HW_LDT_1,2024.2.4,MacIntel,60.24096386,,,,,,,,,,,,,,,,,,,,,72.0339,72.2323,72.2324,72.7314,72.732,73.7657,m,1,1.018,,[],[],[],[],[],[],[],1.018,1,73.7658,74.2646,0,14,14,5,1,1006,WORD,UN,33,frenzy,OBTAIN,m,,,,,,,,,,,,,,,,,,,,,,,,,,,,,,,,,,,,,,,,,,,,,,,,,,,,,,,,,,,,,,,,,
,,,,31790,001,2025-10-22_09h15.52.049,HW_LDT_1,2024.2.4,MacIntel,60.24096386,,,,,,,,,,,,,,,,,,,,,74.266,74.465,74.4651,74.965,74.9657,75.5487,m,1,0.5675,,[],[],[],[],[],[],[],0.5675,1,75.5488,76.048,0,15,15,7,1,1008,WORD,UN,16,hurdle,VOLUME,m,,,,,,,,,,,,,,,,,,,,,,,,,,,,,,,,,,,,,,,,,,,,,,,,,,,,,,,,,,,,,,,,,
,,,,31790,001,2025-10-22_09h15.52.049,HW_LDT_1,2024.2.4,MacIntel,60.24096386,,,,,,,,,,,,,,,,1,end_of_practice,"You have completed the practice trials. During the experimental trials, you will not receive feedback. On some trials you will be asked to report whether the item you just saw was in cursive or print. 
Before you begin, please ensure that you are in a comfortable and quiet location and will not be disturbed for about 15 minutes, as we cannot use your data if you do not complete all the trials. 
 When you are ready to start the experimental trials, please press space or touch the button below.",,,,,,,,,,,,,,,,,,,,,,,,,,,,,,,,,,,,76.055,78.8999,,0.076939494,-0.408628743,1,0,0,instr_done_button_3,0,0,0,0,1,,,,,,,,,,,,,,,,,,,,,,,,,,,,,,,,,,,,,,,,,,,,,,,,,,,
,,,,31790,001,2025-10-22_09h15.52.049,HW_LDT_1,2024.2.4,MacIntel,60.24096386,,,,,,,,,,,,,,,,,,,,,78.9222,79.0961,79.0961,79.5961,,,,,,,,,,,,,,0.8337,1,,,,,,,,,,,,,,m,,,,,,,,,,,,,,,1,0,79.5981,80.4347,m,1,0.8337,,[],[],[],[],[],[],[],80.4349,82.4296,82.4298,82.4343,[],[],[],[],[],[],[],,82.4345,82.4371,0.076939494,-0.408628743,0,0,0,,0,0,0,103,1,3,word,DISPUTE,print,dispute_p.png,,,,,,
,,,,31790,001,2025-10-22_09h15.52.049,HW_LDT_1,2024.2.4,MacIntel,60.24096386,,,,,,,,,,,,,,,,,,,,,82.438,82.6437,82.6438,83.1293,,,,,,,,,,,,,,1.8692,1,,,,,,,,,,,,,,m,,,,,,,,,,,,,,,2,0,83.1298,85.0002,m,1,1.8692,,[],[],[],[],[],[],[],85.0003,86.9982,86.9983,86.9984,[],[],[],[],[],[],[],,86.9984,86.9984,0.076939494,-0.408628743,0,0,0,,0,1,1,136,1,3,word,RADICAL,cursive,radical_c.png,,,,,,
,,,,31790,001,2025-10-22_09h15.52.049,HW_LDT_1,2024.2.4,MacIntel,60.24096386,,,,,,,,,,,,,,,,,,,,,86.9991,87.1997,87.1997,87.6992,,,,,,,,,,,,,,2.5329,1,,,,,,,,,,,,,,z,,,,,,,,,,,,,,,3,0,87.6997,90.2332,z,1,2.5329,,[],[],[],[],[],[],[],90.2333,92.2123,92.2124,92.2126,[],[],[],[],[],[],[],,92.2126,92.2128,0.076939494,-0.408628743,0,0,0,,0,2,2,67,1,3,TL,retome,print,retome_p.png,,,,,,
,,,,31790,001,2025-10-22_09h15.52.049,HW_LDT_1,2024.2.4,MacIntel,60.24096386,,,,,,,,,,,,,,,,,,,,,92.2141,92.4008,92.4008,92.9018,,,,,,,,,,,,,,2.6808,0,,,,,,,,,,,,,,z,,,,,,,,,,,,,,,4,0,92.9022,95.5838,m,0,2.6808,,[],[],[],[],[],[],[],95.5838,97.5833,97.5834,97.5836,[],[],[],[],[],[],[],,97.5836,97.5837,0.076939494,-0.408628743,0,0,0,,0,3,3,36,1,3,TL,carema,cursive,carema_c.png,,,,,,
,,,,31790,001,2025-10-22_09h15.52.049,HW_LDT_1,2024.2.4,MacIntel,60.24096386,,,,,,,,,,,,,,,,,,,,,97.585,97.7833,97.7834,98.2846,,,,,,,,,,,,,,0.6656,1,,,,,,,,,,,,,,m,,,,,,,,,,,,,,,5,0,98.285,98.9516,m,1,0.6656,,[],[],[],[],[],[],[],98.9516,100.9446,100.9446,100.9447,[],[],[],[],[],[],[],,100.9448,100.9449,0.076939494,-0.408628743,0,0,0,,0,4,4,95,1,3,word,COMEDY,print,comedy_p.png,,,,,,
,,,,31790,001,2025-10-22_09h15.52.049,HW_LDT_1,2024.2.4,MacIntel,60.24096386,,,,,,,,,,,,,,,,,,,,,100.9454,101.1334,101.1334,101.6458,,,,,,,,,,,,,,3.2674,1,,,,,,,,,,,,,,z,,,,,,,,,,,,,,,6,0,101.6463,104.9145,z,1,3.2674,,[],[],[],[],[],[],[],104.9145,106.9125,106.9126,106.9132,[],[],[],[],[],[],[],,106.9132,106.9134,0.076939494,-0.408628743,0,0,0,,0,5,5,77,1,3,TL,vadility,cursive,vadility_c.png,,,,,,
,,,,31790,001,2025-10-22_09h15.52.049,HW_LDT_1,2024.2.4,MacIntel,60.24096386,,,,,,,,,,,,,,,,,,,,,106.9153,107.0952,107.0952,107.612,,,,,,,,,,,,,,2.0319,1,,,,,,,,,,,,,,z,,,,,,,,,,,,,,,7,0,107.6123,109.6455,z,1,2.0319,,[],[],[],[],[],[],[],109.6456,111.6508,111.6509,111.6511,[],[],[],[],[],[],[],,111.6511,111.6512,0.076939494,-0.408628743,0,0,0,,0,6,6,3,1,3,RL,bebine,cursive,bebine_c.png,,,,,,
,,,,31790,001,2025-10-22_09h15.52.049,HW_LDT_1,2024.2.4,MacIntel,60.24096386,,,,,,,,,,,,,,,,,,,,,111.6524,111.8507,111.8507,112.3456,,,,,,,,,,,,,,1.6196,1,,,,,,,,,,,,,,z,,,,,,,,,,,,,,,8,0,112.3461,113.9665,z,1,1.6196,,[],[],[],[],[],[],[],113.9665,115.9621,115.9622,115.9623,[],[],[],[],[],[],[],,115.9624,115.9626,0.076939494,-0.408628743,0,0,0,,0,7,7,64,1,3,TL,radiply,print,radiply_p.png,,,,,,
,,,,31790,001,2025-10-22_09h15.52.049,HW_LDT_1,2024.2.4,MacIntel,60.24096386,,,,,,,,,,,,,,,,,,,,,115.9638,116.1507,116.1507,116.6509,,,,,,,,,,,,,,1.2235,1,,,,,,,,,,,,,,z,,,,,,,,,,,,,,,9,0,116.6517,117.8786,z,1,1.2235,,[],[],[],[],[],[],[],117.8786,119.8821,119.8822,119.8824,[],[],[],[],[],[],[],,119.8824,119.8825,0.076939494,-0.408628743,0,0,0,,0,8,8,8,1,3,RL,cocewage,print,cocewage_p.png,,,,,,
,,,,31790,001,2025-10-22_09h15.52.049,HW_LDT_1,2024.2.4,MacIntel,60.24096386,,,,,,,,,,,,,,,,,,,,,119.8835,120.0829,120.083,120.583,,,,,,,,,,,,,,2.5978,0,,,,,,,,,,,,,,m,,,,,,,,,,,,,,,10,0,120.5835,123.1822,z,0,2.5978,,[],[],[],[],[],[],[],123.1823,125.1623,125.1624,125.1626,[],[],[],[],[],[],[],,125.1627,125.1628,0.076939494,-0.408628743,0,0,0,,0,9,9,120,1,3,word,MILITARY,cursive,military_c.png,,,,,,
,,,,31790,001,2025-10-22_09h15.52.049,HW_LDT_1,2024.2.4,MacIntel,60.24096386,,,,,,,,,,,,,,,,,,,,,125.1641,125.345,125.3451,125.8652,,,,,,,,,,,,,,3.6502,1,,,,,,,,,,,,,,z,,,,,,,,,,,,,,,11,0,125.8654,129.5162,z,1,3.6502,,[],[],[],[],[],[],[],129.5164,131.5175,131.5176,131.5178,[],[],[],[],[],[],[],,131.5179,131.5179,0.076939494,-0.408628743,0,0,0,,0,10,10,63,1,3,TL,racidal,cursive,racidal_c.png,,,,,,
,,,,31790,001,2025-10-22_09h15.52.049,HW_LDT_1,2024.2.4,MacIntel,60.24096386,,,,,,,,,,,,,,,,,,,,,131.5191,131.6954,131.6955,132.2165,,,,,,,,,,,,,,1.0998,1,,,,,,,,,,,,,,m,,,,,,,,,,,,,,,12,0,132.2169,133.3174,m,1,1.0998,,[],[],[],[],[],[],[],133.3174,135.3175,135.3176,135.3177,[],[],[],[],[],[],[],,135.3177,135.3179,0.076939494,-0.408628743,0,0,0,,0,11,11,141,1,3,word,RELIGION,print,religion_p.png,,,,,,
,,,,31790,001,2025-10-22_09h15.52.049,HW_LDT_1,2024.2.4,MacIntel,60.24096386,,,,,,,,,,,,,,,,,,,,,135.319,135.5161,135.5162,136.0161,,,,,,,,,,,,,,2.4435,0,,,,,,,,,,,,,,m,,,,,,,,,,,,,,,13,0,136.0165,138.4616,z,0,2.4435,,[],[],[],[],[],[],[],138.4616,140.4663,140.4663,140.4665,[],[],[],[],[],[],[],,140.4666,140.4668,0.076939494,-0.408628743,0,0,0,,0,12,12,99,1,3,word,DEBATE,cursive,debate_c.png,,,,,,
,,,,31790,001,2025-10-22_09h15.52.049,HW_LDT_1,2024.2.4,MacIntel,60.24096386,,,,,,,,,,,,,,,,,,,,,140.4684,140.6662,140.6662,141.1661,,,,,,,,,,,,,,0.9996,1,,,,,,,,,,,,,,m,,,,,,,,,,,,,,,14,0,141.1665,142.167,m,1,0.9996,,[],[],[],[],[],[],[],142.1671,144.162,144.162,144.1621,[],[],[],[],[],[],[],,144.1622,144.1623,0.076939494,-0.408628743,0,0,0,,0,13,13,134,1,3,word,QUALIFY,print,qualify_p.png,,,,,,
,,,,31790,001,2025-10-22_09h15.52.049,HW_LDT_1,2024.2.4,MacIntel,60.24096386,,,,,,,,,,,,,,,,,,,,,144.1635,144.3617,144.3618,144.8621,,,,,,,,,,,,,,1.8041,1,,,,,,,,,,,,,,z,,,,,,,,,,,,,,,15,0,144.8625,146.6673,z,1,1.8041,,[],[],[],[],[],[],[],146.6674,148.6615,148.6615,148.6615,[],[],[],[],[],[],[],,148.6616,148.6616,0.076939494,-0.408628743,0,0,0,,0,14,14,31,1,3,RL,trilude,print,trilude_p.png,,,,,,
,,,,31790,001,2025-10-22_09h15.52.049,HW_LDT_1,2024.2.4,MacIntel,60.24096386,,,,,,,,,,,,,,,,,,,,,148.6623,148.85,148.8501,149.3502,,,,,,,,,,,,,,1.1989,1,,,,,,,,,,,,,,z,,,,,,,,,,,,,,,16,0,149.3506,150.5504,z,1,1.1989,,[],[],[],[],[],[],[],150.5505,152.55,152.5501,152.5502,[],[],[],[],[],[],[],,152.5503,152.5503,0.076939494,-0.408628743,0,0,0,,0,15,15,23,1,3,RL,quakity,print,quakity_p.png,,,,,,
,,,,31790,001,2025-10-22_09h15.52.049,HW_LDT_1,2024.2.4,MacIntel,60.24096386,,,,,,,,,,,,,,,,,,,,,152.5514,152.7453,152.7454,153.2452,,,,,,,,,,,,,,1.9705,1,,,,,,,,,,,,,,z,,,,,,,,,,,,,,,17,0,153.2457,155.217,z,1,1.9705,,[],[],[],[],[],[],[],155.217,157.2159,157.2159,157.2161,[],[],[],[],[],[],[],,157.2161,157.2162,0.076939494,-0.408628743,0,0,0,,0,16,16,65,1,3,TL,resufal,print,resufal_p.png,,,,,,
,,,,31790,001,2025-10-22_09h15.52.049,HW_LDT_1,2024.2.4,MacIntel,60.24096386,,,,,,,,,,,,,,,,,,,,,157.2175,157.4117,157.4117,157.9109,,,,,,,,,,,,,,2.4692,0,,,,,,,,,,,,,,m,,,,,,,,,,,,,,,18,0,157.9113,160.3816,z,0,2.4692,,[],[],[],[],[],[],[],160.3817,162.3834,162.3834,162.3836,[],[],[],[],[],[],[],,162.3837,162.3837,0.076939494,-0.408628743,0,0,0,,0,17,17,109,1,3,word,GRATEFUL,cursive,grateful_c.png,,,,,,
,,,,31790,001,2025-10-22_09h15.52.049,HW_LDT_1,2024.2.4,MacIntel,60.24096386,,,,,,,,,,,,,,,,,,,,,162.3848,162.5826,162.5826,163.0824,,,,,,,,,,,,,,1.5004,1,,,,,,,,,,,,,,m,,,,,,,,,,,,,,,19,0,163.0828,164.5841,m,1,1.5004,,[],[],[],[],[],[],[],164.5841,166.5832,166.5832,166.5835,[],[],[],[],[],[],[],,166.5835,166.5836,0.076939494,-0.408628743,0,0,0,,0,18,18,153,1,3,word,STOLEN,cursive,stolen_c.png,,,,,,
,,,,31790,001,2025-10-22_09h15.52.049,HW_LDT_1,2024.2.4,MacIntel,60.24096386,,,,,,,,,,,,,,,,,,,,,166.5847,166.776,166.7761,167.2781,,,,,,,,,,,,,,2.8556,1,,,,,,,,,,,,,,z,,,,,,,,,,,,,,,20,0,167.2786,170.1347,z,1,2.8556,,[],[],[],[],[],[],[],170.1348,172.1314,172.1315,172.1316,[],[],[],[],[],[],[],,172.1317,172.1318,0.076939494,-0.408628743,0,0,0,,0,19,19,79,1,3,TL,veretan,cursive,veretan_c.png,,,,,,
,,,,31790,001,2025-10-22_09h15.52.049,HW_LDT_1,2024.2.4,MacIntel,60.24096386,,,,,,,,,,,,,,,,,,,,,172.1333,172.3305,172.3305,172.8305,,,,,,,,,,,,,,1.2155,1,,,,,,,,,,,,,,z,,,,,,,,,,,,,,,21,1,172.831,174.0475,z,1,1.2155,,[],[],[],[],[],[],[],174.0475,176.0461,176.0462,180.4629,[],[],[],[],[],[],[],z,180.4629,180.4631,0.076939494,-0.408628743,0,0,0,,0,20,20,18,1,3,RL,onegator,print,onegator_p.png,4.4156,,,,,
,,,,31790,001,2025-10-22_09h15.52.049,HW_LDT_1,2024.2.4,MacIntel,60.24096386,,,,,,,,,,,,,,,,,,,,,180.4644,180.662,180.6621,181.1633,,,,,,,,,,,,,,1.1308,1,,,,,,,,,,,,,,m,,,,,,,,,,,,,,,22,0,181.1637,182.2964,m,1,1.1308,,[],[],[],[],[],[],[],182.2964,184.2981,184.2981,184.2983,[],[],[],[],[],[],[],,184.2985,184.2986,0.076939494,-0.408628743,0,0,0,,0,21,21,105,1,3,word,EDITOR,print,editor_p.png,,,,,,
,,,,31790,001,2025-10-22_09h15.52.049,HW_LDT_1,2024.2.4,MacIntel,60.24096386,,,,,,,,,,,,,,,,,,,,,184.3001,184.4985,184.4985,184.998,,,,,,,,,,,,,,1.9315,1,,,,,,,,,,,,,,m,,,,,,,,,,,,,,,23,0,184.9986,186.9311,m,1,1.9315,,[],[],[],[],[],[],[],186.9312,188.9328,188.9329,188.9331,[],[],[],[],[],[],[],,188.9331,188.9332,0.076939494,-0.408628743,0,0,0,,0,22,22,150,1,3,word,SENTIMENT,print,sentiment_p.png,,,,,,
,,,,31790,001,2025-10-22_09h15.52.049,HW_LDT_1,2024.2.4,MacIntel,60.24096386,,,,,,,,,,,,,,,,,,,,,188.9341,189.1277,189.1277,189.6328,,,,,,,,,,,,,,1.9752,1,,,,,,,,,,,,,,z,,,,,,,,,,,,,,,24,0,189.6333,191.609,z,1,1.9752,,[],[],[],[],[],[],[],191.6091,193.6103,193.6104,193.6105,[],[],[],[],[],[],[],,193.6107,193.6107,0.076939494,-0.408628743,0,0,0,,0,23,23,43,1,3,TL,dedace,cursive,dedace_c.png,,,,,,
,,,,31790,001,2025-10-22_09h15.52.049,HW_LDT_1,2024.2.4,MacIntel,60.24096386,,,,,,,,,,,,,,,,,,,,,193.6118,193.8159,193.816,194.3172,,,,,,,,,,,,,,1.4637,0,,,,,,,,,,,,,,z,,,,,,,,,,,,,,,25,1,194.3176,195.7823,m,0,1.4637,,[],[],[],[],[],[],[],195.7823,197.7807,197.7807,199.7829,[],[],[],[],[],[],[],z,199.783,199.7831,0.076939494,-0.408628743,0,0,0,,0,24,24,52,1,3,TL,locigal,cursive,locigal_c.png,2.0019,,,,,
,,,,31790,001,2025-10-22_09h15.52.049,HW_LDT_1,2024.2.4,MacIntel,60.24096386,,,,,,,,,,,,,,,,,,,,,199.7837,199.9835,199.9835,200.4832,,,,,,,,,,,,,,1.3761,1,,,,,,,,,,,,,,z,,,,,,,,,,,,,,,26,1,200.4836,201.8605,z,1,1.3761,,[],[],[],[],[],[],[],201.8607,203.8665,203.8666,205.4498,[],[],[],[],[],[],[],z,205.4498,205.4499,0.076939494,-0.408628743,0,0,0,,0,25,25,16,1,3,RL,mishafe,cursive,mishafe_c.png,1.5825,,,,,
,,,,31790,001,2025-10-22_09h15.52.049,HW_LDT_1,2024.2.4,MacIntel,60.24096386,,,,,,,,,,,,,,,,,,,,,205.4507,205.6475,205.6475,206.1493,,,,,,,,,,,,,,3.2656,1,,,,,,,,,,,,,,z,,,,,,,,,,,,,,,27,0,206.1498,209.4161,z,1,3.2656,,[],[],[],[],[],[],[],209.4162,211.4116,211.4117,211.4119,[],[],[],[],[],[],[],,211.4119,211.412,0.076939494,-0.408628743,0,0,0,,0,26,26,15,1,3,RL,mifikary,cursive,mifikary_c.png,,,,,,
,,,,31790,001,2025-10-22_09h15.52.049,HW_LDT_1,2024.2.4,MacIntel,60.24096386,,,,,,,,,,,,,,,,,,,,,211.413,211.611,211.611,212.1112,,,,,,,,,,,,,,1.6703,1,,,,,,,,,,,,,,m,,,,,,,,,,,,,,,28,1,212.1115,213.7825,m,1,1.6703,,[],[],[],[],[],[],[],213.7826,215.7608,215.7608,216.9479,[],[],[],[],[],[],[],z,216.9479,216.948,0.076939494,-0.408628743,0,0,0,,0,27,27,147,1,3,word,ROMANTIC,cursive,romantic_c.png,1.1868,,,,,
,,,,31790,001,2025-10-22_09h15.52.049,HW_LDT_1,2024.2.4,MacIntel,60.24096386,,,,,,,,,,,,,,,,,,,,,216.9491,217.1436,217.1436,217.6442,,,,,,,,,,,,,,2.4702,0,,,,,,,,,,,,,,m,,,,,,,,,,,,,,,29,0,217.6447,220.1155,z,0,2.4702,,[],[],[],[],[],[],[],220.1156,222.1149,222.1149,222.1151,[],[],[],[],[],[],[],,222.1151,222.1152,0.076939494,-0.408628743,0,0,0,,0,28,28,117,1,3,word,MARINE,cursive,marine_c.png,,,,,,
,,,,31790,001,2025-10-22_09h15.52.049,HW_LDT_1,2024.2.4,MacIntel,60.24096386,,,,,,,,,,,,,,,,,,,,,222.1164,222.3148,222.3148,222.8141,,,,,,,,,,,,,,2.8445,1,,,,,,,,,,,,,,z,,,,,,,,,,,,,,,30,0,222.8145,225.6605,z,1,2.8445,,[],[],[],[],[],[],[],225.6607,227.6649,227.6649,227.665,[],[],[],[],[],[],[],,227.6651,227.6653,0.076939494,-0.408628743,0,0,0,,0,29,29,34,1,3,TL,aminal,cursive,aminal_c.png,,,,,,
,,,,31790,001,2025-10-22_09h15.52.049,HW_LDT_1,2024.2.4,MacIntel,60.24096386,,,,,,,,,,,,,,,,,,,,,227.6664,227.8607,227.8608,228.3607,,,,,,,,,,,,,,1.2642,1,,,,,,,,,,,,,,m,,,,,,,,,,,,,,,31,0,228.3612,229.6264,m,1,1.2642,,[],[],[],[],[],[],[],229.6265,231.6328,231.6328,231.6329,[],[],[],[],[],[],[],,231.633,231.633,0.076939494,-0.408628743,0,0,0,,0,30,30,104,1,3,word,DOMINANT,print,dominant_p.png,,,,,,
,,,,31790,001,2025-10-22_09h15.52.049,HW_LDT_1,2024.2.4,MacIntel,60.24096386,,,,,,,,,,,,,,,,,,,,,231.6343,231.8316,231.8316,232.3302,,,,,,,,,,,,,,2.6017,1,,,,,,,,,,,,,,z,,,,,,,,,,,,,,,32,0,232.3306,234.9331,z,1,2.6017,,[],[],[],[],[],[],[],234.9332,236.9327,236.9328,236.9329,[],[],[],[],[],[],[],,236.9329,236.933,0.076939494,-0.408628743,0,0,0,,0,31,31,48,1,3,TL,grafetul,cursive,grafetul_c.png,,,,,,
,,,,31790,001,2025-10-22_09h15.52.049,HW_LDT_1,2024.2.4,MacIntel,60.24096386,,,,,,,,,,,,,,,,,,,,,236.9342,237.1205,237.1206,237.6324,,,,,,,,,,,,,,3.2274,0,,,,,,,,,,,,,,m,,,,,,,,,,,,,,,33,0,237.6327,240.8611,z,0,3.2274,,[],[],[],[],[],[],[],240.8611,242.8605,242.8606,242.8608,[],[],[],[],[],[],[],,242.8609,242.8609,0.076939494,-0.408628743,0,0,0,,0,32,32,145,1,3,word,RESUME,cursive,resume_c.png,,,,,,
,,,,31790,001,2025-10-22_09h15.52.049,HW_LDT_1,2024.2.4,MacIntel,60.24096386,,,,,,,,,,,,,,,,,,,,,242.8619,243.049,243.0492,243.5649,,,,,,,,,,,,,,3.3989,1,,,,,,,,,,,,,,m,,,,,,,,,,,,,,,34,0,243.5653,246.9649,m,1,3.3989,,[],[],[],[],[],[],[],246.9649,248.9605,248.9606,248.9608,[],[],[],[],[],[],[],,248.9608,248.9609,0.076939494,-0.408628743,0,0,0,,0,33,33,143,1,3,word,REMOVAL,cursive,removal_c.png,,,,,,
,,,,31790,001,2025-10-22_09h15.52.049,HW_LDT_1,2024.2.4,MacIntel,60.24096386,,,,,,,,,,,,,,,,,,,,,248.9618,249.1483,249.1483,249.6485,,,,,,,,,,,,,,1.7836,1,,,,,,,,,,,,,,m,,,,,,,,,,,,,,,35,1,249.6488,251.4329,m,1,1.7836,,[],[],[],[],[],[],[],251.433,253.4412,253.4412,255.198,[],[],[],[],[],[],[],z,255.198,255.1981,0.076939494,-0.408628743,0,0,0,,0,34,34,159,1,3,word,VETERAN,cursive,veteran_c.png,1.7558,,,,,
,,,,31790,001,2025-10-22_09h15.52.049,HW_LDT_1,2024.2.4,MacIntel,60.24096386,,,,,,,,,,,,,,,,,,,,,255.1991,255.3938,255.3939,255.8935,,,,,,,,,,,,,,1.0825,1,,,,,,,,,,,,,,m,,,,,,,,,,,,,,,36,0,255.8941,256.9771,m,1,1.0825,,[],[],[],[],[],[],[],256.9772,258.9649,258.9649,258.965,[],[],[],[],[],[],[],,258.965,258.9651,0.076939494,-0.408628743,0,0,0,,0,35,35,87,1,3,word,CAFETERIA,print,cafeteria_p.png,,,,,,
,,,,31790,001,2025-10-22_09h15.52.049,HW_LDT_1,2024.2.4,MacIntel,60.24096386,,,,,,,,,,,,,,,,,,,,,258.9658,259.167,259.167,259.6651,,,,,,,,,,,,,,4.6812,1,,,,,,,,,,,,,,z,,,,,,,,,,,,,,,37,0,259.6654,264.3472,z,1,4.6812,,[],[],[],[],[],[],[],264.3472,266.3484,266.3485,266.3486,[],[],[],[],[],[],[],,266.3487,266.3487,0.076939494,-0.408628743,0,0,0,,0,36,36,45,1,3,TL,dentisy,print,dentisy_p.png,,,,,,
,,,,31790,001,2025-10-22_09h15.52.049,HW_LDT_1,2024.2.4,MacIntel,60.24096386,,,,,,,,,,,,,,,,,,,,,266.3499,266.5438,266.5439,267.0506,,,,,,,,,,,,,,1.9623,1,,,,,,,,,,,,,,z,,,,,,,,,,,,,,,38,0,267.051,269.0145,z,1,1.9623,,[],[],[],[],[],[],[],269.0145,271.0157,271.0158,271.0159,[],[],[],[],[],[],[],,271.0159,271.0161,0.076939494,-0.408628743,0,0,0,,0,37,37,71,1,3,TL,sanile,cursive,sanile_c.png,,,,,,
,,,,31790,001,2025-10-22_09h15.52.049,HW_LDT_1,2024.2.4,MacIntel,60.24096386,,,,,,,,,,,,,,,,,,,,,271.0178,271.2146,271.2146,271.7101,,,,,,,,,,,,,,1.5012,1,,,,,,,,,,,,,,z,,,,,,,,,,,,,,,39,0,271.7106,273.213,z,1,1.5012,,[],[],[],[],[],[],[],273.213,275.2129,275.2129,275.213,[],[],[],[],[],[],[],,275.213,275.2131,0.076939494,-0.408628743,0,0,0,,0,38,38,60,1,3,TL,panert,print,panert_p.png,,,,,,
,,,,31790,001,2025-10-22_09h15.52.049,HW_LDT_1,2024.2.4,MacIntel,60.24096386,,,,,,,,,,,,,,,,,,,,,275.2146,275.4124,275.4125,275.913,,,,,,,,,,,,,,1.5981,1,,,,,,,,,,,,,,z,,,,,,,,,,,,,,,40,0,275.9134,277.5132,z,1,1.5981,,[],[],[],[],[],[],[],277.5133,279.5127,279.5128,279.5129,[],[],[],[],[],[],[],,279.5129,279.513,0.076939494,-0.408628743,0,0,0,,0,39,39,14,1,3,RL,lofase,cursive,lofase_c.png,,,,,,
,,,,31790,001,2025-10-22_09h15.52.049,HW_LDT_1,2024.2.4,MacIntel,60.24096386,,,,,,,,,,,,,,,,,,,,,279.5145,279.7102,279.7103,280.2095,,,,,,,,,,,,,,1.2186,0,,,,,,,,,,,,,,z,,,,,,,,,,,,,,,41,0,280.21,281.4299,m,0,1.2186,,[],[],[],[],[],[],[],281.43,283.4291,283.4291,283.4292,[],[],[],[],[],[],[],,283.4293,283.4293,0.076939494,-0.408628743,0,0,0,,0,40,40,58,1,3,TL,nuremical,print,nuremical_p.png,,,,,,
,,,,31790,001,2025-10-22_09h15.52.049,HW_LDT_1,2024.2.4,MacIntel,60.24096386,,,,,,,,,,,,,,,,,,,,,283.4305,283.63,283.63,284.1302,,,,,,,,,,,,,,0.9482,1,,,,,,,,,,,,,,m,,,,,,,,,,,,,,,42,0,284.1308,285.08,m,1,0.9482,,[],[],[],[],[],[],[],285.0802,287.08,287.08,287.0802,[],[],[],[],[],[],[],,287.0802,287.0804,0.076939494,-0.408628743,0,0,0,,0,41,41,112,1,3,word,LIBERAL,print,liberal_p.png,,,,,,
,,,,31790,001,2025-10-22_09h15.52.049,HW_LDT_1,2024.2.4,MacIntel,60.24096386,,,,,,,,,,,,,,,,,,,,,287.0816,287.2806,287.2806,287.7768,,,,,,,,,,,,,,1.6704,1,,,,,,,,,,,,,,m,,,,,,,,,,,,,,,43,0,287.7772,289.4482,m,1,1.6704,,[],[],[],[],[],[],[],289.4483,291.4483,291.4483,291.4485,[],[],[],[],[],[],[],,291.4485,291.4486,0.076939494,-0.408628743,0,0,0,,0,42,42,155,1,3,word,STRATEGY,print,strategy_p.png,,,,,,
,,,,31790,001,2025-10-22_09h15.52.049,HW_LDT_1,2024.2.4,MacIntel,60.24096386,,,,,,,,,,,,,,,,,,,,,291.4496,291.6268,291.6268,292.1475,,,,,,,,,,,,,,0.7418,1,,,,,,,,,,,,,,m,,,,,,,,,,,,,,,44,0,292.1479,292.893,m,1,0.7418,,[],[],[],[],[],[],[],292.893,294.897,294.8971,294.8972,[],[],[],[],[],[],[],,294.8973,294.8973,0.076939494,-0.408628743,0,0,0,,0,43,43,80,1,3,word,ACADEMY,print,academy_p.png,,,,,,
,,,,31790,001,2025-10-22_09h15.52.049,HW_LDT_1,2024.2.4,MacIntel,60.24096386,,,,,,,,,,,,,,,,,,,,,294.8983,295.098,295.0981,295.5973,,,,,,,,,,,,,,0.6332,1,,,,,,,,,,,,,,m,,,,,,,,,,,,,,,45,1,295.5977,296.2315,m,1,0.6332,,[],[],[],[],[],[],[],296.2316,298.2309,298.2309,301.0996,[],[],[],[],[],[],[],m,301.0996,301.0997,0.076939494,-0.408628743,0,0,0,,0,44,44,133,1,3,word,PROVIDE,print,provide_p.png,2.8676,,,,,
,,,,31790,001,2025-10-22_09h15.52.049,HW_LDT_1,2024.2.4,MacIntel,60.24096386,,,,,,,,,,,,,,,,,,,,,301.1007,301.2926,301.2926,301.793,,,,,,,,,,,,,,1.3211,0,,,,,,,,,,,,,,m,,,,,,,,,,,,,,,46,0,301.7936,303.116,z,0,1.3211,,[],[],[],[],[],[],[],303.116,305.1097,305.1097,305.11,[],[],[],[],[],[],[],,305.1101,305.1101,0.076939494,-0.408628743,0,0,0,,0,45,45,122,1,3,word,MOBILE,cursive,mobile_c.png,,,,,,
,,,,31790,001,2025-10-22_09h15.52.049,HW_LDT_1,2024.2.4,MacIntel,60.24096386,,,,,,,,,,,,,,,,,,,,,305.1112,305.3094,305.3095,305.8098,,,,,,,,,,,,,,2.0541,0,,,,,,,,,,,,,,z,,,,,,,,,,,,,,,47,1,305.8102,307.8649,m,0,2.0541,,[],[],[],[],[],[],[],307.8649,309.865,309.8651,311.476,[],[],[],[],[],[],[],m,311.4761,311.4763,0.076939494,-0.408628743,0,0,0,,0,46,46,35,1,3,TL,cateferia,print,cateferia_p.png,1.6079,,,,,
,,,,31790,001,2025-10-22_09h15.52.049,HW_LDT_1,2024.2.4,MacIntel,60.24096386,,,,,,,,,,,,,,,,,,,,,311.4773,311.6797,311.6798,312.1595,,,,,,,,,,,,,,1.3475,1,,,,,,,,,,,,,,z,,,,,,,,,,,,,,,48,1,312.16,313.5095,z,1,1.3475,,[],[],[],[],[],[],[],313.5095,315.5157,315.5157,317.1152,[],[],[],[],[],[],[],m,317.1153,317.1154,0.076939494,-0.408628743,0,0,0,,0,47,47,61,1,3,TL,pocily,print,pocily_p.png,1.5991,,,,,
,,,,31790,001,2025-10-22_09h15.52.049,HW_LDT_1,2024.2.4,MacIntel,60.24096386,,,,,,,,,,,,,,,,,,,,,317.1163,317.3038,317.3038,317.8136,,,,,,,,,,,,,,1.8769,1,,,,,,,,,,,,,,m,,,,,,,,,,,,,,,49,0,317.814,319.6926,m,1,1.8769,,[],[],[],[],[],[],[],319.6926,321.692,321.6921,321.6921,[],[],[],[],[],[],[],,321.6922,321.6922,0.076939494,-0.408628743,0,0,0,,0,48,48,85,1,3,word,BENEFIT,print,benefit_p.png,,,,,,
,,,,31790,001,2025-10-22_09h15.52.049,HW_LDT_1,2024.2.4,MacIntel,60.24096386,,,,,,,,,,,,,,,,,,,,,321.6928,321.8807,321.8807,322.3809,,,,,,,,,,,,,,0.9329,1,,,,,,,,,,,,,,m,,,,,,,,,,,,,,,50,0,322.3812,323.3149,m,1,0.9329,,[],[],[],[],[],[],[],323.3149,325.3148,325.3149,325.315,[],[],[],[],[],[],[],,325.315,325.3152,0.076939494,-0.408628743,0,0,0,,0,49,49,138,1,3,word,REFUSAL,print,refusal_p.png,,,,,,
,,,,31790,001,2025-10-22_09h15.52.049,HW_LDT_1,2024.2.4,MacIntel,60.24096386,,,,,,,,,,,,,,,,,,,,,325.3164,325.5093,325.5093,326.0104,,,,,,,,,,,,,,2.002,1,,,,,,,,,,,,,,m,,,,,,,,,,,,,,,51,0,326.0108,328.0134,m,1,2.002,,[],[],[],[],[],[],[],328.0135,330.0095,330.0096,330.0098,[],[],[],[],[],[],[],,330.0098,330.0098,0.076939494,-0.408628743,0,0,0,,0,50,50,157,1,3,word,VALIDITY,cursive,validity_c.png,,,,,,
,,,,31790,001,2025-10-22_09h15.52.049,HW_LDT_1,2024.2.4,MacIntel,60.24096386,,,,,,,,,,,,,,,,,,,,,330.0108,330.1973,330.1973,330.7092,,,,,,,,,,,,,,1.3332,0,,,,,,,,,,,,,,m,,,,,,,,,,,,,,,52,1,330.7097,332.0432,z,0,1.3332,,[],[],[],[],[],[],[],332.0433,334.0456,334.0456,335.2476,[],[],[],[],[],[],[],z,335.2477,335.2477,0.076939494,-0.408628743,0,0,0,,0,51,51,110,1,3,word,HERITAGE,cursive,heritage_c.png,1.2018,,,,,
,,,,31790,001,2025-10-22_09h15.52.049,HW_LDT_1,2024.2.4,MacIntel,60.24096386,,,,,,,,,,,,,,,,,,,,,335.2483,335.4426,335.4428,335.9423,,,,,,,,,,,,,,1.1553,1,,,,,,,,,,,,,,m,,,,,,,,,,,,,,,53,0,335.9427,337.0987,m,1,1.1553,,[],[],[],[],[],[],[],337.0988,339.0969,339.097,339.0971,[],[],[],[],[],[],[],,339.0972,339.0973,0.076939494,-0.408628743,0,0,0,,0,52,52,101,1,3,word,DELICATE,print,delicate_p.png,,,,,,
,,,,31790,001,2025-10-22_09h15.52.049,HW_LDT_1,2024.2.4,MacIntel,60.24096386,,,,,,,,,,,,,,,,,,,,,339.0984,339.2976,339.2976,339.797,,,,,,,,,,,,,,0.6106,1,,,,,,,,,,,,,,m,,,,,,,,,,,,,,,54,1,339.7973,340.4098,m,1,0.6106,,[],[],[],[],[],[],[],340.4099,342.413,342.413,343.7255,[],[],[],[],[],[],[],m,343.7255,343.7257,0.076939494,-0.408628743,0,0,0,,0,53,53,151,1,3,word,SPECIFIC,print,specific_p.png,1.3108,,,,,
,,,,31790,001,2025-10-22_09h15.52.049,HW_LDT_1,2024.2.4,MacIntel,60.24096386,,,,,,,,,,,,,,,,,,,,,343.7264,343.926,343.9261,344.4145,,,,,,,,,,,,,,1.6991,1,,,,,,,,,,,,,,z,,,,,,,,,,,,,,,55,0,344.415,346.1146,z,1,1.6991,,[],[],[],[],[],[],[],346.1146,348.1126,348.1127,348.1127,[],[],[],[],[],[],[],,348.1128,348.1129,0.076939494,-0.408628743,0,0,0,,0,54,54,10,1,3,RL,efibor,print,efibor_p.png,,,,,,
,,,,31790,001,2025-10-22_09h15.52.049,HW_LDT_1,2024.2.4,MacIntel,60.24096386,,,,,,,,,,,,,,,,,,,,,348.1139,348.3136,348.3136,348.8147,,,,,,,,,,,,,,4.0052,1,,,,,,,,,,,,,,z,,,,,,,,,,,,,,,56,1,348.815,352.8247,z,1,4.0052,,[],[],[],[],[],[],[],352.8247,354.8253,354.8253,356.4129,[],[],[],[],[],[],[],z,356.413,356.413,0.076939494,-0.408628743,0,0,0,,0,55,55,66,1,3,TL,retalive,cursive,retalive_c.png,1.5873,,,,,
,,,,31790,001,2025-10-22_09h15.52.049,HW_LDT_1,2024.2.4,MacIntel,60.24096386,,,,,,,,,,,,,,,,,,,,,356.4137,356.6132,356.6133,357.1131,,,,,,,,,,,,,,7.1135,1,,,,,,,,,,,,,,z,,,,,,,,,,,,,,,57,0,357.1135,364.2288,z,1,7.1135,,[],[],[],[],[],[],[],364.2288,366.2278,366.2278,366.228,[],[],[],[],[],[],[],,366.228,366.2281,0.076939494,-0.408628743,0,0,0,,0,56,56,54,1,3,TL,manire,cursive,manire_c.png,,,,,,
,,,,31790,001,2025-10-22_09h15.52.049,HW_LDT_1,2024.2.4,MacIntel,60.24096386,,,,,,,,,,,,,,,,,,,,,366.2293,366.4279,366.428,366.9282,,,,,,,,,,,,,,2.565,1,,,,,,,,,,,,,,z,,,,,,,,,,,,,,,58,0,366.9285,369.4949,z,1,2.565,,[],[],[],[],[],[],[],369.4951,371.4961,371.4962,371.4964,[],[],[],[],[],[],[],,371.4965,371.4967,0.076939494,-0.408628743,0,0,0,,0,57,57,62,1,3,TL,prodive,print,prodive_p.png,,,,,,
,,,,31790,001,2025-10-22_09h15.52.049,HW_LDT_1,2024.2.4,MacIntel,60.24096386,,,,,,,,,,,,,,,,,,,,,371.4981,371.6953,371.6953,372.1959,,,,,,,,,,,,,,2.2491,1,,,,,,,,,,,,,,z,,,,,,,,,,,,,,,59,1,372.1963,374.4463,z,1,2.2491,,[],[],[],[],[],[],[],374.4463,376.4474,376.4474,377.7431,[],[],[],[],[],[],[],z,377.7431,377.7432,0.076939494,-0.408628743,0,0,0,,0,58,58,6,1,3,RL,cenesony,cursive,cenesony_c.png,1.2953,,,,,
,,,,31790,001,2025-10-22_09h15.52.049,HW_LDT_1,2024.2.4,MacIntel,60.24096386,,,,,,,,,,,,,,,,,,,,,377.7438,377.9439,377.9439,378.4453,,,,,,,,,,,,,,2.211,1,,,,,,,,,,,,,,m,,,,,,,,,,,,,,,60,0,378.4457,380.6577,m,1,2.211,,[],[],[],[],[],[],[],380.658,382.6421,382.6421,382.6423,[],[],[],[],[],[],[],,382.6423,382.6424,0.076939494,-0.408628743,0,0,0,,0,59,59,158,1,3,word,VELOCITY,cursive,velocity_c.png,,,,,,
,,,,31790,001,2025-10-22_09h15.52.049,HW_LDT_1,2024.2.4,MacIntel,60.24096386,,,,,,,,,,,,,,,,,,,,,382.6434,382.8307,382.8308,383.342,,,,,,,,,,,,,,1.8676,1,,,,,,,,,,,,,,z,,,,,,,,,,,,,,,61,0,383.3426,385.2115,z,1,1.8676,,[],[],[],[],[],[],[],385.2115,387.2129,387.2131,387.2134,[],[],[],[],[],[],[],,387.2134,387.2135,0.076939494,-0.408628743,0,0,0,,0,60,60,28,1,3,RL,rovastic,cursive,rovastic_c.png,,,,,,
,,,,31790,001,2025-10-22_09h15.52.049,HW_LDT_1,2024.2.4,MacIntel,60.24096386,,,,,,,,,,,,,,,,,,,,,387.2144,387.4124,387.4124,387.9137,,,,,,,,,,,,,,1.8241,0,,,,,,,,,,,,,,m,,,,,,,,,,,,,,,62,0,387.9143,389.7419,z,0,1.8241,,[],[],[],[],[],[],[],389.7419,391.7296,391.7297,391.7298,[],[],[],[],[],[],[],,391.7299,391.7299,0.076939494,-0.408628743,0,0,0,,0,61,61,123,1,3,word,MODERATE,cursive,moderate_c.png,,,,,,
,,,,31790,001,2025-10-22_09h15.52.049,HW_LDT_1,2024.2.4,MacIntel,60.24096386,,,,,,,,,,,,,,,,,,,,,391.7312,391.9287,391.9288,392.429,,,,,,,,,,,,,,1.332,0,,,,,,,,,,,,,,m,,,,,,,,,,,,,,,63,0,392.4292,393.762,z,0,1.332,,[],[],[],[],[],[],[],393.7621,395.7628,395.7629,395.763,[],[],[],[],[],[],[],,395.763,395.7631,0.076939494,-0.408628743,0,0,0,,0,62,62,108,1,3,word,FORTUNE,cursive,fortune_c.png,,,,,,
,,,,31790,001,2025-10-22_09h15.52.049,HW_LDT_1,2024.2.4,MacIntel,60.24096386,,,,,,,,,,,,,,,,,,,,,395.7643,395.9627,395.9628,396.4618,,,,,,,,,,,,,,1.2004,1,,,,,,,,,,,,,,m,,,,,,,,,,,,,,,64,0,396.4621,397.6634,m,1,1.2004,,[],[],[],[],[],[],[],397.6635,399.663,399.6631,399.6632,[],[],[],[],[],[],[],,399.6632,399.6634,0.076939494,-0.408628743,0,0,0,,0,63,63,96,1,3,word,CONSIDER,print,consider_p.png,,,,,,
,,,,31790,001,2025-10-22_09h15.52.049,HW_LDT_1,2024.2.4,MacIntel,60.24096386,,,,,,,,,,,,,,,,,,,,,399.6644,399.8624,399.8624,400.374,,,,,,,,,,,,,,1.6376,1,,,,,,,,,,,,,,z,,,,,,,,,,,,,,,65,0,400.3753,402.0136,z,1,1.6376,,[],[],[],[],[],[],[],402.0137,404.0074,404.0074,404.008,[],[],[],[],[],[],[],,404.008,404.008,0.076939494,-0.408628743,0,0,0,,0,64,64,27,1,3,RL,recile,print,recile_p.png,,,,,,
,,,,31790,001,2025-10-22_09h15.52.049,HW_LDT_1,2024.2.4,MacIntel,60.24096386,,,,,,,,,,,,,,,,,,,,,404.0093,404.212,404.2121,404.712,,,,,,,,,,,,,,1.3261,1,,,,,,,,,,,,,,z,,,,,,,,,,,,,,,66,0,404.7124,406.0413,z,1,1.3261,,[],[],[],[],[],[],[],406.0414,408.0304,408.0304,408.0305,[],[],[],[],[],[],[],,408.0305,408.0306,0.076939494,-0.408628743,0,0,0,,0,65,65,7,1,3,RL,cobeny,print,cobeny_p.png,,,,,,
,,,,31790,001,2025-10-22_09h15.52.049,HW_LDT_1,2024.2.4,MacIntel,60.24096386,,,,,,,,,,,,,,,,,,,,,408.0317,408.2277,408.2278,408.7245,,,,,,,,,,,,,,1.5003,0,,,,,,,,,,,,,,m,,,,,,,,,,,,,,,67,0,408.7248,410.2256,z,0,1.5003,,[],[],[],[],[],[],[],410.2257,412.2266,412.2266,412.2268,[],[],[],[],[],[],[],,412.2268,412.227,0.076939494,-0.408628743,0,0,0,,0,66,66,140,1,3,word,RELATIVE,cursive,relative_c.png,,,,,,
,,,,31790,001,2025-10-22_09h15.52.049,HW_LDT_1,2024.2.4,MacIntel,60.24096386,,,,,,,,,,,,,,,,,,,,,412.228,412.4303,412.4304,412.9273,,,,,,,,,,,,,,1.7452,1,,,,,,,,,,,,,,z,,,,,,,,,,,,,,,68,1,412.9277,414.6746,z,1,1.7452,,[],[],[],[],[],[],[],414.6747,416.6628,416.6629,419.7752,[],[],[],[],[],[],[],m,419.7753,419.7753,0.076939494,-0.408628743,0,0,0,,0,67,67,22,1,3,RL,procogal,print,procogal_p.png,3.1095,,,,,
,,,,31790,001,2025-10-22_09h15.52.049,HW_LDT_1,2024.2.4,MacIntel,60.24096386,,,,,,,,,,,,,,,,,,,,,419.7762,419.9628,419.9628,420.4632,,,,,,,,,,,,,,3.0647,1,,,,,,,,,,,,,,z,,,,,,,,,,,,,,,69,1,420.4637,423.5292,z,1,3.0647,,[],[],[],[],[],[],[],423.5292,425.53,425.53,431.3975,[],[],[],[],[],[],[],z,431.3975,431.3976,0.076939494,-0.408628743,0,0,0,,0,68,68,13,1,3,RL,helicage,cursive,helicage_c.png,5.8669,,,,,
,,,,31790,001,2025-10-22_09h15.52.049,HW_LDT_1,2024.2.4,MacIntel,60.24096386,,,,,,,,,,,,,,,,,,,,,431.3983,431.5913,431.5915,432.0915,,,,,,,,,,,,,,1.237,1,,,,,,,,,,,,,,m,,,,,,,,,,,,,,,70,0,432.0918,433.3296,m,1,1.237,,[],[],[],[],[],[],[],433.3296,435.3275,435.3275,435.3276,[],[],[],[],[],[],[],,435.3278,435.3278,0.076939494,-0.408628743,0,0,0,,0,69,69,135,1,3,word,QUALITY,print,quality_p.png,,,,,,
,,,,31790,001,2025-10-22_09h15.52.049,HW_LDT_1,2024.2.4,MacIntel,60.24096386,,,,,,,,,,,,,,,,,,,,,435.3289,435.5303,435.5303,436.0303,,,,,,,,,,,,,,3.3931,1,,,,,,,,,,,,,,z,,,,,,,,,,,,,,,71,0,436.0307,439.4246,z,1,3.3931,,[],[],[],[],[],[],[],439.4246,441.4081,441.4082,441.4082,[],[],[],[],[],[],[],,441.4083,441.4084,0.076939494,-0.408628743,0,0,0,,0,70,70,73,1,3,TL,speficic,print,speficic_p.png,,,,,,
,,,,31790,001,2025-10-22_09h15.52.049,HW_LDT_1,2024.2.4,MacIntel,60.24096386,,,,,,,,,,,,,,,,,,,,,441.4095,441.6078,441.6079,442.0963,,,,,,,,,,,,,,1.8461,1,,,,,,,,,,,,,,z,,,,,,,,,,,,,,,72,0,442.0967,443.9433,z,1,1.8461,,[],[],[],[],[],[],[],443.9433,445.9446,445.9446,445.9447,[],[],[],[],[],[],[],,445.9447,445.9449,0.076939494,-0.408628743,0,0,0,,0,71,71,2,1,3,RL,betemit,print,betemit_p.png,,,,,,
,,,,31790,001,2025-10-22_09h15.52.049,HW_LDT_1,2024.2.4,MacIntel,60.24096386,,,,,,,,,,,,,,,,,,,,,445.9458,446.145,446.1451,446.6464,,,,,,,,,,,,,,1.476,1,,,,,,,,,,,,,,z,,,,,,,,,,,,,,,73,0,446.6471,448.1245,z,1,1.476,,[],[],[],[],[],[],[],448.1246,450.1241,450.1241,450.1243,[],[],[],[],[],[],[],,450.1244,450.1249,0.076939494,-0.408628743,0,0,0,,0,72,72,70,1,3,TL,remuse,cursive,remuse_c.png,,,,,,
,,,,31790,001,2025-10-22_09h15.52.049,HW_LDT_1,2024.2.4,MacIntel,60.24096386,,,,,,,,,,,,,,,,,,,,,450.1257,450.3126,450.3126,450.8127,,,,,,,,,,,,,,1.2915,1,,,,,,,,,,,,,,m,,,,,,,,,,,,,,,74,0,450.8132,452.1077,m,1,1.2915,,[],[],[],[],[],[],[],452.1078,454.1247,454.1248,454.1249,[],[],[],[],[],[],[],,454.125,454.125,0.076939494,-0.408628743,0,0,0,,0,73,73,142,1,3,word,REMOTE,print,remote_p.png,,,,,,
,,,,31790,001,2025-10-22_09h15.52.049,HW_LDT_1,2024.2.4,MacIntel,60.24096386,,,,,,,,,,,,,,,,,,,,,454.1261,454.324,454.3241,454.8134,,,,,,,,,,,,,,2.7985,1,,,,,,,,,,,,,,z,,,,,,,,,,,,,,,75,0,454.8137,457.6129,z,1,2.7985,,[],[],[],[],[],[],[],457.6129,459.6118,459.6119,459.6121,[],[],[],[],[],[],[],,459.6121,459.6122,0.076939494,-0.408628743,0,0,0,,0,74,74,68,1,3,TL,revomal,cursive,revomal_c.png,,,,,,
,,,,31790,001,2025-10-22_09h15.52.049,HW_LDT_1,2024.2.4,MacIntel,60.24096386,,,,,,,,,,,,,,,,,,,,,459.6132,459.8076,459.8077,460.3072,,,,,,,,,,,,,,2.0372,1,,,,,,,,,,,,,,m,,,,,,,,,,,,,,,76,0,460.3075,462.3454,m,1,2.0372,,[],[],[],[],[],[],[],462.3454,464.3448,464.3449,464.345,[],[],[],[],[],[],[],,464.3451,464.3452,0.076939494,-0.408628743,0,0,0,,0,75,75,156,1,3,word,TRIBUTE,print,tribute_p.png,,,,,,
,,,,31790,001,2025-10-22_09h15.52.049,HW_LDT_1,2024.2.4,MacIntel,60.24096386,,,,,,,,,,,,,,,,,,,,,464.3463,464.5434,464.5434,465.0409,,,,,,,,,,,,,,1.3537,1,,,,,,,,,,,,,,m,,,,,,,,,,,,,,,77,0,465.0414,466.3958,m,1,1.3537,,[],[],[],[],[],[],[],466.3958,468.3896,468.3897,468.3898,[],[],[],[],[],[],[],,468.3898,468.39,0.076939494,-0.408628743,0,0,0,,0,76,76,137,1,3,word,RAPIDLY,print,rapidly_p.png,,,,,,
,,,,31790,001,2025-10-22_09h15.52.049,HW_LDT_1,2024.2.4,MacIntel,60.24096386,,,,,,,,,,,,,,,,,,,,,468.3909,468.5801,468.5801,469.0773,,,,,,,,,,,,,,1.7111,1,,,,,,,,,,,,,,z,,,,,,,,,,,,,,,78,1,469.0777,470.7904,z,1,1.7111,,[],[],[],[],[],[],[],470.7905,472.7897,472.7897,475.4459,[],[],[],[],[],[],[],m,475.446,475.4461,0.076939494,-0.408628743,0,0,0,,0,77,77,56,1,3,TL,meromy,print,meromy_p.png,2.6559,,,,,
,,,,31790,001,2025-10-22_09h15.52.049,HW_LDT_1,2024.2.4,MacIntel,60.24096386,,,,,,,,,,,,,,,,,,,,,475.4471,475.6404,475.6405,476.1397,,,,,,,,,,,,,,1.5377,1,,,,,,,,,,,,,,m,,,,,,,,,,,,,,,79,0,476.1403,477.6785,m,1,1.5377,,[],[],[],[],[],[],[],477.6786,479.6771,479.6771,479.6773,[],[],[],[],[],[],[],,479.6773,479.6774,0.076939494,-0.408628743,0,0,0,,0,78,78,98,1,3,word,CRIMINAL,print,criminal_p.png,,,,,,
,,,,31790,001,2025-10-22_09h15.52.049,HW_LDT_1,2024.2.4,MacIntel,60.24096386,,,,,,,,,,,,,,,,,,,,,479.6782,479.8781,479.8782,480.3762,,,,,,,,,,,,,,5.2987,1,,,,,,,,,,,,,,z,,,,,,,,,,,,,,,80,0,480.3766,485.6759,z,1,5.2987,,[],[],[],[],[],[],[],485.6759,487.6792,487.6792,487.6794,[],[],[],[],[],[],[],,487.6794,493.4727,0.076939494,-0.408628743,0,0,0,space,0,79,79,38,1,3,TL,carnidal,print,carnidal_p.png,,,5.7593,,,
,,,,31790,001,2025-10-22_09h15.52.049,HW_LDT_1,2024.2.4,MacIntel,60.24096386,,,,,,,,,,,,,,,,,,,,,493.4734,493.6739,493.6739,494.1617,,,,,,,,,,,,,,1.6996,1,,,,,,,,,,,,,,z,,,,,,,,,,,,,,,81,0,494.1622,495.8624,z,1,1.6996,,[],[],[],[],[],[],[],495.8625,497.8612,497.8613,497.8614,[],[],[],[],[],[],[],,497.8615,497.8616,0.076939494,-0.408628743,0,0,0,,0,80,80,24,1,3,RL,quafidy,print,quafidy_p.png,,,,,,
,,,,31790,001,2025-10-22_09h15.52.049,HW_LDT_1,2024.2.4,MacIntel,60.24096386,,,,,,,,,,,,,,,,,,,,,497.8626,498.0405,498.0405,498.5616,,,,,,,,,,,,,,3.3496,1,,,,,,,,,,,,,,m,,,,,,,,,,,,,,,82,0,498.5619,501.9121,m,1,3.3496,,[],[],[],[],[],[],[],501.9121,503.9127,503.9127,503.9129,[],[],[],[],[],[],[],,503.9129,503.913,0.076939494,-0.408628743,0,0,0,,0,81,81,83,1,3,word,ANIMAL,cursive,animal_c.png,,,,,,
,,,,31790,001,2025-10-22_09h15.52.049,HW_LDT_1,2024.2.4,MacIntel,60.24096386,,,,,,,,,,,,,,,,,,,,,503.914,504.107,504.107,504.6071,,,,,,,,,,,,,,1.5875,1,,,,,,,,,,,,,,z,,,,,,,,,,,,,,,83,0,504.6076,506.1957,z,1,1.5875,,[],[],[],[],[],[],[],506.1958,508.1904,508.1904,508.1906,[],[],[],[],[],[],[],,508.1907,508.1908,0.076939494,-0.408628743,0,0,0,,0,82,82,5,1,3,RL,capefory,cursive,capefory_c.png,,,,,,
,,,,31790,001,2025-10-22_09h15.52.049,HW_LDT_1,2024.2.4,MacIntel,60.24096386,,,,,,,,,,,,,,,,,,,,,508.1917,508.3907,508.3907,508.8794,,,,,,,,,,,,,,2.6653,1,,,,,,,,,,,,,,z,,,,,,,,,,,,,,,84,0,508.8797,511.5456,z,1,2.6653,,[],[],[],[],[],[],[],511.5456,513.5447,513.5447,513.5449,[],[],[],[],[],[],[],,513.545,513.545,0.076939494,-0.408628743,0,0,0,,0,83,83,78,1,3,TL,vecolity,cursive,vecolity_c.png,,,,,,
,,,,31790,001,2025-10-22_09h15.52.049,HW_LDT_1,2024.2.4,MacIntel,60.24096386,,,,,,,,,,,,,,,,,,,,,513.5462,513.7402,513.7402,514.2392,,,,,,,,,,,,,,2.0376,1,,,,,,,,,,,,,,m,,,,,,,,,,,,,,,85,0,514.2396,516.2782,m,1,2.0376,,[],[],[],[],[],[],[],516.2782,518.2784,518.2785,518.2786,[],[],[],[],[],[],[],,518.2786,518.2787,0.076939494,-0.408628743,0,0,0,,0,84,84,86,1,3,word,BESIDE,cursive,beside_c.png,,,,,,
,,,,31790,001,2025-10-22_09h15.52.049,HW_LDT_1,2024.2.4,MacIntel,60.24096386,,,,,,,,,,,,,,,,,,,,,518.2798,518.4775,518.4776,518.9778,,,,,,,,,,,,,,3.0785,1,,,,,,,,,,,,,,m,,,,,,,,,,,,,,,86,1,518.9782,522.0578,m,1,3.0785,,[],[],[],[],[],[],[],522.0578,524.0455,524.0455,525.6891,[],[],[],[],[],[],[],z,525.6892,525.6894,0.076939494,-0.408628743,0,0,0,,0,85,85,154,1,3,word,STORAGE,cursive,storage_c.png,1.6433,,,,,
,,,,31790,001,2025-10-22_09h15.52.049,HW_LDT_1,2024.2.4,MacIntel,60.24096386,,,,,,,,,,,,,,,,,,,,,525.6901,525.8767,525.8768,526.3776,,,,,,,,,,,,,,2.2932,1,,,,,,,,,,,,,,m,,,,,,,,,,,,,,,87,0,526.378,528.6734,m,1,2.2932,,[],[],[],[],[],[],[],528.6735,530.662,530.662,530.6621,[],[],[],[],[],[],[],,530.6622,530.6623,0.076939494,-0.408628743,0,0,0,,0,86,86,144,1,3,word,RESIDENT,cursive,resident_c.png,,,,,,
,,,,31790,001,2025-10-22_09h15.52.049,HW_LDT_1,2024.2.4,MacIntel,60.24096386,,,,,,,,,,,,,,,,,,,,,530.6634,530.86,530.86,531.3606,,,,,,,,,,,,,,1.7664,1,,,,,,,,,,,,,,z,,,,,,,,,,,,,,,88,0,531.361,533.1284,z,1,1.7664,,[],[],[],[],[],[],[],533.1284,535.1233,535.1233,535.1236,[],[],[],[],[],[],[],,535.1236,535.1238,0.076939494,-0.408628743,0,0,0,,0,87,87,9,1,3,RL,docirant,print,docirant_p.png,,,,,,
,,,,31790,001,2025-10-22_09h15.52.049,HW_LDT_1,2024.2.4,MacIntel,60.24096386,,,,,,,,,,,,,,,,,,,,,535.1246,535.3222,535.3223,535.8119,,,,,,,,,,,,,,1.5287,1,,,,,,,,,,,,,,z,,,,,,,,,,,,,,,89,0,535.8123,537.3422,z,1,1.5287,,[],[],[],[],[],[],[],537.3423,539.3333,539.3334,539.3335,[],[],[],[],[],[],[],,539.3336,539.3337,0.076939494,-0.408628743,0,0,0,,0,88,88,51,1,3,TL,liretal,print,liretal_p.png,,,,,,
,,,,31790,001,2025-10-22_09h15.52.049,HW_LDT_1,2024.2.4,MacIntel,60.24096386,,,,,,,,,,,,,,,,,,,,,539.3346,539.5296,539.5296,540.023,,,,,,,,,,,,,,1.4446,1,,,,,,,,,,,,,,m,,,,,,,,,,,,,,,90,1,540.0234,541.4729,m,1,1.4446,,[],[],[],[],[],[],[],541.473,543.461,543.461,545.0085,[],[],[],[],[],[],[],m,545.0086,545.0087,0.076939494,-0.408628743,0,0,0,,0,89,89,118,1,3,word,MEDICINE,print,medicine_p.png,1.5452,,,,,
,,,,31790,001,2025-10-22_09h15.52.049,HW_LDT_1,2024.2.4,MacIntel,60.24096386,,,,,,,,,,,,,,,,,,,,,545.0095,545.2109,545.211,545.7107,,,,,,,,,,,,,,1.9981,1,,,,,,,,,,,,,,z,,,,,,,,,,,,,,,91,1,545.7111,547.7098,z,1,1.9981,,[],[],[],[],[],[],[],547.7098,549.7065,549.7066,551.595,[],[],[],[],[],[],[],m,551.5951,551.5951,0.076939494,-0.408628743,0,0,0,,0,90,90,46,1,3,TL,distupe,print,distupe_p.png,1.8879,,,,,
,,,,31790,001,2025-10-22_09h15.52.049,HW_LDT_1,2024.2.4,MacIntel,60.24096386,,,,,,,,,,,,,,,,,,,,,551.5958,551.7898,551.7899,552.2894,,,,,,,,,,,,,,1.5192,1,,,,,,,,,,,,,,m,,,,,,,,,,,,,,,92,0,552.2899,553.8097,m,1,1.5192,,[],[],[],[],[],[],[],553.8098,555.8113,555.8114,555.8115,[],[],[],[],[],[],[],,555.8115,555.8116,0.076939494,-0.408628743,0,0,0,,0,91,91,89,1,3,word,CAPACITY,cursive,capacity_c.png,,,,,,
,,,,31790,001,2025-10-22_09h15.52.049,HW_LDT_1,2024.2.4,MacIntel,60.24096386,,,,,,,,,,,,,,,,,,,,,555.8126,556.0068,556.0069,556.5064,,,,,,,,,,,,,,2.8704,1,,,,,,,,,,,,,,m,,,,,,,,,,,,,,,93,0,556.5069,559.3778,m,1,2.8704,,[],[],[],[],[],[],[],559.3779,561.3783,561.3783,561.3786,[],[],[],[],[],[],[],,561.3786,561.3786,0.076939494,-0.408628743,0,0,0,,0,92,92,127,1,3,word,ORIGINAL,cursive,original_c.png,,,,,,
,,,,31790,001,2025-10-22_09h15.52.049,HW_LDT_1,2024.2.4,MacIntel,60.24096386,,,,,,,,,,,,,,,,,,,,,561.3798,561.5732,561.5732,562.0729,,,,,,,,,,,,,,1.2705,1,,,,,,,,,,,,,,m,,,,,,,,,,,,,,,94,0,562.0735,563.3448,m,1,1.2705,,[],[],[],[],[],[],[],563.3449,565.3441,565.3441,565.3442,[],[],[],[],[],[],[],,565.3443,565.3443,0.076939494,-0.408628743,0,0,0,,0,93,93,130,1,3,word,POLICY,print,policy_p.png,,,,,,
,,,,31790,001,2025-10-22_09h15.52.049,HW_LDT_1,2024.2.4,MacIntel,60.24096386,,,,,,,,,,,,,,,,,,,,,565.3452,565.5451,565.5451,566.045,,,,,,,,,,,,,,1.8756,1,,,,,,,,,,,,,,z,,,,,,,,,,,,,,,95,0,566.0454,567.9225,z,1,1.8756,,[],[],[],[],[],[],[],567.9225,569.9102,569.9102,569.9104,[],[],[],[],[],[],[],,569.9104,569.9106,0.076939494,-0.408628743,0,0,0,,0,94,94,32,1,3,TL,adacemy,print,adacemy_p.png,,,,,,
,,,,31790,001,2025-10-22_09h15.52.049,HW_LDT_1,2024.2.4,MacIntel,60.24096386,,,,,,,,,,,,,,,,,,,,,569.9117,570.1109,570.1109,570.6062,,,,,,,,,,,,,,1.9817,1,,,,,,,,,,,,,,m,,,,,,,,,,,,,,,96,0,570.6067,572.5892,m,1,1.9817,,[],[],[],[],[],[],[],572.5893,574.5947,574.5947,574.595,[],[],[],[],[],[],[],,574.595,574.595,0.076939494,-0.408628743,0,0,0,,0,95,95,116,1,3,word,MARGINAL,print,marginal_p.png,,,,,,
,,,,31790,001,2025-10-22_09h15.52.049,HW_LDT_1,2024.2.4,MacIntel,60.24096386,,,,,,,,,,,,,,,,,,,,,574.5961,574.7896,574.7897,575.2897,,,,,,,,,,,,,,1.6811,1,,,,,,,,,,,,,,m,,,,,,,,,,,,,,,97,0,575.29,576.9725,m,1,1.6811,,[],[],[],[],[],[],[],576.9725,578.9602,578.9603,578.9604,[],[],[],[],[],[],[],,578.9604,578.9605,0.076939494,-0.408628743,0,0,0,,0,96,96,97,1,3,word,COVERAGE,print,coverage_p.png,,,,,,
,,,,31790,001,2025-10-22_09h15.52.049,HW_LDT_1,2024.2.4,MacIntel,60.24096386,,,,,,,,,,,,,,,,,,,,,578.9617,579.1611,579.1611,579.6628,,,,,,,,,,,,,,1.6144,1,,,,,,,,,,,,,,z,,,,,,,,,,,,,,,98,0,579.6632,581.2782,z,1,1.6144,,[],[],[],[],[],[],[],581.2782,583.2902,583.2903,583.2904,[],[],[],[],[],[],[],,583.2904,583.2905,0.076939494,-0.408628743,0,0,0,,0,97,97,41,1,3,TL,crinimal,print,crinimal_p.png,,,,,,
,,,,31790,001,2025-10-22_09h15.52.049,HW_LDT_1,2024.2.4,MacIntel,60.24096386,,,,,,,,,,,,,,,,,,,,,583.2917,583.4835,583.4835,583.9939,,,,,,,,,,,,,,2.2979,1,,,,,,,,,,,,,,z,,,,,,,,,,,,,,,99,0,583.9942,586.2926,z,1,2.2979,,[],[],[],[],[],[],[],586.2926,588.2932,588.2932,588.2936,[],[],[],[],[],[],[],,588.2937,588.2937,0.076939494,-0.408628743,0,0,0,,0,98,98,11,1,3,RL,ebiwent,cursive,ebiwent_c.png,,,,,,
,,,,31790,001,2025-10-22_09h15.52.049,HW_LDT_1,2024.2.4,MacIntel,60.24096386,,,,,,,,,,,,,,,,,,,,,588.2948,588.4932,588.4932,588.9948,,,,,,,,,,,,,,2.6752,1,,,,,,,,,,,,,,z,,,,,,,,,,,,,,,100,0,588.9953,591.6725,z,1,2.6752,,[],[],[],[],[],[],[],591.6726,593.6614,593.6615,593.6616,[],[],[],[],[],[],[],,593.6617,593.6618,0.076939494,-0.408628743,0,0,0,,0,99,99,44,1,3,TL,decilate,print,decilate_p.png,,,,,,
,,,,31790,001,2025-10-22_09h15.52.049,HW_LDT_1,2024.2.4,MacIntel,60.24096386,,,,,,,,,,,,,,,,,,,,,593.6629,593.8552,593.8552,594.3558,,,,,,,,,,,,,,2.2382,1,,,,,,,,,,,,,,m,,,,,,,,,,,,,,,101,0,594.3561,596.595,m,1,2.2382,,[],[],[],[],[],[],[],596.5951,598.5929,598.5929,598.5931,[],[],[],[],[],[],[],,598.5932,598.5932,0.076939494,-0.408628743,0,0,0,,0,100,100,94,1,3,word,CLINICAL,print,clinical_p.png,,,,,,
,,,,31790,001,2025-10-22_09h15.52.049,HW_LDT_1,2024.2.4,MacIntel,60.24096386,,,,,,,,,,,,,,,,,,,,,598.5943,598.7892,598.7892,599.2892,,,,,,,,,,,,,,1.8097,1,,,,,,,,,,,,,,z,,,,,,,,,,,,,,,102,0,599.2896,601.1,z,1,1.8097,,[],[],[],[],[],[],[],601.1,603.0889,603.089,603.0892,[],[],[],[],[],[],[],,603.0892,603.0892,0.076939494,-0.408628743,0,0,0,,0,101,101,33,1,3,TL,adsivory,print,adsivory_p.png,,,,,,
,,,,31790,001,2025-10-22_09h15.52.049,HW_LDT_1,2024.2.4,MacIntel,60.24096386,,,,,,,,,,,,,,,,,,,,,603.0902,603.289,603.2891,603.7887,,,,,,,,,,,,,,2.264,1,,,,,,,,,,,,,,z,,,,,,,,,,,,,,,103,0,603.7889,606.0553,z,1,2.264,,[],[],[],[],[],[],[],606.0553,608.0609,608.0609,608.061,[],[],[],[],[],[],[],,608.061,608.0611,0.076939494,-0.408628743,0,0,0,,0,102,102,1,1,3,RL,bewoted,cursive,bewoted_c.png,,,,,,
,,,,31790,001,2025-10-22_09h15.52.049,HW_LDT_1,2024.2.4,MacIntel,60.24096386,,,,,,,,,,,,,,,,,,,,,608.0621,608.2616,608.2617,608.7613,,,,,,,,,,,,,,1.8655,1,,,,,,,,,,,,,,z,,,,,,,,,,,,,,,104,0,608.7617,610.6279,z,1,1.8655,,[],[],[],[],[],[],[],610.6279,612.628,612.628,612.6281,[],[],[],[],[],[],[],,612.6282,612.6282,0.076939494,-0.408628743,0,0,0,,0,103,103,53,1,3,TL,marnigal,print,marnigal_p.png,,,,,,
,,,,31790,001,2025-10-22_09h15.52.049,HW_LDT_1,2024.2.4,MacIntel,60.24096386,,,,,,,,,,,,,,,,,,,,,612.6293,612.8223,612.8225,613.3222,,,,,,,,,,,,,,1.8171,0,,,,,,,,,,,,,,m,,,,,,,,,,,,,,,105,0,613.3228,615.1404,z,0,1.8171,,[],[],[],[],[],[],[],615.1405,617.1392,617.1393,617.1395,[],[],[],[],[],[],[],,617.1395,617.1395,0.076939494,-0.408628743,0,0,0,,0,104,104,114,1,3,word,LOCATE,cursive,locate_c.png,,,,,,
,,,,31790,001,2025-10-22_09h15.52.049,HW_LDT_1,2024.2.4,MacIntel,60.24096386,,,,,,,,,,,,,,,,,,,,,617.1407,617.3427,617.3427,617.8431,,,,,,,,,,,,,,1.5334,1,,,,,,,,,,,,,,m,,,,,,,,,,,,,,,106,0,617.8436,619.3777,m,1,1.5334,,[],[],[],[],[],[],[],619.3777,621.3741,621.3741,621.3743,[],[],[],[],[],[],[],,621.3744,621.3745,0.076939494,-0.408628743,0,0,0,,0,105,105,124,1,3,word,NUMERICAL,print,numerical_p.png,,,,,,
,,,,31790,001,2025-10-22_09h15.52.049,HW_LDT_1,2024.2.4,MacIntel,60.24096386,,,,,,,,,,,,,,,,,,,,,621.3759,621.5769,621.5769,622.0779,,,,,,,,,,,,,,1.9935,1,,,,,,,,,,,,,,m,,,,,,,,,,,,,,,107,0,622.0783,624.0727,m,1,1.9935,,[],[],[],[],[],[],[],624.0727,626.0605,626.0605,626.0606,[],[],[],[],[],[],[],,626.0607,626.0608,0.076939494,-0.408628743,0,0,0,,0,106,106,82,1,3,word,AMATEUR,print,amateur_p.png,,,,,,
,,,,31790,001,2025-10-22_09h15.52.049,HW_LDT_1,2024.2.4,MacIntel,60.24096386,,,,,,,,,,,,,,,,,,,,,626.0618,626.2585,626.2587,626.7608,,,,,,,,,,,,,,1.4972,1,,,,,,,,,,,,,,m,,,,,,,,,,,,,,,108,0,626.7611,628.2593,m,1,1.4972,,[],[],[],[],[],[],[],628.2594,630.2594,630.2594,630.2596,[],[],[],[],[],[],[],,630.2597,630.2598,0.076939494,-0.408628743,0,0,0,,0,107,107,113,1,3,word,LITERAL,print,literal_p.png,,,,,,
,,,,31790,001,2025-10-22_09h15.52.049,HW_LDT_1,2024.2.4,MacIntel,60.24096386,,,,,,,,,,,,,,,,,,,,,630.2608,630.459,630.459,630.9609,,,,,,,,,,,,,,1.5956,1,,,,,,,,,,,,,,m,,,,,,,,,,,,,,,109,0,630.9613,632.5577,m,1,1.5956,,[],[],[],[],[],[],[],632.5577,634.5555,634.5555,634.5557,[],[],[],[],[],[],[],,634.5557,634.5558,0.076939494,-0.408628743,0,0,0,,0,108,108,152,1,3,word,SPECIMEN,print,specimen_p.png,,,,,,
,,,,31790,001,2025-10-22_09h15.52.049,HW_LDT_1,2024.2.4,MacIntel,60.24096386,,,,,,,,,,,,,,,,,,,,,634.5567,634.7553,634.7553,635.2553,,,,,,,,,,,,,,1.5514,1,,,,,,,,,,,,,,z,,,,,,,,,,,,,,,110,0,635.2558,636.8082,z,1,1.5514,,[],[],[],[],[],[],[],636.8083,638.8085,638.8085,638.8086,[],[],[],[],[],[],[],,638.8086,638.8087,0.076939494,-0.408628743,0,0,0,,0,109,109,59,1,3,TL,paficic,cursive,paficic_c.png,,,,,,
,,,,31790,001,2025-10-22_09h15.52.049,HW_LDT_1,2024.2.4,MacIntel,60.24096386,,,,,,,,,,,,,,,,,,,,,638.81,639.0078,639.0078,639.5077,,,,,,,,,,,,,,1.5644,1,,,,,,,,,,,,,,z,,,,,,,,,,,,,,,111,0,639.5084,641.0738,z,1,1.5644,,[],[],[],[],[],[],[],641.0738,643.0752,643.0752,643.0755,[],[],[],[],[],[],[],,643.0756,643.0757,0.076939494,-0.408628743,0,0,0,,0,110,110,26,1,3,RL,repifion,print,repifion_p.png,,,,,,
,,,,31790,001,2025-10-22_09h15.52.049,HW_LDT_1,2024.2.4,MacIntel,60.24096386,,,,,,,,,,,,,,,,,,,,,643.0769,643.2758,643.2758,643.7758,,,,,,,,,,,,,,1.5151,1,,,,,,,,,,,,,,z,,,,,,,,,,,,,,,112,0,643.7763,645.2929,z,1,1.5151,,[],[],[],[],[],[],[],645.293,647.2912,647.2912,647.2913,[],[],[],[],[],[],[],,647.2913,647.2914,0.076939494,-0.408628743,0,0,0,,0,111,111,0,1,3,RL,afaneur,print,afaneur_p.png,,,,,,
,,,,31790,001,2025-10-22_09h15.52.049,HW_LDT_1,2024.2.4,MacIntel,60.24096386,,,,,,,,,,,,,,,,,,,,,647.2924,647.4922,647.4922,647.9929,,,,,,,,,,,,,,3.3283,1,,,,,,,,,,,,,,z,,,,,,,,,,,,,,,113,0,647.9935,651.3228,z,1,3.3283,,[],[],[],[],[],[],[],651.3228,653.3264,653.3264,653.3266,[],[],[],[],[],[],[],,653.3267,653.3268,0.076939494,-0.408628743,0,0,0,,0,112,112,47,1,3,TL,elarobate,print,elarobate_p.png,,,,,,
,,,,31790,001,2025-10-22_09h15.52.049,HW_LDT_1,2024.2.4,MacIntel,60.24096386,,,,,,,,,,,,,,,,,,,,,653.3278,653.526,653.526,654.0237,,,,,,,,,,,,,,2.1196,1,,,,,,,,,,,,,,m,,,,,,,,,,,,,,,114,0,654.024,656.1443,m,1,2.1196,,[],[],[],[],[],[],[],656.1444,658.1423,658.1424,658.1424,[],[],[],[],[],[],[],,658.1424,658.1425,0.076939494,-0.408628743,0,0,0,,0,113,113,100,1,3,word,DECADE,cursive,decade_c.png,,,,,,
,,,,31790,001,2025-10-22_09h15.52.049,HW_LDT_1,2024.2.4,MacIntel,60.24096386,,,,,,,,,,,,,,,,,,,,,658.1431,658.3393,658.3393,658.8415,,,,,,,,,,,,,,1.8581,1,,,,,,,,,,,,,,z,,,,,,,,,,,,,,,115,0,658.8419,660.7048,z,1,1.8581,,[],[],[],[],[],[],[],660.7049,662.7049,662.705,662.7052,[],[],[],[],[],[],[],,662.7053,662.7054,0.076939494,-0.408628743,0,0,0,,0,114,114,21,1,3,RL,potugar,print,potugar_p.png,,,,,,
,,,,31790,001,2025-10-22_09h15.52.049,HW_LDT_1,2024.2.4,MacIntel,60.24096386,,,,,,,,,,,,,,,,,,,,,662.7064,662.9047,662.9047,663.4037,,,,,,,,,,,,,,2.0964,0,,,,,,,,,,,,,,m,,,,,,,,,,,,,,,116,0,663.4041,665.5036,z,0,2.0964,,[],[],[],[],[],[],[],665.5037,667.4922,667.4923,667.4925,[],[],[],[],[],[],[],,667.4926,667.4926,0.076939494,-0.408628743,0,0,0,,0,115,115,149,1,3,word,SENATOR,cursive,senator_c.png,,,,,,
,,,,31790,001,2025-10-22_09h15.52.049,HW_LDT_1,2024.2.4,MacIntel,60.24096386,,,,,,,,,,,,,,,,,,,,,667.4948,667.6884,667.6884,668.1875,,,,,,,,,,,,,,1.5137,1,,,,,,,,,,,,,,z,,,,,,,,,,,,,,,117,0,668.1879,669.7047,z,1,1.5137,,[],[],[],[],[],[],[],669.7047,671.6988,671.6988,671.699,[],[],[],[],[],[],[],,671.699,671.6991,0.076939494,-0.408628743,0,0,0,,0,116,116,50,1,3,TL,lirebal,print,lirebal_p.png,,,,,,
,,,,31790,001,2025-10-22_09h15.52.049,HW_LDT_1,2024.2.4,MacIntel,60.24096386,,,,,,,,,,,,,,,,,,,,,671.7002,671.8927,671.8927,672.393,,,,,,,,,,,,,,1.3772,1,,,,,,,,,,,,,,m,,,,,,,,,,,,,,,118,0,672.3934,673.7715,m,1,1.3772,,[],[],[],[],[],[],[],673.7716,675.7706,675.7707,675.7709,[],[],[],[],[],[],[],,675.7709,675.771,0.076939494,-0.408628743,0,0,0,,0,117,117,115,1,3,word,LOGICAL,cursive,logical_c.png,,,,,,
,,,,31790,001,2025-10-22_09h15.52.049,HW_LDT_1,2024.2.4,MacIntel,60.24096386,,,,,,,,,,,,,,,,,,,,,675.772,675.9591,675.9591,676.459,,,,,,,,,,,,,,1.5937,1,,,,,,,,,,,,,,z,,,,,,,,,,,,,,,119,0,676.4593,678.0538,z,1,1.5937,,[],[],[],[],[],[],[],678.0538,680.0432,680.0432,680.0432,[],[],[],[],[],[],[],,680.0433,680.0434,0.07296658,-0.411557278,0,0,0,,0,118,118,12,1,3,RL,formuke,cursive,formuke_c.png,,,,,,
,,,,31790,001,2025-10-22_09h15.52.049,HW_LDT_1,2024.2.4,MacIntel,60.24096386,,,,,,,,,,,,,,,,,,,,,680.0443,680.2386,680.2386,680.7383,,,,,,,,,,,,,,1.0873,1,,,,,,,,,,,,,,m,,,,,,,,,,,,,,,120,0,680.7387,681.8268,m,1,1.0873,,[],[],[],[],[],[],[],681.8268,683.8202,683.8202,683.8203,[],[],[],[],[],[],[],,683.8203,683.8204,0.05975925,-0.401402724,0,0,0,,0,119,119,131,1,3,word,POPULAR,print,popular_p.png,,,,,,
,,,,31790,001,2025-10-22_09h15.52.049,HW_LDT_1,2024.2.4,MacIntel,60.24096386,,,,,,,,,,,,,,,,,,,,,683.8214,684.0216,684.0217,684.51,,,,,,,,,,,,,,1.7805,1,,,,,,,,,,,,,,m,,,,,,,,,,,,,,,121,0,684.5104,686.2915,m,1,1.7805,,[],[],[],[],[],[],[],686.2915,688.2879,688.288,688.2882,[],[],[],[],[],[],[],,688.2882,688.2883,0.05975925,-0.401402724,0,0,0,,0,120,120,132,1,3,word,PROPOSAL,print,proposal_p.png,,,,,,
,,,,31790,001,2025-10-22_09h15.52.049,HW_LDT_1,2024.2.4,MacIntel,60.24096386,,,,,,,,,,,,,,,,,,,,,688.2893,688.4765,688.4766,688.9875,,,,,,,,,,,,,,2.1684,1,,,,,,,,,,,,,,m,,,,,,,,,,,,,,,122,0,688.9878,691.1571,m,1,2.1684,,[],[],[],[],[],[],[],691.1571,693.1536,693.1536,693.1537,[],[],[],[],[],[],[],,693.1537,693.1538,0.05975925,-0.401402724,0,0,0,,0,121,121,106,1,3,word,ELABORATE,print,elaborate_p.png,,,,,,
,,,,31790,001,2025-10-22_09h15.52.049,HW_LDT_1,2024.2.4,MacIntel,60.24096386,,,,,,,,,,,,,,,,,,,,,693.155,693.3723,693.3723,693.8434,,,,,,,,,,,,,,3.5129,1,,,,,,,,,,,,,,m,,,,,,,,,,,,,,,123,0,693.8437,697.3571,m,1,3.5129,,[],[],[],[],[],[],[],697.3571,699.3592,699.3593,699.3594,[],[],[],[],[],[],[],,699.3595,699.3595,0.05975925,-0.401402724,0,0,0,,0,122,122,148,1,3,word,SALINE,cursive,saline_c.png,,,,,,
,,,,31790,001,2025-10-22_09h15.52.049,HW_LDT_1,2024.2.4,MacIntel,60.24096386,,,,,,,,,,,,,,,,,,,,,699.3605,699.5542,699.5542,700.0545,,,,,,,,,,,,,,1.4854,0,,,,,,,,,,,,,,m,,,,,,,,,,,,,,,124,1,700.0549,701.5412,z,0,1.4854,,[],[],[],[],[],[],[],701.5412,703.5366,703.5367,705.3738,[],[],[],[],[],[],[],z,705.3739,705.374,0.05975925,-0.401402724,0,0,0,,0,123,123,121,1,3,word,MISTAKE,cursive,mistake_c.png,1.8369,,,,,
,,,,31790,001,2025-10-22_09h15.52.049,HW_LDT_1,2024.2.4,MacIntel,60.24096386,,,,,,,,,,,,,,,,,,,,,705.3746,705.5765,705.5765,706.0754,,,,,,,,,,,,,,1.6653,1,,,,,,,,,,,,,,m,,,,,,,,,,,,,,,125,0,706.0756,707.7413,m,1,1.6653,,[],[],[],[],[],[],[],707.7413,709.7378,709.7379,709.738,[],[],[],[],[],[],[],,709.738,709.7381,0.05975925,-0.401402724,0,0,0,,0,124,124,84,1,3,word,BELOVED,cursive,beloved_c.png,,,,,,
,,,,31790,001,2025-10-22_09h15.52.049,HW_LDT_1,2024.2.4,MacIntel,60.24096386,,,,,,,,,,,,,,,,,,,,,709.739,709.9375,709.9375,710.4253,,,,,,,,,,,,,,1.6427,1,,,,,,,,,,,,,,z,,,,,,,,,,,,,,,126,0,710.4258,712.0709,z,1,1.6427,,[],[],[],[],[],[],[],712.0709,714.076,714.0761,714.0763,[],[],[],[],[],[],[],,714.0763,714.0763,0.05975925,-0.401402724,0,0,0,,0,125,125,55,1,3,TL,mecidine,print,mecidine_p.png,,,,,,
,,,,31790,001,2025-10-22_09h15.52.049,HW_LDT_1,2024.2.4,MacIntel,60.24096386,,,,,,,,,,,,,,,,,,,,,714.0774,714.2755,714.2756,714.7732,,,,,,,,,,,,,,1.7788,1,,,,,,,,,,,,,,m,,,,,,,,,,,,,,,127,0,714.7734,716.5534,m,1,1.7788,,[],[],[],[],[],[],[],716.5534,718.5603,718.5603,718.5604,[],[],[],[],[],[],[],,718.5605,718.5605,0.05975925,-0.401402724,0,0,0,,0,126,126,102,1,3,word,DENSITY,print,density_p.png,,,,,,
,,,,31790,001,2025-10-22_09h15.52.049,HW_LDT_1,2024.2.4,MacIntel,60.24096386,,,,,,,,,,,,,,,,,,,,,718.5616,718.7563,718.7564,719.2559,,,,,,,,,,,,,,1.1001,1,,,,,,,,,,,,,,m,,,,,,,,,,,,,,,128,0,719.2563,720.357,m,1,1.1001,,[],[],[],[],[],[],[],720.357,722.3539,722.3539,722.3542,[],[],[],[],[],[],[],,722.3543,722.3544,0.05975925,-0.401402724,0,0,0,,0,127,127,81,1,3,word,ADVISORY,print,advisory_p.png,,,,,,
,,,,31790,001,2025-10-22_09h15.52.049,HW_LDT_1,2024.2.4,MacIntel,60.24096386,,,,,,,,,,,,,,,,,,,,,722.3553,722.5529,722.5529,723.0536,,,,,,,,,,,,,,1.4056,1,,,,,,,,,,,,,,m,,,,,,,,,,,,,,,129,0,723.054,724.4605,m,1,1.4056,,[],[],[],[],[],[],[],724.4605,726.4527,726.4527,726.4531,[],[],[],[],[],[],[],,726.4532,726.4533,0.05975925,-0.401402724,0,0,0,,0,128,128,111,1,3,word,INDICATE,print,indicate_p.png,,,,,,
,,,,31790,001,2025-10-22_09h15.52.049,HW_LDT_1,2024.2.4,MacIntel,60.24096386,,,,,,,,,,,,,,,,,,,,,726.454,726.6427,726.6427,727.1416,,,,,,,,,,,,,,1.8122,1,,,,,,,,,,,,,,z,,,,,,,,,,,,,,,130,1,727.1421,728.9554,z,1,1.8122,,[],[],[],[],[],[],[],728.9554,730.9574,730.9574,732.3044,[],[],[],[],[],[],[],m,732.3044,732.3045,0.05975925,-0.401402724,0,0,0,,0,129,129,72,1,3,TL,senmitent,print,senmitent_p.png,1.3461,,,,,
,,,,31790,001,2025-10-22_09h15.52.049,HW_LDT_1,2024.2.4,MacIntel,60.24096386,,,,,,,,,,,,,,,,,,,,,732.3051,732.4931,732.4931,733.0039,,,,,,,,,,,,,,2.8365,1,,,,,,,,,,,,,,z,,,,,,,,,,,,,,,131,0,733.0042,735.8413,z,1,2.8365,,[],[],[],[],[],[],[],735.8414,737.8396,737.8397,737.8398,[],[],[],[],[],[],[],,737.8399,737.84,0.05975925,-0.401402724,0,0,0,,0,130,130,37,1,3,TL,cacapity,cursive,cacapity_c.png,,,,,,
,,,,31790,001,2025-10-22_09h15.52.049,HW_LDT_1,2024.2.4,MacIntel,60.24096386,,,,,,,,,,,,,,,,,,,,,737.8409,738.0408,738.0409,738.5411,,,,,,,,,,,,,,6.7317,0,,,,,,,,,,,,,,m,,,,,,,,,,,,,,,132,0,738.5416,745.2739,z,0,6.7317,,[],[],[],[],[],[],[],745.274,747.2692,747.2694,747.2701,[],[],[],[],[],[],[],,747.2701,747.2702,0.05975925,-0.401402724,0,0,0,,0,131,131,128,1,3,word,PACIFIC,cursive,pacific_c.png,,,,,,
,,,,31790,001,2025-10-22_09h15.52.049,HW_LDT_1,2024.2.4,MacIntel,60.24096386,,,,,,,,,,,,,,,,,,,,,747.2715,747.4736,747.4736,747.973,,,,,,,,,,,,,,2.0317,1,,,,,,,,,,,,,,z,,,,,,,,,,,,,,,133,0,747.9734,750.0059,z,1,2.0317,,[],[],[],[],[],[],[],750.0059,752.003,752.003,752.0032,[],[],[],[],[],[],[],,752.0034,752.0035,0.05975925,-0.401402724,0,0,0,,0,132,132,42,1,3,TL,detabe,cursive,detabe_c.png,,,,,,
,,,,31790,001,2025-10-22_09h15.52.049,HW_LDT_1,2024.2.4,MacIntel,60.24096386,,,,,,,,,,,,,,,,,,,,,752.0045,752.2089,752.2089,752.7109,,,,,,,,,,,,,,2.1231,1,,,,,,,,,,,,,,z,,,,,,,,,,,,,,,134,0,752.7114,754.8357,z,1,2.1231,,[],[],[],[],[],[],[],754.8359,756.8241,756.8242,756.8242,[],[],[],[],[],[],[],,756.8244,756.8246,0.05975925,-0.401402724,0,0,0,,0,133,133,25,1,3,RL,retupar,print,retupar_p.png,,,,,,
,,,,31790,001,2025-10-22_09h15.52.049,HW_LDT_1,2024.2.4,MacIntel,60.24096386,,,,,,,,,,,,,,,,,,,,,756.8256,757.0238,757.0238,757.5255,,,,,,,,,,,,,,1.9242,1,,,,,,,,,,,,,,m,,,,,,,,,,,,,,,135,0,757.5259,759.4528,m,1,1.9242,,[],[],[],[],[],[],[],759.4529,761.442,761.442,761.4421,[],[],[],[],[],[],[],,761.4421,761.4423,0.05975925,-0.401402724,0,0,0,,0,134,134,125,1,3,word,OPERATOR,print,operator_p.png,,,,,,
,,,,31790,001,2025-10-22_09h15.52.049,HW_LDT_1,2024.2.4,MacIntel,60.24096386,,,,,,,,,,,,,,,,,,,,,761.4434,761.6413,761.6413,762.1368,,,,,,,,,,,,,,1.8135,1,,,,,,,,,,,,,,m,,,,,,,,,,,,,,,136,0,762.1379,763.9527,m,1,1.8135,,[],[],[],[],[],[],[],763.9527,765.942,765.9421,765.9423,[],[],[],[],[],[],[],,765.9423,765.9424,0.05975925,-0.401402724,0,0,0,,0,135,135,107,1,3,word,EVIDENT,cursive,evident_c.png,,,,,,
,,,,31790,001,2025-10-22_09h15.52.049,HW_LDT_1,2024.2.4,MacIntel,60.24096386,,,,,,,,,,,,,,,,,,,,,765.9434,766.1368,766.1368,766.6368,,,,,,,,,,,,,,1.2981,1,,,,,,,,,,,,,,z,,,,,,,,,,,,,,,137,0,766.6373,767.9366,z,1,1.2981,,[],[],[],[],[],[],[],767.9367,769.9246,769.9246,769.9248,[],[],[],[],[],[],[],,769.9248,769.9249,0.05975925,-0.401402724,0,0,0,,0,136,136,4,1,3,RL,cafigal,cursive,cafigal_c.png,,,,,,
,,,,31790,001,2025-10-22_09h15.52.049,HW_LDT_1,2024.2.4,MacIntel,60.24096386,,,,,,,,,,,,,,,,,,,,,769.9261,770.1201,770.1201,770.6192,,,,,,,,,,,,,,2.756,0,,,,,,,,,,,,,,m,,,,,,,,,,,,,,,138,0,770.6196,773.3765,z,0,2.756,,[],[],[],[],[],[],[],773.3765,775.3741,775.3742,775.3743,[],[],[],[],[],[],[],,775.3743,775.3744,0.05975925,-0.401402724,0,0,0,,0,137,137,90,1,3,word,CAPITAL,cursive,capital_c.png,,,,,,
,,,,31790,001,2025-10-22_09h15.52.049,HW_LDT_1,2024.2.4,MacIntel,60.24096386,,,,,,,,,,,,,,,,,,,,,775.3752,775.5735,775.5735,776.0754,,,,,,,,,,,,,,3.4152,1,,,,,,,,,,,,,,z,,,,,,,,,,,,,,,139,0,776.0758,779.4916,z,1,3.4152,,[],[],[],[],[],[],[],779.4917,781.4866,781.4867,781.4869,[],[],[],[],[],[],[],,781.4869,781.487,0.05975925,-0.401402724,0,0,0,,0,138,138,49,1,3,TL,incidate,print,incidate_p.png,,,,,,
,,,,31790,001,2025-10-22_09h15.52.049,HW_LDT_1,2024.2.4,MacIntel,60.24096386,,,,,,,,,,,,,,,,,,,,,781.4881,781.6755,781.6755,782.1865,,,,,,,,,,,,,,2.0625,1,,,,,,,,,,,,,,z,,,,,,,,,,,,,,,140,1,782.1869,784.2531,z,1,2.0625,,[],[],[],[],[],[],[],784.2532,786.2532,786.2532,788.042,[],[],[],[],[],[],[],m,788.042,788.0423,0.05975925,-0.401402724,0,0,0,,0,139,139,40,1,3,TL,condiser,print,condiser_p.png,1.7883,,,,,
,,,,31790,001,2025-10-22_09h15.52.049,HW_LDT_1,2024.2.4,MacIntel,60.24096386,,,,,,,,,,,,,,,,,,,,,788.0429,788.2358,788.2358,788.7396,,,,,,,,,,,,,,2.4971,0,,,,,,,,,,,,,,m,,,,,,,,,,,,,,,141,0,788.7399,791.2376,z,0,2.4971,,[],[],[],[],[],[],[],791.2376,793.2432,793.2432,793.2433,[],[],[],[],[],[],[],,793.2433,793.2434,0.05975925,-0.401402724,0,0,0,,0,140,140,126,1,3,word,OPTIMAL,cursive,optimal_c.png,,,,,,
,,,,31790,001,2025-10-22_09h15.52.049,HW_LDT_1,2024.2.4,MacIntel,60.24096386,,,,,,,,,,,,,,,,,,,,,793.2444,793.4426,793.4427,793.9356,,,,,,,,,,,,,,1.4149,1,,,,,,,,,,,,,,z,,,,,,,,,,,,,,,142,0,793.9358,795.3517,z,1,1.4149,,[],[],[],[],[],[],[],795.3517,797.3577,797.3577,797.3578,[],[],[],[],[],[],[],,797.3578,797.358,0.05975925,-0.401402724,0,0,0,,0,141,141,76,1,3,TL,stogare,cursive,stogare_c.png,,,,,,
,,,,31790,001,2025-10-22_09h15.52.049,HW_LDT_1,2024.2.4,MacIntel,60.24096386,,,,,,,,,,,,,,,,,,,,,797.3589,797.5556,797.5556,798.0587,,,,,,,,,,,,,,1.5425,1,,,,,,,,,,,,,,z,,,,,,,,,,,,,,,143,0,798.059,799.6028,z,1,1.5425,,[],[],[],[],[],[],[],799.6029,801.5904,801.5904,801.5906,[],[],[],[],[],[],[],,801.5906,801.5907,0.05975925,-0.401402724,0,0,0,,0,142,142,17,1,3,RL,motide,cursive,motide_c.png,,,,,,
,,,,31790,001,2025-10-22_09h15.52.049,HW_LDT_1,2024.2.4,MacIntel,60.24096386,,,,,,,,,,,,,,,,,,,,,801.5917,801.7904,801.7904,802.2856,,,,,,,,,,,,,,1.2558,1,,,,,,,,,,,,,,z,,,,,,,,,,,,,,,144,0,802.286,803.5427,z,1,1.2558,,[],[],[],[],[],[],[],803.5427,805.5418,805.5419,805.542,[],[],[],[],[],[],[],,805.5421,805.5421,0.05975925,-0.401402724,0,0,0,,0,143,143,19,1,3,RL,opcifal,cursive,opcifal_c.png,,,,,,
,,,,31790,001,2025-10-22_09h15.52.049,HW_LDT_1,2024.2.4,MacIntel,60.24096386,,,,,,,,,,,,,,,,,,,,,805.5432,805.736,805.7361,806.2364,,,,,,,,,,,,,,2.1373,1,,,,,,,,,,,,,,z,,,,,,,,,,,,,,,145,1,806.2369,808.3748,z,1,2.1373,,[],[],[],[],[],[],[],808.3749,810.3744,810.3744,811.6565,[],[],[],[],[],[],[],z,811.6565,811.6565,0.05975925,-0.401402724,0,0,0,,0,144,144,69,1,3,TL,redisent,cursive,redisent_c.png,1.2818,,,,,
,,,,31790,001,2025-10-22_09h15.52.049,HW_LDT_1,2024.2.4,MacIntel,60.24096386,,,,,,,,,,,,,,,,,,,,,811.6571,811.8563,811.8563,812.3564,,,,,,,,,,,,,,1.5314,1,,,,,,,,,,,,,,z,,,,,,,,,,,,,,,146,1,812.3567,813.8891,z,1,1.5314,,[],[],[],[],[],[],[],813.8891,815.8916,815.8917,817.1706,[],[],[],[],[],[],[],m,817.1706,817.1708,0.05975925,-0.401402724,0,0,0,,0,145,145,30,1,3,RL,strapely,print,strapely_p.png,1.2782,,,,,
,,,,31790,001,2025-10-22_09h15.52.049,HW_LDT_1,2024.2.4,MacIntel,60.24096386,,,,,,,,,,,,,,,,,,,,,817.1714,817.3694,817.3694,817.8694,,,,,,,,,,,,,,1.7873,1,,,,,,,,,,,,,,m,,,,,,,,,,,,,,,147,0,817.87,819.6577,m,1,1.7873,,[],[],[],[],[],[],[],819.6578,821.6579,821.658,821.6582,[],[],[],[],[],[],[],,821.6582,821.6583,0.05975925,-0.401402724,0,0,0,,0,146,146,119,1,3,word,MEMORY,print,memory_p.png,,,,,,
,,,,31790,001,2025-10-22_09h15.52.049,HW_LDT_1,2024.2.4,MacIntel,60.24096386,,,,,,,,,,,,,,,,,,,,,821.6594,821.8531,821.8531,822.3568,,,,,,,,,,,,,,1.2317,1,,,,,,,,,,,,,,z,,,,,,,,,,,,,,,148,0,822.3572,823.5894,z,1,1.2317,,[],[],[],[],[],[],[],823.5895,825.586,825.5861,825.5863,[],[],[],[],[],[],[],,825.5864,825.5864,0.05975925,-0.401402724,0,0,0,,0,147,147,75,1,3,TL,sloten,cursive,sloten_c.png,,,,,,
,,,,31790,001,2025-10-22_09h15.52.049,HW_LDT_1,2024.2.4,MacIntel,60.24096386,,,,,,,,,,,,,,,,,,,,,825.5874,825.7741,825.7742,826.2748,,,,,,,,,,,,,,2.1437,1,,,,,,,,,,,,,,m,,,,,,,,,,,,,,,149,0,826.2752,828.4199,m,1,2.1437,0,[],[],[],[],[],[],[],828.4199,830.4181,830.4182,830.4183,[],[],[],[],[],[],[],,830.4184,830.4185,0.05975925,-0.401402724,0,0,0,,0,148,148,146,1,3,word,RETIRE,print,retire_p.png,,,,,,
,,,,31790,001,2025-10-22_09h15.52.049,HW_LDT_1,2024.2.4,MacIntel,60.24096386,,,,,,,,,,,,,,,,,,,,,830.4194,830.6077,830.6078,831.1085,,,,,,,,,,,,,,1.2636,1,,,,,,,,,,,,,,z,,,,,,,,,,,,,,,150,1,831.1089,832.3737,z,1,1.2636,,[],[],[],[],[],[],[],832.3737,834.3681,834.3681,836.0541,[],[],[],[],[],[],[],z,836.0541,836.0542,0.05975925,-0.401402724,0,0,0,,0,149,149,20,1,3,RL,orimipal,cursive,orimipal_c.png,1.6854,,,,,
,,,,31790,001,2025-10-22_09h15.52.049,HW_LDT_1,2024.2.4,MacIntel,60.24096386,,,,,,,,,,,,,,,,,,,,,836.0552,836.2579,836.258,836.7562,,,,,,,,,,,,,,3.7643,1,,,,,,,,,,,,,,m,,,,,,,,,,,,,,,151,0,836.7566,840.5218,m,1,3.7643,,[],[],[],[],[],[],[],840.5219,842.5177,842.5178,842.5178,[],[],[],[],[],[],[],,842.5179,842.518,0.05975925,-0.401402724,0,0,0,,0,150,150,93,1,3,word,CEREMONY,cursive,ceremony_c.png,,,,,,
,,,,31790,001,2025-10-22_09h15.52.049,HW_LDT_1,2024.2.4,MacIntel,60.24096386,,,,,,,,,,,,,,,,,,,,,842.5189,842.7079,842.7079,843.2055,,,,,,,,,,,,,,2.2779,0,,,,,,,,,,,,,,m,,,,,,,,,,,,,,,152,0,843.2059,845.4852,z,0,2.2779,,[],[],[],[],[],[],[],845.4852,847.4855,847.4855,847.4858,[],[],[],[],[],[],[],,847.4858,847.4859,0.05975925,-0.401402724,0,0,0,,0,151,151,88,1,3,word,CAMERA,cursive,camera_c.png,,,,,,
,,,,31790,001,2025-10-22_09h15.52.049,HW_LDT_1,2024.2.4,MacIntel,60.24096386,,,,,,,,,,,,,,,,,,,,,847.4868,847.6857,847.6857,848.1756,,,,,,,,,,,,,,1.3144,0,,,,,,,,,,,,,,m,,,,,,,,,,,,,,,153,0,848.176,849.4908,z,0,1.3144,,[],[],[],[],[],[],[],849.4908,851.4893,851.4893,851.4895,[],[],[],[],[],[],[],,851.4895,851.4896,0.05975925,-0.401402724,0,0,0,,0,152,152,92,1,3,word,CATEGORY,cursive,category_c.png,,,,,,
,,,,31790,001,2025-10-22_09h15.52.049,HW_LDT_1,2024.2.4,MacIntel,60.24096386,,,,,,,,,,,,,,,,,,,,,851.4906,851.6891,851.6891,852.1902,,,,,,,,,,,,,,1.7819,1,,,,,,,,,,,,,,m,,,,,,,,,,,,,,,154,0,852.1909,853.9734,m,1,1.7819,,[],[],[],[],[],[],[],853.9735,855.9679,855.9679,855.9681,[],[],[],[],[],[],[],,855.9681,855.9685,0.05975925,-0.401402724,0,0,0,,0,153,153,91,1,3,word,CARDINAL,print,cardinal_p.png,,,,,,
,,,,31790,001,2025-10-22_09h15.52.049,HW_LDT_1,2024.2.4,MacIntel,60.24096386,,,,,,,,,,,,,,,,,,,,,855.9696,856.1724,856.1724,856.6735,,,,,,,,,,,,,,1.5419,1,,,,,,,,,,,,,,z,,,,,,,,,,,,,,,155,0,856.6739,858.2187,z,1,1.5419,,[],[],[],[],[],[],[],858.2188,860.2179,860.218,860.2183,[],[],[],[],[],[],[],,860.2184,860.2185,0.05975925,-0.401402724,0,0,0,,0,154,154,57,1,3,TL,moredate,cursive,moredate_c.png,,,,,,
,,,,31790,001,2025-10-22_09h15.52.049,HW_LDT_1,2024.2.4,MacIntel,60.24096386,,,,,,,,,,,,,,,,,,,,,860.2194,860.4217,860.4217,860.9234,,,,,,,,,,,,,,1.4812,1,,,,,,,,,,,,,,m,,,,,,,,,,,,,,,156,0,860.9238,862.4057,m,1,1.4812,,[],[],[],[],[],[],[],862.4057,864.4019,864.4019,864.4021,[],[],[],[],[],[],[],,864.4022,864.4023,0.05975925,-0.401402724,0,0,0,,0,155,155,129,1,3,word,PARENT,print,parent_p.png,,,,,,
,,,,31790,001,2025-10-22_09h15.52.049,HW_LDT_1,2024.2.4,MacIntel,60.24096386,,,,,,,,,,,,,,,,,,,,,864.4032,864.6019,864.602,865.1007,,,,,,,,,,,,,,3.1394,1,,,,,,,,,,,,,,z,,,,,,,,,,,,,,,157,0,865.101,868.2409,z,1,3.1394,,[],[],[],[],[],[],[],868.2409,870.2397,870.2397,870.2399,[],[],[],[],[],[],[],,870.2399,870.24,0.05975925,-0.401402724,0,0,0,,0,156,156,74,1,3,TL,spemicen,print,spemicen_p.png,,,,,,
,,,,31790,001,2025-10-22_09h15.52.049,HW_LDT_1,2024.2.4,MacIntel,60.24096386,,,,,,,,,,,,,,,,,,,,,870.241,870.4354,870.4355,870.9346,,,,,,,,,,,,,,1.7984,1,,,,,,,,,,,,,,m,,,,,,,,,,,,,,,158,0,870.9353,872.7347,m,1,1.7984,,[],[],[],[],[],[],[],872.7347,874.7241,874.7241,874.7242,[],[],[],[],[],[],[],,874.7243,874.7244,0.05975925,-0.401402724,0,0,0,,0,157,157,139,1,3,word,REGULAR,print,regular_p.png,,,,,,
,,,,31790,001,2025-10-22_09h15.52.049,HW_LDT_1,2024.2.4,MacIntel,60.24096386,,,,,,,,,,,,,,,,,,,,,874.7254,874.9235,874.9236,875.4232,,,,,,,,,,,,,,1.8279,1,,,,,,,,,,,,,,z,,,,,,,,,,,,,,,159,0,875.4235,877.2521,z,1,1.8279,,[],[],[],[],[],[],[],877.2523,879.2518,879.2518,879.252,[],[],[],[],[],[],[],,879.252,879.2523,0.05975925,-0.401402724,0,0,0,,0,158,158,39,1,3,TL,clicinal,print,clicinal_p.png,,,,,,
,,,,31790,001,2025-10-22_09h15.52.049,HW_LDT_1,2024.2.4,MacIntel,60.24096386,,,,,,,,,,,,,,,,,,,,,879.2532,879.4519,879.452,879.9512,,,,,,,,,,,,,,3.8034,1,,,,,,,,,,,,,,z,,,,,,,,,,,,,,,160,0,879.9517,883.7557,z,1,3.8034,,[],[],[],[],[],[],[],883.7557,885.7548,885.7548,885.755,[],[],[],[],[],[],[],,885.755,885.7551,0.05975925,-0.401402724,0,0,0,,0,159,159,29,1,3,RL,selamor,cursive,selamor_c.png,,,,,,
,,,,31790,001,2025-10-22_09h15.52.049,HW_LDT_1,2024.2.4,MacIntel,60.24096386,,,,,,,,,,,,,,,,,,,,,,,,,,,,,,,,,,,,,,,,,,,,,,,,,,,,,,,,,,,,,,,,,,,,,,,,,,,,,,,,,,,,,,,,,,,,,,,,,,,,,,,,,,,,,,,,,,,,,885.7631,890.751
