counterbalance_lists.group,counterbalance_lists.remaining,get_list.started,get_list.stopped,participant,session,date,expName,psychopyVersion,OS,frameRate,Instructions.started,Instructions.stopped,key_resp.keys,key_resp.rt,key_resp.duration,instr_done_touch.x,instr_done_touch.y,instr_done_touch.leftButton,instr_done_touch.midButton,instr_done_touch.rightButton,start_instr.thisRepN,start_instr.thisTrialN,start_instr.thisN,start_instr.thisIndex,start_instr.ran,pageN,phase,instruct_text,has_image,instruct_image,showProgress.started,showProgress.stopped,fix.started,fix.stopped,prac.started,prac.stopped,response.keys,response.corr,response.rt,response.duration,touch_resp.x,touch_resp.y,touch_resp.leftButton,touch_resp.midButton,touch_resp.rightButton,touch_resp.time,touch_resp.clicked_name,rt,corr,feedback.started,feedback.stopped,trials.thisRepN,trials.thisTrialN,trials.thisN,trials.thisIndex,trials.ran,TrialID,StimulusType,Condition,PrimeDuration,Prime,Target,corrAns,Instructions_expt.started,Instructions_expt.stopped,key_resp_3.keys,key_resp_3.rt,key_resp_3.duration,instr_done_touch_3.x,instr_done_touch_3.y,instr_done_touch_3.leftButton,instr_done_touch_3.midButton,instr_done_touch_3.rightButton,instr_experiment.thisRepN,instr_experiment.thisTrialN,instr_experiment.thisN,instr_experiment.thisIndex,instr_experiment.ran,trialID,flag,maintask.started,maintask.stopped,key_resp_2.keys,key_resp_2.corr,key_resp_2.rt,key_resp_2.duration,targ_click.x,targ_click.y,targ_click.leftButton,targ_click.midButton,targ_click.rightButton,targ_click.time,targ_click.clicked_name,ITI.started,ITI.stopped,probe.started,probe.stopped,click_probe.x,click_probe.y,click_probe.leftButton,click_probe.midButton,click_probe.rightButton,click_probe.time,click_probe.clicked_name,key_resp_probe.keys,Break.started,Break.stopped,break_done_touch.x,break_done_touch.y,break_done_touch.leftButton,break_done_touch.midButton,break_done_touch.rightButton,break_done_keyboard.keys,list2_trials.thisRepN,list2_trials.thisTrialN,list2_trials.thisN,list2_trials.thisIndex,list2_trials.ran,list_id,item_type,string,font,stim_file,key_resp_probe.rt,key_resp_probe.duration,break_done_keyboard.rt,break_done_keyboard.duration,End.started,End.stopped
list2,,0.4285,0.4286,31803,001,2025-11-06_10h41.04.409,HW_LDT_1,2024.2.4,MacIntel,60.24096386,,,,,,,,,,,,,,,,,,,,,,,,,,,,,,,,,,,,,,,,,,,,,,,,,,,,,,,,,,,,,,,,,,,,,,,,,,,,,,,,,,,,,,,,,,,,,,,,,,,,,,,,,,,,,,,,,,,,,,,
,,,,31803,001,2025-11-06_10h41.04.409,HW_LDT_1,2024.2.4,MacIntel,60.24096386,0.4433,30.8876,space,30.4196,,0.387682575,-0.252670686,0,0,0,0,0,0,0,1,1,instructions,"INSTRUCTIONS
At the start of each trial, look at the plus sign  (+) in the center of the screen.  This tells you that a trial is about to begin and where to look. Second, the plus sign will disappear and a string of letters will appear. Your task is to determine if the string of letters is a word or not. If the item is a word press the M key (on keyboard)  or touch the word button (phone/tablet).  If the item is not a word,  press the  Z key (on keyboard)  or touch the nonword button (on phone/tablet). The items will be presented for a short time. 
Press the space bar or touch  continue.",0,,,,,,,,,,,,,,,,,,,,,,,,,,,,,,,,,,,,,,,,,,,,,,,,,,,,,,,,,,,,,,,,,,,,,,,,,,,,,,,,,,,,,,,,,,,,,,,,,,,,
,,,,31803,001,2025-11-06_10h41.04.409,HW_LDT_1,2024.2.4,MacIntel,60.24096386,30.8902,36.1537,space,5.2484,,0.387682575,-0.252670686,0,0,0,0,1,1,1,1,2,instructions,"If your device has a keyboard, press the 'Z' key for nonwords and the 'M' key for words.





Press the space bar or touch the button below to continue.",0,keyboard-example.gif,,,,,,,,,,,,,,,,,,,,,,,,,,,,,,,,,,,,,,,,,,,,,,,,,,,,,,,,,,,,,,,,,,,,,,,,,,,,,,,,,,,,,,,,,,,,,,,,,,,
,,,,31803,001,2025-11-06_10h41.04.409,HW_LDT_1,2024.2.4,MacIntel,60.24096386,36.1553,37.8865,space,1.7028,,0.387682575,-0.252670686,0,0,0,0,2,2,2,1,3,instructions,"If you are using a touchscreen only device, use the buttons on the screen. Do not use the mouse.





Press the space bar or touch the button below to continue.",0,touchscreen-example.gif,,,,,,,,,,,,,,,,,,,,,,,,,,,,,,,,,,,,,,,,,,,,,,,,,,,,,,,,,,,,,,,,,,,,,,,,,,,,,,,,,,,,,,,,,,,,,,,,,,,
,,,,31803,001,2025-11-06_10h41.04.409,HW_LDT_1,2024.2.4,MacIntel,60.24096386,37.8888,50.7871,space,12.8723,,0.387682575,-0.252670686,0,0,0,0,3,3,3,1,4,instructions,"It is very important that you respond as quickly and accurately as possible, as each letter string will only be on the screen for two seconds. If you do not respond within this time, the message 'Too slow!' will be displayed and the experiment will progress to the next letter string. The first 20 trials will be practice trials and you will receive feedback on your answers. 

Press the space bar or touch the button below to start the practice trials.",0,,,,,,,,,,,,,,,,,,,,,,,,,,,,,,,,,,,,,,,,,,,,,,,,,,,,,,,,,,,,,,,,,,,,,,,,,,,,,,,,,,,,,,,,,,,,,,,,,,,,
,,,,31803,001,2025-11-06_10h41.04.409,HW_LDT_1,2024.2.4,MacIntel,60.24096386,,,,,,,,,,,,,,,,,,,,,50.8186,50.9863,50.9865,51.4864,51.4868,52.3699,m,1,0.8534,,[],[],[],[],[],[],[],0.8534,1,52.3703,52.8698,0,0,0,0,1,1001,WORD,"ID",33,utopia,UTOPIA,m,,,,,,,,,,,,,,,,,,,,,,,,,,,,,,,,,,,,,,,,,,,,,,,,,,,,,,,,,,,,,,,,,,
,,,,31803,001,2025-11-06_10h41.04.409,HW_LDT_1,2024.2.4,MacIntel,60.24096386,,,,,,,,,,,,,,,,,,,,,52.873,53.0693,53.0694,53.5695,53.5713,54.2861,m,1,0.6876,,[],[],[],[],[],[],[],0.6876,1,54.2862,54.7862,0,1,1,3,1,1004,WORD,"ID",16,matrix,MATRIX,m,,,,,,,,,,,,,,,,,,,,,,,,,,,,,,,,,,,,,,,,,,,,,,,,,,,,,,,,,,,,,,,,,,
,,,,31803,001,2025-11-06_10h41.04.409,HW_LDT_1,2024.2.4,MacIntel,60.24096386,,,,,,,,,,,,,,,,,,,,,54.7877,54.9861,54.9861,55.4861,55.4871,56.4362,z,1,0.9288,,[],[],[],[],[],[],[],0.9288,1,56.4363,56.9362,0,2,2,9,1,1010,NW,"ID",33,fariny,FARINY,z,,,,,,,,,,,,,,,,,,,,,,,,,,,,,,,,,,,,,,,,,,,,,,,,,,,,,,,,,,,,,,,,,,
,,,,31803,001,2025-11-06_10h41.04.409,HW_LDT_1,2024.2.4,MacIntel,60.24096386,,,,,,,,,,,,,,,,,,,,,56.9375,57.1361,57.1362,57.6351,57.6361,58.2851,m,1,0.6398,,[],[],[],[],[],[],[],0.6398,1,58.2853,58.7861,0,3,3,5,1,1006,WORD,UN,33,frenzy,OBTAIN,m,,,,,,,,,,,,,,,,,,,,,,,,,,,,,,,,,,,,,,,,,,,,,,,,,,,,,,,,,,,,,,,,,,
,,,,31803,001,2025-11-06_10h41.04.409,HW_LDT_1,2024.2.4,MacIntel,60.24096386,,,,,,,,,,,,,,,,,,,,,58.7879,58.986,58.986,59.486,59.4871,60.0694,m,1,0.5617,,[],[],[],[],[],[],[],0.5617,1,60.0696,60.5695,0,4,4,4,1,1005,WORD,UN,33,abound,SQUEAK,m,,,,,,,,,,,,,,,,,,,,,,,,,,,,,,,,,,,,,,,,,,,,,,,,,,,,,,,,,,,,,,,,,,
,,,,31803,001,2025-11-06_10h41.04.409,HW_LDT_1,2024.2.4,MacIntel,60.24096386,,,,,,,,,,,,,,,,,,,,,60.5709,60.7693,60.7694,61.2694,61.2706,62.2194,z,1,0.9291,,[],[],[],[],[],[],[],0.9291,1,62.2195,62.7194,0,5,5,10,1,1011,NW,"ID",16,inlade,INLADE,z,,,,,,,,,,,,,,,,,,,,,,,,,,,,,,,,,,,,,,,,,,,,,,,,,,,,,,,,,,,,,,,,,,
,,,,31803,001,2025-11-06_10h41.04.409,HW_LDT_1,2024.2.4,MacIntel,60.24096386,,,,,,,,,,,,,,,,,,,,,62.7209,62.9193,62.9194,63.4193,63.4202,64.1861,z,1,0.7493,,[],[],[],[],[],[],[],0.7493,1,64.1862,64.6861,0,6,6,13,1,1014,NW,UN,33,winfer,ROUPET,z,,,,,,,,,,,,,,,,,,,,,,,,,,,,,,,,,,,,,,,,,,,,,,,,,,,,,,,,,,,,,,,,,,
,,,,31803,001,2025-11-06_10h41.04.409,HW_LDT_1,2024.2.4,MacIntel,60.24096386,,,,,,,,,,,,,,,,,,,,,64.6878,64.886,64.886,65.3859,65.3869,66.386,z,1,0.9786,,[],[],[],[],[],[],[],0.9786,1,66.3861,66.886,0,7,7,15,1,1016,NW,UN,16,mushed,WHAISE,z,,,,,,,,,,,,,,,,,,,,,,,,,,,,,,,,,,,,,,,,,,,,,,,,,,,,,,,,,,,,,,,,,,
,,,,31803,001,2025-11-06_10h41.04.409,HW_LDT_1,2024.2.4,MacIntel,60.24096386,,,,,,,,,,,,,,,,,,,,,66.8872,67.0849,67.085,67.5859,67.587,68.136,m,1,0.5302,,[],[],[],[],[],[],[],0.5302,1,68.1361,68.636,0,8,8,1,1,1002,WORD,"ID",33,adjust,ADJUST,m,,,,,,,,,,,,,,,,,,,,,,,,,,,,,,,,,,,,,,,,,,,,,,,,,,,,,,,,,,,,,,,,,,
,,,,31803,001,2025-11-06_10h41.04.409,HW_LDT_1,2024.2.4,MacIntel,60.24096386,,,,,,,,,,,,,,,,,,,,,68.6377,68.8358,68.8359,69.336,69.3368,70.2692,z,1,0.9126,,[],[],[],[],[],[],[],0.9126,1,70.2694,70.7693,0,9,9,11,1,1012,NW,"ID",16,rashet,RASHET,z,,,,,,,,,,,,,,,,,,,,,,,,,,,,,,,,,,,,,,,,,,,,,,,,,,,,,,,,,,,,,,,,,,
,,,,31803,001,2025-11-06_10h41.04.409,HW_LDT_1,2024.2.4,MacIntel,60.24096386,,,,,,,,,,,,,,,,,,,,,70.7708,70.9692,70.9693,71.4692,71.4701,72.336,z,1,0.845,,[],[],[],[],[],[],[],0.845,1,72.3361,72.8359,0,10,10,8,1,1009,NW,"ID",33,aslert,ASLERT,z,,,,,,,,,,,,,,,,,,,,,,,,,,,,,,,,,,,,,,,,,,,,,,,,,,,,,,,,,,,,,,,,,,
,,,,31803,001,2025-11-06_10h41.04.409,HW_LDT_1,2024.2.4,MacIntel,60.24096386,,,,,,,,,,,,,,,,,,,,,72.8373,73.0358,73.0359,73.5358,73.5368,74.3859,z,1,0.8279,,[],[],[],[],[],[],[],0.8279,1,74.386,74.8859,0,11,11,12,1,1013,NW,UN,33,adveil,SPRINY,z,,,,,,,,,,,,,,,,,,,,,,,,,,,,,,,,,,,,,,,,,,,,,,,,,,,,,,,,,,,,,,,,,,
,,,,31803,001,2025-11-06_10h41.04.409,HW_LDT_1,2024.2.4,MacIntel,60.24096386,,,,,,,,,,,,,,,,,,,,,74.8875,75.0859,75.0859,75.5857,75.5868,76.5192,m,1,0.9121,,[],[],[],[],[],[],[],0.9121,1,76.5193,77.0193,0,12,12,6,1,1007,WORD,UN,16,tropic,ZOMBIE,m,,,,,,,,,,,,,,,,,,,,,,,,,,,,,,,,,,,,,,,,,,,,,,,,,,,,,,,,,,,,,,,,,,
,,,,31803,001,2025-11-06_10h41.04.409,HW_LDT_1,2024.2.4,MacIntel,60.24096386,,,,,,,,,,,,,,,,,,,,,77.0209,77.2181,77.2182,77.7193,77.7204,78.5359,z,1,0.7943,,[],[],[],[],[],[],[],0.7943,1,78.536,79.0348,0,13,13,14,1,1015,NW,UN,16,miaber,THRALE,z,,,,,,,,,,,,,,,,,,,,,,,,,,,,,,,,,,,,,,,,,,,,,,,,,,,,,,,,,,,,,,,,,,
,,,,31803,001,2025-11-06_10h41.04.409,HW_LDT_1,2024.2.4,MacIntel,60.24096386,,,,,,,,,,,,,,,,,,,,,79.0363,79.2348,79.2348,79.7357,79.7367,80.4858,m,1,0.7309,,[],[],[],[],[],[],[],0.7309,1,80.4859,80.9859,0,14,14,2,1,1003,WORD,"ID",16,almond,ALMOND,m,,,,,,,,,,,,,,,,,,,,,,,,,,,,,,,,,,,,,,,,,,,,,,,,,,,,,,,,,,,,,,,,,,
,,,,31803,001,2025-11-06_10h41.04.409,HW_LDT_1,2024.2.4,MacIntel,60.24096386,,,,,,,,,,,,,,,,,,,,,80.9873,81.1859,81.1859,81.6858,81.6869,82.4357,m,1,0.7292,,[],[],[],[],[],[],[],0.7292,1,82.4358,82.9357,0,15,15,7,1,1008,WORD,UN,16,hurdle,VOLUME,m,,,,,,,,,,,,,,,,,,,,,,,,,,,,,,,,,,,,,,,,,,,,,,,,,,,,,,,,,,,,,,,,,,
,,,,31803,001,2025-11-06_10h41.04.409,HW_LDT_1,2024.2.4,MacIntel,60.24096386,,,,,,,,,,,,,,,,1,end_of_practice,"You have completed the practice trials. During the experimental trials, you will not receive feedback. On some trials you will be asked to report whether the item you just saw was in cursive or print. 
Before you begin, please ensure that you are in a comfortable and quiet location and will not be disturbed for about 15 minutes, as we cannot use your data if you do not complete all the trials. 
 When you are ready to start the experimental trials, please press space or touch the button below.",,,,,,,,,,,,,,,,,,,,,,,,,,,,,,,,,,,,82.9438,97.8196,space,14.8508,,0.387682575,-0.252670686,0,0,0,0,0,0,0,1,,,,,,,,,,,,,,,,,,,,,,,,,,,,,,,,,,,,,,,,,,,,,,,,,,,
,,,,31803,001,2025-11-06_10h41.04.409,HW_LDT_1,2024.2.4,MacIntel,60.24096386,,,,,,,,,,,,,,,,,,,,,97.8341,98.0189,98.0191,98.5189,,,,,,,,,,,,,,1.3692,0,,,,,,,,,,,,,,m,,,,,,,,,,,,,,,,1,0,98.5207,99.9026,z,0,1.3692,,[],[],[],[],[],[],[],99.9029,101.9024,101.9027,101.9062,[],[],[],[],[],[],[],,101.9064,101.908,0.387682575,-0.252670686,0,0,0,,0,0,0,113,1,2,word,LITERAL,cursive,literal_c.png,,,,,,
,,,,31803,001,2025-11-06_10h41.04.409,HW_LDT_1,2024.2.4,MacIntel,60.24096386,,,,,,,,,,,,,,,,,,,,,101.9088,102.1021,102.1022,102.6021,,,,,,,,,,,,,,1.2193,1,,,,,,,,,,,,,,m,,,,,,,,,,,,,,,,2,1,102.6027,103.8356,m,1,1.2193,,[],[],[],[],[],[],[],103.8357,105.8355,105.8355,109.4688,[],[],[],[],[],[],[],z,109.4688,109.469,0.387682575,-0.252670686,0,0,0,,0,1,1,124,1,2,word,NUMERICAL,cursive,numerical_c.png,3.6208,,,,,
,,,,31803,001,2025-11-06_10h41.04.409,HW_LDT_1,2024.2.4,MacIntel,60.24096386,,,,,,,,,,,,,,,,,,,,,109.4702,109.6687,109.6687,110.1687,,,,,,,,,,,,,,1.3696,1,,,,,,,,,,,,,,m,,,,,,,,,,,,,,,,3,0,110.1694,111.5521,m,1,1.3696,,[],[],[],[],[],[],[],111.5523,113.5521,113.5521,113.5523,[],[],[],[],[],[],[],,113.5524,113.5526,0.387682575,-0.252670686,0,0,0,,0,2,2,140,1,2,word,RELATIVE,print,relative_p.png,,,,,,
,,,,31803,001,2025-11-06_10h41.04.409,HW_LDT_1,2024.2.4,MacIntel,60.24096386,,,,,,,,,,,,,,,,,,,,,113.554,113.752,113.7521,114.2519,,,,,,,,,,,,,,1.1407,1,,,,,,,,,,,,,,z,,,,,,,,,,,,,,,,4,1,114.2527,115.402,z,1,1.1407,,[],[],[],[],[],[],[],115.4021,117.402,117.402,119.2521,[],[],[],[],[],[],[],m,119.2521,119.2522,0.387682575,-0.252670686,0,0,0,,0,3,3,8,1,2,RL,desifate,print,desifate_p.png,1.8391,,,,,
,,,,31803,001,2025-11-06_10h41.04.409,HW_LDT_1,2024.2.4,MacIntel,60.24096386,,,,,,,,,,,,,,,,,,,,,119.2537,119.4519,119.452,119.9521,,,,,,,,,,,,,,1.6298,1,,,,,,,,,,,,,,z,,,,,,,,,,,,,,,,5,0,119.9527,121.585,z,1,1.6298,,[],[],[],[],[],[],[],121.5851,123.5853,123.5853,123.5856,[],[],[],[],[],[],[],,123.5856,123.5857,0.387682575,-0.252670686,0,0,0,,0,4,4,76,1,2,TL,senmitent,cursive,senmitent_c.png,,,,,,
,,,,31803,001,2025-11-06_10h41.04.409,HW_LDT_1,2024.2.4,MacIntel,60.24096386,,,,,,,,,,,,,,,,,,,,,123.5873,123.7853,123.7853,124.2852,,,,,,,,,,,,,,0.7524,1,,,,,,,,,,,,,,m,,,,,,,,,,,,,,,,6,1,124.2859,125.0519,m,1,0.7524,,[],[],[],[],[],[],[],125.0521,127.0519,127.052,128.4688,[],[],[],[],[],[],[],m,128.469,128.4691,0.387682575,-0.252670686,0,0,0,,0,5,5,89,1,2,word,CAPACITY,print,capacity_p.png,1.404,,,,,
,,,,31803,001,2025-11-06_10h41.04.409,HW_LDT_1,2024.2.4,MacIntel,60.24096386,,,,,,,,,,,,,,,,,,,,,128.4708,128.6685,128.6686,129.1685,,,,,,,,,,,,,,1.8187,1,,,,,,,,,,,,,,z,,,,,,,,,,,,,,,,7,0,129.1691,131.0019,z,1,1.8187,,[],[],[],[],[],[],[],131.0021,133.0018,133.0019,133.0021,[],[],[],[],[],[],[],,133.0022,133.0024,0.387682575,-0.252670686,0,0,0,,0,6,6,69,1,2,TL,resufal,cursive,resufal_c.png,,,,,,
,,,,31803,001,2025-11-06_10h41.04.409,HW_LDT_1,2024.2.4,MacIntel,60.24096386,,,,,,,,,,,,,,,,,,,,,133.0039,133.2018,133.2018,133.7017,,,,,,,,,,,,,,1.7245,1,,,,,,,,,,,,,,z,,,,,,,,,,,,,,,,8,0,133.7023,135.4353,z,1,1.7245,,[],[],[],[],[],[],[],135.4353,137.4351,137.4352,137.4354,[],[],[],[],[],[],[],,137.4355,137.4356,0.387682575,-0.252670686,0,0,0,,0,7,7,0,1,2,RL,adnicory,print,adnicory_p.png,,,,,,
,,,,31803,001,2025-11-06_10h41.04.409,HW_LDT_1,2024.2.4,MacIntel,60.24096386,,,,,,,,,,,,,,,,,,,,,137.4371,137.6351,137.6351,138.135,,,,,,,,,,,,,,1.5363,0,,,,,,,,,,,,,,z,,,,,,,,,,,,,,,,9,0,138.1356,139.6851,m,0,1.5363,,[],[],[],[],[],[],[],139.6851,141.6847,141.6848,141.685,[],[],[],[],[],[],[],,141.685,141.6852,0.387682575,-0.252670686,0,0,0,,0,8,8,65,1,2,TL,polupar,cursive,polupar_c.png,,,,,,
,,,,31803,001,2025-11-06_10h41.04.409,HW_LDT_1,2024.2.4,MacIntel,60.24096386,,,,,,,,,,,,,,,,,,,,,141.6865,141.885,141.8851,142.385,,,,,,,,,,,,,,1.1729,0,,,,,,,,,,,,,,z,,,,,,,,,,,,,,,,10,0,142.3857,143.5683,m,0,1.1729,,[],[],[],[],[],[],[],143.5684,145.5683,145.5683,145.5685,[],[],[],[],[],[],[],,145.5685,145.5688,0.387682575,-0.252670686,0,0,0,,0,9,9,68,1,2,TL,quatily,cursive,quatily_c.png,,,,,,
,,,,31803,001,2025-11-06_10h41.04.409,HW_LDT_1,2024.2.4,MacIntel,60.24096386,,,,,,,,,,,,,,,,,,,,,145.57,145.7683,145.7684,146.2683,,,,,,,,,,,,,,0.837,1,,,,,,,,,,,,,,m,,,,,,,,,,,,,,,,11,0,146.269,147.1182,m,1,0.837,,[],[],[],[],[],[],[],147.1183,149.1183,149.1184,149.1186,[],[],[],[],[],[],[],,149.1186,149.1188,0.387682575,-0.252670686,0,0,0,,0,10,10,80,1,2,word,ACADEMY,cursive,academy_c.png,,,,,,
,,,,31803,001,2025-11-06_10h41.04.409,HW_LDT_1,2024.2.4,MacIntel,60.24096386,,,,,,,,,,,,,,,,,,,,,149.1203,149.3183,149.3183,149.8183,,,,,,,,,,,,,,0.9374,1,,,,,,,,,,,,,,m,,,,,,,,,,,,,,,,12,1,149.8188,150.7683,m,1,0.9374,,[],[],[],[],[],[],[],150.7684,152.7682,152.7682,154.4348,[],[],[],[],[],[],[],z,154.4349,154.435,0.387682575,-0.252670686,0,0,0,,0,11,11,109,1,2,word,GRATEFUL,cursive,grateful_c.png,1.6541,,,,,
,,,,31803,001,2025-11-06_10h41.04.409,HW_LDT_1,2024.2.4,MacIntel,60.24096386,,,,,,,,,,,,,,,,,,,,,154.4361,154.6347,154.6348,155.1349,,,,,,,,,,,,,,1.4813,1,,,,,,,,,,,,,,z,,,,,,,,,,,,,,,,13,1,155.1354,156.6182,z,1,1.4813,,[],[],[],[],[],[],[],156.6182,158.6181,158.6182,159.8515,[],[],[],[],[],[],[],m,159.8515,159.8518,0.387682575,-0.252670686,0,0,0,,0,12,12,39,1,2,TL,aminal,print,aminal_p.png,1.2216,,,,,
,,,,31803,001,2025-11-06_10h41.04.409,HW_LDT_1,2024.2.4,MacIntel,60.24096386,,,,,,,,,,,,,,,,,,,,,159.8531,160.0515,160.0516,160.5515,,,,,,,,,,,,,,1.521,1,,,,,,,,,,,,,,z,,,,,,,,,,,,,,,,14,0,160.5521,162.0847,z,1,1.521,,[],[],[],[],[],[],[],162.0848,164.0847,164.0847,164.0851,[],[],[],[],[],[],[],,164.0851,164.0853,0.387682575,-0.252670686,0,0,0,,0,13,13,71,1,2,TL,retome,cursive,retome_c.png,,,,,,
,,,,31803,001,2025-11-06_10h41.04.409,HW_LDT_1,2024.2.4,MacIntel,60.24096386,,,,,,,,,,,,,,,,,,,,,164.0868,164.2847,164.2847,164.7847,,,,,,,,,,,,,,0.7205,1,,,,,,,,,,,,,,m,,,,,,,,,,,,,,,,15,0,164.7853,165.5181,m,1,0.7205,,[],[],[],[],[],[],[],165.5182,167.518,167.518,167.5182,[],[],[],[],[],[],[],,167.5183,167.5184,0.387682575,-0.252670686,0,0,0,,0,14,14,151,1,2,word,SPECIFIC,print,specific_p.png,,,,,,
,,,,31803,001,2025-11-06_10h41.04.409,HW_LDT_1,2024.2.4,MacIntel,60.24096386,,,,,,,,,,,,,,,,,,,,,167.5199,167.718,167.7181,168.2181,,,,,,,,,,,,,,0.9197,1,,,,,,,,,,,,,,z,,,,,,,,,,,,,,,,16,0,168.2186,169.1513,z,1,0.9197,,[],[],[],[],[],[],[],169.1513,171.1513,171.1513,171.1515,[],[],[],[],[],[],[],,171.1516,171.1517,0.387682575,-0.252670686,0,0,0,,0,15,15,32,1,2,RL,speniven,print,speniven_p.png,,,,,,
,,,,31803,001,2025-11-06_10h41.04.409,HW_LDT_1,2024.2.4,MacIntel,60.24096386,,,,,,,,,,,,,,,,,,,,,171.1532,171.3513,171.3514,171.8513,,,,,,,,,,,,,,1.2198,0,,,,,,,,,,,,,,m,,,,,,,,,,,,,,,,17,0,171.852,173.0848,z,0,1.2198,,[],[],[],[],[],[],[],173.0848,175.0845,175.0846,175.0848,[],[],[],[],[],[],[],,175.0849,175.085,0.387682575,-0.252670686,0,0,0,,0,16,16,106,1,2,word,ELABORATE,cursive,elaborate_c.png,,,,,,
,,,,31803,001,2025-11-06_10h41.04.409,HW_LDT_1,2024.2.4,MacIntel,60.24096386,,,,,,,,,,,,,,,,,,,,,175.0865,175.2843,175.2844,175.7845,,,,,,,,,,,,,,0.6815,1,,,,,,,,,,,,,,m,,,,,,,,,,,,,,,,18,0,175.7852,176.4679,m,1,0.6815,,[],[],[],[],[],[],[],176.468,178.4679,178.468,178.4682,[],[],[],[],[],[],[],,178.4684,178.4685,0.387682575,-0.252670686,0,0,0,,0,17,17,102,1,2,word,DENSITY,print,density_p.png,,,,,,
,,,,31803,001,2025-11-06_10h41.04.409,HW_LDT_1,2024.2.4,MacIntel,60.24096386,,,,,,,,,,,,,,,,,,,,,178.47,178.6679,178.6679,179.1679,,,,,,,,,,,,,,0.9198,1,,,,,,,,,,,,,,z,,,,,,,,,,,,,,,,19,1,179.1685,180.1012,z,1,0.9198,,[],[],[],[],[],[],[],180.1013,182.1012,182.1012,183.7011,[],[],[],[],[],[],[],z,183.7011,183.7013,0.387682575,-0.252670686,0,0,0,,0,18,18,28,1,2,RL,revune,cursive,revune_c.png,1.5992,,,,,
,,,,31803,001,2025-11-06_10h41.04.409,HW_LDT_1,2024.2.4,MacIntel,60.24096386,,,,,,,,,,,,,,,,,,,,,183.7022,183.9012,183.9013,184.4011,,,,,,,,,,,,,,1.5558,1,,,,,,,,,,,,,,z,,,,,,,,,,,,,,,,20,0,184.4017,185.9679,z,1,1.5558,,[],[],[],[],[],[],[],185.968,187.9678,187.9678,187.968,[],[],[],[],[],[],[],,187.9681,187.9682,0.387682575,-0.252670686,0,0,0,,0,19,19,1,1,2,RL,caleberia,print,caleberia_p.png,,,,,,
,,,,31803,001,2025-11-06_10h41.04.409,HW_LDT_1,2024.2.4,MacIntel,60.24096386,,,,,,,,,,,,,,,,,,,,,187.9698,188.1678,188.1678,188.6678,,,,,,,,,,,,,,0.8878,1,,,,,,,,,,,,,,m,,,,,,,,,,,,,,,,21,0,188.6684,189.5678,m,1,0.8878,,[],[],[],[],[],[],[],189.5678,191.5677,191.5678,191.568,[],[],[],[],[],[],[],,191.5681,191.5682,0.387682575,-0.252670686,0,0,0,,0,20,20,94,1,2,word,CLINICAL,cursive,clinical_c.png,,,,,,
,,,,31803,001,2025-11-06_10h41.04.409,HW_LDT_1,2024.2.4,MacIntel,60.24096386,,,,,,,,,,,,,,,,,,,,,191.5697,191.7677,191.7678,192.2677,,,,,,,,,,,,,,1.5082,0,,,,,,,,,,,,,,z,,,,,,,,,,,,,,,,22,0,192.2683,193.7845,m,0,1.5082,,[],[],[],[],[],[],[],193.7846,195.7843,195.7843,195.7845,[],[],[],[],[],[],[],,195.7847,195.7848,0.387682575,-0.252670686,0,0,0,,0,21,21,53,1,2,TL,edivent,cursive,edivent_c.png,,,,,,
,,,,31803,001,2025-11-06_10h41.04.409,HW_LDT_1,2024.2.4,MacIntel,60.24096386,,,,,,,,,,,,,,,,,,,,,195.7864,195.9844,195.9844,196.4842,,,,,,,,,,,,,,0.6698,1,,,,,,,,,,,,,,m,,,,,,,,,,,,,,,,23,0,196.4848,197.1677,m,1,0.6698,,[],[],[],[],[],[],[],197.1677,199.1677,199.1677,199.168,[],[],[],[],[],[],[],,199.168,199.1681,0.387682575,-0.252670686,0,0,0,,0,22,22,158,1,2,word,VELOCITY,print,velocity_p.png,,,,,,
,,,,31803,001,2025-11-06_10h41.04.409,HW_LDT_1,2024.2.4,MacIntel,60.24096386,,,,,,,,,,,,,,,,,,,,,199.1696,199.3676,199.3677,199.8676,,,,,,,,,,,,,,1.0858,1,,,,,,,,,,,,,,z,,,,,,,,,,,,,,,,24,0,199.8682,200.9677,z,1,1.0858,,[],[],[],[],[],[],[],200.9678,202.9675,202.9676,202.9679,[],[],[],[],[],[],[],,202.9679,202.968,0.387682575,-0.252670686,0,0,0,,0,23,23,73,1,2,TL,redisent,print,redisent_p.png,,,,,,
,,,,31803,001,2025-11-06_10h41.04.409,HW_LDT_1,2024.2.4,MacIntel,60.24096386,,,,,,,,,,,,,,,,,,,,,202.9694,203.1676,203.1676,203.6676,,,,,,,,,,,,,,0.9879,1,,,,,,,,,,,,,,m,,,,,,,,,,,,,,,,25,1,203.6681,204.6675,m,1,0.9879,,[],[],[],[],[],[],[],204.6676,206.6676,206.6677,208.1176,[],[],[],[],[],[],[],z,208.1177,208.1178,0.387682575,-0.252670686,0,0,0,,0,24,24,86,1,2,word,BESIDE,cursive,beside_c.png,1.4368,,,,,
,,,,31803,001,2025-11-06_10h41.04.409,HW_LDT_1,2024.2.4,MacIntel,60.24096386,,,,,,,,,,,,,,,,,,,,,208.1191,208.3175,208.3177,208.8176,,,,,,,,,,,,,,1.2533,1,,,,,,,,,,,,,,z,,,,,,,,,,,,,,,,26,0,208.8181,210.0841,z,1,1.2533,,[],[],[],[],[],[],[],210.0842,212.0841,212.0843,212.0844,[],[],[],[],[],[],[],,212.0845,212.0846,0.387682575,-0.252670686,0,0,0,,0,25,25,16,1,2,RL,losipal,print,losipal_p.png,,,,,,
,,,,31803,001,2025-11-06_10h41.04.409,HW_LDT_1,2024.2.4,MacIntel,60.24096386,,,,,,,,,,,,,,,,,,,,,212.086,212.2842,212.2842,212.7842,,,,,,,,,,,,,,1.1906,1,,,,,,,,,,,,,,z,,,,,,,,,,,,,,,,27,0,212.7848,213.9841,z,1,1.1906,,[],[],[],[],[],[],[],213.9842,215.9841,215.9842,215.9844,[],[],[],[],[],[],[],,215.9845,215.9846,0.387682575,-0.252670686,0,0,0,,0,26,26,60,1,2,TL,molibe,print,molibe_p.png,,,,,,
,,,,31803,001,2025-11-06_10h41.04.409,HW_LDT_1,2024.2.4,MacIntel,60.24096386,,,,,,,,,,,,,,,,,,,,,215.9861,216.1842,216.1842,216.6841,,,,,,,,,,,,,,2.1867,0,,,,,,,,,,,,,,m,,,,,,,,,,,,,,,,28,0,216.6846,218.884,z,0,2.1867,,[],[],[],[],[],[],[],218.8841,220.884,220.8841,220.8844,[],[],[],[],[],[],[],,220.8844,220.8845,0.387682575,-0.252670686,0,0,0,,0,27,27,138,1,2,word,REFUSAL,cursive,refusal_c.png,,,,,,
,,,,31803,001,2025-11-06_10h41.04.409,HW_LDT_1,2024.2.4,MacIntel,60.24096386,,,,,,,,,,,,,,,,,,,,,220.886,221.0841,221.0841,221.584,,,,,,,,,,,,,,2.0243,0,,,,,,,,,,,,,,m,,,,,,,,,,,,,,,,29,0,221.5845,223.6173,z,0,2.0243,,[],[],[],[],[],[],[],223.6174,225.6173,225.6173,225.6176,[],[],[],[],[],[],[],,225.6176,225.6178,0.387682575,-0.252670686,0,0,0,,0,28,28,121,1,2,word,MISTAKE,cursive,mistake_c.png,,,,,,
,,,,31803,001,2025-11-06_10h41.04.409,HW_LDT_1,2024.2.4,MacIntel,60.24096386,,,,,,,,,,,,,,,,,,,,,225.6193,225.8173,225.8174,226.3173,,,,,,,,,,,,,,1.6867,0,,,,,,,,,,,,,,z,,,,,,,,,,,,,,,,30,1,226.3179,228.0172,m,0,1.6867,,[],[],[],[],[],[],[],228.0173,230.0173,230.0173,231.2838,[],[],[],[],[],[],[],z,231.284,231.2841,0.387682575,-0.252670686,0,0,0,,0,29,29,47,1,2,TL,crinimal,cursive,crinimal_c.png,1.254,,,,,
,,,,31803,001,2025-11-06_10h41.04.409,HW_LDT_1,2024.2.4,MacIntel,60.24096386,,,,,,,,,,,,,,,,,,,,,231.2852,231.4839,231.4839,231.9839,,,,,,,,,,,,,,2.5211,1,,,,,,,,,,,,,,z,,,,,,,,,,,,,,,,31,0,231.9844,234.5172,z,1,2.5211,,[],[],[],[],[],[],[],234.5172,236.5171,236.5172,236.5174,[],[],[],[],[],[],[],,236.5175,236.5176,0.387682575,-0.252670686,0,0,0,,0,30,30,20,1,2,RL,onegator,cursive,onegator_c.png,,,,,,
,,,,31803,001,2025-11-06_10h41.04.409,HW_LDT_1,2024.2.4,MacIntel,60.24096386,,,,,,,,,,,,,,,,,,,,,236.5191,236.7172,236.7172,237.2171,,,,,,,,,,,,,,2.4709,0,,,,,,,,,,,,,,m,,,,,,,,,,,,,,,,32,0,237.2176,239.7004,z,0,2.4709,,[],[],[],[],[],[],[],239.7005,241.7005,241.7005,241.7006,[],[],[],[],[],[],[],,241.7007,241.7009,0.387682575,-0.252670686,0,0,0,,0,31,31,111,1,2,word,INDICATE,cursive,indicate_c.png,,,,,,
,,,,31803,001,2025-11-06_10h41.04.409,HW_LDT_1,2024.2.4,MacIntel,60.24096386,,,,,,,,,,,,,,,,,,,,,241.7022,241.9004,241.9005,242.4004,,,,,,,,,,,,,,3.0867,1,,,,,,,,,,,,,,z,,,,,,,,,,,,,,,,33,0,242.401,245.5004,z,1,3.0867,,[],[],[],[],[],[],[],245.5004,247.5004,247.5005,247.5006,[],[],[],[],[],[],[],,247.5007,247.5008,0.387682575,-0.252670686,0,0,0,,0,32,32,7,1,2,RL,cocewage,cursive,cocewage_c.png,,,,,,
,,,,31803,001,2025-11-06_10h41.04.409,HW_LDT_1,2024.2.4,MacIntel,60.24096386,,,,,,,,,,,,,,,,,,,,,247.5022,247.7003,247.7004,248.2003,,,,,,,,,,,,,,0.8867,1,,,,,,,,,,,,,,m,,,,,,,,,,,,,,,,34,1,248.201,249.1003,m,1,0.8867,,[],[],[],[],[],[],[],249.1005,251.1004,251.1004,252.5826,[],[],[],[],[],[],[],z,252.5827,252.5828,0.387682575,-0.252670686,0,0,0,,0,33,33,95,1,2,word,COMEDY,cursive,comedy_c.png,1.4819,,,,,
,,,,31803,001,2025-11-06_10h41.04.409,HW_LDT_1,2024.2.4,MacIntel,60.24096386,,,,,,,,,,,,,,,,,,,,,252.584,252.7826,252.7826,253.2836,,,,,,,,,,,,,,1.1366,1,,,,,,,,,,,,,,z,,,,,,,,,,,,,,,,35,0,253.2841,254.4336,z,1,1.1366,,[],[],[],[],[],[],[],254.4337,256.4337,256.4338,256.4339,[],[],[],[],[],[],[],,256.434,256.4341,0.387682575,-0.252670686,0,0,0,,0,34,34,25,1,2,RL,rabigly,print,rabigly_p.png,,,,,,
,,,,31803,001,2025-11-06_10h41.04.409,HW_LDT_1,2024.2.4,MacIntel,60.24096386,,,,,,,,,,,,,,,,,,,,,256.4357,256.6335,256.6336,257.1333,,,,,,,,,,,,,,1.7894,1,,,,,,,,,,,,,,z,,,,,,,,,,,,,,,,36,0,257.1339,258.9336,z,1,1.7894,,[],[],[],[],[],[],[],258.9338,260.9335,260.9336,260.9338,[],[],[],[],[],[],[],,260.9338,260.934,0.387682575,-0.252670686,0,0,0,,0,35,35,27,1,2,RL,repifion,cursive,repifion_c.png,,,,,,
,,,,31803,001,2025-11-06_10h41.04.409,HW_LDT_1,2024.2.4,MacIntel,60.24096386,,,,,,,,,,,,,,,,,,,,,260.9354,261.1335,261.1335,261.6335,,,,,,,,,,,,,,1.782,1,,,,,,,,,,,,,,z,,,,,,,,,,,,,,,,37,0,261.6341,263.4167,z,1,1.782,,[],[],[],[],[],[],[],263.4168,265.4169,265.4169,265.4171,[],[],[],[],[],[],[],,265.4171,265.4173,0.387682575,-0.252670686,0,0,0,,0,36,36,29,1,2,RL,samite,cursive,samite_c.png,,,,,,
,,,,31803,001,2025-11-06_10h41.04.409,HW_LDT_1,2024.2.4,MacIntel,60.24096386,,,,,,,,,,,,,,,,,,,,,265.4187,265.6168,265.6168,266.1168,,,,,,,,,,,,,,0.6577,1,,,,,,,,,,,,,,m,,,,,,,,,,,,,,,,38,1,266.1174,266.7836,m,1,0.6577,,[],[],[],[],[],[],[],266.7837,268.7835,268.7836,270.6668,[],[],[],[],[],[],[],m,270.6669,270.667,0.387682575,-0.252670686,0,0,0,,0,37,37,93,1,2,word,CEREMONY,print,ceremony_p.png,1.8751,,,,,
,,,,31803,001,2025-11-06_10h41.04.409,HW_LDT_1,2024.2.4,MacIntel,60.24096386,,,,,,,,,,,,,,,,,,,,,270.6683,270.8669,270.8669,271.3667,,,,,,,,,,,,,,1.5366,1,,,,,,,,,,,,,,z,,,,,,,,,,,,,,,,39,0,271.3674,272.9168,z,1,1.5366,,[],[],[],[],[],[],[],272.9169,274.9167,274.9168,274.9169,[],[],[],[],[],[],[],,274.9171,274.9171,0.387682575,-0.252670686,0,0,0,,0,38,38,12,1,2,RL,gralekul,cursive,gralekul_c.png,,,,,,
,,,,31803,001,2025-11-06_10h41.04.409,HW_LDT_1,2024.2.4,MacIntel,60.24096386,,,,,,,,,,,,,,,,,,,,,274.9187,275.1168,275.1169,275.6167,,,,,,,,,,,,,,0.7243,1,,,,,,,,,,,,,,m,,,,,,,,,,,,,,,,40,0,275.6172,276.3501,m,1,0.7243,,[],[],[],[],[],[],[],276.3501,278.3499,278.35,278.3502,[],[],[],[],[],[],[],,278.3503,278.3503,0.387682575,-0.252670686,0,0,0,,0,39,39,144,1,2,word,RESIDENT,print,resident_p.png,,,,,,
,,,,31803,001,2025-11-06_10h41.04.409,HW_LDT_1,2024.2.4,MacIntel,60.24096386,,,,,,,,,,,,,,,,,,,,,278.3519,278.55,278.55,279.0499,,,,,,,,,,,,,,2.1198,1,,,,,,,,,,,,,,z,,,,,,,,,,,,,,,,41,0,279.0506,281.1833,z,1,2.1198,,[],[],[],[],[],[],[],281.1835,283.1832,283.1833,283.1835,[],[],[],[],[],[],[],,283.1836,283.1837,0.387682575,-0.252670686,0,0,0,,0,40,40,5,1,2,RL,clisimal,cursive,clisimal_c.png,,,,,,
,,,,31803,001,2025-11-06_10h41.04.409,HW_LDT_1,2024.2.4,MacIntel,60.24096386,,,,,,,,,,,,,,,,,,,,,283.1854,283.3832,283.3832,283.8832,,,,,,,,,,,,,,1.6699,1,,,,,,,,,,,,,,z,,,,,,,,,,,,,,,,42,0,283.8839,285.5665,z,1,1.6699,,[],[],[],[],[],[],[],285.5667,287.5665,287.5666,287.5669,[],[],[],[],[],[],[],,287.567,287.5671,0.387682575,-0.252670686,0,0,0,,0,41,41,59,1,2,TL,miskate,cursive,miskate_c.png,,,,,,
,,,,31803,001,2025-11-06_10h41.04.409,HW_LDT_1,2024.2.4,MacIntel,60.24096386,,,,,,,,,,,,,,,,,,,,,287.5687,287.7665,287.7666,288.2665,,,,,,,,,,,,,,1.1201,1,,,,,,,,,,,,,,z,,,,,,,,,,,,,,,,43,0,288.2671,289.4,z,1,1.1201,,[],[],[],[],[],[],[],289.4,291.3998,291.3998,291.4001,[],[],[],[],[],[],[],,291.4002,291.4003,0.387682575,-0.252670686,0,0,0,,0,42,42,49,1,2,TL,dedace,print,dedace_p.png,,,,,,
,,,,31803,001,2025-11-06_10h41.04.409,HW_LDT_1,2024.2.4,MacIntel,60.24096386,,,,,,,,,,,,,,,,,,,,,291.4018,291.5999,291.5999,292.0998,,,,,,,,,,,,,,1.7198,1,,,,,,,,,,,,,,m,,,,,,,,,,,,,,,,44,0,292.1005,293.8324,m,1,1.7198,,[],[],[],[],[],[],[],293.8325,295.833,295.8331,295.8333,[],[],[],[],[],[],[],,295.8334,295.8335,0.387682575,-0.252670686,0,0,0,,0,43,43,142,1,2,word,REMOTE,cursive,remote_c.png,,,,,,
,,,,31803,001,2025-11-06_10h41.04.409,HW_LDT_1,2024.2.4,MacIntel,60.24096386,,,,,,,,,,,,,,,,,,,,,295.835,296.0331,296.0331,296.5331,,,,,,,,,,,,,,2.689,0,,,,,,,,,,,,,,m,,,,,,,,,,,,,,,,45,0,296.5337,299.2332,z,0,2.689,,[],[],[],[],[],[],[],299.2332,301.2329,301.2331,301.2332,[],[],[],[],[],[],[],,301.2333,301.2333,0.387682575,-0.252670686,0,0,0,,0,44,44,123,1,2,word,MODERATE,cursive,moderate_c.png,,,,,,
,,,,31803,001,2025-11-06_10h41.04.409,HW_LDT_1,2024.2.4,MacIntel,60.24096386,,,,,,,,,,,,,,,,,,,,,301.2348,301.4331,301.4332,301.933,,,,,,,,,,,,,,0.9362,1,,,,,,,,,,,,,,m,,,,,,,,,,,,,,,,46,0,301.9337,302.8831,m,1,0.9362,,[],[],[],[],[],[],[],302.8832,304.883,304.883,304.8832,[],[],[],[],[],[],[],,304.8833,304.8834,-0.130736243,-0.191661005,0,0,0,,0,45,45,131,1,2,word,POPULAR,cursive,popular_c.png,,,,,,
,,,,31803,001,2025-11-06_10h41.04.409,HW_LDT_1,2024.2.4,MacIntel,60.24096386,,,,,,,,,,,,,,,,,,,,,304.8847,305.0831,305.0831,305.583,,,,,,,,,,,,,,0.8646,1,,,,,,,,,,,,,,m,,,,,,,,,,,,,,,,47,1,305.5836,306.4495,m,1,0.8646,,[],[],[],[],[],[],[],306.4497,308.4497,308.4497,309.2664,[],[],[],[],[],[],[],m,309.2664,309.2665,-0.130736243,-0.191661005,0,0,0,,0,46,46,115,1,2,word,LOGICAL,print,logical_p.png,0.8079,,,,,
,,,,31803,001,2025-11-06_10h41.04.409,HW_LDT_1,2024.2.4,MacIntel,60.24096386,,,,,,,,,,,,,,,,,,,,,309.2678,309.4663,309.4664,309.9663,,,,,,,,,,,,,,2.1479,0,,,,,,,,,,,,,,m,,,,,,,,,,,,,,,,48,0,309.9669,312.1161,z,0,2.1479,,[],[],[],[],[],[],[],312.1163,314.1162,314.1164,314.1166,[],[],[],[],[],[],[],,314.1166,314.1168,-0.130736243,-0.191661005,0,0,0,,0,47,47,125,1,2,word,OPERATOR,cursive,operator_c.png,,,,,,
,,,,31803,001,2025-11-06_10h41.04.409,HW_LDT_1,2024.2.4,MacIntel,60.24096386,,,,,,,,,,,,,,,,,,,,,314.1183,314.3162,314.3162,314.8161,,,,,,,,,,,,,,0.6582,1,,,,,,,,,,,,,,m,,,,,,,,,,,,,,,,49,0,314.8167,315.4829,m,1,0.6582,,[],[],[],[],[],[],[],315.4829,317.4828,317.4828,317.483,[],[],[],[],[],[],[],,317.4831,317.4832,-0.130736243,-0.191661005,0,0,0,,0,48,48,114,1,2,word,LOCATE,print,locate_p.png,,,,,,
,,,,31803,001,2025-11-06_10h41.04.409,HW_LDT_1,2024.2.4,MacIntel,60.24096386,,,,,,,,,,,,,,,,,,,,,317.4846,317.6828,317.6828,318.1829,,,,,,,,,,,,,,0.8361,1,,,,,,,,,,,,,,z,,,,,,,,,,,,,,,,50,0,318.1835,319.0327,z,1,0.8361,,[],[],[],[],[],[],[],319.0329,321.0327,321.0327,321.033,[],[],[],[],[],[],[],,321.0331,321.0332,-0.130736243,-0.191661005,0,0,0,,0,49,49,18,1,2,RL,mesibine,print,mesibine_p.png,,,,,,
,,,,31803,001,2025-11-06_10h41.04.409,HW_LDT_1,2024.2.4,MacIntel,60.24096386,,,,,,,,,,,,,,,,,,,,,321.0348,321.2328,321.2328,321.7327,,,,,,,,,,,,,,1.1026,1,,,,,,,,,,,,,,z,,,,,,,,,,,,,,,,51,0,321.7333,322.8496,z,1,1.1026,,[],[],[],[],[],[],[],322.8496,324.8494,324.8495,324.8497,[],[],[],[],[],[],[],,324.8498,324.8498,-0.130736243,-0.191661005,0,0,0,,0,50,50,75,1,2,TL,ronamtic,print,ronamtic_p.png,,,,,,
,,,,31803,001,2025-11-06_10h41.04.409,HW_LDT_1,2024.2.4,MacIntel,60.24096386,,,,,,,,,,,,,,,,,,,,,324.8513,325.0494,325.0495,325.5494,,,,,,,,,,,,,,0.9368,1,,,,,,,,,,,,,,z,,,,,,,,,,,,,,,,52,0,325.55,326.4996,z,1,0.9368,,[],[],[],[],[],[],[],326.4997,328.4994,328.4995,328.4996,[],[],[],[],[],[],[],,328.4996,328.4997,-0.130736243,-0.191661005,0,0,0,,0,51,51,52,1,2,TL,elarobate,cursive,elarobate_c.png,,,,,,
,,,,31803,001,2025-11-06_10h41.04.409,HW_LDT_1,2024.2.4,MacIntel,60.24096386,,,,,,,,,,,,,,,,,,,,,328.5012,328.6994,328.6995,329.1995,,,,,,,,,,,,,,2.1367,0,,,,,,,,,,,,,,m,,,,,,,,,,,,,,,,53,0,329.2001,331.3494,z,0,2.1367,,[],[],[],[],[],[],[],331.3495,333.3494,333.3494,333.3496,[],[],[],[],[],[],[],,333.3497,333.3497,-0.130736243,-0.191661005,0,0,0,,0,52,52,116,1,2,word,MARGINAL,cursive,marginal_c.png,,,,,,
,,,,31803,001,2025-11-06_10h41.04.409,HW_LDT_1,2024.2.4,MacIntel,60.24096386,,,,,,,,,,,,,,,,,,,,,333.3511,333.5494,333.5494,334.0494,,,,,,,,,,,,,,2.3867,0,,,,,,,,,,,,,,m,,,,,,,,,,,,,,,,54,0,334.0499,336.4495,z,0,2.3867,,[],[],[],[],[],[],[],336.4496,338.4493,338.4493,338.4495,[],[],[],[],[],[],[],,338.4496,338.4496,-0.130736243,-0.191661005,0,0,0,,0,53,53,137,1,2,word,RAPIDLY,print,rapidly_p.png,,,,,,
,,,,31803,001,2025-11-06_10h41.04.409,HW_LDT_1,2024.2.4,MacIntel,60.24096386,,,,,,,,,,,,,,,,,,,,,338.4512,338.6492,338.6493,339.1493,,,,,,,,,,,,,,1.29,1,,,,,,,,,,,,,,z,,,,,,,,,,,,,,,,55,1,339.1498,340.4493,z,1,1.29,,[],[],[],[],[],[],[],340.4494,342.4493,342.4493,345.9493,[],[],[],[],[],[],[],m,345.9494,345.9495,-0.130736243,-0.191661005,0,0,0,,0,54,54,15,1,2,RL,linedal,print,linedal_p.png,3.4873,,,,,
,,,,31803,001,2025-11-06_10h41.04.409,HW_LDT_1,2024.2.4,MacIntel,60.24096386,,,,,,,,,,,,,,,,,,,,,345.9507,346.1491,346.1492,346.6492,,,,,,,,,,,,,,1.1868,0,,,,,,,,,,,,,,m,,,,,,,,,,,,,,,,56,0,346.6497,347.8492,z,0,1.1868,,[],[],[],[],[],[],[],347.8492,349.8491,349.8491,349.8493,[],[],[],[],[],[],[],,349.8493,349.8495,-0.130736243,-0.191661005,0,0,0,,0,55,55,117,1,2,word,MARINE,cursive,marine_c.png,,,,,,
,,,,31803,001,2025-11-06_10h41.04.409,HW_LDT_1,2024.2.4,MacIntel,60.24096386,,,,,,,,,,,,,,,,,,,,,349.8508,350.0491,350.0492,350.5491,,,,,,,,,,,,,,0.8398,1,,,,,,,,,,,,,,m,,,,,,,,,,,,,,,,57,0,350.5497,351.3991,m,1,0.8398,,[],[],[],[],[],[],[],351.3992,353.399,353.3991,353.3993,[],[],[],[],[],[],[],,353.3993,353.3994,-0.130736243,-0.191661005,0,0,0,,0,56,56,152,1,2,word,SPECIMEN,print,specimen_p.png,,,,,,
,,,,31803,001,2025-11-06_10h41.04.409,HW_LDT_1,2024.2.4,MacIntel,60.24096386,,,,,,,,,,,,,,,,,,,,,353.4009,353.5991,353.5991,354.0991,,,,,,,,,,,,,,1.057,1,,,,,,,,,,,,,,z,,,,,,,,,,,,,,,,58,0,354.0997,355.1657,z,1,1.057,,[],[],[],[],[],[],[],355.1659,357.1656,357.1657,357.1659,[],[],[],[],[],[],[],,357.1659,357.1661,-0.130736243,-0.191661005,0,0,0,,0,57,57,31,1,2,RL,spetisic,print,spetisic_p.png,,,,,,
,,,,31803,001,2025-11-06_10h41.04.409,HW_LDT_1,2024.2.4,MacIntel,60.24096386,,,,,,,,,,,,,,,,,,,,,357.1676,357.3657,357.3657,357.8656,,,,,,,,,,,,,,0.7489,1,,,,,,,,,,,,,,m,,,,,,,,,,,,,,,,59,0,357.8661,358.6158,m,1,0.7489,,[],[],[],[],[],[],[],358.616,360.6156,360.6157,360.6158,[],[],[],[],[],[],[],,360.6158,360.616,-0.130736243,-0.191661005,0,0,0,,0,58,58,101,1,2,word,DELICATE,print,delicate_p.png,,,,,,
,,,,31803,001,2025-11-06_10h41.04.409,HW_LDT_1,2024.2.4,MacIntel,60.24096386,,,,,,,,,,,,,,,,,,,,,360.6176,360.8156,360.8156,361.3153,,,,,,,,,,,,,,1.2203,1,,,,,,,,,,,,,,m,,,,,,,,,,,,,,,,60,0,361.316,362.549,m,1,1.2203,,[],[],[],[],[],[],[],362.5491,364.5489,364.5489,364.5491,[],[],[],[],[],[],[],,364.5491,364.5493,-0.130736243,-0.191661005,0,0,0,,0,59,59,155,1,2,word,STRATEGY,cursive,strategy_c.png,,,,,,
,,,,31803,001,2025-11-06_10h41.04.409,HW_LDT_1,2024.2.4,MacIntel,60.24096386,,,,,,,,,,,,,,,,,,,,,364.5507,364.7489,364.749,365.2488,,,,,,,,,,,,,,1.1368,0,,,,,,,,,,,,,,z,,,,,,,,,,,,,,,,61,0,365.2494,366.3989,m,0,1.1368,,[],[],[],[],[],[],[],366.399,368.3989,368.3989,368.3991,[],[],[],[],[],[],[],,368.3991,368.3993,-0.130736243,-0.191661005,0,0,0,,0,60,60,37,1,2,TL,adacemy,cursive,adacemy_c.png,,,,,,
,,,,31803,001,2025-11-06_10h41.04.409,HW_LDT_1,2024.2.4,MacIntel,60.24096386,,,,,,,,,,,,,,,,,,,,,368.4009,368.5988,368.5988,369.0989,,,,,,,,,,,,,,0.7922,1,,,,,,,,,,,,,,z,,,,,,,,,,,,,,,,62,0,369.0993,369.8989,z,1,0.7922,,[],[],[],[],[],[],[],369.8989,371.8988,371.8989,371.899,[],[],[],[],[],[],[],,371.8991,371.8992,-0.130736243,-0.191661005,0,0,0,,0,61,61,55,1,2,TL,lotace,print,lotace_p.png,,,,,,
,,,,31803,001,2025-11-06_10h41.04.409,HW_LDT_1,2024.2.4,MacIntel,60.24096386,,,,,,,,,,,,,,,,,,,,,371.9007,372.0988,372.0988,372.5984,,,,,,,,,,,,,,0.7719,1,,,,,,,,,,,,,,m,,,,,,,,,,,,,,,,63,0,372.5986,373.3822,m,1,0.7719,,[],[],[],[],[],[],[],373.3822,375.3821,375.3821,375.3823,[],[],[],[],[],[],[],,375.3823,375.3824,-0.130736243,-0.191661005,0,0,0,,0,62,62,118,1,2,word,MEDICINE,print,medicine_p.png,,,,,,
,,,,31803,001,2025-11-06_10h41.04.409,HW_LDT_1,2024.2.4,MacIntel,60.24096386,,,,,,,,,,,,,,,,,,,,,375.384,375.582,375.582,376.082,,,,,,,,,,,,,,1.4869,1,,,,,,,,,,,,,,z,,,,,,,,,,,,,,,,64,0,376.0827,377.5821,z,1,1.4869,,[],[],[],[],[],[],[],377.5821,379.582,379.5821,379.5823,[],[],[],[],[],[],[],,379.5823,379.5825,-0.130736243,-0.191661005,0,0,0,,0,63,63,3,1,2,RL,capefory,print,capefory_p.png,,,,,,
,,,,31803,001,2025-11-06_10h41.04.409,HW_LDT_1,2024.2.4,MacIntel,60.24096386,,,,,,,,,,,,,,,,,,,,,379.5839,379.782,379.782,380.282,,,,,,,,,,,,,,0.8319,1,,,,,,,,,,,,,,z,,,,,,,,,,,,,,,,65,0,380.2827,381.1154,z,1,0.8319,,[],[],[],[],[],[],[],381.1155,383.1153,383.1154,383.1156,[],[],[],[],[],[],[],,383.1156,383.1158,-0.130736243,-0.191661005,0,0,0,,0,64,64,43,1,2,TL,carema,print,carema_p.png,,,,,,
,,,,31803,001,2025-11-06_10h41.04.409,HW_LDT_1,2024.2.4,MacIntel,60.24096386,,,,,,,,,,,,,,,,,,,,,383.1172,383.3154,383.3154,383.8153,,,,,,,,,,,,,,1.0034,1,,,,,,,,,,,,,,m,,,,,,,,,,,,,,,,66,0,383.8158,384.832,m,1,1.0034,,[],[],[],[],[],[],[],384.8321,386.8319,386.832,386.8322,[],[],[],[],[],[],[],,386.8323,386.8324,-0.130736243,-0.191661005,0,0,0,,0,65,65,88,1,2,word,CAMERA,print,camera_p.png,,,,,,
,,,,31803,001,2025-11-06_10h41.04.409,HW_LDT_1,2024.2.4,MacIntel,60.24096386,,,,,,,,,,,,,,,,,,,,,386.8339,387.032,387.032,387.532,,,,,,,,,,,,,,1.0909,1,,,,,,,,,,,,,,m,,,,,,,,,,,,,,,,67,1,387.5325,388.6318,m,1,1.0909,,[],[],[],[],[],[],[],388.6319,390.6319,390.632,392.0319,[],[],[],[],[],[],[],z,392.0319,392.0321,-0.130736243,-0.191661005,0,0,0,,0,66,66,134,1,2,word,QUALIFY,cursive,qualify_c.png,1.3873,,,,,
,,,,31803,001,2025-11-06_10h41.04.409,HW_LDT_1,2024.2.4,MacIntel,60.24096386,,,,,,,,,,,,,,,,,,,,,392.0331,392.2313,392.2313,392.7318,,,,,,,,,,,,,,1.6034,1,,,,,,,,,,,,,,m,,,,,,,,,,,,,,,,68,0,392.7324,394.3486,m,1,1.6034,,[],[],[],[],[],[],[],394.3487,396.3485,396.3485,396.3488,[],[],[],[],[],[],[],,396.3488,396.349,-0.130736243,-0.191661005,0,0,0,,0,67,67,108,1,2,word,FORTUNE,print,fortune_p.png,,,,,,
,,,,31803,001,2025-11-06_10h41.04.409,HW_LDT_1,2024.2.4,MacIntel,60.24096386,,,,,,,,,,,,,,,,,,,,,396.3504,396.5485,396.5485,397.0485,,,,,,,,,,,,,,0.7819,1,,,,,,,,,,,,,,z,,,,,,,,,,,,,,,,69,0,397.0491,397.8318,z,1,0.7819,,[],[],[],[],[],[],[],397.8319,399.8318,399.8318,399.832,[],[],[],[],[],[],[],,399.832,399.8321,-0.130736243,-0.191661005,0,0,0,,0,68,68,35,1,2,RL,vesofity,print,vesofity_p.png,,,,,,
,,,,31803,001,2025-11-06_10h41.04.409,HW_LDT_1,2024.2.4,MacIntel,60.24096386,,,,,,,,,,,,,,,,,,,,,399.8335,400.0318,400.0318,400.5318,,,,,,,,,,,,,,0.6729,1,,,,,,,,,,,,,,z,,,,,,,,,,,,,,,,70,0,400.5323,401.2152,z,1,0.6729,,[],[],[],[],[],[],[],401.2152,403.2147,403.2148,403.2148,[],[],[],[],[],[],[],,403.2149,403.2149,-0.130736243,-0.191661005,0,0,0,,0,69,69,11,1,2,RL,formuke,print,formuke_p.png,,,,,,
,,,,31803,001,2025-11-06_10h41.04.409,HW_LDT_1,2024.2.4,MacIntel,60.24096386,,,,,,,,,,,,,,,,,,,,,403.2157,403.415,403.415,403.9141,,,,,,,,,,,,,,0.6545,1,,,,,,,,,,,,,,m,,,,,,,,,,,,,,,,71,0,403.9146,404.5817,m,1,0.6545,,[],[],[],[],[],[],[],404.5817,406.5817,406.5818,406.582,[],[],[],[],[],[],[],,406.5821,406.5821,-0.130736243,-0.191661005,0,0,0,,0,70,70,143,1,2,word,REMOVAL,print,removal_p.png,,,,,,
,,,,31803,001,2025-11-06_10h41.04.409,HW_LDT_1,2024.2.4,MacIntel,60.24096386,,,,,,,,,,,,,,,,,,,,,406.5834,406.7816,406.7817,407.2817,,,,,,,,,,,,,,0.6146,1,,,,,,,,,,,,,,m,,,,,,,,,,,,,,,,72,0,407.2822,407.8983,m,1,0.6146,,[],[],[],[],[],[],[],407.8983,409.8983,409.8984,409.8985,[],[],[],[],[],[],[],,409.8986,409.8986,-0.130736243,-0.191661005,0,0,0,,0,71,71,122,1,2,word,MOBILE,print,mobile_p.png,,,,,,
,,,,31803,001,2025-11-06_10h41.04.409,HW_LDT_1,2024.2.4,MacIntel,60.24096386,,,,,,,,,,,,,,,,,,,,,409.9,410.0983,410.0983,410.5983,,,,,,,,,,,,,,1.1865,1,,,,,,,,,,,,,,z,,,,,,,,,,,,,,,,73,0,410.5989,411.7983,z,1,1.1865,,[],[],[],[],[],[],[],411.7983,413.7982,413.7983,413.7984,[],[],[],[],[],[],[],,413.7985,413.7986,-0.130736243,-0.191661005,0,0,0,,0,72,72,70,1,2,TL,retalive,print,retalive_p.png,,,,,,
,,,,31803,001,2025-11-06_10h41.04.409,HW_LDT_1,2024.2.4,MacIntel,60.24096386,,,,,,,,,,,,,,,,,,,,,413.7999,413.9982,413.9983,414.4982,,,,,,,,,,,,,,0.8364,1,,,,,,,,,,,,,,z,,,,,,,,,,,,,,,,74,0,414.4988,415.3483,z,1,0.8364,,[],[],[],[],[],[],[],415.3483,417.3482,417.3483,417.3485,[],[],[],[],[],[],[],,417.3485,417.3486,-0.130736243,-0.191661005,0,0,0,,0,73,73,63,1,2,TL,orinigal,print,orinigal_p.png,,,,,,
,,,,31803,001,2025-11-06_10h41.04.409,HW_LDT_1,2024.2.4,MacIntel,60.24096386,,,,,,,,,,,,,,,,,,,,,417.3499,417.5482,417.5482,418.0482,,,,,,,,,,,,,,1.6722,1,,,,,,,,,,,,,,z,,,,,,,,,,,,,,,,75,0,418.0488,419.7315,z,1,1.6722,,[],[],[],[],[],[],[],419.7316,421.7315,421.7315,421.7318,[],[],[],[],[],[],[],,421.7318,421.7319,-0.130736243,-0.191661005,0,0,0,,0,74,74,14,1,2,RL,insibate,cursive,insibate_c.png,,,,,,
,,,,31803,001,2025-11-06_10h41.04.409,HW_LDT_1,2024.2.4,MacIntel,60.24096386,,,,,,,,,,,,,,,,,,,,,421.7331,421.9315,421.9316,422.4315,,,,,,,,,,,,,,0.8572,1,,,,,,,,,,,,,,m,,,,,,,,,,,,,,,,76,1,422.4321,423.2981,m,1,0.8572,,[],[],[],[],[],[],[],423.2983,425.2981,425.2981,426.2306,[],[],[],[],[],[],[],z,426.2306,426.2306,-0.130736243,-0.191661005,0,0,0,,0,75,75,132,1,2,word,PROPOSAL,cursive,proposal_c.png,0.9246,,,,,
,,,,31803,001,2025-11-06_10h41.04.409,HW_LDT_1,2024.2.4,MacIntel,60.24096386,,,,,,,,,,,,,,,,,,,,,426.2316,426.4315,426.4315,426.9314,,,,,,,,,,,,,,1.7985,0,,,,,,,,,,,,,,m,,,,,,,,,,,,,,,,77,0,426.932,428.7314,z,0,1.7985,,[],[],[],[],[],[],[],428.7315,430.7313,430.7314,430.7316,[],[],[],[],[],[],[],,430.7316,430.7318,-0.130736243,-0.191661005,0,0,0,,0,76,76,103,1,2,word,DISPUTE,cursive,dispute_c.png,,,,,,
,,,,31803,001,2025-11-06_10h41.04.409,HW_LDT_1,2024.2.4,MacIntel,60.24096386,,,,,,,,,,,,,,,,,,,,,430.7331,430.9314,430.9315,431.4314,,,,,,,,,,,,,,1.17,1,,,,,,,,,,,,,,m,,,,,,,,,,,,,,,,78,0,431.4319,432.6148,m,1,1.17,,[],[],[],[],[],[],[],432.6149,434.6146,434.6147,434.6149,[],[],[],[],[],[],[],,434.6149,434.6151,-0.130736243,-0.191661005,0,0,0,,0,77,77,141,1,2,word,RELIGION,cursive,religion_c.png,,,,,,
,,,,31803,001,2025-11-06_10h41.04.409,HW_LDT_1,2024.2.4,MacIntel,60.24096386,,,,,,,,,,,,,,,,,,,,,434.6166,434.8147,434.8147,435.3146,,,,,,,,,,,,,,1.2407,1,,,,,,,,,,,,,,m,,,,,,,,,,,,,,,,79,1,435.3151,436.5647,m,1,1.2407,,[],[],[],[],[],[],[],436.5648,438.5646,438.5646,440.4479,[],[],[],[],[],[],[],z,440.448,440.4481,-0.130736243,-0.191661005,0,0,0,,0,78,78,110,1,2,word,HERITAGE,print,heritage_p.png,1.8708,,,,,
,,,,31803,001,2025-11-06_10h41.04.409,HW_LDT_1,2024.2.4,MacIntel,60.24096386,,,,,,,,,,,,,,,,,,,,,440.4491,440.6479,440.648,441.1479,,,,,,,,,,,,,,1.42,0,,,,,,,,,,,,,,m,,,,,,,,,,,,,,,,80,1,441.1485,442.5813,z,0,1.42,,[],[],[],[],[],[],[],442.5813,444.5812,444.5813,445.898,[],[],[],[],[],[],[],z,445.898,511.8811,-0.130736243,-0.191661005,0,0,0,space,0,79,79,146,1,2,word,RETIRE,cursive,retire_c.png,1.3049,,65.9524,,,
,,,,31803,001,2025-11-06_10h41.04.409,HW_LDT_1,2024.2.4,MacIntel,60.24096386,,,,,,,,,,,,,,,,,,,,,511.8826,512.0806,512.0807,512.5805,,,,,,,,,,,,,,1.1374,0,,,,,,,,,,,,,,z,,,,,,,,,,,,,,,,81,0,512.5812,513.7305,m,0,1.1374,,[],[],[],[],[],[],[],513.7305,515.7305,515.7306,515.7308,[],[],[],[],[],[],[],,515.7309,515.731,-0.130736243,-0.191661005,0,0,0,,0,80,80,56,1,2,TL,marnigal,cursive,marnigal_c.png,,,,,,
,,,,31803,001,2025-11-06_10h41.04.409,HW_LDT_1,2024.2.4,MacIntel,60.24096386,,,,,,,,,,,,,,,,,,,,,515.7326,515.9304,515.9304,516.4301,,,,,,,,,,,,,,0.9371,1,,,,,,,,,,,,,,z,,,,,,,,,,,,,,,,82,0,516.4307,517.3805,z,1,0.9371,,[],[],[],[],[],[],[],517.3805,519.3803,519.3804,519.3805,[],[],[],[],[],[],[],,519.3806,519.3807,-0.130736243,-0.191661005,0,0,0,,0,81,81,23,1,2,RL,procogal,cursive,procogal_c.png,,,,,,
,,,,31803,001,2025-11-06_10h41.04.409,HW_LDT_1,2024.2.4,MacIntel,60.24096386,,,,,,,,,,,,,,,,,,,,,519.3823,519.5803,519.5804,520.0804,,,,,,,,,,,,,,0.7548,1,,,,,,,,,,,,,,m,,,,,,,,,,,,,,,,83,0,520.0809,520.847,m,1,0.7548,,[],[],[],[],[],[],[],520.847,522.8469,522.847,522.8472,[],[],[],[],[],[],[],,522.8472,522.8473,-0.130736243,-0.191661005,0,0,0,,0,82,82,127,1,2,word,ORIGINAL,print,original_p.png,,,,,,
,,,,31803,001,2025-11-06_10h41.04.409,HW_LDT_1,2024.2.4,MacIntel,60.24096386,,,,,,,,,,,,,,,,,,,,,522.8488,523.047,523.047,523.5469,,,,,,,,,,,,,,1.3747,1,,,,,,,,,,,,,,z,,,,,,,,,,,,,,,,84,0,523.5475,524.9303,z,1,1.3747,,[],[],[],[],[],[],[],524.9305,526.9302,526.9302,526.9305,[],[],[],[],[],[],[],,526.9306,526.9307,-0.130736243,-0.191661005,0,0,0,,0,83,83,62,1,2,TL,opmital,cursive,opmital_c.png,,,,,,
,,,,31803,001,2025-11-06_10h41.04.409,HW_LDT_1,2024.2.4,MacIntel,60.24096386,,,,,,,,,,,,,,,,,,,,,526.9323,527.1302,527.1303,527.6302,,,,,,,,,,,,,,0.8241,1,,,,,,,,,,,,,,m,,,,,,,,,,,,,,,,85,0,527.6308,528.4635,m,1,0.8241,,[],[],[],[],[],[],[],528.4636,530.4636,530.4636,530.4639,[],[],[],[],[],[],[],,530.4639,530.464,-0.130736243,-0.191661005,0,0,0,,0,84,84,133,1,2,word,PROVIDE,cursive,provide_c.png,,,,,,
,,,,31803,001,2025-11-06_10h41.04.409,HW_LDT_1,2024.2.4,MacIntel,60.24096386,,,,,,,,,,,,,,,,,,,,,530.4654,530.6635,530.6636,531.1636,,,,,,,,,,,,,,0.9198,1,,,,,,,,,,,,,,z,,,,,,,,,,,,,,,,86,0,531.1641,532.0968,z,1,0.9198,,[],[],[],[],[],[],[],532.0968,534.0968,534.0969,534.0971,[],[],[],[],[],[],[],,534.0971,534.0972,-0.130736243,-0.191661005,0,0,0,,0,85,85,6,1,2,RL,conbicer,print,conbicer_p.png,,,,,,
,,,,31803,001,2025-11-06_10h41.04.409,HW_LDT_1,2024.2.4,MacIntel,60.24096386,,,,,,,,,,,,,,,,,,,,,534.0987,534.2969,534.297,534.7968,,,,,,,,,,,,,,0.7033,1,,,,,,,,,,,,,,m,,,,,,,,,,,,,,,,87,0,534.7974,535.5135,m,1,0.7033,,[],[],[],[],[],[],[],535.5136,537.5134,537.5134,537.5136,[],[],[],[],[],[],[],,537.5136,537.5137,-0.130736243,-0.191661005,0,0,0,,0,86,86,154,1,2,word,STORAGE,print,storage_p.png,,,,,,
,,,,31803,001,2025-11-06_10h41.04.409,HW_LDT_1,2024.2.4,MacIntel,60.24096386,,,,,,,,,,,,,,,,,,,,,537.515,537.7135,537.7136,538.2134,,,,,,,,,,,,,,1.1368,1,,,,,,,,,,,,,,m,,,,,,,,,,,,,,,,88,1,538.214,539.3635,m,1,1.1368,,[],[],[],[],[],[],[],539.3636,541.3634,541.3634,542.7297,[],[],[],[],[],[],[],z,542.7298,542.73,-0.130736243,-0.191661005,0,0,0,,0,87,87,135,1,2,word,QUALITY,cursive,quality_c.png,1.3541,,,,,
,,,,31803,001,2025-11-06_10h41.04.409,HW_LDT_1,2024.2.4,MacIntel,60.24096386,,,,,,,,,,,,,,,,,,,,,542.7314,542.93,542.9301,543.43,,,,,,,,,,,,,,1.2199,1,,,,,,,,,,,,,,z,,,,,,,,,,,,,,,,89,0,543.4306,544.6634,z,1,1.2199,,[],[],[],[],[],[],[],544.6635,546.6633,546.6634,546.6637,[],[],[],[],[],[],[],,546.6638,546.6638,-0.130736243,-0.191661005,0,0,0,,0,88,88,21,1,2,RL,pamest,print,pamest_p.png,,,,,,
,,,,31803,001,2025-11-06_10h41.04.409,HW_LDT_1,2024.2.4,MacIntel,60.24096386,,,,,,,,,,,,,,,,,,,,,546.6653,546.8633,546.8633,547.3633,,,,,,,,,,,,,,1.0812,1,,,,,,,,,,,,,,z,,,,,,,,,,,,,,,,90,0,547.3639,548.4464,z,1,1.0812,,[],[],[],[],[],[],[],548.4465,550.4466,550.4467,550.4469,[],[],[],[],[],[],[],,550.447,550.4471,-0.130736243,-0.191661005,0,0,0,,0,89,89,64,1,2,TL,paficic,print,paficic_p.png,,,,,,
,,,,31803,001,2025-11-06_10h41.04.409,HW_LDT_1,2024.2.4,MacIntel,60.24096386,,,,,,,,,,,,,,,,,,,,,550.4485,550.6467,550.6467,551.1467,,,,,,,,,,,,,,0.7058,1,,,,,,,,,,,,,,m,,,,,,,,,,,,,,,,91,0,551.1474,551.863,m,1,0.7058,,[],[],[],[],[],[],[],551.8631,553.8631,553.8632,553.8634,[],[],[],[],[],[],[],,553.8634,553.8636,-0.130736243,-0.191661005,0,0,0,,0,90,90,159,1,2,word,VETERAN,print,veteran_p.png,,,,,,
,,,,31803,001,2025-11-06_10h41.04.409,HW_LDT_1,2024.2.4,MacIntel,60.24096386,,,,,,,,,,,,,,,,,,,,,553.8649,554.0632,554.0632,554.5632,,,,,,,,,,,,,,1.3535,1,,,,,,,,,,,,,,z,,,,,,,,,,,,,,,,92,0,554.5637,555.9299,z,1,1.3535,,[],[],[],[],[],[],[],555.93,557.9298,557.9299,557.9301,[],[],[],[],[],[],[],,557.9301,557.9301,-0.130736243,-0.191661005,0,0,0,,0,91,91,66,1,2,TL,prodive,cursive,prodive_c.png,,,,,,
,,,,31803,001,2025-11-06_10h41.04.409,HW_LDT_1,2024.2.4,MacIntel,60.24096386,,,,,,,,,,,,,,,,,,,,,557.9316,558.1298,558.1299,558.6299,,,,,,,,,,,,,,0.7862,1,,,,,,,,,,,,,,m,,,,,,,,,,,,,,,,93,0,558.6304,559.4298,m,1,0.7862,,[],[],[],[],[],[],[],559.4299,561.4298,561.4299,561.4301,[],[],[],[],[],[],[],,561.4301,561.4303,-0.130736243,-0.191661005,0,0,0,,0,92,92,129,1,2,word,PARENT,print,parent_p.png,,,,,,
,,,,31803,001,2025-11-06_10h41.04.409,HW_LDT_1,2024.2.4,MacIntel,60.24096386,,,,,,,,,,,,,,,,,,,,,561.4317,561.6298,561.6299,562.1298,,,,,,,,,,,,,,1.3316,1,,,,,,,,,,,,,,z,,,,,,,,,,,,,,,,94,0,562.1304,563.4631,z,1,1.3316,,[],[],[],[],[],[],[],563.4632,565.463,565.4631,565.4633,[],[],[],[],[],[],[],,565.4634,565.4636,-0.130736243,-0.191661005,0,0,0,,0,93,93,40,1,2,TL,bevoled,cursive,bevoled_c.png,,,,,,
,,,,31803,001,2025-11-06_10h41.04.409,HW_LDT_1,2024.2.4,MacIntel,60.24096386,,,,,,,,,,,,,,,,,,,,,565.465,565.663,565.6631,566.1631,,,,,,,,,,,,,,0.6868,1,,,,,,,,,,,,,,m,,,,,,,,,,,,,,,,95,0,566.1637,566.863,m,1,0.6868,,[],[],[],[],[],[],[],566.8631,568.8631,568.8632,568.8634,[],[],[],[],[],[],[],,568.8635,568.8636,-0.130736243,-0.191661005,0,0,0,,0,94,94,83,1,2,word,ANIMAL,print,animal_p.png,,,,,,
,,,,31803,001,2025-11-06_10h41.04.409,HW_LDT_1,2024.2.4,MacIntel,60.24096386,,,,,,,,,,,,,,,,,,,,,568.8651,569.063,569.0631,569.563,,,,,,,,,,,,,,0.9231,1,,,,,,,,,,,,,,m,,,,,,,,,,,,,,,,96,0,569.5636,570.4963,m,1,0.9231,,[],[],[],[],[],[],[],570.4965,572.4964,572.4964,572.4966,[],[],[],[],[],[],[],,572.4967,572.4969,-0.130736243,-0.191661005,0,0,0,,0,95,95,97,1,2,word,COVERAGE,cursive,coverage_c.png,,,,,,
,,,,31803,001,2025-11-06_10h41.04.409,HW_LDT_1,2024.2.4,MacIntel,60.24096386,,,,,,,,,,,,,,,,,,,,,572.4983,572.6963,572.6964,573.1963,,,,,,,,,,,,,,1.6049,1,,,,,,,,,,,,,,z,,,,,,,,,,,,,,,,97,0,573.1969,574.8129,z,1,1.6049,,[],[],[],[],[],[],[],574.813,576.8128,576.8129,576.8131,[],[],[],[],[],[],[],,576.8131,576.8132,-0.130736243,-0.191661005,0,0,0,,0,96,96,45,1,2,TL,carnidal,cursive,carnidal_c.png,,,,,,
,,,,31803,001,2025-11-06_10h41.04.409,HW_LDT_1,2024.2.4,MacIntel,60.24096386,,,,,,,,,,,,,,,,,,,,,576.8146,577.0129,577.0129,577.5128,,,,,,,,,,,,,,0.8547,1,,,,,,,,,,,,,,z,,,,,,,,,,,,,,,,98,0,577.5132,578.3795,z,1,0.8547,,[],[],[],[],[],[],[],578.3796,580.3795,580.3796,580.3798,[],[],[],[],[],[],[],,580.3799,580.38,-0.130736243,-0.191661005,0,0,0,,0,97,97,77,1,2,TL,sloten,print,sloten_p.png,,,,,,
,,,,31803,001,2025-11-06_10h41.04.409,HW_LDT_1,2024.2.4,MacIntel,60.24096386,,,,,,,,,,,,,,,,,,,,,580.3814,580.5795,580.5796,581.0796,,,,,,,,,,,,,,1.632,1,,,,,,,,,,,,,,z,,,,,,,,,,,,,,,,99,0,581.0802,582.7129,z,1,1.632,,[],[],[],[],[],[],[],582.7129,584.7129,584.713,584.7131,[],[],[],[],[],[],[],,584.7132,584.7133,-0.130736243,-0.191661005,0,0,0,,0,98,98,10,1,2,RL,disluge,cursive,disluge_c.png,,,,,,
,,,,31803,001,2025-11-06_10h41.04.409,HW_LDT_1,2024.2.4,MacIntel,60.24096386,,,,,,,,,,,,,,,,,,,,,584.7148,584.9129,584.913,585.4128,,,,,,,,,,,,,,1.0055,1,,,,,,,,,,,,,,z,,,,,,,,,,,,,,,,100,0,585.4132,586.4295,z,1,1.0055,,[],[],[],[],[],[],[],586.4296,588.429,588.4291,588.4292,[],[],[],[],[],[],[],,588.4293,588.4294,-0.130736243,-0.191661005,0,0,0,,0,99,99,30,1,2,RL,selamor,print,selamor_p.png,,,,,,
,,,,31803,001,2025-11-06_10h41.04.409,HW_LDT_1,2024.2.4,MacIntel,60.24096386,,,,,,,,,,,,,,,,,,,,,588.4308,588.6286,588.6286,589.1295,,,,,,,,,,,,,,1.0372,1,,,,,,,,,,,,,,m,,,,,,,,,,,,,,,,101,0,589.1301,590.1793,m,1,1.0372,,[],[],[],[],[],[],[],590.1794,592.1794,592.1795,592.1796,[],[],[],[],[],[],[],,592.1798,592.1798,-0.130736243,-0.191661005,0,0,0,,0,100,100,98,1,2,word,CRIMINAL,cursive,criminal_c.png,,,,,,
,,,,31803,001,2025-11-06_10h41.04.409,HW_LDT_1,2024.2.4,MacIntel,60.24096386,,,,,,,,,,,,,,,,,,,,,592.1813,592.3795,592.3795,592.8794,,,,,,,,,,,,,,0.7401,1,,,,,,,,,,,,,,m,,,,,,,,,,,,,,,,102,0,592.88,593.6295,m,1,0.7401,,[],[],[],[],[],[],[],593.6296,595.6294,595.6294,595.6296,[],[],[],[],[],[],[],,595.6297,595.6297,-0.130736243,-0.191661005,0,0,0,,0,101,101,149,1,2,word,SENATOR,print,senator_p.png,,,,,,
,,,,31803,001,2025-11-06_10h41.04.409,HW_LDT_1,2024.2.4,MacIntel,60.24096386,,,,,,,,,,,,,,,,,,,,,595.6313,595.8294,595.8294,596.3294,,,,,,,,,,,,,,1.2866,1,,,,,,,,,,,,,,m,,,,,,,,,,,,,,,,103,0,596.33,597.6293,m,1,1.2866,,[],[],[],[],[],[],[],597.6293,599.6294,599.6295,599.6296,[],[],[],[],[],[],[],,599.6297,599.6298,-0.130736243,-0.191661005,0,0,0,,0,102,102,145,1,2,word,RESUME,cursive,resume_c.png,,,,,,
,,,,31803,001,2025-11-06_10h41.04.409,HW_LDT_1,2024.2.4,MacIntel,60.24096386,,,,,,,,,,,,,,,,,,,,,599.6312,599.8294,599.8294,600.3293,,,,,,,,,,,,,,3.5038,1,,,,,,,,,,,,,,z,,,,,,,,,,,,,,,,104,0,600.3299,603.8459,z,1,3.5038,,[],[],[],[],[],[],[],603.8459,605.8459,605.846,605.8462,[],[],[],[],[],[],[],,605.8462,605.8463,-0.130736243,-0.191661005,0,0,0,,0,103,103,74,1,2,TL,rerite,cursive,rerite_c.png,,,,,,
,,,,31803,001,2025-11-06_10h41.04.409,HW_LDT_1,2024.2.4,MacIntel,60.24096386,,,,,,,,,,,,,,,,,,,,,605.8478,606.0459,606.046,606.5458,,,,,,,,,,,,,,0.8203,1,,,,,,,,,,,,,,m,,,,,,,,,,,,,,,,105,0,606.5464,607.3793,m,1,0.8203,,[],[],[],[],[],[],[],607.3793,609.3793,609.3794,609.3796,[],[],[],[],[],[],[],,609.3796,609.3798,-0.130736243,-0.191661005,0,0,0,,0,104,104,96,1,2,word,CONSIDER,print,consider_p.png,,,,,,
,,,,31803,001,2025-11-06_10h41.04.409,HW_LDT_1,2024.2.4,MacIntel,60.24096386,,,,,,,,,,,,,,,,,,,,,609.3813,609.5792,609.5793,610.0792,,,,,,,,,,,,,,0.7914,1,,,,,,,,,,,,,,z,,,,,,,,,,,,,,,,106,0,610.0798,610.8793,z,1,0.7914,,[],[],[],[],[],[],[],610.8793,612.8792,612.8792,612.8793,[],[],[],[],[],[],[],,612.8794,612.8796,-0.130736243,-0.191661005,0,0,0,,0,105,105,36,1,2,RL,vecelan,print,vecelan_p.png,,,,,,
,,,,31803,001,2025-11-06_10h41.04.409,HW_LDT_1,2024.2.4,MacIntel,60.24096386,,,,,,,,,,,,,,,,,,,,,612.8811,613.0792,613.0792,613.5792,,,,,,,,,,,,,,0.8366,1,,,,,,,,,,,,,,m,,,,,,,,,,,,,,,,107,0,613.5799,614.4292,m,1,0.8366,,[],[],[],[],[],[],[],614.4292,616.4291,616.4291,616.4295,[],[],[],[],[],[],[],,616.4295,616.4296,-0.130736243,-0.191661005,0,0,0,,0,106,106,147,1,2,word,ROMANTIC,print,romantic_p.png,,,,,,
,,,,31803,001,2025-11-06_10h41.04.409,HW_LDT_1,2024.2.4,MacIntel,60.24096386,,,,,,,,,,,,,,,,,,,,,616.4309,616.6285,616.6285,617.1291,,,,,,,,,,,,,,0.7697,1,,,,,,,,,,,,,,z,,,,,,,,,,,,,,,,108,0,617.1298,617.9124,z,1,0.7697,,[],[],[],[],[],[],[],617.9125,619.9124,619.9125,619.9127,[],[],[],[],[],[],[],,619.9128,619.9128,-0.130736243,-0.191661005,0,0,0,,0,107,107,4,1,2,RL,cenesony,print,cenesony_p.png,,,,,,
,,,,31803,001,2025-11-06_10h41.04.409,HW_LDT_1,2024.2.4,MacIntel,60.24096386,,,,,,,,,,,,,,,,,,,,,619.9142,620.1124,620.1124,620.6123,,,,,,,,,,,,,,1.5296,1,,,,,,,,,,,,,,z,,,,,,,,,,,,,,,,109,0,620.6129,622.1456,z,1,1.5296,,[],[],[],[],[],[],[],622.1456,624.1456,624.1458,624.1461,[],[],[],[],[],[],[],,624.1461,624.1462,-0.130736243,-0.191661005,0,0,0,,0,108,108,34,1,2,RL,trilude,cursive,trilude_c.png,,,,,,
,,,,31803,001,2025-11-06_10h41.04.409,HW_LDT_1,2024.2.4,MacIntel,60.24096386,,,,,,,,,,,,,,,,,,,,,624.1477,624.3458,624.3458,624.8457,,,,,,,,,,,,,,0.832,1,,,,,,,,,,,,,,m,,,,,,,,,,,,,,,,110,0,624.8464,625.6791,m,1,0.832,,[],[],[],[],[],[],[],625.6792,627.679,627.6791,627.6793,[],[],[],[],[],[],[],,627.6793,627.6794,-0.130736243,-0.191661005,0,0,0,,0,109,109,92,1,2,word,CATEGORY,print,category_p.png,,,,,,
,,,,31803,001,2025-11-06_10h41.04.409,HW_LDT_1,2024.2.4,MacIntel,60.24096386,,,,,,,,,,,,,,,,,,,,,627.6809,627.879,627.8791,628.379,,,,,,,,,,,,,,1.7234,1,,,,,,,,,,,,,,z,,,,,,,,,,,,,,,,111,0,628.3797,630.1123,z,1,1.7234,,[],[],[],[],[],[],[],630.1124,632.1123,632.1123,632.1125,[],[],[],[],[],[],[],,632.1126,632.1128,-0.130736243,-0.191661005,0,0,0,,0,110,110,42,1,2,TL,bedise,cursive,bedise_c.png,,,,,,
,,,,31803,001,2025-11-06_10h41.04.409,HW_LDT_1,2024.2.4,MacIntel,60.24096386,,,,,,,,,,,,,,,,,,,,,632.1143,632.3122,632.3123,632.8123,,,,,,,,,,,,,,1.6554,0,,,,,,,,,,,,,,m,,,,,,,,,,,,,,,,112,0,632.8128,634.4789,z,0,1.6554,,[],[],[],[],[],[],[],634.479,636.479,636.479,636.4791,[],[],[],[],[],[],[],,636.4791,636.4794,-0.130736243,-0.191661005,0,0,0,,0,111,111,126,1,2,word,OPTIMAL,cursive,optimal_c.png,,,,,,
,,,,31803,001,2025-11-06_10h41.04.409,HW_LDT_1,2024.2.4,MacIntel,60.24096386,,,,,,,,,,,,,,,,,,,,,636.4809,636.6789,636.679,637.1789,,,,,,,,,,,,,,0.953,1,,,,,,,,,,,,,,m,,,,,,,,,,,,,,,,113,0,637.1795,638.1456,m,1,0.953,,[],[],[],[],[],[],[],638.1458,640.1455,640.1455,640.1457,[],[],[],[],[],[],[],,640.1458,640.1459,-0.130736243,-0.191661005,0,0,0,,0,112,112,99,1,2,word,DEBATE,print,debate_p.png,,,,,,
,,,,31803,001,2025-11-06_10h41.04.409,HW_LDT_1,2024.2.4,MacIntel,60.24096386,,,,,,,,,,,,,,,,,,,,,640.1475,640.3451,640.3451,640.8454,,,,,,,,,,,,,,2.7196,1,,,,,,,,,,,,,,m,,,,,,,,,,,,,,,,114,0,640.846,643.5787,m,1,2.7196,,[],[],[],[],[],[],[],643.5788,645.5787,645.5788,645.579,[],[],[],[],[],[],[],,645.5791,645.5792,-0.130736243,-0.191661005,0,0,0,,0,113,113,157,1,2,word,VALIDITY,print,validity_p.png,,,,,,
,,,,31803,001,2025-11-06_10h41.04.409,HW_LDT_1,2024.2.4,MacIntel,60.24096386,,,,,,,,,,,,,,,,,,,,,645.5806,645.7788,645.7788,646.2788,,,,,,,,,,,,,,0.973,1,,,,,,,,,,,,,,z,,,,,,,,,,,,,,,,115,0,646.2794,647.262,z,1,0.973,,[],[],[],[],[],[],[],647.2622,649.2621,649.2622,649.2624,[],[],[],[],[],[],[],,649.2624,649.2626,-0.130736243,-0.191661005,0,0,0,,0,114,114,78,1,2,TL,stogare,print,stogare_p.png,,,,,,
,,,,31803,001,2025-11-06_10h41.04.409,HW_LDT_1,2024.2.4,MacIntel,60.24096386,,,,,,,,,,,,,,,,,,,,,649.2641,649.462,649.4621,649.9621,,,,,,,,,,,,,,0.97,1,,,,,,,,,,,,,,z,,,,,,,,,,,,,,,,116,0,649.9626,650.9453,z,1,0.97,,[],[],[],[],[],[],[],650.9454,652.9453,652.9454,652.9455,[],[],[],[],[],[],[],,652.9456,652.9458,-0.130736243,-0.191661005,0,0,0,,0,115,115,2,1,2,RL,casagity,print,casagity_p.png,,,,,,
,,,,31803,001,2025-11-06_10h41.04.409,HW_LDT_1,2024.2.4,MacIntel,60.24096386,,,,,,,,,,,,,,,,,,,,,652.9477,653.1454,653.1455,653.6448,,,,,,,,,,,,,,0.8873,1,,,,,,,,,,,,,,m,,,,,,,,,,,,,,,,117,0,653.6454,654.5454,m,1,0.8873,,[],[],[],[],[],[],[],654.5454,656.5453,656.5454,656.5455,[],[],[],[],[],[],[],,656.5456,656.5457,-0.130736243,-0.191661005,0,0,0,,0,116,116,156,1,2,word,TRIBUTE,cursive,tribute_c.png,,,,,,
,,,,31803,001,2025-11-06_10h41.04.409,HW_LDT_1,2024.2.4,MacIntel,60.24096386,,,,,,,,,,,,,,,,,,,,,656.547,656.7452,656.7453,657.2452,,,,,,,,,,,,,,1.1531,1,,,,,,,,,,,,,,m,,,,,,,,,,,,,,,,118,1,657.2458,658.412,m,1,1.1531,,[],[],[],[],[],[],[],658.412,660.412,660.412,663.8786,[],[],[],[],[],[],[],m,663.8787,663.8788,-0.130736243,-0.191661005,0,0,0,,0,117,117,87,1,2,word,CAFETERIA,print,cafeteria_p.png,3.4541,,,,,
,,,,31803,001,2025-11-06_10h41.04.409,HW_LDT_1,2024.2.4,MacIntel,60.24096386,,,,,,,,,,,,,,,,,,,,,663.8799,664.0785,664.0786,664.5785,,,,,,,,,,,,,,1.6546,1,,,,,,,,,,,,,,z,,,,,,,,,,,,,,,,119,0,664.5791,666.2453,z,1,1.6546,,[],[],[],[],[],[],[],666.2454,668.2451,668.2451,668.2453,[],[],[],[],[],[],[],,668.2454,668.2454,-0.130736243,-0.191661005,0,0,0,,0,118,118,17,1,2,RL,macise,cursive,macise_c.png,,,,,,
,,,,31803,001,2025-11-06_10h41.04.409,HW_LDT_1,2024.2.4,MacIntel,60.24096386,,,,,,,,,,,,,,,,,,,,,668.2467,668.4451,668.4452,668.9451,,,,,,,,,,,,,,0.9535,1,,,,,,,,,,,,,,z,,,,,,,,,,,,,,,,120,0,668.9458,669.9117,z,1,0.9535,,[],[],[],[],[],[],[],669.9118,671.9117,671.9118,671.912,[],[],[],[],[],[],[],,671.9121,671.9121,-0.130736243,-0.191661005,0,0,0,,0,119,119,9,1,2,RL,denficy,print,denficy_p.png,,,,,,
,,,,31803,001,2025-11-06_10h41.04.409,HW_LDT_1,2024.2.4,MacIntel,60.24096386,,,,,,,,,,,,,,,,,,,,,671.9135,672.1118,672.1119,672.6117,,,,,,,,,,,,,,0.7695,1,,,,,,,,,,,,,,m,,,,,,,,,,,,,,,,121,0,672.6123,673.3951,m,1,0.7695,,[],[],[],[],[],[],[],673.3951,675.3952,675.3952,675.3954,[],[],[],[],[],[],[],,675.3955,675.3955,-0.130736243,-0.191661005,0,0,0,,0,120,120,112,1,2,word,LIBERAL,print,liberal_p.png,,,,,,
,,,,31803,001,2025-11-06_10h41.04.409,HW_LDT_1,2024.2.4,MacIntel,60.24096386,,,,,,,,,,,,,,,,,,,,,675.3969,675.595,675.595,676.0951,,,,,,,,,,,,,,1.0698,1,,,,,,,,,,,,,,z,,,,,,,,,,,,,,,,122,0,676.0957,677.1784,z,1,1.0698,,[],[],[],[],[],[],[],677.1784,679.1783,679.1784,679.1785,[],[],[],[],[],[],[],,679.1786,679.1787,-0.130736243,-0.191661005,0,0,0,,0,121,121,19,1,2,RL,monebate,cursive,monebate_c.png,,,,,,
,,,,31803,001,2025-11-06_10h41.04.409,HW_LDT_1,2024.2.4,MacIntel,60.24096386,,,,,,,,,,,,,,,,,,,,,679.18,679.3782,679.3783,679.8783,,,,,,,,,,,,,,2.0867,1,,,,,,,,,,,,,,z,,,,,,,,,,,,,,,,123,0,679.8789,681.9782,z,1,2.0867,,[],[],[],[],[],[],[],681.9783,683.9783,683.9783,683.9786,[],[],[],[],[],[],[],,683.9786,683.9787,-0.130736243,-0.191661005,0,0,0,,0,122,122,58,1,2,TL,mitilary,cursive,mitilary_c.png,,,,,,
,,,,31803,001,2025-11-06_10h41.04.409,HW_LDT_1,2024.2.4,MacIntel,60.24096386,,,,,,,,,,,,,,,,,,,,,683.9802,684.178,684.1781,684.6782,,,,,,,,,,,,,,1.6203,1,,,,,,,,,,,,,,z,,,,,,,,,,,,,,,,124,1,684.6788,686.3115,z,1,1.6203,,[],[],[],[],[],[],[],686.3116,688.3107,688.3107,689.5616,[],[],[],[],[],[],[],z,689.5616,689.5618,-0.130736243,-0.191661005,0,0,0,,0,123,123,33,1,2,RL,strapely,cursive,strapely_c.png,1.2436,,,,,
,,,,31803,001,2025-11-06_10h41.04.409,HW_LDT_1,2024.2.4,MacIntel,60.24096386,,,,,,,,,,,,,,,,,,,,,689.5629,689.7615,689.7616,690.2615,,,,,,,,,,,,,,1.4793,1,,,,,,,,,,,,,,z,,,,,,,,,,,,,,,,125,0,690.262,691.7448,z,1,1.4793,,[],[],[],[],[],[],[],691.7449,693.7448,693.7448,693.745,[],[],[],[],[],[],[],,693.7451,693.7452,-0.130736243,-0.191661005,0,0,0,,0,124,124,67,1,2,TL,quafily,cursive,quafily_c.png,,,,,,
,,,,31803,001,2025-11-06_10h41.04.409,HW_LDT_1,2024.2.4,MacIntel,60.24096386,,,,,,,,,,,,,,,,,,,,,693.7467,693.9461,693.9462,694.4448,,,,,,,,,,,,,,1.9038,1,,,,,,,,,,,,,,m,,,,,,,,,,,,,,,,126,0,694.4453,696.3615,m,1,1.9038,,[],[],[],[],[],[],[],696.3615,698.3613,698.3615,698.3617,[],[],[],[],[],[],[],,698.3617,698.3617,-0.130736243,-0.191661005,0,0,0,,0,125,125,148,1,2,word,SALINE,cursive,saline_c.png,,,,,,
,,,,31803,001,2025-11-06_10h41.04.409,HW_LDT_1,2024.2.4,MacIntel,60.24096386,,,,,,,,,,,,,,,,,,,,,698.3632,698.5614,698.5614,699.0614,,,,,,,,,,,,,,1.1374,1,,,,,,,,,,,,,,z,,,,,,,,,,,,,,,,127,1,699.0619,700.2115,z,1,1.1374,,[],[],[],[],[],[],[],700.2115,702.2115,702.2115,703.8613,[],[],[],[],[],[],[],m,703.8614,703.8616,-0.130736243,-0.191661005,0,0,0,,0,126,126,48,1,2,TL,detabe,print,detabe_p.png,1.6372,,,,,
,,,,31803,001,2025-11-06_10h41.04.409,HW_LDT_1,2024.2.4,MacIntel,60.24096386,,,,,,,,,,,,,,,,,,,,,703.8629,704.0613,704.0613,704.5613,,,,,,,,,,,,,,1.3866,1,,,,,,,,,,,,,,z,,,,,,,,,,,,,,,,128,0,704.5618,705.9613,z,1,1.3866,,[],[],[],[],[],[],[],705.9614,707.9614,707.9614,707.9616,[],[],[],[],[],[],[],,707.9617,707.9617,-0.130736243,-0.191661005,0,0,0,,0,127,127,79,1,2,TL,vadility,print,vadility_p.png,,,,,,
,,,,31803,001,2025-11-06_10h41.04.409,HW_LDT_1,2024.2.4,MacIntel,60.24096386,,,,,,,,,,,,,,,,,,,,,707.9632,708.1613,708.1613,708.6613,,,,,,,,,,,,,,1.5584,1,,,,,,,,,,,,,,z,,,,,,,,,,,,,,,,129,0,708.6619,710.228,z,1,1.5584,,[],[],[],[],[],[],[],710.2281,712.2279,712.228,712.2282,[],[],[],[],[],[],[],,712.2282,712.2283,-0.130736243,-0.191661005,0,0,0,,0,128,128,38,1,2,TL,atameur,cursive,atameur_c.png,,,,,,
,,,,31803,001,2025-11-06_10h41.04.409,HW_LDT_1,2024.2.4,MacIntel,60.24096386,,,,,,,,,,,,,,,,,,,,,712.2297,712.428,712.428,712.9279,,,,,,,,,,,,,,0.8544,1,,,,,,,,,,,,,,m,,,,,,,,,,,,,,,,130,0,712.9285,713.7946,m,1,0.8544,,[],[],[],[],[],[],[],713.7947,715.7945,715.7946,715.7948,[],[],[],[],[],[],[],,715.7948,715.7949,-0.130736243,-0.191661005,0,0,0,,0,129,129,100,1,2,word,DECADE,print,decade_p.png,,,,,,
,,,,31803,001,2025-11-06_10h41.04.409,HW_LDT_1,2024.2.4,MacIntel,60.24096386,,,,,,,,,,,,,,,,,,,,,715.7963,715.9945,715.9946,716.4945,,,,,,,,,,,,,,1.0218,1,,,,,,,,,,,,,,m,,,,,,,,,,,,,,,,131,0,716.4951,717.5279,m,1,1.0218,,[],[],[],[],[],[],[],717.528,719.5279,719.5279,719.5281,[],[],[],[],[],[],[],,719.5282,719.5283,-0.130736243,-0.191661005,0,0,0,,0,130,130,139,1,2,word,REGULAR,cursive,regular_c.png,,,,,,
,,,,31803,001,2025-11-06_10h41.04.409,HW_LDT_1,2024.2.4,MacIntel,60.24096386,,,,,,,,,,,,,,,,,,,,,719.5297,719.7279,719.7279,720.2278,,,,,,,,,,,,,,1.92,1,,,,,,,,,,,,,,z,,,,,,,,,,,,,,,,132,0,720.2283,722.1611,z,1,1.92,,[],[],[],[],[],[],[],722.1612,724.1611,724.1611,724.1613,[],[],[],[],[],[],[],,724.1614,724.1614,-0.130736243,-0.191661005,0,0,0,,0,131,131,44,1,2,TL,catipal,cursive,catipal_c.png,,,,,,
,,,,31803,001,2025-11-06_10h41.04.409,HW_LDT_1,2024.2.4,MacIntel,60.24096386,,,,,,,,,,,,,,,,,,,,,724.1628,724.361,724.3612,724.8611,,,,,,,,,,,,,,1.6562,1,,,,,,,,,,,,,,z,,,,,,,,,,,,,,,,133,0,724.8617,726.5278,z,1,1.6562,,[],[],[],[],[],[],[],726.5278,728.5277,728.5277,728.5279,[],[],[],[],[],[],[],,728.528,728.5281,-0.130736243,-0.191661005,0,0,0,,0,132,132,50,1,2,TL,donimant,print,donimant_p.png,,,,,,
,,,,31803,001,2025-11-06_10h41.04.409,HW_LDT_1,2024.2.4,MacIntel,60.24096386,,,,,,,,,,,,,,,,,,,,,728.5296,728.7277,728.7277,729.2278,,,,,,,,,,,,,,0.8535,1,,,,,,,,,,,,,,z,,,,,,,,,,,,,,,,134,0,729.2284,730.0944,z,1,0.8535,,[],[],[],[],[],[],[],730.0945,732.0944,732.0945,732.0947,[],[],[],[],[],[],[],,732.0948,732.0949,-0.130736243,-0.191661005,0,0,0,,0,133,133,13,1,2,RL,helicage,print,helicage_p.png,,,,,,
,,,,31803,001,2025-11-06_10h41.04.409,HW_LDT_1,2024.2.4,MacIntel,60.24096386,,,,,,,,,,,,,,,,,,,,,732.0963,732.2943,732.2944,732.7943,,,,,,,,,,,,,,1.3197,0,,,,,,,,,,,,,,m,,,,,,,,,,,,,,,,135,0,732.7949,734.1276,z,0,1.3197,,[],[],[],[],[],[],[],734.1277,736.1276,736.1277,736.1279,[],[],[],[],[],[],[],,736.1279,736.128,-0.130736243,-0.191661005,0,0,0,,0,134,134,120,1,2,word,MILITARY,cursive,military_c.png,,,,,,
,,,,31803,001,2025-11-06_10h41.04.409,HW_LDT_1,2024.2.4,MacIntel,60.24096386,,,,,,,,,,,,,,,,,,,,,736.1294,736.3276,736.3276,736.8276,,,,,,,,,,,,,,1.2706,1,,,,,,,,,,,,,,m,,,,,,,,,,,,,,,,136,0,736.8282,738.1111,m,1,1.2706,,[],[],[],[],[],[],[],738.1111,740.1109,740.1109,740.1111,[],[],[],[],[],[],[],,740.1112,740.1113,-0.130736243,-0.191661005,0,0,0,,0,135,135,107,1,2,word,EVIDENT,cursive,evident_c.png,,,,,,
,,,,31803,001,2025-11-06_10h41.04.409,HW_LDT_1,2024.2.4,MacIntel,60.24096386,,,,,,,,,,,,,,,,,,,,,740.1127,740.3109,740.311,740.8109,,,,,,,,,,,,,,2.8698,0,,,,,,,,,,,,,,m,,,,,,,,,,,,,,,,137,0,740.8114,743.6942,z,0,2.8698,,[],[],[],[],[],[],[],743.6943,745.6941,745.6942,745.6945,[],[],[],[],[],[],[],,745.6945,745.6947,-0.130736243,-0.191661005,0,0,0,,0,136,136,85,1,2,word,BENEFIT,cursive,benefit_c.png,,,,,,
,,,,31803,001,2025-11-06_10h41.04.409,HW_LDT_1,2024.2.4,MacIntel,60.24096386,,,,,,,,,,,,,,,,,,,,,745.6962,745.8941,745.8942,746.3942,,,,,,,,,,,,,,0.6363,1,,,,,,,,,,,,,,m,,,,,,,,,,,,,,,,138,0,746.3948,747.0442,m,1,0.6363,,[],[],[],[],[],[],[],747.0443,749.0441,749.0442,749.0443,[],[],[],[],[],[],[],,749.0444,749.0445,-0.130736243,-0.191661005,0,0,0,,0,137,137,130,1,2,word,POLICY,print,policy_p.png,,,,,,
,,,,31803,001,2025-11-06_10h41.04.409,HW_LDT_1,2024.2.4,MacIntel,60.24096386,,,,,,,,,,,,,,,,,,,,,749.0458,749.2441,749.2441,749.7441,,,,,,,,,,,,,,0.6694,1,,,,,,,,,,,,,,m,,,,,,,,,,,,,,,,139,0,749.7447,750.4268,m,1,0.6694,,[],[],[],[],[],[],[],750.4269,752.4274,752.4274,752.4277,[],[],[],[],[],[],[],,752.4278,752.428,-0.130736243,-0.191661005,0,0,0,,0,138,138,81,1,2,word,ADVISORY,print,advisory_p.png,,,,,,
,,,,31803,001,2025-11-06_10h41.04.409,HW_LDT_1,2024.2.4,MacIntel,60.24096386,,,,,,,,,,,,,,,,,,,,,752.4294,752.6274,752.6275,753.1273,,,,,,,,,,,,,,1.3034,1,,,,,,,,,,,,,,z,,,,,,,,,,,,,,,,140,0,753.1279,754.4441,z,1,1.3034,,[],[],[],[],[],[],[],754.4442,756.444,756.4441,756.4443,[],[],[],[],[],[],[],,756.4444,756.4445,-0.130736243,-0.191661005,0,0,0,,0,139,139,24,1,2,RL,rasibal,cursive,rasibal_c.png,,,,,,
,,,,31803,001,2025-11-06_10h41.04.409,HW_LDT_1,2024.2.4,MacIntel,60.24096386,,,,,,,,,,,,,,,,,,,,,756.4459,756.644,756.6441,757.1441,,,,,,,,,,,,,,0.8701,1,,,,,,,,,,,,,,m,,,,,,,,,,,,,,,,141,0,757.1446,758.0273,m,1,0.8701,,[],[],[],[],[],[],[],758.0274,760.0273,760.0274,760.0276,[],[],[],[],[],[],[],,760.0277,760.0278,-0.130736243,-0.191661005,0,0,0,,0,140,140,82,1,2,word,AMATEUR,cursive,amateur_c.png,,,,,,
,,,,31803,001,2025-11-06_10h41.04.409,HW_LDT_1,2024.2.4,MacIntel,60.24096386,,,,,,,,,,,,,,,,,,,,,760.0291,760.2273,760.2274,760.7273,,,,,,,,,,,,,,0.9584,1,,,,,,,,,,,,,,z,,,,,,,,,,,,,,,,142,1,760.7279,761.694,z,1,0.9584,,[],[],[],[],[],[],[],761.694,763.694,763.694,765.2939,[],[],[],[],[],[],[],m,765.294,765.294,-0.130736243,-0.191661005,0,0,0,,0,141,141,72,1,2,TL,revomal,print,revomal_p.png,1.5907,,,,,
,,,,31803,001,2025-11-06_10h41.04.409,HW_LDT_1,2024.2.4,MacIntel,60.24096386,,,,,,,,,,,,,,,,,,,,,765.2953,765.4938,765.4939,765.9939,,,,,,,,,,,,,,0.9315,0,,,,,,,,,,,,,,z,,,,,,,,,,,,,,,,143,0,765.9945,766.9272,m,0,0.9315,,[],[],[],[],[],[],[],766.9273,768.9271,768.9272,768.9274,[],[],[],[],[],[],[],,768.9275,768.9276,-0.130736243,-0.191661005,0,0,0,,0,142,142,22,1,2,RL,posity,print,posity_p.png,,,,,,
,,,,31803,001,2025-11-06_10h41.04.409,HW_LDT_1,2024.2.4,MacIntel,60.24096386,,,,,,,,,,,,,,,,,,,,,768.929,769.1271,769.1272,769.6272,,,,,,,,,,,,,,0.7365,1,,,,,,,,,,,,,,m,,,,,,,,,,,,,,,,144,0,769.6279,770.3773,m,1,0.7365,,[],[],[],[],[],[],[],770.3773,772.3771,772.3772,772.3774,[],[],[],[],[],[],[],,772.3774,772.3775,-0.130736243,-0.191661005,0,0,0,,0,143,143,128,1,2,word,PACIFIC,print,pacific_p.png,,,,,,
,,,,31803,001,2025-11-06_10h41.04.409,HW_LDT_1,2024.2.4,MacIntel,60.24096386,,,,,,,,,,,,,,,,,,,,,772.3788,772.5772,772.5772,773.0772,,,,,,,,,,,,,,1.7226,1,,,,,,,,,,,,,,m,,,,,,,,,,,,,,,,145,1,773.0777,774.8104,m,1,1.7226,,[],[],[],[],[],[],[],774.8105,776.8104,776.8105,778.4104,[],[],[],[],[],[],[],z,778.4105,778.4105,-0.130736243,-0.191661005,0,0,0,,0,144,144,150,1,2,word,SENTIMENT,cursive,sentiment_c.png,1.5876,,,,,
,,,,31803,001,2025-11-06_10h41.04.409,HW_LDT_1,2024.2.4,MacIntel,60.24096386,,,,,,,,,,,,,,,,,,,,,778.4115,778.6104,778.6104,779.1104,,,,,,,,,,,,,,1.6822,1,,,,,,,,,,,,,,z,,,,,,,,,,,,,,,,146,1,779.111,780.794,z,1,1.6822,,[],[],[],[],[],[],[],780.7941,782.7937,782.7938,784.0103,[],[],[],[],[],[],[],z,784.0104,784.0105,-0.130736243,-0.191661005,0,0,0,,0,145,145,46,1,2,TL,codemy,cursive,codemy_c.png,1.2039,,,,,
,,,,31803,001,2025-11-06_10h41.04.409,HW_LDT_1,2024.2.4,MacIntel,60.24096386,,,,,,,,,,,,,,,,,,,,,784.0118,784.2103,784.2103,784.7103,,,,,,,,,,,,,,1.0376,1,,,,,,,,,,,,,,z,,,,,,,,,,,,,,,,147,0,784.7109,785.7604,z,1,1.0376,,[],[],[],[],[],[],[],785.7605,787.7602,787.7603,787.7605,[],[],[],[],[],[],[],,787.7606,787.7608,-0.130736243,-0.191661005,0,0,0,,0,146,146,26,1,2,RL,retupar,cursive,retupar_c.png,,,,,,
,,,,31803,001,2025-11-06_10h41.04.409,HW_LDT_1,2024.2.4,MacIntel,60.24096386,,,,,,,,,,,,,,,,,,,,,787.7622,787.9603,787.9604,788.4603,,,,,,,,,,,,,,2.1405,1,,,,,,,,,,,,,,m,,,,,,,,,,,,,,,,148,0,788.4608,790.6093,m,1,2.1405,,[],[],[],[],[],[],[],790.6094,792.6102,792.6103,792.6105,[],[],[],[],[],[],[],,792.6105,792.6106,-0.130736243,-0.191661005,0,0,0,,0,147,147,91,1,2,word,CARDINAL,cursive,cardinal_c.png,,,,,,
,,,,31803,001,2025-11-06_10h41.04.409,HW_LDT_1,2024.2.4,MacIntel,60.24096386,,,,,,,,,,,,,,,,,,,,,792.6118,792.8102,792.8102,793.3102,,,,,,,,,,,,,,1.0694,1,,,,,,,,,,,,,,m,,,,,,,,,,,,,,,,149,0,793.3107,794.3936,m,1,1.0694,,[],[],[],[],[],[],[],794.3936,796.3936,796.3936,796.3938,[],[],[],[],[],[],[],,796.3938,796.3939,-0.130736243,-0.191661005,0,0,0,,0,148,148,136,1,2,word,RADICAL,cursive,radical_c.png,,,,,,
,,,,31803,001,2025-11-06_10h41.04.409,HW_LDT_1,2024.2.4,MacIntel,60.24096386,,,,,,,,,,,,,,,,,,,,,796.3954,796.5935,796.5935,797.0936,,,,,,,,,,,,,,0.6205,1,,,,,,,,,,,,,,m,,,,,,,,,,,,,,,,150,0,797.0942,797.727,m,1,0.6205,,[],[],[],[],[],[],[],797.7271,799.7267,799.7268,799.727,[],[],[],[],[],[],[],,799.7271,799.7273,-0.130736243,-0.191661005,0,0,0,,0,149,149,153,1,2,word,STOLEN,print,stolen_p.png,,,,,,
,,,,31803,001,2025-11-06_10h41.04.409,HW_LDT_1,2024.2.4,MacIntel,60.24096386,,,,,,,,,,,,,,,,,,,,,799.7287,799.9269,799.9269,800.4269,,,,,,,,,,,,,,0.8749,1,,,,,,,,,,,,,,z,,,,,,,,,,,,,,,,151,0,800.4274,801.3101,z,1,0.8749,,[],[],[],[],[],[],[],801.3102,803.3101,803.3102,803.3104,[],[],[],[],[],[],[],,803.3105,803.3107,-0.130736243,-0.191661005,0,0,0,,0,150,150,54,1,2,TL,liretal,cursive,liretal_c.png,,,,,,
,,,,31803,001,2025-11-06_10h41.04.409,HW_LDT_1,2024.2.4,MacIntel,60.24096386,,,,,,,,,,,,,,,,,,,,,803.3122,803.5101,803.5101,804.0101,,,,,,,,,,,,,,1.947,0,,,,,,,,,,,,,,z,,,,,,,,,,,,,,,,152,0,804.0107,805.9598,m,0,1.947,,[],[],[],[],[],[],[],805.9599,807.96,807.96,807.9603,[],[],[],[],[],[],[],,807.9603,807.9604,-0.130736243,-0.191661005,0,0,0,,0,151,151,61,1,2,TL,nuremical,cursive,nuremical_c.png,,,,,,
,,,,31803,001,2025-11-06_10h41.04.409,HW_LDT_1,2024.2.4,MacIntel,60.24096386,,,,,,,,,,,,,,,,,,,,,807.9618,808.1601,808.1601,808.66,,,,,,,,,,,,,,0.9982,0,,,,,,,,,,,,,,m,,,,,,,,,,,,,,,,153,0,808.6605,809.6599,z,0,0.9982,,[],[],[],[],[],[],[],809.66,811.6599,811.66,811.6602,[],[],[],[],[],[],[],,811.6603,811.6604,-0.130736243,-0.191661005,0,0,0,,0,152,152,90,1,2,word,CAPITAL,cursive,capital_c.png,,,,,,
,,,,31803,001,2025-11-06_10h41.04.409,HW_LDT_1,2024.2.4,MacIntel,60.24096386,,,,,,,,,,,,,,,,,,,,,811.6618,811.86,811.86,812.36,,,,,,,,,,,,,,2.1135,0,,,,,,,,,,,,,,m,,,,,,,,,,,,,,,,154,0,812.3606,814.4764,z,0,2.1135,,[],[],[],[],[],[],[],814.4765,816.4766,816.4767,816.4768,[],[],[],[],[],[],[],,816.477,816.4771,-0.130736243,-0.191661005,0,0,0,,0,153,153,105,1,2,word,EDITOR,cursive,editor_c.png,,,,,,
,,,,31803,001,2025-11-06_10h41.04.409,HW_LDT_1,2024.2.4,MacIntel,60.24096386,,,,,,,,,,,,,,,,,,,,,816.4784,816.6766,816.6767,817.1767,,,,,,,,,,,,,,1.3365,0,,,,,,,,,,,,,,z,,,,,,,,,,,,,,,,155,0,817.1773,818.5262,m,0,1.3365,,[],[],[],[],[],[],[],818.5264,820.5266,820.5266,820.5268,[],[],[],[],[],[],[],,820.5269,820.5269,-0.130736243,-0.191661005,0,0,0,,0,154,154,41,1,2,TL,befenit,cursive,befenit_c.png,,,,,,
,,,,31803,001,2025-11-06_10h41.04.409,HW_LDT_1,2024.2.4,MacIntel,60.24096386,,,,,,,,,,,,,,,,,,,,,820.5284,820.7266,820.7266,821.2266,,,,,,,,,,,,,,1.8867,1,,,,,,,,,,,,,,m,,,,,,,,,,,,,,,,156,0,821.2273,823.1266,m,1,1.8867,,[],[],[],[],[],[],[],823.1268,825.1266,825.1266,825.1268,[],[],[],[],[],[],[],,825.1268,825.1269,-0.130736243,-0.191661005,0,0,0,,0,155,155,119,1,2,word,MEMORY,cursive,memory_c.png,,,,,,
,,,,31803,001,2025-11-06_10h41.04.409,HW_LDT_1,2024.2.4,MacIntel,60.24096386,,,,,,,,,,,,,,,,,,,,,825.1284,825.3265,825.3266,825.8265,,,,,,,,,,,,,,1.587,1,,,,,,,,,,,,,,z,,,,,,,,,,,,,,,,157,0,825.8271,827.4266,z,1,1.587,,[],[],[],[],[],[],[],827.4267,829.4265,829.4265,829.4267,[],[],[],[],[],[],[],,829.4268,829.4268,-0.130736243,-0.191661005,0,0,0,,0,156,156,51,1,2,TL,etidor,cursive,etidor_c.png,,,,,,
,,,,31803,001,2025-11-06_10h41.04.409,HW_LDT_1,2024.2.4,MacIntel,60.24096386,,,,,,,,,,,,,,,,,,,,,829.4282,829.6265,829.6265,830.1264,,,,,,,,,,,,,,0.9534,1,,,,,,,,,,,,,,m,,,,,,,,,,,,,,,,158,1,830.127,831.0932,m,1,0.9534,,[],[],[],[],[],[],[],831.0932,833.0932,833.0932,834.3095,[],[],[],[],[],[],[],z,834.3097,834.3098,-0.130736243,-0.191661005,0,0,0,,0,157,157,84,1,2,word,BELOVED,cursive,beloved_c.png,1.215,,,,,
,,,,31803,001,2025-11-06_10h41.04.409,HW_LDT_1,2024.2.4,MacIntel,60.24096386,,,,,,,,,,,,,,,,,,,,,834.3108,834.5097,834.5097,835.0096,,,,,,,,,,,,,,0.7749,1,,,,,,,,,,,,,,m,,,,,,,,,,,,,,,,159,0,835.0103,835.7931,m,1,0.7749,,[],[],[],[],[],[],[],835.7931,837.793,837.7931,837.7933,[],[],[],[],[],[],[],,837.7934,837.7935,-0.130736243,-0.191661005,0,0,0,,0,158,158,104,1,2,word,DOMINANT,print,dominant_p.png,,,,,,
,,,,31803,001,2025-11-06_10h41.04.409,HW_LDT_1,2024.2.4,MacIntel,60.24096386,,,,,,,,,,,,,,,,,,,,,837.7952,837.993,837.993,838.4931,,,,,,,,,,,,,,2.9365,1,,,,,,,,,,,,,,z,,,,,,,,,,,,,,,,160,0,838.4937,841.4429,z,1,2.9365,,[],[],[],[],[],[],[],841.443,843.443,843.443,843.4432,[],[],[],[],[],[],[],,843.4433,843.4434,-0.130736243,-0.191661005,0,0,0,,0,159,159,57,1,2,TL,meromy,cursive,meromy_c.png,,,,,,
,,,,31803,001,2025-11-06_10h41.04.409,HW_LDT_1,2024.2.4,MacIntel,60.24096386,,,,,,,,,,,,,,,,,,,,,,,,,,,,,,,,,,,,,,,,,,,,,,,,,,,,,,,,,,,,,,,,,,,,,,,,,,,,,,,,,,,,,,,,,,,,,,,,,,,,,,,,,,,,,,,,,,,,,,843.4554,848.4432
