counterbalance_lists.group,counterbalance_lists.remaining,get_list.started,get_list.stopped,participant,session,date,expName,psychopyVersion,OS,frameRate,Instructions.started,Instructions.stopped,key_resp.keys,key_resp.rt,key_resp.duration,instr_done_touch.x,instr_done_touch.y,instr_done_touch.leftButton,instr_done_touch.midButton,instr_done_touch.rightButton,start_instr.thisRepN,start_instr.thisTrialN,start_instr.thisN,start_instr.thisIndex,start_instr.ran,pageN,phase,instruct_text,has_image,instruct_image,showProgress.started,showProgress.stopped,fix.started,fix.stopped,prac.started,prac.stopped,response.keys,response.corr,response.rt,response.duration,touch_resp.x,touch_resp.y,touch_resp.leftButton,touch_resp.midButton,touch_resp.rightButton,touch_resp.time,touch_resp.clicked_name,rt,corr,feedback.started,feedback.stopped,trials.thisRepN,trials.thisTrialN,trials.thisN,trials.thisIndex,trials.ran,TrialID,StimulusType,Condition,PrimeDuration,Prime,Target,corrAns,Instructions_expt.started,Instructions_expt.stopped,key_resp_3.keys,instr_done_touch_3.x,instr_done_touch_3.y,instr_done_touch_3.leftButton,instr_done_touch_3.midButton,instr_done_touch_3.rightButton,instr_done_touch_3.clicked_name,instr_experiment.thisRepN,instr_experiment.thisTrialN,instr_experiment.thisN,instr_experiment.thisIndex,instr_experiment.ran,trialID,flag,maintask.started,maintask.stopped,key_resp_2.keys,key_resp_2.corr,key_resp_2.rt,key_resp_2.duration,targ_click.x,targ_click.y,targ_click.leftButton,targ_click.midButton,targ_click.rightButton,targ_click.time,targ_click.clicked_name,ITI.started,ITI.stopped,probe.started,probe.stopped,click_probe.x,click_probe.y,click_probe.leftButton,click_probe.midButton,click_probe.rightButton,click_probe.time,click_probe.clicked_name,key_resp_probe.keys,Break.started,Break.stopped,break_done_touch.x,break_done_touch.y,break_done_touch.leftButton,break_done_touch.midButton,break_done_touch.rightButton,break_done_keyboard.keys,list4_trials.thisRepN,list4_trials.thisTrialN,list4_trials.thisN,list4_trials.thisIndex,list4_trials.ran,list_id,item_type,string,font,stim_file,key_resp_probe.rt,key_resp_probe.duration,break_done_touch.clicked_name,End.started,End.stopped
list4,,0.4671,0.4672,31806,001,2025-12-04_16h47.25.744,HW_LDT_1,2024.2.4,MacIntel,59.88023952,,,,,,,,,,,,,,,,,,,,,,,,,,,,,,,,,,,,,,,,,,,,,,,,,,,,,,,,,,,,,,,,,,,,,,,,,,,,,,,,,,,,,,,,,,,,,,,,,,,,,,,,,,,,,,,,,,,,,
,,,,31806,001,2025-12-04_16h47.25.744,HW_LDT_1,2024.2.4,MacIntel,59.88023952,0.4882,18.8879,space,18.37,,-0.083823785,-0.317682292,0,0,0,0,0,0,0,1,1,instructions,"INSTRUCTIONS
At the start of each trial, look at the plus sign  (+) in the center of the screen.  This tells you that a trial is about to begin and where to look. Second, the plus sign will disappear and a string of letters will appear. Your task is to determine if the string of letters is a word or not. If the item is a word press the M key (on keyboard)  or touch the word button (phone/tablet).  If the item is not a word,  press the  Z key (on keyboard)  or touch the nonword button (on phone/tablet). The items will be presented for a short time. 
Press the space bar or touch  continue.",0,,,,,,,,,,,,,,,,,,,,,,,,,,,,,,,,,,,,,,,,,,,,,,,,,,,,,,,,,,,,,,,,,,,,,,,,,,,,,,,,,,,,,,,,,,,,,,,,,,
,,,,31806,001,2025-12-04_16h47.25.744,HW_LDT_1,2024.2.4,MacIntel,59.88023952,18.8903,22.7714,space,3.8643,,-0.083823785,-0.317682292,0,0,0,0,1,1,1,1,2,instructions,"If your device has a keyboard, press the 'Z' key for nonwords and the 'M' key for words.





Press the space bar or touch the button below to continue.",0,keyboard-example.gif,,,,,,,,,,,,,,,,,,,,,,,,,,,,,,,,,,,,,,,,,,,,,,,,,,,,,,,,,,,,,,,,,,,,,,,,,,,,,,,,,,,,,,,,,,,,,,,,,
,,,,31806,001,2025-12-04_16h47.25.744,HW_LDT_1,2024.2.4,MacIntel,59.88023952,22.7734,25.7052,space,2.904,,-0.083823785,-0.317682292,0,0,0,0,2,2,2,1,3,instructions,"If you are using a touchscreen only device, use the buttons on the screen. Do not use the mouse.





Press the space bar or touch the button below to continue.",0,touchscreen-example.gif,,,,,,,,,,,,,,,,,,,,,,,,,,,,,,,,,,,,,,,,,,,,,,,,,,,,,,,,,,,,,,,,,,,,,,,,,,,,,,,,,,,,,,,,,,,,,,,,,
,,,,31806,001,2025-12-04_16h47.25.744,HW_LDT_1,2024.2.4,MacIntel,59.88023952,25.7079,32.7214,space,6.9869,,-0.083823785,-0.317682292,0,0,0,0,3,3,3,1,4,instructions,"It is very important that you respond as quickly and accurately as possible, as each letter string will only be on the screen for two seconds. If you do not respond within this time, the message 'Too slow!' will be displayed and the experiment will progress to the next letter string. The first 20 trials will be practice trials and you will receive feedback on your answers. 

Press the space bar or touch the button below to start the practice trials.",0,,,,,,,,,,,,,,,,,,,,,,,,,,,,,,,,,,,,,,,,,,,,,,,,,,,,,,,,,,,,,,,,,,,,,,,,,,,,,,,,,,,,,,,,,,,,,,,,,,
,,,,31806,001,2025-12-04_16h47.25.744,HW_LDT_1,2024.2.4,MacIntel,59.88023952,,,,,,,,,,,,,,,,,,,,,32.7512,32.9213,32.9215,33.4214,33.4217,35.0717,m,1,1.6217,,[],[],[],[],[],[],[],1.6217,1,35.0723,35.5715,0,0,0,2,1,1003,WORD,"ID",16,almond,ALMOND,m,,,,,,,,,,,,,,,,,,,,,,,,,,,,,,,,,,,,,,,,,,,,,,,,,,,,,,,,,,,,,,,,
,,,,31806,001,2025-12-04_16h47.25.744,HW_LDT_1,2024.2.4,MacIntel,59.88023952,,,,,,,,,,,,,,,,,,,,,35.5729,35.7713,35.7714,36.2711,36.2722,38.488,z,1,2.1995,,[],[],[],[],[],[],[],2.1995,1,38.4881,38.9881,0,1,1,10,1,1011,NW,"ID",16,inlade,INLADE,z,,,,,,,,,,,,,,,,,,,,,,,,,,,,,,,,,,,,,,,,,,,,,,,,,,,,,,,,,,,,,,,,
,,,,31806,001,2025-12-04_16h47.25.744,HW_LDT_1,2024.2.4,MacIntel,59.88023952,,,,,,,,,,,,,,,,,,,,,38.99,39.1878,39.1879,39.688,39.6893,40.5374,m,1,0.8281,,[],[],[],[],[],[],[],0.8281,1,40.5375,41.0382,0,2,2,4,1,1005,WORD,UN,33,abound,SQUEAK,m,,,,,,,,,,,,,,,,,,,,,,,,,,,,,,,,,,,,,,,,,,,,,,,,,,,,,,,,,,,,,,,,
,,,,31806,001,2025-12-04_16h47.25.744,HW_LDT_1,2024.2.4,MacIntel,59.88023952,,,,,,,,,,,,,,,,,,,,,41.0398,41.2379,41.238,41.7378,41.7389,42.3881,m,1,0.6343,,[],[],[],[],[],[],[],0.6343,1,42.3881,42.888,0,3,3,3,1,1004,WORD,"ID",16,matrix,MATRIX,m,,,,,,,,,,,,,,,,,,,,,,,,,,,,,,,,,,,,,,,,,,,,,,,,,,,,,,,,,,,,,,,,
,,,,31806,001,2025-12-04_16h47.25.744,HW_LDT_1,2024.2.4,MacIntel,59.88023952,,,,,,,,,,,,,,,,,,,,,42.8897,43.0873,43.0873,43.587,43.5879,44.5044,m,1,0.896,,[],[],[],[],[],[],[],0.896,1,44.5045,45.0046,0,4,4,6,1,1007,WORD,UN,16,tropic,ZOMBIE,m,,,,,,,,,,,,,,,,,,,,,,,,,,,,,,,,,,,,,,,,,,,,,,,,,,,,,,,,,,,,,,,,
,,,,31806,001,2025-12-04_16h47.25.744,HW_LDT_1,2024.2.4,MacIntel,59.88023952,,,,,,,,,,,,,,,,,,,,,45.0058,45.2046,45.2047,45.7045,45.7057,46.287,m,1,0.5607,,[],[],[],[],[],[],[],0.5607,1,46.2873,46.788,0,5,5,1,1,1002,WORD,"ID",33,adjust,ADJUST,m,,,,,,,,,,,,,,,,,,,,,,,,,,,,,,,,,,,,,,,,,,,,,,,,,,,,,,,,,,,,,,,,
,,,,31806,001,2025-12-04_16h47.25.744,HW_LDT_1,2024.2.4,MacIntel,59.88023952,,,,,,,,,,,,,,,,,,,,,46.7896,46.9878,46.988,47.4878,47.4888,48.0213,m,1,0.5124,,[],[],[],[],[],[],[],0.5124,1,48.0215,48.5203,0,6,6,5,1,1006,WORD,UN,33,frenzy,OBTAIN,m,,,,,,,,,,,,,,,,,,,,,,,,,,,,,,,,,,,,,,,,,,,,,,,,,,,,,,,,,,,,,,,,
,,,,31806,001,2025-12-04_16h47.25.744,HW_LDT_1,2024.2.4,MacIntel,59.88023952,,,,,,,,,,,,,,,,,,,,,48.5217,48.7212,48.7212,49.2202,49.221,50.0869,z,1,0.8452,,[],[],[],[],[],[],[],0.8452,1,50.087,50.5879,0,7,7,9,1,1010,NW,"ID",33,fariny,FARINY,z,,,,,,,,,,,,,,,,,,,,,,,,,,,,,,,,,,,,,,,,,,,,,,,,,,,,,,,,,,,,,,,,
,,,,31806,001,2025-12-04_16h47.25.744,HW_LDT_1,2024.2.4,MacIntel,59.88023952,,,,,,,,,,,,,,,,,,,,,50.5891,50.7879,50.788,51.2879,51.2888,52.1035,z,1,0.8004,,[],[],[],[],[],[],[],0.8004,1,52.1036,52.6034,0,8,8,8,1,1009,NW,"ID",33,aslert,ASLERT,z,,,,,,,,,,,,,,,,,,,,,,,,,,,,,,,,,,,,,,,,,,,,,,,,,,,,,,,,,,,,,,,,
,,,,31806,001,2025-12-04_16h47.25.744,HW_LDT_1,2024.2.4,MacIntel,59.88023952,,,,,,,,,,,,,,,,,,,,,52.6045,52.8042,52.8042,53.3043,53.305,54.1379,z,1,0.8179,,[],[],[],[],[],[],[],0.8179,1,54.138,54.6379,0,9,9,13,1,1014,NW,UN,33,winfer,ROUPET,z,,,,,,,,,,,,,,,,,,,,,,,,,,,,,,,,,,,,,,,,,,,,,,,,,,,,,,,,,,,,,,,,
,,,,31806,001,2025-12-04_16h47.25.744,HW_LDT_1,2024.2.4,MacIntel,59.88023952,,,,,,,,,,,,,,,,,,,,,54.6392,54.8372,54.8372,55.3375,55.3381,55.7878,m,1,0.4347,,[],[],[],[],[],[],[],0.4347,1,55.788,56.2878,0,10,10,7,1,1008,WORD,UN,16,hurdle,VOLUME,m,,,,,,,,,,,,,,,,,,,,,,,,,,,,,,,,,,,,,,,,,,,,,,,,,,,,,,,,,,,,,,,,
,,,,31806,001,2025-12-04_16h47.25.744,HW_LDT_1,2024.2.4,MacIntel,59.88023952,,,,,,,,,,,,,,,,,,,,,56.2891,56.4878,56.4878,56.9877,56.9886,57.7703,z,1,0.7648,,[],[],[],[],[],[],[],0.7648,1,57.7703,58.2712,0,11,11,12,1,1013,NW,UN,33,adveil,SPRINY,z,,,,,,,,,,,,,,,,,,,,,,,,,,,,,,,,,,,,,,,,,,,,,,,,,,,,,,,,,,,,,,,,
,,,,31806,001,2025-12-04_16h47.25.744,HW_LDT_1,2024.2.4,MacIntel,59.88023952,,,,,,,,,,,,,,,,,,,,,58.2726,58.4711,58.4711,58.9712,58.9723,59.5368,z,1,0.5572,,[],[],[],[],[],[],[],0.5572,1,59.537,60.038,0,12,12,11,1,1012,NW,"ID",16,rashet,RASHET,z,,,,,,,,,,,,,,,,,,,,,,,,,,,,,,,,,,,,,,,,,,,,,,,,,,,,,,,,,,,,,,,,
,,,,31806,001,2025-12-04_16h47.25.744,HW_LDT_1,2024.2.4,MacIntel,59.88023952,,,,,,,,,,,,,,,,,,,,,60.0395,60.2377,60.2378,60.7377,60.7384,61.4536,z,1,0.6965,,[],[],[],[],[],[],[],0.6965,1,61.4538,61.9535,0,13,13,15,1,1016,NW,UN,16,mushed,WHAISE,z,,,,,,,,,,,,,,,,,,,,,,,,,,,,,,,,,,,,,,,,,,,,,,,,,,,,,,,,,,,,,,,,
,,,,31806,001,2025-12-04_16h47.25.744,HW_LDT_1,2024.2.4,MacIntel,59.88023952,,,,,,,,,,,,,,,,,,,,,61.9547,62.1537,62.1537,62.6544,62.6554,63.4045,m,1,0.7289,,[],[],[],[],[],[],[],0.7289,1,63.4046,63.9045,0,14,14,0,1,1001,WORD,"ID",33,utopia,UTOPIA,m,,,,,,,,,,,,,,,,,,,,,,,,,,,,,,,,,,,,,,,,,,,,,,,,,,,,,,,,,,,,,,,,
,,,,31806,001,2025-12-04_16h47.25.744,HW_LDT_1,2024.2.4,MacIntel,59.88023952,,,,,,,,,,,,,,,,,,,,,63.9058,64.1046,64.1046,64.6046,64.6055,65.4545,z,1,0.8286,,[],[],[],[],[],[],[],0.8286,1,65.4547,65.9535,0,15,15,14,1,1015,NW,UN,16,miaber,THRALE,z,,,,,,,,,,,,,,,,,,,,,,,,,,,,,,,,,,,,,,,,,,,,,,,,,,,,,,,,,,,,,,,,
,,,,31806,001,2025-12-04_16h47.25.744,HW_LDT_1,2024.2.4,MacIntel,59.88023952,,,,,,,,,,,,,,,,1,end_of_practice,"You have completed the practice trials. During the experimental trials, you will not receive feedback. On some trials you will be asked to report whether the item you just saw was in cursive or print. 
Before you begin, please ensure that you are in a comfortable and quiet location and will not be disturbed for about 15 minutes, as we cannot use your data if you do not complete all the trials. 
 When you are ready to start the experimental trials, please press space or touch the button below.",,,,,,,,,,,,,,,,,,,,,,,,,,,,,,,,,,,,65.9608,67.9053,,-0.086679688,-0.377265625,1,0,0,instr_done_button_3,0,0,0,0,1,,,,,,,,,,,,,,,,,,,,,,,,,,,,,,,,,,,,,,,,,,,,,,,,,,
,,,,31806,001,2025-12-04_16h47.25.744,HW_LDT_1,2024.2.4,MacIntel,59.88023952,,,,,,,,,,,,,,,,,,,,,67.9252,68.1035,68.1035,68.6047,,,,,,,,,,,,,,1.1166,1,,,,,,,,,,,,,,m,,,,,,,,,,,,,,,1,0,68.606,69.7387,m,1,1.1166,,[],[],[],[],[],[],[],69.7391,71.7374,71.7378,71.7411,[],[],[],[],[],[],[],,71.7412,71.7429,-0.087382813,-0.36499566,0,0,0,,0,0,0,97,1,4,word,COVERAGE,cursive,coverage_c.png,,,,,
,,,,31806,001,2025-12-04_16h47.25.744,HW_LDT_1,2024.2.4,MacIntel,59.88023952,,,,,,,,,,,,,,,,,,,,,71.7439,71.9378,71.9379,72.4369,,,,,,,,,,,,,,1.9866,0,,,,,,,,,,,,,,z,,,,,,,,,,,,,,,2,0,72.4375,74.438,m,0,1.9866,,[],[],[],[],[],[],[],74.4382,76.4379,76.438,76.4382,[],[],[],[],[],[],[],,76.4384,76.4384,-0.087382813,-0.36499566,0,0,0,,0,1,1,75,1,4,TL,sanile,print,sanile_p.png,,,,,
,,,,31806,001,2025-12-04_16h47.25.744,HW_LDT_1,2024.2.4,MacIntel,59.88023952,,,,,,,,,,,,,,,,,,,,,76.4399,76.638,76.6381,77.1379,,,,,,,,,,,,,,2.3024,1,,,,,,,,,,,,,,z,,,,,,,,,,,,,,,3,1,77.1387,79.4545,z,1,2.3024,,[],[],[],[],[],[],[],79.4546,81.4535,81.4536,84.788,[],[],[],[],[],[],[],z,84.7882,84.7884,-0.087382813,-0.36499566,0,0,0,,0,2,2,77,1,4,TL,spemicen,cursive,spemicen_c.png,3.3249,,,,
,,,,31806,001,2025-12-04_16h47.25.744,HW_LDT_1,2024.2.4,MacIntel,59.88023952,,,,,,,,,,,,,,,,,,,,,84.7898,84.9878,84.9878,85.4874,,,,,,,,,,,,,,2.3465,1,,,,,,,,,,,,,,m,,,,,,,,,,,,,,,4,0,85.4881,87.8378,m,1,2.3465,,[],[],[],[],[],[],[],87.8379,89.8378,89.8378,89.8381,[],[],[],[],[],[],[],,89.8381,89.8382,-0.087382813,-0.36499566,0,0,0,,0,3,3,157,1,4,word,VALIDITY,print,validity_p.png,,,,,
,,,,31806,001,2025-12-04_16h47.25.744,HW_LDT_1,2024.2.4,MacIntel,59.88023952,,,,,,,,,,,,,,,,,,,,,89.8395,90.0375,90.0376,90.5379,,,,,,,,,,,,,,0.8234,1,,,,,,,,,,,,,,z,,,,,,,,,,,,,,,5,0,90.5385,91.3713,z,1,0.8234,,[],[],[],[],[],[],[],91.3714,93.3711,93.3711,93.3714,[],[],[],[],[],[],[],,93.3715,93.3716,-0.087382813,-0.36499566,0,0,0,,0,4,4,9,1,4,RL,cafigal,print,cafigal_p.png,,,,,
,,,,31806,001,2025-12-04_16h47.25.744,HW_LDT_1,2024.2.4,MacIntel,59.88023952,,,,,,,,,,,,,,,,,,,,,93.3731,93.571,93.5711,94.0711,,,,,,,,,,,,,,2.064,1,,,,,,,,,,,,,,z,,,,,,,,,,,,,,,6,1,94.0717,96.1377,z,1,2.064,,[],[],[],[],[],[],[],96.138,98.1367,98.1368,105.6216,[],[],[],[],[],[],[],z,105.6217,105.622,-0.087382813,-0.36499566,0,0,0,,0,5,5,56,1,4,TL,donimant,cursive,donimant_c.png,7.4715,,,,
,,,,31806,001,2025-12-04_16h47.25.744,HW_LDT_1,2024.2.4,MacIntel,59.88023952,,,,,,,,,,,,,,,,,,,,,105.6233,105.8207,105.8207,106.3211,,,,,,,,,,,,,,1.3697,1,,,,,,,,,,,,,,z,,,,,,,,,,,,,,,7,0,106.3217,107.7045,z,1,1.3697,,[],[],[],[],[],[],[],107.7046,109.7045,109.7045,109.7049,[],[],[],[],[],[],[],,109.7049,109.7051,-0.087382813,-0.36499566,0,0,0,,0,6,6,11,1,4,RL,clisimal,print,clisimal_p.png,,,,,
,,,,31806,001,2025-12-04_16h47.25.744,HW_LDT_1,2024.2.4,MacIntel,59.88023952,,,,,,,,,,,,,,,,,,,,,109.7065,109.9046,109.9047,110.4045,,,,,,,,,,,,,,0.6851,1,,,,,,,,,,,,,,m,,,,,,,,,,,,,,,8,0,110.4051,111.1045,m,1,0.6851,,[],[],[],[],[],[],[],111.1046,113.1045,113.1046,113.1048,[],[],[],[],[],[],[],,113.1048,113.1051,-0.087382813,-0.36499566,0,0,0,,0,7,7,117,1,4,word,MARINE,print,marine_p.png,,,,,
,,,,31806,001,2025-12-04_16h47.25.744,HW_LDT_1,2024.2.4,MacIntel,59.88023952,,,,,,,,,,,,,,,,,,,,,113.1064,113.3047,113.3048,113.8037,,,,,,,,,,,,,,0.7537,1,,,,,,,,,,,,,,m,,,,,,,,,,,,,,,9,0,113.8045,114.5711,m,1,0.7537,,[],[],[],[],[],[],[],114.5712,116.57,116.57,116.5702,[],[],[],[],[],[],[],,116.5702,116.5703,-0.087382813,-0.36499566,0,0,0,,0,8,8,91,1,4,word,CARDINAL,cursive,cardinal_c.png,,,,,
,,,,31806,001,2025-12-04_16h47.25.744,HW_LDT_1,2024.2.4,MacIntel,59.88023952,,,,,,,,,,,,,,,,,,,,,116.5712,116.7709,116.771,117.27,,,,,,,,,,,,,,1.3326,1,,,,,,,,,,,,,,z,,,,,,,,,,,,,,,10,0,117.2705,118.6042,z,1,1.3326,,[],[],[],[],[],[],[],118.6042,120.6035,120.6035,120.6037,[],[],[],[],[],[],[],,120.6037,120.604,-0.087382813,-0.36499566,0,0,0,,0,9,9,19,1,4,RL,elacodate,cursive,elacodate_c.png,,,,,
,,,,31806,001,2025-12-04_16h47.25.744,HW_LDT_1,2024.2.4,MacIntel,59.88023952,,,,,,,,,,,,,,,,,,,,,120.6051,120.8033,120.8034,121.3043,,,,,,,,,,,,,,1.2403,1,,,,,,,,,,,,,,z,,,,,,,,,,,,,,,11,1,121.3051,122.5545,z,1,1.2403,,[],[],[],[],[],[],[],122.5546,124.5543,124.5544,125.6034,[],[],[],[],[],[],[],m,125.6036,125.6037,-0.087382813,-0.36499566,0,0,0,,0,10,10,31,1,4,RL,orimipal,print,orimipal_p.png,1.041,,,,
,,,,31806,001,2025-12-04_16h47.25.744,HW_LDT_1,2024.2.4,MacIntel,59.88023952,,,,,,,,,,,,,,,,,,,,,125.6051,125.8043,125.8044,126.3041,,,,,,,,,,,,,,1.0869,0,,,,,,,,,,,,,,m,,,,,,,,,,,,,,,12,1,126.3045,127.4035,z,0,1.0869,,[],[],[],[],[],[],[],127.4036,129.4034,129.4034,130.9368,[],[],[],[],[],[],[],z,130.9369,130.937,-0.087382813,-0.36499566,0,0,0,,0,11,11,96,1,4,word,CONSIDER,cursive,consider_c.png,1.5197,,,,
,,,,31806,001,2025-12-04_16h47.25.744,HW_LDT_1,2024.2.4,MacIntel,59.88023952,,,,,,,,,,,,,,,,,,,,,130.9381,131.1376,131.1376,131.6376,,,,,,,,,,,,,,0.7058,1,,,,,,,,,,,,,,m,,,,,,,,,,,,,,,13,0,131.638,132.3544,m,1,0.7058,,[],[],[],[],[],[],[],132.3545,134.3543,134.3544,134.3547,[],[],[],[],[],[],[],,134.3547,134.3549,-0.087382813,-0.36499566,0,0,0,,0,12,12,121,1,4,word,MISTAKE,print,mistake_p.png,,,,,
,,,,31806,001,2025-12-04_16h47.25.744,HW_LDT_1,2024.2.4,MacIntel,59.88023952,,,,,,,,,,,,,,,,,,,,,134.3563,134.5534,134.5535,135.0544,,,,,,,,,,,,,,0.5865,1,,,,,,,,,,,,,,m,,,,,,,,,,,,,,,14,0,135.0551,135.6545,m,1,0.5865,,[],[],[],[],[],[],[],135.6545,137.6543,137.6544,137.6547,[],[],[],[],[],[],[],,137.6547,137.6549,-0.087382813,-0.36499566,0,0,0,,0,13,13,90,1,4,word,CAPITAL,print,capital_p.png,,,,,
,,,,31806,001,2025-12-04_16h47.25.744,HW_LDT_1,2024.2.4,MacIntel,59.88023952,,,,,,,,,,,,,,,,,,,,,137.6562,137.8544,137.8544,138.3533,,,,,,,,,,,,,,0.9865,1,,,,,,,,,,,,,,z,,,,,,,,,,,,,,,15,0,138.3538,139.3545,z,1,0.9865,,[],[],[],[],[],[],[],139.3546,141.3544,141.3544,141.3547,[],[],[],[],[],[],[],,141.3548,141.355,-0.087382813,-0.36499566,0,0,0,,0,14,14,0,1,4,RL,abanemy,print,abanemy_p.png,,,,,
,,,,31806,001,2025-12-04_16h47.25.744,HW_LDT_1,2024.2.4,MacIntel,59.88023952,,,,,,,,,,,,,,,,,,,,,141.3562,141.5543,141.5543,142.0544,,,,,,,,,,,,,,1.1193,0,,,,,,,,,,,,,,m,,,,,,,,,,,,,,,16,0,142.0549,143.1872,z,0,1.1193,,[],[],[],[],[],[],[],143.1874,145.1876,145.1877,145.1879,[],[],[],[],[],[],[],,145.188,145.1882,-0.087382813,-0.36499566,0,0,0,,0,15,15,133,1,4,word,PROVIDE,cursive,provide_c.png,,,,,
,,,,31806,001,2025-12-04_16h47.25.744,HW_LDT_1,2024.2.4,MacIntel,59.88023952,,,,,,,,,,,,,,,,,,,,,145.1895,145.3876,145.3877,145.8876,,,,,,,,,,,,,,1.304,1,,,,,,,,,,,,,,z,,,,,,,,,,,,,,,17,0,145.888,147.2035,z,1,1.304,,[],[],[],[],[],[],[],147.2035,149.2043,149.2044,149.2045,[],[],[],[],[],[],[],,149.2046,149.2047,-0.087382813,-0.36499566,0,0,0,,0,16,16,17,1,4,RL,denficy,cursive,denficy_c.png,,,,,
,,,,31806,001,2025-12-04_16h47.25.744,HW_LDT_1,2024.2.4,MacIntel,59.88023952,,,,,,,,,,,,,,,,,,,,,149.2061,149.4043,149.4044,149.9043,,,,,,,,,,,,,,0.7206,1,,,,,,,,,,,,,,z,,,,,,,,,,,,,,,18,0,149.9049,150.637,z,1,0.7206,,[],[],[],[],[],[],[],150.637,152.6378,152.6378,152.6381,[],[],[],[],[],[],[],,152.6381,152.6382,-0.087382813,-0.36499566,0,0,0,,0,17,17,48,1,4,RL,vabifity,print,vabifity_p.png,,,,,
,,,,31806,001,2025-12-04_16h47.25.744,HW_LDT_1,2024.2.4,MacIntel,59.88023952,,,,,,,,,,,,,,,,,,,,,152.6395,152.8377,152.8377,153.3378,,,,,,,,,,,,,,0.9694,1,,,,,,,,,,,,,,z,,,,,,,,,,,,,,,19,0,153.3384,154.321,z,1,0.9694,,[],[],[],[],[],[],[],154.3211,156.3198,156.3198,156.3199,[],[],[],[],[],[],[],,156.3199,156.3199,-0.087382813,-0.36499566,0,0,0,,0,18,18,39,1,4,RL,relone,cursive,relone_c.png,,,,,
,,,,31806,001,2025-12-04_16h47.25.744,HW_LDT_1,2024.2.4,MacIntel,59.88023952,,,,,,,,,,,,,,,,,,,,,156.3205,156.5201,156.5202,157.0211,,,,,,,,,,,,,,0.8862,1,,,,,,,,,,,,,,m,,,,,,,,,,,,,,,20,0,157.0217,157.9206,m,1,0.8862,,[],[],[],[],[],[],[],157.9208,159.92,159.9201,159.9202,[],[],[],[],[],[],[],,159.9202,159.9204,-0.087382813,-0.36499566,0,0,0,,0,19,19,139,1,4,word,REGULAR,cursive,regular_c.png,,,,,
,,,,31806,001,2025-12-04_16h47.25.744,HW_LDT_1,2024.2.4,MacIntel,59.88023952,,,,,,,,,,,,,,,,,,,,,159.9213,160.1209,160.121,160.6209,,,,,,,,,,,,,,2.0194,0,,,,,,,,,,,,,,m,,,,,,,,,,,,,,,21,1,160.6215,162.6535,z,0,2.0194,,[],[],[],[],[],[],[],162.6536,164.6533,164.6534,165.704,[],[],[],[],[],[],[],z,165.704,165.7042,-0.087382813,-0.36499566,0,0,0,,0,20,20,92,1,4,word,CATEGORY,cursive,category_c.png,1.0381,,,,
,,,,31806,001,2025-12-04_16h47.25.744,HW_LDT_1,2024.2.4,MacIntel,59.88023952,,,,,,,,,,,,,,,,,,,,,165.7054,165.9036,165.9037,166.4042,,,,,,,,,,,,,,0.9707,1,,,,,,,,,,,,,,z,,,,,,,,,,,,,,,22,0,166.4047,167.388,z,1,0.9707,,[],[],[],[],[],[],[],167.3881,169.3877,169.3878,169.3881,[],[],[],[],[],[],[],,169.3882,169.3883,-0.087382813,-0.36499566,0,0,0,,0,21,21,42,1,4,RL,revune,print,revune_p.png,,,,,
,,,,31806,001,2025-12-04_16h47.25.744,HW_LDT_1,2024.2.4,MacIntel,59.88023952,,,,,,,,,,,,,,,,,,,,,169.3898,169.5875,169.5876,170.0877,,,,,,,,,,,,,,0.9858,1,,,,,,,,,,,,,,m,,,,,,,,,,,,,,,23,0,170.0884,171.0877,m,1,0.9858,,[],[],[],[],[],[],[],171.0878,173.0876,173.0876,173.0878,[],[],[],[],[],[],[],,173.0878,173.088,-0.087382813,-0.36499566,0,0,0,,0,22,22,137,1,4,word,RAPIDLY,cursive,rapidly_c.png,,,,,
,,,,31806,001,2025-12-04_16h47.25.744,HW_LDT_1,2024.2.4,MacIntel,59.88023952,,,,,,,,,,,,,,,,,,,,,173.0893,173.2877,173.2878,173.7878,,,,,,,,,,,,,,1.3867,0,,,,,,,,,,,,,,m,,,,,,,,,,,,,,,24,0,173.7882,175.1878,z,0,1.3867,,[],[],[],[],[],[],[],175.1879,177.1871,177.1871,177.1873,[],[],[],[],[],[],[],,177.1874,177.1875,-0.087382813,-0.36499566,0,0,0,,0,23,23,89,1,4,word,CAPACITY,cursive,capacity_c.png,,,,,
,,,,31806,001,2025-12-04_16h47.25.744,HW_LDT_1,2024.2.4,MacIntel,59.88023952,,,,,,,,,,,,,,,,,,,,,177.1886,177.3877,177.3877,177.8873,,,,,,,,,,,,,,0.9142,1,,,,,,,,,,,,,,z,,,,,,,,,,,,,,,25,0,177.8878,178.8042,z,1,0.9142,,[],[],[],[],[],[],[],178.8043,180.8045,180.8046,180.8048,[],[],[],[],[],[],[],,180.8049,180.805,-0.087382813,-0.36499566,0,0,0,,0,24,24,22,1,4,RL,linedal,cursive,linedal_c.png,,,,,
,,,,31806,001,2025-12-04_16h47.25.744,HW_LDT_1,2024.2.4,MacIntel,59.88023952,,,,,,,,,,,,,,,,,,,,,180.8064,181.0043,181.0044,181.5044,,,,,,,,,,,,,,0.9562,1,,,,,,,,,,,,,,z,,,,,,,,,,,,,,,26,0,181.5049,182.471,z,1,0.9562,,[],[],[],[],[],[],[],182.4711,184.4709,184.4709,184.4713,[],[],[],[],[],[],[],,184.4713,184.4714,-0.087382813,-0.36499566,0,0,0,,0,25,25,1,1,4,RL,afaneur,cursive,afaneur_c.png,,,,,
,,,,31806,001,2025-12-04_16h47.25.744,HW_LDT_1,2024.2.4,MacIntel,59.88023952,,,,,,,,,,,,,,,,,,,,,184.4726,184.6708,184.6709,185.1703,,,,,,,,,,,,,,1.9854,1,,,,,,,,,,,,,,z,,,,,,,,,,,,,,,27,0,185.1709,187.1705,z,1,1.9854,,[],[],[],[],[],[],[],187.1706,189.171,189.1711,189.1713,[],[],[],[],[],[],[],,189.1715,189.1715,-0.087382813,-0.36499566,0,0,0,,0,26,26,46,1,4,RL,skofen,cursive,skofen_c.png,,,,,
,,,,31806,001,2025-12-04_16h47.25.744,HW_LDT_1,2024.2.4,MacIntel,59.88023952,,,,,,,,,,,,,,,,,,,,,189.1728,189.371,189.3711,189.871,,,,,,,,,,,,,,0.8464,1,,,,,,,,,,,,,,z,,,,,,,,,,,,,,,28,0,189.8717,190.721,z,1,0.8464,,[],[],[],[],[],[],[],190.721,192.7203,192.7204,192.7206,[],[],[],[],[],[],[],,192.7207,192.7208,-0.087382813,-0.36499566,0,0,0,,0,27,27,67,1,4,TL,polupar,print,polupar_p.png,,,,,
,,,,31806,001,2025-12-04_16h47.25.744,HW_LDT_1,2024.2.4,MacIntel,59.88023952,,,,,,,,,,,,,,,,,,,,,192.7219,192.921,192.9211,193.4209,,,,,,,,,,,,,,0.9135,0,,,,,,,,,,,,,,z,,,,,,,,,,,,,,,29,0,193.4215,194.3376,m,0,0.9135,,[],[],[],[],[],[],[],194.3377,196.3376,196.3377,196.3378,[],[],[],[],[],[],[],,196.3379,196.3381,-0.087382813,-0.36499566,0,0,0,,0,28,28,72,1,4,TL,relugar,cursive,relugar_c.png,,,,,
,,,,31806,001,2025-12-04_16h47.25.744,HW_LDT_1,2024.2.4,MacIntel,59.88023952,,,,,,,,,,,,,,,,,,,,,196.3394,196.5375,196.5375,197.0365,,,,,,,,,,,,,,1.2364,1,,,,,,,,,,,,,,z,,,,,,,,,,,,,,,30,0,197.037,198.2873,z,1,1.2364,,[],[],[],[],[],[],[],198.2873,200.2877,200.2877,200.2879,[],[],[],[],[],[],[],,200.288,200.2881,-0.087382813,-0.36499566,0,0,0,,0,29,29,21,1,4,RL,insibate,print,insibate_p.png,,,,,
,,,,31806,001,2025-12-04_16h47.25.744,HW_LDT_1,2024.2.4,MacIntel,59.88023952,,,,,,,,,,,,,,,,,,,,,200.2896,200.4876,200.4877,200.9866,,,,,,,,,,,,,,0.7541,1,,,,,,,,,,,,,,m,,,,,,,,,,,,,,,31,1,200.987,201.7534,m,1,0.7541,,[],[],[],[],[],[],[],201.7535,203.7534,203.7534,206.2545,[],[],[],[],[],[],[],z,206.2546,206.2548,-0.087382813,-0.36499566,0,0,0,,0,30,30,145,1,4,word,RESUME,print,resume_p.png,2.4917,,,,
,,,,31806,001,2025-12-04_16h47.25.744,HW_LDT_1,2024.2.4,MacIntel,59.88023952,,,,,,,,,,,,,,,,,,,,,206.2562,206.4532,206.4532,206.9542,,,,,,,,,,,,,,2.7196,1,,,,,,,,,,,,,,m,,,,,,,,,,,,,,,32,0,206.9548,209.6876,m,1,2.7196,,[],[],[],[],[],[],[],209.6877,211.6876,211.6876,211.6879,[],[],[],[],[],[],[],,211.6879,211.6881,-0.087382813,-0.36499566,0,0,0,,0,31,31,95,1,4,word,COMEDY,print,comedy_p.png,,,,,
,,,,31806,001,2025-12-04_16h47.25.744,HW_LDT_1,2024.2.4,MacIntel,59.88023952,,,,,,,,,,,,,,,,,,,,,211.6894,211.887,211.8871,212.3865,,,,,,,,,,,,,,1.9705,1,,,,,,,,,,,,,,z,,,,,,,,,,,,,,,33,0,212.387,214.371,z,1,1.9705,,[],[],[],[],[],[],[],214.3711,216.3709,216.371,216.3711,[],[],[],[],[],[],[],,216.3711,216.3712,-0.087382813,-0.36499566,0,0,0,,0,32,32,71,1,4,TL,racidal,print,racidal_p.png,,,,,
,,,,31806,001,2025-12-04_16h47.25.744,HW_LDT_1,2024.2.4,MacIntel,59.88023952,,,,,,,,,,,,,,,,,,,,,216.3724,216.5709,216.5709,217.0709,,,,,,,,,,,,,,1.0187,0,,,,,,,,,,,,,,m,,,,,,,,,,,,,,,34,0,217.0714,218.1033,z,0,1.0187,,[],[],[],[],[],[],[],218.1034,220.1033,220.1033,220.1034,[],[],[],[],[],[],[],,220.1034,220.1035,-0.087382813,-0.36499566,0,0,0,,0,33,33,102,1,4,word,DENSITY,cursive,density_c.png,,,,,
,,,,31806,001,2025-12-04_16h47.25.744,HW_LDT_1,2024.2.4,MacIntel,59.88023952,,,,,,,,,,,,,,,,,,,,,220.1045,220.3033,220.3033,220.8042,,,,,,,,,,,,,,0.8857,1,,,,,,,,,,,,,,m,,,,,,,,,,,,,,,35,0,220.8047,221.7034,m,1,0.8857,,[],[],[],[],[],[],[],221.7035,223.7035,223.7035,223.7037,[],[],[],[],[],[],[],,223.7038,223.7039,-0.087382813,-0.36499566,0,0,0,,0,34,34,127,1,4,word,ORIGINAL,print,original_p.png,,,,,
,,,,31806,001,2025-12-04_16h47.25.744,HW_LDT_1,2024.2.4,MacIntel,59.88023952,,,,,,,,,,,,,,,,,,,,,223.7053,223.9041,223.9042,224.4041,,,,,,,,,,,,,,0.8865,1,,,,,,,,,,,,,,z,,,,,,,,,,,,,,,36,0,224.4047,225.3043,z,1,0.8865,,[],[],[],[],[],[],[],225.3044,227.3042,227.3042,227.3043,[],[],[],[],[],[],[],,227.3044,227.3045,-0.087382813,-0.36499566,0,0,0,,0,35,35,34,1,4,RL,posity,cursive,posity_c.png,,,,,
,,,,31806,001,2025-12-04_16h47.25.744,HW_LDT_1,2024.2.4,MacIntel,59.88023952,,,,,,,,,,,,,,,,,,,,,227.3058,227.5032,227.5032,228.0042,,,,,,,,,,,,,,1.2554,1,,,,,,,,,,,,,,z,,,,,,,,,,,,,,,37,0,228.0047,229.2709,z,1,1.2554,,[],[],[],[],[],[],[],229.271,231.2699,231.2699,231.2699,[],[],[],[],[],[],[],,231.27,231.2701,-0.087382813,-0.36499566,0,0,0,,0,36,36,13,1,4,RL,crisival,cursive,crisival_c.png,,,,,
,,,,31806,001,2025-12-04_16h47.25.744,HW_LDT_1,2024.2.4,MacIntel,59.88023952,,,,,,,,,,,,,,,,,,,,,231.2712,231.471,231.4711,231.971,,,,,,,,,,,,,,0.8526,1,,,,,,,,,,,,,,z,,,,,,,,,,,,,,,38,0,231.9716,232.8376,z,1,0.8526,,[],[],[],[],[],[],[],232.8377,234.8375,234.8376,234.8377,[],[],[],[],[],[],[],,234.8377,234.8378,-0.087382813,-0.36499566,0,0,0,,0,37,37,79,1,4,TL,tritube,print,tritube_p.png,,,,,
,,,,31806,001,2025-12-04_16h47.25.744,HW_LDT_1,2024.2.4,MacIntel,59.88023952,,,,,,,,,,,,,,,,,,,,,234.8392,235.0376,235.0376,235.5373,,,,,,,,,,,,,,2.0822,0,,,,,,,,,,,,,,m,,,,,,,,,,,,,,,39,0,235.5379,237.6211,z,0,2.0822,,[],[],[],[],[],[],[],237.6212,239.6208,239.6209,239.6211,[],[],[],[],[],[],[],,239.6211,239.6212,-0.087382813,-0.36499566,0,0,0,,0,38,38,99,1,4,word,DEBATE,cursive,debate_c.png,,,,,
,,,,31806,001,2025-12-04_16h47.25.744,HW_LDT_1,2024.2.4,MacIntel,59.88023952,,,,,,,,,,,,,,,,,,,,,239.6225,239.8209,239.8209,240.3204,,,,,,,,,,,,,,2.2866,1,,,,,,,,,,,,,,z,,,,,,,,,,,,,,,40,0,240.3209,242.6205,z,1,2.2866,,[],[],[],[],[],[],[],242.6205,244.6208,244.621,244.6212,[],[],[],[],[],[],[],,244.6213,244.6213,-0.087382813,-0.36499566,0,0,0,,0,39,39,59,1,4,TL,fornute,cursive,fornute_c.png,,,,,
,,,,31806,001,2025-12-04_16h47.25.744,HW_LDT_1,2024.2.4,MacIntel,59.88023952,,,,,,,,,,,,,,,,,,,,,244.6225,244.8209,244.8209,245.3209,,,,,,,,,,,,,,1.6912,1,,,,,,,,,,,,,,z,,,,,,,,,,,,,,,41,0,245.3214,247.0209,z,1,1.6912,,[],[],[],[],[],[],[],247.021,249.021,249.021,249.0213,[],[],[],[],[],[],[],,249.0213,249.0216,-0.087382813,-0.36499566,0,0,0,,0,40,40,54,1,4,TL,codemy,print,codemy_p.png,,,,,
,,,,31806,001,2025-12-04_16h47.25.744,HW_LDT_1,2024.2.4,MacIntel,59.88023952,,,,,,,,,,,,,,,,,,,,,249.0228,249.2208,249.2209,249.7208,,,,,,,,,,,,,,0.9408,1,,,,,,,,,,,,,,z,,,,,,,,,,,,,,,42,0,249.7213,250.6711,z,1,0.9408,,[],[],[],[],[],[],[],250.6712,252.6698,252.6698,252.67,[],[],[],[],[],[],[],,252.6701,252.6702,-0.087382813,-0.36499566,0,0,0,,0,41,41,26,1,4,RL,mesibine,cursive,mesibine_c.png,,,,,
,,,,31806,001,2025-12-04_16h47.25.744,HW_LDT_1,2024.2.4,MacIntel,59.88023952,,,,,,,,,,,,,,,,,,,,,252.6715,252.8709,252.8709,253.3709,,,,,,,,,,,,,,1.1327,1,,,,,,,,,,,,,,m,,,,,,,,,,,,,,,43,0,253.3713,254.5049,m,1,1.1327,,[],[],[],[],[],[],[],254.505,256.5045,256.5045,256.5047,[],[],[],[],[],[],[],,256.5048,256.5049,-0.087382813,-0.36499566,0,0,0,,0,42,42,159,1,4,word,VETERAN,cursive,veteran_c.png,,,,,
,,,,31806,001,2025-12-04_16h47.25.744,HW_LDT_1,2024.2.4,MacIntel,59.88023952,,,,,,,,,,,,,,,,,,,,,256.5063,256.7032,256.7032,257.2039,,,,,,,,,,,,,,1.1975,1,,,,,,,,,,,,,,m,,,,,,,,,,,,,,,44,0,257.2044,258.4032,m,1,1.1975,,[],[],[],[],[],[],[],258.4033,260.4042,260.4042,260.4044,[],[],[],[],[],[],[],,260.4044,260.4045,-0.087382813,-0.36499566,0,0,0,,0,43,43,85,1,4,word,BENEFIT,cursive,benefit_c.png,,,,,
,,,,31806,001,2025-12-04_16h47.25.744,HW_LDT_1,2024.2.4,MacIntel,59.88023952,,,,,,,,,,,,,,,,,,,,,260.4059,260.6032,260.6032,261.1032,,,,,,,,,,,,,,0.7416,1,,,,,,,,,,,,,,m,,,,,,,,,,,,,,,45,0,261.1035,261.8544,m,1,0.7416,,[],[],[],[],[],[],[],261.8544,263.8535,263.8535,263.8537,[],[],[],[],[],[],[],,263.8537,263.8538,-0.087382813,-0.36499566,0,0,0,,0,44,44,111,1,4,word,INDICATE,print,indicate_p.png,,,,,
,,,,31806,001,2025-12-04_16h47.25.744,HW_LDT_1,2024.2.4,MacIntel,59.88023952,,,,,,,,,,,,,,,,,,,,,263.8551,264.0541,264.0542,264.5542,,,,,,,,,,,,,,0.652,1,,,,,,,,,,,,,,m,,,,,,,,,,,,,,,46,0,264.5545,265.2199,m,1,0.652,,[],[],[],[],[],[],[],265.2199,267.2198,267.2198,267.22,[],[],[],[],[],[],[],,267.22,267.2201,-0.087382813,-0.36499566,0,0,0,,0,45,45,103,1,4,word,DISPUTE,print,dispute_p.png,,,,,
,,,,31806,001,2025-12-04_16h47.25.744,HW_LDT_1,2024.2.4,MacIntel,59.88023952,,,,,,,,,,,,,,,,,,,,,267.221,267.4198,267.4199,267.9198,,,,,,,,,,,,,,0.8212,1,,,,,,,,,,,,,,z,,,,,,,,,,,,,,,47,0,267.9202,268.7542,z,1,0.8212,,[],[],[],[],[],[],[],268.7543,270.7541,270.7542,270.7543,[],[],[],[],[],[],[],,270.7544,270.7545,-0.087382813,-0.36499566,0,0,0,,0,46,46,14,1,4,RL,delahe,cursive,delahe_c.png,,,,,
,,,,31806,001,2025-12-04_16h47.25.744,HW_LDT_1,2024.2.4,MacIntel,59.88023952,,,,,,,,,,,,,,,,,,,,,270.7558,270.9531,270.9531,271.4531,,,,,,,,,,,,,,1.0581,1,,,,,,,,,,,,,,z,,,,,,,,,,,,,,,48,0,271.4535,272.5209,z,1,1.0581,,[],[],[],[],[],[],[],272.5211,274.521,274.521,274.5212,[],[],[],[],[],[],[],,274.5213,274.5214,-0.087382813,-0.36499566,0,0,0,,0,47,47,16,1,4,RL,desifate,cursive,desifate_c.png,,,,,
,,,,31806,001,2025-12-04_16h47.25.744,HW_LDT_1,2024.2.4,MacIntel,59.88023952,,,,,,,,,,,,,,,,,,,,,274.5228,274.7207,274.7207,275.2204,,,,,,,,,,,,,,0.933,1,,,,,,,,,,,,,,z,,,,,,,,,,,,,,,49,0,275.2209,276.1546,z,1,0.933,,[],[],[],[],[],[],[],276.1548,278.1542,278.1544,278.1546,[],[],[],[],[],[],[],,278.1547,278.1547,-0.087382813,-0.36499566,0,0,0,,0,48,48,78,1,4,TL,stragety,print,stragety_p.png,,,,,
,,,,31806,001,2025-12-04_16h47.25.744,HW_LDT_1,2024.2.4,MacIntel,59.88023952,,,,,,,,,,,,,,,,,,,,,278.1564,278.3531,278.3532,278.8537,,,,,,,,,,,,,,0.6529,1,,,,,,,,,,,,,,m,,,,,,,,,,,,,,,50,0,278.8542,279.5209,m,1,0.6529,,[],[],[],[],[],[],[],279.521,281.5206,281.5207,281.5209,[],[],[],[],[],[],[],,281.5209,281.521,-0.087382813,-0.36499566,0,0,0,,0,49,49,88,1,4,word,CAMERA,print,camera_p.png,,,,,
,,,,31806,001,2025-12-04_16h47.25.744,HW_LDT_1,2024.2.4,MacIntel,59.88023952,,,,,,,,,,,,,,,,,,,,,281.522,281.7208,281.7209,282.22,,,,,,,,,,,,,,0.8524,1,,,,,,,,,,,,,,z,,,,,,,,,,,,,,,51,0,282.2205,283.0878,z,1,0.8524,,[],[],[],[],[],[],[],283.088,285.0874,285.0874,285.0875,[],[],[],[],[],[],[],,285.0875,285.0876,-0.087382813,-0.36499566,0,0,0,,0,50,50,28,1,4,RL,mifikary,print,mifikary_p.png,,,,,
,,,,31806,001,2025-12-04_16h47.25.744,HW_LDT_1,2024.2.4,MacIntel,59.88023952,,,,,,,,,,,,,,,,,,,,,285.0887,285.2875,285.2876,285.7867,,,,,,,,,,,,,,0.7199,1,,,,,,,,,,,,,,z,,,,,,,,,,,,,,,52,0,285.7872,286.5208,z,1,0.7199,,[],[],[],[],[],[],[],286.5209,288.5208,288.5208,288.521,[],[],[],[],[],[],[],,288.5211,288.5211,-0.087382813,-0.36499566,0,0,0,,0,51,51,5,1,4,RL,bebine,print,bebine_p.png,,,,,
,,,,31806,001,2025-12-04_16h47.25.744,HW_LDT_1,2024.2.4,MacIntel,59.88023952,,,,,,,,,,,,,,,,,,,,,288.5224,288.7208,288.7208,289.2207,,,,,,,,,,,,,,0.9218,1,,,,,,,,,,,,,,m,,,,,,,,,,,,,,,53,0,289.2213,290.1533,m,1,0.9218,,[],[],[],[],[],[],[],290.1534,292.1541,292.1541,292.1543,[],[],[],[],[],[],[],,292.1544,292.1546,-0.087382813,-0.36499566,0,0,0,,0,52,52,119,1,4,word,MEMORY,print,memory_p.png,,,,,
,,,,31806,001,2025-12-04_16h47.25.744,HW_LDT_1,2024.2.4,MacIntel,59.88023952,,,,,,,,,,,,,,,,,,,,,292.1558,292.3542,292.3542,292.8531,,,,,,,,,,,,,,0.8037,1,,,,,,,,,,,,,,m,,,,,,,,,,,,,,,54,0,292.8537,293.6708,m,1,0.8037,,[],[],[],[],[],[],[],293.6709,295.6702,295.6703,295.6704,[],[],[],[],[],[],[],,295.6705,295.6706,-0.087382813,-0.36499566,0,0,0,,0,53,53,120,1,4,word,MILITARY,print,military_p.png,,,,,
,,,,31806,001,2025-12-04_16h47.25.744,HW_LDT_1,2024.2.4,MacIntel,59.88023952,,,,,,,,,,,,,,,,,,,,,295.6717,295.8708,295.8708,296.3708,,,,,,,,,,,,,,0.7154,0,,,,,,,,,,,,,,m,,,,,,,,,,,,,,,55,0,296.3712,297.0874,z,0,0.7154,,[],[],[],[],[],[],[],297.0874,299.0874,299.0875,299.0876,[],[],[],[],[],[],[],,299.0876,299.0877,-0.087382813,-0.36499566,0,0,0,,0,54,54,114,1,4,word,LOCATE,cursive,locate_c.png,,,,,
,,,,31806,001,2025-12-04_16h47.25.744,HW_LDT_1,2024.2.4,MacIntel,59.88023952,,,,,,,,,,,,,,,,,,,,,299.0888,299.2875,299.2876,299.7874,,,,,,,,,,,,,,3.4733,0,,,,,,,,,,,,,,z,,,,,,,,,,,,,,,56,1,299.7879,303.2709,m,0,3.4733,,[],[],[],[],[],[],[],303.271,305.2707,305.2708,305.9375,[],[],[],[],[],[],[],z,305.9375,305.9376,-0.087382813,-0.36499566,0,0,0,,0,55,55,30,1,4,RL,nunewical,cursive,nunewical_c.png,0.6537,,,,
,,,,31806,001,2025-12-04_16h47.25.744,HW_LDT_1,2024.2.4,MacIntel,59.88023952,,,,,,,,,,,,,,,,,,,,,305.9388,306.1374,306.1374,306.6374,,,,,,,,,,,,,,0.9197,1,,,,,,,,,,,,,,m,,,,,,,,,,,,,,,57,0,306.6381,307.5709,m,1,0.9197,,[],[],[],[],[],[],[],307.5709,309.5705,309.5705,309.5706,[],[],[],[],[],[],[],,309.5707,309.5708,-0.087382813,-0.36499566,0,0,0,,0,56,56,134,1,4,word,QUALIFY,print,qualify_p.png,,,,,
,,,,31806,001,2025-12-04_16h47.25.744,HW_LDT_1,2024.2.4,MacIntel,59.88023952,,,,,,,,,,,,,,,,,,,,,309.5714,309.771,309.771,310.2708,,,,,,,,,,,,,,0.8157,1,,,,,,,,,,,,,,z,,,,,,,,,,,,,,,58,0,310.2713,311.0878,z,1,0.8157,,[],[],[],[],[],[],[],311.0878,313.0875,313.0875,313.0877,[],[],[],[],[],[],[],,313.0877,313.0879,-0.087382813,-0.36499566,0,0,0,,0,57,57,8,1,4,RL,casagity,cursive,casagity_c.png,,,,,
,,,,31806,001,2025-12-04_16h47.25.744,HW_LDT_1,2024.2.4,MacIntel,59.88023952,,,,,,,,,,,,,,,,,,,,,313.089,313.2876,313.2877,313.7875,,,,,,,,,,,,,,0.656,1,,,,,,,,,,,,,,m,,,,,,,,,,,,,,,59,0,313.7881,314.4533,m,1,0.656,,[],[],[],[],[],[],[],314.4534,316.4541,316.4541,316.4543,[],[],[],[],[],[],[],,316.4543,316.4544,-0.087382813,-0.36499566,0,0,0,,0,58,58,140,1,4,word,RELATIVE,print,relative_p.png,,,,,
,,,,31806,001,2025-12-04_16h47.25.744,HW_LDT_1,2024.2.4,MacIntel,59.88023952,,,,,,,,,,,,,,,,,,,,,316.4555,316.6536,316.6536,317.1541,,,,,,,,,,,,,,0.5314,1,,,,,,,,,,,,,,z,,,,,,,,,,,,,,,60,0,317.1547,317.6874,z,1,0.5314,,[],[],[],[],[],[],[],317.6874,319.6874,319.6874,319.6876,[],[],[],[],[],[],[],,319.6876,319.6877,-0.087382813,-0.36499566,0,0,0,,0,59,59,27,1,4,RL,menowy,print,menowy_p.png,,,,,
,,,,31806,001,2025-12-04_16h47.25.744,HW_LDT_1,2024.2.4,MacIntel,59.88023952,,,,,,,,,,,,,,,,,,,,,319.6888,319.8874,319.8874,320.3864,,,,,,,,,,,,,,0.5036,1,,,,,,,,,,,,,,m,,,,,,,,,,,,,,,61,0,320.387,320.9041,m,1,0.5036,,[],[],[],[],[],[],[],320.9042,322.9041,322.9041,322.9043,[],[],[],[],[],[],[],,322.9044,322.9045,-0.087382813,-0.36499566,0,0,0,,0,60,60,122,1,4,word,MOBILE,print,mobile_p.png,,,,,
,,,,31806,001,2025-12-04_16h47.25.744,HW_LDT_1,2024.2.4,MacIntel,59.88023952,,,,,,,,,,,,,,,,,,,,,322.9056,323.1041,323.1042,323.6041,,,,,,,,,,,,,,0.9895,1,,,,,,,,,,,,,,m,,,,,,,,,,,,,,,62,0,323.6046,324.6042,m,1,0.9895,,[],[],[],[],[],[],[],324.6042,326.6037,326.6038,326.604,[],[],[],[],[],[],[],,326.604,326.6041,-0.087382813,-0.36499566,0,0,0,,0,61,61,116,1,4,word,MARGINAL,cursive,marginal_c.png,,,,,
,,,,31806,001,2025-12-04_16h47.25.744,HW_LDT_1,2024.2.4,MacIntel,59.88023952,,,,,,,,,,,,,,,,,,,,,326.6053,326.8039,326.804,327.3041,,,,,,,,,,,,,,0.6654,1,,,,,,,,,,,,,,m,,,,,,,,,,,,,,,63,1,327.3046,327.9711,m,1,0.6654,,[],[],[],[],[],[],[],327.9712,329.9707,329.9707,330.5041,[],[],[],[],[],[],[],z,330.5042,330.5043,-0.087382813,-0.36499566,0,0,0,,0,62,62,151,1,4,word,SPECIFIC,cursive,specific_c.png,0.5201,,,,
,,,,31806,001,2025-12-04_16h47.25.744,HW_LDT_1,2024.2.4,MacIntel,59.88023952,,,,,,,,,,,,,,,,,,,,,330.5055,330.704,330.7041,331.204,,,,,,,,,,,,,,1.2161,1,,,,,,,,,,,,,,m,,,,,,,,,,,,,,,64,1,331.2045,332.4216,m,1,1.2161,,[],[],[],[],[],[],[],332.4216,334.4208,334.4209,335.7031,[],[],[],[],[],[],[],z,335.7032,335.7032,-0.087382813,-0.36499566,0,0,0,,0,63,63,109,1,4,word,GRATEFUL,print,grateful_p.png,1.2697,,,,
,,,,31806,001,2025-12-04_16h47.25.744,HW_LDT_1,2024.2.4,MacIntel,59.88023952,,,,,,,,,,,,,,,,,,,,,335.7042,335.9032,335.9032,336.403,,,,,,,,,,,,,,1.0324,1,,,,,,,,,,,,,,m,,,,,,,,,,,,,,,65,0,336.4034,337.4374,m,1,1.0324,,[],[],[],[],[],[],[],337.4375,339.4375,339.4375,339.4376,[],[],[],[],[],[],[],,339.4378,339.4378,-0.087382813,-0.36499566,0,0,0,,0,64,64,144,1,4,word,RESIDENT,cursive,resident_c.png,,,,,
,,,,31806,001,2025-12-04_16h47.25.744,HW_LDT_1,2024.2.4,MacIntel,59.88023952,,,,,,,,,,,,,,,,,,,,,339.4394,339.6365,339.6365,340.1363,,,,,,,,,,,,,,0.8244,1,,,,,,,,,,,,,,m,,,,,,,,,,,,,,,66,0,340.1368,340.9708,m,1,0.8244,,[],[],[],[],[],[],[],340.971,342.9697,342.9697,342.9698,[],[],[],[],[],[],[],,342.9699,342.97,-0.087382813,-0.36499566,0,0,0,,0,65,65,82,1,4,word,AMATEUR,cursive,amateur_c.png,,,,,
,,,,31806,001,2025-12-04_16h47.25.744,HW_LDT_1,2024.2.4,MacIntel,59.88023952,,,,,,,,,,,,,,,,,,,,,342.9712,343.1707,343.1707,343.6708,,,,,,,,,,,,,,0.9515,1,,,,,,,,,,,,,,z,,,,,,,,,,,,,,,67,0,343.6713,344.6365,z,1,0.9515,,[],[],[],[],[],[],[],344.6366,346.6374,346.6374,346.6376,[],[],[],[],[],[],[],,346.6377,346.6378,-0.087382813,-0.36499566,0,0,0,,0,66,66,50,1,4,RL,vecelan,cursive,vecelan_c.png,,,,,
,,,,31806,001,2025-12-04_16h47.25.744,HW_LDT_1,2024.2.4,MacIntel,59.88023952,,,,,,,,,,,,,,,,,,,,,346.6392,346.8374,346.8374,347.3363,,,,,,,,,,,,,,0.6823,1,,,,,,,,,,,,,,m,,,,,,,,,,,,,,,68,0,347.3368,348.0206,m,1,0.6823,,[],[],[],[],[],[],[],348.0207,350.0208,350.0209,350.0211,[],[],[],[],[],[],[],,350.0212,350.0214,-0.087382813,-0.36499566,0,0,0,,0,67,67,118,1,4,word,MEDICINE,cursive,medicine_c.png,,,,,
,,,,31806,001,2025-12-04_16h47.25.744,HW_LDT_1,2024.2.4,MacIntel,59.88023952,,,,,,,,,,,,,,,,,,,,,350.0226,350.2197,350.2197,350.7207,,,,,,,,,,,,,,1.2017,1,,,,,,,,,,,,,,z,,,,,,,,,,,,,,,69,0,350.7211,351.9376,z,1,1.2017,,[],[],[],[],[],[],[],351.9377,353.9364,353.9364,353.9366,[],[],[],[],[],[],[],,353.9367,353.9367,-0.087382813,-0.36499566,0,0,0,,0,68,68,32,1,4,RL,patisic,cursive,patisic_c.png,,,,,
,,,,31806,001,2025-12-04_16h47.25.744,HW_LDT_1,2024.2.4,MacIntel,59.88023952,,,,,,,,,,,,,,,,,,,,,353.9377,354.1373,354.1374,354.6373,,,,,,,,,,,,,,1.0692,1,,,,,,,,,,,,,,z,,,,,,,,,,,,,,,70,0,354.638,355.7208,z,1,1.0692,,[],[],[],[],[],[],[],355.7209,357.7198,357.7198,357.72,[],[],[],[],[],[],[],,357.72,357.7202,-0.087382813,-0.36499566,0,0,0,,0,69,69,52,1,4,TL,cagetory,cursive,cagetory_c.png,,,,,
,,,,31806,001,2025-12-04_16h47.25.744,HW_LDT_1,2024.2.4,MacIntel,59.88023952,,,,,,,,,,,,,,,,,,,,,357.7212,357.9202,357.9203,358.4198,,,,,,,,,,,,,,0.6374,1,,,,,,,,,,,,,,z,,,,,,,,,,,,,,,71,0,358.4203,359.0701,z,1,0.6374,,[],[],[],[],[],[],[],359.0701,361.0706,361.0707,361.0709,[],[],[],[],[],[],[],,361.0709,361.0711,-0.087382813,-0.36499566,0,0,0,,0,70,70,76,1,4,TL,setanor,print,setanor_p.png,,,,,
,,,,31806,001,2025-12-04_16h47.25.744,HW_LDT_1,2024.2.4,MacIntel,59.88023952,,,,,,,,,,,,,,,,,,,,,361.0722,361.2707,361.2707,361.7707,,,,,,,,,,,,,,1.703,0,,,,,,,,,,,,,,m,,,,,,,,,,,,,,,72,0,361.7712,363.4867,z,0,1.703,,[],[],[],[],[],[],[],363.4868,365.4875,365.4875,365.4878,[],[],[],[],[],[],[],,365.4878,365.488,-0.087382813,-0.36499566,0,0,0,,0,71,71,81,1,4,word,ADVISORY,cursive,advisory_c.png,,,,,
,,,,31806,001,2025-12-04_16h47.25.744,HW_LDT_1,2024.2.4,MacIntel,59.88023952,,,,,,,,,,,,,,,,,,,,,365.4892,365.6873,365.6874,366.1872,,,,,,,,,,,,,,0.6214,1,,,,,,,,,,,,,,m,,,,,,,,,,,,,,,73,0,366.1878,366.8208,m,1,0.6214,,[],[],[],[],[],[],[],366.8209,368.8196,368.8197,368.8198,[],[],[],[],[],[],[],,368.8199,368.82,-0.087382813,-0.36499566,0,0,0,,0,72,72,115,1,4,word,LOGICAL,print,logical_p.png,,,,,
,,,,31806,001,2025-12-04_16h47.25.744,HW_LDT_1,2024.2.4,MacIntel,59.88023952,,,,,,,,,,,,,,,,,,,,,368.8209,369.0207,369.0207,369.5196,,,,,,,,,,,,,,0.6213,1,,,,,,,,,,,,,,m,,,,,,,,,,,,,,,74,0,369.5201,370.1537,m,1,0.6213,,[],[],[],[],[],[],[],370.1537,372.154,372.154,372.1542,[],[],[],[],[],[],[],,372.1542,372.1544,-0.087382813,-0.36499566,0,0,0,,0,73,73,150,1,4,word,SENTIMENT,print,sentiment_p.png,,,,,
,,,,31806,001,2025-12-04_16h47.25.744,HW_LDT_1,2024.2.4,MacIntel,59.88023952,,,,,,,,,,,,,,,,,,,,,372.1556,372.3539,372.354,372.8539,,,,,,,,,,,,,,0.6814,1,,,,,,,,,,,,,,z,,,,,,,,,,,,,,,75,0,372.8545,373.5372,z,1,0.6814,,[],[],[],[],[],[],[],373.5373,375.5373,375.5374,375.5375,[],[],[],[],[],[],[],,375.5375,375.5377,-0.087382813,-0.36499566,0,0,0,,0,74,74,2,1,4,RL,asiral,cursive,asiral_c.png,,,,,
,,,,31806,001,2025-12-04_16h47.25.744,HW_LDT_1,2024.2.4,MacIntel,59.88023952,,,,,,,,,,,,,,,,,,,,,375.539,375.7374,375.7374,376.2368,,,,,,,,,,,,,,0.7661,1,,,,,,,,,,,,,,z,,,,,,,,,,,,,,,76,0,376.2374,377.0041,z,1,0.7661,,[],[],[],[],[],[],[],377.0042,379.0036,379.0036,379.0038,[],[],[],[],[],[],[],,379.0039,379.004,-0.087382813,-0.36499566,0,0,0,,0,75,75,43,1,4,RL,rovastic,print,rovastic_p.png,,,,,
,,,,31806,001,2025-12-04_16h47.25.744,HW_LDT_1,2024.2.4,MacIntel,59.88023952,,,,,,,,,,,,,,,,,,,,,379.0053,379.204,379.204,379.704,,,,,,,,,,,,,,0.7856,1,,,,,,,,,,,,,,m,,,,,,,,,,,,,,,77,0,379.7047,380.5041,m,1,0.7856,,[],[],[],[],[],[],[],380.5042,382.504,382.504,382.5041,[],[],[],[],[],[],[],,382.5042,382.5044,-0.087382813,-0.36499566,0,0,0,,0,76,76,112,1,4,word,LIBERAL,cursive,liberal_c.png,,,,,
,,,,31806,001,2025-12-04_16h47.25.744,HW_LDT_1,2024.2.4,MacIntel,59.88023952,,,,,,,,,,,,,,,,,,,,,382.5057,382.704,382.704,383.204,,,,,,,,,,,,,,1.136,1,,,,,,,,,,,,,,z,,,,,,,,,,,,,,,78,0,383.2045,384.3541,z,1,1.136,,[],[],[],[],[],[],[],384.3542,386.3537,386.3538,386.354,[],[],[],[],[],[],[],,386.3542,386.3543,-0.087382813,-0.36499566,0,0,0,,0,77,77,45,1,4,RL,spetisic,cursive,spetisic_c.png,,,,,
,,,,31806,001,2025-12-04_16h47.25.744,HW_LDT_1,2024.2.4,MacIntel,59.88023952,,,,,,,,,,,,,,,,,,,,,386.3552,386.5531,386.5531,387.0541,,,,,,,,,,,,,,1.0203,1,,,,,,,,,,,,,,z,,,,,,,,,,,,,,,79,1,387.0545,388.0874,z,1,1.0203,,[],[],[],[],[],[],[],388.0875,390.0873,390.0874,391.4867,[],[],[],[],[],[],[],z,391.4869,391.487,-0.087382813,-0.36499566,0,0,0,,0,78,78,41,1,4,RL,rebicent,cursive,rebicent_c.png,1.3874,,,,
,,,,31806,001,2025-12-04_16h47.25.744,HW_LDT_1,2024.2.4,MacIntel,59.88023952,,,,,,,,,,,,,,,,,,,,,391.4882,391.6873,391.6874,392.1873,,,,,,,,,,,,,,0.9745,1,,,,,,,,,,,,,,z,,,,,,,,,,,,,,,80,0,392.1879,393.1708,z,1,0.9745,,[],[],[],[],[],[],[],393.171,395.1704,395.1705,395.1707,[],[],[],[],[],[],[],,395.1708,399.5875,-0.087673611,-0.362278646,1,0,0,,0,79,79,18,1,4,RL,disluge,print,disluge_p.png,,,break_done_button,,
,,,,31806,001,2025-12-04_16h47.25.744,HW_LDT_1,2024.2.4,MacIntel,59.88023952,,,,,,,,,,,,,,,,,,,,,399.5887,399.7873,399.7874,400.2874,,,,,,,,,,,,,,1.2178,0,,,,,,,,,,,,,,z,,,,,,,,,,,,,,,81,0,400.2879,401.521,m,0,1.2178,,[],[],[],[],[],[],[],401.5211,403.5207,403.5208,403.521,[],[],[],[],[],[],[],,403.5211,403.5212,-0.087673611,-0.362278646,0,0,0,,0,80,80,66,1,4,TL,opmital,print,opmital_p.png,,,,,
,,,,31806,001,2025-12-04_16h47.25.744,HW_LDT_1,2024.2.4,MacIntel,59.88023952,,,,,,,,,,,,,,,,,,,,,403.5225,403.7205,403.7207,404.2198,,,,,,,,,,,,,,0.6538,1,,,,,,,,,,,,,,m,,,,,,,,,,,,,,,82,0,404.2202,404.8876,m,1,0.6538,,[],[],[],[],[],[],[],404.8877,406.8875,406.8876,406.8878,[],[],[],[],[],[],[],,406.8878,406.8879,-0.087673611,-0.362278646,0,0,0,,0,81,81,105,1,4,word,EDITOR,print,editor_p.png,,,,,
,,,,31806,001,2025-12-04_16h47.25.744,HW_LDT_1,2024.2.4,MacIntel,59.88023952,,,,,,,,,,,,,,,,,,,,,406.8894,407.0872,407.0873,407.5873,,,,,,,,,,,,,,0.6067,1,,,,,,,,,,,,,,m,,,,,,,,,,,,,,,83,0,407.5879,408.2041,m,1,0.6067,,[],[],[],[],[],[],[],408.2042,410.203,410.203,410.2032,[],[],[],[],[],[],[],,410.2032,410.2034,-0.087673611,-0.362278646,0,0,0,,0,82,82,110,1,4,word,HERITAGE,print,heritage_p.png,,,,,
,,,,31806,001,2025-12-04_16h47.25.744,HW_LDT_1,2024.2.4,MacIntel,59.88023952,,,,,,,,,,,,,,,,,,,,,410.2044,410.404,410.404,410.904,,,,,,,,,,,,,,0.924,1,,,,,,,,,,,,,,z,,,,,,,,,,,,,,,84,0,410.9046,411.8375,z,1,0.924,,[],[],[],[],[],[],[],411.8375,413.8373,413.8374,413.8376,[],[],[],[],[],[],[],,413.8377,413.8378,-0.087673611,-0.362278646,0,0,0,,0,83,83,69,1,4,TL,quafily,print,quafily_p.png,,,,,
,,,,31806,001,2025-12-04_16h47.25.744,HW_LDT_1,2024.2.4,MacIntel,59.88023952,,,,,,,,,,,,,,,,,,,,,413.8391,414.0373,414.0374,414.5374,,,,,,,,,,,,,,0.6986,0,,,,,,,,,,,,,,m,,,,,,,,,,,,,,,85,0,414.5381,415.2375,z,0,0.6986,,[],[],[],[],[],[],[],415.2375,417.2374,417.2374,417.2375,[],[],[],[],[],[],[],,417.2376,417.2378,-0.087673611,-0.362278646,0,0,0,,0,84,84,87,1,4,word,CAFETERIA,cursive,cafeteria_c.png,,,,,
,,,,31806,001,2025-12-04_16h47.25.744,HW_LDT_1,2024.2.4,MacIntel,59.88023952,,,,,,,,,,,,,,,,,,,,,417.2393,417.4364,417.4364,417.9372,,,,,,,,,,,,,,1.3183,1,,,,,,,,,,,,,,m,,,,,,,,,,,,,,,86,1,417.9377,419.2698,m,1,1.3183,,[],[],[],[],[],[],[],419.2699,421.2707,421.2707,422.2704,[],[],[],[],[],[],[],z,422.2705,422.2706,-0.087673611,-0.362278646,0,0,0,,0,85,85,131,1,4,word,POPULAR,print,popular_p.png,0.9855,,,,
,,,,31806,001,2025-12-04_16h47.25.744,HW_LDT_1,2024.2.4,MacIntel,59.88023952,,,,,,,,,,,,,,,,,,,,,422.272,422.4706,422.4706,422.9696,,,,,,,,,,,,,,0.5663,1,,,,,,,,,,,,,,m,,,,,,,,,,,,,,,87,0,422.9701,423.5373,m,1,0.5663,,[],[],[],[],[],[],[],423.5374,425.5373,425.5374,425.5375,[],[],[],[],[],[],[],,425.5376,425.5376,-0.087673611,-0.362278646,0,0,0,,0,86,86,84,1,4,word,BELOVED,print,beloved_p.png,,,,,
,,,,31806,001,2025-12-04_16h47.25.744,HW_LDT_1,2024.2.4,MacIntel,59.88023952,,,,,,,,,,,,,,,,,,,,,425.539,425.7373,425.7373,426.2363,,,,,,,,,,,,,,0.6079,1,,,,,,,,,,,,,,z,,,,,,,,,,,,,,,88,0,426.2368,426.8531,z,1,0.6079,,[],[],[],[],[],[],[],426.8531,428.853,428.853,428.8531,[],[],[],[],[],[],[],,428.8531,428.8532,-0.087673611,-0.362278646,0,0,0,,0,87,87,60,1,4,TL,hetirage,print,hetirage_p.png,,,,,
,,,,31806,001,2025-12-04_16h47.25.744,HW_LDT_1,2024.2.4,MacIntel,59.88023952,,,,,,,,,,,,,,,,,,,,,428.8543,429.054,429.0542,429.5539,,,,,,,,,,,,,,0.6531,1,,,,,,,,,,,,,,z,,,,,,,,,,,,,,,89,0,429.5545,430.2202,z,1,0.6531,,[],[],[],[],[],[],[],430.2203,432.2206,432.2207,432.2209,[],[],[],[],[],[],[],,432.221,432.221,-0.087673611,-0.362278646,0,0,0,,0,88,88,70,1,4,TL,quatily,print,quatily_p.png,,,,,
,,,,31806,001,2025-12-04_16h47.25.744,HW_LDT_1,2024.2.4,MacIntel,59.88023952,,,,,,,,,,,,,,,,,,,,,432.2224,432.4207,432.4207,432.9205,,,,,,,,,,,,,,0.253,0,,,,,,,,,,,,,,m,,,,,,,,,,,,,,,90,0,432.9212,433.1873,z,0,0.253,,[],[],[],[],[],[],[],433.1874,435.1873,435.1874,435.1876,[],[],[],[],[],[],[],,435.1877,435.1878,-0.087673611,-0.362278646,0,0,0,,0,89,89,93,1,4,word,CEREMONY,print,ceremony_p.png,,,,,
,,,,31806,001,2025-12-04_16h47.25.744,HW_LDT_1,2024.2.4,MacIntel,59.88023952,,,,,,,,,,,,,,,,,,,,,435.189,435.3871,435.3873,435.8867,,,,,,,,,,,,,,0.6371,0,,,,,,,,,,,,,,z,,,,,,,,,,,,,,,91,0,435.8873,436.5373,m,0,0.6371,,[],[],[],[],[],[],[],436.5374,438.5372,438.5373,438.5374,[],[],[],[],[],[],[],,438.5374,438.5375,-0.087673611,-0.362278646,0,0,0,,0,90,90,35,1,4,RL,probice,cursive,probice_c.png,,,,,
,,,,31806,001,2025-12-04_16h47.25.744,HW_LDT_1,2024.2.4,MacIntel,59.88023952,,,,,,,,,,,,,,,,,,,,,438.5385,438.7372,438.7373,439.2372,,,,,,,,,,,,,,0.4032,1,,,,,,,,,,,,,,m,,,,,,,,,,,,,,,92,0,439.2377,439.6541,m,1,0.4032,,[],[],[],[],[],[],[],439.6541,441.6539,441.654,441.6542,[],[],[],[],[],[],[],,441.6543,441.6543,-0.087673611,-0.362278646,0,0,0,,0,91,91,141,1,4,word,RELIGION,print,religion_p.png,,,,,
,,,,31806,001,2025-12-04_16h47.25.744,HW_LDT_1,2024.2.4,MacIntel,59.88023952,,,,,,,,,,,,,,,,,,,,,441.6557,441.8539,441.8539,442.3539,,,,,,,,,,,,,,0.5531,1,,,,,,,,,,,,,,m,,,,,,,,,,,,,,,93,0,442.3544,442.9207,m,1,0.5531,,[],[],[],[],[],[],[],442.9208,444.9207,444.9207,444.9209,[],[],[],[],[],[],[],,444.921,444.9211,-0.087673611,-0.362278646,0,0,0,,0,92,92,136,1,4,word,RADICAL,print,radical_p.png,,,,,
,,,,31806,001,2025-12-04_16h47.25.744,HW_LDT_1,2024.2.4,MacIntel,59.88023952,,,,,,,,,,,,,,,,,,,,,444.9225,445.1206,445.1207,445.6205,,,,,,,,,,,,,,0.5198,1,,,,,,,,,,,,,,m,,,,,,,,,,,,,,,94,0,445.6209,446.154,m,1,0.5198,,[],[],[],[],[],[],[],446.1542,448.154,448.154,448.1542,[],[],[],[],[],[],[],,448.1543,448.1544,-0.087673611,-0.362278646,0,0,0,,0,93,93,100,1,4,word,DECADE,cursive,decade_c.png,,,,,
,,,,31806,001,2025-12-04_16h47.25.744,HW_LDT_1,2024.2.4,MacIntel,59.88023952,,,,,,,,,,,,,,,,,,,,,448.1558,448.3539,448.354,448.854,,,,,,,,,,,,,,1.114,1,,,,,,,,,,,,,,z,,,,,,,,,,,,,,,95,0,448.8545,449.9697,z,1,1.114,,[],[],[],[],[],[],[],449.9697,451.9697,451.9697,451.9699,[],[],[],[],[],[],[],,451.9699,451.9699,-0.087673611,-0.362278646,0,0,0,,0,94,94,51,1,4,TL,adsivory,cursive,adsivory_c.png,,,,,
,,,,31806,001,2025-12-04_16h47.25.744,HW_LDT_1,2024.2.4,MacIntel,59.88023952,,,,,,,,,,,,,,,,,,,,,451.9712,452.1706,452.1706,452.6705,,,,,,,,,,,,,,0.8325,1,,,,,,,,,,,,,,z,,,,,,,,,,,,,,,96,0,452.6711,453.5042,z,1,0.8325,,[],[],[],[],[],[],[],453.5042,455.5039,455.504,455.5042,[],[],[],[],[],[],[],,455.5043,455.5044,-0.087673611,-0.362278646,0,0,0,,0,95,95,65,1,4,TL,orepator,print,orepator_p.png,,,,,
,,,,31806,001,2025-12-04_16h47.25.744,HW_LDT_1,2024.2.4,MacIntel,59.88023952,,,,,,,,,,,,,,,,,,,,,455.5058,455.7037,455.7038,456.2039,,,,,,,,,,,,,,0.7215,1,,,,,,,,,,,,,,m,,,,,,,,,,,,,,,97,0,456.2046,456.9373,m,1,0.7215,,[],[],[],[],[],[],[],456.9374,458.9372,458.9373,458.9374,[],[],[],[],[],[],[],,458.9375,458.9377,-0.087673611,-0.362278646,0,0,0,,0,96,96,98,1,4,word,CRIMINAL,cursive,criminal_c.png,,,,,
,,,,31806,001,2025-12-04_16h47.25.744,HW_LDT_1,2024.2.4,MacIntel,59.88023952,,,,,,,,,,,,,,,,,,,,,458.939,459.1372,459.1373,459.6373,,,,,,,,,,,,,,1.2699,1,,,,,,,,,,,,,,z,,,,,,,,,,,,,,,98,0,459.6378,460.9206,z,1,1.2699,,[],[],[],[],[],[],[],460.9208,462.9205,462.9206,462.9208,[],[],[],[],[],[],[],,462.9209,462.9209,-0.087673611,-0.362278646,0,0,0,,0,97,97,6,1,4,RL,caleberia,cursive,caleberia_c.png,,,,,
,,,,31806,001,2025-12-04_16h47.25.744,HW_LDT_1,2024.2.4,MacIntel,59.88023952,,,,,,,,,,,,,,,,,,,,,462.9224,463.1198,463.1198,463.6205,,,,,,,,,,,,,,1.6198,1,,,,,,,,,,,,,,z,,,,,,,,,,,,,,,99,0,463.6211,465.2539,z,1,1.6198,,[],[],[],[],[],[],[],465.254,467.254,467.2541,467.2543,[],[],[],[],[],[],[],,467.2544,467.2545,-0.087673611,-0.362278646,0,0,0,,0,98,98,12,1,4,RL,conbicer,cursive,conbicer_c.png,,,,,
,,,,31806,001,2025-12-04_16h47.25.744,HW_LDT_1,2024.2.4,MacIntel,59.88023952,,,,,,,,,,,,,,,,,,,,,467.256,467.4537,467.4537,467.9538,,,,,,,,,,,,,,1.8989,0,,,,,,,,,,,,,,m,,,,,,,,,,,,,,,100,0,467.9541,469.8532,,0,,,[-0.2710416666666667],[-0.2267361111111111],[1],[0],[0],[1.8989000000059377],"[""button_left_main""]",469.8534,471.8539,471.8539,471.8542,[],[],[],[],[],[],[],,471.8542,471.8544,-0.271041667,-0.226736111,0,0,0,,0,99,99,113,1,4,word,LITERAL,cursive,literal_c.png,,,,,
,,,,31806,001,2025-12-04_16h47.25.744,HW_LDT_1,2024.2.4,MacIntel,59.88023952,,,,,,,,,,,,,,,,,,,,,471.8557,472.054,472.054,472.5529,,,,,,,,,,,,,,1.8387,1,,,,,,,,,,,,,,m,,,,,,,,,,,,,,,101,0,472.5534,474.4041,m,1,1.8387,,[],[],[],[],[],[],[],474.4043,476.4034,476.4035,476.4037,[],[],[],[],[],[],[],,476.4037,476.4039,-0.271041667,-0.226736111,0,0,0,,0,100,100,129,1,4,word,PARENT,cursive,parent_c.png,,,,,
,,,,31806,001,2025-12-04_16h47.25.744,HW_LDT_1,2024.2.4,MacIntel,59.88023952,,,,,,,,,,,,,,,,,,,,,476.4052,476.6028,476.6028,477.1028,,,,,,,,,,,,,,0.9652,1,,,,,,,,,,,,,,z,,,,,,,,,,,,,,,102,0,477.1032,478.0704,z,1,0.9652,,[],[],[],[],[],[],[],478.0705,480.0705,480.0706,480.0708,[],[],[],[],[],[],[],,480.0709,480.0709,-0.271041667,-0.226736111,0,0,0,,0,101,101,36,1,4,RL,rabigly,cursive,rabigly_c.png,,,,,
,,,,31806,001,2025-12-04_16h47.25.744,HW_LDT_1,2024.2.4,MacIntel,59.88023952,,,,,,,,,,,,,,,,,,,,,480.0722,480.2704,480.2705,480.7695,,,,,,,,,,,,,,0.5318,1,,,,,,,,,,,,,,m,,,,,,,,,,,,,,,103,0,480.7699,481.3037,m,1,0.5318,,[],[],[],[],[],[],[],481.3038,483.3028,483.3029,483.3031,[],[],[],[],[],[],[],,483.3031,483.3033,-0.271041667,-0.226736111,0,0,0,,0,102,102,154,1,4,word,STORAGE,print,storage_p.png,,,,,
,,,,31806,001,2025-12-04_16h47.25.744,HW_LDT_1,2024.2.4,MacIntel,59.88023952,,,,,,,,,,,,,,,,,,,,,483.3044,483.5028,483.5029,484.0038,,,,,,,,,,,,,,0.453,1,,,,,,,,,,,,,,m,,,,,,,,,,,,,,,104,0,484.0044,484.4705,m,1,0.453,,[],[],[],[],[],[],[],484.4706,486.4703,486.4704,486.4706,[],[],[],[],[],[],[],,486.4706,486.4706,-0.271041667,-0.226736111,0,0,0,,0,103,103,125,1,4,word,OPERATOR,print,operator_p.png,,,,,
,,,,31806,001,2025-12-04_16h47.25.744,HW_LDT_1,2024.2.4,MacIntel,59.88023952,,,,,,,,,,,,,,,,,,,,,486.4718,486.6705,486.6706,487.1701,,,,,,,,,,,,,,0.9366,1,,,,,,,,,,,,,,z,,,,,,,,,,,,,,,105,0,487.1706,488.1205,z,1,0.9366,,[],[],[],[],[],[],[],488.1206,490.1201,490.1201,490.1203,[],[],[],[],[],[],[],,490.1203,490.1204,-0.271041667,-0.226736111,0,0,0,,0,104,104,4,1,4,RL,betemit,cursive,betemit_c.png,,,,,
,,,,31806,001,2025-12-04_16h47.25.744,HW_LDT_1,2024.2.4,MacIntel,59.88023952,,,,,,,,,,,,,,,,,,,,,490.1215,490.3195,490.3195,490.8195,,,,,,,,,,,,,,1.0532,1,,,,,,,,,,,,,,m,,,,,,,,,,,,,,,106,0,490.8199,491.8872,m,1,1.0532,,[],[],[],[],[],[],[],491.8873,493.8864,493.8864,493.8867,[],[],[],[],[],[],[],,493.8867,493.8869,-0.271041667,-0.226736111,0,0,0,,0,105,105,138,1,4,word,REFUSAL,cursive,refusal_c.png,,,,,
,,,,31806,001,2025-12-04_16h47.25.744,HW_LDT_1,2024.2.4,MacIntel,59.88023952,,,,,,,,,,,,,,,,,,,,,493.888,494.0863,494.0863,494.5861,,,,,,,,,,,,,,0.9833,1,,,,,,,,,,,,,,m,,,,,,,,,,,,,,,107,1,494.5865,495.5706,m,1,0.9833,,[],[],[],[],[],[],[],495.5707,497.5695,497.5695,499.4366,[],[],[],[],[],[],[],z,499.4367,499.4367,-0.271041667,-0.226736111,0,0,0,,0,106,106,147,1,4,word,ROMANTIC,print,romantic_p.png,1.8551,,,,
,,,,31806,001,2025-12-04_16h47.25.744,HW_LDT_1,2024.2.4,MacIntel,59.88023952,,,,,,,,,,,,,,,,,,,,,499.4378,499.6372,499.6373,500.1362,,,,,,,,,,,,,,0.6367,0,,,,,,,,,,,,,,z,,,,,,,,,,,,,,,108,0,500.1366,500.7871,m,0,0.6367,,[],[],[],[],[],[],[],500.7873,502.7871,502.7872,502.7874,[],[],[],[],[],[],[],,502.7874,502.7875,-0.271041667,-0.226736111,0,0,0,,0,107,107,53,1,4,TL,cemerony,print,cemerony_p.png,,,,,
,,,,31806,001,2025-12-04_16h47.25.744,HW_LDT_1,2024.2.4,MacIntel,59.88023952,,,,,,,,,,,,,,,,,,,,,502.7888,502.9869,502.9869,503.4871,,,,,,,,,,,,,,0.6525,1,,,,,,,,,,,,,,z,,,,,,,,,,,,,,,109,0,503.4877,504.1534,z,1,0.6525,,[],[],[],[],[],[],[],504.1534,506.1528,506.1528,506.153,[],[],[],[],[],[],[],,506.153,506.1531,-0.271041667,-0.226736111,0,0,0,,0,108,108,20,1,4,RL,gralekul,print,gralekul_p.png,,,,,
,,,,31806,001,2025-12-04_16h47.25.744,HW_LDT_1,2024.2.4,MacIntel,59.88023952,,,,,,,,,,,,,,,,,,,,,506.1541,506.3537,506.3537,506.8538,,,,,,,,,,,,,,0.9029,1,,,,,,,,,,,,,,m,,,,,,,,,,,,,,,110,1,506.8543,507.7706,m,1,0.9029,,[],[],[],[],[],[],[],507.7707,509.7704,509.7704,512.0711,[],[],[],[],[],[],[],z,512.0711,512.0713,-0.271041667,-0.226736111,0,0,0,,0,109,109,94,1,4,word,CLINICAL,print,clinical_p.png,2.3,,,,
,,,,31806,001,2025-12-04_16h47.25.744,HW_LDT_1,2024.2.4,MacIntel,59.88023952,,,,,,,,,,,,,,,,,,,,,512.0723,512.2706,512.2706,512.7704,,,,,,,,,,,,,,0.9196,1,,,,,,,,,,,,,,z,,,,,,,,,,,,,,,111,0,512.771,513.704,z,1,0.9196,,[],[],[],[],[],[],[],513.7042,515.7037,515.7037,515.704,[],[],[],[],[],[],[],,515.704,515.7041,-0.271041667,-0.226736111,0,0,0,,0,110,110,38,1,4,RL,refakive,print,refakive_p.png,,,,,
,,,,31806,001,2025-12-04_16h47.25.744,HW_LDT_1,2024.2.4,MacIntel,59.88023952,,,,,,,,,,,,,,,,,,,,,515.7051,515.9037,515.9037,516.4039,,,,,,,,,,,,,,0.9861,1,,,,,,,,,,,,,,z,,,,,,,,,,,,,,,112,0,516.4043,517.4038,z,1,0.9861,,[],[],[],[],[],[],[],517.4039,519.403,519.403,519.4032,[],[],[],[],[],[],[],,519.4032,519.4034,-0.271041667,-0.226736111,0,0,0,,0,111,111,61,1,4,TL,lotace,cursive,lotace_c.png,,,,,
,,,,31806,001,2025-12-04_16h47.25.744,HW_LDT_1,2024.2.4,MacIntel,59.88023952,,,,,,,,,,,,,,,,,,,,,519.4045,519.6032,519.6032,520.1038,,,,,,,,,,,,,,0.7697,1,,,,,,,,,,,,,,m,,,,,,,,,,,,,,,113,1,520.1042,520.8871,m,1,0.7697,,[],[],[],[],[],[],[],520.8872,522.887,522.8871,529.3194,[],[],[],[],[],[],[],z,529.3194,529.3195,-0.271041667,-0.226736111,0,0,0,,0,112,112,149,1,4,word,SENATOR,print,senator_p.png,6.4201,,,,
,,,,31806,001,2025-12-04_16h47.25.744,HW_LDT_1,2024.2.4,MacIntel,59.88023952,,,,,,,,,,,,,,,,,,,,,529.3206,529.5204,529.5204,530.0203,,,,,,,,,,,,,,2.5194,1,,,,,,,,,,,,,,z,,,,,,,,,,,,,,,114,0,530.0209,532.5537,z,1,2.5194,,[],[],[],[],[],[],[],532.5538,534.5527,534.5528,534.5529,[],[],[],[],[],[],[],,534.5529,534.553,-0.271041667,-0.226736111,0,0,0,,0,113,113,23,1,4,RL,linefal,cursive,linefal_c.png,,,,,
,,,,31806,001,2025-12-04_16h47.25.744,HW_LDT_1,2024.2.4,MacIntel,59.88023952,,,,,,,,,,,,,,,,,,,,,534.5539,534.7527,534.7528,535.2527,,,,,,,,,,,,,,0.8539,1,,,,,,,,,,,,,,z,,,,,,,,,,,,,,,115,0,535.2532,536.1194,z,1,0.8539,,[],[],[],[],[],[],[],536.1195,538.1204,538.1205,538.1207,[],[],[],[],[],[],[],,538.1207,538.1208,-0.271041667,-0.226736111,0,0,0,,0,114,114,73,1,4,TL,regilion,print,regilion_p.png,,,,,
,,,,31806,001,2025-12-04_16h47.25.744,HW_LDT_1,2024.2.4,MacIntel,59.88023952,,,,,,,,,,,,,,,,,,,,,538.122,538.3196,538.3196,538.8192,,,,,,,,,,,,,,0.9261,1,,,,,,,,,,,,,,z,,,,,,,,,,,,,,,116,0,538.8195,539.7537,z,1,0.9261,,[],[],[],[],[],[],[],539.7538,541.7535,541.7535,541.7537,[],[],[],[],[],[],[],,541.7537,541.7538,-0.271041667,-0.226736111,0,0,0,,0,115,115,62,1,4,TL,locigal,print,locigal_p.png,,,,,
,,,,31806,001,2025-12-04_16h47.25.744,HW_LDT_1,2024.2.4,MacIntel,59.88023952,,,,,,,,,,,,,,,,,,,,,541.7555,541.9534,541.9534,542.4526,,,,,,,,,,,,,,1.5359,1,,,,,,,,,,,,,,m,,,,,,,,,,,,,,,117,0,542.4531,544.0038,m,1,1.5359,,[],[],[],[],[],[],[],544.0038,546.0036,546.0036,546.0039,[],[],[],[],[],[],[],,546.0039,546.004,-0.271041667,-0.226736111,0,0,0,,0,116,116,104,1,4,word,DOMINANT,cursive,dominant_c.png,,,,,
,,,,31806,001,2025-12-04_16h47.25.744,HW_LDT_1,2024.2.4,MacIntel,59.88023952,,,,,,,,,,,,,,,,,,,,,546.0053,546.2027,546.2028,546.7026,,,,,,,,,,,,,,2.0233,1,,,,,,,,,,,,,,z,,,,,,,,,,,,,,,118,0,546.703,548.737,z,1,2.0233,,[],[],[],[],[],[],[],548.7371,550.737,550.737,550.7372,[],[],[],[],[],[],[],,550.7372,550.7373,-0.271041667,-0.226736111,0,0,0,,0,117,117,33,1,4,RL,pamest,cursive,pamest_c.png,,,,,
,,,,31806,001,2025-12-04_16h47.25.744,HW_LDT_1,2024.2.4,MacIntel,59.88023952,,,,,,,,,,,,,,,,,,,,,550.7386,550.9371,550.9371,551.437,,,,,,,,,,,,,,0.9208,1,,,,,,,,,,,,,,z,,,,,,,,,,,,,,,119,0,551.4375,552.3695,z,1,0.9208,,[],[],[],[],[],[],[],552.3696,554.3693,554.3693,554.3695,[],[],[],[],[],[],[],,554.3695,554.3696,-0.271041667,-0.226736111,0,0,0,,0,118,118,15,1,4,RL,debave,cursive,debave_c.png,,,,,
,,,,31806,001,2025-12-04_16h47.25.744,HW_LDT_1,2024.2.4,MacIntel,59.88023952,,,,,,,,,,,,,,,,,,,,,554.3707,554.5694,554.5694,555.0696,,,,,,,,,,,,,,1.2527,1,,,,,,,,,,,,,,m,,,,,,,,,,,,,,,120,0,555.07,556.337,m,1,1.2527,,[],[],[],[],[],[],[],556.3372,558.3371,558.3372,558.3374,[],[],[],[],[],[],[],,558.3374,558.3375,-0.271041667,-0.226736111,0,0,0,,0,119,119,153,1,4,word,STOLEN,cursive,stolen_c.png,,,,,
,,,,31806,001,2025-12-04_16h47.25.744,HW_LDT_1,2024.2.4,MacIntel,59.88023952,,,,,,,,,,,,,,,,,,,,,558.3389,558.537,558.5371,559.037,,,,,,,,,,,,,,0.5809,1,,,,,,,,,,,,,,m,,,,,,,,,,,,,,,121,0,559.0376,559.6204,m,1,0.5809,,[],[],[],[],[],[],[],559.6205,561.6204,561.6205,561.6206,[],[],[],[],[],[],[],,561.6207,561.621,-0.271041667,-0.226736111,0,0,0,,0,120,120,86,1,4,word,BESIDE,print,beside_p.png,,,,,
,,,,31806,001,2025-12-04_16h47.25.744,HW_LDT_1,2024.2.4,MacIntel,59.88023952,,,,,,,,,,,,,,,,,,,,,561.6223,561.8194,561.8194,562.32,,,,,,,,,,,,,,0.5866,1,,,,,,,,,,,,,,z,,,,,,,,,,,,,,,122,1,562.3205,562.9204,z,1,0.5866,,[],[],[],[],[],[],[],562.9205,564.9203,564.9204,566.1704,[],[],[],[],[],[],[],z,566.1704,566.1706,-0.271041667,-0.226736111,0,0,0,,0,121,121,44,1,4,RL,senvilent,print,senvilent_p.png,1.2369,,,,
,,,,31806,001,2025-12-04_16h47.25.744,HW_LDT_1,2024.2.4,MacIntel,59.88023952,,,,,,,,,,,,,,,,,,,,,566.172,566.3704,566.3704,566.8697,,,,,,,,,,,,,,1.1527,1,,,,,,,,,,,,,,m,,,,,,,,,,,,,,,123,0,566.8702,568.0362,m,1,1.1527,,[],[],[],[],[],[],[],568.0362,570.0371,570.0371,570.0372,[],[],[],[],[],[],[],,570.0373,570.0373,-0.271041667,-0.226736111,0,0,0,,0,122,122,158,1,4,word,VELOCITY,cursive,velocity_c.png,,,,,
,,,,31806,001,2025-12-04_16h47.25.744,HW_LDT_1,2024.2.4,MacIntel,59.88023952,,,,,,,,,,,,,,,,,,,,,570.0386,570.237,570.2371,570.737,,,,,,,,,,,,,,0.7366,1,,,,,,,,,,,,,,m,,,,,,,,,,,,,,,124,0,570.7375,571.4871,m,1,0.7366,,[],[],[],[],[],[],[],571.4872,573.487,573.4871,573.4873,[],[],[],[],[],[],[],,573.4873,573.4873,-0.271041667,-0.226736111,0,0,0,,0,123,123,126,1,4,word,OPTIMAL,print,optimal_p.png,,,,,
,,,,31806,001,2025-12-04_16h47.25.744,HW_LDT_1,2024.2.4,MacIntel,59.88023952,,,,,,,,,,,,,,,,,,,,,573.4884,573.686,573.6861,574.1869,,,,,,,,,,,,,,0.7746,1,,,,,,,,,,,,,,z,,,,,,,,,,,,,,,125,0,574.1875,574.9704,z,1,0.7746,,[],[],[],[],[],[],[],574.9706,576.9703,576.9703,576.9704,[],[],[],[],[],[],[],,576.9706,576.9706,-0.271041667,-0.226736111,0,0,0,,0,124,124,47,1,4,RL,stopave,print,stopave_p.png,,,,,
,,,,31806,001,2025-12-04_16h47.25.744,HW_LDT_1,2024.2.4,MacIntel,59.88023952,,,,,,,,,,,,,,,,,,,,,576.9721,577.1704,577.1704,577.6696,,,,,,,,,,,,,,1.1078,1,,,,,,,,,,,,,,m,,,,,,,,,,,,,,,126,0,577.6701,578.7872,m,1,1.1078,,[],[],[],[],[],[],[],578.7873,580.7863,580.7864,580.7865,[],[],[],[],[],[],[],,580.7865,580.7866,-0.271041667,-0.226736111,0,0,0,,0,125,125,135,1,4,word,QUALITY,print,quality_p.png,,,,,
,,,,31806,001,2025-12-04_16h47.25.744,HW_LDT_1,2024.2.4,MacIntel,59.88023952,,,,,,,,,,,,,,,,,,,,,580.7877,580.9869,580.987,581.4867,,,,,,,,,,,,,,1.3492,1,,,,,,,,,,,,,,m,,,,,,,,,,,,,,,127,0,581.4872,582.8371,m,1,1.3492,,[],[],[],[],[],[],[],582.8373,584.837,584.8371,584.8373,[],[],[],[],[],[],[],,584.8374,584.8374,-0.271041667,-0.226736111,0,0,0,,0,126,126,142,1,4,word,REMOTE,cursive,remote_c.png,,,,,
,,,,31806,001,2025-12-04_16h47.25.744,HW_LDT_1,2024.2.4,MacIntel,59.88023952,,,,,,,,,,,,,,,,,,,,,584.8386,585.037,585.037,585.537,,,,,,,,,,,,,,0.7323,1,,,,,,,,,,,,,,m,,,,,,,,,,,,,,,128,0,585.5375,586.2707,m,1,0.7323,,[],[],[],[],[],[],[],586.2708,588.2692,588.2693,588.2694,[],[],[],[],[],[],[],,588.2695,588.2696,-0.271041667,-0.226736111,0,0,0,,0,127,127,132,1,4,word,PROPOSAL,print,proposal_p.png,,,,,
,,,,31806,001,2025-12-04_16h47.25.744,HW_LDT_1,2024.2.4,MacIntel,59.88023952,,,,,,,,,,,,,,,,,,,,,588.2705,588.4703,588.4704,588.9704,,,,,,,,,,,,,,0.636,1,,,,,,,,,,,,,,z,,,,,,,,,,,,,,,129,0,588.9708,589.6204,z,1,0.636,,[],[],[],[],[],[],[],589.6204,591.6193,591.6194,591.6195,[],[],[],[],[],[],[],,591.6196,591.6197,-0.271041667,-0.226736111,0,0,0,,0,128,128,25,1,4,RL,macise,print,macise_p.png,,,,,
,,,,31806,001,2025-12-04_16h47.25.744,HW_LDT_1,2024.2.4,MacIntel,59.88023952,,,,,,,,,,,,,,,,,,,,,591.6208,591.8194,591.8194,592.3203,,,,,,,,,,,,,,0.5854,1,,,,,,,,,,,,,,m,,,,,,,,,,,,,,,130,0,592.3209,592.9193,m,1,0.5854,,[],[],[],[],[],[],[],592.9193,594.9193,594.9193,594.9195,[],[],[],[],[],[],[],,594.9195,594.9196,-0.271041667,-0.226736111,0,0,0,,0,129,129,83,1,4,word,ANIMAL,cursive,animal_c.png,,,,,
,,,,31806,001,2025-12-04_16h47.25.744,HW_LDT_1,2024.2.4,MacIntel,59.88023952,,,,,,,,,,,,,,,,,,,,,594.9207,595.1202,595.1203,595.6193,,,,,,,,,,,,,,0.6026,1,,,,,,,,,,,,,,z,,,,,,,,,,,,,,,131,0,595.6198,596.237,z,1,0.6026,,[],[],[],[],[],[],[],596.2371,598.2369,598.2369,598.237,[],[],[],[],[],[],[],,598.2372,598.2372,-0.271041667,-0.226736111,0,0,0,,0,130,130,55,1,4,TL,corevage,cursive,corevage_c.png,,,,,
,,,,31806,001,2025-12-04_16h47.25.744,HW_LDT_1,2024.2.4,MacIntel,59.88023952,,,,,,,,,,,,,,,,,,,,,598.2386,598.437,598.437,598.9369,,,,,,,,,,,,,,0.7026,1,,,,,,,,,,,,,,m,,,,,,,,,,,,,,,132,0,598.9374,599.6532,m,1,0.7026,,[],[],[],[],[],[],[],599.6533,601.6533,601.6533,601.6534,[],[],[],[],[],[],[],,601.6534,601.6534,-0.271041667,-0.226736111,0,0,0,,0,131,131,148,1,4,word,SALINE,print,saline_p.png,,,,,
,,,,31806,001,2025-12-04_16h47.25.744,HW_LDT_1,2024.2.4,MacIntel,59.88023952,,,,,,,,,,,,,,,,,,,,,601.6538,601.8526,601.8526,602.3536,,,,,,,,,,,,,,0.6073,0,,,,,,,,,,,,,,m,,,,,,,,,,,,,,,133,0,602.3543,602.9706,z,0,0.6073,,[],[],[],[],[],[],[],602.9706,604.9702,604.9703,604.9704,[],[],[],[],[],[],[],,604.9704,604.9705,-0.271041667,-0.226736111,0,0,0,,0,132,132,124,1,4,word,NUMERICAL,cursive,numerical_c.png,,,,,
,,,,31806,001,2025-12-04_16h47.25.744,HW_LDT_1,2024.2.4,MacIntel,59.88023952,,,,,,,,,,,,,,,,,,,,,604.9718,605.1696,605.1696,605.6696,,,,,,,,,,,,,,0.5369,1,,,,,,,,,,,,,,m,,,,,,,,,,,,,,,134,0,605.6701,606.2201,m,1,0.5369,,[],[],[],[],[],[],[],606.2203,608.2203,608.2203,608.2207,[],[],[],[],[],[],[],,608.2207,608.2208,-0.271041667,-0.226736111,0,0,0,,0,133,133,80,1,4,word,ACADEMY,print,academy_p.png,,,,,
,,,,31806,001,2025-12-04_16h47.25.744,HW_LDT_1,2024.2.4,MacIntel,59.88023952,,,,,,,,,,,,,,,,,,,,,608.2221,608.4199,608.42,608.9203,,,,,,,,,,,,,,1.153,1,,,,,,,,,,,,,,z,,,,,,,,,,,,,,,135,0,608.9208,610.0861,z,1,1.153,,[],[],[],[],[],[],[],610.0862,612.0859,612.086,612.0863,[],[],[],[],[],[],[],,612.0863,612.0864,-0.271041667,-0.226736111,0,0,0,,0,134,134,49,1,4,RL,vesofity,cursive,vesofity_c.png,,,,,
,,,,31806,001,2025-12-04_16h47.25.744,HW_LDT_1,2024.2.4,MacIntel,59.88023952,,,,,,,,,,,,,,,,,,,,,612.0876,612.287,612.287,612.786,,,,,,,,,,,,,,1.121,1,,,,,,,,,,,,,,m,,,,,,,,,,,,,,,136,0,612.7864,613.9203,m,1,1.121,,[],[],[],[],[],[],[],613.9205,615.9203,615.9203,615.9205,[],[],[],[],[],[],[],,615.9205,615.9207,-0.271041667,-0.226736111,0,0,0,,0,135,135,156,1,4,word,TRIBUTE,print,tribute_p.png,,,,,
,,,,31806,001,2025-12-04_16h47.25.744,HW_LDT_1,2024.2.4,MacIntel,59.88023952,,,,,,,,,,,,,,,,,,,,,615.922,616.1194,616.1194,616.6194,,,,,,,,,,,,,,2.9871,1,,,,,,,,,,,,,,z,,,,,,,,,,,,,,,137,1,616.6198,619.6205,z,1,2.9871,,[],[],[],[],[],[],[],619.6206,621.6208,621.6208,622.6369,[],[],[],[],[],[],[],z,622.6371,622.6372,-0.271041667,-0.226736111,0,0,0,,0,136,136,24,1,4,RL,marmipal,cursive,marmipal_c.png,1.0033,,,,
,,,,31806,001,2025-12-04_16h47.25.744,HW_LDT_1,2024.2.4,MacIntel,59.88023952,,,,,,,,,,,,,,,,,,,,,622.6386,622.8369,622.8369,623.3369,,,,,,,,,,,,,,0.8354,1,,,,,,,,,,,,,,z,,,,,,,,,,,,,,,138,0,623.3375,624.187,z,1,0.8354,,[],[],[],[],[],[],[],624.1872,626.187,626.1871,626.1872,[],[],[],[],[],[],[],,626.1873,626.1873,-0.271041667,-0.226736111,0,0,0,,0,137,137,40,1,4,RL,reconal,print,reconal_p.png,,,,,
,,,,31806,001,2025-12-04_16h47.25.744,HW_LDT_1,2024.2.4,MacIntel,59.88023952,,,,,,,,,,,,,,,,,,,,,626.1885,626.3869,626.387,626.8869,,,,,,,,,,,,,,1.0655,1,,,,,,,,,,,,,,m,,,,,,,,,,,,,,,139,0,626.8875,627.9542,m,1,1.0655,,[],[],[],[],[],[],[],627.9543,629.9537,629.9538,629.954,[],[],[],[],[],[],[],,629.954,629.9542,-0.271041667,-0.226736111,0,0,0,,0,138,138,107,1,4,word,EVIDENT,print,evident_p.png,,,,,
,,,,31806,001,2025-12-04_16h47.25.744,HW_LDT_1,2024.2.4,MacIntel,59.88023952,,,,,,,,,,,,,,,,,,,,,629.9556,630.1536,630.1537,630.6536,,,,,,,,,,,,,,0.747,0,,,,,,,,,,,,,,m,,,,,,,,,,,,,,,140,1,630.6541,631.4036,z,0,0.747,,[],[],[],[],[],[],[],631.4037,633.4031,633.4032,633.8703,[],[],[],[],[],[],[],z,633.8704,633.8706,-0.271041667,-0.226736111,0,0,0,,0,139,139,108,1,4,word,FORTUNE,cursive,fortune_c.png,0.4665,,,,
,,,,31806,001,2025-12-04_16h47.25.744,HW_LDT_1,2024.2.4,MacIntel,59.88023952,,,,,,,,,,,,,,,,,,,,,633.8715,634.0704,634.0705,634.5695,,,,,,,,,,,,,,0.7718,1,,,,,,,,,,,,,,z,,,,,,,,,,,,,,,141,0,634.5701,635.3536,z,1,0.7718,,[],[],[],[],[],[],[],635.3536,637.3536,637.3538,637.3539,[],[],[],[],[],[],[],,637.354,637.354,-0.271041667,-0.226736111,0,0,0,,0,140,140,29,1,4,RL,motide,print,motide_p.png,,,,,
,,,,31806,001,2025-12-04_16h47.25.744,HW_LDT_1,2024.2.4,MacIntel,59.88023952,,,,,,,,,,,,,,,,,,,,,637.3554,637.5536,637.5537,638.0536,,,,,,,,,,,,,,2.0717,1,,,,,,,,,,,,,,z,,,,,,,,,,,,,,,142,0,638.0541,640.137,z,1,2.0717,,[],[],[],[],[],[],[],640.1371,642.1368,642.1368,642.1371,[],[],[],[],[],[],[],,642.1372,642.1372,-0.271041667,-0.226736111,0,0,0,,0,141,141,3,1,4,RL,bewoted,print,bewoted_p.png,,,,,
,,,,31806,001,2025-12-04_16h47.25.744,HW_LDT_1,2024.2.4,MacIntel,59.88023952,,,,,,,,,,,,,,,,,,,,,642.1386,642.337,642.337,642.8369,,,,,,,,,,,,,,0.9487,1,,,,,,,,,,,,,,z,,,,,,,,,,,,,,,143,1,642.8373,643.7871,z,1,0.9487,,[],[],[],[],[],[],[],643.7873,645.787,645.7871,647.187,[],[],[],[],[],[],[],z,647.1871,647.1872,-0.271041667,-0.226736111,0,0,0,,0,142,142,7,1,4,RL,casena,print,casena_p.png,1.3872,,,,
,,,,31806,001,2025-12-04_16h47.25.744,HW_LDT_1,2024.2.4,MacIntel,59.88023952,,,,,,,,,,,,,,,,,,,,,647.1887,647.3868,647.3868,647.8868,,,,,,,,,,,,,,1.0368,1,,,,,,,,,,,,,,z,,,,,,,,,,,,,,,144,0,647.8873,648.937,z,1,1.0368,,[],[],[],[],[],[],[],648.9371,650.9371,650.9371,650.9373,[],[],[],[],[],[],[],,650.9373,650.9375,-0.271041667,-0.226736111,0,0,0,,0,143,143,63,1,4,TL,miskate,print,miskate_p.png,,,,,
,,,,31806,001,2025-12-04_16h47.25.744,HW_LDT_1,2024.2.4,MacIntel,59.88023952,,,,,,,,,,,,,,,,,,,,,650.9388,651.137,651.1371,651.6369,,,,,,,,,,,,,,1.1314,1,,,,,,,,,,,,,,z,,,,,,,,,,,,,,,145,0,651.6374,652.7702,z,1,1.1314,,[],[],[],[],[],[],[],652.7703,654.7702,654.7703,654.7706,[],[],[],[],[],[],[],,654.7707,654.7707,-0.271041667,-0.226736111,0,0,0,,0,144,144,68,1,4,TL,prosopal,print,prosopal_p.png,,,,,
,,,,31806,001,2025-12-04_16h47.25.744,HW_LDT_1,2024.2.4,MacIntel,59.88023952,,,,,,,,,,,,,,,,,,,,,654.7724,654.9703,654.9703,655.4702,,,,,,,,,,,,,,0.9035,1,,,,,,,,,,,,,,m,,,,,,,,,,,,,,,146,0,655.4707,656.387,m,1,0.9035,,[],[],[],[],[],[],[],656.3872,658.3869,658.3869,658.3872,[],[],[],[],[],[],[],,658.3873,658.3873,-0.271041667,-0.226736111,0,0,0,,0,145,145,155,1,4,word,STRATEGY,print,strategy_p.png,,,,,
,,,,31806,001,2025-12-04_16h47.25.744,HW_LDT_1,2024.2.4,MacIntel,59.88023952,,,,,,,,,,,,,,,,,,,,,658.3887,658.587,658.587,659.0868,,,,,,,,,,,,,,1.6194,1,,,,,,,,,,,,,,m,,,,,,,,,,,,,,,147,0,659.0876,660.7195,m,1,1.6194,,[],[],[],[],[],[],[],660.7196,662.7203,662.7203,662.7205,[],[],[],[],[],[],[],,662.7206,662.7207,-0.271041667,-0.226736111,0,0,0,,0,146,146,128,1,4,word,PACIFIC,cursive,pacific_c.png,,,,,
,,,,31806,001,2025-12-04_16h47.25.744,HW_LDT_1,2024.2.4,MacIntel,59.88023952,,,,,,,,,,,,,,,,,,,,,662.722,662.9191,662.9191,663.4192,,,,,,,,,,,,,,0.6524,1,,,,,,,,,,,,,,m,,,,,,,,,,,,,,,148,1,663.4195,664.086,m,1,0.6524,,[],[],[],[],[],[],[],664.0862,666.0867,666.0867,667.0192,[],[],[],[],[],[],[],m,667.0192,667.0193,-0.271041667,-0.226736111,0,0,0,,0,147,147,123,1,4,word,MODERATE,print,moderate_p.png,0.9317,,,,
,,,,31806,001,2025-12-04_16h47.25.744,HW_LDT_1,2024.2.4,MacIntel,59.88023952,,,,,,,,,,,,,,,,,,,,,667.0202,667.2202,667.2202,667.7202,,,,,,,,,,,,,,0.987,1,,,,,,,,,,,,,,z,,,,,,,,,,,,,,,149,0,667.7208,668.7193,z,1,0.987,,[],[],[],[],[],[],[],668.7194,670.72,670.72,670.7201,[],[],[],[],[],[],[],,670.7203,670.7204,-0.271041667,-0.226736111,0,0,0,,0,148,148,58,1,4,TL,edivent,print,edivent_p.png,,,,,
,,,,31806,001,2025-12-04_16h47.25.744,HW_LDT_1,2024.2.4,MacIntel,59.88023952,,,,,,,,,,,,,,,,,,,,,670.7214,670.9202,670.9203,671.4195,,,,,,,,,,,,,,0.9827,1,,,,,,,,,,,,,,z,,,,,,,,,,,,,,,150,0,671.4199,672.4036,z,1,0.9827,,[],[],[],[],[],[],[],672.4036,674.4035,674.4036,674.4038,[],[],[],[],[],[],[],,674.4039,674.404,-0.271041667,-0.226736111,0,0,0,,0,149,149,64,1,4,TL,moredate,print,moredate_p.png,,,,,
,,,,31806,001,2025-12-04_16h47.25.744,HW_LDT_1,2024.2.4,MacIntel,59.88023952,,,,,,,,,,,,,,,,,,,,,674.4053,674.6036,674.6036,675.1036,,,,,,,,,,,,,,1.8069,0,,,,,,,,,,,,,,m,,,,,,,,,,,,,,,151,1,675.1042,676.9193,z,0,1.8069,,[],[],[],[],[],[],[],676.9194,678.9193,678.9193,681.2693,[],[],[],[],[],[],[],z,681.2694,681.2695,-0.271041667,-0.226736111,0,0,0,,0,150,150,101,1,4,word,DELICATE,cursive,delicate_c.png,2.3407,,,,
,,,,31806,001,2025-12-04_16h47.25.744,HW_LDT_1,2024.2.4,MacIntel,59.88023952,,,,,,,,,,,,,,,,,,,,,681.2705,681.47,681.4701,681.9694,,,,,,,,,,,,,,1.2038,1,,,,,,,,,,,,,,m,,,,,,,,,,,,,,,152,1,681.9699,683.1871,m,1,1.2038,,[],[],[],[],[],[],[],683.1873,685.1858,685.1858,688.0694,[],[],[],[],[],[],[],m,688.0695,688.0695,-0.271041667,-0.226736111,0,0,0,,0,151,151,146,1,4,word,RETIRE,print,retire_p.png,2.8723,,,,
,,,,31806,001,2025-12-04_16h47.25.744,HW_LDT_1,2024.2.4,MacIntel,59.88023952,,,,,,,,,,,,,,,,,,,,,688.0705,688.2702,688.2702,688.7692,,,,,,,,,,,,,,1.0733,1,,,,,,,,,,,,,,z,,,,,,,,,,,,,,,153,1,688.7697,689.8535,z,1,1.0733,,[],[],[],[],[],[],[],689.8536,691.8535,691.8536,692.8025,[],[],[],[],[],[],[],z,692.8027,692.8028,-0.271041667,-0.226736111,0,0,0,,0,152,152,57,1,4,TL,etidor,print,etidor_p.png,0.9368,,,,
,,,,31806,001,2025-12-04_16h47.25.744,HW_LDT_1,2024.2.4,MacIntel,59.88023952,,,,,,,,,,,,,,,,,,,,,692.8037,693.0025,693.0025,693.5034,,,,,,,,,,,,,,1.0703,1,,,,,,,,,,,,,,z,,,,,,,,,,,,,,,154,0,693.504,694.5867,z,1,1.0703,,[],[],[],[],[],[],[],694.5867,696.5868,696.5868,696.5869,[],[],[],[],[],[],[],,696.5869,696.5871,-0.271041667,-0.226736111,0,0,0,,0,153,153,74,1,4,TL,rerite,print,rerite_p.png,,,,,
,,,,31806,001,2025-12-04_16h47.25.744,HW_LDT_1,2024.2.4,MacIntel,59.88023952,,,,,,,,,,,,,,,,,,,,,696.5884,696.7867,696.7867,697.2867,,,,,,,,,,,,,,1.8317,0,,,,,,,,,,,,,,z,,,,,,,,,,,,,,,155,0,697.2872,699.1201,m,0,1.8317,,[],[],[],[],[],[],[],699.1201,701.12,701.1201,701.1202,[],[],[],[],[],[],[],,701.1203,701.1203,-0.271041667,-0.226736111,0,0,0,,0,154,154,37,1,4,RL,renutal,cursive,renutal_c.png,,,,,
,,,,31806,001,2025-12-04_16h47.25.744,HW_LDT_1,2024.2.4,MacIntel,59.88023952,,,,,,,,,,,,,,,,,,,,,701.1216,701.3202,701.3202,701.8203,,,,,,,,,,,,,,1.6859,1,,,,,,,,,,,,,,m,,,,,,,,,,,,,,,156,0,701.821,703.5203,m,1,1.6859,,[],[],[],[],[],[],[],703.5204,705.5201,705.5202,705.5204,[],[],[],[],[],[],[],,705.5205,705.5206,-0.271041667,-0.226736111,0,0,0,,0,155,155,152,1,4,word,SPECIMEN,cursive,specimen_c.png,,,,,
,,,,31806,001,2025-12-04_16h47.25.744,HW_LDT_1,2024.2.4,MacIntel,59.88023952,,,,,,,,,,,,,,,,,,,,,705.5219,705.7201,705.7201,706.2196,,,,,,,,,,,,,,1.5191,0,,,,,,,,,,,,,,z,,,,,,,,,,,,,,,157,1,706.2201,707.7534,m,0,1.5191,,[],[],[],[],[],[],[],707.7535,709.7533,709.7534,710.9201,[],[],[],[],[],[],[],z,710.9202,710.9203,-0.271041667,-0.226736111,0,0,0,,0,156,156,10,1,4,RL,carminal,cursive,carminal_c.png,1.1558,,,,
,,,,31806,001,2025-12-04_16h47.25.744,HW_LDT_1,2024.2.4,MacIntel,59.88023952,,,,,,,,,,,,,,,,,,,,,710.9216,711.1197,711.1198,711.62,,,,,,,,,,,,,,1.1531,0,,,,,,,,,,,,,,m,,,,,,,,,,,,,,,158,1,711.6204,712.7868,z,0,1.1531,,[],[],[],[],[],[],[],712.7868,714.7862,714.7863,715.4368,[],[],[],[],[],[],[],z,715.4368,715.4369,-0.271041667,-0.226736111,0,0,0,,0,157,157,106,1,4,word,ELABORATE,cursive,elaborate_c.png,0.6379,,,,
,,,,31806,001,2025-12-04_16h47.25.744,HW_LDT_1,2024.2.4,MacIntel,59.88023952,,,,,,,,,,,,,,,,,,,,,715.4381,715.6367,715.6367,716.1368,,,,,,,,,,,,,,0.6364,1,,,,,,,,,,,,,,m,,,,,,,,,,,,,,,159,0,716.1373,716.7857,m,1,0.6364,,[],[],[],[],[],[],[],716.7857,718.7866,718.7867,718.787,[],[],[],[],[],[],[],,718.787,718.7871,-0.271041667,-0.226736111,0,0,0,,0,158,158,143,1,4,word,REMOVAL,print,removal_p.png,,,,,
,,,,31806,001,2025-12-04_16h47.25.744,HW_LDT_1,2024.2.4,MacIntel,59.88023952,,,,,,,,,,,,,,,,,,,,,718.7884,718.9857,718.9857,719.4857,,,,,,,,,,,,,,0.7822,1,,,,,,,,,,,,,,m,,,,,,,,,,,,,,,160,0,719.4862,720.27,m,1,0.7822,,[],[],[],[],[],[],[],720.27,722.269,722.2691,722.2692,[],[],[],[],[],[],[],,722.2692,722.2693,-0.271041667,-0.226736111,0,0,0,,0,159,159,130,1,4,word,POLICY,cursive,policy_c.png,,,,,
,,,,31806,001,2025-12-04_16h47.25.744,HW_LDT_1,2024.2.4,MacIntel,59.88023952,,,,,,,,,,,,,,,,,,,,,,,,,,,,,,,,,,,,,,,,,,,,,,,,,,,,,,,,,,,,,,,,,,,,,,,,,,,,,,,,,,,,,,,,,,,,,,,,,,,,,,,,,,,,,,,,,,,,722.2698,727.2693
