counterbalance_lists.group,counterbalance_lists.remaining,get_list.started,get_list.stopped,participant,session,date,expName,psychopyVersion,OS,frameRate,Instructions.started,Instructions.stopped,key_resp.keys,instr_done_touch.x,instr_done_touch.y,instr_done_touch.leftButton,instr_done_touch.midButton,instr_done_touch.rightButton,instr_done_touch.clicked_name,start_instr.thisRepN,start_instr.thisTrialN,start_instr.thisN,start_instr.thisIndex,start_instr.ran,pageN,phase,instruct_text,has_image,instruct_image,key_resp.rt,key_resp.duration,showProgress.started,showProgress.stopped,fix.started,fix.stopped,prac.started,prac.stopped,response.keys,response.corr,response.rt,response.duration,touch_resp.x,touch_resp.y,touch_resp.leftButton,touch_resp.midButton,touch_resp.rightButton,touch_resp.time,touch_resp.clicked_name,rt,corr,feedback.started,feedback.stopped,trials.thisRepN,trials.thisTrialN,trials.thisN,trials.thisIndex,trials.ran,TrialID,StimulusType,Condition,PrimeDuration,Prime,Target,corrAns,Instructions_expt.started,Instructions_expt.stopped,key_resp_3.keys,key_resp_3.rt,key_resp_3.duration,instr_done_touch_3.x,instr_done_touch_3.y,instr_done_touch_3.leftButton,instr_done_touch_3.midButton,instr_done_touch_3.rightButton,instr_experiment.thisRepN,instr_experiment.thisTrialN,instr_experiment.thisN,instr_experiment.thisIndex,instr_experiment.ran,trialID,flag,maintask.started,maintask.stopped,key_resp_2.keys,key_resp_2.corr,key_resp_2.rt,key_resp_2.duration,targ_click.x,targ_click.y,targ_click.leftButton,targ_click.midButton,targ_click.rightButton,targ_click.time,targ_click.clicked_name,ITI.started,ITI.stopped,probe.started,probe.stopped,click_probe.x,click_probe.y,click_probe.leftButton,click_probe.midButton,click_probe.rightButton,click_probe.time,click_probe.clicked_name,key_resp_probe.keys,Break.started,Break.stopped,break_done_touch.x,break_done_touch.y,break_done_touch.leftButton,break_done_touch.midButton,break_done_touch.rightButton,break_done_keyboard.keys,list2_trials.thisRepN,list2_trials.thisTrialN,list2_trials.thisN,list2_trials.thisIndex,list2_trials.ran,list_id,item_type,string,font,stim_file,key_resp_probe.rt,key_resp_probe.duration,break_done_keyboard.rt,break_done_keyboard.duration,End.started,End.stopped
list2,,0.415,0.415,31807,001,2025-10-17_14h36.23.862,HW_LDT_1,2024.2.4,Win32,59.95203837,,,,,,,,,,,,,,,,,,,,,,,,,,,,,,,,,,,,,,,,,,,,,,,,,,,,,,,,,,,,,,,,,,,,,,,,,,,,,,,,,,,,,,,,,,,,,,,,,,,,,,,,,,,,,,,,,,,,,,,,
,,,,31807,001,2025-10-17_14h36.23.862,HW_LDT_1,2024.2.4,Win32,59.95203837,0.426,25.175,,-0.062037065,-0.389814843,1,0,0,instr_done_button,0,0,0,0,1,1,instructions,"INSTRUCTIONS
At the start of each trial, look at the plus sign  (+) in the center of the screen.  This tells you that a trial is about to begin and where to look. Second, the plus sign will disappear and a string of letters will appear. Your task is to determine if the string of letters is a word or not. If the item is a word press the M key (on keyboard)  or touch the word button (phone/tablet).  If the item is not a word,  press the  Z key (on keyboard)  or touch the nonword button (on phone/tablet). The items will be presented for a short time. 
Press the space bar or touch  continue.",0,,,,,,,,,,,,,,,,,,,,,,,,,,,,,,,,,,,,,,,,,,,,,,,,,,,,,,,,,,,,,,,,,,,,,,,,,,,,,,,,,,,,,,,,,,,,,,,,,,,,,,
,,,,31807,001,2025-10-17_14h36.23.862,HW_LDT_1,2024.2.4,Win32,59.95203837,25.18,32.079,space,-0.387037023,-0.161111111,0,0,0,,0,1,1,1,1,2,instructions,"If your device has a keyboard, press the 'Z' key for nonwords and the 'M' key for words.





Press the space bar or touch the button below to continue.",0,keyboard-example.gif,6.865,,,,,,,,,,,,,,,,,,,,,,,,,,,,,,,,,,,,,,,,,,,,,,,,,,,,,,,,,,,,,,,,,,,,,,,,,,,,,,,,,,,,,,,,,,,,,,,,,,,,
,,,,31807,001,2025-10-17_14h36.23.862,HW_LDT_1,2024.2.4,Win32,59.95203837,32.081,35.975,space,-0.47129631,-0.160185199,0,0,0,,0,2,2,2,1,3,instructions,"If you are using a touchscreen only device, use the buttons on the screen. Do not use the mouse.





Press the space bar or touch the button below to continue.",0,touchscreen-example.gif,3.858,,,,,,,,,,,,,,,,,,,,,,,,,,,,,,,,,,,,,,,,,,,,,,,,,,,,,,,,,,,,,,,,,,,,,,,,,,,,,,,,,,,,,,,,,,,,,,,,,,,,
,,,,31807,001,2025-10-17_14h36.23.862,HW_LDT_1,2024.2.4,Win32,59.95203837,35.982,39.608,space,-0.475925912,-0.164814801,0,0,0,,0,3,3,3,1,4,instructions,"It is very important that you respond as quickly and accurately as possible, as each letter string will only be on the screen for two seconds. If you do not respond within this time, the message 'Too slow!' will be displayed and the experiment will progress to the next letter string. The first 20 trials will be practice trials and you will receive feedback on your answers. 

Press the space bar or touch the button below to start the practice trials.",0,,3.592,,,,,,,,,,,,,,,,,,,,,,,,,,,,,,,,,,,,,,,,,,,,,,,,,,,,,,,,,,,,,,,,,,,,,,,,,,,,,,,,,,,,,,,,,,,,,,,,,,,,
,,,,31807,001,2025-10-17_14h36.23.862,HW_LDT_1,2024.2.4,Win32,59.95203837,,,,,,,,,,,,,,,,,,,,,,39.631,39.807,39.808,40.308,40.308,41.592,m,1,1.252,,[],[],[],[],[],[],[],1.252,1,41.593,42.092,0,0,0,5,1,1006,WORD,UN,33,frenzy,OBTAIN,m,,,,,,,,,,,,,,,,,,,,,,,,,,,,,,,,,,,,,,,,,,,,,,,,,,,,,,,,,,,,,,,,,,
,,,,31807,001,2025-10-17_14h36.23.862,HW_LDT_1,2024.2.4,Win32,59.95203837,,,,,,,,,,,,,,,,,,,,,,42.096,42.292,42.292,42.792,42.792,43.808,m,1,0.997,,[],[],[],[],[],[],[],0.997,1,43.808,44.309,0,1,1,0,1,1001,WORD,"ID",33,utopia,UTOPIA,m,,,,,,,,,,,,,,,,,,,,,,,,,,,,,,,,,,,,,,,,,,,,,,,,,,,,,,,,,,,,,,,,,,
,,,,31807,001,2025-10-17_14h36.23.862,HW_LDT_1,2024.2.4,Win32,59.95203837,,,,,,,,,,,,,,,,,,,,,,44.311,44.508,44.508,45.008,45.009,46.225,z,1,1.204,,[],[],[],[],[],[],[],1.204,1,46.226,46.725,0,2,2,14,1,1015,NW,UN,16,miaber,THRALE,z,,,,,,,,,,,,,,,,,,,,,,,,,,,,,,,,,,,,,,,,,,,,,,,,,,,,,,,,,,,,,,,,,,
,,,,31807,001,2025-10-17_14h36.23.862,HW_LDT_1,2024.2.4,Win32,59.95203837,,,,,,,,,,,,,,,,,,,,,,46.727,46.924,46.924,47.425,47.426,48.475,z,1,1.033,,[],[],[],[],[],[],[],1.033,1,48.476,48.975,0,3,3,13,1,1014,NW,UN,33,winfer,ROUPET,z,,,,,,,,,,,,,,,,,,,,,,,,,,,,,,,,,,,,,,,,,,,,,,,,,,,,,,,,,,,,,,,,,,
,,,,31807,001,2025-10-17_14h36.23.862,HW_LDT_1,2024.2.4,Win32,59.95203837,,,,,,,,,,,,,,,,,,,,,,48.977,49.175,49.176,49.674,49.675,50.808,z,1,1.121,,[],[],[],[],[],[],[],1.121,1,50.808,51.309,0,4,4,10,1,1011,NW,"ID",16,inlade,INLADE,z,,,,,,,,,,,,,,,,,,,,,,,,,,,,,,,,,,,,,,,,,,,,,,,,,,,,,,,,,,,,,,,,,,
,,,,31807,001,2025-10-17_14h36.23.862,HW_LDT_1,2024.2.4,Win32,59.95203837,,,,,,,,,,,,,,,,,,,,,,51.314,51.508,51.508,52.008,52.01,52.826,z,1,0.796,,[],[],[],[],[],[],[],0.796,1,52.827,53.325,0,5,5,15,1,1016,NW,UN,16,mushed,WHAISE,z,,,,,,,,,,,,,,,,,,,,,,,,,,,,,,,,,,,,,,,,,,,,,,,,,,,,,,,,,,,,,,,,,,
,,,,31807,001,2025-10-17_14h36.23.862,HW_LDT_1,2024.2.4,Win32,59.95203837,,,,,,,,,,,,,,,,,,,,,,53.327,53.525,53.525,54.025,54.027,56.058,z,1,2.013,,[],[],[],[],[],[],[],2.013,1,56.059,56.558,0,6,6,9,1,1010,NW,"ID",33,fariny,FARINY,z,,,,,,,,,,,,,,,,,,,,,,,,,,,,,,,,,,,,,,,,,,,,,,,,,,,,,,,,,,,,,,,,,,
,,,,31807,001,2025-10-17_14h36.23.862,HW_LDT_1,2024.2.4,Win32,59.95203837,,,,,,,,,,,,,,,,,,,,,,56.56,56.758,56.759,57.258,57.26,58.191,m,1,0.912,,[],[],[],[],[],[],[],0.912,1,58.191,58.692,0,7,7,4,1,1005,WORD,UN,33,abound,SQUEAK,m,,,,,,,,,,,,,,,,,,,,,,,,,,,,,,,,,,,,,,,,,,,,,,,,,,,,,,,,,,,,,,,,,,
,,,,31807,001,2025-10-17_14h36.23.862,HW_LDT_1,2024.2.4,Win32,59.95203837,,,,,,,,,,,,,,,,,,,,,,58.694,58.891,58.891,59.391,59.392,60.808,z,1,1.402,,[],[],[],[],[],[],[],1.402,1,60.809,61.308,0,8,8,12,1,1013,NW,UN,33,adveil,SPRINY,z,,,,,,,,,,,,,,,,,,,,,,,,,,,,,,,,,,,,,,,,,,,,,,,,,,,,,,,,,,,,,,,,,,
,,,,31807,001,2025-10-17_14h36.23.862,HW_LDT_1,2024.2.4,Win32,59.95203837,,,,,,,,,,,,,,,,,,,,,,61.31,61.508,61.508,62.008,62.009,62.908,z,1,0.883,,[],[],[],[],[],[],[],0.883,1,62.908,63.409,0,9,9,8,1,1009,NW,"ID",33,aslert,ASLERT,z,,,,,,,,,,,,,,,,,,,,,,,,,,,,,,,,,,,,,,,,,,,,,,,,,,,,,,,,,,,,,,,,,,
,,,,31807,001,2025-10-17_14h36.23.862,HW_LDT_1,2024.2.4,Win32,59.95203837,,,,,,,,,,,,,,,,,,,,,,63.41,63.608,63.608,64.108,64.109,64.874,m,1,0.749,,[],[],[],[],[],[],[],0.749,1,64.875,65.375,0,10,10,1,1,1002,WORD,"ID",33,adjust,ADJUST,m,,,,,,,,,,,,,,,,,,,,,,,,,,,,,,,,,,,,,,,,,,,,,,,,,,,,,,,,,,,,,,,,,,
,,,,31807,001,2025-10-17_14h36.23.862,HW_LDT_1,2024.2.4,Win32,59.95203837,,,,,,,,,,,,,,,,,,,,,,65.377,65.575,65.575,66.074,66.075,66.708,z,0,0.617,,[],[],[],[],[],[],[],0.617,0,66.709,67.208,0,11,11,2,1,1003,WORD,"ID",16,almond,ALMOND,m,,,,,,,,,,,,,,,,,,,,,,,,,,,,,,,,,,,,,,,,,,,,,,,,,,,,,,,,,,,,,,,,,,
,,,,31807,001,2025-10-17_14h36.23.862,HW_LDT_1,2024.2.4,Win32,59.95203837,,,,,,,,,,,,,,,,,,,,,,67.209,67.408,67.408,67.908,67.909,68.608,m,1,0.68,,[],[],[],[],[],[],[],0.68,1,68.609,69.108,0,12,12,3,1,1004,WORD,"ID",16,matrix,MATRIX,m,,,,,,,,,,,,,,,,,,,,,,,,,,,,,,,,,,,,,,,,,,,,,,,,,,,,,,,,,,,,,,,,,,
,,,,31807,001,2025-10-17_14h36.23.862,HW_LDT_1,2024.2.4,Win32,59.95203837,,,,,,,,,,,,,,,,,,,,,,69.109,69.308,69.308,69.808,69.813,70.408,m,1,0.577,,[],[],[],[],[],[],[],0.577,1,70.408,70.909,0,13,13,7,1,1008,WORD,UN,16,hurdle,VOLUME,m,,,,,,,,,,,,,,,,,,,,,,,,,,,,,,,,,,,,,,,,,,,,,,,,,,,,,,,,,,,,,,,,,,
,,,,31807,001,2025-10-17_14h36.23.862,HW_LDT_1,2024.2.4,Win32,59.95203837,,,,,,,,,,,,,,,,,,,,,,70.91,71.108,71.108,71.608,71.609,72.825,z,1,1.198,,[],[],[],[],[],[],[],1.198,1,72.825,73.325,0,14,14,11,1,1012,NW,"ID",16,rashet,RASHET,z,,,,,,,,,,,,,,,,,,,,,,,,,,,,,,,,,,,,,,,,,,,,,,,,,,,,,,,,,,,,,,,,,,
,,,,31807,001,2025-10-17_14h36.23.862,HW_LDT_1,2024.2.4,Win32,59.95203837,,,,,,,,,,,,,,,,,,,,,,73.327,73.525,73.525,74.025,74.026,75.175,m,1,1.131,,[],[],[],[],[],[],[],1.131,1,75.175,75.675,0,15,15,6,1,1007,WORD,UN,16,tropic,ZOMBIE,m,,,,,,,,,,,,,,,,,,,,,,,,,,,,,,,,,,,,,,,,,,,,,,,,,,,,,,,,,,,,,,,,,,
,,,,31807,001,2025-10-17_14h36.23.862,HW_LDT_1,2024.2.4,Win32,59.95203837,,,,,,,,,,,,,,,1,end_of_practice,"You have completed the practice trials. During the experimental trials, you will not receive feedback. On some trials you will be asked to report whether the item you just saw was in cursive or print. 
Before you begin, please ensure that you are in a comfortable and quiet location and will not be disturbed for about 15 minutes, as we cannot use your data if you do not complete all the trials. 
 When you are ready to start the experimental trials, please press space or touch the button below.",,,,,,,,,,,,,,,,,,,,,,,,,,,,,,,,,,,,,,75.691,82.576,space,6.853,,-0.475925912,-0.164814801,0,0,0,0,0,0,0,1,,,,,,,,,,,,,,,,,,,,,,,,,,,,,,,,,,,,,,,,,,,,,,,,,,,
,,,,31807,001,2025-10-17_14h36.23.862,HW_LDT_1,2024.2.4,Win32,59.95203837,,,,,,,,,,,,,,,,,,,,,,82.589,82.775,82.775,83.275,,,,,,,,,,,,,,1.742,1,,,,,,,,,,,,,,z,,,,,,,,,,,,,,,,1,0,83.275,85.025,z,1,1.742,,[],[],[],[],[],[],[],85.025,87.025,87.025,87.036,[],[],[],[],[],[],[],,87.036,87.04,-0.475925912,-0.164814801,0,0,0,,0,0,0,64,1,2,TL,paficic,print,paficic_p.png,,,,,,
,,,,31807,001,2025-10-17_14h36.23.862,HW_LDT_1,2024.2.4,Win32,59.95203837,,,,,,,,,,,,,,,,,,,,,,87.042,87.242,87.242,87.741,,,,,,,,,,,,,,1.308,1,,,,,,,,,,,,,,z,,,,,,,,,,,,,,,,2,0,87.742,89.059,z,1,1.308,,[],[],[],[],[],[],[],89.059,91.058,91.058,91.059,[],[],[],[],[],[],[],,91.059,91.06,-0.475925912,-0.164814801,0,0,0,,0,1,1,55,1,2,TL,lotace,print,lotace_p.png,,,,,,
,,,,31807,001,2025-10-17_14h36.23.862,HW_LDT_1,2024.2.4,Win32,59.95203837,,,,,,,,,,,,,,,,,,,,,,91.063,91.258,91.258,91.758,,,,,,,,,,,,,,3.558,0,,,,,,,,,,,,,,m,,,,,,,,,,,,,,,,3,0,91.759,95.325,z,0,3.558,,[],[],[],[],[],[],[],95.325,97.324,97.325,97.325,[],[],[],[],[],[],[],,97.325,97.325,-0.475925912,-0.164814801,0,0,0,,0,2,2,146,1,2,word,RETIRE,cursive,retire_c.png,,,,,,
,,,,31807,001,2025-10-17_14h36.23.862,HW_LDT_1,2024.2.4,Win32,59.95203837,,,,,,,,,,,,,,,,,,,,,,97.328,97.525,97.525,98.026,,,,,,,,,,,,,,1.988,1,,,,,,,,,,,,,,z,,,,,,,,,,,,,,,,4,0,98.026,100.024,z,1,1.988,,[],[],[],[],[],[],[],100.025,102.025,102.025,102.025,[],[],[],[],[],[],[],,102.025,102.026,-0.475925912,-0.164814801,0,0,0,,0,3,3,0,1,2,RL,adnicory,print,adnicory_p.png,,,,,,
,,,,31807,001,2025-10-17_14h36.23.862,HW_LDT_1,2024.2.4,Win32,59.95203837,,,,,,,,,,,,,,,,,,,,,,102.028,102.224,102.225,102.724,,,,,,,,,,,,,,1.494,1,,,,,,,,,,,,,,z,,,,,,,,,,,,,,,,5,0,102.725,104.225,z,1,1.494,,[],[],[],[],[],[],[],104.225,106.225,106.225,106.225,[],[],[],[],[],[],[],,106.225,106.226,-0.475925912,-0.164814801,0,0,0,,0,4,4,39,1,2,TL,aminal,print,aminal_p.png,,,,,,
,,,,31807,001,2025-10-17_14h36.23.862,HW_LDT_1,2024.2.4,Win32,59.95203837,,,,,,,,,,,,,,,,,,,,,,106.228,106.424,106.424,106.925,,,,,,,,,,,,,,0.927,1,,,,,,,,,,,,,,m,,,,,,,,,,,,,,,,6,0,106.925,107.858,m,1,0.927,,[],[],[],[],[],[],[],107.858,109.858,109.858,109.859,[],[],[],[],[],[],[],,109.859,109.859,-0.475925912,-0.164814801,0,0,0,,0,5,5,80,1,2,word,ACADEMY,cursive,academy_c.png,,,,,,
,,,,31807,001,2025-10-17_14h36.23.862,HW_LDT_1,2024.2.4,Win32,59.95203837,,,,,,,,,,,,,,,,,,,,,,109.861,110.058,110.058,110.558,,,,,,,,,,,,,,1.977,1,,,,,,,,,,,,,,m,,,,,,,,,,,,,,,,7,1,110.558,112.543,m,1,1.977,,[],[],[],[],[],[],[],112.543,114.542,114.542,117.658,[],[],[],[],[],[],[],z,117.658,117.658,-0.475925912,-0.164814801,0,0,0,,0,6,6,107,1,2,word,EVIDENT,cursive,evident_c.png,3.114,,,,,
,,,,31807,001,2025-10-17_14h36.23.862,HW_LDT_1,2024.2.4,Win32,59.95203837,,,,,,,,,,,,,,,,,,,,,,117.663,117.858,117.858,118.358,,,,,,,,,,,,,,0.879,1,,,,,,,,,,,,,,m,,,,,,,,,,,,,,,,8,0,118.359,119.241,m,1,0.879,,[],[],[],[],[],[],[],119.241,121.241,121.241,121.242,[],[],[],[],[],[],[],,121.242,121.243,-0.475925912,-0.164814801,0,0,0,,0,7,7,96,1,2,word,CONSIDER,print,consider_p.png,,,,,,
,,,,31807,001,2025-10-17_14h36.23.862,HW_LDT_1,2024.2.4,Win32,59.95203837,,,,,,,,,,,,,,,,,,,,,,121.247,121.442,121.442,121.941,,,,,,,,,,,,,,1.108,1,,,,,,,,,,,,,,m,,,,,,,,,,,,,,,,9,0,121.942,123.058,m,1,1.108,,[],[],[],[],[],[],[],123.058,125.058,125.058,125.059,[],[],[],[],[],[],[],,125.059,125.059,-0.475925912,-0.164814801,0,0,0,,0,8,8,155,1,2,word,STRATEGY,cursive,strategy_c.png,,,,,,
,,,,31807,001,2025-10-17_14h36.23.862,HW_LDT_1,2024.2.4,Win32,59.95203837,,,,,,,,,,,,,,,,,,,,,,125.063,125.258,125.258,125.758,,,,,,,,,,,,,,3.66,1,,,,,,,,,,,,,,z,,,,,,,,,,,,,,,,10,0,125.759,129.425,z,1,3.66,,[],[],[],[],[],[],[],129.425,131.425,131.425,131.425,[],[],[],[],[],[],[],,131.425,131.426,-0.475925912,-0.164814801,0,0,0,,0,9,9,40,1,2,TL,bevoled,cursive,bevoled_c.png,,,,,,
,,,,31807,001,2025-10-17_14h36.23.862,HW_LDT_1,2024.2.4,Win32,59.95203837,,,,,,,,,,,,,,,,,,,,,,131.43,131.625,131.625,132.125,,,,,,,,,,,,,,1.307,1,,,,,,,,,,,,,,z,,,,,,,,,,,,,,,,11,0,132.126,133.441,z,1,1.307,,[],[],[],[],[],[],[],133.441,135.441,135.441,135.441,[],[],[],[],[],[],[],,135.441,135.441,-0.475925912,-0.164814801,0,0,0,,0,10,10,72,1,2,TL,revomal,print,revomal_p.png,,,,,,
,,,,31807,001,2025-10-17_14h36.23.862,HW_LDT_1,2024.2.4,Win32,59.95203837,,,,,,,,,,,,,,,,,,,,,,135.442,135.641,135.641,136.142,,,,,,,,,,,,,,0.724,1,,,,,,,,,,,,,,m,,,,,,,,,,,,,,,,12,1,136.142,136.875,m,1,0.724,,[],[],[],[],[],[],[],136.875,138.875,138.875,140.375,[],[],[],[],[],[],[],m,140.375,140.375,-0.475925912,-0.164814801,0,0,0,,0,11,11,112,1,2,word,LIBERAL,print,liberal_p.png,1.5,,,,,
,,,,31807,001,2025-10-17_14h36.23.862,HW_LDT_1,2024.2.4,Win32,59.95203837,,,,,,,,,,,,,,,,,,,,,,140.377,140.574,140.574,141.074,,,,,,,,,,,,,,1.193,1,,,,,,,,,,,,,,m,,,,,,,,,,,,,,,,13,0,141.075,142.275,m,1,1.193,,[],[],[],[],[],[],[],142.275,144.275,144.275,144.275,[],[],[],[],[],[],[],,144.275,144.275,-0.475925912,-0.164814801,0,0,0,,0,12,12,149,1,2,word,SENATOR,print,senator_p.png,,,,,,
,,,,31807,001,2025-10-17_14h36.23.862,HW_LDT_1,2024.2.4,Win32,59.95203837,,,,,,,,,,,,,,,,,,,,,,144.277,144.474,144.474,144.975,,,,,,,,,,,,,,1.359,1,,,,,,,,,,,,,,z,,,,,,,,,,,,,,,,14,0,144.975,146.343,z,1,1.359,,[],[],[],[],[],[],[],146.343,148.342,148.342,148.343,[],[],[],[],[],[],[],,148.343,148.344,-0.475925912,-0.164814801,0,0,0,,0,13,13,18,1,2,RL,mesibine,print,mesibine_p.png,,,,,,
,,,,31807,001,2025-10-17_14h36.23.862,HW_LDT_1,2024.2.4,Win32,59.95203837,,,,,,,,,,,,,,,,,,,,,,148.349,148.541,148.541,149.042,,,,,,,,,,,,,,3.571,0,,,,,,,,,,,,,,m,,,,,,,,,,,,,,,,15,0,149.043,152.625,z,0,3.571,,[],[],[],[],[],[],[],152.625,154.625,154.625,154.625,[],[],[],[],[],[],[],,154.625,154.625,-0.479629644,-0.165740755,0,0,0,,0,14,14,103,1,2,word,DISPUTE,cursive,dispute_c.png,,,,,,
,,,,31807,001,2025-10-17_14h36.23.862,HW_LDT_1,2024.2.4,Win32,59.95203837,,,,,,,,,,,,,,,,,,,,,,154.627,154.825,154.825,155.325,,,,,,,,,,,,,,1.39,1,,,,,,,,,,,,,,m,,,,,,,,,,,,,,,,16,0,155.325,156.725,m,1,1.39,,[],[],[],[],[],[],[],156.725,158.724,158.725,158.725,[],[],[],[],[],[],[],,158.725,158.725,-0.479629644,-0.165740755,0,0,0,,0,15,15,142,1,2,word,REMOTE,cursive,remote_c.png,,,,,,
,,,,31807,001,2025-10-17_14h36.23.862,HW_LDT_1,2024.2.4,Win32,59.95203837,,,,,,,,,,,,,,,,,,,,,,158.728,158.925,158.925,159.425,,,,,,,,,,,,,,1.845,1,,,,,,,,,,,,,,m,,,,,,,,,,,,,,,,17,0,159.426,161.275,m,1,1.845,,[],[],[],[],[],[],[],161.275,163.275,163.275,163.275,[],[],[],[],[],[],[],,163.275,163.275,-0.479629644,-0.165740755,0,0,0,,0,16,16,134,1,2,word,QUALIFY,cursive,qualify_c.png,,,,,,
,,,,31807,001,2025-10-17_14h36.23.862,HW_LDT_1,2024.2.4,Win32,59.95203837,,,,,,,,,,,,,,,,,,,,,,163.278,163.475,163.475,163.974,,,,,,,,,,,,,,1.098,1,,,,,,,,,,,,,,z,,,,,,,,,,,,,,,,18,0,163.975,165.075,z,1,1.098,,[],[],[],[],[],[],[],165.075,167.075,167.075,167.075,[],[],[],[],[],[],[],,167.075,167.075,-0.479629644,-0.165740755,0,0,0,,0,17,17,6,1,2,RL,conbicer,print,conbicer_p.png,,,,,,
,,,,31807,001,2025-10-17_14h36.23.862,HW_LDT_1,2024.2.4,Win32,59.95203837,,,,,,,,,,,,,,,,,,,,,,167.079,167.275,167.275,167.774,,,,,,,,,,,,,,0.708,1,,,,,,,,,,,,,,m,,,,,,,,,,,,,,,,19,0,167.775,168.492,m,1,0.708,,[],[],[],[],[],[],[],168.492,170.491,170.491,170.491,[],[],[],[],[],[],[],,170.491,170.492,-0.479629644,-0.165740755,0,0,0,,0,18,18,100,1,2,word,DECADE,print,decade_p.png,,,,,,
,,,,31807,001,2025-10-17_14h36.23.862,HW_LDT_1,2024.2.4,Win32,59.95203837,,,,,,,,,,,,,,,,,,,,,,170.494,170.691,170.692,171.191,,,,,,,,,,,,,,2.109,0,,,,,,,,,,,,,,m,,,,,,,,,,,,,,,,20,0,171.192,173.308,z,0,2.109,,[],[],[],[],[],[],[],173.308,175.309,175.309,175.309,[],[],[],[],[],[],[],,175.309,175.309,-0.479629644,-0.165740755,0,0,0,,0,19,19,121,1,2,word,MISTAKE,cursive,mistake_c.png,,,,,,
,,,,31807,001,2025-10-17_14h36.23.862,HW_LDT_1,2024.2.4,Win32,59.95203837,,,,,,,,,,,,,,,,,,,,,,175.312,175.509,175.511,176.008,,,,,,,,,,,,,,0.938,1,,,,,,,,,,,,,,m,,,,,,,,,,,,,,,,21,0,176.014,176.959,m,1,0.938,,[],[],[],[],[],[],[],176.959,178.958,178.958,178.959,[],[],[],[],[],[],[],,178.959,178.959,-0.479629644,-0.165740755,0,0,0,,0,20,20,84,1,2,word,BELOVED,cursive,beloved_c.png,,,,,,
,,,,31807,001,2025-10-17_14h36.23.862,HW_LDT_1,2024.2.4,Win32,59.95203837,,,,,,,,,,,,,,,,,,,,,,178.964,179.158,179.158,179.658,,,,,,,,,,,,,,0.663,1,,,,,,,,,,,,,,m,,,,,,,,,,,,,,,,22,1,179.658,180.324,m,1,0.663,,[],[],[],[],[],[],[],180.324,182.324,182.324,185.708,[],[],[],[],[],[],[],m,185.709,185.709,-0.479629644,-0.165740755,0,0,0,,0,21,21,102,1,2,word,DENSITY,print,density_p.png,3.377,,,,,
,,,,31807,001,2025-10-17_14h36.23.862,HW_LDT_1,2024.2.4,Win32,59.95203837,,,,,,,,,,,,,,,,,,,,,,185.713,185.908,185.909,186.407,,,,,,,,,,,,,,1.725,1,,,,,,,,,,,,,,m,,,,,,,,,,,,,,,,23,0,186.409,188.141,m,1,1.725,,[],[],[],[],[],[],[],188.141,190.141,190.141,190.142,[],[],[],[],[],[],[],,190.142,190.142,-0.479629644,-0.165740755,0,0,0,,0,22,22,141,1,2,word,RELIGION,cursive,religion_c.png,,,,,,
,,,,31807,001,2025-10-17_14h36.23.862,HW_LDT_1,2024.2.4,Win32,59.95203837,,,,,,,,,,,,,,,,,,,,,,190.145,190.341,190.341,190.841,,,,,,,,,,,,,,1.01,1,,,,,,,,,,,,,,z,,,,,,,,,,,,,,,,24,0,190.842,191.858,z,1,1.01,,[],[],[],[],[],[],[],191.858,193.858,193.858,193.858,[],[],[],[],[],[],[],,193.858,193.858,-0.479629644,-0.165740755,0,0,0,,0,23,23,49,1,2,TL,dedace,print,dedace_p.png,,,,,,
,,,,31807,001,2025-10-17_14h36.23.862,HW_LDT_1,2024.2.4,Win32,59.95203837,,,,,,,,,,,,,,,,,,,,,,193.86,194.058,194.058,194.558,,,,,,,,,,,,,,2.154,1,,,,,,,,,,,,,,z,,,,,,,,,,,,,,,,25,0,194.559,196.725,z,1,2.154,,[],[],[],[],[],[],[],196.725,198.724,198.725,198.725,[],[],[],[],[],[],[],,198.725,198.725,-0.479629644,-0.165740755,0,0,0,,0,24,24,20,1,2,RL,onegator,cursive,onegator_c.png,,,,,,
,,,,31807,001,2025-10-17_14h36.23.862,HW_LDT_1,2024.2.4,Win32,59.95203837,,,,,,,,,,,,,,,,,,,,,,198.727,198.924,198.924,199.424,,,,,,,,,,,,,,1.871,1,,,,,,,,,,,,,,z,,,,,,,,,,,,,,,,26,1,199.425,201.308,z,1,1.871,,[],[],[],[],[],[],[],201.308,203.308,203.308,206.692,[],[],[],[],[],[],[],z,206.692,206.693,-0.874074074,0.037037023,0,0,0,,0,25,25,76,1,2,TL,senmitent,cursive,senmitent_c.png,3.377,,,,,
,,,,31807,001,2025-10-17_14h36.23.862,HW_LDT_1,2024.2.4,Win32,59.95203837,,,,,,,,,,,,,,,,,,,,,,206.696,206.892,206.892,207.391,,,,,,,,,,,,,,2.173,1,,,,,,,,,,,,,,z,,,,,,,,,,,,,,,,27,1,207.392,209.574,z,1,2.173,,[],[],[],[],[],[],[],209.574,211.575,211.575,213.158,[],[],[],[],[],[],[],z,213.158,213.158,-0.874074074,0.037037023,0,0,0,,0,26,26,54,1,2,TL,liretal,cursive,liretal_c.png,1.576,,,,,
,,,,31807,001,2025-10-17_14h36.23.862,HW_LDT_1,2024.2.4,Win32,59.95203837,,,,,,,,,,,,,,,,,,,,,,213.16,213.358,213.358,213.858,,,,,,,,,,,,,,1.139,1,,,,,,,,,,,,,,m,,,,,,,,,,,,,,,,28,0,213.859,215.007,m,1,1.139,,[],[],[],[],[],[],[],215.007,217.008,217.008,217.009,[],[],[],[],[],[],[],,217.009,217.009,-0.874074074,0.037037023,0,0,0,,0,27,27,143,1,2,word,REMOVAL,print,removal_p.png,,,,,,
,,,,31807,001,2025-10-17_14h36.23.862,HW_LDT_1,2024.2.4,Win32,59.95203837,,,,,,,,,,,,,,,,,,,,,,217.012,217.208,217.209,217.708,,,,,,,,,,,,,,0.889,1,,,,,,,,,,,,,,z,,,,,,,,,,,,,,,,29,0,217.709,218.609,z,1,0.889,,[],[],[],[],[],[],[],218.609,220.608,220.608,220.608,[],[],[],[],[],[],[],,220.608,220.608,-0.874074074,0.037037023,0,0,0,,0,28,28,9,1,2,RL,denficy,print,denficy_p.png,,,,,,
,,,,31807,001,2025-10-17_14h36.23.862,HW_LDT_1,2024.2.4,Win32,59.95203837,,,,,,,,,,,,,,,,,,,,,,220.611,220.808,220.808,221.308,,,,,,,,,,,,,,1.641,1,,,,,,,,,,,,,,z,,,,,,,,,,,,,,,,30,0,221.309,222.958,z,1,1.641,,[],[],[],[],[],[],[],222.958,224.958,224.958,224.958,[],[],[],[],[],[],[],,224.958,224.959,-0.874074074,0.037037023,0,0,0,,0,29,29,33,1,2,RL,strapely,cursive,strapely_c.png,,,,,,
,,,,31807,001,2025-10-17_14h36.23.862,HW_LDT_1,2024.2.4,Win32,59.95203837,,,,,,,,,,,,,,,,,,,,,,224.962,225.158,225.158,225.658,,,,,,,,,,,,,,0.71,1,,,,,,,,,,,,,,m,,,,,,,,,,,,,,,,31,1,225.659,226.374,m,1,0.71,,[],[],[],[],[],[],[],226.374,228.374,228.374,229.425,[],[],[],[],[],[],[],m,229.425,229.425,-0.874074074,0.037037023,0,0,0,,0,30,30,122,1,2,word,MOBILE,print,mobile_p.png,1.042,,,,,
,,,,31807,001,2025-10-17_14h36.23.862,HW_LDT_1,2024.2.4,Win32,59.95203837,,,,,,,,,,,,,,,,,,,,,,229.426,229.625,229.625,230.125,,,,,,,,,,,,,,0.631,1,,,,,,,,,,,,,,m,,,,,,,,,,,,,,,,32,0,230.125,230.758,m,1,0.631,,[],[],[],[],[],[],[],230.758,232.758,232.758,232.758,[],[],[],[],[],[],[],,232.758,232.758,-0.874074074,0.037037023,0,0,0,,0,31,31,92,1,2,word,CATEGORY,print,category_p.png,,,,,,
,,,,31807,001,2025-10-17_14h36.23.862,HW_LDT_1,2024.2.4,Win32,59.95203837,,,,,,,,,,,,,,,,,,,,,,232.76,232.958,232.958,233.458,,,,,,,,,,,,,,1.575,0,,,,,,,,,,,,,,m,,,,,,,,,,,,,,,,33,0,233.458,235.041,z,0,1.575,,[],[],[],[],[],[],[],235.041,237.042,237.042,237.042,[],[],[],[],[],[],[],,237.042,237.042,-0.874074074,0.037037023,0,0,0,,0,32,32,136,1,2,word,RADICAL,cursive,radical_c.png,,,,,,
,,,,31807,001,2025-10-17_14h36.23.862,HW_LDT_1,2024.2.4,Win32,59.95203837,,,,,,,,,,,,,,,,,,,,,,237.046,237.241,237.241,237.741,,,,,,,,,,,,,,1.875,1,,,,,,,,,,,,,,z,,,,,,,,,,,,,,,,34,0,237.742,239.625,z,1,1.875,,[],[],[],[],[],[],[],239.625,241.625,241.626,241.627,[],[],[],[],[],[],[],,241.627,241.628,-0.874074074,0.037037023,0,0,0,,0,33,33,37,1,2,TL,adacemy,cursive,adacemy_c.png,,,,,,
,,,,31807,001,2025-10-17_14h36.23.862,HW_LDT_1,2024.2.4,Win32,59.95203837,,,,,,,,,,,,,,,,,,,,,,241.633,241.825,241.825,242.324,,,,,,,,,,,,,,0.96,1,,,,,,,,,,,,,,z,,,,,,,,,,,,,,,,35,0,242.325,243.292,z,1,0.96,,[],[],[],[],[],[],[],243.292,245.291,245.291,245.292,[],[],[],[],[],[],[],,245.292,245.292,-0.874074074,0.037037023,0,0,0,,0,34,34,25,1,2,RL,rabigly,print,rabigly_p.png,,,,,,
,,,,31807,001,2025-10-17_14h36.23.862,HW_LDT_1,2024.2.4,Win32,59.95203837,,,,,,,,,,,,,,,,,,,,,,245.296,245.492,245.492,245.992,,,,,,,,,,,,,,0.677,1,,,,,,,,,,,,,,m,,,,,,,,,,,,,,,,36,0,245.992,246.674,m,1,0.677,,[],[],[],[],[],[],[],246.674,248.675,248.675,248.675,[],[],[],[],[],[],[],,248.675,248.675,-0.874074074,0.037037023,0,0,0,,0,35,35,129,1,2,word,PARENT,print,parent_p.png,,,,,,
,,,,31807,001,2025-10-17_14h36.23.862,HW_LDT_1,2024.2.4,Win32,59.95203837,,,,,,,,,,,,,,,,,,,,,,248.677,248.875,248.875,249.374,,,,,,,,,,,,,,0.922,1,,,,,,,,,,,,,,z,,,,,,,,,,,,,,,,37,0,249.376,250.308,z,1,0.922,,[],[],[],[],[],[],[],250.308,252.307,252.307,252.307,[],[],[],[],[],[],[],,252.307,252.308,-0.874074074,0.037037023,0,0,0,,0,36,36,15,1,2,RL,linedal,print,linedal_p.png,,,,,,
,,,,31807,001,2025-10-17_14h36.23.862,HW_LDT_1,2024.2.4,Win32,59.95203837,,,,,,,,,,,,,,,,,,,,,,252.311,252.508,252.508,253.008,,,,,,,,,,,,,,2.591,0,,,,,,,,,,,,,,m,,,,,,,,,,,,,,,,38,0,253.009,255.608,z,0,2.591,,[],[],[],[],[],[],[],255.608,257.608,257.608,257.608,[],[],[],[],[],[],[],,257.608,257.608,-0.874074074,0.037037023,0,0,0,,0,37,37,123,1,2,word,MODERATE,cursive,moderate_c.png,,,,,,
,,,,31807,001,2025-10-17_14h36.23.862,HW_LDT_1,2024.2.4,Win32,59.95203837,,,,,,,,,,,,,,,,,,,,,,257.61,257.808,257.808,258.308,,,,,,,,,,,,,,1.525,1,,,,,,,,,,,,,,z,,,,,,,,,,,,,,,,39,0,258.308,259.841,z,1,1.525,,[],[],[],[],[],[],[],259.841,261.841,261.841,261.841,[],[],[],[],[],[],[],,261.841,261.841,-0.874074074,0.037037023,0,0,0,,0,38,38,35,1,2,RL,vesofity,print,vesofity_p.png,,,,,,
,,,,31807,001,2025-10-17_14h36.23.862,HW_LDT_1,2024.2.4,Win32,59.95203837,,,,,,,,,,,,,,,,,,,,,,261.843,262.041,262.041,262.541,,,,,,,,,,,,,,2.074,1,,,,,,,,,,,,,,z,,,,,,,,,,,,,,,,40,0,262.542,264.625,z,1,2.074,,[],[],[],[],[],[],[],264.625,266.625,266.625,266.625,[],[],[],[],[],[],[],,266.625,266.625,-0.874074074,0.037037023,0,0,0,,0,39,39,19,1,2,RL,monebate,cursive,monebate_c.png,,,,,,
,,,,31807,001,2025-10-17_14h36.23.862,HW_LDT_1,2024.2.4,Win32,59.95203837,,,,,,,,,,,,,,,,,,,,,,266.627,266.825,266.825,267.324,,,,,,,,,,,,,,4.708,1,,,,,,,,,,,,,,m,,,,,,,,,,,,,,,,41,0,267.325,272.043,m,1,4.708,,[],[],[],[],[],[],[],272.043,274.041,274.041,274.042,[],[],[],[],[],[],[],,274.042,274.042,-0.874074074,0.037037023,0,0,0,,0,40,40,106,1,2,word,ELABORATE,cursive,elaborate_c.png,,,,,,
,,,,31807,001,2025-10-17_14h36.23.862,HW_LDT_1,2024.2.4,Win32,59.95203837,,,,,,,,,,,,,,,,,,,,,,274.047,274.24,274.24,274.741,,,,,,,,,,,,,,0.823,1,,,,,,,,,,,,,,z,,,,,,,,,,,,,,,,42,0,274.742,275.575,z,1,0.823,,[],[],[],[],[],[],[],275.575,277.574,277.575,277.575,[],[],[],[],[],[],[],,277.575,277.575,-0.874074074,0.037037023,0,0,0,,0,41,41,13,1,2,RL,helicage,print,helicage_p.png,,,,,,
,,,,31807,001,2025-10-17_14h36.23.862,HW_LDT_1,2024.2.4,Win32,59.95203837,,,,,,,,,,,,,,,,,,,,,,277.577,277.775,277.775,278.275,,,,,,,,,,,,,,5.107,1,,,,,,,,,,,,,,z,,,,,,,,,,,,,,,,43,0,278.276,283.391,z,1,5.107,,[],[],[],[],[],[],[],283.391,285.391,285.391,285.391,[],[],[],[],[],[],[],,285.392,285.392,-0.874074074,0.037037023,0,0,0,,0,42,42,27,1,2,RL,repifion,cursive,repifion_c.png,,,,,,
,,,,31807,001,2025-10-17_14h36.23.862,HW_LDT_1,2024.2.4,Win32,59.95203837,,,,,,,,,,,,,,,,,,,,,,285.396,285.591,285.591,286.091,,,,,,,,,,,,,,1.244,1,,,,,,,,,,,,,,z,,,,,,,,,,,,,,,,44,1,286.092,287.341,z,1,1.244,,[],[],[],[],[],[],[],287.341,289.341,289.341,290.741,[],[],[],[],[],[],[],z,290.741,290.742,-0.874074074,0.037037023,0,0,0,,0,43,43,32,1,2,RL,speniven,print,speniven_p.png,1.393,,,,,
,,,,31807,001,2025-10-17_14h36.23.862,HW_LDT_1,2024.2.4,Win32,59.95203837,,,,,,,,,,,,,,,,,,,,,,290.745,290.941,290.941,291.441,,,,,,,,,,,,,,0.83,1,,,,,,,,,,,,,,m,,,,,,,,,,,,,,,,45,0,291.441,292.274,m,1,0.83,,[],[],[],[],[],[],[],292.274,294.275,294.275,294.275,[],[],[],[],[],[],[],,294.275,294.275,-0.874074074,0.037037023,0,0,0,,0,44,44,83,1,2,word,ANIMAL,print,animal_p.png,,,,,,
,,,,31807,001,2025-10-17_14h36.23.862,HW_LDT_1,2024.2.4,Win32,59.95203837,,,,,,,,,,,,,,,,,,,,,,294.277,294.474,294.474,294.975,,,,,,,,,,,,,,2.641,1,,,,,,,,,,,,,,z,,,,,,,,,,,,,,,,46,0,294.975,297.625,z,1,2.641,,[],[],[],[],[],[],[],297.625,299.624,299.624,299.624,[],[],[],[],[],[],[],,299.624,299.624,-0.874074074,0.037037023,0,0,0,,0,45,45,28,1,2,RL,revune,cursive,revune_c.png,,,,,,
,,,,31807,001,2025-10-17_14h36.23.862,HW_LDT_1,2024.2.4,Win32,59.95203837,,,,,,,,,,,,,,,,,,,,,,299.625,299.825,299.825,300.324,,,,,,,,,,,,,,1.825,1,,,,,,,,,,,,,,z,,,,,,,,,,,,,,,,47,0,300.325,302.158,z,1,1.825,,[],[],[],[],[],[],[],302.158,304.157,304.158,304.158,[],[],[],[],[],[],[],,304.158,304.159,-0.874074074,0.037037023,0,0,0,,0,46,46,38,1,2,TL,atameur,cursive,atameur_c.png,,,,,,
,,,,31807,001,2025-10-17_14h36.23.862,HW_LDT_1,2024.2.4,Win32,59.95203837,,,,,,,,,,,,,,,,,,,,,,304.161,304.359,304.359,304.858,,,,,,,,,,,,,,1.662,1,,,,,,,,,,,,,,m,,,,,,,,,,,,,,,,48,0,304.86,306.525,m,1,1.662,,[],[],[],[],[],[],[],306.526,308.524,308.524,308.524,[],[],[],[],[],[],[],,308.524,308.524,-0.874074074,0.037037023,0,0,0,,0,47,47,150,1,2,word,SENTIMENT,cursive,sentiment_c.png,,,,,,
,,,,31807,001,2025-10-17_14h36.23.862,HW_LDT_1,2024.2.4,Win32,59.95203837,,,,,,,,,,,,,,,,,,,,,,308.528,308.723,308.723,309.224,,,,,,,,,,,,,,4.858,1,,,,,,,,,,,,,,m,,,,,,,,,,,,,,,,49,0,309.225,314.091,m,1,4.858,,[],[],[],[],[],[],[],314.092,316.091,316.091,316.091,[],[],[],[],[],[],[],,316.091,316.092,-0.874074074,0.037037023,0,0,0,,0,48,48,145,1,2,word,RESUME,cursive,resume_c.png,,,,,,
,,,,31807,001,2025-10-17_14h36.23.862,HW_LDT_1,2024.2.4,Win32,59.95203837,,,,,,,,,,,,,,,,,,,,,,316.095,316.291,316.291,316.791,,,,,,,,,,,,,,0.809,1,,,,,,,,,,,,,,z,,,,,,,,,,,,,,,,50,0,316.791,317.608,z,1,0.809,,[],[],[],[],[],[],[],317.608,319.608,319.608,319.608,[],[],[],[],[],[],[],,319.608,319.608,-0.874074074,0.037037023,0,0,0,,0,49,49,48,1,2,TL,detabe,print,detabe_p.png,,,,,,
,,,,31807,001,2025-10-17_14h36.23.862,HW_LDT_1,2024.2.4,Win32,59.95203837,,,,,,,,,,,,,,,,,,,,,,319.61,319.808,319.808,320.308,,,,,,,,,,,,,,0.722,1,,,,,,,,,,,,,,m,,,,,,,,,,,,,,,,51,0,320.309,321.041,m,1,0.722,,[],[],[],[],[],[],[],321.041,323.041,323.041,323.042,[],[],[],[],[],[],[],,323.042,323.042,-0.874074074,0.037037023,0,0,0,,0,50,50,108,1,2,word,FORTUNE,print,fortune_p.png,,,,,,
,,,,31807,001,2025-10-17_14h36.23.862,HW_LDT_1,2024.2.4,Win32,59.95203837,,,,,,,,,,,,,,,,,,,,,,323.045,323.241,323.241,323.741,,,,,,,,,,,,,,0.809,1,,,,,,,,,,,,,,m,,,,,,,,,,,,,,,,52,0,323.742,324.558,m,1,0.809,,[],[],[],[],[],[],[],324.558,326.558,326.558,326.558,[],[],[],[],[],[],[],,326.558,326.558,-0.874074074,0.037037023,0,0,0,,0,51,51,81,1,2,word,ADVISORY,print,advisory_p.png,,,,,,
,,,,31807,001,2025-10-17_14h36.23.862,HW_LDT_1,2024.2.4,Win32,59.95203837,,,,,,,,,,,,,,,,,,,,,,326.56,326.758,326.758,327.258,,,,,,,,,,,,,,1.095,1,,,,,,,,,,,,,,z,,,,,,,,,,,,,,,,53,0,327.259,328.358,z,1,1.095,,[],[],[],[],[],[],[],328.358,330.357,330.357,330.358,[],[],[],[],[],[],[],,330.358,330.358,-0.874074074,0.037037023,0,0,0,,0,52,52,79,1,2,TL,vadility,print,vadility_p.png,,,,,,
,,,,31807,001,2025-10-17_14h36.23.862,HW_LDT_1,2024.2.4,Win32,59.95203837,,,,,,,,,,,,,,,,,,,,,,330.359,330.557,330.557,331.058,,,,,,,,,,,,,,1.143,1,,,,,,,,,,,,,,z,,,,,,,,,,,,,,,,54,0,331.059,332.208,z,1,1.143,,[],[],[],[],[],[],[],332.208,334.208,334.208,334.208,[],[],[],[],[],[],[],,334.208,334.208,-0.874074074,0.037037023,0,0,0,,0,53,53,77,1,2,TL,sloten,print,sloten_p.png,,,,,,
,,,,31807,001,2025-10-17_14h36.23.862,HW_LDT_1,2024.2.4,Win32,59.95203837,,,,,,,,,,,,,,,,,,,,,,334.209,334.408,334.408,334.908,,,,,,,,,,,,,,0.943,1,,,,,,,,,,,,,,z,,,,,,,,,,,,,,,,55,0,334.908,335.858,z,1,0.943,,[],[],[],[],[],[],[],335.858,337.858,337.858,337.858,[],[],[],[],[],[],[],,337.858,337.858,-0.874074074,0.037037023,0,0,0,,0,54,54,50,1,2,TL,donimant,print,donimant_p.png,,,,,,
,,,,31807,001,2025-10-17_14h36.23.862,HW_LDT_1,2024.2.4,Win32,59.95203837,,,,,,,,,,,,,,,,,,,,,,337.859,338.058,338.058,338.559,,,,,,,,,,,,,,0.853,1,,,,,,,,,,,,,,m,,,,,,,,,,,,,,,,56,0,338.562,339.424,m,1,0.853,,[],[],[],[],[],[],[],339.424,341.424,341.424,341.426,[],[],[],[],[],[],[],,341.426,341.426,-0.874074074,0.037037023,0,0,0,,0,55,55,130,1,2,word,POLICY,print,policy_p.png,,,,,,
,,,,31807,001,2025-10-17_14h36.23.862,HW_LDT_1,2024.2.4,Win32,59.95203837,,,,,,,,,,,,,,,,,,,,,,341.43,341.624,341.624,342.125,,,,,,,,,,,,,,0.977,1,,,,,,,,,,,,,,m,,,,,,,,,,,,,,,,57,0,342.125,343.107,m,1,0.977,,[],[],[],[],[],[],[],343.107,345.108,345.108,345.108,[],[],[],[],[],[],[],,345.108,345.109,-0.874074074,0.037037023,0,0,0,,0,56,56,156,1,2,word,TRIBUTE,cursive,tribute_c.png,,,,,,
,,,,31807,001,2025-10-17_14h36.23.862,HW_LDT_1,2024.2.4,Win32,59.95203837,,,,,,,,,,,,,,,,,,,,,,345.112,345.308,345.308,345.808,,,,,,,,,,,,,,0.69,1,,,,,,,,,,,,,,z,,,,,,,,,,,,,,,,58,0,345.809,346.508,z,1,0.69,,[],[],[],[],[],[],[],346.508,348.507,348.508,348.508,[],[],[],[],[],[],[],,348.508,348.508,-0.874074074,0.037037023,0,0,0,,0,57,57,73,1,2,TL,redisent,print,redisent_p.png,,,,,,
,,,,31807,001,2025-10-17_14h36.23.862,HW_LDT_1,2024.2.4,Win32,59.95203837,,,,,,,,,,,,,,,,,,,,,,348.51,348.708,348.708,349.208,,,,,,,,,,,,,,1.189,1,,,,,,,,,,,,,,m,,,,,,,,,,,,,,,,59,0,349.209,350.407,m,1,1.189,,[],[],[],[],[],[],[],350.407,352.408,352.408,352.409,[],[],[],[],[],[],[],,352.409,352.409,-0.874074074,0.037037023,0,0,0,,0,58,58,82,1,2,word,AMATEUR,cursive,amateur_c.png,,,,,,
,,,,31807,001,2025-10-17_14h36.23.862,HW_LDT_1,2024.2.4,Win32,59.95203837,,,,,,,,,,,,,,,,,,,,,,352.413,352.608,352.608,353.107,,,,,,,,,,,,,,3.097,1,,,,,,,,,,,,,,z,,,,,,,,,,,,,,,,60,0,353.108,356.207,z,1,3.097,,[],[],[],[],[],[],[],356.207,358.208,358.208,358.208,[],[],[],[],[],[],[],,358.208,358.208,-0.874074074,0.037037023,0,0,0,,0,59,59,51,1,2,TL,etidor,cursive,etidor_c.png,,,,,,
,,,,31807,001,2025-10-17_14h36.23.862,HW_LDT_1,2024.2.4,Win32,59.95203837,,,,,,,,,,,,,,,,,,,,,,358.21,358.408,358.408,358.908,,,,,,,,,,,,,,1.59,1,,,,,,,,,,,,,,z,,,,,,,,,,,,,,,,61,0,358.909,360.508,z,1,1.59,,[],[],[],[],[],[],[],360.509,362.507,362.507,362.507,[],[],[],[],[],[],[],,362.507,362.507,-0.874074074,0.037037023,0,0,0,,0,60,60,10,1,2,RL,disluge,cursive,disluge_c.png,,,,,,
,,,,31807,001,2025-10-17_14h36.23.862,HW_LDT_1,2024.2.4,Win32,59.95203837,,,,,,,,,,,,,,,,,,,,,,362.509,362.708,362.708,363.208,,,,,,,,,,,,,,1.792,1,,,,,,,,,,,,,,z,,,,,,,,,,,,,,,,62,1,363.208,365.008,z,1,1.792,,[],[],[],[],[],[],[],365.008,367.008,367.008,368.207,[],[],[],[],[],[],[],z,368.208,368.208,-0.810185183,0.104629644,0,0,0,,0,61,61,44,1,2,TL,catipal,cursive,catipal_c.png,1.192,,,,,
,,,,31807,001,2025-10-17_14h36.23.862,HW_LDT_1,2024.2.4,Win32,59.95203837,,,,,,,,,,,,,,,,,,,,,,368.209,368.408,368.408,368.908,,,,,,,,,,,,,,1.657,1,,,,,,,,,,,,,,m,,,,,,,,,,,,,,,,63,0,368.909,370.574,m,1,1.657,,[],[],[],[],[],[],[],370.574,372.575,372.576,372.577,[],[],[],[],[],[],[],,372.578,372.578,-0.810185183,0.104629644,0,0,0,,0,62,62,94,1,2,word,CLINICAL,cursive,clinical_c.png,,,,,,
,,,,31807,001,2025-10-17_14h36.23.862,HW_LDT_1,2024.2.4,Win32,59.95203837,,,,,,,,,,,,,,,,,,,,,,372.584,372.774,372.774,373.275,,,,,,,,,,,,,,0.824,1,,,,,,,,,,,,,,z,,,,,,,,,,,,,,,,64,0,373.275,374.108,z,1,0.824,,[],[],[],[],[],[],[],374.108,376.108,376.108,376.108,[],[],[],[],[],[],[],,376.108,376.108,-0.810185183,0.104629644,0,0,0,,0,63,63,75,1,2,TL,ronamtic,print,ronamtic_p.png,,,,,,
,,,,31807,001,2025-10-17_14h36.23.862,HW_LDT_1,2024.2.4,Win32,59.95203837,,,,,,,,,,,,,,,,,,,,,,376.111,376.308,376.308,376.807,,,,,,,,,,,,,,1.506,0,,,,,,,,,,,,,,m,,,,,,,,,,,,,,,,65,0,376.81,378.325,z,0,1.506,,[],[],[],[],[],[],[],378.325,380.325,380.325,380.325,[],[],[],[],[],[],[],,380.325,380.325,-0.810185183,0.104629644,0,0,0,,0,64,64,125,1,2,word,OPERATOR,cursive,operator_c.png,,,,,,
,,,,31807,001,2025-10-17_14h36.23.862,HW_LDT_1,2024.2.4,Win32,59.95203837,,,,,,,,,,,,,,,,,,,,,,380.328,380.525,380.525,381.024,,,,,,,,,,,,,,0.823,1,,,,,,,,,,,,,,z,,,,,,,,,,,,,,,,66,0,381.026,381.857,z,1,0.823,,[],[],[],[],[],[],[],381.857,383.857,383.857,383.858,[],[],[],[],[],[],[],,383.858,383.858,-0.810185183,0.104629644,0,0,0,,0,65,65,3,1,2,RL,capefory,print,capefory_p.png,,,,,,
,,,,31807,001,2025-10-17_14h36.23.862,HW_LDT_1,2024.2.4,Win32,59.95203837,,,,,,,,,,,,,,,,,,,,,,383.86,384.057,384.058,384.558,,,,,,,,,,,,,,0.912,1,,,,,,,,,,,,,,m,,,,,,,,,,,,,,,,67,0,384.558,385.474,m,1,0.912,,[],[],[],[],[],[],[],385.474,387.475,387.475,387.475,[],[],[],[],[],[],[],,387.475,387.475,-0.810185183,0.104629644,0,0,0,,0,66,66,148,1,2,word,SALINE,cursive,saline_c.png,,,,,,
,,,,31807,001,2025-10-17_14h36.23.862,HW_LDT_1,2024.2.4,Win32,59.95203837,,,,,,,,,,,,,,,,,,,,,,387.477,387.675,387.675,388.174,,,,,,,,,,,,,,0.708,1,,,,,,,,,,,,,,z,,,,,,,,,,,,,,,,68,0,388.175,388.891,z,1,0.708,,[],[],[],[],[],[],[],388.891,390.89,390.89,390.89,[],[],[],[],[],[],[],,390.891,390.891,-0.810185183,0.104629644,0,0,0,,0,67,67,60,1,2,TL,molibe,print,molibe_p.png,,,,,,
,,,,31807,001,2025-10-17_14h36.23.862,HW_LDT_1,2024.2.4,Win32,59.95203837,,,,,,,,,,,,,,,,,,,,,,390.894,391.091,391.091,391.591,,,,,,,,,,,,,,1.041,1,,,,,,,,,,,,,,m,,,,,,,,,,,,,,,,69,0,391.591,392.641,m,1,1.041,,[],[],[],[],[],[],[],392.641,394.641,394.641,394.641,[],[],[],[],[],[],[],,394.641,394.641,-0.810185183,0.104629644,0,0,0,,0,68,68,115,1,2,word,LOGICAL,print,logical_p.png,,,,,,
,,,,31807,001,2025-10-17_14h36.23.862,HW_LDT_1,2024.2.4,Win32,59.95203837,,,,,,,,,,,,,,,,,,,,,,394.643,394.841,394.841,395.341,,,,,,,,,,,,,,3.959,1,,,,,,,,,,,,,,m,,,,,,,,,,,,,,,,70,1,395.342,399.307,m,1,3.959,,[],[],[],[],[],[],[],399.307,401.307,401.307,402.209,[],[],[],[],[],[],[],z,402.209,402.209,-0.810185183,0.104629644,0,0,0,,0,69,69,138,1,2,word,REFUSAL,cursive,refusal_c.png,0.893,,,,,
,,,,31807,001,2025-10-17_14h36.23.862,HW_LDT_1,2024.2.4,Win32,59.95203837,,,,,,,,,,,,,,,,,,,,,,402.213,402.408,402.408,402.908,,,,,,,,,,,,,,3.761,1,,,,,,,,,,,,,,m,,,,,,,,,,,,,,,,71,0,402.909,406.674,m,1,3.761,,[],[],[],[],[],[],[],406.674,408.675,408.675,408.675,[],[],[],[],[],[],[],,408.675,408.675,-0.810185183,0.104629644,0,0,0,,0,70,70,126,1,2,word,OPTIMAL,cursive,optimal_c.png,,,,,,
,,,,31807,001,2025-10-17_14h36.23.862,HW_LDT_1,2024.2.4,Win32,59.95203837,,,,,,,,,,,,,,,,,,,,,,408.678,408.875,408.875,409.374,,,,,,,,,,,,,,0.84,1,,,,,,,,,,,,,,m,,,,,,,,,,,,,,,,72,0,409.375,410.225,m,1,0.84,,[],[],[],[],[],[],[],410.225,412.224,412.224,412.225,[],[],[],[],[],[],[],,412.225,412.225,-0.810185183,0.104629644,0,0,0,,0,71,71,140,1,2,word,RELATIVE,print,relative_p.png,,,,,,
,,,,31807,001,2025-10-17_14h36.23.862,HW_LDT_1,2024.2.4,Win32,59.95203837,,,,,,,,,,,,,,,,,,,,,,412.228,412.424,412.424,412.924,,,,,,,,,,,,,,1.598,1,,,,,,,,,,,,,,z,,,,,,,,,,,,,,,,73,0,412.925,414.524,z,1,1.598,,[],[],[],[],[],[],[],414.524,416.525,416.525,416.525,[],[],[],[],[],[],[],,416.525,416.525,-0.810185183,0.104629644,0,0,0,,0,72,72,2,1,2,RL,casagity,print,casagity_p.png,,,,,,
,,,,31807,001,2025-10-17_14h36.23.862,HW_LDT_1,2024.2.4,Win32,59.95203837,,,,,,,,,,,,,,,,,,,,,,416.529,416.725,416.725,417.224,,,,,,,,,,,,,,1.513,0,,,,,,,,,,,,,,z,,,,,,,,,,,,,,,,74,0,417.226,418.741,m,0,1.513,,[],[],[],[],[],[],[],418.741,420.741,420.741,420.742,[],[],[],[],[],[],[],,420.742,420.742,-0.810185183,0.104629644,0,0,0,,0,73,73,34,1,2,RL,trilude,cursive,trilude_c.png,,,,,,
,,,,31807,001,2025-10-17_14h36.23.862,HW_LDT_1,2024.2.4,Win32,59.95203837,,,,,,,,,,,,,,,,,,,,,,420.744,420.941,420.941,421.44,,,,,,,,,,,,,,0.675,1,,,,,,,,,,,,,,m,,,,,,,,,,,,,,,,75,0,421.441,422.125,m,1,0.675,,[],[],[],[],[],[],[],422.125,424.124,424.124,424.124,[],[],[],[],[],[],[],,424.124,424.124,-0.810185183,0.104629644,0,0,0,,0,74,74,118,1,2,word,MEDICINE,print,medicine_p.png,,,,,,
,,,,31807,001,2025-10-17_14h36.23.862,HW_LDT_1,2024.2.4,Win32,59.95203837,,,,,,,,,,,,,,,,,,,,,,424.126,424.324,424.324,424.824,,,,,,,,,,,,,,2.58,1,,,,,,,,,,,,,,z,,,,,,,,,,,,,,,,76,0,424.824,427.407,z,1,2.58,,[],[],[],[],[],[],[],427.407,429.407,429.407,429.407,[],[],[],[],[],[],[],,429.407,429.407,-0.810185183,0.104629644,0,0,0,,0,75,75,46,1,2,TL,codemy,cursive,codemy_c.png,,,,,,
,,,,31807,001,2025-10-17_14h36.23.862,HW_LDT_1,2024.2.4,Win32,59.95203837,,,,,,,,,,,,,,,,,,,,,,429.409,429.607,429.608,430.107,,,,,,,,,,,,,,3.609,0,,,,,,,,,,,,,,z,,,,,,,,,,,,,,,,77,1,430.108,433.726,m,0,3.609,,[],[],[],[],[],[],[],433.726,435.724,435.724,436.876,[],[],[],[],[],[],[],z,436.876,436.876,-0.810185183,0.104629644,0,0,0,,0,76,76,74,1,2,TL,rerite,cursive,rerite_c.png,1.15,,,,,
,,,,31807,001,2025-10-17_14h36.23.862,HW_LDT_1,2024.2.4,Win32,59.95203837,,,,,,,,,,,,,,,,,,,,,,436.88,437.075,437.075,437.575,,,,,,,,,,,,,,0.724,1,,,,,,,,,,,,,,m,,,,,,,,,,,,,,,,78,0,437.575,438.308,m,1,0.724,,[],[],[],[],[],[],[],438.308,440.307,440.307,440.308,[],[],[],[],[],[],[],,440.308,440.308,-0.810185183,0.104629644,0,0,0,,0,77,77,127,1,2,word,ORIGINAL,print,original_p.png,,,,,,
,,,,31807,001,2025-10-17_14h36.23.862,HW_LDT_1,2024.2.4,Win32,59.95203837,,,,,,,,,,,,,,,,,,,,,,440.308,440.508,440.508,441.007,,,,,,,,,,,,,,0.674,1,,,,,,,,,,,,,,z,,,,,,,,,,,,,,,,79,1,441.009,441.691,z,1,0.674,,[],[],[],[],[],[],[],441.691,443.691,443.691,444.99,[],[],[],[],[],[],[],m,444.991,444.991,-0.810185183,0.104629644,0,0,0,,0,78,78,4,1,2,RL,cenesony,print,cenesony_p.png,1.291,,,,,
,,,,31807,001,2025-10-17_14h36.23.862,HW_LDT_1,2024.2.4,Win32,59.95203837,,,,,,,,,,,,,,,,,,,,,,444.993,445.191,445.191,445.691,,,,,,,,,,,,,,1.01,1,,,,,,,,,,,,,,z,,,,,,,,,,,,,,,,80,0,445.692,446.707,z,1,1.01,,[],[],[],[],[],[],[],446.708,448.708,448.708,448.709,[],[],[],[],[],[],[],,448.709,451.725,-0.810185183,0.104629644,0,0,0,space,0,79,79,16,1,2,RL,losipal,print,losipal_p.png,,,2.974,,,
,,,,31807,001,2025-10-17_14h36.23.862,HW_LDT_1,2024.2.4,Win32,59.95203837,,,,,,,,,,,,,,,,,,,,,,451.728,451.924,451.924,452.425,,,,,,,,,,,,,,2.124,1,,,,,,,,,,,,,,z,,,,,,,,,,,,,,,,81,1,452.426,454.558,z,1,2.124,,[],[],[],[],[],[],[],454.558,456.558,456.558,457.99,[],[],[],[],[],[],[],z,457.991,457.991,-0.810185183,0.104629644,0,0,0,,0,80,80,58,1,2,TL,mitilary,cursive,mitilary_c.png,1.431,,,,,
,,,,31807,001,2025-10-17_14h36.23.862,HW_LDT_1,2024.2.4,Win32,59.95203837,,,,,,,,,,,,,,,,,,,,,,457.992,458.191,458.191,458.691,,,,,,,,,,,,,,2.592,1,,,,,,,,,,,,,,z,,,,,,,,,,,,,,,,82,0,458.691,461.29,z,1,2.592,,[],[],[],[],[],[],[],461.29,463.293,463.293,463.295,[],[],[],[],[],[],[],,463.295,463.296,-0.810185183,0.104629644,0,0,0,,0,81,81,53,1,2,TL,edivent,cursive,edivent_c.png,,,,,,
,,,,31807,001,2025-10-17_14h36.23.862,HW_LDT_1,2024.2.4,Win32,59.95203837,,,,,,,,,,,,,,,,,,,,,,463.298,463.49,463.49,463.991,,,,,,,,,,,,,,1.641,1,,,,,,,,,,,,,,z,,,,,,,,,,,,,,,,83,0,463.992,465.641,z,1,1.641,,[],[],[],[],[],[],[],465.641,467.641,467.641,467.642,[],[],[],[],[],[],[],,467.642,467.642,-0.810185183,0.104629644,0,0,0,,0,82,82,14,1,2,RL,insibate,cursive,insibate_c.png,,,,,,
,,,,31807,001,2025-10-17_14h36.23.862,HW_LDT_1,2024.2.4,Win32,59.95203837,,,,,,,,,,,,,,,,,,,,,,467.644,467.841,467.841,468.34,,,,,,,,,,,,,,3.257,1,,,,,,,,,,,,,,z,,,,,,,,,,,,,,,,84,0,468.342,471.607,z,1,3.257,,[],[],[],[],[],[],[],471.608,473.608,473.608,473.608,[],[],[],[],[],[],[],,473.608,473.608,-0.810185183,0.104629644,0,0,0,,0,83,83,5,1,2,RL,clisimal,cursive,clisimal_c.png,,,,,,
,,,,31807,001,2025-10-17_14h36.23.862,HW_LDT_1,2024.2.4,Win32,59.95203837,,,,,,,,,,,,,,,,,,,,,,473.612,473.807,473.807,474.307,,,,,,,,,,,,,,2.346,1,,,,,,,,,,,,,,z,,,,,,,,,,,,,,,,85,0,474.308,476.658,z,1,2.346,,[],[],[],[],[],[],[],476.658,478.658,478.658,478.658,[],[],[],[],[],[],[],,478.659,478.659,-0.810185183,0.104629644,0,0,0,,0,84,84,42,1,2,TL,bedise,cursive,bedise_c.png,,,,,,
,,,,31807,001,2025-10-17_14h36.23.862,HW_LDT_1,2024.2.4,Win32,59.95203837,,,,,,,,,,,,,,,,,,,,,,478.662,478.857,478.857,479.357,,,,,,,,,,,,,,1.575,1,,,,,,,,,,,,,,m,,,,,,,,,,,,,,,,86,1,479.358,480.941,m,1,1.575,,[],[],[],[],[],[],[],480.941,482.941,482.941,484.558,[],[],[],[],[],[],[],m,484.558,484.558,-0.810185183,0.104629644,0,0,0,,0,85,85,157,1,2,word,VALIDITY,print,validity_p.png,1.612,,,,,
,,,,31807,001,2025-10-17_14h36.23.862,HW_LDT_1,2024.2.4,Win32,59.95203837,,,,,,,,,,,,,,,,,,,,,,484.561,484.758,484.758,485.258,,,,,,,,,,,,,,0.691,1,,,,,,,,,,,,,,m,,,,,,,,,,,,,,,,87,0,485.258,485.957,m,1,0.691,,[],[],[],[],[],[],[],485.957,487.957,487.957,487.957,[],[],[],[],[],[],[],,487.957,487.957,-0.810185183,0.104629644,0,0,0,,0,86,86,153,1,2,word,STOLEN,print,stolen_p.png,,,,,,
,,,,31807,001,2025-10-17_14h36.23.862,HW_LDT_1,2024.2.4,Win32,59.95203837,,,,,,,,,,,,,,,,,,,,,,487.96,488.158,488.158,488.658,,,,,,,,,,,,,,0.557,1,,,,,,,,,,,,,,m,,,,,,,,,,,,,,,,88,0,488.658,489.224,m,1,0.557,,[],[],[],[],[],[],[],489.224,491.225,491.225,491.225,[],[],[],[],[],[],[],,491.225,491.225,-0.810185183,0.104629644,0,0,0,,0,87,87,101,1,2,word,DELICATE,print,delicate_p.png,,,,,,
,,,,31807,001,2025-10-17_14h36.23.862,HW_LDT_1,2024.2.4,Win32,59.95203837,,,,,,,,,,,,,,,,,,,,,,491.228,491.424,491.424,491.924,,,,,,,,,,,,,,0.625,1,,,,,,,,,,,,,,m,,,,,,,,,,,,,,,,89,0,491.924,492.557,m,1,0.625,,[],[],[],[],[],[],[],492.558,494.561,494.561,494.561,[],[],[],[],[],[],[],,494.561,494.561,-0.810185183,0.104629644,0,0,0,,0,88,88,137,1,2,word,RAPIDLY,print,rapidly_p.png,,,,,,
,,,,31807,001,2025-10-17_14h36.23.862,HW_LDT_1,2024.2.4,Win32,59.95203837,,,,,,,,,,,,,,,,,,,,,,494.571,494.758,494.758,495.259,,,,,,,,,,,,,,0.655,1,,,,,,,,,,,,,,m,,,,,,,,,,,,,,,,90,0,495.264,495.925,m,1,0.655,,[],[],[],[],[],[],[],495.925,497.924,497.925,497.925,[],[],[],[],[],[],[],,497.925,497.926,-0.810185183,0.104629644,0,0,0,,0,89,89,135,1,2,word,QUALITY,cursive,quality_c.png,,,,,,
,,,,31807,001,2025-10-17_14h36.23.862,HW_LDT_1,2024.2.4,Win32,59.95203837,,,,,,,,,,,,,,,,,,,,,,497.931,498.124,498.124,498.625,,,,,,,,,,,,,,0.573,1,,,,,,,,,,,,,,m,,,,,,,,,,,,,,,,91,0,498.625,499.208,m,1,0.573,,[],[],[],[],[],[],[],499.208,501.208,501.208,501.208,[],[],[],[],[],[],[],,501.208,501.208,-0.810185183,0.104629644,0,0,0,,0,90,90,158,1,2,word,VELOCITY,print,velocity_p.png,,,,,,
,,,,31807,001,2025-10-17_14h36.23.862,HW_LDT_1,2024.2.4,Win32,59.95203837,,,,,,,,,,,,,,,,,,,,,,501.211,501.408,501.408,501.908,,,,,,,,,,,,,,2.646,1,,,,,,,,,,,,,,z,,,,,,,,,,,,,,,,92,0,501.908,504.558,z,1,2.646,,[],[],[],[],[],[],[],504.558,506.557,506.557,506.557,[],[],[],[],[],[],[],,506.558,506.558,-0.810185183,0.104629644,0,0,0,,0,91,91,7,1,2,RL,cocewage,cursive,cocewage_c.png,,,,,,
,,,,31807,001,2025-10-17_14h36.23.862,HW_LDT_1,2024.2.4,Win32,59.95203837,,,,,,,,,,,,,,,,,,,,,,506.561,506.758,506.758,507.257,,,,,,,,,,,,,,0.941,1,,,,,,,,,,,,,,z,,,,,,,,,,,,,,,,93,0,507.258,508.208,z,1,0.941,,[],[],[],[],[],[],[],508.208,510.208,510.208,510.208,[],[],[],[],[],[],[],,510.208,510.208,-0.810185183,0.104629644,0,0,0,,0,92,92,22,1,2,RL,posity,print,posity_p.png,,,,,,
,,,,31807,001,2025-10-17_14h36.23.862,HW_LDT_1,2024.2.4,Win32,59.95203837,,,,,,,,,,,,,,,,,,,,,,510.211,510.407,510.407,510.908,,,,,,,,,,,,,,7.174,1,,,,,,,,,,,,,,z,,,,,,,,,,,,,,,,94,0,510.909,518.091,z,1,7.174,,[],[],[],[],[],[],[],518.091,520.091,520.091,520.091,[],[],[],[],[],[],[],,520.091,520.091,-0.810185183,0.104629644,0,0,0,,0,93,93,23,1,2,RL,procogal,cursive,procogal_c.png,,,,,,
,,,,31807,001,2025-10-17_14h36.23.862,HW_LDT_1,2024.2.4,Win32,59.95203837,,,,,,,,,,,,,,,,,,,,,,520.097,520.291,520.291,520.793,,,,,,,,,,,,,,3.355,1,,,,,,,,,,,,,,m,,,,,,,,,,,,,,,,95,0,520.794,524.157,m,1,3.355,,[],[],[],[],[],[],[],524.157,526.157,526.157,526.157,[],[],[],[],[],[],[],,526.157,526.157,-0.810185183,0.104629644,0,0,0,,0,94,94,90,1,2,word,CAPITAL,cursive,capital_c.png,,,,,,
,,,,31807,001,2025-10-17_14h36.23.862,HW_LDT_1,2024.2.4,Win32,59.95203837,,,,,,,,,,,,,,,,,,,,,,526.16,526.357,526.357,526.857,,,,,,,,,,,,,,1.463,1,,,,,,,,,,,,,,m,,,,,,,,,,,,,,,,96,0,526.858,528.324,m,1,1.463,,[],[],[],[],[],[],[],528.324,530.325,530.325,530.326,[],[],[],[],[],[],[],,530.327,530.327,-0.810185183,0.104629644,0,0,0,,0,95,95,116,1,2,word,MARGINAL,cursive,marginal_c.png,,,,,,
,,,,31807,001,2025-10-17_14h36.23.862,HW_LDT_1,2024.2.4,Win32,59.95203837,,,,,,,,,,,,,,,,,,,,,,530.331,530.524,530.524,531.024,,,,,,,,,,,,,,0.694,1,,,,,,,,,,,,,,m,,,,,,,,,,,,,,,,97,0,531.025,531.724,m,1,0.694,,[],[],[],[],[],[],[],531.724,533.724,533.724,533.724,[],[],[],[],[],[],[],,533.724,533.725,-0.810185183,0.104629644,0,0,0,,0,96,96,95,1,2,word,COMEDY,cursive,comedy_c.png,,,,,,
,,,,31807,001,2025-10-17_14h36.23.862,HW_LDT_1,2024.2.4,Win32,59.95203837,,,,,,,,,,,,,,,,,,,,,,533.727,533.923,533.923,534.424,,,,,,,,,,,,,,0.857,1,,,,,,,,,,,,,,z,,,,,,,,,,,,,,,,98,0,534.425,535.291,z,1,0.857,,[],[],[],[],[],[],[],535.291,537.291,537.291,537.291,[],[],[],[],[],[],[],,537.291,537.292,-0.810185183,0.104629644,0,0,0,,0,97,97,43,1,2,TL,carema,print,carema_p.png,,,,,,
,,,,31807,001,2025-10-17_14h36.23.862,HW_LDT_1,2024.2.4,Win32,59.95203837,,,,,,,,,,,,,,,,,,,,,,537.293,537.491,537.491,537.99,,,,,,,,,,,,,,1.195,0,,,,,,,,,,,,,,z,,,,,,,,,,,,,,,,99,0,537.991,539.191,m,0,1.195,,[],[],[],[],[],[],[],539.191,541.19,541.19,541.191,[],[],[],[],[],[],[],,541.191,541.191,-0.810185183,0.104629644,0,0,0,,0,98,98,56,1,2,TL,marnigal,cursive,marnigal_c.png,,,,,,
,,,,31807,001,2025-10-17_14h36.23.862,HW_LDT_1,2024.2.4,Win32,59.95203837,,,,,,,,,,,,,,,,,,,,,,541.194,541.391,541.391,541.891,,,,,,,,,,,,,,1.157,0,,,,,,,,,,,,,,z,,,,,,,,,,,,,,,,100,0,541.891,543.057,m,0,1.157,,[],[],[],[],[],[],[],543.058,545.057,545.058,545.058,[],[],[],[],[],[],[],,545.058,545.059,-0.810185183,0.104629644,0,0,0,,0,99,99,45,1,2,TL,carnidal,cursive,carnidal_c.png,,,,,,
,,,,31807,001,2025-10-17_14h36.23.862,HW_LDT_1,2024.2.4,Win32,59.95203837,,,,,,,,,,,,,,,,,,,,,,545.062,545.258,545.258,545.758,,,,,,,,,,,,,,0.707,1,,,,,,,,,,,,,,m,,,,,,,,,,,,,,,,101,0,545.758,546.474,m,1,0.707,,[],[],[],[],[],[],[],546.474,548.474,548.474,548.474,[],[],[],[],[],[],[],,548.474,548.474,-0.810185183,0.104629644,0,0,0,,0,100,100,87,1,2,word,CAFETERIA,print,cafeteria_p.png,,,,,,
,,,,31807,001,2025-10-17_14h36.23.862,HW_LDT_1,2024.2.4,Win32,59.95203837,,,,,,,,,,,,,,,,,,,,,,548.476,548.674,548.674,549.174,,,,,,,,,,,,,,0.841,1,,,,,,,,,,,,,,z,,,,,,,,,,,,,,,,102,0,549.174,550.024,z,1,0.841,,[],[],[],[],[],[],[],550.024,552.025,552.025,552.025,[],[],[],[],[],[],[],,552.025,552.025,-0.810185183,0.104629644,0,0,0,,0,101,101,1,1,2,RL,caleberia,print,caleberia_p.png,,,,,,
,,,,31807,001,2025-10-17_14h36.23.862,HW_LDT_1,2024.2.4,Win32,59.95203837,,,,,,,,,,,,,,,,,,,,,,552.026,552.224,552.224,552.724,,,,,,,,,,,,,,1.981,1,,,,,,,,,,,,,,m,,,,,,,,,,,,,,,,103,1,552.725,554.707,m,1,1.981,,[],[],[],[],[],[],[],554.707,556.707,556.707,558.208,[],[],[],[],[],[],[],m,558.208,558.208,-0.810185183,0.104629644,0,0,0,,0,102,102,111,1,2,word,INDICATE,cursive,indicate_c.png,1.5,,,,,
,,,,31807,001,2025-10-17_14h36.23.862,HW_LDT_1,2024.2.4,Win32,59.95203837,,,,,,,,,,,,,,,,,,,,,,558.211,558.408,558.408,558.908,,,,,,,,,,,,,,3.992,1,,,,,,,,,,,,,,m,,,,,,,,,,,,,,,,104,0,558.908,562.909,m,1,3.992,,[],[],[],[],[],[],[],562.911,564.908,564.908,564.909,[],[],[],[],[],[],[],,564.909,564.91,-0.810185183,0.104629644,0,0,0,,0,103,103,120,1,2,word,MILITARY,cursive,military_c.png,,,,,,
,,,,31807,001,2025-10-17_14h36.23.862,HW_LDT_1,2024.2.4,Win32,59.95203837,,,,,,,,,,,,,,,,,,,,,,564.916,565.107,565.107,565.607,,,,,,,,,,,,,,3.725,1,,,,,,,,,,,,,,m,,,,,,,,,,,,,,,,105,0,565.608,569.341,m,1,3.725,,[],[],[],[],[],[],[],569.341,571.34,571.34,571.341,[],[],[],[],[],[],[],,571.341,571.341,-0.810185183,0.104629644,0,0,0,,0,104,104,105,1,2,word,EDITOR,cursive,editor_c.png,,,,,,
,,,,31807,001,2025-10-17_14h36.23.862,HW_LDT_1,2024.2.4,Win32,59.95203837,,,,,,,,,,,,,,,,,,,,,,571.345,571.54,571.54,572.041,,,,,,,,,,,,,,4.04,1,,,,,,,,,,,,,,z,,,,,,,,,,,,,,,,106,0,572.042,576.09,z,1,4.04,,[],[],[],[],[],[],[],576.091,578.09,578.09,578.091,[],[],[],[],[],[],[],,578.091,578.091,-0.810185183,0.104629644,0,0,0,,0,105,105,52,1,2,TL,elarobate,cursive,elarobate_c.png,,,,,,
,,,,31807,001,2025-10-17_14h36.23.862,HW_LDT_1,2024.2.4,Win32,59.95203837,,,,,,,,,,,,,,,,,,,,,,578.095,578.291,578.291,578.79,,,,,,,,,,,,,,1.175,0,,,,,,,,,,,,,,z,,,,,,,,,,,,,,,,107,1,578.791,579.974,m,0,1.175,,[],[],[],[],[],[],[],579.974,581.974,581.974,583.79,[],[],[],[],[],[],[],z,583.79,583.791,-0.810185183,0.104629644,0,0,0,,0,106,106,47,1,2,TL,crinimal,cursive,crinimal_c.png,1.813,,,,,
,,,,31807,001,2025-10-17_14h36.23.862,HW_LDT_1,2024.2.4,Win32,59.95203837,,,,,,,,,,,,,,,,,,,,,,583.794,583.99,583.99,584.491,,,,,,,,,,,,,,0.908,1,,,,,,,,,,,,,,m,,,,,,,,,,,,,,,,108,0,584.491,585.407,m,1,0.908,,[],[],[],[],[],[],[],585.407,587.407,587.407,587.408,[],[],[],[],[],[],[],,587.408,587.408,-0.810185183,0.104629644,0,0,0,,0,107,107,152,1,2,word,SPECIMEN,print,specimen_p.png,,,,,,
,,,,31807,001,2025-10-17_14h36.23.862,HW_LDT_1,2024.2.4,Win32,59.95203837,,,,,,,,,,,,,,,,,,,,,,587.41,587.607,587.607,588.107,,,,,,,,,,,,,,1.413,1,,,,,,,,,,,,,,m,,,,,,,,,,,,,,,,109,1,588.108,589.523,m,1,1.413,,[],[],[],[],[],[],[],589.523,591.524,591.525,592.64,[],[],[],[],[],[],[],z,592.64,592.64,-0.810185183,0.104629644,0,0,0,,0,108,108,109,1,2,word,GRATEFUL,cursive,grateful_c.png,1.106,,,,,
,,,,31807,001,2025-10-17_14h36.23.862,HW_LDT_1,2024.2.4,Win32,59.95203837,,,,,,,,,,,,,,,,,,,,,,592.642,592.84,592.84,593.341,,,,,,,,,,,,,,0.63,1,,,,,,,,,,,,,,m,,,,,,,,,,,,,,,,110,0,593.341,593.973,m,1,0.63,,[],[],[],[],[],[],[],593.974,595.974,595.974,595.974,[],[],[],[],[],[],[],,595.974,595.974,-0.810185183,0.104629644,0,0,0,,0,109,109,93,1,2,word,CEREMONY,print,ceremony_p.png,,,,,,
,,,,31807,001,2025-10-17_14h36.23.862,HW_LDT_1,2024.2.4,Win32,59.95203837,,,,,,,,,,,,,,,,,,,,,,595.975,596.173,596.173,596.674,,,,,,,,,,,,,,0.588,1,,,,,,,,,,,,,,m,,,,,,,,,,,,,,,,111,0,596.678,597.275,m,1,0.588,,[],[],[],[],[],[],[],597.275,599.274,599.274,599.275,[],[],[],[],[],[],[],,599.275,599.275,-0.810185183,0.104629644,0,0,0,,0,110,110,144,1,2,word,RESIDENT,print,resident_p.png,,,,,,
,,,,31807,001,2025-10-17_14h36.23.862,HW_LDT_1,2024.2.4,Win32,59.95203837,,,,,,,,,,,,,,,,,,,,,,599.28,599.474,599.474,599.974,,,,,,,,,,,,,,0.69,1,,,,,,,,,,,,,,m,,,,,,,,,,,,,,,,112,0,599.975,600.674,m,1,0.69,,[],[],[],[],[],[],[],600.674,602.674,602.674,602.674,[],[],[],[],[],[],[],,602.674,602.675,-0.810185183,0.104629644,0,0,0,,0,111,111,132,1,2,word,PROPOSAL,cursive,proposal_c.png,,,,,,
,,,,31807,001,2025-10-17_14h36.23.862,HW_LDT_1,2024.2.4,Win32,59.95203837,,,,,,,,,,,,,,,,,,,,,,602.677,602.874,602.874,603.374,,,,,,,,,,,,,,6.21,1,,,,,,,,,,,,,,z,,,,,,,,,,,,,,,,113,1,603.375,609.59,z,1,6.21,,[],[],[],[],[],[],[],609.59,611.591,611.591,613.074,[],[],[],[],[],[],[],z,613.074,613.075,-0.810185183,0.104629644,0,0,0,,0,112,112,62,1,2,TL,opmital,cursive,opmital_c.png,1.475,,,,,
,,,,31807,001,2025-10-17_14h36.23.862,HW_LDT_1,2024.2.4,Win32,59.95203837,,,,,,,,,,,,,,,,,,,,,,613.076,613.274,613.274,613.774,,,,,,,,,,,,,,0.615,1,,,,,,,,,,,,,,m,,,,,,,,,,,,,,,,114,1,613.775,614.391,m,1,0.615,,[],[],[],[],[],[],[],614.391,616.391,616.391,618.425,[],[],[],[],[],[],[],z,618.425,618.425,-0.810185183,0.104629644,0,0,0,,0,113,113,104,1,2,word,DOMINANT,print,dominant_p.png,2.024,,,,,
,,,,31807,001,2025-10-17_14h36.23.862,HW_LDT_1,2024.2.4,Win32,59.95203837,,,,,,,,,,,,,,,,,,,,,,618.427,618.623,618.624,619.124,,,,,,,,,,,,,,1.447,1,,,,,,,,,,,,,,m,,,,,,,,,,,,,,,,115,0,619.125,620.574,m,1,1.447,,[],[],[],[],[],[],[],620.575,622.573,622.574,622.574,[],[],[],[],[],[],[],,622.574,622.574,-0.810185183,0.104629644,0,0,0,,0,114,114,119,1,2,word,MEMORY,cursive,memory_c.png,,,,,,
,,,,31807,001,2025-10-17_14h36.23.862,HW_LDT_1,2024.2.4,Win32,59.95203837,,,,,,,,,,,,,,,,,,,,,,622.577,622.774,622.774,623.273,,,,,,,,,,,,,,0.561,1,,,,,,,,,,,,,,m,,,,,,,,,,,,,,,,116,0,623.274,623.84,m,1,0.561,,[],[],[],[],[],[],[],623.84,625.841,625.841,625.841,[],[],[],[],[],[],[],,625.841,625.841,-0.810185183,0.104629644,0,0,0,,0,115,115,114,1,2,word,LOCATE,print,locate_p.png,,,,,,
,,,,31807,001,2025-10-17_14h36.23.862,HW_LDT_1,2024.2.4,Win32,59.95203837,,,,,,,,,,,,,,,,,,,,,,625.843,626.04,626.04,626.54,,,,,,,,,,,,,,3.142,1,,,,,,,,,,,,,,z,,,,,,,,,,,,,,,,117,0,626.541,629.691,z,1,3.142,,[],[],[],[],[],[],[],629.691,631.692,631.692,631.694,[],[],[],[],[],[],[],,631.695,631.695,-0.810185183,0.104629644,0,0,0,,0,116,116,12,1,2,RL,gralekul,cursive,gralekul_c.png,,,,,,
,,,,31807,001,2025-10-17_14h36.23.862,HW_LDT_1,2024.2.4,Win32,59.95203837,,,,,,,,,,,,,,,,,,,,,,631.7,631.891,631.891,632.39,,,,,,,,,,,,,,4.408,1,,,,,,,,,,,,,,z,,,,,,,,,,,,,,,,118,0,632.391,636.808,z,1,4.408,,[],[],[],[],[],[],[],636.808,638.807,638.807,638.808,[],[],[],[],[],[],[],,638.808,638.808,-0.810185183,0.104629644,0,0,0,,0,117,117,65,1,2,TL,polupar,cursive,polupar_c.png,,,,,,
,,,,31807,001,2025-10-17_14h36.23.862,HW_LDT_1,2024.2.4,Win32,59.95203837,,,,,,,,,,,,,,,,,,,,,,638.812,639.008,639.008,639.508,,,,,,,,,,,,,,1.929,1,,,,,,,,,,,,,,z,,,,,,,,,,,,,,,,119,0,639.508,641.441,z,1,1.929,,[],[],[],[],[],[],[],641.441,643.44,643.44,643.441,[],[],[],[],[],[],[],,643.441,643.441,-0.810185183,0.104629644,0,0,0,,0,118,118,67,1,2,TL,quafily,cursive,quafily_c.png,,,,,,
,,,,31807,001,2025-10-17_14h36.23.862,HW_LDT_1,2024.2.4,Win32,59.95203837,,,,,,,,,,,,,,,,,,,,,,643.443,643.64,643.64,644.141,,,,,,,,,,,,,,0.61,1,,,,,,,,,,,,,,m,,,,,,,,,,,,,,,,120,0,644.142,644.757,m,1,0.61,,[],[],[],[],[],[],[],644.757,646.757,646.758,646.758,[],[],[],[],[],[],[],,646.758,646.758,-0.810185183,0.104629644,0,0,0,,0,119,119,131,1,2,word,POPULAR,cursive,popular_c.png,,,,,,
,,,,31807,001,2025-10-17_14h36.23.862,HW_LDT_1,2024.2.4,Win32,59.95203837,,,,,,,,,,,,,,,,,,,,,,646.76,646.957,646.957,647.457,,,,,,,,,,,,,,1.508,1,,,,,,,,,,,,,,m,,,,,,,,,,,,,,,,121,1,647.458,648.974,m,1,1.508,,[],[],[],[],[],[],[],648.974,650.974,650.974,652.075,[],[],[],[],[],[],[],z,652.075,652.075,-0.810185183,0.104629644,0,0,0,,0,120,120,117,1,2,word,MARINE,cursive,marine_c.png,1.092,,,,,
,,,,31807,001,2025-10-17_14h36.23.862,HW_LDT_1,2024.2.4,Win32,59.95203837,,,,,,,,,,,,,,,,,,,,,,652.077,652.274,652.274,652.775,,,,,,,,,,,,,,0.989,1,,,,,,,,,,,,,,z,,,,,,,,,,,,,,,,122,0,652.775,653.774,z,1,0.989,,[],[],[],[],[],[],[],653.775,655.774,655.774,655.775,[],[],[],[],[],[],[],,655.775,655.775,-0.810185183,0.104629644,0,0,0,,0,121,121,11,1,2,RL,formuke,print,formuke_p.png,,,,,,
,,,,31807,001,2025-10-17_14h36.23.862,HW_LDT_1,2024.2.4,Win32,59.95203837,,,,,,,,,,,,,,,,,,,,,,655.777,655.974,655.974,656.474,,,,,,,,,,,,,,0.79,1,,,,,,,,,,,,,,z,,,,,,,,,,,,,,,,123,0,656.474,657.274,z,1,0.79,,[],[],[],[],[],[],[],657.274,659.274,659.274,659.274,[],[],[],[],[],[],[],,659.274,659.275,-0.810185183,0.104629644,0,0,0,,0,122,122,61,1,2,TL,nuremical,cursive,nuremical_c.png,,,,,,
,,,,31807,001,2025-10-17_14h36.23.862,HW_LDT_1,2024.2.4,Win32,59.95203837,,,,,,,,,,,,,,,,,,,,,,659.276,659.473,659.473,659.973,,,,,,,,,,,,,,1.142,1,,,,,,,,,,,,,,m,,,,,,,,,,,,,,,,124,0,659.974,661.125,m,1,1.142,,[],[],[],[],[],[],[],661.126,663.124,663.124,663.125,[],[],[],[],[],[],[],,663.125,663.126,-0.810185183,0.104629644,0,0,0,,0,123,123,139,1,2,word,REGULAR,cursive,regular_c.png,,,,,,
,,,,31807,001,2025-10-17_14h36.23.862,HW_LDT_1,2024.2.4,Win32,59.95203837,,,,,,,,,,,,,,,,,,,,,,663.132,663.324,663.324,663.824,,,,,,,,,,,,,,7.274,0,,,,,,,,,,,,,,m,,,,,,,,,,,,,,,,125,0,663.825,671.107,z,0,7.274,,[],[],[],[],[],[],[],671.107,673.107,673.107,673.107,[],[],[],[],[],[],[],,673.108,673.108,-0.810185183,0.104629644,0,0,0,,0,124,124,113,1,2,word,LITERAL,cursive,literal_c.png,,,,,,
,,,,31807,001,2025-10-17_14h36.23.862,HW_LDT_1,2024.2.4,Win32,59.95203837,,,,,,,,,,,,,,,,,,,,,,673.112,673.307,673.307,673.807,,,,,,,,,,,,,,4.874,1,,,,,,,,,,,,,,z,,,,,,,,,,,,,,,,126,0,673.808,678.69,z,1,4.874,,[],[],[],[],[],[],[],678.69,680.691,680.691,680.691,[],[],[],[],[],[],[],,680.692,680.692,-0.810185183,0.104629644,0,0,0,,0,125,125,69,1,2,TL,resufal,cursive,resufal_c.png,,,,,,
,,,,31807,001,2025-10-17_14h36.23.862,HW_LDT_1,2024.2.4,Win32,59.95203837,,,,,,,,,,,,,,,,,,,,,,680.694,680.891,680.891,681.391,,,,,,,,,,,,,,0.709,1,,,,,,,,,,,,,,m,,,,,,,,,,,,,,,,127,1,681.391,682.107,m,1,0.709,,[],[],[],[],[],[],[],682.108,684.107,684.107,685.008,[],[],[],[],[],[],[],m,685.008,685.008,-0.810185183,0.104629644,0,0,0,,0,126,126,154,1,2,word,STORAGE,print,storage_p.png,0.892,,,,,
,,,,31807,001,2025-10-17_14h36.23.862,HW_LDT_1,2024.2.4,Win32,59.95203837,,,,,,,,,,,,,,,,,,,,,,685.01,685.207,685.207,685.707,,,,,,,,,,,,,,1.457,1,,,,,,,,,,,,,,m,,,,,,,,,,,,,,,,128,0,685.708,687.174,m,1,1.457,,[],[],[],[],[],[],[],687.175,689.174,689.174,689.174,[],[],[],[],[],[],[],,689.175,689.175,-0.810185183,0.104629644,0,0,0,,0,127,127,98,1,2,word,CRIMINAL,cursive,criminal_c.png,,,,,,
,,,,31807,001,2025-10-17_14h36.23.862,HW_LDT_1,2024.2.4,Win32,59.95203837,,,,,,,,,,,,,,,,,,,,,,689.177,689.374,689.374,689.874,,,,,,,,,,,,,,4.71,1,,,,,,,,,,,,,,z,,,,,,,,,,,,,,,,129,0,689.875,694.59,z,1,4.71,,[],[],[],[],[],[],[],694.59,696.592,696.593,696.594,[],[],[],[],[],[],[],,696.594,696.595,-0.810185183,0.104629644,0,0,0,,0,128,128,41,1,2,TL,befenit,cursive,befenit_c.png,,,,,,
,,,,31807,001,2025-10-17_14h36.23.862,HW_LDT_1,2024.2.4,Win32,59.95203837,,,,,,,,,,,,,,,,,,,,,,696.601,696.79,696.79,697.291,,,,,,,,,,,,,,3.104,1,,,,,,,,,,,,,,m,,,,,,,,,,,,,,,,130,0,697.291,700.407,m,1,3.104,,[],[],[],[],[],[],[],700.407,702.408,702.408,702.408,[],[],[],[],[],[],[],,702.408,702.408,-0.810185183,0.104629644,0,0,0,,0,129,129,124,1,2,word,NUMERICAL,cursive,numerical_c.png,,,,,,
,,,,31807,001,2025-10-17_14h36.23.862,HW_LDT_1,2024.2.4,Win32,59.95203837,,,,,,,,,,,,,,,,,,,,,,702.411,702.607,702.607,703.107,,,,,,,,,,,,,,0.99,1,,,,,,,,,,,,,,z,,,,,,,,,,,,,,,,131,0,703.108,704.107,z,1,0.99,,[],[],[],[],[],[],[],704.107,706.107,706.108,706.108,[],[],[],[],[],[],[],,706.108,706.108,-0.810185183,0.104629644,0,0,0,,0,130,130,78,1,2,TL,stogare,print,stogare_p.png,,,,,,
,,,,31807,001,2025-10-17_14h36.23.862,HW_LDT_1,2024.2.4,Win32,59.95203837,,,,,,,,,,,,,,,,,,,,,,706.11,706.308,706.308,706.807,,,,,,,,,,,,,,1.256,1,,,,,,,,,,,,,,m,,,,,,,,,,,,,,,,132,0,706.808,708.074,m,1,1.256,,[],[],[],[],[],[],[],708.074,710.074,710.074,710.074,[],[],[],[],[],[],[],,710.074,710.074,-0.810185183,0.104629644,0,0,0,,0,131,131,91,1,2,word,CARDINAL,cursive,cardinal_c.png,,,,,,
,,,,31807,001,2025-10-17_14h36.23.862,HW_LDT_1,2024.2.4,Win32,59.95203837,,,,,,,,,,,,,,,,,,,,,,710.076,710.274,710.274,710.774,,,,,,,,,,,,,,0.641,1,,,,,,,,,,,,,,m,,,,,,,,,,,,,,,,133,0,710.774,711.424,m,1,0.641,,[],[],[],[],[],[],[],711.424,713.423,713.423,713.424,[],[],[],[],[],[],[],,713.424,713.424,-0.810185183,0.104629644,0,0,0,,0,132,132,99,1,2,word,DEBATE,print,debate_p.png,,,,,,
,,,,31807,001,2025-10-17_14h36.23.862,HW_LDT_1,2024.2.4,Win32,59.95203837,,,,,,,,,,,,,,,,,,,,,,713.425,713.624,713.624,714.124,,,,,,,,,,,,,,1.122,1,,,,,,,,,,,,,,z,,,,,,,,,,,,,,,,134,0,714.124,715.256,z,1,1.122,,[],[],[],[],[],[],[],715.256,717.257,717.257,717.258,[],[],[],[],[],[],[],,717.258,717.258,-0.810185183,0.104629644,0,0,0,,0,133,133,31,1,2,RL,spetisic,print,spetisic_p.png,,,,,,
,,,,31807,001,2025-10-17_14h36.23.862,HW_LDT_1,2024.2.4,Win32,59.95203837,,,,,,,,,,,,,,,,,,,,,,717.26,717.457,717.457,717.958,,,,,,,,,,,,,,2.806,1,,,,,,,,,,,,,,m,,,,,,,,,,,,,,,,135,1,717.958,720.774,m,1,2.806,,[],[],[],[],[],[],[],720.774,722.774,722.774,724.541,[],[],[],[],[],[],[],z,724.541,724.541,-0.810185183,0.104629644,0,0,0,,0,134,134,85,1,2,word,BENEFIT,cursive,benefit_c.png,1.763,,,,,
,,,,31807,001,2025-10-17_14h36.23.862,HW_LDT_1,2024.2.4,Win32,59.95203837,,,,,,,,,,,,,,,,,,,,,,724.543,724.741,724.741,725.241,,,,,,,,,,,,,,3.59,1,,,,,,,,,,,,,,z,,,,,,,,,,,,,,,,136,0,725.242,728.841,z,1,3.59,,[],[],[],[],[],[],[],728.842,730.841,730.841,730.842,[],[],[],[],[],[],[],,730.842,730.843,-0.810185183,0.104629644,0,0,0,,0,135,135,24,1,2,RL,rasibal,cursive,rasibal_c.png,,,,,,
,,,,31807,001,2025-10-17_14h36.23.862,HW_LDT_1,2024.2.4,Win32,59.95203837,,,,,,,,,,,,,,,,,,,,,,730.847,731.041,731.041,731.54,,,,,,,,,,,,,,1.259,1,,,,,,,,,,,,,,z,,,,,,,,,,,,,,,,137,0,731.541,732.807,z,1,1.259,,[],[],[],[],[],[],[],732.807,734.807,734.807,734.808,[],[],[],[],[],[],[],,734.808,734.808,-0.810185183,0.104629644,0,0,0,,0,136,136,21,1,2,RL,pamest,print,pamest_p.png,,,,,,
,,,,31807,001,2025-10-17_14h36.23.862,HW_LDT_1,2024.2.4,Win32,59.95203837,,,,,,,,,,,,,,,,,,,,,,734.812,735.007,735.007,735.507,,,,,,,,,,,,,,1.448,1,,,,,,,,,,,,,,m,,,,,,,,,,,,,,,,138,0,735.508,736.958,m,1,1.448,,[],[],[],[],[],[],[],736.958,738.958,738.958,738.958,[],[],[],[],[],[],[],,738.958,738.958,-0.810185183,0.104629644,0,0,0,,0,137,137,97,1,2,word,COVERAGE,cursive,coverage_c.png,,,,,,
,,,,31807,001,2025-10-17_14h36.23.862,HW_LDT_1,2024.2.4,Win32,59.95203837,,,,,,,,,,,,,,,,,,,,,,738.961,739.157,739.157,739.658,,,,,,,,,,,,,,2.612,1,,,,,,,,,,,,,,z,,,,,,,,,,,,,,,,139,0,739.658,742.273,z,1,2.612,,[],[],[],[],[],[],[],742.274,744.274,744.274,744.274,[],[],[],[],[],[],[],,744.274,744.274,-0.810185183,0.104629644,0,0,0,,0,138,138,29,1,2,RL,samite,cursive,samite_c.png,,,,,,
,,,,31807,001,2025-10-17_14h36.23.862,HW_LDT_1,2024.2.4,Win32,59.95203837,,,,,,,,,,,,,,,,,,,,,,744.276,744.474,744.474,744.973,,,,,,,,,,,,,,5.544,1,,,,,,,,,,,,,,z,,,,,,,,,,,,,,,,140,0,744.973,750.524,z,1,5.544,,[],[],[],[],[],[],[],750.524,752.524,752.524,752.524,[],[],[],[],[],[],[],,752.524,752.524,-0.810185183,0.104629644,0,0,0,,0,139,139,66,1,2,TL,prodive,cursive,prodive_c.png,,,,,,
,,,,31807,001,2025-10-17_14h36.23.862,HW_LDT_1,2024.2.4,Win32,59.95203837,,,,,,,,,,,,,,,,,,,,,,752.526,752.724,752.724,753.223,,,,,,,,,,,,,,5.58,1,,,,,,,,,,,,,,z,,,,,,,,,,,,,,,,141,0,753.224,758.807,z,1,5.58,,[],[],[],[],[],[],[],758.807,760.807,760.807,760.807,[],[],[],[],[],[],[],,760.807,760.807,-0.810185183,0.104629644,0,0,0,,0,140,140,57,1,2,TL,meromy,cursive,meromy_c.png,,,,,,
,,,,31807,001,2025-10-17_14h36.23.862,HW_LDT_1,2024.2.4,Win32,59.95203837,,,,,,,,,,,,,,,,,,,,,,760.809,761.007,761.007,761.507,,,,,,,,,,,,,,1.539,0,,,,,,,,,,,,,,z,,,,,,,,,,,,,,,,142,1,761.508,763.057,m,0,1.539,,[],[],[],[],[],[],[],763.058,765.057,765.057,766.923,[],[],[],[],[],[],[],m,766.923,766.924,-0.810185183,0.104629644,0,0,0,,0,141,141,8,1,2,RL,desifate,print,desifate_p.png,1.864,,,,,
,,,,31807,001,2025-10-17_14h36.23.862,HW_LDT_1,2024.2.4,Win32,59.95203837,,,,,,,,,,,,,,,,,,,,,,766.928,767.124,767.124,767.624,,,,,,,,,,,,,,1.322,1,,,,,,,,,,,,,,m,,,,,,,,,,,,,,,,143,0,767.625,768.957,m,1,1.322,,[],[],[],[],[],[],[],768.957,770.957,770.957,770.957,[],[],[],[],[],[],[],,770.957,770.957,-0.810185183,0.104629644,0,0,0,,0,142,142,86,1,2,word,BESIDE,cursive,beside_c.png,,,,,,
,,,,31807,001,2025-10-17_14h36.23.862,HW_LDT_1,2024.2.4,Win32,59.95203837,,,,,,,,,,,,,,,,,,,,,,770.96,771.157,771.157,771.657,,,,,,,,,,,,,,1.496,1,,,,,,,,,,,,,,z,,,,,,,,,,,,,,,,144,0,771.657,773.157,z,1,1.496,,[],[],[],[],[],[],[],773.158,775.157,775.157,775.157,[],[],[],[],[],[],[],,775.157,775.158,-0.810185183,0.104629644,0,0,0,,0,143,143,63,1,2,TL,orinigal,print,orinigal_p.png,,,,,,
,,,,31807,001,2025-10-17_14h36.23.862,HW_LDT_1,2024.2.4,Win32,59.95203837,,,,,,,,,,,,,,,,,,,,,,775.161,775.357,775.357,775.857,,,,,,,,,,,,,,5.941,1,,,,,,,,,,,,,,z,,,,,,,,,,,,,,,,145,0,775.858,781.807,z,1,5.941,,[],[],[],[],[],[],[],781.807,783.807,783.807,783.807,[],[],[],[],[],[],[],,783.807,783.807,-0.810185183,0.104629644,0,0,0,,0,144,144,68,1,2,TL,quatily,cursive,quatily_c.png,,,,,,
,,,,31807,001,2025-10-17_14h36.23.862,HW_LDT_1,2024.2.4,Win32,59.95203837,,,,,,,,,,,,,,,,,,,,,,783.809,784.007,784.007,784.507,,,,,,,,,,,,,,0.941,1,,,,,,,,,,,,,,m,,,,,,,,,,,,,,,,146,0,784.508,785.457,m,1,0.941,,[],[],[],[],[],[],[],785.457,787.457,787.457,787.457,[],[],[],[],[],[],[],,787.457,787.457,-0.810185183,0.104629644,0,0,0,,0,145,145,88,1,2,word,CAMERA,print,camera_p.png,,,,,,
,,,,31807,001,2025-10-17_14h36.23.862,HW_LDT_1,2024.2.4,Win32,59.95203837,,,,,,,,,,,,,,,,,,,,,,787.458,787.657,787.657,788.157,,,,,,,,,,,,,,1.946,1,,,,,,,,,,,,,,m,,,,,,,,,,,,,,,,147,0,788.158,790.107,m,1,1.946,,[],[],[],[],[],[],[],790.107,792.107,792.107,792.107,[],[],[],[],[],[],[],,792.108,792.108,-0.810185183,0.104629644,0,0,0,,0,146,146,89,1,2,word,CAPACITY,print,capacity_p.png,,,,,,
,,,,31807,001,2025-10-17_14h36.23.862,HW_LDT_1,2024.2.4,Win32,59.95203837,,,,,,,,,,,,,,,,,,,,,,792.11,792.307,792.307,792.807,,,,,,,,,,,,,,2.124,1,,,,,,,,,,,,,,m,,,,,,,,,,,,,,,,148,0,792.807,794.942,m,1,2.124,,[],[],[],[],[],[],[],794.943,796.94,796.94,796.941,[],[],[],[],[],[],[],,796.941,796.942,-0.810185183,0.104629644,0,0,0,,0,147,147,133,1,2,word,PROVIDE,cursive,provide_c.png,,,,,,
,,,,31807,001,2025-10-17_14h36.23.862,HW_LDT_1,2024.2.4,Win32,59.95203837,,,,,,,,,,,,,,,,,,,,,,796.947,797.14,797.14,797.64,,,,,,,,,,,,,,0.764,1,,,,,,,,,,,,,,m,,,,,,,,,,,,,,,,149,0,797.641,798.407,m,1,0.764,,[],[],[],[],[],[],[],798.407,800.407,800.407,800.407,[],[],[],[],[],[],[],,800.407,800.407,-0.810185183,0.104629644,0,0,0,,0,148,148,159,1,2,word,VETERAN,print,veteran_p.png,,,,,,
,,,,31807,001,2025-10-17_14h36.23.862,HW_LDT_1,2024.2.4,Win32,59.95203837,,,,,,,,,,,,,,,,,,,,,,800.41,800.607,800.607,801.108,,,,,,,,,,,,,,0.691,1,,,,,,,,,,,,,,m,,,,,,,,,,,,,,,,150,0,801.108,801.807,m,1,0.691,,[],[],[],[],[],[],[],801.807,803.807,803.807,803.808,[],[],[],[],[],[],[],,803.808,803.808,-0.810185183,0.104629644,0,0,0,,0,149,149,128,1,2,word,PACIFIC,print,pacific_p.png,,,,,,
,,,,31807,001,2025-10-17_14h36.23.862,HW_LDT_1,2024.2.4,Win32,59.95203837,,,,,,,,,,,,,,,,,,,,,,803.811,804.007,804.008,804.507,,,,,,,,,,,,,,2.307,1,,,,,,,,,,,,,,z,,,,,,,,,,,,,,,,151,1,804.508,806.824,z,1,2.307,,[],[],[],[],[],[],[],806.824,808.824,808.824,809.59,[],[],[],[],[],[],[],z,809.59,809.591,-0.825925928,0.092592578,0,0,0,,0,150,150,17,1,2,RL,macise,cursive,macise_c.png,0.759,,,,,
,,,,31807,001,2025-10-17_14h36.23.862,HW_LDT_1,2024.2.4,Win32,59.95203837,,,,,,,,,,,,,,,,,,,,,,809.594,809.79,809.79,810.291,,,,,,,,,,,,,,0.69,1,,,,,,,,,,,,,,m,,,,,,,,,,,,,,,,152,0,810.291,810.99,m,1,0.69,,[],[],[],[],[],[],[],810.99,812.99,812.99,812.99,[],[],[],[],[],[],[],,812.99,812.991,-0.825925928,0.092592578,0,0,0,,0,151,151,147,1,2,word,ROMANTIC,print,romantic_p.png,,,,,,
,,,,31807,001,2025-10-17_14h36.23.862,HW_LDT_1,2024.2.4,Win32,59.95203837,,,,,,,,,,,,,,,,,,,,,,812.993,813.191,813.191,813.69,,,,,,,,,,,,,,3.176,1,,,,,,,,,,,,,,z,,,,,,,,,,,,,,,,153,0,813.691,816.874,z,1,3.176,,[],[],[],[],[],[],[],816.874,818.874,818.874,818.874,[],[],[],[],[],[],[],,818.874,818.875,-0.825925928,0.092592578,0,0,0,,0,152,152,26,1,2,RL,retupar,cursive,retupar_c.png,,,,,,
,,,,31807,001,2025-10-17_14h36.23.862,HW_LDT_1,2024.2.4,Win32,59.95203837,,,,,,,,,,,,,,,,,,,,,,818.876,819.073,819.073,819.573,,,,,,,,,,,,,,0.712,1,,,,,,,,,,,,,,z,,,,,,,,,,,,,,,,154,0,819.574,820.29,z,1,0.712,,[],[],[],[],[],[],[],820.29,822.291,822.291,822.291,[],[],[],[],[],[],[],,822.291,822.292,-0.825925928,0.092592578,0,0,0,,0,153,153,36,1,2,RL,vecelan,print,vecelan_p.png,,,,,,
,,,,31807,001,2025-10-17_14h36.23.862,HW_LDT_1,2024.2.4,Win32,59.95203837,,,,,,,,,,,,,,,,,,,,,,822.294,822.49,822.49,822.99,,,,,,,,,,,,,,1.666,1,,,,,,,,,,,,,,z,,,,,,,,,,,,,,,,155,0,822.991,824.659,z,1,1.666,,[],[],[],[],[],[],[],824.661,826.657,826.658,826.659,[],[],[],[],[],[],[],,826.659,826.659,-0.825925928,0.092592578,0,0,0,,0,154,154,30,1,2,RL,selamor,print,selamor_p.png,,,,,,
,,,,31807,001,2025-10-17_14h36.23.862,HW_LDT_1,2024.2.4,Win32,59.95203837,,,,,,,,,,,,,,,,,,,,,,826.665,826.857,826.857,827.357,,,,,,,,,,,,,,3.859,1,,,,,,,,,,,,,,z,,,,,,,,,,,,,,,,156,0,827.358,831.224,z,1,3.859,,[],[],[],[],[],[],[],831.224,833.223,833.224,833.224,[],[],[],[],[],[],[],,833.224,833.224,-0.825925928,0.092592578,0,0,0,,0,155,155,71,1,2,TL,retome,cursive,retome_c.png,,,,,,
,,,,31807,001,2025-10-17_14h36.23.862,HW_LDT_1,2024.2.4,Win32,59.95203837,,,,,,,,,,,,,,,,,,,,,,833.228,833.424,833.424,833.924,,,,,,,,,,,,,,2.095,1,,,,,,,,,,,,,,z,,,,,,,,,,,,,,,,157,1,833.925,836.024,z,1,2.095,,[],[],[],[],[],[],[],836.024,838.023,838.023,839.273,[],[],[],[],[],[],[],z,839.273,839.273,-0.825925928,0.092592578,0,0,0,,0,156,156,59,1,2,TL,miskate,cursive,miskate_c.png,1.243,,,,,
,,,,31807,001,2025-10-17_14h36.23.862,HW_LDT_1,2024.2.4,Win32,59.95203837,,,,,,,,,,,,,,,,,,,,,,839.277,839.474,839.474,839.973,,,,,,,,,,,,,,1.293,1,,,,,,,,,,,,,,m,,,,,,,,,,,,,,,,158,0,839.975,841.274,m,1,1.293,,[],[],[],[],[],[],[],841.274,843.274,843.274,843.274,[],[],[],[],[],[],[],,843.274,843.275,-0.825925928,0.092592578,0,0,0,,0,157,157,151,1,2,word,SPECIFIC,print,specific_p.png,,,,,,
,,,,31807,001,2025-10-17_14h36.23.862,HW_LDT_1,2024.2.4,Win32,59.95203837,,,,,,,,,,,,,,,,,,,,,,843.278,843.474,843.474,843.973,,,,,,,,,,,,,,1.674,1,,,,,,,,,,,,,,z,,,,,,,,,,,,,,,,159,0,843.974,845.657,z,1,1.674,,[],[],[],[],[],[],[],845.657,847.657,847.657,847.657,[],[],[],[],[],[],[],,847.657,847.657,-0.825925928,0.092592578,0,0,0,,0,158,158,70,1,2,TL,retalive,print,retalive_p.png,,,,,,
,,,,31807,001,2025-10-17_14h36.23.862,HW_LDT_1,2024.2.4,Win32,59.95203837,,,,,,,,,,,,,,,,,,,,,,847.659,847.857,847.858,848.357,,,,,,,,,,,,,,1.176,1,,,,,,,,,,,,,,m,,,,,,,,,,,,,,,,160,0,848.357,849.54,m,1,1.176,,[],[],[],[],[],[],[],849.54,851.541,851.541,851.541,[],[],[],[],[],[],[],,851.541,851.541,-0.825925928,0.092592578,0,0,0,,0,159,159,110,1,2,word,HERITAGE,print,heritage_p.png,,,,,,
,,,,31807,001,2025-10-17_14h36.23.862,HW_LDT_1,2024.2.4,Win32,59.95203837,,,,,,,,,,,,,,,,,,,,,,,,,,,,,,,,,,,,,,,,,,,,,,,,,,,,,,,,,,,,,,,,,,,,,,,,,,,,,,,,,,,,,,,,,,,,,,,,,,,,,,,,,,,,,,,,,,,,,,,851.55,856.541
