counterbalance_lists.group,counterbalance_lists.remaining,get_list.started,get_list.stopped,participant,session,date,expName,psychopyVersion,OS,frameRate,Instructions.started,Instructions.stopped,key_resp.keys,key_resp.rt,key_resp.duration,instr_done_touch.x,instr_done_touch.y,instr_done_touch.leftButton,instr_done_touch.midButton,instr_done_touch.rightButton,start_instr.thisRepN,start_instr.thisTrialN,start_instr.thisN,start_instr.thisIndex,start_instr.ran,pageN,phase,instruct_text,has_image,instruct_image,showProgress.started,showProgress.stopped,fix.started,fix.stopped,prac.started,prac.stopped,response.keys,response.corr,response.rt,response.duration,touch_resp.x,touch_resp.y,touch_resp.leftButton,touch_resp.midButton,touch_resp.rightButton,touch_resp.time,touch_resp.clicked_name,rt,corr,feedback.started,feedback.stopped,trials.thisRepN,trials.thisTrialN,trials.thisN,trials.thisIndex,trials.ran,TrialID,StimulusType,Condition,PrimeDuration,Prime,Target,corrAns,Instructions_expt.started,Instructions_expt.stopped,key_resp_3.keys,key_resp_3.rt,key_resp_3.duration,instr_done_touch_3.x,instr_done_touch_3.y,instr_done_touch_3.leftButton,instr_done_touch_3.midButton,instr_done_touch_3.rightButton,instr_experiment.thisRepN,instr_experiment.thisTrialN,instr_experiment.thisN,instr_experiment.thisIndex,instr_experiment.ran,trialID,flag,maintask.started,maintask.stopped,key_resp_2.keys,key_resp_2.corr,key_resp_2.rt,key_resp_2.duration,targ_click.x,targ_click.y,targ_click.leftButton,targ_click.midButton,targ_click.rightButton,targ_click.time,targ_click.clicked_name,ITI.started,ITI.stopped,probe.started,probe.stopped,click_probe.x,click_probe.y,click_probe.leftButton,click_probe.midButton,click_probe.rightButton,click_probe.time,click_probe.clicked_name,key_resp_probe.keys,Break.started,Break.stopped,break_done_touch.x,break_done_touch.y,break_done_touch.leftButton,break_done_touch.midButton,break_done_touch.rightButton,break_done_keyboard.keys,list2_trials.thisRepN,list2_trials.thisTrialN,list2_trials.thisN,list2_trials.thisIndex,list2_trials.ran,list_id,item_type,string,font,stim_file,key_resp_probe.rt,key_resp_probe.duration,break_done_keyboard.rt,break_done_keyboard.duration,End.started,End.stopped
list2,,74.9933,74.9935,31827,001,2025-12-02_10h43.15.434,HW_LDT_1,2024.2.4,MacIntel,120.4819277,,,,,,,,,,,,,,,,,,,,,,,,,,,,,,,,,,,,,,,,,,,,,,,,,,,,,,,,,,,,,,,,,,,,,,,,,,,,,,,,,,,,,,,,,,,,,,,,,,,,,,,,,,,,,,,,,,,,,,,
,,,,31827,001,2025-12-02_10h43.15.434,HW_LDT_1,2024.2.4,MacIntel,120.4819277,75.0094,78.4108,space,3.3769,,-0.054265873,-0.443663194,0,0,0,0,0,0,0,1,1,instructions,"INSTRUCTIONS
At the start of each trial, look at the plus sign  (+) in the center of the screen.  This tells you that a trial is about to begin and where to look. Second, the plus sign will disappear and a string of letters will appear. Your task is to determine if the string of letters is a word or not. If the item is a word press the M key (on keyboard)  or touch the word button (phone/tablet).  If the item is not a word,  press the  Z key (on keyboard)  or touch the nonword button (on phone/tablet). The items will be presented for a short time. 
Press the space bar or touch  continue.",0,,,,,,,,,,,,,,,,,,,,,,,,,,,,,,,,,,,,,,,,,,,,,,,,,,,,,,,,,,,,,,,,,,,,,,,,,,,,,,,,,,,,,,,,,,,,,,,,,,,,
,,,,31827,001,2025-12-02_10h43.15.434,HW_LDT_1,2024.2.4,MacIntel,120.4819277,78.4127,91.5189,space,13.0885,,-0.054265873,-0.443663194,0,0,0,0,1,1,1,1,2,instructions,"If your device has a keyboard, press the 'Z' key for nonwords and the 'M' key for words.





Press the space bar or touch the button below to continue.",0,keyboard-example.gif,,,,,,,,,,,,,,,,,,,,,,,,,,,,,,,,,,,,,,,,,,,,,,,,,,,,,,,,,,,,,,,,,,,,,,,,,,,,,,,,,,,,,,,,,,,,,,,,,,,
,,,,31827,001,2025-12-02_10h43.15.434,HW_LDT_1,2024.2.4,MacIntel,120.4819277,91.5203,95.6938,space,4.1544,,-0.054265873,-0.443663194,0,0,0,0,2,2,2,1,3,instructions,"If you are using a touchscreen only device, use the buttons on the screen. Do not use the mouse.





Press the space bar or touch the button below to continue.",0,touchscreen-example.gif,,,,,,,,,,,,,,,,,,,,,,,,,,,,,,,,,,,,,,,,,,,,,,,,,,,,,,,,,,,,,,,,,,,,,,,,,,,,,,,,,,,,,,,,,,,,,,,,,,,
,,,,31827,001,2025-12-02_10h43.15.434,HW_LDT_1,2024.2.4,MacIntel,120.4819277,95.6956,109.1352,space,13.4232,,-0.054265873,-0.443663194,0,0,0,0,3,3,3,1,4,instructions,"It is very important that you respond as quickly and accurately as possible, as each letter string will only be on the screen for two seconds. If you do not respond within this time, the message 'Too slow!' will be displayed and the experiment will progress to the next letter string. The first 20 trials will be practice trials and you will receive feedback on your answers. 

Press the space bar or touch the button below to start the practice trials.",0,,,,,,,,,,,,,,,,,,,,,,,,,,,,,,,,,,,,,,,,,,,,,,,,,,,,,,,,,,,,,,,,,,,,,,,,,,,,,,,,,,,,,,,,,,,,,,,,,,,,
,,,,31827,001,2025-12-02_10h43.15.434,HW_LDT_1,2024.2.4,MacIntel,120.4819277,,,,,,,,,,,,,,,,,,,,,109.1588,109.3353,109.3355,109.8352,109.8355,112.2438,m,0,2.3924,,[],[],[],[],[],[],[],2.3924,0,112.244,112.7436,0,0,0,14,1,1015,NW,UN,16,miaber,THRALE,z,,,,,,,,,,,,,,,,,,,,,,,,,,,,,,,,,,,,,,,,,,,,,,,,,,,,,,,,,,,,,,,,,,
,,,,31827,001,2025-12-02_10h43.15.434,HW_LDT_1,2024.2.4,MacIntel,120.4819277,,,,,,,,,,,,,,,,,,,,,112.7447,112.9433,112.9433,113.4434,113.4441,114.6851,z,1,1.228,,[],[],[],[],[],[],[],1.228,1,114.6858,115.1851,0,1,1,9,1,1010,NW,"ID",33,fariny,FARINY,z,,,,,,,,,,,,,,,,,,,,,,,,,,,,,,,,,,,,,,,,,,,,,,,,,,,,,,,,,,,,,,,,,,
,,,,31827,001,2025-12-02_10h43.15.434,HW_LDT_1,2024.2.4,MacIntel,120.4819277,,,,,,,,,,,,,,,,,,,,,115.1862,115.3849,115.385,115.8851,115.8858,116.6017,m,1,0.7022,,[],[],[],[],[],[],[],0.7022,1,116.6018,117.1017,0,2,2,1,1,1002,WORD,"ID",33,adjust,ADJUST,m,,,,,,,,,,,,,,,,,,,,,,,,,,,,,,,,,,,,,,,,,,,,,,,,,,,,,,,,,,,,,,,,,,
,,,,31827,001,2025-12-02_10h43.15.434,HW_LDT_1,2024.2.4,MacIntel,120.4819277,,,,,,,,,,,,,,,,,,,,,117.1027,117.3011,117.3011,117.8017,117.8024,119.0518,z,1,1.2365,,[],[],[],[],[],[],[],1.2365,1,119.0519,119.5518,0,3,3,12,1,1013,NW,UN,33,adveil,SPRINY,z,,,,,,,,,,,,,,,,,,,,,,,,,,,,,,,,,,,,,,,,,,,,,,,,,,,,,,,,,,,,,,,,,,
,,,,31827,001,2025-12-02_10h43.15.434,HW_LDT_1,2024.2.4,MacIntel,120.4819277,,,,,,,,,,,,,,,,,,,,,119.5527,119.7517,119.7517,120.2512,120.2519,120.9184,m,1,0.6549,,[],[],[],[],[],[],[],0.6549,1,120.9186,121.4184,0,4,4,3,1,1004,WORD,"ID",16,matrix,MATRIX,m,,,,,,,,,,,,,,,,,,,,,,,,,,,,,,,,,,,,,,,,,,,,,,,,,,,,,,,,,,,,,,,,,,
,,,,31827,001,2025-12-02_10h43.15.434,HW_LDT_1,2024.2.4,MacIntel,120.4819277,,,,,,,,,,,,,,,,,,,,,121.4193,121.6182,121.6183,122.1183,122.1189,122.8434,z,1,0.7113,,[],[],[],[],[],[],[],0.7113,1,122.8435,123.3433,0,5,5,11,1,1012,NW,"ID",16,rashet,RASHET,z,,,,,,,,,,,,,,,,,,,,,,,,,,,,,,,,,,,,,,,,,,,,,,,,,,,,,,,,,,,,,,,,,,
,,,,31827,001,2025-12-02_10h43.15.434,HW_LDT_1,2024.2.4,MacIntel,120.4819277,,,,,,,,,,,,,,,,,,,,,123.3444,123.5433,123.5434,124.0434,124.044,124.7937,z,1,0.7399,,[],[],[],[],[],[],[],0.7399,1,124.7939,125.2933,0,6,6,13,1,1014,NW,UN,33,winfer,ROUPET,z,,,,,,,,,,,,,,,,,,,,,,,,,,,,,,,,,,,,,,,,,,,,,,,,,,,,,,,,,,,,,,,,,,
,,,,31827,001,2025-12-02_10h43.15.434,HW_LDT_1,2024.2.4,MacIntel,120.4819277,,,,,,,,,,,,,,,,,,,,,125.2944,125.4925,125.4925,125.9933,125.9941,126.5853,m,1,0.582,,[],[],[],[],[],[],[],0.582,1,126.5855,127.085,0,7,7,7,1,1008,WORD,UN,16,hurdle,VOLUME,m,,,,,,,,,,,,,,,,,,,,,,,,,,,,,,,,,,,,,,,,,,,,,,,,,,,,,,,,,,,,,,,,,,
,,,,31827,001,2025-12-02_10h43.15.434,HW_LDT_1,2024.2.4,MacIntel,120.4819277,,,,,,,,,,,,,,,,,,,,,127.0859,127.2848,127.2849,127.785,127.7856,128.4434,m,1,0.6488,,[],[],[],[],[],[],[],0.6488,1,128.4435,128.9434,0,8,8,0,1,1001,WORD,"ID",33,utopia,UTOPIA,m,,,,,,,,,,,,,,,,,,,,,,,,,,,,,,,,,,,,,,,,,,,,,,,,,,,,,,,,,,,,,,,,,,
,,,,31827,001,2025-12-02_10h43.15.434,HW_LDT_1,2024.2.4,MacIntel,120.4819277,,,,,,,,,,,,,,,,,,,,,128.9444,129.1432,129.1432,129.6432,129.6439,130.2681,z,1,0.6108,,[],[],[],[],[],[],[],0.6108,1,130.2683,130.7682,0,9,9,15,1,1016,NW,UN,16,mushed,WHAISE,z,,,,,,,,,,,,,,,,,,,,,,,,,,,,,,,,,,,,,,,,,,,,,,,,,,,,,,,,,,,,,,,,,,
,,,,31827,001,2025-12-02_10h43.15.434,HW_LDT_1,2024.2.4,MacIntel,120.4819277,,,,,,,,,,,,,,,,,,,,,130.7692,130.9681,130.9681,131.4683,131.4691,131.9683,m,1,0.4858,,[],[],[],[],[],[],[],0.4858,1,131.9684,132.4683,0,10,10,5,1,1006,WORD,UN,33,frenzy,OBTAIN,m,,,,,,,,,,,,,,,,,,,,,,,,,,,,,,,,,,,,,,,,,,,,,,,,,,,,,,,,,,,,,,,,,,
,,,,31827,001,2025-12-02_10h43.15.434,HW_LDT_1,2024.2.4,MacIntel,120.4819277,,,,,,,,,,,,,,,,,,,,,132.4693,132.6676,132.6677,133.1683,133.169,133.9517,z,1,0.7691,,[],[],[],[],[],[],[],0.7691,1,133.9519,134.4516,0,11,11,8,1,1009,NW,"ID",33,aslert,ASLERT,z,,,,,,,,,,,,,,,,,,,,,,,,,,,,,,,,,,,,,,,,,,,,,,,,,,,,,,,,,,,,,,,,,,
,,,,31827,001,2025-12-02_10h43.15.434,HW_LDT_1,2024.2.4,MacIntel,120.4819277,,,,,,,,,,,,,,,,,,,,,134.4528,134.6516,134.6516,135.1509,135.1516,135.7022,m,1,0.5412,,[],[],[],[],[],[],[],0.5412,1,135.7022,136.2015,0,12,12,6,1,1007,WORD,UN,16,tropic,ZOMBIE,m,,,,,,,,,,,,,,,,,,,,,,,,,,,,,,,,,,,,,,,,,,,,,,,,,,,,,,,,,,,,,,,,,,
,,,,31827,001,2025-12-02_10h43.15.434,HW_LDT_1,2024.2.4,MacIntel,120.4819277,,,,,,,,,,,,,,,,,,,,,136.2022,136.4016,136.4016,136.9016,136.9023,137.5346,m,1,0.6184,,[],[],[],[],[],[],[],0.6184,1,137.5347,138.0349,0,13,13,2,1,1003,WORD,"ID",16,almond,ALMOND,m,,,,,,,,,,,,,,,,,,,,,,,,,,,,,,,,,,,,,,,,,,,,,,,,,,,,,,,,,,,,,,,,,,
,,,,31827,001,2025-12-02_10h43.15.434,HW_LDT_1,2024.2.4,MacIntel,120.4819277,,,,,,,,,,,,,,,,,,,,,138.0359,138.235,138.235,138.7349,138.7356,139.2517,m,1,0.5022,,[],[],[],[],[],[],[],0.5022,1,139.2519,139.7517,0,14,14,4,1,1005,WORD,UN,33,abound,SQUEAK,m,,,,,,,,,,,,,,,,,,,,,,,,,,,,,,,,,,,,,,,,,,,,,,,,,,,,,,,,,,,,,,,,,,
,,,,31827,001,2025-12-02_10h43.15.434,HW_LDT_1,2024.2.4,MacIntel,120.4819277,,,,,,,,,,,,,,,,,,,,,139.7525,139.9516,139.9516,140.4506,140.4512,141.1683,z,1,0.7062,,[],[],[],[],[],[],[],0.7062,1,141.1685,141.6683,0,15,15,10,1,1011,NW,"ID",16,inlade,INLADE,z,,,,,,,,,,,,,,,,,,,,,,,,,,,,,,,,,,,,,,,,,,,,,,,,,,,,,,,,,,,,,,,,,,
,,,,31827,001,2025-12-02_10h43.15.434,HW_LDT_1,2024.2.4,MacIntel,120.4819277,,,,,,,,,,,,,,,,1,end_of_practice,"You have completed the practice trials. During the experimental trials, you will not receive feedback. On some trials you will be asked to report whether the item you just saw was in cursive or print. 
Before you begin, please ensure that you are in a comfortable and quiet location and will not be disturbed for about 15 minutes, as we cannot use your data if you do not complete all the trials. 
 When you are ready to start the experimental trials, please press space or touch the button below.",,,,,,,,,,,,,,,,,,,,,,,,,,,,,,,,,,,,141.6741,153.7686,space,12.0751,,-0.054265873,-0.443663194,0,0,0,0,0,0,0,1,,,,,,,,,,,,,,,,,,,,,,,,,,,,,,,,,,,,,,,,,,,,,,,,,,,
,,,,31827,001,2025-12-02_10h43.15.434,HW_LDT_1,2024.2.4,MacIntel,120.4819277,,,,,,,,,,,,,,,,,,,,,153.7797,153.9682,153.9683,154.4681,,,,,,,,,,,,,,0.635,1,,,,,,,,,,,,,,m,,,,,,,,,,,,,,,,1,0,154.4691,155.1095,m,1,0.635,,[],[],[],[],[],[],[],155.1097,157.1101,157.1103,157.1127,[],[],[],[],[],[],[],,157.1128,157.114,-0.054265873,-0.443663194,0,0,0,,0,0,0,128,1,2,word,PACIFIC,print,pacific_p.png,,,,,,
,,,,31827,001,2025-12-02_10h43.15.434,HW_LDT_1,2024.2.4,MacIntel,120.4819277,,,,,,,,,,,,,,,,,,,,,157.1145,157.3099,157.3099,157.8093,,,,,,,,,,,,,,0.6954,1,,,,,,,,,,,,,,z,,,,,,,,,,,,,,,,2,0,157.8097,158.5098,z,1,0.6954,,[],[],[],[],[],[],[],158.5098,160.5098,160.5099,160.5101,[],[],[],[],[],[],[],,160.5102,160.5102,-0.054265873,-0.443663194,0,0,0,,0,1,1,25,1,2,RL,rabigly,print,rabigly_p.png,,,,,,
,,,,31827,001,2025-12-02_10h43.15.434,HW_LDT_1,2024.2.4,MacIntel,120.4819277,,,,,,,,,,,,,,,,,,,,,160.5111,160.7098,160.7099,161.2097,,,,,,,,,,,,,,2.6033,1,,,,,,,,,,,,,,z,,,,,,,,,,,,,,,,3,1,161.2102,163.8182,z,1,2.6033,,[],[],[],[],[],[],[],163.8183,165.8181,165.8181,167.8681,[],[],[],[],[],[],[],z,167.8682,167.8683,-0.054265873,-0.443663194,0,0,0,,0,2,2,57,1,2,TL,meromy,cursive,meromy_c.png,2.0462,,,,,
,,,,31827,001,2025-12-02_10h43.15.434,HW_LDT_1,2024.2.4,MacIntel,120.4819277,,,,,,,,,,,,,,,,,,,,,167.8692,168.0682,168.0682,168.5681,,,,,,,,,,,,,,3.7618,0,,,,,,,,,,,,,,z,,,,,,,,,,,,,,,,4,0,168.5686,172.3348,m,0,3.7618,,[],[],[],[],[],[],[],172.335,174.3348,174.3349,174.3351,[],[],[],[],[],[],[],,174.3351,174.3352,-0.054265873,-0.443663194,0,0,0,,0,3,3,12,1,2,RL,gralekul,cursive,gralekul_c.png,,,,,,
,,,,31827,001,2025-12-02_10h43.15.434,HW_LDT_1,2024.2.4,MacIntel,120.4819277,,,,,,,,,,,,,,,,,,,,,174.3361,174.5351,174.5351,175.0348,,,,,,,,,,,,,,2.2537,0,,,,,,,,,,,,,,m,,,,,,,,,,,,,,,,5,0,175.0352,177.2931,z,0,2.2537,,[],[],[],[],[],[],[],177.2932,179.2931,179.2931,179.2933,[],[],[],[],[],[],[],,179.2934,179.2935,-0.054265873,-0.443663194,0,0,0,,0,4,4,123,1,2,word,MODERATE,cursive,moderate_c.png,,,,,,
,,,,31827,001,2025-12-02_10h43.15.434,HW_LDT_1,2024.2.4,MacIntel,120.4819277,,,,,,,,,,,,,,,,,,,,,179.2944,179.4931,179.4931,179.9931,,,,,,,,,,,,,,1.0368,1,,,,,,,,,,,,,,m,,,,,,,,,,,,,,,,6,0,179.9936,181.0348,m,1,1.0368,,[],[],[],[],[],[],[],181.0351,183.0347,183.0347,183.0351,[],[],[],[],[],[],[],,183.0351,183.0352,-0.054265873,-0.443663194,0,0,0,,0,5,5,142,1,2,word,REMOTE,cursive,remote_c.png,,,,,,
,,,,31827,001,2025-12-02_10h43.15.434,HW_LDT_1,2024.2.4,MacIntel,120.4819277,,,,,,,,,,,,,,,,,,,,,183.0361,183.2349,183.2349,183.7347,,,,,,,,,,,,,,2.0041,1,,,,,,,,,,,,,,z,,,,,,,,,,,,,,,,7,0,183.7352,185.7422,z,1,2.0041,,[],[],[],[],[],[],[],185.7422,187.7431,187.7432,187.7434,[],[],[],[],[],[],[],,187.7435,187.7435,-0.054265873,-0.443663194,0,0,0,,0,6,6,50,1,2,TL,donimant,print,donimant_p.png,,,,,,
,,,,31827,001,2025-12-02_10h43.15.434,HW_LDT_1,2024.2.4,MacIntel,120.4819277,,,,,,,,,,,,,,,,,,,,,187.7445,187.9431,187.9432,188.4431,,,,,,,,,,,,,,0.9783,1,,,,,,,,,,,,,,z,,,,,,,,,,,,,,,,8,0,188.4437,189.4265,z,1,0.9783,,[],[],[],[],[],[],[],189.4267,191.4264,191.4265,191.4266,[],[],[],[],[],[],[],,191.4266,191.4268,-0.054265873,-0.443663194,0,0,0,,0,7,7,3,1,2,RL,capefory,print,capefory_p.png,,,,,,
,,,,31827,001,2025-12-02_10h43.15.434,HW_LDT_1,2024.2.4,MacIntel,120.4819277,,,,,,,,,,,,,,,,,,,,,191.4277,191.6266,191.6267,192.1263,,,,,,,,,,,,,,0.7143,1,,,,,,,,,,,,,,z,,,,,,,,,,,,,,,,9,1,192.1268,192.843,z,1,0.7143,,[],[],[],[],[],[],[],192.8431,194.8431,194.8431,197.2848,[],[],[],[],[],[],[],m,197.285,197.2851,-0.054265873,-0.443663194,0,0,0,,0,8,8,2,1,2,RL,casagity,print,casagity_p.png,2.4378,,,,,
,,,,31827,001,2025-12-02_10h43.15.434,HW_LDT_1,2024.2.4,MacIntel,120.4819277,,,,,,,,,,,,,,,,,,,,,197.2859,197.4847,197.4847,197.9846,,,,,,,,,,,,,,1.5703,1,,,,,,,,,,,,,,z,,,,,,,,,,,,,,,,10,0,197.9851,199.5597,z,1,1.5703,,[],[],[],[],[],[],[],199.5598,201.5597,201.5597,201.5599,[],[],[],[],[],[],[],,201.5599,201.56,-0.054265873,-0.443663194,0,0,0,,0,9,9,27,1,2,RL,repifion,cursive,repifion_c.png,,,,,,
,,,,31827,001,2025-12-02_10h43.15.434,HW_LDT_1,2024.2.4,MacIntel,120.4819277,,,,,,,,,,,,,,,,,,,,,201.5609,201.7595,201.7595,202.2598,,,,,,,,,,,,,,0.6946,1,,,,,,,,,,,,,,m,,,,,,,,,,,,,,,,11,1,202.2602,202.9598,m,1,0.6946,,[],[],[],[],[],[],[],202.9599,204.9596,204.9596,206.3682,[],[],[],[],[],[],[],m,206.3683,206.3684,-0.054265873,-0.443663194,0,0,0,,0,10,10,88,1,2,word,CAMERA,print,camera_p.png,1.4081,,,,,
,,,,31827,001,2025-12-02_10h43.15.434,HW_LDT_1,2024.2.4,MacIntel,120.4819277,,,,,,,,,,,,,,,,,,,,,206.369,206.5681,206.5681,207.068,,,,,,,,,,,,,,1.357,1,,,,,,,,,,,,,,m,,,,,,,,,,,,,,,,12,0,207.0683,208.4263,m,1,1.357,,[],[],[],[],[],[],[],208.4264,210.4263,210.4263,210.4265,[],[],[],[],[],[],[],,210.4265,210.4266,-0.054265873,-0.443663194,0,0,0,,0,11,11,155,1,2,word,STRATEGY,cursive,strategy_c.png,,,,,,
,,,,31827,001,2025-12-02_10h43.15.434,HW_LDT_1,2024.2.4,MacIntel,120.4819277,,,,,,,,,,,,,,,,,,,,,210.4276,210.6263,210.6264,211.1254,,,,,,,,,,,,,,0.8548,1,,,,,,,,,,,,,,m,,,,,,,,,,,,,,,,13,0,211.126,211.9846,m,1,0.8548,,[],[],[],[],[],[],[],211.9849,213.9846,213.9847,213.9848,[],[],[],[],[],[],[],,213.9849,213.9851,-0.054265873,-0.443663194,0,0,0,,0,12,12,157,1,2,word,VALIDITY,print,validity_p.png,,,,,,
,,,,31827,001,2025-12-02_10h43.15.434,HW_LDT_1,2024.2.4,MacIntel,120.4819277,,,,,,,,,,,,,,,,,,,,,213.9861,214.1848,214.1848,214.6847,,,,,,,,,,,,,,1.2541,1,,,,,,,,,,,,,,m,,,,,,,,,,,,,,,,14,0,214.6851,215.9431,m,1,1.2541,,[],[],[],[],[],[],[],215.9432,217.943,217.9431,217.9432,[],[],[],[],[],[],[],,217.9433,217.9434,-0.054265873,-0.443663194,0,0,0,,0,13,13,80,1,2,word,ACADEMY,cursive,academy_c.png,,,,,,
,,,,31827,001,2025-12-02_10h43.15.434,HW_LDT_1,2024.2.4,MacIntel,120.4819277,,,,,,,,,,,,,,,,,,,,,217.9444,218.1429,218.143,218.643,,,,,,,,,,,,,,0.9365,1,,,,,,,,,,,,,,m,,,,,,,,,,,,,,,,15,0,218.6435,219.5847,m,1,0.9365,,[],[],[],[],[],[],[],219.5848,221.5846,221.5847,221.5848,[],[],[],[],[],[],[],,221.5848,221.585,-0.054265873,-0.443663194,0,0,0,,0,14,14,141,1,2,word,RELIGION,cursive,religion_c.png,,,,,,
,,,,31827,001,2025-12-02_10h43.15.434,HW_LDT_1,2024.2.4,MacIntel,120.4819277,,,,,,,,,,,,,,,,,,,,,221.5858,221.7846,221.7847,222.2846,,,,,,,,,,,,,,0.6032,1,,,,,,,,,,,,,,m,,,,,,,,,,,,,,,,16,0,222.285,222.893,m,1,0.6032,,[],[],[],[],[],[],[],222.8931,224.893,224.8931,224.8932,[],[],[],[],[],[],[],,224.8933,224.8934,-0.054265873,-0.443663194,0,0,0,,0,15,15,114,1,2,word,LOCATE,print,locate_p.png,,,,,,
,,,,31827,001,2025-12-02_10h43.15.434,HW_LDT_1,2024.2.4,MacIntel,120.4819277,,,,,,,,,,,,,,,,,,,,,224.8942,225.0929,225.0929,225.5928,,,,,,,,,,,,,,0.6287,1,,,,,,,,,,,,,,m,,,,,,,,,,,,,,,,17,0,225.5932,226.2263,m,1,0.6287,,[],[],[],[],[],[],[],226.2264,228.2263,228.2263,228.2265,[],[],[],[],[],[],[],,228.2266,228.2267,-0.054265873,-0.443663194,0,0,0,,0,16,16,86,1,2,word,BESIDE,cursive,beside_c.png,,,,,,
,,,,31827,001,2025-12-02_10h43.15.434,HW_LDT_1,2024.2.4,MacIntel,120.4819277,,,,,,,,,,,,,,,,,,,,,228.2275,228.4264,228.4264,228.9264,,,,,,,,,,,,,,1.0451,1,,,,,,,,,,,,,,z,,,,,,,,,,,,,,,,18,0,228.9268,229.9763,z,1,1.0451,,[],[],[],[],[],[],[],229.9764,231.9762,231.9763,231.9764,[],[],[],[],[],[],[],,231.9765,231.9765,-0.054265873,-0.443663194,0,0,0,,0,17,17,61,1,2,TL,nuremical,cursive,nuremical_c.png,,,,,,
,,,,31827,001,2025-12-02_10h43.15.434,HW_LDT_1,2024.2.4,MacIntel,120.4819277,,,,,,,,,,,,,,,,,,,,,231.9775,232.1764,232.1764,232.6761,,,,,,,,,,,,,,0.8952,1,,,,,,,,,,,,,,m,,,,,,,,,,,,,,,,19,0,232.6766,233.5764,m,1,0.8952,,[],[],[],[],[],[],[],233.5765,235.5763,235.5763,235.5765,[],[],[],[],[],[],[],,235.5765,235.5766,-0.054265873,-0.443663194,0,0,0,,0,18,18,87,1,2,word,CAFETERIA,print,cafeteria_p.png,,,,,,
,,,,31827,001,2025-12-02_10h43.15.434,HW_LDT_1,2024.2.4,MacIntel,120.4819277,,,,,,,,,,,,,,,,,,,,,235.5776,235.7763,235.7763,236.2762,,,,,,,,,,,,,,1.779,1,,,,,,,,,,,,,,z,,,,,,,,,,,,,,,,20,0,236.2766,238.0596,z,1,1.779,,[],[],[],[],[],[],[],238.0597,240.0595,240.0597,240.0598,[],[],[],[],[],[],[],,240.0598,240.0599,-0.054265873,-0.443663194,0,0,0,,0,19,19,69,1,2,TL,resufal,cursive,resufal_c.png,,,,,,
,,,,31827,001,2025-12-02_10h43.15.434,HW_LDT_1,2024.2.4,MacIntel,120.4819277,,,,,,,,,,,,,,,,,,,,,240.0608,240.2597,240.2597,240.7595,,,,,,,,,,,,,,1.3121,0,,,,,,,,,,,,,,m,,,,,,,,,,,,,,,,21,0,240.7599,242.0763,z,0,1.3121,,[],[],[],[],[],[],[],242.0764,244.0755,244.0756,244.0759,[],[],[],[],[],[],[],,244.0759,244.076,-0.054265873,-0.443663194,0,0,0,,0,20,20,117,1,2,word,MARINE,cursive,marine_c.png,,,,,,
,,,,31827,001,2025-12-02_10h43.15.434,HW_LDT_1,2024.2.4,MacIntel,120.4819277,,,,,,,,,,,,,,,,,,,,,244.0769,244.2762,244.2762,244.7761,,,,,,,,,,,,,,0.8368,1,,,,,,,,,,,,,,z,,,,,,,,,,,,,,,,22,0,244.7766,245.6171,z,1,0.8368,,[],[],[],[],[],[],[],245.6171,247.6178,247.6179,247.6181,[],[],[],[],[],[],[],,247.6182,247.6182,-0.054265873,-0.443663194,0,0,0,,0,21,21,28,1,2,RL,revune,cursive,revune_c.png,,,,,,
,,,,31827,001,2025-12-02_10h43.15.434,HW_LDT_1,2024.2.4,MacIntel,120.4819277,,,,,,,,,,,,,,,,,,,,,247.6191,247.8178,247.818,248.3178,,,,,,,,,,,,,,1.1621,1,,,,,,,,,,,,,,z,,,,,,,,,,,,,,,,23,0,248.3182,249.4845,z,1,1.1621,,[],[],[],[],[],[],[],249.4846,251.4845,251.4845,251.4846,[],[],[],[],[],[],[],,251.4847,251.4847,-0.054265873,-0.443663194,0,0,0,,0,22,22,45,1,2,TL,carnidal,cursive,carnidal_c.png,,,,,,
,,,,31827,001,2025-12-02_10h43.15.434,HW_LDT_1,2024.2.4,MacIntel,120.4819277,,,,,,,,,,,,,,,,,,,,,251.4855,251.6845,251.6846,252.1844,,,,,,,,,,,,,,1.1121,1,,,,,,,,,,,,,,z,,,,,,,,,,,,,,,,24,0,252.1848,253.3013,z,1,1.1121,,[],[],[],[],[],[],[],253.3014,255.3011,255.3011,255.3013,[],[],[],[],[],[],[],,255.3014,255.3014,-0.054265873,-0.443663194,0,0,0,,0,23,23,40,1,2,TL,bevoled,cursive,bevoled_c.png,,,,,,
,,,,31827,001,2025-12-02_10h43.15.434,HW_LDT_1,2024.2.4,MacIntel,120.4819277,,,,,,,,,,,,,,,,,,,,,255.3022,255.5011,255.5011,256.0012,,,,,,,,,,,,,,0.7287,1,,,,,,,,,,,,,,z,,,,,,,,,,,,,,,,25,0,256.0016,256.7345,z,1,0.7287,,[],[],[],[],[],[],[],256.7347,258.7345,258.7345,258.7347,[],[],[],[],[],[],[],,258.7347,258.7348,-0.054265873,-0.443663194,0,0,0,,0,24,24,78,1,2,TL,stogare,print,stogare_p.png,,,,,,
,,,,31827,001,2025-12-02_10h43.15.434,HW_LDT_1,2024.2.4,MacIntel,120.4819277,,,,,,,,,,,,,,,,,,,,,258.7357,258.9345,258.9345,259.4345,,,,,,,,,,,,,,0.7293,1,,,,,,,,,,,,,,z,,,,,,,,,,,,,,,,26,0,259.4349,260.1679,z,1,0.7293,,[],[],[],[],[],[],[],260.1679,262.1678,262.1678,262.168,[],[],[],[],[],[],[],,262.168,262.1681,-0.054265873,-0.443663194,0,0,0,,0,25,25,43,1,2,TL,carema,print,carema_p.png,,,,,,
,,,,31827,001,2025-12-02_10h43.15.434,HW_LDT_1,2024.2.4,MacIntel,120.4819277,,,,,,,,,,,,,,,,,,,,,262.169,262.3678,262.3679,262.8678,,,,,,,,,,,,,,0.5541,1,,,,,,,,,,,,,,m,,,,,,,,,,,,,,,,27,0,262.8682,263.4261,m,1,0.5541,,[],[],[],[],[],[],[],263.4262,265.4261,265.4261,265.4264,[],[],[],[],[],[],[],,265.4265,265.4265,-0.054265873,-0.443663194,0,0,0,,0,26,26,122,1,2,word,MOBILE,print,mobile_p.png,,,,,,
,,,,31827,001,2025-12-02_10h43.15.434,HW_LDT_1,2024.2.4,MacIntel,120.4819277,,,,,,,,,,,,,,,,,,,,,265.4276,265.6255,265.6255,266.1261,,,,,,,,,,,,,,0.5868,1,,,,,,,,,,,,,,m,,,,,,,,,,,,,,,,28,1,266.1266,266.7178,m,1,0.5868,,[],[],[],[],[],[],[],266.7179,268.7177,268.7177,269.9172,[],[],[],[],[],[],[],m,269.9173,269.9174,-0.054265873,-0.443663194,0,0,0,,0,27,27,110,1,2,word,HERITAGE,print,heritage_p.png,1.1962,,,,,
,,,,31827,001,2025-12-02_10h43.15.434,HW_LDT_1,2024.2.4,MacIntel,120.4819277,,,,,,,,,,,,,,,,,,,,,269.9183,270.1178,270.1179,270.6177,,,,,,,,,,,,,,0.968,1,,,,,,,,,,,,,,m,,,,,,,,,,,,,,,,29,0,270.6181,271.593,m,1,0.968,,[],[],[],[],[],[],[],271.5931,273.5929,273.593,273.5931,[],[],[],[],[],[],[],,273.5931,273.5932,-0.054265873,-0.443663194,0,0,0,,0,28,28,95,1,2,word,COMEDY,cursive,comedy_c.png,,,,,,
,,,,31827,001,2025-12-02_10h43.15.434,HW_LDT_1,2024.2.4,MacIntel,120.4819277,,,,,,,,,,,,,,,,,,,,,273.5941,273.7927,273.7928,274.2927,,,,,,,,,,,,,,2.3474,1,,,,,,,,,,,,,,m,,,,,,,,,,,,,,,,30,1,274.2931,276.6427,m,1,2.3474,,[],[],[],[],[],[],[],276.6428,278.6427,278.6428,279.6012,[],[],[],[],[],[],[],z,279.6013,279.6014,-0.054265873,-0.443663194,0,0,0,,0,29,29,98,1,2,word,CRIMINAL,cursive,criminal_c.png,0.9533,,,,,
,,,,31827,001,2025-12-02_10h43.15.434,HW_LDT_1,2024.2.4,MacIntel,120.4819277,,,,,,,,,,,,,,,,,,,,,279.6024,279.8011,279.8011,280.301,,,,,,,,,,,,,,1.4953,1,,,,,,,,,,,,,,z,,,,,,,,,,,,,,,,31,0,280.3014,281.8013,z,1,1.4953,,[],[],[],[],[],[],[],281.8014,283.8011,283.8013,283.8013,[],[],[],[],[],[],[],,283.8014,283.8015,-0.054265873,-0.443663194,0,0,0,,0,30,30,76,1,2,TL,senmitent,cursive,senmitent_c.png,,,,,,
,,,,31827,001,2025-12-02_10h43.15.434,HW_LDT_1,2024.2.4,MacIntel,120.4819277,,,,,,,,,,,,,,,,,,,,,283.8024,284.0011,284.0012,284.5012,,,,,,,,,,,,,,0.5781,1,,,,,,,,,,,,,,m,,,,,,,,,,,,,,,,32,1,284.5017,285.0839,m,1,0.5781,,[],[],[],[],[],[],[],285.084,287.0843,287.0845,288.2844,[],[],[],[],[],[],[],m,288.2845,288.2845,-0.054265873,-0.443663194,0,0,0,,0,31,31,115,1,2,word,LOGICAL,print,logical_p.png,1.1997,,,,,
,,,,31827,001,2025-12-02_10h43.15.434,HW_LDT_1,2024.2.4,MacIntel,120.4819277,,,,,,,,,,,,,,,,,,,,,288.2854,288.4845,288.4845,288.9843,,,,,,,,,,,,,,1.7235,0,,,,,,,,,,,,,,m,,,,,,,,,,,,,,,,33,1,288.9848,290.7093,z,0,1.7235,,[],[],[],[],[],[],[],290.7094,292.7095,292.7095,293.6835,[],[],[],[],[],[],[],z,293.6835,293.6837,-0.054265873,-0.443663194,0,0,0,,0,32,32,124,1,2,word,NUMERICAL,cursive,numerical_c.png,0.9696,,,,,
,,,,31827,001,2025-12-02_10h43.15.434,HW_LDT_1,2024.2.4,MacIntel,120.4819277,,,,,,,,,,,,,,,,,,,,,293.6845,293.8844,293.8844,294.3844,,,,,,,,,,,,,,1.6452,0,,,,,,,,,,,,,,m,,,,,,,,,,,,,,,,34,0,294.3847,296.0344,z,0,1.6452,,[],[],[],[],[],[],[],296.0345,298.0344,298.0345,298.0347,[],[],[],[],[],[],[],,298.0347,298.0348,-0.054265873,-0.443663194,0,0,0,,0,33,33,106,1,2,word,ELABORATE,cursive,elaborate_c.png,,,,,,
,,,,31827,001,2025-12-02_10h43.15.434,HW_LDT_1,2024.2.4,MacIntel,120.4819277,,,,,,,,,,,,,,,,,,,,,298.0356,298.2343,298.2344,298.7343,,,,,,,,,,,,,,0.7375,1,,,,,,,,,,,,,,z,,,,,,,,,,,,,,,,35,0,298.7346,299.4752,z,1,0.7375,,[],[],[],[],[],[],[],299.4753,301.476,301.4761,301.4762,[],[],[],[],[],[],[],,301.4763,301.4763,-0.054265873,-0.443663194,0,0,0,,0,34,34,6,1,2,RL,conbicer,print,conbicer_p.png,,,,,,
,,,,31827,001,2025-12-02_10h43.15.434,HW_LDT_1,2024.2.4,MacIntel,120.4819277,,,,,,,,,,,,,,,,,,,,,301.4771,301.6761,301.6762,302.1761,,,,,,,,,,,,,,0.7288,1,,,,,,,,,,,,,,m,,,,,,,,,,,,,,,,36,0,302.1764,302.9088,m,1,0.7288,,[],[],[],[],[],[],[],302.9089,304.9094,304.9094,304.9096,[],[],[],[],[],[],[],,304.9096,304.9096,-0.054265873,-0.443663194,0,0,0,,0,35,35,137,1,2,word,RAPIDLY,print,rapidly_p.png,,,,,,
,,,,31827,001,2025-12-02_10h43.15.434,HW_LDT_1,2024.2.4,MacIntel,120.4819277,,,,,,,,,,,,,,,,,,,,,304.9106,305.1094,305.1094,305.6094,,,,,,,,,,,,,,1.4856,1,,,,,,,,,,,,,,z,,,,,,,,,,,,,,,,37,0,305.6098,307.1009,z,1,1.4856,,[],[],[],[],[],[],[],307.101,309.1011,309.1011,309.1012,[],[],[],[],[],[],[],,309.1012,309.1014,-0.054265873,-0.443663194,0,0,0,,0,36,36,38,1,2,TL,atameur,cursive,atameur_c.png,,,,,,
,,,,31827,001,2025-12-02_10h43.15.434,HW_LDT_1,2024.2.4,MacIntel,120.4819277,,,,,,,,,,,,,,,,,,,,,309.1022,309.301,309.301,309.801,,,,,,,,,,,,,,1.0452,1,,,,,,,,,,,,,,z,,,,,,,,,,,,,,,,38,0,309.8014,310.851,z,1,1.0452,,[],[],[],[],[],[],[],310.851,312.851,312.851,312.8512,[],[],[],[],[],[],[],,312.8512,312.8513,-0.054265873,-0.443663194,0,0,0,,0,37,37,39,1,2,TL,aminal,print,aminal_p.png,,,,,,
,,,,31827,001,2025-12-02_10h43.15.434,HW_LDT_1,2024.2.4,MacIntel,120.4819277,,,,,,,,,,,,,,,,,,,,,312.8522,313.0509,313.051,313.5509,,,,,,,,,,,,,,1.0371,1,,,,,,,,,,,,,,z,,,,,,,,,,,,,,,,39,0,313.5513,314.5921,z,1,1.0371,,[],[],[],[],[],[],[],314.5922,316.5926,316.5926,316.5928,[],[],[],[],[],[],[],,316.5928,316.593,-0.054265873,-0.443663194,0,0,0,,0,38,38,66,1,2,TL,prodive,cursive,prodive_c.png,,,,,,
,,,,31827,001,2025-12-02_10h43.15.434,HW_LDT_1,2024.2.4,MacIntel,120.4819277,,,,,,,,,,,,,,,,,,,,,316.594,316.7919,316.792,317.2927,,,,,,,,,,,,,,0.5535,1,,,,,,,,,,,,,,z,,,,,,,,,,,,,,,,40,0,317.293,317.8511,z,1,0.5535,,[],[],[],[],[],[],[],317.8512,319.851,319.851,319.8511,[],[],[],[],[],[],[],,319.8512,319.8513,-0.054265873,-0.443663194,0,0,0,,0,39,39,26,1,2,RL,retupar,cursive,retupar_c.png,,,,,,
,,,,31827,001,2025-12-02_10h43.15.434,HW_LDT_1,2024.2.4,MacIntel,120.4819277,,,,,,,,,,,,,,,,,,,,,319.8522,320.0502,320.0502,320.5509,,,,,,,,,,,,,,0.6809,1,,,,,,,,,,,,,,z,,,,,,,,,,,,,,,,41,0,320.5514,321.2334,z,1,0.6809,,[],[],[],[],[],[],[],321.2336,323.2343,323.2344,323.2345,[],[],[],[],[],[],[],,323.2345,323.2346,-0.054265873,-0.443663194,0,0,0,,0,40,40,54,1,2,TL,liretal,cursive,liretal_c.png,,,,,,
,,,,31827,001,2025-12-02_10h43.15.434,HW_LDT_1,2024.2.4,MacIntel,120.4819277,,,,,,,,,,,,,,,,,,,,,323.2356,323.4343,323.4343,323.9345,,,,,,,,,,,,,,1.5903,1,,,,,,,,,,,,,,z,,,,,,,,,,,,,,,,42,0,323.9348,325.5258,z,1,1.5903,,[],[],[],[],[],[],[],325.5259,327.5259,327.526,327.5262,[],[],[],[],[],[],[],,327.5262,327.5263,-0.054265873,-0.443663194,0,0,0,,0,41,41,56,1,2,TL,marnigal,cursive,marnigal_c.png,,,,,,
,,,,31827,001,2025-12-02_10h43.15.434,HW_LDT_1,2024.2.4,MacIntel,120.4819277,,,,,,,,,,,,,,,,,,,,,327.5272,327.7259,327.7261,328.226,,,,,,,,,,,,,,0.637,1,,,,,,,,,,,,,,z,,,,,,,,,,,,,,,,43,0,328.2264,328.8677,z,1,0.637,,[],[],[],[],[],[],[],328.8678,330.8676,330.8677,330.8679,[],[],[],[],[],[],[],,330.8679,330.868,-0.054265873,-0.443663194,0,0,0,,0,42,42,21,1,2,RL,pamest,print,pamest_p.png,,,,,,
,,,,31827,001,2025-12-02_10h43.15.434,HW_LDT_1,2024.2.4,MacIntel,120.4819277,,,,,,,,,,,,,,,,,,,,,330.8687,331.0676,331.0676,331.5676,,,,,,,,,,,,,,0.5289,0,,,,,,,,,,,,,,z,,,,,,,,,,,,,,,,44,1,331.568,332.101,m,0,0.5289,,[],[],[],[],[],[],[],332.1011,334.101,334.101,335.2677,[],[],[],[],[],[],[],m,335.2678,335.2679,-0.054265873,-0.443663194,0,0,0,,0,43,43,79,1,2,TL,vadility,print,vadility_p.png,1.1654,,,,,
,,,,31827,001,2025-12-02_10h43.15.434,HW_LDT_1,2024.2.4,MacIntel,120.4819277,,,,,,,,,,,,,,,,,,,,,335.2687,335.4675,335.4675,335.9676,,,,,,,,,,,,,,1.3128,1,,,,,,,,,,,,,,m,,,,,,,,,,,,,,,,45,0,335.968,337.284,m,1,1.3128,,[],[],[],[],[],[],[],337.284,339.2843,339.2843,339.2844,[],[],[],[],[],[],[],,339.2845,339.2845,-0.054265873,-0.443663194,0,0,0,,0,44,44,145,1,2,word,RESUME,cursive,resume_c.png,,,,,,
,,,,31827,001,2025-12-02_10h43.15.434,HW_LDT_1,2024.2.4,MacIntel,120.4819277,,,,,,,,,,,,,,,,,,,,,339.2854,339.4842,339.4843,339.9842,,,,,,,,,,,,,,1.487,0,,,,,,,,,,,,,,m,,,,,,,,,,,,,,,,46,0,339.9845,341.476,z,0,1.487,,[],[],[],[],[],[],[],341.4761,343.476,343.476,343.4762,[],[],[],[],[],[],[],,343.4762,343.4763,-0.054265873,-0.443663194,0,0,0,,0,45,45,113,1,2,word,LITERAL,cursive,literal_c.png,,,,,,
,,,,31827,001,2025-12-02_10h43.15.434,HW_LDT_1,2024.2.4,MacIntel,120.4819277,,,,,,,,,,,,,,,,,,,,,343.4773,343.6752,343.6752,344.1759,,,,,,,,,,,,,,0.8536,1,,,,,,,,,,,,,,m,,,,,,,,,,,,,,,,47,0,344.1762,345.0343,m,1,0.8536,,[],[],[],[],[],[],[],345.0343,347.0343,347.0343,347.0344,[],[],[],[],[],[],[],,347.0345,347.0346,-0.054265873,-0.443663194,0,0,0,,0,46,46,127,1,2,word,ORIGINAL,print,original_p.png,,,,,,
,,,,31827,001,2025-12-02_10h43.15.434,HW_LDT_1,2024.2.4,MacIntel,120.4819277,,,,,,,,,,,,,,,,,,,,,347.0354,347.2339,347.234,347.7341,,,,,,,,,,,,,,0.7885,1,,,,,,,,,,,,,,z,,,,,,,,,,,,,,,,48,0,347.7346,348.526,z,1,0.7885,,[],[],[],[],[],[],[],348.526,350.5258,350.5259,350.5261,[],[],[],[],[],[],[],,350.5261,350.5262,-0.054265873,-0.443663194,0,0,0,,0,47,47,55,1,2,TL,lotace,print,lotace_p.png,,,,,,
,,,,31827,001,2025-12-02_10h43.15.434,HW_LDT_1,2024.2.4,MacIntel,120.4819277,,,,,,,,,,,,,,,,,,,,,350.5272,350.7259,350.7259,351.2254,,,,,,,,,,,,,,1.5792,0,,,,,,,,,,,,,,m,,,,,,,,,,,,,,,,49,0,351.2258,352.8085,z,0,1.5792,,[],[],[],[],[],[],[],352.8085,354.8092,354.8092,354.8093,[],[],[],[],[],[],[],,354.8093,354.8094,-0.054265873,-0.443663194,0,0,0,,0,48,48,146,1,2,word,RETIRE,cursive,retire_c.png,,,,,,
,,,,31827,001,2025-12-02_10h43.15.434,HW_LDT_1,2024.2.4,MacIntel,120.4819277,,,,,,,,,,,,,,,,,,,,,354.8103,355.0091,355.0092,355.5082,,,,,,,,,,,,,,1.3798,1,,,,,,,,,,,,,,z,,,,,,,,,,,,,,,,50,0,355.5086,356.8926,z,1,1.3798,,[],[],[],[],[],[],[],356.8926,358.8926,358.8927,358.8928,[],[],[],[],[],[],[],,358.8929,358.8929,-0.054265873,-0.443663194,0,0,0,,0,49,49,59,1,2,TL,miskate,cursive,miskate_c.png,,,,,,
,,,,31827,001,2025-12-02_10h43.15.434,HW_LDT_1,2024.2.4,MacIntel,120.4819277,,,,,,,,,,,,,,,,,,,,,358.894,359.0925,359.0926,359.5922,,,,,,,,,,,,,,1.0539,1,,,,,,,,,,,,,,m,,,,,,,,,,,,,,,,51,0,359.5926,360.6508,m,1,1.0539,,[],[],[],[],[],[],[],360.6508,362.6509,362.651,362.6512,[],[],[],[],[],[],[],,362.6512,362.6513,-0.054265873,-0.443663194,0,0,0,,0,50,50,147,1,2,word,ROMANTIC,print,romantic_p.png,,,,,,
,,,,31827,001,2025-12-02_10h43.15.434,HW_LDT_1,2024.2.4,MacIntel,120.4819277,,,,,,,,,,,,,,,,,,,,,362.6522,362.8508,362.8508,363.3508,,,,,,,,,,,,,,0.8535,1,,,,,,,,,,,,,,m,,,,,,,,,,,,,,,,52,0,363.3512,364.2093,m,1,0.8535,,[],[],[],[],[],[],[],364.2094,366.2092,366.2093,366.2095,[],[],[],[],[],[],[],,366.2096,366.2096,-0.054265873,-0.443663194,0,0,0,,0,51,51,148,1,2,word,SALINE,cursive,saline_c.png,,,,,,
,,,,31827,001,2025-12-02_10h43.15.434,HW_LDT_1,2024.2.4,MacIntel,120.4819277,,,,,,,,,,,,,,,,,,,,,366.2107,366.4092,366.4093,366.9092,,,,,,,,,,,,,,1.354,1,,,,,,,,,,,,,,m,,,,,,,,,,,,,,,,53,0,366.9095,368.2665,m,1,1.354,,[],[],[],[],[],[],[],368.2666,370.2675,370.2675,370.2676,[],[],[],[],[],[],[],,370.2677,370.2678,-0.054265873,-0.443663194,0,0,0,,0,52,52,150,1,2,word,SENTIMENT,cursive,sentiment_c.png,,,,,,
,,,,31827,001,2025-12-02_10h43.15.434,HW_LDT_1,2024.2.4,MacIntel,120.4819277,,,,,,,,,,,,,,,,,,,,,370.2686,370.4676,370.4676,370.9675,,,,,,,,,,,,,,1.0121,1,,,,,,,,,,,,,,z,,,,,,,,,,,,,,,,54,0,370.968,371.9843,z,1,1.0121,,[],[],[],[],[],[],[],371.9843,373.9839,373.9839,373.9842,[],[],[],[],[],[],[],,373.9842,373.9843,-0.054265873,-0.443663194,0,0,0,,0,53,53,70,1,2,TL,retalive,print,retalive_p.png,,,,,,
,,,,31827,001,2025-12-02_10h43.15.434,HW_LDT_1,2024.2.4,MacIntel,120.4819277,,,,,,,,,,,,,,,,,,,,,373.9852,374.1841,374.1841,374.6842,,,,,,,,,,,,,,0.9203,1,,,,,,,,,,,,,,z,,,,,,,,,,,,,,,,55,0,374.6846,375.6091,z,1,0.9203,,[],[],[],[],[],[],[],375.6092,377.6091,377.6091,377.6093,[],[],[],[],[],[],[],,377.6093,377.6094,-0.054265873,-0.443663194,0,0,0,,0,54,54,34,1,2,RL,trilude,cursive,trilude_c.png,,,,,,
,,,,31827,001,2025-12-02_10h43.15.434,HW_LDT_1,2024.2.4,MacIntel,120.4819277,,,,,,,,,,,,,,,,,,,,,377.6103,377.8087,377.8087,378.309,,,,,,,,,,,,,,0.7037,1,,,,,,,,,,,,,,m,,,,,,,,,,,,,,,,56,0,378.3094,379.017,m,1,0.7037,,[],[],[],[],[],[],[],379.017,381.0175,381.0175,381.0177,[],[],[],[],[],[],[],,381.0177,381.0177,-0.054265873,-0.443663194,0,0,0,,0,55,55,99,1,2,word,DEBATE,print,debate_p.png,,,,,,
,,,,31827,001,2025-12-02_10h43.15.434,HW_LDT_1,2024.2.4,MacIntel,120.4819277,,,,,,,,,,,,,,,,,,,,,381.0187,381.2174,381.2175,381.7175,,,,,,,,,,,,,,0.9618,1,,,,,,,,,,,,,,m,,,,,,,,,,,,,,,,57,0,381.7179,382.6839,m,1,0.9618,,[],[],[],[],[],[],[],382.684,384.6843,384.6843,384.6844,[],[],[],[],[],[],[],,384.6844,384.6845,-0.054265873,-0.443663194,0,0,0,,0,56,56,91,1,2,word,CARDINAL,cursive,cardinal_c.png,,,,,,
,,,,31827,001,2025-12-02_10h43.15.434,HW_LDT_1,2024.2.4,MacIntel,120.4819277,,,,,,,,,,,,,,,,,,,,,384.6854,384.8838,384.8838,385.3843,,,,,,,,,,,,,,1.4038,1,,,,,,,,,,,,,,z,,,,,,,,,,,,,,,,58,0,385.3848,386.7925,z,1,1.4038,,[],[],[],[],[],[],[],386.7926,388.7924,388.7925,388.7926,[],[],[],[],[],[],[],,388.7926,388.7926,-0.054265873,-0.443663194,0,0,0,,0,57,57,22,1,2,RL,posity,print,posity_p.png,,,,,,
,,,,31827,001,2025-12-02_10h43.15.434,HW_LDT_1,2024.2.4,MacIntel,120.4819277,,,,,,,,,,,,,,,,,,,,,388.7935,388.9924,388.9924,389.4925,,,,,,,,,,,,,,0.9124,1,,,,,,,,,,,,,,m,,,,,,,,,,,,,,,,59,0,389.4929,390.4092,m,1,0.9124,,[],[],[],[],[],[],[],390.4092,392.4091,392.4091,392.4093,[],[],[],[],[],[],[],,392.4093,392.4094,-0.054265873,-0.443663194,0,0,0,,0,58,58,159,1,2,word,VETERAN,print,veteran_p.png,,,,,,
,,,,31827,001,2025-12-02_10h43.15.434,HW_LDT_1,2024.2.4,MacIntel,120.4819277,,,,,,,,,,,,,,,,,,,,,392.4101,392.609,392.609,393.1091,,,,,,,,,,,,,,1.171,1,,,,,,,,,,,,,,m,,,,,,,,,,,,,,,,60,0,393.1095,394.2842,m,1,1.171,,[],[],[],[],[],[],[],394.2843,396.2841,396.2842,396.2843,[],[],[],[],[],[],[],,396.2844,396.2845,-0.054265873,-0.443663194,0,0,0,,0,59,59,100,1,2,word,DECADE,print,decade_p.png,,,,,,
,,,,31827,001,2025-12-02_10h43.15.434,HW_LDT_1,2024.2.4,MacIntel,120.4819277,,,,,,,,,,,,,,,,,,,,,396.2854,396.4841,396.4841,396.9841,,,,,,,,,,,,,,0.904,1,,,,,,,,,,,,,,m,,,,,,,,,,,,,,,,61,0,396.9845,397.8918,m,1,0.904,,[],[],[],[],[],[],[],397.8918,399.8924,399.8924,399.8926,[],[],[],[],[],[],[],,399.8926,399.8927,-0.054265873,-0.443663194,0,0,0,,0,60,60,152,1,2,word,SPECIMEN,print,specimen_p.png,,,,,,
,,,,31827,001,2025-12-02_10h43.15.434,HW_LDT_1,2024.2.4,MacIntel,120.4819277,,,,,,,,,,,,,,,,,,,,,399.8936,400.0922,400.0923,400.5924,,,,,,,,,,,,,,2.6132,1,,,,,,,,,,,,,,m,,,,,,,,,,,,,,,,62,0,400.5927,403.2091,m,1,2.6132,,[],[],[],[],[],[],[],403.2092,405.2092,405.2092,405.2094,[],[],[],[],[],[],[],,405.2094,405.2096,-0.054265873,-0.443663194,0,0,0,,0,61,61,116,1,2,word,MARGINAL,cursive,marginal_c.png,,,,,,
,,,,31827,001,2025-12-02_10h43.15.434,HW_LDT_1,2024.2.4,MacIntel,120.4819277,,,,,,,,,,,,,,,,,,,,,405.2107,405.4091,405.4091,405.9093,,,,,,,,,,,,,,3.1322,1,,,,,,,,,,,,,,z,,,,,,,,,,,,,,,,63,0,405.9097,409.0424,z,1,3.1322,,[],[],[],[],[],[],[],409.0425,411.0423,411.0424,411.0425,[],[],[],[],[],[],[],,411.0425,411.0426,-0.054265873,-0.443663194,0,0,0,,0,62,62,14,1,2,RL,insibate,cursive,insibate_c.png,,,,,,
,,,,31827,001,2025-12-02_10h43.15.434,HW_LDT_1,2024.2.4,MacIntel,120.4819277,,,,,,,,,,,,,,,,,,,,,411.0433,411.2423,411.2424,411.7423,,,,,,,,,,,,,,1.2618,1,,,,,,,,,,,,,,z,,,,,,,,,,,,,,,,64,0,411.7428,413.0087,z,1,1.2618,,[],[],[],[],[],[],[],413.0087,415.0091,415.0092,415.0093,[],[],[],[],[],[],[],,415.0093,415.0094,-0.054265873,-0.443663194,0,0,0,,0,63,63,58,1,2,TL,mitilary,cursive,mitilary_c.png,,,,,,
,,,,31827,001,2025-12-02_10h43.15.434,HW_LDT_1,2024.2.4,MacIntel,120.4819277,,,,,,,,,,,,,,,,,,,,,415.0103,415.2088,415.2089,415.708,,,,,,,,,,,,,,4.7466,1,,,,,,,,,,,,,,m,,,,,,,,,,,,,,,,65,0,415.7084,420.459,m,1,4.7466,,[],[],[],[],[],[],[],420.4591,422.4581,422.4583,422.4584,[],[],[],[],[],[],[],,422.4584,422.4585,-0.054265873,-0.443663194,0,0,0,,0,64,64,121,1,2,word,MISTAKE,cursive,mistake_c.png,,,,,,
,,,,31827,001,2025-12-02_10h43.15.434,HW_LDT_1,2024.2.4,MacIntel,120.4819277,,,,,,,,,,,,,,,,,,,,,422.4594,422.6589,422.659,423.159,,,,,,,,,,,,,,1.7869,1,,,,,,,,,,,,,,z,,,,,,,,,,,,,,,,66,0,423.1595,424.9507,z,1,1.7869,,[],[],[],[],[],[],[],424.9509,426.9506,426.9507,426.9509,[],[],[],[],[],[],[],,426.9509,426.951,-0.054265873,-0.443663194,0,0,0,,0,65,65,32,1,2,RL,speniven,print,speniven_p.png,,,,,,
,,,,31827,001,2025-12-02_10h43.15.434,HW_LDT_1,2024.2.4,MacIntel,120.4819277,,,,,,,,,,,,,,,,,,,,,426.952,427.1506,427.1506,427.6507,,,,,,,,,,,,,,0.6958,1,,,,,,,,,,,,,,z,,,,,,,,,,,,,,,,67,0,427.651,428.3507,z,1,0.6958,,[],[],[],[],[],[],[],428.3508,430.3505,430.3506,430.3508,[],[],[],[],[],[],[],,430.3508,430.3509,-0.054265873,-0.443663194,0,0,0,,0,66,66,36,1,2,RL,vecelan,print,vecelan_p.png,,,,,,
,,,,31827,001,2025-12-02_10h43.15.434,HW_LDT_1,2024.2.4,MacIntel,120.4819277,,,,,,,,,,,,,,,,,,,,,430.3519,430.5507,430.5507,431.0506,,,,,,,,,,,,,,0.9042,1,,,,,,,,,,,,,,z,,,,,,,,,,,,,,,,68,0,431.0511,431.9589,z,1,0.9042,,[],[],[],[],[],[],[],431.9589,433.9589,433.959,433.9591,[],[],[],[],[],[],[],,433.9592,433.9592,-0.054265873,-0.443663194,0,0,0,,0,67,67,72,1,2,TL,revomal,print,revomal_p.png,,,,,,
,,,,31827,001,2025-12-02_10h43.15.434,HW_LDT_1,2024.2.4,MacIntel,120.4819277,,,,,,,,,,,,,,,,,,,,,433.9601,434.159,434.159,434.6589,,,,,,,,,,,,,,0.7117,1,,,,,,,,,,,,,,z,,,,,,,,,,,,,,,,69,1,434.6593,435.3758,z,1,0.7117,,[],[],[],[],[],[],[],435.3758,437.3756,437.3756,439.7757,[],[],[],[],[],[],[],m,439.7758,439.7759,-0.054265873,-0.443663194,0,0,0,,0,68,68,8,1,2,RL,desifate,print,desifate_p.png,2.3958,,,,,
,,,,31827,001,2025-12-02_10h43.15.434,HW_LDT_1,2024.2.4,MacIntel,120.4819277,,,,,,,,,,,,,,,,,,,,,439.7768,439.9756,439.9756,440.4757,,,,,,,,,,,,,,1.8616,1,,,,,,,,,,,,,,z,,,,,,,,,,,,,,,,70,0,440.4763,442.3415,z,1,1.8616,,[],[],[],[],[],[],[],442.3416,444.3422,444.3422,444.3424,[],[],[],[],[],[],[],,444.3424,444.3425,-0.054265873,-0.443663194,0,0,0,,0,69,69,20,1,2,RL,onegator,cursive,onegator_c.png,,,,,,
,,,,31827,001,2025-12-02_10h43.15.434,HW_LDT_1,2024.2.4,MacIntel,120.4819277,,,,,,,,,,,,,,,,,,,,,444.3436,444.5422,444.5422,445.0423,,,,,,,,,,,,,,0.762,1,,,,,,,,,,,,,,z,,,,,,,,,,,,,,,,71,0,445.0427,445.808,z,1,0.762,,[],[],[],[],[],[],[],445.8081,447.8088,447.8089,447.809,[],[],[],[],[],[],[],,447.809,447.8091,-0.054265873,-0.443663194,0,0,0,,0,70,70,4,1,2,RL,cenesony,print,cenesony_p.png,,,,,,
,,,,31827,001,2025-12-02_10h43.15.434,HW_LDT_1,2024.2.4,MacIntel,120.4819277,,,,,,,,,,,,,,,,,,,,,447.81,448.0089,448.0089,448.5089,,,,,,,,,,,,,,0.7369,1,,,,,,,,,,,,,,m,,,,,,,,,,,,,,,,72,0,448.5092,449.2508,m,1,0.7369,,[],[],[],[],[],[],[],449.2509,451.2506,451.2506,451.2508,[],[],[],[],[],[],[],,451.2508,451.2509,-0.054265873,-0.443663194,0,0,0,,0,71,71,151,1,2,word,SPECIFIC,print,specific_p.png,,,,,,
,,,,31827,001,2025-12-02_10h43.15.434,HW_LDT_1,2024.2.4,MacIntel,120.4819277,,,,,,,,,,,,,,,,,,,,,451.2519,451.4506,451.4506,451.9506,,,,,,,,,,,,,,0.611,1,,,,,,,,,,,,,,m,,,,,,,,,,,,,,,,73,0,451.951,452.5673,m,1,0.611,,[],[],[],[],[],[],[],452.5673,454.5672,454.5673,454.5674,[],[],[],[],[],[],[],,454.5674,454.5675,-0.054265873,-0.443663194,0,0,0,,0,72,72,89,1,2,word,CAPACITY,print,capacity_p.png,,,,,,
,,,,31827,001,2025-12-02_10h43.15.434,HW_LDT_1,2024.2.4,MacIntel,120.4819277,,,,,,,,,,,,,,,,,,,,,454.5684,454.767,454.767,455.2672,,,,,,,,,,,,,,0.553,1,,,,,,,,,,,,,,m,,,,,,,,,,,,,,,,74,0,455.2676,455.8255,m,1,0.553,,[],[],[],[],[],[],[],455.8256,457.8257,457.8258,457.826,[],[],[],[],[],[],[],,457.826,457.8261,-0.054265873,-0.443663194,0,0,0,,0,73,73,96,1,2,word,CONSIDER,print,consider_p.png,,,,,,
,,,,31827,001,2025-12-02_10h43.15.434,HW_LDT_1,2024.2.4,MacIntel,120.4819277,,,,,,,,,,,,,,,,,,,,,457.8272,458.0257,458.0257,458.5256,,,,,,,,,,,,,,0.562,1,,,,,,,,,,,,,,m,,,,,,,,,,,,,,,,75,0,458.5262,459.0925,m,1,0.562,,[],[],[],[],[],[],[],459.0925,461.0922,461.0923,461.0924,[],[],[],[],[],[],[],,461.0924,461.0925,-0.054265873,-0.443663194,0,0,0,,0,74,74,92,1,2,word,CATEGORY,print,category_p.png,,,,,,
,,,,31827,001,2025-12-02_10h43.15.434,HW_LDT_1,2024.2.4,MacIntel,120.4819277,,,,,,,,,,,,,,,,,,,,,461.0934,461.2922,461.2922,461.7922,,,,,,,,,,,,,,0.6538,1,,,,,,,,,,,,,,m,,,,,,,,,,,,,,,,76,0,461.7926,462.4501,m,1,0.6538,,[],[],[],[],[],[],[],462.4502,464.4496,464.4497,464.4499,[],[],[],[],[],[],[],,464.4499,464.45,-0.054265873,-0.443663194,0,0,0,,0,75,75,136,1,2,word,RADICAL,cursive,radical_c.png,,,,,,
,,,,31827,001,2025-12-02_10h43.15.434,HW_LDT_1,2024.2.4,MacIntel,120.4819277,,,,,,,,,,,,,,,,,,,,,464.4509,464.6506,464.6507,465.1506,,,,,,,,,,,,,,0.853,1,,,,,,,,,,,,,,m,,,,,,,,,,,,,,,,77,0,465.151,466.0089,m,1,0.853,,[],[],[],[],[],[],[],466.0089,468.0088,468.0089,468.009,[],[],[],[],[],[],[],,468.009,468.0092,-0.054265873,-0.443663194,0,0,0,,0,76,76,135,1,2,word,QUALITY,cursive,quality_c.png,,,,,,
,,,,31827,001,2025-12-02_10h43.15.434,HW_LDT_1,2024.2.4,MacIntel,120.4819277,,,,,,,,,,,,,,,,,,,,,468.01,468.2088,468.2089,468.7089,,,,,,,,,,,,,,1.0034,1,,,,,,,,,,,,,,m,,,,,,,,,,,,,,,,78,0,468.7095,469.7172,m,1,1.0034,,[],[],[],[],[],[],[],469.7173,471.7171,471.7171,471.7173,[],[],[],[],[],[],[],,471.7173,471.7175,-0.054265873,-0.443663194,0,0,0,,0,77,77,82,1,2,word,AMATEUR,cursive,amateur_c.png,,,,,,
,,,,31827,001,2025-12-02_10h43.15.434,HW_LDT_1,2024.2.4,MacIntel,120.4819277,,,,,,,,,,,,,,,,,,,,,471.7183,471.9171,471.9171,472.4171,,,,,,,,,,,,,,0.612,1,,,,,,,,,,,,,,m,,,,,,,,,,,,,,,,79,1,472.4176,473.0332,m,1,0.612,,[],[],[],[],[],[],[],473.0333,475.034,475.0341,476.0748,[],[],[],[],[],[],[],m,476.0749,476.075,-0.054265873,-0.443663194,0,0,0,,0,78,78,118,1,2,word,MEDICINE,print,medicine_p.png,1.0371,,,,,
,,,,31827,001,2025-12-02_10h43.15.434,HW_LDT_1,2024.2.4,MacIntel,120.4819277,,,,,,,,,,,,,,,,,,,,,476.0758,476.2755,476.2755,476.7756,,,,,,,,,,,,,,1.2281,1,,,,,,,,,,,,,,m,,,,,,,,,,,,,,,,80,0,476.7762,478.0088,m,1,1.2281,,[],[],[],[],[],[],[],478.0088,480.0089,480.0089,480.0091,[],[],[],[],[],[],[],,480.0091,483.9341,-0.054265873,-0.443663194,0,0,0,space,0,79,79,97,1,2,word,COVERAGE,cursive,coverage_c.png,,,3.9052,,,
,,,,31827,001,2025-12-02_10h43.15.434,HW_LDT_1,2024.2.4,MacIntel,120.4819277,,,,,,,,,,,,,,,,,,,,,483.9349,484.1338,484.1338,484.6338,,,,,,,,,,,,,,2.5202,0,,,,,,,,,,,,,,z,,,,,,,,,,,,,,,,81,0,484.6343,487.1583,m,0,2.5202,,[],[],[],[],[],[],[],487.1585,489.1587,489.1588,489.1589,[],[],[],[],[],[],[],,489.159,489.159,-0.054265873,-0.443663194,0,0,0,,0,80,80,47,1,2,TL,crinimal,cursive,crinimal_c.png,,,,,,
,,,,31827,001,2025-12-02_10h43.15.434,HW_LDT_1,2024.2.4,MacIntel,120.4819277,,,,,,,,,,,,,,,,,,,,,489.1599,489.3579,489.3579,489.8579,,,,,,,,,,,,,,1.3212,0,,,,,,,,,,,,,,m,,,,,,,,,,,,,,,,82,0,489.8583,491.183,z,0,1.3212,,[],[],[],[],[],[],[],491.183,493.1838,493.1839,493.184,[],[],[],[],[],[],[],,493.184,493.1841,-0.054265873,-0.443663194,0,0,0,,0,81,81,85,1,2,word,BENEFIT,cursive,benefit_c.png,,,,,,
,,,,31827,001,2025-12-02_10h43.15.434,HW_LDT_1,2024.2.4,MacIntel,120.4819277,,,,,,,,,,,,,,,,,,,,,493.185,493.3833,493.3833,493.8838,,,,,,,,,,,,,,0.8985,1,,,,,,,,,,,,,,m,,,,,,,,,,,,,,,,83,0,493.8842,494.7835,m,1,0.8985,,[],[],[],[],[],[],[],494.7835,496.7838,496.7838,496.7839,[],[],[],[],[],[],[],,496.784,496.7841,-0.054265873,-0.443663194,0,0,0,,0,82,82,84,1,2,word,BELOVED,cursive,beloved_c.png,,,,,,
,,,,31827,001,2025-12-02_10h43.15.434,HW_LDT_1,2024.2.4,MacIntel,120.4819277,,,,,,,,,,,,,,,,,,,,,496.7849,496.9837,496.9838,497.4835,,,,,,,,,,,,,,0.7706,0,,,,,,,,,,,,,,m,,,,,,,,,,,,,,,,84,0,497.4839,498.2589,z,0,0.7706,,[],[],[],[],[],[],[],498.259,500.2578,500.2578,500.2581,[],[],[],[],[],[],[],,500.2581,500.2581,-0.054265873,-0.443663194,0,0,0,,0,83,83,103,1,2,word,DISPUTE,cursive,dispute_c.png,,,,,,
,,,,31827,001,2025-12-02_10h43.15.434,HW_LDT_1,2024.2.4,MacIntel,120.4819277,,,,,,,,,,,,,,,,,,,,,500.2589,500.4588,500.4588,500.9587,,,,,,,,,,,,,,1.8623,1,,,,,,,,,,,,,,z,,,,,,,,,,,,,,,,85,0,500.9591,502.8251,z,1,1.8623,,[],[],[],[],[],[],[],502.8253,504.8255,504.8255,504.8257,[],[],[],[],[],[],[],,504.8258,504.8259,-0.054265873,-0.443663194,0,0,0,,0,84,84,33,1,2,RL,strapely,cursive,strapely_c.png,,,,,,
,,,,31827,001,2025-12-02_10h43.15.434,HW_LDT_1,2024.2.4,MacIntel,120.4819277,,,,,,,,,,,,,,,,,,,,,504.8268,505.0254,505.0255,505.5256,,,,,,,,,,,,,,4.7119,1,,,,,,,,,,,,,,m,,,,,,,,,,,,,,,,86,0,505.526,510.2422,m,1,4.7119,,[],[],[],[],[],[],[],510.2423,512.242,512.242,512.2422,[],[],[],[],[],[],[],,512.2422,512.2423,-0.054265873,-0.443663194,0,0,0,,0,85,85,120,1,2,word,MILITARY,cursive,military_c.png,,,,,,
,,,,31827,001,2025-12-02_10h43.15.434,HW_LDT_1,2024.2.4,MacIntel,120.4819277,,,,,,,,,,,,,,,,,,,,,512.2431,512.4421,512.4422,512.942,,,,,,,,,,,,,,0.9909,1,,,,,,,,,,,,,,z,,,,,,,,,,,,,,,,87,0,512.9424,513.9338,z,1,0.9909,,[],[],[],[],[],[],[],513.9339,515.9337,515.9337,515.9339,[],[],[],[],[],[],[],,515.9339,515.934,-0.054265873,-0.443663194,0,0,0,,0,86,86,65,1,2,TL,polupar,cursive,polupar_c.png,,,,,,
,,,,31827,001,2025-12-02_10h43.15.434,HW_LDT_1,2024.2.4,MacIntel,120.4819277,,,,,,,,,,,,,,,,,,,,,515.935,516.1338,516.1338,516.6338,,,,,,,,,,,,,,1.2036,1,,,,,,,,,,,,,,z,,,,,,,,,,,,,,,,88,0,516.6341,517.842,z,1,1.2036,,[],[],[],[],[],[],[],517.842,519.8411,519.8412,519.8413,[],[],[],[],[],[],[],,519.8413,519.8414,-0.054265873,-0.443663194,0,0,0,,0,87,87,46,1,2,TL,codemy,cursive,codemy_c.png,,,,,,
,,,,31827,001,2025-12-02_10h43.15.434,HW_LDT_1,2024.2.4,MacIntel,120.4819277,,,,,,,,,,,,,,,,,,,,,519.8421,520.042,520.0421,520.5422,,,,,,,,,,,,,,4.1536,1,,,,,,,,,,,,,,z,,,,,,,,,,,,,,,,89,0,520.5426,524.6998,z,1,4.1536,,[],[],[],[],[],[],[],524.6999,526.7003,526.7003,526.7004,[],[],[],[],[],[],[],,526.7005,526.7005,-0.054265873,-0.443663194,0,0,0,,0,88,88,67,1,2,TL,quafily,cursive,quafily_c.png,,,,,,
,,,,31827,001,2025-12-02_10h43.15.434,HW_LDT_1,2024.2.4,MacIntel,120.4819277,,,,,,,,,,,,,,,,,,,,,526.7012,526.9004,526.9004,527.4004,,,,,,,,,,,,,,1.4618,1,,,,,,,,,,,,,,z,,,,,,,,,,,,,,,,90,0,527.4007,528.8662,z,1,1.4618,,[],[],[],[],[],[],[],528.8662,530.867,530.8671,530.8673,[],[],[],[],[],[],[],,530.8673,530.8673,-0.054265873,-0.443663194,0,0,0,,0,89,89,73,1,2,TL,redisent,print,redisent_p.png,,,,,,
,,,,31827,001,2025-12-02_10h43.15.434,HW_LDT_1,2024.2.4,MacIntel,120.4819277,,,,,,,,,,,,,,,,,,,,,530.8682,531.0662,531.0662,531.5671,,,,,,,,,,,,,,0.9953,1,,,,,,,,,,,,,,z,,,,,,,,,,,,,,,,91,0,531.5676,532.567,z,1,0.9953,,[],[],[],[],[],[],[],532.5671,534.5667,534.5667,534.5668,[],[],[],[],[],[],[],,534.567,534.5671,-0.054265873,-0.443663194,0,0,0,,0,90,90,31,1,2,RL,spetisic,print,spetisic_p.png,,,,,,
,,,,31827,001,2025-12-02_10h43.15.434,HW_LDT_1,2024.2.4,MacIntel,120.4819277,,,,,,,,,,,,,,,,,,,,,534.5679,534.767,534.767,535.2671,,,,,,,,,,,,,,0.7366,1,,,,,,,,,,,,,,m,,,,,,,,,,,,,,,,92,0,535.2676,536.0088,m,1,0.7366,,[],[],[],[],[],[],[],536.0088,538.0085,538.0085,538.0087,[],[],[],[],[],[],[],,538.0087,538.0088,-0.054265873,-0.443663194,0,0,0,,0,91,91,154,1,2,word,STORAGE,print,storage_p.png,,,,,,
,,,,31827,001,2025-12-02_10h43.15.434,HW_LDT_1,2024.2.4,MacIntel,120.4819277,,,,,,,,,,,,,,,,,,,,,538.0096,538.2087,538.2087,538.7083,,,,,,,,,,,,,,0.8703,1,,,,,,,,,,,,,,z,,,,,,,,,,,,,,,,93,1,538.7088,539.5837,z,1,0.8703,,[],[],[],[],[],[],[],539.5837,541.5836,541.5837,543.192,[],[],[],[],[],[],[],z,543.192,543.1922,-0.054265873,-0.443663194,0,0,0,,0,92,92,19,1,2,RL,monebate,cursive,monebate_c.png,1.604,,,,,
,,,,31827,001,2025-12-02_10h43.15.434,HW_LDT_1,2024.2.4,MacIntel,120.4819277,,,,,,,,,,,,,,,,,,,,,543.1929,543.3916,543.3917,543.8918,,,,,,,,,,,,,,0.7621,1,,,,,,,,,,,,,,z,,,,,,,,,,,,,,,,94,1,543.8923,544.6588,z,1,0.7621,,[],[],[],[],[],[],[],544.6589,546.658,546.658,547.8254,[],[],[],[],[],[],[],m,547.8254,547.8256,-0.054265873,-0.443663194,0,0,0,,0,93,93,11,1,2,RL,formuke,print,formuke_p.png,1.1633,,,,,
,,,,31827,001,2025-12-02_10h43.15.434,HW_LDT_1,2024.2.4,MacIntel,120.4819277,,,,,,,,,,,,,,,,,,,,,547.8263,548.0244,548.0245,548.5254,,,,,,,,,,,,,,1.3954,1,,,,,,,,,,,,,,z,,,,,,,,,,,,,,,,95,0,548.5258,549.9253,z,1,1.3954,,[],[],[],[],[],[],[],549.9253,551.9253,551.9253,551.9255,[],[],[],[],[],[],[],,551.9255,551.9255,-0.054265873,-0.443663194,0,0,0,,0,94,94,37,1,2,TL,adacemy,cursive,adacemy_c.png,,,,,,
,,,,31827,001,2025-12-02_10h43.15.434,HW_LDT_1,2024.2.4,MacIntel,120.4819277,,,,,,,,,,,,,,,,,,,,,551.9264,552.1251,552.1252,552.6253,,,,,,,,,,,,,,0.6704,1,,,,,,,,,,,,,,m,,,,,,,,,,,,,,,,96,0,552.6257,553.2998,m,1,0.6704,,[],[],[],[],[],[],[],553.2998,555.2995,555.2995,555.2997,[],[],[],[],[],[],[],,555.2998,555.2999,-0.054265873,-0.443663194,0,0,0,,0,95,95,112,1,2,word,LIBERAL,print,liberal_p.png,,,,,,
,,,,31827,001,2025-12-02_10h43.15.434,HW_LDT_1,2024.2.4,MacIntel,120.4819277,,,,,,,,,,,,,,,,,,,,,555.3007,555.4993,555.4994,556.0003,,,,,,,,,,,,,,0.6197,1,,,,,,,,,,,,,,m,,,,,,,,,,,,,,,,97,0,556.0008,556.6246,m,1,0.6197,,[],[],[],[],[],[],[],556.6246,558.6254,558.6254,558.6256,[],[],[],[],[],[],[],,558.6256,558.6257,-0.054265873,-0.443663194,0,0,0,,0,96,96,108,1,2,word,FORTUNE,print,fortune_p.png,,,,,,
,,,,31827,001,2025-12-02_10h43.15.434,HW_LDT_1,2024.2.4,MacIntel,120.4819277,,,,,,,,,,,,,,,,,,,,,558.6265,558.8252,558.8253,559.3253,,,,,,,,,,,,,,0.6788,1,,,,,,,,,,,,,,z,,,,,,,,,,,,,,,,98,0,559.3257,560.0086,z,1,0.6788,,[],[],[],[],[],[],[],560.0088,562.0085,562.0086,562.0087,[],[],[],[],[],[],[],,562.0087,562.0088,-0.054265873,-0.443663194,0,0,0,,0,97,97,77,1,2,TL,sloten,print,sloten_p.png,,,,,,
,,,,31827,001,2025-12-02_10h43.15.434,HW_LDT_1,2024.2.4,MacIntel,120.4819277,,,,,,,,,,,,,,,,,,,,,562.0096,562.2086,562.2086,562.7086,,,,,,,,,,,,,,1.6869,1,,,,,,,,,,,,,,m,,,,,,,,,,,,,,,,99,0,562.709,564.4003,m,1,1.6869,,[],[],[],[],[],[],[],564.4003,566.4002,566.4002,566.4004,[],[],[],[],[],[],[],,566.4005,566.4005,-0.054265873,-0.443663194,0,0,0,,0,98,98,134,1,2,word,QUALIFY,cursive,qualify_c.png,,,,,,
,,,,31827,001,2025-12-02_10h43.15.434,HW_LDT_1,2024.2.4,MacIntel,120.4819277,,,,,,,,,,,,,,,,,,,,,566.4014,566.6004,566.6004,567.1002,,,,,,,,,,,,,,0.9095,1,,,,,,,,,,,,,,z,,,,,,,,,,,,,,,,100,0,567.1007,568.0159,z,1,0.9095,,[],[],[],[],[],[],[],568.0159,570.0168,570.0169,570.0171,[],[],[],[],[],[],[],,570.0171,570.0173,-0.054265873,-0.443663194,0,0,0,,0,99,99,75,1,2,TL,ronamtic,print,ronamtic_p.png,,,,,,
,,,,31827,001,2025-12-02_10h43.15.434,HW_LDT_1,2024.2.4,MacIntel,120.4819277,,,,,,,,,,,,,,,,,,,,,570.0182,570.2169,570.2169,570.7159,,,,,,,,,,,,,,1.0537,1,,,,,,,,,,,,,,m,,,,,,,,,,,,,,,,101,0,570.7163,571.7746,m,1,1.0537,,[],[],[],[],[],[],[],571.7747,573.7752,573.7752,573.7754,[],[],[],[],[],[],[],,573.7754,573.7756,-0.054265873,-0.443663194,0,0,0,,0,100,100,101,1,2,word,DELICATE,print,delicate_p.png,,,,,,
,,,,31827,001,2025-12-02_10h43.15.434,HW_LDT_1,2024.2.4,MacIntel,120.4819277,,,,,,,,,,,,,,,,,,,,,573.7764,573.9746,573.9746,574.4752,,,,,,,,,,,,,,0.99,1,,,,,,,,,,,,,,z,,,,,,,,,,,,,,,,102,0,574.4757,575.4669,z,1,0.99,,[],[],[],[],[],[],[],575.4669,577.4669,577.4669,577.4672,[],[],[],[],[],[],[],,577.4672,577.4673,-0.054265873,-0.443663194,0,0,0,,0,101,101,7,1,2,RL,cocewage,cursive,cocewage_c.png,,,,,,
,,,,31827,001,2025-12-02_10h43.15.434,HW_LDT_1,2024.2.4,MacIntel,120.4819277,,,,,,,,,,,,,,,,,,,,,577.4681,577.667,577.667,578.1669,,,,,,,,,,,,,,0.6118,1,,,,,,,,,,,,,,z,,,,,,,,,,,,,,,,103,0,578.1673,578.783,z,1,0.6118,,[],[],[],[],[],[],[],578.7831,580.7835,580.7836,580.7837,[],[],[],[],[],[],[],,580.7838,580.7838,-0.054265873,-0.443663194,0,0,0,,0,102,102,35,1,2,RL,vesofity,print,vesofity_p.png,,,,,,
,,,,31827,001,2025-12-02_10h43.15.434,HW_LDT_1,2024.2.4,MacIntel,120.4819277,,,,,,,,,,,,,,,,,,,,,580.7847,580.9837,580.9837,581.4826,,,,,,,,,,,,,,0.6464,0,,,,,,,,,,,,,,m,,,,,,,,,,,,,,,,104,0,581.483,582.1336,z,0,0.6464,,[],[],[],[],[],[],[],582.1336,584.1335,584.1335,584.1337,[],[],[],[],[],[],[],,584.1338,584.1338,-0.054265873,-0.443663194,0,0,0,,0,103,103,105,1,2,word,EDITOR,cursive,editor_c.png,,,,,,
,,,,31827,001,2025-12-02_10h43.15.434,HW_LDT_1,2024.2.4,MacIntel,120.4819277,,,,,,,,,,,,,,,,,,,,,584.1347,584.3326,584.3326,584.8336,,,,,,,,,,,,,,0.9787,0,,,,,,,,,,,,,,m,,,,,,,,,,,,,,,,105,0,584.8341,585.8169,z,0,0.9787,,[],[],[],[],[],[],[],585.817,587.8168,587.8169,587.817,[],[],[],[],[],[],[],,587.8171,587.8171,-0.054265873,-0.443663194,0,0,0,,0,104,104,107,1,2,word,EVIDENT,cursive,evident_c.png,,,,,,
,,,,31827,001,2025-12-02_10h43.15.434,HW_LDT_1,2024.2.4,MacIntel,120.4819277,,,,,,,,,,,,,,,,,,,,,587.818,588.017,588.017,588.5168,,,,,,,,,,,,,,1.2491,1,,,,,,,,,,,,,,m,,,,,,,,,,,,,,,,106,0,588.5173,589.767,m,1,1.2491,,[],[],[],[],[],[],[],589.7671,591.7669,591.7669,591.7671,[],[],[],[],[],[],[],,591.7672,591.7672,-0.054265873,-0.443663194,0,0,0,,0,105,105,139,1,2,word,REGULAR,cursive,regular_c.png,,,,,,
,,,,31827,001,2025-12-02_10h43.15.434,HW_LDT_1,2024.2.4,MacIntel,120.4819277,,,,,,,,,,,,,,,,,,,,,591.768,591.9664,591.9665,592.466,,,,,,,,,,,,,,1.6124,0,,,,,,,,,,,,,,m,,,,,,,,,,,,,,,,107,0,592.4664,594.0836,z,0,1.6124,,[],[],[],[],[],[],[],594.0837,596.0837,596.0837,596.0839,[],[],[],[],[],[],[],,596.0839,596.084,-0.054265873,-0.443663194,0,0,0,,0,106,106,90,1,2,word,CAPITAL,cursive,capital_c.png,,,,,,
,,,,31827,001,2025-12-02_10h43.15.434,HW_LDT_1,2024.2.4,MacIntel,120.4819277,,,,,,,,,,,,,,,,,,,,,596.0848,596.2835,596.2835,596.7834,,,,,,,,,,,,,,0.7205,1,,,,,,,,,,,,,,z,,,,,,,,,,,,,,,,108,0,596.7839,597.5082,z,1,0.7205,,[],[],[],[],[],[],[],597.5083,599.5086,599.5086,599.5088,[],[],[],[],[],[],[],,599.5088,599.5088,-0.054265873,-0.443663194,0,0,0,,0,107,107,53,1,2,TL,edivent,cursive,edivent_c.png,,,,,,
,,,,31827,001,2025-12-02_10h43.15.434,HW_LDT_1,2024.2.4,MacIntel,120.4819277,,,,,,,,,,,,,,,,,,,,,599.5097,599.7084,599.7084,600.2085,,,,,,,,,,,,,,0.8036,1,,,,,,,,,,,,,,m,,,,,,,,,,,,,,,,109,0,600.2088,601.016,m,1,0.8036,,[],[],[],[],[],[],[],601.0161,603.0165,603.0165,603.0167,[],[],[],[],[],[],[],,603.0167,603.0168,-0.054265873,-0.443663194,0,0,0,,0,108,108,81,1,2,word,ADVISORY,print,advisory_p.png,,,,,,
,,,,31827,001,2025-12-02_10h43.15.434,HW_LDT_1,2024.2.4,MacIntel,120.4819277,,,,,,,,,,,,,,,,,,,,,603.0176,603.2169,603.2169,603.7168,,,,,,,,,,,,,,0.6985,1,,,,,,,,,,,,,,z,,,,,,,,,,,,,,,,110,0,603.7172,604.4167,z,1,0.6985,,[],[],[],[],[],[],[],604.4168,606.4168,606.4168,606.417,[],[],[],[],[],[],[],,606.4171,606.4171,-0.054265873,-0.443663194,0,0,0,,0,109,109,10,1,2,RL,disluge,cursive,disluge_c.png,,,,,,
,,,,31827,001,2025-12-02_10h43.15.434,HW_LDT_1,2024.2.4,MacIntel,120.4819277,,,,,,,,,,,,,,,,,,,,,606.418,606.6168,606.6169,607.1168,,,,,,,,,,,,,,0.7372,1,,,,,,,,,,,,,,z,,,,,,,,,,,,,,,,111,0,607.1172,607.8586,z,1,0.7372,,[],[],[],[],[],[],[],607.8587,609.8585,609.8585,609.8586,[],[],[],[],[],[],[],,609.8587,609.8587,-0.054265873,-0.443663194,0,0,0,,0,110,110,49,1,2,TL,dedace,print,dedace_p.png,,,,,,
,,,,31827,001,2025-12-02_10h43.15.434,HW_LDT_1,2024.2.4,MacIntel,120.4819277,,,,,,,,,,,,,,,,,,,,,609.8594,610.0585,610.0585,610.5585,,,,,,,,,,,,,,0.6234,1,,,,,,,,,,,,,,z,,,,,,,,,,,,,,,,112,0,610.559,611.183,z,1,0.6234,,[],[],[],[],[],[],[],611.183,613.1835,613.1835,613.1836,[],[],[],[],[],[],[],,613.1837,613.1838,-0.054265873,-0.443663194,0,0,0,,0,111,111,0,1,2,RL,adnicory,print,adnicory_p.png,,,,,,
,,,,31827,001,2025-12-02_10h43.15.434,HW_LDT_1,2024.2.4,MacIntel,120.4819277,,,,,,,,,,,,,,,,,,,,,613.1847,613.3825,613.3826,613.8835,,,,,,,,,,,,,,3.8955,1,,,,,,,,,,,,,,m,,,,,,,,,,,,,,,,113,0,613.8838,617.7835,m,1,3.8955,,[],[],[],[],[],[],[],617.7836,619.7836,619.7837,619.7838,[],[],[],[],[],[],[],,619.7839,619.784,-0.054265873,-0.443663194,0,0,0,,0,112,112,111,1,2,word,INDICATE,cursive,indicate_c.png,,,,,,
,,,,31827,001,2025-12-02_10h43.15.434,HW_LDT_1,2024.2.4,MacIntel,120.4819277,,,,,,,,,,,,,,,,,,,,,619.7846,619.9834,619.9835,620.4834,,,,,,,,,,,,,,1.8202,1,,,,,,,,,,,,,,z,,,,,,,,,,,,,,,,114,0,620.4838,622.3084,z,1,1.8202,,[],[],[],[],[],[],[],622.3085,624.3084,624.3084,624.3086,[],[],[],[],[],[],[],,624.3086,624.3086,-0.054265873,-0.443663194,0,0,0,,0,113,113,52,1,2,TL,elarobate,cursive,elarobate_c.png,,,,,,
,,,,31827,001,2025-12-02_10h43.15.434,HW_LDT_1,2024.2.4,MacIntel,120.4819277,,,,,,,,,,,,,,,,,,,,,624.3094,624.5084,624.5084,625.0085,,,,,,,,,,,,,,1.162,1,,,,,,,,,,,,,,z,,,,,,,,,,,,,,,,115,1,625.0089,626.1751,z,1,1.162,,[],[],[],[],[],[],[],626.1752,628.175,628.1751,629.9835,[],[],[],[],[],[],[],z,629.9835,629.9837,-0.054265873,-0.443663194,0,0,0,,0,114,114,17,1,2,RL,macise,cursive,macise_c.png,1.8041,,,,,
,,,,31827,001,2025-12-02_10h43.15.434,HW_LDT_1,2024.2.4,MacIntel,120.4819277,,,,,,,,,,,,,,,,,,,,,629.985,630.1833,630.1833,630.6833,,,,,,,,,,,,,,8.2037,1,,,,,,,,,,,,,,z,,,,,,,,,,,,,,,,116,0,630.6838,638.8914,z,1,8.2037,,[],[],[],[],[],[],[],638.8914,640.8908,640.8909,640.891,[],[],[],[],[],[],[],,640.891,640.8911,-0.054265873,-0.443663194,0,0,0,,0,115,115,68,1,2,TL,quatily,cursive,quatily_c.png,,,,,,
,,,,31827,001,2025-12-02_10h43.15.434,HW_LDT_1,2024.2.4,MacIntel,120.4819277,,,,,,,,,,,,,,,,,,,,,640.8921,641.0917,641.0918,641.5917,,,,,,,,,,,,,,0.7025,1,,,,,,,,,,,,,,m,,,,,,,,,,,,,,,,117,0,641.5922,642.3001,m,1,0.7025,,[],[],[],[],[],[],[],642.3002,644.3,644.3001,644.3002,[],[],[],[],[],[],[],,644.3002,644.3004,-0.054265873,-0.443663194,0,0,0,,0,116,116,140,1,2,word,RELATIVE,print,relative_p.png,,,,,,
,,,,31827,001,2025-12-02_10h43.15.434,HW_LDT_1,2024.2.4,MacIntel,120.4819277,,,,,,,,,,,,,,,,,,,,,644.3013,644.5,644.5001,645.0001,,,,,,,,,,,,,,1.6118,1,,,,,,,,,,,,,,z,,,,,,,,,,,,,,,,118,0,645.0005,646.6168,z,1,1.6118,,[],[],[],[],[],[],[],646.6168,648.6167,648.6167,648.6168,[],[],[],[],[],[],[],,648.6169,648.617,-0.054265873,-0.443663194,0,0,0,,0,117,117,29,1,2,RL,samite,cursive,samite_c.png,,,,,,
,,,,31827,001,2025-12-02_10h43.15.434,HW_LDT_1,2024.2.4,MacIntel,120.4819277,,,,,,,,,,,,,,,,,,,,,648.6178,648.8158,648.8158,649.3166,,,,,,,,,,,,,,0.7096,1,,,,,,,,,,,,,,m,,,,,,,,,,,,,,,,119,1,649.3171,650.0334,m,1,0.7096,,[],[],[],[],[],[],[],650.0335,652.033,652.0332,653.0916,[],[],[],[],[],[],[],m,653.0917,653.0917,-0.054265873,-0.443663194,0,0,0,,0,118,118,143,1,2,word,REMOVAL,print,removal_p.png,1.0581,,,,,
,,,,31827,001,2025-12-02_10h43.15.434,HW_LDT_1,2024.2.4,MacIntel,120.4819277,,,,,,,,,,,,,,,,,,,,,653.0925,653.2916,653.2917,653.7911,,,,,,,,,,,,,,0.7541,1,,,,,,,,,,,,,,z,,,,,,,,,,,,,,,,120,1,653.7915,654.5501,z,1,0.7541,,[],[],[],[],[],[],[],654.5501,656.5501,656.5501,657.3579,[],[],[],[],[],[],[],z,657.3579,657.358,-0.054265873,-0.443663194,0,0,0,,0,119,119,71,1,2,TL,retome,cursive,retome_c.png,0.8041,,,,,
,,,,31827,001,2025-12-02_10h43.15.434,HW_LDT_1,2024.2.4,MacIntel,120.4819277,,,,,,,,,,,,,,,,,,,,,657.3589,657.5574,657.5575,658.0583,,,,,,,,,,,,,,1.1531,1,,,,,,,,,,,,,,z,,,,,,,,,,,,,,,,121,1,658.0587,659.2167,z,1,1.1531,,[],[],[],[],[],[],[],659.2167,661.2164,661.2164,661.8584,[],[],[],[],[],[],[],m,661.8584,661.8585,-0.054265873,-0.443663194,0,0,0,,0,120,120,30,1,2,RL,selamor,print,selamor_p.png,0.6379,,,,,
,,,,31827,001,2025-12-02_10h43.15.434,HW_LDT_1,2024.2.4,MacIntel,120.4819277,,,,,,,,,,,,,,,,,,,,,661.8592,662.0583,662.0583,662.5584,,,,,,,,,,,,,,1.2703,1,,,,,,,,,,,,,,m,,,,,,,,,,,,,,,,122,0,662.5587,663.8327,m,1,1.2703,,[],[],[],[],[],[],[],663.8328,665.8333,665.8333,665.8335,[],[],[],[],[],[],[],,665.8335,665.8336,-0.054265873,-0.443663194,0,0,0,,0,121,121,131,1,2,word,POPULAR,cursive,popular_c.png,,,,,,
,,,,31827,001,2025-12-02_10h43.15.434,HW_LDT_1,2024.2.4,MacIntel,120.4819277,,,,,,,,,,,,,,,,,,,,,665.8344,666.0332,666.0333,666.5332,,,,,,,,,,,,,,0.8275,1,,,,,,,,,,,,,,m,,,,,,,,,,,,,,,,123,0,666.5336,667.3667,m,1,0.8275,,[],[],[],[],[],[],[],667.3667,669.3665,669.3665,669.3667,[],[],[],[],[],[],[],,669.3667,669.3668,-0.054265873,-0.443663194,0,0,0,,0,122,122,156,1,2,word,TRIBUTE,cursive,tribute_c.png,,,,,,
,,,,31827,001,2025-12-02_10h43.15.434,HW_LDT_1,2024.2.4,MacIntel,120.4819277,,,,,,,,,,,,,,,,,,,,,669.3675,669.5667,669.5667,670.0666,,,,,,,,,,,,,,0.5982,1,,,,,,,,,,,,,,m,,,,,,,,,,,,,,,,124,0,670.067,670.6666,m,1,0.5982,,[],[],[],[],[],[],[],670.6666,672.6664,672.6664,672.6665,[],[],[],[],[],[],[],,672.6665,672.6666,-0.054265873,-0.443663194,0,0,0,,0,123,123,83,1,2,word,ANIMAL,print,animal_p.png,,,,,,
,,,,31827,001,2025-12-02_10h43.15.434,HW_LDT_1,2024.2.4,MacIntel,120.4819277,,,,,,,,,,,,,,,,,,,,,672.6674,672.8667,672.8668,673.3666,,,,,,,,,,,,,,0.8119,0,,,,,,,,,,,,,,m,,,,,,,,,,,,,,,,125,1,673.367,674.1833,z,0,0.8119,,[],[],[],[],[],[],[],674.1834,676.1832,676.1832,677.3251,[],[],[],[],[],[],[],z,677.3251,677.3253,-0.054265873,-0.443663194,0,0,0,,0,124,124,125,1,2,word,OPERATOR,cursive,operator_c.png,1.1378,,,,,
,,,,31827,001,2025-12-02_10h43.15.434,HW_LDT_1,2024.2.4,MacIntel,120.4819277,,,,,,,,,,,,,,,,,,,,,677.3263,677.5247,677.5248,678.0249,,,,,,,,,,,,,,0.6611,0,,,,,,,,,,,,,,z,,,,,,,,,,,,,,,,126,0,678.0252,678.691,m,0,0.6611,,[],[],[],[],[],[],[],678.691,680.6916,680.6916,680.6917,[],[],[],[],[],[],[],,680.6918,680.6918,-0.054265873,-0.443663194,0,0,0,,0,125,125,64,1,2,TL,paficic,print,paficic_p.png,,,,,,
,,,,31827,001,2025-12-02_10h43.15.434,HW_LDT_1,2024.2.4,MacIntel,120.4819277,,,,,,,,,,,,,,,,,,,,,680.6927,680.8907,680.8907,681.3916,,,,,,,,,,,,,,0.9863,1,,,,,,,,,,,,,,z,,,,,,,,,,,,,,,,127,0,681.3919,682.3833,z,1,0.9863,,[],[],[],[],[],[],[],682.3834,684.3832,684.3832,684.3834,[],[],[],[],[],[],[],,684.3835,684.3835,-0.054265873,-0.443663194,0,0,0,,0,126,126,42,1,2,TL,bedise,cursive,bedise_c.png,,,,,,
,,,,31827,001,2025-12-02_10h43.15.434,HW_LDT_1,2024.2.4,MacIntel,120.4819277,,,,,,,,,,,,,,,,,,,,,684.3844,684.5832,684.5833,685.0832,,,,,,,,,,,,,,1.287,1,,,,,,,,,,,,,,z,,,,,,,,,,,,,,,,128,0,685.0836,686.3741,z,1,1.287,,[],[],[],[],[],[],[],686.3742,688.3749,688.3749,688.3751,[],[],[],[],[],[],[],,688.3751,688.3752,-0.054265873,-0.443663194,0,0,0,,0,127,127,44,1,2,TL,catipal,cursive,catipal_c.png,,,,,,
,,,,31827,001,2025-12-02_10h43.15.434,HW_LDT_1,2024.2.4,MacIntel,120.4819277,,,,,,,,,,,,,,,,,,,,,688.376,688.5749,688.5749,689.0744,,,,,,,,,,,,,,0.6864,1,,,,,,,,,,,,,,z,,,,,,,,,,,,,,,,129,0,689.0747,689.7667,z,1,0.6864,,[],[],[],[],[],[],[],689.7668,691.7666,691.7666,691.7667,[],[],[],[],[],[],[],,691.7667,691.7668,-0.054265873,-0.443663194,0,0,0,,0,128,128,24,1,2,RL,rasibal,cursive,rasibal_c.png,,,,,,
,,,,31827,001,2025-12-02_10h43.15.434,HW_LDT_1,2024.2.4,MacIntel,120.4819277,,,,,,,,,,,,,,,,,,,,,691.7675,691.9666,691.9666,692.4665,,,,,,,,,,,,,,0.7279,1,,,,,,,,,,,,,,z,,,,,,,,,,,,,,,,130,0,692.4671,693.1999,z,1,0.7279,,[],[],[],[],[],[],[],693.1999,695.1999,695.1999,695.2002,[],[],[],[],[],[],[],,695.2002,695.2002,-0.054265873,-0.443663194,0,0,0,,0,129,129,23,1,2,RL,procogal,cursive,procogal_c.png,,,,,,
,,,,31827,001,2025-12-02_10h43.15.434,HW_LDT_1,2024.2.4,MacIntel,120.4819277,,,,,,,,,,,,,,,,,,,,,695.2011,695.3999,695.3999,695.8999,,,,,,,,,,,,,,0.6702,1,,,,,,,,,,,,,,z,,,,,,,,,,,,,,,,131,0,695.9003,696.5743,z,1,0.6702,,[],[],[],[],[],[],[],696.5744,698.5749,698.5749,698.5751,[],[],[],[],[],[],[],,698.5752,698.5753,-0.054265873,-0.443663194,0,0,0,,0,130,130,18,1,2,RL,mesibine,print,mesibine_p.png,,,,,,
,,,,31827,001,2025-12-02_10h43.15.434,HW_LDT_1,2024.2.4,MacIntel,120.4819277,,,,,,,,,,,,,,,,,,,,,698.5762,698.7748,698.7749,699.275,,,,,,,,,,,,,,0.6951,1,,,,,,,,,,,,,,m,,,,,,,,,,,,,,,,132,0,699.2754,699.9741,m,1,0.6951,,[],[],[],[],[],[],[],699.9741,701.9748,701.9748,701.9749,[],[],[],[],[],[],[],,701.975,701.9751,-0.054265873,-0.443663194,0,0,0,,0,131,131,102,1,2,word,DENSITY,print,density_p.png,,,,,,
,,,,31827,001,2025-12-02_10h43.15.434,HW_LDT_1,2024.2.4,MacIntel,120.4819277,,,,,,,,,,,,,,,,,,,,,701.9758,702.1748,702.1749,702.6749,,,,,,,,,,,,,,0.9283,1,,,,,,,,,,,,,,z,,,,,,,,,,,,,,,,133,0,702.6753,703.6082,z,1,0.9283,,[],[],[],[],[],[],[],703.6083,705.6081,705.6082,705.6082,[],[],[],[],[],[],[],,705.6083,705.6084,-0.054265873,-0.443663194,0,0,0,,0,132,132,5,1,2,RL,clisimal,cursive,clisimal_c.png,,,,,,
,,,,31827,001,2025-12-02_10h43.15.434,HW_LDT_1,2024.2.4,MacIntel,120.4819277,,,,,,,,,,,,,,,,,,,,,705.6092,705.8082,705.8083,706.3081,,,,,,,,,,,,,,0.7204,1,,,,,,,,,,,,,,m,,,,,,,,,,,,,,,,134,0,706.3085,707.0326,m,1,0.7204,,[],[],[],[],[],[],[],707.0327,709.0331,709.0331,709.0332,[],[],[],[],[],[],[],,709.0333,709.0333,-0.054265873,-0.443663194,0,0,0,,0,133,133,149,1,2,word,SENATOR,print,senator_p.png,,,,,,
,,,,31827,001,2025-12-02_10h43.15.434,HW_LDT_1,2024.2.4,MacIntel,120.4819277,,,,,,,,,,,,,,,,,,,,,709.0341,709.2332,709.2332,709.7332,,,,,,,,,,,,,,0.8368,0,,,,,,,,,,,,,,m,,,,,,,,,,,,,,,,135,1,709.7336,710.5747,z,0,0.8368,,[],[],[],[],[],[],[],710.5748,712.5748,712.5748,714.1582,[],[],[],[],[],[],[],z,714.1583,714.1583,-0.054265873,-0.443663194,0,0,0,,0,134,134,126,1,2,word,OPTIMAL,cursive,optimal_c.png,1.579,,,,,
,,,,31827,001,2025-12-02_10h43.15.434,HW_LDT_1,2024.2.4,MacIntel,120.4819277,,,,,,,,,,,,,,,,,,,,,714.159,714.3581,714.3581,714.8582,,,,,,,,,,,,,,1.7532,0,,,,,,,,,,,,,,m,,,,,,,,,,,,,,,,136,0,714.8586,716.6158,z,0,1.7532,,[],[],[],[],[],[],[],716.6158,718.6165,718.6165,718.6166,[],[],[],[],[],[],[],,718.6166,718.6167,-0.054265873,-0.443663194,0,0,0,,0,135,135,138,1,2,word,REFUSAL,cursive,refusal_c.png,,,,,,
,,,,31827,001,2025-12-02_10h43.15.434,HW_LDT_1,2024.2.4,MacIntel,120.4819277,,,,,,,,,,,,,,,,,,,,,718.6176,718.8164,718.8165,719.3162,,,,,,,,,,,,,,1.546,1,,,,,,,,,,,,,,z,,,,,,,,,,,,,,,,137,0,719.3167,720.8665,z,1,1.546,,[],[],[],[],[],[],[],720.8666,722.8664,722.8665,722.8665,[],[],[],[],[],[],[],,722.8666,722.8667,-0.054265873,-0.443663194,0,0,0,,0,136,136,1,1,2,RL,caleberia,print,caleberia_p.png,,,,,,
,,,,31827,001,2025-12-02_10h43.15.434,HW_LDT_1,2024.2.4,MacIntel,120.4819277,,,,,,,,,,,,,,,,,,,,,722.8675,723.0664,723.0665,723.5664,,,,,,,,,,,,,,0.6151,1,,,,,,,,,,,,,,m,,,,,,,,,,,,,,,,138,0,723.5669,724.183,m,1,0.6151,,[],[],[],[],[],[],[],724.1831,726.1831,726.1832,726.1833,[],[],[],[],[],[],[],,726.1833,726.1834,-0.054265873,-0.443663194,0,0,0,,0,137,137,158,1,2,word,VELOCITY,print,velocity_p.png,,,,,,
,,,,31827,001,2025-12-02_10h43.15.434,HW_LDT_1,2024.2.4,MacIntel,120.4819277,,,,,,,,,,,,,,,,,,,,,726.1843,726.3831,726.3831,726.8831,,,,,,,,,,,,,,0.5774,1,,,,,,,,,,,,,,m,,,,,,,,,,,,,,,,139,1,726.8835,727.4665,m,1,0.5774,,[],[],[],[],[],[],[],727.4665,729.466,729.466,730.2665,[],[],[],[],[],[],[],m,730.2666,730.2667,-0.054265873,-0.443663194,0,0,0,,0,138,138,129,1,2,word,PARENT,print,parent_p.png,0.7965,,,,,
,,,,31827,001,2025-12-02_10h43.15.434,HW_LDT_1,2024.2.4,MacIntel,120.4819277,,,,,,,,,,,,,,,,,,,,,730.2674,730.4655,730.4655,730.9664,,,,,,,,,,,,,,0.6703,1,,,,,,,,,,,,,,z,,,,,,,,,,,,,,,,140,0,730.9668,731.6414,z,1,0.6703,,[],[],[],[],[],[],[],731.6414,733.6405,733.6405,733.6407,[],[],[],[],[],[],[],,733.6408,733.6408,-0.054265873,-0.443663194,0,0,0,,0,139,139,74,1,2,TL,rerite,cursive,rerite_c.png,,,,,,
,,,,31827,001,2025-12-02_10h43.15.434,HW_LDT_1,2024.2.4,MacIntel,120.4819277,,,,,,,,,,,,,,,,,,,,,733.6416,733.8415,733.8415,734.3412,,,,,,,,,,,,,,0.704,1,,,,,,,,,,,,,,m,,,,,,,,,,,,,,,,141,1,734.3416,735.0498,m,1,0.704,,[],[],[],[],[],[],[],735.0499,737.0498,737.0498,737.8249,[],[],[],[],[],[],[],m,737.8249,737.8251,-0.054265873,-0.443663194,0,0,0,,0,140,140,93,1,2,word,CEREMONY,print,ceremony_p.png,0.7706,,,,,
,,,,31827,001,2025-12-02_10h43.15.434,HW_LDT_1,2024.2.4,MacIntel,120.4819277,,,,,,,,,,,,,,,,,,,,,737.826,738.0248,738.0248,738.5245,,,,,,,,,,,,,,0.5955,1,,,,,,,,,,,,,,m,,,,,,,,,,,,,,,,142,1,738.5248,739.1248,m,1,0.5955,,[],[],[],[],[],[],[],739.1249,741.1241,741.1241,742.0744,[],[],[],[],[],[],[],m,742.0744,742.0745,-0.054265873,-0.443663194,0,0,0,,0,141,141,104,1,2,word,DOMINANT,print,dominant_p.png,0.9458,,,,,
,,,,31827,001,2025-12-02_10h43.15.434,HW_LDT_1,2024.2.4,MacIntel,120.4819277,,,,,,,,,,,,,,,,,,,,,742.0754,742.2747,742.2747,742.7747,,,,,,,,,,,,,,0.7702,1,,,,,,,,,,,,,,z,,,,,,,,,,,,,,,,143,0,742.7751,743.5498,z,1,0.7702,,[],[],[],[],[],[],[],743.5499,745.5498,745.5498,745.55,[],[],[],[],[],[],[],,745.55,745.5502,-0.054265873,-0.443663194,0,0,0,,0,142,142,62,1,2,TL,opmital,cursive,opmital_c.png,,,,,,
,,,,31827,001,2025-12-02_10h43.15.434,HW_LDT_1,2024.2.4,MacIntel,120.4819277,,,,,,,,,,,,,,,,,,,,,745.551,745.7497,745.7498,746.2497,,,,,,,,,,,,,,0.6236,1,,,,,,,,,,,,,,m,,,,,,,,,,,,,,,,144,1,746.2501,746.8747,m,1,0.6236,,[],[],[],[],[],[],[],746.8748,748.8741,748.8741,749.824,[],[],[],[],[],[],[],m,749.8241,749.8242,-0.054265873,-0.443663194,0,0,0,,0,143,143,144,1,2,word,RESIDENT,print,resident_p.png,0.9467,,,,,
,,,,31827,001,2025-12-02_10h43.15.434,HW_LDT_1,2024.2.4,MacIntel,120.4819277,,,,,,,,,,,,,,,,,,,,,749.8251,750.0247,750.0248,750.5247,,,,,,,,,,,,,,0.7118,1,,,,,,,,,,,,,,z,,,,,,,,,,,,,,,,145,0,750.5252,751.2405,z,1,0.7118,,[],[],[],[],[],[],[],751.2406,753.2415,753.2415,753.2416,[],[],[],[],[],[],[],,753.2416,753.2418,-0.054265873,-0.443663194,0,0,0,,0,144,144,9,1,2,RL,denficy,print,denficy_p.png,,,,,,
,,,,31827,001,2025-12-02_10h43.15.434,HW_LDT_1,2024.2.4,MacIntel,120.4819277,,,,,,,,,,,,,,,,,,,,,753.2426,753.4414,753.4414,753.9413,,,,,,,,,,,,,,1.4241,1,,,,,,,,,,,,,,z,,,,,,,,,,,,,,,,146,0,753.9418,755.3666,z,1,1.4241,,[],[],[],[],[],[],[],755.3667,757.3662,757.3662,757.3664,[],[],[],[],[],[],[],,757.3664,757.3665,-0.054265873,-0.443663194,0,0,0,,0,145,145,41,1,2,TL,befenit,cursive,befenit_c.png,,,,,,
,,,,31827,001,2025-12-02_10h43.15.434,HW_LDT_1,2024.2.4,MacIntel,120.4819277,,,,,,,,,,,,,,,,,,,,,757.3674,757.5663,757.5663,758.0663,,,,,,,,,,,,,,0.966,1,,,,,,,,,,,,,,m,,,,,,,,,,,,,,,,147,1,758.0667,759.0332,m,1,0.966,,[],[],[],[],[],[],[],759.0334,761.0331,761.0332,762.1246,[],[],[],[],[],[],[],z,762.1247,762.1248,-0.054265873,-0.443663194,0,0,0,,0,146,146,94,1,2,word,CLINICAL,cursive,clinical_c.png,1.0877,,,,,
,,,,31827,001,2025-12-02_10h43.15.434,HW_LDT_1,2024.2.4,MacIntel,120.4819277,,,,,,,,,,,,,,,,,,,,,762.1254,762.3247,762.3247,762.8241,,,,,,,,,,,,,,0.9958,1,,,,,,,,,,,,,,m,,,,,,,,,,,,,,,,148,0,762.8246,763.8247,m,1,0.9958,,[],[],[],[],[],[],[],763.8247,765.8246,765.8246,765.8248,[],[],[],[],[],[],[],,765.8248,765.8249,-0.054265873,-0.443663194,0,0,0,,0,147,147,153,1,2,word,STOLEN,print,stolen_p.png,,,,,,
,,,,31827,001,2025-12-02_10h43.15.434,HW_LDT_1,2024.2.4,MacIntel,120.4819277,,,,,,,,,,,,,,,,,,,,,765.8256,766.0246,766.0247,766.5247,,,,,,,,,,,,,,0.7286,1,,,,,,,,,,,,,,z,,,,,,,,,,,,,,,,149,0,766.5251,767.2571,z,1,0.7286,,[],[],[],[],[],[],[],767.2571,769.258,769.258,769.2582,[],[],[],[],[],[],[],,769.2582,769.2583,-0.054265873,-0.443663194,0,0,0,,0,148,148,13,1,2,RL,helicage,print,helicage_p.png,,,,,,
,,,,31827,001,2025-12-02_10h43.15.434,HW_LDT_1,2024.2.4,MacIntel,120.4819277,,,,,,,,,,,,,,,,,,,,,769.2589,769.4578,769.4579,769.9579,,,,,,,,,,,,,,1.9536,1,,,,,,,,,,,,,,z,,,,,,,,,,,,,,,,150,0,769.9583,771.9157,z,1,1.9536,,[],[],[],[],[],[],[],771.9157,773.9163,773.9163,773.9165,[],[],[],[],[],[],[],,773.9165,773.9167,-0.054265873,-0.443663194,0,0,0,,0,149,149,63,1,2,TL,orinigal,print,orinigal_p.png,,,,,,
,,,,31827,001,2025-12-02_10h43.15.434,HW_LDT_1,2024.2.4,MacIntel,120.4819277,,,,,,,,,,,,,,,,,,,,,773.9176,774.1164,774.1164,774.6163,,,,,,,,,,,,,,0.7538,1,,,,,,,,,,,,,,z,,,,,,,,,,,,,,,,151,0,774.6167,775.3746,z,1,0.7538,,[],[],[],[],[],[],[],775.3746,777.3746,777.3746,777.3747,[],[],[],[],[],[],[],,777.3748,777.3748,-0.054265873,-0.443663194,0,0,0,,0,150,150,16,1,2,RL,losipal,print,losipal_p.png,,,,,,
,,,,31827,001,2025-12-02_10h43.15.434,HW_LDT_1,2024.2.4,MacIntel,120.4819277,,,,,,,,,,,,,,,,,,,,,777.3755,777.5744,777.5744,778.0746,,,,,,,,,,,,,,3.5649,1,,,,,,,,,,,,,,m,,,,,,,,,,,,,,,,152,1,778.0751,781.6412,m,1,3.5649,,[],[],[],[],[],[],[],781.6413,783.6412,783.6413,784.4911,[],[],[],[],[],[],[],z,784.4912,784.4913,-0.054265873,-0.443663194,0,0,0,,0,151,151,109,1,2,word,GRATEFUL,cursive,grateful_c.png,0.8458,,,,,
,,,,31827,001,2025-12-02_10h43.15.434,HW_LDT_1,2024.2.4,MacIntel,120.4819277,,,,,,,,,,,,,,,,,,,,,784.492,784.6913,784.6913,785.1911,,,,,,,,,,,,,,1.241,1,,,,,,,,,,,,,,m,,,,,,,,,,,,,,,,153,0,785.1915,786.4332,m,1,1.241,,[],[],[],[],[],[],[],786.4332,788.4329,788.4329,788.433,[],[],[],[],[],[],[],,788.4331,788.4332,-0.054265873,-0.443663194,0,0,0,,0,152,152,132,1,2,word,PROPOSAL,cursive,proposal_c.png,,,,,,
,,,,31827,001,2025-12-02_10h43.15.434,HW_LDT_1,2024.2.4,MacIntel,120.4819277,,,,,,,,,,,,,,,,,,,,,788.4339,788.6329,788.6329,789.1329,,,,,,,,,,,,,,0.8703,1,,,,,,,,,,,,,,z,,,,,,,,,,,,,,,,154,0,789.1333,790.0078,z,1,0.8703,,[],[],[],[],[],[],[],790.0078,792.0079,792.008,792.0081,[],[],[],[],[],[],[],,792.0081,792.0082,-0.054265873,-0.443663194,0,0,0,,0,153,153,60,1,2,TL,molibe,print,molibe_p.png,,,,,,
,,,,31827,001,2025-12-02_10h43.15.434,HW_LDT_1,2024.2.4,MacIntel,120.4819277,,,,,,,,,,,,,,,,,,,,,792.0091,792.208,792.208,792.7079,,,,,,,,,,,,,,0.8737,1,,,,,,,,,,,,,,m,,,,,,,,,,,,,,,,155,0,792.7084,793.5824,m,1,0.8737,,[],[],[],[],[],[],[],793.5825,795.583,795.583,795.5832,[],[],[],[],[],[],[],,795.5832,795.5833,-0.054265873,-0.443663194,0,0,0,,0,154,154,133,1,2,word,PROVIDE,cursive,provide_c.png,,,,,,
,,,,31827,001,2025-12-02_10h43.15.434,HW_LDT_1,2024.2.4,MacIntel,120.4819277,,,,,,,,,,,,,,,,,,,,,795.5843,795.7829,795.7829,796.2828,,,,,,,,,,,,,,0.6454,1,,,,,,,,,,,,,,m,,,,,,,,,,,,,,,,156,0,796.2833,796.9329,m,1,0.6454,,[],[],[],[],[],[],[],796.933,798.9329,798.9329,798.933,[],[],[],[],[],[],[],,798.9331,798.9332,-0.054265873,-0.443663194,0,0,0,,0,155,155,130,1,2,word,POLICY,print,policy_p.png,,,,,,
,,,,31827,001,2025-12-02_10h43.15.434,HW_LDT_1,2024.2.4,MacIntel,120.4819277,,,,,,,,,,,,,,,,,,,,,798.9339,799.1328,799.1328,799.6328,,,,,,,,,,,,,,0.7037,1,,,,,,,,,,,,,,z,,,,,,,,,,,,,,,,157,0,799.6333,800.3411,z,1,0.7037,,[],[],[],[],[],[],[],800.3412,802.3412,802.3412,802.3414,[],[],[],[],[],[],[],,802.3414,802.3415,-0.054265873,-0.443663194,0,0,0,,0,156,156,51,1,2,TL,etidor,cursive,etidor_c.png,,,,,,
,,,,31827,001,2025-12-02_10h43.15.434,HW_LDT_1,2024.2.4,MacIntel,120.4819277,,,,,,,,,,,,,,,,,,,,,802.3425,802.5412,802.5412,803.0411,,,,,,,,,,,,,,0.769,1,,,,,,,,,,,,,,z,,,,,,,,,,,,,,,,158,0,803.0414,803.8162,z,1,0.769,,[],[],[],[],[],[],[],803.8163,805.8159,805.816,805.8161,[],[],[],[],[],[],[],,805.8162,805.8162,-0.054265873,-0.443663194,0,0,0,,0,157,157,48,1,2,TL,detabe,print,detabe_p.png,,,,,,
,,,,31827,001,2025-12-02_10h43.15.434,HW_LDT_1,2024.2.4,MacIntel,120.4819277,,,,,,,,,,,,,,,,,,,,,805.817,806.0162,806.0162,806.5156,,,,,,,,,,,,,,5.6789,1,,,,,,,,,,,,,,m,,,,,,,,,,,,,,,,159,0,806.5161,812.1996,m,1,5.6789,,[],[],[],[],[],[],[],812.1997,814.1994,814.1995,814.1996,[],[],[],[],[],[],[],,814.1996,814.1997,-0.054265873,-0.443663194,0,0,0,,0,158,158,119,1,2,word,MEMORY,cursive,memory_c.png,,,,,,
,,,,31827,001,2025-12-02_10h43.15.434,HW_LDT_1,2024.2.4,MacIntel,120.4819277,,,,,,,,,,,,,,,,,,,,,814.2004,814.3995,814.3995,814.8988,,,,,,,,,,,,,,0.6619,1,,,,,,,,,,,,,,z,,,,,,,,,,,,,,,,160,0,814.8992,815.5653,z,1,0.6619,,[],[],[],[],[],[],[],815.5654,817.5655,817.5657,817.5657,[],[],[],[],[],[],[],,817.5657,817.5659,-0.054265873,-0.443663194,0,0,0,,0,159,159,15,1,2,RL,linedal,print,linedal_p.png,,,,,,
,,,,31827,001,2025-12-02_10h43.15.434,HW_LDT_1,2024.2.4,MacIntel,120.4819277,,,,,,,,,,,,,,,,,,,,,,,,,,,,,,,,,,,,,,,,,,,,,,,,,,,,,,,,,,,,,,,,,,,,,,,,,,,,,,,,,,,,,,,,,,,,,,,,,,,,,,,,,,,,,,,,,,,,,,817.5749,822.5665
