counterbalance_lists.group,counterbalance_lists.remaining,get_list.started,get_list.stopped,participant,session,date,expName,psychopyVersion,OS,frameRate,Instructions.started,Instructions.stopped,key_resp.keys,instr_done_touch.x,instr_done_touch.y,instr_done_touch.leftButton,instr_done_touch.midButton,instr_done_touch.rightButton,instr_done_touch.clicked_name,start_instr.thisRepN,start_instr.thisTrialN,start_instr.thisN,start_instr.thisIndex,start_instr.ran,pageN,phase,instruct_text,has_image,instruct_image,key_resp.rt,key_resp.duration,showProgress.started,showProgress.stopped,fix.started,fix.stopped,prac.started,prac.stopped,response.keys,response.corr,response.rt,response.duration,touch_resp.x,touch_resp.y,touch_resp.leftButton,touch_resp.midButton,touch_resp.rightButton,touch_resp.time,touch_resp.clicked_name,rt,corr,feedback.started,feedback.stopped,trials.thisRepN,trials.thisTrialN,trials.thisN,trials.thisIndex,trials.ran,TrialID,StimulusType,Condition,PrimeDuration,Prime,Target,corrAns,Instructions_expt.started,Instructions_expt.stopped,key_resp_3.keys,key_resp_3.rt,key_resp_3.duration,instr_done_touch_3.x,instr_done_touch_3.y,instr_done_touch_3.leftButton,instr_done_touch_3.midButton,instr_done_touch_3.rightButton,instr_experiment.thisRepN,instr_experiment.thisTrialN,instr_experiment.thisN,instr_experiment.thisIndex,instr_experiment.ran,trialID,flag,maintask.started,maintask.stopped,key_resp_2.keys,key_resp_2.corr,key_resp_2.rt,key_resp_2.duration,targ_click.x,targ_click.y,targ_click.leftButton,targ_click.midButton,targ_click.rightButton,targ_click.time,targ_click.clicked_name,ITI.started,ITI.stopped,probe.started,probe.stopped,click_probe.x,click_probe.y,click_probe.leftButton,click_probe.midButton,click_probe.rightButton,click_probe.time,click_probe.clicked_name,key_resp_probe.keys,Break.started,Break.stopped,break_done_touch.x,break_done_touch.y,break_done_touch.leftButton,break_done_touch.midButton,break_done_touch.rightButton,break_done_keyboard.keys,list4_trials.thisRepN,list4_trials.thisTrialN,list4_trials.thisN,list4_trials.thisIndex,list4_trials.ran,list_id,item_type,string,font,stim_file,key_resp_probe.rt,key_resp_probe.duration,break_done_keyboard.rt,break_done_keyboard.duration,End.started,End.stopped
list4,,5.452,5.452,31824,001,2025-11-10_15h55.45.347,HW_LDT_1,2024.2.4,MacIntel,58.82352941,,,,,,,,,,,,,,,,,,,,,,,,,,,,,,,,,,,,,,,,,,,,,,,,,,,,,,,,,,,,,,,,,,,,,,,,,,,,,,,,,,,,,,,,,,,,,,,,,,,,,,,,,,,,,,,,,,,,,,,,
,,,,31824,001,2025-11-10_15h55.45.347,HW_LDT_1,2024.2.4,MacIntel,58.82352941,5.485,20.57,,0.086206897,-0.391246684,1,0,0,instr_done_button,0,0,0,0,1,1,instructions,"INSTRUCTIONS
At the start of each trial, look at the plus sign  (+) in the center of the screen.  This tells you that a trial is about to begin and where to look. Second, the plus sign will disappear and a string of letters will appear. Your task is to determine if the string of letters is a word or not. If the item is a word press the M key (on keyboard)  or touch the word button (phone/tablet).  If the item is not a word,  press the  Z key (on keyboard)  or touch the nonword button (on phone/tablet). The items will be presented for a short time. 
Press the space bar or touch  continue.",0,,,,,,,,,,,,,,,,,,,,,,,,,,,,,,,,,,,,,,,,,,,,,,,,,,,,,,,,,,,,,,,,,,,,,,,,,,,,,,,,,,,,,,,,,,,,,,,,,,,,,,
,,,,31824,001,2025-11-10_15h55.45.347,HW_LDT_1,2024.2.4,MacIntel,58.82352941,20.571,20.951,space,0.086206897,-0.391246684,0,0,0,,0,1,1,1,1,2,instructions,"If your device has a keyboard, press the 'Z' key for nonwords and the 'M' key for words.





Press the space bar or touch the button below to continue.",0,keyboard-example.gif,0.348,,,,,,,,,,,,,,,,,,,,,,,,,,,,,,,,,,,,,,,,,,,,,,,,,,,,,,,,,,,,,,,,,,,,,,,,,,,,,,,,,,,,,,,,,,,,,,,,,,,,
,,,,31824,001,2025-11-10_15h55.45.347,HW_LDT_1,2024.2.4,MacIntel,58.82352941,20.952,21.12,space,0.086206897,-0.391246684,0,0,0,,0,2,2,2,1,3,instructions,"If you are using a touchscreen only device, use the buttons on the screen. Do not use the mouse.





Press the space bar or touch the button below to continue.",0,touchscreen-example.gif,0.138,,,,,,,,,,,,,,,,,,,,,,,,,,,,,,,,,,,,,,,,,,,,,,,,,,,,,,,,,,,,,,,,,,,,,,,,,,,,,,,,,,,,,,,,,,,,,,,,,,,,
,,,,31824,001,2025-11-10_15h55.45.347,HW_LDT_1,2024.2.4,MacIntel,58.82352941,21.121,21.268,space,0.086206897,-0.391246684,0,0,0,,0,3,3,3,1,4,instructions,"It is very important that you respond as quickly and accurately as possible, as each letter string will only be on the screen for two seconds. If you do not respond within this time, the message 'Too slow!' will be displayed and the experiment will progress to the next letter string. The first 20 trials will be practice trials and you will receive feedback on your answers. 

Press the space bar or touch the button below to start the practice trials.",0,,0.122,,,,,,,,,,,,,,,,,,,,,,,,,,,,,,,,,,,,,,,,,,,,,,,,,,,,,,,,,,,,,,,,,,,,,,,,,,,,,,,,,,,,,,,,,,,,,,,,,,,,
,,,,31824,001,2025-11-10_15h55.45.347,HW_LDT_1,2024.2.4,MacIntel,58.82352941,,,,,,,,,,,,,,,,,,,,,,21.287,21.468,21.469,21.968,21.969,24.585,z,1,2.593,,[],[],[],[],[],[],[],2.593,1,24.587,25.085,0,0,0,10,1,1011,NW,"ID",16,inlade,INLADE,z,,,,,,,,,,,,,,,,,,,,,,,,,,,,,,,,,,,,,,,,,,,,,,,,,,,,,,,,,,,,,,,,,,
,,,,31824,001,2025-11-10_15h55.45.347,HW_LDT_1,2024.2.4,MacIntel,58.82352941,,,,,,,,,,,,,,,,,,,,,,25.087,25.285,25.285,25.784,25.786,30.568,m,1,4.766,,[],[],[],[],[],[],[],4.766,1,30.568,31.068,0,1,1,7,1,1008,WORD,UN,16,hurdle,VOLUME,m,,,,,,,,,,,,,,,,,,,,,,,,,,,,,,,,,,,,,,,,,,,,,,,,,,,,,,,,,,,,,,,,,,
,,,,31824,001,2025-11-10_15h55.45.347,HW_LDT_1,2024.2.4,MacIntel,58.82352941,,,,,,,,,,,,,,,,,,,,,,31.07,31.268,31.268,31.768,31.769,33.118,m,1,1.334,,[],[],[],[],[],[],[],1.334,1,33.118,33.618,0,2,2,6,1,1007,WORD,UN,16,tropic,ZOMBIE,m,,,,,,,,,,,,,,,,,,,,,,,,,,,,,,,,,,,,,,,,,,,,,,,,,,,,,,,,,,,,,,,,,,
,,,,31824,001,2025-11-10_15h55.45.347,HW_LDT_1,2024.2.4,MacIntel,58.82352941,,,,,,,,,,,,,,,,,,,,,,33.62,33.818,33.818,34.318,34.319,35.385,m,1,1.049,,[],[],[],[],[],[],[],1.049,1,35.385,35.885,0,3,3,4,1,1005,WORD,UN,33,abound,SQUEAK,m,,,,,,,,,,,,,,,,,,,,,,,,,,,,,,,,,,,,,,,,,,,,,,,,,,,,,,,,,,,,,,,,,,
,,,,31824,001,2025-11-10_15h55.45.347,HW_LDT_1,2024.2.4,MacIntel,58.82352941,,,,,,,,,,,,,,,,,,,,,,35.886,36.085,36.085,36.584,36.585,37.418,z,1,0.813,,[],[],[],[],[],[],[],0.813,1,37.418,37.918,0,4,4,13,1,1014,NW,UN,33,winfer,ROUPET,z,,,,,,,,,,,,,,,,,,,,,,,,,,,,,,,,,,,,,,,,,,,,,,,,,,,,,,,,,,,,,,,,,,
,,,,31824,001,2025-11-10_15h55.45.347,HW_LDT_1,2024.2.4,MacIntel,58.82352941,,,,,,,,,,,,,,,,,,,,,,37.92,38.118,38.118,38.618,38.619,39.451,m,1,0.816,,[],[],[],[],[],[],[],0.816,1,39.451,39.951,0,5,5,3,1,1004,WORD,"ID",16,matrix,MATRIX,m,,,,,,,,,,,,,,,,,,,,,,,,,,,,,,,,,,,,,,,,,,,,,,,,,,,,,,,,,,,,,,,,,,
,,,,31824,001,2025-11-10_15h55.45.347,HW_LDT_1,2024.2.4,MacIntel,58.82352941,,,,,,,,,,,,,,,,,,,,,,39.953,40.151,40.151,40.651,40.652,42.201,m,1,1.532,,[],[],[],[],[],[],[],1.532,1,42.201,42.701,0,6,6,0,1,1001,WORD,"ID",33,utopia,UTOPIA,m,,,,,,,,,,,,,,,,,,,,,,,,,,,,,,,,,,,,,,,,,,,,,,,,,,,,,,,,,,,,,,,,,,
,,,,31824,001,2025-11-10_15h55.45.347,HW_LDT_1,2024.2.4,MacIntel,58.82352941,,,,,,,,,,,,,,,,,,,,,,42.703,42.901,42.901,43.401,43.402,44.101,z,1,0.683,,[],[],[],[],[],[],[],0.683,1,44.102,44.601,0,7,7,14,1,1015,NW,UN,16,miaber,THRALE,z,,,,,,,,,,,,,,,,,,,,,,,,,,,,,,,,,,,,,,,,,,,,,,,,,,,,,,,,,,,,,,,,,,
,,,,31824,001,2025-11-10_15h55.45.347,HW_LDT_1,2024.2.4,MacIntel,58.82352941,,,,,,,,,,,,,,,,,,,,,,44.603,44.801,44.801,45.301,45.302,46.118,m,1,0.797,,[],[],[],[],[],[],[],0.797,1,46.118,46.618,0,8,8,1,1,1002,WORD,"ID",33,adjust,ADJUST,m,,,,,,,,,,,,,,,,,,,,,,,,,,,,,,,,,,,,,,,,,,,,,,,,,,,,,,,,,,,,,,,,,,
,,,,31824,001,2025-11-10_15h55.45.347,HW_LDT_1,2024.2.4,MacIntel,58.82352941,,,,,,,,,,,,,,,,,,,,,,46.619,46.818,46.818,47.318,47.319,48.251,z,1,0.915,,[],[],[],[],[],[],[],0.915,1,48.251,48.751,0,9,9,8,1,1009,NW,"ID",33,aslert,ASLERT,z,,,,,,,,,,,,,,,,,,,,,,,,,,,,,,,,,,,,,,,,,,,,,,,,,,,,,,,,,,,,,,,,,,
,,,,31824,001,2025-11-10_15h55.45.347,HW_LDT_1,2024.2.4,MacIntel,58.82352941,,,,,,,,,,,,,,,,,,,,,,48.753,48.951,48.951,49.451,49.452,50.301,m,1,0.833,,[],[],[],[],[],[],[],0.833,1,50.301,50.801,0,10,10,5,1,1006,WORD,UN,33,frenzy,OBTAIN,m,,,,,,,,,,,,,,,,,,,,,,,,,,,,,,,,,,,,,,,,,,,,,,,,,,,,,,,,,,,,,,,,,,
,,,,31824,001,2025-11-10_15h55.45.347,HW_LDT_1,2024.2.4,MacIntel,58.82352941,,,,,,,,,,,,,,,,,,,,,,50.803,51.001,51.001,51.501,51.503,52.301,m,1,0.782,,[],[],[],[],[],[],[],0.782,1,52.301,52.801,0,11,11,2,1,1003,WORD,"ID",16,almond,ALMOND,m,,,,,,,,,,,,,,,,,,,,,,,,,,,,,,,,,,,,,,,,,,,,,,,,,,,,,,,,,,,,,,,,,,
,,,,31824,001,2025-11-10_15h55.45.347,HW_LDT_1,2024.2.4,MacIntel,58.82352941,,,,,,,,,,,,,,,,,,,,,,52.803,53.001,53.001,53.501,53.502,54.201,z,1,0.68,,[],[],[],[],[],[],[],0.68,1,54.201,54.701,0,12,12,11,1,1012,NW,"ID",16,rashet,RASHET,z,,,,,,,,,,,,,,,,,,,,,,,,,,,,,,,,,,,,,,,,,,,,,,,,,,,,,,,,,,,,,,,,,,
,,,,31824,001,2025-11-10_15h55.45.347,HW_LDT_1,2024.2.4,MacIntel,58.82352941,,,,,,,,,,,,,,,,,,,,,,54.702,54.901,54.901,55.401,55.402,56.952,z,1,1.537,,[],[],[],[],[],[],[],1.537,1,56.953,57.451,0,13,13,9,1,1010,NW,"ID",33,fariny,FARINY,z,,,,,,,,,,,,,,,,,,,,,,,,,,,,,,,,,,,,,,,,,,,,,,,,,,,,,,,,,,,,,,,,,,
,,,,31824,001,2025-11-10_15h55.45.347,HW_LDT_1,2024.2.4,MacIntel,58.82352941,,,,,,,,,,,,,,,,,,,,,,57.453,57.651,57.651,58.151,58.152,59.285,z,1,1.113,,[],[],[],[],[],[],[],1.113,1,59.285,59.785,0,14,14,12,1,1013,NW,UN,33,adveil,SPRINY,z,,,,,,,,,,,,,,,,,,,,,,,,,,,,,,,,,,,,,,,,,,,,,,,,,,,,,,,,,,,,,,,,,,
,,,,31824,001,2025-11-10_15h55.45.347,HW_LDT_1,2024.2.4,MacIntel,58.82352941,,,,,,,,,,,,,,,,,,,,,,59.786,59.984,59.985,60.484,60.485,61.719,z,1,1.222,,[],[],[],[],[],[],[],1.222,1,61.719,62.218,0,15,15,15,1,1016,NW,UN,16,mushed,WHAISE,z,,,,,,,,,,,,,,,,,,,,,,,,,,,,,,,,,,,,,,,,,,,,,,,,,,,,,,,,,,,,,,,,,,
,,,,31824,001,2025-11-10_15h55.45.347,HW_LDT_1,2024.2.4,MacIntel,58.82352941,,,,,,,,,,,,,,,1,end_of_practice,"You have completed the practice trials. During the experimental trials, you will not receive feedback. On some trials you will be asked to report whether the item you just saw was in cursive or print. 
Before you begin, please ensure that you are in a comfortable and quiet location and will not be disturbed for about 15 minutes, as we cannot use your data if you do not complete all the trials. 
 When you are ready to start the experimental trials, please press space or touch the button below.",,,,,,,,,,,,,,,,,,,,,,,,,,,,,,,,,,,,,,62.227,63.554,space,1.3,,0.179045093,-0.165782493,0,0,0,0,0,0,0,1,,,,,,,,,,,,,,,,,,,,,,,,,,,,,,,,,,,,,,,,,,,,,,,,,,,
,,,,31824,001,2025-11-10_15h55.45.347,HW_LDT_1,2024.2.4,MacIntel,58.82352941,,,,,,,,,,,,,,,,,,,,,,63.571,63.751,63.751,64.251,,,,,,,,,,,,,,1.867,1,,,,,,,,,,,,,,z,,,,,,,,,,,,,,,,1,0,64.252,66.135,z,1,1.867,,[],[],[],[],[],[],[],66.136,68.136,68.137,68.142,[],[],[],[],[],[],[],,68.143,68.146,0.179045093,-0.165782493,0,0,0,,0,0,0,22,1,4,RL,linedal,cursive,linedal_c.png,,,,,,
,,,,31824,001,2025-11-10_15h55.45.347,HW_LDT_1,2024.2.4,MacIntel,58.82352941,,,,,,,,,,,,,,,,,,,,,,68.146,68.334,68.335,68.835,,,,,,,,,,,,,,1.088,0,,,,,,,,,,,,,,z,,,,,,,,,,,,,,,,2,0,68.835,69.935,m,0,1.088,,[],[],[],[],[],[],[],69.935,71.935,71.935,71.935,[],[],[],[],[],[],[],,71.935,71.935,0.179045093,-0.165782493,0,0,0,,0,1,1,51,1,4,TL,adsivory,cursive,adsivory_c.png,,,,,,
,,,,31824,001,2025-11-10_15h55.45.347,HW_LDT_1,2024.2.4,MacIntel,58.82352941,,,,,,,,,,,,,,,,,,,,,,71.937,72.134,72.135,72.635,,,,,,,,,,,,,,2.037,1,,,,,,,,,,,,,,z,,,,,,,,,,,,,,,,3,0,72.635,74.685,z,1,2.037,,[],[],[],[],[],[],[],74.685,76.685,76.685,76.685,[],[],[],[],[],[],[],,76.685,76.685,0.179045093,-0.165782493,0,0,0,,0,2,2,50,1,4,RL,vecelan,cursive,vecelan_c.png,,,,,,
,,,,31824,001,2025-11-10_15h55.45.347,HW_LDT_1,2024.2.4,MacIntel,58.82352941,,,,,,,,,,,,,,,,,,,,,,76.687,76.885,76.885,77.385,,,,,,,,,,,,,,4.063,0,,,,,,,,,,,,,,z,,,,,,,,,,,,,,,,4,0,77.385,81.456,m,0,4.063,,[],[],[],[],[],[],[],81.456,83.451,83.451,83.451,[],[],[],[],[],[],[],,83.452,83.452,0.179045093,-0.165782493,0,0,0,,0,3,3,77,1,4,TL,spemicen,cursive,spemicen_c.png,,,,,,
,,,,31824,001,2025-11-10_15h55.45.347,HW_LDT_1,2024.2.4,MacIntel,58.82352941,,,,,,,,,,,,,,,,,,,,,,83.453,83.651,83.651,84.151,,,,,,,,,,,,,,1.831,0,,,,,,,,,,,,,,m,,,,,,,,,,,,,,,,5,0,84.152,85.985,z,0,1.831,,[],[],[],[],[],[],[],85.985,87.984,87.985,87.985,[],[],[],[],[],[],[],,87.985,87.985,0.179045093,-0.165782493,0,0,0,,0,4,4,138,1,4,word,REFUSAL,cursive,refusal_c.png,,,,,,
,,,,31824,001,2025-11-10_15h55.45.347,HW_LDT_1,2024.2.4,MacIntel,58.82352941,,,,,,,,,,,,,,,,,,,,,,87.987,88.185,88.185,88.685,,,,,,,,,,,,,,1.264,1,,,,,,,,,,,,,,z,,,,,,,,,,,,,,,,6,0,88.685,89.951,z,1,1.264,,[],[],[],[],[],[],[],89.952,91.951,91.951,91.952,[],[],[],[],[],[],[],,91.952,91.952,0.179045093,-0.165782493,0,0,0,,0,5,5,11,1,4,RL,clisimal,print,clisimal_p.png,,,,,,
,,,,31824,001,2025-11-10_15h55.45.347,HW_LDT_1,2024.2.4,MacIntel,58.82352941,,,,,,,,,,,,,,,,,,,,,,91.954,92.151,92.151,92.651,,,,,,,,,,,,,,0.67,1,,,,,,,,,,,,,,m,,,,,,,,,,,,,,,,7,0,92.652,93.335,m,1,0.67,,[],[],[],[],[],[],[],93.335,95.335,95.335,95.335,[],[],[],[],[],[],[],,95.335,95.335,0.179045093,-0.165782493,0,0,0,,0,6,6,124,1,4,word,NUMERICAL,cursive,numerical_c.png,,,,,,
,,,,31824,001,2025-11-10_15h55.45.347,HW_LDT_1,2024.2.4,MacIntel,58.82352941,,,,,,,,,,,,,,,,,,,,,,95.337,95.534,95.535,96.035,,,,,,,,,,,,,,0.703,1,,,,,,,,,,,,,,m,,,,,,,,,,,,,,,,8,0,96.035,96.751,m,1,0.703,,[],[],[],[],[],[],[],96.751,98.751,98.751,98.752,[],[],[],[],[],[],[],,98.752,98.752,0.179045093,-0.165782493,0,0,0,,0,7,7,117,1,4,word,MARINE,print,marine_p.png,,,,,,
,,,,31824,001,2025-11-10_15h55.45.347,HW_LDT_1,2024.2.4,MacIntel,58.82352941,,,,,,,,,,,,,,,,,,,,,,98.753,98.951,98.951,99.451,,,,,,,,,,,,,,1.474,0,,,,,,,,,,,,,,m,,,,,,,,,,,,,,,,9,0,99.452,100.935,z,0,1.474,,[],[],[],[],[],[],[],100.935,102.934,102.935,102.935,[],[],[],[],[],[],[],,102.935,102.935,0.179045093,-0.165782493,0,0,0,,0,8,8,87,1,4,word,CAFETERIA,cursive,cafeteria_c.png,,,,,,
,,,,31824,001,2025-11-10_15h55.45.347,HW_LDT_1,2024.2.4,MacIntel,58.82352941,,,,,,,,,,,,,,,,,,,,,,102.937,103.135,103.135,103.635,,,,,,,,,,,,,,2.021,1,,,,,,,,,,,,,,z,,,,,,,,,,,,,,,,10,1,103.635,105.668,z,1,2.021,,[],[],[],[],[],[],[],105.668,107.668,107.668,110.684,[],[],[],[],[],[],[],m,110.685,110.685,0.179045093,-0.165782493,0,0,0,,0,9,9,62,1,4,TL,locigal,print,locigal_p.png,3.009,,,,,
,,,,31824,001,2025-11-10_15h55.45.347,HW_LDT_1,2024.2.4,MacIntel,58.82352941,,,,,,,,,,,,,,,,,,,,,,110.686,110.885,110.885,111.384,,,,,,,,,,,,,,1.372,0,,,,,,,,,,,,,,z,,,,,,,,,,,,,,,,11,0,111.384,112.768,m,0,1.372,,[],[],[],[],[],[],[],112.768,114.768,114.768,114.769,[],[],[],[],[],[],[],,114.769,114.769,0.179045093,-0.165782493,0,0,0,,0,10,10,66,1,4,TL,opmital,print,opmital_p.png,,,,,,
,,,,31824,001,2025-11-10_15h55.45.347,HW_LDT_1,2024.2.4,MacIntel,58.82352941,,,,,,,,,,,,,,,,,,,,,,114.77,114.968,114.968,115.468,,,,,,,,,,,,,,1.171,0,,,,,,,,,,,,,,z,,,,,,,,,,,,,,,,12,0,115.468,116.651,m,0,1.171,,[],[],[],[],[],[],[],116.651,118.651,118.651,118.652,[],[],[],[],[],[],[],,118.652,118.652,0.179045093,-0.165782493,0,0,0,,0,11,11,10,1,4,RL,carminal,cursive,carminal_c.png,,,,,,
,,,,31824,001,2025-11-10_15h55.45.347,HW_LDT_1,2024.2.4,MacIntel,58.82352941,,,,,,,,,,,,,,,,,,,,,,118.654,118.851,118.851,119.351,,,,,,,,,,,,,,1.181,0,,,,,,,,,,,,,,m,,,,,,,,,,,,,,,,13,0,119.352,120.536,z,0,1.181,,[],[],[],[],[],[],[],120.536,122.535,122.535,122.535,[],[],[],[],[],[],[],,122.535,122.535,0.179045093,-0.165782493,0,0,0,,0,12,12,142,1,4,word,REMOTE,cursive,remote_c.png,,,,,,
,,,,31824,001,2025-11-10_15h55.45.347,HW_LDT_1,2024.2.4,MacIntel,58.82352941,,,,,,,,,,,,,,,,,,,,,,122.537,122.735,122.735,123.235,,,,,,,,,,,,,,1.587,1,,,,,,,,,,,,,,z,,,,,,,,,,,,,,,,14,0,123.235,124.835,z,1,1.587,,[],[],[],[],[],[],[],124.835,126.835,126.835,126.835,[],[],[],[],[],[],[],,126.835,126.835,0.179045093,-0.165782493,0,0,0,,0,13,13,63,1,4,TL,miskate,print,miskate_p.png,,,,,,
,,,,31824,001,2025-11-10_15h55.45.347,HW_LDT_1,2024.2.4,MacIntel,58.82352941,,,,,,,,,,,,,,,,,,,,,,126.837,127.034,127.034,127.535,,,,,,,,,,,,,,2.322,1,,,,,,,,,,,,,,z,,,,,,,,,,,,,,,,15,0,127.535,129.868,z,1,2.322,,[],[],[],[],[],[],[],129.868,131.87,131.87,131.87,[],[],[],[],[],[],[],,131.87,131.87,0.179045093,-0.165782493,0,0,0,,0,14,14,6,1,4,RL,caleberia,cursive,caleberia_c.png,,,,,,
,,,,31824,001,2025-11-10_15h55.45.347,HW_LDT_1,2024.2.4,MacIntel,58.82352941,,,,,,,,,,,,,,,,,,,,,,131.871,132.068,132.068,132.568,,,,,,,,,,,,,,0.773,1,,,,,,,,,,,,,,m,,,,,,,,,,,,,,,,16,0,132.569,133.351,m,1,0.773,,[],[],[],[],[],[],[],133.351,135.351,135.351,135.352,[],[],[],[],[],[],[],,135.352,135.352,0.179045093,-0.165782493,0,0,0,,0,15,15,134,1,4,word,QUALIFY,print,qualify_p.png,,,,,,
,,,,31824,001,2025-11-10_15h55.45.347,HW_LDT_1,2024.2.4,MacIntel,58.82352941,,,,,,,,,,,,,,,,,,,,,,135.353,135.551,135.551,136.051,,,,,,,,,,,,,,0.663,1,,,,,,,,,,,,,,z,,,,,,,,,,,,,,,,17,0,136.052,136.719,z,1,0.663,,[],[],[],[],[],[],[],136.719,138.718,138.718,138.718,[],[],[],[],[],[],[],,138.719,138.719,0.179045093,-0.165782493,0,0,0,,0,16,16,28,1,4,RL,mifikary,print,mifikary_p.png,,,,,,
,,,,31824,001,2025-11-10_15h55.45.347,HW_LDT_1,2024.2.4,MacIntel,58.82352941,,,,,,,,,,,,,,,,,,,,,,138.72,138.918,138.918,139.418,,,,,,,,,,,,,,0.778,1,,,,,,,,,,,,,,m,,,,,,,,,,,,,,,,18,1,139.418,140.203,m,1,0.778,,[],[],[],[],[],[],[],140.203,142.202,142.202,143.852,[],[],[],[],[],[],[],m,143.852,143.852,0.179045093,-0.165782493,0,0,0,,0,17,17,157,1,4,word,VALIDITY,print,validity_p.png,1.641,,,,,
,,,,31824,001,2025-11-10_15h55.45.347,HW_LDT_1,2024.2.4,MacIntel,58.82352941,,,,,,,,,,,,,,,,,,,,,,143.854,144.051,144.051,144.551,,,,,,,,,,,,,,1.139,1,,,,,,,,,,,,,,z,,,,,,,,,,,,,,,,19,1,144.552,145.701,z,1,1.139,,[],[],[],[],[],[],[],145.701,147.701,147.701,148.968,[],[],[],[],[],[],[],m,148.968,148.969,0.179045093,-0.165782493,0,0,0,,0,18,18,40,1,4,RL,reconal,print,reconal_p.png,1.257,,,,,
,,,,31824,001,2025-11-10_15h55.45.347,HW_LDT_1,2024.2.4,MacIntel,58.82352941,,,,,,,,,,,,,,,,,,,,,,148.97,149.168,149.168,149.668,,,,,,,,,,,,,,1.306,1,,,,,,,,,,,,,,m,,,,,,,,,,,,,,,,20,1,149.668,150.985,m,1,1.306,,[],[],[],[],[],[],[],150.985,152.985,152.985,154.085,[],[],[],[],[],[],[],m,154.085,154.086,0.179045093,-0.165782493,0,0,0,,0,19,19,136,1,4,word,RADICAL,print,radical_p.png,1.09,,,,,
,,,,31824,001,2025-11-10_15h55.45.347,HW_LDT_1,2024.2.4,MacIntel,58.82352941,,,,,,,,,,,,,,,,,,,,,,154.087,154.285,154.285,154.785,,,,,,,,,,,,,,1.49,1,,,,,,,,,,,,,,m,,,,,,,,,,,,,,,,21,0,154.785,156.285,m,1,1.49,,[],[],[],[],[],[],[],156.285,158.285,158.285,158.285,[],[],[],[],[],[],[],,158.285,158.286,0.179045093,-0.165782493,0,0,0,,0,20,20,85,1,4,word,BENEFIT,cursive,benefit_c.png,,,,,,
,,,,31824,001,2025-11-10_15h55.45.347,HW_LDT_1,2024.2.4,MacIntel,58.82352941,,,,,,,,,,,,,,,,,,,,,,158.287,158.485,158.485,158.984,,,,,,,,,,,,,,1.038,1,,,,,,,,,,,,,,z,,,,,,,,,,,,,,,,22,0,158.985,160.035,z,1,1.038,,[],[],[],[],[],[],[],160.035,162.035,162.035,162.035,[],[],[],[],[],[],[],,162.035,162.036,0.179045093,-0.165782493,0,0,0,,0,21,21,68,1,4,TL,prosopal,print,prosopal_p.png,,,,,,
,,,,31824,001,2025-11-10_15h55.45.347,HW_LDT_1,2024.2.4,MacIntel,58.82352941,,,,,,,,,,,,,,,,,,,,,,162.037,162.235,162.235,162.735,,,,,,,,,,,,,,1.141,1,,,,,,,,,,,,,,z,,,,,,,,,,,,,,,,23,0,162.735,163.885,z,1,1.141,,[],[],[],[],[],[],[],163.885,165.885,165.885,165.885,[],[],[],[],[],[],[],,165.885,165.886,0.179045093,-0.165782493,0,0,0,,0,22,22,64,1,4,TL,moredate,print,moredate_p.png,,,,,,
,,,,31824,001,2025-11-10_15h55.45.347,HW_LDT_1,2024.2.4,MacIntel,58.82352941,,,,,,,,,,,,,,,,,,,,,,165.887,166.084,166.084,166.585,,,,,,,,,,,,,,0.873,1,,,,,,,,,,,,,,z,,,,,,,,,,,,,,,,24,0,166.585,167.468,z,1,0.873,,[],[],[],[],[],[],[],167.468,169.468,169.468,169.469,[],[],[],[],[],[],[],,169.469,169.469,0.179045093,-0.165782493,0,0,0,,0,23,23,19,1,4,RL,elacodate,cursive,elacodate_c.png,,,,,,
,,,,31824,001,2025-11-10_15h55.45.347,HW_LDT_1,2024.2.4,MacIntel,58.82352941,,,,,,,,,,,,,,,,,,,,,,169.47,169.668,169.668,170.168,,,,,,,,,,,,,,1.186,1,,,,,,,,,,,,,,m,,,,,,,,,,,,,,,,25,0,170.169,171.368,m,1,1.186,,[],[],[],[],[],[],[],171.368,173.368,173.368,173.368,[],[],[],[],[],[],[],,173.368,173.369,0.179045093,-0.165782493,0,0,0,,0,24,24,122,1,4,word,MOBILE,print,mobile_p.png,,,,,,
,,,,31824,001,2025-11-10_15h55.45.347,HW_LDT_1,2024.2.4,MacIntel,58.82352941,,,,,,,,,,,,,,,,,,,,,,173.37,173.568,173.568,174.068,,,,,,,,,,,,,,1.341,1,,,,,,,,,,,,,,z,,,,,,,,,,,,,,,,26,0,174.068,175.418,z,1,1.341,,[],[],[],[],[],[],[],175.418,177.418,177.418,177.418,[],[],[],[],[],[],[],,177.418,177.419,0.179045093,-0.165782493,0,0,0,,0,25,25,74,1,4,TL,rerite,print,rerite_p.png,,,,,,
,,,,31824,001,2025-11-10_15h55.45.347,HW_LDT_1,2024.2.4,MacIntel,58.82352941,,,,,,,,,,,,,,,,,,,,,,177.42,177.618,177.618,178.118,,,,,,,,,,,,,,0.854,1,,,,,,,,,,,,,,z,,,,,,,,,,,,,,,,27,0,178.118,178.985,z,1,0.854,,[],[],[],[],[],[],[],178.985,180.985,180.985,180.985,[],[],[],[],[],[],[],,180.985,180.985,0.179045093,-0.165782493,0,0,0,,0,26,26,67,1,4,TL,polupar,print,polupar_p.png,,,,,,
,,,,31824,001,2025-11-10_15h55.45.347,HW_LDT_1,2024.2.4,MacIntel,58.82352941,,,,,,,,,,,,,,,,,,,,,,180.987,181.185,181.185,181.685,,,,,,,,,,,,,,0.97,1,,,,,,,,,,,,,,m,,,,,,,,,,,,,,,,28,0,181.685,182.668,m,1,0.97,,[],[],[],[],[],[],[],182.668,184.668,184.668,184.668,[],[],[],[],[],[],[],,184.669,184.669,0.179045093,-0.165782493,0,0,0,,0,27,27,148,1,4,word,SALINE,print,saline_p.png,,,,,,
,,,,31824,001,2025-11-10_15h55.45.347,HW_LDT_1,2024.2.4,MacIntel,58.82352941,,,,,,,,,,,,,,,,,,,,,,184.67,184.868,184.868,185.368,,,,,,,,,,,,,,1.405,0,,,,,,,,,,,,,,m,,,,,,,,,,,,,,,,29,0,185.368,186.785,z,0,1.405,,[],[],[],[],[],[],[],186.785,188.785,188.785,188.785,[],[],[],[],[],[],[],,188.785,188.785,0.179045093,-0.165782493,0,0,0,,0,28,28,114,1,4,word,LOCATE,cursive,locate_c.png,,,,,,
,,,,31824,001,2025-11-10_15h55.45.347,HW_LDT_1,2024.2.4,MacIntel,58.82352941,,,,,,,,,,,,,,,,,,,,,,188.787,188.985,188.985,189.485,,,,,,,,,,,,,,1.891,0,,,,,,,,,,,,,,z,,,,,,,,,,,,,,,,30,0,189.485,191.385,m,0,1.891,,[],[],[],[],[],[],[],191.385,193.385,193.385,193.385,[],[],[],[],[],[],[],,193.385,193.385,0.179045093,-0.165782493,0,0,0,,0,29,29,15,1,4,RL,debave,cursive,debave_c.png,,,,,,
,,,,31824,001,2025-11-10_15h55.45.347,HW_LDT_1,2024.2.4,MacIntel,58.82352941,,,,,,,,,,,,,,,,,,,,,,193.387,193.585,193.585,194.085,,,,,,,,,,,,,,1.804,1,,,,,,,,,,,,,,m,,,,,,,,,,,,,,,,31,0,194.085,195.902,m,1,1.804,,[],[],[],[],[],[],[],195.902,197.901,197.901,197.901,[],[],[],[],[],[],[],,197.902,197.902,0.179045093,-0.165782493,0,0,0,,0,30,30,137,1,4,word,RAPIDLY,cursive,rapidly_c.png,,,,,,
,,,,31824,001,2025-11-10_15h55.45.347,HW_LDT_1,2024.2.4,MacIntel,58.82352941,,,,,,,,,,,,,,,,,,,,,,197.903,198.101,198.101,198.601,,,,,,,,,,,,,,1.406,1,,,,,,,,,,,,,,m,,,,,,,,,,,,,,,,32,0,198.602,200.018,m,1,1.406,,[],[],[],[],[],[],[],200.018,202.018,202.018,202.019,[],[],[],[],[],[],[],,202.019,202.019,0.179045093,-0.165782493,0,0,0,,0,31,31,126,1,4,word,OPTIMAL,print,optimal_p.png,,,,,,
,,,,31824,001,2025-11-10_15h55.45.347,HW_LDT_1,2024.2.4,MacIntel,58.82352941,,,,,,,,,,,,,,,,,,,,,,202.02,202.218,202.218,202.718,,,,,,,,,,,,,,1.744,1,,,,,,,,,,,,,,m,,,,,,,,,,,,,,,,33,1,202.718,204.473,m,1,1.744,,[],[],[],[],[],[],[],204.473,206.468,206.468,207.351,[],[],[],[],[],[],[],z,207.352,207.352,0.179045093,-0.165782493,0,0,0,,0,32,32,144,1,4,word,RESIDENT,cursive,resident_c.png,0.872,,,,,
,,,,31824,001,2025-11-10_15h55.45.347,HW_LDT_1,2024.2.4,MacIntel,58.82352941,,,,,,,,,,,,,,,,,,,,,,207.353,207.551,207.551,208.051,,,,,,,,,,,,,,0.953,1,,,,,,,,,,,,,,z,,,,,,,,,,,,,,,,34,0,208.052,209.018,z,1,0.953,,[],[],[],[],[],[],[],209.018,211.018,211.018,211.019,[],[],[],[],[],[],[],,211.019,211.019,0.179045093,-0.165782493,0,0,0,,0,33,33,0,1,4,RL,abanemy,print,abanemy_p.png,,,,,,
,,,,31824,001,2025-11-10_15h55.45.347,HW_LDT_1,2024.2.4,MacIntel,58.82352941,,,,,,,,,,,,,,,,,,,,,,211.02,211.218,211.218,211.718,,,,,,,,,,,,,,0.577,1,,,,,,,,,,,,,,m,,,,,,,,,,,,,,,,35,0,211.719,212.301,m,1,0.577,,[],[],[],[],[],[],[],212.302,214.301,214.301,214.302,[],[],[],[],[],[],[],,214.302,214.302,0.179045093,-0.165782493,0,0,0,,0,34,34,132,1,4,word,PROPOSAL,print,proposal_p.png,,,,,,
,,,,31824,001,2025-11-10_15h55.45.347,HW_LDT_1,2024.2.4,MacIntel,58.82352941,,,,,,,,,,,,,,,,,,,,,,214.303,214.501,214.502,215.001,,,,,,,,,,,,,,0.69,1,,,,,,,,,,,,,,m,,,,,,,,,,,,,,,,36,0,215.002,215.701,m,1,0.69,,[],[],[],[],[],[],[],215.702,217.701,217.701,217.702,[],[],[],[],[],[],[],,217.702,217.702,0.179045093,-0.165782493,0,0,0,,0,35,35,121,1,4,word,MISTAKE,print,mistake_p.png,,,,,,
,,,,31824,001,2025-11-10_15h55.45.347,HW_LDT_1,2024.2.4,MacIntel,58.82352941,,,,,,,,,,,,,,,,,,,,,,217.703,217.901,217.901,218.401,,,,,,,,,,,,,,7.591,1,,,,,,,,,,,,,,z,,,,,,,,,,,,,,,,37,1,218.402,226.001,z,1,7.591,,[],[],[],[],[],[],[],226.002,228.001,228.001,229.751,[],[],[],[],[],[],[],z,229.752,229.752,0.179045093,-0.165782493,0,0,0,,0,36,36,41,1,4,RL,rebicent,cursive,rebicent_c.png,1.741,,,,,
,,,,31824,001,2025-11-10_15h55.45.347,HW_LDT_1,2024.2.4,MacIntel,58.82352941,,,,,,,,,,,,,,,,,,,,,,229.753,229.951,229.951,230.451,,,,,,,,,,,,,,1.841,1,,,,,,,,,,,,,,z,,,,,,,,,,,,,,,,38,0,230.451,232.301,z,1,1.841,,[],[],[],[],[],[],[],232.301,234.301,234.301,234.302,[],[],[],[],[],[],[],,234.302,234.302,0.179045093,-0.165782493,0,0,0,,0,37,37,78,1,4,TL,stragety,print,stragety_p.png,,,,,,
,,,,31824,001,2025-11-10_15h55.45.347,HW_LDT_1,2024.2.4,MacIntel,58.82352941,,,,,,,,,,,,,,,,,,,,,,234.303,234.501,234.501,235.001,,,,,,,,,,,,,,0.988,1,,,,,,,,,,,,,,z,,,,,,,,,,,,,,,,39,0,235.002,236.001,z,1,0.988,,[],[],[],[],[],[],[],236.002,238.001,238.001,238.002,[],[],[],[],[],[],[],,238.002,238.002,0.179045093,-0.165782493,0,0,0,,0,38,38,2,1,4,RL,asiral,cursive,asiral_c.png,,,,,,
,,,,31824,001,2025-11-10_15h55.45.347,HW_LDT_1,2024.2.4,MacIntel,58.82352941,,,,,,,,,,,,,,,,,,,,,,238.004,238.201,238.201,238.702,,,,,,,,,,,,,,0.541,1,,,,,,,,,,,,,,z,,,,,,,,,,,,,,,,40,1,238.702,239.251,z,1,0.541,,[],[],[],[],[],[],[],239.251,241.252,241.252,242.335,[],[],[],[],[],[],[],z,242.335,242.335,0.179045093,-0.165782493,0,0,0,,0,39,39,37,1,4,RL,renutal,cursive,renutal_c.png,1.072,,,,,
,,,,31824,001,2025-11-10_15h55.45.347,HW_LDT_1,2024.2.4,MacIntel,58.82352941,,,,,,,,,,,,,,,,,,,,,,242.337,242.535,242.535,243.035,,,,,,,,,,,,,,0.794,0,,,,,,,,,,,,,,m,,,,,,,,,,,,,,,,41,1,243.035,243.835,z,0,0.794,,[],[],[],[],[],[],[],243.835,245.835,245.835,246.752,[],[],[],[],[],[],[],z,246.752,246.752,0.179045093,-0.165782493,0,0,0,,0,40,40,99,1,4,word,DEBATE,cursive,debate_c.png,0.905,,,,,
,,,,31824,001,2025-11-10_15h55.45.347,HW_LDT_1,2024.2.4,MacIntel,58.82352941,,,,,,,,,,,,,,,,,,,,,,246.753,246.951,246.951,247.451,,,,,,,,,,,,,,0.906,1,,,,,,,,,,,,,,z,,,,,,,,,,,,,,,,42,0,247.451,248.368,z,1,0.906,,[],[],[],[],[],[],[],248.368,250.368,250.368,250.368,[],[],[],[],[],[],[],,250.369,250.369,0.179045093,-0.165782493,0,0,0,,0,41,41,3,1,4,RL,bewoted,print,bewoted_p.png,,,,,,
,,,,31824,001,2025-11-10_15h55.45.347,HW_LDT_1,2024.2.4,MacIntel,58.82352941,,,,,,,,,,,,,,,,,,,,,,250.371,250.568,250.568,251.068,,,,,,,,,,,,,,0.848,1,,,,,,,,,,,,,,z,,,,,,,,,,,,,,,,43,0,251.069,251.92,z,1,0.848,,[],[],[],[],[],[],[],251.92,253.918,253.918,253.918,[],[],[],[],[],[],[],,253.918,253.919,0.179045093,-0.165782493,0,0,0,,0,42,42,70,1,4,TL,quatily,print,quatily_p.png,,,,,,
,,,,31824,001,2025-11-10_15h55.45.347,HW_LDT_1,2024.2.4,MacIntel,58.82352941,,,,,,,,,,,,,,,,,,,,,,253.92,254.118,254.118,254.618,,,,,,,,,,,,,,0.743,1,,,,,,,,,,,,,,m,,,,,,,,,,,,,,,,44,1,254.618,255.368,m,1,0.743,,[],[],[],[],[],[],[],255.368,257.368,257.368,257.818,[],[],[],[],[],[],[],m,257.818,257.819,0.179045093,-0.165782493,0,0,0,,0,43,43,100,1,4,word,DECADE,cursive,decade_c.png,0.44,,,,,
,,,,31824,001,2025-11-10_15h55.45.347,HW_LDT_1,2024.2.4,MacIntel,58.82352941,,,,,,,,,,,,,,,,,,,,,,257.82,258.018,258.018,258.518,,,,,,,,,,,,,,2.112,1,,,,,,,,,,,,,,m,,,,,,,,,,,,,,,,45,0,258.518,260.639,m,1,2.112,,[],[],[],[],[],[],[],260.639,262.635,262.635,262.635,[],[],[],[],[],[],[],,262.635,262.635,0.179045093,-0.165782493,0,0,0,,0,44,44,94,1,4,word,CLINICAL,print,clinical_p.png,,,,,,
,,,,31824,001,2025-11-10_15h55.45.347,HW_LDT_1,2024.2.4,MacIntel,58.82352941,,,,,,,,,,,,,,,,,,,,,,262.637,262.835,262.835,263.334,,,,,,,,,,,,,,0.93,1,,,,,,,,,,,,,,z,,,,,,,,,,,,,,,,46,0,263.334,264.269,z,1,0.93,,[],[],[],[],[],[],[],264.269,266.268,266.268,266.268,[],[],[],[],[],[],[],,266.268,266.269,0.179045093,-0.165782493,0,0,0,,0,45,45,36,1,4,RL,rabigly,cursive,rabigly_c.png,,,,,,
,,,,31824,001,2025-11-10_15h55.45.347,HW_LDT_1,2024.2.4,MacIntel,58.82352941,,,,,,,,,,,,,,,,,,,,,,266.27,266.468,266.468,266.968,,,,,,,,,,,,,,0.989,1,,,,,,,,,,,,,,m,,,,,,,,,,,,,,,,47,0,266.969,267.968,m,1,0.989,,[],[],[],[],[],[],[],267.968,269.968,269.968,269.969,[],[],[],[],[],[],[],,269.969,269.969,0.179045093,-0.165782493,0,0,0,,0,46,46,139,1,4,word,REGULAR,cursive,regular_c.png,,,,,,
,,,,31824,001,2025-11-10_15h55.45.347,HW_LDT_1,2024.2.4,MacIntel,58.82352941,,,,,,,,,,,,,,,,,,,,,,269.97,270.168,270.168,270.668,,,,,,,,,,,,,,1.358,0,,,,,,,,,,,,,,z,,,,,,,,,,,,,,,,48,0,270.668,272.035,m,0,1.358,,[],[],[],[],[],[],[],272.035,274.035,274.035,274.035,[],[],[],[],[],[],[],,274.035,274.035,0.179045093,-0.165782493,0,0,0,,0,47,47,56,1,4,TL,donimant,cursive,donimant_c.png,,,,,,
,,,,31824,001,2025-11-10_15h55.45.347,HW_LDT_1,2024.2.4,MacIntel,58.82352941,,,,,,,,,,,,,,,,,,,,,,274.037,274.235,274.235,274.734,,,,,,,,,,,,,,1.226,1,,,,,,,,,,,,,,m,,,,,,,,,,,,,,,,49,0,274.734,275.968,m,1,1.226,,[],[],[],[],[],[],[],275.968,277.968,277.968,277.969,[],[],[],[],[],[],[],,277.969,277.969,0.179045093,-0.165782493,0,0,0,,0,48,48,158,1,4,word,VELOCITY,cursive,velocity_c.png,,,,,,
,,,,31824,001,2025-11-10_15h55.45.347,HW_LDT_1,2024.2.4,MacIntel,58.82352941,,,,,,,,,,,,,,,,,,,,,,277.97,278.168,278.168,278.668,,,,,,,,,,,,,,0.974,1,,,,,,,,,,,,,,m,,,,,,,,,,,,,,,,50,1,278.669,279.651,m,1,0.974,,[],[],[],[],[],[],[],279.651,281.652,281.652,284.085,[],[],[],[],[],[],[],z,284.085,284.085,0.179045093,-0.165782493,0,0,0,,0,49,49,89,1,4,word,CAPACITY,cursive,capacity_c.png,2.429,,,,,
,,,,31824,001,2025-11-10_15h55.45.347,HW_LDT_1,2024.2.4,MacIntel,58.82352941,,,,,,,,,,,,,,,,,,,,,,284.087,284.285,284.285,284.785,,,,,,,,,,,,,,2.172,1,,,,,,,,,,,,,,z,,,,,,,,,,,,,,,,51,0,284.785,286.968,z,1,2.172,,[],[],[],[],[],[],[],286.968,288.968,288.968,288.969,[],[],[],[],[],[],[],,288.969,288.969,0.179045093,-0.165782493,0,0,0,,0,50,50,35,1,4,RL,probice,cursive,probice_c.png,,,,,,
,,,,31824,001,2025-11-10_15h55.45.347,HW_LDT_1,2024.2.4,MacIntel,58.82352941,,,,,,,,,,,,,,,,,,,,,,288.97,289.168,289.168,289.668,,,,,,,,,,,,,,2.641,0,,,,,,,,,,,,,,z,,,,,,,,,,,,,,,,52,0,289.669,292.318,m,0,2.641,,[],[],[],[],[],[],[],292.318,294.318,294.318,294.318,[],[],[],[],[],[],[],,294.318,294.319,0.179045093,-0.165782493,0,0,0,,0,51,51,59,1,4,TL,fornute,cursive,fornute_c.png,,,,,,
,,,,31824,001,2025-11-10_15h55.45.347,HW_LDT_1,2024.2.4,MacIntel,58.82352941,,,,,,,,,,,,,,,,,,,,,,294.32,294.518,294.518,295.018,,,,,,,,,,,,,,0.671,1,,,,,,,,,,,,,,m,,,,,,,,,,,,,,,,53,0,295.018,295.702,m,1,0.671,,[],[],[],[],[],[],[],295.702,297.701,297.701,297.701,[],[],[],[],[],[],[],,297.701,297.701,0.179045093,-0.165782493,0,0,0,,0,52,52,156,1,4,word,TRIBUTE,print,tribute_p.png,,,,,,
,,,,31824,001,2025-11-10_15h55.45.347,HW_LDT_1,2024.2.4,MacIntel,58.82352941,,,,,,,,,,,,,,,,,,,,,,297.703,297.901,297.902,298.402,,,,,,,,,,,,,,1.225,1,,,,,,,,,,,,,,z,,,,,,,,,,,,,,,,54,0,298.402,299.635,z,1,1.225,,[],[],[],[],[],[],[],299.635,301.635,301.635,301.635,[],[],[],[],[],[],[],,301.635,301.636,0.179045093,-0.165782493,0,0,0,,0,53,53,69,1,4,TL,quafily,print,quafily_p.png,,,,,,
,,,,31824,001,2025-11-10_15h55.45.347,HW_LDT_1,2024.2.4,MacIntel,58.82352941,,,,,,,,,,,,,,,,,,,,,,301.637,301.835,301.835,302.335,,,,,,,,,,,,,,0.64,1,,,,,,,,,,,,,,z,,,,,,,,,,,,,,,,55,0,302.335,302.985,z,1,0.64,,[],[],[],[],[],[],[],302.985,304.985,304.985,304.985,[],[],[],[],[],[],[],,304.985,304.985,0.179045093,-0.165782493,0,0,0,,0,54,54,47,1,4,RL,stopave,print,stopave_p.png,,,,,,
,,,,31824,001,2025-11-10_15h55.45.347,HW_LDT_1,2024.2.4,MacIntel,58.82352941,,,,,,,,,,,,,,,,,,,,,,304.985,305.185,305.185,305.685,,,,,,,,,,,,,,0.604,1,,,,,,,,,,,,,,m,,,,,,,,,,,,,,,,56,0,305.685,306.302,m,1,0.604,,[],[],[],[],[],[],[],306.302,308.302,308.302,308.302,[],[],[],[],[],[],[],,308.302,308.302,0.179045093,-0.165782493,0,0,0,,0,55,55,129,1,4,word,PARENT,cursive,parent_c.png,,,,,,
,,,,31824,001,2025-11-10_15h55.45.347,HW_LDT_1,2024.2.4,MacIntel,58.82352941,,,,,,,,,,,,,,,,,,,,,,308.303,308.501,308.502,309.001,,,,,,,,,,,,,,0.625,1,,,,,,,,,,,,,,m,,,,,,,,,,,,,,,,57,0,309.002,309.635,m,1,0.625,,[],[],[],[],[],[],[],309.635,311.635,311.635,311.635,[],[],[],[],[],[],[],,311.635,311.636,0.179045093,-0.165782493,0,0,0,,0,56,56,104,1,4,word,DOMINANT,cursive,dominant_c.png,,,,,,
,,,,31824,001,2025-11-10_15h55.45.347,HW_LDT_1,2024.2.4,MacIntel,58.82352941,,,,,,,,,,,,,,,,,,,,,,311.637,311.835,311.835,312.335,,,,,,,,,,,,,,1.664,1,,,,,,,,,,,,,,m,,,,,,,,,,,,,,,,58,0,312.335,314.005,m,1,1.664,,[],[],[],[],[],[],[],314.005,316.001,316.002,316.002,[],[],[],[],[],[],[],,316.002,316.002,0.179045093,-0.165782493,0,0,0,,0,57,57,141,1,4,word,RELIGION,print,religion_p.png,,,,,,
,,,,31824,001,2025-11-10_15h55.45.347,HW_LDT_1,2024.2.4,MacIntel,58.82352941,,,,,,,,,,,,,,,,,,,,,,316.003,316.202,316.202,316.701,,,,,,,,,,,,,,0.945,1,,,,,,,,,,,,,,m,,,,,,,,,,,,,,,,59,1,316.702,317.653,m,1,0.945,,[],[],[],[],[],[],[],317.654,319.652,319.652,323.652,[],[],[],[],[],[],[],m,323.652,323.652,0.179045093,-0.165782493,0,0,0,,0,58,58,149,1,4,word,SENATOR,print,senator_p.png,3.992,,,,,
,,,,31824,001,2025-11-10_15h55.45.347,HW_LDT_1,2024.2.4,MacIntel,58.82352941,,,,,,,,,,,,,,,,,,,,,,323.653,323.852,323.852,324.352,,,,,,,,,,,,,,0.76,1,,,,,,,,,,,,,,m,,,,,,,,,,,,,,,,60,0,324.352,325.118,m,1,0.76,,[],[],[],[],[],[],[],325.118,327.118,327.118,327.119,[],[],[],[],[],[],[],,327.119,327.119,0.179045093,-0.165782493,0,0,0,,0,59,59,103,1,4,word,DISPUTE,print,dispute_p.png,,,,,,
,,,,31824,001,2025-11-10_15h55.45.347,HW_LDT_1,2024.2.4,MacIntel,58.82352941,,,,,,,,,,,,,,,,,,,,,,327.12,327.318,327.318,327.818,,,,,,,,,,,,,,1.773,0,,,,,,,,,,,,,,m,,,,,,,,,,,,,,,,61,0,327.819,329.602,z,0,1.773,,[],[],[],[],[],[],[],329.602,331.602,331.602,331.602,[],[],[],[],[],[],[],,331.602,331.602,0.179045093,-0.165782493,0,0,0,,0,60,60,113,1,4,word,LITERAL,cursive,literal_c.png,,,,,,
,,,,31824,001,2025-11-10_15h55.45.347,HW_LDT_1,2024.2.4,MacIntel,58.82352941,,,,,,,,,,,,,,,,,,,,,,331.604,331.802,331.802,332.302,,,,,,,,,,,,,,0.705,1,,,,,,,,,,,,,,m,,,,,,,,,,,,,,,,62,0,332.302,333.018,m,1,0.705,,[],[],[],[],[],[],[],333.018,335.018,335.018,335.019,[],[],[],[],[],[],[],,335.019,335.019,0.179045093,-0.163129973,0,0,0,,0,61,61,140,1,4,word,RELATIVE,print,relative_p.png,,,,,,
,,,,31824,001,2025-11-10_15h55.45.347,HW_LDT_1,2024.2.4,MacIntel,58.82352941,,,,,,,,,,,,,,,,,,,,,,335.02,335.218,335.218,335.718,,,,,,,,,,,,,,0.691,0,,,,,,,,,,,,,,z,,,,,,,,,,,,,,,,63,0,335.719,336.418,m,0,0.691,,[],[],[],[],[],[],[],336.418,338.418,338.418,338.419,[],[],[],[],[],[],[],,338.419,338.419,0.179045093,-0.163129973,0,0,0,,0,62,62,75,1,4,TL,sanile,print,sanile_p.png,,,,,,
,,,,31824,001,2025-11-10_15h55.45.347,HW_LDT_1,2024.2.4,MacIntel,58.82352941,,,,,,,,,,,,,,,,,,,,,,338.42,338.618,338.618,339.118,,,,,,,,,,,,,,0.807,0,,,,,,,,,,,,,,z,,,,,,,,,,,,,,,,64,0,339.119,339.935,m,0,0.807,,[],[],[],[],[],[],[],339.935,341.935,341.935,341.935,[],[],[],[],[],[],[],,341.935,341.935,0.179045093,-0.163129973,0,0,0,,0,63,63,14,1,4,RL,delahe,cursive,delahe_c.png,,,,,,
,,,,31824,001,2025-11-10_15h55.45.347,HW_LDT_1,2024.2.4,MacIntel,58.82352941,,,,,,,,,,,,,,,,,,,,,,341.937,342.135,342.135,342.635,,,,,,,,,,,,,,0.908,1,,,,,,,,,,,,,,m,,,,,,,,,,,,,,,,65,0,342.635,343.552,m,1,0.908,,[],[],[],[],[],[],[],343.552,345.552,345.552,345.552,[],[],[],[],[],[],[],,345.552,345.552,0.179045093,-0.163129973,0,0,0,,0,64,64,120,1,4,word,MILITARY,print,military_p.png,,,,,,
,,,,31824,001,2025-11-10_15h55.45.347,HW_LDT_1,2024.2.4,MacIntel,58.82352941,,,,,,,,,,,,,,,,,,,,,,345.553,345.752,345.752,346.252,,,,,,,,,,,,,,0.775,1,,,,,,,,,,,,,,m,,,,,,,,,,,,,,,,66,0,346.252,347.035,m,1,0.775,,[],[],[],[],[],[],[],347.035,349.035,349.035,349.035,[],[],[],[],[],[],[],,349.035,349.036,0.179045093,-0.163129973,0,0,0,,0,65,65,146,1,4,word,RETIRE,print,retire_p.png,,,,,,
,,,,31824,001,2025-11-10_15h55.45.347,HW_LDT_1,2024.2.4,MacIntel,58.82352941,,,,,,,,,,,,,,,,,,,,,,349.037,349.235,349.235,349.735,,,,,,,,,,,,,,0.875,1,,,,,,,,,,,,,,m,,,,,,,,,,,,,,,,67,0,349.735,350.618,m,1,0.875,,[],[],[],[],[],[],[],350.618,352.618,352.618,352.618,[],[],[],[],[],[],[],,352.619,352.619,0.179045093,-0.163129973,0,0,0,,0,66,66,98,1,4,word,CRIMINAL,cursive,criminal_c.png,,,,,,
,,,,31824,001,2025-11-10_15h55.45.347,HW_LDT_1,2024.2.4,MacIntel,58.82352941,,,,,,,,,,,,,,,,,,,,,,352.62,352.818,352.818,353.318,,,,,,,,,,,,,,1.125,1,,,,,,,,,,,,,,z,,,,,,,,,,,,,,,,68,0,353.319,354.452,z,1,1.125,,[],[],[],[],[],[],[],354.452,356.451,356.451,356.452,[],[],[],[],[],[],[],,356.452,356.452,0.179045093,-0.163129973,0,0,0,,0,67,67,16,1,4,RL,desifate,cursive,desifate_c.png,,,,,,
,,,,31824,001,2025-11-10_15h55.45.347,HW_LDT_1,2024.2.4,MacIntel,58.82352941,,,,,,,,,,,,,,,,,,,,,,356.453,356.652,356.652,357.152,,,,,,,,,,,,,,0.839,1,,,,,,,,,,,,,,z,,,,,,,,,,,,,,,,69,0,357.152,358.002,z,1,0.839,,[],[],[],[],[],[],[],358.002,360.002,360.002,360.002,[],[],[],[],[],[],[],,360.002,360.002,0.179045093,-0.163129973,0,0,0,,0,68,68,54,1,4,TL,codemy,print,codemy_p.png,,,,,,
,,,,31824,001,2025-11-10_15h55.45.347,HW_LDT_1,2024.2.4,MacIntel,58.82352941,,,,,,,,,,,,,,,,,,,,,,360.004,360.202,360.202,360.702,,,,,,,,,,,,,,0.687,1,,,,,,,,,,,,,,z,,,,,,,,,,,,,,,,70,0,360.702,361.402,z,1,0.687,,[],[],[],[],[],[],[],361.402,363.401,363.401,363.401,[],[],[],[],[],[],[],,363.402,363.402,0.179045093,-0.163129973,0,0,0,,0,69,69,39,1,4,RL,relone,cursive,relone_c.png,,,,,,
,,,,31824,001,2025-11-10_15h55.45.347,HW_LDT_1,2024.2.4,MacIntel,58.82352941,,,,,,,,,,,,,,,,,,,,,,363.403,363.601,363.601,364.102,,,,,,,,,,,,,,1.142,1,,,,,,,,,,,,,,m,,,,,,,,,,,,,,,,71,0,364.102,365.252,m,1,1.142,,[],[],[],[],[],[],[],365.252,367.252,367.252,367.252,[],[],[],[],[],[],[],,367.252,367.252,0.179045093,-0.163129973,0,0,0,,0,70,70,130,1,4,word,POLICY,cursive,policy_c.png,,,,,,
,,,,31824,001,2025-11-10_15h55.45.347,HW_LDT_1,2024.2.4,MacIntel,58.82352941,,,,,,,,,,,,,,,,,,,,,,367.254,367.452,367.452,367.952,,,,,,,,,,,,,,1.354,1,,,,,,,,,,,,,,z,,,,,,,,,,,,,,,,72,1,367.952,369.318,z,1,1.354,,[],[],[],[],[],[],[],369.319,371.318,371.319,397.418,[],[],[],[],[],[],[],z,397.418,397.418,0.75198939,0.397877984,0,0,0,,0,71,71,18,1,4,RL,disluge,print,disluge_p.png,26.09,,,,,
,,,,31824,001,2025-11-10_15h55.45.347,HW_LDT_1,2024.2.4,MacIntel,58.82352941,,,,,,,,,,,,,,,,,,,,,,397.42,397.619,397.619,398.118,,,,,,,,,,,,,,0.103,1,,,,,,,,,,,,,,z,,,,,,,,,,,,,,,,73,0,398.119,398.235,z,1,0.103,,[],[],[],[],[],[],[],398.235,400.235,400.235,400.236,[],[],[],[],[],[],[],,400.236,400.236,0.75198939,0.397877984,0,0,0,,0,72,72,61,1,4,TL,lotace,cursive,lotace_c.png,,,,,,
,,,,31824,001,2025-11-10_15h55.45.347,HW_LDT_1,2024.2.4,MacIntel,58.82352941,,,,,,,,,,,,,,,,,,,,,,400.238,400.435,400.435,400.935,,,,,,,,,,,,,,21.626,1,,,,,,,,,,,,,,z,,,,,,,,,,,,,,,,74,0,400.935,422.568,z,1,21.626,,[],[],[],[],[],[],[],422.568,424.568,424.569,424.569,[],[],[],[],[],[],[],,424.569,424.569,0.75198939,0.397877984,0,0,0,,0,73,73,31,1,4,RL,orimipal,print,orimipal_p.png,,,,,,
,,,,31824,001,2025-11-10_15h55.45.347,HW_LDT_1,2024.2.4,MacIntel,58.82352941,,,,,,,,,,,,,,,,,,,,,,424.571,424.768,424.768,425.268,,,,,,,,,,,,,,1.142,1,,,,,,,,,,,,,,z,,,,,,,,,,,,,,,,75,0,425.269,426.419,z,1,1.142,,[],[],[],[],[],[],[],426.419,428.418,428.418,428.419,[],[],[],[],[],[],[],,428.419,428.419,0.809018568,0.525198939,0,0,0,,0,74,74,42,1,4,RL,revune,print,revune_p.png,,,,,,
,,,,31824,001,2025-11-10_15h55.45.347,HW_LDT_1,2024.2.4,MacIntel,58.82352941,,,,,,,,,,,,,,,,,,,,,,428.42,428.618,428.619,429.117,,,,,,,,,,,,,,1.807,1,,,,,,,,,,,,,,z,,,,,,,,,,,,,,,,76,0,429.118,430.935,z,1,1.807,,[],[],[],[],[],[],[],430.935,432.935,432.935,432.935,[],[],[],[],[],[],[],,432.935,432.935,0.809018568,0.525198939,0,0,0,,0,75,75,44,1,4,RL,senvilent,print,senvilent_p.png,,,,,,
,,,,31824,001,2025-11-10_15h55.45.347,HW_LDT_1,2024.2.4,MacIntel,58.82352941,,,,,,,,,,,,,,,,,,,,,,432.937,433.135,433.135,433.635,,,,,,,,,,,,,,1.26,1,,,,,,,,,,,,,,m,,,,,,,,,,,,,,,,77,0,433.635,434.904,m,1,1.26,,[],[],[],[],[],[],[],434.904,436.902,436.902,436.902,[],[],[],[],[],[],[],,436.902,436.902,0.809018568,0.525198939,0,0,0,,0,76,76,115,1,4,word,LOGICAL,print,logical_p.png,,,,,,
,,,,31824,001,2025-11-10_15h55.45.347,HW_LDT_1,2024.2.4,MacIntel,58.82352941,,,,,,,,,,,,,,,,,,,,,,436.904,437.102,437.102,437.602,,,,,,,,,,,,,,1.808,1,,,,,,,,,,,,,,m,,,,,,,,,,,,,,,,78,0,437.602,439.419,m,1,1.808,,[],[],[],[],[],[],[],439.419,441.418,441.418,441.419,[],[],[],[],[],[],[],,441.419,441.419,0.809018568,0.525198939,0,0,0,,0,77,77,109,1,4,word,GRATEFUL,print,grateful_p.png,,,,,,
,,,,31824,001,2025-11-10_15h55.45.347,HW_LDT_1,2024.2.4,MacIntel,58.82352941,,,,,,,,,,,,,,,,,,,,,,441.42,441.618,441.618,442.118,,,,,,,,,,,,,,1.479,1,,,,,,,,,,,,,,z,,,,,,,,,,,,,,,,79,0,442.119,443.602,z,1,1.479,,[],[],[],[],[],[],[],443.602,445.602,445.602,445.602,[],[],[],[],[],[],[],,445.602,445.602,0.809018568,0.525198939,0,0,0,,0,78,78,52,1,4,TL,cagetory,cursive,cagetory_c.png,,,,,,
,,,,31824,001,2025-11-10_15h55.45.347,HW_LDT_1,2024.2.4,MacIntel,58.82352941,,,,,,,,,,,,,,,,,,,,,,445.603,445.802,445.802,446.302,,,,,,,,,,,,,,3.122,1,,,,,,,,,,,,,,z,,,,,,,,,,,,,,,,80,0,446.302,449.435,z,1,3.122,,[],[],[],[],[],[],[],449.435,451.435,451.435,451.435,[],[],[],[],[],[],[],,451.436,825.142,0.809018568,0.525198939,0,0,0,space,0,79,79,13,1,4,RL,crisival,cursive,crisival_c.png,,,373.675,,,
,,,,31824,001,2025-11-10_15h55.45.347,HW_LDT_1,2024.2.4,MacIntel,58.82352941,,,,,,,,,,,,,,,,,,,,,,825.144,825.342,825.342,825.842,,,,,,,,,,,,,,2.122,1,,,,,,,,,,,,,,m,,,,,,,,,,,,,,,,81,0,825.842,827.975,m,1,2.122,,[],[],[],[],[],[],[],827.975,829.975,829.975,829.976,[],[],[],[],[],[],[],,829.976,829.976,0.809018568,0.525198939,0,0,0,,0,80,80,135,1,4,word,QUALITY,print,quality_p.png,,,,,,
,,,,31824,001,2025-11-10_15h55.45.347,HW_LDT_1,2024.2.4,MacIntel,58.82352941,,,,,,,,,,,,,,,,,,,,,,829.978,830.175,830.175,830.675,,,,,,,,,,,,,,1.787,1,,,,,,,,,,,,,,m,,,,,,,,,,,,,,,,82,0,830.676,832.475,m,1,1.787,,[],[],[],[],[],[],[],832.476,834.475,834.475,834.476,[],[],[],[],[],[],[],,834.476,834.476,0.809018568,0.525198939,0,0,0,,0,81,81,91,1,4,word,CARDINAL,cursive,cardinal_c.png,,,,,,
,,,,31824,001,2025-11-10_15h55.45.347,HW_LDT_1,2024.2.4,MacIntel,58.82352941,,,,,,,,,,,,,,,,,,,,,,834.477,834.675,834.675,835.175,,,,,,,,,,,,,,1.411,1,,,,,,,,,,,,,,m,,,,,,,,,,,,,,,,83,0,835.176,836.594,m,1,1.411,,[],[],[],[],[],[],[],836.595,838.592,838.592,838.592,[],[],[],[],[],[],[],,838.592,838.592,0.809018568,0.525198939,0,0,0,,0,82,82,151,1,4,word,SPECIFIC,cursive,specific_c.png,,,,,,
,,,,31824,001,2025-11-10_15h55.45.347,HW_LDT_1,2024.2.4,MacIntel,58.82352941,,,,,,,,,,,,,,,,,,,,,,838.594,838.791,838.791,839.292,,,,,,,,,,,,,,1.731,1,,,,,,,,,,,,,,z,,,,,,,,,,,,,,,,84,0,839.292,841.026,z,1,1.731,,[],[],[],[],[],[],[],841.026,843.025,843.025,843.025,[],[],[],[],[],[],[],,843.026,843.026,0.809018568,0.525198939,0,0,0,,0,83,83,5,1,4,RL,bebine,print,bebine_p.png,,,,,,
,,,,31824,001,2025-11-10_15h55.45.347,HW_LDT_1,2024.2.4,MacIntel,58.82352941,,,,,,,,,,,,,,,,,,,,,,843.027,843.226,843.226,843.725,,,,,,,,,,,,,,1.055,1,,,,,,,,,,,,,,z,,,,,,,,,,,,,,,,85,0,843.726,844.792,z,1,1.055,,[],[],[],[],[],[],[],844.792,846.792,846.792,846.792,[],[],[],[],[],[],[],,846.792,846.792,0.809018568,0.525198939,0,0,0,,0,84,84,57,1,4,TL,etidor,print,etidor_p.png,,,,,,
,,,,31824,001,2025-11-10_15h55.45.347,HW_LDT_1,2024.2.4,MacIntel,58.82352941,,,,,,,,,,,,,,,,,,,,,,846.793,846.992,846.992,847.492,,,,,,,,,,,,,,0.632,0,,,,,,,,,,,,,,m,,,,,,,,,,,,,,,,86,0,847.492,848.125,z,0,0.632,,[],[],[],[],[],[],[],848.125,850.125,850.125,850.125,[],[],[],[],[],[],[],,850.125,850.126,0.809018568,0.525198939,0,0,0,,0,85,85,95,1,4,word,COMEDY,print,comedy_p.png,,,,,,
,,,,31824,001,2025-11-10_15h55.45.347,HW_LDT_1,2024.2.4,MacIntel,58.82352941,,,,,,,,,,,,,,,,,,,,,,850.127,850.325,850.325,850.825,,,,,,,,,,,,,,1.671,1,,,,,,,,,,,,,,m,,,,,,,,,,,,,,,,87,0,850.826,852.509,m,1,1.671,,[],[],[],[],[],[],[],852.509,854.508,854.508,854.509,[],[],[],[],[],[],[],,854.509,854.509,0.809018568,0.525198939,0,0,0,,0,86,86,84,1,4,word,BELOVED,print,beloved_p.png,,,,,,
,,,,31824,001,2025-11-10_15h55.45.347,HW_LDT_1,2024.2.4,MacIntel,58.82352941,,,,,,,,,,,,,,,,,,,,,,854.51,854.708,854.708,855.208,,,,,,,,,,,,,,1.165,1,,,,,,,,,,,,,,m,,,,,,,,,,,,,,,,88,0,855.209,856.38,m,1,1.165,,[],[],[],[],[],[],[],856.38,858.375,858.375,858.375,[],[],[],[],[],[],[],,858.376,858.376,0.809018568,0.525198939,0,0,0,,0,87,87,88,1,4,word,CAMERA,print,camera_p.png,,,,,,
,,,,31824,001,2025-11-10_15h55.45.347,HW_LDT_1,2024.2.4,MacIntel,58.82352941,,,,,,,,,,,,,,,,,,,,,,858.377,858.575,858.575,859.075,,,,,,,,,,,,,,0.71,1,,,,,,,,,,,,,,m,,,,,,,,,,,,,,,,89,1,859.075,859.792,m,1,0.71,,[],[],[],[],[],[],[],859.792,861.792,861.792,862.93,[],[],[],[],[],[],[],m,862.931,862.931,0.809018568,0.525198939,0,0,0,,0,88,88,86,1,4,word,BESIDE,print,beside_p.png,1.132,,,,,
,,,,31824,001,2025-11-10_15h55.45.347,HW_LDT_1,2024.2.4,MacIntel,58.82352941,,,,,,,,,,,,,,,,,,,,,,862.932,863.125,863.125,863.625,,,,,,,,,,,,,,1.055,1,,,,,,,,,,,,,,z,,,,,,,,,,,,,,,,90,0,863.626,864.692,z,1,1.055,,[],[],[],[],[],[],[],864.692,866.692,866.692,866.692,[],[],[],[],[],[],[],,866.692,866.692,0.809018568,0.525198939,0,0,0,,0,89,89,21,1,4,RL,insibate,print,insibate_p.png,,,,,,
,,,,31824,001,2025-11-10_15h55.45.347,HW_LDT_1,2024.2.4,MacIntel,58.82352941,,,,,,,,,,,,,,,,,,,,,,866.693,866.892,866.892,867.392,,,,,,,,,,,,,,0.821,1,,,,,,,,,,,,,,z,,,,,,,,,,,,,,,,91,0,867.392,868.226,z,1,0.821,,[],[],[],[],[],[],[],868.226,870.225,870.225,870.225,[],[],[],[],[],[],[],,870.226,870.226,0.809018568,0.525198939,0,0,0,,0,90,90,55,1,4,TL,corevage,cursive,corevage_c.png,,,,,,
,,,,31824,001,2025-11-10_15h55.45.347,HW_LDT_1,2024.2.4,MacIntel,58.82352941,,,,,,,,,,,,,,,,,,,,,,870.227,870.425,870.425,870.925,,,,,,,,,,,,,,1.845,1,,,,,,,,,,,,,,z,,,,,,,,,,,,,,,,92,0,870.925,872.775,z,1,1.845,,[],[],[],[],[],[],[],872.775,874.775,874.775,874.775,[],[],[],[],[],[],[],,874.776,874.776,0.809018568,0.525198939,0,0,0,,0,91,91,33,1,4,RL,pamest,cursive,pamest_c.png,,,,,,
,,,,31824,001,2025-11-10_15h55.45.347,HW_LDT_1,2024.2.4,MacIntel,58.82352941,,,,,,,,,,,,,,,,,,,,,,874.777,874.975,874.975,875.475,,,,,,,,,,,,,,0.961,1,,,,,,,,,,,,,,m,,,,,,,,,,,,,,,,93,1,875.476,876.443,m,1,0.961,,[],[],[],[],[],[],[],876.443,878.442,878.442,880.309,[],[],[],[],[],[],[],z,880.309,880.309,0.809018568,0.525198939,0,0,0,,0,92,92,97,1,4,word,COVERAGE,cursive,coverage_c.png,1.855,,,,,
,,,,31824,001,2025-11-10_15h55.45.347,HW_LDT_1,2024.2.4,MacIntel,58.82352941,,,,,,,,,,,,,,,,,,,,,,880.31,880.508,880.508,881.009,,,,,,,,,,,,,,1.205,1,,,,,,,,,,,,,,m,,,,,,,,,,,,,,,,94,1,881.009,882.225,m,1,1.205,,[],[],[],[],[],[],[],882.225,884.225,884.225,885.976,[],[],[],[],[],[],[],m,885.976,885.976,0.809018568,0.525198939,0,0,0,,0,93,93,150,1,4,word,SENTIMENT,print,sentiment_p.png,1.739,,,,,
,,,,31824,001,2025-11-10_15h55.45.347,HW_LDT_1,2024.2.4,MacIntel,58.82352941,,,,,,,,,,,,,,,,,,,,,,885.977,886.175,886.175,886.675,,,,,,,,,,,,,,2.445,1,,,,,,,,,,,,,,m,,,,,,,,,,,,,,,,95,0,886.676,889.127,m,1,2.445,,[],[],[],[],[],[],[],889.128,891.125,891.125,891.126,[],[],[],[],[],[],[],,891.126,891.126,0.809018568,0.525198939,0,0,0,,0,94,94,81,1,4,word,ADVISORY,cursive,advisory_c.png,,,,,,
,,,,31824,001,2025-11-10_15h55.45.347,HW_LDT_1,2024.2.4,MacIntel,58.82352941,,,,,,,,,,,,,,,,,,,,,,891.127,891.325,891.325,891.825,,,,,,,,,,,,,,1.321,1,,,,,,,,,,,,,,m,,,,,,,,,,,,,,,,96,0,891.826,893.159,m,1,1.321,,[],[],[],[],[],[],[],893.159,895.159,895.159,895.159,[],[],[],[],[],[],[],,895.159,895.159,0.809018568,0.525198939,0,0,0,,0,95,95,102,1,4,word,DENSITY,cursive,density_c.png,,,,,,
,,,,31824,001,2025-11-10_15h55.45.347,HW_LDT_1,2024.2.4,MacIntel,58.82352941,,,,,,,,,,,,,,,,,,,,,,895.161,895.358,895.359,895.859,,,,,,,,,,,,,,1.361,1,,,,,,,,,,,,,,m,,,,,,,,,,,,,,,,97,0,895.859,897.226,m,1,1.361,,[],[],[],[],[],[],[],897.226,899.225,899.225,899.225,[],[],[],[],[],[],[],,899.226,899.226,0.809018568,0.525198939,0,0,0,,0,96,96,147,1,4,word,ROMANTIC,print,romantic_p.png,,,,,,
,,,,31824,001,2025-11-10_15h55.45.347,HW_LDT_1,2024.2.4,MacIntel,58.82352941,,,,,,,,,,,,,,,,,,,,,,899.227,899.425,899.425,899.925,,,,,,,,,,,,,,1.338,1,,,,,,,,,,,,,,z,,,,,,,,,,,,,,,,98,1,899.925,901.275,z,1,1.338,,[],[],[],[],[],[],[],901.275,903.275,903.275,904.309,[],[],[],[],[],[],[],m,904.309,904.309,0.809018568,0.525198939,0,0,0,,0,97,97,53,1,4,TL,cemerony,print,cemerony_p.png,1.026,,,,,
,,,,31824,001,2025-11-10_15h55.45.347,HW_LDT_1,2024.2.4,MacIntel,58.82352941,,,,,,,,,,,,,,,,,,,,,,904.31,904.509,904.509,905.009,,,,,,,,,,,,,,0.861,1,,,,,,,,,,,,,,m,,,,,,,,,,,,,,,,99,0,905.009,905.876,m,1,0.861,,[],[],[],[],[],[],[],905.876,907.875,907.875,907.876,[],[],[],[],[],[],[],,907.876,907.876,0.809018568,0.525198939,0,0,0,,0,98,98,123,1,4,word,MODERATE,print,moderate_p.png,,,,,,
,,,,31824,001,2025-11-10_15h55.45.347,HW_LDT_1,2024.2.4,MacIntel,58.82352941,,,,,,,,,,,,,,,,,,,,,,907.877,908.075,908.075,908.575,,,,,,,,,,,,,,2.589,1,,,,,,,,,,,,,,m,,,,,,,,,,,,,,,,100,0,908.576,911.175,m,1,2.589,,[],[],[],[],[],[],[],911.175,913.175,913.175,913.176,[],[],[],[],[],[],[],,913.176,913.176,0.809018568,0.525198939,0,0,0,,0,99,99,128,1,4,word,PACIFIC,cursive,pacific_c.png,,,,,,
,,,,31824,001,2025-11-10_15h55.45.347,HW_LDT_1,2024.2.4,MacIntel,58.82352941,,,,,,,,,,,,,,,,,,,,,,913.177,913.375,913.375,913.875,,,,,,,,,,,,,,0.923,1,,,,,,,,,,,,,,z,,,,,,,,,,,,,,,,101,1,913.876,914.809,z,1,0.923,,[],[],[],[],[],[],[],914.809,916.809,916.809,919.992,[],[],[],[],[],[],[],m,919.992,919.992,0.809018568,0.525198939,0,0,0,,0,100,100,65,1,4,TL,orepator,print,orepator_p.png,3.172,,,,,
,,,,31824,001,2025-11-10_15h55.45.347,HW_LDT_1,2024.2.4,MacIntel,58.82352941,,,,,,,,,,,,,,,,,,,,,,919.993,920.191,920.191,920.692,,,,,,,,,,,,,,1.342,1,,,,,,,,,,,,,,m,,,,,,,,,,,,,,,,102,0,920.692,922.042,m,1,1.342,,[],[],[],[],[],[],[],922.042,924.042,924.042,924.042,[],[],[],[],[],[],[],,924.042,924.043,0.809018568,0.525198939,0,0,0,,0,101,101,145,1,4,word,RESUME,print,resume_p.png,,,,,,
,,,,31824,001,2025-11-10_15h55.45.347,HW_LDT_1,2024.2.4,MacIntel,58.82352941,,,,,,,,,,,,,,,,,,,,,,924.044,924.242,924.242,924.742,,,,,,,,,,,,,,1.171,1,,,,,,,,,,,,,,m,,,,,,,,,,,,,,,,103,0,924.742,925.925,m,1,1.171,,[],[],[],[],[],[],[],925.925,927.925,927.925,927.926,[],[],[],[],[],[],[],,927.926,927.926,0.809018568,0.525198939,0,0,0,,0,102,102,110,1,4,word,HERITAGE,print,heritage_p.png,,,,,,
,,,,31824,001,2025-11-10_15h55.45.347,HW_LDT_1,2024.2.4,MacIntel,58.82352941,,,,,,,,,,,,,,,,,,,,,,927.927,928.125,928.125,928.625,,,,,,,,,,,,,,0.555,1,,,,,,,,,,,,,,m,,,,,,,,,,,,,,,,104,0,928.625,929.192,m,1,0.555,,[],[],[],[],[],[],[],929.192,931.192,931.192,931.192,[],[],[],[],[],[],[],,931.192,931.192,0.809018568,0.525198939,0,0,0,,0,103,103,111,1,4,word,INDICATE,print,indicate_p.png,,,,,,
,,,,31824,001,2025-11-10_15h55.45.347,HW_LDT_1,2024.2.4,MacIntel,58.82352941,,,,,,,,,,,,,,,,,,,,,,931.193,931.392,931.392,931.892,,,,,,,,,,,,,,0.47,1,,,,,,,,,,,,,,m,,,,,,,,,,,,,,,,105,0,931.892,932.375,m,1,0.47,,[],[],[],[],[],[],[],932.376,934.375,934.375,934.376,[],[],[],[],[],[],[],,934.376,934.376,0.809018568,0.525198939,0,0,0,,0,104,104,127,1,4,word,ORIGINAL,print,original_p.png,,,,,,
,,,,31824,001,2025-11-10_15h55.45.347,HW_LDT_1,2024.2.4,MacIntel,58.82352941,,,,,,,,,,,,,,,,,,,,,,934.377,934.575,934.575,935.075,,,,,,,,,,,,,,0.561,1,,,,,,,,,,,,,,z,,,,,,,,,,,,,,,,106,0,935.076,935.642,z,1,0.561,,[],[],[],[],[],[],[],935.642,937.642,937.642,937.642,[],[],[],[],[],[],[],,937.642,937.642,0.809018568,0.525198939,0,0,0,,0,105,105,45,1,4,RL,spetisic,cursive,spetisic_c.png,,,,,,
,,,,31824,001,2025-11-10_15h55.45.347,HW_LDT_1,2024.2.4,MacIntel,58.82352941,,,,,,,,,,,,,,,,,,,,,,937.644,937.842,937.842,938.342,,,,,,,,,,,,,,0.654,0,,,,,,,,,,,,,,z,,,,,,,,,,,,,,,,107,0,938.342,939.008,m,0,0.654,,[],[],[],[],[],[],[],939.008,941.009,941.009,941.009,[],[],[],[],[],[],[],,941.009,941.009,0.809018568,0.525198939,0,0,0,,0,106,106,7,1,4,RL,casena,print,casena_p.png,,,,,,
,,,,31824,001,2025-11-10_15h55.45.347,HW_LDT_1,2024.2.4,MacIntel,58.82352941,,,,,,,,,,,,,,,,,,,,,,941.01,941.209,941.209,941.709,,,,,,,,,,,,,,0.788,1,,,,,,,,,,,,,,m,,,,,,,,,,,,,,,,108,0,941.709,942.508,m,1,0.788,,[],[],[],[],[],[],[],942.508,944.508,944.508,944.509,[],[],[],[],[],[],[],,944.509,944.509,0.809018568,0.525198939,0,0,0,,0,107,107,131,1,4,word,POPULAR,print,popular_p.png,,,,,,
,,,,31824,001,2025-11-10_15h55.45.347,HW_LDT_1,2024.2.4,MacIntel,58.82352941,,,,,,,,,,,,,,,,,,,,,,944.51,944.709,944.709,945.209,,,,,,,,,,,,,,0.797,1,,,,,,,,,,,,,,z,,,,,,,,,,,,,,,,109,0,945.209,946.011,z,1,0.797,,[],[],[],[],[],[],[],946.011,948.009,948.009,948.009,[],[],[],[],[],[],[],,948.009,948.009,0.809018568,0.525198939,0,0,0,,0,108,108,9,1,4,RL,cafigal,print,cafigal_p.png,,,,,,
,,,,31824,001,2025-11-10_15h55.45.347,HW_LDT_1,2024.2.4,MacIntel,58.82352941,,,,,,,,,,,,,,,,,,,,,,948.01,948.208,948.208,948.709,,,,,,,,,,,,,,0.875,1,,,,,,,,,,,,,,z,,,,,,,,,,,,,,,,110,0,948.709,949.591,z,1,0.875,,[],[],[],[],[],[],[],949.591,951.592,951.592,951.592,[],[],[],[],[],[],[],,951.592,951.592,0.809018568,0.525198939,0,0,0,,0,109,109,49,1,4,RL,vesofity,cursive,vesofity_c.png,,,,,,
,,,,31824,001,2025-11-10_15h55.45.347,HW_LDT_1,2024.2.4,MacIntel,58.82352941,,,,,,,,,,,,,,,,,,,,,,951.594,951.792,951.792,952.291,,,,,,,,,,,,,,1.077,1,,,,,,,,,,,,,,m,,,,,,,,,,,,,,,,111,1,952.292,953.375,m,1,1.077,,[],[],[],[],[],[],[],953.375,955.375,955.375,957.108,[],[],[],[],[],[],[],z,957.108,957.109,0.809018568,0.525198939,0,0,0,,0,110,110,96,1,4,word,CONSIDER,cursive,consider_c.png,1.724,,,,,
,,,,31824,001,2025-11-10_15h55.45.347,HW_LDT_1,2024.2.4,MacIntel,58.82352941,,,,,,,,,,,,,,,,,,,,,,957.109,957.309,957.309,957.809,,,,,,,,,,,,,,1.177,1,,,,,,,,,,,,,,z,,,,,,,,,,,,,,,,112,0,957.809,958.992,z,1,1.177,,[],[],[],[],[],[],[],958.992,960.992,960.992,960.992,[],[],[],[],[],[],[],,960.992,960.992,0.809018568,0.525198939,0,0,0,,0,111,111,58,1,4,TL,edivent,print,edivent_p.png,,,,,,
,,,,31824,001,2025-11-10_15h55.45.347,HW_LDT_1,2024.2.4,MacIntel,58.82352941,,,,,,,,,,,,,,,,,,,,,,960.993,961.192,961.192,961.692,,,,,,,,,,,,,,0.647,1,,,,,,,,,,,,,,m,,,,,,,,,,,,,,,,113,0,961.692,962.346,m,1,0.647,,[],[],[],[],[],[],[],962.346,964.342,964.342,964.342,[],[],[],[],[],[],[],,964.342,964.342,0.809018568,0.525198939,0,0,0,,0,112,112,116,1,4,word,MARGINAL,cursive,marginal_c.png,,,,,,
,,,,31824,001,2025-11-10_15h55.45.347,HW_LDT_1,2024.2.4,MacIntel,58.82352941,,,,,,,,,,,,,,,,,,,,,,964.344,964.542,964.542,965.042,,,,,,,,,,,,,,0.621,1,,,,,,,,,,,,,,m,,,,,,,,,,,,,,,,114,0,965.042,965.675,m,1,0.621,,[],[],[],[],[],[],[],965.675,967.675,967.675,967.676,[],[],[],[],[],[],[],,967.676,967.676,0.809018568,0.525198939,0,0,0,,0,113,113,90,1,4,word,CAPITAL,print,capital_p.png,,,,,,
,,,,31824,001,2025-11-10_15h55.45.347,HW_LDT_1,2024.2.4,MacIntel,58.82352941,,,,,,,,,,,,,,,,,,,,,,967.677,967.875,967.875,968.375,,,,,,,,,,,,,,0.571,1,,,,,,,,,,,,,,m,,,,,,,,,,,,,,,,115,0,968.376,968.959,m,1,0.571,,[],[],[],[],[],[],[],968.959,970.959,970.959,970.959,[],[],[],[],[],[],[],,970.959,970.959,0.809018568,0.525198939,0,0,0,,0,114,114,107,1,4,word,EVIDENT,print,evident_p.png,,,,,,
,,,,31824,001,2025-11-10_15h55.45.347,HW_LDT_1,2024.2.4,MacIntel,58.82352941,,,,,,,,,,,,,,,,,,,,,,970.96,971.159,971.159,971.659,,,,,,,,,,,,,,0.56,1,,,,,,,,,,,,,,m,,,,,,,,,,,,,,,,116,0,971.659,972.226,m,1,0.56,,[],[],[],[],[],[],[],972.226,974.225,974.225,974.225,[],[],[],[],[],[],[],,974.225,974.226,0.809018568,0.525198939,0,0,0,,0,115,115,83,1,4,word,ANIMAL,cursive,animal_c.png,,,,,,
,,,,31824,001,2025-11-10_15h55.45.347,HW_LDT_1,2024.2.4,MacIntel,58.82352941,,,,,,,,,,,,,,,,,,,,,,974.227,974.425,974.425,974.925,,,,,,,,,,,,,,0.578,1,,,,,,,,,,,,,,m,,,,,,,,,,,,,,,,117,0,974.926,975.51,m,1,0.578,,[],[],[],[],[],[],[],975.51,977.508,977.508,977.509,[],[],[],[],[],[],[],,977.509,977.509,0.809018568,0.525198939,0,0,0,,0,116,116,118,1,4,word,MEDICINE,cursive,medicine_c.png,,,,,,
,,,,31824,001,2025-11-10_15h55.45.347,HW_LDT_1,2024.2.4,MacIntel,58.82352941,,,,,,,,,,,,,,,,,,,,,,977.51,977.709,977.709,978.209,,,,,,,,,,,,,,2.078,1,,,,,,,,,,,,,,z,,,,,,,,,,,,,,,,118,0,978.209,980.293,z,1,2.078,,[],[],[],[],[],[],[],980.293,982.292,982.292,982.292,[],[],[],[],[],[],[],,982.292,982.293,0.809018568,0.525198939,0,0,0,,0,117,117,38,1,4,RL,refakive,print,refakive_p.png,,,,,,
,,,,31824,001,2025-11-10_15h55.45.347,HW_LDT_1,2024.2.4,MacIntel,58.82352941,,,,,,,,,,,,,,,,,,,,,,982.294,982.492,982.492,982.992,,,,,,,,,,,,,,1.238,1,,,,,,,,,,,,,,z,,,,,,,,,,,,,,,,119,0,982.992,984.242,z,1,1.238,,[],[],[],[],[],[],[],984.242,986.241,986.241,986.242,[],[],[],[],[],[],[],,986.242,986.242,0.809018568,0.525198939,0,0,0,,0,118,118,48,1,4,RL,vabifity,print,vabifity_p.png,,,,,,
,,,,31824,001,2025-11-10_15h55.45.347,HW_LDT_1,2024.2.4,MacIntel,58.82352941,,,,,,,,,,,,,,,,,,,,,,986.243,986.442,986.442,986.942,,,,,,,,,,,,,,1.071,1,,,,,,,,,,,,,,m,,,,,,,,,,,,,,,,120,0,986.942,988.025,m,1,1.071,,[],[],[],[],[],[],[],988.025,990.025,990.025,990.026,[],[],[],[],[],[],[],,990.026,990.026,0.809018568,0.525198939,0,0,0,,0,119,119,125,1,4,word,OPERATOR,print,operator_p.png,,,,,,
,,,,31824,001,2025-11-10_15h55.45.347,HW_LDT_1,2024.2.4,MacIntel,58.82352941,,,,,,,,,,,,,,,,,,,,,,990.027,990.225,990.225,990.725,,,,,,,,,,,,,,0.758,1,,,,,,,,,,,,,,z,,,,,,,,,,,,,,,,121,0,990.726,991.492,z,1,0.758,,[],[],[],[],[],[],[],991.492,993.493,993.493,993.493,[],[],[],[],[],[],[],,993.493,993.493,0.809018568,0.525198939,0,0,0,,0,120,120,46,1,4,RL,skofen,cursive,skofen_c.png,,,,,,
,,,,31824,001,2025-11-10_15h55.45.347,HW_LDT_1,2024.2.4,MacIntel,58.82352941,,,,,,,,,,,,,,,,,,,,,,993.495,993.692,993.692,994.192,,,,,,,,,,,,,,0.791,1,,,,,,,,,,,,,,z,,,,,,,,,,,,,,,,122,1,994.192,994.992,z,1,0.791,,[],[],[],[],[],[],[],994.992,996.992,996.992,998.425,[],[],[],[],[],[],[],z,998.426,998.426,0.809018568,0.525198939,0,0,0,,0,121,121,20,1,4,RL,gralekul,print,gralekul_p.png,1.423,,,,,
,,,,31824,001,2025-11-10_15h55.45.347,HW_LDT_1,2024.2.4,MacIntel,58.82352941,,,,,,,,,,,,,,,,,,,,,,998.427,998.625,998.625,999.125,,,,,,,,,,,,,,1.406,0,,,,,,,,,,,,,,z,,,,,,,,,,,,,,,,123,1,999.126,1000.542,m,0,1.406,,[],[],[],[],[],[],[],1000.542,1002.542,1002.542,1003.242,[],[],[],[],[],[],[],m,1003.242,1003.242,0.809018568,0.525198939,0,0,0,,0,122,122,30,1,4,RL,nunewical,cursive,nunewical_c.png,0.689,,,,,
,,,,31824,001,2025-11-10_15h55.45.347,HW_LDT_1,2024.2.4,MacIntel,58.82352941,,,,,,,,,,,,,,,,,,,,,,1003.243,1003.442,1003.442,1003.942,,,,,,,,,,,,,,0.942,1,,,,,,,,,,,,,,m,,,,,,,,,,,,,,,,124,0,1003.942,1004.892,m,1,0.942,,[],[],[],[],[],[],[],1004.892,1006.892,1006.892,1006.892,[],[],[],[],[],[],[],,1006.893,1006.893,0.809018568,0.525198939,0,0,0,,0,123,123,153,1,4,word,STOLEN,cursive,stolen_c.png,,,,,,
,,,,31824,001,2025-11-10_15h55.45.347,HW_LDT_1,2024.2.4,MacIntel,58.82352941,,,,,,,,,,,,,,,,,,,,,,1006.894,1007.092,1007.092,1007.592,,,,,,,,,,,,,,1.488,1,,,,,,,,,,,,,,z,,,,,,,,,,,,,,,,125,0,1007.592,1009.092,z,1,1.488,,[],[],[],[],[],[],[],1009.092,1011.095,1011.095,1011.095,[],[],[],[],[],[],[],,1011.095,1011.095,0.610079576,0.49071618,0,0,0,,0,124,124,71,1,4,TL,racidal,print,racidal_p.png,,,,,,
,,,,31824,001,2025-11-10_15h55.45.347,HW_LDT_1,2024.2.4,MacIntel,58.82352941,,,,,,,,,,,,,,,,,,,,,,1011.096,1011.292,1011.292,1011.792,,,,,,,,,,,,,,0.788,1,,,,,,,,,,,,,,m,,,,,,,,,,,,,,,,126,0,1011.792,1012.592,m,1,0.788,,[],[],[],[],[],[],[],1012.592,1014.592,1014.592,1014.593,[],[],[],[],[],[],[],,1014.593,1014.593,0.522546419,0.291777188,0,0,0,,0,125,125,105,1,4,word,EDITOR,print,editor_p.png,,,,,,
,,,,31824,001,2025-11-10_15h55.45.347,HW_LDT_1,2024.2.4,MacIntel,58.82352941,,,,,,,,,,,,,,,,,,,,,,1014.594,1014.792,1014.792,1015.292,,,,,,,,,,,,,,1.591,1,,,,,,,,,,,,,,z,,,,,,,,,,,,,,,,127,0,1015.292,1016.892,z,1,1.591,,[],[],[],[],[],[],[],1016.892,1018.892,1018.892,1018.892,[],[],[],[],[],[],[],,1018.892,1018.893,0.522546419,0.291777188,0,0,0,,0,126,126,79,1,4,TL,tritube,print,tritube_p.png,,,,,,
,,,,31824,001,2025-11-10_15h55.45.347,HW_LDT_1,2024.2.4,MacIntel,58.82352941,,,,,,,,,,,,,,,,,,,,,,1018.894,1019.092,1019.092,1019.592,,,,,,,,,,,,,,1.404,1,,,,,,,,,,,,,,z,,,,,,,,,,,,,,,,128,0,1019.592,1021.009,z,1,1.404,,[],[],[],[],[],[],[],1021.009,1023.008,1023.008,1023.009,[],[],[],[],[],[],[],,1023.009,1023.009,0.522546419,0.291777188,0,0,0,,0,127,127,32,1,4,RL,patisic,cursive,patisic_c.png,,,,,,
,,,,31824,001,2025-11-10_15h55.45.347,HW_LDT_1,2024.2.4,MacIntel,58.82352941,,,,,,,,,,,,,,,,,,,,,,1023.01,1023.209,1023.209,1023.709,,,,,,,,,,,,,,0.558,1,,,,,,,,,,,,,,z,,,,,,,,,,,,,,,,129,0,1023.709,1024.275,z,1,0.558,,[],[],[],[],[],[],[],1024.276,1026.275,1026.275,1026.276,[],[],[],[],[],[],[],,1026.276,1026.276,0.519893899,0.293103448,0,0,0,,0,128,128,27,1,4,RL,menowy,print,menowy_p.png,,,,,,
,,,,31824,001,2025-11-10_15h55.45.347,HW_LDT_1,2024.2.4,MacIntel,58.82352941,,,,,,,,,,,,,,,,,,,,,,1026.277,1026.475,1026.475,1026.975,,,,,,,,,,,,,,1.739,1,,,,,,,,,,,,,,z,,,,,,,,,,,,,,,,130,0,1026.976,1028.725,z,1,1.739,,[],[],[],[],[],[],[],1028.726,1030.725,1030.725,1030.726,[],[],[],[],[],[],[],,1030.726,1030.726,0.519893899,0.293103448,0,0,0,,0,129,129,76,1,4,TL,setanor,print,setanor_p.png,,,,,,
,,,,31824,001,2025-11-10_15h55.45.347,HW_LDT_1,2024.2.4,MacIntel,58.82352941,,,,,,,,,,,,,,,,,,,,,,1030.727,1030.925,1030.925,1031.425,,,,,,,,,,,,,,1.558,1,,,,,,,,,,,,,,z,,,,,,,,,,,,,,,,131,0,1031.426,1032.991,z,1,1.558,,[],[],[],[],[],[],[],1032.991,1034.991,1034.992,1034.992,[],[],[],[],[],[],[],,1034.992,1034.992,0.519893899,0.293103448,0,0,0,,0,130,130,43,1,4,RL,rovastic,print,rovastic_p.png,,,,,,
,,,,31824,001,2025-11-10_15h55.45.347,HW_LDT_1,2024.2.4,MacIntel,58.82352941,,,,,,,,,,,,,,,,,,,,,,1034.993,1035.192,1035.192,1035.692,,,,,,,,,,,,,,5.871,1,,,,,,,,,,,,,,z,,,,,,,,,,,,,,,,132,0,1035.693,1041.576,z,1,5.871,,[],[],[],[],[],[],[],1041.576,1043.575,1043.575,1043.576,[],[],[],[],[],[],[],,1043.576,1043.576,0.519893899,0.293103448,0,0,0,,0,131,131,26,1,4,RL,mesibine,cursive,mesibine_c.png,,,,,,
,,,,31824,001,2025-11-10_15h55.45.347,HW_LDT_1,2024.2.4,MacIntel,58.82352941,,,,,,,,,,,,,,,,,,,,,,1043.577,1043.775,1043.775,1044.275,,,,,,,,,,,,,,0.827,0,,,,,,,,,,,,,,m,,,,,,,,,,,,,,,,133,0,1044.276,1045.109,z,0,0.827,,[],[],[],[],[],[],[],1045.109,1047.109,1047.109,1047.109,[],[],[],[],[],[],[],,1047.109,1047.109,0.519893899,0.293103448,0,0,0,,0,132,132,159,1,4,word,VETERAN,cursive,veteran_c.png,,,,,,
,,,,31824,001,2025-11-10_15h55.45.347,HW_LDT_1,2024.2.4,MacIntel,58.82352941,,,,,,,,,,,,,,,,,,,,,,1047.11,1047.309,1047.309,1047.809,,,,,,,,,,,,,,0.655,0,,,,,,,,,,,,,,z,,,,,,,,,,,,,,,,134,0,1047.81,1048.475,m,0,0.655,,[],[],[],[],[],[],[],1048.475,1050.475,1050.475,1050.476,[],[],[],[],[],[],[],,1050.476,1050.476,0.519893899,0.293103448,0,0,0,,0,133,133,34,1,4,RL,posity,cursive,posity_c.png,,,,,,
,,,,31824,001,2025-11-10_15h55.45.347,HW_LDT_1,2024.2.4,MacIntel,58.82352941,,,,,,,,,,,,,,,,,,,,,,1050.477,1050.675,1050.675,1051.177,,,,,,,,,,,,,,0.83,1,,,,,,,,,,,,,,m,,,,,,,,,,,,,,,,135,0,1051.177,1052.009,m,1,0.83,,[],[],[],[],[],[],[],1052.009,1054.009,1054.009,1054.009,[],[],[],[],[],[],[],,1054.009,1054.009,0.519893899,0.293103448,0,0,0,,0,134,134,154,1,4,word,STORAGE,print,storage_p.png,,,,,,
,,,,31824,001,2025-11-10_15h55.45.347,HW_LDT_1,2024.2.4,MacIntel,58.82352941,,,,,,,,,,,,,,,,,,,,,,1054.011,1054.209,1054.209,1054.709,,,,,,,,,,,,,,0.226,0,,,,,,,,,,,,,,z,,,,,,,,,,,,,,,,136,0,1054.709,1054.942,m,0,0.226,,[],[],[],[],[],[],[],1054.943,1056.942,1056.942,1056.943,[],[],[],[],[],[],[],,1056.943,1056.943,0.519893899,0.293103448,0,0,0,,0,135,135,17,1,4,RL,denficy,cursive,denficy_c.png,,,,,,
,,,,31824,001,2025-11-10_15h55.45.347,HW_LDT_1,2024.2.4,MacIntel,58.82352941,,,,,,,,,,,,,,,,,,,,,,1056.945,1057.142,1057.142,1057.642,,,,,,,,,,,,,,0.229,1,,,,,,,,,,,,,,z,,,,,,,,,,,,,,,,137,0,1057.643,1057.878,z,1,0.229,,[],[],[],[],[],[],[],1057.879,1059.875,1059.876,1059.876,[],[],[],[],[],[],[],,1059.876,1059.876,0.519893899,0.293103448,0,0,0,,0,136,136,23,1,4,RL,linefal,cursive,linefal_c.png,,,,,,
,,,,31824,001,2025-11-10_15h55.45.347,HW_LDT_1,2024.2.4,MacIntel,58.82352941,,,,,,,,,,,,,,,,,,,,,,1059.878,1060.075,1060.076,1060.576,,,,,,,,,,,,,,0.322,0,,,,,,,,,,,,,,z,,,,,,,,,,,,,,,,138,0,1060.576,1060.909,m,0,0.322,,[],[],[],[],[],[],[],1060.909,1062.909,1062.909,1062.909,[],[],[],[],[],[],[],,1062.909,1062.909,0.519893899,0.293103448,0,0,0,,0,137,137,25,1,4,RL,macise,print,macise_p.png,,,,,,
,,,,31824,001,2025-11-10_15h55.45.347,HW_LDT_1,2024.2.4,MacIntel,58.82352941,,,,,,,,,,,,,,,,,,,,,,1062.91,1063.109,1063.109,1063.609,,,,,,,,,,,,,,1.287,0,,,,,,,,,,,,,,m,,,,,,,,,,,,,,,,139,0,1063.609,1064.909,z,0,1.287,,[],[],[],[],[],[],[],1064.909,1066.909,1066.909,1066.909,[],[],[],[],[],[],[],,1066.909,1066.909,0.519893899,0.294429708,0,0,0,,0,138,138,92,1,4,word,CATEGORY,cursive,category_c.png,,,,,,
,,,,31824,001,2025-11-10_15h55.45.347,HW_LDT_1,2024.2.4,MacIntel,58.82352941,,,,,,,,,,,,,,,,,,,,,,1066.911,1067.108,1067.108,1067.609,,,,,,,,,,,,,,0.911,1,,,,,,,,,,,,,,z,,,,,,,,,,,,,,,,140,0,1067.609,1068.526,z,1,0.911,,[],[],[],[],[],[],[],1068.526,1070.525,1070.525,1070.526,[],[],[],[],[],[],[],,1070.526,1070.526,0.519893899,0.294429708,0,0,0,,0,139,139,60,1,4,TL,hetirage,print,hetirage_p.png,,,,,,
,,,,31824,001,2025-11-10_15h55.45.347,HW_LDT_1,2024.2.4,MacIntel,58.82352941,,,,,,,,,,,,,,,,,,,,,,1070.527,1070.725,1070.725,1071.225,,,,,,,,,,,,,,1.637,1,,,,,,,,,,,,,,m,,,,,,,,,,,,,,,,141,0,1071.226,1072.876,m,1,1.637,,[],[],[],[],[],[],[],1072.876,1074.876,1074.876,1074.876,[],[],[],[],[],[],[],,1074.876,1074.876,0.521220159,0.295755968,0,0,0,,0,140,140,133,1,4,word,PROVIDE,cursive,provide_c.png,,,,,,
,,,,31824,001,2025-11-10_15h55.45.347,HW_LDT_1,2024.2.4,MacIntel,58.82352941,,,,,,,,,,,,,,,,,,,,,,1074.878,1075.075,1075.075,1075.575,,,,,,,,,,,,,,0.538,0,,,,,,,,,,,,,,m,,,,,,,,,,,,,,,,142,1,1075.576,1076.126,z,0,0.538,,[],[],[],[],[],[],[],1076.126,1078.125,1078.125,1079.061,[],[],[],[],[],[],[],z,1079.061,1079.061,0.521220159,0.295755968,0,0,0,,0,141,141,106,1,4,word,ELABORATE,cursive,elaborate_c.png,0.932,,,,,
,,,,31824,001,2025-11-10_15h55.45.347,HW_LDT_1,2024.2.4,MacIntel,58.82352941,,,,,,,,,,,,,,,,,,,,,,1079.062,1079.259,1079.259,1079.758,,,,,,,,,,,,,,1.375,1,,,,,,,,,,,,,,m,,,,,,,,,,,,,,,,143,0,1079.759,1081.142,m,1,1.375,,[],[],[],[],[],[],[],1081.142,1083.142,1083.142,1083.142,[],[],[],[],[],[],[],,1083.142,1083.143,0.521220159,0.295755968,0,0,0,,0,142,142,143,1,4,word,REMOVAL,print,removal_p.png,,,,,,
,,,,31824,001,2025-11-10_15h55.45.347,HW_LDT_1,2024.2.4,MacIntel,58.82352941,,,,,,,,,,,,,,,,,,,,,,1083.144,1083.342,1083.342,1083.842,,,,,,,,,,,,,,0.606,1,,,,,,,,,,,,,,m,,,,,,,,,,,,,,,,144,0,1083.842,1084.459,m,1,0.606,,[],[],[],[],[],[],[],1084.459,1086.459,1086.459,1086.459,[],[],[],[],[],[],[],,1086.459,1086.459,0.519893899,0.298408488,0,0,0,,0,143,143,119,1,4,word,MEMORY,print,memory_p.png,,,,,,
,,,,31824,001,2025-11-10_15h55.45.347,HW_LDT_1,2024.2.4,MacIntel,58.82352941,,,,,,,,,,,,,,,,,,,,,,1086.461,1086.659,1086.659,1087.159,,,,,,,,,,,,,,0.723,1,,,,,,,,,,,,,,z,,,,,,,,,,,,,,,,145,0,1087.159,1087.892,z,1,0.723,,[],[],[],[],[],[],[],1087.892,1089.892,1089.892,1089.892,[],[],[],[],[],[],[],,1089.893,1089.893,0.521220159,0.294429708,0,0,0,,0,144,144,73,1,4,TL,regilion,print,regilion_p.png,,,,,,
,,,,31824,001,2025-11-10_15h55.45.347,HW_LDT_1,2024.2.4,MacIntel,58.82352941,,,,,,,,,,,,,,,,,,,,,,1089.894,1090.092,1090.092,1090.592,,,,,,,,,,,,,,1.058,1,,,,,,,,,,,,,,m,,,,,,,,,,,,,,,,146,1,1090.593,1091.659,m,1,1.058,,[],[],[],[],[],[],[],1091.659,1093.659,1093.659,1094.592,[],[],[],[],[],[],[],z,1094.593,1094.593,0.521220159,0.294429708,0,0,0,,0,145,145,152,1,4,word,SPECIMEN,cursive,specimen_c.png,0.928,,,,,
,,,,31824,001,2025-11-10_15h55.45.347,HW_LDT_1,2024.2.4,MacIntel,58.82352941,,,,,,,,,,,,,,,,,,,,,,1094.594,1094.792,1094.792,1095.292,,,,,,,,,,,,,,0.925,0,,,,,,,,,,,,,,z,,,,,,,,,,,,,,,,147,0,1095.292,1096.226,m,0,0.925,,[],[],[],[],[],[],[],1096.226,1098.226,1098.226,1098.226,[],[],[],[],[],[],[],,1098.226,1098.226,0.521220159,0.294429708,0,0,0,,0,146,146,12,1,4,RL,conbicer,cursive,conbicer_c.png,,,,,,
,,,,31824,001,2025-11-10_15h55.45.347,HW_LDT_1,2024.2.4,MacIntel,58.82352941,,,,,,,,,,,,,,,,,,,,,,1098.228,1098.425,1098.425,1098.925,,,,,,,,,,,,,,0.561,1,,,,,,,,,,,,,,z,,,,,,,,,,,,,,,,148,0,1098.926,1099.492,z,1,0.561,,[],[],[],[],[],[],[],1099.492,1101.492,1101.492,1101.493,[],[],[],[],[],[],[],,1101.493,1101.493,0.521220159,0.294429708,0,0,0,,0,147,147,29,1,4,RL,motide,print,motide_p.png,,,,,,
,,,,31824,001,2025-11-10_15h55.45.347,HW_LDT_1,2024.2.4,MacIntel,58.82352941,,,,,,,,,,,,,,,,,,,,,,1101.494,1101.692,1101.692,1102.192,,,,,,,,,,,,,,0.513,0,,,,,,,,,,,,,,m,,,,,,,,,,,,,,,,149,0,1102.193,1102.71,z,0,0.513,,[],[],[],[],[],[],[],1102.71,1104.709,1104.709,1104.709,[],[],[],[],[],[],[],,1104.709,1104.709,0.521220159,0.294429708,0,0,0,,0,148,148,82,1,4,word,AMATEUR,cursive,amateur_c.png,,,,,,
,,,,31824,001,2025-11-10_15h55.45.347,HW_LDT_1,2024.2.4,MacIntel,58.82352941,,,,,,,,,,,,,,,,,,,,,,1104.71,1104.909,1104.909,1105.409,,,,,,,,,,,,,,0.747,1,,,,,,,,,,,,,,z,,,,,,,,,,,,,,,,150,1,1105.409,1106.161,z,1,0.747,,[],[],[],[],[],[],[],1106.161,1108.159,1108.159,1108.909,[],[],[],[],[],[],[],z,1108.909,1108.91,0.521220159,0.291777188,0,0,0,,0,149,149,72,1,4,TL,relugar,cursive,relugar_c.png,0.738,,,,,
,,,,31824,001,2025-11-10_15h55.45.347,HW_LDT_1,2024.2.4,MacIntel,58.82352941,,,,,,,,,,,,,,,,,,,,,,1108.912,1109.109,1109.109,1109.609,,,,,,,,,,,,,,1.738,1,,,,,,,,,,,,,,z,,,,,,,,,,,,,,,,151,0,1109.61,1111.359,z,1,1.738,,[],[],[],[],[],[],[],1111.359,1113.359,1113.359,1113.359,[],[],[],[],[],[],[],,1113.359,1113.36,0.521220159,0.291777188,0,0,0,,0,150,150,8,1,4,RL,casagity,cursive,casagity_c.png,,,,,,
,,,,31824,001,2025-11-10_15h55.45.347,HW_LDT_1,2024.2.4,MacIntel,58.82352941,,,,,,,,,,,,,,,,,,,,,,1113.362,1113.559,1113.559,1114.059,,,,,,,,,,,,,,1.681,0,,,,,,,,,,,,,,m,,,,,,,,,,,,,,,,152,1,1114.059,1115.744,z,0,1.681,,[],[],[],[],[],[],[],1115.744,1117.742,1117.742,1118.809,[],[],[],[],[],[],[],z,1118.809,1118.809,0.521220159,0.291777188,0,0,0,,0,151,151,155,1,4,word,STRATEGY,print,strategy_p.png,1.062,,,,,
,,,,31824,001,2025-11-10_15h55.45.347,HW_LDT_1,2024.2.4,MacIntel,58.82352941,,,,,,,,,,,,,,,,,,,,,,1118.811,1119.008,1119.008,1119.508,,,,,,,,,,,,,,1.104,1,,,,,,,,,,,,,,z,,,,,,,,,,,,,,,,153,0,1119.509,1120.626,z,1,1.104,,[],[],[],[],[],[],[],1120.626,1122.625,1122.626,1122.626,[],[],[],[],[],[],[],,1122.626,1122.626,0.521220159,0.291777188,0,0,0,,0,152,152,4,1,4,RL,betemit,cursive,betemit_c.png,,,,,,
,,,,31824,001,2025-11-10_15h55.45.347,HW_LDT_1,2024.2.4,MacIntel,58.82352941,,,,,,,,,,,,,,,,,,,,,,1122.628,1122.825,1122.826,1123.325,,,,,,,,,,,,,,0.822,1,,,,,,,,,,,,,,m,,,,,,,,,,,,,,,,154,0,1123.326,1124.159,m,1,0.822,,[],[],[],[],[],[],[],1124.159,1126.159,1126.159,1126.159,[],[],[],[],[],[],[],,1126.159,1126.159,0.521220159,0.291777188,0,0,0,,0,153,153,93,1,4,word,CEREMONY,print,ceremony_p.png,,,,,,
,,,,31824,001,2025-11-10_15h55.45.347,HW_LDT_1,2024.2.4,MacIntel,58.82352941,,,,,,,,,,,,,,,,,,,,,,1126.161,1126.359,1126.359,1126.859,,,,,,,,,,,,,,1.959,1,,,,,,,,,,,,,,m,,,,,,,,,,,,,,,,155,0,1126.859,1128.826,m,1,1.959,,[],[],[],[],[],[],[],1128.826,1130.825,1130.826,1130.826,[],[],[],[],[],[],[],,1130.826,1130.826,0.522546419,0.289124668,0,0,0,,0,154,154,80,1,4,word,ACADEMY,print,academy_p.png,,,,,,
,,,,31824,001,2025-11-10_15h55.45.347,HW_LDT_1,2024.2.4,MacIntel,58.82352941,,,,,,,,,,,,,,,,,,,,,,1130.828,1131.025,1131.026,1131.525,,,,,,,,,,,,,,1.475,1,,,,,,,,,,,,,,z,,,,,,,,,,,,,,,,156,0,1131.526,1133.009,z,1,1.475,,[],[],[],[],[],[],[],1133.009,1135.008,1135.008,1135.009,[],[],[],[],[],[],[],,1135.009,1135.009,0.522546419,0.285145889,0,0,0,,0,155,155,24,1,4,RL,marmipal,cursive,marmipal_c.png,,,,,,
,,,,31824,001,2025-11-10_15h55.45.347,HW_LDT_1,2024.2.4,MacIntel,58.82352941,,,,,,,,,,,,,,,,,,,,,,1135.01,1135.209,1135.209,1135.709,,,,,,,,,,,,,,0.594,0,,,,,,,,,,,,,,m,,,,,,,,,,,,,,,,157,0,1135.709,1136.309,z,0,0.594,,[],[],[],[],[],[],[],1136.309,1138.309,1138.309,1138.309,[],[],[],[],[],[],[],,1138.309,1138.309,0.522546419,0.283819629,0,0,0,,0,156,156,108,1,4,word,FORTUNE,cursive,fortune_c.png,,,,,,
,,,,31824,001,2025-11-10_15h55.45.347,HW_LDT_1,2024.2.4,MacIntel,58.82352941,,,,,,,,,,,,,,,,,,,,,,1138.311,1138.509,1138.509,1139.009,,,,,,,,,,,,,,0.744,1,,,,,,,,,,,,,,z,,,,,,,,,,,,,,,,158,0,1139.009,1139.758,z,1,0.744,,[],[],[],[],[],[],[],1139.758,1141.758,1141.758,1141.759,[],[],[],[],[],[],[],,1141.759,1141.759,0.523872679,0.278514589,0,0,0,,0,157,157,1,1,4,RL,afaneur,cursive,afaneur_c.png,,,,,,
,,,,31824,001,2025-11-10_15h55.45.347,HW_LDT_1,2024.2.4,MacIntel,58.82352941,,,,,,,,,,,,,,,,,,,,,,1141.76,1141.959,1141.959,1142.459,,,,,,,,,,,,,,1.091,1,,,,,,,,,,,,,,m,,,,,,,,,,,,,,,,159,0,1142.459,1143.558,m,1,1.091,,[],[],[],[],[],[],[],1143.558,1145.559,1145.559,1145.559,[],[],[],[],[],[],[],,1145.559,1145.559,0.523872679,0.278514589,0,0,0,,0,158,158,101,1,4,word,DELICATE,cursive,delicate_c.png,,,,,,
,,,,31824,001,2025-11-10_15h55.45.347,HW_LDT_1,2024.2.4,MacIntel,58.82352941,,,,,,,,,,,,,,,,,,,,,,1145.561,1145.758,1145.758,1146.259,,,,,,,,,,,,,,1.237,1,,,,,,,,,,,,,,m,,,,,,,,,,,,,,,,160,0,1146.259,1147.508,m,1,1.237,,[],[],[],[],[],[],[],1147.508,1149.509,1149.509,1149.509,[],[],[],[],[],[],[],,1149.509,1149.509,0.523872679,0.278514589,0,0,0,,0,159,159,112,1,4,word,LIBERAL,cursive,liberal_c.png,,,,,,
,,,,31824,001,2025-11-10_15h55.45.347,HW_LDT_1,2024.2.4,MacIntel,58.82352941,,,,,,,,,,,,,,,,,,,,,,,,,,,,,,,,,,,,,,,,,,,,,,,,,,,,,,,,,,,,,,,,,,,,,,,,,,,,,,,,,,,,,,,,,,,,,,,,,,,,,,,,,,,,,,,,,,,,,,,1149.511,1154.509
