counterbalance_lists.group,counterbalance_lists.remaining,get_list.started,get_list.stopped,participant,session,date,expName,psychopyVersion,OS,frameRate,Instructions.started,Instructions.stopped,key_resp.keys,instr_done_touch.x,instr_done_touch.y,instr_done_touch.leftButton,instr_done_touch.midButton,instr_done_touch.rightButton,instr_done_touch.clicked_name,start_instr.thisRepN,start_instr.thisTrialN,start_instr.thisN,start_instr.thisIndex,start_instr.ran,pageN,phase,instruct_text,has_image,instruct_image,key_resp.rt,key_resp.duration,showProgress.started,showProgress.stopped,fix.started,fix.stopped,prac.started,prac.stopped,response.keys,response.corr,response.rt,response.duration,touch_resp.x,touch_resp.y,touch_resp.leftButton,touch_resp.midButton,touch_resp.rightButton,touch_resp.time,touch_resp.clicked_name,rt,corr,feedback.started,feedback.stopped,trials.thisRepN,trials.thisTrialN,trials.thisN,trials.thisIndex,trials.ran,TrialID,StimulusType,Condition,PrimeDuration,Prime,Target,corrAns,Instructions_expt.started,Instructions_expt.stopped,key_resp_3.keys,key_resp_3.rt,key_resp_3.duration,instr_done_touch_3.x,instr_done_touch_3.y,instr_done_touch_3.leftButton,instr_done_touch_3.midButton,instr_done_touch_3.rightButton,instr_experiment.thisRepN,instr_experiment.thisTrialN,instr_experiment.thisN,instr_experiment.thisIndex,instr_experiment.ran,trialID,flag,maintask.started,maintask.stopped,key_resp_2.keys,key_resp_2.corr,key_resp_2.rt,key_resp_2.duration,targ_click.x,targ_click.y,targ_click.leftButton,targ_click.midButton,targ_click.rightButton,targ_click.time,targ_click.clicked_name,ITI.started,ITI.stopped,probe.started,probe.stopped,click_probe.x,click_probe.y,click_probe.leftButton,click_probe.midButton,click_probe.rightButton,click_probe.time,click_probe.clicked_name,key_resp_probe.keys,Break.started,Break.stopped,break_done_touch.x,break_done_touch.y,break_done_touch.leftButton,break_done_touch.midButton,break_done_touch.rightButton,break_done_keyboard.keys,list3_trials.thisRepN,list3_trials.thisTrialN,list3_trials.thisN,list3_trials.thisIndex,list3_trials.ran,list_id,item_type,string,font,stim_file,key_resp_probe.rt,key_resp_probe.duration,break_done_keyboard.rt,break_done_keyboard.duration,End.started,End.stopped
list3,,0.4966,0.4967,31823,001,2025-11-05_20h05.08.116,HW_LDT_1,2024.2.4,Win32,60.60606061,,,,,,,,,,,,,,,,,,,,,,,,,,,,,,,,,,,,,,,,,,,,,,,,,,,,,,,,,,,,,,,,,,,,,,,,,,,,,,,,,,,,,,,,,,,,,,,,,,,,,,,,,,,,,,,,,,,,,,,,
,,,,31823,001,2025-11-05_20h05.08.116,HW_LDT_1,2024.2.4,Win32,60.60606061,0.5158,1.7796,,0.073333359,-0.374166718,1,0,0,instr_done_button,0,0,0,0,1,1,instructions,"INSTRUCTIONS
At the start of each trial, look at the plus sign  (+) in the center of the screen.  This tells you that a trial is about to begin and where to look. Second, the plus sign will disappear and a string of letters will appear. Your task is to determine if the string of letters is a word or not. If the item is a word press the M key (on keyboard)  or touch the word button (phone/tablet).  If the item is not a word,  press the  Z key (on keyboard)  or touch the nonword button (on phone/tablet). The items will be presented for a short time. 
Press the space bar or touch  continue.",0,,,,,,,,,,,,,,,,,,,,,,,,,,,,,,,,,,,,,,,,,,,,,,,,,,,,,,,,,,,,,,,,,,,,,,,,,,,,,,,,,,,,,,,,,,,,,,,,,,,,,,
,,,,31823,001,2025-11-05_20h05.08.116,HW_LDT_1,2024.2.4,Win32,60.60606061,1.7816,12.9415,space,0.100833359,-0.190833359,0,0,0,,0,1,1,1,1,2,instructions,"If your device has a keyboard, press the 'Z' key for nonwords and the 'M' key for words.





Press the space bar or touch the button below to continue.",0,keyboard-example.gif,11.1372,,,,,,,,,,,,,,,,,,,,,,,,,,,,,,,,,,,,,,,,,,,,,,,,,,,,,,,,,,,,,,,,,,,,,,,,,,,,,,,,,,,,,,,,,,,,,,,,,,,,
,,,,31823,001,2025-11-05_20h05.08.116,HW_LDT_1,2024.2.4,Win32,60.60606061,12.9442,17.3079,space,0.100833359,-0.190833359,0,0,0,,0,2,2,2,1,3,instructions,"If you are using a touchscreen only device, use the buttons on the screen. Do not use the mouse.





Press the space bar or touch the button below to continue.",0,touchscreen-example.gif,4.3433,,,,,,,,,,,,,,,,,,,,,,,,,,,,,,,,,,,,,,,,,,,,,,,,,,,,,,,,,,,,,,,,,,,,,,,,,,,,,,,,,,,,,,,,,,,,,,,,,,,,
,,,,31823,001,2025-11-05_20h05.08.116,HW_LDT_1,2024.2.4,Win32,60.60606061,17.3119,26.7941,space,0.100833359,-0.190833359,0,0,0,,0,3,3,3,1,4,instructions,"It is very important that you respond as quickly and accurately as possible, as each letter string will only be on the screen for two seconds. If you do not respond within this time, the message 'Too slow!' will be displayed and the experiment will progress to the next letter string. The first 20 trials will be practice trials and you will receive feedback on your answers. 

Press the space bar or touch the button below to start the practice trials.",0,,9.4653,,,,,,,,,,,,,,,,,,,,,,,,,,,,,,,,,,,,,,,,,,,,,,,,,,,,,,,,,,,,,,,,,,,,,,,,,,,,,,,,,,,,,,,,,,,,,,,,,,,,
,,,,31823,001,2025-11-05_20h05.08.116,HW_LDT_1,2024.2.4,Win32,60.60606061,,,,,,,,,,,,,,,,,,,,,,26.8346,26.9909,26.9914,27.4908,27.4912,31.9916,z,1,4.4684,,[],[],[],[],[],[],[],4.4684,1,31.9925,32.4917,0,0,0,9,1,1010,NW,"ID",33,fariny,FARINY,z,,,,,,,,,,,,,,,,,,,,,,,,,,,,,,,,,,,,,,,,,,,,,,,,,,,,,,,,,,,,,,,,,,
,,,,31823,001,2025-11-05_20h05.08.116,HW_LDT_1,2024.2.4,Win32,60.60606061,,,,,,,,,,,,,,,,,,,,,,32.4943,32.6904,32.6905,33.1901,33.1925,35.8069,z,1,2.594,,[],[],[],[],[],[],[],2.594,1,35.8074,36.3075,0,1,1,14,1,1015,NW,UN,16,miaber,THRALE,z,,,,,,,,,,,,,,,,,,,,,,,,,,,,,,,,,,,,,,,,,,,,,,,,,,,,,,,,,,,,,,,,,,
,,,,31823,001,2025-11-05_20h05.08.116,HW_LDT_1,2024.2.4,Win32,60.60606061,,,,,,,,,,,,,,,,,,,,,,36.3098,36.507,36.5071,37.0071,37.0094,37.9071,m,1,0.885,,[],[],[],[],[],[],[],0.885,1,37.9075,38.4071,0,2,2,7,1,1008,WORD,UN,16,hurdle,VOLUME,m,,,,,,,,,,,,,,,,,,,,,,,,,,,,,,,,,,,,,,,,,,,,,,,,,,,,,,,,,,,,,,,,,,
,,,,31823,001,2025-11-05_20h05.08.116,HW_LDT_1,2024.2.4,Win32,60.60606061,,,,,,,,,,,,,,,,,,,,,,38.4105,38.607,38.607,39.1077,39.1098,41.0073,m,0,1.8781,,[],[],[],[],[],[],[],1.8781,0,41.0095,41.5072,0,3,3,13,1,1014,NW,UN,33,winfer,ROUPET,z,,,,,,,,,,,,,,,,,,,,,,,,,,,,,,,,,,,,,,,,,,,,,,,,,,,,,,,,,,,,,,,,,,
,,,,31823,001,2025-11-05_20h05.08.116,HW_LDT_1,2024.2.4,Win32,60.60606061,,,,,,,,,,,,,,,,,,,,,,41.5103,41.7071,41.7073,42.2068,42.2094,44.5584,z,1,2.3386,,[],[],[],[],[],[],[],2.3386,1,44.56,45.0573,0,4,4,12,1,1013,NW,UN,33,adveil,SPRINY,z,,,,,,,,,,,,,,,,,,,,,,,,,,,,,,,,,,,,,,,,,,,,,,,,,,,,,,,,,,,,,,,,,,
,,,,31823,001,2025-11-05_20h05.08.116,HW_LDT_1,2024.2.4,Win32,60.60606061,,,,,,,,,,,,,,,,,,,,,,45.0598,45.2568,45.257,45.7567,45.7588,48.0404,z,1,2.2627,,[],[],[],[],[],[],[],2.2627,1,48.0407,48.5408,0,5,5,8,1,1009,NW,"ID",33,aslert,ASLERT,z,,,,,,,,,,,,,,,,,,,,,,,,,,,,,,,,,,,,,,,,,,,,,,,,,,,,,,,,,,,,,,,,,,
,,,,31823,001,2025-11-05_20h05.08.116,HW_LDT_1,2024.2.4,Win32,60.60606061,,,,,,,,,,,,,,,,,,,,,,48.5435,48.74,48.7401,49.2398,49.2416,50.0568,m,1,0.8042,,[],[],[],[],[],[],[],0.8042,1,50.0569,50.5568,0,6,6,5,1,1006,WORD,UN,33,frenzy,OBTAIN,m,,,,,,,,,,,,,,,,,,,,,,,,,,,,,,,,,,,,,,,,,,,,,,,,,,,,,,,,,,,,,,,,,,
,,,,31823,001,2025-11-05_20h05.08.116,HW_LDT_1,2024.2.4,Win32,60.60606061,,,,,,,,,,,,,,,,,,,,,,50.5593,50.7567,50.7569,51.2566,51.2578,52.6067,m,1,1.3305,,[],[],[],[],[],[],[],1.3305,1,52.6069,53.1064,0,7,7,0,1,1001,WORD,"ID",33,utopia,UTOPIA,m,,,,,,,,,,,,,,,,,,,,,,,,,,,,,,,,,,,,,,,,,,,,,,,,,,,,,,,,,,,,,,,,,,
,,,,31823,001,2025-11-05_20h05.08.116,HW_LDT_1,2024.2.4,Win32,60.60606061,,,,,,,,,,,,,,,,,,,,,,53.109,53.307,53.307,53.8061,53.8079,54.6738,m,1,0.8476,,[],[],[],[],[],[],[],0.8476,1,54.6742,55.1733,0,8,8,3,1,1004,WORD,"ID",16,matrix,MATRIX,m,,,,,,,,,,,,,,,,,,,,,,,,,,,,,,,,,,,,,,,,,,,,,,,,,,,,,,,,,,,,,,,,,,
,,,,31823,001,2025-11-05_20h05.08.116,HW_LDT_1,2024.2.4,Win32,60.60606061,,,,,,,,,,,,,,,,,,,,,,55.1759,55.3731,55.3731,55.8743,55.8758,57.9395,z,1,2.0539,,[],[],[],[],[],[],[],2.0539,1,57.9396,58.4399,0,9,9,11,1,1012,NW,"ID",16,rashet,RASHET,z,,,,,,,,,,,,,,,,,,,,,,,,,,,,,,,,,,,,,,,,,,,,,,,,,,,,,,,,,,,,,,,,,,
,,,,31823,001,2025-11-05_20h05.08.116,HW_LDT_1,2024.2.4,Win32,60.60606061,,,,,,,,,,,,,,,,,,,,,,58.442,58.64,58.6401,59.1396,59.1416,59.9235,m,1,0.7634,,[],[],[],[],[],[],[],0.7634,1,59.9237,60.4233,0,10,10,1,1,1002,WORD,"ID",33,adjust,ADJUST,m,,,,,,,,,,,,,,,,,,,,,,,,,,,,,,,,,,,,,,,,,,,,,,,,,,,,,,,,,,,,,,,,,,
,,,,31823,001,2025-11-05_20h05.08.116,HW_LDT_1,2024.2.4,Win32,60.60606061,,,,,,,,,,,,,,,,,,,,,,60.4254,60.6234,60.6234,61.123,61.1247,61.9402,m,1,0.7969,,[],[],[],[],[],[],[],0.7969,1,61.9404,62.44,0,11,11,4,1,1005,WORD,UN,33,abound,SQUEAK,m,,,,,,,,,,,,,,,,,,,,,,,,,,,,,,,,,,,,,,,,,,,,,,,,,,,,,,,,,,,,,,,,,,
,,,,31823,001,2025-11-05_20h05.08.116,HW_LDT_1,2024.2.4,Win32,60.60606061,,,,,,,,,,,,,,,,,,,,,,62.4421,62.64,62.64,63.1399,63.1412,63.8229,m,1,0.67,,[],[],[],[],[],[],[],0.67,1,63.8231,64.3235,0,12,12,2,1,1003,WORD,"ID",16,almond,ALMOND,m,,,,,,,,,,,,,,,,,,,,,,,,,,,,,,,,,,,,,,,,,,,,,,,,,,,,,,,,,,,,,,,,,,
,,,,31823,001,2025-11-05_20h05.08.116,HW_LDT_1,2024.2.4,Win32,60.60606061,,,,,,,,,,,,,,,,,,,,,,64.3254,64.5232,64.5234,65.0233,65.0244,65.9727,z,1,0.9353,,[],[],[],[],[],[],[],0.9353,1,65.9729,66.4742,0,13,13,15,1,1016,NW,UN,16,mushed,WHAISE,z,,,,,,,,,,,,,,,,,,,,,,,,,,,,,,,,,,,,,,,,,,,,,,,,,,,,,,,,,,,,,,,,,,
,,,,31823,001,2025-11-05_20h05.08.116,HW_LDT_1,2024.2.4,Win32,60.60606061,,,,,,,,,,,,,,,,,,,,,,66.476,66.6737,66.6737,67.1734,67.1755,68.1904,z,1,0.9975,,[],[],[],[],[],[],[],0.9975,1,68.1909,68.6902,0,14,14,10,1,1011,NW,"ID",16,inlade,INLADE,z,,,,,,,,,,,,,,,,,,,,,,,,,,,,,,,,,,,,,,,,,,,,,,,,,,,,,,,,,,,,,,,,,,
,,,,31823,001,2025-11-05_20h05.08.116,HW_LDT_1,2024.2.4,Win32,60.60606061,,,,,,,,,,,,,,,,,,,,,,68.6928,68.8903,68.8903,69.3899,69.391,70.2908,m,1,0.8914,,[],[],[],[],[],[],[],0.8914,1,70.291,70.7903,0,15,15,6,1,1007,WORD,UN,16,tropic,ZOMBIE,m,,,,,,,,,,,,,,,,,,,,,,,,,,,,,,,,,,,,,,,,,,,,,,,,,,,,,,,,,,,,,,,,,,
,,,,31823,001,2025-11-05_20h05.08.116,HW_LDT_1,2024.2.4,Win32,60.60606061,,,,,,,,,,,,,,,1,end_of_practice,"You have completed the practice trials. During the experimental trials, you will not receive feedback. On some trials you will be asked to report whether the item you just saw was in cursive or print. 
Before you begin, please ensure that you are in a comfortable and quiet location and will not be disturbed for about 15 minutes, as we cannot use your data if you do not complete all the trials. 
 When you are ready to start the experimental trials, please press space or touch the button below.",,,,,,,,,,,,,,,,,,,,,,,,,,,,,,,,,,,,,,70.7991,72.0914,space,1.2695,,0.109166718,-0.189166718,0,0,0,0,0,0,0,1,,,,,,,,,,,,,,,,,,,,,,,,,,,,,,,,,,,,,,,,,,,,,,,,,,,
,,,,31823,001,2025-11-05_20h05.08.116,HW_LDT_1,2024.2.4,Win32,60.60606061,,,,,,,,,,,,,,,,,,,,,,72.1141,72.2897,72.2898,72.7896,,,,,,,,,,,,,,3.292,1,,,,,,,,,,,,,,z,,,,,,,,,,,,,,,,1,0,72.7914,76.0906,z,1,3.292,,[],[],[],[],[],[],[],76.0908,78.0905,78.0911,78.0964,[],[],[],[],[],[],[],,78.0966,78.1007,0.109166718,-0.189166718,0,0,0,,0,0,0,75,1,3,TL,sloten,cursive,sloten_c.png,,,,,,
,,,,31823,001,2025-11-05_20h05.08.116,HW_LDT_1,2024.2.4,Win32,60.60606061,,,,,,,,,,,,,,,,,,,,,,78.1016,78.2901,78.2901,78.7897,,,,,,,,,,,,,,3.4058,1,,,,,,,,,,,,,,z,,,,,,,,,,,,,,,,2,0,78.7906,82.207,z,1,3.4058,,[],[],[],[],[],[],[],82.2073,84.2062,84.2064,84.2067,[],[],[],[],[],[],[],,84.2067,84.2068,0.109166718,-0.189166718,0,0,0,,0,1,1,79,1,3,TL,veretan,cursive,veretan_c.png,,,,,,
,,,,31823,001,2025-11-05_20h05.08.116,HW_LDT_1,2024.2.4,Win32,60.60606061,,,,,,,,,,,,,,,,,,,,,,84.2087,84.4059,84.406,84.9063,,,,,,,,,,,,,,1.3884,0,,,,,,,,,,,,,,z,,,,,,,,,,,,,,,,3,0,84.9081,86.3069,m,0,1.3884,,[],[],[],[],[],[],[],86.307,88.3061,88.3062,88.3067,[],[],[],[],[],[],[],,88.3068,88.3069,0.109166718,-0.189166718,0,0,0,,0,2,2,33,1,3,TL,adsivory,print,adsivory_p.png,,,,,,
,,,,31823,001,2025-11-05_20h05.08.116,HW_LDT_1,2024.2.4,Win32,60.60606061,,,,,,,,,,,,,,,,,,,,,,88.3088,88.5065,88.5066,89.0062,,,,,,,,,,,,,,0.987,1,,,,,,,,,,,,,,m,,,,,,,,,,,,,,,,4,0,89.0074,90.0062,m,1,0.987,,[],[],[],[],[],[],[],90.0063,92.0063,92.0063,92.0066,[],[],[],[],[],[],[],,92.0066,92.007,0.109166718,-0.189166718,0,0,0,,0,3,3,135,1,3,word,QUALITY,print,quality_p.png,,,,,,
,,,,31823,001,2025-11-05_20h05.08.116,HW_LDT_1,2024.2.4,Win32,60.60606061,,,,,,,,,,,,,,,,,,,,,,92.0089,92.206,92.2061,92.7071,,,,,,,,,,,,,,0.7881,1,,,,,,,,,,,,,,m,,,,,,,,,,,,,,,,5,1,92.7083,93.506,m,1,0.7881,,[],[],[],[],[],[],[],93.5061,95.5066,95.5068,103.7726,[],[],[],[],[],[],[],m,103.7727,103.7729,0.109166718,-0.189166718,0,0,0,,0,4,4,129,1,3,word,PARENT,print,parent_p.png,8.2551,,,,,
,,,,31823,001,2025-11-05_20h05.08.116,HW_LDT_1,2024.2.4,Win32,60.60606061,,,,,,,,,,,,,,,,,,,,,,103.7749,103.9726,103.9727,104.4723,,,,,,,,,,,,,,1.6822,1,,,,,,,,,,,,,,m,,,,,,,,,,,,,,,,6,0,104.4738,106.1572,m,1,1.6822,,[],[],[],[],[],[],[],106.1574,108.1558,108.1559,108.1565,[],[],[],[],[],[],[],,108.1566,108.1568,0.109166718,-0.189166718,0,0,0,,0,5,5,82,1,3,word,AMATEUR,print,amateur_p.png,,,,,,
,,,,31823,001,2025-11-05_20h05.08.116,HW_LDT_1,2024.2.4,Win32,60.60606061,,,,,,,,,,,,,,,,,,,,,,108.1584,108.3565,108.3566,108.856,,,,,,,,,,,,,,2.1725,1,,,,,,,,,,,,,,m,,,,,,,,,,,,,,,,7,0,108.8569,111.0402,m,1,2.1725,,[],[],[],[],[],[],[],111.0404,113.0391,113.0393,113.0395,[],[],[],[],[],[],[],,113.0397,113.0397,0.109166718,-0.189166718,0,0,0,,0,6,6,116,1,3,word,MARGINAL,print,marginal_p.png,,,,,,
,,,,31823,001,2025-11-05_20h05.08.116,HW_LDT_1,2024.2.4,Win32,60.60606061,,,,,,,,,,,,,,,,,,,,,,113.0418,113.2389,113.239,113.7392,,,,,,,,,,,,,,1.1727,1,,,,,,,,,,,,,,z,,,,,,,,,,,,,,,,8,0,113.7401,114.9235,z,1,1.1727,,[],[],[],[],[],[],[],114.9236,116.9226,116.9227,116.9229,[],[],[],[],[],[],[],,116.9229,116.9229,0.109166718,-0.189166718,0,0,0,,0,7,7,24,1,3,RL,quafidy,print,quafidy_p.png,,,,,,
,,,,31823,001,2025-11-05_20h05.08.116,HW_LDT_1,2024.2.4,Win32,60.60606061,,,,,,,,,,,,,,,,,,,,,,116.9248,117.1224,117.1226,117.6222,,,,,,,,,,,,,,4.8225,1,,,,,,,,,,,,,,z,,,,,,,,,,,,,,,,9,1,117.6229,122.4564,z,1,4.8225,,[],[],[],[],[],[],[],122.4566,124.4561,124.4562,126.2893,[],[],[],[],[],[],[],z,126.2895,126.2896,0.109166718,-0.189166718,0,0,0,,0,8,8,4,1,3,RL,cafigal,cursive,cafigal_c.png,1.8265,,,,,
,,,,31823,001,2025-11-05_20h05.08.116,HW_LDT_1,2024.2.4,Win32,60.60606061,,,,,,,,,,,,,,,,,,,,,,126.2914,126.4891,126.4892,126.9888,,,,,,,,,,,,,,0.8577,1,,,,,,,,,,,,,,m,,,,,,,,,,,,,,,,10,0,126.9895,127.8568,m,1,0.8577,,[],[],[],[],[],[],[],127.8569,129.8558,129.8559,129.856,[],[],[],[],[],[],[],,129.8561,129.8564,0.109166718,-0.189166718,0,0,0,,0,9,9,112,1,3,word,LIBERAL,print,liberal_p.png,,,,,,
,,,,31823,001,2025-11-05_20h05.08.116,HW_LDT_1,2024.2.4,Win32,60.60606061,,,,,,,,,,,,,,,,,,,,,,129.8581,130.0558,130.0559,130.5557,,,,,,,,,,,,,,4.2297,1,,,,,,,,,,,,,,z,,,,,,,,,,,,,,,,11,0,130.5563,134.7894,z,1,4.2297,,[],[],[],[],[],[],[],134.7894,136.7885,136.7885,136.7888,[],[],[],[],[],[],[],,136.7889,136.7892,0.109166718,-0.189166718,0,0,0,,0,10,10,42,1,3,TL,detabe,cursive,detabe_c.png,,,,,,
,,,,31823,001,2025-11-05_20h05.08.116,HW_LDT_1,2024.2.4,Win32,60.60606061,,,,,,,,,,,,,,,,,,,,,,136.7908,136.989,136.989,137.4889,,,,,,,,,,,,,,3.925,0,,,,,,,,,,,,,,z,,,,,,,,,,,,,,,,12,1,137.4895,141.4222,m,0,3.925,,[],[],[],[],[],[],[],141.4223,143.4224,143.4225,144.9725,[],[],[],[],[],[],[],z,144.9726,144.9727,0.109166718,-0.189166718,0,0,0,,0,11,11,28,1,3,RL,rovastic,cursive,rovastic_c.png,1.5494,,,,,
,,,,31823,001,2025-11-05_20h05.08.116,HW_LDT_1,2024.2.4,Win32,60.60606061,,,,,,,,,,,,,,,,,,,,,,144.9746,145.1719,145.1719,145.6718,,,,,,,,,,,,,,5.5823,1,,,,,,,,,,,,,,z,,,,,,,,,,,,,,,,13,0,145.6724,151.2556,z,1,5.5823,,[],[],[],[],[],[],[],151.2557,153.2554,153.2554,153.256,[],[],[],[],[],[],[],,153.2561,153.2567,0.109166718,-0.189166718,0,0,0,,0,12,12,77,1,3,TL,vadility,cursive,vadility_c.png,,,,,,
,,,,31823,001,2025-11-05_20h05.08.116,HW_LDT_1,2024.2.4,Win32,60.60606061,,,,,,,,,,,,,,,,,,,,,,153.2592,153.4555,153.4556,153.9555,,,,,,,,,,,,,,1.1897,1,,,,,,,,,,,,,,m,,,,,,,,,,,,,,,,14,0,153.9561,155.1555,m,1,1.1897,,[],[],[],[],[],[],[],155.1556,157.1597,157.1597,157.16,[],[],[],[],[],[],[],,157.1602,157.1603,0.109166718,-0.189166718,0,0,0,,0,13,13,83,1,3,word,ANIMAL,cursive,animal_c.png,,,,,,
,,,,31823,001,2025-11-05_20h05.08.116,HW_LDT_1,2024.2.4,Win32,60.60606061,,,,,,,,,,,,,,,,,,,,,,157.1617,157.3595,157.3595,157.8587,,,,,,,,,,,,,,0.7996,1,,,,,,,,,,,,,,m,,,,,,,,,,,,,,,,15,0,157.8592,158.66,m,1,0.7996,,[],[],[],[],[],[],[],158.6601,160.6603,160.6604,160.6607,[],[],[],[],[],[],[],,160.6607,160.6609,0.109166718,-0.189166718,0,0,0,,0,14,14,151,1,3,word,SPECIFIC,print,specific_p.png,,,,,,
,,,,31823,001,2025-11-05_20h05.08.116,HW_LDT_1,2024.2.4,Win32,60.60606061,,,,,,,,,,,,,,,,,,,,,,160.6623,160.8594,160.8595,161.3592,,,,,,,,,,,,,,8.4154,1,,,,,,,,,,,,,,z,,,,,,,,,,,,,,,,16,0,161.3597,169.7761,z,1,8.4154,,[],[],[],[],[],[],[],169.7762,171.7761,171.7762,171.7765,[],[],[],[],[],[],[],,171.7766,171.7766,0.109166718,-0.189166718,0,0,0,,0,15,15,19,1,3,RL,opcifal,cursive,opcifal_c.png,,,,,,
,,,,31823,001,2025-11-05_20h05.08.116,HW_LDT_1,2024.2.4,Win32,60.60606061,,,,,,,,,,,,,,,,,,,,,,171.7781,171.9761,171.9761,172.4763,,,,,,,,,,,,,,1.2487,1,,,,,,,,,,,,,,z,,,,,,,,,,,,,,,,17,1,172.477,173.7265,z,1,1.2487,,[],[],[],[],[],[],[],173.7266,175.7258,175.7259,177.2591,[],[],[],[],[],[],[],m,177.2591,177.2593,0.109166718,-0.189166718,0,0,0,,0,16,16,46,1,3,TL,distupe,print,distupe_p.png,1.5324,,,,,
,,,,31823,001,2025-11-05_20h05.08.116,HW_LDT_1,2024.2.4,Win32,60.60606061,,,,,,,,,,,,,,,,,,,,,,177.2607,177.4592,177.4593,177.9589,,,,,,,,,,,,,,4.7165,0,,,,,,,,,,,,,,m,,,,,,,,,,,,,,,,18,0,177.9596,182.677,z,0,4.7165,,[],[],[],[],[],[],[],182.6771,184.6753,184.6754,184.6756,[],[],[],[],[],[],[],,184.6757,184.6757,0.109166718,-0.189166718,0,0,0,,0,17,17,110,1,3,word,HERITAGE,cursive,heritage_c.png,,,,,,
,,,,31823,001,2025-11-05_20h05.08.116,HW_LDT_1,2024.2.4,Win32,60.60606061,,,,,,,,,,,,,,,,,,,,,,184.6772,184.8758,184.8759,185.3748,,,,,,,,,,,,,,5.799,1,,,,,,,,,,,,,,z,,,,,,,,,,,,,,,,19,0,185.3752,191.1755,z,1,5.799,,[],[],[],[],[],[],[],191.1755,193.1753,193.1753,193.176,[],[],[],[],[],[],[],,193.176,193.1762,0.109166718,-0.189166718,0,0,0,,0,18,18,66,1,3,TL,retalive,cursive,retalive_c.png,,,,,,
,,,,31823,001,2025-11-05_20h05.08.116,HW_LDT_1,2024.2.4,Win32,60.60606061,,,,,,,,,,,,,,,,,,,,,,193.1777,193.3754,193.3754,193.8752,,,,,,,,,,,,,,1.716,1,,,,,,,,,,,,,,m,,,,,,,,,,,,,,,,20,0,193.8759,195.5927,m,1,1.716,,[],[],[],[],[],[],[],195.5928,197.5911,197.5911,197.5913,[],[],[],[],[],[],[],,197.5913,197.5915,0.109166718,-0.189166718,0,0,0,,0,19,19,140,1,3,word,RELATIVE,cursive,relative_c.png,,,,,,
,,,,31823,001,2025-11-05_20h05.08.116,HW_LDT_1,2024.2.4,Win32,60.60606061,,,,,,,,,,,,,,,,,,,,,,197.5924,197.7901,197.7901,198.2907,,,,,,,,,,,,,,1.1666,1,,,,,,,,,,,,,,z,,,,,,,,,,,,,,,,21,0,198.2912,199.4588,z,1,1.1666,,[],[],[],[],[],[],[],199.459,201.4585,201.4586,201.4588,[],[],[],[],[],[],[],,201.4589,201.459,0.109166718,-0.189166718,0,0,0,,0,20,20,27,1,3,RL,recile,print,recile_p.png,,,,,,
,,,,31823,001,2025-11-05_20h05.08.116,HW_LDT_1,2024.2.4,Win32,60.60606061,,,,,,,,,,,,,,,,,,,,,,201.4604,201.6588,201.6589,202.1591,,,,,,,,,,,,,,0.7649,1,,,,,,,,,,,,,,m,,,,,,,,,,,,,,,,22,0,202.1598,202.9257,m,1,0.7649,,[],[],[],[],[],[],[],202.9257,204.9253,204.9254,204.9255,[],[],[],[],[],[],[],,204.9255,204.9257,0.109166718,-0.189166718,0,0,0,,0,21,21,119,1,3,word,MEMORY,print,memory_p.png,,,,,,
,,,,31823,001,2025-11-05_20h05.08.116,HW_LDT_1,2024.2.4,Win32,60.60606061,,,,,,,,,,,,,,,,,,,,,,204.9271,205.1252,205.1253,205.6256,,,,,,,,,,,,,,3.3165,1,,,,,,,,,,,,,,m,,,,,,,,,,,,,,,,23,0,205.6264,208.9438,m,1,3.3165,,[],[],[],[],[],[],[],208.9439,210.9415,210.9417,210.9418,[],[],[],[],[],[],[],,210.9418,210.942,0.109166718,-0.189166718,0,0,0,,0,22,22,147,1,3,word,ROMANTIC,cursive,romantic_c.png,,,,,,
,,,,31823,001,2025-11-05_20h05.08.116,HW_LDT_1,2024.2.4,Win32,60.60606061,,,,,,,,,,,,,,,,,,,,,,210.9435,211.1421,211.1421,211.642,,,,,,,,,,,,,,3.3487,1,,,,,,,,,,,,,,m,,,,,,,,,,,,,,,,24,0,211.6427,214.9924,m,1,3.3487,,[],[],[],[],[],[],[],214.9926,216.9922,216.9923,216.9925,[],[],[],[],[],[],[],,216.9925,216.9927,0.109166718,-0.189166718,0,0,0,,0,23,23,128,1,3,word,PACIFIC,cursive,pacific_c.png,,,,,,
,,,,31823,001,2025-11-05_20h05.08.116,HW_LDT_1,2024.2.4,Win32,60.60606061,,,,,,,,,,,,,,,,,,,,,,216.9941,217.192,217.1921,217.6919,,,,,,,,,,,,,,4.6155,1,,,,,,,,,,,,,,z,,,,,,,,,,,,,,,,25,0,217.6927,222.3093,z,1,4.6155,,[],[],[],[],[],[],[],222.3095,224.3087,224.3087,224.309,[],[],[],[],[],[],[],,224.309,224.3091,0.109166718,-0.189166718,0,0,0,,0,24,24,72,1,3,TL,senmitent,print,senmitent_p.png,,,,,,
,,,,31823,001,2025-11-05_20h05.08.116,HW_LDT_1,2024.2.4,Win32,60.60606061,,,,,,,,,,,,,,,,,,,,,,224.3105,224.5087,224.5088,225.0087,,,,,,,,,,,,,,0.6827,1,,,,,,,,,,,,,,m,,,,,,,,,,,,,,,,26,0,225.0093,225.6931,m,1,0.6827,,[],[],[],[],[],[],[],225.6931,227.6915,227.6916,227.6917,[],[],[],[],[],[],[],,227.6918,227.6919,0.109166718,-0.189166718,0,0,0,,0,25,25,133,1,3,word,PROVIDE,print,provide_p.png,,,,,,
,,,,31823,001,2025-11-05_20h05.08.116,HW_LDT_1,2024.2.4,Win32,60.60606061,,,,,,,,,,,,,,,,,,,,,,227.6933,227.8918,227.8918,228.3916,,,,,,,,,,,,,,6.4817,1,,,,,,,,,,,,,,z,,,,,,,,,,,,,,,,27,1,228.3921,234.8749,z,1,6.4817,,[],[],[],[],[],[],[],234.875,236.8742,236.8743,238.6423,[],[],[],[],[],[],[],z,238.6423,238.6424,0.109166718,-0.189166718,0,0,0,,0,26,26,20,1,3,RL,orimipal,cursive,orimipal_c.png,1.7673,,,,,
,,,,31823,001,2025-11-05_20h05.08.116,HW_LDT_1,2024.2.4,Win32,60.60606061,,,,,,,,,,,,,,,,,,,,,,238.6435,238.8419,238.8419,239.3418,,,,,,,,,,,,,,1.0985,1,,,,,,,,,,,,,,m,,,,,,,,,,,,,,,,28,0,239.3424,240.442,m,1,1.0985,,[],[],[],[],[],[],[],240.442,242.4413,242.4413,242.4419,[],[],[],[],[],[],[],,242.442,242.4421,0.109166718,-0.189166718,0,0,0,,0,27,27,158,1,3,word,VELOCITY,cursive,velocity_c.png,,,,,,
,,,,31823,001,2025-11-05_20h05.08.116,HW_LDT_1,2024.2.4,Win32,60.60606061,,,,,,,,,,,,,,,,,,,,,,242.4435,242.6421,242.6421,243.1414,,,,,,,,,,,,,,6.7826,1,,,,,,,,,,,,,,z,,,,,,,,,,,,,,,,29,0,243.142,249.9255,z,1,6.7826,,[],[],[],[],[],[],[],249.9256,251.924,251.9241,251.9245,[],[],[],[],[],[],[],,251.9246,251.9247,0.109166718,-0.189166718,0,0,0,,0,28,28,76,1,3,TL,stogare,cursive,stogare_c.png,,,,,,
,,,,31823,001,2025-11-05_20h05.08.116,HW_LDT_1,2024.2.4,Win32,60.60606061,,,,,,,,,,,,,,,,,,,,,,251.9261,252.1247,252.1248,252.6245,,,,,,,,,,,,,,4.6495,1,,,,,,,,,,,,,,z,,,,,,,,,,,,,,,,30,0,252.6252,257.2757,z,1,4.6495,,[],[],[],[],[],[],[],257.2758,259.275,259.2751,259.2754,[],[],[],[],[],[],[],,259.2754,259.2756,0.109166718,-0.189166718,0,0,0,,0,29,29,13,1,3,RL,helicage,cursive,helicage_c.png,,,,,,
,,,,31823,001,2025-11-05_20h05.08.116,HW_LDT_1,2024.2.4,Win32,60.60606061,,,,,,,,,,,,,,,,,,,,,,259.277,259.4748,259.4748,259.9745,,,,,,,,,,,,,,0.5991,1,,,,,,,,,,,,,,m,,,,,,,,,,,,,,,,31,0,259.9752,260.5754,m,1,0.5991,,[],[],[],[],[],[],[],260.5754,262.5753,262.5753,262.5755,[],[],[],[],[],[],[],,262.5756,262.5757,0.109166718,-0.189166718,0,0,0,,0,30,30,96,1,3,word,CONSIDER,print,consider_p.png,,,,,,
,,,,31823,001,2025-11-05_20h05.08.116,HW_LDT_1,2024.2.4,Win32,60.60606061,,,,,,,,,,,,,,,,,,,,,,262.5771,262.7748,262.7748,263.275,,,,,,,,,,,,,,1.3815,1,,,,,,,,,,,,,,z,,,,,,,,,,,,,,,,32,0,263.2758,264.6584,z,1,1.3815,,[],[],[],[],[],[],[],264.6585,266.658,266.6581,266.6583,[],[],[],[],[],[],[],,266.6583,266.6585,0.109166718,-0.189166718,0,0,0,,0,31,31,7,1,3,RL,cobeny,print,cobeny_p.png,,,,,,
,,,,31823,001,2025-11-05_20h05.08.116,HW_LDT_1,2024.2.4,Win32,60.60606061,,,,,,,,,,,,,,,,,,,,,,266.6598,266.8579,266.8579,267.3586,,,,,,,,,,,,,,1.8319,1,,,,,,,,,,,,,,z,,,,,,,,,,,,,,,,33,1,267.3591,269.1921,z,1,1.8319,,[],[],[],[],[],[],[],269.1921,271.1915,271.1916,272.1584,[],[],[],[],[],[],[],m,272.1586,272.1587,0.109166718,-0.189166718,0,0,0,,0,32,32,10,1,3,RL,efibor,print,efibor_p.png,0.9661,,,,,
,,,,31823,001,2025-11-05_20h05.08.116,HW_LDT_1,2024.2.4,Win32,60.60606061,,,,,,,,,,,,,,,,,,,,,,272.1601,272.3578,272.3578,272.8576,,,,,,,,,,,,,,4.9659,0,,,,,,,,,,,,,,m,,,,,,,,,,,,,,,,34,0,272.8583,277.8253,z,0,4.9659,,[],[],[],[],[],[],[],277.8254,279.8248,279.8248,279.8251,[],[],[],[],[],[],[],,279.8252,279.8253,0.109166718,-0.189166718,0,0,0,,0,33,33,114,1,3,word,LOCATE,cursive,locate_c.png,,,,,,
,,,,31823,001,2025-11-05_20h05.08.116,HW_LDT_1,2024.2.4,Win32,60.60606061,,,,,,,,,,,,,,,,,,,,,,279.8266,280.0249,280.025,280.5245,,,,,,,,,,,,,,0.8988,1,,,,,,,,,,,,,,m,,,,,,,,,,,,,,,,35,0,280.5253,281.425,m,1,0.8988,,[],[],[],[],[],[],[],281.425,283.4237,283.4238,283.424,[],[],[],[],[],[],[],,283.424,283.4241,0.109166718,-0.189166718,0,0,0,,0,34,34,94,1,3,word,CLINICAL,print,clinical_p.png,,,,,,
,,,,31823,001,2025-11-05_20h05.08.116,HW_LDT_1,2024.2.4,Win32,60.60606061,,,,,,,,,,,,,,,,,,,,,,283.4254,283.6249,283.6249,284.1246,,,,,,,,,,,,,,1.0489,1,,,,,,,,,,,,,,m,,,,,,,,,,,,,,,,36,0,284.1253,285.1752,m,1,1.0489,,[],[],[],[],[],[],[],285.1753,287.1747,287.1748,287.175,[],[],[],[],[],[],[],,287.175,287.1751,0.109166718,-0.189166718,0,0,0,,0,35,35,138,1,3,word,REFUSAL,print,refusal_p.png,,,,,,
,,,,31823,001,2025-11-05_20h05.08.116,HW_LDT_1,2024.2.4,Win32,60.60606061,,,,,,,,,,,,,,,,,,,,,,287.1765,287.3745,287.3746,287.8744,,,,,,,,,,,,,,3.8326,1,,,,,,,,,,,,,,z,,,,,,,,,,,,,,,,37,0,287.875,291.7086,z,1,3.8326,,[],[],[],[],[],[],[],291.7087,293.7078,293.7078,293.7081,[],[],[],[],[],[],[],,293.7081,293.7082,0.109166718,-0.189166718,0,0,0,,0,36,36,17,1,3,RL,motide,cursive,motide_c.png,,,,,,
,,,,31823,001,2025-11-05_20h05.08.116,HW_LDT_1,2024.2.4,Win32,60.60606061,,,,,,,,,,,,,,,,,,,,,,293.7097,293.9076,293.9076,294.4067,,,,,,,,,,,,,,1.9335,1,,,,,,,,,,,,,,m,,,,,,,,,,,,,,,,38,0,294.4072,296.342,m,1,1.9335,,[],[],[],[],[],[],[],296.3421,298.3405,298.3407,298.3408,[],[],[],[],[],[],[],,298.3409,298.341,0.109166718,-0.189166718,0,0,0,,0,37,37,90,1,3,word,CAPITAL,cursive,capital_c.png,,,,,,
,,,,31823,001,2025-11-05_20h05.08.116,HW_LDT_1,2024.2.4,Win32,60.60606061,,,,,,,,,,,,,,,,,,,,,,298.3425,298.5406,298.5406,299.0408,,,,,,,,,,,,,,0.6324,0,,,,,,,,,,,,,,z,,,,,,,,,,,,,,,,39,0,299.0413,299.6747,m,0,0.6324,,[],[],[],[],[],[],[],299.6748,301.6731,301.6732,301.6734,[],[],[],[],[],[],[],,301.6734,301.6735,0.109166718,-0.189166718,0,0,0,,0,38,38,32,1,3,TL,adacemy,print,adacemy_p.png,,,,,,
,,,,31823,001,2025-11-05_20h05.08.116,HW_LDT_1,2024.2.4,Win32,60.60606061,,,,,,,,,,,,,,,,,,,,,,301.6746,301.8744,301.8744,302.3736,,,,,,,,,,,,,,0.7162,1,,,,,,,,,,,,,,m,,,,,,,,,,,,,,,,40,0,302.3744,303.0917,m,1,0.7162,,[],[],[],[],[],[],[],303.0918,305.0905,305.0906,305.0908,[],[],[],[],[],[],[],,305.0909,305.091,0.109166718,-0.189166718,0,0,0,,0,39,39,124,1,3,word,NUMERICAL,print,numerical_p.png,,,,,,
,,,,31823,001,2025-11-05_20h05.08.116,HW_LDT_1,2024.2.4,Win32,60.60606061,,,,,,,,,,,,,,,,,,,,,,305.0925,305.2906,305.2907,305.7906,,,,,,,,,,,,,,1.1655,1,,,,,,,,,,,,,,m,,,,,,,,,,,,,,,,41,0,305.7913,306.9577,m,1,1.1655,,[],[],[],[],[],[],[],306.9578,308.9574,308.9574,308.9577,[],[],[],[],[],[],[],,308.9577,308.9577,0.109166718,-0.189166718,0,0,0,,0,40,40,148,1,3,word,SALINE,cursive,saline_c.png,,,,,,
,,,,31823,001,2025-11-05_20h05.08.116,HW_LDT_1,2024.2.4,Win32,60.60606061,,,,,,,,,,,,,,,,,,,,,,308.9591,309.157,309.157,309.6571,,,,,,,,,,,,,,2.4333,1,,,,,,,,,,,,,,z,,,,,,,,,,,,,,,,42,0,309.6578,312.0922,z,1,2.4333,,[],[],[],[],[],[],[],312.0924,314.0904,314.0904,314.0907,[],[],[],[],[],[],[],,314.0908,314.0909,0.109166718,-0.189166718,0,0,0,,0,41,41,59,1,3,TL,paficic,cursive,paficic_c.png,,,,,,
,,,,31823,001,2025-11-05_20h05.08.116,HW_LDT_1,2024.2.4,Win32,60.60606061,,,,,,,,,,,,,,,,,,,,,,314.0926,314.2908,314.2909,314.7909,,,,,,,,,,,,,,1.1316,1,,,,,,,,,,,,,,z,,,,,,,,,,,,,,,,43,0,314.7916,315.9245,z,1,1.1316,,[],[],[],[],[],[],[],315.9246,317.924,317.9241,317.9243,[],[],[],[],[],[],[],,317.9244,317.9244,0.109166718,-0.189166718,0,0,0,,0,42,42,8,1,3,RL,cocewage,print,cocewage_p.png,,,,,,
,,,,31823,001,2025-11-05_20h05.08.116,HW_LDT_1,2024.2.4,Win32,60.60606061,,,,,,,,,,,,,,,,,,,,,,317.9257,318.1241,318.1242,318.6243,,,,,,,,,,,,,,1.8487,1,,,,,,,,,,,,,,m,,,,,,,,,,,,,,,,44,0,318.6249,320.4748,m,1,1.8487,,[],[],[],[],[],[],[],320.4749,322.4741,322.4741,322.4746,[],[],[],[],[],[],[],,322.4746,322.4747,0.109166718,-0.189166718,0,0,0,,0,43,43,144,1,3,word,RESIDENT,cursive,resident_c.png,,,,,,
,,,,31823,001,2025-11-05_20h05.08.116,HW_LDT_1,2024.2.4,Win32,60.60606061,,,,,,,,,,,,,,,,,,,,,,322.4762,322.674,322.6743,323.1744,,,,,,,,,,,,,,1.0983,1,,,,,,,,,,,,,,z,,,,,,,,,,,,,,,,45,0,323.175,324.2743,z,1,1.0983,,[],[],[],[],[],[],[],324.2744,326.2739,326.2741,326.2742,[],[],[],[],[],[],[],,326.2743,326.2744,0.109166718,-0.189166718,0,0,0,,0,44,44,26,1,3,RL,repifion,print,repifion_p.png,,,,,,
,,,,31823,001,2025-11-05_20h05.08.116,HW_LDT_1,2024.2.4,Win32,60.60606061,,,,,,,,,,,,,,,,,,,,,,326.2759,326.4741,326.4741,326.974,,,,,,,,,,,,,,1.2328,1,,,,,,,,,,,,,,m,,,,,,,,,,,,,,,,46,0,326.9747,328.2087,m,1,1.2328,,[],[],[],[],[],[],[],328.2087,330.2073,330.2075,330.2077,[],[],[],[],[],[],[],,330.2077,330.2077,0.109166718,-0.189166718,0,0,0,,0,45,45,152,1,3,word,SPECIMEN,print,specimen_p.png,,,,,,
,,,,31823,001,2025-11-05_20h05.08.116,HW_LDT_1,2024.2.4,Win32,60.60606061,,,,,,,,,,,,,,,,,,,,,,330.2092,330.4072,330.4072,330.907,,,,,,,,,,,,,,0.9156,1,,,,,,,,,,,,,,m,,,,,,,,,,,,,,,,47,0,330.9076,331.824,m,1,0.9156,,[],[],[],[],[],[],[],331.8241,333.8241,333.8241,333.8243,[],[],[],[],[],[],[],,333.8244,333.8247,0.109166718,-0.189166718,0,0,0,,0,46,46,91,1,3,word,CARDINAL,print,cardinal_p.png,,,,,,
,,,,31823,001,2025-11-05_20h05.08.116,HW_LDT_1,2024.2.4,Win32,60.60606061,,,,,,,,,,,,,,,,,,,,,,333.826,334.0241,334.0243,334.5235,,,,,,,,,,,,,,3.9816,1,,,,,,,,,,,,,,z,,,,,,,,,,,,,,,,48,0,334.5243,338.507,z,1,3.9816,,[],[],[],[],[],[],[],338.507,340.5067,340.5067,340.5069,[],[],[],[],[],[],[],,340.507,340.5071,0.109166718,-0.189166718,0,0,0,,0,47,47,3,1,3,RL,bebine,cursive,bebine_c.png,,,,,,
,,,,31823,001,2025-11-05_20h05.08.116,HW_LDT_1,2024.2.4,Win32,60.60606061,,,,,,,,,,,,,,,,,,,,,,340.5086,340.707,340.707,341.2069,,,,,,,,,,,,,,1.3318,1,,,,,,,,,,,,,,m,,,,,,,,,,,,,,,,49,0,341.2077,342.5405,m,1,1.3318,,[],[],[],[],[],[],[],342.5405,344.5402,344.5403,344.5404,[],[],[],[],[],[],[],,344.5405,344.5405,0.109166718,-0.189166718,0,0,0,,0,48,48,136,1,3,word,RADICAL,cursive,radical_c.png,,,,,,
,,,,31823,001,2025-11-05_20h05.08.116,HW_LDT_1,2024.2.4,Win32,60.60606061,,,,,,,,,,,,,,,,,,,,,,344.542,344.7401,344.7401,345.2401,,,,,,,,,,,,,,1.5825,1,,,,,,,,,,,,,,z,,,,,,,,,,,,,,,,50,0,345.2407,346.8242,z,1,1.5825,,[],[],[],[],[],[],[],346.8243,348.8229,348.823,348.8232,[],[],[],[],[],[],[],,348.8232,348.8233,0.109166718,-0.189166718,0,0,0,,0,49,49,25,1,3,RL,retupar,print,retupar_p.png,,,,,,
,,,,31823,001,2025-11-05_20h05.08.116,HW_LDT_1,2024.2.4,Win32,60.60606061,,,,,,,,,,,,,,,,,,,,,,348.8248,349.0236,349.0236,349.5233,,,,,,,,,,,,,,0.6156,0,,,,,,,,,,,,,,z,,,,,,,,,,,,,,,,51,0,349.5239,350.1407,m,0,0.6156,,[],[],[],[],[],[],[],350.1408,352.1401,352.1402,352.1404,[],[],[],[],[],[],[],,352.1405,352.1407,0.109166718,-0.189166718,0,0,0,,0,50,50,40,1,3,TL,condiser,print,condiser_p.png,,,,,,
,,,,31823,001,2025-11-05_20h05.08.116,HW_LDT_1,2024.2.4,Win32,60.60606061,,,,,,,,,,,,,,,,,,,,,,352.1421,352.3404,352.3404,352.839,,,,,,,,,,,,,,1.1993,1,,,,,,,,,,,,,,m,,,,,,,,,,,,,,,,52,0,352.8397,354.0402,m,1,1.1993,,[],[],[],[],[],[],[],354.0403,356.0397,356.0398,356.04,[],[],[],[],[],[],[],,356.04,356.0401,0.109166718,-0.189166718,0,0,0,,0,51,51,115,1,3,word,LOGICAL,cursive,logical_c.png,,,,,,
,,,,31823,001,2025-11-05_20h05.08.116,HW_LDT_1,2024.2.4,Win32,60.60606061,,,,,,,,,,,,,,,,,,,,,,356.0416,356.2399,356.2399,356.7399,,,,,,,,,,,,,,3.8831,1,,,,,,,,,,,,,,z,,,,,,,,,,,,,,,,53,0,356.7405,360.6244,z,1,3.8831,,[],[],[],[],[],[],[],360.6245,362.6234,362.6235,362.6236,[],[],[],[],[],[],[],,362.6236,362.6237,0.109166718,-0.189166718,0,0,0,,0,52,52,29,1,3,RL,selamor,cursive,selamor_c.png,,,,,,
,,,,31823,001,2025-11-05_20h05.08.116,HW_LDT_1,2024.2.4,Win32,60.60606061,,,,,,,,,,,,,,,,,,,,,,362.6251,362.8234,362.8235,363.3234,,,,,,,,,,,,,,4.1657,0,,,,,,,,,,,,,,m,,,,,,,,,,,,,,,,54,0,363.3242,367.491,z,0,4.1657,,[],[],[],[],[],[],[],367.4911,369.4897,369.4899,369.4901,[],[],[],[],[],[],[],,369.4902,369.4904,0.109166718,-0.189166718,0,0,0,,0,53,53,127,1,3,word,ORIGINAL,cursive,original_c.png,,,,,,
,,,,31823,001,2025-11-05_20h05.08.116,HW_LDT_1,2024.2.4,Win32,60.60606061,,,,,,,,,,,,,,,,,,,,,,369.4917,369.6899,369.69,370.19,,,,,,,,,,,,,,2.6142,1,,,,,,,,,,,,,,m,,,,,,,,,,,,,,,,55,0,370.1906,372.8057,m,1,2.6142,,[],[],[],[],[],[],[],372.8057,374.8063,374.8064,374.8065,[],[],[],[],[],[],[],,374.8066,374.8068,0.109166718,-0.189166718,0,0,0,,0,54,54,125,1,3,word,OPERATOR,print,operator_p.png,,,,,,
,,,,31823,001,2025-11-05_20h05.08.116,HW_LDT_1,2024.2.4,Win32,60.60606061,,,,,,,,,,,,,,,,,,,,,,374.8082,375.0059,375.0059,375.5076,,,,,,,,,,,,,,2.5474,1,,,,,,,,,,,,,,m,,,,,,,,,,,,,,,,56,0,375.5084,378.0567,m,1,2.5474,,[0.10916671752929688],[-0.18916671752929687],[1],[0],[0],[0.5144000000953497],[null],378.0568,380.0564,380.0565,380.0567,[],[],[],[],[],[],[],,380.0567,380.0569,0.109166718,-0.189166718,0,0,0,,0,55,55,118,1,3,word,MEDICINE,print,medicine_p.png,,,,,,
,,,,31823,001,2025-11-05_20h05.08.116,HW_LDT_1,2024.2.4,Win32,60.60606061,,,,,,,,,,,,,,,,,,,,,,380.0582,380.2566,380.2566,380.7559,,,,,,,,,,,,,,4.1481,0,,,,,,,,,,,,,,z,,,,,,,,,,,,,,,,57,0,380.7566,384.9055,m,0,4.1481,,[],[],[],[],[],[],[],384.9056,386.9065,386.9065,386.9067,[],[],[],[],[],[],[],,386.9067,386.907,0.109166718,-0.189166718,0,0,0,,0,56,56,54,1,3,TL,manire,cursive,manire_c.png,,,,,,
,,,,31823,001,2025-11-05_20h05.08.116,HW_LDT_1,2024.2.4,Win32,60.60606061,,,,,,,,,,,,,,,,,,,,,,386.9082,387.1064,387.1065,387.6061,,,,,,,,,,,,,,4.8323,1,,,,,,,,,,,,,,m,,,,,,,,,,,,,,,,58,1,387.6069,392.44,m,1,4.8323,,[],[],[],[],[],[],[],392.44,394.4396,394.4397,397.0398,[],[],[],[],[],[],[],z,397.04,397.04,0.109166718,-0.189166718,0,0,0,,0,57,57,93,1,3,word,CEREMONY,cursive,ceremony_c.png,2.5993,,,,,
,,,,31823,001,2025-11-05_20h05.08.116,HW_LDT_1,2024.2.4,Win32,60.60606061,,,,,,,,,,,,,,,,,,,,,,397.0413,397.2393,397.2393,397.739,,,,,,,,,,,,,,1.6989,0,,,,,,,,,,,,,,z,,,,,,,,,,,,,,,,59,1,397.7397,399.4398,m,0,1.6989,,[],[],[],[],[],[],[],399.4399,401.4395,401.4396,402.7565,[],[],[],[],[],[],[],z,402.7566,402.7567,0.109166718,-0.189166718,0,0,0,,0,58,58,52,1,3,TL,locigal,cursive,locigal_c.png,1.3164,,,,,
,,,,31823,001,2025-11-05_20h05.08.116,HW_LDT_1,2024.2.4,Win32,60.60606061,,,,,,,,,,,,,,,,,,,,,,402.7579,402.9559,402.956,403.4559,,,,,,,,,,,,,,3.5658,1,,,,,,,,,,,,,,z,,,,,,,,,,,,,,,,60,0,403.4566,407.0233,z,1,3.5658,,[],[],[],[],[],[],[],407.0234,409.0225,409.0226,409.0229,[],[],[],[],[],[],[],,409.0229,409.0231,0.109166718,-0.189166718,0,0,0,,0,59,59,12,1,3,RL,formuke,cursive,formuke_c.png,,,,,,
,,,,31823,001,2025-11-05_20h05.08.116,HW_LDT_1,2024.2.4,Win32,60.60606061,,,,,,,,,,,,,,,,,,,,,,409.0244,409.2228,409.2229,409.7228,,,,,,,,,,,,,,0.6985,1,,,,,,,,,,,,,,m,,,,,,,,,,,,,,,,61,0,409.7234,410.4229,m,1,0.6985,,[],[],[],[],[],[],[],410.423,412.4221,412.4222,412.4223,[],[],[],[],[],[],[],,412.4224,412.4225,0.109166718,-0.189166718,0,0,0,,0,60,60,146,1,3,word,RETIRE,print,retire_p.png,,,,,,
,,,,31823,001,2025-11-05_20h05.08.116,HW_LDT_1,2024.2.4,Win32,60.60606061,,,,,,,,,,,,,,,,,,,,,,412.4234,412.6219,412.6219,413.1228,,,,,,,,,,,,,,1.0655,1,,,,,,,,,,,,,,z,,,,,,,,,,,,,,,,62,1,413.1234,414.1898,z,1,1.0655,,[],[],[],[],[],[],[],414.1898,416.1894,416.1894,417.5399,[],[],[],[],[],[],[],m,417.54,417.5402,0.109166718,-0.189166718,0,0,0,,0,61,61,22,1,3,RL,procogal,print,procogal_p.png,1.3497,,,,,
,,,,31823,001,2025-11-05_20h05.08.116,HW_LDT_1,2024.2.4,Win32,60.60606061,,,,,,,,,,,,,,,,,,,,,,417.5414,417.739,417.7391,418.2392,,,,,,,,,,,,,,0.6486,1,,,,,,,,,,,,,,m,,,,,,,,,,,,,,,,63,0,418.2399,418.8891,m,1,0.6486,,[],[],[],[],[],[],[],418.8892,420.889,420.8891,420.8891,[],[],[],[],[],[],[],,420.8892,420.8894,0.109166718,-0.189166718,0,0,0,,0,62,62,137,1,3,word,RAPIDLY,print,rapidly_p.png,,,,,,
,,,,31823,001,2025-11-05_20h05.08.116,HW_LDT_1,2024.2.4,Win32,60.60606061,,,,,,,,,,,,,,,,,,,,,,420.8903,421.0892,421.0892,421.5882,,,,,,,,,,,,,,1.233,1,,,,,,,,,,,,,,z,,,,,,,,,,,,,,,,64,1,421.5888,422.8226,z,1,1.233,,[],[],[],[],[],[],[],422.8228,424.8225,424.8226,425.9735,[],[],[],[],[],[],[],m,425.9736,425.9737,0.109166718,-0.189166718,0,0,0,,0,63,63,2,1,3,RL,betemit,print,betemit_p.png,1.1502,,,,,
,,,,31823,001,2025-11-05_20h05.08.116,HW_LDT_1,2024.2.4,Win32,60.60606061,,,,,,,,,,,,,,,,,,,,,,425.9751,426.1721,426.1721,426.6722,,,,,,,,,,,,,,3.099,1,,,,,,,,,,,,,,m,,,,,,,,,,,,,,,,65,0,426.6729,429.773,m,1,3.099,,[],[],[],[],[],[],[],429.7731,431.7719,431.772,431.7722,[],[],[],[],[],[],[],,431.7723,431.7723,0.109166718,-0.189166718,0,0,0,,0,64,64,153,1,3,word,STOLEN,cursive,stolen_c.png,,,,,,
,,,,31823,001,2025-11-05_20h05.08.116,HW_LDT_1,2024.2.4,Win32,60.60606061,,,,,,,,,,,,,,,,,,,,,,431.7736,431.9723,431.9724,432.4723,,,,,,,,,,,,,,0.7327,0,,,,,,,,,,,,,,z,,,,,,,,,,,,,,,,66,0,432.4728,433.2064,m,0,0.7327,,[],[],[],[],[],[],[],433.2065,435.2054,435.2054,435.2056,[],[],[],[],[],[],[],,435.2056,435.2057,0.109166718,-0.189166718,0,0,0,,0,65,65,47,1,3,TL,elarobate,print,elarobate_p.png,,,,,,
,,,,31823,001,2025-11-05_20h05.08.116,HW_LDT_1,2024.2.4,Win32,60.60606061,,,,,,,,,,,,,,,,,,,,,,435.2066,435.4054,435.4055,435.906,,,,,,,,,,,,,,4.1987,0,,,,,,,,,,,,,,m,,,,,,,,,,,,,,,,67,0,435.9065,440.1062,z,0,4.1987,,[],[],[],[],[],[],[],440.1062,442.1056,442.1056,442.1058,[],[],[],[],[],[],[],,442.1059,442.106,0.109166718,-0.189166718,0,0,0,,0,66,66,108,1,3,word,FORTUNE,cursive,fortune_c.png,,,,,,
,,,,31823,001,2025-11-05_20h05.08.116,HW_LDT_1,2024.2.4,Win32,60.60606061,,,,,,,,,,,,,,,,,,,,,,442.1074,442.3049,442.3051,442.8051,,,,,,,,,,,,,,3.5833,1,,,,,,,,,,,,,,m,,,,,,,,,,,,,,,,68,0,442.806,446.3904,m,1,3.5833,,[],[],[],[],[],[],[],446.3904,448.3879,448.3879,448.388,[],[],[],[],[],[],[],,448.3881,448.3882,0.109166718,-0.189166718,0,0,0,,0,67,67,89,1,3,word,CAPACITY,cursive,capacity_c.png,,,,,,
,,,,31823,001,2025-11-05_20h05.08.116,HW_LDT_1,2024.2.4,Win32,60.60606061,,,,,,,,,,,,,,,,,,,,,,448.3896,448.5888,448.5889,449.0884,,,,,,,,,,,,,,2.5146,1,,,,,,,,,,,,,,z,,,,,,,,,,,,,,,,69,0,449.0893,451.605,z,1,2.5146,,[],[],[],[],[],[],[],451.6051,453.6054,453.6054,453.6056,[],[],[],[],[],[],[],,453.6056,453.6058,0.109166718,-0.189166718,0,0,0,,0,68,68,15,1,3,RL,mifikary,cursive,mifikary_c.png,,,,,,
,,,,31823,001,2025-11-05_20h05.08.116,HW_LDT_1,2024.2.4,Win32,60.60606061,,,,,,,,,,,,,,,,,,,,,,453.6072,453.8054,453.8055,454.3052,,,,,,,,,,,,,,0.7822,1,,,,,,,,,,,,,,m,,,,,,,,,,,,,,,,70,0,454.3057,455.0887,m,1,0.7822,,[],[],[],[],[],[],[],455.0888,457.0889,457.089,457.0892,[],[],[],[],[],[],[],,457.0892,457.0892,0.109166718,-0.189166718,0,0,0,,0,69,69,155,1,3,word,STRATEGY,print,strategy_p.png,,,,,,
,,,,31823,001,2025-11-05_20h05.08.116,HW_LDT_1,2024.2.4,Win32,60.60606061,,,,,,,,,,,,,,,,,,,,,,457.0903,457.2883,457.2883,457.7882,,,,,,,,,,,,,,0.7833,0,,,,,,,,,,,,,,z,,,,,,,,,,,,,,,,71,0,457.789,458.5732,m,0,0.7833,,[],[],[],[],[],[],[],458.5733,460.572,460.572,460.5722,[],[],[],[],[],[],[],,460.5722,460.5723,0.109166718,-0.189166718,0,0,0,,0,70,70,49,1,3,TL,incidate,print,incidate_p.png,,,,,,
,,,,31823,001,2025-11-05_20h05.08.116,HW_LDT_1,2024.2.4,Win32,60.60606061,,,,,,,,,,,,,,,,,,,,,,460.5737,460.7719,460.772,461.2713,,,,,,,,,,,,,,1.3321,1,,,,,,,,,,,,,,z,,,,,,,,,,,,,,,,72,0,461.2721,462.6049,z,1,1.3321,,[],[],[],[],[],[],[],462.6049,464.6051,464.6051,464.6053,[],[],[],[],[],[],[],,464.6055,464.6055,0.109166718,-0.189166718,0,0,0,,0,71,71,0,1,3,RL,afaneur,print,afaneur_p.png,,,,,,
,,,,31823,001,2025-11-05_20h05.08.116,HW_LDT_1,2024.2.4,Win32,60.60606061,,,,,,,,,,,,,,,,,,,,,,464.6069,464.8051,464.8053,465.305,,,,,,,,,,,,,,0.6828,0,,,,,,,,,,,,,,z,,,,,,,,,,,,,,,,73,0,465.3056,465.99,m,0,0.6828,,[],[],[],[],[],[],[],465.9901,467.9884,467.9884,467.9889,[],[],[],[],[],[],[],,467.989,467.9891,0.109166718,-0.189166718,0,0,0,,0,72,72,38,1,3,TL,carnidal,print,carnidal_p.png,,,,,,
,,,,31823,001,2025-11-05_20h05.08.116,HW_LDT_1,2024.2.4,Win32,60.60606061,,,,,,,,,,,,,,,,,,,,,,467.9913,468.1876,468.1876,468.6885,,,,,,,,,,,,,,1.9485,1,,,,,,,,,,,,,,z,,,,,,,,,,,,,,,,74,0,468.6891,470.6389,z,1,1.9485,,[],[],[],[],[],[],[],470.639,472.6385,472.6386,472.6392,[],[],[],[],[],[],[],,472.6392,472.6394,0.109166718,-0.189166718,0,0,0,,0,73,73,30,1,3,RL,strapely,print,strapely_p.png,,,,,,
,,,,31823,001,2025-11-05_20h05.08.116,HW_LDT_1,2024.2.4,Win32,60.60606061,,,,,,,,,,,,,,,,,,,,,,472.6408,472.8385,472.8385,473.3379,,,,,,,,,,,,,,5.8993,1,,,,,,,,,,,,,,m,,,,,,,,,,,,,,,,75,1,473.3386,479.2388,m,1,5.8993,,[],[],[],[],[],[],[],479.2388,481.2381,481.2382,482.1387,[],[],[],[],[],[],[],z,482.1388,482.1389,0.109166718,-0.189166718,0,0,0,,0,74,74,117,1,3,word,MARINE,cursive,marine_c.png,0.8998,,,,,
,,,,31823,001,2025-11-05_20h05.08.116,HW_LDT_1,2024.2.4,Win32,60.60606061,,,,,,,,,,,,,,,,,,,,,,482.1404,482.3381,482.3382,482.8386,,,,,,,,,,,,,,0.6819,1,,,,,,,,,,,,,,m,,,,,,,,,,,,,,,,76,0,482.8391,483.5221,m,1,0.6819,,[],[],[],[],[],[],[],483.5222,485.5223,485.5223,485.5225,[],[],[],[],[],[],[],,485.5225,485.5227,0.109166718,-0.189166718,0,0,0,,0,75,75,131,1,3,word,POPULAR,print,popular_p.png,,,,,,
,,,,31823,001,2025-11-05_20h05.08.116,HW_LDT_1,2024.2.4,Win32,60.60606061,,,,,,,,,,,,,,,,,,,,,,485.5242,485.7209,485.7209,486.221,,,,,,,,,,,,,,3.482,1,,,,,,,,,,,,,,z,,,,,,,,,,,,,,,,77,0,486.2216,489.7044,z,1,3.482,,[],[],[],[],[],[],[],489.7045,491.7044,491.7046,491.7048,[],[],[],[],[],[],[],,491.7048,491.7049,0.109166718,-0.189166718,0,0,0,,0,76,76,9,1,3,RL,docirant,print,docirant_p.png,,,,,,
,,,,31823,001,2025-11-05_20h05.08.116,HW_LDT_1,2024.2.4,Win32,60.60606061,,,,,,,,,,,,,,,,,,,,,,491.7064,491.9053,491.9053,492.4047,,,,,,,,,,,,,,6.2318,1,,,,,,,,,,,,,,z,,,,,,,,,,,,,,,,78,0,492.4054,498.6384,z,1,6.2318,,[],[],[],[],[],[],[],498.6385,500.6365,500.6365,500.6367,[],[],[],[],[],[],[],,500.6367,500.6367,0.109166718,-0.189166718,0,0,0,,0,77,77,68,1,3,TL,revomal,cursive,revomal_c.png,,,,,,
,,,,31823,001,2025-11-05_20h05.08.116,HW_LDT_1,2024.2.4,Win32,60.60606061,,,,,,,,,,,,,,,,,,,,,,500.6376,500.838,500.8381,501.3382,,,,,,,,,,,,,,7.0482,1,,,,,,,,,,,,,,z,,,,,,,,,,,,,,,,79,0,501.3388,508.3881,z,1,7.0482,,[],[],[],[],[],[],[],508.3881,510.3877,510.3878,510.388,[],[],[],[],[],[],[],,510.3881,510.3881,0.109166718,-0.189166718,0,0,0,,0,78,78,48,1,3,TL,grafetul,cursive,grafetul_c.png,,,,,,
,,,,31823,001,2025-11-05_20h05.08.116,HW_LDT_1,2024.2.4,Win32,60.60606061,,,,,,,,,,,,,,,,,,,,,,510.3897,510.5881,510.5881,511.0881,,,,,,,,,,,,,,0.8822,1,,,,,,,,,,,,,,m,,,,,,,,,,,,,,,,80,0,511.0887,511.972,m,1,0.8822,,[],[],[],[],[],[],[],511.9721,513.9712,513.9713,513.9714,[],[],[],[],[],[],[],,513.9715,518.0893,0.109166718,-0.189166718,0,0,0,space,0,79,79,80,1,3,word,ACADEMY,print,academy_p.png,,,4.1008,,,
,,,,31823,001,2025-11-05_20h05.08.116,HW_LDT_1,2024.2.4,Win32,60.60606061,,,,,,,,,,,,,,,,,,,,,,518.0908,518.2881,518.2883,518.7878,,,,,,,,,,,,,,2.7991,0,,,,,,,,,,,,,,z,,,,,,,,,,,,,,,,81,1,518.7884,521.5886,m,0,2.7991,,[],[],[],[],[],[],[],521.5886,523.5869,523.587,524.4544,[],[],[],[],[],[],[],z,524.4544,524.4546,0.109166718,-0.189166718,0,0,0,,0,80,80,11,1,3,RL,ebiwent,cursive,ebiwent_c.png,0.8667,,,,,
,,,,31823,001,2025-11-05_20h05.08.116,HW_LDT_1,2024.2.4,Win32,60.60606061,,,,,,,,,,,,,,,,,,,,,,524.4559,524.6549,524.6549,525.1542,,,,,,,,,,,,,,0.6328,1,,,,,,,,,,,,,,m,,,,,,,,,,,,,,,,82,1,525.1548,525.7886,m,1,0.6328,,[],[],[],[],[],[],[],525.7887,527.7879,527.788,528.6381,[],[],[],[],[],[],[],m,528.6382,528.6383,0.109166718,-0.189166718,0,0,0,,0,81,81,95,1,3,word,COMEDY,print,comedy_p.png,0.8496,,,,,
,,,,31823,001,2025-11-05_20h05.08.116,HW_LDT_1,2024.2.4,Win32,60.60606061,,,,,,,,,,,,,,,,,,,,,,528.6397,528.8378,528.8379,529.3381,,,,,,,,,,,,,,1.3156,1,,,,,,,,,,,,,,z,,,,,,,,,,,,,,,,83,0,529.3387,530.6556,z,1,1.3156,,[],[],[],[],[],[],[],530.6557,532.6546,532.6546,532.655,[],[],[],[],[],[],[],,532.6551,532.6552,0.109166718,-0.189166718,0,0,0,,0,82,82,67,1,3,TL,retome,print,retome_p.png,,,,,,
,,,,31823,001,2025-11-05_20h05.08.116,HW_LDT_1,2024.2.4,Win32,60.60606061,,,,,,,,,,,,,,,,,,,,,,532.6565,532.8541,532.8542,533.3543,,,,,,,,,,,,,,0.6819,1,,,,,,,,,,,,,,m,,,,,,,,,,,,,,,,84,0,533.355,534.0377,m,1,0.6819,,[],[],[],[],[],[],[],534.0378,536.0377,536.0377,536.038,[],[],[],[],[],[],[],,536.0381,536.0381,0.109166718,-0.189166718,0,0,0,,0,83,83,97,1,3,word,COVERAGE,print,coverage_p.png,,,,,,
,,,,31823,001,2025-11-05_20h05.08.116,HW_LDT_1,2024.2.4,Win32,60.60606061,,,,,,,,,,,,,,,,,,,,,,536.0398,536.2374,536.2375,536.7376,,,,,,,,,,,,,,1.5324,1,,,,,,,,,,,,,,m,,,,,,,,,,,,,,,,85,0,536.7383,538.2718,m,1,1.5324,,[],[],[],[],[],[],[],538.2719,540.2709,540.2709,540.2711,[],[],[],[],[],[],[],,540.2711,540.2712,0.109166718,-0.189166718,0,0,0,,0,84,84,154,1,3,word,STORAGE,cursive,storage_c.png,,,,,,
,,,,31823,001,2025-11-05_20h05.08.116,HW_LDT_1,2024.2.4,Win32,60.60606061,,,,,,,,,,,,,,,,,,,,,,540.2729,540.4705,540.4706,540.9709,,,,,,,,,,,,,,2.4155,0,,,,,,,,,,,,,,m,,,,,,,,,,,,,,,,86,0,540.9715,543.3882,z,0,2.4155,,[],[],[],[],[],[],[],543.3883,545.3876,545.3876,545.3878,[],[],[],[],[],[],[],,545.3878,545.3881,0.109166718,-0.189166718,0,0,0,,0,85,85,109,1,3,word,GRATEFUL,cursive,grateful_c.png,,,,,,
,,,,31823,001,2025-11-05_20h05.08.116,HW_LDT_1,2024.2.4,Win32,60.60606061,,,,,,,,,,,,,,,,,,,,,,545.3895,545.5866,545.5867,546.0874,,,,,,,,,,,,,,1.3654,1,,,,,,,,,,,,,,z,,,,,,,,,,,,,,,,87,0,546.0882,547.4544,z,1,1.3654,,[],[],[],[],[],[],[],547.4545,549.4543,549.4543,549.4544,[],[],[],[],[],[],[],,549.4545,549.4547,0.109166718,-0.189166718,0,0,0,,0,86,86,21,1,3,RL,potugar,print,potugar_p.png,,,,,,
,,,,31823,001,2025-11-05_20h05.08.116,HW_LDT_1,2024.2.4,Win32,60.60606061,,,,,,,,,,,,,,,,,,,,,,549.4561,549.6541,549.6541,550.1539,,,,,,,,,,,,,,5.0162,1,,,,,,,,,,,,,,z,,,,,,,,,,,,,,,,88,0,550.1545,555.1718,z,1,5.0162,,[],[],[],[],[],[],[],555.1719,557.1701,557.1702,557.1703,[],[],[],[],[],[],[],,557.1704,557.1705,0.109166718,-0.189166718,0,0,0,,0,87,87,1,1,3,RL,bewoted,cursive,bewoted_c.png,,,,,,
,,,,31823,001,2025-11-05_20h05.08.116,HW_LDT_1,2024.2.4,Win32,60.60606061,,,,,,,,,,,,,,,,,,,,,,557.172,557.3707,557.3707,557.8697,,,,,,,,,,,,,,0.6007,1,,,,,,,,,,,,,,m,,,,,,,,,,,,,,,,89,0,557.8703,558.4718,m,1,0.6007,,[],[],[],[],[],[],[],558.4719,560.4706,560.4707,560.4708,[],[],[],[],[],[],[],,560.4708,560.4708,0.109166718,-0.189166718,0,0,0,,0,88,88,156,1,3,word,TRIBUTE,print,tribute_p.png,,,,,,
,,,,31823,001,2025-11-05_20h05.08.116,HW_LDT_1,2024.2.4,Win32,60.60606061,,,,,,,,,,,,,,,,,,,,,,560.4718,560.6704,560.6704,561.1704,,,,,,,,,,,,,,4.8994,1,,,,,,,,,,,,,,z,,,,,,,,,,,,,,,,90,0,561.1711,566.0714,z,1,4.8994,,[],[],[],[],[],[],[],566.0715,568.0706,568.0706,568.0709,[],[],[],[],[],[],[],,568.0709,568.071,0.109166718,-0.189166718,0,0,0,,0,89,89,14,1,3,RL,lofase,cursive,lofase_c.png,,,,,,
,,,,31823,001,2025-11-05_20h05.08.116,HW_LDT_1,2024.2.4,Win32,60.60606061,,,,,,,,,,,,,,,,,,,,,,568.0724,568.2707,568.2708,568.7704,,,,,,,,,,,,,,0.599,0,,,,,,,,,,,,,,z,,,,,,,,,,,,,,,,91,0,568.7713,569.371,m,0,0.599,,[],[],[],[],[],[],[],569.3712,571.3701,571.3702,571.3705,[],[],[],[],[],[],[],,571.3705,571.3705,0.109166718,-0.189166718,0,0,0,,0,90,90,44,1,3,TL,decilate,print,decilate_p.png,,,,,,
,,,,31823,001,2025-11-05_20h05.08.116,HW_LDT_1,2024.2.4,Win32,60.60606061,,,,,,,,,,,,,,,,,,,,,,571.3715,571.5706,571.5706,572.0702,,,,,,,,,,,,,,1.6327,1,,,,,,,,,,,,,,m,,,,,,,,,,,,,,,,92,0,572.0708,573.7047,m,1,1.6327,,[],[],[],[],[],[],[],573.7048,575.7042,575.7042,575.7044,[],[],[],[],[],[],[],,575.7044,575.7045,0.109166718,-0.189166718,0,0,0,,0,91,91,122,1,3,word,MOBILE,cursive,mobile_c.png,,,,,,
,,,,31823,001,2025-11-05_20h05.08.116,HW_LDT_1,2024.2.4,Win32,60.60606061,,,,,,,,,,,,,,,,,,,,,,575.7058,575.9038,575.9039,576.4042,,,,,,,,,,,,,,0.5983,1,,,,,,,,,,,,,,m,,,,,,,,,,,,,,,,93,1,576.4048,577.004,m,1,0.5983,,[],[],[],[],[],[],[],577.0041,579.0035,579.0036,582.3535,[],[],[],[],[],[],[],z,582.3536,582.3537,0.109166718,-0.189166718,0,0,0,,0,92,92,103,1,3,word,DISPUTE,print,dispute_p.png,3.3494,,,,,
,,,,31823,001,2025-11-05_20h05.08.116,HW_LDT_1,2024.2.4,Win32,60.60606061,,,,,,,,,,,,,,,,,,,,,,582.3552,582.5536,582.5537,583.0537,,,,,,,,,,,,,,3.198,1,,,,,,,,,,,,,,z,,,,,,,,,,,,,,,,94,0,583.0544,586.2534,z,1,3.198,,[],[],[],[],[],[],[],586.2534,588.2526,588.2527,588.253,[],[],[],[],[],[],[],,588.253,588.2531,0.109166718,-0.189166718,0,0,0,,0,93,93,39,1,3,TL,clicinal,print,clicinal_p.png,,,,,,
,,,,31823,001,2025-11-05_20h05.08.116,HW_LDT_1,2024.2.4,Win32,60.60606061,,,,,,,,,,,,,,,,,,,,,,588.254,588.454,588.454,588.9525,,,,,,,,,,,,,,0.7832,1,,,,,,,,,,,,,,m,,,,,,,,,,,,,,,,95,0,588.9531,589.7374,m,1,0.7832,,[],[],[],[],[],[],[],589.7374,591.7371,591.7373,591.7375,[],[],[],[],[],[],[],,591.7375,591.7376,0.109166718,-0.189166718,0,0,0,,0,94,94,84,1,3,word,BELOVED,cursive,beloved_c.png,,,,,,
,,,,31823,001,2025-11-05_20h05.08.116,HW_LDT_1,2024.2.4,Win32,60.60606061,,,,,,,,,,,,,,,,,,,,,,591.7392,591.9364,591.9364,592.4366,,,,,,,,,,,,,,0.6993,1,,,,,,,,,,,,,,m,,,,,,,,,,,,,,,,96,0,592.4372,593.1378,m,1,0.6993,,[],[],[],[],[],[],[],593.1378,595.1365,595.1367,595.1369,[],[],[],[],[],[],[],,595.1369,595.1371,0.109166718,-0.189166718,0,0,0,,0,95,95,102,1,3,word,DENSITY,print,density_p.png,,,,,,
,,,,31823,001,2025-11-05_20h05.08.116,HW_LDT_1,2024.2.4,Win32,60.60606061,,,,,,,,,,,,,,,,,,,,,,595.1389,595.3361,595.3361,595.837,,,,,,,,,,,,,,5.8317,1,,,,,,,,,,,,,,m,,,,,,,,,,,,,,,,97,0,595.8377,601.6703,m,1,5.8317,,[],[],[],[],[],[],[],601.6703,603.6701,603.6701,603.6704,[],[],[],[],[],[],[],,603.6706,603.6707,0.109166718,-0.189166718,0,0,0,,0,96,96,121,1,3,word,MISTAKE,cursive,mistake_c.png,,,,,,
,,,,31823,001,2025-11-05_20h05.08.116,HW_LDT_1,2024.2.4,Win32,60.60606061,,,,,,,,,,,,,,,,,,,,,,603.672,603.87,603.8701,604.3692,,,,,,,,,,,,,,1.9161,1,,,,,,,,,,,,,,m,,,,,,,,,,,,,,,,98,0,604.37,606.2873,m,1,1.9161,,[],[],[],[],[],[],[],606.2874,608.2867,608.2868,608.2872,[],[],[],[],[],[],[],,608.2872,608.2873,0.109166718,-0.189166718,0,0,0,,0,97,97,99,1,3,word,DEBATE,cursive,debate_c.png,,,,,,
,,,,31823,001,2025-11-05_20h05.08.116,HW_LDT_1,2024.2.4,Win32,60.60606061,,,,,,,,,,,,,,,,,,,,,,608.2887,608.4859,608.4859,608.9863,,,,,,,,,,,,,,2.7659,1,,,,,,,,,,,,,,z,,,,,,,,,,,,,,,,99,0,608.987,611.7542,z,1,2.7659,,[],[],[],[],[],[],[],611.7542,613.7532,613.7532,613.7535,[],[],[],[],[],[],[],,613.7536,613.7537,0.109166718,-0.189166718,0,0,0,,0,98,98,55,1,3,TL,mecidine,print,mecidine_p.png,,,,,,
,,,,31823,001,2025-11-05_20h05.08.116,HW_LDT_1,2024.2.4,Win32,60.60606061,,,,,,,,,,,,,,,,,,,,,,613.7551,613.9519,613.952,614.453,,,,,,,,,,,,,,1.9663,0,,,,,,,,,,,,,,z,,,,,,,,,,,,,,,,100,0,614.4536,616.4212,m,0,1.9663,,[],[],[],[],[],[],[],616.4215,618.4196,618.4197,618.4202,[],[],[],[],[],[],[],,618.4202,618.4203,0.109166718,-0.189166718,0,0,0,,0,99,99,31,1,3,RL,trilude,print,trilude_p.png,,,,,,
,,,,31823,001,2025-11-05_20h05.08.116,HW_LDT_1,2024.2.4,Win32,60.60606061,,,,,,,,,,,,,,,,,,,,,,618.4215,618.62,618.6201,619.1192,,,,,,,,,,,,,,4.0661,1,,,,,,,,,,,,,,z,,,,,,,,,,,,,,,,101,0,619.1196,623.1869,z,1,4.0661,,[],[],[],[],[],[],[],623.187,625.1862,625.1862,625.1864,[],[],[],[],[],[],[],,625.1865,625.1866,0.109166718,-0.189166718,0,0,0,,0,100,100,71,1,3,TL,sanile,cursive,sanile_c.png,,,,,,
,,,,31823,001,2025-11-05_20h05.08.116,HW_LDT_1,2024.2.4,Win32,60.60606061,,,,,,,,,,,,,,,,,,,,,,625.188,625.3859,625.3859,625.8867,,,,,,,,,,,,,,3.4475,0,,,,,,,,,,,,,,m,,,,,,,,,,,,,,,,102,0,625.8873,629.3358,z,0,3.4475,,[],[],[],[],[],[],[],629.3358,631.3352,631.3352,631.3355,[],[],[],[],[],[],[],,631.3355,631.3356,0.109166718,-0.189166718,0,0,0,,0,101,101,143,1,3,word,REMOVAL,cursive,removal_c.png,,,,,,
,,,,31823,001,2025-11-05_20h05.08.116,HW_LDT_1,2024.2.4,Win32,60.60606061,,,,,,,,,,,,,,,,,,,,,,631.3366,631.5361,631.5361,632.0363,,,,,,,,,,,,,,0.7977,1,,,,,,,,,,,,,,m,,,,,,,,,,,,,,,,103,1,632.0371,632.8357,m,1,0.7977,,[],[],[],[],[],[],[],632.8359,634.8363,634.8364,636.087,[],[],[],[],[],[],[],m,636.087,636.0871,0.109166718,-0.189166718,0,0,0,,0,102,102,134,1,3,word,QUALIFY,print,qualify_p.png,1.2498,,,,,
,,,,31823,001,2025-11-05_20h05.08.116,HW_LDT_1,2024.2.4,Win32,60.60606061,,,,,,,,,,,,,,,,,,,,,,636.0883,636.2868,636.2868,636.7859,,,,,,,,,,,,,,3.5162,0,,,,,,,,,,,,,,m,,,,,,,,,,,,,,,,104,0,636.7866,640.3037,z,0,3.5162,,[],[],[],[],[],[],[],640.3039,642.3027,642.3028,642.3031,[],[],[],[],[],[],[],,642.3031,642.3032,0.109166718,-0.189166718,0,0,0,,0,103,103,123,1,3,word,MODERATE,cursive,moderate_c.png,,,,,,
,,,,31823,001,2025-11-05_20h05.08.116,HW_LDT_1,2024.2.4,Win32,60.60606061,,,,,,,,,,,,,,,,,,,,,,642.3042,642.5023,642.5023,643.0022,,,,,,,,,,,,,,1.4837,1,,,,,,,,,,,,,,m,,,,,,,,,,,,,,,,105,0,643.0026,644.4872,m,1,1.4837,,[],[],[],[],[],[],[],644.4873,646.485,646.4851,646.4855,[],[],[],[],[],[],[],,646.4856,646.4858,0.109166718,-0.189166718,0,0,0,,0,104,104,104,1,3,word,DOMINANT,print,dominant_p.png,,,,,,
,,,,31823,001,2025-11-05_20h05.08.116,HW_LDT_1,2024.2.4,Win32,60.60606061,,,,,,,,,,,,,,,,,,,,,,646.4872,646.6864,646.6865,647.1858,,,,,,,,,,,,,,2.2811,1,,,,,,,,,,,,,,z,,,,,,,,,,,,,,,,106,1,647.1865,649.4684,z,1,2.2811,,[],[],[],[],[],[],[],649.4685,651.4684,651.4685,652.5023,[],[],[],[],[],[],[],z,652.5025,652.5026,0.109166718,-0.189166718,0,0,0,,0,105,105,37,1,3,TL,cacapity,cursive,cacapity_c.png,1.0333,,,,,
,,,,31823,001,2025-11-05_20h05.08.116,HW_LDT_1,2024.2.4,Win32,60.60606061,,,,,,,,,,,,,,,,,,,,,,652.5035,652.7028,652.7029,653.2024,,,,,,,,,,,,,,1.8164,1,,,,,,,,,,,,,,m,,,,,,,,,,,,,,,,107,0,653.203,655.0203,m,1,1.8164,,[],[],[],[],[],[],[],655.0204,657.0196,657.0197,657.0198,[],[],[],[],[],[],[],,657.0201,657.0201,0.109166718,-0.189166718,0,0,0,,0,106,106,157,1,3,word,VALIDITY,cursive,validity_c.png,,,,,,
,,,,31823,001,2025-11-05_20h05.08.116,HW_LDT_1,2024.2.4,Win32,60.60606061,,,,,,,,,,,,,,,,,,,,,,657.0214,657.2192,657.2192,657.7184,,,,,,,,,,,,,,0.6172,1,,,,,,,,,,,,,,m,,,,,,,,,,,,,,,,108,0,657.7187,658.337,m,1,0.6172,,[],[],[],[],[],[],[],658.3372,660.3354,660.3354,660.3356,[],[],[],[],[],[],[],,660.3357,660.3357,0.109166718,-0.189166718,0,0,0,,0,107,107,87,1,3,word,CAFETERIA,print,cafeteria_p.png,,,,,,
,,,,31823,001,2025-11-05_20h05.08.116,HW_LDT_1,2024.2.4,Win32,60.60606061,,,,,,,,,,,,,,,,,,,,,,660.3368,660.5362,660.5363,661.0357,,,,,,,,,,,,,,2.0488,1,,,,,,,,,,,,,,z,,,,,,,,,,,,,,,,109,0,661.0361,663.0858,z,1,2.0488,,[],[],[],[],[],[],[],663.0859,665.086,665.086,665.0861,[],[],[],[],[],[],[],,665.0861,665.0863,0.109166718,-0.189166718,0,0,0,,0,108,108,43,1,3,TL,dedace,cursive,dedace_c.png,,,,,,
,,,,31823,001,2025-11-05_20h05.08.116,HW_LDT_1,2024.2.4,Win32,60.60606061,,,,,,,,,,,,,,,,,,,,,,665.0876,665.2858,665.2859,665.7854,,,,,,,,,,,,,,2.5322,0,,,,,,,,,,,,,,m,,,,,,,,,,,,,,,,110,0,665.7861,668.3194,z,0,2.5322,,[],[],[],[],[],[],[],668.3196,670.3187,670.3188,670.319,[],[],[],[],[],[],[],,670.3191,670.3193,0.109166718,-0.189166718,0,0,0,,0,109,109,88,1,3,word,CAMERA,cursive,camera_c.png,,,,,,
,,,,31823,001,2025-11-05_20h05.08.116,HW_LDT_1,2024.2.4,Win32,60.60606061,,,,,,,,,,,,,,,,,,,,,,670.321,670.5194,670.5195,671.0189,,,,,,,,,,,,,,1.0486,1,,,,,,,,,,,,,,m,,,,,,,,,,,,,,,,111,0,671.0198,672.0694,m,1,1.0486,,[],[],[],[],[],[],[],672.0696,674.0691,674.0693,674.0694,[],[],[],[],[],[],[],,674.0695,674.0695,0.109166718,-0.189166718,0,0,0,,0,110,110,106,1,3,word,ELABORATE,print,elaborate_p.png,,,,,,
,,,,31823,001,2025-11-05_20h05.08.116,HW_LDT_1,2024.2.4,Win32,60.60606061,,,,,,,,,,,,,,,,,,,,,,674.071,674.2686,674.2688,674.7679,,,,,,,,,,,,,,1.4501,1,,,,,,,,,,,,,,m,,,,,,,,,,,,,,,,112,0,674.7685,676.2195,m,1,1.4501,,[],[],[],[],[],[],[],676.2195,678.2187,678.2188,678.2193,[],[],[],[],[],[],[],,678.2194,678.2194,0.109166718,-0.189166718,0,0,0,,0,111,111,107,1,3,word,EVIDENT,cursive,evident_c.png,,,,,,
,,,,31823,001,2025-11-05_20h05.08.116,HW_LDT_1,2024.2.4,Win32,60.60606061,,,,,,,,,,,,,,,,,,,,,,678.2209,678.4184,678.4184,678.9188,,,,,,,,,,,,,,0.6487,0,,,,,,,,,,,,,,z,,,,,,,,,,,,,,,,113,0,678.9194,679.569,m,0,0.6487,,[],[],[],[],[],[],[],679.5692,681.5682,681.5683,681.5688,[],[],[],[],[],[],[],,681.5688,681.5689,0.109166718,-0.189166718,0,0,0,,0,112,112,60,1,3,TL,panert,print,panert_p.png,,,,,,
,,,,31823,001,2025-11-05_20h05.08.116,HW_LDT_1,2024.2.4,Win32,60.60606061,,,,,,,,,,,,,,,,,,,,,,681.5707,681.7688,681.7689,682.2686,,,,,,,,,,,,,,3.5822,1,,,,,,,,,,,,,,m,,,,,,,,,,,,,,,,114,0,682.2692,685.8524,m,1,3.5822,,[],[],[],[],[],[],[],685.8526,687.8521,687.8522,687.8524,[],[],[],[],[],[],[],,687.8526,687.8527,0.109166718,-0.189166718,0,0,0,,0,113,113,92,1,3,word,CATEGORY,cursive,category_c.png,,,,,,
,,,,31823,001,2025-11-05_20h05.08.116,HW_LDT_1,2024.2.4,Win32,60.60606061,,,,,,,,,,,,,,,,,,,,,,687.8539,688.0521,688.0521,688.5517,,,,,,,,,,,,,,2.6657,1,,,,,,,,,,,,,,z,,,,,,,,,,,,,,,,115,0,688.5527,691.2198,z,1,2.6657,,[],[],[],[],[],[],[],691.2199,693.219,693.219,693.2192,[],[],[],[],[],[],[],,693.2193,693.2195,0.109166718,-0.189166718,0,0,0,,0,114,114,70,1,3,TL,remuse,cursive,remuse_c.png,,,,,,
,,,,31823,001,2025-11-05_20h05.08.116,HW_LDT_1,2024.2.4,Win32,60.60606061,,,,,,,,,,,,,,,,,,,,,,693.2208,693.4184,693.4185,693.9184,,,,,,,,,,,,,,3.1149,1,,,,,,,,,,,,,,z,,,,,,,,,,,,,,,,116,1,693.9194,697.0351,z,1,3.1149,,[],[],[],[],[],[],[],697.0352,699.0353,699.0354,699.9193,[],[],[],[],[],[],[],z,699.9194,699.9195,0.109166718,-0.189166718,0,0,0,,0,115,115,6,1,3,RL,cenesony,cursive,cenesony_c.png,0.883,,,,,
,,,,31823,001,2025-11-05_20h05.08.116,HW_LDT_1,2024.2.4,Win32,60.60606061,,,,,,,,,,,,,,,,,,,,,,699.9203,700.1184,700.1185,700.6182,,,,,,,,,,,,,,1.9658,1,,,,,,,,,,,,,,m,,,,,,,,,,,,,,,,117,0,700.6191,702.5859,m,1,1.9658,,[],[],[],[],[],[],[],702.586,704.5851,704.5852,704.5855,[],[],[],[],[],[],[],,704.5855,704.5856,0.109166718,-0.189166718,0,0,0,,0,116,116,113,1,3,word,LITERAL,print,literal_p.png,,,,,,
,,,,31823,001,2025-11-05_20h05.08.116,HW_LDT_1,2024.2.4,Win32,60.60606061,,,,,,,,,,,,,,,,,,,,,,704.5869,704.7851,704.7852,705.2854,,,,,,,,,,,,,,3.9151,1,,,,,,,,,,,,,,z,,,,,,,,,,,,,,,,118,0,705.286,709.2026,z,1,3.9151,,[],[],[],[],[],[],[],709.2028,711.2008,711.2008,711.201,[],[],[],[],[],[],[],,711.2011,711.2012,0.109166718,-0.189166718,0,0,0,,0,117,117,78,1,3,TL,vecolity,cursive,vecolity_c.png,,,,,,
,,,,31823,001,2025-11-05_20h05.08.116,HW_LDT_1,2024.2.4,Win32,60.60606061,,,,,,,,,,,,,,,,,,,,,,711.2027,711.4025,711.4025,711.9017,,,,,,,,,,,,,,0.9654,0,,,,,,,,,,,,,,m,,,,,,,,,,,,,,,,119,0,711.9023,712.8685,z,0,0.9654,,[],[],[],[],[],[],[],712.8686,714.8678,714.8678,714.8682,[],[],[],[],[],[],[],,714.8683,714.8684,0.109166718,-0.189166718,0,0,0,,0,118,118,145,1,3,word,RESUME,cursive,resume_c.png,,,,,,
,,,,31823,001,2025-11-05_20h05.08.116,HW_LDT_1,2024.2.4,Win32,60.60606061,,,,,,,,,,,,,,,,,,,,,,714.8698,715.0678,715.0679,715.5683,,,,,,,,,,,,,,5.5156,0,,,,,,,,,,,,,,m,,,,,,,,,,,,,,,,120,0,715.569,721.0856,z,0,5.5156,,[],[],[],[],[],[],[],721.0856,723.0847,723.0848,723.0849,[],[],[],[],[],[],[],,723.085,723.085,0.109166718,-0.189166718,0,0,0,,0,119,119,126,1,3,word,OPTIMAL,cursive,optimal_c.png,,,,,,
,,,,31823,001,2025-11-05_20h05.08.116,HW_LDT_1,2024.2.4,Win32,60.60606061,,,,,,,,,,,,,,,,,,,,,,723.086,723.2847,723.2849,723.7845,,,,,,,,,,,,,,1.3325,1,,,,,,,,,,,,,,m,,,,,,,,,,,,,,,,121,0,723.7853,725.1189,m,1,1.3325,,[],[],[],[],[],[],[],725.1189,727.1183,727.1183,727.1186,[],[],[],[],[],[],[],,727.1186,727.1187,0.109166718,-0.189166718,0,0,0,,0,120,120,85,1,3,word,BENEFIT,print,benefit_p.png,,,,,,
,,,,31823,001,2025-11-05_20h05.08.116,HW_LDT_1,2024.2.4,Win32,60.60606061,,,,,,,,,,,,,,,,,,,,,,727.1199,727.3181,727.3181,727.818,,,,,,,,,,,,,,1.3327,1,,,,,,,,,,,,,,z,,,,,,,,,,,,,,,,122,0,727.8186,729.1523,z,1,1.3327,,[],[],[],[],[],[],[],729.1524,731.1516,731.1517,731.1521,[],[],[],[],[],[],[],,731.1521,731.1522,0.109166718,-0.189166718,0,0,0,,0,121,121,56,1,3,TL,meromy,print,meromy_p.png,,,,,,
,,,,31823,001,2025-11-05_20h05.08.116,HW_LDT_1,2024.2.4,Win32,60.60606061,,,,,,,,,,,,,,,,,,,,,,731.1536,731.3515,731.3516,731.8519,,,,,,,,,,,,,,1.4148,1,,,,,,,,,,,,,,m,,,,,,,,,,,,,,,,123,0,731.8524,733.268,m,1,1.4148,,[],[],[],[],[],[],[],733.2681,735.2678,735.2678,735.2681,[],[],[],[],[],[],[],,735.2681,735.2683,0.109166718,-0.189166718,0,0,0,,0,122,122,98,1,3,word,CRIMINAL,print,criminal_p.png,,,,,,
,,,,31823,001,2025-11-05_20h05.08.116,HW_LDT_1,2024.2.4,Win32,60.60606061,,,,,,,,,,,,,,,,,,,,,,735.2695,735.4685,735.4685,735.9676,,,,,,,,,,,,,,1.5163,1,,,,,,,,,,,,,,z,,,,,,,,,,,,,,,,124,0,735.9683,737.4857,z,1,1.5163,,[],[],[],[],[],[],[],737.4859,739.4848,739.4848,739.4851,[],[],[],[],[],[],[],,739.4852,739.4853,0.109166718,-0.189166718,0,0,0,,0,123,123,73,1,3,TL,speficic,print,speficic_p.png,,,,,,
,,,,31823,001,2025-11-05_20h05.08.116,HW_LDT_1,2024.2.4,Win32,60.60606061,,,,,,,,,,,,,,,,,,,,,,739.4866,739.6843,739.6845,740.1852,,,,,,,,,,,,,,1.2479,1,,,,,,,,,,,,,,z,,,,,,,,,,,,,,,,125,0,740.1858,741.4349,z,1,1.2479,,[],[],[],[],[],[],[],741.435,743.4349,743.4349,743.4351,[],[],[],[],[],[],[],,743.4353,743.4354,0.109166718,-0.189166718,0,0,0,,0,124,124,41,1,3,TL,crinimal,print,crinimal_p.png,,,,,,
,,,,31823,001,2025-11-05_20h05.08.116,HW_LDT_1,2024.2.4,Win32,60.60606061,,,,,,,,,,,,,,,,,,,,,,743.4369,743.6349,743.635,744.1348,,,,,,,,,,,,,,1.7156,1,,,,,,,,,,,,,,z,,,,,,,,,,,,,,,,126,0,744.1356,745.8522,z,1,1.7156,,[],[],[],[],[],[],[],745.8523,747.8513,747.8514,747.8516,[],[],[],[],[],[],[],,747.8517,747.8519,0.109166718,-0.189166718,0,0,0,,0,125,125,65,1,3,TL,resufal,print,resufal_p.png,,,,,,
,,,,31823,001,2025-11-05_20h05.08.116,HW_LDT_1,2024.2.4,Win32,60.60606061,,,,,,,,,,,,,,,,,,,,,,747.8533,748.0502,748.0503,748.552,,,,,,,,,,,,,,1.7987,1,,,,,,,,,,,,,,z,,,,,,,,,,,,,,,,127,1,748.5527,750.3521,z,1,1.7987,,[],[],[],[],[],[],[],750.3522,752.3512,752.3513,753.7683,[],[],[],[],[],[],[],m,753.7684,753.7685,0.109166718,-0.189166718,0,0,0,,0,126,126,53,1,3,TL,marnigal,print,marnigal_p.png,1.4164,,,,,
,,,,31823,001,2025-11-05_20h05.08.116,HW_LDT_1,2024.2.4,Win32,60.60606061,,,,,,,,,,,,,,,,,,,,,,753.77,753.9681,753.9682,754.4679,,,,,,,,,,,,,,1.6315,1,,,,,,,,,,,,,,z,,,,,,,,,,,,,,,,128,1,754.4686,756.1012,z,1,1.6315,,[],[],[],[],[],[],[],756.1014,758.1015,758.1015,758.9345,[],[],[],[],[],[],[],m,758.9347,758.9349,0.109166718,-0.189166718,0,0,0,,0,127,127,61,1,3,TL,pocily,print,pocily_p.png,0.8321,,,,,
,,,,31823,001,2025-11-05_20h05.08.116,HW_LDT_1,2024.2.4,Win32,60.60606061,,,,,,,,,,,,,,,,,,,,,,758.9362,759.1349,759.1349,759.6349,,,,,,,,,,,,,,1.2157,1,,,,,,,,,,,,,,z,,,,,,,,,,,,,,,,129,0,759.6357,760.8522,z,1,1.2157,,[],[],[],[],[],[],[],760.8522,762.8513,762.8514,762.8515,[],[],[],[],[],[],[],,762.8516,762.8517,0.109166718,-0.189166718,0,0,0,,0,128,128,64,1,3,TL,radiply,print,radiply_p.png,,,,,,
,,,,31823,001,2025-11-05_20h05.08.116,HW_LDT_1,2024.2.4,Win32,60.60606061,,,,,,,,,,,,,,,,,,,,,,762.853,763.0498,763.0498,763.5515,,,,,,,,,,,,,,3.0987,1,,,,,,,,,,,,,,z,,,,,,,,,,,,,,,,130,0,763.552,766.6516,z,1,3.0987,,[],[],[],[],[],[],[],766.6517,768.6507,768.6507,768.651,[],[],[],[],[],[],[],,768.6511,768.6512,0.109166718,-0.189166718,0,0,0,,0,129,129,36,1,3,TL,carema,cursive,carema_c.png,,,,,,
,,,,31823,001,2025-11-05_20h05.08.116,HW_LDT_1,2024.2.4,Win32,60.60606061,,,,,,,,,,,,,,,,,,,,,,768.6526,768.8513,768.8514,769.3515,,,,,,,,,,,,,,2.115,1,,,,,,,,,,,,,,m,,,,,,,,,,,,,,,,131,1,769.352,771.4683,m,1,2.115,,[],[],[],[],[],[],[],771.4683,773.4678,773.4679,774.2182,[],[],[],[],[],[],[],z,774.2183,774.2185,0.109166718,-0.189166718,0,0,0,,0,130,130,86,1,3,word,BESIDE,cursive,beside_c.png,0.7496,,,,,
,,,,31823,001,2025-11-05_20h05.08.116,HW_LDT_1,2024.2.4,Win32,60.60606061,,,,,,,,,,,,,,,,,,,,,,774.2199,774.4185,774.4186,774.9177,,,,,,,,,,,,,,1.4492,1,,,,,,,,,,,,,,m,,,,,,,,,,,,,,,,132,0,774.9182,776.3684,m,1,1.4492,,[],[],[],[],[],[],[],776.3685,778.3672,778.3673,778.3676,[],[],[],[],[],[],[],,778.3677,778.3678,0.109166718,-0.189166718,0,0,0,,0,131,131,81,1,3,word,ADVISORY,print,advisory_p.png,,,,,,
,,,,31823,001,2025-11-05_20h05.08.116,HW_LDT_1,2024.2.4,Win32,60.60606061,,,,,,,,,,,,,,,,,,,,,,778.3692,778.5678,778.5679,779.0669,,,,,,,,,,,,,,1.849,1,,,,,,,,,,,,,,z,,,,,,,,,,,,,,,,133,0,779.0676,780.9177,z,1,1.849,,[],[],[],[],[],[],[],780.9178,782.9176,782.9176,782.9179,[],[],[],[],[],[],[],,782.9179,782.9181,0.109166718,-0.189166718,0,0,0,,0,132,132,62,1,3,TL,prodive,print,prodive_p.png,,,,,,
,,,,31823,001,2025-11-05_20h05.08.116,HW_LDT_1,2024.2.4,Win32,60.60606061,,,,,,,,,,,,,,,,,,,,,,782.9194,783.119,783.1191,783.6167,,,,,,,,,,,,,,3.3336,1,,,,,,,,,,,,,,m,,,,,,,,,,,,,,,,134,0,783.6173,786.9518,m,1,3.3336,,[],[],[],[],[],[],[],786.9519,788.9509,788.9509,788.9512,[],[],[],[],[],[],[],,788.9512,788.9514,0.109166718,-0.189166718,0,0,0,,0,133,133,159,1,3,word,VETERAN,cursive,veteran_c.png,,,,,,
,,,,31823,001,2025-11-05_20h05.08.116,HW_LDT_1,2024.2.4,Win32,60.60606061,,,,,,,,,,,,,,,,,,,,,,788.9528,789.1507,789.1509,789.6499,,,,,,,,,,,,,,1.7154,1,,,,,,,,,,,,,,z,,,,,,,,,,,,,,,,135,0,789.6504,791.3668,z,1,1.7154,,[],[],[],[],[],[],[],791.3669,793.3673,793.3674,793.3677,[],[],[],[],[],[],[],,793.3678,793.3679,0.109166718,-0.189166718,0,0,0,,0,134,134,69,1,3,TL,redisent,cursive,redisent_c.png,,,,,,
,,,,31823,001,2025-11-05_20h05.08.116,HW_LDT_1,2024.2.4,Win32,60.60606061,,,,,,,,,,,,,,,,,,,,,,793.3692,793.5673,793.5674,794.067,,,,,,,,,,,,,,2.0986,1,,,,,,,,,,,,,,z,,,,,,,,,,,,,,,,136,0,794.0677,796.1672,z,1,2.0986,,[],[],[],[],[],[],[],796.1672,798.1675,798.1675,798.1678,[],[],[],[],[],[],[],,798.1678,798.168,0.109166718,-0.189166718,0,0,0,,0,135,135,57,1,3,TL,moredate,cursive,moredate_c.png,,,,,,
,,,,31823,001,2025-11-05_20h05.08.116,HW_LDT_1,2024.2.4,Win32,60.60606061,,,,,,,,,,,,,,,,,,,,,,798.1692,798.367,798.367,798.8669,,,,,,,,,,,,,,0.7977,1,,,,,,,,,,,,,,z,,,,,,,,,,,,,,,,137,0,798.8676,799.6662,z,1,0.7977,,[],[],[],[],[],[],[],799.6662,801.6655,801.6655,801.6657,[],[],[],[],[],[],[],,801.6657,801.6658,0.109166718,-0.189166718,0,0,0,,0,136,136,23,1,3,RL,quakity,print,quakity_p.png,,,,,,
,,,,31823,001,2025-11-05_20h05.08.116,HW_LDT_1,2024.2.4,Win32,60.60606061,,,,,,,,,,,,,,,,,,,,,,801.6667,801.8653,801.8653,802.3656,,,,,,,,,,,,,,1.5825,1,,,,,,,,,,,,,,z,,,,,,,,,,,,,,,,138,0,802.366,803.9491,z,1,1.5825,,[],[],[],[],[],[],[],803.9492,805.949,805.949,805.9491,[],[],[],[],[],[],[],,805.9492,805.9492,0.109166718,-0.189166718,0,0,0,,0,137,137,74,1,3,TL,spemicen,print,spemicen_p.png,,,,,,
,,,,31823,001,2025-11-05_20h05.08.116,HW_LDT_1,2024.2.4,Win32,60.60606061,,,,,,,,,,,,,,,,,,,,,,805.95,806.1495,806.1496,806.6491,,,,,,,,,,,,,,1.2657,1,,,,,,,,,,,,,,m,,,,,,,,,,,,,,,,139,0,806.6497,807.9161,m,1,1.2657,,[],[],[],[],[],[],[],807.9162,809.9156,809.9156,809.9158,[],[],[],[],[],[],[],,809.9158,809.9159,0.109166718,-0.189166718,0,0,0,,0,138,138,141,1,3,word,RELIGION,print,religion_p.png,,,,,,
,,,,31823,001,2025-11-05_20h05.08.116,HW_LDT_1,2024.2.4,Win32,60.60606061,,,,,,,,,,,,,,,,,,,,,,809.9168,810.1157,810.1157,810.6163,,,,,,,,,,,,,,0.9988,1,,,,,,,,,,,,,,m,,,,,,,,,,,,,,,,140,0,810.6169,811.6164,m,1,0.9988,,[],[],[],[],[],[],[],811.6164,813.6157,813.6157,813.6159,[],[],[],[],[],[],[],,813.6159,813.616,0.109166718,-0.189166718,0,0,0,,0,139,139,132,1,3,word,PROPOSAL,print,proposal_p.png,,,,,,
,,,,31823,001,2025-11-05_20h05.08.116,HW_LDT_1,2024.2.4,Win32,60.60606061,,,,,,,,,,,,,,,,,,,,,,813.6169,813.8161,813.8161,814.3157,,,,,,,,,,,,,,1.816,1,,,,,,,,,,,,,,z,,,,,,,,,,,,,,,,141,0,814.316,816.1329,z,1,1.816,,[],[],[],[],[],[],[],816.1329,818.1325,818.1325,818.1327,[],[],[],[],[],[],[],,818.1327,818.1328,0.109166718,-0.189166718,0,0,0,,0,140,140,58,1,3,TL,nuremical,print,nuremical_p.png,,,,,,
,,,,31823,001,2025-11-05_20h05.08.116,HW_LDT_1,2024.2.4,Win32,60.60606061,,,,,,,,,,,,,,,,,,,,,,818.1338,818.3327,818.3327,818.8323,,,,,,,,,,,,,,1.9157,1,,,,,,,,,,,,,,z,,,,,,,,,,,,,,,,142,0,818.8328,820.7492,z,1,1.9157,,[],[],[],[],[],[],[],820.7493,822.7489,822.7489,822.7491,[],[],[],[],[],[],[],,822.7492,822.7492,0.109166718,-0.189166718,0,0,0,,0,141,141,45,1,3,TL,dentisy,print,dentisy_p.png,,,,,,
,,,,31823,001,2025-11-05_20h05.08.116,HW_LDT_1,2024.2.4,Win32,60.60606061,,,,,,,,,,,,,,,,,,,,,,822.7501,822.949,822.9491,823.4489,,,,,,,,,,,,,,3.5163,1,,,,,,,,,,,,,,z,,,,,,,,,,,,,,,,143,1,823.4494,826.9663,z,1,3.5163,,[],[],[],[],[],[],[],826.9664,828.9656,828.9657,830.0994,[],[],[],[],[],[],[],z,830.0996,830.0996,0.109166718,-0.189166718,0,0,0,,0,142,142,5,1,3,RL,capefory,cursive,capefory_c.png,1.1333,,,,,
,,,,31823,001,2025-11-05_20h05.08.116,HW_LDT_1,2024.2.4,Win32,60.60606061,,,,,,,,,,,,,,,,,,,,,,830.1008,830.2984,830.2984,830.7984,,,,,,,,,,,,,,0.9997,1,,,,,,,,,,,,,,z,,,,,,,,,,,,,,,,144,0,830.7988,831.7993,z,1,0.9997,,[],[],[],[],[],[],[],831.7993,833.7994,833.7994,833.7995,[],[],[],[],[],[],[],,833.7995,833.7997,0.109166718,-0.189166718,0,0,0,,0,143,143,50,1,3,TL,lirebal,print,lirebal_p.png,,,,,,
,,,,31823,001,2025-11-05_20h05.08.116,HW_LDT_1,2024.2.4,Win32,60.60606061,,,,,,,,,,,,,,,,,,,,,,833.8007,833.9989,833.999,834.4991,,,,,,,,,,,,,,1.2995,1,,,,,,,,,,,,,,m,,,,,,,,,,,,,,,,145,0,834.4995,835.7995,m,1,1.2995,,[],[],[],[],[],[],[],835.7996,837.7994,837.7994,837.7996,[],[],[],[],[],[],[],,837.7997,837.7998,0.109166718,-0.189166718,0,0,0,,0,144,144,111,1,3,word,INDICATE,print,indicate_p.png,,,,,,
,,,,31823,001,2025-11-05_20h05.08.116,HW_LDT_1,2024.2.4,Win32,60.60606061,,,,,,,,,,,,,,,,,,,,,,837.8011,837.9989,837.999,838.4996,,,,,,,,,,,,,,1.0153,1,,,,,,,,,,,,,,m,,,,,,,,,,,,,,,,146,1,838.5004,839.5166,m,1,1.0153,,[],[],[],[],[],[],[],839.5167,841.5153,841.5154,842.467,[],[],[],[],[],[],[],m,842.4671,842.4674,0.109166718,-0.189166718,0,0,0,,0,145,145,105,1,3,word,EDITOR,print,editor_p.png,0.9511,,,,,
,,,,31823,001,2025-11-05_20h05.08.116,HW_LDT_1,2024.2.4,Win32,60.60606061,,,,,,,,,,,,,,,,,,,,,,842.4685,842.6664,842.6664,843.166,,,,,,,,,,,,,,1.4165,1,,,,,,,,,,,,,,m,,,,,,,,,,,,,,,,147,0,843.1664,844.5838,m,1,1.4165,,[],[],[],[],[],[],[],844.5839,846.5832,846.5833,846.5836,[],[],[],[],[],[],[],,846.5836,846.5837,0.109166718,-0.189166718,0,0,0,,0,146,146,142,1,3,word,REMOTE,print,remote_p.png,,,,,,
,,,,31823,001,2025-11-05_20h05.08.116,HW_LDT_1,2024.2.4,Win32,60.60606061,,,,,,,,,,,,,,,,,,,,,,846.585,846.7831,846.7832,847.2832,,,,,,,,,,,,,,3.7991,1,,,,,,,,,,,,,,z,,,,,,,,,,,,,,,,148,0,847.2838,851.0842,z,1,3.7991,,[],[],[],[],[],[],[],851.0843,853.0834,853.0835,853.0837,[],[],[],[],[],[],[],,853.0838,853.0839,0.109166718,-0.189166718,0,0,0,,0,147,147,18,1,3,RL,onegator,print,onegator_p.png,,,,,,
,,,,31823,001,2025-11-05_20h05.08.116,HW_LDT_1,2024.2.4,Win32,60.60606061,,,,,,,,,,,,,,,,,,,,,,853.0852,853.283,853.283,853.7829,,,,,,,,,,,,,,1.0822,1,,,,,,,,,,,,,,m,,,,,,,,,,,,,,,,149,0,853.7837,854.867,m,1,1.0822,,[],[],[],[],[],[],[],854.8671,856.8666,856.8666,856.8669,[],[],[],[],[],[],[],,856.867,856.8671,0.109166718,-0.189166718,0,0,0,,0,148,148,101,1,3,word,DELICATE,print,delicate_p.png,,,,,,
,,,,31823,001,2025-11-05_20h05.08.116,HW_LDT_1,2024.2.4,Win32,60.60606061,,,,,,,,,,,,,,,,,,,,,,856.8684,857.066,857.066,857.5666,,,,,,,,,,,,,,4.8484,1,,,,,,,,,,,,,,z,,,,,,,,,,,,,,,,150,0,857.5672,862.4166,z,1,4.8484,,[],[],[],[],[],[],[],862.4167,864.4168,864.4171,864.4174,[],[],[],[],[],[],[],,864.4175,864.4176,0.109166718,-0.189166718,0,0,0,,0,149,149,34,1,3,TL,aminal,cursive,aminal_c.png,,,,,,
,,,,31823,001,2025-11-05_20h05.08.116,HW_LDT_1,2024.2.4,Win32,60.60606061,,,,,,,,,,,,,,,,,,,,,,864.4197,864.6163,864.6163,865.116,,,,,,,,,,,,,,1.4499,1,,,,,,,,,,,,,,z,,,,,,,,,,,,,,,,151,0,865.1166,866.5676,z,1,1.4499,,[],[],[],[],[],[],[],866.5676,868.5667,868.5668,868.567,[],[],[],[],[],[],[],,868.5671,868.5671,0.109166718,-0.189166718,0,0,0,,0,150,150,51,1,3,TL,liretal,print,liretal_p.png,,,,,,
,,,,31823,001,2025-11-05_20h05.08.116,HW_LDT_1,2024.2.4,Win32,60.60606061,,,,,,,,,,,,,,,,,,,,,,868.5685,868.7659,868.7659,869.2653,,,,,,,,,,,,,,2.8674,1,,,,,,,,,,,,,,m,,,,,,,,,,,,,,,,152,0,869.2659,872.134,m,1,2.8674,,[],[],[],[],[],[],[],872.1341,874.1335,874.1336,874.1337,[],[],[],[],[],[],[],,874.1337,874.134,0.109166718,-0.189166718,0,0,0,,0,151,151,120,1,3,word,MILITARY,cursive,military_c.png,,,,,,
,,,,31823,001,2025-11-05_20h05.08.116,HW_LDT_1,2024.2.4,Win32,60.60606061,,,,,,,,,,,,,,,,,,,,,,874.1353,874.3327,874.3327,874.8334,,,,,,,,,,,,,,1.2814,1,,,,,,,,,,,,,,m,,,,,,,,,,,,,,,,153,1,874.8342,876.1165,m,1,1.2814,,[],[],[],[],[],[],[],876.1166,878.1156,878.1158,878.8163,[],[],[],[],[],[],[],z,878.8164,878.8166,0.109166718,-0.189166718,0,0,0,,0,152,152,100,1,3,word,DECADE,cursive,decade_c.png,0.6998,,,,,
,,,,31823,001,2025-11-05_20h05.08.116,HW_LDT_1,2024.2.4,Win32,60.60606061,,,,,,,,,,,,,,,,,,,,,,878.818,879.0167,879.0167,879.5161,,,,,,,,,,,,,,1.7824,1,,,,,,,,,,,,,,m,,,,,,,,,,,,,,,,154,0,879.5168,881.2999,m,1,1.7824,,[],[],[],[],[],[],[],881.2999,883.2993,883.2994,883.2994,[],[],[],[],[],[],[],,883.2996,883.2998,0.109166718,-0.189166718,0,0,0,,0,153,153,149,1,3,word,SENATOR,cursive,senator_c.png,,,,,,
,,,,31823,001,2025-11-05_20h05.08.116,HW_LDT_1,2024.2.4,Win32,60.60606061,,,,,,,,,,,,,,,,,,,,,,883.3012,883.4993,883.4993,883.9994,,,,,,,,,,,,,,1.3981,1,,,,,,,,,,,,,,z,,,,,,,,,,,,,,,,155,0,884,885.3991,z,1,1.3981,,[],[],[],[],[],[],[],885.3991,887.4001,887.4001,887.4004,[],[],[],[],[],[],[],,887.4004,887.4005,0.109166718,-0.189166718,0,0,0,,0,154,154,35,1,3,TL,cateferia,print,cateferia_p.png,,,,,,
,,,,31823,001,2025-11-05_20h05.08.116,HW_LDT_1,2024.2.4,Win32,60.60606061,,,,,,,,,,,,,,,,,,,,,,887.4018,887.5998,887.5999,888.0984,,,,,,,,,,,,,,0.8485,1,,,,,,,,,,,,,,m,,,,,,,,,,,,,,,,156,1,888.099,888.9482,m,1,0.8485,,[],[],[],[],[],[],[],888.9482,890.9487,890.9487,892.3166,[],[],[],[],[],[],[],m,892.3167,892.3168,0.109166718,-0.189166718,0,0,0,,0,155,155,139,1,3,word,REGULAR,print,regular_p.png,1.3672,,,,,
,,,,31823,001,2025-11-05_20h05.08.116,HW_LDT_1,2024.2.4,Win32,60.60606061,,,,,,,,,,,,,,,,,,,,,,892.3182,892.515,892.515,893.0163,,,,,,,,,,,,,,3.3647,1,,,,,,,,,,,,,,z,,,,,,,,,,,,,,,,157,0,893.017,896.3827,z,1,3.3647,,[],[],[],[],[],[],[],896.3829,898.3823,898.3824,898.3826,[],[],[],[],[],[],[],,898.3827,898.3828,0.109166718,-0.189166718,0,0,0,,0,156,156,16,1,3,RL,mishafe,cursive,mishafe_c.png,,,,,,
,,,,31823,001,2025-11-05_20h05.08.116,HW_LDT_1,2024.2.4,Win32,60.60606061,,,,,,,,,,,,,,,,,,,,,,898.3841,898.5822,898.5823,899.0823,,,,,,,,,,,,,,0.8827,1,,,,,,,,,,,,,,m,,,,,,,,,,,,,,,,158,0,899.0831,899.9666,m,1,0.8827,,[],[],[],[],[],[],[],899.9667,901.9658,901.9658,901.9661,[],[],[],[],[],[],[],,901.9662,901.9663,0.109166718,-0.189166718,0,0,0,,0,157,157,130,1,3,word,POLICY,print,policy_p.png,,,,,,
,,,,31823,001,2025-11-05_20h05.08.116,HW_LDT_1,2024.2.4,Win32,60.60606061,,,,,,,,,,,,,,,,,,,,,,901.9676,902.1658,902.1659,902.666,,,,,,,,,,,,,,1.1994,1,,,,,,,,,,,,,,m,,,,,,,,,,,,,,,,159,0,902.6667,903.8671,m,1,1.1994,,[],[],[],[],[],[],[],903.8672,905.8659,905.8659,905.8661,[],[],[],[],[],[],[],,905.8661,905.8662,0.109166718,-0.189166718,0,0,0,,0,158,158,150,1,3,word,SENTIMENT,print,sentiment_p.png,,,,,,
,,,,31823,001,2025-11-05_20h05.08.116,HW_LDT_1,2024.2.4,Win32,60.60606061,,,,,,,,,,,,,,,,,,,,,,905.8672,906.0658,906.0659,906.5656,,,,,,,,,,,,,,1.3827,1,,,,,,,,,,,,,,z,,,,,,,,,,,,,,,,160,0,906.5664,907.9503,z,1,1.3827,,[],[],[],[],[],[],[],907.9504,909.9494,909.9495,909.9496,[],[],[],[],[],[],[],,909.9497,909.9497,0.109166718,-0.189166718,0,0,0,,0,159,159,63,1,3,TL,racidal,cursive,racidal_c.png,,,,,,
,,,,31823,001,2025-11-05_20h05.08.116,HW_LDT_1,2024.2.4,Win32,60.60606061,,,,,,,,,,,,,,,,,,,,,,,,,,,,,,,,,,,,,,,,,,,,,,,,,,,,,,,,,,,,,,,,,,,,,,,,,,,,,,,,,,,,,,,,,,,,,,,,,,,,,,,,,,,,,,,,,,,,,,,909.9579,914.9456
