counterbalance_lists.group,counterbalance_lists.remaining,get_list.started,get_list.stopped,participant,session,date,expName,psychopyVersion,OS,frameRate,Instructions.started,Instructions.stopped,key_resp.keys,key_resp.rt,key_resp.duration,instr_done_touch.x,instr_done_touch.y,instr_done_touch.leftButton,instr_done_touch.midButton,instr_done_touch.rightButton,start_instr.thisRepN,start_instr.thisTrialN,start_instr.thisN,start_instr.thisIndex,start_instr.ran,pageN,phase,instruct_text,has_image,instruct_image,showProgress.started,showProgress.stopped,fix.started,fix.stopped,prac.started,prac.stopped,response.keys,response.corr,response.rt,response.duration,touch_resp.x,touch_resp.y,touch_resp.leftButton,touch_resp.midButton,touch_resp.rightButton,touch_resp.time,touch_resp.clicked_name,rt,corr,feedback.started,feedback.stopped,trials.thisRepN,trials.thisTrialN,trials.thisN,trials.thisIndex,trials.ran,TrialID,StimulusType,Condition,PrimeDuration,Prime,Target,corrAns,Instructions_expt.started,Instructions_expt.stopped,key_resp_3.keys,instr_done_touch_3.x,instr_done_touch_3.y,instr_done_touch_3.leftButton,instr_done_touch_3.midButton,instr_done_touch_3.rightButton,instr_done_touch_3.clicked_name,instr_experiment.thisRepN,instr_experiment.thisTrialN,instr_experiment.thisN,instr_experiment.thisIndex,instr_experiment.ran,trialID,flag,maintask.started,maintask.stopped,key_resp_2.keys,key_resp_2.corr,key_resp_2.rt,key_resp_2.duration,targ_click.x,targ_click.y,targ_click.leftButton,targ_click.midButton,targ_click.rightButton,targ_click.time,targ_click.clicked_name,ITI.started,ITI.stopped,probe.started,probe.stopped,click_probe.x,click_probe.y,click_probe.leftButton,click_probe.midButton,click_probe.rightButton,click_probe.time,click_probe.clicked_name,key_resp_probe.keys,Break.started,Break.stopped,break_done_touch.x,break_done_touch.y,break_done_touch.leftButton,break_done_touch.midButton,break_done_touch.rightButton,break_done_keyboard.keys,list3_trials.thisRepN,list3_trials.thisTrialN,list3_trials.thisN,list3_trials.thisIndex,list3_trials.ran,list_id,item_type,string,font,stim_file,key_resp_probe.rt,key_resp_probe.duration,break_done_keyboard.rt,break_done_keyboard.duration,End.started,End.stopped
list3,,0.4013,0.4014,31836,001,2025-12-02_19h16.25.554,HW_LDT_1,2024.2.4,MacIntel,62.11180124,,,,,,,,,,,,,,,,,,,,,,,,,,,,,,,,,,,,,,,,,,,,,,,,,,,,,,,,,,,,,,,,,,,,,,,,,,,,,,,,,,,,,,,,,,,,,,,,,,,,,,,,,,,,,,,,,,,,,,
,,,,31836,001,2025-12-02_19h16.25.554,HW_LDT_1,2024.2.4,MacIntel,62.11180124,0.4195,13.2418,space,12.7942,,0.031772817,-0.188265098,0,0,0,0,0,0,0,1,1,instructions,"INSTRUCTIONS
At the start of each trial, look at the plus sign  (+) in the center of the screen.  This tells you that a trial is about to begin and where to look. Second, the plus sign will disappear and a string of letters will appear. Your task is to determine if the string of letters is a word or not. If the item is a word press the M key (on keyboard)  or touch the word button (phone/tablet).  If the item is not a word,  press the  Z key (on keyboard)  or touch the nonword button (on phone/tablet). The items will be presented for a short time. 
Press the space bar or touch  continue.",0,,,,,,,,,,,,,,,,,,,,,,,,,,,,,,,,,,,,,,,,,,,,,,,,,,,,,,,,,,,,,,,,,,,,,,,,,,,,,,,,,,,,,,,,,,,,,,,,,,,
,,,,31836,001,2025-12-02_19h16.25.554,HW_LDT_1,2024.2.4,MacIntel,62.11180124,13.244,19.3079,space,6.0389,,0.031772817,-0.188265098,0,0,0,0,1,1,1,1,2,instructions,"If your device has a keyboard, press the 'Z' key for nonwords and the 'M' key for words.





Press the space bar or touch the button below to continue.",0,keyboard-example.gif,,,,,,,,,,,,,,,,,,,,,,,,,,,,,,,,,,,,,,,,,,,,,,,,,,,,,,,,,,,,,,,,,,,,,,,,,,,,,,,,,,,,,,,,,,,,,,,,,,
,,,,31836,001,2025-12-02_19h16.25.554,HW_LDT_1,2024.2.4,MacIntel,62.11180124,19.3097,21.024,space,1.6941,,0.031772817,-0.188265098,0,0,0,0,2,2,2,1,3,instructions,"If you are using a touchscreen only device, use the buttons on the screen. Do not use the mouse.





Press the space bar or touch the button below to continue.",0,touchscreen-example.gif,,,,,,,,,,,,,,,,,,,,,,,,,,,,,,,,,,,,,,,,,,,,,,,,,,,,,,,,,,,,,,,,,,,,,,,,,,,,,,,,,,,,,,,,,,,,,,,,,,
,,,,31836,001,2025-12-02_19h16.25.554,HW_LDT_1,2024.2.4,MacIntel,62.11180124,21.0257,25.4574,space,4.4068,,0.031772817,-0.188265098,0,0,0,0,3,3,3,1,4,instructions,"It is very important that you respond as quickly and accurately as possible, as each letter string will only be on the screen for two seconds. If you do not respond within this time, the message 'Too slow!' will be displayed and the experiment will progress to the next letter string. The first 20 trials will be practice trials and you will receive feedback on your answers. 

Press the space bar or touch the button below to start the practice trials.",0,,,,,,,,,,,,,,,,,,,,,,,,,,,,,,,,,,,,,,,,,,,,,,,,,,,,,,,,,,,,,,,,,,,,,,,,,,,,,,,,,,,,,,,,,,,,,,,,,,,
,,,,31836,001,2025-12-02_19h16.25.554,HW_LDT_1,2024.2.4,MacIntel,62.11180124,,,,,,,,,,,,,,,,,,,,,25.484,25.6576,25.6579,26.1575,26.1577,28.359,m,1,2.1887,,[],[],[],[],[],[],[],2.1887,1,28.3594,28.857,0,0,0,2,1,1003,WORD,"ID",16,almond,ALMOND,m,,,,,,,,,,,,,,,,,,,,,,,,,,,,,,,,,,,,,,,,,,,,,,,,,,,,,,,,,,,,,,,,,
,,,,31836,001,2025-12-02_19h16.25.554,HW_LDT_1,2024.2.4,MacIntel,62.11180124,,,,,,,,,,,,,,,,,,,,,28.8586,29.057,29.057,29.5574,29.5584,30.3741,m,1,0.7942,,[],[],[],[],[],[],[],0.7942,1,30.3743,30.874,0,1,1,6,1,1007,WORD,UN,16,tropic,ZOMBIE,m,,,,,,,,,,,,,,,,,,,,,,,,,,,,,,,,,,,,,,,,,,,,,,,,,,,,,,,,,,,,,,,,,
,,,,31836,001,2025-12-02_19h16.25.554,HW_LDT_1,2024.2.4,MacIntel,62.11180124,,,,,,,,,,,,,,,,,,,,,30.8755,31.0739,31.074,31.5741,31.575,32.1563,m,1,0.5624,,[],[],[],[],[],[],[],0.5624,1,32.1564,32.6574,0,2,2,7,1,1008,WORD,UN,16,hurdle,VOLUME,m,,,,,,,,,,,,,,,,,,,,,,,,,,,,,,,,,,,,,,,,,,,,,,,,,,,,,,,,,,,,,,,,,
,,,,31836,001,2025-12-02_19h16.25.554,HW_LDT_1,2024.2.4,MacIntel,62.11180124,,,,,,,,,,,,,,,,,,,,,32.6589,32.8574,32.8574,33.3573,33.3584,34.6239,z,1,1.2541,,[],[],[],[],[],[],[],1.2541,1,34.6241,35.1241,0,3,3,9,1,1010,NW,"ID",33,fariny,FARINY,z,,,,,,,,,,,,,,,,,,,,,,,,,,,,,,,,,,,,,,,,,,,,,,,,,,,,,,,,,,,,,,,,,
,,,,31836,001,2025-12-02_19h16.25.554,HW_LDT_1,2024.2.4,MacIntel,62.11180124,,,,,,,,,,,,,,,,,,,,,35.1256,35.3239,35.3241,35.8241,35.8253,36.4572,m,1,0.6082,,[],[],[],[],[],[],[],0.6082,1,36.4573,36.9575,0,4,4,5,1,1006,WORD,UN,33,frenzy,OBTAIN,m,,,,,,,,,,,,,,,,,,,,,,,,,,,,,,,,,,,,,,,,,,,,,,,,,,,,,,,,,,,,,,,,,
,,,,31836,001,2025-12-02_19h16.25.554,HW_LDT_1,2024.2.4,MacIntel,62.11180124,,,,,,,,,,,,,,,,,,,,,36.9589,37.1574,37.1574,37.6573,37.6585,38.6574,z,1,0.9808,,[],[],[],[],[],[],[],0.9808,1,38.6577,39.1573,0,5,5,12,1,1013,NW,UN,33,adveil,SPRINY,z,,,,,,,,,,,,,,,,,,,,,,,,,,,,,,,,,,,,,,,,,,,,,,,,,,,,,,,,,,,,,,,,,
,,,,31836,001,2025-12-02_19h16.25.554,HW_LDT_1,2024.2.4,MacIntel,62.11180124,,,,,,,,,,,,,,,,,,,,,39.1589,39.3574,39.3575,39.8569,39.8579,40.5908,m,1,0.7149,,[],[],[],[],[],[],[],0.7149,1,40.591,41.0907,0,6,6,0,1,1001,WORD,"ID",33,utopia,UTOPIA,m,,,,,,,,,,,,,,,,,,,,,,,,,,,,,,,,,,,,,,,,,,,,,,,,,,,,,,,,,,,,,,,,,
,,,,31836,001,2025-12-02_19h16.25.554,HW_LDT_1,2024.2.4,MacIntel,62.11180124,,,,,,,,,,,,,,,,,,,,,41.0921,41.2907,41.2908,41.7907,41.7916,42.7907,z,1,0.9825,,[],[],[],[],[],[],[],0.9825,1,42.7908,43.2907,0,7,7,14,1,1015,NW,UN,16,miaber,THRALE,z,,,,,,,,,,,,,,,,,,,,,,,,,,,,,,,,,,,,,,,,,,,,,,,,,,,,,,,,,,,,,,,,,
,,,,31836,001,2025-12-02_19h16.25.554,HW_LDT_1,2024.2.4,MacIntel,62.11180124,,,,,,,,,,,,,,,,,,,,,43.2924,43.4904,43.4905,43.9907,43.9915,44.9073,z,1,0.9064,,[],[],[],[],[],[],[],0.9064,1,44.9074,45.4073,0,8,8,13,1,1014,NW,UN,33,winfer,ROUPET,z,,,,,,,,,,,,,,,,,,,,,,,,,,,,,,,,,,,,,,,,,,,,,,,,,,,,,,,,,,,,,,,,,
,,,,31836,001,2025-12-02_19h16.25.554,HW_LDT_1,2024.2.4,MacIntel,62.11180124,,,,,,,,,,,,,,,,,,,,,45.4087,45.6073,45.6073,46.1073,46.1083,46.9074,m,1,0.7747,,[],[],[],[],[],[],[],0.7747,1,46.9075,47.4065,0,9,9,3,1,1004,WORD,"ID",16,matrix,MATRIX,m,,,,,,,,,,,,,,,,,,,,,,,,,,,,,,,,,,,,,,,,,,,,,,,,,,,,,,,,,,,,,,,,,
,,,,31836,001,2025-12-02_19h16.25.554,HW_LDT_1,2024.2.4,MacIntel,62.11180124,,,,,,,,,,,,,,,,,,,,,47.4079,47.6072,47.6073,48.1073,48.1084,48.7407,m,1,0.6119,,[],[],[],[],[],[],[],0.6119,1,48.7409,49.24,0,10,10,1,1,1002,WORD,"ID",33,adjust,ADJUST,m,,,,,,,,,,,,,,,,,,,,,,,,,,,,,,,,,,,,,,,,,,,,,,,,,,,,,,,,,,,,,,,,,
,,,,31836,001,2025-12-02_19h16.25.554,HW_LDT_1,2024.2.4,MacIntel,62.11180124,,,,,,,,,,,,,,,,,,,,,49.2414,49.4405,49.4406,49.9406,49.9416,50.6907,z,1,0.729,,[],[],[],[],[],[],[],0.729,1,50.6909,51.1906,0,11,11,8,1,1009,NW,"ID",33,aslert,ASLERT,z,,,,,,,,,,,,,,,,,,,,,,,,,,,,,,,,,,,,,,,,,,,,,,,,,,,,,,,,,,,,,,,,,
,,,,31836,001,2025-12-02_19h16.25.554,HW_LDT_1,2024.2.4,MacIntel,62.11180124,,,,,,,,,,,,,,,,,,,,,51.1918,51.3907,51.3909,51.8905,51.8915,52.9739,m,0,1.0739,,[],[],[],[],[],[],[],1.0739,0,52.9748,53.4739,0,12,12,10,1,1011,NW,"ID",16,inlade,INLADE,z,,,,,,,,,,,,,,,,,,,,,,,,,,,,,,,,,,,,,,,,,,,,,,,,,,,,,,,,,,,,,,,,,
,,,,31836,001,2025-12-02_19h16.25.554,HW_LDT_1,2024.2.4,MacIntel,62.11180124,,,,,,,,,,,,,,,,,,,,,53.4754,53.674,53.674,54.1739,54.175,55.2408,m,1,1.0454,,[],[],[],[],[],[],[],1.0454,1,55.2419,55.7407,0,13,13,4,1,1005,WORD,UN,33,abound,SQUEAK,m,,,,,,,,,,,,,,,,,,,,,,,,,,,,,,,,,,,,,,,,,,,,,,,,,,,,,,,,,,,,,,,,,
,,,,31836,001,2025-12-02_19h16.25.554,HW_LDT_1,2024.2.4,MacIntel,62.11180124,,,,,,,,,,,,,,,,,,,,,55.742,55.9407,55.9407,56.4405,56.4416,57.2575,z,1,0.7965,,[],[],[],[],[],[],[],0.7965,1,57.2577,57.7574,0,14,14,15,1,1016,NW,UN,16,mushed,WHAISE,z,,,,,,,,,,,,,,,,,,,,,,,,,,,,,,,,,,,,,,,,,,,,,,,,,,,,,,,,,,,,,,,,,
,,,,31836,001,2025-12-02_19h16.25.554,HW_LDT_1,2024.2.4,MacIntel,62.11180124,,,,,,,,,,,,,,,,,,,,,57.7588,57.9568,57.9568,58.4573,58.4582,59.1407,z,1,0.6613,,[],[],[],[],[],[],[],0.6613,1,59.1409,59.6407,0,15,15,11,1,1012,NW,"ID",16,rashet,RASHET,z,,,,,,,,,,,,,,,,,,,,,,,,,,,,,,,,,,,,,,,,,,,,,,,,,,,,,,,,,,,,,,,,,
,,,,31836,001,2025-12-02_19h16.25.554,HW_LDT_1,2024.2.4,MacIntel,62.11180124,,,,,,,,,,,,,,,,1,end_of_practice,"You have completed the practice trials. During the experimental trials, you will not receive feedback. On some trials you will be asked to report whether the item you just saw was in cursive or print. 
Before you begin, please ensure that you are in a comfortable and quiet location and will not be disturbed for about 15 minutes, as we cannot use your data if you do not complete all the trials. 
 When you are ready to start the experimental trials, please press space or touch the button below.",,,,,,,,,,,,,,,,,,,,,,,,,,,,,,,,,,,,59.6466,61.0246,,0.027450014,-0.392482488,1,0,0,instr_done_button_3,0,0,0,0,1,,,,,,,,,,,,,,,,,,,,,,,,,,,,,,,,,,,,,,,,,,,,,,,,,,,
,,,,31836,001,2025-12-02_19h16.25.554,HW_LDT_1,2024.2.4,MacIntel,62.11180124,,,,,,,,,,,,,,,,,,,,,61.0412,61.2234,61.2235,61.7239,,,,,,,,,,,,,,2.4191,0,,,,,,,,,,,,,,m,,,,,,,,,,,,,,,1,0,61.7256,64.158,z,0,2.4191,,[],[],[],[],[],[],[],64.1584,66.1576,66.1578,66.161,[],[],[],[],[],[],[],,66.1611,66.1625,0.027318247,-0.392482488,0,0,0,,0,0,0,144,1,3,word,RESIDENT,cursive,resident_c.png,,,,,,
,,,,31836,001,2025-12-02_19h16.25.554,HW_LDT_1,2024.2.4,MacIntel,62.11180124,,,,,,,,,,,,,,,,,,,,,66.1633,66.3574,66.3574,66.8573,,,,,,,,,,,,,,2.5189,1,,,,,,,,,,,,,,z,,,,,,,,,,,,,,,2,0,66.858,69.3907,z,1,2.5189,,[],[],[],[],[],[],[],69.3908,71.3906,71.3907,71.391,[],[],[],[],[],[],[],,71.3911,71.3911,0.027318247,-0.392482488,0,0,0,,0,1,1,17,1,3,RL,motide,cursive,motide_c.png,,,,,,
,,,,31836,001,2025-12-02_19h16.25.554,HW_LDT_1,2024.2.4,MacIntel,62.11180124,,,,,,,,,,,,,,,,,,,,,71.3925,71.5906,71.5906,72.0905,,,,,,,,,,,,,,3.7709,1,,,,,,,,,,,,,,m,,,,,,,,,,,,,,,3,0,72.0908,75.8741,m,1,3.7709,,[],[],[],[],[],[],[],75.8742,77.874,77.874,77.8743,[],[],[],[],[],[],[],,77.8743,77.8744,0.027318247,-0.392482488,0,0,0,,0,2,2,110,1,3,word,HERITAGE,cursive,heritage_c.png,,,,,,
,,,,31836,001,2025-12-02_19h16.25.554,HW_LDT_1,2024.2.4,MacIntel,62.11180124,,,,,,,,,,,,,,,,,,,,,77.8753,78.0739,78.074,78.5732,,,,,,,,,,,,,,3.073,1,,,,,,,,,,,,,,z,,,,,,,,,,,,,,,4,0,78.5741,81.6574,z,1,3.073,,[],[],[],[],[],[],[],81.6575,83.6573,83.6574,83.6576,[],[],[],[],[],[],[],,83.6577,83.6578,0.027318247,-0.392482488,0,0,0,,0,3,3,28,1,3,RL,rovastic,cursive,rovastic_c.png,,,,,,
,,,,31836,001,2025-12-02_19h16.25.554,HW_LDT_1,2024.2.4,MacIntel,62.11180124,,,,,,,,,,,,,,,,,,,,,83.6591,83.8573,83.8574,84.3573,,,,,,,,,,,,,,1.2454,1,,,,,,,,,,,,,,m,,,,,,,,,,,,,,,5,0,84.3579,85.6072,m,1,1.2454,,[],[],[],[],[],[],[],85.6074,87.6073,87.6074,87.6077,[],[],[],[],[],[],[],,87.6078,87.6079,0.027318247,-0.392482488,0,0,0,,0,4,4,99,1,3,word,DEBATE,cursive,debate_c.png,,,,,,
,,,,31836,001,2025-12-02_19h16.25.554,HW_LDT_1,2024.2.4,MacIntel,62.11180124,,,,,,,,,,,,,,,,,,,,,87.6092,87.8073,87.8074,88.3073,,,,,,,,,,,,,,1.0705,1,,,,,,,,,,,,,,m,,,,,,,,,,,,,,,6,1,88.308,89.3908,m,1,1.0705,,[],[],[],[],[],[],[],89.391,91.3907,91.3908,94.491,[],[],[],[],[],[],[],m,94.4911,94.4915,0.027318247,-0.392482488,0,0,0,,0,5,5,119,1,3,word,MEMORY,print,memory_p.png,3.0885,,,,,
,,,,31836,001,2025-12-02_19h16.25.554,HW_LDT_1,2024.2.4,MacIntel,62.11180124,,,,,,,,,,,,,,,,,,,,,94.4929,94.6906,94.6907,95.1906,,,,,,,,,,,,,,6.0372,1,,,,,,,,,,,,,,z,,,,,,,,,,,,,,,7,0,95.1912,101.2408,z,1,6.0372,,[],[],[],[],[],[],[],101.241,103.2407,103.2408,103.241,[],[],[],[],[],[],[],,103.241,103.2411,0.027318247,-0.392482488,0,0,0,,0,6,6,14,1,3,RL,lofase,cursive,lofase_c.png,,,,,,
,,,,31836,001,2025-12-02_19h16.25.554,HW_LDT_1,2024.2.4,MacIntel,62.11180124,,,,,,,,,,,,,,,,,,,,,103.2419,103.4406,103.4406,103.9407,,,,,,,,,,,,,,1.5038,1,,,,,,,,,,,,,,z,,,,,,,,,,,,,,,8,0,103.9413,105.4574,z,1,1.5038,,[],[],[],[],[],[],[],105.4575,107.4574,107.4574,107.4577,[],[],[],[],[],[],[],,107.4578,107.4579,0.027318247,-0.392482488,0,0,0,,0,7,7,46,1,3,TL,distupe,print,distupe_p.png,,,,,,
,,,,31836,001,2025-12-02_19h16.25.554,HW_LDT_1,2024.2.4,MacIntel,62.11180124,,,,,,,,,,,,,,,,,,,,,107.4591,107.6572,107.6572,108.1575,,,,,,,,,,,,,,1.8561,1,,,,,,,,,,,,,,m,,,,,,,,,,,,,,,9,0,108.1581,110.024,m,1,1.8561,,[],[],[],[],[],[],[],110.0242,112.024,112.024,112.0243,[],[],[],[],[],[],[],,112.0243,112.0244,0.027318247,-0.392482488,0,0,0,,0,8,8,87,1,3,word,CAFETERIA,print,cafeteria_p.png,,,,,,
,,,,31836,001,2025-12-02_19h16.25.554,HW_LDT_1,2024.2.4,MacIntel,62.11180124,,,,,,,,,,,,,,,,,,,,,112.0257,112.2239,112.224,112.7236,,,,,,,,,,,,,,4.721,1,,,,,,,,,,,,,,m,,,,,,,,,,,,,,,10,0,112.7243,117.4574,m,1,4.721,,[],[],[],[],[],[],[],117.4575,119.4573,119.4574,119.4576,[],[],[],[],[],[],[],,119.4577,119.4579,0.027318247,-0.392482488,0,0,0,,0,9,9,143,1,3,word,REMOVAL,cursive,removal_c.png,,,,,,
,,,,31836,001,2025-12-02_19h16.25.554,HW_LDT_1,2024.2.4,MacIntel,62.11180124,,,,,,,,,,,,,,,,,,,,,119.4592,119.6573,119.6574,120.1572,,,,,,,,,,,,,,1.0245,1,,,,,,,,,,,,,,m,,,,,,,,,,,,,,,11,0,120.1579,121.1907,m,1,1.0245,,[],[],[],[],[],[],[],121.1908,123.1904,123.1905,123.1907,[],[],[],[],[],[],[],,123.1907,123.1908,0.027318247,-0.392482488,0,0,0,,0,10,10,80,1,3,word,ACADEMY,print,academy_p.png,,,,,,
,,,,31836,001,2025-12-02_19h16.25.554,HW_LDT_1,2024.2.4,MacIntel,62.11180124,,,,,,,,,,,,,,,,,,,,,123.1917,123.3905,123.3905,123.8907,,,,,,,,,,,,,,0.6957,1,,,,,,,,,,,,,,m,,,,,,,,,,,,,,,12,0,123.8913,124.5906,m,1,0.6957,,[],[],[],[],[],[],[],124.5906,126.5898,126.5898,126.5901,[],[],[],[],[],[],[],,126.5901,126.5901,0.027318247,-0.392482488,0,0,0,,0,11,11,83,1,3,word,ANIMAL,cursive,animal_c.png,,,,,,
,,,,31836,001,2025-12-02_19h16.25.554,HW_LDT_1,2024.2.4,MacIntel,62.11180124,,,,,,,,,,,,,,,,,,,,,126.5909,126.7906,126.7907,127.2906,,,,,,,,,,,,,,1.0711,1,,,,,,,,,,,,,,z,,,,,,,,,,,,,,,13,1,127.2912,128.374,z,1,1.0711,,[],[],[],[],[],[],[],128.3742,130.3739,130.374,131.7565,[],[],[],[],[],[],[],m,131.7566,131.7567,0.027318247,-0.392482488,0,0,0,,0,12,12,8,1,3,RL,cocewage,print,cocewage_p.png,1.3715,,,,,
,,,,31836,001,2025-12-02_19h16.25.554,HW_LDT_1,2024.2.4,MacIntel,62.11180124,,,,,,,,,,,,,,,,,,,,,131.7581,131.9574,131.9575,132.4573,,,,,,,,,,,,,,5.2383,1,,,,,,,,,,,,,,z,,,,,,,,,,,,,,,14,1,132.4578,137.7076,z,1,5.2383,,[],[],[],[],[],[],[],137.7078,139.7073,139.7073,140.7903,[],[],[],[],[],[],[],z,140.7905,140.7906,0.027318247,-0.392482488,0,0,0,,0,13,13,3,1,3,RL,bebine,cursive,bebine_c.png,1.0816,,,,,
,,,,31836,001,2025-12-02_19h16.25.554,HW_LDT_1,2024.2.4,MacIntel,62.11180124,,,,,,,,,,,,,,,,,,,,,140.7916,140.9907,140.9907,141.4906,,,,,,,,,,,,,,0.9134,1,,,,,,,,,,,,,,m,,,,,,,,,,,,,,,15,0,141.4911,142.4074,m,1,0.9134,,[],[],[],[],[],[],[],142.4075,144.4072,144.4073,144.4075,[],[],[],[],[],[],[],,144.4076,144.4077,0.027318247,-0.392482488,0,0,0,,0,14,14,142,1,3,word,REMOTE,print,remote_p.png,,,,,,
,,,,31836,001,2025-12-02_19h16.25.554,HW_LDT_1,2024.2.4,MacIntel,62.11180124,,,,,,,,,,,,,,,,,,,,,144.409,144.6072,144.6073,145.1073,,,,,,,,,,,,,,0.9375,1,,,,,,,,,,,,,,m,,,,,,,,,,,,,,,16,0,145.1078,146.0575,m,1,0.9375,,[],[],[],[],[],[],[],146.0577,148.0572,148.0574,148.0576,[],[],[],[],[],[],[],,148.0576,148.0577,0.027318247,-0.392482488,0,0,0,,0,15,15,94,1,3,word,CLINICAL,print,clinical_p.png,,,,,,
,,,,31836,001,2025-12-02_19h16.25.554,HW_LDT_1,2024.2.4,MacIntel,62.11180124,,,,,,,,,,,,,,,,,,,,,148.059,148.2573,148.2573,148.7574,,,,,,,,,,,,,,2.3647,1,,,,,,,,,,,,,,z,,,,,,,,,,,,,,,17,0,148.7579,151.124,z,1,2.3647,,[],[],[],[],[],[],[],151.1241,153.124,153.124,153.1242,[],[],[],[],[],[],[],,153.1243,153.1244,0.027318247,-0.392482488,0,0,0,,0,16,16,64,1,3,TL,radiply,print,radiply_p.png,,,,,,
,,,,31836,001,2025-12-02_19h16.25.554,HW_LDT_1,2024.2.4,MacIntel,62.11180124,,,,,,,,,,,,,,,,,,,,,153.1257,153.3239,153.3239,153.8239,,,,,,,,,,,,,,6.7889,1,,,,,,,,,,,,,,m,,,,,,,,,,,,,,,18,0,153.8243,160.6241,m,1,6.7889,,[],[],[],[],[],[],[],160.6242,162.624,162.624,162.6243,[],[],[],[],[],[],[],,162.6243,162.6244,0.027318247,-0.392482488,0,0,0,,0,17,17,145,1,3,word,RESUME,cursive,resume_c.png,,,,,,
,,,,31836,001,2025-12-02_19h16.25.554,HW_LDT_1,2024.2.4,MacIntel,62.11180124,,,,,,,,,,,,,,,,,,,,,162.6256,162.824,162.824,163.3241,,,,,,,,,,,,,,1.4309,1,,,,,,,,,,,,,,z,,,,,,,,,,,,,,,19,0,163.3246,164.7573,z,1,1.4309,,[],[],[],[],[],[],[],164.7574,166.7573,166.7573,166.7576,[],[],[],[],[],[],[],,166.7577,166.7579,0.027318247,-0.392482488,0,0,0,,0,18,18,30,1,3,RL,strapely,print,strapely_p.png,,,,,,
,,,,31836,001,2025-12-02_19h16.25.554,HW_LDT_1,2024.2.4,MacIntel,62.11180124,,,,,,,,,,,,,,,,,,,,,166.7593,166.9573,166.9573,167.457,,,,,,,,,,,,,,0.7876,1,,,,,,,,,,,,,,m,,,,,,,,,,,,,,,20,0,167.4573,168.2574,m,1,0.7876,,[],[],[],[],[],[],[],168.2575,170.2573,170.2573,170.2576,[],[],[],[],[],[],[],,170.2577,170.2577,0.027318247,-0.392482488,0,0,0,,0,19,19,158,1,3,word,VELOCITY,cursive,velocity_c.png,,,,,,
,,,,31836,001,2025-12-02_19h16.25.554,HW_LDT_1,2024.2.4,MacIntel,62.11180124,,,,,,,,,,,,,,,,,,,,,170.259,170.4572,170.4573,170.9573,,,,,,,,,,,,,,1.4879,1,,,,,,,,,,,,,,m,,,,,,,,,,,,,,,21,0,170.9578,172.4574,m,1,1.4879,,[],[],[],[],[],[],[],172.4575,174.4573,174.4573,174.4575,[],[],[],[],[],[],[],,174.4577,174.4578,0.027318247,-0.392482488,0,0,0,,0,20,20,90,1,3,word,CAPITAL,cursive,capital_c.png,,,,,,
,,,,31836,001,2025-12-02_19h16.25.554,HW_LDT_1,2024.2.4,MacIntel,62.11180124,,,,,,,,,,,,,,,,,,,,,174.4591,174.6572,174.6573,175.1573,,,,,,,,,,,,,,3.9305,0,,,,,,,,,,,,,,z,,,,,,,,,,,,,,,22,0,175.158,179.0908,m,0,3.9305,,[],[],[],[],[],[],[],179.0909,181.0906,181.0906,181.0909,[],[],[],[],[],[],[],,181.0909,181.091,0.027318247,-0.392482488,0,0,0,,0,21,21,16,1,3,RL,mishafe,cursive,mishafe_c.png,,,,,,
,,,,31836,001,2025-12-02_19h16.25.554,HW_LDT_1,2024.2.4,MacIntel,62.11180124,,,,,,,,,,,,,,,,,,,,,181.0924,181.2906,181.2906,181.7906,,,,,,,,,,,,,,3.5155,1,,,,,,,,,,,,,,z,,,,,,,,,,,,,,,23,0,181.7912,185.3081,z,1,3.5155,,[],[],[],[],[],[],[],185.3082,187.3072,187.3074,187.3076,[],[],[],[],[],[],[],,187.3076,187.3077,0.027318247,-0.392482488,0,0,0,,0,22,22,79,1,3,TL,veretan,cursive,veretan_c.png,,,,,,
,,,,31836,001,2025-12-02_19h16.25.554,HW_LDT_1,2024.2.4,MacIntel,62.11180124,,,,,,,,,,,,,,,,,,,,,187.3088,187.5072,187.5074,188.0074,,,,,,,,,,,,,,3.2212,1,,,,,,,,,,,,,,z,,,,,,,,,,,,,,,24,0,188.0079,191.2407,z,1,3.2212,,[],[],[],[],[],[],[],191.2408,193.2406,193.2406,193.2408,[],[],[],[],[],[],[],,193.2408,193.2409,0.027318247,-0.392482488,0,0,0,,0,23,23,34,1,3,TL,aminal,cursive,aminal_c.png,,,,,,
,,,,31836,001,2025-12-02_19h16.25.554,HW_LDT_1,2024.2.4,MacIntel,62.11180124,,,,,,,,,,,,,,,,,,,,,193.2419,193.4407,193.4407,193.9406,,,,,,,,,,,,,,1.0044,1,,,,,,,,,,,,,,z,,,,,,,,,,,,,,,25,0,193.9413,194.9574,z,1,1.0044,,[],[],[],[],[],[],[],194.9575,196.9567,196.9567,196.9569,[],[],[],[],[],[],[],,196.957,196.957,0.027318247,-0.392482488,0,0,0,,0,24,24,67,1,3,TL,retome,print,retome_p.png,,,,,,
,,,,31836,001,2025-12-02_19h16.25.554,HW_LDT_1,2024.2.4,MacIntel,62.11180124,,,,,,,,,,,,,,,,,,,,,196.9583,197.1573,197.1573,197.6573,,,,,,,,,,,,,,0.8889,1,,,,,,,,,,,,,,z,,,,,,,,,,,,,,,26,1,197.6579,198.5574,z,1,0.8889,,[],[],[],[],[],[],[],198.5576,200.5573,200.5573,201.8406,[],[],[],[],[],[],[],z,201.8406,201.8408,0.027318247,-0.392482488,0,0,0,,0,25,25,2,1,3,RL,betemit,print,betemit_p.png,1.28,,,,,
,,,,31836,001,2025-12-02_19h16.25.554,HW_LDT_1,2024.2.4,MacIntel,62.11180124,,,,,,,,,,,,,,,,,,,,,201.8419,202.0406,202.0407,202.5406,,,,,,,,,,,,,,0.9706,1,,,,,,,,,,,,,,z,,,,,,,,,,,,,,,27,0,202.5412,203.524,z,1,0.9706,,[],[],[],[],[],[],[],203.5241,205.524,205.524,205.5243,[],[],[],[],[],[],[],,205.5243,205.5244,0.027318247,-0.392482488,0,0,0,,0,26,26,39,1,3,TL,clicinal,print,clicinal_p.png,,,,,,
,,,,31836,001,2025-12-02_19h16.25.554,HW_LDT_1,2024.2.4,MacIntel,62.11180124,,,,,,,,,,,,,,,,,,,,,205.5258,205.7239,205.724,206.2239,,,,,,,,,,,,,,1.1819,1,,,,,,,,,,,,,,z,,,,,,,,,,,,,,,28,0,206.2245,207.4075,z,1,1.1819,,[],[],[],[],[],[],[],207.4076,209.4073,209.4073,209.4074,[],[],[],[],[],[],[],,209.4074,209.4076,0.027318247,-0.392482488,0,0,0,,0,27,27,40,1,3,TL,condiser,print,condiser_p.png,,,,,,
,,,,31836,001,2025-12-02_19h16.25.554,HW_LDT_1,2024.2.4,MacIntel,62.11180124,,,,,,,,,,,,,,,,,,,,,209.4085,209.6073,209.6074,210.1073,,,,,,,,,,,,,,0.9324,1,,,,,,,,,,,,,,m,,,,,,,,,,,,,,,29,0,210.1078,211.0413,m,1,0.9324,,[],[],[],[],[],[],[],211.0414,213.0406,213.0407,213.0408,[],[],[],[],[],[],[],,213.0409,213.0411,0.027318247,-0.392482488,0,0,0,,0,28,28,91,1,3,word,CARDINAL,print,cardinal_p.png,,,,,,
,,,,31836,001,2025-12-02_19h16.25.554,HW_LDT_1,2024.2.4,MacIntel,62.11180124,,,,,,,,,,,,,,,,,,,,,213.0423,213.2406,213.2407,213.7406,,,,,,,,,,,,,,3.0047,1,,,,,,,,,,,,,,z,,,,,,,,,,,,,,,30,0,213.7411,216.7574,z,1,3.0047,,[],[],[],[],[],[],[],216.7576,218.7573,218.7573,218.7576,[],[],[],[],[],[],[],,218.7577,218.7578,0.027318247,-0.392482488,0,0,0,,0,29,29,15,1,3,RL,mifikary,cursive,mifikary_c.png,,,,,,
,,,,31836,001,2025-12-02_19h16.25.554,HW_LDT_1,2024.2.4,MacIntel,62.11180124,,,,,,,,,,,,,,,,,,,,,218.7592,218.9572,218.9573,219.4573,,,,,,,,,,,,,,1.4044,1,,,,,,,,,,,,,,m,,,,,,,,,,,,,,,31,0,219.4578,220.874,m,1,1.4044,,[],[],[],[],[],[],[],220.8742,222.874,222.8741,222.8743,[],[],[],[],[],[],[],,222.8744,222.8746,0.027318247,-0.392482488,0,0,0,,0,30,30,88,1,3,word,CAMERA,cursive,camera_c.png,,,,,,
,,,,31836,001,2025-12-02_19h16.25.554,HW_LDT_1,2024.2.4,MacIntel,62.11180124,,,,,,,,,,,,,,,,,,,,,222.8757,223.0739,223.0739,223.5739,,,,,,,,,,,,,,1.5047,1,,,,,,,,,,,,,,m,,,,,,,,,,,,,,,32,0,223.5745,225.0908,m,1,1.5047,,[],[],[],[],[],[],[],225.0909,227.0906,227.0907,227.0909,[],[],[],[],[],[],[],,227.091,227.0911,0.027318247,-0.392482488,0,0,0,,0,31,31,122,1,3,word,MOBILE,cursive,mobile_c.png,,,,,,
,,,,31836,001,2025-12-02_19h16.25.554,HW_LDT_1,2024.2.4,MacIntel,62.11180124,,,,,,,,,,,,,,,,,,,,,227.0923,227.2906,227.2907,227.7903,,,,,,,,,,,,,,4.7644,1,,,,,,,,,,,,,,z,,,,,,,,,,,,,,,33,0,227.7908,232.5573,z,1,4.7644,,[],[],[],[],[],[],[],232.5575,234.5573,234.5573,234.5576,[],[],[],[],[],[],[],,234.5577,234.5577,0.027318247,-0.392482488,0,0,0,,0,32,32,75,1,3,TL,sloten,cursive,sloten_c.png,,,,,,
,,,,31836,001,2025-12-02_19h16.25.554,HW_LDT_1,2024.2.4,MacIntel,62.11180124,,,,,,,,,,,,,,,,,,,,,234.5588,234.7571,234.7571,235.2572,,,,,,,,,,,,,,1.174,1,,,,,,,,,,,,,,m,,,,,,,,,,,,,,,34,0,235.2578,236.4408,m,1,1.174,,[],[],[],[],[],[],[],236.4408,238.4407,238.4407,238.4409,[],[],[],[],[],[],[],,238.441,238.441,0.027318247,-0.392482488,0,0,0,,0,33,33,147,1,3,word,ROMANTIC,cursive,romantic_c.png,,,,,,
,,,,31836,001,2025-12-02_19h16.25.554,HW_LDT_1,2024.2.4,MacIntel,62.11180124,,,,,,,,,,,,,,,,,,,,,238.4423,238.6406,238.6406,239.1408,,,,,,,,,,,,,,0.7972,1,,,,,,,,,,,,,,z,,,,,,,,,,,,,,,35,0,239.1414,239.9408,z,1,0.7972,,[],[],[],[],[],[],[],239.9408,241.9406,241.9407,241.9409,[],[],[],[],[],[],[],,241.9409,241.9411,0.027318247,-0.392482488,0,0,0,,0,34,34,0,1,3,RL,afaneur,print,afaneur_p.png,,,,,,
,,,,31836,001,2025-12-02_19h16.25.554,HW_LDT_1,2024.2.4,MacIntel,62.11180124,,,,,,,,,,,,,,,,,,,,,241.9424,242.1407,242.1408,242.6406,,,,,,,,,,,,,,5.247,1,,,,,,,,,,,,,,z,,,,,,,,,,,,,,,36,0,242.6412,247.8902,z,1,5.247,,[],[],[],[],[],[],[],247.8903,249.8906,249.8906,249.8908,[],[],[],[],[],[],[],,249.8909,249.8909,0.027318247,-0.392482488,0,0,0,,0,35,35,48,1,3,TL,grafetul,cursive,grafetul_c.png,,,,,,
,,,,31836,001,2025-12-02_19h16.25.554,HW_LDT_1,2024.2.4,MacIntel,62.11180124,,,,,,,,,,,,,,,,,,,,,249.8923,250.0906,250.0907,250.5906,,,,,,,,,,,,,,3.398,0,,,,,,,,,,,,,,z,,,,,,,,,,,,,,,37,0,250.5913,253.9907,m,0,3.398,,[],[],[],[],[],[],[],253.9908,255.9905,255.9906,255.9907,[],[],[],[],[],[],[],,255.9907,255.9908,0.027318247,-0.392482488,0,0,0,,0,36,36,11,1,3,RL,ebiwent,cursive,ebiwent_c.png,,,,,,
,,,,31836,001,2025-12-02_19h16.25.554,HW_LDT_1,2024.2.4,MacIntel,62.11180124,,,,,,,,,,,,,,,,,,,,,255.9917,256.1906,256.1907,256.6905,,,,,,,,,,,,,,0.8376,1,,,,,,,,,,,,,,m,,,,,,,,,,,,,,,38,0,256.691,257.5407,m,1,0.8376,,[],[],[],[],[],[],[],257.5408,259.5406,259.5406,259.5409,[],[],[],[],[],[],[],,259.5409,259.541,0.027318247,-0.392482488,0,0,0,,0,37,37,125,1,3,word,OPERATOR,print,operator_p.png,,,,,,
,,,,31836,001,2025-12-02_19h16.25.554,HW_LDT_1,2024.2.4,MacIntel,62.11180124,,,,,,,,,,,,,,,,,,,,,259.5422,259.7406,259.7407,260.2405,,,,,,,,,,,,,,1.7547,1,,,,,,,,,,,,,,m,,,,,,,,,,,,,,,39,0,260.2407,262.0073,m,1,1.7547,,[],[],[],[],[],[],[],262.0074,264.0073,264.0074,264.0076,[],[],[],[],[],[],[],,264.0077,264.0079,0.027318247,-0.392482488,0,0,0,,0,38,38,155,1,3,word,STRATEGY,print,strategy_p.png,,,,,,
,,,,31836,001,2025-12-02_19h16.25.554,HW_LDT_1,2024.2.4,MacIntel,62.11180124,,,,,,,,,,,,,,,,,,,,,264.0092,264.2073,264.2074,264.7073,,,,,,,,,,,,,,0.9569,1,,,,,,,,,,,,,,m,,,,,,,,,,,,,,,40,0,264.7078,265.6735,m,1,0.9569,,[],[],[],[],[],[],[],265.6736,267.6739,267.674,267.6742,[],[],[],[],[],[],[],,267.6743,267.6743,0.027318247,-0.392482488,0,0,0,,0,39,39,139,1,3,word,REGULAR,print,regular_p.png,,,,,,
,,,,31836,001,2025-12-02_19h16.25.554,HW_LDT_1,2024.2.4,MacIntel,62.11180124,,,,,,,,,,,,,,,,,,,,,267.6756,267.8739,267.874,268.3738,,,,,,,,,,,,,,1.1492,1,,,,,,,,,,,,,,z,,,,,,,,,,,,,,,41,0,268.3743,269.5245,z,1,1.1492,,[],[],[],[],[],[],[],269.5246,271.524,271.524,271.5242,[],[],[],[],[],[],[],,271.5243,271.5244,0.027318247,-0.392482488,0,0,0,,0,40,40,47,1,3,TL,elarobate,print,elarobate_p.png,,,,,,
,,,,31836,001,2025-12-02_19h16.25.554,HW_LDT_1,2024.2.4,MacIntel,62.11180124,,,,,,,,,,,,,,,,,,,,,271.5256,271.7239,271.724,272.2239,,,,,,,,,,,,,,0.9234,1,,,,,,,,,,,,,,m,,,,,,,,,,,,,,,42,1,272.2246,273.1574,m,1,0.9234,,[],[],[],[],[],[],[],273.1575,275.1572,275.1573,278.2574,[],[],[],[],[],[],[],z,278.2575,278.2576,0.027318247,-0.392482488,0,0,0,,0,41,41,154,1,3,word,STORAGE,cursive,storage_c.png,3.0981,,,,,
,,,,31836,001,2025-12-02_19h16.25.554,HW_LDT_1,2024.2.4,MacIntel,62.11180124,,,,,,,,,,,,,,,,,,,,,278.2587,278.4573,278.4574,278.9572,,,,,,,,,,,,,,2.8323,1,,,,,,,,,,,,,,z,,,,,,,,,,,,,,,43,1,278.9578,281.7911,z,1,2.8323,,[],[],[],[],[],[],[],281.7911,283.79,283.7901,284.7903,[],[],[],[],[],[],[],z,284.7904,284.7905,0.027318247,-0.392482488,0,0,0,,0,42,42,12,1,3,RL,formuke,cursive,formuke_c.png,0.9972,,,,,
,,,,31836,001,2025-12-02_19h16.25.554,HW_LDT_1,2024.2.4,MacIntel,62.11180124,,,,,,,,,,,,,,,,,,,,,284.7916,284.9906,284.9906,285.4906,,,,,,,,,,,,,,2.0209,0,,,,,,,,,,,,,,z,,,,,,,,,,,,,,,44,0,285.4914,287.5241,m,0,2.0209,,[],[],[],[],[],[],[],287.5242,289.5239,289.5239,289.5242,[],[],[],[],[],[],[],,289.5242,289.5244,0.027318247,-0.392482488,0,0,0,,0,43,43,70,1,3,TL,remuse,cursive,remuse_c.png,,,,,,
,,,,31836,001,2025-12-02_19h16.25.554,HW_LDT_1,2024.2.4,MacIntel,62.11180124,,,,,,,,,,,,,,,,,,,,,289.5257,289.724,289.7241,290.224,,,,,,,,,,,,,,0.973,1,,,,,,,,,,,,,,z,,,,,,,,,,,,,,,45,0,290.2245,291.2071,z,1,0.973,,[],[],[],[],[],[],[],291.2072,293.2073,293.2073,293.2076,[],[],[],[],[],[],[],,293.2077,293.2077,0.027318247,-0.392482488,0,0,0,,0,44,44,74,1,3,TL,spemicen,print,spemicen_p.png,,,,,,
,,,,31836,001,2025-12-02_19h16.25.554,HW_LDT_1,2024.2.4,MacIntel,62.11180124,,,,,,,,,,,,,,,,,,,,,293.209,293.4074,293.4074,293.9073,,,,,,,,,,,,,,5.0543,1,,,,,,,,,,,,,,z,,,,,,,,,,,,,,,46,0,293.9078,298.974,z,1,5.0543,,[],[],[],[],[],[],[],298.9741,300.9741,300.9742,300.9743,[],[],[],[],[],[],[],,300.9744,300.9744,0.027318247,-0.392482488,0,0,0,,0,45,45,6,1,3,RL,cenesony,cursive,cenesony_c.png,,,,,,
,,,,31836,001,2025-12-02_19h16.25.554,HW_LDT_1,2024.2.4,MacIntel,62.11180124,,,,,,,,,,,,,,,,,,,,,300.9758,301.174,301.1741,301.674,,,,,,,,,,,,,,2.3407,1,,,,,,,,,,,,,,m,,,,,,,,,,,,,,,47,0,301.6745,304.024,m,1,2.3407,,[],[],[],[],[],[],[],304.0241,306.0239,306.0239,306.0243,[],[],[],[],[],[],[],,306.0243,306.0244,0.027318247,-0.392482488,0,0,0,,0,46,46,159,1,3,word,VETERAN,cursive,veteran_c.png,,,,,,
,,,,31836,001,2025-12-02_19h16.25.554,HW_LDT_1,2024.2.4,MacIntel,62.11180124,,,,,,,,,,,,,,,,,,,,,306.0257,306.224,306.2241,306.7239,,,,,,,,,,,,,,3.3541,1,,,,,,,,,,,,,,z,,,,,,,,,,,,,,,48,0,306.7245,310.0907,z,1,3.3541,,[],[],[],[],[],[],[],310.0907,312.0906,312.0907,312.091,[],[],[],[],[],[],[],,312.091,312.0911,0.027318247,-0.392482488,0,0,0,,0,47,47,20,1,3,RL,orimipal,cursive,orimipal_c.png,,,,,,
,,,,31836,001,2025-12-02_19h16.25.554,HW_LDT_1,2024.2.4,MacIntel,62.11180124,,,,,,,,,,,,,,,,,,,,,312.0923,312.2906,312.2907,312.7906,,,,,,,,,,,,,,0.8697,1,,,,,,,,,,,,,,z,,,,,,,,,,,,,,,49,0,312.7912,313.6741,z,1,0.8697,,[],[],[],[],[],[],[],313.6741,315.674,315.674,315.6743,[],[],[],[],[],[],[],,315.6743,315.6744,0.027318247,-0.392482488,0,0,0,,0,48,48,24,1,3,RL,quafidy,print,quafidy_p.png,,,,,,
,,,,31836,001,2025-12-02_19h16.25.554,HW_LDT_1,2024.2.4,MacIntel,62.11180124,,,,,,,,,,,,,,,,,,,,,315.6756,315.874,315.874,316.3739,,,,,,,,,,,,,,2.0577,1,,,,,,,,,,,,,,m,,,,,,,,,,,,,,,50,0,316.3745,318.4407,m,1,2.0577,,[],[],[],[],[],[],[],318.4408,320.44,320.44,320.4403,[],[],[],[],[],[],[],,320.4403,320.4405,0.027318247,-0.392482488,0,0,0,,0,49,49,140,1,3,word,RELATIVE,cursive,relative_c.png,,,,,,
,,,,31836,001,2025-12-02_19h16.25.554,HW_LDT_1,2024.2.4,MacIntel,62.11180124,,,,,,,,,,,,,,,,,,,,,320.4418,320.6407,320.6408,321.1406,,,,,,,,,,,,,,0.8205,1,,,,,,,,,,,,,,z,,,,,,,,,,,,,,,51,0,321.1412,321.9741,z,1,0.8205,,[],[],[],[],[],[],[],321.9742,323.9739,323.9739,323.9741,[],[],[],[],[],[],[],,323.9742,323.9743,0.027318247,-0.392482488,0,0,0,,0,50,50,65,1,3,TL,resufal,print,resufal_p.png,,,,,,
,,,,31836,001,2025-12-02_19h16.25.554,HW_LDT_1,2024.2.4,MacIntel,62.11180124,,,,,,,,,,,,,,,,,,,,,323.9756,324.1739,324.174,324.6733,,,,,,,,,,,,,,0.7715,1,,,,,,,,,,,,,,m,,,,,,,,,,,,,,,52,0,324.6739,325.4573,m,1,0.7715,,[],[],[],[],[],[],[],325.4575,327.4572,327.4572,327.4573,[],[],[],[],[],[],[],,327.4574,327.4575,0.027318247,-0.392482488,0,0,0,,0,51,51,86,1,3,word,BESIDE,cursive,beside_c.png,,,,,,
,,,,31836,001,2025-12-02_19h16.25.554,HW_LDT_1,2024.2.4,MacIntel,62.11180124,,,,,,,,,,,,,,,,,,,,,327.4583,327.6573,327.6573,328.1573,,,,,,,,,,,,,,0.771,1,,,,,,,,,,,,,,z,,,,,,,,,,,,,,,53,0,328.1579,328.9408,z,1,0.771,,[],[],[],[],[],[],[],328.9408,330.9407,330.9408,330.941,[],[],[],[],[],[],[],,330.941,330.9411,0.027318247,-0.392482488,0,0,0,,0,52,52,25,1,3,RL,retupar,print,retupar_p.png,,,,,,
,,,,31836,001,2025-12-02_19h16.25.554,HW_LDT_1,2024.2.4,MacIntel,62.11180124,,,,,,,,,,,,,,,,,,,,,330.9426,331.1406,331.1406,331.6407,,,,,,,,,,,,,,1.0222,1,,,,,,,,,,,,,,m,,,,,,,,,,,,,,,54,0,331.6412,332.6741,m,1,1.0222,,[],[],[],[],[],[],[],332.6742,334.6739,334.674,334.6743,[],[],[],[],[],[],[],,334.6743,334.6743,0.027318247,-0.392482488,0,0,0,,0,53,53,133,1,3,word,PROVIDE,print,provide_p.png,,,,,,
,,,,31836,001,2025-12-02_19h16.25.554,HW_LDT_1,2024.2.4,MacIntel,62.11180124,,,,,,,,,,,,,,,,,,,,,334.6753,334.8739,334.874,335.3739,,,,,,,,,,,,,,0.8707,1,,,,,,,,,,,,,,m,,,,,,,,,,,,,,,55,0,335.3744,336.2574,m,1,0.8707,,[],[],[],[],[],[],[],336.2575,338.2572,338.2573,338.2576,[],[],[],[],[],[],[],,338.2576,338.2578,0.027318247,-0.392482488,0,0,0,,0,54,54,124,1,3,word,NUMERICAL,print,numerical_p.png,,,,,,
,,,,31836,001,2025-12-02_19h16.25.554,HW_LDT_1,2024.2.4,MacIntel,62.11180124,,,,,,,,,,,,,,,,,,,,,338.259,338.4573,338.4574,338.9573,,,,,,,,,,,,,,1.1407,0,,,,,,,,,,,,,,z,,,,,,,,,,,,,,,56,0,338.9578,340.1074,m,0,1.1407,,[],[],[],[],[],[],[],340.1076,342.1073,342.1075,342.1076,[],[],[],[],[],[],[],,342.1077,342.1078,0.027318247,-0.392482488,0,0,0,,0,55,55,37,1,3,TL,cacapity,cursive,cacapity_c.png,,,,,,
,,,,31836,001,2025-12-02_19h16.25.554,HW_LDT_1,2024.2.4,MacIntel,62.11180124,,,,,,,,,,,,,,,,,,,,,342.1091,342.3073,342.3074,342.8073,,,,,,,,,,,,,,2.4811,1,,,,,,,,,,,,,,z,,,,,,,,,,,,,,,57,0,342.8079,345.2906,z,1,2.4811,,[],[],[],[],[],[],[],345.2908,347.2906,347.2906,347.2908,[],[],[],[],[],[],[],,347.2908,347.291,0.025596776,-0.390025673,0,0,0,,0,56,56,57,1,3,TL,moredate,cursive,moredate_c.png,,,,,,
,,,,31836,001,2025-12-02_19h16.25.554,HW_LDT_1,2024.2.4,MacIntel,62.11180124,,,,,,,,,,,,,,,,,,,,,347.2922,347.4906,347.4906,347.9905,,,,,,,,,,,,,,3.2714,1,,,,,,,,,,,,,,z,,,,,,,,,,,,,,,58,0,347.9909,351.274,z,1,3.2714,,[],[],[],[],[],[],[],351.2741,353.2739,353.274,353.2742,[],[],[],[],[],[],[],,353.2743,353.2744,0.025596776,-0.390025673,0,0,0,,0,57,57,36,1,3,TL,carema,cursive,carema_c.png,,,,,,
,,,,31836,001,2025-12-02_19h16.25.554,HW_LDT_1,2024.2.4,MacIntel,62.11180124,,,,,,,,,,,,,,,,,,,,,353.2756,353.4739,353.474,353.9739,,,,,,,,,,,,,,2.0046,1,,,,,,,,,,,,,,m,,,,,,,,,,,,,,,59,0,353.9746,355.9908,m,1,2.0046,,[],[],[],[],[],[],[],355.991,357.9906,357.9906,357.9909,[],[],[],[],[],[],[],,357.9909,357.991,0.025596776,-0.390025673,0,0,0,,0,58,58,100,1,3,word,DECADE,cursive,decade_c.png,,,,,,
,,,,31836,001,2025-12-02_19h16.25.554,HW_LDT_1,2024.2.4,MacIntel,62.11180124,,,,,,,,,,,,,,,,,,,,,357.9923,358.1905,358.1905,358.6906,,,,,,,,,,,,,,0.9716,1,,,,,,,,,,,,,,z,,,,,,,,,,,,,,,60,1,358.6912,359.6741,z,1,0.9716,,[],[],[],[],[],[],[],359.6742,361.674,361.674,363.0574,[],[],[],[],[],[],[],z,363.0574,363.0576,0.025596776,-0.390025673,0,0,0,,0,59,59,27,1,3,RL,recile,print,recile_p.png,1.3714,,,,,
,,,,31836,001,2025-12-02_19h16.25.554,HW_LDT_1,2024.2.4,MacIntel,62.11180124,,,,,,,,,,,,,,,,,,,,,363.0588,363.2573,363.2573,363.7567,,,,,,,,,,,,,,1.2476,1,,,,,,,,,,,,,,m,,,,,,,,,,,,,,,61,0,363.757,365.0073,m,1,1.2476,,[],[],[],[],[],[],[],365.0074,367.0072,367.0073,367.0075,[],[],[],[],[],[],[],,367.0076,367.0077,0.025596776,-0.390025673,0,0,0,,0,60,60,107,1,3,word,EVIDENT,cursive,evident_c.png,,,,,,
,,,,31836,001,2025-12-02_19h16.25.554,HW_LDT_1,2024.2.4,MacIntel,62.11180124,,,,,,,,,,,,,,,,,,,,,367.009,367.2073,367.2074,367.7072,,,,,,,,,,,,,,1.8204,1,,,,,,,,,,,,,,m,,,,,,,,,,,,,,,62,0,367.7078,369.5409,m,1,1.8204,,[],[],[],[],[],[],[],369.541,371.5406,371.5407,371.5408,[],[],[],[],[],[],[],,371.5409,371.541,0.025596776,-0.390025673,0,0,0,,0,61,61,92,1,3,word,CATEGORY,cursive,category_c.png,,,,,,
,,,,31836,001,2025-12-02_19h16.25.554,HW_LDT_1,2024.2.4,MacIntel,62.11180124,,,,,,,,,,,,,,,,,,,,,371.5422,371.7406,371.7406,372.2406,,,,,,,,,,,,,,1.0316,1,,,,,,,,,,,,,,m,,,,,,,,,,,,,,,63,0,372.2412,373.274,m,1,1.0316,,[],[],[],[],[],[],[],373.2741,375.274,375.274,375.2743,[],[],[],[],[],[],[],,375.2743,375.2745,0.025596776,-0.390025673,0,0,0,,0,62,62,138,1,3,word,REFUSAL,print,refusal_p.png,,,,,,
,,,,31836,001,2025-12-02_19h16.25.554,HW_LDT_1,2024.2.4,MacIntel,62.11180124,,,,,,,,,,,,,,,,,,,,,375.2757,375.4738,375.4738,375.9739,,,,,,,,,,,,,,0.8707,1,,,,,,,,,,,,,,z,,,,,,,,,,,,,,,64,0,375.9745,376.8574,z,1,0.8707,,[],[],[],[],[],[],[],376.8575,378.8572,378.8573,378.8574,[],[],[],[],[],[],[],,378.8574,378.8574,0.025596776,-0.390025673,0,0,0,,0,63,63,55,1,3,TL,mecidine,print,mecidine_p.png,,,,,,
,,,,31836,001,2025-12-02_19h16.25.554,HW_LDT_1,2024.2.4,MacIntel,62.11180124,,,,,,,,,,,,,,,,,,,,,378.8583,379.0573,379.0573,379.5573,,,,,,,,,,,,,,1.775,1,,,,,,,,,,,,,,z,,,,,,,,,,,,,,,65,0,379.5579,381.3409,z,1,1.775,,[],[],[],[],[],[],[],381.3411,383.3396,383.3396,383.3399,[],[],[],[],[],[],[],,383.3399,383.34,0.025596776,-0.390025673,0,0,0,,0,64,64,13,1,3,RL,helicage,cursive,helicage_c.png,,,,,,
,,,,31836,001,2025-12-02_19h16.25.554,HW_LDT_1,2024.2.4,MacIntel,62.11180124,,,,,,,,,,,,,,,,,,,,,383.3413,383.5407,383.5408,384.0406,,,,,,,,,,,,,,2.4157,0,,,,,,,,,,,,,,z,,,,,,,,,,,,,,,66,0,384.0412,386.4582,m,0,2.4157,,[],[],[],[],[],[],[],386.4583,388.4572,388.4573,388.4575,[],[],[],[],[],[],[],,388.4576,388.4576,0.025596776,-0.390025673,0,0,0,,0,65,65,54,1,3,TL,manire,cursive,manire_c.png,,,,,,
,,,,31836,001,2025-12-02_19h16.25.554,HW_LDT_1,2024.2.4,MacIntel,62.11180124,,,,,,,,,,,,,,,,,,,,,388.459,388.6573,388.6573,389.1572,,,,,,,,,,,,,,1.1125,1,,,,,,,,,,,,,,m,,,,,,,,,,,,,,,67,1,389.1577,390.274,m,1,1.1125,,[],[],[],[],[],[],[],390.2741,392.2733,392.2734,393.8904,[],[],[],[],[],[],[],m,393.8905,393.8906,0.025596776,-0.390025673,0,0,0,,0,66,66,131,1,3,word,POPULAR,print,popular_p.png,1.6141,,,,,
,,,,31836,001,2025-12-02_19h16.25.554,HW_LDT_1,2024.2.4,MacIntel,62.11180124,,,,,,,,,,,,,,,,,,,,,393.8913,394.0906,394.0907,394.5906,,,,,,,,,,,,,,1.199,1,,,,,,,,,,,,,,z,,,,,,,,,,,,,,,68,1,394.5912,395.7913,z,1,1.199,,[],[],[],[],[],[],[],395.7914,397.7906,397.7907,398.9408,[],[],[],[],[],[],[],z,398.9408,398.9408,0.025596776,-0.390025673,0,0,0,,0,67,67,26,1,3,RL,repifion,print,repifion_p.png,1.1424,,,,,
,,,,31836,001,2025-12-02_19h16.25.554,HW_LDT_1,2024.2.4,MacIntel,62.11180124,,,,,,,,,,,,,,,,,,,,,398.9416,399.1406,399.1406,399.6399,,,,,,,,,,,,,,3.6141,1,,,,,,,,,,,,,,m,,,,,,,,,,,,,,,69,0,399.6403,403.2573,m,1,3.6141,,[],[],[],[],[],[],[],403.2574,405.2574,405.2575,405.2577,[],[],[],[],[],[],[],,405.2578,405.2578,0.025596776,-0.390025673,0,0,0,,0,68,68,126,1,3,word,OPTIMAL,cursive,optimal_c.png,,,,,,
,,,,31836,001,2025-12-02_19h16.25.554,HW_LDT_1,2024.2.4,MacIntel,62.11180124,,,,,,,,,,,,,,,,,,,,,405.2592,405.4572,405.4573,405.9574,,,,,,,,,,,,,,2.4232,1,,,,,,,,,,,,,,m,,,,,,,,,,,,,,,70,0,405.958,408.3907,m,1,2.4232,,[],[],[],[],[],[],[],408.3908,410.3907,410.3907,410.3909,[],[],[],[],[],[],[],,410.391,410.391,0.025596776,-0.390025673,0,0,0,,0,69,69,120,1,3,word,MILITARY,cursive,military_c.png,,,,,,
,,,,31836,001,2025-12-02_19h16.25.554,HW_LDT_1,2024.2.4,MacIntel,62.11180124,,,,,,,,,,,,,,,,,,,,,410.3922,410.5906,410.5906,411.0906,,,,,,,,,,,,,,0.9214,1,,,,,,,,,,,,,,m,,,,,,,,,,,,,,,71,0,411.0912,412.024,m,1,0.9214,,[],[],[],[],[],[],[],412.0242,414.0241,414.0241,414.0243,[],[],[],[],[],[],[],,414.0244,414.0244,0.025596776,-0.390025673,0,0,0,,0,70,70,132,1,3,word,PROPOSAL,print,proposal_p.png,,,,,,
,,,,31836,001,2025-12-02_19h16.25.554,HW_LDT_1,2024.2.4,MacIntel,62.11180124,,,,,,,,,,,,,,,,,,,,,414.0256,414.224,414.224,414.724,,,,,,,,,,,,,,1.174,1,,,,,,,,,,,,,,m,,,,,,,,,,,,,,,72,0,414.7245,415.9065,m,1,1.174,,[],[],[],[],[],[],[],415.9066,417.9072,417.9073,417.9075,[],[],[],[],[],[],[],,417.9076,417.9077,0.025596776,-0.390025673,0,0,0,,0,71,71,106,1,3,word,ELABORATE,print,elaborate_p.png,,,,,,
,,,,31836,001,2025-12-02_19h16.25.554,HW_LDT_1,2024.2.4,MacIntel,62.11180124,,,,,,,,,,,,,,,,,,,,,417.9089,418.1073,418.1074,418.6073,,,,,,,,,,,,,,1.4204,1,,,,,,,,,,,,,,m,,,,,,,,,,,,,,,73,0,418.6079,420.0408,m,1,1.4204,,[],[],[],[],[],[],[],420.0409,422.0407,422.0408,422.0409,[],[],[],[],[],[],[],,422.0409,422.0411,0.025596776,-0.390025673,0,0,0,,0,72,72,136,1,3,word,RADICAL,cursive,radical_c.png,,,,,,
,,,,31836,001,2025-12-02_19h16.25.554,HW_LDT_1,2024.2.4,MacIntel,62.11180124,,,,,,,,,,,,,,,,,,,,,422.0426,422.2407,422.2408,422.7406,,,,,,,,,,,,,,2.7156,1,,,,,,,,,,,,,,z,,,,,,,,,,,,,,,74,0,422.7414,425.4583,z,1,2.7156,,[],[],[],[],[],[],[],425.4584,427.4574,427.4574,427.4575,[],[],[],[],[],[],[],,427.4576,427.4577,0.025596776,-0.390025673,0,0,0,,0,73,73,42,1,3,TL,detabe,cursive,detabe_c.png,,,,,,
,,,,31836,001,2025-12-02_19h16.25.554,HW_LDT_1,2024.2.4,MacIntel,62.11180124,,,,,,,,,,,,,,,,,,,,,427.4586,427.6573,427.6573,428.1573,,,,,,,,,,,,,,2.7209,1,,,,,,,,,,,,,,z,,,,,,,,,,,,,,,75,0,428.1578,430.8907,z,1,2.7209,,[],[],[],[],[],[],[],430.8908,432.8906,432.8907,432.8909,[],[],[],[],[],[],[],,432.891,432.8911,0.025596776,-0.390025673,0,0,0,,0,74,74,4,1,3,RL,cafigal,cursive,cafigal_c.png,,,,,,
,,,,31836,001,2025-12-02_19h16.25.554,HW_LDT_1,2024.2.4,MacIntel,62.11180124,,,,,,,,,,,,,,,,,,,,,432.8923,433.0906,433.0907,433.5906,,,,,,,,,,,,,,2.1745,1,,,,,,,,,,,,,,z,,,,,,,,,,,,,,,76,0,433.5912,435.7741,z,1,2.1745,,[],[],[],[],[],[],[],435.7742,437.7739,437.7741,437.7742,[],[],[],[],[],[],[],,437.7743,437.7744,0.025596776,-0.390025673,0,0,0,,0,75,75,71,1,3,TL,sanile,cursive,sanile_c.png,,,,,,
,,,,31836,001,2025-12-02_19h16.25.554,HW_LDT_1,2024.2.4,MacIntel,62.11180124,,,,,,,,,,,,,,,,,,,,,437.7757,437.974,437.974,438.4739,,,,,,,,,,,,,,3.6475,0,,,,,,,,,,,,,,m,,,,,,,,,,,,,,,77,0,438.4743,442.1239,z,0,3.6475,,[],[],[],[],[],[],[],442.1239,444.1242,444.1243,444.1245,[],[],[],[],[],[],[],,444.1245,444.1246,0.025596776,-0.390025673,0,0,0,,0,76,76,121,1,3,word,MISTAKE,cursive,mistake_c.png,,,,,,
,,,,31836,001,2025-12-02_19h16.25.554,HW_LDT_1,2024.2.4,MacIntel,62.11180124,,,,,,,,,,,,,,,,,,,,,444.1261,444.3241,444.3242,444.8241,,,,,,,,,,,,,,1.0873,1,,,,,,,,,,,,,,m,,,,,,,,,,,,,,,78,0,444.8246,445.9241,m,1,1.0873,,[],[],[],[],[],[],[],445.9241,447.9239,447.924,447.9242,[],[],[],[],[],[],[],,447.9242,447.9244,0.025596776,-0.390025673,0,0,0,,0,77,77,82,1,3,word,AMATEUR,print,amateur_p.png,,,,,,
,,,,31836,001,2025-12-02_19h16.25.554,HW_LDT_1,2024.2.4,MacIntel,62.11180124,,,,,,,,,,,,,,,,,,,,,447.9255,448.1239,448.1239,448.624,,,,,,,,,,,,,,0.7705,1,,,,,,,,,,,,,,z,,,,,,,,,,,,,,,79,0,448.6245,449.4074,z,1,0.7705,,[],[],[],[],[],[],[],449.4075,451.4072,451.4073,451.4075,[],[],[],[],[],[],[],,451.4076,451.4076,0.025596776,-0.390025673,0,0,0,,0,78,78,32,1,3,TL,adacemy,print,adacemy_p.png,,,,,,
,,,,31836,001,2025-12-02_19h16.25.554,HW_LDT_1,2024.2.4,MacIntel,62.11180124,,,,,,,,,,,,,,,,,,,,,451.4089,451.6073,451.6073,452.1074,,,,,,,,,,,,,,1.9892,1,,,,,,,,,,,,,,z,,,,,,,,,,,,,,,80,0,452.1078,454.1071,z,1,1.9892,,[],[],[],[],[],[],[],454.1071,456.1073,456.1073,456.1076,[],[],[],[],[],[],[],,456.1076,516.8244,0.025596776,-0.390025673,0,0,0,space,0,79,79,68,1,3,TL,revomal,cursive,revomal_c.png,,,60.6872,,,
,,,,31836,001,2025-12-02_19h16.25.554,HW_LDT_1,2024.2.4,MacIntel,62.11180124,,,,,,,,,,,,,,,,,,,,,516.8259,517.024,517.0241,517.524,,,,,,,,,,,,,,1.807,1,,,,,,,,,,,,,,m,,,,,,,,,,,,,,,81,0,517.5246,519.3407,m,1,1.807,,[],[],[],[],[],[],[],519.3409,521.3404,521.3404,521.3405,[],[],[],[],[],[],[],,521.3405,521.3405,0.025596776,-0.390025673,0,0,0,,0,80,80,116,1,3,word,MARGINAL,print,marginal_p.png,,,,,,
,,,,31836,001,2025-12-02_19h16.25.554,HW_LDT_1,2024.2.4,MacIntel,62.11180124,,,,,,,,,,,,,,,,,,,,,521.3412,521.5405,521.5405,522.0404,,,,,,,,,,,,,,1.3662,1,,,,,,,,,,,,,,m,,,,,,,,,,,,,,,82,0,522.0406,523.4075,m,1,1.3662,,[],[],[],[],[],[],[],523.4076,525.4073,525.4074,525.4076,[],[],[],[],[],[],[],,525.4076,525.4078,0.025596776,-0.390025673,0,0,0,,0,81,81,111,1,3,word,INDICATE,print,indicate_p.png,,,,,,
,,,,31836,001,2025-12-02_19h16.25.554,HW_LDT_1,2024.2.4,MacIntel,62.11180124,,,,,,,,,,,,,,,,,,,,,525.4091,525.6073,525.6073,526.1073,,,,,,,,,,,,,,0.7491,1,,,,,,,,,,,,,,m,,,,,,,,,,,,,,,83,0,526.1078,526.8581,m,1,0.7491,,[],[],[],[],[],[],[],526.8583,528.8574,528.8575,528.8577,[],[],[],[],[],[],[],,528.8577,528.8578,0.025596776,-0.390025673,0,0,0,,0,82,82,97,1,3,word,COVERAGE,print,coverage_p.png,,,,,,
,,,,31836,001,2025-12-02_19h16.25.554,HW_LDT_1,2024.2.4,MacIntel,62.11180124,,,,,,,,,,,,,,,,,,,,,528.8591,529.0573,529.0573,529.5573,,,,,,,,,,,,,,1.0047,1,,,,,,,,,,,,,,z,,,,,,,,,,,,,,,84,0,529.5577,530.574,z,1,1.0047,,[],[],[],[],[],[],[],530.5741,532.574,532.5741,532.5742,[],[],[],[],[],[],[],,532.5743,532.5744,0.025596776,-0.390025673,0,0,0,,0,83,83,35,1,3,TL,cateferia,print,cateferia_p.png,,,,,,
,,,,31836,001,2025-12-02_19h16.25.554,HW_LDT_1,2024.2.4,MacIntel,62.11180124,,,,,,,,,,,,,,,,,,,,,532.5756,532.774,532.774,533.274,,,,,,,,,,,,,,0.981,1,,,,,,,,,,,,,,m,,,,,,,,,,,,,,,85,0,533.2746,534.2574,m,1,0.981,,[],[],[],[],[],[],[],534.2575,536.2569,536.257,536.2572,[],[],[],[],[],[],[],,536.2573,536.2574,0.025596776,-0.390025673,0,0,0,,0,84,84,150,1,3,word,SENTIMENT,print,sentiment_p.png,,,,,,
,,,,31836,001,2025-12-02_19h16.25.554,HW_LDT_1,2024.2.4,MacIntel,62.11180124,,,,,,,,,,,,,,,,,,,,,536.2586,536.4572,536.4573,536.9563,,,,,,,,,,,,,,1.3801,1,,,,,,,,,,,,,,m,,,,,,,,,,,,,,,86,0,536.9565,538.3408,m,1,1.3801,,[],[],[],[],[],[],[],538.3409,540.3406,540.3406,540.3409,[],[],[],[],[],[],[],,540.341,540.341,0.025596776,-0.390025673,0,0,0,,0,85,85,84,1,3,word,BELOVED,cursive,beloved_c.png,,,,,,
,,,,31836,001,2025-12-02_19h16.25.554,HW_LDT_1,2024.2.4,MacIntel,62.11180124,,,,,,,,,,,,,,,,,,,,,540.3422,540.5406,540.5407,541.0402,,,,,,,,,,,,,,0.8313,1,,,,,,,,,,,,,,z,,,,,,,,,,,,,,,87,0,541.0407,541.8737,z,1,0.8313,,[],[],[],[],[],[],[],541.8738,543.874,543.8741,543.8742,[],[],[],[],[],[],[],,543.8743,543.8743,0.025596776,-0.390025673,0,0,0,,0,86,86,60,1,3,TL,panert,print,panert_p.png,,,,,,
,,,,31836,001,2025-12-02_19h16.25.554,HW_LDT_1,2024.2.4,MacIntel,62.11180124,,,,,,,,,,,,,,,,,,,,,543.8756,544.074,544.074,544.574,,,,,,,,,,,,,,0.9046,1,,,,,,,,,,,,,,z,,,,,,,,,,,,,,,88,0,544.5745,545.4909,z,1,0.9046,,[],[],[],[],[],[],[],545.491,547.4907,547.4907,547.4909,[],[],[],[],[],[],[],,547.491,547.4911,0.025596776,-0.390025673,0,0,0,,0,87,87,58,1,3,TL,nuremical,print,nuremical_p.png,,,,,,
,,,,31836,001,2025-12-02_19h16.25.554,HW_LDT_1,2024.2.4,MacIntel,62.11180124,,,,,,,,,,,,,,,,,,,,,547.4922,547.69,547.69,548.1907,,,,,,,,,,,,,,1.1209,1,,,,,,,,,,,,,,m,,,,,,,,,,,,,,,89,0,548.1913,549.3241,m,1,1.1209,,[],[],[],[],[],[],[],549.3242,551.324,551.324,551.3242,[],[],[],[],[],[],[],,551.3243,551.3244,0.025596776,-0.390025673,0,0,0,,0,88,88,102,1,3,word,DENSITY,print,density_p.png,,,,,,
,,,,31836,001,2025-12-02_19h16.25.554,HW_LDT_1,2024.2.4,MacIntel,62.11180124,,,,,,,,,,,,,,,,,,,,,551.3253,551.524,551.524,552.024,,,,,,,,,,,,,,1.0151,1,,,,,,,,,,,,,,z,,,,,,,,,,,,,,,90,0,552.0246,553.0407,z,1,1.0151,,[],[],[],[],[],[],[],553.0407,555.0406,555.0407,555.0408,[],[],[],[],[],[],[],,555.0409,555.041,0.025596776,-0.390025673,0,0,0,,0,89,89,10,1,3,RL,efibor,print,efibor_p.png,,,,,,
,,,,31836,001,2025-12-02_19h16.25.554,HW_LDT_1,2024.2.4,MacIntel,62.11180124,,,,,,,,,,,,,,,,,,,,,555.0423,555.2407,555.2407,555.7406,,,,,,,,,,,,,,1.2303,1,,,,,,,,,,,,,,z,,,,,,,,,,,,,,,91,0,555.7412,556.974,z,1,1.2303,,[],[],[],[],[],[],[],556.974,558.9739,558.974,558.9743,[],[],[],[],[],[],[],,558.9743,558.9744,0.025596776,-0.390025673,0,0,0,,0,90,90,61,1,3,TL,pocily,print,pocily_p.png,,,,,,
,,,,31836,001,2025-12-02_19h16.25.554,HW_LDT_1,2024.2.4,MacIntel,62.11180124,,,,,,,,,,,,,,,,,,,,,558.9756,559.174,559.174,559.674,,,,,,,,,,,,,,1.4384,1,,,,,,,,,,,,,,m,,,,,,,,,,,,,,,92,1,559.6746,561.1243,m,1,1.4384,0.01,[],[],[],[],[],[],[],561.1244,563.1241,563.1241,565.0907,[],[],[],[],[],[],[],m,565.0909,565.091,0.025596776,-0.390025673,0,0,0,,0,91,91,151,1,3,word,SPECIFIC,print,specific_p.png,1.9546,,,,,
,,,,31836,001,2025-12-02_19h16.25.554,HW_LDT_1,2024.2.4,MacIntel,62.11180124,,,,,,,,,,,,,,,,,,,,,565.0922,565.2906,565.2906,565.7905,,,,,,,,,,,,,,2.3242,1,,,,,,,,,,,,,,m,,,,,,,,,,,,,,,93,0,565.7911,568.1241,m,1,2.3242,,[],[],[],[],[],[],[],568.1241,570.1241,570.1241,570.1243,[],[],[],[],[],[],[],,570.1243,570.1244,0.025596776,-0.390025673,0,0,0,,0,92,92,115,1,3,word,LOGICAL,cursive,logical_c.png,,,,,,
,,,,31836,001,2025-12-02_19h16.25.554,HW_LDT_1,2024.2.4,MacIntel,62.11180124,,,,,,,,,,,,,,,,,,,,,570.1255,570.324,570.3241,570.824,,,,,,,,,,,,,,4.6207,1,,,,,,,,,,,,,,z,,,,,,,,,,,,,,,94,0,570.8245,575.4574,z,1,4.6207,,[],[],[],[],[],[],[],575.4575,577.4573,577.4574,577.4576,[],[],[],[],[],[],[],,577.4576,577.4577,0.025596776,-0.390025673,0,0,0,,0,93,93,29,1,3,RL,selamor,cursive,selamor_c.png,,,,,,
,,,,31836,001,2025-12-02_19h16.25.554,HW_LDT_1,2024.2.4,MacIntel,62.11180124,,,,,,,,,,,,,,,,,,,,,577.459,577.6573,577.6574,578.1572,,,,,,,,,,,,,,4.9045,1,,,,,,,,,,,,,,z,,,,,,,,,,,,,,,95,0,578.1574,583.0742,z,1,4.9045,,[],[],[],[],[],[],[],583.0744,585.074,585.074,585.0742,[],[],[],[],[],[],[],,585.0743,585.0744,0.025596776,-0.390025673,0,0,0,,0,94,94,66,1,3,TL,retalive,cursive,retalive_c.png,,,,,,
,,,,31836,001,2025-12-02_19h16.25.554,HW_LDT_1,2024.2.4,MacIntel,62.11180124,,,,,,,,,,,,,,,,,,,,,585.0756,585.2738,585.2738,585.774,,,,,,,,,,,,,,2.3084,1,,,,,,,,,,,,,,z,,,,,,,,,,,,,,,96,0,585.7745,588.0907,z,1,2.3084,,[],[],[],[],[],[],[],588.0908,590.0906,590.0907,590.0908,[],[],[],[],[],[],[],,590.0909,590.0909,0.025596776,-0.390025673,0,0,0,,0,95,95,63,1,3,TL,racidal,cursive,racidal_c.png,,,,,,
,,,,31836,001,2025-12-02_19h16.25.554,HW_LDT_1,2024.2.4,MacIntel,62.11180124,,,,,,,,,,,,,,,,,,,,,590.0922,590.2907,590.2907,590.7905,,,,,,,,,,,,,,6.421,1,,,,,,,,,,,,,,z,,,,,,,,,,,,,,,97,1,590.7911,597.224,z,1,6.421,,[],[],[],[],[],[],[],597.2241,599.2239,599.2239,600.5741,[],[],[],[],[],[],[],z,600.5742,600.5743,0.025596776,-0.390025673,0,0,0,,0,96,96,1,1,3,RL,bewoted,cursive,bewoted_c.png,1.3392,,,,,
,,,,31836,001,2025-12-02_19h16.25.554,HW_LDT_1,2024.2.4,MacIntel,62.11180124,,,,,,,,,,,,,,,,,,,,,600.5757,600.774,600.774,601.274,,,,,,,,,,,,,,1.6222,1,,,,,,,,,,,,,,m,,,,,,,,,,,,,,,98,0,601.2746,602.907,m,1,1.6222,,[],[],[],[],[],[],[],602.907,604.9075,604.9076,604.9078,[],[],[],[],[],[],[],,604.9079,604.9079,0.025596776,-0.390025673,0,0,0,,0,97,97,127,1,3,word,ORIGINAL,cursive,original_c.png,,,,,,
,,,,31836,001,2025-12-02_19h16.25.554,HW_LDT_1,2024.2.4,MacIntel,62.11180124,,,,,,,,,,,,,,,,,,,,,604.9093,605.1073,605.1074,605.6074,,,,,,,,,,,,,,7.3384,0,,,,,,,,,,,,,,z,,,,,,,,,,,,,,,99,0,605.608,612.9575,m,0,7.3384,0.0096,[],[],[],[],[],[],[],612.9575,614.9574,614.9575,614.9576,[],[],[],[],[],[],[],,614.9577,614.9578,0.025596776,-0.390025673,0,0,0,,0,98,98,69,1,3,TL,redisent,cursive,redisent_c.png,,,,,,
,,,,31836,001,2025-12-02_19h16.25.554,HW_LDT_1,2024.2.4,MacIntel,62.11180124,,,,,,,,,,,,,,,,,,,,,614.9591,615.1572,615.1573,615.6571,,,,,,,,,,,,,,1.3915,1,,,,,,,,,,,,,,z,,,,,,,,,,,,,,,100,0,615.6574,617.0574,z,1,1.3915,,[],[],[],[],[],[],[],617.0575,619.0573,619.0574,619.0576,[],[],[],[],[],[],[],,619.0576,619.0577,0.025596776,-0.390025673,0,0,0,,0,99,99,52,1,3,TL,locigal,cursive,locigal_c.png,,,,,,
,,,,31836,001,2025-12-02_19h16.25.554,HW_LDT_1,2024.2.4,MacIntel,62.11180124,,,,,,,,,,,,,,,,,,,,,619.0589,619.2573,619.2573,619.7573,,,,,,,,,,,,,,1.3865,1,,,,,,,,,,,,,,z,,,,,,,,,,,,,,,101,0,619.7579,621.1574,z,1,1.3865,,[],[],[],[],[],[],[],621.1575,623.1574,623.1574,623.1576,[],[],[],[],[],[],[],,623.1576,623.1577,0.025596776,-0.390025673,0,0,0,,0,100,100,76,1,3,TL,stogare,cursive,stogare_c.png,,,,,,
,,,,31836,001,2025-12-02_19h16.25.554,HW_LDT_1,2024.2.4,MacIntel,62.11180124,,,,,,,,,,,,,,,,,,,,,623.159,623.3573,623.3574,623.8575,,,,,,,,,,,,,,0.946,1,,,,,,,,,,,,,,z,,,,,,,,,,,,,,,102,0,623.8581,624.8073,z,1,0.946,,[],[],[],[],[],[],[],624.8075,626.8072,626.8072,626.8075,[],[],[],[],[],[],[],,626.8075,626.8076,0.025596776,-0.390025673,0,0,0,,0,101,101,49,1,3,TL,incidate,print,incidate_p.png,,,,,,
,,,,31836,001,2025-12-02_19h16.25.554,HW_LDT_1,2024.2.4,MacIntel,62.11180124,,,,,,,,,,,,,,,,,,,,,626.809,627.0074,627.0074,627.5073,,,,,,,,,,,,,,1.0304,1,,,,,,,,,,,,,,z,,,,,,,,,,,,,,,103,0,627.5078,628.5406,z,1,1.0304,,[],[],[],[],[],[],[],628.5407,630.5407,630.5407,630.5409,[],[],[],[],[],[],[],,630.541,630.5411,0.025596776,-0.390025673,0,0,0,,0,102,102,9,1,3,RL,docirant,print,docirant_p.png,,,,,,
,,,,31836,001,2025-12-02_19h16.25.554,HW_LDT_1,2024.2.4,MacIntel,62.11180124,,,,,,,,,,,,,,,,,,,,,630.5424,630.7408,630.7408,631.2406,,,,,,,,,,,,,,0.9492,1,,,,,,,,,,,,,,z,,,,,,,,,,,,,,,104,0,631.2412,632.1912,z,1,0.9492,,[],[],[],[],[],[],[],632.1913,634.1908,634.1909,634.1911,[],[],[],[],[],[],[],,634.1911,634.1912,0.025596776,-0.390025673,0,0,0,,0,103,103,33,1,3,TL,adsivory,print,adsivory_p.png,,,,,,
,,,,31836,001,2025-12-02_19h16.25.554,HW_LDT_1,2024.2.4,MacIntel,62.11180124,,,,,,,,,,,,,,,,,,,,,634.1923,634.3906,634.3907,634.8906,,,,,,,,,,,,,,0.8536,1,,,,,,,,,,,,,,z,,,,,,,,,,,,,,,105,0,634.8911,635.7576,z,1,0.8536,,[],[],[],[],[],[],[],635.7577,637.7571,637.7571,637.7573,[],[],[],[],[],[],[],,637.7574,637.7575,0.025596776,-0.390025673,0,0,0,,0,104,104,72,1,3,TL,senmitent,print,senmitent_p.png,,,,,,
,,,,31836,001,2025-12-02_19h16.25.554,HW_LDT_1,2024.2.4,MacIntel,62.11180124,,,,,,,,,,,,,,,,,,,,,637.7582,637.9573,637.9574,638.4573,,,,,,,,,,,,,,1.3542,1,,,,,,,,,,,,,,m,,,,,,,,,,,,,,,106,1,638.4579,639.8241,m,1,1.3542,,[],[],[],[],[],[],[],639.8242,641.8241,641.8242,643.0074,[],[],[],[],[],[],[],m,643.0075,643.0076,0.025596776,-0.390025673,0,0,0,,0,105,105,134,1,3,word,QUALIFY,print,qualify_p.png,1.1716,,,,,
,,,,31836,001,2025-12-02_19h16.25.554,HW_LDT_1,2024.2.4,MacIntel,62.11180124,,,,,,,,,,,,,,,,,,,,,643.0091,643.2073,643.2074,643.7072,,,,,,,,,,,,,,1.2968,1,,,,,,,,,,,,,,m,,,,,,,,,,,,,,,107,0,643.7079,645.0074,m,1,1.2968,,[],[],[],[],[],[],[],645.0075,647.0074,647.0074,647.0076,[],[],[],[],[],[],[],,647.0077,647.0077,0.025596776,-0.390025673,0,0,0,,0,106,106,81,1,3,word,ADVISORY,print,advisory_p.png,,,,,,
,,,,31836,001,2025-12-02_19h16.25.554,HW_LDT_1,2024.2.4,MacIntel,62.11180124,,,,,,,,,,,,,,,,,,,,,647.009,647.2072,647.2072,647.7073,,,,,,,,,,,,,,0.9379,1,,,,,,,,,,,,,,m,,,,,,,,,,,,,,,108,0,647.7079,648.6574,m,1,0.9379,,[],[],[],[],[],[],[],648.6575,650.6573,650.6574,650.6576,[],[],[],[],[],[],[],,650.6576,650.6577,0.025596776,-0.390025673,0,0,0,,0,107,107,141,1,3,word,RELIGION,print,religion_p.png,,,,,,
,,,,31836,001,2025-12-02_19h16.25.554,HW_LDT_1,2024.2.4,MacIntel,62.11180124,,,,,,,,,,,,,,,,,,,,,650.659,650.8573,650.8573,651.3566,,,,,,,,,,,,,,1.1898,1,,,,,,,,,,,,,,m,,,,,,,,,,,,,,,109,0,651.3571,652.5575,m,1,1.1898,,[],[],[],[],[],[],[],652.5576,654.5574,654.5574,654.5575,[],[],[],[],[],[],[],,654.5576,654.5576,0.025596776,-0.390025673,0,0,0,,0,108,108,148,1,3,word,SALINE,cursive,saline_c.png,,,,,,
,,,,31836,001,2025-12-02_19h16.25.554,HW_LDT_1,2024.2.4,MacIntel,62.11180124,,,,,,,,,,,,,,,,,,,,,654.5589,654.7575,654.7575,655.2573,,,,,,,,,,,,,,1.8708,1,,,,,,,,,,,,,,z,,,,,,,,,,,,,,,110,0,655.2579,657.1407,z,1,1.8708,,[],[],[],[],[],[],[],657.1409,659.1407,659.1408,659.1409,[],[],[],[],[],[],[],,659.141,659.1411,0.025596776,-0.390025673,0,0,0,,0,109,109,41,1,3,TL,crinimal,print,crinimal_p.png,,,,,,
,,,,31836,001,2025-12-02_19h16.25.554,HW_LDT_1,2024.2.4,MacIntel,62.11180124,,,,,,,,,,,,,,,,,,,,,659.1423,659.3406,659.3406,659.8408,,,,,,,,,,,,,,2.8709,1,,,,,,,,,,,,,,m,,,,,,,,,,,,,,,111,0,659.8414,662.7241,m,1,2.8709,,[],[],[],[],[],[],[],662.7242,664.7239,664.724,664.7242,[],[],[],[],[],[],[],,664.7242,664.7243,0.025596776,-0.390025673,0,0,0,,0,110,110,117,1,3,word,MARINE,cursive,marine_c.png,,,,,,
,,,,31836,001,2025-12-02_19h16.25.554,HW_LDT_1,2024.2.4,MacIntel,62.11180124,,,,,,,,,,,,,,,,,,,,,664.7255,664.924,664.9241,665.4239,,,,,,,,,,,,,,0.8823,1,,,,,,,,,,,,,,z,,,,,,,,,,,,,,,112,0,665.4245,666.3079,z,1,0.8823,,[],[],[],[],[],[],[],666.308,668.3073,668.3074,668.3075,[],[],[],[],[],[],[],,668.3076,668.3077,0.025596776,-0.390025673,0,0,0,,0,111,111,73,1,3,TL,speficic,print,speficic_p.png,,,,,,
,,,,31836,001,2025-12-02_19h16.25.554,HW_LDT_1,2024.2.4,MacIntel,62.11180124,,,,,,,,,,,,,,,,,,,,,668.3088,668.5073,668.5073,669.0074,,,,,,,,,,,,,,1.3884,1,,,,,,,,,,,,,,z,,,,,,,,,,,,,,,113,0,669.0081,670.4075,z,1,1.3884,,[],[],[],[],[],[],[],670.4076,672.4073,672.4073,672.4075,[],[],[],[],[],[],[],,672.4076,672.4076,0.025596776,-0.390025673,0,0,0,,0,112,112,5,1,3,RL,capefory,cursive,capefory_c.png,,,,,,
,,,,31836,001,2025-12-02_19h16.25.554,HW_LDT_1,2024.2.4,MacIntel,62.11180124,,,,,,,,,,,,,,,,,,,,,672.4089,672.6073,672.6074,673.1073,,,,,,,,,,,,,,0.8544,1,,,,,,,,,,,,,,z,,,,,,,,,,,,,,,114,0,673.1079,673.9742,z,1,0.8544,,[],[],[],[],[],[],[],673.9743,675.9739,675.974,675.9743,[],[],[],[],[],[],[],,675.9743,675.9744,0.025596776,-0.390025673,0,0,0,,0,113,113,50,1,3,TL,lirebal,print,lirebal_p.png,,,,,,
,,,,31836,001,2025-12-02_19h16.25.554,HW_LDT_1,2024.2.4,MacIntel,62.11180124,,,,,,,,,,,,,,,,,,,,,675.9756,676.1739,676.174,676.674,,,,,,,,,,,,,,1.0385,1,,,,,,,,,,,,,,m,,,,,,,,,,,,,,,115,1,676.6745,677.7241,m,1,1.0385,,[],[],[],[],[],[],[],677.7242,679.7232,679.7232,680.874,[],[],[],[],[],[],[],m,680.8741,680.8744,0.025596776,-0.390025673,0,0,0,,0,114,114,101,1,3,word,DELICATE,print,delicate_p.png,1.1392,,,,,
,,,,31836,001,2025-12-02_19h16.25.554,HW_LDT_1,2024.2.4,MacIntel,62.11180124,,,,,,,,,,,,,,,,,,,,,680.8755,681.0739,681.074,681.574,,,,,,,,,,,,,,0.9638,1,,,,,,,,,,,,,,m,,,,,,,,,,,,,,,116,0,681.5745,682.5406,m,1,0.9638,,[],[],[],[],[],[],[],682.5408,684.5406,684.5407,684.5409,[],[],[],[],[],[],[],,684.5409,684.541,0.025596776,-0.390025673,0,0,0,,0,115,115,146,1,3,word,RETIRE,print,retire_p.png,,,,,,
,,,,31836,001,2025-12-02_19h16.25.554,HW_LDT_1,2024.2.4,MacIntel,62.11180124,,,,,,,,,,,,,,,,,,,,,684.5424,684.7407,684.7408,685.2406,,,,,,,,,,,,,,0.8971,1,,,,,,,,,,,,,,z,,,,,,,,,,,,,,,117,0,685.2411,686.1407,z,1,0.8971,,[],[],[],[],[],[],[],686.1407,688.1406,688.1407,688.1409,[],[],[],[],[],[],[],,688.1409,688.141,0.025596776,-0.390025673,0,0,0,,0,116,116,7,1,3,RL,cobeny,print,cobeny_p.png,,,,,,
,,,,31836,001,2025-12-02_19h16.25.554,HW_LDT_1,2024.2.4,MacIntel,62.11180124,,,,,,,,,,,,,,,,,,,,,688.1423,688.3406,688.3407,688.8406,,,,,,,,,,,,,,0.9042,1,,,,,,,,,,,,,,m,,,,,,,,,,,,,,,118,0,688.8411,689.7574,m,1,0.9042,,[],[],[],[],[],[],[],689.7575,691.7573,691.7574,691.7576,[],[],[],[],[],[],[],,691.7577,691.7578,0.025596776,-0.390025673,0,0,0,,0,117,117,118,1,3,word,MEDICINE,print,medicine_p.png,,,,,,
,,,,31836,001,2025-12-02_19h16.25.554,HW_LDT_1,2024.2.4,MacIntel,62.11180124,,,,,,,,,,,,,,,,,,,,,691.7591,691.9574,691.9574,692.4572,,,,,,,,,,,,,,1.0875,1,,,,,,,,,,,,,,z,,,,,,,,,,,,,,,119,0,692.4578,693.5574,z,1,1.0875,,[],[],[],[],[],[],[],693.5575,695.5573,695.5574,695.5575,[],[],[],[],[],[],[],,695.5576,695.5577,0.025596776,-0.390025673,0,0,0,,0,118,118,23,1,3,RL,quakity,print,quakity_p.png,,,,,,
,,,,31836,001,2025-12-02_19h16.25.554,HW_LDT_1,2024.2.4,MacIntel,62.11180124,,,,,,,,,,,,,,,,,,,,,695.5585,695.7574,695.7574,696.2575,,,,,,,,,,,,,,1.0206,1,,,,,,,,,,,,,,z,,,,,,,,,,,,,,,120,0,696.258,697.2908,z,1,1.0206,,[],[],[],[],[],[],[],697.2908,699.2907,699.2907,699.2909,[],[],[],[],[],[],[],,699.291,699.2911,0.025596776,-0.390025673,0,0,0,,0,119,119,38,1,3,TL,carnidal,print,carnidal_p.png,,,,,,
,,,,31836,001,2025-12-02_19h16.25.554,HW_LDT_1,2024.2.4,MacIntel,62.11180124,,,,,,,,,,,,,,,,,,,,,699.2922,699.4905,699.4905,699.9906,,,,,,,,,,,,,,1.8649,1,,,,,,,,,,,,,,m,,,,,,,,,,,,,,,121,0,699.9912,701.8574,m,1,1.8649,,[],[],[],[],[],[],[],701.8575,703.8574,703.8574,703.8577,[],[],[],[],[],[],[],,703.8577,703.8578,0.025596776,-0.390025673,0,0,0,,0,120,120,114,1,3,word,LOCATE,cursive,locate_c.png,,,,,,
,,,,31836,001,2025-12-02_19h16.25.554,HW_LDT_1,2024.2.4,MacIntel,62.11180124,,,,,,,,,,,,,,,,,,,,,703.859,704.0574,704.0575,704.5573,,,,,,,,,,,,,,0.7966,1,,,,,,,,,,,,,,z,,,,,,,,,,,,,,,122,0,704.5579,705.3573,z,1,0.7966,,[],[],[],[],[],[],[],705.3574,707.3573,707.3573,707.3576,[],[],[],[],[],[],[],,707.3577,707.3577,0.025596776,-0.390025673,0,0,0,,0,121,121,56,1,3,TL,meromy,print,meromy_p.png,,,,,,
,,,,31836,001,2025-12-02_19h16.25.554,HW_LDT_1,2024.2.4,MacIntel,62.11180124,,,,,,,,,,,,,,,,,,,,,707.3589,707.5575,707.5575,708.0573,,,,,,,,,,,,,,0.988,1,,,,,,,,,,,,,,m,,,,,,,,,,,,,,,123,0,708.0579,709.0575,m,1,0.988,,[],[],[],[],[],[],[],709.0575,711.0573,711.0573,711.0575,[],[],[],[],[],[],[],,711.0576,711.0578,0.025596776,-0.390025673,0,0,0,,0,122,122,103,1,3,word,DISPUTE,print,dispute_p.png,,,,,,
,,,,31836,001,2025-12-02_19h16.25.554,HW_LDT_1,2024.2.4,MacIntel,62.11180124,,,,,,,,,,,,,,,,,,,,,711.059,711.2573,711.2573,711.7575,,,,,,,,,,,,,,1.6539,1,,,,,,,,,,,,,,m,,,,,,,,,,,,,,,124,0,711.7582,713.4241,m,1,1.6539,,[],[],[],[],[],[],[],713.4243,715.424,715.4241,715.4243,[],[],[],[],[],[],[],,715.4243,715.4244,0.025596776,-0.390025673,0,0,0,,0,123,123,153,1,3,word,STOLEN,cursive,stolen_c.png,,,,,,
,,,,31836,001,2025-12-02_19h16.25.554,HW_LDT_1,2024.2.4,MacIntel,62.11180124,,,,,,,,,,,,,,,,,,,,,715.4256,715.6239,715.6239,716.1241,,,,,,,,,,,,,,1.4035,1,,,,,,,,,,,,,,m,,,,,,,,,,,,,,,125,0,716.1248,717.5408,m,1,1.4035,,[],[],[],[],[],[],[],717.5409,719.5407,719.5407,719.541,[],[],[],[],[],[],[],,719.541,719.5411,0.025596776,-0.390025673,0,0,0,,0,124,124,98,1,3,word,CRIMINAL,print,criminal_p.png,,,,,,
,,,,31836,001,2025-12-02_19h16.25.554,HW_LDT_1,2024.2.4,MacIntel,62.11180124,,,,,,,,,,,,,,,,,,,,,719.5425,719.7407,719.7407,720.2406,,,,,,,,,,,,,,0.8211,1,,,,,,,,,,,,,,m,,,,,,,,,,,,,,,126,1,720.2412,721.0741,m,1,0.8211,,[],[],[],[],[],[],[],721.0742,723.0739,723.074,724.4741,[],[],[],[],[],[],[],m,724.4742,724.4743,0.025596776,-0.390025673,0,0,0,,0,125,125,129,1,3,word,PARENT,print,parent_p.png,1.3887,,,,,
,,,,31836,001,2025-12-02_19h16.25.554,HW_LDT_1,2024.2.4,MacIntel,62.11180124,,,,,,,,,,,,,,,,,,,,,724.4757,724.674,724.674,725.174,,,,,,,,,,,,,,0.9471,1,,,,,,,,,,,,,,m,,,,,,,,,,,,,,,127,0,725.1748,726.124,m,1,0.9471,,[],[],[],[],[],[],[],726.124,728.124,728.1241,728.1242,[],[],[],[],[],[],[],,728.1243,728.1244,0.025596776,-0.390025673,0,0,0,,0,126,126,152,1,3,word,SPECIMEN,print,specimen_p.png,,,,,,
,,,,31836,001,2025-12-02_19h16.25.554,HW_LDT_1,2024.2.4,MacIntel,62.11180124,,,,,,,,,,,,,,,,,,,,,728.1256,728.3239,728.324,728.8239,,,,,,,,,,,,,,1.4461,1,,,,,,,,,,,,,,m,,,,,,,,,,,,,,,128,0,728.8245,730.274,m,1,1.4461,,[],[],[],[],[],[],[],730.274,732.274,732.2741,732.2743,[],[],[],[],[],[],[],,732.2743,732.2745,0.025596776,-0.390025673,0,0,0,,0,127,127,149,1,3,word,SENATOR,cursive,senator_c.png,,,,,,
,,,,31836,001,2025-12-02_19h16.25.554,HW_LDT_1,2024.2.4,MacIntel,62.11180124,,,,,,,,,,,,,,,,,,,,,732.2757,732.474,732.474,732.9741,,,,,,,,,,,,,,3.0645,1,,,,,,,,,,,,,,z,,,,,,,,,,,,,,,129,1,732.9746,736.0405,z,1,3.0645,,[],[],[],[],[],[],[],736.0406,738.0406,738.0406,739.2241,[],[],[],[],[],[],[],z,739.2242,739.2242,0.025596776,-0.390025673,0,0,0,,0,128,128,59,1,3,TL,paficic,cursive,paficic_c.png,1.1817,,,,,
,,,,31836,001,2025-12-02_19h16.25.554,HW_LDT_1,2024.2.4,MacIntel,62.11180124,,,,,,,,,,,,,,,,,,,,,739.2254,739.4239,739.4239,739.9238,,,,,,,,,,,,,,1.9055,1,,,,,,,,,,,,,,z,,,,,,,,,,,,,,,130,0,739.9242,741.8408,z,1,1.9055,,[],[],[],[],[],[],[],741.8409,743.8406,743.8407,743.8409,[],[],[],[],[],[],[],,743.8409,743.8411,0.025596776,-0.390025673,0,0,0,,0,129,129,78,1,3,TL,vecolity,cursive,vecolity_c.png,,,,,,
,,,,31836,001,2025-12-02_19h16.25.554,HW_LDT_1,2024.2.4,MacIntel,62.11180124,,,,,,,,,,,,,,,,,,,,,743.8424,744.0407,744.0407,744.5406,,,,,,,,,,,,,,1.0474,1,,,,,,,,,,,,,,z,,,,,,,,,,,,,,,131,0,744.5412,745.5907,z,1,1.0474,,[],[],[],[],[],[],[],745.5908,747.5907,747.5908,747.591,[],[],[],[],[],[],[],,747.591,747.5912,0.025596776,-0.390025673,0,0,0,,0,130,130,62,1,3,TL,prodive,print,prodive_p.png,,,,,,
,,,,31836,001,2025-12-02_19h16.25.554,HW_LDT_1,2024.2.4,MacIntel,62.11180124,,,,,,,,,,,,,,,,,,,,,747.5924,747.7902,747.7903,748.2897,,,,,,,,,,,,,,0.7095,1,,,,,,,,,,,,,,m,,,,,,,,,,,,,,,132,1,748.2903,749.0074,m,1,0.7095,,[],[],[],[],[],[],[],749.0075,751.0073,751.0074,751.8899,[],[],[],[],[],[],[],m,751.89,751.89,0.025596776,-0.390025673,0,0,0,,0,131,131,135,1,3,word,QUALITY,print,quality_p.png,0.8794,,,,,
,,,,31836,001,2025-12-02_19h16.25.554,HW_LDT_1,2024.2.4,MacIntel,62.11180124,,,,,,,,,,,,,,,,,,,,,751.8912,752.0906,752.0907,752.5906,,,,,,,,,,,,,,2.9317,1,,,,,,,,,,,,,,m,,,,,,,,,,,,,,,133,0,752.5912,755.524,m,1,2.9317,,[],[],[],[],[],[],[],755.524,757.524,757.524,757.5242,[],[],[],[],[],[],[],,757.5243,757.5243,0.025596776,-0.390025673,0,0,0,,0,132,132,128,1,3,word,PACIFIC,cursive,pacific_c.png,,,,,,
,,,,31836,001,2025-12-02_19h16.25.554,HW_LDT_1,2024.2.4,MacIntel,62.11180124,,,,,,,,,,,,,,,,,,,,,757.5255,757.7239,757.724,758.224,,,,,,,,,,,,,,1.0874,1,,,,,,,,,,,,,,z,,,,,,,,,,,,,,,134,1,758.2246,759.3237,z,1,1.0874,,[],[],[],[],[],[],[],759.3238,761.324,761.3241,762.324,[],[],[],[],[],[],[],m,762.3241,762.3242,0.025596776,-0.390025673,0,0,0,,0,133,133,18,1,3,RL,onegator,print,onegator_p.png,0.9972,,,,,
,,,,31836,001,2025-12-02_19h16.25.554,HW_LDT_1,2024.2.4,MacIntel,62.11180124,,,,,,,,,,,,,,,,,,,,,762.3254,762.524,762.5241,763.0241,,,,,,,,,,,,,,2.5454,1,,,,,,,,,,,,,,m,,,,,,,,,,,,,,,135,0,763.0247,765.5733,m,1,2.5454,,[],[],[],[],[],[],[],765.5734,767.574,767.574,767.5743,[],[],[],[],[],[],[],,767.5743,767.5745,0.025596776,-0.390025673,0,0,0,,0,134,134,109,1,3,word,GRATEFUL,cursive,grateful_c.png,,,,,,
,,,,31836,001,2025-12-02_19h16.25.554,HW_LDT_1,2024.2.4,MacIntel,62.11180124,,,,,,,,,,,,,,,,,,,,,767.5757,767.774,767.774,768.2739,,,,,,,,,,,,,,0.7376,1,,,,,,,,,,,,,,m,,,,,,,,,,,,,,,136,0,768.2745,769.0241,m,1,0.7376,,[],[],[],[],[],[],[],769.0242,771.0239,771.024,771.0242,[],[],[],[],[],[],[],,771.0243,771.0243,0.025596776,-0.390025673,0,0,0,,0,135,135,105,1,3,word,EDITOR,print,editor_p.png,,,,,,
,,,,31836,001,2025-12-02_19h16.25.554,HW_LDT_1,2024.2.4,MacIntel,62.11180124,,,,,,,,,,,,,,,,,,,,,771.0255,771.224,771.2241,771.7241,,,,,,,,,,,,,,4.4404,1,,,,,,,,,,,,,,m,,,,,,,,,,,,,,,137,1,771.7246,776.1741,m,1,4.4404,,[],[],[],[],[],[],[],776.1741,778.1739,778.174,779.6571,[],[],[],[],[],[],[],z,779.6571,779.6573,0.025596776,-0.390025673,0,0,0,,0,136,136,123,1,3,word,MODERATE,cursive,moderate_c.png,1.4718,,,,,
,,,,31836,001,2025-12-02_19h16.25.554,HW_LDT_1,2024.2.4,MacIntel,62.11180124,,,,,,,,,,,,,,,,,,,,,779.6585,779.8574,779.8574,780.3573,,,,,,,,,,,,,,1.4804,1,,,,,,,,,,,,,,m,,,,,,,,,,,,,,,138,0,780.3578,781.8407,m,1,1.4804,,[],[],[],[],[],[],[],781.8407,783.8406,783.8407,783.8409,[],[],[],[],[],[],[],,783.841,783.841,0.025596776,-0.390025673,0,0,0,,0,137,137,95,1,3,word,COMEDY,print,comedy_p.png,,,,,,
,,,,31836,001,2025-12-02_19h16.25.554,HW_LDT_1,2024.2.4,MacIntel,62.11180124,,,,,,,,,,,,,,,,,,,,,783.8422,784.0406,784.0406,784.5406,,,,,,,,,,,,,,0.8323,0,,,,,,,,,,,,,,z,,,,,,,,,,,,,,,139,0,784.5411,785.3742,m,0,0.8323,,[],[],[],[],[],[],[],785.3743,787.3738,787.3739,787.374,[],[],[],[],[],[],[],,787.374,787.3741,0.025596776,-0.390025673,0,0,0,,0,138,138,31,1,3,RL,trilude,print,trilude_p.png,,,,,,
,,,,31836,001,2025-12-02_19h16.25.554,HW_LDT_1,2024.2.4,MacIntel,62.11180124,,,,,,,,,,,,,,,,,,,,,787.375,787.574,787.5741,788.0739,,,,,,,,,,,,,,0.7213,1,,,,,,,,,,,,,,m,,,,,,,,,,,,,,,140,1,788.0745,788.8074,m,1,0.7213,,[],[],[],[],[],[],[],788.8075,790.8073,790.8075,791.6907,[],[],[],[],[],[],[],m,791.6908,791.6911,0.025596776,-0.390025673,0,0,0,,0,139,139,104,1,3,word,DOMINANT,print,dominant_p.png,0.8718,,,,,
,,,,31836,001,2025-12-02_19h16.25.554,HW_LDT_1,2024.2.4,MacIntel,62.11180124,,,,,,,,,,,,,,,,,,,,,791.6922,791.8907,791.8907,792.3906,,,,,,,,,,,,,,0.6388,1,,,,,,,,,,,,,,m,,,,,,,,,,,,,,,141,0,792.3911,793.0407,m,1,0.6388,,[],[],[],[],[],[],[],793.0408,795.0406,795.0407,795.0408,[],[],[],[],[],[],[],,795.0409,795.041,0.025596776,-0.390025673,0,0,0,,0,140,140,96,1,3,word,CONSIDER,print,consider_p.png,,,,,,
,,,,31836,001,2025-12-02_19h16.25.554,HW_LDT_1,2024.2.4,MacIntel,62.11180124,,,,,,,,,,,,,,,,,,,,,795.0422,795.2407,795.2408,795.7407,,,,,,,,,,,,,,1.1487,1,,,,,,,,,,,,,,z,,,,,,,,,,,,,,,142,0,795.7413,796.891,z,1,1.1487,,[],[],[],[],[],[],[],796.8911,798.8906,798.8907,798.8909,[],[],[],[],[],[],[],,798.891,798.8911,0.025596776,-0.390025673,0,0,0,,0,141,141,51,1,3,TL,liretal,print,liretal_p.png,,,,,,
,,,,31836,001,2025-12-02_19h16.25.554,HW_LDT_1,2024.2.4,MacIntel,62.11180124,,,,,,,,,,,,,,,,,,,,,798.8922,799.0907,799.0907,799.5907,,,,,,,,,,,,,,1.0043,1,,,,,,,,,,,,,,m,,,,,,,,,,,,,,,143,1,799.5913,800.6075,m,1,1.0043,,[],[],[],[],[],[],[],800.6076,802.6073,802.6074,803.4907,[],[],[],[],[],[],[],m,803.4908,803.4909,0.025596776,-0.390025673,0,0,0,,0,142,142,137,1,3,word,RAPIDLY,print,rapidly_p.png,0.8715,,,,,
,,,,31836,001,2025-12-02_19h16.25.554,HW_LDT_1,2024.2.4,MacIntel,62.11180124,,,,,,,,,,,,,,,,,,,,,803.4922,803.6907,803.6907,804.1908,,,,,,,,,,,,,,4.6136,1,,,,,,,,,,,,,,z,,,,,,,,,,,,,,,144,0,804.1914,808.8066,z,1,4.6136,,[],[],[],[],[],[],[],808.8067,810.8066,810.8066,810.8068,[],[],[],[],[],[],[],,810.8069,810.8069,0.025596776,-0.390025673,0,0,0,,0,143,143,43,1,3,TL,dedace,cursive,dedace_c.png,,,,,,
,,,,31836,001,2025-12-02_19h16.25.554,HW_LDT_1,2024.2.4,MacIntel,62.11180124,,,,,,,,,,,,,,,,,,,,,810.8082,811.0074,811.0074,811.5073,,,,,,,,,,,,,,1.3863,1,,,,,,,,,,,,,,z,,,,,,,,,,,,,,,145,1,811.5079,812.9074,z,1,1.3863,,[],[],[],[],[],[],[],812.9075,814.9073,814.9073,816.3736,[],[],[],[],[],[],[],m,816.3737,816.3739,0.025596776,-0.390025673,0,0,0,,0,144,144,45,1,3,TL,dentisy,print,dentisy_p.png,1.4584,,,,,
,,,,31836,001,2025-12-02_19h16.25.554,HW_LDT_1,2024.2.4,MacIntel,62.11180124,,,,,,,,,,,,,,,,,,,,,816.3749,816.574,816.5741,817.074,,,,,,,,,,,,,,1.2202,1,,,,,,,,,,,,,,m,,,,,,,,,,,,,,,146,0,817.0746,818.3074,m,1,1.2202,,[],[],[],[],[],[],[],818.3075,820.3073,820.3074,820.3076,[],[],[],[],[],[],[],,820.3077,820.3077,0.025596776,-0.390025673,0,0,0,,0,145,145,93,1,3,word,CEREMONY,cursive,ceremony_c.png,,,,,,
,,,,31836,001,2025-12-02_19h16.25.554,HW_LDT_1,2024.2.4,MacIntel,62.11180124,,,,,,,,,,,,,,,,,,,,,820.309,820.5073,820.5074,821.0073,,,,,,,,,,,,,,0.5722,1,,,,,,,,,,,,,,m,,,,,,,,,,,,,,,147,0,821.0079,821.5908,m,1,0.5722,,[],[],[],[],[],[],[],821.5908,823.5906,823.5907,823.5909,[],[],[],[],[],[],[],,823.5909,823.591,0.025596776,-0.390025673,0,0,0,,0,146,146,130,1,3,word,POLICY,print,policy_p.png,,,,,,
,,,,31836,001,2025-12-02_19h16.25.554,HW_LDT_1,2024.2.4,MacIntel,62.11180124,,,,,,,,,,,,,,,,,,,,,823.5922,823.7906,823.7907,824.2907,,,,,,,,,,,,,,2.2215,1,,,,,,,,,,,,,,z,,,,,,,,,,,,,,,148,1,824.2912,826.5241,z,1,2.2215,,[],[],[],[],[],[],[],826.5242,828.5241,828.5241,829.4075,[],[],[],[],[],[],[],z,829.4075,829.4077,0.025596776,-0.390025673,0,0,0,,0,147,147,19,1,3,RL,opcifal,cursive,opcifal_c.png,0.8721,,,,,
,,,,31836,001,2025-12-02_19h16.25.554,HW_LDT_1,2024.2.4,MacIntel,62.11180124,,,,,,,,,,,,,,,,,,,,,829.409,829.6073,829.6073,830.1065,,,,,,,,,,,,,,1.5322,1,,,,,,,,,,,,,,m,,,,,,,,,,,,,,,149,1,830.1071,831.6407,m,1,1.5322,,[],[],[],[],[],[],[],831.6407,833.6406,833.6407,834.9747,[],[],[],[],[],[],[],z,834.9747,834.9748,0.025596776,-0.390025673,0,0,0,,0,148,148,89,1,3,word,CAPACITY,cursive,capacity_c.png,1.3331,,,,,
,,,,31836,001,2025-12-02_19h16.25.554,HW_LDT_1,2024.2.4,MacIntel,62.11180124,,,,,,,,,,,,,,,,,,,,,834.976,835.1739,835.174,835.674,,,,,,,,,,,,,,1.6899,1,,,,,,,,,,,,,,z,,,,,,,,,,,,,,,150,0,835.6746,837.3742,z,1,1.6899,,[],[],[],[],[],[],[],837.3743,839.3741,839.3741,839.3743,[],[],[],[],[],[],[],,839.3743,839.3745,0.025596776,-0.390025673,0,0,0,,0,149,149,77,1,3,TL,vadility,cursive,vadility_c.png,,,,,,
,,,,31836,001,2025-12-02_19h16.25.554,HW_LDT_1,2024.2.4,MacIntel,62.11180124,,,,,,,,,,,,,,,,,,,,,839.3757,839.574,839.574,840.074,,,,,,,,,,,,,,0.9369,1,,,,,,,,,,,,,,z,,,,,,,,,,,,,,,151,0,840.0745,841.0242,z,1,0.9369,,[],[],[],[],[],[],[],841.0243,843.024,843.024,843.0242,[],[],[],[],[],[],[],,843.0243,843.0244,0.025596776,-0.390025673,0,0,0,,0,150,150,53,1,3,TL,marnigal,print,marnigal_p.png,,,,,,
,,,,31836,001,2025-12-02_19h16.25.554,HW_LDT_1,2024.2.4,MacIntel,62.11180124,,,,,,,,,,,,,,,,,,,,,843.0256,843.2239,843.224,843.724,,,,,,,,,,,,,,0.7709,1,,,,,,,,,,,,,,z,,,,,,,,,,,,,,,152,0,843.7246,844.5074,z,1,0.7709,,[],[],[],[],[],[],[],844.5075,846.5073,846.5073,846.5075,[],[],[],[],[],[],[],,846.5076,846.5077,0.025596776,-0.390025673,0,0,0,,0,151,151,21,1,3,RL,potugar,print,potugar_p.png,,,,,,
,,,,31836,001,2025-12-02_19h16.25.554,HW_LDT_1,2024.2.4,MacIntel,62.11180124,,,,,,,,,,,,,,,,,,,,,846.5089,846.7073,846.7073,847.2073,,,,,,,,,,,,,,0.771,1,,,,,,,,,,,,,,m,,,,,,,,,,,,,,,153,0,847.2079,847.9907,m,1,0.771,,[],[],[],[],[],[],[],847.9908,849.9898,849.9898,849.9901,[],[],[],[],[],[],[],,849.9901,849.9902,0.025596776,-0.390025673,0,0,0,,0,152,152,85,1,3,word,BENEFIT,print,benefit_p.png,,,,,,
,,,,31836,001,2025-12-02_19h16.25.554,HW_LDT_1,2024.2.4,MacIntel,62.11180124,,,,,,,,,,,,,,,,,,,,,849.9914,850.1906,850.1907,850.6907,,,,,,,,,,,,,,0.738,1,,,,,,,,,,,,,,z,,,,,,,,,,,,,,,154,0,850.6912,851.4406,z,1,0.738,,[],[],[],[],[],[],[],851.4407,853.4403,853.4403,853.4405,[],[],[],[],[],[],[],,853.4406,853.4407,0.025596776,-0.390025673,0,0,0,,0,153,153,22,1,3,RL,procogal,print,procogal_p.png,,,,,,
,,,,31836,001,2025-12-02_19h16.25.554,HW_LDT_1,2024.2.4,MacIntel,62.11180124,,,,,,,,,,,,,,,,,,,,,853.4417,853.6407,853.6407,854.1408,,,,,,,,,,,,,,1.3212,1,,,,,,,,,,,,,,z,,,,,,,,,,,,,,,155,0,854.1414,855.4741,z,1,1.3212,,[],[],[],[],[],[],[],855.4741,857.474,857.474,857.4743,[],[],[],[],[],[],[],,857.4743,857.4744,0.025596776,-0.390025673,0,0,0,,0,154,154,44,1,3,TL,decilate,print,decilate_p.png,,,,,,
,,,,31836,001,2025-12-02_19h16.25.554,HW_LDT_1,2024.2.4,MacIntel,62.11180124,,,,,,,,,,,,,,,,,,,,,857.4757,857.6741,857.6741,858.1741,,,,,,,,,,,,,,0.9042,1,,,,,,,,,,,,,,m,,,,,,,,,,,,,,,156,0,858.1746,859.0908,m,1,0.9042,,[],[],[],[],[],[],[],859.0909,861.0907,861.0907,861.0909,[],[],[],[],[],[],[],,861.091,861.0911,0.025596776,-0.390025673,0,0,0,,0,155,155,156,1,3,word,TRIBUTE,print,tribute_p.png,,,,,,
,,,,31836,001,2025-12-02_19h16.25.554,HW_LDT_1,2024.2.4,MacIntel,62.11180124,,,,,,,,,,,,,,,,,,,,,861.0923,861.2906,861.2907,861.7907,,,,,,,,,,,,,,0.5567,1,,,,,,,,,,,,,,m,,,,,,,,,,,,,,,157,0,861.7912,862.3574,m,1,0.5567,,[],[],[],[],[],[],[],862.3574,864.3573,864.3574,864.3576,[],[],[],[],[],[],[],,864.3576,864.3577,0.025596776,-0.390025673,0,0,0,,0,156,156,112,1,3,word,LIBERAL,print,liberal_p.png,,,,,,
,,,,31836,001,2025-12-02_19h16.25.554,HW_LDT_1,2024.2.4,MacIntel,62.11180124,,,,,,,,,,,,,,,,,,,,,864.359,864.5574,864.5574,865.0573,,,,,,,,,,,,,,3.5715,0,,,,,,,,,,,,,,m,,,,,,,,,,,,,,,158,1,865.0577,868.6407,z,0,3.5715,,[],[],[],[],[],[],[],868.6407,870.6406,870.6407,871.4402,[],[],[],[],[],[],[],z,871.4404,871.4404,0.025596776,-0.390025673,0,0,0,,0,157,157,108,1,3,word,FORTUNE,cursive,fortune_c.png,0.7911,,,,,
,,,,31836,001,2025-12-02_19h16.25.554,HW_LDT_1,2024.2.4,MacIntel,62.11180124,,,,,,,,,,,,,,,,,,,,,871.4416,871.6407,871.6408,872.1406,,,,,,,,,,,,,,0.7741,1,,,,,,,,,,,,,,m,,,,,,,,,,,,,,,159,0,872.1412,872.9241,m,1,0.7741,,[],[],[],[],[],[],[],872.9242,874.924,874.9241,874.9243,[],[],[],[],[],[],[],,874.9243,874.9245,0.025596776,-0.390025673,0,0,0,,0,158,158,113,1,3,word,LITERAL,print,literal_p.png,,,,,,
,,,,31836,001,2025-12-02_19h16.25.554,HW_LDT_1,2024.2.4,MacIntel,62.11180124,,,,,,,,,,,,,,,,,,,,,874.9257,875.124,875.1241,875.6229,,,,,,,,,,,,,,0.8832,1,,,,,,,,,,,,,,m,,,,,,,,,,,,,,,160,0,875.6237,876.5081,m,1,0.8832,,[],[],[],[],[],[],[],876.5082,878.5071,878.5072,878.5074,[],[],[],[],[],[],[],,878.5074,878.5074,0.025596776,-0.390025673,0,0,0,,0,159,159,157,1,3,word,VALIDITY,cursive,validity_c.png,,,,,,
,,,,31836,001,2025-12-02_19h16.25.554,HW_LDT_1,2024.2.4,MacIntel,62.11180124,,,,,,,,,,,,,,,,,,,,,,,,,,,,,,,,,,,,,,,,,,,,,,,,,,,,,,,,,,,,,,,,,,,,,,,,,,,,,,,,,,,,,,,,,,,,,,,,,,,,,,,,,,,,,,,,,,,,,878.5137,883.5076
