counterbalance_lists.group,counterbalance_lists.remaining,get_list.started,get_list.stopped,participant,session,date,expName,psychopyVersion,OS,frameRate,Instructions.started,Instructions.stopped,key_resp.keys,key_resp.rt,key_resp.duration,instr_done_touch.x,instr_done_touch.y,instr_done_touch.leftButton,instr_done_touch.midButton,instr_done_touch.rightButton,start_instr.thisRepN,start_instr.thisTrialN,start_instr.thisN,start_instr.thisIndex,start_instr.ran,pageN,phase,instruct_text,has_image,instruct_image,showProgress.started,showProgress.stopped,fix.started,fix.stopped,prac.started,prac.stopped,response.keys,response.corr,response.rt,response.duration,touch_resp.x,touch_resp.y,touch_resp.leftButton,touch_resp.midButton,touch_resp.rightButton,touch_resp.time,touch_resp.clicked_name,rt,corr,feedback.started,feedback.stopped,trials.thisRepN,trials.thisTrialN,trials.thisN,trials.thisIndex,trials.ran,TrialID,StimulusType,Condition,PrimeDuration,Prime,Target,corrAns,Instructions_expt.started,Instructions_expt.stopped,key_resp_3.keys,key_resp_3.rt,key_resp_3.duration,instr_done_touch_3.x,instr_done_touch_3.y,instr_done_touch_3.leftButton,instr_done_touch_3.midButton,instr_done_touch_3.rightButton,instr_experiment.thisRepN,instr_experiment.thisTrialN,instr_experiment.thisN,instr_experiment.thisIndex,instr_experiment.ran,trialID,flag,maintask.started,maintask.stopped,key_resp_2.keys,key_resp_2.corr,key_resp_2.rt,key_resp_2.duration,targ_click.x,targ_click.y,targ_click.leftButton,targ_click.midButton,targ_click.rightButton,targ_click.time,targ_click.clicked_name,ITI.started,ITI.stopped,probe.started,probe.stopped,click_probe.x,click_probe.y,click_probe.leftButton,click_probe.midButton,click_probe.rightButton,click_probe.time,click_probe.clicked_name,key_resp_probe.keys,Break.started,Break.stopped,break_done_touch.x,break_done_touch.y,break_done_touch.leftButton,break_done_touch.midButton,break_done_touch.rightButton,break_done_keyboard.keys,list2_trials.thisRepN,list2_trials.thisTrialN,list2_trials.thisN,list2_trials.thisIndex,list2_trials.ran,list_id,item_type,string,font,stim_file,key_resp_probe.rt,key_resp_probe.duration,break_done_keyboard.rt,break_done_keyboard.duration,End.started,End.stopped
list2,,0.5096,0.5098,31842,001,2025-10-19_11h59.49.312,HW_LDT_1,2024.2.4,Win32,61.72839506,,,,,,,,,,,,,,,,,,,,,,,,,,,,,,,,,,,,,,,,,,,,,,,,,,,,,,,,,,,,,,,,,,,,,,,,,,,,,,,,,,,,,,,,,,,,,,,,,,,,,,,,,,,,,,,,,,,,,,,
,,,,31842,001,2025-10-19_11h59.49.312,HW_LDT_1,2024.2.4,Win32,61.72839506,0.5266,21.113,space,20.5491,,-0.005,-0.3825,0,0,0,0,0,0,0,1,1,instructions,"INSTRUCTIONS
At the start of each trial, look at the plus sign  (+) in the center of the screen.  This tells you that a trial is about to begin and where to look. Second, the plus sign will disappear and a string of letters will appear. Your task is to determine if the string of letters is a word or not. If the item is a word press the M key (on keyboard)  or touch the word button (phone/tablet).  If the item is not a word,  press the  Z key (on keyboard)  or touch the nonword button (on phone/tablet). The items will be presented for a short time. 
Press the space bar or touch  continue.",0,,,,,,,,,,,,,,,,,,,,,,,,,,,,,,,,,,,,,,,,,,,,,,,,,,,,,,,,,,,,,,,,,,,,,,,,,,,,,,,,,,,,,,,,,,,,,,,,,,,,
,,,,31842,001,2025-10-19_11h59.49.312,HW_LDT_1,2024.2.4,Win32,61.72839506,21.1152,27.6894,space,6.5521,,-0.005,-0.3825,0,0,0,0,1,1,1,1,2,instructions,"If your device has a keyboard, press the 'Z' key for nonwords and the 'M' key for words.





Press the space bar or touch the button below to continue.",0,keyboard-example.gif,,,,,,,,,,,,,,,,,,,,,,,,,,,,,,,,,,,,,,,,,,,,,,,,,,,,,,,,,,,,,,,,,,,,,,,,,,,,,,,,,,,,,,,,,,,,,,,,,,,
,,,,31842,001,2025-10-19_11h59.49.312,HW_LDT_1,2024.2.4,Win32,61.72839506,27.6908,29.5945,space,1.8821,,0.151666718,-0.2725,0,0,0,0,2,2,2,1,3,instructions,"If you are using a touchscreen only device, use the buttons on the screen. Do not use the mouse.





Press the space bar or touch the button below to continue.",0,touchscreen-example.gif,,,,,,,,,,,,,,,,,,,,,,,,,,,,,,,,,,,,,,,,,,,,,,,,,,,,,,,,,,,,,,,,,,,,,,,,,,,,,,,,,,,,,,,,,,,,,,,,,,,
,,,,31842,001,2025-10-19_11h59.49.312,HW_LDT_1,2024.2.4,Win32,61.72839506,29.596,35.2058,space,5.5852,,0.151666718,-0.2725,0,0,0,0,3,3,3,1,4,instructions,"It is very important that you respond as quickly and accurately as possible, as each letter string will only be on the screen for two seconds. If you do not respond within this time, the message 'Too slow!' will be displayed and the experiment will progress to the next letter string. The first 20 trials will be practice trials and you will receive feedback on your answers. 

Press the space bar or touch the button below to start the practice trials.",0,,,,,,,,,,,,,,,,,,,,,,,,,,,,,,,,,,,,,,,,,,,,,,,,,,,,,,,,,,,,,,,,,,,,,,,,,,,,,,,,,,,,,,,,,,,,,,,,,,,,
,,,,31842,001,2025-10-19_11h59.49.312,HW_LDT_1,2024.2.4,Win32,61.72839506,,,,,,,,,,,,,,,,,,,,,35.2324,35.4056,35.4058,35.9058,35.906,37.6393,z,0,1.7026,,[],[],[],[],[],[],[],1.7026,0,37.6397,38.139,0,0,0,4,1,1005,WORD,UN,33,abound,SQUEAK,m,,,,,,,,,,,,,,,,,,,,,,,,,,,,,,,,,,,,,,,,,,,,,,,,,,,,,,,,,,,,,,,,,,
,,,,31842,001,2025-10-19_11h59.49.312,HW_LDT_1,2024.2.4,Win32,61.72839506,,,,,,,,,,,,,,,,,,,,,38.1405,38.3387,38.3388,38.8388,38.8402,39.6556,m,1,0.8003,,[],[],[],[],[],[],[],0.8003,1,39.6562,40.1554,0,1,1,0,1,1001,WORD,"ID",33,utopia,UTOPIA,m,,,,,,,,,,,,,,,,,,,,,,,,,,,,,,,,,,,,,,,,,,,,,,,,,,,,,,,,,,,,,,,,,,
,,,,31842,001,2025-10-19_11h59.49.312,HW_LDT_1,2024.2.4,Win32,61.72839506,,,,,,,,,,,,,,,,,,,,,40.1564,40.3553,40.3553,40.8553,40.8566,41.3549,m,1,0.488,,[],[],[],[],[],[],[],0.488,1,41.355,41.8561,0,2,2,2,1,1003,WORD,"ID",16,almond,ALMOND,m,,,,,,,,,,,,,,,,,,,,,,,,,,,,,,,,,,,,,,,,,,,,,,,,,,,,,,,,,,,,,,,,,,
,,,,31842,001,2025-10-19_11h59.49.312,HW_LDT_1,2024.2.4,Win32,61.72839506,,,,,,,,,,,,,,,,,,,,,41.8589,42.0547,42.0548,42.5551,42.5561,43.0889,m,1,0.5146,,[],[],[],[],[],[],[],0.5146,1,43.089,43.588,0,3,3,6,1,1007,WORD,UN,16,tropic,ZOMBIE,m,,,,,,,,,,,,,,,,,,,,,,,,,,,,,,,,,,,,,,,,,,,,,,,,,,,,,,,,,,,,,,,,,,
,,,,31842,001,2025-10-19_11h59.49.312,HW_LDT_1,2024.2.4,Win32,61.72839506,,,,,,,,,,,,,,,,,,,,,43.589,43.7881,43.7882,44.2765,44.2774,45.0945,z,1,0.8014,,[],[],[],[],[],[],[],0.8014,1,45.0945,45.5938,0,4,4,8,1,1009,NW,"ID",33,aslert,ASLERT,z,,,,,,,,,,,,,,,,,,,,,,,,,,,,,,,,,,,,,,,,,,,,,,,,,,,,,,,,,,,,,,,,,,
,,,,31842,001,2025-10-19_11h59.49.312,HW_LDT_1,2024.2.4,Win32,61.72839506,,,,,,,,,,,,,,,,,,,,,45.5944,45.7935,45.7935,46.2928,46.2933,47.0774,z,1,0.7677,,[],[],[],[],[],[],[],0.7677,1,47.0775,47.5766,0,5,5,13,1,1014,NW,UN,33,winfer,ROUPET,z,,,,,,,,,,,,,,,,,,,,,,,,,,,,,,,,,,,,,,,,,,,,,,,,,,,,,,,,,,,,,,,,,,
,,,,31842,001,2025-10-19_11h59.49.312,HW_LDT_1,2024.2.4,Win32,61.72839506,,,,,,,,,,,,,,,,,,,,,47.5778,47.7767,47.7768,48.2769,48.2788,49.0946,z,1,0.8015,,[],[],[],[],[],[],[],0.8015,1,49.0947,49.5942,0,6,6,9,1,1010,NW,"ID",33,fariny,FARINY,z,,,,,,,,,,,,,,,,,,,,,,,,,,,,,,,,,,,,,,,,,,,,,,,,,,,,,,,,,,,,,,,,,,
,,,,31842,001,2025-10-19_11h59.49.312,HW_LDT_1,2024.2.4,Win32,61.72839506,,,,,,,,,,,,,,,,,,,,,49.5953,49.7946,49.7946,50.2932,50.2938,50.9277,z,1,0.617,,[],[],[],[],[],[],[],0.617,1,50.9277,51.4264,0,7,7,10,1,1011,NW,"ID",16,inlade,INLADE,z,,,,,,,,,,,,,,,,,,,,,,,,,,,,,,,,,,,,,,,,,,,,,,,,,,,,,,,,,,,,,,,,,,
,,,,31842,001,2025-10-19_11h59.49.312,HW_LDT_1,2024.2.4,Win32,61.72839506,,,,,,,,,,,,,,,,,,,,,51.4278,51.6269,51.6269,52.1266,52.1273,52.7616,m,1,0.6171,,[],[],[],[],[],[],[],0.6171,1,52.7618,53.2598,0,8,8,5,1,1006,WORD,UN,33,frenzy,OBTAIN,m,,,,,,,,,,,,,,,,,,,,,,,,,,,,,,,,,,,,,,,,,,,,,,,,,,,,,,,,,,,,,,,,,,
,,,,31842,001,2025-10-19_11h59.49.312,HW_LDT_1,2024.2.4,Win32,61.72839506,,,,,,,,,,,,,,,,,,,,,53.2605,53.4604,53.4604,53.9579,53.9588,54.6381,z,1,0.6576,,[],[],[],[],[],[],[],0.6576,1,54.6383,55.139,0,9,9,11,1,1012,NW,"ID",16,rashet,RASHET,z,,,,,,,,,,,,,,,,,,,,,,,,,,,,,,,,,,,,,,,,,,,,,,,,,,,,,,,,,,,,,,,,,,
,,,,31842,001,2025-10-19_11h59.49.312,HW_LDT_1,2024.2.4,Win32,61.72839506,,,,,,,,,,,,,,,,,,,,,55.1399,55.3385,55.3386,55.8381,55.839,56.4212,m,1,0.5588,,[],[],[],[],[],[],[],0.5588,1,56.4213,56.9215,0,10,10,1,1,1002,WORD,"ID",33,adjust,ADJUST,m,,,,,,,,,,,,,,,,,,,,,,,,,,,,,,,,,,,,,,,,,,,,,,,,,,,,,,,,,,,,,,,,,,
,,,,31842,001,2025-10-19_11h59.49.312,HW_LDT_1,2024.2.4,Win32,61.72839506,,,,,,,,,,,,,,,,,,,,,56.9227,57.1212,57.1213,57.6213,57.6224,58.4377,m,1,0.7843,,[],[],[],[],[],[],[],0.7843,1,58.4377,58.9375,0,11,11,7,1,1008,WORD,UN,16,hurdle,VOLUME,m,,,,,,,,,,,,,,,,,,,,,,,,,,,,,,,,,,,,,,,,,,,,,,,,,,,,,,,,,,,,,,,,,,
,,,,31842,001,2025-10-19_11h59.49.312,HW_LDT_1,2024.2.4,Win32,61.72839506,,,,,,,,,,,,,,,,,,,,,58.9388,59.1379,59.1379,59.6374,59.6383,60.3884,z,1,0.7235,,[],[],[],[],[],[],[],0.7235,1,60.3885,60.8931,0,12,12,12,1,1013,NW,UN,33,adveil,SPRINY,z,,,,,,,,,,,,,,,,,,,,,,,,,,,,,,,,,,,,,,,,,,,,,,,,,,,,,,,,,,,,,,,,,,
,,,,31842,001,2025-10-19_11h59.49.312,HW_LDT_1,2024.2.4,Win32,61.72839506,,,,,,,,,,,,,,,,,,,,,60.8946,61.0877,61.0878,61.5878,61.589,62.304,z,0,0.6846,,[],[],[],[],[],[],[],0.6846,0,62.3047,62.8044,0,13,13,3,1,1004,WORD,"ID",16,matrix,MATRIX,m,,,,,,,,,,,,,,,,,,,,,,,,,,,,,,,,,,,,,,,,,,,,,,,,,,,,,,,,,,,,,,,,,,
,,,,31842,001,2025-10-19_11h59.49.312,HW_LDT_1,2024.2.4,Win32,61.72839506,,,,,,,,,,,,,,,,,,,,,62.8054,63.0048,63.0049,63.504,63.5048,64.2376,z,1,0.7013,,[],[],[],[],[],[],[],0.7013,1,64.2387,64.7382,0,14,14,14,1,1015,NW,UN,16,miaber,THRALE,z,,,,,,,,,,,,,,,,,,,,,,,,,,,,,,,,,,,,,,,,,,,,,,,,,,,,,,,,,,,,,,,,,,
,,,,31842,001,2025-10-19_11h59.49.312,HW_LDT_1,2024.2.4,Win32,61.72839506,,,,,,,,,,,,,,,,,,,,,64.7392,64.9373,64.9374,65.4376,65.4391,66.3379,z,1,0.8684,,[],[],[],[],[],[],[],0.8684,1,66.3379,66.8372,0,15,15,15,1,1016,NW,UN,16,mushed,WHAISE,z,,,,,,,,,,,,,,,,,,,,,,,,,,,,,,,,,,,,,,,,,,,,,,,,,,,,,,,,,,,,,,,,,,
,,,,31842,001,2025-10-19_11h59.49.312,HW_LDT_1,2024.2.4,Win32,61.72839506,,,,,,,,,,,,,,,,1,end_of_practice,"You have completed the practice trials. During the experimental trials, you will not receive feedback. On some trials you will be asked to report whether the item you just saw was in cursive or print. 
Before you begin, please ensure that you are in a comfortable and quiet location and will not be disturbed for about 15 minutes, as we cannot use your data if you do not complete all the trials. 
 When you are ready to start the experimental trials, please press space or touch the button below.",,,,,,,,,,,,,,,,,,,,,,,,,,,,,,,,,,,,66.8429,70.4876,space,3.6153,,0.151666718,-0.2725,0,0,0,0,0,0,0,1,,,,,,,,,,,,,,,,,,,,,,,,,,,,,,,,,,,,,,,,,,,,,,,,,,,
,,,,31842,001,2025-10-19_11h59.49.312,HW_LDT_1,2024.2.4,Win32,61.72839506,,,,,,,,,,,,,,,,,,,,,70.5058,70.687,70.6871,71.1873,,,,,,,,,,,,,,1.3372,1,,,,,,,,,,,,,,z,,,,,,,,,,,,,,,,1,0,71.1881,72.5377,z,1,1.3372,,[],[],[],[],[],[],[],72.538,74.5365,74.5367,74.5388,[],[],[],[],[],[],[],,74.5388,74.5411,0.151666718,-0.2725,0,0,0,,0,0,0,26,1,2,RL,retupar,cursive,retupar_c.png,,,,,,
,,,,31842,001,2025-10-19_11h59.49.312,HW_LDT_1,2024.2.4,Win32,61.72839506,,,,,,,,,,,,,,,,,,,,,74.5416,74.7366,74.7366,75.2365,,,,,,,,,,,,,,1.5055,1,,,,,,,,,,,,,,m,,,,,,,,,,,,,,,,2,0,75.2369,76.753,m,1,1.5055,,[],[],[],[],[],[],[],76.753,78.753,78.753,78.7532,[],[],[],[],[],[],[],,78.7532,78.7532,0.149166718,-0.28,0,0,0,,0,1,1,91,1,2,word,CARDINAL,cursive,cardinal_c.png,,,,,,
,,,,31842,001,2025-10-19_11h59.49.312,HW_LDT_1,2024.2.4,Win32,61.72839506,,,,,,,,,,,,,,,,,,,,,78.754,78.9537,78.9538,79.453,,,,,,,,,,,,,,0.8756,1,,,,,,,,,,,,,,z,,,,,,,,,,,,,,,,3,1,79.4533,80.3363,z,1,0.8756,,[],[],[],[],[],[],[],80.3365,82.3364,82.3365,84.92,[],[],[],[],[],[],[],m,84.9202,84.9203,0.149166718,-0.2825,0,0,0,,0,2,2,1,1,2,RL,caleberia,print,caleberia_p.png,2.58,,,,,
,,,,31842,001,2025-10-19_11h59.49.312,HW_LDT_1,2024.2.4,Win32,61.72839506,,,,,,,,,,,,,,,,,,,,,84.9212,85.1203,85.1203,85.6191,,,,,,,,,,,,,,0.8382,1,,,,,,,,,,,,,,z,,,,,,,,,,,,,,,,4,0,85.6193,86.4694,z,1,0.8382,,[],[],[],[],[],[],[],86.4696,88.4693,88.4693,88.4696,[],[],[],[],[],[],[],,88.4696,88.4697,0.149166718,-0.2825,0,0,0,,0,3,3,55,1,2,TL,lotace,print,lotace_p.png,,,,,,
,,,,31842,001,2025-10-19_11h59.49.312,HW_LDT_1,2024.2.4,Win32,61.72839506,,,,,,,,,,,,,,,,,,,,,88.4708,88.6706,88.6707,89.169,,,,,,,,,,,,,,1.031,1,,,,,,,,,,,,,,z,,,,,,,,,,,,,,,,5,0,89.1692,90.2026,z,1,1.031,,[],[],[],[],[],[],[],90.2026,92.203,92.203,92.2032,[],[],[],[],[],[],[],,92.2032,92.2033,0.149166718,-0.2825,0,0,0,,0,4,4,60,1,2,TL,molibe,print,molibe_p.png,,,,,,
,,,,31842,001,2025-10-19_11h59.49.312,HW_LDT_1,2024.2.4,Win32,61.72839506,,,,,,,,,,,,,,,,,,,,,92.2039,92.4027,92.4027,92.9023,,,,,,,,,,,,,,1.109,1,,,,,,,,,,,,,,z,,,,,,,,,,,,,,,,6,0,92.9027,94.0193,z,1,1.109,,[],[],[],[],[],[],[],94.0194,96.0192,96.0193,96.0194,[],[],[],[],[],[],[],,96.0194,96.0195,0.149166718,-0.2825,0,0,0,,0,5,5,44,1,2,TL,catipal,cursive,catipal_c.png,,,,,,
,,,,31842,001,2025-10-19_11h59.49.312,HW_LDT_1,2024.2.4,Win32,61.72839506,,,,,,,,,,,,,,,,,,,,,96.0201,96.2195,96.2195,96.719,,,,,,,,,,,,,,0.8806,1,,,,,,,,,,,,,,z,,,,,,,,,,,,,,,,7,0,96.7193,97.6026,z,1,0.8806,,[],[],[],[],[],[],[],97.6027,99.6022,99.6024,99.6026,[],[],[],[],[],[],[],,99.6026,99.6028,0.149166718,-0.2825,0,0,0,,0,6,6,3,1,2,RL,capefory,print,capefory_p.png,,,,,,
,,,,31842,001,2025-10-19_11h59.49.312,HW_LDT_1,2024.2.4,Win32,61.72839506,,,,,,,,,,,,,,,,,,,,,99.6039,99.802,99.802,100.3028,,,,,,,,,,,,,,0.6412,1,,,,,,,,,,,,,,m,,,,,,,,,,,,,,,,8,0,100.3032,100.9521,m,1,0.6412,,[],[],[],[],[],[],[],100.9521,102.9517,102.9518,102.952,[],[],[],[],[],[],[],,102.952,102.952,0.149166718,-0.2825,0,0,0,,0,7,7,81,1,2,word,ADVISORY,print,advisory_p.png,,,,,,
,,,,31842,001,2025-10-19_11h59.49.312,HW_LDT_1,2024.2.4,Win32,61.72839506,,,,,,,,,,,,,,,,,,,,,102.9529,103.1522,103.1522,103.6518,,,,,,,,,,,,,,0.7885,1,,,,,,,,,,,,,,z,,,,,,,,,,,,,,,,9,0,103.6523,104.4519,z,1,0.7885,,[],[],[],[],[],[],[],104.4521,106.4515,106.4515,106.4517,[],[],[],[],[],[],[],,106.4517,106.4517,0.149166718,-0.2825,0,0,0,,0,8,8,39,1,2,TL,aminal,print,aminal_p.png,,,,,,
,,,,31842,001,2025-10-19_11h59.49.312,HW_LDT_1,2024.2.4,Win32,61.72839506,,,,,,,,,,,,,,,,,,,,,106.4524,106.6517,106.6517,107.1515,,,,,,,,,,,,,,0.7869,1,,,,,,,,,,,,,,z,,,,,,,,,,,,,,,,10,0,107.1518,107.9514,z,1,0.7869,,[],[],[],[],[],[],[],107.9514,109.9515,109.9515,109.9516,[],[],[],[],[],[],[],,109.9516,109.9517,0.149166718,-0.2825,0,0,0,,0,9,9,13,1,2,RL,helicage,print,helicage_p.png,,,,,,
,,,,31842,001,2025-10-19_11h59.49.312,HW_LDT_1,2024.2.4,Win32,61.72839506,,,,,,,,,,,,,,,,,,,,,109.9524,110.1511,110.1512,110.6518,,,,,,,,,,,,,,1.6793,1,,,,,,,,,,,,,,z,,,,,,,,,,,,,,,,11,1,110.6522,112.3355,z,1,1.6793,,[],[],[],[],[],[],[],112.3355,114.3356,114.3357,116.0185,[],[],[],[],[],[],[],z,116.0185,116.0186,0.149166718,-0.2825,0,0,0,,0,10,10,5,1,2,RL,clisimal,cursive,clisimal_c.png,1.6727,,,,,
,,,,31842,001,2025-10-19_11h59.49.312,HW_LDT_1,2024.2.4,Win32,61.72839506,,,,,,,,,,,,,,,,,,,,,116.0194,116.2177,116.2178,116.718,,,,,,,,,,,,,,1.1416,1,,,,,,,,,,,,,,m,,,,,,,,,,,,,,,,12,0,116.7182,117.8681,m,1,1.1416,,[],[],[],[],[],[],[],117.8682,119.8682,119.8683,119.8684,[],[],[],[],[],[],[],,119.8684,119.8685,0.149166718,-0.2825,0,0,0,,0,11,11,86,1,2,word,BESIDE,cursive,beside_c.png,,,,,,
,,,,31842,001,2025-10-19_11h59.49.312,HW_LDT_1,2024.2.4,Win32,61.72839506,,,,,,,,,,,,,,,,,,,,,119.8703,120.0678,120.0678,120.5673,,,,,,,,,,,,,,1.1713,1,,,,,,,,,,,,,,z,,,,,,,,,,,,,,,,13,0,120.5677,121.7511,z,1,1.1713,,[],[],[],[],[],[],[],121.7511,123.7508,123.7508,123.7509,[],[],[],[],[],[],[],,123.751,123.7511,0.149166718,-0.2825,0,0,0,,0,12,12,51,1,2,TL,etidor,cursive,etidor_c.png,,,,,,
,,,,31842,001,2025-10-19_11h59.49.312,HW_LDT_1,2024.2.4,Win32,61.72839506,,,,,,,,,,,,,,,,,,,,,123.7519,123.951,123.951,124.4515,,,,,,,,,,,,,,1.0395,1,,,,,,,,,,,,,,m,,,,,,,,,,,,,,,,14,0,124.4518,125.5003,m,1,1.0395,,[],[],[],[],[],[],[],125.5004,127.5003,127.5003,127.5005,[],[],[],[],[],[],[],,127.5005,127.5005,0.149166718,-0.2825,0,0,0,,0,13,13,152,1,2,word,SPECIMEN,print,specimen_p.png,,,,,,
,,,,31842,001,2025-10-19_11h59.49.312,HW_LDT_1,2024.2.4,Win32,61.72839506,,,,,,,,,,,,,,,,,,,,,127.5013,127.7008,127.7009,128.2012,,,,,,,,,,,,,,0.8042,1,,,,,,,,,,,,,,z,,,,,,,,,,,,,,,,15,0,128.2016,129.0173,z,1,0.8042,,[],[],[],[],[],[],[],129.0173,131.0168,131.0169,131.017,[],[],[],[],[],[],[],,131.017,131.0173,0.149166718,-0.2825,0,0,0,,0,14,14,31,1,2,RL,spetisic,print,spetisic_p.png,,,,,,
,,,,31842,001,2025-10-19_11h59.49.312,HW_LDT_1,2024.2.4,Win32,61.72839506,,,,,,,,,,,,,,,,,,,,,131.0184,131.2169,131.217,131.7172,,,,,,,,,,,,,,0.6428,1,,,,,,,,,,,,,,m,,,,,,,,,,,,,,,,16,0,131.7175,132.367,m,1,0.6428,,[],[],[],[],[],[],[],132.3671,134.3668,134.3668,134.3669,[],[],[],[],[],[],[],,134.3669,134.3669,0.149166718,-0.2825,0,0,0,,0,15,15,118,1,2,word,MEDICINE,print,medicine_p.png,,,,,,
,,,,31842,001,2025-10-19_11h59.49.312,HW_LDT_1,2024.2.4,Win32,61.72839506,,,,,,,,,,,,,,,,,,,,,134.3676,134.5666,134.5667,135.0671,,,,,,,,,,,,,,0.6558,1,,,,,,,,,,,,,,m,,,,,,,,,,,,,,,,17,0,135.0673,135.7334,m,1,0.6558,,[],[],[],[],[],[],[],135.7336,137.7336,137.7336,137.7336,[],[],[],[],[],[],[],,137.7336,137.7337,0.149166718,-0.2825,0,0,0,,0,16,16,87,1,2,word,CAFETERIA,print,cafeteria_p.png,,,,,,
,,,,31842,001,2025-10-19_11h59.49.312,HW_LDT_1,2024.2.4,Win32,61.72839506,,,,,,,,,,,,,,,,,,,,,137.7345,137.9335,137.9336,138.4332,,,,,,,,,,,,,,0.7622,1,,,,,,,,,,,,,,m,,,,,,,,,,,,,,,,18,0,138.4335,139.2003,m,1,0.7622,,[],[],[],[],[],[],[],139.2003,141.2006,141.2007,141.2007,[],[],[],[],[],[],[],,141.2008,141.2008,0.149166718,-0.2825,0,0,0,,0,17,17,84,1,2,word,BELOVED,cursive,beloved_c.png,,,,,,
,,,,31842,001,2025-10-19_11h59.49.312,HW_LDT_1,2024.2.4,Win32,61.72839506,,,,,,,,,,,,,,,,,,,,,141.2015,141.3997,141.3997,141.8995,,,,,,,,,,,,,,1.4089,0,,,,,,,,,,,,,,z,,,,,,,,,,,,,,,,19,0,141.8999,143.3163,m,0,1.4089,,[],[],[],[],[],[],[],143.3164,145.3162,145.3162,145.3163,[],[],[],[],[],[],[],,145.3163,145.3165,0.149166718,-0.2825,0,0,0,,0,18,18,67,1,2,TL,quafily,cursive,quafily_c.png,,,,,,
,,,,31842,001,2025-10-19_11h59.49.312,HW_LDT_1,2024.2.4,Win32,61.72839506,,,,,,,,,,,,,,,,,,,,,145.317,145.5165,145.5165,146.0162,,,,,,,,,,,,,,0.766,1,,,,,,,,,,,,,,m,,,,,,,,,,,,,,,,20,1,146.0165,146.7831,m,1,0.766,,[],[],[],[],[],[],[],146.7832,148.7831,148.7831,149.9499,[],[],[],[],[],[],[],z,149.95,149.9502,0.149166718,-0.2825,0,0,0,,0,19,19,156,1,2,word,TRIBUTE,cursive,tribute_c.png,1.1561,,,,,
,,,,31842,001,2025-10-19_11h59.49.312,HW_LDT_1,2024.2.4,Win32,61.72839506,,,,,,,,,,,,,,,,,,,,,149.9513,150.1502,150.1502,150.6498,,,,,,,,,,,,,,1.0385,0,,,,,,,,,,,,,,z,,,,,,,,,,,,,,,,21,0,150.6506,151.7002,m,0,1.0385,,[],[],[],[],[],[],[],151.7003,153.6992,153.6992,153.6994,[],[],[],[],[],[],[],,153.6994,153.6995,0.149166718,-0.2825,0,0,0,,0,20,20,58,1,2,TL,mitilary,cursive,mitilary_c.png,,,,,,
,,,,31842,001,2025-10-19_11h59.49.312,HW_LDT_1,2024.2.4,Win32,61.72839506,,,,,,,,,,,,,,,,,,,,,153.7004,153.9002,153.9002,154.3992,,,,,,,,,,,,,,0.5904,1,,,,,,,,,,,,,,m,,,,,,,,,,,,,,,,22,0,154.3997,154.9993,m,1,0.5904,,[],[],[],[],[],[],[],154.9993,156.9995,156.9995,156.9996,[],[],[],[],[],[],[],,156.9997,156.9998,0.149166718,-0.2825,0,0,0,,0,21,21,89,1,2,word,CAPACITY,print,capacity_p.png,,,,,,
,,,,31842,001,2025-10-19_11h59.49.312,HW_LDT_1,2024.2.4,Win32,61.72839506,,,,,,,,,,,,,,,,,,,,,157.0006,157.2002,157.2002,157.6994,,,,,,,,,,,,,,0.6732,1,,,,,,,,,,,,,,z,,,,,,,,,,,,,,,,23,0,157.6999,158.3826,z,1,0.6732,,[],[],[],[],[],[],[],158.3827,160.3821,160.3822,160.3822,[],[],[],[],[],[],[],,160.3822,160.3823,0.149166718,-0.2825,0,0,0,,0,22,22,25,1,2,RL,rabigly,print,rabigly_p.png,,,,,,
,,,,31842,001,2025-10-19_11h59.49.312,HW_LDT_1,2024.2.4,Win32,61.72839506,,,,,,,,,,,,,,,,,,,,,160.3829,160.5826,160.5826,161.0823,,,,,,,,,,,,,,1.0379,1,,,,,,,,,,,,,,m,,,,,,,,,,,,,,,,24,0,161.0826,162.133,m,1,1.0379,,[],[],[],[],[],[],[],162.133,164.1326,164.1327,164.1328,[],[],[],[],[],[],[],,164.1328,164.1328,0.149166718,-0.2825,0,0,0,,0,23,23,139,1,2,word,REGULAR,cursive,regular_c.png,,,,,,
,,,,31842,001,2025-10-19_11h59.49.312,HW_LDT_1,2024.2.4,Win32,61.72839506,,,,,,,,,,,,,,,,,,,,,164.1335,164.3323,164.3324,164.8321,,,,,,,,,,,,,,0.8468,1,,,,,,,,,,,,,,z,,,,,,,,,,,,,,,,25,0,164.8325,165.6825,z,1,0.8468,,[],[],[],[],[],[],[],165.6826,167.6824,167.6825,167.6827,[],[],[],[],[],[],[],,167.6827,167.683,0.149166718,-0.2825,0,0,0,,0,24,24,48,1,2,TL,detabe,print,detabe_p.png,,,,,,
,,,,31842,001,2025-10-19_11h59.49.312,HW_LDT_1,2024.2.4,Win32,61.72839506,,,,,,,,,,,,,,,,,,,,,167.684,167.8819,167.882,168.3821,,,,,,,,,,,,,,1.7221,1,,,,,,,,,,,,,,z,,,,,,,,,,,,,,,,26,0,168.3829,170.1151,z,1,1.7221,,[],[],[],[],[],[],[],170.1151,172.1151,172.1151,172.1152,[],[],[],[],[],[],[],,172.1153,172.1154,0.149166718,-0.2825,0,0,0,,0,25,25,45,1,2,TL,carnidal,cursive,carnidal_c.png,,,,,,
,,,,31842,001,2025-10-19_11h59.49.312,HW_LDT_1,2024.2.4,Win32,61.72839506,,,,,,,,,,,,,,,,,,,,,172.1163,172.315,172.3151,172.8154,,,,,,,,,,,,,,1.0052,1,,,,,,,,,,,,,,z,,,,,,,,,,,,,,,,27,0,172.8159,173.832,z,1,1.0052,,[],[],[],[],[],[],[],173.832,175.8315,175.8316,175.8317,[],[],[],[],[],[],[],,175.8317,175.8318,0.149166718,-0.2825,0,0,0,,0,26,26,15,1,2,RL,linedal,print,linedal_p.png,,,,,,
,,,,31842,001,2025-10-19_11h59.49.312,HW_LDT_1,2024.2.4,Win32,61.72839506,,,,,,,,,,,,,,,,,,,,,175.8331,176.0319,176.0319,176.5315,,,,,,,,,,,,,,1.7763,0,,,,,,,,,,,,,,z,,,,,,,,,,,,,,,,28,0,176.5319,178.3151,m,0,1.7763,,[],[],[],[],[],[],[],178.3152,180.3145,180.3145,180.3147,[],[],[],[],[],[],[],,180.3148,180.3148,0.149166718,-0.2825,0,0,0,,0,27,27,37,1,2,TL,adacemy,cursive,adacemy_c.png,,,,,,
,,,,31842,001,2025-10-19_11h59.49.312,HW_LDT_1,2024.2.4,Win32,61.72839506,,,,,,,,,,,,,,,,,,,,,180.3159,180.5145,180.5145,181.0146,,,,,,,,,,,,,,0.9984,1,,,,,,,,,,,,,,m,,,,,,,,,,,,,,,,29,0,181.0151,182.0143,m,1,0.9984,,[],[],[],[],[],[],[],182.0143,184.0156,184.0157,184.0159,[],[],[],[],[],[],[],,184.0159,184.0161,0.149166718,-0.2825,0,0,0,,0,28,28,119,1,2,word,MEMORY,cursive,memory_c.png,,,,,,
,,,,31842,001,2025-10-19_11h59.49.312,HW_LDT_1,2024.2.4,Win32,61.72839506,,,,,,,,,,,,,,,,,,,,,184.0179,184.2148,184.2148,184.7151,,,,,,,,,,,,,,0.6714,1,,,,,,,,,,,,,,m,,,,,,,,,,,,,,,,30,1,184.7161,185.3984,m,1,0.6714,,[],[],[],[],[],[],[],185.3985,187.3982,187.3983,189.4473,[],[],[],[],[],[],[],z,189.4474,189.4475,0.149166718,-0.2825,0,0,0,,0,29,29,144,1,2,word,RESIDENT,print,resident_p.png,2.041,,,,,
,,,,31842,001,2025-10-19_11h59.49.312,HW_LDT_1,2024.2.4,Win32,61.72839506,,,,,,,,,,,,,,,,,,,,,189.4485,189.6478,189.6478,190.1475,,,,,,,,,,,,,,0.9389,1,,,,,,,,,,,,,,m,,,,,,,,,,,,,,,,31,0,190.1481,191.0973,m,1,0.9389,,[],[],[],[],[],[],[],191.0974,193.098,193.0981,193.0982,[],[],[],[],[],[],[],,193.0982,193.0983,0.149166718,-0.2825,0,0,0,,0,30,30,96,1,2,word,CONSIDER,print,consider_p.png,,,,,,
,,,,31842,001,2025-10-19_11h59.49.312,HW_LDT_1,2024.2.4,Win32,61.72839506,,,,,,,,,,,,,,,,,,,,,193.1,193.2983,193.2984,193.7981,,,,,,,,,,,,,,0.7561,1,,,,,,,,,,,,,,m,,,,,,,,,,,,,,,,32,0,193.7988,194.5649,m,1,0.7561,,[],[],[],[],[],[],[],194.565,196.5638,196.5638,196.564,[],[],[],[],[],[],[],,196.5641,196.5641,0.149166718,-0.2825,0,0,0,,0,31,31,97,1,2,word,COVERAGE,cursive,coverage_c.png,,,,,,
,,,,31842,001,2025-10-19_11h59.49.312,HW_LDT_1,2024.2.4,Win32,61.72839506,,,,,,,,,,,,,,,,,,,,,196.5652,196.7644,196.7644,197.2641,,,,,,,,,,,,,,0.6984,1,,,,,,,,,,,,,,z,,,,,,,,,,,,,,,,33,0,197.2647,197.9646,z,1,0.6984,,[],[],[],[],[],[],[],197.9648,199.9646,199.9646,199.9648,[],[],[],[],[],[],[],,199.965,199.9653,0.149166718,-0.2825,0,0,0,,0,32,32,4,1,2,RL,cenesony,print,cenesony_p.png,,,,,,
,,,,31842,001,2025-10-19_11h59.49.312,HW_LDT_1,2024.2.4,Win32,61.72839506,,,,,,,,,,,,,,,,,,,,,199.9666,200.1643,200.1644,200.6647,,,,,,,,,,,,,,0.7244,1,,,,,,,,,,,,,,z,,,,,,,,,,,,,,,,34,0,200.6652,201.3978,z,1,0.7244,,[],[],[],[],[],[],[],201.3978,203.3973,203.3973,203.3978,[],[],[],[],[],[],[],,203.3979,203.3981,0.149166718,-0.2825,0,0,0,,0,33,33,21,1,2,RL,pamest,print,pamest_p.png,,,,,,
,,,,31842,001,2025-10-19_11h59.49.312,HW_LDT_1,2024.2.4,Win32,61.72839506,,,,,,,,,,,,,,,,,,,,,203.3999,203.5976,203.5977,204.0976,,,,,,,,,,,,,,0.9041,1,,,,,,,,,,,,,,m,,,,,,,,,,,,,,,,35,0,204.0981,205.0143,m,1,0.9041,,[],[],[],[],[],[],[],205.0144,207.0142,207.0142,207.0145,[],[],[],[],[],[],[],,207.0145,207.0146,0.149166718,-0.2825,0,0,0,,0,34,34,82,1,2,word,AMATEUR,cursive,amateur_c.png,,,,,,
,,,,31842,001,2025-10-19_11h59.49.312,HW_LDT_1,2024.2.4,Win32,61.72839506,,,,,,,,,,,,,,,,,,,,,207.0164,207.2141,207.2141,207.7139,,,,,,,,,,,,,,0.7899,1,,,,,,,,,,,,,,m,,,,,,,,,,,,,,,,36,0,207.7146,208.5143,m,1,0.7899,,[],[],[],[],[],[],[],208.5144,210.5135,210.5136,210.5137,[],[],[],[],[],[],[],,210.5138,210.5139,0.149166718,-0.2825,0,0,0,,0,35,35,114,1,2,word,LOCATE,print,locate_p.png,,,,,,
,,,,31842,001,2025-10-19_11h59.49.312,HW_LDT_1,2024.2.4,Win32,61.72839506,,,,,,,,,,,,,,,,,,,,,210.5156,210.7135,210.7135,211.2129,,,,,,,,,,,,,,0.7118,1,,,,,,,,,,,,,,m,,,,,,,,,,,,,,,,37,0,211.2133,211.9305,m,1,0.7118,,[],[],[],[],[],[],[],211.9307,213.9308,213.9308,213.9311,[],[],[],[],[],[],[],,213.9312,213.9313,0.149166718,-0.2825,0,0,0,,0,36,36,155,1,2,word,STRATEGY,cursive,strategy_c.png,,,,,,
,,,,31842,001,2025-10-19_11h59.49.312,HW_LDT_1,2024.2.4,Win32,61.72839506,,,,,,,,,,,,,,,,,,,,,213.9331,214.1303,214.1304,214.6299,,,,,,,,,,,,,,0.6432,1,,,,,,,,,,,,,,m,,,,,,,,,,,,,,,,38,0,214.6309,215.2802,m,1,0.6432,,[],[],[],[],[],[],[],215.2803,217.28,217.2802,217.2804,[],[],[],[],[],[],[],,217.2806,217.2806,0.149166718,-0.2825,0,0,0,,0,37,37,128,1,2,word,PACIFIC,print,pacific_p.png,,,,,,
,,,,31842,001,2025-10-19_11h59.49.312,HW_LDT_1,2024.2.4,Win32,61.72839506,,,,,,,,,,,,,,,,,,,,,217.2828,217.4801,217.4802,217.9805,,,,,,,,,,,,,,0.6079,1,,,,,,,,,,,,,,z,,,,,,,,,,,,,,,,39,1,217.9814,218.5964,z,1,0.6079,,[],[],[],[],[],[],[],218.5965,220.5969,220.5969,221.5966,[],[],[],[],[],[],[],m,221.5968,221.5968,0.149166718,-0.2825,0,0,0,,0,38,38,6,1,2,RL,conbicer,print,conbicer_p.png,0.9914,,,,,
,,,,31842,001,2025-10-19_11h59.49.312,HW_LDT_1,2024.2.4,Win32,61.72839506,,,,,,,,,,,,,,,,,,,,,221.5986,221.7969,221.797,222.2962,,,,,,,,,,,,,,0.723,1,,,,,,,,,,,,,,m,,,,,,,,,,,,,,,,40,1,222.2971,223.0301,m,1,0.723,,[],[],[],[],[],[],[],223.0302,225.0295,225.0295,227.0789,[],[],[],[],[],[],[],z,227.0789,227.079,0.149166718,-0.2825,0,0,0,,0,39,39,80,1,2,word,ACADEMY,cursive,academy_c.png,2.0428,,,,,
,,,,31842,001,2025-10-19_11h59.49.312,HW_LDT_1,2024.2.4,Win32,61.72839506,,,,,,,,,,,,,,,,,,,,,227.0797,227.28,227.2801,227.7795,,,,,,,,,,,,,,1.3077,1,,,,,,,,,,,,,,z,,,,,,,,,,,,,,,,41,1,227.7805,229.0963,z,1,1.3077,,[],[],[],[],[],[],[],229.0965,231.0958,231.0959,232.079,[],[],[],[],[],[],[],z,232.0791,232.0794,0.149166718,-0.2825,0,0,0,,0,40,40,27,1,2,RL,repifion,cursive,repifion_c.png,0.9787,,,,,
,,,,31842,001,2025-10-19_11h59.49.312,HW_LDT_1,2024.2.4,Win32,61.72839506,,,,,,,,,,,,,,,,,,,,,232.0809,232.2794,232.2794,232.7798,,,,,,,,,,,,,,2.1374,0,,,,,,,,,,,,,,m,,,,,,,,,,,,,,,,42,0,232.781,234.9291,z,0,2.1374,,[],[],[],[],[],[],[],234.9291,236.9295,236.9295,236.9298,[],[],[],[],[],[],[],,236.9298,236.93,0.149166718,-0.2825,0,0,0,,0,41,41,126,1,2,word,OPTIMAL,cursive,optimal_c.png,,,,,,
,,,,31842,001,2025-10-19_11h59.49.312,HW_LDT_1,2024.2.4,Win32,61.72839506,,,,,,,,,,,,,,,,,,,,,236.9315,237.1297,237.1298,237.6283,,,,,,,,,,,,,,0.6394,1,,,,,,,,,,,,,,m,,,,,,,,,,,,,,,,43,0,237.6288,238.2794,m,1,0.6394,,[],[],[],[],[],[],[],238.2795,240.2792,240.2794,240.2795,[],[],[],[],[],[],[],,240.2796,240.28,0.149166718,-0.2825,0,0,0,,0,42,42,92,1,2,word,CATEGORY,print,category_p.png,,,,,,
,,,,31842,001,2025-10-19_11h59.49.312,HW_LDT_1,2024.2.4,Win32,61.72839506,,,,,,,,,,,,,,,,,,,,,240.2821,240.4793,240.4794,240.9789,,,,,,,,,,,,,,0.8229,1,,,,,,,,,,,,,,m,,,,,,,,,,,,,,,,44,0,240.9795,241.8126,m,1,0.8229,,[],[],[],[],[],[],[],241.8127,243.8113,243.8114,243.8116,[],[],[],[],[],[],[],,243.8116,243.8117,0.149166718,-0.2825,0,0,0,,0,43,43,143,1,2,word,REMOVAL,print,removal_p.png,,,,,,
,,,,31842,001,2025-10-19_11h59.49.312,HW_LDT_1,2024.2.4,Win32,61.72839506,,,,,,,,,,,,,,,,,,,,,243.8129,244.0119,244.012,244.5123,,,,,,,,,,,,,,1.2047,1,,,,,,,,,,,,,,z,,,,,,,,,,,,,,,,45,0,244.5132,245.7286,z,1,1.2047,,[],[],[],[],[],[],[],245.7287,247.7287,247.7287,247.7289,[],[],[],[],[],[],[],,247.729,247.7291,0.149166718,-0.2825,0,0,0,,0,44,44,38,1,2,TL,atameur,cursive,atameur_c.png,,,,,,
,,,,31842,001,2025-10-19_11h59.49.312,HW_LDT_1,2024.2.4,Win32,61.72839506,,,,,,,,,,,,,,,,,,,,,247.7309,247.928,247.928,248.4285,,,,,,,,,,,,,,0.8902,1,,,,,,,,,,,,,,z,,,,,,,,,,,,,,,,46,0,248.4292,249.3287,z,1,0.8902,,[],[],[],[],[],[],[],249.3289,251.3281,251.3282,251.3285,[],[],[],[],[],[],[],,251.3286,251.3287,0.149166718,-0.2825,0,0,0,,0,45,45,75,1,2,TL,ronamtic,print,ronamtic_p.png,,,,,,
,,,,31842,001,2025-10-19_11h59.49.312,HW_LDT_1,2024.2.4,Win32,61.72839506,,,,,,,,,,,,,,,,,,,,,251.3314,251.5287,251.5288,252.0276,,,,,,,,,,,,,,0.7394,1,,,,,,,,,,,,,,z,,,,,,,,,,,,,,,,47,0,252.028,252.7781,z,1,0.7394,,[],[],[],[],[],[],[],252.7781,254.7784,254.7785,254.7789,[],[],[],[],[],[],[],,254.779,254.7792,0.149166718,-0.2825,0,0,0,,0,46,46,78,1,2,TL,stogare,print,stogare_p.png,,,,,,
,,,,31842,001,2025-10-19_11h59.49.312,HW_LDT_1,2024.2.4,Win32,61.72839506,,,,,,,,,,,,,,,,,,,,,254.7807,254.978,254.9781,255.4778,,,,,,,,,,,,,,2.0896,1,,,,,,,,,,,,,,z,,,,,,,,,,,,,,,,48,0,255.4788,257.578,z,1,2.0896,,[],[],[],[],[],[],[],257.5782,259.5783,259.5784,259.5788,[],[],[],[],[],[],[],,259.5789,259.579,0.149166718,-0.2825,0,0,0,,0,47,47,69,1,2,TL,resufal,cursive,resufal_c.png,,,,,,
,,,,31842,001,2025-10-19_11h59.49.312,HW_LDT_1,2024.2.4,Win32,61.72839506,,,,,,,,,,,,,,,,,,,,,259.5807,259.7771,259.7771,260.278,,,,,,,,,,,,,,1.2723,1,,,,,,,,,,,,,,m,,,,,,,,,,,,,,,,49,0,260.2787,261.5614,m,1,1.2723,,[],[],[],[],[],[],[],261.5615,263.5613,263.5614,263.5616,[],[],[],[],[],[],[],,263.5618,263.5619,0.149166718,-0.2825,0,0,0,,0,48,48,146,1,2,word,RETIRE,cursive,retire_c.png,,,,,,
,,,,31842,001,2025-10-19_11h59.49.312,HW_LDT_1,2024.2.4,Win32,61.72839506,,,,,,,,,,,,,,,,,,,,,263.5643,263.7612,263.7614,264.2605,,,,,,,,,,,,,,1.2986,1,,,,,,,,,,,,,,m,,,,,,,,,,,,,,,,50,1,264.2616,265.5614,m,1,1.2986,,[],[],[],[],[],[],[],265.5615,267.5608,267.5609,269.0277,[],[],[],[],[],[],[],z,269.0278,269.0279,0.149166718,-0.2825,0,0,0,,0,49,49,102,1,2,word,DENSITY,print,density_p.png,1.4591,,,,,
,,,,31842,001,2025-10-19_11h59.49.312,HW_LDT_1,2024.2.4,Win32,61.72839506,,,,,,,,,,,,,,,,,,,,,269.0291,269.2274,269.2275,269.7274,,,,,,,,,,,,,,1.2467,1,,,,,,,,,,,,,,m,,,,,,,,,,,,,,,,51,0,269.7282,270.9765,m,1,1.2467,,[],[],[],[],[],[],[],270.9767,272.9771,272.9772,272.9775,[],[],[],[],[],[],[],,272.9776,272.9777,0.149166718,-0.2825,0,0,0,,0,50,50,145,1,2,word,RESUME,cursive,resume_c.png,,,,,,
,,,,31842,001,2025-10-19_11h59.49.312,HW_LDT_1,2024.2.4,Win32,61.72839506,,,,,,,,,,,,,,,,,,,,,272.9794,273.1776,273.1776,273.6769,,,,,,,,,,,,,,0.6234,1,,,,,,,,,,,,,,m,,,,,,,,,,,,,,,,52,0,273.6776,274.3106,m,1,0.6234,,[],[],[],[],[],[],[],274.3108,276.3103,276.3103,276.3107,[],[],[],[],[],[],[],,276.3109,276.3111,0.149166718,-0.2825,0,0,0,,0,51,51,154,1,2,word,STORAGE,print,storage_p.png,,,,,,
,,,,31842,001,2025-10-19_11h59.49.312,HW_LDT_1,2024.2.4,Win32,61.72839506,,,,,,,,,,,,,,,,,,,,,276.3127,276.5105,276.5106,277.0107,,,,,,,,,,,,,,0.8228,1,,,,,,,,,,,,,,z,,,,,,,,,,,,,,,,53,0,277.0116,277.8442,z,1,0.8228,,[],[],[],[],[],[],[],277.8442,279.8429,279.8429,279.8429,[],[],[],[],[],[],[],,279.843,279.843,0.149166718,-0.2825,0,0,0,,0,52,52,10,1,2,RL,disluge,cursive,disluge_c.png,,,,,,
,,,,31842,001,2025-10-19_11h59.49.312,HW_LDT_1,2024.2.4,Win32,61.72839506,,,,,,,,,,,,,,,,,,,,,279.8437,280.0436,280.0436,280.5434,,,,,,,,,,,,,,1.0552,1,,,,,,,,,,,,,,m,,,,,,,,,,,,,,,,54,0,280.5442,281.6106,m,1,1.0552,,[],[],[],[],[],[],[],281.6107,283.6099,283.61,283.6101,[],[],[],[],[],[],[],,283.6102,283.6103,0.149166718,-0.2825,0,0,0,,0,53,53,116,1,2,word,MARGINAL,cursive,marginal_c.png,,,,,,
,,,,31842,001,2025-10-19_11h59.49.312,HW_LDT_1,2024.2.4,Win32,61.72839506,,,,,,,,,,,,,,,,,,,,,283.6123,283.8096,283.8096,284.3103,,,,,,,,,,,,,,1.7587,1,,,,,,,,,,,,,,m,,,,,,,,,,,,,,,,55,0,284.3109,286.0761,m,1,1.7587,,[],[],[],[],[],[],[],286.0762,288.0765,288.0766,288.0768,[],[],[],[],[],[],[],,288.077,288.077,0.149166718,-0.2825,0,0,0,,0,54,54,142,1,2,word,REMOTE,cursive,remote_c.png,,,,,,
,,,,31842,001,2025-10-19_11h59.49.312,HW_LDT_1,2024.2.4,Win32,61.72839506,,,,,,,,,,,,,,,,,,,,,288.0789,288.2764,288.2765,288.7758,,,,,,,,,,,,,,0.7423,1,,,,,,,,,,,,,,z,,,,,,,,,,,,,,,,56,0,288.7762,289.5263,z,1,0.7423,,[],[],[],[],[],[],[],289.5264,291.5261,291.5261,291.5263,[],[],[],[],[],[],[],,291.5263,291.5265,0.149166718,-0.2825,0,0,0,,0,55,55,16,1,2,RL,losipal,print,losipal_p.png,,,,,,
,,,,31842,001,2025-10-19_11h59.49.312,HW_LDT_1,2024.2.4,Win32,61.72839506,,,,,,,,,,,,,,,,,,,,,291.5282,291.7261,291.7261,292.2261,,,,,,,,,,,,,,0.5783,1,,,,,,,,,,,,,,z,,,,,,,,,,,,,,,,57,0,292.2266,292.8087,z,1,0.5783,,[],[],[],[],[],[],[],292.8087,294.8092,294.8093,294.8098,[],[],[],[],[],[],[],,294.8098,294.8099,0.149166718,-0.2825,0,0,0,,0,56,56,77,1,2,TL,sloten,print,sloten_p.png,,,,,,
,,,,31842,001,2025-10-19_11h59.49.312,HW_LDT_1,2024.2.4,Win32,61.72839506,,,,,,,,,,,,,,,,,,,,,294.8114,295.009,295.0091,295.5095,,,,,,,,,,,,,,0.9603,1,,,,,,,,,,,,,,m,,,,,,,,,,,,,,,,58,0,295.51,296.4759,m,1,0.9603,,[],[],[],[],[],[],[],296.476,298.4758,298.4759,298.476,[],[],[],[],[],[],[],,298.4761,298.4762,0.149166718,-0.2825,0,0,0,,0,57,57,140,1,2,word,RELATIVE,print,relative_p.png,,,,,,
,,,,31842,001,2025-10-19_11h59.49.312,HW_LDT_1,2024.2.4,Win32,61.72839506,,,,,,,,,,,,,,,,,,,,,298.4781,298.676,298.6761,299.1754,,,,,,,,,,,,,,1.0742,0,,,,,,,,,,,,,,m,,,,,,,,,,,,,,,,59,0,299.1761,300.2596,z,0,1.0742,,[],[],[],[],[],[],[],300.2597,302.2589,302.259,302.2594,[],[],[],[],[],[],[],,302.2594,302.2596,0.149166718,-0.2825,0,0,0,,0,58,58,105,1,2,word,EDITOR,cursive,editor_c.png,,,,,,
,,,,31842,001,2025-10-19_11h59.49.312,HW_LDT_1,2024.2.4,Win32,61.72839506,,,,,,,,,,,,,,,,,,,,,302.2616,302.4587,302.4587,302.9587,,,,,,,,,,,,,,1.8443,1,,,,,,,,,,,,,,z,,,,,,,,,,,,,,,,60,0,302.9598,304.8091,z,1,1.8443,,[],[],[],[],[],[],[],304.8093,306.8088,306.8089,306.8091,[],[],[],[],[],[],[],,306.8092,306.8094,0.149166718,-0.2825,0,0,0,,0,59,59,57,1,2,TL,meromy,cursive,meromy_c.png,,,,,,
,,,,31842,001,2025-10-19_11h59.49.312,HW_LDT_1,2024.2.4,Win32,61.72839506,,,,,,,,,,,,,,,,,,,,,306.8113,307.0085,307.0085,307.5084,,,,,,,,,,,,,,0.6555,1,,,,,,,,,,,,,,z,,,,,,,,,,,,,,,,61,0,307.5089,308.1753,z,1,0.6555,,[],[],[],[],[],[],[],308.1755,310.1753,310.1754,310.1757,[],[],[],[],[],[],[],,310.1757,310.1757,0.149166718,-0.2825,0,0,0,,0,60,60,2,1,2,RL,casagity,print,casagity_p.png,,,,,,
,,,,31842,001,2025-10-19_11h59.49.312,HW_LDT_1,2024.2.4,Win32,61.72839506,,,,,,,,,,,,,,,,,,,,,310.1775,310.375,310.375,310.8755,,,,,,,,,,,,,,0.7625,1,,,,,,,,,,,,,,z,,,,,,,,,,,,,,,,62,0,310.8762,311.6418,z,1,0.7625,,[],[],[],[],[],[],[],311.6419,313.6417,313.6417,313.6419,[],[],[],[],[],[],[],,313.6419,313.642,0.149166718,-0.2825,0,0,0,,0,61,61,70,1,2,TL,retalive,print,retalive_p.png,,,,,,
,,,,31842,001,2025-10-19_11h59.49.312,HW_LDT_1,2024.2.4,Win32,61.72839506,,,,,,,,,,,,,,,,,,,,,313.6432,313.8419,313.8422,314.3417,,,,,,,,,,,,,,0.9247,1,,,,,,,,,,,,,,m,,,,,,,,,,,,,,,,63,0,314.3423,315.275,m,1,0.9247,,[],[],[],[],[],[],[],315.2751,317.2743,317.2745,317.2747,[],[],[],[],[],[],[],,317.2749,317.2749,0.149166718,-0.2825,0,0,0,,0,62,62,148,1,2,word,SALINE,cursive,saline_c.png,,,,,,
,,,,31842,001,2025-10-19_11h59.49.312,HW_LDT_1,2024.2.4,Win32,61.72839506,,,,,,,,,,,,,,,,,,,,,317.2762,317.4749,317.475,317.9754,,,,,,,,,,,,,,1.3887,1,,,,,,,,,,,,,,z,,,,,,,,,,,,,,,,64,0,317.976,319.3744,z,1,1.3887,,[],[],[],[],[],[],[],319.3745,321.3749,321.3749,321.3751,[],[],[],[],[],[],[],,321.3751,321.3752,0.149166718,-0.2825,0,0,0,,0,63,63,49,1,2,TL,dedace,print,dedace_p.png,,,,,,
,,,,31842,001,2025-10-19_11h59.49.312,HW_LDT_1,2024.2.4,Win32,61.72839506,,,,,,,,,,,,,,,,,,,,,321.3764,321.5746,321.5746,322.0746,,,,,,,,,,,,,,1.1723,0,,,,,,,,,,,,,,m,,,,,,,,,,,,,,,,65,0,322.0755,323.2576,z,0,1.1723,,[],[],[],[],[],[],[],323.2577,325.2576,325.2577,325.2581,[],[],[],[],[],[],[],,325.2582,325.2583,0.149166718,-0.2825,0,0,0,,0,64,64,117,1,2,word,MARINE,cursive,marine_c.png,,,,,,
,,,,31842,001,2025-10-19_11h59.49.312,HW_LDT_1,2024.2.4,Win32,61.72839506,,,,,,,,,,,,,,,,,,,,,325.26,325.4578,325.4578,325.9579,,,,,,,,,,,,,,0.7773,0,,,,,,,,,,,,,,m,,,,,,,,,,,,,,,,66,0,325.9583,326.7403,z,0,0.7773,,[],[],[],[],[],[],[],326.7403,328.7412,328.7413,328.7414,[],[],[],[],[],[],[],,328.7414,328.7415,0.149166718,-0.2825,0,0,0,,0,65,65,125,1,2,word,OPERATOR,cursive,operator_c.png,,,,,,
,,,,31842,001,2025-10-19_11h59.49.312,HW_LDT_1,2024.2.4,Win32,61.72839506,,,,,,,,,,,,,,,,,,,,,328.743,328.9408,328.9409,329.4404,,,,,,,,,,,,,,0.8966,1,,,,,,,,,,,,,,z,,,,,,,,,,,,,,,,67,0,329.441,330.3403,z,1,0.8966,,[],[],[],[],[],[],[],330.3404,332.3418,332.3419,332.3422,[],[],[],[],[],[],[],,332.3423,332.3425,0.149166718,-0.2825,0,0,0,,0,66,66,24,1,2,RL,rasibal,cursive,rasibal_c.png,,,,,,
,,,,31842,001,2025-10-19_11h59.49.312,HW_LDT_1,2024.2.4,Win32,61.72839506,,,,,,,,,,,,,,,,,,,,,332.3449,332.541,332.541,333.0405,,,,,,,,,,,,,,0.7058,1,,,,,,,,,,,,,,z,,,,,,,,,,,,,,,,68,0,333.0409,333.7567,z,1,0.7058,,[],[],[],[],[],[],[],333.7568,335.7569,335.7569,335.7572,[],[],[],[],[],[],[],,335.7573,335.7574,0.149166718,-0.2825,0,0,0,,0,67,67,41,1,2,TL,befenit,cursive,befenit_c.png,,,,,,
,,,,31842,001,2025-10-19_11h59.49.312,HW_LDT_1,2024.2.4,Win32,61.72839506,,,,,,,,,,,,,,,,,,,,,335.7587,335.9567,335.9568,336.4575,,,,,,,,,,,,,,0.7444,1,,,,,,,,,,,,,,z,,,,,,,,,,,,,,,,69,0,336.4587,337.2073,z,1,0.7444,,[],[],[],[],[],[],[],337.2074,339.2077,339.2077,339.208,[],[],[],[],[],[],[],,339.208,339.2081,0.149166718,-0.2825,0,0,0,,0,68,68,35,1,2,RL,vesofity,print,vesofity_p.png,,,,,,
,,,,31842,001,2025-10-19_11h59.49.312,HW_LDT_1,2024.2.4,Win32,61.72839506,,,,,,,,,,,,,,,,,,,,,339.2095,339.407,339.407,339.9063,,,,,,,,,,,,,,0.6564,1,,,,,,,,,,,,,,m,,,,,,,,,,,,,,,,70,0,339.9069,340.5736,m,1,0.6564,,[],[],[],[],[],[],[],340.5737,342.5732,342.5733,342.5733,[],[],[],[],[],[],[],,342.5734,342.5735,0.149166718,-0.2825,0,0,0,,0,69,69,95,1,2,word,COMEDY,cursive,comedy_c.png,,,,,,
,,,,31842,001,2025-10-19_11h59.49.312,HW_LDT_1,2024.2.4,Win32,61.72839506,,,,,,,,,,,,,,,,,,,,,342.575,342.7738,342.7738,343.2736,,,,,,,,,,,,,,0.6919,1,,,,,,,,,,,,,,z,,,,,,,,,,,,,,,,71,0,343.2746,343.9737,z,1,0.6919,,[],[],[],[],[],[],[],343.9737,345.974,345.9741,345.9743,[],[],[],[],[],[],[],,345.9744,345.9745,0.149166718,-0.2825,0,0,0,,0,70,70,19,1,2,RL,monebate,cursive,monebate_c.png,,,,,,
,,,,31842,001,2025-10-19_11h59.49.312,HW_LDT_1,2024.2.4,Win32,61.72839506,,,,,,,,,,,,,,,,,,,,,345.9767,346.1731,346.1732,346.6734,,,,,,,,,,,,,,0.7569,1,,,,,,,,,,,,,,m,,,,,,,,,,,,,,,,72,0,346.6739,347.4395,m,1,0.7569,,[],[],[],[],[],[],[],347.4397,349.4394,349.4394,349.4396,[],[],[],[],[],[],[],,349.4396,349.4397,0.149166718,-0.2825,0,0,0,,0,71,71,124,1,2,word,NUMERICAL,cursive,numerical_c.png,,,,,,
,,,,31842,001,2025-10-19_11h59.49.312,HW_LDT_1,2024.2.4,Win32,61.72839506,,,,,,,,,,,,,,,,,,,,,349.4413,349.6399,349.6399,350.1406,,,,,,,,,,,,,,0.7207,1,,,,,,,,,,,,,,m,,,,,,,,,,,,,,,,73,0,350.1417,350.8731,m,1,0.7207,,[],[],[],[],[],[],[],350.8732,352.8729,352.8729,352.8733,[],[],[],[],[],[],[],,352.8733,352.8734,0.149166718,-0.2825,0,0,0,,0,72,72,104,1,2,word,DOMINANT,print,dominant_p.png,,,,,,
,,,,31842,001,2025-10-19_11h59.49.312,HW_LDT_1,2024.2.4,Win32,61.72839506,,,,,,,,,,,,,,,,,,,,,352.8748,353.073,353.073,353.573,,,,,,,,,,,,,,0.7062,0,,,,,,,,,,,,,,z,,,,,,,,,,,,,,,,74,0,353.5739,354.2898,m,0,0.7062,,[],[],[],[],[],[],[],354.2898,356.2897,356.2899,356.2901,[],[],[],[],[],[],[],,356.2903,356.2903,0.149166718,-0.2825,0,0,0,,0,73,73,79,1,2,TL,vadility,print,vadility_p.png,,,,,,
,,,,31842,001,2025-10-19_11h59.49.312,HW_LDT_1,2024.2.4,Win32,61.72839506,,,,,,,,,,,,,,,,,,,,,356.2919,356.4892,356.4893,356.9896,,,,,,,,,,,,,,0.6786,1,,,,,,,,,,,,,,m,,,,,,,,,,,,,,,,75,0,356.9903,357.6724,m,1,0.6786,,[],[],[],[],[],[],[],357.6725,359.6731,359.6731,359.6733,[],[],[],[],[],[],[],,359.6734,359.6735,0.149166718,-0.2825,0,0,0,,0,74,74,122,1,2,word,MOBILE,print,mobile_p.png,,,,,,
,,,,31842,001,2025-10-19_11h59.49.312,HW_LDT_1,2024.2.4,Win32,61.72839506,,,,,,,,,,,,,,,,,,,,,359.6749,359.874,359.874,360.3725,,,,,,,,,,,,,,0.5064,1,,,,,,,,,,,,,,m,,,,,,,,,,,,,,,,76,0,360.3729,360.8891,m,1,0.5064,,[],[],[],[],[],[],[],360.8893,362.8894,362.8894,362.8896,[],[],[],[],[],[],[],,362.8896,362.8898,0.149166718,-0.2825,0,0,0,,0,75,75,157,1,2,word,VALIDITY,print,validity_p.png,,,,,,
,,,,31842,001,2025-10-19_11h59.49.312,HW_LDT_1,2024.2.4,Win32,61.72839506,,,,,,,,,,,,,,,,,,,,,362.8915,363.089,363.089,363.5891,,,,,,,,,,,,,,0.7804,0,,,,,,,,,,,,,,z,,,,,,,,,,,,,,,,77,1,363.5897,364.372,m,0,0.7804,,[],[],[],[],[],[],[],364.3722,366.3728,366.3729,367.4057,[],[],[],[],[],[],[],z,367.4058,367.4059,0.149166718,-0.2825,0,0,0,,0,76,76,68,1,2,TL,quatily,cursive,quatily_c.png,1.0237,,,,,
,,,,31842,001,2025-10-19_11h59.49.312,HW_LDT_1,2024.2.4,Win32,61.72839506,,,,,,,,,,,,,,,,,,,,,367.4074,367.6056,367.6056,368.1056,,,,,,,,,,,,,,1.273,1,,,,,,,,,,,,,,z,,,,,,,,,,,,,,,,78,0,368.106,369.3883,z,1,1.273,,[],[],[],[],[],[],[],369.3883,371.3884,371.3885,371.3887,[],[],[],[],[],[],[],,371.3888,371.3888,0.149166718,-0.2825,0,0,0,,0,77,77,46,1,2,TL,codemy,cursive,codemy_c.png,,,,,,
,,,,31842,001,2025-10-19_11h59.49.312,HW_LDT_1,2024.2.4,Win32,61.72839506,,,,,,,,,,,,,,,,,,,,,371.3903,371.5774,371.5774,372.0878,,,,,,,,,,,,,,0.9797,1,,,,,,,,,,,,,,m,,,,,,,,,,,,,,,,79,0,372.0883,373.0716,m,1,0.9797,,[],[],[],[],[],[],[],373.0717,375.0713,375.0714,375.0716,[],[],[],[],[],[],[],,375.0716,375.0717,0.149166718,-0.2825,0,0,0,,0,78,78,131,1,2,word,POPULAR,cursive,popular_c.png,,,,,,
,,,,31842,001,2025-10-19_11h59.49.312,HW_LDT_1,2024.2.4,Win32,61.72839506,,,,,,,,,,,,,,,,,,,,,375.073,375.2715,375.2716,375.7716,,,,,,,,,,,,,,0.9981,1,,,,,,,,,,,,,,m,,,,,,,,,,,,,,,,80,1,375.7719,376.771,m,1,0.9981,,[],[],[],[],[],[],[],376.7711,378.7709,378.771,379.8709,[],[],[],[],[],[],[],z,379.8711,404.1868,0.149166718,-0.2825,0,0,0,space,0,79,79,85,1,2,word,BENEFIT,cursive,benefit_c.png,1.0995,,24.287,,,
,,,,31842,001,2025-10-19_11h59.49.312,HW_LDT_1,2024.2.4,Win32,61.72839506,,,,,,,,,,,,,,,,,,,,,404.1879,404.3866,404.3867,404.8862,,,,,,,,,,,,,,1.1144,1,,,,,,,,,,,,,,m,,,,,,,,,,,,,,,,81,0,404.8865,406.0026,m,1,1.1144,,[],[],[],[],[],[],[],406.0027,408.003,408.0031,408.0032,[],[],[],[],[],[],[],,408.0032,408.0033,0.149166718,-0.2825,0,0,0,,0,80,80,141,1,2,word,RELIGION,cursive,religion_c.png,,,,,,
,,,,31842,001,2025-10-19_11h59.49.312,HW_LDT_1,2024.2.4,Win32,61.72839506,,,,,,,,,,,,,,,,,,,,,408.0041,408.2029,408.2029,408.7027,,,,,,,,,,,,,,0.8413,1,,,,,,,,,,,,,,m,,,,,,,,,,,,,,,,82,0,408.703,409.5531,m,1,0.8413,,[],[],[],[],[],[],[],409.5532,411.5529,411.5529,411.553,[],[],[],[],[],[],[],,411.5531,411.5531,0.149166718,-0.2825,0,0,0,,0,81,81,133,1,2,word,PROVIDE,cursive,provide_c.png,,,,,,
,,,,31842,001,2025-10-19_11h59.49.312,HW_LDT_1,2024.2.4,Win32,61.72839506,,,,,,,,,,,,,,,,,,,,,411.5539,411.7525,411.7525,412.2525,,,,,,,,,,,,,,0.5894,1,,,,,,,,,,,,,,m,,,,,,,,,,,,,,,,83,1,412.253,412.8533,m,1,0.5894,,[],[],[],[],[],[],[],412.8534,414.8537,414.8538,415.9361,[],[],[],[],[],[],[],m,415.9362,415.9366,0.149166718,-0.2825,0,0,0,,0,82,82,101,1,2,word,DELICATE,print,delicate_p.png,1.0727,,,,,
,,,,31842,001,2025-10-19_11h59.49.312,HW_LDT_1,2024.2.4,Win32,61.72839506,,,,,,,,,,,,,,,,,,,,,415.9384,416.1365,416.1365,416.6364,,,,,,,,,,,,,,0.7457,1,,,,,,,,,,,,,,m,,,,,,,,,,,,,,,,84,0,416.6369,417.3858,m,1,0.7457,,[],[],[],[],[],[],[],417.3858,419.3856,419.3856,419.3857,[],[],[],[],[],[],[],,419.3857,419.3858,0.149166718,-0.2825,0,0,0,,0,83,83,99,1,2,word,DEBATE,print,debate_p.png,,,,,,
,,,,31842,001,2025-10-19_11h59.49.312,HW_LDT_1,2024.2.4,Win32,61.72839506,,,,,,,,,,,,,,,,,,,,,419.3873,419.5859,419.5861,420.0855,,,,,,,,,,,,,,0.5787,1,,,,,,,,,,,,,,m,,,,,,,,,,,,,,,,85,0,420.0858,420.6692,m,1,0.5787,,[],[],[],[],[],[],[],420.6693,422.6692,422.6692,422.6693,[],[],[],[],[],[],[],,422.6693,422.6695,0.149166718,-0.2825,0,0,0,,0,84,84,153,1,2,word,STOLEN,print,stolen_p.png,,,,,,
,,,,31842,001,2025-10-19_11h59.49.312,HW_LDT_1,2024.2.4,Win32,61.72839506,,,,,,,,,,,,,,,,,,,,,422.6704,422.8688,422.8689,423.3695,,,,,,,,,,,,,,0.9776,1,,,,,,,,,,,,,,z,,,,,,,,,,,,,,,,86,0,423.37,424.3521,z,1,0.9776,,[],[],[],[],[],[],[],424.3522,426.3527,426.3528,426.3529,[],[],[],[],[],[],[],,426.353,426.3531,0.149166718,-0.2825,0,0,0,,0,85,85,71,1,2,TL,retome,cursive,retome_c.png,,,,,,
,,,,31842,001,2025-10-19_11h59.49.312,HW_LDT_1,2024.2.4,Win32,61.72839506,,,,,,,,,,,,,,,,,,,,,426.355,426.5524,426.5525,427.0524,,,,,,,,,,,,,,0.5416,1,,,,,,,,,,,,,,m,,,,,,,,,,,,,,,,87,0,427.0528,427.6018,m,1,0.5416,,[],[],[],[],[],[],[],427.602,429.6022,429.6023,429.6024,[],[],[],[],[],[],[],,429.6025,429.6026,0.149166718,-0.2825,0,0,0,,0,86,86,88,1,2,word,CAMERA,print,camera_p.png,,,,,,
,,,,31842,001,2025-10-19_11h59.49.312,HW_LDT_1,2024.2.4,Win32,61.72839506,,,,,,,,,,,,,,,,,,,,,429.6058,429.8026,429.8026,430.3022,,,,,,,,,,,,,,1.4102,1,,,,,,,,,,,,,,z,,,,,,,,,,,,,,,,88,1,430.3027,431.7183,z,1,1.4102,,[],[],[],[],[],[],[],431.7184,433.7186,433.7186,435.1687,[],[],[],[],[],[],[],z,435.1687,435.169,0.148333359,-0.2875,0,0,0,,0,87,87,42,1,2,TL,bedise,cursive,bedise_c.png,1.4386,,,,,
,,,,31842,001,2025-10-19_11h59.49.312,HW_LDT_1,2024.2.4,Win32,61.72839506,,,,,,,,,,,,,,,,,,,,,435.1701,435.369,435.369,435.8694,,,,,,,,,,,,,,1.3885,1,,,,,,,,,,,,,,z,,,,,,,,,,,,,,,,89,0,435.8708,437.2685,z,1,1.3885,,[],[],[],[],[],[],[],437.2687,439.2681,439.2681,439.2682,[],[],[],[],[],[],[],,439.2682,439.2683,0.181666718,-0.295,0,0,0,,0,88,88,20,1,2,RL,onegator,cursive,onegator_c.png,,,,,,
,,,,31842,001,2025-10-19_11h59.49.312,HW_LDT_1,2024.2.4,Win32,61.72839506,,,,,,,,,,,,,,,,,,,,,439.2691,439.4689,439.4689,439.9688,,,,,,,,,,,,,,0.722,1,,,,,,,,,,,,,,m,,,,,,,,,,,,,,,,90,1,439.9695,440.7019,m,1,0.722,,[],[],[],[],[],[],[],440.7021,442.7014,442.7014,443.8022,[],[],[],[],[],[],[],z,443.8023,443.8023,0.190833359,-0.29,0,0,0,,0,89,89,158,1,2,word,VELOCITY,print,velocity_p.png,1.0913,,,,,
,,,,31842,001,2025-10-19_11h59.49.312,HW_LDT_1,2024.2.4,Win32,61.72839506,,,,,,,,,,,,,,,,,,,,,443.8039,444.0022,444.0023,444.5015,,,,,,,,,,,,,,1.7404,1,,,,,,,,,,,,,,z,,,,,,,,,,,,,,,,91,1,444.5021,446.2515,z,1,1.7404,,[],[],[],[],[],[],[],446.2516,448.2516,448.2516,449.1849,[],[],[],[],[],[],[],z,449.1849,449.185,0.190833359,-0.29,0,0,0,,0,90,90,56,1,2,TL,marnigal,cursive,marnigal_c.png,0.9269,,,,,
,,,,31842,001,2025-10-19_11h59.49.312,HW_LDT_1,2024.2.4,Win32,61.72839506,,,,,,,,,,,,,,,,,,,,,449.1863,449.3843,449.3843,449.8842,,,,,,,,,,,,,,0.7403,1,,,,,,,,,,,,,,m,,,,,,,,,,,,,,,,92,0,449.8846,450.6344,m,1,0.7403,,[],[],[],[],[],[],[],450.6344,452.6341,452.6343,452.6346,[],[],[],[],[],[],[],,452.6347,452.6348,0.190833359,-0.29,0,0,0,,0,91,91,159,1,2,word,VETERAN,print,veteran_p.png,,,,,,
,,,,31842,001,2025-10-19_11h59.49.312,HW_LDT_1,2024.2.4,Win32,61.72839506,,,,,,,,,,,,,,,,,,,,,452.6364,452.8349,452.835,453.3339,,,,,,,,,,,,,,0.8409,1,,,,,,,,,,,,,,m,,,,,,,,,,,,,,,,93,0,453.3344,454.1845,m,1,0.8409,,[],[],[],[],[],[],[],454.1846,456.1836,456.1836,456.1837,[],[],[],[],[],[],[],,456.1838,456.1838,0.190833359,-0.29,0,0,0,,0,92,92,135,1,2,word,QUALITY,cursive,quality_c.png,,,,,,
,,,,31842,001,2025-10-19_11h59.49.312,HW_LDT_1,2024.2.4,Win32,61.72839506,,,,,,,,,,,,,,,,,,,,,456.1845,456.3837,456.3838,456.8839,,,,,,,,,,,,,,0.8384,1,,,,,,,,,,,,,,z,,,,,,,,,,,,,,,,94,0,456.8844,457.7338,z,1,0.8384,,[],[],[],[],[],[],[],457.7339,459.7338,459.7339,459.7341,[],[],[],[],[],[],[],,459.7341,459.7342,0.190833359,-0.29,0,0,0,,0,93,93,53,1,2,TL,edivent,cursive,edivent_c.png,,,,,,
,,,,31842,001,2025-10-19_11h59.49.312,HW_LDT_1,2024.2.4,Win32,61.72839506,,,,,,,,,,,,,,,,,,,,,459.7354,459.9338,459.9338,460.4338,,,,,,,,,,,,,,0.9322,1,,,,,,,,,,,,,,z,,,,,,,,,,,,,,,,95,0,460.4342,461.3673,z,1,0.9322,,[],[],[],[],[],[],[],461.3673,463.3671,463.3671,463.3672,[],[],[],[],[],[],[],,463.3672,463.3673,0.190833359,-0.29,0,0,0,,0,94,94,14,1,2,RL,insibate,cursive,insibate_c.png,,,,,,
,,,,31842,001,2025-10-19_11h59.49.312,HW_LDT_1,2024.2.4,Win32,61.72839506,,,,,,,,,,,,,,,,,,,,,463.3684,463.5669,463.5669,464.0666,,,,,,,,,,,,,,0.8991,0,,,,,,,,,,,,,,m,,,,,,,,,,,,,,,,96,0,464.067,464.9666,z,0,0.8991,,[],[],[],[],[],[],[],464.9667,466.9662,466.9662,466.9663,[],[],[],[],[],[],[],,466.9663,466.9663,0.190833359,-0.29,0,0,0,,0,95,95,106,1,2,word,ELABORATE,cursive,elaborate_c.png,,,,,,
,,,,31842,001,2025-10-19_11h59.49.312,HW_LDT_1,2024.2.4,Win32,61.72839506,,,,,,,,,,,,,,,,,,,,,466.9668,467.1676,467.1676,467.667,,,,,,,,,,,,,,0.8051,1,,,,,,,,,,,,,,m,,,,,,,,,,,,,,,,97,0,467.6673,468.4834,m,1,0.8051,,[],[],[],[],[],[],[],468.4835,470.4828,470.4828,470.483,[],[],[],[],[],[],[],,470.483,470.483,0.190833359,-0.29,0,0,0,,0,96,96,134,1,2,word,QUALIFY,cursive,qualify_c.png,,,,,,
,,,,31842,001,2025-10-19_11h59.49.312,HW_LDT_1,2024.2.4,Win32,61.72839506,,,,,,,,,,,,,,,,,,,,,470.4838,470.6838,470.6839,471.1829,,,,,,,,,,,,,,0.8289,0,,,,,,,,,,,,,,m,,,,,,,,,,,,,,,,98,0,471.1834,472.0164,z,0,0.8289,,[],[],[],[],[],[],[],472.0165,474.0165,474.0166,474.0168,[],[],[],[],[],[],[],,474.0168,474.0169,0.190833359,-0.29,0,0,0,,0,97,97,113,1,2,word,LITERAL,cursive,literal_c.png,,,,,,
,,,,31842,001,2025-10-19_11h59.49.312,HW_LDT_1,2024.2.4,Win32,61.72839506,,,,,,,,,,,,,,,,,,,,,474.0181,474.2164,474.2164,474.7176,,,,,,,,,,,,,,1.238,1,,,,,,,,,,,,,,z,,,,,,,,,,,,,,,,99,0,474.7181,475.9662,z,1,1.238,,[],[],[],[],[],[],[],475.9662,477.966,477.9661,477.9662,[],[],[],[],[],[],[],,477.9662,477.9664,0.190833359,-0.29,0,0,0,,0,98,98,23,1,2,RL,procogal,cursive,procogal_c.png,,,,,,
,,,,31842,001,2025-10-19_11h59.49.312,HW_LDT_1,2024.2.4,Win32,61.72839506,,,,,,,,,,,,,,,,,,,,,477.9675,478.1664,478.1664,478.6661,,,,,,,,,,,,,,0.6066,1,,,,,,,,,,,,,,m,,,,,,,,,,,,,,,,100,0,478.6666,479.2826,m,1,0.6066,,[],[],[],[],[],[],[],479.2826,481.2827,481.2827,481.2828,[],[],[],[],[],[],[],,481.2828,481.2828,0.190833359,-0.29,0,0,0,,0,99,99,130,1,2,word,POLICY,print,policy_p.png,,,,,,
,,,,31842,001,2025-10-19_11h59.49.312,HW_LDT_1,2024.2.4,Win32,61.72839506,,,,,,,,,,,,,,,,,,,,,481.2843,481.4822,481.4823,481.9827,,,,,,,,,,,,,,1.1902,1,,,,,,,,,,,,,,z,,,,,,,,,,,,,,,,101,0,481.9832,483.1825,z,1,1.1902,,[],[],[],[],[],[],[],483.1825,485.1826,485.1826,485.1828,[],[],[],[],[],[],[],,485.1829,485.1829,0.190833359,-0.29,0,0,0,,0,100,100,7,1,2,RL,cocewage,cursive,cocewage_c.png,,,,,,
,,,,31842,001,2025-10-19_11h59.49.312,HW_LDT_1,2024.2.4,Win32,61.72839506,,,,,,,,,,,,,,,,,,,,,485.1839,485.3827,485.3829,485.8821,,,,,,,,,,,,,,0.7297,1,,,,,,,,,,,,,,z,,,,,,,,,,,,,,,,102,0,485.8824,486.6155,z,1,0.7297,,[],[],[],[],[],[],[],486.6156,488.6157,488.6157,488.6158,[],[],[],[],[],[],[],,488.6159,488.6159,0.190833359,-0.29,0,0,0,,0,101,101,76,1,2,TL,senmitent,cursive,senmitent_c.png,,,,,,
,,,,31842,001,2025-10-19_11h59.49.312,HW_LDT_1,2024.2.4,Win32,61.72839506,,,,,,,,,,,,,,,,,,,,,488.617,488.816,488.816,489.3152,,,,,,,,,,,,,,0.8216,1,,,,,,,,,,,,,,z,,,,,,,,,,,,,,,,103,0,489.3161,490.149,z,1,0.8216,,[],[],[],[],[],[],[],490.1491,492.1487,492.1488,492.1489,[],[],[],[],[],[],[],,492.1489,492.149,0.190833359,-0.29,0,0,0,,0,102,102,17,1,2,RL,macise,cursive,macise_c.png,,,,,,
,,,,31842,001,2025-10-19_11h59.49.312,HW_LDT_1,2024.2.4,Win32,61.72839506,,,,,,,,,,,,,,,,,,,,,492.1502,492.3492,492.3492,492.8485,,,,,,,,,,,,,,0.8285,1,,,,,,,,,,,,,,z,,,,,,,,,,,,,,,,104,0,492.849,493.6831,z,1,0.8285,,[],[],[],[],[],[],[],493.6832,495.6826,495.6826,495.6827,[],[],[],[],[],[],[],,495.6828,495.6829,0.190833359,-0.29,0,0,0,,0,103,103,73,1,2,TL,redisent,print,redisent_p.png,,,,,,
,,,,31842,001,2025-10-19_11h59.49.312,HW_LDT_1,2024.2.4,Win32,61.72839506,,,,,,,,,,,,,,,,,,,,,495.684,495.8818,495.8819,496.3818,,,,,,,,,,,,,,0.9736,1,,,,,,,,,,,,,,z,,,,,,,,,,,,,,,,105,0,496.3822,497.3662,z,1,0.9736,,[],[],[],[],[],[],[],497.3663,499.3649,499.365,499.3651,[],[],[],[],[],[],[],,499.3651,499.3652,0.190833359,-0.29,0,0,0,,0,104,104,64,1,2,TL,paficic,print,paficic_p.png,,,,,,
,,,,31842,001,2025-10-19_11h59.49.312,HW_LDT_1,2024.2.4,Win32,61.72839506,,,,,,,,,,,,,,,,,,,,,499.366,499.5653,499.5654,500.065,,,,,,,,,,,,,,1.2856,1,,,,,,,,,,,,,,m,,,,,,,,,,,,,,,,106,0,500.0654,501.3517,m,1,1.2856,,[],[],[],[],[],[],[],501.3518,503.3538,503.3539,503.3542,[],[],[],[],[],[],[],,503.3542,503.3544,0.190833359,-0.29,0,0,0,,0,105,105,127,1,2,word,ORIGINAL,print,original_p.png,,,,,,
,,,,31842,001,2025-10-19_11h59.49.312,HW_LDT_1,2024.2.4,Win32,61.72839506,,,,,,,,,,,,,,,,,,,,,503.3554,503.5482,503.5483,504.054,,,,,,,,,,,,,,0.6822,1,,,,,,,,,,,,,,z,,,,,,,,,,,,,,,,107,0,504.0545,504.748,z,1,0.6822,,[],[],[],[],[],[],[],504.7481,506.7477,506.7477,506.7479,[],[],[],[],[],[],[],,506.7479,506.748,0.190833359,-0.29,0,0,0,,0,106,106,36,1,2,RL,vecelan,print,vecelan_p.png,,,,,,
,,,,31842,001,2025-10-19_11h59.49.312,HW_LDT_1,2024.2.4,Win32,61.72839506,,,,,,,,,,,,,,,,,,,,,506.749,506.9487,506.9487,507.4476,,,,,,,,,,,,,,0.712,1,,,,,,,,,,,,,,z,,,,,,,,,,,,,,,,108,0,507.448,508.1646,z,1,0.712,,[],[],[],[],[],[],[],508.1647,510.1643,510.1643,510.1644,[],[],[],[],[],[],[],,510.1645,510.1645,0.190833359,-0.29,0,0,0,,0,107,107,63,1,2,TL,orinigal,print,orinigal_p.png,,,,,,
,,,,31842,001,2025-10-19_11h59.49.312,HW_LDT_1,2024.2.4,Win32,61.72839506,,,,,,,,,,,,,,,,,,,,,510.1655,510.3642,510.3642,510.8703,,,,,,,,,,,,,,0.7996,0,,,,,,,,,,,,,,m,,,,,,,,,,,,,,,,109,0,510.8707,511.6811,z,0,0.7996,,[],[],[],[],[],[],[],511.6812,513.6807,513.6808,513.6809,[],[],[],[],[],[],[],,513.6809,513.681,0.190833359,-0.29,0,0,0,,0,108,108,123,1,2,word,MODERATE,cursive,moderate_c.png,,,,,,
,,,,31842,001,2025-10-19_11h59.49.312,HW_LDT_1,2024.2.4,Win32,61.72839506,,,,,,,,,,,,,,,,,,,,,513.6819,513.8871,513.8871,514.3811,,,,,,,,,,,,,,1.2067,0,,,,,,,,,,,,,,m,,,,,,,,,,,,,,,,110,0,514.3815,515.5974,z,0,1.2067,,[],[],[],[],[],[],[],515.5975,517.5982,517.5983,517.5983,[],[],[],[],[],[],[],,517.5984,517.5984,0.190833359,-0.29,0,0,0,,0,109,109,120,1,2,word,MILITARY,cursive,military_c.png,,,,,,
,,,,31842,001,2025-10-19_11h59.49.312,HW_LDT_1,2024.2.4,Win32,61.72839506,,,,,,,,,,,,,,,,,,,,,517.599,517.7971,517.7972,518.2971,,,,,,,,,,,,,,0.8213,1,,,,,,,,,,,,,,z,,,,,,,,,,,,,,,,111,0,518.2974,519.1307,z,1,0.8213,,[],[],[],[],[],[],[],519.1307,521.1309,521.1309,521.131,[],[],[],[],[],[],[],,521.1311,521.1311,0.190833359,-0.29,0,0,0,,0,110,110,59,1,2,TL,miskate,cursive,miskate_c.png,,,,,,
,,,,31842,001,2025-10-19_11h59.49.312,HW_LDT_1,2024.2.4,Win32,61.72839506,,,,,,,,,,,,,,,,,,,,,521.1323,521.3302,521.3303,521.8302,,,,,,,,,,,,,,1.1712,1,,,,,,,,,,,,,,m,,,,,,,,,,,,,,,,112,0,521.8305,523.014,m,1,1.1712,,[],[],[],[],[],[],[],523.0141,525.0134,525.0134,525.0135,[],[],[],[],[],[],[],,525.0135,525.0136,0.190833359,-0.29,0,0,0,,0,111,111,137,1,2,word,RAPIDLY,print,rapidly_p.png,,,,,,
,,,,31842,001,2025-10-19_11h59.49.312,HW_LDT_1,2024.2.4,Win32,61.72839506,,,,,,,,,,,,,,,,,,,,,525.0154,525.2134,525.2135,525.7147,,,,,,,,,,,,,,0.7373,1,,,,,,,,,,,,,,z,,,,,,,,,,,,,,,,113,0,525.7151,526.4638,z,1,0.7373,,[],[],[],[],[],[],[],526.4639,528.4631,528.4631,528.4644,[],[],[],[],[],[],[],,528.4645,528.4646,0.190833359,-0.29,0,0,0,,0,112,112,29,1,2,RL,samite,cursive,samite_c.png,,,,,,
,,,,31842,001,2025-10-19_11h59.49.312,HW_LDT_1,2024.2.4,Win32,61.72839506,,,,,,,,,,,,,,,,,,,,,528.4656,528.6638,528.6638,529.1638,,,,,,,,,,,,,,0.729,1,,,,,,,,,,,,,,m,,,,,,,,,,,,,,,,114,0,529.1645,529.8968,m,1,0.729,,[],[],[],[],[],[],[],529.8969,531.8834,531.8834,531.8834,[],[],[],[],[],[],[],,531.8835,531.8835,0.190833359,-0.29,0,0,0,,0,113,113,110,1,2,word,HERITAGE,print,heritage_p.png,,,,,,
,,,,31842,001,2025-10-19_11h59.49.312,HW_LDT_1,2024.2.4,Win32,61.72839506,,,,,,,,,,,,,,,,,,,,,531.884,532.0797,532.0797,532.5801,,,,,,,,,,,,,,1.4962,1,,,,,,,,,,,,,,z,,,,,,,,,,,,,,,,115,0,532.5807,534.08,z,1,1.4962,,[],[],[],[],[],[],[],534.08,536.0798,536.0798,536.0801,[],[],[],[],[],[],[],,536.0801,536.0802,0.190833359,-0.29,0,0,0,,0,114,114,66,1,2,TL,prodive,cursive,prodive_c.png,,,,,,
,,,,31842,001,2025-10-19_11h59.49.312,HW_LDT_1,2024.2.4,Win32,61.72839506,,,,,,,,,,,,,,,,,,,,,536.0817,536.2802,536.2803,536.78,,,,,,,,,,,,,,1.1263,1,,,,,,,,,,,,,,m,,,,,,,,,,,,,,,,116,0,536.7805,537.9131,m,1,1.1263,,[],[],[],[],[],[],[],537.9131,539.9127,539.9128,539.9129,[],[],[],[],[],[],[],,539.9129,539.913,0.190833359,-0.29,0,0,0,,0,115,115,151,1,2,word,SPECIFIC,print,specific_p.png,,,,,,
,,,,31842,001,2025-10-19_11h59.49.312,HW_LDT_1,2024.2.4,Win32,61.72839506,,,,,,,,,,,,,,,,,,,,,539.914,540.1136,540.1137,540.613,,,,,,,,,,,,,,0.7307,1,,,,,,,,,,,,,,m,,,,,,,,,,,,,,,,117,0,540.6139,541.3463,m,1,0.7307,,[],[],[],[],[],[],[],541.3464,543.3463,543.3464,543.3466,[],[],[],[],[],[],[],,543.3467,543.3469,0.190833359,-0.29,0,0,0,,0,116,116,108,1,2,word,FORTUNE,print,fortune_p.png,,,,,,
,,,,31842,001,2025-10-19_11h59.49.312,HW_LDT_1,2024.2.4,Win32,61.72839506,,,,,,,,,,,,,,,,,,,,,543.3481,543.5469,543.5469,544.0461,,,,,,,,,,,,,,0.6912,1,,,,,,,,,,,,,,z,,,,,,,,,,,,,,,,118,1,544.047,544.7466,z,1,0.6912,,[],[],[],[],[],[],[],544.7467,546.746,546.746,548.1294,[],[],[],[],[],[],[],m,548.1296,548.1297,0.190833359,-0.29,0,0,0,,0,117,117,0,1,2,RL,adnicory,print,adnicory_p.png,1.3812,,,,,
,,,,31842,001,2025-10-19_11h59.49.312,HW_LDT_1,2024.2.4,Win32,61.72839506,,,,,,,,,,,,,,,,,,,,,548.1308,548.3297,548.3297,548.8297,,,,,,,,,,,,,,0.9735,1,,,,,,,,,,,,,,z,,,,,,,,,,,,,,,,119,0,548.8302,549.8128,z,1,0.9735,,[],[],[],[],[],[],[],549.8128,551.8128,551.8128,551.813,[],[],[],[],[],[],[],,551.813,551.8132,0.190833359,-0.29,0,0,0,,0,118,118,22,1,2,RL,posity,print,posity_p.png,,,,,,
,,,,31842,001,2025-10-19_11h59.49.312,HW_LDT_1,2024.2.4,Win32,61.72839506,,,,,,,,,,,,,,,,,,,,,551.815,552.0122,552.0122,552.5122,,,,,,,,,,,,,,0.8925,1,,,,,,,,,,,,,,z,,,,,,,,,,,,,,,,120,0,552.513,553.4123,z,1,0.8925,,[],[],[],[],[],[],[],553.4123,555.4126,555.4127,555.4131,[],[],[],[],[],[],[],,555.4132,555.4133,0.190833359,-0.29,0,0,0,,0,119,119,54,1,2,TL,liretal,cursive,liretal_c.png,,,,,,
,,,,31842,001,2025-10-19_11h59.49.312,HW_LDT_1,2024.2.4,Win32,61.72839506,,,,,,,,,,,,,,,,,,,,,555.4148,555.6127,555.6128,556.1126,,,,,,,,,,,,,,1.0567,1,,,,,,,,,,,,,,m,,,,,,,,,,,,,,,,121,0,556.1134,557.1785,m,1,1.0567,,[],[],[],[],[],[],[],557.1787,559.1793,559.1793,559.1795,[],[],[],[],[],[],[],,559.1796,559.1797,0.190833359,-0.29,0,0,0,,0,120,120,94,1,2,word,CLINICAL,cursive,clinical_c.png,,,,,,
,,,,31842,001,2025-10-19_11h59.49.312,HW_LDT_1,2024.2.4,Win32,61.72839506,,,,,,,,,,,,,,,,,,,,,559.1816,559.3793,559.3795,559.8787,,,,,,,,,,,,,,1.2933,0,,,,,,,,,,,,,,m,,,,,,,,,,,,,,,,122,1,559.8795,561.1787,z,0,1.2933,,[],[],[],[],[],[],[],561.1789,563.1794,563.1795,564.1288,[],[],[],[],[],[],[],z,564.1288,564.129,0.190833359,-0.29,0,0,0,,0,121,121,90,1,2,word,CAPITAL,cursive,capital_c.png,0.9403,,,,,
,,,,31842,001,2025-10-19_11h59.49.312,HW_LDT_1,2024.2.4,Win32,61.72839506,,,,,,,,,,,,,,,,,,,,,564.1301,564.3294,564.3295,564.8283,,,,,,,,,,,,,,1.0056,0,,,,,,,,,,,,,,m,,,,,,,,,,,,,,,,123,0,564.8295,565.8456,z,0,1.0056,,[],[],[],[],[],[],[],565.8457,567.8456,567.8456,567.8458,[],[],[],[],[],[],[],,567.8459,567.846,0.190833359,-0.29,0,0,0,,0,122,122,111,1,2,word,INDICATE,cursive,indicate_c.png,,,,,,
,,,,31842,001,2025-10-19_11h59.49.312,HW_LDT_1,2024.2.4,Win32,61.72839506,,,,,,,,,,,,,,,,,,,,,567.8474,568.0453,568.0453,568.5337,,,,,,,,,,,,,,1.3823,0,,,,,,,,,,,,,,z,,,,,,,,,,,,,,,,124,0,568.5348,569.919,m,0,1.3823,,[],[],[],[],[],[],[],569.9191,571.912,571.912,571.9122,[],[],[],[],[],[],[],,571.9122,571.9124,0.190833359,-0.29,0,0,0,,0,123,123,47,1,2,TL,crinimal,cursive,crinimal_c.png,,,,,,
,,,,31842,001,2025-10-19_11h59.49.312,HW_LDT_1,2024.2.4,Win32,61.72839506,,,,,,,,,,,,,,,,,,,,,571.9142,572.1116,572.1116,572.6118,,,,,,,,,,,,,,0.7621,1,,,,,,,,,,,,,,m,,,,,,,,,,,,,,,,125,0,572.6124,573.378,m,1,0.7621,,[],[],[],[],[],[],[],573.3781,575.3783,575.3783,575.3786,[],[],[],[],[],[],[],,575.3786,575.3787,0.190833359,-0.29,0,0,0,,0,124,124,93,1,2,word,CEREMONY,print,ceremony_p.png,,,,,,
,,,,31842,001,2025-10-19_11h59.49.312,HW_LDT_1,2024.2.4,Win32,61.72839506,,,,,,,,,,,,,,,,,,,,,575.3803,575.5834,575.5835,576.0782,,,,,,,,,,,,,,1.4739,1,,,,,,,,,,,,,,m,,,,,,,,,,,,,,,,126,0,576.0788,577.5613,m,1,1.4739,,[],[],[],[],[],[],[],577.5613,579.5614,579.5614,579.5617,[],[],[],[],[],[],[],,579.5617,579.5619,0.190833359,-0.29,0,0,0,,0,125,125,132,1,2,word,PROPOSAL,cursive,proposal_c.png,,,,,,
,,,,31842,001,2025-10-19_11h59.49.312,HW_LDT_1,2024.2.4,Win32,61.72839506,,,,,,,,,,,,,,,,,,,,,579.5635,579.7612,579.7612,580.2613,,,,,,,,,,,,,,1.3478,1,,,,,,,,,,,,,,z,,,,,,,,,,,,,,,,127,0,580.2622,581.6115,z,1,1.3478,,[],[],[],[],[],[],[],581.6116,583.6114,583.6116,583.612,[],[],[],[],[],[],[],,583.612,583.6122,0.190833359,-0.29,0,0,0,,0,126,126,52,1,2,TL,elarobate,cursive,elarobate_c.png,,,,,,
,,,,31842,001,2025-10-19_11h59.49.312,HW_LDT_1,2024.2.4,Win32,61.72839506,,,,,,,,,,,,,,,,,,,,,583.6138,583.8114,583.8115,584.3115,,,,,,,,,,,,,,2.7726,1,,,,,,,,,,,,,,z,,,,,,,,,,,,,,,,128,0,584.3123,587.0947,z,1,2.7726,,[],[],[],[],[],[],[],587.0948,589.0946,589.0948,589.0951,[],[],[],[],[],[],[],,589.0951,589.0953,0.190833359,-0.29,0,0,0,,0,127,127,40,1,2,TL,bevoled,cursive,bevoled_c.png,,,,,,
,,,,31842,001,2025-10-19_11h59.49.312,HW_LDT_1,2024.2.4,Win32,61.72839506,,,,,,,,,,,,,,,,,,,,,589.0969,589.2943,589.2943,589.7942,,,,,,,,,,,,,,0.8548,1,,,,,,,,,,,,,,m,,,,,,,,,,,,,,,,129,0,589.7953,590.6613,m,1,0.8548,,[],[],[],[],[],[],[],590.6614,592.661,592.6611,592.6614,[],[],[],[],[],[],[],,592.6615,592.6617,0.190833359,-0.29,0,0,0,,0,128,128,98,1,2,word,CRIMINAL,cursive,criminal_c.png,,,,,,
,,,,31842,001,2025-10-19_11h59.49.312,HW_LDT_1,2024.2.4,Win32,61.72839506,,,,,,,,,,,,,,,,,,,,,592.6635,592.8607,592.8607,593.3607,,,,,,,,,,,,,,0.6577,1,,,,,,,,,,,,,,z,,,,,,,,,,,,,,,,130,0,593.3616,594.0278,z,1,0.6577,,[],[],[],[],[],[],[],594.0278,596.0275,596.0275,596.0277,[],[],[],[],[],[],[],,596.0278,596.0279,0.190833359,-0.29,0,0,0,,0,129,129,11,1,2,RL,formuke,print,formuke_p.png,,,,,,
,,,,31842,001,2025-10-19_11h59.49.312,HW_LDT_1,2024.2.4,Win32,61.72839506,,,,,,,,,,,,,,,,,,,,,596.0294,596.2274,596.2275,596.7273,,,,,,,,,,,,,,0.7063,0,,,,,,,,,,,,,,m,,,,,,,,,,,,,,,,131,0,596.7281,597.444,z,0,0.7063,,[],[],[],[],[],[],[],597.4442,599.444,599.4441,599.4443,[],[],[],[],[],[],[],,599.4443,599.4445,0.190833359,-0.29,0,0,0,,0,130,130,138,1,2,word,REFUSAL,cursive,refusal_c.png,,,,,,
,,,,31842,001,2025-10-19_11h59.49.312,HW_LDT_1,2024.2.4,Win32,61.72839506,,,,,,,,,,,,,,,,,,,,,599.4459,599.6442,599.6442,600.1332,,,,,,,,,,,,,,0.7982,1,,,,,,,,,,,,,,z,,,,,,,,,,,,,,,,132,0,600.1344,600.9345,z,1,0.7982,,[],[],[],[],[],[],[],600.9346,602.9268,602.9268,602.927,[],[],[],[],[],[],[],,602.9271,602.9272,0.190833359,-0.29,0,0,0,,0,131,131,43,1,2,TL,carema,print,carema_p.png,,,,,,
,,,,31842,001,2025-10-19_11h59.49.312,HW_LDT_1,2024.2.4,Win32,61.72839506,,,,,,,,,,,,,,,,,,,,,602.9288,603.1265,603.1266,603.6267,,,,,,,,,,,,,,0.969,1,,,,,,,,,,,,,,z,,,,,,,,,,,,,,,,133,1,603.6273,604.5977,z,1,0.969,,[],[],[],[],[],[],[],604.5979,606.5934,606.5934,608.0427,[],[],[],[],[],[],[],m,608.0428,608.043,0.190833359,-0.29,0,0,0,,0,132,132,50,1,2,TL,donimant,print,donimant_p.png,1.4467,,,,,
,,,,31842,001,2025-10-19_11h59.49.312,HW_LDT_1,2024.2.4,Win32,61.72839506,,,,,,,,,,,,,,,,,,,,,608.0441,608.2429,608.243,608.7431,,,,,,,,,,,,,,1.2652,1,,,,,,,,,,,,,,m,,,,,,,,,,,,,,,,134,0,608.7435,610.0101,m,1,1.2652,,[],[],[],[],[],[],[],610.0102,612.0098,612.0099,612.0101,[],[],[],[],[],[],[],,612.0102,612.0103,0.190833359,-0.29,0,0,0,,0,133,133,100,1,2,word,DECADE,print,decade_p.png,,,,,,
,,,,31842,001,2025-10-19_11h59.49.312,HW_LDT_1,2024.2.4,Win32,61.72839506,,,,,,,,,,,,,,,,,,,,,612.0122,612.2093,612.2094,612.7095,,,,,,,,,,,,,,0.6963,1,,,,,,,,,,,,,,z,,,,,,,,,,,,,,,,135,1,612.7102,613.4091,z,1,0.6963,,[],[],[],[],[],[],[],613.4092,615.4094,615.4095,616.4426,[],[],[],[],[],[],[],z,616.4428,616.443,0.190833359,-0.29,0,0,0,,0,134,134,74,1,2,TL,rerite,cursive,rerite_c.png,1.0291,,,,,
,,,,31842,001,2025-10-19_11h59.49.312,HW_LDT_1,2024.2.4,Win32,61.72839506,,,,,,,,,,,,,,,,,,,,,616.445,616.6428,616.6429,617.1428,,,,,,,,,,,,,,0.6456,1,,,,,,,,,,,,,,m,,,,,,,,,,,,,,,,136,0,617.1435,617.7928,m,1,0.6456,,[],[],[],[],[],[],[],617.7928,619.7927,619.7928,619.793,[],[],[],[],[],[],[],,619.793,619.7935,0.190833359,-0.29,0,0,0,,0,135,135,129,1,2,word,PARENT,print,parent_p.png,,,,,,
,,,,31842,001,2025-10-19_11h59.49.312,HW_LDT_1,2024.2.4,Win32,61.72839506,,,,,,,,,,,,,,,,,,,,,619.7957,619.9929,619.9929,620.4923,,,,,,,,,,,,,,0.7783,1,,,,,,,,,,,,,,m,,,,,,,,,,,,,,,,137,0,620.4932,621.2759,m,1,0.7783,,[],[],[],[],[],[],[],621.276,623.276,623.2762,623.2764,[],[],[],[],[],[],[],,623.2765,623.2767,0.190833359,-0.29,0,0,0,,0,136,136,136,1,2,word,RADICAL,cursive,radical_c.png,,,,,,
,,,,31842,001,2025-10-19_11h59.49.312,HW_LDT_1,2024.2.4,Win32,61.72839506,,,,,,,,,,,,,,,,,,,,,623.2784,623.4762,623.4762,623.9754,,,,,,,,,,,,,,1.323,0,,,,,,,,,,,,,,m,,,,,,,,,,,,,,,,138,0,623.976,625.3094,z,0,1.323,,[],[],[],[],[],[],[],625.3096,627.3082,627.3083,627.3083,[],[],[],[],[],[],[],,627.3084,627.3084,0.190833359,-0.29,0,0,0,,0,137,137,103,1,2,word,DISPUTE,cursive,dispute_c.png,,,,,,
,,,,31842,001,2025-10-19_11h59.49.312,HW_LDT_1,2024.2.4,Win32,61.72839506,,,,,,,,,,,,,,,,,,,,,627.3089,627.5086,627.5087,628.0087,,,,,,,,,,,,,,1.0044,1,,,,,,,,,,,,,,z,,,,,,,,,,,,,,,,139,0,628.0099,629.0257,z,1,1.0044,,[],[],[],[],[],[],[],629.0257,631.0259,631.0259,631.0261,[],[],[],[],[],[],[],,631.0262,631.0263,0.190833359,-0.29,0,0,0,,0,138,138,18,1,2,RL,mesibine,print,mesibine_p.png,,,,,,
,,,,31842,001,2025-10-19_11h59.49.312,HW_LDT_1,2024.2.4,Win32,61.72839506,,,,,,,,,,,,,,,,,,,,,631.0278,631.2257,631.2257,631.7255,,,,,,,,,,,,,,0.6397,1,,,,,,,,,,,,,,m,,,,,,,,,,,,,,,,140,0,631.7265,632.3755,m,1,0.6397,,[],[],[],[],[],[],[],632.3756,634.3754,634.3755,634.376,[],[],[],[],[],[],[],,634.376,634.3762,0.190833359,-0.29,0,0,0,,0,139,139,149,1,2,word,SENATOR,print,senator_p.png,,,,,,
,,,,31842,001,2025-10-19_11h59.49.312,HW_LDT_1,2024.2.4,Win32,61.72839506,,,,,,,,,,,,,,,,,,,,,634.3779,634.5755,634.5756,635.075,,,,,,,,,,,,,,0.8616,1,,,,,,,,,,,,,,z,,,,,,,,,,,,,,,,141,0,635.0758,635.9419,z,1,0.8616,,[],[],[],[],[],[],[],635.9422,637.9418,637.9418,637.9421,[],[],[],[],[],[],[],,637.9422,637.9424,0.190833359,-0.29,0,0,0,,0,140,140,33,1,2,RL,strapely,cursive,strapely_c.png,,,,,,
,,,,31842,001,2025-10-19_11h59.49.312,HW_LDT_1,2024.2.4,Win32,61.72839506,,,,,,,,,,,,,,,,,,,,,637.944,638.1417,638.1418,638.6422,,,,,,,,,,,,,,1.2557,1,,,,,,,,,,,,,,m,,,,,,,,,,,,,,,,142,1,638.6428,639.9083,m,1,1.2557,,[],[],[],[],[],[],[],639.9084,641.9081,641.9082,642.6577,[],[],[],[],[],[],[],z,642.658,642.6582,0.190833359,-0.29,0,0,0,,0,141,141,109,1,2,word,GRATEFUL,cursive,grateful_c.png,0.7483,,,,,
,,,,31842,001,2025-10-19_11h59.49.312,HW_LDT_1,2024.2.4,Win32,61.72839506,,,,,,,,,,,,,,,,,,,,,642.6593,642.8583,642.8583,643.3582,,,,,,,,,,,,,,0.7042,1,,,,,,,,,,,,,,m,,,,,,,,,,,,,,,,143,1,643.3594,644.0749,m,1,0.7042,,[],[],[],[],[],[],[],644.075,646.0749,646.0751,646.9909,[],[],[],[],[],[],[],m,646.991,646.9911,0.190833359,-0.29,0,0,0,,0,142,142,112,1,2,word,LIBERAL,print,liberal_p.png,0.9053,,,,,
,,,,31842,001,2025-10-19_11h59.49.312,HW_LDT_1,2024.2.4,Win32,61.72839506,,,,,,,,,,,,,,,,,,,,,646.9927,647.191,647.1911,647.6911,,,,,,,,,,,,,,1.4054,1,,,,,,,,,,,,,,m,,,,,,,,,,,,,,,,144,0,647.6922,649.1079,m,1,1.4054,,[],[],[],[],[],[],[],649.1081,651.1075,651.1076,651.1077,[],[],[],[],[],[],[],,651.1078,651.1082,0.190833359,-0.29,0,0,0,,0,143,143,150,1,2,word,SENTIMENT,cursive,sentiment_c.png,,,,,,
,,,,31842,001,2025-10-19_11h59.49.312,HW_LDT_1,2024.2.4,Win32,61.72839506,,,,,,,,,,,,,,,,,,,,,651.1109,651.3069,651.3069,651.8074,,,,,,,,,,,,,,1.6398,1,,,,,,,,,,,,,,m,,,,,,,,,,,,,,,,145,0,651.808,653.4579,m,1,1.6398,,[],[],[],[],[],[],[],653.458,655.4575,655.4576,655.4579,[],[],[],[],[],[],[],,655.458,655.4582,0.190833359,-0.29,0,0,0,,0,144,144,107,1,2,word,EVIDENT,cursive,evident_c.png,,,,,,
,,,,31842,001,2025-10-19_11h59.49.312,HW_LDT_1,2024.2.4,Win32,61.72839506,,,,,,,,,,,,,,,,,,,,,655.4598,655.6576,655.6577,656.1575,,,,,,,,,,,,,,1.1234,1,,,,,,,,,,,,,,z,,,,,,,,,,,,,,,,146,1,656.1581,657.2904,z,1,1.1234,,[],[],[],[],[],[],[],657.2905,659.2906,659.2906,660.0567,[],[],[],[],[],[],[],z,660.0568,660.057,0.190833359,-0.29,0,0,0,,0,145,145,65,1,2,TL,polupar,cursive,polupar_c.png,0.7614,,,,,
,,,,31842,001,2025-10-19_11h59.49.312,HW_LDT_1,2024.2.4,Win32,61.72839506,,,,,,,,,,,,,,,,,,,,,660.0582,660.257,660.2571,660.7569,,,,,,,,,,,,,,0.6817,1,,,,,,,,,,,,,,z,,,,,,,,,,,,,,,,147,0,660.7575,661.4408,z,1,0.6817,,[],[],[],[],[],[],[],661.4408,663.44,663.4401,663.4403,[],[],[],[],[],[],[],,663.4403,663.4404,0.190833359,-0.29,0,0,0,,0,146,146,8,1,2,RL,desifate,print,desifate_p.png,,,,,,
,,,,31842,001,2025-10-19_11h59.49.312,HW_LDT_1,2024.2.4,Win32,61.72839506,,,,,,,,,,,,,,,,,,,,,663.442,663.6402,663.6402,664.1401,,,,,,,,,,,,,,0.6886,0,,,,,,,,,,,,,,z,,,,,,,,,,,,,,,,148,0,664.1408,664.8401,m,0,0.6886,,[],[],[],[],[],[],[],664.8401,666.8397,666.8397,666.84,[],[],[],[],[],[],[],,666.8401,666.8402,0.190833359,-0.29,0,0,0,,0,147,147,30,1,2,RL,selamor,print,selamor_p.png,,,,,,
,,,,31842,001,2025-10-19_11h59.49.312,HW_LDT_1,2024.2.4,Win32,61.72839506,,,,,,,,,,,,,,,,,,,,,666.8417,667.0401,667.0401,667.5398,,,,,,,,,,,,,,1.1602,0,,,,,,,,,,,,,,m,,,,,,,,,,,,,,,,149,0,667.5402,668.7072,z,0,1.1602,,[],[],[],[],[],[],[],668.7073,670.7068,670.7068,670.707,[],[],[],[],[],[],[],,670.707,670.7071,0.190833359,-0.29,0,0,0,,0,148,148,121,1,2,word,MISTAKE,cursive,mistake_c.png,,,,,,
,,,,31842,001,2025-10-19_11h59.49.312,HW_LDT_1,2024.2.4,Win32,61.72839506,,,,,,,,,,,,,,,,,,,,,670.7087,670.9068,670.9068,671.4068,,,,,,,,,,,,,,0.802,1,,,,,,,,,,,,,,z,,,,,,,,,,,,,,,,150,0,671.4074,672.2115,z,1,0.802,,[],[],[],[],[],[],[],672.2117,674.2064,674.2065,674.2067,[],[],[],[],[],[],[],,674.2067,674.2068,0.190833359,-0.29,0,0,0,,0,149,149,9,1,2,RL,denficy,print,denficy_p.png,,,,,,
,,,,31842,001,2025-10-19_11h59.49.312,HW_LDT_1,2024.2.4,Win32,61.72839506,,,,,,,,,,,,,,,,,,,,,674.208,674.4055,674.4056,674.9061,,,,,,,,,,,,,,0.823,1,,,,,,,,,,,,,,z,,,,,,,,,,,,,,,,151,0,674.9067,675.7399,z,1,0.823,,[],[],[],[],[],[],[],675.74,677.7396,677.7396,677.7399,[],[],[],[],[],[],[],,677.7399,677.7401,0.190833359,-0.29,0,0,0,,0,150,150,72,1,2,TL,revomal,print,revomal_p.png,,,,,,
,,,,31842,001,2025-10-19_11h59.49.312,HW_LDT_1,2024.2.4,Win32,61.72839506,,,,,,,,,,,,,,,,,,,,,677.7421,677.9396,677.9397,678.4398,,,,,,,,,,,,,,0.6051,1,,,,,,,,,,,,,,z,,,,,,,,,,,,,,,,152,0,678.4405,679.0563,z,1,0.6051,,[],[],[],[],[],[],[],679.0563,681.0565,681.0565,681.0568,[],[],[],[],[],[],[],,681.0568,681.057,0.190833359,-0.29,0,0,0,,0,151,151,32,1,2,RL,speniven,print,speniven_p.png,,,,,,
,,,,31842,001,2025-10-19_11h59.49.312,HW_LDT_1,2024.2.4,Win32,61.72839506,,,,,,,,,,,,,,,,,,,,,681.0587,681.2554,681.2554,681.7558,,,,,,,,,,,,,,1.3911,1,,,,,,,,,,,,,,z,,,,,,,,,,,,,,,,153,0,681.7566,683.1562,z,1,1.3911,,[],[],[],[],[],[],[],683.1563,685.1561,685.1562,685.1562,[],[],[],[],[],[],[],,685.1563,685.1564,0.190833359,-0.29,0,0,0,,0,152,152,12,1,2,RL,gralekul,cursive,gralekul_c.png,,,,,,
,,,,31842,001,2025-10-19_11h59.49.312,HW_LDT_1,2024.2.4,Win32,61.72839506,,,,,,,,,,,,,,,,,,,,,685.158,685.3552,685.3552,685.8556,,,,,,,,,,,,,,1.0245,1,,,,,,,,,,,,,,m,,,,,,,,,,,,,,,,154,1,685.8563,686.8894,m,1,1.0245,,[],[],[],[],[],[],[],686.8895,688.8889,688.8889,690.2056,[],[],[],[],[],[],[],z,690.2057,690.2058,0.190833359,-0.29,0,0,0,,0,153,153,83,1,2,word,ANIMAL,print,animal_p.png,1.3074,,,,,
,,,,31842,001,2025-10-19_11h59.49.312,HW_LDT_1,2024.2.4,Win32,61.72839506,,,,,,,,,,,,,,,,,,,,,690.2075,690.4056,690.4056,690.906,,,,,,,,,,,,,,1.0062,1,,,,,,,,,,,,,,z,,,,,,,,,,,,,,,,155,1,690.9067,691.9224,z,1,1.0062,,[],[],[],[],[],[],[],691.9225,693.9218,693.9219,694.8889,[],[],[],[],[],[],[],z,694.889,694.8891,0.190833359,-0.29,0,0,0,,0,154,154,28,1,2,RL,revune,cursive,revune_c.png,0.9585,,,,,
,,,,31842,001,2025-10-19_11h59.49.312,HW_LDT_1,2024.2.4,Win32,61.72839506,,,,,,,,,,,,,,,,,,,,,694.891,695.0888,695.0888,695.5884,,,,,,,,,,,,,,0.8581,1,,,,,,,,,,,,,,m,,,,,,,,,,,,,,,,156,0,695.5889,696.4555,m,1,0.8581,,[],[],[],[],[],[],[],696.4556,698.4551,698.4551,698.4555,[],[],[],[],[],[],[],,698.4555,698.4559,0.190833359,-0.29,0,0,0,,0,155,155,115,1,2,word,LOGICAL,print,logical_p.png,,,,,,
,,,,31842,001,2025-10-19_11h59.49.312,HW_LDT_1,2024.2.4,Win32,61.72839506,,,,,,,,,,,,,,,,,,,,,698.4579,698.6554,698.6554,699.1545,,,,,,,,,,,,,,1.2757,1,,,,,,,,,,,,,,z,,,,,,,,,,,,,,,,157,0,699.1547,700.4383,z,1,1.2757,,[],[],[],[],[],[],[],700.4385,702.4378,702.4379,702.4381,[],[],[],[],[],[],[],,702.4381,702.4381,0.190833359,-0.29,0,0,0,,0,156,156,62,1,2,TL,opmital,cursive,opmital_c.png,,,,,,
,,,,31842,001,2025-10-19_11h59.49.312,HW_LDT_1,2024.2.4,Win32,61.72839506,,,,,,,,,,,,,,,,,,,,,702.4387,702.6387,702.6388,703.1387,,,,,,,,,,,,,,0.7356,1,,,,,,,,,,,,,,m,,,,,,,,,,,,,,,,158,1,703.1397,703.8769,m,1,0.7356,,[],[],[],[],[],[],[],703.877,705.8717,705.8717,707.1882,[],[],[],[],[],[],[],m,707.1882,707.1884,0.190833359,-0.29,0,0,0,,0,157,157,147,1,2,word,ROMANTIC,print,romantic_p.png,1.3125,,,,,
,,,,31842,001,2025-10-19_11h59.49.312,HW_LDT_1,2024.2.4,Win32,61.72839506,,,,,,,,,,,,,,,,,,,,,707.1904,707.3765,707.3765,707.8877,,,,,,,,,,,,,,1.4483,1,,,,,,,,,,,,,,z,,,,,,,,,,,,,,,,159,0,707.8883,709.3378,z,1,1.4483,,[],[],[],[],[],[],[],709.3379,711.3382,711.3384,711.3386,[],[],[],[],[],[],[],,711.3387,711.339,0.190833359,-0.29,0,0,0,,0,158,158,61,1,2,TL,nuremical,cursive,nuremical_c.png,,,,,,
,,,,31842,001,2025-10-19_11h59.49.312,HW_LDT_1,2024.2.4,Win32,61.72839506,,,,,,,,,,,,,,,,,,,,,711.3414,711.5382,711.5385,712.0376,,,,,,,,,,,,,,1.3805,1,,,,,,,,,,,,,,z,,,,,,,,,,,,,,,,160,0,712.0384,713.4207,z,1,1.3805,,[],[],[],[],[],[],[],713.4207,715.4213,715.4213,715.4218,[],[],[],[],[],[],[],,715.4219,715.422,0.190833359,-0.29,0,0,0,,0,159,159,34,1,2,RL,trilude,cursive,trilude_c.png,,,,,,
,,,,31842,001,2025-10-19_11h59.49.312,HW_LDT_1,2024.2.4,Win32,61.72839506,,,,,,,,,,,,,,,,,,,,,,,,,,,,,,,,,,,,,,,,,,,,,,,,,,,,,,,,,,,,,,,,,,,,,,,,,,,,,,,,,,,,,,,,,,,,,,,,,,,,,,,,,,,,,,,,,,,,,,715.4346,720.4279
