counterbalance_lists.group,counterbalance_lists.remaining,get_list.started,get_list.stopped,participant,session,date,expName,psychopyVersion,OS,frameRate,Instructions.started,Instructions.stopped,key_resp.keys,instr_done_touch.x,instr_done_touch.y,instr_done_touch.leftButton,instr_done_touch.midButton,instr_done_touch.rightButton,instr_done_touch.clicked_name,start_instr.thisRepN,start_instr.thisTrialN,start_instr.thisN,start_instr.thisIndex,start_instr.ran,pageN,phase,instruct_text,has_image,instruct_image,showProgress.started,showProgress.stopped,fix.started,fix.stopped,prac.started,prac.stopped,response.keys,response.corr,response.rt,response.duration,touch_resp.x,touch_resp.y,touch_resp.leftButton,touch_resp.midButton,touch_resp.rightButton,touch_resp.time,touch_resp.clicked_name,rt,corr,feedback.started,feedback.stopped,trials.thisRepN,trials.thisTrialN,trials.thisN,trials.thisIndex,trials.ran,TrialID,StimulusType,Condition,PrimeDuration,Prime,Target,corrAns,Instructions_expt.started,Instructions_expt.stopped,key_resp_3.keys,key_resp_3.rt,key_resp_3.duration,instr_done_touch_3.x,instr_done_touch_3.y,instr_done_touch_3.leftButton,instr_done_touch_3.midButton,instr_done_touch_3.rightButton,instr_experiment.thisRepN,instr_experiment.thisTrialN,instr_experiment.thisN,instr_experiment.thisIndex,instr_experiment.ran,trialID,flag,maintask.started,maintask.stopped,key_resp_2.keys,key_resp_2.corr,key_resp_2.rt,key_resp_2.duration,targ_click.x,targ_click.y,targ_click.leftButton,targ_click.midButton,targ_click.rightButton,targ_click.time,targ_click.clicked_name,ITI.started,ITI.stopped,probe.started,probe.stopped,click_probe.x,click_probe.y,click_probe.leftButton,click_probe.midButton,click_probe.rightButton,click_probe.time,click_probe.clicked_name,key_resp_probe.keys,Break.started,Break.stopped,break_done_touch.x,break_done_touch.y,break_done_touch.leftButton,break_done_touch.midButton,break_done_touch.rightButton,break_done_keyboard.keys,list3_trials.thisRepN,list3_trials.thisTrialN,list3_trials.thisN,list3_trials.thisIndex,list3_trials.ran,list_id,item_type,string,font,stim_file,key_resp_probe.rt,key_resp_probe.duration,break_done_keyboard.rt,break_done_keyboard.duration,End.started,End.stopped
list3,,0.4511,0.4514,31849,001,2025-10-19_19h58.34.145,HW_LDT_1,2024.2.4,MacIntel,59.88023952,,,,,,,,,,,,,,,,,,,,,,,,,,,,,,,,,,,,,,,,,,,,,,,,,,,,,,,,,,,,,,,,,,,,,,,,,,,,,,,,,,,,,,,,,,,,,,,,,,,,,,,,,,,,,,,,,,,,,,
,,,,31849,001,2025-10-19_19h58.34.145,HW_LDT_1,2024.2.4,MacIntel,59.88023952,0.4713,35.3878,,0.073489583,-0.405963542,1,0,0,instr_done_button,0,0,0,0,1,1,instructions,"INSTRUCTIONS
At the start of each trial, look at the plus sign  (+) in the center of the screen.  This tells you that a trial is about to begin and where to look. Second, the plus sign will disappear and a string of letters will appear. Your task is to determine if the string of letters is a word or not. If the item is a word press the M key (on keyboard)  or touch the word button (phone/tablet).  If the item is not a word,  press the  Z key (on keyboard)  or touch the nonword button (on phone/tablet). The items will be presented for a short time. 
Press the space bar or touch  continue.",0,,,,,,,,,,,,,,,,,,,,,,,,,,,,,,,,,,,,,,,,,,,,,,,,,,,,,,,,,,,,,,,,,,,,,,,,,,,,,,,,,,,,,,,,,,,,,,,,,,,,
,,,,31849,001,2025-10-19_19h58.34.145,HW_LDT_1,2024.2.4,MacIntel,59.88023952,35.3891,38.8705,,0.073489583,-0.405963542,1,0,0,instr_done_button,0,1,1,1,1,2,instructions,"If your device has a keyboard, press the 'Z' key for nonwords and the 'M' key for words.





Press the space bar or touch the button below to continue.",0,keyboard-example.gif,,,,,,,,,,,,,,,,,,,,,,,,,,,,,,,,,,,,,,,,,,,,,,,,,,,,,,,,,,,,,,,,,,,,,,,,,,,,,,,,,,,,,,,,,,,,,,,,,,,
,,,,31849,001,2025-10-19_19h58.34.145,HW_LDT_1,2024.2.4,MacIntel,59.88023952,38.8714,40.5529,,0.073489583,-0.405963542,1,0,0,instr_done_button,0,2,2,2,1,3,instructions,"If you are using a touchscreen only device, use the buttons on the screen. Do not use the mouse.





Press the space bar or touch the button below to continue.",0,touchscreen-example.gif,,,,,,,,,,,,,,,,,,,,,,,,,,,,,,,,,,,,,,,,,,,,,,,,,,,,,,,,,,,,,,,,,,,,,,,,,,,,,,,,,,,,,,,,,,,,,,,,,,,
,,,,31849,001,2025-10-19_19h58.34.145,HW_LDT_1,2024.2.4,MacIntel,59.88023952,40.5545,51.0208,,0.073489583,-0.405707465,1,0,0,instr_done_button,0,3,3,3,1,4,instructions,"It is very important that you respond as quickly and accurately as possible, as each letter string will only be on the screen for two seconds. If you do not respond within this time, the message 'Too slow!' will be displayed and the experiment will progress to the next letter string. The first 20 trials will be practice trials and you will receive feedback on your answers. 

Press the space bar or touch the button below to start the practice trials.",0,,,,,,,,,,,,,,,,,,,,,,,,,,,,,,,,,,,,,,,,,,,,,,,,,,,,,,,,,,,,,,,,,,,,,,,,,,,,,,,,,,,,,,,,,,,,,,,,,,,,
,,,,31849,001,2025-10-19_19h58.34.145,HW_LDT_1,2024.2.4,MacIntel,59.88023952,,,,,,,,,,,,,,,,,,,,51.0433,51.2208,51.221,51.7211,51.7214,56.3538,m,1,4.6034,,[],[],[],[],[],[],[],4.6034,1,56.3541,56.8548,0,0,0,3,1,1004,WORD,"ID",16,matrix,MATRIX,m,,,,,,,,,,,,,,,,,,,,,,,,,,,,,,,,,,,,,,,,,,,,,,,,,,,,,,,,,,,,,,,,,,
,,,,31849,001,2025-10-19_19h58.34.145,HW_LDT_1,2024.2.4,MacIntel,59.88023952,,,,,,,,,,,,,,,,,,,,56.8561,57.0535,57.0536,57.5545,57.5555,59.537,z,1,1.9608,,[],[],[],[],[],[],[],1.9608,1,59.5371,60.0382,0,1,1,13,1,1014,NW,UN,33,winfer,ROUPET,z,,,,,,,,,,,,,,,,,,,,,,,,,,,,,,,,,,,,,,,,,,,,,,,,,,,,,,,,,,,,,,,,,,
,,,,31849,001,2025-10-19_19h58.34.145,HW_LDT_1,2024.2.4,MacIntel,59.88023952,,,,,,,,,,,,,,,,,,,,60.0395,60.238,60.238,60.7379,60.7387,62.0371,z,1,1.2779,,[],[],[],[],[],[],[],1.2779,1,62.0371,62.5381,0,2,2,10,1,1011,NW,"ID",16,inlade,INLADE,z,,,,,,,,,,,,,,,,,,,,,,,,,,,,,,,,,,,,,,,,,,,,,,,,,,,,,,,,,,,,,,,,,,
,,,,31849,001,2025-10-19_19h58.34.145,HW_LDT_1,2024.2.4,MacIntel,59.88023952,,,,,,,,,,,,,,,,,,,,62.5392,62.7381,62.7382,63.2369,63.2373,64.7881,z,1,1.5326,,[],[],[],[],[],[],[],1.5326,1,64.7882,65.2873,0,3,3,14,1,1015,NW,UN,16,miaber,THRALE,z,,,,,,,,,,,,,,,,,,,,,,,,,,,,,,,,,,,,,,,,,,,,,,,,,,,,,,,,,,,,,,,,,,
,,,,31849,001,2025-10-19_19h58.34.145,HW_LDT_1,2024.2.4,MacIntel,59.88023952,,,,,,,,,,,,,,,,,,,,65.2885,65.4872,65.4872,65.9882,65.9889,66.9213,m,1,0.9169,,[],[],[],[],[],[],[],0.9169,1,66.9214,67.4216,0,4,4,0,1,1001,WORD,"ID",33,utopia,UTOPIA,m,,,,,,,,,,,,,,,,,,,,,,,,,,,,,,,,,,,,,,,,,,,,,,,,,,,,,,,,,,,,,,,,,,
,,,,31849,001,2025-10-19_19h58.34.145,HW_LDT_1,2024.2.4,MacIntel,59.88023952,,,,,,,,,,,,,,,,,,,,67.4226,67.6217,67.6217,68.1216,68.1223,69.4883,m,1,1.3436,,[],[],[],[],[],[],[],1.3436,1,69.4884,69.9882,0,5,5,7,1,1008,WORD,UN,16,hurdle,VOLUME,m,,,,,,,,,,,,,,,,,,,,,,,,,,,,,,,,,,,,,,,,,,,,,,,,,,,,,,,,,,,,,,,,,,
,,,,31849,001,2025-10-19_19h58.34.145,HW_LDT_1,2024.2.4,MacIntel,59.88023952,,,,,,,,,,,,,,,,,,,,69.9892,70.1873,70.1873,70.6882,70.689,71.7052,z,1,1.0066,,[],[],[],[],[],[],[],1.0066,1,71.7053,72.205,0,6,6,15,1,1016,NW,UN,16,mushed,WHAISE,z,,,,,,,,,,,,,,,,,,,,,,,,,,,,,,,,,,,,,,,,,,,,,,,,,,,,,,,,,,,,,,,,,,
,,,,31849,001,2025-10-19_19h58.34.145,HW_LDT_1,2024.2.4,MacIntel,59.88023952,,,,,,,,,,,,,,,,,,,,72.2058,72.4051,72.4051,72.9041,72.9047,73.6217,m,1,0.6971,,[],[],[],[],[],[],[],0.6971,1,73.6218,74.1217,0,7,7,5,1,1006,WORD,UN,33,frenzy,OBTAIN,m,,,,,,,,,,,,,,,,,,,,,,,,,,,,,,,,,,,,,,,,,,,,,,,,,,,,,,,,,,,,,,,,,,
,,,,31849,001,2025-10-19_19h58.34.145,HW_LDT_1,2024.2.4,MacIntel,59.88023952,,,,,,,,,,,,,,,,,,,,74.1229,74.3207,74.3207,74.8208,74.8216,76.1044,z,1,1.2744,,[],[],[],[],[],[],[],1.2744,1,76.1047,76.605,0,8,8,9,1,1010,NW,"ID",33,fariny,FARINY,z,,,,,,,,,,,,,,,,,,,,,,,,,,,,,,,,,,,,,,,,,,,,,,,,,,,,,,,,,,,,,,,,,,
,,,,31849,001,2025-10-19_19h58.34.145,HW_LDT_1,2024.2.4,MacIntel,59.88023952,,,,,,,,,,,,,,,,,,,,76.6059,76.8051,76.8052,77.3041,77.3047,78.4885,z,1,1.1758,,[],[],[],[],[],[],[],1.1758,1,78.4887,78.988,0,9,9,8,1,1009,NW,"ID",33,aslert,ASLERT,z,,,,,,,,,,,,,,,,,,,,,,,,,,,,,,,,,,,,,,,,,,,,,,,,,,,,,,,,,,,,,,,,,,
,,,,31849,001,2025-10-19_19h58.34.145,HW_LDT_1,2024.2.4,MacIntel,59.88023952,,,,,,,,,,,,,,,,,,,,78.9891,79.1875,79.1876,79.6875,79.6883,80.5385,m,1,0.8285,,[],[],[],[],[],[],[],0.8285,1,80.5386,81.0386,0,10,10,4,1,1005,WORD,UN,33,abound,SQUEAK,m,,,,,,,,,,,,,,,,,,,,,,,,,,,,,,,,,,,,,,,,,,,,,,,,,,,,,,,,,,,,,,,,,,
,,,,31849,001,2025-10-19_19h58.34.145,HW_LDT_1,2024.2.4,MacIntel,59.88023952,,,,,,,,,,,,,,,,,,,,81.0396,81.2385,81.2386,81.7376,81.7382,82.5885,z,1,0.831,,[],[],[],[],[],[],[],0.831,1,82.5887,83.0886,0,11,11,11,1,1012,NW,"ID",16,rashet,RASHET,z,,,,,,,,,,,,,,,,,,,,,,,,,,,,,,,,,,,,,,,,,,,,,,,,,,,,,,,,,,,,,,,,,,
,,,,31849,001,2025-10-19_19h58.34.145,HW_LDT_1,2024.2.4,MacIntel,59.88023952,,,,,,,,,,,,,,,,,,,,83.0897,83.2885,83.2885,83.7877,83.7884,84.5387,m,1,0.7337,,[],[],[],[],[],[],[],0.7337,1,84.5387,85.0387,0,12,12,6,1,1007,WORD,UN,16,tropic,ZOMBIE,m,,,,,,,,,,,,,,,,,,,,,,,,,,,,,,,,,,,,,,,,,,,,,,,,,,,,,,,,,,,,,,,,,,
,,,,31849,001,2025-10-19_19h58.34.145,HW_LDT_1,2024.2.4,MacIntel,59.88023952,,,,,,,,,,,,,,,,,,,,85.0397,85.2384,85.2384,85.7377,85.7385,86.3556,m,1,0.5959,,[],[],[],[],[],[],[],0.5959,1,86.3556,86.8555,0,13,13,1,1,1002,WORD,"ID",33,adjust,ADJUST,m,,,,,,,,,,,,,,,,,,,,,,,,,,,,,,,,,,,,,,,,,,,,,,,,,,,,,,,,,,,,,,,,,,
,,,,31849,001,2025-10-19_19h58.34.145,HW_LDT_1,2024.2.4,MacIntel,59.88023952,,,,,,,,,,,,,,,,,,,,86.8566,87.0555,87.0556,87.5555,87.5562,88.8878,z,1,1.3226,,[],[],[],[],[],[],[],1.3226,1,88.8878,89.3878,0,14,14,12,1,1013,NW,UN,33,adveil,SPRINY,z,,,,,,,,,,,,,,,,,,,,,,,,,,,,,,,,,,,,,,,,,,,,,,,,,,,,,,,,,,,,,,,,,,
,,,,31849,001,2025-10-19_19h58.34.145,HW_LDT_1,2024.2.4,MacIntel,59.88023952,,,,,,,,,,,,,,,,,,,,89.3888,89.5888,89.5888,90.0889,90.0896,90.738,m,1,0.6298,,[],[],[],[],[],[],[],0.6298,1,90.7381,91.2379,0,15,15,2,1,1003,WORD,"ID",16,almond,ALMOND,m,,,,,,,,,,,,,,,,,,,,,,,,,,,,,,,,,,,,,,,,,,,,,,,,,,,,,,,,,,,,,,,,,,
,,,,31849,001,2025-10-19_19h58.34.145,HW_LDT_1,2024.2.4,MacIntel,59.88023952,,,,,,,,,,,,,,,1,end_of_practice,"You have completed the practice trials. During the experimental trials, you will not receive feedback. On some trials you will be asked to report whether the item you just saw was in cursive or print. 
Before you begin, please ensure that you are in a comfortable and quiet location and will not be disturbed for about 15 minutes, as we cannot use your data if you do not complete all the trials. 
 When you are ready to start the experimental trials, please press space or touch the button below.",,,,,,,,,,,,,,,,,,,,,,,,,,,,,,,,,,,,91.2445,104.0058,space,12.7354,,0.071627604,-0.405447049,0,0,0,0,0,0,0,1,,,,,,,,,,,,,,,,,,,,,,,,,,,,,,,,,,,,,,,,,,,,,,,,,,,
,,,,31849,001,2025-10-19_19h58.34.145,HW_LDT_1,2024.2.4,MacIntel,59.88023952,,,,,,,,,,,,,,,,,,,,104.0224,104.2058,104.206,104.706,,,,,,,,,,,,,,1.7528,1,,,,,,,,,,,,,,m,,,,,,,,,,,,,,,,1,0,104.7074,106.4719,m,1,1.7528,,[],[],[],[],[],[],[],106.4721,108.473,108.4733,108.4761,[],[],[],[],[],[],[],,108.4763,108.4781,0.071627604,-0.405447049,0,0,0,,0,0,0,113,1,3,word,LITERAL,print,literal_p.png,,,,,,
,,,,31849,001,2025-10-19_19h58.34.145,HW_LDT_1,2024.2.4,MacIntel,59.88023952,,,,,,,,,,,,,,,,,,,,108.479,108.6723,108.6723,109.174,,,,,,,,,,,,,,1.3332,1,,,,,,,,,,,,,,m,,,,,,,,,,,,,,,,2,1,109.1745,110.5218,m,1,1.3332,,[],[],[],[],[],[],[],110.5219,112.5228,112.5229,115.6063,[],[],[],[],[],[],[],m,115.6064,115.6064,0.071627604,-0.405447049,0,0,0,,0,1,1,105,1,3,word,EDITOR,print,editor_p.png,3.0697,,,,,
,,,,31849,001,2025-10-19_19h58.34.145,HW_LDT_1,2024.2.4,MacIntel,59.88023952,,,,,,,,,,,,,,,,,,,,115.6074,115.8062,115.8063,116.3062,,,,,,,,,,,,,,3.2815,1,,,,,,,,,,,,,,z,,,,,,,,,,,,,,,,3,0,116.3067,119.5897,z,1,3.2815,,[],[],[],[],[],[],[],119.5899,121.5897,121.5898,121.5901,[],[],[],[],[],[],[],,121.5901,121.5902,0.071627604,-0.405447049,0,0,0,,0,2,2,33,1,3,TL,adsivory,print,adsivory_p.png,,,,,,
,,,,31849,001,2025-10-19_19h58.34.145,HW_LDT_1,2024.2.4,MacIntel,59.88023952,,,,,,,,,,,,,,,,,,,,121.5913,121.7897,121.7897,122.2899,,,,,,,,,,,,,,2.9858,1,,,,,,,,,,,,,,z,,,,,,,,,,,,,,,,4,0,122.2904,125.2899,z,1,2.9858,,[],[],[],[],[],[],[],125.2901,127.2891,127.2891,127.2894,[],[],[],[],[],[],[],,127.2894,127.2895,0.071627604,-0.405447049,0,0,0,,0,3,3,4,1,3,RL,cafigal,cursive,cafigal_c.png,,,,,,
,,,,31849,001,2025-10-19_19h58.34.145,HW_LDT_1,2024.2.4,MacIntel,59.88023952,,,,,,,,,,,,,,,,,,,,127.2908,127.4891,127.4891,127.99,,,,,,,,,,,,,,4.2551,0,,,,,,,,,,,,,,z,,,,,,,,,,,,,,,,5,0,127.9904,132.2567,m,0,4.2551,,[],[],[],[],[],[],[],132.2568,134.2569,134.2569,134.257,[],[],[],[],[],[],[],,134.257,134.2572,0.071627604,-0.405447049,0,0,0,,0,4,4,5,1,3,RL,capefory,cursive,capefory_c.png,,,,,,
,,,,31849,001,2025-10-19_19h58.34.145,HW_LDT_1,2024.2.4,MacIntel,59.88023952,,,,,,,,,,,,,,,,,,,,134.2582,134.4569,134.457,134.9559,,,,,,,,,,,,,,1.6553,1,,,,,,,,,,,,,,z,,,,,,,,,,,,,,,,6,0,134.9565,136.6235,z,1,1.6553,,[],[],[],[],[],[],[],136.6236,138.6236,138.6238,138.6239,[],[],[],[],[],[],[],,138.6241,138.6241,0.071627604,-0.405447049,0,0,0,,0,5,5,46,1,3,TL,distupe,print,distupe_p.png,,,,,,
,,,,31849,001,2025-10-19_19h58.34.145,HW_LDT_1,2024.2.4,MacIntel,59.88023952,,,,,,,,,,,,,,,,,,,,138.6249,138.8236,138.8237,139.3227,,,,,,,,,,,,,,1.3043,1,,,,,,,,,,,,,,m,,,,,,,,,,,,,,,,7,0,139.3231,140.6403,m,1,1.3043,,[],[],[],[],[],[],[],140.6404,142.6405,142.6405,142.6407,[],[],[],[],[],[],[],,142.6407,142.6409,0.071627604,-0.405447049,0,0,0,,0,6,6,104,1,3,word,DOMINANT,print,dominant_p.png,,,,,,
,,,,31849,001,2025-10-19_19h58.34.145,HW_LDT_1,2024.2.4,MacIntel,59.88023952,,,,,,,,,,,,,,,,,,,,142.6419,142.8403,142.8404,143.3404,,,,,,,,,,,,,,3.8736,1,,,,,,,,,,,,,,z,,,,,,,,,,,,,,,,8,0,143.3409,147.2238,z,1,3.8736,,[],[],[],[],[],[],[],147.2239,149.224,149.224,149.2242,[],[],[],[],[],[],[],,149.2242,149.2244,0.071627604,-0.405447049,0,0,0,,0,7,7,76,1,3,TL,stogare,cursive,stogare_c.png,,,,,,
,,,,31849,001,2025-10-19_19h58.34.145,HW_LDT_1,2024.2.4,MacIntel,59.88023952,,,,,,,,,,,,,,,,,,,,149.2253,149.4239,149.4239,149.9229,,,,,,,,,,,,,,0.9489,1,,,,,,,,,,,,,,m,,,,,,,,,,,,,,,,9,1,149.9233,150.8741,m,1,0.9489,,[],[],[],[],[],[],[],150.8741,152.8739,152.8739,154.8065,[],[],[],[],[],[],[],m,154.8066,154.8067,0.071627604,-0.405447049,0,0,0,,0,8,8,146,1,3,word,RETIRE,print,retire_p.png,1.9258,,,,,
,,,,31849,001,2025-10-19_19h58.34.145,HW_LDT_1,2024.2.4,MacIntel,59.88023952,,,,,,,,,,,,,,,,,,,,154.8076,155.0075,155.0075,155.5075,,,,,,,,,,,,,,1.8947,0,,,,,,,,,,,,,,z,,,,,,,,,,,,,,,,10,0,155.5079,157.4064,m,0,1.8947,,[],[],[],[],[],[],[],157.4065,159.4075,159.4076,159.4077,[],[],[],[],[],[],[],,159.4078,159.408,0.071627604,-0.405447049,0,0,0,,0,9,9,12,1,3,RL,formuke,cursive,formuke_c.png,,,,,,
,,,,31849,001,2025-10-19_19h58.34.145,HW_LDT_1,2024.2.4,MacIntel,59.88023952,,,,,,,,,,,,,,,,,,,,159.409,159.6075,159.6075,160.1076,,,,,,,,,,,,,,0.9969,1,,,,,,,,,,,,,,m,,,,,,,,,,,,,,,,11,0,160.108,161.1076,m,1,0.9969,,[],[],[],[],[],[],[],161.1077,163.107,163.107,163.1072,[],[],[],[],[],[],[],,163.1072,163.1073,0.071627604,-0.405447049,0,0,0,,0,10,10,91,1,3,word,CARDINAL,print,cardinal_p.png,,,,,,
,,,,31849,001,2025-10-19_19h58.34.145,HW_LDT_1,2024.2.4,MacIntel,59.88023952,,,,,,,,,,,,,,,,,,,,163.1086,163.3076,163.3076,163.8068,,,,,,,,,,,,,,0.837,1,,,,,,,,,,,,,,m,,,,,,,,,,,,,,,,12,0,163.8072,164.6577,m,1,0.837,,[],[],[],[],[],[],[],164.6577,166.6577,166.6578,166.6579,[],[],[],[],[],[],[],,166.6579,166.658,0.071627604,-0.405447049,0,0,0,,0,11,11,124,1,3,word,NUMERICAL,print,numerical_p.png,,,,,,
,,,,31849,001,2025-10-19_19h58.34.145,HW_LDT_1,2024.2.4,MacIntel,59.88023952,,,,,,,,,,,,,,,,,,,,166.6588,166.8577,166.8578,167.3578,,,,,,,,,,,,,,1.2701,1,,,,,,,,,,,,,,z,,,,,,,,,,,,,,,,13,0,167.3582,168.6403,z,1,1.2701,,[],[],[],[],[],[],[],168.6403,170.6412,170.6412,170.6413,[],[],[],[],[],[],[],,170.6413,170.6415,0.071627604,-0.405447049,0,0,0,,0,12,12,25,1,3,RL,retupar,print,retupar_p.png,,,,,,
,,,,31849,001,2025-10-19_19h58.34.145,HW_LDT_1,2024.2.4,MacIntel,59.88023952,,,,,,,,,,,,,,,,,,,,170.6424,170.8412,170.8412,171.3403,,,,,,,,,,,,,,0.6703,0,,,,,,,,,,,,,,z,,,,,,,,,,,,,,,,14,0,171.3408,172.0247,m,0,0.6703,,[],[],[],[],[],[],[],172.0247,174.0243,174.0243,174.0245,[],[],[],[],[],[],[],,174.0245,174.0246,0.071627604,-0.405447049,0,0,0,,0,13,13,35,1,3,TL,cateferia,print,cateferia_p.png,,,,,,
,,,,31849,001,2025-10-19_19h58.34.145,HW_LDT_1,2024.2.4,MacIntel,59.88023952,,,,,,,,,,,,,,,,,,,,174.0254,174.2247,174.2247,174.724,,,,,,,,,,,,,,2.4158,1,,,,,,,,,,,,,,z,,,,,,,,,,,,,,,,15,0,174.7244,177.1415,z,1,2.4158,,[],[],[],[],[],[],[],177.1416,179.1405,179.1407,179.1408,[],[],[],[],[],[],[],,179.1408,179.1409,0.071627604,-0.405447049,0,0,0,,0,14,14,29,1,3,RL,selamor,cursive,selamor_c.png,,,,,,
,,,,31849,001,2025-10-19_19h58.34.145,HW_LDT_1,2024.2.4,MacIntel,59.88023952,,,,,,,,,,,,,,,,,,,,179.1418,179.3415,179.3416,179.8405,,,,,,,,,,,,,,1.4373,1,,,,,,,,,,,,,,z,,,,,,,,,,,,,,,,16,0,179.8409,181.2915,z,1,1.4373,,[],[],[],[],[],[],[],181.2916,183.2914,183.2914,183.2916,[],[],[],[],[],[],[],,183.2916,183.2917,0.071627604,-0.405447049,0,0,0,,0,15,15,26,1,3,RL,repifion,print,repifion_p.png,,,,,,
,,,,31849,001,2025-10-19_19h58.34.145,HW_LDT_1,2024.2.4,MacIntel,59.88023952,,,,,,,,,,,,,,,,,,,,183.2925,183.4916,183.4917,183.9907,,,,,,,,,,,,,,0.8049,0,,,,,,,,,,,,,,z,,,,,,,,,,,,,,,,17,0,183.991,184.8085,m,0,0.8049,,[],[],[],[],[],[],[],184.8086,186.8081,186.8081,186.8082,[],[],[],[],[],[],[],,186.8082,186.8083,0.071627604,-0.405447049,0,0,0,,0,16,16,64,1,3,TL,radiply,print,radiply_p.png,,,,,,
,,,,31849,001,2025-10-19_19h58.34.145,HW_LDT_1,2024.2.4,MacIntel,59.88023952,,,,,,,,,,,,,,,,,,,,186.8091,187.0077,187.0077,187.5082,,,,,,,,,,,,,,1.3146,1,,,,,,,,,,,,,,z,,,,,,,,,,,,,,,,18,1,187.5084,188.8251,z,1,1.3146,,[],[],[],[],[],[],[],188.8252,190.8244,190.8244,192.1076,[],[],[],[],[],[],[],m,192.1076,192.1077,0.071627604,-0.405447049,0,0,0,,0,17,17,31,1,3,RL,trilude,print,trilude_p.png,1.2819,,,,,
,,,,31849,001,2025-10-19_19h58.34.145,HW_LDT_1,2024.2.4,MacIntel,59.88023952,,,,,,,,,,,,,,,,,,,,192.1087,192.3085,192.3085,192.8084,,,,,,,,,,,,,,1.192,1,,,,,,,,,,,,,,z,,,,,,,,,,,,,,,,19,0,192.8089,194.0083,z,1,1.192,,[],[],[],[],[],[],[],194.0083,196.0077,196.0078,196.0079,[],[],[],[],[],[],[],,196.008,196.0081,0.071627604,-0.405447049,0,0,0,,0,18,18,7,1,3,RL,cobeny,print,cobeny_p.png,,,,,,
,,,,31849,001,2025-10-19_19h58.34.145,HW_LDT_1,2024.2.4,MacIntel,59.88023952,,,,,,,,,,,,,,,,,,,,196.0091,196.2086,196.2086,196.7087,,,,,,,,,,,,,,2.7691,0,,,,,,,,,,,,,,z,,,,,,,,,,,,,,,,20,0,196.7092,199.491,m,0,2.7691,,[],[],[],[],[],[],[],199.491,201.4912,201.4913,201.4914,[],[],[],[],[],[],[],,201.4914,201.4915,0.071627604,-0.405447049,0,0,0,,0,19,19,59,1,3,TL,paficic,cursive,paficic_c.png,,,,,,
,,,,31849,001,2025-10-19_19h58.34.145,HW_LDT_1,2024.2.4,MacIntel,59.88023952,,,,,,,,,,,,,,,,,,,,201.4925,201.6912,201.6913,202.1921,,,,,,,,,,,,,,1.4058,1,,,,,,,,,,,,,,z,,,,,,,,,,,,,,,,21,1,202.1926,203.6088,z,1,1.4058,,[],[],[],[],[],[],[],203.6088,205.609,205.609,206.4255,[],[],[],[],[],[],[],z,206.4257,206.4257,0.071627604,-0.405447049,0,0,0,,0,20,20,57,1,3,TL,moredate,cursive,moredate_c.png,0.8086,,,,,
,,,,31849,001,2025-10-19_19h58.34.145,HW_LDT_1,2024.2.4,MacIntel,59.88023952,,,,,,,,,,,,,,,,,,,,206.4266,206.6247,206.6248,207.1246,,,,,,,,,,,,,,2.5154,1,,,,,,,,,,,,,,m,,,,,,,,,,,,,,,,22,0,207.1251,209.6423,m,1,2.5154,,[],[],[],[],[],[],[],209.6423,211.6416,211.6416,211.6418,[],[],[],[],[],[],[],,211.6418,211.642,0.071627604,-0.405447049,0,0,0,,0,21,21,107,1,3,word,EVIDENT,cursive,evident_c.png,,,,,,
,,,,31849,001,2025-10-19_19h58.34.145,HW_LDT_1,2024.2.4,MacIntel,59.88023952,,,,,,,,,,,,,,,,,,,,211.6427,211.8423,211.8423,212.3425,,,,,,,,,,,,,,1.3858,1,,,,,,,,,,,,,,z,,,,,,,,,,,,,,,,23,0,212.3429,213.7428,z,1,1.3858,,[],[],[],[],[],[],[],213.7429,215.7426,215.7427,215.7429,[],[],[],[],[],[],[],,215.7429,215.7431,0.071627604,-0.405447049,0,0,0,,0,22,22,50,1,3,TL,lirebal,print,lirebal_p.png,,,,,,
,,,,31849,001,2025-10-19_19h58.34.145,HW_LDT_1,2024.2.4,MacIntel,59.88023952,,,,,,,,,,,,,,,,,,,,215.7441,215.9421,215.9422,216.4425,,,,,,,,,,,,,,0.9904,1,,,,,,,,,,,,,,m,,,,,,,,,,,,,,,,24,0,216.4429,217.4418,m,1,0.9904,,[],[],[],[],[],[],[],217.4419,219.4427,219.4427,219.4429,[],[],[],[],[],[],[],,219.443,219.4431,0.071627604,-0.405447049,0,0,0,,0,23,23,129,1,3,word,PARENT,print,parent_p.png,,,,,,
,,,,31849,001,2025-10-19_19h58.34.145,HW_LDT_1,2024.2.4,MacIntel,59.88023952,,,,,,,,,,,,,,,,,,,,219.4442,219.6426,219.6427,220.1427,,,,,,,,,,,,,,0.82,0,,,,,,,,,,,,,,m,,,,,,,,,,,,,,,,25,0,220.1432,220.9761,z,0,0.82,,[],[],[],[],[],[],[],220.9761,222.9761,222.9761,222.9763,[],[],[],[],[],[],[],,222.9764,222.9765,0.071627604,-0.405447049,0,0,0,,0,24,24,122,1,3,word,MOBILE,cursive,mobile_c.png,,,,,,
,,,,31849,001,2025-10-19_19h58.34.145,HW_LDT_1,2024.2.4,MacIntel,59.88023952,,,,,,,,,,,,,,,,,,,,222.9774,223.1758,223.1758,223.6752,,,,,,,,,,,,,,1.856,1,,,,,,,,,,,,,,z,,,,,,,,,,,,,,,,26,0,223.6757,225.542,z,1,1.856,,[],[],[],[],[],[],[],225.542,227.5429,227.543,227.5431,[],[],[],[],[],[],[],,227.5431,227.5431,0.071627604,-0.405447049,0,0,0,,0,25,25,3,1,3,RL,bebine,cursive,bebine_c.png,,,,,,
,,,,31849,001,2025-10-19_19h58.34.145,HW_LDT_1,2024.2.4,MacIntel,59.88023952,,,,,,,,,,,,,,,,,,,,227.5441,227.742,227.7421,228.2429,,,,,,,,,,,,,,2.5732,0,,,,,,,,,,,,,,m,,,,,,,,,,,,,,,,27,0,228.2435,230.8254,z,0,2.5732,,[],[],[],[],[],[],[],230.8254,232.8264,232.8264,232.8266,[],[],[],[],[],[],[],,232.8267,232.8269,0.071627604,-0.405447049,0,0,0,,0,26,26,120,1,3,word,MILITARY,cursive,military_c.png,,,,,,
,,,,31849,001,2025-10-19_19h58.34.145,HW_LDT_1,2024.2.4,MacIntel,59.88023952,,,,,,,,,,,,,,,,,,,,232.8279,233.0264,233.0264,233.5263,,,,,,,,,,,,,,1.5388,1,,,,,,,,,,,,,,m,,,,,,,,,,,,,,,,28,0,233.5268,235.0764,m,1,1.5388,,[],[],[],[],[],[],[],235.0765,237.0765,237.0766,237.0767,[],[],[],[],[],[],[],,237.0768,237.0768,0.071627604,-0.405447049,0,0,0,,0,27,27,159,1,3,word,VETERAN,cursive,veteran_c.png,,,,,,
,,,,31849,001,2025-10-19_19h58.34.145,HW_LDT_1,2024.2.4,MacIntel,59.88023952,,,,,,,,,,,,,,,,,,,,237.0778,237.2765,237.2765,237.7767,,,,,,,,,,,,,,1.3535,1,,,,,,,,,,,,,,m,,,,,,,,,,,,,,,,29,0,237.7771,239.1424,m,1,1.3535,,[],[],[],[],[],[],[],239.1425,241.1425,241.1425,241.1427,[],[],[],[],[],[],[],,241.1427,241.1428,0.071627604,-0.405447049,0,0,0,,0,28,28,96,1,3,word,CONSIDER,print,consider_p.png,,,,,,
,,,,31849,001,2025-10-19_19h58.34.145,HW_LDT_1,2024.2.4,MacIntel,59.88023952,,,,,,,,,,,,,,,,,,,,241.1438,241.3424,241.3424,241.8429,,,,,,,,,,,,,,0.9309,1,,,,,,,,,,,,,,z,,,,,,,,,,,,,,,,30,0,241.8434,242.7765,z,1,0.9309,,[],[],[],[],[],[],[],242.7766,244.7767,244.7768,244.7768,[],[],[],[],[],[],[],,244.7769,244.7769,0.071627604,-0.405447049,0,0,0,,0,29,29,0,1,3,RL,afaneur,print,afaneur_p.png,,,,,,
,,,,31849,001,2025-10-19_19h58.34.145,HW_LDT_1,2024.2.4,MacIntel,59.88023952,,,,,,,,,,,,,,,,,,,,244.7778,244.9756,244.9757,245.4768,,,,,,,,,,,,,,0.8883,1,,,,,,,,,,,,,,m,,,,,,,,,,,,,,,,31,0,245.4772,246.3759,m,1,0.8883,,[],[],[],[],[],[],[],246.3759,248.376,248.376,248.3761,[],[],[],[],[],[],[],,248.3762,248.3763,0.071627604,-0.405447049,0,0,0,,0,30,30,152,1,3,word,SPECIMEN,print,specimen_p.png,,,,,,
,,,,31849,001,2025-10-19_19h58.34.145,HW_LDT_1,2024.2.4,MacIntel,59.88023952,,,,,,,,,,,,,,,,,,,,248.3775,248.5769,248.5769,249.0765,,,,,,,,,,,,,,3.4874,1,,,,,,,,,,,,,,m,,,,,,,,,,,,,,,,32,0,249.077,252.5769,m,1,3.4874,,[],[],[],[],[],[],[],252.577,254.577,254.5771,254.5772,[],[],[],[],[],[],[],,254.5773,254.5773,0.071627604,-0.405447049,0,0,0,,0,31,31,90,1,3,word,CAPITAL,cursive,capital_c.png,,,,,,
,,,,31849,001,2025-10-19_19h58.34.145,HW_LDT_1,2024.2.4,MacIntel,59.88023952,,,,,,,,,,,,,,,,,,,,254.5784,254.777,254.777,255.2761,,,,,,,,,,,,,,0.6868,1,,,,,,,,,,,,,,m,,,,,,,,,,,,,,,,33,0,255.2766,255.9761,m,1,0.6868,,[],[],[],[],[],[],[],255.9762,257.9763,257.9763,257.9764,[],[],[],[],[],[],[],,257.9765,257.9766,0.071627604,-0.405447049,0,0,0,,0,32,32,155,1,3,word,STRATEGY,print,strategy_p.png,,,,,,
,,,,31849,001,2025-10-19_19h58.34.145,HW_LDT_1,2024.2.4,MacIntel,59.88023952,,,,,,,,,,,,,,,,,,,,257.9775,258.1762,258.1763,258.6762,,,,,,,,,,,,,,0.5205,1,,,,,,,,,,,,,,m,,,,,,,,,,,,,,,,34,0,258.6766,259.2105,m,1,0.5205,,[],[],[],[],[],[],[],259.2105,261.2097,261.2098,261.21,[],[],[],[],[],[],[],,261.21,261.21,0.071627604,-0.405447049,0,0,0,,0,33,33,95,1,3,word,COMEDY,print,comedy_p.png,,,,,,
,,,,31849,001,2025-10-19_19h58.34.145,HW_LDT_1,2024.2.4,MacIntel,59.88023952,,,,,,,,,,,,,,,,,,,,261.211,261.4097,261.4097,261.9106,,,,,,,,,,,,,,1.5541,1,,,,,,,,,,,,,,m,,,,,,,,,,,,,,,,35,1,261.9111,263.4773,m,1,1.5541,,[],[],[],[],[],[],[],263.4775,265.4773,265.4773,266.2767,[],[],[],[],[],[],[],z,266.2768,266.2768,0.071627604,-0.405447049,0,0,0,,0,34,34,136,1,3,word,RADICAL,cursive,radical_c.png,0.7989,,,,,
,,,,31849,001,2025-10-19_19h58.34.145,HW_LDT_1,2024.2.4,MacIntel,59.88023952,,,,,,,,,,,,,,,,,,,,266.2778,266.4774,266.4775,266.9774,,,,,,,,,,,,,,1.3464,1,,,,,,,,,,,,,,z,,,,,,,,,,,,,,,,36,0,266.9779,268.3274,z,1,1.3464,,[],[],[],[],[],[],[],268.3275,270.3266,270.3266,270.3268,[],[],[],[],[],[],[],,270.3268,270.3269,0.071627604,-0.405447049,0,0,0,,0,35,35,16,1,3,RL,mishafe,cursive,mishafe_c.png,,,,,,
,,,,31849,001,2025-10-19_19h58.34.145,HW_LDT_1,2024.2.4,MacIntel,59.88023952,,,,,,,,,,,,,,,,,,,,270.3276,270.5275,270.5275,271.0275,,,,,,,,,,,,,,1.2318,1,,,,,,,,,,,,,,m,,,,,,,,,,,,,,,,37,0,271.028,272.261,m,1,1.2318,,[],[],[],[],[],[],[],272.2611,274.26,274.2601,274.2602,[],[],[],[],[],[],[],,274.2602,274.2604,0.071627604,-0.405447049,0,0,0,,0,36,36,85,1,3,word,BENEFIT,print,benefit_p.png,,,,,,
,,,,31849,001,2025-10-19_19h58.34.145,HW_LDT_1,2024.2.4,MacIntel,59.88023952,,,,,,,,,,,,,,,,,,,,274.2611,274.46,274.46,274.9609,,,,,,,,,,,,,,1.4721,1,,,,,,,,,,,,,,z,,,,,,,,,,,,,,,,38,0,274.9615,276.4445,z,1,1.4721,,[],[],[],[],[],[],[],276.4445,278.4434,278.4435,278.4436,[],[],[],[],[],[],[],,278.4436,278.4437,0.071627604,-0.405447049,0,0,0,,0,37,37,11,1,3,RL,ebiwent,cursive,ebiwent_c.png,,,,,,
,,,,31849,001,2025-10-19_19h58.34.145,HW_LDT_1,2024.2.4,MacIntel,59.88023952,,,,,,,,,,,,,,,,,,,,278.4445,278.6442,278.6443,279.1436,,,,,,,,,,,,,,0.887,1,,,,,,,,,,,,,,m,,,,,,,,,,,,,,,,39,0,279.144,280.0445,m,1,0.887,,[],[],[],[],[],[],[],280.0446,282.0445,282.0445,282.0448,[],[],[],[],[],[],[],,282.0448,282.0449,0.071627604,-0.405447049,0,0,0,,0,38,38,81,1,3,word,ADVISORY,print,advisory_p.png,,,,,,
,,,,31849,001,2025-10-19_19h58.34.145,HW_LDT_1,2024.2.4,MacIntel,59.88023952,,,,,,,,,,,,,,,,,,,,282.0459,282.2445,282.2445,282.7446,,,,,,,,,,,,,,2.463,1,,,,,,,,,,,,,,z,,,,,,,,,,,,,,,,40,0,282.745,285.2112,z,1,2.463,,[],[],[],[],[],[],[],285.2112,287.2104,287.2105,287.2106,[],[],[],[],[],[],[],,287.2106,287.2108,0.071627604,-0.405447049,0,0,0,,0,39,39,66,1,3,TL,retalive,cursive,retalive_c.png,,,,,,
,,,,31849,001,2025-10-19_19h58.34.145,HW_LDT_1,2024.2.4,MacIntel,59.88023952,,,,,,,,,,,,,,,,,,,,287.2116,287.4112,287.4112,287.9113,,,,,,,,,,,,,,1.0541,0,,,,,,,,,,,,,,z,,,,,,,,,,,,,,,,41,0,287.9118,288.978,m,0,1.0541,,[],[],[],[],[],[],[],288.9781,290.9782,290.9782,290.9784,[],[],[],[],[],[],[],,290.9784,290.9785,0.071627604,-0.405447049,0,0,0,,0,40,40,43,1,3,TL,dedace,cursive,dedace_c.png,,,,,,
,,,,31849,001,2025-10-19_19h58.34.145,HW_LDT_1,2024.2.4,MacIntel,59.88023952,,,,,,,,,,,,,,,,,,,,290.9795,291.1772,291.1773,291.6781,,,,,,,,,,,,,,0.742,1,,,,,,,,,,,,,,m,,,,,,,,,,,,,,,,42,0,291.6785,292.4282,m,1,0.742,,[],[],[],[],[],[],[],292.4282,294.4282,294.4282,294.4284,[],[],[],[],[],[],[],,294.4284,294.4285,0.071627604,-0.405447049,0,0,0,,0,41,41,116,1,3,word,MARGINAL,print,marginal_p.png,,,,,,
,,,,31849,001,2025-10-19_19h58.34.145,HW_LDT_1,2024.2.4,MacIntel,59.88023952,,,,,,,,,,,,,,,,,,,,294.4295,294.6273,294.6273,295.1279,,,,,,,,,,,,,,1.8724,1,,,,,,,,,,,,,,z,,,,,,,,,,,,,,,,43,0,295.1284,297.0107,z,1,1.8724,,[],[],[],[],[],[],[],297.0107,299.0108,299.0109,299.011,[],[],[],[],[],[],[],,299.011,299.0112,0.071627604,-0.405447049,0,0,0,,0,42,42,58,1,3,TL,nuremical,print,nuremical_p.png,,,,,,
,,,,31849,001,2025-10-19_19h58.34.145,HW_LDT_1,2024.2.4,MacIntel,59.88023952,,,,,,,,,,,,,,,,,,,,299.012,299.2109,299.211,299.7118,,,,,,,,,,,,,,1.3586,1,,,,,,,,,,,,,,m,,,,,,,,,,,,,,,,44,0,299.7122,301.0781,m,1,1.3586,,[],[],[],[],[],[],[],301.0782,303.0786,303.0786,303.0787,[],[],[],[],[],[],[],,303.0787,303.0788,0.071627604,-0.405447049,0,0,0,,0,43,43,80,1,3,word,ACADEMY,print,academy_p.png,,,,,,
,,,,31849,001,2025-10-19_19h58.34.145,HW_LDT_1,2024.2.4,MacIntel,59.88023952,,,,,,,,,,,,,,,,,,,,303.0797,303.2784,303.2785,303.7783,,,,,,,,,,,,,,1.2528,0,,,,,,,,,,,,,,m,,,,,,,,,,,,,,,,45,0,303.7788,305.0451,z,0,1.2528,,[],[],[],[],[],[],[],305.0452,307.0444,307.0444,307.0446,[],[],[],[],[],[],[],,307.0446,307.0447,0.071627604,-0.405447049,0,0,0,,0,44,44,110,1,3,word,HERITAGE,cursive,heritage_c.png,,,,,,
,,,,31849,001,2025-10-19_19h58.34.145,HW_LDT_1,2024.2.4,MacIntel,59.88023952,,,,,,,,,,,,,,,,,,,,307.0459,307.2452,307.2452,307.7452,,,,,,,,,,,,,,1.1492,1,,,,,,,,,,,,,,m,,,,,,,,,,,,,,,,46,1,307.7457,308.8956,m,1,1.1492,,[],[],[],[],[],[],[],308.8957,310.8944,310.8944,311.9286,[],[],[],[],[],[],[],z,311.9287,311.9288,0.071627604,-0.405447049,0,0,0,,0,45,45,144,1,3,word,RESIDENT,cursive,resident_c.png,1.0332,,,,,
,,,,31849,001,2025-10-19_19h58.34.145,HW_LDT_1,2024.2.4,MacIntel,59.88023952,,,,,,,,,,,,,,,,,,,,311.9296,312.1286,312.1287,312.6287,,,,,,,,,,,,,,2.4469,1,,,,,,,,,,,,,,z,,,,,,,,,,,,,,,,47,0,312.6291,315.0787,z,1,2.4469,,[],[],[],[],[],[],[],315.0788,317.0789,317.079,317.0791,[],[],[],[],[],[],[],,317.0791,317.0791,0.071627604,-0.405447049,0,0,0,,0,46,46,69,1,3,TL,redisent,cursive,redisent_c.png,,,,,,
,,,,31849,001,2025-10-19_19h58.34.145,HW_LDT_1,2024.2.4,MacIntel,59.88023952,,,,,,,,,,,,,,,,,,,,317.0802,317.2788,317.2788,317.7788,,,,,,,,,,,,,,1.2647,1,,,,,,,,,,,,,,z,,,,,,,,,,,,,,,,48,0,317.7792,319.0456,z,1,1.2647,,[],[],[],[],[],[],[],319.0456,321.0457,321.0458,321.0459,[],[],[],[],[],[],[],,321.046,321.046,0.071627604,-0.405447049,0,0,0,,0,47,47,56,1,3,TL,meromy,print,meromy_p.png,,,,,,
,,,,31849,001,2025-10-19_19h58.34.145,HW_LDT_1,2024.2.4,MacIntel,59.88023952,,,,,,,,,,,,,,,,,,,,321.0471,321.2456,321.2457,321.7457,,,,,,,,,,,,,,0.8528,1,,,,,,,,,,,,,,m,,,,,,,,,,,,,,,,49,0,321.7462,322.6124,m,1,0.8528,,[],[],[],[],[],[],[],322.6125,324.6118,324.6119,324.6119,[],[],[],[],[],[],[],,324.612,324.612,0.071627604,-0.405447049,0,0,0,,0,48,48,150,1,3,word,SENTIMENT,print,sentiment_p.png,,,,,,
,,,,31849,001,2025-10-19_19h58.34.145,HW_LDT_1,2024.2.4,MacIntel,59.88023952,,,,,,,,,,,,,,,,,,,,324.6131,324.8124,324.8125,325.3116,,,,,,,,,,,,,,2.6699,1,,,,,,,,,,,,,,z,,,,,,,,,,,,,,,,50,0,325.3121,327.9959,z,1,2.6699,,[],[],[],[],[],[],[],327.9961,329.9959,329.9959,329.9961,[],[],[],[],[],[],[],,329.9961,329.9962,0.071627604,-0.405447049,0,0,0,,0,49,49,6,1,3,RL,cenesony,cursive,cenesony_c.png,,,,,,
,,,,31849,001,2025-10-19_19h58.34.145,HW_LDT_1,2024.2.4,MacIntel,59.88023952,,,,,,,,,,,,,,,,,,,,329.9972,330.1958,330.1959,330.696,,,,,,,,,,,,,,2.2369,0,,,,,,,,,,,,,,z,,,,,,,,,,,,,,,,51,0,330.6964,332.946,m,0,2.2369,,[],[],[],[],[],[],[],332.9461,334.9453,334.9454,334.9456,[],[],[],[],[],[],[],,334.9456,334.9457,0.071627604,-0.405447049,0,0,0,,0,50,50,1,1,3,RL,bewoted,cursive,bewoted_c.png,,,,,,
,,,,31849,001,2025-10-19_19h58.34.145,HW_LDT_1,2024.2.4,MacIntel,59.88023952,,,,,,,,,,,,,,,,,,,,334.9466,335.146,335.1461,335.6453,,,,,,,,,,,,,,1.4214,1,,,,,,,,,,,,,,m,,,,,,,,,,,,,,,,52,0,335.6457,337.0794,m,1,1.4214,,[],[],[],[],[],[],[],337.0796,339.0795,339.0795,339.0796,[],[],[],[],[],[],[],,339.0797,339.0798,0.071627604,-0.405447049,0,0,0,,0,51,51,115,1,3,word,LOGICAL,cursive,logical_c.png,,,,,,
,,,,31849,001,2025-10-19_19h58.34.145,HW_LDT_1,2024.2.4,MacIntel,59.88023952,,,,,,,,,,,,,,,,,,,,339.0806,339.2795,339.2795,339.7788,,,,,,,,,,,,,,0.7975,1,,,,,,,,,,,,,,z,,,,,,,,,,,,,,,,53,1,339.7791,340.5788,z,1,0.7975,,[],[],[],[],[],[],[],340.5789,342.5796,342.5796,343.8465,[],[],[],[],[],[],[],m,343.8465,343.8466,0.071627604,-0.405447049,0,0,0,,0,52,52,8,1,3,RL,cocewage,print,cocewage_p.png,1.2656,,,,,
,,,,31849,001,2025-10-19_19h58.34.145,HW_LDT_1,2024.2.4,MacIntel,59.88023952,,,,,,,,,,,,,,,,,,,,343.8474,344.0464,344.0465,344.5463,,,,,,,,,,,,,,3.1657,1,,,,,,,,,,,,,,z,,,,,,,,,,,,,,,,54,0,344.5468,347.7131,z,1,3.1657,,[],[],[],[],[],[],[],347.7133,349.7132,349.7133,349.7134,[],[],[],[],[],[],[],,349.7135,349.7135,0.071627604,-0.405447049,0,0,0,,0,53,53,54,1,3,TL,manire,cursive,manire_c.png,,,,,,
,,,,31849,001,2025-10-19_19h58.34.145,HW_LDT_1,2024.2.4,MacIntel,59.88023952,,,,,,,,,,,,,,,,,,,,349.7145,349.9125,349.9125,350.4122,,,,,,,,,,,,,,3.6379,0,,,,,,,,,,,,,,z,,,,,,,,,,,,,,,,55,0,350.4126,354.0633,m,0,3.6379,,[],[],[],[],[],[],[],354.0633,356.0633,356.0633,356.0635,[],[],[],[],[],[],[],,356.0635,356.0636,0.071627604,-0.405447049,0,0,0,,0,54,54,28,1,3,RL,rovastic,cursive,rovastic_c.png,,,,,,
,,,,31849,001,2025-10-19_19h58.34.145,HW_LDT_1,2024.2.4,MacIntel,59.88023952,,,,,,,,,,,,,,,,,,,,356.0645,356.2633,356.2634,356.7635,,,,,,,,,,,,,,5.1554,1,,,,,,,,,,,,,,z,,,,,,,,,,,,,,,,56,0,356.764,361.9303,z,1,5.1554,,[],[],[],[],[],[],[],361.9303,363.9303,363.9304,363.9305,[],[],[],[],[],[],[],,363.9305,363.9305,0.071627604,-0.405447049,0,0,0,,0,55,55,78,1,3,TL,vecolity,cursive,vecolity_c.png,,,,,,
,,,,31849,001,2025-10-19_19h58.34.145,HW_LDT_1,2024.2.4,MacIntel,59.88023952,,,,,,,,,,,,,,,,,,,,363.9315,364.1304,364.1304,364.6295,,,,,,,,,,,,,,1.1544,1,,,,,,,,,,,,,,z,,,,,,,,,,,,,,,,57,0,364.6299,365.796,z,1,1.1544,,[],[],[],[],[],[],[],365.796,367.797,367.7971,367.7973,[],[],[],[],[],[],[],,367.7973,367.7973,0.071627604,-0.405447049,0,0,0,,0,56,56,65,1,3,TL,resufal,print,resufal_p.png,,,,,,
,,,,31849,001,2025-10-19_19h58.34.145,HW_LDT_1,2024.2.4,MacIntel,59.88023952,,,,,,,,,,,,,,,,,,,,367.7984,367.9969,367.9969,368.4971,,,,,,,,,,,,,,2.1701,1,,,,,,,,,,,,,,z,,,,,,,,,,,,,,,,58,0,368.4975,370.6805,z,1,2.1701,,[],[],[],[],[],[],[],370.6805,372.6806,372.6806,372.6807,[],[],[],[],[],[],[],,372.6807,372.6808,0.071627604,-0.405447049,0,0,0,,0,57,57,19,1,3,RL,opcifal,cursive,opcifal_c.png,,,,,,
,,,,31849,001,2025-10-19_19h58.34.145,HW_LDT_1,2024.2.4,MacIntel,59.88023952,,,,,,,,,,,,,,,,,,,,372.6818,372.8806,372.8806,373.3806,,,,,,,,,,,,,,2.0318,0,,,,,,,,,,,,,,m,,,,,,,,,,,,,,,,59,0,373.3811,375.414,z,0,2.0318,,[],[],[],[],[],[],[],375.4141,377.4142,377.4142,377.4144,[],[],[],[],[],[],[],,377.4145,377.4146,0.071627604,-0.405447049,0,0,0,,0,58,58,140,1,3,word,RELATIVE,cursive,relative_c.png,,,,,,
,,,,31849,001,2025-10-19_19h58.34.145,HW_LDT_1,2024.2.4,MacIntel,59.88023952,,,,,,,,,,,,,,,,,,,,377.4158,377.614,377.614,378.1139,,,,,,,,,,,,,,1.1238,1,,,,,,,,,,,,,,z,,,,,,,,,,,,,,,,60,0,378.1144,379.2473,z,1,1.1238,,[],[],[],[],[],[],[],379.2474,381.2474,381.2475,381.2476,[],[],[],[],[],[],[],,381.2477,381.2478,0.071627604,-0.405447049,0,0,0,,0,59,59,13,1,3,RL,helicage,cursive,helicage_c.png,,,,,,
,,,,31849,001,2025-10-19_19h58.34.145,HW_LDT_1,2024.2.4,MacIntel,59.88023952,,,,,,,,,,,,,,,,,,,,381.2488,381.4474,381.4475,381.9476,,,,,,,,,,,,,,1.0218,1,,,,,,,,,,,,,,z,,,,,,,,,,,,,,,,61,0,381.9481,382.9809,z,1,1.0218,,[],[],[],[],[],[],[],382.981,384.9807,384.9808,384.9808,[],[],[],[],[],[],[],,384.9809,384.981,0.071627604,-0.405447049,0,0,0,,0,60,60,18,1,3,RL,onegator,print,onegator_p.png,,,,,,
,,,,31849,001,2025-10-19_19h58.34.145,HW_LDT_1,2024.2.4,MacIntel,59.88023952,,,,,,,,,,,,,,,,,,,,384.9818,385.181,385.181,385.681,,,,,,,,,,,,,,1.5466,1,,,,,,,,,,,,,,m,,,,,,,,,,,,,,,,62,0,385.6814,387.231,m,1,1.5466,,[],[],[],[],[],[],[],387.2311,389.23,389.2301,389.2302,[],[],[],[],[],[],[],,389.2302,389.2303,0.071627604,-0.405447049,0,0,0,,0,61,61,109,1,3,word,GRATEFUL,cursive,grateful_c.png,,,,,,
,,,,31849,001,2025-10-19_19h58.34.145,HW_LDT_1,2024.2.4,MacIntel,59.88023952,,,,,,,,,,,,,,,,,,,,389.2313,389.4307,389.4307,389.931,,,,,,,,,,,,,,1.0977,1,,,,,,,,,,,,,,m,,,,,,,,,,,,,,,,63,0,389.9316,391.0311,m,1,1.0977,,[],[],[],[],[],[],[],391.0312,393.0312,393.0312,393.0313,[],[],[],[],[],[],[],,393.0313,393.0314,0.071627604,-0.405447049,0,0,0,,0,62,62,135,1,3,word,QUALITY,print,quality_p.png,,,,,,
,,,,31849,001,2025-10-19_19h58.34.145,HW_LDT_1,2024.2.4,MacIntel,59.88023952,,,,,,,,,,,,,,,,,,,,393.0325,393.2311,393.2311,393.7311,,,,,,,,,,,,,,1.5537,1,,,,,,,,,,,,,,m,,,,,,,,,,,,,,,,64,0,393.7316,395.2981,m,1,1.5537,,[],[],[],[],[],[],[],395.2982,397.2973,397.2973,397.2975,[],[],[],[],[],[],[],,397.2975,397.2976,0.071627604,-0.405447049,0,0,0,,0,63,63,86,1,3,word,BESIDE,cursive,beside_c.png,,,,,,
,,,,31849,001,2025-10-19_19h58.34.145,HW_LDT_1,2024.2.4,MacIntel,59.88023952,,,,,,,,,,,,,,,,,,,,397.2984,397.4979,397.4979,397.9977,,,,,,,,,,,,,,0.8998,1,,,,,,,,,,,,,,z,,,,,,,,,,,,,,,,65,0,397.998,398.8982,z,1,0.8998,,[],[],[],[],[],[],[],398.8983,400.898,400.8981,400.8983,[],[],[],[],[],[],[],,400.8983,400.8985,0.071627604,-0.405447049,0,0,0,,0,64,64,14,1,3,RL,lofase,cursive,lofase_c.png,,,,,,
,,,,31849,001,2025-10-19_19h58.34.145,HW_LDT_1,2024.2.4,MacIntel,59.88023952,,,,,,,,,,,,,,,,,,,,400.8996,401.0976,401.0976,401.598,,,,,,,,,,,,,,0.9901,1,,,,,,,,,,,,,,m,,,,,,,,,,,,,,,,66,1,401.5985,402.5979,m,1,0.9901,,[],[],[],[],[],[],[],402.5979,404.5974,404.5974,406.3317,[],[],[],[],[],[],[],z,406.3317,406.3318,0.071627604,-0.405447049,0,0,0,,0,65,65,84,1,3,word,BELOVED,cursive,beloved_c.png,1.7219,,,,,
,,,,31849,001,2025-10-19_19h58.34.145,HW_LDT_1,2024.2.4,MacIntel,59.88023952,,,,,,,,,,,,,,,,,,,,406.3329,406.5315,406.5315,407.0315,,,,,,,,,,,,,,1.2038,1,,,,,,,,,,,,,,z,,,,,,,,,,,,,,,,67,1,407.032,408.2474,z,1,1.2038,,[],[],[],[],[],[],[],408.2474,410.2483,410.2483,411.3151,[],[],[],[],[],[],[],m,411.3151,411.3153,0.071627604,-0.405447049,0,0,0,,0,66,66,2,1,3,RL,betemit,print,betemit_p.png,1.0661,,,,,
,,,,31849,001,2025-10-19_19h58.34.145,HW_LDT_1,2024.2.4,MacIntel,59.88023952,,,,,,,,,,,,,,,,,,,,411.3163,411.5151,411.5151,412.015,,,,,,,,,,,,,,1.5325,1,,,,,,,,,,,,,,m,,,,,,,,,,,,,,,,68,0,412.0155,413.5487,m,1,1.5325,,[],[],[],[],[],[],[],413.5487,415.5484,415.5484,415.5486,[],[],[],[],[],[],[],,415.5486,415.5487,0.071627604,-0.405447049,0,0,0,,0,67,67,101,1,3,word,DELICATE,print,delicate_p.png,,,,,,
,,,,31849,001,2025-10-19_19h58.34.145,HW_LDT_1,2024.2.4,MacIntel,59.88023952,,,,,,,,,,,,,,,,,,,,415.5498,415.7484,415.7484,416.2486,,,,,,,,,,,,,,0.9368,1,,,,,,,,,,,,,,z,,,,,,,,,,,,,,,,69,0,416.249,417.1985,z,1,0.9368,,[],[],[],[],[],[],[],417.1985,419.1981,419.1981,419.1982,[],[],[],[],[],[],[],,419.1983,419.1984,0.071627604,-0.405447049,0,0,0,,0,68,68,21,1,3,RL,potugar,print,potugar_p.png,,,,,,
,,,,31849,001,2025-10-19_19h58.34.145,HW_LDT_1,2024.2.4,MacIntel,59.88023952,,,,,,,,,,,,,,,,,,,,419.1992,419.3976,419.3976,419.8977,,,,,,,,,,,,,,2.0594,1,,,,,,,,,,,,,,z,,,,,,,,,,,,,,,,70,0,419.8981,421.9645,z,1,2.0594,,[],[],[],[],[],[],[],421.9645,423.9656,423.9656,423.9658,[],[],[],[],[],[],[],,423.9658,423.9659,0.071627604,-0.405447049,0,0,0,,0,69,69,77,1,3,TL,vadility,cursive,vadility_c.png,,,,,,
,,,,31849,001,2025-10-19_19h58.34.145,HW_LDT_1,2024.2.4,MacIntel,59.88023952,,,,,,,,,,,,,,,,,,,,423.967,424.1644,424.1644,424.6655,,,,,,,,,,,,,,1.1807,1,,,,,,,,,,,,,,z,,,,,,,,,,,,,,,,71,1,424.6659,425.8488,z,1,1.1807,,[],[],[],[],[],[],[],425.8488,427.8478,427.8479,429.432,[],[],[],[],[],[],[],z,429.4322,429.4322,0.071627604,-0.405447049,0,0,0,,0,70,70,9,1,3,RL,docirant,print,docirant_p.png,1.5726,,,,,
,,,,31849,001,2025-10-19_19h58.34.145,HW_LDT_1,2024.2.4,MacIntel,59.88023952,,,,,,,,,,,,,,,,,,,,429.433,429.6312,429.6313,430.1317,,,,,,,,,,,,,,3.4035,1,,,,,,,,,,,,,,z,,,,,,,,,,,,,,,,72,0,430.1321,433.548,z,1,3.4035,,[],[],[],[],[],[],[],433.5481,435.5485,435.5486,435.5488,[],[],[],[],[],[],[],,435.5488,435.5488,0.071627604,-0.405447049,0,0,0,,0,71,71,32,1,3,TL,adacemy,print,adacemy_p.png,,,,,,
,,,,31849,001,2025-10-19_19h58.34.145,HW_LDT_1,2024.2.4,MacIntel,59.88023952,,,,,,,,,,,,,,,,,,,,435.55,435.7487,435.7488,436.248,,,,,,,,,,,,,,2.138,1,,,,,,,,,,,,,,m,,,,,,,,,,,,,,,,73,0,436.2484,438.3992,m,1,2.138,,[],[],[],[],[],[],[],438.3992,440.3994,440.3994,440.3995,[],[],[],[],[],[],[],,440.3996,440.3996,0.071627604,-0.405447049,0,0,0,,0,72,72,93,1,3,word,CEREMONY,cursive,ceremony_c.png,,,,,,
,,,,31849,001,2025-10-19_19h58.34.145,HW_LDT_1,2024.2.4,MacIntel,59.88023952,,,,,,,,,,,,,,,,,,,,440.4006,440.5982,440.5982,441.0988,,,,,,,,,,,,,,2.9996,0,,,,,,,,,,,,,,m,,,,,,,,,,,,,,,,74,0,441.0992,444.0994,z,0,2.9996,,[],[],[],[],[],[],[],444.0995,446.0991,446.0992,446.0993,[],[],[],[],[],[],[],,446.0993,446.0994,0.071627604,-0.405447049,0,0,0,,0,73,73,121,1,3,word,MISTAKE,cursive,mistake_c.png,,,,,,
,,,,31849,001,2025-10-19_19h58.34.145,HW_LDT_1,2024.2.4,MacIntel,59.88023952,,,,,,,,,,,,,,,,,,,,446.1002,446.2993,446.2993,446.7993,,,,,,,,,,,,,,1.5536,0,,,,,,,,,,,,,,z,,,,,,,,,,,,,,,,75,0,446.7998,448.3661,m,0,1.5536,,[],[],[],[],[],[],[],448.3661,450.3662,450.3662,450.3664,[],[],[],[],[],[],[],,450.3665,450.3665,0.071627604,-0.405447049,0,0,0,,0,74,74,36,1,3,TL,carema,cursive,carema_c.png,,,,,,
,,,,31849,001,2025-10-19_19h58.34.145,HW_LDT_1,2024.2.4,MacIntel,59.88023952,,,,,,,,,,,,,,,,,,,,450.3676,450.5653,450.5653,451.0662,,,,,,,,,,,,,,1.488,1,,,,,,,,,,,,,,m,,,,,,,,,,,,,,,,76,1,451.0666,452.5657,m,1,1.488,,[],[],[],[],[],[],[],452.5657,454.5662,454.5663,456.5498,[],[],[],[],[],[],[],z,456.5498,456.55,0.071627604,-0.405447049,0,0,0,,0,75,75,100,1,3,word,DECADE,cursive,decade_c.png,1.9822,,,,,
,,,,31849,001,2025-10-19_19h58.34.145,HW_LDT_1,2024.2.4,MacIntel,59.88023952,,,,,,,,,,,,,,,,,,,,456.5508,456.7497,456.7498,457.2496,,,,,,,,,,,,,,1.1315,1,,,,,,,,,,,,,,z,,,,,,,,,,,,,,,,77,0,457.2499,458.383,z,1,1.1315,,[],[],[],[],[],[],[],458.383,460.3823,460.3823,460.3824,[],[],[],[],[],[],[],,460.3825,460.3825,0.071627604,-0.405447049,0,0,0,,0,76,76,61,1,3,TL,pocily,print,pocily_p.png,,,,,,
,,,,31849,001,2025-10-19_19h58.34.145,HW_LDT_1,2024.2.4,MacIntel,59.88023952,,,,,,,,,,,,,,,,,,,,460.3835,460.5832,460.5832,461.082,,,,,,,,,,,,,,1.0245,1,,,,,,,,,,,,,,z,,,,,,,,,,,,,,,,78,0,461.0826,462.1166,z,1,1.0245,,[],[],[],[],[],[],[],462.1167,464.1166,464.1166,464.1168,[],[],[],[],[],[],[],,464.1168,464.1169,0.071627604,-0.405447049,0,0,0,,0,77,77,17,1,3,RL,motide,cursive,motide_c.png,,,,,,
,,,,31849,001,2025-10-19_19h58.34.145,HW_LDT_1,2024.2.4,MacIntel,59.88023952,,,,,,,,,,,,,,,,,,,,464.1179,464.3165,464.3165,464.816,,,,,,,,,,,,,,0.8376,1,,,,,,,,,,,,,,m,,,,,,,,,,,,,,,,79,0,464.8164,465.6666,m,1,0.8376,,[],[],[],[],[],[],[],465.6666,467.6661,467.6661,467.6663,[],[],[],[],[],[],[],,467.6663,467.6664,0.071627604,-0.405447049,0,0,0,,0,78,78,134,1,3,word,QUALIFY,print,qualify_p.png,,,,,,
,,,,31849,001,2025-10-19_19h58.34.145,HW_LDT_1,2024.2.4,MacIntel,59.88023952,,,,,,,,,,,,,,,,,,,,467.6673,467.8666,467.8667,468.3658,,,,,,,,,,,,,,1.0201,1,,,,,,,,,,,,,,m,,,,,,,,,,,,,,,,80,1,468.3664,469.3992,m,1,1.0201,,[],[],[],[],[],[],[],469.3992,471.4,471.4001,472.6834,[],[],[],[],[],[],[],m,472.6834,476.2504,0.071627604,-0.405447049,0,0,0,space,0,79,79,112,1,3,word,LIBERAL,print,liberal_p.png,1.2823,,3.5406,,,
,,,,31849,001,2025-10-19_19h58.34.145,HW_LDT_1,2024.2.4,MacIntel,59.88023952,,,,,,,,,,,,,,,,,,,,476.2513,476.4502,476.4503,476.9502,,,,,,,,,,,,,,1.6859,1,,,,,,,,,,,,,,z,,,,,,,,,,,,,,,,81,0,476.9505,478.6502,z,1,1.6859,,[],[],[],[],[],[],[],478.6503,480.6495,480.6495,480.6497,[],[],[],[],[],[],[],,480.6497,480.6498,0.071627604,-0.405447049,0,0,0,,0,80,80,27,1,3,RL,recile,print,recile_p.png,,,,,,
,,,,31849,001,2025-10-19_19h58.34.145,HW_LDT_1,2024.2.4,MacIntel,59.88023952,,,,,,,,,,,,,,,,,,,,480.6506,480.8504,480.8504,481.3503,,,,,,,,,,,,,,1.0799,1,,,,,,,,,,,,,,z,,,,,,,,,,,,,,,,82,0,481.3507,482.433,z,1,1.0799,,[],[],[],[],[],[],[],482.433,484.4339,484.434,484.4341,[],[],[],[],[],[],[],,484.4341,484.4342,0.071627604,-0.405447049,0,0,0,,0,81,81,41,1,3,TL,crinimal,print,crinimal_p.png,,,,,,
,,,,31849,001,2025-10-19_19h58.34.145,HW_LDT_1,2024.2.4,MacIntel,59.88023952,,,,,,,,,,,,,,,,,,,,484.4353,484.6336,484.6336,485.1339,,,,,,,,,,,,,,0.9209,1,,,,,,,,,,,,,,z,,,,,,,,,,,,,,,,83,0,485.1343,486.0673,z,1,0.9209,,[],[],[],[],[],[],[],486.0674,488.0673,488.0673,488.0674,[],[],[],[],[],[],[],,488.0675,488.0675,0.071627604,-0.405447049,0,0,0,,0,82,82,10,1,3,RL,efibor,print,efibor_p.png,,,,,,
,,,,31849,001,2025-10-19_19h58.34.145,HW_LDT_1,2024.2.4,MacIntel,59.88023952,,,,,,,,,,,,,,,,,,,,488.0683,488.2671,488.2673,488.7672,,,,,,,,,,,,,,1.2205,0,,,,,,,,,,,,,,z,,,,,,,,,,,,,,,,84,1,488.7676,489.9997,m,0,1.2205,,[],[],[],[],[],[],[],489.9998,492.0008,492.0009,492.8174,[],[],[],[],[],[],[],z,492.8174,492.8177,0.071627604,-0.405447049,0,0,0,,0,83,83,48,1,3,TL,grafetul,cursive,grafetul_c.png,0.8158,,,,,
,,,,31849,001,2025-10-19_19h58.34.145,HW_LDT_1,2024.2.4,MacIntel,59.88023952,,,,,,,,,,,,,,,,,,,,492.8187,493.0164,493.0165,493.5164,,,,,,,,,,,,,,2.3542,1,,,,,,,,,,,,,,z,,,,,,,,,,,,,,,,85,0,493.5169,495.883,z,1,2.3542,,[],[],[],[],[],[],[],495.8831,497.8833,497.8833,497.8835,[],[],[],[],[],[],[],,497.8835,497.8835,0.071627604,-0.405447049,0,0,0,,0,84,84,52,1,3,TL,locigal,cursive,locigal_c.png,,,,,,
,,,,31849,001,2025-10-19_19h58.34.145,HW_LDT_1,2024.2.4,MacIntel,59.88023952,,,,,,,,,,,,,,,,,,,,497.8844,498.0843,498.0843,498.5833,,,,,,,,,,,,,,0.9918,1,,,,,,,,,,,,,,z,,,,,,,,,,,,,,,,86,0,498.5838,499.5843,z,1,0.9918,,[],[],[],[],[],[],[],499.5843,501.5843,501.5844,501.5846,[],[],[],[],[],[],[],,501.5846,501.5846,0.071627604,-0.405447049,0,0,0,,0,85,85,40,1,3,TL,condiser,print,condiser_p.png,,,,,,
,,,,31849,001,2025-10-19_19h58.34.145,HW_LDT_1,2024.2.4,MacIntel,59.88023952,,,,,,,,,,,,,,,,,,,,501.5856,501.7843,501.7844,502.2844,,,,,,,,,,,,,,1.3071,1,,,,,,,,,,,,,,m,,,,,,,,,,,,,,,,87,1,502.2849,503.6011,m,1,1.3071,,[],[],[],[],[],[],[],503.6011,505.6009,505.601,506.3178,[],[],[],[],[],[],[],m,506.3178,506.318,0.071627604,-0.405447049,0,0,0,,0,86,86,137,1,3,word,RAPIDLY,print,rapidly_p.png,0.7045,,,,,
,,,,31849,001,2025-10-19_19h58.34.145,HW_LDT_1,2024.2.4,MacIntel,59.88023952,,,,,,,,,,,,,,,,,,,,506.3188,506.5178,506.5179,507.0179,,,,,,,,,,,,,,1.2363,1,,,,,,,,,,,,,,z,,,,,,,,,,,,,,,,88,0,507.0183,508.268,z,1,1.2363,,[],[],[],[],[],[],[],508.268,510.2679,510.268,510.2681,[],[],[],[],[],[],[],,510.2681,510.2682,0.071627604,-0.405447049,0,0,0,,0,87,87,60,1,3,TL,panert,print,panert_p.png,,,,,,
,,,,31849,001,2025-10-19_19h58.34.145,HW_LDT_1,2024.2.4,MacIntel,59.88023952,,,,,,,,,,,,,,,,,,,,510.2691,510.4678,510.4679,510.9679,,,,,,,,,,,,,,1.706,0,,,,,,,,,,,,,,m,,,,,,,,,,,,,,,,89,0,510.9684,512.6837,z,0,1.706,,[],[],[],[],[],[],[],512.6838,514.6838,514.6838,514.6839,[],[],[],[],[],[],[],,514.6839,514.684,0.071627604,-0.405447049,0,0,0,,0,88,88,114,1,3,word,LOCATE,cursive,locate_c.png,,,,,,
,,,,31849,001,2025-10-19_19h58.34.145,HW_LDT_1,2024.2.4,MacIntel,59.88023952,,,,,,,,,,,,,,,,,,,,514.6848,514.8848,514.8848,515.3839,,,,,,,,,,,,,,1.1035,1,,,,,,,,,,,,,,m,,,,,,,,,,,,,,,,90,0,515.3842,516.501,m,1,1.1035,,[],[],[],[],[],[],[],516.5011,518.5015,518.5016,518.5018,[],[],[],[],[],[],[],,518.5018,518.5018,0.071627604,-0.405447049,0,0,0,,0,89,89,92,1,3,word,CATEGORY,cursive,category_c.png,,,,,,
,,,,31849,001,2025-10-19_19h58.34.145,HW_LDT_1,2024.2.4,MacIntel,59.88023952,,,,,,,,,,,,,,,,,,,,518.5028,518.7005,518.7006,519.2016,,,,,,,,,,,,,,1.4323,0,,,,,,,,,,,,,,m,,,,,,,,,,,,,,,,91,1,519.202,520.6349,z,0,1.4323,,[],[],[],[],[],[],[],520.6349,522.635,522.6351,523.6684,[],[],[],[],[],[],[],z,523.6684,523.6685,0.071627604,-0.405447049,0,0,0,,0,90,90,149,1,3,word,SENATOR,cursive,senator_c.png,1.0208,,,,,
,,,,31849,001,2025-10-19_19h58.34.145,HW_LDT_1,2024.2.4,MacIntel,59.88023952,,,,,,,,,,,,,,,,,,,,523.6692,523.8674,523.8674,524.3683,,,,,,,,,,,,,,0.9361,0,,,,,,,,,,,,,,z,,,,,,,,,,,,,,,,92,0,524.3687,525.3175,m,0,0.9361,,[],[],[],[],[],[],[],525.3175,527.3185,527.3185,527.3187,[],[],[],[],[],[],[],,527.3187,527.3188,0.071627604,-0.405447049,0,0,0,,0,91,91,39,1,3,TL,clicinal,print,clicinal_p.png,,,,,,
,,,,31849,001,2025-10-19_19h58.34.145,HW_LDT_1,2024.2.4,MacIntel,59.88023952,,,,,,,,,,,,,,,,,,,,527.3198,527.5184,527.5184,528.0175,,,,,,,,,,,,,,3.7048,1,,,,,,,,,,,,,,z,,,,,,,,,,,,,,,,93,0,528.0178,531.7354,z,1,3.7048,,[],[],[],[],[],[],[],531.7355,533.7353,533.7353,533.7355,[],[],[],[],[],[],[],,533.7356,533.7357,0.071627604,-0.405447049,0,0,0,,0,92,92,34,1,3,TL,aminal,cursive,aminal_c.png,,,,,,
,,,,31849,001,2025-10-19_19h58.34.145,HW_LDT_1,2024.2.4,MacIntel,59.88023952,,,,,,,,,,,,,,,,,,,,533.7367,533.9344,533.9344,534.4353,,,,,,,,,,,,,,1.5858,1,,,,,,,,,,,,,,m,,,,,,,,,,,,,,,,94,0,534.4358,536.0355,m,1,1.5858,,[],[],[],[],[],[],[],536.0355,538.0344,538.0344,538.0346,[],[],[],[],[],[],[],,538.0346,538.0347,0.071627604,-0.405447049,0,0,0,,0,93,93,131,1,3,word,POPULAR,print,popular_p.png,,,,,,
,,,,31849,001,2025-10-19_19h58.34.145,HW_LDT_1,2024.2.4,MacIntel,59.88023952,,,,,,,,,,,,,,,,,,,,538.0354,538.2345,538.2345,538.7345,,,,,,,,,,,,,,1.0921,1,,,,,,,,,,,,,,z,,,,,,,,,,,,,,,,95,0,538.7348,539.8354,z,1,1.0921,,[],[],[],[],[],[],[],539.8355,541.8356,541.8357,541.8358,[],[],[],[],[],[],[],,541.8358,541.836,0.071627604,-0.405447049,0,0,0,,0,94,94,44,1,3,TL,decilate,print,decilate_p.png,,,,,,
,,,,31849,001,2025-10-19_19h58.34.145,HW_LDT_1,2024.2.4,MacIntel,59.88023952,,,,,,,,,,,,,,,,,,,,541.8369,542.0351,542.0351,542.5345,,,,,,,,,,,,,,1.3409,1,,,,,,,,,,,,,,m,,,,,,,,,,,,,,,,96,0,542.5348,543.8856,m,1,1.3409,,[],[],[],[],[],[],[],543.8857,545.8845,545.8846,545.8846,[],[],[],[],[],[],[],,545.8846,545.8846,0.071627604,-0.405447049,0,0,0,,0,95,95,158,1,3,word,VELOCITY,cursive,velocity_c.png,,,,,,
,,,,31849,001,2025-10-19_19h58.34.145,HW_LDT_1,2024.2.4,MacIntel,59.88023952,,,,,,,,,,,,,,,,,,,,545.885,546.0847,546.0848,546.5847,,,,,,,,,,,,,,1.5036,1,,,,,,,,,,,,,,z,,,,,,,,,,,,,,,,97,0,546.5852,548.1024,z,1,1.5036,,[],[],[],[],[],[],[],548.1025,550.1024,550.1024,550.1026,[],[],[],[],[],[],[],,550.1026,550.1027,0.071627604,-0.405447049,0,0,0,,0,96,96,79,1,3,TL,veretan,cursive,veretan_c.png,,,,,,
,,,,31849,001,2025-10-19_19h58.34.145,HW_LDT_1,2024.2.4,MacIntel,59.88023952,,,,,,,,,,,,,,,,,,,,550.1037,550.3025,550.3026,550.8018,,,,,,,,,,,,,,1.1236,1,,,,,,,,,,,,,,z,,,,,,,,,,,,,,,,98,1,550.8023,551.9359,z,1,1.1236,,[],[],[],[],[],[],[],551.9359,553.9357,553.9357,554.8693,[],[],[],[],[],[],[],z,554.8693,554.8695,0.071627604,-0.405447049,0,0,0,,0,97,97,15,1,3,RL,mifikary,cursive,mifikary_c.png,0.921,,,,,
,,,,31849,001,2025-10-19_19h58.34.145,HW_LDT_1,2024.2.4,MacIntel,59.88023952,,,,,,,,,,,,,,,,,,,,554.8703,555.0692,555.0693,555.5692,,,,,,,,,,,,,,1.5208,1,,,,,,,,,,,,,,m,,,,,,,,,,,,,,,,99,0,555.5698,557.1018,m,1,1.5208,,[],[],[],[],[],[],[],557.1018,559.1026,559.1027,559.1028,[],[],[],[],[],[],[],,559.1028,559.1028,0.071627604,-0.405447049,0,0,0,,0,98,98,103,1,3,word,DISPUTE,print,dispute_p.png,,,,,,
,,,,31849,001,2025-10-19_19h58.34.145,HW_LDT_1,2024.2.4,MacIntel,59.88023952,,,,,,,,,,,,,,,,,,,,559.1037,559.3024,559.3024,559.8028,,,,,,,,,,,,,,3.1718,1,,,,,,,,,,,,,,m,,,,,,,,,,,,,,,,100,1,559.8033,562.9858,m,1,3.1718,,[],[],[],[],[],[],[],562.9859,564.9861,564.9861,566.3858,[],[],[],[],[],[],[],z,566.3858,566.3859,0.071627604,-0.405447049,0,0,0,,0,99,99,83,1,3,word,ANIMAL,cursive,animal_c.png,1.3991,,,,,
,,,,31849,001,2025-10-19_19h58.34.145,HW_LDT_1,2024.2.4,MacIntel,59.88023952,,,,,,,,,,,,,,,,,,,,566.3869,566.5862,566.5862,567.0854,,,,,,,,,,,,,,2.4535,1,,,,,,,,,,,,,,m,,,,,,,,,,,,,,,,101,0,567.0858,569.553,m,1,2.4535,,[],[],[],[],[],[],[],569.5531,571.5522,571.5522,571.5524,[],[],[],[],[],[],[],,571.5525,571.5525,0.071627604,-0.405447049,0,0,0,,0,100,100,128,1,3,word,PACIFIC,cursive,pacific_c.png,,,,,,
,,,,31849,001,2025-10-19_19h58.34.145,HW_LDT_1,2024.2.4,MacIntel,59.88023952,,,,,,,,,,,,,,,,,,,,571.5536,571.7532,571.7532,572.2531,,,,,,,,,,,,,,1.0358,1,,,,,,,,,,,,,,z,,,,,,,,,,,,,,,,102,1,572.2536,573.3031,z,1,1.0358,,[],[],[],[],[],[],[],573.3032,575.3032,575.3032,579.0867,[],[],[],[],[],[],[],m,579.0867,579.0869,0.071627604,-0.405447049,0,0,0,,0,101,101,74,1,3,TL,spemicen,print,spemicen_p.png,3.773,,,,,
,,,,31849,001,2025-10-19_19h58.34.145,HW_LDT_1,2024.2.4,MacIntel,59.88023952,,,,,,,,,,,,,,,,,,,,579.0878,579.2866,579.2866,579.7858,,,,,,,,,,,,,,0.8723,1,,,,,,,,,,,,,,m,,,,,,,,,,,,,,,,103,0,579.7861,580.6692,m,1,0.8723,,[],[],[],[],[],[],[],580.6693,582.6691,582.6692,582.6694,[],[],[],[],[],[],[],,582.6694,582.6695,0.071627604,-0.405447049,0,0,0,,0,102,102,119,1,3,word,MEMORY,print,memory_p.png,,,,,,
,,,,31849,001,2025-10-19_19h58.34.145,HW_LDT_1,2024.2.4,MacIntel,59.88023952,,,,,,,,,,,,,,,,,,,,582.6704,582.87,582.87,583.3698,,,,,,,,,,,,,,1.0555,1,,,,,,,,,,,,,,m,,,,,,,,,,,,,,,,104,0,583.3704,584.4365,m,1,1.0555,,[],[],[],[],[],[],[],584.4367,586.436,586.436,586.4361,[],[],[],[],[],[],[],,586.4362,586.4363,0.071627604,-0.405447049,0,0,0,,0,103,103,139,1,3,word,REGULAR,print,regular_p.png,,,,,,
,,,,31849,001,2025-10-19_19h58.34.145,HW_LDT_1,2024.2.4,MacIntel,59.88023952,,,,,,,,,,,,,,,,,,,,586.4372,586.6368,586.6369,587.1369,,,,,,,,,,,,,,3.1823,0,,,,,,,,,,,,,,m,,,,,,,,,,,,,,,,105,0,587.1373,590.3204,z,0,3.1823,,[],[],[],[],[],[],[],590.3206,592.3203,592.3204,592.3206,[],[],[],[],[],[],[],,592.3206,592.3207,0.071627604,-0.405447049,0,0,0,,0,104,104,88,1,3,word,CAMERA,cursive,camera_c.png,,,,,,
,,,,31849,001,2025-10-19_19h58.34.145,HW_LDT_1,2024.2.4,MacIntel,59.88023952,,,,,,,,,,,,,,,,,,,,592.3217,592.5194,592.5194,593.0203,,,,,,,,,,,,,,1.754,1,,,,,,,,,,,,,,m,,,,,,,,,,,,,,,,106,0,593.0208,594.7862,m,1,1.754,,[],[],[],[],[],[],[],594.7863,596.787,596.787,596.7872,[],[],[],[],[],[],[],,596.7873,596.7873,0.071627604,-0.405447049,0,0,0,,0,105,105,87,1,3,word,CAFETERIA,print,cafeteria_p.png,,,,,,
,,,,31849,001,2025-10-19_19h58.34.145,HW_LDT_1,2024.2.4,MacIntel,59.88023952,,,,,,,,,,,,,,,,,,,,596.7881,596.9872,596.9872,597.4872,,,,,,,,,,,,,,3.5526,1,,,,,,,,,,,,,,m,,,,,,,,,,,,,,,,107,0,597.4878,601.0539,m,1,3.5526,,[],[],[],[],[],[],[],601.0539,603.0532,603.0532,603.0533,[],[],[],[],[],[],[],,603.0534,603.0534,0.071627604,-0.405447049,0,0,0,,0,106,106,126,1,3,word,OPTIMAL,cursive,optimal_c.png,,,,,,
,,,,31849,001,2025-10-19_19h58.34.145,HW_LDT_1,2024.2.4,MacIntel,59.88023952,,,,,,,,,,,,,,,,,,,,603.0543,603.253,603.2531,603.7531,,,,,,,,,,,,,,0.9412,1,,,,,,,,,,,,,,z,,,,,,,,,,,,,,,,108,0,603.7536,604.7037,z,1,0.9412,,[],[],[],[],[],[],[],604.7038,606.7039,606.7039,606.7039,[],[],[],[],[],[],[],,606.7039,606.704,0.071627604,-0.405447049,0,0,0,,0,107,107,62,1,3,TL,prodive,print,prodive_p.png,,,,,,
,,,,31849,001,2025-10-19_19h58.34.145,HW_LDT_1,2024.2.4,MacIntel,59.88023952,,,,,,,,,,,,,,,,,,,,606.7045,606.904,606.9041,607.4041,,,,,,,,,,,,,,2.1204,1,,,,,,,,,,,,,,z,,,,,,,,,,,,,,,,109,0,607.4047,609.5375,z,1,2.1204,,[],[],[],[],[],[],[],609.5376,611.5377,611.5377,611.5379,[],[],[],[],[],[],[],,611.5379,611.538,0.071627604,-0.405447049,0,0,0,,0,108,108,72,1,3,TL,senmitent,print,senmitent_p.png,,,,,,
,,,,31849,001,2025-10-19_19h58.34.145,HW_LDT_1,2024.2.4,MacIntel,59.88023952,,,,,,,,,,,,,,,,,,,,611.539,611.7376,611.7377,612.2374,,,,,,,,,,,,,,1.107,1,,,,,,,,,,,,,,m,,,,,,,,,,,,,,,,110,1,612.2379,613.3543,m,1,1.107,,[],[],[],[],[],[],[],613.3544,615.3534,615.3535,616.1537,[],[],[],[],[],[],[],z,616.1537,616.1538,0.071627604,-0.405447049,0,0,0,,0,109,109,157,1,3,word,VALIDITY,cursive,validity_c.png,0.7874,,,,,
,,,,31849,001,2025-10-19_19h58.34.145,HW_LDT_1,2024.2.4,MacIntel,59.88023952,,,,,,,,,,,,,,,,,,,,616.1547,616.3543,616.3544,616.8544,,,,,,,,,,,,,,2.9538,1,,,,,,,,,,,,,,z,,,,,,,,,,,,,,,,111,0,616.8548,619.8212,z,1,2.9538,,[],[],[],[],[],[],[],619.8213,621.8212,621.8213,621.8214,[],[],[],[],[],[],[],,621.8214,621.8215,0.071627604,-0.405447049,0,0,0,,0,110,110,75,1,3,TL,sloten,cursive,sloten_c.png,,,,,,
,,,,31849,001,2025-10-19_19h58.34.145,HW_LDT_1,2024.2.4,MacIntel,59.88023952,,,,,,,,,,,,,,,,,,,,621.8224,622.0212,622.0212,622.5213,,,,,,,,,,,,,,1.3693,1,,,,,,,,,,,,,,m,,,,,,,,,,,,,,,,112,0,622.5217,623.9047,m,1,1.3693,,[],[],[],[],[],[],[],623.9048,625.9046,625.9047,625.9049,[],[],[],[],[],[],[],,625.9049,625.9049,0.071627604,-0.405447049,0,0,0,,0,111,111,98,1,3,word,CRIMINAL,print,criminal_p.png,,,,,,
,,,,31849,001,2025-10-19_19h58.34.145,HW_LDT_1,2024.2.4,MacIntel,59.88023952,,,,,,,,,,,,,,,,,,,,625.906,626.1047,626.1047,626.6036,,,,,,,,,,,,,,1.4046,1,,,,,,,,,,,,,,z,,,,,,,,,,,,,,,,113,0,626.604,628.0213,z,1,1.4046,,[],[],[],[],[],[],[],628.0214,630.0214,630.0214,630.0216,[],[],[],[],[],[],[],,630.0217,630.0217,0.071627604,-0.405447049,0,0,0,,0,112,112,47,1,3,TL,elarobate,print,elarobate_p.png,,,,,,
,,,,31849,001,2025-10-19_19h58.34.145,HW_LDT_1,2024.2.4,MacIntel,59.88023952,,,,,,,,,,,,,,,,,,,,630.0227,630.2214,630.2215,630.7215,,,,,,,,,,,,,,1.3359,1,,,,,,,,,,,,,,m,,,,,,,,,,,,,,,,114,0,630.7219,632.0717,m,1,1.3359,,[],[],[],[],[],[],[],632.0717,634.0716,634.0716,634.0718,[],[],[],[],[],[],[],,634.0718,634.0719,0.071627604,-0.405447049,0,0,0,,0,113,113,142,1,3,word,REMOTE,print,remote_p.png,,,,,,
,,,,31849,001,2025-10-19_19h58.34.145,HW_LDT_1,2024.2.4,MacIntel,59.88023952,,,,,,,,,,,,,,,,,,,,634.0727,634.2715,634.2716,634.7711,,,,,,,,,,,,,,1.604,1,,,,,,,,,,,,,,m,,,,,,,,,,,,,,,,115,0,634.7715,636.3884,m,1,1.604,,[],[],[],[],[],[],[],636.3885,638.3875,638.3875,638.3876,[],[],[],[],[],[],[],,638.3876,638.3877,0.071627604,-0.405447049,0,0,0,,0,114,114,125,1,3,word,OPERATOR,print,operator_p.png,,,,,,
,,,,31849,001,2025-10-19_19h58.34.145,HW_LDT_1,2024.2.4,MacIntel,59.88023952,,,,,,,,,,,,,,,,,,,,638.3886,638.5875,638.5875,639.0885,,,,,,,,,,,,,,0.7559,1,,,,,,,,,,,,,,m,,,,,,,,,,,,,,,,116,0,639.0889,639.855,m,1,0.7559,,[],[],[],[],[],[],[],639.8551,641.8543,641.8543,641.8544,[],[],[],[],[],[],[],,641.8544,641.8545,0.071627604,-0.405447049,0,0,0,,0,115,115,138,1,3,word,REFUSAL,print,refusal_p.png,,,,,,
,,,,31849,001,2025-10-19_19h58.34.145,HW_LDT_1,2024.2.4,MacIntel,59.88023952,,,,,,,,,,,,,,,,,,,,641.8561,642.0552,642.0552,642.5553,,,,,,,,,,,,,,1.8472,1,,,,,,,,,,,,,,m,,,,,,,,,,,,,,,,117,0,642.5557,644.4053,m,1,1.8472,,[],[],[],[],[],[],[],644.4053,646.4053,646.4053,646.4055,[],[],[],[],[],[],[],,646.4055,646.4056,0.071627604,-0.405447049,0,0,0,,0,116,116,154,1,3,word,STORAGE,cursive,storage_c.png,,,,,,
,,,,31849,001,2025-10-19_19h58.34.145,HW_LDT_1,2024.2.4,MacIntel,59.88023952,,,,,,,,,,,,,,,,,,,,646.4064,646.6044,646.6044,647.1044,,,,,,,,,,,,,,0.9208,1,,,,,,,,,,,,,,z,,,,,,,,,,,,,,,,118,0,647.1048,648.0378,z,1,0.9208,,[],[],[],[],[],[],[],648.0379,650.038,650.038,650.0381,[],[],[],[],[],[],[],,650.0381,650.0383,0.071627604,-0.405447049,0,0,0,,0,117,117,24,1,3,RL,quafidy,print,quafidy_p.png,,,,,,
,,,,31849,001,2025-10-19_19h58.34.145,HW_LDT_1,2024.2.4,MacIntel,59.88023952,,,,,,,,,,,,,,,,,,,,650.0391,650.2387,650.2387,650.7388,,,,,,,,,,,,,,1.3964,1,,,,,,,,,,,,,,m,,,,,,,,,,,,,,,,119,0,650.7392,652.1388,m,1,1.3964,,[],[],[],[],[],[],[],652.1389,654.1379,654.1379,654.1382,[],[],[],[],[],[],[],,654.1382,654.1382,0.071627604,-0.405447049,0,0,0,,0,118,118,156,1,3,word,TRIBUTE,print,tribute_p.png,,,,,,
,,,,31849,001,2025-10-19_19h58.34.145,HW_LDT_1,2024.2.4,MacIntel,59.88023952,,,,,,,,,,,,,,,,,,,,654.1393,654.3389,654.339,654.8382,,,,,,,,,,,,,,0.7894,1,,,,,,,,,,,,,,m,,,,,,,,,,,,,,,,120,0,654.8387,655.6382,m,1,0.7894,,[],[],[],[],[],[],[],655.6382,657.6389,657.639,657.6391,[],[],[],[],[],[],[],,657.6391,657.6392,0.071627604,-0.405447049,0,0,0,,0,119,119,141,1,3,word,RELIGION,print,religion_p.png,,,,,,
,,,,31849,001,2025-10-19_19h58.34.145,HW_LDT_1,2024.2.4,MacIntel,59.88023952,,,,,,,,,,,,,,,,,,,,657.64,657.838,657.8381,658.3379,,,,,,,,,,,,,,1.1335,1,,,,,,,,,,,,,,m,,,,,,,,,,,,,,,,121,0,658.3384,659.4724,m,1,1.1335,,[],[],[],[],[],[],[],659.4725,661.4714,661.4715,661.4716,[],[],[],[],[],[],[],,661.4717,661.4718,0.071627604,-0.405447049,0,0,0,,0,120,120,94,1,3,word,CLINICAL,print,clinical_p.png,,,,,,
,,,,31849,001,2025-10-19_19h58.34.145,HW_LDT_1,2024.2.4,MacIntel,59.88023952,,,,,,,,,,,,,,,,,,,,661.4727,661.6724,661.6724,662.1725,,,,,,,,,,,,,,3.4825,0,,,,,,,,,,,,,,z,,,,,,,,,,,,,,,,122,0,662.1729,665.6563,m,0,3.4825,,[],[],[],[],[],[],[],665.6563,667.6551,667.6551,667.6552,[],[],[],[],[],[],[],,667.6552,667.6552,0.071627604,-0.405447049,0,0,0,,0,121,121,70,1,3,TL,remuse,cursive,remuse_c.png,,,,,,
,,,,31849,001,2025-10-19_19h58.34.145,HW_LDT_1,2024.2.4,MacIntel,59.88023952,,,,,,,,,,,,,,,,,,,,667.6562,667.855,667.8551,668.3551,,,,,,,,,,,,,,0.771,1,,,,,,,,,,,,,,z,,,,,,,,,,,,,,,,123,0,668.3555,669.1385,z,1,0.771,,[],[],[],[],[],[],[],669.1385,671.1393,671.1393,671.1397,[],[],[],[],[],[],[],,671.1397,671.1398,0.071627604,-0.405447049,0,0,0,,0,122,122,22,1,3,RL,procogal,print,procogal_p.png,,,,,,
,,,,31849,001,2025-10-19_19h58.34.145,HW_LDT_1,2024.2.4,MacIntel,59.88023952,,,,,,,,,,,,,,,,,,,,671.1407,671.3387,671.3388,671.8393,,,,,,,,,,,,,,0.7371,1,,,,,,,,,,,,,,z,,,,,,,,,,,,,,,,124,0,671.8398,672.5896,z,1,0.7371,,[],[],[],[],[],[],[],672.5897,674.5886,674.5886,674.5887,[],[],[],[],[],[],[],,674.5888,674.5888,0.071627604,-0.405447049,0,0,0,,0,123,123,67,1,3,TL,retome,print,retome_p.png,,,,,,
,,,,31849,001,2025-10-19_19h58.34.145,HW_LDT_1,2024.2.4,MacIntel,59.88023952,,,,,,,,,,,,,,,,,,,,674.5897,674.7885,674.7886,675.2895,,,,,,,,,,,,,,1.3557,1,,,,,,,,,,,,,,m,,,,,,,,,,,,,,,,125,0,675.2899,676.6552,m,1,1.3557,,[],[],[],[],[],[],[],676.6553,678.6563,678.6563,678.6565,[],[],[],[],[],[],[],,678.6565,678.6566,0.071627604,-0.405447049,0,0,0,,0,124,124,97,1,3,word,COVERAGE,print,coverage_p.png,,,,,,
,,,,31849,001,2025-10-19_19h58.34.145,HW_LDT_1,2024.2.4,MacIntel,59.88023952,,,,,,,,,,,,,,,,,,,,678.6573,678.8562,678.8563,679.3554,,,,,,,,,,,,,,0.9322,1,,,,,,,,,,,,,,z,,,,,,,,,,,,,,,,126,0,679.3557,680.2897,z,1,0.9322,,[],[],[],[],[],[],[],680.2898,682.2898,682.2898,682.29,[],[],[],[],[],[],[],,682.29,682.29,0.071627604,-0.405447049,0,0,0,,0,125,125,30,1,3,RL,strapely,print,strapely_p.png,,,,,,
,,,,31849,001,2025-10-19_19h58.34.145,HW_LDT_1,2024.2.4,MacIntel,59.88023952,,,,,,,,,,,,,,,,,,,,682.2911,682.4894,682.4894,682.9897,,,,,,,,,,,,,,1.0213,0,,,,,,,,,,,,,,m,,,,,,,,,,,,,,,,127,0,682.9901,684.0233,z,0,1.0213,,[],[],[],[],[],[],[],684.0234,686.0231,686.0232,686.0232,[],[],[],[],[],[],[],,686.0233,686.0233,0.071627604,-0.405447049,0,0,0,,0,126,126,108,1,3,word,FORTUNE,cursive,fortune_c.png,,,,,,
,,,,31849,001,2025-10-19_19h58.34.145,HW_LDT_1,2024.2.4,MacIntel,59.88023952,,,,,,,,,,,,,,,,,,,,686.0242,686.223,686.2231,686.7223,,,,,,,,,,,,,,2.3089,1,,,,,,,,,,,,,,m,,,,,,,,,,,,,,,,128,0,686.7229,689.0398,m,1,2.3089,,[],[],[],[],[],[],[],689.04,691.039,691.0391,691.0392,[],[],[],[],[],[],[],,691.0392,691.0393,0.071627604,-0.405447049,0,0,0,,0,127,127,143,1,3,word,REMOVAL,cursive,removal_c.png,,,,,,
,,,,31849,001,2025-10-19_19h58.34.145,HW_LDT_1,2024.2.4,MacIntel,59.88023952,,,,,,,,,,,,,,,,,,,,691.0402,691.2386,691.2386,691.7399,,,,,,,,,,,,,,2.2146,1,,,,,,,,,,,,,,z,,,,,,,,,,,,,,,,129,0,691.7405,693.9568,z,1,2.2146,,[],[],[],[],[],[],[],693.9569,695.9559,695.956,695.9561,[],[],[],[],[],[],[],,695.9561,695.9563,0.071627604,-0.405447049,0,0,0,,0,128,128,63,1,3,TL,racidal,cursive,racidal_c.png,,,,,,
,,,,31849,001,2025-10-19_19h58.34.145,HW_LDT_1,2024.2.4,MacIntel,59.88023952,,,,,,,,,,,,,,,,,,,,695.9574,696.1567,696.1568,696.6558,,,,,,,,,,,,,,2.8335,1,,,,,,,,,,,,,,z,,,,,,,,,,,,,,,,130,1,696.6562,699.4906,z,1,2.8335,,[],[],[],[],[],[],[],699.4906,701.49,701.49,702.8237,[],[],[],[],[],[],[],z,702.8238,702.8239,0.071627604,-0.405447049,0,0,0,,0,129,129,68,1,3,TL,revomal,cursive,revomal_c.png,1.3219,,,,,
,,,,31849,001,2025-10-19_19h58.34.145,HW_LDT_1,2024.2.4,MacIntel,59.88023952,,,,,,,,,,,,,,,,,,,,702.8251,703.0237,703.0237,703.5237,,,,,,,,,,,,,,1.7816,1,,,,,,,,,,,,,,m,,,,,,,,,,,,,,,,131,0,703.5242,705.307,m,1,1.7816,,[],[],[],[],[],[],[],705.3071,707.3062,707.3062,707.3063,[],[],[],[],[],[],[],,707.3063,707.3065,0.071627604,-0.405447049,0,0,0,,0,130,130,111,1,3,word,INDICATE,print,indicate_p.png,,,,,,
,,,,31849,001,2025-10-19_19h58.34.145,HW_LDT_1,2024.2.4,MacIntel,59.88023952,,,,,,,,,,,,,,,,,,,,707.3075,707.507,707.5071,708.0064,,,,,,,,,,,,,,2.2045,1,,,,,,,,,,,,,,m,,,,,,,,,,,,,,,,132,0,708.0068,710.2231,m,1,2.2045,,[],[],[],[],[],[],[],710.2232,712.2231,712.2231,712.2232,[],[],[],[],[],[],[],,712.2232,712.2233,0.071627604,-0.405447049,0,0,0,,0,131,131,147,1,3,word,ROMANTIC,cursive,romantic_c.png,,,,,,
,,,,31849,001,2025-10-19_19h58.34.145,HW_LDT_1,2024.2.4,MacIntel,59.88023952,,,,,,,,,,,,,,,,,,,,712.2242,712.4239,712.424,712.9239,,,,,,,,,,,,,,1.5229,1,,,,,,,,,,,,,,m,,,,,,,,,,,,,,,,133,0,712.9243,714.4572,m,1,1.5229,,[],[],[],[],[],[],[],714.4572,716.4574,716.4574,716.4575,[],[],[],[],[],[],[],,716.4576,716.4576,0.071627604,-0.405447049,0,0,0,,0,132,132,102,1,3,word,DENSITY,print,density_p.png,,,,,,
,,,,31849,001,2025-10-19_19h58.34.145,HW_LDT_1,2024.2.4,MacIntel,59.88023952,,,,,,,,,,,,,,,,,,,,716.4585,716.6565,716.6565,717.1574,,,,,,,,,,,,,,1.6195,0,,,,,,,,,,,,,,m,,,,,,,,,,,,,,,,134,0,717.1579,718.7908,z,0,1.6195,,[],[],[],[],[],[],[],718.7908,720.7909,720.7909,720.791,[],[],[],[],[],[],[],,720.7911,720.7911,0.071627604,-0.405447049,0,0,0,,0,133,133,123,1,3,word,MODERATE,cursive,moderate_c.png,,,,,,
,,,,31849,001,2025-10-19_19h58.34.145,HW_LDT_1,2024.2.4,MacIntel,59.88023952,,,,,,,,,,,,,,,,,,,,720.7922,720.9908,720.9908,721.4909,,,,,,,,,,,,,,1.2697,1,,,,,,,,,,,,,,m,,,,,,,,,,,,,,,,135,0,721.4912,722.7741,m,1,1.2697,,[],[],[],[],[],[],[],722.7742,724.7744,724.7744,724.7745,[],[],[],[],[],[],[],,724.7746,724.7746,0.071627604,-0.405447049,0,0,0,,0,134,134,118,1,3,word,MEDICINE,print,medicine_p.png,,,,,,
,,,,31849,001,2025-10-19_19h58.34.145,HW_LDT_1,2024.2.4,MacIntel,59.88023952,,,,,,,,,,,,,,,,,,,,724.7758,724.9743,724.9744,725.4743,,,,,,,,,,,,,,1.0155,1,,,,,,,,,,,,,,z,,,,,,,,,,,,,,,,136,0,725.4749,726.491,z,1,1.0155,,[],[],[],[],[],[],[],726.4911,728.4911,728.4912,728.4914,[],[],[],[],[],[],[],,728.4914,728.4915,0.071627604,-0.405447049,0,0,0,,0,135,135,45,1,3,TL,dentisy,print,dentisy_p.png,,,,,,
,,,,31849,001,2025-10-19_19h58.34.145,HW_LDT_1,2024.2.4,MacIntel,59.88023952,,,,,,,,,,,,,,,,,,,,728.4925,728.691,728.6911,729.1911,,,,,,,,,,,,,,1.3413,1,,,,,,,,,,,,,,z,,,,,,,,,,,,,,,,137,1,729.1917,730.5412,z,1,1.3413,,[],[],[],[],[],[],[],730.5412,732.5403,732.5404,735.2579,[],[],[],[],[],[],[],z,735.258,735.2581,0.071627604,-0.405447049,0,0,0,,0,136,136,38,1,3,TL,carnidal,print,carnidal_p.png,2.7155,,,,,
,,,,31849,001,2025-10-19_19h58.34.145,HW_LDT_1,2024.2.4,MacIntel,59.88023952,,,,,,,,,,,,,,,,,,,,735.2588,735.457,735.4571,735.958,,,,,,,,,,,,,,3.2362,1,,,,,,,,,,,,,,m,,,,,,,,,,,,,,,,138,0,735.9584,739.2079,m,1,3.2362,,[],[],[],[],[],[],[],739.2079,741.2076,741.2077,741.2078,[],[],[],[],[],[],[],,741.2078,741.2079,0.071627604,-0.405447049,0,0,0,,0,137,137,89,1,3,word,CAPACITY,cursive,capacity_c.png,,,,,,
,,,,31849,001,2025-10-19_19h58.34.145,HW_LDT_1,2024.2.4,MacIntel,59.88023952,,,,,,,,,,,,,,,,,,,,741.2089,741.4081,741.4082,741.9082,,,,,,,,,,,,,,1.5412,1,,,,,,,,,,,,,,m,,,,,,,,,,,,,,,,139,0,741.9086,743.4571,m,1,1.5412,,[],[],[],[],[],[],[],743.4572,745.4574,745.4575,745.4575,[],[],[],[],[],[],[],,745.4576,745.4577,0.071627604,-0.405447049,0,0,0,,0,138,138,82,1,3,word,AMATEUR,print,amateur_p.png,,,,,,
,,,,31849,001,2025-10-19_19h58.34.145,HW_LDT_1,2024.2.4,MacIntel,59.88023952,,,,,,,,,,,,,,,,,,,,745.4586,745.6582,745.6582,746.1577,,,,,,,,,,,,,,1.3579,1,,,,,,,,,,,,,,m,,,,,,,,,,,,,,,,140,0,746.1582,747.5248,m,1,1.3579,,[],[],[],[],[],[],[],747.5248,749.5241,749.5241,749.5243,[],[],[],[],[],[],[],,749.5243,749.5244,0.071627604,-0.405447049,0,0,0,,0,139,139,106,1,3,word,ELABORATE,print,elaborate_p.png,,,,,,
,,,,31849,001,2025-10-19_19h58.34.145,HW_LDT_1,2024.2.4,MacIntel,59.88023952,,,,,,,,,,,,,,,,,,,,749.5254,749.7251,749.7251,750.225,,,,,,,,,,,,,,2.0539,1,,,,,,,,,,,,,,m,,,,,,,,,,,,,,,,141,0,750.2256,752.2918,m,1,2.0539,,[],[],[],[],[],[],[],752.2918,754.2918,754.2919,754.2921,[],[],[],[],[],[],[],,754.2921,754.2922,0.071627604,-0.405447049,0,0,0,,0,140,140,145,1,3,word,RESUME,cursive,resume_c.png,,,,,,
,,,,31849,001,2025-10-19_19h58.34.145,HW_LDT_1,2024.2.4,MacIntel,59.88023952,,,,,,,,,,,,,,,,,,,,754.2935,754.4918,754.4918,754.9918,,,,,,,,,,,,,,1.1966,1,,,,,,,,,,,,,,m,,,,,,,,,,,,,,,,142,0,754.9923,756.192,m,1,1.1966,,[],[],[],[],[],[],[],756.1921,758.1919,758.192,758.1921,[],[],[],[],[],[],[],,758.1921,758.1922,0.071627604,-0.405447049,0,0,0,,0,141,141,148,1,3,word,SALINE,cursive,saline_c.png,,,,,,
,,,,31849,001,2025-10-19_19h58.34.145,HW_LDT_1,2024.2.4,MacIntel,59.88023952,,,,,,,,,,,,,,,,,,,,758.1933,758.3918,758.3918,758.892,,,,,,,,,,,,,,3.2327,1,,,,,,,,,,,,,,m,,,,,,,,,,,,,,,,143,0,758.8925,762.1259,m,1,3.2327,,[],[],[],[],[],[],[],762.1259,764.1254,764.1255,764.1257,[],[],[],[],[],[],[],,764.1257,764.1258,0.071627604,-0.405447049,0,0,0,,0,142,142,153,1,3,word,STOLEN,cursive,stolen_c.png,,,,,,
,,,,31849,001,2025-10-19_19h58.34.145,HW_LDT_1,2024.2.4,MacIntel,59.88023952,,,,,,,,,,,,,,,,,,,,764.1266,764.3254,764.3255,764.8255,,,,,,,,,,,,,,2.5889,1,,,,,,,,,,,,,,z,,,,,,,,,,,,,,,,144,0,764.8259,767.4257,z,1,2.5889,,[],[],[],[],[],[],[],767.4257,769.4256,769.4256,769.4258,[],[],[],[],[],[],[],,769.4258,769.4259,0.071627604,-0.405447049,0,0,0,,0,143,143,71,1,3,TL,sanile,cursive,sanile_c.png,,,,,,
,,,,31849,001,2025-10-19_19h58.34.145,HW_LDT_1,2024.2.4,MacIntel,59.88023952,,,,,,,,,,,,,,,,,,,,769.4269,769.6256,769.6256,770.1256,,,,,,,,,,,,,,2.4029,1,,,,,,,,,,,,,,z,,,,,,,,,,,,,,,,145,0,770.126,772.5414,z,1,2.4029,,[],[],[],[],[],[],[],772.5415,774.5424,774.5425,774.5427,[],[],[],[],[],[],[],,774.5427,774.5428,0.071627604,-0.405447049,0,0,0,,0,144,144,55,1,3,TL,mecidine,print,mecidine_p.png,,,,,,
,,,,31849,001,2025-10-19_19h58.34.145,HW_LDT_1,2024.2.4,MacIntel,59.88023952,,,,,,,,,,,,,,,,,,,,774.5437,774.7424,774.7424,775.2424,,,,,,,,,,,,,,1.9862,1,,,,,,,,,,,,,,m,,,,,,,,,,,,,,,,146,0,775.2429,777.2425,m,1,1.9862,,[],[],[],[],[],[],[],777.2426,779.2425,779.2426,779.2427,[],[],[],[],[],[],[],,779.2428,779.2428,0.071627604,-0.405447049,0,0,0,,0,145,145,127,1,3,word,ORIGINAL,cursive,original_c.png,,,,,,
,,,,31849,001,2025-10-19_19h58.34.145,HW_LDT_1,2024.2.4,MacIntel,59.88023952,,,,,,,,,,,,,,,,,,,,779.2439,779.4426,779.4426,779.9417,,,,,,,,,,,,,,1.6495,1,,,,,,,,,,,,,,z,,,,,,,,,,,,,,,,147,0,779.9422,781.5926,z,1,1.6495,,[],[],[],[],[],[],[],781.5927,783.5927,783.5928,783.593,[],[],[],[],[],[],[],,783.593,783.593,0.071627604,-0.405447049,0,0,0,,0,146,146,53,1,3,TL,marnigal,print,marnigal_p.png,,,,,,
,,,,31849,001,2025-10-19_19h58.34.145,HW_LDT_1,2024.2.4,MacIntel,59.88023952,,,,,,,,,,,,,,,,,,,,783.594,783.7926,783.7927,784.2926,,,,,,,,,,,,,,2.0894,1,,,,,,,,,,,,,,m,,,,,,,,,,,,,,,,148,0,784.2931,786.3929,m,1,2.0894,,[],[],[],[],[],[],[],786.3929,788.3928,788.3929,788.393,[],[],[],[],[],[],[],,788.3931,788.3931,0.071627604,-0.405447049,0,0,0,,0,147,147,99,1,3,word,DEBATE,cursive,debate_c.png,,,,,,
,,,,31849,001,2025-10-19_19h58.34.145,HW_LDT_1,2024.2.4,MacIntel,59.88023952,,,,,,,,,,,,,,,,,,,,788.3941,788.5929,788.5929,789.0924,,,,,,,,,,,,,,1.3663,1,,,,,,,,,,,,,,z,,,,,,,,,,,,,,,,149,0,789.0927,790.4596,z,1,1.3663,,[],[],[],[],[],[],[],790.4597,792.4597,792.4597,792.4598,[],[],[],[],[],[],[],,792.4599,792.4599,0.071627604,-0.405447049,0,0,0,,0,148,148,37,1,3,TL,cacapity,cursive,cacapity_c.png,,,,,,
,,,,31849,001,2025-10-19_19h58.34.145,HW_LDT_1,2024.2.4,MacIntel,59.88023952,,,,,,,,,,,,,,,,,,,,792.461,792.6596,792.6597,793.1597,,,,,,,,,,,,,,1.8369,1,,,,,,,,,,,,,,z,,,,,,,,,,,,,,,,150,0,793.1602,795.0096,z,1,1.8369,,[],[],[],[],[],[],[],795.0098,797.0098,797.0098,797.0099,[],[],[],[],[],[],[],,797.01,797.01,0.071627604,-0.405447049,0,0,0,,0,149,149,20,1,3,RL,orimipal,cursive,orimipal_c.png,,,,,,
,,,,31849,001,2025-10-19_19h58.34.145,HW_LDT_1,2024.2.4,MacIntel,59.88023952,,,,,,,,,,,,,,,,,,,,797.011,797.2098,797.2098,797.7099,,,,,,,,,,,,,,1.4207,1,,,,,,,,,,,,,,z,,,,,,,,,,,,,,,,151,1,797.7103,799.1433,z,1,1.4207,,[],[],[],[],[],[],[],799.1433,801.1432,801.1433,802.2766,[],[],[],[],[],[],[],z,802.2767,802.2769,0.071627604,-0.405447049,0,0,0,,0,150,150,42,1,3,TL,detabe,cursive,detabe_c.png,1.1322,,,,,
,,,,31849,001,2025-10-19_19h58.34.145,HW_LDT_1,2024.2.4,MacIntel,59.88023952,,,,,,,,,,,,,,,,,,,,802.2778,802.4766,802.4767,802.9765,,,,,,,,,,,,,,2.099,1,,,,,,,,,,,,,,z,,,,,,,,,,,,,,,,152,0,802.9769,805.0766,z,1,2.099,,[],[],[],[],[],[],[],805.0767,807.0767,807.0767,807.0769,[],[],[],[],[],[],[],,807.077,807.0772,0.071627604,-0.405447049,0,0,0,,0,151,151,51,1,3,TL,liretal,print,liretal_p.png,,,,,,
,,,,31849,001,2025-10-19_19h58.34.145,HW_LDT_1,2024.2.4,MacIntel,59.88023952,,,,,,,,,,,,,,,,,,,,807.0782,807.2767,807.2767,807.7768,,,,,,,,,,,,,,1.3143,1,,,,,,,,,,,,,,m,,,,,,,,,,,,,,,,153,0,807.7772,809.0936,m,1,1.3143,,[],[],[],[],[],[],[],809.0937,811.0935,811.0935,811.0937,[],[],[],[],[],[],[],,811.0937,811.0938,0.071627604,-0.405447049,0,0,0,,0,152,152,132,1,3,word,PROPOSAL,print,proposal_p.png,,,,,,
,,,,31849,001,2025-10-19_19h58.34.145,HW_LDT_1,2024.2.4,MacIntel,59.88023952,,,,,,,,,,,,,,,,,,,,811.0947,811.2935,811.2935,811.7936,,,,,,,,,,,,,,1.6585,1,,,,,,,,,,,,,,m,,,,,,,,,,,,,,,,154,0,811.794,813.4602,m,1,1.6585,,[],[],[],[],[],[],[],813.4603,815.4604,815.4604,815.4605,[],[],[],[],[],[],[],,815.4606,815.4606,0.071627604,-0.405447049,0,0,0,,0,153,153,130,1,3,word,POLICY,print,policy_p.png,,,,,,
,,,,31849,001,2025-10-19_19h58.34.145,HW_LDT_1,2024.2.4,MacIntel,59.88023952,,,,,,,,,,,,,,,,,,,,815.4616,815.6603,815.6604,816.1594,,,,,,,,,,,,,,1.1889,1,,,,,,,,,,,,,,z,,,,,,,,,,,,,,,,155,1,816.1599,817.3602,z,1,1.1889,,[],[],[],[],[],[],[],817.3602,819.3604,819.3605,821.9771,[],[],[],[],[],[],[],m,821.9772,821.9772,0.071627604,-0.405447049,0,0,0,,0,154,154,23,1,3,RL,quakity,print,quakity_p.png,2.6142,,,,,
,,,,31849,001,2025-10-19_19h58.34.145,HW_LDT_1,2024.2.4,MacIntel,59.88023952,,,,,,,,,,,,,,,,,,,,821.9781,822.1771,822.1771,822.6771,,,,,,,,,,,,,,1.9489,1,,,,,,,,,,,,,,m,,,,,,,,,,,,,,,,156,0,822.6775,824.6271,m,1,1.9489,,[],[],[],[],[],[],[],824.6272,826.627,826.627,826.6272,[],[],[],[],[],[],[],,826.6272,826.6272,0.071627604,-0.405447049,0,0,0,,0,155,155,151,1,3,word,SPECIFIC,print,specific_p.png,,,,,,
,,,,31849,001,2025-10-19_19h58.34.145,HW_LDT_1,2024.2.4,MacIntel,59.88023952,,,,,,,,,,,,,,,,,,,,826.6278,826.8272,826.8273,827.3272,,,,,,,,,,,,,,1.0821,0,,,,,,,,,,,,,,m,,,,,,,,,,,,,,,,157,0,827.3277,828.4105,z,0,1.0821,,[],[],[],[],[],[],[],828.4106,830.4104,830.4104,830.4105,[],[],[],[],[],[],[],,830.4105,830.4106,0.071627604,-0.405447049,0,0,0,,0,156,156,117,1,3,word,MARINE,cursive,marine_c.png,,,,,,
,,,,31849,001,2025-10-19_19h58.34.145,HW_LDT_1,2024.2.4,MacIntel,59.88023952,,,,,,,,,,,,,,,,,,,,830.4116,830.6108,830.6108,831.1098,,,,,,,,,,,,,,0.9757,1,,,,,,,,,,,,,,m,,,,,,,,,,,,,,,,158,1,831.1103,832.0932,m,1,0.9757,,[],[],[],[],[],[],[],832.0933,834.0942,834.0942,835.2942,[],[],[],[],[],[],[],m,835.2943,835.2944,0.071627604,-0.405447049,0,0,0,,0,157,157,133,1,3,word,PROVIDE,print,provide_p.png,1.1977,,,,,
,,,,31849,001,2025-10-19_19h58.34.145,HW_LDT_1,2024.2.4,MacIntel,59.88023952,,,,,,,,,,,,,,,,,,,,835.2952,835.4942,835.4942,835.9942,,,,,,,,,,,,,,1.3868,1,,,,,,,,,,,,,,z,,,,,,,,,,,,,,,,159,0,835.9946,837.3941,z,1,1.3868,,[],[],[],[],[],[],[],837.3942,839.3942,839.3943,839.3944,[],[],[],[],[],[],[],,839.3945,839.3946,0.071627604,-0.405447049,0,0,0,,0,158,158,49,1,3,TL,incidate,print,incidate_p.png,,,,,,
,,,,31849,001,2025-10-19_19h58.34.145,HW_LDT_1,2024.2.4,MacIntel,59.88023952,,,,,,,,,,,,,,,,,,,,839.3956,839.5942,839.5942,840.0944,,,,,,,,,,,,,,1.4651,1,,,,,,,,,,,,,,z,,,,,,,,,,,,,,,,160,0,840.0949,841.5607,z,1,1.4651,,[],[],[],[],[],[],[],841.5608,843.5602,843.5602,843.5604,[],[],[],[],[],[],[],,843.5604,843.5605,0.071627604,-0.405447049,0,0,0,,0,159,159,73,1,3,TL,speficic,print,speficic_p.png,,,,,,
,,,,31849,001,2025-10-19_19h58.34.145,HW_LDT_1,2024.2.4,MacIntel,59.88023952,,,,,,,,,,,,,,,,,,,,,,,,,,,,,,,,,,,,,,,,,,,,,,,,,,,,,,,,,,,,,,,,,,,,,,,,,,,,,,,,,,,,,,,,,,,,,,,,,,,,,,,,,,,,,,,,,,,,,843.5679,848.5606
