counterbalance_lists.group,counterbalance_lists.remaining,get_list.started,get_list.stopped,participant,session,date,expName,psychopyVersion,OS,frameRate,Instructions.started,Instructions.stopped,key_resp.keys,instr_done_touch.x,instr_done_touch.y,instr_done_touch.leftButton,instr_done_touch.midButton,instr_done_touch.rightButton,instr_done_touch.clicked_name,start_instr.thisRepN,start_instr.thisTrialN,start_instr.thisN,start_instr.thisIndex,start_instr.ran,pageN,phase,instruct_text,has_image,instruct_image,key_resp.rt,key_resp.duration,showProgress.started,showProgress.stopped,fix.started,fix.stopped,prac.started,prac.stopped,response.keys,response.corr,response.rt,response.duration,touch_resp.x,touch_resp.y,touch_resp.leftButton,touch_resp.midButton,touch_resp.rightButton,touch_resp.time,touch_resp.clicked_name,rt,corr,feedback.started,feedback.stopped,trials.thisRepN,trials.thisTrialN,trials.thisN,trials.thisIndex,trials.ran,TrialID,StimulusType,Condition,PrimeDuration,Prime,Target,corrAns,Instructions_expt.started,Instructions_expt.stopped,key_resp_3.keys,key_resp_3.rt,key_resp_3.duration,instr_done_touch_3.x,instr_done_touch_3.y,instr_done_touch_3.leftButton,instr_done_touch_3.midButton,instr_done_touch_3.rightButton,instr_done_touch_3.clicked_name,instr_experiment.thisRepN,instr_experiment.thisTrialN,instr_experiment.thisN,instr_experiment.thisIndex,instr_experiment.ran,trialID,flag,maintask.started,maintask.stopped,key_resp_2.keys,key_resp_2.corr,key_resp_2.rt,key_resp_2.duration,targ_click.x,targ_click.y,targ_click.leftButton,targ_click.midButton,targ_click.rightButton,targ_click.time,targ_click.clicked_name,ITI.started,ITI.stopped,probe.started,probe.stopped,click_probe.x,click_probe.y,click_probe.leftButton,click_probe.midButton,click_probe.rightButton,click_probe.time,click_probe.clicked_name,key_resp_probe.keys,Break.started,Break.stopped,break_done_touch.x,break_done_touch.y,break_done_touch.leftButton,break_done_touch.midButton,break_done_touch.rightButton,break_done_keyboard.keys,list4_trials.thisRepN,list4_trials.thisTrialN,list4_trials.thisN,list4_trials.thisIndex,list4_trials.ran,list_id,item_type,string,font,stim_file,key_resp_probe.rt,key_resp_probe.duration,break_done_keyboard.rt,break_done_keyboard.duration,End.started,End.stopped
list4,,5.231,5.231,31855,001,2025-10-16_10h29.00.376,HW_LDT_1,2024.2.4,MacIntel,52.63157895,,,,,,,,,,,,,,,,,,,,,,,,,,,,,,,,,,,,,,,,,,,,,,,,,,,,,,,,,,,,,,,,,,,,,,,,,,,,,,,,,,,,,,,,,,,,,,,,,,,,,,,,,,,,,,,,,,,,,,,,,
,,,,31855,001,2025-10-16_10h29.00.376,HW_LDT_1,2024.2.4,MacIntel,52.63157895,5.25,6.622,,0.045392022,-0.385832187,1,0,0,instr_done_button,0,0,0,0,1,1,instructions,"INSTRUCTIONS
At the start of each trial, look at the plus sign  (+) in the center of the screen.  This tells you that a trial is about to begin and where to look. Second, the plus sign will disappear and a string of letters will appear. Your task is to determine if the string of letters is a word or not. If the item is a word press the M key (on keyboard)  or touch the word button (phone/tablet).  If the item is not a word,  press the  Z key (on keyboard)  or touch the nonword button (on phone/tablet). The items will be presented for a short time. 
Press the space bar or touch  continue.",0,,,,,,,,,,,,,,,,,,,,,,,,,,,,,,,,,,,,,,,,,,,,,,,,,,,,,,,,,,,,,,,,,,,,,,,,,,,,,,,,,,,,,,,,,,,,,,,,,,,,,,,
,,,,31855,001,2025-10-16_10h29.00.376,HW_LDT_1,2024.2.4,MacIntel,52.63157895,6.623,12.255,,0.132049519,-0.389958735,1,0,0,instr_done_button,0,1,1,1,1,2,instructions,"If your device has a keyboard, press the 'Z' key for nonwords and the 'M' key for words.





Press the space bar or touch the button below to continue.",0,keyboard-example.gif,,,,,,,,,,,,,,,,,,,,,,,,,,,,,,,,,,,,,,,,,,,,,,,,,,,,,,,,,,,,,,,,,,,,,,,,,,,,,,,,,,,,,,,,,,,,,,,,,,,,,,
,,,,31855,001,2025-10-16_10h29.00.376,HW_LDT_1,2024.2.4,MacIntel,52.63157895,12.256,13.905,space,0.132049519,-0.389958735,0,0,0,,0,2,2,2,1,3,instructions,"If you are using a touchscreen only device, use the buttons on the screen. Do not use the mouse.





Press the space bar or touch the button below to continue.",0,touchscreen-example.gif,1.616,,,,,,,,,,,,,,,,,,,,,,,,,,,,,,,,,,,,,,,,,,,,,,,,,,,,,,,,,,,,,,,,,,,,,,,,,,,,,,,,,,,,,,,,,,,,,,,,,,,,,
,,,,31855,001,2025-10-16_10h29.00.376,HW_LDT_1,2024.2.4,MacIntel,52.63157895,13.906,19.435,space,0.132049519,-0.389958735,0,0,0,,0,3,3,3,1,4,instructions,"It is very important that you respond as quickly and accurately as possible, as each letter string will only be on the screen for two seconds. If you do not respond within this time, the message 'Too slow!' will be displayed and the experiment will progress to the next letter string. The first 20 trials will be practice trials and you will receive feedback on your answers. 

Press the space bar or touch the button below to start the practice trials.",0,,5.517,,,,,,,,,,,,,,,,,,,,,,,,,,,,,,,,,,,,,,,,,,,,,,,,,,,,,,,,,,,,,,,,,,,,,,,,,,,,,,,,,,,,,,,,,,,,,,,,,,,,,
,,,,31855,001,2025-10-16_10h29.00.376,HW_LDT_1,2024.2.4,MacIntel,52.63157895,,,,,,,,,,,,,,,,,,,,,,19.453,19.631,19.631,20.131,20.131,23.87,m,1,3.723,,[],[],[],[],[],[],[],3.723,1,23.871,24.364,0,0,0,1,1,1002,WORD,"ID",33,adjust,ADJUST,m,,,,,,,,,,,,,,,,,,,,,,,,,,,,,,,,,,,,,,,,,,,,,,,,,,,,,,,,,,,,,,,,,,,
,,,,31855,001,2025-10-16_10h29.00.376,HW_LDT_1,2024.2.4,MacIntel,52.63157895,,,,,,,,,,,,,,,,,,,,,,24.366,24.564,24.564,25.064,25.065,26.77,z,1,1.693,,[],[],[],[],[],[],[],1.693,1,26.77,27.264,0,1,1,15,1,1016,NW,UN,16,mushed,WHAISE,z,,,,,,,,,,,,,,,,,,,,,,,,,,,,,,,,,,,,,,,,,,,,,,,,,,,,,,,,,,,,,,,,,,,
,,,,31855,001,2025-10-16_10h29.00.376,HW_LDT_1,2024.2.4,MacIntel,52.63157895,,,,,,,,,,,,,,,,,,,,,,27.265,27.464,27.464,27.964,27.964,28.952,z,1,0.977,,[],[],[],[],[],[],[],0.977,1,28.953,29.447,0,2,2,11,1,1012,NW,"ID",16,rashet,RASHET,z,,,,,,,,,,,,,,,,,,,,,,,,,,,,,,,,,,,,,,,,,,,,,,,,,,,,,,,,,,,,,,,,,,,
,,,,31855,001,2025-10-16_10h29.00.376,HW_LDT_1,2024.2.4,MacIntel,52.63157895,,,,,,,,,,,,,,,,,,,,,,29.448,29.647,29.647,30.147,30.148,30.936,m,1,0.776,,[],[],[],[],[],[],[],0.776,1,30.936,31.43,0,3,3,0,1,1001,WORD,"ID",33,utopia,UTOPIA,m,,,,,,,,,,,,,,,,,,,,,,,,,,,,,,,,,,,,,,,,,,,,,,,,,,,,,,,,,,,,,,,,,,,
,,,,31855,001,2025-10-16_10h29.00.376,HW_LDT_1,2024.2.4,MacIntel,52.63157895,,,,,,,,,,,,,,,,,,,,,,31.431,31.63,31.63,32.13,32.131,33.02,m,1,0.877,,[],[],[],[],[],[],[],0.877,1,33.02,33.514,0,4,4,5,1,1006,WORD,UN,33,frenzy,OBTAIN,m,,,,,,,,,,,,,,,,,,,,,,,,,,,,,,,,,,,,,,,,,,,,,,,,,,,,,,,,,,,,,,,,,,,
,,,,31855,001,2025-10-16_10h29.00.376,HW_LDT_1,2024.2.4,MacIntel,52.63157895,,,,,,,,,,,,,,,,,,,,,,33.515,33.714,33.714,34.214,34.214,35.036,m,1,0.811,,[],[],[],[],[],[],[],0.811,1,35.036,35.531,0,5,5,3,1,1004,WORD,"ID",16,matrix,MATRIX,m,,,,,,,,,,,,,,,,,,,,,,,,,,,,,,,,,,,,,,,,,,,,,,,,,,,,,,,,,,,,,,,,,,,
,,,,31855,001,2025-10-16_10h29.00.376,HW_LDT_1,2024.2.4,MacIntel,52.63157895,,,,,,,,,,,,,,,,,,,,,,35.532,35.73,35.731,36.23,36.231,37.153,m,0,0.91,,[],[],[],[],[],[],[],0.91,0,37.153,37.647,0,6,6,10,1,1011,NW,"ID",16,inlade,INLADE,z,,,,,,,,,,,,,,,,,,,,,,,,,,,,,,,,,,,,,,,,,,,,,,,,,,,,,,,,,,,,,,,,,,,
,,,,31855,001,2025-10-16_10h29.00.376,HW_LDT_1,2024.2.4,MacIntel,52.63157895,,,,,,,,,,,,,,,,,,,,,,37.648,37.847,37.847,38.347,38.348,39.436,m,1,1.08,,[],[],[],[],[],[],[],1.08,1,39.437,39.931,0,7,7,6,1,1007,WORD,UN,16,tropic,ZOMBIE,m,,,,,,,,,,,,,,,,,,,,,,,,,,,,,,,,,,,,,,,,,,,,,,,,,,,,,,,,,,,,,,,,,,,
,,,,31855,001,2025-10-16_10h29.00.376,HW_LDT_1,2024.2.4,MacIntel,52.63157895,,,,,,,,,,,,,,,,,,,,,,39.932,40.131,40.131,40.63,40.631,41.638,z,1,0.997,,[],[],[],[],[],[],[],0.997,1,41.638,42.131,0,8,8,9,1,1010,NW,"ID",33,fariny,FARINY,z,,,,,,,,,,,,,,,,,,,,,,,,,,,,,,,,,,,,,,,,,,,,,,,,,,,,,,,,,,,,,,,,,,,
,,,,31855,001,2025-10-16_10h29.00.376,HW_LDT_1,2024.2.4,MacIntel,52.63157895,,,,,,,,,,,,,,,,,,,,,,42.132,42.331,42.331,42.831,42.831,43.503,m,1,0.662,,[],[],[],[],[],[],[],0.662,1,43.503,43.997,0,9,9,4,1,1005,WORD,UN,33,abound,SQUEAK,m,,,,,,,,,,,,,,,,,,,,,,,,,,,,,,,,,,,,,,,,,,,,,,,,,,,,,,,,,,,,,,,,,,,
,,,,31855,001,2025-10-16_10h29.00.376,HW_LDT_1,2024.2.4,MacIntel,52.63157895,,,,,,,,,,,,,,,,,,,,,,43.998,44.197,44.197,44.697,44.698,46.337,z,1,1.629,,[],[],[],[],[],[],[],1.629,1,46.338,46.831,0,10,10,12,1,1013,NW,UN,33,adveil,SPRINY,z,,,,,,,,,,,,,,,,,,,,,,,,,,,,,,,,,,,,,,,,,,,,,,,,,,,,,,,,,,,,,,,,,,,
,,,,31855,001,2025-10-16_10h29.00.376,HW_LDT_1,2024.2.4,MacIntel,52.63157895,,,,,,,,,,,,,,,,,,,,,,46.832,47.031,47.031,47.531,47.531,48.603,m,1,1.06,,[],[],[],[],[],[],[],1.06,1,48.603,49.098,0,11,11,7,1,1008,WORD,UN,16,hurdle,VOLUME,m,,,,,,,,,,,,,,,,,,,,,,,,,,,,,,,,,,,,,,,,,,,,,,,,,,,,,,,,,,,,,,,,,,,
,,,,31855,001,2025-10-16_10h29.00.376,HW_LDT_1,2024.2.4,MacIntel,52.63157895,,,,,,,,,,,,,,,,,,,,,,49.099,49.297,49.297,49.797,49.798,51.486,z,1,1.678,,[],[],[],[],[],[],[],1.678,1,51.486,51.981,0,12,12,8,1,1009,NW,"ID",33,aslert,ASLERT,z,,,,,,,,,,,,,,,,,,,,,,,,,,,,,,,,,,,,,,,,,,,,,,,,,,,,,,,,,,,,,,,,,,,
,,,,31855,001,2025-10-16_10h29.00.376,HW_LDT_1,2024.2.4,MacIntel,52.63157895,,,,,,,,,,,,,,,,,,,,,,51.982,52.181,52.181,52.681,52.681,53.603,z,1,0.912,,[],[],[],[],[],[],[],0.912,1,53.603,54.098,0,13,13,13,1,1014,NW,UN,33,winfer,ROUPET,z,,,,,,,,,,,,,,,,,,,,,,,,,,,,,,,,,,,,,,,,,,,,,,,,,,,,,,,,,,,,,,,,,,,
,,,,31855,001,2025-10-16_10h29.00.376,HW_LDT_1,2024.2.4,MacIntel,52.63157895,,,,,,,,,,,,,,,,,,,,,,54.099,54.297,54.297,54.798,54.798,55.553,z,1,0.745,,[],[],[],[],[],[],[],0.745,1,55.553,56.047,0,14,14,14,1,1015,NW,UN,16,miaber,THRALE,z,,,,,,,,,,,,,,,,,,,,,,,,,,,,,,,,,,,,,,,,,,,,,,,,,,,,,,,,,,,,,,,,,,,
,,,,31855,001,2025-10-16_10h29.00.376,HW_LDT_1,2024.2.4,MacIntel,52.63157895,,,,,,,,,,,,,,,,,,,,,,56.049,56.248,56.248,56.747,56.748,57.754,m,1,0.996,,[],[],[],[],[],[],[],0.996,1,57.754,58.247,0,15,15,2,1,1003,WORD,"ID",16,almond,ALMOND,m,,,,,,,,,,,,,,,,,,,,,,,,,,,,,,,,,,,,,,,,,,,,,,,,,,,,,,,,,,,,,,,,,,,
,,,,31855,001,2025-10-16_10h29.00.376,HW_LDT_1,2024.2.4,MacIntel,52.63157895,,,,,,,,,,,,,,,1,end_of_practice,"You have completed the practice trials. During the experimental trials, you will not receive feedback. On some trials you will be asked to report whether the item you just saw was in cursive or print. 
Before you begin, please ensure that you are in a comfortable and quiet location and will not be disturbed for about 15 minutes, as we cannot use your data if you do not complete all the trials. 
 When you are ready to start the experimental trials, please press space or touch the button below.",,,,,,,,,,,,,,,,,,,,,,,,,,,,,,,,,,,,,,58.255,174.221,space,115.932,,0.639614856,-0.051581843,0,0,0,,0,0,0,0,1,,,,,,,,,,,,,,,,,,,,,,,,,,,,,,,,,,,,,,,,,,,,,,,,,,,
,,,,31855,001,2025-10-16_10h29.00.376,HW_LDT_1,2024.2.4,MacIntel,52.63157895,,,,,,,,,,,,,,,,,,,,,,174.238,174.413,174.413,174.913,,,,,,,,,,,,,,2.147,0,,,,,,,,,,,,,,m,,,,,,,,,,,,,,,,,1,0,174.916,177.069,z,0,2.147,,[],[],[],[],[],[],[],177.069,179.063,179.064,179.07,[],[],[],[],[],[],[],,179.07,179.072,0.639614856,-0.051581843,0,0,0,,0,0,0,128,1,4,word,PACIFIC,cursive,pacific_c.png,,,,,,
,,,,31855,001,2025-10-16_10h29.00.376,HW_LDT_1,2024.2.4,MacIntel,52.63157895,,,,,,,,,,,,,,,,,,,,,,179.073,179.262,179.262,179.762,,,,,,,,,,,,,,2.835,1,,,,,,,,,,,,,,z,,,,,,,,,,,,,,,,,2,0,179.763,182.601,z,1,2.835,,[],[],[],[],[],[],[],182.602,184.596,184.596,184.596,[],[],[],[],[],[],[],,184.596,184.597,0.639614856,-0.051581843,0,0,0,,0,1,1,9,1,4,RL,cafigal,print,cafigal_p.png,,,,,,
,,,,31855,001,2025-10-16_10h29.00.376,HW_LDT_1,2024.2.4,MacIntel,52.63157895,,,,,,,,,,,,,,,,,,,,,,184.598,184.796,184.796,185.296,,,,,,,,,,,,,,2.868,1,,,,,,,,,,,,,,z,,,,,,,,,,,,,,,,,3,0,185.296,188.168,z,1,2.868,,[],[],[],[],[],[],[],188.168,190.163,190.163,190.163,[],[],[],[],[],[],[],,190.163,190.163,0.639614856,-0.051581843,0,0,0,,0,2,2,48,1,4,RL,vabifity,print,vabifity_p.png,,,,,,
,,,,31855,001,2025-10-16_10h29.00.376,HW_LDT_1,2024.2.4,MacIntel,52.63157895,,,,,,,,,,,,,,,,,,,,,,190.164,190.363,190.363,190.863,,,,,,,,,,,,,,3.235,1,,,,,,,,,,,,,,m,,,,,,,,,,,,,,,,,4,0,190.863,194.101,m,1,3.235,,[],[],[],[],[],[],[],194.102,196.096,196.096,196.096,[],[],[],[],[],[],[],,196.096,196.096,0.639614856,-0.051581843,0,0,0,,0,3,3,159,1,4,word,VETERAN,cursive,veteran_c.png,,,,,,
,,,,31855,001,2025-10-16_10h29.00.376,HW_LDT_1,2024.2.4,MacIntel,52.63157895,,,,,,,,,,,,,,,,,,,,,,196.097,196.296,196.296,196.796,,,,,,,,,,,,,,1.354,1,,,,,,,,,,,,,,m,,,,,,,,,,,,,,,,,5,1,196.796,198.153,m,1,1.354,,[],[],[],[],[],[],[],198.153,200.146,200.146,203.751,[],[],[],[],[],[],[],m,203.752,203.752,0.639614856,-0.051581843,0,0,0,,0,4,4,121,1,4,word,MISTAKE,print,mistake_p.png,3.602,,,,,
,,,,31855,001,2025-10-16_10h29.00.376,HW_LDT_1,2024.2.4,MacIntel,52.63157895,,,,,,,,,,,,,,,,,,,,,,203.753,203.946,203.946,204.446,,,,,,,,,,,,,,1.369,1,,,,,,,,,,,,,,m,,,,,,,,,,,,,,,,,6,0,204.447,205.818,m,1,1.369,,[],[],[],[],[],[],[],205.818,207.813,207.813,207.814,[],[],[],[],[],[],[],,207.814,207.814,0.639614856,-0.051581843,0,0,0,,0,5,5,135,1,4,word,QUALITY,print,quality_p.png,,,,,,
,,,,31855,001,2025-10-16_10h29.00.376,HW_LDT_1,2024.2.4,MacIntel,52.63157895,,,,,,,,,,,,,,,,,,,,,,207.815,208.013,208.013,208.513,,,,,,,,,,,,,,1.154,1,,,,,,,,,,,,,,m,,,,,,,,,,,,,,,,,7,0,208.513,209.67,m,1,1.154,,[],[],[],[],[],[],[],209.67,211.663,211.663,211.664,[],[],[],[],[],[],[],,211.664,211.664,0.639614856,-0.051581843,0,0,0,,0,6,6,141,1,4,word,RELIGION,print,religion_p.png,,,,,,
,,,,31855,001,2025-10-16_10h29.00.376,HW_LDT_1,2024.2.4,MacIntel,52.63157895,,,,,,,,,,,,,,,,,,,,,,211.666,211.863,211.863,212.363,,,,,,,,,,,,,,1.802,1,,,,,,,,,,,,,,m,,,,,,,,,,,,,,,,,8,0,212.363,214.168,m,1,1.802,,[],[],[],[],[],[],[],214.168,216.163,216.163,216.163,[],[],[],[],[],[],[],,216.163,216.164,0.639614856,-0.051581843,0,0,0,,0,7,7,137,1,4,word,RAPIDLY,cursive,rapidly_c.png,,,,,,
,,,,31855,001,2025-10-16_10h29.00.376,HW_LDT_1,2024.2.4,MacIntel,52.63157895,,,,,,,,,,,,,,,,,,,,,,216.165,216.363,216.363,216.863,,,,,,,,,,,,,,3.585,1,,,,,,,,,,,,,,z,,,,,,,,,,,,,,,,,9,0,216.864,220.451,z,1,3.585,,[],[],[],[],[],[],[],220.451,222.446,222.447,222.447,[],[],[],[],[],[],[],,222.447,222.447,0.639614856,-0.051581843,0,0,0,,0,8,8,6,1,4,RL,caleberia,cursive,caleberia_c.png,,,,,,
,,,,31855,001,2025-10-16_10h29.00.376,HW_LDT_1,2024.2.4,MacIntel,52.63157895,,,,,,,,,,,,,,,,,,,,,,222.448,222.647,222.647,223.147,,,,,,,,,,,,,,2.552,1,,,,,,,,,,,,,,z,,,,,,,,,,,,,,,,,10,0,223.147,225.702,z,1,2.552,,[],[],[],[],[],[],[],225.702,227.697,227.697,227.698,[],[],[],[],[],[],[],,227.698,227.698,0.639614856,-0.051581843,0,0,0,,0,9,9,11,1,4,RL,clisimal,print,clisimal_p.png,,,,,,
,,,,31855,001,2025-10-16_10h29.00.376,HW_LDT_1,2024.2.4,MacIntel,52.63157895,,,,,,,,,,,,,,,,,,,,,,227.7,227.897,227.897,228.397,,,,,,,,,,,,,,2.72,1,,,,,,,,,,,,,,z,,,,,,,,,,,,,,,,,11,0,228.397,231.121,z,1,2.72,,[],[],[],[],[],[],[],231.121,233.113,233.114,233.114,[],[],[],[],[],[],[],,233.114,233.114,0.639614856,-0.051581843,0,0,0,,0,10,10,72,1,4,TL,relugar,cursive,relugar_c.png,,,,,,
,,,,31855,001,2025-10-16_10h29.00.376,HW_LDT_1,2024.2.4,MacIntel,52.63157895,,,,,,,,,,,,,,,,,,,,,,233.116,233.314,233.314,233.814,,,,,,,,,,,,,,2.514,1,,,,,,,,,,,,,,z,,,,,,,,,,,,,,,,,12,0,233.819,236.336,z,1,2.514,,[],[],[],[],[],[],[],236.336,238.33,238.33,238.331,[],[],[],[],[],[],[],,238.331,238.331,0.639614856,-0.051581843,0,0,0,,0,11,11,62,1,4,TL,locigal,print,locigal_p.png,,,,,,
,,,,31855,001,2025-10-16_10h29.00.376,HW_LDT_1,2024.2.4,MacIntel,52.63157895,,,,,,,,,,,,,,,,,,,,,,238.333,238.53,238.531,239.03,,,,,,,,,,,,,,2.069,1,,,,,,,,,,,,,,m,,,,,,,,,,,,,,,,,13,0,239.031,241.102,m,1,2.069,,[],[],[],[],[],[],[],241.102,243.097,243.097,243.097,[],[],[],[],[],[],[],,243.097,243.097,0.639614856,-0.051581843,0,0,0,,0,12,12,97,1,4,word,COVERAGE,cursive,coverage_c.png,,,,,,
,,,,31855,001,2025-10-16_10h29.00.376,HW_LDT_1,2024.2.4,MacIntel,52.63157895,,,,,,,,,,,,,,,,,,,,,,243.098,243.297,243.297,243.797,,,,,,,,,,,,,,2.584,1,,,,,,,,,,,,,,z,,,,,,,,,,,,,,,,,14,0,243.798,246.385,z,1,2.584,,[],[],[],[],[],[],[],246.386,248.38,248.381,248.381,[],[],[],[],[],[],[],,248.381,248.381,0.639614856,-0.051581843,0,0,0,,0,13,13,16,1,4,RL,desifate,cursive,desifate_c.png,,,,,,
,,,,31855,001,2025-10-16_10h29.00.376,HW_LDT_1,2024.2.4,MacIntel,52.63157895,,,,,,,,,,,,,,,,,,,,,,248.383,248.58,248.58,249.081,,,,,,,,,,,,,,1.468,1,,,,,,,,,,,,,,z,,,,,,,,,,,,,,,,,15,0,249.081,250.552,z,1,1.468,,[],[],[],[],[],[],[],250.552,252.547,252.547,252.548,[],[],[],[],[],[],[],,252.548,252.548,0.639614856,-0.051581843,0,0,0,,0,14,14,18,1,4,RL,disluge,print,disluge_p.png,,,,,,
,,,,31855,001,2025-10-16_10h29.00.376,HW_LDT_1,2024.2.4,MacIntel,52.63157895,,,,,,,,,,,,,,,,,,,,,,252.549,252.747,252.747,253.247,,,,,,,,,,,,,,1.303,1,,,,,,,,,,,,,,m,,,,,,,,,,,,,,,,,16,0,253.248,254.554,m,1,1.303,,[],[],[],[],[],[],[],254.554,256.548,256.548,256.548,[],[],[],[],[],[],[],,256.548,256.548,0.639614856,-0.051581843,0,0,0,,0,15,15,147,1,4,word,ROMANTIC,print,romantic_p.png,,,,,,
,,,,31855,001,2025-10-16_10h29.00.376,HW_LDT_1,2024.2.4,MacIntel,52.63157895,,,,,,,,,,,,,,,,,,,,,,256.55,256.747,256.747,257.247,,,,,,,,,,,,,,1.335,1,,,,,,,,,,,,,,z,,,,,,,,,,,,,,,,,17,0,257.248,258.585,z,1,1.335,,[],[],[],[],[],[],[],258.585,260.581,260.581,260.581,[],[],[],[],[],[],[],,260.581,260.582,0.639614856,-0.051581843,0,0,0,,0,16,16,53,1,4,TL,cemerony,print,cemerony_p.png,,,,,,
,,,,31855,001,2025-10-16_10h29.00.376,HW_LDT_1,2024.2.4,MacIntel,52.63157895,,,,,,,,,,,,,,,,,,,,,,260.583,260.781,260.781,261.281,,,,,,,,,,,,,,3.301,0,,,,,,,,,,,,,,z,,,,,,,,,,,,,,,,,18,1,261.282,264.586,m,0,3.301,,[],[],[],[],[],[],[],264.586,266.581,266.581,268.621,[],[],[],[],[],[],[],z,268.621,268.621,0.639614856,-0.051581843,0,0,0,,0,17,17,51,1,4,TL,adsivory,cursive,adsivory_c.png,2.038,,,,,
,,,,31855,001,2025-10-16_10h29.00.376,HW_LDT_1,2024.2.4,MacIntel,52.63157895,,,,,,,,,,,,,,,,,,,,,,268.622,268.814,268.814,269.314,,,,,,,,,,,,,,1.687,1,,,,,,,,,,,,,,m,,,,,,,,,,,,,,,,,19,1,269.315,271.004,m,1,1.687,,[],[],[],[],[],[],[],271.004,272.998,272.998,277.122,[],[],[],[],[],[],[],m,277.122,277.122,-0.682255846,-0.187757909,0,0,0,,0,18,18,80,1,4,word,ACADEMY,print,academy_p.png,4.121,,,,,
,,,,31855,001,2025-10-16_10h29.00.376,HW_LDT_1,2024.2.4,MacIntel,52.63157895,,,,,,,,,,,,,,,,,,,,,,277.123,277.314,277.314,277.814,,,,,,,,,,,,,,1.368,1,,,,,,,,,,,,,,z,,,,,,,,,,,,,,,,,20,0,277.815,279.187,z,1,1.368,,[],[],[],[],[],[],[],279.187,281.181,281.181,281.181,[],[],[],[],[],[],[],,281.181,281.182,-0.833562586,0.501375516,0,0,0,,0,19,19,74,1,4,TL,rerite,print,rerite_p.png,,,,,,
,,,,31855,001,2025-10-16_10h29.00.376,HW_LDT_1,2024.2.4,MacIntel,52.63157895,,,,,,,,,,,,,,,,,,,,,,281.183,281.381,281.381,281.881,,,,,,,,,,,,,,2.287,0,,,,,,,,,,,,,,m,,,,,,,,,,,,,,,,,21,1,281.882,284.172,z,0,2.287,,[],[],[],[],[],[],[],284.172,286.164,286.165,287.988,[],[],[],[],[],[],[],z,287.988,287.988,-0.833562586,0.501375516,0,0,0,,0,20,20,114,1,4,word,LOCATE,cursive,locate_c.png,1.821,,,,,
,,,,31855,001,2025-10-16_10h29.00.376,HW_LDT_1,2024.2.4,MacIntel,52.63157895,,,,,,,,,,,,,,,,,,,,,,287.99,288.181,288.181,288.681,,,,,,,,,,,,,,2.152,1,,,,,,,,,,,,,,z,,,,,,,,,,,,,,,,,22,0,288.682,290.837,z,1,2.152,,[],[],[],[],[],[],[],290.837,292.831,292.831,292.832,[],[],[],[],[],[],[],,292.832,292.832,-0.833562586,0.501375516,0,0,0,,0,21,21,49,1,4,RL,vesofity,cursive,vesofity_c.png,,,,,,
,,,,31855,001,2025-10-16_10h29.00.376,HW_LDT_1,2024.2.4,MacIntel,52.63157895,,,,,,,,,,,,,,,,,,,,,,292.834,293.031,293.031,293.531,,,,,,,,,,,,,,1.218,1,,,,,,,,,,,,,,z,,,,,,,,,,,,,,,,,23,0,293.532,294.754,z,1,1.218,,[],[],[],[],[],[],[],294.754,296.748,296.748,296.748,[],[],[],[],[],[],[],,296.749,296.749,-0.833562586,0.501375516,0,0,0,,0,22,22,29,1,4,RL,motide,print,motide_p.png,,,,,,
,,,,31855,001,2025-10-16_10h29.00.376,HW_LDT_1,2024.2.4,MacIntel,52.63157895,,,,,,,,,,,,,,,,,,,,,,296.75,296.948,296.948,297.448,,,,,,,,,,,,,,2.402,1,,,,,,,,,,,,,,m,,,,,,,,,,,,,,,,,24,0,297.449,299.854,m,1,2.402,,[],[],[],[],[],[],[],299.854,301.848,301.848,301.848,[],[],[],[],[],[],[],,301.849,301.849,-0.833562586,0.501375516,0,0,0,,0,23,23,81,1,4,word,ADVISORY,cursive,advisory_c.png,,,,,,
,,,,31855,001,2025-10-16_10h29.00.376,HW_LDT_1,2024.2.4,MacIntel,52.63157895,,,,,,,,,,,,,,,,,,,,,,301.85,302.048,302.048,302.548,,,,,,,,,,,,,,1.218,1,,,,,,,,,,,,,,m,,,,,,,,,,,,,,,,,25,0,302.549,303.77,m,1,1.218,,[],[],[],[],[],[],[],303.77,305.765,305.765,305.765,[],[],[],[],[],[],[],,305.766,305.766,-0.833562586,0.501375516,0,0,0,,0,24,24,107,1,4,word,EVIDENT,print,evident_p.png,,,,,,
,,,,31855,001,2025-10-16_10h29.00.376,HW_LDT_1,2024.2.4,MacIntel,52.63157895,,,,,,,,,,,,,,,,,,,,,,305.767,305.965,305.965,306.465,,,,,,,,,,,,,,1.051,1,,,,,,,,,,,,,,m,,,,,,,,,,,,,,,,,26,0,306.466,307.52,m,1,1.051,,[],[],[],[],[],[],[],307.52,309.515,309.515,309.515,[],[],[],[],[],[],[],,309.515,309.515,-0.833562586,0.501375516,0,0,0,,0,25,25,143,1,4,word,REMOVAL,print,removal_p.png,,,,,,
,,,,31855,001,2025-10-16_10h29.00.376,HW_LDT_1,2024.2.4,MacIntel,52.63157895,,,,,,,,,,,,,,,,,,,,,,309.517,309.715,309.715,310.215,,,,,,,,,,,,,,1.118,1,,,,,,,,,,,,,,m,,,,,,,,,,,,,,,,,27,0,310.216,311.338,m,1,1.118,,[],[],[],[],[],[],[],311.338,313.332,313.332,313.332,[],[],[],[],[],[],[],,313.332,313.333,-0.833562586,0.501375516,0,0,0,,0,26,26,127,1,4,word,ORIGINAL,print,original_p.png,,,,,,
,,,,31855,001,2025-10-16_10h29.00.376,HW_LDT_1,2024.2.4,MacIntel,52.63157895,,,,,,,,,,,,,,,,,,,,,,313.334,313.532,313.532,314.032,,,,,,,,,,,,,,0.87,1,,,,,,,,,,,,,,m,,,,,,,,,,,,,,,,,28,1,314.032,314.905,m,1,0.87,,[],[],[],[],[],[],[],314.905,316.899,316.899,317.953,[],[],[],[],[],[],[],m,317.954,317.954,-0.833562586,0.501375516,0,0,0,,0,27,27,132,1,4,word,PROPOSAL,print,proposal_p.png,1.052,,,,,
,,,,31855,001,2025-10-16_10h29.00.376,HW_LDT_1,2024.2.4,MacIntel,52.63157895,,,,,,,,,,,,,,,,,,,,,,317.955,318.148,318.149,318.648,,,,,,,,,,,,,,1.77,1,,,,,,,,,,,,,,z,,,,,,,,,,,,,,,,,29,1,318.649,320.422,z,1,1.77,,[],[],[],[],[],[],[],320.422,322.415,322.415,323.737,[],[],[],[],[],[],[],m,323.737,323.737,-0.833562586,0.501375516,0,0,0,,0,28,28,44,1,4,RL,senvilent,print,senvilent_p.png,1.319,,,,,
,,,,31855,001,2025-10-16_10h29.00.376,HW_LDT_1,2024.2.4,MacIntel,52.63157895,,,,,,,,,,,,,,,,,,,,,,323.738,323.932,323.932,324.432,,,,,,,,,,,,,,0.985,1,,,,,,,,,,,,,,m,,,,,,,,,,,,,,,,,30,0,324.432,325.421,m,1,0.985,,[],[],[],[],[],[],[],325.421,327.415,327.416,327.416,[],[],[],[],[],[],[],,327.416,327.416,-0.833562586,0.501375516,0,0,0,,0,29,29,88,1,4,word,CAMERA,print,camera_p.png,,,,,,
,,,,31855,001,2025-10-16_10h29.00.376,HW_LDT_1,2024.2.4,MacIntel,52.63157895,,,,,,,,,,,,,,,,,,,,,,327.417,327.616,327.616,328.115,,,,,,,,,,,,,,0.869,1,,,,,,,,,,,,,,z,,,,,,,,,,,,,,,,,31,0,328.116,328.987,z,1,0.869,,[],[],[],[],[],[],[],328.987,330.982,330.982,330.983,[],[],[],[],[],[],[],,330.983,330.983,-0.833562586,0.501375516,0,0,0,,0,30,30,27,1,4,RL,menowy,print,menowy_p.png,,,,,,
,,,,31855,001,2025-10-16_10h29.00.376,HW_LDT_1,2024.2.4,MacIntel,52.63157895,,,,,,,,,,,,,,,,,,,,,,330.985,331.182,331.182,331.682,,,,,,,,,,,,,,0.769,1,,,,,,,,,,,,,,m,,,,,,,,,,,,,,,,,32,0,331.683,332.455,m,1,0.769,,[],[],[],[],[],[],[],332.455,334.449,334.449,334.449,[],[],[],[],[],[],[],,334.449,334.449,-0.833562586,0.501375516,0,0,0,,0,31,31,154,1,4,word,STORAGE,print,storage_p.png,,,,,,
,,,,31855,001,2025-10-16_10h29.00.376,HW_LDT_1,2024.2.4,MacIntel,52.63157895,,,,,,,,,,,,,,,,,,,,,,334.451,334.649,334.649,335.149,,,,,,,,,,,,,,1.902,1,,,,,,,,,,,,,,m,,,,,,,,,,,,,,,,,33,0,335.149,337.054,m,1,1.902,,[],[],[],[],[],[],[],337.054,339.049,339.049,339.049,[],[],[],[],[],[],[],,339.049,339.049,-0.833562586,0.501375516,0,0,0,,0,32,32,84,1,4,word,BELOVED,print,beloved_p.png,,,,,,
,,,,31855,001,2025-10-16_10h29.00.376,HW_LDT_1,2024.2.4,MacIntel,52.63157895,,,,,,,,,,,,,,,,,,,,,,339.05,339.249,339.249,339.749,,,,,,,,,,,,,,1.852,0,,,,,,,,,,,,,,m,,,,,,,,,,,,,,,,,34,0,339.75,341.604,z,0,1.852,,[],[],[],[],[],[],[],341.604,343.599,343.599,343.6,[],[],[],[],[],[],[],,343.6,343.6,-0.833562586,0.501375516,0,0,0,,0,33,33,101,1,4,word,DELICATE,cursive,delicate_c.png,,,,,,
,,,,31855,001,2025-10-16_10h29.00.376,HW_LDT_1,2024.2.4,MacIntel,52.63157895,,,,,,,,,,,,,,,,,,,,,,343.601,343.799,343.799,344.299,,,,,,,,,,,,,,1.003,1,,,,,,,,,,,,,,z,,,,,,,,,,,,,,,,,35,0,344.299,345.305,z,1,1.003,,[],[],[],[],[],[],[],345.305,347.299,347.299,347.3,[],[],[],[],[],[],[],,347.3,347.3,-0.833562586,0.501375516,0,0,0,,0,34,34,12,1,4,RL,conbicer,cursive,conbicer_c.png,,,,,,
,,,,31855,001,2025-10-16_10h29.00.376,HW_LDT_1,2024.2.4,MacIntel,52.63157895,,,,,,,,,,,,,,,,,,,,,,347.301,347.499,347.499,347.999,,,,,,,,,,,,,,1.169,1,,,,,,,,,,,,,,m,,,,,,,,,,,,,,,,,36,1,347.999,349.171,m,1,1.169,,[],[],[],[],[],[],[],349.171,351.166,351.166,352.188,[],[],[],[],[],[],[],m,352.189,352.189,-0.833562586,0.501375516,0,0,0,,0,35,35,94,1,4,word,CLINICAL,print,clinical_p.png,1.02,,,,,
,,,,31855,001,2025-10-16_10h29.00.376,HW_LDT_1,2024.2.4,MacIntel,52.63157895,,,,,,,,,,,,,,,,,,,,,,352.19,352.382,352.382,352.883,,,,,,,,,,,,,,3.485,1,,,,,,,,,,,,,,z,,,,,,,,,,,,,,,,,37,0,352.883,356.371,z,1,3.485,,[],[],[],[],[],[],[],356.371,358.366,358.366,358.366,[],[],[],[],[],[],[],,358.366,358.366,-0.833562586,0.501375516,0,0,0,,0,36,36,2,1,4,RL,asiral,cursive,asiral_c.png,,,,,,
,,,,31855,001,2025-10-16_10h29.00.376,HW_LDT_1,2024.2.4,MacIntel,52.63157895,,,,,,,,,,,,,,,,,,,,,,358.368,358.566,358.566,359.066,,,,,,,,,,,,,,2.852,1,,,,,,,,,,,,,,z,,,,,,,,,,,,,,,,,38,0,359.066,361.921,z,1,2.852,,[],[],[],[],[],[],[],361.921,363.916,363.916,363.916,[],[],[],[],[],[],[],,363.917,363.917,-0.833562586,0.501375516,0,0,0,,0,37,37,10,1,4,RL,carminal,cursive,carminal_c.png,,,,,,
,,,,31855,001,2025-10-16_10h29.00.376,HW_LDT_1,2024.2.4,MacIntel,52.63157895,,,,,,,,,,,,,,,,,,,,,,363.918,364.116,364.116,364.616,,,,,,,,,,,,,,1.671,1,,,,,,,,,,,,,,m,,,,,,,,,,,,,,,,,39,0,364.617,366.289,m,1,1.671,,[],[],[],[],[],[],[],366.289,368.283,368.283,368.283,[],[],[],[],[],[],[],,368.283,368.283,-0.833562586,0.501375516,0,0,0,,0,38,38,85,1,4,word,BENEFIT,cursive,benefit_c.png,,,,,,
,,,,31855,001,2025-10-16_10h29.00.376,HW_LDT_1,2024.2.4,MacIntel,52.63157895,,,,,,,,,,,,,,,,,,,,,,368.285,368.483,368.483,368.983,,,,,,,,,,,,,,1.154,1,,,,,,,,,,,,,,m,,,,,,,,,,,,,,,,,40,0,368.983,370.14,m,1,1.154,,[],[],[],[],[],[],[],370.14,372.133,372.133,372.133,[],[],[],[],[],[],[],,372.133,372.133,-0.833562586,0.501375516,0,0,0,,0,39,39,96,1,4,word,CONSIDER,cursive,consider_c.png,,,,,,
,,,,31855,001,2025-10-16_10h29.00.376,HW_LDT_1,2024.2.4,MacIntel,52.63157895,,,,,,,,,,,,,,,,,,,,,,372.134,372.333,372.333,372.833,,,,,,,,,,,,,,3.504,1,,,,,,,,,,,,,,z,,,,,,,,,,,,,,,,,41,0,372.833,376.34,z,1,3.504,,[],[],[],[],[],[],[],376.34,378.333,378.333,378.333,[],[],[],[],[],[],[],,378.333,378.333,-0.833562586,0.501375516,0,0,0,,0,40,40,14,1,4,RL,delahe,cursive,delahe_c.png,,,,,,
,,,,31855,001,2025-10-16_10h29.00.376,HW_LDT_1,2024.2.4,MacIntel,52.63157895,,,,,,,,,,,,,,,,,,,,,,378.334,378.533,378.533,379.033,,,,,,,,,,,,,,1.019,1,,,,,,,,,,,,,,m,,,,,,,,,,,,,,,,,42,0,379.033,380.056,m,1,1.019,,[],[],[],[],[],[],[],380.056,382.05,382.05,382.05,[],[],[],[],[],[],[],,382.05,382.05,-0.833562586,0.501375516,0,0,0,,0,41,41,83,1,4,word,ANIMAL,cursive,animal_c.png,,,,,,
,,,,31855,001,2025-10-16_10h29.00.376,HW_LDT_1,2024.2.4,MacIntel,52.63157895,,,,,,,,,,,,,,,,,,,,,,382.051,382.25,382.25,382.75,,,,,,,,,,,,,,0.985,1,,,,,,,,,,,,,,m,,,,,,,,,,,,,,,,,43,0,382.75,383.739,m,1,0.985,,[],[],[],[],[],[],[],383.739,385.733,385.733,385.733,[],[],[],[],[],[],[],,385.734,385.734,-0.833562586,0.501375516,0,0,0,,0,42,42,117,1,4,word,MARINE,print,marine_p.png,,,,,,
,,,,31855,001,2025-10-16_10h29.00.376,HW_LDT_1,2024.2.4,MacIntel,52.63157895,,,,,,,,,,,,,,,,,,,,,,385.735,385.933,385.933,386.433,,,,,,,,,,,,,,3.369,1,,,,,,,,,,,,,,z,,,,,,,,,,,,,,,,,44,0,386.433,389.805,z,1,3.369,,[],[],[],[],[],[],[],389.805,391.8,391.8,391.8,[],[],[],[],[],[],[],,391.8,391.8,-0.833562586,0.501375516,0,0,0,,0,43,43,8,1,4,RL,casagity,cursive,casagity_c.png,,,,,,
,,,,31855,001,2025-10-16_10h29.00.376,HW_LDT_1,2024.2.4,MacIntel,52.63157895,,,,,,,,,,,,,,,,,,,,,,391.801,392,392,392.5,,,,,,,,,,,,,,0.654,1,,,,,,,,,,,,,,m,,,,,,,,,,,,,,,,,45,0,392.5,393.157,m,1,0.654,,[],[],[],[],[],[],[],393.157,395.15,395.15,395.15,[],[],[],[],[],[],[],,395.15,395.15,-0.833562586,0.501375516,0,0,0,,0,44,44,95,1,4,word,COMEDY,print,comedy_p.png,,,,,,
,,,,31855,001,2025-10-16_10h29.00.376,HW_LDT_1,2024.2.4,MacIntel,52.63157895,,,,,,,,,,,,,,,,,,,,,,395.151,395.35,395.35,395.85,,,,,,,,,,,,,,2.102,1,,,,,,,,,,,,,,m,,,,,,,,,,,,,,,,,46,0,395.85,397.955,m,1,2.102,,[],[],[],[],[],[],[],397.955,399.95,399.95,399.95,[],[],[],[],[],[],[],,399.95,399.951,-0.833562586,0.501375516,0,0,0,,0,45,45,100,1,4,word,DECADE,cursive,decade_c.png,,,,,,
,,,,31855,001,2025-10-16_10h29.00.376,HW_LDT_1,2024.2.4,MacIntel,52.63157895,,,,,,,,,,,,,,,,,,,,,,399.952,400.15,400.15,400.65,,,,,,,,,,,,,,1.385,1,,,,,,,,,,,,,,z,,,,,,,,,,,,,,,,,47,0,400.65,402.038,z,1,1.385,,[],[],[],[],[],[],[],402.038,404.034,404.034,404.034,[],[],[],[],[],[],[],,404.034,404.034,-0.833562586,0.501375516,0,0,0,,0,46,46,4,1,4,RL,betemit,cursive,betemit_c.png,,,,,,
,,,,31855,001,2025-10-16_10h29.00.376,HW_LDT_1,2024.2.4,MacIntel,52.63157895,,,,,,,,,,,,,,,,,,,,,,404.035,404.233,404.234,404.733,,,,,,,,,,,,,,0.686,1,,,,,,,,,,,,,,m,,,,,,,,,,,,,,,,,48,0,404.734,405.422,m,1,0.686,,[],[],[],[],[],[],[],405.422,407.417,407.417,407.417,[],[],[],[],[],[],[],,407.417,407.417,-0.833562586,0.501375516,0,0,0,,0,47,47,150,1,4,word,SENTIMENT,print,sentiment_p.png,,,,,,
,,,,31855,001,2025-10-16_10h29.00.376,HW_LDT_1,2024.2.4,MacIntel,52.63157895,,,,,,,,,,,,,,,,,,,,,,407.418,407.617,407.617,408.117,,,,,,,,,,,,,,0.636,1,,,,,,,,,,,,,,m,,,,,,,,,,,,,,,,,49,0,408.117,408.757,m,1,0.636,,[],[],[],[],[],[],[],408.757,410.75,410.75,410.751,[],[],[],[],[],[],[],,410.751,410.751,-0.833562586,0.501375516,0,0,0,,0,48,48,148,1,4,word,SALINE,print,saline_p.png,,,,,,
,,,,31855,001,2025-10-16_10h29.00.376,HW_LDT_1,2024.2.4,MacIntel,52.63157895,,,,,,,,,,,,,,,,,,,,,,410.752,410.95,410.951,411.45,,,,,,,,,,,,,,2.12,1,,,,,,,,,,,,,,z,,,,,,,,,,,,,,,,,50,0,411.451,413.573,z,1,2.12,,[],[],[],[],[],[],[],413.573,415.567,415.567,415.567,[],[],[],[],[],[],[],,415.567,415.568,-0.833562586,0.501375516,0,0,0,,0,49,49,35,1,4,RL,probice,cursive,probice_c.png,,,,,,
,,,,31855,001,2025-10-16_10h29.00.376,HW_LDT_1,2024.2.4,MacIntel,52.63157895,,,,,,,,,,,,,,,,,,,,,,415.569,415.767,415.767,416.267,,,,,,,,,,,,,,1.852,0,,,,,,,,,,,,,,m,,,,,,,,,,,,,,,,,51,0,416.268,418.123,z,0,1.852,,[],[],[],[],[],[],[],418.123,420.117,420.117,420.117,[],[],[],[],[],[],[],,420.118,420.118,-0.833562586,0.501375516,0,0,0,,0,50,50,144,1,4,word,RESIDENT,cursive,resident_c.png,,,,,,
,,,,31855,001,2025-10-16_10h29.00.376,HW_LDT_1,2024.2.4,MacIntel,52.63157895,,,,,,,,,,,,,,,,,,,,,,420.119,420.317,420.317,420.817,,,,,,,,,,,,,,1.137,1,,,,,,,,,,,,,,z,,,,,,,,,,,,,,,,,52,0,420.818,421.957,z,1,1.137,,[],[],[],[],[],[],[],421.957,423.951,423.951,423.951,[],[],[],[],[],[],[],,423.951,423.951,-0.833562586,0.501375516,0,0,0,,0,51,51,57,1,4,TL,etidor,print,etidor_p.png,,,,,,
,,,,31855,001,2025-10-16_10h29.00.376,HW_LDT_1,2024.2.4,MacIntel,52.63157895,,,,,,,,,,,,,,,,,,,,,,423.953,424.151,424.151,424.65,,,,,,,,,,,,,,1.736,1,,,,,,,,,,,,,,m,,,,,,,,,,,,,,,,,53,0,424.651,426.389,m,1,1.736,,[],[],[],[],[],[],[],426.389,428.384,428.384,428.385,[],[],[],[],[],[],[],,428.385,428.385,-0.833562586,0.501375516,0,0,0,,0,52,52,156,1,4,word,TRIBUTE,print,tribute_p.png,,,,,,
,,,,31855,001,2025-10-16_10h29.00.376,HW_LDT_1,2024.2.4,MacIntel,52.63157895,,,,,,,,,,,,,,,,,,,,,,428.386,428.584,428.584,429.084,,,,,,,,,,,,,,4.119,1,,,,,,,,,,,,,,z,,,,,,,,,,,,,,,,,54,1,429.085,433.206,z,1,4.119,,[],[],[],[],[],[],[],433.206,435.201,435.201,436.307,[],[],[],[],[],[],[],z,436.307,436.307,-0.833562586,0.501375516,0,0,0,,0,53,53,77,1,4,TL,spemicen,cursive,spemicen_c.png,1.104,,,,,
,,,,31855,001,2025-10-16_10h29.00.376,HW_LDT_1,2024.2.4,MacIntel,52.63157895,,,,,,,,,,,,,,,,,,,,,,436.308,436.501,436.501,437.001,,,,,,,,,,,,,,1.171,1,,,,,,,,,,,,,,z,,,,,,,,,,,,,,,,,55,0,437.001,438.174,z,1,1.171,,[],[],[],[],[],[],[],438.174,440.168,440.168,440.168,[],[],[],[],[],[],[],,440.168,440.168,-0.833562586,0.501375516,0,0,0,,0,54,54,28,1,4,RL,mifikary,print,mifikary_p.png,,,,,,
,,,,31855,001,2025-10-16_10h29.00.376,HW_LDT_1,2024.2.4,MacIntel,52.63157895,,,,,,,,,,,,,,,,,,,,,,440.169,440.368,440.368,440.868,,,,,,,,,,,,,,2.855,0,,,,,,,,,,,,,,m,,,,,,,,,,,,,,,,,56,0,440.868,443.725,z,0,2.855,,[],[],[],[],[],[],[],443.725,445.718,445.718,445.718,[],[],[],[],[],[],[],,445.718,445.718,-0.833562586,0.501375516,0,0,0,,0,55,55,113,1,4,word,LITERAL,cursive,literal_c.png,,,,,,
,,,,31855,001,2025-10-16_10h29.00.376,HW_LDT_1,2024.2.4,MacIntel,52.63157895,,,,,,,,,,,,,,,,,,,,,,445.719,445.918,445.918,446.418,,,,,,,,,,,,,,0.77,0,,,,,,,,,,,,,,z,,,,,,,,,,,,,,,,,57,0,446.418,447.19,m,0,0.77,,[],[],[],[],[],[],[],447.19,449.184,449.185,449.185,[],[],[],[],[],[],[],,449.185,449.185,-0.833562586,0.501375516,0,0,0,,0,56,56,78,1,4,TL,stragety,print,stragety_p.png,,,,,,
,,,,31855,001,2025-10-16_10h29.00.376,HW_LDT_1,2024.2.4,MacIntel,52.63157895,,,,,,,,,,,,,,,,,,,,,,449.185,449.384,449.385,449.884,,,,,,,,,,,,,,1.487,0,,,,,,,,,,,,,,z,,,,,,,,,,,,,,,,,58,0,449.885,451.374,m,0,1.487,,[],[],[],[],[],[],[],451.374,453.368,453.368,453.368,[],[],[],[],[],[],[],,453.368,453.368,-0.833562586,0.501375516,0,0,0,,0,57,57,69,1,4,TL,quafily,print,quafily_p.png,,,,,,
,,,,31855,001,2025-10-16_10h29.00.376,HW_LDT_1,2024.2.4,MacIntel,52.63157895,,,,,,,,,,,,,,,,,,,,,,453.369,453.568,453.568,454.068,,,,,,,,,,,,,,2.536,0,,,,,,,,,,,,,,m,,,,,,,,,,,,,,,,,59,0,454.068,456.607,z,0,2.536,,[],[],[],[],[],[],[],456.607,458.601,458.601,458.602,[],[],[],[],[],[],[],,458.602,458.602,-0.833562586,0.501375516,0,0,0,,0,58,58,91,1,4,word,CARDINAL,cursive,cardinal_c.png,,,,,,
,,,,31855,001,2025-10-16_10h29.00.376,HW_LDT_1,2024.2.4,MacIntel,52.63157895,,,,,,,,,,,,,,,,,,,,,,458.603,458.801,458.805,459.301,,,,,,,,,,,,,,1.503,1,,,,,,,,,,,,,,z,,,,,,,,,,,,,,,,,60,0,459.302,460.807,z,1,1.503,,[],[],[],[],[],[],[],460.807,462.801,462.801,462.802,[],[],[],[],[],[],[],,462.802,462.802,-0.833562586,0.501375516,0,0,0,,0,59,59,36,1,4,RL,rabigly,cursive,rabigly_c.png,,,,,,
,,,,31855,001,2025-10-16_10h29.00.376,HW_LDT_1,2024.2.4,MacIntel,52.63157895,,,,,,,,,,,,,,,,,,,,,,462.803,463.001,463.001,463.501,,,,,,,,,,,,,,1.154,1,,,,,,,,,,,,,,z,,,,,,,,,,,,,,,,,61,1,463.502,464.658,z,1,1.154,,[],[],[],[],[],[],[],464.658,466.651,466.651,467.64,[],[],[],[],[],[],[],m,467.64,467.64,-0.833562586,0.501375516,0,0,0,,0,60,60,67,1,4,TL,polupar,print,polupar_p.png,0.986,,,,,
,,,,31855,001,2025-10-16_10h29.00.376,HW_LDT_1,2024.2.4,MacIntel,52.63157895,,,,,,,,,,,,,,,,,,,,,,467.641,467.835,467.835,468.335,,,,,,,,,,,,,,1.119,1,,,,,,,,,,,,,,m,,,,,,,,,,,,,,,,,62,0,468.335,469.457,m,1,1.119,,[],[],[],[],[],[],[],469.457,471.451,471.452,471.452,[],[],[],[],[],[],[],,471.452,471.452,-0.833562586,0.501375516,0,0,0,,0,61,61,122,1,4,word,MOBILE,print,mobile_p.png,,,,,,
,,,,31855,001,2025-10-16_10h29.00.376,HW_LDT_1,2024.2.4,MacIntel,52.63157895,,,,,,,,,,,,,,,,,,,,,,471.453,471.651,471.652,472.152,,,,,,,,,,,,,,2.036,1,,,,,,,,,,,,,,z,,,,,,,,,,,,,,,,,63,0,472.152,474.19,z,1,2.036,,[],[],[],[],[],[],[],474.19,476.185,476.185,476.185,[],[],[],[],[],[],[],,476.185,476.185,-0.833562586,0.501375516,0,0,0,,0,62,62,79,1,4,TL,tritube,print,tritube_p.png,,,,,,
,,,,31855,001,2025-10-16_10h29.00.376,HW_LDT_1,2024.2.4,MacIntel,52.63157895,,,,,,,,,,,,,,,,,,,,,,476.187,476.385,476.385,476.885,,,,,,,,,,,,,,2.369,0,,,,,,,,,,,,,,m,,,,,,,,,,,,,,,,,64,0,476.886,479.257,z,0,2.369,,[],[],[],[],[],[],[],479.257,481.252,481.252,481.252,[],[],[],[],[],[],[],,481.252,481.252,-0.833562586,0.501375516,0,0,0,,0,63,63,102,1,4,word,DENSITY,cursive,density_c.png,,,,,,
,,,,31855,001,2025-10-16_10h29.00.376,HW_LDT_1,2024.2.4,MacIntel,52.63157895,,,,,,,,,,,,,,,,,,,,,,481.253,481.452,481.452,481.952,,,,,,,,,,,,,,0.97,1,,,,,,,,,,,,,,z,,,,,,,,,,,,,,,,,65,0,481.952,482.926,z,1,0.97,,[],[],[],[],[],[],[],482.926,484.918,484.919,484.919,[],[],[],[],[],[],[],,484.919,484.919,-0.833562586,0.501375516,0,0,0,,0,64,64,50,1,4,RL,vecelan,cursive,vecelan_c.png,,,,,,
,,,,31855,001,2025-10-16_10h29.00.376,HW_LDT_1,2024.2.4,MacIntel,52.63157895,,,,,,,,,,,,,,,,,,,,,,484.92,485.118,485.118,485.619,,,,,,,,,,,,,,0.87,1,,,,,,,,,,,,,,z,,,,,,,,,,,,,,,,,66,0,485.619,486.491,z,1,0.87,,[],[],[],[],[],[],[],486.491,488.485,488.485,488.486,[],[],[],[],[],[],[],,488.486,488.486,-0.833562586,0.501375516,0,0,0,,0,65,65,54,1,4,TL,codemy,print,codemy_p.png,,,,,,
,,,,31855,001,2025-10-16_10h29.00.376,HW_LDT_1,2024.2.4,MacIntel,52.63157895,,,,,,,,,,,,,,,,,,,,,,488.487,488.685,488.685,489.185,,,,,,,,,,,,,,1.236,1,,,,,,,,,,,,,,z,,,,,,,,,,,,,,,,,67,0,489.185,490.425,z,1,1.236,,[],[],[],[],[],[],[],490.425,492.419,492.419,492.419,[],[],[],[],[],[],[],,492.419,492.419,-0.833562586,0.501375516,0,0,0,,0,66,66,70,1,4,TL,quatily,print,quatily_p.png,,,,,,
,,,,31855,001,2025-10-16_10h29.00.376,HW_LDT_1,2024.2.4,MacIntel,52.63157895,,,,,,,,,,,,,,,,,,,,,,492.42,492.619,492.619,493.119,,,,,,,,,,,,,,1.453,1,,,,,,,,,,,,,,m,,,,,,,,,,,,,,,,,68,0,493.119,494.575,m,1,1.453,,[],[],[],[],[],[],[],494.575,496.569,496.569,496.569,[],[],[],[],[],[],[],,496.569,496.569,-0.833562586,0.501375516,0,0,0,,0,67,67,155,1,4,word,STRATEGY,print,strategy_p.png,,,,,,
,,,,31855,001,2025-10-16_10h29.00.376,HW_LDT_1,2024.2.4,MacIntel,52.63157895,,,,,,,,,,,,,,,,,,,,,,496.57,496.769,496.769,497.269,,,,,,,,,,,,,,1.753,1,,,,,,,,,,,,,,m,,,,,,,,,,,,,,,,,69,0,497.269,499.023,m,1,1.753,,[],[],[],[],[],[],[],499.023,501.019,501.019,501.019,[],[],[],[],[],[],[],,501.019,501.019,-0.833562586,0.501375516,0,0,0,,0,68,68,82,1,4,word,AMATEUR,cursive,amateur_c.png,,,,,,
,,,,31855,001,2025-10-16_10h29.00.376,HW_LDT_1,2024.2.4,MacIntel,52.63157895,,,,,,,,,,,,,,,,,,,,,,501.02,501.219,501.219,501.719,,,,,,,,,,,,,,2.069,1,,,,,,,,,,,,,,m,,,,,,,,,,,,,,,,,70,0,501.719,503.792,m,1,2.069,,[],[],[],[],[],[],[],503.792,505.785,505.786,505.786,[],[],[],[],[],[],[],,505.786,505.786,-0.833562586,0.501375516,0,0,0,,0,69,69,133,1,4,word,PROVIDE,cursive,provide_c.png,,,,,,
,,,,31855,001,2025-10-16_10h29.00.376,HW_LDT_1,2024.2.4,MacIntel,52.63157895,,,,,,,,,,,,,,,,,,,,,,505.787,505.985,505.986,506.486,,,,,,,,,,,,,,0.951,1,,,,,,,,,,,,,,z,,,,,,,,,,,,,,,,,71,0,506.486,507.441,z,1,0.951,,[],[],[],[],[],[],[],507.441,509.436,509.436,509.436,[],[],[],[],[],[],[],,509.436,509.436,-0.833562586,0.501375516,0,0,0,,0,70,70,0,1,4,RL,abanemy,print,abanemy_p.png,,,,,,
,,,,31855,001,2025-10-16_10h29.00.376,HW_LDT_1,2024.2.4,MacIntel,52.63157895,,,,,,,,,,,,,,,,,,,,,,509.437,509.636,509.636,510.136,,,,,,,,,,,,,,2.205,1,,,,,,,,,,,,,,m,,,,,,,,,,,,,,,,,72,0,510.136,512.343,m,1,2.205,,[],[],[],[],[],[],[],512.343,514.336,514.336,514.336,[],[],[],[],[],[],[],,514.336,514.336,-0.833562586,0.501375516,0,0,0,,0,71,71,124,1,4,word,NUMERICAL,cursive,numerical_c.png,,,,,,
,,,,31855,001,2025-10-16_10h29.00.376,HW_LDT_1,2024.2.4,MacIntel,52.63157895,,,,,,,,,,,,,,,,,,,,,,514.337,514.536,514.539,515.036,,,,,,,,,,,,,,1.768,1,,,,,,,,,,,,,,z,,,,,,,,,,,,,,,,,73,1,515.036,516.807,z,1,1.768,,[],[],[],[],[],[],[],516.807,518.802,518.802,521.375,[],[],[],[],[],[],[],z,521.375,521.375,-0.833562586,0.501375516,0,0,0,,0,72,72,59,1,4,TL,fornute,cursive,fornute_c.png,2.57,,,,,
,,,,31855,001,2025-10-16_10h29.00.376,HW_LDT_1,2024.2.4,MacIntel,52.63157895,,,,,,,,,,,,,,,,,,,,,,521.376,521.569,521.569,522.069,,,,,,,,,,,,,,2.237,1,,,,,,,,,,,,,,z,,,,,,,,,,,,,,,,,74,0,522.07,524.309,z,1,2.237,,[],[],[],[],[],[],[],524.309,526.303,526.303,526.303,[],[],[],[],[],[],[],,526.303,526.303,-0.833562586,0.501375516,0,0,0,,0,73,73,26,1,4,RL,mesibine,cursive,mesibine_c.png,,,,,,
,,,,31855,001,2025-10-16_10h29.00.376,HW_LDT_1,2024.2.4,MacIntel,52.63157895,,,,,,,,,,,,,,,,,,,,,,526.304,526.503,526.503,527.003,,,,,,,,,,,,,,1.354,0,,,,,,,,,,,,,,z,,,,,,,,,,,,,,,,,75,1,527.003,528.359,m,0,1.354,,[],[],[],[],[],[],[],528.359,530.353,530.353,531.508,[],[],[],[],[],[],[],z,531.508,531.508,-0.833562586,0.501375516,0,0,0,,0,74,74,13,1,4,RL,crisival,cursive,crisival_c.png,1.153,,,,,
,,,,31855,001,2025-10-16_10h29.00.376,HW_LDT_1,2024.2.4,MacIntel,52.63157895,,,,,,,,,,,,,,,,,,,,,,531.509,531.703,531.703,532.203,,,,,,,,,,,,,,1.268,1,,,,,,,,,,,,,,m,,,,,,,,,,,,,,,,,76,0,532.203,533.475,m,1,1.268,,[],[],[],[],[],[],[],533.475,535.469,535.469,535.47,[],[],[],[],[],[],[],,535.47,535.47,-0.833562586,0.501375516,0,0,0,,0,75,75,110,1,4,word,HERITAGE,print,heritage_p.png,,,,,,
,,,,31855,001,2025-10-16_10h29.00.376,HW_LDT_1,2024.2.4,MacIntel,52.63157895,,,,,,,,,,,,,,,,,,,,,,535.471,535.669,535.669,536.169,,,,,,,,,,,,,,3.021,1,,,,,,,,,,,,,,z,,,,,,,,,,,,,,,,,77,0,536.17,539.193,z,1,3.021,,[],[],[],[],[],[],[],539.193,541.186,541.186,541.186,[],[],[],[],[],[],[],,541.187,541.187,-0.833562586,0.501375516,0,0,0,,0,76,76,34,1,4,RL,posity,cursive,posity_c.png,,,,,,
,,,,31855,001,2025-10-16_10h29.00.376,HW_LDT_1,2024.2.4,MacIntel,52.63157895,,,,,,,,,,,,,,,,,,,,,,541.187,541.386,541.386,541.886,,,,,,,,,,,,,,1.219,1,,,,,,,,,,,,,,m,,,,,,,,,,,,,,,,,78,0,541.887,543.109,m,1,1.219,,[],[],[],[],[],[],[],543.109,545.103,545.103,545.103,[],[],[],[],[],[],[],,545.103,545.103,-0.833562586,0.501375516,0,0,0,,0,77,77,125,1,4,word,OPERATOR,print,operator_p.png,,,,,,
,,,,31855,001,2025-10-16_10h29.00.376,HW_LDT_1,2024.2.4,MacIntel,52.63157895,,,,,,,,,,,,,,,,,,,,,,545.104,545.303,545.303,545.803,,,,,,,,,,,,,,0.886,1,,,,,,,,,,,,,,z,,,,,,,,,,,,,,,,,79,0,545.804,546.692,z,1,0.886,,[],[],[],[],[],[],[],546.692,548.686,548.686,548.687,[],[],[],[],[],[],[],,548.687,548.687,-0.833562586,0.501375516,0,0,0,,0,78,78,25,1,4,RL,macise,print,macise_p.png,,,,,,
,,,,31855,001,2025-10-16_10h29.00.376,HW_LDT_1,2024.2.4,MacIntel,52.63157895,,,,,,,,,,,,,,,,,,,,,,548.688,548.886,548.887,549.386,,,,,,,,,,,,,,1.086,1,,,,,,,,,,,,,,z,,,,,,,,,,,,,,,,,80,0,549.387,550.475,z,1,1.086,,[],[],[],[],[],[],[],550.475,552.47,552.47,552.47,[],[],[],[],[],[],[],,552.47,584.425,-0.833562586,0.501375516,0,0,0,space,0,79,79,38,1,4,RL,refakive,print,refakive_p.png,,,31.935,,,
,,,,31855,001,2025-10-16_10h29.00.376,HW_LDT_1,2024.2.4,MacIntel,52.63157895,,,,,,,,,,,,,,,,,,,,,,584.426,584.621,584.621,585.12,,,,,,,,,,,,,,1.786,1,,,,,,,,,,,,,,z,,,,,,,,,,,,,,,,,81,0,585.121,586.909,z,1,1.786,,[],[],[],[],[],[],[],586.909,588.904,588.904,588.904,[],[],[],[],[],[],[],,588.904,588.905,-0.83218707,-0.124484182,0,0,0,,0,80,80,24,1,4,RL,marmipal,cursive,marmipal_c.png,,,,,,
,,,,31855,001,2025-10-16_10h29.00.376,HW_LDT_1,2024.2.4,MacIntel,52.63157895,,,,,,,,,,,,,,,,,,,,,,588.906,589.104,589.104,589.604,,,,,,,,,,,,,,0.786,1,,,,,,,,,,,,,,z,,,,,,,,,,,,,,,,,82,1,589.604,590.393,z,1,0.786,,[],[],[],[],[],[],[],590.393,592.387,592.387,593.812,[],[],[],[],[],[],[],z,593.812,593.812,-0.83218707,-0.116231087,0,0,0,,0,81,81,40,1,4,RL,reconal,print,reconal_p.png,1.421,,,,,
,,,,31855,001,2025-10-16_10h29.00.376,HW_LDT_1,2024.2.4,MacIntel,52.63157895,,,,,,,,,,,,,,,,,,,,,,593.813,594.004,594.004,594.505,,,,,,,,,,,,,,1.503,0,,,,,,,,,,,,,,m,,,,,,,,,,,,,,,,,83,0,594.506,596.011,z,0,1.503,,[],[],[],[],[],[],[],596.011,598.004,598.004,598.005,[],[],[],[],[],[],[],,598.005,598.005,-0.7565337,0.014442916,0,0,0,,0,82,82,87,1,4,word,CAFETERIA,cursive,cafeteria_c.png,,,,,,
,,,,31855,001,2025-10-16_10h29.00.376,HW_LDT_1,2024.2.4,MacIntel,52.63157895,,,,,,,,,,,,,,,,,,,,,,598.005,598.204,598.204,598.704,,,,,,,,,,,,,,0.969,1,,,,,,,,,,,,,,z,,,,,,,,,,,,,,,,,84,0,598.704,599.677,z,1,0.969,,[],[],[],[],[],[],[],599.677,601.671,601.671,601.671,[],[],[],[],[],[],[],,601.671,601.671,-0.757909216,0.017193948,0,0,0,,0,83,83,7,1,4,RL,casena,print,casena_p.png,,,,,,
,,,,31855,001,2025-10-16_10h29.00.376,HW_LDT_1,2024.2.4,MacIntel,52.63157895,,,,,,,,,,,,,,,,,,,,,,601.672,601.871,601.871,602.371,,,,,,,,,,,,,,1.038,1,,,,,,,,,,,,,,m,,,,,,,,,,,,,,,,,85,0,602.371,603.411,m,1,1.038,,[],[],[],[],[],[],[],603.411,605.404,605.404,605.405,[],[],[],[],[],[],[],,605.405,605.405,-0.759284732,0.021320495,0,0,0,,0,84,84,149,1,4,word,SENATOR,print,senator_p.png,,,,,,
,,,,31855,001,2025-10-16_10h29.00.376,HW_LDT_1,2024.2.4,MacIntel,52.63157895,,,,,,,,,,,,,,,,,,,,,,605.406,605.604,605.604,606.104,,,,,,,,,,,,,,1.12,1,,,,,,,,,,,,,,m,,,,,,,,,,,,,,,,,86,0,606.105,607.227,m,1,1.12,,[],[],[],[],[],[],[],607.228,609.221,609.221,609.221,[],[],[],[],[],[],[],,609.222,609.222,-0.759284732,0.022696011,0,0,0,,0,85,85,93,1,4,word,CEREMONY,print,ceremony_p.png,,,,,,
,,,,31855,001,2025-10-16_10h29.00.376,HW_LDT_1,2024.2.4,MacIntel,52.63157895,,,,,,,,,,,,,,,,,,,,,,609.222,609.421,609.421,609.921,,,,,,,,,,,,,,0.97,0,,,,,,,,,,,,,,m,,,,,,,,,,,,,,,,,87,0,609.921,610.894,z,0,0.97,,[],[],[],[],[],[],[],610.895,612.888,612.888,612.888,[],[],[],[],[],[],[],,612.888,612.888,-0.759284732,0.022696011,0,0,0,,0,86,86,142,1,4,word,REMOTE,cursive,remote_c.png,,,,,,
,,,,31855,001,2025-10-16_10h29.00.376,HW_LDT_1,2024.2.4,MacIntel,52.63157895,,,,,,,,,,,,,,,,,,,,,,612.889,613.088,613.088,613.588,,,,,,,,,,,,,,1.119,1,,,,,,,,,,,,,,z,,,,,,,,,,,,,,,,,88,0,613.588,614.71,z,1,1.119,,[],[],[],[],[],[],[],614.711,616.704,616.704,616.705,[],[],[],[],[],[],[],,616.705,616.705,-0.759284732,0.022696011,0,0,0,,0,87,87,58,1,4,TL,edivent,print,edivent_p.png,,,,,,
,,,,31855,001,2025-10-16_10h29.00.376,HW_LDT_1,2024.2.4,MacIntel,52.63157895,,,,,,,,,,,,,,,,,,,,,,616.706,616.904,616.904,617.405,,,,,,,,,,,,,,2.52,1,,,,,,,,,,,,,,m,,,,,,,,,,,,,,,,,89,0,617.405,619.929,m,1,2.52,,[],[],[],[],[],[],[],619.929,621.921,621.921,621.921,[],[],[],[],[],[],[],,621.921,621.922,-0.755158184,0.021320495,0,0,0,,0,88,88,145,1,4,word,RESUME,print,resume_p.png,,,,,,
,,,,31855,001,2025-10-16_10h29.00.376,HW_LDT_1,2024.2.4,MacIntel,52.63157895,,,,,,,,,,,,,,,,,,,,,,621.922,622.121,622.121,622.621,,,,,,,,,,,,,,1.22,1,,,,,,,,,,,,,,m,,,,,,,,,,,,,,,,,90,0,622.622,623.845,m,1,1.22,,[],[],[],[],[],[],[],623.845,625.838,625.838,625.838,[],[],[],[],[],[],[],,625.838,625.838,-0.753782669,0.022696011,0,0,0,,0,89,89,134,1,4,word,QUALIFY,print,qualify_p.png,,,,,,
,,,,31855,001,2025-10-16_10h29.00.376,HW_LDT_1,2024.2.4,MacIntel,52.63157895,,,,,,,,,,,,,,,,,,,,,,625.839,626.038,626.038,626.538,,,,,,,,,,,,,,1.07,0,,,,,,,,,,,,,,m,,,,,,,,,,,,,,,,,91,0,626.538,627.611,z,0,1.07,,[],[],[],[],[],[],[],627.611,629.605,629.605,629.605,[],[],[],[],[],[],[],,629.605,629.605,-0.753782669,0.022696011,0,0,0,,0,90,90,108,1,4,word,FORTUNE,cursive,fortune_c.png,,,,,,
,,,,31855,001,2025-10-16_10h29.00.376,HW_LDT_1,2024.2.4,MacIntel,52.63157895,,,,,,,,,,,,,,,,,,,,,,629.606,629.805,629.805,630.305,,,,,,,,,,,,,,1.869,1,,,,,,,,,,,,,,z,,,,,,,,,,,,,,,,,92,0,630.305,632.178,z,1,1.869,,[],[],[],[],[],[],[],632.178,634.171,634.171,634.172,[],[],[],[],[],[],[],,634.172,634.172,-0.753782669,0.022696011,0,0,0,,0,91,91,22,1,4,RL,linedal,cursive,linedal_c.png,,,,,,
,,,,31855,001,2025-10-16_10h29.00.376,HW_LDT_1,2024.2.4,MacIntel,52.63157895,,,,,,,,,,,,,,,,,,,,,,634.173,634.371,634.371,634.872,,,,,,,,,,,,,,1.619,1,,,,,,,,,,,,,,z,,,,,,,,,,,,,,,,,93,0,634.872,636.495,z,1,1.619,,[],[],[],[],[],[],[],636.495,638.488,638.488,638.489,[],[],[],[],[],[],[],,638.489,638.489,-0.755158184,0.022696011,0,0,0,,0,92,92,30,1,4,RL,nunewical,cursive,nunewical_c.png,,,,,,
,,,,31855,001,2025-10-16_10h29.00.376,HW_LDT_1,2024.2.4,MacIntel,52.63157895,,,,,,,,,,,,,,,,,,,,,,638.49,638.688,638.688,639.188,,,,,,,,,,,,,,0.986,1,,,,,,,,,,,,,,z,,,,,,,,,,,,,,,,,94,0,639.188,640.178,z,1,0.986,,[],[],[],[],[],[],[],640.178,642.172,642.172,642.172,[],[],[],[],[],[],[],,642.172,642.172,-0.755158184,0.022696011,0,0,0,,0,93,93,76,1,4,TL,setanor,print,setanor_p.png,,,,,,
,,,,31855,001,2025-10-16_10h29.00.376,HW_LDT_1,2024.2.4,MacIntel,52.63157895,,,,,,,,,,,,,,,,,,,,,,642.173,642.372,642.372,642.872,,,,,,,,,,,,,,4.269,1,,,,,,,,,,,,,,m,,,,,,,,,,,,,,,,,95,0,642.872,647.145,m,1,4.269,,[],[],[],[],[],[],[],647.145,649.139,649.139,649.139,[],[],[],[],[],[],[],,649.139,649.139,-0.729023384,0.002063274,0,0,0,,0,94,94,126,1,4,word,OPTIMAL,print,optimal_p.png,,,,,,
,,,,31855,001,2025-10-16_10h29.00.376,HW_LDT_1,2024.2.4,MacIntel,52.63157895,,,,,,,,,,,,,,,,,,,,,,649.14,649.339,649.339,649.838,,,,,,,,,,,,,,8.303,1,,,,,,,,,,,,,,m,,,,,,,,,,,,,,,,,96,0,649.839,658.145,m,1,8.303,,[],[],[],[],[],[],[],658.145,660.139,660.139,660.139,[],[],[],[],[],[],[],,660.139,660.139,-0.7303989,0.00343879,0,0,0,,0,95,95,123,1,4,word,MODERATE,print,moderate_p.png,,,,,,
,,,,31855,001,2025-10-16_10h29.00.376,HW_LDT_1,2024.2.4,MacIntel,52.63157895,,,,,,,,,,,,,,,,,,,,,,660.14,660.34,660.34,660.84,,,,,,,,,,,,,,1.169,1,,,,,,,,,,,,,,m,,,,,,,,,,,,,,,,,97,0,660.84,662.012,m,1,1.169,,[],[],[],[],[],[],[],662.012,664.007,664.007,664.007,[],[],[],[],[],[],[],,664.007,664.007,-0.752407153,0.02957359,0,0,0,,0,96,96,136,1,4,word,RADICAL,print,radical_p.png,,,,,,
,,,,31855,001,2025-10-16_10h29.00.376,HW_LDT_1,2024.2.4,MacIntel,52.63157895,,,,,,,,,,,,,,,,,,,,,,664.008,664.205,664.206,664.705,,,,,,,,,,,,,,2.154,0,,,,,,,,,,,,,,m,,,,,,,,,,,,,,,,,98,0,664.706,666.863,z,0,2.154,,[],[],[],[],[],[],[],666.863,668.855,668.856,668.856,[],[],[],[],[],[],[],,668.856,668.856,-0.755158184,0.02957359,0,0,0,,0,97,97,99,1,4,word,DEBATE,cursive,debate_c.png,,,,,,
,,,,31855,001,2025-10-16_10h29.00.376,HW_LDT_1,2024.2.4,MacIntel,52.63157895,,,,,,,,,,,,,,,,,,,,,,668.857,669.055,669.055,669.555,,,,,,,,,,,,,,1.303,0,,,,,,,,,,,,,,m,,,,,,,,,,,,,,,,,99,0,669.556,670.861,z,0,1.303,,[],[],[],[],[],[],[],670.861,672.855,672.856,672.856,[],[],[],[],[],[],[],,672.856,672.856,-0.755158184,0.030949106,0,0,0,,0,98,98,118,1,4,word,MEDICINE,cursive,medicine_c.png,,,,,,
,,,,31855,001,2025-10-16_10h29.00.376,HW_LDT_1,2024.2.4,MacIntel,52.63157895,,,,,,,,,,,,,,,,,,,,,,672.857,673.056,673.056,673.556,,,,,,,,,,,,,,2.587,1,,,,,,,,,,,,,,z,,,,,,,,,,,,,,,,,100,0,673.556,676.145,z,1,2.587,,[],[],[],[],[],[],[],676.145,678.139,678.139,678.14,[],[],[],[],[],[],[],,678.14,678.14,-0.833562586,0.501375516,0,0,0,,0,99,99,43,1,4,RL,rovastic,print,rovastic_p.png,,,,,,
,,,,31855,001,2025-10-16_10h29.00.376,HW_LDT_1,2024.2.4,MacIntel,52.63157895,,,,,,,,,,,,,,,,,,,,,,678.141,678.339,678.339,678.839,,,,,,,,,,,,,,5.57,1,,,,,,,,,,,,,,z,,,,,,,,,,,,,,,,,101,0,678.839,684.412,z,1,5.57,,[],[],[],[],[],[],[],684.412,686.406,686.406,686.406,[],[],[],[],[],[],[],,686.406,686.407,-0.764786795,0.037826685,0,0,0,,0,100,100,3,1,4,RL,bewoted,print,bewoted_p.png,,,,,,
,,,,31855,001,2025-10-16_10h29.00.376,HW_LDT_1,2024.2.4,MacIntel,52.63157895,,,,,,,,,,,,,,,,,,,,,,686.408,686.607,686.608,687.106,,,,,,,,,,,,,,0.653,1,,,,,,,,,,,,,,z,,,,,,,,,,,,,,,,,102,0,687.106,687.762,z,1,0.653,,[],[],[],[],[],[],[],687.762,689.756,689.756,689.756,[],[],[],[],[],[],[],,689.756,689.756,-0.704264099,0.14786795,0,0,0,,0,101,101,37,1,4,RL,renutal,cursive,renutal_c.png,,,,,,
,,,,31855,001,2025-10-16_10h29.00.376,HW_LDT_1,2024.2.4,MacIntel,52.63157895,,,,,,,,,,,,,,,,,,,,,,689.757,689.956,689.956,690.456,,,,,,,,,,,,,,0.819,1,,,,,,,,,,,,,,z,,,,,,,,,,,,,,,,,103,1,690.456,691.279,z,1,0.819,,[],[],[],[],[],[],[],691.279,693.273,693.273,694.328,[],[],[],[],[],[],[],z,694.328,694.328,-0.833562586,0.501375516,0,0,0,,0,102,102,31,1,4,RL,orimipal,print,orimipal_p.png,1.053,,,,,
,,,,31855,001,2025-10-16_10h29.00.376,HW_LDT_1,2024.2.4,MacIntel,52.63157895,,,,,,,,,,,,,,,,,,,,,,694.329,694.523,694.523,695.023,,,,,,,,,,,,,,1.97,1,,,,,,,,,,,,,,m,,,,,,,,,,,,,,,,,104,1,695.023,696.995,m,1,1.97,,[],[],[],[],[],[],[],696.995,698.989,698.989,700.044,[],[],[],[],[],[],[],m,700.044,700.044,-0.833562586,0.501375516,0,0,0,,0,103,103,86,1,4,word,BESIDE,print,beside_p.png,1.053,,,,,
,,,,31855,001,2025-10-16_10h29.00.376,HW_LDT_1,2024.2.4,MacIntel,52.63157895,,,,,,,,,,,,,,,,,,,,,,700.045,700.239,700.239,700.739,,,,,,,,,,,,,,1.386,1,,,,,,,,,,,,,,m,,,,,,,,,,,,,,,,,105,0,700.74,702.128,m,1,1.386,,[],[],[],[],[],[],[],702.128,704.123,704.123,704.123,[],[],[],[],[],[],[],,704.123,704.123,-0.833562586,0.501375516,0,0,0,,0,104,104,120,1,4,word,MILITARY,print,military_p.png,,,,,,
,,,,31855,001,2025-10-16_10h29.00.376,HW_LDT_1,2024.2.4,MacIntel,52.63157895,,,,,,,,,,,,,,,,,,,,,,704.124,704.323,704.323,704.823,,,,,,,,,,,,,,1.618,1,,,,,,,,,,,,,,z,,,,,,,,,,,,,,,,,106,0,704.823,706.444,z,1,1.618,,[],[],[],[],[],[],[],706.444,708.439,708.44,708.44,[],[],[],[],[],[],[],,708.44,708.44,-0.833562586,0.501375516,0,0,0,,0,105,105,47,1,4,RL,stopave,print,stopave_p.png,,,,,,
,,,,31855,001,2025-10-16_10h29.00.376,HW_LDT_1,2024.2.4,MacIntel,52.63157895,,,,,,,,,,,,,,,,,,,,,,708.441,708.639,708.64,709.14,,,,,,,,,,,,,,0.954,1,,,,,,,,,,,,,,z,,,,,,,,,,,,,,,,,107,0,709.14,710.096,z,1,0.954,,[],[],[],[],[],[],[],710.096,712.09,712.09,712.09,[],[],[],[],[],[],[],,712.09,712.09,-0.833562586,0.501375516,0,0,0,,0,106,106,66,1,4,TL,opmital,print,opmital_p.png,,,,,,
,,,,31855,001,2025-10-16_10h29.00.376,HW_LDT_1,2024.2.4,MacIntel,52.63157895,,,,,,,,,,,,,,,,,,,,,,712.091,712.29,712.29,712.79,,,,,,,,,,,,,,2.354,1,,,,,,,,,,,,,,z,,,,,,,,,,,,,,,,,108,1,712.79,715.146,z,1,2.354,,[],[],[],[],[],[],[],715.146,717.14,717.14,718.078,[],[],[],[],[],[],[],z,718.078,718.078,-0.833562586,0.501375516,0,0,0,,0,107,107,41,1,4,RL,rebicent,cursive,rebicent_c.png,0.936,,,,,
,,,,31855,001,2025-10-16_10h29.00.376,HW_LDT_1,2024.2.4,MacIntel,52.63157895,,,,,,,,,,,,,,,,,,,,,,718.079,718.273,718.273,718.773,,,,,,,,,,,,,,1.037,1,,,,,,,,,,,,,,m,,,,,,,,,,,,,,,,,109,0,718.773,719.813,m,1,1.037,,[],[],[],[],[],[],[],719.813,721.806,721.807,721.807,[],[],[],[],[],[],[],,721.807,721.807,-0.833562586,0.501375516,0,0,0,,0,108,108,103,1,4,word,DISPUTE,print,dispute_p.png,,,,,,
,,,,31855,001,2025-10-16_10h29.00.376,HW_LDT_1,2024.2.4,MacIntel,52.63157895,,,,,,,,,,,,,,,,,,,,,,721.808,722.006,722.007,722.506,,,,,,,,,,,,,,1.619,1,,,,,,,,,,,,,,z,,,,,,,,,,,,,,,,,110,1,722.507,724.128,z,1,1.619,,[],[],[],[],[],[],[],724.128,726.123,726.123,727.53,[],[],[],[],[],[],[],z,727.53,727.53,-0.833562586,0.501375516,0,0,0,,0,109,109,65,1,4,TL,orepator,print,orepator_p.png,1.403,,,,,
,,,,31855,001,2025-10-16_10h29.00.376,HW_LDT_1,2024.2.4,MacIntel,52.63157895,,,,,,,,,,,,,,,,,,,,,,727.531,727.723,727.723,728.223,,,,,,,,,,,,,,2.086,1,,,,,,,,,,,,,,m,,,,,,,,,,,,,,,,,111,0,728.224,730.312,m,1,2.086,,[],[],[],[],[],[],[],730.312,732.307,732.307,732.307,[],[],[],[],[],[],[],,732.307,732.307,-0.833562586,0.501375516,0,0,0,,0,110,110,109,1,4,word,GRATEFUL,print,grateful_p.png,,,,,,
,,,,31855,001,2025-10-16_10h29.00.376,HW_LDT_1,2024.2.4,MacIntel,52.63157895,,,,,,,,,,,,,,,,,,,,,,732.308,732.507,732.507,733.007,,,,,,,,,,,,,,0.785,1,,,,,,,,,,,,,,m,,,,,,,,,,,,,,,,,112,0,733.007,733.795,m,1,0.785,,[],[],[],[],[],[],[],733.795,735.79,735.79,735.79,[],[],[],[],[],[],[],,735.79,735.791,-0.833562586,0.501375516,0,0,0,,0,111,111,131,1,4,word,POPULAR,print,popular_p.png,,,,,,
,,,,31855,001,2025-10-16_10h29.00.376,HW_LDT_1,2024.2.4,MacIntel,52.63157895,,,,,,,,,,,,,,,,,,,,,,735.792,735.99,735.99,736.49,,,,,,,,,,,,,,1.753,0,,,,,,,,,,,,,,z,,,,,,,,,,,,,,,,,113,0,736.491,738.246,m,0,1.753,,[],[],[],[],[],[],[],738.246,740.24,740.24,740.24,[],[],[],[],[],[],[],,740.24,740.241,-0.833562586,0.501375516,0,0,0,,0,112,112,60,1,4,TL,hetirage,print,hetirage_p.png,,,,,,
,,,,31855,001,2025-10-16_10h29.00.376,HW_LDT_1,2024.2.4,MacIntel,52.63157895,,,,,,,,,,,,,,,,,,,,,,740.241,740.44,740.44,740.94,,,,,,,,,,,,,,1.119,1,,,,,,,,,,,,,,z,,,,,,,,,,,,,,,,,114,0,740.94,742.062,z,1,1.119,,[],[],[],[],[],[],[],742.062,744.057,744.057,744.057,[],[],[],[],[],[],[],,744.057,744.057,-0.833562586,0.501375516,0,0,0,,0,113,113,63,1,4,TL,miskate,print,miskate_p.png,,,,,,
,,,,31855,001,2025-10-16_10h29.00.376,HW_LDT_1,2024.2.4,MacIntel,52.63157895,,,,,,,,,,,,,,,,,,,,,,744.058,744.257,744.257,744.757,,,,,,,,,,,,,,0.818,1,,,,,,,,,,,,,,z,,,,,,,,,,,,,,,,,115,0,744.757,745.579,z,1,0.818,,[],[],[],[],[],[],[],745.579,747.574,747.574,747.574,[],[],[],[],[],[],[],,747.574,747.574,-0.833562586,0.501375516,0,0,0,,0,114,114,1,1,4,RL,afaneur,cursive,afaneur_c.png,,,,,,
,,,,31855,001,2025-10-16_10h29.00.376,HW_LDT_1,2024.2.4,MacIntel,52.63157895,,,,,,,,,,,,,,,,,,,,,,747.575,747.774,747.774,748.274,,,,,,,,,,,,,,1.403,1,,,,,,,,,,,,,,m,,,,,,,,,,,,,,,,,116,0,748.274,749.68,m,1,1.403,,[],[],[],[],[],[],[],749.68,751.674,751.674,751.674,[],[],[],[],[],[],[],,751.674,751.674,-0.833562586,0.501375516,0,0,0,,0,115,115,146,1,4,word,RETIRE,print,retire_p.png,,,,,,
,,,,31855,001,2025-10-16_10h29.00.376,HW_LDT_1,2024.2.4,MacIntel,52.63157895,,,,,,,,,,,,,,,,,,,,,,751.675,751.874,751.874,752.374,,,,,,,,,,,,,,0.836,1,,,,,,,,,,,,,,z,,,,,,,,,,,,,,,,,117,0,752.374,753.213,z,1,0.836,,[],[],[],[],[],[],[],753.213,755.207,755.207,755.208,[],[],[],[],[],[],[],,755.208,755.208,-0.833562586,0.501375516,0,0,0,,0,116,116,61,1,4,TL,lotace,cursive,lotace_c.png,,,,,,
,,,,31855,001,2025-10-16_10h29.00.376,HW_LDT_1,2024.2.4,MacIntel,52.63157895,,,,,,,,,,,,,,,,,,,,,,755.209,755.407,755.407,755.907,,,,,,,,,,,,,,2.97,1,,,,,,,,,,,,,,z,,,,,,,,,,,,,,,,,118,0,755.907,758.88,z,1,2.97,,[],[],[],[],[],[],[],758.88,760.874,760.874,760.874,[],[],[],[],[],[],[],,760.874,760.874,-0.833562586,0.501375516,0,0,0,,0,117,117,33,1,4,RL,pamest,cursive,pamest_c.png,,,,,,
,,,,31855,001,2025-10-16_10h29.00.376,HW_LDT_1,2024.2.4,MacIntel,52.63157895,,,,,,,,,,,,,,,,,,,,,,760.875,761.074,761.074,761.574,,,,,,,,,,,,,,1.672,0,,,,,,,,,,,,,,m,,,,,,,,,,,,,,,,,119,1,761.574,763.248,z,0,1.672,,[],[],[],[],[],[],[],763.248,765.241,765.241,766.045,[],[],[],[],[],[],[],z,766.045,766.046,-0.833562586,0.501375516,0,0,0,,0,118,118,98,1,4,word,CRIMINAL,cursive,criminal_c.png,0.802,,,,,
,,,,31855,001,2025-10-16_10h29.00.376,HW_LDT_1,2024.2.4,MacIntel,52.63157895,,,,,,,,,,,,,,,,,,,,,,766.046,766.241,766.241,766.741,,,,,,,,,,,,,,1.519,1,,,,,,,,,,,,,,z,,,,,,,,,,,,,,,,,120,0,766.741,768.262,z,1,1.519,,[],[],[],[],[],[],[],768.263,770.257,770.257,770.258,[],[],[],[],[],[],[],,770.258,770.258,-0.833562586,0.501375516,0,0,0,,0,119,119,64,1,4,TL,moredate,print,moredate_p.png,,,,,,
,,,,31855,001,2025-10-16_10h29.00.376,HW_LDT_1,2024.2.4,MacIntel,52.63157895,,,,,,,,,,,,,,,,,,,,,,770.258,770.457,770.457,770.957,,,,,,,,,,,,,,0.819,1,,,,,,,,,,,,,,m,,,,,,,,,,,,,,,,,121,1,770.958,771.779,m,1,0.819,,[],[],[],[],[],[],[],771.779,773.774,773.774,774.663,[],[],[],[],[],[],[],m,774.663,774.663,-0.833562586,0.501375516,0,0,0,,0,120,120,115,1,4,word,LOGICAL,print,logical_p.png,0.887,,,,,
,,,,31855,001,2025-10-16_10h29.00.376,HW_LDT_1,2024.2.4,MacIntel,52.63157895,,,,,,,,,,,,,,,,,,,,,,774.664,774.857,774.858,775.358,,,,,,,,,,,,,,1.536,1,,,,,,,,,,,,,,m,,,,,,,,,,,,,,,,,122,1,775.358,776.897,m,1,1.536,,[],[],[],[],[],[],[],776.897,778.891,778.891,779.631,[],[],[],[],[],[],[],m,779.631,779.631,-0.833562586,0.501375516,0,0,0,,0,121,121,111,1,4,word,INDICATE,print,indicate_p.png,0.738,,,,,
,,,,31855,001,2025-10-16_10h29.00.376,HW_LDT_1,2024.2.4,MacIntel,52.63157895,,,,,,,,,,,,,,,,,,,,,,779.632,779.824,779.824,780.324,,,,,,,,,,,,,,3.536,0,,,,,,,,,,,,,,z,,,,,,,,,,,,,,,,,123,0,780.324,783.862,m,0,3.536,,[],[],[],[],[],[],[],783.863,785.858,785.858,785.858,[],[],[],[],[],[],[],,785.858,785.858,-0.833562586,0.501375516,0,0,0,,0,122,122,39,1,4,RL,relone,cursive,relone_c.png,,,,,,
,,,,31855,001,2025-10-16_10h29.00.376,HW_LDT_1,2024.2.4,MacIntel,52.63157895,,,,,,,,,,,,,,,,,,,,,,785.859,786.058,786.058,786.558,,,,,,,,,,,,,,2.403,1,,,,,,,,,,,,,,z,,,,,,,,,,,,,,,,,124,0,786.558,788.963,z,1,2.403,,[],[],[],[],[],[],[],788.963,790.958,790.958,790.958,[],[],[],[],[],[],[],,790.958,790.958,-0.833562586,0.501375516,0,0,0,,0,123,123,19,1,4,RL,elacodate,cursive,elacodate_c.png,,,,,,
,,,,31855,001,2025-10-16_10h29.00.376,HW_LDT_1,2024.2.4,MacIntel,52.63157895,,,,,,,,,,,,,,,,,,,,,,790.96,791.158,791.158,791.658,,,,,,,,,,,,,,3.536,0,,,,,,,,,,,,,,z,,,,,,,,,,,,,,,,,125,1,791.658,795.198,m,0,3.536,,[],[],[],[],[],[],[],795.198,797.192,797.192,798.014,[],[],[],[],[],[],[],z,798.014,798.014,-0.833562586,0.501375516,0,0,0,,0,124,124,45,1,4,RL,spetisic,cursive,spetisic_c.png,0.82,,,,,
,,,,31855,001,2025-10-16_10h29.00.376,HW_LDT_1,2024.2.4,MacIntel,52.63157895,,,,,,,,,,,,,,,,,,,,,,798.015,798.208,798.208,798.708,,,,,,,,,,,,,,1.619,0,,,,,,,,,,,,,,z,,,,,,,,,,,,,,,,,126,1,798.708,800.329,m,0,1.619,,[],[],[],[],[],[],[],800.329,802.325,802.325,803.281,[],[],[],[],[],[],[],m,803.281,803.281,-0.833562586,0.501375516,0,0,0,,0,125,125,42,1,4,RL,revune,print,revune_p.png,0.954,,,,,
,,,,31855,001,2025-10-16_10h29.00.376,HW_LDT_1,2024.2.4,MacIntel,52.63157895,,,,,,,,,,,,,,,,,,,,,,803.282,803.475,803.475,803.975,,,,,,,,,,,,,,1.219,1,,,,,,,,,,,,,,m,,,,,,,,,,,,,,,,,127,0,803.975,805.196,m,1,1.219,,[],[],[],[],[],[],[],805.197,807.191,807.192,807.192,[],[],[],[],[],[],[],,807.192,807.192,-0.833562586,0.501375516,0,0,0,,0,126,126,119,1,4,word,MEMORY,print,memory_p.png,,,,,,
,,,,31855,001,2025-10-16_10h29.00.376,HW_LDT_1,2024.2.4,MacIntel,52.63157895,,,,,,,,,,,,,,,,,,,,,,807.193,807.391,807.391,807.891,,,,,,,,,,,,,,1.319,0,,,,,,,,,,,,,,m,,,,,,,,,,,,,,,,,128,0,807.892,809.213,z,0,1.319,,[],[],[],[],[],[],[],809.213,811.208,811.208,811.208,[],[],[],[],[],[],[],,811.208,811.209,-0.833562586,0.501375516,0,0,0,,0,127,127,158,1,4,word,VELOCITY,cursive,velocity_c.png,,,,,,
,,,,31855,001,2025-10-16_10h29.00.376,HW_LDT_1,2024.2.4,MacIntel,52.63157895,,,,,,,,,,,,,,,,,,,,,,811.209,811.408,811.408,811.908,,,,,,,,,,,,,,0.952,1,,,,,,,,,,,,,,m,,,,,,,,,,,,,,,,,129,0,811.909,812.863,m,1,0.952,,[],[],[],[],[],[],[],812.863,814.858,814.858,814.859,[],[],[],[],[],[],[],,814.859,814.859,-0.833562586,0.501375516,0,0,0,,0,128,128,140,1,4,word,RELATIVE,print,relative_p.png,,,,,,
,,,,31855,001,2025-10-16_10h29.00.376,HW_LDT_1,2024.2.4,MacIntel,52.63157895,,,,,,,,,,,,,,,,,,,,,,814.86,815.058,815.058,815.558,,,,,,,,,,,,,,6.703,0,,,,,,,,,,,,,,m,,,,,,,,,,,,,,,,,130,0,815.558,822.264,z,0,6.703,,[],[],[],[],[],[],[],822.264,824.258,824.258,824.259,[],[],[],[],[],[],[],,824.259,824.259,-0.833562586,0.501375516,0,0,0,,0,129,129,129,1,4,word,PARENT,cursive,parent_c.png,,,,,,
,,,,31855,001,2025-10-16_10h29.00.376,HW_LDT_1,2024.2.4,MacIntel,52.63157895,,,,,,,,,,,,,,,,,,,,,,824.259,824.458,824.458,824.959,,,,,,,,,,,,,,3.404,1,,,,,,,,,,,,,,m,,,,,,,,,,,,,,,,,131,0,824.959,828.365,m,1,3.404,,[],[],[],[],[],[],[],828.365,830.359,830.359,830.359,[],[],[],[],[],[],[],,830.359,830.359,-0.833562586,0.501375516,0,0,0,,0,130,130,153,1,4,word,STOLEN,cursive,stolen_c.png,,,,,,
,,,,31855,001,2025-10-16_10h29.00.376,HW_LDT_1,2024.2.4,MacIntel,52.63157895,,,,,,,,,,,,,,,,,,,,,,830.36,830.558,830.559,831.058,,,,,,,,,,,,,,1.302,1,,,,,,,,,,,,,,m,,,,,,,,,,,,,,,,,132,0,831.059,832.363,m,1,1.302,,[],[],[],[],[],[],[],832.363,834.359,834.359,834.359,[],[],[],[],[],[],[],,834.359,834.359,-0.833562586,0.501375516,0,0,0,,0,131,131,90,1,4,word,CAPITAL,print,capital_p.png,,,,,,
,,,,31855,001,2025-10-16_10h29.00.376,HW_LDT_1,2024.2.4,MacIntel,52.63157895,,,,,,,,,,,,,,,,,,,,,,834.36,834.559,834.559,835.059,,,,,,,,,,,,,,2.553,0,,,,,,,,,,,,,,m,,,,,,,,,,,,,,,,,133,0,835.059,837.615,z,0,2.553,,[],[],[],[],[],[],[],837.615,839.609,839.609,839.609,[],[],[],[],[],[],[],,839.609,839.609,-0.833562586,0.501375516,0,0,0,,0,132,132,139,1,4,word,REGULAR,cursive,regular_c.png,,,,,,
,,,,31855,001,2025-10-16_10h29.00.376,HW_LDT_1,2024.2.4,MacIntel,52.63157895,,,,,,,,,,,,,,,,,,,,,,839.61,839.809,839.809,840.309,,,,,,,,,,,,,,6.385,1,,,,,,,,,,,,,,m,,,,,,,,,,,,,,,,,134,0,840.309,846.697,m,1,6.385,,[],[],[],[],[],[],[],846.697,848.692,848.692,848.693,[],[],[],[],[],[],[],,848.693,848.693,-0.833562586,0.501375516,0,0,0,,0,133,133,104,1,4,word,DOMINANT,cursive,dominant_c.png,,,,,,
,,,,31855,001,2025-10-16_10h29.00.376,HW_LDT_1,2024.2.4,MacIntel,52.63157895,,,,,,,,,,,,,,,,,,,,,,848.694,848.892,848.892,849.392,,,,,,,,,,,,,,3.619,1,,,,,,,,,,,,,,m,,,,,,,,,,,,,,,,,135,0,849.393,853.014,m,1,3.619,,[],[],[],[],[],[],[],853.014,855.009,855.009,855.01,[],[],[],[],[],[],[],,855.01,855.01,-0.833562586,0.501375516,0,0,0,,0,134,134,116,1,4,word,MARGINAL,cursive,marginal_c.png,,,,,,
,,,,31855,001,2025-10-16_10h29.00.376,HW_LDT_1,2024.2.4,MacIntel,52.63157895,,,,,,,,,,,,,,,,,,,,,,855.011,855.209,855.209,855.709,,,,,,,,,,,,,,1.152,1,,,,,,,,,,,,,,z,,,,,,,,,,,,,,,,,136,0,855.709,856.864,z,1,1.152,,[],[],[],[],[],[],[],856.864,858.859,858.859,858.859,[],[],[],[],[],[],[],,858.859,858.859,-0.833562586,0.501375516,0,0,0,,0,135,135,75,1,4,TL,sanile,print,sanile_p.png,,,,,,
,,,,31855,001,2025-10-16_10h29.00.376,HW_LDT_1,2024.2.4,MacIntel,52.63157895,,,,,,,,,,,,,,,,,,,,,,858.86,859.059,859.059,859.559,,,,,,,,,,,,,,2.019,1,,,,,,,,,,,,,,z,,,,,,,,,,,,,,,,,137,0,859.56,861.581,z,1,2.019,,[],[],[],[],[],[],[],861.581,863.576,863.576,863.576,[],[],[],[],[],[],[],,863.576,863.576,-0.833562586,0.501375516,0,0,0,,0,136,136,17,1,4,RL,denficy,cursive,denficy_c.png,,,,,,
,,,,31855,001,2025-10-16_10h29.00.376,HW_LDT_1,2024.2.4,MacIntel,52.63157895,,,,,,,,,,,,,,,,,,,,,,863.577,863.776,863.776,864.276,,,,,,,,,,,,,,1.069,1,,,,,,,,,,,,,,m,,,,,,,,,,,,,,,,,138,0,864.276,865.347,m,1,1.069,,[],[],[],[],[],[],[],865.347,867.343,867.343,867.343,[],[],[],[],[],[],[],,867.343,867.343,-0.833562586,0.501375516,0,0,0,,0,137,137,157,1,4,word,VALIDITY,print,validity_p.png,,,,,,
,,,,31855,001,2025-10-16_10h29.00.376,HW_LDT_1,2024.2.4,MacIntel,52.63157895,,,,,,,,,,,,,,,,,,,,,,867.344,867.543,867.543,868.043,,,,,,,,,,,,,,0.987,1,,,,,,,,,,,,,,z,,,,,,,,,,,,,,,,,139,0,868.043,869.032,z,1,0.987,,[],[],[],[],[],[],[],869.032,871.026,871.026,871.027,[],[],[],[],[],[],[],,871.027,871.027,-0.833562586,0.501375516,0,0,0,,0,138,138,46,1,4,RL,skofen,cursive,skofen_c.png,,,,,,
,,,,31855,001,2025-10-16_10h29.00.376,HW_LDT_1,2024.2.4,MacIntel,52.63157895,,,,,,,,,,,,,,,,,,,,,,871.028,871.226,871.226,871.726,,,,,,,,,,,,,,0.835,1,,,,,,,,,,,,,,z,,,,,,,,,,,,,,,,,140,0,871.726,872.564,z,1,0.835,,[],[],[],[],[],[],[],872.564,874.559,874.56,874.56,[],[],[],[],[],[],[],,874.56,874.56,-0.833562586,0.501375516,0,0,0,,0,139,139,32,1,4,RL,patisic,cursive,patisic_c.png,,,,,,
,,,,31855,001,2025-10-16_10h29.00.376,HW_LDT_1,2024.2.4,MacIntel,52.63157895,,,,,,,,,,,,,,,,,,,,,,874.561,874.76,874.76,875.259,,,,,,,,,,,,,,1.003,1,,,,,,,,,,,,,,m,,,,,,,,,,,,,,,,,141,0,875.26,876.265,m,1,1.003,,[],[],[],[],[],[],[],876.265,878.259,878.26,878.26,[],[],[],[],[],[],[],,878.26,878.26,-0.833562586,0.501375516,0,0,0,,0,140,140,105,1,4,word,EDITOR,print,editor_p.png,,,,,,
,,,,31855,001,2025-10-16_10h29.00.376,HW_LDT_1,2024.2.4,MacIntel,52.63157895,,,,,,,,,,,,,,,,,,,,,,878.261,878.459,878.459,878.959,,,,,,,,,,,,,,1.22,1,,,,,,,,,,,,,,z,,,,,,,,,,,,,,,,,142,0,878.96,880.182,z,1,1.22,,[],[],[],[],[],[],[],880.182,882.176,882.176,882.176,[],[],[],[],[],[],[],,882.176,882.177,-0.833562586,0.501375516,0,0,0,,0,141,141,52,1,4,TL,cagetory,cursive,cagetory_c.png,,,,,,
,,,,31855,001,2025-10-16_10h29.00.376,HW_LDT_1,2024.2.4,MacIntel,52.63157895,,,,,,,,,,,,,,,,,,,,,,882.177,882.376,882.376,882.877,,,,,,,,,,,,,,2.168,0,,,,,,,,,,,,,,m,,,,,,,,,,,,,,,,,143,1,882.878,885.048,z,0,2.168,,[],[],[],[],[],[],[],885.048,887.043,887.043,888.382,[],[],[],[],[],[],[],z,888.382,888.382,-0.833562586,0.501375516,0,0,0,,0,142,142,106,1,4,word,ELABORATE,cursive,elaborate_c.png,1.336,,,,,
,,,,31855,001,2025-10-16_10h29.00.376,HW_LDT_1,2024.2.4,MacIntel,52.63157895,,,,,,,,,,,,,,,,,,,,,,888.382,888.576,888.576,889.076,,,,,,,,,,,,,,1.569,1,,,,,,,,,,,,,,z,,,,,,,,,,,,,,,,,144,0,889.077,890.648,z,1,1.569,,[],[],[],[],[],[],[],890.648,892.643,892.643,892.643,[],[],[],[],[],[],[],,892.643,892.643,-0.833562586,0.501375516,0,0,0,,0,143,143,73,1,4,TL,regilion,print,regilion_p.png,,,,,,
,,,,31855,001,2025-10-16_10h29.00.376,HW_LDT_1,2024.2.4,MacIntel,52.63157895,,,,,,,,,,,,,,,,,,,,,,892.644,892.843,892.843,893.343,,,,,,,,,,,,,,1.504,1,,,,,,,,,,,,,,z,,,,,,,,,,,,,,,,,145,0,893.344,894.85,z,1,1.504,,[],[],[],[],[],[],[],894.85,896.843,896.843,896.843,[],[],[],[],[],[],[],,896.843,896.844,-0.833562586,0.501375516,0,0,0,,0,144,144,56,1,4,TL,donimant,cursive,donimant_c.png,,,,,,
,,,,31855,001,2025-10-16_10h29.00.376,HW_LDT_1,2024.2.4,MacIntel,52.63157895,,,,,,,,,,,,,,,,,,,,,,896.844,897.043,897.043,897.543,,,,,,,,,,,,,,7.787,1,,,,,,,,,,,,,,m,,,,,,,,,,,,,,,,,146,0,897.543,905.334,m,1,7.787,,[],[],[],[],[],[],[],905.334,907.327,907.327,907.327,[],[],[],[],[],[],[],,907.328,907.328,-0.833562586,0.501375516,0,0,0,,0,145,145,152,1,4,word,SPECIMEN,cursive,specimen_c.png,,,,,,
,,,,31855,001,2025-10-16_10h29.00.376,HW_LDT_1,2024.2.4,MacIntel,52.63157895,,,,,,,,,,,,,,,,,,,,,,907.329,907.527,907.527,908.027,,,,,,,,,,,,,,2.385,1,,,,,,,,,,,,,,z,,,,,,,,,,,,,,,,,147,0,908.027,910.415,z,1,2.385,,[],[],[],[],[],[],[],910.415,912.41,912.41,912.41,[],[],[],[],[],[],[],,912.41,912.41,-0.833562586,0.501375516,0,0,0,,0,146,146,20,1,4,RL,gralekul,print,gralekul_p.png,,,,,,
,,,,31855,001,2025-10-16_10h29.00.376,HW_LDT_1,2024.2.4,MacIntel,52.63157895,,,,,,,,,,,,,,,,,,,,,,912.411,912.61,912.61,913.11,,,,,,,,,,,,,,2.269,1,,,,,,,,,,,,,,z,,,,,,,,,,,,,,,,,148,0,913.111,915.382,z,1,2.269,,[],[],[],[],[],[],[],915.382,917.377,917.377,917.377,[],[],[],[],[],[],[],,917.377,917.377,-0.784044017,0.110729023,0,0,0,,0,147,147,15,1,4,RL,debave,cursive,debave_c.png,,,,,,
,,,,31855,001,2025-10-16_10h29.00.376,HW_LDT_1,2024.2.4,MacIntel,52.63157895,,,,,,,,,,,,,,,,,,,,,,917.379,917.577,917.577,918.077,,,,,,,,,,,,,,0.753,1,,,,,,,,,,,,,,z,,,,,,,,,,,,,,,,,149,0,918.077,918.834,z,1,0.753,,[],[],[],[],[],[],[],918.834,920.827,920.827,920.828,[],[],[],[],[],[],[],,920.828,920.828,-0.833562586,0.501375516,0,0,0,,0,148,148,5,1,4,RL,bebine,print,bebine_p.png,,,,,,
,,,,31855,001,2025-10-16_10h29.00.376,HW_LDT_1,2024.2.4,MacIntel,52.63157895,,,,,,,,,,,,,,,,,,,,,,920.829,921.027,921.027,921.527,,,,,,,,,,,,,,0.871,1,,,,,,,,,,,,,,z,,,,,,,,,,,,,,,,,150,0,921.527,922.4,z,1,0.871,,[],[],[],[],[],[],[],922.4,924.394,924.394,924.394,[],[],[],[],[],[],[],,924.394,924.394,-0.833562586,0.501375516,0,0,0,,0,149,149,21,1,4,RL,insibate,print,insibate_p.png,,,,,,
,,,,31855,001,2025-10-16_10h29.00.376,HW_LDT_1,2024.2.4,MacIntel,52.63157895,,,,,,,,,,,,,,,,,,,,,,924.394,924.594,924.594,925.094,,,,,,,,,,,,,,0.802,0,,,,,,,,,,,,,,m,,,,,,,,,,,,,,,,,151,0,925.094,925.898,z,0,0.802,,[],[],[],[],[],[],[],925.899,927.894,927.894,927.894,[],[],[],[],[],[],[],,927.894,927.894,-0.833562586,0.501375516,0,0,0,,0,150,150,138,1,4,word,REFUSAL,cursive,refusal_c.png,,,,,,
,,,,31855,001,2025-10-16_10h29.00.376,HW_LDT_1,2024.2.4,MacIntel,52.63157895,,,,,,,,,,,,,,,,,,,,,,927.895,928.094,928.094,928.594,,,,,,,,,,,,,,0.885,0,,,,,,,,,,,,,,m,,,,,,,,,,,,,,,,,152,1,928.594,929.482,z,0,0.885,,[],[],[],[],[],[],[],929.482,931.477,931.477,932.337,[],[],[],[],[],[],[],z,932.337,932.337,-0.788170564,0.118982118,0,0,0,,0,151,151,92,1,4,word,CATEGORY,cursive,category_c.png,0.857,,,,,
,,,,31855,001,2025-10-16_10h29.00.376,HW_LDT_1,2024.2.4,MacIntel,52.63157895,,,,,,,,,,,,,,,,,,,,,,932.338,932.527,932.527,933.027,,,,,,,,,,,,,,3.17,0,,,,,,,,,,,,,,z,,,,,,,,,,,,,,,,,153,0,933.027,936.2,m,0,3.17,,[],[],[],[],[],[],[],936.2,938.194,938.194,938.194,[],[],[],[],[],[],[],,938.194,938.194,-0.788170564,0.12173315,0,0,0,,0,152,152,23,1,4,RL,linefal,cursive,linefal_c.png,,,,,,
,,,,31855,001,2025-10-16_10h29.00.376,HW_LDT_1,2024.2.4,MacIntel,52.63157895,,,,,,,,,,,,,,,,,,,,,,938.195,938.394,938.394,938.894,,,,,,,,,,,,,,3.519,1,,,,,,,,,,,,,,m,,,,,,,,,,,,,,,,,154,1,938.895,942.417,m,1,3.519,,[],[],[],[],[],[],[],942.417,944.411,944.411,945.4,[],[],[],[],[],[],[],z,945.4,945.4,-0.788170564,0.123108666,0,0,0,,0,153,153,151,1,4,word,SPECIFIC,cursive,specific_c.png,0.987,,,,,
,,,,31855,001,2025-10-16_10h29.00.376,HW_LDT_1,2024.2.4,MacIntel,52.63157895,,,,,,,,,,,,,,,,,,,,,,945.401,945.594,945.594,946.094,,,,,,,,,,,,,,2.669,1,,,,,,,,,,,,,,m,,,,,,,,,,,,,,,,,155,0,946.095,948.766,m,1,2.669,,[],[],[],[],[],[],[],948.766,950.761,950.761,950.761,[],[],[],[],[],[],[],,950.761,950.761,-0.78954608,0.124484182,0,0,0,,0,154,154,89,1,4,word,CAPACITY,cursive,capacity_c.png,,,,,,
,,,,31855,001,2025-10-16_10h29.00.376,HW_LDT_1,2024.2.4,MacIntel,52.63157895,,,,,,,,,,,,,,,,,,,,,,950.762,950.961,950.961,951.461,,,,,,,,,,,,,,1.57,1,,,,,,,,,,,,,,z,,,,,,,,,,,,,,,,,156,0,951.461,953.034,z,1,1.57,,[],[],[],[],[],[],[],953.034,955.029,955.029,955.029,[],[],[],[],[],[],[],,955.029,955.03,-0.78954608,0.125859697,0,0,0,,0,155,155,68,1,4,TL,prosopal,print,prosopal_p.png,,,,,,
,,,,31855,001,2025-10-16_10h29.00.376,HW_LDT_1,2024.2.4,MacIntel,52.63157895,,,,,,,,,,,,,,,,,,,,,,955.031,955.228,955.228,955.728,,,,,,,,,,,,,,1.671,1,,,,,,,,,,,,,,z,,,,,,,,,,,,,,,,,157,0,955.728,957.401,z,1,1.671,,[],[],[],[],[],[],[],957.401,959.394,959.394,959.395,[],[],[],[],[],[],[],,959.395,959.395,-0.78954608,0.128610729,0,0,0,,0,156,156,71,1,4,TL,racidal,print,racidal_p.png,,,,,,
,,,,31855,001,2025-10-16_10h29.00.376,HW_LDT_1,2024.2.4,MacIntel,52.63157895,,,,,,,,,,,,,,,,,,,,,,959.396,959.594,959.594,960.094,,,,,,,,,,,,,,1.103,0,,,,,,,,,,,,,,m,,,,,,,,,,,,,,,,,158,0,960.095,961.201,z,0,1.103,,[],[],[],[],[],[],[],961.201,963.195,963.195,963.195,[],[],[],[],[],[],[],,963.195,963.195,-0.78954608,0.129986245,0,0,0,,0,157,157,130,1,4,word,POLICY,cursive,policy_c.png,,,,,,
,,,,31855,001,2025-10-16_10h29.00.376,HW_LDT_1,2024.2.4,MacIntel,52.63157895,,,,,,,,,,,,,,,,,,,,,,963.196,963.395,963.395,963.894,,,,,,,,,,,,,,2.67,1,,,,,,,,,,,,,,z,,,,,,,,,,,,,,,,,159,0,963.895,966.567,z,1,2.67,,[],[],[],[],[],[],[],966.567,968.561,968.561,968.561,[],[],[],[],[],[],[],,968.561,968.562,-0.78954608,0.128610729,0,0,0,,0,158,158,55,1,4,TL,corevage,cursive,corevage_c.png,,,,,,
,,,,31855,001,2025-10-16_10h29.00.376,HW_LDT_1,2024.2.4,MacIntel,52.63157895,,,,,,,,,,,,,,,,,,,,,,968.562,968.761,968.761,969.261,,,,,,,,,,,,,,1.785,1,,,,,,,,,,,,,,m,,,,,,,,,,,,,,,,,160,0,969.262,971.05,m,1,1.785,,[],[],[],[],[],[],[],971.05,973.045,973.045,973.045,[],[],[],[],[],[],[],,973.045,973.045,-0.833562586,0.501375516,0,0,0,,0,159,159,112,1,4,word,LIBERAL,cursive,liberal_c.png,,,,,,
,,,,31855,001,2025-10-16_10h29.00.376,HW_LDT_1,2024.2.4,MacIntel,52.63157895,,,,,,,,,,,,,,,,,,,,,,,,,,,,,,,,,,,,,,,,,,,,,,,,,,,,,,,,,,,,,,,,,,,,,,,,,,,,,,,,,,,,,,,,,,,,,,,,,,,,,,,,,,,,,,,,,,,,,,,,973.046,978.045
