counterbalance_lists.group,counterbalance_lists.remaining,get_list.started,get_list.stopped,participant,session,date,expName,psychopyVersion,OS,frameRate,Instructions.started,Instructions.stopped,key_resp.keys,key_resp.rt,key_resp.duration,instr_done_touch.x,instr_done_touch.y,instr_done_touch.leftButton,instr_done_touch.midButton,instr_done_touch.rightButton,start_instr.thisRepN,start_instr.thisTrialN,start_instr.thisN,start_instr.thisIndex,start_instr.ran,pageN,phase,instruct_text,has_image,instruct_image,showProgress.started,showProgress.stopped,fix.started,fix.stopped,prac.started,prac.stopped,response.keys,response.corr,response.rt,response.duration,touch_resp.x,touch_resp.y,touch_resp.leftButton,touch_resp.midButton,touch_resp.rightButton,touch_resp.time,touch_resp.clicked_name,rt,corr,feedback.started,feedback.stopped,trials.thisRepN,trials.thisTrialN,trials.thisN,trials.thisIndex,trials.ran,TrialID,StimulusType,Condition,PrimeDuration,Prime,Target,corrAns,Instructions_expt.started,Instructions_expt.stopped,key_resp_3.keys,key_resp_3.rt,key_resp_3.duration,instr_done_touch_3.x,instr_done_touch_3.y,instr_done_touch_3.leftButton,instr_done_touch_3.midButton,instr_done_touch_3.rightButton,instr_experiment.thisRepN,instr_experiment.thisTrialN,instr_experiment.thisN,instr_experiment.thisIndex,instr_experiment.ran,trialID,flag,maintask.started,maintask.stopped,key_resp_2.keys,key_resp_2.corr,key_resp_2.rt,key_resp_2.duration,targ_click.x,targ_click.y,targ_click.leftButton,targ_click.midButton,targ_click.rightButton,targ_click.time,targ_click.clicked_name,ITI.started,ITI.stopped,probe.started,probe.stopped,click_probe.x,click_probe.y,click_probe.leftButton,click_probe.midButton,click_probe.rightButton,click_probe.time,click_probe.clicked_name,key_resp_probe.keys,Break.started,Break.stopped,break_done_touch.x,break_done_touch.y,break_done_touch.leftButton,break_done_touch.midButton,break_done_touch.rightButton,break_done_keyboard.keys,list3_trials.thisRepN,list3_trials.thisTrialN,list3_trials.thisN,list3_trials.thisIndex,list3_trials.ran,list_id,item_type,string,font,stim_file,key_resp_probe.rt,key_resp_probe.duration,break_done_touch.clicked_name,break_done_keyboard.rt,break_done_keyboard.duration,End.started,End.stopped
list3,,0.4626,0.463,31856,001,2025-10-19_16h39.51.915,HW_LDT_1,2024.2.4,Win32,59.52380952,,,,,,,,,,,,,,,,,,,,,,,,,,,,,,,,,,,,,,,,,,,,,,,,,,,,,,,,,,,,,,,,,,,,,,,,,,,,,,,,,,,,,,,,,,,,,,,,,,,,,,,,,,,,,,,,,,,,,,,,
,,,,31856,001,2025-10-19_16h39.51.915,HW_LDT_1,2024.2.4,Win32,59.52380952,0.5282,36.0773,space,35.4629,,-0.150219298,-0.165570175,0,0,0,0,0,0,0,1,1,instructions,"INSTRUCTIONS
At the start of each trial, look at the plus sign  (+) in the center of the screen.  This tells you that a trial is about to begin and where to look. Second, the plus sign will disappear and a string of letters will appear. Your task is to determine if the string of letters is a word or not. If the item is a word press the M key (on keyboard)  or touch the word button (phone/tablet).  If the item is not a word,  press the  Z key (on keyboard)  or touch the nonword button (on phone/tablet). The items will be presented for a short time. 
Press the space bar or touch  continue.",0,,,,,,,,,,,,,,,,,,,,,,,,,,,,,,,,,,,,,,,,,,,,,,,,,,,,,,,,,,,,,,,,,,,,,,,,,,,,,,,,,,,,,,,,,,,,,,,,,,,,,
,,,,31856,001,2025-10-19_16h39.51.915,HW_LDT_1,2024.2.4,Win32,59.52380952,36.0825,41.0874,space,4.9798,,-0.150219298,-0.165570175,0,0,0,0,1,1,1,1,2,instructions,"If your device has a keyboard, press the 'Z' key for nonwords and the 'M' key for words.





Press the space bar or touch the button below to continue.",0,keyboard-example.gif,,,,,,,,,,,,,,,,,,,,,,,,,,,,,,,,,,,,,,,,,,,,,,,,,,,,,,,,,,,,,,,,,,,,,,,,,,,,,,,,,,,,,,,,,,,,,,,,,,,,
,,,,31856,001,2025-10-19_16h39.51.915,HW_LDT_1,2024.2.4,Win32,59.52380952,41.0893,44.5097,space,3.4003,,-0.150219298,-0.165570175,0,0,0,0,2,2,2,1,3,instructions,"If you are using a touchscreen only device, use the buttons on the screen. Do not use the mouse.





Press the space bar or touch the button below to continue.",0,touchscreen-example.gif,,,,,,,,,,,,,,,,,,,,,,,,,,,,,,,,,,,,,,,,,,,,,,,,,,,,,,,,,,,,,,,,,,,,,,,,,,,,,,,,,,,,,,,,,,,,,,,,,,,,
,,,,31856,001,2025-10-19_16h39.51.915,HW_LDT_1,2024.2.4,Win32,59.52380952,44.5121,105.5027,space,60.9607,,-0.150219298,-0.165570175,0,0,0,0,3,3,3,1,4,instructions,"It is very important that you respond as quickly and accurately as possible, as each letter string will only be on the screen for two seconds. If you do not respond within this time, the message 'Too slow!' will be displayed and the experiment will progress to the next letter string. The first 20 trials will be practice trials and you will receive feedback on your answers. 

Press the space bar or touch the button below to start the practice trials.",0,,,,,,,,,,,,,,,,,,,,,,,,,,,,,,,,,,,,,,,,,,,,,,,,,,,,,,,,,,,,,,,,,,,,,,,,,,,,,,,,,,,,,,,,,,,,,,,,,,,,,
,,,,31856,001,2025-10-19_16h39.51.915,HW_LDT_1,2024.2.4,Win32,59.52380952,,,,,,,,,,,,,,,,,,,,,105.5583,105.7015,105.7019,106.2017,106.202,111.002,m,1,4.7702,,[],[],[],[],[],[],[],4.7702,1,111.0028,111.5056,0,0,0,7,1,1008,WORD,UN,16,hurdle,VOLUME,m,,,,,,,,,,,,,,,,,,,,,,,,,,,,,,,,,,,,,,,,,,,,,,,,,,,,,,,,,,,,,,,,,,,
,,,,31856,001,2025-10-19_16h39.51.915,HW_LDT_1,2024.2.4,Win32,59.52380952,,,,,,,,,,,,,,,,,,,,,111.5084,111.7055,111.7055,112.2187,112.221,113.9905,m,1,1.7512,,[],[],[],[],[],[],[],1.7512,1,113.9907,114.4915,0,1,1,4,1,1005,WORD,UN,33,abound,SQUEAK,m,,,,,,,,,,,,,,,,,,,,,,,,,,,,,,,,,,,,,,,,,,,,,,,,,,,,,,,,,,,,,,,,,,,
,,,,31856,001,2025-10-19_16h39.51.915,HW_LDT_1,2024.2.4,Win32,59.52380952,,,,,,,,,,,,,,,,,,,,,114.4936,114.6908,114.6909,115.1875,115.1908,116.2948,m,1,1.0888,,[],[],[],[],[],[],[],1.0888,1,116.295,116.7923,0,2,2,0,1,1001,WORD,"ID",33,utopia,UTOPIA,m,,,,,,,,,,,,,,,,,,,,,,,,,,,,,,,,,,,,,,,,,,,,,,,,,,,,,,,,,,,,,,,,,,,
,,,,31856,001,2025-10-19_16h39.51.915,HW_LDT_1,2024.2.4,Win32,59.52380952,,,,,,,,,,,,,,,,,,,,,116.7951,116.992,116.9921,117.5057,117.507,118.8899,z,1,1.3684,,[],[],[],[],[],[],[],1.3684,1,118.8901,119.3945,0,3,3,10,1,1011,NW,"ID",16,inlade,INLADE,z,,,,,,,,,,,,,,,,,,,,,,,,,,,,,,,,,,,,,,,,,,,,,,,,,,,,,,,,,,,,,,,,,,,
,,,,31856,001,2025-10-19_16h39.51.915,HW_LDT_1,2024.2.4,Win32,59.52380952,,,,,,,,,,,,,,,,,,,,,119.397,119.5941,119.5942,120.1084,120.1117,122.5002,z,1,2.3715,,[],[],[],[],[],[],[],2.3715,1,122.5004,122.9922,0,4,4,9,1,1010,NW,"ID",33,fariny,FARINY,z,,,,,,,,,,,,,,,,,,,,,,,,,,,,,,,,,,,,,,,,,,,,,,,,,,,,,,,,,,,,,,,,,,,
,,,,31856,001,2025-10-19_16h39.51.915,HW_LDT_1,2024.2.4,Win32,59.52380952,,,,,,,,,,,,,,,,,,,,,122.9936,123.1826,123.1827,123.6809,123.6827,124.761,z,1,1.0516,,[],[],[],[],[],[],[],1.0516,1,124.7614,125.251,0,5,5,11,1,1012,NW,"ID",16,rashet,RASHET,z,,,,,,,,,,,,,,,,,,,,,,,,,,,,,,,,,,,,,,,,,,,,,,,,,,,,,,,,,,,,,,,,,,,
,,,,31856,001,2025-10-19_16h39.51.915,HW_LDT_1,2024.2.4,Win32,59.52380952,,,,,,,,,,,,,,,,,,,,,125.2527,125.4487,125.4488,125.9485,125.9498,127.1459,z,1,1.1675,,[],[],[],[],[],[],[],1.1675,1,127.1461,127.6498,0,6,6,15,1,1016,NW,UN,16,mushed,WHAISE,z,,,,,,,,,,,,,,,,,,,,,,,,,,,,,,,,,,,,,,,,,,,,,,,,,,,,,,,,,,,,,,,,,,,
,,,,31856,001,2025-10-19_16h39.51.915,HW_LDT_1,2024.2.4,Win32,59.52380952,,,,,,,,,,,,,,,,,,,,,127.6519,127.8495,127.8496,128.3497,128.3511,129.167,m,1,0.7846,,[],[],[],[],[],[],[],0.7846,1,129.1671,129.6675,0,7,7,3,1,1004,WORD,"ID",16,matrix,MATRIX,m,,,,,,,,,,,,,,,,,,,,,,,,,,,,,,,,,,,,,,,,,,,,,,,,,,,,,,,,,,,,,,,,,,,
,,,,31856,001,2025-10-19_16h39.51.915,HW_LDT_1,2024.2.4,Win32,59.52380952,,,,,,,,,,,,,,,,,,,,,129.6698,129.8677,129.8678,130.3808,130.3819,131.6691,z,1,1.2682,,[],[],[],[],[],[],[],1.2682,1,131.6694,132.1653,0,8,8,8,1,1009,NW,"ID",33,aslert,ASLERT,z,,,,,,,,,,,,,,,,,,,,,,,,,,,,,,,,,,,,,,,,,,,,,,,,,,,,,,,,,,,,,,,,,,,
,,,,31856,001,2025-10-19_16h39.51.915,HW_LDT_1,2024.2.4,Win32,59.52380952,,,,,,,,,,,,,,,,,,,,,132.1671,132.3561,132.3563,132.8698,132.8708,133.8344,m,1,0.9346,,[],[],[],[],[],[],[],0.9346,1,133.8346,134.3374,0,9,9,6,1,1007,WORD,UN,16,tropic,ZOMBIE,m,,,,,,,,,,,,,,,,,,,,,,,,,,,,,,,,,,,,,,,,,,,,,,,,,,,,,,,,,,,,,,,,,,,
,,,,31856,001,2025-10-19_16h39.51.915,HW_LDT_1,2024.2.4,Win32,59.52380952,,,,,,,,,,,,,,,,,,,,,134.3388,134.5375,134.5376,135.0379,135.0388,135.9182,m,1,0.851,,[],[],[],[],[],[],[],0.851,1,135.9183,136.4221,0,10,10,2,1,1003,WORD,"ID",16,almond,ALMOND,m,,,,,,,,,,,,,,,,,,,,,,,,,,,,,,,,,,,,,,,,,,,,,,,,,,,,,,,,,,,,,,,,,,,
,,,,31856,001,2025-10-19_16h39.51.915,HW_LDT_1,2024.2.4,Win32,59.52380952,,,,,,,,,,,,,,,,,,,,,136.4233,136.6224,136.6224,137.1224,137.1237,138.007,m,1,0.8501,,[],[],[],[],[],[],[],0.8501,1,138.0071,138.5077,0,11,11,1,1,1002,WORD,"ID",33,adjust,ADJUST,m,,,,,,,,,,,,,,,,,,,,,,,,,,,,,,,,,,,,,,,,,,,,,,,,,,,,,,,,,,,,,,,,,,,
,,,,31856,001,2025-10-19_16h39.51.915,HW_LDT_1,2024.2.4,Win32,59.52380952,,,,,,,,,,,,,,,,,,,,,138.5095,138.7069,138.7069,139.2073,139.2083,140.1245,z,1,0.8855,,[],[],[],[],[],[],[],0.8855,1,140.1247,140.6252,0,12,12,14,1,1015,NW,UN,16,miaber,THRALE,z,,,,,,,,,,,,,,,,,,,,,,,,,,,,,,,,,,,,,,,,,,,,,,,,,,,,,,,,,,,,,,,,,,,
,,,,31856,001,2025-10-19_16h39.51.915,HW_LDT_1,2024.2.4,Win32,59.52380952,,,,,,,,,,,,,,,,,,,,,140.6267,140.8211,140.8212,141.3345,141.3353,142.2429,z,1,0.8835,,[],[],[],[],[],[],[],0.8835,1,142.2429,142.7562,0,13,13,13,1,1014,NW,UN,33,winfer,ROUPET,z,,,,,,,,,,,,,,,,,,,,,,,,,,,,,,,,,,,,,,,,,,,,,,,,,,,,,,,,,,,,,,,,,,,
,,,,31856,001,2025-10-19_16h39.51.915,HW_LDT_1,2024.2.4,Win32,59.52380952,,,,,,,,,,,,,,,,,,,,,142.7584,142.973,142.9733,143.444,143.4455,144.5779,z,1,1.1021,,[],[],[],[],[],[],[],1.1021,1,144.578,145.0784,0,14,14,12,1,1013,NW,UN,33,adveil,SPRINY,z,,,,,,,,,,,,,,,,,,,,,,,,,,,,,,,,,,,,,,,,,,,,,,,,,,,,,,,,,,,,,,,,,,,
,,,,31856,001,2025-10-19_16h39.51.915,HW_LDT_1,2024.2.4,Win32,59.52380952,,,,,,,,,,,,,,,,,,,,,145.0801,145.2782,145.2783,145.7787,145.7795,146.5795,m,1,0.7836,,[],[],[],[],[],[],[],0.7836,1,146.5797,147.0798,0,15,15,5,1,1006,WORD,UN,33,frenzy,OBTAIN,m,,,,,,,,,,,,,,,,,,,,,,,,,,,,,,,,,,,,,,,,,,,,,,,,,,,,,,,,,,,,,,,,,,,
,,,,31856,001,2025-10-19_16h39.51.915,HW_LDT_1,2024.2.4,Win32,59.52380952,,,,,,,,,,,,,,,,1,end_of_practice,"You have completed the practice trials. During the experimental trials, you will not receive feedback. On some trials you will be asked to report whether the item you just saw was in cursive or print. 
Before you begin, please ensure that you are in a comfortable and quiet location and will not be disturbed for about 15 minutes, as we cannot use your data if you do not complete all the trials. 
 When you are ready to start the experimental trials, please press space or touch the button below.",,,,,,,,,,,,,,,,,,,,,,,,,,,,,,,,,,,,147.0901,149.4957,space,2.3695,,-0.150219298,-0.165570175,0,0,0,0,0,0,0,1,,,,,,,,,,,,,,,,,,,,,,,,,,,,,,,,,,,,,,,,,,,,,,,,,,,,
,,,,31856,001,2025-10-19_16h39.51.915,HW_LDT_1,2024.2.4,Win32,59.52380952,,,,,,,,,,,,,,,,,,,,,149.5274,149.698,149.698,150.2116,,,,,,,,,,,,,,1.445,1,,,,,,,,,,,,,,m,,,,,,,,,,,,,,,,1,0,150.2139,151.6626,m,1,1.445,,[],[],[],[],[],[],[],151.6629,153.6638,153.6642,153.6702,[],[],[],[],[],[],[],,153.6705,153.6782,-0.150219298,-0.165570175,0,0,0,,0,0,0,139,1,3,word,REGULAR,print,regular_p.png,,,,,,,
,,,,31856,001,2025-10-19_16h39.51.915,HW_LDT_1,2024.2.4,Win32,59.52380952,,,,,,,,,,,,,,,,,,,,,153.6797,153.8672,153.8675,154.3678,,,,,,,,,,,,,,1.4957,1,,,,,,,,,,,,,,z,,,,,,,,,,,,,,,,2,0,154.3685,155.8691,z,1,1.4957,,[],[],[],[],[],[],[],155.8692,157.8706,157.8707,157.8711,[],[],[],[],[],[],[],,157.8712,157.8715,-0.150219298,-0.165570175,0,0,0,,0,1,1,14,1,3,RL,lofase,cursive,lofase_c.png,,,,,,,
,,,,31856,001,2025-10-19_16h39.51.915,HW_LDT_1,2024.2.4,Win32,59.52380952,,,,,,,,,,,,,,,,,,,,,157.873,158.0703,158.0705,158.5706,,,,,,,,,,,,,,2.3968,0,,,,,,,,,,,,,,z,,,,,,,,,,,,,,,,3,0,158.5712,160.9691,m,0,2.3968,,[],[],[],[],[],[],[],160.9693,162.9572,162.9573,162.9574,[],[],[],[],[],[],[],,162.9574,162.9575,-0.150219298,-0.165570175,0,0,0,,0,2,2,75,1,3,TL,sloten,cursive,sloten_c.png,,,,,,,
,,,,31856,001,2025-10-19_16h39.51.915,HW_LDT_1,2024.2.4,Win32,59.52380952,,,,,,,,,,,,,,,,,,,,,162.9589,163.1572,163.1573,163.6534,,,,,,,,,,,,,,1.1986,1,,,,,,,,,,,,,,z,,,,,,,,,,,,,,,,4,0,163.6541,164.8536,z,1,1.1986,,[],[],[],[],[],[],[],164.8536,166.8555,166.8557,166.856,[],[],[],[],[],[],[],,166.8561,166.8562,-0.150219298,-0.165570175,0,0,0,,0,3,3,21,1,3,RL,potugar,print,potugar_p.png,,,,,,,
,,,,31856,001,2025-10-19_16h39.51.915,HW_LDT_1,2024.2.4,Win32,59.52380952,,,,,,,,,,,,,,,,,,,,,166.8579,167.0733,167.0734,167.5459,,,,,,,,,,,,,,1.4769,1,,,,,,,,,,,,,,m,,,,,,,,,,,,,,,,5,1,167.5465,169.028,m,1,1.4769,,[],[],[],[],[],[],[],169.0282,171.0292,171.0293,176.5498,[],[],[],[],[],[],[],z,176.5499,176.5501,-0.150219298,-0.165570175,0,0,0,,0,4,4,109,1,3,word,GRATEFUL,cursive,grateful_c.png,5.5179,,,,,,
,,,,31856,001,2025-10-19_16h39.51.915,HW_LDT_1,2024.2.4,Win32,59.52380952,,,,,,,,,,,,,,,,,,,,,176.5511,176.75,176.7501,177.2501,,,,,,,,,,,,,,4.7331,0,,,,,,,,,,,,,,m,,,,,,,,,,,,,,,,6,0,177.2508,181.9869,z,0,4.7331,,[],[],[],[],[],[],[],181.987,183.9885,183.9885,183.9894,[],[],[],[],[],[],[],,183.9895,183.9898,-0.150219298,-0.165570175,0,0,0,,0,5,5,126,1,3,word,OPTIMAL,cursive,optimal_c.png,,,,,,,
,,,,31856,001,2025-10-19_16h39.51.915,HW_LDT_1,2024.2.4,Win32,59.52380952,,,,,,,,,,,,,,,,,,,,,183.9913,184.1884,184.1884,184.6889,,,,,,,,,,,,,,1.183,1,,,,,,,,,,,,,,m,,,,,,,,,,,,,,,,7,0,184.6896,185.8736,m,1,1.183,,[],[],[],[],[],[],[],185.8738,187.8741,187.8742,187.8744,[],[],[],[],[],[],[],,187.8744,187.8747,-0.150219298,-0.165570175,0,0,0,,0,6,6,90,1,3,word,CAPITAL,cursive,capital_c.png,,,,,,,
,,,,31856,001,2025-10-19_16h39.51.915,HW_LDT_1,2024.2.4,Win32,59.52380952,,,,,,,,,,,,,,,,,,,,,187.8759,188.0744,188.0745,188.5749,,,,,,,,,,,,,,1.9966,1,,,,,,,,,,,,,,z,,,,,,,,,,,,,,,,8,0,188.576,190.5761,z,1,1.9966,,[],[],[],[],[],[],[],190.5762,192.5777,192.5778,192.578,[],[],[],[],[],[],[],,192.578,192.5782,-0.150219298,-0.165570175,0,0,0,,0,7,7,8,1,3,RL,cocewage,print,cocewage_p.png,,,,,,,
,,,,31856,001,2025-10-19_16h39.51.915,HW_LDT_1,2024.2.4,Win32,59.52380952,,,,,,,,,,,,,,,,,,,,,192.5795,192.7775,192.7775,193.2776,,,,,,,,,,,,,,1.2982,0,,,,,,,,,,,,,,m,,,,,,,,,,,,,,,,9,0,193.2781,194.5788,z,0,1.2982,,[],[],[],[],[],[],[],194.5789,196.5801,196.5801,196.5806,[],[],[],[],[],[],[],,196.5807,196.5808,-0.150219298,-0.165570175,0,0,0,,0,8,8,108,1,3,word,FORTUNE,cursive,fortune_c.png,,,,,,,
,,,,31856,001,2025-10-19_16h39.51.915,HW_LDT_1,2024.2.4,Win32,59.52380952,,,,,,,,,,,,,,,,,,,,,196.5825,196.7805,196.7806,197.2804,,,,,,,,,,,,,,3.6116,1,,,,,,,,,,,,,,z,,,,,,,,,,,,,,,,10,1,197.2809,200.8998,z,1,3.6116,,[],[],[],[],[],[],[],200.8999,202.9013,202.9013,203.9685,[],[],[],[],[],[],[],z,203.9687,203.969,-0.150219298,-0.165570175,0,0,0,,0,9,9,57,1,3,TL,moredate,cursive,moredate_c.png,1.0621,,,,,,
,,,,31856,001,2025-10-19_16h39.51.915,HW_LDT_1,2024.2.4,Win32,59.52380952,,,,,,,,,,,,,,,,,,,,,203.9706,204.1686,204.1686,204.6689,,,,,,,,,,,,,,1.193,0,,,,,,,,,,,,,,z,,,,,,,,,,,,,,,,11,0,204.6696,205.8696,m,0,1.193,,[],[],[],[],[],[],[],205.8697,207.8714,207.8714,207.8715,[],[],[],[],[],[],[],,207.8716,207.8718,-0.150219298,-0.165570175,0,0,0,,0,10,10,77,1,3,TL,vadility,cursive,vadility_c.png,,,,,,,
,,,,31856,001,2025-10-19_16h39.51.915,HW_LDT_1,2024.2.4,Win32,59.52380952,,,,,,,,,,,,,,,,,,,,,207.8732,208.0712,208.0712,208.5716,,,,,,,,,,,,,,4.0022,1,,,,,,,,,,,,,,z,,,,,,,,,,,,,,,,12,0,208.5724,212.5755,z,1,4.0022,,[],[],[],[],[],[],[],212.5756,214.5722,214.5722,214.573,[],[],[],[],[],[],[],,214.5731,214.5732,-0.150219298,-0.165570175,0,0,0,,0,11,11,71,1,3,TL,sanile,cursive,sanile_c.png,,,,,,,
,,,,31856,001,2025-10-19_16h39.51.915,HW_LDT_1,2024.2.4,Win32,59.52380952,,,,,,,,,,,,,,,,,,,,,214.5746,214.7719,214.772,215.276,,,,,,,,,,,,,,0.9971,1,,,,,,,,,,,,,,m,,,,,,,,,,,,,,,,13,1,215.2768,216.2771,m,1,0.9971,,[],[],[],[],[],[],[],216.2772,218.2658,218.2658,219.4921,[],[],[],[],[],[],[],m,219.4922,219.4925,-0.150219298,-0.165570175,0,0,0,,0,12,12,111,1,3,word,INDICATE,print,indicate_p.png,1.2257,,,,,,
,,,,31856,001,2025-10-19_16h39.51.915,HW_LDT_1,2024.2.4,Win32,59.52380952,,,,,,,,,,,,,,,,,,,,,219.4939,219.6958,219.6958,220.1802,,,,,,,,,,,,,,1.3121,1,,,,,,,,,,,,,,m,,,,,,,,,,,,,,,,14,1,220.1809,221.4971,m,1,1.3121,,[],[],[],[],[],[],[],221.4971,223.4985,223.4986,224.9343,[],[],[],[],[],[],[],m,224.9343,224.9345,-0.150219298,-0.165570175,0,0,0,,0,13,13,132,1,3,word,PROPOSAL,print,proposal_p.png,1.4347,,,,,,
,,,,31856,001,2025-10-19_16h39.51.915,HW_LDT_1,2024.2.4,Win32,59.52380952,,,,,,,,,,,,,,,,,,,,,224.936,225.1413,225.1413,225.6335,,,,,,,,,,,,,,1.4981,0,,,,,,,,,,,,,,z,,,,,,,,,,,,,,,,15,0,225.6344,227.1343,m,0,1.4981,,[],[],[],[],[],[],[],227.1344,229.1363,229.1364,229.1371,[],[],[],[],[],[],[],,229.1373,229.1374,-0.150219298,-0.165570175,0,0,0,,0,14,14,30,1,3,RL,strapely,print,strapely_p.png,,,,,,,
,,,,31856,001,2025-10-19_16h39.51.915,HW_LDT_1,2024.2.4,Win32,59.52380952,,,,,,,,,,,,,,,,,,,,,229.1397,229.336,229.3361,229.8362,,,,,,,,,,,,,,1.4579,1,,,,,,,,,,,,,,m,,,,,,,,,,,,,,,,16,0,229.8367,231.2954,m,1,1.4579,,[],[],[],[],[],[],[],231.2955,233.2886,233.2886,233.2888,[],[],[],[],[],[],[],,233.2888,233.2893,-0.150219298,-0.165570175,0,0,0,,0,15,15,158,1,3,word,VELOCITY,cursive,velocity_c.png,,,,,,,
,,,,31856,001,2025-10-19_16h39.51.915,HW_LDT_1,2024.2.4,Win32,59.52380952,,,,,,,,,,,,,,,,,,,,,233.2906,233.4886,233.4887,233.9968,,,,,,,,,,,,,,1.2316,1,,,,,,,,,,,,,,m,,,,,,,,,,,,,,,,17,0,233.9973,235.2297,m,1,1.2316,,[],[],[],[],[],[],[],235.23,237.2252,237.2254,237.226,[],[],[],[],[],[],[],,237.226,237.2261,-0.150219298,-0.165570175,0,0,0,,0,16,16,151,1,3,word,SPECIFIC,print,specific_p.png,,,,,,,
,,,,31856,001,2025-10-19_16h39.51.915,HW_LDT_1,2024.2.4,Win32,59.52380952,,,,,,,,,,,,,,,,,,,,,237.2277,237.4161,237.4161,237.9165,,,,,,,,,,,,,,2.2006,0,,,,,,,,,,,,,,m,,,,,,,,,,,,,,,,18,0,237.9169,240.1184,z,0,2.2006,,[],[],[],[],[],[],[],240.1185,242.1111,242.1113,242.1116,[],[],[],[],[],[],[],,242.1117,242.112,-0.150219298,-0.165570175,0,0,0,,0,17,17,99,1,3,word,DEBATE,cursive,debate_c.png,,,,,,,
,,,,31856,001,2025-10-19_16h39.51.915,HW_LDT_1,2024.2.4,Win32,59.52380952,,,,,,,,,,,,,,,,,,,,,242.1137,242.3175,242.3176,242.8118,,,,,,,,,,,,,,0.8595,1,,,,,,,,,,,,,,m,,,,,,,,,,,,,,,,19,0,242.8131,243.6792,m,1,0.8595,,[],[],[],[],[],[],[],243.6793,245.6891,245.6891,245.6893,[],[],[],[],[],[],[],,245.6894,245.6897,-0.150219298,-0.165570175,0,0,0,,0,18,18,150,1,3,word,SENTIMENT,print,sentiment_p.png,,,,,,,
,,,,31856,001,2025-10-19_16h39.51.915,HW_LDT_1,2024.2.4,Win32,59.52380952,,,,,,,,,,,,,,,,,,,,,245.6913,245.881,245.881,246.3812,,,,,,,,,,,,,,1.473,1,,,,,,,,,,,,,,z,,,,,,,,,,,,,,,,20,0,246.3828,247.8657,z,1,1.473,,[],[],[],[],[],[],[],247.8658,249.8666,249.8667,249.867,[],[],[],[],[],[],[],,249.8671,249.8673,-0.150219298,-0.165570175,0,0,0,,0,19,19,16,1,3,RL,mishafe,cursive,mishafe_c.png,,,,,,,
,,,,31856,001,2025-10-19_16h39.51.915,HW_LDT_1,2024.2.4,Win32,59.52380952,,,,,,,,,,,,,,,,,,,,,249.8693,250.0668,250.067,250.5674,,,,,,,,,,,,,,1.4443,1,,,,,,,,,,,,,,m,,,,,,,,,,,,,,,,21,0,250.5682,252.0181,m,1,1.4443,,[],[],[],[],[],[],[],252.0183,254.0196,254.0196,254.0199,[],[],[],[],[],[],[],,254.02,254.0202,-0.150219298,-0.165570175,0,0,0,,0,20,20,82,1,3,word,AMATEUR,print,amateur_p.png,,,,,,,
,,,,31856,001,2025-10-19_16h39.51.915,HW_LDT_1,2024.2.4,Win32,59.52380952,,,,,,,,,,,,,,,,,,,,,254.0214,254.2194,254.2195,254.7199,,,,,,,,,,,,,,1.2329,1,,,,,,,,,,,,,,z,,,,,,,,,,,,,,,,22,0,254.7205,255.9547,z,1,1.2329,,[],[],[],[],[],[],[],255.9548,257.9554,257.9556,257.9559,[],[],[],[],[],[],[],,257.956,257.9561,-0.150219298,-0.165570175,0,0,0,,0,21,21,5,1,3,RL,capefory,cursive,capefory_c.png,,,,,,,
,,,,31856,001,2025-10-19_16h39.51.915,HW_LDT_1,2024.2.4,Win32,59.52380952,,,,,,,,,,,,,,,,,,,,,257.9577,258.1557,258.1558,258.6559,,,,,,,,,,,,,,2.463,0,,,,,,,,,,,,,,m,,,,,,,,,,,,,,,,23,0,258.6564,261.1206,z,0,2.463,,[],[],[],[],[],[],[],261.1207,263.1221,263.1222,263.1224,[],[],[],[],[],[],[],,263.1225,263.1226,-0.150219298,-0.165570175,0,0,0,,0,22,22,143,1,3,word,REMOVAL,cursive,removal_c.png,,,,,,,
,,,,31856,001,2025-10-19_16h39.51.915,HW_LDT_1,2024.2.4,Win32,59.52380952,,,,,,,,,,,,,,,,,,,,,263.1236,263.3257,263.3258,263.8351,,,,,,,,,,,,,,0.7659,0,,,,,,,,,,,,,,z,,,,,,,,,,,,,,,,24,0,263.8356,264.6104,m,0,0.7659,,[],[],[],[],[],[],[],264.6105,266.6193,266.6194,266.6196,[],[],[],[],[],[],[],,266.6196,266.6197,-0.150219298,-0.165570175,0,0,0,,0,23,23,49,1,3,TL,incidate,print,incidate_p.png,,,,,,,
,,,,31856,001,2025-10-19_16h39.51.915,HW_LDT_1,2024.2.4,Win32,59.52380952,,,,,,,,,,,,,,,,,,,,,266.6209,266.8118,266.8119,267.312,,,,,,,,,,,,,,1.0248,0,,,,,,,,,,,,,,z,,,,,,,,,,,,,,,,25,1,267.3128,268.3385,m,0,1.0248,,[],[],[],[],[],[],[],268.3385,270.3306,270.3308,271.2152,[],[],[],[],[],[],[],m,271.2154,271.2157,-0.150219298,-0.165570175,0,0,0,,0,24,24,45,1,3,TL,dentisy,print,dentisy_p.png,0.8771,,,,,,
,,,,31856,001,2025-10-19_16h39.51.915,HW_LDT_1,2024.2.4,Win32,59.52380952,,,,,,,,,,,,,,,,,,,,,271.2178,271.4149,271.4149,271.9228,,,,,,,,,,,,,,2.1007,1,,,,,,,,,,,,,,z,,,,,,,,,,,,,,,,26,0,271.9234,274.0339,z,1,2.1007,,[],[],[],[],[],[],[],274.0339,276.0342,276.0344,276.0347,[],[],[],[],[],[],[],,276.0347,276.0348,-0.150219298,-0.165570175,0,0,0,,0,25,25,64,1,3,TL,radiply,print,radiply_p.png,,,,,,,
,,,,31856,001,2025-10-19_16h39.51.915,HW_LDT_1,2024.2.4,Win32,59.52380952,,,,,,,,,,,,,,,,,,,,,276.0363,276.2271,276.2272,276.7352,,,,,,,,,,,,,,1.5465,1,,,,,,,,,,,,,,z,,,,,,,,,,,,,,,,27,0,276.7362,278.2861,z,1,1.5465,,[],[],[],[],[],[],[],278.2862,280.2874,280.2874,280.2877,[],[],[],[],[],[],[],,280.2878,280.2879,-0.150219298,-0.165570175,0,0,0,,0,26,26,9,1,3,RL,docirant,print,docirant_p.png,,,,,,,
,,,,31856,001,2025-10-19_16h39.51.915,HW_LDT_1,2024.2.4,Win32,59.52380952,,,,,,,,,,,,,,,,,,,,,280.2892,280.488,280.488,280.9879,,,,,,,,,,,,,,1.7081,1,,,,,,,,,,,,,,z,,,,,,,,,,,,,,,,28,0,280.9887,282.6979,z,1,1.7081,,[],[],[],[],[],[],[],282.698,284.6904,284.6905,284.6909,[],[],[],[],[],[],[],,284.6909,284.691,-0.150219298,-0.165570175,0,0,0,,0,27,27,72,1,3,TL,senmitent,print,senmitent_p.png,,,,,,,
,,,,31856,001,2025-10-19_16h39.51.915,HW_LDT_1,2024.2.4,Win32,59.52380952,,,,,,,,,,,,,,,,,,,,,284.6928,284.8909,284.8909,285.3909,,,,,,,,,,,,,,1.3419,1,,,,,,,,,,,,,,m,,,,,,,,,,,,,,,,29,0,285.3915,286.7421,m,1,1.3419,,[],[],[],[],[],[],[],286.7423,288.7432,288.7433,288.7434,[],[],[],[],[],[],[],,288.7435,288.7436,-0.150219298,-0.165570175,0,0,0,,0,28,28,134,1,3,word,QUALIFY,print,qualify_p.png,,,,,,,
,,,,31856,001,2025-10-19_16h39.51.915,HW_LDT_1,2024.2.4,Win32,59.52380952,,,,,,,,,,,,,,,,,,,,,288.7456,288.9499,288.9499,289.4439,,,,,,,,,,,,,,2.2775,1,,,,,,,,,,,,,,m,,,,,,,,,,,,,,,,30,0,289.445,291.7288,m,1,2.2775,,[],[],[],[],[],[],[],291.729,293.7302,293.7303,293.7306,[],[],[],[],[],[],[],,293.7306,293.7308,-0.150219298,-0.165570175,0,0,0,,0,29,29,125,1,3,word,OPERATOR,print,operator_p.png,,,,,,,
,,,,31856,001,2025-10-19_16h39.51.915,HW_LDT_1,2024.2.4,Win32,59.52380952,,,,,,,,,,,,,,,,,,,,,293.7329,293.93,293.9301,294.4304,,,,,,,,,,,,,,1.1575,1,,,,,,,,,,,,,,z,,,,,,,,,,,,,,,,31,0,294.4314,295.5981,z,1,1.1575,,[],[],[],[],[],[],[],295.5981,297.607,297.6071,297.6073,[],[],[],[],[],[],[],,297.6074,297.6074,-0.150219298,-0.165570175,0,0,0,,0,30,30,23,1,3,RL,quakity,print,quakity_p.png,,,,,,,
,,,,31856,001,2025-10-19_16h39.51.915,HW_LDT_1,2024.2.4,Win32,59.52380952,,,,,,,,,,,,,,,,,,,,,297.6093,297.7995,297.7997,298.2997,,,,,,,,,,,,,,1.0424,1,,,,,,,,,,,,,,z,,,,,,,,,,,,,,,,32,0,298.3006,299.3507,z,1,1.0424,,[],[],[],[],[],[],[],299.3509,301.352,301.3521,301.3524,[],[],[],[],[],[],[],,301.3525,301.3527,-0.150219298,-0.165570175,0,0,0,,0,31,31,12,1,3,RL,formuke,cursive,formuke_c.png,,,,,,,
,,,,31856,001,2025-10-19_16h39.51.915,HW_LDT_1,2024.2.4,Win32,59.52380952,,,,,,,,,,,,,,,,,,,,,301.3546,301.5521,301.5521,302.0523,,,,,,,,,,,,,,2.4987,1,,,,,,,,,,,,,,z,,,,,,,,,,,,,,,,33,0,302.0532,304.554,z,1,2.4987,,[],[],[],[],[],[],[],304.5541,306.5555,306.5556,306.5558,[],[],[],[],[],[],[],,306.5559,306.5562,-0.150219298,-0.165570175,0,0,0,,0,32,32,79,1,3,TL,veretan,cursive,veretan_c.png,,,,,,,
,,,,31856,001,2025-10-19_16h39.51.915,HW_LDT_1,2024.2.4,Win32,59.52380952,,,,,,,,,,,,,,,,,,,,,306.5576,306.7558,306.7559,307.2559,,,,,,,,,,,,,,1.5958,0,,,,,,,,,,,,,,m,,,,,,,,,,,,,,,,34,0,307.2571,308.8572,z,0,1.5958,,[],[],[],[],[],[],[],308.8574,310.8583,310.8583,310.8586,[],[],[],[],[],[],[],,310.8587,310.8589,-0.150219298,-0.165570175,0,0,0,,0,33,33,114,1,3,word,LOCATE,cursive,locate_c.png,,,,,,,
,,,,31856,001,2025-10-19_16h39.51.915,HW_LDT_1,2024.2.4,Win32,59.52380952,,,,,,,,,,,,,,,,,,,,,310.8606,311.0584,311.0586,311.5599,,,,,,,,,,,,,,1.1559,1,,,,,,,,,,,,,,m,,,,,,,,,,,,,,,,35,0,311.5612,312.7265,m,1,1.1559,,[],[],[],[],[],[],[],312.7267,314.7279,314.728,314.7286,[],[],[],[],[],[],[],,314.7287,314.7288,-0.150219298,-0.165570175,0,0,0,,0,34,34,93,1,3,word,CEREMONY,cursive,ceremony_c.png,,,,,,,
,,,,31856,001,2025-10-19_16h39.51.915,HW_LDT_1,2024.2.4,Win32,59.52380952,,,,,,,,,,,,,,,,,,,,,314.7305,314.9279,314.9281,315.428,,,,,,,,,,,,,,0.9409,1,,,,,,,,,,,,,,m,,,,,,,,,,,,,,,,36,0,315.4286,316.3787,m,1,0.9409,,[],[],[],[],[],[],[],316.3789,318.3803,318.3804,318.3809,[],[],[],[],[],[],[],,318.3809,318.3812,-0.150219298,-0.165570175,0,0,0,,0,35,35,142,1,3,word,REMOTE,print,remote_p.png,,,,,,,
,,,,31856,001,2025-10-19_16h39.51.915,HW_LDT_1,2024.2.4,Win32,59.52380952,,,,,,,,,,,,,,,,,,,,,318.3831,318.5803,318.5804,319.0807,,,,,,,,,,,,,,0.8114,1,,,,,,,,,,,,,,z,,,,,,,,,,,,,,,,37,0,319.0815,319.898,z,1,0.8114,,[],[],[],[],[],[],[],319.8981,321.8993,321.8993,321.8997,[],[],[],[],[],[],[],,321.8998,321.8999,-0.150219298,-0.165570175,0,0,0,,0,36,36,10,1,3,RL,efibor,print,efibor_p.png,,,,,,,
,,,,31856,001,2025-10-19_16h39.51.915,HW_LDT_1,2024.2.4,Win32,59.52380952,,,,,,,,,,,,,,,,,,,,,321.9022,322.0993,322.0994,322.6009,,,,,,,,,,,,,,2.5606,0,,,,,,,,,,,,,,m,,,,,,,,,,,,,,,,38,0,322.6017,325.1684,z,0,2.5606,,[],[],[],[],[],[],[],325.1686,327.1696,327.1697,327.1699,[],[],[],[],[],[],[],,327.1699,327.1701,-0.150219298,-0.165570175,0,0,0,,0,37,37,123,1,3,word,MODERATE,cursive,moderate_c.png,,,,,,,
,,,,31856,001,2025-10-19_16h39.51.915,HW_LDT_1,2024.2.4,Win32,59.52380952,,,,,,,,,,,,,,,,,,,,,327.1716,327.3754,327.3755,327.8701,,,,,,,,,,,,,,0.8734,1,,,,,,,,,,,,,,m,,,,,,,,,,,,,,,,39,1,327.871,328.7539,m,1,0.8734,,[],[],[],[],[],[],[],328.7542,330.7558,330.7559,331.89,[],[],[],[],[],[],[],z,331.8902,331.8903,-0.150219298,-0.165570175,0,0,0,,0,38,38,127,1,3,word,ORIGINAL,cursive,original_c.png,1.1249,,,,,,
,,,,31856,001,2025-10-19_16h39.51.915,HW_LDT_1,2024.2.4,Win32,59.52380952,,,,,,,,,,,,,,,,,,,,,331.8918,332.0896,332.0897,332.5816,,,,,,,,,,,,,,2.0696,1,,,,,,,,,,,,,,m,,,,,,,,,,,,,,,,40,0,332.5823,334.6589,m,1,2.0696,,[],[],[],[],[],[],[],334.659,336.6505,336.6506,336.6508,[],[],[],[],[],[],[],,336.6508,336.6509,-0.150219298,-0.165570175,0,0,0,,0,39,39,83,1,3,word,ANIMAL,cursive,animal_c.png,,,,,,,
,,,,31856,001,2025-10-19_16h39.51.915,HW_LDT_1,2024.2.4,Win32,59.52380952,,,,,,,,,,,,,,,,,,,,,336.6522,336.8492,336.8492,337.3432,,,,,,,,,,,,,,2.0746,1,,,,,,,,,,,,,,z,,,,,,,,,,,,,,,,41,0,337.3444,339.4283,z,1,2.0746,,[],[],[],[],[],[],[],339.4284,341.4292,341.4293,341.4294,[],[],[],[],[],[],[],,341.4294,341.4295,-0.150219298,-0.165570175,0,0,0,,0,40,40,56,1,3,TL,meromy,print,meromy_p.png,,,,,,,
,,,,31856,001,2025-10-19_16h39.51.915,HW_LDT_1,2024.2.4,Win32,59.52380952,,,,,,,,,,,,,,,,,,,,,341.4311,341.6392,341.6393,342.1295,,,,,,,,,,,,,,1.4789,1,,,,,,,,,,,,,,z,,,,,,,,,,,,,,,,42,0,342.13,343.614,z,1,1.4789,,[],[],[],[],[],[],[],343.6142,345.6152,345.6152,345.6154,[],[],[],[],[],[],[],,345.6154,345.6155,-0.150219298,-0.165570175,0,0,0,,0,41,41,76,1,3,TL,stogare,cursive,stogare_c.png,,,,,,,
,,,,31856,001,2025-10-19_16h39.51.915,HW_LDT_1,2024.2.4,Win32,59.52380952,,,,,,,,,,,,,,,,,,,,,345.6166,345.8113,345.8114,346.3123,,,,,,,,,,,,,,1.4704,1,,,,,,,,,,,,,,z,,,,,,,,,,,,,,,,43,0,346.3127,347.7839,z,1,1.4704,,[],[],[],[],[],[],[],347.7841,349.7851,349.7851,349.7854,[],[],[],[],[],[],[],,349.7854,349.7855,-0.150219298,-0.165570175,0,0,0,,0,42,42,73,1,3,TL,speficic,print,speficic_p.png,,,,,,,
,,,,31856,001,2025-10-19_16h39.51.915,HW_LDT_1,2024.2.4,Win32,59.52380952,,,,,,,,,,,,,,,,,,,,,349.7869,349.981,349.981,350.4811,,,,,,,,,,,,,,1.3733,1,,,,,,,,,,,,,,m,,,,,,,,,,,,,,,,44,0,350.4817,351.8557,m,1,1.3733,,[],[],[],[],[],[],[],351.8558,353.8545,353.8547,353.8549,[],[],[],[],[],[],[],,353.855,353.8551,-0.150219298,-0.165570175,0,0,0,,0,43,43,118,1,3,word,MEDICINE,print,medicine_p.png,,,,,,,
,,,,31856,001,2025-10-19_16h39.51.915,HW_LDT_1,2024.2.4,Win32,59.52380952,,,,,,,,,,,,,,,,,,,,,353.8563,354.0546,354.0546,354.555,,,,,,,,,,,,,,1.6682,1,,,,,,,,,,,,,,m,,,,,,,,,,,,,,,,45,0,354.5556,356.2245,m,1,1.6682,,[],[],[],[],[],[],[],356.2245,358.2365,358.2365,358.2368,[],[],[],[],[],[],[],,358.2368,358.2369,-0.150219298,-0.165570175,0,0,0,,0,44,44,133,1,3,word,PROVIDE,print,provide_p.png,,,,,,,
,,,,31856,001,2025-10-19_16h39.51.915,HW_LDT_1,2024.2.4,Win32,59.52380952,,,,,,,,,,,,,,,,,,,,,358.238,358.4262,358.4262,358.9412,,,,,,,,,,,,,,0.8791,1,,,,,,,,,,,,,,z,,,,,,,,,,,,,,,,46,0,358.9417,359.8221,z,1,0.8791,,[],[],[],[],[],[],[],359.8222,361.8264,361.8264,361.8265,[],[],[],[],[],[],[],,361.8265,361.8267,-0.150219298,-0.165570175,0,0,0,,0,45,45,3,1,3,RL,bebine,cursive,bebine_c.png,,,,,,,
,,,,31856,001,2025-10-19_16h39.51.915,HW_LDT_1,2024.2.4,Win32,59.52380952,,,,,,,,,,,,,,,,,,,,,361.8279,362.0272,362.0272,362.527,,,,,,,,,,,,,,1.0627,1,,,,,,,,,,,,,,m,,,,,,,,,,,,,,,,47,0,362.5276,363.5945,m,1,1.0627,,[],[],[],[],[],[],[],363.5947,365.5828,365.5829,365.5831,[],[],[],[],[],[],[],,365.5832,365.5833,-0.150219298,-0.165570175,0,0,0,,0,46,46,146,1,3,word,RETIRE,print,retire_p.png,,,,,,,
,,,,31856,001,2025-10-19_16h39.51.915,HW_LDT_1,2024.2.4,Win32,59.52380952,,,,,,,,,,,,,,,,,,,,,365.5848,365.7794,365.7795,366.2918,,,,,,,,,,,,,,0.8508,1,,,,,,,,,,,,,,z,,,,,,,,,,,,,,,,48,0,366.2923,367.1466,z,1,0.8508,,[],[],[],[],[],[],[],367.1467,369.148,369.1481,369.1483,[],[],[],[],[],[],[],,369.1483,369.1484,-0.150219298,-0.165570175,0,0,0,,0,47,47,22,1,3,RL,procogal,print,procogal_p.png,,,,,,,
,,,,31856,001,2025-10-19_16h39.51.915,HW_LDT_1,2024.2.4,Win32,59.52380952,,,,,,,,,,,,,,,,,,,,,369.1494,369.3482,369.3484,369.8489,,,,,,,,,,,,,,1.0286,1,,,,,,,,,,,,,,z,,,,,,,,,,,,,,,,49,0,369.8493,370.8826,z,1,1.0286,,[],[],[],[],[],[],[],370.8827,372.884,372.8842,372.8844,[],[],[],[],[],[],[],,372.8844,372.8845,-0.150219298,-0.165570175,0,0,0,,0,48,48,55,1,3,TL,mecidine,print,mecidine_p.png,,,,,,,
,,,,31856,001,2025-10-19_16h39.51.915,HW_LDT_1,2024.2.4,Win32,59.52380952,,,,,,,,,,,,,,,,,,,,,372.8855,373.0843,373.0844,373.5844,,,,,,,,,,,,,,1.5623,1,,,,,,,,,,,,,,z,,,,,,,,,,,,,,,,50,0,373.5851,375.1523,z,1,1.5623,,[],[],[],[],[],[],[],375.1524,377.1536,377.1536,377.1537,[],[],[],[],[],[],[],,377.1538,377.1539,-0.150219298,-0.165570175,0,0,0,,0,49,49,27,1,3,RL,recile,print,recile_p.png,,,,,,,
,,,,31856,001,2025-10-19_16h39.51.915,HW_LDT_1,2024.2.4,Win32,59.52380952,,,,,,,,,,,,,,,,,,,,,377.1553,377.3503,377.3503,377.8543,,,,,,,,,,,,,,2.0151,0,,,,,,,,,,,,,,m,,,,,,,,,,,,,,,,51,1,377.8551,379.8721,z,0,2.0151,,[],[],[],[],[],[],[],379.8721,381.874,381.8741,382.7739,[],[],[],[],[],[],[],z,382.774,382.7741,-0.150219298,-0.165570175,0,0,0,,0,50,50,117,1,3,word,MARINE,cursive,marine_c.png,0.8987,,,,,,
,,,,31856,001,2025-10-19_16h39.51.915,HW_LDT_1,2024.2.4,Win32,59.52380952,,,,,,,,,,,,,,,,,,,,,382.7754,382.9743,382.9743,383.4748,,,,,,,,,,,,,,1.0789,1,,,,,,,,,,,,,,m,,,,,,,,,,,,,,,,52,0,383.4752,384.5549,m,1,1.0789,,[],[],[],[],[],[],[],384.5549,386.5564,386.5564,386.5567,[],[],[],[],[],[],[],,386.5567,386.5568,-0.150219298,-0.165570175,0,0,0,,0,51,51,148,1,3,word,SALINE,cursive,saline_c.png,,,,,,,
,,,,31856,001,2025-10-19_16h39.51.915,HW_LDT_1,2024.2.4,Win32,59.52380952,,,,,,,,,,,,,,,,,,,,,386.5586,386.7733,386.7733,387.2607,,,,,,,,,,,,,,1.6793,1,,,,,,,,,,,,,,m,,,,,,,,,,,,,,,,53,0,387.2614,388.9459,m,1,1.6793,,[],[],[],[],[],[],[],388.946,390.9421,390.9421,390.9424,[],[],[],[],[],[],[],,390.9424,390.9425,-0.150219298,-0.165570175,0,0,0,,0,52,52,94,1,3,word,CLINICAL,print,clinical_p.png,,,,,,,
,,,,31856,001,2025-10-19_16h39.51.915,HW_LDT_1,2024.2.4,Win32,59.52380952,,,,,,,,,,,,,,,,,,,,,390.9432,391.143,391.1431,391.6428,,,,,,,,,,,,,,1.7171,1,,,,,,,,,,,,,,m,,,,,,,,,,,,,,,,54,0,391.6433,393.361,m,1,1.7171,,[],[],[],[],[],[],[],393.3611,395.3623,395.3623,395.3625,[],[],[],[],[],[],[],,395.3625,395.3627,-0.150219298,-0.165570175,0,0,0,,0,53,53,116,1,3,word,MARGINAL,print,marginal_p.png,,,,,,,
,,,,31856,001,2025-10-19_16h39.51.915,HW_LDT_1,2024.2.4,Win32,59.52380952,,,,,,,,,,,,,,,,,,,,,395.3637,395.5617,395.5617,396.062,,,,,,,,,,,,,,2.2844,1,,,,,,,,,,,,,,m,,,,,,,,,,,,,,,,55,1,396.0625,398.3477,m,1,2.2844,,[],[],[],[],[],[],[],398.3478,400.3489,400.3489,401.1838,[],[],[],[],[],[],[],z,401.1839,401.184,-0.150219298,-0.165570175,0,0,0,,0,54,54,86,1,3,word,BESIDE,cursive,beside_c.png,0.8342,,,,,,
,,,,31856,001,2025-10-19_16h39.51.915,HW_LDT_1,2024.2.4,Win32,59.52380952,,,,,,,,,,,,,,,,,,,,,401.1847,401.3828,401.3828,401.8832,,,,,,,,,,,,,,1.1587,1,,,,,,,,,,,,,,z,,,,,,,,,,,,,,,,56,1,401.8845,403.0443,z,1,1.1587,,[],[],[],[],[],[],[],403.0444,405.0474,405.0476,405.9402,[],[],[],[],[],[],[],z,405.9402,405.9405,-0.150219298,-0.165570175,0,0,0,,0,55,55,66,1,3,TL,retalive,cursive,retalive_c.png,0.8886,,,,,,
,,,,31856,001,2025-10-19_16h39.51.915,HW_LDT_1,2024.2.4,Win32,59.52380952,,,,,,,,,,,,,,,,,,,,,405.9417,406.1318,406.1318,406.6412,,,,,,,,,,,,,,1.3414,1,,,,,,,,,,,,,,m,,,,,,,,,,,,,,,,57,0,406.642,407.9842,m,1,1.3414,,[],[],[],[],[],[],[],407.9842,409.9758,409.9759,409.9763,[],[],[],[],[],[],[],,409.9763,409.9764,-0.150219298,-0.165570175,0,0,0,,0,56,56,103,1,3,word,DISPUTE,print,dispute_p.png,,,,,,,
,,,,31856,001,2025-10-19_16h39.51.915,HW_LDT_1,2024.2.4,Win32,59.52380952,,,,,,,,,,,,,,,,,,,,,409.9776,410.1723,410.1723,410.6675,,,,,,,,,,,,,,1.2034,1,,,,,,,,,,,,,,z,,,,,,,,,,,,,,,,58,0,410.668,411.8777,z,1,1.2034,,[],[],[],[],[],[],[],411.8777,413.8791,413.8792,413.8795,[],[],[],[],[],[],[],,413.8797,413.8799,-0.150219298,-0.165570175,0,0,0,,0,57,57,15,1,3,RL,mifikary,cursive,mifikary_c.png,,,,,,,
,,,,31856,001,2025-10-19_16h39.51.915,HW_LDT_1,2024.2.4,Win32,59.52380952,,,,,,,,,,,,,,,,,,,,,413.8813,414.0791,414.0792,414.5797,,,,,,,,,,,,,,1.3048,1,,,,,,,,,,,,,,m,,,,,,,,,,,,,,,,59,0,414.5805,415.8862,m,1,1.3048,,[],[],[],[],[],[],[],415.8862,417.8902,417.8902,417.8903,[],[],[],[],[],[],[],,417.8904,417.8904,-0.150219298,-0.165570175,0,0,0,,0,58,58,131,1,3,word,POPULAR,print,popular_p.png,,,,,,,
,,,,31856,001,2025-10-19_16h39.51.915,HW_LDT_1,2024.2.4,Win32,59.52380952,,,,,,,,,,,,,,,,,,,,,417.8913,418.0817,418.0817,418.5823,,,,,,,,,,,,,,1.48,0,,,,,,,,,,,,,,m,,,,,,,,,,,,,,,,60,1,418.5829,420.0667,z,0,1.48,,[],[],[],[],[],[],[],420.0669,422.0756,422.0756,426.5209,[],[],[],[],[],[],[],z,426.521,426.521,-0.150219298,-0.165570175,0,0,0,,0,59,59,121,1,3,word,MISTAKE,cursive,mistake_c.png,4.4405,,,,,,
,,,,31856,001,2025-10-19_16h39.51.915,HW_LDT_1,2024.2.4,Win32,59.52380952,,,,,,,,,,,,,,,,,,,,,426.5224,426.7119,426.7121,427.2133,,,,,,,,,,,,,,1.8066,1,,,,,,,,,,,,,,m,,,,,,,,,,,,,,,,61,0,427.215,429.0225,m,1,1.8066,,[],[],[],[],[],[],[],429.0226,431.0239,431.0239,431.024,[],[],[],[],[],[],[],,431.024,431.0241,-0.150219298,-0.165570175,0,0,0,,0,60,60,106,1,3,word,ELABORATE,print,elaborate_p.png,,,,,,,
,,,,31856,001,2025-10-19_16h39.51.915,HW_LDT_1,2024.2.4,Win32,59.52380952,,,,,,,,,,,,,,,,,,,,,431.0253,431.2238,431.2239,431.7242,,,,,,,,,,,,,,1.0296,1,,,,,,,,,,,,,,m,,,,,,,,,,,,,,,,62,1,431.7248,432.7552,m,1,1.0296,,[],[],[],[],[],[],[],432.7553,434.7554,434.7554,435.8103,[],[],[],[],[],[],[],m,435.8104,435.8104,-0.150219298,-0.165570175,0,0,0,,0,61,61,91,1,3,word,CARDINAL,print,cardinal_p.png,1.0517,,,,,,
,,,,31856,001,2025-10-19_16h39.51.915,HW_LDT_1,2024.2.4,Win32,59.52380952,,,,,,,,,,,,,,,,,,,,,435.8116,436.0075,436.0075,436.5109,,,,,,,,,,,,,,1.4328,1,,,,,,,,,,,,,,z,,,,,,,,,,,,,,,,63,0,436.5113,437.9452,z,1,1.4328,,[],[],[],[],[],[],[],437.9453,439.9465,439.9466,439.9468,[],[],[],[],[],[],[],,439.9469,439.9469,-0.150219298,-0.165570175,0,0,0,,0,62,62,40,1,3,TL,condiser,print,condiser_p.png,,,,,,,
,,,,31856,001,2025-10-19_16h39.51.915,HW_LDT_1,2024.2.4,Win32,59.52380952,,,,,,,,,,,,,,,,,,,,,439.9481,440.1469,440.147,440.6429,,,,,,,,,,,,,,1.2172,1,,,,,,,,,,,,,,z,,,,,,,,,,,,,,,,64,0,440.6434,441.8618,z,1,1.2172,,[],[],[],[],[],[],[],441.8621,443.866,443.8661,443.8662,[],[],[],[],[],[],[],,443.8663,443.8664,-0.150219298,-0.165570175,0,0,0,,0,63,63,50,1,3,TL,lirebal,print,lirebal_p.png,,,,,,,
,,,,31856,001,2025-10-19_16h39.51.915,HW_LDT_1,2024.2.4,Win32,59.52380952,,,,,,,,,,,,,,,,,,,,,443.8677,444.0794,444.0794,444.5667,,,,,,,,,,,,,,1.6802,1,,,,,,,,,,,,,,z,,,,,,,,,,,,,,,,65,0,444.5671,446.2511,z,1,1.6802,,[],[],[],[],[],[],[],446.2511,448.2523,448.2524,448.2526,[],[],[],[],[],[],[],,448.2526,448.2527,-0.150219298,-0.165570175,0,0,0,,0,64,64,65,1,3,TL,resufal,print,resufal_p.png,,,,,,,
,,,,31856,001,2025-10-19_16h39.51.915,HW_LDT_1,2024.2.4,Win32,59.52380952,,,,,,,,,,,,,,,,,,,,,448.2537,448.4526,448.4527,448.9527,,,,,,,,,,,,,,1.8486,1,,,,,,,,,,,,,,m,,,,,,,,,,,,,,,,66,0,448.9532,450.804,m,1,1.8486,,[],[],[],[],[],[],[],450.8041,452.8053,452.8054,452.8056,[],[],[],[],[],[],[],,452.8057,452.8057,-0.150219298,-0.165570175,0,0,0,,0,65,65,152,1,3,word,SPECIMEN,print,specimen_p.png,,,,,,,
,,,,31856,001,2025-10-19_16h39.51.915,HW_LDT_1,2024.2.4,Win32,59.52380952,,,,,,,,,,,,,,,,,,,,,452.807,453.0055,453.0056,453.5057,,,,,,,,,,,,,,1.6156,0,,,,,,,,,,,,,,m,,,,,,,,,,,,,,,,67,0,453.5062,455.1235,z,0,1.6156,,[],[],[],[],[],[],[],455.1235,457.1249,457.125,457.1251,[],[],[],[],[],[],[],,457.1252,457.1253,-0.150219298,-0.165570175,0,0,0,,0,66,66,110,1,3,word,HERITAGE,cursive,heritage_c.png,,,,,,,
,,,,31856,001,2025-10-19_16h39.51.915,HW_LDT_1,2024.2.4,Win32,59.52380952,,,,,,,,,,,,,,,,,,,,,457.1264,457.325,457.325,457.8254,,,,,,,,,,,,,,3.3306,1,,,,,,,,,,,,,,z,,,,,,,,,,,,,,,,68,0,457.8258,461.1612,z,1,3.3306,,[],[],[],[],[],[],[],461.1612,463.1626,463.1626,463.1628,[],[],[],[],[],[],[],,463.1628,463.1629,-0.150219298,-0.165570175,0,0,0,,0,67,67,70,1,3,TL,remuse,cursive,remuse_c.png,,,,,,,
,,,,31856,001,2025-10-19_16h39.51.915,HW_LDT_1,2024.2.4,Win32,59.52380952,,,,,,,,,,,,,,,,,,,,,463.1638,463.3627,463.3627,463.8631,,,,,,,,,,,,,,1.7485,1,,,,,,,,,,,,,,m,,,,,,,,,,,,,,,,69,0,463.8636,465.6142,m,1,1.7485,,[],[],[],[],[],[],[],465.6143,467.6154,467.6155,467.6157,[],[],[],[],[],[],[],,467.6157,467.6159,-0.150219298,-0.165570175,0,0,0,,0,68,68,97,1,3,word,COVERAGE,print,coverage_p.png,,,,,,,
,,,,31856,001,2025-10-19_16h39.51.915,HW_LDT_1,2024.2.4,Win32,59.52380952,,,,,,,,,,,,,,,,,,,,,467.617,467.8162,467.8162,468.3292,,,,,,,,,,,,,,1.4669,1,,,,,,,,,,,,,,z,,,,,,,,,,,,,,,,70,0,468.3296,469.8006,z,1,1.4669,,[],[],[],[],[],[],[],469.8006,471.8019,471.8019,471.8021,[],[],[],[],[],[],[],,471.8021,471.8023,-0.150219298,-0.165570175,0,0,0,,0,69,69,1,1,3,RL,bewoted,cursive,bewoted_c.png,,,,,,,
,,,,31856,001,2025-10-19_16h39.51.915,HW_LDT_1,2024.2.4,Win32,59.52380952,,,,,,,,,,,,,,,,,,,,,471.8034,472.0017,472.0017,472.5023,,,,,,,,,,,,,,1.4815,1,,,,,,,,,,,,,,z,,,,,,,,,,,,,,,,71,0,472.5028,473.9867,z,1,1.4815,,[],[],[],[],[],[],[],473.9868,475.9882,475.9882,475.9884,[],[],[],[],[],[],[],,475.9884,475.9885,-0.150219298,-0.165570175,0,0,0,,0,70,70,17,1,3,RL,motide,cursive,motide_c.png,,,,,,,
,,,,31856,001,2025-10-19_16h39.51.915,HW_LDT_1,2024.2.4,Win32,59.52380952,,,,,,,,,,,,,,,,,,,,,475.9901,476.188,476.188,476.6851,,,,,,,,,,,,,,7.0868,1,,,,,,,,,,,,,,z,,,,,,,,,,,,,,,,72,0,476.6855,483.7766,z,1,7.0868,,[],[],[],[],[],[],[],483.7766,485.7783,485.7784,485.7786,[],[],[],[],[],[],[],,485.7786,485.7788,-0.150219298,-0.165570175,0,0,0,,0,71,71,68,1,3,TL,revomal,cursive,revomal_c.png,,,,,,,
,,,,31856,001,2025-10-19_16h39.51.915,HW_LDT_1,2024.2.4,Win32,59.52380952,,,,,,,,,,,,,,,,,,,,,485.7803,485.9781,485.9781,486.4918,,,,,,,,,,,,,,1.4733,1,,,,,,,,,,,,,,z,,,,,,,,,,,,,,,,73,0,486.4923,487.9666,z,1,1.4733,,[],[],[],[],[],[],[],487.9667,489.9642,489.9642,489.9643,[],[],[],[],[],[],[],,489.9644,489.9646,-0.150219298,-0.165570175,0,0,0,,0,72,72,44,1,3,TL,decilate,print,decilate_p.png,,,,,,,
,,,,31856,001,2025-10-19_16h39.51.915,HW_LDT_1,2024.2.4,Win32,59.52380952,,,,,,,,,,,,,,,,,,,,,489.9657,490.1606,490.1607,490.6613,,,,,,,,,,,,,,1.3991,0,,,,,,,,,,,,,,m,,,,,,,,,,,,,,,,74,0,490.6625,492.0657,z,0,1.3991,,[],[],[],[],[],[],[],492.0658,494.0613,494.0613,494.0616,[],[],[],[],[],[],[],,494.0617,494.0618,-0.150219298,-0.165570175,0,0,0,,0,73,73,149,1,3,word,SENATOR,cursive,senator_c.png,,,,,,,
,,,,31856,001,2025-10-19_16h39.51.915,HW_LDT_1,2024.2.4,Win32,59.52380952,,,,,,,,,,,,,,,,,,,,,494.063,494.2505,494.2506,494.7507,,,,,,,,,,,,,,1.115,1,,,,,,,,,,,,,,m,,,,,,,,,,,,,,,,75,0,494.7511,495.8683,m,1,1.115,,[],[],[],[],[],[],[],495.8683,497.8815,497.8815,497.8817,[],[],[],[],[],[],[],,497.8817,497.8818,-0.150219298,-0.165570175,0,0,0,,0,74,74,115,1,3,word,LOGICAL,cursive,logical_c.png,,,,,,,
,,,,31856,001,2025-10-19_16h39.51.915,HW_LDT_1,2024.2.4,Win32,59.52380952,,,,,,,,,,,,,,,,,,,,,497.8827,498.0696,498.0696,498.5827,,,,,,,,,,,,,,1.6322,1,,,,,,,,,,,,,,z,,,,,,,,,,,,,,,,76,0,498.5831,500.2159,z,1,1.6322,,[],[],[],[],[],[],[],500.2161,502.2061,502.2061,502.2065,[],[],[],[],[],[],[],,502.2065,502.2069,-0.150219298,-0.165570175,0,0,0,,0,75,75,42,1,3,TL,detabe,cursive,detabe_c.png,,,,,,,
,,,,31856,001,2025-10-19_16h39.51.915,HW_LDT_1,2024.2.4,Win32,59.52380952,,,,,,,,,,,,,,,,,,,,,502.2084,502.406,502.4061,502.919,,,,,,,,,,,,,,1.9169,1,,,,,,,,,,,,,,m,,,,,,,,,,,,,,,,77,0,502.9193,504.8374,m,1,1.9169,,[],[],[],[],[],[],[],504.8376,506.8255,506.8255,506.8257,[],[],[],[],[],[],[],,506.8258,506.8259,-0.150219298,-0.165570175,0,0,0,,0,76,76,124,1,3,word,NUMERICAL,print,numerical_p.png,,,,,,,
,,,,31856,001,2025-10-19_16h39.51.915,HW_LDT_1,2024.2.4,Win32,59.52380952,,,,,,,,,,,,,,,,,,,,,506.827,507.0259,507.026,507.5264,,,,,,,,,,,,,,0.9788,1,,,,,,,,,,,,,,m,,,,,,,,,,,,,,,,78,0,507.5269,508.5105,m,1,0.9788,,[],[],[],[],[],[],[],508.5107,510.5117,510.5118,510.5119,[],[],[],[],[],[],[],,510.5119,510.5121,-0.150219298,-0.165570175,0,0,0,,0,77,77,104,1,3,word,DOMINANT,print,dominant_p.png,,,,,,,
,,,,31856,001,2025-10-19_16h39.51.915,HW_LDT_1,2024.2.4,Win32,59.52380952,,,,,,,,,,,,,,,,,,,,,510.5138,510.7118,510.7119,511.2082,,,,,,,,,,,,,,1.5165,1,,,,,,,,,,,,,,m,,,,,,,,,,,,,,,,79,0,511.2087,512.73,m,1,1.5165,,[],[],[],[],[],[],[],512.73,514.7312,514.7313,514.7319,[],[],[],[],[],[],[],,514.7319,514.7324,-0.150219298,-0.165570175,0,0,0,,0,78,78,107,1,3,word,EVIDENT,cursive,evident_c.png,,,,,,,
,,,,31856,001,2025-10-19_16h39.51.915,HW_LDT_1,2024.2.4,Win32,59.52380952,,,,,,,,,,,,,,,,,,,,,514.734,514.9314,514.9314,515.4319,,,,,,,,,,,,,,1.24,1,,,,,,,,,,,,,,z,,,,,,,,,,,,,,,,80,0,515.4327,516.6827,z,1,1.24,,[],[],[],[],[],[],[],516.6829,518.6843,518.6844,518.6848,[],[],[],[],[],[],[],,518.6849,713.7513,-0.574561404,0.029605263,0,0,0,space,0,79,79,51,1,3,TL,liretal,print,liretal_p.png,,,,195.0351,,,
,,,,31856,001,2025-10-19_16h39.51.915,HW_LDT_1,2024.2.4,Win32,59.52380952,,,,,,,,,,,,,,,,,,,,,713.7531,713.9512,713.9513,714.4515,,,,,,,,,,,,,,3.0666,1,,,,,,,,,,,,,,m,,,,,,,,,,,,,,,,81,0,714.4521,717.52,m,1,3.0666,,[],[],[],[],[],[],[],717.5202,719.5216,719.5216,719.5218,[],[],[],[],[],[],[],,719.5219,719.5219,-0.574561404,0.029605263,0,0,0,,0,80,80,112,1,3,word,LIBERAL,print,liberal_p.png,,,,,,,
,,,,31856,001,2025-10-19_16h39.51.915,HW_LDT_1,2024.2.4,Win32,59.52380952,,,,,,,,,,,,,,,,,,,,,719.5233,719.7217,719.7218,720.2219,,,,,,,,,,,,,,1.2791,1,,,,,,,,,,,,,,m,,,,,,,,,,,,,,,,82,1,720.2224,721.5059,m,1,1.2791,,[],[],[],[],[],[],[],721.5061,723.5075,723.5075,724.5084,[],[],[],[],[],[],[],z,724.5085,724.5087,-0.574561404,0.029605263,0,0,0,,0,81,81,89,1,3,word,CAPACITY,cursive,capacity_c.png,0.9968,,,,,,
,,,,31856,001,2025-10-19_16h39.51.915,HW_LDT_1,2024.2.4,Win32,59.52380952,,,,,,,,,,,,,,,,,,,,,724.5099,724.7083,724.7083,725.209,,,,,,,,,,,,,,1.1305,1,,,,,,,,,,,,,,m,,,,,,,,,,,,,,,,83,0,725.2095,726.3429,m,1,1.1305,,[],[],[],[],[],[],[],726.343,728.3449,728.345,728.3452,[],[],[],[],[],[],[],,728.3452,728.3452,-0.574561404,0.029605263,0,0,0,,0,82,82,130,1,3,word,POLICY,print,policy_p.png,,,,,,,
,,,,31856,001,2025-10-19_16h39.51.915,HW_LDT_1,2024.2.4,Win32,59.52380952,,,,,,,,,,,,,,,,,,,,,728.3464,728.5442,728.5442,729.0447,,,,,,,,,,,,,,2.6651,1,,,,,,,,,,,,,,m,,,,,,,,,,,,,,,,84,0,729.0452,731.7135,m,1,2.6651,,[],[],[],[],[],[],[],731.7136,733.7144,733.7144,733.7147,[],[],[],[],[],[],[],,733.7148,733.7148,-0.574561404,0.029605263,0,0,0,,0,83,83,145,1,3,word,RESUME,cursive,resume_c.png,,,,,,,
,,,,31856,001,2025-10-19_16h39.51.915,HW_LDT_1,2024.2.4,Win32,59.52380952,,,,,,,,,,,,,,,,,,,,,733.7158,733.9185,733.9185,734.4153,,,,,,,,,,,,,,2.2787,1,,,,,,,,,,,,,,m,,,,,,,,,,,,,,,,85,0,734.4162,736.7002,m,1,2.2787,,[],[],[],[],[],[],[],736.7003,738.7014,738.7015,738.7016,[],[],[],[],[],[],[],,738.7017,738.7018,-0.574561404,0.029605263,0,0,0,,0,84,84,84,1,3,word,BELOVED,cursive,beloved_c.png,,,,,,,
,,,,31856,001,2025-10-19_16h39.51.915,HW_LDT_1,2024.2.4,Win32,59.52380952,,,,,,,,,,,,,,,,,,,,,738.7036,738.9014,738.9015,739.4018,,,,,,,,,,,,,,1.2122,1,,,,,,,,,,,,,,m,,,,,,,,,,,,,,,,86,0,739.4024,740.6191,m,1,1.2122,,[],[],[],[],[],[],[],740.6192,742.6205,742.6206,742.6207,[],[],[],[],[],[],[],,742.6208,742.6209,-0.574561404,0.029605263,0,0,0,,0,85,85,87,1,3,word,CAFETERIA,print,cafeteria_p.png,,,,,,,
,,,,31856,001,2025-10-19_16h39.51.915,HW_LDT_1,2024.2.4,Win32,59.52380952,,,,,,,,,,,,,,,,,,,,,742.622,742.821,742.821,743.3212,,,,,,,,,,,,,,1.198,1,,,,,,,,,,,,,,z,,,,,,,,,,,,,,,,87,0,743.3217,744.522,z,1,1.198,,[],[],[],[],[],[],[],744.5221,746.5234,746.5234,746.5237,[],[],[],[],[],[],[],,746.5238,746.5239,-0.574561404,0.029605263,0,0,0,,0,86,86,38,1,3,TL,carnidal,print,carnidal_p.png,,,,,,,
,,,,31856,001,2025-10-19_16h39.51.915,HW_LDT_1,2024.2.4,Win32,59.52380952,,,,,,,,,,,,,,,,,,,,,746.5255,746.7236,746.7236,747.2239,,,,,,,,,,,,,,1.0953,1,,,,,,,,,,,,,,z,,,,,,,,,,,,,,,,88,0,747.2247,748.3244,z,1,1.0953,,[],[],[],[],[],[],[],748.3244,750.326,750.326,750.3262,[],[],[],[],[],[],[],,750.3263,750.3263,-0.574561404,0.029605263,0,0,0,,0,87,87,74,1,3,TL,spemicen,print,spemicen_p.png,,,,,,,
,,,,31856,001,2025-10-19_16h39.51.915,HW_LDT_1,2024.2.4,Win32,59.52380952,,,,,,,,,,,,,,,,,,,,,750.3275,750.5263,750.5263,751.0263,,,,,,,,,,,,,,1.0819,1,,,,,,,,,,,,,,z,,,,,,,,,,,,,,,,89,0,751.0267,752.1103,z,1,1.0819,,[],[],[],[],[],[],[],752.1104,754.1119,754.112,754.1122,[],[],[],[],[],[],[],,754.1122,754.1123,-0.574561404,0.029605263,0,0,0,,0,88,88,24,1,3,RL,quafidy,print,quafidy_p.png,,,,,,,
,,,,31856,001,2025-10-19_16h39.51.915,HW_LDT_1,2024.2.4,Win32,59.52380952,,,,,,,,,,,,,,,,,,,,,754.1133,754.312,754.312,754.8123,,,,,,,,,,,,,,2.1471,1,,,,,,,,,,,,,,m,,,,,,,,,,,,,,,,90,0,754.8128,756.9641,m,1,2.1471,,[],[],[],[],[],[],[],756.9641,758.9746,758.9746,758.9748,[],[],[],[],[],[],[],,758.9749,758.975,-0.574561404,0.029605263,0,0,0,,0,89,89,154,1,3,word,STORAGE,cursive,storage_c.png,,,,,,,
,,,,31856,001,2025-10-19_16h39.51.915,HW_LDT_1,2024.2.4,Win32,59.52380952,,,,,,,,,,,,,,,,,,,,,758.9763,759.1651,759.1651,759.6657,,,,,,,,,,,,,,2.4153,1,,,,,,,,,,,,,,z,,,,,,,,,,,,,,,,91,1,759.6662,762.0843,z,1,2.4153,,[],[],[],[],[],[],[],762.0844,764.0858,764.0858,764.9825,[],[],[],[],[],[],[],z,764.9825,764.9826,-0.574561404,0.029605263,0,0,0,,0,90,90,43,1,3,TL,dedace,cursive,dedace_c.png,0.896,,,,,,
,,,,31856,001,2025-10-19_16h39.51.915,HW_LDT_1,2024.2.4,Win32,59.52380952,,,,,,,,,,,,,,,,,,,,,764.9835,765.1723,765.1724,765.6871,,,,,,,,,,,,,,1.4465,1,,,,,,,,,,,,,,m,,,,,,,,,,,,,,,,92,0,765.6877,767.138,m,1,1.4465,,[],[],[],[],[],[],[],767.1381,769.1397,769.1397,769.1399,[],[],[],[],[],[],[],,769.1399,769.1401,-0.574561404,0.029605263,0,0,0,,0,91,91,138,1,3,word,REFUSAL,print,refusal_p.png,,,,,,,
,,,,31856,001,2025-10-19_16h39.51.915,HW_LDT_1,2024.2.4,Win32,59.52380952,,,,,,,,,,,,,,,,,,,,,769.1414,769.3388,769.3388,769.833,,,,,,,,,,,,,,3.7036,1,,,,,,,,,,,,,,z,,,,,,,,,,,,,,,,93,0,769.8338,773.5388,z,1,3.7036,,[],[],[],[],[],[],[],773.5389,775.5436,775.5437,775.5441,[],[],[],[],[],[],[],,775.5441,775.5444,-0.574561404,0.029605263,0,0,0,,0,92,92,20,1,3,RL,orimipal,cursive,orimipal_c.png,,,,,,,
,,,,31856,001,2025-10-19_16h39.51.915,HW_LDT_1,2024.2.4,Win32,59.52380952,,,,,,,,,,,,,,,,,,,,,775.546,775.7434,775.7435,776.2564,,,,,,,,,,,,,,1.8172,1,,,,,,,,,,,,,,z,,,,,,,,,,,,,,,,94,0,776.2568,778.0746,z,1,1.8172,,[],[],[],[],[],[],[],778.0749,780.063,780.0631,780.0633,[],[],[],[],[],[],[],,780.0634,780.0637,-0.574561404,0.029605263,0,0,0,,0,93,93,13,1,3,RL,helicage,cursive,helicage_c.png,,,,,,,
,,,,31856,001,2025-10-19_16h39.51.915,HW_LDT_1,2024.2.4,Win32,59.52380952,,,,,,,,,,,,,,,,,,,,,780.0653,780.263,780.263,780.777,,,,,,,,,,,,,,1.1989,1,,,,,,,,,,,,,,m,,,,,,,,,,,,,,,,95,0,780.7779,781.9813,m,1,1.1989,,[],[],[],[],[],[],[],781.9814,783.9785,783.9785,783.9787,[],[],[],[],[],[],[],,783.9788,783.9789,-0.574561404,0.029605263,0,0,0,,0,94,94,113,1,3,word,LITERAL,print,literal_p.png,,,,,,,
,,,,31856,001,2025-10-19_16h39.51.915,HW_LDT_1,2024.2.4,Win32,59.52380952,,,,,,,,,,,,,,,,,,,,,783.98,784.169,784.169,784.6787,,,,,,,,,,,,,,1.3062,1,,,,,,,,,,,,,,m,,,,,,,,,,,,,,,,96,0,784.6791,785.9863,m,1,1.3062,,[],[],[],[],[],[],[],785.9863,787.9977,787.9978,787.9979,[],[],[],[],[],[],[],,787.9979,787.9979,-0.574561404,0.029605263,0,0,0,,0,95,95,85,1,3,word,BENEFIT,print,benefit_p.png,,,,,,,
,,,,31856,001,2025-10-19_16h39.51.915,HW_LDT_1,2024.2.4,Win32,59.52380952,,,,,,,,,,,,,,,,,,,,,787.999,788.198,788.1981,788.6977,,,,,,,,,,,,,,4.3049,1,,,,,,,,,,,,,,m,,,,,,,,,,,,,,,,97,0,788.6981,793.005,m,1,4.3049,,[],[],[],[],[],[],[],793.0051,795.0063,795.0065,795.0067,[],[],[],[],[],[],[],,795.0068,795.0069,-0.574561404,0.029605263,0,0,0,,0,96,96,147,1,3,word,ROMANTIC,cursive,romantic_c.png,,,,,,,
,,,,31856,001,2025-10-19_16h39.51.915,HW_LDT_1,2024.2.4,Win32,59.52380952,,,,,,,,,,,,,,,,,,,,,795.0081,795.2034,795.2034,795.707,,,,,,,,,,,,,,1.6464,0,,,,,,,,,,,,,,z,,,,,,,,,,,,,,,,98,1,795.7075,797.3545,m,0,1.6464,,[],[],[],[],[],[],[],797.3545,799.3577,799.3578,800.6287,[],[],[],[],[],[],[],z,800.6288,800.6292,-0.574561404,0.029605263,0,0,0,,0,97,97,47,1,3,TL,elarobate,print,elarobate_p.png,1.2702,,,,,,
,,,,31856,001,2025-10-19_16h39.51.915,HW_LDT_1,2024.2.4,Win32,59.52380952,,,,,,,,,,,,,,,,,,,,,800.6312,800.8278,800.8278,801.3406,,,,,,,,,,,,,,1.2325,1,,,,,,,,,,,,,,m,,,,,,,,,,,,,,,,99,0,801.3412,802.5788,m,1,1.2325,,[],[],[],[],[],[],[],802.5789,804.5751,804.5751,804.5752,[],[],[],[],[],[],[],,804.5752,804.5753,-0.574561404,0.029605263,0,0,0,,0,98,98,122,1,3,word,MOBILE,cursive,mobile_c.png,,,,,,,
,,,,31856,001,2025-10-19_16h39.51.915,HW_LDT_1,2024.2.4,Win32,59.52380952,,,,,,,,,,,,,,,,,,,,,804.5761,804.7641,804.7642,805.2636,,,,,,,,,,,,,,1.3949,1,,,,,,,,,,,,,,z,,,,,,,,,,,,,,,,100,0,805.2642,806.6597,z,1,1.3949,,[],[],[],[],[],[],[],806.6597,808.6623,808.6623,808.6625,[],[],[],[],[],[],[],,808.6625,808.6626,-0.574561404,0.029605263,0,0,0,,0,99,99,33,1,3,TL,adsivory,print,adsivory_p.png,,,,,,,
,,,,31856,001,2025-10-19_16h39.51.915,HW_LDT_1,2024.2.4,Win32,59.52380952,,,,,,,,,,,,,,,,,,,,,808.6636,808.8512,808.8513,809.3517,,,,,,,,,,,,,,3.9952,1,,,,,,,,,,,,,,m,,,,,,,,,,,,,,,,101,0,809.3524,813.3524,m,1,3.9952,,[],[],[],[],[],[],[],813.3525,815.3538,815.3538,815.354,[],[],[],[],[],[],[],,815.3541,815.3541,-0.574561404,0.029605263,0,0,0,,0,100,100,88,1,3,word,CAMERA,cursive,camera_c.png,,,,,,,
,,,,31856,001,2025-10-19_16h39.51.915,HW_LDT_1,2024.2.4,Win32,59.52380952,,,,,,,,,,,,,,,,,,,,,815.3553,815.5539,815.5539,816.0543,,,,,,,,,,,,,,3.1309,1,,,,,,,,,,,,,,m,,,,,,,,,,,,,,,,102,1,816.0547,819.1896,m,1,3.1309,,[],[],[],[],[],[],[],819.1897,821.1914,821.1915,822.0918,[],[],[],[],[],[],[],z,822.0918,822.092,-0.574561404,0.029605263,0,0,0,,0,101,101,140,1,3,word,RELATIVE,cursive,relative_c.png,0.8981,,,,,,
,,,,31856,001,2025-10-19_16h39.51.915,HW_LDT_1,2024.2.4,Win32,59.52380952,,,,,,,,,,,,,,,,,,,,,822.0935,822.2918,822.2919,822.7922,,,,,,,,,,,,,,1.5127,1,,,,,,,,,,,,,,z,,,,,,,,,,,,,,,,103,0,822.7929,824.3099,z,1,1.5127,,[],[],[],[],[],[],[],824.31,826.3114,826.3114,826.3116,[],[],[],[],[],[],[],,826.3116,826.3117,-0.574561404,0.029605263,0,0,0,,0,102,102,46,1,3,TL,distupe,print,distupe_p.png,,,,,,,
,,,,31856,001,2025-10-19_16h39.51.915,HW_LDT_1,2024.2.4,Win32,59.52380952,,,,,,,,,,,,,,,,,,,,,826.3127,826.5115,826.5115,827.0122,,,,,,,,,,,,,,1.2117,1,,,,,,,,,,,,,,z,,,,,,,,,,,,,,,,104,0,827.0132,828.2295,z,1,1.2117,,[],[],[],[],[],[],[],828.2296,830.2307,830.2308,830.231,[],[],[],[],[],[],[],,830.2311,830.2312,-0.574561404,0.029605263,0,0,0,,0,103,103,0,1,3,RL,afaneur,print,afaneur_p.png,,,,,,,
,,,,31856,001,2025-10-19_16h39.51.915,HW_LDT_1,2024.2.4,Win32,59.52380952,,,,,,,,,,,,,,,,,,,,,830.2322,830.4307,830.4307,830.9311,,,,,,,,,,,,,,1.2462,1,,,,,,,,,,,,,,z,,,,,,,,,,,,,,,,105,0,830.9316,832.182,z,1,1.2462,,[],[],[],[],[],[],[],832.1821,834.1834,834.1834,834.1837,[],[],[],[],[],[],[],,834.1837,834.1838,-0.574561404,0.029605263,0,0,0,,0,104,104,60,1,3,TL,panert,print,panert_p.png,,,,,,,
,,,,31856,001,2025-10-19_16h39.51.915,HW_LDT_1,2024.2.4,Win32,59.52380952,,,,,,,,,,,,,,,,,,,,,834.1848,834.3835,834.3835,834.8839,,,,,,,,,,,,,,0.8627,1,,,,,,,,,,,,,,m,,,,,,,,,,,,,,,,106,0,834.8845,835.7514,m,1,0.8627,,[],[],[],[],[],[],[],835.7514,837.7524,837.7525,837.7526,[],[],[],[],[],[],[],,837.7527,837.7527,-0.574561404,0.029605263,0,0,0,,0,105,105,119,1,3,word,MEMORY,print,memory_p.png,,,,,,,
,,,,31856,001,2025-10-19_16h39.51.915,HW_LDT_1,2024.2.4,Win32,59.52380952,,,,,,,,,,,,,,,,,,,,,837.7539,837.9524,837.9524,838.4527,,,,,,,,,,,,,,2.9808,1,,,,,,,,,,,,,,z,,,,,,,,,,,,,,,,107,1,838.4531,841.4385,z,1,2.9808,,[],[],[],[],[],[],[],841.4387,843.4358,843.4359,844.6742,[],[],[],[],[],[],[],z,844.6744,844.6747,-0.574561404,0.029605263,0,0,0,,0,106,106,63,1,3,TL,racidal,cursive,racidal_c.png,1.235,,,,,,
,,,,31856,001,2025-10-19_16h39.51.915,HW_LDT_1,2024.2.4,Win32,59.52380952,,,,,,,,,,,,,,,,,,,,,844.6763,844.8741,844.8742,845.3877,,,,,,,,,,,,,,2.5666,1,,,,,,,,,,,,,,z,,,,,,,,,,,,,,,,108,0,845.3883,847.9558,z,1,2.5666,,[],[],[],[],[],[],[],847.9558,849.9572,849.9572,849.9575,[],[],[],[],[],[],[],,849.9575,849.9578,-0.574561404,0.029605263,0,0,0,,0,107,107,52,1,3,TL,locigal,cursive,locigal_c.png,,,,,,,
,,,,31856,001,2025-10-19_16h39.51.915,HW_LDT_1,2024.2.4,Win32,59.52380952,,,,,,,,,,,,,,,,,,,,,849.9597,850.161,850.161,850.658,,,,,,,,,,,,,,0.9823,1,,,,,,,,,,,,,,z,,,,,,,,,,,,,,,,109,0,850.6588,851.6418,z,1,0.9823,,[],[],[],[],[],[],[],851.6419,853.634,853.6342,853.6344,[],[],[],[],[],[],[],,853.6345,853.6349,-0.574561404,0.029605263,0,0,0,,0,108,108,19,1,3,RL,opcifal,cursive,opcifal_c.png,,,,,,,
,,,,31856,001,2025-10-19_16h39.51.915,HW_LDT_1,2024.2.4,Win32,59.52380952,,,,,,,,,,,,,,,,,,,,,853.6366,853.8268,853.8268,854.3267,,,,,,,,,,,,,,1.3503,0,,,,,,,,,,,,,,m,,,,,,,,,,,,,,,,110,0,854.3273,855.6783,z,0,1.3503,,[],[],[],[],[],[],[],855.6784,857.6663,857.6663,857.6664,[],[],[],[],[],[],[],,857.6664,857.6664,-0.574561404,0.029605263,0,0,0,,0,109,109,155,1,3,word,STRATEGY,print,strategy_p.png,,,,,,,
,,,,31856,001,2025-10-19_16h39.51.915,HW_LDT_1,2024.2.4,Win32,59.52380952,,,,,,,,,,,,,,,,,,,,,857.6681,857.8789,857.879,858.3627,,,,,,,,,,,,,,0.9826,0,,,,,,,,,,,,,,m,,,,,,,,,,,,,,,,111,0,858.3631,859.3509,z,0,0.9826,,[],[],[],[],[],[],[],859.351,861.3518,861.3518,861.352,[],[],[],[],[],[],[],,861.352,861.3521,-0.574561404,0.029605263,0,0,0,,0,110,110,153,1,3,word,STOLEN,cursive,stolen_c.png,,,,,,,
,,,,31856,001,2025-10-19_16h39.51.915,HW_LDT_1,2024.2.4,Win32,59.52380952,,,,,,,,,,,,,,,,,,,,,861.353,861.548,861.548,862.0525,,,,,,,,,,,,,,2.5714,1,,,,,,,,,,,,,,z,,,,,,,,,,,,,,,,112,0,862.053,864.6251,z,1,2.5714,,[],[],[],[],[],[],[],864.6252,866.6221,866.6221,866.6224,[],[],[],[],[],[],[],,866.6225,866.6226,-0.574561404,0.029605263,0,0,0,,0,111,111,53,1,3,TL,marnigal,print,marnigal_p.png,,,,,,,
,,,,31856,001,2025-10-19_16h39.51.915,HW_LDT_1,2024.2.4,Win32,59.52380952,,,,,,,,,,,,,,,,,,,,,866.6237,866.8224,866.8224,867.3153,,,,,,,,,,,,,,1.1865,1,,,,,,,,,,,,,,m,,,,,,,,,,,,,,,,113,0,867.3159,868.5068,m,1,1.1865,,[],[],[],[],[],[],[],868.5069,870.5084,870.5084,870.5086,[],[],[],[],[],[],[],,870.5087,870.5089,-0.574561404,0.029605263,0,0,0,,0,112,112,137,1,3,word,RAPIDLY,print,rapidly_p.png,,,,,,,
,,,,31856,001,2025-10-19_16h39.51.915,HW_LDT_1,2024.2.4,Win32,59.52380952,,,,,,,,,,,,,,,,,,,,,870.5104,870.7085,870.7085,871.2085,,,,,,,,,,,,,,1.3465,1,,,,,,,,,,,,,,z,,,,,,,,,,,,,,,,114,0,871.2089,872.5568,z,1,1.3465,,[],[],[],[],[],[],[],872.5569,874.5613,874.5614,874.5615,[],[],[],[],[],[],[],,874.5617,874.5618,-0.574561404,0.029605263,0,0,0,,0,113,113,7,1,3,RL,cobeny,print,cobeny_p.png,,,,,,,
,,,,31856,001,2025-10-19_16h39.51.915,HW_LDT_1,2024.2.4,Win32,59.52380952,,,,,,,,,,,,,,,,,,,,,874.5628,874.7611,874.7611,875.2616,,,,,,,,,,,,,,1.7802,1,,,,,,,,,,,,,,z,,,,,,,,,,,,,,,,115,0,875.2622,877.0461,z,1,1.7802,,[],[],[],[],[],[],[],877.0461,879.0473,879.0473,879.0475,[],[],[],[],[],[],[],,879.0475,879.0477,-0.574561404,0.029605263,0,0,0,,0,114,114,35,1,3,TL,cateferia,print,cateferia_p.png,,,,,,,
,,,,31856,001,2025-10-19_16h39.51.915,HW_LDT_1,2024.2.4,Win32,59.52380952,,,,,,,,,,,,,,,,,,,,,879.0486,879.2478,879.2478,879.7476,,,,,,,,,,,,,,1.4296,1,,,,,,,,,,,,,,m,,,,,,,,,,,,,,,,116,0,879.7482,881.1825,m,1,1.4296,,[],[],[],[],[],[],[],881.1826,883.197,883.197,883.1971,[],[],[],[],[],[],[],,883.1972,883.1973,-0.574561404,0.029605263,0,0,0,,0,115,115,157,1,3,word,VALIDITY,cursive,validity_c.png,,,,,,,
,,,,31856,001,2025-10-19_16h39.51.915,HW_LDT_1,2024.2.4,Win32,59.52380952,,,,,,,,,,,,,,,,,,,,,883.2007,883.3967,883.3967,883.9011,,,,,,,,,,,,,,1.2014,1,,,,,,,,,,,,,,m,,,,,,,,,,,,,,,,117,0,883.9017,885.104,m,1,1.2014,,[],[],[],[],[],[],[],885.1041,887.115,887.115,887.1153,[],[],[],[],[],[],[],,887.1153,887.1154,-0.574561404,0.029605263,0,0,0,,0,116,116,100,1,3,word,DECADE,cursive,decade_c.png,,,,,,,
,,,,31856,001,2025-10-19_16h39.51.915,HW_LDT_1,2024.2.4,Win32,59.52380952,,,,,,,,,,,,,,,,,,,,,887.1167,887.3033,887.3034,887.8033,,,,,,,,,,,,,,2.0798,0,,,,,,,,,,,,,,z,,,,,,,,,,,,,,,,118,0,887.8036,889.8842,m,0,2.0798,,[],[],[],[],[],[],[],889.8843,891.8853,891.8854,891.8855,[],[],[],[],[],[],[],,891.8856,891.8858,-0.574561404,0.029605263,0,0,0,,0,117,117,54,1,3,TL,manire,cursive,manire_c.png,,,,,,,
,,,,31856,001,2025-10-19_16h39.51.915,HW_LDT_1,2024.2.4,Win32,59.52380952,,,,,,,,,,,,,,,,,,,,,891.8866,892.1027,892.1028,892.599,,,,,,,,,,,,,,1.9045,1,,,,,,,,,,,,,,m,,,,,,,,,,,,,,,,119,0,892.5995,894.5082,m,1,1.9045,,[],[],[],[],[],[],[],894.5084,896.5098,896.5099,896.5103,[],[],[],[],[],[],[],,896.5104,896.5106,-0.574561404,0.029605263,0,0,0,,0,118,118,136,1,3,word,RADICAL,cursive,radical_c.png,,,,,,,
,,,,31856,001,2025-10-19_16h39.51.915,HW_LDT_1,2024.2.4,Win32,59.52380952,,,,,,,,,,,,,,,,,,,,,896.5119,896.7098,896.7099,897.2227,,,,,,,,,,,,,,0.8825,1,,,,,,,,,,,,,,m,,,,,,,,,,,,,,,,120,1,897.2234,898.1106,m,1,0.8825,,[],[],[],[],[],[],[],898.1107,900.1079,900.108,902.1108,[],[],[],[],[],[],[],m,902.111,902.1111,-0.574561404,0.029605263,0,0,0,,0,119,119,95,1,3,word,COMEDY,print,comedy_p.png,2.0021,,,,,,
,,,,31856,001,2025-10-19_16h39.51.915,HW_LDT_1,2024.2.4,Win32,59.52380952,,,,,,,,,,,,,,,,,,,,,902.1132,902.3132,902.3132,902.8103,,,,,,,,,,,,,,1.0829,1,,,,,,,,,,,,,,m,,,,,,,,,,,,,,,,121,0,902.8108,903.898,m,1,1.0829,,[],[],[],[],[],[],[],903.8982,905.899,905.899,905.8992,[],[],[],[],[],[],[],,905.8993,905.8993,-0.574561404,0.029605263,0,0,0,,0,120,120,129,1,3,word,PARENT,print,parent_p.png,,,,,,,
,,,,31856,001,2025-10-19_16h39.51.915,HW_LDT_1,2024.2.4,Win32,59.52380952,,,,,,,,,,,,,,,,,,,,,905.9003,906.0992,906.0992,906.5995,,,,,,,,,,,,,,2.4464,1,,,,,,,,,,,,,,m,,,,,,,,,,,,,,,,122,0,906.6,909.0511,m,1,2.4464,,[],[],[],[],[],[],[],909.0512,911.0525,911.0525,911.0528,[],[],[],[],[],[],[],,911.0528,911.0529,-0.574561404,0.029605263,0,0,0,,0,121,121,128,1,3,word,PACIFIC,cursive,pacific_c.png,,,,,,,
,,,,31856,001,2025-10-19_16h39.51.915,HW_LDT_1,2024.2.4,Win32,59.52380952,,,,,,,,,,,,,,,,,,,,,911.0538,911.2525,911.2526,911.7529,,,,,,,,,,,,,,1.1128,1,,,,,,,,,,,,,,z,,,,,,,,,,,,,,,,123,0,911.7533,912.867,z,1,1.1128,,[],[],[],[],[],[],[],912.867,914.8551,914.8551,914.8552,[],[],[],[],[],[],[],,914.8553,914.8553,-0.574561404,0.029605263,0,0,0,,0,122,122,18,1,3,RL,onegator,print,onegator_p.png,,,,,,,
,,,,31856,001,2025-10-19_16h39.51.915,HW_LDT_1,2024.2.4,Win32,59.52380952,,,,,,,,,,,,,,,,,,,,,914.8562,915.0552,915.0553,915.5557,,,,,,,,,,,,,,1.3792,1,,,,,,,,,,,,,,z,,,,,,,,,,,,,,,,124,0,915.5563,916.94,z,1,1.3792,,[],[],[],[],[],[],[],916.9402,918.9411,918.9412,918.9414,[],[],[],[],[],[],[],,918.9414,918.9416,-0.574561404,0.029605263,0,0,0,,0,123,123,32,1,3,TL,adacemy,print,adacemy_p.png,,,,,,,
,,,,31856,001,2025-10-19_16h39.51.915,HW_LDT_1,2024.2.4,Win32,59.52380952,,,,,,,,,,,,,,,,,,,,,918.9425,919.1413,919.1414,919.6417,,,,,,,,,,,,,,1.0464,1,,,,,,,,,,,,,,m,,,,,,,,,,,,,,,,125,0,919.6421,920.6924,m,1,1.0464,,[],[],[],[],[],[],[],920.6924,922.6897,922.6897,922.6899,[],[],[],[],[],[],[],,922.6899,922.69,-0.574561404,0.029605263,0,0,0,,0,124,124,141,1,3,word,RELIGION,print,religion_p.png,,,,,,,
,,,,31856,001,2025-10-19_16h39.51.915,HW_LDT_1,2024.2.4,Win32,59.52380952,,,,,,,,,,,,,,,,,,,,,922.6909,922.894,922.894,923.3777,,,,,,,,,,,,,,1.3458,1,,,,,,,,,,,,,,z,,,,,,,,,,,,,,,,126,0,923.3782,924.7287,z,1,1.3458,,[],[],[],[],[],[],[],924.7288,926.7302,926.7302,926.7304,[],[],[],[],[],[],[],,926.7305,926.7306,-0.574561404,0.029605263,0,0,0,,0,125,125,4,1,3,RL,cafigal,cursive,cafigal_c.png,,,,,,,
,,,,31856,001,2025-10-19_16h39.51.915,HW_LDT_1,2024.2.4,Win32,59.52380952,,,,,,,,,,,,,,,,,,,,,926.7317,926.9303,926.9303,927.4305,,,,,,,,,,,,,,1.6962,1,,,,,,,,,,,,,,m,,,,,,,,,,,,,,,,127,0,927.4311,929.1317,m,1,1.6962,,[],[],[],[],[],[],[],929.1318,931.1328,931.1328,931.1331,[],[],[],[],[],[],[],,931.1332,931.1332,-0.574561404,0.029605263,0,0,0,,0,126,126,156,1,3,word,TRIBUTE,print,tribute_p.png,,,,,,,
,,,,31856,001,2025-10-19_16h39.51.915,HW_LDT_1,2024.2.4,Win32,59.52380952,,,,,,,,,,,,,,,,,,,,,931.1341,931.3331,931.3332,931.8335,,,,,,,,,,,,,,1.9654,1,,,,,,,,,,,,,,z,,,,,,,,,,,,,,,,128,0,931.8339,933.8016,z,1,1.9654,,[],[],[],[],[],[],[],933.8017,935.8029,935.803,935.8033,[],[],[],[],[],[],[],,935.8034,935.8035,-0.574561404,0.029605263,0,0,0,,0,127,127,58,1,3,TL,nuremical,print,nuremical_p.png,,,,,,,
,,,,31856,001,2025-10-19_16h39.51.915,HW_LDT_1,2024.2.4,Win32,59.52380952,,,,,,,,,,,,,,,,,,,,,935.8045,936.003,936.003,936.5034,,,,,,,,,,,,,,1.7133,1,,,,,,,,,,,,,,z,,,,,,,,,,,,,,,,129,0,936.5038,938.2177,z,1,1.7133,,[],[],[],[],[],[],[],938.2177,940.219,940.219,940.2192,[],[],[],[],[],[],[],,940.2192,940.2193,-0.574561404,0.029605263,0,0,0,,0,128,128,39,1,3,TL,clicinal,print,clicinal_p.png,,,,,,,
,,,,31856,001,2025-10-19_16h39.51.915,HW_LDT_1,2024.2.4,Win32,59.52380952,,,,,,,,,,,,,,,,,,,,,940.221,940.4073,940.4073,940.916,,,,,,,,,,,,,,1.4199,0,,,,,,,,,,,,,,m,,,,,,,,,,,,,,,,130,0,940.9167,942.3378,z,0,1.4199,,[],[],[],[],[],[],[],942.3379,944.3381,944.3382,944.3384,[],[],[],[],[],[],[],,944.3385,944.3385,-0.574561404,0.029605263,0,0,0,,0,129,129,120,1,3,word,MILITARY,cursive,military_c.png,,,,,,,
,,,,31856,001,2025-10-19_16h39.51.915,HW_LDT_1,2024.2.4,Win32,59.52380952,,,,,,,,,,,,,,,,,,,,,944.3396,944.5387,944.5388,945.0385,,,,,,,,,,,,,,1.8178,1,,,,,,,,,,,,,,z,,,,,,,,,,,,,,,,131,0,945.0389,946.8605,z,1,1.8178,,[],[],[],[],[],[],[],946.8606,948.8624,948.8624,948.8627,[],[],[],[],[],[],[],,948.8628,948.863,-0.574561404,0.029605263,0,0,0,,0,130,130,37,1,3,TL,cacapity,cursive,cacapity_c.png,,,,,,,
,,,,31856,001,2025-10-19_16h39.51.915,HW_LDT_1,2024.2.4,Win32,59.52380952,,,,,,,,,,,,,,,,,,,,,948.8648,949.062,949.0621,949.5626,,,,,,,,,,,,,,2.1798,1,,,,,,,,,,,,,,z,,,,,,,,,,,,,,,,132,0,949.5632,951.7439,z,1,2.1798,,[],[],[],[],[],[],[],951.744,953.732,953.7321,953.7323,[],[],[],[],[],[],[],,953.7325,953.7325,-0.574561404,0.029605263,0,0,0,,0,131,131,34,1,3,TL,aminal,cursive,aminal_c.png,,,,,,,
,,,,31856,001,2025-10-19_16h39.51.915,HW_LDT_1,2024.2.4,Win32,59.52380952,,,,,,,,,,,,,,,,,,,,,953.7334,953.9281,953.9282,954.4332,,,,,,,,,,,,,,1.0076,1,,,,,,,,,,,,,,m,,,,,,,,,,,,,,,,133,0,954.4338,955.4424,m,1,1.0076,,[],[],[],[],[],[],[],955.4424,957.4475,957.4476,957.4478,[],[],[],[],[],[],[],,957.4478,957.4479,-0.574561404,0.029605263,0,0,0,,0,132,132,80,1,3,word,ACADEMY,print,academy_p.png,,,,,,,
,,,,31856,001,2025-10-19_16h39.51.915,HW_LDT_1,2024.2.4,Win32,59.52380952,,,,,,,,,,,,,,,,,,,,,957.4494,957.6516,957.6516,958.1519,,,,,,,,,,,,,,1.918,1,,,,,,,,,,,,,,z,,,,,,,,,,,,,,,,134,0,958.1525,960.0715,z,1,1.918,,[],[],[],[],[],[],[],960.0716,962.0709,962.071,962.071,[],[],[],[],[],[],[],,962.071,962.0711,-0.574561404,0.029605263,0,0,0,,0,133,133,78,1,3,TL,vecolity,cursive,vecolity_c.png,,,,,,,
,,,,31856,001,2025-10-19_16h39.51.915,HW_LDT_1,2024.2.4,Win32,59.52380952,,,,,,,,,,,,,,,,,,,,,962.0728,962.2712,962.2713,962.7716,,,,,,,,,,,,,,1.1134,1,,,,,,,,,,,,,,m,,,,,,,,,,,,,,,,135,1,962.7722,963.8889,m,1,1.1134,,[],[],[],[],[],[],[],963.889,965.8902,965.8903,967.4916,[],[],[],[],[],[],[],z,967.4916,967.4921,-0.574561404,0.029605263,0,0,0,,0,134,134,159,1,3,word,VETERAN,cursive,veteran_c.png,1.5984,,,,,,
,,,,31856,001,2025-10-19_16h39.51.915,HW_LDT_1,2024.2.4,Win32,59.52380952,,,,,,,,,,,,,,,,,,,,,967.4935,967.6921,967.6921,968.1923,,,,,,,,,,,,,,1.0127,1,,,,,,,,,,,,,,m,,,,,,,,,,,,,,,,136,1,968.193,969.2091,m,1,1.0127,,[],[],[],[],[],[],[],969.2092,971.211,971.2111,972.5615,[],[],[],[],[],[],[],z,972.5615,972.5617,-0.574561404,0.029605263,0,0,0,,0,135,135,98,1,3,word,CRIMINAL,print,criminal_p.png,1.3482,,,,,,
,,,,31856,001,2025-10-19_16h39.51.915,HW_LDT_1,2024.2.4,Win32,59.52380952,,,,,,,,,,,,,,,,,,,,,972.563,972.7619,972.7621,973.2624,,,,,,,,,,,,,,1.1145,0,,,,,,,,,,,,,,z,,,,,,,,,,,,,,,,137,0,973.263,974.3797,m,0,1.1145,,[],[],[],[],[],[],[],974.3798,976.3809,976.3809,976.3811,[],[],[],[],[],[],[],,976.3811,976.3812,-0.574561404,0.029605263,0,0,0,,0,136,136,41,1,3,TL,crinimal,print,crinimal_p.png,,,,,,,
,,,,31856,001,2025-10-19_16h39.51.915,HW_LDT_1,2024.2.4,Win32,59.52380952,,,,,,,,,,,,,,,,,,,,,976.3827,976.5814,976.5814,977.0812,,,,,,,,,,,,,,1.3807,1,,,,,,,,,,,,,,z,,,,,,,,,,,,,,,,138,1,977.0819,978.4661,z,1,1.3807,,[],[],[],[],[],[],[],978.4662,980.4672,980.4673,982.3849,[],[],[],[],[],[],[],z,982.3849,982.385,-0.574561404,0.029605263,0,0,0,,0,137,137,62,1,3,TL,prodive,print,prodive_p.png,1.9152,,,,,,
,,,,31856,001,2025-10-19_16h39.51.915,HW_LDT_1,2024.2.4,Win32,59.52380952,,,,,,,,,,,,,,,,,,,,,982.3864,982.5851,982.5851,983.0854,,,,,,,,,,,,,,1.3629,1,,,,,,,,,,,,,,z,,,,,,,,,,,,,,,,139,0,983.0859,984.4495,z,1,1.3629,,[],[],[],[],[],[],[],984.4496,986.4374,986.4375,986.4377,[],[],[],[],[],[],[],,986.4377,986.4377,-0.574561404,0.029605263,0,0,0,,0,138,138,61,1,3,TL,pocily,print,pocily_p.png,,,,,,,
,,,,31856,001,2025-10-19_16h39.51.915,HW_LDT_1,2024.2.4,Win32,59.52380952,,,,,,,,,,,,,,,,,,,,,986.4391,986.6381,986.6381,987.1386,,,,,,,,,,,,,,1.8462,1,,,,,,,,,,,,,,z,,,,,,,,,,,,,,,,140,0,987.139,988.99,z,1,1.8462,,[],[],[],[],[],[],[],988.9902,990.991,990.9911,990.9911,[],[],[],[],[],[],[],,990.9911,990.9913,-0.574561404,0.029605263,0,0,0,,0,139,139,29,1,3,RL,selamor,cursive,selamor_c.png,,,,,,,
,,,,31856,001,2025-10-19_16h39.51.915,HW_LDT_1,2024.2.4,Win32,59.52380952,,,,,,,,,,,,,,,,,,,,,990.9923,991.2036,991.2036,991.6914,,,,,,,,,,,,,,1.0124,1,,,,,,,,,,,,,,z,,,,,,,,,,,,,,,,141,1,991.6922,992.7055,z,1,1.0124,,[],[],[],[],[],[],[],992.7058,994.7064,994.7065,995.5404,[],[],[],[],[],[],[],z,995.5405,995.5409,-0.574561404,0.029605263,0,0,0,,0,140,140,11,1,3,RL,ebiwent,cursive,ebiwent_c.png,0.8337,,,,,,
,,,,31856,001,2025-10-19_16h39.51.915,HW_LDT_1,2024.2.4,Win32,59.52380952,,,,,,,,,,,,,,,,,,,,,995.5424,995.7368,995.7368,996.2298,,,,,,,,,,,,,,1.5437,1,,,,,,,,,,,,,,m,,,,,,,,,,,,,,,,142,0,996.2305,997.7793,m,1,1.5437,,[],[],[],[],[],[],[],997.7795,999.7803,999.7804,999.7806,[],[],[],[],[],[],[],,999.7807,999.7808,-0.574561404,0.029605263,0,0,0,,0,141,141,144,1,3,word,RESIDENT,cursive,resident_c.png,,,,,,,
,,,,31856,001,2025-10-19_16h39.51.915,HW_LDT_1,2024.2.4,Win32,59.52380952,,,,,,,,,,,,,,,,,,,,,999.7822,999.9801,999.9802,1000.4769,,,,,,,,,,,,,,3.4179,1,,,,,,,,,,,,,,z,,,,,,,,,,,,,,,,143,0,1000.4775,1003.8959,z,1,3.4179,,[],[],[],[],[],[],[],1003.896,1005.8879,1005.8884,1005.8886,[],[],[],[],[],[],[],,1005.8887,1005.8889,-0.574561404,0.029605263,0,0,0,,0,142,142,36,1,3,TL,carema,cursive,carema_c.png,,,,,,,
,,,,31856,001,2025-10-19_16h39.51.915,HW_LDT_1,2024.2.4,Win32,59.52380952,,,,,,,,,,,,,,,,,,,,,1005.8904,1006.0805,1006.0805,1006.5985,,,,,,,,,,,,,,0.9514,1,,,,,,,,,,,,,,z,,,,,,,,,,,,,,,,144,0,1006.5991,1007.5519,z,1,0.9514,,[],[],[],[],[],[],[],1007.5521,1009.564,1009.564,1009.5643,[],[],[],[],[],[],[],,1009.5645,1009.5647,-0.574561404,0.029605263,0,0,0,,0,143,143,2,1,3,RL,betemit,print,betemit_p.png,,,,,,,
,,,,31856,001,2025-10-19_16h39.51.915,HW_LDT_1,2024.2.4,Win32,59.52380952,,,,,,,,,,,,,,,,,,,,,1009.5661,1009.7539,1009.754,1010.2542,,,,,,,,,,,,,,0.8458,1,,,,,,,,,,,,,,m,,,,,,,,,,,,,,,,145,0,1010.2549,1011.1017,m,1,0.8458,,[],[],[],[],[],[],[],1011.1017,1013.0895,1013.0896,1013.0899,[],[],[],[],[],[],[],,1013.09,1013.0901,-0.574561404,0.029605263,0,0,0,,0,144,144,105,1,3,word,EDITOR,print,editor_p.png,,,,,,,
,,,,31856,001,2025-10-19_16h39.51.915,HW_LDT_1,2024.2.4,Win32,59.52380952,,,,,,,,,,,,,,,,,,,,,1013.0917,1013.2894,1013.2895,1013.8029,,,,,,,,,,,,,,1.2661,1,,,,,,,,,,,,,,m,,,,,,,,,,,,,,,,146,1,1013.8035,1015.0704,m,1,1.2661,,[],[],[],[],[],[],[],1015.0705,1017.0706,1017.0707,1018.0561,[],[],[],[],[],[],[],m,1018.0561,1018.0562,-0.574561404,0.029605263,0,0,0,,0,145,145,81,1,3,word,ADVISORY,print,advisory_p.png,0.9847,,,,,,
,,,,31856,001,2025-10-19_16h39.51.915,HW_LDT_1,2024.2.4,Win32,59.52380952,,,,,,,,,,,,,,,,,,,,,1018.0572,1018.2442,1018.2442,1018.7599,,,,,,,,,,,,,,0.8799,1,,,,,,,,,,,,,,z,,,,,,,,,,,,,,,,147,0,1018.7604,1019.6441,z,1,0.8799,,[],[],[],[],[],[],[],1019.6442,1021.6411,1021.6411,1021.6414,[],[],[],[],[],[],[],,1021.6414,1021.6415,-0.574561404,0.029605263,0,0,0,,0,146,146,26,1,3,RL,repifion,print,repifion_p.png,,,,,,,
,,,,31856,001,2025-10-19_16h39.51.915,HW_LDT_1,2024.2.4,Win32,59.52380952,,,,,,,,,,,,,,,,,,,,,1021.6423,1021.8577,1021.8577,1022.3457,,,,,,,,,,,,,,1.1331,0,,,,,,,,,,,,,,m,,,,,,,,,,,,,,,,148,0,1022.3461,1023.48,z,0,1.1331,,[],[],[],[],[],[],[],1023.48,1025.481,1025.481,1025.481,[],[],[],[],[],[],[],,1025.4811,1025.4812,-0.574561404,0.029605263,0,0,0,,0,147,147,96,1,3,word,CONSIDER,print,consider_p.png,,,,,,,
,,,,31856,001,2025-10-19_16h39.51.915,HW_LDT_1,2024.2.4,Win32,59.52380952,,,,,,,,,,,,,,,,,,,,,1025.482,1025.6812,1025.6812,1026.1821,,,,,,,,,,,,,,1.6795,1,,,,,,,,,,,,,,m,,,,,,,,,,,,,,,,149,0,1026.1826,1027.8628,m,1,1.6795,,[],[],[],[],[],[],[],1027.8629,1029.8536,1029.8537,1029.8539,[],[],[],[],[],[],[],,1029.8539,1029.8541,-0.574561404,0.029605263,0,0,0,,0,148,148,102,1,3,word,DENSITY,print,density_p.png,,,,,,,
,,,,31856,001,2025-10-19_16h39.51.915,HW_LDT_1,2024.2.4,Win32,59.52380952,,,,,,,,,,,,,,,,,,,,,1029.8557,1030.0634,1030.0634,1030.5512,,,,,,,,,,,,,,1.129,1,,,,,,,,,,,,,,z,,,,,,,,,,,,,,,,150,1,1030.5521,1031.6822,z,1,1.129,,[],[],[],[],[],[],[],1031.6824,1033.67,1033.67,1035.9344,[],[],[],[],[],[],[],m,1035.9345,1035.9349,-0.574561404,0.029605263,0,0,0,,0,149,149,67,1,3,TL,retome,print,retome_p.png,2.2638,,,,,,
,,,,31856,001,2025-10-19_16h39.51.915,HW_LDT_1,2024.2.4,Win32,59.52380952,,,,,,,,,,,,,,,,,,,,,1035.9361,1036.1238,1036.1239,1036.6345,,,,,,,,,,,,,,1.7473,1,,,,,,,,,,,,,,z,,,,,,,,,,,,,,,,151,0,1036.6349,1038.3831,z,1,1.7473,,[],[],[],[],[],[],[],1038.3833,1040.3748,1040.3748,1040.3753,[],[],[],[],[],[],[],,1040.3753,1040.3755,-0.574561404,0.029605263,0,0,0,,0,150,150,31,1,3,RL,trilude,print,trilude_p.png,,,,,,,
,,,,31856,001,2025-10-19_16h39.51.915,HW_LDT_1,2024.2.4,Win32,59.52380952,,,,,,,,,,,,,,,,,,,,,1040.3769,1040.5748,1040.5749,1041.0715,,,,,,,,,,,,,,4.7202,1,,,,,,,,,,,,,,z,,,,,,,,,,,,,,,,152,0,1041.0718,1045.7951,z,1,4.7202,,[],[],[],[],[],[],[],1045.7952,1047.7964,1047.7964,1047.7968,[],[],[],[],[],[],[],,1047.7968,1047.7972,-0.574561404,0.029605263,0,0,0,,0,151,151,6,1,3,RL,cenesony,cursive,cenesony_c.png,,,,,,,
,,,,31856,001,2025-10-19_16h39.51.915,HW_LDT_1,2024.2.4,Win32,59.52380952,,,,,,,,,,,,,,,,,,,,,1047.7985,1047.9966,1047.9966,1048.4973,,,,,,,,,,,,,,2.112,1,,,,,,,,,,,,,,z,,,,,,,,,,,,,,,,153,0,1048.498,1050.6148,z,1,2.112,,[],[],[],[],[],[],[],1050.6149,1052.6163,1052.6164,1052.6167,[],[],[],[],[],[],[],,1052.6167,1052.6168,-0.574561404,0.029605263,0,0,0,,0,152,152,59,1,3,TL,paficic,cursive,paficic_c.png,,,,,,,
,,,,31856,001,2025-10-19_16h39.51.915,HW_LDT_1,2024.2.4,Win32,59.52380952,,,,,,,,,,,,,,,,,,,,,1052.6185,1052.8163,1052.8164,1053.3132,,,,,,,,,,,,,,1.3847,1,,,,,,,,,,,,,,z,,,,,,,,,,,,,,,,154,1,1053.3136,1054.701,z,1,1.3847,,[],[],[],[],[],[],[],1054.701,1056.7026,1056.7026,1057.7836,[],[],[],[],[],[],[],z,1057.7837,1057.784,-0.574561404,0.029605263,0,0,0,,0,153,153,28,1,3,RL,rovastic,cursive,rovastic_c.png,1.0803,,,,,,
,,,,31856,001,2025-10-19_16h39.51.915,HW_LDT_1,2024.2.4,Win32,59.52380952,,,,,,,,,,,,,,,,,,,,,1057.7863,1057.9865,1057.9866,1058.487,,,,,,,,,,,,,,1.5131,1,,,,,,,,,,,,,,m,,,,,,,,,,,,,,,,155,0,1058.4873,1060.0047,m,1,1.5131,,[],[],[],[],[],[],[],1060.0048,1062.0024,1062.0026,1062.0027,[],[],[],[],[],[],[],,1062.0028,1062.0028,-0.574561404,0.029605263,0,0,0,,0,154,154,135,1,3,word,QUALITY,print,quality_p.png,,,,,,,
,,,,31856,001,2025-10-19_16h39.51.915,HW_LDT_1,2024.2.4,Win32,59.52380952,,,,,,,,,,,,,,,,,,,,,1062.0038,1062.1929,1062.1929,1062.6925,,,,,,,,,,,,,,1.8778,1,,,,,,,,,,,,,,z,,,,,,,,,,,,,,,,156,0,1062.6931,1064.5713,z,1,1.8778,,[],[],[],[],[],[],[],1064.5714,1066.5762,1066.5762,1066.5763,[],[],[],[],[],[],[],,1066.5764,1066.5765,-0.574561404,0.029605263,0,0,0,,0,155,155,69,1,3,TL,redisent,cursive,redisent_c.png,,,,,,,
,,,,31856,001,2025-10-19_16h39.51.915,HW_LDT_1,2024.2.4,Win32,59.52380952,,,,,,,,,,,,,,,,,,,,,1066.5778,1066.7723,1066.7724,1067.2727,,,,,,,,,,,,,,4.8354,1,,,,,,,,,,,,,,z,,,,,,,,,,,,,,,,157,0,1067.2731,1072.1093,z,1,4.8354,,[],[],[],[],[],[],[],1072.1093,1074.1109,1074.1109,1074.111,[],[],[],[],[],[],[],,1074.111,1074.1111,-0.574561404,0.029605263,0,0,0,,0,156,156,48,1,3,TL,grafetul,cursive,grafetul_c.png,,,,,,,
,,,,31856,001,2025-10-19_16h39.51.915,HW_LDT_1,2024.2.4,Win32,59.52380952,,,,,,,,,,,,,,,,,,,,,1074.1118,1074.3112,1074.3113,1074.8109,,,,,,,,,,,,,,2.1841,1,,,,,,,,,,,,,,m,,,,,,,,,,,,,,,,158,0,1074.8114,1076.9963,m,1,2.1841,,[],[],[],[],[],[],[],1076.9963,1078.9973,1078.9974,1078.9977,[],[],[],[],[],[],[],,1078.9978,1078.9979,-0.574561404,0.029605263,0,0,0,,0,157,157,101,1,3,word,DELICATE,print,delicate_p.png,,,,,,,
,,,,31856,001,2025-10-19_16h39.51.915,HW_LDT_1,2024.2.4,Win32,59.52380952,,,,,,,,,,,,,,,,,,,,,1078.9997,1079.1934,1079.1935,1079.6872,,,,,,,,,,,,,,1.6768,1,,,,,,,,,,,,,,z,,,,,,,,,,,,,,,,159,0,1079.6878,1081.3692,z,1,1.6768,,[],[],[],[],[],[],[],1081.3693,1083.3706,1083.3707,1083.3709,[],[],[],[],[],[],[],,1083.371,1083.371,-0.574561404,0.029605263,0,0,0,,0,158,158,25,1,3,RL,retupar,print,retupar_p.png,,,,,,,
,,,,31856,001,2025-10-19_16h39.51.915,HW_LDT_1,2024.2.4,Win32,59.52380952,,,,,,,,,,,,,,,,,,,,,1083.3723,1083.5708,1083.5709,1084.0712,,,,,,,,,,,,,,3.0304,0,,,,,,,,,,,,,,m,,,,,,,,,,,,,,,,160,0,1084.0719,1087.1071,z,0,3.0304,,[],[],[],[],[],[],[],1087.1071,1089.1079,1089.108,1089.1081,[],[],[],[],[],[],[],,1089.1082,1089.1083,-0.574561404,0.029605263,0,0,0,,0,159,159,92,1,3,word,CATEGORY,cursive,category_c.png,,,,,,,
,,,,31856,001,2025-10-19_16h39.51.915,HW_LDT_1,2024.2.4,Win32,59.52380952,,,,,,,,,,,,,,,,,,,,,,,,,,,,,,,,,,,,,,,,,,,,,,,,,,,,,,,,,,,,,,,,,,,,,,,,,,,,,,,,,,,,,,,,,,,,,,,,,,,,,,,,,,,,,,,,,,,,,,,1089.1188,1094.1117
