counterbalance_lists.group,counterbalance_lists.remaining,get_list.started,get_list.stopped,participant,session,date,expName,psychopyVersion,OS,frameRate,Instructions.started,Instructions.stopped,key_resp.keys,instr_done_touch.x,instr_done_touch.y,instr_done_touch.leftButton,instr_done_touch.midButton,instr_done_touch.rightButton,instr_done_touch.clicked_name,start_instr.thisRepN,start_instr.thisTrialN,start_instr.thisN,start_instr.thisIndex,start_instr.ran,pageN,phase,instruct_text,has_image,instruct_image,showProgress.started,showProgress.stopped,fix.started,fix.stopped,prac.started,prac.stopped,response.keys,response.corr,response.rt,response.duration,touch_resp.x,touch_resp.y,touch_resp.leftButton,touch_resp.midButton,touch_resp.rightButton,touch_resp.time,touch_resp.clicked_name,rt,corr,feedback.started,feedback.stopped,trials.thisRepN,trials.thisTrialN,trials.thisN,trials.thisIndex,trials.ran,TrialID,StimulusType,Condition,PrimeDuration,Prime,Target,corrAns,Instructions_expt.started,Instructions_expt.stopped,key_resp_3.keys,instr_done_touch_3.x,instr_done_touch_3.y,instr_done_touch_3.leftButton,instr_done_touch_3.midButton,instr_done_touch_3.rightButton,instr_done_touch_3.clicked_name,instr_experiment.thisRepN,instr_experiment.thisTrialN,instr_experiment.thisN,instr_experiment.thisIndex,instr_experiment.ran,trialID,flag,maintask.started,maintask.stopped,key_resp_2.keys,key_resp_2.corr,key_resp_2.rt,key_resp_2.duration,targ_click.x,targ_click.y,targ_click.leftButton,targ_click.midButton,targ_click.rightButton,targ_click.time,targ_click.clicked_name,ITI.started,ITI.stopped,probe.started,probe.stopped,click_probe.x,click_probe.y,click_probe.leftButton,click_probe.midButton,click_probe.rightButton,click_probe.time,click_probe.clicked_name,key_resp_probe.keys,key_resp_probe.rt,key_resp_probe.duration,Break.started,Break.stopped,break_done_touch.x,break_done_touch.y,break_done_touch.leftButton,break_done_touch.midButton,break_done_touch.rightButton,break_done_keyboard.keys,list1_trials.thisRepN,list1_trials.thisTrialN,list1_trials.thisN,list1_trials.thisIndex,list1_trials.ran,list_id,item_type,string,font,stim_file,break_done_keyboard.rt,break_done_keyboard.duration,End.started,End.stopped
list1,,0.4668,0.467,31851,001,2025-10-16_16h59.14.122,HW_LDT_1,2024.2.4,MacIntel,119.047619,,,,,,,,,,,,,,,,,,,,,,,,,,,,,,,,,,,,,,,,,,,,,,,,,,,,,,,,,,,,,,,,,,,,,,,,,,,,,,,,,,,,,,,,,,,,,,,,,,,,,,,,,,,,,,,,,,,,,
,,,,31851,001,2025-10-16_16h59.14.122,HW_LDT_1,2024.2.4,MacIntel,119.047619,0.4873,22.4045,,0.082537616,-0.414756944,1,0,0,instr_done_button,0,0,0,0,1,1,instructions,"INSTRUCTIONS
At the start of each trial, look at the plus sign  (+) in the center of the screen.  This tells you that a trial is about to begin and where to look. Second, the plus sign will disappear and a string of letters will appear. Your task is to determine if the string of letters is a word or not. If the item is a word press the M key (on keyboard)  or touch the word button (phone/tablet).  If the item is not a word,  press the  Z key (on keyboard)  or touch the nonword button (on phone/tablet). The items will be presented for a short time. 
Press the space bar or touch  continue.",0,,,,,,,,,,,,,,,,,,,,,,,,,,,,,,,,,,,,,,,,,,,,,,,,,,,,,,,,,,,,,,,,,,,,,,,,,,,,,,,,,,,,,,,,,,,,,,,,,,,
,,,,31851,001,2025-10-16_16h59.14.122,HW_LDT_1,2024.2.4,MacIntel,119.047619,22.4056,26.6014,,0.082537616,-0.414756944,1,0,0,instr_done_button,0,1,1,1,1,2,instructions,"If your device has a keyboard, press the 'Z' key for nonwords and the 'M' key for words.





Press the space bar or touch the button below to continue.",0,keyboard-example.gif,,,,,,,,,,,,,,,,,,,,,,,,,,,,,,,,,,,,,,,,,,,,,,,,,,,,,,,,,,,,,,,,,,,,,,,,,,,,,,,,,,,,,,,,,,,,,,,,,,
,,,,31851,001,2025-10-16_16h59.14.122,HW_LDT_1,2024.2.4,MacIntel,119.047619,26.6026,29.0292,,0.082537616,-0.414756944,1,0,0,instr_done_button,0,2,2,2,1,3,instructions,"If you are using a touchscreen only device, use the buttons on the screen. Do not use the mouse.





Press the space bar or touch the button below to continue.",0,touchscreen-example.gif,,,,,,,,,,,,,,,,,,,,,,,,,,,,,,,,,,,,,,,,,,,,,,,,,,,,,,,,,,,,,,,,,,,,,,,,,,,,,,,,,,,,,,,,,,,,,,,,,,
,,,,31851,001,2025-10-16_16h59.14.122,HW_LDT_1,2024.2.4,MacIntel,119.047619,29.0307,32.1881,,0.082324219,-0.415867332,1,0,0,instr_done_button,0,3,3,3,1,4,instructions,"It is very important that you respond as quickly and accurately as possible, as each letter string will only be on the screen for two seconds. If you do not respond within this time, the message 'Too slow!' will be displayed and the experiment will progress to the next letter string. The first 20 trials will be practice trials and you will receive feedback on your answers. 

Press the space bar or touch the button below to start the practice trials.",0,,,,,,,,,,,,,,,,,,,,,,,,,,,,,,,,,,,,,,,,,,,,,,,,,,,,,,,,,,,,,,,,,,,,,,,,,,,,,,,,,,,,,,,,,,,,,,,,,,,
,,,,31851,001,2025-10-16_16h59.14.122,HW_LDT_1,2024.2.4,MacIntel,119.047619,,,,,,,,,,,,,,,,,,,,32.2147,32.3833,32.3835,32.887,32.8874,34.2752,m,1,1.3671,,[],[],[],[],[],[],[],1.3671,1,34.2754,34.7719,0,0,0,2,1,1003,WORD,"ID",16,almond,ALMOND,m,,,,,,,,,,,,,,,,,,,,,,,,,,,,,,,,,,,,,,,,,,,,,,,,,,,,,,,,,,,,,,,,,
,,,,31851,001,2025-10-16_16h59.14.122,HW_LDT_1,2024.2.4,MacIntel,119.047619,,,,,,,,,,,,,,,,,,,,34.7733,34.9733,34.9733,35.4704,35.4715,37.2041,z,1,1.7189,,[],[],[],[],[],[],[],1.7189,1,37.2042,37.7022,0,1,1,12,1,1013,NW,UN,33,adveil,SPRINY,z,,,,,,,,,,,,,,,,,,,,,,,,,,,,,,,,,,,,,,,,,,,,,,,,,,,,,,,,,,,,,,,,,
,,,,31851,001,2025-10-16_16h59.14.122,HW_LDT_1,2024.2.4,MacIntel,119.047619,,,,,,,,,,,,,,,,,,,,37.7036,37.8962,37.8963,38.3959,38.397,39.3285,m,1,0.9194,,[],[],[],[],[],[],[],0.9194,1,39.3287,39.829,0,2,2,1,1,1002,WORD,"ID",33,adjust,ADJUST,m,,,,,,,,,,,,,,,,,,,,,,,,,,,,,,,,,,,,,,,,,,,,,,,,,,,,,,,,,,,,,,,,,
,,,,31851,001,2025-10-16_16h59.14.122,HW_LDT_1,2024.2.4,MacIntel,119.047619,,,,,,,,,,,,,,,,,,,,39.8304,40.0248,40.0248,40.5249,40.5259,41.2648,m,1,0.7255,,[],[],[],[],[],[],[],0.7255,1,41.2649,41.7671,0,3,3,6,1,1007,WORD,UN,16,tropic,ZOMBIE,m,,,,,,,,,,,,,,,,,,,,,,,,,,,,,,,,,,,,,,,,,,,,,,,,,,,,,,,,,,,,,,,,,
,,,,31851,001,2025-10-16_16h59.14.122,HW_LDT_1,2024.2.4,MacIntel,119.047619,,,,,,,,,,,,,,,,,,,,41.7682,41.9665,41.9667,42.4626,42.4636,43.088,m,1,0.6091,,[],[],[],[],[],[],[],0.6091,1,43.0881,43.5881,0,4,4,7,1,1008,WORD,UN,16,hurdle,VOLUME,m,,,,,,,,,,,,,,,,,,,,,,,,,,,,,,,,,,,,,,,,,,,,,,,,,,,,,,,,,,,,,,,,,
,,,,31851,001,2025-10-16_16h59.14.122,HW_LDT_1,2024.2.4,MacIntel,119.047619,,,,,,,,,,,,,,,,,,,,43.5895,43.7878,43.7878,44.2877,44.2885,44.8621,m,1,0.559,,[],[],[],[],[],[],[],0.559,1,44.8623,45.363,0,5,5,5,1,1006,WORD,UN,33,frenzy,OBTAIN,m,,,,,,,,,,,,,,,,,,,,,,,,,,,,,,,,,,,,,,,,,,,,,,,,,,,,,,,,,,,,,,,,,
,,,,31851,001,2025-10-16_16h59.14.122,HW_LDT_1,2024.2.4,MacIntel,119.047619,,,,,,,,,,,,,,,,,,,,45.3645,45.5626,45.5627,46.0615,46.0625,46.8251,z,1,0.747,,[],[],[],[],[],[],[],0.747,1,46.8252,47.3253,0,6,6,13,1,1014,NW,UN,33,winfer,ROUPET,z,,,,,,,,,,,,,,,,,,,,,,,,,,,,,,,,,,,,,,,,,,,,,,,,,,,,,,,,,,,,,,,,,
,,,,31851,001,2025-10-16_16h59.14.122,HW_LDT_1,2024.2.4,MacIntel,119.047619,,,,,,,,,,,,,,,,,,,,47.326,47.5256,47.5256,48.0213,48.0223,49.0364,z,1,1.0048,,[],[],[],[],[],[],[],1.0048,1,49.0365,49.537,0,7,7,8,1,1009,NW,"ID",33,aslert,ASLERT,z,,,,,,,,,,,,,,,,,,,,,,,,,,,,,,,,,,,,,,,,,,,,,,,,,,,,,,,,,,,,,,,,,
,,,,31851,001,2025-10-16_16h59.14.122,HW_LDT_1,2024.2.4,MacIntel,119.047619,,,,,,,,,,,,,,,,,,,,49.5384,49.7371,49.7372,50.2376,50.2385,50.8224,m,1,0.5713,,[],[],[],[],[],[],[],0.5713,1,50.8225,51.3249,0,8,8,4,1,1005,WORD,UN,33,abound,SQUEAK,m,,,,,,,,,,,,,,,,,,,,,,,,,,,,,,,,,,,,,,,,,,,,,,,,,,,,,,,,,,,,,,,,,
,,,,31851,001,2025-10-16_16h59.14.122,HW_LDT_1,2024.2.4,MacIntel,119.047619,,,,,,,,,,,,,,,,,,,,51.326,51.5205,51.5206,52.021,52.0216,52.8842,z,1,0.853,,[],[],[],[],[],[],[],0.853,1,52.8843,53.3837,0,9,9,10,1,1011,NW,"ID",16,inlade,INLADE,z,,,,,,,,,,,,,,,,,,,,,,,,,,,,,,,,,,,,,,,,,,,,,,,,,,,,,,,,,,,,,,,,,
,,,,31851,001,2025-10-16_16h59.14.122,HW_LDT_1,2024.2.4,MacIntel,119.047619,,,,,,,,,,,,,,,,,,,,53.3847,53.5831,53.5832,54.079,54.0799,54.7253,z,1,0.6323,,[],[],[],[],[],[],[],0.6323,1,54.7254,55.2252,0,10,10,11,1,1012,NW,"ID",16,rashet,RASHET,z,,,,,,,,,,,,,,,,,,,,,,,,,,,,,,,,,,,,,,,,,,,,,,,,,,,,,,,,,,,,,,,,,
,,,,31851,001,2025-10-16_16h59.14.122,HW_LDT_1,2024.2.4,MacIntel,119.047619,,,,,,,,,,,,,,,,,,,,55.2265,55.4248,55.4249,55.9251,55.9261,56.6129,z,1,0.6723,,[],[],[],[],[],[],[],0.6723,1,56.613,57.113,0,11,11,9,1,1010,NW,"ID",33,fariny,FARINY,z,,,,,,,,,,,,,,,,,,,,,,,,,,,,,,,,,,,,,,,,,,,,,,,,,,,,,,,,,,,,,,,,,
,,,,31851,001,2025-10-16_16h59.14.122,HW_LDT_1,2024.2.4,MacIntel,119.047619,,,,,,,,,,,,,,,,,,,,57.1139,57.3132,57.3133,57.8127,57.8138,58.5551,m,1,0.7274,,[],[],[],[],[],[],[],0.7274,1,58.5552,59.0553,0,12,12,3,1,1004,WORD,"ID",16,matrix,MATRIX,m,,,,,,,,,,,,,,,,,,,,,,,,,,,,,,,,,,,,,,,,,,,,,,,,,,,,,,,,,,,,,,,,,
,,,,31851,001,2025-10-16_16h59.14.122,HW_LDT_1,2024.2.4,MacIntel,119.047619,,,,,,,,,,,,,,,,,,,,59.0565,59.2552,59.2552,59.7549,59.7559,60.3173,m,1,0.5481,,[],[],[],[],[],[],[],0.5481,1,60.3174,60.815,0,13,13,0,1,1001,WORD,"ID",33,utopia,UTOPIA,m,,,,,,,,,,,,,,,,,,,,,,,,,,,,,,,,,,,,,,,,,,,,,,,,,,,,,,,,,,,,,,,,,
,,,,31851,001,2025-10-16_16h59.14.122,HW_LDT_1,2024.2.4,MacIntel,119.047619,,,,,,,,,,,,,,,,,,,,60.8158,61.0162,61.0163,61.5165,61.5174,62.317,z,1,0.7899,,[],[],[],[],[],[],[],0.7899,1,62.3171,62.8172,0,14,14,14,1,1015,NW,UN,16,miaber,THRALE,z,,,,,,,,,,,,,,,,,,,,,,,,,,,,,,,,,,,,,,,,,,,,,,,,,,,,,,,,,,,,,,,,,
,,,,31851,001,2025-10-16_16h59.14.122,HW_LDT_1,2024.2.4,MacIntel,119.047619,,,,,,,,,,,,,,,,,,,,62.8182,63.0162,63.0163,63.5166,63.5176,64.2533,z,1,0.7255,,[],[],[],[],[],[],[],0.7255,1,64.2533,64.7475,0,15,15,15,1,1016,NW,UN,16,mushed,WHAISE,z,,,,,,,,,,,,,,,,,,,,,,,,,,,,,,,,,,,,,,,,,,,,,,,,,,,,,,,,,,,,,,,,,
,,,,31851,001,2025-10-16_16h59.14.122,HW_LDT_1,2024.2.4,MacIntel,119.047619,,,,,,,,,,,,,,,1,end_of_practice,"You have completed the practice trials. During the experimental trials, you will not receive feedback. On some trials you will be asked to report whether the item you just saw was in cursive or print. 
Before you begin, please ensure that you are in a comfortable and quiet location and will not be disturbed for about 15 minutes, as we cannot use your data if you do not complete all the trials. 
 When you are ready to start the experimental trials, please press space or touch the button below.",,,,,,,,,,,,,,,,,,,,,,,,,,,,,,,,,,,,64.7529,67.8339,,0.082324219,-0.415867332,1,0,0,instr_done_button_3,0,0,0,0,1,,,,,,,,,,,,,,,,,,,,,,,,,,,,,,,,,,,,,,,,,,,,,,,,,,,
,,,,31851,001,2025-10-16_16h59.14.122,HW_LDT_1,2024.2.4,MacIntel,119.047619,,,,,,,,,,,,,,,,,,,,67.8431,68.0293,68.0293,68.5293,,,,,,,,,,,,,,1.1213,1,,,,,,,,,,,,,,z,,,,,,,,,,,,,,,1,1,68.5312,69.6588,z,1,1.1213,,[],[],[],[],[],[],[],69.6591,71.66,71.6603,75.5303,[],[],[],[],[],[],[],m,3.866,,75.5305,75.5322,0.082324219,-0.415867332,0,0,0,,0,0,0,28,1,1,RL,renutal,print,renutal_p.png,,,,
,,,,31851,001,2025-10-16_16h59.14.122,HW_LDT_1,2024.2.4,MacIntel,119.047619,,,,,,,,,,,,,,,,,,,,75.5328,75.7303,75.7303,76.2292,,,,,,,,,,,,,,1.3289,1,,,,,,,,,,,,,,m,,,,,,,,,,,,,,,2,0,76.2296,77.5635,m,1,1.3289,,[],[],[],[],[],[],[],77.5635,79.5636,79.5637,79.5641,[],[],[],[],[],[],[],,,,79.5642,79.5643,0.082324219,-0.415867332,0,0,0,,0,1,1,115,1,1,word,LOGICAL,cursive,logical_c.png,,,,
,,,,31851,001,2025-10-16_16h59.14.122,HW_LDT_1,2024.2.4,MacIntel,119.047619,,,,,,,,,,,,,,,,,,,,79.5655,79.7601,79.7601,80.2625,,,,,,,,,,,,,,1.036,1,,,,,,,,,,,,,,m,,,,,,,,,,,,,,,3,0,80.2633,81.3044,m,1,1.036,,[],[],[],[],[],[],[],81.3044,83.2993,83.2994,83.2999,[],[],[],[],[],[],[],,,,83.3,83.3001,0.082324219,-0.415867332,0,0,0,,0,2,2,104,1,1,word,DOMINANT,cursive,dominant_c.png,,,,
,,,,31851,001,2025-10-16_16h59.14.122,HW_LDT_1,2024.2.4,MacIntel,119.047619,,,,,,,,,,,,,,,,,,,,83.3012,83.4998,83.4999,84.0003,,,,,,,,,,,,,,2.2092,1,,,,,,,,,,,,,,z,,,,,,,,,,,,,,,4,0,84.001,86.2169,z,1,2.2092,,[],[],[],[],[],[],[],86.217,88.2169,88.217,88.2172,[],[],[],[],[],[],[],,,,88.2174,88.2175,0.082324219,-0.415867332,0,0,0,,0,3,3,48,1,1,TL,cemerony,cursive,cemerony_c.png,,,,
,,,,31851,001,2025-10-16_16h59.14.122,HW_LDT_1,2024.2.4,MacIntel,119.047619,,,,,,,,,,,,,,,,,,,,88.2188,88.4127,88.4127,88.917,,,,,,,,,,,,,,0.7747,1,,,,,,,,,,,,,,m,,,,,,,,,,,,,,,5,0,88.9175,89.6958,m,1,0.7747,,[],[],[],[],[],[],[],89.6958,91.6913,91.6914,91.6918,[],[],[],[],[],[],[],,,,91.6919,91.692,0.082324219,-0.415867332,0,0,0,,0,4,4,97,1,1,word,COVERAGE,print,coverage_p.png,,,,
,,,,31851,001,2025-10-16_16h59.14.122,HW_LDT_1,2024.2.4,MacIntel,119.047619,,,,,,,,,,,,,,,,,,,,91.6933,91.8889,91.8889,92.3872,,,,,,,,,,,,,,0.7108,1,,,,,,,,,,,,,,m,,,,,,,,,,,,,,,6,0,92.3878,93.1039,m,1,0.7108,,[],[],[],[],[],[],[],93.104,95.1003,95.1003,95.1006,[],[],[],[],[],[],[],,,,95.1006,95.1007,0.082324219,-0.415867332,0,0,0,,0,5,5,129,1,1,word,PARENT,cursive,parent_c.png,,,,
,,,,31851,001,2025-10-16_16h59.14.122,HW_LDT_1,2024.2.4,MacIntel,119.047619,,,,,,,,,,,,,,,,,,,,95.1017,95.3,95.3002,95.8003,,,,,,,,,,,,,,0.7943,1,,,,,,,,,,,,,,m,,,,,,,,,,,,,,,7,0,95.8009,96.6005,m,1,0.7943,,[],[],[],[],[],[],[],96.6006,98.5999,98.5999,98.6002,[],[],[],[],[],[],[],,,,98.6003,98.6005,0.082324219,-0.415867332,0,0,0,,0,6,6,148,1,1,word,SALINE,print,saline_p.png,,,,
,,,,31851,001,2025-10-16_16h59.14.122,HW_LDT_1,2024.2.4,MacIntel,119.047619,,,,,,,,,,,,,,,,,,,,98.6017,98.8005,98.8006,99.3002,,,,,,,,,,,,,,0.5602,1,,,,,,,,,,,,,,m,,,,,,,,,,,,,,,8,0,99.3008,99.8669,m,1,0.5602,,[],[],[],[],[],[],[],99.8669,101.8658,101.8659,101.866,[],[],[],[],[],[],[],,,,101.8661,101.8662,0.082324219,-0.415867332,0,0,0,,0,7,7,88,1,1,word,CAMERA,cursive,camera_c.png,,,,
,,,,31851,001,2025-10-16_16h59.14.122,HW_LDT_1,2024.2.4,MacIntel,119.047619,,,,,,,,,,,,,,,,,,,,101.8674,102.0622,102.0623,102.5627,,,,,,,,,,,,,,0.5625,1,,,,,,,,,,,,,,m,,,,,,,,,,,,,,,9,0,102.5633,103.1293,m,1,0.5625,,[],[],[],[],[],[],[],103.1294,105.1269,105.1269,105.1272,[],[],[],[],[],[],[],,,,105.1273,105.1274,0.082324219,-0.415867332,0,0,0,,0,8,8,94,1,1,word,CLINICAL,cursive,clinical_c.png,,,,
,,,,31851,001,2025-10-16_16h59.14.122,HW_LDT_1,2024.2.4,MacIntel,119.047619,,,,,,,,,,,,,,,,,,,,105.1287,105.3249,105.3249,105.8284,,,,,,,,,,,,,,1.6161,1,,,,,,,,,,,,,,z,,,,,,,,,,,,,,,10,0,105.829,107.4503,z,1,1.6161,,[],[],[],[],[],[],[],107.4503,109.4496,109.4496,109.4498,[],[],[],[],[],[],[],,,,109.4499,109.4502,0.082324219,-0.415867332,0,0,0,,0,9,9,53,1,1,TL,dentisy,cursive,dentisy_c.png,,,,
,,,,31851,001,2025-10-16_16h59.14.122,HW_LDT_1,2024.2.4,MacIntel,119.047619,,,,,,,,,,,,,,,,,,,,109.4513,109.6463,109.6463,110.1463,,,,,,,,,,,,,,1.6099,1,,,,,,,,,,,,,,z,,,,,,,,,,,,,,,11,0,110.1468,111.7629,z,1,1.6099,,[],[],[],[],[],[],[],111.763,113.7628,113.7629,113.763,[],[],[],[],[],[],[],,,,113.763,113.7631,0.082324219,-0.415867332,0,0,0,,0,10,10,15,1,1,RL,losipal,cursive,losipal_c.png,,,,
,,,,31851,001,2025-10-16_16h59.14.122,HW_LDT_1,2024.2.4,MacIntel,119.047619,,,,,,,,,,,,,,,,,,,,113.7641,113.9631,113.9631,114.4637,,,,,,,,,,,,,,1.0671,1,,,,,,,,,,,,,,z,,,,,,,,,,,,,,,12,0,114.4642,115.5351,z,1,1.0671,,[],[],[],[],[],[],[],115.5351,117.5334,117.5335,117.5338,[],[],[],[],[],[],[],,,,117.5338,117.5339,0.082324219,-0.415867332,0,0,0,,0,11,11,17,1,1,RL,menowy,cursive,menowy_c.png,,,,
,,,,31851,001,2025-10-16_16h59.14.122,HW_LDT_1,2024.2.4,MacIntel,119.047619,,,,,,,,,,,,,,,,,,,,117.5352,117.7336,117.7336,118.2339,,,,,,,,,,,,,,0.9571,1,,,,,,,,,,,,,,m,,,,,,,,,,,,,,,13,0,118.2344,119.1925,m,1,0.9571,,[],[],[],[],[],[],[],119.1926,121.1885,121.1886,121.1888,[],[],[],[],[],[],[],,,,121.1889,121.1889,0.082324219,-0.415867332,0,0,0,,0,12,12,150,1,1,word,SENTIMENT,cursive,sentiment_c.png,,,,
,,,,31851,001,2025-10-16_16h59.14.122,HW_LDT_1,2024.2.4,MacIntel,119.047619,,,,,,,,,,,,,,,,,,,,121.19,121.3888,121.3888,121.8883,,,,,,,,,,,,,,0.7718,1,,,,,,,,,,,,,,z,,,,,,,,,,,,,,,14,0,121.8887,122.6664,z,1,0.7718,,[],[],[],[],[],[],[],122.6664,124.667,124.667,124.6671,[],[],[],[],[],[],[],,,,124.6672,124.6673,0.082324219,-0.415867332,0,0,0,,0,13,13,67,1,1,TL,pocily,cursive,pocily_c.png,,,,
,,,,31851,001,2025-10-16_16h59.14.122,HW_LDT_1,2024.2.4,MacIntel,119.047619,,,,,,,,,,,,,,,,,,,,124.6686,124.8669,124.867,125.3672,,,,,,,,,,,,,,0.6867,0,,,,,,,,,,,,,,z,,,,,,,,,,,,,,,15,0,125.3678,126.0594,m,0,0.6867,,[],[],[],[],[],[],[],126.0595,128.0545,128.0545,128.0548,[],[],[],[],[],[],[],,,,128.0548,128.0549,0.082324219,-0.415867332,0,0,0,,0,14,14,75,1,1,TL,speficic,cursive,speficic_c.png,,,,
,,,,31851,001,2025-10-16_16h59.14.122,HW_LDT_1,2024.2.4,MacIntel,119.047619,,,,,,,,,,,,,,,,,,,,128.0561,128.2545,128.2546,128.7526,,,,,,,,,,,,,,0.7623,1,,,,,,,,,,,,,,z,,,,,,,,,,,,,,,16,0,128.7531,129.5207,z,1,0.7623,,[],[],[],[],[],[],[],129.5208,131.5211,131.5211,131.5212,[],[],[],[],[],[],[],,,,131.5212,131.5212,0.082324219,-0.415867332,0,0,0,,0,15,15,16,1,1,RL,marmipal,print,marmipal_p.png,,,,
,,,,31851,001,2025-10-16_16h59.14.122,HW_LDT_1,2024.2.4,MacIntel,119.047619,,,,,,,,,,,,,,,,,,,,131.5219,131.7157,131.7158,132.2201,,,,,,,,,,,,,,0.8241,1,,,,,,,,,,,,,,z,,,,,,,,,,,,,,,17,1,132.2207,133.0502,z,1,0.8241,,[],[],[],[],[],[],[],133.0503,135.0506,135.0507,137.0494,[],[],[],[],[],[],[],z,1.9958,,137.0495,137.0495,0.082324219,-0.415867332,0,0,0,,0,16,16,1,1,1,RL,adnicory,cursive,adnicory_c.png,,,,
,,,,31851,001,2025-10-16_16h59.14.122,HW_LDT_1,2024.2.4,MacIntel,119.047619,,,,,,,,,,,,,,,,,,,,137.0501,137.2459,137.2459,137.7462,,,,,,,,,,,,,,1.2861,1,,,,,,,,,,,,,,m,,,,,,,,,,,,,,,18,0,137.7466,139.0384,m,1,1.2861,,[],[],[],[],[],[],[],139.0384,141.0387,141.0388,141.039,[],[],[],[],[],[],[],,,,141.0391,141.0393,0.082324219,-0.415867332,0,0,0,,0,17,17,151,1,1,word,SPECIFIC,cursive,specific_c.png,,,,
,,,,31851,001,2025-10-16_16h59.14.122,HW_LDT_1,2024.2.4,MacIntel,119.047619,,,,,,,,,,,,,,,,,,,,141.0406,141.2386,141.2386,141.7389,,,,,,,,,,,,,,0.6207,1,,,,,,,,,,,,,,m,,,,,,,,,,,,,,,19,0,141.7396,142.3625,m,1,0.6207,,[],[],[],[],[],[],[],142.3625,144.3596,144.3597,144.36,[],[],[],[],[],[],[],,,,144.36,144.3603,0.082324219,-0.415867332,0,0,0,,0,18,18,89,1,1,word,CAPACITY,print,capacity_p.png,,,,
,,,,31851,001,2025-10-16_16h59.14.122,HW_LDT_1,2024.2.4,MacIntel,119.047619,,,,,,,,,,,,,,,,,,,,144.3617,144.5545,144.5546,145.0583,,,,,,,,,,,,,,0.9861,1,,,,,,,,,,,,,,z,,,,,,,,,,,,,,,20,0,145.059,146.0502,z,1,0.9861,,[],[],[],[],[],[],[],146.0503,148.0468,148.0469,148.0472,[],[],[],[],[],[],[],,,,148.0472,148.0474,0.082324219,-0.415867332,0,0,0,,0,19,19,78,1,1,TL,vecolity,print,vecolity_p.png,,,,
,,,,31851,001,2025-10-16_16h59.14.122,HW_LDT_1,2024.2.4,MacIntel,119.047619,,,,,,,,,,,,,,,,,,,,148.0484,148.2473,148.2474,148.7473,,,,,,,,,,,,,,0.9028,1,,,,,,,,,,,,,,z,,,,,,,,,,,,,,,21,1,148.7477,149.6555,z,1,0.9028,,[],[],[],[],[],[],[],149.6556,151.6551,151.6552,153.1557,[],[],[],[],[],[],[],z,1.4943,,153.1558,153.1559,0.082324219,-0.415867332,0,0,0,,0,20,20,49,1,1,TL,clicinal,cursive,clicinal_c.png,,,,
,,,,31851,001,2025-10-16_16h59.14.122,HW_LDT_1,2024.2.4,MacIntel,119.047619,,,,,,,,,,,,,,,,,,,,153.1565,153.3556,153.3557,153.8556,,,,,,,,,,,,,,0.9278,1,,,,,,,,,,,,,,m,,,,,,,,,,,,,,,22,0,153.8563,154.7889,m,1,0.9278,,[],[],[],[],[],[],[],154.7889,156.7887,156.7888,156.7889,[],[],[],[],[],[],[],,,,156.7889,156.789,0.082324219,-0.415867332,0,0,0,,0,21,21,139,1,1,word,REGULAR,print,regular_p.png,,,,
,,,,31851,001,2025-10-16_16h59.14.122,HW_LDT_1,2024.2.4,MacIntel,119.047619,,,,,,,,,,,,,,,,,,,,156.7897,156.9888,156.9889,157.489,,,,,,,,,,,,,,1.1029,1,,,,,,,,,,,,,,m,,,,,,,,,,,,,,,23,0,157.4894,158.5972,m,1,1.1029,,[],[],[],[],[],[],[],158.5972,160.5973,160.5974,160.5974,[],[],[],[],[],[],[],,,,160.5975,160.5976,0.082324219,-0.415867332,0,0,0,,0,22,22,107,1,1,word,EVIDENT,print,evident_p.png,,,,
,,,,31851,001,2025-10-16_16h59.14.122,HW_LDT_1,2024.2.4,MacIntel,119.047619,,,,,,,,,,,,,,,,,,,,160.5985,160.7935,160.7935,161.2969,,,,,,,,,,,,,,0.653,1,,,,,,,,,,,,,,z,,,,,,,,,,,,,,,24,0,161.2976,161.955,z,1,0.653,,[],[],[],[],[],[],[],161.955,163.9543,163.9543,163.9545,[],[],[],[],[],[],[],,,,163.9545,163.9547,0.082324219,-0.415867332,0,0,0,,0,23,23,27,1,1,RL,rasibal,print,rasibal_p.png,,,,
,,,,31851,001,2025-10-16_16h59.14.122,HW_LDT_1,2024.2.4,MacIntel,119.047619,,,,,,,,,,,,,,,,,,,,163.9558,164.1547,164.1548,164.6527,,,,,,,,,,,,,,1.1635,0,,,,,,,,,,,,,,m,,,,,,,,,,,,,,,25,1,164.6533,165.8208,z,0,1.1635,,[],[],[],[],[],[],[],165.8209,167.8168,167.8169,169.0067,[],[],[],[],[],[],[],z,1.1891,,169.0068,169.0068,0.082324219,-0.415867332,0,0,0,,0,24,24,103,1,1,word,DISPUTE,cursive,dispute_c.png,,,,
,,,,31851,001,2025-10-16_16h59.14.122,HW_LDT_1,2024.2.4,MacIntel,119.047619,,,,,,,,,,,,,,,,,,,,169.0079,169.2046,169.2046,169.7048,,,,,,,,,,,,,,0.9813,0,,,,,,,,,,,,,,m,,,,,,,,,,,,,,,26,0,169.7053,170.689,z,0,0.9813,,[],[],[],[],[],[],[],170.6891,172.6829,172.683,172.6832,[],[],[],[],[],[],[],,,,172.6833,172.6834,0.082324219,-0.415867332,0,0,0,,0,25,25,105,1,1,word,EDITOR,cursive,editor_c.png,,,,
,,,,31851,001,2025-10-16_16h59.14.122,HW_LDT_1,2024.2.4,MacIntel,119.047619,,,,,,,,,,,,,,,,,,,,172.6846,172.8798,172.8798,173.3825,,,,,,,,,,,,,,0.7188,0,,,,,,,,,,,,,,m,,,,,,,,,,,,,,,27,0,173.383,174.1058,z,0,0.7188,,[],[],[],[],[],[],[],174.106,176.1053,176.1054,176.1057,[],[],[],[],[],[],[],,,,176.1058,176.1059,0.082324219,-0.415867332,0,0,0,,0,26,26,102,1,1,word,DENSITY,cursive,density_c.png,,,,
,,,,31851,001,2025-10-16_16h59.14.122,HW_LDT_1,2024.2.4,MacIntel,119.047619,,,,,,,,,,,,,,,,,,,,176.1068,176.3055,176.3056,176.8048,,,,,,,,,,,,,,0.7977,1,,,,,,,,,,,,,,z,,,,,,,,,,,,,,,28,0,176.8052,177.6081,z,1,0.7977,,[],[],[],[],[],[],[],177.6082,179.6041,179.6041,179.6043,[],[],[],[],[],[],[],,,,179.6044,179.6046,0.082324219,-0.415867332,0,0,0,,0,27,27,14,1,1,RL,lofase,print,lofase_p.png,,,,
,,,,31851,001,2025-10-16_16h59.14.122,HW_LDT_1,2024.2.4,MacIntel,119.047619,,,,,,,,,,,,,,,,,,,,179.6059,179.8035,179.8036,180.3047,,,,,,,,,,,,,,1.1783,1,,,,,,,,,,,,,,m,,,,,,,,,,,,,,,29,0,180.3052,181.4847,m,1,1.1783,,[],[],[],[],[],[],[],181.4848,183.4838,183.4839,183.4839,[],[],[],[],[],[],[],,,,183.4839,183.484,0.082324219,-0.415867332,0,0,0,,0,28,28,134,1,1,word,QUALIFY,cursive,qualify_c.png,,,,
,,,,31851,001,2025-10-16_16h59.14.122,HW_LDT_1,2024.2.4,MacIntel,119.047619,,,,,,,,,,,,,,,,,,,,183.4847,183.6838,183.6839,184.1797,,,,,,,,,,,,,,0.8602,1,,,,,,,,,,,,,,z,,,,,,,,,,,,,,,30,1,184.1803,185.0458,z,1,0.8602,,[],[],[],[],[],[],[],185.0458,187.0458,187.0459,189.4586,[],[],[],[],[],[],[],z,2.4074,,189.4587,189.4588,0.082324219,-0.415867332,0,0,0,,0,29,29,43,1,1,TL,bedise,print,bedise_p.png,,,,
,,,,31851,001,2025-10-16_16h59.14.122,HW_LDT_1,2024.2.4,MacIntel,119.047619,,,,,,,,,,,,,,,,,,,,189.4597,189.6582,189.6583,190.1588,,,,,,,,,,,,,,1.9856,0,,,,,,,,,,,,,,m,,,,,,,,,,,,,,,31,0,190.1594,192.1505,z,0,1.9856,,[],[],[],[],[],[],[],192.1506,194.1506,194.1507,194.1508,[],[],[],[],[],[],[],,,,194.1509,194.1509,0.082324219,-0.415867332,0,0,0,,0,30,30,125,1,1,word,OPERATOR,cursive,operator_c.png,,,,
,,,,31851,001,2025-10-16_16h59.14.122,HW_LDT_1,2024.2.4,MacIntel,119.047619,,,,,,,,,,,,,,,,,,,,194.1519,194.3506,194.3506,194.8496,,,,,,,,,,,,,,0.9481,1,,,,,,,,,,,,,,z,,,,,,,,,,,,,,,32,0,194.8501,195.8002,z,1,0.9481,,[],[],[],[],[],[],[],195.8003,197.7964,197.7964,197.7967,[],[],[],[],[],[],[],,,,197.7967,197.7969,0.082324219,-0.415867332,0,0,0,,0,31,31,34,1,1,RL,samite,print,samite_p.png,,,,
,,,,31851,001,2025-10-16_16h59.14.122,HW_LDT_1,2024.2.4,MacIntel,119.047619,,,,,,,,,,,,,,,,,,,,197.7981,197.9965,197.9966,198.4921,,,,,,,,,,,,,,1.2442,1,,,,,,,,,,,,,,m,,,,,,,,,,,,,,,33,0,198.4926,199.7433,m,1,1.2442,,[],[],[],[],[],[],[],199.7433,201.7417,201.7417,201.7419,[],[],[],[],[],[],[],,,,201.742,201.7421,0.082324219,-0.415867332,0,0,0,,0,32,32,135,1,1,word,QUALITY,cursive,quality_c.png,,,,
,,,,31851,001,2025-10-16_16h59.14.122,HW_LDT_1,2024.2.4,MacIntel,119.047619,,,,,,,,,,,,,,,,,,,,201.743,201.942,201.9421,202.4423,,,,,,,,,,,,,,0.7582,1,,,,,,,,,,,,,,z,,,,,,,,,,,,,,,34,0,202.4427,203.2057,z,1,0.7582,,[],[],[],[],[],[],[],203.2058,205.2049,205.2049,205.2051,[],[],[],[],[],[],[],,,,205.2051,205.2052,0.082324219,-0.415867332,0,0,0,,0,33,33,23,1,1,RL,potugar,cursive,potugar_c.png,,,,
,,,,31851,001,2025-10-16_16h59.14.122,HW_LDT_1,2024.2.4,MacIntel,119.047619,,,,,,,,,,,,,,,,,,,,205.2065,205.4048,205.4048,205.902,,,,,,,,,,,,,,2.3162,1,,,,,,,,,,,,,,z,,,,,,,,,,,,,,,35,0,205.9025,208.2208,z,1,2.3162,,[],[],[],[],[],[],[],208.2208,210.2221,210.2222,210.2224,[],[],[],[],[],[],[],,,,210.2225,210.2226,0.082324219,-0.415867332,0,0,0,,0,34,34,39,1,1,RL,vabifity,cursive,vabifity_c.png,,,,
,,,,31851,001,2025-10-16_16h59.14.122,HW_LDT_1,2024.2.4,MacIntel,119.047619,,,,,,,,,,,,,,,,,,,,210.2239,210.4208,210.4208,210.9212,,,,,,,,,,,,,,0.8788,1,,,,,,,,,,,,,,m,,,,,,,,,,,,,,,36,0,210.9219,211.8046,m,1,0.8788,,[],[],[],[],[],[],[],211.8046,213.8008,213.8008,213.801,[],[],[],[],[],[],[],,,,213.801,213.8012,0.082324219,-0.415867332,0,0,0,,0,35,35,84,1,1,word,BELOVED,print,beloved_p.png,,,,
,,,,31851,001,2025-10-16_16h59.14.122,HW_LDT_1,2024.2.4,MacIntel,119.047619,,,,,,,,,,,,,,,,,,,,213.8025,214.0006,214.0006,214.4986,,,,,,,,,,,,,,0.5991,1,,,,,,,,,,,,,,z,,,,,,,,,,,,,,,37,0,214.4992,215.1043,z,1,0.5991,,[],[],[],[],[],[],[],215.1044,217.1003,217.1004,217.1006,[],[],[],[],[],[],[],,,,217.1007,217.1008,0.082324219,-0.415867332,0,0,0,,0,36,36,2,1,1,RL,asiral,print,asiral_p.png,,,,
,,,,31851,001,2025-10-16_16h59.14.122,HW_LDT_1,2024.2.4,MacIntel,119.047619,,,,,,,,,,,,,,,,,,,,217.102,217.2964,217.2964,217.7965,,,,,,,,,,,,,,0.6126,1,,,,,,,,,,,,,,m,,,,,,,,,,,,,,,38,0,217.7969,218.4135,m,1,0.6126,,[],[],[],[],[],[],[],218.4136,220.4139,220.4139,220.414,[],[],[],[],[],[],[],,,,220.414,220.4141,0.082324219,-0.415867332,0,0,0,,0,37,37,114,1,1,word,LOCATE,print,locate_p.png,,,,
,,,,31851,001,2025-10-16_16h59.14.122,HW_LDT_1,2024.2.4,MacIntel,119.047619,,,,,,,,,,,,,,,,,,,,220.4146,220.614,220.614,221.1142,,,,,,,,,,,,,,0.6176,1,,,,,,,,,,,,,,m,,,,,,,,,,,,,,,39,0,221.1148,221.739,m,1,0.6176,,[],[],[],[],[],[],[],221.7391,223.7393,223.7393,223.7395,[],[],[],[],[],[],[],,,,223.7396,223.7397,0.082324219,-0.415867332,0,0,0,,0,38,38,159,1,1,word,VETERAN,print,veteran_p.png,,,,
,,,,31851,001,2025-10-16_16h59.14.122,HW_LDT_1,2024.2.4,MacIntel,119.047619,,,,,,,,,,,,,,,,,,,,223.7407,223.9392,223.9392,224.4391,,,,,,,,,,,,,,0.7852,1,,,,,,,,,,,,,,z,,,,,,,,,,,,,,,40,0,224.4396,225.2307,z,1,0.7852,,[],[],[],[],[],[],[],225.2308,227.231,227.2311,227.2313,[],[],[],[],[],[],[],,,,227.2313,227.2315,0.082324219,-0.415867332,0,0,0,,0,39,39,9,1,1,RL,docirant,cursive,docirant_c.png,,,,
,,,,31851,001,2025-10-16_16h59.14.122,HW_LDT_1,2024.2.4,MacIntel,119.047619,,,,,,,,,,,,,,,,,,,,227.2327,227.4307,227.4309,227.9307,,,,,,,,,,,,,,0.8952,1,,,,,,,,,,,,,,z,,,,,,,,,,,,,,,41,1,227.9309,228.8299,z,1,0.8952,,[],[],[],[],[],[],[],228.83,230.83,230.83,232.9043,[],[],[],[],[],[],[],m,2.0711,,232.9044,232.9044,0.082324219,-0.415867332,0,0,0,,0,40,40,18,1,1,RL,mishafe,print,mishafe_p.png,,,,
,,,,31851,001,2025-10-16_16h59.14.122,HW_LDT_1,2024.2.4,MacIntel,119.047619,,,,,,,,,,,,,,,,,,,,232.9051,233.0997,233.0997,233.6006,,,,,,,,,,,,,,0.7582,1,,,,,,,,,,,,,,m,,,,,,,,,,,,,,,42,0,233.6013,234.3633,m,1,0.7582,,[],[],[],[],[],[],[],234.3633,236.3589,236.3589,236.3591,[],[],[],[],[],[],[],,,,236.3592,236.3593,0.082324219,-0.415867332,0,0,0,,0,41,41,112,1,1,word,LIBERAL,cursive,liberal_c.png,,,,
,,,,31851,001,2025-10-16_16h59.14.122,HW_LDT_1,2024.2.4,MacIntel,119.047619,,,,,,,,,,,,,,,,,,,,236.3606,236.5574,236.5574,237.0549,,,,,,,,,,,,,,0.6366,1,,,,,,,,,,,,,,m,,,,,,,,,,,,,,,43,0,237.0552,237.6957,m,1,0.6366,,[],[],[],[],[],[],[],237.6957,239.692,239.6921,239.6924,[],[],[],[],[],[],[],,,,239.6925,239.6925,0.082324219,-0.415867332,0,0,0,,0,42,42,86,1,1,word,BESIDE,print,beside_p.png,,,,
,,,,31851,001,2025-10-16_16h59.14.122,HW_LDT_1,2024.2.4,MacIntel,119.047619,,,,,,,,,,,,,,,,,,,,239.6938,239.8921,239.8922,240.3887,,,,,,,,,,,,,,1.0638,1,,,,,,,,,,,,,,z,,,,,,,,,,,,,,,44,0,240.3893,241.4579,z,1,1.0638,,[],[],[],[],[],[],[],241.458,243.4565,243.4567,243.4569,[],[],[],[],[],[],[],,,,243.4569,243.4571,0.082324219,-0.415867332,0,0,0,,0,43,43,73,1,1,TL,ronamtic,cursive,ronamtic_c.png,,,,
,,,,31851,001,2025-10-16_16h59.14.122,HW_LDT_1,2024.2.4,MacIntel,119.047619,,,,,,,,,,,,,,,,,,,,243.4584,243.657,243.6572,244.1576,,,,,,,,,,,,,,0.6717,1,,,,,,,,,,,,,,m,,,,,,,,,,,,,,,45,0,244.1581,244.8334,m,1,0.6717,,[],[],[],[],[],[],[],244.8335,246.8348,246.8348,246.835,[],[],[],[],[],[],[],,,,246.835,246.8351,0.082324219,-0.415867332,0,0,0,,0,44,44,142,1,1,word,REMOTE,print,remote_p.png,,,,
,,,,31851,001,2025-10-16_16h59.14.122,HW_LDT_1,2024.2.4,MacIntel,119.047619,,,,,,,,,,,,,,,,,,,,246.8365,247.03,247.03,247.5338,,,,,,,,,,,,,,0.9696,1,,,,,,,,,,,,,,z,,,,,,,,,,,,,,,46,0,247.5344,248.5046,z,1,0.9696,,[],[],[],[],[],[],[],248.5047,250.5003,250.5004,250.5006,[],[],[],[],[],[],[],,,,250.5007,250.5007,0.082324219,-0.415867332,0,0,0,,0,45,45,44,1,1,TL,cateferia,cursive,cateferia_c.png,,,,
,,,,31851,001,2025-10-16_16h59.14.122,HW_LDT_1,2024.2.4,MacIntel,119.047619,,,,,,,,,,,,,,,,,,,,250.5017,250.7005,250.7005,251.1992,,,,,,,,,,,,,,0.5776,1,,,,,,,,,,,,,,m,,,,,,,,,,,,,,,47,0,251.2,251.783,m,1,0.5776,,[],[],[],[],[],[],[],251.783,253.784,253.7841,253.7842,[],[],[],[],[],[],[],,,,253.7842,253.7843,0.082324219,-0.415867332,0,0,0,,0,46,46,91,1,1,word,CARDINAL,print,cardinal_p.png,,,,
,,,,31851,001,2025-10-16_16h59.14.122,HW_LDT_1,2024.2.4,MacIntel,119.047619,,,,,,,,,,,,,,,,,,,,253.7855,253.9835,253.9835,254.4841,,,,,,,,,,,,,,0.6378,1,,,,,,,,,,,,,,m,,,,,,,,,,,,,,,48,1,254.4846,255.1278,m,1,0.6378,,[],[],[],[],[],[],[],255.1278,257.1297,257.1297,258.1466,[],[],[],[],[],[],[],m,1.0118,,258.1468,258.1468,0.082324219,-0.415867332,0,0,0,,0,47,47,126,1,1,word,OPTIMAL,print,optimal_p.png,,,,
,,,,31851,001,2025-10-16_16h59.14.122,HW_LDT_1,2024.2.4,MacIntel,119.047619,,,,,,,,,,,,,,,,,,,,258.148,258.3477,258.3478,258.8433,,,,,,,,,,,,,,0.8076,0,,,,,,,,,,,,,,z,,,,,,,,,,,,,,,49,0,258.8438,259.6547,m,0,0.8076,,[],[],[],[],[],[],[],259.6548,261.6506,261.6507,261.6509,[],[],[],[],[],[],[],,,,261.6509,261.651,0.082324219,-0.415867332,0,0,0,,0,48,48,40,1,1,TL,atameur,print,atameur_p.png,,,,
,,,,31851,001,2025-10-16_16h59.14.122,HW_LDT_1,2024.2.4,MacIntel,119.047619,,,,,,,,,,,,,,,,,,,,261.6522,261.8504,261.8505,262.3507,,,,,,,,,,,,,,0.7823,1,,,,,,,,,,,,,,m,,,,,,,,,,,,,,,50,1,262.3513,263.1381,m,1,0.7823,,[],[],[],[],[],[],[],263.1381,265.1399,265.14,266.2719,[],[],[],[],[],[],[],m,1.1272,,266.2719,266.2721,0.082324219,-0.415867332,0,0,0,,0,49,49,145,1,1,word,RESUME,print,resume_p.png,,,,
,,,,31851,001,2025-10-16_16h59.14.122,HW_LDT_1,2024.2.4,MacIntel,119.047619,,,,,,,,,,,,,,,,,,,,266.2731,266.4718,266.4719,266.9718,,,,,,,,,,,,,,0.7125,1,,,,,,,,,,,,,,m,,,,,,,,,,,,,,,51,0,266.9724,267.6886,m,1,0.7125,,[],[],[],[],[],[],[],267.6886,269.6839,269.684,269.6842,[],[],[],[],[],[],[],,,,269.6843,269.6844,0.082324219,-0.415867332,0,0,0,,0,50,50,132,1,1,word,PROPOSAL,cursive,proposal_c.png,,,,
,,,,31851,001,2025-10-16_16h59.14.122,HW_LDT_1,2024.2.4,MacIntel,119.047619,,,,,,,,,,,,,,,,,,,,269.6856,269.8797,269.8797,270.3839,,,,,,,,,,,,,,0.6849,0,,,,,,,,,,,,,,m,,,,,,,,,,,,,,,52,1,270.3844,271.0731,z,0,0.6849,,[],[],[],[],[],[],[],271.0732,273.0717,273.0718,274.224,[],[],[],[],[],[],[],z,1.1495,,274.224,274.2241,0.082324219,-0.415867332,0,0,0,,0,51,51,149,1,1,word,SENATOR,cursive,senator_c.png,,,,
,,,,31851,001,2025-10-16_16h59.14.122,HW_LDT_1,2024.2.4,MacIntel,119.047619,,,,,,,,,,,,,,,,,,,,274.2253,274.4251,274.4252,274.9254,,,,,,,,,,,,,,0.9109,1,,,,,,,,,,,,,,m,,,,,,,,,,,,,,,53,0,274.926,275.8433,m,1,0.9109,,[],[],[],[],[],[],[],275.8433,277.8386,277.8386,277.8388,[],[],[],[],[],[],[],,,,277.8389,277.8389,0.082324219,-0.415867332,0,0,0,,0,52,52,146,1,1,word,RETIRE,cursive,retire_c.png,,,,
,,,,31851,001,2025-10-16_16h59.14.122,HW_LDT_1,2024.2.4,MacIntel,119.047619,,,,,,,,,,,,,,,,,,,,277.8403,278.0419,278.0419,278.5337,,,,,,,,,,,,,,0.6775,1,,,,,,,,,,,,,,m,,,,,,,,,,,,,,,54,1,278.5343,279.2173,m,1,0.6775,,[],[],[],[],[],[],[],279.2175,281.2156,281.2156,282.8214,[],[],[],[],[],[],[],z,1.6006,,282.8214,282.8215,0.082324219,-0.415867332,0,0,0,,0,53,53,144,1,1,word,RESIDENT,print,resident_p.png,,,,
,,,,31851,001,2025-10-16_16h59.14.122,HW_LDT_1,2024.2.4,MacIntel,119.047619,,,,,,,,,,,,,,,,,,,,282.822,283.0215,283.0215,283.5218,,,,,,,,,,,,,,1.2327,1,,,,,,,,,,,,,,m,,,,,,,,,,,,,,,55,0,283.5224,284.7557,m,1,1.2327,,[],[],[],[],[],[],[],284.7557,286.7562,286.7563,286.7564,[],[],[],[],[],[],[],,,,286.7565,286.7565,0.082324219,-0.415867332,0,0,0,,0,54,54,143,1,1,word,REMOVAL,cursive,removal_c.png,,,,
,,,,31851,001,2025-10-16_16h59.14.122,HW_LDT_1,2024.2.4,MacIntel,119.047619,,,,,,,,,,,,,,,,,,,,286.7577,286.9559,286.956,287.4553,,,,,,,,,,,,,,0.6532,1,,,,,,,,,,,,,,m,,,,,,,,,,,,,,,56,0,287.4558,288.1141,m,1,0.6532,,[],[],[],[],[],[],[],288.1141,290.1135,290.1136,290.1139,[],[],[],[],[],[],[],,,,290.1139,290.114,0.082324219,-0.415867332,0,0,0,,0,55,55,92,1,1,word,CATEGORY,print,category_p.png,,,,
,,,,31851,001,2025-10-16_16h59.14.122,HW_LDT_1,2024.2.4,MacIntel,119.047619,,,,,,,,,,,,,,,,,,,,290.1154,290.313,290.3131,290.8089,,,,,,,,,,,,,,0.7381,1,,,,,,,,,,,,,,z,,,,,,,,,,,,,,,57,0,290.8094,291.5513,z,1,0.7381,,[],[],[],[],[],[],[],291.5514,293.5481,293.5481,293.5483,[],[],[],[],[],[],[],,,,293.5484,293.5485,0.082324219,-0.415867332,0,0,0,,0,56,56,33,1,1,RL,recile,cursive,recile_c.png,,,,
,,,,31851,001,2025-10-16_16h59.14.122,HW_LDT_1,2024.2.4,MacIntel,119.047619,,,,,,,,,,,,,,,,,,,,293.5498,293.748,293.748,294.2436,,,,,,,,,,,,,,1.3655,1,,,,,,,,,,,,,,z,,,,,,,,,,,,,,,58,0,294.2442,295.6135,z,1,1.3655,,[],[],[],[],[],[],[],295.6136,297.6086,297.6087,297.6089,[],[],[],[],[],[],[],,,,297.609,297.6091,0.082324219,-0.415867332,0,0,0,,0,57,57,76,1,1,TL,stragety,cursive,stragety_c.png,,,,
,,,,31851,001,2025-10-16_16h59.14.122,HW_LDT_1,2024.2.4,MacIntel,119.047619,,,,,,,,,,,,,,,,,,,,297.6103,297.8084,297.8085,298.3092,,,,,,,,,,,,,,1.6649,1,,,,,,,,,,,,,,z,,,,,,,,,,,,,,,59,0,298.3097,299.98,z,1,1.6649,,[],[],[],[],[],[],[],299.98,301.9783,301.9784,301.9786,[],[],[],[],[],[],[],,,,301.9786,301.9788,0.082324219,-0.415867332,0,0,0,,0,58,58,59,1,1,TL,lirebal,cursive,lirebal_c.png,,,,
,,,,31851,001,2025-10-16_16h59.14.122,HW_LDT_1,2024.2.4,MacIntel,119.047619,,,,,,,,,,,,,,,,,,,,301.9802,302.1799,302.1799,302.679,,,,,,,,,,,,,,1.6635,1,,,,,,,,,,,,,,z,,,,,,,,,,,,,,,60,0,302.6796,304.3463,z,1,1.6635,,[],[],[],[],[],[],[],304.3463,306.3427,306.3428,306.343,[],[],[],[],[],[],[],,,,306.343,306.3431,0.082324219,-0.415867332,0,0,0,,0,59,59,72,1,1,TL,remuse,print,remuse_p.png,,,,
,,,,31851,001,2025-10-16_16h59.14.122,HW_LDT_1,2024.2.4,MacIntel,119.047619,,,,,,,,,,,,,,,,,,,,306.3444,306.5426,306.5427,307.0427,,,,,,,,,,,,,,0.84,1,,,,,,,,,,,,,,z,,,,,,,,,,,,,,,61,1,307.0433,307.8876,z,1,0.84,,[],[],[],[],[],[],[],307.8877,309.8845,309.8846,311.4496,[],[],[],[],[],[],[],z,1.5621,,311.4497,311.4498,0.082324219,-0.415867332,0,0,0,,0,60,60,0,1,1,RL,abanemy,cursive,abanemy_c.png,,,,
,,,,31851,001,2025-10-16_16h59.14.122,HW_LDT_1,2024.2.4,MacIntel,119.047619,,,,,,,,,,,,,,,,,,,,311.4505,311.6469,311.6469,312.1465,,,,,,,,,,,,,,3.2163,1,,,,,,,,,,,,,,z,,,,,,,,,,,,,,,62,0,312.1468,315.3637,z,1,3.2163,,[],[],[],[],[],[],[],315.3637,317.3584,317.3585,317.3586,[],[],[],[],[],[],[],,,,317.3587,317.3588,0.082324219,-0.415867332,0,0,0,,0,61,61,26,1,1,RL,quafidy,cursive,quafidy_c.png,,,,
,,,,31851,001,2025-10-16_16h59.14.122,HW_LDT_1,2024.2.4,MacIntel,119.047619,,,,,,,,,,,,,,,,,,,,317.3599,317.5594,317.5594,318.0594,,,,,,,,,,,,,,1.0622,1,,,,,,,,,,,,,,z,,,,,,,,,,,,,,,63,0,318.0599,319.1266,z,1,1.0622,,[],[],[],[],[],[],[],319.1266,321.1269,321.127,321.1271,[],[],[],[],[],[],[],,,,321.1272,321.1273,0.082324219,-0.415867332,0,0,0,,0,62,62,35,1,1,RL,senvilent,cursive,senvilent_c.png,,,,
,,,,31851,001,2025-10-16_16h59.14.122,HW_LDT_1,2024.2.4,MacIntel,119.047619,,,,,,,,,,,,,,,,,,,,321.1285,321.3269,321.327,321.8268,,,,,,,,,,,,,,0.8201,1,,,,,,,,,,,,,,m,,,,,,,,,,,,,,,64,0,321.8271,322.652,m,1,0.8201,,[],[],[],[],[],[],[],322.6521,324.6522,324.6523,324.6524,[],[],[],[],[],[],[],,,,324.6525,324.6526,0.082324219,-0.415867332,0,0,0,,0,63,63,81,1,1,word,ADVISORY,cursive,advisory_c.png,,,,
,,,,31851,001,2025-10-16_16h59.14.122,HW_LDT_1,2024.2.4,MacIntel,119.047619,,,,,,,,,,,,,,,,,,,,324.6537,324.852,324.8521,325.352,,,,,,,,,,,,,,0.8933,1,,,,,,,,,,,,,,z,,,,,,,,,,,,,,,65,0,325.3526,326.2479,z,1,0.8933,,[],[],[],[],[],[],[],326.2479,328.2434,328.2434,328.2435,[],[],[],[],[],[],[],,,,328.2436,328.2436,0.082324219,-0.415867332,0,0,0,,0,64,64,77,1,1,TL,tritube,cursive,tritube_c.png,,,,
,,,,31851,001,2025-10-16_16h59.14.122,HW_LDT_1,2024.2.4,MacIntel,119.047619,,,,,,,,,,,,,,,,,,,,328.2447,328.4426,328.4426,328.9391,,,,,,,,,,,,,,0.663,1,,,,,,,,,,,,,,m,,,,,,,,,,,,,,,66,0,328.9396,329.6035,m,1,0.663,,[],[],[],[],[],[],[],329.6035,331.6006,331.6006,331.6009,[],[],[],[],[],[],[],,,,331.6009,331.6011,0.082324219,-0.415867332,0,0,0,,0,65,65,83,1,1,word,ANIMAL,print,animal_p.png,,,,
,,,,31851,001,2025-10-16_16h59.14.122,HW_LDT_1,2024.2.4,MacIntel,119.047619,,,,,,,,,,,,,,,,,,,,331.6022,331.8007,331.8007,332.2966,,,,,,,,,,,,,,0.6631,1,,,,,,,,,,,,,,m,,,,,,,,,,,,,,,67,0,332.2971,332.9635,m,1,0.6631,,[],[],[],[],[],[],[],332.9636,334.9592,334.9592,334.9595,[],[],[],[],[],[],[],,,,334.9595,334.9597,0.082324219,-0.415867332,0,0,0,,0,66,66,138,1,1,word,REFUSAL,print,refusal_p.png,,,,
,,,,31851,001,2025-10-16_16h59.14.122,HW_LDT_1,2024.2.4,MacIntel,119.047619,,,,,,,,,,,,,,,,,,,,334.9606,335.1589,335.159,335.6552,,,,,,,,,,,,,,0.713,0,,,,,,,,,,,,,,m,,,,,,,,,,,,,,,68,1,335.6557,336.3719,z,0,0.713,,[],[],[],[],[],[],[],336.3719,338.3724,338.3724,339.7396,[],[],[],[],[],[],[],z,1.366,,339.7397,339.7398,0.082324219,-0.415867332,0,0,0,,0,67,67,140,1,1,word,RELATIVE,cursive,relative_c.png,,,,
,,,,31851,001,2025-10-16_16h59.14.122,HW_LDT_1,2024.2.4,MacIntel,119.047619,,,,,,,,,,,,,,,,,,,,339.7408,339.9393,339.9394,340.4389,,,,,,,,,,,,,,0.7608,1,,,,,,,,,,,,,,z,,,,,,,,,,,,,,,69,1,340.4395,341.2054,z,1,0.7608,,[],[],[],[],[],[],[],341.2054,343.2022,343.2022,344.0186,[],[],[],[],[],[],[],z,0.8156,,344.0186,344.0187,0.082324219,-0.415867332,0,0,0,,0,68,68,36,1,1,RL,speniven,cursive,speniven_c.png,,,,
,,,,31851,001,2025-10-16_16h59.14.122,HW_LDT_1,2024.2.4,MacIntel,119.047619,,,,,,,,,,,,,,,,,,,,344.0194,344.2187,344.2187,344.7173,,,,,,,,,,,,,,0.8717,1,,,,,,,,,,,,,,z,,,,,,,,,,,,,,,70,1,344.7177,345.5945,z,1,0.8717,,[],[],[],[],[],[],[],345.5945,347.5964,347.5966,348.8223,[],[],[],[],[],[],[],z,1.2213,,348.8224,348.8224,0.082324219,-0.415867332,0,0,0,,0,69,69,21,1,1,RL,opcifal,print,opcifal_p.png,,,,
,,,,31851,001,2025-10-16_16h59.14.122,HW_LDT_1,2024.2.4,MacIntel,119.047619,,,,,,,,,,,,,,,,,,,,348.823,349.0225,349.0225,349.5249,,,,,,,,,,,,,,2.0428,1,,,,,,,,,,,,,,m,,,,,,,,,,,,,,,71,0,349.5254,351.5729,m,1,2.0428,,[],[],[],[],[],[],[],351.573,353.5727,353.5728,353.573,[],[],[],[],[],[],[],,,,353.573,353.5731,0.082324219,-0.415867332,0,0,0,,0,70,70,157,1,1,word,VALIDITY,cursive,validity_c.png,,,,
,,,,31851,001,2025-10-16_16h59.14.122,HW_LDT_1,2024.2.4,MacIntel,119.047619,,,,,,,,,,,,,,,,,,,,353.5742,353.7722,353.7723,354.276,,,,,,,,,,,,,,0.7365,1,,,,,,,,,,,,,,z,,,,,,,,,,,,,,,72,0,354.2764,355.0167,z,1,0.7365,,[],[],[],[],[],[],[],355.0167,357.0132,357.0132,357.0135,[],[],[],[],[],[],[],,,,357.0136,357.0137,0.082324219,-0.415867332,0,0,0,,0,71,71,60,1,1,TL,manire,print,manire_p.png,,,,
,,,,31851,001,2025-10-16_16h59.14.122,HW_LDT_1,2024.2.4,MacIntel,119.047619,,,,,,,,,,,,,,,,,,,,357.0148,357.2133,357.2133,357.7136,,,,,,,,,,,,,,0.7339,1,,,,,,,,,,,,,,z,,,,,,,,,,,,,,,73,0,357.714,358.4487,z,1,0.7339,,[],[],[],[],[],[],[],358.4487,360.443,360.443,360.4431,[],[],[],[],[],[],[],,,,360.4431,360.4433,0.082324219,-0.415867332,0,0,0,,0,72,72,54,1,1,TL,distupe,cursive,distupe_c.png,,,,
,,,,31851,001,2025-10-16_16h59.14.122,HW_LDT_1,2024.2.4,MacIntel,119.047619,,,,,,,,,,,,,,,,,,,,360.4441,360.639,360.639,361.1427,,,,,,,,,,,,,,0.7321,1,,,,,,,,,,,,,,z,,,,,,,,,,,,,,,74,0,361.1432,361.8785,z,1,0.7321,,[],[],[],[],[],[],[],361.8785,363.8762,363.8763,363.8765,[],[],[],[],[],[],[],,,,363.8766,363.8767,0.082324219,-0.415867332,0,0,0,,0,73,73,22,1,1,RL,patisic,print,patisic_p.png,,,,
,,,,31851,001,2025-10-16_16h59.14.122,HW_LDT_1,2024.2.4,MacIntel,119.047619,,,,,,,,,,,,,,,,,,,,363.8779,364.0762,364.0764,364.578,,,,,,,,,,,,,,0.9418,1,,,,,,,,,,,,,,m,,,,,,,,,,,,,,,75,0,364.5787,365.525,m,1,0.9418,,[],[],[],[],[],[],[],365.5251,367.5218,367.5219,367.5221,[],[],[],[],[],[],[],,,,367.5221,367.5222,0.082324219,-0.415867332,0,0,0,,0,74,74,116,1,1,word,MARGINAL,print,marginal_p.png,,,,
,,,,31851,001,2025-10-16_16h59.14.122,HW_LDT_1,2024.2.4,MacIntel,119.047619,,,,,,,,,,,,,,,,,,,,367.5233,367.7169,367.717,368.223,,,,,,,,,,,,,,0.7554,1,,,,,,,,,,,,,,z,,,,,,,,,,,,,,,76,0,368.2237,368.9853,z,1,0.7554,,[],[],[],[],[],[],[],368.9854,370.9803,370.9804,370.9806,[],[],[],[],[],[],[],,,,370.9806,370.9807,0.082324219,-0.415867332,0,0,0,,0,75,75,65,1,1,TL,orinigal,cursive,orinigal_c.png,,,,
,,,,31851,001,2025-10-16_16h59.14.122,HW_LDT_1,2024.2.4,MacIntel,119.047619,,,,,,,,,,,,,,,,,,,,370.982,371.1807,371.1809,371.6749,,,,,,,,,,,,,,0.6427,1,,,,,,,,,,,,,,z,,,,,,,,,,,,,,,77,0,371.6755,372.3203,z,1,0.6427,,[],[],[],[],[],[],[],372.3204,374.3221,374.3221,374.3223,[],[],[],[],[],[],[],,,,374.3223,374.3225,0.082324219,-0.415867332,0,0,0,,0,76,76,6,1,1,RL,crisival,print,crisival_p.png,,,,
,,,,31851,001,2025-10-16_16h59.14.122,HW_LDT_1,2024.2.4,MacIntel,119.047619,,,,,,,,,,,,,,,,,,,,374.3237,374.518,374.518,375.0182,,,,,,,,,,,,,,0.6986,1,,,,,,,,,,,,,,m,,,,,,,,,,,,,,,78,0,375.0186,375.72,m,1,0.6986,,[],[],[],[],[],[],[],375.7201,377.7204,377.7204,377.7205,[],[],[],[],[],[],[],,,,377.7205,377.7206,0.082324219,-0.415867332,0,0,0,,0,77,77,136,1,1,word,RADICAL,print,radical_p.png,,,,
,,,,31851,001,2025-10-16_16h59.14.122,HW_LDT_1,2024.2.4,MacIntel,119.047619,,,,,,,,,,,,,,,,,,,,377.7216,377.9215,377.9215,378.42,,,,,,,,,,,,,,0.6308,1,,,,,,,,,,,,,,z,,,,,,,,,,,,,,,79,0,378.4206,379.0544,z,1,0.6308,,[],[],[],[],[],[],[],379.0544,381.0513,381.0514,381.0516,[],[],[],[],[],[],[],,,,381.0516,381.0517,0.082324219,-0.415867332,0,0,0,,0,78,78,19,1,1,RL,monebate,print,monebate_p.png,,,,
,,,,31851,001,2025-10-16_16h59.14.122,HW_LDT_1,2024.2.4,MacIntel,119.047619,,,,,,,,,,,,,,,,,,,,381.0526,381.2514,381.2515,381.7535,,,,,,,,,,,,,,0.6622,1,,,,,,,,,,,,,,m,,,,,,,,,,,,,,,80,0,381.7541,382.4213,m,1,0.6622,,[],[],[],[],[],[],[],382.4213,384.4165,384.4165,384.4167,[],[],[],[],[],[],[],,,,384.4168,461.2496,0.081054688,-0.42421875,0,0,0,space,0,79,79,106,1,1,word,ELABORATE,print,elaborate_p.png,76.8116,,,
,,,,31851,001,2025-10-16_16h59.14.122,HW_LDT_1,2024.2.4,MacIntel,119.047619,,,,,,,,,,,,,,,,,,,,461.2508,461.4463,461.4463,461.9514,,,,,,,,,,,,,,0.8697,1,,,,,,,,,,,,,,m,,,,,,,,,,,,,,,81,0,461.952,462.8266,m,1,0.8697,,[],[],[],[],[],[],[],462.8267,464.8261,464.8263,464.8265,[],[],[],[],[],[],[],,,,464.8265,464.8266,0.081054688,-0.42421875,0,0,0,,0,80,80,82,1,1,word,AMATEUR,print,amateur_p.png,,,,
,,,,31851,001,2025-10-16_16h59.14.122,HW_LDT_1,2024.2.4,MacIntel,119.047619,,,,,,,,,,,,,,,,,,,,464.8278,465.0261,465.0263,465.5265,,,,,,,,,,,,,,0.8805,1,,,,,,,,,,,,,,z,,,,,,,,,,,,,,,82,1,465.527,466.4081,z,1,0.8805,,[],[],[],[],[],[],[],466.4081,468.4042,468.4042,469.304,[],[],[],[],[],[],[],m,0.8958,,469.304,469.3041,0.081054688,-0.42421875,0,0,0,,0,81,81,62,1,1,TL,mitilary,print,mitilary_p.png,,,,
,,,,31851,001,2025-10-16_16h59.14.122,HW_LDT_1,2024.2.4,MacIntel,119.047619,,,,,,,,,,,,,,,,,,,,469.3049,469.5006,469.5006,470.0011,,,,,,,,,,,,,,0.8049,0,,,,,,,,,,,,,,m,,,,,,,,,,,,,,,83,0,470.0016,470.8096,z,0,0.8049,,[],[],[],[],[],[],[],470.8097,472.8106,472.8107,472.8108,[],[],[],[],[],[],[],,,,472.8108,472.8108,0.081054688,-0.42421875,0,0,0,,0,82,82,110,1,1,word,HERITAGE,cursive,heritage_c.png,,,,
,,,,31851,001,2025-10-16_16h59.14.122,HW_LDT_1,2024.2.4,MacIntel,119.047619,,,,,,,,,,,,,,,,,,,,472.812,473.0107,473.0107,473.5106,,,,,,,,,,,,,,0.6947,1,,,,,,,,,,,,,,z,,,,,,,,,,,,,,,84,0,473.5111,474.2104,z,1,0.6947,,[],[],[],[],[],[],[],474.2105,476.2109,476.211,476.2112,[],[],[],[],[],[],[],,,,476.2112,476.2113,0.081054688,-0.42421875,0,0,0,,0,83,83,42,1,1,TL,befenit,print,befenit_p.png,,,,
,,,,31851,001,2025-10-16_16h59.14.122,HW_LDT_1,2024.2.4,MacIntel,119.047619,,,,,,,,,,,,,,,,,,,,476.2123,476.4107,476.4107,476.9064,,,,,,,,,,,,,,1.1633,1,,,,,,,,,,,,,,m,,,,,,,,,,,,,,,85,1,476.907,478.0718,m,1,1.1633,,[],[],[],[],[],[],[],478.0718,480.0682,480.0683,483.2055,[],[],[],[],[],[],[],m,3.1317,,483.2056,483.2056,0.081054688,-0.42421875,0,0,0,,0,84,84,113,1,1,word,LITERAL,print,literal_p.png,,,,
,,,,31851,001,2025-10-16_16h59.14.122,HW_LDT_1,2024.2.4,MacIntel,119.047619,,,,,,,,,,,,,,,,,,,,483.2061,483.4051,483.4051,483.9013,,,,,,,,,,,,,,1.78,1,,,,,,,,,,,,,,m,,,,,,,,,,,,,,,86,0,483.9018,485.6865,m,1,1.78,,[],[],[],[],[],[],[],485.6866,487.6875,487.6875,487.6877,[],[],[],[],[],[],[],,,,487.6878,487.6879,0.081054688,-0.42421875,0,0,0,,0,85,85,131,1,1,word,POPULAR,cursive,popular_c.png,,,,
,,,,31851,001,2025-10-16_16h59.14.122,HW_LDT_1,2024.2.4,MacIntel,119.047619,,,,,,,,,,,,,,,,,,,,487.6891,487.8885,487.8885,488.3886,,,,,,,,,,,,,,0.9524,1,,,,,,,,,,,,,,m,,,,,,,,,,,,,,,87,0,488.389,489.3486,m,1,0.9524,,[],[],[],[],[],[],[],489.3488,491.3465,491.3466,491.3468,[],[],[],[],[],[],[],,,,491.3469,491.347,0.081054688,-0.42421875,0,0,0,,0,86,86,155,1,1,word,STRATEGY,cursive,strategy_c.png,,,,
,,,,31851,001,2025-10-16_16h59.14.122,HW_LDT_1,2024.2.4,MacIntel,119.047619,,,,,,,,,,,,,,,,,,,,491.3482,491.5442,491.5442,492.0433,,,,,,,,,,,,,,0.5865,1,,,,,,,,,,,,,,z,,,,,,,,,,,,,,,88,0,492.0434,492.6352,z,1,0.5865,,[],[],[],[],[],[],[],492.6352,494.635,494.635,494.6353,[],[],[],[],[],[],[],,,,494.6353,494.6354,0.081054688,-0.42421875,0,0,0,,0,87,87,30,1,1,RL,relone,print,relone_p.png,,,,
,,,,31851,001,2025-10-16_16h59.14.122,HW_LDT_1,2024.2.4,MacIntel,119.047619,,,,,,,,,,,,,,,,,,,,494.6365,494.8306,494.8306,495.3344,,,,,,,,,,,,,,0.7284,1,,,,,,,,,,,,,,z,,,,,,,,,,,,,,,89,1,495.3349,496.0683,z,1,0.7284,,[],[],[],[],[],[],[],496.0684,498.0686,498.0687,499.8599,[],[],[],[],[],[],[],m,1.7874,,499.8599,499.86,0.081054688,-0.42421875,0,0,0,,0,88,88,4,1,1,RL,carminal,print,carminal_p.png,,,,
,,,,31851,001,2025-10-16_16h59.14.122,HW_LDT_1,2024.2.4,MacIntel,119.047619,,,,,,,,,,,,,,,,,,,,499.8606,500.0607,500.0607,500.5599,,,,,,,,,,,,,,0.7204,1,,,,,,,,,,,,,,m,,,,,,,,,,,,,,,90,0,500.5604,501.2849,m,1,0.7204,,[],[],[],[],[],[],[],501.285,503.286,503.286,503.2862,[],[],[],[],[],[],[],,,,503.2862,503.2863,0.081054688,-0.42421875,0,0,0,,0,89,89,130,1,1,word,POLICY,cursive,policy_c.png,,,,
,,,,31851,001,2025-10-16_16h59.14.122,HW_LDT_1,2024.2.4,MacIntel,119.047619,,,,,,,,,,,,,,,,,,,,503.2871,503.4859,503.4859,503.986,,,,,,,,,,,,,,0.5941,1,,,,,,,,,,,,,,z,,,,,,,,,,,,,,,91,0,503.9866,504.586,z,1,0.5941,,[],[],[],[],[],[],[],504.5861,506.5862,506.5862,506.5864,[],[],[],[],[],[],[],,,,506.5865,506.5866,0.081054688,-0.42421875,0,0,0,,0,90,90,12,1,1,RL,ebiwent,print,ebiwent_p.png,,,,
,,,,31851,001,2025-10-16_16h59.14.122,HW_LDT_1,2024.2.4,MacIntel,119.047619,,,,,,,,,,,,,,,,,,,,506.5878,506.7859,506.786,507.2812,,,,,,,,,,,,,,1.4668,1,,,,,,,,,,,,,,z,,,,,,,,,,,,,,,92,1,507.2819,508.751,z,1,1.4668,,[],[],[],[],[],[],[],508.7511,510.7511,510.7511,511.9222,[],[],[],[],[],[],[],m,1.1706,,511.9223,511.9224,0.081054688,-0.42421875,0,0,0,,0,91,91,24,1,1,RL,probice,print,probice_p.png,,,,
,,,,31851,001,2025-10-16_16h59.14.122,HW_LDT_1,2024.2.4,MacIntel,119.047619,,,,,,,,,,,,,,,,,,,,511.9234,512.1226,512.1226,512.618,,,,,,,,,,,,,,0.8431,1,,,,,,,,,,,,,,z,,,,,,,,,,,,,,,93,0,512.6185,513.4651,z,1,0.8431,,[],[],[],[],[],[],[],513.4651,515.464,515.464,515.4642,[],[],[],[],[],[],[],,,,515.4643,515.4644,0.081054688,-0.42421875,0,0,0,,0,92,92,3,1,1,RL,casena,cursive,casena_c.png,,,,
,,,,31851,001,2025-10-16_16h59.14.122,HW_LDT_1,2024.2.4,MacIntel,119.047619,,,,,,,,,,,,,,,,,,,,515.4656,515.6602,515.6602,516.1624,,,,,,,,,,,,,,1.0567,1,,,,,,,,,,,,,,z,,,,,,,,,,,,,,,94,0,516.1629,517.2226,z,1,1.0567,,[],[],[],[],[],[],[],517.2228,519.2227,519.2227,519.223,[],[],[],[],[],[],[],,,,519.223,519.2231,0.081054688,-0.42421875,0,0,0,,0,93,93,61,1,1,TL,mecidine,cursive,mecidine_c.png,,,,
,,,,31851,001,2025-10-16_16h59.14.122,HW_LDT_1,2024.2.4,MacIntel,119.047619,,,,,,,,,,,,,,,,,,,,519.2243,519.4228,519.4228,519.9228,,,,,,,,,,,,,,0.7734,0,,,,,,,,,,,,,,z,,,,,,,,,,,,,,,95,0,519.9233,520.702,m,0,0.7734,,[],[],[],[],[],[],[],520.7021,522.7018,522.7018,522.702,[],[],[],[],[],[],[],,,,522.7021,522.7022,0.081054688,-0.42421875,0,0,0,,0,94,94,66,1,1,TL,panert,cursive,panert_c.png,,,,
,,,,31851,001,2025-10-16_16h59.14.122,HW_LDT_1,2024.2.4,MacIntel,119.047619,,,,,,,,,,,,,,,,,,,,522.7035,522.9021,522.9022,523.4025,,,,,,,,,,,,,,0.731,1,,,,,,,,,,,,,,z,,,,,,,,,,,,,,,96,0,523.403,524.1353,z,1,0.731,,[],[],[],[],[],[],[],524.1354,526.1298,526.1299,526.13,[],[],[],[],[],[],[],,,,526.1301,526.1302,0.081054688,-0.42421875,0,0,0,,0,95,95,13,1,1,RL,linefal,print,linefal_p.png,,,,
,,,,31851,001,2025-10-16_16h59.14.122,HW_LDT_1,2024.2.4,MacIntel,119.047619,,,,,,,,,,,,,,,,,,,,526.1314,526.3303,526.3304,526.8303,,,,,,,,,,,,,,0.8279,1,,,,,,,,,,,,,,m,,,,,,,,,,,,,,,97,0,526.8308,527.6633,m,1,0.8279,,[],[],[],[],[],[],[],527.6634,529.6632,529.6633,529.6635,[],[],[],[],[],[],[],,,,529.6636,529.6636,0.081054688,-0.42421875,0,0,0,,0,96,96,122,1,1,word,MOBILE,cursive,mobile_c.png,,,,
,,,,31851,001,2025-10-16_16h59.14.122,HW_LDT_1,2024.2.4,MacIntel,119.047619,,,,,,,,,,,,,,,,,,,,529.6648,529.8596,529.8597,530.3599,,,,,,,,,,,,,,0.6388,1,,,,,,,,,,,,,,z,,,,,,,,,,,,,,,98,1,530.3603,531.0021,z,1,0.6388,,[],[],[],[],[],[],[],531.0022,533.0017,533.0017,534.2776,[],[],[],[],[],[],[],z,1.2705,,534.2776,534.2777,0.081054688,-0.42421875,0,0,0,,0,97,97,55,1,1,TL,fornute,print,fornute_p.png,,,,
,,,,31851,001,2025-10-16_16h59.14.122,HW_LDT_1,2024.2.4,MacIntel,119.047619,,,,,,,,,,,,,,,,,,,,534.2784,534.4778,534.4778,534.9777,,,,,,,,,,,,,,0.7857,1,,,,,,,,,,,,,,z,,,,,,,,,,,,,,,99,0,534.9783,535.7697,z,1,0.7857,,[],[],[],[],[],[],[],535.7698,537.7694,537.7694,537.7695,[],[],[],[],[],[],[],,,,537.7695,537.7696,0.081054688,-0.42421875,0,0,0,,0,98,98,31,1,1,RL,reconal,cursive,reconal_c.png,,,,
,,,,31851,001,2025-10-16_16h59.14.122,HW_LDT_1,2024.2.4,MacIntel,119.047619,,,,,,,,,,,,,,,,,,,,537.7703,537.9693,537.9694,538.4652,,,,,,,,,,,,,,0.6401,1,,,,,,,,,,,,,,z,,,,,,,,,,,,,,,100,0,538.4659,539.1112,z,1,0.6401,,[],[],[],[],[],[],[],539.1112,541.11,541.1101,541.1103,[],[],[],[],[],[],[],,,,541.1103,541.1104,0.081054688,-0.42421875,0,0,0,,0,99,99,37,1,1,RL,skofen,print,skofen_p.png,,,,
,,,,31851,001,2025-10-16_16h59.14.122,HW_LDT_1,2024.2.4,MacIntel,119.047619,,,,,,,,,,,,,,,,,,,,541.1117,541.306,541.306,541.8059,,,,,,,,,,,,,,0.6449,1,,,,,,,,,,,,,,m,,,,,,,,,,,,,,,101,0,541.8065,542.4559,m,1,0.6449,,[],[],[],[],[],[],[],542.456,544.4514,544.4515,544.4518,[],[],[],[],[],[],[],,,,544.4518,544.452,0.081054688,-0.42421875,0,0,0,,0,100,100,117,1,1,word,MARINE,print,marine_p.png,,,,
,,,,31851,001,2025-10-16_16h59.14.122,HW_LDT_1,2024.2.4,MacIntel,119.047619,,,,,,,,,,,,,,,,,,,,544.4532,544.6519,544.652,545.1504,,,,,,,,,,,,,,0.7248,1,,,,,,,,,,,,,,z,,,,,,,,,,,,,,,102,0,545.151,545.8769,z,1,0.7248,,[],[],[],[],[],[],[],545.8769,547.8779,547.878,547.8782,[],[],[],[],[],[],[],,,,547.8783,547.8784,0.081054688,-0.42421875,0,0,0,,0,101,101,63,1,1,TL,molibe,cursive,molibe_c.png,,,,
,,,,31851,001,2025-10-16_16h59.14.122,HW_LDT_1,2024.2.4,MacIntel,119.047619,,,,,,,,,,,,,,,,,,,,547.8797,548.08,548.0801,548.5774,,,,,,,,,,,,,,0.7158,1,,,,,,,,,,,,,,z,,,,,,,,,,,,,,,103,0,548.5779,549.2944,z,1,0.7158,,[],[],[],[],[],[],[],549.2944,551.2915,551.2916,551.2918,[],[],[],[],[],[],[],,,,551.2918,551.2919,0.081054688,-0.42421875,0,0,0,,0,102,102,52,1,1,TL,decilate,cursive,decilate_c.png,,,,
,,,,31851,001,2025-10-16_16h59.14.122,HW_LDT_1,2024.2.4,MacIntel,119.047619,,,,,,,,,,,,,,,,,,,,551.2929,551.4917,551.4918,551.9918,,,,,,,,,,,,,,0.6455,1,,,,,,,,,,,,,,m,,,,,,,,,,,,,,,104,0,551.9922,552.6432,m,1,0.6455,,[],[],[],[],[],[],[],552.6432,554.6436,554.6436,554.6437,[],[],[],[],[],[],[],,,,554.6437,554.6438,0.081054688,-0.42421875,0,0,0,,0,103,103,147,1,1,word,ROMANTIC,cursive,romantic_c.png,,,,
,,,,31851,001,2025-10-16_16h59.14.122,HW_LDT_1,2024.2.4,MacIntel,119.047619,,,,,,,,,,,,,,,,,,,,554.6446,554.8434,554.8434,555.3443,,,,,,,,,,,,,,0.994,1,,,,,,,,,,,,,,z,,,,,,,,,,,,,,,105,0,555.3448,556.3446,z,1,0.994,,[],[],[],[],[],[],[],556.3447,558.3439,558.344,558.3441,[],[],[],[],[],[],[],,,,558.3442,558.3442,0.081054688,-0.42421875,0,0,0,,0,104,104,71,1,1,TL,regilion,cursive,regilion_c.png,,,,
,,,,31851,001,2025-10-16_16h59.14.122,HW_LDT_1,2024.2.4,MacIntel,119.047619,,,,,,,,,,,,,,,,,,,,558.3453,558.5444,558.5445,559.0397,,,,,,,,,,,,,,0.7024,1,,,,,,,,,,,,,,z,,,,,,,,,,,,,,,106,0,559.0403,559.7477,z,1,0.7024,,[],[],[],[],[],[],[],559.7478,561.7463,561.7463,561.7466,[],[],[],[],[],[],[],,,,561.7467,561.7468,0.081054688,-0.42421875,0,0,0,,0,105,105,29,1,1,RL,refakive,cursive,refakive_c.png,,,,
,,,,31851,001,2025-10-16_16h59.14.122,HW_LDT_1,2024.2.4,MacIntel,119.047619,,,,,,,,,,,,,,,,,,,,561.7479,561.9432,561.9432,562.4467,,,,,,,,,,,,,,1.66,1,,,,,,,,,,,,,,m,,,,,,,,,,,,,,,107,0,562.4473,564.1135,m,1,1.66,,[],[],[],[],[],[],[],564.1136,566.1117,566.1118,566.112,[],[],[],[],[],[],[],,,,566.112,566.1121,0.081054688,-0.42421875,0,0,0,,0,106,106,141,1,1,word,RELIGION,cursive,religion_c.png,,,,
,,,,31851,001,2025-10-16_16h59.14.122,HW_LDT_1,2024.2.4,MacIntel,119.047619,,,,,,,,,,,,,,,,,,,,566.113,566.3118,566.3118,566.806,,,,,,,,,,,,,,0.9355,1,,,,,,,,,,,,,,m,,,,,,,,,,,,,,,108,1,566.8066,567.7463,m,1,0.9355,,[],[],[],[],[],[],[],567.7463,569.746,569.746,571.0228,[],[],[],[],[],[],[],z,1.2716,,571.0229,571.023,0.081054688,-0.42421875,0,0,0,,0,107,107,93,1,1,word,CEREMONY,cursive,ceremony_c.png,,,,
,,,,31851,001,2025-10-16_16h59.14.122,HW_LDT_1,2024.2.4,MacIntel,119.047619,,,,,,,,,,,,,,,,,,,,571.0239,571.2239,571.2239,571.7194,,,,,,,,,,,,,,1.4994,1,,,,,,,,,,,,,,m,,,,,,,,,,,,,,,109,0,571.72,573.2235,m,1,1.4994,,[],[],[],[],[],[],[],573.2235,575.219,575.219,575.2193,[],[],[],[],[],[],[],,,,575.2194,575.2195,0.081054688,-0.42421875,0,0,0,,0,108,108,80,1,1,word,ACADEMY,cursive,academy_c.png,,,,
,,,,31851,001,2025-10-16_16h59.14.122,HW_LDT_1,2024.2.4,MacIntel,119.047619,,,,,,,,,,,,,,,,,,,,575.2208,575.4187,575.4187,575.9144,,,,,,,,,,,,,,0.8869,1,,,,,,,,,,,,,,m,,,,,,,,,,,,,,,110,0,575.915,576.8056,m,1,0.8869,,[],[],[],[],[],[],[],576.8057,578.8062,578.8063,578.8066,[],[],[],[],[],[],[],,,,578.8067,578.8067,0.081054688,-0.42421875,0,0,0,,0,109,109,158,1,1,word,VELOCITY,print,velocity_p.png,,,,
,,,,31851,001,2025-10-16_16h59.14.122,HW_LDT_1,2024.2.4,MacIntel,119.047619,,,,,,,,,,,,,,,,,,,,578.8081,579.0087,579.0087,579.5088,,,,,,,,,,,,,,0.6723,1,,,,,,,,,,,,,,z,,,,,,,,,,,,,,,111,0,579.5093,580.1848,z,1,0.6723,,[],[],[],[],[],[],[],580.185,582.1812,582.1813,582.1814,[],[],[],[],[],[],[],,,,582.1815,582.1815,0.081054688,-0.42421875,0,0,0,,0,110,110,8,1,1,RL,debave,print,debave_p.png,,,,
,,,,31851,001,2025-10-16_16h59.14.122,HW_LDT_1,2024.2.4,MacIntel,119.047619,,,,,,,,,,,,,,,,,,,,582.1825,582.3815,582.3816,582.8806,,,,,,,,,,,,,,0.6898,1,,,,,,,,,,,,,,m,,,,,,,,,,,,,,,112,0,582.8811,583.5748,m,1,0.6898,,[],[],[],[],[],[],[],583.575,585.5753,585.5753,585.5755,[],[],[],[],[],[],[],,,,585.5755,585.5755,0.081054688,-0.42421875,0,0,0,,0,111,111,133,1,1,word,PROVIDE,print,provide_p.png,,,,
,,,,31851,001,2025-10-16_16h59.14.122,HW_LDT_1,2024.2.4,MacIntel,119.047619,,,,,,,,,,,,,,,,,,,,585.5765,585.7746,585.7746,586.2761,,,,,,,,,,,,,,0.7614,1,,,,,,,,,,,,,,z,,,,,,,,,,,,,,,113,0,586.2766,587.0435,z,1,0.7614,,[],[],[],[],[],[],[],587.0437,589.0425,589.0425,589.0427,[],[],[],[],[],[],[],,,,589.0428,589.0429,0.081054688,-0.42421875,0,0,0,,0,112,112,50,1,1,TL,condiser,cursive,condiser_c.png,,,,
,,,,31851,001,2025-10-16_16h59.14.122,HW_LDT_1,2024.2.4,MacIntel,119.047619,,,,,,,,,,,,,,,,,,,,589.0439,589.2389,589.2389,589.7445,,,,,,,,,,,,,,0.7263,1,,,,,,,,,,,,,,m,,,,,,,,,,,,,,,114,0,589.7448,590.4743,m,1,0.7263,,[],[],[],[],[],[],[],590.4744,592.4739,592.4739,592.4742,[],[],[],[],[],[],[],,,,592.4743,592.4744,0.081054688,-0.42421875,0,0,0,,0,113,113,98,1,1,word,CRIMINAL,print,criminal_p.png,,,,
,,,,31851,001,2025-10-16_16h59.14.122,HW_LDT_1,2024.2.4,MacIntel,119.047619,,,,,,,,,,,,,,,,,,,,592.4756,592.6713,592.6714,593.1735,,,,,,,,,,,,,,0.7373,1,,,,,,,,,,,,,,m,,,,,,,,,,,,,,,115,0,593.1739,593.9121,m,1,0.7373,,[],[],[],[],[],[],[],593.9121,595.9065,595.9066,595.9068,[],[],[],[],[],[],[],,,,595.9069,595.907,0.081054688,-0.42421875,0,0,0,,0,114,114,154,1,1,word,STORAGE,cursive,storage_c.png,,,,
,,,,31851,001,2025-10-16_16h59.14.122,HW_LDT_1,2024.2.4,MacIntel,119.047619,,,,,,,,,,,,,,,,,,,,595.9083,596.1057,596.1057,596.6057,,,,,,,,,,,,,,0.5614,1,,,,,,,,,,,,,,m,,,,,,,,,,,,,,,116,0,596.6063,597.1728,m,1,0.5614,,[],[],[],[],[],[],[],597.1728,599.1672,599.1672,599.1673,[],[],[],[],[],[],[],,,,599.1674,599.1674,0.081054688,-0.42421875,0,0,0,,0,115,115,124,1,1,word,NUMERICAL,print,numerical_p.png,,,,
,,,,31851,001,2025-10-16_16h59.14.122,HW_LDT_1,2024.2.4,MacIntel,119.047619,,,,,,,,,,,,,,,,,,,,599.1688,599.3677,599.3677,599.8685,,,,,,,,,,,,,,0.8102,1,,,,,,,,,,,,,,z,,,,,,,,,,,,,,,117,0,599.869,600.6826,z,1,0.8102,,[],[],[],[],[],[],[],600.6827,602.677,602.677,602.6772,[],[],[],[],[],[],[],,,,602.6773,602.6775,0.081054688,-0.42421875,0,0,0,,0,116,116,68,1,1,TL,prosopal,cursive,prosopal_c.png,,,,
,,,,31851,001,2025-10-16_16h59.14.122,HW_LDT_1,2024.2.4,MacIntel,119.047619,,,,,,,,,,,,,,,,,,,,602.6789,602.8782,602.8782,603.3756,,,,,,,,,,,,,,0.7878,1,,,,,,,,,,,,,,m,,,,,,,,,,,,,,,118,0,603.3762,604.168,m,1,0.7878,,[],[],[],[],[],[],[],604.168,606.1669,606.1669,606.1671,[],[],[],[],[],[],[],,,,606.1671,606.1671,0.081054688,-0.42421875,0,0,0,,0,117,117,156,1,1,word,TRIBUTE,cursive,tribute_c.png,,,,
,,,,31851,001,2025-10-16_16h59.14.122,HW_LDT_1,2024.2.4,MacIntel,119.047619,,,,,,,,,,,,,,,,,,,,606.1681,606.3642,606.3642,606.8644,,,,,,,,,,,,,,1.6572,1,,,,,,,,,,,,,,m,,,,,,,,,,,,,,,119,0,606.865,608.5232,m,1,1.6572,,[],[],[],[],[],[],[],608.5232,610.5179,610.518,610.5182,[],[],[],[],[],[],[],,,,610.5182,610.5183,0.081054688,-0.42421875,0,0,0,,0,118,118,152,1,1,word,SPECIMEN,cursive,specimen_c.png,,,,
,,,,31851,001,2025-10-16_16h59.14.122,HW_LDT_1,2024.2.4,MacIntel,119.047619,,,,,,,,,,,,,,,,,,,,610.5194,610.7179,610.7179,611.2184,,,,,,,,,,,,,,3.7533,1,,,,,,,,,,,,,,m,,,,,,,,,,,,,,,120,0,611.219,614.9728,m,1,3.7533,,[],[],[],[],[],[],[],614.9729,616.9703,616.9704,616.9706,[],[],[],[],[],[],[],,,,616.9707,616.9708,0.081054688,-0.42421875,0,0,0,,0,119,119,119,1,1,word,MEMORY,cursive,memory_c.png,,,,
,,,,31851,001,2025-10-16_16h59.14.122,HW_LDT_1,2024.2.4,MacIntel,119.047619,,,,,,,,,,,,,,,,,,,,616.9724,617.1685,617.1685,617.6685,,,,,,,,,,,,,,1.0337,1,,,,,,,,,,,,,,z,,,,,,,,,,,,,,,121,1,617.669,618.7062,z,1,1.0337,,[],[],[],[],[],[],[],618.7063,620.7063,620.7064,622.0521,[],[],[],[],[],[],[],z,1.3419,,622.0521,622.0521,0.081054688,-0.42421875,0,0,0,,0,120,120,10,1,1,RL,efibor,cursive,efibor_c.png,,,,
,,,,31851,001,2025-10-16_16h59.14.122,HW_LDT_1,2024.2.4,MacIntel,119.047619,,,,,,,,,,,,,,,,,,,,622.0528,622.2484,622.2485,622.7479,,,,,,,,,,,,,,1.3666,1,,,,,,,,,,,,,,z,,,,,,,,,,,,,,,122,0,622.7486,624.1173,z,1,1.3666,,[],[],[],[],[],[],[],624.1173,626.1148,626.1148,626.1149,[],[],[],[],[],[],[],,,,626.115,626.1152,0.081054688,-0.42421875,0,0,0,,0,121,121,74,1,1,TL,setanor,cursive,setanor_c.png,,,,
,,,,31851,001,2025-10-16_16h59.14.122,HW_LDT_1,2024.2.4,MacIntel,119.047619,,,,,,,,,,,,,,,,,,,,626.1163,626.3172,626.3172,626.8092,,,,,,,,,,,,,,0.6006,1,,,,,,,,,,,,,,m,,,,,,,,,,,,,,,123,0,626.8098,627.4131,m,1,0.6006,,[],[],[],[],[],[],[],627.4132,629.4129,629.413,629.4131,[],[],[],[],[],[],[],,,,629.4132,629.4133,0.081054688,-0.42421875,0,0,0,,0,122,122,120,1,1,word,MILITARY,print,military_p.png,,,,
,,,,31851,001,2025-10-16_16h59.14.122,HW_LDT_1,2024.2.4,MacIntel,119.047619,,,,,,,,,,,,,,,,,,,,629.4143,629.6137,629.6137,630.114,,,,,,,,,,,,,,0.6546,1,,,,,,,,,,,,,,z,,,,,,,,,,,,,,,124,0,630.1143,630.7728,z,1,0.6546,,[],[],[],[],[],[],[],630.7729,632.7683,632.7683,632.7686,[],[],[],[],[],[],[],,,,632.7687,632.7688,0.081054688,-0.42421875,0,0,0,,0,123,123,70,1,1,TL,relugar,print,relugar_p.png,,,,
,,,,31851,001,2025-10-16_16h59.14.122,HW_LDT_1,2024.2.4,MacIntel,119.047619,,,,,,,,,,,,,,,,,,,,632.7699,632.9641,632.9641,633.4643,,,,,,,,,,,,,,0.8897,1,,,,,,,,,,,,,,z,,,,,,,,,,,,,,,125,0,633.4649,634.3592,z,1,0.8897,,[],[],[],[],[],[],[],634.3594,636.3572,636.3572,636.3573,[],[],[],[],[],[],[],,,,636.3574,636.3575,0.081054688,-0.42421875,0,0,0,,0,124,124,41,1,1,TL,bevoled,print,bevoled_p.png,,,,
,,,,31851,001,2025-10-16_16h59.14.122,HW_LDT_1,2024.2.4,MacIntel,119.047619,,,,,,,,,,,,,,,,,,,,636.3586,636.5568,636.5568,637.0519,,,,,,,,,,,,,,0.6325,0,,,,,,,,,,,,,,m,,,,,,,,,,,,,,,126,0,637.0524,637.6895,z,0,0.6325,,[],[],[],[],[],[],[],637.6895,639.6865,639.6866,639.6869,[],[],[],[],[],[],[],,,,639.6869,639.6871,0.081054688,-0.42421875,0,0,0,,0,125,125,101,1,1,word,DELICATE,cursive,delicate_c.png,,,,
,,,,31851,001,2025-10-16_16h59.14.122,HW_LDT_1,2024.2.4,MacIntel,119.047619,,,,,,,,,,,,,,,,,,,,639.6881,639.8863,639.8863,640.3822,,,,,,,,,,,,,,0.5863,1,,,,,,,,,,,,,,m,,,,,,,,,,,,,,,127,0,640.3829,640.9736,m,1,0.5863,,[],[],[],[],[],[],[],640.9737,642.973,642.9731,642.9733,[],[],[],[],[],[],[],,,,642.9734,642.9734,0.081054688,-0.42421875,0,0,0,,0,126,126,99,1,1,word,DEBATE,print,debate_p.png,,,,
,,,,31851,001,2025-10-16_16h59.14.122,HW_LDT_1,2024.2.4,MacIntel,119.047619,,,,,,,,,,,,,,,,,,,,642.9746,643.1738,643.1739,643.6734,,,,,,,,,,,,,,0.5591,1,,,,,,,,,,,,,,m,,,,,,,,,,,,,,,128,0,643.6738,644.2334,m,1,0.5591,,[],[],[],[],[],[],[],644.2335,646.2329,646.233,646.2331,[],[],[],[],[],[],[],,,,646.2332,646.2332,0.081054688,-0.42421875,0,0,0,,0,127,127,123,1,1,word,MODERATE,print,moderate_p.png,,,,
,,,,31851,001,2025-10-16_16h59.14.122,HW_LDT_1,2024.2.4,MacIntel,119.047619,,,,,,,,,,,,,,,,,,,,646.2341,646.4309,646.4309,646.9355,,,,,,,,,,,,,,0.8179,1,,,,,,,,,,,,,,m,,,,,,,,,,,,,,,129,0,646.9361,647.7556,m,1,0.8179,,[],[],[],[],[],[],[],647.7556,649.7546,649.7546,649.7548,[],[],[],[],[],[],[],,,,649.7548,649.7549,0.081054688,-0.42421875,0,0,0,,0,128,128,90,1,1,word,CAPITAL,print,capital_p.png,,,,
,,,,31851,001,2025-10-16_16h59.14.122,HW_LDT_1,2024.2.4,MacIntel,119.047619,,,,,,,,,,,,,,,,,,,,649.7559,649.9552,649.9552,650.4552,,,,,,,,,,,,,,0.5968,1,,,,,,,,,,,,,,z,,,,,,,,,,,,,,,130,0,650.4556,651.0552,z,1,0.5968,,[],[],[],[],[],[],[],651.0553,653.0506,653.0507,653.0509,[],[],[],[],[],[],[],,,,653.0509,653.0512,0.081054688,-0.42421875,0,0,0,,0,129,129,7,1,1,RL,delahe,print,delahe_p.png,,,,
,,,,31851,001,2025-10-16_16h59.14.122,HW_LDT_1,2024.2.4,MacIntel,119.047619,,,,,,,,,,,,,,,,,,,,653.0525,653.2516,653.2516,653.7508,,,,,,,,,,,,,,0.8132,1,,,,,,,,,,,,,,z,,,,,,,,,,,,,,,131,0,653.7514,654.5685,z,1,0.8132,,[],[],[],[],[],[],[],654.5685,656.5645,656.5646,656.5648,[],[],[],[],[],[],[],,,,656.5649,656.5649,0.081054688,-0.42421875,0,0,0,,0,130,130,45,1,1,TL,cacapity,print,cacapity_p.png,,,,
,,,,31851,001,2025-10-16_16h59.14.122,HW_LDT_1,2024.2.4,MacIntel,119.047619,,,,,,,,,,,,,,,,,,,,656.5661,656.7644,656.7644,657.2644,,,,,,,,,,,,,,1.2223,1,,,,,,,,,,,,,,z,,,,,,,,,,,,,,,132,0,657.2648,658.4901,z,1,1.2223,,[],[],[],[],[],[],[],658.4902,660.4888,660.4888,660.4891,[],[],[],[],[],[],[],,,,660.4891,660.4892,0.081054688,-0.42421875,0,0,0,,0,131,131,46,1,1,TL,catipal,print,catipal_p.png,,,,
,,,,31851,001,2025-10-16_16h59.14.122,HW_LDT_1,2024.2.4,MacIntel,119.047619,,,,,,,,,,,,,,,,,,,,660.4906,660.689,660.689,661.1891,,,,,,,,,,,,,,0.7932,1,,,,,,,,,,,,,,z,,,,,,,,,,,,,,,133,1,661.1896,661.9897,z,1,0.7932,,[],[],[],[],[],[],[],661.9897,663.985,663.9851,664.8407,[],[],[],[],[],[],[],m,0.853,,664.8408,664.8409,0.081054688,-0.42421875,0,0,0,,0,132,132,56,1,1,TL,grafetul,print,grafetul_p.png,,,,
,,,,31851,001,2025-10-16_16h59.14.122,HW_LDT_1,2024.2.4,MacIntel,119.047619,,,,,,,,,,,,,,,,,,,,664.8414,665.0389,665.0389,665.5363,,,,,,,,,,,,,,0.6308,0,,,,,,,,,,,,,,m,,,,,,,,,,,,,,,134,0,665.5368,666.1681,z,0,0.6308,,[],[],[],[],[],[],[],666.1682,668.164,668.1641,668.1644,[],[],[],[],[],[],[],,,,668.1644,668.1645,0.081054688,-0.42421875,0,0,0,,0,133,133,87,1,1,word,CAFETERIA,cursive,cafeteria_c.png,,,,
,,,,31851,001,2025-10-16_16h59.14.122,HW_LDT_1,2024.2.4,MacIntel,119.047619,,,,,,,,,,,,,,,,,,,,668.1657,668.3643,668.3643,668.8646,,,,,,,,,,,,,,0.6211,1,,,,,,,,,,,,,,z,,,,,,,,,,,,,,,135,1,668.8652,669.4907,z,1,0.6211,,[],[],[],[],[],[],[],669.4907,671.4851,671.4851,673.4857,[],[],[],[],[],[],[],m,1.9955,,673.4858,673.486,0.081054688,-0.42421875,0,0,0,,0,134,134,79,1,1,TL,veretan,print,veretan_p.png,,,,
,,,,31851,001,2025-10-16_16h59.14.122,HW_LDT_1,2024.2.4,MacIntel,119.047619,,,,,,,,,,,,,,,,,,,,673.4868,673.6857,673.6858,674.1842,,,,,,,,,,,,,,0.8649,1,,,,,,,,,,,,,,m,,,,,,,,,,,,,,,136,0,674.1849,675.0523,m,1,0.8649,,[],[],[],[],[],[],[],675.0523,677.048,677.048,677.0483,[],[],[],[],[],[],[],,,,677.0483,677.0485,0.081054688,-0.42421875,0,0,0,,0,135,135,128,1,1,word,PACIFIC,print,pacific_p.png,,,,
,,,,31851,001,2025-10-16_16h59.14.122,HW_LDT_1,2024.2.4,MacIntel,119.047619,,,,,,,,,,,,,,,,,,,,677.0498,677.2481,677.2481,677.7482,,,,,,,,,,,,,,0.7236,1,,,,,,,,,,,,,,m,,,,,,,,,,,,,,,137,1,677.7487,678.4729,m,1,0.7236,,[],[],[],[],[],[],[],678.4729,680.4741,680.4741,681.2305,[],[],[],[],[],[],[],m,0.7539,,681.2306,681.2307,0.081054688,-0.42421875,0,0,0,,0,136,136,153,1,1,word,STOLEN,print,stolen_p.png,,,,
,,,,31851,001,2025-10-16_16h59.14.122,HW_LDT_1,2024.2.4,MacIntel,119.047619,,,,,,,,,,,,,,,,,,,,681.2318,681.4316,681.4316,681.9315,,,,,,,,,,,,,,0.6284,1,,,,,,,,,,,,,,z,,,,,,,,,,,,,,,138,0,681.932,682.5648,z,1,0.6284,,[],[],[],[],[],[],[],682.5648,684.5629,684.5629,684.5631,[],[],[],[],[],[],[],,,,684.5632,684.5634,0.081054688,-0.42421875,0,0,0,,0,137,137,69,1,1,TL,radiply,cursive,radiply_c.png,,,,
,,,,31851,001,2025-10-16_16h59.14.122,HW_LDT_1,2024.2.4,MacIntel,119.047619,,,,,,,,,,,,,,,,,,,,684.5646,684.7594,684.7595,685.2592,,,,,,,,,,,,,,0.5785,1,,,,,,,,,,,,,,z,,,,,,,,,,,,,,,139,0,685.2597,685.8438,z,1,0.5785,,[],[],[],[],[],[],[],685.8438,687.8396,687.8396,687.8399,[],[],[],[],[],[],[],,,,687.8399,687.8401,0.081054688,-0.42421875,0,0,0,,0,138,138,20,1,1,RL,nunewical,print,nunewical_p.png,,,,
,,,,31851,001,2025-10-16_16h59.14.122,HW_LDT_1,2024.2.4,MacIntel,119.047619,,,,,,,,,,,,,,,,,,,,687.8412,688.0408,688.0408,688.5361,,,,,,,,,,,,,,0.5496,1,,,,,,,,,,,,,,m,,,,,,,,,,,,,,,140,0,688.5368,689.0906,m,1,0.5496,,[],[],[],[],[],[],[],689.0908,691.0899,691.09,691.0901,[],[],[],[],[],[],[],,,,691.0901,691.0902,0.081054688,-0.42421875,0,0,0,,0,139,139,121,1,1,word,MISTAKE,print,mistake_p.png,,,,
,,,,31851,001,2025-10-16_16h59.14.122,HW_LDT_1,2024.2.4,MacIntel,119.047619,,,,,,,,,,,,,,,,,,,,691.0911,691.289,691.2891,691.7857,,,,,,,,,,,,,,0.5877,1,,,,,,,,,,,,,,z,,,,,,,,,,,,,,,141,0,691.786,692.3773,z,1,0.5877,,[],[],[],[],[],[],[],692.3773,694.3768,694.3768,694.377,[],[],[],[],[],[],[],,,,694.377,694.377,0.081054688,-0.42421875,0,0,0,,0,140,140,64,1,1,TL,orepator,cursive,orepator_c.png,,,,
,,,,31851,001,2025-10-16_16h59.14.122,HW_LDT_1,2024.2.4,MacIntel,119.047619,,,,,,,,,,,,,,,,,,,,694.378,694.577,694.577,695.0773,,,,,,,,,,,,,,0.6724,1,,,,,,,,,,,,,,m,,,,,,,,,,,,,,,142,0,695.0778,695.7562,m,1,0.6724,,[],[],[],[],[],[],[],695.7563,697.7565,697.7565,697.7567,[],[],[],[],[],[],[],,,,697.7568,697.7569,0.081054688,-0.42421875,0,0,0,,0,141,141,127,1,1,word,ORIGINAL,cursive,original_c.png,,,,
,,,,31851,001,2025-10-16_16h59.14.122,HW_LDT_1,2024.2.4,MacIntel,119.047619,,,,,,,,,,,,,,,,,,,,697.7581,697.9574,697.9575,698.4534,,,,,,,,,,,,,,0.5238,1,,,,,,,,,,,,,,m,,,,,,,,,,,,,,,143,0,698.454,698.9818,m,1,0.5238,,[],[],[],[],[],[],[],698.9818,700.976,700.9761,700.9762,[],[],[],[],[],[],[],,,,700.9763,700.9764,0.081054688,-0.42421875,0,0,0,,0,142,142,109,1,1,word,GRATEFUL,print,grateful_p.png,,,,
,,,,31851,001,2025-10-16_16h59.14.122,HW_LDT_1,2024.2.4,MacIntel,119.047619,,,,,,,,,,,,,,,,,,,,700.9776,701.1762,701.1763,701.6762,,,,,,,,,,,,,,0.8554,1,,,,,,,,,,,,,,z,,,,,,,,,,,,,,,144,0,701.6767,702.5356,z,1,0.8554,,[],[],[],[],[],[],[],702.5356,704.5316,704.5318,704.5321,[],[],[],[],[],[],[],,,,704.5321,704.5322,0.081054688,-0.42421875,0,0,0,,0,143,143,38,1,1,RL,stopave,cursive,stopave_c.png,,,,
,,,,31851,001,2025-10-16_16h59.14.122,HW_LDT_1,2024.2.4,MacIntel,119.047619,,,,,,,,,,,,,,,,,,,,704.5334,704.7273,704.7274,705.2269,,,,,,,,,,,,,,0.5787,1,,,,,,,,,,,,,,m,,,,,,,,,,,,,,,145,0,705.2274,705.8106,m,1,0.5787,,[],[],[],[],[],[],[],705.8106,707.8106,707.8107,707.8109,[],[],[],[],[],[],[],,,,707.8109,707.8111,0.081054688,-0.42421875,0,0,0,,0,144,144,100,1,1,word,DECADE,print,decade_p.png,,,,
,,,,31851,001,2025-10-16_16h59.14.122,HW_LDT_1,2024.2.4,MacIntel,119.047619,,,,,,,,,,,,,,,,,,,,707.8122,708.0136,708.0136,708.5137,,,,,,,,,,,,,,0.68,0,,,,,,,,,,,,,,m,,,,,,,,,,,,,,,146,0,708.5143,709.1979,z,0,0.68,,[],[],[],[],[],[],[],709.198,711.1982,711.1982,711.1984,[],[],[],[],[],[],[],,,,711.1985,711.1987,0.081054688,-0.42421875,0,0,0,,0,145,145,111,1,1,word,INDICATE,cursive,indicate_c.png,,,,
,,,,31851,001,2025-10-16_16h59.14.122,HW_LDT_1,2024.2.4,MacIntel,119.047619,,,,,,,,,,,,,,,,,,,,711.1995,711.3983,711.3984,711.8984,,,,,,,,,,,,,,0.6517,1,,,,,,,,,,,,,,z,,,,,,,,,,,,,,,147,0,711.8989,712.556,z,1,0.6517,,[],[],[],[],[],[],[],712.5562,714.5552,714.5553,714.5555,[],[],[],[],[],[],[],,,,714.5555,714.5556,0.081054688,-0.42421875,0,0,0,,0,146,146,57,1,1,TL,hetirage,cursive,hetirage_c.png,,,,
,,,,31851,001,2025-10-16_16h59.14.122,HW_LDT_1,2024.2.4,MacIntel,119.047619,,,,,,,,,,,,,,,,,,,,714.5569,714.756,714.7561,715.2561,,,,,,,,,,,,,,0.5908,1,,,,,,,,,,,,,,z,,,,,,,,,,,,,,,148,0,715.2566,715.8499,z,1,0.5908,,[],[],[],[],[],[],[],715.8499,717.844,717.8441,717.8442,[],[],[],[],[],[],[],,,,717.8442,717.8442,0.081054688,-0.42421875,0,0,0,,0,147,147,25,1,1,RL,quakity,cursive,quakity_c.png,,,,
,,,,31851,001,2025-10-16_16h59.14.122,HW_LDT_1,2024.2.4,MacIntel,119.047619,,,,,,,,,,,,,,,,,,,,717.8451,718.0417,718.0418,718.5398,,,,,,,,,,,,,,1.3385,1,,,,,,,,,,,,,,z,,,,,,,,,,,,,,,149,0,718.5404,719.8809,z,1,1.3385,,[],[],[],[],[],[],[],719.8809,721.8809,721.8809,721.8812,[],[],[],[],[],[],[],,,,721.8812,721.8814,0.081054688,-0.42421875,0,0,0,,0,148,148,11,1,1,RL,elacodate,print,elacodate_p.png,,,,
,,,,31851,001,2025-10-16_16h59.14.122,HW_LDT_1,2024.2.4,MacIntel,119.047619,,,,,,,,,,,,,,,,,,,,721.8825,722.0817,722.0818,722.5784,,,,,,,,,,,,,,0.5986,1,,,,,,,,,,,,,,z,,,,,,,,,,,,,,,150,0,722.579,723.1821,z,1,0.5986,,[],[],[],[],[],[],[],723.1822,725.1815,725.1815,725.1817,[],[],[],[],[],[],[],,,,725.1817,725.1818,0.081054688,-0.42421875,0,0,0,,0,149,149,51,1,1,TL,corevage,print,corevage_p.png,,,,
,,,,31851,001,2025-10-16_16h59.14.122,HW_LDT_1,2024.2.4,MacIntel,119.047619,,,,,,,,,,,,,,,,,,,,725.183,725.3768,725.3768,725.8775,,,,,,,,,,,,,,0.7637,1,,,,,,,,,,,,,,m,,,,,,,,,,,,,,,151,0,725.8781,726.645,m,1,0.7637,,[],[],[],[],[],[],[],726.645,728.6439,728.6439,728.6439,[],[],[],[],[],[],[],,,,728.6439,728.644,0.081054688,-0.42421875,0,0,0,,0,150,150,118,1,1,word,MEDICINE,cursive,medicine_c.png,,,,
,,,,31851,001,2025-10-16_16h59.14.122,HW_LDT_1,2024.2.4,MacIntel,119.047619,,,,,,,,,,,,,,,,,,,,728.6445,728.8442,728.8442,729.3398,,,,,,,,,,,,,,0.5999,1,,,,,,,,,,,,,,z,,,,,,,,,,,,,,,152,0,729.3403,729.9446,z,1,0.5999,,[],[],[],[],[],[],[],729.9446,731.9437,731.9437,731.944,[],[],[],[],[],[],[],,,,731.9441,731.9443,0.081054688,-0.42421875,0,0,0,,0,151,151,32,1,1,RL,rebicent,print,rebicent_p.png,,,,
,,,,31851,001,2025-10-16_16h59.14.122,HW_LDT_1,2024.2.4,MacIntel,119.047619,,,,,,,,,,,,,,,,,,,,731.9455,732.1436,732.1436,732.6441,,,,,,,,,,,,,,0.6599,1,,,,,,,,,,,,,,m,,,,,,,,,,,,,,,153,0,732.6445,733.3061,m,1,0.6599,,[],[],[],[],[],[],[],733.3063,735.3074,735.3075,735.3077,[],[],[],[],[],[],[],,,,735.3077,735.3079,0.081054688,-0.42421875,0,0,0,,0,152,152,95,1,1,word,COMEDY,cursive,comedy_c.png,,,,
,,,,31851,001,2025-10-16_16h59.14.122,HW_LDT_1,2024.2.4,MacIntel,119.047619,,,,,,,,,,,,,,,,,,,,735.3092,735.5032,735.5033,736.003,,,,,,,,,,,,,,0.9487,1,,,,,,,,,,,,,,z,,,,,,,,,,,,,,,154,0,736.0036,736.9529,z,1,0.9487,,[],[],[],[],[],[],[],736.9529,738.9486,738.9486,738.9488,[],[],[],[],[],[],[],,,,738.9488,738.9489,0.081054688,-0.42421875,0,0,0,,0,153,153,47,1,1,TL,cagetory,print,cagetory_p.png,,,,
,,,,31851,001,2025-10-16_16h59.14.122,HW_LDT_1,2024.2.4,MacIntel,119.047619,,,,,,,,,,,,,,,,,,,,738.9496,739.1483,739.1483,739.6487,,,,,,,,,,,,,,0.9063,1,,,,,,,,,,,,,,z,,,,,,,,,,,,,,,155,0,739.6491,740.5608,z,1,0.9063,,[],[],[],[],[],[],[],740.5609,742.5606,742.5606,742.5608,[],[],[],[],[],[],[],,,,742.5608,742.5609,0.081054688,-0.42421875,0,0,0,,0,154,154,58,1,1,TL,incidate,cursive,incidate_c.png,,,,
,,,,31851,001,2025-10-16_16h59.14.122,HW_LDT_1,2024.2.4,MacIntel,119.047619,,,,,,,,,,,,,,,,,,,,742.5622,742.7603,742.7604,743.2607,,,,,,,,,,,,,,1.0158,1,,,,,,,,,,,,,,m,,,,,,,,,,,,,,,156,0,743.2612,744.2799,m,1,1.0158,,[],[],[],[],[],[],[],744.28,746.2819,746.2819,746.2822,[],[],[],[],[],[],[],,,,746.2822,746.2824,0.081054688,-0.42421875,0,0,0,,0,155,155,96,1,1,word,CONSIDER,cursive,consider_c.png,,,,
,,,,31851,001,2025-10-16_16h59.14.122,HW_LDT_1,2024.2.4,MacIntel,119.047619,,,,,,,,,,,,,,,,,,,,746.2837,746.482,746.4821,746.9813,,,,,,,,,,,,,,0.9366,1,,,,,,,,,,,,,,m,,,,,,,,,,,,,,,157,0,746.9819,747.9238,m,1,0.9366,,[],[],[],[],[],[],[],747.9238,749.9227,749.9227,749.9229,[],[],[],[],[],[],[],,,,749.9229,749.9229,0.081054688,-0.42421875,0,0,0,,0,156,156,108,1,1,word,FORTUNE,print,fortune_p.png,,,,
,,,,31851,001,2025-10-16_16h59.14.122,HW_LDT_1,2024.2.4,MacIntel,119.047619,,,,,,,,,,,,,,,,,,,,749.924,750.1232,750.1233,750.6236,,,,,,,,,,,,,,0.5609,1,,,,,,,,,,,,,,m,,,,,,,,,,,,,,,158,0,750.6242,751.1876,m,1,0.5609,,[],[],[],[],[],[],[],751.1876,753.1817,753.1817,753.1819,[],[],[],[],[],[],[],,,,753.182,753.1821,0.081054688,-0.42421875,0,0,0,,0,157,157,85,1,1,word,BENEFIT,print,benefit_p.png,,,,
,,,,31851,001,2025-10-16_16h59.14.122,HW_LDT_1,2024.2.4,MacIntel,119.047619,,,,,,,,,,,,,,,,,,,,753.1833,753.3819,753.3819,753.8818,,,,,,,,,,,,,,0.9413,1,,,,,,,,,,,,,,m,,,,,,,,,,,,,,,159,0,753.8824,754.8282,m,1,0.9413,,[],[],[],[],[],[],[],754.8282,756.8251,756.8251,756.8252,[],[],[],[],[],[],[],,,,756.8253,756.8253,0.081054688,-0.42421875,0,0,0,,0,158,158,137,1,1,word,RAPIDLY,cursive,rapidly_c.png,,,,
,,,,31851,001,2025-10-16_16h59.14.122,HW_LDT_1,2024.2.4,MacIntel,119.047619,,,,,,,,,,,,,,,,,,,,756.8263,757.0237,757.0238,757.5225,,,,,,,,,,,,,,1.3243,1,,,,,,,,,,,,,,z,,,,,,,,,,,,,,,160,0,757.5232,758.8484,z,1,1.3243,,[],[],[],[],[],[],[],758.8484,760.8446,760.8447,760.8448,[],[],[],[],[],[],[],,,,760.8448,760.8448,0.081054688,-0.42421875,0,0,0,,0,159,159,5,1,1,RL,cobeny,cursive,cobeny_c.png,,,,
,,,,31851,001,2025-10-16_16h59.14.122,HW_LDT_1,2024.2.4,MacIntel,119.047619,,,,,,,,,,,,,,,,,,,,,,,,,,,,,,,,,,,,,,,,,,,,,,,,,,,,,,,,,,,,,,,,,,,,,,,,,,,,,,,,,,,,,,,,,,,,,,,,,,,,,,,,,,,,,,,,,,,,760.8582,765.8449
