counterbalance_lists.group,counterbalance_lists.remaining,get_list.started,get_list.stopped,participant,session,date,expName,psychopyVersion,OS,frameRate,Instructions.started,Instructions.stopped,key_resp.keys,key_resp.rt,key_resp.duration,instr_done_touch.x,instr_done_touch.y,instr_done_touch.leftButton,instr_done_touch.midButton,instr_done_touch.rightButton,start_instr.thisRepN,start_instr.thisTrialN,start_instr.thisN,start_instr.thisIndex,start_instr.ran,pageN,phase,instruct_text,has_image,instruct_image,showProgress.started,showProgress.stopped,fix.started,fix.stopped,prac.started,prac.stopped,response.keys,response.corr,response.rt,response.duration,touch_resp.x,touch_resp.y,touch_resp.leftButton,touch_resp.midButton,touch_resp.rightButton,touch_resp.time,touch_resp.clicked_name,rt,corr,feedback.started,feedback.stopped,trials.thisRepN,trials.thisTrialN,trials.thisN,trials.thisIndex,trials.ran,TrialID,StimulusType,Condition,PrimeDuration,Prime,Target,corrAns,Instructions_expt.started,Instructions_expt.stopped,key_resp_3.keys,key_resp_3.rt,key_resp_3.duration,instr_done_touch_3.x,instr_done_touch_3.y,instr_done_touch_3.leftButton,instr_done_touch_3.midButton,instr_done_touch_3.rightButton,instr_experiment.thisRepN,instr_experiment.thisTrialN,instr_experiment.thisN,instr_experiment.thisIndex,instr_experiment.ran,trialID,flag,maintask.started,maintask.stopped,key_resp_2.keys,key_resp_2.corr,key_resp_2.rt,key_resp_2.duration,targ_click.x,targ_click.y,targ_click.leftButton,targ_click.midButton,targ_click.rightButton,targ_click.time,targ_click.clicked_name,ITI.started,ITI.stopped,probe.started,probe.stopped,click_probe.x,click_probe.y,click_probe.leftButton,click_probe.midButton,click_probe.rightButton,click_probe.time,click_probe.clicked_name,key_resp_probe.keys,Break.started,Break.stopped,break_done_touch.x,break_done_touch.y,break_done_touch.leftButton,break_done_touch.midButton,break_done_touch.rightButton,break_done_keyboard.keys,list2_trials.thisRepN,list2_trials.thisTrialN,list2_trials.thisN,list2_trials.thisIndex,list2_trials.ran,list_id,item_type,string,font,stim_file,key_resp_probe.rt,key_resp_probe.duration,break_done_keyboard.rt,break_done_keyboard.duration,End.started,End.stopped
list2,,0.472,0.4721,31869,001,2025-10-16_13h13.26.973,HW_LDT_1,2024.2.4,MacIntel,59.52380952,,,,,,,,,,,,,,,,,,,,,,,,,,,,,,,,,,,,,,,,,,,,,,,,,,,,,,,,,,,,,,,,,,,,,,,,,,,,,,,,,,,,,,,,,,,,,,,,,,,,,,,,,,,,,,,,,,,,,,,
,,,,31869,001,2025-10-16_13h13.26.973,HW_LDT_1,2024.2.4,MacIntel,59.52380952,0.4933,93.0472,space,92.5298,,0.202903972,-0.386085419,0,0,0,0,0,0,0,1,1,instructions,"INSTRUCTIONS
At the start of each trial, look at the plus sign  (+) in the center of the screen.  This tells you that a trial is about to begin and where to look. Second, the plus sign will disappear and a string of letters will appear. Your task is to determine if the string of letters is a word or not. If the item is a word press the M key (on keyboard)  or touch the word button (phone/tablet).  If the item is not a word,  press the  Z key (on keyboard)  or touch the nonword button (on phone/tablet). The items will be presented for a short time. 
Press the space bar or touch  continue.",0,,,,,,,,,,,,,,,,,,,,,,,,,,,,,,,,,,,,,,,,,,,,,,,,,,,,,,,,,,,,,,,,,,,,,,,,,,,,,,,,,,,,,,,,,,,,,,,,,,,,
,,,,31869,001,2025-10-16_13h13.26.973,HW_LDT_1,2024.2.4,MacIntel,59.52380952,93.05,97.0632,space,3.9877,,0.202903972,-0.385830386,0,0,0,0,1,1,1,1,2,instructions,"If your device has a keyboard, press the 'Z' key for nonwords and the 'M' key for words.





Press the space bar or touch the button below to continue.",0,keyboard-example.gif,,,,,,,,,,,,,,,,,,,,,,,,,,,,,,,,,,,,,,,,,,,,,,,,,,,,,,,,,,,,,,,,,,,,,,,,,,,,,,,,,,,,,,,,,,,,,,,,,,,
,,,,31869,001,2025-10-16_13h13.26.973,HW_LDT_1,2024.2.4,MacIntel,59.52380952,97.0655,98.1469,space,1.0626,,0.202903972,-0.385830386,0,0,0,0,2,2,2,1,3,instructions,"If you are using a touchscreen only device, use the buttons on the screen. Do not use the mouse.





Press the space bar or touch the button below to continue.",0,touchscreen-example.gif,,,,,,,,,,,,,,,,,,,,,,,,,,,,,,,,,,,,,,,,,,,,,,,,,,,,,,,,,,,,,,,,,,,,,,,,,,,,,,,,,,,,,,,,,,,,,,,,,,,
,,,,31869,001,2025-10-16_13h13.26.973,HW_LDT_1,2024.2.4,MacIntel,59.52380952,98.1496,111.3467,space,13.1777,,0.189344736,-0.384712493,0,0,0,0,3,3,3,1,4,instructions,"It is very important that you respond as quickly and accurately as possible, as each letter string will only be on the screen for two seconds. If you do not respond within this time, the message 'Too slow!' will be displayed and the experiment will progress to the next letter string. The first 20 trials will be practice trials and you will receive feedback on your answers. 

Press the space bar or touch the button below to start the practice trials.",0,,,,,,,,,,,,,,,,,,,,,,,,,,,,,,,,,,,,,,,,,,,,,,,,,,,,,,,,,,,,,,,,,,,,,,,,,,,,,,,,,,,,,,,,,,,,,,,,,,,,
,,,,31869,001,2025-10-16_13h13.26.973,HW_LDT_1,2024.2.4,MacIntel,59.52380952,,,,,,,,,,,,,,,,,,,,,111.3804,111.5454,111.5458,112.0457,112.0461,115.6467,z,1,3.5692,,[],[],[],[],[],[],[],3.5692,1,115.647,116.1467,0,0,0,8,1,1009,NW,"ID",33,aslert,ASLERT,z,,,,,,,,,,,,,,,,,,,,,,,,,,,,,,,,,,,,,,,,,,,,,,,,,,,,,,,,,,,,,,,,,,
,,,,31869,001,2025-10-16_13h13.26.973,HW_LDT_1,2024.2.4,MacIntel,59.52380952,,,,,,,,,,,,,,,,,,,,,116.1482,116.3462,116.3463,116.8462,116.8472,119.1129,z,1,2.2541,,[],[],[],[],[],[],[],2.2541,1,119.1131,119.613,0,1,1,13,1,1014,NW,UN,33,winfer,ROUPET,z,,,,,,,,,,,,,,,,,,,,,,,,,,,,,,,,,,,,,,,,,,,,,,,,,,,,,,,,,,,,,,,,,,
,,,,31869,001,2025-10-16_13h13.26.973,HW_LDT_1,2024.2.4,MacIntel,59.52380952,,,,,,,,,,,,,,,,,,,,,119.6145,119.8119,119.8119,120.3129,120.314,124.8464,m,1,4.5101,,[],[],[],[],[],[],[],4.5101,1,124.8465,125.3462,0,2,2,4,1,1005,WORD,UN,33,abound,SQUEAK,m,,,,,,,,,,,,,,,,,,,,,,,,,,,,,,,,,,,,,,,,,,,,,,,,,,,,,,,,,,,,,,,,,,
,,,,31869,001,2025-10-16_13h13.26.973,HW_LDT_1,2024.2.4,MacIntel,59.52380952,,,,,,,,,,,,,,,,,,,,,125.3477,125.5462,125.5463,126.0462,126.0473,127.7631,z,1,1.7005,,[],[],[],[],[],[],[],1.7005,1,127.7633,128.2627,0,3,3,15,1,1016,NW,UN,16,mushed,WHAISE,z,,,,,,,,,,,,,,,,,,,,,,,,,,,,,,,,,,,,,,,,,,,,,,,,,,,,,,,,,,,,,,,,,,
,,,,31869,001,2025-10-16_13h13.26.973,HW_LDT_1,2024.2.4,MacIntel,59.52380952,,,,,,,,,,,,,,,,,,,,,128.2642,128.4619,128.4621,128.9619,128.9629,130.2298,m,1,1.2441,,[],[],[],[],[],[],[],1.2441,1,130.23,130.7288,0,4,4,3,1,1004,WORD,"ID",16,matrix,MATRIX,m,,,,,,,,,,,,,,,,,,,,,,,,,,,,,,,,,,,,,,,,,,,,,,,,,,,,,,,,,,,,,,,,,,
,,,,31869,001,2025-10-16_13h13.26.973,HW_LDT_1,2024.2.4,MacIntel,59.52380952,,,,,,,,,,,,,,,,,,,,,130.7301,130.9286,130.9287,131.4295,131.4307,132.663,m,1,1.2105,,[],[],[],[],[],[],[],1.2105,1,132.6632,133.1621,0,5,5,1,1,1002,WORD,"ID",33,adjust,ADJUST,m,,,,,,,,,,,,,,,,,,,,,,,,,,,,,,,,,,,,,,,,,,,,,,,,,,,,,,,,,,,,,,,,,,
,,,,31869,001,2025-10-16_13h13.26.973,HW_LDT_1,2024.2.4,MacIntel,59.52380952,,,,,,,,,,,,,,,,,,,,,133.1637,133.363,133.363,133.8629,133.8639,136.8632,z,1,2.9774,,[],[],[],[],[],[],[],2.9774,1,136.8634,137.3621,0,6,6,9,1,1010,NW,"ID",33,fariny,FARINY,z,,,,,,,,,,,,,,,,,,,,,,,,,,,,,,,,,,,,,,,,,,,,,,,,,,,,,,,,,,,,,,,,,,
,,,,31869,001,2025-10-16_13h13.26.973,HW_LDT_1,2024.2.4,MacIntel,59.52380952,,,,,,,,,,,,,,,,,,,,,137.3636,137.5632,137.5632,138.063,138.0639,139.0297,m,1,0.9502,,[],[],[],[],[],[],[],0.9502,1,139.0299,139.5297,0,7,7,2,1,1003,WORD,"ID",16,almond,ALMOND,m,,,,,,,,,,,,,,,,,,,,,,,,,,,,,,,,,,,,,,,,,,,,,,,,,,,,,,,,,,,,,,,,,,
,,,,31869,001,2025-10-16_13h13.26.973,HW_LDT_1,2024.2.4,MacIntel,59.52380952,,,,,,,,,,,,,,,,,,,,,139.5312,139.7296,139.7297,140.2296,140.2306,141.0787,m,1,0.8284,,[],[],[],[],[],[],[],0.8284,1,141.079,141.5797,0,8,8,5,1,1006,WORD,UN,33,frenzy,OBTAIN,m,,,,,,,,,,,,,,,,,,,,,,,,,,,,,,,,,,,,,,,,,,,,,,,,,,,,,,,,,,,,,,,,,,
,,,,31869,001,2025-10-16_13h13.26.973,HW_LDT_1,2024.2.4,MacIntel,59.52380952,,,,,,,,,,,,,,,,,,,,,141.5811,141.7796,141.7796,142.2787,142.2797,143.1798,m,1,0.8887,,[],[],[],[],[],[],[],0.8887,1,143.1799,143.6798,0,9,9,7,1,1008,WORD,UN,16,hurdle,VOLUME,m,,,,,,,,,,,,,,,,,,,,,,,,,,,,,,,,,,,,,,,,,,,,,,,,,,,,,,,,,,,,,,,,,,
,,,,31869,001,2025-10-16_13h13.26.973,HW_LDT_1,2024.2.4,MacIntel,59.52380952,,,,,,,,,,,,,,,,,,,,,143.6812,143.8787,143.8787,144.3797,144.3806,145.613,z,1,1.2078,,[],[],[],[],[],[],[],1.2078,1,145.6132,146.113,0,10,10,10,1,1011,NW,"ID",16,inlade,INLADE,z,,,,,,,,,,,,,,,,,,,,,,,,,,,,,,,,,,,,,,,,,,,,,,,,,,,,,,,,,,,,,,,,,,
,,,,31869,001,2025-10-16_13h13.26.973,HW_LDT_1,2024.2.4,MacIntel,59.52380952,,,,,,,,,,,,,,,,,,,,,146.1144,146.3129,146.313,146.8129,146.8142,147.88,m,1,1.0517,,[],[],[],[],[],[],[],1.0517,1,147.8802,148.3797,0,11,11,0,1,1001,WORD,"ID",33,utopia,UTOPIA,m,,,,,,,,,,,,,,,,,,,,,,,,,,,,,,,,,,,,,,,,,,,,,,,,,,,,,,,,,,,,,,,,,,
,,,,31869,001,2025-10-16_13h13.26.973,HW_LDT_1,2024.2.4,MacIntel,59.52380952,,,,,,,,,,,,,,,,,,,,,148.3811,148.5796,148.5796,149.0788,149.0797,151.213,z,1,2.1214,,[],[],[],[],[],[],[],2.1214,1,151.2132,151.7131,0,12,12,12,1,1013,NW,UN,33,adveil,SPRINY,z,,,,,,,,,,,,,,,,,,,,,,,,,,,,,,,,,,,,,,,,,,,,,,,,,,,,,,,,,,,,,,,,,,
,,,,31869,001,2025-10-16_13h13.26.973,HW_LDT_1,2024.2.4,MacIntel,59.52380952,,,,,,,,,,,,,,,,,,,,,151.7146,151.9129,151.913,152.412,152.4129,155.0131,z,1,2.59,,[],[],[],[],[],[],[],2.59,1,155.0132,155.513,0,13,13,14,1,1015,NW,UN,16,miaber,THRALE,z,,,,,,,,,,,,,,,,,,,,,,,,,,,,,,,,,,,,,,,,,,,,,,,,,,,,,,,,,,,,,,,,,,
,,,,31869,001,2025-10-16_13h13.26.973,HW_LDT_1,2024.2.4,MacIntel,59.52380952,,,,,,,,,,,,,,,,,,,,,155.5144,155.713,155.713,156.2129,156.2138,157.0794,m,1,0.8544,,[],[],[],[],[],[],[],0.8544,1,157.0796,157.5797,0,14,14,6,1,1007,WORD,UN,16,tropic,ZOMBIE,m,,,,,,,,,,,,,,,,,,,,,,,,,,,,,,,,,,,,,,,,,,,,,,,,,,,,,,,,,,,,,,,,,,
,,,,31869,001,2025-10-16_13h13.26.973,HW_LDT_1,2024.2.4,MacIntel,59.52380952,,,,,,,,,,,,,,,,,,,,,157.5812,157.7796,157.7797,158.2797,158.2806,160.3798,z,1,2.0749,,[],[],[],[],[],[],[],2.0749,1,160.38,160.8788,0,15,15,11,1,1012,NW,"ID",16,rashet,RASHET,z,,,,,,,,,,,,,,,,,,,,,,,,,,,,,,,,,,,,,,,,,,,,,,,,,,,,,,,,,,,,,,,,,,
,,,,31869,001,2025-10-16_13h13.26.973,HW_LDT_1,2024.2.4,MacIntel,59.52380952,,,,,,,,,,,,,,,,1,end_of_practice,"You have completed the practice trials. During the experimental trials, you will not receive feedback. On some trials you will be asked to report whether the item you just saw was in cursive or print. 
Before you begin, please ensure that you are in a comfortable and quiet location and will not be disturbed for about 15 minutes, as we cannot use your data if you do not complete all the trials. 
 When you are ready to start the experimental trials, please press space or touch the button below.",,,,,,,,,,,,,,,,,,,,,,,,,,,,,,,,,,,,160.887,196.2307,space,35.3133,,0.164593818,-0.395670396,0,0,0,0,0,0,0,1,,,,,,,,,,,,,,,,,,,,,,,,,,,,,,,,,,,,,,,,,,,,,,,,,,,
,,,,31869,001,2025-10-16_13h13.26.973,HW_LDT_1,2024.2.4,MacIntel,59.52380952,,,,,,,,,,,,,,,,,,,,,196.2482,196.4289,196.429,196.93,,,,,,,,,,,,,,2.8007,1,,,,,,,,,,,,,,m,,,,,,,,,,,,,,,,1,0,196.9317,199.7472,m,1,2.8007,,[],[],[],[],[],[],[],199.7476,201.7469,201.7471,201.751,[],[],[],[],[],[],[],,201.7511,201.7533,0.164593818,-0.395670396,0,0,0,,0,0,0,159,1,2,word,VETERAN,print,veteran_p.png,,,,,,
,,,,31869,001,2025-10-16_13h13.26.973,HW_LDT_1,2024.2.4,MacIntel,59.52380952,,,,,,,,,,,,,,,,,,,,,201.7547,201.9465,201.9465,202.4456,,,,,,,,,,,,,,1.821,0,,,,,,,,,,,,,,z,,,,,,,,,,,,,,,,2,0,202.4464,204.28,m,0,1.821,,[],[],[],[],[],[],[],204.2801,206.2799,206.28,206.2802,[],[],[],[],[],[],[],,206.2803,206.2804,0.164593818,-0.395670396,0,0,0,,0,1,1,69,1,2,TL,resufal,cursive,resufal_c.png,,,,,,
,,,,31869,001,2025-10-16_13h13.26.973,HW_LDT_1,2024.2.4,MacIntel,59.52380952,,,,,,,,,,,,,,,,,,,,,206.2817,206.4798,206.4799,206.9799,,,,,,,,,,,,,,0.7649,1,,,,,,,,,,,,,,m,,,,,,,,,,,,,,,,3,0,206.9805,207.7467,m,1,0.7649,,[],[],[],[],[],[],[],207.7468,209.7466,209.7467,209.747,[],[],[],[],[],[],[],,209.7471,209.7472,0.164593818,-0.395670396,0,0,0,,0,2,2,114,1,2,word,LOCATE,print,locate_p.png,,,,,,
,,,,31869,001,2025-10-16_13h13.26.973,HW_LDT_1,2024.2.4,MacIntel,59.52380952,,,,,,,,,,,,,,,,,,,,,209.7484,209.9465,209.9466,210.4466,,,,,,,,,,,,,,0.882,0,,,,,,,,,,,,,,z,,,,,,,,,,,,,,,,4,1,210.4473,211.3305,m,0,0.882,,[],[],[],[],[],[],[],211.3306,213.3299,213.33,216.5292,[],[],[],[],[],[],[],m,216.5293,216.5296,0.164593818,-0.395670396,0,0,0,,0,3,3,19,1,2,RL,monebate,cursive,monebate_c.png,3.1878,,,,,
,,,,31869,001,2025-10-16_13h13.26.973,HW_LDT_1,2024.2.4,MacIntel,59.52380952,,,,,,,,,,,,,,,,,,,,,216.5311,216.7299,216.73,217.2298,,,,,,,,,,,,,,1.5868,1,,,,,,,,,,,,,,z,,,,,,,,,,,,,,,,5,1,217.2306,218.83,z,1,1.5868,,[],[],[],[],[],[],[],218.8302,220.8299,220.8299,223.1135,[],[],[],[],[],[],[],m,223.1135,223.1137,0.164593818,-0.395670396,0,0,0,,0,4,4,48,1,2,TL,detabe,print,detabe_p.png,2.2714,,,,,
,,,,31869,001,2025-10-16_13h13.26.973,HW_LDT_1,2024.2.4,MacIntel,59.52380952,,,,,,,,,,,,,,,,,,,,,223.1151,223.3132,223.3133,223.8132,,,,,,,,,,,,,,3.1898,1,,,,,,,,,,,,,,z,,,,,,,,,,,,,,,,6,0,223.8139,227.0135,z,1,3.1898,,[],[],[],[],[],[],[],227.0136,229.0133,229.0134,229.0138,[],[],[],[],[],[],[],,229.0139,229.0141,0.164593818,-0.395670396,0,0,0,,0,5,5,5,1,2,RL,clisimal,cursive,clisimal_c.png,,,,,,
,,,,31869,001,2025-10-16_13h13.26.973,HW_LDT_1,2024.2.4,MacIntel,59.52380952,,,,,,,,,,,,,,,,,,,,,229.0155,229.2133,229.2134,229.7133,,,,,,,,,,,,,,1.8366,1,,,,,,,,,,,,,,m,,,,,,,,,,,,,,,,7,0,229.714,231.5635,m,1,1.8366,,[],[],[],[],[],[],[],231.5637,233.5634,233.5634,233.5637,[],[],[],[],[],[],[],,233.5637,233.5639,0.164593818,-0.395670396,0,0,0,,0,6,6,98,1,2,word,CRIMINAL,cursive,criminal_c.png,,,,,,
,,,,31869,001,2025-10-16_13h13.26.973,HW_LDT_1,2024.2.4,MacIntel,59.52380952,,,,,,,,,,,,,,,,,,,,,233.5652,233.7633,233.7634,234.2633,,,,,,,,,,,,,,1.682,1,,,,,,,,,,,,,,m,,,,,,,,,,,,,,,,8,0,234.2639,235.9472,m,1,1.682,,[],[],[],[],[],[],[],235.9473,237.9467,237.9468,237.9472,[],[],[],[],[],[],[],,237.9472,237.9474,0.164593818,-0.395670396,0,0,0,,0,7,7,143,1,2,word,REMOVAL,print,removal_p.png,,,,,,
,,,,31869,001,2025-10-16_13h13.26.973,HW_LDT_1,2024.2.4,MacIntel,59.52380952,,,,,,,,,,,,,,,,,,,,,237.9487,238.1467,238.1467,238.6466,,,,,,,,,,,,,,1.3538,1,,,,,,,,,,,,,,m,,,,,,,,,,,,,,,,9,0,238.6474,240.0134,m,1,1.3538,,[],[],[],[],[],[],[],240.0136,242.0134,242.0134,242.0138,[],[],[],[],[],[],[],,242.0138,242.014,0.164593818,-0.395670396,0,0,0,,0,8,8,110,1,2,word,HERITAGE,print,heritage_p.png,,,,,,
,,,,31869,001,2025-10-16_13h13.26.973,HW_LDT_1,2024.2.4,MacIntel,59.52380952,,,,,,,,,,,,,,,,,,,,,242.0153,242.2134,242.2134,242.7134,,,,,,,,,,,,,,0.9038,1,,,,,,,,,,,,,,m,,,,,,,,,,,,,,,,10,1,242.714,243.6302,m,1,0.9038,,[],[],[],[],[],[],[],243.6303,245.63,245.6301,247.3468,[],[],[],[],[],[],[],m,247.3469,247.3472,0.164593818,-0.395670396,0,0,0,,0,9,9,104,1,2,word,DOMINANT,print,dominant_p.png,1.7144,,,,,
,,,,31869,001,2025-10-16_13h13.26.973,HW_LDT_1,2024.2.4,MacIntel,59.52380952,,,,,,,,,,,,,,,,,,,,,247.3485,247.5467,247.5467,248.0467,,,,,,,,,,,,,,3.6542,0,,,,,,,,,,,,,,m,,,,,,,,,,,,,,,,11,0,248.0473,251.7135,z,0,3.6542,,[],[],[],[],[],[],[],251.7136,253.7133,253.7134,253.7137,[],[],[],[],[],[],[],,253.7137,253.7139,0.164593818,-0.395670396,0,0,0,,0,10,10,139,1,2,word,REGULAR,cursive,regular_c.png,,,,,,
,,,,31869,001,2025-10-16_13h13.26.973,HW_LDT_1,2024.2.4,MacIntel,59.52380952,,,,,,,,,,,,,,,,,,,,,253.7152,253.9134,253.9134,254.4134,,,,,,,,,,,,,,1.2374,1,,,,,,,,,,,,,,m,,,,,,,,,,,,,,,,12,0,254.4139,255.6635,m,1,1.2374,,[],[],[],[],[],[],[],255.6636,257.6634,257.6635,257.6638,[],[],[],[],[],[],[],,257.6638,257.6639,0.164593818,-0.395670396,0,0,0,,0,11,11,84,1,2,word,BELOVED,cursive,beloved_c.png,,,,,,
,,,,31869,001,2025-10-16_13h13.26.973,HW_LDT_1,2024.2.4,MacIntel,59.52380952,,,,,,,,,,,,,,,,,,,,,257.6652,257.8636,257.8637,258.3635,,,,,,,,,,,,,,1.1538,1,,,,,,,,,,,,,,z,,,,,,,,,,,,,,,,13,0,258.3641,259.5303,z,1,1.1538,,[],[],[],[],[],[],[],259.5304,261.5301,261.5301,261.5304,[],[],[],[],[],[],[],,261.5305,261.5307,0.164593818,-0.395670396,0,0,0,,0,12,12,49,1,2,TL,dedace,print,dedace_p.png,,,,,,
,,,,31869,001,2025-10-16_13h13.26.973,HW_LDT_1,2024.2.4,MacIntel,59.52380952,,,,,,,,,,,,,,,,,,,,,261.5321,261.7302,261.7302,262.2301,,,,,,,,,,,,,,1.0554,1,,,,,,,,,,,,,,m,,,,,,,,,,,,,,,,14,1,262.2307,263.2968,m,1,1.0554,,[],[],[],[],[],[],[],263.2969,265.2967,265.2968,266.2136,[],[],[],[],[],[],[],m,266.2136,266.2139,0.164593818,-0.395670396,0,0,0,,0,13,13,140,1,2,word,RELATIVE,print,relative_p.png,0.9048,,,,,
,,,,31869,001,2025-10-16_13h13.26.973,HW_LDT_1,2024.2.4,MacIntel,59.52380952,,,,,,,,,,,,,,,,,,,,,266.2151,266.4135,266.4135,266.9134,,,,,,,,,,,,,,2.965,0,,,,,,,,,,,,,,z,,,,,,,,,,,,,,,,15,0,266.914,269.8803,m,0,2.965,,[],[],[],[],[],[],[],269.8804,271.8801,271.8802,271.8805,[],[],[],[],[],[],[],,271.8806,271.8806,0.164593818,-0.395670396,0,0,0,,0,14,14,10,1,2,RL,disluge,cursive,disluge_c.png,,,,,,
,,,,31869,001,2025-10-16_13h13.26.973,HW_LDT_1,2024.2.4,MacIntel,59.52380952,,,,,,,,,,,,,,,,,,,,,271.8819,272.0804,272.0804,272.5802,,,,,,,,,,,,,,2.2874,1,,,,,,,,,,,,,,m,,,,,,,,,,,,,,,,16,0,272.5808,274.8803,m,1,2.2874,,[],[],[],[],[],[],[],274.8804,276.8802,276.8802,276.8805,[],[],[],[],[],[],[],,276.8806,276.8806,0.164593818,-0.395670396,0,0,0,,0,15,15,155,1,2,word,STRATEGY,cursive,strategy_c.png,,,,,,
,,,,31869,001,2025-10-16_13h13.26.973,HW_LDT_1,2024.2.4,MacIntel,59.52380952,,,,,,,,,,,,,,,,,,,,,276.882,277.0801,277.0802,277.5801,,,,,,,,,,,,,,1.1725,0,,,,,,,,,,,,,,m,,,,,,,,,,,,,,,,17,0,277.5807,278.7636,z,0,1.1725,,[],[],[],[],[],[],[],278.7637,280.7635,280.7636,280.7638,[],[],[],[],[],[],[],,280.7639,280.764,0.164593818,-0.395670396,0,0,0,,0,16,16,141,1,2,word,RELIGION,cursive,religion_c.png,,,,,,
,,,,31869,001,2025-10-16_13h13.26.973,HW_LDT_1,2024.2.4,MacIntel,59.52380952,,,,,,,,,,,,,,,,,,,,,280.7653,280.9635,280.9636,281.4635,,,,,,,,,,,,,,1.0038,1,,,,,,,,,,,,,,z,,,,,,,,,,,,,,,,18,0,281.4641,282.4803,z,1,1.0038,,[],[],[],[],[],[],[],282.4804,284.4802,284.4802,284.4806,[],[],[],[],[],[],[],,284.4806,284.4807,0.164593818,-0.395670396,0,0,0,,0,17,17,22,1,2,RL,posity,print,posity_p.png,,,,,,
,,,,31869,001,2025-10-16_13h13.26.973,HW_LDT_1,2024.2.4,MacIntel,59.52380952,,,,,,,,,,,,,,,,,,,,,284.482,284.6801,284.6802,285.1801,,,,,,,,,,,,,,0.8816,1,,,,,,,,,,,,,,z,,,,,,,,,,,,,,,,19,0,285.1807,286.0636,z,1,0.8816,,[],[],[],[],[],[],[],286.0637,288.0635,288.0636,288.0638,[],[],[],[],[],[],[],,288.0638,288.064,0.164593818,-0.395670396,0,0,0,,0,18,18,4,1,2,RL,cenesony,print,cenesony_p.png,,,,,,
,,,,31869,001,2025-10-16_13h13.26.973,HW_LDT_1,2024.2.4,MacIntel,59.52380952,,,,,,,,,,,,,,,,,,,,,288.0653,288.2634,288.2635,288.7636,,,,,,,,,,,,,,0.7723,1,,,,,,,,,,,,,,z,,,,,,,,,,,,,,,,20,0,288.7641,289.5469,z,1,0.7723,,[],[],[],[],[],[],[],289.5471,291.5468,291.5469,291.5472,[],[],[],[],[],[],[],,291.5472,291.5474,0.164593818,-0.395670396,0,0,0,,0,19,19,8,1,2,RL,desifate,print,desifate_p.png,,,,,,
,,,,31869,001,2025-10-16_13h13.26.973,HW_LDT_1,2024.2.4,MacIntel,59.52380952,,,,,,,,,,,,,,,,,,,,,291.5488,291.7468,291.7469,292.2469,,,,,,,,,,,,,,0.7708,1,,,,,,,,,,,,,,m,,,,,,,,,,,,,,,,21,0,292.2474,293.0303,m,1,0.7708,,[],[],[],[],[],[],[],293.0304,295.0303,295.0303,295.0306,[],[],[],[],[],[],[],,295.0307,295.0307,0.164593818,-0.395670396,0,0,0,,0,20,20,157,1,2,word,VALIDITY,print,validity_p.png,,,,,,
,,,,31869,001,2025-10-16_13h13.26.973,HW_LDT_1,2024.2.4,MacIntel,59.52380952,,,,,,,,,,,,,,,,,,,,,295.0321,295.2302,295.2303,295.7302,,,,,,,,,,,,,,1.6706,1,,,,,,,,,,,,,,z,,,,,,,,,,,,,,,,22,0,295.7309,297.4137,z,1,1.6706,,[],[],[],[],[],[],[],297.4138,299.4136,299.4136,299.4139,[],[],[],[],[],[],[],,299.4139,299.4141,0.164593818,-0.395670396,0,0,0,,0,21,21,14,1,2,RL,insibate,cursive,insibate_c.png,,,,,,
,,,,31869,001,2025-10-16_13h13.26.973,HW_LDT_1,2024.2.4,MacIntel,59.52380952,,,,,,,,,,,,,,,,,,,,,299.4154,299.6136,299.6136,300.1136,,,,,,,,,,,,,,1.0308,1,,,,,,,,,,,,,,m,,,,,,,,,,,,,,,,23,1,300.1143,301.147,m,1,1.0308,,[],[],[],[],[],[],[],301.1471,303.1469,303.1469,304.497,[],[],[],[],[],[],[],m,304.4972,304.4973,0.164593818,-0.395670396,0,0,0,,0,22,22,89,1,2,word,CAPACITY,print,capacity_p.png,1.3493,,,,,
,,,,31869,001,2025-10-16_13h13.26.973,HW_LDT_1,2024.2.4,MacIntel,59.52380952,,,,,,,,,,,,,,,,,,,,,304.4986,304.6959,304.6959,305.1969,,,,,,,,,,,,,,1.0564,1,,,,,,,,,,,,,,z,,,,,,,,,,,,,,,,24,0,305.1975,306.2637,z,1,1.0564,,[],[],[],[],[],[],[],306.2638,308.2636,308.2637,308.2639,[],[],[],[],[],[],[],,308.264,308.2641,0.164593818,-0.395670396,0,0,0,,0,23,23,17,1,2,RL,macise,cursive,macise_c.png,,,,,,
,,,,31869,001,2025-10-16_13h13.26.973,HW_LDT_1,2024.2.4,MacIntel,59.52380952,,,,,,,,,,,,,,,,,,,,,308.2654,308.4627,308.4627,308.9637,,,,,,,,,,,,,,1.3206,1,,,,,,,,,,,,,,z,,,,,,,,,,,,,,,,25,0,308.9642,310.2971,z,1,1.3206,,[],[],[],[],[],[],[],310.2972,312.297,312.297,312.2973,[],[],[],[],[],[],[],,312.2973,312.2975,0.164593818,-0.395670396,0,0,0,,0,24,24,60,1,2,TL,molibe,print,molibe_p.png,,,,,,
,,,,31869,001,2025-10-16_13h13.26.973,HW_LDT_1,2024.2.4,MacIntel,59.52380952,,,,,,,,,,,,,,,,,,,,,312.2989,312.4971,312.4972,312.997,,,,,,,,,,,,,,3.3707,0,,,,,,,,,,,,,,m,,,,,,,,,,,,,,,,26,0,312.9977,316.3795,z,0,3.3707,,[],[],[],[],[],[],[],316.3796,318.3804,318.3804,318.3806,[],[],[],[],[],[],[],,318.3806,318.3808,0.164593818,-0.395670396,0,0,0,,0,25,25,111,1,2,word,INDICATE,cursive,indicate_c.png,,,,,,
,,,,31869,001,2025-10-16_13h13.26.973,HW_LDT_1,2024.2.4,MacIntel,59.52380952,,,,,,,,,,,,,,,,,,,,,318.382,318.5803,318.5804,319.0805,,,,,,,,,,,,,,1.1122,1,,,,,,,,,,,,,,z,,,,,,,,,,,,,,,,27,0,319.081,320.1971,z,1,1.1122,,[],[],[],[],[],[],[],320.1972,322.197,322.1971,322.1974,[],[],[],[],[],[],[],,322.1974,322.1976,0.164593818,-0.395670396,0,0,0,,0,26,26,25,1,2,RL,rabigly,print,rabigly_p.png,,,,,,
,,,,31869,001,2025-10-16_13h13.26.973,HW_LDT_1,2024.2.4,MacIntel,59.52380952,,,,,,,,,,,,,,,,,,,,,322.199,322.3971,322.3971,322.897,,,,,,,,,,,,,,1.2902,0,,,,,,,,,,,,,,z,,,,,,,,,,,,,,,,28,0,322.8976,324.1972,m,0,1.2902,,[],[],[],[],[],[],[],324.1973,326.197,326.1971,326.1973,[],[],[],[],[],[],[],,326.1973,326.1975,0.164593818,-0.395670396,0,0,0,,0,27,27,66,1,2,TL,prodive,cursive,prodive_c.png,,,,,,
,,,,31869,001,2025-10-16_13h13.26.973,HW_LDT_1,2024.2.4,MacIntel,59.52380952,,,,,,,,,,,,,,,,,,,,,326.1988,326.397,326.3971,326.897,,,,,,,,,,,,,,0.8318,1,,,,,,,,,,,,,,m,,,,,,,,,,,,,,,,29,0,326.8975,327.7305,m,1,0.8318,,[],[],[],[],[],[],[],327.7306,329.7305,329.7305,329.7307,[],[],[],[],[],[],[],,329.7308,329.7309,0.164593818,-0.395670396,0,0,0,,0,28,28,147,1,2,word,ROMANTIC,print,romantic_p.png,,,,,,
,,,,31869,001,2025-10-16_13h13.26.973,HW_LDT_1,2024.2.4,MacIntel,59.52380952,,,,,,,,,,,,,,,,,,,,,329.7324,329.9303,329.9304,330.4294,,,,,,,,,,,,,,0.949,1,,,,,,,,,,,,,,m,,,,,,,,,,,,,,,,30,0,330.43,331.3805,m,1,0.949,,[],[],[],[],[],[],[],331.3805,333.3803,333.3805,333.3807,[],[],[],[],[],[],[],,333.3807,333.3807,0.164593818,-0.395670396,0,0,0,,0,29,29,122,1,2,word,MOBILE,print,mobile_p.png,,,,,,
,,,,31869,001,2025-10-16_13h13.26.973,HW_LDT_1,2024.2.4,MacIntel,59.52380952,,,,,,,,,,,,,,,,,,,,,333.3822,333.5803,333.5804,334.0804,,,,,,,,,,,,,,1.0295,1,,,,,,,,,,,,,,m,,,,,,,,,,,,,,,,31,0,334.081,335.1139,m,1,1.0295,,[],[],[],[],[],[],[],335.1139,337.1138,337.1138,337.114,[],[],[],[],[],[],[],,337.1141,337.1141,0.164593818,-0.395670396,0,0,0,,0,30,30,153,1,2,word,STOLEN,print,stolen_p.png,,,,,,
,,,,31869,001,2025-10-16_13h13.26.973,HW_LDT_1,2024.2.4,MacIntel,59.52380952,,,,,,,,,,,,,,,,,,,,,337.1156,337.3137,337.3137,337.8137,,,,,,,,,,,,,,1.7862,1,,,,,,,,,,,,,,z,,,,,,,,,,,,,,,,32,0,337.8144,339.6129,z,1,1.7862,,[],[],[],[],[],[],[],339.613,341.6138,341.6139,341.6141,[],[],[],[],[],[],[],,341.6141,341.6142,0.164593818,-0.395670396,0,0,0,,0,31,31,62,1,2,TL,opmital,cursive,opmital_c.png,,,,,,
,,,,31869,001,2025-10-16_13h13.26.973,HW_LDT_1,2024.2.4,MacIntel,59.52380952,,,,,,,,,,,,,,,,,,,,,341.6155,341.8137,341.8138,342.3139,,,,,,,,,,,,,,1.0696,1,,,,,,,,,,,,,,z,,,,,,,,,,,,,,,,33,0,342.3144,343.3972,z,1,1.0696,,[],[],[],[],[],[],[],343.3973,345.3971,345.3971,345.3973,[],[],[],[],[],[],[],,345.3974,345.3975,0.164593818,-0.395670396,0,0,0,,0,32,32,1,1,2,RL,caleberia,print,caleberia_p.png,,,,,,
,,,,31869,001,2025-10-16_13h13.26.973,HW_LDT_1,2024.2.4,MacIntel,59.52380952,,,,,,,,,,,,,,,,,,,,,345.3987,345.5963,345.5964,346.0961,,,,,,,,,,,,,,0.8372,1,,,,,,,,,,,,,,m,,,,,,,,,,,,,,,,34,0,346.0968,346.9462,m,1,0.8372,,[],[],[],[],[],[],[],346.9464,348.9472,348.9472,348.9473,[],[],[],[],[],[],[],,348.9474,348.9474,0.164593818,-0.395670396,0,0,0,,0,33,33,80,1,2,word,ACADEMY,cursive,academy_c.png,,,,,,
,,,,31869,001,2025-10-16_13h13.26.973,HW_LDT_1,2024.2.4,MacIntel,59.52380952,,,,,,,,,,,,,,,,,,,,,348.9486,349.147,349.1471,349.6471,,,,,,,,,,,,,,1.0485,1,,,,,,,,,,,,,,m,,,,,,,,,,,,,,,,35,0,349.6478,350.6973,m,1,1.0485,,[],[],[],[],[],[],[],350.6974,352.6971,352.6972,352.6973,[],[],[],[],[],[],[],,352.6974,352.6975,0.164593818,-0.395670396,0,0,0,,0,34,34,156,1,2,word,TRIBUTE,cursive,tribute_c.png,,,,,,
,,,,31869,001,2025-10-16_13h13.26.973,HW_LDT_1,2024.2.4,MacIntel,59.52380952,,,,,,,,,,,,,,,,,,,,,352.6989,352.8961,352.8962,353.3971,,,,,,,,,,,,,,1.0982,1,,,,,,,,,,,,,,z,,,,,,,,,,,,,,,,36,0,353.3977,354.4972,z,1,1.0982,,[],[],[],[],[],[],[],354.4973,356.4961,356.4962,356.4964,[],[],[],[],[],[],[],,356.4965,356.4966,0.164593818,-0.395670396,0,0,0,,0,35,35,32,1,2,RL,speniven,print,speniven_p.png,,,,,,
,,,,31869,001,2025-10-16_13h13.26.973,HW_LDT_1,2024.2.4,MacIntel,59.52380952,,,,,,,,,,,,,,,,,,,,,356.498,356.6961,356.6962,357.1967,,,,,,,,,,,,,,0.8374,1,,,,,,,,,,,,,,m,,,,,,,,,,,,,,,,37,0,357.1972,358.0472,m,1,0.8374,,[],[],[],[],[],[],[],358.0473,360.0471,360.0472,360.0474,[],[],[],[],[],[],[],,360.0475,360.0477,0.164593818,-0.395670396,0,0,0,,0,36,36,127,1,2,word,ORIGINAL,print,original_p.png,,,,,,
,,,,31869,001,2025-10-16_13h13.26.973,HW_LDT_1,2024.2.4,MacIntel,59.52380952,,,,,,,,,,,,,,,,,,,,,360.0489,360.2471,360.2472,360.7471,,,,,,,,,,,,,,1.065,1,,,,,,,,,,,,,,z,,,,,,,,,,,,,,,,38,0,360.7477,361.8139,z,1,1.065,,[],[],[],[],[],[],[],361.8141,363.8139,363.814,363.8142,[],[],[],[],[],[],[],,363.8142,363.8143,0.164593818,-0.395670396,0,0,0,,0,37,37,15,1,2,RL,linedal,print,linedal_p.png,,,,,,
,,,,31869,001,2025-10-16_13h13.26.973,HW_LDT_1,2024.2.4,MacIntel,59.52380952,,,,,,,,,,,,,,,,,,,,,363.8159,364.0139,364.0139,364.5138,,,,,,,,,,,,,,0.8061,1,,,,,,,,,,,,,,z,,,,,,,,,,,,,,,,39,0,364.5144,365.3297,z,1,0.8061,,[],[],[],[],[],[],[],365.3297,367.3295,367.3296,367.3298,[],[],[],[],[],[],[],,367.3298,367.3299,0.164593818,-0.395670396,0,0,0,,0,38,38,23,1,2,RL,procogal,cursive,procogal_c.png,,,,,,
,,,,31869,001,2025-10-16_13h13.26.973,HW_LDT_1,2024.2.4,MacIntel,59.52380952,,,,,,,,,,,,,,,,,,,,,367.3312,367.5305,367.5306,368.0306,,,,,,,,,,,,,,0.7371,1,,,,,,,,,,,,,,z,,,,,,,,,,,,,,,,40,0,368.0311,368.7806,z,1,0.7371,,[],[],[],[],[],[],[],368.7807,370.7805,370.7805,370.7807,[],[],[],[],[],[],[],,370.7809,370.7809,0.164593818,-0.395670396,0,0,0,,0,39,39,7,1,2,RL,cocewage,cursive,cocewage_c.png,,,,,,
,,,,31869,001,2025-10-16_13h13.26.973,HW_LDT_1,2024.2.4,MacIntel,59.52380952,,,,,,,,,,,,,,,,,,,,,370.7822,370.9806,370.9806,371.4805,,,,,,,,,,,,,,1.591,1,,,,,,,,,,,,,,m,,,,,,,,,,,,,,,,41,0,371.4811,373.0797,m,1,1.591,,[],[],[],[],[],[],[],373.0798,375.0805,375.0806,375.0809,[],[],[],[],[],[],[],,375.0809,375.081,0.164593818,-0.395670396,0,0,0,,0,40,40,112,1,2,word,LIBERAL,print,liberal_p.png,,,,,,
,,,,31869,001,2025-10-16_13h13.26.973,HW_LDT_1,2024.2.4,MacIntel,59.52380952,,,,,,,,,,,,,,,,,,,,,375.0824,375.2795,375.2796,375.7796,,,,,,,,,,,,,,0.7543,1,,,,,,,,,,,,,,z,,,,,,,,,,,,,,,,42,0,375.7801,376.5473,z,1,0.7543,,[],[],[],[],[],[],[],376.5474,378.5472,378.5473,378.5475,[],[],[],[],[],[],[],,378.5475,378.5476,0.164593818,-0.387271321,0,0,0,,0,41,41,58,1,2,TL,mitilary,cursive,mitilary_c.png,,,,,,
,,,,31869,001,2025-10-16_13h13.26.973,HW_LDT_1,2024.2.4,MacIntel,59.52380952,,,,,,,,,,,,,,,,,,,,,378.5489,378.7472,378.7473,379.2472,,,,,,,,,,,,,,0.9899,1,,,,,,,,,,,,,,m,,,,,,,,,,,,,,,,43,1,379.2478,380.2473,m,1,0.9899,,[],[],[],[],[],[],[],380.2474,382.2472,382.2473,383.8637,[],[],[],[],[],[],[],m,383.8637,383.8637,0.164593818,-0.387271321,0,0,0,,0,42,42,154,1,2,word,STORAGE,print,storage_p.png,1.6036,,,,,
,,,,31869,001,2025-10-16_13h13.26.973,HW_LDT_1,2024.2.4,MacIntel,59.52380952,,,,,,,,,,,,,,,,,,,,,383.864,384.0631,384.0631,384.563,,,,,,,,,,,,,,1.4119,0,,,,,,,,,,,,,,m,,,,,,,,,,,,,,,,44,1,384.5637,385.9805,z,0,1.4119,,[],[],[],[],[],[],[],385.9805,387.9806,387.9807,388.8641,[],[],[],[],[],[],[],z,388.8642,388.8642,0.164593818,-0.387271321,0,0,0,,0,43,43,106,1,2,word,ELABORATE,cursive,elaborate_c.png,0.8743,,,,,
,,,,31869,001,2025-10-16_13h13.26.973,HW_LDT_1,2024.2.4,MacIntel,59.52380952,,,,,,,,,,,,,,,,,,,,,388.8657,389.0639,389.064,389.5639,,,,,,,,,,,,,,1.6207,0,,,,,,,,,,,,,,z,,,,,,,,,,,,,,,,45,0,389.5646,391.1973,m,0,1.6207,,[],[],[],[],[],[],[],391.1974,393.1973,393.1974,393.1977,[],[],[],[],[],[],[],,393.1977,393.1978,0.164593818,-0.387271321,0,0,0,,0,44,44,33,1,2,RL,strapely,cursive,strapely_c.png,,,,,,
,,,,31869,001,2025-10-16_13h13.26.973,HW_LDT_1,2024.2.4,MacIntel,59.52380952,,,,,,,,,,,,,,,,,,,,,393.199,393.3973,393.3973,393.8973,,,,,,,,,,,,,,0.9656,0,,,,,,,,,,,,,,z,,,,,,,,,,,,,,,,46,1,393.8978,394.8646,m,0,0.9656,,[],[],[],[],[],[],[],394.8647,396.8639,396.864,398.3308,[],[],[],[],[],[],[],m,398.3308,398.3309,0.164593818,-0.387271321,0,0,0,,0,45,45,50,1,2,TL,donimant,print,donimant_p.png,1.4659,,,,,
,,,,31869,001,2025-10-16_13h13.26.973,HW_LDT_1,2024.2.4,MacIntel,59.52380952,,,,,,,,,,,,,,,,,,,,,398.3323,398.5306,398.5307,399.0305,,,,,,,,,,,,,,1.2147,1,,,,,,,,,,,,,,z,,,,,,,,,,,,,,,,47,0,399.0312,400.2473,z,1,1.2147,,[],[],[],[],[],[],[],400.2474,402.2473,402.2474,402.2475,[],[],[],[],[],[],[],,402.2476,402.2477,0.164593818,-0.387271321,0,0,0,,0,46,46,46,1,2,TL,codemy,cursive,codemy_c.png,,,,,,
,,,,31869,001,2025-10-16_13h13.26.973,HW_LDT_1,2024.2.4,MacIntel,59.52380952,,,,,,,,,,,,,,,,,,,,,402.249,402.4475,402.4475,402.9463,,,,,,,,,,,,,,0.8825,1,,,,,,,,,,,,,,z,,,,,,,,,,,,,,,,48,0,402.947,403.8307,z,1,0.8825,,[],[],[],[],[],[],[],403.8308,405.8307,405.8308,405.831,[],[],[],[],[],[],[],,405.831,405.8311,0.164593818,-0.387271321,0,0,0,,0,47,47,54,1,2,TL,liretal,cursive,liretal_c.png,,,,,,
,,,,31869,001,2025-10-16_13h13.26.973,HW_LDT_1,2024.2.4,MacIntel,59.52380952,,,,,,,,,,,,,,,,,,,,,405.8325,406.0306,406.0307,406.5307,,,,,,,,,,,,,,1.8039,0,,,,,,,,,,,,,,m,,,,,,,,,,,,,,,,49,0,406.5312,408.3465,z,0,1.8039,,[],[],[],[],[],[],[],408.3466,410.3474,410.3475,410.3477,[],[],[],[],[],[],[],,410.3477,410.3478,0.164593818,-0.387271321,0,0,0,,0,48,48,91,1,2,word,CARDINAL,cursive,cardinal_c.png,,,,,,
,,,,31869,001,2025-10-16_13h13.26.973,HW_LDT_1,2024.2.4,MacIntel,59.52380952,,,,,,,,,,,,,,,,,,,,,410.3492,410.5465,410.5465,411.0474,,,,,,,,,,,,,,0.9871,1,,,,,,,,,,,,,,m,,,,,,,,,,,,,,,,50,0,411.0479,412.0466,m,1,0.9871,,[],[],[],[],[],[],[],412.0466,414.0473,414.0474,414.0476,[],[],[],[],[],[],[],,414.0476,414.0477,0.164593818,-0.387271321,0,0,0,,0,49,49,152,1,2,word,SPECIMEN,print,specimen_p.png,,,,,,
,,,,31869,001,2025-10-16_13h13.26.973,HW_LDT_1,2024.2.4,MacIntel,59.52380952,,,,,,,,,,,,,,,,,,,,,414.0491,414.2473,414.2474,414.7474,,,,,,,,,,,,,,2.1315,1,,,,,,,,,,,,,,z,,,,,,,,,,,,,,,,51,0,414.748,416.8808,z,1,2.1315,,[],[],[],[],[],[],[],416.8809,418.8798,418.88,418.8801,[],[],[],[],[],[],[],,418.8801,418.8803,0.164593818,-0.387271321,0,0,0,,0,50,50,0,1,2,RL,adnicory,print,adnicory_p.png,,,,,,
,,,,31869,001,2025-10-16_13h13.26.973,HW_LDT_1,2024.2.4,MacIntel,59.52380952,,,,,,,,,,,,,,,,,,,,,418.8816,419.0807,419.0808,419.5798,,,,,,,,,,,,,,1.442,1,,,,,,,,,,,,,,z,,,,,,,,,,,,,,,,52,0,419.5804,421.03,z,1,1.442,,[],[],[],[],[],[],[],421.0301,423.0307,423.0308,423.031,[],[],[],[],[],[],[],,423.0311,423.0312,0.164593818,-0.387271321,0,0,0,,0,51,51,24,1,2,RL,rasibal,cursive,rasibal_c.png,,,,,,
,,,,31869,001,2025-10-16_13h13.26.973,HW_LDT_1,2024.2.4,MacIntel,59.52380952,,,,,,,,,,,,,,,,,,,,,423.0325,423.2307,423.2307,423.7298,,,,,,,,,,,,,,1.2548,0,,,,,,,,,,,,,,z,,,,,,,,,,,,,,,,53,0,423.7304,424.9975,m,0,1.2548,,[],[],[],[],[],[],[],424.9976,426.9975,426.9975,426.9977,[],[],[],[],[],[],[],,426.9978,426.9978,0.164593818,-0.388036419,0,0,0,,0,52,52,55,1,2,TL,lotace,print,lotace_p.png,,,,,,
,,,,31869,001,2025-10-16_13h13.26.973,HW_LDT_1,2024.2.4,MacIntel,59.52380952,,,,,,,,,,,,,,,,,,,,,426.9992,427.1967,427.1967,427.6975,,,,,,,,,,,,,,3.1371,1,,,,,,,,,,,,,,z,,,,,,,,,,,,,,,,54,0,427.6981,430.8476,z,1,3.1371,,[],[],[],[],[],[],[],430.8477,432.8466,432.8466,432.8468,[],[],[],[],[],[],[],,432.8468,432.8469,0.164593818,-0.388036419,0,0,0,,0,53,53,31,1,2,RL,spetisic,print,spetisic_p.png,,,,,,
,,,,31869,001,2025-10-16_13h13.26.973,HW_LDT_1,2024.2.4,MacIntel,59.52380952,,,,,,,,,,,,,,,,,,,,,432.8483,433.0474,433.0474,433.5473,,,,,,,,,,,,,,0.8375,1,,,,,,,,,,,,,,z,,,,,,,,,,,,,,,,55,1,433.5481,434.3967,z,1,0.8375,,[],[],[],[],[],[],[],434.3968,436.3966,436.3967,437.5974,[],[],[],[],[],[],[],m,437.5974,437.5975,0.164593818,-0.387241567,0,0,0,,0,54,54,34,1,2,RL,trilude,cursive,trilude_c.png,1.1989,,,,,
,,,,31869,001,2025-10-16_13h13.26.973,HW_LDT_1,2024.2.4,MacIntel,59.52380952,,,,,,,,,,,,,,,,,,,,,437.5981,437.7975,437.7977,438.2974,,,,,,,,,,,,,,2.4047,0,,,,,,,,,,,,,,m,,,,,,,,,,,,,,,,56,0,438.298,440.7143,z,0,2.4047,,[],[],[],[],[],[],[],440.7144,442.7133,442.7134,442.7135,[],[],[],[],[],[],[],,442.7136,442.7137,0.164593818,-0.386973783,0,0,0,,0,55,55,123,1,2,word,MODERATE,cursive,moderate_c.png,,,,,,
,,,,31869,001,2025-10-16_13h13.26.973,HW_LDT_1,2024.2.4,MacIntel,59.52380952,,,,,,,,,,,,,,,,,,,,,442.7151,442.9142,442.9142,443.4142,,,,,,,,,,,,,,0.8244,1,,,,,,,,,,,,,,m,,,,,,,,,,,,,,,,57,0,443.4148,444.2476,m,1,0.8244,,[],[],[],[],[],[],[],444.2477,446.2475,446.2475,446.2477,[],[],[],[],[],[],[],,446.2478,446.2478,0.164593818,-0.386723001,0,0,0,,0,56,56,99,1,2,word,DEBATE,print,debate_p.png,,,,,,
,,,,31869,001,2025-10-16_13h13.26.973,HW_LDT_1,2024.2.4,MacIntel,59.52380952,,,,,,,,,,,,,,,,,,,,,446.2491,446.4475,446.4475,446.9475,,,,,,,,,,,,,,0.7877,1,,,,,,,,,,,,,,m,,,,,,,,,,,,,,,,58,0,446.948,447.7478,m,1,0.7877,,[],[],[],[],[],[],[],447.7479,449.7473,449.7473,449.7476,[],[],[],[],[],[],[],,449.7477,449.7478,0.165082631,-0.386497722,0,0,0,,0,57,57,144,1,2,word,RESIDENT,print,resident_p.png,,,,,,
,,,,31869,001,2025-10-16_13h13.26.973,HW_LDT_1,2024.2.4,MacIntel,59.52380952,,,,,,,,,,,,,,,,,,,,,449.7491,449.9479,449.9479,450.4475,,,,,,,,,,,,,,1.3545,1,,,,,,,,,,,,,,m,,,,,,,,,,,,,,,,59,0,450.4482,451.8144,m,1,1.3545,,[],[],[],[],[],[],[],451.8145,453.8142,453.8142,453.8144,[],[],[],[],[],[],[],,453.8145,453.8146,0.165333413,-0.385137548,0,0,0,,0,58,58,86,1,2,word,BESIDE,cursive,beside_c.png,,,,,,
,,,,31869,001,2025-10-16_13h13.26.973,HW_LDT_1,2024.2.4,MacIntel,59.52380952,,,,,,,,,,,,,,,,,,,,,453.8159,454.0142,454.0143,454.5142,,,,,,,,,,,,,,0.7562,1,,,,,,,,,,,,,,m,,,,,,,,,,,,,,,,60,0,454.5148,455.2808,m,1,0.7562,,[],[],[],[],[],[],[],455.2809,457.2809,457.281,457.2812,[],[],[],[],[],[],[],,457.2813,457.2813,0.165333413,-0.384317193,0,0,0,,0,59,59,128,1,2,word,PACIFIC,print,pacific_p.png,,,,,,
,,,,31869,001,2025-10-16_13h13.26.973,HW_LDT_1,2024.2.4,MacIntel,59.52380952,,,,,,,,,,,,,,,,,,,,,457.2828,457.4809,457.481,457.9809,,,,,,,,,,,,,,0.8653,1,,,,,,,,,,,,,,z,,,,,,,,,,,,,,,,61,0,457.9815,458.8478,z,1,0.8653,,[],[],[],[],[],[],[],458.8479,460.8476,460.8476,460.8479,[],[],[],[],[],[],[],,460.8479,460.848,0.154868573,-0.357270981,0,0,0,,0,60,60,6,1,2,RL,conbicer,print,conbicer_p.png,,,,,,
,,,,31869,001,2025-10-16_13h13.26.973,HW_LDT_1,2024.2.4,MacIntel,59.52380952,,,,,,,,,,,,,,,,,,,,,460.8492,461.0476,461.0477,461.5476,,,,,,,,,,,,,,0.7466,1,,,,,,,,,,,,,,z,,,,,,,,,,,,,,,,62,0,461.5482,462.2978,z,1,0.7466,,[],[],[],[],[],[],[],462.298,464.2976,464.2976,464.2978,[],[],[],[],[],[],[],,464.2979,464.298,0.160759827,-0.361636289,0,0,0,,0,61,61,59,1,2,TL,miskate,cursive,miskate_c.png,,,,,,
,,,,31869,001,2025-10-16_13h13.26.973,HW_LDT_1,2024.2.4,MacIntel,59.52380952,,,,,,,,,,,,,,,,,,,,,464.2993,464.4976,464.4976,464.9975,,,,,,,,,,,,,,0.9315,0,,,,,,,,,,,,,,z,,,,,,,,,,,,,,,,63,0,464.9982,465.9311,m,0,0.9315,,[],[],[],[],[],[],[],465.9311,467.9309,467.931,467.9311,[],[],[],[],[],[],[],,467.9313,467.9314,0.160759827,-0.361636289,0,0,0,,0,62,62,79,1,2,TL,vadility,print,vadility_p.png,,,,,,
,,,,31869,001,2025-10-16_13h13.26.973,HW_LDT_1,2024.2.4,MacIntel,59.52380952,,,,,,,,,,,,,,,,,,,,,467.9328,468.1309,468.131,468.6309,,,,,,,,,,,,,,1.7072,1,,,,,,,,,,,,,,m,,,,,,,,,,,,,,,,64,0,468.6316,470.3477,m,1,1.7072,,[],[],[],[],[],[],[],470.3477,472.3476,472.3477,472.348,[],[],[],[],[],[],[],,472.348,472.3481,0.160759827,-0.361636289,0,0,0,,0,63,63,134,1,2,word,QUALIFY,cursive,qualify_c.png,,,,,,
,,,,31869,001,2025-10-16_13h13.26.973,HW_LDT_1,2024.2.4,MacIntel,59.52380952,,,,,,,,,,,,,,,,,,,,,472.3494,472.548,472.548,473.0477,,,,,,,,,,,,,,2.3242,1,,,,,,,,,,,,,,z,,,,,,,,,,,,,,,,65,0,473.0483,475.381,z,1,2.3242,,[],[],[],[],[],[],[],475.3812,477.381,477.3811,477.3813,[],[],[],[],[],[],[],,477.3813,477.3814,0.165014622,-0.360531148,0,0,0,,0,64,64,44,1,2,TL,catipal,cursive,catipal_c.png,,,,,,
,,,,31869,001,2025-10-16_13h13.26.973,HW_LDT_1,2024.2.4,MacIntel,59.52380952,,,,,,,,,,,,,,,,,,,,,477.3825,477.5809,477.581,478.081,,,,,,,,,,,,,,0.988,1,,,,,,,,,,,,,,m,,,,,,,,,,,,,,,,66,0,478.0816,479.0813,m,1,0.988,,[],[],[],[],[],[],[],479.0814,481.0809,481.0809,481.0812,[],[],[],[],[],[],[],,481.0813,481.0813,0.165014622,-0.36077768,0,0,0,,0,65,65,92,1,2,word,CATEGORY,print,category_p.png,,,,,,
,,,,31869,001,2025-10-16_13h13.26.973,HW_LDT_1,2024.2.4,MacIntel,59.52380952,,,,,,,,,,,,,,,,,,,,,481.0826,481.2809,481.281,481.781,,,,,,,,,,,,,,2.1584,1,,,,,,,,,,,,,,z,,,,,,,,,,,,,,,,67,0,481.7815,483.9478,z,1,2.1584,,[],[],[],[],[],[],[],483.9479,485.9476,485.9477,485.9479,[],[],[],[],[],[],[],,485.9479,485.9481,0.165014622,-0.36077768,0,0,0,,0,66,66,20,1,2,RL,onegator,cursive,onegator_c.png,,,,,,
,,,,31869,001,2025-10-16_13h13.26.973,HW_LDT_1,2024.2.4,MacIntel,59.52380952,,,,,,,,,,,,,,,,,,,,,485.9494,486.1477,486.1478,486.6476,,,,,,,,,,,,,,1.6071,1,,,,,,,,,,,,,,m,,,,,,,,,,,,,,,,68,0,486.6483,488.2648,m,1,1.6071,,[],[],[],[],[],[],[],488.2648,490.2643,490.2644,490.2646,[],[],[],[],[],[],[],,490.2647,490.2648,0.165775469,-0.358473885,0,0,0,,0,67,67,137,1,2,word,RAPIDLY,print,rapidly_p.png,,,,,,
,,,,31869,001,2025-10-16_13h13.26.973,HW_LDT_1,2024.2.4,MacIntel,59.52380952,,,,,,,,,,,,,,,,,,,,,490.2661,490.4643,490.4644,490.9643,,,,,,,,,,,,,,0.8826,1,,,,,,,,,,,,,,m,,,,,,,,,,,,,,,,69,1,490.9648,491.8485,m,1,0.8826,,[],[],[],[],[],[],[],491.8485,493.8478,493.8478,496.5478,[],[],[],[],[],[],[],z,496.5479,496.548,0.165775469,-0.358473885,0,0,0,,0,68,68,101,1,2,word,DELICATE,print,delicate_p.png,2.6929,,,,,
,,,,31869,001,2025-10-16_13h13.26.973,HW_LDT_1,2024.2.4,MacIntel,59.52380952,,,,,,,,,,,,,,,,,,,,,496.5493,496.7477,496.7477,497.2477,,,,,,,,,,,,,,2.2649,1,,,,,,,,,,,,,,m,,,,,,,,,,,,,,,,70,0,497.2483,499.5144,m,1,2.2649,,[],[],[],[],[],[],[],499.5146,501.5143,501.5145,501.5146,[],[],[],[],[],[],[],,501.5147,501.5147,0.165775469,-0.358473885,0,0,0,,0,69,69,150,1,2,word,SENTIMENT,cursive,sentiment_c.png,,,,,,
,,,,31869,001,2025-10-16_13h13.26.973,HW_LDT_1,2024.2.4,MacIntel,59.52380952,,,,,,,,,,,,,,,,,,,,,501.516,501.7143,501.7144,502.2143,,,,,,,,,,,,,,1.5381,1,,,,,,,,,,,,,,z,,,,,,,,,,,,,,,,71,0,502.215,503.7646,z,1,1.5381,,[],[],[],[],[],[],[],503.7647,505.7646,505.7646,505.7649,[],[],[],[],[],[],[],,505.7649,505.7651,0.165775469,-0.358473885,0,0,0,,0,70,70,9,1,2,RL,denficy,print,denficy_p.png,,,,,,
,,,,31869,001,2025-10-16_13h13.26.973,HW_LDT_1,2024.2.4,MacIntel,59.52380952,,,,,,,,,,,,,,,,,,,,,505.7664,505.9644,505.9644,506.4644,,,,,,,,,,,,,,0.9141,1,,,,,,,,,,,,,,z,,,,,,,,,,,,,,,,72,0,506.465,507.3803,z,1,0.9141,,[],[],[],[],[],[],[],507.3804,509.3811,509.3812,509.3814,[],[],[],[],[],[],[],,509.3815,509.3816,0.165775469,-0.358473885,0,0,0,,0,71,71,38,1,2,TL,atameur,cursive,atameur_c.png,,,,,,
,,,,31869,001,2025-10-16_13h13.26.973,HW_LDT_1,2024.2.4,MacIntel,59.52380952,,,,,,,,,,,,,,,,,,,,,509.3828,509.5811,509.5811,510.0811,,,,,,,,,,,,,,1.9039,1,,,,,,,,,,,,,,z,,,,,,,,,,,,,,,,73,0,510.0817,511.9978,z,1,1.9039,,[],[],[],[],[],[],[],511.998,513.9977,513.9978,513.998,[],[],[],[],[],[],[],,513.998,513.9981,0.165775469,-0.358473885,0,0,0,,0,72,72,52,1,2,TL,elarobate,cursive,elarobate_c.png,,,,,,
,,,,31869,001,2025-10-16_13h13.26.973,HW_LDT_1,2024.2.4,MacIntel,59.52380952,,,,,,,,,,,,,,,,,,,,,513.9993,514.1977,514.1978,514.6978,,,,,,,,,,,,,,1.2373,1,,,,,,,,,,,,,,z,,,,,,,,,,,,,,,,74,0,514.6984,515.9479,z,1,1.2373,,[],[],[],[],[],[],[],515.948,517.9478,517.9479,517.9481,[],[],[],[],[],[],[],,517.9482,517.9483,0.165775469,-0.358473885,0,0,0,,0,73,73,43,1,2,TL,carema,print,carema_p.png,,,,,,
,,,,31869,001,2025-10-16_13h13.26.973,HW_LDT_1,2024.2.4,MacIntel,59.52380952,,,,,,,,,,,,,,,,,,,,,517.9496,518.1477,518.1478,518.6479,,,,,,,,,,,,,,0.7081,1,,,,,,,,,,,,,,z,,,,,,,,,,,,,,,,75,0,518.6484,519.3645,z,1,0.7081,,[],[],[],[],[],[],[],519.3647,521.3645,521.3646,521.3647,[],[],[],[],[],[],[],,521.3648,521.3649,0.166030502,-0.358975449,0,0,0,,0,74,74,18,1,2,RL,mesibine,print,mesibine_p.png,,,,,,
,,,,31869,001,2025-10-16_13h13.26.973,HW_LDT_1,2024.2.4,MacIntel,59.52380952,,,,,,,,,,,,,,,,,,,,,521.3663,521.5645,521.5645,522.0644,,,,,,,,,,,,,,0.8648,1,,,,,,,,,,,,,,m,,,,,,,,,,,,,,,,76,0,522.065,522.9312,m,1,0.8648,,[],[],[],[],[],[],[],522.9312,524.9311,524.9312,524.9315,[],[],[],[],[],[],[],,524.9315,524.9317,0.166030502,-0.358975449,0,0,0,,0,75,75,136,1,2,word,RADICAL,cursive,radical_c.png,,,,,,
,,,,31869,001,2025-10-16_13h13.26.973,HW_LDT_1,2024.2.4,MacIntel,59.52380952,,,,,,,,,,,,,,,,,,,,,524.9329,525.1303,525.1303,525.6303,,,,,,,,,,,,,,0.8902,1,,,,,,,,,,,,,,z,,,,,,,,,,,,,,,,77,0,525.6309,526.5312,z,1,0.8902,,[],[],[],[],[],[],[],526.5313,528.5312,528.5312,528.5314,[],[],[],[],[],[],[],,528.5315,528.5316,0.166030502,-0.358975449,0,0,0,,0,76,76,16,1,2,RL,losipal,print,losipal_p.png,,,,,,
,,,,31869,001,2025-10-16_13h13.26.973,HW_LDT_1,2024.2.4,MacIntel,59.52380952,,,,,,,,,,,,,,,,,,,,,528.5328,528.7311,528.7312,529.2301,,,,,,,,,,,,,,0.8892,1,,,,,,,,,,,,,,m,,,,,,,,,,,,,,,,78,0,529.2308,530.1303,m,1,0.8892,,[],[],[],[],[],[],[],530.1303,532.1302,532.1303,532.1304,[],[],[],[],[],[],[],,532.1305,532.1305,0.166030502,-0.358975449,0,0,0,,0,77,77,88,1,2,word,CAMERA,print,camera_p.png,,,,,,
,,,,31869,001,2025-10-16_13h13.26.973,HW_LDT_1,2024.2.4,MacIntel,59.52380952,,,,,,,,,,,,,,,,,,,,,532.1321,532.3312,532.3312,532.8312,,,,,,,,,,,,,,1.1542,1,,,,,,,,,,,,,,m,,,,,,,,,,,,,,,,79,0,532.8318,533.998,m,1,1.1542,,[],[],[],[],[],[],[],533.9981,535.9969,535.997,535.9972,[],[],[],[],[],[],[],,535.9973,535.9975,0.166030502,-0.358975449,0,0,0,,0,78,78,132,1,2,word,PROPOSAL,cursive,proposal_c.png,,,,,,
,,,,31869,001,2025-10-16_13h13.26.973,HW_LDT_1,2024.2.4,MacIntel,59.52380952,,,,,,,,,,,,,,,,,,,,,535.9988,536.1969,536.197,536.6979,,,,,,,,,,,,,,0.8872,0,,,,,,,,,,,,,,m,,,,,,,,,,,,,,,,80,0,536.6985,537.597,z,0,0.8872,,[],[],[],[],[],[],[],537.5972,539.5978,539.5979,539.5982,[],[],[],[],[],[],[],,539.5982,585.232,0.166030502,-0.358975449,0,0,0,space,0,79,79,145,1,2,word,RESUME,cursive,resume_c.png,,,45.6055,,,
,,,,31869,001,2025-10-16_13h13.26.973,HW_LDT_1,2024.2.4,MacIntel,59.52380952,,,,,,,,,,,,,,,,,,,,,585.2334,585.4315,585.4317,585.9304,,,,,,,,,,,,,,2.2591,1,,,,,,,,,,,,,,z,,,,,,,,,,,,,,,,81,0,585.9311,588.1982,z,1,2.2591,,[],[],[],[],[],[],[],588.1984,590.198,590.1981,590.1983,[],[],[],[],[],[],[],,590.1985,590.1986,0.166030502,-0.358975449,0,0,0,,0,80,80,28,1,2,RL,revune,cursive,revune_c.png,,,,,,
,,,,31869,001,2025-10-16_13h13.26.973,HW_LDT_1,2024.2.4,MacIntel,59.52380952,,,,,,,,,,,,,,,,,,,,,590.1999,590.3971,590.3971,590.898,,,,,,,,,,,,,,0.7042,1,,,,,,,,,,,,,,m,,,,,,,,,,,,,,,,82,1,590.8986,591.6139,m,1,0.7042,,[],[],[],[],[],[],[],591.614,593.6148,593.6148,594.6482,[],[],[],[],[],[],[],m,594.6484,594.6485,0.166030502,-0.358975449,0,0,0,,0,81,81,83,1,2,word,ANIMAL,print,animal_p.png,1.026,,,,,
,,,,31869,001,2025-10-16_13h13.26.973,HW_LDT_1,2024.2.4,MacIntel,59.52380952,,,,,,,,,,,,,,,,,,,,,594.6497,594.8481,594.8482,595.3476,,,,,,,,,,,,,,0.838,0,,,,,,,,,,,,,,m,,,,,,,,,,,,,,,,83,0,595.3482,596.1982,z,0,0.838,,[],[],[],[],[],[],[],596.1982,598.1971,598.1972,598.1975,[],[],[],[],[],[],[],,598.1975,598.1976,0.166030502,-0.358975449,0,0,0,,0,82,82,95,1,2,word,COMEDY,cursive,comedy_c.png,,,,,,
,,,,31869,001,2025-10-16_13h13.26.973,HW_LDT_1,2024.2.4,MacIntel,59.52380952,,,,,,,,,,,,,,,,,,,,,598.1989,598.3981,598.3981,598.8981,,,,,,,,,,,,,,2.0044,0,,,,,,,,,,,,,,m,,,,,,,,,,,,,,,,84,1,598.8988,600.9149,z,0,2.0044,,[],[],[],[],[],[],[],600.9149,602.9138,602.9138,603.8473,[],[],[],[],[],[],[],z,603.8473,603.8475,0.166030502,-0.358975449,0,0,0,,0,83,83,126,1,2,word,OPTIMAL,cursive,optimal_c.png,0.9223,,,,,
,,,,31869,001,2025-10-16_13h13.26.973,HW_LDT_1,2024.2.4,MacIntel,59.52380952,,,,,,,,,,,,,,,,,,,,,603.8489,604.0482,604.0482,604.5472,,,,,,,,,,,,,,1.8495,1,,,,,,,,,,,,,,z,,,,,,,,,,,,,,,,85,0,604.5478,606.3985,z,1,1.8495,,[],[],[],[],[],[],[],606.3985,608.3982,608.3982,608.3985,[],[],[],[],[],[],[],,608.3985,608.3987,0.16867009,-0.358975449,0,0,0,,0,84,84,39,1,2,TL,aminal,print,aminal_p.png,,,,,,
,,,,31869,001,2025-10-16_13h13.26.973,HW_LDT_1,2024.2.4,MacIntel,59.52380952,,,,,,,,,,,,,,,,,,,,,608.4,608.5981,608.5981,609.0982,,,,,,,,,,,,,,0.9814,1,,,,,,,,,,,,,,m,,,,,,,,,,,,,,,,86,1,609.0987,610.0815,m,1,0.9814,,[],[],[],[],[],[],[],610.0816,612.0815,612.0816,613.864,[],[],[],[],[],[],[],z,613.8641,613.8643,0.169124898,-0.358975449,0,0,0,,0,85,85,133,1,2,word,PROVIDE,cursive,provide_c.png,1.7717,,,,,
,,,,31869,001,2025-10-16_13h13.26.973,HW_LDT_1,2024.2.4,MacIntel,59.52380952,,,,,,,,,,,,,,,,,,,,,613.8656,614.0649,614.065,614.5648,,,,,,,,,,,,,,0.8213,1,,,,,,,,,,,,,,m,,,,,,,,,,,,,,,,87,0,614.5654,615.3983,m,1,0.8213,,[],[],[],[],[],[],[],615.3983,617.3983,617.3983,617.3985,[],[],[],[],[],[],[],,617.3986,617.3987,0.169124898,-0.358975449,0,0,0,,0,86,86,151,1,2,word,SPECIFIC,print,specific_p.png,,,,,,
,,,,31869,001,2025-10-16_13h13.26.973,HW_LDT_1,2024.2.4,MacIntel,59.52380952,,,,,,,,,,,,,,,,,,,,,617.4,617.5973,617.5973,618.0983,,,,,,,,,,,,,,1.0412,1,,,,,,,,,,,,,,m,,,,,,,,,,,,,,,,88,0,618.0989,619.1483,m,1,1.0412,,[],[],[],[],[],[],[],619.1484,621.1482,621.1482,621.1485,[],[],[],[],[],[],[],,621.1486,621.1486,0.169124898,-0.358975449,0,0,0,,0,87,87,94,1,2,word,CLINICAL,cursive,clinical_c.png,,,,,,
,,,,31869,001,2025-10-16_13h13.26.973,HW_LDT_1,2024.2.4,MacIntel,59.52380952,,,,,,,,,,,,,,,,,,,,,621.1499,621.3482,621.3482,621.8473,,,,,,,,,,,,,,1.5041,1,,,,,,,,,,,,,,m,,,,,,,,,,,,,,,,89,0,621.8479,623.3649,m,1,1.5041,,[],[],[],[],[],[],[],623.3651,625.3649,625.365,625.3651,[],[],[],[],[],[],[],,625.3652,625.3654,0.169124898,-0.358975449,0,0,0,,0,88,88,124,1,2,word,NUMERICAL,cursive,numerical_c.png,,,,,,
,,,,31869,001,2025-10-16_13h13.26.973,HW_LDT_1,2024.2.4,MacIntel,59.52380952,,,,,,,,,,,,,,,,,,,,,625.3666,625.5649,625.565,626.0649,,,,,,,,,,,,,,0.9247,1,,,,,,,,,,,,,,m,,,,,,,,,,,,,,,,90,0,626.0655,626.9974,m,1,0.9247,,[],[],[],[],[],[],[],626.9975,628.9983,628.9984,628.9986,[],[],[],[],[],[],[],,628.9986,628.9987,0.169124898,-0.358975449,0,0,0,,0,89,89,130,1,2,word,POLICY,print,policy_p.png,,,,,,
,,,,31869,001,2025-10-16_13h13.26.973,HW_LDT_1,2024.2.4,MacIntel,59.52380952,,,,,,,,,,,,,,,,,,,,,629.0001,629.1983,629.1983,629.6983,,,,,,,,,,,,,,0.5882,0,,,,,,,,,,,,,,z,,,,,,,,,,,,,,,,91,0,629.6989,630.2983,m,0,0.5882,,[],[],[],[],[],[],[],630.2984,632.2974,632.2974,632.2976,[],[],[],[],[],[],[],,632.2976,632.2978,0.169124898,-0.358975449,0,0,0,,0,90,90,63,1,2,TL,orinigal,print,orinigal_p.png,,,,,,
,,,,31869,001,2025-10-16_13h13.26.973,HW_LDT_1,2024.2.4,MacIntel,59.52380952,,,,,,,,,,,,,,,,,,,,,632.2991,632.4982,632.4983,632.9983,,,,,,,,,,,,,,1.0575,1,,,,,,,,,,,,,,z,,,,,,,,,,,,,,,,92,1,632.9989,634.065,z,1,1.0575,,[],[],[],[],[],[],[],634.0651,636.0649,636.065,639.1152,[],[],[],[],[],[],[],z,639.1153,639.1155,0.169124898,-0.358975449,0,0,0,,0,91,91,36,1,2,RL,vecelan,print,vecelan_p.png,3.0477,,,,,
,,,,31869,001,2025-10-16_13h13.26.973,HW_LDT_1,2024.2.4,MacIntel,59.52380952,,,,,,,,,,,,,,,,,,,,,639.1169,639.3149,639.3149,639.815,,,,,,,,,,,,,,1.0872,1,,,,,,,,,,,,,,z,,,,,,,,,,,,,,,,93,0,639.8156,640.9142,z,1,1.0872,,[],[],[],[],[],[],[],640.9143,642.915,642.915,642.9152,[],[],[],[],[],[],[],,642.9153,642.9153,0.169124898,-0.358975449,0,0,0,,0,92,92,21,1,2,RL,pamest,print,pamest_p.png,,,,,,
,,,,31869,001,2025-10-16_13h13.26.973,HW_LDT_1,2024.2.4,MacIntel,59.52380952,,,,,,,,,,,,,,,,,,,,,642.9167,643.1149,643.115,643.615,,,,,,,,,,,,,,1.5483,1,,,,,,,,,,,,,,m,,,,,,,,,,,,,,,,94,0,643.6156,645.1651,m,1,1.5483,,[],[],[],[],[],[],[],645.1652,647.164,647.1641,647.1643,[],[],[],[],[],[],[],,647.1644,647.1645,0.169124898,-0.358975449,0,0,0,,0,93,93,135,1,2,word,QUALITY,cursive,quality_c.png,,,,,,
,,,,31869,001,2025-10-16_13h13.26.973,HW_LDT_1,2024.2.4,MacIntel,59.52380952,,,,,,,,,,,,,,,,,,,,,647.1657,647.3641,647.3641,647.8651,,,,,,,,,,,,,,0.7896,1,,,,,,,,,,,,,,z,,,,,,,,,,,,,,,,95,0,647.8656,648.6641,z,1,0.7896,,[],[],[],[],[],[],[],648.6643,650.6641,650.6642,650.6643,[],[],[],[],[],[],[],,650.6644,650.6645,0.169124898,-0.358975449,0,0,0,,0,94,94,53,1,2,TL,edivent,cursive,edivent_c.png,,,,,,
,,,,31869,001,2025-10-16_13h13.26.973,HW_LDT_1,2024.2.4,MacIntel,59.52380952,,,,,,,,,,,,,,,,,,,,,650.6657,650.865,650.865,651.365,,,,,,,,,,,,,,0.9654,1,,,,,,,,,,,,,,z,,,,,,,,,,,,,,,,96,1,651.3655,652.3321,z,1,0.9654,,[],[],[],[],[],[],[],652.3321,654.3317,654.3318,655.4476,[],[],[],[],[],[],[],m,655.4476,655.4479,0.169124898,-0.358975449,0,0,0,,0,95,95,75,1,2,TL,ronamtic,print,ronamtic_p.png,1.1053,,,,,
,,,,31869,001,2025-10-16_13h13.26.973,HW_LDT_1,2024.2.4,MacIntel,59.52380952,,,,,,,,,,,,,,,,,,,,,655.4492,655.6485,655.6485,656.1484,,,,,,,,,,,,,,0.8887,1,,,,,,,,,,,,,,m,,,,,,,,,,,,,,,,97,0,656.1489,657.0486,m,1,0.8887,,[],[],[],[],[],[],[],657.0487,659.0474,659.0476,659.0478,[],[],[],[],[],[],[],,659.0478,659.048,0.169124898,-0.358975449,0,0,0,,0,96,96,115,1,2,word,LOGICAL,print,logical_p.png,,,,,,
,,,,31869,001,2025-10-16_13h13.26.973,HW_LDT_1,2024.2.4,MacIntel,59.52380952,,,,,,,,,,,,,,,,,,,,,659.0492,659.2484,659.2485,659.7483,,,,,,,,,,,,,,0.889,1,,,,,,,,,,,,,,z,,,,,,,,,,,,,,,,98,0,659.7489,660.6485,z,1,0.889,,[],[],[],[],[],[],[],660.6486,662.6484,662.6484,662.6487,[],[],[],[],[],[],[],,662.6487,662.6488,0.169124898,-0.358975449,0,0,0,,0,97,97,35,1,2,RL,vesofity,print,vesofity_p.png,,,,,,
,,,,31869,001,2025-10-16_13h13.26.973,HW_LDT_1,2024.2.4,MacIntel,59.52380952,,,,,,,,,,,,,,,,,,,,,662.65,662.8484,662.8484,663.3482,,,,,,,,,,,,,,0.7236,1,,,,,,,,,,,,,,m,,,,,,,,,,,,,,,,99,0,663.3488,664.0815,m,1,0.7236,,[],[],[],[],[],[],[],664.0816,666.0809,666.0809,666.0812,[],[],[],[],[],[],[],,666.0812,666.0813,0.160602557,-0.356816172,0,0,0,,0,98,98,118,1,2,word,MEDICINE,print,medicine_p.png,,,,,,
,,,,31869,001,2025-10-16_13h13.26.973,HW_LDT_1,2024.2.4,MacIntel,59.52380952,,,,,,,,,,,,,,,,,,,,,666.0825,666.2817,666.2818,666.7809,,,,,,,,,,,,,,0.7384,1,,,,,,,,,,,,,,m,,,,,,,,,,,,,,,,100,0,666.7814,667.531,m,1,0.7384,,[],[],[],[],[],[],[],667.5311,669.5314,669.5315,669.5317,[],[],[],[],[],[],[],,669.5318,669.5319,0.160602557,-0.356816172,0,0,0,,0,99,99,131,1,2,word,POPULAR,cursive,popular_c.png,,,,,,
,,,,31869,001,2025-10-16_13h13.26.973,HW_LDT_1,2024.2.4,MacIntel,59.52380952,,,,,,,,,,,,,,,,,,,,,669.5332,669.7318,669.7319,670.2317,,,,,,,,,,,,,,2.2039,1,,,,,,,,,,,,,,z,,,,,,,,,,,,,,,,101,0,670.2323,672.4486,z,1,2.2039,,[],[],[],[],[],[],[],672.4487,674.4484,674.4485,674.4487,[],[],[],[],[],[],[],,674.4488,674.4488,0.160602557,-0.356816172,0,0,0,,0,100,100,45,1,2,TL,carnidal,cursive,carnidal_c.png,,,,,,
,,,,31869,001,2025-10-16_13h13.26.973,HW_LDT_1,2024.2.4,MacIntel,59.52380952,,,,,,,,,,,,,,,,,,,,,674.4503,674.6485,674.6485,675.1485,,,,,,,,,,,,,,1.6382,1,,,,,,,,,,,,,,z,,,,,,,,,,,,,,,,102,0,675.149,676.7985,z,1,1.6382,,[],[],[],[],[],[],[],676.7986,678.7984,678.7985,678.7988,[],[],[],[],[],[],[],,678.7988,678.7989,0.160602557,-0.356816172,0,0,0,,0,101,101,42,1,2,TL,bedise,cursive,bedise_c.png,,,,,,
,,,,31869,001,2025-10-16_13h13.26.973,HW_LDT_1,2024.2.4,MacIntel,59.52380952,,,,,,,,,,,,,,,,,,,,,678.8002,678.9984,678.9985,679.4985,,,,,,,,,,,,,,1.9733,1,,,,,,,,,,,,,,z,,,,,,,,,,,,,,,,103,0,679.499,681.482,z,1,1.9733,,[],[],[],[],[],[],[],681.4821,683.4818,683.4818,683.4821,[],[],[],[],[],[],[],,683.4822,683.4823,0.160602557,-0.356816172,0,0,0,,0,102,102,76,1,2,TL,senmitent,cursive,senmitent_c.png,,,,,,
,,,,31869,001,2025-10-16_13h13.26.973,HW_LDT_1,2024.2.4,MacIntel,59.52380952,,,,,,,,,,,,,,,,,,,,,683.4836,683.6818,683.6818,684.1818,,,,,,,,,,,,,,0.9905,1,,,,,,,,,,,,,,z,,,,,,,,,,,,,,,,104,0,684.1824,685.1819,z,1,0.9905,,[],[],[],[],[],[],[],685.182,687.182,687.182,687.1821,[],[],[],[],[],[],[],,687.1822,687.1823,0.160602557,-0.356816172,0,0,0,,0,103,103,74,1,2,TL,rerite,cursive,rerite_c.png,,,,,,
,,,,31869,001,2025-10-16_13h13.26.973,HW_LDT_1,2024.2.4,MacIntel,59.52380952,,,,,,,,,,,,,,,,,,,,,687.1837,687.3818,687.3819,687.8818,,,,,,,,,,,,,,1.4223,1,,,,,,,,,,,,,,z,,,,,,,,,,,,,,,,105,0,687.8824,689.3152,z,1,1.4223,,[],[],[],[],[],[],[],689.3153,691.3152,691.3153,691.3155,[],[],[],[],[],[],[],,691.3156,691.3157,0.160602557,-0.356816172,0,0,0,,0,104,104,67,1,2,TL,quafily,cursive,quafily_c.png,,,,,,
,,,,31869,001,2025-10-16_13h13.26.973,HW_LDT_1,2024.2.4,MacIntel,59.52380952,,,,,,,,,,,,,,,,,,,,,691.317,691.5152,691.5152,692.0143,,,,,,,,,,,,,,0.9915,1,,,,,,,,,,,,,,z,,,,,,,,,,,,,,,,106,1,692.0149,693.0152,z,1,0.9915,,[],[],[],[],[],[],[],693.0153,695.0152,695.0152,696.1486,[],[],[],[],[],[],[],z,696.1487,696.1489,0.160602557,-0.356816172,0,0,0,,0,105,105,65,1,2,TL,polupar,cursive,polupar_c.png,1.1215,,,,,
,,,,31869,001,2025-10-16_13h13.26.973,HW_LDT_1,2024.2.4,MacIntel,59.52380952,,,,,,,,,,,,,,,,,,,,,696.1503,696.3485,696.3486,696.8485,,,,,,,,,,,,,,1.3988,0,,,,,,,,,,,,,,m,,,,,,,,,,,,,,,,107,0,696.849,698.2488,z,0,1.3988,,[],[],[],[],[],[],[],698.249,700.2486,700.2486,700.2488,[],[],[],[],[],[],[],,700.2488,700.2489,0.160602557,-0.356816172,0,0,0,,0,106,106,120,1,2,word,MILITARY,cursive,military_c.png,,,,,,
,,,,31869,001,2025-10-16_13h13.26.973,HW_LDT_1,2024.2.4,MacIntel,59.52380952,,,,,,,,,,,,,,,,,,,,,700.2503,700.4485,700.4486,700.9485,,,,,,,,,,,,,,1.2706,1,,,,,,,,,,,,,,z,,,,,,,,,,,,,,,,108,0,700.9492,702.232,z,1,1.2706,,[],[],[],[],[],[],[],702.2321,704.2318,704.232,704.2321,[],[],[],[],[],[],[],,704.2321,704.2323,0.160602557,-0.356816172,0,0,0,,0,107,107,70,1,2,TL,retalive,print,retalive_p.png,,,,,,
,,,,31869,001,2025-10-16_13h13.26.973,HW_LDT_1,2024.2.4,MacIntel,59.52380952,,,,,,,,,,,,,,,,,,,,,704.2336,704.4319,704.4319,704.9318,,,,,,,,,,,,,,0.805,1,,,,,,,,,,,,,,z,,,,,,,,,,,,,,,,109,0,704.9325,705.7486,z,1,0.805,,[],[],[],[],[],[],[],705.7488,707.7487,707.7487,707.7489,[],[],[],[],[],[],[],,707.749,707.7491,0.160602557,-0.356816172,0,0,0,,0,108,108,64,1,2,TL,paficic,print,paficic_p.png,,,,,,
,,,,31869,001,2025-10-16_13h13.26.973,HW_LDT_1,2024.2.4,MacIntel,59.52380952,,,,,,,,,,,,,,,,,,,,,707.7504,707.9486,707.9486,708.4486,,,,,,,,,,,,,,0.7374,0,,,,,,,,,,,,,,m,,,,,,,,,,,,,,,,110,0,708.4491,709.1986,z,0,0.7374,,[],[],[],[],[],[],[],709.1987,711.1985,711.1986,711.1989,[],[],[],[],[],[],[],,711.1989,711.1989,0.160602557,-0.356816172,0,0,0,,0,109,109,93,1,2,word,CEREMONY,print,ceremony_p.png,,,,,,
,,,,31869,001,2025-10-16_13h13.26.973,HW_LDT_1,2024.2.4,MacIntel,59.52380952,,,,,,,,,,,,,,,,,,,,,711.2003,711.3987,711.3988,711.8985,,,,,,,,,,,,,,1.0383,1,,,,,,,,,,,,,,m,,,,,,,,,,,,,,,,111,0,711.8992,712.9488,m,1,1.0383,,[],[],[],[],[],[],[],712.9488,714.9485,714.9486,714.9489,[],[],[],[],[],[],[],,714.949,714.9491,0.160602557,-0.356816172,0,0,0,,0,110,110,108,1,2,word,FORTUNE,print,fortune_p.png,,,,,,
,,,,31869,001,2025-10-16_13h13.26.973,HW_LDT_1,2024.2.4,MacIntel,59.52380952,,,,,,,,,,,,,,,,,,,,,714.9504,715.1486,715.1486,715.6486,,,,,,,,,,,,,,0.799,1,,,,,,,,,,,,,,m,,,,,,,,,,,,,,,,112,0,715.6491,716.449,m,1,0.799,,[],[],[],[],[],[],[],716.4492,718.4487,718.4487,718.449,[],[],[],[],[],[],[],,718.4491,718.4491,0.160602557,-0.356816172,0,0,0,,0,111,111,81,1,2,word,ADVISORY,print,advisory_p.png,,,,,,
,,,,31869,001,2025-10-16_13h13.26.973,HW_LDT_1,2024.2.4,MacIntel,59.52380952,,,,,,,,,,,,,,,,,,,,,718.4505,718.6486,718.6487,719.1487,,,,,,,,,,,,,,1.0377,1,,,,,,,,,,,,,,m,,,,,,,,,,,,,,,,113,0,719.1493,720.1987,m,1,1.0377,,[],[],[],[],[],[],[],720.1988,722.1986,722.1987,722.1989,[],[],[],[],[],[],[],,722.199,722.199,0.160602557,-0.356816172,0,0,0,,0,112,112,96,1,2,word,CONSIDER,print,consider_p.png,,,,,,
,,,,31869,001,2025-10-16_13h13.26.973,HW_LDT_1,2024.2.4,MacIntel,59.52380952,,,,,,,,,,,,,,,,,,,,,722.2003,722.3986,722.3987,722.8986,,,,,,,,,,,,,,1.0318,1,,,,,,,,,,,,,,z,,,,,,,,,,,,,,,,114,0,722.8992,723.9321,z,1,1.0318,,[],[],[],[],[],[],[],723.9322,725.932,725.932,725.9322,[],[],[],[],[],[],[],,725.9323,725.9324,0.160602557,-0.356816172,0,0,0,,0,113,113,71,1,2,TL,retome,cursive,retome_c.png,,,,,,
,,,,31869,001,2025-10-16_13h13.26.973,HW_LDT_1,2024.2.4,MacIntel,59.52380952,,,,,,,,,,,,,,,,,,,,,725.9338,726.1321,726.1321,726.6321,,,,,,,,,,,,,,1.4157,1,,,,,,,,,,,,,,m,,,,,,,,,,,,,,,,115,0,726.6326,728.049,m,1,1.4157,,[],[],[],[],[],[],[],728.0491,730.0486,730.0486,730.0489,[],[],[],[],[],[],[],,730.0489,730.049,0.160602557,-0.356816172,0,0,0,,0,114,114,82,1,2,word,AMATEUR,cursive,amateur_c.png,,,,,,
,,,,31869,001,2025-10-16_13h13.26.973,HW_LDT_1,2024.2.4,MacIntel,59.52380952,,,,,,,,,,,,,,,,,,,,,730.0502,730.2487,730.2488,730.7486,,,,,,,,,,,,,,0.7752,1,,,,,,,,,,,,,,m,,,,,,,,,,,,,,,,116,0,730.7493,731.532,m,1,0.7752,,[],[],[],[],[],[],[],731.5321,733.5319,733.5319,733.5321,[],[],[],[],[],[],[],,733.5322,733.5324,0.160602557,-0.356816172,0,0,0,,0,115,115,100,1,2,word,DECADE,print,decade_p.png,,,,,,
,,,,31869,001,2025-10-16_13h13.26.973,HW_LDT_1,2024.2.4,MacIntel,59.52380952,,,,,,,,,,,,,,,,,,,,,733.5342,733.732,733.7321,734.232,,,,,,,,,,,,,,0.9219,0,,,,,,,,,,,,,,m,,,,,,,,,,,,,,,,117,0,734.2326,735.1655,z,0,0.9219,,[],[],[],[],[],[],[],735.1657,737.1653,737.1653,737.1655,[],[],[],[],[],[],[],,737.1655,737.1656,0.160602557,-0.356816172,0,0,0,,0,116,116,138,1,2,word,REFUSAL,cursive,refusal_c.png,,,,,,
,,,,31869,001,2025-10-16_13h13.26.973,HW_LDT_1,2024.2.4,MacIntel,59.52380952,,,,,,,,,,,,,,,,,,,,,737.1665,737.3654,737.3654,737.8654,,,,,,,,,,,,,,0.7709,0,,,,,,,,,,,,,,m,,,,,,,,,,,,,,,,118,0,737.866,738.6488,z,0,0.7709,,[],[],[],[],[],[],[],738.6488,740.6486,740.6488,740.649,[],[],[],[],[],[],[],,740.649,740.6491,0.160602557,-0.356816172,0,0,0,,0,117,117,121,1,2,word,MISTAKE,cursive,mistake_c.png,,,,,,
,,,,31869,001,2025-10-16_13h13.26.973,HW_LDT_1,2024.2.4,MacIntel,59.52380952,,,,,,,,,,,,,,,,,,,,,740.6504,740.8486,740.8488,741.3487,,,,,,,,,,,,,,1.1706,1,,,,,,,,,,,,,,z,,,,,,,,,,,,,,,,119,1,741.3493,742.5322,z,1,1.1706,,[],[],[],[],[],[],[],742.5323,744.532,744.5321,745.9154,[],[],[],[],[],[],[],m,745.9156,745.9157,0.160602557,-0.356816172,0,0,0,,0,118,118,72,1,2,TL,revomal,print,revomal_p.png,1.3809,,,,,
,,,,31869,001,2025-10-16_13h13.26.973,HW_LDT_1,2024.2.4,MacIntel,59.52380952,,,,,,,,,,,,,,,,,,,,,745.9169,746.1155,746.1155,746.6154,,,,,,,,,,,,,,1.5399,1,,,,,,,,,,,,,,m,,,,,,,,,,,,,,,,120,0,746.616,748.1654,m,1,1.5399,,[],[],[],[],[],[],[],748.1655,750.1654,750.1655,750.1657,[],[],[],[],[],[],[],,750.1658,750.1659,0.160602557,-0.356816172,0,0,0,,0,119,119,117,1,2,word,MARINE,cursive,marine_c.png,,,,,,
,,,,31869,001,2025-10-16_13h13.26.973,HW_LDT_1,2024.2.4,MacIntel,59.52380952,,,,,,,,,,,,,,,,,,,,,750.1671,750.3644,750.3644,750.8654,,,,,,,,,,,,,,0.7064,0,,,,,,,,,,,,,,m,,,,,,,,,,,,,,,,121,0,750.866,751.5821,z,0,0.7064,,[],[],[],[],[],[],[],751.5823,753.582,753.582,753.5823,[],[],[],[],[],[],[],,753.5823,753.5824,0.160602557,-0.356816172,0,0,0,,0,120,120,85,1,2,word,BENEFIT,cursive,benefit_c.png,,,,,,
,,,,31869,001,2025-10-16_13h13.26.973,HW_LDT_1,2024.2.4,MacIntel,59.52380952,,,,,,,,,,,,,,,,,,,,,753.5837,753.7821,753.7822,754.282,,,,,,,,,,,,,,1.7694,0,,,,,,,,,,,,,,m,,,,,,,,,,,,,,,,122,0,754.2826,756.0655,z,0,1.7694,,[],[],[],[],[],[],[],756.0655,758.0656,758.0656,758.0659,[],[],[],[],[],[],[],,758.0659,758.0661,0.160602557,-0.356816172,0,0,0,,0,121,121,113,1,2,word,LITERAL,cursive,literal_c.png,,,,,,
,,,,31869,001,2025-10-16_13h13.26.973,HW_LDT_1,2024.2.4,MacIntel,59.52380952,,,,,,,,,,,,,,,,,,,,,758.0674,758.2654,758.2655,758.7644,,,,,,,,,,,,,,1.493,1,,,,,,,,,,,,,,z,,,,,,,,,,,,,,,,123,0,758.7648,760.2655,z,1,1.493,,[],[],[],[],[],[],[],760.2657,762.2645,762.2645,762.2647,[],[],[],[],[],[],[],,762.2647,762.2648,0.160602557,-0.356816172,0,0,0,,0,122,122,40,1,2,TL,bevoled,cursive,bevoled_c.png,,,,,,
,,,,31869,001,2025-10-16_13h13.26.973,HW_LDT_1,2024.2.4,MacIntel,59.52380952,,,,,,,,,,,,,,,,,,,,,762.2661,762.4645,762.4646,762.9646,,,,,,,,,,,,,,1.2657,1,,,,,,,,,,,,,,z,,,,,,,,,,,,,,,,124,0,762.9651,764.2321,z,1,1.2657,,[],[],[],[],[],[],[],764.2323,766.2312,766.2312,766.2314,[],[],[],[],[],[],[],,766.2315,766.2315,0.160602557,-0.356816172,0,0,0,,0,123,123,11,1,2,RL,formuke,print,formuke_p.png,,,,,,
,,,,31869,001,2025-10-16_13h13.26.973,HW_LDT_1,2024.2.4,MacIntel,59.52380952,,,,,,,,,,,,,,,,,,,,,766.2329,766.4321,766.4322,766.9322,,,,,,,,,,,,,,1.2536,1,,,,,,,,,,,,,,z,,,,,,,,,,,,,,,,125,0,766.9327,768.1989,z,1,1.2536,,[],[],[],[],[],[],[],768.1989,770.1988,770.1988,770.199,[],[],[],[],[],[],[],,770.1991,770.1992,0.160602557,-0.356816172,0,0,0,,0,124,124,57,1,2,TL,meromy,cursive,meromy_c.png,,,,,,
,,,,31869,001,2025-10-16_13h13.26.973,HW_LDT_1,2024.2.4,MacIntel,59.52380952,,,,,,,,,,,,,,,,,,,,,770.2005,770.3978,770.3979,770.8988,,,,,,,,,,,,,,0.9042,1,,,,,,,,,,,,,,z,,,,,,,,,,,,,,,,126,0,770.8994,771.8146,z,1,0.9042,,[],[],[],[],[],[],[],771.8148,773.8155,773.8155,773.8158,[],[],[],[],[],[],[],,773.8158,773.8159,0.160602557,-0.356816172,0,0,0,,0,125,125,26,1,2,RL,retupar,cursive,retupar_c.png,,,,,,
,,,,31869,001,2025-10-16_13h13.26.973,HW_LDT_1,2024.2.4,MacIntel,59.52380952,,,,,,,,,,,,,,,,,,,,,773.8173,774.0154,774.0155,774.5155,,,,,,,,,,,,,,0.9386,1,,,,,,,,,,,,,,m,,,,,,,,,,,,,,,,127,0,774.5161,775.4656,m,1,0.9386,,[],[],[],[],[],[],[],775.4657,777.4655,777.4655,777.4657,[],[],[],[],[],[],[],,777.4657,777.4659,0.160602557,-0.356816172,0,0,0,,0,126,126,129,1,2,word,PARENT,print,parent_p.png,,,,,,
,,,,31869,001,2025-10-16_13h13.26.973,HW_LDT_1,2024.2.4,MacIntel,59.52380952,,,,,,,,,,,,,,,,,,,,,777.4671,777.6655,777.6655,778.1655,,,,,,,,,,,,,,0.7656,1,,,,,,,,,,,,,,z,,,,,,,,,,,,,,,,128,0,778.1661,778.933,z,1,0.7656,,[],[],[],[],[],[],[],778.9331,780.9322,780.9323,780.9324,[],[],[],[],[],[],[],,780.9325,780.9326,0.160602557,-0.356816172,0,0,0,,0,127,127,2,1,2,RL,casagity,print,casagity_p.png,,,,,,
,,,,31869,001,2025-10-16_13h13.26.973,HW_LDT_1,2024.2.4,MacIntel,59.52380952,,,,,,,,,,,,,,,,,,,,,780.9339,781.1312,781.1313,781.6322,,,,,,,,,,,,,,0.6706,1,,,,,,,,,,,,,,z,,,,,,,,,,,,,,,,129,1,781.6328,782.3157,z,1,0.6706,,[],[],[],[],[],[],[],782.3157,784.3155,784.3156,786.0823,[],[],[],[],[],[],[],z,786.0824,786.0825,0.160602557,-0.356816172,0,0,0,,0,128,128,12,1,2,RL,gralekul,cursive,gralekul_c.png,1.7651,,,,,
,,,,31869,001,2025-10-16_13h13.26.973,HW_LDT_1,2024.2.4,MacIntel,59.52380952,,,,,,,,,,,,,,,,,,,,,786.0838,786.2823,786.2824,786.7822,,,,,,,,,,,,,,0.7373,1,,,,,,,,,,,,,,m,,,,,,,,,,,,,,,,130,0,786.7828,787.5324,m,1,0.7373,,[],[],[],[],[],[],[],787.5325,789.5312,789.5314,789.5316,[],[],[],[],[],[],[],,789.5317,789.5318,0.160602557,-0.356816172,0,0,0,,0,129,129,158,1,2,word,VELOCITY,print,velocity_p.png,,,,,,
,,,,31869,001,2025-10-16_13h13.26.973,HW_LDT_1,2024.2.4,MacIntel,59.52380952,,,,,,,,,,,,,,,,,,,,,789.533,789.7322,789.7323,790.2323,,,,,,,,,,,,,,1.0487,0,,,,,,,,,,,,,,m,,,,,,,,,,,,,,,,131,0,790.2329,791.2825,z,0,1.0487,,[],[],[],[],[],[],[],791.2826,793.2822,793.2823,793.2824,[],[],[],[],[],[],[],,793.2825,793.2826,0.160602557,-0.356816172,0,0,0,,0,130,130,125,1,2,word,OPERATOR,cursive,operator_c.png,,,,,,
,,,,31869,001,2025-10-16_13h13.26.973,HW_LDT_1,2024.2.4,MacIntel,59.52380952,,,,,,,,,,,,,,,,,,,,,793.2838,793.4813,793.4813,793.9822,,,,,,,,,,,,,,0.7989,1,,,,,,,,,,,,,,m,,,,,,,,,,,,,,,,132,0,793.9828,794.7828,m,1,0.7989,,[],[],[],[],[],[],[],794.7829,796.7822,796.7823,796.7824,[],[],[],[],[],[],[],,796.7825,796.7826,0.160602557,-0.356816172,0,0,0,,0,131,131,102,1,2,word,DENSITY,print,density_p.png,,,,,,
,,,,31869,001,2025-10-16_13h13.26.973,HW_LDT_1,2024.2.4,MacIntel,59.52380952,,,,,,,,,,,,,,,,,,,,,796.7839,796.9813,796.9814,797.4825,,,,,,,,,,,,,,1.1571,1,,,,,,,,,,,,,,m,,,,,,,,,,,,,,,,133,0,797.4831,798.649,m,1,1.1571,,[],[],[],[],[],[],[],798.6491,800.649,800.649,800.6492,[],[],[],[],[],[],[],,800.6493,800.6493,0.160602557,-0.356816172,0,0,0,,0,132,132,149,1,2,word,SENATOR,print,senator_p.png,,,,,,
,,,,31869,001,2025-10-16_13h13.26.973,HW_LDT_1,2024.2.4,MacIntel,59.52380952,,,,,,,,,,,,,,,,,,,,,800.6507,800.8489,800.849,801.3489,,,,,,,,,,,,,,0.8376,1,,,,,,,,,,,,,,z,,,,,,,,,,,,,,,,134,1,801.3495,802.1981,z,1,0.8376,,[],[],[],[],[],[],[],802.1982,804.199,804.199,805.3314,[],[],[],[],[],[],[],z,805.3315,805.3316,0.160602557,-0.356816172,0,0,0,,0,133,133,51,1,2,TL,etidor,cursive,etidor_c.png,1.1312,,,,,
,,,,31869,001,2025-10-16_13h13.26.973,HW_LDT_1,2024.2.4,MacIntel,59.52380952,,,,,,,,,,,,,,,,,,,,,805.3329,805.5323,805.5324,806.0322,,,,,,,,,,,,,,1.2805,0,,,,,,,,,,,,,,m,,,,,,,,,,,,,,,,135,0,806.0328,807.3157,z,0,1.2805,,[],[],[],[],[],[],[],807.3159,809.3156,809.3156,809.3159,[],[],[],[],[],[],[],,809.3159,809.316,0.160602557,-0.356816172,0,0,0,,0,134,134,105,1,2,word,EDITOR,cursive,editor_c.png,,,,,,
,,,,31869,001,2025-10-16_13h13.26.973,HW_LDT_1,2024.2.4,MacIntel,59.52380952,,,,,,,,,,,,,,,,,,,,,809.3174,809.5156,809.5157,810.0156,,,,,,,,,,,,,,0.6316,1,,,,,,,,,,,,,,z,,,,,,,,,,,,,,,,136,0,810.0163,810.6491,z,1,0.6316,,[],[],[],[],[],[],[],810.6492,812.6481,812.6481,812.6483,[],[],[],[],[],[],[],,812.6484,812.6484,0.160602557,-0.356816172,0,0,0,,0,135,135,27,1,2,RL,repifion,cursive,repifion_c.png,,,,,,
,,,,31869,001,2025-10-16_13h13.26.973,HW_LDT_1,2024.2.4,MacIntel,59.52380952,,,,,,,,,,,,,,,,,,,,,812.6497,812.8491,812.8491,813.349,,,,,,,,,,,,,,1.3488,1,,,,,,,,,,,,,,z,,,,,,,,,,,,,,,,137,0,813.3496,814.6994,z,1,1.3488,,[],[],[],[],[],[],[],814.6995,816.699,816.699,816.6993,[],[],[],[],[],[],[],,816.6993,816.6995,0.160602557,-0.356816172,0,0,0,,0,136,136,13,1,2,RL,helicage,print,helicage_p.png,,,,,,
,,,,31869,001,2025-10-16_13h13.26.973,HW_LDT_1,2024.2.4,MacIntel,59.52380952,,,,,,,,,,,,,,,,,,,,,816.7007,816.8991,816.8992,817.399,,,,,,,,,,,,,,1.0872,1,,,,,,,,,,,,,,z,,,,,,,,,,,,,,,,138,1,817.3995,818.4991,z,1,1.0872,,[],[],[],[],[],[],[],818.4992,820.4981,820.4981,821.6658,[],[],[],[],[],[],[],m,821.6659,821.6662,0.160602557,-0.356816172,0,0,0,,0,137,137,78,1,2,TL,stogare,print,stogare_p.png,1.155,,,,,
,,,,31869,001,2025-10-16_13h13.26.973,HW_LDT_1,2024.2.4,MacIntel,59.52380952,,,,,,,,,,,,,,,,,,,,,821.6675,821.8656,821.8657,822.3657,,,,,,,,,,,,,,1.4324,1,,,,,,,,,,,,,,m,,,,,,,,,,,,,,,,139,1,822.3663,823.7997,m,1,1.4324,,[],[],[],[],[],[],[],823.7998,825.7991,825.7992,827.1983,[],[],[],[],[],[],[],z,827.1984,827.1986,0.160602557,-0.356816172,0,0,0,,0,138,138,90,1,2,word,CAPITAL,cursive,capital_c.png,1.3903,,,,,
,,,,31869,001,2025-10-16_13h13.26.973,HW_LDT_1,2024.2.4,MacIntel,59.52380952,,,,,,,,,,,,,,,,,,,,,827.1999,827.3981,827.3981,827.8991,,,,,,,,,,,,,,0.7807,1,,,,,,,,,,,,,,z,,,,,,,,,,,,,,,,140,0,827.8997,828.6816,z,1,0.7807,,[],[],[],[],[],[],[],828.6817,830.6814,830.6815,830.6817,[],[],[],[],[],[],[],,830.6818,830.6818,0.160602557,-0.356816172,0,0,0,,0,139,139,41,1,2,TL,befenit,cursive,befenit_c.png,,,,,,
,,,,31869,001,2025-10-16_13h13.26.973,HW_LDT_1,2024.2.4,MacIntel,59.52380952,,,,,,,,,,,,,,,,,,,,,830.6831,830.8824,830.8825,831.3824,,,,,,,,,,,,,,1.2715,1,,,,,,,,,,,,,,z,,,,,,,,,,,,,,,,141,0,831.3831,832.6658,z,1,1.2715,,[],[],[],[],[],[],[],832.6659,834.6658,834.6659,834.6661,[],[],[],[],[],[],[],,834.6661,834.6663,0.160602557,-0.356816172,0,0,0,,0,140,140,30,1,2,RL,selamor,print,selamor_p.png,,,,,,
,,,,31869,001,2025-10-16_13h13.26.973,HW_LDT_1,2024.2.4,MacIntel,59.52380952,,,,,,,,,,,,,,,,,,,,,834.6675,834.8657,834.8658,835.3658,,,,,,,,,,,,,,0.8703,0,,,,,,,,,,,,,,m,,,,,,,,,,,,,,,,142,0,835.3664,836.2492,z,0,0.8703,,[],[],[],[],[],[],[],836.2492,838.2492,838.2493,838.2494,[],[],[],[],[],[],[],,838.2495,838.2496,0.160602557,-0.356816172,0,0,0,,0,141,141,97,1,2,word,COVERAGE,cursive,coverage_c.png,,,,,,
,,,,31869,001,2025-10-16_13h13.26.973,HW_LDT_1,2024.2.4,MacIntel,59.52380952,,,,,,,,,,,,,,,,,,,,,838.251,838.4492,838.4493,838.9491,,,,,,,,,,,,,,3.6371,1,,,,,,,,,,,,,,z,,,,,,,,,,,,,,,,143,0,838.9497,842.5993,z,1,3.6371,,[],[],[],[],[],[],[],842.5994,844.599,844.5991,844.5993,[],[],[],[],[],[],[],,844.5994,844.5995,0.160602557,-0.356816172,0,0,0,,0,142,142,47,1,2,TL,crinimal,cursive,crinimal_c.png,,,,,,
,,,,31869,001,2025-10-16_13h13.26.973,HW_LDT_1,2024.2.4,MacIntel,59.52380952,,,,,,,,,,,,,,,,,,,,,844.6007,844.7991,844.7991,845.2991,,,,,,,,,,,,,,0.82,0,,,,,,,,,,,,,,z,,,,,,,,,,,,,,,,144,0,845.2997,846.1326,m,0,0.82,,[],[],[],[],[],[],[],846.1327,848.1325,848.1325,848.1327,[],[],[],[],[],[],[],,848.1327,848.1329,0.160602557,-0.356816172,0,0,0,,0,143,143,68,1,2,TL,quatily,cursive,quatily_c.png,,,,,,
,,,,31869,001,2025-10-16_13h13.26.973,HW_LDT_1,2024.2.4,MacIntel,59.52380952,,,,,,,,,,,,,,,,,,,,,848.1344,848.3316,848.3317,848.8315,,,,,,,,,,,,,,0.8576,1,,,,,,,,,,,,,,m,,,,,,,,,,,,,,,,145,0,848.8321,849.6983,m,1,0.8576,,[],[],[],[],[],[],[],849.6984,851.6991,851.6991,851.6994,[],[],[],[],[],[],[],,851.6994,851.6996,0.160602557,-0.356816172,0,0,0,,0,144,144,119,1,2,word,MEMORY,cursive,memory_c.png,,,,,,
,,,,31869,001,2025-10-16_13h13.26.973,HW_LDT_1,2024.2.4,MacIntel,59.52380952,,,,,,,,,,,,,,,,,,,,,851.7007,851.8991,851.8992,852.3991,,,,,,,,,,,,,,0.8651,1,,,,,,,,,,,,,,z,,,,,,,,,,,,,,,,146,0,852.3997,853.2659,z,1,0.8651,,[],[],[],[],[],[],[],853.266,855.265,855.265,855.2652,[],[],[],[],[],[],[],,855.2653,855.2654,0.160602557,-0.356816172,0,0,0,,0,145,145,77,1,2,TL,sloten,print,sloten_p.png,,,,,,
,,,,31869,001,2025-10-16_13h13.26.973,HW_LDT_1,2024.2.4,MacIntel,59.52380952,,,,,,,,,,,,,,,,,,,,,855.2667,855.4658,855.4658,855.9659,,,,,,,,,,,,,,1.0873,1,,,,,,,,,,,,,,z,,,,,,,,,,,,,,,,147,0,855.9663,857.0659,z,1,1.0873,,[],[],[],[],[],[],[],857.0659,859.0658,859.0659,859.0661,[],[],[],[],[],[],[],,859.0661,859.0662,0.160602557,-0.356816172,0,0,0,,0,146,146,73,1,2,TL,redisent,print,redisent_p.png,,,,,,
,,,,31869,001,2025-10-16_13h13.26.973,HW_LDT_1,2024.2.4,MacIntel,59.52380952,,,,,,,,,,,,,,,,,,,,,859.0675,859.2658,859.2658,859.7658,,,,,,,,,,,,,,0.9481,0,,,,,,,,,,,,,,m,,,,,,,,,,,,,,,,148,0,859.7664,860.7159,z,0,0.9481,,[],[],[],[],[],[],[],860.716,862.7151,862.7151,862.7153,[],[],[],[],[],[],[],,862.7154,862.7155,0.160602557,-0.356816172,0,0,0,,0,147,147,109,1,2,word,GRATEFUL,cursive,grateful_c.png,,,,,,
,,,,31869,001,2025-10-16_13h13.26.973,HW_LDT_1,2024.2.4,MacIntel,59.52380952,,,,,,,,,,,,,,,,,,,,,862.7167,862.9149,862.915,863.4151,,,,,,,,,,,,,,0.8159,0,,,,,,,,,,,,,,m,,,,,,,,,,,,,,,,149,0,863.4156,864.2327,z,0,0.8159,,[],[],[],[],[],[],[],864.2327,866.2326,866.2327,866.2329,[],[],[],[],[],[],[],,866.2329,866.233,0.160602557,-0.356816172,0,0,0,,0,148,148,142,1,2,word,REMOTE,cursive,remote_c.png,,,,,,
,,,,31869,001,2025-10-16_13h13.26.973,HW_LDT_1,2024.2.4,MacIntel,59.52380952,,,,,,,,,,,,,,,,,,,,,866.2344,866.4325,866.4326,866.9326,,,,,,,,,,,,,,0.7813,1,,,,,,,,,,,,,,z,,,,,,,,,,,,,,,,150,0,866.9331,867.716,z,1,0.7813,,[],[],[],[],[],[],[],867.7161,869.7159,869.7159,869.7161,[],[],[],[],[],[],[],,869.7162,869.7162,0.160602557,-0.356816172,0,0,0,,0,149,149,29,1,2,RL,samite,cursive,samite_c.png,,,,,,
,,,,31869,001,2025-10-16_13h13.26.973,HW_LDT_1,2024.2.4,MacIntel,59.52380952,,,,,,,,,,,,,,,,,,,,,869.7176,869.916,869.916,870.4159,,,,,,,,,,,,,,0.8137,1,,,,,,,,,,,,,,z,,,,,,,,,,,,,,,,151,0,870.4165,871.2327,z,1,0.8137,,[],[],[],[],[],[],[],871.2328,873.2318,873.2318,873.232,[],[],[],[],[],[],[],,873.2321,873.2322,0.160602557,-0.356816172,0,0,0,,0,150,150,37,1,2,TL,adacemy,cursive,adacemy_c.png,,,,,,
,,,,31869,001,2025-10-16_13h13.26.973,HW_LDT_1,2024.2.4,MacIntel,59.52380952,,,,,,,,,,,,,,,,,,,,,873.2335,873.4326,873.4326,873.9317,,,,,,,,,,,,,,0.6095,0,,,,,,,,,,,,,,m,,,,,,,,,,,,,,,,152,0,873.9323,874.5488,z,0,0.6095,,[],[],[],[],[],[],[],874.5489,876.5493,876.5494,876.5495,[],[],[],[],[],[],[],,876.5495,876.5497,0.160602557,-0.356816172,0,0,0,,0,151,151,103,1,2,word,DISPUTE,cursive,dispute_c.png,,,,,,
,,,,31869,001,2025-10-16_13h13.26.973,HW_LDT_1,2024.2.4,MacIntel,59.52380952,,,,,,,,,,,,,,,,,,,,,876.551,876.7493,876.7494,877.2492,,,,,,,,,,,,,,0.7745,0,,,,,,,,,,,,,,m,,,,,,,,,,,,,,,,153,1,877.2498,878.0327,z,0,0.7745,,[],[],[],[],[],[],[],878.0328,880.0326,880.0327,881.2994,[],[],[],[],[],[],[],z,881.2995,881.2996,0.160602557,-0.356816172,0,0,0,,0,152,152,146,1,2,word,RETIRE,cursive,retire_c.png,1.2576,,,,,
,,,,31869,001,2025-10-16_13h13.26.973,HW_LDT_1,2024.2.4,MacIntel,59.52380952,,,,,,,,,,,,,,,,,,,,,881.3008,881.4992,881.4992,881.9993,,,,,,,,,,,,,,1.7817,1,,,,,,,,,,,,,,m,,,,,,,,,,,,,,,,154,0,881.9999,883.783,m,1,1.7817,,[],[],[],[],[],[],[],883.7831,885.7826,885.7827,885.7828,[],[],[],[],[],[],[],,885.7829,885.783,0.160602557,-0.356816172,0,0,0,,0,153,153,116,1,2,word,MARGINAL,cursive,marginal_c.png,,,,,,
,,,,31869,001,2025-10-16_13h13.26.973,HW_LDT_1,2024.2.4,MacIntel,59.52380952,,,,,,,,,,,,,,,,,,,,,885.7842,885.9826,885.9827,886.4826,,,,,,,,,,,,,,0.7063,0,,,,,,,,,,,,,,m,,,,,,,,,,,,,,,,155,0,886.4831,887.1994,z,0,0.7063,,[],[],[],[],[],[],[],887.1994,889.1993,889.1993,889.1995,[],[],[],[],[],[],[],,889.1995,889.1996,0.160602557,-0.356816172,0,0,0,,0,154,154,107,1,2,word,EVIDENT,cursive,evident_c.png,,,,,,
,,,,31869,001,2025-10-16_13h13.26.973,HW_LDT_1,2024.2.4,MacIntel,59.52380952,,,,,,,,,,,,,,,,,,,,,889.2008,889.3993,889.3994,889.8993,,,,,,,,,,,,,,1.2798,0,,,,,,,,,,,,,,m,,,,,,,,,,,,,,,,156,1,889.8998,891.1827,z,0,1.2798,,[],[],[],[],[],[],[],891.1828,893.1827,893.1827,893.9996,[],[],[],[],[],[],[],z,893.9998,893.9999,0.160602557,-0.356816172,0,0,0,,0,155,155,148,1,2,word,SALINE,cursive,saline_c.png,0.8161,,,,,
,,,,31869,001,2025-10-16_13h13.26.973,HW_LDT_1,2024.2.4,MacIntel,59.52380952,,,,,,,,,,,,,,,,,,,,,894.0013,894.1993,894.1994,894.6993,,,,,,,,,,,,,,0.8819,1,,,,,,,,,,,,,,z,,,,,,,,,,,,,,,,157,1,894.7,895.5829,z,1,0.8819,,[],[],[],[],[],[],[],895.5829,897.5826,897.5826,899.0496,[],[],[],[],[],[],[],z,899.0497,899.0498,0.160602557,-0.356816172,0,0,0,,0,156,156,3,1,2,RL,capefory,print,capefory_p.png,1.4659,,,,,
,,,,31869,001,2025-10-16_13h13.26.973,HW_LDT_1,2024.2.4,MacIntel,59.52380952,,,,,,,,,,,,,,,,,,,,,899.051,899.2494,899.2494,899.7493,,,,,,,,,,,,,,3.007,1,,,,,,,,,,,,,,z,,,,,,,,,,,,,,,,158,0,899.7499,902.7661,z,1,3.007,,[],[],[],[],[],[],[],902.7662,904.7661,904.7661,904.7663,[],[],[],[],[],[],[],,904.7664,904.7665,0.160602557,-0.356816172,0,0,0,,0,157,157,61,1,2,TL,nuremical,cursive,nuremical_c.png,,,,,,
,,,,31869,001,2025-10-16_13h13.26.973,HW_LDT_1,2024.2.4,MacIntel,59.52380952,,,,,,,,,,,,,,,,,,,,,904.7677,904.9661,904.9662,905.4661,,,,,,,,,,,,,,1.2151,1,,,,,,,,,,,,,,m,,,,,,,,,,,,,,,,159,0,905.4666,906.6828,m,1,1.2151,,[],[],[],[],[],[],[],906.6829,908.6827,908.6828,908.6831,[],[],[],[],[],[],[],,908.6831,908.6832,0.160602557,-0.356816172,0,0,0,,0,158,158,87,1,2,word,CAFETERIA,print,cafeteria_p.png,,,,,,
,,,,31869,001,2025-10-16_13h13.26.973,HW_LDT_1,2024.2.4,MacIntel,59.52380952,,,,,,,,,,,,,,,,,,,,,908.6845,908.8827,908.8828,909.3828,,,,,,,,,,,,,,1.8638,1,,,,,,,,,,,,,,z,,,,,,,,,,,,,,,,160,0,909.3834,911.2495,z,1,1.8638,,[],[],[],[],[],[],[],911.2496,913.2494,913.2494,913.2496,[],[],[],[],[],[],[],,913.2496,913.2498,0.160602557,-0.356816172,0,0,0,,0,159,159,56,1,2,TL,marnigal,cursive,marnigal_c.png,,,,,,
,,,,31869,001,2025-10-16_13h13.26.973,HW_LDT_1,2024.2.4,MacIntel,59.52380952,,,,,,,,,,,,,,,,,,,,,,,,,,,,,,,,,,,,,,,,,,,,,,,,,,,,,,,,,,,,,,,,,,,,,,,,,,,,,,,,,,,,,,,,,,,,,,,,,,,,,,,,,,,,,,,,,,,,,,913.2636,918.2497
