counterbalance_lists.group,counterbalance_lists.remaining,get_list.started,get_list.stopped,participant,session,date,expName,psychopyVersion,OS,frameRate,Instructions.started,Instructions.stopped,key_resp.keys,instr_done_touch.x,instr_done_touch.y,instr_done_touch.leftButton,instr_done_touch.midButton,instr_done_touch.rightButton,instr_done_touch.clicked_name,start_instr.thisRepN,start_instr.thisTrialN,start_instr.thisN,start_instr.thisIndex,start_instr.ran,pageN,phase,instruct_text,has_image,instruct_image,key_resp.rt,key_resp.duration,showProgress.started,showProgress.stopped,fix.started,fix.stopped,prac.started,prac.stopped,response.keys,response.corr,response.rt,response.duration,touch_resp.x,touch_resp.y,touch_resp.leftButton,touch_resp.midButton,touch_resp.rightButton,touch_resp.time,touch_resp.clicked_name,rt,corr,feedback.started,feedback.stopped,trials.thisRepN,trials.thisTrialN,trials.thisN,trials.thisIndex,trials.ran,TrialID,StimulusType,Condition,PrimeDuration,Prime,Target,corrAns,Instructions_expt.started,Instructions_expt.stopped,key_resp_3.keys,key_resp_3.rt,key_resp_3.duration,instr_done_touch_3.x,instr_done_touch_3.y,instr_done_touch_3.leftButton,instr_done_touch_3.midButton,instr_done_touch_3.rightButton,instr_experiment.thisRepN,instr_experiment.thisTrialN,instr_experiment.thisN,instr_experiment.thisIndex,instr_experiment.ran,trialID,flag,maintask.started,maintask.stopped,key_resp_2.keys,key_resp_2.corr,key_resp_2.rt,key_resp_2.duration,targ_click.x,targ_click.y,targ_click.leftButton,targ_click.midButton,targ_click.rightButton,targ_click.time,targ_click.clicked_name,ITI.started,ITI.stopped,probe.started,probe.stopped,click_probe.x,click_probe.y,click_probe.leftButton,click_probe.midButton,click_probe.rightButton,click_probe.time,click_probe.clicked_name,key_resp_probe.keys,key_resp_probe.rt,key_resp_probe.duration,Break.started,Break.stopped,break_done_touch.x,break_done_touch.y,break_done_touch.leftButton,break_done_touch.midButton,break_done_touch.rightButton,break_done_keyboard.keys,list3_trials.thisRepN,list3_trials.thisTrialN,list3_trials.thisN,list3_trials.thisIndex,list3_trials.ran,list_id,item_type,string,font,stim_file,break_done_keyboard.rt,break_done_keyboard.duration,End.started,End.stopped
list3,,0.632,0.6322,31879,001,2025-10-19_22h05.46.076,HW_LDT_1,2024.2.4,MacIntel,60.24096386,,,,,,,,,,,,,,,,,,,,,,,,,,,,,,,,,,,,,,,,,,,,,,,,,,,,,,,,,,,,,,,,,,,,,,,,,,,,,,,,,,,,,,,,,,,,,,,,,,,,,,,,,,,,,,,,,,,,,,,,
,,,,31879,001,2025-10-19_22h05.46.076,HW_LDT_1,2024.2.4,MacIntel,60.24096386,0.6479,45.0497,,0.083500205,-0.385578666,1,0,0,instr_done_button,0,0,0,0,1,1,instructions,"INSTRUCTIONS
At the start of each trial, look at the plus sign  (+) in the center of the screen.  This tells you that a trial is about to begin and where to look. Second, the plus sign will disappear and a string of letters will appear. Your task is to determine if the string of letters is a word or not. If the item is a word press the M key (on keyboard)  or touch the word button (phone/tablet).  If the item is not a word,  press the  Z key (on keyboard)  or touch the nonword button (on phone/tablet). The items will be presented for a short time. 
Press the space bar or touch  continue.",0,,,,,,,,,,,,,,,,,,,,,,,,,,,,,,,,,,,,,,,,,,,,,,,,,,,,,,,,,,,,,,,,,,,,,,,,,,,,,,,,,,,,,,,,,,,,,,,,,,,,,,
,,,,31879,001,2025-10-19_22h05.46.076,HW_LDT_1,2024.2.4,MacIntel,60.24096386,45.0511,49.7488,space,0.089829134,-0.363946299,0,0,0,,0,1,1,1,1,2,instructions,"If your device has a keyboard, press the 'Z' key for nonwords and the 'M' key for words.





Press the space bar or touch the button below to continue.",0,keyboard-example.gif,4.6689,,,,,,,,,,,,,,,,,,,,,,,,,,,,,,,,,,,,,,,,,,,,,,,,,,,,,,,,,,,,,,,,,,,,,,,,,,,,,,,,,,,,,,,,,,,,,,,,,,,,
,,,,31879,001,2025-10-19_22h05.46.076,HW_LDT_1,2024.2.4,MacIntel,60.24096386,49.7504,56.9155,space,0.089829134,-0.363946299,0,0,0,,0,2,2,2,1,3,instructions,"If you are using a touchscreen only device, use the buttons on the screen. Do not use the mouse.





Press the space bar or touch the button below to continue.",0,touchscreen-example.gif,7.133,,,,,,,,,,,,,,,,,,,,,,,,,,,,,,,,,,,,,,,,,,,,,,,,,,,,,,,,,,,,,,,,,,,,,,,,,,,,,,,,,,,,,,,,,,,,,,,,,,,,
,,,,31879,001,2025-10-19_22h05.46.076,HW_LDT_1,2024.2.4,MacIntel,60.24096386,56.9176,59.8987,space,0.089829134,-0.363946299,0,0,0,,0,3,3,3,1,4,instructions,"It is very important that you respond as quickly and accurately as possible, as each letter string will only be on the screen for two seconds. If you do not respond within this time, the message 'Too slow!' will be displayed and the experiment will progress to the next letter string. The first 20 trials will be practice trials and you will receive feedback on your answers. 

Press the space bar or touch the button below to start the practice trials.",0,,2.9501,,,,,,,,,,,,,,,,,,,,,,,,,,,,,,,,,,,,,,,,,,,,,,,,,,,,,,,,,,,,,,,,,,,,,,,,,,,,,,,,,,,,,,,,,,,,,,,,,,,,
,,,,31879,001,2025-10-19_22h05.46.076,HW_LDT_1,2024.2.4,MacIntel,60.24096386,,,,,,,,,,,,,,,,,,,,,,59.9222,60.0987,60.0989,60.5986,60.5989,62.9824,m,1,2.3525,,[],[],[],[],[],[],[],2.3525,1,62.9828,63.482,0,0,0,0,1,1001,WORD,"ID",33,utopia,UTOPIA,m,,,,,,,,,,,,,,,,,,,,,,,,,,,,,,,,,,,,,,,,,,,,,,,,,,,,,,,,,,,,,,,,,,
,,,,31879,001,2025-10-19_22h05.46.076,HW_LDT_1,2024.2.4,MacIntel,60.24096386,,,,,,,,,,,,,,,,,,,,,,63.4833,63.6818,63.6819,64.1818,64.1828,66.3147,z,1,2.113,,[],[],[],[],[],[],[],2.113,1,66.3149,66.8152,0,1,1,9,1,1010,NW,"ID",33,fariny,FARINY,z,,,,,,,,,,,,,,,,,,,,,,,,,,,,,,,,,,,,,,,,,,,,,,,,,,,,,,,,,,,,,,,,,,
,,,,31879,001,2025-10-19_22h05.46.076,HW_LDT_1,2024.2.4,MacIntel,60.24096386,,,,,,,,,,,,,,,,,,,,,,66.8166,67.0151,67.0152,67.515,67.516,68.5649,m,1,1.0376,,[],[],[],[],[],[],[],1.0376,1,68.5651,69.0651,0,2,2,2,1,1003,WORD,"ID",16,almond,ALMOND,m,,,,,,,,,,,,,,,,,,,,,,,,,,,,,,,,,,,,,,,,,,,,,,,,,,,,,,,,,,,,,,,,,,
,,,,31879,001,2025-10-19_22h05.46.076,HW_LDT_1,2024.2.4,MacIntel,60.24096386,,,,,,,,,,,,,,,,,,,,,,69.0664,69.2651,69.2651,69.765,69.7659,71.465,m,1,1.6884,,[],[],[],[],[],[],[],1.6884,1,71.4651,71.9652,0,3,3,3,1,1004,WORD,"ID",16,matrix,MATRIX,m,,,,,,,,,,,,,,,,,,,,,,,,,,,,,,,,,,,,,,,,,,,,,,,,,,,,,,,,,,,,,,,,,,
,,,,31879,001,2025-10-19_22h05.46.076,HW_LDT_1,2024.2.4,MacIntel,60.24096386,,,,,,,,,,,,,,,,,,,,,,71.9665,72.165,72.1651,72.665,72.6659,73.5318,m,1,0.8454,,[],[],[],[],[],[],[],0.8454,1,73.5319,74.0317,0,4,4,6,1,1007,WORD,UN,16,tropic,ZOMBIE,m,,,,,,,,,,,,,,,,,,,,,,,,,,,,,,,,,,,,,,,,,,,,,,,,,,,,,,,,,,,,,,,,,,
,,,,31879,001,2025-10-19_22h05.46.076,HW_LDT_1,2024.2.4,MacIntel,60.24096386,,,,,,,,,,,,,,,,,,,,,,74.0328,74.2315,74.2315,74.7316,74.7327,75.8651,z,1,1.122,,[],[],[],[],[],[],[],1.122,1,75.8653,76.3647,0,5,5,14,1,1015,NW,UN,16,miaber,THRALE,z,,,,,,,,,,,,,,,,,,,,,,,,,,,,,,,,,,,,,,,,,,,,,,,,,,,,,,,,,,,,,,,,,,
,,,,31879,001,2025-10-19_22h05.46.076,HW_LDT_1,2024.2.4,MacIntel,60.24096386,,,,,,,,,,,,,,,,,,,,,,76.365,76.565,76.5651,77.0646,77.0649,78.6483,m,1,1.5786,,[],[],[],[],[],[],[],1.5786,1,78.6485,79.1485,0,6,6,1,1,1002,WORD,"ID",33,adjust,ADJUST,m,,,,,,,,,,,,,,,,,,,,,,,,,,,,,,,,,,,,,,,,,,,,,,,,,,,,,,,,,,,,,,,,,,
,,,,31879,001,2025-10-19_22h05.46.076,HW_LDT_1,2024.2.4,MacIntel,60.24096386,,,,,,,,,,,,,,,,,,,,,,79.1497,79.3484,79.3484,79.8478,79.8486,80.9983,z,1,1.1402,,[],[],[],[],[],[],[],1.1402,1,80.9984,81.4984,0,7,7,8,1,1009,NW,"ID",33,aslert,ASLERT,z,,,,,,,,,,,,,,,,,,,,,,,,,,,,,,,,,,,,,,,,,,,,,,,,,,,,,,,,,,,,,,,,,,
,,,,31879,001,2025-10-19_22h05.46.076,HW_LDT_1,2024.2.4,MacIntel,60.24096386,,,,,,,,,,,,,,,,,,,,,,81.4995,81.6983,81.6985,82.1984,82.1992,83.5318,z,1,1.3135,,[],[],[],[],[],[],[],1.3135,1,83.5318,84.0318,0,8,8,11,1,1012,NW,"ID",16,rashet,RASHET,z,,,,,,,,,,,,,,,,,,,,,,,,,,,,,,,,,,,,,,,,,,,,,,,,,,,,,,,,,,,,,,,,,,
,,,,31879,001,2025-10-19_22h05.46.076,HW_LDT_1,2024.2.4,MacIntel,60.24096386,,,,,,,,,,,,,,,,,,,,,,84.033,84.2318,84.2318,84.7318,84.7327,86.1484,m,1,1.3945,,[],[],[],[],[],[],[],1.3945,1,86.1486,86.6484,0,9,9,4,1,1005,WORD,UN,33,abound,SQUEAK,m,,,,,,,,,,,,,,,,,,,,,,,,,,,,,,,,,,,,,,,,,,,,,,,,,,,,,,,,,,,,,,,,,,
,,,,31879,001,2025-10-19_22h05.46.076,HW_LDT_1,2024.2.4,MacIntel,60.24096386,,,,,,,,,,,,,,,,,,,,,,86.6496,86.8475,86.8476,87.3483,87.3491,88.0984,m,1,0.7293,,[],[],[],[],[],[],[],0.7293,1,88.0986,88.5985,0,10,10,5,1,1006,WORD,UN,33,frenzy,OBTAIN,m,,,,,,,,,,,,,,,,,,,,,,,,,,,,,,,,,,,,,,,,,,,,,,,,,,,,,,,,,,,,,,,,,,
,,,,31879,001,2025-10-19_22h05.46.076,HW_LDT_1,2024.2.4,MacIntel,60.24096386,,,,,,,,,,,,,,,,,,,,,,88.5997,88.7983,88.7984,89.2984,89.2992,90.1317,z,1,0.8116,,[],[],[],[],[],[],[],0.8116,1,90.1318,90.6317,0,11,11,15,1,1016,NW,UN,16,mushed,WHAISE,z,,,,,,,,,,,,,,,,,,,,,,,,,,,,,,,,,,,,,,,,,,,,,,,,,,,,,,,,,,,,,,,,,,
,,,,31879,001,2025-10-19_22h05.46.076,HW_LDT_1,2024.2.4,MacIntel,60.24096386,,,,,,,,,,,,,,,,,,,,,,90.633,90.8316,90.8317,91.3317,91.3325,93.3485,z,1,1.996,,[],[],[],[],[],[],[],1.996,1,93.3487,93.8484,0,12,12,13,1,1014,NW,UN,33,winfer,ROUPET,z,,,,,,,,,,,,,,,,,,,,,,,,,,,,,,,,,,,,,,,,,,,,,,,,,,,,,,,,,,,,,,,,,,
,,,,31879,001,2025-10-19_22h05.46.076,HW_LDT_1,2024.2.4,MacIntel,60.24096386,,,,,,,,,,,,,,,,,,,,,,93.8496,94.0482,94.0482,94.5483,94.5493,95.5983,z,1,1.0305,,[],[],[],[],[],[],[],1.0305,1,95.5984,96.0984,0,13,13,10,1,1011,NW,"ID",16,inlade,INLADE,z,,,,,,,,,,,,,,,,,,,,,,,,,,,,,,,,,,,,,,,,,,,,,,,,,,,,,,,,,,,,,,,,,,
,,,,31879,001,2025-10-19_22h05.46.076,HW_LDT_1,2024.2.4,MacIntel,60.24096386,,,,,,,,,,,,,,,,,,,,,,96.0996,96.2983,96.2984,96.7983,96.7991,97.6317,z,1,0.8218,,[],[],[],[],[],[],[],0.8218,1,97.6318,98.1314,0,14,14,12,1,1013,NW,UN,33,adveil,SPRINY,z,,,,,,,,,,,,,,,,,,,,,,,,,,,,,,,,,,,,,,,,,,,,,,,,,,,,,,,,,,,,,,,,,,
,,,,31879,001,2025-10-19_22h05.46.076,HW_LDT_1,2024.2.4,MacIntel,60.24096386,,,,,,,,,,,,,,,,,,,,,,98.1324,98.3316,98.3317,98.8317,98.8325,99.7151,m,1,0.8628,,[],[],[],[],[],[],[],0.8628,1,99.7152,100.215,0,15,15,7,1,1008,WORD,UN,16,hurdle,VOLUME,m,,,,,,,,,,,,,,,,,,,,,,,,,,,,,,,,,,,,,,,,,,,,,,,,,,,,,,,,,,,,,,,,,,
,,,,31879,001,2025-10-19_22h05.46.076,HW_LDT_1,2024.2.4,MacIntel,60.24096386,,,,,,,,,,,,,,,1,end_of_practice,"You have completed the practice trials. During the experimental trials, you will not receive feedback. On some trials you will be asked to report whether the item you just saw was in cursive or print. 
Before you begin, please ensure that you are in a comfortable and quiet location and will not be disturbed for about 15 minutes, as we cannot use your data if you do not complete all the trials. 
 When you are ready to start the experimental trials, please press space or touch the button below.",,,,,,,,,,,,,,,,,,,,,,,,,,,,,,,,,,,,,,100.22,106.0319,space,5.7896,,0.089829134,-0.363946299,0,0,0,0,0,0,0,1,,,,,,,,,,,,,,,,,,,,,,,,,,,,,,,,,,,,,,,,,,,,,,,,,,,
,,,,31879,001,2025-10-19_22h05.46.076,HW_LDT_1,2024.2.4,MacIntel,60.24096386,,,,,,,,,,,,,,,,,,,,,,106.046,106.2316,106.2317,106.7316,,,,,,,,,,,,,,3.0466,0,,,,,,,,,,,,,,z,,,,,,,,,,,,,,,,1,1,106.733,109.7819,m,0,3.0466,,[],[],[],[],[],[],[],109.7822,111.7818,111.782,114.632,[],[],[],[],[],[],[],z,2.8459,,114.6322,114.6344,0.089829134,-0.363946299,0,0,0,,0,0,0,68,1,3,TL,revomal,cursive,revomal_c.png,,,,
,,,,31879,001,2025-10-19_22h05.46.076,HW_LDT_1,2024.2.4,MacIntel,60.24096386,,,,,,,,,,,,,,,,,,,,,,114.6351,114.8317,114.8317,115.3317,,,,,,,,,,,,,,1.4317,1,,,,,,,,,,,,,,m,,,,,,,,,,,,,,,,2,0,115.3322,116.7652,m,1,1.4317,,[],[],[],[],[],[],[],116.7653,118.765,118.765,118.7653,[],[],[],[],[],[],[],,,,118.7654,118.7655,0.089829134,-0.363946299,0,0,0,,0,1,1,116,1,3,word,MARGINAL,print,marginal_p.png,,,,
,,,,31879,001,2025-10-19_22h05.46.076,HW_LDT_1,2024.2.4,MacIntel,60.24096386,,,,,,,,,,,,,,,,,,,,,,118.7667,118.9649,118.965,119.4649,,,,,,,,,,,,,,1.2958,1,,,,,,,,,,,,,,m,,,,,,,,,,,,,,,,3,0,119.4655,120.765,m,1,1.2958,,[],[],[],[],[],[],[],120.7651,122.765,122.765,122.7654,[],[],[],[],[],[],[],,,,122.7654,122.7655,0.089829134,-0.363946299,0,0,0,,0,2,2,82,1,3,word,AMATEUR,print,amateur_p.png,,,,
,,,,31879,001,2025-10-19_22h05.46.076,HW_LDT_1,2024.2.4,MacIntel,60.24096386,,,,,,,,,,,,,,,,,,,,,,122.7664,122.965,122.965,123.4649,,,,,,,,,,,,,,0.8563,1,,,,,,,,,,,,,,m,,,,,,,,,,,,,,,,4,0,123.4655,124.3317,m,1,0.8563,,[],[],[],[],[],[],[],124.3318,126.3315,126.3316,126.3318,[],[],[],[],[],[],[],,,,126.3319,126.3319,0.090472258,-0.363730706,0,0,0,,0,3,3,94,1,3,word,CLINICAL,print,clinical_p.png,,,,
,,,,31879,001,2025-10-19_22h05.46.076,HW_LDT_1,2024.2.4,MacIntel,60.24096386,,,,,,,,,,,,,,,,,,,,,,126.3329,126.5316,126.5317,127.0319,,,,,,,,,,,,,,1.7204,1,,,,,,,,,,,,,,z,,,,,,,,,,,,,,,,5,0,127.0323,128.765,z,1,1.7204,,[],[],[],[],[],[],[],128.765,130.765,130.765,130.7653,[],[],[],[],[],[],[],,,,130.7653,130.7655,0.09424696,-0.360054666,0,0,0,,0,4,4,4,1,3,RL,cafigal,cursive,cafigal_c.png,,,,
,,,,31879,001,2025-10-19_22h05.46.076,HW_LDT_1,2024.2.4,MacIntel,60.24096386,,,,,,,,,,,,,,,,,,,,,,130.7663,130.965,130.9651,131.4649,,,,,,,,,,,,,,3.8136,1,,,,,,,,,,,,,,z,,,,,,,,,,,,,,,,6,0,131.4655,135.2815,z,1,3.8136,,[],[],[],[],[],[],[],135.2817,137.2813,137.2814,137.2817,[],[],[],[],[],[],[],,,,137.2818,137.282,0.09424696,-0.360054666,0,0,0,,0,5,5,75,1,3,TL,sloten,cursive,sloten_c.png,,,,
,,,,31879,001,2025-10-19_22h05.46.076,HW_LDT_1,2024.2.4,MacIntel,60.24096386,,,,,,,,,,,,,,,,,,,,,,137.2829,137.4815,137.4815,137.9816,,,,,,,,,,,,,,1.0919,1,,,,,,,,,,,,,,m,,,,,,,,,,,,,,,,7,0,137.9821,139.0816,m,1,1.0919,,[],[],[],[],[],[],[],139.0817,141.0816,141.0816,141.0819,[],[],[],[],[],[],[],,,,141.0819,141.0821,0.09424696,-0.360054666,0,0,0,,0,6,6,142,1,3,word,REMOTE,print,remote_p.png,,,,
,,,,31879,001,2025-10-19_22h05.46.076,HW_LDT_1,2024.2.4,MacIntel,60.24096386,,,,,,,,,,,,,,,,,,,,,,141.0831,141.2815,141.2816,141.7815,,,,,,,,,,,,,,0.7472,0,,,,,,,,,,,,,,z,,,,,,,,,,,,,,,,8,0,141.7821,142.5315,m,0,0.7472,,[],[],[],[],[],[],[],142.5316,144.5316,144.5316,144.5318,[],[],[],[],[],[],[],,,,144.5318,144.5319,0.09424696,-0.360054666,0,0,0,,0,7,7,74,1,3,TL,spemicen,print,spemicen_p.png,,,,
,,,,31879,001,2025-10-19_22h05.46.076,HW_LDT_1,2024.2.4,MacIntel,60.24096386,,,,,,,,,,,,,,,,,,,,,,144.5329,144.7316,144.7317,145.2315,,,,,,,,,,,,,,1.2806,1,,,,,,,,,,,,,,z,,,,,,,,,,,,,,,,9,0,145.2319,146.5149,z,1,1.2806,,[],[],[],[],[],[],[],146.515,148.5148,148.5148,148.515,[],[],[],[],[],[],[],,,,148.5151,148.5152,0.09424696,-0.360054666,0,0,0,,0,8,8,12,1,3,RL,formuke,cursive,formuke_c.png,,,,
,,,,31879,001,2025-10-19_22h05.46.076,HW_LDT_1,2024.2.4,MacIntel,60.24096386,,,,,,,,,,,,,,,,,,,,,,148.5162,148.7149,148.715,149.2149,,,,,,,,,,,,,,1.2304,1,,,,,,,,,,,,,,m,,,,,,,,,,,,,,,,10,0,149.2154,150.4482,m,1,1.2304,,[],[],[],[],[],[],[],150.4482,152.4481,152.4482,152.4485,[],[],[],[],[],[],[],,,,152.4485,152.4486,0.09424696,-0.360054666,0,0,0,,0,9,9,100,1,3,word,DECADE,cursive,decade_c.png,,,,
,,,,31879,001,2025-10-19_22h05.46.076,HW_LDT_1,2024.2.4,MacIntel,60.24096386,,,,,,,,,,,,,,,,,,,,,,152.4497,152.6482,152.6483,153.1483,,,,,,,,,,,,,,1.7214,0,,,,,,,,,,,,,,z,,,,,,,,,,,,,,,,11,0,153.1488,154.8816,m,0,1.7214,,[],[],[],[],[],[],[],154.8817,156.8816,156.8816,156.8818,[],[],[],[],[],[],[],,,,156.8818,156.882,0.09424696,-0.360054666,0,0,0,,0,10,10,19,1,3,RL,opcifal,cursive,opcifal_c.png,,,,
,,,,31879,001,2025-10-19_22h05.46.076,HW_LDT_1,2024.2.4,MacIntel,60.24096386,,,,,,,,,,,,,,,,,,,,,,156.8832,157.0815,157.0816,157.5815,,,,,,,,,,,,,,0.7634,1,,,,,,,,,,,,,,m,,,,,,,,,,,,,,,,12,0,157.582,158.3482,m,1,0.7634,,[],[],[],[],[],[],[],158.3483,160.3482,160.3483,160.3484,[],[],[],[],[],[],[],,,,160.3484,160.3485,0.09424696,-0.360054666,0,0,0,,0,11,11,155,1,3,word,STRATEGY,print,strategy_p.png,,,,
,,,,31879,001,2025-10-19_22h05.46.076,HW_LDT_1,2024.2.4,MacIntel,60.24096386,,,,,,,,,,,,,,,,,,,,,,160.3494,160.5482,160.5483,161.0481,,,,,,,,,,,,,,0.9882,1,,,,,,,,,,,,,,z,,,,,,,,,,,,,,,,13,0,161.0486,162.0474,z,1,0.9882,,[],[],[],[],[],[],[],162.0475,164.0481,164.0481,164.0483,[],[],[],[],[],[],[],,,,164.0484,164.0485,0.09424696,-0.360054666,0,0,0,,0,12,12,40,1,3,TL,condiser,print,condiser_p.png,,,,
,,,,31879,001,2025-10-19_22h05.46.076,HW_LDT_1,2024.2.4,MacIntel,60.24096386,,,,,,,,,,,,,,,,,,,,,,164.0495,164.2482,164.2483,164.748,,,,,,,,,,,,,,2.4389,1,,,,,,,,,,,,,,m,,,,,,,,,,,,,,,,14,0,164.7484,167.1978,m,1,2.4389,,[],[],[],[],[],[],[],167.1979,169.1978,169.198,169.1981,[],[],[],[],[],[],[],,,,169.1981,169.1982,0.09424696,-0.360054666,0,0,0,,0,13,13,95,1,3,word,COMEDY,print,comedy_p.png,,,,
,,,,31879,001,2025-10-19_22h05.46.076,HW_LDT_1,2024.2.4,MacIntel,60.24096386,,,,,,,,,,,,,,,,,,,,,,169.1993,169.398,169.398,169.8984,,,,,,,,,,,,,,0.8217,0,,,,,,,,,,,,,,m,,,,,,,,,,,,,,,,15,1,169.8988,170.7316,z,0,0.8217,,[],[],[],[],[],[],[],170.7316,172.7315,172.7316,175.3149,[],[],[],[],[],[],[],z,2.5723,,175.3151,175.3152,0.111037623,-0.330416131,0,0,0,,0,14,14,117,1,3,word,MARINE,cursive,marine_c.png,,,,
,,,,31879,001,2025-10-19_22h05.46.076,HW_LDT_1,2024.2.4,MacIntel,60.24096386,,,,,,,,,,,,,,,,,,,,,,175.316,175.5148,175.5148,176.0148,,,,,,,,,,,,,,1.5295,0,,,,,,,,,,,,,,z,,,,,,,,,,,,,,,,16,0,176.0153,177.548,m,0,1.5295,,[],[],[],[],[],[],[],177.548,179.5481,179.5482,179.5483,[],[],[],[],[],[],[],,,,179.5483,179.5485,0.111037623,-0.330416131,0,0,0,,0,15,15,47,1,3,TL,elarobate,print,elarobate_p.png,,,,
,,,,31879,001,2025-10-19_22h05.46.076,HW_LDT_1,2024.2.4,MacIntel,60.24096386,,,,,,,,,,,,,,,,,,,,,,179.5496,179.7481,179.7482,180.2481,,,,,,,,,,,,,,1.4714,0,,,,,,,,,,,,,,z,,,,,,,,,,,,,,,,17,0,180.2486,181.7316,m,0,1.4714,,[],[],[],[],[],[],[],181.7317,183.7315,183.7315,183.7317,[],[],[],[],[],[],[],,,,183.7317,183.7317,0.111037623,-0.330416131,0,0,0,,0,16,16,61,1,3,TL,pocily,print,pocily_p.png,,,,
,,,,31879,001,2025-10-19_22h05.46.076,HW_LDT_1,2024.2.4,MacIntel,60.24096386,,,,,,,,,,,,,,,,,,,,,,183.7328,183.9315,183.9315,184.4315,,,,,,,,,,,,,,1.8636,1,,,,,,,,,,,,,,z,,,,,,,,,,,,,,,,18,0,184.4318,186.2981,z,1,1.8636,,[],[],[],[],[],[],[],186.2982,188.2981,188.2981,188.2982,[],[],[],[],[],[],[],,,,188.2983,188.2984,0.111037623,-0.330416131,0,0,0,,0,17,17,52,1,3,TL,locigal,cursive,locigal_c.png,,,,
,,,,31879,001,2025-10-19_22h05.46.076,HW_LDT_1,2024.2.4,MacIntel,60.24096386,,,,,,,,,,,,,,,,,,,,,,188.2993,188.4981,188.4981,188.9982,,,,,,,,,,,,,,0.7562,1,,,,,,,,,,,,,,m,,,,,,,,,,,,,,,,19,1,188.9987,189.7649,m,1,0.7562,,[],[],[],[],[],[],[],189.7649,191.7648,191.7648,193.2481,[],[],[],[],[],[],[],z,1.4825,,193.2482,193.2484,0.058308729,-0.499981729,0,0,0,,0,18,18,81,1,3,word,ADVISORY,print,advisory_p.png,,,,
,,,,31879,001,2025-10-19_22h05.46.076,HW_LDT_1,2024.2.4,MacIntel,60.24096386,,,,,,,,,,,,,,,,,,,,,,193.2493,193.4482,193.4482,193.9482,,,,,,,,,,,,,,1.3887,1,,,,,,,,,,,,,,z,,,,,,,,,,,,,,,,20,0,193.9487,195.3482,z,1,1.3887,,[],[],[],[],[],[],[],195.3483,197.3481,197.3482,197.3484,[],[],[],[],[],[],[],,,,197.3484,197.3485,0.058308729,-0.499981729,0,0,0,,0,19,19,18,1,3,RL,onegator,print,onegator_p.png,,,,
,,,,31879,001,2025-10-19_22h05.46.076,HW_LDT_1,2024.2.4,MacIntel,60.24096386,,,,,,,,,,,,,,,,,,,,,,197.3496,197.5482,197.5483,198.0481,,,,,,,,,,,,,,1.0882,1,,,,,,,,,,,,,,z,,,,,,,,,,,,,,,,21,1,198.0487,199.1481,z,1,1.0882,,[],[],[],[],[],[],[],199.1483,201.1482,201.1482,202.4148,[],[],[],[],[],[],[],z,1.2647,,202.415,202.415,0.058308729,-0.499981729,0,0,0,,0,20,20,1,1,3,RL,bewoted,cursive,bewoted_c.png,,,,
,,,,31879,001,2025-10-19_22h05.46.076,HW_LDT_1,2024.2.4,MacIntel,60.24096386,,,,,,,,,,,,,,,,,,,,,,202.4159,202.6148,202.6149,203.1148,,,,,,,,,,,,,,1.6071,1,,,,,,,,,,,,,,z,,,,,,,,,,,,,,,,22,0,203.1153,204.7315,z,1,1.6071,,[],[],[],[],[],[],[],204.7316,206.7314,206.7315,206.7317,[],[],[],[],[],[],[],,,,206.7317,206.7318,0.058308729,-0.499981729,0,0,0,,0,21,21,76,1,3,TL,stogare,cursive,stogare_c.png,,,,
,,,,31879,001,2025-10-19_22h05.46.076,HW_LDT_1,2024.2.4,MacIntel,60.24096386,,,,,,,,,,,,,,,,,,,,,,206.7328,206.9315,206.9315,207.4315,,,,,,,,,,,,,,0.9402,1,,,,,,,,,,,,,,z,,,,,,,,,,,,,,,,23,0,207.4319,208.3816,z,1,0.9402,,[],[],[],[],[],[],[],208.3817,210.3814,210.3815,210.3817,[],[],[],[],[],[],[],,,,210.3817,210.3818,0.058308729,-0.499981729,0,0,0,,0,22,22,11,1,3,RL,ebiwent,cursive,ebiwent_c.png,,,,
,,,,31879,001,2025-10-19_22h05.46.076,HW_LDT_1,2024.2.4,MacIntel,60.24096386,,,,,,,,,,,,,,,,,,,,,,210.3829,210.5815,210.5815,211.0814,,,,,,,,,,,,,,0.9479,0,,,,,,,,,,,,,,m,,,,,,,,,,,,,,,,24,0,211.082,212.0314,z,0,0.9479,,[],[],[],[],[],[],[],212.0315,214.0314,214.0315,214.0317,[],[],[],[],[],[],[],,,,214.0317,214.0318,0.058308729,-0.499981729,0,0,0,,0,23,23,143,1,3,word,REMOVAL,cursive,removal_c.png,,,,
,,,,31879,001,2025-10-19_22h05.46.076,HW_LDT_1,2024.2.4,MacIntel,60.24096386,,,,,,,,,,,,,,,,,,,,,,214.0328,214.2315,214.2315,214.7314,,,,,,,,,,,,,,0.7537,1,,,,,,,,,,,,,,z,,,,,,,,,,,,,,,,25,0,214.732,215.4979,z,1,0.7537,,[],[],[],[],[],[],[],215.4979,217.498,217.498,217.4983,[],[],[],[],[],[],[],,,,217.4983,217.4984,0.058308729,-0.499981729,0,0,0,,0,24,24,43,1,3,TL,dedace,cursive,dedace_c.png,,,,
,,,,31879,001,2025-10-19_22h05.46.076,HW_LDT_1,2024.2.4,MacIntel,60.24096386,,,,,,,,,,,,,,,,,,,,,,217.4994,217.6983,217.6983,218.1981,,,,,,,,,,,,,,1.2629,1,,,,,,,,,,,,,,z,,,,,,,,,,,,,,,,26,0,218.1986,219.4648,z,1,1.2629,,[],[],[],[],[],[],[],219.4648,221.4647,221.4648,221.4649,[],[],[],[],[],[],[],,,,221.465,221.4651,0.058308729,-0.499981729,0,0,0,,0,25,25,6,1,3,RL,cenesony,cursive,cenesony_c.png,,,,
,,,,31879,001,2025-10-19_22h05.46.076,HW_LDT_1,2024.2.4,MacIntel,60.24096386,,,,,,,,,,,,,,,,,,,,,,221.466,221.6647,221.6648,222.1647,,,,,,,,,,,,,,0.773,1,,,,,,,,,,,,,,m,,,,,,,,,,,,,,,,27,0,222.1652,222.9481,m,1,0.773,,[],[],[],[],[],[],[],222.9482,224.9481,224.9481,224.9483,[],[],[],[],[],[],[],,,,224.9484,224.9484,0.058308729,-0.499981729,0,0,0,,0,26,26,148,1,3,word,SALINE,cursive,saline_c.png,,,,
,,,,31879,001,2025-10-19_22h05.46.076,HW_LDT_1,2024.2.4,MacIntel,60.24096386,,,,,,,,,,,,,,,,,,,,,,224.9495,225.1482,225.1482,225.6482,,,,,,,,,,,,,,1.0061,0,,,,,,,,,,,,,,z,,,,,,,,,,,,,,,,28,1,225.6486,226.6648,m,0,1.0061,,[],[],[],[],[],[],[],226.6649,228.6648,228.6648,232.0147,[],[],[],[],[],[],[],m,3.3482,,232.0148,232.0148,0.058308729,-0.499981729,0,0,0,,0,27,27,35,1,3,TL,cateferia,print,cateferia_p.png,,,,
,,,,31879,001,2025-10-19_22h05.46.076,HW_LDT_1,2024.2.4,MacIntel,60.24096386,,,,,,,,,,,,,,,,,,,,,,232.0158,232.2148,232.2149,232.7147,,,,,,,,,,,,,,1.5195,1,,,,,,,,,,,,,,m,,,,,,,,,,,,,,,,29,0,232.7152,234.2479,m,1,1.5195,,[],[],[],[],[],[],[],234.248,236.248,236.2481,236.2483,[],[],[],[],[],[],[],,,,236.2484,236.2484,0.058308729,-0.499981729,0,0,0,,0,28,28,159,1,3,word,VETERAN,cursive,veteran_c.png,,,,
,,,,31879,001,2025-10-19_22h05.46.076,HW_LDT_1,2024.2.4,MacIntel,60.24096386,,,,,,,,,,,,,,,,,,,,,,236.2495,236.4481,236.4481,236.948,,,,,,,,,,,,,,1.682,1,,,,,,,,,,,,,,z,,,,,,,,,,,,,,,,30,1,236.9484,238.6313,z,1,1.682,,[],[],[],[],[],[],[],238.6314,240.6314,240.6315,241.8982,[],[],[],[],[],[],[],m,1.2554,,241.8983,241.8985,0.058308729,-0.499981729,0,0,0,,0,29,29,67,1,3,TL,retome,print,retome_p.png,,,,
,,,,31879,001,2025-10-19_22h05.46.076,HW_LDT_1,2024.2.4,MacIntel,60.24096386,,,,,,,,,,,,,,,,,,,,,,241.8997,242.0981,242.0981,242.5981,,,,,,,,,,,,,,1.3571,1,,,,,,,,,,,,,,z,,,,,,,,,,,,,,,,31,1,242.5986,243.9648,z,1,1.3571,,[],[],[],[],[],[],[],243.9648,245.9647,245.9649,247.448,[],[],[],[],[],[],[],m,1.4825,,247.4481,247.4483,0.058308729,-0.499981729,0,0,0,,0,30,30,46,1,3,TL,distupe,print,distupe_p.png,,,,
,,,,31879,001,2025-10-19_22h05.46.076,HW_LDT_1,2024.2.4,MacIntel,60.24096386,,,,,,,,,,,,,,,,,,,,,,247.4496,247.648,247.6481,248.1481,,,,,,,,,,,,,,0.9712,1,,,,,,,,,,,,,,m,,,,,,,,,,,,,,,,32,0,248.1488,249.1314,m,1,0.9712,,[],[],[],[],[],[],[],249.1315,251.1314,251.1314,251.1316,[],[],[],[],[],[],[],,,,251.1317,251.1317,0.058308729,-0.499981729,0,0,0,,0,31,31,137,1,3,word,RAPIDLY,print,rapidly_p.png,,,,
,,,,31879,001,2025-10-19_22h05.46.076,HW_LDT_1,2024.2.4,MacIntel,60.24096386,,,,,,,,,,,,,,,,,,,,,,251.1332,251.3313,251.3314,251.8315,,,,,,,,,,,,,,0.9641,1,,,,,,,,,,,,,,z,,,,,,,,,,,,,,,,33,0,251.832,252.798,z,1,0.9641,,[],[],[],[],[],[],[],252.7981,254.798,254.7982,254.7984,[],[],[],[],[],[],[],,,,254.7984,254.7985,0.058308729,-0.499981729,0,0,0,,0,32,32,60,1,3,TL,panert,print,panert_p.png,,,,
,,,,31879,001,2025-10-19_22h05.46.076,HW_LDT_1,2024.2.4,MacIntel,60.24096386,,,,,,,,,,,,,,,,,,,,,,254.7997,254.998,254.9981,255.498,,,,,,,,,,,,,,0.9401,1,,,,,,,,,,,,,,z,,,,,,,,,,,,,,,,34,0,255.4985,256.4477,z,1,0.9401,,[],[],[],[],[],[],[],256.4478,258.448,258.4481,258.4483,[],[],[],[],[],[],[],,,,258.4483,258.4484,0.058308729,-0.499981729,0,0,0,,0,33,33,10,1,3,RL,efibor,print,efibor_p.png,,,,
,,,,31879,001,2025-10-19_22h05.46.076,HW_LDT_1,2024.2.4,MacIntel,60.24096386,,,,,,,,,,,,,,,,,,,,,,258.4495,258.6473,258.6474,259.148,,,,,,,,,,,,,,1.1872,1,,,,,,,,,,,,,,m,,,,,,,,,,,,,,,,35,0,259.1485,260.348,m,1,1.1872,,[],[],[],[],[],[],[],260.3482,262.348,262.348,262.3482,[],[],[],[],[],[],[],,,,262.3482,262.3483,0.058308729,-0.499981729,0,0,0,,0,34,34,158,1,3,word,VELOCITY,cursive,velocity_c.png,,,,
,,,,31879,001,2025-10-19_22h05.46.076,HW_LDT_1,2024.2.4,MacIntel,60.24096386,,,,,,,,,,,,,,,,,,,,,,262.3495,262.5481,262.5482,263.048,,,,,,,,,,,,,,0.7884,0,,,,,,,,,,,,,,z,,,,,,,,,,,,,,,,36,0,263.0485,263.8481,m,0,0.7884,,[],[],[],[],[],[],[],263.8482,265.848,265.8481,265.8482,[],[],[],[],[],[],[],,,,265.8482,265.8484,0.058308729,-0.499981729,0,0,0,,0,35,35,79,1,3,TL,veretan,cursive,veretan_c.png,,,,
,,,,31879,001,2025-10-19_22h05.46.076,HW_LDT_1,2024.2.4,MacIntel,60.24096386,,,,,,,,,,,,,,,,,,,,,,265.8494,266.048,266.0481,266.548,,,,,,,,,,,,,,0.6907,1,,,,,,,,,,,,,,m,,,,,,,,,,,,,,,,37,0,266.5488,267.2481,m,1,0.6907,,[],[],[],[],[],[],[],267.2483,269.2481,269.2481,269.2483,[],[],[],[],[],[],[],,,,269.2483,269.2484,0.058308729,-0.499981729,0,0,0,,0,36,36,124,1,3,word,NUMERICAL,print,numerical_p.png,,,,
,,,,31879,001,2025-10-19_22h05.46.076,HW_LDT_1,2024.2.4,MacIntel,60.24096386,,,,,,,,,,,,,,,,,,,,,,269.2496,269.448,269.4481,269.9479,,,,,,,,,,,,,,0.8383,0,,,,,,,,,,,,,,m,,,,,,,,,,,,,,,,38,0,269.9484,270.7981,z,0,0.8383,,[],[],[],[],[],[],[],270.7981,272.7979,272.798,272.7982,[],[],[],[],[],[],[],,,,272.7982,272.7982,0.058308729,-0.499981729,0,0,0,,0,37,37,90,1,3,word,CAPITAL,cursive,capital_c.png,,,,
,,,,31879,001,2025-10-19_22h05.46.076,HW_LDT_1,2024.2.4,MacIntel,60.24096386,,,,,,,,,,,,,,,,,,,,,,272.7992,272.9973,272.9973,273.498,,,,,,,,,,,,,,1.8986,1,,,,,,,,,,,,,,z,,,,,,,,,,,,,,,,39,0,273.4985,275.3979,z,1,1.8986,,[],[],[],[],[],[],[],275.3979,277.398,277.398,277.3982,[],[],[],[],[],[],[],,,,277.3982,277.3983,0.058308729,-0.499981729,0,0,0,,0,38,38,59,1,3,TL,paficic,cursive,paficic_c.png,,,,
,,,,31879,001,2025-10-19_22h05.46.076,HW_LDT_1,2024.2.4,MacIntel,60.24096386,,,,,,,,,,,,,,,,,,,,,,277.3992,277.5979,277.598,278.098,,,,,,,,,,,,,,0.6882,1,,,,,,,,,,,,,,m,,,,,,,,,,,,,,,,40,0,278.0985,278.798,m,1,0.6882,,[],[],[],[],[],[],[],278.7982,280.798,280.798,280.7982,[],[],[],[],[],[],[],,,,280.7982,280.7983,0.058308729,-0.499981729,0,0,0,,0,39,39,106,1,3,word,ELABORATE,print,elaborate_p.png,,,,
,,,,31879,001,2025-10-19_22h05.46.076,HW_LDT_1,2024.2.4,MacIntel,60.24096386,,,,,,,,,,,,,,,,,,,,,,280.7994,280.998,280.998,281.4979,,,,,,,,,,,,,,1.2883,0,,,,,,,,,,,,,,z,,,,,,,,,,,,,,,,41,0,281.4983,282.7982,m,0,1.2883,,[],[],[],[],[],[],[],282.7982,284.7979,284.798,284.7982,[],[],[],[],[],[],[],,,,284.7982,284.7984,0.058308729,-0.499981729,0,0,0,,0,40,40,55,1,3,TL,mecidine,print,mecidine_p.png,,,,
,,,,31879,001,2025-10-19_22h05.46.076,HW_LDT_1,2024.2.4,MacIntel,60.24096386,,,,,,,,,,,,,,,,,,,,,,284.7993,284.9979,284.998,285.4979,,,,,,,,,,,,,,2.4311,1,,,,,,,,,,,,,,m,,,,,,,,,,,,,,,,42,0,285.4985,287.9312,m,1,2.4311,,[],[],[],[],[],[],[],287.9313,289.9313,289.9313,289.9315,[],[],[],[],[],[],[],,,,289.9315,289.9317,0.058308729,-0.499981729,0,0,0,,0,41,41,88,1,3,word,CAMERA,cursive,camera_c.png,,,,
,,,,31879,001,2025-10-19_22h05.46.076,HW_LDT_1,2024.2.4,MacIntel,60.24096386,,,,,,,,,,,,,,,,,,,,,,289.9326,290.1313,290.1314,290.6314,,,,,,,,,,,,,,0.798,1,,,,,,,,,,,,,,z,,,,,,,,,,,,,,,,43,0,290.6318,291.4312,z,1,0.798,,[],[],[],[],[],[],[],291.4313,293.4313,293.4314,293.4314,[],[],[],[],[],[],[],,,,293.4315,293.4315,0.058308729,-0.499981729,0,0,0,,0,42,42,56,1,3,TL,meromy,print,meromy_p.png,,,,
,,,,31879,001,2025-10-19_22h05.46.076,HW_LDT_1,2024.2.4,MacIntel,60.24096386,,,,,,,,,,,,,,,,,,,,,,293.4324,293.6313,293.6314,294.1313,,,,,,,,,,,,,,1.0046,1,,,,,,,,,,,,,,z,,,,,,,,,,,,,,,,44,0,294.1317,295.148,z,1,1.0046,,[],[],[],[],[],[],[],295.1481,297.148,297.1481,297.1482,[],[],[],[],[],[],[],,,,297.1483,297.1484,0.058308729,-0.499981729,0,0,0,,0,43,43,31,1,3,RL,trilude,print,trilude_p.png,,,,
,,,,31879,001,2025-10-19_22h05.46.076,HW_LDT_1,2024.2.4,MacIntel,60.24096386,,,,,,,,,,,,,,,,,,,,,,297.1494,297.348,297.348,297.848,,,,,,,,,,,,,,0.7384,0,,,,,,,,,,,,,,m,,,,,,,,,,,,,,,,45,0,297.8484,298.5981,z,0,0.7384,,[],[],[],[],[],[],[],298.5982,300.5979,300.598,300.5982,[],[],[],[],[],[],[],,,,300.5982,300.5983,0.058308729,-0.499981729,0,0,0,,0,44,44,144,1,3,word,RESIDENT,cursive,resident_c.png,,,,
,,,,31879,001,2025-10-19_22h05.46.076,HW_LDT_1,2024.2.4,MacIntel,60.24096386,,,,,,,,,,,,,,,,,,,,,,300.5994,300.798,300.7981,301.2979,,,,,,,,,,,,,,1.1883,1,,,,,,,,,,,,,,m,,,,,,,,,,,,,,,,46,0,301.2984,302.498,m,1,1.1883,,[],[],[],[],[],[],[],302.4981,304.498,304.498,304.4982,[],[],[],[],[],[],[],,,,304.4982,304.4982,0.058308729,-0.499981729,0,0,0,,0,45,45,91,1,3,word,CARDINAL,print,cardinal_p.png,,,,
,,,,31879,001,2025-10-19_22h05.46.076,HW_LDT_1,2024.2.4,MacIntel,60.24096386,,,,,,,,,,,,,,,,,,,,,,304.4993,304.6979,304.698,305.1979,,,,,,,,,,,,,,1.4382,1,,,,,,,,,,,,,,m,,,,,,,,,,,,,,,,47,0,305.1983,306.6476,m,1,1.4382,,[],[],[],[],[],[],[],306.6478,308.6478,308.648,308.6482,[],[],[],[],[],[],[],,,,308.6482,308.6483,0.058308729,-0.499981729,0,0,0,,0,46,46,127,1,3,word,ORIGINAL,cursive,original_c.png,,,,
,,,,31879,001,2025-10-19_22h05.46.076,HW_LDT_1,2024.2.4,MacIntel,60.24096386,,,,,,,,,,,,,,,,,,,,,,308.6493,308.848,308.848,309.3477,,,,,,,,,,,,,,2.1306,1,,,,,,,,,,,,,,z,,,,,,,,,,,,,,,,48,0,309.3481,311.4809,z,1,2.1306,,[],[],[],[],[],[],[],311.481,313.4812,313.4812,313.4814,[],[],[],[],[],[],[],,,,313.4814,313.4815,0.058308729,-0.499981729,0,0,0,,0,47,47,64,1,3,TL,radiply,print,radiply_p.png,,,,
,,,,31879,001,2025-10-19_22h05.46.076,HW_LDT_1,2024.2.4,MacIntel,60.24096386,,,,,,,,,,,,,,,,,,,,,,313.4823,313.6812,313.6812,314.1812,,,,,,,,,,,,,,1.0972,1,,,,,,,,,,,,,,z,,,,,,,,,,,,,,,,49,0,314.1816,315.2807,z,1,1.0972,,[],[],[],[],[],[],[],315.2808,317.2813,317.2813,317.2815,[],[],[],[],[],[],[],,,,317.2815,317.2816,0.058308729,-0.499981729,0,0,0,,0,48,48,34,1,3,TL,aminal,cursive,aminal_c.png,,,,
,,,,31879,001,2025-10-19_22h05.46.076,HW_LDT_1,2024.2.4,MacIntel,60.24096386,,,,,,,,,,,,,,,,,,,,,,317.2827,317.4808,317.4809,317.9812,,,,,,,,,,,,,,0.7383,1,,,,,,,,,,,,,,m,,,,,,,,,,,,,,,,50,0,317.9817,318.7312,m,1,0.7383,,[],[],[],[],[],[],[],318.7313,320.7312,320.7313,320.7315,[],[],[],[],[],[],[],,,,320.7315,320.7315,0.058308729,-0.499981729,0,0,0,,0,49,49,132,1,3,word,PROPOSAL,print,proposal_p.png,,,,
,,,,31879,001,2025-10-19_22h05.46.076,HW_LDT_1,2024.2.4,MacIntel,60.24096386,,,,,,,,,,,,,,,,,,,,,,320.7326,320.9312,320.9313,321.4312,,,,,,,,,,,,,,2.3649,1,,,,,,,,,,,,,,m,,,,,,,,,,,,,,,,51,0,321.4317,323.7979,m,1,2.3649,,[],[],[],[],[],[],[],323.798,325.7978,325.7979,325.7981,[],[],[],[],[],[],[],,,,325.7981,325.7982,0.058308729,-0.499981729,0,0,0,,0,50,50,103,1,3,word,DISPUTE,print,dispute_p.png,,,,
,,,,31879,001,2025-10-19_22h05.46.076,HW_LDT_1,2024.2.4,MacIntel,60.24096386,,,,,,,,,,,,,,,,,,,,,,325.7991,325.9978,325.9979,326.4979,,,,,,,,,,,,,,0.8902,0,,,,,,,,,,,,,,m,,,,,,,,,,,,,,,,52,0,326.4984,327.3979,z,0,0.8902,,[],[],[],[],[],[],[],327.3979,329.3978,329.3979,329.398,[],[],[],[],[],[],[],,,,329.3981,329.3982,0.058308729,-0.499981729,0,0,0,,0,51,51,122,1,3,word,MOBILE,cursive,mobile_c.png,,,,
,,,,31879,001,2025-10-19_22h05.46.076,HW_LDT_1,2024.2.4,MacIntel,60.24096386,,,,,,,,,,,,,,,,,,,,,,329.3991,329.598,329.598,330.098,,,,,,,,,,,,,,0.7232,1,,,,,,,,,,,,,,z,,,,,,,,,,,,,,,,53,0,330.0984,330.8313,z,1,0.7232,,[],[],[],[],[],[],[],330.8313,332.8312,332.8313,332.8314,[],[],[],[],[],[],[],,,,332.8315,332.8315,0.058308729,-0.499981729,0,0,0,,0,52,52,51,1,3,TL,liretal,print,liretal_p.png,,,,
,,,,31879,001,2025-10-19_22h05.46.076,HW_LDT_1,2024.2.4,MacIntel,60.24096386,,,,,,,,,,,,,,,,,,,,,,332.8324,333.0313,333.0313,333.5312,,,,,,,,,,,,,,1.0384,0,,,,,,,,,,,,,,z,,,,,,,,,,,,,,,,54,0,333.5318,334.5812,m,0,1.0384,,[],[],[],[],[],[],[],334.5813,336.5812,336.5812,336.5814,[],[],[],[],[],[],[],,,,336.5814,336.5815,0.058308729,-0.499981729,0,0,0,,0,53,53,53,1,3,TL,marnigal,print,marnigal_p.png,,,,
,,,,31879,001,2025-10-19_22h05.46.076,HW_LDT_1,2024.2.4,MacIntel,60.24096386,,,,,,,,,,,,,,,,,,,,,,336.5823,336.7813,336.7813,337.2809,,,,,,,,,,,,,,0.6741,1,,,,,,,,,,,,,,m,,,,,,,,,,,,,,,,55,0,337.2814,337.9646,m,1,0.6741,,[],[],[],[],[],[],[],337.9647,339.9646,339.9647,339.9648,[],[],[],[],[],[],[],,,,339.9649,339.9649,0.058308729,-0.499981729,0,0,0,,0,54,54,119,1,3,word,MEMORY,print,memory_p.png,,,,
,,,,31879,001,2025-10-19_22h05.46.076,HW_LDT_1,2024.2.4,MacIntel,60.24096386,,,,,,,,,,,,,,,,,,,,,,339.966,340.1643,340.1643,340.6644,,,,,,,,,,,,,,1.0482,1,,,,,,,,,,,,,,m,,,,,,,,,,,,,,,,56,1,340.6649,341.7145,m,1,1.0482,,[],[],[],[],[],[],[],341.7146,343.7146,343.7147,345.1478,[],[],[],[],[],[],[],m,1.432,,345.1479,345.148,0.058308729,-0.499981729,0,0,0,,0,55,55,125,1,3,word,OPERATOR,print,operator_p.png,,,,
,,,,31879,001,2025-10-19_22h05.46.076,HW_LDT_1,2024.2.4,MacIntel,60.24096386,,,,,,,,,,,,,,,,,,,,,,345.1488,345.3478,345.3478,345.8479,,,,,,,,,,,,,,1.3734,1,,,,,,,,,,,,,,z,,,,,,,,,,,,,,,,57,0,345.8484,347.2312,z,1,1.3734,,[],[],[],[],[],[],[],347.2313,349.2312,349.2313,349.2314,[],[],[],[],[],[],[],,,,349.2315,349.2316,0.058308729,-0.499981729,0,0,0,,0,56,56,0,1,3,RL,afaneur,print,afaneur_p.png,,,,
,,,,31879,001,2025-10-19_22h05.46.076,HW_LDT_1,2024.2.4,MacIntel,60.24096386,,,,,,,,,,,,,,,,,,,,,,349.2327,349.4312,349.4312,349.9312,,,,,,,,,,,,,,0.8383,1,,,,,,,,,,,,,,z,,,,,,,,,,,,,,,,58,0,349.9317,350.7814,z,1,0.8383,,[],[],[],[],[],[],[],350.7814,352.7812,352.7812,352.7814,[],[],[],[],[],[],[],,,,352.7815,352.7816,0.058308729,-0.499981729,0,0,0,,0,57,57,70,1,3,TL,remuse,cursive,remuse_c.png,,,,
,,,,31879,001,2025-10-19_22h05.46.076,HW_LDT_1,2024.2.4,MacIntel,60.24096386,,,,,,,,,,,,,,,,,,,,,,352.7827,352.9812,352.9812,353.4812,,,,,,,,,,,,,,0.7152,0,,,,,,,,,,,,,,z,,,,,,,,,,,,,,,,59,0,353.4818,354.1978,m,0,0.7152,,[],[],[],[],[],[],[],354.1978,356.1979,356.1979,356.1981,[],[],[],[],[],[],[],,,,356.1981,356.1982,0.058308729,-0.499981729,0,0,0,,0,58,58,37,1,3,TL,cacapity,cursive,cacapity_c.png,,,,
,,,,31879,001,2025-10-19_22h05.46.076,HW_LDT_1,2024.2.4,MacIntel,60.24096386,,,,,,,,,,,,,,,,,,,,,,356.1991,356.3978,356.3979,356.8978,,,,,,,,,,,,,,2.2215,1,,,,,,,,,,,,,,z,,,,,,,,,,,,,,,,60,0,356.8983,359.1312,z,1,2.2215,,[],[],[],[],[],[],[],359.1314,361.1311,361.1312,361.1314,[],[],[],[],[],[],[],,,,361.1314,361.1315,0.058308729,-0.499981729,0,0,0,,0,59,59,77,1,3,TL,vadility,cursive,vadility_c.png,,,,
,,,,31879,001,2025-10-19_22h05.46.076,HW_LDT_1,2024.2.4,MacIntel,60.24096386,,,,,,,,,,,,,,,,,,,,,,361.1325,361.3312,361.3312,361.8312,,,,,,,,,,,,,,0.7976,1,,,,,,,,,,,,,,z,,,,,,,,,,,,,,,,61,1,361.8317,362.6311,z,1,0.7976,,[],[],[],[],[],[],[],362.6312,364.6312,364.6312,366.1312,[],[],[],[],[],[],[],z,1.4918,,366.1313,366.1313,0.058308729,-0.499981729,0,0,0,,0,60,60,15,1,3,RL,mifikary,cursive,mifikary_c.png,,,,
,,,,31879,001,2025-10-19_22h05.46.076,HW_LDT_1,2024.2.4,MacIntel,60.24096386,,,,,,,,,,,,,,,,,,,,,,366.1323,366.3311,366.3312,366.8312,,,,,,,,,,,,,,0.963,1,,,,,,,,,,,,,,m,,,,,,,,,,,,,,,,62,1,366.8318,367.7977,m,1,0.963,,[],[],[],[],[],[],[],367.7978,369.7978,369.7979,371.1478,[],[],[],[],[],[],[],m,1.3485,,371.1478,371.1479,0.058308729,-0.499981729,0,0,0,,0,61,61,139,1,3,word,REGULAR,print,regular_p.png,,,,
,,,,31879,001,2025-10-19_22h05.46.076,HW_LDT_1,2024.2.4,MacIntel,60.24096386,,,,,,,,,,,,,,,,,,,,,,371.1488,371.3477,371.3478,371.8478,,,,,,,,,,,,,,0.7551,1,,,,,,,,,,,,,,z,,,,,,,,,,,,,,,,63,0,371.8483,372.6144,z,1,0.7551,,[],[],[],[],[],[],[],372.6145,374.6144,374.6145,374.6146,[],[],[],[],[],[],[],,,,374.6147,374.6148,0.058308729,-0.499981729,0,0,0,,0,62,62,23,1,3,RL,quakity,print,quakity_p.png,,,,
,,,,31879,001,2025-10-19_22h05.46.076,HW_LDT_1,2024.2.4,MacIntel,60.24096386,,,,,,,,,,,,,,,,,,,,,,374.6158,374.8144,374.8145,375.3145,,,,,,,,,,,,,,0.8733,1,,,,,,,,,,,,,,z,,,,,,,,,,,,,,,,64,0,375.315,376.1978,z,1,0.8733,,[],[],[],[],[],[],[],376.1979,378.1972,378.1972,378.1975,[],[],[],[],[],[],[],,,,378.1975,378.1976,0.058308729,-0.499981729,0,0,0,,0,63,63,24,1,3,RL,quafidy,print,quafidy_p.png,,,,
,,,,31879,001,2025-10-19_22h05.46.076,HW_LDT_1,2024.2.4,MacIntel,60.24096386,,,,,,,,,,,,,,,,,,,,,,378.1986,378.3978,378.3978,378.8978,,,,,,,,,,,,,,1.7741,1,,,,,,,,,,,,,,z,,,,,,,,,,,,,,,,65,0,378.8983,380.6812,z,1,1.7741,,[],[],[],[],[],[],[],380.6812,382.6812,382.6813,382.6814,[],[],[],[],[],[],[],,,,382.6814,382.6814,0.058308729,-0.499981729,0,0,0,,0,64,64,17,1,3,RL,motide,cursive,motide_c.png,,,,
,,,,31879,001,2025-10-19_22h05.46.076,HW_LDT_1,2024.2.4,MacIntel,60.24096386,,,,,,,,,,,,,,,,,,,,,,382.6824,382.8811,382.8812,383.3811,,,,,,,,,,,,,,0.9647,0,,,,,,,,,,,,,,m,,,,,,,,,,,,,,,,66,0,383.3816,384.3477,z,0,0.9647,,[],[],[],[],[],[],[],384.3478,386.3478,386.3479,386.348,[],[],[],[],[],[],[],,,,386.3481,386.3481,0.058308729,-0.499981729,0,0,0,,0,65,65,110,1,3,word,HERITAGE,cursive,heritage_c.png,,,,
,,,,31879,001,2025-10-19_22h05.46.076,HW_LDT_1,2024.2.4,MacIntel,60.24096386,,,,,,,,,,,,,,,,,,,,,,386.3491,386.5478,386.5478,387.0477,,,,,,,,,,,,,,0.948,0,,,,,,,,,,,,,,z,,,,,,,,,,,,,,,,67,0,387.0483,387.9977,m,0,0.948,,[],[],[],[],[],[],[],387.9977,389.9977,389.9978,389.9979,[],[],[],[],[],[],[],,,,389.998,389.9981,0.058308729,-0.499981729,0,0,0,,0,66,66,49,1,3,TL,incidate,print,incidate_p.png,,,,
,,,,31879,001,2025-10-19_22h05.46.076,HW_LDT_1,2024.2.4,MacIntel,60.24096386,,,,,,,,,,,,,,,,,,,,,,389.9991,390.1978,390.1978,390.6978,,,,,,,,,,,,,,0.6047,1,,,,,,,,,,,,,,m,,,,,,,,,,,,,,,,68,0,390.6983,391.3145,m,1,0.6047,,[],[],[],[],[],[],[],391.3146,393.3144,393.3145,393.3146,[],[],[],[],[],[],[],,,,393.3147,393.3147,0.058308729,-0.499981729,0,0,0,,0,67,67,133,1,3,word,PROVIDE,print,provide_p.png,,,,
,,,,31879,001,2025-10-19_22h05.46.076,HW_LDT_1,2024.2.4,MacIntel,60.24096386,,,,,,,,,,,,,,,,,,,,,,393.3158,393.5145,393.5145,394.0144,,,,,,,,,,,,,,0.8378,0,,,,,,,,,,,,,,m,,,,,,,,,,,,,,,,69,0,394.0149,394.8645,z,0,0.8378,,[],[],[],[],[],[],[],394.8646,396.8644,396.8644,396.8646,[],[],[],[],[],[],[],,,,396.8647,396.8647,0.058308729,-0.499981729,0,0,0,,0,68,68,145,1,3,word,RESUME,cursive,resume_c.png,,,,
,,,,31879,001,2025-10-19_22h05.46.076,HW_LDT_1,2024.2.4,MacIntel,60.24096386,,,,,,,,,,,,,,,,,,,,,,396.8658,397.0644,397.0644,397.5645,,,,,,,,,,,,,,0.8048,1,,,,,,,,,,,,,,z,,,,,,,,,,,,,,,,70,0,397.5649,398.3811,z,1,0.8048,,[],[],[],[],[],[],[],398.3811,400.3812,400.3812,400.3814,[],[],[],[],[],[],[],,,,400.3814,400.3815,0.058308729,-0.499981729,0,0,0,,0,69,69,9,1,3,RL,docirant,print,docirant_p.png,,,,
,,,,31879,001,2025-10-19_22h05.46.076,HW_LDT_1,2024.2.4,MacIntel,60.24096386,,,,,,,,,,,,,,,,,,,,,,400.3825,400.5811,400.5811,401.0811,,,,,,,,,,,,,,1.2476,0,,,,,,,,,,,,,,z,,,,,,,,,,,,,,,,71,0,401.0816,402.331,m,0,1.2476,,[],[],[],[],[],[],[],402.3311,404.3311,404.3311,404.3313,[],[],[],[],[],[],[],,,,404.3313,404.3314,0.058308729,-0.499981729,0,0,0,,0,70,70,72,1,3,TL,senmitent,print,senmitent_p.png,,,,
,,,,31879,001,2025-10-19_22h05.46.076,HW_LDT_1,2024.2.4,MacIntel,60.24096386,,,,,,,,,,,,,,,,,,,,,,404.3321,404.5311,404.5312,405.0311,,,,,,,,,,,,,,1.2981,0,,,,,,,,,,,,,,m,,,,,,,,,,,,,,,,72,0,405.0316,406.331,z,0,1.2981,,[],[],[],[],[],[],[],406.331,408.331,408.3311,408.3313,[],[],[],[],[],[],[],,,,408.3313,408.3314,0.058308729,-0.499981729,0,0,0,,0,71,71,149,1,3,word,SENATOR,cursive,senator_c.png,,,,
,,,,31879,001,2025-10-19_22h05.46.076,HW_LDT_1,2024.2.4,MacIntel,60.24096386,,,,,,,,,,,,,,,,,,,,,,408.3325,408.5311,408.5311,409.031,,,,,,,,,,,,,,1.1156,0,,,,,,,,,,,,,,z,,,,,,,,,,,,,,,,73,0,409.0316,410.1479,m,0,1.1156,,[],[],[],[],[],[],[],410.1479,412.1478,412.1478,412.148,[],[],[],[],[],[],[],,,,412.148,412.1481,0.058308729,-0.499981729,0,0,0,,0,72,72,33,1,3,TL,adsivory,print,adsivory_p.png,,,,
,,,,31879,001,2025-10-19_22h05.46.076,HW_LDT_1,2024.2.4,MacIntel,60.24096386,,,,,,,,,,,,,,,,,,,,,,412.1491,412.3478,412.3478,412.8478,,,,,,,,,,,,,,0.5383,0,,,,,,,,,,,,,,z,,,,,,,,,,,,,,,,74,1,412.8483,413.3978,m,0,0.5383,,[],[],[],[],[],[],[],413.3979,415.3978,415.3978,417.0978,[],[],[],[],[],[],[],m,1.6921,,417.0979,417.0979,0.058308729,-0.499981729,0,0,0,,0,73,73,39,1,3,TL,clicinal,print,clicinal_p.png,,,,
,,,,31879,001,2025-10-19_22h05.46.076,HW_LDT_1,2024.2.4,MacIntel,60.24096386,,,,,,,,,,,,,,,,,,,,,,417.0989,417.2977,417.2977,417.7976,,,,,,,,,,,,,,0.7983,0,,,,,,,,,,,,,,m,,,,,,,,,,,,,,,,75,0,417.7981,418.5976,z,0,0.7983,,[],[],[],[],[],[],[],418.5976,420.5977,420.5979,420.5979,[],[],[],[],[],[],[],,,,420.598,420.5981,0.058308729,-0.499981729,0,0,0,,0,74,74,121,1,3,word,MISTAKE,cursive,mistake_c.png,,,,
,,,,31879,001,2025-10-19_22h05.46.076,HW_LDT_1,2024.2.4,MacIntel,60.24096386,,,,,,,,,,,,,,,,,,,,,,420.5992,420.7977,420.7977,421.2978,,,,,,,,,,,,,,0.8241,1,,,,,,,,,,,,,,z,,,,,,,,,,,,,,,,76,0,421.2983,422.1307,z,1,0.8241,,[],[],[],[],[],[],[],422.1309,424.1303,424.1304,424.1305,[],[],[],[],[],[],[],,,,424.1305,424.1305,0.058308729,-0.499981729,0,0,0,,0,75,75,71,1,3,TL,sanile,cursive,sanile_c.png,,,,
,,,,31879,001,2025-10-19_22h05.46.076,HW_LDT_1,2024.2.4,MacIntel,60.24096386,,,,,,,,,,,,,,,,,,,,,,424.1314,424.331,424.331,424.831,,,,,,,,,,,,,,0.9146,1,,,,,,,,,,,,,,z,,,,,,,,,,,,,,,,77,0,424.8315,425.7477,z,1,0.9146,,[],[],[],[],[],[],[],425.7478,427.7477,427.7477,427.7479,[],[],[],[],[],[],[],,,,427.748,427.7481,0.058308729,-0.499981729,0,0,0,,0,76,76,20,1,3,RL,orimipal,cursive,orimipal_c.png,,,,
,,,,31879,001,2025-10-19_22h05.46.076,HW_LDT_1,2024.2.4,MacIntel,60.24096386,,,,,,,,,,,,,,,,,,,,,,427.7491,427.9478,427.9478,428.4476,,,,,,,,,,,,,,0.772,1,,,,,,,,,,,,,,m,,,,,,,,,,,,,,,,78,1,428.4482,429.2312,m,1,0.772,,[],[],[],[],[],[],[],429.2312,431.2311,431.2312,432.4143,[],[],[],[],[],[],[],m,1.1716,,432.4144,432.4145,0.058308729,-0.499981729,0,0,0,,0,77,77,111,1,3,word,INDICATE,print,indicate_p.png,,,,
,,,,31879,001,2025-10-19_22h05.46.076,HW_LDT_1,2024.2.4,MacIntel,60.24096386,,,,,,,,,,,,,,,,,,,,,,432.4154,432.6143,432.6144,433.1144,,,,,,,,,,,,,,1.0822,0,,,,,,,,,,,,,,z,,,,,,,,,,,,,,,,79,0,433.1149,434.198,m,0,1.0822,,[],[],[],[],[],[],[],434.198,436.1977,436.1978,436.1979,[],[],[],[],[],[],[],,,,436.198,436.1981,0.058308729,-0.499981729,0,0,0,,0,78,78,50,1,3,TL,lirebal,print,lirebal_p.png,,,,
,,,,31879,001,2025-10-19_22h05.46.076,HW_LDT_1,2024.2.4,MacIntel,60.24096386,,,,,,,,,,,,,,,,,,,,,,436.1993,436.3977,436.3977,436.8977,,,,,,,,,,,,,,0.7715,1,,,,,,,,,,,,,,z,,,,,,,,,,,,,,,,80,1,436.8982,437.681,z,1,0.7715,,[],[],[],[],[],[],[],437.6811,439.6811,439.6811,440.9144,[],[],[],[],[],[],[],m,1.2222,,440.9145,443.8814,0.058308729,-0.499981729,0,0,0,space,0,79,79,21,1,3,RL,potugar,print,potugar_p.png,2.9321,,,
,,,,31879,001,2025-10-19_22h05.46.076,HW_LDT_1,2024.2.4,MacIntel,60.24096386,,,,,,,,,,,,,,,,,,,,,,443.8826,444.0811,444.0811,444.581,,,,,,,,,,,,,,0.9546,1,,,,,,,,,,,,,,m,,,,,,,,,,,,,,,,81,0,444.5814,445.5477,m,1,0.9546,,[],[],[],[],[],[],[],445.5479,447.5477,447.5478,447.548,[],[],[],[],[],[],[],,,,447.548,447.5482,0.058308729,-0.499981729,0,0,0,,0,80,80,104,1,3,word,DOMINANT,print,dominant_p.png,,,,
,,,,31879,001,2025-10-19_22h05.46.076,HW_LDT_1,2024.2.4,MacIntel,60.24096386,,,,,,,,,,,,,,,,,,,,,,447.5492,447.7477,447.7477,448.2477,,,,,,,,,,,,,,0.8216,1,,,,,,,,,,,,,,m,,,,,,,,,,,,,,,,82,0,448.2482,449.0811,m,1,0.8216,,[],[],[],[],[],[],[],449.0811,451.081,451.081,451.0812,[],[],[],[],[],[],[],,,,451.0812,451.0812,0.058308729,-0.499981729,0,0,0,,0,81,81,115,1,3,word,LOGICAL,cursive,logical_c.png,,,,
,,,,31879,001,2025-10-19_22h05.46.076,HW_LDT_1,2024.2.4,MacIntel,60.24096386,,,,,,,,,,,,,,,,,,,,,,451.0822,451.281,451.2811,451.7809,,,,,,,,,,,,,,2.8481,0,,,,,,,,,,,,,,z,,,,,,,,,,,,,,,,83,0,451.7815,454.6309,m,0,2.8481,,[],[],[],[],[],[],[],454.631,456.631,456.6311,456.6312,[],[],[],[],[],[],[],,,,456.6313,456.6313,0.058308729,-0.499981729,0,0,0,,0,82,82,41,1,3,TL,crinimal,print,crinimal_p.png,,,,
,,,,31879,001,2025-10-19_22h05.46.076,HW_LDT_1,2024.2.4,MacIntel,60.24096386,,,,,,,,,,,,,,,,,,,,,,456.6325,456.831,456.8311,457.3308,,,,,,,,,,,,,,3.4637,1,,,,,,,,,,,,,,z,,,,,,,,,,,,,,,,84,0,457.3313,460.7976,z,1,3.4637,,[],[],[],[],[],[],[],460.7976,462.7978,462.7978,462.798,[],[],[],[],[],[],[],,,,462.798,462.798,0.060406192,-0.494383624,0,0,0,,0,83,83,45,1,3,TL,dentisy,print,dentisy_p.png,,,,
,,,,31879,001,2025-10-19_22h05.46.076,HW_LDT_1,2024.2.4,MacIntel,60.24096386,,,,,,,,,,,,,,,,,,,,,,462.7988,462.9979,462.9979,463.4976,,,,,,,,,,,,,,0.9312,0,,,,,,,,,,,,,,m,,,,,,,,,,,,,,,,85,0,463.4981,464.4309,z,0,0.9312,,[],[],[],[],[],[],[],464.431,466.4312,466.4313,466.4313,[],[],[],[],[],[],[],,,,466.4313,466.4313,0.342072761,-0.114578461,0,0,0,,0,84,84,114,1,3,word,LOCATE,cursive,locate_c.png,,,,
,,,,31879,001,2025-10-19_22h05.46.076,HW_LDT_1,2024.2.4,MacIntel,60.24096386,,,,,,,,,,,,,,,,,,,,,,466.4321,466.631,466.631,467.131,,,,,,,,,,,,,,1.0823,1,,,,,,,,,,,,,,z,,,,,,,,,,,,,,,,86,0,467.1315,468.2145,z,1,1.0823,,[],[],[],[],[],[],[],468.2147,470.2133,470.2134,470.2136,[],[],[],[],[],[],[],,,,470.2136,470.2137,0.408866347,-0.019063523,0,0,0,,0,85,85,78,1,3,TL,vecolity,cursive,vecolity_c.png,,,,
,,,,31879,001,2025-10-19_22h05.46.076,HW_LDT_1,2024.2.4,MacIntel,60.24096386,,,,,,,,,,,,,,,,,,,,,,470.2147,470.4142,470.4142,470.9143,,,,,,,,,,,,,,4.3214,1,,,,,,,,,,,,,,m,,,,,,,,,,,,,,,,87,1,470.9148,475.2476,m,1,4.3214,,[],[],[],[],[],[],[],475.2477,477.2476,477.2477,478.6979,[],[],[],[],[],[],[],m,1.44,,478.698,478.698,0.408866347,-0.019063523,0,0,0,,0,86,86,118,1,3,word,MEDICINE,print,medicine_p.png,,,,
,,,,31879,001,2025-10-19_22h05.46.076,HW_LDT_1,2024.2.4,MacIntel,60.24096386,,,,,,,,,,,,,,,,,,,,,,478.6991,478.8976,478.8977,479.3976,,,,,,,,,,,,,,2.2379,1,,,,,,,,,,,,,,z,,,,,,,,,,,,,,,,88,0,479.3981,481.6477,z,1,2.2379,,[],[],[],[],[],[],[],481.6478,483.6476,483.6476,483.6478,[],[],[],[],[],[],[],,,,483.6478,483.6479,0.408866347,-0.019063523,0,0,0,,0,87,87,48,1,3,TL,grafetul,cursive,grafetul_c.png,,,,
,,,,31879,001,2025-10-19_22h05.46.076,HW_LDT_1,2024.2.4,MacIntel,60.24096386,,,,,,,,,,,,,,,,,,,,,,483.6488,483.8476,483.8477,484.3476,,,,,,,,,,,,,,0.7728,1,,,,,,,,,,,,,,z,,,,,,,,,,,,,,,,89,0,484.3481,485.1311,z,1,0.7728,,[],[],[],[],[],[],[],485.1311,487.131,487.131,487.1311,[],[],[],[],[],[],[],,,,487.1311,487.1312,0.408866347,-0.019063523,0,0,0,,0,88,88,3,1,3,RL,bebine,cursive,bebine_c.png,,,,
,,,,31879,001,2025-10-19_22h05.46.076,HW_LDT_1,2024.2.4,MacIntel,60.24096386,,,,,,,,,,,,,,,,,,,,,,487.1323,487.3309,487.3309,487.8309,,,,,,,,,,,,,,1.8713,1,,,,,,,,,,,,,,m,,,,,,,,,,,,,,,,90,0,487.8314,489.7143,m,1,1.8713,,[],[],[],[],[],[],[],489.7145,491.7143,491.7143,491.7145,[],[],[],[],[],[],[],,,,491.7145,491.7146,0.408866347,-0.019063523,0,0,0,,0,89,89,105,1,3,word,EDITOR,print,editor_p.png,,,,
,,,,31879,001,2025-10-19_22h05.46.076,HW_LDT_1,2024.2.4,MacIntel,60.24096386,,,,,,,,,,,,,,,,,,,,,,491.7155,491.9141,491.9142,492.4142,,,,,,,,,,,,,,0.6966,1,,,,,,,,,,,,,,z,,,,,,,,,,,,,,,,91,0,492.4148,493.1141,z,1,0.6966,,[],[],[],[],[],[],[],493.1143,495.1143,495.1144,495.1145,[],[],[],[],[],[],[],,,,495.1145,495.1146,0.408866347,-0.019063523,0,0,0,,0,90,90,69,1,3,TL,redisent,cursive,redisent_c.png,,,,
,,,,31879,001,2025-10-19_22h05.46.076,HW_LDT_1,2024.2.4,MacIntel,60.24096386,,,,,,,,,,,,,,,,,,,,,,495.1156,495.3143,495.3143,495.814,,,,,,,,,,,,,,0.6887,1,,,,,,,,,,,,,,m,,,,,,,,,,,,,,,,92,0,495.8144,496.5143,m,1,0.6887,,[],[],[],[],[],[],[],496.5144,498.5142,498.5143,498.5144,[],[],[],[],[],[],[],,,,498.5144,498.5146,0.408866347,-0.019063523,0,0,0,,0,91,91,97,1,3,word,COVERAGE,print,coverage_p.png,,,,
,,,,31879,001,2025-10-19_22h05.46.076,HW_LDT_1,2024.2.4,MacIntel,60.24096386,,,,,,,,,,,,,,,,,,,,,,498.5156,498.7143,498.7143,499.2142,,,,,,,,,,,,,,1.4314,0,,,,,,,,,,,,,,m,,,,,,,,,,,,,,,,93,0,499.2148,500.6473,z,0,1.4314,,[],[],[],[],[],[],[],500.6473,502.6476,502.6476,502.6478,[],[],[],[],[],[],[],,,,502.6478,502.6478,0.408866347,-0.019063523,0,0,0,,0,92,92,113,1,3,word,LITERAL,print,literal_p.png,,,,
,,,,31879,001,2025-10-19_22h05.46.076,HW_LDT_1,2024.2.4,MacIntel,60.24096386,,,,,,,,,,,,,,,,,,,,,,502.6489,502.8476,502.8476,503.3475,,,,,,,,,,,,,,0.888,1,,,,,,,,,,,,,,m,,,,,,,,,,,,,,,,94,0,503.3481,504.2477,m,1,0.888,,[],[],[],[],[],[],[],504.2478,506.2476,506.2476,506.2478,[],[],[],[],[],[],[],,,,506.2478,506.2479,0.408866347,-0.019063523,0,0,0,,0,93,93,135,1,3,word,QUALITY,print,quality_p.png,,,,
,,,,31879,001,2025-10-19_22h05.46.076,HW_LDT_1,2024.2.4,MacIntel,60.24096386,,,,,,,,,,,,,,,,,,,,,,506.2489,506.4475,506.4476,506.9475,,,,,,,,,,,,,,1.3381,0,,,,,,,,,,,,,,m,,,,,,,,,,,,,,,,95,0,506.9481,508.2977,z,0,1.3381,,[],[],[],[],[],[],[],508.2978,510.2967,510.2967,510.2969,[],[],[],[],[],[],[],,,,510.297,510.297,0.408866347,-0.019063523,0,0,0,,0,94,94,157,1,3,word,VALIDITY,cursive,validity_c.png,,,,
,,,,31879,001,2025-10-19_22h05.46.076,HW_LDT_1,2024.2.4,MacIntel,60.24096386,,,,,,,,,,,,,,,,,,,,,,510.2978,510.4975,510.4975,510.9975,,,,,,,,,,,,,,0.7745,1,,,,,,,,,,,,,,z,,,,,,,,,,,,,,,,96,0,510.998,511.7809,z,1,0.7745,,[],[],[],[],[],[],[],511.7811,513.7808,513.7809,513.781,[],[],[],[],[],[],[],,,,513.7811,513.7811,0.408866347,-0.019063523,0,0,0,,0,95,95,66,1,3,TL,retalive,cursive,retalive_c.png,,,,
,,,,31879,001,2025-10-19_22h05.46.076,HW_LDT_1,2024.2.4,MacIntel,60.24096386,,,,,,,,,,,,,,,,,,,,,,513.7822,513.9809,513.981,514.4808,,,,,,,,,,,,,,1.1982,0,,,,,,,,,,,,,,z,,,,,,,,,,,,,,,,97,0,514.4813,515.6803,m,0,1.1982,,[],[],[],[],[],[],[],515.6803,517.6809,517.681,517.6811,[],[],[],[],[],[],[],,,,517.6812,517.6812,0.408866347,-0.019063523,0,0,0,,0,96,96,54,1,3,TL,manire,cursive,manire_c.png,,,,
,,,,31879,001,2025-10-19_22h05.46.076,HW_LDT_1,2024.2.4,MacIntel,60.24096386,,,,,,,,,,,,,,,,,,,,,,517.6823,517.8809,517.8809,518.3809,,,,,,,,,,,,,,0.9079,1,,,,,,,,,,,,,,m,,,,,,,,,,,,,,,,98,0,518.3813,519.2975,m,1,0.9079,,[],[],[],[],[],[],[],519.2976,521.2976,521.2977,521.2979,[],[],[],[],[],[],[],,,,521.298,521.298,0.408866347,-0.019063523,0,0,0,,0,97,97,130,1,3,word,POLICY,print,policy_p.png,,,,
,,,,31879,001,2025-10-19_22h05.46.076,HW_LDT_1,2024.2.4,MacIntel,60.24096386,,,,,,,,,,,,,,,,,,,,,,521.2992,521.4972,521.4972,521.9975,,,,,,,,,,,,,,0.6152,1,,,,,,,,,,,,,,m,,,,,,,,,,,,,,,,99,0,521.998,522.6141,m,1,0.6152,,[],[],[],[],[],[],[],522.6142,524.6142,524.6142,524.6144,[],[],[],[],[],[],[],,,,524.6144,524.6146,0.408866347,-0.019063523,0,0,0,,0,98,98,152,1,3,word,SPECIMEN,print,specimen_p.png,,,,
,,,,31879,001,2025-10-19_22h05.46.076,HW_LDT_1,2024.2.4,MacIntel,60.24096386,,,,,,,,,,,,,,,,,,,,,,524.6155,524.8141,524.8142,525.3142,,,,,,,,,,,,,,0.7411,1,,,,,,,,,,,,,,z,,,,,,,,,,,,,,,,100,1,525.3147,526.0643,z,1,0.7411,,[],[],[],[],[],[],[],526.0643,528.0638,528.0638,529.3642,[],[],[],[],[],[],[],m,1.2888,,529.3642,529.3644,0.408866347,-0.019063523,0,0,0,,0,99,99,57,1,3,TL,moredate,cursive,moredate_c.png,,,,
,,,,31879,001,2025-10-19_22h05.46.076,HW_LDT_1,2024.2.4,MacIntel,60.24096386,,,,,,,,,,,,,,,,,,,,,,529.3653,529.5641,529.5641,530.0642,,,,,,,,,,,,,,1.6979,0,,,,,,,,,,,,,,m,,,,,,,,,,,,,,,,101,0,530.0647,531.7641,z,0,1.6979,,[],[],[],[],[],[],[],531.7643,533.7643,533.7643,533.7645,[],[],[],[],[],[],[],,,,533.7645,533.7646,0.408866347,-0.019063523,0,0,0,,0,100,100,108,1,3,word,FORTUNE,cursive,fortune_c.png,,,,
,,,,31879,001,2025-10-19_22h05.46.076,HW_LDT_1,2024.2.4,MacIntel,60.24096386,,,,,,,,,,,,,,,,,,,,,,533.7656,533.9642,533.9642,534.4641,,,,,,,,,,,,,,0.8571,1,,,,,,,,,,,,,,z,,,,,,,,,,,,,,,,102,0,534.4646,535.331,z,1,0.8571,,[],[],[],[],[],[],[],535.331,537.3309,537.3309,537.331,[],[],[],[],[],[],[],,,,537.3311,537.3311,0.408866347,-0.019063523,0,0,0,,0,101,101,8,1,3,RL,cocewage,print,cocewage_p.png,,,,
,,,,31879,001,2025-10-19_22h05.46.076,HW_LDT_1,2024.2.4,MacIntel,60.24096386,,,,,,,,,,,,,,,,,,,,,,537.3322,537.5308,537.5308,538.0309,,,,,,,,,,,,,,0.6968,1,,,,,,,,,,,,,,z,,,,,,,,,,,,,,,,103,0,538.0313,538.7307,z,1,0.6968,,[],[],[],[],[],[],[],538.7308,540.7309,540.7309,540.7311,[],[],[],[],[],[],[],,,,540.7312,540.7312,0.408866347,-0.019063523,0,0,0,,0,102,102,14,1,3,RL,lofase,cursive,lofase_c.png,,,,
,,,,31879,001,2025-10-19_22h05.46.076,HW_LDT_1,2024.2.4,MacIntel,60.24096386,,,,,,,,,,,,,,,,,,,,,,540.7322,540.9308,540.9309,541.4309,,,,,,,,,,,,,,0.7052,1,,,,,,,,,,,,,,m,,,,,,,,,,,,,,,,104,0,541.4314,542.1475,m,1,0.7052,,[],[],[],[],[],[],[],542.1476,544.1467,544.1467,544.1468,[],[],[],[],[],[],[],,,,544.1469,544.1469,0.408866347,-0.019063523,0,0,0,,0,103,103,112,1,3,word,LIBERAL,print,liberal_p.png,,,,
,,,,31879,001,2025-10-19_22h05.46.076,HW_LDT_1,2024.2.4,MacIntel,60.24096386,,,,,,,,,,,,,,,,,,,,,,544.1477,544.3475,544.3475,544.8475,,,,,,,,,,,,,,0.7738,1,,,,,,,,,,,,,,z,,,,,,,,,,,,,,,,105,0,544.848,545.6308,z,1,0.7738,,[],[],[],[],[],[],[],545.631,547.6308,547.6308,547.631,[],[],[],[],[],[],[],,,,547.631,547.631,0.408866347,-0.019063523,0,0,0,,0,104,104,26,1,3,RL,repifion,print,repifion_p.png,,,,
,,,,31879,001,2025-10-19_22h05.46.076,HW_LDT_1,2024.2.4,MacIntel,60.24096386,,,,,,,,,,,,,,,,,,,,,,547.632,547.8308,547.8309,548.3309,,,,,,,,,,,,,,0.9881,1,,,,,,,,,,,,,,m,,,,,,,,,,,,,,,,106,0,548.3312,549.3304,m,1,0.9881,,[],[],[],[],[],[],[],549.3305,551.3308,551.3308,551.331,[],[],[],[],[],[],[],,,,551.3311,551.3312,0.408866347,-0.019063523,0,0,0,,0,105,105,129,1,3,word,PARENT,print,parent_p.png,,,,
,,,,31879,001,2025-10-19_22h05.46.076,HW_LDT_1,2024.2.4,MacIntel,60.24096386,,,,,,,,,,,,,,,,,,,,,,551.3322,551.5309,551.5309,552.0309,,,,,,,,,,,,,,0.8552,1,,,,,,,,,,,,,,z,,,,,,,,,,,,,,,,107,0,552.0313,552.8971,z,1,0.8552,,[],[],[],[],[],[],[],552.8972,554.8975,554.8976,554.8977,[],[],[],[],[],[],[],,,,554.8977,554.8978,0.408866347,-0.019063523,0,0,0,,0,106,106,63,1,3,TL,racidal,cursive,racidal_c.png,,,,
,,,,31879,001,2025-10-19_22h05.46.076,HW_LDT_1,2024.2.4,MacIntel,60.24096386,,,,,,,,,,,,,,,,,,,,,,554.8989,555.0975,555.0976,555.5975,,,,,,,,,,,,,,0.8322,0,,,,,,,,,,,,,,m,,,,,,,,,,,,,,,,108,0,555.598,556.431,z,0,0.8322,,[],[],[],[],[],[],[],556.431,558.4309,558.4309,558.4311,[],[],[],[],[],[],[],,,,558.4311,558.4312,0.408866347,-0.019063523,0,0,0,,0,107,107,120,1,3,word,MILITARY,cursive,military_c.png,,,,
,,,,31879,001,2025-10-19_22h05.46.076,HW_LDT_1,2024.2.4,MacIntel,60.24096386,,,,,,,,,,,,,,,,,,,,,,558.4322,558.6308,558.6308,559.1308,,,,,,,,,,,,,,1.4467,1,,,,,,,,,,,,,,m,,,,,,,,,,,,,,,,109,0,559.1313,560.5807,m,1,1.4467,,[],[],[],[],[],[],[],560.5808,562.5808,562.5808,562.581,[],[],[],[],[],[],[],,,,562.581,562.5811,0.408866347,-0.019063523,0,0,0,,0,108,108,138,1,3,word,REFUSAL,print,refusal_p.png,,,,
,,,,31879,001,2025-10-19_22h05.46.076,HW_LDT_1,2024.2.4,MacIntel,60.24096386,,,,,,,,,,,,,,,,,,,,,,562.5822,562.7809,562.7809,563.2808,,,,,,,,,,,,,,0.7379,1,,,,,,,,,,,,,,m,,,,,,,,,,,,,,,,110,0,563.2813,564.0309,m,1,0.7379,,[],[],[],[],[],[],[],564.0309,566.0307,566.0309,566.031,[],[],[],[],[],[],[],,,,566.031,566.0311,0.408866347,-0.019063523,0,0,0,,0,109,109,83,1,3,word,ANIMAL,cursive,animal_c.png,,,,
,,,,31879,001,2025-10-19_22h05.46.076,HW_LDT_1,2024.2.4,MacIntel,60.24096386,,,,,,,,,,,,,,,,,,,,,,566.0319,566.2307,566.2308,566.7307,,,,,,,,,,,,,,1.2245,0,,,,,,,,,,,,,,m,,,,,,,,,,,,,,,,111,0,566.7313,567.9641,z,0,1.2245,,[],[],[],[],[],[],[],567.9642,569.964,569.9641,569.9642,[],[],[],[],[],[],[],,,,569.9643,569.9643,0.408866347,-0.019063523,0,0,0,,0,110,110,126,1,3,word,OPTIMAL,cursive,optimal_c.png,,,,
,,,,31879,001,2025-10-19_22h05.46.076,HW_LDT_1,2024.2.4,MacIntel,60.24096386,,,,,,,,,,,,,,,,,,,,,,569.9654,570.1641,570.1641,570.6641,,,,,,,,,,,,,,1.1645,1,,,,,,,,,,,,,,z,,,,,,,,,,,,,,,,112,1,570.6646,571.8308,z,1,1.1645,,[],[],[],[],[],[],[],571.8308,573.8308,573.8308,576.2807,[],[],[],[],[],[],[],z,2.4481,,576.2808,576.2809,0.408866347,-0.019063523,0,0,0,,0,111,111,38,1,3,TL,carnidal,print,carnidal_p.png,,,,
,,,,31879,001,2025-10-19_22h05.46.076,HW_LDT_1,2024.2.4,MacIntel,60.24096386,,,,,,,,,,,,,,,,,,,,,,576.2817,576.4808,576.4808,576.9805,,,,,,,,,,,,,,1.266,1,,,,,,,,,,,,,,m,,,,,,,,,,,,,,,,113,0,576.9809,578.2476,m,1,1.266,,[],[],[],[],[],[],[],578.2477,580.2474,580.2475,580.2477,[],[],[],[],[],[],[],,,,580.2477,580.2479,0.408866347,-0.019063523,0,0,0,,0,112,112,134,1,3,word,QUALIFY,print,qualify_p.png,,,,
,,,,31879,001,2025-10-19_22h05.46.076,HW_LDT_1,2024.2.4,MacIntel,60.24096386,,,,,,,,,,,,,,,,,,,,,,580.2489,580.4472,580.4472,580.9475,,,,,,,,,,,,,,1.0217,1,,,,,,,,,,,,,,z,,,,,,,,,,,,,,,,114,0,580.948,581.9808,z,1,1.0217,,[],[],[],[],[],[],[],581.9808,583.9799,583.9799,583.98,[],[],[],[],[],[],[],,,,583.98,583.9801,0.408866347,-0.019063523,0,0,0,,0,113,113,30,1,3,RL,strapely,print,strapely_p.png,,,,
,,,,31879,001,2025-10-19_22h05.46.076,HW_LDT_1,2024.2.4,MacIntel,60.24096386,,,,,,,,,,,,,,,,,,,,,,583.981,584.1807,584.1807,584.6808,,,,,,,,,,,,,,2.7307,1,,,,,,,,,,,,,,m,,,,,,,,,,,,,,,,115,0,584.6813,587.414,m,1,2.7307,,[],[],[],[],[],[],[],587.4141,589.414,589.4141,589.4142,[],[],[],[],[],[],[],,,,589.4143,589.4144,0.408866347,-0.019063523,0,0,0,,0,114,114,153,1,3,word,STOLEN,cursive,stolen_c.png,,,,
,,,,31879,001,2025-10-19_22h05.46.076,HW_LDT_1,2024.2.4,MacIntel,60.24096386,,,,,,,,,,,,,,,,,,,,,,589.4154,589.6141,589.6141,590.1141,,,,,,,,,,,,,,0.7486,0,,,,,,,,,,,,,,m,,,,,,,,,,,,,,,,116,0,590.1146,590.864,z,0,0.7486,,[],[],[],[],[],[],[],590.8641,592.864,592.8641,592.8642,[],[],[],[],[],[],[],,,,592.8642,592.8644,0.408866347,-0.019063523,0,0,0,,0,115,115,140,1,3,word,RELATIVE,cursive,relative_c.png,,,,
,,,,31879,001,2025-10-19_22h05.46.076,HW_LDT_1,2024.2.4,MacIntel,60.24096386,,,,,,,,,,,,,,,,,,,,,,592.8658,593.0641,593.0642,593.5641,,,,,,,,,,,,,,1.5718,1,,,,,,,,,,,,,,m,,,,,,,,,,,,,,,,117,0,593.5645,595.1474,m,1,1.5718,,[],[],[],[],[],[],[],595.1475,597.1473,597.1474,597.1475,[],[],[],[],[],[],[],,,,597.1476,597.1477,0.408866347,-0.019063523,0,0,0,,0,116,116,92,1,3,word,CATEGORY,cursive,category_c.png,,,,
,,,,31879,001,2025-10-19_22h05.46.076,HW_LDT_1,2024.2.4,MacIntel,60.24096386,,,,,,,,,,,,,,,,,,,,,,597.1487,597.3474,597.3474,597.8474,,,,,,,,,,,,,,1.1553,1,,,,,,,,,,,,,,z,,,,,,,,,,,,,,,,118,0,597.848,599.0138,z,1,1.1553,,[],[],[],[],[],[],[],599.014,601.014,601.0141,601.0143,[],[],[],[],[],[],[],,,,601.0144,601.0144,0.408866347,-0.019063523,0,0,0,,0,117,117,2,1,3,RL,betemit,print,betemit_p.png,,,,
,,,,31879,001,2025-10-19_22h05.46.076,HW_LDT_1,2024.2.4,MacIntel,60.24096386,,,,,,,,,,,,,,,,,,,,,,601.0155,601.2141,601.2141,601.7141,,,,,,,,,,,,,,0.8882,1,,,,,,,,,,,,,,z,,,,,,,,,,,,,,,,119,0,601.7146,602.6141,z,1,0.8882,,[],[],[],[],[],[],[],602.6141,604.6141,604.6141,604.6143,[],[],[],[],[],[],[],,,,604.6144,604.6144,0.408866347,-0.019063523,0,0,0,,0,118,118,25,1,3,RL,retupar,print,retupar_p.png,,,,
,,,,31879,001,2025-10-19_22h05.46.076,HW_LDT_1,2024.2.4,MacIntel,60.24096386,,,,,,,,,,,,,,,,,,,,,,604.6155,604.814,604.8141,605.314,,,,,,,,,,,,,,1.2715,1,,,,,,,,,,,,,,z,,,,,,,,,,,,,,,,120,0,605.3145,606.5975,z,1,1.2715,,[],[],[],[],[],[],[],606.5976,608.5974,608.5975,608.5976,[],[],[],[],[],[],[],,,,608.5976,608.5977,0.408866347,-0.01884793,0,0,0,,0,119,119,5,1,3,RL,capefory,cursive,capefory_c.png,,,,
,,,,31879,001,2025-10-19_22h05.46.076,HW_LDT_1,2024.2.4,MacIntel,60.24096386,,,,,,,,,,,,,,,,,,,,,,608.5986,608.7973,608.7974,609.2975,,,,,,,,,,,,,,0.7881,1,,,,,,,,,,,,,,m,,,,,,,,,,,,,,,,121,0,609.2979,610.0974,m,1,0.7881,,[],[],[],[],[],[],[],610.0975,612.0974,612.0974,612.0976,[],[],[],[],[],[],[],,,,612.0976,612.0977,0.408866347,-0.01884793,0,0,0,,0,120,120,101,1,3,word,DELICATE,print,delicate_p.png,,,,
,,,,31879,001,2025-10-19_22h05.46.076,HW_LDT_1,2024.2.4,MacIntel,60.24096386,,,,,,,,,,,,,,,,,,,,,,612.0987,612.2974,612.2974,612.7974,,,,,,,,,,,,,,0.8879,1,,,,,,,,,,,,,,m,,,,,,,,,,,,,,,,122,0,612.7979,613.6974,m,1,0.8879,,[],[],[],[],[],[],[],613.6975,615.6972,615.6973,615.6975,[],[],[],[],[],[],[],,,,615.6975,615.6976,0.408866347,-0.01884793,0,0,0,,0,121,121,156,1,3,word,TRIBUTE,print,tribute_p.png,,,,
,,,,31879,001,2025-10-19_22h05.46.076,HW_LDT_1,2024.2.4,MacIntel,60.24096386,,,,,,,,,,,,,,,,,,,,,,615.6985,615.8974,615.8974,616.3973,,,,,,,,,,,,,,0.748,1,,,,,,,,,,,,,,m,,,,,,,,,,,,,,,,123,0,616.3977,617.1473,m,1,0.748,,[],[],[],[],[],[],[],617.1474,619.1472,619.1473,619.1474,[],[],[],[],[],[],[],,,,619.1476,619.1477,0.408866347,-0.01884793,0,0,0,,0,122,122,87,1,3,word,CAFETERIA,print,cafeteria_p.png,,,,
,,,,31879,001,2025-10-19_22h05.46.076,HW_LDT_1,2024.2.4,MacIntel,60.24096386,,,,,,,,,,,,,,,,,,,,,,619.1486,619.3473,619.3473,619.8473,,,,,,,,,,,,,,0.6147,1,,,,,,,,,,,,,,m,,,,,,,,,,,,,,,,124,1,619.8479,620.4641,m,1,0.6147,,[],[],[],[],[],[],[],620.4641,622.464,622.4641,623.9973,[],[],[],[],[],[],[],m,1.5324,,623.9973,623.9974,0.408866347,-0.01884793,0,0,0,,0,123,123,146,1,3,word,RETIRE,print,retire_p.png,,,,
,,,,31879,001,2025-10-19_22h05.46.076,HW_LDT_1,2024.2.4,MacIntel,60.24096386,,,,,,,,,,,,,,,,,,,,,,623.9984,624.1973,624.1974,624.6974,,,,,,,,,,,,,,1.0802,1,,,,,,,,,,,,,,m,,,,,,,,,,,,,,,,125,0,624.6979,625.7802,m,1,1.0802,,[],[],[],[],[],[],[],625.7803,627.7807,627.7807,627.7809,[],[],[],[],[],[],[],,,,627.7809,627.781,0.408866347,-0.01884793,0,0,0,,0,124,124,154,1,3,word,STORAGE,cursive,storage_c.png,,,,
,,,,31879,001,2025-10-19_22h05.46.076,HW_LDT_1,2024.2.4,MacIntel,60.24096386,,,,,,,,,,,,,,,,,,,,,,627.7819,627.9806,627.9807,628.4807,,,,,,,,,,,,,,0.5379,1,,,,,,,,,,,,,,m,,,,,,,,,,,,,,,,126,0,628.4812,629.0307,m,1,0.5379,,[],[],[],[],[],[],[],629.0308,631.0307,631.0308,631.0309,[],[],[],[],[],[],[],,,,631.0309,631.031,0.408866347,-0.01884793,0,0,0,,0,125,125,131,1,3,word,POPULAR,print,popular_p.png,,,,
,,,,31879,001,2025-10-19_22h05.46.076,HW_LDT_1,2024.2.4,MacIntel,60.24096386,,,,,,,,,,,,,,,,,,,,,,631.0322,631.2307,631.2307,631.7307,,,,,,,,,,,,,,0.7049,1,,,,,,,,,,,,,,m,,,,,,,,,,,,,,,,127,0,631.7311,632.4465,m,1,0.7049,,[],[],[],[],[],[],[],632.4466,634.4473,634.4474,634.4476,[],[],[],[],[],[],[],,,,634.4476,634.4476,0.408866347,-0.01884793,0,0,0,,0,126,126,151,1,3,word,SPECIFIC,print,specific_p.png,,,,
,,,,31879,001,2025-10-19_22h05.46.076,HW_LDT_1,2024.2.4,MacIntel,60.24096386,,,,,,,,,,,,,,,,,,,,,,634.4486,634.6473,634.6474,635.1473,,,,,,,,,,,,,,0.9047,0,,,,,,,,,,,,,,m,,,,,,,,,,,,,,,,128,1,635.1477,636.0642,z,0,0.9047,,[],[],[],[],[],[],[],636.0643,638.0639,638.064,640.3807,[],[],[],[],[],[],[],z,2.3053,,640.3808,640.3809,0.408866347,-0.01884793,0,0,0,,0,127,127,99,1,3,word,DEBATE,cursive,debate_c.png,,,,
,,,,31879,001,2025-10-19_22h05.46.076,HW_LDT_1,2024.2.4,MacIntel,60.24096386,,,,,,,,,,,,,,,,,,,,,,640.3819,640.5806,640.5806,641.0807,,,,,,,,,,,,,,0.8799,1,,,,,,,,,,,,,,m,,,,,,,,,,,,,,,,129,0,641.0812,641.9631,m,1,0.8799,,[],[],[],[],[],[],[],641.9631,643.9631,643.9632,643.9634,[],[],[],[],[],[],[],,,,643.9635,643.9635,0.408866347,-0.01884793,0,0,0,,0,128,128,102,1,3,word,DENSITY,print,density_p.png,,,,
,,,,31879,001,2025-10-19_22h05.46.076,HW_LDT_1,2024.2.4,MacIntel,60.24096386,,,,,,,,,,,,,,,,,,,,,,643.9645,644.164,644.164,644.6639,,,,,,,,,,,,,,0.9814,1,,,,,,,,,,,,,,z,,,,,,,,,,,,,,,,130,1,644.6643,645.6472,z,1,0.9814,,[],[],[],[],[],[],[],645.6472,647.6473,647.6474,649.2138,[],[],[],[],[],[],[],m,1.5644,,649.2139,649.214,0.408866347,-0.01884793,0,0,0,,0,129,129,7,1,3,RL,cobeny,print,cobeny_p.png,,,,
,,,,31879,001,2025-10-19_22h05.46.076,HW_LDT_1,2024.2.4,MacIntel,60.24096386,,,,,,,,,,,,,,,,,,,,,,649.2148,649.4139,649.4139,649.914,,,,,,,,,,,,,,0.9215,0,,,,,,,,,,,,,,z,,,,,,,,,,,,,,,,131,0,649.9146,650.8474,m,0,0.9215,,[],[],[],[],[],[],[],650.8474,652.8473,652.8473,652.8475,[],[],[],[],[],[],[],,,,652.8475,652.8476,0.408866347,-0.01884793,0,0,0,,0,130,130,44,1,3,TL,decilate,print,decilate_p.png,,,,
,,,,31879,001,2025-10-19_22h05.46.076,HW_LDT_1,2024.2.4,MacIntel,60.24096386,,,,,,,,,,,,,,,,,,,,,,652.8486,653.0473,653.0473,653.5472,,,,,,,,,,,,,,0.7297,1,,,,,,,,,,,,,,z,,,,,,,,,,,,,,,,132,1,653.5478,654.2806,z,1,0.7297,,[],[],[],[],[],[],[],654.2807,656.2805,656.2806,657.464,[],[],[],[],[],[],[],m,1.1723,,657.4641,657.4642,0.408866347,-0.01884793,0,0,0,,0,131,131,22,1,3,RL,procogal,print,procogal_p.png,,,,
,,,,31879,001,2025-10-19_22h05.46.076,HW_LDT_1,2024.2.4,MacIntel,60.24096386,,,,,,,,,,,,,,,,,,,,,,657.4652,657.6639,657.6639,658.1636,,,,,,,,,,,,,,0.8825,1,,,,,,,,,,,,,,m,,,,,,,,,,,,,,,,133,0,658.1638,659.0472,m,1,0.8825,,[],[],[],[],[],[],[],659.0472,661.0473,661.0473,661.0475,[],[],[],[],[],[],[],,,,661.0476,661.0477,0.408866347,-0.01884793,0,0,0,,0,132,132,80,1,3,word,ACADEMY,print,academy_p.png,,,,
,,,,31879,001,2025-10-19_22h05.46.076,HW_LDT_1,2024.2.4,MacIntel,60.24096386,,,,,,,,,,,,,,,,,,,,,,661.0487,661.2472,661.2473,661.7473,,,,,,,,,,,,,,1.2381,0,,,,,,,,,,,,,,m,,,,,,,,,,,,,,,,134,0,661.7478,662.9973,z,0,1.2381,,[],[],[],[],[],[],[],662.9974,664.9973,664.9973,664.9975,[],[],[],[],[],[],[],,,,664.9975,664.9976,0.408866347,-0.01884793,0,0,0,,0,133,133,128,1,3,word,PACIFIC,cursive,pacific_c.png,,,,
,,,,31879,001,2025-10-19_22h05.46.076,HW_LDT_1,2024.2.4,MacIntel,60.24096386,,,,,,,,,,,,,,,,,,,,,,664.9985,665.1973,665.1973,665.6973,,,,,,,,,,,,,,0.7728,1,,,,,,,,,,,,,,m,,,,,,,,,,,,,,,,135,0,665.6977,666.4806,m,1,0.7728,,[],[],[],[],[],[],[],666.4808,668.4807,668.4807,668.4808,[],[],[],[],[],[],[],,,,668.4808,668.481,0.408866347,-0.01884793,0,0,0,,0,134,134,147,1,3,word,ROMANTIC,cursive,romantic_c.png,,,,
,,,,31879,001,2025-10-19_22h05.46.076,HW_LDT_1,2024.2.4,MacIntel,60.24096386,,,,,,,,,,,,,,,,,,,,,,668.482,668.6806,668.6806,669.1806,,,,,,,,,,,,,,0.855,0,,,,,,,,,,,,,,m,,,,,,,,,,,,,,,,136,1,669.1811,670.0474,z,0,0.855,,[],[],[],[],[],[],[],670.0475,672.0471,672.0471,673.2974,[],[],[],[],[],[],[],m,1.2499,,673.2975,673.2976,0.408866347,-0.01884793,0,0,0,,0,135,135,107,1,3,word,EVIDENT,cursive,evident_c.png,,,,
,,,,31879,001,2025-10-19_22h05.46.076,HW_LDT_1,2024.2.4,MacIntel,60.24096386,,,,,,,,,,,,,,,,,,,,,,673.2985,673.4968,673.4968,673.9973,,,,,,,,,,,,,,2.0217,1,,,,,,,,,,,,,,m,,,,,,,,,,,,,,,,137,0,673.9979,676.0305,m,1,2.0217,,[],[],[],[],[],[],[],676.0306,678.0306,678.0306,678.0307,[],[],[],[],[],[],[],,,,678.0308,678.0309,0.408866347,-0.01884793,0,0,0,,0,136,136,136,1,3,word,RADICAL,cursive,radical_c.png,,,,
,,,,31879,001,2025-10-19_22h05.46.076,HW_LDT_1,2024.2.4,MacIntel,60.24096386,,,,,,,,,,,,,,,,,,,,,,678.0319,678.2305,678.2306,678.7307,,,,,,,,,,,,,,2.1391,1,,,,,,,,,,,,,,z,,,,,,,,,,,,,,,,138,0,678.7311,680.8807,z,1,2.1391,,[],[],[],[],[],[],[],680.8808,682.8801,682.8801,682.8802,[],[],[],[],[],[],[],,,,682.8802,682.8803,0.408866347,-0.01884793,0,0,0,,0,137,137,32,1,3,TL,adacemy,print,adacemy_p.png,,,,
,,,,31879,001,2025-10-19_22h05.46.076,HW_LDT_1,2024.2.4,MacIntel,60.24096386,,,,,,,,,,,,,,,,,,,,,,682.8807,683.0805,683.0806,683.5806,,,,,,,,,,,,,,2.1401,1,,,,,,,,,,,,,,z,,,,,,,,,,,,,,,,139,0,683.5811,685.7306,z,1,2.1401,,[],[],[],[],[],[],[],685.7307,687.7306,687.7307,687.7308,[],[],[],[],[],[],[],,,,687.7308,687.731,0.408866347,-0.01884793,0,0,0,,0,138,138,42,1,3,TL,detabe,cursive,detabe_c.png,,,,
,,,,31879,001,2025-10-19_22h05.46.076,HW_LDT_1,2024.2.4,MacIntel,60.24096386,,,,,,,,,,,,,,,,,,,,,,687.7321,687.9306,687.9306,688.4303,,,,,,,,,,,,,,2.0318,1,,,,,,,,,,,,,,z,,,,,,,,,,,,,,,,140,0,688.4306,690.4638,z,1,2.0318,,[],[],[],[],[],[],[],690.4639,692.4639,692.4639,692.4641,[],[],[],[],[],[],[],,,,692.4641,692.4642,0.408866347,-0.01884793,0,0,0,,0,139,139,29,1,3,RL,selamor,cursive,selamor_c.png,,,,
,,,,31879,001,2025-10-19_22h05.46.076,HW_LDT_1,2024.2.4,MacIntel,60.24096386,,,,,,,,,,,,,,,,,,,,,,692.4654,692.6639,692.6639,693.1638,,,,,,,,,,,,,,3.1316,1,,,,,,,,,,,,,,m,,,,,,,,,,,,,,,,141,0,693.1642,696.2971,m,1,3.1316,,[],[],[],[],[],[],[],696.2973,698.2972,698.2972,698.2974,[],[],[],[],[],[],[],,,,698.2975,698.2976,0.408866347,-0.01884793,0,0,0,,0,140,140,93,1,3,word,CEREMONY,cursive,ceremony_c.png,,,,
,,,,31879,001,2025-10-19_22h05.46.076,HW_LDT_1,2024.2.4,MacIntel,60.24096386,,,,,,,,,,,,,,,,,,,,,,698.2986,698.4972,698.4972,698.9972,,,,,,,,,,,,,,0.9049,1,,,,,,,,,,,,,,m,,,,,,,,,,,,,,,,142,0,698.9977,699.9135,m,1,0.9049,,[],[],[],[],[],[],[],699.9135,701.9138,701.9138,701.914,[],[],[],[],[],[],[],,,,701.914,701.9141,0.408866347,-0.01884793,0,0,0,,0,141,141,141,1,3,word,RELIGION,print,religion_p.png,,,,
,,,,31879,001,2025-10-19_22h05.46.076,HW_LDT_1,2024.2.4,MacIntel,60.24096386,,,,,,,,,,,,,,,,,,,,,,701.915,702.1138,702.1138,702.6139,,,,,,,,,,,,,,1.0886,0,,,,,,,,,,,,,,m,,,,,,,,,,,,,,,,143,1,702.6143,703.7139,z,0,1.0886,,[],[],[],[],[],[],[],703.714,705.7138,705.7138,708.6972,[],[],[],[],[],[],[],m,2.9823,,708.6973,708.6974,0.408866347,-0.01884793,0,0,0,,0,142,142,86,1,3,word,BESIDE,cursive,beside_c.png,,,,
,,,,31879,001,2025-10-19_22h05.46.076,HW_LDT_1,2024.2.4,MacIntel,60.24096386,,,,,,,,,,,,,,,,,,,,,,708.6983,708.8972,708.8972,709.3972,,,,,,,,,,,,,,1.0385,1,,,,,,,,,,,,,,z,,,,,,,,,,,,,,,,144,0,709.3976,710.4473,z,1,1.0385,,[],[],[],[],[],[],[],710.4474,712.4471,712.4471,712.4473,[],[],[],[],[],[],[],,,,712.4473,712.4474,0.408866347,-0.01884793,0,0,0,,0,143,143,62,1,3,TL,prodive,print,prodive_p.png,,,,
,,,,31879,001,2025-10-19_22h05.46.076,HW_LDT_1,2024.2.4,MacIntel,60.24096386,,,,,,,,,,,,,,,,,,,,,,712.4484,712.6472,712.6472,713.1468,,,,,,,,,,,,,,2.5808,0,,,,,,,,,,,,,,z,,,,,,,,,,,,,,,,145,1,713.1472,715.7304,m,0,2.5808,,[],[],[],[],[],[],[],715.7305,717.7304,717.7305,718.9305,[],[],[],[],[],[],[],m,1.1889,,718.9307,718.9308,0.408866347,-0.01884793,0,0,0,,0,144,144,73,1,3,TL,speficic,print,speficic_p.png,,,,
,,,,31879,001,2025-10-19_22h05.46.076,HW_LDT_1,2024.2.4,MacIntel,60.24096386,,,,,,,,,,,,,,,,,,,,,,718.9318,719.1305,719.1306,719.6304,,,,,,,,,,,,,,4.6982,1,,,,,,,,,,,,,,m,,,,,,,,,,,,,,,,146,0,719.6309,724.3305,m,1,4.6982,,[],[],[],[],[],[],[],724.3305,726.3305,726.3305,726.3307,[],[],[],[],[],[],[],,,,726.3307,726.3309,0.408866347,-0.01884793,0,0,0,,0,145,145,109,1,3,word,GRATEFUL,cursive,grateful_c.png,,,,
,,,,31879,001,2025-10-19_22h05.46.076,HW_LDT_1,2024.2.4,MacIntel,60.24096386,,,,,,,,,,,,,,,,,,,,,,726.3318,726.5305,726.5305,727.0304,,,,,,,,,,,,,,1.205,1,,,,,,,,,,,,,,m,,,,,,,,,,,,,,,,147,0,727.0309,728.2472,m,1,1.205,,[],[],[],[],[],[],[],728.2473,730.2473,730.2473,730.2474,[],[],[],[],[],[],[],,,,730.2475,730.2475,0.408866347,-0.01884793,0,0,0,,0,146,146,84,1,3,word,BELOVED,cursive,beloved_c.png,,,,
,,,,31879,001,2025-10-19_22h05.46.076,HW_LDT_1,2024.2.4,MacIntel,60.24096386,,,,,,,,,,,,,,,,,,,,,,730.2485,730.4472,730.4472,730.9472,,,,,,,,,,,,,,0.832,1,,,,,,,,,,,,,,z,,,,,,,,,,,,,,,,148,0,730.9477,731.7804,z,1,0.832,,[],[],[],[],[],[],[],731.7804,733.7804,733.7804,733.7806,[],[],[],[],[],[],[],,,,733.7806,733.7807,0.408866347,-0.01884793,0,0,0,,0,147,147,13,1,3,RL,helicage,cursive,helicage_c.png,,,,
,,,,31879,001,2025-10-19_22h05.46.076,HW_LDT_1,2024.2.4,MacIntel,60.24096386,,,,,,,,,,,,,,,,,,,,,,733.7815,733.9805,733.9805,734.4803,,,,,,,,,,,,,,0.6635,1,,,,,,,,,,,,,,m,,,,,,,,,,,,,,,,149,0,734.4808,735.1461,m,1,0.6635,,[],[],[],[],[],[],[],735.1462,737.1471,737.1471,737.1473,[],[],[],[],[],[],[],,,,737.1473,737.1474,0.408866347,-0.01884793,0,0,0,,0,148,148,98,1,3,word,CRIMINAL,print,criminal_p.png,,,,
,,,,31879,001,2025-10-19_22h05.46.076,HW_LDT_1,2024.2.4,MacIntel,60.24096386,,,,,,,,,,,,,,,,,,,,,,737.1483,737.347,737.3471,737.847,,,,,,,,,,,,,,0.9821,0,,,,,,,,,,,,,,m,,,,,,,,,,,,,,,,150,0,737.8475,738.8304,z,0,0.9821,,[],[],[],[],[],[],[],738.8305,740.8304,740.8304,740.8306,[],[],[],[],[],[],[],,,,740.8306,740.8307,0.408866347,-0.01884793,0,0,0,,0,149,149,123,1,3,word,MODERATE,cursive,moderate_c.png,,,,
,,,,31879,001,2025-10-19_22h05.46.076,HW_LDT_1,2024.2.4,MacIntel,60.24096386,,,,,,,,,,,,,,,,,,,,,,740.8318,741.0304,741.0305,741.5303,,,,,,,,,,,,,,0.8643,1,,,,,,,,,,,,,,z,,,,,,,,,,,,,,,,151,1,741.5309,742.397,z,1,0.8643,,[],[],[],[],[],[],[],742.397,744.3971,744.3971,745.5306,[],[],[],[],[],[],[],m,1.1244,,745.5307,745.5309,0.408866347,-0.01884793,0,0,0,,0,150,150,27,1,3,RL,recile,print,recile_p.png,,,,
,,,,31879,001,2025-10-19_22h05.46.076,HW_LDT_1,2024.2.4,MacIntel,60.24096386,,,,,,,,,,,,,,,,,,,,,,745.5317,745.7304,745.7304,746.2304,,,,,,,,,,,,,,1.3973,1,,,,,,,,,,,,,,z,,,,,,,,,,,,,,,,152,0,746.2309,747.6301,z,1,1.3973,,[],[],[],[],[],[],[],747.6302,749.6304,749.6305,749.6307,[],[],[],[],[],[],[],,,,749.6307,749.6308,0.408866347,-0.01884793,0,0,0,,0,151,151,16,1,3,RL,mishafe,cursive,mishafe_c.png,,,,
,,,,31879,001,2025-10-19_22h05.46.076,HW_LDT_1,2024.2.4,MacIntel,60.24096386,,,,,,,,,,,,,,,,,,,,,,749.6318,749.8304,749.8304,750.3304,,,,,,,,,,,,,,1.0379,1,,,,,,,,,,,,,,z,,,,,,,,,,,,,,,,153,0,750.331,751.3806,z,1,1.0379,,[],[],[],[],[],[],[],751.3806,753.3804,753.3804,753.3807,[],[],[],[],[],[],[],,,,753.3807,753.3808,0.408866347,-0.01884793,0,0,0,,0,152,152,28,1,3,RL,rovastic,cursive,rovastic_c.png,,,,
,,,,31879,001,2025-10-19_22h05.46.076,HW_LDT_1,2024.2.4,MacIntel,60.24096386,,,,,,,,,,,,,,,,,,,,,,753.3817,753.5804,753.5804,754.0805,,,,,,,,,,,,,,0.1552,0,,,,,,,,,,,,,,z,,,,,,,,,,,,,,,,154,0,754.081,754.2471,m,0,0.1552,,[],[],[],[],[],[],[],754.2472,756.2471,756.2472,756.2473,[],[],[],[],[],[],[],,,,756.2474,756.2475,0.408866347,-0.01884793,0,0,0,,0,153,153,65,1,3,TL,resufal,print,resufal_p.png,,,,
,,,,31879,001,2025-10-19_22h05.46.076,HW_LDT_1,2024.2.4,MacIntel,60.24096386,,,,,,,,,,,,,,,,,,,,,,756.2484,756.447,756.4471,756.947,,,,,,,,,,,,,,0.8649,1,,,,,,,,,,,,,,m,,,,,,,,,,,,,,,,155,0,756.9475,757.8136,m,1,0.8649,,[],[],[],[],[],[],[],757.8137,759.8138,759.8138,759.8139,[],[],[],[],[],[],[],,,,759.8139,759.814,0.408866347,-0.01884793,0,0,0,,0,154,154,150,1,3,word,SENTIMENT,print,sentiment_p.png,,,,
,,,,31879,001,2025-10-19_22h05.46.076,HW_LDT_1,2024.2.4,MacIntel,60.24096386,,,,,,,,,,,,,,,,,,,,,,759.8151,760.0137,760.0137,760.5137,,,,,,,,,,,,,,2.5889,1,,,,,,,,,,,,,,m,,,,,,,,,,,,,,,,156,0,760.5143,763.1137,m,1,2.5889,,[],[],[],[],[],[],[],763.1139,765.1137,765.1137,765.1139,[],[],[],[],[],[],[],,,,765.114,765.1141,0.408866347,-0.01884793,0,0,0,,0,155,155,89,1,3,word,CAPACITY,cursive,capacity_c.png,,,,
,,,,31879,001,2025-10-19_22h05.46.076,HW_LDT_1,2024.2.4,MacIntel,60.24096386,,,,,,,,,,,,,,,,,,,,,,765.1151,765.3132,765.3133,765.8138,,,,,,,,,,,,,,0.8823,1,,,,,,,,,,,,,,z,,,,,,,,,,,,,,,,157,0,765.8143,766.6973,z,1,0.8823,,[],[],[],[],[],[],[],766.6974,768.697,768.6971,768.6973,[],[],[],[],[],[],[],,,,768.6973,768.6974,0.408866347,-0.01884793,0,0,0,,0,156,156,36,1,3,TL,carema,cursive,carema_c.png,,,,
,,,,31879,001,2025-10-19_22h05.46.076,HW_LDT_1,2024.2.4,MacIntel,60.24096386,,,,,,,,,,,,,,,,,,,,,,768.6986,768.897,768.8971,769.3968,,,,,,,,,,,,,,0.8306,1,,,,,,,,,,,,,,m,,,,,,,,,,,,,,,,158,0,769.3973,770.2303,m,1,0.8306,,[],[],[],[],[],[],[],770.2304,772.2304,772.2305,772.2306,[],[],[],[],[],[],[],,,,772.2307,772.2307,0.408866347,-0.01884793,0,0,0,,0,157,157,96,1,3,word,CONSIDER,print,consider_p.png,,,,
,,,,31879,001,2025-10-19_22h05.46.076,HW_LDT_1,2024.2.4,MacIntel,60.24096386,,,,,,,,,,,,,,,,,,,,,,772.2319,772.4304,772.4305,772.9303,,,,,,,,,,,,,,0.6817,1,,,,,,,,,,,,,,m,,,,,,,,,,,,,,,,159,0,772.9308,773.6137,m,1,0.6817,,[],[],[],[],[],[],[],773.6138,775.6136,775.6137,775.614,[],[],[],[],[],[],[],,,,775.614,775.6141,0.418396282,-0.020470358,0,0,0,,0,158,158,85,1,3,word,BENEFIT,print,benefit_p.png,,,,
,,,,31879,001,2025-10-19_22h05.46.076,HW_LDT_1,2024.2.4,MacIntel,60.24096386,,,,,,,,,,,,,,,,,,,,,,775.615,775.8136,775.8137,776.3137,,,,,,,,,,,,,,2.288,0,,,,,,,,,,,,,,z,,,,,,,,,,,,,,,,160,0,776.3143,778.6138,m,0,2.288,,[],[],[],[],[],[],[],778.6139,780.6135,780.6137,780.6137,[],[],[],[],[],[],[],,,,780.6138,780.6139,0.418396282,-0.020470358,0,0,0,,0,159,159,58,1,3,TL,nuremical,print,nuremical_p.png,,,,
,,,,31879,001,2025-10-19_22h05.46.076,HW_LDT_1,2024.2.4,MacIntel,60.24096386,,,,,,,,,,,,,,,,,,,,,,,,,,,,,,,,,,,,,,,,,,,,,,,,,,,,,,,,,,,,,,,,,,,,,,,,,,,,,,,,,,,,,,,,,,,,,,,,,,,,,,,,,,,,,,,,,,,,,,,780.6197,785.614
