counterbalance_lists.group,counterbalance_lists.remaining,get_list.started,get_list.stopped,participant,session,date,expName,psychopyVersion,OS,frameRate,Instructions.started,Instructions.stopped,key_resp.keys,instr_done_touch.x,instr_done_touch.y,instr_done_touch.leftButton,instr_done_touch.midButton,instr_done_touch.rightButton,instr_done_touch.clicked_name,start_instr.thisRepN,start_instr.thisTrialN,start_instr.thisN,start_instr.thisIndex,start_instr.ran,pageN,phase,instruct_text,has_image,instruct_image,key_resp.rt,key_resp.duration,showProgress.started,showProgress.stopped,fix.started,fix.stopped,prac.started,prac.stopped,response.keys,response.corr,response.rt,response.duration,touch_resp.x,touch_resp.y,touch_resp.leftButton,touch_resp.midButton,touch_resp.rightButton,touch_resp.time,touch_resp.clicked_name,rt,corr,feedback.started,feedback.stopped,trials.thisRepN,trials.thisTrialN,trials.thisN,trials.thisIndex,trials.ran,TrialID,StimulusType,Condition,PrimeDuration,Prime,Target,corrAns,Instructions_expt.started,Instructions_expt.stopped,key_resp_3.keys,instr_done_touch_3.x,instr_done_touch_3.y,instr_done_touch_3.leftButton,instr_done_touch_3.midButton,instr_done_touch_3.rightButton,instr_done_touch_3.clicked_name,instr_experiment.thisRepN,instr_experiment.thisTrialN,instr_experiment.thisN,instr_experiment.thisIndex,instr_experiment.ran,trialID,flag,maintask.started,maintask.stopped,key_resp_2.keys,key_resp_2.corr,key_resp_2.rt,key_resp_2.duration,targ_click.x,targ_click.y,targ_click.leftButton,targ_click.midButton,targ_click.rightButton,targ_click.time,targ_click.clicked_name,ITI.started,ITI.stopped,probe.started,probe.stopped,click_probe.x,click_probe.y,click_probe.leftButton,click_probe.midButton,click_probe.rightButton,click_probe.time,click_probe.clicked_name,key_resp_probe.keys,Break.started,Break.stopped,break_done_touch.x,break_done_touch.y,break_done_touch.leftButton,break_done_touch.midButton,break_done_touch.rightButton,break_done_keyboard.keys,list1_trials.thisRepN,list1_trials.thisTrialN,list1_trials.thisN,list1_trials.thisIndex,list1_trials.ran,list_id,item_type,string,font,stim_file,key_resp_probe.rt,key_resp_probe.duration,break_done_touch.clicked_name,End.started,End.stopped
list1,,0.4444,0.4446,31889,001,2025-10-21_20h25.32.791,HW_LDT_1,2024.2.4,MacIntel,58.47953216,,,,,,,,,,,,,,,,,,,,,,,,,,,,,,,,,,,,,,,,,,,,,,,,,,,,,,,,,,,,,,,,,,,,,,,,,,,,,,,,,,,,,,,,,,,,,,,,,,,,,,,,,,,,,,,,,,,,,,
,,,,31889,001,2025-10-21_20h25.32.791,HW_LDT_1,2024.2.4,MacIntel,58.47953216,0.4633,28.7787,,-0.076539547,-0.379526829,1,0,0,instr_done_button,0,0,0,0,1,1,instructions,"INSTRUCTIONS
At the start of each trial, look at the plus sign  (+) in the center of the screen.  This tells you that a trial is about to begin and where to look. Second, the plus sign will disappear and a string of letters will appear. Your task is to determine if the string of letters is a word or not. If the item is a word press the M key (on keyboard)  or touch the word button (phone/tablet).  If the item is not a word,  press the  Z key (on keyboard)  or touch the nonword button (on phone/tablet). The items will be presented for a short time. 
Press the space bar or touch  continue.",0,,,,,,,,,,,,,,,,,,,,,,,,,,,,,,,,,,,,,,,,,,,,,,,,,,,,,,,,,,,,,,,,,,,,,,,,,,,,,,,,,,,,,,,,,,,,,,,,,,,,
,,,,31889,001,2025-10-21_20h25.32.791,HW_LDT_1,2024.2.4,MacIntel,58.47953216,28.7806,33.3461,space,-0.076539547,-0.379526829,0,0,0,,0,1,1,1,1,2,instructions,"If your device has a keyboard, press the 'Z' key for nonwords and the 'M' key for words.





Press the space bar or touch the button below to continue.",0,keyboard-example.gif,4.5474,,,,,,,,,,,,,,,,,,,,,,,,,,,,,,,,,,,,,,,,,,,,,,,,,,,,,,,,,,,,,,,,,,,,,,,,,,,,,,,,,,,,,,,,,,,,,,,,,,
,,,,31889,001,2025-10-21_20h25.32.791,HW_LDT_1,2024.2.4,MacIntel,58.47953216,33.3475,37.3109,space,-0.075476911,-0.380835997,0,0,0,,0,2,2,2,1,3,instructions,"If you are using a touchscreen only device, use the buttons on the screen. Do not use the mouse.





Press the space bar or touch the button below to continue.",0,touchscreen-example.gif,3.9378,,,,,,,,,,,,,,,,,,,,,,,,,,,,,,,,,,,,,,,,,,,,,,,,,,,,,,,,,,,,,,,,,,,,,,,,,,,,,,,,,,,,,,,,,,,,,,,,,,
,,,,31889,001,2025-10-21_20h25.32.791,HW_LDT_1,2024.2.4,MacIntel,58.47953216,37.313,47.7616,space,-0.075476911,-0.380835997,0,0,0,,0,3,3,3,1,4,instructions,"It is very important that you respond as quickly and accurately as possible, as each letter string will only be on the screen for two seconds. If you do not respond within this time, the message 'Too slow!' will be displayed and the experiment will progress to the next letter string. The first 20 trials will be practice trials and you will receive feedback on your answers. 

Press the space bar or touch the button below to start the practice trials.",0,,10.4173,,,,,,,,,,,,,,,,,,,,,,,,,,,,,,,,,,,,,,,,,,,,,,,,,,,,,,,,,,,,,,,,,,,,,,,,,,,,,,,,,,,,,,,,,,,,,,,,,,
,,,,31889,001,2025-10-21_20h25.32.791,HW_LDT_1,2024.2.4,MacIntel,58.47953216,,,,,,,,,,,,,,,,,,,,,,47.7887,47.9604,47.9608,48.4613,48.4617,49.5447,m,1,1.063,,[],[],[],[],[],[],[],1.063,1,49.545,50.0447,0,0,0,4,1,1005,WORD,UN,33,abound,SQUEAK,m,,,,,,,,,,,,,,,,,,,,,,,,,,,,,,,,,,,,,,,,,,,,,,,,,,,,,,,,,,,,,,,,
,,,,31889,001,2025-10-21_20h25.32.791,HW_LDT_1,2024.2.4,MacIntel,58.47953216,,,,,,,,,,,,,,,,,,,,,,50.0462,50.2444,50.2445,50.7434,50.7446,52.2945,z,1,1.5289,,[],[],[],[],[],[],[],1.5289,1,52.2947,52.7944,0,1,1,8,1,1009,NW,"ID",33,aslert,ASLERT,z,,,,,,,,,,,,,,,,,,,,,,,,,,,,,,,,,,,,,,,,,,,,,,,,,,,,,,,,,,,,,,,,
,,,,31889,001,2025-10-21_20h25.32.791,HW_LDT_1,2024.2.4,MacIntel,58.47953216,,,,,,,,,,,,,,,,,,,,,,52.796,52.9942,52.9943,53.4944,53.4954,54.3277,z,1,0.8074,,[],[],[],[],[],[],[],0.8074,1,54.3279,54.8278,0,2,2,11,1,1012,NW,"ID",16,rashet,RASHET,z,,,,,,,,,,,,,,,,,,,,,,,,,,,,,,,,,,,,,,,,,,,,,,,,,,,,,,,,,,,,,,,,
,,,,31889,001,2025-10-21_20h25.32.791,HW_LDT_1,2024.2.4,MacIntel,58.47953216,,,,,,,,,,,,,,,,,,,,,,54.8292,55.0277,55.0277,55.5277,55.5287,56.2103,m,1,0.6612,,[],[],[],[],[],[],[],0.6612,1,56.2104,56.71,0,3,3,5,1,1006,WORD,UN,33,frenzy,OBTAIN,m,,,,,,,,,,,,,,,,,,,,,,,,,,,,,,,,,,,,,,,,,,,,,,,,,,,,,,,,,,,,,,,,
,,,,31889,001,2025-10-21_20h25.32.791,HW_LDT_1,2024.2.4,MacIntel,58.47953216,,,,,,,,,,,,,,,,,,,,,,56.7115,56.9112,56.9113,57.4101,57.4111,58.2278,z,1,0.795,,[],[],[],[],[],[],[],0.795,1,58.228,58.7277,0,4,4,13,1,1014,NW,UN,33,winfer,ROUPET,z,,,,,,,,,,,,,,,,,,,,,,,,,,,,,,,,,,,,,,,,,,,,,,,,,,,,,,,,,,,,,,,,
,,,,31889,001,2025-10-21_20h25.32.791,HW_LDT_1,2024.2.4,MacIntel,58.47953216,,,,,,,,,,,,,,,,,,,,,,58.7292,58.9277,58.9277,59.4276,59.4289,60.0948,m,1,0.6565,,[],[],[],[],[],[],[],0.6565,1,60.095,60.5945,0,5,5,3,1,1004,WORD,"ID",16,matrix,MATRIX,m,,,,,,,,,,,,,,,,,,,,,,,,,,,,,,,,,,,,,,,,,,,,,,,,,,,,,,,,,,,,,,,,
,,,,31889,001,2025-10-21_20h25.32.791,HW_LDT_1,2024.2.4,MacIntel,58.47953216,,,,,,,,,,,,,,,,,,,,,,60.5961,60.7944,60.7945,61.2943,61.2953,62.2111,z,1,0.8949,,[],[],[],[],[],[],[],0.8949,1,62.2114,62.7101,0,6,6,9,1,1010,NW,"ID",33,fariny,FARINY,z,,,,,,,,,,,,,,,,,,,,,,,,,,,,,,,,,,,,,,,,,,,,,,,,,,,,,,,,,,,,,,,,
,,,,31889,001,2025-10-21_20h25.32.791,HW_LDT_1,2024.2.4,MacIntel,58.47953216,,,,,,,,,,,,,,,,,,,,,,62.7115,62.9111,62.9112,63.41,63.4111,64.2278,z,1,0.7984,,[],[],[],[],[],[],[],0.7984,1,64.2279,64.7277,0,7,7,15,1,1016,NW,UN,16,mushed,WHAISE,z,,,,,,,,,,,,,,,,,,,,,,,,,,,,,,,,,,,,,,,,,,,,,,,,,,,,,,,,,,,,,,,,
,,,,31889,001,2025-10-21_20h25.32.791,HW_LDT_1,2024.2.4,MacIntel,58.47953216,,,,,,,,,,,,,,,,,,,,,,64.7291,64.9267,64.9268,65.4267,65.4275,66.311,z,1,0.8635,,[],[],[],[],[],[],[],0.8635,1,66.3113,66.8111,0,8,8,10,1,1011,NW,"ID",16,inlade,INLADE,z,,,,,,,,,,,,,,,,,,,,,,,,,,,,,,,,,,,,,,,,,,,,,,,,,,,,,,,,,,,,,,,,
,,,,31889,001,2025-10-21_20h25.32.791,HW_LDT_1,2024.2.4,MacIntel,58.47953216,,,,,,,,,,,,,,,,,,,,,,66.8127,67.0109,67.011,67.5109,67.5119,68.3277,z,1,0.7995,,[],[],[],[],[],[],[],0.7995,1,68.3279,68.8267,0,9,9,14,1,1015,NW,UN,16,miaber,THRALE,z,,,,,,,,,,,,,,,,,,,,,,,,,,,,,,,,,,,,,,,,,,,,,,,,,,,,,,,,,,,,,,,,
,,,,31889,001,2025-10-21_20h25.32.791,HW_LDT_1,2024.2.4,MacIntel,58.47953216,,,,,,,,,,,,,,,,,,,,,,68.8281,69.0276,69.0278,69.5267,69.5276,70.1444,m,1,0.6,,[],[],[],[],[],[],[],0.6,1,70.1446,70.6445,0,10,10,6,1,1007,WORD,UN,16,tropic,ZOMBIE,m,,,,,,,,,,,,,,,,,,,,,,,,,,,,,,,,,,,,,,,,,,,,,,,,,,,,,,,,,,,,,,,,
,,,,31889,001,2025-10-21_20h25.32.791,HW_LDT_1,2024.2.4,MacIntel,58.47953216,,,,,,,,,,,,,,,,,,,,,,70.6459,70.8433,70.8434,71.3443,71.3452,72.2445,z,1,0.8902,,[],[],[],[],[],[],[],0.8902,1,72.2446,72.7446,0,11,11,12,1,1013,NW,UN,33,adveil,SPRINY,z,,,,,,,,,,,,,,,,,,,,,,,,,,,,,,,,,,,,,,,,,,,,,,,,,,,,,,,,,,,,,,,,
,,,,31889,001,2025-10-21_20h25.32.791,HW_LDT_1,2024.2.4,MacIntel,58.47953216,,,,,,,,,,,,,,,,,,,,,,72.7461,72.9443,72.9444,73.4442,73.4451,74.1277,m,1,0.6613,,[],[],[],[],[],[],[],0.6613,1,74.1279,74.6269,0,12,12,2,1,1003,WORD,"ID",16,almond,ALMOND,m,,,,,,,,,,,,,,,,,,,,,,,,,,,,,,,,,,,,,,,,,,,,,,,,,,,,,,,,,,,,,,,,
,,,,31889,001,2025-10-21_20h25.32.791,HW_LDT_1,2024.2.4,MacIntel,58.47953216,,,,,,,,,,,,,,,,,,,,,,74.6283,74.8276,74.8277,75.3276,75.3287,75.9946,m,1,0.6561,,[],[],[],[],[],[],[],0.6561,1,75.9948,76.4943,0,13,13,0,1,1001,WORD,"ID",33,utopia,UTOPIA,m,,,,,,,,,,,,,,,,,,,,,,,,,,,,,,,,,,,,,,,,,,,,,,,,,,,,,,,,,,,,,,,,
,,,,31889,001,2025-10-21_20h25.32.791,HW_LDT_1,2024.2.4,MacIntel,58.47953216,,,,,,,,,,,,,,,,,,,,,,76.4958,76.6943,76.6944,77.1944,77.1954,77.7268,m,1,0.5128,,[],[],[],[],[],[],[],0.5128,1,77.7269,78.2267,0,14,14,7,1,1008,WORD,UN,16,hurdle,VOLUME,m,,,,,,,,,,,,,,,,,,,,,,,,,,,,,,,,,,,,,,,,,,,,,,,,,,,,,,,,,,,,,,,,
,,,,31889,001,2025-10-21_20h25.32.791,HW_LDT_1,2024.2.4,MacIntel,58.47953216,,,,,,,,,,,,,,,,,,,,,,78.2282,78.4277,78.4278,78.9266,78.9277,79.561,m,1,0.6209,,[],[],[],[],[],[],[],0.6209,1,79.5611,80.0601,0,15,15,1,1,1002,WORD,"ID",33,adjust,ADJUST,m,,,,,,,,,,,,,,,,,,,,,,,,,,,,,,,,,,,,,,,,,,,,,,,,,,,,,,,,,,,,,,,,
,,,,31889,001,2025-10-21_20h25.32.791,HW_LDT_1,2024.2.4,MacIntel,58.47953216,,,,,,,,,,,,,,,1,end_of_practice,"You have completed the practice trials. During the experimental trials, you will not receive feedback. On some trials you will be asked to report whether the item you just saw was in cursive or print. 
Before you begin, please ensure that you are in a comfortable and quiet location and will not be disturbed for about 15 minutes, as we cannot use your data if you do not complete all the trials. 
 When you are ready to start the experimental trials, please press space or touch the button below.",,,,,,,,,,,,,,,,,,,,,,,,,,,,,,,,,,,,,,80.0661,90.6609,,-0.046943009,-0.380100653,1,0,0,instr_done_button_3,0,0,0,0,1,,,,,,,,,,,,,,,,,,,,,,,,,,,,,,,,,,,,,,,,,,,,,,,,,,
,,,,31889,001,2025-10-21_20h25.32.791,HW_LDT_1,2024.2.4,MacIntel,58.47953216,,,,,,,,,,,,,,,,,,,,,,90.6696,90.861,90.861,91.3609,,,,,,,,,,,,,,1.6138,1,,,,,,,,,,,,,,z,,,,,,,,,,,,,,,1,0,91.3622,92.9784,z,1,1.6138,,[],[],[],[],[],[],[],92.9787,94.9779,94.9782,94.9813,[],[],[],[],[],[],[],,94.9814,94.9829,-0.047287303,-0.370970484,0,0,0,,0,0,0,4,1,1,RL,carminal,print,carminal_p.png,,,,,
,,,,31889,001,2025-10-21_20h25.32.791,HW_LDT_1,2024.2.4,MacIntel,58.47953216,,,,,,,,,,,,,,,,,,,,,,94.9836,95.1777,95.1777,95.6777,,,,,,,,,,,,,,2.0563,0,,,,,,,,,,,,,,m,,,,,,,,,,,,,,,2,0,95.6783,97.7444,z,0,2.0563,,[],[],[],[],[],[],[],97.7445,99.7443,99.7444,99.7446,[],[],[],[],[],[],[],,99.7448,99.7449,-0.047287303,-0.370970484,0,0,0,,0,1,1,105,1,1,word,EDITOR,cursive,editor_c.png,,,,,
,,,,31889,001,2025-10-21_20h25.32.791,HW_LDT_1,2024.2.4,MacIntel,58.47953216,,,,,,,,,,,,,,,,,,,,,,99.746,99.9433,99.9434,100.4433,,,,,,,,,,,,,,1.0645,1,,,,,,,,,,,,,,z,,,,,,,,,,,,,,,3,0,100.444,101.5101,z,1,1.0645,,[],[],[],[],[],[],[],101.5102,103.5111,103.5112,103.5115,[],[],[],[],[],[],[],,103.5115,103.5117,-0.047287303,-0.370970484,0,0,0,,0,2,2,70,1,1,TL,relugar,print,relugar_p.png,,,,,
,,,,31889,001,2025-10-21_20h25.32.791,HW_LDT_1,2024.2.4,MacIntel,58.47953216,,,,,,,,,,,,,,,,,,,,,,103.5129,103.7101,103.7101,104.211,,,,,,,,,,,,,,0.8874,1,,,,,,,,,,,,,,m,,,,,,,,,,,,,,,4,0,104.2117,105.111,m,1,0.8874,,[],[],[],[],[],[],[],105.1111,107.11,107.1101,107.1104,[],[],[],[],[],[],[],,107.1105,107.1107,-0.047287303,-0.370970484,0,0,0,,0,3,3,122,1,1,word,MOBILE,cursive,mobile_c.png,,,,,
,,,,31889,001,2025-10-21_20h25.32.791,HW_LDT_1,2024.2.4,MacIntel,58.47953216,,,,,,,,,,,,,,,,,,,,,,107.1121,107.31,107.3101,107.8109,,,,,,,,,,,,,,0.7797,1,,,,,,,,,,,,,,z,,,,,,,,,,,,,,,5,0,107.8116,108.5944,z,1,0.7797,,[],[],[],[],[],[],[],108.5945,110.5943,110.5944,110.5947,[],[],[],[],[],[],[],,110.5948,110.5949,-0.047287303,-0.370970484,0,0,0,,0,4,4,24,1,1,RL,probice,print,probice_p.png,,,,,
,,,,31889,001,2025-10-21_20h25.32.791,HW_LDT_1,2024.2.4,MacIntel,58.47953216,,,,,,,,,,,,,,,,,,,,,,110.5961,110.7943,110.7944,111.2943,,,,,,,,,,,,,,0.6529,1,,,,,,,,,,,,,,m,,,,,,,,,,,,,,,6,0,111.295,111.9612,m,1,0.6529,,[],[],[],[],[],[],[],111.9614,113.9601,113.9601,113.9605,[],[],[],[],[],[],[],,113.9606,113.9608,-0.047287303,-0.370970484,0,0,0,,0,5,5,128,1,1,word,PACIFIC,print,pacific_p.png,,,,,
,,,,31889,001,2025-10-21_20h25.32.791,HW_LDT_1,2024.2.4,MacIntel,58.47953216,,,,,,,,,,,,,,,,,,,,,,113.9622,114.1609,114.161,114.6609,,,,,,,,,,,,,,1.8554,0,,,,,,,,,,,,,,m,,,,,,,,,,,,,,,7,0,114.6616,116.528,z,0,1.8554,,[],[],[],[],[],[],[],116.5282,118.5276,118.5278,118.5281,[],[],[],[],[],[],[],,118.5281,118.5283,-0.047287303,-0.370970484,0,0,0,,0,6,6,125,1,1,word,OPERATOR,cursive,operator_c.png,,,,,
,,,,31889,001,2025-10-21_20h25.32.791,HW_LDT_1,2024.2.4,MacIntel,58.47953216,,,,,,,,,,,,,,,,,,,,,,118.5295,118.7276,118.7277,119.2267,,,,,,,,,,,,,,2.0915,1,,,,,,,,,,,,,,z,,,,,,,,,,,,,,,8,0,119.2274,121.3276,z,1,2.0915,,[],[],[],[],[],[],[],121.3278,123.3277,123.3277,123.328,[],[],[],[],[],[],[],,123.3281,123.3282,-0.047287303,-0.370970484,0,0,0,,0,7,7,58,1,1,TL,incidate,cursive,incidate_c.png,,,,,
,,,,31889,001,2025-10-21_20h25.32.791,HW_LDT_1,2024.2.4,MacIntel,58.47953216,,,,,,,,,,,,,,,,,,,,,,123.3294,123.5267,123.5267,124.0276,,,,,,,,,,,,,,0.9551,1,,,,,,,,,,,,,,m,,,,,,,,,,,,,,,9,0,124.0282,124.9944,m,1,0.9551,,[],[],[],[],[],[],[],124.9945,126.9934,126.9934,126.9936,[],[],[],[],[],[],[],,126.9937,126.9938,-0.047287303,-0.370970484,0,0,0,,0,8,8,119,1,1,word,MEMORY,cursive,memory_c.png,,,,,
,,,,31889,001,2025-10-21_20h25.32.791,HW_LDT_1,2024.2.4,MacIntel,58.47953216,,,,,,,,,,,,,,,,,,,,,,126.995,127.1934,127.1935,127.6944,,,,,,,,,,,,,,0.8549,1,,,,,,,,,,,,,,z,,,,,,,,,,,,,,,10,0,127.695,128.5611,z,1,0.8549,,[],[],[],[],[],[],[],128.5612,130.56,130.5601,130.5604,[],[],[],[],[],[],[],,130.5605,130.5606,-0.047287303,-0.370970484,0,0,0,,0,9,9,19,1,1,RL,monebate,print,monebate_p.png,,,,,
,,,,31889,001,2025-10-21_20h25.32.791,HW_LDT_1,2024.2.4,MacIntel,58.47953216,,,,,,,,,,,,,,,,,,,,,,130.5618,130.76,130.76,131.26,,,,,,,,,,,,,,0.7142,1,,,,,,,,,,,,,,m,,,,,,,,,,,,,,,11,0,131.2606,131.9778,m,1,0.7142,,[],[],[],[],[],[],[],131.9778,133.9776,133.9776,133.978,[],[],[],[],[],[],[],,133.9781,133.9782,-0.047287303,-0.370970484,0,0,0,,0,10,10,117,1,1,word,MARINE,print,marine_p.png,,,,,
,,,,31889,001,2025-10-21_20h25.32.791,HW_LDT_1,2024.2.4,MacIntel,58.47953216,,,,,,,,,,,,,,,,,,,,,,133.9794,134.1776,134.1776,134.6776,,,,,,,,,,,,,,1.3541,1,,,,,,,,,,,,,,m,,,,,,,,,,,,,,,12,0,134.6782,136.0435,m,1,1.3541,,[],[],[],[],[],[],[],136.0436,138.0443,138.0444,138.0446,[],[],[],[],[],[],[],,138.0447,138.0448,-0.047287303,-0.370970484,0,0,0,,0,11,11,145,1,1,word,RESUME,print,resume_p.png,,,,,
,,,,31889,001,2025-10-21_20h25.32.791,HW_LDT_1,2024.2.4,MacIntel,58.47953216,,,,,,,,,,,,,,,,,,,,,,138.046,138.2443,138.2443,138.7444,,,,,,,,,,,,,,1.0367,1,,,,,,,,,,,,,,z,,,,,,,,,,,,,,,13,0,138.7449,139.7935,z,1,1.0367,,[],[],[],[],[],[],[],139.7936,141.7943,141.7944,141.7945,[],[],[],[],[],[],[],,141.7946,141.7948,-0.047287303,-0.370970484,0,0,0,,0,12,12,15,1,1,RL,losipal,cursive,losipal_c.png,,,,,
,,,,31889,001,2025-10-21_20h25.32.791,HW_LDT_1,2024.2.4,MacIntel,58.47953216,,,,,,,,,,,,,,,,,,,,,,141.7961,141.9944,141.9944,142.4943,,,,,,,,,,,,,,0.6371,1,,,,,,,,,,,,,,m,,,,,,,,,,,,,,,14,0,142.4949,143.1444,m,1,0.6371,,[],[],[],[],[],[],[],143.1446,145.1433,145.1434,145.1437,[],[],[],[],[],[],[],,145.1438,145.1439,-0.047287303,-0.370970484,0,0,0,,0,13,13,94,1,1,word,CLINICAL,cursive,clinical_c.png,,,,,
,,,,31889,001,2025-10-21_20h25.32.791,HW_LDT_1,2024.2.4,MacIntel,58.47953216,,,,,,,,,,,,,,,,,,,,,,145.1452,145.3442,145.3443,145.8433,,,,,,,,,,,,,,1.522,1,,,,,,,,,,,,,,z,,,,,,,,,,,,,,,15,0,145.844,147.3777,z,1,1.522,,[],[],[],[],[],[],[],147.3778,149.3776,149.3776,149.3779,[],[],[],[],[],[],[],,149.3779,149.3781,-0.047287303,-0.370970484,0,0,0,,0,14,14,61,1,1,TL,mecidine,cursive,mecidine_c.png,,,,,
,,,,31889,001,2025-10-21_20h25.32.791,HW_LDT_1,2024.2.4,MacIntel,58.47953216,,,,,,,,,,,,,,,,,,,,,,149.3793,149.5767,149.5768,150.0767,,,,,,,,,,,,,,0.8216,1,,,,,,,,,,,,,,z,,,,,,,,,,,,,,,16,0,150.0773,150.911,z,1,0.8216,,[],[],[],[],[],[],[],150.9111,152.9109,152.9111,152.9113,[],[],[],[],[],[],[],,152.9114,152.9115,-0.047287303,-0.370970484,0,0,0,,0,15,15,16,1,1,RL,marmipal,print,marmipal_p.png,,,,,
,,,,31889,001,2025-10-21_20h25.32.791,HW_LDT_1,2024.2.4,MacIntel,58.47953216,,,,,,,,,,,,,,,,,,,,,,152.9128,153.1109,153.1109,153.6105,,,,,,,,,,,,,,0.671,1,,,,,,,,,,,,,,m,,,,,,,,,,,,,,,17,0,153.6111,154.2944,m,1,0.671,,[],[],[],[],[],[],[],154.2944,156.2934,156.2934,156.2935,[],[],[],[],[],[],[],,156.2936,156.2938,-0.047287303,-0.370970484,0,0,0,,0,16,16,95,1,1,word,COMEDY,cursive,comedy_c.png,,,,,
,,,,31889,001,2025-10-21_20h25.32.791,HW_LDT_1,2024.2.4,MacIntel,58.47953216,,,,,,,,,,,,,,,,,,,,,,156.295,156.4943,156.4944,156.9943,,,,,,,,,,,,,,0.6079,1,,,,,,,,,,,,,,m,,,,,,,,,,,,,,,18,0,156.9948,157.6109,m,1,0.6079,,[],[],[],[],[],[],[],157.6111,159.61,159.6101,159.6103,[],[],[],[],[],[],[],,159.6104,159.6104,-0.047287303,-0.370970484,0,0,0,,0,17,17,153,1,1,word,STOLEN,print,stolen_p.png,,,,,
,,,,31889,001,2025-10-21_20h25.32.791,HW_LDT_1,2024.2.4,MacIntel,58.47953216,,,,,,,,,,,,,,,,,,,,,,159.6118,159.81,159.81,160.31,,,,,,,,,,,,,,0.8663,1,,,,,,,,,,,,,,z,,,,,,,,,,,,,,,19,1,160.3107,161.1779,z,1,0.8663,,[],[],[],[],[],[],[],161.178,163.1767,163.1768,165.3101,[],[],[],[],[],[],[],z,165.3102,165.3104,-0.047287303,-0.370970484,0,0,0,,0,18,18,3,1,1,RL,casena,cursive,casena_c.png,2.1301,,,,
,,,,31889,001,2025-10-21_20h25.32.791,HW_LDT_1,2024.2.4,MacIntel,58.47953216,,,,,,,,,,,,,,,,,,,,,,165.3115,165.51,165.5101,166.01,,,,,,,,,,,,,,2.5906,0,,,,,,,,,,,,,,m,,,,,,,,,,,,,,,20,0,166.0107,168.6103,z,0,2.5906,,[],[],[],[],[],[],[],168.6104,170.6109,170.611,170.6112,[],[],[],[],[],[],[],,170.6112,170.6114,-0.047287303,-0.370970484,0,0,0,,0,19,19,103,1,1,word,DISPUTE,cursive,dispute_c.png,,,,,
,,,,31889,001,2025-10-21_20h25.32.791,HW_LDT_1,2024.2.4,MacIntel,58.47953216,,,,,,,,,,,,,,,,,,,,,,170.6124,170.81,170.8101,171.3109,,,,,,,,,,,,,,1.0037,1,,,,,,,,,,,,,,z,,,,,,,,,,,,,,,21,0,171.3115,172.3276,z,1,1.0037,,[],[],[],[],[],[],[],172.3278,174.3276,174.3276,174.3279,[],[],[],[],[],[],[],,174.328,174.3281,-0.047287303,-0.370970484,0,0,0,,0,20,20,40,1,1,TL,atameur,print,atameur_p.png,,,,,
,,,,31889,001,2025-10-21_20h25.32.791,HW_LDT_1,2024.2.4,MacIntel,58.47953216,,,,,,,,,,,,,,,,,,,,,,174.3292,174.5276,174.5276,175.0275,,,,,,,,,,,,,,0.5876,1,,,,,,,,,,,,,,z,,,,,,,,,,,,,,,22,0,175.0282,175.6277,z,1,0.5876,,[],[],[],[],[],[],[],175.6278,177.6277,177.6277,177.628,[],[],[],[],[],[],[],,177.6281,177.6282,-0.047287303,-0.370970484,0,0,0,,0,21,21,34,1,1,RL,samite,print,samite_p.png,,,,,
,,,,31889,001,2025-10-21_20h25.32.791,HW_LDT_1,2024.2.4,MacIntel,58.47953216,,,,,,,,,,,,,,,,,,,,,,177.6295,177.8267,177.8267,178.3266,,,,,,,,,,,,,,1.1713,1,,,,,,,,,,,,,,m,,,,,,,,,,,,,,,23,0,178.3273,179.5112,m,1,1.1713,,[],[],[],[],[],[],[],179.5113,181.51,181.5101,181.5103,[],[],[],[],[],[],[],,181.5104,181.5104,-0.047287303,-0.370970484,0,0,0,,0,22,22,137,1,1,word,RAPIDLY,cursive,rapidly_c.png,,,,,
,,,,31889,001,2025-10-21_20h25.32.791,HW_LDT_1,2024.2.4,MacIntel,58.47953216,,,,,,,,,,,,,,,,,,,,,,181.5117,181.7109,181.7109,182.21,,,,,,,,,,,,,,1.0667,1,,,,,,,,,,,,,,m,,,,,,,,,,,,,,,24,0,182.2106,183.2781,m,1,1.0667,,[],[],[],[],[],[],[],183.2782,185.2767,185.2768,185.2769,[],[],[],[],[],[],[],,185.277,185.2772,-0.047287303,-0.370970484,0,0,0,,0,23,23,108,1,1,word,FORTUNE,print,fortune_p.png,,,,,
,,,,31889,001,2025-10-21_20h25.32.791,HW_LDT_1,2024.2.4,MacIntel,58.47953216,,,,,,,,,,,,,,,,,,,,,,185.2785,185.4767,185.4767,185.9776,,,,,,,,,,,,,,0.8868,1,,,,,,,,,,,,,,m,,,,,,,,,,,,,,,25,0,185.9781,186.8776,m,1,0.8868,,[],[],[],[],[],[],[],186.8778,188.8776,188.8777,188.878,[],[],[],[],[],[],[],,188.8781,188.8782,-0.047287303,-0.370970484,0,0,0,,0,24,24,130,1,1,word,POLICY,cursive,policy_c.png,,,,,
,,,,31889,001,2025-10-21_20h25.32.791,HW_LDT_1,2024.2.4,MacIntel,58.47953216,,,,,,,,,,,,,,,,,,,,,,188.8794,189.0776,189.0776,189.5775,,,,,,,,,,,,,,0.6492,1,,,,,,,,,,,,,,m,,,,,,,,,,,,,,,26,0,189.578,190.2281,m,1,0.6492,,[],[],[],[],[],[],[],190.2282,192.2276,192.2277,192.2279,[],[],[],[],[],[],[],,192.228,192.2282,-0.047287303,-0.370970484,0,0,0,,0,25,25,106,1,1,word,ELABORATE,print,elaborate_p.png,,,,,
,,,,31889,001,2025-10-21_20h25.32.791,HW_LDT_1,2024.2.4,MacIntel,58.47953216,,,,,,,,,,,,,,,,,,,,,,192.2293,192.4266,192.4267,192.9276,,,,,,,,,,,,,,0.6154,1,,,,,,,,,,,,,,m,,,,,,,,,,,,,,,27,0,192.9282,193.5444,m,1,0.6154,,[],[],[],[],[],[],[],193.5445,195.5443,195.5444,195.5447,[],[],[],[],[],[],[],,195.5447,195.5449,-0.047287303,-0.370970484,0,0,0,,0,26,26,92,1,1,word,CATEGORY,print,category_p.png,,,,,
,,,,31889,001,2025-10-21_20h25.32.791,HW_LDT_1,2024.2.4,MacIntel,58.47953216,,,,,,,,,,,,,,,,,,,,,,195.546,195.7433,195.7434,196.2442,,,,,,,,,,,,,,0.9369,0,,,,,,,,,,,,,,m,,,,,,,,,,,,,,,28,1,196.2448,197.1944,z,0,0.9369,,[],[],[],[],[],[],[],197.1944,199.1933,199.1934,203.2277,[],[],[],[],[],[],[],m,203.2277,203.2278,-0.047287303,-0.370970484,0,0,0,,0,27,27,110,1,1,word,HERITAGE,cursive,heritage_c.png,4.0219,,,,
,,,,31889,001,2025-10-21_20h25.32.791,HW_LDT_1,2024.2.4,MacIntel,58.47953216,,,,,,,,,,,,,,,,,,,,,,203.2288,203.4268,203.4268,203.9267,,,,,,,,,,,,,,1.014,1,,,,,,,,,,,,,,z,,,,,,,,,,,,,,,29,0,203.9273,204.9435,z,1,1.014,,[],[],[],[],[],[],[],204.9435,206.9433,206.9433,206.9437,[],[],[],[],[],[],[],,206.9438,206.9438,-0.047287303,-0.370970484,0,0,0,,0,28,28,41,1,1,TL,bevoled,print,bevoled_p.png,,,,,
,,,,31889,001,2025-10-21_20h25.32.791,HW_LDT_1,2024.2.4,MacIntel,58.47953216,,,,,,,,,,,,,,,,,,,,,,206.945,207.1433,207.1434,207.6433,,,,,,,,,,,,,,0.9415,1,,,,,,,,,,,,,,z,,,,,,,,,,,,,,,30,0,207.644,208.5942,z,1,0.9415,,[],[],[],[],[],[],[],208.5943,210.5933,210.5934,210.5936,[],[],[],[],[],[],[],,210.5937,210.5937,-0.047287303,-0.370970484,0,0,0,,0,29,29,39,1,1,RL,vabifity,cursive,vabifity_c.png,,,,,
,,,,31889,001,2025-10-21_20h25.32.791,HW_LDT_1,2024.2.4,MacIntel,58.47953216,,,,,,,,,,,,,,,,,,,,,,210.595,210.7942,210.7942,211.2943,,,,,,,,,,,,,,0.9367,1,,,,,,,,,,,,,,z,,,,,,,,,,,,,,,31,0,211.2949,212.2434,z,1,0.9367,,[],[],[],[],[],[],[],212.2436,214.2433,214.2433,214.2436,[],[],[],[],[],[],[],,214.2437,214.2438,-0.047287303,-0.370970484,0,0,0,,0,30,30,78,1,1,TL,vecolity,print,vecolity_p.png,,,,,
,,,,31889,001,2025-10-21_20h25.32.791,HW_LDT_1,2024.2.4,MacIntel,58.47953216,,,,,,,,,,,,,,,,,,,,,,214.2451,214.4433,214.4433,214.9442,,,,,,,,,,,,,,1.0375,1,,,,,,,,,,,,,,z,,,,,,,,,,,,,,,32,0,214.9447,215.9934,z,1,1.0375,,[],[],[],[],[],[],[],215.9936,217.9942,217.9942,217.9945,[],[],[],[],[],[],[],,217.9946,217.9946,-0.047287303,-0.370970484,0,0,0,,0,31,31,56,1,1,TL,grafetul,print,grafetul_p.png,,,,,
,,,,31889,001,2025-10-21_20h25.32.791,HW_LDT_1,2024.2.4,MacIntel,58.47953216,,,,,,,,,,,,,,,,,,,,,,217.9959,218.1942,218.1942,218.6933,,,,,,,,,,,,,,0.6548,1,,,,,,,,,,,,,,z,,,,,,,,,,,,,,,33,0,218.6938,219.3605,z,1,0.6548,,[],[],[],[],[],[],[],219.3606,221.3609,221.3609,221.3612,[],[],[],[],[],[],[],,221.3613,221.3614,-0.047287303,-0.370970484,0,0,0,,0,32,32,32,1,1,RL,rebicent,print,rebicent_p.png,,,,,
,,,,31889,001,2025-10-21_20h25.32.791,HW_LDT_1,2024.2.4,MacIntel,58.47953216,,,,,,,,,,,,,,,,,,,,,,221.3626,221.56,221.5601,222.0608,,,,,,,,,,,,,,1.371,1,,,,,,,,,,,,,,z,,,,,,,,,,,,,,,34,0,222.0614,223.4434,z,1,1.371,,[],[],[],[],[],[],[],223.4435,225.4433,225.4434,225.4437,[],[],[],[],[],[],[],,225.4437,225.4438,-0.047287303,-0.370970484,0,0,0,,0,33,33,26,1,1,RL,quafidy,cursive,quafidy_c.png,,,,,
,,,,31889,001,2025-10-21_20h25.32.791,HW_LDT_1,2024.2.4,MacIntel,58.47953216,,,,,,,,,,,,,,,,,,,,,,225.4451,225.6442,225.6443,226.1442,,,,,,,,,,,,,,0.6989,1,,,,,,,,,,,,,,m,,,,,,,,,,,,,,,35,0,226.1448,226.8445,m,1,0.6989,,[],[],[],[],[],[],[],226.8445,228.8442,228.8443,228.8445,[],[],[],[],[],[],[],,228.8445,228.8447,-0.047287303,-0.370970484,0,0,0,,0,34,34,115,1,1,word,LOGICAL,cursive,logical_c.png,,,,,
,,,,31889,001,2025-10-21_20h25.32.791,HW_LDT_1,2024.2.4,MacIntel,58.47953216,,,,,,,,,,,,,,,,,,,,,,228.8459,229.0442,229.0443,229.5433,,,,,,,,,,,,,,1.9494,1,,,,,,,,,,,,,,z,,,,,,,,,,,,,,,36,0,229.5439,231.4943,z,1,1.9494,,[],[],[],[],[],[],[],231.4944,233.4942,233.4943,233.4946,[],[],[],[],[],[],[],,233.4946,233.4947,-0.047287303,-0.370970484,0,0,0,,0,35,35,36,1,1,RL,speniven,cursive,speniven_c.png,,,,,
,,,,31889,001,2025-10-21_20h25.32.791,HW_LDT_1,2024.2.4,MacIntel,58.47953216,,,,,,,,,,,,,,,,,,,,,,233.4961,233.6934,233.6934,234.1942,,,,,,,,,,,,,,1.6488,1,,,,,,,,,,,,,,z,,,,,,,,,,,,,,,37,1,234.1948,235.8444,z,1,1.6488,,[],[],[],[],[],[],[],235.8446,237.8443,237.8444,239.0443,[],[],[],[],[],[],[],z,239.0443,239.0446,-0.047287303,-0.370970484,0,0,0,,0,36,36,75,1,1,TL,speficic,cursive,speficic_c.png,1.1907,,,,
,,,,31889,001,2025-10-21_20h25.32.791,HW_LDT_1,2024.2.4,MacIntel,58.47953216,,,,,,,,,,,,,,,,,,,,,,239.0457,239.2442,239.2442,239.7442,,,,,,,,,,,,,,4.5874,1,,,,,,,,,,,,,,m,,,,,,,,,,,,,,,38,0,239.7448,244.3443,m,1,4.5874,,[],[],[],[],[],[],[],244.3445,246.3442,246.3442,246.3445,[],[],[],[],[],[],[],,246.3445,246.3447,-0.047287303,-0.370970484,0,0,0,,0,37,37,151,1,1,word,SPECIFIC,cursive,specific_c.png,,,,,
,,,,31889,001,2025-10-21_20h25.32.791,HW_LDT_1,2024.2.4,MacIntel,58.47953216,,,,,,,,,,,,,,,,,,,,,,246.3458,246.5442,246.5443,247.0442,,,,,,,,,,,,,,0.8041,1,,,,,,,,,,,,,,m,,,,,,,,,,,,,,,39,1,247.0448,247.8605,m,1,0.8041,,[],[],[],[],[],[],[],247.8606,249.8604,249.8605,251.6944,[],[],[],[],[],[],[],m,251.6945,251.6947,-0.047287303,-0.370970484,0,0,0,,0,38,38,123,1,1,word,MODERATE,print,moderate_p.png,1.8219,,,,
,,,,31889,001,2025-10-21_20h25.32.791,HW_LDT_1,2024.2.4,MacIntel,58.47953216,,,,,,,,,,,,,,,,,,,,,,251.6959,251.8941,251.8942,252.3942,,,,,,,,,,,,,,2.8725,0,,,,,,,,,,,,,,z,,,,,,,,,,,,,,,40,0,252.3949,255.2776,m,0,2.8725,,[],[],[],[],[],[],[],255.2777,257.2776,257.2776,257.2778,[],[],[],[],[],[],[],,257.278,257.278,-0.047287303,-0.370970484,0,0,0,,0,39,39,72,1,1,TL,remuse,print,remuse_p.png,,,,,
,,,,31889,001,2025-10-21_20h25.32.791,HW_LDT_1,2024.2.4,MacIntel,58.47953216,,,,,,,,,,,,,,,,,,,,,,257.2792,257.4775,257.4776,257.9776,,,,,,,,,,,,,,1.6041,1,,,,,,,,,,,,,,z,,,,,,,,,,,,,,,41,0,257.9781,259.5945,z,1,1.6041,,[],[],[],[],[],[],[],259.5945,261.5942,261.5943,261.5945,[],[],[],[],[],[],[],,261.5946,261.5948,-0.047287303,-0.370970484,0,0,0,,0,40,40,31,1,1,RL,reconal,cursive,reconal_c.png,,,,,
,,,,31889,001,2025-10-21_20h25.32.791,HW_LDT_1,2024.2.4,MacIntel,58.47953216,,,,,,,,,,,,,,,,,,,,,,261.5958,261.7942,261.7942,262.2942,,,,,,,,,,,,,,1.2208,1,,,,,,,,,,,,,,m,,,,,,,,,,,,,,,42,1,262.2947,263.5276,m,1,1.2208,,[],[],[],[],[],[],[],263.5277,265.5275,265.5276,267.3443,[],[],[],[],[],[],[],z,267.3444,267.3445,-0.047287303,-0.370970484,0,0,0,,0,41,41,141,1,1,word,RELIGION,cursive,religion_c.png,1.8077,,,,
,,,,31889,001,2025-10-21_20h25.32.791,HW_LDT_1,2024.2.4,MacIntel,58.47953216,,,,,,,,,,,,,,,,,,,,,,267.3456,267.5441,267.5442,268.0442,,,,,,,,,,,,,,2.9821,0,,,,,,,,,,,,,,m,,,,,,,,,,,,,,,43,1,268.0448,271.0277,z,0,2.9821,,[],[],[],[],[],[],[],271.0279,273.0275,273.0276,274.0943,[],[],[],[],[],[],[],z,274.0944,274.0946,-0.047287303,-0.370970484,0,0,0,,0,42,42,150,1,1,word,SENTIMENT,cursive,sentiment_c.png,1.0549,,,,
,,,,31889,001,2025-10-21_20h25.32.791,HW_LDT_1,2024.2.4,MacIntel,58.47953216,,,,,,,,,,,,,,,,,,,,,,274.0958,274.2942,274.2943,274.7941,,,,,,,,,,,,,,0.8707,1,,,,,,,,,,,,,,z,,,,,,,,,,,,,,,44,0,274.7948,275.6777,z,1,0.8707,,[],[],[],[],[],[],[],275.6778,277.6775,277.6776,277.6778,[],[],[],[],[],[],[],,277.6778,277.6779,-0.047287303,-0.370970484,0,0,0,,0,43,43,13,1,1,RL,linefal,print,linefal_p.png,,,,,
,,,,31889,001,2025-10-21_20h25.32.791,HW_LDT_1,2024.2.4,MacIntel,58.47953216,,,,,,,,,,,,,,,,,,,,,,277.6792,277.8775,277.8775,278.3775,,,,,,,,,,,,,,1.1986,1,,,,,,,,,,,,,,m,,,,,,,,,,,,,,,45,1,278.3781,279.5776,m,1,1.1986,,[],[],[],[],[],[],[],279.5777,281.5775,281.5776,282.6443,[],[],[],[],[],[],[],z,282.6443,282.6445,-0.047287303,-0.370970484,0,0,0,,0,44,44,127,1,1,word,ORIGINAL,cursive,original_c.png,1.0648,,,,
,,,,31889,001,2025-10-21_20h25.32.791,HW_LDT_1,2024.2.4,MacIntel,58.47953216,,,,,,,,,,,,,,,,,,,,,,282.6456,282.8442,282.8442,283.3442,,,,,,,,,,,,,,0.754,1,,,,,,,,,,,,,,z,,,,,,,,,,,,,,,46,0,283.3448,284.1109,z,1,0.754,,[],[],[],[],[],[],[],284.111,286.1109,286.111,286.1112,[],[],[],[],[],[],[],,286.1112,286.1114,-0.047287303,-0.370970484,0,0,0,,0,45,45,43,1,1,TL,bedise,print,bedise_p.png,,,,,
,,,,31889,001,2025-10-21_20h25.32.791,HW_LDT_1,2024.2.4,MacIntel,58.47953216,,,,,,,,,,,,,,,,,,,,,,286.1127,286.3108,286.3109,286.8109,,,,,,,,,,,,,,0.9156,1,,,,,,,,,,,,,,z,,,,,,,,,,,,,,,47,1,286.8114,287.728,z,1,0.9156,,[],[],[],[],[],[],[],287.7281,289.7275,289.7276,290.6442,[],[],[],[],[],[],[],m,290.6442,290.6444,-0.047287303,-0.370970484,0,0,0,,0,46,46,55,1,1,TL,fornute,print,fornute_p.png,0.9051,,,,
,,,,31889,001,2025-10-21_20h25.32.791,HW_LDT_1,2024.2.4,MacIntel,58.47953216,,,,,,,,,,,,,,,,,,,,,,290.6454,290.8442,290.8442,291.3442,,,,,,,,,,,,,,1.1042,1,,,,,,,,,,,,,,m,,,,,,,,,,,,,,,48,0,291.3448,292.4609,m,1,1.1042,,[],[],[],[],[],[],[],292.461,294.4608,294.4609,294.4611,[],[],[],[],[],[],[],,294.4612,294.4613,-0.047287303,-0.370970484,0,0,0,,0,47,47,100,1,1,word,DECADE,print,decade_p.png,,,,,
,,,,31889,001,2025-10-21_20h25.32.791,HW_LDT_1,2024.2.4,MacIntel,58.47953216,,,,,,,,,,,,,,,,,,,,,,294.4626,294.6601,294.6602,295.161,,,,,,,,,,,,,,1.9374,1,,,,,,,,,,,,,,m,,,,,,,,,,,,,,,49,0,295.1616,297.1109,m,1,1.9374,,[],[],[],[],[],[],[],297.111,299.1108,299.1108,299.111,[],[],[],[],[],[],[],,299.111,299.1112,-0.047287303,-0.370970484,0,0,0,,0,48,48,88,1,1,word,CAMERA,cursive,camera_c.png,,,,,
,,,,31889,001,2025-10-21_20h25.32.791,HW_LDT_1,2024.2.4,MacIntel,58.47953216,,,,,,,,,,,,,,,,,,,,,,299.1124,299.3109,299.311,299.8108,,,,,,,,,,,,,,0.8821,1,,,,,,,,,,,,,,z,,,,,,,,,,,,,,,50,0,299.8114,300.6944,z,1,0.8821,,[],[],[],[],[],[],[],300.6945,302.6942,302.6942,302.6944,[],[],[],[],[],[],[],,302.6945,302.6946,-0.047287303,-0.370970484,0,0,0,,0,49,49,21,1,1,RL,opcifal,print,opcifal_p.png,,,,,
,,,,31889,001,2025-10-21_20h25.32.791,HW_LDT_1,2024.2.4,MacIntel,58.47953216,,,,,,,,,,,,,,,,,,,,,,302.6958,302.8941,302.8942,303.3942,,,,,,,,,,,,,,0.7799,1,,,,,,,,,,,,,,m,,,,,,,,,,,,,,,51,1,303.3948,304.1776,m,1,0.7799,,[],[],[],[],[],[],[],304.1777,306.1775,306.1775,307.2443,[],[],[],[],[],[],[],m,307.2444,307.2446,-0.047287303,-0.370970484,0,0,0,,0,50,50,91,1,1,word,CARDINAL,print,cardinal_p.png,1.0549,,,,
,,,,31889,001,2025-10-21_20h25.32.791,HW_LDT_1,2024.2.4,MacIntel,58.47953216,,,,,,,,,,,,,,,,,,,,,,307.2458,307.4442,307.4442,307.9441,,,,,,,,,,,,,,0.8877,1,,,,,,,,,,,,,,z,,,,,,,,,,,,,,,52,0,307.9448,308.8443,z,1,0.8877,,[],[],[],[],[],[],[],308.8444,310.8442,310.8442,310.8444,[],[],[],[],[],[],[],,310.8445,310.8446,-0.047287303,-0.370970484,0,0,0,,0,51,51,38,1,1,RL,stopave,cursive,stopave_c.png,,,,,
,,,,31889,001,2025-10-21_20h25.32.791,HW_LDT_1,2024.2.4,MacIntel,58.47953216,,,,,,,,,,,,,,,,,,,,,,310.8458,311.0442,311.0442,311.5442,,,,,,,,,,,,,,1.2153,1,,,,,,,,,,,,,,m,,,,,,,,,,,,,,,53,0,311.5447,312.7611,m,1,1.2153,,[],[],[],[],[],[],[],312.7612,314.7608,314.7609,314.7611,[],[],[],[],[],[],[],,314.7611,314.7612,-0.047287303,-0.370970484,0,0,0,,0,52,52,81,1,1,word,ADVISORY,cursive,advisory_c.png,,,,,
,,,,31889,001,2025-10-21_20h25.32.791,HW_LDT_1,2024.2.4,MacIntel,58.47953216,,,,,,,,,,,,,,,,,,,,,,314.7625,314.9608,314.9609,315.4609,,,,,,,,,,,,,,1.6322,0,,,,,,,,,,,,,,z,,,,,,,,,,,,,,,54,0,315.4614,317.0944,m,0,1.6322,,[],[],[],[],[],[],[],317.0945,319.0942,319.0943,319.0944,[],[],[],[],[],[],[],,319.0945,319.0946,-0.047287303,-0.370970484,0,0,0,,0,53,53,65,1,1,TL,orinigal,cursive,orinigal_c.png,,,,,
,,,,31889,001,2025-10-21_20h25.32.791,HW_LDT_1,2024.2.4,MacIntel,58.47953216,,,,,,,,,,,,,,,,,,,,,,319.0958,319.2941,319.2941,319.7942,,,,,,,,,,,,,,1.5581,1,,,,,,,,,,,,,,m,,,,,,,,,,,,,,,55,0,319.7947,321.3605,m,1,1.5581,,[],[],[],[],[],[],[],321.3606,323.3608,323.3608,323.3611,[],[],[],[],[],[],[],,323.3611,323.3613,-0.047287303,-0.370970484,0,0,0,,0,54,54,158,1,1,word,VELOCITY,print,velocity_p.png,,,,,
,,,,31889,001,2025-10-21_20h25.32.791,HW_LDT_1,2024.2.4,MacIntel,58.47953216,,,,,,,,,,,,,,,,,,,,,,323.3625,323.5608,323.5609,324.0608,,,,,,,,,,,,,,0.9711,1,,,,,,,,,,,,,,z,,,,,,,,,,,,,,,56,0,324.0614,325.0442,z,1,0.9711,,[],[],[],[],[],[],[],325.0444,327.0442,327.0442,327.0444,[],[],[],[],[],[],[],,327.0444,327.0445,-0.047287303,-0.370970484,0,0,0,,0,55,55,20,1,1,RL,nunewical,print,nunewical_p.png,,,,,
,,,,31889,001,2025-10-21_20h25.32.791,HW_LDT_1,2024.2.4,MacIntel,58.47953216,,,,,,,,,,,,,,,,,,,,,,327.0458,327.244,327.244,327.7441,,,,,,,,,,,,,,1.2041,1,,,,,,,,,,,,,,z,,,,,,,,,,,,,,,57,0,327.7446,328.9608,z,1,1.2041,,[],[],[],[],[],[],[],328.961,330.9608,330.9608,330.9611,[],[],[],[],[],[],[],,330.9611,330.9612,-0.047287303,-0.370970484,0,0,0,,0,56,56,50,1,1,TL,condiser,cursive,condiser_c.png,,,,,
,,,,31889,001,2025-10-21_20h25.32.791,HW_LDT_1,2024.2.4,MacIntel,58.47953216,,,,,,,,,,,,,,,,,,,,,,330.9625,331.1609,331.161,331.6608,,,,,,,,,,,,,,0.8731,1,,,,,,,,,,,,,,z,,,,,,,,,,,,,,,58,0,331.6615,332.5438,z,1,0.8731,,[],[],[],[],[],[],[],332.5439,334.5441,334.5441,334.5444,[],[],[],[],[],[],[],,334.5445,334.5446,-0.047287303,-0.370970484,0,0,0,,0,57,57,11,1,1,RL,elacodate,print,elacodate_p.png,,,,,
,,,,31889,001,2025-10-21_20h25.32.791,HW_LDT_1,2024.2.4,MacIntel,58.47953216,,,,,,,,,,,,,,,,,,,,,,334.5459,334.7441,334.7441,335.2441,,,,,,,,,,,,,,0.8466,1,,,,,,,,,,,,,,z,,,,,,,,,,,,,,,59,0,335.2447,336.0943,z,1,0.8466,,[],[],[],[],[],[],[],336.0943,338.0941,338.0941,338.0943,[],[],[],[],[],[],[],,338.0945,338.0946,-0.047287303,-0.370970484,0,0,0,,0,58,58,12,1,1,RL,ebiwent,print,ebiwent_p.png,,,,,
,,,,31889,001,2025-10-21_20h25.32.791,HW_LDT_1,2024.2.4,MacIntel,58.47953216,,,,,,,,,,,,,,,,,,,,,,338.0958,338.2941,338.2941,338.7941,,,,,,,,,,,,,,1.182,1,,,,,,,,,,,,,,z,,,,,,,,,,,,,,,60,0,338.7946,339.9776,z,1,1.182,,[],[],[],[],[],[],[],339.9778,341.9774,341.9775,341.9776,[],[],[],[],[],[],[],,341.9777,341.9778,-0.047287303,-0.370970484,0,0,0,,0,59,59,76,1,1,TL,stragety,cursive,stragety_c.png,,,,,
,,,,31889,001,2025-10-21_20h25.32.791,HW_LDT_1,2024.2.4,MacIntel,58.47953216,,,,,,,,,,,,,,,,,,,,,,341.9791,342.1775,342.1776,342.6775,,,,,,,,,,,,,,1.8877,1,,,,,,,,,,,,,,z,,,,,,,,,,,,,,,61,1,342.678,344.5776,z,1,1.8877,,[],[],[],[],[],[],[],344.5776,346.5775,346.5775,347.4776,[],[],[],[],[],[],[],m,347.4776,347.4778,-0.047287303,-0.370970484,0,0,0,,0,60,60,6,1,1,RL,crisival,print,crisival_p.png,0.8901,,,,
,,,,31889,001,2025-10-21_20h25.32.791,HW_LDT_1,2024.2.4,MacIntel,58.47953216,,,,,,,,,,,,,,,,,,,,,,347.4791,347.6775,347.6775,348.1774,,,,,,,,,,,,,,1.032,1,,,,,,,,,,,,,,m,,,,,,,,,,,,,,,62,0,348.178,349.211,m,1,1.032,,[],[],[],[],[],[],[],349.211,351.2109,351.2109,351.211,[],[],[],[],[],[],[],,351.2111,351.2112,-0.047287303,-0.370970484,0,0,0,,0,61,61,139,1,1,word,REGULAR,print,regular_p.png,,,,,
,,,,31889,001,2025-10-21_20h25.32.791,HW_LDT_1,2024.2.4,MacIntel,58.47953216,,,,,,,,,,,,,,,,,,,,,,351.2124,351.4108,351.4109,351.9108,,,,,,,,,,,,,,0.6984,1,,,,,,,,,,,,,,m,,,,,,,,,,,,,,,63,0,351.9114,352.611,m,1,0.6984,,[],[],[],[],[],[],[],352.6112,354.6108,354.6108,354.611,[],[],[],[],[],[],[],,354.6111,354.6113,-0.047287303,-0.370970484,0,0,0,,0,62,62,98,1,1,word,CRIMINAL,print,criminal_p.png,,,,,
,,,,31889,001,2025-10-21_20h25.32.791,HW_LDT_1,2024.2.4,MacIntel,58.47953216,,,,,,,,,,,,,,,,,,,,,,354.6124,354.8108,354.8108,355.3108,,,,,,,,,,,,,,0.9156,1,,,,,,,,,,,,,,z,,,,,,,,,,,,,,,64,0,355.3113,356.2279,z,1,0.9156,,[],[],[],[],[],[],[],356.228,358.2275,358.2275,358.2276,[],[],[],[],[],[],[],,358.2277,358.2279,-0.047287303,-0.370970484,0,0,0,,0,63,63,60,1,1,TL,manire,print,manire_p.png,,,,,
,,,,31889,001,2025-10-21_20h25.32.791,HW_LDT_1,2024.2.4,MacIntel,58.47953216,,,,,,,,,,,,,,,,,,,,,,358.229,358.4275,358.4276,358.9275,,,,,,,,,,,,,,0.9544,1,,,,,,,,,,,,,,m,,,,,,,,,,,,,,,65,0,358.928,359.8942,m,1,0.9544,,[],[],[],[],[],[],[],359.8943,361.8941,361.8942,361.8944,[],[],[],[],[],[],[],,361.8945,361.8946,-0.047287303,-0.370970484,0,0,0,,0,64,64,97,1,1,word,COVERAGE,print,coverage_p.png,,,,,
,,,,31889,001,2025-10-21_20h25.32.791,HW_LDT_1,2024.2.4,MacIntel,58.47953216,,,,,,,,,,,,,,,,,,,,,,361.8958,362.0941,362.0942,362.5942,,,,,,,,,,,,,,0.9728,1,,,,,,,,,,,,,,z,,,,,,,,,,,,,,,66,0,362.5948,363.5771,z,1,0.9728,,[],[],[],[],[],[],[],363.5772,365.5774,365.5775,365.5777,[],[],[],[],[],[],[],,365.5778,365.5778,-0.047287303,-0.370970484,0,0,0,,0,65,65,17,1,1,RL,menowy,cursive,menowy_c.png,,,,,
,,,,31889,001,2025-10-21_20h25.32.791,HW_LDT_1,2024.2.4,MacIntel,58.47953216,,,,,,,,,,,,,,,,,,,,,,365.5791,365.7774,365.7775,366.2775,,,,,,,,,,,,,,0.7382,1,,,,,,,,,,,,,,z,,,,,,,,,,,,,,,67,0,366.278,367.0276,z,1,0.7382,,[],[],[],[],[],[],[],367.0277,369.0275,369.0275,369.0278,[],[],[],[],[],[],[],,369.0278,369.028,-0.047287303,-0.370970484,0,0,0,,0,66,66,51,1,1,TL,corevage,print,corevage_p.png,,,,,
,,,,31889,001,2025-10-21_20h25.32.791,HW_LDT_1,2024.2.4,MacIntel,58.47953216,,,,,,,,,,,,,,,,,,,,,,369.0291,369.2274,369.2275,369.7275,,,,,,,,,,,,,,1.1477,1,,,,,,,,,,,,,,m,,,,,,,,,,,,,,,68,0,369.728,370.8776,m,1,1.1477,,[],[],[],[],[],[],[],370.8777,372.8774,372.8775,372.8778,[],[],[],[],[],[],[],,372.8778,372.878,-0.047287303,-0.370970484,0,0,0,,0,67,67,159,1,1,word,VETERAN,print,veteran_p.png,,,,,
,,,,31889,001,2025-10-21_20h25.32.791,HW_LDT_1,2024.2.4,MacIntel,58.47953216,,,,,,,,,,,,,,,,,,,,,,372.8791,373.0767,373.0767,373.5774,,,,,,,,,,,,,,1.0874,1,,,,,,,,,,,,,,z,,,,,,,,,,,,,,,69,0,373.578,374.6775,z,1,1.0874,,[],[],[],[],[],[],[],374.6775,376.6774,376.6775,376.6778,[],[],[],[],[],[],[],,376.6778,376.6779,-0.047287303,-0.370970484,0,0,0,,0,68,68,57,1,1,TL,hetirage,cursive,hetirage_c.png,,,,,
,,,,31889,001,2025-10-21_20h25.32.791,HW_LDT_1,2024.2.4,MacIntel,58.47953216,,,,,,,,,,,,,,,,,,,,,,376.6791,376.8774,376.8774,377.3765,,,,,,,,,,,,,,0.7226,1,,,,,,,,,,,,,,m,,,,,,,,,,,,,,,70,0,377.3771,378.1109,m,1,0.7226,,[],[],[],[],[],[],[],378.1109,380.1097,380.1098,380.11,[],[],[],[],[],[],[],,380.1101,380.1102,-0.047287303,-0.370970484,0,0,0,,0,69,69,89,1,1,word,CAPACITY,print,capacity_p.png,,,,,
,,,,31889,001,2025-10-21_20h25.32.791,HW_LDT_1,2024.2.4,MacIntel,58.47953216,,,,,,,,,,,,,,,,,,,,,,380.1114,380.3108,380.3108,380.8108,,,,,,,,,,,,,,0.7219,1,,,,,,,,,,,,,,z,,,,,,,,,,,,,,,71,0,380.8113,381.5442,z,1,0.7219,,[],[],[],[],[],[],[],381.5443,383.5441,383.5442,383.5444,[],[],[],[],[],[],[],,383.5445,383.5446,-0.047287303,-0.370970484,0,0,0,,0,70,70,74,1,1,TL,setanor,cursive,setanor_c.png,,,,,
,,,,31889,001,2025-10-21_20h25.32.791,HW_LDT_1,2024.2.4,MacIntel,58.47953216,,,,,,,,,,,,,,,,,,,,,,383.5458,383.7436,383.7436,384.2431,,,,,,,,,,,,,,0.621,1,,,,,,,,,,,,,,z,,,,,,,,,,,,,,,72,0,384.2437,384.8775,z,1,0.621,,[],[],[],[],[],[],[],384.8777,386.8765,386.8766,386.8767,[],[],[],[],[],[],[],,386.8768,386.8769,-0.047287303,-0.370970484,0,0,0,,0,71,71,30,1,1,RL,relone,print,relone_p.png,,,,,
,,,,31889,001,2025-10-21_20h25.32.791,HW_LDT_1,2024.2.4,MacIntel,58.47953216,,,,,,,,,,,,,,,,,,,,,,386.8782,387.0764,387.0765,387.5774,,,,,,,,,,,,,,1.0874,1,,,,,,,,,,,,,,m,,,,,,,,,,,,,,,73,0,387.578,388.6765,m,1,1.0874,,[],[],[],[],[],[],[],388.6766,390.6764,390.6764,390.6767,[],[],[],[],[],[],[],,390.6767,390.6769,-0.047287303,-0.370970484,0,0,0,,0,72,72,157,1,1,word,VALIDITY,cursive,validity_c.png,,,,,
,,,,31889,001,2025-10-21_20h25.32.791,HW_LDT_1,2024.2.4,MacIntel,58.47953216,,,,,,,,,,,,,,,,,,,,,,390.6781,390.8775,390.8776,391.3774,,,,,,,,,,,,,,0.6721,1,,,,,,,,,,,,,,z,,,,,,,,,,,,,,,74,0,391.378,392.0599,z,1,0.6721,,[],[],[],[],[],[],[],392.0599,394.0609,394.0609,394.0612,[],[],[],[],[],[],[],,394.0612,394.0613,-0.047287303,-0.370970484,0,0,0,,0,73,73,67,1,1,TL,pocily,cursive,pocily_c.png,,,,,
,,,,31889,001,2025-10-21_20h25.32.791,HW_LDT_1,2024.2.4,MacIntel,58.47953216,,,,,,,,,,,,,,,,,,,,,,394.0624,394.2608,394.2608,394.7608,,,,,,,,,,,,,,3.0032,1,,,,,,,,,,,,,,z,,,,,,,,,,,,,,,75,0,394.7615,397.7775,z,1,3.0032,,[],[],[],[],[],[],[],397.7777,399.7774,399.7774,399.7777,[],[],[],[],[],[],[],,399.7778,399.7779,-0.047287303,-0.370970484,0,0,0,,0,74,74,9,1,1,RL,docirant,cursive,docirant_c.png,,,,,
,,,,31889,001,2025-10-21_20h25.32.791,HW_LDT_1,2024.2.4,MacIntel,58.47953216,,,,,,,,,,,,,,,,,,,,,,399.7791,399.9774,399.9775,400.4774,,,,,,,,,,,,,,0.7376,1,,,,,,,,,,,,,,z,,,,,,,,,,,,,,,76,0,400.478,401.2276,z,1,0.7376,,[],[],[],[],[],[],[],401.2277,403.2276,403.2276,403.2277,[],[],[],[],[],[],[],,403.2278,403.2279,-0.047287303,-0.370970484,0,0,0,,0,75,75,47,1,1,TL,cagetory,print,cagetory_p.png,,,,,
,,,,31889,001,2025-10-21_20h25.32.791,HW_LDT_1,2024.2.4,MacIntel,58.47953216,,,,,,,,,,,,,,,,,,,,,,403.229,403.4274,403.4275,403.9265,,,,,,,,,,,,,,0.6753,1,,,,,,,,,,,,,,m,,,,,,,,,,,,,,,77,0,403.927,404.6105,m,1,0.6753,,[],[],[],[],[],[],[],404.6106,406.6098,406.6098,406.61,[],[],[],[],[],[],[],,406.6101,406.6102,-0.047287303,-0.370970484,0,0,0,,0,76,76,136,1,1,word,RADICAL,print,radical_p.png,,,,,
,,,,31889,001,2025-10-21_20h25.32.791,HW_LDT_1,2024.2.4,MacIntel,58.47953216,,,,,,,,,,,,,,,,,,,,,,406.6115,406.8108,406.8109,407.3098,,,,,,,,,,,,,,0.9876,1,,,,,,,,,,,,,,z,,,,,,,,,,,,,,,78,0,407.3104,408.311,z,1,0.9876,,[],[],[],[],[],[],[],408.311,410.3101,410.3102,410.3104,[],[],[],[],[],[],[],,410.3105,410.3106,-0.047287303,-0.370970484,0,0,0,,0,77,77,22,1,1,RL,patisic,print,patisic_p.png,,,,,
,,,,31889,001,2025-10-21_20h25.32.791,HW_LDT_1,2024.2.4,MacIntel,58.47953216,,,,,,,,,,,,,,,,,,,,,,410.3118,410.5108,410.5108,411.01,,,,,,,,,,,,,,0.9372,0,,,,,,,,,,,,,,z,,,,,,,,,,,,,,,79,0,411.0106,411.9599,m,0,0.9372,,[],[],[],[],[],[],[],411.96,413.9608,413.9608,413.9611,[],[],[],[],[],[],[],,413.9611,413.9613,-0.047287303,-0.370970484,0,0,0,,0,78,78,69,1,1,TL,radiply,cursive,radiply_c.png,,,,,
,,,,31889,001,2025-10-21_20h25.32.791,HW_LDT_1,2024.2.4,MacIntel,58.47953216,,,,,,,,,,,,,,,,,,,,,,413.9625,414.1597,414.1598,414.6607,,,,,,,,,,,,,,1.2544,1,,,,,,,,,,,,,,m,,,,,,,,,,,,,,,80,0,414.6614,415.9276,m,1,1.2544,,[],[],[],[],[],[],[],415.9278,417.9275,417.9276,417.9278,[],[],[],[],[],[],[],,417.9278,471.7607,-0.047287303,-0.370970484,1,0,0,,0,79,79,124,1,1,word,NUMERICAL,print,numerical_p.png,,,break_done_button,,
,,,,31889,001,2025-10-21_20h25.32.791,HW_LDT_1,2024.2.4,MacIntel,58.47953216,,,,,,,,,,,,,,,,,,,,,,471.7619,471.9599,471.96,472.4608,,,,,,,,,,,,,,1.2374,1,,,,,,,,,,,,,,z,,,,,,,,,,,,,,,81,0,472.4615,473.7109,z,1,1.2374,,[],[],[],[],[],[],[],473.711,475.7107,475.7107,475.711,[],[],[],[],[],[],[],,475.711,475.7112,-0.047287303,-0.370970484,0,0,0,,0,80,80,5,1,1,RL,cobeny,cursive,cobeny_c.png,,,,,
,,,,31889,001,2025-10-21_20h25.32.791,HW_LDT_1,2024.2.4,MacIntel,58.47953216,,,,,,,,,,,,,,,,,,,,,,475.7124,475.9109,475.911,476.4107,,,,,,,,,,,,,,0.7487,1,,,,,,,,,,,,,,z,,,,,,,,,,,,,,,82,0,476.4112,477.1608,z,1,0.7487,,[],[],[],[],[],[],[],477.161,479.1598,479.1598,479.1601,[],[],[],[],[],[],[],,479.1601,479.1601,-0.047287303,-0.370970484,0,0,0,,0,81,81,62,1,1,TL,mitilary,print,mitilary_p.png,,,,,
,,,,31889,001,2025-10-21_20h25.32.791,HW_LDT_1,2024.2.4,MacIntel,58.47953216,,,,,,,,,,,,,,,,,,,,,,479.1613,479.3598,479.3598,479.8607,,,,,,,,,,,,,,0.7209,1,,,,,,,,,,,,,,m,,,,,,,,,,,,,,,83,0,479.8614,480.5937,m,1,0.7209,,[],[],[],[],[],[],[],480.5938,482.5941,482.5941,482.5943,[],[],[],[],[],[],[],,482.5944,482.5946,-0.047287303,-0.370970484,0,0,0,,0,82,82,120,1,1,word,MILITARY,print,military_p.png,,,,,
,,,,31889,001,2025-10-21_20h25.32.791,HW_LDT_1,2024.2.4,MacIntel,58.47953216,,,,,,,,,,,,,,,,,,,,,,482.5958,482.794,482.7941,483.294,,,,,,,,,,,,,,1.32,1,,,,,,,,,,,,,,z,,,,,,,,,,,,,,,84,0,483.2945,484.6276,z,1,1.32,,[],[],[],[],[],[],[],484.6276,486.6274,486.6275,486.6278,[],[],[],[],[],[],[],,486.6278,486.6279,-0.047287303,-0.370970484,0,0,0,,0,83,83,73,1,1,TL,ronamtic,cursive,ronamtic_c.png,,,,,
,,,,31889,001,2025-10-21_20h25.32.791,HW_LDT_1,2024.2.4,MacIntel,58.47953216,,,,,,,,,,,,,,,,,,,,,,486.6292,486.8265,486.8265,487.3274,,,,,,,,,,,,,,1.403,1,,,,,,,,,,,,,,z,,,,,,,,,,,,,,,85,0,487.328,488.7444,z,1,1.403,,[],[],[],[],[],[],[],488.7445,490.7441,490.7441,490.7443,[],[],[],[],[],[],[],,490.7444,490.7445,-0.047287303,-0.370970484,0,0,0,,0,84,84,10,1,1,RL,efibor,cursive,efibor_c.png,,,,,
,,,,31889,001,2025-10-21_20h25.32.791,HW_LDT_1,2024.2.4,MacIntel,58.47953216,,,,,,,,,,,,,,,,,,,,,,490.7456,490.9441,490.9441,491.4441,,,,,,,,,,,,,,1.045,1,,,,,,,,,,,,,,m,,,,,,,,,,,,,,,86,0,491.4446,492.4941,m,1,1.045,,[],[],[],[],[],[],[],492.4941,494.4941,494.4941,494.4943,[],[],[],[],[],[],[],,494.4944,494.4944,-0.047287303,-0.370970484,0,0,0,,0,85,85,109,1,1,word,GRATEFUL,print,grateful_p.png,,,,,
,,,,31889,001,2025-10-21_20h25.32.791,HW_LDT_1,2024.2.4,MacIntel,58.47953216,,,,,,,,,,,,,,,,,,,,,,494.4957,494.6931,494.6931,495.1931,,,,,,,,,,,,,,1.0718,1,,,,,,,,,,,,,,m,,,,,,,,,,,,,,,87,0,495.1937,496.2765,m,1,1.0718,,[],[],[],[],[],[],[],496.2767,498.2774,498.2775,498.2776,[],[],[],[],[],[],[],,498.2777,498.2778,-0.047287303,-0.370970484,0,0,0,,0,86,86,143,1,1,word,REMOVAL,cursive,removal_c.png,,,,,
,,,,31889,001,2025-10-21_20h25.32.791,HW_LDT_1,2024.2.4,MacIntel,58.47953216,,,,,,,,,,,,,,,,,,,,,,498.279,498.4765,498.4765,498.9773,,,,,,,,,,,,,,0.9133,1,,,,,,,,,,,,,,z,,,,,,,,,,,,,,,88,1,498.9779,499.8932,z,1,0.9133,,[],[],[],[],[],[],[],499.8932,501.8941,501.8941,504.8439,[],[],[],[],[],[],[],z,504.844,504.8441,-0.047287303,-0.370970484,0,0,0,,0,87,87,45,1,1,TL,cacapity,print,cacapity_p.png,2.9453,,,,
,,,,31889,001,2025-10-21_20h25.32.791,HW_LDT_1,2024.2.4,MacIntel,58.47953216,,,,,,,,,,,,,,,,,,,,,,504.8447,505.044,505.0441,505.5432,,,,,,,,,,,,,,1.2216,1,,,,,,,,,,,,,,z,,,,,,,,,,,,,,,89,0,505.5437,506.7766,z,1,1.2216,,[],[],[],[],[],[],[],506.7767,508.7773,508.7774,508.7776,[],[],[],[],[],[],[],,508.7777,508.7778,-0.047287303,-0.370970484,0,0,0,,0,88,88,44,1,1,TL,cateferia,cursive,cateferia_c.png,,,,,
,,,,31889,001,2025-10-21_20h25.32.791,HW_LDT_1,2024.2.4,MacIntel,58.47953216,,,,,,,,,,,,,,,,,,,,,,508.7789,508.9773,508.9773,509.4764,,,,,,,,,,,,,,1.3374,1,,,,,,,,,,,,,,z,,,,,,,,,,,,,,,90,1,509.4771,510.8265,z,1,1.3374,,[],[],[],[],[],[],[],510.8266,512.8275,512.8275,514.5608,[],[],[],[],[],[],[],m,514.5608,514.5609,-0.047287303,-0.370970484,0,0,0,,0,89,89,28,1,1,RL,renutal,print,renutal_p.png,1.7257,,,,
,,,,31889,001,2025-10-21_20h25.32.791,HW_LDT_1,2024.2.4,MacIntel,58.47953216,,,,,,,,,,,,,,,,,,,,,,514.5621,514.7607,514.7608,515.2597,,,,,,,,,,,,,,1.9745,0,,,,,,,,,,,,,,m,,,,,,,,,,,,,,,91,0,515.2604,517.244,z,0,1.9745,,[],[],[],[],[],[],[],517.2442,519.244,519.244,519.2442,[],[],[],[],[],[],[],,519.2443,519.2444,-0.047287303,-0.370970484,0,0,0,,0,90,90,101,1,1,word,DELICATE,cursive,delicate_c.png,,,,,
,,,,31889,001,2025-10-21_20h25.32.791,HW_LDT_1,2024.2.4,MacIntel,58.47953216,,,,,,,,,,,,,,,,,,,,,,519.2456,519.444,519.4441,519.9441,,,,,,,,,,,,,,1.7403,1,,,,,,,,,,,,,,m,,,,,,,,,,,,,,,92,0,519.9447,521.6942,m,1,1.7403,,[],[],[],[],[],[],[],521.6943,523.6931,523.6932,523.6934,[],[],[],[],[],[],[],,523.6935,523.6936,-0.047287303,-0.370970484,0,0,0,,0,91,91,80,1,1,word,ACADEMY,cursive,academy_c.png,,,,,
,,,,31889,001,2025-10-21_20h25.32.791,HW_LDT_1,2024.2.4,MacIntel,58.47953216,,,,,,,,,,,,,,,,,,,,,,523.6949,523.8942,523.8942,524.394,,,,,,,,,,,,,,1.4713,1,,,,,,,,,,,,,,z,,,,,,,,,,,,,,,93,0,524.3946,525.8775,z,1,1.4713,,[],[],[],[],[],[],[],525.8776,527.8773,527.8774,527.8777,[],[],[],[],[],[],[],,527.8777,527.8778,-0.047287303,-0.370970484,0,0,0,,0,92,92,68,1,1,TL,prosopal,cursive,prosopal_c.png,,,,,
,,,,31889,001,2025-10-21_20h25.32.791,HW_LDT_1,2024.2.4,MacIntel,58.47953216,,,,,,,,,,,,,,,,,,,,,,527.8791,528.0765,528.0765,528.5774,,,,,,,,,,,,,,2.4642,1,,,,,,,,,,,,,,m,,,,,,,,,,,,,,,94,0,528.5779,531.0441,m,1,2.4642,,[],[],[],[],[],[],[],531.0441,533.0441,533.0441,533.0444,[],[],[],[],[],[],[],,533.0444,533.0445,-0.047287303,-0.370970484,0,0,0,,0,93,93,135,1,1,word,QUALITY,cursive,quality_c.png,,,,,
,,,,31889,001,2025-10-21_20h25.32.791,HW_LDT_1,2024.2.4,MacIntel,58.47953216,,,,,,,,,,,,,,,,,,,,,,533.0458,533.2441,533.2442,533.7441,,,,,,,,,,,,,,2.0706,1,,,,,,,,,,,,,,m,,,,,,,,,,,,,,,95,0,533.7447,535.8275,m,1,2.0706,,[],[],[],[],[],[],[],535.8276,537.8273,537.8274,537.8276,[],[],[],[],[],[],[],,537.8278,537.8279,-0.047287303,-0.370970484,0,0,0,,0,94,94,155,1,1,word,STRATEGY,cursive,strategy_c.png,,,,,
,,,,31889,001,2025-10-21_20h25.32.791,HW_LDT_1,2024.2.4,MacIntel,58.47953216,,,,,,,,,,,,,,,,,,,,,,537.8291,538.0265,538.0265,538.5265,,,,,,,,,,,,,,0.7645,1,,,,,,,,,,,,,,z,,,,,,,,,,,,,,,96,0,538.5272,539.2934,z,1,0.7645,,[],[],[],[],[],[],[],539.2935,541.294,541.2941,541.2944,[],[],[],[],[],[],[],,541.2944,541.2945,-0.047287303,-0.370970484,0,0,0,,0,95,95,14,1,1,RL,lofase,print,lofase_p.png,,,,,
,,,,31889,001,2025-10-21_20h25.32.791,HW_LDT_1,2024.2.4,MacIntel,58.47953216,,,,,,,,,,,,,,,,,,,,,,541.2957,541.494,541.4941,541.9932,,,,,,,,,,,,,,0.7548,1,,,,,,,,,,,,,,z,,,,,,,,,,,,,,,97,0,541.9937,542.7607,z,1,0.7548,,[],[],[],[],[],[],[],542.7609,544.7607,544.7608,544.761,[],[],[],[],[],[],[],,544.761,544.7611,-0.047287303,-0.370970484,0,0,0,,0,96,96,23,1,1,RL,potugar,cursive,potugar_c.png,,,,,
,,,,31889,001,2025-10-21_20h25.32.791,HW_LDT_1,2024.2.4,MacIntel,58.47953216,,,,,,,,,,,,,,,,,,,,,,544.7623,544.9607,544.9607,545.4604,,,,,,,,,,,,,,0.9725,1,,,,,,,,,,,,,,z,,,,,,,,,,,,,,,98,0,545.4611,546.4432,z,1,0.9725,,[],[],[],[],[],[],[],546.4433,548.444,548.444,548.4442,[],[],[],[],[],[],[],,548.4444,548.4444,-0.047287303,-0.370970484,0,0,0,,0,97,97,0,1,1,RL,abanemy,cursive,abanemy_c.png,,,,,
,,,,31889,001,2025-10-21_20h25.32.791,HW_LDT_1,2024.2.4,MacIntel,58.47953216,,,,,,,,,,,,,,,,,,,,,,548.4456,548.6431,548.6432,549.144,,,,,,,,,,,,,,1.6708,1,,,,,,,,,,,,,,z,,,,,,,,,,,,,,,99,0,549.1446,550.8274,z,1,1.6708,,[],[],[],[],[],[],[],550.8276,552.8273,552.8274,552.8276,[],[],[],[],[],[],[],,552.8277,552.8278,-0.047287303,-0.370970484,0,0,0,,0,98,98,64,1,1,TL,orepator,cursive,orepator_c.png,,,,,
,,,,31889,001,2025-10-21_20h25.32.791,HW_LDT_1,2024.2.4,MacIntel,58.47953216,,,,,,,,,,,,,,,,,,,,,,552.8291,553.0273,553.0273,553.5273,,,,,,,,,,,,,,0.837,1,,,,,,,,,,,,,,m,,,,,,,,,,,,,,,100,0,553.5279,554.3775,m,1,0.837,,[],[],[],[],[],[],[],554.3776,556.3774,556.3774,556.3776,[],[],[],[],[],[],[],,556.3776,556.3777,-0.047287303,-0.370970484,0,0,0,,0,99,99,132,1,1,word,PROPOSAL,cursive,proposal_c.png,,,,,
,,,,31889,001,2025-10-21_20h25.32.791,HW_LDT_1,2024.2.4,MacIntel,58.47953216,,,,,,,,,,,,,,,,,,,,,,556.379,556.5773,556.5774,557.0773,,,,,,,,,,,,,,0.9301,1,,,,,,,,,,,,,,m,,,,,,,,,,,,,,,101,0,557.0779,558.0107,m,1,0.9301,,[],[],[],[],[],[],[],558.0108,560.0108,560.0108,560.011,[],[],[],[],[],[],[],,560.0111,560.0112,-0.047287303,-0.370970484,0,0,0,,0,100,100,85,1,1,word,BENEFIT,print,benefit_p.png,,,,,
,,,,31889,001,2025-10-21_20h25.32.791,HW_LDT_1,2024.2.4,MacIntel,58.47953216,,,,,,,,,,,,,,,,,,,,,,560.0123,560.2106,560.2107,560.7108,,,,,,,,,,,,,,0.704,1,,,,,,,,,,,,,,m,,,,,,,,,,,,,,,102,0,560.7114,561.4267,m,1,0.704,,[],[],[],[],[],[],[],561.4268,563.4273,563.4273,563.4276,[],[],[],[],[],[],[],,563.4277,563.4277,-0.047287303,-0.370970484,0,0,0,,0,101,101,154,1,1,word,STORAGE,cursive,storage_c.png,,,,,
,,,,31889,001,2025-10-21_20h25.32.791,HW_LDT_1,2024.2.4,MacIntel,58.47953216,,,,,,,,,,,,,,,,,,,,,,563.429,563.6274,563.6275,564.1273,,,,,,,,,,,,,,0.721,1,,,,,,,,,,,,,,m,,,,,,,,,,,,,,,103,0,564.1279,564.8604,m,1,0.721,,[],[],[],[],[],[],[],564.8605,566.8607,566.8607,566.8609,[],[],[],[],[],[],[],,566.8611,566.8611,-0.047287303,-0.370970484,0,0,0,,0,102,102,113,1,1,word,LITERAL,print,literal_p.png,,,,,
,,,,31889,001,2025-10-21_20h25.32.791,HW_LDT_1,2024.2.4,MacIntel,58.47953216,,,,,,,,,,,,,,,,,,,,,,566.8623,567.0607,567.0607,567.5606,,,,,,,,,,,,,,0.7699,1,,,,,,,,,,,,,,z,,,,,,,,,,,,,,,104,0,567.5612,568.3432,z,1,0.7699,,[],[],[],[],[],[],[],568.3433,570.3431,570.3431,570.3433,[],[],[],[],[],[],[],,570.3433,570.3435,-0.047287303,-0.370970484,0,0,0,,0,103,103,79,1,1,TL,veretan,print,veretan_p.png,,,,,
,,,,31889,001,2025-10-21_20h25.32.791,HW_LDT_1,2024.2.4,MacIntel,58.47953216,,,,,,,,,,,,,,,,,,,,,,570.3447,570.5441,570.5441,571.044,,,,,,,,,,,,,,0.6543,1,,,,,,,,,,,,,,m,,,,,,,,,,,,,,,105,0,571.0446,571.7098,m,1,0.6543,,[],[],[],[],[],[],[],571.71,573.7107,573.7107,573.7109,[],[],[],[],[],[],[],,573.711,573.711,-0.047287303,-0.370970484,0,0,0,,0,104,104,99,1,1,word,DEBATE,print,debate_p.png,,,,,
,,,,31889,001,2025-10-21_20h25.32.791,HW_LDT_1,2024.2.4,MacIntel,58.47953216,,,,,,,,,,,,,,,,,,,,,,573.7123,573.9098,573.9098,574.4107,,,,,,,,,,,,,,0.6049,1,,,,,,,,,,,,,,m,,,,,,,,,,,,,,,106,0,574.4112,575.0266,m,1,0.6049,,[],[],[],[],[],[],[],575.0266,577.0265,577.0265,577.0267,[],[],[],[],[],[],[],,577.0267,577.0269,-0.047287303,-0.370970484,0,0,0,,0,105,105,133,1,1,word,PROVIDE,print,provide_p.png,,,,,
,,,,31889,001,2025-10-21_20h25.32.791,HW_LDT_1,2024.2.4,MacIntel,58.47953216,,,,,,,,,,,,,,,,,,,,,,577.0281,577.2273,577.2273,577.7273,,,,,,,,,,,,,,0.632,1,,,,,,,,,,,,,,m,,,,,,,,,,,,,,,107,0,577.728,578.3608,m,1,0.632,,[],[],[],[],[],[],[],578.3611,580.3606,580.3606,580.361,[],[],[],[],[],[],[],,580.361,580.3611,-0.047287303,-0.370970484,0,0,0,,0,106,106,148,1,1,word,SALINE,print,saline_p.png,,,,,
,,,,31889,001,2025-10-21_20h25.32.791,HW_LDT_1,2024.2.4,MacIntel,58.47953216,,,,,,,,,,,,,,,,,,,,,,580.3622,580.5597,580.5598,581.0607,,,,,,,,,,,,,,0.7278,1,,,,,,,,,,,,,,m,,,,,,,,,,,,,,,108,1,581.0613,581.7937,m,1,0.7278,,[],[],[],[],[],[],[],581.7938,583.794,583.794,585.3109,[],[],[],[],[],[],[],z,585.311,585.3112,-0.047287303,-0.370970484,0,0,0,,0,107,107,118,1,1,word,MEDICINE,cursive,medicine_c.png,1.5156,,,,
,,,,31889,001,2025-10-21_20h25.32.791,HW_LDT_1,2024.2.4,MacIntel,58.47953216,,,,,,,,,,,,,,,,,,,,,,585.3123,585.5106,585.5107,586.0098,,,,,,,,,,,,,,2.5885,1,,,,,,,,,,,,,,m,,,,,,,,,,,,,,,109,1,586.0103,588.6108,m,1,2.5885,,[],[],[],[],[],[],[],588.6109,590.6106,590.6107,592.1098,[],[],[],[],[],[],[],z,592.1099,592.11,-0.047287303,-0.370970484,0,0,0,,0,108,108,93,1,1,word,CEREMONY,cursive,ceremony_c.png,1.4925,,,,
,,,,31889,001,2025-10-21_20h25.32.791,HW_LDT_1,2024.2.4,MacIntel,58.47953216,,,,,,,,,,,,,,,,,,,,,,592.1111,592.3107,592.3107,592.8098,,,,,,,,,,,,,,0.8889,1,,,,,,,,,,,,,,z,,,,,,,,,,,,,,,110,0,592.8104,593.7098,z,1,0.8889,,[],[],[],[],[],[],[],593.7099,595.7106,595.7107,595.7109,[],[],[],[],[],[],[],,595.711,595.7111,-0.047287303,-0.370970484,0,0,0,,0,109,109,46,1,1,TL,catipal,print,catipal_p.png,,,,,
,,,,31889,001,2025-10-21_20h25.32.791,HW_LDT_1,2024.2.4,MacIntel,58.47953216,,,,,,,,,,,,,,,,,,,,,,595.7123,595.9108,595.9108,596.4106,,,,,,,,,,,,,,1.7474,1,,,,,,,,,,,,,,z,,,,,,,,,,,,,,,111,0,596.4112,598.1599,z,1,1.7474,,[],[],[],[],[],[],[],598.16,600.1597,600.1598,600.16,[],[],[],[],[],[],[],,600.16,600.1602,-0.047287303,-0.370970484,0,0,0,,0,110,110,77,1,1,TL,tritube,cursive,tritube_c.png,,,,,
,,,,31889,001,2025-10-21_20h25.32.791,HW_LDT_1,2024.2.4,MacIntel,58.47953216,,,,,,,,,,,,,,,,,,,,,,600.1614,600.3605,600.3605,600.8597,,,,,,,,,,,,,,0.9555,1,,,,,,,,,,,,,,m,,,,,,,,,,,,,,,112,0,600.8603,601.8265,m,1,0.9555,,[],[],[],[],[],[],[],601.8266,603.8263,603.8264,603.8265,[],[],[],[],[],[],[],,603.8266,603.8267,-0.047287303,-0.370970484,0,0,0,,0,111,111,86,1,1,word,BESIDE,print,beside_p.png,,,,,
,,,,31889,001,2025-10-21_20h25.32.791,HW_LDT_1,2024.2.4,MacIntel,58.47953216,,,,,,,,,,,,,,,,,,,,,,603.8279,604.0273,604.0273,604.5273,,,,,,,,,,,,,,0.6204,1,,,,,,,,,,,,,,m,,,,,,,,,,,,,,,113,0,604.5279,605.1608,m,1,0.6204,,[],[],[],[],[],[],[],605.1609,607.1607,607.1607,607.161,[],[],[],[],[],[],[],,607.161,607.1611,-0.047287303,-0.370970484,0,0,0,,0,112,112,114,1,1,word,LOCATE,print,locate_p.png,,,,,
,,,,31889,001,2025-10-21_20h25.32.791,HW_LDT_1,2024.2.4,MacIntel,58.47953216,,,,,,,,,,,,,,,,,,,,,,607.1624,607.3607,607.3607,607.8607,,,,,,,,,,,,,,0.6045,1,,,,,,,,,,,,,,z,,,,,,,,,,,,,,,114,0,607.8613,608.4775,z,1,0.6045,,[],[],[],[],[],[],[],608.4776,610.4773,610.4773,610.4776,[],[],[],[],[],[],[],,610.4776,610.4777,-0.047287303,-0.370970484,0,0,0,,0,113,113,8,1,1,RL,debave,print,debave_p.png,,,,,
,,,,31889,001,2025-10-21_20h25.32.791,HW_LDT_1,2024.2.4,MacIntel,58.47953216,,,,,,,,,,,,,,,,,,,,,,610.4791,610.6773,610.6773,611.1773,,,,,,,,,,,,,,0.8207,1,,,,,,,,,,,,,,m,,,,,,,,,,,,,,,115,0,611.178,612.0108,m,1,0.8207,,[],[],[],[],[],[],[],612.0109,614.0107,614.0107,614.011,[],[],[],[],[],[],[],,614.011,614.011,-0.047287303,-0.370970484,0,0,0,,0,114,114,144,1,1,word,RESIDENT,print,resident_p.png,,,,,
,,,,31889,001,2025-10-21_20h25.32.791,HW_LDT_1,2024.2.4,MacIntel,58.47953216,,,,,,,,,,,,,,,,,,,,,,614.0124,614.2107,614.2108,614.7107,,,,,,,,,,,,,,3.1209,1,,,,,,,,,,,,,,m,,,,,,,,,,,,,,,116,0,614.7111,617.8442,m,1,3.1209,,[],[],[],[],[],[],[],617.8443,619.8439,619.844,619.8442,[],[],[],[],[],[],[],,619.8442,619.8444,-0.047287303,-0.370970484,0,0,0,,0,115,115,152,1,1,word,SPECIMEN,cursive,specimen_c.png,,,,,
,,,,31889,001,2025-10-21_20h25.32.791,HW_LDT_1,2024.2.4,MacIntel,58.47953216,,,,,,,,,,,,,,,,,,,,,,619.8459,620.0439,620.044,620.544,,,,,,,,,,,,,,2.1155,1,,,,,,,,,,,,,,z,,,,,,,,,,,,,,,117,0,620.5446,622.6611,z,1,2.1155,,[],[],[],[],[],[],[],622.6612,624.6606,624.6606,624.6609,[],[],[],[],[],[],[],,624.661,624.6611,-0.047287303,-0.370970484,0,0,0,,0,116,116,1,1,1,RL,adnicory,cursive,adnicory_c.png,,,,,
,,,,31889,001,2025-10-21_20h25.32.791,HW_LDT_1,2024.2.4,MacIntel,58.47953216,,,,,,,,,,,,,,,,,,,,,,624.6623,624.8607,624.8607,625.3605,,,,,,,,,,,,,,2.449,0,,,,,,,,,,,,,,m,,,,,,,,,,,,,,,118,0,625.361,627.8109,z,0,2.449,,[],[],[],[],[],[],[],627.8109,629.8106,629.8106,629.8108,[],[],[],[],[],[],[],,629.8109,629.811,-0.047287303,-0.370970484,0,0,0,,0,117,117,146,1,1,word,RETIRE,cursive,retire_c.png,,,,,
,,,,31889,001,2025-10-21_20h25.32.791,HW_LDT_1,2024.2.4,MacIntel,58.47953216,,,,,,,,,,,,,,,,,,,,,,629.8121,630.0106,630.0107,630.5106,,,,,,,,,,,,,,0.7489,1,,,,,,,,,,,,,,m,,,,,,,,,,,,,,,119,1,630.5112,631.2609,m,1,0.7489,,[],[],[],[],[],[],[],631.261,633.2606,633.2607,634.6607,[],[],[],[],[],[],[],m,634.6608,634.6609,-0.047287303,-0.370970484,0,0,0,,0,118,118,83,1,1,word,ANIMAL,print,animal_p.png,1.3977,,,,
,,,,31889,001,2025-10-21_20h25.32.791,HW_LDT_1,2024.2.4,MacIntel,58.47953216,,,,,,,,,,,,,,,,,,,,,,634.662,634.8604,634.8604,635.3607,,,,,,,,,,,,,,1.3733,0,,,,,,,,,,,,,,m,,,,,,,,,,,,,,,120,0,635.3613,636.744,z,0,1.3733,,[],[],[],[],[],[],[],636.7441,638.7439,638.744,638.7442,[],[],[],[],[],[],[],,638.7443,638.7444,-0.047287303,-0.370970484,0,0,0,,0,119,119,149,1,1,word,SENATOR,cursive,senator_c.png,,,,,
,,,,31889,001,2025-10-21_20h25.32.791,HW_LDT_1,2024.2.4,MacIntel,58.47953216,,,,,,,,,,,,,,,,,,,,,,638.7456,638.9439,638.944,639.444,,,,,,,,,,,,,,1.6319,1,,,,,,,,,,,,,,z,,,,,,,,,,,,,,,121,1,639.4445,641.0774,z,1,1.6319,,[],[],[],[],[],[],[],641.0775,643.0773,643.0773,644.044,[],[],[],[],[],[],[],z,644.0441,644.0441,-0.047287303,-0.370970484,0,0,0,,0,120,120,52,1,1,TL,decilate,cursive,decilate_c.png,0.9583,,,,
,,,,31889,001,2025-10-21_20h25.32.791,HW_LDT_1,2024.2.4,MacIntel,58.47953216,,,,,,,,,,,,,,,,,,,,,,644.0449,644.2439,644.244,644.744,,,,,,,,,,,,,,0.7374,1,,,,,,,,,,,,,,z,,,,,,,,,,,,,,,122,1,644.7444,645.4941,z,1,0.7374,,[],[],[],[],[],[],[],645.4942,647.4939,647.494,648.6774,[],[],[],[],[],[],[],m,648.6774,648.6776,-0.047287303,-0.370970484,0,0,0,,0,121,121,18,1,1,RL,mishafe,print,mishafe_p.png,1.1814,,,,
,,,,31889,001,2025-10-21_20h25.32.791,HW_LDT_1,2024.2.4,MacIntel,58.47953216,,,,,,,,,,,,,,,,,,,,,,648.6786,648.8774,648.8774,649.3772,,,,,,,,,,,,,,0.7207,1,,,,,,,,,,,,,,m,,,,,,,,,,,,,,,123,0,649.3778,650.1106,m,1,0.7207,,[],[],[],[],[],[],[],650.1107,652.1106,652.1107,652.1109,[],[],[],[],[],[],[],,652.111,652.1111,-0.047287303,-0.370970484,0,0,0,,0,122,122,116,1,1,word,MARGINAL,print,marginal_p.png,,,,,
,,,,31889,001,2025-10-21_20h25.32.791,HW_LDT_1,2024.2.4,MacIntel,58.47953216,,,,,,,,,,,,,,,,,,,,,,652.1122,652.3106,652.3107,652.8106,,,,,,,,,,,,,,0.6397,1,,,,,,,,,,,,,,z,,,,,,,,,,,,,,,124,0,652.8112,653.4607,z,1,0.6397,,[],[],[],[],[],[],[],653.4608,655.4607,655.4607,655.4609,[],[],[],[],[],[],[],,655.461,655.4611,-0.047287303,-0.370970484,0,0,0,,0,123,123,2,1,1,RL,asiral,print,asiral_p.png,,,,,
,,,,31889,001,2025-10-21_20h25.32.791,HW_LDT_1,2024.2.4,MacIntel,58.47953216,,,,,,,,,,,,,,,,,,,,,,655.4622,655.6606,655.6607,656.1606,,,,,,,,,,,,,,0.8046,1,,,,,,,,,,,,,,m,,,,,,,,,,,,,,,125,0,656.1612,656.9774,m,1,0.8046,,[],[],[],[],[],[],[],656.9775,658.9773,658.9773,658.9776,[],[],[],[],[],[],[],,658.9776,658.9777,-0.047287303,-0.370970484,0,0,0,,0,124,124,121,1,1,word,MISTAKE,print,mistake_p.png,,,,,
,,,,31889,001,2025-10-21_20h25.32.791,HW_LDT_1,2024.2.4,MacIntel,58.47953216,,,,,,,,,,,,,,,,,,,,,,658.9789,659.1773,659.1774,659.6773,,,,,,,,,,,,,,0.5898,1,,,,,,,,,,,,,,m,,,,,,,,,,,,,,,126,0,659.6778,660.2774,m,1,0.5898,,[],[],[],[],[],[],[],660.2774,662.2774,662.2774,662.2777,[],[],[],[],[],[],[],,662.2777,662.2778,-0.047287303,-0.370970484,0,0,0,,0,125,125,142,1,1,word,REMOTE,print,remote_p.png,,,,,
,,,,31889,001,2025-10-21_20h25.32.791,HW_LDT_1,2024.2.4,MacIntel,58.47953216,,,,,,,,,,,,,,,,,,,,,,662.279,662.4773,662.4773,662.9773,,,,,,,,,,,,,,0.9133,0,,,,,,,,,,,,,,m,,,,,,,,,,,,,,,127,0,662.9779,663.894,z,0,0.9133,,[],[],[],[],[],[],[],663.8941,665.8939,665.894,665.8943,[],[],[],[],[],[],[],,665.8943,665.8944,-0.047287303,-0.370970484,0,0,0,,0,126,126,102,1,1,word,DENSITY,cursive,density_c.png,,,,,
,,,,31889,001,2025-10-21_20h25.32.791,HW_LDT_1,2024.2.4,MacIntel,58.47953216,,,,,,,,,,,,,,,,,,,,,,665.8956,666.094,666.094,666.594,,,,,,,,,,,,,,1.0063,1,,,,,,,,,,,,,,m,,,,,,,,,,,,,,,128,0,666.5946,667.6105,m,1,1.0063,,[],[],[],[],[],[],[],667.6106,669.6105,669.6105,669.6108,[],[],[],[],[],[],[],,669.6109,669.611,-0.047287303,-0.370970484,0,0,0,,0,127,127,156,1,1,word,TRIBUTE,cursive,tribute_c.png,,,,,
,,,,31889,001,2025-10-21_20h25.32.791,HW_LDT_1,2024.2.4,MacIntel,58.47953216,,,,,,,,,,,,,,,,,,,,,,669.6122,669.8106,669.8107,670.3107,,,,,,,,,,,,,,1.4712,1,,,,,,,,,,,,,,z,,,,,,,,,,,,,,,129,1,670.3113,671.7941,z,1,1.4712,,[],[],[],[],[],[],[],671.7941,673.7939,673.7939,674.9608,[],[],[],[],[],[],[],z,674.9609,674.9612,-0.047287303,-0.370970484,0,0,0,,0,128,128,66,1,1,TL,panert,cursive,panert_c.png,1.1662,,,,
,,,,31889,001,2025-10-21_20h25.32.791,HW_LDT_1,2024.2.4,MacIntel,58.47953216,,,,,,,,,,,,,,,,,,,,,,674.9625,675.1606,675.1607,675.6607,,,,,,,,,,,,,,0.7633,1,,,,,,,,,,,,,,z,,,,,,,,,,,,,,,130,1,675.6612,676.4274,z,1,0.7633,,[],[],[],[],[],[],[],676.4274,678.4273,678.4273,681.6107,[],[],[],[],[],[],[],z,681.6108,681.6109,-0.047287303,-0.370970484,0,0,0,,0,129,129,37,1,1,RL,skofen,print,skofen_p.png,3.1762,,,,
,,,,31889,001,2025-10-21_20h25.32.791,HW_LDT_1,2024.2.4,MacIntel,58.47953216,,,,,,,,,,,,,,,,,,,,,,681.6121,681.8107,681.8107,682.3106,,,,,,,,,,,,,,3.0795,1,,,,,,,,,,,,,,m,,,,,,,,,,,,,,,131,0,682.3113,685.394,m,1,3.0795,,[],[],[],[],[],[],[],685.3941,687.3939,687.394,687.3942,[],[],[],[],[],[],[],,687.3942,687.3943,-0.047287303,-0.370970484,0,0,0,,0,130,130,134,1,1,word,QUALIFY,cursive,qualify_c.png,,,,,
,,,,31889,001,2025-10-21_20h25.32.791,HW_LDT_1,2024.2.4,MacIntel,58.47953216,,,,,,,,,,,,,,,,,,,,,,687.3956,687.594,687.594,688.094,,,,,,,,,,,,,,2.5585,1,,,,,,,,,,,,,,z,,,,,,,,,,,,,,,132,0,688.0945,690.6607,z,1,2.5585,,[],[],[],[],[],[],[],690.6608,692.6606,692.6607,692.6608,[],[],[],[],[],[],[],,692.6609,692.661,-0.047287303,-0.370970484,0,0,0,,0,131,131,53,1,1,TL,dentisy,cursive,dentisy_c.png,,,,,
,,,,31889,001,2025-10-21_20h25.32.791,HW_LDT_1,2024.2.4,MacIntel,58.47953216,,,,,,,,,,,,,,,,,,,,,,692.6622,692.8606,692.8606,693.3606,,,,,,,,,,,,,,4.0058,1,,,,,,,,,,,,,,z,,,,,,,,,,,,,,,133,0,693.3611,697.3775,z,1,4.0058,,[],[],[],[],[],[],[],697.3776,699.3772,699.3773,699.3775,[],[],[],[],[],[],[],,699.3775,699.3776,-0.047287303,-0.370970484,0,0,0,,0,132,132,33,1,1,RL,recile,cursive,recile_c.png,,,,,
,,,,31889,001,2025-10-21_20h25.32.791,HW_LDT_1,2024.2.4,MacIntel,58.47953216,,,,,,,,,,,,,,,,,,,,,,699.3789,699.5773,699.5773,700.0772,,,,,,,,,,,,,,0.9785,1,,,,,,,,,,,,,,m,,,,,,,,,,,,,,,134,0,700.0779,701.0607,m,1,0.9785,,[],[],[],[],[],[],[],701.0607,703.0607,703.0607,703.061,[],[],[],[],[],[],[],,703.061,703.0611,-0.047287303,-0.370970484,0,0,0,,0,133,133,126,1,1,word,OPTIMAL,print,optimal_p.png,,,,,
,,,,31889,001,2025-10-21_20h25.32.791,HW_LDT_1,2024.2.4,MacIntel,58.47953216,,,,,,,,,,,,,,,,,,,,,,703.0624,703.2607,703.2607,703.7606,,,,,,,,,,,,,,2.4729,1,,,,,,,,,,,,,,z,,,,,,,,,,,,,,,135,0,703.7614,706.2436,z,1,2.4729,,[],[],[],[],[],[],[],706.2437,708.2439,708.244,708.2441,[],[],[],[],[],[],[],,708.2442,708.2443,-0.047287303,-0.370970484,0,0,0,,0,134,134,48,1,1,TL,cemerony,cursive,cemerony_c.png,,,,,
,,,,31889,001,2025-10-21_20h25.32.791,HW_LDT_1,2024.2.4,MacIntel,58.47953216,,,,,,,,,,,,,,,,,,,,,,708.2457,708.4438,708.4438,708.9439,,,,,,,,,,,,,,1.1989,1,,,,,,,,,,,,,,z,,,,,,,,,,,,,,,136,0,708.9445,710.1443,z,1,1.1989,,[],[],[],[],[],[],[],710.1444,712.1438,712.1439,712.1443,[],[],[],[],[],[],[],,712.1443,712.1444,-0.047287303,-0.370970484,0,0,0,,0,135,135,25,1,1,RL,quakity,cursive,quakity_c.png,,,,,
,,,,31889,001,2025-10-21_20h25.32.791,HW_LDT_1,2024.2.4,MacIntel,58.47953216,,,,,,,,,,,,,,,,,,,,,,712.1456,712.3439,712.344,712.8439,,,,,,,,,,,,,,0.7233,1,,,,,,,,,,,,,,m,,,,,,,,,,,,,,,137,0,712.8445,713.5772,m,1,0.7233,,[],[],[],[],[],[],[],713.5773,715.5772,715.5773,715.5776,[],[],[],[],[],[],[],,715.5776,715.5777,-0.047287303,-0.370970484,0,0,0,,0,136,136,96,1,1,word,CONSIDER,cursive,consider_c.png,,,,,
,,,,31889,001,2025-10-21_20h25.32.791,HW_LDT_1,2024.2.4,MacIntel,58.47953216,,,,,,,,,,,,,,,,,,,,,,715.5789,715.7772,715.7773,716.2773,,,,,,,,,,,,,,0.6373,1,,,,,,,,,,,,,,m,,,,,,,,,,,,,,,138,0,716.2778,716.9274,m,1,0.6373,,[],[],[],[],[],[],[],716.9275,718.9272,718.9273,718.9275,[],[],[],[],[],[],[],,718.9275,718.9277,-0.047287303,-0.370970484,0,0,0,,0,137,137,90,1,1,word,CAPITAL,print,capital_p.png,,,,,
,,,,31889,001,2025-10-21_20h25.32.791,HW_LDT_1,2024.2.4,MacIntel,58.47953216,,,,,,,,,,,,,,,,,,,,,,718.9289,719.1273,719.1273,719.6274,,,,,,,,,,,,,,1.4705,0,,,,,,,,,,,,,,z,,,,,,,,,,,,,,,139,0,719.6279,721.1106,m,0,1.4705,,[],[],[],[],[],[],[],721.1108,723.1107,723.1107,723.1109,[],[],[],[],[],[],[],,723.111,723.1111,-0.047287303,-0.370970484,0,0,0,,0,138,138,71,1,1,TL,regilion,cursive,regilion_c.png,,,,,
,,,,31889,001,2025-10-21_20h25.32.791,HW_LDT_1,2024.2.4,MacIntel,58.47953216,,,,,,,,,,,,,,,,,,,,,,723.1122,723.3106,723.3106,723.8107,,,,,,,,,,,,,,0.7816,1,,,,,,,,,,,,,,z,,,,,,,,,,,,,,,140,0,723.8113,724.5939,z,1,0.7816,,[],[],[],[],[],[],[],724.594,726.594,726.594,726.5941,[],[],[],[],[],[],[],,726.5942,726.5944,-0.047287303,-0.370970484,0,0,0,,0,139,139,63,1,1,TL,molibe,cursive,molibe_c.png,,,,,
,,,,31889,001,2025-10-21_20h25.32.791,HW_LDT_1,2024.2.4,MacIntel,58.47953216,,,,,,,,,,,,,,,,,,,,,,726.5955,726.7939,726.7939,727.2939,,,,,,,,,,,,,,1.1377,1,,,,,,,,,,,,,,m,,,,,,,,,,,,,,,141,0,727.2944,728.444,m,1,1.1377,,[],[],[],[],[],[],[],728.4441,730.4439,730.444,730.4442,[],[],[],[],[],[],[],,730.4443,730.4444,-0.047287303,-0.370970484,0,0,0,,0,140,140,107,1,1,word,EVIDENT,print,evident_p.png,,,,,
,,,,31889,001,2025-10-21_20h25.32.791,HW_LDT_1,2024.2.4,MacIntel,58.47953216,,,,,,,,,,,,,,,,,,,,,,730.4455,730.644,730.644,731.1439,,,,,,,,,,,,,,0.5919,1,,,,,,,,,,,,,,m,,,,,,,,,,,,,,,142,0,731.1444,731.7439,m,1,0.5919,,[],[],[],[],[],[],[],731.744,733.7439,733.7439,733.7441,[],[],[],[],[],[],[],,733.7442,733.7443,-0.047287303,-0.370970484,0,0,0,,0,141,141,138,1,1,word,REFUSAL,print,refusal_p.png,,,,,
,,,,31889,001,2025-10-21_20h25.32.791,HW_LDT_1,2024.2.4,MacIntel,58.47953216,,,,,,,,,,,,,,,,,,,,,,733.7455,733.9439,733.944,734.4439,,,,,,,,,,,,,,1.1211,1,,,,,,,,,,,,,,z,,,,,,,,,,,,,,,143,0,734.4444,735.5771,z,1,1.1211,,[],[],[],[],[],[],[],735.5773,737.5772,737.5773,737.5775,[],[],[],[],[],[],[],,737.5776,737.5777,-0.047287303,-0.370970484,0,0,0,,0,142,142,42,1,1,TL,befenit,print,befenit_p.png,,,,,
,,,,31889,001,2025-10-21_20h25.32.791,HW_LDT_1,2024.2.4,MacIntel,58.47953216,,,,,,,,,,,,,,,,,,,,,,737.5789,737.7772,737.7773,738.2772,,,,,,,,,,,,,,2.5042,1,,,,,,,,,,,,,,z,,,,,,,,,,,,,,,144,0,738.2778,740.794,z,1,2.5042,,[],[],[],[],[],[],[],740.7941,742.7929,742.793,742.7932,[],[],[],[],[],[],[],,742.7933,742.7934,-0.047287303,-0.370970484,0,0,0,,0,143,143,54,1,1,TL,distupe,cursive,distupe_c.png,,,,,
,,,,31889,001,2025-10-21_20h25.32.791,HW_LDT_1,2024.2.4,MacIntel,58.47953216,,,,,,,,,,,,,,,,,,,,,,742.7945,742.9939,742.994,743.4933,,,,,,,,,,,,,,1.3426,1,,,,,,,,,,,,,,z,,,,,,,,,,,,,,,145,0,743.4938,744.8441,z,1,1.3426,,[],[],[],[],[],[],[],744.8441,746.8439,746.844,746.8441,[],[],[],[],[],[],[],,746.8442,746.8444,-0.047287303,-0.370970484,0,0,0,,0,144,144,49,1,1,TL,clicinal,cursive,clicinal_c.png,,,,,
,,,,31889,001,2025-10-21_20h25.32.791,HW_LDT_1,2024.2.4,MacIntel,58.47953216,,,,,,,,,,,,,,,,,,,,,,746.8455,747.0429,747.043,747.5439,,,,,,,,,,,,,,1.4532,1,,,,,,,,,,,,,,z,,,,,,,,,,,,,,,146,1,747.5444,749.0093,z,1,1.4532,,[],[],[],[],[],[],[],749.0094,751.0105,751.0106,753.3439,[],[],[],[],[],[],[],z,753.344,753.3441,-0.047287303,-0.370970484,0,0,0,,0,145,145,35,1,1,RL,senvilent,cursive,senvilent_c.png,2.3214,,,,
,,,,31889,001,2025-10-21_20h25.32.791,HW_LDT_1,2024.2.4,MacIntel,58.47953216,,,,,,,,,,,,,,,,,,,,,,753.3451,753.5439,753.544,754.0435,,,,,,,,,,,,,,1.7583,1,,,,,,,,,,,,,,z,,,,,,,,,,,,,,,147,1,754.0437,755.8097,z,1,1.7583,,[],[],[],[],[],[],[],755.8097,757.8106,757.8106,758.6274,[],[],[],[],[],[],[],z,758.6275,758.6276,-0.047287303,-0.370970484,0,0,0,,0,146,146,29,1,1,RL,refakive,cursive,refakive_c.png,0.8046,,,,
,,,,31889,001,2025-10-21_20h25.32.791,HW_LDT_1,2024.2.4,MacIntel,58.47953216,,,,,,,,,,,,,,,,,,,,,,758.6288,758.8264,758.8264,759.3272,,,,,,,,,,,,,,1.2967,1,,,,,,,,,,,,,,m,,,,,,,,,,,,,,,148,0,759.3278,760.6273,m,1,1.2967,,[],[],[],[],[],[],[],760.6273,762.6273,762.6274,762.6276,[],[],[],[],[],[],[],,762.6277,762.6278,-0.047287303,-0.370970484,0,0,0,,0,147,147,104,1,1,word,DOMINANT,cursive,dominant_c.png,,,,,
,,,,31889,001,2025-10-21_20h25.32.791,HW_LDT_1,2024.2.4,MacIntel,58.47953216,,,,,,,,,,,,,,,,,,,,,,762.6291,762.8272,762.8272,763.3262,,,,,,,,,,,,,,0.639,1,,,,,,,,,,,,,,z,,,,,,,,,,,,,,,149,0,763.3267,763.9773,z,1,0.639,,[],[],[],[],[],[],[],763.9773,765.9772,765.9772,765.9775,[],[],[],[],[],[],[],,765.9775,765.9776,-0.047287303,-0.370970484,0,0,0,,0,148,148,27,1,1,RL,rasibal,print,rasibal_p.png,,,,,
,,,,31889,001,2025-10-21_20h25.32.791,HW_LDT_1,2024.2.4,MacIntel,58.47953216,,,,,,,,,,,,,,,,,,,,,,765.9787,766.1772,766.1773,766.6773,,,,,,,,,,,,,,2.6041,0,,,,,,,,,,,,,,m,,,,,,,,,,,,,,,150,1,766.6779,769.294,z,0,2.6041,,[],[],[],[],[],[],[],769.2941,771.2938,771.2939,772.2607,[],[],[],[],[],[],[],z,772.2608,772.2608,-0.047287303,-0.370970484,0,0,0,,0,149,149,129,1,1,word,PARENT,cursive,parent_c.png,0.9586,,,,
,,,,31889,001,2025-10-21_20h25.32.791,HW_LDT_1,2024.2.4,MacIntel,58.47953216,,,,,,,,,,,,,,,,,,,,,,772.2621,772.4595,772.4596,772.9595,,,,,,,,,,,,,,1.4392,0,,,,,,,,,,,,,,m,,,,,,,,,,,,,,,151,0,772.9602,774.4106,z,0,1.4392,,[],[],[],[],[],[],[],774.4107,776.4105,776.4106,776.4107,[],[],[],[],[],[],[],,776.4107,776.4108,-0.047287303,-0.370970484,0,0,0,,0,150,150,87,1,1,word,CAFETERIA,cursive,cafeteria_c.png,,,,,
,,,,31889,001,2025-10-21_20h25.32.791,HW_LDT_1,2024.2.4,MacIntel,58.47953216,,,,,,,,,,,,,,,,,,,,,,776.412,776.6096,776.6096,777.1106,,,,,,,,,,,,,,0.7298,1,,,,,,,,,,,,,,z,,,,,,,,,,,,,,,152,1,777.1113,777.8439,z,1,0.7298,,[],[],[],[],[],[],[],777.844,779.8439,779.844,781.2943,[],[],[],[],[],[],[],m,781.2943,781.2945,-0.047287303,-0.370970484,0,0,0,,0,151,151,7,1,1,RL,delahe,print,delahe_p.png,1.4498,,,,
,,,,31889,001,2025-10-21_20h25.32.791,HW_LDT_1,2024.2.4,MacIntel,58.47953216,,,,,,,,,,,,,,,,,,,,,,781.2956,781.4929,781.4929,781.9939,,,,,,,,,,,,,,1.422,0,,,,,,,,,,,,,,m,,,,,,,,,,,,,,,153,0,781.9945,783.4264,z,0,1.422,,[],[],[],[],[],[],[],783.4265,785.4272,785.4272,785.4274,[],[],[],[],[],[],[],,785.4275,785.4275,-0.047287303,-0.370970484,0,0,0,,0,152,152,111,1,1,word,INDICATE,cursive,indicate_c.png,,,,,
,,,,31889,001,2025-10-21_20h25.32.791,HW_LDT_1,2024.2.4,MacIntel,58.47953216,,,,,,,,,,,,,,,,,,,,,,785.4285,785.6273,785.6273,786.1262,,,,,,,,,,,,,,0.7162,1,,,,,,,,,,,,,,m,,,,,,,,,,,,,,,154,0,786.1268,786.8439,m,1,0.7162,,[],[],[],[],[],[],[],786.844,788.8439,788.844,788.8441,[],[],[],[],[],[],[],,788.8443,788.8444,-0.047287303,-0.370970484,0,0,0,,0,153,153,82,1,1,word,AMATEUR,print,amateur_p.png,,,,,
,,,,31889,001,2025-10-21_20h25.32.791,HW_LDT_1,2024.2.4,MacIntel,58.47953216,,,,,,,,,,,,,,,,,,,,,,788.8456,789.0429,789.0429,789.5429,,,,,,,,,,,,,,0.7665,1,,,,,,,,,,,,,,m,,,,,,,,,,,,,,,155,0,789.5435,790.3108,m,1,0.7665,,[],[],[],[],[],[],[],790.3109,792.3105,792.3106,792.3108,[],[],[],[],[],[],[],,792.3109,792.311,-0.047287303,-0.370970484,0,0,0,,0,154,154,112,1,1,word,LIBERAL,cursive,liberal_c.png,,,,,
,,,,31889,001,2025-10-21_20h25.32.791,HW_LDT_1,2024.2.4,MacIntel,58.47953216,,,,,,,,,,,,,,,,,,,,,,792.3122,792.5106,792.5106,793.0105,,,,,,,,,,,,,,0.9711,1,,,,,,,,,,,,,,z,,,,,,,,,,,,,,,156,0,793.0111,793.9939,z,1,0.9711,,[],[],[],[],[],[],[],793.994,795.9939,795.994,795.9942,[],[],[],[],[],[],[],,795.9942,795.9943,-0.047287303,-0.370970484,0,0,0,,0,155,155,59,1,1,TL,lirebal,cursive,lirebal_c.png,,,,,
,,,,31889,001,2025-10-21_20h25.32.791,HW_LDT_1,2024.2.4,MacIntel,58.47953216,,,,,,,,,,,,,,,,,,,,,,795.9955,796.1929,796.193,796.6941,,,,,,,,,,,,,,0.7652,1,,,,,,,,,,,,,,m,,,,,,,,,,,,,,,157,1,796.6946,797.4607,m,1,0.7652,,[],[],[],[],[],[],[],797.4608,799.4606,799.4606,800.6273,[],[],[],[],[],[],[],z,800.6274,800.6276,-0.047287303,-0.370970484,0,0,0,,0,156,156,131,1,1,word,POPULAR,cursive,popular_c.png,1.1555,,,,
,,,,31889,001,2025-10-21_20h25.32.791,HW_LDT_1,2024.2.4,MacIntel,58.47953216,,,,,,,,,,,,,,,,,,,,,,800.629,800.8272,800.8272,801.3272,,,,,,,,,,,,,,1.4706,1,,,,,,,,,,,,,,m,,,,,,,,,,,,,,,158,0,801.3278,802.8106,m,1,1.4706,,[],[],[],[],[],[],[],802.8107,804.8105,804.8106,804.8108,[],[],[],[],[],[],[],,804.8109,804.811,-0.047287303,-0.370970484,0,0,0,,0,157,157,147,1,1,word,ROMANTIC,cursive,romantic_c.png,,,,,
,,,,31889,001,2025-10-21_20h25.32.791,HW_LDT_1,2024.2.4,MacIntel,58.47953216,,,,,,,,,,,,,,,,,,,,,,804.812,805.0105,805.0106,805.5106,,,,,,,,,,,,,,0.8207,1,,,,,,,,,,,,,,m,,,,,,,,,,,,,,,159,0,805.5112,806.3441,m,1,0.8207,,[],[],[],[],[],[],[],806.3441,808.3428,808.343,808.3432,[],[],[],[],[],[],[],,808.3433,808.3433,-0.047287303,-0.370970484,0,0,0,,0,158,158,84,1,1,word,BELOVED,print,beloved_p.png,,,,,
,,,,31889,001,2025-10-21_20h25.32.791,HW_LDT_1,2024.2.4,MacIntel,58.47953216,,,,,,,,,,,,,,,,,,,,,,808.3445,808.5439,808.544,809.0439,,,,,,,,,,,,,,3.3875,0,,,,,,,,,,,,,,m,,,,,,,,,,,,,,,160,0,809.0445,812.4439,z,0,3.3875,,[],[],[],[],[],[],[],812.444,814.4439,814.4439,814.4441,[],[],[],[],[],[],[],,814.4442,814.4443,-0.047287303,-0.370970484,0,0,0,,0,159,159,140,1,1,word,RELATIVE,cursive,relative_c.png,,,,,
,,,,31889,001,2025-10-21_20h25.32.791,HW_LDT_1,2024.2.4,MacIntel,58.47953216,,,,,,,,,,,,,,,,,,,,,,,,,,,,,,,,,,,,,,,,,,,,,,,,,,,,,,,,,,,,,,,,,,,,,,,,,,,,,,,,,,,,,,,,,,,,,,,,,,,,,,,,,,,,,,,,,,,,,814.4573,819.4442
