counterbalance_lists.group,counterbalance_lists.remaining,get_list.started,get_list.stopped,participant,session,date,expName,psychopyVersion,OS,frameRate,Instructions.started,Instructions.stopped,key_resp.keys,key_resp.rt,key_resp.duration,instr_done_touch.x,instr_done_touch.y,instr_done_touch.leftButton,instr_done_touch.midButton,instr_done_touch.rightButton,start_instr.thisRepN,start_instr.thisTrialN,start_instr.thisN,start_instr.thisIndex,start_instr.ran,pageN,phase,instruct_text,has_image,instruct_image,showProgress.started,showProgress.stopped,fix.started,fix.stopped,prac.started,prac.stopped,response.keys,response.corr,response.rt,response.duration,touch_resp.x,touch_resp.y,touch_resp.leftButton,touch_resp.midButton,touch_resp.rightButton,touch_resp.time,touch_resp.clicked_name,rt,corr,feedback.started,feedback.stopped,trials.thisRepN,trials.thisTrialN,trials.thisN,trials.thisIndex,trials.ran,TrialID,StimulusType,Condition,PrimeDuration,Prime,Target,corrAns,Instructions_expt.started,Instructions_expt.stopped,key_resp_3.keys,key_resp_3.rt,key_resp_3.duration,instr_done_touch_3.x,instr_done_touch_3.y,instr_done_touch_3.leftButton,instr_done_touch_3.midButton,instr_done_touch_3.rightButton,instr_experiment.thisRepN,instr_experiment.thisTrialN,instr_experiment.thisN,instr_experiment.thisIndex,instr_experiment.ran,trialID,flag,maintask.started,maintask.stopped,key_resp_2.keys,key_resp_2.corr,key_resp_2.rt,key_resp_2.duration,targ_click.x,targ_click.y,targ_click.leftButton,targ_click.midButton,targ_click.rightButton,targ_click.time,targ_click.clicked_name,ITI.started,ITI.stopped,probe.started,probe.stopped,click_probe.x,click_probe.y,click_probe.leftButton,click_probe.midButton,click_probe.rightButton,click_probe.time,click_probe.clicked_name,key_resp_probe.keys,Break.started,Break.stopped,break_done_touch.x,break_done_touch.y,break_done_touch.leftButton,break_done_touch.midButton,break_done_touch.rightButton,break_done_keyboard.keys,list3_trials.thisRepN,list3_trials.thisTrialN,list3_trials.thisN,list3_trials.thisIndex,list3_trials.ran,list_id,item_type,string,font,stim_file,key_resp_probe.rt,key_resp_probe.duration,break_done_keyboard.rt,break_done_keyboard.duration,End.started,End.stopped
list3,,0.4179,0.418,31897,001,2025-10-16_22h22.05.164,HW_LDT_1,2024.2.4,MacIntel,63.29113924,,,,,,,,,,,,,,,,,,,,,,,,,,,,,,,,,,,,,,,,,,,,,,,,,,,,,,,,,,,,,,,,,,,,,,,,,,,,,,,,,,,,,,,,,,,,,,,,,,,,,,,,,,,,,,,,,,,,,,,
,,,,31897,001,2025-10-16_22h22.05.164,HW_LDT_1,2024.2.4,MacIntel,63.29113924,0.433,26.2557,space,25.7964,,0.007148438,-0.418776042,0,0,0,0,0,0,0,1,1,instructions,"INSTRUCTIONS
At the start of each trial, look at the plus sign  (+) in the center of the screen.  This tells you that a trial is about to begin and where to look. Second, the plus sign will disappear and a string of letters will appear. Your task is to determine if the string of letters is a word or not. If the item is a word press the M key (on keyboard)  or touch the word button (phone/tablet).  If the item is not a word,  press the  Z key (on keyboard)  or touch the nonword button (on phone/tablet). The items will be presented for a short time. 
Press the space bar or touch  continue.",0,,,,,,,,,,,,,,,,,,,,,,,,,,,,,,,,,,,,,,,,,,,,,,,,,,,,,,,,,,,,,,,,,,,,,,,,,,,,,,,,,,,,,,,,,,,,,,,,,,,,
,,,,31897,001,2025-10-16_22h22.05.164,HW_LDT_1,2024.2.4,MacIntel,63.29113924,26.258,30.6716,space,4.3884,,0.007148438,-0.418776042,0,0,0,0,1,1,1,1,2,instructions,"If your device has a keyboard, press the 'Z' key for nonwords and the 'M' key for words.





Press the space bar or touch the button below to continue.",0,keyboard-example.gif,,,,,,,,,,,,,,,,,,,,,,,,,,,,,,,,,,,,,,,,,,,,,,,,,,,,,,,,,,,,,,,,,,,,,,,,,,,,,,,,,,,,,,,,,,,,,,,,,,,
,,,,31897,001,2025-10-16_22h22.05.164,HW_LDT_1,2024.2.4,MacIntel,63.29113924,30.6736,32.6213,space,1.9236,,0.007148438,-0.418776042,0,0,0,0,2,2,2,1,3,instructions,"If you are using a touchscreen only device, use the buttons on the screen. Do not use the mouse.





Press the space bar or touch the button below to continue.",0,touchscreen-example.gif,,,,,,,,,,,,,,,,,,,,,,,,,,,,,,,,,,,,,,,,,,,,,,,,,,,,,,,,,,,,,,,,,,,,,,,,,,,,,,,,,,,,,,,,,,,,,,,,,,,
,,,,31897,001,2025-10-16_22h22.05.164,HW_LDT_1,2024.2.4,MacIntel,63.29113924,32.6236,39.4053,space,6.7519,,0.007148438,-0.418776042,0,0,0,0,3,3,3,1,4,instructions,"It is very important that you respond as quickly and accurately as possible, as each letter string will only be on the screen for two seconds. If you do not respond within this time, the message 'Too slow!' will be displayed and the experiment will progress to the next letter string. The first 20 trials will be practice trials and you will receive feedback on your answers. 

Press the space bar or touch the button below to start the practice trials.",0,,,,,,,,,,,,,,,,,,,,,,,,,,,,,,,,,,,,,,,,,,,,,,,,,,,,,,,,,,,,,,,,,,,,,,,,,,,,,,,,,,,,,,,,,,,,,,,,,,,,
,,,,31897,001,2025-10-16_22h22.05.164,HW_LDT_1,2024.2.4,MacIntel,63.29113924,,,,,,,,,,,,,,,,,,,,,39.4385,39.6036,39.6037,40.1052,40.1055,42.2223,m,1,2.0896,,[],[],[],[],[],[],[],2.0896,1,42.2229,42.7219,0,0,0,6,1,1007,WORD,UN,16,tropic,ZOMBIE,m,,,,,,,,,,,,,,,,,,,,,,,,,,,,,,,,,,,,,,,,,,,,,,,,,,,,,,,,,,,,,,,,,,
,,,,31897,001,2025-10-16_22h22.05.164,HW_LDT_1,2024.2.4,MacIntel,63.29113924,,,,,,,,,,,,,,,,,,,,,42.7237,42.9206,42.9207,43.4216,43.4227,44.5218,m,1,1.0788,,[],[],[],[],[],[],[],1.0788,1,44.522,45.0218,0,1,1,2,1,1003,WORD,"ID",16,almond,ALMOND,m,,,,,,,,,,,,,,,,,,,,,,,,,,,,,,,,,,,,,,,,,,,,,,,,,,,,,,,,,,,,,,,,,,
,,,,31897,001,2025-10-16_22h22.05.164,HW_LDT_1,2024.2.4,MacIntel,63.29113924,,,,,,,,,,,,,,,,,,,,,45.0233,45.2207,45.2208,45.7218,45.7228,46.3884,m,1,0.6452,,[],[],[],[],[],[],[],0.6452,1,46.3885,46.8885,0,2,2,3,1,1004,WORD,"ID",16,matrix,MATRIX,m,,,,,,,,,,,,,,,,,,,,,,,,,,,,,,,,,,,,,,,,,,,,,,,,,,,,,,,,,,,,,,,,,,
,,,,31897,001,2025-10-16_22h22.05.164,HW_LDT_1,2024.2.4,MacIntel,63.29113924,,,,,,,,,,,,,,,,,,,,,46.8899,47.0883,47.0884,47.5873,47.5884,48.4385,z,1,0.8302,,[],[],[],[],[],[],[],0.8302,1,48.4386,48.9384,0,3,3,13,1,1014,NW,UN,33,winfer,ROUPET,z,,,,,,,,,,,,,,,,,,,,,,,,,,,,,,,,,,,,,,,,,,,,,,,,,,,,,,,,,,,,,,,,,,
,,,,31897,001,2025-10-16_22h22.05.164,HW_LDT_1,2024.2.4,MacIntel,63.29113924,,,,,,,,,,,,,,,,,,,,,48.9399,49.1373,49.1373,49.6374,49.6386,50.4541,m,1,0.7956,,[],[],[],[],[],[],[],0.7956,1,50.4543,50.9553,0,4,4,4,1,1005,WORD,UN,33,abound,SQUEAK,m,,,,,,,,,,,,,,,,,,,,,,,,,,,,,,,,,,,,,,,,,,,,,,,,,,,,,,,,,,,,,,,,,,
,,,,31897,001,2025-10-16_22h22.05.164,HW_LDT_1,2024.2.4,MacIntel,63.29113924,,,,,,,,,,,,,,,,,,,,,50.9565,51.154,51.154,51.6541,51.6552,52.5043,z,1,0.8307,,[],[],[],[],[],[],[],0.8307,1,52.5045,53.0042,0,5,5,14,1,1015,NW,UN,16,miaber,THRALE,z,,,,,,,,,,,,,,,,,,,,,,,,,,,,,,,,,,,,,,,,,,,,,,,,,,,,,,,,,,,,,,,,,,
,,,,31897,001,2025-10-16_22h22.05.164,HW_LDT_1,2024.2.4,MacIntel,63.29113924,,,,,,,,,,,,,,,,,,,,,53.0057,53.2052,53.2052,53.7052,53.7061,54.4719,z,1,0.7458,,[],[],[],[],[],[],[],0.7458,1,54.472,54.971,0,6,6,11,1,1012,NW,"ID",16,rashet,RASHET,z,,,,,,,,,,,,,,,,,,,,,,,,,,,,,,,,,,,,,,,,,,,,,,,,,,,,,,,,,,,,,,,,,,
,,,,31897,001,2025-10-16_22h22.05.164,HW_LDT_1,2024.2.4,MacIntel,63.29113924,,,,,,,,,,,,,,,,,,,,,54.9724,55.1709,55.1709,55.6717,55.6727,56.3875,z,1,0.6958,,[],[],[],[],[],[],[],0.6958,1,56.3876,56.8887,0,7,7,12,1,1013,NW,UN,33,adveil,SPRINY,z,,,,,,,,,,,,,,,,,,,,,,,,,,,,,,,,,,,,,,,,,,,,,,,,,,,,,,,,,,,,,,,,,,
,,,,31897,001,2025-10-16_22h22.05.164,HW_LDT_1,2024.2.4,MacIntel,63.29113924,,,,,,,,,,,,,,,,,,,,,56.8904,57.0875,57.0875,57.5876,57.5887,58.1045,m,1,0.4958,,[],[],[],[],[],[],[],0.4958,1,58.1045,58.6044,0,8,8,7,1,1008,WORD,UN,16,hurdle,VOLUME,m,,,,,,,,,,,,,,,,,,,,,,,,,,,,,,,,,,,,,,,,,,,,,,,,,,,,,,,,,,,,,,,,,,
,,,,31897,001,2025-10-16_22h22.05.164,HW_LDT_1,2024.2.4,MacIntel,63.29113924,,,,,,,,,,,,,,,,,,,,,58.6056,58.8043,58.8043,59.3053,59.306,59.8553,m,1,0.5335,,[],[],[],[],[],[],[],0.5335,1,59.8555,60.3552,0,9,9,5,1,1006,WORD,UN,33,frenzy,OBTAIN,m,,,,,,,,,,,,,,,,,,,,,,,,,,,,,,,,,,,,,,,,,,,,,,,,,,,,,,,,,,,,,,,,,,
,,,,31897,001,2025-10-16_22h22.05.164,HW_LDT_1,2024.2.4,MacIntel,63.29113924,,,,,,,,,,,,,,,,,,,,,60.3567,60.5553,60.5553,61.0552,61.0561,61.7219,z,1,0.6447,,[],[],[],[],[],[],[],0.6447,1,61.722,62.222,0,10,10,10,1,1011,NW,"ID",16,inlade,INLADE,z,,,,,,,,,,,,,,,,,,,,,,,,,,,,,,,,,,,,,,,,,,,,,,,,,,,,,,,,,,,,,,,,,,
,,,,31897,001,2025-10-16_22h22.05.164,HW_LDT_1,2024.2.4,MacIntel,63.29113924,,,,,,,,,,,,,,,,,,,,,62.2233,62.422,62.4222,62.9221,62.9233,63.8386,z,1,0.8991,,[],[],[],[],[],[],[],0.8991,1,63.8387,64.3387,0,11,11,9,1,1010,NW,"ID",33,fariny,FARINY,z,,,,,,,,,,,,,,,,,,,,,,,,,,,,,,,,,,,,,,,,,,,,,,,,,,,,,,,,,,,,,,,,,,
,,,,31897,001,2025-10-16_22h22.05.164,HW_LDT_1,2024.2.4,MacIntel,63.29113924,,,,,,,,,,,,,,,,,,,,,64.3402,64.5376,64.5377,65.0386,65.0397,65.621,m,1,0.5628,,[],[],[],[],[],[],[],0.5628,1,65.6212,66.1222,0,12,12,1,1,1002,WORD,"ID",33,adjust,ADJUST,m,,,,,,,,,,,,,,,,,,,,,,,,,,,,,,,,,,,,,,,,,,,,,,,,,,,,,,,,,,,,,,,,,,
,,,,31897,001,2025-10-16_22h22.05.164,HW_LDT_1,2024.2.4,MacIntel,63.29113924,,,,,,,,,,,,,,,,,,,,,66.1234,66.322,66.3221,66.8211,66.8222,67.722,m,1,0.88,,[],[],[],[],[],[],[],0.88,1,67.7221,68.222,0,13,13,0,1,1001,WORD,"ID",33,utopia,UTOPIA,m,,,,,,,,,,,,,,,,,,,,,,,,,,,,,,,,,,,,,,,,,,,,,,,,,,,,,,,,,,,,,,,,,,
,,,,31897,001,2025-10-16_22h22.05.164,HW_LDT_1,2024.2.4,MacIntel,63.29113924,,,,,,,,,,,,,,,,,,,,,68.2232,68.4211,68.4211,68.9221,68.9231,69.4877,m,0,0.542,,[],[],[],[],[],[],[],0.542,0,69.4886,69.9889,0,14,14,8,1,1009,NW,"ID",33,aslert,ASLERT,z,,,,,,,,,,,,,,,,,,,,,,,,,,,,,,,,,,,,,,,,,,,,,,,,,,,,,,,,,,,,,,,,,,
,,,,31897,001,2025-10-16_22h22.05.164,HW_LDT_1,2024.2.4,MacIntel,63.29113924,,,,,,,,,,,,,,,,,,,,,69.9902,70.1888,70.1888,70.6887,70.6899,71.6555,z,1,0.9436,,[],[],[],[],[],[],[],0.9436,1,71.6563,72.1546,0,15,15,15,1,1016,NW,UN,16,mushed,WHAISE,z,,,,,,,,,,,,,,,,,,,,,,,,,,,,,,,,,,,,,,,,,,,,,,,,,,,,,,,,,,,,,,,,,,
,,,,31897,001,2025-10-16_22h22.05.164,HW_LDT_1,2024.2.4,MacIntel,63.29113924,,,,,,,,,,,,,,,,1,end_of_practice,"You have completed the practice trials. During the experimental trials, you will not receive feedback. On some trials you will be asked to report whether the item you just saw was in cursive or print. 
Before you begin, please ensure that you are in a comfortable and quiet location and will not be disturbed for about 15 minutes, as we cannot use your data if you do not complete all the trials. 
 When you are ready to start the experimental trials, please press space or touch the button below.",,,,,,,,,,,,,,,,,,,,,,,,,,,,,,,,,,,,72.1621,78.4226,space,6.2447,,0.007148438,-0.418776042,0,0,0,0,0,0,0,1,,,,,,,,,,,,,,,,,,,,,,,,,,,,,,,,,,,,,,,,,,,,,,,,,,,
,,,,31897,001,2025-10-16_22h22.05.164,HW_LDT_1,2024.2.4,MacIntel,63.29113924,,,,,,,,,,,,,,,,,,,,,78.44,78.6223,78.6223,79.1214,,,,,,,,,,,,,,1.4508,1,,,,,,,,,,,,,,z,,,,,,,,,,,,,,,,1,0,79.1231,80.5884,z,1,1.4508,,[],[],[],[],[],[],[],80.5886,82.5893,82.5896,82.5928,[],[],[],[],[],[],[],,82.593,82.5947,0.007148438,-0.418776042,0,0,0,,0,0,0,12,1,3,RL,formuke,cursive,formuke_c.png,,,,,,
,,,,31897,001,2025-10-16_22h22.05.164,HW_LDT_1,2024.2.4,MacIntel,63.29113924,,,,,,,,,,,,,,,,,,,,,82.5957,82.789,82.789,83.2881,,,,,,,,,,,,,,0.7866,1,,,,,,,,,,,,,,m,,,,,,,,,,,,,,,,2,0,83.2887,84.0881,m,1,0.7866,,[],[],[],[],[],[],[],84.0882,86.0892,86.0893,86.0895,[],[],[],[],[],[],[],,86.0895,86.0897,0.007148438,-0.418776042,0,0,0,,0,1,1,137,1,3,word,RAPIDLY,print,rapidly_p.png,,,,,,
,,,,31897,001,2025-10-16_22h22.05.164,HW_LDT_1,2024.2.4,MacIntel,63.29113924,,,,,,,,,,,,,,,,,,,,,86.0911,86.2889,86.289,86.789,,,,,,,,,,,,,,0.7871,1,,,,,,,,,,,,,,m,,,,,,,,,,,,,,,,3,0,86.7898,87.5891,m,1,0.7871,,[],[],[],[],[],[],[],87.5892,89.5882,89.5884,89.5887,[],[],[],[],[],[],[],,89.5887,89.5889,0.007148438,-0.418776042,0,0,0,,0,2,2,91,1,3,word,CARDINAL,print,cardinal_p.png,,,,,,
,,,,31897,001,2025-10-16_22h22.05.164,HW_LDT_1,2024.2.4,MacIntel,63.29113924,,,,,,,,,,,,,,,,,,,,,89.5901,89.7882,89.7882,90.2892,,,,,,,,,,,,,,0.7048,1,,,,,,,,,,,,,,z,,,,,,,,,,,,,,,,4,0,90.2898,91.0048,z,1,0.7048,,[],[],[],[],[],[],[],91.0049,93.0049,93.005,93.0052,[],[],[],[],[],[],[],,93.0052,93.0054,0.007148438,-0.418776042,0,0,0,,0,3,3,25,1,3,RL,retupar,print,retupar_p.png,,,,,,
,,,,31897,001,2025-10-16_22h22.05.164,HW_LDT_1,2024.2.4,MacIntel,63.29113924,,,,,,,,,,,,,,,,,,,,,93.0067,93.2059,93.206,93.706,,,,,,,,,,,,,,2.7204,1,,,,,,,,,,,,,,z,,,,,,,,,,,,,,,,5,0,93.7065,96.4397,z,1,2.7204,,[],[],[],[],[],[],[],96.4399,98.4383,98.4385,98.4387,[],[],[],[],[],[],[],,98.4388,98.4389,0.007148438,-0.418776042,0,0,0,,0,4,4,33,1,3,TL,adsivory,print,adsivory_p.png,,,,,,
,,,,31897,001,2025-10-16_22h22.05.164,HW_LDT_1,2024.2.4,MacIntel,63.29113924,,,,,,,,,,,,,,,,,,,,,98.4404,98.6383,98.6384,99.1383,,,,,,,,,,,,,,1.0863,1,,,,,,,,,,,,,,z,,,,,,,,,,,,,,,,6,0,99.1389,100.2393,z,1,1.0863,,[],[],[],[],[],[],[],100.2394,102.2394,102.2396,102.2399,[],[],[],[],[],[],[],,102.2401,102.2402,0.007148438,-0.418776042,0,0,0,,0,5,5,7,1,3,RL,cobeny,print,cobeny_p.png,,,,,,
,,,,31897,001,2025-10-16_22h22.05.164,HW_LDT_1,2024.2.4,MacIntel,63.29113924,,,,,,,,,,,,,,,,,,,,,102.2415,102.4394,102.4395,102.9384,,,,,,,,,,,,,,1.5038,1,,,,,,,,,,,,,,m,,,,,,,,,,,,,,,,7,0,102.9389,104.4561,m,1,1.5038,,[],[],[],[],[],[],[],104.4562,106.4561,106.4563,106.4565,[],[],[],[],[],[],[],,106.4566,106.4566,0.007148438,-0.418776042,0,0,0,,0,6,6,148,1,3,word,SALINE,cursive,saline_c.png,,,,,,
,,,,31897,001,2025-10-16_22h22.05.164,HW_LDT_1,2024.2.4,MacIntel,63.29113924,,,,,,,,,,,,,,,,,,,,,106.4578,106.6552,106.6552,107.1557,,,,,,,,,,,,,,0.7709,1,,,,,,,,,,,,,,z,,,,,,,,,,,,,,,,8,0,107.1563,107.9385,z,1,0.7709,,[],[],[],[],[],[],[],107.9386,109.9395,109.9396,109.9398,[],[],[],[],[],[],[],,109.9399,109.9399,0.007148438,-0.418776042,0,0,0,,0,7,7,30,1,3,RL,strapely,print,strapely_p.png,,,,,,
,,,,31897,001,2025-10-16_22h22.05.164,HW_LDT_1,2024.2.4,MacIntel,63.29113924,,,,,,,,,,,,,,,,,,,,,109.9413,110.1395,110.1396,110.6396,,,,,,,,,,,,,,2.469,0,,,,,,,,,,,,,,m,,,,,,,,,,,,,,,,9,0,110.6402,113.122,z,0,2.469,,[],[],[],[],[],[],[],113.1221,115.123,115.1231,115.1233,[],[],[],[],[],[],[],,115.1234,115.1236,0.007148438,-0.418776042,0,0,0,,0,8,8,120,1,3,word,MILITARY,cursive,military_c.png,,,,,,
,,,,31897,001,2025-10-16_22h22.05.164,HW_LDT_1,2024.2.4,MacIntel,63.29113924,,,,,,,,,,,,,,,,,,,,,115.1247,115.323,115.323,115.8232,,,,,,,,,,,,,,5.7355,1,,,,,,,,,,,,,,z,,,,,,,,,,,,,,,,10,0,115.8239,121.573,z,1,5.7355,,[],[],[],[],[],[],[],121.573,123.5732,123.5732,123.5735,[],[],[],[],[],[],[],,123.5736,123.5737,0.007148438,-0.418776042,0,0,0,,0,9,9,29,1,3,RL,selamor,cursive,selamor_c.png,,,,,,
,,,,31897,001,2025-10-16_22h22.05.164,HW_LDT_1,2024.2.4,MacIntel,63.29113924,,,,,,,,,,,,,,,,,,,,,123.575,123.7731,123.7732,124.2732,,,,,,,,,,,,,,3.7708,1,,,,,,,,,,,,,,z,,,,,,,,,,,,,,,,11,0,124.2738,128.0566,z,1,3.7708,,[],[],[],[],[],[],[],128.0566,130.0557,130.0558,130.056,[],[],[],[],[],[],[],,130.0561,130.0564,0.007148438,-0.418776042,0,0,0,,0,10,10,8,1,3,RL,cocewage,print,cocewage_p.png,,,,,,
,,,,31897,001,2025-10-16_22h22.05.164,HW_LDT_1,2024.2.4,MacIntel,63.29113924,,,,,,,,,,,,,,,,,,,,,130.0578,130.2565,130.2565,130.7567,,,,,,,,,,,,,,0.7025,1,,,,,,,,,,,,,,m,,,,,,,,,,,,,,,,12,0,130.7572,131.4732,m,1,0.7025,,[],[],[],[],[],[],[],131.4734,133.4731,133.4732,133.4734,[],[],[],[],[],[],[],,133.4734,133.4735,0.007148438,-0.418776042,0,0,0,,0,11,11,139,1,3,word,REGULAR,print,regular_p.png,,,,,,
,,,,31897,001,2025-10-16_22h22.05.164,HW_LDT_1,2024.2.4,MacIntel,63.29113924,,,,,,,,,,,,,,,,,,,,,133.4748,133.6733,133.6734,134.1732,,,,,,,,,,,,,,4.67,1,,,,,,,,,,,,,,z,,,,,,,,,,,,,,,,13,0,134.1736,138.8567,z,1,4.67,,[],[],[],[],[],[],[],138.8567,140.8563,140.8564,140.8566,[],[],[],[],[],[],[],,140.8566,140.8567,0.007148438,-0.418776042,0,0,0,,0,12,12,70,1,3,TL,remuse,cursive,remuse_c.png,,,,,,
,,,,31897,001,2025-10-16_22h22.05.164,HW_LDT_1,2024.2.4,MacIntel,63.29113924,,,,,,,,,,,,,,,,,,,,,140.858,141.0569,141.0569,141.5558,,,,,,,,,,,,,,4.2044,1,,,,,,,,,,,,,,z,,,,,,,,,,,,,,,,14,0,141.5564,145.7736,z,1,4.2044,,[],[],[],[],[],[],[],145.7738,147.7726,147.7728,147.773,[],[],[],[],[],[],[],,147.7731,147.7732,0.007148438,-0.418776042,0,0,0,,0,13,13,69,1,3,TL,redisent,cursive,redisent_c.png,,,,,,
,,,,31897,001,2025-10-16_22h22.05.164,HW_LDT_1,2024.2.4,MacIntel,63.29113924,,,,,,,,,,,,,,,,,,,,,147.7745,147.9736,147.9738,148.4735,,,,,,,,,,,,,,3.0864,1,,,,,,,,,,,,,,m,,,,,,,,,,,,,,,,15,0,148.4741,151.5737,m,1,3.0864,,[],[],[],[],[],[],[],151.5737,153.5727,153.5728,153.5731,[],[],[],[],[],[],[],,153.5731,153.5732,0.007148438,-0.418776042,0,0,0,,0,14,14,159,1,3,word,VETERAN,cursive,veteran_c.png,,,,,,
,,,,31897,001,2025-10-16_22h22.05.164,HW_LDT_1,2024.2.4,MacIntel,63.29113924,,,,,,,,,,,,,,,,,,,,,153.5744,153.7728,153.7728,154.2728,,,,,,,,,,,,,,1.9875,1,,,,,,,,,,,,,,z,,,,,,,,,,,,,,,,16,0,154.2734,156.2738,z,1,1.9875,,[],[],[],[],[],[],[],156.2738,158.2726,158.2726,158.2727,[],[],[],[],[],[],[],,158.2727,158.2727,0.007148438,-0.418776042,0,0,0,,0,15,15,47,1,3,TL,elarobate,print,elarobate_p.png,,,,,,
,,,,31897,001,2025-10-16_22h22.05.164,HW_LDT_1,2024.2.4,MacIntel,63.29113924,,,,,,,,,,,,,,,,,,,,,158.2733,158.4729,158.4729,158.9737,,,,,,,,,,,,,,1.7985,1,,,,,,,,,,,,,,z,,,,,,,,,,,,,,,,17,0,158.974,160.7733,z,1,1.7985,,[],[],[],[],[],[],[],160.7734,162.773,162.773,162.7732,[],[],[],[],[],[],[],,162.7733,162.7734,0.007148438,-0.418776042,0,0,0,,0,16,16,59,1,3,TL,paficic,cursive,paficic_c.png,,,,,,
,,,,31897,001,2025-10-16_22h22.05.164,HW_LDT_1,2024.2.4,MacIntel,63.29113924,,,,,,,,,,,,,,,,,,,,,162.7747,162.973,162.973,163.4739,,,,,,,,,,,,,,0.8538,1,,,,,,,,,,,,,,z,,,,,,,,,,,,,,,,18,0,163.4745,164.3407,z,1,0.8538,,[],[],[],[],[],[],[],164.3408,166.3396,166.3397,166.3401,[],[],[],[],[],[],[],,166.3401,166.3402,0.007148438,-0.418776042,0,0,0,,0,17,17,60,1,3,TL,panert,print,panert_p.png,,,,,,
,,,,31897,001,2025-10-16_22h22.05.164,HW_LDT_1,2024.2.4,MacIntel,63.29113924,,,,,,,,,,,,,,,,,,,,,166.3415,166.5398,166.5399,167.0398,,,,,,,,,,,,,,4.8201,1,,,,,,,,,,,,,,z,,,,,,,,,,,,,,,,19,0,167.0402,171.8741,z,1,4.8201,,[],[],[],[],[],[],[],171.8741,173.8741,173.8741,173.8744,[],[],[],[],[],[],[],,173.8744,173.8747,0.007148438,-0.418776042,0,0,0,,0,18,18,79,1,3,TL,veretan,cursive,veretan_c.png,,,,,,
,,,,31897,001,2025-10-16_22h22.05.164,HW_LDT_1,2024.2.4,MacIntel,63.29113924,,,,,,,,,,,,,,,,,,,,,173.8762,174.0742,174.0742,174.5732,,,,,,,,,,,,,,3.7395,1,,,,,,,,,,,,,,z,,,,,,,,,,,,,,,,20,0,174.5737,178.3232,z,1,3.7395,,[],[],[],[],[],[],[],178.3233,180.3243,180.3243,180.3245,[],[],[],[],[],[],[],,180.3245,180.3247,0.007148438,-0.418776042,0,0,0,,0,19,19,68,1,3,TL,revomal,cursive,revomal_c.png,,,,,,
,,,,31897,001,2025-10-16_22h22.05.164,HW_LDT_1,2024.2.4,MacIntel,63.29113924,,,,,,,,,,,,,,,,,,,,,180.326,180.5233,180.5233,181.0243,,,,,,,,,,,,,,0.7408,1,,,,,,,,,,,,,,z,,,,,,,,,,,,,,,,21,0,181.0248,181.7742,z,1,0.7408,,[],[],[],[],[],[],[],181.7742,183.7734,183.7734,183.7736,[],[],[],[],[],[],[],,183.7737,183.7738,0.007148438,-0.418776042,0,0,0,,0,20,20,21,1,3,RL,potugar,print,potugar_p.png,,,,,,
,,,,31897,001,2025-10-16_22h22.05.164,HW_LDT_1,2024.2.4,MacIntel,63.29113924,,,,,,,,,,,,,,,,,,,,,183.7751,183.9743,183.9743,184.4743,,,,,,,,,,,,,,0.7708,1,,,,,,,,,,,,,,m,,,,,,,,,,,,,,,,22,0,184.4748,185.2577,m,1,0.7708,,[],[],[],[],[],[],[],185.2578,187.2568,187.2569,187.2571,[],[],[],[],[],[],[],,187.2572,187.2572,0.007148438,-0.418776042,0,0,0,,0,21,21,132,1,3,word,PROPOSAL,print,proposal_p.png,,,,,,
,,,,31897,001,2025-10-16_22h22.05.164,HW_LDT_1,2024.2.4,MacIntel,63.29113924,,,,,,,,,,,,,,,,,,,,,187.2585,187.4577,187.4578,187.9578,,,,,,,,,,,,,,0.7375,1,,,,,,,,,,,,,,z,,,,,,,,,,,,,,,,23,1,187.9584,188.7078,z,1,0.7375,,[],[],[],[],[],[],[],188.7078,190.7069,190.7069,194.5903,[],[],[],[],[],[],[],m,194.5904,194.5905,0.007148438,-0.418776042,0,0,0,,0,22,22,65,1,3,TL,resufal,print,resufal_p.png,3.8727,,,,,
,,,,31897,001,2025-10-16_22h22.05.164,HW_LDT_1,2024.2.4,MacIntel,63.29113924,,,,,,,,,,,,,,,,,,,,,194.5916,194.7912,194.7913,195.2912,,,,,,,,,,,,,,1.0317,1,,,,,,,,,,,,,,z,,,,,,,,,,,,,,,,24,0,195.2916,196.3243,z,1,1.0317,,[],[],[],[],[],[],[],196.3244,198.3237,198.3237,198.3239,[],[],[],[],[],[],[],,198.324,198.324,0.007148438,-0.418776042,0,0,0,,0,23,23,34,1,3,TL,aminal,cursive,aminal_c.png,,,,,,
,,,,31897,001,2025-10-16_22h22.05.164,HW_LDT_1,2024.2.4,MacIntel,63.29113924,,,,,,,,,,,,,,,,,,,,,198.3254,198.5237,198.5237,199.0247,,,,,,,,,,,,,,0.9201,1,,,,,,,,,,,,,,z,,,,,,,,,,,,,,,,25,0,199.0252,199.9575,z,1,0.9201,,[],[],[],[],[],[],[],199.9575,201.957,201.9571,201.9572,[],[],[],[],[],[],[],,201.9573,201.9574,0.007148438,-0.418776042,0,0,0,,0,24,24,56,1,3,TL,meromy,print,meromy_p.png,,,,,,
,,,,31897,001,2025-10-16_22h22.05.164,HW_LDT_1,2024.2.4,MacIntel,63.29113924,,,,,,,,,,,,,,,,,,,,,201.9586,202.1568,202.1568,202.6571,,,,,,,,,,,,,,0.7036,1,,,,,,,,,,,,,,z,,,,,,,,,,,,,,,,26,0,202.6576,203.3737,z,1,0.7036,,[],[],[],[],[],[],[],203.3738,205.3748,205.3749,205.3751,[],[],[],[],[],[],[],,205.3752,205.3753,0.007148438,-0.418776042,0,0,0,,0,25,25,26,1,3,RL,repifion,print,repifion_p.png,,,,,,
,,,,31897,001,2025-10-16_22h22.05.164,HW_LDT_1,2024.2.4,MacIntel,63.29113924,,,,,,,,,,,,,,,,,,,,,205.3765,205.5748,205.5748,206.0738,,,,,,,,,,,,,,1.9295,1,,,,,,,,,,,,,,z,,,,,,,,,,,,,,,,27,0,206.0744,208.007,z,1,1.9295,,[],[],[],[],[],[],[],208.007,210.0082,210.0082,210.0084,[],[],[],[],[],[],[],,210.0085,210.0086,0.007148438,-0.418776042,0,0,0,,0,26,26,72,1,3,TL,senmitent,print,senmitent_p.png,,,,,,
,,,,31897,001,2025-10-16_22h22.05.164,HW_LDT_1,2024.2.4,MacIntel,63.29113924,,,,,,,,,,,,,,,,,,,,,210.01,210.2082,210.2082,210.7082,,,,,,,,,,,,,,1.4914,1,,,,,,,,,,,,,,z,,,,,,,,,,,,,,,,28,0,210.7086,212.2081,z,1,1.4914,,[],[],[],[],[],[],[],212.2082,214.2083,214.2083,214.2085,[],[],[],[],[],[],[],,214.2085,214.2086,0.007148438,-0.418776042,0,0,0,,0,27,27,64,1,3,TL,radiply,print,radiply_p.png,,,,,,
,,,,31897,001,2025-10-16_22h22.05.164,HW_LDT_1,2024.2.4,MacIntel,63.29113924,,,,,,,,,,,,,,,,,,,,,214.21,214.4082,214.4084,214.9073,,,,,,,,,,,,,,5.1885,1,,,,,,,,,,,,,,m,,,,,,,,,,,,,,,,29,0,214.908,220.1084,m,1,5.1885,,[],[],[],[],[],[],[],220.1085,222.1084,222.1085,222.1087,[],[],[],[],[],[],[],,222.1088,222.1089,0.007148438,-0.418776042,0,0,0,,0,28,28,140,1,3,word,RELATIVE,cursive,relative_c.png,,,,,,
,,,,31897,001,2025-10-16_22h22.05.164,HW_LDT_1,2024.2.4,MacIntel,63.29113924,,,,,,,,,,,,,,,,,,,,,222.1108,222.3083,222.3083,222.8074,,,,,,,,,,,,,,1.3669,1,,,,,,,,,,,,,,m,,,,,,,,,,,,,,,,30,0,222.8079,224.1759,m,1,1.3669,,[],[],[],[],[],[],[],224.176,226.1742,226.1743,226.1745,[],[],[],[],[],[],[],,226.1746,226.1747,0.007148438,-0.418776042,0,0,0,,0,29,29,82,1,3,word,AMATEUR,print,amateur_p.png,,,,,,
,,,,31897,001,2025-10-16_22h22.05.164,HW_LDT_1,2024.2.4,MacIntel,63.29113924,,,,,,,,,,,,,,,,,,,,,226.1761,226.375,226.3751,226.8743,,,,,,,,,,,,,,0.8822,1,,,,,,,,,,,,,,m,,,,,,,,,,,,,,,,31,0,226.8748,227.7585,m,1,0.8822,,[],[],[],[],[],[],[],227.7586,229.7576,229.7576,229.7578,[],[],[],[],[],[],[],,229.7579,229.758,0.007148438,-0.418776042,0,0,0,,0,30,30,138,1,3,word,REFUSAL,print,refusal_p.png,,,,,,
,,,,31897,001,2025-10-16_22h22.05.164,HW_LDT_1,2024.2.4,MacIntel,63.29113924,,,,,,,,,,,,,,,,,,,,,229.7592,229.9576,229.9576,230.4583,,,,,,,,,,,,,,2.3247,1,,,,,,,,,,,,,,m,,,,,,,,,,,,,,,,32,0,230.4589,232.7919,m,1,2.3247,,[],[],[],[],[],[],[],232.7919,234.7916,234.7916,234.7917,[],[],[],[],[],[],[],,234.7919,234.7919,0.007148438,-0.418776042,0,0,0,,0,31,31,84,1,3,word,BELOVED,cursive,beloved_c.png,,,,,,
,,,,31897,001,2025-10-16_22h22.05.164,HW_LDT_1,2024.2.4,MacIntel,63.29113924,,,,,,,,,,,,,,,,,,,,,234.7931,234.992,234.9921,235.4911,,,,,,,,,,,,,,0.5871,1,,,,,,,,,,,,,,m,,,,,,,,,,,,,,,,33,0,235.4917,236.092,m,1,0.5871,,[],[],[],[],[],[],[],236.0921,238.092,238.0921,238.0923,[],[],[],[],[],[],[],,238.0924,238.0924,0.007148438,-0.418776042,0,0,0,,0,32,32,130,1,3,word,POLICY,print,policy_p.png,,,,,,
,,,,31897,001,2025-10-16_22h22.05.164,HW_LDT_1,2024.2.4,MacIntel,63.29113924,,,,,,,,,,,,,,,,,,,,,238.0937,238.2911,238.2911,238.7911,,,,,,,,,,,,,,0.9882,1,,,,,,,,,,,,,,z,,,,,,,,,,,,,,,,34,0,238.7917,239.7916,z,1,0.9882,,[],[],[],[],[],[],[],239.7916,241.792,241.7921,241.7923,[],[],[],[],[],[],[],,241.7925,241.7925,0.007148438,-0.418776042,0,0,0,,0,33,33,58,1,3,TL,nuremical,print,nuremical_p.png,,,,,,
,,,,31897,001,2025-10-16_22h22.05.164,HW_LDT_1,2024.2.4,MacIntel,63.29113924,,,,,,,,,,,,,,,,,,,,,241.7938,241.9921,241.9922,242.4912,,,,,,,,,,,,,,0.9624,1,,,,,,,,,,,,,,m,,,,,,,,,,,,,,,,35,1,242.4916,243.4578,m,1,0.9624,,[],[],[],[],[],[],[],243.4579,245.4587,245.4587,247.7746,[],[],[],[],[],[],[],z,247.7747,247.7748,0.007148438,-0.418776042,0,0,0,,0,34,34,157,1,3,word,VALIDITY,cursive,validity_c.png,2.3047,,,,,
,,,,31897,001,2025-10-16_22h22.05.164,HW_LDT_1,2024.2.4,MacIntel,63.29113924,,,,,,,,,,,,,,,,,,,,,247.7758,247.9756,247.9756,248.4755,,,,,,,,,,,,,,1.6746,1,,,,,,,,,,,,,,m,,,,,,,,,,,,,,,,36,0,248.476,250.1588,m,1,1.6746,,[],[],[],[],[],[],[],250.1589,252.159,252.1591,252.1592,[],[],[],[],[],[],[],,252.1592,252.1594,0.007148438,-0.418776042,0,0,0,,0,35,35,100,1,3,word,DECADE,cursive,decade_c.png,,,,,,
,,,,31897,001,2025-10-16_22h22.05.164,HW_LDT_1,2024.2.4,MacIntel,63.29113924,,,,,,,,,,,,,,,,,,,,,252.1606,252.3581,252.3581,252.8581,,,,,,,,,,,,,,0.9383,1,,,,,,,,,,,,,,m,,,,,,,,,,,,,,,,37,0,252.8586,253.8089,m,1,0.9383,,[],[],[],[],[],[],[],253.8089,255.8082,255.8083,255.8085,[],[],[],[],[],[],[],,255.8085,255.8086,0.007148438,-0.418776042,0,0,0,,0,36,36,142,1,3,word,REMOTE,print,remote_p.png,,,,,,
,,,,31897,001,2025-10-16_22h22.05.164,HW_LDT_1,2024.2.4,MacIntel,63.29113924,,,,,,,,,,,,,,,,,,,,,255.8099,256.009,256.0091,256.5082,,,,,,,,,,,,,,4.8368,1,,,,,,,,,,,,,,z,,,,,,,,,,,,,,,,38,0,256.5089,261.3591,z,1,4.8368,,[],[],[],[],[],[],[],261.3591,263.3591,263.3592,263.3594,[],[],[],[],[],[],[],,263.3594,263.3596,0.007148438,-0.418776042,0,0,0,,0,37,37,28,1,3,RL,rovastic,cursive,rovastic_c.png,,,,,,
,,,,31897,001,2025-10-16_22h22.05.164,HW_LDT_1,2024.2.4,MacIntel,63.29113924,,,,,,,,,,,,,,,,,,,,,263.3607,263.5592,263.5592,264.0592,,,,,,,,,,,,,,5.603,1,,,,,,,,,,,,,,z,,,,,,,,,,,,,,,,39,0,264.0598,269.6751,z,1,5.603,,[],[],[],[],[],[],[],269.6751,271.676,271.676,271.6762,[],[],[],[],[],[],[],,271.6763,271.6764,0.007148438,-0.418776042,0,0,0,,0,38,38,52,1,3,TL,locigal,cursive,locigal_c.png,,,,,,
,,,,31897,001,2025-10-16_22h22.05.164,HW_LDT_1,2024.2.4,MacIntel,63.29113924,,,,,,,,,,,,,,,,,,,,,271.6777,271.8759,271.8759,272.376,,,,,,,,,,,,,,0.8531,1,,,,,,,,,,,,,,z,,,,,,,,,,,,,,,,40,0,272.3766,273.2418,z,1,0.8531,,[],[],[],[],[],[],[],273.2419,275.2428,275.2429,275.243,[],[],[],[],[],[],[],,275.243,275.2431,0.007148438,-0.418776042,0,0,0,,0,39,39,51,1,3,TL,liretal,print,liretal_p.png,,,,,,
,,,,31897,001,2025-10-16_22h22.05.164,HW_LDT_1,2024.2.4,MacIntel,63.29113924,,,,,,,,,,,,,,,,,,,,,275.2445,275.4419,275.4419,275.9419,,,,,,,,,,,,,,1.6213,1,,,,,,,,,,,,,,z,,,,,,,,,,,,,,,,41,0,275.9426,277.5761,z,1,1.6213,,[],[],[],[],[],[],[],277.5762,279.5761,279.5761,279.5763,[],[],[],[],[],[],[],,279.5764,279.5765,0.007148438,-0.418776042,0,0,0,,0,40,40,18,1,3,RL,onegator,print,onegator_p.png,,,,,,
,,,,31897,001,2025-10-16_22h22.05.164,HW_LDT_1,2024.2.4,MacIntel,63.29113924,,,,,,,,,,,,,,,,,,,,,279.5778,279.7753,279.7753,280.2761,,,,,,,,,,,,,,0.8708,1,,,,,,,,,,,,,,m,,,,,,,,,,,,,,,,42,0,280.2768,281.1595,m,1,0.8708,,[],[],[],[],[],[],[],281.1596,283.1596,283.1596,283.1598,[],[],[],[],[],[],[],,283.1598,283.16,0.009088542,-0.420998264,0,0,0,,0,41,41,104,1,3,word,DOMINANT,print,dominant_p.png,,,,,,
,,,,31897,001,2025-10-16_22h22.05.164,HW_LDT_1,2024.2.4,MacIntel,63.29113924,,,,,,,,,,,,,,,,,,,,,283.1613,283.3595,283.3596,283.8596,,,,,,,,,,,,,,1.5084,1,,,,,,,,,,,,,,z,,,,,,,,,,,,,,,,43,0,283.8603,285.3763,z,1,1.5084,,[],[],[],[],[],[],[],285.3763,287.3754,287.3755,287.3757,[],[],[],[],[],[],[],,287.3757,287.3758,0.009088542,-0.420998264,0,0,0,,0,42,42,73,1,3,TL,speficic,print,speficic_p.png,,,,,,
,,,,31897,001,2025-10-16_22h22.05.164,HW_LDT_1,2024.2.4,MacIntel,63.29113924,,,,,,,,,,,,,,,,,,,,,287.3768,287.576,287.576,288.0762,,,,,,,,,,,,,,1.3147,1,,,,,,,,,,,,,,z,,,,,,,,,,,,,,,,44,0,288.0771,289.3932,z,1,1.3147,,[],[],[],[],[],[],[],289.3933,291.393,291.3931,291.3933,[],[],[],[],[],[],[],,291.3934,291.3935,0.009088542,-0.420998264,0,0,0,,0,43,43,42,1,3,TL,detabe,cursive,detabe_c.png,,,,,,
,,,,31897,001,2025-10-16_22h22.05.164,HW_LDT_1,2024.2.4,MacIntel,63.29113924,,,,,,,,,,,,,,,,,,,,,291.3948,291.593,291.5931,292.0931,,,,,,,,,,,,,,1.3041,1,,,,,,,,,,,,,,m,,,,,,,,,,,,,,,,45,0,292.0938,293.4098,m,1,1.3041,,[],[],[],[],[],[],[],293.4099,295.4099,295.4099,295.4101,[],[],[],[],[],[],[],,295.4102,295.4102,0.009088542,-0.420998264,0,0,0,,0,44,44,105,1,3,word,EDITOR,print,editor_p.png,,,,,,
,,,,31897,001,2025-10-16_22h22.05.164,HW_LDT_1,2024.2.4,MacIntel,63.29113924,,,,,,,,,,,,,,,,,,,,,295.4114,295.6088,295.6088,296.1098,,,,,,,,,,,,,,1.0382,1,,,,,,,,,,,,,,m,,,,,,,,,,,,,,,,46,1,296.1104,297.1593,m,1,1.0382,,[],[],[],[],[],[],[],297.1594,299.1598,299.1599,300.1764,[],[],[],[],[],[],[],m,300.1765,300.1765,0.009088542,-0.420998264,0,0,0,,0,45,45,146,1,3,word,RETIRE,print,retire_p.png,1.016,,,,,
,,,,31897,001,2025-10-16_22h22.05.164,HW_LDT_1,2024.2.4,MacIntel,63.29113924,,,,,,,,,,,,,,,,,,,,,300.1771,300.3762,300.3762,300.8762,,,,,,,,,,,,,,0.9306,1,,,,,,,,,,,,,,z,,,,,,,,,,,,,,,,47,1,300.8764,301.8098,z,1,0.9306,,[],[],[],[],[],[],[],301.8098,303.81,303.81,304.7427,[],[],[],[],[],[],[],z,304.7428,304.7429,0.009088542,-0.420998264,0,0,0,,0,46,46,19,1,3,RL,opcifal,cursive,opcifal_c.png,0.9216,,,,,
,,,,31897,001,2025-10-16_22h22.05.164,HW_LDT_1,2024.2.4,MacIntel,63.29113924,,,,,,,,,,,,,,,,,,,,,304.7442,304.9433,304.9434,305.4433,,,,,,,,,,,,,,3.804,1,,,,,,,,,,,,,,z,,,,,,,,,,,,,,,,48,0,305.4439,309.2599,z,1,3.804,,[],[],[],[],[],[],[],309.2601,311.26,311.2601,311.2602,[],[],[],[],[],[],[],,311.2603,311.2604,0.009088542,-0.420998264,0,0,0,,0,47,47,48,1,3,TL,grafetul,cursive,grafetul_c.png,,,,,,
,,,,31897,001,2025-10-16_22h22.05.164,HW_LDT_1,2024.2.4,MacIntel,63.29113924,,,,,,,,,,,,,,,,,,,,,311.2618,311.4601,311.4602,311.9601,,,,,,,,,,,,,,1.265,0,,,,,,,,,,,,,,m,,,,,,,,,,,,,,,,49,0,311.9606,313.2266,z,0,1.265,,[],[],[],[],[],[],[],313.2267,315.2269,315.2269,315.2271,[],[],[],[],[],[],[],,315.2271,315.2272,0.009088542,-0.420998264,0,0,0,,0,48,48,109,1,3,word,GRATEFUL,cursive,grateful_c.png,,,,,,
,,,,31897,001,2025-10-16_22h22.05.164,HW_LDT_1,2024.2.4,MacIntel,63.29113924,,,,,,,,,,,,,,,,,,,,,315.2284,315.4264,315.4264,315.9268,,,,,,,,,,,,,,6.5375,1,,,,,,,,,,,,,,z,,,,,,,,,,,,,,,,50,0,315.9274,322.4769,z,1,6.5375,,[],[],[],[],[],[],[],322.477,324.477,324.4771,324.4773,[],[],[],[],[],[],[],,324.4773,324.4774,0.009088542,-0.420998264,0,0,0,,0,49,49,4,1,3,RL,cafigal,cursive,cafigal_c.png,,,,,,
,,,,31897,001,2025-10-16_22h22.05.164,HW_LDT_1,2024.2.4,MacIntel,63.29113924,,,,,,,,,,,,,,,,,,,,,324.4789,324.677,324.6771,325.1771,,,,,,,,,,,,,,1.1207,1,,,,,,,,,,,,,,m,,,,,,,,,,,,,,,,51,0,325.1777,326.3103,m,1,1.1207,,[],[],[],[],[],[],[],326.3104,328.3105,328.3105,328.3107,[],[],[],[],[],[],[],,328.3107,328.3108,0.009088542,-0.420998264,0,0,0,,0,50,50,115,1,3,word,LOGICAL,cursive,logical_c.png,,,,,,
,,,,31897,001,2025-10-16_22h22.05.164,HW_LDT_1,2024.2.4,MacIntel,63.29113924,,,,,,,,,,,,,,,,,,,,,328.312,328.5105,328.5105,329.0103,,,,,,,,,,,,,,1.3374,1,,,,,,,,,,,,,,z,,,,,,,,,,,,,,,,52,0,329.0109,330.3602,z,1,1.3374,,[],[],[],[],[],[],[],330.3602,332.3605,332.3605,332.3607,[],[],[],[],[],[],[],,332.3608,332.3609,0.009088542,-0.420998264,0,0,0,,0,51,51,53,1,3,TL,marnigal,print,marnigal_p.png,,,,,,
,,,,31897,001,2025-10-16_22h22.05.164,HW_LDT_1,2024.2.4,MacIntel,63.29113924,,,,,,,,,,,,,,,,,,,,,332.362,332.5606,332.5607,333.0606,,,,,,,,,,,,,,4.6709,1,,,,,,,,,,,,,,z,,,,,,,,,,,,,,,,53,1,333.0611,337.7439,z,1,4.6709,,[],[],[],[],[],[],[],337.744,339.7439,339.744,340.8606,[],[],[],[],[],[],[],z,340.8607,340.8608,0.009088542,-0.420998264,0,0,0,,0,52,52,6,1,3,RL,cenesony,cursive,cenesony_c.png,1.1058,,,,,
,,,,31897,001,2025-10-16_22h22.05.164,HW_LDT_1,2024.2.4,MacIntel,63.29113924,,,,,,,,,,,,,,,,,,,,,340.8621,341.0606,341.0606,341.5607,,,,,,,,,,,,,,1.356,1,,,,,,,,,,,,,,m,,,,,,,,,,,,,,,,54,0,341.5613,342.9274,m,1,1.356,,[],[],[],[],[],[],[],342.9275,344.9273,344.9275,344.9277,[],[],[],[],[],[],[],,344.9277,344.9278,0.009088542,-0.420998264,0,0,0,,0,53,53,106,1,3,word,ELABORATE,print,elaborate_p.png,,,,,,
,,,,31897,001,2025-10-16_22h22.05.164,HW_LDT_1,2024.2.4,MacIntel,63.29113924,,,,,,,,,,,,,,,,,,,,,344.929,345.1274,345.1275,345.6273,,,,,,,,,,,,,,1.0233,1,,,,,,,,,,,,,,m,,,,,,,,,,,,,,,,55,0,345.6279,346.6608,m,1,1.0233,,[],[],[],[],[],[],[],346.6609,348.6608,348.6608,348.6611,[],[],[],[],[],[],[],,348.6611,348.6612,0.009088542,-0.420998264,0,0,0,,0,54,54,152,1,3,word,SPECIMEN,print,specimen_p.png,,,,,,
,,,,31897,001,2025-10-16_22h22.05.164,HW_LDT_1,2024.2.4,MacIntel,63.29113924,,,,,,,,,,,,,,,,,,,,,348.6625,348.8608,348.8608,349.3609,,,,,,,,,,,,,,1.0539,1,,,,,,,,,,,,,,z,,,,,,,,,,,,,,,,56,0,349.3614,350.4274,z,1,1.0539,,[],[],[],[],[],[],[],350.4275,352.4275,352.4276,352.4278,[],[],[],[],[],[],[],,352.4279,352.428,0.009088542,-0.420998264,0,0,0,,0,55,55,61,1,3,TL,pocily,print,pocily_p.png,,,,,,
,,,,31897,001,2025-10-16_22h22.05.164,HW_LDT_1,2024.2.4,MacIntel,63.29113924,,,,,,,,,,,,,,,,,,,,,352.4292,352.627,352.6271,353.1276,,,,,,,,,,,,,,7.5237,1,,,,,,,,,,,,,,m,,,,,,,,,,,,,,,,57,0,353.1282,360.6609,m,1,7.5237,,[],[],[],[],[],[],[],360.661,362.6609,362.661,362.6612,[],[],[],[],[],[],[],,362.6613,362.6614,0.009088542,-0.420998264,0,0,0,,0,56,56,126,1,3,word,OPTIMAL,cursive,optimal_c.png,,,,,,
,,,,31897,001,2025-10-16_22h22.05.164,HW_LDT_1,2024.2.4,MacIntel,63.29113924,,,,,,,,,,,,,,,,,,,,,362.6625,362.8609,362.861,363.3611,,,,,,,,,,,,,,3.1044,1,,,,,,,,,,,,,,m,,,,,,,,,,,,,,,,58,0,363.3616,366.4772,m,1,3.1044,,[],[],[],[],[],[],[],366.4772,368.4779,368.4779,368.4781,[],[],[],[],[],[],[],,368.4782,368.4782,0.009088542,-0.420998264,0,0,0,,0,57,57,99,1,3,word,DEBATE,cursive,debate_c.png,,,,,,
,,,,31897,001,2025-10-16_22h22.05.164,HW_LDT_1,2024.2.4,MacIntel,63.29113924,,,,,,,,,,,,,,,,,,,,,368.4796,368.6779,368.678,369.1779,,,,,,,,,,,,,,0.7374,1,,,,,,,,,,,,,,m,,,,,,,,,,,,,,,,59,0,369.1785,369.928,m,1,0.7374,,[],[],[],[],[],[],[],369.9281,371.9279,371.9279,371.928,[],[],[],[],[],[],[],,371.9281,371.9282,0.009088542,-0.420998264,0,0,0,,0,58,58,129,1,3,word,PARENT,print,parent_p.png,,,,,,
,,,,31897,001,2025-10-16_22h22.05.164,HW_LDT_1,2024.2.4,MacIntel,63.29113924,,,,,,,,,,,,,,,,,,,,,371.9297,372.1276,372.1276,372.6279,,,,,,,,,,,,,,0.7376,1,,,,,,,,,,,,,,m,,,,,,,,,,,,,,,,60,0,372.6285,373.378,m,1,0.7376,,[],[],[],[],[],[],[],373.3781,375.378,375.378,375.3781,[],[],[],[],[],[],[],,375.3783,375.3783,0.009088542,-0.420998264,0,0,0,,0,59,59,118,1,3,word,MEDICINE,print,medicine_p.png,,,,,,
,,,,31897,001,2025-10-16_22h22.05.164,HW_LDT_1,2024.2.4,MacIntel,63.29113924,,,,,,,,,,,,,,,,,,,,,375.3797,375.578,375.578,376.078,,,,,,,,,,,,,,0.8036,1,,,,,,,,,,,,,,z,,,,,,,,,,,,,,,,61,0,376.0785,376.8948,z,1,0.8036,,[],[],[],[],[],[],[],376.8949,378.8947,378.8948,378.895,[],[],[],[],[],[],[],,378.895,378.8951,0.009088542,-0.420998264,0,0,0,,0,60,60,2,1,3,RL,betemit,print,betemit_p.png,,,,,,
,,,,31897,001,2025-10-16_22h22.05.164,HW_LDT_1,2024.2.4,MacIntel,63.29113924,,,,,,,,,,,,,,,,,,,,,378.8963,379.0947,379.0947,379.5947,,,,,,,,,,,,,,7.3872,0,,,,,,,,,,,,,,m,,,,,,,,,,,,,,,,62,0,379.5953,386.9939,z,0,7.3872,,[],[],[],[],[],[],[],386.9939,388.9949,388.995,388.9953,[],[],[],[],[],[],[],,388.9953,388.9954,0.009088542,-0.420998264,0,0,0,,0,61,61,149,1,3,word,SENATOR,cursive,senator_c.png,,,,,,
,,,,31897,001,2025-10-16_22h22.05.164,HW_LDT_1,2024.2.4,MacIntel,63.29113924,,,,,,,,,,,,,,,,,,,,,388.9971,389.1949,389.195,389.6949,,,,,,,,,,,,,,0.6689,1,,,,,,,,,,,,,,m,,,,,,,,,,,,,,,,63,0,389.6954,390.3773,m,1,0.6689,,[],[],[],[],[],[],[],390.3775,392.3773,392.3773,392.3775,[],[],[],[],[],[],[],,392.3775,392.3776,0.009088542,-0.420998264,0,0,0,,0,62,62,113,1,3,word,LITERAL,print,literal_p.png,,,,,,
,,,,31897,001,2025-10-16_22h22.05.164,HW_LDT_1,2024.2.4,MacIntel,63.29113924,,,,,,,,,,,,,,,,,,,,,392.3789,392.5779,392.578,393.0774,,,,,,,,,,,,,,1.0538,1,,,,,,,,,,,,,,z,,,,,,,,,,,,,,,,64,0,393.0778,394.145,z,1,1.0538,,[],[],[],[],[],[],[],394.1451,396.1448,396.1448,396.1449,[],[],[],[],[],[],[],,396.145,396.145,0.009088542,-0.420998264,0,0,0,,0,63,63,17,1,3,RL,motide,cursive,motide_c.png,,,,,,
,,,,31897,001,2025-10-16_22h22.05.164,HW_LDT_1,2024.2.4,MacIntel,63.29113924,,,,,,,,,,,,,,,,,,,,,396.1457,396.345,396.3451,396.845,,,,,,,,,,,,,,0.871,1,,,,,,,,,,,,,,z,,,,,,,,,,,,,,,,65,0,396.8456,397.7284,z,1,0.871,,[],[],[],[],[],[],[],397.7286,399.7274,399.7275,399.7277,[],[],[],[],[],[],[],,399.7277,399.7278,0.009088542,-0.420998264,0,0,0,,0,64,64,32,1,3,TL,adacemy,print,adacemy_p.png,,,,,,
,,,,31897,001,2025-10-16_22h22.05.164,HW_LDT_1,2024.2.4,MacIntel,63.29113924,,,,,,,,,,,,,,,,,,,,,399.729,399.9284,399.9285,400.4285,,,,,,,,,,,,,,0.8055,0,,,,,,,,,,,,,,z,,,,,,,,,,,,,,,,66,0,400.4289,401.2451,m,0,0.8055,,[],[],[],[],[],[],[],401.2451,403.2441,403.2442,403.2444,[],[],[],[],[],[],[],,403.2444,403.2445,0.009088542,-0.420998264,0,0,0,,0,65,65,35,1,3,TL,cateferia,print,cateferia_p.png,,,,,,
,,,,31897,001,2025-10-16_22h22.05.164,HW_LDT_1,2024.2.4,MacIntel,63.29113924,,,,,,,,,,,,,,,,,,,,,403.2459,403.4451,403.4451,403.9441,,,,,,,,,,,,,,1.7167,1,,,,,,,,,,,,,,z,,,,,,,,,,,,,,,,67,0,403.9446,405.6621,z,1,1.7167,,[],[],[],[],[],[],[],405.6623,407.6609,407.6609,407.6611,[],[],[],[],[],[],[],,407.6611,407.6613,0.009088542,-0.420998264,0,0,0,,0,66,66,38,1,3,TL,carnidal,print,carnidal_p.png,,,,,,
,,,,31897,001,2025-10-16_22h22.05.164,HW_LDT_1,2024.2.4,MacIntel,63.29113924,,,,,,,,,,,,,,,,,,,,,407.6626,407.862,407.862,408.3619,,,,,,,,,,,,,,0.7863,1,,,,,,,,,,,,,,z,,,,,,,,,,,,,,,,68,0,408.3625,409.161,z,1,0.7863,,[],[],[],[],[],[],[],409.1611,411.1608,411.1609,411.161,[],[],[],[],[],[],[],,411.161,411.1611,0.009088542,-0.420998264,0,0,0,,0,67,67,22,1,3,RL,procogal,print,procogal_p.png,,,,,,
,,,,31897,001,2025-10-16_22h22.05.164,HW_LDT_1,2024.2.4,MacIntel,63.29113924,,,,,,,,,,,,,,,,,,,,,411.162,411.361,411.361,411.862,,,,,,,,,,,,,,1.0711,0,,,,,,,,,,,,,,z,,,,,,,,,,,,,,,,69,0,411.8626,412.9454,m,0,1.0711,,[],[],[],[],[],[],[],412.9455,414.9453,414.9454,414.9456,[],[],[],[],[],[],[],,414.9456,414.9457,0.009088542,-0.420998264,0,0,0,,0,68,68,54,1,3,TL,manire,cursive,manire_c.png,,,,,,
,,,,31897,001,2025-10-16_22h22.05.164,HW_LDT_1,2024.2.4,MacIntel,63.29113924,,,,,,,,,,,,,,,,,,,,,414.9466,415.1444,415.1446,415.645,,,,,,,,,,,,,,1.1545,1,,,,,,,,,,,,,,z,,,,,,,,,,,,,,,,70,0,415.6457,416.8122,z,1,1.1545,,[],[],[],[],[],[],[],416.8122,418.8122,418.8122,418.8124,[],[],[],[],[],[],[],,418.8124,418.8125,0.009088542,-0.420998264,0,0,0,,0,69,69,50,1,3,TL,lirebal,print,lirebal_p.png,,,,,,
,,,,31897,001,2025-10-16_22h22.05.164,HW_LDT_1,2024.2.4,MacIntel,63.29113924,,,,,,,,,,,,,,,,,,,,,418.8139,419.0112,419.0112,419.5113,,,,,,,,,,,,,,0.7538,1,,,,,,,,,,,,,,m,,,,,,,,,,,,,,,,71,0,419.5117,420.2778,m,1,0.7538,,[],[],[],[],[],[],[],420.2779,422.2779,422.278,422.2781,[],[],[],[],[],[],[],,422.2782,422.2783,0.009088542,-0.420998264,0,0,0,,0,70,70,131,1,3,word,POPULAR,print,popular_p.png,,,,,,
,,,,31897,001,2025-10-16_22h22.05.164,HW_LDT_1,2024.2.4,MacIntel,63.29113924,,,,,,,,,,,,,,,,,,,,,422.2795,422.4789,422.4789,422.9787,,,,,,,,,,,,,,1.6904,1,,,,,,,,,,,,,,m,,,,,,,,,,,,,,,,72,0,422.9793,424.6789,m,1,1.6904,,[],[],[],[],[],[],[],424.679,426.679,426.679,426.6792,[],[],[],[],[],[],[],,426.6792,426.6793,0.009088542,-0.420998264,0,0,0,,0,71,71,143,1,3,word,REMOVAL,cursive,removal_c.png,,,,,,
,,,,31897,001,2025-10-16_22h22.05.164,HW_LDT_1,2024.2.4,MacIntel,63.29113924,,,,,,,,,,,,,,,,,,,,,426.6805,426.8788,426.8789,427.3789,,,,,,,,,,,,,,1.686,1,,,,,,,,,,,,,,z,,,,,,,,,,,,,,,,73,0,427.3793,429.0781,z,1,1.686,,[],[],[],[],[],[],[],429.0782,431.0781,431.0781,431.0782,[],[],[],[],[],[],[],,431.0783,431.0784,0.009088542,-0.420998264,0,0,0,,0,72,72,15,1,3,RL,mifikary,cursive,mifikary_c.png,,,,,,
,,,,31897,001,2025-10-16_22h22.05.164,HW_LDT_1,2024.2.4,MacIntel,63.29113924,,,,,,,,,,,,,,,,,,,,,431.0798,431.278,431.2781,431.7781,,,,,,,,,,,,,,0.8366,1,,,,,,,,,,,,,,z,,,,,,,,,,,,,,,,74,0,431.7785,432.6281,z,1,0.8366,,[],[],[],[],[],[],[],432.6281,434.6281,434.6281,434.6283,[],[],[],[],[],[],[],,434.6283,434.6285,0.009088542,-0.420998264,0,0,0,,0,73,73,41,1,3,TL,crinimal,print,crinimal_p.png,,,,,,
,,,,31897,001,2025-10-16_22h22.05.164,HW_LDT_1,2024.2.4,MacIntel,63.29113924,,,,,,,,,,,,,,,,,,,,,434.6297,434.8286,434.8286,435.3281,,,,,,,,,,,,,,1.0231,1,,,,,,,,,,,,,,m,,,,,,,,,,,,,,,,75,0,435.3285,436.3624,m,1,1.0231,,[],[],[],[],[],[],[],436.3625,438.3615,438.3616,438.3618,[],[],[],[],[],[],[],,438.3618,438.3619,0.009088542,-0.420998264,0,0,0,,0,74,74,147,1,3,word,ROMANTIC,cursive,romantic_c.png,,,,,,
,,,,31897,001,2025-10-16_22h22.05.164,HW_LDT_1,2024.2.4,MacIntel,63.29113924,,,,,,,,,,,,,,,,,,,,,438.3631,438.5623,438.5624,439.0615,,,,,,,,,,,,,,1.7321,1,,,,,,,,,,,,,,m,,,,,,,,,,,,,,,,76,1,439.062,440.7957,m,1,1.7321,,[],[],[],[],[],[],[],440.7958,442.7958,442.796,444.1625,[],[],[],[],[],[],[],z,444.1626,444.1627,0.009088542,-0.420998264,0,0,0,,0,75,75,153,1,3,word,STOLEN,cursive,stolen_c.png,1.355,,,,,
,,,,31897,001,2025-10-16_22h22.05.164,HW_LDT_1,2024.2.4,MacIntel,63.29113924,,,,,,,,,,,,,,,,,,,,,444.1637,444.3617,444.3618,444.8625,,,,,,,,,,,,,,4.5544,1,,,,,,,,,,,,,,z,,,,,,,,,,,,,,,,77,0,444.8631,449.429,z,1,4.5544,,[],[],[],[],[],[],[],449.429,451.4284,451.4285,451.4286,[],[],[],[],[],[],[],,451.4287,451.4288,0.009088542,-0.420998264,0,0,0,,0,76,76,57,1,3,TL,moredate,cursive,moredate_c.png,,,,,,
,,,,31897,001,2025-10-16_22h22.05.164,HW_LDT_1,2024.2.4,MacIntel,63.29113924,,,,,,,,,,,,,,,,,,,,,451.4299,451.6293,451.6294,452.1293,,,,,,,,,,,,,,1.4735,1,,,,,,,,,,,,,,z,,,,,,,,,,,,,,,,78,0,452.13,453.6128,z,1,1.4735,,[],[],[],[],[],[],[],453.6128,455.6119,455.6119,455.6121,[],[],[],[],[],[],[],,455.6121,455.6123,0.009088542,-0.420998264,0,0,0,,0,77,77,37,1,3,TL,cacapity,cursive,cacapity_c.png,,,,,,
,,,,31897,001,2025-10-16_22h22.05.164,HW_LDT_1,2024.2.4,MacIntel,63.29113924,,,,,,,,,,,,,,,,,,,,,455.6134,455.8119,455.812,456.3128,,,,,,,,,,,,,,1.6525,1,,,,,,,,,,,,,,m,,,,,,,,,,,,,,,,79,0,456.3133,457.9795,m,1,1.6525,,[],[],[],[],[],[],[],457.9795,459.9787,459.9787,459.9789,[],[],[],[],[],[],[],,459.9789,459.9791,0.009088542,-0.420998264,0,0,0,,0,78,78,93,1,3,word,CEREMONY,cursive,ceremony_c.png,,,,,,
,,,,31897,001,2025-10-16_22h22.05.164,HW_LDT_1,2024.2.4,MacIntel,63.29113924,,,,,,,,,,,,,,,,,,,,,459.9806,460.1786,460.1787,460.6795,,,,,,,,,,,,,,4.3531,0,,,,,,,,,,,,,,m,,,,,,,,,,,,,,,,80,0,460.6801,465.0454,z,0,4.3531,,[],[],[],[],[],[],[],465.0455,467.0465,467.0465,467.0467,[],[],[],[],[],[],[],,467.0467,502.5983,0.009088542,-0.420998264,0,0,0,space,0,79,79,90,1,3,word,CAPITAL,cursive,capital_c.png,,,35.5193,,,
,,,,31897,001,2025-10-16_22h22.05.164,HW_LDT_1,2024.2.4,MacIntel,63.29113924,,,,,,,,,,,,,,,,,,,,,502.6017,502.797,502.7971,503.297,,,,,,,,,,,,,,3.3031,1,,,,,,,,,,,,,,z,,,,,,,,,,,,,,,,81,0,503.2984,506.6139,z,1,3.3031,,[],[],[],[],[],[],[],506.614,508.613,508.613,508.6133,[],[],[],[],[],[],[],,508.6134,508.6135,0.009088542,-0.420998264,0,0,0,,0,80,80,13,1,3,RL,helicage,cursive,helicage_c.png,,,,,,
,,,,31897,001,2025-10-16_22h22.05.164,HW_LDT_1,2024.2.4,MacIntel,63.29113924,,,,,,,,,,,,,,,,,,,,,508.6146,508.8137,508.8137,509.313,,,,,,,,,,,,,,1.6553,1,,,,,,,,,,,,,,m,,,,,,,,,,,,,,,,82,0,509.3136,510.9807,m,1,1.6553,,[],[],[],[],[],[],[],510.9808,512.9806,512.9807,512.9809,[],[],[],[],[],[],[],,512.981,512.981,0.006818576,-0.417764757,0,0,0,,0,81,81,156,1,3,word,TRIBUTE,print,tribute_p.png,,,,,,
,,,,31897,001,2025-10-16_22h22.05.164,HW_LDT_1,2024.2.4,MacIntel,63.29113924,,,,,,,,,,,,,,,,,,,,,512.9822,513.1805,513.1805,513.6806,,,,,,,,,,,,,,0.6563,1,,,,,,,,,,,,,,m,,,,,,,,,,,,,,,,83,0,513.6812,514.3473,m,1,0.6563,,[],[],[],[],[],[],[],514.3474,516.3472,516.3472,516.3474,[],[],[],[],[],[],[],,516.3475,516.3476,0.006818576,-0.417764757,0,0,0,,0,82,82,141,1,3,word,RELIGION,print,religion_p.png,,,,,,
,,,,31897,001,2025-10-16_22h22.05.164,HW_LDT_1,2024.2.4,MacIntel,63.29113924,,,,,,,,,,,,,,,,,,,,,516.3489,516.5473,516.5473,517.0473,,,,,,,,,,,,,,1.0207,1,,,,,,,,,,,,,,z,,,,,,,,,,,,,,,,84,0,517.0479,518.0806,z,1,1.0207,,[],[],[],[],[],[],[],518.0807,520.0806,520.0806,520.0808,[],[],[],[],[],[],[],,520.0809,520.081,0.006818576,-0.417764757,0,0,0,,0,83,83,46,1,3,TL,distupe,print,distupe_p.png,,,,,,
,,,,31897,001,2025-10-16_22h22.05.164,HW_LDT_1,2024.2.4,MacIntel,63.29113924,,,,,,,,,,,,,,,,,,,,,520.0823,520.2807,520.2807,520.7803,,,,,,,,,,,,,,4.323,1,,,,,,,,,,,,,,z,,,,,,,,,,,,,,,,85,0,520.7805,525.1142,z,1,4.323,,[],[],[],[],[],[],[],525.1143,527.1142,527.1143,527.1145,[],[],[],[],[],[],[],,527.1146,527.1147,0.006818576,-0.417764757,0,0,0,,0,84,84,1,1,3,RL,bewoted,cursive,bewoted_c.png,,,,,,
,,,,31897,001,2025-10-16_22h22.05.164,HW_LDT_1,2024.2.4,MacIntel,63.29113924,,,,,,,,,,,,,,,,,,,,,527.1166,527.3142,527.3142,527.8142,,,,,,,,,,,,,,1.6709,1,,,,,,,,,,,,,,m,,,,,,,,,,,,,,,,86,0,527.8149,529.4976,m,1,1.6709,,[],[],[],[],[],[],[],529.4977,531.4976,531.4976,531.4978,[],[],[],[],[],[],[],,531.4978,531.4979,0.006818576,-0.417764757,0,0,0,,0,85,85,154,1,3,word,STORAGE,cursive,storage_c.png,,,,,,
,,,,31897,001,2025-10-16_22h22.05.164,HW_LDT_1,2024.2.4,MacIntel,63.29113924,,,,,,,,,,,,,,,,,,,,,531.4987,531.6974,531.6974,532.1976,,,,,,,,,,,,,,0.7873,1,,,,,,,,,,,,,,m,,,,,,,,,,,,,,,,87,0,532.1981,532.9976,m,1,0.7873,,[],[],[],[],[],[],[],532.9976,534.9976,534.9977,534.9979,[],[],[],[],[],[],[],,534.9979,534.998,0.006818576,-0.417764757,0,0,0,,0,86,86,117,1,3,word,MARINE,cursive,marine_c.png,,,,,,
,,,,31897,001,2025-10-16_22h22.05.164,HW_LDT_1,2024.2.4,MacIntel,63.29113924,,,,,,,,,,,,,,,,,,,,,534.9993,535.1975,535.1976,535.6976,,,,,,,,,,,,,,4.0037,1,,,,,,,,,,,,,,z,,,,,,,,,,,,,,,,88,0,535.6982,539.7144,z,1,4.0037,,[],[],[],[],[],[],[],539.7144,541.7144,541.7144,541.7146,[],[],[],[],[],[],[],,541.7146,541.7147,0.006818576,-0.417764757,0,0,0,,0,87,87,3,1,3,RL,bebine,cursive,bebine_c.png,,,,,,
,,,,31897,001,2025-10-16_22h22.05.164,HW_LDT_1,2024.2.4,MacIntel,63.29113924,,,,,,,,,,,,,,,,,,,,,541.7159,541.9143,541.9143,542.4145,,,,,,,,,,,,,,1.0291,0,,,,,,,,,,,,,,z,,,,,,,,,,,,,,,,89,0,542.4152,543.4476,m,0,1.0291,,[],[],[],[],[],[],[],543.4476,545.4478,545.4478,545.448,[],[],[],[],[],[],[],,545.448,545.4482,0.0065625,-0.417764757,0,0,0,,0,88,88,74,1,3,TL,spemicen,print,spemicen_p.png,,,,,,
,,,,31897,001,2025-10-16_22h22.05.164,HW_LDT_1,2024.2.4,MacIntel,63.29113924,,,,,,,,,,,,,,,,,,,,,545.4495,545.6478,545.6478,546.1479,,,,,,,,,,,,,,3.1535,0,,,,,,,,,,,,,,m,,,,,,,,,,,,,,,,90,0,546.1486,549.3144,z,0,3.1535,,[],[],[],[],[],[],[],549.3145,551.3146,551.3147,551.3149,[],[],[],[],[],[],[],,551.3149,551.3149,0.006302083,-0.417764757,0,0,0,,0,89,89,88,1,3,word,CAMERA,cursive,camera_c.png,,,,,,
,,,,31897,001,2025-10-16_22h22.05.164,HW_LDT_1,2024.2.4,MacIntel,63.29113924,,,,,,,,,,,,,,,,,,,,,551.3163,551.5146,551.5147,552.0146,,,,,,,,,,,,,,1.7711,1,,,,,,,,,,,,,,m,,,,,,,,,,,,,,,,91,1,552.0151,553.7981,m,1,1.7711,,[],[],[],[],[],[],[],553.7982,555.7979,555.798,556.8637,[],[],[],[],[],[],[],z,556.8638,556.8639,0.006302083,-0.417764757,0,0,0,,0,90,90,83,1,3,word,ANIMAL,cursive,animal_c.png,1.0578,,,,,
,,,,31897,001,2025-10-16_22h22.05.164,HW_LDT_1,2024.2.4,MacIntel,63.29113924,,,,,,,,,,,,,,,,,,,,,556.865,557.0646,557.0647,557.5647,,,,,,,,,,,,,,1.5874,1,,,,,,,,,,,,,,z,,,,,,,,,,,,,,,,92,0,557.5653,559.1647,z,1,1.5874,,[],[],[],[],[],[],[],559.1647,561.1645,561.1646,561.1647,[],[],[],[],[],[],[],,561.1648,561.1649,0.006302083,-0.417764757,0,0,0,,0,91,91,40,1,3,TL,condiser,print,condiser_p.png,,,,,,
,,,,31897,001,2025-10-16_22h22.05.164,HW_LDT_1,2024.2.4,MacIntel,63.29113924,,,,,,,,,,,,,,,,,,,,,561.1661,561.3646,561.3647,561.8648,,,,,,,,,,,,,,1.7213,1,,,,,,,,,,,,,,m,,,,,,,,,,,,,,,,93,0,561.8652,563.5981,m,1,1.7213,,[],[],[],[],[],[],[],563.5982,565.5982,565.5982,565.5984,[],[],[],[],[],[],[],,565.5985,565.5986,0.006302083,-0.417764757,0,0,0,,0,92,92,150,1,3,word,SENTIMENT,print,sentiment_p.png,,,,,,
,,,,31897,001,2025-10-16_22h22.05.164,HW_LDT_1,2024.2.4,MacIntel,63.29113924,,,,,,,,,,,,,,,,,,,,,565.5999,565.7981,565.7981,566.2974,,,,,,,,,,,,,,1.1878,1,,,,,,,,,,,,,,m,,,,,,,,,,,,,,,,94,1,566.2982,567.4982,m,1,1.1878,,[],[],[],[],[],[],[],567.4983,569.4982,569.4983,570.7482,[],[],[],[],[],[],[],z,570.7483,570.7484,0.006302083,-0.417764757,0,0,0,,0,93,93,89,1,3,word,CAPACITY,cursive,capacity_c.png,1.2383,,,,,
,,,,31897,001,2025-10-16_22h22.05.164,HW_LDT_1,2024.2.4,MacIntel,63.29113924,,,,,,,,,,,,,,,,,,,,,570.7498,570.9481,570.9481,571.4482,,,,,,,,,,,,,,1.1713,1,,,,,,,,,,,,,,m,,,,,,,,,,,,,,,,95,0,571.4488,572.6316,m,1,1.1713,,[],[],[],[],[],[],[],572.6316,574.6313,574.6313,574.6315,[],[],[],[],[],[],[],,574.6315,574.6315,0.006302083,-0.417764757,0,0,0,,0,94,94,103,1,3,word,DISPUTE,print,dispute_p.png,,,,,,
,,,,31897,001,2025-10-16_22h22.05.164,HW_LDT_1,2024.2.4,MacIntel,63.29113924,,,,,,,,,,,,,,,,,,,,,574.6323,574.8317,574.8318,575.3317,,,,,,,,,,,,,,1.3874,1,,,,,,,,,,,,,,z,,,,,,,,,,,,,,,,96,0,575.3323,576.7316,z,1,1.3874,,[],[],[],[],[],[],[],576.7317,578.7317,578.7318,578.732,[],[],[],[],[],[],[],,578.7321,578.7321,0.006302083,-0.417764757,0,0,0,,0,95,95,16,1,3,RL,mishafe,cursive,mishafe_c.png,,,,,,
,,,,31897,001,2025-10-16_22h22.05.164,HW_LDT_1,2024.2.4,MacIntel,63.29113924,,,,,,,,,,,,,,,,,,,,,578.7336,578.9318,578.9318,579.4318,,,,,,,,,,,,,,1.475,1,,,,,,,,,,,,,,z,,,,,,,,,,,,,,,,97,0,579.4324,580.915,z,1,1.475,,[],[],[],[],[],[],[],580.9151,582.9151,582.9152,582.9154,[],[],[],[],[],[],[],,582.9154,582.9155,0.006302083,-0.417764757,0,0,0,,0,96,96,71,1,3,TL,sanile,cursive,sanile_c.png,,,,,,
,,,,31897,001,2025-10-16_22h22.05.164,HW_LDT_1,2024.2.4,MacIntel,63.29113924,,,,,,,,,,,,,,,,,,,,,582.9166,583.1151,583.1151,583.6151,,,,,,,,,,,,,,0.8808,1,,,,,,,,,,,,,,z,,,,,,,,,,,,,,,,98,1,583.6156,584.4981,z,1,0.8808,,[],[],[],[],[],[],[],584.4981,586.4983,586.4985,587.8318,[],[],[],[],[],[],[],z,587.8319,587.832,0.006302083,-0.417764757,0,0,0,,0,97,97,67,1,3,TL,retome,print,retome_p.png,1.3218,,,,,
,,,,31897,001,2025-10-16_22h22.05.164,HW_LDT_1,2024.2.4,MacIntel,63.29113924,,,,,,,,,,,,,,,,,,,,,587.8333,588.0319,588.0319,588.5319,,,,,,,,,,,,,,1.0702,1,,,,,,,,,,,,,,m,,,,,,,,,,,,,,,,99,0,588.5325,589.6153,m,1,1.0702,,[],[],[],[],[],[],[],589.6153,591.6153,591.6154,591.6156,[],[],[],[],[],[],[],,591.6156,591.6157,0.006302083,-0.417764757,0,0,0,,0,98,98,125,1,3,word,OPERATOR,print,operator_p.png,,,,,,
,,,,31897,001,2025-10-16_22h22.05.164,HW_LDT_1,2024.2.4,MacIntel,63.29113924,,,,,,,,,,,,,,,,,,,,,591.6169,591.8154,591.8154,592.3153,,,,,,,,,,,,,,2.3542,1,,,,,,,,,,,,,,m,,,,,,,,,,,,,,,,100,0,592.3158,594.6819,m,1,2.3542,,[],[],[],[],[],[],[],594.682,596.682,596.6821,596.6822,[],[],[],[],[],[],[],,596.6823,596.6824,0.006302083,-0.417764757,0,0,0,,0,99,99,144,1,3,word,RESIDENT,cursive,resident_c.png,,,,,,
,,,,31897,001,2025-10-16_22h22.05.164,HW_LDT_1,2024.2.4,MacIntel,63.29113924,,,,,,,,,,,,,,,,,,,,,596.6835,596.882,596.882,597.3821,,,,,,,,,,,,,,2.6208,1,,,,,,,,,,,,,,z,,,,,,,,,,,,,,,,101,0,597.3826,600.0155,z,1,2.6208,,[],[],[],[],[],[],[],600.0156,602.0155,602.0155,602.0158,[],[],[],[],[],[],[],,602.0158,602.0158,0.006302083,-0.417764757,0,0,0,,0,100,100,77,1,3,TL,vadility,cursive,vadility_c.png,,,,,,
,,,,31897,001,2025-10-16_22h22.05.164,HW_LDT_1,2024.2.4,MacIntel,63.29113924,,,,,,,,,,,,,,,,,,,,,602.017,602.2155,602.2156,602.7155,,,,,,,,,,,,,,1.0215,1,,,,,,,,,,,,,,m,,,,,,,,,,,,,,,,102,0,602.7161,603.749,m,1,1.0215,,[],[],[],[],[],[],[],603.749,605.7488,605.749,605.7492,[],[],[],[],[],[],[],,605.7493,605.7493,0.006302083,-0.417764757,0,0,0,,0,101,101,101,1,3,word,DELICATE,print,delicate_p.png,,,,,,
,,,,31897,001,2025-10-16_22h22.05.164,HW_LDT_1,2024.2.4,MacIntel,63.29113924,,,,,,,,,,,,,,,,,,,,,605.7504,605.9489,605.9489,606.4489,,,,,,,,,,,,,,1.2035,1,,,,,,,,,,,,,,m,,,,,,,,,,,,,,,,103,0,606.4495,607.6655,m,1,1.2035,,[],[],[],[],[],[],[],607.6656,609.6657,609.6658,609.6659,[],[],[],[],[],[],[],,609.666,609.6661,0.006302083,-0.417764757,0,0,0,,0,102,102,158,1,3,word,VELOCITY,cursive,velocity_c.png,,,,,,
,,,,31897,001,2025-10-16_22h22.05.164,HW_LDT_1,2024.2.4,MacIntel,63.29113924,,,,,,,,,,,,,,,,,,,,,609.6671,609.8656,609.8656,610.3656,,,,,,,,,,,,,,1.3876,1,,,,,,,,,,,,,,m,,,,,,,,,,,,,,,,104,0,610.3662,611.7657,m,1,1.3876,,[],[],[],[],[],[],[],611.7657,613.7657,613.7658,613.7659,[],[],[],[],[],[],[],,613.7659,613.766,0.006302083,-0.417764757,0,0,0,,0,103,103,111,1,3,word,INDICATE,print,indicate_p.png,,,,,,
,,,,31897,001,2025-10-16_22h22.05.164,HW_LDT_1,2024.2.4,MacIntel,63.29113924,,,,,,,,,,,,,,,,,,,,,613.7672,613.9656,613.9657,614.4657,,,,,,,,,,,,,,0.7964,1,,,,,,,,,,,,,,m,,,,,,,,,,,,,,,,105,1,614.4662,615.2654,m,1,0.7964,,[],[],[],[],[],[],[],615.2655,617.2657,617.2658,618.2323,[],[],[],[],[],[],[],m,618.2324,618.2325,0.006302083,-0.417764757,0,0,0,,0,104,104,133,1,3,word,PROVIDE,print,provide_p.png,0.9554,,,,,
,,,,31897,001,2025-10-16_22h22.05.164,HW_LDT_1,2024.2.4,MacIntel,63.29113924,,,,,,,,,,,,,,,,,,,,,618.2336,618.4324,618.4324,618.9324,,,,,,,,,,,,,,1.8812,0,,,,,,,,,,,,,,m,,,,,,,,,,,,,,,,106,1,618.933,620.8157,z,0,1.8812,,[],[],[],[],[],[],[],620.8158,622.8157,622.8157,623.8658,[],[],[],[],[],[],[],z,623.8659,623.866,0.006302083,-0.417764757,0,0,0,,0,105,105,121,1,3,word,MISTAKE,cursive,mistake_c.png,1.0383,,,,,
,,,,31897,001,2025-10-16_22h22.05.164,HW_LDT_1,2024.2.4,MacIntel,63.29113924,,,,,,,,,,,,,,,,,,,,,623.8672,624.0658,624.0659,624.5658,,,,,,,,,,,,,,1.4546,0,,,,,,,,,,,,,,m,,,,,,,,,,,,,,,,107,0,624.5662,626.0326,z,0,1.4546,,[],[],[],[],[],[],[],626.0327,628.0326,628.0327,628.0328,[],[],[],[],[],[],[],,628.0328,628.033,0.006302083,-0.417764757,0,0,0,,0,106,106,123,1,3,word,MODERATE,cursive,moderate_c.png,,,,,,
,,,,31897,001,2025-10-16_22h22.05.164,HW_LDT_1,2024.2.4,MacIntel,63.29113924,,,,,,,,,,,,,,,,,,,,,628.0341,628.2327,628.2328,628.7327,,,,,,,,,,,,,,0.8876,1,,,,,,,,,,,,,,z,,,,,,,,,,,,,,,,108,0,628.7332,629.6327,z,1,0.8876,,[],[],[],[],[],[],[],629.6328,631.6327,631.6328,631.6329,[],[],[],[],[],[],[],,631.633,631.633,0.006302083,-0.417764757,0,0,0,,0,107,107,24,1,3,RL,quafidy,print,quafidy_p.png,,,,,,
,,,,31897,001,2025-10-16_22h22.05.164,HW_LDT_1,2024.2.4,MacIntel,63.29113924,,,,,,,,,,,,,,,,,,,,,631.6342,631.8326,631.8327,632.3327,,,,,,,,,,,,,,1.7874,1,,,,,,,,,,,,,,m,,,,,,,,,,,,,,,,109,0,632.3333,634.1326,m,1,1.7874,,[],[],[],[],[],[],[],634.1327,636.1326,636.1327,636.1329,[],[],[],[],[],[],[],,636.1329,636.133,0.006302083,-0.417764757,0,0,0,,0,108,108,127,1,3,word,ORIGINAL,cursive,original_c.png,,,,,,
,,,,31897,001,2025-10-16_22h22.05.164,HW_LDT_1,2024.2.4,MacIntel,63.29113924,,,,,,,,,,,,,,,,,,,,,636.1339,636.3327,636.3327,636.8328,,,,,,,,,,,,,,1.0209,1,,,,,,,,,,,,,,m,,,,,,,,,,,,,,,,110,0,636.8332,637.8661,m,1,1.0209,,[],[],[],[],[],[],[],637.8662,639.8662,639.8662,639.8664,[],[],[],[],[],[],[],,639.8665,639.8666,0.006302083,-0.417764757,0,0,0,,0,109,109,98,1,3,word,CRIMINAL,print,criminal_p.png,,,,,,
,,,,31897,001,2025-10-16_22h22.05.164,HW_LDT_1,2024.2.4,MacIntel,63.29113924,,,,,,,,,,,,,,,,,,,,,639.8678,640.0658,640.0659,640.5662,,,,,,,,,,,,,,6.1572,1,,,,,,,,,,,,,,z,,,,,,,,,,,,,,,,111,0,640.5668,646.733,z,1,6.1572,,[],[],[],[],[],[],[],646.7332,648.733,648.733,648.7332,[],[],[],[],[],[],[],,648.7332,648.7333,0.006302083,-0.417764757,0,0,0,,0,110,110,75,1,3,TL,sloten,cursive,sloten_c.png,,,,,,
,,,,31897,001,2025-10-16_22h22.05.164,HW_LDT_1,2024.2.4,MacIntel,63.29113924,,,,,,,,,,,,,,,,,,,,,648.7348,648.933,648.9331,649.433,,,,,,,,,,,,,,0.8724,1,,,,,,,,,,,,,,z,,,,,,,,,,,,,,,,112,1,649.4336,650.3163,z,1,0.8724,,[],[],[],[],[],[],[],650.3164,652.3163,652.3164,653.4663,[],[],[],[],[],[],[],m,653.4664,653.4665,0.006302083,-0.417764757,0,0,0,,0,111,111,31,1,3,RL,trilude,print,trilude_p.png,1.1384,,,,,
,,,,31897,001,2025-10-16_22h22.05.164,HW_LDT_1,2024.2.4,MacIntel,63.29113924,,,,,,,,,,,,,,,,,,,,,653.4676,653.6663,653.6663,654.166,,,,,,,,,,,,,,0.8718,1,,,,,,,,,,,,,,z,,,,,,,,,,,,,,,,113,0,654.1663,655.0497,z,1,0.8718,,[],[],[],[],[],[],[],655.0498,657.0498,657.05,657.0502,[],[],[],[],[],[],[],,657.0503,657.0503,0.006302083,-0.417764757,0,0,0,,0,112,112,10,1,3,RL,efibor,print,efibor_p.png,,,,,,
,,,,31897,001,2025-10-16_22h22.05.164,HW_LDT_1,2024.2.4,MacIntel,63.29113924,,,,,,,,,,,,,,,,,,,,,657.0517,657.2498,657.2498,657.7498,,,,,,,,,,,,,,1.4412,1,,,,,,,,,,,,,,z,,,,,,,,,,,,,,,,114,1,657.7503,659.1996,z,1,1.4412,,[],[],[],[],[],[],[],659.1996,661.1999,661.1999,662.1659,[],[],[],[],[],[],[],z,662.166,662.166,0.006302083,-0.417764757,0,0,0,,0,113,113,78,1,3,TL,vecolity,cursive,vecolity_c.png,0.9641,,,,,
,,,,31897,001,2025-10-16_22h22.05.164,HW_LDT_1,2024.2.4,MacIntel,63.29113924,,,,,,,,,,,,,,,,,,,,,662.1668,662.3666,662.3666,662.8667,,,,,,,,,,,,,,1.2372,0,,,,,,,,,,,,,,m,,,,,,,,,,,,,,,,115,0,662.8674,664.1165,z,0,1.2372,,[],[],[],[],[],[],[],664.1166,666.1167,666.1167,666.1169,[],[],[],[],[],[],[],,666.117,666.1171,0.006302083,-0.417764757,0,0,0,,0,114,114,92,1,3,word,CATEGORY,cursive,category_c.png,,,,,,
,,,,31897,001,2025-10-16_22h22.05.164,HW_LDT_1,2024.2.4,MacIntel,63.29113924,,,,,,,,,,,,,,,,,,,,,666.1182,666.3167,666.3168,666.8167,,,,,,,,,,,,,,1.2037,1,,,,,,,,,,,,,,m,,,,,,,,,,,,,,,,116,0,666.8173,668.0332,m,1,1.2037,,[],[],[],[],[],[],[],668.0333,670.0333,670.0334,670.0336,[],[],[],[],[],[],[],,670.0336,670.0337,0.006302083,-0.417764757,0,0,0,,0,115,115,81,1,3,word,ADVISORY,print,advisory_p.png,,,,,,
,,,,31897,001,2025-10-16_22h22.05.164,HW_LDT_1,2024.2.4,MacIntel,63.29113924,,,,,,,,,,,,,,,,,,,,,670.0349,670.2334,670.2335,670.733,,,,,,,,,,,,,,1.2324,1,,,,,,,,,,,,,,m,,,,,,,,,,,,,,,,117,0,670.7334,671.967,m,1,1.2324,,[],[],[],[],[],[],[],671.9671,673.9667,673.9668,673.967,[],[],[],[],[],[],[],,673.9671,673.9671,0.006302083,-0.417764757,0,0,0,,0,116,116,86,1,3,word,BESIDE,cursive,beside_c.png,,,,,,
,,,,31897,001,2025-10-16_22h22.05.164,HW_LDT_1,2024.2.4,MacIntel,63.29113924,,,,,,,,,,,,,,,,,,,,,673.9683,674.1666,674.1666,674.6666,,,,,,,,,,,,,,2.565,1,,,,,,,,,,,,,,z,,,,,,,,,,,,,,,,118,0,674.6671,677.2336,z,1,2.565,,[],[],[],[],[],[],[],677.2337,679.2335,679.2335,679.2338,[],[],[],[],[],[],[],,679.2338,679.2339,0.006302083,-0.417764757,0,0,0,,0,117,117,11,1,3,RL,ebiwent,cursive,ebiwent_c.png,,,,,,
,,,,31897,001,2025-10-16_22h22.05.164,HW_LDT_1,2024.2.4,MacIntel,63.29113924,,,,,,,,,,,,,,,,,,,,,679.235,679.4335,679.4335,679.9329,,,,,,,,,,,,,,1.1216,0,,,,,,,,,,,,,,m,,,,,,,,,,,,,,,,119,0,679.9334,681.0668,z,0,1.1216,,[],[],[],[],[],[],[],681.0669,683.067,683.067,683.0672,[],[],[],[],[],[],[],,683.0672,683.0673,0.006302083,-0.417764757,0,0,0,,0,118,118,110,1,3,word,HERITAGE,cursive,heritage_c.png,,,,,,
,,,,31897,001,2025-10-16_22h22.05.164,HW_LDT_1,2024.2.4,MacIntel,63.29113924,,,,,,,,,,,,,,,,,,,,,683.0685,683.2671,683.2672,683.767,,,,,,,,,,,,,,0.7647,1,,,,,,,,,,,,,,z,,,,,,,,,,,,,,,,120,0,683.7677,684.5336,z,1,0.7647,,[],[],[],[],[],[],[],684.5337,686.5337,686.5337,686.5339,[],[],[],[],[],[],[],,686.5339,686.534,0.006302083,-0.417764757,0,0,0,,0,119,119,27,1,3,RL,recile,print,recile_p.png,,,,,,
,,,,31897,001,2025-10-16_22h22.05.164,HW_LDT_1,2024.2.4,MacIntel,63.29113924,,,,,,,,,,,,,,,,,,,,,686.5354,686.7336,686.7337,687.2337,,,,,,,,,,,,,,1.2075,1,,,,,,,,,,,,,,z,,,,,,,,,,,,,,,,121,1,687.2343,688.4505,z,1,1.2075,,[],[],[],[],[],[],[],688.4507,690.4503,690.4504,691.4004,[],[],[],[],[],[],[],z,691.4005,691.4005,0.006302083,-0.417764757,0,0,0,,0,120,120,66,1,3,TL,retalive,cursive,retalive_c.png,0.9382,,,,,
,,,,31897,001,2025-10-16_22h22.05.164,HW_LDT_1,2024.2.4,MacIntel,63.29113924,,,,,,,,,,,,,,,,,,,,,691.4016,691.6004,691.6005,692.1003,,,,,,,,,,,,,,2.4209,1,,,,,,,,,,,,,,m,,,,,,,,,,,,,,,,122,1,692.101,694.5337,m,1,2.4209,,[],[],[],[],[],[],[],694.5338,696.5338,696.5339,697.5837,[],[],[],[],[],[],[],m,697.5837,697.5838,0.006302083,-0.417764757,0,0,0,,0,121,121,155,1,3,word,STRATEGY,print,strategy_p.png,1.0382,,,,,
,,,,31897,001,2025-10-16_22h22.05.164,HW_LDT_1,2024.2.4,MacIntel,63.29113924,,,,,,,,,,,,,,,,,,,,,697.5848,697.7836,697.7836,698.2838,,,,,,,,,,,,,,0.9541,1,,,,,,,,,,,,,,m,,,,,,,,,,,,,,,,123,1,698.2841,699.2504,m,1,0.9541,,[],[],[],[],[],[],[],699.2506,701.2503,701.2504,702.0007,[],[],[],[],[],[],[],m,702.0008,702.001,0.006302083,-0.417764757,0,0,0,,0,122,122,135,1,3,word,QUALITY,print,quality_p.png,0.7398,,,,,
,,,,31897,001,2025-10-16_22h22.05.164,HW_LDT_1,2024.2.4,MacIntel,63.29113924,,,,,,,,,,,,,,,,,,,,,702.0022,702.2006,702.2007,702.7007,,,,,,,,,,,,,,1.1709,1,,,,,,,,,,,,,,m,,,,,,,,,,,,,,,,124,0,702.7012,703.8839,m,1,1.1709,,[],[],[],[],[],[],[],703.884,705.884,705.8841,705.8843,[],[],[],[],[],[],[],,705.8843,705.8844,0.006302083,-0.417764757,0,0,0,,0,123,123,112,1,3,word,LIBERAL,print,liberal_p.png,,,,,,
,,,,31897,001,2025-10-16_22h22.05.164,HW_LDT_1,2024.2.4,MacIntel,63.29113924,,,,,,,,,,,,,,,,,,,,,705.8856,706.084,706.0841,706.584,,,,,,,,,,,,,,1.4151,0,,,,,,,,,,,,,,m,,,,,,,,,,,,,,,,125,0,706.5846,708.0006,z,0,1.4151,,[],[],[],[],[],[],[],708.0007,710.0008,710.0008,710.001,[],[],[],[],[],[],[],,710.0011,710.0012,0.006302083,-0.417764757,0,0,0,,0,124,124,114,1,3,word,LOCATE,cursive,locate_c.png,,,,,,
,,,,31897,001,2025-10-16_22h22.05.164,HW_LDT_1,2024.2.4,MacIntel,63.29113924,,,,,,,,,,,,,,,,,,,,,710.0024,710.2007,710.2007,710.7008,,,,,,,,,,,,,,1.104,1,,,,,,,,,,,,,,m,,,,,,,,,,,,,,,,126,0,710.7014,711.8173,m,1,1.104,,[],[],[],[],[],[],[],711.8175,713.8174,713.8175,713.8177,[],[],[],[],[],[],[],,713.8177,713.8179,0.006302083,-0.417764757,0,0,0,,0,125,125,94,1,3,word,CLINICAL,print,clinical_p.png,,,,,,
,,,,31897,001,2025-10-16_22h22.05.164,HW_LDT_1,2024.2.4,MacIntel,63.29113924,,,,,,,,,,,,,,,,,,,,,713.8191,714.0175,714.0175,714.5175,,,,,,,,,,,,,,0.7712,0,,,,,,,,,,,,,,m,,,,,,,,,,,,,,,,127,0,714.518,715.3009,z,0,0.7712,,[],[],[],[],[],[],[],715.301,717.3009,717.301,717.3011,[],[],[],[],[],[],[],,717.3011,717.3013,0.006302083,-0.417764757,0,0,0,,0,126,126,108,1,3,word,FORTUNE,cursive,fortune_c.png,,,,,,
,,,,31897,001,2025-10-16_22h22.05.164,HW_LDT_1,2024.2.4,MacIntel,63.29113924,,,,,,,,,,,,,,,,,,,,,717.3023,717.501,717.501,718.0009,,,,,,,,,,,,,,0.9375,1,,,,,,,,,,,,,,z,,,,,,,,,,,,,,,,128,0,718.0015,718.9509,z,1,0.9375,,[],[],[],[],[],[],[],718.9509,720.951,720.951,720.9512,[],[],[],[],[],[],[],,720.9513,720.9514,0.006302083,-0.417764757,0,0,0,,0,127,127,55,1,3,TL,mecidine,print,mecidine_p.png,,,,,,
,,,,31897,001,2025-10-16_22h22.05.164,HW_LDT_1,2024.2.4,MacIntel,63.29113924,,,,,,,,,,,,,,,,,,,,,720.9527,721.151,721.151,721.6509,,,,,,,,,,,,,,2.2703,1,,,,,,,,,,,,,,m,,,,,,,,,,,,,,,,129,0,721.6515,723.9333,m,1,2.2703,,[],[],[],[],[],[],[],723.9333,725.9344,725.9344,725.9346,[],[],[],[],[],[],[],,725.9346,725.9347,0.006302083,-0.417764757,0,0,0,,0,128,128,107,1,3,word,EVIDENT,cursive,evident_c.png,,,,,,
,,,,31897,001,2025-10-16_22h22.05.164,HW_LDT_1,2024.2.4,MacIntel,63.29113924,,,,,,,,,,,,,,,,,,,,,725.9361,726.1334,726.1334,726.6334,,,,,,,,,,,,,,1.1237,1,,,,,,,,,,,,,,z,,,,,,,,,,,,,,,,130,1,726.634,727.7677,z,1,1.1237,,[],[],[],[],[],[],[],727.7678,729.7678,729.7678,730.8167,[],[],[],[],[],[],[],m,730.8168,730.8169,0.006302083,-0.417764757,0,0,0,,0,129,129,45,1,3,TL,dentisy,print,dentisy_p.png,1.0386,,,,,
,,,,31897,001,2025-10-16_22h22.05.164,HW_LDT_1,2024.2.4,MacIntel,63.29113924,,,,,,,,,,,,,,,,,,,,,730.8179,731.0177,731.0177,731.5178,,,,,,,,,,,,,,1.0217,1,,,,,,,,,,,,,,m,,,,,,,,,,,,,,,,131,0,731.5184,732.5501,m,1,1.0217,,[],[],[],[],[],[],[],732.5501,734.5511,734.5512,734.5514,[],[],[],[],[],[],[],,734.5515,734.5515,0.006302083,-0.417764757,0,0,0,,0,130,130,119,1,3,word,MEMORY,print,memory_p.png,,,,,,
,,,,31897,001,2025-10-16_22h22.05.164,HW_LDT_1,2024.2.4,MacIntel,63.29113924,,,,,,,,,,,,,,,,,,,,,734.5527,734.7511,734.7512,735.2512,,,,,,,,,,,,,,0.8031,1,,,,,,,,,,,,,,m,,,,,,,,,,,,,,,,132,1,735.2517,736.0674,m,1,0.8031,,[],[],[],[],[],[],[],736.0674,738.0678,738.0679,738.7845,[],[],[],[],[],[],[],m,738.7846,738.7847,0.006302083,-0.417764757,0,0,0,,0,131,131,96,1,3,word,CONSIDER,print,consider_p.png,0.7049,,,,,
,,,,31897,001,2025-10-16_22h22.05.164,HW_LDT_1,2024.2.4,MacIntel,63.29113924,,,,,,,,,,,,,,,,,,,,,738.7861,738.9836,738.9837,739.4837,,,,,,,,,,,,,,1.2039,1,,,,,,,,,,,,,,m,,,,,,,,,,,,,,,,133,0,739.4842,740.7012,m,1,1.2039,,[],[],[],[],[],[],[],740.7012,742.7013,742.7013,742.7016,[],[],[],[],[],[],[],,742.7016,742.7017,0.006302083,-0.417764757,0,0,0,,0,132,132,80,1,3,word,ACADEMY,print,academy_p.png,,,,,,
,,,,31897,001,2025-10-16_22h22.05.164,HW_LDT_1,2024.2.4,MacIntel,63.29113924,,,,,,,,,,,,,,,,,,,,,742.7029,742.9013,742.9013,743.4006,,,,,,,,,,,,,,0.8701,1,,,,,,,,,,,,,,m,,,,,,,,,,,,,,,,134,0,743.401,744.2847,m,1,0.8701,,[],[],[],[],[],[],[],744.2847,746.2838,746.2839,746.284,[],[],[],[],[],[],[],,746.2841,746.2841,0.006302083,-0.417764757,0,0,0,,0,133,133,136,1,3,word,RADICAL,cursive,radical_c.png,,,,,,
,,,,31897,001,2025-10-16_22h22.05.164,HW_LDT_1,2024.2.4,MacIntel,63.29113924,,,,,,,,,,,,,,,,,,,,,746.2854,746.4837,746.4838,746.9837,,,,,,,,,,,,,,0.9052,1,,,,,,,,,,,,,,z,,,,,,,,,,,,,,,,135,0,746.9843,747.9004,z,1,0.9052,,[],[],[],[],[],[],[],747.9005,749.9014,749.9014,749.9017,[],[],[],[],[],[],[],,749.9018,749.9019,0.006302083,-0.417764757,0,0,0,,0,134,134,49,1,3,TL,incidate,print,incidate_p.png,,,,,,
,,,,31897,001,2025-10-16_22h22.05.164,HW_LDT_1,2024.2.4,MacIntel,63.29113924,,,,,,,,,,,,,,,,,,,,,749.903,750.1005,750.1005,750.6004,,,,,,,,,,,,,,1.3553,0,,,,,,,,,,,,,,m,,,,,,,,,,,,,,,,136,0,750.601,751.9673,z,0,1.3553,,[],[],[],[],[],[],[],751.9673,753.9672,753.9673,753.9674,[],[],[],[],[],[],[],,753.9674,753.9675,0.006302083,-0.417764757,0,0,0,,0,135,135,122,1,3,word,MOBILE,cursive,mobile_c.png,,,,,,
,,,,31897,001,2025-10-16_22h22.05.164,HW_LDT_1,2024.2.4,MacIntel,63.29113924,,,,,,,,,,,,,,,,,,,,,753.9686,754.1682,754.1682,754.6682,,,,,,,,,,,,,,4.2147,1,,,,,,,,,,,,,,z,,,,,,,,,,,,,,,,137,0,754.6687,758.8843,z,1,4.2147,,[],[],[],[],[],[],[],758.8845,760.885,760.885,760.8853,[],[],[],[],[],[],[],,760.8853,760.8853,0.006302083,-0.417764757,0,0,0,,0,136,136,14,1,3,RL,lofase,cursive,lofase_c.png,,,,,,
,,,,31897,001,2025-10-16_22h22.05.164,HW_LDT_1,2024.2.4,MacIntel,63.29113924,,,,,,,,,,,,,,,,,,,,,760.8864,761.0845,761.0845,761.584,,,,,,,,,,,,,,0.8704,1,,,,,,,,,,,,,,m,,,,,,,,,,,,,,,,138,0,761.5846,762.4675,m,1,0.8704,,[],[],[],[],[],[],[],762.4676,764.4675,764.4675,764.4677,[],[],[],[],[],[],[],,764.4677,764.4678,0.006302083,-0.417764757,0,0,0,,0,137,137,151,1,3,word,SPECIFIC,print,specific_p.png,,,,,,
,,,,31897,001,2025-10-16_22h22.05.164,HW_LDT_1,2024.2.4,MacIntel,63.29113924,,,,,,,,,,,,,,,,,,,,,764.469,764.6683,764.6683,765.1684,,,,,,,,,,,,,,2.8038,1,,,,,,,,,,,,,,z,,,,,,,,,,,,,,,,139,0,765.1689,767.9842,z,1,2.8038,,[],[],[],[],[],[],[],767.9842,769.9851,769.9851,769.9852,[],[],[],[],[],[],[],,769.9854,769.9854,0.006302083,-0.417764757,0,0,0,,0,138,138,76,1,3,TL,stogare,cursive,stogare_c.png,,,,,,
,,,,31897,001,2025-10-16_22h22.05.164,HW_LDT_1,2024.2.4,MacIntel,63.29113924,,,,,,,,,,,,,,,,,,,,,769.9864,770.1852,770.1853,770.6851,,,,,,,,,,,,,,1.0557,1,,,,,,,,,,,,,,m,,,,,,,,,,,,,,,,140,0,770.6855,771.7517,m,1,1.0557,,[],[],[],[],[],[],[],771.7518,773.7508,773.7509,773.751,[],[],[],[],[],[],[],,773.7511,773.7512,0.006302083,-0.417764757,0,0,0,,0,139,139,134,1,3,word,QUALIFY,print,qualify_p.png,,,,,,
,,,,31897,001,2025-10-16_22h22.05.164,HW_LDT_1,2024.2.4,MacIntel,63.29113924,,,,,,,,,,,,,,,,,,,,,773.7523,773.9509,773.951,774.4509,,,,,,,,,,,,,,2.1386,1,,,,,,,,,,,,,,m,,,,,,,,,,,,,,,,141,1,774.4514,776.6011,m,1,2.1386,,[],[],[],[],[],[],[],776.6011,778.601,778.6011,779.3844,[],[],[],[],[],[],[],m,779.3845,779.3846,0.006302083,-0.417764757,0,0,0,,0,140,140,102,1,3,word,DENSITY,print,density_p.png,0.7711,,,,,
,,,,31897,001,2025-10-16_22h22.05.164,HW_LDT_1,2024.2.4,MacIntel,63.29113924,,,,,,,,,,,,,,,,,,,,,779.3855,779.5853,779.5853,780.085,,,,,,,,,,,,,,0.6398,1,,,,,,,,,,,,,,m,,,,,,,,,,,,,,,,142,0,780.0856,780.7343,m,1,0.6398,,[],[],[],[],[],[],[],780.7344,782.7343,782.7344,782.7346,[],[],[],[],[],[],[],,782.7347,782.7348,0.006302083,-0.417764757,0,0,0,,0,141,141,95,1,3,word,COMEDY,print,comedy_p.png,,,,,,
,,,,31897,001,2025-10-16_22h22.05.164,HW_LDT_1,2024.2.4,MacIntel,63.29113924,,,,,,,,,,,,,,,,,,,,,782.7358,782.9354,782.9354,783.4354,,,,,,,,,,,,,,0.6302,1,,,,,,,,,,,,,,z,,,,,,,,,,,,,,,,143,1,783.4359,784.0675,z,1,0.6302,,[],[],[],[],[],[],[],784.0676,786.0687,786.0688,786.9355,[],[],[],[],[],[],[],m,786.9355,786.9356,0.006302083,-0.417764757,0,0,0,,0,142,142,0,1,3,RL,afaneur,print,afaneur_p.png,0.8549,,,,,
,,,,31897,001,2025-10-16_22h22.05.164,HW_LDT_1,2024.2.4,MacIntel,63.29113924,,,,,,,,,,,,,,,,,,,,,786.9368,787.1355,787.1355,787.6344,,,,,,,,,,,,,,1.039,1,,,,,,,,,,,,,,z,,,,,,,,,,,,,,,,144,0,787.635,788.6851,z,1,1.039,,[],[],[],[],[],[],[],788.6852,790.6855,790.6857,790.6858,[],[],[],[],[],[],[],,790.6859,790.6859,0.006302083,-0.417764757,0,0,0,,0,143,143,63,1,3,TL,racidal,cursive,racidal_c.png,,,,,,
,,,,31897,001,2025-10-16_22h22.05.164,HW_LDT_1,2024.2.4,MacIntel,63.29113924,,,,,,,,,,,,,,,,,,,,,790.6872,790.8855,790.8855,791.3855,,,,,,,,,,,,,,4.8709,1,,,,,,,,,,,,,,z,,,,,,,,,,,,,,,,145,0,791.3861,796.2689,z,1,4.8709,,[],[],[],[],[],[],[],796.2689,798.269,798.269,798.2692,[],[],[],[],[],[],[],,798.2692,798.2694,0.006302083,-0.417764757,0,0,0,,0,144,144,43,1,3,TL,dedace,cursive,dedace_c.png,,,,,,
,,,,31897,001,2025-10-16_22h22.05.164,HW_LDT_1,2024.2.4,MacIntel,63.29113924,,,,,,,,,,,,,,,,,,,,,798.2704,798.469,798.4691,798.9691,,,,,,,,,,,,,,0.704,1,,,,,,,,,,,,,,z,,,,,,,,,,,,,,,,146,0,798.9696,799.6856,z,1,0.704,,[],[],[],[],[],[],[],799.6857,801.6857,801.6858,801.6859,[],[],[],[],[],[],[],,801.6859,801.6861,0.006302083,-0.417764757,0,0,0,,0,145,145,23,1,3,RL,quakity,print,quakity_p.png,,,,,,
,,,,31897,001,2025-10-16_22h22.05.164,HW_LDT_1,2024.2.4,MacIntel,63.29113924,,,,,,,,,,,,,,,,,,,,,801.6873,801.8859,801.8859,802.3858,,,,,,,,,,,,,,0.7465,1,,,,,,,,,,,,,,z,,,,,,,,,,,,,,,,147,1,802.3863,803.1354,z,1,0.7465,,[],[],[],[],[],[],[],803.1355,805.1356,805.1356,806.3691,[],[],[],[],[],[],[],z,806.3692,806.3693,0.006302083,-0.417764757,0,0,0,,0,146,146,62,1,3,TL,prodive,print,prodive_p.png,1.2237,,,,,
,,,,31897,001,2025-10-16_22h22.05.164,HW_LDT_1,2024.2.4,MacIntel,63.29113924,,,,,,,,,,,,,,,,,,,,,806.3705,806.5691,806.5691,807.0687,,,,,,,,,,,,,,1.0825,1,,,,,,,,,,,,,,m,,,,,,,,,,,,,,,,148,0,807.0689,808.1521,m,1,1.0825,,[],[],[],[],[],[],[],808.1522,810.1526,810.1526,810.1528,[],[],[],[],[],[],[],,810.1529,810.153,0.006302083,-0.417764757,0,0,0,,0,147,147,124,1,3,word,NUMERICAL,print,numerical_p.png,,,,,,
,,,,31897,001,2025-10-16_22h22.05.164,HW_LDT_1,2024.2.4,MacIntel,63.29113924,,,,,,,,,,,,,,,,,,,,,810.1543,810.3526,810.3526,810.8526,,,,,,,,,,,,,,4.6375,1,,,,,,,,,,,,,,z,,,,,,,,,,,,,,,,149,0,810.8531,815.5025,z,1,4.6375,,[],[],[],[],[],[],[],815.5026,817.5026,817.5027,817.5029,[],[],[],[],[],[],[],,817.503,817.503,0.006302083,-0.417764757,0,0,0,,0,148,148,20,1,3,RL,orimipal,cursive,orimipal_c.png,,,,,,
,,,,31897,001,2025-10-16_22h22.05.164,HW_LDT_1,2024.2.4,MacIntel,63.29113924,,,,,,,,,,,,,,,,,,,,,817.5042,817.7027,817.7027,818.202,,,,,,,,,,,,,,0.7042,1,,,,,,,,,,,,,,z,,,,,,,,,,,,,,,,150,1,818.2023,818.9193,z,1,0.7042,,[],[],[],[],[],[],[],818.9194,820.9193,820.9193,821.8359,[],[],[],[],[],[],[],z,821.836,821.8362,0.006302083,-0.417764757,0,0,0,,0,149,149,36,1,3,TL,carema,cursive,carema_c.png,0.905,,,,,
,,,,31897,001,2025-10-16_22h22.05.164,HW_LDT_1,2024.2.4,MacIntel,63.29113924,,,,,,,,,,,,,,,,,,,,,821.8374,822.0361,822.0362,822.5357,,,,,,,,,,,,,,1.387,1,,,,,,,,,,,,,,z,,,,,,,,,,,,,,,,151,0,822.5363,823.9356,z,1,1.387,,[],[],[],[],[],[],[],823.9357,825.9361,825.9362,825.9364,[],[],[],[],[],[],[],,825.9364,825.9365,0.006302083,-0.417764757,0,0,0,,0,150,150,44,1,3,TL,decilate,print,decilate_p.png,,,,,,
,,,,31897,001,2025-10-16_22h22.05.164,HW_LDT_1,2024.2.4,MacIntel,63.29113924,,,,,,,,,,,,,,,,,,,,,825.9377,826.1362,826.1362,826.6362,,,,,,,,,,,,,,5.0648,1,,,,,,,,,,,,,,m,,,,,,,,,,,,,,,,152,0,826.6369,831.703,m,1,5.0648,,[],[],[],[],[],[],[],831.703,833.7029,833.703,833.7032,[],[],[],[],[],[],[],,833.7033,833.7034,0.006302083,-0.417764757,0,0,0,,0,151,151,128,1,3,word,PACIFIC,cursive,pacific_c.png,,,,,,
,,,,31897,001,2025-10-16_22h22.05.164,HW_LDT_1,2024.2.4,MacIntel,63.29113924,,,,,,,,,,,,,,,,,,,,,833.7047,833.9028,833.9028,834.4029,,,,,,,,,,,,,,0.7864,1,,,,,,,,,,,,,,z,,,,,,,,,,,,,,,,153,1,834.4036,835.2029,z,1,0.7864,,[],[],[],[],[],[],[],835.2029,837.202,837.202,838.153,[],[],[],[],[],[],[],m,838.1531,838.1531,0.006302083,-0.417764757,0,0,0,,0,152,152,9,1,3,RL,docirant,print,docirant_p.png,0.9395,,,,,
,,,,31897,001,2025-10-16_22h22.05.164,HW_LDT_1,2024.2.4,MacIntel,63.29113924,,,,,,,,,,,,,,,,,,,,,838.1541,838.353,838.3531,838.853,,,,,,,,,,,,,,1.3228,1,,,,,,,,,,,,,,z,,,,,,,,,,,,,,,,154,0,838.8535,840.1863,z,1,1.3228,,[],[],[],[],[],[],[],840.1863,842.1863,842.1864,842.1866,[],[],[],[],[],[],[],,842.1866,842.1867,0.006302083,-0.417764757,0,0,0,,0,153,153,39,1,3,TL,clicinal,print,clicinal_p.png,,,,,,
,,,,31897,001,2025-10-16_22h22.05.164,HW_LDT_1,2024.2.4,MacIntel,63.29113924,,,,,,,,,,,,,,,,,,,,,842.1879,842.3864,842.3865,842.8865,,,,,,,,,,,,,,1.5814,1,,,,,,,,,,,,,,z,,,,,,,,,,,,,,,,155,0,842.887,844.4698,z,1,1.5814,,[],[],[],[],[],[],[],844.4698,846.4689,846.4689,846.469,[],[],[],[],[],[],[],,846.4691,846.4692,0.006302083,-0.417764757,0,0,0,,0,154,154,5,1,3,RL,capefory,cursive,capefory_c.png,,,,,,
,,,,31897,001,2025-10-16_22h22.05.164,HW_LDT_1,2024.2.4,MacIntel,63.29113924,,,,,,,,,,,,,,,,,,,,,846.4704,846.6688,846.6689,847.1697,,,,,,,,,,,,,,3.4223,0,,,,,,,,,,,,,,m,,,,,,,,,,,,,,,,156,0,847.1703,850.6032,z,0,3.4223,,[],[],[],[],[],[],[],850.6033,852.6034,852.6034,852.6035,[],[],[],[],[],[],[],,852.6036,852.6037,0.006302083,-0.417764757,0,0,0,,0,155,155,145,1,3,word,RESUME,cursive,resume_c.png,,,,,,
,,,,31897,001,2025-10-16_22h22.05.164,HW_LDT_1,2024.2.4,MacIntel,63.29113924,,,,,,,,,,,,,,,,,,,,,852.6048,852.8022,852.8023,853.3033,,,,,,,,,,,,,,0.9701,1,,,,,,,,,,,,,,m,,,,,,,,,,,,,,,,157,1,853.3039,854.2867,m,1,0.9701,,[],[],[],[],[],[],[],854.2868,856.2866,856.2868,857.2367,[],[],[],[],[],[],[],m,857.2368,857.2368,0.006302083,-0.417764757,0,0,0,,0,156,156,116,1,3,word,MARGINAL,print,marginal_p.png,0.938,,,,,
,,,,31897,001,2025-10-16_22h22.05.164,HW_LDT_1,2024.2.4,MacIntel,63.29113924,,,,,,,,,,,,,,,,,,,,,857.2379,857.4368,857.4368,857.9367,,,,,,,,,,,,,,0.8364,1,,,,,,,,,,,,,,m,,,,,,,,,,,,,,,,158,0,857.9373,858.7864,m,1,0.8364,,[],[],[],[],[],[],[],858.7864,860.7867,860.7868,860.787,[],[],[],[],[],[],[],,860.787,860.7871,0.006302083,-0.417764757,0,0,0,,0,157,157,87,1,3,word,CAFETERIA,print,cafeteria_p.png,,,,,,
,,,,31897,001,2025-10-16_22h22.05.164,HW_LDT_1,2024.2.4,MacIntel,63.29113924,,,,,,,,,,,,,,,,,,,,,860.7882,860.9869,860.9869,861.4868,,,,,,,,,,,,,,0.704,1,,,,,,,,,,,,,,m,,,,,,,,,,,,,,,,159,0,861.4873,862.2034,m,1,0.704,,[],[],[],[],[],[],[],862.2034,864.2035,864.2035,864.2036,[],[],[],[],[],[],[],,864.2037,864.2038,0.006302083,-0.417764757,0,0,0,,0,158,158,85,1,3,word,BENEFIT,print,benefit_p.png,,,,,,
,,,,31897,001,2025-10-16_22h22.05.164,HW_LDT_1,2024.2.4,MacIntel,63.29113924,,,,,,,,,,,,,,,,,,,,,864.205,864.4024,864.4025,864.9036,,,,,,,,,,,,,,0.871,1,,,,,,,,,,,,,,m,,,,,,,,,,,,,,,,160,0,864.9041,865.7869,m,1,0.871,,[],[],[],[],[],[],[],865.7869,867.7859,867.7859,867.786,[],[],[],[],[],[],[],,867.7861,867.7862,0.006302083,-0.417764757,0,0,0,,0,159,159,97,1,3,word,COVERAGE,print,coverage_p.png,,,,,,
,,,,31897,001,2025-10-16_22h22.05.164,HW_LDT_1,2024.2.4,MacIntel,63.29113924,,,,,,,,,,,,,,,,,,,,,,,,,,,,,,,,,,,,,,,,,,,,,,,,,,,,,,,,,,,,,,,,,,,,,,,,,,,,,,,,,,,,,,,,,,,,,,,,,,,,,,,,,,,,,,,,,,,,,,867.7955,872.7871
