counterbalance_lists.group,counterbalance_lists.remaining,get_list.started,get_list.stopped,participant,session,date,expName,psychopyVersion,OS,frameRate,Instructions.started,Instructions.stopped,key_resp.keys,key_resp.rt,key_resp.duration,instr_done_touch.x,instr_done_touch.y,instr_done_touch.leftButton,instr_done_touch.midButton,instr_done_touch.rightButton,start_instr.thisRepN,start_instr.thisTrialN,start_instr.thisN,start_instr.thisIndex,start_instr.ran,pageN,phase,instruct_text,has_image,instruct_image,showProgress.started,showProgress.stopped,fix.started,fix.stopped,prac.started,prac.stopped,response.keys,response.corr,response.rt,response.duration,touch_resp.x,touch_resp.y,touch_resp.leftButton,touch_resp.midButton,touch_resp.rightButton,touch_resp.time,touch_resp.clicked_name,rt,corr,feedback.started,feedback.stopped,trials.thisRepN,trials.thisTrialN,trials.thisN,trials.thisIndex,trials.ran,TrialID,StimulusType,Condition,PrimeDuration,Prime,Target,corrAns,Instructions_expt.started,Instructions_expt.stopped,key_resp_3.keys,key_resp_3.rt,key_resp_3.duration,instr_done_touch_3.x,instr_done_touch_3.y,instr_done_touch_3.leftButton,instr_done_touch_3.midButton,instr_done_touch_3.rightButton,instr_experiment.thisRepN,instr_experiment.thisTrialN,instr_experiment.thisN,instr_experiment.thisIndex,instr_experiment.ran,trialID,flag,maintask.started,maintask.stopped,key_resp_2.keys,key_resp_2.corr,key_resp_2.rt,key_resp_2.duration,targ_click.x,targ_click.y,targ_click.leftButton,targ_click.midButton,targ_click.rightButton,targ_click.time,targ_click.clicked_name,ITI.started,ITI.stopped,probe.started,probe.stopped,click_probe.x,click_probe.y,click_probe.leftButton,click_probe.midButton,click_probe.rightButton,click_probe.time,click_probe.clicked_name,key_resp_probe.keys,Break.started,Break.stopped,break_done_touch.x,break_done_touch.y,break_done_touch.leftButton,break_done_touch.midButton,break_done_touch.rightButton,break_done_keyboard.keys,list3_trials.thisRepN,list3_trials.thisTrialN,list3_trials.thisN,list3_trials.thisIndex,list3_trials.ran,list_id,item_type,string,font,stim_file,key_resp_probe.rt,key_resp_probe.duration,break_done_keyboard.rt,break_done_keyboard.duration,End.started,End.stopped
list3,,0.433,0.4332,31903,001,2025-12-03_16h25.43.911,HW_LDT_1,2024.2.4,MacIntel,59.88023952,,,,,,,,,,,,,,,,,,,,,,,,,,,,,,,,,,,,,,,,,,,,,,,,,,,,,,,,,,,,,,,,,,,,,,,,,,,,,,,,,,,,,,,,,,,,,,,,,,,,,,,,,,,,,,,,,,,,,,,
,,,,31903,001,2025-12-03_16h25.43.911,HW_LDT_1,2024.2.4,MacIntel,59.88023952,0.4489,21.5702,space,21.0906,,-0.112258098,-0.188782595,0,0,0,0,0,0,0,1,1,instructions,"INSTRUCTIONS
At the start of each trial, look at the plus sign  (+) in the center of the screen.  This tells you that a trial is about to begin and where to look. Second, the plus sign will disappear and a string of letters will appear. Your task is to determine if the string of letters is a word or not. If the item is a word press the M key (on keyboard)  or touch the word button (phone/tablet).  If the item is not a word,  press the  Z key (on keyboard)  or touch the nonword button (on phone/tablet). The items will be presented for a short time. 
Press the space bar or touch  continue.",0,,,,,,,,,,,,,,,,,,,,,,,,,,,,,,,,,,,,,,,,,,,,,,,,,,,,,,,,,,,,,,,,,,,,,,,,,,,,,,,,,,,,,,,,,,,,,,,,,,,,
,,,,31903,001,2025-12-03_16h25.43.911,HW_LDT_1,2024.2.4,MacIntel,59.88023952,21.5722,24.9696,space,3.3795,,-0.112258098,-0.188782595,0,0,0,0,1,1,1,1,2,instructions,"If your device has a keyboard, press the 'Z' key for nonwords and the 'M' key for words.





Press the space bar or touch the button below to continue.",0,keyboard-example.gif,,,,,,,,,,,,,,,,,,,,,,,,,,,,,,,,,,,,,,,,,,,,,,,,,,,,,,,,,,,,,,,,,,,,,,,,,,,,,,,,,,,,,,,,,,,,,,,,,,,
,,,,31903,001,2025-12-03_16h25.43.911,HW_LDT_1,2024.2.4,MacIntel,59.88023952,24.9709,27.2031,space,2.2043,,-0.112258098,-0.188782595,0,0,0,0,2,2,2,1,3,instructions,"If you are using a touchscreen only device, use the buttons on the screen. Do not use the mouse.





Press the space bar or touch the button below to continue.",0,touchscreen-example.gif,,,,,,,,,,,,,,,,,,,,,,,,,,,,,,,,,,,,,,,,,,,,,,,,,,,,,,,,,,,,,,,,,,,,,,,,,,,,,,,,,,,,,,,,,,,,,,,,,,,
,,,,31903,001,2025-12-03_16h25.43.911,HW_LDT_1,2024.2.4,MacIntel,59.88023952,27.2051,53.8695,space,26.6438,,-0.112258098,-0.188782595,0,0,0,0,3,3,3,1,4,instructions,"It is very important that you respond as quickly and accurately as possible, as each letter string will only be on the screen for two seconds. If you do not respond within this time, the message 'Too slow!' will be displayed and the experiment will progress to the next letter string. The first 20 trials will be practice trials and you will receive feedback on your answers. 

Press the space bar or touch the button below to start the practice trials.",0,,,,,,,,,,,,,,,,,,,,,,,,,,,,,,,,,,,,,,,,,,,,,,,,,,,,,,,,,,,,,,,,,,,,,,,,,,,,,,,,,,,,,,,,,,,,,,,,,,,,
,,,,31903,001,2025-12-03_16h25.43.911,HW_LDT_1,2024.2.4,MacIntel,59.88023952,,,,,,,,,,,,,,,,,,,,,53.8924,54.0694,54.0696,54.5695,54.5699,56.6198,m,1,2.0229,,[],[],[],[],[],[],[],2.0229,1,56.6203,57.1197,0,0,0,5,1,1006,WORD,UN,33,frenzy,OBTAIN,m,,,,,,,,,,,,,,,,,,,,,,,,,,,,,,,,,,,,,,,,,,,,,,,,,,,,,,,,,,,,,,,,,,
,,,,31903,001,2025-12-03_16h25.43.911,HW_LDT_1,2024.2.4,MacIntel,59.88023952,,,,,,,,,,,,,,,,,,,,,57.121,57.3193,57.3194,57.8193,57.8203,59.2692,z,1,1.4394,,[],[],[],[],[],[],[],1.4394,1,59.2694,59.7695,0,1,1,10,1,1011,NW,"ID",16,inlade,INLADE,z,,,,,,,,,,,,,,,,,,,,,,,,,,,,,,,,,,,,,,,,,,,,,,,,,,,,,,,,,,,,,,,,,,
,,,,31903,001,2025-12-03_16h25.43.911,HW_LDT_1,2024.2.4,MacIntel,59.88023952,,,,,,,,,,,,,,,,,,,,,59.7709,59.9688,59.9689,60.4689,60.47,61.7194,m,1,1.2294,,[],[],[],[],[],[],[],1.2294,1,61.7195,62.2194,0,2,2,4,1,1005,WORD,UN,33,abound,SQUEAK,m,,,,,,,,,,,,,,,,,,,,,,,,,,,,,,,,,,,,,,,,,,,,,,,,,,,,,,,,,,,,,,,,,,
,,,,31903,001,2025-12-03_16h25.43.911,HW_LDT_1,2024.2.4,MacIntel,59.88023952,,,,,,,,,,,,,,,,,,,,,62.2207,62.4191,62.4191,62.919,62.9193,63.9196,z,1,0.9944,,[],[],[],[],[],[],[],0.9944,1,63.9198,64.4195,0,3,3,13,1,1014,NW,UN,33,winfer,ROUPET,z,,,,,,,,,,,,,,,,,,,,,,,,,,,,,,,,,,,,,,,,,,,,,,,,,,,,,,,,,,,,,,,,,,
,,,,31903,001,2025-12-03_16h25.43.911,HW_LDT_1,2024.2.4,MacIntel,59.88023952,,,,,,,,,,,,,,,,,,,,,64.4207,64.6194,64.6194,65.1194,65.1205,66.1861,z,1,1.0459,,[],[],[],[],[],[],[],1.0459,1,66.1863,66.686,0,4,4,11,1,1012,NW,"ID",16,rashet,RASHET,z,,,,,,,,,,,,,,,,,,,,,,,,,,,,,,,,,,,,,,,,,,,,,,,,,,,,,,,,,,,,,,,,,,
,,,,31903,001,2025-12-03_16h25.43.911,HW_LDT_1,2024.2.4,MacIntel,59.88023952,,,,,,,,,,,,,,,,,,,,,66.6872,66.8859,66.886,67.3861,67.387,68.3361,z,1,0.9294,,[],[],[],[],[],[],[],0.9294,1,68.3363,68.836,0,5,5,9,1,1010,NW,"ID",33,fariny,FARINY,z,,,,,,,,,,,,,,,,,,,,,,,,,,,,,,,,,,,,,,,,,,,,,,,,,,,,,,,,,,,,,,,,,,
,,,,31903,001,2025-12-03_16h25.43.911,HW_LDT_1,2024.2.4,MacIntel,59.88023952,,,,,,,,,,,,,,,,,,,,,68.8372,69.0359,69.0359,69.5358,69.5367,70.4193,z,1,0.8652,,[],[],[],[],[],[],[],0.8652,1,70.4194,70.9193,0,6,6,15,1,1016,NW,UN,16,mushed,WHAISE,z,,,,,,,,,,,,,,,,,,,,,,,,,,,,,,,,,,,,,,,,,,,,,,,,,,,,,,,,,,,,,,,,,,
,,,,31903,001,2025-12-03_16h25.43.911,HW_LDT_1,2024.2.4,MacIntel,59.88023952,,,,,,,,,,,,,,,,,,,,,70.9207,71.1193,71.1193,71.6193,71.6201,72.5026,z,1,0.8726,,[],[],[],[],[],[],[],0.8726,1,72.5027,73.0023,0,7,7,8,1,1009,NW,"ID",33,aslert,ASLERT,z,,,,,,,,,,,,,,,,,,,,,,,,,,,,,,,,,,,,,,,,,,,,,,,,,,,,,,,,,,,,,,,,,,
,,,,31903,001,2025-12-03_16h25.43.911,HW_LDT_1,2024.2.4,MacIntel,59.88023952,,,,,,,,,,,,,,,,,,,,,73.0036,73.2027,73.2028,73.7026,73.7035,74.4526,m,1,0.7408,,[],[],[],[],[],[],[],0.7408,1,74.4527,74.9518,0,8,8,1,1,1002,WORD,"ID",33,adjust,ADJUST,m,,,,,,,,,,,,,,,,,,,,,,,,,,,,,,,,,,,,,,,,,,,,,,,,,,,,,,,,,,,,,,,,,,
,,,,31903,001,2025-12-03_16h25.43.911,HW_LDT_1,2024.2.4,MacIntel,59.88023952,,,,,,,,,,,,,,,,,,,,,74.9531,75.1526,75.1526,75.6525,75.6534,76.4025,z,1,0.7393,,[],[],[],[],[],[],[],0.7393,1,76.4026,76.9026,0,9,9,14,1,1015,NW,UN,16,miaber,THRALE,z,,,,,,,,,,,,,,,,,,,,,,,,,,,,,,,,,,,,,,,,,,,,,,,,,,,,,,,,,,,,,,,,,,
,,,,31903,001,2025-12-03_16h25.43.911,HW_LDT_1,2024.2.4,MacIntel,59.88023952,,,,,,,,,,,,,,,,,,,,,76.9038,77.1025,77.1026,77.6026,77.6033,78.8691,m,1,1.2569,,[],[],[],[],[],[],[],1.2569,1,78.8693,79.3692,0,10,10,0,1,1001,WORD,"ID",33,utopia,UTOPIA,m,,,,,,,,,,,,,,,,,,,,,,,,,,,,,,,,,,,,,,,,,,,,,,,,,,,,,,,,,,,,,,,,,,
,,,,31903,001,2025-12-03_16h25.43.911,HW_LDT_1,2024.2.4,MacIntel,59.88023952,,,,,,,,,,,,,,,,,,,,,79.3705,79.569,79.5691,80.0692,80.0701,80.7859,m,1,0.7074,,[],[],[],[],[],[],[],0.7074,1,80.7861,81.2859,0,11,11,6,1,1007,WORD,UN,16,tropic,ZOMBIE,m,,,,,,,,,,,,,,,,,,,,,,,,,,,,,,,,,,,,,,,,,,,,,,,,,,,,,,,,,,,,,,,,,,
,,,,31903,001,2025-12-03_16h25.43.911,HW_LDT_1,2024.2.4,MacIntel,59.88023952,,,,,,,,,,,,,,,,,,,,,81.2871,81.4859,81.486,81.9859,81.9869,82.6859,m,1,0.6889,,[],[],[],[],[],[],[],0.6889,1,82.686,83.1859,0,12,12,7,1,1008,WORD,UN,16,hurdle,VOLUME,m,,,,,,,,,,,,,,,,,,,,,,,,,,,,,,,,,,,,,,,,,,,,,,,,,,,,,,,,,,,,,,,,,,
,,,,31903,001,2025-12-03_16h25.43.911,HW_LDT_1,2024.2.4,MacIntel,59.88023952,,,,,,,,,,,,,,,,,,,,,83.1871,83.3859,83.3859,83.8859,83.8867,84.7028,z,1,0.7954,,[],[],[],[],[],[],[],0.7954,1,84.7029,85.2026,0,13,13,12,1,1013,NW,UN,33,adveil,SPRINY,z,,,,,,,,,,,,,,,,,,,,,,,,,,,,,,,,,,,,,,,,,,,,,,,,,,,,,,,,,,,,,,,,,,
,,,,31903,001,2025-12-03_16h25.43.911,HW_LDT_1,2024.2.4,MacIntel,59.88023952,,,,,,,,,,,,,,,,,,,,,85.2038,85.4027,85.4027,85.9026,85.9035,86.7694,m,1,0.847,,[],[],[],[],[],[],[],0.847,1,86.7695,87.2693,0,14,14,3,1,1004,WORD,"ID",16,matrix,MATRIX,m,,,,,,,,,,,,,,,,,,,,,,,,,,,,,,,,,,,,,,,,,,,,,,,,,,,,,,,,,,,,,,,,,,
,,,,31903,001,2025-12-03_16h25.43.911,HW_LDT_1,2024.2.4,MacIntel,59.88023952,,,,,,,,,,,,,,,,,,,,,87.2706,87.469,87.469,87.9692,87.9699,88.7861,m,1,0.7984,,[],[],[],[],[],[],[],0.7984,1,88.7862,89.2861,0,15,15,2,1,1003,WORD,"ID",16,almond,ALMOND,m,,,,,,,,,,,,,,,,,,,,,,,,,,,,,,,,,,,,,,,,,,,,,,,,,,,,,,,,,,,,,,,,,,
,,,,31903,001,2025-12-03_16h25.43.911,HW_LDT_1,2024.2.4,MacIntel,59.88023952,,,,,,,,,,,,,,,,1,end_of_practice,"You have completed the practice trials. During the experimental trials, you will not receive feedback. On some trials you will be asked to report whether the item you just saw was in cursive or print. 
Before you begin, please ensure that you are in a comfortable and quiet location and will not be disturbed for about 15 minutes, as we cannot use your data if you do not complete all the trials. 
 When you are ready to start the experimental trials, please press space or touch the button below.",,,,,,,,,,,,,,,,,,,,,,,,,,,,,,,,,,,,89.2921,102.7188,space,13.4,,-0.112258098,-0.188782595,0,0,0,0,0,0,0,1,,,,,,,,,,,,,,,,,,,,,,,,,,,,,,,,,,,,,,,,,,,,,,,,,,,
,,,,31903,001,2025-12-03_16h25.43.911,HW_LDT_1,2024.2.4,MacIntel,59.88023952,,,,,,,,,,,,,,,,,,,,,102.7319,102.9183,102.9184,103.4182,,,,,,,,,,,,,,2.2692,1,,,,,,,,,,,,,,z,,,,,,,,,,,,,,,,1,0,103.4196,105.7023,z,1,2.2692,,[],[],[],[],[],[],[],105.7025,107.7028,107.7031,107.7054,[],[],[],[],[],[],[],,107.7056,107.7068,-0.112258098,-0.188782595,0,0,0,,0,0,0,43,1,3,TL,dedace,cursive,dedace_c.png,,,,,,
,,,,31903,001,2025-12-03_16h25.43.911,HW_LDT_1,2024.2.4,MacIntel,59.88023952,,,,,,,,,,,,,,,,,,,,,107.7074,107.9026,107.9026,108.4016,,,,,,,,,,,,,,1.1635,1,,,,,,,,,,,,,,m,,,,,,,,,,,,,,,,2,0,108.4022,109.569,m,1,1.1635,,[],[],[],[],[],[],[],109.5691,111.5682,111.5684,111.5685,[],[],[],[],[],[],[],,111.5687,111.5687,-0.112258098,-0.188782595,0,0,0,,0,1,1,96,1,3,word,CONSIDER,print,consider_p.png,,,,,,
,,,,31903,001,2025-12-03_16h25.43.911,HW_LDT_1,2024.2.4,MacIntel,59.88023952,,,,,,,,,,,,,,,,,,,,,111.5699,111.7692,111.7692,112.2692,,,,,,,,,,,,,,2.1652,1,,,,,,,,,,,,,,z,,,,,,,,,,,,,,,,3,0,112.2697,114.4359,z,1,2.1652,,[],[],[],[],[],[],[],114.4359,116.4359,116.4359,116.4362,[],[],[],[],[],[],[],,116.4362,116.4363,-0.112258098,-0.188782595,0,0,0,,0,2,2,63,1,3,TL,racidal,cursive,racidal_c.png,,,,,,
,,,,31903,001,2025-12-03_16h25.43.911,HW_LDT_1,2024.2.4,MacIntel,59.88023952,,,,,,,,,,,,,,,,,,,,,116.4375,116.6358,116.6359,117.1359,,,,,,,,,,,,,,2.5051,0,,,,,,,,,,,,,,z,,,,,,,,,,,,,,,,4,0,117.1364,119.6526,m,0,2.5051,,[],[],[],[],[],[],[],119.6528,121.6526,121.6527,121.6529,[],[],[],[],[],[],[],,121.6529,121.653,-0.112258098,-0.188782595,0,0,0,,0,3,3,6,1,3,RL,cenesony,cursive,cenesony_c.png,,,,,,
,,,,31903,001,2025-12-03_16h25.43.911,HW_LDT_1,2024.2.4,MacIntel,59.88023952,,,,,,,,,,,,,,,,,,,,,121.6541,121.8525,121.8527,122.3517,,,,,,,,,,,,,,2.2134,1,,,,,,,,,,,,,,z,,,,,,,,,,,,,,,,5,0,122.3522,124.5682,z,1,2.2134,,[],[],[],[],[],[],[],124.5682,126.5692,126.5692,126.5696,[],[],[],[],[],[],[],,126.5696,126.5697,-0.112258098,-0.188782595,0,0,0,,0,4,4,49,1,3,TL,incidate,print,incidate_p.png,,,,,,
,,,,31903,001,2025-12-03_16h25.43.911,HW_LDT_1,2024.2.4,MacIntel,59.88023952,,,,,,,,,,,,,,,,,,,,,126.5707,126.7693,126.7693,127.2692,,,,,,,,,,,,,,2.0646,1,,,,,,,,,,,,,,z,,,,,,,,,,,,,,,,6,0,127.2698,129.3359,z,1,2.0646,,[],[],[],[],[],[],[],129.3361,131.3359,131.336,131.3363,[],[],[],[],[],[],[],,131.3363,131.3365,-0.112258098,-0.188782595,0,0,0,,0,5,5,15,1,3,RL,mifikary,cursive,mifikary_c.png,,,,,,
,,,,31903,001,2025-12-03_16h25.43.911,HW_LDT_1,2024.2.4,MacIntel,59.88023952,,,,,,,,,,,,,,,,,,,,,131.3375,131.5359,131.5359,132.0358,,,,,,,,,,,,,,1.2382,1,,,,,,,,,,,,,,m,,,,,,,,,,,,,,,,7,0,132.0363,133.286,m,1,1.2382,,[],[],[],[],[],[],[],133.2861,135.2858,135.286,135.2862,[],[],[],[],[],[],[],,135.2863,135.2863,-0.112258098,-0.188782595,0,0,0,,0,6,6,84,1,3,word,BELOVED,cursive,beloved_c.png,,,,,,
,,,,31903,001,2025-12-03_16h25.43.911,HW_LDT_1,2024.2.4,MacIntel,59.88023952,,,,,,,,,,,,,,,,,,,,,135.2874,135.4858,135.4859,135.9858,,,,,,,,,,,,,,1.554,0,,,,,,,,,,,,,,m,,,,,,,,,,,,,,,,8,0,135.9864,137.5518,z,0,1.554,,[],[],[],[],[],[],[],137.5518,139.5525,139.5527,139.5529,[],[],[],[],[],[],[],,139.5529,139.553,-0.112258098,-0.188782595,0,0,0,,0,7,7,114,1,3,word,LOCATE,cursive,locate_c.png,,,,,,
,,,,31903,001,2025-12-03_16h25.43.911,HW_LDT_1,2024.2.4,MacIntel,59.88023952,,,,,,,,,,,,,,,,,,,,,139.554,139.7524,139.7525,140.2524,,,,,,,,,,,,,,0.9148,1,,,,,,,,,,,,,,m,,,,,,,,,,,,,,,,9,0,140.253,141.1691,m,1,0.9148,,[],[],[],[],[],[],[],141.1692,143.1683,143.1683,143.1686,[],[],[],[],[],[],[],,143.1686,143.1687,-0.112258098,-0.188782595,0,0,0,,0,8,8,138,1,3,word,REFUSAL,print,refusal_p.png,,,,,,
,,,,31903,001,2025-12-03_16h25.43.911,HW_LDT_1,2024.2.4,MacIntel,59.88023952,,,,,,,,,,,,,,,,,,,,,143.1698,143.3682,143.3682,143.8682,,,,,,,,,,,,,,2.0223,1,,,,,,,,,,,,,,m,,,,,,,,,,,,,,,,10,0,143.8688,145.9026,m,1,2.0223,,[],[],[],[],[],[],[],145.9027,147.9017,147.9017,147.902,[],[],[],[],[],[],[],,147.902,147.9021,-0.112258098,-0.188782595,0,0,0,,0,9,9,128,1,3,word,PACIFIC,cursive,pacific_c.png,,,,,,
,,,,31903,001,2025-12-03_16h25.43.911,HW_LDT_1,2024.2.4,MacIntel,59.88023952,,,,,,,,,,,,,,,,,,,,,147.9031,148.1025,148.1025,148.6025,,,,,,,,,,,,,,1.3218,1,,,,,,,,,,,,,,m,,,,,,,,,,,,,,,,11,0,148.603,149.9359,m,1,1.3218,,[],[],[],[],[],[],[],149.936,151.9349,151.935,151.9353,[],[],[],[],[],[],[],,151.9353,151.9354,-0.112258098,-0.188782595,0,0,0,,0,10,10,87,1,3,word,CAFETERIA,print,cafeteria_p.png,,,,,,
,,,,31903,001,2025-12-03_16h25.43.911,HW_LDT_1,2024.2.4,MacIntel,59.88023952,,,,,,,,,,,,,,,,,,,,,151.9365,152.1349,152.1349,152.6358,,,,,,,,,,,,,,0.7718,1,,,,,,,,,,,,,,m,,,,,,,,,,,,,,,,12,0,152.6363,153.4193,m,1,0.7718,,[],[],[],[],[],[],[],153.4193,155.4192,155.4192,155.4193,[],[],[],[],[],[],[],,155.4194,155.4195,-0.112258098,-0.188782595,0,0,0,,0,11,11,130,1,3,word,POLICY,print,policy_p.png,,,,,,
,,,,31903,001,2025-12-03_16h25.43.911,HW_LDT_1,2024.2.4,MacIntel,59.88023952,,,,,,,,,,,,,,,,,,,,,155.4206,155.6183,155.6183,156.1191,,,,,,,,,,,,,,1.3322,1,,,,,,,,,,,,,,z,,,,,,,,,,,,,,,,13,0,156.1196,157.4525,z,1,1.3322,,[],[],[],[],[],[],[],157.4526,159.4525,159.4526,159.4527,[],[],[],[],[],[],[],,159.4528,159.4529,-0.112258098,-0.188782595,0,0,0,,0,12,12,53,1,3,TL,marnigal,print,marnigal_p.png,,,,,,
,,,,31903,001,2025-12-03_16h25.43.911,HW_LDT_1,2024.2.4,MacIntel,59.88023952,,,,,,,,,,,,,,,,,,,,,159.4539,159.6526,159.6527,160.1525,,,,,,,,,,,,,,1.7558,1,,,,,,,,,,,,,,z,,,,,,,,,,,,,,,,14,0,160.153,161.9193,z,1,1.7558,,[],[],[],[],[],[],[],161.9193,163.9182,163.9183,163.9184,[],[],[],[],[],[],[],,163.9185,163.9186,-0.112258098,-0.188782595,0,0,0,,0,13,13,1,1,3,RL,bewoted,cursive,bewoted_c.png,,,,,,
,,,,31903,001,2025-12-03_16h25.43.911,HW_LDT_1,2024.2.4,MacIntel,59.88023952,,,,,,,,,,,,,,,,,,,,,163.9197,164.1183,164.1183,164.6191,,,,,,,,,,,,,,1.5384,1,,,,,,,,,,,,,,m,,,,,,,,,,,,,,,,15,0,164.6197,166.1683,m,1,1.5384,,[],[],[],[],[],[],[],166.1684,168.1692,168.1692,168.1694,[],[],[],[],[],[],[],,168.1695,168.1696,-0.112258098,-0.188782595,0,0,0,,0,14,14,154,1,3,word,STORAGE,cursive,storage_c.png,,,,,,
,,,,31903,001,2025-12-03_16h25.43.911,HW_LDT_1,2024.2.4,MacIntel,59.88023952,,,,,,,,,,,,,,,,,,,,,168.1707,168.3691,168.3692,168.8691,,,,,,,,,,,,,,2.0049,1,,,,,,,,,,,,,,z,,,,,,,,,,,,,,,,16,0,168.8696,170.885,z,1,2.0049,,[],[],[],[],[],[],[],170.8851,172.8863,172.8863,172.8864,[],[],[],[],[],[],[],,172.8865,172.8867,-0.11247369,-0.188782595,0,0,0,,0,15,15,32,1,3,TL,adacemy,print,adacemy_p.png,,,,,,
,,,,31903,001,2025-12-03_16h25.43.911,HW_LDT_1,2024.2.4,MacIntel,59.88023952,,,,,,,,,,,,,,,,,,,,,172.8877,173.0858,173.0858,173.5859,,,,,,,,,,,,,,0.7984,1,,,,,,,,,,,,,,m,,,,,,,,,,,,,,,,17,0,173.5864,174.3858,m,1,0.7984,,[],[],[],[],[],[],[],174.3859,176.3849,176.3849,176.385,[],[],[],[],[],[],[],,176.3851,176.3851,-0.113149702,-0.189458606,0,0,0,,0,16,16,129,1,3,word,PARENT,print,parent_p.png,,,,,,
,,,,31903,001,2025-12-03_16h25.43.911,HW_LDT_1,2024.2.4,MacIntel,59.88023952,,,,,,,,,,,,,,,,,,,,,176.386,176.5858,176.5858,177.0849,,,,,,,,,,,,,,0.7549,1,,,,,,,,,,,,,,m,,,,,,,,,,,,,,,,18,0,177.0855,177.8524,m,1,0.7549,,[],[],[],[],[],[],[],177.8524,179.8526,179.8527,179.8529,[],[],[],[],[],[],[],,179.8529,179.853,-0.112930455,-0.190105385,0,0,0,,0,17,17,146,1,3,word,RETIRE,print,retire_p.png,,,,,,
,,,,31903,001,2025-12-03_16h25.43.911,HW_LDT_1,2024.2.4,MacIntel,59.88023952,,,,,,,,,,,,,,,,,,,,,179.8541,180.0516,180.0516,180.5525,,,,,,,,,,,,,,1.1554,1,,,,,,,,,,,,,,m,,,,,,,,,,,,,,,,19,0,180.5531,181.7183,m,1,1.1554,,[],[],[],[],[],[],[],181.7184,183.7192,183.7193,183.7194,[],[],[],[],[],[],[],,183.7195,183.7197,-0.112930455,-0.190105385,0,0,0,,0,18,18,94,1,3,word,CLINICAL,print,clinical_p.png,,,,,,
,,,,31903,001,2025-12-03_16h25.43.911,HW_LDT_1,2024.2.4,MacIntel,59.88023952,,,,,,,,,,,,,,,,,,,,,183.7208,183.9192,183.9192,184.4191,,,,,,,,,,,,,,1.654,1,,,,,,,,,,,,,,z,,,,,,,,,,,,,,,,20,0,184.4197,186.0859,z,1,1.654,,[],[],[],[],[],[],[],186.086,188.085,188.085,188.0852,[],[],[],[],[],[],[],,188.0853,188.0854,-0.112930455,-0.190105385,0,0,0,,0,19,19,19,1,3,RL,opcifal,cursive,opcifal_c.png,,,,,,
,,,,31903,001,2025-12-03_16h25.43.911,HW_LDT_1,2024.2.4,MacIntel,59.88023952,,,,,,,,,,,,,,,,,,,,,188.0865,188.2857,188.2859,188.7858,,,,,,,,,,,,,,1.065,1,,,,,,,,,,,,,,z,,,,,,,,,,,,,,,,21,0,188.7864,189.8526,z,1,1.065,,[],[],[],[],[],[],[],189.8528,191.8516,191.8516,191.8518,[],[],[],[],[],[],[],,191.8519,191.852,-0.112930455,-0.190105385,0,0,0,,0,20,20,40,1,3,TL,condiser,print,condiser_p.png,,,,,,
,,,,31903,001,2025-12-03_16h25.43.911,HW_LDT_1,2024.2.4,MacIntel,59.88023952,,,,,,,,,,,,,,,,,,,,,191.8533,192.0524,192.0525,192.5525,,,,,,,,,,,,,,0.947,1,,,,,,,,,,,,,,z,,,,,,,,,,,,,,,,22,1,192.5529,193.5025,z,1,0.947,,[],[],[],[],[],[],[],193.5026,195.5025,195.5025,197.485,[],[],[],[],[],[],[],m,197.4851,197.4852,-0.112930455,-0.190105385,0,0,0,,0,21,21,24,1,3,RL,quafidy,print,quafidy_p.png,1.972,,,,,
,,,,31903,001,2025-12-03_16h25.43.911,HW_LDT_1,2024.2.4,MacIntel,59.88023952,,,,,,,,,,,,,,,,,,,,,197.4862,197.6849,197.6849,198.1858,,,,,,,,,,,,,,1.6481,1,,,,,,,,,,,,,,m,,,,,,,,,,,,,,,,23,1,198.1864,199.8358,m,1,1.6481,,[],[],[],[],[],[],[],199.8359,201.8358,201.8359,203.285,[],[],[],[],[],[],[],m,203.285,203.285,-0.112930455,-0.190105385,0,0,0,,0,22,22,95,1,3,word,COMEDY,print,comedy_p.png,1.4459,,,,,
,,,,31903,001,2025-12-03_16h25.43.911,HW_LDT_1,2024.2.4,MacIntel,59.88023952,,,,,,,,,,,,,,,,,,,,,203.2859,203.4857,203.4858,203.9858,,,,,,,,,,,,,,1.9388,1,,,,,,,,,,,,,,z,,,,,,,,,,,,,,,,24,0,203.9863,205.9359,z,1,1.9388,,[],[],[],[],[],[],[],205.936,207.9349,207.935,207.9351,[],[],[],[],[],[],[],,207.9352,207.9353,-0.112930455,-0.190105385,0,0,0,,0,23,23,12,1,3,RL,formuke,cursive,formuke_c.png,,,,,,
,,,,31903,001,2025-12-03_16h25.43.911,HW_LDT_1,2024.2.4,MacIntel,59.88023952,,,,,,,,,,,,,,,,,,,,,207.9364,208.1349,208.1349,208.6349,,,,,,,,,,,,,,1.1663,1,,,,,,,,,,,,,,z,,,,,,,,,,,,,,,,25,0,208.6355,209.8026,z,1,1.1663,,[],[],[],[],[],[],[],209.8027,211.8024,211.8024,211.8026,[],[],[],[],[],[],[],,211.8026,211.8026,-0.112930455,-0.190105385,0,0,0,,0,24,24,18,1,3,RL,onegator,print,onegator_p.png,,,,,,
,,,,31903,001,2025-12-03_16h25.43.911,HW_LDT_1,2024.2.4,MacIntel,59.88023952,,,,,,,,,,,,,,,,,,,,,211.8035,212.0025,212.0025,212.5024,,,,,,,,,,,,,,1.2315,1,,,,,,,,,,,,,,z,,,,,,,,,,,,,,,,26,0,212.5029,213.7357,z,1,1.2315,,[],[],[],[],[],[],[],213.7359,215.7357,215.7358,215.7359,[],[],[],[],[],[],[],,215.736,215.7361,-0.112930455,-0.189889792,0,0,0,,0,25,25,21,1,3,RL,potugar,print,potugar_p.png,,,,,,
,,,,31903,001,2025-12-03_16h25.43.911,HW_LDT_1,2024.2.4,MacIntel,59.88023952,,,,,,,,,,,,,,,,,,,,,215.7372,215.9357,215.9358,216.4358,,,,,,,,,,,,,,1.3047,1,,,,,,,,,,,,,,z,,,,,,,,,,,,,,,,27,0,216.4363,217.7516,z,1,1.3047,,[],[],[],[],[],[],[],217.7517,219.7524,219.7525,219.7527,[],[],[],[],[],[],[],,219.7528,219.7529,-0.112930455,-0.189889792,0,0,0,,0,26,26,60,1,3,TL,panert,print,panert_p.png,,,,,,
,,,,31903,001,2025-12-03_16h25.43.911,HW_LDT_1,2024.2.4,MacIntel,59.88023952,,,,,,,,,,,,,,,,,,,,,219.7539,219.9526,219.9526,220.4524,,,,,,,,,,,,,,2.3476,1,,,,,,,,,,,,,,z,,,,,,,,,,,,,,,,28,0,220.4529,222.8024,z,1,2.3476,,[],[],[],[],[],[],[],222.8026,224.8025,224.8026,224.8028,[],[],[],[],[],[],[],,224.8028,224.8028,-0.112718516,-0.189889792,0,0,0,,0,27,27,11,1,3,RL,ebiwent,cursive,ebiwent_c.png,,,,,,
,,,,31903,001,2025-12-03_16h25.43.911,HW_LDT_1,2024.2.4,MacIntel,59.88023952,,,,,,,,,,,,,,,,,,,,,224.8038,225.0026,225.0026,225.5015,,,,,,,,,,,,,,2.2061,1,,,,,,,,,,,,,,z,,,,,,,,,,,,,,,,29,1,225.502,227.7186,z,1,2.2061,,[],[],[],[],[],[],[],227.7188,229.7181,229.7181,231.0691,[],[],[],[],[],[],[],z,231.0692,231.0693,-0.110913383,-0.193046948,0,0,0,,0,28,28,36,1,3,TL,carema,cursive,carema_c.png,1.34,,,,,
,,,,31903,001,2025-12-03_16h25.43.911,HW_LDT_1,2024.2.4,MacIntel,59.88023952,,,,,,,,,,,,,,,,,,,,,231.0701,231.269,231.2691,231.7691,,,,,,,,,,,,,,0.8883,1,,,,,,,,,,,,,,z,,,,,,,,,,,,,,,,30,0,231.7696,232.6692,z,1,0.8883,,[],[],[],[],[],[],[],232.6692,234.6691,234.6692,234.6693,[],[],[],[],[],[],[],,234.6694,234.6694,-0.110913383,-0.19347448,0,0,0,,0,29,29,0,1,3,RL,afaneur,print,afaneur_p.png,,,,,,
,,,,31903,001,2025-12-03_16h25.43.911,HW_LDT_1,2024.2.4,MacIntel,59.88023952,,,,,,,,,,,,,,,,,,,,,234.6705,234.869,234.8691,235.369,,,,,,,,,,,,,,1.4718,1,,,,,,,,,,,,,,z,,,,,,,,,,,,,,,,31,0,235.3695,236.8525,z,1,1.4718,,[],[],[],[],[],[],[],236.8526,238.8525,238.8525,238.8527,[],[],[],[],[],[],[],,238.8528,238.8528,-0.11183422,-0.191906864,0,0,0,,0,30,30,79,1,3,TL,veretan,cursive,veretan_c.png,,,,,,
,,,,31903,001,2025-12-03_16h25.43.911,HW_LDT_1,2024.2.4,MacIntel,59.88023952,,,,,,,,,,,,,,,,,,,,,238.8542,239.0524,239.0524,239.5524,,,,,,,,,,,,,,1.0549,1,,,,,,,,,,,,,,z,,,,,,,,,,,,,,,,32,1,239.5529,240.6191,z,1,1.0549,,[],[],[],[],[],[],[],240.6191,242.6194,242.6194,244.2357,[],[],[],[],[],[],[],z,244.2358,244.2358,-0.109429812,-0.193708343,0,0,0,,0,31,31,8,1,3,RL,cocewage,print,cocewage_p.png,1.6128,,,,,
,,,,31903,001,2025-12-03_16h25.43.911,HW_LDT_1,2024.2.4,MacIntel,59.88023952,,,,,,,,,,,,,,,,,,,,,244.2367,244.4357,244.4357,244.9358,,,,,,,,,,,,,,1.3469,1,,,,,,,,,,,,,,z,,,,,,,,,,,,,,,,33,0,244.9363,246.2856,z,1,1.3469,,[],[],[],[],[],[],[],246.2858,248.2858,248.2859,248.286,[],[],[],[],[],[],[],,248.2861,248.2861,-0.109429812,-0.193708343,0,0,0,,0,32,32,62,1,3,TL,prodive,print,prodive_p.png,,,,,,
,,,,31903,001,2025-12-03_16h25.43.911,HW_LDT_1,2024.2.4,MacIntel,59.88023952,,,,,,,,,,,,,,,,,,,,,248.2872,248.4857,248.4857,248.9857,,,,,,,,,,,,,,1.7687,1,,,,,,,,,,,,,,z,,,,,,,,,,,,,,,,34,0,248.9861,250.7686,z,1,1.7687,,[],[],[],[],[],[],[],250.7687,252.769,252.7692,252.7693,[],[],[],[],[],[],[],,252.7694,252.7694,-0.109645405,-0.193485442,0,0,0,,0,33,33,76,1,3,TL,stogare,cursive,stogare_c.png,,,,,,
,,,,31903,001,2025-12-03_16h25.43.911,HW_LDT_1,2024.2.4,MacIntel,59.88023952,,,,,,,,,,,,,,,,,,,,,252.7705,252.9691,252.9691,253.4691,,,,,,,,,,,,,,1.8385,1,,,,,,,,,,,,,,z,,,,,,,,,,,,,,,,35,0,253.4695,255.3192,z,1,1.8385,,[],[],[],[],[],[],[],255.3193,257.3191,257.3191,257.3193,[],[],[],[],[],[],[],,257.3194,257.3194,-0.109645405,-0.193485442,0,0,0,,0,34,34,13,1,3,RL,helicage,cursive,helicage_c.png,,,,,,
,,,,31903,001,2025-12-03_16h25.43.911,HW_LDT_1,2024.2.4,MacIntel,59.88023952,,,,,,,,,,,,,,,,,,,,,257.3205,257.519,257.5191,258.0191,,,,,,,,,,,,,,1.2649,1,,,,,,,,,,,,,,m,,,,,,,,,,,,,,,,36,0,258.0196,259.2858,m,1,1.2649,,[],[],[],[],[],[],[],259.2858,261.2857,261.2858,261.2859,[],[],[],[],[],[],[],,261.286,261.2861,-0.109645405,-0.193485442,0,0,0,,0,35,35,101,1,3,word,DELICATE,print,delicate_p.png,,,,,,
,,,,31903,001,2025-12-03_16h25.43.911,HW_LDT_1,2024.2.4,MacIntel,59.88023952,,,,,,,,,,,,,,,,,,,,,261.2872,261.4857,261.4857,261.9858,,,,,,,,,,,,,,2.0989,0,,,,,,,,,,,,,,m,,,,,,,,,,,,,,,,37,0,261.9863,264.0858,z,0,2.0989,,[],[],[],[],[],[],[],264.0859,266.0857,266.0857,266.0859,[],[],[],[],[],[],[],,266.086,266.086,-0.109422504,-0.192571913,0,0,0,,0,36,36,110,1,3,word,HERITAGE,cursive,heritage_c.png,,,,,,
,,,,31903,001,2025-12-03_16h25.43.911,HW_LDT_1,2024.2.4,MacIntel,59.88023952,,,,,,,,,,,,,,,,,,,,,266.0872,266.2857,266.2857,266.7857,,,,,,,,,,,,,,1.9216,1,,,,,,,,,,,,,,m,,,,,,,,,,,,,,,,38,1,266.7862,268.7192,m,1,1.9216,,[],[],[],[],[],[],[],268.7193,270.7191,270.7192,272.0523,[],[],[],[],[],[],[],m,272.0524,272.0525,-0.109422504,-0.192571913,0,0,0,,0,37,37,80,1,3,word,ACADEMY,print,academy_p.png,1.33,,,,,
,,,,31903,001,2025-12-03_16h25.43.911,HW_LDT_1,2024.2.4,MacIntel,59.88023952,,,,,,,,,,,,,,,,,,,,,272.0535,272.2524,272.2524,272.7523,,,,,,,,,,,,,,1.1805,1,,,,,,,,,,,,,,m,,,,,,,,,,,,,,,,39,0,272.7528,273.9357,m,1,1.1805,,[],[],[],[],[],[],[],273.9359,275.9358,275.9359,275.936,[],[],[],[],[],[],[],,275.9361,275.9361,-0.109422504,-0.192571913,0,0,0,,0,38,38,112,1,3,word,LIBERAL,print,liberal_p.png,,,,,,
,,,,31903,001,2025-12-03_16h25.43.911,HW_LDT_1,2024.2.4,MacIntel,59.88023952,,,,,,,,,,,,,,,,,,,,,275.9372,276.1357,276.1358,276.6357,,,,,,,,,,,,,,1.5383,0,,,,,,,,,,,,,,z,,,,,,,,,,,,,,,,40,1,276.6363,278.1858,m,0,1.5383,,[],[],[],[],[],[],[],278.1858,280.1857,280.1858,281.4691,[],[],[],[],[],[],[],m,281.4692,281.4693,-0.111041277,-0.191194311,0,0,0,,0,39,39,58,1,3,TL,nuremical,print,nuremical_p.png,1.2804,,,,,
,,,,31903,001,2025-12-03_16h25.43.911,HW_LDT_1,2024.2.4,MacIntel,59.88023952,,,,,,,,,,,,,,,,,,,,,281.4701,281.669,281.669,282.169,,,,,,,,,,,,,,2.2716,1,,,,,,,,,,,,,,z,,,,,,,,,,,,,,,,41,0,282.1695,284.4525,z,1,2.2716,,[],[],[],[],[],[],[],284.4526,286.4523,286.4524,286.4526,[],[],[],[],[],[],[],,286.4526,286.4527,-0.10873553,-0.191431829,0,0,0,,0,40,40,37,1,3,TL,cacapity,cursive,cacapity_c.png,,,,,,
,,,,31903,001,2025-12-03_16h25.43.911,HW_LDT_1,2024.2.4,MacIntel,59.88023952,,,,,,,,,,,,,,,,,,,,,286.4538,286.6524,286.6524,287.1523,,,,,,,,,,,,,,1.6717,1,,,,,,,,,,,,,,z,,,,,,,,,,,,,,,,42,0,287.1529,288.8358,z,1,1.6717,,[],[],[],[],[],[],[],288.8359,290.8357,290.8357,290.836,[],[],[],[],[],[],[],,290.836,290.8361,-0.106992516,-0.189652274,0,0,0,,0,41,41,41,1,3,TL,crinimal,print,crinimal_p.png,,,,,,
,,,,31903,001,2025-12-03_16h25.43.911,HW_LDT_1,2024.2.4,MacIntel,59.88023952,,,,,,,,,,,,,,,,,,,,,290.8372,291.0357,291.0357,291.5357,,,,,,,,,,,,,,1.0135,0,,,,,,,,,,,,,,m,,,,,,,,,,,,,,,,43,1,291.5362,292.5523,z,0,1.0135,,[],[],[],[],[],[],[],292.5524,294.5524,294.5524,295.5525,[],[],[],[],[],[],[],z,295.5525,295.5526,-0.101219013,-0.194563406,0,0,0,,0,42,42,122,1,3,word,MOBILE,cursive,mobile_c.png,0.99,,,,,
,,,,31903,001,2025-12-03_16h25.43.911,HW_LDT_1,2024.2.4,MacIntel,59.88023952,,,,,,,,,,,,,,,,,,,,,295.5537,295.7517,295.7519,296.2524,,,,,,,,,,,,,,1.7147,1,,,,,,,,,,,,,,m,,,,,,,,,,,,,,,,44,0,296.2528,297.9691,m,1,1.7147,,[],[],[],[],[],[],[],297.9692,299.9691,299.9692,299.9693,[],[],[],[],[],[],[],,299.9693,299.9695,-0.105121609,-0.190123655,0,0,0,,0,43,43,151,1,3,word,SPECIFIC,print,specific_p.png,,,,,,
,,,,31903,001,2025-12-03_16h25.43.911,HW_LDT_1,2024.2.4,MacIntel,59.88023952,,,,,,,,,,,,,,,,,,,,,299.9705,300.169,300.169,300.6691,,,,,,,,,,,,,,1.9655,1,,,,,,,,,,,,,,z,,,,,,,,,,,,,,,,45,0,300.6696,302.6357,z,1,1.9655,,[],[],[],[],[],[],[],302.6358,304.6357,304.6358,304.6359,[],[],[],[],[],[],[],,304.636,304.636,-0.105121609,-0.190123655,0,0,0,,0,44,44,68,1,3,TL,revomal,cursive,revomal_c.png,,,,,,
,,,,31903,001,2025-12-03_16h25.43.911,HW_LDT_1,2024.2.4,MacIntel,59.88023952,,,,,,,,,,,,,,,,,,,,,304.637,304.8357,304.8357,305.3357,,,,,,,,,,,,,,0.8389,1,,,,,,,,,,,,,,m,,,,,,,,,,,,,,,,46,0,305.3363,306.1858,m,1,0.8389,,[],[],[],[],[],[],[],306.1859,308.1856,308.1857,308.1858,[],[],[],[],[],[],[],,308.1859,308.186,-0.105337202,-0.190123655,0,0,0,,0,45,45,133,1,3,word,PROVIDE,print,provide_p.png,,,,,,
,,,,31903,001,2025-12-03_16h25.43.911,HW_LDT_1,2024.2.4,MacIntel,59.88023952,,,,,,,,,,,,,,,,,,,,,308.187,308.3858,308.3858,308.8856,,,,,,,,,,,,,,1.3808,0,,,,,,,,,,,,,,z,,,,,,,,,,,,,,,,47,0,308.8861,310.2689,m,0,1.3808,,[],[],[],[],[],[],[],310.269,312.269,312.2691,312.2692,[],[],[],[],[],[],[],,312.2693,312.2693,-0.105337202,-0.190123655,0,0,0,,0,46,46,31,1,3,RL,trilude,print,trilude_p.png,,,,,,
,,,,31903,001,2025-12-03_16h25.43.911,HW_LDT_1,2024.2.4,MacIntel,59.88023952,,,,,,,,,,,,,,,,,,,,,312.2704,312.469,312.469,312.969,,,,,,,,,,,,,,1.9648,0,,,,,,,,,,,,,,m,,,,,,,,,,,,,,,,48,0,312.9694,314.9354,z,0,1.9648,,[],[],[],[],[],[],[],314.9354,316.9357,316.9357,316.9359,[],[],[],[],[],[],[],,316.936,316.936,-0.104211734,-0.191252777,0,0,0,,0,47,47,145,1,3,word,RESUME,cursive,resume_c.png,,,,,,
,,,,31903,001,2025-12-03_16h25.43.911,HW_LDT_1,2024.2.4,MacIntel,59.88023952,,,,,,,,,,,,,,,,,,,,,316.9371,317.1357,317.1357,317.6357,,,,,,,,,,,,,,1.7884,1,,,,,,,,,,,,,,m,,,,,,,,,,,,,,,,49,0,317.6361,319.4352,m,1,1.7884,,[],[],[],[],[],[],[],319.4354,321.4357,321.4357,321.4359,[],[],[],[],[],[],[],,321.436,321.436,-0.112466382,-0.185278297,0,0,0,,0,48,48,100,1,3,word,DECADE,cursive,decade_c.png,,,,,,
,,,,31903,001,2025-12-03_16h25.43.911,HW_LDT_1,2024.2.4,MacIntel,59.88023952,,,,,,,,,,,,,,,,,,,,,321.4371,321.6357,321.6357,322.1357,,,,,,,,,,,,,,1.672,1,,,,,,,,,,,,,,m,,,,,,,,,,,,,,,,50,0,322.1362,323.8192,m,1,1.672,,[],[],[],[],[],[],[],323.8192,325.819,325.8191,325.8193,[],[],[],[],[],[],[],,325.8193,325.8194,-0.109773299,-0.186981116,0,0,0,,0,49,49,83,1,3,word,ANIMAL,cursive,animal_c.png,,,,,,
,,,,31903,001,2025-12-03_16h25.43.911,HW_LDT_1,2024.2.4,MacIntel,59.88023952,,,,,,,,,,,,,,,,,,,,,325.8204,326.0189,326.0189,326.5183,,,,,,,,,,,,,,1.3152,1,,,,,,,,,,,,,,z,,,,,,,,,,,,,,,,51,0,326.5186,327.8347,z,1,1.3152,,[],[],[],[],[],[],[],327.8347,329.8357,329.8357,329.836,[],[],[],[],[],[],[],,329.836,329.836,-0.110018124,-0.186272217,0,0,0,,0,50,50,17,1,3,RL,motide,cursive,motide_c.png,,,,,,
,,,,31903,001,2025-12-03_16h25.43.911,HW_LDT_1,2024.2.4,MacIntel,59.88023952,,,,,,,,,,,,,,,,,,,,,329.8372,330.0357,330.0358,330.5357,,,,,,,,,,,,,,1.4632,1,,,,,,,,,,,,,,m,,,,,,,,,,,,,,,,52,0,330.5362,332.0014,m,1,1.4632,,[],[],[],[],[],[],[],332.0014,334.0024,334.0024,334.0025,[],[],[],[],[],[],[],,334.0026,334.0026,-0.110452964,-0.185837377,0,0,0,,0,51,51,127,1,3,word,ORIGINAL,cursive,original_c.png,,,,,,
,,,,31903,001,2025-12-03_16h25.43.911,HW_LDT_1,2024.2.4,MacIntel,59.88023952,,,,,,,,,,,,,,,,,,,,,334.0037,334.2023,334.2023,334.7023,,,,,,,,,,,,,,2.065,1,,,,,,,,,,,,,,z,,,,,,,,,,,,,,,,53,0,334.7028,336.769,z,1,2.065,,[],[],[],[],[],[],[],336.7691,338.768,338.7681,338.7682,[],[],[],[],[],[],[],,338.7682,338.7683,-0.109806186,-0.186063932,0,0,0,,0,52,52,59,1,3,TL,paficic,cursive,paficic_c.png,,,,,,
,,,,31903,001,2025-12-03_16h25.43.911,HW_LDT_1,2024.2.4,MacIntel,59.88023952,,,,,,,,,,,,,,,,,,,,,338.7694,338.969,338.9691,339.469,,,,,,,,,,,,,,0.9821,1,,,,,,,,,,,,,,m,,,,,,,,,,,,,,,,54,0,339.4694,340.4522,m,1,0.9821,,[],[],[],[],[],[],[],340.4523,342.4522,342.4523,342.4525,[],[],[],[],[],[],[],,342.4525,342.4526,-0.110266604,-0.185395229,0,0,0,,0,53,53,131,1,3,word,POPULAR,print,popular_p.png,,,,,,
,,,,31903,001,2025-12-03_16h25.43.911,HW_LDT_1,2024.2.4,MacIntel,59.88023952,,,,,,,,,,,,,,,,,,,,,342.4538,342.6522,342.6523,343.1523,,,,,,,,,,,,,,1.6053,1,,,,,,,,,,,,,,z,,,,,,,,,,,,,,,,55,1,343.1528,344.769,z,1,1.6053,,[],[],[],[],[],[],[],344.7691,346.7689,346.769,348.7357,[],[],[],[],[],[],[],z,348.7358,348.7358,-0.109835419,-0.185395229,0,0,0,,0,54,54,55,1,3,TL,mecidine,print,mecidine_p.png,1.9555,,,,,
,,,,31903,001,2025-12-03_16h25.43.911,HW_LDT_1,2024.2.4,MacIntel,59.88023952,,,,,,,,,,,,,,,,,,,,,348.7368,348.9357,348.9357,349.4357,,,,,,,,,,,,,,2.6371,0,,,,,,,,,,,,,,m,,,,,,,,,,,,,,,,56,0,349.4363,352.0857,z,0,2.6371,,[],[],[],[],[],[],[],352.0859,354.0859,354.0859,354.086,[],[],[],[],[],[],[],,354.086,354.086,-0.106283618,-0.18630145,0,0,0,,0,55,55,126,1,3,word,OPTIMAL,cursive,optimal_c.png,,,,,,
,,,,31903,001,2025-12-03_16h25.43.911,HW_LDT_1,2024.2.4,MacIntel,59.88023952,,,,,,,,,,,,,,,,,,,,,354.0867,354.2852,354.2853,354.7847,,,,,,,,,,,,,,1.445,1,,,,,,,,,,,,,,z,,,,,,,,,,,,,,,,57,0,354.7852,356.2353,z,1,1.445,,[],[],[],[],[],[],[],356.2353,358.2357,358.2357,358.2358,[],[],[],[],[],[],[],,358.2359,358.236,-0.107197147,-0.186078549,0,0,0,,0,56,56,33,1,3,TL,adsivory,print,adsivory_p.png,,,,,,
,,,,31903,001,2025-12-03_16h25.43.911,HW_LDT_1,2024.2.4,MacIntel,59.88023952,,,,,,,,,,,,,,,,,,,,,358.237,358.4347,358.4347,358.9357,,,,,,,,,,,,,,2.4807,1,,,,,,,,,,,,,,m,,,,,,,,,,,,,,,,58,0,358.9361,361.418,m,1,2.4807,,[],[],[],[],[],[],[],361.418,363.4189,363.419,363.4192,[],[],[],[],[],[],[],,363.4192,363.4192,-0.10766122,-0.18605297,0,0,0,,0,57,57,107,1,3,word,EVIDENT,cursive,evident_c.png,,,,,,
,,,,31903,001,2025-12-03_16h25.43.911,HW_LDT_1,2024.2.4,MacIntel,59.88023952,,,,,,,,,,,,,,,,,,,,,363.4204,363.6191,363.6191,364.119,,,,,,,,,,,,,,2.2558,1,,,,,,,,,,,,,,m,,,,,,,,,,,,,,,,59,0,364.1195,366.3857,m,1,2.2558,,[],[],[],[],[],[],[],366.3857,368.3856,368.3857,368.3857,[],[],[],[],[],[],[],,368.3858,368.3859,-0.105666072,-0.187174784,0,0,0,,0,58,58,148,1,3,word,SALINE,cursive,saline_c.png,,,,,,
,,,,31903,001,2025-12-03_16h25.43.911,HW_LDT_1,2024.2.4,MacIntel,59.88023952,,,,,,,,,,,,,,,,,,,,,368.3869,368.5856,368.5857,369.0846,,,,,,,,,,,,,,1.2829,1,,,,,,,,,,,,,,z,,,,,,,,,,,,,,,,60,0,369.085,370.3689,z,1,1.2829,,[],[],[],[],[],[],[],370.369,372.369,372.3691,372.3692,[],[],[],[],[],[],[],,372.3693,372.3693,-0.106122837,-0.186728982,0,0,0,,0,59,59,74,1,3,TL,spemicen,print,spemicen_p.png,,,,,,
,,,,31903,001,2025-12-03_16h25.43.911,HW_LDT_1,2024.2.4,MacIntel,59.88023952,,,,,,,,,,,,,,,,,,,,,372.3704,372.569,372.5691,373.068,,,,,,,,,,,,,,1.208,1,,,,,,,,,,,,,,z,,,,,,,,,,,,,,,,61,0,373.0685,374.2857,z,1,1.208,,[],[],[],[],[],[],[],374.2858,376.2856,376.2856,376.2857,[],[],[],[],[],[],[],,376.2858,376.2859,-0.106122837,-0.186728982,0,0,0,,0,60,60,48,1,3,TL,grafetul,cursive,grafetul_c.png,,,,,,
,,,,31903,001,2025-12-03_16h25.43.911,HW_LDT_1,2024.2.4,MacIntel,59.88023952,,,,,,,,,,,,,,,,,,,,,376.2869,376.4856,376.4857,376.9856,,,,,,,,,,,,,,1.3542,1,,,,,,,,,,,,,,m,,,,,,,,,,,,,,,,62,0,376.9861,378.3525,m,1,1.3542,,[],[],[],[],[],[],[],378.3525,380.3523,380.3523,380.3525,[],[],[],[],[],[],[],,380.3525,380.3525,-0.106122837,-0.186728982,0,0,0,,0,61,61,134,1,3,word,QUALIFY,print,qualify_p.png,,,,,,
,,,,31903,001,2025-12-03_16h25.43.911,HW_LDT_1,2024.2.4,MacIntel,59.88023952,,,,,,,,,,,,,,,,,,,,,380.3534,380.5514,380.5514,381.0523,,,,,,,,,,,,,,1.3806,1,,,,,,,,,,,,,,m,,,,,,,,,,,,,,,,63,1,381.0528,382.4347,m,1,1.3806,,[],[],[],[],[],[],[],382.4348,384.4354,384.4355,385.5179,[],[],[],[],[],[],[],m,385.518,385.5181,-0.106122837,-0.186728982,0,0,0,,0,62,62,104,1,3,word,DOMINANT,print,dominant_p.png,1.0796,,,,,
,,,,31903,001,2025-12-03_16h25.43.911,HW_LDT_1,2024.2.4,MacIntel,59.88023952,,,,,,,,,,,,,,,,,,,,,385.5189,385.7189,385.7189,386.2189,,,,,,,,,,,,,,1.7717,1,,,,,,,,,,,,,,z,,,,,,,,,,,,,,,,64,0,386.2194,388.0024,z,1,1.7717,,[],[],[],[],[],[],[],388.0025,390.0014,390.0015,390.0016,[],[],[],[],[],[],[],,390.0016,390.0017,-0.106122837,-0.186728982,0,0,0,,0,63,63,54,1,3,TL,manire,cursive,manire_c.png,,,,,,
,,,,31903,001,2025-12-03_16h25.43.911,HW_LDT_1,2024.2.4,MacIntel,59.88023952,,,,,,,,,,,,,,,,,,,,,390.0028,390.2024,390.2024,390.7022,,,,,,,,,,,,,,1.6319,1,,,,,,,,,,,,,,m,,,,,,,,,,,,,,,,65,0,390.7027,392.3355,m,1,1.6319,,[],[],[],[],[],[],[],392.3355,394.3356,394.3357,394.3358,[],[],[],[],[],[],[],,394.3358,394.3359,-0.106122837,-0.186728982,0,0,0,,0,64,64,144,1,3,word,RESIDENT,cursive,resident_c.png,,,,,,
,,,,31903,001,2025-12-03_16h25.43.911,HW_LDT_1,2024.2.4,MacIntel,59.88023952,,,,,,,,,,,,,,,,,,,,,394.3369,394.5356,394.5356,395.0356,,,,,,,,,,,,,,1.181,1,,,,,,,,,,,,,,z,,,,,,,,,,,,,,,,66,0,395.036,396.2189,z,1,1.181,,[],[],[],[],[],[],[],396.2189,398.2189,398.2189,398.2191,[],[],[],[],[],[],[],,398.2191,398.2191,-0.106122837,-0.186728982,0,0,0,,0,65,65,47,1,3,TL,elarobate,print,elarobate_p.png,,,,,,
,,,,31903,001,2025-12-03_16h25.43.911,HW_LDT_1,2024.2.4,MacIntel,59.88023952,,,,,,,,,,,,,,,,,,,,,398.2203,398.4189,398.419,398.9189,,,,,,,,,,,,,,1.2873,1,,,,,,,,,,,,,,z,,,,,,,,,,,,,,,,67,0,398.9193,400.2191,z,1,1.2873,,[],[],[],[],[],[],[],400.2191,402.2189,402.219,402.2191,[],[],[],[],[],[],[],,402.2192,402.2192,-0.106122837,-0.186728982,0,0,0,,0,66,66,44,1,3,TL,decilate,print,decilate_p.png,,,,,,
,,,,31903,001,2025-12-03_16h25.43.911,HW_LDT_1,2024.2.4,MacIntel,59.88023952,,,,,,,,,,,,,,,,,,,,,402.2203,402.4188,402.4189,402.9189,,,,,,,,,,,,,,1.0642,1,,,,,,,,,,,,,,z,,,,,,,,,,,,,,,,68,0,402.9194,403.9856,z,1,1.0642,,[],[],[],[],[],[],[],403.9856,405.9856,405.9856,405.9858,[],[],[],[],[],[],[],,405.9858,405.9859,-0.106122837,-0.186728982,0,0,0,,0,67,67,26,1,3,RL,repifion,print,repifion_p.png,,,,,,
,,,,31903,001,2025-12-03_16h25.43.911,HW_LDT_1,2024.2.4,MacIntel,59.88023952,,,,,,,,,,,,,,,,,,,,,405.9869,406.1855,406.1856,406.6856,,,,,,,,,,,,,,1.0882,1,,,,,,,,,,,,,,z,,,,,,,,,,,,,,,,69,1,406.6861,407.7857,z,1,1.0882,,[],[],[],[],[],[],[],407.7859,409.7847,409.7847,411.1023,[],[],[],[],[],[],[],m,411.1024,411.1025,-0.106122837,-0.186728982,0,0,0,,0,68,68,51,1,3,TL,liretal,print,liretal_p.png,1.3167,,,,,
,,,,31903,001,2025-12-03_16h25.43.911,HW_LDT_1,2024.2.4,MacIntel,59.88023952,,,,,,,,,,,,,,,,,,,,,411.1034,411.3013,411.3013,411.8022,,,,,,,,,,,,,,2.3883,1,,,,,,,,,,,,,,m,,,,,,,,,,,,,,,,70,0,411.8028,414.2023,m,1,2.3883,,[],[],[],[],[],[],[],414.2023,416.2023,416.2023,416.2025,[],[],[],[],[],[],[],,416.2025,416.2026,-0.106122837,-0.186728982,0,0,0,,0,69,69,156,1,3,word,TRIBUTE,print,tribute_p.png,,,,,,
,,,,31903,001,2025-12-03_16h25.43.911,HW_LDT_1,2024.2.4,MacIntel,59.88023952,,,,,,,,,,,,,,,,,,,,,416.2037,416.4022,416.4022,416.9014,,,,,,,,,,,,,,1.2322,1,,,,,,,,,,,,,,m,,,,,,,,,,,,,,,,71,0,416.9019,418.1348,m,1,1.2322,,[],[],[],[],[],[],[],418.1349,420.1346,420.1347,420.1348,[],[],[],[],[],[],[],,420.1349,420.1349,-0.106122837,-0.186728982,0,0,0,,0,70,70,124,1,3,word,NUMERICAL,print,numerical_p.png,,,,,,
,,,,31903,001,2025-12-03_16h25.43.911,HW_LDT_1,2024.2.4,MacIntel,59.88023952,,,,,,,,,,,,,,,,,,,,,420.1357,420.3347,420.3348,420.8356,,,,,,,,,,,,,,1.2571,1,,,,,,,,,,,,,,z,,,,,,,,,,,,,,,,72,1,420.8361,422.1023,z,1,1.2571,,[],[],[],[],[],[],[],422.1024,424.1022,424.1023,425.669,[],[],[],[],[],[],[],m,425.6691,425.6691,-0.106122837,-0.186728982,0,0,0,,0,71,71,64,1,3,TL,radiply,print,radiply_p.png,1.5557,,,,,
,,,,31903,001,2025-12-03_16h25.43.911,HW_LDT_1,2024.2.4,MacIntel,59.88023952,,,,,,,,,,,,,,,,,,,,,425.6703,425.8689,425.869,426.3689,,,,,,,,,,,,,,1.9384,1,,,,,,,,,,,,,,z,,,,,,,,,,,,,,,,73,0,426.3693,428.3189,z,1,1.9384,,[],[],[],[],[],[],[],428.3191,430.319,430.319,430.3192,[],[],[],[],[],[],[],,430.3192,430.3193,-0.106122837,-0.186728982,0,0,0,,0,72,72,72,1,3,TL,senmitent,print,senmitent_p.png,,,,,,
,,,,31903,001,2025-12-03_16h25.43.911,HW_LDT_1,2024.2.4,MacIntel,59.88023952,,,,,,,,,,,,,,,,,,,,,430.3205,430.5189,430.519,431.0189,,,,,,,,,,,,,,1.0383,1,,,,,,,,,,,,,,m,,,,,,,,,,,,,,,,74,0,431.0193,432.0689,m,1,1.0383,,[],[],[],[],[],[],[],432.069,434.0689,434.069,434.0691,[],[],[],[],[],[],[],,434.0691,434.0692,-0.106122837,-0.186728982,0,0,0,,0,73,73,113,1,3,word,LITERAL,print,literal_p.png,,,,,,
,,,,31903,001,2025-12-03_16h25.43.911,HW_LDT_1,2024.2.4,MacIntel,59.88023952,,,,,,,,,,,,,,,,,,,,,434.0702,434.2689,434.269,434.7685,,,,,,,,,,,,,,1.8314,0,,,,,,,,,,,,,,m,,,,,,,,,,,,,,,,75,0,434.7691,436.6022,z,0,1.8314,,[],[],[],[],[],[],[],436.6023,438.6013,438.6014,438.6016,[],[],[],[],[],[],[],,438.6016,438.6016,-0.106122837,-0.186728982,0,0,0,,0,74,74,117,1,3,word,MARINE,cursive,marine_c.png,,,,,,
,,,,31903,001,2025-12-03_16h25.43.911,HW_LDT_1,2024.2.4,MacIntel,59.88023952,,,,,,,,,,,,,,,,,,,,,438.6027,438.8023,438.8023,439.3022,,,,,,,,,,,,,,2.6475,0,,,,,,,,,,,,,,m,,,,,,,,,,,,,,,,76,0,439.3028,441.9523,z,0,2.6475,,[],[],[],[],[],[],[],441.9523,443.9521,443.9523,443.9524,[],[],[],[],[],[],[],,443.9524,443.9526,-0.106122837,-0.186728982,0,0,0,,0,75,75,99,1,3,word,DEBATE,cursive,debate_c.png,,,,,,
,,,,31903,001,2025-12-03_16h25.43.911,HW_LDT_1,2024.2.4,MacIntel,59.88023952,,,,,,,,,,,,,,,,,,,,,443.9536,444.1514,444.1514,444.6522,,,,,,,,,,,,,,1.9708,1,,,,,,,,,,,,,,z,,,,,,,,,,,,,,,,77,0,444.6526,446.6357,z,1,1.9708,,[],[],[],[],[],[],[],446.6358,448.6355,448.6355,448.6357,[],[],[],[],[],[],[],,448.6358,448.6359,-0.106122837,-0.186728982,0,0,0,,0,76,76,75,1,3,TL,sloten,cursive,sloten_c.png,,,,,,
,,,,31903,001,2025-12-03_16h25.43.911,HW_LDT_1,2024.2.4,MacIntel,59.88023952,,,,,,,,,,,,,,,,,,,,,448.6369,448.8356,448.8356,449.3355,,,,,,,,,,,,,,2.3069,1,,,,,,,,,,,,,,m,,,,,,,,,,,,,,,,78,0,449.3361,451.6524,m,1,2.3069,,[],[],[],[],[],[],[],451.6525,453.6522,453.6523,453.6525,[],[],[],[],[],[],[],,453.6525,453.6526,-0.106122837,-0.186728982,0,0,0,,0,77,77,143,1,3,word,REMOVAL,cursive,removal_c.png,,,,,,
,,,,31903,001,2025-12-03_16h25.43.911,HW_LDT_1,2024.2.4,MacIntel,59.88023952,,,,,,,,,,,,,,,,,,,,,453.6536,453.8522,453.8522,454.3523,,,,,,,,,,,,,,2.2322,0,,,,,,,,,,,,,,m,,,,,,,,,,,,,,,,79,0,454.3528,456.5857,z,0,2.2322,,[],[],[],[],[],[],[],456.5858,458.5855,458.5856,458.5857,[],[],[],[],[],[],[],,458.5858,458.5858,-0.106122837,-0.186728982,0,0,0,,0,78,78,90,1,3,word,CAPITAL,cursive,capital_c.png,,,,,,
,,,,31903,001,2025-12-03_16h25.43.911,HW_LDT_1,2024.2.4,MacIntel,59.88023952,,,,,,,,,,,,,,,,,,,,,458.5869,458.7855,458.7855,459.2855,,,,,,,,,,,,,,1.6381,1,,,,,,,,,,,,,,z,,,,,,,,,,,,,,,,80,1,459.2861,460.9357,z,1,1.6381,,[],[],[],[],[],[],[],460.9357,462.9355,462.9356,464.9854,[],[],[],[],[],[],[],z,464.9856,498.3691,-0.106122837,-0.186728982,0,0,0,space,0,79,79,2,1,3,RL,betemit,print,betemit_p.png,2.048,,33.3527,,,
,,,,31903,001,2025-12-03_16h25.43.911,HW_LDT_1,2024.2.4,MacIntel,59.88023952,,,,,,,,,,,,,,,,,,,,,498.3701,498.5688,498.5688,499.0688,,,,,,,,,,,,,,1.255,1,,,,,,,,,,,,,,z,,,,,,,,,,,,,,,,81,0,499.0694,500.3357,z,1,1.255,,[],[],[],[],[],[],[],500.3358,502.3355,502.3356,502.3358,[],[],[],[],[],[],[],,502.3359,502.3359,-0.093402859,-0.178532799,0,0,0,,0,80,80,10,1,3,RL,efibor,print,efibor_p.png,,,,,,
,,,,31903,001,2025-12-03_16h25.43.911,HW_LDT_1,2024.2.4,MacIntel,59.88023952,,,,,,,,,,,,,,,,,,,,,502.3369,502.5355,502.5355,503.0356,,,,,,,,,,,,,,2.1714,1,,,,,,,,,,,,,,m,,,,,,,,,,,,,,,,82,0,503.036,505.2188,m,1,2.1714,,[],[],[],[],[],[],[],505.2189,507.2188,507.2188,507.219,[],[],[],[],[],[],[],,507.2191,507.2192,-0.093402859,-0.178532799,0,0,0,,0,81,81,123,1,3,word,MODERATE,cursive,moderate_c.png,,,,,,
,,,,31903,001,2025-12-03_16h25.43.911,HW_LDT_1,2024.2.4,MacIntel,59.88023952,,,,,,,,,,,,,,,,,,,,,507.2201,507.4188,507.4188,507.9188,,,,,,,,,,,,,,1.072,1,,,,,,,,,,,,,,z,,,,,,,,,,,,,,,,83,0,507.9192,509.0022,z,1,1.072,,[],[],[],[],[],[],[],509.0024,511.0021,511.0022,511.0024,[],[],[],[],[],[],[],,511.0025,511.0026,-0.093402859,-0.178532799,0,0,0,,0,82,82,22,1,3,RL,procogal,print,procogal_p.png,,,,,,
,,,,31903,001,2025-12-03_16h25.43.911,HW_LDT_1,2024.2.4,MacIntel,59.88023952,,,,,,,,,,,,,,,,,,,,,511.0036,511.2022,511.2022,511.7022,,,,,,,,,,,,,,1.2715,1,,,,,,,,,,,,,,m,,,,,,,,,,,,,,,,84,0,511.7026,512.9855,m,1,1.2715,,[],[],[],[],[],[],[],512.9856,514.985,514.9851,514.9853,[],[],[],[],[],[],[],,514.9853,514.9854,-0.093402859,-0.178532799,0,0,0,,0,83,83,139,1,3,word,REGULAR,print,regular_p.png,,,,,,
,,,,31903,001,2025-12-03_16h25.43.911,HW_LDT_1,2024.2.4,MacIntel,59.88023952,,,,,,,,,,,,,,,,,,,,,514.9864,515.1855,515.1855,515.6855,,,,,,,,,,,,,,1.022,1,,,,,,,,,,,,,,m,,,,,,,,,,,,,,,,85,0,515.6861,516.7189,m,1,1.022,,[],[],[],[],[],[],[],516.719,518.7187,518.7188,518.719,[],[],[],[],[],[],[],,518.719,518.7191,-0.093402859,-0.178532799,0,0,0,,0,84,84,102,1,3,word,DENSITY,print,density_p.png,,,,,,
,,,,31903,001,2025-12-03_16h25.43.911,HW_LDT_1,2024.2.4,MacIntel,59.88023952,,,,,,,,,,,,,,,,,,,,,518.7202,518.9188,518.9188,519.4188,,,,,,,,,,,,,,0.8318,1,,,,,,,,,,,,,,z,,,,,,,,,,,,,,,,86,0,519.4193,520.252,z,1,0.8318,,[],[],[],[],[],[],[],520.2522,522.2521,522.2522,522.2524,[],[],[],[],[],[],[],,522.2524,522.2525,-0.093402859,-0.178532799,0,0,0,,0,85,85,30,1,3,RL,strapely,print,strapely_p.png,,,,,,
,,,,31903,001,2025-12-03_16h25.43.911,HW_LDT_1,2024.2.4,MacIntel,59.88023952,,,,,,,,,,,,,,,,,,,,,522.2536,522.4521,522.4522,522.9521,,,,,,,,,,,,,,0.8747,1,,,,,,,,,,,,,,z,,,,,,,,,,,,,,,,87,0,522.9526,523.8355,z,1,0.8747,,[],[],[],[],[],[],[],523.8356,525.8356,525.8356,525.8358,[],[],[],[],[],[],[],,525.8359,525.8359,-0.093402859,-0.178532799,0,0,0,,0,86,86,9,1,3,RL,docirant,print,docirant_p.png,,,,,,
,,,,31903,001,2025-12-03_16h25.43.911,HW_LDT_1,2024.2.4,MacIntel,59.88023952,,,,,,,,,,,,,,,,,,,,,525.8369,526.0354,526.0355,526.5355,,,,,,,,,,,,,,1.3485,1,,,,,,,,,,,,,,m,,,,,,,,,,,,,,,,88,0,526.536,527.8855,m,1,1.3485,,[],[],[],[],[],[],[],527.8856,529.8853,529.8853,529.8854,[],[],[],[],[],[],[],,529.8855,529.8855,-0.093402859,-0.178532799,0,0,0,,0,87,87,141,1,3,word,RELIGION,print,religion_p.png,,,,,,
,,,,31903,001,2025-12-03_16h25.43.911,HW_LDT_1,2024.2.4,MacIntel,59.88023952,,,,,,,,,,,,,,,,,,,,,529.8861,530.0855,530.0856,530.5855,,,,,,,,,,,,,,1.1085,1,,,,,,,,,,,,,,z,,,,,,,,,,,,,,,,89,0,530.586,531.7022,z,1,1.1085,,[],[],[],[],[],[],[],531.7023,533.7021,533.7022,533.7023,[],[],[],[],[],[],[],,533.7024,533.7024,-0.093402859,-0.178532799,0,0,0,,0,88,88,50,1,3,TL,lirebal,print,lirebal_p.png,,,,,,
,,,,31903,001,2025-12-03_16h25.43.911,HW_LDT_1,2024.2.4,MacIntel,59.88023952,,,,,,,,,,,,,,,,,,,,,533.7033,533.9017,533.9019,534.4022,,,,,,,,,,,,,,1.8121,1,,,,,,,,,,,,,,m,,,,,,,,,,,,,,,,90,0,534.4027,536.2187,m,1,1.8121,,[],[],[],[],[],[],[],536.2187,538.2178,538.2178,538.218,[],[],[],[],[],[],[],,538.2181,538.2182,-0.093402859,-0.178532799,0,0,0,,0,89,89,120,1,3,word,MILITARY,cursive,military_c.png,,,,,,
,,,,31903,001,2025-12-03_16h25.43.911,HW_LDT_1,2024.2.4,MacIntel,59.88023952,,,,,,,,,,,,,,,,,,,,,538.2192,538.4178,538.4178,538.9178,,,,,,,,,,,,,,0.9326,1,,,,,,,,,,,,,,z,,,,,,,,,,,,,,,,91,0,538.9183,539.8521,z,1,0.9326,,[],[],[],[],[],[],[],539.8522,541.8521,541.8522,541.8523,[],[],[],[],[],[],[],,541.8524,541.8524,-0.093402859,-0.178532799,0,0,0,,0,90,90,25,1,3,RL,retupar,print,retupar_p.png,,,,,,
,,,,31903,001,2025-12-03_16h25.43.911,HW_LDT_1,2024.2.4,MacIntel,59.88023952,,,,,,,,,,,,,,,,,,,,,541.8535,542.052,542.0521,542.552,,,,,,,,,,,,,,2.1374,0,,,,,,,,,,,,,,m,,,,,,,,,,,,,,,,92,0,542.5525,544.7012,z,0,2.1374,,[],[],[],[],[],[],[],544.7013,546.7021,546.7021,546.7023,[],[],[],[],[],[],[],,546.7024,546.7024,-0.093402859,-0.178532799,0,0,0,,0,91,91,121,1,3,word,MISTAKE,cursive,mistake_c.png,,,,,,
,,,,31903,001,2025-12-03_16h25.43.911,HW_LDT_1,2024.2.4,MacIntel,59.88023952,,,,,,,,,,,,,,,,,,,,,546.7035,546.902,546.9021,547.4021,,,,,,,,,,,,,,0.9211,1,,,,,,,,,,,,,,m,,,,,,,,,,,,,,,,93,0,547.4026,548.3345,m,1,0.9211,,[],[],[],[],[],[],[],548.3346,550.3354,550.3355,550.3356,[],[],[],[],[],[],[],,550.3357,550.3357,-0.093402859,-0.178532799,0,0,0,,0,92,92,97,1,3,word,COVERAGE,print,coverage_p.png,,,,,,
,,,,31903,001,2025-12-03_16h25.43.911,HW_LDT_1,2024.2.4,MacIntel,59.88023952,,,,,,,,,,,,,,,,,,,,,550.3368,550.5354,550.5355,551.0354,,,,,,,,,,,,,,2.2218,1,,,,,,,,,,,,,,z,,,,,,,,,,,,,,,,94,0,551.0359,553.2689,z,1,2.2218,,[],[],[],[],[],[],[],553.269,555.2688,555.2689,555.2691,[],[],[],[],[],[],[],,555.2691,555.2692,-0.093402859,-0.178532799,0,0,0,,0,93,93,57,1,3,TL,moredate,cursive,moredate_c.png,,,,,,
,,,,31903,001,2025-12-03_16h25.43.911,HW_LDT_1,2024.2.4,MacIntel,59.88023952,,,,,,,,,,,,,,,,,,,,,555.2702,555.4688,555.4689,555.9688,,,,,,,,,,,,,,0.9484,1,,,,,,,,,,,,,,m,,,,,,,,,,,,,,,,95,1,555.9694,556.9188,m,1,0.9484,,[],[],[],[],[],[],[],556.9188,558.9188,558.9188,560.0354,[],[],[],[],[],[],[],m,560.0355,560.0356,-0.093402859,-0.178532799,0,0,0,,0,94,94,135,1,3,word,QUALITY,print,quality_p.png,1.1149,,,,,
,,,,31903,001,2025-12-03_16h25.43.911,HW_LDT_1,2024.2.4,MacIntel,59.88023952,,,,,,,,,,,,,,,,,,,,,560.0365,560.2355,560.2355,560.7345,,,,,,,,,,,,,,1.056,1,,,,,,,,,,,,,,z,,,,,,,,,,,,,,,,96,0,560.735,561.8022,z,1,1.056,,[],[],[],[],[],[],[],561.8023,563.8021,563.8021,563.8023,[],[],[],[],[],[],[],,563.8024,563.8024,-0.093402859,-0.178532799,0,0,0,,0,95,95,56,1,3,TL,meromy,print,meromy_p.png,,,,,,
,,,,31903,001,2025-12-03_16h25.43.911,HW_LDT_1,2024.2.4,MacIntel,59.88023952,,,,,,,,,,,,,,,,,,,,,563.8034,564.0022,564.0023,564.502,,,,,,,,,,,,,,1.3716,1,,,,,,,,,,,,,,z,,,,,,,,,,,,,,,,97,1,564.5026,565.8854,z,1,1.3716,,[],[],[],[],[],[],[],565.8855,567.8846,567.8847,568.7346,[],[],[],[],[],[],[],z,568.7347,568.7348,-0.093402859,-0.178532799,0,0,0,,0,96,96,28,1,3,RL,rovastic,cursive,rovastic_c.png,0.8421,,,,,
,,,,31903,001,2025-12-03_16h25.43.911,HW_LDT_1,2024.2.4,MacIntel,59.88023952,,,,,,,,,,,,,,,,,,,,,568.7359,568.9346,568.9346,569.4355,,,,,,,,,,,,,,1.7619,1,,,,,,,,,,,,,,m,,,,,,,,,,,,,,,,98,0,569.436,571.2021,m,1,1.7619,,[],[],[],[],[],[],[],571.2021,573.2021,573.2021,573.2023,[],[],[],[],[],[],[],,573.2023,573.2025,-0.093402859,-0.178532799,0,0,0,,0,97,97,153,1,3,word,STOLEN,cursive,stolen_c.png,,,,,,
,,,,31903,001,2025-12-03_16h25.43.911,HW_LDT_1,2024.2.4,MacIntel,59.88023952,,,,,,,,,,,,,,,,,,,,,573.2034,573.4011,573.4012,573.9012,,,,,,,,,,,,,,1.7385,1,,,,,,,,,,,,,,z,,,,,,,,,,,,,,,,99,0,573.9017,575.6512,z,1,1.7385,,[],[],[],[],[],[],[],575.6513,577.6511,577.6513,577.6513,[],[],[],[],[],[],[],,577.6514,577.6515,-0.093402859,-0.178532799,0,0,0,,0,98,98,78,1,3,TL,vecolity,cursive,vecolity_c.png,,,,,,
,,,,31903,001,2025-12-03_16h25.43.911,HW_LDT_1,2024.2.4,MacIntel,59.88023952,,,,,,,,,,,,,,,,,,,,,577.6525,577.8521,577.8521,578.3521,,,,,,,,,,,,,,1.8213,1,,,,,,,,,,,,,,m,,,,,,,,,,,,,,,,100,0,578.3526,580.1845,m,1,1.8213,,[],[],[],[],[],[],[],580.1845,582.1855,582.1855,582.1857,[],[],[],[],[],[],[],,582.1857,582.1857,-0.093402859,-0.178532799,0,0,0,,0,99,99,159,1,3,word,VETERAN,cursive,veteran_c.png,,,,,,
,,,,31903,001,2025-12-03_16h25.43.911,HW_LDT_1,2024.2.4,MacIntel,59.88023952,,,,,,,,,,,,,,,,,,,,,582.1868,582.3855,582.3855,582.8845,,,,,,,,,,,,,,1.7726,1,,,,,,,,,,,,,,z,,,,,,,,,,,,,,,,101,1,582.8849,584.6689,z,1,1.7726,,[],[],[],[],[],[],[],584.669,586.6688,586.6689,587.6857,[],[],[],[],[],[],[],z,587.6857,587.6858,-0.093402859,-0.178532799,0,0,0,,0,100,100,4,1,3,RL,cafigal,cursive,cafigal_c.png,1.0054,,,,,
,,,,31903,001,2025-12-03_16h25.43.911,HW_LDT_1,2024.2.4,MacIntel,59.88023952,,,,,,,,,,,,,,,,,,,,,587.6869,587.8854,587.8855,588.3855,,,,,,,,,,,,,,1.2633,1,,,,,,,,,,,,,,m,,,,,,,,,,,,,,,,102,0,588.3861,589.6519,m,1,1.2633,,[],[],[],[],[],[],[],589.6519,591.652,591.6521,591.6522,[],[],[],[],[],[],[],,591.6522,591.6524,-0.093402859,-0.178532799,0,0,0,,0,101,101,81,1,3,word,ADVISORY,print,advisory_p.png,,,,,,
,,,,31903,001,2025-12-03_16h25.43.911,HW_LDT_1,2024.2.4,MacIntel,59.88023952,,,,,,,,,,,,,,,,,,,,,591.6534,591.8511,591.8512,592.352,,,,,,,,,,,,,,1.0653,1,,,,,,,,,,,,,,z,,,,,,,,,,,,,,,,103,1,592.3526,593.4188,z,1,1.0653,,[],[],[],[],[],[],[],593.4189,595.4187,595.4188,596.9022,[],[],[],[],[],[],[],z,596.9023,596.9024,-0.093402859,-0.178532799,0,0,0,,0,102,102,38,1,3,TL,carnidal,print,carnidal_p.png,1.4722,,,,,
,,,,31903,001,2025-12-03_16h25.43.911,HW_LDT_1,2024.2.4,MacIntel,59.88023952,,,,,,,,,,,,,,,,,,,,,596.9036,597.1021,597.1021,597.6021,,,,,,,,,,,,,,1.365,1,,,,,,,,,,,,,,z,,,,,,,,,,,,,,,,104,0,597.6026,598.9688,z,1,1.365,,[],[],[],[],[],[],[],598.9689,600.9688,600.9688,600.9689,[],[],[],[],[],[],[],,600.969,600.969,-0.093402859,-0.178532799,0,0,0,,0,103,103,39,1,3,TL,clicinal,print,clicinal_p.png,,,,,,
,,,,31903,001,2025-12-03_16h25.43.911,HW_LDT_1,2024.2.4,MacIntel,59.88023952,,,,,,,,,,,,,,,,,,,,,600.97,601.1687,601.1687,601.6687,,,,,,,,,,,,,,1.8321,0,,,,,,,,,,,,,,m,,,,,,,,,,,,,,,,105,0,601.6693,603.5021,z,0,1.8321,,[],[],[],[],[],[],[],603.5022,605.5021,605.5022,605.5023,[],[],[],[],[],[],[],,605.5023,605.5025,-0.093402859,-0.178532799,0,0,0,,0,104,104,140,1,3,word,RELATIVE,cursive,relative_c.png,,,,,,
,,,,31903,001,2025-12-03_16h25.43.911,HW_LDT_1,2024.2.4,MacIntel,59.88023952,,,,,,,,,,,,,,,,,,,,,605.5034,605.7021,605.7022,606.202,,,,,,,,,,,,,,1.3385,0,,,,,,,,,,,,,,m,,,,,,,,,,,,,,,,106,1,606.2025,607.5522,z,0,1.3385,,[],[],[],[],[],[],[],607.5523,609.552,609.5521,610.5522,[],[],[],[],[],[],[],z,610.5522,610.5523,-0.093402859,-0.178532799,0,0,0,,0,105,105,108,1,3,word,FORTUNE,cursive,fortune_c.png,0.9885,,,,,
,,,,31903,001,2025-12-03_16h25.43.911,HW_LDT_1,2024.2.4,MacIntel,59.88023952,,,,,,,,,,,,,,,,,,,,,610.5533,610.7521,610.7521,611.2522,,,,,,,,,,,,,,1.8705,1,,,,,,,,,,,,,,m,,,,,,,,,,,,,,,,107,1,611.2527,613.1354,m,1,1.8705,,[],[],[],[],[],[],[],613.1356,615.1353,615.1354,616.2354,[],[],[],[],[],[],[],z,616.2355,616.2356,-0.093402859,-0.178532799,0,0,0,,0,106,106,157,1,3,word,VALIDITY,cursive,validity_c.png,1.0916,,,,,
,,,,31903,001,2025-12-03_16h25.43.911,HW_LDT_1,2024.2.4,MacIntel,59.88023952,,,,,,,,,,,,,,,,,,,,,616.2367,616.4344,616.4346,616.9354,,,,,,,,,,,,,,1.5973,1,,,,,,,,,,,,,,m,,,,,,,,,,,,,,,,108,0,616.9359,618.5352,m,1,1.5973,,[],[],[],[],[],[],[],618.5354,620.5354,620.5355,620.5356,[],[],[],[],[],[],[],,620.5357,620.5357,-0.093402859,-0.178532799,0,0,0,,0,107,107,86,1,3,word,BESIDE,cursive,beside_c.png,,,,,,
,,,,31903,001,2025-12-03_16h25.43.911,HW_LDT_1,2024.2.4,MacIntel,59.88023952,,,,,,,,,,,,,,,,,,,,,620.5368,620.7345,620.7346,621.2345,,,,,,,,,,,,,,2.256,1,,,,,,,,,,,,,,m,,,,,,,,,,,,,,,,109,0,621.2349,623.5021,m,1,2.256,,[],[],[],[],[],[],[],623.5022,625.5012,625.5013,625.5014,[],[],[],[],[],[],[],,625.5014,625.5016,-0.093402859,-0.178532799,0,0,0,,0,108,108,155,1,3,word,STRATEGY,print,strategy_p.png,,,,,,
,,,,31903,001,2025-12-03_16h25.43.911,HW_LDT_1,2024.2.4,MacIntel,59.88023952,,,,,,,,,,,,,,,,,,,,,625.5027,625.702,625.7021,626.2012,,,,,,,,,,,,,,1.4226,1,,,,,,,,,,,,,,z,,,,,,,,,,,,,,,,110,0,626.2017,627.6354,z,1,1.4226,,[],[],[],[],[],[],[],627.6356,629.6349,629.6349,629.6351,[],[],[],[],[],[],[],,629.6351,629.6351,-0.093402859,-0.178532799,0,0,0,,0,109,109,66,1,3,TL,retalive,cursive,retalive_c.png,,,,,,
,,,,31903,001,2025-12-03_16h25.43.911,HW_LDT_1,2024.2.4,MacIntel,59.88023952,,,,,,,,,,,,,,,,,,,,,629.6362,629.8354,629.8355,630.3354,,,,,,,,,,,,,,0.9982,1,,,,,,,,,,,,,,z,,,,,,,,,,,,,,,,111,0,630.3359,631.3347,z,1,0.9982,,[],[],[],[],[],[],[],631.3348,633.3354,633.3355,633.3356,[],[],[],[],[],[],[],,633.3356,633.3357,-0.093402859,-0.178532799,0,0,0,,0,110,110,67,1,3,TL,retome,print,retome_p.png,,,,,,
,,,,31903,001,2025-12-03_16h25.43.911,HW_LDT_1,2024.2.4,MacIntel,59.88023952,,,,,,,,,,,,,,,,,,,,,633.3368,633.5353,633.5353,634.0353,,,,,,,,,,,,,,1.6391,1,,,,,,,,,,,,,,z,,,,,,,,,,,,,,,,112,0,634.0358,635.6854,z,1,1.6391,,[],[],[],[],[],[],[],635.6855,637.6855,637.6855,637.6857,[],[],[],[],[],[],[],,637.6857,637.6858,-0.093402859,-0.178532799,0,0,0,,0,111,111,34,1,3,TL,aminal,cursive,aminal_c.png,,,,,,
,,,,31903,001,2025-12-03_16h25.43.911,HW_LDT_1,2024.2.4,MacIntel,59.88023952,,,,,,,,,,,,,,,,,,,,,637.6868,637.8853,637.8854,638.3854,,,,,,,,,,,,,,1.4287,1,,,,,,,,,,,,,,z,,,,,,,,,,,,,,,,113,1,638.3858,639.8186,z,1,1.4287,,[],[],[],[],[],[],[],639.8186,641.8187,641.8187,642.8345,[],[],[],[],[],[],[],z,642.8345,642.8346,-0.093402859,-0.178532799,0,0,0,,0,112,112,69,1,3,TL,redisent,cursive,redisent_c.png,1.0142,,,,,
,,,,31903,001,2025-12-03_16h25.43.911,HW_LDT_1,2024.2.4,MacIntel,59.88023952,,,,,,,,,,,,,,,,,,,,,642.8357,643.0354,643.0354,643.5349,,,,,,,,,,,,,,2.1157,1,,,,,,,,,,,,,,m,,,,,,,,,,,,,,,,114,0,643.5356,645.6521,m,1,2.1157,,[],[],[],[],[],[],[],645.6522,647.652,647.652,647.6522,[],[],[],[],[],[],[],,647.6523,647.6523,-0.093402859,-0.178532799,0,0,0,,0,113,113,88,1,3,word,CAMERA,cursive,camera_c.png,,,,,,
,,,,31903,001,2025-12-03_16h25.43.911,HW_LDT_1,2024.2.4,MacIntel,59.88023952,,,,,,,,,,,,,,,,,,,,,647.6532,647.8521,647.8522,648.3512,,,,,,,,,,,,,,1.4728,1,,,,,,,,,,,,,,z,,,,,,,,,,,,,,,,115,0,648.3517,649.8355,z,1,1.4728,,[],[],[],[],[],[],[],649.8356,651.8354,651.8354,651.8356,[],[],[],[],[],[],[],,651.8356,651.8358,-0.093402859,-0.178532799,0,0,0,,0,114,114,5,1,3,RL,capefory,cursive,capefory_c.png,,,,,,
,,,,31903,001,2025-12-03_16h25.43.911,HW_LDT_1,2024.2.4,MacIntel,59.88023952,,,,,,,,,,,,,,,,,,,,,651.8368,652.0353,652.0354,652.5353,,,,,,,,,,,,,,1.2718,1,,,,,,,,,,,,,,m,,,,,,,,,,,,,,,,116,0,652.5358,653.8188,m,1,1.2718,,[],[],[],[],[],[],[],653.8188,655.8187,655.8187,655.8189,[],[],[],[],[],[],[],,655.819,655.819,-0.093402859,-0.178532799,0,0,0,,0,115,115,147,1,3,word,ROMANTIC,cursive,romantic_c.png,,,,,,
,,,,31903,001,2025-12-03_16h25.43.911,HW_LDT_1,2024.2.4,MacIntel,59.88023952,,,,,,,,,,,,,,,,,,,,,655.8203,656.0187,656.0187,656.5187,,,,,,,,,,,,,,1.6139,1,,,,,,,,,,,,,,z,,,,,,,,,,,,,,,,117,0,656.5192,658.1353,z,1,1.6139,,[],[],[],[],[],[],[],658.1354,660.1353,660.1354,660.1356,[],[],[],[],[],[],[],,660.1357,660.1357,-0.093402859,-0.178532799,0,0,0,,0,116,116,14,1,3,RL,lofase,cursive,lofase_c.png,,,,,,
,,,,31903,001,2025-12-03_16h25.43.911,HW_LDT_1,2024.2.4,MacIntel,59.88023952,,,,,,,,,,,,,,,,,,,,,660.1369,660.3354,660.3354,660.8344,,,,,,,,,,,,,,0.8817,1,,,,,,,,,,,,,,m,,,,,,,,,,,,,,,,118,0,660.8349,661.7186,m,1,0.8817,,[],[],[],[],[],[],[],661.7187,663.7178,663.7179,663.7181,[],[],[],[],[],[],[],,663.7181,663.7182,-0.093402859,-0.178532799,0,0,0,,0,117,117,142,1,3,word,REMOTE,print,remote_p.png,,,,,,
,,,,31903,001,2025-12-03_16h25.43.911,HW_LDT_1,2024.2.4,MacIntel,59.88023952,,,,,,,,,,,,,,,,,,,,,663.7192,663.9187,663.9187,664.4188,,,,,,,,,,,,,,1.0316,1,,,,,,,,,,,,,,z,,,,,,,,,,,,,,,,119,0,664.4192,665.452,z,1,1.0316,,[],[],[],[],[],[],[],665.4521,667.4512,667.4512,667.4514,[],[],[],[],[],[],[],,667.4514,667.4515,-0.093402859,-0.178532799,0,0,0,,0,118,118,42,1,3,TL,detabe,cursive,detabe_c.png,,,,,,
,,,,31903,001,2025-12-03_16h25.43.911,HW_LDT_1,2024.2.4,MacIntel,59.88023952,,,,,,,,,,,,,,,,,,,,,667.4525,667.6511,667.6512,668.1512,,,,,,,,,,,,,,1.8227,0,,,,,,,,,,,,,,z,,,,,,,,,,,,,,,,120,0,668.1517,669.9848,m,0,1.8227,,[],[],[],[],[],[],[],669.9849,671.9844,671.9845,671.9847,[],[],[],[],[],[],[],,671.9847,671.9847,-0.093402859,-0.178532799,0,0,0,,0,119,119,20,1,3,RL,orimipal,cursive,orimipal_c.png,,,,,,
,,,,31903,001,2025-12-03_16h25.43.911,HW_LDT_1,2024.2.4,MacIntel,59.88023952,,,,,,,,,,,,,,,,,,,,,671.9858,672.1854,672.1854,672.6854,,,,,,,,,,,,,,1.1206,1,,,,,,,,,,,,,,m,,,,,,,,,,,,,,,,121,0,672.686,673.8187,m,1,1.1206,,[],[],[],[],[],[],[],673.8188,675.8187,675.8187,675.819,[],[],[],[],[],[],[],,675.819,675.8191,-0.093402859,-0.178532799,0,0,0,,0,120,120,152,1,3,word,SPECIMEN,print,specimen_p.png,,,,,,
,,,,31903,001,2025-12-03_16h25.43.911,HW_LDT_1,2024.2.4,MacIntel,59.88023952,,,,,,,,,,,,,,,,,,,,,675.8202,676.0179,676.018,676.5186,,,,,,,,,,,,,,0.8983,1,,,,,,,,,,,,,,m,,,,,,,,,,,,,,,,122,0,676.5191,677.4187,m,1,0.8983,,[],[],[],[],[],[],[],677.4188,679.4186,679.4187,679.4188,[],[],[],[],[],[],[],,679.4189,679.4189,-0.093402859,-0.178532799,0,0,0,,0,121,121,103,1,3,word,DISPUTE,print,dispute_p.png,,,,,,
,,,,31903,001,2025-12-03_16h25.43.911,HW_LDT_1,2024.2.4,MacIntel,59.88023952,,,,,,,,,,,,,,,,,,,,,679.42,679.6187,679.6187,680.1185,,,,,,,,,,,,,,1.0143,1,,,,,,,,,,,,,,z,,,,,,,,,,,,,,,,123,0,680.1187,681.1352,z,1,1.0143,,[],[],[],[],[],[],[],681.1354,683.1353,683.1354,683.1356,[],[],[],[],[],[],[],,683.1357,683.1357,-0.093402859,-0.178532799,0,0,0,,0,122,122,45,1,3,TL,dentisy,print,dentisy_p.png,,,,,,
,,,,31903,001,2025-12-03_16h25.43.911,HW_LDT_1,2024.2.4,MacIntel,59.88023952,,,,,,,,,,,,,,,,,,,,,683.1367,683.3353,683.3353,683.8353,,,,,,,,,,,,,,1.8212,1,,,,,,,,,,,,,,z,,,,,,,,,,,,,,,,124,0,683.8358,685.6688,z,1,1.8212,,[],[],[],[],[],[],[],685.6689,687.6686,687.6687,687.6688,[],[],[],[],[],[],[],,687.6689,687.6689,-0.093402859,-0.178532799,0,0,0,,0,123,123,16,1,3,RL,mishafe,cursive,mishafe_c.png,,,,,,
,,,,31903,001,2025-12-03_16h25.43.911,HW_LDT_1,2024.2.4,MacIntel,59.88023952,,,,,,,,,,,,,,,,,,,,,687.67,687.868,687.8681,688.3686,,,,,,,,,,,,,,0.9722,1,,,,,,,,,,,,,,m,,,,,,,,,,,,,,,,125,0,688.369,689.3521,m,1,0.9722,,[],[],[],[],[],[],[],689.3521,691.3521,691.3521,691.3522,[],[],[],[],[],[],[],,691.3523,691.3523,-0.093402859,-0.178532799,0,0,0,,0,124,124,116,1,3,word,MARGINAL,print,marginal_p.png,,,,,,
,,,,31903,001,2025-12-03_16h25.43.911,HW_LDT_1,2024.2.4,MacIntel,59.88023952,,,,,,,,,,,,,,,,,,,,,691.3534,691.552,691.552,692.0519,,,,,,,,,,,,,,1.7726,1,,,,,,,,,,,,,,m,,,,,,,,,,,,,,,,126,0,692.0525,693.8354,m,1,1.7726,,[],[],[],[],[],[],[],693.8354,695.8353,695.8354,695.8356,[],[],[],[],[],[],[],,695.8356,695.8356,-0.093402859,-0.178532799,0,0,0,,0,125,125,82,1,3,word,AMATEUR,print,amateur_p.png,,,,,,
,,,,31903,001,2025-12-03_16h25.43.911,HW_LDT_1,2024.2.4,MacIntel,59.88023952,,,,,,,,,,,,,,,,,,,,,695.8367,696.0352,696.0353,696.5353,,,,,,,,,,,,,,2.2884,0,,,,,,,,,,,,,,m,,,,,,,,,,,,,,,,127,1,696.5358,698.836,z,0,2.2884,,[],[],[],[],[],[],[],698.836,700.8353,700.8354,701.7854,[],[],[],[],[],[],[],z,701.7855,701.7856,-0.093402859,-0.178532799,0,0,0,,0,126,126,92,1,3,word,CATEGORY,cursive,category_c.png,0.939,,,,,
,,,,31903,001,2025-12-03_16h25.43.911,HW_LDT_1,2024.2.4,MacIntel,59.88023952,,,,,,,,,,,,,,,,,,,,,701.7867,701.9853,701.9853,702.4854,,,,,,,,,,,,,,2.1058,1,,,,,,,,,,,,,,m,,,,,,,,,,,,,,,,128,1,702.4858,704.6021,m,1,2.1058,,[],[],[],[],[],[],[],704.6021,706.602,706.602,707.602,[],[],[],[],[],[],[],z,707.6021,707.6022,-0.093402859,-0.178532799,0,0,0,,0,127,127,149,1,3,word,SENATOR,cursive,senator_c.png,0.9886,,,,,
,,,,31903,001,2025-12-03_16h25.43.911,HW_LDT_1,2024.2.4,MacIntel,59.88023952,,,,,,,,,,,,,,,,,,,,,707.6033,707.802,707.802,708.3021,,,,,,,,,,,,,,1.5217,1,,,,,,,,,,,,,,m,,,,,,,,,,,,,,,,129,0,708.3026,709.8355,m,1,1.5217,,[],[],[],[],[],[],[],709.8355,711.8354,711.8354,711.8356,[],[],[],[],[],[],[],,711.8356,711.8357,-0.093402859,-0.178532799,0,0,0,,0,128,128,150,1,3,word,SENTIMENT,print,sentiment_p.png,,,,,,
,,,,31903,001,2025-12-03_16h25.43.911,HW_LDT_1,2024.2.4,MacIntel,59.88023952,,,,,,,,,,,,,,,,,,,,,711.8368,712.0344,712.0344,712.5353,,,,,,,,,,,,,,1.7384,1,,,,,,,,,,,,,,m,,,,,,,,,,,,,,,,130,0,712.5358,714.2854,m,1,1.7384,,[],[],[],[],[],[],[],714.2855,716.2854,716.2854,716.2856,[],[],[],[],[],[],[],,716.2857,716.2858,-0.093402859,-0.178532799,0,0,0,,0,129,129,89,1,3,word,CAPACITY,cursive,capacity_c.png,,,,,,
,,,,31903,001,2025-12-03_16h25.43.911,HW_LDT_1,2024.2.4,MacIntel,59.88023952,,,,,,,,,,,,,,,,,,,,,716.2867,716.4853,716.4853,716.9853,,,,,,,,,,,,,,2.0387,1,,,,,,,,,,,,,,m,,,,,,,,,,,,,,,,131,0,716.9856,719.0354,m,1,2.0387,,[],[],[],[],[],[],[],719.0355,721.0354,721.0354,721.0356,[],[],[],[],[],[],[],,721.0356,721.0357,-0.093402859,-0.178532799,0,0,0,,0,130,130,93,1,3,word,CEREMONY,cursive,ceremony_c.png,,,,,,
,,,,31903,001,2025-12-03_16h25.43.911,HW_LDT_1,2024.2.4,MacIntel,59.88023952,,,,,,,,,,,,,,,,,,,,,721.0368,721.2352,721.2352,721.7353,,,,,,,,,,,,,,1.6884,1,,,,,,,,,,,,,,z,,,,,,,,,,,,,,,,132,0,721.7358,723.4354,z,1,1.6884,,[],[],[],[],[],[],[],723.4356,725.4352,725.4353,725.4355,[],[],[],[],[],[],[],,725.4355,725.4356,-0.093402859,-0.178532799,0,0,0,,0,131,131,29,1,3,RL,selamor,cursive,selamor_c.png,,,,,,
,,,,31903,001,2025-12-03_16h25.43.911,HW_LDT_1,2024.2.4,MacIntel,59.88023952,,,,,,,,,,,,,,,,,,,,,725.4367,725.6347,725.6348,726.1353,,,,,,,,,,,,,,0.9149,1,,,,,,,,,,,,,,z,,,,,,,,,,,,,,,,133,0,726.1358,727.0519,z,1,0.9149,,[],[],[],[],[],[],[],727.0521,729.0519,729.052,729.0522,[],[],[],[],[],[],[],,729.0523,729.0524,-0.093402859,-0.178532799,0,0,0,,0,132,132,27,1,3,RL,recile,print,recile_p.png,,,,,,
,,,,31903,001,2025-12-03_16h25.43.911,HW_LDT_1,2024.2.4,MacIntel,59.88023952,,,,,,,,,,,,,,,,,,,,,729.0535,729.2521,729.2521,729.752,,,,,,,,,,,,,,0.8151,1,,,,,,,,,,,,,,m,,,,,,,,,,,,,,,,134,0,729.7525,730.5686,m,1,0.8151,,[],[],[],[],[],[],[],730.5687,732.5687,732.5687,732.569,[],[],[],[],[],[],[],,732.569,732.5691,-0.093402859,-0.178532799,0,0,0,,0,133,133,85,1,3,word,BENEFIT,print,benefit_p.png,,,,,,
,,,,31903,001,2025-12-03_16h25.43.911,HW_LDT_1,2024.2.4,MacIntel,59.88023952,,,,,,,,,,,,,,,,,,,,,732.5701,732.7686,732.7687,733.2687,,,,,,,,,,,,,,1.775,1,,,,,,,,,,,,,,m,,,,,,,,,,,,,,,,135,0,733.2692,735.052,m,1,1.775,,[],[],[],[],[],[],[],735.0521,737.0519,737.0519,737.0521,[],[],[],[],[],[],[],,737.0521,737.0522,-0.093402859,-0.178532799,0,0,0,,0,134,134,105,1,3,word,EDITOR,print,editor_p.png,,,,,,
,,,,31903,001,2025-12-03_16h25.43.911,HW_LDT_1,2024.2.4,MacIntel,59.88023952,,,,,,,,,,,,,,,,,,,,,737.0532,737.2511,737.2512,737.752,,,,,,,,,,,,,,1.2062,1,,,,,,,,,,,,,,m,,,,,,,,,,,,,,,,136,0,737.7525,738.9687,m,1,1.2062,,[],[],[],[],[],[],[],738.9688,740.9686,740.9687,740.9689,[],[],[],[],[],[],[],,740.9689,740.9689,-0.093402859,-0.178532799,0,0,0,,0,135,135,158,1,3,word,VELOCITY,cursive,velocity_c.png,,,,,,
,,,,31903,001,2025-12-03_16h25.43.911,HW_LDT_1,2024.2.4,MacIntel,59.88023952,,,,,,,,,,,,,,,,,,,,,740.9699,741.1687,741.1687,741.6686,,,,,,,,,,,,,,0.0218,1,,,,,,,,,,,,,,z,,,,,,,,,,,,,,,,137,0,741.6691,741.702,z,1,0.0218,,[],[],[],[],[],[],[],741.7022,743.702,743.7021,743.7022,[],[],[],[],[],[],[],,743.7022,743.7024,-0.093402859,-0.178532799,0,0,0,,0,136,136,61,1,3,TL,pocily,print,pocily_p.png,,,,,,
,,,,31903,001,2025-12-03_16h25.43.911,HW_LDT_1,2024.2.4,MacIntel,59.88023952,,,,,,,,,,,,,,,,,,,,,743.7033,743.9019,743.9019,744.4018,,,,,,,,,,,,,,1.4721,1,,,,,,,,,,,,,,z,,,,,,,,,,,,,,,,138,0,744.4023,745.8853,z,1,1.4721,,[],[],[],[],[],[],[],745.8855,747.8853,747.8853,747.8855,[],[],[],[],[],[],[],,747.8855,747.8856,-0.093402859,-0.178532799,0,0,0,,0,137,137,35,1,3,TL,cateferia,print,cateferia_p.png,,,,,,
,,,,31903,001,2025-12-03_16h25.43.911,HW_LDT_1,2024.2.4,MacIntel,59.88023952,,,,,,,,,,,,,,,,,,,,,747.8866,748.0853,748.0853,748.5853,,,,,,,,,,,,,,1.221,1,,,,,,,,,,,,,,m,,,,,,,,,,,,,,,,139,0,748.5858,749.8187,m,1,1.221,,[],[],[],[],[],[],[],749.8187,751.8186,751.8187,751.8188,[],[],[],[],[],[],[],,751.8189,751.8189,-0.093402859,-0.178532799,0,0,0,,0,138,138,111,1,3,word,INDICATE,print,indicate_p.png,,,,,,
,,,,31903,001,2025-12-03_16h25.43.911,HW_LDT_1,2024.2.4,MacIntel,59.88023952,,,,,,,,,,,,,,,,,,,,,751.82,752.0185,752.0186,752.5186,,,,,,,,,,,,,,0.9481,1,,,,,,,,,,,,,,m,,,,,,,,,,,,,,,,140,0,752.5191,753.4686,m,1,0.9481,,[],[],[],[],[],[],[],753.4687,755.4686,755.4686,755.4688,[],[],[],[],[],[],[],,755.4688,755.4689,-0.093402859,-0.178532799,0,0,0,,0,139,139,91,1,3,word,CARDINAL,print,cardinal_p.png,,,,,,
,,,,31903,001,2025-12-03_16h25.43.911,HW_LDT_1,2024.2.4,MacIntel,59.88023952,,,,,,,,,,,,,,,,,,,,,755.4699,755.6685,755.6685,756.1686,,,,,,,,,,,,,,1.6549,1,,,,,,,,,,,,,,m,,,,,,,,,,,,,,,,141,0,756.1692,757.8354,m,1,1.6549,,[],[],[],[],[],[],[],757.8355,759.8352,759.8352,759.8354,[],[],[],[],[],[],[],,759.8355,759.8356,-0.093402859,-0.178532799,0,0,0,,0,140,140,118,1,3,word,MEDICINE,print,medicine_p.png,,,,,,
,,,,31903,001,2025-12-03_16h25.43.911,HW_LDT_1,2024.2.4,MacIntel,59.88023952,,,,,,,,,,,,,,,,,,,,,759.8366,760.0343,760.0343,760.5353,,,,,,,,,,,,,,1.0049,1,,,,,,,,,,,,,,z,,,,,,,,,,,,,,,,142,0,760.5357,761.552,z,1,1.0049,,[],[],[],[],[],[],[],761.5521,763.5519,763.5519,763.5521,[],[],[],[],[],[],[],,763.5521,763.5523,-0.093402859,-0.178532799,0,0,0,,0,141,141,65,1,3,TL,resufal,print,resufal_p.png,,,,,,
,,,,31903,001,2025-12-03_16h25.43.911,HW_LDT_1,2024.2.4,MacIntel,59.88023952,,,,,,,,,,,,,,,,,,,,,763.5533,763.7519,763.7519,764.2519,,,,,,,,,,,,,,1.3816,1,,,,,,,,,,,,,,z,,,,,,,,,,,,,,,,143,1,764.2524,765.6352,z,1,1.3816,,[],[],[],[],[],[],[],765.6352,767.6352,767.6352,768.7852,[],[],[],[],[],[],[],z,768.7853,768.7854,-0.093402859,-0.178532799,0,0,0,,0,142,142,3,1,3,RL,bebine,cursive,bebine_c.png,1.1494,,,,,
,,,,31903,001,2025-12-03_16h25.43.911,HW_LDT_1,2024.2.4,MacIntel,59.88023952,,,,,,,,,,,,,,,,,,,,,768.7863,768.9852,768.9853,769.4853,,,,,,,,,,,,,,1.1647,1,,,,,,,,,,,,,,m,,,,,,,,,,,,,,,,144,0,769.4858,770.652,m,1,1.1647,,[],[],[],[],[],[],[],770.652,772.6519,772.6519,772.6521,[],[],[],[],[],[],[],,772.6521,772.6522,-0.093402859,-0.178532799,0,0,0,,0,143,143,98,1,3,word,CRIMINAL,print,criminal_p.png,,,,,,
,,,,31903,001,2025-12-03_16h25.43.911,HW_LDT_1,2024.2.4,MacIntel,59.88023952,,,,,,,,,,,,,,,,,,,,,772.6532,772.852,772.852,773.3519,,,,,,,,,,,,,,1.2385,1,,,,,,,,,,,,,,m,,,,,,,,,,,,,,,,145,0,773.3524,774.602,m,1,1.2385,,[],[],[],[],[],[],[],774.602,776.602,776.6021,776.6022,[],[],[],[],[],[],[],,776.6023,776.6024,-0.093402859,-0.178532799,0,0,0,,0,144,144,136,1,3,word,RADICAL,cursive,radical_c.png,,,,,,
,,,,31903,001,2025-12-03_16h25.43.911,HW_LDT_1,2024.2.4,MacIntel,59.88023952,,,,,,,,,,,,,,,,,,,,,776.6035,776.8018,776.8018,777.3018,,,,,,,,,,,,,,1.2818,1,,,,,,,,,,,,,,m,,,,,,,,,,,,,,,,146,0,777.3023,778.5853,m,1,1.2818,,[],[],[],[],[],[],[],778.5854,780.5853,780.5853,780.5854,[],[],[],[],[],[],[],,780.5854,780.5855,-0.093402859,-0.178532799,0,0,0,,0,145,145,132,1,3,word,PROPOSAL,print,proposal_p.png,,,,,,
,,,,31903,001,2025-12-03_16h25.43.911,HW_LDT_1,2024.2.4,MacIntel,59.88023952,,,,,,,,,,,,,,,,,,,,,780.5866,780.7852,780.7852,781.2853,,,,,,,,,,,,,,0.7641,1,,,,,,,,,,,,,,z,,,,,,,,,,,,,,,,147,1,781.2857,782.0519,z,1,0.7641,,[],[],[],[],[],[],[],782.052,784.052,784.0521,785.3852,[],[],[],[],[],[],[],z,785.3853,785.3854,-0.093402859,-0.178532799,0,0,0,,0,146,146,7,1,3,RL,cobeny,print,cobeny_p.png,1.3324,,,,,
,,,,31903,001,2025-12-03_16h25.43.911,HW_LDT_1,2024.2.4,MacIntel,59.88023952,,,,,,,,,,,,,,,,,,,,,785.3863,785.5852,785.5853,786.0852,,,,,,,,,,,,,,1.7817,1,,,,,,,,,,,,,,m,,,,,,,,,,,,,,,,148,0,786.0857,787.8685,m,1,1.7817,,[],[],[],[],[],[],[],787.8685,789.8685,789.8685,789.8687,[],[],[],[],[],[],[],,789.8688,789.8688,-0.093402859,-0.178532799,0,0,0,,0,147,147,125,1,3,word,OPERATOR,print,operator_p.png,,,,,,
,,,,31903,001,2025-12-03_16h25.43.911,HW_LDT_1,2024.2.4,MacIntel,59.88023952,,,,,,,,,,,,,,,,,,,,,789.8699,790.0685,790.0686,790.5685,,,,,,,,,,,,,,1.7717,1,,,,,,,,,,,,,,m,,,,,,,,,,,,,,,,149,0,790.569,792.352,m,1,1.7717,,[],[],[],[],[],[],[],792.3521,794.3519,794.352,794.3521,[],[],[],[],[],[],[],,794.3522,794.3523,-0.093402859,-0.178532799,0,0,0,,0,148,148,106,1,3,word,ELABORATE,print,elaborate_p.png,,,,,,
,,,,31903,001,2025-12-03_16h25.43.911,HW_LDT_1,2024.2.4,MacIntel,59.88023952,,,,,,,,,,,,,,,,,,,,,794.3533,794.5519,794.5519,795.0519,,,,,,,,,,,,,,0.7076,1,,,,,,,,,,,,,,m,,,,,,,,,,,,,,,,150,0,795.0524,795.7687,m,1,0.7076,,[],[],[],[],[],[],[],795.7688,797.7685,797.7686,797.7688,[],[],[],[],[],[],[],,797.7688,797.7689,-0.093402859,-0.178532799,0,0,0,,0,149,149,119,1,3,word,MEMORY,print,memory_p.png,,,,,,
,,,,31903,001,2025-12-03_16h25.43.911,HW_LDT_1,2024.2.4,MacIntel,59.88023952,,,,,,,,,,,,,,,,,,,,,797.7701,797.9686,797.9686,798.4686,,,,,,,,,,,,,,0.9622,1,,,,,,,,,,,,,,m,,,,,,,,,,,,,,,,151,0,798.469,799.4352,m,1,0.9622,,[],[],[],[],[],[],[],799.4354,801.4352,801.4353,801.4354,[],[],[],[],[],[],[],,801.4354,801.4356,-0.093402859,-0.178532799,0,0,0,,0,150,150,137,1,3,word,RAPIDLY,print,rapidly_p.png,,,,,,
,,,,31903,001,2025-12-03_16h25.43.911,HW_LDT_1,2024.2.4,MacIntel,59.88023952,,,,,,,,,,,,,,,,,,,,,801.4367,801.6352,801.6352,802.1352,,,,,,,,,,,,,,0.9063,1,,,,,,,,,,,,,,z,,,,,,,,,,,,,,,,152,0,802.1356,803.0519,z,1,0.9063,,[],[],[],[],[],[],[],803.052,805.0519,805.052,805.0521,[],[],[],[],[],[],[],,805.0522,805.0523,-0.093402859,-0.178532799,0,0,0,,0,151,151,71,1,3,TL,sanile,cursive,sanile_c.png,,,,,,
,,,,31903,001,2025-12-03_16h25.43.911,HW_LDT_1,2024.2.4,MacIntel,59.88023952,,,,,,,,,,,,,,,,,,,,,805.0534,805.2519,805.2519,805.7519,,,,,,,,,,,,,,1.7486,1,,,,,,,,,,,,,,z,,,,,,,,,,,,,,,,153,0,805.7524,807.5019,z,1,1.7486,,[],[],[],[],[],[],[],807.5019,809.5019,809.5019,809.502,[],[],[],[],[],[],[],,809.5021,809.5022,-0.093402859,-0.178532799,0,0,0,,0,152,152,52,1,3,TL,locigal,cursive,locigal_c.png,,,,,,
,,,,31903,001,2025-12-03_16h25.43.911,HW_LDT_1,2024.2.4,MacIntel,59.88023952,,,,,,,,,,,,,,,,,,,,,809.5032,809.7019,809.7019,810.202,,,,,,,,,,,,,,1.1548,1,,,,,,,,,,,,,,m,,,,,,,,,,,,,,,,154,0,810.2026,811.3687,m,1,1.1548,,[],[],[],[],[],[],[],811.3689,813.3686,813.3686,813.3688,[],[],[],[],[],[],[],,813.3688,813.3689,-0.093402859,-0.178532799,0,0,0,,0,153,153,115,1,3,word,LOGICAL,cursive,logical_c.png,,,,,,
,,,,31903,001,2025-12-03_16h25.43.911,HW_LDT_1,2024.2.4,MacIntel,59.88023952,,,,,,,,,,,,,,,,,,,,,813.3699,813.5686,813.5686,814.0681,,,,,,,,,,,,,,0.922,1,,,,,,,,,,,,,,z,,,,,,,,,,,,,,,,155,0,814.0686,815.002,z,1,0.922,,[],[],[],[],[],[],[],815.0021,817.0018,817.0019,817.0021,[],[],[],[],[],[],[],,817.0021,817.0022,-0.093402859,-0.178532799,0,0,0,,0,154,154,46,1,3,TL,distupe,print,distupe_p.png,,,,,,
,,,,31903,001,2025-12-03_16h25.43.911,HW_LDT_1,2024.2.4,MacIntel,59.88023952,,,,,,,,,,,,,,,,,,,,,817.0032,817.2019,817.2019,817.7019,,,,,,,,,,,,,,1.6143,1,,,,,,,,,,,,,,z,,,,,,,,,,,,,,,,156,1,817.7023,819.3185,z,1,1.6143,,[],[],[],[],[],[],[],819.3185,821.3185,821.3186,822.7854,[],[],[],[],[],[],[],z,822.7854,822.7856,-0.093402859,-0.178532799,0,0,0,,0,155,155,73,1,3,TL,speficic,print,speficic_p.png,1.4569,,,,,
,,,,31903,001,2025-12-03_16h25.43.911,HW_LDT_1,2024.2.4,MacIntel,59.88023952,,,,,,,,,,,,,,,,,,,,,822.7866,822.9851,822.9851,823.4853,,,,,,,,,,,,,,2.105,1,,,,,,,,,,,,,,z,,,,,,,,,,,,,,,,157,0,823.4856,825.6019,z,1,2.105,,[],[],[],[],[],[],[],825.6021,827.6018,827.6019,827.602,[],[],[],[],[],[],[],,827.6021,827.6022,-0.093402859,-0.178532799,0,0,0,,0,156,156,70,1,3,TL,remuse,cursive,remuse_c.png,,,,,,
,,,,31903,001,2025-12-03_16h25.43.911,HW_LDT_1,2024.2.4,MacIntel,59.88023952,,,,,,,,,,,,,,,,,,,,,827.6032,827.8018,827.8019,828.3019,,,,,,,,,,,,,,2.7234,0,,,,,,,,,,,,,,m,,,,,,,,,,,,,,,,158,0,828.3024,831.0353,z,0,2.7234,,[],[],[],[],[],[],[],831.0354,833.0351,833.0352,833.0353,[],[],[],[],[],[],[],,833.0354,833.0355,-0.093402859,-0.178532799,0,0,0,,0,157,157,109,1,3,word,GRATEFUL,cursive,grateful_c.png,,,,,,
,,,,31903,001,2025-12-03_16h25.43.911,HW_LDT_1,2024.2.4,MacIntel,59.88023952,,,,,,,,,,,,,,,,,,,,,833.0365,833.2351,833.2352,833.7351,,,,,,,,,,,,,,1.0815,1,,,,,,,,,,,,,,z,,,,,,,,,,,,,,,,159,0,833.7356,834.8185,z,1,1.0815,,[],[],[],[],[],[],[],834.8186,836.8184,836.8185,836.8187,[],[],[],[],[],[],[],,836.8187,836.8188,-0.093402859,-0.178532799,0,0,0,,0,158,158,23,1,3,RL,quakity,print,quakity_p.png,,,,,,
,,,,31903,001,2025-12-03_16h25.43.911,HW_LDT_1,2024.2.4,MacIntel,59.88023952,,,,,,,,,,,,,,,,,,,,,836.8198,837.0186,837.0186,837.5185,,,,,,,,,,,,,,1.3214,1,,,,,,,,,,,,,,z,,,,,,,,,,,,,,,,160,0,837.5191,838.852,z,1,1.3214,,[],[],[],[],[],[],[],838.8521,840.8518,840.8519,840.8521,[],[],[],[],[],[],[],,840.8521,840.8521,-0.093402859,-0.178532799,0,0,0,,0,159,159,77,1,3,TL,vadility,cursive,vadility_c.png,,,,,,
,,,,31903,001,2025-12-03_16h25.43.911,HW_LDT_1,2024.2.4,MacIntel,59.88023952,,,,,,,,,,,,,,,,,,,,,,,,,,,,,,,,,,,,,,,,,,,,,,,,,,,,,,,,,,,,,,,,,,,,,,,,,,,,,,,,,,,,,,,,,,,,,,,,,,,,,,,,,,,,,,,,,,,,,,840.8578,845.8521
