counterbalance_lists.group,counterbalance_lists.remaining,get_list.started,get_list.stopped,participant,session,date,expName,psychopyVersion,OS,frameRate,Instructions.started,Instructions.stopped,key_resp.keys,instr_done_touch.x,instr_done_touch.y,instr_done_touch.leftButton,instr_done_touch.midButton,instr_done_touch.rightButton,instr_done_touch.clicked_name,start_instr.thisRepN,start_instr.thisTrialN,start_instr.thisN,start_instr.thisIndex,start_instr.ran,pageN,phase,instruct_text,has_image,instruct_image,showProgress.started,showProgress.stopped,fix.started,fix.stopped,prac.started,prac.stopped,response.keys,response.corr,response.rt,response.duration,touch_resp.x,touch_resp.y,touch_resp.leftButton,touch_resp.midButton,touch_resp.rightButton,touch_resp.time,touch_resp.clicked_name,rt,corr,feedback.started,feedback.stopped,trials.thisRepN,trials.thisTrialN,trials.thisN,trials.thisIndex,trials.ran,TrialID,StimulusType,Condition,PrimeDuration,Prime,Target,corrAns,Instructions_expt.started,Instructions_expt.stopped,key_resp_3.keys,instr_done_touch_3.x,instr_done_touch_3.y,instr_done_touch_3.leftButton,instr_done_touch_3.midButton,instr_done_touch_3.rightButton,instr_done_touch_3.clicked_name,instr_experiment.thisRepN,instr_experiment.thisTrialN,instr_experiment.thisN,instr_experiment.thisIndex,instr_experiment.ran,trialID,flag,maintask.started,maintask.stopped,key_resp_2.keys,key_resp_2.corr,key_resp_2.rt,key_resp_2.duration,targ_click.x,targ_click.y,targ_click.leftButton,targ_click.midButton,targ_click.rightButton,targ_click.time,targ_click.clicked_name,ITI.started,ITI.stopped,probe.started,probe.stopped,click_probe.x,click_probe.y,click_probe.leftButton,click_probe.midButton,click_probe.rightButton,click_probe.time,click_probe.clicked_name,key_resp_probe.keys,Break.started,Break.stopped,break_done_touch.x,break_done_touch.y,break_done_touch.leftButton,break_done_touch.midButton,break_done_touch.rightButton,break_done_keyboard.keys,list1_trials.thisRepN,list1_trials.thisTrialN,list1_trials.thisN,list1_trials.thisIndex,list1_trials.ran,list_id,item_type,string,font,stim_file,key_resp_probe.rt,key_resp_probe.duration,break_done_touch.clicked_name,End.started,End.stopped
list1,,0.4782,0.4782,31919,001,2025-11-22_16h57.39.174,HW_LDT_1,2024.2.4,MacIntel,60.24096386,,,,,,,,,,,,,,,,,,,,,,,,,,,,,,,,,,,,,,,,,,,,,,,,,,,,,,,,,,,,,,,,,,,,,,,,,,,,,,,,,,,,,,,,,,,,,,,,,,,,,,,,,,,,,,,,,,,,
,,,,31919,001,2025-11-22_16h57.39.174,HW_LDT_1,2024.2.4,MacIntel,60.24096386,0.4956,29.2903,,0.000905366,-0.412647069,1,0,0,instr_done_button,0,0,0,0,1,1,instructions,"INSTRUCTIONS
At the start of each trial, look at the plus sign  (+) in the center of the screen.  This tells you that a trial is about to begin and where to look. Second, the plus sign will disappear and a string of letters will appear. Your task is to determine if the string of letters is a word or not. If the item is a word press the M key (on keyboard)  or touch the word button (phone/tablet).  If the item is not a word,  press the  Z key (on keyboard)  or touch the nonword button (on phone/tablet). The items will be presented for a short time. 
Press the space bar or touch  continue.",0,,,,,,,,,,,,,,,,,,,,,,,,,,,,,,,,,,,,,,,,,,,,,,,,,,,,,,,,,,,,,,,,,,,,,,,,,,,,,,,,,,,,,,,,,,,,,,,,,,
,,,,31919,001,2025-11-22_16h57.39.174,HW_LDT_1,2024.2.4,MacIntel,60.24096386,29.2921,36.1239,,0.000905366,-0.412647069,1,0,0,instr_done_button,0,1,1,1,1,2,instructions,"If your device has a keyboard, press the 'Z' key for nonwords and the 'M' key for words.





Press the space bar or touch the button below to continue.",0,keyboard-example.gif,,,,,,,,,,,,,,,,,,,,,,,,,,,,,,,,,,,,,,,,,,,,,,,,,,,,,,,,,,,,,,,,,,,,,,,,,,,,,,,,,,,,,,,,,,,,,,,,,
,,,,31919,001,2025-11-22_16h57.39.174,HW_LDT_1,2024.2.4,MacIntel,60.24096386,36.1254,39.4729,,0.000905366,-0.412647069,1,0,0,instr_done_button,0,2,2,2,1,3,instructions,"If you are using a touchscreen only device, use the buttons on the screen. Do not use the mouse.





Press the space bar or touch the button below to continue.",0,touchscreen-example.gif,,,,,,,,,,,,,,,,,,,,,,,,,,,,,,,,,,,,,,,,,,,,,,,,,,,,,,,,,,,,,,,,,,,,,,,,,,,,,,,,,,,,,,,,,,,,,,,,,
,,,,31919,001,2025-11-22_16h57.39.174,HW_LDT_1,2024.2.4,MacIntel,60.24096386,39.4754,49.9395,,0.007863507,-0.408779074,1,0,0,instr_done_button,0,3,3,3,1,4,instructions,"It is very important that you respond as quickly and accurately as possible, as each letter string will only be on the screen for two seconds. If you do not respond within this time, the message 'Too slow!' will be displayed and the experiment will progress to the next letter string. The first 20 trials will be practice trials and you will receive feedback on your answers. 

Press the space bar or touch the button below to start the practice trials.",0,,,,,,,,,,,,,,,,,,,,,,,,,,,,,,,,,,,,,,,,,,,,,,,,,,,,,,,,,,,,,,,,,,,,,,,,,,,,,,,,,,,,,,,,,,,,,,,,,,
,,,,31919,001,2025-11-22_16h57.39.174,HW_LDT_1,2024.2.4,MacIntel,60.24096386,,,,,,,,,,,,,,,,,,,,49.9622,50.1402,50.1405,50.6398,50.6402,51.8576,m,1,1.1876,,[],[],[],[],[],[],[],1.1876,1,51.8582,52.3573,0,0,0,1,1,1002,WORD,"ID",33,adjust,ADJUST,m,,,,,,,,,,,,,,,,,,,,,,,,,,,,,,,,,,,,,,,,,,,,,,,,,,,,,,,,,,,,,,,,
,,,,31919,001,2025-11-22_16h57.39.174,HW_LDT_1,2024.2.4,MacIntel,60.24096386,,,,,,,,,,,,,,,,,,,,52.3585,52.557,52.557,53.0569,53.0582,53.8903,m,1,0.8027,,[],[],[],[],[],[],[],0.8027,1,53.8905,54.3893,0,1,1,7,1,1008,WORD,UN,16,hurdle,VOLUME,m,,,,,,,,,,,,,,,,,,,,,,,,,,,,,,,,,,,,,,,,,,,,,,,,,,,,,,,,,,,,,,,,
,,,,31919,001,2025-11-22_16h57.39.174,HW_LDT_1,2024.2.4,MacIntel,60.24096386,,,,,,,,,,,,,,,,,,,,54.3909,54.5902,54.5902,55.0899,55.0905,56.1897,z,1,1.0857,,[],[],[],[],[],[],[],1.0857,1,56.1899,56.6902,0,2,2,10,1,1011,NW,"ID",16,inlade,INLADE,z,,,,,,,,,,,,,,,,,,,,,,,,,,,,,,,,,,,,,,,,,,,,,,,,,,,,,,,,,,,,,,,,
,,,,31919,001,2025-11-22_16h57.39.174,HW_LDT_1,2024.2.4,MacIntel,60.24096386,,,,,,,,,,,,,,,,,,,,56.6919,56.8893,56.8893,57.3901,57.3913,58.1402,m,1,0.7242,,[],[],[],[],[],[],[],0.7242,1,58.1404,58.6393,0,3,3,6,1,1007,WORD,UN,16,tropic,ZOMBIE,m,,,,,,,,,,,,,,,,,,,,,,,,,,,,,,,,,,,,,,,,,,,,,,,,,,,,,,,,,,,,,,,,
,,,,31919,001,2025-11-22_16h57.39.174,HW_LDT_1,2024.2.4,MacIntel,60.24096386,,,,,,,,,,,,,,,,,,,,58.6409,58.8401,58.8403,59.3401,59.3412,60.2401,m,1,0.8769,,[],[],[],[],[],[],[],0.8769,1,60.2403,60.7403,0,4,4,4,1,1005,WORD,UN,33,abound,SQUEAK,m,,,,,,,,,,,,,,,,,,,,,,,,,,,,,,,,,,,,,,,,,,,,,,,,,,,,,,,,,,,,,,,,
,,,,31919,001,2025-11-22_16h57.39.174,HW_LDT_1,2024.2.4,MacIntel,60.24096386,,,,,,,,,,,,,,,,,,,,60.7419,60.94,60.9401,61.44,61.4415,62.19,m,1,0.7232,,[],[],[],[],[],[],[],0.7232,1,62.1903,62.6902,0,5,5,0,1,1001,WORD,"ID",33,utopia,UTOPIA,m,,,,,,,,,,,,,,,,,,,,,,,,,,,,,,,,,,,,,,,,,,,,,,,,,,,,,,,,,,,,,,,,
,,,,31919,001,2025-11-22_16h57.39.174,HW_LDT_1,2024.2.4,MacIntel,60.24096386,,,,,,,,,,,,,,,,,,,,62.6919,62.8902,62.8903,63.3902,63.3914,64.2227,z,1,0.8058,,[],[],[],[],[],[],[],0.8058,1,64.2229,64.7235,0,6,6,14,1,1015,NW,UN,16,miaber,THRALE,z,,,,,,,,,,,,,,,,,,,,,,,,,,,,,,,,,,,,,,,,,,,,,,,,,,,,,,,,,,,,,,,,
,,,,31919,001,2025-11-22_16h57.39.174,HW_LDT_1,2024.2.4,MacIntel,60.24096386,,,,,,,,,,,,,,,,,,,,64.7252,64.9235,64.9235,65.4234,65.4245,66.1239,z,1,0.6886,,[],[],[],[],[],[],[],0.6886,1,66.1239,66.6236,0,7,7,13,1,1014,NW,UN,33,winfer,ROUPET,z,,,,,,,,,,,,,,,,,,,,,,,,,,,,,,,,,,,,,,,,,,,,,,,,,,,,,,,,,,,,,,,,
,,,,31919,001,2025-11-22_16h57.39.174,HW_LDT_1,2024.2.4,MacIntel,60.24096386,,,,,,,,,,,,,,,,,,,,66.6251,66.8234,66.8235,67.3235,67.3247,68.1735,m,1,0.8222,,[],[],[],[],[],[],[],0.8222,1,68.1737,68.6734,0,8,8,5,1,1006,WORD,UN,33,frenzy,OBTAIN,m,,,,,,,,,,,,,,,,,,,,,,,,,,,,,,,,,,,,,,,,,,,,,,,,,,,,,,,,,,,,,,,,
,,,,31919,001,2025-11-22_16h57.39.174,HW_LDT_1,2024.2.4,MacIntel,60.24096386,,,,,,,,,,,,,,,,,,,,68.675,68.8734,68.8735,69.3729,69.374,70.3402,m,1,0.9436,,[],[],[],[],[],[],[],0.9436,1,70.3403,70.8393,0,9,9,2,1,1003,WORD,"ID",16,almond,ALMOND,m,,,,,,,,,,,,,,,,,,,,,,,,,,,,,,,,,,,,,,,,,,,,,,,,,,,,,,,,,,,,,,,,
,,,,31919,001,2025-11-22_16h57.39.174,HW_LDT_1,2024.2.4,MacIntel,60.24096386,,,,,,,,,,,,,,,,,,,,70.841,71.0401,71.0401,71.5401,71.5412,72.4398,z,1,0.8773,,[],[],[],[],[],[],[],0.8773,1,72.4399,72.9403,0,10,10,12,1,1013,NW,UN,33,adveil,SPRINY,z,,,,,,,,,,,,,,,,,,,,,,,,,,,,,,,,,,,,,,,,,,,,,,,,,,,,,,,,,,,,,,,,
,,,,31919,001,2025-11-22_16h57.39.174,HW_LDT_1,2024.2.4,MacIntel,60.24096386,,,,,,,,,,,,,,,,,,,,72.942,73.1402,73.1402,73.6391,73.6405,74.4235,m,1,0.7561,,[],[],[],[],[],[],[],0.7561,1,74.4236,74.9234,0,11,11,3,1,1004,WORD,"ID",16,matrix,MATRIX,m,,,,,,,,,,,,,,,,,,,,,,,,,,,,,,,,,,,,,,,,,,,,,,,,,,,,,,,,,,,,,,,,
,,,,31919,001,2025-11-22_16h57.39.174,HW_LDT_1,2024.2.4,MacIntel,60.24096386,,,,,,,,,,,,,,,,,,,,74.9252,75.1232,75.1233,75.6234,75.6246,76.5234,z,1,0.8764,,[],[],[],[],[],[],[],0.8764,1,76.5236,77.0235,0,12,12,8,1,1009,NW,"ID",33,aslert,ASLERT,z,,,,,,,,,,,,,,,,,,,,,,,,,,,,,,,,,,,,,,,,,,,,,,,,,,,,,,,,,,,,,,,,
,,,,31919,001,2025-11-22_16h57.39.174,HW_LDT_1,2024.2.4,MacIntel,60.24096386,,,,,,,,,,,,,,,,,,,,77.0252,77.2234,77.2234,77.7234,77.7243,78.7893,z,1,1.0428,,[],[],[],[],[],[],[],1.0428,1,78.7894,79.2897,0,13,13,11,1,1012,NW,"ID",16,rashet,RASHET,z,,,,,,,,,,,,,,,,,,,,,,,,,,,,,,,,,,,,,,,,,,,,,,,,,,,,,,,,,,,,,,,,
,,,,31919,001,2025-11-22_16h57.39.174,HW_LDT_1,2024.2.4,MacIntel,60.24096386,,,,,,,,,,,,,,,,,,,,79.2905,79.4891,79.4892,79.9901,79.9911,80.9555,z,1,0.9406,,[],[],[],[],[],[],[],0.9406,1,80.9556,81.4557,0,14,14,15,1,1016,NW,UN,16,mushed,WHAISE,z,,,,,,,,,,,,,,,,,,,,,,,,,,,,,,,,,,,,,,,,,,,,,,,,,,,,,,,,,,,,,,,,
,,,,31919,001,2025-11-22_16h57.39.174,HW_LDT_1,2024.2.4,MacIntel,60.24096386,,,,,,,,,,,,,,,,,,,,81.4572,81.6562,81.6563,82.1557,82.1569,82.9735,z,1,0.7949,,[],[],[],[],[],[],[],0.7949,1,82.9736,83.4735,0,15,15,9,1,1010,NW,"ID",33,fariny,FARINY,z,,,,,,,,,,,,,,,,,,,,,,,,,,,,,,,,,,,,,,,,,,,,,,,,,,,,,,,,,,,,,,,,
,,,,31919,001,2025-11-22_16h57.39.174,HW_LDT_1,2024.2.4,MacIntel,60.24096386,,,,,,,,,,,,,,,1,end_of_practice,"You have completed the practice trials. During the experimental trials, you will not receive feedback. On some trials you will be asked to report whether the item you just saw was in cursive or print. 
Before you begin, please ensure that you are in a comfortable and quiet location and will not be disturbed for about 15 minutes, as we cannot use your data if you do not complete all the trials. 
 When you are ready to start the experimental trials, please press space or touch the button below.",,,,,,,,,,,,,,,,,,,,,,,,,,,,,,,,,,,,83.4812,97.524,,0.007349191,-0.408519791,1,0,0,instr_done_button_3,0,0,0,0,1,,,,,,,,,,,,,,,,,,,,,,,,,,,,,,,,,,,,,,,,,,,,,,,,,,
,,,,31919,001,2025-11-22_16h57.39.174,HW_LDT_1,2024.2.4,MacIntel,60.24096386,,,,,,,,,,,,,,,,,,,,97.5322,97.7231,97.7231,98.2232,,,,,,,,,,,,,,1.4356,1,,,,,,,,,,,,,,m,,,,,,,,,,,,,,,1,0,98.2255,99.6739,m,1,1.4356,,[],[],[],[],[],[],[],99.6744,101.6736,101.674,101.6778,[],[],[],[],[],[],[],,101.678,101.6803,0.007349191,-0.408519791,0,0,0,,0,0,0,98,1,1,word,CRIMINAL,print,criminal_p.png,,,,,
,,,,31919,001,2025-11-22_16h57.39.174,HW_LDT_1,2024.2.4,MacIntel,60.24096386,,,,,,,,,,,,,,,,,,,,101.6816,101.8733,101.8734,102.3733,,,,,,,,,,,,,,2.3803,0,,,,,,,,,,,,,,m,,,,,,,,,,,,,,,2,0,102.3743,104.7568,z,0,2.3803,,[],[],[],[],[],[],[],104.7569,106.7567,106.7567,106.7571,[],[],[],[],[],[],[],,106.7571,106.7572,0.007349191,-0.408519791,0,0,0,,0,1,1,143,1,1,word,REMOVAL,cursive,removal_c.png,,,,,
,,,,31919,001,2025-11-22_16h57.39.174,HW_LDT_1,2024.2.4,MacIntel,60.24096386,,,,,,,,,,,,,,,,,,,,106.7583,106.9568,106.9568,107.4566,,,,,,,,,,,,,,3.2712,1,,,,,,,,,,,,,,z,,,,,,,,,,,,,,,3,0,107.4573,110.7401,z,1,3.2712,,[],[],[],[],[],[],[],110.7402,112.7395,112.7396,112.74,[],[],[],[],[],[],[],,112.7402,112.7403,0.007349191,-0.408519791,0,0,0,,0,2,2,54,1,1,TL,distupe,cursive,distupe_c.png,,,,,
,,,,31919,001,2025-11-22_16h57.39.174,HW_LDT_1,2024.2.4,MacIntel,60.24096386,,,,,,,,,,,,,,,,,,,,112.7416,112.94,112.94,113.4397,,,,,,,,,,,,,,1.8879,1,,,,,,,,,,,,,,z,,,,,,,,,,,,,,,4,0,113.4404,115.34,z,1,1.8879,,[],[],[],[],[],[],[],115.3401,117.34,117.34,117.3404,[],[],[],[],[],[],[],,117.3404,117.3406,0.007349191,-0.408519791,0,0,0,,0,3,3,53,1,1,TL,dentisy,cursive,dentisy_c.png,,,,,
,,,,31919,001,2025-11-22_16h57.39.174,HW_LDT_1,2024.2.4,MacIntel,60.24096386,,,,,,,,,,,,,,,,,,,,117.3418,117.54,117.5401,118.0401,,,,,,,,,,,,,,0.921,1,,,,,,,,,,,,,,m,,,,,,,,,,,,,,,5,0,118.0409,118.9733,m,1,0.921,,[],[],[],[],[],[],[],118.9734,120.9732,120.9732,120.9736,[],[],[],[],[],[],[],,120.9736,120.9737,0.007349191,-0.408519791,0,0,0,,0,4,4,121,1,1,word,MISTAKE,print,mistake_p.png,,,,,
,,,,31919,001,2025-11-22_16h57.39.174,HW_LDT_1,2024.2.4,MacIntel,60.24096386,,,,,,,,,,,,,,,,,,,,120.975,121.1733,121.1733,121.6734,,,,,,,,,,,,,,1.471,1,,,,,,,,,,,,,,m,,,,,,,,,,,,,,,6,0,121.6742,123.1566,m,1,1.471,,[],[],[],[],[],[],[],123.1568,125.1566,125.1567,125.1572,[],[],[],[],[],[],[],,125.1572,125.1574,0.007349191,-0.408519791,0,0,0,,0,5,5,104,1,1,word,DOMINANT,cursive,dominant_c.png,,,,,
,,,,31919,001,2025-11-22_16h57.39.174,HW_LDT_1,2024.2.4,MacIntel,60.24096386,,,,,,,,,,,,,,,,,,,,125.1588,125.3565,125.3566,125.8565,,,,,,,,,,,,,,0.8716,1,,,,,,,,,,,,,,z,,,,,,,,,,,,,,,7,0,125.857,126.7399,z,1,0.8716,,[],[],[],[],[],[],[],126.74,128.7399,128.7401,128.7404,[],[],[],[],[],[],[],,128.7405,128.7407,0.007349191,-0.408519791,0,0,0,,0,6,6,30,1,1,RL,relone,print,relone_p.png,,,,,
,,,,31919,001,2025-11-22_16h57.39.174,HW_LDT_1,2024.2.4,MacIntel,60.24096386,,,,,,,,,,,,,,,,,,,,128.742,128.94,128.94,129.4399,,,,,,,,,,,,,,2.6042,1,,,,,,,,,,,,,,z,,,,,,,,,,,,,,,8,0,129.4407,132.0565,z,1,2.6042,,[],[],[],[],[],[],[],132.0566,134.0562,134.0564,134.0566,[],[],[],[],[],[],[],,134.0566,134.0567,0.007349191,-0.408519791,0,0,0,,0,7,7,49,1,1,TL,clicinal,cursive,clicinal_c.png,,,,,
,,,,31919,001,2025-11-22_16h57.39.174,HW_LDT_1,2024.2.4,MacIntel,60.24096386,,,,,,,,,,,,,,,,,,,,134.0577,134.2566,134.2566,134.7566,,,,,,,,,,,,,,1.8541,1,,,,,,,,,,,,,,m,,,,,,,,,,,,,,,9,0,134.7576,136.6227,m,1,1.8541,,[],[],[],[],[],[],[],136.6228,138.6232,138.6232,138.6237,[],[],[],[],[],[],[],,138.6238,138.6239,0.007349191,-0.408519791,0,0,0,,0,8,8,127,1,1,word,ORIGINAL,cursive,original_c.png,,,,,
,,,,31919,001,2025-11-22_16h57.39.174,HW_LDT_1,2024.2.4,MacIntel,60.24096386,,,,,,,,,,,,,,,,,,,,138.6252,138.8232,138.8232,139.3232,,,,,,,,,,,,,,1.0541,1,,,,,,,,,,,,,,z,,,,,,,,,,,,,,,10,0,139.324,140.3898,z,1,1.0541,,[],[],[],[],[],[],[],140.3899,142.39,142.39,142.3904,[],[],[],[],[],[],[],,142.3904,142.3906,0.007349191,-0.408519791,0,0,0,,0,9,9,37,1,1,RL,skofen,print,skofen_p.png,,,,,
,,,,31919,001,2025-11-22_16h57.39.174,HW_LDT_1,2024.2.4,MacIntel,60.24096386,,,,,,,,,,,,,,,,,,,,142.392,142.5898,142.5899,143.0898,,,,,,,,,,,,,,1.3712,1,,,,,,,,,,,,,,m,,,,,,,,,,,,,,,11,0,143.0905,144.4732,m,1,1.3712,,[],[],[],[],[],[],[],144.4733,146.4732,146.4732,146.4735,[],[],[],[],[],[],[],,146.4736,146.474,0.007349191,-0.408519791,0,0,0,,0,10,10,96,1,1,word,CONSIDER,cursive,consider_c.png,,,,,
,,,,31919,001,2025-11-22_16h57.39.174,HW_LDT_1,2024.2.4,MacIntel,60.24096386,,,,,,,,,,,,,,,,,,,,146.4752,146.6721,146.6721,147.1731,,,,,,,,,,,,,,1.1725,1,,,,,,,,,,,,,,m,,,,,,,,,,,,,,,12,0,147.1737,148.3562,m,1,1.1725,,[],[],[],[],[],[],[],148.3564,150.3565,150.3565,150.3567,[],[],[],[],[],[],[],,150.3567,150.3568,0.007349191,-0.408519791,0,0,0,,0,11,11,86,1,1,word,BESIDE,print,beside_p.png,,,,,
,,,,31919,001,2025-11-22_16h57.39.174,HW_LDT_1,2024.2.4,MacIntel,60.24096386,,,,,,,,,,,,,,,,,,,,150.3581,150.5565,150.5566,151.0564,,,,,,,,,,,,,,0.8716,1,,,,,,,,,,,,,,m,,,,,,,,,,,,,,,13,0,151.0572,151.9399,m,1,0.8716,,[],[],[],[],[],[],[],151.9399,153.9398,153.9398,153.9401,[],[],[],[],[],[],[],,153.9402,153.9404,0.007349191,-0.408519791,0,0,0,,0,12,12,91,1,1,word,CARDINAL,print,cardinal_p.png,,,,,
,,,,31919,001,2025-11-22_16h57.39.174,HW_LDT_1,2024.2.4,MacIntel,60.24096386,,,,,,,,,,,,,,,,,,,,153.9417,154.14,154.14,154.6398,,,,,,,,,,,,,,1.3567,1,,,,,,,,,,,,,,z,,,,,,,,,,,,,,,14,0,154.6408,156.0065,z,1,1.3567,,[],[],[],[],[],[],[],156.0065,158.0066,158.0067,158.007,[],[],[],[],[],[],[],,158.0071,158.0073,0.007349191,-0.408519791,0,0,0,,0,13,13,45,1,1,TL,cacapity,print,cacapity_p.png,,,,,
,,,,31919,001,2025-11-22_16h57.39.174,HW_LDT_1,2024.2.4,MacIntel,60.24096386,,,,,,,,,,,,,,,,,,,,158.0089,158.2064,158.2065,158.7064,,,,,,,,,,,,,,4.04,1,,,,,,,,,,,,,,m,,,,,,,,,,,,,,,15,0,158.7071,162.7565,m,1,4.04,,[],[],[],[],[],[],[],162.7566,164.7563,164.7563,164.7565,[],[],[],[],[],[],[],,164.7566,164.7568,0.007349191,-0.408519791,0,0,0,,0,14,14,134,1,1,word,QUALIFY,cursive,qualify_c.png,,,,,
,,,,31919,001,2025-11-22_16h57.39.174,HW_LDT_1,2024.2.4,MacIntel,60.24096386,,,,,,,,,,,,,,,,,,,,164.7581,164.9564,164.9565,165.456,,,,,,,,,,,,,,0.671,1,,,,,,,,,,,,,,z,,,,,,,,,,,,,,,16,0,165.4567,166.1395,z,1,0.671,,[],[],[],[],[],[],[],166.1395,168.1396,168.1397,168.1399,[],[],[],[],[],[],[],,168.1399,168.14,0.007349191,-0.408519791,0,0,0,,0,15,15,14,1,1,RL,lofase,print,lofase_p.png,,,,,
,,,,31919,001,2025-11-22_16h57.39.174,HW_LDT_1,2024.2.4,MacIntel,60.24096386,,,,,,,,,,,,,,,,,,,,168.1417,168.3396,168.3397,168.8396,,,,,,,,,,,,,,0.6376,1,,,,,,,,,,,,,,m,,,,,,,,,,,,,,,17,1,168.8401,169.4898,m,1,0.6376,,[],[],[],[],[],[],[],169.4898,171.4895,171.4896,176.6888,[],[],[],[],[],[],[],m,176.6889,176.689,0.007349191,-0.408519791,0,0,0,,0,16,16,84,1,1,word,BELOVED,print,beloved_p.png,5.1925,,,,
,,,,31919,001,2025-11-22_16h57.39.174,HW_LDT_1,2024.2.4,MacIntel,60.24096386,,,,,,,,,,,,,,,,,,,,176.6896,176.8893,176.8893,177.3898,,,,,,,,,,,,,,4.3044,1,,,,,,,,,,,,,,z,,,,,,,,,,,,,,,18,0,177.3907,181.706,z,1,4.3044,,[],[],[],[],[],[],[],181.7062,183.7063,183.7064,183.7067,[],[],[],[],[],[],[],,183.7068,183.707,0.007349191,-0.408519791,0,0,0,,0,17,17,26,1,1,RL,quafidy,cursive,quafidy_c.png,,,,,
,,,,31919,001,2025-11-22_16h57.39.174,HW_LDT_1,2024.2.4,MacIntel,60.24096386,,,,,,,,,,,,,,,,,,,,183.7086,183.9062,183.9063,184.4063,,,,,,,,,,,,,,4.8553,1,,,,,,,,,,,,,,z,,,,,,,,,,,,,,,19,0,184.407,189.2732,z,1,4.8553,,[],[],[],[],[],[],[],189.2733,191.2729,191.2729,191.2732,[],[],[],[],[],[],[],,191.2733,191.2736,0.007349191,-0.408519791,0,0,0,,0,18,18,57,1,1,TL,hetirage,cursive,hetirage_c.png,,,,,
,,,,31919,001,2025-11-22_16h57.39.174,HW_LDT_1,2024.2.4,MacIntel,60.24096386,,,,,,,,,,,,,,,,,,,,191.275,191.4726,191.4726,191.9729,,,,,,,,,,,,,,3.3293,1,,,,,,,,,,,,,,z,,,,,,,,,,,,,,,20,0,191.9736,195.3074,z,1,3.3293,,[],[],[],[],[],[],[],195.311,197.3063,197.3064,197.3068,[],[],[],[],[],[],[],,197.3069,197.3071,0.007349191,-0.408519791,0,0,0,,0,19,19,9,1,1,RL,docirant,cursive,docirant_c.png,,,,,
,,,,31919,001,2025-11-22_16h57.39.174,HW_LDT_1,2024.2.4,MacIntel,60.24096386,,,,,,,,,,,,,,,,,,,,197.3101,197.5062,197.5062,198.0064,,,,,,,,,,,,,,1.4944,1,,,,,,,,,,,,,,m,,,,,,,,,,,,,,,21,0,198.0074,199.5062,m,1,1.4944,,[],[],[],[],[],[],[],199.5063,201.5063,201.5064,201.5065,[],[],[],[],[],[],[],,201.5066,201.5068,0.007349191,-0.408519791,0,0,0,,0,20,20,118,1,1,word,MEDICINE,cursive,medicine_c.png,,,,,
,,,,31919,001,2025-11-22_16h57.39.174,HW_LDT_1,2024.2.4,MacIntel,60.24096386,,,,,,,,,,,,,,,,,,,,201.5084,201.7063,201.7063,202.2062,,,,,,,,,,,,,,2.032,1,,,,,,,,,,,,,,m,,,,,,,,,,,,,,,22,0,202.2071,204.24,m,1,2.032,,[],[],[],[],[],[],[],204.2401,206.2395,206.2395,206.2397,[],[],[],[],[],[],[],,206.2397,206.2399,0.007349191,-0.408519791,0,0,0,,0,21,21,128,1,1,word,PACIFIC,print,pacific_p.png,,,,,
,,,,31919,001,2025-11-22_16h57.39.174,HW_LDT_1,2024.2.4,MacIntel,60.24096386,,,,,,,,,,,,,,,,,,,,206.2409,206.4395,206.4395,206.9396,,,,,,,,,,,,,,0.8211,1,,,,,,,,,,,,,,m,,,,,,,,,,,,,,,23,1,206.9401,207.773,m,1,0.8211,,[],[],[],[],[],[],[],207.773,209.7729,209.7729,213.2717,[],[],[],[],[],[],[],m,213.2718,213.2718,0.007349191,-0.408519791,0,0,0,,0,22,22,126,1,1,word,OPTIMAL,print,optimal_p.png,3.4976,,,,
,,,,31919,001,2025-11-22_16h57.39.174,HW_LDT_1,2024.2.4,MacIntel,60.24096386,,,,,,,,,,,,,,,,,,,,213.273,213.4718,213.4719,213.9728,,,,,,,,,,,,,,4.307,0,,,,,,,,,,,,,,m,,,,,,,,,,,,,,,24,0,213.9735,218.2886,z,0,4.307,,[],[],[],[],[],[],[],218.2888,220.2885,220.2885,220.2887,[],[],[],[],[],[],[],,220.2887,220.289,0.007349191,-0.408519791,0,0,0,,0,23,23,125,1,1,word,OPERATOR,cursive,operator_c.png,,,,,
,,,,31919,001,2025-11-22_16h57.39.174,HW_LDT_1,2024.2.4,MacIntel,60.24096386,,,,,,,,,,,,,,,,,,,,220.2905,220.4895,220.4896,220.9895,,,,,,,,,,,,,,2.6044,1,,,,,,,,,,,,,,z,,,,,,,,,,,,,,,25,0,220.9902,223.6053,z,1,2.6044,,[],[],[],[],[],[],[],223.6054,225.6058,225.6058,225.606,[],[],[],[],[],[],[],,225.6061,225.6062,0.007349191,-0.408519791,0,0,0,,0,24,24,31,1,1,RL,reconal,cursive,reconal_c.png,,,,,
,,,,31919,001,2025-11-22_16h57.39.174,HW_LDT_1,2024.2.4,MacIntel,60.24096386,,,,,,,,,,,,,,,,,,,,225.6074,225.8062,225.8063,226.3051,,,,,,,,,,,,,,2.3891,1,,,,,,,,,,,,,,z,,,,,,,,,,,,,,,26,0,226.3059,228.7062,z,1,2.3891,,[],[],[],[],[],[],[],228.7063,230.7061,230.7061,230.7063,[],[],[],[],[],[],[],,230.7063,230.7064,0.007349191,-0.408519791,0,0,0,,0,25,25,75,1,1,TL,speficic,cursive,speficic_c.png,,,,,
,,,,31919,001,2025-11-22_16h57.39.174,HW_LDT_1,2024.2.4,MacIntel,60.24096386,,,,,,,,,,,,,,,,,,,,230.7077,230.9053,230.9054,231.406,,,,,,,,,,,,,,2.8928,1,,,,,,,,,,,,,,m,,,,,,,,,,,,,,,27,0,231.4068,234.3057,m,1,2.8928,,[],[],[],[],[],[],[],234.3057,236.3146,236.3149,236.3154,[],[],[],[],[],[],[],,236.3155,236.3157,0.007349191,-0.408519791,0,0,0,,0,26,26,154,1,1,word,STORAGE,cursive,storage_c.png,,,,,
,,,,31919,001,2025-11-22_16h57.39.174,HW_LDT_1,2024.2.4,MacIntel,60.24096386,,,,,,,,,,,,,,,,,,,,236.3187,236.506,236.506,237.0062,,,,,,,,,,,,,,3.4545,1,,,,,,,,,,,,,,z,,,,,,,,,,,,,,,28,0,237.0071,240.4728,z,1,3.4545,,[],[],[],[],[],[],[],240.4729,242.4728,242.4728,242.4732,[],[],[],[],[],[],[],,242.4732,242.4734,0.007349191,-0.408519791,0,0,0,,0,27,27,38,1,1,RL,stopave,cursive,stopave_c.png,,,,,
,,,,31919,001,2025-11-22_16h57.39.174,HW_LDT_1,2024.2.4,MacIntel,60.24096386,,,,,,,,,,,,,,,,,,,,242.4748,242.6718,242.6719,243.1719,,,,,,,,,,,,,,0.8715,1,,,,,,,,,,,,,,m,,,,,,,,,,,,,,,29,1,243.1723,244.0562,m,1,0.8715,,[],[],[],[],[],[],[],244.0563,246.0561,246.0563,247.1061,[],[],[],[],[],[],[],m,247.1061,247.1063,0.007349191,-0.408519791,0,0,0,,0,28,28,97,1,1,word,COVERAGE,print,coverage_p.png,1.0377,,,,
,,,,31919,001,2025-11-22_16h57.39.174,HW_LDT_1,2024.2.4,MacIntel,60.24096386,,,,,,,,,,,,,,,,,,,,247.1073,247.305,247.3051,247.805,,,,,,,,,,,,,,3.3499,1,,,,,,,,,,,,,,z,,,,,,,,,,,,,,,30,0,247.8057,251.1567,z,1,3.3499,,[],[],[],[],[],[],[],251.157,253.156,253.1565,253.1569,[],[],[],[],[],[],[],,253.157,253.1572,0.007349191,-0.408519791,0,0,0,,0,29,29,5,1,1,RL,cobeny,cursive,cobeny_c.png,,,,,
,,,,31919,001,2025-11-22_16h57.39.174,HW_LDT_1,2024.2.4,MacIntel,60.24096386,,,,,,,,,,,,,,,,,,,,253.16,253.3559,253.356,253.856,,,,,,,,,,,,,,1.1709,1,,,,,,,,,,,,,,m,,,,,,,,,,,,,,,31,1,253.857,255.0384,m,1,1.1709,,[],[],[],[],[],[],[],255.0384,257.0386,257.0387,258.6561,[],[],[],[],[],[],[],z,258.6561,258.6563,0.007349191,-0.408519791,0,0,0,,0,30,30,115,1,1,word,LOGICAL,cursive,logical_c.png,1.6064,,,,
,,,,31919,001,2025-11-22_16h57.39.174,HW_LDT_1,2024.2.4,MacIntel,60.24096386,,,,,,,,,,,,,,,,,,,,258.658,258.856,258.8561,259.3551,,,,,,,,,,,,,,1.5729,1,,,,,,,,,,,,,,z,,,,,,,,,,,,,,,32,0,259.3557,260.9393,z,1,1.5729,,[],[],[],[],[],[],[],260.9395,262.9393,262.9394,262.9396,[],[],[],[],[],[],[],,262.9397,262.9399,0.007349191,-0.408519791,0,0,0,,0,31,31,24,1,1,RL,probice,print,probice_p.png,,,,,
,,,,31919,001,2025-11-22_16h57.39.174,HW_LDT_1,2024.2.4,MacIntel,60.24096386,,,,,,,,,,,,,,,,,,,,262.9413,263.1394,263.1395,263.6382,,,,,,,,,,,,,,0.9667,1,,,,,,,,,,,,,,m,,,,,,,,,,,,,,,33,0,263.6386,264.6061,m,1,0.9667,,[],[],[],[],[],[],[],264.6061,266.606,266.6061,266.6063,[],[],[],[],[],[],[],,266.6064,266.6066,0.007349191,-0.408519791,0,0,0,,0,32,32,82,1,1,word,AMATEUR,print,amateur_p.png,,,,,
,,,,31919,001,2025-11-22_16h57.39.174,HW_LDT_1,2024.2.4,MacIntel,60.24096386,,,,,,,,,,,,,,,,,,,,266.608,266.8049,266.8049,267.3059,,,,,,,,,,,,,,1.4382,1,,,,,,,,,,,,,,m,,,,,,,,,,,,,,,34,1,267.3066,268.756,m,1,1.4382,,[],[],[],[],[],[],[],268.7561,270.7561,270.7562,272.6558,[],[],[],[],[],[],[],m,272.6559,272.656,0.007349191,-0.408519791,0,0,0,,0,33,33,83,1,1,word,ANIMAL,print,animal_p.png,1.8888,,,,
,,,,31919,001,2025-11-22_16h57.39.174,HW_LDT_1,2024.2.4,MacIntel,60.24096386,,,,,,,,,,,,,,,,,,,,272.657,272.8559,272.856,273.3559,,,,,,,,,,,,,,1.313,1,,,,,,,,,,,,,,m,,,,,,,,,,,,,,,35,0,273.3566,274.6717,m,1,1.313,,[],[],[],[],[],[],[],274.6718,276.6727,276.6728,276.6729,[],[],[],[],[],[],[],,276.673,276.6731,0.007349191,-0.408519791,0,0,0,,0,34,34,99,1,1,word,DEBATE,print,debate_p.png,,,,,
,,,,31919,001,2025-11-22_16h57.39.174,HW_LDT_1,2024.2.4,MacIntel,60.24096386,,,,,,,,,,,,,,,,,,,,276.6744,276.8726,276.8726,277.3727,,,,,,,,,,,,,,0.7536,1,,,,,,,,,,,,,,m,,,,,,,,,,,,,,,36,1,277.3733,278.1392,m,1,0.7536,,[],[],[],[],[],[],[],278.1392,280.1391,280.1392,281.1394,[],[],[],[],[],[],[],m,281.1395,281.1396,0.007349191,-0.408519791,0,0,0,,0,35,35,109,1,1,word,GRATEFUL,print,grateful_p.png,0.9982,,,,
,,,,31919,001,2025-11-22_16h57.39.174,HW_LDT_1,2024.2.4,MacIntel,60.24096386,,,,,,,,,,,,,,,,,,,,281.1411,281.3393,281.3393,281.8392,,,,,,,,,,,,,,1.4034,0,,,,,,,,,,,,,,z,,,,,,,,,,,,,,,37,0,281.8404,283.2559,m,0,1.4034,,[],[],[],[],[],[],[],283.256,285.2549,285.2551,285.2552,[],[],[],[],[],[],[],,285.2552,285.2554,0.007349191,-0.408519791,0,0,0,,0,36,36,51,1,1,TL,corevage,print,corevage_p.png,,,,,
,,,,31919,001,2025-11-22_16h57.39.174,HW_LDT_1,2024.2.4,MacIntel,60.24096386,,,,,,,,,,,,,,,,,,,,285.2568,285.4559,285.456,285.9558,,,,,,,,,,,,,,0.9041,1,,,,,,,,,,,,,,m,,,,,,,,,,,,,,,38,0,285.9566,286.8726,m,1,0.9041,,[],[],[],[],[],[],[],286.8727,288.8725,288.8726,288.8729,[],[],[],[],[],[],[],,288.8729,288.873,0.007349191,-0.408519791,0,0,0,,0,37,37,106,1,1,word,ELABORATE,print,elaborate_p.png,,,,,
,,,,31919,001,2025-11-22_16h57.39.174,HW_LDT_1,2024.2.4,MacIntel,60.24096386,,,,,,,,,,,,,,,,,,,,288.8744,289.0717,289.0718,289.5716,,,,,,,,,,,,,,0.7907,1,,,,,,,,,,,,,,m,,,,,,,,,,,,,,,39,0,289.5724,290.3718,m,1,0.7907,,[],[],[],[],[],[],[],290.3718,292.3725,292.3726,292.3728,[],[],[],[],[],[],[],,292.373,292.3731,0.007349191,-0.408519791,0,0,0,,0,38,38,145,1,1,word,RESUME,print,resume_p.png,,,,,
,,,,31919,001,2025-11-22_16h57.39.174,HW_LDT_1,2024.2.4,MacIntel,60.24096386,,,,,,,,,,,,,,,,,,,,292.3743,292.5724,292.5724,293.0725,,,,,,,,,,,,,,3.838,1,,,,,,,,,,,,,,z,,,,,,,,,,,,,,,40,0,293.0732,296.9226,z,1,3.838,,[],[],[],[],[],[],[],296.9228,298.9225,298.9226,298.9231,[],[],[],[],[],[],[],,298.9232,298.9234,0.007349191,-0.408519791,0,0,0,,0,39,39,68,1,1,TL,prosopal,cursive,prosopal_c.png,,,,,
,,,,31919,001,2025-11-22_16h57.39.174,HW_LDT_1,2024.2.4,MacIntel,60.24096386,,,,,,,,,,,,,,,,,,,,298.9259,299.1221,299.1221,299.6226,,,,,,,,,,,,,,1.8376,1,,,,,,,,,,,,,,z,,,,,,,,,,,,,,,41,0,299.6232,301.4726,z,1,1.8376,,[],[],[],[],[],[],[],301.4727,303.4726,303.4726,303.4728,[],[],[],[],[],[],[],,303.4728,303.473,0.007349191,-0.408519791,0,0,0,,0,40,40,76,1,1,TL,stragety,cursive,stragety_c.png,,,,,
,,,,31919,001,2025-11-22_16h57.39.174,HW_LDT_1,2024.2.4,MacIntel,60.24096386,,,,,,,,,,,,,,,,,,,,303.4744,303.6725,303.6726,304.1725,,,,,,,,,,,,,,1.1748,1,,,,,,,,,,,,,,z,,,,,,,,,,,,,,,42,0,304.1731,305.3555,z,1,1.1748,,[],[],[],[],[],[],[],305.3555,307.3557,307.3558,307.356,[],[],[],[],[],[],[],,307.3561,307.3562,0.007349191,-0.408519791,0,0,0,,0,41,41,78,1,1,TL,vecolity,print,vecolity_p.png,,,,,
,,,,31919,001,2025-11-22_16h57.39.174,HW_LDT_1,2024.2.4,MacIntel,60.24096386,,,,,,,,,,,,,,,,,,,,307.3576,307.5559,307.5559,308.0558,,,,,,,,,,,,,,1.6465,1,,,,,,,,,,,,,,m,,,,,,,,,,,,,,,43,0,308.0565,309.7058,m,1,1.6465,,[],[],[],[],[],[],[],309.7059,311.7058,311.7059,311.7061,[],[],[],[],[],[],[],,311.7061,311.7062,0.007349191,-0.408519791,0,0,0,,0,42,42,130,1,1,word,POLICY,cursive,policy_c.png,,,,,
,,,,31919,001,2025-11-22_16h57.39.174,HW_LDT_1,2024.2.4,MacIntel,60.24096386,,,,,,,,,,,,,,,,,,,,311.7073,311.9058,311.9059,312.4058,,,,,,,,,,,,,,2.7541,1,,,,,,,,,,,,,,m,,,,,,,,,,,,,,,44,0,312.4067,315.1726,m,1,2.7541,,[],[],[],[],[],[],[],315.1727,317.1718,317.1718,317.1725,[],[],[],[],[],[],[],,317.1727,317.1729,0.007349191,-0.408519791,0,0,0,,0,43,43,135,1,1,word,QUALITY,cursive,quality_c.png,,,,,
,,,,31919,001,2025-11-22_16h57.39.174,HW_LDT_1,2024.2.4,MacIntel,60.24096386,,,,,,,,,,,,,,,,,,,,317.1752,317.3724,317.3725,317.8725,,,,,,,,,,,,,,2.8733,1,,,,,,,,,,,,,,z,,,,,,,,,,,,,,,45,1,317.8734,320.7558,z,1,2.8733,,[],[],[],[],[],[],[],320.7561,322.7558,322.7559,324.0382,[],[],[],[],[],[],[],z,324.0383,324.0384,0.007349191,-0.408519791,0,0,0,,0,44,44,59,1,1,TL,lirebal,cursive,lirebal_c.png,1.2718,,,,
,,,,31919,001,2025-11-22_16h57.39.174,HW_LDT_1,2024.2.4,MacIntel,60.24096386,,,,,,,,,,,,,,,,,,,,324.0393,324.2391,324.2392,324.7391,,,,,,,,,,,,,,0.8875,1,,,,,,,,,,,,,,z,,,,,,,,,,,,,,,46,0,324.74,325.639,z,1,0.8875,,[],[],[],[],[],[],[],325.6392,327.639,327.6391,327.6394,[],[],[],[],[],[],[],,327.6394,327.6396,0.007349191,-0.408519791,0,0,0,,0,45,45,18,1,1,RL,mishafe,print,mishafe_p.png,,,,,
,,,,31919,001,2025-11-22_16h57.39.174,HW_LDT_1,2024.2.4,MacIntel,60.24096386,,,,,,,,,,,,,,,,,,,,327.6409,327.8392,327.8392,328.3392,,,,,,,,,,,,,,3.104,1,,,,,,,,,,,,,,m,,,,,,,,,,,,,,,47,0,328.3402,331.4557,m,1,3.104,,[],[],[],[],[],[],[],331.4558,333.4557,333.4558,333.4561,[],[],[],[],[],[],[],,333.4561,333.4563,0.007349191,-0.408519791,0,0,0,,0,46,46,150,1,1,word,SENTIMENT,cursive,sentiment_c.png,,,,,
,,,,31919,001,2025-11-22_16h57.39.174,HW_LDT_1,2024.2.4,MacIntel,60.24096386,,,,,,,,,,,,,,,,,,,,333.458,333.6553,333.6553,334.1558,,,,,,,,,,,,,,0.8567,1,,,,,,,,,,,,,,z,,,,,,,,,,,,,,,48,0,334.1563,335.0224,z,1,0.8567,,[],[],[],[],[],[],[],335.0226,337.0224,337.0224,337.0226,[],[],[],[],[],[],[],,337.0227,337.0228,0.007349191,-0.408519791,0,0,0,,0,47,47,46,1,1,TL,catipal,print,catipal_p.png,,,,,
,,,,31919,001,2025-11-22_16h57.39.174,HW_LDT_1,2024.2.4,MacIntel,60.24096386,,,,,,,,,,,,,,,,,,,,337.024,337.2223,337.2225,337.722,,,,,,,,,,,,,,0.9238,1,,,,,,,,,,,,,,z,,,,,,,,,,,,,,,49,0,337.7223,338.6557,z,1,0.9238,,[],[],[],[],[],[],[],338.6558,340.6557,340.6558,340.6562,[],[],[],[],[],[],[],,340.6563,340.6565,0.007349191,-0.408519791,0,0,0,,0,48,48,16,1,1,RL,marmipal,print,marmipal_p.png,,,,,
,,,,31919,001,2025-11-22_16h57.39.174,HW_LDT_1,2024.2.4,MacIntel,60.24096386,,,,,,,,,,,,,,,,,,,,340.6586,340.8557,340.8557,341.3552,,,,,,,,,,,,,,2.9215,1,,,,,,,,,,,,,,z,,,,,,,,,,,,,,,50,0,341.356,344.289,z,1,2.9215,,[],[],[],[],[],[],[],344.289,346.289,346.2891,346.2892,[],[],[],[],[],[],[],,346.2894,346.2894,0.007349191,-0.408519791,0,0,0,,0,49,49,58,1,1,TL,incidate,cursive,incidate_c.png,,,,,
,,,,31919,001,2025-11-22_16h57.39.174,HW_LDT_1,2024.2.4,MacIntel,60.24096386,,,,,,,,,,,,,,,,,,,,346.2907,346.489,346.4891,346.989,,,,,,,,,,,,,,2.3297,1,,,,,,,,,,,,,,z,,,,,,,,,,,,,,,51,0,346.99,349.3219,z,1,2.3297,,[],[],[],[],[],[],[],349.322,351.3223,351.3224,351.3226,[],[],[],[],[],[],[],,351.3228,351.323,0.007349191,-0.408519791,0,0,0,,0,50,50,65,1,1,TL,orinigal,cursive,orinigal_c.png,,,,,
,,,,31919,001,2025-11-22_16h57.39.174,HW_LDT_1,2024.2.4,MacIntel,60.24096386,,,,,,,,,,,,,,,,,,,,351.3244,351.5223,351.5224,352.0224,,,,,,,,,,,,,,0.7146,1,,,,,,,,,,,,,,z,,,,,,,,,,,,,,,52,0,352.0231,352.7391,z,1,0.7146,,[],[],[],[],[],[],[],352.7393,354.7389,354.739,354.7392,[],[],[],[],[],[],[],,354.7392,354.7393,0.007349191,-0.408519791,0,0,0,,0,51,51,13,1,1,RL,linefal,print,linefal_p.png,,,,,
,,,,31919,001,2025-11-22_16h57.39.174,HW_LDT_1,2024.2.4,MacIntel,60.24096386,,,,,,,,,,,,,,,,,,,,354.7409,354.9389,354.9389,355.439,,,,,,,,,,,,,,1.6212,1,,,,,,,,,,,,,,m,,,,,,,,,,,,,,,53,0,355.4397,357.0724,m,1,1.6212,,[],[],[],[],[],[],[],357.0725,359.0721,359.0721,359.0723,[],[],[],[],[],[],[],,359.0724,359.0727,0.007349191,-0.408519791,0,0,0,,0,52,52,152,1,1,word,SPECIMEN,cursive,specimen_c.png,,,,,
,,,,31919,001,2025-11-22_16h57.39.174,HW_LDT_1,2024.2.4,MacIntel,60.24096386,,,,,,,,,,,,,,,,,,,,359.0742,359.2722,359.2724,359.7723,,,,,,,,,,,,,,0.8639,1,,,,,,,,,,,,,,m,,,,,,,,,,,,,,,54,0,359.773,360.639,m,1,0.8639,,[],[],[],[],[],[],[],360.6391,362.6389,362.639,362.6391,[],[],[],[],[],[],[],,362.6393,362.6394,0.007349191,-0.408519791,0,0,0,,0,53,53,100,1,1,word,DECADE,print,decade_p.png,,,,,
,,,,31919,001,2025-11-22_16h57.39.174,HW_LDT_1,2024.2.4,MacIntel,60.24096386,,,,,,,,,,,,,,,,,,,,362.6408,362.8388,362.8389,363.339,,,,,,,,,,,,,,0.8548,1,,,,,,,,,,,,,,z,,,,,,,,,,,,,,,55,0,363.3396,364.2054,z,1,0.8548,,[],[],[],[],[],[],[],364.2056,366.2056,366.2057,366.2058,[],[],[],[],[],[],[],,366.2058,366.2059,0.007349191,-0.408519791,0,0,0,,0,54,54,20,1,1,RL,nunewical,print,nunewical_p.png,,,,,
,,,,31919,001,2025-11-22_16h57.39.174,HW_LDT_1,2024.2.4,MacIntel,60.24096386,,,,,,,,,,,,,,,,,,,,366.2071,366.4056,366.4056,366.9055,,,,,,,,,,,,,,1.976,0,,,,,,,,,,,,,,m,,,,,,,,,,,,,,,56,1,366.9063,368.8888,z,0,1.976,,[],[],[],[],[],[],[],368.8889,370.8887,370.8888,371.9058,[],[],[],[],[],[],[],z,371.9058,371.906,0.007349191,-0.408519791,0,0,0,,0,55,55,101,1,1,word,DELICATE,cursive,delicate_c.png,1.0138,,,,
,,,,31919,001,2025-11-22_16h57.39.174,HW_LDT_1,2024.2.4,MacIntel,60.24096386,,,,,,,,,,,,,,,,,,,,371.9077,372.1053,372.1053,372.6056,,,,,,,,,,,,,,2.0703,1,,,,,,,,,,,,,,m,,,,,,,,,,,,,,,57,0,372.6069,374.6889,m,1,2.0703,,[],[],[],[],[],[],[],374.689,376.6889,376.6889,376.6894,[],[],[],[],[],[],[],,376.6895,376.6897,0.007349191,-0.408519791,0,0,0,,0,56,56,80,1,1,word,ACADEMY,cursive,academy_c.png,,,,,
,,,,31919,001,2025-11-22_16h57.39.174,HW_LDT_1,2024.2.4,MacIntel,60.24096386,,,,,,,,,,,,,,,,,,,,376.6916,376.889,376.889,377.3888,,,,,,,,,,,,,,0.7205,1,,,,,,,,,,,,,,z,,,,,,,,,,,,,,,58,1,377.3897,378.1223,z,1,0.7205,,[],[],[],[],[],[],[],378.1224,380.1219,380.122,382.9222,[],[],[],[],[],[],[],m,382.9223,382.9224,0.007349191,-0.408519791,0,0,0,,0,57,57,19,1,1,RL,monebate,print,monebate_p.png,2.7891,,,,
,,,,31919,001,2025-11-22_16h57.39.174,HW_LDT_1,2024.2.4,MacIntel,60.24096386,,,,,,,,,,,,,,,,,,,,382.9237,383.1222,383.1223,383.6221,,,,,,,,,,,,,,1.9906,1,,,,,,,,,,,,,,z,,,,,,,,,,,,,,,59,0,383.6227,385.6214,z,1,1.9906,,[],[],[],[],[],[],[],385.6215,387.6222,387.6222,387.6225,[],[],[],[],[],[],[],,387.6226,387.6227,0.007349191,-0.408519791,0,0,0,,0,58,58,64,1,1,TL,orepator,cursive,orepator_c.png,,,,,
,,,,31919,001,2025-11-22_16h57.39.174,HW_LDT_1,2024.2.4,MacIntel,60.24096386,,,,,,,,,,,,,,,,,,,,387.6241,387.8221,387.8222,388.3222,,,,,,,,,,,,,,3.2378,1,,,,,,,,,,,,,,m,,,,,,,,,,,,,,,60,0,388.323,391.5722,m,1,3.2378,,[],[],[],[],[],[],[],391.5723,393.5722,393.5722,393.5724,[],[],[],[],[],[],[],,393.5725,393.5725,0.007349191,-0.408519791,0,0,0,,0,59,59,159,1,1,word,VETERAN,print,veteran_p.png,,,,,
,,,,31919,001,2025-11-22_16h57.39.174,HW_LDT_1,2024.2.4,MacIntel,60.24096386,,,,,,,,,,,,,,,,,,,,393.5741,393.7722,393.7722,394.2721,,,,,,,,,,,,,,1.4713,1,,,,,,,,,,,,,,m,,,,,,,,,,,,,,,61,0,394.2729,395.7555,m,1,1.4713,,[],[],[],[],[],[],[],395.7556,397.7551,397.7551,397.7552,[],[],[],[],[],[],[],,397.7552,397.7553,0.007349191,-0.408519791,0,0,0,,0,60,60,131,1,1,word,POPULAR,cursive,popular_c.png,,,,,
,,,,31919,001,2025-11-22_16h57.39.174,HW_LDT_1,2024.2.4,MacIntel,60.24096386,,,,,,,,,,,,,,,,,,,,397.7559,397.9555,397.9556,398.4554,,,,,,,,,,,,,,1.4874,1,,,,,,,,,,,,,,z,,,,,,,,,,,,,,,62,0,398.4563,399.9556,z,1,1.4874,,[],[],[],[],[],[],[],399.9556,401.9556,401.9557,401.956,[],[],[],[],[],[],[],,401.9561,401.9562,0.007349191,-0.408519791,0,0,0,,0,61,61,40,1,1,TL,atameur,print,atameur_p.png,,,,,
,,,,31919,001,2025-11-22_16h57.39.174,HW_LDT_1,2024.2.4,MacIntel,60.24096386,,,,,,,,,,,,,,,,,,,,401.9576,402.1554,402.1555,402.6554,,,,,,,,,,,,,,0.7716,1,,,,,,,,,,,,,,m,,,,,,,,,,,,,,,63,0,402.656,403.4388,m,1,0.7716,,[],[],[],[],[],[],[],403.4389,405.4388,405.4389,405.439,[],[],[],[],[],[],[],,405.4392,405.4393,0.007349191,-0.408519791,0,0,0,,0,62,62,142,1,1,word,REMOTE,print,remote_p.png,,,,,
,,,,31919,001,2025-11-22_16h57.39.174,HW_LDT_1,2024.2.4,MacIntel,60.24096386,,,,,,,,,,,,,,,,,,,,405.4407,405.6389,405.6389,406.1387,,,,,,,,,,,,,,1.5872,1,,,,,,,,,,,,,,m,,,,,,,,,,,,,,,64,0,406.1395,407.7386,m,1,1.5872,,[],[],[],[],[],[],[],407.7387,409.7386,409.7386,409.7388,[],[],[],[],[],[],[],,409.7388,409.7389,0.007349191,-0.408519791,0,0,0,,0,63,63,89,1,1,word,CAPACITY,print,capacity_p.png,,,,,
,,,,31919,001,2025-11-22_16h57.39.174,HW_LDT_1,2024.2.4,MacIntel,60.24096386,,,,,,,,,,,,,,,,,,,,409.7402,409.9386,409.9387,410.4387,,,,,,,,,,,,,,1.3208,1,,,,,,,,,,,,,,z,,,,,,,,,,,,,,,65,0,410.4394,411.7722,z,1,1.3208,,[],[],[],[],[],[],[],411.7722,413.772,413.7722,413.7723,[],[],[],[],[],[],[],,413.7723,413.7725,0.007349191,-0.408519791,0,0,0,,0,64,64,39,1,1,RL,vabifity,cursive,vabifity_c.png,,,,,
,,,,31919,001,2025-11-22_16h57.39.174,HW_LDT_1,2024.2.4,MacIntel,60.24096386,,,,,,,,,,,,,,,,,,,,413.7739,413.9718,413.9718,414.4719,,,,,,,,,,,,,,1.5311,1,,,,,,,,,,,,,,z,,,,,,,,,,,,,,,66,0,414.4725,416.0053,z,1,1.5311,,[],[],[],[],[],[],[],416.0054,418.0055,418.0055,418.0058,[],[],[],[],[],[],[],,418.0058,418.006,0.007349191,-0.408519791,0,0,0,,0,65,65,25,1,1,RL,quakity,cursive,quakity_c.png,,,,,
,,,,31919,001,2025-11-22_16h57.39.174,HW_LDT_1,2024.2.4,MacIntel,60.24096386,,,,,,,,,,,,,,,,,,,,418.0074,418.2055,418.2055,418.7054,,,,,,,,,,,,,,1.9091,1,,,,,,,,,,,,,,m,,,,,,,,,,,,,,,67,1,418.7062,420.622,m,1,1.9091,,[],[],[],[],[],[],[],420.6221,422.6221,422.6221,424.0554,[],[],[],[],[],[],[],z,424.0555,424.0555,0.007349191,-0.408519791,0,0,0,,0,66,66,88,1,1,word,CAMERA,cursive,camera_c.png,1.4318,,,,
,,,,31919,001,2025-11-22_16h57.39.174,HW_LDT_1,2024.2.4,MacIntel,60.24096386,,,,,,,,,,,,,,,,,,,,424.0569,424.2548,424.2549,424.7545,,,,,,,,,,,,,,1.1315,1,,,,,,,,,,,,,,z,,,,,,,,,,,,,,,68,0,424.7549,425.8888,z,1,1.1315,,[],[],[],[],[],[],[],425.8889,427.8885,427.8886,427.8888,[],[],[],[],[],[],[],,427.8888,427.889,0.007349191,-0.408519791,0,0,0,,0,67,67,72,1,1,TL,remuse,print,remuse_p.png,,,,,
,,,,31919,001,2025-11-22_16h57.39.174,HW_LDT_1,2024.2.4,MacIntel,60.24096386,,,,,,,,,,,,,,,,,,,,427.8901,428.0886,428.0886,428.5887,,,,,,,,,,,,,,1.2881,1,,,,,,,,,,,,,,m,,,,,,,,,,,,,,,69,0,428.5893,429.8887,m,1,1.2881,,[],[],[],[],[],[],[],429.8888,431.8875,431.8875,431.8878,[],[],[],[],[],[],[],,431.8878,431.888,0.007349191,-0.408519791,0,0,0,,0,68,68,120,1,1,word,MILITARY,print,military_p.png,,,,,
,,,,31919,001,2025-11-22_16h57.39.174,HW_LDT_1,2024.2.4,MacIntel,60.24096386,,,,,,,,,,,,,,,,,,,,431.8892,432.0884,432.0884,432.5891,,,,,,,,,,,,,,0.7758,1,,,,,,,,,,,,,,z,,,,,,,,,,,,,,,70,0,432.5908,433.3722,z,1,0.7758,,[],[],[],[],[],[],[],433.3724,435.372,435.372,435.3724,[],[],[],[],[],[],[],,435.3725,435.3727,0.007349191,-0.408519791,0,0,0,,0,69,69,34,1,1,RL,samite,print,samite_p.png,,,,,
,,,,31919,001,2025-11-22_16h57.39.174,HW_LDT_1,2024.2.4,MacIntel,60.24096386,,,,,,,,,,,,,,,,,,,,435.3752,435.571,435.5711,436.0719,,,,,,,,,,,,,,1.1962,1,,,,,,,,,,,,,,z,,,,,,,,,,,,,,,71,0,436.0726,437.2716,z,1,1.1962,,[],[],[],[],[],[],[],437.2717,439.2716,439.2718,439.272,[],[],[],[],[],[],[],,439.272,439.2722,0.007349191,-0.408519791,0,0,0,,0,70,70,61,1,1,TL,mecidine,cursive,mecidine_c.png,,,,,
,,,,31919,001,2025-11-22_16h57.39.174,HW_LDT_1,2024.2.4,MacIntel,60.24096386,,,,,,,,,,,,,,,,,,,,439.2735,439.4718,439.4718,439.972,,,,,,,,,,,,,,1.4378,1,,,,,,,,,,,,,,z,,,,,,,,,,,,,,,72,0,439.9726,441.422,z,1,1.4378,,[],[],[],[],[],[],[],441.4222,443.422,443.422,443.4222,[],[],[],[],[],[],[],,443.4223,443.4224,0.007349191,-0.408519791,0,0,0,,0,71,71,29,1,1,RL,refakive,cursive,refakive_c.png,,,,,
,,,,31919,001,2025-11-22_16h57.39.174,HW_LDT_1,2024.2.4,MacIntel,60.24096386,,,,,,,,,,,,,,,,,,,,443.4238,443.6219,443.6219,444.1209,,,,,,,,,,,,,,1.8749,1,,,,,,,,,,,,,,z,,,,,,,,,,,,,,,73,0,444.1216,446.0053,z,1,1.8749,,[],[],[],[],[],[],[],446.0053,448.0052,448.0053,448.0057,[],[],[],[],[],[],[],,448.0058,448.0058,0.007349191,-0.408519791,0,0,0,,0,72,72,47,1,1,TL,cagetory,print,cagetory_p.png,,,,,
,,,,31919,001,2025-11-22_16h57.39.174,HW_LDT_1,2024.2.4,MacIntel,60.24096386,,,,,,,,,,,,,,,,,,,,448.0071,448.2043,448.2044,448.7046,,,,,,,,,,,,,,1.0648,1,,,,,,,,,,,,,,m,,,,,,,,,,,,,,,74,0,448.7053,449.7719,m,1,1.0648,,[],[],[],[],[],[],[],449.772,451.772,451.7721,451.7723,[],[],[],[],[],[],[],,451.7724,451.7726,0.007349191,-0.408519791,0,0,0,,0,73,73,113,1,1,word,LITERAL,print,literal_p.png,,,,,
,,,,31919,001,2025-11-22_16h57.39.174,HW_LDT_1,2024.2.4,MacIntel,60.24096386,,,,,,,,,,,,,,,,,,,,451.7737,451.9718,451.9718,452.471,,,,,,,,,,,,,,2.0863,1,,,,,,,,,,,,,,m,,,,,,,,,,,,,,,75,0,452.4715,454.5584,m,1,2.0863,,[],[],[],[],[],[],[],454.5584,456.5556,456.5561,456.5566,[],[],[],[],[],[],[],,456.5567,456.5568,0.007349191,-0.408519791,0,0,0,,0,74,74,93,1,1,word,CEREMONY,cursive,ceremony_c.png,,,,,
,,,,31919,001,2025-11-22_16h57.39.174,HW_LDT_1,2024.2.4,MacIntel,60.24096386,,,,,,,,,,,,,,,,,,,,456.5594,456.7541,456.7542,457.2549,,,,,,,,,,,,,,0.8284,1,,,,,,,,,,,,,,m,,,,,,,,,,,,,,,76,0,457.2557,458.0876,m,1,0.8284,,[],[],[],[],[],[],[],458.0878,460.0886,460.0886,460.0889,[],[],[],[],[],[],[],,460.0889,460.089,0.007349191,-0.408519791,0,0,0,,0,75,75,133,1,1,word,PROVIDE,print,provide_p.png,,,,,
,,,,31919,001,2025-11-22_16h57.39.174,HW_LDT_1,2024.2.4,MacIntel,60.24096386,,,,,,,,,,,,,,,,,,,,460.091,460.2885,460.2886,460.7885,,,,,,,,,,,,,,0.9964,0,,,,,,,,,,,,,,m,,,,,,,,,,,,,,,77,0,460.7892,461.7874,z,0,0.9964,,[],[],[],[],[],[],[],461.7874,463.7873,463.7874,463.7875,[],[],[],[],[],[],[],,463.7876,463.7876,0.007349191,-0.408519791,0,0,0,,0,76,76,149,1,1,word,SENATOR,cursive,senator_c.png,,,,,
,,,,31919,001,2025-11-22_16h57.39.174,HW_LDT_1,2024.2.4,MacIntel,60.24096386,,,,,,,,,,,,,,,,,,,,463.7886,463.9884,463.9885,464.4885,,,,,,,,,,,,,,1.1807,0,,,,,,,,,,,,,,m,,,,,,,,,,,,,,,78,0,464.4892,465.6719,z,0,1.1807,,[],[],[],[],[],[],[],465.672,467.6719,467.6719,467.6722,[],[],[],[],[],[],[],,467.6722,467.6724,0.007349191,-0.408519791,0,0,0,,0,77,77,156,1,1,word,TRIBUTE,cursive,tribute_c.png,,,,,
,,,,31919,001,2025-11-22_16h57.39.174,HW_LDT_1,2024.2.4,MacIntel,60.24096386,,,,,,,,,,,,,,,,,,,,467.6737,467.8709,467.8709,468.3718,,,,,,,,,,,,,,0.8873,1,,,,,,,,,,,,,,z,,,,,,,,,,,,,,,79,0,468.3725,469.2714,z,1,0.8873,,[],[],[],[],[],[],[],469.2715,471.2708,471.2709,471.2709,[],[],[],[],[],[],[],,471.271,471.2711,0.007349191,-0.408519791,0,0,0,,0,78,78,70,1,1,TL,relugar,print,relugar_p.png,,,,,
,,,,31919,001,2025-11-22_16h57.39.174,HW_LDT_1,2024.2.4,MacIntel,60.24096386,,,,,,,,,,,,,,,,,,,,471.2721,471.4718,471.4719,471.9718,,,,,,,,,,,,,,1.2489,1,,,,,,,,,,,,,,z,,,,,,,,,,,,,,,80,0,471.9725,473.2224,z,1,1.2489,,[],[],[],[],[],[],[],473.2225,475.2209,475.221,475.221,[],[],[],[],[],[],[],,475.2211,508.8558,0.005274925,-0.384270437,1,0,0,,0,79,79,77,1,1,TL,tritube,cursive,tritube_c.png,,,break_done_button,,
,,,,31919,001,2025-11-22_16h57.39.174,HW_LDT_1,2024.2.4,MacIntel,60.24096386,,,,,,,,,,,,,,,,,,,,508.8574,509.055,509.0551,509.5541,,,,,,,,,,,,,,1.5541,1,,,,,,,,,,,,,,z,,,,,,,,,,,,,,,81,0,509.5553,511.1217,z,1,1.5541,,[],[],[],[],[],[],[],511.1218,513.1206,513.1206,513.1209,[],[],[],[],[],[],[],,513.1209,513.1212,0.005274925,-0.384270437,0,0,0,,0,80,80,79,1,1,TL,veretan,print,veretan_p.png,,,,,
,,,,31919,001,2025-11-22_16h57.39.174,HW_LDT_1,2024.2.4,MacIntel,60.24096386,,,,,,,,,,,,,,,,,,,,513.1226,513.3216,513.3217,513.8216,,,,,,,,,,,,,,4.8044,1,,,,,,,,,,,,,,m,,,,,,,,,,,,,,,82,0,513.8225,518.6384,m,1,4.8044,,[],[],[],[],[],[],[],518.6385,520.6385,520.6389,520.6395,[],[],[],[],[],[],[],,520.6396,520.6399,0.005274925,-0.384270437,0,0,0,,0,81,81,102,1,1,word,DENSITY,cursive,density_c.png,,,,,
,,,,31919,001,2025-11-22_16h57.39.174,HW_LDT_1,2024.2.4,MacIntel,60.24096386,,,,,,,,,,,,,,,,,,,,520.6427,520.8382,520.8382,521.3383,,,,,,,,,,,,,,4.3208,1,,,,,,,,,,,,,,m,,,,,,,,,,,,,,,83,0,521.3391,525.6717,m,1,4.3208,,[],[],[],[],[],[],[],525.6719,527.6717,527.6717,527.672,[],[],[],[],[],[],[],,527.672,527.6721,0.005274925,-0.384270437,0,0,0,,0,82,82,140,1,1,word,RELATIVE,cursive,relative_c.png,,,,,
,,,,31919,001,2025-11-22_16h57.39.174,HW_LDT_1,2024.2.4,MacIntel,60.24096386,,,,,,,,,,,,,,,,,,,,527.6737,527.8706,527.8706,528.3716,,,,,,,,,,,,,,0.9982,0,,,,,,,,,,,,,,m,,,,,,,,,,,,,,,84,0,528.3722,529.3715,z,0,0.9982,,[],[],[],[],[],[],[],529.3716,531.3716,531.3716,531.3719,[],[],[],[],[],[],[],,531.372,531.372,0.005274925,-0.384270437,0,0,0,,0,83,83,81,1,1,word,ADVISORY,cursive,advisory_c.png,,,,,
,,,,31919,001,2025-11-22_16h57.39.174,HW_LDT_1,2024.2.4,MacIntel,60.24096386,,,,,,,,,,,,,,,,,,,,531.3735,531.5716,531.5717,532.0716,,,,,,,,,,,,,,4.223,1,,,,,,,,,,,,,,z,,,,,,,,,,,,,,,85,0,532.0724,536.3049,z,1,4.223,,[],[],[],[],[],[],[],536.3051,538.305,538.3052,538.3068,[],[],[],[],[],[],[],,538.3068,538.3069,0.005274925,-0.384270437,0,0,0,,0,84,84,44,1,1,TL,cateferia,cursive,cateferia_c.png,,,,,
,,,,31919,001,2025-11-22_16h57.39.174,HW_LDT_1,2024.2.4,MacIntel,60.24096386,,,,,,,,,,,,,,,,,,,,538.3085,538.5049,538.505,539.0049,,,,,,,,,,,,,,0.9375,1,,,,,,,,,,,,,,z,,,,,,,,,,,,,,,86,1,539.0056,539.9551,z,1,0.9375,,[],[],[],[],[],[],[],539.9551,541.955,541.955,543.9716,[],[],[],[],[],[],[],z,543.9717,543.9718,0.005274925,-0.384270437,0,0,0,,0,85,85,11,1,1,RL,elacodate,print,elacodate_p.png,2.0153,,,,
,,,,31919,001,2025-11-22_16h57.39.174,HW_LDT_1,2024.2.4,MacIntel,60.24096386,,,,,,,,,,,,,,,,,,,,543.9734,544.1716,544.1716,544.6715,,,,,,,,,,,,,,1.1986,1,,,,,,,,,,,,,,z,,,,,,,,,,,,,,,87,1,544.6721,545.8715,z,1,1.1986,,[],[],[],[],[],[],[],545.8716,547.8717,547.8717,549.4045,[],[],[],[],[],[],[],z,549.4046,549.4046,0.005274925,-0.384270437,0,0,0,,0,86,86,28,1,1,RL,renutal,print,renutal_p.png,1.5203,,,,
,,,,31919,001,2025-11-22_16h57.39.174,HW_LDT_1,2024.2.4,MacIntel,60.24096386,,,,,,,,,,,,,,,,,,,,549.4053,549.6049,549.6049,550.1049,,,,,,,,,,,,,,2.1981,1,,,,,,,,,,,,,,m,,,,,,,,,,,,,,,88,0,550.1057,552.3046,m,1,2.1981,,[],[],[],[],[],[],[],552.3046,554.3049,554.305,554.3056,[],[],[],[],[],[],[],,554.3057,554.3059,0.005274925,-0.384270437,0,0,0,,0,87,87,139,1,1,word,REGULAR,print,regular_p.png,,,,,
,,,,31919,001,2025-11-22_16h57.39.174,HW_LDT_1,2024.2.4,MacIntel,60.24096386,,,,,,,,,,,,,,,,,,,,554.309,554.5042,554.5043,555.0046,,,,,,,,,,,,,,0.9719,1,,,,,,,,,,,,,,m,,,,,,,,,,,,,,,89,0,555.0057,555.9883,m,1,0.9719,,[],[],[],[],[],[],[],555.9883,557.9883,557.9884,557.9887,[],[],[],[],[],[],[],,557.9887,557.9888,0.005274925,-0.384270437,0,0,0,,0,88,88,114,1,1,word,LOCATE,print,locate_p.png,,,,,
,,,,31919,001,2025-11-22_16h57.39.174,HW_LDT_1,2024.2.4,MacIntel,60.24096386,,,,,,,,,,,,,,,,,,,,557.9903,558.1876,558.1876,558.6878,,,,,,,,,,,,,,3.0396,1,,,,,,,,,,,,,,z,,,,,,,,,,,,,,,90,0,558.6882,561.738,z,1,3.0396,,[],[],[],[],[],[],[],561.7381,563.738,563.7381,563.7385,[],[],[],[],[],[],[],,563.7387,563.739,0.005274925,-0.384270437,0,0,0,,0,89,89,52,1,1,TL,decilate,cursive,decilate_c.png,,,,,
,,,,31919,001,2025-11-22_16h57.39.174,HW_LDT_1,2024.2.4,MacIntel,60.24096386,,,,,,,,,,,,,,,,,,,,563.742,563.9382,563.9384,564.4382,,,,,,,,,,,,,,1.2467,1,,,,,,,,,,,,,,z,,,,,,,,,,,,,,,91,0,564.4392,565.6884,z,1,1.2467,,[],[],[],[],[],[],[],565.6885,567.688,567.688,567.6883,[],[],[],[],[],[],[],,567.6883,567.6884,0.005274925,-0.384270437,0,0,0,,0,90,90,62,1,1,TL,mitilary,print,mitilary_p.png,,,,,
,,,,31919,001,2025-11-22_16h57.39.174,HW_LDT_1,2024.2.4,MacIntel,60.24096386,,,,,,,,,,,,,,,,,,,,567.6896,567.8878,567.8878,568.3882,,,,,,,,,,,,,,1.305,1,,,,,,,,,,,,,,z,,,,,,,,,,,,,,,92,0,568.3889,569.7047,z,1,1.305,,[],[],[],[],[],[],[],569.7049,571.7048,571.7049,571.7052,[],[],[],[],[],[],[],,571.7053,571.7055,0.357798048,0.027330998,0,0,0,,0,91,91,42,1,1,TL,befenit,print,befenit_p.png,,,,,
,,,,31919,001,2025-11-22_16h57.39.174,HW_LDT_1,2024.2.4,MacIntel,60.24096386,,,,,,,,,,,,,,,,,,,,571.707,571.9048,571.9048,572.4042,,,,,,,,,,,,,,2.6548,1,,,,,,,,,,,,,,m,,,,,,,,,,,,,,,93,1,572.4052,575.0707,m,1,2.6548,,[],[],[],[],[],[],[],575.0707,577.0715,577.0716,578.3549,[],[],[],[],[],[],[],z,578.355,578.3551,0.357798048,0.027330998,0,0,0,,0,92,92,87,1,1,word,CAFETERIA,cursive,cafeteria_c.png,1.272,,,,
,,,,31919,001,2025-11-22_16h57.39.174,HW_LDT_1,2024.2.4,MacIntel,60.24096386,,,,,,,,,,,,,,,,,,,,578.3565,578.5548,578.5548,579.0547,,,,,,,,,,,,,,0.9233,1,,,,,,,,,,,,,,z,,,,,,,,,,,,,,,94,0,579.0555,579.9878,z,1,0.9233,,[],[],[],[],[],[],[],579.9879,581.9872,581.9873,581.9874,[],[],[],[],[],[],[],,581.9875,581.9876,0.357798048,0.027330998,0,0,0,,0,93,93,8,1,1,RL,debave,print,debave_p.png,,,,,
,,,,31919,001,2025-11-22_16h57.39.174,HW_LDT_1,2024.2.4,MacIntel,60.24096386,,,,,,,,,,,,,,,,,,,,581.9889,582.1876,582.1877,582.688,,,,,,,,,,,,,,1.0907,1,,,,,,,,,,,,,,z,,,,,,,,,,,,,,,95,0,582.6888,583.7877,z,1,1.0907,,[],[],[],[],[],[],[],583.7877,585.7882,585.7883,585.7885,[],[],[],[],[],[],[],,585.7886,585.7887,0.357798048,0.027330998,0,0,0,,0,94,94,6,1,1,RL,crisival,print,crisival_p.png,,,,,
,,,,31919,001,2025-11-22_16h57.39.174,HW_LDT_1,2024.2.4,MacIntel,60.24096386,,,,,,,,,,,,,,,,,,,,585.7902,585.9881,585.9881,586.488,,,,,,,,,,,,,,2.3066,1,,,,,,,,,,,,,,z,,,,,,,,,,,,,,,96,0,586.4887,588.8048,z,1,2.3066,,[],[],[],[],[],[],[],588.805,590.8047,590.8048,590.805,[],[],[],[],[],[],[],,590.805,590.8051,0.357798048,0.027330998,0,0,0,,0,95,95,3,1,1,RL,casena,cursive,casena_c.png,,,,,
,,,,31919,001,2025-11-22_16h57.39.174,HW_LDT_1,2024.2.4,MacIntel,60.24096386,,,,,,,,,,,,,,,,,,,,590.8065,591.0046,591.0047,591.5039,,,,,,,,,,,,,,1.1052,1,,,,,,,,,,,,,,z,,,,,,,,,,,,,,,97,1,591.5046,592.6214,z,1,1.1052,,[],[],[],[],[],[],[],592.6216,594.621,594.621,595.7048,[],[],[],[],[],[],[],z,595.7049,595.705,0.357798048,0.027330998,0,0,0,,0,96,96,23,1,1,RL,potugar,cursive,potugar_c.png,1.0725,,,,
,,,,31919,001,2025-11-22_16h57.39.174,HW_LDT_1,2024.2.4,MacIntel,60.24096386,,,,,,,,,,,,,,,,,,,,595.7063,595.9046,595.9047,596.4047,,,,,,,,,,,,,,1.2543,1,,,,,,,,,,,,,,m,,,,,,,,,,,,,,,98,0,596.4053,597.671,m,1,1.2543,,[],[],[],[],[],[],[],597.6711,599.6704,599.6705,599.6707,[],[],[],[],[],[],[],,599.6707,599.6709,0.357798048,0.027330998,0,0,0,,0,97,97,129,1,1,word,PARENT,cursive,parent_c.png,,,,,
,,,,31919,001,2025-11-22_16h57.39.174,HW_LDT_1,2024.2.4,MacIntel,60.24096386,,,,,,,,,,,,,,,,,,,,599.6726,599.8714,599.8715,600.3709,,,,,,,,,,,,,,1.1217,1,,,,,,,,,,,,,,m,,,,,,,,,,,,,,,99,0,600.3717,601.5046,m,1,1.1217,,[],[],[],[],[],[],[],601.5046,603.5046,603.5046,603.5049,[],[],[],[],[],[],[],,603.5049,603.5051,0.357798048,0.027330998,0,0,0,,0,98,98,153,1,1,word,STOLEN,print,stolen_p.png,,,,,
,,,,31919,001,2025-11-22_16h57.39.174,HW_LDT_1,2024.2.4,MacIntel,60.24096386,,,,,,,,,,,,,,,,,,,,603.5066,603.7047,603.7047,604.2048,,,,,,,,,,,,,,3.1212,1,,,,,,,,,,,,,,m,,,,,,,,,,,,,,,100,0,604.2053,607.3378,m,1,3.1212,,[],[],[],[],[],[],[],607.3379,609.3378,609.3379,609.338,[],[],[],[],[],[],[],,609.3381,609.3382,0.357798048,0.027330998,0,0,0,,0,99,99,103,1,1,word,DISPUTE,cursive,dispute_c.png,,,,,
,,,,31919,001,2025-11-22_16h57.39.174,HW_LDT_1,2024.2.4,MacIntel,60.24096386,,,,,,,,,,,,,,,,,,,,609.3391,609.5378,609.5379,610.0379,,,,,,,,,,,,,,0.7481,1,,,,,,,,,,,,,,z,,,,,,,,,,,,,,,101,0,610.0387,610.788,z,1,0.7481,,[],[],[],[],[],[],[],610.7881,612.7879,612.7881,612.7883,[],[],[],[],[],[],[],,612.7883,612.7886,0.357798048,0.027330998,0,0,0,,0,100,100,27,1,1,RL,rasibal,print,rasibal_p.png,,,,,
,,,,31919,001,2025-11-22_16h57.39.174,HW_LDT_1,2024.2.4,MacIntel,60.24096386,,,,,,,,,,,,,,,,,,,,612.7901,612.988,612.9881,613.488,,,,,,,,,,,,,,0.9937,1,,,,,,,,,,,,,,m,,,,,,,,,,,,,,,102,0,613.4887,614.4882,m,1,0.9937,,[],[],[],[],[],[],[],614.4883,616.488,616.488,616.4884,[],[],[],[],[],[],[],,616.4884,616.4887,0.357798048,0.027330998,0,0,0,,0,101,101,124,1,1,word,NUMERICAL,print,numerical_p.png,,,,,
,,,,31919,001,2025-11-22_16h57.39.174,HW_LDT_1,2024.2.4,MacIntel,60.24096386,,,,,,,,,,,,,,,,,,,,616.4898,616.6881,616.6881,617.188,,,,,,,,,,,,,,0.8547,1,,,,,,,,,,,,,,m,,,,,,,,,,,,,,,103,0,617.1887,618.0547,m,1,0.8547,,[],[],[],[],[],[],[],618.0547,620.0547,620.0548,620.055,[],[],[],[],[],[],[],,620.055,620.0552,0.357798048,0.027330998,0,0,0,,0,102,102,112,1,1,word,LIBERAL,cursive,liberal_c.png,,,,,
,,,,31919,001,2025-11-22_16h57.39.174,HW_LDT_1,2024.2.4,MacIntel,60.24096386,,,,,,,,,,,,,,,,,,,,620.0567,620.2546,620.2547,620.754,,,,,,,,,,,,,,0.9552,1,,,,,,,,,,,,,,m,,,,,,,,,,,,,,,104,1,620.7548,621.7207,m,1,0.9552,,[],[],[],[],[],[],[],621.7208,623.7213,623.7214,625.1378,[],[],[],[],[],[],[],z,625.138,625.1381,0.357798048,0.027330998,0,0,0,,0,103,103,95,1,1,word,COMEDY,cursive,comedy_c.png,1.4068,,,,
,,,,31919,001,2025-11-22_16h57.39.174,HW_LDT_1,2024.2.4,MacIntel,60.24096386,,,,,,,,,,,,,,,,,,,,625.1393,625.3379,625.338,625.8379,,,,,,,,,,,,,,1.8233,1,,,,,,,,,,,,,,z,,,,,,,,,,,,,,,105,0,625.8387,627.6713,z,1,1.8233,,[],[],[],[],[],[],[],627.6714,629.6713,629.6714,629.6716,[],[],[],[],[],[],[],,629.6717,629.6719,0.357798048,0.027330998,0,0,0,,0,104,104,32,1,1,RL,rebicent,print,rebicent_p.png,,,,,
,,,,31919,001,2025-11-22_16h57.39.174,HW_LDT_1,2024.2.4,MacIntel,60.24096386,,,,,,,,,,,,,,,,,,,,629.6732,629.8713,629.8714,630.3713,,,,,,,,,,,,,,0.7713,1,,,,,,,,,,,,,,m,,,,,,,,,,,,,,,106,0,630.3721,631.1544,m,1,0.7713,,[],[],[],[],[],[],[],631.1545,633.1535,633.1535,633.1538,[],[],[],[],[],[],[],,633.1538,633.1542,0.357798048,0.027330998,0,0,0,,0,105,105,158,1,1,word,VELOCITY,print,velocity_p.png,,,,,
,,,,31919,001,2025-11-22_16h57.39.174,HW_LDT_1,2024.2.4,MacIntel,60.24096386,,,,,,,,,,,,,,,,,,,,633.1553,633.3536,633.3536,633.8546,,,,,,,,,,,,,,3.787,1,,,,,,,,,,,,,,z,,,,,,,,,,,,,,,107,0,633.8554,637.6546,z,1,3.787,,[],[],[],[],[],[],[],637.6548,639.6535,639.6536,639.6538,[],[],[],[],[],[],[],,639.6539,639.654,0.357798048,0.027330998,0,0,0,,0,106,106,35,1,1,RL,senvilent,cursive,senvilent_c.png,,,,,
,,,,31919,001,2025-11-22_16h57.39.174,HW_LDT_1,2024.2.4,MacIntel,60.24096386,,,,,,,,,,,,,,,,,,,,639.6554,639.8546,639.8546,640.3546,,,,,,,,,,,,,,0.9223,1,,,,,,,,,,,,,,m,,,,,,,,,,,,,,,108,0,640.3555,641.2868,m,1,0.9223,,[],[],[],[],[],[],[],641.2869,643.2869,643.2869,643.2871,[],[],[],[],[],[],[],,643.2873,643.2874,0.357798048,0.027330998,0,0,0,,0,107,107,123,1,1,word,MODERATE,print,moderate_p.png,,,,,
,,,,31919,001,2025-11-22_16h57.39.174,HW_LDT_1,2024.2.4,MacIntel,60.24096386,,,,,,,,,,,,,,,,,,,,643.2894,643.4878,643.4879,643.9868,,,,,,,,,,,,,,0.8583,1,,,,,,,,,,,,,,z,,,,,,,,,,,,,,,109,0,643.9877,644.8542,z,1,0.8583,,[],[],[],[],[],[],[],644.8543,646.8548,646.8549,646.8551,[],[],[],[],[],[],[],,646.8552,646.8554,0.357798048,0.027330998,0,0,0,,0,108,108,2,1,1,RL,asiral,print,asiral_p.png,,,,,
,,,,31919,001,2025-11-22_16h57.39.174,HW_LDT_1,2024.2.4,MacIntel,60.24096386,,,,,,,,,,,,,,,,,,,,646.8567,647.0546,647.0547,647.5546,,,,,,,,,,,,,,1.5395,1,,,,,,,,,,,,,,z,,,,,,,,,,,,,,,110,0,647.5554,649.1045,z,1,1.5395,,[],[],[],[],[],[],[],649.1046,651.1047,651.1048,651.1052,[],[],[],[],[],[],[],,651.1053,651.1054,0.357798048,0.027330998,0,0,0,,0,109,109,56,1,1,TL,grafetul,print,grafetul_p.png,,,,,
,,,,31919,001,2025-11-22_16h57.39.174,HW_LDT_1,2024.2.4,MacIntel,60.24096386,,,,,,,,,,,,,,,,,,,,651.1066,651.3045,651.3046,651.8045,,,,,,,,,,,,,,2.179,1,,,,,,,,,,,,,,m,,,,,,,,,,,,,,,111,0,651.8052,653.9869,m,1,2.179,,[],[],[],[],[],[],[],653.987,655.9877,655.9878,655.9882,[],[],[],[],[],[],[],,655.9883,655.9884,0.357798048,0.027330998,0,0,0,,0,110,110,151,1,1,word,SPECIFIC,cursive,specific_c.png,,,,,
,,,,31919,001,2025-11-22_16h57.39.174,HW_LDT_1,2024.2.4,MacIntel,60.24096386,,,,,,,,,,,,,,,,,,,,655.9897,656.1868,656.1869,656.6875,,,,,,,,,,,,,,0.8883,1,,,,,,,,,,,,,,z,,,,,,,,,,,,,,,112,0,656.6878,657.5878,z,1,0.8883,,[],[],[],[],[],[],[],657.5879,659.5877,659.5878,659.5883,[],[],[],[],[],[],[],,659.5883,659.5885,0.357798048,0.027330998,0,0,0,,0,111,111,41,1,1,TL,bevoled,print,bevoled_p.png,,,,,
,,,,31919,001,2025-11-22_16h57.39.174,HW_LDT_1,2024.2.4,MacIntel,60.24096386,,,,,,,,,,,,,,,,,,,,659.5896,659.7878,659.7879,660.2879,,,,,,,,,,,,,,2.0705,1,,,,,,,,,,,,,,m,,,,,,,,,,,,,,,113,0,660.2885,662.371,m,1,2.0705,,[],[],[],[],[],[],[],662.3711,664.3701,664.3701,664.3703,[],[],[],[],[],[],[],,664.3703,664.3704,0.357798048,0.027330998,0,0,0,,0,112,112,85,1,1,word,BENEFIT,print,benefit_p.png,,,,,
,,,,31919,001,2025-11-22_16h57.39.174,HW_LDT_1,2024.2.4,MacIntel,60.24096386,,,,,,,,,,,,,,,,,,,,664.3715,664.5711,664.5712,665.0701,,,,,,,,,,,,,,0.9477,1,,,,,,,,,,,,,,m,,,,,,,,,,,,,,,114,0,665.0709,666.0213,m,1,0.9477,,[],[],[],[],[],[],[],666.0214,668.0212,668.0212,668.0215,[],[],[],[],[],[],[],,668.0215,668.0215,0.357798048,0.027330998,0,0,0,,0,113,113,148,1,1,word,SALINE,print,saline_p.png,,,,,
,,,,31919,001,2025-11-22_16h57.39.174,HW_LDT_1,2024.2.4,MacIntel,60.24096386,,,,,,,,,,,,,,,,,,,,668.0226,668.2211,668.2211,668.72,,,,,,,,,,,,,,0.9423,1,,,,,,,,,,,,,,z,,,,,,,,,,,,,,,115,0,668.7207,669.6707,z,1,0.9423,,[],[],[],[],[],[],[],669.6708,671.6711,671.6711,671.6713,[],[],[],[],[],[],[],,671.6714,671.6714,0.357798048,0.027330998,0,0,0,,0,114,114,7,1,1,RL,delahe,print,delahe_p.png,,,,,
,,,,31919,001,2025-11-22_16h57.39.174,HW_LDT_1,2024.2.4,MacIntel,60.24096386,,,,,,,,,,,,,,,,,,,,671.6727,671.8702,671.8703,672.3708,,,,,,,,,,,,,,3.924,1,,,,,,,,,,,,,,m,,,,,,,,,,,,,,,116,0,672.3715,676.3045,m,1,3.924,,[],[],[],[],[],[],[],676.3047,678.2925,678.2925,678.2927,[],[],[],[],[],[],[],,678.2928,678.2929,0.357798048,0.027330998,0,0,0,,0,115,115,111,1,1,word,INDICATE,cursive,indicate_c.png,,,,,
,,,,31919,001,2025-11-22_16h57.39.174,HW_LDT_1,2024.2.4,MacIntel,60.24096386,,,,,,,,,,,,,,,,,,,,678.2956,678.4877,678.4878,678.9868,,,,,,,,,,,,,,3.5724,1,,,,,,,,,,,,,,z,,,,,,,,,,,,,,,117,0,678.9875,682.571,z,1,3.5724,,[],[],[],[],[],[],[],682.5711,684.5711,684.5711,684.5715,[],[],[],[],[],[],[],,684.5715,684.5716,0.357798048,0.027330998,0,0,0,,0,116,116,15,1,1,RL,losipal,cursive,losipal_c.png,,,,,
,,,,31919,001,2025-11-22_16h57.39.174,HW_LDT_1,2024.2.4,MacIntel,60.24096386,,,,,,,,,,,,,,,,,,,,684.5729,684.7708,684.7709,685.27,,,,,,,,,,,,,,1.8049,1,,,,,,,,,,,,,,m,,,,,,,,,,,,,,,118,0,685.2706,687.0878,m,1,1.8049,,[],[],[],[],[],[],[],687.0879,689.0877,689.0878,689.0881,[],[],[],[],[],[],[],,689.0881,689.0883,0.357798048,0.027330998,0,0,0,,0,117,117,155,1,1,word,STRATEGY,cursive,strategy_c.png,,,,,
,,,,31919,001,2025-11-22_16h57.39.174,HW_LDT_1,2024.2.4,MacIntel,60.24096386,,,,,,,,,,,,,,,,,,,,689.0895,689.2871,689.2873,689.7877,,,,,,,,,,,,,,2.9733,1,,,,,,,,,,,,,,z,,,,,,,,,,,,,,,119,0,689.7884,692.7702,z,1,2.9733,,[],[],[],[],[],[],[],692.7703,694.771,694.7711,694.7713,[],[],[],[],[],[],[],,694.7713,694.7714,0.357798048,0.027330998,0,0,0,,0,118,118,33,1,1,RL,recile,cursive,recile_c.png,,,,,
,,,,31919,001,2025-11-22_16h57.39.174,HW_LDT_1,2024.2.4,MacIntel,60.24096386,,,,,,,,,,,,,,,,,,,,694.7728,694.97,694.97,695.4706,,,,,,,,,,,,,,2.6212,1,,,,,,,,,,,,,,z,,,,,,,,,,,,,,,120,0,695.4714,698.1044,z,1,2.6212,,[],[],[],[],[],[],[],698.1045,700.1044,700.1044,700.1047,[],[],[],[],[],[],[],,700.1047,700.105,0.357798048,0.027330998,0,0,0,,0,119,119,0,1,1,RL,abanemy,cursive,abanemy_c.png,,,,,
,,,,31919,001,2025-11-22_16h57.39.174,HW_LDT_1,2024.2.4,MacIntel,60.24096386,,,,,,,,,,,,,,,,,,,,700.1064,700.3043,700.3044,700.8043,,,,,,,,,,,,,,0.9568,1,,,,,,,,,,,,,,z,,,,,,,,,,,,,,,121,1,700.805,701.7711,z,1,0.9568,,[],[],[],[],[],[],[],701.7717,703.7704,703.7705,704.5711,[],[],[],[],[],[],[],m,704.5712,704.5713,0.357798048,0.027330998,0,0,0,,0,120,120,43,1,1,TL,bedise,print,bedise_p.png,0.791,,,,
,,,,31919,001,2025-11-22_16h57.39.174,HW_LDT_1,2024.2.4,MacIntel,60.24096386,,,,,,,,,,,,,,,,,,,,704.5726,704.7699,704.7699,705.271,,,,,,,,,,,,,,2.0371,1,,,,,,,,,,,,,,z,,,,,,,,,,,,,,,122,0,705.2717,707.3212,z,1,2.0371,,[],[],[],[],[],[],[],707.3212,709.3204,709.3206,709.3207,[],[],[],[],[],[],[],,709.3208,709.3211,0.357798048,0.027330998,0,0,0,,0,121,121,63,1,1,TL,molibe,cursive,molibe_c.png,,,,,
,,,,31919,001,2025-11-22_16h57.39.174,HW_LDT_1,2024.2.4,MacIntel,60.24096386,,,,,,,,,,,,,,,,,,,,709.3225,709.5209,709.521,710.021,,,,,,,,,,,,,,2.7703,1,,,,,,,,,,,,,,z,,,,,,,,,,,,,,,123,0,710.0216,712.8044,z,1,2.7703,,[],[],[],[],[],[],[],712.8045,714.8034,714.8034,714.8036,[],[],[],[],[],[],[],,714.8037,714.8038,0.357798048,0.027330998,0,0,0,,0,122,122,1,1,1,RL,adnicory,cursive,adnicory_c.png,,,,,
,,,,31919,001,2025-11-22_16h57.39.174,HW_LDT_1,2024.2.4,MacIntel,60.24096386,,,,,,,,,,,,,,,,,,,,714.805,715.0033,715.0034,715.5041,,,,,,,,,,,,,,1.6705,1,,,,,,,,,,,,,,m,,,,,,,,,,,,,,,124,0,715.5047,717.1869,m,1,1.6705,,[],[],[],[],[],[],[],717.1869,719.1876,719.1877,719.1878,[],[],[],[],[],[],[],,719.1879,719.188,0.357798048,0.027330998,0,0,0,,0,123,123,157,1,1,word,VALIDITY,cursive,validity_c.png,,,,,
,,,,31919,001,2025-11-22_16h57.39.174,HW_LDT_1,2024.2.4,MacIntel,60.24096386,,,,,,,,,,,,,,,,,,,,719.1892,719.3866,719.3867,719.8875,,,,,,,,,,,,,,1.7531,1,,,,,,,,,,,,,,m,,,,,,,,,,,,,,,125,0,719.8882,721.6543,m,1,1.7531,,[],[],[],[],[],[],[],721.6544,723.6531,723.6532,723.6533,[],[],[],[],[],[],[],,723.6533,723.6533,0.357798048,0.027330998,0,0,0,,0,124,124,138,1,1,word,REFUSAL,print,refusal_p.png,,,,,
,,,,31919,001,2025-11-22_16h57.39.174,HW_LDT_1,2024.2.4,MacIntel,60.24096386,,,,,,,,,,,,,,,,,,,,723.6544,723.8533,723.8534,724.3537,,,,,,,,,,,,,,1.3738,1,,,,,,,,,,,,,,m,,,,,,,,,,,,,,,126,0,724.3544,725.7364,m,1,1.3738,,[],[],[],[],[],[],[],725.7364,727.7376,727.7376,727.7378,[],[],[],[],[],[],[],,727.7378,727.7379,0.357798048,0.027330998,0,0,0,,0,125,125,110,1,1,word,HERITAGE,cursive,heritage_c.png,,,,,
,,,,31919,001,2025-11-22_16h57.39.174,HW_LDT_1,2024.2.4,MacIntel,60.24096386,,,,,,,,,,,,,,,,,,,,727.739,727.9375,727.9376,728.4376,,,,,,,,,,,,,,0.9045,1,,,,,,,,,,,,,,m,,,,,,,,,,,,,,,127,0,728.4384,729.3543,m,1,0.9045,,[],[],[],[],[],[],[],729.3544,731.3542,731.3543,731.3545,[],[],[],[],[],[],[],,731.3545,731.3546,0.357798048,0.027330998,0,0,0,,0,126,126,147,1,1,word,ROMANTIC,cursive,romantic_c.png,,,,,
,,,,31919,001,2025-11-22_16h57.39.174,HW_LDT_1,2024.2.4,MacIntel,60.24096386,,,,,,,,,,,,,,,,,,,,731.3558,731.5542,731.5543,732.0543,,,,,,,,,,,,,,1.137,0,,,,,,,,,,,,,,z,,,,,,,,,,,,,,,128,1,732.0549,733.2045,m,0,1.137,,[],[],[],[],[],[],[],733.2046,735.2043,735.2043,736.6206,[],[],[],[],[],[],[],z,736.6207,736.6211,0.357798048,0.027330998,0,0,0,,0,127,127,71,1,1,TL,regilion,cursive,regilion_c.png,1.4059,,,,
,,,,31919,001,2025-11-22_16h57.39.174,HW_LDT_1,2024.2.4,MacIntel,60.24096386,,,,,,,,,,,,,,,,,,,,736.6233,736.821,736.821,737.32,,,,,,,,,,,,,,3.1049,1,,,,,,,,,,,,,,m,,,,,,,,,,,,,,,129,0,737.3212,740.4377,m,1,3.1049,,[],[],[],[],[],[],[],740.4378,742.4375,742.4376,742.4378,[],[],[],[],[],[],[],,742.4381,742.4383,0.357798048,0.027330998,0,0,0,,0,128,128,137,1,1,word,RAPIDLY,cursive,rapidly_c.png,,,,,
,,,,31919,001,2025-11-22_16h57.39.174,HW_LDT_1,2024.2.4,MacIntel,60.24096386,,,,,,,,,,,,,,,,,,,,742.4396,742.6374,742.6375,743.1375,,,,,,,,,,,,,,0.8814,1,,,,,,,,,,,,,,z,,,,,,,,,,,,,,,130,0,743.1383,744.0213,z,1,0.8814,,[],[],[],[],[],[],[],744.0215,746.0209,746.021,746.0212,[],[],[],[],[],[],[],,746.0213,746.0213,0.357798048,0.027330998,0,0,0,,0,129,129,22,1,1,RL,patisic,print,patisic_p.png,,,,,
,,,,31919,001,2025-11-22_16h57.39.174,HW_LDT_1,2024.2.4,MacIntel,60.24096386,,,,,,,,,,,,,,,,,,,,746.0224,746.2208,746.2208,746.721,,,,,,,,,,,,,,1.938,0,,,,,,,,,,,,,,m,,,,,,,,,,,,,,,131,0,746.7214,748.6707,z,0,1.938,,[],[],[],[],[],[],[],748.6707,750.6705,750.6706,750.6708,[],[],[],[],[],[],[],,750.6708,750.6709,0.357798048,0.027330998,0,0,0,,0,130,130,105,1,1,word,EDITOR,cursive,editor_c.png,,,,,
,,,,31919,001,2025-11-22_16h57.39.174,HW_LDT_1,2024.2.4,MacIntel,60.24096386,,,,,,,,,,,,,,,,,,,,750.6721,750.8707,750.8708,751.3708,,,,,,,,,,,,,,1.0369,1,,,,,,,,,,,,,,m,,,,,,,,,,,,,,,132,0,751.3713,752.421,m,1,1.0369,,[],[],[],[],[],[],[],752.4211,754.4203,754.4203,754.4206,[],[],[],[],[],[],[],,754.4206,754.4206,0.357798048,0.027330998,0,0,0,,0,131,131,144,1,1,word,RESIDENT,print,resident_p.png,,,,,
,,,,31919,001,2025-11-22_16h57.39.174,HW_LDT_1,2024.2.4,MacIntel,60.24096386,,,,,,,,,,,,,,,,,,,,754.4217,754.6204,754.6205,755.1209,,,,,,,,,,,,,,0.6644,1,,,,,,,,,,,,,,z,,,,,,,,,,,,,,,133,0,755.1215,755.7875,z,1,0.6644,,[],[],[],[],[],[],[],755.7876,757.7878,757.788,757.7882,[],[],[],[],[],[],[],,757.7882,757.7884,0.357798048,0.027330998,0,0,0,,0,132,132,60,1,1,TL,manire,print,manire_p.png,,,,,
,,,,31919,001,2025-11-22_16h57.39.174,HW_LDT_1,2024.2.4,MacIntel,60.24096386,,,,,,,,,,,,,,,,,,,,757.7896,757.9875,757.9875,758.4874,,,,,,,,,,,,,,0.989,1,,,,,,,,,,,,,,m,,,,,,,,,,,,,,,134,1,758.4878,759.4875,m,1,0.989,,[],[],[],[],[],[],[],759.4878,761.4877,761.4877,762.854,[],[],[],[],[],[],[],z,762.8541,762.8543,0.357798048,0.027330998,0,0,0,,0,133,133,92,1,1,word,CATEGORY,print,category_p.png,1.3552,,,,
,,,,31919,001,2025-11-22_16h57.39.174,HW_LDT_1,2024.2.4,MacIntel,60.24096386,,,,,,,,,,,,,,,,,,,,762.8556,763.0539,763.0539,763.5539,,,,,,,,,,,,,,1.4658,1,,,,,,,,,,,,,,z,,,,,,,,,,,,,,,135,0,763.5544,765.0212,z,1,1.4658,,[],[],[],[],[],[],[],765.0214,767.0206,767.0207,767.021,[],[],[],[],[],[],[],,767.021,767.0211,0.357798048,0.027330998,0,0,0,,0,134,134,73,1,1,TL,ronamtic,cursive,ronamtic_c.png,,,,,
,,,,31919,001,2025-11-22_16h57.39.174,HW_LDT_1,2024.2.4,MacIntel,60.24096386,,,,,,,,,,,,,,,,,,,,767.0221,767.2211,767.2211,767.7208,,,,,,,,,,,,,,2.8382,1,,,,,,,,,,,,,,z,,,,,,,,,,,,,,,136,0,767.7215,770.5708,z,1,2.8382,,[],[],[],[],[],[],[],770.571,772.5699,772.5701,772.5702,[],[],[],[],[],[],[],,772.5703,772.5704,0.357798048,0.027330998,0,0,0,,0,135,135,17,1,1,RL,menowy,cursive,menowy_c.png,,,,,
,,,,31919,001,2025-11-22_16h57.39.174,HW_LDT_1,2024.2.4,MacIntel,60.24096386,,,,,,,,,,,,,,,,,,,,772.5716,772.7709,772.771,773.2709,,,,,,,,,,,,,,0.8226,1,,,,,,,,,,,,,,z,,,,,,,,,,,,,,,137,0,773.2716,774.1039,z,1,0.8226,,[],[],[],[],[],[],[],774.104,776.1041,776.1041,776.1042,[],[],[],[],[],[],[],,776.1043,776.1044,0.357798048,0.027330998,0,0,0,,0,136,136,4,1,1,RL,carminal,print,carminal_p.png,,,,,
,,,,31919,001,2025-11-22_16h57.39.174,HW_LDT_1,2024.2.4,MacIntel,60.24096386,,,,,,,,,,,,,,,,,,,,776.1057,776.3041,776.3041,776.8041,,,,,,,,,,,,,,1.6649,1,,,,,,,,,,,,,,m,,,,,,,,,,,,,,,138,1,776.8047,778.4708,m,1,1.6649,,[],[],[],[],[],[],[],778.471,780.4707,780.4708,781.0708,[],[],[],[],[],[],[],z,781.0709,781.0711,0.357798048,0.027330998,0,0,0,,0,137,137,119,1,1,word,MEMORY,cursive,memory_c.png,0.59,,,,
,,,,31919,001,2025-11-22_16h57.39.174,HW_LDT_1,2024.2.4,MacIntel,60.24096386,,,,,,,,,,,,,,,,,,,,781.0721,781.2706,781.2707,781.7707,,,,,,,,,,,,,,0.9483,1,,,,,,,,,,,,,,m,,,,,,,,,,,,,,,139,0,781.7713,782.7207,m,1,0.9483,,[],[],[],[],[],[],[],782.7208,784.7207,784.7207,784.7208,[],[],[],[],[],[],[],,784.7209,784.721,0.357798048,0.027330998,0,0,0,,0,138,138,136,1,1,word,RADICAL,print,radical_p.png,,,,,
,,,,31919,001,2025-11-22_16h57.39.174,HW_LDT_1,2024.2.4,MacIntel,60.24096386,,,,,,,,,,,,,,,,,,,,784.7222,784.9207,784.9208,785.4207,,,,,,,,,,,,,,2.2899,1,,,,,,,,,,,,,,z,,,,,,,,,,,,,,,140,1,785.4213,787.7208,z,1,2.2899,,[],[],[],[],[],[],[],787.7209,789.7195,789.7195,791.0707,[],[],[],[],[],[],[],z,791.0707,791.0709,0.357798048,0.027330998,0,0,0,,0,139,139,50,1,1,TL,condiser,cursive,condiser_c.png,1.34,,,,
,,,,31919,001,2025-11-22_16h57.39.174,HW_LDT_1,2024.2.4,MacIntel,60.24096386,,,,,,,,,,,,,,,,,,,,791.0718,791.2704,791.2704,791.7707,,,,,,,,,,,,,,1.5884,1,,,,,,,,,,,,,,m,,,,,,,,,,,,,,,141,1,791.7714,793.3708,m,1,1.5884,,[],[],[],[],[],[],[],793.3709,795.3703,795.3706,798.4373,[],[],[],[],[],[],[],m,798.4375,798.4377,0.357798048,0.027330998,0,0,0,,0,140,140,90,1,1,word,CAPITAL,print,capital_p.png,3.0569,,,,
,,,,31919,001,2025-11-22_16h57.39.174,HW_LDT_1,2024.2.4,MacIntel,60.24096386,,,,,,,,,,,,,,,,,,,,798.4404,798.6373,798.6373,799.1373,,,,,,,,,,,,,,2.307,1,,,,,,,,,,,,,,z,,,,,,,,,,,,,,,142,0,799.1383,801.4539,z,1,2.307,,[],[],[],[],[],[],[],801.454,803.4539,803.4539,803.454,[],[],[],[],[],[],[],,803.4541,803.4543,0.357798048,0.027330998,0,0,0,,0,141,141,67,1,1,TL,pocily,cursive,pocily_c.png,,,,,
,,,,31919,001,2025-11-22_16h57.39.174,HW_LDT_1,2024.2.4,MacIntel,60.24096386,,,,,,,,,,,,,,,,,,,,803.4556,803.6539,803.654,804.1539,,,,,,,,,,,,,,3.1372,1,,,,,,,,,,,,,,z,,,,,,,,,,,,,,,143,0,804.1547,807.3037,z,1,3.1372,,[],[],[],[],[],[],[],807.3037,809.3031,809.3032,809.3034,[],[],[],[],[],[],[],,809.3035,809.3036,0.357798048,0.027330998,0,0,0,,0,142,142,36,1,1,RL,speniven,cursive,speniven_c.png,,,,,
,,,,31919,001,2025-11-22_16h57.39.174,HW_LDT_1,2024.2.4,MacIntel,60.24096386,,,,,,,,,,,,,,,,,,,,809.3052,809.5039,809.5039,810.0038,,,,,,,,,,,,,,1.1979,1,,,,,,,,,,,,,,m,,,,,,,,,,,,,,,144,1,810.0046,811.2039,m,1,1.1979,,[],[],[],[],[],[],[],811.2039,813.2044,813.2047,814.4869,[],[],[],[],[],[],[],z,814.4871,814.4872,0.357798048,0.027330998,0,0,0,,0,143,143,116,1,1,word,MARGINAL,print,marginal_p.png,1.2745,,,,
,,,,31919,001,2025-11-22_16h57.39.174,HW_LDT_1,2024.2.4,MacIntel,60.24096386,,,,,,,,,,,,,,,,,,,,814.4889,814.6873,814.6873,815.1871,,,,,,,,,,,,,,1.2586,0,,,,,,,,,,,,,,m,,,,,,,,,,,,,,,145,0,815.1878,816.4538,z,0,1.2586,,[],[],[],[],[],[],[],816.4538,818.4535,818.4536,818.4539,[],[],[],[],[],[],[],,818.454,818.4542,0.357798048,0.027330998,0,0,0,,0,144,144,94,1,1,word,CLINICAL,cursive,clinical_c.png,,,,,
,,,,31919,001,2025-11-22_16h57.39.174,HW_LDT_1,2024.2.4,MacIntel,60.24096386,,,,,,,,,,,,,,,,,,,,818.4574,818.6538,818.6538,819.1539,,,,,,,,,,,,,,4.94,1,,,,,,,,,,,,,,z,,,,,,,,,,,,,,,146,0,819.1548,824.1037,z,1,4.94,,[],[],[],[],[],[],[],824.1037,826.1039,826.1039,826.1043,[],[],[],[],[],[],[],,826.1043,826.1044,0.357798048,0.027330998,0,0,0,,0,145,145,48,1,1,TL,cemerony,cursive,cemerony_c.png,,,,,
,,,,31919,001,2025-11-22_16h57.39.174,HW_LDT_1,2024.2.4,MacIntel,60.24096386,,,,,,,,,,,,,,,,,,,,826.1062,826.3035,826.3035,826.8038,,,,,,,,,,,,,,1.088,1,,,,,,,,,,,,,,m,,,,,,,,,,,,,,,147,0,826.8046,827.9038,m,1,1.088,,[],[],[],[],[],[],[],827.9038,829.9039,829.904,829.9043,[],[],[],[],[],[],[],,829.9044,829.9044,0.357798048,0.027330998,0,0,0,,0,146,146,108,1,1,word,FORTUNE,print,fortune_p.png,,,,,
,,,,31919,001,2025-11-22_16h57.39.174,HW_LDT_1,2024.2.4,MacIntel,60.24096386,,,,,,,,,,,,,,,,,,,,829.9063,830.1037,830.1038,830.6038,,,,,,,,,,,,,,2.6922,0,,,,,,,,,,,,,,m,,,,,,,,,,,,,,,148,0,830.6045,833.3037,z,0,2.6922,,[],[],[],[],[],[],[],833.3037,835.3035,835.3035,835.3037,[],[],[],[],[],[],[],,835.3037,835.3039,0.357798048,0.027330998,0,0,0,,0,147,147,146,1,1,word,RETIRE,cursive,retire_c.png,,,,,
,,,,31919,001,2025-11-22_16h57.39.174,HW_LDT_1,2024.2.4,MacIntel,60.24096386,,,,,,,,,,,,,,,,,,,,835.3051,835.5038,835.5038,836.0037,,,,,,,,,,,,,,1.1582,1,,,,,,,,,,,,,,m,,,,,,,,,,,,,,,149,0,836.0045,837.1704,m,1,1.1582,,[],[],[],[],[],[],[],837.1705,839.1704,839.1705,839.1707,[],[],[],[],[],[],[],,839.1707,839.1708,0.357798048,0.027330998,0,0,0,,0,148,148,141,1,1,word,RELIGION,cursive,religion_c.png,,,,,
,,,,31919,001,2025-11-22_16h57.39.174,HW_LDT_1,2024.2.4,MacIntel,60.24096386,,,,,,,,,,,,,,,,,,,,839.1722,839.3703,839.3704,839.8697,,,,,,,,,,,,,,1.2046,1,,,,,,,,,,,,,,m,,,,,,,,,,,,,,,150,0,839.8704,841.087,m,1,1.2046,,[],[],[],[],[],[],[],841.0871,843.0871,843.0871,843.0873,[],[],[],[],[],[],[],,843.0874,843.0876,0.357798048,0.027330998,0,0,0,,0,149,149,122,1,1,word,MOBILE,cursive,mobile_c.png,,,,,
,,,,31919,001,2025-11-22_16h57.39.174,HW_LDT_1,2024.2.4,MacIntel,60.24096386,,,,,,,,,,,,,,,,,,,,843.0887,843.2872,843.2873,843.7871,,,,,,,,,,,,,,1.1867,1,,,,,,,,,,,,,,z,,,,,,,,,,,,,,,151,0,843.7876,844.9872,z,1,1.1867,,[],[],[],[],[],[],[],844.9872,846.987,846.9871,846.9873,[],[],[],[],[],[],[],,846.9874,846.9876,0.357798048,0.027330998,0,0,0,,0,150,150,74,1,1,TL,setanor,cursive,setanor_c.png,,,,,
,,,,31919,001,2025-11-22_16h57.39.174,HW_LDT_1,2024.2.4,MacIntel,60.24096386,,,,,,,,,,,,,,,,,,,,846.9892,847.1869,847.1869,847.686,,,,,,,,,,,,,,1.0783,1,,,,,,,,,,,,,,z,,,,,,,,,,,,,,,152,0,847.6867,848.7701,z,1,1.0783,,[],[],[],[],[],[],[],848.7702,850.7703,850.7704,850.7707,[],[],[],[],[],[],[],,850.7707,850.7709,0.357798048,0.027330998,0,0,0,,0,151,151,21,1,1,RL,opcifal,print,opcifal_p.png,,,,,
,,,,31919,001,2025-11-22_16h57.39.174,HW_LDT_1,2024.2.4,MacIntel,60.24096386,,,,,,,,,,,,,,,,,,,,850.7722,850.9703,850.9703,851.4703,,,,,,,,,,,,,,2.8204,0,,,,,,,,,,,,,,z,,,,,,,,,,,,,,,153,0,851.471,854.3039,m,0,2.8204,,[],[],[],[],[],[],[],854.3041,856.3037,856.3038,856.3041,[],[],[],[],[],[],[],,856.3041,856.3043,0.357798048,0.027330998,0,0,0,,0,152,152,66,1,1,TL,panert,cursive,panert_c.png,,,,,
,,,,31919,001,2025-11-22_16h57.39.174,HW_LDT_1,2024.2.4,MacIntel,60.24096386,,,,,,,,,,,,,,,,,,,,856.3053,856.5026,856.5026,857.0027,,,,,,,,,,,,,,2.8716,1,,,,,,,,,,,,,,z,,,,,,,,,,,,,,,154,0,857.0035,859.8872,z,1,2.8716,,[],[],[],[],[],[],[],859.8872,861.8869,861.887,861.8872,[],[],[],[],[],[],[],,861.8872,861.8874,0.357798048,0.027330998,0,0,0,,0,153,153,10,1,1,RL,efibor,cursive,efibor_c.png,,,,,
,,,,31919,001,2025-11-22_16h57.39.174,HW_LDT_1,2024.2.4,MacIntel,60.24096386,,,,,,,,,,,,,,,,,,,,861.8889,862.0869,862.087,862.5866,,,,,,,,,,,,,,0.754,1,,,,,,,,,,,,,,z,,,,,,,,,,,,,,,155,1,862.5873,863.3538,z,1,0.754,,[],[],[],[],[],[],[],863.3538,865.3536,865.3537,866.0035,[],[],[],[],[],[],[],m,866.0036,866.0037,0.357798048,0.027330998,0,0,0,,0,154,154,12,1,1,RL,ebiwent,print,ebiwent_p.png,0.6414,,,,
,,,,31919,001,2025-11-22_16h57.39.174,HW_LDT_1,2024.2.4,MacIntel,60.24096386,,,,,,,,,,,,,,,,,,,,866.0047,866.2037,866.2037,866.7036,,,,,,,,,,,,,,1.0373,1,,,,,,,,,,,,,,z,,,,,,,,,,,,,,,156,1,866.7044,867.7528,z,1,1.0373,,[],[],[],[],[],[],[],867.7529,869.7538,869.7538,870.9203,[],[],[],[],[],[],[],m,870.9204,870.9205,0.357798048,0.027330998,0,0,0,,0,155,155,55,1,1,TL,fornute,print,fornute_p.png,1.155,,,,
,,,,31919,001,2025-11-22_16h57.39.174,HW_LDT_1,2024.2.4,MacIntel,60.24096386,,,,,,,,,,,,,,,,,,,,870.9214,871.1201,871.1201,871.6202,,,,,,,,,,,,,,2.0816,1,,,,,,,,,,,,,,z,,,,,,,,,,,,,,,157,0,871.6209,873.7036,z,1,2.0816,,[],[],[],[],[],[],[],873.7036,875.7036,875.7037,875.7038,[],[],[],[],[],[],[],,875.7038,875.7041,0.357798048,0.027330998,0,0,0,,0,156,156,69,1,1,TL,radiply,cursive,radiply_c.png,,,,,
,,,,31919,001,2025-11-22_16h57.39.174,HW_LDT_1,2024.2.4,MacIntel,60.24096386,,,,,,,,,,,,,,,,,,,,875.7054,875.9036,875.9038,876.4034,,,,,,,,,,,,,,1.6387,1,,,,,,,,,,,,,,m,,,,,,,,,,,,,,,158,0,876.4041,878.0536,m,1,1.6387,,[],[],[],[],[],[],[],878.0537,880.0536,880.0539,880.0542,[],[],[],[],[],[],[],,880.0543,880.0544,0.357798048,0.027330998,0,0,0,,0,157,157,107,1,1,word,EVIDENT,print,evident_p.png,,,,,
,,,,31919,001,2025-11-22_16h57.39.174,HW_LDT_1,2024.2.4,MacIntel,60.24096386,,,,,,,,,,,,,,,,,,,,880.0557,880.2535,880.2536,880.7535,,,,,,,,,,,,,,2.4537,1,,,,,,,,,,,,,,m,,,,,,,,,,,,,,,159,0,880.754,883.2199,m,1,2.4537,,[],[],[],[],[],[],[],883.2199,885.2203,885.2203,885.2206,[],[],[],[],[],[],[],,885.2206,885.2208,0.357798048,0.027330998,0,0,0,,0,158,158,132,1,1,word,PROPOSAL,cursive,proposal_c.png,,,,,
,,,,31919,001,2025-11-22_16h57.39.174,HW_LDT_1,2024.2.4,MacIntel,60.24096386,,,,,,,,,,,,,,,,,,,,885.2223,885.4196,885.4197,885.9193,,,,,,,,,,,,,,0.7715,1,,,,,,,,,,,,,,m,,,,,,,,,,,,,,,160,0,885.9202,886.7035,m,1,0.7715,,[],[],[],[],[],[],[],886.7036,888.7035,888.7036,888.7037,[],[],[],[],[],[],[],,888.7038,888.7039,0.357798048,0.027330998,0,0,0,,0,159,159,117,1,1,word,MARINE,print,marine_p.png,,,,,
,,,,31919,001,2025-11-22_16h57.39.174,HW_LDT_1,2024.2.4,MacIntel,60.24096386,,,,,,,,,,,,,,,,,,,,,,,,,,,,,,,,,,,,,,,,,,,,,,,,,,,,,,,,,,,,,,,,,,,,,,,,,,,,,,,,,,,,,,,,,,,,,,,,,,,,,,,,,,,,,,,,,,,888.7209,893.7028
