counterbalance_lists.group,counterbalance_lists.remaining,get_list.started,get_list.stopped,participant,session,date,expName,psychopyVersion,OS,frameRate,Instructions.started,Instructions.stopped,key_resp.keys,instr_done_touch.x,instr_done_touch.y,instr_done_touch.leftButton,instr_done_touch.midButton,instr_done_touch.rightButton,instr_done_touch.clicked_name,start_instr.thisRepN,start_instr.thisTrialN,start_instr.thisN,start_instr.thisIndex,start_instr.ran,pageN,phase,instruct_text,has_image,instruct_image,showProgress.started,showProgress.stopped,fix.started,fix.stopped,prac.started,prac.stopped,response.keys,response.corr,response.rt,response.duration,touch_resp.x,touch_resp.y,touch_resp.leftButton,touch_resp.midButton,touch_resp.rightButton,touch_resp.time,touch_resp.clicked_name,rt,corr,feedback.started,feedback.stopped,trials.thisRepN,trials.thisTrialN,trials.thisN,trials.thisIndex,trials.ran,TrialID,StimulusType,Condition,PrimeDuration,Prime,Target,corrAns,Instructions_expt.started,Instructions_expt.stopped,key_resp_3.keys,instr_done_touch_3.x,instr_done_touch_3.y,instr_done_touch_3.leftButton,instr_done_touch_3.midButton,instr_done_touch_3.rightButton,instr_done_touch_3.clicked_name,instr_experiment.thisRepN,instr_experiment.thisTrialN,instr_experiment.thisN,instr_experiment.thisIndex,instr_experiment.ran,trialID,flag,maintask.started,maintask.stopped,key_resp_2.keys,key_resp_2.corr,key_resp_2.rt,key_resp_2.duration,targ_click.x,targ_click.y,targ_click.leftButton,targ_click.midButton,targ_click.rightButton,targ_click.time,targ_click.clicked_name,ITI.started,ITI.stopped,probe.started,probe.stopped,click_probe.x,click_probe.y,click_probe.leftButton,click_probe.midButton,click_probe.rightButton,click_probe.time,click_probe.clicked_name,key_resp_probe.keys,Break.started,Break.stopped,break_done_touch.x,break_done_touch.y,break_done_touch.leftButton,break_done_touch.midButton,break_done_touch.rightButton,break_done_keyboard.keys,list1_trials.thisRepN,list1_trials.thisTrialN,list1_trials.thisN,list1_trials.thisIndex,list1_trials.ran,list_id,item_type,string,font,stim_file,key_resp_probe.rt,key_resp_probe.duration,break_done_keyboard.rt,break_done_keyboard.duration,End.started,End.stopped
list1,,0.411,0.412,31926,001,2025-10-19_17h03.40.985,HW_LDT_1,2024.2.4,MacIntel,250,,,,,,,,,,,,,,,,,,,,,,,,,,,,,,,,,,,,,,,,,,,,,,,,,,,,,,,,,,,,,,,,,,,,,,,,,,,,,,,,,,,,,,,,,,,,,,,,,,,,,,,,,,,,,,,,,,,,,
,,,,31926,001,2025-10-19_17h03.40.985,HW_LDT_1,2024.2.4,MacIntel,250,0.432,3.208,,0.014444444,-0.388888889,1,0,0,instr_done_button,0,0,0,0,1,1,instructions,"INSTRUCTIONS
At the start of each trial, look at the plus sign  (+) in the center of the screen.  This tells you that a trial is about to begin and where to look. Second, the plus sign will disappear and a string of letters will appear. Your task is to determine if the string of letters is a word or not. If the item is a word press the M key (on keyboard)  or touch the word button (phone/tablet).  If the item is not a word,  press the  Z key (on keyboard)  or touch the nonword button (on phone/tablet). The items will be presented for a short time. 
Press the space bar or touch  continue.",0,,,,,,,,,,,,,,,,,,,,,,,,,,,,,,,,,,,,,,,,,,,,,,,,,,,,,,,,,,,,,,,,,,,,,,,,,,,,,,,,,,,,,,,,,,,,,,,,,,,
,,,,31926,001,2025-10-19_17h03.40.985,HW_LDT_1,2024.2.4,MacIntel,250,3.21,3.79,,0.014444444,-0.388888889,1,0,0,instr_done_button,0,1,1,1,1,2,instructions,"If your device has a keyboard, press the 'Z' key for nonwords and the 'M' key for words.





Press the space bar or touch the button below to continue.",0,keyboard-example.gif,,,,,,,,,,,,,,,,,,,,,,,,,,,,,,,,,,,,,,,,,,,,,,,,,,,,,,,,,,,,,,,,,,,,,,,,,,,,,,,,,,,,,,,,,,,,,,,,,,
,,,,31926,001,2025-10-19_17h03.40.985,HW_LDT_1,2024.2.4,MacIntel,250,3.793,4.34,,0.014444444,-0.388888889,1,0,0,instr_done_button,0,2,2,2,1,3,instructions,"If you are using a touchscreen only device, use the buttons on the screen. Do not use the mouse.





Press the space bar or touch the button below to continue.",0,touchscreen-example.gif,,,,,,,,,,,,,,,,,,,,,,,,,,,,,,,,,,,,,,,,,,,,,,,,,,,,,,,,,,,,,,,,,,,,,,,,,,,,,,,,,,,,,,,,,,,,,,,,,,
,,,,31926,001,2025-10-19_17h03.40.985,HW_LDT_1,2024.2.4,MacIntel,250,4.341,5.374,,0.014444444,-0.388888889,1,0,0,instr_done_button,0,3,3,3,1,4,instructions,"It is very important that you respond as quickly and accurately as possible, as each letter string will only be on the screen for two seconds. If you do not respond within this time, the message 'Too slow!' will be displayed and the experiment will progress to the next letter string. The first 20 trials will be practice trials and you will receive feedback on your answers. 

Press the space bar or touch the button below to start the practice trials.",0,,,,,,,,,,,,,,,,,,,,,,,,,,,,,,,,,,,,,,,,,,,,,,,,,,,,,,,,,,,,,,,,,,,,,,,,,,,,,,,,,,,,,,,,,,,,,,,,,,,
,,,,31926,001,2025-10-19_17h03.40.985,HW_LDT_1,2024.2.4,MacIntel,250,,,,,,,,,,,,,,,,,,,,5.389,5.574,5.575,6.074,6.074,9.825,m,1,3.728,,[],[],[],[],[],[],[],3.728,1,9.826,10.325,0,0,0,3,1,1004,WORD,"ID",16,matrix,MATRIX,m,,,,,,,,,,,,,,,,,,,,,,,,,,,,,,,,,,,,,,,,,,,,,,,,,,,,,,,,,,,,,,,,,
,,,,31926,001,2025-10-19_17h03.40.985,HW_LDT_1,2024.2.4,MacIntel,250,,,,,,,,,,,,,,,,,,,,10.326,10.523,10.523,11.024,11.025,12.557,m,1,1.514,,[],[],[],[],[],[],[],1.514,1,12.557,13.057,0,1,1,4,1,1005,WORD,UN,33,abound,SQUEAK,m,,,,,,,,,,,,,,,,,,,,,,,,,,,,,,,,,,,,,,,,,,,,,,,,,,,,,,,,,,,,,,,,,
,,,,31926,001,2025-10-19_17h03.40.985,HW_LDT_1,2024.2.4,MacIntel,250,,,,,,,,,,,,,,,,,,,,13.059,13.258,13.258,13.757,13.759,14.691,z,1,0.917,,[],[],[],[],[],[],[],0.917,1,14.691,15.191,0,2,2,10,1,1011,NW,"ID",16,inlade,INLADE,z,,,,,,,,,,,,,,,,,,,,,,,,,,,,,,,,,,,,,,,,,,,,,,,,,,,,,,,,,,,,,,,,,
,,,,31926,001,2025-10-19_17h03.40.985,HW_LDT_1,2024.2.4,MacIntel,250,,,,,,,,,,,,,,,,,,,,15.193,15.391,15.391,15.89,15.891,17.491,z,0,1.589,,[],[],[],[],[],[],[],1.589,0,17.492,17.991,0,3,3,2,1,1003,WORD,"ID",16,almond,ALMOND,m,,,,,,,,,,,,,,,,,,,,,,,,,,,,,,,,,,,,,,,,,,,,,,,,,,,,,,,,,,,,,,,,,
,,,,31926,001,2025-10-19_17h03.40.985,HW_LDT_1,2024.2.4,MacIntel,250,,,,,,,,,,,,,,,,,,,,17.994,18.191,18.191,18.691,18.692,19.474,z,0,0.765,,[],[],[],[],[],[],[],0.765,0,19.474,19.974,0,4,4,5,1,1006,WORD,UN,33,frenzy,OBTAIN,m,,,,,,,,,,,,,,,,,,,,,,,,,,,,,,,,,,,,,,,,,,,,,,,,,,,,,,,,,,,,,,,,,
,,,,31926,001,2025-10-19_17h03.40.985,HW_LDT_1,2024.2.4,MacIntel,250,,,,,,,,,,,,,,,,,,,,19.976,20.174,20.174,20.674,20.676,22.041,m,1,1.348,,[],[],[],[],[],[],[],1.348,1,22.042,22.541,0,5,5,0,1,1001,WORD,"ID",33,utopia,UTOPIA,m,,,,,,,,,,,,,,,,,,,,,,,,,,,,,,,,,,,,,,,,,,,,,,,,,,,,,,,,,,,,,,,,,
,,,,31926,001,2025-10-19_17h03.40.985,HW_LDT_1,2024.2.4,MacIntel,250,,,,,,,,,,,,,,,,,,,,22.542,22.741,22.741,23.241,23.243,24.276,m,1,1.021,,[],[],[],[],[],[],[],1.021,1,24.276,24.774,0,6,6,1,1,1002,WORD,"ID",33,adjust,ADJUST,m,,,,,,,,,,,,,,,,,,,,,,,,,,,,,,,,,,,,,,,,,,,,,,,,,,,,,,,,,,,,,,,,,
,,,,31926,001,2025-10-19_17h03.40.985,HW_LDT_1,2024.2.4,MacIntel,250,,,,,,,,,,,,,,,,,,,,24.776,24.975,24.975,25.474,25.475,26.807,m,1,1.316,,[],[],[],[],[],[],[],1.316,1,26.808,27.308,0,7,7,6,1,1007,WORD,UN,16,tropic,ZOMBIE,m,,,,,,,,,,,,,,,,,,,,,,,,,,,,,,,,,,,,,,,,,,,,,,,,,,,,,,,,,,,,,,,,,
,,,,31926,001,2025-10-19_17h03.40.985,HW_LDT_1,2024.2.4,MacIntel,250,,,,,,,,,,,,,,,,,,,,27.309,27.508,27.508,28.008,28.009,28.808,m,1,0.786,,[],[],[],[],[],[],[],0.786,1,28.808,29.308,0,8,8,7,1,1008,WORD,UN,16,hurdle,VOLUME,m,,,,,,,,,,,,,,,,,,,,,,,,,,,,,,,,,,,,,,,,,,,,,,,,,,,,,,,,,,,,,,,,,
,,,,31926,001,2025-10-19_17h03.40.985,HW_LDT_1,2024.2.4,MacIntel,250,,,,,,,,,,,,,,,,,,,,29.31,29.508,29.508,30.008,30.009,31.907,z,1,1.886,,[],[],[],[],[],[],[],1.886,1,31.908,32.407,0,9,9,13,1,1014,NW,UN,33,winfer,ROUPET,z,,,,,,,,,,,,,,,,,,,,,,,,,,,,,,,,,,,,,,,,,,,,,,,,,,,,,,,,,,,,,,,,,
,,,,31926,001,2025-10-19_17h03.40.985,HW_LDT_1,2024.2.4,MacIntel,250,,,,,,,,,,,,,,,,,,,,32.409,32.608,32.609,33.108,33.109,34.459,z,1,1.331,,[],[],[],[],[],[],[],1.331,1,34.459,34.958,0,10,10,11,1,1012,NW,"ID",16,rashet,RASHET,z,,,,,,,,,,,,,,,,,,,,,,,,,,,,,,,,,,,,,,,,,,,,,,,,,,,,,,,,,,,,,,,,,
,,,,31926,001,2025-10-19_17h03.40.985,HW_LDT_1,2024.2.4,MacIntel,250,,,,,,,,,,,,,,,,,,,,34.959,35.158,35.158,35.657,35.658,36.608,z,1,0.934,,[],[],[],[],[],[],[],0.934,1,36.609,37.109,0,11,11,14,1,1015,NW,UN,16,miaber,THRALE,z,,,,,,,,,,,,,,,,,,,,,,,,,,,,,,,,,,,,,,,,,,,,,,,,,,,,,,,,,,,,,,,,,
,,,,31926,001,2025-10-19_17h03.40.985,HW_LDT_1,2024.2.4,MacIntel,250,,,,,,,,,,,,,,,,,,,,37.11,37.309,37.309,37.808,37.81,38.825,z,1,0.997,,[],[],[],[],[],[],[],0.997,1,38.826,39.325,0,12,12,12,1,1013,NW,UN,33,adveil,SPRINY,z,,,,,,,,,,,,,,,,,,,,,,,,,,,,,,,,,,,,,,,,,,,,,,,,,,,,,,,,,,,,,,,,,
,,,,31926,001,2025-10-19_17h03.40.985,HW_LDT_1,2024.2.4,MacIntel,250,,,,,,,,,,,,,,,,,,,,39.326,39.525,39.525,40.025,40.027,41.742,z,1,1.699,,[],[],[],[],[],[],[],1.699,1,41.742,42.242,0,13,13,8,1,1009,NW,"ID",33,aslert,ASLERT,z,,,,,,,,,,,,,,,,,,,,,,,,,,,,,,,,,,,,,,,,,,,,,,,,,,,,,,,,,,,,,,,,,
,,,,31926,001,2025-10-19_17h03.40.985,HW_LDT_1,2024.2.4,MacIntel,250,,,,,,,,,,,,,,,,,,,,42.243,42.442,42.442,42.941,42.942,44.609,z,1,1.655,,[],[],[],[],[],[],[],1.655,1,44.609,45.109,0,14,14,9,1,1010,NW,"ID",33,fariny,FARINY,z,,,,,,,,,,,,,,,,,,,,,,,,,,,,,,,,,,,,,,,,,,,,,,,,,,,,,,,,,,,,,,,,,
,,,,31926,001,2025-10-19_17h03.40.985,HW_LDT_1,2024.2.4,MacIntel,250,,,,,,,,,,,,,,,,,,,,45.111,45.309,45.309,45.809,45.81,46.709,z,1,0.886,,[],[],[],[],[],[],[],0.886,1,46.709,47.209,0,15,15,15,1,1016,NW,UN,16,mushed,WHAISE,z,,,,,,,,,,,,,,,,,,,,,,,,,,,,,,,,,,,,,,,,,,,,,,,,,,,,,,,,,,,,,,,,,
,,,,31926,001,2025-10-19_17h03.40.985,HW_LDT_1,2024.2.4,MacIntel,250,,,,,,,,,,,,,,,1,end_of_practice,"You have completed the practice trials. During the experimental trials, you will not receive feedback. On some trials you will be asked to report whether the item you just saw was in cursive or print. 
Before you begin, please ensure that you are in a comfortable and quiet location and will not be disturbed for about 15 minutes, as we cannot use your data if you do not complete all the trials. 
 When you are ready to start the experimental trials, please press space or touch the button below.",,,,,,,,,,,,,,,,,,,,,,,,,,,,,,,,,,,,47.218,62.711,,0.014444444,-0.411111111,1,0,0,instr_done_button_3,0,0,0,0,1,,,,,,,,,,,,,,,,,,,,,,,,,,,,,,,,,,,,,,,,,,,,,,,,,,,
,,,,31926,001,2025-10-19_17h03.40.985,HW_LDT_1,2024.2.4,MacIntel,250,,,,,,,,,,,,,,,,,,,,62.721,62.91,62.91,63.41,,,,,,,,,,,,,,4.553,1,,,,,,,,,,,,,,z,,,,,,,,,,,,,,,1,0,63.412,67.979,z,1,4.553,,[],[],[],[],[],[],[],67.979,69.978,69.978,69.983,[],[],[],[],[],[],[],,69.984,69.986,0.014444444,-0.411111111,0,0,0,,0,0,0,19,1,1,RL,monebate,print,monebate_p.png,,,,,,
,,,,31926,001,2025-10-19_17h03.40.985,HW_LDT_1,2024.2.4,MacIntel,250,,,,,,,,,,,,,,,,,,,,69.987,70.177,70.177,70.677,,,,,,,,,,,,,,1.507,1,,,,,,,,,,,,,,z,,,,,,,,,,,,,,,2,0,70.678,72.194,z,1,1.507,,[],[],[],[],[],[],[],72.194,74.193,74.193,74.194,[],[],[],[],[],[],[],,74.194,74.194,0.014444444,-0.411111111,0,0,0,,0,1,1,28,1,1,RL,renutal,print,renutal_p.png,,,,,,
,,,,31926,001,2025-10-19_17h03.40.985,HW_LDT_1,2024.2.4,MacIntel,250,,,,,,,,,,,,,,,,,,,,74.196,74.394,74.394,74.894,,,,,,,,,,,,,,2.371,1,,,,,,,,,,,,,,z,,,,,,,,,,,,,,,3,0,74.895,77.277,z,1,2.371,,[],[],[],[],[],[],[],77.278,79.277,79.277,79.278,[],[],[],[],[],[],[],,79.278,79.278,0.014444444,-0.411111111,0,0,0,,0,2,2,6,1,1,RL,crisival,print,crisival_p.png,,,,,,
,,,,31926,001,2025-10-19_17h03.40.985,HW_LDT_1,2024.2.4,MacIntel,250,,,,,,,,,,,,,,,,,,,,79.279,79.477,79.478,79.977,,,,,,,,,,,,,,0.807,1,,,,,,,,,,,,,,m,,,,,,,,,,,,,,,4,0,79.978,80.794,m,1,0.807,,[],[],[],[],[],[],[],80.794,82.794,82.794,82.795,[],[],[],[],[],[],[],,82.795,82.795,0.014444444,-0.411111111,0,0,0,,0,3,3,107,1,1,word,EVIDENT,print,evident_p.png,,,,,,
,,,,31926,001,2025-10-19_17h03.40.985,HW_LDT_1,2024.2.4,MacIntel,250,,,,,,,,,,,,,,,,,,,,82.796,82.994,82.994,83.494,,,,,,,,,,,,,,1.004,1,,,,,,,,,,,,,,z,,,,,,,,,,,,,,,5,1,83.495,84.511,z,1,1.004,,[],[],[],[],[],[],[],84.511,86.511,86.511,90.227,[],[],[],[],[],[],[],m,90.227,90.228,0.014444444,-0.411111111,0,0,0,,0,4,4,12,1,1,RL,ebiwent,print,ebiwent_p.png,3.706,,,,,
,,,,31926,001,2025-10-19_17h03.40.985,HW_LDT_1,2024.2.4,MacIntel,250,,,,,,,,,,,,,,,,,,,,90.229,90.428,90.428,90.928,,,,,,,,,,,,,,1.322,1,,,,,,,,,,,,,,z,,,,,,,,,,,,,,,6,0,90.928,92.262,z,1,1.322,,[],[],[],[],[],[],[],92.262,94.261,94.261,94.262,[],[],[],[],[],[],[],,94.262,94.262,0.014444444,-0.411111111,0,0,0,,0,5,5,24,1,1,RL,probice,print,probice_p.png,,,,,,
,,,,31926,001,2025-10-19_17h03.40.985,HW_LDT_1,2024.2.4,MacIntel,250,,,,,,,,,,,,,,,,,,,,94.264,94.462,94.462,94.962,,,,,,,,,,,,,,1.088,1,,,,,,,,,,,,,,z,,,,,,,,,,,,,,,7,0,94.962,96.062,z,1,1.088,,[],[],[],[],[],[],[],96.063,98.062,98.062,98.063,[],[],[],[],[],[],[],,98.063,98.063,0.014444444,-0.411111111,0,0,0,,0,6,6,4,1,1,RL,carminal,print,carminal_p.png,,,,,,
,,,,31926,001,2025-10-19_17h03.40.985,HW_LDT_1,2024.2.4,MacIntel,250,,,,,,,,,,,,,,,,,,,,98.064,98.262,98.262,98.762,,,,,,,,,,,,,,1.403,1,,,,,,,,,,,,,,m,,,,,,,,,,,,,,,8,1,98.763,100.179,m,1,1.403,,[],[],[],[],[],[],[],100.179,102.179,102.179,103.746,[],[],[],[],[],[],[],z,103.746,103.746,0.014444444,-0.411111111,0,0,0,,0,7,7,94,1,1,word,CLINICAL,cursive,clinical_c.png,1.558,,,,,
,,,,31926,001,2025-10-19_17h03.40.985,HW_LDT_1,2024.2.4,MacIntel,250,,,,,,,,,,,,,,,,,,,,103.747,103.945,103.945,104.445,,,,,,,,,,,,,,5.81,1,,,,,,,,,,,,,,z,,,,,,,,,,,,,,,9,0,104.446,110.263,z,1,5.81,,[],[],[],[],[],[],[],110.263,112.263,112.263,112.263,[],[],[],[],[],[],[],,112.263,112.264,0.014444444,-0.411111111,0,0,0,,0,8,8,53,1,1,TL,dentisy,cursive,dentisy_c.png,,,,,,
,,,,31926,001,2025-10-19_17h03.40.985,HW_LDT_1,2024.2.4,MacIntel,250,,,,,,,,,,,,,,,,,,,,112.265,112.463,112.463,112.963,,,,,,,,,,,,,,1.694,0,,,,,,,,,,,,,,z,,,,,,,,,,,,,,,10,0,112.964,114.664,m,0,1.694,,[],[],[],[],[],[],[],114.664,116.663,116.663,116.664,[],[],[],[],[],[],[],,116.664,116.665,0.014444444,-0.411111111,0,0,0,,0,9,9,45,1,1,TL,cacapity,print,cacapity_p.png,,,,,,
,,,,31926,001,2025-10-19_17h03.40.985,HW_LDT_1,2024.2.4,MacIntel,250,,,,,,,,,,,,,,,,,,,,116.667,116.863,116.863,117.363,,,,,,,,,,,,,,1.327,1,,,,,,,,,,,,,,m,,,,,,,,,,,,,,,11,0,117.364,118.697,m,1,1.327,,[],[],[],[],[],[],[],118.697,120.696,120.696,120.697,[],[],[],[],[],[],[],,120.697,120.697,0.014444444,-0.411111111,0,0,0,,0,10,10,132,1,1,word,PROPOSAL,cursive,proposal_c.png,,,,,,
,,,,31926,001,2025-10-19_17h03.40.985,HW_LDT_1,2024.2.4,MacIntel,250,,,,,,,,,,,,,,,,,,,,120.699,120.896,120.896,121.396,,,,,,,,,,,,,,5.676,1,,,,,,,,,,,,,,z,,,,,,,,,,,,,,,12,0,121.397,127.079,z,1,5.676,,[],[],[],[],[],[],[],127.079,129.08,129.08,129.081,[],[],[],[],[],[],[],,129.081,129.081,0.014444444,-0.411111111,0,0,0,,0,11,11,50,1,1,TL,condiser,cursive,condiser_c.png,,,,,,
,,,,31926,001,2025-10-19_17h03.40.985,HW_LDT_1,2024.2.4,MacIntel,250,,,,,,,,,,,,,,,,,,,,129.082,129.28,129.28,129.78,,,,,,,,,,,,,,1.039,1,,,,,,,,,,,,,,m,,,,,,,,,,,,,,,13,0,129.781,130.83,m,1,1.039,,[],[],[],[],[],[],[],130.83,132.83,132.831,132.831,[],[],[],[],[],[],[],,132.831,132.832,0.014444444,-0.411111111,0,0,0,,0,12,12,100,1,1,word,DECADE,print,decade_p.png,,,,,,
,,,,31926,001,2025-10-19_17h03.40.985,HW_LDT_1,2024.2.4,MacIntel,250,,,,,,,,,,,,,,,,,,,,132.833,133.031,133.031,133.53,,,,,,,,,,,,,,1.923,1,,,,,,,,,,,,,,z,,,,,,,,,,,,,,,14,0,133.531,135.463,z,1,1.923,,[],[],[],[],[],[],[],135.463,137.464,137.464,137.464,[],[],[],[],[],[],[],,137.465,137.465,0.014444444,-0.411111111,0,0,0,,0,13,13,37,1,1,RL,skofen,print,skofen_p.png,,,,,,
,,,,31926,001,2025-10-19_17h03.40.985,HW_LDT_1,2024.2.4,MacIntel,250,,,,,,,,,,,,,,,,,,,,137.466,137.664,137.664,138.164,,,,,,,,,,,,,,1.677,1,,,,,,,,,,,,,,m,,,,,,,,,,,,,,,15,1,138.165,139.848,m,1,1.677,,[],[],[],[],[],[],[],139.848,141.847,141.848,146.081,[],[],[],[],[],[],[],z,146.082,146.082,0.014444444,-0.411111111,0,0,0,,0,14,14,81,1,1,word,ADVISORY,cursive,advisory_c.png,4.23,,,,,
,,,,31926,001,2025-10-19_17h03.40.985,HW_LDT_1,2024.2.4,MacIntel,250,,,,,,,,,,,,,,,,,,,,146.083,146.281,146.281,146.781,,,,,,,,,,,,,,12.279,1,,,,,,,,,,,,,,m,,,,,,,,,,,,,,,16,1,146.782,159.066,m,1,12.279,,[],[],[],[],[],[],[],159.067,161.065,161.066,163.099,[],[],[],[],[],[],[],z,163.099,163.099,0.014444444,-0.411111111,0,0,0,,0,15,15,102,1,1,word,DENSITY,cursive,density_c.png,2.03,,,,,
,,,,31926,001,2025-10-19_17h03.40.985,HW_LDT_1,2024.2.4,MacIntel,250,,,,,,,,,,,,,,,,,,,,163.1,163.299,163.299,163.799,,,,,,,,,,,,,,0.972,1,,,,,,,,,,,,,,m,,,,,,,,,,,,,,,17,0,163.799,164.782,m,1,0.972,,[],[],[],[],[],[],[],164.782,166.782,166.782,166.783,[],[],[],[],[],[],[],,166.783,166.783,0.014444444,-0.411111111,0,0,0,,0,16,16,120,1,1,word,MILITARY,print,military_p.png,,,,,,
,,,,31926,001,2025-10-19_17h03.40.985,HW_LDT_1,2024.2.4,MacIntel,250,,,,,,,,,,,,,,,,,,,,166.784,166.982,166.982,167.482,,,,,,,,,,,,,,2.814,1,,,,,,,,,,,,,,m,,,,,,,,,,,,,,,18,0,167.483,170.302,m,1,2.814,,[],[],[],[],[],[],[],170.302,172.298,172.298,172.299,[],[],[],[],[],[],[],,172.299,172.299,0.014444444,-0.411111111,0,0,0,,0,17,17,142,1,1,word,REMOTE,print,remote_p.png,,,,,,
,,,,31926,001,2025-10-19_17h03.40.985,HW_LDT_1,2024.2.4,MacIntel,250,,,,,,,,,,,,,,,,,,,,172.3,172.499,172.499,172.999,,,,,,,,,,,,,,0.628,1,,,,,,,,,,,,,,m,,,,,,,,,,,,,,,19,1,173,173.633,m,1,0.628,,[],[],[],[],[],[],[],173.634,175.633,175.633,177.833,[],[],[],[],[],[],[],m,177.833,177.833,0.014444444,-0.411111111,0,0,0,,0,18,18,92,1,1,word,CATEGORY,print,category_p.png,2.193,,,,,
,,,,31926,001,2025-10-19_17h03.40.985,HW_LDT_1,2024.2.4,MacIntel,250,,,,,,,,,,,,,,,,,,,,177.833,178.033,178.033,178.533,,,,,,,,,,,,,,0.94,1,,,,,,,,,,,,,,m,,,,,,,,,,,,,,,20,0,178.533,179.482,m,1,0.94,,[],[],[],[],[],[],[],179.482,181.483,181.483,181.483,[],[],[],[],[],[],[],,181.483,181.484,0.014444444,-0.411111111,0,0,0,,0,19,19,97,1,1,word,COVERAGE,print,coverage_p.png,,,,,,
,,,,31926,001,2025-10-19_17h03.40.985,HW_LDT_1,2024.2.4,MacIntel,250,,,,,,,,,,,,,,,,,,,,181.485,181.682,181.683,182.183,,,,,,,,,,,,,,0.989,1,,,,,,,,,,,,,,m,,,,,,,,,,,,,,,21,0,182.183,183.183,m,1,0.989,,[],[],[],[],[],[],[],183.183,185.182,185.182,185.183,[],[],[],[],[],[],[],,185.183,185.183,0.014444444,-0.411111111,0,0,0,,0,20,20,147,1,1,word,ROMANTIC,cursive,romantic_c.png,,,,,,
,,,,31926,001,2025-10-19_17h03.40.985,HW_LDT_1,2024.2.4,MacIntel,250,,,,,,,,,,,,,,,,,,,,185.184,185.383,185.383,185.883,,,,,,,,,,,,,,1.324,1,,,,,,,,,,,,,,m,,,,,,,,,,,,,,,22,0,185.884,187.216,m,1,1.324,,[],[],[],[],[],[],[],187.216,189.216,189.216,189.216,[],[],[],[],[],[],[],,189.216,189.216,0.014444444,-0.411111111,0,0,0,,0,21,21,135,1,1,word,QUALITY,cursive,quality_c.png,,,,,,
,,,,31926,001,2025-10-19_17h03.40.985,HW_LDT_1,2024.2.4,MacIntel,250,,,,,,,,,,,,,,,,,,,,189.217,189.417,189.417,189.916,,,,,,,,,,,,,,0.623,1,,,,,,,,,,,,,,m,,,,,,,,,,,,,,,23,1,189.917,190.55,m,1,0.623,,[],[],[],[],[],[],[],190.55,192.55,192.55,193.367,[],[],[],[],[],[],[],m,193.368,193.368,0.014444444,-0.411111111,0,0,0,,0,22,22,99,1,1,word,DEBATE,print,debate_p.png,0.812,,,,,
,,,,31926,001,2025-10-19_17h03.40.985,HW_LDT_1,2024.2.4,MacIntel,250,,,,,,,,,,,,,,,,,,,,193.369,193.566,193.566,194.066,,,,,,,,,,,,,,3.305,1,,,,,,,,,,,,,,z,,,,,,,,,,,,,,,24,0,194.067,197.384,z,1,3.305,,[],[],[],[],[],[],[],197.384,199.384,199.384,199.385,[],[],[],[],[],[],[],,199.385,199.385,0.014444444,-0.411111111,0,0,0,,0,23,23,16,1,1,RL,marmipal,print,marmipal_p.png,,,,,,
,,,,31926,001,2025-10-19_17h03.40.985,HW_LDT_1,2024.2.4,MacIntel,250,,,,,,,,,,,,,,,,,,,,199.386,199.584,199.584,200.084,,,,,,,,,,,,,,2.964,1,,,,,,,,,,,,,,z,,,,,,,,,,,,,,,25,0,200.085,203.051,z,1,2.964,,[],[],[],[],[],[],[],203.051,205.051,205.051,205.052,[],[],[],[],[],[],[],,205.052,205.052,0.014444444,-0.411111111,0,0,0,,0,24,24,40,1,1,TL,atameur,print,atameur_p.png,,,,,,
,,,,31926,001,2025-10-19_17h03.40.985,HW_LDT_1,2024.2.4,MacIntel,250,,,,,,,,,,,,,,,,,,,,205.054,205.251,205.251,205.751,,,,,,,,,,,,,,1.412,1,,,,,,,,,,,,,,z,,,,,,,,,,,,,,,26,1,205.752,207.168,z,1,1.412,,[],[],[],[],[],[],[],207.168,209.167,209.167,211.485,[],[],[],[],[],[],[],m,211.485,211.485,0.014444444,-0.411111111,0,0,0,,0,25,25,13,1,1,RL,linefal,print,linefal_p.png,2.31,,,,,
,,,,31926,001,2025-10-19_17h03.40.985,HW_LDT_1,2024.2.4,MacIntel,250,,,,,,,,,,,,,,,,,,,,211.486,211.685,211.685,212.185,,,,,,,,,,,,,,1.274,1,,,,,,,,,,,,,,m,,,,,,,,,,,,,,,27,1,212.185,213.468,m,1,1.274,,[],[],[],[],[],[],[],213.468,215.468,215.468,218.036,[],[],[],[],[],[],[],m,218.036,218.036,0.014444444,-0.411111111,0,0,0,,0,26,26,116,1,1,word,MARGINAL,print,marginal_p.png,2.562,,,,,
,,,,31926,001,2025-10-19_17h03.40.985,HW_LDT_1,2024.2.4,MacIntel,250,,,,,,,,,,,,,,,,,,,,218.036,218.235,218.235,218.735,,,,,,,,,,,,,,1.321,1,,,,,,,,,,,,,,m,,,,,,,,,,,,,,,28,0,218.736,220.067,m,1,1.321,,[],[],[],[],[],[],[],220.068,222.069,222.069,222.069,[],[],[],[],[],[],[],,222.07,222.07,0.014444444,-0.411111111,0,0,0,,0,27,27,106,1,1,word,ELABORATE,print,elaborate_p.png,,,,,,
,,,,31926,001,2025-10-19_17h03.40.985,HW_LDT_1,2024.2.4,MacIntel,250,,,,,,,,,,,,,,,,,,,,222.071,222.268,222.268,222.768,,,,,,,,,,,,,,2.927,1,,,,,,,,,,,,,,z,,,,,,,,,,,,,,,29,0,222.769,225.702,z,1,2.927,,[],[],[],[],[],[],[],225.702,227.702,227.702,227.703,[],[],[],[],[],[],[],,227.703,227.703,0.014444444,-0.411111111,0,0,0,,0,28,28,15,1,1,RL,losipal,cursive,losipal_c.png,,,,,,
,,,,31926,001,2025-10-19_17h03.40.985,HW_LDT_1,2024.2.4,MacIntel,250,,,,,,,,,,,,,,,,,,,,227.704,227.902,227.902,228.402,,,,,,,,,,,,,,2.089,1,,,,,,,,,,,,,,m,,,,,,,,,,,,,,,30,0,228.404,230.502,m,1,2.089,,[],[],[],[],[],[],[],230.502,232.503,232.503,232.503,[],[],[],[],[],[],[],,232.504,232.504,0.014444444,-0.411111111,0,0,0,,0,29,29,152,1,1,word,SPECIMEN,cursive,specimen_c.png,,,,,,
,,,,31926,001,2025-10-19_17h03.40.985,HW_LDT_1,2024.2.4,MacIntel,250,,,,,,,,,,,,,,,,,,,,232.505,232.702,232.702,233.202,,,,,,,,,,,,,,4.955,1,,,,,,,,,,,,,,z,,,,,,,,,,,,,,,31,0,233.203,238.169,z,1,4.955,,[],[],[],[],[],[],[],238.169,240.169,240.17,240.17,[],[],[],[],[],[],[],,240.17,240.171,0.014444444,-0.411111111,0,0,0,,0,30,30,35,1,1,RL,senvilent,cursive,senvilent_c.png,,,,,,
,,,,31926,001,2025-10-19_17h03.40.985,HW_LDT_1,2024.2.4,MacIntel,250,,,,,,,,,,,,,,,,,,,,240.172,240.369,240.37,240.869,,,,,,,,,,,,,,1.856,1,,,,,,,,,,,,,,z,,,,,,,,,,,,,,,32,0,240.87,242.736,z,1,1.856,,[],[],[],[],[],[],[],242.736,244.736,244.737,244.737,[],[],[],[],[],[],[],,244.737,244.737,0.014444444,-0.411111111,0,0,0,,0,31,31,59,1,1,TL,lirebal,cursive,lirebal_c.png,,,,,,
,,,,31926,001,2025-10-19_17h03.40.985,HW_LDT_1,2024.2.4,MacIntel,250,,,,,,,,,,,,,,,,,,,,244.739,244.936,244.936,245.436,,,,,,,,,,,,,,4.605,1,,,,,,,,,,,,,,m,,,,,,,,,,,,,,,33,0,245.437,250.053,m,1,4.605,,[],[],[],[],[],[],[],250.053,252.054,252.054,252.054,[],[],[],[],[],[],[],,252.054,252.055,0.014444444,-0.411111111,0,0,0,,0,32,32,105,1,1,word,EDITOR,cursive,editor_c.png,,,,,,
,,,,31926,001,2025-10-19_17h03.40.985,HW_LDT_1,2024.2.4,MacIntel,250,,,,,,,,,,,,,,,,,,,,252.056,252.253,252.253,252.753,,,,,,,,,,,,,,7.274,1,,,,,,,,,,,,,,z,,,,,,,,,,,,,,,34,1,252.754,260.037,z,1,7.274,,[],[],[],[],[],[],[],260.037,262.037,262.038,263.021,[],[],[],[],[],[],[],z,263.021,263.022,0.014444444,-0.411111111,0,0,0,,0,33,33,57,1,1,TL,hetirage,cursive,hetirage_c.png,0.978,,,,,
,,,,31926,001,2025-10-19_17h03.40.985,HW_LDT_1,2024.2.4,MacIntel,250,,,,,,,,,,,,,,,,,,,,263.024,263.221,263.221,263.721,,,,,,,,,,,,,,1.941,1,,,,,,,,,,,,,,m,,,,,,,,,,,,,,,35,0,263.722,265.671,m,1,1.941,,[],[],[],[],[],[],[],265.671,267.67,267.67,267.671,[],[],[],[],[],[],[],,267.671,267.671,0.014444444,-0.411111111,0,0,0,,0,34,34,119,1,1,word,MEMORY,cursive,memory_c.png,,,,,,
,,,,31926,001,2025-10-19_17h03.40.985,HW_LDT_1,2024.2.4,MacIntel,250,,,,,,,,,,,,,,,,,,,,267.673,267.871,267.871,268.37,,,,,,,,,,,,,,4.755,1,,,,,,,,,,,,,,m,,,,,,,,,,,,,,,36,0,268.371,273.138,m,1,4.755,,[],[],[],[],[],[],[],273.138,275.137,275.138,275.138,[],[],[],[],[],[],[],,275.138,275.138,0.014444444,-0.411111111,0,0,0,,0,35,35,112,1,1,word,LIBERAL,cursive,liberal_c.png,,,,,,
,,,,31926,001,2025-10-19_17h03.40.985,HW_LDT_1,2024.2.4,MacIntel,250,,,,,,,,,,,,,,,,,,,,275.139,275.338,275.338,275.838,,,,,,,,,,,,,,3.958,1,,,,,,,,,,,,,,m,,,,,,,,,,,,,,,37,0,275.839,279.805,m,1,3.958,,[],[],[],[],[],[],[],279.805,281.805,281.805,281.806,[],[],[],[],[],[],[],,281.806,281.806,0.014444444,-0.411111111,0,0,0,,0,36,36,103,1,1,word,DISPUTE,cursive,dispute_c.png,,,,,,
,,,,31926,001,2025-10-19_17h03.40.985,HW_LDT_1,2024.2.4,MacIntel,250,,,,,,,,,,,,,,,,,,,,281.807,282.005,282.005,282.504,,,,,,,,,,,,,,9.347,1,,,,,,,,,,,,,,z,,,,,,,,,,,,,,,38,1,282.505,291.855,z,1,9.347,,[],[],[],[],[],[],[],291.855,293.856,293.856,294.422,[],[],[],[],[],[],[],z,294.422,294.423,0.014444444,-0.411111111,0,0,0,,0,37,37,39,1,1,RL,vabifity,cursive,vabifity_c.png,0.564,,,,,
,,,,31926,001,2025-10-19_17h03.40.985,HW_LDT_1,2024.2.4,MacIntel,250,,,,,,,,,,,,,,,,,,,,294.424,294.622,294.622,295.122,,,,,,,,,,,,,,3.279,1,,,,,,,,,,,,,,z,,,,,,,,,,,,,,,39,0,295.123,298.406,z,1,3.279,,[],[],[],[],[],[],[],298.406,300.406,300.406,300.406,[],[],[],[],[],[],[],,300.406,300.406,0.014444444,-0.411111111,0,0,0,,0,38,38,48,1,1,TL,cemerony,cursive,cemerony_c.png,,,,,,
,,,,31926,001,2025-10-19_17h03.40.985,HW_LDT_1,2024.2.4,MacIntel,250,,,,,,,,,,,,,,,,,,,,300.408,300.606,300.606,301.106,,,,,,,,,,,,,,1.423,1,,,,,,,,,,,,,,z,,,,,,,,,,,,,,,40,0,301.107,302.54,z,1,1.423,,[],[],[],[],[],[],[],302.54,304.539,304.539,304.539,[],[],[],[],[],[],[],,304.54,304.54,0.014444444,-0.411111111,0,0,0,,0,39,39,43,1,1,TL,bedise,print,bedise_p.png,,,,,,
,,,,31926,001,2025-10-19_17h03.40.985,HW_LDT_1,2024.2.4,MacIntel,250,,,,,,,,,,,,,,,,,,,,304.541,304.74,304.74,305.24,,,,,,,,,,,,,,0.707,1,,,,,,,,,,,,,,m,,,,,,,,,,,,,,,41,0,305.24,305.956,m,1,0.707,,[],[],[],[],[],[],[],305.956,307.956,307.956,307.957,[],[],[],[],[],[],[],,307.957,307.957,0.014444444,-0.411111111,0,0,0,,0,40,40,123,1,1,word,MODERATE,print,moderate_p.png,,,,,,
,,,,31926,001,2025-10-19_17h03.40.985,HW_LDT_1,2024.2.4,MacIntel,250,,,,,,,,,,,,,,,,,,,,307.958,308.156,308.156,308.656,,,,,,,,,,,,,,1.413,1,,,,,,,,,,,,,,m,,,,,,,,,,,,,,,42,0,308.658,310.076,m,1,1.413,,[],[],[],[],[],[],[],310.077,312.073,312.073,312.074,[],[],[],[],[],[],[],,312.074,312.074,0.014444444,-0.411111111,0,0,0,,0,41,41,157,1,1,word,VALIDITY,cursive,validity_c.png,,,,,,
,,,,31926,001,2025-10-19_17h03.40.985,HW_LDT_1,2024.2.4,MacIntel,250,,,,,,,,,,,,,,,,,,,,312.076,312.272,312.272,312.773,,,,,,,,,,,,,,8.189,1,,,,,,,,,,,,,,z,,,,,,,,,,,,,,,43,1,312.774,320.974,z,1,8.189,,[],[],[],[],[],[],[],320.974,322.974,322.974,324.191,[],[],[],[],[],[],[],z,324.191,324.191,0.014444444,-0.411111111,0,0,0,,0,42,42,65,1,1,TL,orinigal,cursive,orinigal_c.png,1.205,,,,,
,,,,31926,001,2025-10-19_17h03.40.985,HW_LDT_1,2024.2.4,MacIntel,250,,,,,,,,,,,,,,,,,,,,324.192,324.391,324.391,324.891,,,,,,,,,,,,,,2.91,1,,,,,,,,,,,,,,m,,,,,,,,,,,,,,,44,1,324.891,327.807,m,1,2.91,,[],[],[],[],[],[],[],327.807,329.807,329.807,331.758,[],[],[],[],[],[],[],z,331.758,331.758,0.014444444,-0.411111111,0,0,0,,0,43,43,122,1,1,word,MOBILE,cursive,mobile_c.png,1.938,,,,,
,,,,31926,001,2025-10-19_17h03.40.985,HW_LDT_1,2024.2.4,MacIntel,250,,,,,,,,,,,,,,,,,,,,331.759,331.958,331.958,332.458,,,,,,,,,,,,,,4.491,1,,,,,,,,,,,,,,z,,,,,,,,,,,,,,,45,0,332.458,336.958,z,1,4.491,,[],[],[],[],[],[],[],336.958,338.958,338.958,338.958,[],[],[],[],[],[],[],,338.959,338.959,0.014444444,-0.411111111,0,0,0,,0,44,44,1,1,1,RL,adnicory,cursive,adnicory_c.png,,,,,,
,,,,31926,001,2025-10-19_17h03.40.985,HW_LDT_1,2024.2.4,MacIntel,250,,,,,,,,,,,,,,,,,,,,338.96,339.158,339.158,339.658,,,,,,,,,,,,,,7.14,1,,,,,,,,,,,,,,z,,,,,,,,,,,,,,,46,0,339.659,346.808,z,1,7.14,,[],[],[],[],[],[],[],346.808,348.808,348.808,348.809,[],[],[],[],[],[],[],,348.809,348.809,0.014444444,-0.411111111,0,0,0,,0,45,45,10,1,1,RL,efibor,cursive,efibor_c.png,,,,,,
,,,,31926,001,2025-10-19_17h03.40.985,HW_LDT_1,2024.2.4,MacIntel,250,,,,,,,,,,,,,,,,,,,,348.81,349.008,349.008,349.508,,,,,,,,,,,,,,0.643,1,,,,,,,,,,,,,,m,,,,,,,,,,,,,,,47,0,349.508,350.158,m,1,0.643,,[],[],[],[],[],[],[],350.158,352.159,352.159,352.159,[],[],[],[],[],[],[],,352.159,352.159,0.014444444,-0.411111111,0,0,0,,0,46,46,114,1,1,word,LOCATE,print,locate_p.png,,,,,,
,,,,31926,001,2025-10-19_17h03.40.985,HW_LDT_1,2024.2.4,MacIntel,250,,,,,,,,,,,,,,,,,,,,352.16,352.359,352.359,352.859,,,,,,,,,,,,,,5.722,1,,,,,,,,,,,,,,m,,,,,,,,,,,,,,,48,0,352.859,358.593,m,1,5.722,,[],[],[],[],[],[],[],358.593,360.593,360.593,360.594,[],[],[],[],[],[],[],,360.594,360.595,0.014444444,-0.411111111,0,0,0,,0,47,47,149,1,1,word,SENATOR,cursive,senator_c.png,,,,,,
,,,,31926,001,2025-10-19_17h03.40.985,HW_LDT_1,2024.2.4,MacIntel,250,,,,,,,,,,,,,,,,,,,,360.596,360.792,360.793,361.293,,,,,,,,,,,,,,5.359,1,,,,,,,,,,,,,,z,,,,,,,,,,,,,,,49,0,361.294,366.659,z,1,5.359,,[],[],[],[],[],[],[],366.659,368.66,368.66,368.66,[],[],[],[],[],[],[],,368.661,368.661,0.014444444,-0.411111111,0,0,0,,0,48,48,54,1,1,TL,distupe,cursive,distupe_c.png,,,,,,
,,,,31926,001,2025-10-19_17h03.40.985,HW_LDT_1,2024.2.4,MacIntel,250,,,,,,,,,,,,,,,,,,,,368.662,368.86,368.86,369.36,,,,,,,,,,,,,,1.439,1,,,,,,,,,,,,,,z,,,,,,,,,,,,,,,50,0,369.36,370.81,z,1,1.439,,[],[],[],[],[],[],[],370.81,372.81,372.81,372.81,[],[],[],[],[],[],[],,372.81,372.811,0.014444444,-0.411111111,0,0,0,,0,49,49,78,1,1,TL,vecolity,print,vecolity_p.png,,,,,,
,,,,31926,001,2025-10-19_17h03.40.985,HW_LDT_1,2024.2.4,MacIntel,250,,,,,,,,,,,,,,,,,,,,372.812,373.01,373.01,373.51,,,,,,,,,,,,,,0.893,1,,,,,,,,,,,,,,m,,,,,,,,,,,,,,,51,0,373.51,374.41,m,1,0.893,,[],[],[],[],[],[],[],374.41,376.41,376.41,376.41,[],[],[],[],[],[],[],,376.41,376.411,0.014444444,-0.411111111,0,0,0,,0,50,50,83,1,1,word,ANIMAL,print,animal_p.png,,,,,,
,,,,31926,001,2025-10-19_17h03.40.985,HW_LDT_1,2024.2.4,MacIntel,250,,,,,,,,,,,,,,,,,,,,376.412,376.61,376.61,377.11,,,,,,,,,,,,,,2.447,1,,,,,,,,,,,,,,z,,,,,,,,,,,,,,,52,0,377.11,379.56,z,1,2.447,,[],[],[],[],[],[],[],379.56,381.56,381.56,381.561,[],[],[],[],[],[],[],,381.561,381.561,0.014444444,-0.411111111,0,0,0,,0,51,51,20,1,1,RL,nunewical,print,nunewical_p.png,,,,,,
,,,,31926,001,2025-10-19_17h03.40.985,HW_LDT_1,2024.2.4,MacIntel,250,,,,,,,,,,,,,,,,,,,,381.562,381.76,381.76,382.26,,,,,,,,,,,,,,2.077,1,,,,,,,,,,,,,,z,,,,,,,,,,,,,,,53,0,382.261,384.344,z,1,2.077,,[],[],[],[],[],[],[],384.344,386.343,386.343,386.344,[],[],[],[],[],[],[],,386.344,386.344,0.014444444,-0.411111111,0,0,0,,0,52,52,21,1,1,RL,opcifal,print,opcifal_p.png,,,,,,
,,,,31926,001,2025-10-19_17h03.40.985,HW_LDT_1,2024.2.4,MacIntel,250,,,,,,,,,,,,,,,,,,,,386.345,386.544,386.544,387.044,,,,,,,,,,,,,,1.307,1,,,,,,,,,,,,,,z,,,,,,,,,,,,,,,54,1,387.045,388.361,z,1,1.307,,[],[],[],[],[],[],[],388.361,390.361,390.361,392.511,[],[],[],[],[],[],[],m,392.511,392.511,0.014444444,-0.411111111,0,0,0,,0,53,53,34,1,1,RL,samite,print,samite_p.png,2.139,,,,,
,,,,31926,001,2025-10-19_17h03.40.985,HW_LDT_1,2024.2.4,MacIntel,250,,,,,,,,,,,,,,,,,,,,392.512,392.711,392.711,393.211,,,,,,,,,,,,,,2.741,1,,,,,,,,,,,,,,m,,,,,,,,,,,,,,,55,0,393.211,395.961,m,1,2.741,,[],[],[],[],[],[],[],395.961,397.961,397.961,397.961,[],[],[],[],[],[],[],,397.961,397.961,0.014444444,-0.411111111,0,0,0,,0,54,54,95,1,1,word,COMEDY,cursive,comedy_c.png,,,,,,
,,,,31926,001,2025-10-19_17h03.40.985,HW_LDT_1,2024.2.4,MacIntel,250,,,,,,,,,,,,,,,,,,,,397.963,398.161,398.161,398.661,,,,,,,,,,,,,,2.607,1,,,,,,,,,,,,,,m,,,,,,,,,,,,,,,56,0,398.662,401.277,m,1,2.607,,[],[],[],[],[],[],[],401.277,403.278,403.278,403.279,[],[],[],[],[],[],[],,403.279,403.279,0.014444444,-0.411111111,0,0,0,,0,55,55,93,1,1,word,CEREMONY,cursive,ceremony_c.png,,,,,,
,,,,31926,001,2025-10-19_17h03.40.985,HW_LDT_1,2024.2.4,MacIntel,250,,,,,,,,,,,,,,,,,,,,403.28,403.477,403.477,403.978,,,,,,,,,,,,,,1.572,1,,,,,,,,,,,,,,m,,,,,,,,,,,,,,,57,0,403.978,405.561,m,1,1.572,,[],[],[],[],[],[],[],405.561,407.561,407.562,407.562,[],[],[],[],[],[],[],,407.562,407.562,0.014444444,-0.411111111,0,0,0,,0,56,56,134,1,1,word,QUALIFY,cursive,qualify_c.png,,,,,,
,,,,31926,001,2025-10-19_17h03.40.985,HW_LDT_1,2024.2.4,MacIntel,250,,,,,,,,,,,,,,,,,,,,407.563,407.762,407.762,408.262,,,,,,,,,,,,,,1.025,1,,,,,,,,,,,,,,z,,,,,,,,,,,,,,,58,0,408.262,409.295,z,1,1.025,,[],[],[],[],[],[],[],409.295,411.295,411.295,411.295,[],[],[],[],[],[],[],,411.295,411.295,0.014444444,-0.411111111,0,0,0,,0,57,57,7,1,1,RL,delahe,print,delahe_p.png,,,,,,
,,,,31926,001,2025-10-19_17h03.40.985,HW_LDT_1,2024.2.4,MacIntel,250,,,,,,,,,,,,,,,,,,,,411.297,411.495,411.495,411.995,,,,,,,,,,,,,,3.444,1,,,,,,,,,,,,,,z,,,,,,,,,,,,,,,59,0,411.996,415.445,z,1,3.444,,[],[],[],[],[],[],[],415.445,417.445,417.445,417.446,[],[],[],[],[],[],[],,417.446,417.446,0.014444444,-0.411111111,0,0,0,,0,58,58,49,1,1,TL,clicinal,cursive,clicinal_c.png,,,,,,
,,,,31926,001,2025-10-19_17h03.40.985,HW_LDT_1,2024.2.4,MacIntel,250,,,,,,,,,,,,,,,,,,,,417.447,417.645,417.645,418.145,,,,,,,,,,,,,,5.543,1,,,,,,,,,,,,,,z,,,,,,,,,,,,,,,60,0,418.146,423.696,z,1,5.543,,[],[],[],[],[],[],[],423.696,425.696,425.696,425.696,[],[],[],[],[],[],[],,425.696,425.696,0.014444444,-0.411111111,0,0,0,,0,59,59,9,1,1,RL,docirant,cursive,docirant_c.png,,,,,,
,,,,31926,001,2025-10-19_17h03.40.985,HW_LDT_1,2024.2.4,MacIntel,250,,,,,,,,,,,,,,,,,,,,425.698,425.896,425.896,426.396,,,,,,,,,,,,,,5.513,1,,,,,,,,,,,,,,z,,,,,,,,,,,,,,,61,0,426.396,431.913,z,1,5.513,,[],[],[],[],[],[],[],431.913,433.913,433.913,433.914,[],[],[],[],[],[],[],,433.914,433.914,0.014444444,-0.411111111,0,0,0,,0,60,60,52,1,1,TL,decilate,cursive,decilate_c.png,,,,,,
,,,,31926,001,2025-10-19_17h03.40.985,HW_LDT_1,2024.2.4,MacIntel,250,,,,,,,,,,,,,,,,,,,,433.916,434.113,434.113,434.612,,,,,,,,,,,,,,1.859,1,,,,,,,,,,,,,,m,,,,,,,,,,,,,,,62,0,434.613,436.48,m,1,1.859,,[],[],[],[],[],[],[],436.48,438.48,438.48,438.48,[],[],[],[],[],[],[],,438.48,438.48,0.014444444,-0.411111111,0,0,0,,0,61,61,127,1,1,word,ORIGINAL,cursive,original_c.png,,,,,,
,,,,31926,001,2025-10-19_17h03.40.985,HW_LDT_1,2024.2.4,MacIntel,250,,,,,,,,,,,,,,,,,,,,438.482,438.68,438.68,439.18,,,,,,,,,,,,,,0.972,1,,,,,,,,,,,,,,m,,,,,,,,,,,,,,,63,0,439.18,440.163,m,1,0.972,,[],[],[],[],[],[],[],440.163,442.163,442.163,442.164,[],[],[],[],[],[],[],,442.164,442.164,0.014444444,-0.411111111,0,0,0,,0,62,62,84,1,1,word,BELOVED,print,beloved_p.png,,,,,,
,,,,31926,001,2025-10-19_17h03.40.985,HW_LDT_1,2024.2.4,MacIntel,250,,,,,,,,,,,,,,,,,,,,442.165,442.363,442.363,442.863,,,,,,,,,,,,,,0.843,1,,,,,,,,,,,,,,m,,,,,,,,,,,,,,,64,0,442.864,443.713,m,1,0.843,,[],[],[],[],[],[],[],443.713,445.713,445.713,445.714,[],[],[],[],[],[],[],,445.714,445.714,0.014444444,-0.411111111,0,0,0,,0,63,63,82,1,1,word,AMATEUR,print,amateur_p.png,,,,,,
,,,,31926,001,2025-10-19_17h03.40.985,HW_LDT_1,2024.2.4,MacIntel,250,,,,,,,,,,,,,,,,,,,,445.715,445.914,445.914,446.413,,,,,,,,,,,,,,2.924,1,,,,,,,,,,,,,,z,,,,,,,,,,,,,,,65,0,446.414,449.347,z,1,2.924,,[],[],[],[],[],[],[],449.347,451.346,451.346,451.347,[],[],[],[],[],[],[],,451.347,451.347,0.014444444,-0.411111111,0,0,0,,0,64,64,11,1,1,RL,elacodate,print,elacodate_p.png,,,,,,
,,,,31926,001,2025-10-19_17h03.40.985,HW_LDT_1,2024.2.4,MacIntel,250,,,,,,,,,,,,,,,,,,,,451.348,451.547,451.547,452.047,,,,,,,,,,,,,,0.895,1,,,,,,,,,,,,,,m,,,,,,,,,,,,,,,66,0,452.048,452.947,m,1,0.895,,[],[],[],[],[],[],[],452.948,454.947,454.948,454.948,[],[],[],[],[],[],[],,454.948,454.948,0.014444444,-0.411111111,0,0,0,,0,65,65,121,1,1,word,MISTAKE,print,mistake_p.png,,,,,,
,,,,31926,001,2025-10-19_17h03.40.985,HW_LDT_1,2024.2.4,MacIntel,250,,,,,,,,,,,,,,,,,,,,454.95,455.147,455.147,455.647,,,,,,,,,,,,,,1.445,1,,,,,,,,,,,,,,m,,,,,,,,,,,,,,,67,0,455.648,457.101,m,1,1.445,,[],[],[],[],[],[],[],457.101,459.098,459.098,459.098,[],[],[],[],[],[],[],,459.099,459.099,0.014444444,-0.411111111,0,0,0,,0,66,66,159,1,1,word,VETERAN,print,veteran_p.png,,,,,,
,,,,31926,001,2025-10-19_17h03.40.985,HW_LDT_1,2024.2.4,MacIntel,250,,,,,,,,,,,,,,,,,,,,459.1,459.298,459.298,459.798,,,,,,,,,,,,,,3.606,1,,,,,,,,,,,,,,z,,,,,,,,,,,,,,,68,0,459.798,463.415,z,1,3.606,,[],[],[],[],[],[],[],463.415,465.415,465.415,465.415,[],[],[],[],[],[],[],,465.415,465.416,0.014444444,-0.411111111,0,0,0,,0,67,67,31,1,1,RL,reconal,cursive,reconal_c.png,,,,,,
,,,,31926,001,2025-10-19_17h03.40.985,HW_LDT_1,2024.2.4,MacIntel,250,,,,,,,,,,,,,,,,,,,,465.417,465.615,465.615,466.114,,,,,,,,,,,,,,1.297,1,,,,,,,,,,,,,,z,,,,,,,,,,,,,,,69,0,466.115,467.415,z,1,1.297,,[],[],[],[],[],[],[],467.415,469.415,469.415,469.415,[],[],[],[],[],[],[],,469.415,469.415,0.014444444,-0.411111111,0,0,0,,0,68,68,51,1,1,TL,corevage,print,corevage_p.png,,,,,,
,,,,31926,001,2025-10-19_17h03.40.985,HW_LDT_1,2024.2.4,MacIntel,250,,,,,,,,,,,,,,,,,,,,469.417,469.615,469.615,470.115,,,,,,,,,,,,,,0.724,1,,,,,,,,,,,,,,m,,,,,,,,,,,,,,,70,0,470.115,470.848,m,1,0.724,,[],[],[],[],[],[],[],470.848,472.848,472.849,472.849,[],[],[],[],[],[],[],,472.849,472.849,0.014444444,-0.411111111,0,0,0,,0,69,69,117,1,1,word,MARINE,print,marine_p.png,,,,,,
,,,,31926,001,2025-10-19_17h03.40.985,HW_LDT_1,2024.2.4,MacIntel,250,,,,,,,,,,,,,,,,,,,,472.851,473.048,473.048,473.548,,,,,,,,,,,,,,0.997,1,,,,,,,,,,,,,,z,,,,,,,,,,,,,,,71,0,473.548,474.548,z,1,0.997,,[],[],[],[],[],[],[],474.548,476.548,476.549,476.549,[],[],[],[],[],[],[],,476.549,476.549,0.014444444,-0.411111111,0,0,0,,0,70,70,32,1,1,RL,rebicent,print,rebicent_p.png,,,,,,
,,,,31926,001,2025-10-19_17h03.40.985,HW_LDT_1,2024.2.4,MacIntel,250,,,,,,,,,,,,,,,,,,,,476.551,476.748,476.748,477.248,,,,,,,,,,,,,,1.391,1,,,,,,,,,,,,,,m,,,,,,,,,,,,,,,72,0,477.249,478.648,m,1,1.391,,[],[],[],[],[],[],[],478.648,480.649,480.649,480.649,[],[],[],[],[],[],[],,480.649,480.649,0.014444444,-0.411111111,0,0,0,,0,71,71,141,1,1,word,RELIGION,cursive,religion_c.png,,,,,,
,,,,31926,001,2025-10-19_17h03.40.985,HW_LDT_1,2024.2.4,MacIntel,250,,,,,,,,,,,,,,,,,,,,480.65,480.849,480.849,481.349,,,,,,,,,,,,,,0.907,1,,,,,,,,,,,,,,m,,,,,,,,,,,,,,,73,0,481.349,482.265,m,1,0.907,,[],[],[],[],[],[],[],482.265,484.265,484.266,484.266,[],[],[],[],[],[],[],,484.266,484.266,0.014444444,-0.411111111,0,0,0,,0,72,72,139,1,1,word,REGULAR,print,regular_p.png,,,,,,
,,,,31926,001,2025-10-19_17h03.40.985,HW_LDT_1,2024.2.4,MacIntel,250,,,,,,,,,,,,,,,,,,,,484.268,484.465,484.465,484.965,,,,,,,,,,,,,,1.111,1,,,,,,,,,,,,,,z,,,,,,,,,,,,,,,74,0,484.965,486.082,z,1,1.111,,[],[],[],[],[],[],[],486.082,488.082,488.083,488.083,[],[],[],[],[],[],[],,488.083,488.083,0.014444444,-0.411111111,0,0,0,,0,73,73,63,1,1,TL,molibe,cursive,molibe_c.png,,,,,,
,,,,31926,001,2025-10-19_17h03.40.985,HW_LDT_1,2024.2.4,MacIntel,250,,,,,,,,,,,,,,,,,,,,488.085,488.282,488.282,488.782,,,,,,,,,,,,,,1.756,1,,,,,,,,,,,,,,z,,,,,,,,,,,,,,,75,0,488.783,490.549,z,1,1.756,,[],[],[],[],[],[],[],490.549,492.549,492.549,492.55,[],[],[],[],[],[],[],,492.55,492.55,0.014444444,-0.411111111,0,0,0,,0,74,74,22,1,1,RL,patisic,print,patisic_p.png,,,,,,
,,,,31926,001,2025-10-19_17h03.40.985,HW_LDT_1,2024.2.4,MacIntel,250,,,,,,,,,,,,,,,,,,,,492.551,492.749,492.749,493.249,,,,,,,,,,,,,,1.997,1,,,,,,,,,,,,,,m,,,,,,,,,,,,,,,76,0,493.25,495.252,m,1,1.997,,[],[],[],[],[],[],[],495.252,497.249,497.249,497.25,[],[],[],[],[],[],[],,497.25,497.25,0.014444444,-0.411111111,0,0,0,,0,75,75,129,1,1,word,PARENT,cursive,parent_c.png,,,,,,
,,,,31926,001,2025-10-19_17h03.40.985,HW_LDT_1,2024.2.4,MacIntel,250,,,,,,,,,,,,,,,,,,,,497.251,497.449,497.45,497.949,,,,,,,,,,,,,,4.139,0,,,,,,,,,,,,,,z,,,,,,,,,,,,,,,77,0,497.949,502.1,m,0,4.139,,[],[],[],[],[],[],[],502.1,504.1,504.1,504.1,[],[],[],[],[],[],[],,504.101,504.101,0.014444444,-0.411111111,0,0,0,,0,76,76,66,1,1,TL,panert,cursive,panert_c.png,,,,,,
,,,,31926,001,2025-10-19_17h03.40.985,HW_LDT_1,2024.2.4,MacIntel,250,,,,,,,,,,,,,,,,,,,,504.102,504.3,504.3,504.8,,,,,,,,,,,,,,2.793,1,,,,,,,,,,,,,,m,,,,,,,,,,,,,,,78,0,504.8,507.6,m,1,2.793,,[],[],[],[],[],[],[],507.6,509.6,509.6,509.601,[],[],[],[],[],[],[],,509.601,509.601,0.014444444,-0.411111111,0,0,0,,0,77,77,137,1,1,word,RAPIDLY,cursive,rapidly_c.png,,,,,,
,,,,31926,001,2025-10-19_17h03.40.985,HW_LDT_1,2024.2.4,MacIntel,250,,,,,,,,,,,,,,,,,,,,509.602,509.8,509.8,510.3,,,,,,,,,,,,,,0.942,1,,,,,,,,,,,,,,z,,,,,,,,,,,,,,,79,0,510.301,511.25,z,1,0.942,,[],[],[],[],[],[],[],511.25,513.25,513.25,513.251,[],[],[],[],[],[],[],,513.251,513.251,0.014444444,-0.411111111,0,0,0,,0,78,78,8,1,1,RL,debave,print,debave_p.png,,,,,,
,,,,31926,001,2025-10-19_17h03.40.985,HW_LDT_1,2024.2.4,MacIntel,250,,,,,,,,,,,,,,,,,,,,513.252,513.45,513.45,513.951,,,,,,,,,,,,,,3.787,1,,,,,,,,,,,,,,z,,,,,,,,,,,,,,,80,0,513.951,517.751,z,1,3.787,,[],[],[],[],[],[],[],517.751,519.75,519.751,519.751,[],[],[],[],[],[],[],,519.751,523.501,0.014444444,-0.411111111,0,0,0,space,0,79,79,73,1,1,TL,ronamtic,cursive,ronamtic_c.png,,,3.729,,,
,,,,31926,001,2025-10-19_17h03.40.985,HW_LDT_1,2024.2.4,MacIntel,250,,,,,,,,,,,,,,,,,,,,523.501,523.701,523.701,524.201,,,,,,,,,,,,,,1.755,1,,,,,,,,,,,,,,m,,,,,,,,,,,,,,,81,1,524.201,525.967,m,1,1.755,,[],[],[],[],[],[],[],525.967,527.967,527.967,531.268,[],[],[],[],[],[],[],z,531.268,531.268,0.014444444,-0.411111111,0,0,0,,0,80,80,115,1,1,word,LOGICAL,cursive,logical_c.png,3.288,,,,,
,,,,31926,001,2025-10-19_17h03.40.985,HW_LDT_1,2024.2.4,MacIntel,250,,,,,,,,,,,,,,,,,,,,531.269,531.468,531.468,531.968,,,,,,,,,,,,,,3.88,1,,,,,,,,,,,,,,z,,,,,,,,,,,,,,,82,0,531.968,535.852,z,1,3.88,,[],[],[],[],[],[],[],535.852,537.852,537.852,537.852,[],[],[],[],[],[],[],,537.852,537.852,0.014444444,-0.411111111,0,0,0,,0,81,81,33,1,1,RL,recile,cursive,recile_c.png,,,,,,
,,,,31926,001,2025-10-19_17h03.40.985,HW_LDT_1,2024.2.4,MacIntel,250,,,,,,,,,,,,,,,,,,,,537.854,538.052,538.052,538.552,,,,,,,,,,,,,,0.995,1,,,,,,,,,,,,,,m,,,,,,,,,,,,,,,83,0,538.552,539.553,m,1,0.995,,[],[],[],[],[],[],[],539.553,541.552,541.552,541.552,[],[],[],[],[],[],[],,541.552,541.553,0.014444444,-0.411111111,0,0,0,,0,82,82,86,1,1,word,BESIDE,print,beside_p.png,,,,,,
,,,,31926,001,2025-10-19_17h03.40.985,HW_LDT_1,2024.2.4,MacIntel,250,,,,,,,,,,,,,,,,,,,,541.554,541.752,541.752,542.252,,,,,,,,,,,,,,1.555,1,,,,,,,,,,,,,,z,,,,,,,,,,,,,,,84,1,542.252,543.819,z,1,1.555,,[],[],[],[],[],[],[],543.819,545.819,545.819,552.052,[],[],[],[],[],[],[],z,552.053,552.053,0.014444444,-0.411111111,0,0,0,,0,83,83,61,1,1,TL,mecidine,cursive,mecidine_c.png,6.23,,,,,
,,,,31926,001,2025-10-19_17h03.40.985,HW_LDT_1,2024.2.4,MacIntel,250,,,,,,,,,,,,,,,,,,,,552.053,552.252,552.252,552.752,,,,,,,,,,,,,,0.937,1,,,,,,,,,,,,,,z,,,,,,,,,,,,,,,85,0,552.753,553.703,z,1,0.937,,[],[],[],[],[],[],[],553.703,555.703,555.703,555.703,[],[],[],[],[],[],[],,555.703,555.703,0.014444444,-0.411111111,0,0,0,,0,84,84,79,1,1,TL,veretan,print,veretan_p.png,,,,,,
,,,,31926,001,2025-10-19_17h03.40.985,HW_LDT_1,2024.2.4,MacIntel,250,,,,,,,,,,,,,,,,,,,,555.705,555.903,555.903,556.403,,,,,,,,,,,,,,5.024,1,,,,,,,,,,,,,,z,,,,,,,,,,,,,,,86,0,556.403,561.436,z,1,5.024,,[],[],[],[],[],[],[],561.436,563.436,563.436,563.436,[],[],[],[],[],[],[],,563.436,563.436,0.014444444,-0.411111111,0,0,0,,0,85,85,23,1,1,RL,potugar,cursive,potugar_c.png,,,,,,
,,,,31926,001,2025-10-19_17h03.40.985,HW_LDT_1,2024.2.4,MacIntel,250,,,,,,,,,,,,,,,,,,,,563.438,563.635,563.635,564.136,,,,,,,,,,,,,,0.777,1,,,,,,,,,,,,,,z,,,,,,,,,,,,,,,87,0,564.137,564.92,z,1,0.777,,[],[],[],[],[],[],[],564.92,566.919,566.919,566.92,[],[],[],[],[],[],[],,566.92,566.92,0.014444444,-0.411111111,0,0,0,,0,86,86,14,1,1,RL,lofase,print,lofase_p.png,,,,,,
,,,,31926,001,2025-10-19_17h03.40.985,HW_LDT_1,2024.2.4,MacIntel,250,,,,,,,,,,,,,,,,,,,,566.921,567.12,567.12,567.62,,,,,,,,,,,,,,2.888,1,,,,,,,,,,,,,,z,,,,,,,,,,,,,,,88,0,567.62,570.52,z,1,2.888,,[],[],[],[],[],[],[],570.52,572.52,572.52,572.521,[],[],[],[],[],[],[],,572.521,572.521,0.014444444,-0.411111111,0,0,0,,0,87,87,67,1,1,TL,pocily,cursive,pocily_c.png,,,,,,
,,,,31926,001,2025-10-19_17h03.40.985,HW_LDT_1,2024.2.4,MacIntel,250,,,,,,,,,,,,,,,,,,,,572.522,572.72,572.72,573.22,,,,,,,,,,,,,,0.711,1,,,,,,,,,,,,,,m,,,,,,,,,,,,,,,89,0,573.221,573.938,m,1,0.711,,[],[],[],[],[],[],[],573.938,575.937,575.937,575.937,[],[],[],[],[],[],[],,575.937,575.938,0.014444444,-0.411111111,0,0,0,,0,88,88,91,1,1,word,CARDINAL,print,cardinal_p.png,,,,,,
,,,,31926,001,2025-10-19_17h03.40.985,HW_LDT_1,2024.2.4,MacIntel,250,,,,,,,,,,,,,,,,,,,,575.939,576.138,576.138,576.637,,,,,,,,,,,,,,1.127,0,,,,,,,,,,,,,,z,,,,,,,,,,,,,,,90,0,576.637,577.77,m,0,1.127,,[],[],[],[],[],[],[],577.77,579.77,579.77,579.771,[],[],[],[],[],[],[],,579.771,579.771,0.014444444,-0.411111111,0,0,0,,0,89,89,47,1,1,TL,cagetory,print,cagetory_p.png,,,,,,
,,,,31926,001,2025-10-19_17h03.40.985,HW_LDT_1,2024.2.4,MacIntel,250,,,,,,,,,,,,,,,,,,,,579.772,579.97,579.97,580.471,,,,,,,,,,,,,,5.006,1,,,,,,,,,,,,,,z,,,,,,,,,,,,,,,91,0,580.471,585.488,z,1,5.006,,[],[],[],[],[],[],[],585.488,587.487,587.488,587.488,[],[],[],[],[],[],[],,587.488,587.488,0.014444444,-0.411111111,0,0,0,,0,90,90,26,1,1,RL,quafidy,cursive,quafidy_c.png,,,,,,
,,,,31926,001,2025-10-19_17h03.40.985,HW_LDT_1,2024.2.4,MacIntel,250,,,,,,,,,,,,,,,,,,,,587.489,587.687,587.688,588.187,,,,,,,,,,,,,,1.175,1,,,,,,,,,,,,,,m,,,,,,,,,,,,,,,92,1,588.188,589.371,m,1,1.175,,[],[],[],[],[],[],[],589.371,591.371,591.371,592.571,[],[],[],[],[],[],[],m,592.571,592.572,0.014444444,-0.411111111,0,0,0,,0,91,91,148,1,1,word,SALINE,print,saline_p.png,1.192,,,,,
,,,,31926,001,2025-10-19_17h03.40.985,HW_LDT_1,2024.2.4,MacIntel,250,,,,,,,,,,,,,,,,,,,,592.572,592.771,592.771,593.271,,,,,,,,,,,,,,1.446,1,,,,,,,,,,,,,,m,,,,,,,,,,,,,,,93,0,593.271,594.722,m,1,1.446,,[],[],[],[],[],[],[],594.723,596.72,596.72,596.721,[],[],[],[],[],[],[],,596.721,596.721,0.014444444,-0.411111111,0,0,0,,0,92,92,156,1,1,word,TRIBUTE,cursive,tribute_c.png,,,,,,
,,,,31926,001,2025-10-19_17h03.40.985,HW_LDT_1,2024.2.4,MacIntel,250,,,,,,,,,,,,,,,,,,,,596.722,596.921,596.921,597.421,,,,,,,,,,,,,,0.723,1,,,,,,,,,,,,,,m,,,,,,,,,,,,,,,94,0,597.422,598.154,m,1,0.723,,[],[],[],[],[],[],[],598.154,600.155,600.155,600.155,[],[],[],[],[],[],[],,600.155,600.156,0.014444444,-0.411111111,0,0,0,,0,93,93,133,1,1,word,PROVIDE,print,provide_p.png,,,,,,
,,,,31926,001,2025-10-19_17h03.40.985,HW_LDT_1,2024.2.4,MacIntel,250,,,,,,,,,,,,,,,,,,,,600.157,600.355,600.355,600.855,,,,,,,,,,,,,,2.244,0,,,,,,,,,,,,,,m,,,,,,,,,,,,,,,95,0,600.856,603.105,z,0,2.244,,[],[],[],[],[],[],[],603.105,605.105,605.105,605.106,[],[],[],[],[],[],[],,605.106,605.106,0.014444444,-0.411111111,0,0,0,,0,94,94,88,1,1,word,CAMERA,cursive,camera_c.png,,,,,,
,,,,31926,001,2025-10-19_17h03.40.985,HW_LDT_1,2024.2.4,MacIntel,250,,,,,,,,,,,,,,,,,,,,605.107,605.305,605.305,605.805,,,,,,,,,,,,,,2.313,1,,,,,,,,,,,,,,z,,,,,,,,,,,,,,,96,0,605.805,608.122,z,1,2.313,,[],[],[],[],[],[],[],608.122,610.121,610.121,610.122,[],[],[],[],[],[],[],,610.122,610.122,0.014444444,-0.411111111,0,0,0,,0,95,95,76,1,1,TL,stragety,cursive,stragety_c.png,,,,,,
,,,,31926,001,2025-10-19_17h03.40.985,HW_LDT_1,2024.2.4,MacIntel,250,,,,,,,,,,,,,,,,,,,,610.123,610.322,610.322,610.822,,,,,,,,,,,,,,1.307,1,,,,,,,,,,,,,,z,,,,,,,,,,,,,,,97,0,610.822,612.139,z,1,1.307,,[],[],[],[],[],[],[],612.139,614.139,614.139,614.139,[],[],[],[],[],[],[],,614.14,614.14,0.014444444,-0.411111111,0,0,0,,0,96,96,42,1,1,TL,befenit,print,befenit_p.png,,,,,,
,,,,31926,001,2025-10-19_17h03.40.985,HW_LDT_1,2024.2.4,MacIntel,250,,,,,,,,,,,,,,,,,,,,614.141,614.339,614.339,614.838,,,,,,,,,,,,,,0.84,1,,,,,,,,,,,,,,m,,,,,,,,,,,,,,,98,0,614.839,615.689,m,1,0.84,,[],[],[],[],[],[],[],615.689,617.689,617.689,617.689,[],[],[],[],[],[],[],,617.689,617.69,0.014444444,-0.411111111,0,0,0,,0,97,97,153,1,1,word,STOLEN,print,stolen_p.png,,,,,,
,,,,31926,001,2025-10-19_17h03.40.985,HW_LDT_1,2024.2.4,MacIntel,250,,,,,,,,,,,,,,,,,,,,617.691,617.889,617.889,618.389,,,,,,,,,,,,,,3.424,1,,,,,,,,,,,,,,m,,,,,,,,,,,,,,,99,0,618.39,621.823,m,1,3.424,,[],[],[],[],[],[],[],621.823,623.822,623.822,623.823,[],[],[],[],[],[],[],,623.823,623.823,0.014444444,-0.411111111,0,0,0,,0,98,98,110,1,1,word,HERITAGE,cursive,heritage_c.png,,,,,,
,,,,31926,001,2025-10-19_17h03.40.985,HW_LDT_1,2024.2.4,MacIntel,250,,,,,,,,,,,,,,,,,,,,623.824,624.022,624.022,624.523,,,,,,,,,,,,,,3.541,1,,,,,,,,,,,,,,z,,,,,,,,,,,,,,,100,0,624.523,628.073,z,1,3.541,,[],[],[],[],[],[],[],628.073,630.073,630.073,630.073,[],[],[],[],[],[],[],,630.073,630.073,0.014444444,-0.411111111,0,0,0,,0,99,99,0,1,1,RL,abanemy,cursive,abanemy_c.png,,,,,,
,,,,31926,001,2025-10-19_17h03.40.985,HW_LDT_1,2024.2.4,MacIntel,250,,,,,,,,,,,,,,,,,,,,630.073,630.273,630.273,630.773,,,,,,,,,,,,,,1.805,1,,,,,,,,,,,,,,m,,,,,,,,,,,,,,,101,0,630.774,632.59,m,1,1.805,,[],[],[],[],[],[],[],632.59,634.59,634.59,634.591,[],[],[],[],[],[],[],,634.591,634.591,0.014444444,-0.411111111,0,0,0,,0,100,100,154,1,1,word,STORAGE,cursive,storage_c.png,,,,,,
,,,,31926,001,2025-10-19_17h03.40.985,HW_LDT_1,2024.2.4,MacIntel,250,,,,,,,,,,,,,,,,,,,,634.592,634.79,634.79,635.29,,,,,,,,,,,,,,0.888,1,,,,,,,,,,,,,,z,,,,,,,,,,,,,,,102,0,635.291,636.19,z,1,0.888,,[],[],[],[],[],[],[],636.19,638.19,638.19,638.191,[],[],[],[],[],[],[],,638.191,638.191,0.014444444,-0.411111111,0,0,0,,0,101,101,30,1,1,RL,relone,print,relone_p.png,,,,,,
,,,,31926,001,2025-10-19_17h03.40.985,HW_LDT_1,2024.2.4,MacIntel,250,,,,,,,,,,,,,,,,,,,,638.192,638.39,638.39,638.89,,,,,,,,,,,,,,7.99,1,,,,,,,,,,,,,,z,,,,,,,,,,,,,,,103,0,638.891,646.891,z,1,7.99,,[],[],[],[],[],[],[],646.891,648.891,648.891,648.892,[],[],[],[],[],[],[],,648.892,648.892,0.014444444,-0.411111111,0,0,0,,0,102,102,58,1,1,TL,incidate,cursive,incidate_c.png,,,,,,
,,,,31926,001,2025-10-19_17h03.40.985,HW_LDT_1,2024.2.4,MacIntel,250,,,,,,,,,,,,,,,,,,,,648.893,649.091,649.091,649.591,,,,,,,,,,,,,,0.707,1,,,,,,,,,,,,,,m,,,,,,,,,,,,,,,104,0,649.591,650.308,m,1,0.707,,[],[],[],[],[],[],[],650.308,652.308,652.308,652.308,[],[],[],[],[],[],[],,652.308,652.308,0.014444444,-0.411111111,0,0,0,,0,103,103,89,1,1,word,CAPACITY,print,capacity_p.png,,,,,,
,,,,31926,001,2025-10-19_17h03.40.985,HW_LDT_1,2024.2.4,MacIntel,250,,,,,,,,,,,,,,,,,,,,652.31,652.508,652.508,653.008,,,,,,,,,,,,,,1.776,1,,,,,,,,,,,,,,z,,,,,,,,,,,,,,,105,0,653.008,654.79,z,1,1.776,,[],[],[],[],[],[],[],654.791,656.791,656.791,656.792,[],[],[],[],[],[],[],,656.792,656.792,0.014444444,-0.411111111,0,0,0,,0,104,104,55,1,1,TL,fornute,print,fornute_p.png,,,,,,
,,,,31926,001,2025-10-19_17h03.40.985,HW_LDT_1,2024.2.4,MacIntel,250,,,,,,,,,,,,,,,,,,,,656.793,656.991,656.991,657.491,,,,,,,,,,,,,,0.672,1,,,,,,,,,,,,,,m,,,,,,,,,,,,,,,106,0,657.492,658.175,m,1,0.672,,[],[],[],[],[],[],[],658.175,660.175,660.175,660.175,[],[],[],[],[],[],[],,660.175,660.175,0.014444444,-0.411111111,0,0,0,,0,105,105,136,1,1,word,RADICAL,print,radical_p.png,,,,,,
,,,,31926,001,2025-10-19_17h03.40.985,HW_LDT_1,2024.2.4,MacIntel,250,,,,,,,,,,,,,,,,,,,,660.177,660.375,660.375,660.875,,,,,,,,,,,,,,4.027,1,,,,,,,,,,,,,,z,,,,,,,,,,,,,,,107,1,660.875,664.908,z,1,4.027,,[],[],[],[],[],[],[],664.908,666.908,666.908,668.942,[],[],[],[],[],[],[],z,668.942,668.942,0.014444444,-0.411111111,0,0,0,,0,106,106,5,1,1,RL,cobeny,cursive,cobeny_c.png,2.032,,,,,
,,,,31926,001,2025-10-19_17h03.40.985,HW_LDT_1,2024.2.4,MacIntel,250,,,,,,,,,,,,,,,,,,,,668.943,669.142,669.142,669.642,,,,,,,,,,,,,,2.158,1,,,,,,,,,,,,,,z,,,,,,,,,,,,,,,108,0,669.643,671.809,z,1,2.158,,[],[],[],[],[],[],[],671.809,673.809,673.809,673.809,[],[],[],[],[],[],[],,673.809,673.809,0.014444444,-0.411111111,0,0,0,,0,107,107,77,1,1,TL,tritube,cursive,tritube_c.png,,,,,,
,,,,31926,001,2025-10-19_17h03.40.985,HW_LDT_1,2024.2.4,MacIntel,250,,,,,,,,,,,,,,,,,,,,673.811,674.009,674.009,674.509,,,,,,,,,,,,,,2.674,1,,,,,,,,,,,,,,z,,,,,,,,,,,,,,,109,0,674.51,677.192,z,1,2.674,,[],[],[],[],[],[],[],677.192,679.193,679.193,679.193,[],[],[],[],[],[],[],,679.193,679.193,0.014444444,-0.411111111,0,0,0,,0,108,108,36,1,1,RL,speniven,cursive,speniven_c.png,,,,,,
,,,,31926,001,2025-10-19_17h03.40.985,HW_LDT_1,2024.2.4,MacIntel,250,,,,,,,,,,,,,,,,,,,,679.195,679.392,679.392,679.892,,,,,,,,,,,,,,4.495,1,,,,,,,,,,,,,,z,,,,,,,,,,,,,,,110,0,679.893,684.393,z,1,4.495,,[],[],[],[],[],[],[],684.393,686.393,686.393,686.393,[],[],[],[],[],[],[],,686.393,686.394,0.014444444,-0.411111111,0,0,0,,0,109,109,44,1,1,TL,cateferia,cursive,cateferia_c.png,,,,,,
,,,,31926,001,2025-10-19_17h03.40.985,HW_LDT_1,2024.2.4,MacIntel,250,,,,,,,,,,,,,,,,,,,,686.395,686.593,686.593,687.093,,,,,,,,,,,,,,0.889,1,,,,,,,,,,,,,,m,,,,,,,,,,,,,,,111,0,687.093,687.993,m,1,0.889,,[],[],[],[],[],[],[],687.993,689.993,689.993,689.993,[],[],[],[],[],[],[],,689.993,689.994,0.014444444,-0.411111111,0,0,0,,0,110,110,124,1,1,word,NUMERICAL,print,numerical_p.png,,,,,,
,,,,31926,001,2025-10-19_17h03.40.985,HW_LDT_1,2024.2.4,MacIntel,250,,,,,,,,,,,,,,,,,,,,689.995,690.193,690.193,690.693,,,,,,,,,,,,,,1.141,1,,,,,,,,,,,,,,m,,,,,,,,,,,,,,,112,0,690.694,691.843,m,1,1.141,,[],[],[],[],[],[],[],691.843,693.843,693.843,693.844,[],[],[],[],[],[],[],,693.844,693.844,0.014444444,-0.411111111,0,0,0,,0,111,111,113,1,1,word,LITERAL,print,literal_p.png,,,,,,
,,,,31926,001,2025-10-19_17h03.40.985,HW_LDT_1,2024.2.4,MacIntel,250,,,,,,,,,,,,,,,,,,,,693.845,694.043,694.043,694.543,,,,,,,,,,,,,,3.276,1,,,,,,,,,,,,,,z,,,,,,,,,,,,,,,113,0,694.544,697.827,z,1,3.276,,[],[],[],[],[],[],[],697.827,699.827,699.827,699.827,[],[],[],[],[],[],[],,699.827,699.828,0.014444444,-0.411111111,0,0,0,,0,112,112,74,1,1,TL,setanor,cursive,setanor_c.png,,,,,,
,,,,31926,001,2025-10-19_17h03.40.985,HW_LDT_1,2024.2.4,MacIntel,250,,,,,,,,,,,,,,,,,,,,699.829,700.027,700.027,700.527,,,,,,,,,,,,,,2.777,1,,,,,,,,,,,,,,z,,,,,,,,,,,,,,,114,0,700.527,703.31,z,1,2.777,,[],[],[],[],[],[],[],703.31,705.31,705.311,705.311,[],[],[],[],[],[],[],,705.311,705.311,0.014444444,-0.411111111,0,0,0,,0,113,113,17,1,1,RL,menowy,cursive,menowy_c.png,,,,,,
,,,,31926,001,2025-10-19_17h03.40.985,HW_LDT_1,2024.2.4,MacIntel,250,,,,,,,,,,,,,,,,,,,,705.312,705.51,705.51,706.01,,,,,,,,,,,,,,4.372,1,,,,,,,,,,,,,,m,,,,,,,,,,,,,,,115,0,706.011,710.394,m,1,4.372,,[],[],[],[],[],[],[],710.394,712.394,712.394,712.395,[],[],[],[],[],[],[],,712.395,712.395,0.014444444,-0.411111111,0,0,0,,0,114,114,87,1,1,word,CAFETERIA,cursive,cafeteria_c.png,,,,,,
,,,,31926,001,2025-10-19_17h03.40.985,HW_LDT_1,2024.2.4,MacIntel,250,,,,,,,,,,,,,,,,,,,,712.396,712.594,712.594,713.094,,,,,,,,,,,,,,1.605,1,,,,,,,,,,,,,,m,,,,,,,,,,,,,,,116,1,713.095,714.711,m,1,1.605,0.004,[],[],[],[],[],[],[],714.711,716.711,716.711,718.127,[],[],[],[],[],[],[],z,718.128,718.128,0.014444444,-0.411111111,0,0,0,,0,115,115,143,1,1,word,REMOVAL,cursive,removal_c.png,1.407,,,,,
,,,,31926,001,2025-10-19_17h03.40.985,HW_LDT_1,2024.2.4,MacIntel,250,,,,,,,,,,,,,,,,,,,,718.129,718.328,718.328,718.828,,,,,,,,,,,,,,0.792,1,,,,,,,,,,,,,,m,,,,,,,,,,,,,,,117,0,718.828,719.627,m,1,0.792,,[],[],[],[],[],[],[],719.627,721.628,721.628,721.629,[],[],[],[],[],[],[],,721.629,721.629,0.014444444,-0.411111111,0,0,0,,0,116,116,109,1,1,word,GRATEFUL,print,grateful_p.png,,,,,,
,,,,31926,001,2025-10-19_17h03.40.985,HW_LDT_1,2024.2.4,MacIntel,250,,,,,,,,,,,,,,,,,,,,721.63,721.827,721.827,722.328,,,,,,,,,,,,,,1.24,1,,,,,,,,,,,,,,m,,,,,,,,,,,,,,,118,0,722.329,723.578,m,1,1.24,,[],[],[],[],[],[],[],723.578,725.578,725.578,725.579,[],[],[],[],[],[],[],,725.579,725.579,0.014444444,-0.411111111,0,0,0,,0,117,117,151,1,1,word,SPECIFIC,cursive,specific_c.png,,,,,,
,,,,31926,001,2025-10-19_17h03.40.985,HW_LDT_1,2024.2.4,MacIntel,250,,,,,,,,,,,,,,,,,,,,725.58,725.778,725.778,726.278,,,,,,,,,,,,,,2.422,1,,,,,,,,,,,,,,z,,,,,,,,,,,,,,,119,0,726.279,728.712,z,1,2.422,,[],[],[],[],[],[],[],728.712,730.712,730.712,730.712,[],[],[],[],[],[],[],,730.712,730.713,0.014444444,-0.411111111,0,0,0,,0,118,118,71,1,1,TL,regilion,cursive,regilion_c.png,,,,,,
,,,,31926,001,2025-10-19_17h03.40.985,HW_LDT_1,2024.2.4,MacIntel,250,,,,,,,,,,,,,,,,,,,,730.714,730.912,730.912,731.412,,,,,,,,,,,,,,1.208,1,,,,,,,,,,,,,,m,,,,,,,,,,,,,,,120,1,731.412,732.628,m,1,1.208,,[],[],[],[],[],[],[],732.629,734.629,734.629,740.146,[],[],[],[],[],[],[],z,740.146,740.146,0.014444444,-0.411111111,0,0,0,,0,119,119,90,1,1,word,CAPITAL,print,capital_p.png,5.506,,,,,
,,,,31926,001,2025-10-19_17h03.40.985,HW_LDT_1,2024.2.4,MacIntel,250,,,,,,,,,,,,,,,,,,,,740.147,740.346,740.346,740.846,,,,,,,,,,,,,,12.791,1,,,,,,,,,,,,,,m,,,,,,,,,,,,,,,121,0,740.846,753.646,m,1,12.791,,[],[],[],[],[],[],[],753.646,755.646,755.646,755.647,[],[],[],[],[],[],[],,755.647,755.647,0.014444444,-0.411111111,0,0,0,,0,120,120,80,1,1,word,ACADEMY,cursive,academy_c.png,,,,,,
,,,,31926,001,2025-10-19_17h03.40.985,HW_LDT_1,2024.2.4,MacIntel,250,,,,,,,,,,,,,,,,,,,,755.648,755.846,755.846,756.346,,,,,,,,,,,,,,4.293,1,,,,,,,,,,,,,,m,,,,,,,,,,,,,,,122,0,756.347,760.646,m,1,4.293,,[],[],[],[],[],[],[],760.647,762.647,762.647,762.648,[],[],[],[],[],[],[],,762.648,762.649,0.014444444,-0.411111111,0,0,0,,0,121,121,111,1,1,word,INDICATE,cursive,indicate_c.png,,,,,,
,,,,31926,001,2025-10-19_17h03.40.985,HW_LDT_1,2024.2.4,MacIntel,250,,,,,,,,,,,,,,,,,,,,762.651,762.847,762.847,763.346,,,,,,,,,,,,,,1.954,1,,,,,,,,,,,,,,m,,,,,,,,,,,,,,,123,0,763.347,765.314,m,1,1.954,,[],[],[],[],[],[],[],765.314,767.314,767.314,767.314,[],[],[],[],[],[],[],,767.315,767.315,0.014444444,-0.411111111,0,0,0,,0,122,122,155,1,1,word,STRATEGY,cursive,strategy_c.png,,,,,,
,,,,31926,001,2025-10-19_17h03.40.985,HW_LDT_1,2024.2.4,MacIntel,250,,,,,,,,,,,,,,,,,,,,767.316,767.514,767.514,768.014,,,,,,,,,,,,,,4.761,1,,,,,,,,,,,,,,z,,,,,,,,,,,,,,,124,0,768.015,772.781,z,1,4.761,,[],[],[],[],[],[],[],772.781,774.781,774.781,774.781,[],[],[],[],[],[],[],,774.782,774.782,0.014444444,-0.411111111,0,0,0,,0,123,123,38,1,1,RL,stopave,cursive,stopave_c.png,,,,,,
,,,,31926,001,2025-10-19_17h03.40.985,HW_LDT_1,2024.2.4,MacIntel,250,,,,,,,,,,,,,,,,,,,,774.783,774.981,774.981,775.481,,,,,,,,,,,,,,2.124,1,,,,,,,,,,,,,,m,,,,,,,,,,,,,,,125,0,775.481,777.614,m,1,2.124,,[],[],[],[],[],[],[],777.614,779.614,779.614,779.615,[],[],[],[],[],[],[],,779.615,779.615,0.014444444,-0.411111111,0,0,0,,0,124,124,118,1,1,word,MEDICINE,cursive,medicine_c.png,,,,,,
,,,,31926,001,2025-10-19_17h03.40.985,HW_LDT_1,2024.2.4,MacIntel,250,,,,,,,,,,,,,,,,,,,,779.616,779.814,779.814,780.314,,,,,,,,,,,,,,1.906,1,,,,,,,,,,,,,,z,,,,,,,,,,,,,,,126,0,780.315,782.231,z,1,1.906,,[],[],[],[],[],[],[],782.231,784.231,784.231,784.232,[],[],[],[],[],[],[],,784.232,784.232,0.014444444,-0.411111111,0,0,0,,0,125,125,75,1,1,TL,speficic,cursive,speficic_c.png,,,,,,
,,,,31926,001,2025-10-19_17h03.40.985,HW_LDT_1,2024.2.4,MacIntel,250,,,,,,,,,,,,,,,,,,,,784.233,784.431,784.431,784.931,,,,,,,,,,,,,,3.244,1,,,,,,,,,,,,,,z,,,,,,,,,,,,,,,127,0,784.932,788.182,z,1,3.244,,[],[],[],[],[],[],[],788.182,790.181,790.181,790.182,[],[],[],[],[],[],[],,790.182,790.182,0.014444444,-0.411111111,0,0,0,,0,126,126,29,1,1,RL,refakive,cursive,refakive_c.png,,,,,,
,,,,31926,001,2025-10-19_17h03.40.985,HW_LDT_1,2024.2.4,MacIntel,250,,,,,,,,,,,,,,,,,,,,790.183,790.382,790.382,790.882,,,,,,,,,,,,,,1.007,1,,,,,,,,,,,,,,z,,,,,,,,,,,,,,,128,1,790.882,791.899,z,1,1.007,,[],[],[],[],[],[],[],791.899,793.898,793.898,795.131,[],[],[],[],[],[],[],m,795.132,795.132,0.014444444,-0.411111111,0,0,0,,0,127,127,72,1,1,TL,remuse,print,remuse_p.png,1.223,,,,,
,,,,31926,001,2025-10-19_17h03.40.985,HW_LDT_1,2024.2.4,MacIntel,250,,,,,,,,,,,,,,,,,,,,795.132,795.332,795.332,795.831,,,,,,,,,,,,,,5.19,1,,,,,,,,,,,,,,z,,,,,,,,,,,,,,,129,0,795.831,801.032,z,1,5.19,,[],[],[],[],[],[],[],801.032,803.032,803.032,803.033,[],[],[],[],[],[],[],,803.033,803.033,0.014444444,-0.411111111,0,0,0,,0,128,128,25,1,1,RL,quakity,cursive,quakity_c.png,,,,,,
,,,,31926,001,2025-10-19_17h03.40.985,HW_LDT_1,2024.2.4,MacIntel,250,,,,,,,,,,,,,,,,,,,,803.034,803.232,803.232,803.732,,,,,,,,,,,,,,1.937,1,,,,,,,,,,,,,,m,,,,,,,,,,,,,,,130,0,803.733,805.682,m,1,1.937,,[],[],[],[],[],[],[],805.682,807.682,807.683,807.683,[],[],[],[],[],[],[],,807.683,807.683,0.014444444,-0.411111111,0,0,0,,0,129,129,130,1,1,word,POLICY,cursive,policy_c.png,,,,,,
,,,,31926,001,2025-10-19_17h03.40.985,HW_LDT_1,2024.2.4,MacIntel,250,,,,,,,,,,,,,,,,,,,,807.685,807.882,807.882,808.382,,,,,,,,,,,,,,1.462,1,,,,,,,,,,,,,,z,,,,,,,,,,,,,,,131,0,808.382,809.849,z,1,1.462,,[],[],[],[],[],[],[],809.849,811.849,811.849,811.85,[],[],[],[],[],[],[],,811.85,811.85,0.014444444,-0.411111111,0,0,0,,0,130,130,69,1,1,TL,radiply,cursive,radiply_c.png,,,,,,
,,,,31926,001,2025-10-19_17h03.40.985,HW_LDT_1,2024.2.4,MacIntel,250,,,,,,,,,,,,,,,,,,,,811.851,812.049,812.049,812.549,,,,,,,,,,,,,,0.643,1,,,,,,,,,,,,,,m,,,,,,,,,,,,,,,132,0,812.55,813.199,m,1,0.643,,[],[],[],[],[],[],[],813.199,815.2,815.2,815.2,[],[],[],[],[],[],[],,815.2,815.2,0.014444444,-0.411111111,0,0,0,,0,131,131,108,1,1,word,FORTUNE,print,fortune_p.png,,,,,,
,,,,31926,001,2025-10-19_17h03.40.985,HW_LDT_1,2024.2.4,MacIntel,250,,,,,,,,,,,,,,,,,,,,815.201,815.4,815.4,815.9,,,,,,,,,,,,,,0.971,1,,,,,,,,,,,,,,z,,,,,,,,,,,,,,,133,0,815.9,816.883,z,1,0.971,,[],[],[],[],[],[],[],816.883,818.883,818.883,818.883,[],[],[],[],[],[],[],,818.884,818.884,0.014444444,-0.411111111,0,0,0,,0,132,132,46,1,1,TL,catipal,print,catipal_p.png,,,,,,
,,,,31926,001,2025-10-19_17h03.40.985,HW_LDT_1,2024.2.4,MacIntel,250,,,,,,,,,,,,,,,,,,,,818.885,819.083,819.083,819.583,,,,,,,,,,,,,,0.974,1,,,,,,,,,,,,,,z,,,,,,,,,,,,,,,134,0,819.584,820.567,z,1,0.974,,[],[],[],[],[],[],[],820.567,822.566,822.566,822.566,[],[],[],[],[],[],[],,822.566,822.567,0.014444444,-0.411111111,0,0,0,,0,133,133,62,1,1,TL,mitilary,print,mitilary_p.png,,,,,,
,,,,31926,001,2025-10-19_17h03.40.985,HW_LDT_1,2024.2.4,MacIntel,250,,,,,,,,,,,,,,,,,,,,822.568,822.766,822.766,823.267,,,,,,,,,,,,,,0.94,1,,,,,,,,,,,,,,z,,,,,,,,,,,,,,,135,0,823.267,824.217,z,1,0.94,,[],[],[],[],[],[],[],824.217,826.217,826.217,826.217,[],[],[],[],[],[],[],,826.217,826.217,0.014444444,-0.411111111,0,0,0,,0,134,134,18,1,1,RL,mishafe,print,mishafe_p.png,,,,,,
,,,,31926,001,2025-10-19_17h03.40.985,HW_LDT_1,2024.2.4,MacIntel,250,,,,,,,,,,,,,,,,,,,,826.219,826.417,826.417,826.917,,,,,,,,,,,,,,0.905,1,,,,,,,,,,,,,,m,,,,,,,,,,,,,,,136,0,826.917,827.833,m,1,0.905,,[],[],[],[],[],[],[],827.833,829.833,829.833,829.833,[],[],[],[],[],[],[],,829.833,829.833,0.014444444,-0.411111111,0,0,0,,0,135,135,126,1,1,word,OPTIMAL,print,optimal_p.png,,,,,,
,,,,31926,001,2025-10-19_17h03.40.985,HW_LDT_1,2024.2.4,MacIntel,250,,,,,,,,,,,,,,,,,,,,829.835,830.034,830.034,830.533,,,,,,,,,,,,,,0.875,1,,,,,,,,,,,,,,z,,,,,,,,,,,,,,,137,0,830.534,831.417,z,1,0.875,,[],[],[],[],[],[],[],831.417,833.417,833.417,833.418,[],[],[],[],[],[],[],,833.418,833.418,0.014444444,-0.411111111,0,0,0,,0,136,136,2,1,1,RL,asiral,print,asiral_p.png,,,,,,
,,,,31926,001,2025-10-19_17h03.40.985,HW_LDT_1,2024.2.4,MacIntel,250,,,,,,,,,,,,,,,,,,,,833.419,833.617,833.617,834.117,,,,,,,,,,,,,,0.689,1,,,,,,,,,,,,,,m,,,,,,,,,,,,,,,138,0,834.118,834.817,m,1,0.689,,[],[],[],[],[],[],[],834.817,836.817,836.817,836.818,[],[],[],[],[],[],[],,836.818,836.818,0.014444444,-0.411111111,0,0,0,,0,137,137,85,1,1,word,BENEFIT,print,benefit_p.png,,,,,,
,,,,31926,001,2025-10-19_17h03.40.985,HW_LDT_1,2024.2.4,MacIntel,250,,,,,,,,,,,,,,,,,,,,836.819,837.017,837.018,837.517,,,,,,,,,,,,,,8.756,1,,,,,,,,,,,,,,m,,,,,,,,,,,,,,,139,0,837.517,846.285,m,1,8.756,,[],[],[],[],[],[],[],846.285,848.285,848.285,848.285,[],[],[],[],[],[],[],,848.285,848.285,0.014444444,-0.411111111,0,0,0,,0,138,138,140,1,1,word,RELATIVE,cursive,relative_c.png,,,,,,
,,,,31926,001,2025-10-19_17h03.40.985,HW_LDT_1,2024.2.4,MacIntel,250,,,,,,,,,,,,,,,,,,,,848.287,848.484,848.484,848.985,,,,,,,,,,,,,,2.224,1,,,,,,,,,,,,,,m,,,,,,,,,,,,,,,140,1,848.985,851.218,m,1,2.224,,[],[],[],[],[],[],[],851.218,853.218,853.218,854.318,[],[],[],[],[],[],[],z,854.319,854.319,0.014444444,-0.411111111,0,0,0,,0,139,139,96,1,1,word,CONSIDER,cursive,consider_c.png,1.091,,,,,
,,,,31926,001,2025-10-19_17h03.40.985,HW_LDT_1,2024.2.4,MacIntel,250,,,,,,,,,,,,,,,,,,,,854.32,854.518,854.518,855.018,,,,,,,,,,,,,,0.89,1,,,,,,,,,,,,,,m,,,,,,,,,,,,,,,141,0,855.019,855.918,m,1,0.89,,[],[],[],[],[],[],[],855.918,857.919,857.919,857.919,[],[],[],[],[],[],[],,857.919,857.919,0.014444444,-0.411111111,0,0,0,,0,140,140,138,1,1,word,REFUSAL,print,refusal_p.png,,,,,,
,,,,31926,001,2025-10-19_17h03.40.985,HW_LDT_1,2024.2.4,MacIntel,250,,,,,,,,,,,,,,,,,,,,857.921,858.118,858.119,858.619,,,,,,,,,,,,,,1.677,1,,,,,,,,,,,,,,m,,,,,,,,,,,,,,,142,0,858.619,860.302,m,1,1.677,,[],[],[],[],[],[],[],860.302,862.302,862.302,862.303,[],[],[],[],[],[],[],,862.303,862.303,0.014444444,-0.411111111,0,0,0,,0,141,141,146,1,1,word,RETIRE,cursive,retire_c.png,,,,,,
,,,,31926,001,2025-10-19_17h03.40.985,HW_LDT_1,2024.2.4,MacIntel,250,,,,,,,,,,,,,,,,,,,,862.304,862.502,862.502,863.002,,,,,,,,,,,,,,2.887,1,,,,,,,,,,,,,,m,,,,,,,,,,,,,,,143,0,863.003,865.902,m,1,2.887,,[],[],[],[],[],[],[],865.903,867.902,867.902,867.903,[],[],[],[],[],[],[],,867.903,867.903,0.014444444,-0.411111111,0,0,0,,0,142,142,101,1,1,word,DELICATE,cursive,delicate_c.png,,,,,,
,,,,31926,001,2025-10-19_17h03.40.985,HW_LDT_1,2024.2.4,MacIntel,250,,,,,,,,,,,,,,,,,,,,867.904,868.102,868.102,868.602,,,,,,,,,,,,,,4.305,1,,,,,,,,,,,,,,z,,,,,,,,,,,,,,,144,1,868.603,872.919,z,1,4.305,,[],[],[],[],[],[],[],872.919,874.919,874.919,875.636,[],[],[],[],[],[],[],z,875.636,875.636,0.013333333,-0.411111111,0,0,0,,0,143,143,68,1,1,TL,prosopal,cursive,prosopal_c.png,0.713,,,,,
,,,,31926,001,2025-10-19_17h03.40.985,HW_LDT_1,2024.2.4,MacIntel,250,,,,,,,,,,,,,,,,,,,,875.637,875.839,875.839,876.336,,,,,,,,,,,,,,3.704,1,,,,,,,,,,,,,,z,,,,,,,,,,,,,,,145,0,876.337,880.053,z,1,3.704,,[],[],[],[],[],[],[],880.054,882.053,882.053,882.054,[],[],[],[],[],[],[],,882.054,882.055,0.013333333,-0.411111111,0,0,0,,0,144,144,3,1,1,RL,casena,cursive,casena_c.png,,,,,,
,,,,31926,001,2025-10-19_17h03.40.985,HW_LDT_1,2024.2.4,MacIntel,250,,,,,,,,,,,,,,,,,,,,882.056,882.253,882.253,882.753,,,,,,,,,,,,,,0.69,1,,,,,,,,,,,,,,m,,,,,,,,,,,,,,,146,0,882.754,883.453,m,1,0.69,,[],[],[],[],[],[],[],883.454,885.453,885.453,885.454,[],[],[],[],[],[],[],,885.454,885.454,0.013333333,-0.411111111,0,0,0,,0,145,145,128,1,1,word,PACIFIC,print,pacific_p.png,,,,,,
,,,,31926,001,2025-10-19_17h03.40.985,HW_LDT_1,2024.2.4,MacIntel,250,,,,,,,,,,,,,,,,,,,,885.456,885.653,885.653,886.153,,,,,,,,,,,,,,0.861,1,,,,,,,,,,,,,,z,,,,,,,,,,,,,,,147,1,886.154,887.02,z,1,0.861,,[],[],[],[],[],[],[],887.02,889.02,889.02,890.255,[],[],[],[],[],[],[],m,890.255,890.255,0.013333333,-0.411111111,0,0,0,,0,146,146,60,1,1,TL,manire,print,manire_p.png,1.229,,,,,
,,,,31926,001,2025-10-19_17h03.40.985,HW_LDT_1,2024.2.4,MacIntel,250,,,,,,,,,,,,,,,,,,,,890.255,890.453,890.454,890.953,,,,,,,,,,,,,,1.178,1,,,,,,,,,,,,,,z,,,,,,,,,,,,,,,148,0,890.954,892.137,z,1,1.178,,[],[],[],[],[],[],[],892.137,894.137,894.137,894.138,[],[],[],[],[],[],[],,894.138,894.138,0.013333333,-0.411111111,0,0,0,,0,147,147,41,1,1,TL,bevoled,print,bevoled_p.png,,,,,,
,,,,31926,001,2025-10-19_17h03.40.985,HW_LDT_1,2024.2.4,MacIntel,250,,,,,,,,,,,,,,,,,,,,894.139,894.337,894.337,894.837,,,,,,,,,,,,,,0.76,0,,,,,,,,,,,,,,z,,,,,,,,,,,,,,,149,0,894.838,895.604,m,0,0.76,,[],[],[],[],[],[],[],895.604,897.604,897.604,897.604,[],[],[],[],[],[],[],,897.604,897.605,0.013333333,-0.411111111,0,0,0,,0,148,148,56,1,1,TL,grafetul,print,grafetul_p.png,,,,,,
,,,,31926,001,2025-10-19_17h03.40.985,HW_LDT_1,2024.2.4,MacIntel,250,,,,,,,,,,,,,,,,,,,,897.606,897.804,897.804,898.304,,,,,,,,,,,,,,1.039,1,,,,,,,,,,,,,,m,,,,,,,,,,,,,,,150,0,898.304,899.354,m,1,1.039,,[],[],[],[],[],[],[],899.354,901.354,901.354,901.355,[],[],[],[],[],[],[],,901.355,901.355,0.013333333,-0.411111111,0,0,0,,0,149,149,98,1,1,word,CRIMINAL,print,criminal_p.png,,,,,,
,,,,31926,001,2025-10-19_17h03.40.985,HW_LDT_1,2024.2.4,MacIntel,250,,,,,,,,,,,,,,,,,,,,901.356,901.553,901.553,902.054,,,,,,,,,,,,,,2.608,1,,,,,,,,,,,,,,m,,,,,,,,,,,,,,,151,0,902.055,904.67,m,1,2.608,,[],[],[],[],[],[],[],904.67,906.671,906.671,906.672,[],[],[],[],[],[],[],,906.672,906.672,0.013333333,-0.411111111,0,0,0,,0,150,150,150,1,1,word,SENTIMENT,cursive,sentiment_c.png,,,,,,
,,,,31926,001,2025-10-19_17h03.40.985,HW_LDT_1,2024.2.4,MacIntel,250,,,,,,,,,,,,,,,,,,,,906.673,906.871,906.871,907.377,,,,,,,,,,,,,,0.8,1,,,,,,,,,,,,,,z,,,,,,,,,,,,,,,152,0,907.377,908.188,z,1,0.8,,[],[],[],[],[],[],[],908.188,910.188,910.188,910.189,[],[],[],[],[],[],[],,910.189,910.189,0.013333333,-0.411111111,0,0,0,,0,151,151,70,1,1,TL,relugar,print,relugar_p.png,,,,,,
,,,,31926,001,2025-10-19_17h03.40.985,HW_LDT_1,2024.2.4,MacIntel,250,,,,,,,,,,,,,,,,,,,,910.19,910.388,910.388,910.888,,,,,,,,,,,,,,2.908,1,,,,,,,,,,,,,,m,,,,,,,,,,,,,,,153,0,910.889,913.805,m,1,2.908,,[],[],[],[],[],[],[],913.805,915.804,915.804,915.804,[],[],[],[],[],[],[],,915.804,915.804,0.013333333,-0.411111111,0,0,0,,0,152,152,125,1,1,word,OPERATOR,cursive,operator_c.png,,,,,,
,,,,31926,001,2025-10-19_17h03.40.985,HW_LDT_1,2024.2.4,MacIntel,250,,,,,,,,,,,,,,,,,,,,915.805,916.005,916.005,916.505,,,,,,,,,,,,,,1.338,1,,,,,,,,,,,,,,z,,,,,,,,,,,,,,,154,0,916.505,917.855,z,1,1.338,,[],[],[],[],[],[],[],917.855,919.855,919.855,919.856,[],[],[],[],[],[],[],,919.856,919.856,0.013333333,-0.411111111,0,0,0,,0,153,153,64,1,1,TL,orepator,cursive,orepator_c.png,,,,,,
,,,,31926,001,2025-10-19_17h03.40.985,HW_LDT_1,2024.2.4,MacIntel,250,,,,,,,,,,,,,,,,,,,,919.857,920.055,920.055,920.555,,,,,,,,,,,,,,0.976,1,,,,,,,,,,,,,,m,,,,,,,,,,,,,,,155,0,920.556,921.538,m,1,0.976,,[],[],[],[],[],[],[],921.539,923.538,923.538,923.538,[],[],[],[],[],[],[],,923.538,923.538,0.013333333,-0.411111111,0,0,0,,0,154,154,158,1,1,word,VELOCITY,print,velocity_p.png,,,,,,
,,,,31926,001,2025-10-19_17h03.40.985,HW_LDT_1,2024.2.4,MacIntel,250,,,,,,,,,,,,,,,,,,,,923.54,923.739,923.739,924.239,,,,,,,,,,,,,,0.927,1,,,,,,,,,,,,,,m,,,,,,,,,,,,,,,156,0,924.239,925.172,m,1,0.927,,[],[],[],[],[],[],[],925.172,927.172,927.172,927.173,[],[],[],[],[],[],[],,927.173,927.173,0.013333333,-0.411111111,0,0,0,,0,155,155,145,1,1,word,RESUME,print,resume_p.png,,,,,,
,,,,31926,001,2025-10-19_17h03.40.985,HW_LDT_1,2024.2.4,MacIntel,250,,,,,,,,,,,,,,,,,,,,927.174,927.372,927.372,927.872,,,,,,,,,,,,,,0.824,1,,,,,,,,,,,,,,m,,,,,,,,,,,,,,,157,1,927.872,928.705,m,1,0.824,,[],[],[],[],[],[],[],928.705,930.706,930.706,931.759,[],[],[],[],[],[],[],m,931.76,931.76,0.013333333,-0.411111111,0,0,0,,0,156,156,144,1,1,word,RESIDENT,print,resident_p.png,1.048,,,,,
,,,,31926,001,2025-10-19_17h03.40.985,HW_LDT_1,2024.2.4,MacIntel,250,,,,,,,,,,,,,,,,,,,,931.76,931.956,931.956,932.455,,,,,,,,,,,,,,2.258,1,,,,,,,,,,,,,,m,,,,,,,,,,,,,,,158,0,932.455,934.722,m,1,2.258,,[],[],[],[],[],[],[],934.722,936.723,936.723,936.723,[],[],[],[],[],[],[],,936.723,936.724,0.013333333,-0.411111111,0,0,0,,0,157,157,131,1,1,word,POPULAR,cursive,popular_c.png,,,,,,
,,,,31926,001,2025-10-19_17h03.40.985,HW_LDT_1,2024.2.4,MacIntel,250,,,,,,,,,,,,,,,,,,,,936.725,936.923,936.923,937.423,,,,,,,,,,,,,,3.371,1,,,,,,,,,,,,,,m,,,,,,,,,,,,,,,159,0,937.423,940.807,m,1,3.371,,[],[],[],[],[],[],[],940.809,942.806,942.806,942.806,[],[],[],[],[],[],[],,942.807,942.807,0.013333333,-0.411111111,0,0,0,,0,158,158,104,1,1,word,DOMINANT,cursive,dominant_c.png,,,,,,
,,,,31926,001,2025-10-19_17h03.40.985,HW_LDT_1,2024.2.4,MacIntel,250,,,,,,,,,,,,,,,,,,,,942.809,943.006,943.006,943.506,,,,,,,,,,,,,,1.488,1,,,,,,,,,,,,,,z,,,,,,,,,,,,,,,160,0,943.507,945.007,z,1,1.488,,[],[],[],[],[],[],[],945.007,947.006,947.006,947.006,[],[],[],[],[],[],[],,947.006,947.006,0.013333333,-0.411111111,0,0,0,,0,159,159,27,1,1,RL,rasibal,print,rasibal_p.png,,,,,,
,,,,31926,001,2025-10-19_17h03.40.985,HW_LDT_1,2024.2.4,MacIntel,250,,,,,,,,,,,,,,,,,,,,,,,,,,,,,,,,,,,,,,,,,,,,,,,,,,,,,,,,,,,,,,,,,,,,,,,,,,,,,,,,,,,,,,,,,,,,,,,,,,,,,,,,,,,,,,,,,,,,947.028,952.008
