counterbalance_lists.group,counterbalance_lists.remaining,get_list.started,get_list.stopped,participant,session,date,expName,psychopyVersion,OS,frameRate,Instructions.started,Instructions.stopped,key_resp.keys,key_resp.rt,key_resp.duration,instr_done_touch.x,instr_done_touch.y,instr_done_touch.leftButton,instr_done_touch.midButton,instr_done_touch.rightButton,start_instr.thisRepN,start_instr.thisTrialN,start_instr.thisN,start_instr.thisIndex,start_instr.ran,pageN,phase,instruct_text,has_image,instruct_image,showProgress.started,showProgress.stopped,fix.started,fix.stopped,prac.started,prac.stopped,response.keys,response.corr,response.rt,response.duration,touch_resp.x,touch_resp.y,touch_resp.leftButton,touch_resp.midButton,touch_resp.rightButton,touch_resp.time,touch_resp.clicked_name,rt,corr,feedback.started,feedback.stopped,trials.thisRepN,trials.thisTrialN,trials.thisN,trials.thisIndex,trials.ran,TrialID,StimulusType,Condition,PrimeDuration,Prime,Target,corrAns,Instructions_expt.started,Instructions_expt.stopped,key_resp_3.keys,instr_done_touch_3.x,instr_done_touch_3.y,instr_done_touch_3.leftButton,instr_done_touch_3.midButton,instr_done_touch_3.rightButton,instr_done_touch_3.clicked_name,instr_experiment.thisRepN,instr_experiment.thisTrialN,instr_experiment.thisN,instr_experiment.thisIndex,instr_experiment.ran,trialID,flag,maintask.started,maintask.stopped,key_resp_2.keys,key_resp_2.corr,key_resp_2.rt,key_resp_2.duration,targ_click.x,targ_click.y,targ_click.leftButton,targ_click.midButton,targ_click.rightButton,targ_click.time,targ_click.clicked_name,ITI.started,ITI.stopped,probe.started,probe.stopped,click_probe.x,click_probe.y,click_probe.leftButton,click_probe.midButton,click_probe.rightButton,click_probe.time,click_probe.clicked_name,key_resp_probe.keys,Break.started,Break.stopped,break_done_touch.x,break_done_touch.y,break_done_touch.leftButton,break_done_touch.midButton,break_done_touch.rightButton,break_done_keyboard.keys,list3_trials.thisRepN,list3_trials.thisTrialN,list3_trials.thisN,list3_trials.thisIndex,list3_trials.ran,list_id,item_type,string,font,stim_file,key_resp_probe.rt,key_resp_probe.duration,break_done_keyboard.rt,break_done_keyboard.duration,End.started,End.stopped
list3,,0.7742,0.7743,31922,001,2025-10-16_13h42.21.790,HW_LDT_1,2024.2.4,MacIntel,59.88023952,,,,,,,,,,,,,,,,,,,,,,,,,,,,,,,,,,,,,,,,,,,,,,,,,,,,,,,,,,,,,,,,,,,,,,,,,,,,,,,,,,,,,,,,,,,,,,,,,,,,,,,,,,,,,,,,,,,,,,
,,,,31922,001,2025-10-16_13h42.21.790,HW_LDT_1,2024.2.4,MacIntel,59.88023952,0.7966,2.9397,space,2.0986,,-0.082510747,-0.423408565,0,0,0,0,0,0,0,1,1,instructions,"INSTRUCTIONS
At the start of each trial, look at the plus sign  (+) in the center of the screen.  This tells you that a trial is about to begin and where to look. Second, the plus sign will disappear and a string of letters will appear. Your task is to determine if the string of letters is a word or not. If the item is a word press the M key (on keyboard)  or touch the word button (phone/tablet).  If the item is not a word,  press the  Z key (on keyboard)  or touch the nonword button (on phone/tablet). The items will be presented for a short time. 
Press the space bar or touch  continue.",0,,,,,,,,,,,,,,,,,,,,,,,,,,,,,,,,,,,,,,,,,,,,,,,,,,,,,,,,,,,,,,,,,,,,,,,,,,,,,,,,,,,,,,,,,,,,,,,,,,,
,,,,31922,001,2025-10-16_13h42.21.790,HW_LDT_1,2024.2.4,MacIntel,59.88023952,2.9412,11.882,space,8.9213,,-0.082510747,-0.423408565,0,0,0,0,1,1,1,1,2,instructions,"If your device has a keyboard, press the 'Z' key for nonwords and the 'M' key for words.





Press the space bar or touch the button below to continue.",0,keyboard-example.gif,,,,,,,,,,,,,,,,,,,,,,,,,,,,,,,,,,,,,,,,,,,,,,,,,,,,,,,,,,,,,,,,,,,,,,,,,,,,,,,,,,,,,,,,,,,,,,,,,,
,,,,31922,001,2025-10-16_13h42.21.790,HW_LDT_1,2024.2.4,MacIntel,59.88023952,11.887,16.4316,space,4.5194,,-0.082510747,-0.423408565,0,0,0,0,2,2,2,1,3,instructions,"If you are using a touchscreen only device, use the buttons on the screen. Do not use the mouse.





Press the space bar or touch the button below to continue.",0,touchscreen-example.gif,,,,,,,,,,,,,,,,,,,,,,,,,,,,,,,,,,,,,,,,,,,,,,,,,,,,,,,,,,,,,,,,,,,,,,,,,,,,,,,,,,,,,,,,,,,,,,,,,,
,,,,31922,001,2025-10-16_13h42.21.790,HW_LDT_1,2024.2.4,MacIntel,59.88023952,16.4343,19.5231,space,3.0626,,-0.082510747,-0.423648313,0,0,0,0,3,3,3,1,4,instructions,"It is very important that you respond as quickly and accurately as possible, as each letter string will only be on the screen for two seconds. If you do not respond within this time, the message 'Too slow!' will be displayed and the experiment will progress to the next letter string. The first 20 trials will be practice trials and you will receive feedback on your answers. 

Press the space bar or touch the button below to start the practice trials.",0,,,,,,,,,,,,,,,,,,,,,,,,,,,,,,,,,,,,,,,,,,,,,,,,,,,,,,,,,,,,,,,,,,,,,,,,,,,,,,,,,,,,,,,,,,,,,,,,,,,
,,,,31922,001,2025-10-16_13h42.21.790,HW_LDT_1,2024.2.4,MacIntel,59.88023952,,,,,,,,,,,,,,,,,,,,,19.5493,19.7151,19.7153,20.2231,20.2234,22.5315,m,1,2.2856,,[],[],[],[],[],[],[],2.2856,1,22.5317,23.0314,0,0,0,5,1,1006,WORD,UN,33,frenzy,OBTAIN,m,,,,,,,,,,,,,,,,,,,,,,,,,,,,,,,,,,,,,,,,,,,,,,,,,,,,,,,,,,,,,,,,,
,,,,31922,001,2025-10-16_13h42.21.790,HW_LDT_1,2024.2.4,MacIntel,59.88023952,,,,,,,,,,,,,,,,,,,,,23.0329,23.2306,23.2307,23.7305,23.7314,24.5055,m,1,0.7616,,[],[],[],[],[],[],[],0.7616,1,24.5056,25.0064,0,1,1,0,1,1001,WORD,"ID",33,utopia,UTOPIA,m,,,,,,,,,,,,,,,,,,,,,,,,,,,,,,,,,,,,,,,,,,,,,,,,,,,,,,,,,,,,,,,,,
,,,,31922,001,2025-10-16_13h42.21.790,HW_LDT_1,2024.2.4,MacIntel,59.88023952,,,,,,,,,,,,,,,,,,,,,25.0077,25.2062,25.2063,25.7064,25.7076,26.448,m,1,0.724,,[],[],[],[],[],[],[],0.724,1,26.4481,26.9477,0,2,2,6,1,1007,WORD,UN,16,tropic,ZOMBIE,m,,,,,,,,,,,,,,,,,,,,,,,,,,,,,,,,,,,,,,,,,,,,,,,,,,,,,,,,,,,,,,,,,
,,,,31922,001,2025-10-16_13h42.21.790,HW_LDT_1,2024.2.4,MacIntel,59.88023952,,,,,,,,,,,,,,,,,,,,,26.9489,27.1481,27.1481,27.6477,27.6482,28.2648,m,1,0.6031,,[],[],[],[],[],[],[],0.6031,1,28.265,28.7649,0,3,3,3,1,1004,WORD,"ID",16,matrix,MATRIX,m,,,,,,,,,,,,,,,,,,,,,,,,,,,,,,,,,,,,,,,,,,,,,,,,,,,,,,,,,,,,,,,,,
,,,,31922,001,2025-10-16_13h42.21.790,HW_LDT_1,2024.2.4,MacIntel,59.88023952,,,,,,,,,,,,,,,,,,,,,28.7666,28.9647,28.9648,29.4646,29.4659,30.1563,z,1,0.6756,,[],[],[],[],[],[],[],0.6756,1,30.1564,30.6564,0,4,4,9,1,1010,NW,"ID",33,fariny,FARINY,z,,,,,,,,,,,,,,,,,,,,,,,,,,,,,,,,,,,,,,,,,,,,,,,,,,,,,,,,,,,,,,,,,
,,,,31922,001,2025-10-16_13h42.21.790,HW_LDT_1,2024.2.4,MacIntel,59.88023952,,,,,,,,,,,,,,,,,,,,,30.6579,30.8564,30.8565,31.3563,31.3571,32.0396,z,1,0.6693,,[],[],[],[],[],[],[],0.6693,1,32.0397,32.5397,0,5,5,14,1,1015,NW,UN,16,miaber,THRALE,z,,,,,,,,,,,,,,,,,,,,,,,,,,,,,,,,,,,,,,,,,,,,,,,,,,,,,,,,,,,,,,,,,
,,,,31922,001,2025-10-16_13h42.21.790,HW_LDT_1,2024.2.4,MacIntel,59.88023952,,,,,,,,,,,,,,,,,,,,,32.5408,32.7391,32.7391,33.2389,33.2399,33.7896,m,1,0.5352,,[],[],[],[],[],[],[],0.5352,1,33.7896,34.2897,0,6,6,1,1,1002,WORD,"ID",33,adjust,ADJUST,m,,,,,,,,,,,,,,,,,,,,,,,,,,,,,,,,,,,,,,,,,,,,,,,,,,,,,,,,,,,,,,,,,
,,,,31922,001,2025-10-16_13h42.21.790,HW_LDT_1,2024.2.4,MacIntel,59.88023952,,,,,,,,,,,,,,,,,,,,,34.2908,34.4894,34.4894,34.9897,34.9905,35.4977,m,1,0.4912,,[],[],[],[],[],[],[],0.4912,1,35.4978,35.9978,0,7,7,7,1,1008,WORD,UN,16,hurdle,VOLUME,m,,,,,,,,,,,,,,,,,,,,,,,,,,,,,,,,,,,,,,,,,,,,,,,,,,,,,,,,,,,,,,,,,
,,,,31922,001,2025-10-16_13h42.21.790,HW_LDT_1,2024.2.4,MacIntel,59.88023952,,,,,,,,,,,,,,,,,,,,,35.9989,36.198,36.198,36.6971,36.6979,37.4396,z,1,0.726,,[],[],[],[],[],[],[],0.726,1,37.4398,37.9396,0,8,8,15,1,1016,NW,UN,16,mushed,WHAISE,z,,,,,,,,,,,,,,,,,,,,,,,,,,,,,,,,,,,,,,,,,,,,,,,,,,,,,,,,,,,,,,,,,
,,,,31922,001,2025-10-16_13h42.21.790,HW_LDT_1,2024.2.4,MacIntel,59.88023952,,,,,,,,,,,,,,,,,,,,,37.941,38.1395,38.1396,38.6396,38.6405,39.1981,m,1,0.5417,,[],[],[],[],[],[],[],0.5417,1,39.1982,39.6979,0,9,9,4,1,1005,WORD,UN,33,abound,SQUEAK,m,,,,,,,,,,,,,,,,,,,,,,,,,,,,,,,,,,,,,,,,,,,,,,,,,,,,,,,,,,,,,,,,,
,,,,31922,001,2025-10-16_13h42.21.790,HW_LDT_1,2024.2.4,MacIntel,59.88023952,,,,,,,,,,,,,,,,,,,,,39.699,39.898,39.8981,40.3981,40.3988,40.9392,m,1,0.5268,,[],[],[],[],[],[],[],0.5268,1,40.9393,41.4396,0,10,10,2,1,1003,WORD,"ID",16,almond,ALMOND,m,,,,,,,,,,,,,,,,,,,,,,,,,,,,,,,,,,,,,,,,,,,,,,,,,,,,,,,,,,,,,,,,,
,,,,31922,001,2025-10-16_13h42.21.790,HW_LDT_1,2024.2.4,MacIntel,59.88023952,,,,,,,,,,,,,,,,,,,,,41.4409,41.6397,41.6397,42.139,42.1397,42.8062,z,1,0.6549,,[],[],[],[],[],[],[],0.6549,1,42.8063,43.3056,0,11,11,8,1,1009,NW,"ID",33,aslert,ASLERT,z,,,,,,,,,,,,,,,,,,,,,,,,,,,,,,,,,,,,,,,,,,,,,,,,,,,,,,,,,,,,,,,,,
,,,,31922,001,2025-10-16_13h42.21.790,HW_LDT_1,2024.2.4,MacIntel,59.88023952,,,,,,,,,,,,,,,,,,,,,43.3068,43.5064,43.5065,44.0064,44.0074,44.6643,z,1,0.6417,,[],[],[],[],[],[],[],0.6417,1,44.6645,45.1641,0,12,12,11,1,1012,NW,"ID",16,rashet,RASHET,z,,,,,,,,,,,,,,,,,,,,,,,,,,,,,,,,,,,,,,,,,,,,,,,,,,,,,,,,,,,,,,,,,
,,,,31922,001,2025-10-16_13h42.21.790,HW_LDT_1,2024.2.4,MacIntel,59.88023952,,,,,,,,,,,,,,,,,,,,,45.165,45.3649,45.3649,45.8648,45.8655,46.5062,z,1,0.6235,,[],[],[],[],[],[],[],0.6235,1,46.5063,47.0064,0,13,13,10,1,1011,NW,"ID",16,inlade,INLADE,z,,,,,,,,,,,,,,,,,,,,,,,,,,,,,,,,,,,,,,,,,,,,,,,,,,,,,,,,,,,,,,,,,
,,,,31922,001,2025-10-16_13h42.21.790,HW_LDT_1,2024.2.4,MacIntel,59.88023952,,,,,,,,,,,,,,,,,,,,,47.0075,47.2062,47.2063,47.7058,47.7065,48.3731,z,1,0.652,,[],[],[],[],[],[],[],0.652,1,48.3733,48.8732,0,14,14,13,1,1014,NW,UN,33,winfer,ROUPET,z,,,,,,,,,,,,,,,,,,,,,,,,,,,,,,,,,,,,,,,,,,,,,,,,,,,,,,,,,,,,,,,,,
,,,,31922,001,2025-10-16_13h42.21.790,HW_LDT_1,2024.2.4,MacIntel,59.88023952,,,,,,,,,,,,,,,,,,,,,48.8745,49.0732,49.0733,49.5729,49.5734,51.4396,z,1,1.8526,,[],[],[],[],[],[],[],1.8526,1,51.4397,51.9397,0,15,15,12,1,1013,NW,UN,33,adveil,SPRINY,z,,,,,,,,,,,,,,,,,,,,,,,,,,,,,,,,,,,,,,,,,,,,,,,,,,,,,,,,,,,,,,,,,
,,,,31922,001,2025-10-16_13h42.21.790,HW_LDT_1,2024.2.4,MacIntel,59.88023952,,,,,,,,,,,,,,,,1,end_of_practice,"You have completed the practice trials. During the experimental trials, you will not receive feedback. On some trials you will be asked to report whether the item you just saw was in cursive or print. 
Before you begin, please ensure that you are in a comfortable and quiet location and will not be disturbed for about 15 minutes, as we cannot use your data if you do not complete all the trials. 
 When you are ready to start the experimental trials, please press space or touch the button below.",,,,,,,,,,,,,,,,,,,,,,,,,,,,,,,,,,,,51.9495,143.5006,,-0.014405589,-0.388417659,1,0,0,instr_done_button_3,0,0,0,0,1,,,,,,,,,,,,,,,,,,,,,,,,,,,,,,,,,,,,,,,,,,,,,,,,,,,
,,,,31922,001,2025-10-16_13h42.21.790,HW_LDT_1,2024.2.4,MacIntel,59.88023952,,,,,,,,,,,,,,,,,,,,,143.5162,143.6897,143.6898,144.1981,,,,,,,,,,,,,,3.0658,0,,,,,,,,,,,,,,m,,,,,,,,,,,,,,,1,0,144.2008,147.2731,z,0,3.0658,,[],[],[],[],[],[],[],147.2732,149.2734,149.2737,149.2785,[],[],[],[],[],[],[],,149.2786,149.2817,-0.014405589,-0.388417659,0,0,0,,0,0,0,114,1,3,word,LOCATE,cursive,locate_c.png,,,,,,
,,,,31922,001,2025-10-16_13h42.21.790,HW_LDT_1,2024.2.4,MacIntel,59.88023952,,,,,,,,,,,,,,,,,,,,,149.2827,149.4811,149.4812,149.9812,,,,,,,,,,,,,,2.7301,1,,,,,,,,,,,,,,z,,,,,,,,,,,,,,,2,0,149.9819,152.7148,z,1,2.7301,,[],[],[],[],[],[],[],152.7149,154.7149,154.715,154.7153,[],[],[],[],[],[],[],,154.7153,154.7155,-0.014405589,-0.388417659,0,0,0,,0,1,1,6,1,3,RL,cenesony,cursive,cenesony_c.png,,,,,,
,,,,31922,001,2025-10-16_13h42.21.790,HW_LDT_1,2024.2.4,MacIntel,59.88023952,,,,,,,,,,,,,,,,,,,,,154.7169,154.9142,154.9142,155.4148,,,,,,,,,,,,,,2.6201,1,,,,,,,,,,,,,,z,,,,,,,,,,,,,,,3,0,155.4157,158.0395,z,1,2.6201,,[],[],[],[],[],[],[],158.0396,160.0398,160.0398,160.0401,[],[],[],[],[],[],[],,160.0401,160.0402,-0.014405589,-0.388417659,0,0,0,,0,2,2,49,1,3,TL,incidate,print,incidate_p.png,,,,,,
,,,,31922,001,2025-10-16_13h42.21.790,HW_LDT_1,2024.2.4,MacIntel,59.88023952,,,,,,,,,,,,,,,,,,,,,160.0414,160.2395,160.2396,160.7388,,,,,,,,,,,,,,1.1791,1,,,,,,,,,,,,,,m,,,,,,,,,,,,,,,4,0,160.7393,161.9231,m,1,1.1791,,[],[],[],[],[],[],[],161.9233,163.9229,163.9229,163.9231,[],[],[],[],[],[],[],,163.9231,163.9232,-0.014405589,-0.388417659,0,0,0,,0,3,3,102,1,3,word,DENSITY,print,density_p.png,,,,,,
,,,,31922,001,2025-10-16_13h42.21.790,HW_LDT_1,2024.2.4,MacIntel,59.88023952,,,,,,,,,,,,,,,,,,,,,163.9242,164.123,164.123,164.623,,,,,,,,,,,,,,1.2058,1,,,,,,,,,,,,,,z,,,,,,,,,,,,,,,5,0,164.6235,165.8306,z,1,1.2058,,[],[],[],[],[],[],[],165.8306,167.8315,167.8316,167.8319,[],[],[],[],[],[],[],,167.832,167.8321,-0.014405589,-0.388417659,0,0,0,,0,4,4,39,1,3,TL,clicinal,print,clicinal_p.png,,,,,,
,,,,31922,001,2025-10-16_13h42.21.790,HW_LDT_1,2024.2.4,MacIntel,59.88023952,,,,,,,,,,,,,,,,,,,,,167.8331,168.0307,168.0308,168.5315,,,,,,,,,,,,,,0.8535,0,,,,,,,,,,,,,,z,,,,,,,,,,,,,,,6,0,168.5321,169.3897,m,0,0.8535,,[],[],[],[],[],[],[],169.3898,171.389,171.3891,171.3894,[],[],[],[],[],[],[],,171.3895,171.3898,-0.014405589,-0.388417659,0,0,0,,0,5,5,35,1,3,TL,cateferia,print,cateferia_p.png,,,,,,
,,,,31922,001,2025-10-16_13h42.21.790,HW_LDT_1,2024.2.4,MacIntel,59.88023952,,,,,,,,,,,,,,,,,,,,,171.3909,171.5893,171.5894,172.0899,,,,,,,,,,,,,,2.6557,1,,,,,,,,,,,,,,z,,,,,,,,,,,,,,,7,0,172.0905,174.7481,z,1,2.6557,,[],[],[],[],[],[],[],174.7483,176.748,176.7481,176.7482,[],[],[],[],[],[],[],,176.7483,176.7484,-0.014405589,-0.388417659,0,0,0,,0,6,6,13,1,3,RL,helicage,cursive,helicage_c.png,,,,,,
,,,,31922,001,2025-10-16_13h42.21.790,HW_LDT_1,2024.2.4,MacIntel,59.88023952,,,,,,,,,,,,,,,,,,,,,176.7493,176.948,176.9481,177.4473,,,,,,,,,,,,,,1.6618,1,,,,,,,,,,,,,,m,,,,,,,,,,,,,,,8,1,177.4479,179.1146,m,1,1.6618,,[],[],[],[],[],[],[],179.1147,181.1152,181.1154,183.8231,[],[],[],[],[],[],[],m,183.8232,183.8234,-0.014405589,-0.388417659,0,0,0,,0,7,7,128,1,3,word,PACIFIC,cursive,pacific_c.png,2.7031,,,,,
,,,,31922,001,2025-10-16_13h42.21.790,HW_LDT_1,2024.2.4,MacIntel,59.88023952,,,,,,,,,,,,,,,,,,,,,183.8268,184.023,184.023,184.523,,,,,,,,,,,,,,0.7338,1,,,,,,,,,,,,,,z,,,,,,,,,,,,,,,9,0,184.5251,185.2649,z,1,0.7338,,[],[],[],[],[],[],[],185.265,187.2647,187.2648,187.265,[],[],[],[],[],[],[],,187.2651,187.2652,-0.014405589,-0.388417659,0,0,0,,0,8,8,0,1,3,RL,afaneur,print,afaneur_p.png,,,,,,
,,,,31922,001,2025-10-16_13h42.21.790,HW_LDT_1,2024.2.4,MacIntel,59.88023952,,,,,,,,,,,,,,,,,,,,,187.2662,187.4646,187.4647,187.9646,,,,,,,,,,,,,,0.7367,1,,,,,,,,,,,,,,m,,,,,,,,,,,,,,,10,0,187.9652,188.7065,m,1,0.7367,,[],[],[],[],[],[],[],188.7065,190.7054,190.7054,190.7057,[],[],[],[],[],[],[],,190.7057,190.7058,-0.014405589,-0.388417659,0,0,0,,0,9,9,130,1,3,word,POLICY,print,policy_p.png,,,,,,
,,,,31922,001,2025-10-16_13h42.21.790,HW_LDT_1,2024.2.4,MacIntel,59.88023952,,,,,,,,,,,,,,,,,,,,,190.7068,190.9062,190.9063,191.4064,,,,,,,,,,,,,,0.8111,0,,,,,,,,,,,,,,m,,,,,,,,,,,,,,,11,0,191.4071,192.2224,z,0,0.8111,,[],[],[],[],[],[],[],192.2225,194.2231,194.2231,194.2233,[],[],[],[],[],[],[],,194.2234,194.2235,-0.014405589,-0.388417659,0,0,0,,0,10,10,148,1,3,word,SALINE,cursive,saline_c.png,,,,,,
,,,,31922,001,2025-10-16_13h42.21.790,HW_LDT_1,2024.2.4,MacIntel,59.88023952,,,,,,,,,,,,,,,,,,,,,194.2247,194.4231,194.4232,194.9232,,,,,,,,,,,,,,1.1145,1,,,,,,,,,,,,,,z,,,,,,,,,,,,,,,12,0,194.9237,196.0395,z,1,1.1145,,[],[],[],[],[],[],[],196.0396,198.0397,198.0397,198.0398,[],[],[],[],[],[],[],,198.0398,198.04,-0.014405589,-0.388417659,0,0,0,,0,11,11,73,1,3,TL,speficic,print,speficic_p.png,,,,,,
,,,,31922,001,2025-10-16_13h42.21.790,HW_LDT_1,2024.2.4,MacIntel,59.88023952,,,,,,,,,,,,,,,,,,,,,198.0409,198.2397,198.2397,198.7397,,,,,,,,,,,,,,0.8536,1,,,,,,,,,,,,,,m,,,,,,,,,,,,,,,13,1,198.741,199.5981,m,1,0.8536,,[],[],[],[],[],[],[],199.5982,201.5979,201.5979,203.0229,[],[],[],[],[],[],[],m,203.0229,203.023,-0.014405589,-0.381340939,0,0,0,,0,12,12,134,1,3,word,QUALIFY,print,qualify_p.png,1.4136,,,,,
,,,,31922,001,2025-10-16_13h42.21.790,HW_LDT_1,2024.2.4,MacIntel,59.88023952,,,,,,,,,,,,,,,,,,,,,203.0237,203.2233,203.2234,203.7232,,,,,,,,,,,,,,1.0028,1,,,,,,,,,,,,,,z,,,,,,,,,,,,,,,14,0,203.7239,204.7312,z,1,1.0028,,[],[],[],[],[],[],[],204.7313,206.7314,206.7314,206.7317,[],[],[],[],[],[],[],,206.7318,206.7318,-0.014405589,-0.381340939,0,0,0,,0,13,13,46,1,3,TL,distupe,print,distupe_p.png,,,,,,
,,,,31922,001,2025-10-16_13h42.21.790,HW_LDT_1,2024.2.4,MacIntel,59.88023952,,,,,,,,,,,,,,,,,,,,,206.7332,206.9314,206.9315,207.4314,,,,,,,,,,,,,,1.0034,1,,,,,,,,,,,,,,m,,,,,,,,,,,,,,,15,0,207.4318,208.4395,m,1,1.0034,,[],[],[],[],[],[],[],208.4395,210.439,210.439,210.4393,[],[],[],[],[],[],[],,210.4393,210.4395,-0.014405589,-0.381340939,0,0,0,,0,14,14,136,1,3,word,RADICAL,cursive,radical_c.png,,,,,,
,,,,31922,001,2025-10-16_13h42.21.790,HW_LDT_1,2024.2.4,MacIntel,59.88023952,,,,,,,,,,,,,,,,,,,,,210.4405,210.6397,210.6398,211.1397,,,,,,,,,,,,,,1.1633,1,,,,,,,,,,,,,,z,,,,,,,,,,,,,,,16,0,211.1402,212.3066,z,1,1.1633,,[],[],[],[],[],[],[],212.3067,214.3062,214.3062,214.3064,[],[],[],[],[],[],[],,214.3065,214.3066,-0.014405589,-0.381340939,0,0,0,,0,15,15,9,1,3,RL,docirant,print,docirant_p.png,,,,,,
,,,,31922,001,2025-10-16_13h42.21.790,HW_LDT_1,2024.2.4,MacIntel,59.88023952,,,,,,,,,,,,,,,,,,,,,214.3075,214.5063,214.5063,215.0063,,,,,,,,,,,,,,0.7113,0,,,,,,,,,,,,,,z,,,,,,,,,,,,,,,17,0,215.0068,215.7229,m,0,0.7113,,[],[],[],[],[],[],[],215.7229,217.7231,217.7232,217.7235,[],[],[],[],[],[],[],,217.7235,217.7236,-0.014405589,-0.381340939,0,0,0,,0,16,16,55,1,3,TL,mecidine,print,mecidine_p.png,,,,,,
,,,,31922,001,2025-10-16_13h42.21.790,HW_LDT_1,2024.2.4,MacIntel,59.88023952,,,,,,,,,,,,,,,,,,,,,217.7249,217.9231,217.9231,218.4231,,,,,,,,,,,,,,1.0632,1,,,,,,,,,,,,,,z,,,,,,,,,,,,,,,18,0,218.4235,219.4895,z,1,1.0632,,[],[],[],[],[],[],[],219.4896,221.4889,221.4891,221.4892,[],[],[],[],[],[],[],,221.4894,221.4894,-0.014405589,-0.381340939,0,0,0,,0,17,17,8,1,3,RL,cocewage,print,cocewage_p.png,,,,,,
,,,,31922,001,2025-10-16_13h42.21.790,HW_LDT_1,2024.2.4,MacIntel,59.88023952,,,,,,,,,,,,,,,,,,,,,221.4903,221.6897,221.6898,222.1899,,,,,,,,,,,,,,0.8787,1,,,,,,,,,,,,,,m,,,,,,,,,,,,,,,19,0,222.1905,223.0729,m,1,0.8787,,[],[],[],[],[],[],[],223.0729,225.0727,225.0728,225.073,[],[],[],[],[],[],[],,225.073,225.0732,-0.014405589,-0.381340939,0,0,0,,0,18,18,137,1,3,word,RAPIDLY,print,rapidly_p.png,,,,,,
,,,,31922,001,2025-10-16_13h42.21.790,HW_LDT_1,2024.2.4,MacIntel,59.88023952,,,,,,,,,,,,,,,,,,,,,225.074,225.2728,225.2728,225.7731,,,,,,,,,,,,,,1.2047,1,,,,,,,,,,,,,,m,,,,,,,,,,,,,,,20,0,225.7737,226.9814,m,1,1.2047,,[],[],[],[],[],[],[],226.9816,228.9812,228.9812,228.9814,[],[],[],[],[],[],[],,228.9814,228.9815,-0.014405589,-0.381340939,0,0,0,,0,19,19,86,1,3,word,BESIDE,cursive,beside_c.png,,,,,,
,,,,31922,001,2025-10-16_13h42.21.790,HW_LDT_1,2024.2.4,MacIntel,59.88023952,,,,,,,,,,,,,,,,,,,,,228.9835,229.1812,229.1813,229.6757,,,,,,,,,,,,,,0.8289,1,,,,,,,,,,,,,,m,,,,,,,,,,,,,,,21,1,229.676,230.5057,m,1,0.8289,,[],[],[],[],[],[],[],230.5058,232.5063,232.5064,234.6647,[],[],[],[],[],[],[],m,234.6649,234.6649,-0.014405589,-0.381340939,0,0,0,,0,20,20,142,1,3,word,REMOTE,print,remote_p.png,2.1544,,,,,
,,,,31922,001,2025-10-16_13h42.21.790,HW_LDT_1,2024.2.4,MacIntel,59.88023952,,,,,,,,,,,,,,,,,,,,,234.6665,234.8565,234.8565,235.3648,,,,,,,,,,,,,,0.7943,1,,,,,,,,,,,,,,m,,,,,,,,,,,,,,,22,0,235.3654,236.1652,m,1,0.7943,,[],[],[],[],[],[],[],236.1654,238.164,238.164,238.1645,[],[],[],[],[],[],[],,238.1646,238.1647,-0.014405589,-0.381340939,0,0,0,,0,21,21,146,1,3,word,RETIRE,print,retire_p.png,,,,,,
,,,,31922,001,2025-10-16_13h42.21.790,HW_LDT_1,2024.2.4,MacIntel,59.88023952,,,,,,,,,,,,,,,,,,,,,238.1656,238.3642,238.3642,238.8646,,,,,,,,,,,,,,0.8066,1,,,,,,,,,,,,,,m,,,,,,,,,,,,,,,23,0,238.8652,239.673,m,1,0.8066,,[],[],[],[],[],[],[],239.673,241.6729,241.6732,241.6735,[],[],[],[],[],[],[],,241.6736,241.6737,-0.014405589,-0.381340939,0,0,0,,0,22,22,122,1,3,word,MOBILE,cursive,mobile_c.png,,,,,,
,,,,31922,001,2025-10-16_13h42.21.790,HW_LDT_1,2024.2.4,MacIntel,59.88023952,,,,,,,,,,,,,,,,,,,,,241.677,241.8727,241.8728,242.373,,,,,,,,,,,,,,0.6876,1,,,,,,,,,,,,,,z,,,,,,,,,,,,,,,24,0,242.3735,243.0649,z,1,0.6876,,[],[],[],[],[],[],[],243.065,245.0642,245.0643,245.0646,[],[],[],[],[],[],[],,245.0647,245.0648,-0.014405589,-0.381340939,0,0,0,,0,23,23,18,1,3,RL,onegator,print,onegator_p.png,,,,,,
,,,,31922,001,2025-10-16_13h42.21.790,HW_LDT_1,2024.2.4,MacIntel,59.88023952,,,,,,,,,,,,,,,,,,,,,245.0659,245.2645,245.2647,245.7647,,,,,,,,,,,,,,1.0032,1,,,,,,,,,,,,,,z,,,,,,,,,,,,,,,25,0,245.7653,246.773,z,1,1.0032,,[],[],[],[],[],[],[],246.7731,248.7729,248.773,248.7733,[],[],[],[],[],[],[],,248.7733,248.7734,-0.014405589,-0.381340939,0,0,0,,0,24,24,3,1,3,RL,bebine,cursive,bebine_c.png,,,,,,
,,,,31922,001,2025-10-16_13h42.21.790,HW_LDT_1,2024.2.4,MacIntel,59.88023952,,,,,,,,,,,,,,,,,,,,,248.7744,248.9731,248.9732,249.4729,,,,,,,,,,,,,,1.0033,1,,,,,,,,,,,,,,m,,,,,,,,,,,,,,,26,0,249.4736,250.4815,m,1,1.0033,,[],[],[],[],[],[],[],250.4816,252.4813,252.4814,252.4815,[],[],[],[],[],[],[],,252.4816,252.4816,-0.014405589,-0.381340939,0,0,0,,0,25,25,89,1,3,word,CAPACITY,cursive,capacity_c.png,,,,,,
,,,,31922,001,2025-10-16_13h42.21.790,HW_LDT_1,2024.2.4,MacIntel,59.88023952,,,,,,,,,,,,,,,,,,,,,252.4828,252.6815,252.6815,253.1826,,,,,,,,,,,,,,0.7889,1,,,,,,,,,,,,,,m,,,,,,,,,,,,,,,27,0,253.1834,253.9734,m,1,0.7889,,[],[],[],[],[],[],[],253.9734,255.9732,255.9733,255.9736,[],[],[],[],[],[],[],,255.9737,255.9738,-0.014405589,-0.381340939,0,0,0,,0,26,26,150,1,3,word,SENTIMENT,print,sentiment_p.png,,,,,,
,,,,31922,001,2025-10-16_13h42.21.790,HW_LDT_1,2024.2.4,MacIntel,59.88023952,,,,,,,,,,,,,,,,,,,,,255.9754,256.173,256.173,256.673,,,,,,,,,,,,,,1.6865,1,,,,,,,,,,,,,,z,,,,,,,,,,,,,,,28,0,256.6739,258.3647,z,1,1.6865,,[],[],[],[],[],[],[],258.3649,260.364,260.364,260.3641,[],[],[],[],[],[],[],,260.3642,260.3642,-0.014405589,-0.381340939,0,0,0,,0,27,27,37,1,3,TL,cacapity,cursive,cacapity_c.png,,,,,,
,,,,31922,001,2025-10-16_13h42.21.790,HW_LDT_1,2024.2.4,MacIntel,59.88023952,,,,,,,,,,,,,,,,,,,,,260.3652,260.5647,260.5647,261.0646,,,,,,,,,,,,,,1.9124,1,,,,,,,,,,,,,,z,,,,,,,,,,,,,,,29,0,261.0651,262.9813,z,1,1.9124,,[],[],[],[],[],[],[],262.9814,264.9813,264.9814,264.9815,[],[],[],[],[],[],[],,264.9816,264.9816,-0.014405589,-0.381340939,0,0,0,,0,28,28,15,1,3,RL,mifikary,cursive,mifikary_c.png,,,,,,
,,,,31922,001,2025-10-16_13h42.21.790,HW_LDT_1,2024.2.4,MacIntel,59.88023952,,,,,,,,,,,,,,,,,,,,,264.9829,265.1812,265.1813,265.6814,,,,,,,,,,,,,,0.7194,1,,,,,,,,,,,,,,m,,,,,,,,,,,,,,,30,0,265.6819,266.4062,m,1,0.7194,,[],[],[],[],[],[],[],266.4062,268.4056,268.4056,268.4058,[],[],[],[],[],[],[],,268.4058,268.4059,-0.014405589,-0.381340939,0,0,0,,0,29,29,104,1,3,word,DOMINANT,print,dominant_p.png,,,,,,
,,,,31922,001,2025-10-16_13h42.21.790,HW_LDT_1,2024.2.4,MacIntel,59.88023952,,,,,,,,,,,,,,,,,,,,,268.407,268.6056,268.6056,269.1057,,,,,,,,,,,,,,1.5127,0,,,,,,,,,,,,,,m,,,,,,,,,,,,,,,31,1,269.1063,270.6233,z,0,1.5127,,[],[],[],[],[],[],[],270.6234,272.6228,272.6228,275.6388,[],[],[],[],[],[],[],z,275.6391,275.6393,-0.014405589,-0.381340939,0,0,0,,0,30,30,110,1,3,word,HERITAGE,cursive,heritage_c.png,3.0125,,,,,
,,,,31922,001,2025-10-16_13h42.21.790,HW_LDT_1,2024.2.4,MacIntel,59.88023952,,,,,,,,,,,,,,,,,,,,,275.6416,275.8396,275.8398,276.3399,,,,,,,,,,,,,,1.388,1,,,,,,,,,,,,,,m,,,,,,,,,,,,,,,32,0,276.3404,277.7308,m,1,1.388,,[],[],[],[],[],[],[],277.7309,279.7308,279.7309,279.7311,[],[],[],[],[],[],[],,279.7312,279.7313,-0.014405589,-0.381340939,0,0,0,,0,31,31,155,1,3,word,STRATEGY,print,strategy_p.png,,,,,,
,,,,31922,001,2025-10-16_13h42.21.790,HW_LDT_1,2024.2.4,MacIntel,59.88023952,,,,,,,,,,,,,,,,,,,,,279.7324,279.9314,279.9315,280.4313,,,,,,,,,,,,,,1.444,1,,,,,,,,,,,,,,z,,,,,,,,,,,,,,,33,0,280.4327,281.8814,z,1,1.444,,[],[],[],[],[],[],[],281.8814,283.8814,283.8814,283.8817,[],[],[],[],[],[],[],,283.8817,283.8818,-0.014405589,-0.380588624,0,0,0,,0,32,32,5,1,3,RL,capefory,cursive,capefory_c.png,,,,,,
,,,,31922,001,2025-10-16_13h42.21.790,HW_LDT_1,2024.2.4,MacIntel,59.88023952,,,,,,,,,,,,,,,,,,,,,283.8828,284.0813,284.0814,284.5814,,,,,,,,,,,,,,0.7214,1,,,,,,,,,,,,,,m,,,,,,,,,,,,,,,34,0,284.5821,285.3059,m,1,0.7214,,[],[],[],[],[],[],[],285.306,287.3065,287.3065,287.3067,[],[],[],[],[],[],[],,287.3068,287.307,-0.014405589,-0.380584491,0,0,0,,0,33,33,80,1,3,word,ACADEMY,print,academy_p.png,,,,,,
,,,,31922,001,2025-10-16_13h42.21.790,HW_LDT_1,2024.2.4,MacIntel,59.88023952,,,,,,,,,,,,,,,,,,,,,287.3081,287.4974,287.4975,288.0063,,,,,,,,,,,,,,0.9127,1,,,,,,,,,,,,,,z,,,,,,,,,,,,,,,35,0,288.0068,288.923,z,1,0.9127,,[],[],[],[],[],[],[],288.9231,290.923,290.9231,290.9232,[],[],[],[],[],[],[],,290.9233,290.9233,-0.014405589,-0.380088459,0,0,0,,0,34,34,1,1,3,RL,bewoted,cursive,bewoted_c.png,,,,,,
,,,,31922,001,2025-10-16_13h42.21.790,HW_LDT_1,2024.2.4,MacIntel,59.88023952,,,,,,,,,,,,,,,,,,,,,290.9243,291.1223,291.1224,291.6229,,,,,,,,,,,,,,0.6118,1,,,,,,,,,,,,,,m,,,,,,,,,,,,,,,36,0,291.6236,292.2396,m,1,0.6118,,[],[],[],[],[],[],[],292.2396,294.2396,294.2396,294.2399,[],[],[],[],[],[],[],,294.24,294.2401,-0.014405589,-0.380088459,0,0,0,,0,35,35,106,1,3,word,ELABORATE,print,elaborate_p.png,,,,,,
,,,,31922,001,2025-10-16_13h42.21.790,HW_LDT_1,2024.2.4,MacIntel,59.88023952,,,,,,,,,,,,,,,,,,,,,294.241,294.4389,294.4389,294.9396,,,,,,,,,,,,,,0.8102,0,,,,,,,,,,,,,,m,,,,,,,,,,,,,,,37,0,294.9403,295.7562,z,0,0.8102,,[],[],[],[],[],[],[],295.7562,297.7566,297.7567,297.757,[],[],[],[],[],[],[],,297.757,297.7571,-0.014405589,-0.379567626,0,0,0,,0,36,36,149,1,3,word,SENATOR,cursive,senator_c.png,,,,,,
,,,,31922,001,2025-10-16_13h42.21.790,HW_LDT_1,2024.2.4,MacIntel,59.88023952,,,,,,,,,,,,,,,,,,,,,297.7584,297.9565,297.9565,298.4562,,,,,,,,,,,,,,0.9543,0,,,,,,,,,,,,,,z,,,,,,,,,,,,,,,38,1,298.4565,299.4146,m,0,0.9543,,[],[],[],[],[],[],[],299.4147,301.4151,301.4155,302.7472,[],[],[],[],[],[],[],z,302.7473,302.7475,-0.014405589,-0.379075728,0,0,0,,0,37,37,20,1,3,RL,orimipal,cursive,orimipal_c.png,1.3272,,,,,
,,,,31922,001,2025-10-16_13h42.21.790,HW_LDT_1,2024.2.4,MacIntel,59.88023952,,,,,,,,,,,,,,,,,,,,,302.7515,302.9472,302.9473,303.448,,,,,,,,,,,,,,0.7773,1,,,,,,,,,,,,,,z,,,,,,,,,,,,,,,39,0,303.4488,304.2313,z,1,0.7773,,[],[],[],[],[],[],[],304.2313,306.2313,306.2313,306.2316,[],[],[],[],[],[],[],,306.2316,306.2317,-0.014405589,-0.37802166,0,0,0,,0,38,38,23,1,3,RL,quakity,print,quakity_p.png,,,,,,
,,,,31922,001,2025-10-16_13h42.21.790,HW_LDT_1,2024.2.4,MacIntel,59.88023952,,,,,,,,,,,,,,,,,,,,,306.2328,306.4315,306.4315,306.9303,,,,,,,,,,,,,,2.1129,1,,,,,,,,,,,,,,z,,,,,,,,,,,,,,,40,0,306.9306,309.0478,z,1,2.1129,,[],[],[],[],[],[],[],309.0479,311.0481,311.0481,311.0483,[],[],[],[],[],[],[],,311.0485,311.0486,-0.014405589,-0.376479828,0,0,0,,0,39,39,43,1,3,TL,dedace,cursive,dedace_c.png,,,,,,
,,,,31922,001,2025-10-16_13h42.21.790,HW_LDT_1,2024.2.4,MacIntel,59.88023952,,,,,,,,,,,,,,,,,,,,,311.0499,311.2479,311.248,311.7507,,,,,,,,,,,,,,0.8793,0,,,,,,,,,,,,,,m,,,,,,,,,,,,,,,41,0,311.751,312.631,z,0,0.8793,,[],[],[],[],[],[],[],312.6311,314.6359,314.636,314.6361,[],[],[],[],[],[],[],,314.6362,314.6363,-0.014405589,-0.375727513,0,0,0,,0,40,40,88,1,3,word,CAMERA,cursive,camera_c.png,,,,,,
,,,,31922,001,2025-10-16_13h42.21.790,HW_LDT_1,2024.2.4,MacIntel,59.88023952,,,,,,,,,,,,,,,,,,,,,314.6374,314.8316,314.8316,315.3314,,,,,,,,,,,,,,0.9697,1,,,,,,,,,,,,,,z,,,,,,,,,,,,,,,42,0,315.332,316.3062,z,1,0.9697,,[],[],[],[],[],[],[],316.3062,318.3064,318.3065,318.3066,[],[],[],[],[],[],[],,318.3067,318.3067,-0.014405589,-0.374946263,0,0,0,,0,41,41,52,1,3,TL,locigal,cursive,locigal_c.png,,,,,,
,,,,31922,001,2025-10-16_13h42.21.790,HW_LDT_1,2024.2.4,MacIntel,59.88023952,,,,,,,,,,,,,,,,,,,,,318.3076,318.5064,318.5065,319.0064,,,,,,,,,,,,,,3.2371,1,,,,,,,,,,,,,,z,,,,,,,,,,,,,,,43,0,319.007,322.2474,z,1,3.2371,,[],[],[],[],[],[],[],322.2475,324.2476,324.2476,324.248,[],[],[],[],[],[],[],,324.2481,324.2482,-0.014405589,-0.373714451,0,0,0,,0,42,42,78,1,3,TL,vecolity,cursive,vecolity_c.png,,,,,,
,,,,31922,001,2025-10-16_13h42.21.790,HW_LDT_1,2024.2.4,MacIntel,59.88023952,,,,,,,,,,,,,,,,,,,,,324.2498,324.4481,324.4481,324.9397,,,,,,,,,,,,,,5.1619,1,,,,,,,,,,,,,,z,,,,,,,,,,,,,,,44,0,324.9404,330.1062,z,1,5.1619,,[],[],[],[],[],[],[],330.1063,332.1062,332.1063,332.1065,[],[],[],[],[],[],[],,332.1066,332.1067,-0.014405589,-0.371945271,0,0,0,,0,43,43,69,1,3,TL,redisent,cursive,redisent_c.png,,,,,,
,,,,31922,001,2025-10-16_13h42.21.790,HW_LDT_1,2024.2.4,MacIntel,59.88023952,,,,,,,,,,,,,,,,,,,,,332.1079,332.3064,332.3065,332.798,,,,,,,,,,,,,,0.9651,1,,,,,,,,,,,,,,m,,,,,,,,,,,,,,,45,0,332.7988,333.766,m,1,0.9651,,[],[],[],[],[],[],[],333.7661,335.7648,335.7648,335.765,[],[],[],[],[],[],[],,335.765,335.7651,-0.014405589,-0.371453373,0,0,0,,0,44,44,157,1,3,word,VALIDITY,cursive,validity_c.png,,,,,,
,,,,31922,001,2025-10-16_13h42.21.790,HW_LDT_1,2024.2.4,MacIntel,59.88023952,,,,,,,,,,,,,,,,,,,,,335.7661,335.9646,335.9646,336.4647,,,,,,,,,,,,,,0.8056,1,,,,,,,,,,,,,,z,,,,,,,,,,,,,,,46,1,336.4651,337.274,z,1,0.8056,,[],[],[],[],[],[],[],337.2741,339.2689,339.269,341.2439,[],[],[],[],[],[],[],z,341.2439,341.244,-0.014405589,-0.370221561,0,0,0,,0,45,45,33,1,3,TL,adsivory,print,adsivory_p.png,1.9696,,,,,
,,,,31922,001,2025-10-16_13h42.21.790,HW_LDT_1,2024.2.4,MacIntel,59.88023952,,,,,,,,,,,,,,,,,,,,,341.2453,341.4354,341.4354,341.9429,,,,,,,,,,,,,,1.4043,1,,,,,,,,,,,,,,z,,,,,,,,,,,,,,,47,0,341.9434,343.352,z,1,1.4043,,[],[],[],[],[],[],[],343.352,345.3522,345.3522,345.3525,[],[],[],[],[],[],[],,345.3525,345.3526,-0.014405589,-0.370221561,0,0,0,,0,46,46,12,1,3,RL,formuke,cursive,formuke_c.png,,,,,,
,,,,31922,001,2025-10-16_13h42.21.790,HW_LDT_1,2024.2.4,MacIntel,59.88023952,,,,,,,,,,,,,,,,,,,,,345.3538,345.5522,345.5522,346.0522,,,,,,,,,,,,,,0.97,1,,,,,,,,,,,,,,z,,,,,,,,,,,,,,,48,0,346.0527,347.0272,z,1,0.97,,[],[],[],[],[],[],[],347.0273,349.0263,349.0263,349.0264,[],[],[],[],[],[],[],,349.0265,349.0266,-0.014405589,-0.368745866,0,0,0,,0,47,47,59,1,3,TL,paficic,cursive,paficic_c.png,,,,,,
,,,,31922,001,2025-10-16_13h42.21.790,HW_LDT_1,2024.2.4,MacIntel,59.88023952,,,,,,,,,,,,,,,,,,,,,349.0277,349.2272,349.2273,349.7187,,,,,,,,,,,,,,1.0792,1,,,,,,,,,,,,,,z,,,,,,,,,,,,,,,49,0,349.7191,350.8021,z,1,1.0792,,[],[],[],[],[],[],[],350.8022,352.8021,352.8021,352.8022,[],[],[],[],[],[],[],,352.8023,352.8023,-0.014405589,-0.368989749,0,0,0,,0,48,48,57,1,3,TL,moredate,cursive,moredate_c.png,,,,,,
,,,,31922,001,2025-10-16_13h42.21.790,HW_LDT_1,2024.2.4,MacIntel,59.88023952,,,,,,,,,,,,,,,,,,,,,352.8033,353.0021,353.0022,353.5025,,,,,,,,,,,,,,0.6617,1,,,,,,,,,,,,,,m,,,,,,,,,,,,,,,50,0,353.5031,354.1687,m,1,0.6617,,[],[],[],[],[],[],[],354.1688,356.169,356.169,356.1692,[],[],[],[],[],[],[],,356.1693,356.1693,-0.014405589,-0.368745866,0,0,0,,0,49,49,118,1,3,word,MEDICINE,print,medicine_p.png,,,,,,
,,,,31922,001,2025-10-16_13h42.21.790,HW_LDT_1,2024.2.4,MacIntel,59.88023952,,,,,,,,,,,,,,,,,,,,,356.1704,356.3685,356.3686,356.869,,,,,,,,,,,,,,1.2029,1,,,,,,,,,,,,,,m,,,,,,,,,,,,,,,51,1,356.8696,358.0771,m,1,1.2029,,[],[],[],[],[],[],[],358.0772,360.0772,360.0772,361.1937,[],[],[],[],[],[],[],z,361.1938,361.1939,-0.014405589,-0.368745866,0,0,0,,0,50,50,109,1,3,word,GRATEFUL,cursive,grateful_c.png,1.1114,,,,,
,,,,31922,001,2025-10-16_13h42.21.790,HW_LDT_1,2024.2.4,MacIntel,59.88023952,,,,,,,,,,,,,,,,,,,,,361.1948,361.3853,361.3854,361.8939,,,,,,,,,,,,,,0.8697,1,,,,,,,,,,,,,,m,,,,,,,,,,,,,,,52,0,361.8945,362.7686,m,1,0.8697,,[],[],[],[],[],[],[],362.7686,364.7679,364.7679,364.768,[],[],[],[],[],[],[],,364.768,364.7681,-0.014405589,-0.368501984,0,0,0,,0,51,51,132,1,3,word,PROPOSAL,print,proposal_p.png,,,,,,
,,,,31922,001,2025-10-16_13h42.21.790,HW_LDT_1,2024.2.4,MacIntel,59.88023952,,,,,,,,,,,,,,,,,,,,,364.769,364.9691,364.9691,365.4687,,,,,,,,,,,,,,0.6796,1,,,,,,,,,,,,,,m,,,,,,,,,,,,,,,53,0,365.4691,366.1521,m,1,0.6796,,[],[],[],[],[],[],[],366.1521,368.152,368.1521,368.1523,[],[],[],[],[],[],[],,368.1523,368.1524,-0.014405589,-0.368253968,0,0,0,,0,52,52,116,1,3,word,MARGINAL,print,marginal_p.png,,,,,,
,,,,31922,001,2025-10-16_13h42.21.790,HW_LDT_1,2024.2.4,MacIntel,59.88023952,,,,,,,,,,,,,,,,,,,,,368.1534,368.3519,368.352,368.8524,,,,,,,,,,,,,,0.7287,1,,,,,,,,,,,,,,m,,,,,,,,,,,,,,,54,0,368.8531,369.5852,m,1,0.7287,,[],[],[],[],[],[],[],369.5852,371.5856,371.5857,371.5858,[],[],[],[],[],[],[],,371.5859,371.5859,-0.014405589,-0.367757937,0,0,0,,0,53,53,103,1,3,word,DISPUTE,print,dispute_p.png,,,,,,
,,,,31922,001,2025-10-16_13h42.21.790,HW_LDT_1,2024.2.4,MacIntel,59.88023952,,,,,,,,,,,,,,,,,,,,,371.5867,371.7856,371.7856,372.285,,,,,,,,,,,,,,0.703,1,,,,,,,,,,,,,,z,,,,,,,,,,,,,,,55,0,372.2856,372.9933,z,1,0.703,,[],[],[],[],[],[],[],372.9933,374.9939,374.9939,374.994,[],[],[],[],[],[],[],,374.994,374.9941,-0.014405589,-0.367514054,0,0,0,,0,54,54,42,1,3,TL,detabe,cursive,detabe_c.png,,,,,,
,,,,31922,001,2025-10-16_13h42.21.790,HW_LDT_1,2024.2.4,MacIntel,59.88023952,,,,,,,,,,,,,,,,,,,,,374.995,375.1928,375.1928,375.693,,,,,,,,,,,,,,0.6463,1,,,,,,,,,,,,,,z,,,,,,,,,,,,,,,56,0,375.6935,376.3431,z,1,0.6463,,[],[],[],[],[],[],[],376.3431,378.3437,378.3437,378.3438,[],[],[],[],[],[],[],,378.3438,378.3439,-0.014405589,-0.367514054,0,0,0,,0,55,55,10,1,3,RL,efibor,print,efibor_p.png,,,,,,
,,,,31922,001,2025-10-16_13h42.21.790,HW_LDT_1,2024.2.4,MacIntel,59.88023952,,,,,,,,,,,,,,,,,,,,,378.3447,378.5437,378.5438,379.0442,,,,,,,,,,,,,,1.178,1,,,,,,,,,,,,,,z,,,,,,,,,,,,,,,57,0,379.0447,380.2274,z,1,1.178,,[],[],[],[],[],[],[],380.2274,382.2265,382.2265,382.2267,[],[],[],[],[],[],[],,382.2267,382.2268,-0.014405589,-0.367514054,0,0,0,,0,56,56,77,1,3,TL,vadility,cursive,vadility_c.png,,,,,,
,,,,31922,001,2025-10-16_13h42.21.790,HW_LDT_1,2024.2.4,MacIntel,59.88023952,,,,,,,,,,,,,,,,,,,,,382.2276,382.4272,382.4272,382.9272,,,,,,,,,,,,,,0.7233,1,,,,,,,,,,,,,,m,,,,,,,,,,,,,,,58,0,382.9276,383.6522,m,1,0.7233,,[],[],[],[],[],[],[],383.6523,385.6521,385.6521,385.6522,[],[],[],[],[],[],[],,385.6523,385.6524,-0.014405589,-0.367514054,0,0,0,,0,57,57,115,1,3,word,LOGICAL,cursive,logical_c.png,,,,,,
,,,,31922,001,2025-10-16_13h42.21.790,HW_LDT_1,2024.2.4,MacIntel,59.88023952,,,,,,,,,,,,,,,,,,,,,385.6532,385.8522,385.8523,386.3521,,,,,,,,,,,,,,1.5492,1,,,,,,,,,,,,,,z,,,,,,,,,,,,,,,59,0,386.3526,387.9027,z,1,1.5492,,[],[],[],[],[],[],[],387.9028,389.9021,389.9022,389.9025,[],[],[],[],[],[],[],,389.9025,389.9027,-0.014405589,-0.367514054,0,0,0,,0,58,58,48,1,3,TL,grafetul,cursive,grafetul_c.png,,,,,,
,,,,31922,001,2025-10-16_13h42.21.790,HW_LDT_1,2024.2.4,MacIntel,59.88023952,,,,,,,,,,,,,,,,,,,,,389.9039,390.1015,390.1015,390.6022,,,,,,,,,,,,,,0.6531,1,,,,,,,,,,,,,,m,,,,,,,,,,,,,,,60,0,390.6028,391.2606,m,1,0.6531,,[],[],[],[],[],[],[],391.2606,393.2605,393.2605,393.2607,[],[],[],[],[],[],[],,393.2607,393.2608,-0.014405589,-0.367514054,0,0,0,,0,59,59,151,1,3,word,SPECIFIC,print,specific_p.png,,,,,,
,,,,31922,001,2025-10-16_13h42.21.790,HW_LDT_1,2024.2.4,MacIntel,59.88023952,,,,,,,,,,,,,,,,,,,,,393.2618,393.4599,393.4599,393.9605,,,,,,,,,,,,,,0.7783,1,,,,,,,,,,,,,,z,,,,,,,,,,,,,,,61,1,393.9617,394.7438,z,1,0.7783,,[],[],[],[],[],[],[],394.7438,396.7433,396.7434,397.5435,[],[],[],[],[],[],[],m,397.5436,397.5437,-0.014405589,-0.367514054,0,0,0,,0,60,60,62,1,3,TL,prodive,print,prodive_p.png,0.796,,,,,
,,,,31922,001,2025-10-16_13h42.21.790,HW_LDT_1,2024.2.4,MacIntel,59.88023952,,,,,,,,,,,,,,,,,,,,,397.5448,397.7358,397.7359,398.2437,,,,,,,,,,,,,,0.8047,1,,,,,,,,,,,,,,z,,,,,,,,,,,,,,,62,0,398.244,399.0523,z,1,0.8047,,[],[],[],[],[],[],[],399.0524,401.0522,401.0523,401.0526,[],[],[],[],[],[],[],,401.0526,401.0526,-0.014405589,-0.367514054,0,0,0,,0,61,61,27,1,3,RL,recile,print,recile_p.png,,,,,,
,,,,31922,001,2025-10-16_13h42.21.790,HW_LDT_1,2024.2.4,MacIntel,59.88023952,,,,,,,,,,,,,,,,,,,,,401.0538,401.2522,401.2522,401.7522,,,,,,,,,,,,,,1.0776,0,,,,,,,,,,,,,,m,,,,,,,,,,,,,,,63,0,401.7527,402.8356,z,0,1.0776,,[],[],[],[],[],[],[],402.8357,404.8351,404.8351,404.8352,[],[],[],[],[],[],[],,404.8352,404.8352,-0.014405589,-0.367514054,0,0,0,,0,62,62,153,1,3,word,STOLEN,cursive,stolen_c.png,,,,,,
,,,,31922,001,2025-10-16_13h42.21.790,HW_LDT_1,2024.2.4,MacIntel,59.88023952,,,,,,,,,,,,,,,,,,,,,404.8357,405.0353,405.0353,405.5356,,,,,,,,,,,,,,0.6194,1,,,,,,,,,,,,,,m,,,,,,,,,,,,,,,64,0,405.5361,406.1604,m,1,0.6194,,[],[],[],[],[],[],[],406.1605,408.1603,408.1604,408.1605,[],[],[],[],[],[],[],,408.1605,408.1606,-0.014405589,-0.367514054,0,0,0,,0,63,63,96,1,3,word,CONSIDER,print,consider_p.png,,,,,,
,,,,31922,001,2025-10-16_13h42.21.790,HW_LDT_1,2024.2.4,MacIntel,59.88023952,,,,,,,,,,,,,,,,,,,,,408.1616,408.3604,408.3605,408.8606,,,,,,,,,,,,,,0.8541,1,,,,,,,,,,,,,,m,,,,,,,,,,,,,,,65,0,408.8611,409.7186,m,1,0.8541,,[],[],[],[],[],[],[],409.7186,411.7186,411.7187,411.7188,[],[],[],[],[],[],[],,411.7188,411.7189,-0.014405589,-0.367270172,0,0,0,,0,64,64,111,1,3,word,INDICATE,print,indicate_p.png,,,,,,
,,,,31922,001,2025-10-16_13h42.21.790,HW_LDT_1,2024.2.4,MacIntel,59.88023952,,,,,,,,,,,,,,,,,,,,,411.7196,411.919,411.9191,412.419,,,,,,,,,,,,,,0.6807,0,,,,,,,,,,,,,,m,,,,,,,,,,,,,,,66,0,412.4197,413.1021,z,0,0.6807,,[],[],[],[],[],[],[],413.1022,415.1019,415.102,415.1021,[],[],[],[],[],[],[],,415.1022,415.1022,-0.014405589,-0.366526124,0,0,0,,0,65,65,140,1,3,word,RELATIVE,cursive,relative_c.png,,,,,,
,,,,31922,001,2025-10-16_13h42.21.790,HW_LDT_1,2024.2.4,MacIntel,59.88023952,,,,,,,,,,,,,,,,,,,,,415.1033,415.3023,415.3023,415.8024,,,,,,,,,,,,,,0.6185,1,,,,,,,,,,,,,,m,,,,,,,,,,,,,,,67,0,415.803,416.427,m,1,0.6185,,[],[],[],[],[],[],[],416.4271,418.4266,418.4267,418.4268,[],[],[],[],[],[],[],,418.4268,418.4269,-0.014405589,-0.366526124,0,0,0,,0,66,66,125,1,3,word,OPERATOR,print,operator_p.png,,,,,,
,,,,31922,001,2025-10-16_13h42.21.790,HW_LDT_1,2024.2.4,MacIntel,59.88023952,,,,,,,,,,,,,,,,,,,,,418.4278,418.6273,418.6273,419.1273,,,,,,,,,,,,,,0.6042,1,,,,,,,,,,,,,,z,,,,,,,,,,,,,,,68,1,419.1279,419.735,z,1,0.6042,,[],[],[],[],[],[],[],419.735,421.736,421.7362,422.8853,[],[],[],[],[],[],[],m,422.8854,422.8855,-0.014405589,-0.366526124,0,0,0,,0,67,67,67,1,3,TL,retome,print,retome_p.png,1.144,,,,,
,,,,31922,001,2025-10-16_13h42.21.790,HW_LDT_1,2024.2.4,MacIntel,59.88023952,,,,,,,,,,,,,,,,,,,,,422.8871,423.0858,423.0858,423.5852,,,,,,,,,,,,,,0.7789,0,,,,,,,,,,,,,,m,,,,,,,,,,,,,,,69,0,423.586,424.3689,z,0,0.7789,,[],[],[],[],[],[],[],424.369,426.3689,426.369,426.3691,[],[],[],[],[],[],[],,426.3692,426.3693,-0.014405589,-0.366526124,0,0,0,,0,68,68,120,1,3,word,MILITARY,cursive,military_c.png,,,,,,
,,,,31922,001,2025-10-16_13h42.21.790,HW_LDT_1,2024.2.4,MacIntel,59.88023952,,,,,,,,,,,,,,,,,,,,,426.3705,426.5687,426.5687,427.0689,,,,,,,,,,,,,,0.5115,1,,,,,,,,,,,,,,m,,,,,,,,,,,,,,,70,0,427.0697,427.5851,m,1,0.5115,,[],[],[],[],[],[],[],427.5852,429.5856,429.5856,429.5858,[],[],[],[],[],[],[],,429.5858,429.5859,-0.014405589,-0.366526124,0,0,0,,0,69,69,81,1,3,word,ADVISORY,print,advisory_p.png,,,,,,
,,,,31922,001,2025-10-16_13h42.21.790,HW_LDT_1,2024.2.4,MacIntel,59.88023952,,,,,,,,,,,,,,,,,,,,,429.587,429.7855,429.7856,430.2855,,,,,,,,,,,,,,1.1362,1,,,,,,,,,,,,,,z,,,,,,,,,,,,,,,71,0,430.286,431.427,z,1,1.1362,,[],[],[],[],[],[],[],431.4271,433.4272,433.4273,433.4274,[],[],[],[],[],[],[],,433.4274,433.4276,-0.014405589,-0.366526124,0,0,0,,0,70,70,70,1,3,TL,remuse,cursive,remuse_c.png,,,,,,
,,,,31922,001,2025-10-16_13h42.21.790,HW_LDT_1,2024.2.4,MacIntel,59.88023952,,,,,,,,,,,,,,,,,,,,,433.4284,433.6272,433.6273,434.1269,,,,,,,,,,,,,,0.888,1,,,,,,,,,,,,,,m,,,,,,,,,,,,,,,72,0,434.1272,435.019,m,1,0.888,,[],[],[],[],[],[],[],435.0192,437.0185,437.0185,437.0187,[],[],[],[],[],[],[],,437.0187,437.0187,-0.014405589,-0.366526124,0,0,0,,0,71,71,159,1,3,word,VETERAN,cursive,veteran_c.png,,,,,,
,,,,31922,001,2025-10-16_13h42.21.790,HW_LDT_1,2024.2.4,MacIntel,59.88023952,,,,,,,,,,,,,,,,,,,,,437.0197,437.219,437.219,437.7188,,,,,,,,,,,,,,1.2362,1,,,,,,,,,,,,,,z,,,,,,,,,,,,,,,73,1,437.7192,438.9602,z,1,1.2362,,[],[],[],[],[],[],[],438.9602,440.9604,440.9605,442.0688,[],[],[],[],[],[],[],m,442.0689,442.0691,-0.014405589,-0.366526124,0,0,0,,0,72,72,38,1,3,TL,carnidal,print,carnidal_p.png,1.1036,,,,,
,,,,31922,001,2025-10-16_13h42.21.790,HW_LDT_1,2024.2.4,MacIntel,59.88023952,,,,,,,,,,,,,,,,,,,,,442.0701,442.2561,442.2562,442.7637,,,,,,,,,,,,,,0.896,1,,,,,,,,,,,,,,z,,,,,,,,,,,,,,,74,1,442.7642,443.6646,z,1,0.896,,[],[],[],[],[],[],[],443.6646,445.6646,445.6646,446.6314,[],[],[],[],[],[],[],m,446.6315,446.6316,-0.014405589,-0.366526124,0,0,0,,0,73,73,31,1,3,RL,trilude,print,trilude_p.png,0.9655,,,,,
,,,,31922,001,2025-10-16_13h42.21.790,HW_LDT_1,2024.2.4,MacIntel,59.88023952,,,,,,,,,,,,,,,,,,,,,446.6327,446.8315,446.8317,447.3314,,,,,,,,,,,,,,1.061,1,,,,,,,,,,,,,,z,,,,,,,,,,,,,,,75,1,447.332,448.3978,z,1,1.061,,[],[],[],[],[],[],[],448.398,450.3972,450.3973,451.2813,[],[],[],[],[],[],[],m,451.2814,451.2815,-0.014405589,-0.366526124,0,0,0,,0,74,74,44,1,3,TL,decilate,print,decilate_p.png,0.8793,,,,,
,,,,31922,001,2025-10-16_13h42.21.790,HW_LDT_1,2024.2.4,MacIntel,59.88023952,,,,,,,,,,,,,,,,,,,,,451.282,451.4808,451.4808,451.9814,,,,,,,,,,,,,,0.7376,1,,,,,,,,,,,,,,m,,,,,,,,,,,,,,,76,0,451.9819,452.7229,m,1,0.7376,,[],[],[],[],[],[],[],452.723,454.7231,454.7231,454.7233,[],[],[],[],[],[],[],,454.7233,454.7234,-0.014405589,-0.366526124,0,0,0,,0,75,75,100,1,3,word,DECADE,cursive,decade_c.png,,,,,,
,,,,31922,001,2025-10-16_13h42.21.790,HW_LDT_1,2024.2.4,MacIntel,59.88023952,,,,,,,,,,,,,,,,,,,,,454.7242,454.923,454.9231,455.423,,,,,,,,,,,,,,0.8449,1,,,,,,,,,,,,,,m,,,,,,,,,,,,,,,77,0,455.4235,456.273,m,1,0.8449,,[],[],[],[],[],[],[],456.2732,458.2734,458.2735,458.2737,[],[],[],[],[],[],[],,458.2738,458.2739,-0.014405589,-0.366526124,0,0,0,,0,76,76,95,1,3,word,COMEDY,print,comedy_p.png,,,,,,
,,,,31922,001,2025-10-16_13h42.21.790,HW_LDT_1,2024.2.4,MacIntel,59.88023952,,,,,,,,,,,,,,,,,,,,,458.2752,458.4729,458.4729,458.9732,,,,,,,,,,,,,,1.1358,1,,,,,,,,,,,,,,z,,,,,,,,,,,,,,,78,0,458.9738,460.1149,z,1,1.1358,,[],[],[],[],[],[],[],460.115,462.1146,462.1147,462.1148,[],[],[],[],[],[],[],,462.1149,462.1151,-0.014405589,-0.366526124,0,0,0,,0,77,77,54,1,3,TL,manire,cursive,manire_c.png,,,,,,
,,,,31922,001,2025-10-16_13h42.21.790,HW_LDT_1,2024.2.4,MacIntel,59.88023952,,,,,,,,,,,,,,,,,,,,,462.1161,462.3147,462.3148,462.8147,,,,,,,,,,,,,,0.804,1,,,,,,,,,,,,,,z,,,,,,,,,,,,,,,79,0,462.8152,463.623,z,1,0.804,,[],[],[],[],[],[],[],463.6231,465.6231,465.6231,465.6232,[],[],[],[],[],[],[],,465.6233,465.6234,-0.014405589,-0.366526124,0,0,0,,0,78,78,24,1,3,RL,quafidy,print,quafidy_p.png,,,,,,
,,,,31922,001,2025-10-16_13h42.21.790,HW_LDT_1,2024.2.4,MacIntel,59.88023952,,,,,,,,,,,,,,,,,,,,,465.6243,465.8231,465.8232,466.3232,,,,,,,,,,,,,,1.2958,1,,,,,,,,,,,,,,m,,,,,,,,,,,,,,,80,0,466.324,467.6229,m,1,1.2958,,[],[],[],[],[],[],[],467.623,469.623,469.6231,469.6233,[],[],[],[],[],[],[],,469.6233,474.1316,-0.014405589,-0.366526124,0,0,0,space,0,79,79,84,1,3,word,BELOVED,cursive,beloved_c.png,,,4.4741,,,
,,,,31922,001,2025-10-16_13h42.21.790,HW_LDT_1,2024.2.4,MacIntel,59.88023952,,,,,,,,,,,,,,,,,,,,,474.133,474.3313,474.3314,474.8315,,,,,,,,,,,,,,0.9318,1,,,,,,,,,,,,,,z,,,,,,,,,,,,,,,81,0,474.8319,475.7646,z,1,0.9318,,[],[],[],[],[],[],[],475.7646,477.7648,477.7649,477.7651,[],[],[],[],[],[],[],,477.7652,477.7653,-0.014649471,-0.366278108,0,0,0,,0,80,80,19,1,3,RL,opcifal,cursive,opcifal_c.png,,,,,,
,,,,31922,001,2025-10-16_13h42.21.790,HW_LDT_1,2024.2.4,MacIntel,59.88023952,,,,,,,,,,,,,,,,,,,,,477.7664,477.9638,477.9639,478.4648,,,,,,,,,,,,,,0.8619,1,,,,,,,,,,,,,,z,,,,,,,,,,,,,,,82,0,478.4653,479.3314,z,1,0.8619,,[],[],[],[],[],[],[],479.3315,481.331,481.3312,481.3317,[],[],[],[],[],[],[],,481.3318,481.3321,-0.014649471,-0.366278108,0,0,0,,0,81,81,71,1,3,TL,sanile,cursive,sanile_c.png,,,,,,
,,,,31922,001,2025-10-16_13h42.21.790,HW_LDT_1,2024.2.4,MacIntel,59.88023952,,,,,,,,,,,,,,,,,,,,,481.3353,481.5315,481.5315,482.0314,,,,,,,,,,,,,,0.8039,1,,,,,,,,,,,,,,m,,,,,,,,,,,,,,,83,0,482.0321,482.8404,m,1,0.8039,,[],[],[],[],[],[],[],482.8405,484.8397,484.8397,484.8399,[],[],[],[],[],[],[],,484.84,484.8401,-0.014649471,-0.366278108,0,0,0,,0,82,82,97,1,3,word,COVERAGE,print,coverage_p.png,,,,,,
,,,,31922,001,2025-10-16_13h42.21.790,HW_LDT_1,2024.2.4,MacIntel,59.88023952,,,,,,,,,,,,,,,,,,,,,484.8411,485.0397,485.0397,485.5397,,,,,,,,,,,,,,0.8947,1,,,,,,,,,,,,,,z,,,,,,,,,,,,,,,84,0,485.5406,486.4397,z,1,0.8947,,[],[],[],[],[],[],[],486.4399,488.4396,488.4397,488.4399,[],[],[],[],[],[],[],,488.4399,488.44,-0.014649471,-0.366278108,0,0,0,,0,83,83,72,1,3,TL,senmitent,print,senmitent_p.png,,,,,,
,,,,31922,001,2025-10-16_13h42.21.790,HW_LDT_1,2024.2.4,MacIntel,59.88023952,,,,,,,,,,,,,,,,,,,,,488.4411,488.6392,488.6392,489.1398,,,,,,,,,,,,,,0.9515,0,,,,,,,,,,,,,,m,,,,,,,,,,,,,,,85,0,489.1405,490.0981,z,0,0.9515,,[],[],[],[],[],[],[],490.0983,492.0981,492.0981,492.0981,[],[],[],[],[],[],[],,492.0983,492.0984,-0.014649471,-0.366278108,0,0,0,,0,84,84,93,1,3,word,CEREMONY,cursive,ceremony_c.png,,,,,,
,,,,31922,001,2025-10-16_13h42.21.790,HW_LDT_1,2024.2.4,MacIntel,59.88023952,,,,,,,,,,,,,,,,,,,,,492.0995,492.298,492.298,492.7972,,,,,,,,,,,,,,0.7215,1,,,,,,,,,,,,,,m,,,,,,,,,,,,,,,86,0,492.7977,493.523,m,1,0.7215,,[],[],[],[],[],[],[],493.5231,495.523,495.5231,495.5233,[],[],[],[],[],[],[],,495.5233,495.5235,-0.014649471,-0.366278108,0,0,0,,0,85,85,156,1,3,word,TRIBUTE,print,tribute_p.png,,,,,,
,,,,31922,001,2025-10-16_13h42.21.790,HW_LDT_1,2024.2.4,MacIntel,59.88023952,,,,,,,,,,,,,,,,,,,,,495.5258,495.7231,495.7232,496.223,,,,,,,,,,,,,,0.8025,1,,,,,,,,,,,,,,z,,,,,,,,,,,,,,,87,0,496.2235,497.0312,z,1,0.8025,,[],[],[],[],[],[],[],497.0312,499.0315,499.0316,499.0318,[],[],[],[],[],[],[],,499.0318,499.0319,-0.014649471,-0.366278108,0,0,0,,0,86,86,53,1,3,TL,marnigal,print,marnigal_p.png,,,,,,
,,,,31922,001,2025-10-16_13h42.21.790,HW_LDT_1,2024.2.4,MacIntel,59.88023952,,,,,,,,,,,,,,,,,,,,,499.033,499.2314,499.2315,499.7306,,,,,,,,,,,,,,0.7986,1,,,,,,,,,,,,,,m,,,,,,,,,,,,,,,88,0,499.7319,500.5314,m,1,0.7986,,[],[],[],[],[],[],[],500.5314,502.5231,502.5231,502.5233,[],[],[],[],[],[],[],,502.5233,502.5233,-0.01416584,-0.366278108,0,0,0,,0,87,87,98,1,3,word,CRIMINAL,print,criminal_p.png,,,,,,
,,,,31922,001,2025-10-16_13h42.21.790,HW_LDT_1,2024.2.4,MacIntel,59.88023952,,,,,,,,,,,,,,,,,,,,,502.5241,502.7231,502.7232,503.223,,,,,,,,,,,,,,0.9323,1,,,,,,,,,,,,,,z,,,,,,,,,,,,,,,89,0,503.2236,504.1567,z,1,0.9323,,[],[],[],[],[],[],[],504.1568,506.1564,506.1564,506.1566,[],[],[],[],[],[],[],,506.1567,506.1568,-0.01416584,-0.366278108,0,0,0,,0,88,88,66,1,3,TL,retalive,cursive,retalive_c.png,,,,,,
,,,,31922,001,2025-10-16_13h42.21.790,HW_LDT_1,2024.2.4,MacIntel,59.88023952,,,,,,,,,,,,,,,,,,,,,506.158,506.3563,506.3563,506.8564,,,,,,,,,,,,,,0.8232,1,,,,,,,,,,,,,,m,,,,,,,,,,,,,,,90,0,506.8571,507.6814,m,1,0.8232,,[],[],[],[],[],[],[],507.6816,509.6814,509.6815,509.6815,[],[],[],[],[],[],[],,509.6816,509.6816,-0.01416584,-0.365240575,0,0,0,,0,89,89,107,1,3,word,EVIDENT,cursive,evident_c.png,,,,,,
,,,,31922,001,2025-10-16_13h42.21.790,HW_LDT_1,2024.2.4,MacIntel,59.88023952,,,,,,,,,,,,,,,,,,,,,509.6827,509.8816,509.8817,510.381,,,,,,,,,,,,,,0.5879,1,,,,,,,,,,,,,,m,,,,,,,,,,,,,,,91,0,510.3818,510.9733,m,1,0.5879,,[],[],[],[],[],[],[],510.9735,512.9723,512.9724,512.9725,[],[],[],[],[],[],[],,512.9726,512.9727,-0.01416584,-0.365240575,0,0,0,,0,90,90,94,1,3,word,CLINICAL,print,clinical_p.png,,,,,,
,,,,31922,001,2025-10-16_13h42.21.790,HW_LDT_1,2024.2.4,MacIntel,59.88023952,,,,,,,,,,,,,,,,,,,,,512.9736,513.173,513.173,513.6731,,,,,,,,,,,,,,0.8453,1,,,,,,,,,,,,,,m,,,,,,,,,,,,,,,92,0,513.6736,514.5225,m,1,0.8453,,[],[],[],[],[],[],[],514.5226,516.523,516.5231,516.5232,[],[],[],[],[],[],[],,516.5232,516.5234,-0.01416584,-0.365240575,0,0,0,,0,91,91,135,1,3,word,QUALITY,print,quality_p.png,,,,,,
,,,,31922,001,2025-10-16_13h42.21.790,HW_LDT_1,2024.2.4,MacIntel,59.88023952,,,,,,,,,,,,,,,,,,,,,516.5244,516.7222,516.7222,517.2229,,,,,,,,,,,,,,0.6115,1,,,,,,,,,,,,,,m,,,,,,,,,,,,,,,93,0,517.2234,517.8397,m,1,0.6115,,[],[],[],[],[],[],[],517.8398,519.8399,519.8399,519.8401,[],[],[],[],[],[],[],,519.8401,519.8401,-0.01416584,-0.365240575,0,0,0,,0,92,92,105,1,3,word,EDITOR,print,editor_p.png,,,,,,
,,,,31922,001,2025-10-16_13h42.21.790,HW_LDT_1,2024.2.4,MacIntel,59.88023952,,,,,,,,,,,,,,,,,,,,,519.8411,520.0393,520.0394,520.5399,,,,,,,,,,,,,,0.8702,0,,,,,,,,,,,,,,m,,,,,,,,,,,,,,,94,1,520.5405,521.4147,z,0,0.8702,,[],[],[],[],[],[],[],521.4147,523.4148,523.4148,524.8231,[],[],[],[],[],[],[],z,524.8231,524.8233,-0.01416584,-0.365240575,0,0,0,,0,93,93,121,1,3,word,MISTAKE,cursive,mistake_c.png,1.4043,,,,,
,,,,31922,001,2025-10-16_13h42.21.790,HW_LDT_1,2024.2.4,MacIntel,59.88023952,,,,,,,,,,,,,,,,,,,,,524.8241,525.0148,525.0148,525.5232,,,,,,,,,,,,,,1.1277,1,,,,,,,,,,,,,,m,,,,,,,,,,,,,,,95,1,525.5238,526.6563,m,1,1.1277,,[],[],[],[],[],[],[],526.6563,528.6564,528.6564,530.0065,[],[],[],[],[],[],[],z,530.0066,530.0067,-0.01416584,-0.365240575,0,0,0,,0,94,94,144,1,3,word,RESIDENT,cursive,resident_c.png,1.3453,,,,,
,,,,31922,001,2025-10-16_13h42.21.790,HW_LDT_1,2024.2.4,MacIntel,59.88023952,,,,,,,,,,,,,,,,,,,,,530.0078,530.2065,530.2066,530.7061,,,,,,,,,,,,,,1.0863,1,,,,,,,,,,,,,,z,,,,,,,,,,,,,,,96,0,530.7065,531.7979,z,1,1.0863,,[],[],[],[],[],[],[],531.798,533.7981,533.7982,533.7983,[],[],[],[],[],[],[],,533.7983,533.7984,-0.01416584,-0.365240575,0,0,0,,0,95,95,58,1,3,TL,nuremical,print,nuremical_p.png,,,,,,
,,,,31922,001,2025-10-16_13h42.21.790,HW_LDT_1,2024.2.4,MacIntel,59.88023952,,,,,,,,,,,,,,,,,,,,,533.7992,533.9981,533.9981,534.498,,,,,,,,,,,,,,0.9711,1,,,,,,,,,,,,,,z,,,,,,,,,,,,,,,97,0,534.4984,535.4724,z,1,0.9711,,[],[],[],[],[],[],[],535.4726,537.4723,537.4723,537.4725,[],[],[],[],[],[],[],,537.4726,537.4726,-0.01416584,-0.365240575,0,0,0,,0,96,96,7,1,3,RL,cobeny,print,cobeny_p.png,,,,,,
,,,,31922,001,2025-10-16_13h42.21.790,HW_LDT_1,2024.2.4,MacIntel,59.88023952,,,,,,,,,,,,,,,,,,,,,537.4737,537.6731,537.6731,538.1732,,,,,,,,,,,,,,1.4471,0,,,,,,,,,,,,,,m,,,,,,,,,,,,,,,98,0,538.1742,539.623,z,0,1.4471,,[],[],[],[],[],[],[],539.6232,541.6231,541.6231,541.6234,[],[],[],[],[],[],[],,541.6235,541.6236,-0.01416584,-0.365240575,0,0,0,,0,97,97,90,1,3,word,CAPITAL,cursive,capital_c.png,,,,,,
,,,,31922,001,2025-10-16_13h42.21.790,HW_LDT_1,2024.2.4,MacIntel,59.88023952,,,,,,,,,,,,,,,,,,,,,541.6255,541.823,541.823,542.323,,,,,,,,,,,,,,2.3944,1,,,,,,,,,,,,,,z,,,,,,,,,,,,,,,99,0,542.3235,544.7231,z,1,2.3944,,[],[],[],[],[],[],[],544.7232,546.723,546.7231,546.7231,[],[],[],[],[],[],[],,546.7232,546.7233,-0.01416584,-0.365240575,0,0,0,,0,98,98,16,1,3,RL,mishafe,cursive,mishafe_c.png,,,,,,
,,,,31922,001,2025-10-16_13h42.21.790,HW_LDT_1,2024.2.4,MacIntel,59.88023952,,,,,,,,,,,,,,,,,,,,,546.7242,546.9231,546.9231,547.4226,,,,,,,,,,,,,,0.7704,1,,,,,,,,,,,,,,m,,,,,,,,,,,,,,,100,1,547.4231,548.1978,m,1,0.7704,,[],[],[],[],[],[],[],548.198,550.1981,550.1981,550.9641,[],[],[],[],[],[],[],m,550.9643,550.9643,-0.01416584,-0.363934358,0,0,0,,0,99,99,152,1,3,word,SPECIMEN,print,specimen_p.png,0.7633,,,,,
,,,,31922,001,2025-10-16_13h42.21.790,HW_LDT_1,2024.2.4,MacIntel,59.88023952,,,,,,,,,,,,,,,,,,,,,550.9653,551.1564,551.1565,551.6648,,,,,,,,,,,,,,1.0402,1,,,,,,,,,,,,,,m,,,,,,,,,,,,,,,101,0,551.6655,552.7063,m,1,1.0402,,[],[],[],[],[],[],[],552.7063,554.7063,554.7064,554.7066,[],[],[],[],[],[],[],,554.7066,554.7067,-0.013678075,-0.363686343,0,0,0,,0,100,100,117,1,3,word,MARINE,cursive,marine_c.png,,,,,,
,,,,31922,001,2025-10-16_13h42.21.790,HW_LDT_1,2024.2.4,MacIntel,59.88023952,,,,,,,,,,,,,,,,,,,,,554.7077,554.9065,554.9065,555.4065,,,,,,,,,,,,,,0.8367,1,,,,,,,,,,,,,,z,,,,,,,,,,,,,,,102,1,555.407,556.2481,z,1,0.8367,,[],[],[],[],[],[],[],556.2482,558.2481,558.2483,558.9315,[],[],[],[],[],[],[],z,558.9316,558.9316,-0.013678075,-0.363686343,0,0,0,,0,101,101,4,1,3,RL,cafigal,cursive,cafigal_c.png,0.679,,,,,
,,,,31922,001,2025-10-16_13h42.21.790,HW_LDT_1,2024.2.4,MacIntel,59.88023952,,,,,,,,,,,,,,,,,,,,,558.9325,559.1316,559.1316,559.6314,,,,,,,,,,,,,,0.9206,1,,,,,,,,,,,,,,m,,,,,,,,,,,,,,,103,0,559.6318,560.5563,m,1,0.9206,,[],[],[],[],[],[],[],560.5563,562.5564,562.5565,562.5566,[],[],[],[],[],[],[],,562.5567,562.5567,-0.013678075,-0.363686343,0,0,0,,0,102,102,82,1,3,word,AMATEUR,print,amateur_p.png,,,,,,
,,,,31922,001,2025-10-16_13h42.21.790,HW_LDT_1,2024.2.4,MacIntel,59.88023952,,,,,,,,,,,,,,,,,,,,,562.5576,562.7564,562.7566,563.2565,,,,,,,,,,,,,,0.7208,1,,,,,,,,,,,,,,z,,,,,,,,,,,,,,,104,0,563.257,563.9814,z,1,0.7208,,[],[],[],[],[],[],[],563.9814,565.9814,565.9814,565.9816,[],[],[],[],[],[],[],,565.9816,565.9816,-0.013678075,-0.363686343,0,0,0,,0,103,103,64,1,3,TL,radiply,print,radiply_p.png,,,,,,
,,,,31922,001,2025-10-16_13h42.21.790,HW_LDT_1,2024.2.4,MacIntel,59.88023952,,,,,,,,,,,,,,,,,,,,,565.9826,566.1811,566.1811,566.6811,,,,,,,,,,,,,,0.778,1,,,,,,,,,,,,,,z,,,,,,,,,,,,,,,105,0,566.6819,567.4644,z,1,0.778,,[],[],[],[],[],[],[],567.4646,569.4646,569.4647,569.465,[],[],[],[],[],[],[],,569.4652,569.4653,-0.013678075,-0.363686343,0,0,0,,0,104,104,61,1,3,TL,pocily,print,pocily_p.png,,,,,,
,,,,31922,001,2025-10-16_13h42.21.790,HW_LDT_1,2024.2.4,MacIntel,59.88023952,,,,,,,,,,,,,,,,,,,,,569.4668,569.6647,569.6648,570.1644,,,,,,,,,,,,,,1.2199,1,,,,,,,,,,,,,,z,,,,,,,,,,,,,,,106,1,570.1652,571.3897,z,1,1.2199,,[],[],[],[],[],[],[],571.3897,573.3898,573.3899,573.9564,[],[],[],[],[],[],[],z,573.9564,573.9566,-0.013678075,-0.363686343,0,0,0,,0,105,105,63,1,3,TL,racidal,cursive,racidal_c.png,0.5622,,,,,
,,,,31922,001,2025-10-16_13h42.21.790,HW_LDT_1,2024.2.4,MacIntel,59.88023952,,,,,,,,,,,,,,,,,,,,,573.9574,574.1564,574.1564,574.6562,,,,,,,,,,,,,,0.7405,0,,,,,,,,,,,,,,z,,,,,,,,,,,,,,,107,0,574.6564,575.3983,m,0,0.7405,,[],[],[],[],[],[],[],575.3984,577.3982,577.3982,577.3984,[],[],[],[],[],[],[],,577.3984,577.3985,-0.013678075,-0.363686343,0,0,0,,0,106,106,75,1,3,TL,sloten,cursive,sloten_c.png,,,,,,
,,,,31922,001,2025-10-16_13h42.21.790,HW_LDT_1,2024.2.4,MacIntel,59.88023952,,,,,,,,,,,,,,,,,,,,,577.3994,577.5977,577.5978,578.0982,,,,,,,,,,,,,,1.085,1,,,,,,,,,,,,,,z,,,,,,,,,,,,,,,108,0,578.0989,579.1896,z,1,1.085,,[],[],[],[],[],[],[],579.1896,581.1897,581.1898,581.1899,[],[],[],[],[],[],[],,581.19,581.1901,-0.013678075,-0.363686343,0,0,0,,0,107,107,34,1,3,TL,aminal,cursive,aminal_c.png,,,,,,
,,,,31922,001,2025-10-16_13h42.21.790,HW_LDT_1,2024.2.4,MacIntel,59.88023952,,,,,,,,,,,,,,,,,,,,,581.191,581.39,581.3901,581.889,,,,,,,,,,,,,,0.9365,1,,,,,,,,,,,,,,m,,,,,,,,,,,,,,,109,0,581.8895,582.8312,m,1,0.9365,,[],[],[],[],[],[],[],582.8313,584.8314,584.8314,584.8316,[],[],[],[],[],[],[],,584.8317,584.8318,-0.013678075,-0.363686343,0,0,0,,0,108,108,154,1,3,word,STORAGE,cursive,storage_c.png,,,,,,
,,,,31922,001,2025-10-16_13h42.21.790,HW_LDT_1,2024.2.4,MacIntel,59.88023952,,,,,,,,,,,,,,,,,,,,,584.8325,585.0314,585.0315,585.5315,,,,,,,,,,,,,,0.7782,1,,,,,,,,,,,,,,z,,,,,,,,,,,,,,,110,0,585.5319,586.3147,z,1,0.7782,,[],[],[],[],[],[],[],586.3148,588.3149,588.3149,588.3153,[],[],[],[],[],[],[],,588.3153,588.3154,-0.013678075,-0.363686343,0,0,0,,0,109,109,45,1,3,TL,dentisy,print,dentisy_p.png,,,,,,
,,,,31922,001,2025-10-16_13h42.21.790,HW_LDT_1,2024.2.4,MacIntel,59.88023952,,,,,,,,,,,,,,,,,,,,,588.3165,588.5146,588.5146,589.0143,,,,,,,,,,,,,,0.7139,1,,,,,,,,,,,,,,m,,,,,,,,,,,,,,,111,0,589.0148,589.7312,m,1,0.7139,,[],[],[],[],[],[],[],589.7312,591.7314,591.7315,591.7317,[],[],[],[],[],[],[],,591.7317,591.7317,-0.013678075,-0.363686343,0,0,0,,0,110,110,131,1,3,word,POPULAR,print,popular_p.png,,,,,,
,,,,31922,001,2025-10-16_13h42.21.790,HW_LDT_1,2024.2.4,MacIntel,59.88023952,,,,,,,,,,,,,,,,,,,,,591.7327,591.9313,591.9313,592.4312,,,,,,,,,,,,,,0.695,1,,,,,,,,,,,,,,m,,,,,,,,,,,,,,,112,0,592.4318,593.1314,m,1,0.695,,[],[],[],[],[],[],[],593.1315,595.1314,595.1314,595.1315,[],[],[],[],[],[],[],,595.1317,595.1318,-0.013678075,-0.363686343,0,0,0,,0,111,111,141,1,3,word,RELIGION,print,religion_p.png,,,,,,
,,,,31922,001,2025-10-16_13h42.21.790,HW_LDT_1,2024.2.4,MacIntel,59.88023952,,,,,,,,,,,,,,,,,,,,,595.1326,595.3315,595.3316,595.8314,,,,,,,,,,,,,,0.7206,1,,,,,,,,,,,,,,z,,,,,,,,,,,,,,,113,0,595.8324,596.5563,z,1,0.7206,,[],[],[],[],[],[],[],596.5565,598.5558,598.5558,598.556,[],[],[],[],[],[],[],,598.556,598.5562,-0.013678075,-0.363686343,0,0,0,,0,112,112,30,1,3,RL,strapely,print,strapely_p.png,,,,,,
,,,,31922,001,2025-10-16_13h42.21.790,HW_LDT_1,2024.2.4,MacIntel,59.88023952,,,,,,,,,,,,,,,,,,,,,598.5569,598.7564,598.7564,599.2557,,,,,,,,,,,,,,0.9792,1,,,,,,,,,,,,,,z,,,,,,,,,,,,,,,114,0,599.2561,600.2394,z,1,0.9792,,[],[],[],[],[],[],[],600.2394,602.2401,602.2403,602.2408,[],[],[],[],[],[],[],,602.241,602.2411,-0.013678075,-0.363686343,0,0,0,,0,113,113,36,1,3,TL,carema,cursive,carema_c.png,,,,,,
,,,,31922,001,2025-10-16_13h42.21.790,HW_LDT_1,2024.2.4,MacIntel,59.88023952,,,,,,,,,,,,,,,,,,,,,602.2436,602.4398,602.4399,602.9389,,,,,,,,,,,,,,0.7796,1,,,,,,,,,,,,,,z,,,,,,,,,,,,,,,115,0,602.9397,603.7231,z,1,0.7796,,[],[],[],[],[],[],[],603.7232,605.7231,605.7231,605.7232,[],[],[],[],[],[],[],,605.7234,605.7234,-0.013678075,-0.36603836,0,0,0,,0,114,114,26,1,3,RL,repifion,print,repifion_p.png,,,,,,
,,,,31922,001,2025-10-16_13h42.21.790,HW_LDT_1,2024.2.4,MacIntel,59.88023952,,,,,,,,,,,,,,,,,,,,,605.7253,605.9231,605.9234,606.4232,,,,,,,,,,,,,,0.6854,1,,,,,,,,,,,,,,m,,,,,,,,,,,,,,,116,0,606.4238,607.1144,m,1,0.6854,,[],[],[],[],[],[],[],607.1146,609.1146,609.1147,609.1149,[],[],[],[],[],[],[],,609.115,609.1151,-0.013926091,-0.36603836,0,0,0,,0,115,115,138,1,3,word,REFUSAL,print,refusal_p.png,,,,,,
,,,,31922,001,2025-10-16_13h42.21.790,HW_LDT_1,2024.2.4,MacIntel,59.88023952,,,,,,,,,,,,,,,,,,,,,609.117,609.3147,609.3147,609.815,,,,,,,,,,,,,,0.9308,0,,,,,,,,,,,,,,m,,,,,,,,,,,,,,,117,0,609.8155,610.7481,z,0,0.9308,,[],[],[],[],[],[],[],610.7482,612.748,612.7481,612.7483,[],[],[],[],[],[],[],,612.7483,612.7483,-0.013926091,-0.36603836,0,0,0,,0,116,116,123,1,3,word,MODERATE,cursive,moderate_c.png,,,,,,
,,,,31922,001,2025-10-16_13h42.21.790,HW_LDT_1,2024.2.4,MacIntel,59.88023952,,,,,,,,,,,,,,,,,,,,,612.7491,612.9481,612.9481,613.4481,,,,,,,,,,,,,,0.6119,1,,,,,,,,,,,,,,m,,,,,,,,,,,,,,,118,0,613.4489,614.0646,m,1,0.6119,,[],[],[],[],[],[],[],614.0647,616.0649,616.0649,616.0651,[],[],[],[],[],[],[],,616.0651,616.0652,-0.014169974,-0.36603836,0,0,0,,0,117,117,113,1,3,word,LITERAL,print,literal_p.png,,,,,,
,,,,31922,001,2025-10-16_13h42.21.790,HW_LDT_1,2024.2.4,MacIntel,59.88023952,,,,,,,,,,,,,,,,,,,,,616.0665,616.2646,616.2647,616.7647,,,,,,,,,,,,,,0.7201,1,,,,,,,,,,,,,,m,,,,,,,,,,,,,,,119,0,616.7652,617.4889,m,1,0.7201,,[],[],[],[],[],[],[],617.4889,619.489,619.4891,619.4893,[],[],[],[],[],[],[],,619.4893,619.4894,-0.014169974,-0.36603836,0,0,0,,0,118,118,139,1,3,word,REGULAR,print,regular_p.png,,,,,,
,,,,31922,001,2025-10-16_13h42.21.790,HW_LDT_1,2024.2.4,MacIntel,59.88023952,,,,,,,,,,,,,,,,,,,,,619.4905,619.6897,619.6898,620.1897,,,,,,,,,,,,,,2.2455,0,,,,,,,,,,,,,,m,,,,,,,,,,,,,,,120,0,620.1904,622.4395,z,0,2.2455,,[],[],[],[],[],[],[],622.4396,624.4397,624.4398,624.4398,[],[],[],[],[],[],[],,624.4399,624.44,-0.014169974,-0.36603836,0,0,0,,0,119,119,126,1,3,word,OPTIMAL,cursive,optimal_c.png,,,,,,
,,,,31922,001,2025-10-16_13h42.21.790,HW_LDT_1,2024.2.4,MacIntel,59.88023952,,,,,,,,,,,,,,,,,,,,,624.4411,624.6392,624.6393,625.1398,,,,,,,,,,,,,,0.9731,1,,,,,,,,,,,,,,z,,,,,,,,,,,,,,,121,0,625.1404,626.1148,z,1,0.9731,,[],[],[],[],[],[],[],626.1149,628.114,628.1141,628.1142,[],[],[],[],[],[],[],,628.1143,628.1143,-0.014169974,-0.36603836,0,0,0,,0,120,120,29,1,3,RL,selamor,cursive,selamor_c.png,,,,,,
,,,,31922,001,2025-10-16_13h42.21.790,HW_LDT_1,2024.2.4,MacIntel,59.88023952,,,,,,,,,,,,,,,,,,,,,628.1154,628.3146,628.3146,628.8147,,,,,,,,,,,,,,0.7952,1,,,,,,,,,,,,,,z,,,,,,,,,,,,,,,122,1,628.8152,629.6142,z,1,0.7952,,[],[],[],[],[],[],[],629.6142,631.6149,631.6149,632.8985,[],[],[],[],[],[],[],z,632.8986,632.8988,-0.014169974,-0.36603836,0,0,0,,0,121,121,41,1,3,TL,crinimal,print,crinimal_p.png,1.283,,,,,
,,,,31922,001,2025-10-16_13h42.21.790,HW_LDT_1,2024.2.4,MacIntel,59.88023952,,,,,,,,,,,,,,,,,,,,,632.8999,633.098,633.098,633.5979,,,,,,,,,,,,,,0.6866,1,,,,,,,,,,,,,,m,,,,,,,,,,,,,,,123,0,633.598,634.2896,m,1,0.6866,,[],[],[],[],[],[],[],634.2896,636.2896,636.2897,636.2899,[],[],[],[],[],[],[],,636.29,636.2901,-0.014169974,-0.36603836,0,0,0,,0,122,122,101,1,3,word,DELICATE,print,delicate_p.png,,,,,,
,,,,31922,001,2025-10-16_13h42.21.790,HW_LDT_1,2024.2.4,MacIntel,59.88023952,,,,,,,,,,,,,,,,,,,,,636.2918,636.4898,636.4899,636.989,,,,,,,,,,,,,,0.5539,1,,,,,,,,,,,,,,m,,,,,,,,,,,,,,,124,0,636.9895,637.5481,m,1,0.5539,,[],[],[],[],[],[],[],637.5483,639.548,639.5481,639.5484,[],[],[],[],[],[],[],,639.5484,639.5484,-0.014169974,-0.36603836,0,0,0,,0,123,123,129,1,3,word,PARENT,print,parent_p.png,,,,,,
,,,,31922,001,2025-10-16_13h42.21.790,HW_LDT_1,2024.2.4,MacIntel,59.88023952,,,,,,,,,,,,,,,,,,,,,639.5496,639.7473,639.7474,640.2482,,,,,,,,,,,,,,1.9032,1,,,,,,,,,,,,,,z,,,,,,,,,,,,,,,125,1,640.2486,642.1566,z,1,1.9032,,[],[],[],[],[],[],[],642.1567,644.1564,644.1564,645.3396,[],[],[],[],[],[],[],z,645.3397,645.3397,-0.014169974,-0.36603836,0,0,0,,0,124,124,11,1,3,RL,ebiwent,cursive,ebiwent_c.png,1.1788,,,,,
,,,,31922,001,2025-10-16_13h42.21.790,HW_LDT_1,2024.2.4,MacIntel,59.88023952,,,,,,,,,,,,,,,,,,,,,645.3406,645.5396,645.5397,646.0395,,,,,,,,,,,,,,0.7121,1,,,,,,,,,,,,,,z,,,,,,,,,,,,,,,126,0,646.04,646.7564,z,1,0.7121,,[],[],[],[],[],[],[],646.7564,648.7565,648.7565,648.7566,[],[],[],[],[],[],[],,648.7566,648.7568,-0.014169974,-0.36603836,0,0,0,,0,125,125,51,1,3,TL,liretal,print,liretal_p.png,,,,,,
,,,,31922,001,2025-10-16_13h42.21.790,HW_LDT_1,2024.2.4,MacIntel,59.88023952,,,,,,,,,,,,,,,,,,,,,648.7577,648.9564,648.9565,649.4564,,,,,,,,,,,,,,0.7307,1,,,,,,,,,,,,,,z,,,,,,,,,,,,,,,127,0,649.4568,650.1888,z,1,0.7307,,[],[],[],[],[],[],[],650.189,652.1897,652.1898,652.1899,[],[],[],[],[],[],[],,652.19,652.1901,-0.014169974,-0.36603836,0,0,0,,0,126,126,2,1,3,RL,betemit,print,betemit_p.png,,,,,,
,,,,31922,001,2025-10-16_13h42.21.790,HW_LDT_1,2024.2.4,MacIntel,59.88023952,,,,,,,,,,,,,,,,,,,,,652.1913,652.3897,652.3897,652.8898,,,,,,,,,,,,,,0.8946,1,,,,,,,,,,,,,,m,,,,,,,,,,,,,,,128,0,652.8903,653.789,m,1,0.8946,,[],[],[],[],[],[],[],653.789,655.7895,655.7895,655.7896,[],[],[],[],[],[],[],,655.7897,655.7899,-0.008796296,-0.365261243,0,0,0,,0,127,127,143,1,3,word,REMOVAL,cursive,removal_c.png,,,,,,
,,,,31922,001,2025-10-16_13h42.21.790,HW_LDT_1,2024.2.4,MacIntel,59.88023952,,,,,,,,,,,,,,,,,,,,,655.7911,655.99,655.99,656.4891,,,,,,,,,,,,,,0.6545,1,,,,,,,,,,,,,,z,,,,,,,,,,,,,,,129,0,656.4896,657.148,z,1,0.6545,,[],[],[],[],[],[],[],657.1481,659.1476,659.1476,659.1478,[],[],[],[],[],[],[],,659.1479,659.148,-0.009040179,-0.365261243,0,0,0,,0,128,128,47,1,3,TL,elarobate,print,elarobate_p.png,,,,,,
,,,,31922,001,2025-10-16_13h42.21.790,HW_LDT_1,2024.2.4,MacIntel,59.88023952,,,,,,,,,,,,,,,,,,,,,659.1491,659.3483,659.3483,659.8481,,,,,,,,,,,,,,0.6445,1,,,,,,,,,,,,,,z,,,,,,,,,,,,,,,130,0,659.8485,660.498,z,1,0.6445,,[],[],[],[],[],[],[],660.4981,662.4982,662.4984,662.4986,[],[],[],[],[],[],[],,662.4987,662.4989,-0.009040179,-0.365261243,0,0,0,,0,129,129,40,1,3,TL,condiser,print,condiser_p.png,,,,,,
,,,,31922,001,2025-10-16_13h42.21.790,HW_LDT_1,2024.2.4,MacIntel,59.88023952,,,,,,,,,,,,,,,,,,,,,662.5006,662.6981,662.6981,663.198,,,,,,,,,,,,,,0.7465,1,,,,,,,,,,,,,,m,,,,,,,,,,,,,,,131,1,663.1989,663.9483,m,1,0.7465,,[],[],[],[],[],[],[],663.9484,665.9399,665.94,667.0313,[],[],[],[],[],[],[],z,667.0313,667.0314,-0.009040179,-0.36703869,0,0,0,,0,130,130,158,1,3,word,VELOCITY,cursive,velocity_c.png,1.0876,,,,,
,,,,31922,001,2025-10-16_13h42.21.790,HW_LDT_1,2024.2.4,MacIntel,59.88023952,,,,,,,,,,,,,,,,,,,,,667.032,667.2234,667.2234,667.7314,,,,,,,,,,,,,,0.6475,1,,,,,,,,,,,,,,z,,,,,,,,,,,,,,,132,0,667.7319,668.3814,z,1,0.6475,,[],[],[],[],[],[],[],668.3815,670.3814,670.3815,670.3816,[],[],[],[],[],[],[],,670.3816,670.3817,-0.009040179,-0.36703869,0,0,0,,0,131,131,21,1,3,RL,potugar,print,potugar_p.png,,,,,,
,,,,31922,001,2025-10-16_13h42.21.790,HW_LDT_1,2024.2.4,MacIntel,59.88023952,,,,,,,,,,,,,,,,,,,,,670.3832,670.5814,670.5814,671.0813,,,,,,,,,,,,,,0.7455,1,,,,,,,,,,,,,,z,,,,,,,,,,,,,,,133,0,671.0818,671.8312,z,1,0.7455,,[],[],[],[],[],[],[],671.8313,673.8314,673.8316,673.8319,[],[],[],[],[],[],[],,673.832,673.8322,-0.009040179,-0.36703869,0,0,0,,0,132,132,22,1,3,RL,procogal,print,procogal_p.png,,,,,,
,,,,31922,001,2025-10-16_13h42.21.790,HW_LDT_1,2024.2.4,MacIntel,59.88023952,,,,,,,,,,,,,,,,,,,,,673.8335,674.0314,674.0315,674.5314,,,,,,,,,,,,,,1.6875,1,,,,,,,,,,,,,,z,,,,,,,,,,,,,,,134,0,674.532,676.2231,z,1,1.6875,,[],[],[],[],[],[],[],676.2232,678.2231,678.2233,678.2235,[],[],[],[],[],[],[],,678.2236,678.2236,-0.009040179,-0.36703869,0,0,0,,0,133,133,28,1,3,RL,rovastic,cursive,rovastic_c.png,,,,,,
,,,,31922,001,2025-10-16_13h42.21.790,HW_LDT_1,2024.2.4,MacIntel,59.88023952,,,,,,,,,,,,,,,,,,,,,678.2246,678.4228,678.4228,678.9231,,,,,,,,,,,,,,0.6115,1,,,,,,,,,,,,,,m,,,,,,,,,,,,,,,135,0,678.9236,679.5396,m,1,0.6115,,[],[],[],[],[],[],[],679.5396,681.5397,681.5397,681.5398,[],[],[],[],[],[],[],,681.5399,681.5399,-0.009040179,-0.36703869,0,0,0,,0,134,134,119,1,3,word,MEMORY,print,memory_p.png,,,,,,
,,,,31922,001,2025-10-16_13h42.21.790,HW_LDT_1,2024.2.4,MacIntel,59.88023952,,,,,,,,,,,,,,,,,,,,,681.5409,681.7399,681.74,682.2397,,,,,,,,,,,,,,0.5905,1,,,,,,,,,,,,,,m,,,,,,,,,,,,,,,136,0,682.2404,682.8313,m,1,0.5905,,[],[],[],[],[],[],[],682.8314,684.8314,684.8315,684.8317,[],[],[],[],[],[],[],,684.8317,684.8317,-0.009040179,-0.36703869,0,0,0,,0,135,135,124,1,3,word,NUMERICAL,print,numerical_p.png,,,,,,
,,,,31922,001,2025-10-16_13h42.21.790,HW_LDT_1,2024.2.4,MacIntel,59.88023952,,,,,,,,,,,,,,,,,,,,,684.8327,685.0312,685.0312,685.5342,,,,,,,,,,,,,,1.0001,1,,,,,,,,,,,,,,z,,,,,,,,,,,,,,,137,0,685.5345,686.5401,z,1,1.0001,,[],[],[],[],[],[],[],686.5402,688.5393,688.5394,688.5395,[],[],[],[],[],[],[],,688.5396,688.5396,-0.009040179,-0.36703869,0,0,0,,0,136,136,76,1,3,TL,stogare,cursive,stogare_c.png,,,,,,
,,,,31922,001,2025-10-16_13h42.21.790,HW_LDT_1,2024.2.4,MacIntel,59.88023952,,,,,,,,,,,,,,,,,,,,,688.5407,688.74,688.74,689.2395,,,,,,,,,,,,,,0.6963,1,,,,,,,,,,,,,,m,,,,,,,,,,,,,,,138,1,689.2399,689.9389,m,1,0.6963,,[],[],[],[],[],[],[],689.939,691.9402,691.9402,693.0315,[],[],[],[],[],[],[],m,693.0316,693.0317,-0.009040179,-0.366794808,0,0,0,,0,137,137,112,1,3,word,LIBERAL,print,liberal_p.png,1.087,,,,,
,,,,31922,001,2025-10-16_13h42.21.790,HW_LDT_1,2024.2.4,MacIntel,59.88023952,,,,,,,,,,,,,,,,,,,,,693.0328,693.2231,693.2232,693.7315,,,,,,,,,,,,,,0.9617,1,,,,,,,,,,,,,,z,,,,,,,,,,,,,,,139,1,693.732,694.6973,z,1,0.9617,,[],[],[],[],[],[],[],694.6974,696.6982,696.6983,697.6315,[],[],[],[],[],[],[],z,697.6316,697.6318,-0.009040179,-0.366794808,0,0,0,,0,138,138,17,1,3,RL,motide,cursive,motide_c.png,0.9291,,,,,
,,,,31922,001,2025-10-16_13h42.21.790,HW_LDT_1,2024.2.4,MacIntel,59.88023952,,,,,,,,,,,,,,,,,,,,,697.6329,697.8316,697.8316,698.3315,,,,,,,,,,,,,,1.8238,1,,,,,,,,,,,,,,z,,,,,,,,,,,,,,,140,0,698.3322,700.1569,z,1,1.8238,,[],[],[],[],[],[],[],700.157,702.1564,702.1564,702.1565,[],[],[],[],[],[],[],,702.1565,702.1567,-0.009040179,-0.366794808,0,0,0,,0,139,139,14,1,3,RL,lofase,cursive,lofase_c.png,,,,,,
,,,,31922,001,2025-10-16_13h42.21.790,HW_LDT_1,2024.2.4,MacIntel,59.88023952,,,,,,,,,,,,,,,,,,,,,702.1578,702.3564,702.3565,702.8565,,,,,,,,,,,,,,0.7033,1,,,,,,,,,,,,,,z,,,,,,,,,,,,,,,141,0,702.8572,703.5648,z,1,0.7033,,[],[],[],[],[],[],[],703.565,705.564,705.5641,705.5643,[],[],[],[],[],[],[],,705.5644,705.5646,-0.009040179,-0.366794808,0,0,0,,0,140,140,32,1,3,TL,adacemy,print,adacemy_p.png,,,,,,
,,,,31922,001,2025-10-16_13h42.21.790,HW_LDT_1,2024.2.4,MacIntel,59.88023952,,,,,,,,,,,,,,,,,,,,,705.5657,705.7643,705.7643,706.2647,,,,,,,,,,,,,,0.7535,1,,,,,,,,,,,,,,z,,,,,,,,,,,,,,,142,0,706.2651,707.0231,z,1,0.7535,,[],[],[],[],[],[],[],707.0233,709.023,709.0232,709.0234,[],[],[],[],[],[],[],,709.0234,709.0235,-0.009040179,-0.36811756,0,0,0,,0,141,141,65,1,3,TL,resufal,print,resufal_p.png,,,,,,
,,,,31922,001,2025-10-16_13h42.21.790,HW_LDT_1,2024.2.4,MacIntel,59.88023952,,,,,,,,,,,,,,,,,,,,,709.0245,709.2233,709.2233,709.7223,,,,,,,,,,,,,,0.6138,1,,,,,,,,,,,,,,m,,,,,,,,,,,,,,,143,1,709.7227,710.3398,m,1,0.6138,,[],[],[],[],[],[],[],710.3398,712.3397,712.3397,713.4064,[],[],[],[],[],[],[],z,713.4065,713.4066,-0.009040179,-0.367869544,0,0,0,,0,142,142,127,1,3,word,ORIGINAL,cursive,original_c.png,1.0633,,,,,
,,,,31922,001,2025-10-16_13h42.21.790,HW_LDT_1,2024.2.4,MacIntel,59.88023952,,,,,,,,,,,,,,,,,,,,,713.4076,713.598,713.5981,714.1063,,,,,,,,,,,,,,1.2199,0,,,,,,,,,,,,,,z,,,,,,,,,,,,,,,144,0,714.1068,715.3313,m,0,1.2199,,[],[],[],[],[],[],[],715.3314,717.3314,717.3315,717.3316,[],[],[],[],[],[],[],,717.3318,717.3319,-0.009040179,-0.36734871,0,0,0,,0,143,143,68,1,3,TL,revomal,cursive,revomal_c.png,,,,,,
,,,,31922,001,2025-10-16_13h42.21.790,HW_LDT_1,2024.2.4,MacIntel,59.88023952,,,,,,,,,,,,,,,,,,,,,717.3335,717.5314,717.5314,718.0314,,,,,,,,,,,,,,0.6223,1,,,,,,,,,,,,,,z,,,,,,,,,,,,,,,145,0,718.0319,718.6563,z,1,0.6223,,[],[],[],[],[],[],[],718.6564,720.6565,720.6566,720.6567,[],[],[],[],[],[],[],,720.6568,720.6568,-0.009040179,-0.36734871,0,0,0,,0,144,144,60,1,3,TL,panert,print,panert_p.png,,,,,,
,,,,31922,001,2025-10-16_13h42.21.790,HW_LDT_1,2024.2.4,MacIntel,59.88023952,,,,,,,,,,,,,,,,,,,,,720.6578,720.8562,720.8562,721.3565,,,,,,,,,,,,,,0.8114,0,,,,,,,,,,,,,,m,,,,,,,,,,,,,,,146,0,721.3579,722.173,z,0,0.8114,,[],[],[],[],[],[],[],722.1731,724.1731,724.1732,724.1734,[],[],[],[],[],[],[],,724.1734,724.1736,-0.009040179,-0.36734871,0,0,0,,0,145,145,99,1,3,word,DEBATE,cursive,debate_c.png,,,,,,
,,,,31922,001,2025-10-16_13h42.21.790,HW_LDT_1,2024.2.4,MacIntel,59.88023952,,,,,,,,,,,,,,,,,,,,,724.1754,724.373,724.373,724.8731,,,,,,,,,,,,,,0.8282,1,,,,,,,,,,,,,,m,,,,,,,,,,,,,,,147,0,724.8736,725.7059,m,1,0.8282,,[],[],[],[],[],[],[],725.706,727.7064,727.7064,727.7066,[],[],[],[],[],[],[],,727.7067,727.7068,-0.009040179,-0.36734871,0,0,0,,0,146,146,85,1,3,word,BENEFIT,print,benefit_p.png,,,,,,
,,,,31922,001,2025-10-16_13h42.21.790,HW_LDT_1,2024.2.4,MacIntel,59.88023952,,,,,,,,,,,,,,,,,,,,,727.7078,727.9065,727.9066,728.4064,,,,,,,,,,,,,,0.953,1,,,,,,,,,,,,,,m,,,,,,,,,,,,,,,148,0,728.4069,729.3648,m,1,0.953,,[],[],[],[],[],[],[],729.3649,731.3608,731.3608,731.361,[],[],[],[],[],[],[],,731.3611,731.3612,-0.009040179,-0.36734871,0,0,0,,0,147,147,133,1,3,word,PROVIDE,print,provide_p.png,,,,,,
,,,,31922,001,2025-10-16_13h42.21.790,HW_LDT_1,2024.2.4,MacIntel,59.88023952,,,,,,,,,,,,,,,,,,,,,731.3623,731.5606,731.5607,732.0599,,,,,,,,,,,,,,0.9123,1,,,,,,,,,,,,,,m,,,,,,,,,,,,,,,149,0,732.0604,732.9771,m,1,0.9123,,[],[],[],[],[],[],[],732.9772,734.9764,734.9765,734.9766,[],[],[],[],[],[],[],,734.9767,734.9767,-0.009040179,-0.36734871,0,0,0,,0,148,148,147,1,3,word,ROMANTIC,cursive,romantic_c.png,,,,,,
,,,,31922,001,2025-10-16_13h42.21.790,HW_LDT_1,2024.2.4,MacIntel,59.88023952,,,,,,,,,,,,,,,,,,,,,734.9777,735.1765,735.1765,735.6766,,,,,,,,,,,,,,0.7138,1,,,,,,,,,,,,,,z,,,,,,,,,,,,,,,150,0,735.677,736.3941,z,1,0.7138,,[],[],[],[],[],[],[],736.3942,738.394,738.3941,738.3942,[],[],[],[],[],[],[],,738.3943,738.3944,-0.009040179,-0.36734871,0,0,0,,0,149,149,50,1,3,TL,lirebal,print,lirebal_p.png,,,,,,
,,,,31922,001,2025-10-16_13h42.21.790,HW_LDT_1,2024.2.4,MacIntel,59.88023952,,,,,,,,,,,,,,,,,,,,,738.3952,738.5933,738.5933,739.0933,,,,,,,,,,,,,,1.3961,0,,,,,,,,,,,,,,m,,,,,,,,,,,,,,,151,1,739.0937,740.4932,z,0,1.3961,,[],[],[],[],[],[],[],740.4934,742.4931,742.4932,743.327,[],[],[],[],[],[],[],z,743.3271,743.3272,-0.009040179,-0.36734871,0,0,0,,0,150,150,92,1,3,word,CATEGORY,cursive,category_c.png,0.8301,,,,,
,,,,31922,001,2025-10-16_13h42.21.790,HW_LDT_1,2024.2.4,MacIntel,59.88023952,,,,,,,,,,,,,,,,,,,,,743.3283,743.5187,743.5188,744.0264,,,,,,,,,,,,,,0.762,1,,,,,,,,,,,,,,m,,,,,,,,,,,,,,,152,0,744.0268,744.7938,m,1,0.762,,[],[],[],[],[],[],[],744.7939,746.7931,746.7932,746.7934,[],[],[],[],[],[],[],,746.7935,746.7938,-0.009040179,-0.36734871,0,0,0,,0,151,151,87,1,3,word,CAFETERIA,print,cafeteria_p.png,,,,,,
,,,,31922,001,2025-10-16_13h42.21.790,HW_LDT_1,2024.2.4,MacIntel,59.88023952,,,,,,,,,,,,,,,,,,,,,746.7952,746.9939,746.994,747.4939,,,,,,,,,,,,,,0.7113,1,,,,,,,,,,,,,,z,,,,,,,,,,,,,,,153,0,747.4946,748.2106,z,1,0.7113,,[],[],[],[],[],[],[],748.2108,750.2108,750.2108,750.2111,[],[],[],[],[],[],[],,750.2112,750.2113,-0.009040179,-0.36734871,0,0,0,,0,152,152,25,1,3,RL,retupar,print,retupar_p.png,,,,,,
,,,,31922,001,2025-10-16_13h42.21.790,HW_LDT_1,2024.2.4,MacIntel,59.88023952,,,,,,,,,,,,,,,,,,,,,750.2124,750.4099,750.41,750.9106,,,,,,,,,,,,,,0.6041,1,,,,,,,,,,,,,,z,,,,,,,,,,,,,,,154,0,750.911,751.5186,z,1,0.6041,,[],[],[],[],[],[],[],751.5186,753.5191,753.5191,753.5193,[],[],[],[],[],[],[],,753.5193,753.5194,-0.009040179,-0.36734871,0,0,0,,0,153,153,56,1,3,TL,meromy,print,meromy_p.png,,,,,,
,,,,31922,001,2025-10-16_13h42.21.790,HW_LDT_1,2024.2.4,MacIntel,59.88023952,,,,,,,,,,,,,,,,,,,,,753.5204,753.7187,753.7188,754.2183,,,,,,,,,,,,,,0.7713,0,,,,,,,,,,,,,,m,,,,,,,,,,,,,,,155,0,754.2187,754.994,z,0,0.7713,,[],[],[],[],[],[],[],754.9941,756.994,756.994,756.9942,[],[],[],[],[],[],[],,756.9942,756.9942,-0.009040179,-0.36734871,0,0,0,,0,154,154,83,1,3,word,ANIMAL,cursive,animal_c.png,,,,,,
,,,,31922,001,2025-10-16_13h42.21.790,HW_LDT_1,2024.2.4,MacIntel,59.88023952,,,,,,,,,,,,,,,,,,,,,756.9949,757.202,757.202,757.6939,,,,,,,,,,,,,,1.4952,1,,,,,,,,,,,,,,z,,,,,,,,,,,,,,,156,0,757.6945,759.194,z,1,1.4952,,[],[],[],[],[],[],[],759.1941,761.1941,761.1941,761.1942,[],[],[],[],[],[],[],,761.1942,761.1944,-0.009040179,-0.36734871,0,0,0,,0,155,155,79,1,3,TL,veretan,cursive,veretan_c.png,,,,,,
,,,,31922,001,2025-10-16_13h42.21.790,HW_LDT_1,2024.2.4,MacIntel,59.88023952,,,,,,,,,,,,,,,,,,,,,761.1955,761.394,761.3941,761.8939,,,,,,,,,,,,,,0.7193,1,,,,,,,,,,,,,,m,,,,,,,,,,,,,,,157,0,761.8945,762.6181,m,1,0.7193,,[],[],[],[],[],[],[],762.6182,764.6187,764.6188,764.6189,[],[],[],[],[],[],[],,764.619,764.619,-0.008792163,-0.368084491,0,0,0,,0,156,156,91,1,3,word,CARDINAL,print,cardinal_p.png,,,,,,
,,,,31922,001,2025-10-16_13h42.21.790,HW_LDT_1,2024.2.4,MacIntel,59.88023952,,,,,,,,,,,,,,,,,,,,,764.6198,764.8188,764.8189,765.319,,,,,,,,,,,,,,1.2198,1,,,,,,,,,,,,,,z,,,,,,,,,,,,,,,158,0,765.3194,766.5439,z,1,1.2198,,[],[],[],[],[],[],[],766.5439,768.5432,768.5432,768.5435,[],[],[],[],[],[],[],,768.5435,768.5436,-0.008792163,-0.368084491,0,0,0,,0,157,157,74,1,3,TL,spemicen,print,spemicen_p.png,,,,,,
,,,,31922,001,2025-10-16_13h42.21.790,HW_LDT_1,2024.2.4,MacIntel,59.88023952,,,,,,,,,,,,,,,,,,,,,768.5445,768.744,768.744,769.2439,,,,,,,,,,,,,,1.145,0,,,,,,,,,,,,,,m,,,,,,,,,,,,,,,159,0,769.2444,770.394,z,0,1.145,,[],[],[],[],[],[],[],770.3941,772.3855,772.3855,772.3856,[],[],[],[],[],[],[],,772.3857,772.3857,-0.005877976,-0.370043816,0,0,0,,0,158,158,108,1,3,word,FORTUNE,cursive,fortune_c.png,,,,,,
,,,,31922,001,2025-10-16_13h42.21.790,HW_LDT_1,2024.2.4,MacIntel,59.88023952,,,,,,,,,,,,,,,,,,,,,772.3863,772.5856,772.5856,773.0737,,,,,,,,,,,,,,1.3002,0,,,,,,,,,,,,,,m,,,,,,,,,,,,,,,160,0,773.0744,774.3857,z,0,1.3002,,[],[],[],[],[],[],[],774.3857,776.3771,776.3771,776.3773,[],[],[],[],[],[],[],,776.3773,776.3773,-0.003034061,-0.37035797,0,0,0,,0,159,159,145,1,3,word,RESUME,cursive,resume_c.png,,,,,,
,,,,31922,001,2025-10-16_13h42.21.790,HW_LDT_1,2024.2.4,MacIntel,59.88023952,,,,,,,,,,,,,,,,,,,,,,,,,,,,,,,,,,,,,,,,,,,,,,,,,,,,,,,,,,,,,,,,,,,,,,,,,,,,,,,,,,,,,,,,,,,,,,,,,,,,,,,,,,,,,,,,,,,,,776.3864,781.3785
