counterbalance_lists.group,counterbalance_lists.remaining,get_list.started,get_list.stopped,participant,session,date,expName,psychopyVersion,OS,frameRate,Instructions.started,Instructions.stopped,key_resp.keys,instr_done_touch.x,instr_done_touch.y,instr_done_touch.leftButton,instr_done_touch.midButton,instr_done_touch.rightButton,instr_done_touch.clicked_name,start_instr.thisRepN,start_instr.thisTrialN,start_instr.thisN,start_instr.thisIndex,start_instr.ran,pageN,phase,instruct_text,has_image,instruct_image,key_resp.rt,key_resp.duration,showProgress.started,showProgress.stopped,fix.started,fix.stopped,prac.started,prac.stopped,response.keys,response.corr,response.rt,response.duration,touch_resp.x,touch_resp.y,touch_resp.leftButton,touch_resp.midButton,touch_resp.rightButton,touch_resp.time,touch_resp.clicked_name,rt,corr,feedback.started,feedback.stopped,trials.thisRepN,trials.thisTrialN,trials.thisN,trials.thisIndex,trials.ran,TrialID,StimulusType,Condition,PrimeDuration,Prime,Target,corrAns,Instructions_expt.started,Instructions_expt.stopped,key_resp_3.keys,instr_done_touch_3.x,instr_done_touch_3.y,instr_done_touch_3.leftButton,instr_done_touch_3.midButton,instr_done_touch_3.rightButton,instr_done_touch_3.clicked_name,instr_experiment.thisRepN,instr_experiment.thisTrialN,instr_experiment.thisN,instr_experiment.thisIndex,instr_experiment.ran,trialID,flag,maintask.started,maintask.stopped,key_resp_2.keys,key_resp_2.corr,key_resp_2.rt,key_resp_2.duration,targ_click.x,targ_click.y,targ_click.leftButton,targ_click.midButton,targ_click.rightButton,targ_click.time,targ_click.clicked_name,ITI.started,ITI.stopped,probe.started,probe.stopped,click_probe.x,click_probe.y,click_probe.leftButton,click_probe.midButton,click_probe.rightButton,click_probe.time,click_probe.clicked_name,key_resp_probe.keys,Break.started,Break.stopped,break_done_touch.x,break_done_touch.y,break_done_touch.leftButton,break_done_touch.midButton,break_done_touch.rightButton,break_done_keyboard.keys,list1_trials.thisRepN,list1_trials.thisTrialN,list1_trials.thisN,list1_trials.thisIndex,list1_trials.ran,list_id,item_type,string,font,stim_file,key_resp_probe.rt,key_resp_probe.duration,break_done_keyboard.rt,break_done_keyboard.duration,End.started,End.stopped
list1,,7.2442,7.2446,31925,001,2025-10-16_20h53.12.379,HW_LDT_1,2024.2.4,MacIntel,123.4567901,,,,,,,,,,,,,,,,,,,,,,,,,,,,,,,,,,,,,,,,,,,,,,,,,,,,,,,,,,,,,,,,,,,,,,,,,,,,,,,,,,,,,,,,,,,,,,,,,,,,,,,,,,,,,,,,,,,,,,,
,,,,31925,001,2025-10-16_20h53.12.379,HW_LDT_1,2024.2.4,MacIntel,123.4567901,7.2645,50.7791,,-0.035763783,-0.392689664,1,0,0,instr_done_button,0,0,0,0,1,1,instructions,"INSTRUCTIONS
At the start of each trial, look at the plus sign  (+) in the center of the screen.  This tells you that a trial is about to begin and where to look. Second, the plus sign will disappear and a string of letters will appear. Your task is to determine if the string of letters is a word or not. If the item is a word press the M key (on keyboard)  or touch the word button (phone/tablet).  If the item is not a word,  press the  Z key (on keyboard)  or touch the nonword button (on phone/tablet). The items will be presented for a short time. 
Press the space bar or touch  continue.",0,,,,,,,,,,,,,,,,,,,,,,,,,,,,,,,,,,,,,,,,,,,,,,,,,,,,,,,,,,,,,,,,,,,,,,,,,,,,,,,,,,,,,,,,,,,,,,,,,,,,,
,,,,31925,001,2025-10-16_20h53.12.379,HW_LDT_1,2024.2.4,MacIntel,123.4567901,50.7808,56.6367,space,-0.035763783,-0.392689664,0,0,0,,0,1,1,1,1,2,instructions,"If your device has a keyboard, press the 'Z' key for nonwords and the 'M' key for words.





Press the space bar or touch the button below to continue.",0,keyboard-example.gif,5.8183,,,,,,,,,,,,,,,,,,,,,,,,,,,,,,,,,,,,,,,,,,,,,,,,,,,,,,,,,,,,,,,,,,,,,,,,,,,,,,,,,,,,,,,,,,,,,,,,,,,
,,,,31925,001,2025-10-16_20h53.12.379,HW_LDT_1,2024.2.4,MacIntel,123.4567901,56.6379,59.4451,space,-0.035763783,-0.392689664,0,0,0,,0,2,2,2,1,3,instructions,"If you are using a touchscreen only device, use the buttons on the screen. Do not use the mouse.





Press the space bar or touch the button below to continue.",0,touchscreen-example.gif,2.7779,,,,,,,,,,,,,,,,,,,,,,,,,,,,,,,,,,,,,,,,,,,,,,,,,,,,,,,,,,,,,,,,,,,,,,,,,,,,,,,,,,,,,,,,,,,,,,,,,,,
,,,,31925,001,2025-10-16_20h53.12.379,HW_LDT_1,2024.2.4,MacIntel,123.4567901,59.4472,108.2362,space,-0.035763783,-0.392689664,0,0,0,,0,3,3,3,1,4,instructions,"It is very important that you respond as quickly and accurately as possible, as each letter string will only be on the screen for two seconds. If you do not respond within this time, the message 'Too slow!' will be displayed and the experiment will progress to the next letter string. The first 20 trials will be practice trials and you will receive feedback on your answers. 

Press the space bar or touch the button below to start the practice trials.",0,,48.7749,,,,,,,,,,,,,,,,,,,,,,,,,,,,,,,,,,,,,,,,,,,,,,,,,,,,,,,,,,,,,,,,,,,,,,,,,,,,,,,,,,,,,,,,,,,,,,,,,,,
,,,,31925,001,2025-10-16_20h53.12.379,HW_LDT_1,2024.2.4,MacIntel,123.4567901,,,,,,,,,,,,,,,,,,,,,,108.2624,108.4366,108.4368,108.9365,108.9368,110.8449,m,1,1.8897,,[],[],[],[],[],[],[],1.8897,1,110.8452,111.3448,0,0,0,2,1,1003,WORD,"ID",16,almond,ALMOND,m,,,,,,,,,,,,,,,,,,,,,,,,,,,,,,,,,,,,,,,,,,,,,,,,,,,,,,,,,,,,,,,,,
,,,,31925,001,2025-10-16_20h53.12.379,HW_LDT_1,2024.2.4,MacIntel,123.4567901,,,,,,,,,,,,,,,,,,,,,,111.3458,111.5447,111.5447,112.0442,112.045,112.7949,m,1,0.736,,[],[],[],[],[],[],[],0.736,1,112.7952,113.2947,0,1,1,6,1,1007,WORD,UN,16,tropic,ZOMBIE,m,,,,,,,,,,,,,,,,,,,,,,,,,,,,,,,,,,,,,,,,,,,,,,,,,,,,,,,,,,,,,,,,,
,,,,31925,001,2025-10-16_20h53.12.379,HW_LDT_1,2024.2.4,MacIntel,123.4567901,,,,,,,,,,,,,,,,,,,,,,113.2955,113.4946,113.4947,113.9943,113.995,115.478,z,1,1.4729,,[],[],[],[],[],[],[],1.4729,1,115.4781,115.9781,0,2,2,11,1,1012,NW,"ID",16,rashet,RASHET,z,,,,,,,,,,,,,,,,,,,,,,,,,,,,,,,,,,,,,,,,,,,,,,,,,,,,,,,,,,,,,,,,,
,,,,31925,001,2025-10-16_20h53.12.379,HW_LDT_1,2024.2.4,MacIntel,123.4567901,,,,,,,,,,,,,,,,,,,,,,115.9791,116.1778,116.1778,116.678,116.6786,117.4779,z,1,0.7874,,[],[],[],[],[],[],[],0.7874,1,117.4781,117.9775,0,3,3,15,1,1016,NW,UN,16,mushed,WHAISE,z,,,,,,,,,,,,,,,,,,,,,,,,,,,,,,,,,,,,,,,,,,,,,,,,,,,,,,,,,,,,,,,,,
,,,,31925,001,2025-10-16_20h53.12.379,HW_LDT_1,2024.2.4,MacIntel,123.4567901,,,,,,,,,,,,,,,,,,,,,,117.9782,118.1773,118.1775,118.6773,118.6783,120.0615,z,1,1.3696,,[],[],[],[],[],[],[],1.3696,1,120.0616,120.5615,0,4,4,10,1,1011,NW,"ID",16,inlade,INLADE,z,,,,,,,,,,,,,,,,,,,,,,,,,,,,,,,,,,,,,,,,,,,,,,,,,,,,,,,,,,,,,,,,,
,,,,31925,001,2025-10-16_20h53.12.379,HW_LDT_1,2024.2.4,MacIntel,123.4567901,,,,,,,,,,,,,,,,,,,,,,120.5626,120.7613,120.7613,121.2614,121.2621,122.1114,z,1,0.8333,,[],[],[],[],[],[],[],0.8333,1,122.1115,122.6114,0,5,5,8,1,1009,NW,"ID",33,aslert,ASLERT,z,,,,,,,,,,,,,,,,,,,,,,,,,,,,,,,,,,,,,,,,,,,,,,,,,,,,,,,,,,,,,,,,,
,,,,31925,001,2025-10-16_20h53.12.379,HW_LDT_1,2024.2.4,MacIntel,123.4567901,,,,,,,,,,,,,,,,,,,,,,122.6125,122.8109,122.811,123.3113,123.3117,123.978,m,1,0.6539,,[],[],[],[],[],[],[],0.6539,1,123.9782,124.4779,0,6,6,4,1,1005,WORD,UN,33,abound,SQUEAK,m,,,,,,,,,,,,,,,,,,,,,,,,,,,,,,,,,,,,,,,,,,,,,,,,,,,,,,,,,,,,,,,,,
,,,,31925,001,2025-10-16_20h53.12.379,HW_LDT_1,2024.2.4,MacIntel,123.4567901,,,,,,,,,,,,,,,,,,,,,,124.4789,124.6781,124.6781,125.178,125.1786,125.7771,m,1,0.5859,,[],[],[],[],[],[],[],0.5859,1,125.7772,126.2779,0,7,7,5,1,1006,WORD,UN,33,frenzy,OBTAIN,m,,,,,,,,,,,,,,,,,,,,,,,,,,,,,,,,,,,,,,,,,,,,,,,,,,,,,,,,,,,,,,,,,
,,,,31925,001,2025-10-16_20h53.12.379,HW_LDT_1,2024.2.4,MacIntel,123.4567901,,,,,,,,,,,,,,,,,,,,,,126.2787,126.477,126.4771,126.978,126.9787,127.7113,m,1,0.7173,,[],[],[],[],[],[],[],0.7173,1,127.7114,128.2113,0,8,8,3,1,1004,WORD,"ID",16,matrix,MATRIX,m,,,,,,,,,,,,,,,,,,,,,,,,,,,,,,,,,,,,,,,,,,,,,,,,,,,,,,,,,,,,,,,,,
,,,,31925,001,2025-10-16_20h53.12.379,HW_LDT_1,2024.2.4,MacIntel,123.4567901,,,,,,,,,,,,,,,,,,,,,,128.2121,128.4112,128.4114,128.9109,128.9116,129.5363,m,1,0.6129,,[],[],[],[],[],[],[],0.6129,1,129.5363,130.0363,0,9,9,0,1,1001,WORD,"ID",33,utopia,UTOPIA,m,,,,,,,,,,,,,,,,,,,,,,,,,,,,,,,,,,,,,,,,,,,,,,,,,,,,,,,,,,,,,,,,,
,,,,31925,001,2025-10-16_20h53.12.379,HW_LDT_1,2024.2.4,MacIntel,123.4567901,,,,,,,,,,,,,,,,,,,,,,130.037,130.2363,130.2363,130.7362,130.7369,131.4613,z,1,0.7135,,[],[],[],[],[],[],[],0.7135,1,131.4614,131.9613,0,10,10,12,1,1013,NW,UN,33,adveil,SPRINY,z,,,,,,,,,,,,,,,,,,,,,,,,,,,,,,,,,,,,,,,,,,,,,,,,,,,,,,,,,,,,,,,,,
,,,,31925,001,2025-10-16_20h53.12.379,HW_LDT_1,2024.2.4,MacIntel,123.4567901,,,,,,,,,,,,,,,,,,,,,,131.9624,132.1613,132.1613,132.6613,132.6623,133.2275,m,1,0.552,,[],[],[],[],[],[],[],0.552,1,133.2276,133.7282,0,11,11,1,1,1002,WORD,"ID",33,adjust,ADJUST,m,,,,,,,,,,,,,,,,,,,,,,,,,,,,,,,,,,,,,,,,,,,,,,,,,,,,,,,,,,,,,,,,,
,,,,31925,001,2025-10-16_20h53.12.379,HW_LDT_1,2024.2.4,MacIntel,123.4567901,,,,,,,,,,,,,,,,,,,,,,133.7293,133.9279,133.9279,134.4279,134.4287,135.1695,z,1,0.7285,,[],[],[],[],[],[],[],0.7285,1,135.1697,135.6696,0,12,12,14,1,1015,NW,UN,16,miaber,THRALE,z,,,,,,,,,,,,,,,,,,,,,,,,,,,,,,,,,,,,,,,,,,,,,,,,,,,,,,,,,,,,,,,,,
,,,,31925,001,2025-10-16_20h53.12.379,HW_LDT_1,2024.2.4,MacIntel,123.4567901,,,,,,,,,,,,,,,,,,,,,,135.6704,135.8692,135.8692,136.3697,136.3704,137.0186,z,1,0.6381,,[],[],[],[],[],[],[],0.6381,1,137.0189,137.5191,0,13,13,13,1,1014,NW,UN,33,winfer,ROUPET,z,,,,,,,,,,,,,,,,,,,,,,,,,,,,,,,,,,,,,,,,,,,,,,,,,,,,,,,,,,,,,,,,,
,,,,31925,001,2025-10-16_20h53.12.379,HW_LDT_1,2024.2.4,MacIntel,123.4567901,,,,,,,,,,,,,,,,,,,,,,137.5201,137.7192,137.7193,138.2196,138.2204,138.8778,m,1,0.6487,,[],[],[],[],[],[],[],0.6487,1,138.878,139.3779,0,14,14,7,1,1008,WORD,UN,16,hurdle,VOLUME,m,,,,,,,,,,,,,,,,,,,,,,,,,,,,,,,,,,,,,,,,,,,,,,,,,,,,,,,,,,,,,,,,,
,,,,31925,001,2025-10-16_20h53.12.379,HW_LDT_1,2024.2.4,MacIntel,123.4567901,,,,,,,,,,,,,,,,,,,,,,139.3787,139.578,139.578,140.0779,140.0785,140.778,z,1,0.6853,,[],[],[],[],[],[],[],0.6853,1,140.778,141.2771,0,15,15,9,1,1010,NW,"ID",33,fariny,FARINY,z,,,,,,,,,,,,,,,,,,,,,,,,,,,,,,,,,,,,,,,,,,,,,,,,,,,,,,,,,,,,,,,,,
,,,,31925,001,2025-10-16_20h53.12.379,HW_LDT_1,2024.2.4,MacIntel,123.4567901,,,,,,,,,,,,,,,1,end_of_practice,"You have completed the practice trials. During the experimental trials, you will not receive feedback. On some trials you will be asked to report whether the item you just saw was in cursive or print. 
Before you begin, please ensure that you are in a comfortable and quiet location and will not be disturbed for about 15 minutes, as we cannot use your data if you do not complete all the trials. 
 When you are ready to start the experimental trials, please press space or touch the button below.",,,,,,,,,,,,,,,,,,,,,,,,,,,,,,,,,,,,,,141.2808,165.878,,-0.042655491,-0.417683969,1,0,0,instr_done_button_3,0,0,0,0,1,,,,,,,,,,,,,,,,,,,,,,,,,,,,,,,,,,,,,,,,,,,,,,,,,,,
,,,,31925,001,2025-10-16_20h53.12.379,HW_LDT_1,2024.2.4,MacIntel,123.4567901,,,,,,,,,,,,,,,,,,,,,,165.882,166.0777,166.0777,166.5769,,,,,,,,,,,,,,1.3435,1,,,,,,,,,,,,,,z,,,,,,,,,,,,,,,1,0,166.5783,167.9283,z,1,1.3435,,[],[],[],[],[],[],[],167.9286,169.9278,169.9279,169.9302,[],[],[],[],[],[],[],,169.9304,169.9316,-0.042655491,-0.417683969,0,0,0,,0,0,0,11,1,1,RL,elacodate,print,elacodate_p.png,,,,,,
,,,,31925,001,2025-10-16_20h53.12.379,HW_LDT_1,2024.2.4,MacIntel,123.4567901,,,,,,,,,,,,,,,,,,,,,,169.9323,170.1281,170.1281,170.6278,,,,,,,,,,,,,,3.5431,1,,,,,,,,,,,,,,z,,,,,,,,,,,,,,,2,0,170.6284,174.1778,z,1,3.5431,,[],[],[],[],[],[],[],174.178,176.1778,176.1778,176.178,[],[],[],[],[],[],[],,176.1781,176.1781,-0.042655491,-0.417683969,0,0,0,,0,1,1,50,1,1,TL,condiser,cursive,condiser_c.png,,,,,,
,,,,31925,001,2025-10-16_20h53.12.379,HW_LDT_1,2024.2.4,MacIntel,123.4567901,,,,,,,,,,,,,,,,,,,,,,176.179,176.3777,176.3777,176.8777,,,,,,,,,,,,,,0.7692,1,,,,,,,,,,,,,,m,,,,,,,,,,,,,,,3,1,176.8782,177.6527,m,1,0.7692,,[],[],[],[],[],[],[],177.6528,179.6518,179.6519,182.0691,[],[],[],[],[],[],[],m,182.0692,182.0693,-0.042655491,-0.417683969,0,0,0,,0,2,2,136,1,1,word,RADICAL,print,radical_p.png,2.4136,,,,,
,,,,31925,001,2025-10-16_20h53.12.379,HW_LDT_1,2024.2.4,MacIntel,123.4567901,,,,,,,,,,,,,,,,,,,,,,182.0704,182.2694,182.2694,182.7693,,,,,,,,,,,,,,0.7687,1,,,,,,,,,,,,,,z,,,,,,,,,,,,,,,4,1,182.7697,183.5448,z,1,0.7687,,[],[],[],[],[],[],[],183.5449,185.5435,185.5436,187.2029,[],[],[],[],[],[],[],m,187.203,187.2031,-0.042655491,-0.417683969,0,0,0,,0,3,3,32,1,1,RL,rebicent,print,rebicent_p.png,1.6535,,,,,
,,,,31925,001,2025-10-16_20h53.12.379,HW_LDT_1,2024.2.4,MacIntel,123.4567901,,,,,,,,,,,,,,,,,,,,,,187.204,187.4026,187.4027,187.9019,,,,,,,,,,,,,,1.1632,1,,,,,,,,,,,,,,m,,,,,,,,,,,,,,,5,0,187.9026,189.0693,m,1,1.1632,,[],[],[],[],[],[],[],189.0694,191.0695,191.0695,191.0697,[],[],[],[],[],[],[],,191.0698,191.0699,-0.042655491,-0.417683969,0,0,0,,0,4,4,145,1,1,word,RESUME,print,resume_p.png,,,,,,
,,,,31925,001,2025-10-16_20h53.12.379,HW_LDT_1,2024.2.4,MacIntel,123.4567901,,,,,,,,,,,,,,,,,,,,,,191.0709,191.2693,191.2693,191.7695,,,,,,,,,,,,,,0.7941,1,,,,,,,,,,,,,,m,,,,,,,,,,,,,,,6,0,191.77,192.5694,m,1,0.7941,,[],[],[],[],[],[],[],192.5695,194.5686,194.5687,194.569,[],[],[],[],[],[],[],,194.569,194.5691,-0.042655491,-0.417683969,0,0,0,,0,5,5,97,1,1,word,COVERAGE,print,coverage_p.png,,,,,,
,,,,31925,001,2025-10-16_20h53.12.379,HW_LDT_1,2024.2.4,MacIntel,123.4567901,,,,,,,,,,,,,,,,,,,,,,194.5699,194.7694,194.7694,195.2692,,,,,,,,,,,,,,4.3523,0,,,,,,,,,,,,,,z,,,,,,,,,,,,,,,7,0,195.2696,199.6268,m,0,4.3523,,[],[],[],[],[],[],[],199.6269,201.6276,201.6277,201.6278,[],[],[],[],[],[],[],,201.6279,201.628,-0.042655491,-0.417683969,0,0,0,,0,6,6,65,1,1,TL,orinigal,cursive,orinigal_c.png,,,,,,
,,,,31925,001,2025-10-16_20h53.12.379,HW_LDT_1,2024.2.4,MacIntel,123.4567901,,,,,,,,,,,,,,,,,,,,,,201.6291,201.8276,201.8276,202.3268,,,,,,,,,,,,,,2.4212,1,,,,,,,,,,,,,,z,,,,,,,,,,,,,,,8,0,202.3272,204.7529,z,1,2.4212,,[],[],[],[],[],[],[],204.753,206.7528,206.7528,206.753,[],[],[],[],[],[],[],,206.753,206.753,-0.042655491,-0.417683969,0,0,0,,0,7,7,39,1,1,RL,vabifity,cursive,vabifity_c.png,,,,,,
,,,,31925,001,2025-10-16_20h53.12.379,HW_LDT_1,2024.2.4,MacIntel,123.4567901,,,,,,,,,,,,,,,,,,,,,,206.754,206.9527,206.9528,207.4521,,,,,,,,,,,,,,0.7954,1,,,,,,,,,,,,,,z,,,,,,,,,,,,,,,9,0,207.4525,208.2526,z,1,0.7954,,[],[],[],[],[],[],[],208.2527,210.2528,210.2528,210.253,[],[],[],[],[],[],[],,210.2531,210.2531,-0.042655491,-0.417683969,0,0,0,,0,8,8,22,1,1,RL,patisic,print,patisic_p.png,,,,,,
,,,,31925,001,2025-10-16_20h53.12.379,HW_LDT_1,2024.2.4,MacIntel,123.4567901,,,,,,,,,,,,,,,,,,,,,,210.254,210.4527,210.4528,210.9526,,,,,,,,,,,,,,4.1035,1,,,,,,,,,,,,,,z,,,,,,,,,,,,,,,10,0,210.9532,215.0606,z,1,4.1035,,[],[],[],[],[],[],[],215.0607,217.061,217.061,217.0612,[],[],[],[],[],[],[],,217.0612,217.0614,-0.042655491,-0.417683969,0,0,0,,0,9,9,54,1,1,TL,distupe,cursive,distupe_c.png,,,,,,
,,,,31925,001,2025-10-16_20h53.12.379,HW_LDT_1,2024.2.4,MacIntel,123.4567901,,,,,,,,,,,,,,,,,,,,,,217.0623,217.26,217.2601,217.761,,,,,,,,,,,,,,2.6783,1,,,,,,,,,,,,,,z,,,,,,,,,,,,,,,11,0,217.7613,220.444,z,1,2.6783,,[],[],[],[],[],[],[],220.444,222.4444,222.4444,222.4445,[],[],[],[],[],[],[],,222.4445,222.4447,-0.042655491,-0.417683969,0,0,0,,0,10,10,71,1,1,TL,regilion,cursive,regilion_c.png,,,,,,
,,,,31925,001,2025-10-16_20h53.12.379,HW_LDT_1,2024.2.4,MacIntel,123.4567901,,,,,,,,,,,,,,,,,,,,,,222.4457,222.6444,222.6444,223.1444,,,,,,,,,,,,,,0.8656,1,,,,,,,,,,,,,,z,,,,,,,,,,,,,,,12,0,223.1447,224.0112,z,1,0.8656,,[],[],[],[],[],[],[],224.0113,226.0109,226.0109,226.011,[],[],[],[],[],[],[],,226.011,226.0111,-0.042655491,-0.417683969,0,0,0,,0,11,11,40,1,1,TL,atameur,print,atameur_p.png,,,,,,
,,,,31925,001,2025-10-16_20h53.12.379,HW_LDT_1,2024.2.4,MacIntel,123.4567901,,,,,,,,,,,,,,,,,,,,,,226.0117,226.2107,226.2107,226.7106,,,,,,,,,,,,,,0.6448,1,,,,,,,,,,,,,,m,,,,,,,,,,,,,,,13,0,226.7109,227.361,m,1,0.6448,,[],[],[],[],[],[],[],227.3611,229.3609,229.361,229.3611,[],[],[],[],[],[],[],,229.3611,229.3612,-0.042655491,-0.417683969,0,0,0,,0,12,12,123,1,1,word,MODERATE,print,moderate_p.png,,,,,,
,,,,31925,001,2025-10-16_20h53.12.379,HW_LDT_1,2024.2.4,MacIntel,123.4567901,,,,,,,,,,,,,,,,,,,,,,229.362,229.5604,229.5605,230.0605,,,,,,,,,,,,,,2.4369,1,,,,,,,,,,,,,,m,,,,,,,,,,,,,,,14,1,230.061,232.5026,m,1,2.4369,,[],[],[],[],[],[],[],232.5026,234.5025,234.5026,235.7608,[],[],[],[],[],[],[],z,235.7609,235.761,-0.042655491,-0.417683969,0,0,0,,0,13,13,93,1,1,word,CEREMONY,cursive,ceremony_c.png,1.2562,,,,,
,,,,31925,001,2025-10-16_20h53.12.379,HW_LDT_1,2024.2.4,MacIntel,123.4567901,,,,,,,,,,,,,,,,,,,,,,235.7617,235.9609,235.9609,236.4609,,,,,,,,,,,,,,0.8655,1,,,,,,,,,,,,,,z,,,,,,,,,,,,,,,15,0,236.4613,237.3274,z,1,0.8655,,[],[],[],[],[],[],[],237.3275,239.3275,239.3275,239.3278,[],[],[],[],[],[],[],,239.3278,239.3279,-0.042655491,-0.417683969,0,0,0,,0,14,14,37,1,1,RL,skofen,print,skofen_p.png,,,,,,
,,,,31925,001,2025-10-16_20h53.12.379,HW_LDT_1,2024.2.4,MacIntel,123.4567901,,,,,,,,,,,,,,,,,,,,,,239.3288,239.527,239.527,240.0276,,,,,,,,,,,,,,2.5819,0,,,,,,,,,,,,,,m,,,,,,,,,,,,,,,16,0,240.028,242.615,z,0,2.5819,,[],[],[],[],[],[],[],242.615,244.6149,244.6149,244.6151,[],[],[],[],[],[],[],,244.6152,244.6153,-0.042655491,-0.417683969,0,0,0,,0,15,15,105,1,1,word,EDITOR,cursive,editor_c.png,,,,,,
,,,,31925,001,2025-10-16_20h53.12.379,HW_LDT_1,2024.2.4,MacIntel,123.4567901,,,,,,,,,,,,,,,,,,,,,,244.616,244.815,244.8151,245.315,,,,,,,,,,,,,,0.8454,1,,,,,,,,,,,,,,m,,,,,,,,,,,,,,,17,0,245.3154,246.1649,m,1,0.8454,,[],[],[],[],[],[],[],246.165,248.165,248.165,248.1652,[],[],[],[],[],[],[],,248.1653,248.1653,-0.042655491,-0.417683969,0,0,0,,0,16,16,107,1,1,word,EVIDENT,print,evident_p.png,,,,,,
,,,,31925,001,2025-10-16_20h53.12.379,HW_LDT_1,2024.2.4,MacIntel,123.4567901,,,,,,,,,,,,,,,,,,,,,,248.1662,248.3641,248.3641,248.8651,,,,,,,,,,,,,,2.0869,1,,,,,,,,,,,,,,z,,,,,,,,,,,,,,,18,0,248.8654,250.9567,z,1,2.0869,,[],[],[],[],[],[],[],250.9568,252.9566,252.9567,252.9568,[],[],[],[],[],[],[],,252.9569,252.957,-0.042655491,-0.417683969,0,0,0,,0,17,17,79,1,1,TL,veretan,print,veretan_p.png,,,,,,
,,,,31925,001,2025-10-16_20h53.12.379,HW_LDT_1,2024.2.4,MacIntel,123.4567901,,,,,,,,,,,,,,,,,,,,,,252.9576,253.156,253.156,253.6566,,,,,,,,,,,,,,1.6455,1,,,,,,,,,,,,,,m,,,,,,,,,,,,,,,19,1,253.6571,255.3067,m,1,1.6455,,[],[],[],[],[],[],[],255.3067,257.3066,257.3066,258.6734,[],[],[],[],[],[],[],z,258.6734,258.6735,-0.042655491,-0.417683969,0,0,0,,0,18,18,119,1,1,word,MEMORY,cursive,memory_c.png,1.3623,,,,,
,,,,31925,001,2025-10-16_20h53.12.379,HW_LDT_1,2024.2.4,MacIntel,123.4567901,,,,,,,,,,,,,,,,,,,,,,258.6744,258.8732,258.8733,259.3733,,,,,,,,,,,,,,0.8536,1,,,,,,,,,,,,,,z,,,,,,,,,,,,,,,20,0,259.3737,260.2315,z,1,0.8536,,[],[],[],[],[],[],[],260.2316,262.2317,262.2317,262.2319,[],[],[],[],[],[],[],,262.232,262.2321,-0.042655491,-0.417683969,0,0,0,,0,19,19,55,1,1,TL,fornute,print,fornute_p.png,,,,,,
,,,,31925,001,2025-10-16_20h53.12.379,HW_LDT_1,2024.2.4,MacIntel,123.4567901,,,,,,,,,,,,,,,,,,,,,,262.233,262.4315,262.4317,262.9313,,,,,,,,,,,,,,0.9186,1,,,,,,,,,,,,,,z,,,,,,,,,,,,,,,21,0,262.9318,263.8567,z,1,0.9186,,[],[],[],[],[],[],[],263.8568,265.8564,265.8564,265.8565,[],[],[],[],[],[],[],,265.8565,265.8565,-0.042655491,-0.417683969,0,0,0,,0,20,20,14,1,1,RL,lofase,print,lofase_p.png,,,,,,
,,,,31925,001,2025-10-16_20h53.12.379,HW_LDT_1,2024.2.4,MacIntel,123.4567901,,,,,,,,,,,,,,,,,,,,,,265.857,266.0564,266.0564,266.5567,,,,,,,,,,,,,,3.4026,1,,,,,,,,,,,,,,z,,,,,,,,,,,,,,,22,0,266.5571,269.9646,z,1,3.4026,,[],[],[],[],[],[],[],269.9647,271.9649,271.9649,271.9652,[],[],[],[],[],[],[],,271.9652,271.9653,-0.042655491,-0.417683969,0,0,0,,0,21,21,53,1,1,TL,dentisy,cursive,dentisy_c.png,,,,,,
,,,,31925,001,2025-10-16_20h53.12.379,HW_LDT_1,2024.2.4,MacIntel,123.4567901,,,,,,,,,,,,,,,,,,,,,,271.966,272.164,272.1641,272.6649,,,,,,,,,,,,,,0.6786,1,,,,,,,,,,,,,,z,,,,,,,,,,,,,,,23,0,272.6652,273.3484,z,1,0.6786,,[],[],[],[],[],[],[],273.3484,275.3482,275.3483,275.3484,[],[],[],[],[],[],[],,275.3484,275.3485,-0.042655491,-0.417683969,0,0,0,,0,22,22,12,1,1,RL,ebiwent,print,ebiwent_p.png,,,,,,
,,,,31925,001,2025-10-16_20h53.12.379,HW_LDT_1,2024.2.4,MacIntel,123.4567901,,,,,,,,,,,,,,,,,,,,,,275.3493,275.5473,275.5473,276.0483,,,,,,,,,,,,,,0.7528,1,,,,,,,,,,,,,,m,,,,,,,,,,,,,,,24,0,276.0488,276.8066,m,1,0.7528,,[],[],[],[],[],[],[],276.8067,278.8067,278.8068,278.8069,[],[],[],[],[],[],[],,278.8069,278.807,-0.042655491,-0.417683969,0,0,0,,0,23,23,120,1,1,word,MILITARY,print,military_p.png,,,,,,
,,,,31925,001,2025-10-16_20h53.12.379,HW_LDT_1,2024.2.4,MacIntel,123.4567901,,,,,,,,,,,,,,,,,,,,,,278.8079,279.0065,279.0066,279.5066,,,,,,,,,,,,,,6.1215,0,,,,,,,,,,,,,,m,,,,,,,,,,,,,,,25,0,279.5069,285.6318,z,0,6.1215,,[],[],[],[],[],[],[],285.6318,287.6315,287.6315,287.6316,[],[],[],[],[],[],[],,287.6316,287.6317,-0.042655491,-0.417683969,0,0,0,,0,24,24,110,1,1,word,HERITAGE,cursive,heritage_c.png,,,,,,
,,,,31925,001,2025-10-16_20h53.12.379,HW_LDT_1,2024.2.4,MacIntel,123.4567901,,,,,,,,,,,,,,,,,,,,,,287.6324,287.8306,287.8307,288.3316,,,,,,,,,,,,,,0.628,1,,,,,,,,,,,,,,m,,,,,,,,,,,,,,,26,0,288.3321,288.9648,m,1,0.628,,[],[],[],[],[],[],[],288.9648,290.965,290.965,290.9652,[],[],[],[],[],[],[],,290.9652,290.9654,-0.042655491,-0.417683969,0,0,0,,0,25,25,100,1,1,word,DECADE,print,decade_p.png,,,,,,
,,,,31925,001,2025-10-16_20h53.12.379,HW_LDT_1,2024.2.4,MacIntel,123.4567901,,,,,,,,,,,,,,,,,,,,,,290.9662,291.1649,291.165,291.6649,,,,,,,,,,,,,,1.1524,1,,,,,,,,,,,,,,m,,,,,,,,,,,,,,,27,0,291.6654,292.8223,m,1,1.1524,,[],[],[],[],[],[],[],292.8224,294.8232,294.8232,294.8234,[],[],[],[],[],[],[],,294.8235,294.8236,-0.042655491,-0.417683969,0,0,0,,0,26,26,115,1,1,word,LOGICAL,cursive,logical_c.png,,,,,,
,,,,31925,001,2025-10-16_20h53.12.379,HW_LDT_1,2024.2.4,MacIntel,123.4567901,,,,,,,,,,,,,,,,,,,,,,294.8244,295.0231,295.0231,295.523,,,,,,,,,,,,,,0.9493,1,,,,,,,,,,,,,,m,,,,,,,,,,,,,,,28,0,295.5234,296.4735,m,1,0.9493,,[],[],[],[],[],[],[],296.4736,298.4731,298.4731,298.4732,[],[],[],[],[],[],[],,298.4733,298.4733,-0.042655491,-0.417683969,0,0,0,,0,27,27,146,1,1,word,RETIRE,cursive,retire_c.png,,,,,,
,,,,31925,001,2025-10-16_20h53.12.379,HW_LDT_1,2024.2.4,MacIntel,123.4567901,,,,,,,,,,,,,,,,,,,,,,298.4742,298.6732,298.6732,299.173,,,,,,,,,,,,,,1.2869,1,,,,,,,,,,,,,,m,,,,,,,,,,,,,,,29,0,299.1732,300.4646,m,1,1.2869,,[],[],[],[],[],[],[],300.4647,302.4647,302.4648,302.4649,[],[],[],[],[],[],[],,302.465,302.465,-0.042655491,-0.417683969,0,0,0,,0,28,28,116,1,1,word,MARGINAL,print,marginal_p.png,,,,,,
,,,,31925,001,2025-10-16_20h53.12.379,HW_LDT_1,2024.2.4,MacIntel,123.4567901,,,,,,,,,,,,,,,,,,,,,,302.4658,302.6649,302.6649,303.1648,,,,,,,,,,,,,,0.9824,1,,,,,,,,,,,,,,z,,,,,,,,,,,,,,,30,0,303.1652,304.1484,z,1,0.9824,,[],[],[],[],[],[],[],304.1484,306.1482,306.1483,306.1484,[],[],[],[],[],[],[],,306.1485,306.1486,-0.042655491,-0.417683969,0,0,0,,0,29,29,29,1,1,RL,refakive,cursive,refakive_c.png,,,,,,
,,,,31925,001,2025-10-16_20h53.12.379,HW_LDT_1,2024.2.4,MacIntel,123.4567901,,,,,,,,,,,,,,,,,,,,,,306.1496,306.3475,306.3475,306.8481,,,,,,,,,,,,,,5.5283,1,,,,,,,,,,,,,,z,,,,,,,,,,,,,,,31,0,306.8483,312.3807,z,1,5.5283,,[],[],[],[],[],[],[],312.3807,314.3805,314.3807,314.3808,[],[],[],[],[],[],[],,314.3809,314.381,-0.042655491,-0.417683969,0,0,0,,0,30,30,45,1,1,TL,cacapity,print,cacapity_p.png,,,,,,
,,,,31925,001,2025-10-16_20h53.12.379,HW_LDT_1,2024.2.4,MacIntel,123.4567901,,,,,,,,,,,,,,,,,,,,,,314.3823,314.5816,314.5816,315.0811,,,,,,,,,,,,,,2.7619,1,,,,,,,,,,,,,,z,,,,,,,,,,,,,,,32,0,315.0815,317.8481,z,1,2.7619,,[],[],[],[],[],[],[],317.8481,319.8479,319.848,319.8481,[],[],[],[],[],[],[],,319.8481,319.8482,-0.042655491,-0.417683969,0,0,0,,0,31,31,0,1,1,RL,abanemy,cursive,abanemy_c.png,,,,,,
,,,,31925,001,2025-10-16_20h53.12.379,HW_LDT_1,2024.2.4,MacIntel,123.4567901,,,,,,,,,,,,,,,,,,,,,,319.849,320.0482,320.0483,320.5481,,,,,,,,,,,,,,0.8928,1,,,,,,,,,,,,,,m,,,,,,,,,,,,,,,33,0,320.5486,321.4478,m,1,0.8928,,[],[],[],[],[],[],[],321.4479,323.447,323.4471,323.4472,[],[],[],[],[],[],[],,323.4472,323.4472,-0.042655491,-0.417683969,0,0,0,,0,32,32,132,1,1,word,PROPOSAL,cursive,proposal_c.png,,,,,,
,,,,31925,001,2025-10-16_20h53.12.379,HW_LDT_1,2024.2.4,MacIntel,123.4567901,,,,,,,,,,,,,,,,,,,,,,323.4479,323.6479,323.648,324.1481,,,,,,,,,,,,,,3.6872,1,,,,,,,,,,,,,,z,,,,,,,,,,,,,,,34,0,324.1484,327.8397,z,1,3.6872,,[],[],[],[],[],[],[],327.8399,329.8397,329.8398,329.8399,[],[],[],[],[],[],[],,329.8399,329.8401,-0.042655491,-0.417683969,0,0,0,,0,33,33,20,1,1,RL,nunewical,print,nunewical_p.png,,,,,,
,,,,31925,001,2025-10-16_20h53.12.379,HW_LDT_1,2024.2.4,MacIntel,123.4567901,,,,,,,,,,,,,,,,,,,,,,329.841,330.0389,330.0389,330.5398,,,,,,,,,,,,,,1.2531,1,,,,,,,,,,,,,,z,,,,,,,,,,,,,,,35,0,330.5404,331.7981,z,1,1.2531,,[],[],[],[],[],[],[],331.7982,333.798,333.798,333.7982,[],[],[],[],[],[],[],,333.7982,333.7983,-0.042655491,-0.417683969,0,0,0,,0,34,34,24,1,1,RL,probice,print,probice_p.png,,,,,,
,,,,31925,001,2025-10-16_20h53.12.379,HW_LDT_1,2024.2.4,MacIntel,123.4567901,,,,,,,,,,,,,,,,,,,,,,333.7992,333.9978,333.998,334.4979,,,,,,,,,,,,,,3.0532,0,,,,,,,,,,,,,,m,,,,,,,,,,,,,,,36,0,334.4984,337.5563,z,0,3.0532,,[],[],[],[],[],[],[],337.5564,339.5563,339.5564,339.5565,[],[],[],[],[],[],[],,339.5565,339.5566,-0.042655491,-0.417683969,0,0,0,,0,35,35,111,1,1,word,INDICATE,cursive,indicate_c.png,,,,,,
,,,,31925,001,2025-10-16_20h53.12.379,HW_LDT_1,2024.2.4,MacIntel,123.4567901,,,,,,,,,,,,,,,,,,,,,,339.5576,339.7562,339.7563,340.2564,,,,,,,,,,,,,,2.3115,1,,,,,,,,,,,,,,m,,,,,,,,,,,,,,,37,0,340.2569,342.5731,m,1,2.3115,,[],[],[],[],[],[],[],342.5731,344.573,344.573,344.5732,[],[],[],[],[],[],[],,344.5733,344.5733,-0.042655491,-0.417683969,0,0,0,,0,36,36,118,1,1,word,MEDICINE,cursive,medicine_c.png,,,,,,
,,,,31925,001,2025-10-16_20h53.12.379,HW_LDT_1,2024.2.4,MacIntel,123.4567901,,,,,,,,,,,,,,,,,,,,,,344.5743,344.7731,344.7731,345.273,,,,,,,,,,,,,,2.7025,1,,,,,,,,,,,,,,m,,,,,,,,,,,,,,,38,0,345.2733,347.9805,m,1,2.7025,,[],[],[],[],[],[],[],347.9806,349.9813,349.9814,349.9815,[],[],[],[],[],[],[],,349.9816,349.9817,-0.042655491,-0.417683969,0,0,0,,0,37,37,139,1,1,word,REGULAR,print,regular_p.png,,,,,,
,,,,31925,001,2025-10-16_20h53.12.379,HW_LDT_1,2024.2.4,MacIntel,123.4567901,,,,,,,,,,,,,,,,,,,,,,349.9827,350.1813,350.1814,350.6812,,,,,,,,,,,,,,2.671,1,,,,,,,,,,,,,,z,,,,,,,,,,,,,,,39,0,350.6816,353.3563,z,1,2.671,,[],[],[],[],[],[],[],353.3564,355.3558,355.356,355.3562,[],[],[],[],[],[],[],,355.3562,355.3563,-0.042655491,-0.417683969,0,0,0,,0,38,38,52,1,1,TL,decilate,cursive,decilate_c.png,,,,,,
,,,,31925,001,2025-10-16_20h53.12.379,HW_LDT_1,2024.2.4,MacIntel,123.4567901,,,,,,,,,,,,,,,,,,,,,,355.357,355.5563,355.5563,356.0564,,,,,,,,,,,,,,0.9034,1,,,,,,,,,,,,,,z,,,,,,,,,,,,,,,40,0,356.0568,356.9645,z,1,0.9034,,[],[],[],[],[],[],[],356.9647,358.9646,358.9646,358.9648,[],[],[],[],[],[],[],,358.9648,358.9649,-0.042655491,-0.417683969,0,0,0,,0,39,39,5,1,1,RL,cobeny,cursive,cobeny_c.png,,,,,,
,,,,31925,001,2025-10-16_20h53.12.379,HW_LDT_1,2024.2.4,MacIntel,123.4567901,,,,,,,,,,,,,,,,,,,,,,358.9658,359.1647,359.1647,359.6648,,,,,,,,,,,,,,1.2525,1,,,,,,,,,,,,,,m,,,,,,,,,,,,,,,41,0,359.6653,360.9221,m,1,1.2525,,[],[],[],[],[],[],[],360.9222,362.923,362.923,362.9232,[],[],[],[],[],[],[],,362.9232,362.9232,-0.042655491,-0.417683969,0,0,0,,0,40,40,154,1,1,word,STORAGE,cursive,storage_c.png,,,,,,
,,,,31925,001,2025-10-16_20h53.12.379,HW_LDT_1,2024.2.4,MacIntel,123.4567901,,,,,,,,,,,,,,,,,,,,,,362.9238,363.123,363.123,363.622,,,,,,,,,,,,,,0.7105,1,,,,,,,,,,,,,,m,,,,,,,,,,,,,,,42,0,363.6225,364.3397,m,1,0.7105,,[],[],[],[],[],[],[],364.3398,366.3395,366.3395,366.3396,[],[],[],[],[],[],[],,366.3396,366.3397,-0.042655491,-0.417683969,0,0,0,,0,41,41,159,1,1,word,VETERAN,print,veteran_p.png,,,,,,
,,,,31925,001,2025-10-16_20h53.12.379,HW_LDT_1,2024.2.4,MacIntel,123.4567901,,,,,,,,,,,,,,,,,,,,,,366.3405,366.5398,366.5398,367.0387,,,,,,,,,,,,,,0.5875,1,,,,,,,,,,,,,,m,,,,,,,,,,,,,,,43,1,367.0391,367.6315,m,1,0.5875,,[],[],[],[],[],[],[],367.6317,369.6313,369.6313,370.6979,[],[],[],[],[],[],[],m,370.6979,370.698,-0.042655491,-0.417683969,0,0,0,,0,42,42,86,1,1,word,BESIDE,print,beside_p.png,1.0641,,,,,
,,,,31925,001,2025-10-16_20h53.12.379,HW_LDT_1,2024.2.4,MacIntel,123.4567901,,,,,,,,,,,,,,,,,,,,,,370.6988,370.8979,370.8979,371.3979,,,,,,,,,,,,,,2.2286,1,,,,,,,,,,,,,,m,,,,,,,,,,,,,,,44,0,371.3982,373.6312,m,1,2.2286,,[],[],[],[],[],[],[],373.6313,375.6313,375.6314,375.6315,[],[],[],[],[],[],[],,375.6316,375.6316,-0.042655491,-0.417683969,0,0,0,,0,43,43,155,1,1,word,STRATEGY,cursive,strategy_c.png,,,,,,
,,,,31925,001,2025-10-16_20h53.12.379,HW_LDT_1,2024.2.4,MacIntel,123.4567901,,,,,,,,,,,,,,,,,,,,,,375.6327,375.8312,375.8312,376.3303,,,,,,,,,,,,,,0.7812,1,,,,,,,,,,,,,,m,,,,,,,,,,,,,,,45,0,376.3308,377.1126,m,1,0.7812,,[],[],[],[],[],[],[],377.1127,379.1136,379.1136,379.1137,[],[],[],[],[],[],[],,379.1137,379.1138,-0.042655491,-0.417683969,0,0,0,,0,44,44,133,1,1,word,PROVIDE,print,provide_p.png,,,,,,
,,,,31925,001,2025-10-16_20h53.12.379,HW_LDT_1,2024.2.4,MacIntel,123.4567901,,,,,,,,,,,,,,,,,,,,,,379.1147,379.3137,379.3138,379.8136,,,,,,,,,,,,,,0.7035,1,,,,,,,,,,,,,,m,,,,,,,,,,,,,,,46,1,379.8141,380.5228,m,1,0.7035,,[],[],[],[],[],[],[],380.5229,382.523,382.5231,383.9731,[],[],[],[],[],[],[],m,383.9731,383.9731,-0.042655491,-0.417683969,0,0,0,,0,45,45,138,1,1,word,REFUSAL,print,refusal_p.png,1.4495,,,,,
,,,,31925,001,2025-10-16_20h53.12.379,HW_LDT_1,2024.2.4,MacIntel,123.4567901,,,,,,,,,,,,,,,,,,,,,,383.9739,384.1729,384.1729,384.6729,,,,,,,,,,,,,,1.2489,1,,,,,,,,,,,,,,m,,,,,,,,,,,,,,,47,0,384.6733,385.9231,m,1,1.2489,,[],[],[],[],[],[],[],385.9233,387.9219,387.9219,387.9221,[],[],[],[],[],[],[],,387.9221,387.9222,-0.042655491,-0.417683969,0,0,0,,0,46,46,124,1,1,word,NUMERICAL,print,numerical_p.png,,,,,,
,,,,31925,001,2025-10-16_20h53.12.379,HW_LDT_1,2024.2.4,MacIntel,123.4567901,,,,,,,,,,,,,,,,,,,,,,387.9232,388.1227,388.1228,388.6229,,,,,,,,,,,,,,1.7904,1,,,,,,,,,,,,,,m,,,,,,,,,,,,,,,48,0,388.6233,390.4144,m,1,1.7904,,[],[],[],[],[],[],[],390.4145,392.4145,392.4145,392.4147,[],[],[],[],[],[],[],,392.4147,392.4147,-0.042655491,-0.417683969,0,0,0,,0,47,47,156,1,1,word,TRIBUTE,cursive,tribute_c.png,,,,,,
,,,,31925,001,2025-10-16_20h53.12.379,HW_LDT_1,2024.2.4,MacIntel,123.4567901,,,,,,,,,,,,,,,,,,,,,,392.4156,392.6145,392.6146,393.114,,,,,,,,,,,,,,0.6555,1,,,,,,,,,,,,,,m,,,,,,,,,,,,,,,49,0,393.1145,393.7725,m,1,0.6555,,[],[],[],[],[],[],[],393.7726,395.7721,395.7721,395.7722,[],[],[],[],[],[],[],,395.7723,395.7723,-0.042655491,-0.417683969,0,0,0,,0,48,48,92,1,1,word,CATEGORY,print,category_p.png,,,,,,
,,,,31925,001,2025-10-16_20h53.12.379,HW_LDT_1,2024.2.4,MacIntel,123.4567901,,,,,,,,,,,,,,,,,,,,,,395.7731,395.9728,395.9728,396.4728,,,,,,,,,,,,,,0.7951,1,,,,,,,,,,,,,,z,,,,,,,,,,,,,,,50,0,396.4732,397.2728,z,1,0.7951,,[],[],[],[],[],[],[],397.273,399.2728,399.2728,399.2729,[],[],[],[],[],[],[],,399.2729,399.2731,-0.042655491,-0.417683969,0,0,0,,0,49,49,51,1,1,TL,corevage,print,corevage_p.png,,,,,,
,,,,31925,001,2025-10-16_20h53.12.379,HW_LDT_1,2024.2.4,MacIntel,123.4567901,,,,,,,,,,,,,,,,,,,,,,399.2737,399.4728,399.4728,399.9728,,,,,,,,,,,,,,1.0283,1,,,,,,,,,,,,,,z,,,,,,,,,,,,,,,51,0,399.9734,401.0063,z,1,1.0283,,[],[],[],[],[],[],[],401.0064,403.0061,403.0062,403.0063,[],[],[],[],[],[],[],,403.0064,403.0065,-0.042655491,-0.417683969,0,0,0,,0,50,50,19,1,1,RL,monebate,print,monebate_p.png,,,,,,
,,,,31925,001,2025-10-16_20h53.12.379,HW_LDT_1,2024.2.4,MacIntel,123.4567901,,,,,,,,,,,,,,,,,,,,,,403.0075,403.2063,403.2064,403.7062,,,,,,,,,,,,,,1.3868,1,,,,,,,,,,,,,,z,,,,,,,,,,,,,,,52,0,403.7064,405.0976,z,1,1.3868,,[],[],[],[],[],[],[],405.0977,407.0978,407.0978,407.098,[],[],[],[],[],[],[],,407.098,407.098,-0.042655491,-0.417683969,0,0,0,,0,51,51,10,1,1,RL,efibor,cursive,efibor_c.png,,,,,,
,,,,31925,001,2025-10-16_20h53.12.379,HW_LDT_1,2024.2.4,MacIntel,123.4567901,,,,,,,,,,,,,,,,,,,,,,407.0986,407.2979,407.2979,407.7976,,,,,,,,,,,,,,2.3528,1,,,,,,,,,,,,,,z,,,,,,,,,,,,,,,53,0,407.798,410.1561,z,1,2.3528,,[],[],[],[],[],[],[],410.1562,412.1551,412.1552,412.1554,[],[],[],[],[],[],[],,412.1554,412.1554,-0.042655491,-0.417683969,0,0,0,,0,52,52,15,1,1,RL,losipal,cursive,losipal_c.png,,,,,,
,,,,31925,001,2025-10-16_20h53.12.379,HW_LDT_1,2024.2.4,MacIntel,123.4567901,,,,,,,,,,,,,,,,,,,,,,412.1563,412.3551,412.3551,412.8563,,,,,,,,,,,,,,1.435,0,,,,,,,,,,,,,,m,,,,,,,,,,,,,,,54,0,412.8568,414.2978,z,0,1.435,,[],[],[],[],[],[],[],414.298,416.2976,416.2976,416.2978,[],[],[],[],[],[],[],,416.2978,416.2978,-0.042655491,-0.417683969,0,0,0,,0,53,53,149,1,1,word,SENATOR,cursive,senator_c.png,,,,,,
,,,,31925,001,2025-10-16_20h53.12.379,HW_LDT_1,2024.2.4,MacIntel,123.4567901,,,,,,,,,,,,,,,,,,,,,,416.2986,416.4978,416.4979,416.9977,,,,,,,,,,,,,,4.1532,1,,,,,,,,,,,,,,z,,,,,,,,,,,,,,,55,0,416.998,421.1556,z,1,4.1532,,[],[],[],[],[],[],[],421.1557,423.1561,423.1561,423.1563,[],[],[],[],[],[],[],,423.1563,423.1563,-0.042655491,-0.417683969,0,0,0,,0,54,54,57,1,1,TL,hetirage,cursive,hetirage_c.png,,,,,,
,,,,31925,001,2025-10-16_20h53.12.379,HW_LDT_1,2024.2.4,MacIntel,123.4567901,,,,,,,,,,,,,,,,,,,,,,423.1572,423.3561,423.3561,423.856,,,,,,,,,,,,,,3.9521,1,,,,,,,,,,,,,,z,,,,,,,,,,,,,,,56,1,423.8564,427.8145,z,1,3.9521,,[],[],[],[],[],[],[],427.8145,429.8134,429.8134,430.8061,[],[],[],[],[],[],[],z,430.8061,430.8063,-0.042655491,-0.417683969,0,0,0,,0,55,55,17,1,1,RL,menowy,cursive,menowy_c.png,0.9886,,,,,
,,,,31925,001,2025-10-16_20h53.12.379,HW_LDT_1,2024.2.4,MacIntel,123.4567901,,,,,,,,,,,,,,,,,,,,,,430.8074,431.0059,431.006,431.5061,,,,,,,,,,,,,,0.8396,1,,,,,,,,,,,,,,m,,,,,,,,,,,,,,,57,0,431.5064,432.3476,m,1,0.8396,,[],[],[],[],[],[],[],432.3476,434.3477,434.3477,434.3479,[],[],[],[],[],[],[],,434.3479,434.348,-0.042655491,-0.417683969,0,0,0,,0,56,56,85,1,1,word,BENEFIT,print,benefit_p.png,,,,,,
,,,,31925,001,2025-10-16_20h53.12.379,HW_LDT_1,2024.2.4,MacIntel,123.4567901,,,,,,,,,,,,,,,,,,,,,,434.3487,434.5477,434.5477,435.0472,,,,,,,,,,,,,,1.1203,1,,,,,,,,,,,,,,z,,,,,,,,,,,,,,,58,0,435.0475,436.172,z,1,1.1203,,[],[],[],[],[],[],[],436.1721,438.1718,438.1718,438.172,[],[],[],[],[],[],[],,438.1721,438.1721,-0.042655491,-0.417683969,0,0,0,,0,57,57,62,1,1,TL,mitilary,print,mitilary_p.png,,,,,,
,,,,31925,001,2025-10-16_20h53.12.379,HW_LDT_1,2024.2.4,MacIntel,123.4567901,,,,,,,,,,,,,,,,,,,,,,438.1733,438.3727,438.3727,438.8717,,,,,,,,,,,,,,4.3791,1,,,,,,,,,,,,,,z,,,,,,,,,,,,,,,59,0,438.8721,443.256,z,1,4.3791,,[],[],[],[],[],[],[],443.2561,445.256,445.256,445.2562,[],[],[],[],[],[],[],,445.2562,445.2562,-0.042655491,-0.417683969,0,0,0,,0,58,58,66,1,1,TL,panert,cursive,panert_c.png,,,,,,
,,,,31925,001,2025-10-16_20h53.12.379,HW_LDT_1,2024.2.4,MacIntel,123.4567901,,,,,,,,,,,,,,,,,,,,,,445.2571,445.456,445.456,445.9559,,,,,,,,,,,,,,0.9787,1,,,,,,,,,,,,,,z,,,,,,,,,,,,,,,60,0,445.9563,446.9392,z,1,0.9787,,[],[],[],[],[],[],[],446.9392,448.9391,448.9391,448.9392,[],[],[],[],[],[],[],,448.9394,448.9394,-0.042655491,-0.417683969,0,0,0,,0,59,59,56,1,1,TL,grafetul,print,grafetul_p.png,,,,,,
,,,,31925,001,2025-10-16_20h53.12.379,HW_LDT_1,2024.2.4,MacIntel,123.4567901,,,,,,,,,,,,,,,,,,,,,,448.9404,449.1392,449.1393,449.6396,,,,,,,,,,,,,,0.7117,1,,,,,,,,,,,,,,z,,,,,,,,,,,,,,,61,0,449.64,450.356,z,1,0.7117,,[],[],[],[],[],[],[],450.356,452.3559,452.3559,452.3561,[],[],[],[],[],[],[],,452.3561,452.3562,-0.042655491,-0.417683969,0,0,0,,0,60,60,27,1,1,RL,rasibal,print,rasibal_p.png,,,,,,
,,,,31925,001,2025-10-16_20h53.12.379,HW_LDT_1,2024.2.4,MacIntel,123.4567901,,,,,,,,,,,,,,,,,,,,,,452.3571,452.556,452.5561,453.0559,,,,,,,,,,,,,,0.8977,1,,,,,,,,,,,,,,z,,,,,,,,,,,,,,,62,0,453.0564,453.956,z,1,0.8977,,[],[],[],[],[],[],[],453.956,455.9559,455.956,455.9561,[],[],[],[],[],[],[],,455.9562,455.9562,-0.042655491,-0.417683969,0,0,0,,0,61,61,47,1,1,TL,cagetory,print,cagetory_p.png,,,,,,
,,,,31925,001,2025-10-16_20h53.12.379,HW_LDT_1,2024.2.4,MacIntel,123.4567901,,,,,,,,,,,,,,,,,,,,,,455.9572,456.1552,456.1552,456.656,,,,,,,,,,,,,,0.8396,1,,,,,,,,,,,,,,m,,,,,,,,,,,,,,,63,1,456.6565,457.4976,m,1,0.8396,,[],[],[],[],[],[],[],457.4976,459.4971,459.4972,460.531,[],[],[],[],[],[],[],m,460.5311,460.5312,-0.042655491,-0.417683969,0,0,0,,0,62,62,99,1,1,word,DEBATE,print,debate_p.png,1.0282,,,,,
,,,,31925,001,2025-10-16_20h53.12.379,HW_LDT_1,2024.2.4,MacIntel,123.4567901,,,,,,,,,,,,,,,,,,,,,,460.532,460.7308,460.7308,461.23,,,,,,,,,,,,,,0.7868,1,,,,,,,,,,,,,,z,,,,,,,,,,,,,,,64,0,461.2304,462.0226,z,1,0.7868,,[],[],[],[],[],[],[],462.0226,464.0226,464.0226,464.0228,[],[],[],[],[],[],[],,464.0228,464.023,-0.042655491,-0.417683969,0,0,0,,0,63,63,8,1,1,RL,debave,print,debave_p.png,,,,,,
,,,,31925,001,2025-10-16_20h53.12.379,HW_LDT_1,2024.2.4,MacIntel,123.4567901,,,,,,,,,,,,,,,,,,,,,,464.0239,464.2228,464.2229,464.722,,,,,,,,,,,,,,0.9123,1,,,,,,,,,,,,,,z,,,,,,,,,,,,,,,65,0,464.7226,465.6395,z,1,0.9123,,[],[],[],[],[],[],[],465.6396,467.6383,467.6384,467.6385,[],[],[],[],[],[],[],,467.6385,467.6385,-0.042655491,-0.417683969,0,0,0,,0,64,64,72,1,1,TL,remuse,print,remuse_p.png,,,,,,
,,,,31925,001,2025-10-16_20h53.12.379,HW_LDT_1,2024.2.4,MacIntel,123.4567901,,,,,,,,,,,,,,,,,,,,,,467.6392,467.8391,467.8391,468.3392,,,,,,,,,,,,,,2.4641,1,,,,,,,,,,,,,,z,,,,,,,,,,,,,,,66,0,468.3395,470.8058,z,1,2.4641,,[],[],[],[],[],[],[],470.8058,472.805,472.805,472.8052,[],[],[],[],[],[],[],,472.8052,472.8053,-0.042655491,-0.417683969,0,0,0,,0,65,65,67,1,1,TL,pocily,cursive,pocily_c.png,,,,,,
,,,,31925,001,2025-10-16_20h53.12.379,HW_LDT_1,2024.2.4,MacIntel,123.4567901,,,,,,,,,,,,,,,,,,,,,,472.806,473.0059,473.0059,473.506,,,,,,,,,,,,,,1.1956,1,,,,,,,,,,,,,,z,,,,,,,,,,,,,,,67,0,473.5065,474.7061,z,1,1.1956,,[],[],[],[],[],[],[],474.7063,476.7058,476.7059,476.7061,[],[],[],[],[],[],[],,476.7061,476.7062,-0.042655491,-0.417683969,0,0,0,,0,66,66,59,1,1,TL,lirebal,cursive,lirebal_c.png,,,,,,
,,,,31925,001,2025-10-16_20h53.12.379,HW_LDT_1,2024.2.4,MacIntel,123.4567901,,,,,,,,,,,,,,,,,,,,,,476.7072,476.9057,476.9058,477.406,,,,,,,,,,,,,,2.1364,1,,,,,,,,,,,,,,z,,,,,,,,,,,,,,,68,0,477.4063,479.5478,z,1,2.1364,,[],[],[],[],[],[],[],479.5479,481.5473,481.5473,481.5475,[],[],[],[],[],[],[],,481.5475,481.5476,-0.042655491,-0.417683969,0,0,0,,0,67,67,58,1,1,TL,incidate,cursive,incidate_c.png,,,,,,
,,,,31925,001,2025-10-16_20h53.12.379,HW_LDT_1,2024.2.4,MacIntel,123.4567901,,,,,,,,,,,,,,,,,,,,,,481.5486,481.7475,481.7475,482.2466,,,,,,,,,,,,,,1.8457,1,,,,,,,,,,,,,,m,,,,,,,,,,,,,,,69,0,482.2471,484.0971,m,1,1.8457,,[],[],[],[],[],[],[],484.0971,486.0975,486.0975,486.0976,[],[],[],[],[],[],[],,486.0977,486.0978,-0.042655491,-0.417683969,0,0,0,,0,68,68,96,1,1,word,CONSIDER,cursive,consider_c.png,,,,,,
,,,,31925,001,2025-10-16_20h53.12.379,HW_LDT_1,2024.2.4,MacIntel,123.4567901,,,,,,,,,,,,,,,,,,,,,,486.0987,486.2975,486.2975,486.7967,,,,,,,,,,,,,,4.4298,1,,,,,,,,,,,,,,z,,,,,,,,,,,,,,,70,1,486.7971,491.2306,z,1,4.4298,,[],[],[],[],[],[],[],491.2307,493.2308,493.2309,494.5885,[],[],[],[],[],[],[],z,494.5886,494.5886,-0.042655491,-0.417683969,0,0,0,,0,69,69,33,1,1,RL,recile,cursive,recile_c.png,1.3536,,,,,
,,,,31925,001,2025-10-16_20h53.12.379,HW_LDT_1,2024.2.4,MacIntel,123.4567901,,,,,,,,,,,,,,,,,,,,,,494.5895,494.7891,494.7892,495.289,,,,,,,,,,,,,,0.9619,1,,,,,,,,,,,,,,m,,,,,,,,,,,,,,,71,0,495.2893,496.2558,m,1,0.9619,,[],[],[],[],[],[],[],496.2558,498.2558,498.2558,498.256,[],[],[],[],[],[],[],,498.256,498.2561,-0.042655491,-0.417683969,0,0,0,,0,70,70,91,1,1,word,CARDINAL,print,cardinal_p.png,,,,,,
,,,,31925,001,2025-10-16_20h53.12.379,HW_LDT_1,2024.2.4,MacIntel,123.4567901,,,,,,,,,,,,,,,,,,,,,,498.2568,498.4558,498.4559,498.9558,,,,,,,,,,,,,,2.7954,0,,,,,,,,,,,,,,m,,,,,,,,,,,,,,,72,0,498.9562,501.7558,z,0,2.7954,,[],[],[],[],[],[],[],501.7558,503.7558,503.7558,503.756,[],[],[],[],[],[],[],,503.756,503.7561,-0.042655491,-0.417683969,0,0,0,,0,71,71,87,1,1,word,CAFETERIA,cursive,cafeteria_c.png,,,,,,
,,,,31925,001,2025-10-16_20h53.12.379,HW_LDT_1,2024.2.4,MacIntel,123.4567901,,,,,,,,,,,,,,,,,,,,,,503.757,503.9557,503.9557,504.4558,,,,,,,,,,,,,,3.2946,1,,,,,,,,,,,,,,z,,,,,,,,,,,,,,,73,1,504.4562,507.7554,z,1,3.2946,,[],[],[],[],[],[],[],507.7554,509.7557,509.7557,510.839,[],[],[],[],[],[],[],z,510.8391,510.8392,-0.042655491,-0.417683969,0,0,0,,0,72,72,49,1,1,TL,clicinal,cursive,clicinal_c.png,1.078,,,,,
,,,,31925,001,2025-10-16_20h53.12.379,HW_LDT_1,2024.2.4,MacIntel,123.4567901,,,,,,,,,,,,,,,,,,,,,,510.8399,511.0392,511.0393,511.5391,,,,,,,,,,,,,,1.0762,1,,,,,,,,,,,,,,z,,,,,,,,,,,,,,,74,0,511.5396,512.6216,z,1,1.0762,,[],[],[],[],[],[],[],512.6216,514.6223,514.6224,514.6225,[],[],[],[],[],[],[],,514.6225,514.6226,-0.042655491,-0.417683969,0,0,0,,0,73,73,4,1,1,RL,carminal,print,carminal_p.png,,,,,,
,,,,31925,001,2025-10-16_20h53.12.379,HW_LDT_1,2024.2.4,MacIntel,123.4567901,,,,,,,,,,,,,,,,,,,,,,514.6233,514.8217,514.8218,515.3226,,,,,,,,,,,,,,1.711,1,,,,,,,,,,,,,,z,,,,,,,,,,,,,,,75,0,515.323,517.0391,z,1,1.711,,[],[],[],[],[],[],[],517.0391,519.0391,519.0391,519.0393,[],[],[],[],[],[],[],,519.0393,519.0394,-0.042655491,-0.417683969,0,0,0,,0,74,74,48,1,1,TL,cemerony,cursive,cemerony_c.png,,,,,,
,,,,31925,001,2025-10-16_20h53.12.379,HW_LDT_1,2024.2.4,MacIntel,123.4567901,,,,,,,,,,,,,,,,,,,,,,519.0404,519.2391,519.2392,519.7391,,,,,,,,,,,,,,1.0357,1,,,,,,,,,,,,,,m,,,,,,,,,,,,,,,76,1,519.7395,520.7807,m,1,1.0357,,[],[],[],[],[],[],[],520.7807,522.7806,522.7807,524.1723,[],[],[],[],[],[],[],z,524.1723,524.1724,-0.042655491,-0.417683969,0,0,0,,0,75,75,131,1,1,word,POPULAR,cursive,popular_c.png,1.387,,,,,
,,,,31925,001,2025-10-16_20h53.12.379,HW_LDT_1,2024.2.4,MacIntel,123.4567901,,,,,,,,,,,,,,,,,,,,,,524.1729,524.3722,524.3722,524.872,,,,,,,,,,,,,,1.0776,1,,,,,,,,,,,,,,z,,,,,,,,,,,,,,,77,0,524.8725,525.9555,z,1,1.0776,,[],[],[],[],[],[],[],525.9555,527.9548,527.9548,527.955,[],[],[],[],[],[],[],,527.955,527.955,-0.042655491,-0.417683969,0,0,0,,0,76,76,42,1,1,TL,befenit,print,befenit_p.png,,,,,,
,,,,31925,001,2025-10-16_20h53.12.379,HW_LDT_1,2024.2.4,MacIntel,123.4567901,,,,,,,,,,,,,,,,,,,,,,527.9558,528.1557,528.1557,528.6557,,,,,,,,,,,,,,0.7704,1,,,,,,,,,,,,,,m,,,,,,,,,,,,,,,78,0,528.656,529.4307,m,1,0.7704,,[],[],[],[],[],[],[],529.4307,531.43,531.43,531.4303,[],[],[],[],[],[],[],,531.4304,531.4304,-0.042655491,-0.417683969,0,0,0,,0,77,77,158,1,1,word,VELOCITY,print,velocity_p.png,,,,,,
,,,,31925,001,2025-10-16_20h53.12.379,HW_LDT_1,2024.2.4,MacIntel,123.4567901,,,,,,,,,,,,,,,,,,,,,,531.4312,531.6302,531.6302,532.1307,,,,,,,,,,,,,,0.6693,1,,,,,,,,,,,,,,z,,,,,,,,,,,,,,,79,0,532.1313,532.8052,z,1,0.6693,,[],[],[],[],[],[],[],532.8053,534.8056,534.8057,534.8058,[],[],[],[],[],[],[],,534.8058,534.8058,-0.042655491,-0.417683969,0,0,0,,0,78,78,46,1,1,TL,catipal,print,catipal_p.png,,,,,,
,,,,31925,001,2025-10-16_20h53.12.379,HW_LDT_1,2024.2.4,MacIntel,123.4567901,,,,,,,,,,,,,,,,,,,,,,534.8066,535.0057,535.0057,535.5054,,,,,,,,,,,,,,4.8693,0,,,,,,,,,,,,,,m,,,,,,,,,,,,,,,80,0,535.5058,540.3806,z,0,4.8693,,[],[],[],[],[],[],[],540.3807,542.3807,542.3807,542.3809,[],[],[],[],[],[],[],,542.3809,598.6848,-0.042655491,-0.417683969,0,0,0,space,0,79,79,103,1,1,word,DISPUTE,cursive,dispute_c.png,,,56.2876,,,
,,,,31925,001,2025-10-16_20h53.12.379,HW_LDT_1,2024.2.4,MacIntel,123.4567901,,,,,,,,,,,,,,,,,,,,,,598.6857,598.8841,598.8841,599.3836,,,,,,,,,,,,,,1.0617,1,,,,,,,,,,,,,,z,,,,,,,,,,,,,,,81,0,599.384,600.4515,z,1,1.0617,,[],[],[],[],[],[],[],600.4516,602.4504,602.4505,602.4506,[],[],[],[],[],[],[],,602.4507,602.4507,-0.042655491,-0.417683969,0,0,0,,0,80,80,7,1,1,RL,delahe,print,delahe_p.png,,,,,,
,,,,31925,001,2025-10-16_20h53.12.379,HW_LDT_1,2024.2.4,MacIntel,123.4567901,,,,,,,,,,,,,,,,,,,,,,602.4516,602.6513,602.6513,603.1512,,,,,,,,,,,,,,1.0121,1,,,,,,,,,,,,,,z,,,,,,,,,,,,,,,82,0,603.1518,604.1672,z,1,1.0121,,[],[],[],[],[],[],[],604.1672,606.1679,606.1679,606.168,[],[],[],[],[],[],[],,606.1681,606.1682,-0.042655491,-0.417683969,0,0,0,,0,81,81,63,1,1,TL,molibe,cursive,molibe_c.png,,,,,,
,,,,31925,001,2025-10-16_20h53.12.379,HW_LDT_1,2024.2.4,MacIntel,123.4567901,,,,,,,,,,,,,,,,,,,,,,606.169,606.3679,606.3679,606.8678,,,,,,,,,,,,,,1.8236,1,,,,,,,,,,,,,,z,,,,,,,,,,,,,,,83,0,606.8681,608.6926,z,1,1.8236,,[],[],[],[],[],[],[],608.6927,610.6929,610.6929,610.693,[],[],[],[],[],[],[],,610.6931,610.6933,-0.042655491,-0.417683969,0,0,0,,0,82,82,76,1,1,TL,stragety,cursive,stragety_c.png,,,,,,
,,,,31925,001,2025-10-16_20h53.12.379,HW_LDT_1,2024.2.4,MacIntel,123.4567901,,,,,,,,,,,,,,,,,,,,,,610.6942,610.8928,610.8928,611.3929,,,,,,,,,,,,,,4.0519,1,,,,,,,,,,,,,,z,,,,,,,,,,,,,,,84,0,611.3933,615.4503,z,1,4.0519,,[],[],[],[],[],[],[],615.4504,617.4508,617.4508,617.451,[],[],[],[],[],[],[],,617.451,617.4511,-0.042655491,-0.417683969,0,0,0,,0,83,83,1,1,1,RL,adnicory,cursive,adnicory_c.png,,,,,,
,,,,31925,001,2025-10-16_20h53.12.379,HW_LDT_1,2024.2.4,MacIntel,123.4567901,,,,,,,,,,,,,,,,,,,,,,617.452,617.6513,617.6513,618.1506,,,,,,,,,,,,,,1.0534,1,,,,,,,,,,,,,,z,,,,,,,,,,,,,,,85,0,618.1509,619.2095,z,1,1.0534,,[],[],[],[],[],[],[],619.2096,621.2096,621.2096,621.2098,[],[],[],[],[],[],[],,621.2098,621.2099,-0.042655491,-0.417683969,0,0,0,,0,84,84,60,1,1,TL,manire,print,manire_p.png,,,,,,
,,,,31925,001,2025-10-16_20h53.12.379,HW_LDT_1,2024.2.4,MacIntel,123.4567901,,,,,,,,,,,,,,,,,,,,,,621.2108,621.4095,621.4096,621.9095,,,,,,,,,,,,,,0.6386,1,,,,,,,,,,,,,,m,,,,,,,,,,,,,,,86,0,621.9098,622.5512,m,1,0.6386,,[],[],[],[],[],[],[],622.5513,624.5502,624.5502,624.5504,[],[],[],[],[],[],[],,624.5504,624.5505,-0.042655491,-0.417683969,0,0,0,,0,85,85,98,1,1,word,CRIMINAL,print,criminal_p.png,,,,,,
,,,,31925,001,2025-10-16_20h53.12.379,HW_LDT_1,2024.2.4,MacIntel,123.4567901,,,,,,,,,,,,,,,,,,,,,,624.5513,624.7511,624.7511,625.2511,,,,,,,,,,,,,,2.1612,1,,,,,,,,,,,,,,z,,,,,,,,,,,,,,,87,1,625.2516,627.4178,z,1,2.1612,,[],[],[],[],[],[],[],627.4179,629.4181,629.4181,630.5424,[],[],[],[],[],[],[],z,630.5424,630.5425,-0.042655491,-0.417683969,0,0,0,,0,86,86,3,1,1,RL,casena,cursive,casena_c.png,1.1202,,,,,
,,,,31925,001,2025-10-16_20h53.12.379,HW_LDT_1,2024.2.4,MacIntel,123.4567901,,,,,,,,,,,,,,,,,,,,,,630.5434,630.7429,630.7429,631.2429,,,,,,,,,,,,,,1.5933,1,,,,,,,,,,,,,,m,,,,,,,,,,,,,,,88,1,631.2432,632.8429,m,1,1.5933,,[],[],[],[],[],[],[],632.843,634.8427,634.8427,635.8344,[],[],[],[],[],[],[],m,635.8345,635.8345,-0.042655491,-0.417683969,0,0,0,,0,87,87,114,1,1,word,LOCATE,print,locate_p.png,0.9881,,,,,
,,,,31925,001,2025-10-16_20h53.12.379,HW_LDT_1,2024.2.4,MacIntel,123.4567901,,,,,,,,,,,,,,,,,,,,,,635.8352,636.0344,636.0345,636.5344,,,,,,,,,,,,,,1.3486,1,,,,,,,,,,,,,,m,,,,,,,,,,,,,,,89,0,636.5347,637.8841,m,1,1.3486,,[],[],[],[],[],[],[],637.8842,639.8844,639.8845,639.8847,[],[],[],[],[],[],[],,639.8847,639.8848,-0.042655491,-0.417683969,0,0,0,,0,88,88,121,1,1,word,MISTAKE,print,mistake_p.png,,,,,,
,,,,31925,001,2025-10-16_20h53.12.379,HW_LDT_1,2024.2.4,MacIntel,123.4567901,,,,,,,,,,,,,,,,,,,,,,639.8857,640.0844,640.0845,640.5845,,,,,,,,,,,,,,1.2197,1,,,,,,,,,,,,,,z,,,,,,,,,,,,,,,90,1,640.5849,641.8095,z,1,1.2197,,[],[],[],[],[],[],[],641.8095,643.8094,643.8095,644.893,[],[],[],[],[],[],[],z,644.8931,644.8932,-0.042655491,-0.417683969,0,0,0,,0,89,89,74,1,1,TL,setanor,cursive,setanor_c.png,1.0789,,,,,
,,,,31925,001,2025-10-16_20h53.12.379,HW_LDT_1,2024.2.4,MacIntel,123.4567901,,,,,,,,,,,,,,,,,,,,,,644.8941,645.0927,645.0927,645.5926,,,,,,,,,,,,,,0.9202,1,,,,,,,,,,,,,,m,,,,,,,,,,,,,,,91,0,645.5931,646.5179,m,1,0.9202,,[],[],[],[],[],[],[],646.5179,648.5173,648.5173,648.5174,[],[],[],[],[],[],[],,648.5175,648.5176,-0.042655491,-0.417683969,0,0,0,,0,90,90,113,1,1,word,LITERAL,print,literal_p.png,,,,,,
,,,,31925,001,2025-10-16_20h53.12.379,HW_LDT_1,2024.2.4,MacIntel,123.4567901,,,,,,,,,,,,,,,,,,,,,,648.5184,648.7177,648.7177,649.2176,,,,,,,,,,,,,,0.7911,1,,,,,,,,,,,,,,m,,,,,,,,,,,,,,,92,0,649.2179,650.0097,m,1,0.7911,,[],[],[],[],[],[],[],650.0097,652.0093,652.0094,652.0095,[],[],[],[],[],[],[],,652.0095,652.0097,-0.042655491,-0.417683969,0,0,0,,0,91,91,128,1,1,word,PACIFIC,print,pacific_p.png,,,,,,
,,,,31925,001,2025-10-16_20h53.12.379,HW_LDT_1,2024.2.4,MacIntel,123.4567901,,,,,,,,,,,,,,,,,,,,,,652.0105,652.2092,652.2092,652.7094,,,,,,,,,,,,,,1.1363,1,,,,,,,,,,,,,,z,,,,,,,,,,,,,,,93,0,652.7097,653.8511,z,1,1.1363,,[],[],[],[],[],[],[],653.8513,655.8509,655.851,655.8511,[],[],[],[],[],[],[],,655.8512,655.8513,-0.042655491,-0.417683969,0,0,0,,0,92,92,78,1,1,TL,vecolity,print,vecolity_p.png,,,,,,
,,,,31925,001,2025-10-16_20h53.12.379,HW_LDT_1,2024.2.4,MacIntel,123.4567901,,,,,,,,,,,,,,,,,,,,,,655.8521,656.051,656.051,656.5508,,,,,,,,,,,,,,0.6822,1,,,,,,,,,,,,,,m,,,,,,,,,,,,,,,94,0,656.5512,657.2343,m,1,0.6822,,[],[],[],[],[],[],[],657.2344,659.2346,659.2348,659.2348,[],[],[],[],[],[],[],,659.2348,659.2349,-0.042655491,-0.417683969,0,0,0,,0,93,93,153,1,1,word,STOLEN,print,stolen_p.png,,,,,,
,,,,31925,001,2025-10-16_20h53.12.379,HW_LDT_1,2024.2.4,MacIntel,123.4567901,,,,,,,,,,,,,,,,,,,,,,659.236,659.4345,659.4346,659.9339,,,,,,,,,,,,,,1.2826,1,,,,,,,,,,,,,,m,,,,,,,,,,,,,,,95,1,659.9342,661.2177,m,1,1.2826,,[],[],[],[],[],[],[],661.2178,663.217,663.217,664.1095,[],[],[],[],[],[],[],m,664.1095,664.1097,-0.042655491,-0.417683969,0,0,0,,0,94,94,148,1,1,word,SALINE,print,saline_p.png,0.8873,,,,,
,,,,31925,001,2025-10-16_20h53.12.379,HW_LDT_1,2024.2.4,MacIntel,123.4567901,,,,,,,,,,,,,,,,,,,,,,664.1105,664.3084,664.3084,664.8085,,,,,,,,,,,,,,1.0498,1,,,,,,,,,,,,,,z,,,,,,,,,,,,,,,96,1,664.8089,665.8593,z,1,1.0498,,[],[],[],[],[],[],[],665.8594,667.8592,667.8593,669.4502,[],[],[],[],[],[],[],m,669.4502,669.4503,-0.042655491,-0.417683969,0,0,0,,0,95,95,16,1,1,RL,marmipal,print,marmipal_p.png,1.5864,,,,,
,,,,31925,001,2025-10-16_20h53.12.379,HW_LDT_1,2024.2.4,MacIntel,123.4567901,,,,,,,,,,,,,,,,,,,,,,669.4512,669.6502,669.6503,670.1509,,,,,,,,,,,,,,2.062,1,,,,,,,,,,,,,,z,,,,,,,,,,,,,,,97,1,670.1513,672.2179,z,1,2.062,,[],[],[],[],[],[],[],672.2179,674.2176,674.2177,674.9258,[],[],[],[],[],[],[],z,674.9259,674.926,-0.042655491,-0.417683969,0,0,0,,0,96,96,25,1,1,RL,quakity,cursive,quakity_c.png,0.7036,,,,,
,,,,31925,001,2025-10-16_20h53.12.379,HW_LDT_1,2024.2.4,MacIntel,123.4567901,,,,,,,,,,,,,,,,,,,,,,674.9267,675.1259,675.1259,675.626,,,,,,,,,,,,,,1.3867,1,,,,,,,,,,,,,,m,,,,,,,,,,,,,,,98,0,675.6265,677.0172,m,1,1.3867,,[],[],[],[],[],[],[],677.0172,679.0176,679.0176,679.0178,[],[],[],[],[],[],[],,679.0179,679.0179,-0.042655491,-0.417683969,0,0,0,,0,97,97,104,1,1,word,DOMINANT,cursive,dominant_c.png,,,,,,
,,,,31925,001,2025-10-16_20h53.12.379,HW_LDT_1,2024.2.4,MacIntel,123.4567901,,,,,,,,,,,,,,,,,,,,,,679.0188,679.2168,679.2168,679.7174,,,,,,,,,,,,,,2.8524,1,,,,,,,,,,,,,,m,,,,,,,,,,,,,,,99,0,679.7175,682.5762,m,1,2.8524,,[],[],[],[],[],[],[],682.5763,684.576,684.576,684.5762,[],[],[],[],[],[],[],,684.5763,684.5763,-0.042655491,-0.417683969,0,0,0,,0,98,98,152,1,1,word,SPECIMEN,cursive,specimen_c.png,,,,,,
,,,,31925,001,2025-10-16_20h53.12.379,HW_LDT_1,2024.2.4,MacIntel,123.4567901,,,,,,,,,,,,,,,,,,,,,,684.5772,684.7759,684.776,685.2759,,,,,,,,,,,,,,0.8039,1,,,,,,,,,,,,,,m,,,,,,,,,,,,,,,100,1,685.2763,686.0844,m,1,0.8039,,[],[],[],[],[],[],[],686.0844,688.0842,688.0842,688.9009,[],[],[],[],[],[],[],m,688.901,688.9011,-0.042655491,-0.417683969,0,0,0,,0,99,99,83,1,1,word,ANIMAL,print,animal_p.png,0.8126,,,,,
,,,,31925,001,2025-10-16_20h53.12.379,HW_LDT_1,2024.2.4,MacIntel,123.4567901,,,,,,,,,,,,,,,,,,,,,,688.902,689.1009,689.1009,689.6009,,,,,,,,,,,,,,0.871,1,,,,,,,,,,,,,,z,,,,,,,,,,,,,,,101,0,689.6013,690.4758,z,1,0.871,,[],[],[],[],[],[],[],690.4759,692.475,692.4751,692.4752,[],[],[],[],[],[],[],,692.4753,692.4754,-0.042655491,-0.417683969,0,0,0,,0,100,100,6,1,1,RL,crisival,print,crisival_p.png,,,,,,
,,,,31925,001,2025-10-16_20h53.12.379,HW_LDT_1,2024.2.4,MacIntel,123.4567901,,,,,,,,,,,,,,,,,,,,,,692.4764,692.6759,692.6759,693.1761,,,,,,,,,,,,,,0.6449,1,,,,,,,,,,,,,,m,,,,,,,,,,,,,,,102,0,693.1764,693.8259,m,1,0.6449,,[],[],[],[],[],[],[],693.826,695.8254,695.8254,695.8255,[],[],[],[],[],[],[],,695.8256,695.8256,-0.042655491,-0.417683969,0,0,0,,0,101,101,142,1,1,word,REMOTE,print,remote_p.png,,,,,,
,,,,31925,001,2025-10-16_20h53.12.379,HW_LDT_1,2024.2.4,MacIntel,123.4567901,,,,,,,,,,,,,,,,,,,,,,695.8263,696.0259,696.026,696.5254,,,,,,,,,,,,,,0.6573,1,,,,,,,,,,,,,,m,,,,,,,,,,,,,,,103,1,696.5257,697.1842,m,1,0.6573,,[],[],[],[],[],[],[],697.1843,699.1844,699.1844,700.35,[],[],[],[],[],[],[],m,700.35,700.3501,-0.042655491,-0.417683969,0,0,0,,0,102,102,117,1,1,word,MARINE,print,marine_p.png,1.1609,,,,,
,,,,31925,001,2025-10-16_20h53.12.379,HW_LDT_1,2024.2.4,MacIntel,123.4567901,,,,,,,,,,,,,,,,,,,,,,700.3508,700.5499,700.55,701.0502,,,,,,,,,,,,,,0.7794,1,,,,,,,,,,,,,,z,,,,,,,,,,,,,,,104,0,701.0506,701.8341,z,1,0.7794,,[],[],[],[],[],[],[],701.8342,703.8338,703.8339,703.8341,[],[],[],[],[],[],[],,703.8341,703.8341,-0.042655491,-0.417683969,0,0,0,,0,103,103,18,1,1,RL,mishafe,print,mishafe_p.png,,,,,,
,,,,31925,001,2025-10-16_20h53.12.379,HW_LDT_1,2024.2.4,MacIntel,123.4567901,,,,,,,,,,,,,,,,,,,,,,703.8349,704.0343,704.0344,704.5343,,,,,,,,,,,,,,1.2374,1,,,,,,,,,,,,,,z,,,,,,,,,,,,,,,105,1,704.5347,705.7758,z,1,1.2374,,[],[],[],[],[],[],[],705.7759,707.7759,707.7759,708.6592,[],[],[],[],[],[],[],z,708.6593,708.6594,-0.042655491,-0.417683969,0,0,0,,0,104,104,61,1,1,TL,mecidine,cursive,mecidine_c.png,0.8791,,,,,
,,,,31925,001,2025-10-16_20h53.12.379,HW_LDT_1,2024.2.4,MacIntel,123.4567901,,,,,,,,,,,,,,,,,,,,,,708.6603,708.8591,708.8592,709.3535,,,,,,,,,,,,,,1.6342,0,,,,,,,,,,,,,,m,,,,,,,,,,,,,,,106,0,709.3539,710.9926,z,0,1.6342,,[],[],[],[],[],[],[],710.9927,712.9926,712.9926,712.9928,[],[],[],[],[],[],[],,712.9928,712.9929,-0.042655491,-0.417683969,0,0,0,,0,105,105,135,1,1,word,QUALITY,cursive,quality_c.png,,,,,,
,,,,31925,001,2025-10-16_20h53.12.379,HW_LDT_1,2024.2.4,MacIntel,123.4567901,,,,,,,,,,,,,,,,,,,,,,712.994,713.1925,713.1926,713.6918,,,,,,,,,,,,,,2.3206,1,,,,,,,,,,,,,,z,,,,,,,,,,,,,,,107,0,713.6922,716.0176,z,1,2.3206,,[],[],[],[],[],[],[],716.0176,718.0175,718.0176,718.0177,[],[],[],[],[],[],[],,718.0178,718.0178,-0.042655491,-0.417683969,0,0,0,,0,106,106,68,1,1,TL,prosopal,cursive,prosopal_c.png,,,,,,
,,,,31925,001,2025-10-16_20h53.12.379,HW_LDT_1,2024.2.4,MacIntel,123.4567901,,,,,,,,,,,,,,,,,,,,,,718.0189,718.2175,718.2175,718.7176,,,,,,,,,,,,,,0.7018,1,,,,,,,,,,,,,,m,,,,,,,,,,,,,,,108,0,718.7181,719.4259,m,1,0.7018,,[],[],[],[],[],[],[],719.4259,721.4259,721.4259,721.4261,[],[],[],[],[],[],[],,721.4261,721.4262,-0.042655491,-0.417683969,0,0,0,,0,107,107,109,1,1,word,GRATEFUL,print,grateful_p.png,,,,,,
,,,,31925,001,2025-10-16_20h53.12.379,HW_LDT_1,2024.2.4,MacIntel,123.4567901,,,,,,,,,,,,,,,,,,,,,,721.4271,721.6258,721.6258,722.1252,,,,,,,,,,,,,,3.2794,1,,,,,,,,,,,,,,m,,,,,,,,,,,,,,,109,0,722.1257,725.4092,m,1,3.2794,,[],[],[],[],[],[],[],725.4092,727.409,727.409,727.4091,[],[],[],[],[],[],[],,727.4092,727.4092,-0.042655491,-0.417683969,0,0,0,,0,108,108,122,1,1,word,MOBILE,cursive,mobile_c.png,,,,,,
,,,,31925,001,2025-10-16_20h53.12.379,HW_LDT_1,2024.2.4,MacIntel,123.4567901,,,,,,,,,,,,,,,,,,,,,,727.4098,727.6091,727.6091,728.1091,,,,,,,,,,,,,,2.1041,1,,,,,,,,,,,,,,m,,,,,,,,,,,,,,,110,0,728.1096,730.2174,m,1,2.1041,,[],[],[],[],[],[],[],730.2175,732.2174,732.2174,732.2177,[],[],[],[],[],[],[],,732.2177,732.2178,-0.042655491,-0.417683969,0,0,0,,0,109,109,143,1,1,word,REMOVAL,cursive,removal_c.png,,,,,,
,,,,31925,001,2025-10-16_20h53.12.379,HW_LDT_1,2024.2.4,MacIntel,123.4567901,,,,,,,,,,,,,,,,,,,,,,732.2186,732.4175,732.4175,732.9174,,,,,,,,,,,,,,4.2957,1,,,,,,,,,,,,,,z,,,,,,,,,,,,,,,111,0,732.9178,737.2173,z,1,4.2957,,[],[],[],[],[],[],[],737.2175,739.2174,739.2174,739.2176,[],[],[],[],[],[],[],,739.2176,739.2177,-0.042655491,-0.417683969,0,0,0,,0,110,110,75,1,1,TL,speficic,cursive,speficic_c.png,,,,,,
,,,,31925,001,2025-10-16_20h53.12.379,HW_LDT_1,2024.2.4,MacIntel,123.4567901,,,,,,,,,,,,,,,,,,,,,,739.2187,739.4174,739.4174,739.9175,,,,,,,,,,,,,,0.7623,1,,,,,,,,,,,,,,m,,,,,,,,,,,,,,,112,0,739.9178,740.684,m,1,0.7623,,[],[],[],[],[],[],[],740.6841,742.6839,742.6839,742.6839,[],[],[],[],[],[],[],,742.6839,742.684,-0.042655491,-0.417683969,0,0,0,,0,111,111,89,1,1,word,CAPACITY,print,capacity_p.png,,,,,,
,,,,31925,001,2025-10-16_20h53.12.379,HW_LDT_1,2024.2.4,MacIntel,123.4567901,,,,,,,,,,,,,,,,,,,,,,742.6843,742.884,742.884,743.3839,,,,,,,,,,,,,,1.8791,1,,,,,,,,,,,,,,z,,,,,,,,,,,,,,,113,0,743.3843,745.2675,z,1,1.8791,,[],[],[],[],[],[],[],745.2675,747.2674,747.2675,747.2676,[],[],[],[],[],[],[],,747.2677,747.2677,-0.042655491,-0.417683969,0,0,0,,0,112,112,31,1,1,RL,reconal,cursive,reconal_c.png,,,,,,
,,,,31925,001,2025-10-16_20h53.12.379,HW_LDT_1,2024.2.4,MacIntel,123.4567901,,,,,,,,,,,,,,,,,,,,,,747.269,747.4674,747.4675,747.9674,,,,,,,,,,,,,,0.9269,1,,,,,,,,,,,,,,z,,,,,,,,,,,,,,,114,0,747.9679,748.9009,z,1,0.9269,,[],[],[],[],[],[],[],748.901,750.9006,750.9007,750.9007,[],[],[],[],[],[],[],,750.9007,750.9009,-0.042655491,-0.417683969,0,0,0,,0,113,113,28,1,1,RL,renutal,print,renutal_p.png,,,,,,
,,,,31925,001,2025-10-16_20h53.12.379,HW_LDT_1,2024.2.4,MacIntel,123.4567901,,,,,,,,,,,,,,,,,,,,,,750.9016,751.1007,751.1007,751.6007,,,,,,,,,,,,,,1.2159,1,,,,,,,,,,,,,,z,,,,,,,,,,,,,,,115,0,751.6012,752.8177,z,1,1.2159,,[],[],[],[],[],[],[],752.8178,754.8173,754.8174,754.8175,[],[],[],[],[],[],[],,754.8175,754.8176,-0.042655491,-0.417683969,0,0,0,,0,114,114,30,1,1,RL,relone,print,relone_p.png,,,,,,
,,,,31925,001,2025-10-16_20h53.12.379,HW_LDT_1,2024.2.4,MacIntel,123.4567901,,,,,,,,,,,,,,,,,,,,,,754.8181,755.0174,755.0174,755.5173,,,,,,,,,,,,,,1.816,0,,,,,,,,,,,,,,m,,,,,,,,,,,,,,,116,0,755.5177,757.3343,z,0,1.816,,[],[],[],[],[],[],[],757.3343,759.333,759.3331,759.3332,[],[],[],[],[],[],[],,759.3332,759.3333,-0.042655491,-0.417683969,0,0,0,,0,115,115,101,1,1,word,DELICATE,cursive,delicate_c.png,,,,,,
,,,,31925,001,2025-10-16_20h53.12.379,HW_LDT_1,2024.2.4,MacIntel,123.4567901,,,,,,,,,,,,,,,,,,,,,,759.3339,759.534,759.534,760.0342,,,,,,,,,,,,,,7.1368,1,,,,,,,,,,,,,,z,,,,,,,,,,,,,,,117,0,760.0345,767.1758,z,1,7.1368,,[],[],[],[],[],[],[],767.1759,769.1754,769.1754,769.1755,[],[],[],[],[],[],[],,769.1756,769.1757,-0.042655491,-0.417683969,0,0,0,,0,116,116,35,1,1,RL,senvilent,cursive,senvilent_c.png,,,,,,
,,,,31925,001,2025-10-16_20h53.12.379,HW_LDT_1,2024.2.4,MacIntel,123.4567901,,,,,,,,,,,,,,,,,,,,,,769.1767,769.3756,769.3757,769.8747,,,,,,,,,,,,,,1.2368,1,,,,,,,,,,,,,,m,,,,,,,,,,,,,,,118,0,769.8752,771.1173,m,1,1.2368,,[],[],[],[],[],[],[],771.1174,773.1173,773.1173,773.1175,[],[],[],[],[],[],[],,773.1176,773.1176,-0.042655491,-0.417683969,0,0,0,,0,117,117,108,1,1,word,FORTUNE,print,fortune_p.png,,,,,,
,,,,31925,001,2025-10-16_20h53.12.379,HW_LDT_1,2024.2.4,MacIntel,123.4567901,,,,,,,,,,,,,,,,,,,,,,773.1185,773.3172,773.3172,773.8173,,,,,,,,,,,,,,2.799,1,,,,,,,,,,,,,,m,,,,,,,,,,,,,,,119,0,773.8178,776.6175,m,1,2.799,,[],[],[],[],[],[],[],776.6176,778.6173,778.6173,778.6175,[],[],[],[],[],[],[],,778.6176,778.6176,-0.042655491,-0.417683969,0,0,0,,0,118,118,94,1,1,word,CLINICAL,cursive,clinical_c.png,,,,,,
,,,,31925,001,2025-10-16_20h53.12.379,HW_LDT_1,2024.2.4,MacIntel,123.4567901,,,,,,,,,,,,,,,,,,,,,,778.6185,778.8164,778.8164,779.3171,,,,,,,,,,,,,,3.5036,1,,,,,,,,,,,,,,z,,,,,,,,,,,,,,,120,0,779.3175,782.8255,z,1,3.5036,,[],[],[],[],[],[],[],782.8255,784.8257,784.8258,784.826,[],[],[],[],[],[],[],,784.826,784.8261,-0.042655491,-0.417683969,0,0,0,,0,119,119,23,1,1,RL,potugar,cursive,potugar_c.png,,,,,,
,,,,31925,001,2025-10-16_20h53.12.379,HW_LDT_1,2024.2.4,MacIntel,123.4567901,,,,,,,,,,,,,,,,,,,,,,784.8271,785.0252,785.0252,785.5258,,,,,,,,,,,,,,2.1116,0,,,,,,,,,,,,,,m,,,,,,,,,,,,,,,121,0,785.5262,787.6424,z,0,2.1116,,[],[],[],[],[],[],[],787.6424,789.642,789.6421,789.6422,[],[],[],[],[],[],[],,789.6423,789.6423,-0.042655491,-0.417683969,0,0,0,,0,120,120,102,1,1,word,DENSITY,cursive,density_c.png,,,,,,
,,,,31925,001,2025-10-16_20h53.12.379,HW_LDT_1,2024.2.4,MacIntel,123.4567901,,,,,,,,,,,,,,,,,,,,,,789.6433,789.8422,789.8423,790.342,,,,,,,,,,,,,,1.8877,1,,,,,,,,,,,,,,z,,,,,,,,,,,,,,,122,0,790.3424,792.2338,z,1,1.8877,,[],[],[],[],[],[],[],792.2339,794.2339,794.2339,794.2341,[],[],[],[],[],[],[],,794.2341,794.2342,-0.042655491,-0.417683969,0,0,0,,0,121,121,64,1,1,TL,orepator,cursive,orepator_c.png,,,,,,
,,,,31925,001,2025-10-16_20h53.12.379,HW_LDT_1,2024.2.4,MacIntel,123.4567901,,,,,,,,,,,,,,,,,,,,,,794.2353,794.4339,794.434,794.9338,,,,,,,,,,,,,,1.1624,1,,,,,,,,,,,,,,m,,,,,,,,,,,,,,,123,0,794.9342,796.0997,m,1,1.1624,,[],[],[],[],[],[],[],796.0997,798.1006,798.1006,798.1008,[],[],[],[],[],[],[],,798.1009,798.1009,-0.042655491,-0.417683969,0,0,0,,0,122,122,141,1,1,word,RELIGION,cursive,religion_c.png,,,,,,
,,,,31925,001,2025-10-16_20h53.12.379,HW_LDT_1,2024.2.4,MacIntel,123.4567901,,,,,,,,,,,,,,,,,,,,,,798.1019,798.3005,798.3005,798.8005,,,,,,,,,,,,,,2.9616,1,,,,,,,,,,,,,,m,,,,,,,,,,,,,,,124,0,798.8009,801.7671,m,1,2.9616,,[],[],[],[],[],[],[],801.7672,803.7662,803.7662,803.7664,[],[],[],[],[],[],[],,803.7664,803.7664,-0.042655491,-0.417683969,0,0,0,,0,123,123,134,1,1,word,QUALIFY,cursive,qualify_c.png,,,,,,
,,,,31925,001,2025-10-16_20h53.12.379,HW_LDT_1,2024.2.4,MacIntel,123.4567901,,,,,,,,,,,,,,,,,,,,,,803.7672,803.9671,803.9672,804.4672,,,,,,,,,,,,,,1.1441,1,,,,,,,,,,,,,,m,,,,,,,,,,,,,,,125,0,804.4675,805.617,m,1,1.1441,,[],[],[],[],[],[],[],805.617,807.6173,807.6173,807.6174,[],[],[],[],[],[],[],,807.6175,807.6175,-0.042655491,-0.417683969,0,0,0,,0,124,124,95,1,1,word,COMEDY,cursive,comedy_c.png,,,,,,
,,,,31925,001,2025-10-16_20h53.12.379,HW_LDT_1,2024.2.4,MacIntel,123.4567901,,,,,,,,,,,,,,,,,,,,,,807.6185,807.8172,807.8172,808.3171,,,,,,,,,,,,,,0.7615,1,,,,,,,,,,,,,,z,,,,,,,,,,,,,,,126,0,808.3175,809.0839,z,1,0.7615,,[],[],[],[],[],[],[],809.0839,811.0838,811.0839,811.084,[],[],[],[],[],[],[],,811.084,811.0841,-0.042655491,-0.417683969,0,0,0,,0,125,125,43,1,1,TL,bedise,print,bedise_p.png,,,,,,
,,,,31925,001,2025-10-16_20h53.12.379,HW_LDT_1,2024.2.4,MacIntel,123.4567901,,,,,,,,,,,,,,,,,,,,,,811.0849,811.2838,811.2838,811.7839,,,,,,,,,,,,,,1.0951,1,,,,,,,,,,,,,,z,,,,,,,,,,,,,,,127,0,811.7842,812.884,z,1,1.0951,,[],[],[],[],[],[],[],812.884,814.8838,814.8838,814.884,[],[],[],[],[],[],[],,814.884,814.884,-0.042655491,-0.417683969,0,0,0,,0,126,126,41,1,1,TL,bevoled,print,bevoled_p.png,,,,,,
,,,,31925,001,2025-10-16_20h53.12.379,HW_LDT_1,2024.2.4,MacIntel,123.4567901,,,,,,,,,,,,,,,,,,,,,,814.8848,815.0839,815.084,815.584,,,,,,,,,,,,,,2.9616,1,,,,,,,,,,,,,,z,,,,,,,,,,,,,,,128,0,815.5844,818.5507,z,1,2.9616,,[],[],[],[],[],[],[],818.5508,820.5504,820.5505,820.5506,[],[],[],[],[],[],[],,820.5507,820.5507,-0.042655491,-0.417683969,0,0,0,,0,127,127,44,1,1,TL,cateferia,cursive,cateferia_c.png,,,,,,
,,,,31925,001,2025-10-16_20h53.12.379,HW_LDT_1,2024.2.4,MacIntel,123.4567901,,,,,,,,,,,,,,,,,,,,,,820.5515,820.7505,820.7506,821.2505,,,,,,,,,,,,,,1.0538,1,,,,,,,,,,,,,,m,,,,,,,,,,,,,,,129,0,821.2508,822.308,m,1,1.0538,,[],[],[],[],[],[],[],822.308,824.3088,824.3089,824.3089,[],[],[],[],[],[],[],,824.3089,824.3091,-0.042655491,-0.417683969,0,0,0,,0,128,128,157,1,1,word,VALIDITY,cursive,validity_c.png,,,,,,
,,,,31925,001,2025-10-16_20h53.12.379,HW_LDT_1,2024.2.4,MacIntel,123.4567901,,,,,,,,,,,,,,,,,,,,,,824.3098,824.5088,824.5088,825.0088,,,,,,,,,,,,,,1.4321,1,,,,,,,,,,,,,,z,,,,,,,,,,,,,,,130,0,825.0092,826.4421,z,1,1.4321,,[],[],[],[],[],[],[],826.4423,828.4422,828.4422,828.4423,[],[],[],[],[],[],[],,828.4424,828.4424,-0.042655491,-0.417683969,0,0,0,,0,129,129,77,1,1,TL,tritube,cursive,tritube_c.png,,,,,,
,,,,31925,001,2025-10-16_20h53.12.379,HW_LDT_1,2024.2.4,MacIntel,123.4567901,,,,,,,,,,,,,,,,,,,,,,828.4431,828.642,828.6421,829.1422,,,,,,,,,,,,,,1.0122,1,,,,,,,,,,,,,,m,,,,,,,,,,,,,,,131,0,829.1425,830.159,m,1,1.0122,,[],[],[],[],[],[],[],830.159,832.1588,832.1589,832.1591,[],[],[],[],[],[],[],,832.1591,832.1592,-0.042655491,-0.417683969,0,0,0,,0,130,130,82,1,1,word,AMATEUR,print,amateur_p.png,,,,,,
,,,,31925,001,2025-10-16_20h53.12.379,HW_LDT_1,2024.2.4,MacIntel,123.4567901,,,,,,,,,,,,,,,,,,,,,,832.1601,832.3587,832.3587,832.8588,,,,,,,,,,,,,,0.728,1,,,,,,,,,,,,,,z,,,,,,,,,,,,,,,132,0,832.8592,833.5879,z,1,0.728,,[],[],[],[],[],[],[],833.5879,835.588,835.588,835.5881,[],[],[],[],[],[],[],,835.5882,835.5882,-0.042655491,-0.417683969,0,0,0,,0,131,131,21,1,1,RL,opcifal,print,opcifal_p.png,,,,,,
,,,,31925,001,2025-10-16_20h53.12.379,HW_LDT_1,2024.2.4,MacIntel,123.4567901,,,,,,,,,,,,,,,,,,,,,,835.589,835.7879,835.788,836.2881,,,,,,,,,,,,,,0.9787,0,,,,,,,,,,,,,,m,,,,,,,,,,,,,,,133,0,836.2885,837.2705,z,0,0.9787,,[],[],[],[],[],[],[],837.2706,839.271,839.2711,839.2713,[],[],[],[],[],[],[],,839.2714,839.2715,-0.042655491,-0.417683969,0,0,0,,0,132,132,130,1,1,word,POLICY,cursive,policy_c.png,,,,,,
,,,,31925,001,2025-10-16_20h53.12.379,HW_LDT_1,2024.2.4,MacIntel,123.4567901,,,,,,,,,,,,,,,,,,,,,,839.2726,839.4713,839.4713,839.9712,,,,,,,,,,,,,,0.8954,1,,,,,,,,,,,,,,m,,,,,,,,,,,,,,,134,0,839.9715,840.8715,m,1,0.8954,,[],[],[],[],[],[],[],840.8715,842.8703,842.8704,842.8705,[],[],[],[],[],[],[],,842.8705,842.8705,-0.042655491,-0.417683969,0,0,0,,0,133,133,126,1,1,word,OPTIMAL,print,optimal_p.png,,,,,,
,,,,31925,001,2025-10-16_20h53.12.379,HW_LDT_1,2024.2.4,MacIntel,123.4567901,,,,,,,,,,,,,,,,,,,,,,842.8714,843.0707,843.0708,843.5704,,,,,,,,,,,,,,1.6868,0,,,,,,,,,,,,,,m,,,,,,,,,,,,,,,135,0,843.5709,845.2626,z,0,1.6868,,[],[],[],[],[],[],[],845.2627,847.2628,847.2628,847.2629,[],[],[],[],[],[],[],,847.263,847.2631,-0.042655491,-0.417683969,0,0,0,,0,134,134,125,1,1,word,OPERATOR,cursive,operator_c.png,,,,,,
,,,,31925,001,2025-10-16_20h53.12.379,HW_LDT_1,2024.2.4,MacIntel,123.4567901,,,,,,,,,,,,,,,,,,,,,,847.2638,847.4623,847.4623,847.9628,,,,,,,,,,,,,,0.6533,1,,,,,,,,,,,,,,z,,,,,,,,,,,,,,,136,0,847.9632,848.6213,z,1,0.6533,,[],[],[],[],[],[],[],848.6213,850.6211,850.6211,850.6214,[],[],[],[],[],[],[],,850.6214,850.6214,-0.042655491,-0.417683969,0,0,0,,0,135,135,13,1,1,RL,linefal,print,linefal_p.png,,,,,,
,,,,31925,001,2025-10-16_20h53.12.379,HW_LDT_1,2024.2.4,MacIntel,123.4567901,,,,,,,,,,,,,,,,,,,,,,850.6224,850.8211,850.8211,851.3211,,,,,,,,,,,,,,1.7786,1,,,,,,,,,,,,,,m,,,,,,,,,,,,,,,137,0,851.3216,853.104,m,1,1.7786,,[],[],[],[],[],[],[],853.104,855.1041,855.1041,855.1042,[],[],[],[],[],[],[],,855.1042,855.1043,-0.042655491,-0.417683969,0,0,0,,0,136,136,151,1,1,word,SPECIFIC,cursive,specific_c.png,,,,,,
,,,,31925,001,2025-10-16_20h53.12.379,HW_LDT_1,2024.2.4,MacIntel,123.4567901,,,,,,,,,,,,,,,,,,,,,,855.1051,855.3037,855.3038,855.8045,,,,,,,,,,,,,,0.691,1,,,,,,,,,,,,,,z,,,,,,,,,,,,,,,138,1,855.8049,856.4964,z,1,0.691,,[],[],[],[],[],[],[],856.4964,858.4964,858.4964,860.5795,[],[],[],[],[],[],[],m,860.5796,860.5797,-0.042655491,-0.417683969,0,0,0,,0,137,137,2,1,1,RL,asiral,print,asiral_p.png,2.0778,,,,,
,,,,31925,001,2025-10-16_20h53.12.379,HW_LDT_1,2024.2.4,MacIntel,123.4567901,,,,,,,,,,,,,,,,,,,,,,860.5807,860.7792,860.7792,861.2793,,,,,,,,,,,,,,0.7015,1,,,,,,,,,,,,,,m,,,,,,,,,,,,,,,139,1,861.2795,861.9879,m,1,0.7015,,[],[],[],[],[],[],[],861.9879,863.9869,863.9869,864.9286,[],[],[],[],[],[],[],m,864.9287,864.9288,-0.042655491,-0.417683969,0,0,0,,0,138,138,144,1,1,word,RESIDENT,print,resident_p.png,0.9383,,,,,
,,,,31925,001,2025-10-16_20h53.12.379,HW_LDT_1,2024.2.4,MacIntel,123.4567901,,,,,,,,,,,,,,,,,,,,,,864.9298,865.1288,865.1288,865.6295,,,,,,,,,,,,,,3.6024,1,,,,,,,,,,,,,,z,,,,,,,,,,,,,,,140,0,865.6299,869.238,z,1,3.6024,,[],[],[],[],[],[],[],869.2382,871.2375,871.2376,871.2376,[],[],[],[],[],[],[],,871.2376,871.2376,-0.042655491,-0.417683969,0,0,0,,0,139,139,73,1,1,TL,ronamtic,cursive,ronamtic_c.png,,,,,,
,,,,31925,001,2025-10-16_20h53.12.379,HW_LDT_1,2024.2.4,MacIntel,123.4567901,,,,,,,,,,,,,,,,,,,,,,871.238,871.4376,871.4376,871.9379,,,,,,,,,,,,,,0.6869,1,,,,,,,,,,,,,,z,,,,,,,,,,,,,,,141,0,871.9383,872.6292,z,1,0.6869,,[],[],[],[],[],[],[],872.6292,874.6294,874.6294,874.6296,[],[],[],[],[],[],[],,874.6296,874.6298,-0.042655491,-0.417683969,0,0,0,,0,140,140,34,1,1,RL,samite,print,samite_p.png,,,,,,
,,,,31925,001,2025-10-16_20h53.12.379,HW_LDT_1,2024.2.4,MacIntel,123.4567901,,,,,,,,,,,,,,,,,,,,,,874.6307,874.8293,874.8294,875.3293,,,,,,,,,,,,,,2.562,1,,,,,,,,,,,,,,z,,,,,,,,,,,,,,,142,0,875.3297,877.8962,z,1,2.562,,[],[],[],[],[],[],[],877.8964,879.896,879.896,879.8961,[],[],[],[],[],[],[],,879.8961,879.8962,-0.042655491,-0.417683969,0,0,0,,0,141,141,36,1,1,RL,speniven,cursive,speniven_c.png,,,,,,
,,,,31925,001,2025-10-16_20h53.12.379,HW_LDT_1,2024.2.4,MacIntel,123.4567901,,,,,,,,,,,,,,,,,,,,,,879.8968,880.0952,880.0952,880.5958,,,,,,,,,,,,,,1.0993,1,,,,,,,,,,,,,,m,,,,,,,,,,,,,,,143,0,880.5961,881.7003,m,1,1.0993,,[],[],[],[],[],[],[],881.7003,883.7002,883.7003,883.7004,[],[],[],[],[],[],[],,883.7004,883.7005,-0.042655491,-0.417683969,0,0,0,,0,142,142,137,1,1,word,RAPIDLY,cursive,rapidly_c.png,,,,,,
,,,,31925,001,2025-10-16_20h53.12.379,HW_LDT_1,2024.2.4,MacIntel,123.4567901,,,,,,,,,,,,,,,,,,,,,,883.7012,883.9003,883.9003,884.4002,,,,,,,,,,,,,,0.6288,1,,,,,,,,,,,,,,m,,,,,,,,,,,,,,,144,0,884.4005,885.0336,m,1,0.6288,,[],[],[],[],[],[],[],885.0336,887.0336,887.0336,887.0337,[],[],[],[],[],[],[],,887.0337,887.0337,-0.042655491,-0.417683969,0,0,0,,0,143,143,84,1,1,word,BELOVED,print,beloved_p.png,,,,,,
,,,,31925,001,2025-10-16_20h53.12.379,HW_LDT_1,2024.2.4,MacIntel,123.4567901,,,,,,,,,,,,,,,,,,,,,,887.0346,887.2336,887.2337,887.7336,,,,,,,,,,,,,,1.1365,1,,,,,,,,,,,,,,m,,,,,,,,,,,,,,,145,0,887.7338,888.8751,m,1,1.1365,,[],[],[],[],[],[],[],888.8752,890.8751,890.8751,890.8753,[],[],[],[],[],[],[],,890.8753,890.8754,-0.042655491,-0.417683969,0,0,0,,0,144,144,80,1,1,word,ACADEMY,cursive,academy_c.png,,,,,,
,,,,31925,001,2025-10-16_20h53.12.379,HW_LDT_1,2024.2.4,MacIntel,123.4567901,,,,,,,,,,,,,,,,,,,,,,890.8761,891.075,891.075,891.5752,,,,,,,,,,,,,,0.82,1,,,,,,,,,,,,,,m,,,,,,,,,,,,,,,146,0,891.5758,892.4002,m,1,0.82,,[],[],[],[],[],[],[],892.4002,894.4001,894.4002,894.4003,[],[],[],[],[],[],[],,894.4003,894.4003,-0.042655491,-0.417683969,0,0,0,,0,145,145,112,1,1,word,LIBERAL,cursive,liberal_c.png,,,,,,
,,,,31925,001,2025-10-16_20h53.12.379,HW_LDT_1,2024.2.4,MacIntel,123.4567901,,,,,,,,,,,,,,,,,,,,,,894.4011,894.5993,894.5993,895.0993,,,,,,,,,,,,,,3.1201,0,,,,,,,,,,,,,,m,,,,,,,,,,,,,,,147,0,895.0997,898.2252,z,0,3.1201,,[],[],[],[],[],[],[],898.2253,900.2243,900.2244,900.2246,[],[],[],[],[],[],[],,900.2246,900.2247,-0.042655491,-0.417683969,0,0,0,,0,146,146,140,1,1,word,RELATIVE,cursive,relative_c.png,,,,,,
,,,,31925,001,2025-10-16_20h53.12.379,HW_LDT_1,2024.2.4,MacIntel,123.4567901,,,,,,,,,,,,,,,,,,,,,,900.2258,900.4251,900.4251,900.9249,,,,,,,,,,,,,,2.1793,1,,,,,,,,,,,,,,m,,,,,,,,,,,,,,,148,0,900.9253,903.1085,m,1,2.1793,,[],[],[],[],[],[],[],903.1086,905.1085,905.1086,905.1087,[],[],[],[],[],[],[],,905.1087,905.1088,-0.042655491,-0.417683969,0,0,0,,0,147,147,81,1,1,word,ADVISORY,cursive,advisory_c.png,,,,,,
,,,,31925,001,2025-10-16_20h53.12.379,HW_LDT_1,2024.2.4,MacIntel,123.4567901,,,,,,,,,,,,,,,,,,,,,,905.1096,905.3084,905.3084,905.8085,,,,,,,,,,,,,,5.1108,1,,,,,,,,,,,,,,m,,,,,,,,,,,,,,,149,0,905.8088,910.9252,m,1,5.1108,,[],[],[],[],[],[],[],910.9253,912.925,912.925,912.9252,[],[],[],[],[],[],[],,912.9253,912.9253,-0.042655491,-0.417683969,0,0,0,,0,148,148,127,1,1,word,ORIGINAL,cursive,original_c.png,,,,,,
,,,,31925,001,2025-10-16_20h53.12.379,HW_LDT_1,2024.2.4,MacIntel,123.4567901,,,,,,,,,,,,,,,,,,,,,,912.9263,913.1252,913.1253,913.6244,,,,,,,,,,,,,,1.136,1,,,,,,,,,,,,,,m,,,,,,,,,,,,,,,150,0,913.6247,914.7669,m,1,1.136,,[],[],[],[],[],[],[],914.7669,916.7668,916.7668,916.767,[],[],[],[],[],[],[],,916.767,916.7671,-0.042655491,-0.417683969,0,0,0,,0,149,149,129,1,1,word,PARENT,cursive,parent_c.png,,,,,,
,,,,31925,001,2025-10-16_20h53.12.379,HW_LDT_1,2024.2.4,MacIntel,123.4567901,,,,,,,,,,,,,,,,,,,,,,916.7681,916.9668,916.9668,917.4668,,,,,,,,,,,,,,0.7864,1,,,,,,,,,,,,,,m,,,,,,,,,,,,,,,151,0,917.4673,918.2584,m,1,0.7864,,[],[],[],[],[],[],[],918.2584,920.2583,920.2584,920.2586,[],[],[],[],[],[],[],,920.2586,920.2586,-0.042655491,-0.417683969,0,0,0,,0,150,150,106,1,1,word,ELABORATE,print,elaborate_p.png,,,,,,
,,,,31925,001,2025-10-16_20h53.12.379,HW_LDT_1,2024.2.4,MacIntel,123.4567901,,,,,,,,,,,,,,,,,,,,,,920.2595,920.4585,920.4585,920.9577,,,,,,,,,,,,,,0.828,1,,,,,,,,,,,,,,z,,,,,,,,,,,,,,,152,1,920.9583,921.7918,z,1,0.828,,[],[],[],[],[],[],[],921.7918,923.7908,923.7909,924.7085,[],[],[],[],[],[],[],m,924.7085,924.7086,-0.042655491,-0.417683969,0,0,0,,0,151,151,70,1,1,TL,relugar,print,relugar_p.png,0.9138,,,,,
,,,,31925,001,2025-10-16_20h53.12.379,HW_LDT_1,2024.2.4,MacIntel,123.4567901,,,,,,,,,,,,,,,,,,,,,,924.7093,924.9079,924.9079,925.408,,,,,,,,,,,,,,1.9445,1,,,,,,,,,,,,,,z,,,,,,,,,,,,,,,153,0,925.4082,927.3586,z,1,1.9445,,[],[],[],[],[],[],[],927.3586,929.3584,929.3584,929.3586,[],[],[],[],[],[],[],,929.3586,929.3586,-0.042655491,-0.417683969,0,0,0,,0,152,152,26,1,1,RL,quafidy,cursive,quafidy_c.png,,,,,,
,,,,31925,001,2025-10-16_20h53.12.379,HW_LDT_1,2024.2.4,MacIntel,123.4567901,,,,,,,,,,,,,,,,,,,,,,929.3594,929.5581,929.5582,930.0584,,,,,,,,,,,,,,0.6208,1,,,,,,,,,,,,,,m,,,,,,,,,,,,,,,154,0,930.0589,930.6834,m,1,0.6208,,[],[],[],[],[],[],[],930.6835,932.6824,932.6825,932.6826,[],[],[],[],[],[],[],,932.6827,932.6828,-0.042655491,-0.417683969,0,0,0,,0,153,153,90,1,1,word,CAPITAL,print,capital_p.png,,,,,,
,,,,31925,001,2025-10-16_20h53.12.379,HW_LDT_1,2024.2.4,MacIntel,123.4567901,,,,,,,,,,,,,,,,,,,,,,932.6838,932.8834,932.8834,933.3825,,,,,,,,,,,,,,4.1368,1,,,,,,,,,,,,,,m,,,,,,,,,,,,,,,155,0,933.3829,937.5251,m,1,4.1368,,[],[],[],[],[],[],[],937.5251,939.525,939.525,939.5252,[],[],[],[],[],[],[],,939.5252,939.5253,-0.042655491,-0.417683969,0,0,0,,0,154,154,150,1,1,word,SENTIMENT,cursive,sentiment_c.png,,,,,,
,,,,31925,001,2025-10-16_20h53.12.379,HW_LDT_1,2024.2.4,MacIntel,123.4567901,,,,,,,,,,,,,,,,,,,,,,939.5262,939.725,939.7251,940.2242,,,,,,,,,,,,,,1.0461,1,,,,,,,,,,,,,,z,,,,,,,,,,,,,,,156,0,940.2246,941.2751,z,1,1.0461,,[],[],[],[],[],[],[],941.2752,943.2749,943.275,943.2751,[],[],[],[],[],[],[],,943.2751,943.2752,-0.042655491,-0.417683969,0,0,0,,0,155,155,9,1,1,RL,docirant,cursive,docirant_c.png,,,,,,
,,,,31925,001,2025-10-16_20h53.12.379,HW_LDT_1,2024.2.4,MacIntel,123.4567901,,,,,,,,,,,,,,,,,,,,,,943.276,943.4746,943.4746,943.9744,,,,,,,,,,,,,,0.9873,1,,,,,,,,,,,,,,z,,,,,,,,,,,,,,,157,1,943.9748,944.9667,z,1,0.9873,,[],[],[],[],[],[],[],944.9668,946.9667,946.9667,947.8917,[],[],[],[],[],[],[],z,947.8917,947.8917,-0.042655491,-0.417683969,0,0,0,,0,156,156,69,1,1,TL,radiply,cursive,radiply_c.png,0.9199,,,,,
,,,,31925,001,2025-10-16_20h53.12.379,HW_LDT_1,2024.2.4,MacIntel,123.4567901,,,,,,,,,,,,,,,,,,,,,,947.8925,948.0916,948.0916,948.5918,,,,,,,,,,,,,,0.6775,1,,,,,,,,,,,,,,m,,,,,,,,,,,,,,,158,0,948.5922,949.275,m,1,0.6775,,[],[],[],[],[],[],[],949.275,951.275,951.275,951.2751,[],[],[],[],[],[],[],,951.2752,951.2752,-0.042655491,-0.417683969,0,0,0,,0,157,157,147,1,1,word,ROMANTIC,cursive,romantic_c.png,,,,,,
,,,,31925,001,2025-10-16_20h53.12.379,HW_LDT_1,2024.2.4,MacIntel,123.4567901,,,,,,,,,,,,,,,,,,,,,,951.2761,951.4742,951.4743,951.975,,,,,,,,,,,,,,1.4812,1,,,,,,,,,,,,,,z,,,,,,,,,,,,,,,159,0,951.9754,953.4576,z,1,1.4812,,[],[],[],[],[],[],[],953.4577,955.4582,955.4583,955.4584,[],[],[],[],[],[],[],,955.4584,955.4586,-0.042655491,-0.417683969,0,0,0,,0,158,158,38,1,1,RL,stopave,cursive,stopave_c.png,,,,,,
,,,,31925,001,2025-10-16_20h53.12.379,HW_LDT_1,2024.2.4,MacIntel,123.4567901,,,,,,,,,,,,,,,,,,,,,,955.4594,955.6583,955.6584,956.1583,,,,,,,,,,,,,,1.6721,1,,,,,,,,,,,,,,m,,,,,,,,,,,,,,,160,0,956.1587,957.8333,m,1,1.6721,,[],[],[],[],[],[],[],957.8333,959.8333,959.8333,959.8336,[],[],[],[],[],[],[],,959.8336,959.8337,-0.042655491,-0.417683969,0,0,0,,0,159,159,88,1,1,word,CAMERA,cursive,camera_c.png,,,,,,
,,,,31925,001,2025-10-16_20h53.12.379,HW_LDT_1,2024.2.4,MacIntel,123.4567901,,,,,,,,,,,,,,,,,,,,,,,,,,,,,,,,,,,,,,,,,,,,,,,,,,,,,,,,,,,,,,,,,,,,,,,,,,,,,,,,,,,,,,,,,,,,,,,,,,,,,,,,,,,,,,,,,,,,,,959.8445,964.8328
