counterbalance_lists.group,counterbalance_lists.remaining,get_list.started,get_list.stopped,participant,session,date,expName,psychopyVersion,OS,frameRate,Instructions.started,Instructions.stopped,key_resp.keys,instr_done_touch.x,instr_done_touch.y,instr_done_touch.leftButton,instr_done_touch.midButton,instr_done_touch.rightButton,instr_done_touch.clicked_name,start_instr.thisRepN,start_instr.thisTrialN,start_instr.thisN,start_instr.thisIndex,start_instr.ran,pageN,phase,instruct_text,has_image,instruct_image,key_resp.rt,key_resp.duration,showProgress.started,showProgress.stopped,fix.started,fix.stopped,prac.started,prac.stopped,response.keys,response.corr,response.rt,response.duration,touch_resp.x,touch_resp.y,touch_resp.leftButton,touch_resp.midButton,touch_resp.rightButton,touch_resp.time,touch_resp.clicked_name,rt,corr,feedback.started,feedback.stopped,trials.thisRepN,trials.thisTrialN,trials.thisN,trials.thisIndex,trials.ran,TrialID,StimulusType,Condition,PrimeDuration,Prime,Target,corrAns,Instructions_expt.started,Instructions_expt.stopped,key_resp_3.keys,key_resp_3.rt,key_resp_3.duration,instr_done_touch_3.x,instr_done_touch_3.y,instr_done_touch_3.leftButton,instr_done_touch_3.midButton,instr_done_touch_3.rightButton,instr_done_touch_3.clicked_name,instr_experiment.thisRepN,instr_experiment.thisTrialN,instr_experiment.thisN,instr_experiment.thisIndex,instr_experiment.ran,trialID,flag,maintask.started,maintask.stopped,key_resp_2.keys,key_resp_2.corr,key_resp_2.rt,key_resp_2.duration,targ_click.x,targ_click.y,targ_click.leftButton,targ_click.midButton,targ_click.rightButton,targ_click.time,targ_click.clicked_name,ITI.started,ITI.stopped,probe.started,probe.stopped,click_probe.x,click_probe.y,click_probe.leftButton,click_probe.midButton,click_probe.rightButton,click_probe.time,click_probe.clicked_name,key_resp_probe.keys,Break.started,Break.stopped,break_done_touch.x,break_done_touch.y,break_done_touch.leftButton,break_done_touch.midButton,break_done_touch.rightButton,break_done_keyboard.keys,list2_trials.thisRepN,list2_trials.thisTrialN,list2_trials.thisN,list2_trials.thisIndex,list2_trials.ran,list_id,item_type,string,font,stim_file,key_resp_probe.rt,key_resp_probe.duration,break_done_keyboard.rt,break_done_keyboard.duration,End.started,End.stopped
list2,,0.416,0.416,31933,001,2025-11-07_13h25.12.978,HW_LDT_1,2024.2.4,MacIntel,58.82352941,,,,,,,,,,,,,,,,,,,,,,,,,,,,,,,,,,,,,,,,,,,,,,,,,,,,,,,,,,,,,,,,,,,,,,,,,,,,,,,,,,,,,,,,,,,,,,,,,,,,,,,,,,,,,,,,,,,,,,,,,
,,,,31933,001,2025-11-07_13h25.12.978,HW_LDT_1,2024.2.4,MacIntel,58.82352941,0.429,1462.864,,0.065554231,-0.39511323,1,0,0,instr_done_button,0,0,0,0,1,1,instructions,"INSTRUCTIONS
At the start of each trial, look at the plus sign  (+) in the center of the screen.  This tells you that a trial is about to begin and where to look. Second, the plus sign will disappear and a string of letters will appear. Your task is to determine if the string of letters is a word or not. If the item is a word press the M key (on keyboard)  or touch the word button (phone/tablet).  If the item is not a word,  press the  Z key (on keyboard)  or touch the nonword button (on phone/tablet). The items will be presented for a short time. 
Press the space bar or touch  continue.",0,,,,,,,,,,,,,,,,,,,,,,,,,,,,,,,,,,,,,,,,,,,,,,,,,,,,,,,,,,,,,,,,,,,,,,,,,,,,,,,,,,,,,,,,,,,,,,,,,,,,,,,
,,,,31933,001,2025-11-07_13h25.12.978,HW_LDT_1,2024.2.4,MacIntel,58.82352941,1462.865,1467.929,space,0.084624553,-0.377234803,0,0,0,,0,1,1,1,1,2,instructions,"If your device has a keyboard, press the 'Z' key for nonwords and the 'M' key for words.





Press the space bar or touch the button below to continue.",0,keyboard-example.gif,5.02,,,,,,,,,,,,,,,,,,,,,,,,,,,,,,,,,,,,,,,,,,,,,,,,,,,,,,,,,,,,,,,,,,,,,,,,,,,,,,,,,,,,,,,,,,,,,,,,,,,,,
,,,,31933,001,2025-11-07_13h25.12.978,HW_LDT_1,2024.2.4,MacIntel,58.82352941,1467.93,1474.645,space,0.084624553,-0.377234803,0,0,0,,0,2,2,2,1,3,instructions,"If you are using a touchscreen only device, use the buttons on the screen. Do not use the mouse.





Press the space bar or touch the button below to continue.",0,touchscreen-example.gif,6.691,,,,,,,,,,,,,,,,,,,,,,,,,,,,,,,,,,,,,,,,,,,,,,,,,,,,,,,,,,,,,,,,,,,,,,,,,,,,,,,,,,,,,,,,,,,,,,,,,,,,,
,,,,31933,001,2025-11-07_13h25.12.978,HW_LDT_1,2024.2.4,MacIntel,58.82352941,1474.647,1484.895,space,0.084624553,-0.377234803,0,0,0,,0,3,3,3,1,4,instructions,"It is very important that you respond as quickly and accurately as possible, as each letter string will only be on the screen for two seconds. If you do not respond within this time, the message 'Too slow!' will be displayed and the experiment will progress to the next letter string. The first 20 trials will be practice trials and you will receive feedback on your answers. 

Press the space bar or touch the button below to start the practice trials.",0,,10.211,,,,,,,,,,,,,,,,,,,,,,,,,,,,,,,,,,,,,,,,,,,,,,,,,,,,,,,,,,,,,,,,,,,,,,,,,,,,,,,,,,,,,,,,,,,,,,,,,,,,,
,,,,31933,001,2025-11-07_13h25.12.978,HW_LDT_1,2024.2.4,MacIntel,58.82352941,,,,,,,,,,,,,,,,,,,,,,1484.927,1485.095,1485.096,1485.595,1485.595,1486.419,m,1,0.797,,[],[],[],[],[],[],[],0.797,1,1486.419,1486.912,0,0,0,3,1,1004,WORD,"ID",16,matrix,MATRIX,m,,,,,,,,,,,,,,,,,,,,,,,,,,,,,,,,,,,,,,,,,,,,,,,,,,,,,,,,,,,,,,,,,,,
,,,,31933,001,2025-11-07_13h25.12.978,HW_LDT_1,2024.2.4,MacIntel,58.82352941,,,,,,,,,,,,,,,,,,,,,,1486.913,1487.112,1487.112,1487.612,1487.612,1488.645,z,1,1.013,,[],[],[],[],[],[],[],1.013,1,1488.646,1489.145,0,1,1,12,1,1013,NW,UN,33,adveil,SPRINY,z,,,,,,,,,,,,,,,,,,,,,,,,,,,,,,,,,,,,,,,,,,,,,,,,,,,,,,,,,,,,,,,,,,,
,,,,31933,001,2025-11-07_13h25.12.978,HW_LDT_1,2024.2.4,MacIntel,58.82352941,,,,,,,,,,,,,,,,,,,,,,1489.146,1489.344,1489.344,1489.845,1489.846,1490.545,m,1,0.679,,[],[],[],[],[],[],[],0.679,1,1490.545,1491.045,0,2,2,4,1,1005,WORD,UN,33,abound,SQUEAK,m,,,,,,,,,,,,,,,,,,,,,,,,,,,,,,,,,,,,,,,,,,,,,,,,,,,,,,,,,,,,,,,,,,,
,,,,31933,001,2025-11-07_13h25.12.978,HW_LDT_1,2024.2.4,MacIntel,58.82352941,,,,,,,,,,,,,,,,,,,,,,1491.046,1491.245,1491.245,1491.745,1491.746,1492.495,z,1,0.736,,[],[],[],[],[],[],[],0.736,1,1492.495,1492.995,0,3,3,14,1,1015,NW,UN,16,miaber,THRALE,z,,,,,,,,,,,,,,,,,,,,,,,,,,,,,,,,,,,,,,,,,,,,,,,,,,,,,,,,,,,,,,,,,,,
,,,,31933,001,2025-11-07_13h25.12.978,HW_LDT_1,2024.2.4,MacIntel,58.82352941,,,,,,,,,,,,,,,,,,,,,,1492.996,1493.195,1493.195,1493.695,1493.696,1494.328,m,1,0.613,,[],[],[],[],[],[],[],0.613,1,1494.329,1494.828,0,4,4,6,1,1007,WORD,UN,16,tropic,ZOMBIE,m,,,,,,,,,,,,,,,,,,,,,,,,,,,,,,,,,,,,,,,,,,,,,,,,,,,,,,,,,,,,,,,,,,,
,,,,31933,001,2025-11-07_13h25.12.978,HW_LDT_1,2024.2.4,MacIntel,58.82352941,,,,,,,,,,,,,,,,,,,,,,1494.83,1495.028,1495.028,1495.528,1495.529,1496.201,m,1,0.656,,[],[],[],[],[],[],[],0.656,1,1496.201,1496.695,0,5,5,7,1,1008,WORD,UN,16,hurdle,VOLUME,m,,,,,,,,,,,,,,,,,,,,,,,,,,,,,,,,,,,,,,,,,,,,,,,,,,,,,,,,,,,,,,,,,,,
,,,,31933,001,2025-11-07_13h25.12.978,HW_LDT_1,2024.2.4,MacIntel,58.82352941,,,,,,,,,,,,,,,,,,,,,,1496.696,1496.895,1496.895,1497.395,1497.396,1498.012,m,1,0.599,,[],[],[],[],[],[],[],0.599,1,1498.012,1498.512,0,6,6,1,1,1002,WORD,"ID",33,adjust,ADJUST,m,,,,,,,,,,,,,,,,,,,,,,,,,,,,,,,,,,,,,,,,,,,,,,,,,,,,,,,,,,,,,,,,,,,
,,,,31933,001,2025-11-07_13h25.12.978,HW_LDT_1,2024.2.4,MacIntel,58.82352941,,,,,,,,,,,,,,,,,,,,,,1498.513,1498.712,1498.712,1499.211,1499.212,1499.861,m,1,0.63,,[],[],[],[],[],[],[],0.63,1,1499.862,1500.361,0,7,7,2,1,1003,WORD,"ID",16,almond,ALMOND,m,,,,,,,,,,,,,,,,,,,,,,,,,,,,,,,,,,,,,,,,,,,,,,,,,,,,,,,,,,,,,,,,,,,
,,,,31933,001,2025-11-07_13h25.12.978,HW_LDT_1,2024.2.4,MacIntel,58.82352941,,,,,,,,,,,,,,,,,,,,,,1500.363,1500.561,1500.561,1501.062,1501.062,1501.778,z,1,0.701,,[],[],[],[],[],[],[],0.701,1,1501.779,1502.278,0,8,8,9,1,1010,NW,"ID",33,fariny,FARINY,z,,,,,,,,,,,,,,,,,,,,,,,,,,,,,,,,,,,,,,,,,,,,,,,,,,,,,,,,,,,,,,,,,,,
,,,,31933,001,2025-11-07_13h25.12.978,HW_LDT_1,2024.2.4,MacIntel,58.82352941,,,,,,,,,,,,,,,,,,,,,,1502.279,1502.478,1502.478,1502.978,1502.979,1503.745,m,0,0.748,,[],[],[],[],[],[],[],0.748,0,1503.746,1504.245,0,9,9,10,1,1011,NW,"ID",16,inlade,INLADE,z,,,,,,,,,,,,,,,,,,,,,,,,,,,,,,,,,,,,,,,,,,,,,,,,,,,,,,,,,,,,,,,,,,,
,,,,31933,001,2025-11-07_13h25.12.978,HW_LDT_1,2024.2.4,MacIntel,58.82352941,,,,,,,,,,,,,,,,,,,,,,1504.246,1504.445,1504.445,1504.945,1504.945,1505.645,z,1,0.681,,[],[],[],[],[],[],[],0.681,1,1505.646,1506.144,0,10,10,15,1,1016,NW,UN,16,mushed,WHAISE,z,,,,,,,,,,,,,,,,,,,,,,,,,,,,,,,,,,,,,,,,,,,,,,,,,,,,,,,,,,,,,,,,,,,
,,,,31933,001,2025-11-07_13h25.12.978,HW_LDT_1,2024.2.4,MacIntel,58.82352941,,,,,,,,,,,,,,,,,,,,,,1506.146,1506.344,1506.344,1506.844,1506.845,1507.445,m,1,0.582,,[],[],[],[],[],[],[],0.582,1,1507.445,1507.945,0,11,11,5,1,1006,WORD,UN,33,frenzy,OBTAIN,m,,,,,,,,,,,,,,,,,,,,,,,,,,,,,,,,,,,,,,,,,,,,,,,,,,,,,,,,,,,,,,,,,,,
,,,,31933,001,2025-11-07_13h25.12.978,HW_LDT_1,2024.2.4,MacIntel,58.82352941,,,,,,,,,,,,,,,,,,,,,,1507.946,1508.145,1508.145,1508.645,1508.646,1509.312,z,1,0.646,,[],[],[],[],[],[],[],0.646,1,1509.312,1509.811,0,12,12,13,1,1014,NW,UN,33,winfer,ROUPET,z,,,,,,,,,,,,,,,,,,,,,,,,,,,,,,,,,,,,,,,,,,,,,,,,,,,,,,,,,,,,,,,,,,,
,,,,31933,001,2025-11-07_13h25.12.978,HW_LDT_1,2024.2.4,MacIntel,58.82352941,,,,,,,,,,,,,,,,,,,,,,1509.812,1510.011,1510.012,1510.511,1510.512,1511.328,z,1,0.797,,[],[],[],[],[],[],[],0.797,1,1511.329,1511.828,0,13,13,8,1,1009,NW,"ID",33,aslert,ASLERT,z,,,,,,,,,,,,,,,,,,,,,,,,,,,,,,,,,,,,,,,,,,,,,,,,,,,,,,,,,,,,,,,,,,,
,,,,31933,001,2025-11-07_13h25.12.978,HW_LDT_1,2024.2.4,MacIntel,58.82352941,,,,,,,,,,,,,,,,,,,,,,1511.829,1512.028,1512.028,1512.528,1512.529,1513.078,m,1,0.529,,[],[],[],[],[],[],[],0.529,1,1513.078,1513.577,0,14,14,0,1,1001,WORD,"ID",33,utopia,UTOPIA,m,,,,,,,,,,,,,,,,,,,,,,,,,,,,,,,,,,,,,,,,,,,,,,,,,,,,,,,,,,,,,,,,,,,
,,,,31933,001,2025-11-07_13h25.12.978,HW_LDT_1,2024.2.4,MacIntel,58.82352941,,,,,,,,,,,,,,,,,,,,,,1513.579,1513.778,1513.778,1514.278,1514.279,1515.045,z,1,0.745,,[],[],[],[],[],[],[],0.745,1,1515.045,1515.545,0,15,15,11,1,1012,NW,"ID",16,rashet,RASHET,z,,,,,,,,,,,,,,,,,,,,,,,,,,,,,,,,,,,,,,,,,,,,,,,,,,,,,,,,,,,,,,,,,,,
,,,,31933,001,2025-11-07_13h25.12.978,HW_LDT_1,2024.2.4,MacIntel,58.82352941,,,,,,,,,,,,,,,1,end_of_practice,"You have completed the practice trials. During the experimental trials, you will not receive feedback. On some trials you will be asked to report whether the item you just saw was in cursive or print. 
Before you begin, please ensure that you are in a comfortable and quiet location and will not be disturbed for about 15 minutes, as we cannot use your data if you do not complete all the trials. 
 When you are ready to start the experimental trials, please press space or touch the button below.",,,,,,,,,,,,,,,,,,,,,,,,,,,,,,,,,,,,,,1515.55,2161.293,space,645.707,,0.011258278,-0.265562914,0,0,0,,0,0,0,0,1,,,,,,,,,,,,,,,,,,,,,,,,,,,,,,,,,,,,,,,,,,,,,,,,,,,
,,,,31933,001,2025-11-07_13h25.12.978,HW_LDT_1,2024.2.4,MacIntel,58.82352941,,,,,,,,,,,,,,,,,,,,,,2161.309,2161.492,2161.493,2161.992,,,,,,,,,,,,,,1.701,0,,,,,,,,,,,,,,m,,,,,,,,,,,,,,,,,1,0,2161.993,2163.709,z,0,1.701,,[],[],[],[],[],[],[],2163.71,2165.709,2165.709,2165.714,[],[],[],[],[],[],[],,2165.714,2165.716,0.011258278,-0.265562914,0,0,0,,0,0,0,125,1,2,word,OPERATOR,cursive,operator_c.png,,,,,,
,,,,31933,001,2025-11-07_13h25.12.978,HW_LDT_1,2024.2.4,MacIntel,58.82352941,,,,,,,,,,,,,,,,,,,,,,2165.717,2165.908,2165.909,2166.408,,,,,,,,,,,,,,1.052,1,,,,,,,,,,,,,,z,,,,,,,,,,,,,,,,,2,0,2166.409,2167.475,z,1,1.052,,[],[],[],[],[],[],[],2167.475,2169.475,2169.475,2169.475,[],[],[],[],[],[],[],,2169.475,2169.476,0.011258278,-0.265562914,0,0,0,,0,1,1,37,1,2,TL,adacemy,cursive,adacemy_c.png,,,,,,
,,,,31933,001,2025-11-07_13h25.12.978,HW_LDT_1,2024.2.4,MacIntel,58.82352941,,,,,,,,,,,,,,,,,,,,,,2169.477,2169.675,2169.675,2170.175,,,,,,,,,,,,,,1.208,0,,,,,,,,,,,,,,z,,,,,,,,,,,,,,,,,3,0,2170.176,2171.392,m,0,1.208,,[],[],[],[],[],[],[],2171.393,2173.392,2173.392,2173.392,[],[],[],[],[],[],[],,2173.392,2173.392,0.011258278,-0.265562914,0,0,0,,0,2,2,10,1,2,RL,disluge,cursive,disluge_c.png,,,,,,
,,,,31933,001,2025-11-07_13h25.12.978,HW_LDT_1,2024.2.4,MacIntel,58.82352941,,,,,,,,,,,,,,,,,,,,,,2173.394,2173.592,2173.592,2174.092,,,,,,,,,,,,,,1.087,0,,,,,,,,,,,,,,z,,,,,,,,,,,,,,,,,4,0,2174.092,2175.192,m,0,1.087,,[],[],[],[],[],[],[],2175.192,2177.192,2177.192,2177.192,[],[],[],[],[],[],[],,2177.192,2177.192,0.011258278,-0.265562914,0,0,0,,0,3,3,70,1,2,TL,retalive,print,retalive_p.png,,,,,,
,,,,31933,001,2025-11-07_13h25.12.978,HW_LDT_1,2024.2.4,MacIntel,58.82352941,,,,,,,,,,,,,,,,,,,,,,2177.193,2177.392,2177.392,2177.892,,,,,,,,,,,,,,0.853,1,,,,,,,,,,,,,,z,,,,,,,,,,,,,,,,,5,0,2177.892,2178.759,z,1,0.853,,[],[],[],[],[],[],[],2178.759,2180.758,2180.758,2180.759,[],[],[],[],[],[],[],,2180.759,2180.759,0.011258278,-0.265562914,0,0,0,,0,4,4,31,1,2,RL,spetisic,print,spetisic_p.png,,,,,,
,,,,31933,001,2025-11-07_13h25.12.978,HW_LDT_1,2024.2.4,MacIntel,58.82352941,,,,,,,,,,,,,,,,,,,,,,2180.76,2180.958,2180.958,2181.458,,,,,,,,,,,,,,0.726,1,,,,,,,,,,,,,,z,,,,,,,,,,,,,,,,,6,0,2181.459,2182.192,z,1,0.726,,[],[],[],[],[],[],[],2182.192,2184.192,2184.192,2184.192,[],[],[],[],[],[],[],,2184.192,2184.192,0.011258278,-0.265562914,0,0,0,,0,5,5,2,1,2,RL,casagity,print,casagity_p.png,,,,,,
,,,,31933,001,2025-11-07_13h25.12.978,HW_LDT_1,2024.2.4,MacIntel,58.82352941,,,,,,,,,,,,,,,,,,,,,,2184.193,2184.392,2184.392,2184.892,,,,,,,,,,,,,,0.74,1,,,,,,,,,,,,,,z,,,,,,,,,,,,,,,,,7,1,2184.892,2185.642,z,1,0.74,,[],[],[],[],[],[],[],2185.642,2187.642,2187.642,2189.175,[],[],[],[],[],[],[],m,2189.176,2189.176,0.000662252,-0.241721854,0,0,0,,0,6,6,43,1,2,TL,carema,print,carema_p.png,1.525,,,,,
,,,,31933,001,2025-11-07_13h25.12.978,HW_LDT_1,2024.2.4,MacIntel,58.82352941,,,,,,,,,,,,,,,,,,,,,,2189.177,2189.375,2189.375,2189.875,,,,,,,,,,,,,,1.204,0,,,,,,,,,,,,,,z,,,,,,,,,,,,,,,,,8,0,2189.875,2191.092,m,0,1.204,,[],[],[],[],[],[],[],2191.092,2193.091,2193.091,2193.091,[],[],[],[],[],[],[],,2193.091,2193.092,0.000662252,-0.241721854,0,0,0,,0,7,7,71,1,2,TL,retome,cursive,retome_c.png,,,,,,
,,,,31933,001,2025-11-07_13h25.12.978,HW_LDT_1,2024.2.4,MacIntel,58.82352941,,,,,,,,,,,,,,,,,,,,,,2193.093,2193.292,2193.292,2193.792,,,,,,,,,,,,,,3.137,1,,,,,,,,,,,,,,z,,,,,,,,,,,,,,,,,9,0,2193.792,2196.942,z,1,3.137,,[],[],[],[],[],[],[],2196.942,2198.942,2198.942,2198.942,[],[],[],[],[],[],[],,2198.942,2198.942,0.000662252,-0.241721854,0,0,0,,0,8,8,7,1,2,RL,cocewage,cursive,cocewage_c.png,,,,,,
,,,,31933,001,2025-11-07_13h25.12.978,HW_LDT_1,2024.2.4,MacIntel,58.82352941,,,,,,,,,,,,,,,,,,,,,,2198.943,2199.142,2199.142,2199.642,,,,,,,,,,,,,,0.854,1,,,,,,,,,,,,,,m,,,,,,,,,,,,,,,,,10,0,2199.642,2200.508,m,1,0.854,,[],[],[],[],[],[],[],2200.509,2202.508,2202.508,2202.508,[],[],[],[],[],[],[],,2202.509,2202.509,0.000662252,-0.241721854,0,0,0,,0,9,9,92,1,2,word,CATEGORY,print,category_p.png,,,,,,
,,,,31933,001,2025-11-07_13h25.12.978,HW_LDT_1,2024.2.4,MacIntel,58.82352941,,,,,,,,,,,,,,,,,,,,,,2202.51,2202.708,2202.708,2203.208,,,,,,,,,,,,,,0.679,1,,,,,,,,,,,,,,m,,,,,,,,,,,,,,,,,11,0,2203.208,2203.899,m,1,0.679,,[],[],[],[],[],[],[],2203.899,2205.891,2205.891,2205.892,[],[],[],[],[],[],[],,2205.892,2205.892,0.000662252,-0.241721854,0,0,0,,0,10,10,152,1,2,word,SPECIMEN,print,specimen_p.png,,,,,,
,,,,31933,001,2025-11-07_13h25.12.978,HW_LDT_1,2024.2.4,MacIntel,58.82352941,,,,,,,,,,,,,,,,,,,,,,2205.893,2206.092,2206.092,2206.592,,,,,,,,,,,,,,0.545,1,,,,,,,,,,,,,,m,,,,,,,,,,,,,,,,,12,0,2206.592,2207.149,m,1,0.545,,[],[],[],[],[],[],[],2207.149,2209.142,2209.142,2209.142,[],[],[],[],[],[],[],,2209.142,2209.142,0.000662252,-0.241721854,0,0,0,,0,11,11,108,1,2,word,FORTUNE,print,fortune_p.png,,,,,,
,,,,31933,001,2025-11-07_13h25.12.978,HW_LDT_1,2024.2.4,MacIntel,58.82352941,,,,,,,,,,,,,,,,,,,,,,2209.143,2209.342,2209.342,2209.841,,,,,,,,,,,,,,0.741,1,,,,,,,,,,,,,,z,,,,,,,,,,,,,,,,,13,0,2209.842,2210.592,z,1,0.741,,[],[],[],[],[],[],[],2210.592,2212.592,2212.592,2212.592,[],[],[],[],[],[],[],,2212.592,2212.592,0.000662252,-0.241721854,0,0,0,,0,12,12,60,1,2,TL,molibe,print,molibe_p.png,,,,,,
,,,,31933,001,2025-11-07_13h25.12.978,HW_LDT_1,2024.2.4,MacIntel,58.82352941,,,,,,,,,,,,,,,,,,,,,,2212.593,2212.792,2212.792,2213.291,,,,,,,,,,,,,,0.69,1,,,,,,,,,,,,,,m,,,,,,,,,,,,,,,,,14,0,2213.292,2213.992,m,1,0.69,,[],[],[],[],[],[],[],2213.992,2215.992,2215.992,2215.992,[],[],[],[],[],[],[],,2215.992,2215.992,0.000662252,-0.241721854,0,0,0,,0,13,13,93,1,2,word,CEREMONY,print,ceremony_p.png,,,,,,
,,,,31933,001,2025-11-07_13h25.12.978,HW_LDT_1,2024.2.4,MacIntel,58.82352941,,,,,,,,,,,,,,,,,,,,,,2215.993,2216.192,2216.192,2216.691,,,,,,,,,,,,,,0.703,1,,,,,,,,,,,,,,z,,,,,,,,,,,,,,,,,15,0,2216.692,2217.408,z,1,0.703,,[],[],[],[],[],[],[],2217.409,2219.408,2219.408,2219.409,[],[],[],[],[],[],[],,2219.409,2219.409,0.000662252,-0.241721854,0,0,0,,0,14,14,35,1,2,RL,vesofity,print,vesofity_p.png,,,,,,
,,,,31933,001,2025-11-07_13h25.12.978,HW_LDT_1,2024.2.4,MacIntel,58.82352941,,,,,,,,,,,,,,,,,,,,,,2219.41,2219.608,2219.608,2220.107,,,,,,,,,,,,,,0.754,1,,,,,,,,,,,,,,z,,,,,,,,,,,,,,,,,16,0,2220.108,2220.875,z,1,0.754,,[],[],[],[],[],[],[],2220.875,2222.875,2222.875,2222.875,[],[],[],[],[],[],[],,2222.875,2222.875,0.000662252,-0.241721854,0,0,0,,0,15,15,32,1,2,RL,speniven,print,speniven_p.png,,,,,,
,,,,31933,001,2025-11-07_13h25.12.978,HW_LDT_1,2024.2.4,MacIntel,58.82352941,,,,,,,,,,,,,,,,,,,,,,2222.877,2223.075,2223.075,2223.574,,,,,,,,,,,,,,1.088,1,,,,,,,,,,,,,,m,,,,,,,,,,,,,,,,,17,0,2223.574,2224.675,m,1,1.088,,[],[],[],[],[],[],[],2224.675,2226.675,2226.675,2226.675,[],[],[],[],[],[],[],,2226.675,2226.675,0.000662252,-0.241721854,0,0,0,,0,16,16,150,1,2,word,SENTIMENT,cursive,sentiment_c.png,,,,,,
,,,,31933,001,2025-11-07_13h25.12.978,HW_LDT_1,2024.2.4,MacIntel,58.82352941,,,,,,,,,,,,,,,,,,,,,,2226.676,2226.875,2226.875,2227.375,,,,,,,,,,,,,,0.687,1,,,,,,,,,,,,,,z,,,,,,,,,,,,,,,,,18,0,2227.376,2228.075,z,1,0.687,,[],[],[],[],[],[],[],2228.075,2230.075,2230.075,2230.075,[],[],[],[],[],[],[],,2230.075,2230.075,0.000662252,-0.241721854,0,0,0,,0,17,17,25,1,2,RL,rabigly,print,rabigly_p.png,,,,,,
,,,,31933,001,2025-11-07_13h25.12.978,HW_LDT_1,2024.2.4,MacIntel,58.82352941,,,,,,,,,,,,,,,,,,,,,,2230.076,2230.275,2230.275,2230.775,,,,,,,,,,,,,,0.654,0,,,,,,,,,,,,,,z,,,,,,,,,,,,,,,,,19,1,2230.776,2231.442,m,0,0.654,,[],[],[],[],[],[],[],2231.442,2233.442,2233.442,2234.642,[],[],[],[],[],[],[],m,2234.642,2234.642,0.000662252,-0.241721854,0,0,0,,0,18,18,50,1,2,TL,donimant,print,donimant_p.png,1.19,,,,,
,,,,31933,001,2025-11-07_13h25.12.978,HW_LDT_1,2024.2.4,MacIntel,58.82352941,,,,,,,,,,,,,,,,,,,,,,2234.643,2234.842,2234.842,2235.342,,,,,,,,,,,,,,1.737,1,,,,,,,,,,,,,,z,,,,,,,,,,,,,,,,,20,0,2235.342,2237.092,z,1,1.737,,[],[],[],[],[],[],[],2237.092,2239.092,2239.092,2239.092,[],[],[],[],[],[],[],,2239.092,2239.092,0.000662252,-0.241721854,0,0,0,,0,19,19,44,1,2,TL,catipal,cursive,catipal_c.png,,,,,,
,,,,31933,001,2025-11-07_13h25.12.978,HW_LDT_1,2024.2.4,MacIntel,58.82352941,,,,,,,,,,,,,,,,,,,,,,2239.093,2239.291,2239.291,2239.792,,,,,,,,,,,,,,0.892,0,,,,,,,,,,,,,,m,,,,,,,,,,,,,,,,,21,1,2239.792,2240.692,z,0,0.892,,[],[],[],[],[],[],[],2240.692,2242.692,2242.692,2243.925,[],[],[],[],[],[],[],z,2243.925,2243.925,0.000662252,-0.241721854,0,0,0,,0,20,20,105,1,2,word,EDITOR,cursive,editor_c.png,1.221,,,,,
,,,,31933,001,2025-11-07_13h25.12.978,HW_LDT_1,2024.2.4,MacIntel,58.82352941,,,,,,,,,,,,,,,,,,,,,,2243.927,2244.125,2244.125,2244.625,,,,,,,,,,,,,,2.457,1,,,,,,,,,,,,,,z,,,,,,,,,,,,,,,,,22,0,2244.625,2247.092,z,1,2.457,,[],[],[],[],[],[],[],2247.092,2249.092,2249.092,2249.092,[],[],[],[],[],[],[],,2249.092,2249.092,0.000662252,-0.241721854,0,0,0,,0,21,21,28,1,2,RL,revune,cursive,revune_c.png,,,,,,
,,,,31933,001,2025-11-07_13h25.12.978,HW_LDT_1,2024.2.4,MacIntel,58.82352941,,,,,,,,,,,,,,,,,,,,,,2249.093,2249.291,2249.292,2249.792,,,,,,,,,,,,,,0.627,1,,,,,,,,,,,,,,m,,,,,,,,,,,,,,,,,23,0,2249.792,2250.433,m,1,0.627,,[],[],[],[],[],[],[],2250.433,2252.425,2252.425,2252.426,[],[],[],[],[],[],[],,2252.426,2252.426,0.000662252,-0.241721854,0,0,0,,0,22,22,147,1,2,word,ROMANTIC,print,romantic_p.png,,,,,,
,,,,31933,001,2025-11-07_13h25.12.978,HW_LDT_1,2024.2.4,MacIntel,58.82352941,,,,,,,,,,,,,,,,,,,,,,2252.427,2252.625,2252.625,2253.125,,,,,,,,,,,,,,0.972,1,,,,,,,,,,,,,,m,,,,,,,,,,,,,,,,,24,0,2253.126,2254.108,m,1,0.972,,[],[],[],[],[],[],[],2254.108,2256.108,2256.109,2256.109,[],[],[],[],[],[],[],,2256.109,2256.109,0.000662252,-0.241721854,0,0,0,,0,23,23,82,1,2,word,AMATEUR,cursive,amateur_c.png,,,,,,
,,,,31933,001,2025-11-07_13h25.12.978,HW_LDT_1,2024.2.4,MacIntel,58.82352941,,,,,,,,,,,,,,,,,,,,,,2256.11,2256.308,2256.308,2256.808,,,,,,,,,,,,,,2.808,1,,,,,,,,,,,,,,z,,,,,,,,,,,,,,,,,25,0,2256.809,2259.625,z,1,2.808,,[],[],[],[],[],[],[],2259.625,2261.625,2261.625,2261.625,[],[],[],[],[],[],[],,2261.625,2261.625,0.000662252,-0.241721854,0,0,0,,0,24,24,53,1,2,TL,edivent,cursive,edivent_c.png,,,,,,
,,,,31933,001,2025-11-07_13h25.12.978,HW_LDT_1,2024.2.4,MacIntel,58.82352941,,,,,,,,,,,,,,,,,,,,,,2261.626,2261.825,2261.825,2262.325,,,,,,,,,,,,,,0.828,1,,,,,,,,,,,,,,z,,,,,,,,,,,,,,,,,26,0,2262.325,2263.158,z,1,0.828,,[],[],[],[],[],[],[],2263.158,2265.158,2265.158,2265.158,[],[],[],[],[],[],[],,2265.159,2265.159,0.000662252,-0.241721854,0,0,0,,0,25,25,49,1,2,TL,dedace,print,dedace_p.png,,,,,,
,,,,31933,001,2025-11-07_13h25.12.978,HW_LDT_1,2024.2.4,MacIntel,58.82352941,,,,,,,,,,,,,,,,,,,,,,2265.16,2265.358,2265.358,2265.858,,,,,,,,,,,,,,1.02,1,,,,,,,,,,,,,,z,,,,,,,,,,,,,,,,,27,0,2265.859,2266.891,z,1,1.02,,[],[],[],[],[],[],[],2266.891,2268.892,2268.892,2268.892,[],[],[],[],[],[],[],,2268.892,2268.892,0.000662252,-0.241721854,0,0,0,,0,26,26,74,1,2,TL,rerite,cursive,rerite_c.png,,,,,,
,,,,31933,001,2025-11-07_13h25.12.978,HW_LDT_1,2024.2.4,MacIntel,58.82352941,,,,,,,,,,,,,,,,,,,,,,2268.894,2269.092,2269.092,2269.591,,,,,,,,,,,,,,5.492,1,,,,,,,,,,,,,,m,,,,,,,,,,,,,,,,,28,0,2269.592,2275.092,m,1,5.492,,[],[],[],[],[],[],[],2275.092,2277.091,2277.092,2277.092,[],[],[],[],[],[],[],,2277.092,2277.092,0.000662252,-0.241721854,0,0,0,,0,27,27,119,1,2,word,MEMORY,cursive,memory_c.png,,,,,,
,,,,31933,001,2025-11-07_13h25.12.978,HW_LDT_1,2024.2.4,MacIntel,58.82352941,,,,,,,,,,,,,,,,,,,,,,2277.093,2277.292,2277.292,2277.792,,,,,,,,,,,,,,0.706,1,,,,,,,,,,,,,,m,,,,,,,,,,,,,,,,,29,0,2277.792,2278.508,m,1,0.706,,[],[],[],[],[],[],[],2278.509,2280.508,2280.508,2280.509,[],[],[],[],[],[],[],,2280.509,2280.509,0.000662252,-0.241721854,0,0,0,,0,28,28,118,1,2,word,MEDICINE,print,medicine_p.png,,,,,,
,,,,31933,001,2025-11-07_13h25.12.978,HW_LDT_1,2024.2.4,MacIntel,58.82352941,,,,,,,,,,,,,,,,,,,,,,2280.51,2280.708,2280.709,2281.208,,,,,,,,,,,,,,1.087,1,,,,,,,,,,,,,,m,,,,,,,,,,,,,,,,,30,1,2281.209,2282.308,m,1,1.087,,[],[],[],[],[],[],[],2282.308,2284.309,2284.309,2285.558,[],[],[],[],[],[],[],z,2285.558,2285.558,0.000662252,-0.241721854,0,0,0,,0,29,29,134,1,2,word,QUALIFY,cursive,qualify_c.png,1.242,,,,,
,,,,31933,001,2025-11-07_13h25.12.978,HW_LDT_1,2024.2.4,MacIntel,58.82352941,,,,,,,,,,,,,,,,,,,,,,2285.56,2285.758,2285.758,2286.258,,,,,,,,,,,,,,2.137,1,,,,,,,,,,,,,,z,,,,,,,,,,,,,,,,,31,1,2286.259,2288.408,z,1,2.137,,[],[],[],[],[],[],[],2288.409,2290.408,2290.409,2291.575,[],[],[],[],[],[],[],z,2291.575,2291.575,0.000662252,-0.241721854,0,0,0,,0,30,30,45,1,2,TL,carnidal,cursive,carnidal_c.png,1.157,,,,,
,,,,31933,001,2025-11-07_13h25.12.978,HW_LDT_1,2024.2.4,MacIntel,58.82352941,,,,,,,,,,,,,,,,,,,,,,2291.576,2291.775,2291.775,2292.275,,,,,,,,,,,,,,1.104,1,,,,,,,,,,,,,,z,,,,,,,,,,,,,,,,,32,0,2292.276,2293.392,z,1,1.104,,[],[],[],[],[],[],[],2293.392,2295.392,2295.392,2295.392,[],[],[],[],[],[],[],,2295.392,2295.392,0.000662252,-0.241721854,0,0,0,,0,31,31,22,1,2,RL,posity,print,posity_p.png,,,,,,
,,,,31933,001,2025-11-07_13h25.12.978,HW_LDT_1,2024.2.4,MacIntel,58.82352941,,,,,,,,,,,,,,,,,,,,,,2295.393,2295.592,2295.592,2296.092,,,,,,,,,,,,,,0.594,1,,,,,,,,,,,,,,m,,,,,,,,,,,,,,,,,33,0,2296.092,2296.699,m,1,0.594,,[],[],[],[],[],[],[],2296.699,2298.692,2298.692,2298.692,[],[],[],[],[],[],[],,2298.692,2298.692,0.000662252,-0.241721854,0,0,0,,0,32,32,99,1,2,word,DEBATE,print,debate_p.png,,,,,,
,,,,31933,001,2025-11-07_13h25.12.978,HW_LDT_1,2024.2.4,MacIntel,58.82352941,,,,,,,,,,,,,,,,,,,,,,2298.694,2298.892,2298.892,2299.392,,,,,,,,,,,,,,3.746,1,,,,,,,,,,,,,,z,,,,,,,,,,,,,,,,,34,0,2299.392,2303.142,z,1,3.746,,[],[],[],[],[],[],[],2303.142,2305.142,2305.142,2305.142,[],[],[],[],[],[],[],,2305.142,2305.143,0.000662252,-0.241721854,0,0,0,,0,33,33,67,1,2,TL,quafily,cursive,quafily_c.png,,,,,,
,,,,31933,001,2025-11-07_13h25.12.978,HW_LDT_1,2024.2.4,MacIntel,58.82352941,,,,,,,,,,,,,,,,,,,,,,2305.143,2305.342,2305.342,2305.842,,,,,,,,,,,,,,1.153,1,,,,,,,,,,,,,,z,,,,,,,,,,,,,,,,,35,0,2305.842,2307.008,z,1,1.153,,[],[],[],[],[],[],[],2307.008,2309.008,2309.008,2309.009,[],[],[],[],[],[],[],,2309.009,2309.009,0.000662252,-0.241721854,0,0,0,,0,34,34,73,1,2,TL,redisent,print,redisent_p.png,,,,,,
,,,,31933,001,2025-11-07_13h25.12.978,HW_LDT_1,2024.2.4,MacIntel,58.82352941,,,,,,,,,,,,,,,,,,,,,,2309.01,2309.208,2309.208,2309.708,,,,,,,,,,,,,,0.774,1,,,,,,,,,,,,,,z,,,,,,,,,,,,,,,,,36,0,2309.709,2310.492,z,1,0.774,,[],[],[],[],[],[],[],2310.492,2312.492,2312.492,2312.492,[],[],[],[],[],[],[],,2312.492,2312.492,0.000662252,-0.241721854,0,0,0,,0,35,35,3,1,2,RL,capefory,print,capefory_p.png,,,,,,
,,,,31933,001,2025-11-07_13h25.12.978,HW_LDT_1,2024.2.4,MacIntel,58.82352941,,,,,,,,,,,,,,,,,,,,,,2312.493,2312.692,2312.692,2313.192,,,,,,,,,,,,,,0.637,1,,,,,,,,,,,,,,m,,,,,,,,,,,,,,,,,37,0,2313.192,2313.841,m,1,0.637,,[],[],[],[],[],[],[],2313.841,2315.842,2315.842,2315.842,[],[],[],[],[],[],[],,2315.842,2315.842,0.000662252,-0.241721854,0,0,0,,0,36,36,81,1,2,word,ADVISORY,print,advisory_p.png,,,,,,
,,,,31933,001,2025-11-07_13h25.12.978,HW_LDT_1,2024.2.4,MacIntel,58.82352941,,,,,,,,,,,,,,,,,,,,,,2315.843,2316.042,2316.042,2316.542,,,,,,,,,,,,,,4.626,1,,,,,,,,,,,,,,z,,,,,,,,,,,,,,,,,38,1,2316.542,2321.175,z,1,4.626,,[],[],[],[],[],[],[],2321.175,2323.175,2323.175,2324.192,[],[],[],[],[],[],[],z,2324.192,2324.192,0.000662252,-0.241721854,0,0,0,,0,37,37,76,1,2,TL,senmitent,cursive,senmitent_c.png,1.009,,,,,
,,,,31933,001,2025-11-07_13h25.12.978,HW_LDT_1,2024.2.4,MacIntel,58.82352941,,,,,,,,,,,,,,,,,,,,,,2324.193,2324.392,2324.392,2324.891,,,,,,,,,,,,,,3.804,1,,,,,,,,,,,,,,z,,,,,,,,,,,,,,,,,39,0,2324.892,2328.708,z,1,3.804,,[],[],[],[],[],[],[],2328.709,2330.708,2330.708,2330.708,[],[],[],[],[],[],[],,2330.708,2330.708,0.000662252,-0.241721854,0,0,0,,0,38,38,20,1,2,RL,onegator,cursive,onegator_c.png,,,,,,
,,,,31933,001,2025-11-07_13h25.12.978,HW_LDT_1,2024.2.4,MacIntel,58.82352941,,,,,,,,,,,,,,,,,,,,,,2330.71,2330.908,2330.908,2331.408,,,,,,,,,,,,,,1.074,1,,,,,,,,,,,,,,m,,,,,,,,,,,,,,,,,40,0,2331.409,2332.492,m,1,1.074,,[],[],[],[],[],[],[],2332.492,2334.492,2334.492,2334.492,[],[],[],[],[],[],[],,2334.492,2334.492,0.000662252,-0.241721854,0,0,0,,0,39,39,155,1,2,word,STRATEGY,cursive,strategy_c.png,,,,,,
,,,,31933,001,2025-11-07_13h25.12.978,HW_LDT_1,2024.2.4,MacIntel,58.82352941,,,,,,,,,,,,,,,,,,,,,,2334.493,2334.691,2334.691,2335.192,,,,,,,,,,,,,,1.703,1,,,,,,,,,,,,,,z,,,,,,,,,,,,,,,,,41,0,2335.192,2336.908,z,1,1.703,,[],[],[],[],[],[],[],2336.909,2338.908,2338.908,2338.909,[],[],[],[],[],[],[],,2338.909,2338.909,0.000662252,-0.241721854,0,0,0,,0,40,40,24,1,2,RL,rasibal,cursive,rasibal_c.png,,,,,,
,,,,31933,001,2025-11-07_13h25.12.978,HW_LDT_1,2024.2.4,MacIntel,58.82352941,,,,,,,,,,,,,,,,,,,,,,2338.91,2339.108,2339.108,2339.608,,,,,,,,,,,,,,2.806,1,,,,,,,,,,,,,,z,,,,,,,,,,,,,,,,,42,0,2339.609,2342.425,z,1,2.806,,[],[],[],[],[],[],[],2342.425,2344.425,2344.425,2344.425,[],[],[],[],[],[],[],,2344.425,2344.425,0.000662252,-0.241721854,0,0,0,,0,41,41,56,1,2,TL,marnigal,cursive,marnigal_c.png,,,,,,
,,,,31933,001,2025-11-07_13h25.12.978,HW_LDT_1,2024.2.4,MacIntel,58.82352941,,,,,,,,,,,,,,,,,,,,,,2344.426,2344.625,2344.625,2345.125,,,,,,,,,,,,,,1.193,1,,,,,,,,,,,,,,m,,,,,,,,,,,,,,,,,43,0,2345.126,2346.332,m,1,1.193,,[],[],[],[],[],[],[],2346.332,2348.325,2348.325,2348.325,[],[],[],[],[],[],[],,2348.325,2348.326,0.000662252,-0.241721854,0,0,0,,0,42,42,145,1,2,word,RESUME,cursive,resume_c.png,,,,,,
,,,,31933,001,2025-11-07_13h25.12.978,HW_LDT_1,2024.2.4,MacIntel,58.82352941,,,,,,,,,,,,,,,,,,,,,,2348.326,2348.525,2348.525,2349.025,,,,,,,,,,,,,,3.526,1,,,,,,,,,,,,,,z,,,,,,,,,,,,,,,,,44,1,2349.025,2352.558,z,1,3.526,,[],[],[],[],[],[],[],2352.558,2354.558,2354.558,2355.559,[],[],[],[],[],[],[],z,2355.559,2355.559,0.000662252,-0.241721854,0,0,0,,0,43,43,68,1,2,TL,quatily,cursive,quatily_c.png,0.989,,,,,
,,,,31933,001,2025-11-07_13h25.12.978,HW_LDT_1,2024.2.4,MacIntel,58.82352941,,,,,,,,,,,,,,,,,,,,,,2355.56,2355.758,2355.758,2356.258,,,,,,,,,,,,,,1.155,1,,,,,,,,,,,,,,m,,,,,,,,,,,,,,,,,45,0,2356.259,2357.425,m,1,1.155,,[],[],[],[],[],[],[],2357.425,2359.425,2359.425,2359.425,[],[],[],[],[],[],[],,2359.425,2359.425,0.000662252,-0.241721854,0,0,0,,0,44,44,157,1,2,word,VALIDITY,print,validity_p.png,,,,,,
,,,,31933,001,2025-11-07_13h25.12.978,HW_LDT_1,2024.2.4,MacIntel,58.82352941,,,,,,,,,,,,,,,,,,,,,,2359.427,2359.625,2359.625,2360.125,,,,,,,,,,,,,,1.053,1,,,,,,,,,,,,,,m,,,,,,,,,,,,,,,,,46,0,2360.125,2361.192,m,1,1.053,,[],[],[],[],[],[],[],2361.192,2363.192,2363.192,2363.192,[],[],[],[],[],[],[],,2363.192,2363.192,0.000662252,-0.241721854,0,0,0,,0,45,45,141,1,2,word,RELIGION,cursive,religion_c.png,,,,,,
,,,,31933,001,2025-11-07_13h25.12.978,HW_LDT_1,2024.2.4,MacIntel,58.82352941,,,,,,,,,,,,,,,,,,,,,,2363.193,2363.392,2363.392,2363.892,,,,,,,,,,,,,,0.657,1,,,,,,,,,,,,,,m,,,,,,,,,,,,,,,,,47,0,2363.892,2364.558,m,1,0.657,,[],[],[],[],[],[],[],2364.558,2366.558,2366.558,2366.559,[],[],[],[],[],[],[],,2366.559,2366.559,0.000662252,-0.241721854,0,0,0,,0,46,46,143,1,2,word,REMOVAL,print,removal_p.png,,,,,,
,,,,31933,001,2025-11-07_13h25.12.978,HW_LDT_1,2024.2.4,MacIntel,58.82352941,,,,,,,,,,,,,,,,,,,,,,2366.56,2366.758,2366.758,2367.258,,,,,,,,,,,,,,0.554,1,,,,,,,,,,,,,,m,,,,,,,,,,,,,,,,,48,0,2367.259,2367.825,m,1,0.554,,[],[],[],[],[],[],[],2367.825,2369.825,2369.825,2369.825,[],[],[],[],[],[],[],,2369.825,2369.826,0.000662252,-0.241721854,0,0,0,,0,47,47,100,1,2,word,DECADE,print,decade_p.png,,,,,,
,,,,31933,001,2025-11-07_13h25.12.978,HW_LDT_1,2024.2.4,MacIntel,58.82352941,,,,,,,,,,,,,,,,,,,,,,2369.827,2370.025,2370.025,2370.524,,,,,,,,,,,,,,1.272,0,,,,,,,,,,,,,,m,,,,,,,,,,,,,,,,,49,0,2370.525,2371.808,z,0,1.272,,[],[],[],[],[],[],[],2371.808,2373.808,2373.808,2373.809,[],[],[],[],[],[],[],,2373.809,2373.809,0.000662252,-0.241721854,0,0,0,,0,48,48,120,1,2,word,MILITARY,cursive,military_c.png,,,,,,
,,,,31933,001,2025-11-07_13h25.12.978,HW_LDT_1,2024.2.4,MacIntel,58.82352941,,,,,,,,,,,,,,,,,,,,,,2373.81,2374.008,2374.009,2374.508,,,,,,,,,,,,,,0.705,1,,,,,,,,,,,,,,m,,,,,,,,,,,,,,,,,50,0,2374.509,2375.225,m,1,0.705,,[],[],[],[],[],[],[],2375.225,2377.224,2377.225,2377.225,[],[],[],[],[],[],[],,2377.225,2377.225,0.000662252,-0.241721854,0,0,0,,0,49,49,83,1,2,word,ANIMAL,print,animal_p.png,,,,,,
,,,,31933,001,2025-11-07_13h25.12.978,HW_LDT_1,2024.2.4,MacIntel,58.82352941,,,,,,,,,,,,,,,,,,,,,,2377.226,2377.425,2377.425,2377.925,,,,,,,,,,,,,,0.628,1,,,,,,,,,,,,,,m,,,,,,,,,,,,,,,,,51,0,2377.926,2378.565,m,1,0.628,,[],[],[],[],[],[],[],2378.565,2380.558,2380.558,2380.559,[],[],[],[],[],[],[],,2380.559,2380.559,0.000662252,-0.241721854,0,0,0,,0,50,50,80,1,2,word,ACADEMY,cursive,academy_c.png,,,,,,
,,,,31933,001,2025-11-07_13h25.12.978,HW_LDT_1,2024.2.4,MacIntel,58.82352941,,,,,,,,,,,,,,,,,,,,,,2380.56,2380.758,2380.758,2381.258,,,,,,,,,,,,,,0.806,1,,,,,,,,,,,,,,z,,,,,,,,,,,,,,,,,52,0,2381.259,2382.075,z,1,0.806,,[],[],[],[],[],[],[],2382.075,2384.075,2384.075,2384.075,[],[],[],[],[],[],[],,2384.075,2384.075,0.000662252,-0.241721854,0,0,0,,0,51,51,8,1,2,RL,desifate,print,desifate_p.png,,,,,,
,,,,31933,001,2025-11-07_13h25.12.978,HW_LDT_1,2024.2.4,MacIntel,58.82352941,,,,,,,,,,,,,,,,,,,,,,2384.076,2384.275,2384.275,2384.775,,,,,,,,,,,,,,0.858,1,,,,,,,,,,,,,,z,,,,,,,,,,,,,,,,,53,0,2384.776,2385.642,z,1,0.858,,[],[],[],[],[],[],[],2385.642,2387.642,2387.642,2387.642,[],[],[],[],[],[],[],,2387.642,2387.644,0.000662252,-0.241721854,0,0,0,,0,52,52,78,1,2,TL,stogare,print,stogare_p.png,,,,,,
,,,,31933,001,2025-11-07_13h25.12.978,HW_LDT_1,2024.2.4,MacIntel,58.82352941,,,,,,,,,,,,,,,,,,,,,,2387.645,2387.842,2387.842,2388.342,,,,,,,,,,,,,,2.477,0,,,,,,,,,,,,,,z,,,,,,,,,,,,,,,,,54,0,2388.343,2390.832,m,0,2.477,,[],[],[],[],[],[],[],2390.832,2392.825,2392.825,2392.826,[],[],[],[],[],[],[],,2392.826,2392.826,0.000662252,-0.241721854,0,0,0,,0,53,53,34,1,2,RL,trilude,cursive,trilude_c.png,,,,,,
,,,,31933,001,2025-11-07_13h25.12.978,HW_LDT_1,2024.2.4,MacIntel,58.82352941,,,,,,,,,,,,,,,,,,,,,,2392.828,2393.025,2393.025,2393.525,,,,,,,,,,,,,,0.904,1,,,,,,,,,,,,,,m,,,,,,,,,,,,,,,,,55,0,2393.526,2394.442,m,1,0.904,,[],[],[],[],[],[],[],2394.442,2396.442,2396.442,2396.442,[],[],[],[],[],[],[],,2396.442,2396.442,0.000662252,-0.241721854,0,0,0,,0,54,54,86,1,2,word,BESIDE,cursive,beside_c.png,,,,,,
,,,,31933,001,2025-11-07_13h25.12.978,HW_LDT_1,2024.2.4,MacIntel,58.82352941,,,,,,,,,,,,,,,,,,,,,,2396.443,2396.641,2396.641,2397.142,,,,,,,,,,,,,,1.354,1,,,,,,,,,,,,,,m,,,,,,,,,,,,,,,,,56,0,2397.142,2398.508,m,1,1.354,,[],[],[],[],[],[],[],2398.509,2400.508,2400.508,2400.509,[],[],[],[],[],[],[],,2400.509,2400.509,0.000662252,-0.241721854,0,0,0,,0,55,55,135,1,2,word,QUALITY,cursive,quality_c.png,,,,,,
,,,,31933,001,2025-11-07_13h25.12.978,HW_LDT_1,2024.2.4,MacIntel,58.82352941,,,,,,,,,,,,,,,,,,,,,,2400.51,2400.707,2400.707,2401.208,,,,,,,,,,,,,,1.446,1,,,,,,,,,,,,,,z,,,,,,,,,,,,,,,,,57,0,2401.209,2402.658,z,1,1.446,,[],[],[],[],[],[],[],2402.659,2404.658,2404.658,2404.658,[],[],[],[],[],[],[],,2404.658,2404.658,0.000662252,-0.241721854,0,0,0,,0,56,56,42,1,2,TL,bedise,cursive,bedise_c.png,,,,,,
,,,,31933,001,2025-11-07_13h25.12.978,HW_LDT_1,2024.2.4,MacIntel,58.82352941,,,,,,,,,,,,,,,,,,,,,,2404.659,2404.858,2404.858,2405.358,,,,,,,,,,,,,,0.621,1,,,,,,,,,,,,,,m,,,,,,,,,,,,,,,,,58,0,2405.359,2405.992,m,1,0.621,,[],[],[],[],[],[],[],2405.992,2407.991,2407.991,2407.992,[],[],[],[],[],[],[],,2407.992,2407.992,0.000662252,-0.241721854,0,0,0,,0,57,57,114,1,2,word,LOCATE,print,locate_p.png,,,,,,
,,,,31933,001,2025-11-07_13h25.12.978,HW_LDT_1,2024.2.4,MacIntel,58.82352941,,,,,,,,,,,,,,,,,,,,,,2407.993,2408.192,2408.192,2408.692,,,,,,,,,,,,,,0.96,1,,,,,,,,,,,,,,z,,,,,,,,,,,,,,,,,59,0,2408.692,2409.658,z,1,0.96,,[],[],[],[],[],[],[],2409.658,2411.658,2411.658,2411.659,[],[],[],[],[],[],[],,2411.659,2411.659,0.000662252,-0.241721854,0,0,0,,0,58,58,18,1,2,RL,mesibine,print,mesibine_p.png,,,,,,
,,,,31933,001,2025-11-07_13h25.12.978,HW_LDT_1,2024.2.4,MacIntel,58.82352941,,,,,,,,,,,,,,,,,,,,,,2411.66,2411.858,2411.859,2412.358,,,,,,,,,,,,,,1.138,1,,,,,,,,,,,,,,z,,,,,,,,,,,,,,,,,60,0,2412.358,2413.508,z,1,1.138,,[],[],[],[],[],[],[],2413.508,2415.508,2415.508,2415.508,[],[],[],[],[],[],[],,2415.509,2415.509,0.000662252,-0.241721854,0,0,0,,0,59,59,39,1,2,TL,aminal,print,aminal_p.png,,,,,,
,,,,31933,001,2025-11-07_13h25.12.978,HW_LDT_1,2024.2.4,MacIntel,58.82352941,,,,,,,,,,,,,,,,,,,,,,2415.51,2415.708,2415.708,2416.208,,,,,,,,,,,,,,0.825,1,,,,,,,,,,,,,,z,,,,,,,,,,,,,,,,,61,0,2416.209,2417.042,z,1,0.825,,[],[],[],[],[],[],[],2417.042,2419.042,2419.042,2419.042,[],[],[],[],[],[],[],,2419.043,2419.043,0.000662252,-0.241721854,0,0,0,,0,60,60,77,1,2,TL,sloten,print,sloten_p.png,,,,,,
,,,,31933,001,2025-11-07_13h25.12.978,HW_LDT_1,2024.2.4,MacIntel,58.82352941,,,,,,,,,,,,,,,,,,,,,,2419.043,2419.242,2419.242,2419.742,,,,,,,,,,,,,,1.026,1,,,,,,,,,,,,,,z,,,,,,,,,,,,,,,,,62,0,2419.742,2420.775,z,1,1.026,,[],[],[],[],[],[],[],2420.775,2422.775,2422.775,2422.775,[],[],[],[],[],[],[],,2422.775,2422.776,0.000662252,-0.241721854,0,0,0,,0,61,61,48,1,2,TL,detabe,print,detabe_p.png,,,,,,
,,,,31933,001,2025-11-07_13h25.12.978,HW_LDT_1,2024.2.4,MacIntel,58.82352941,,,,,,,,,,,,,,,,,,,,,,2422.776,2422.974,2422.975,2423.475,,,,,,,,,,,,,,0.828,1,,,,,,,,,,,,,,m,,,,,,,,,,,,,,,,,63,0,2423.475,2424.316,m,1,0.828,,[],[],[],[],[],[],[],2424.316,2426.308,2426.308,2426.309,[],[],[],[],[],[],[],,2426.309,2426.309,0.000662252,-0.241721854,0,0,0,,0,62,62,91,1,2,word,CARDINAL,cursive,cardinal_c.png,,,,,,
,,,,31933,001,2025-11-07_13h25.12.978,HW_LDT_1,2024.2.4,MacIntel,58.82352941,,,,,,,,,,,,,,,,,,,,,,2426.31,2426.508,2426.508,2427.008,,,,,,,,,,,,,,3.361,1,,,,,,,,,,,,,,z,,,,,,,,,,,,,,,,,64,0,2427.009,2430.375,z,1,3.361,,[],[],[],[],[],[],[],2430.375,2432.375,2432.375,2432.375,[],[],[],[],[],[],[],,2432.376,2432.376,0.000662252,-0.241721854,0,0,0,,0,63,63,52,1,2,TL,elarobate,cursive,elarobate_c.png,,,,,,
,,,,31933,001,2025-11-07_13h25.12.978,HW_LDT_1,2024.2.4,MacIntel,58.82352941,,,,,,,,,,,,,,,,,,,,,,2432.377,2432.575,2432.575,2433.075,,,,,,,,,,,,,,1.82,1,,,,,,,,,,,,,,m,,,,,,,,,,,,,,,,,65,0,2433.076,2434.909,m,1,1.82,,[],[],[],[],[],[],[],2434.909,2436.908,2436.909,2436.909,[],[],[],[],[],[],[],,2436.909,2436.909,0.000662252,-0.241721854,0,0,0,,0,64,64,85,1,2,word,BENEFIT,cursive,benefit_c.png,,,,,,
,,,,31933,001,2025-11-07_13h25.12.978,HW_LDT_1,2024.2.4,MacIntel,58.82352941,,,,,,,,,,,,,,,,,,,,,,2436.91,2437.107,2437.108,2437.608,,,,,,,,,,,,,,0.725,0,,,,,,,,,,,,,,z,,,,,,,,,,,,,,,,,66,0,2437.609,2438.342,m,0,0.725,,[],[],[],[],[],[],[],2438.342,2440.342,2440.342,2440.342,[],[],[],[],[],[],[],,2440.342,2440.342,0.000662252,-0.241721854,0,0,0,,0,65,65,79,1,2,TL,vadility,print,vadility_p.png,,,,,,
,,,,31933,001,2025-11-07_13h25.12.978,HW_LDT_1,2024.2.4,MacIntel,58.82352941,,,,,,,,,,,,,,,,,,,,,,2440.343,2440.542,2440.542,2441.041,,,,,,,,,,,,,,0.911,1,,,,,,,,,,,,,,m,,,,,,,,,,,,,,,,,67,0,2441.041,2441.965,m,1,0.911,,[],[],[],[],[],[],[],2441.965,2443.958,2443.958,2443.959,[],[],[],[],[],[],[],,2443.959,2443.959,0.000662252,-0.241721854,0,0,0,,0,66,66,137,1,2,word,RAPIDLY,print,rapidly_p.png,,,,,,
,,,,31933,001,2025-11-07_13h25.12.978,HW_LDT_1,2024.2.4,MacIntel,58.82352941,,,,,,,,,,,,,,,,,,,,,,2443.96,2444.158,2444.158,2444.658,,,,,,,,,,,,,,0.721,1,,,,,,,,,,,,,,m,,,,,,,,,,,,,,,,,68,0,2444.659,2445.392,m,1,0.721,,[],[],[],[],[],[],[],2445.392,2447.392,2447.392,2447.392,[],[],[],[],[],[],[],,2447.392,2447.392,0.000662252,-0.241721854,0,0,0,,0,67,67,122,1,2,word,MOBILE,print,mobile_p.png,,,,,,
,,,,31933,001,2025-11-07_13h25.12.978,HW_LDT_1,2024.2.4,MacIntel,58.82352941,,,,,,,,,,,,,,,,,,,,,,2447.393,2447.592,2447.592,2448.091,,,,,,,,,,,,,,4.238,0,,,,,,,,,,,,,,m,,,,,,,,,,,,,,,,,69,0,2448.092,2452.342,z,0,4.238,,[],[],[],[],[],[],[],2452.342,2454.342,2454.342,2454.342,[],[],[],[],[],[],[],,2454.342,2454.342,0.000662252,-0.241721854,0,0,0,,0,68,68,109,1,2,word,GRATEFUL,cursive,grateful_c.png,,,,,,
,,,,31933,001,2025-11-07_13h25.12.978,HW_LDT_1,2024.2.4,MacIntel,58.82352941,,,,,,,,,,,,,,,,,,,,,,2454.343,2454.542,2454.542,2455.042,,,,,,,,,,,,,,1.111,1,,,,,,,,,,,,,,m,,,,,,,,,,,,,,,,,70,0,2455.042,2456.165,m,1,1.111,,[],[],[],[],[],[],[],2456.165,2458.158,2458.158,2458.158,[],[],[],[],[],[],[],,2458.158,2458.158,0.000662252,-0.241721854,0,0,0,,0,69,69,159,1,2,word,VETERAN,print,veteran_p.png,,,,,,
,,,,31933,001,2025-11-07_13h25.12.978,HW_LDT_1,2024.2.4,MacIntel,58.82352941,,,,,,,,,,,,,,,,,,,,,,2458.159,2458.358,2458.358,2458.859,,,,,,,,,,,,,,6.487,1,,,,,,,,,,,,,,m,,,,,,,,,,,,,,,,,71,0,2458.86,2465.358,m,1,6.487,,[],[],[],[],[],[],[],2465.359,2467.358,2467.358,2467.359,[],[],[],[],[],[],[],,2467.359,2467.359,0.000662252,-0.241721854,0,0,0,,0,70,70,124,1,2,word,NUMERICAL,cursive,numerical_c.png,,,,,,
,,,,31933,001,2025-11-07_13h25.12.978,HW_LDT_1,2024.2.4,MacIntel,58.82352941,,,,,,,,,,,,,,,,,,,,,,2467.36,2467.558,2467.558,2468.058,,,,,,,,,,,,,,2.021,1,,,,,,,,,,,,,,z,,,,,,,,,,,,,,,,,72,1,2468.059,2470.092,z,1,2.021,,[],[],[],[],[],[],[],2470.092,2472.092,2472.092,2473.192,[],[],[],[],[],[],[],z,2473.192,2473.192,0.000662252,-0.241721854,0,0,0,,0,71,71,58,1,2,TL,mitilary,cursive,mitilary_c.png,1.088,,,,,
,,,,31933,001,2025-11-07_13h25.12.978,HW_LDT_1,2024.2.4,MacIntel,58.82352941,,,,,,,,,,,,,,,,,,,,,,2473.194,2473.391,2473.391,2473.892,,,,,,,,,,,,,,2.493,1,,,,,,,,,,,,,,z,,,,,,,,,,,,,,,,,73,0,2473.892,2476.392,z,1,2.493,,[],[],[],[],[],[],[],2476.392,2478.392,2478.392,2478.392,[],[],[],[],[],[],[],,2478.392,2478.392,0.000662252,-0.241721854,0,0,0,,0,72,72,38,1,2,TL,atameur,cursive,atameur_c.png,,,,,,
,,,,31933,001,2025-11-07_13h25.12.978,HW_LDT_1,2024.2.4,MacIntel,58.82352941,,,,,,,,,,,,,,,,,,,,,,2478.393,2478.591,2478.591,2479.092,,,,,,,,,,,,,,0.643,1,,,,,,,,,,,,,,m,,,,,,,,,,,,,,,,,74,0,2479.092,2479.748,m,1,0.643,,[],[],[],[],[],[],[],2479.748,2481.742,2481.742,2481.742,[],[],[],[],[],[],[],,2481.742,2481.742,0.000662252,-0.241721854,0,0,0,,0,73,73,87,1,2,word,CAFETERIA,print,cafeteria_p.png,,,,,,
,,,,31933,001,2025-11-07_13h25.12.978,HW_LDT_1,2024.2.4,MacIntel,58.82352941,,,,,,,,,,,,,,,,,,,,,,2481.743,2481.942,2481.942,2482.442,,,,,,,,,,,,,,0.638,1,,,,,,,,,,,,,,m,,,,,,,,,,,,,,,,,75,0,2482.442,2483.092,m,1,0.638,,[],[],[],[],[],[],[],2483.092,2485.092,2485.092,2485.092,[],[],[],[],[],[],[],,2485.092,2485.092,0.000662252,-0.241721854,0,0,0,,0,74,74,112,1,2,word,LIBERAL,print,liberal_p.png,,,,,,
,,,,31933,001,2025-11-07_13h25.12.978,HW_LDT_1,2024.2.4,MacIntel,58.82352941,,,,,,,,,,,,,,,,,,,,,,2485.093,2485.292,2485.292,2485.792,,,,,,,,,,,,,,1.987,1,,,,,,,,,,,,,,z,,,,,,,,,,,,,,,,,76,1,2485.792,2487.792,z,1,1.987,,[],[],[],[],[],[],[],2487.792,2489.791,2489.791,2490.575,[],[],[],[],[],[],[],z,2490.575,2490.575,0.000662252,-0.241721854,0,0,0,,0,75,75,12,1,2,RL,gralekul,cursive,gralekul_c.png,0.779,,,,,
,,,,31933,001,2025-11-07_13h25.12.978,HW_LDT_1,2024.2.4,MacIntel,58.82352941,,,,,,,,,,,,,,,,,,,,,,2490.576,2490.775,2490.775,2491.275,,,,,,,,,,,,,,0.821,1,,,,,,,,,,,,,,m,,,,,,,,,,,,,,,,,77,1,2491.276,2492.108,m,1,0.821,,[],[],[],[],[],[],[],2492.108,2494.107,2494.107,2494.964,[],[],[],[],[],[],[],m,2494.964,2494.964,0.000662252,-0.241721854,0,0,0,,0,76,76,130,1,2,word,POLICY,print,policy_p.png,0.844,,,,,
,,,,31933,001,2025-11-07_13h25.12.978,HW_LDT_1,2024.2.4,MacIntel,58.82352941,,,,,,,,,,,,,,,,,,,,,,2494.965,2495.158,2495.158,2495.658,,,,,,,,,,,,,,1.704,1,,,,,,,,,,,,,,z,,,,,,,,,,,,,,,,,78,0,2495.659,2497.375,z,1,1.704,,[],[],[],[],[],[],[],2497.375,2499.375,2499.375,2499.375,[],[],[],[],[],[],[],,2499.375,2499.375,0.000662252,-0.241721854,0,0,0,,0,77,77,29,1,2,RL,samite,cursive,samite_c.png,,,,,,
,,,,31933,001,2025-11-07_13h25.12.978,HW_LDT_1,2024.2.4,MacIntel,58.82352941,,,,,,,,,,,,,,,,,,,,,,2499.376,2499.575,2499.575,2500.074,,,,,,,,,,,,,,2.038,1,,,,,,,,,,,,,,m,,,,,,,,,,,,,,,,,79,0,2500.074,2502.125,m,1,2.038,,[],[],[],[],[],[],[],2502.125,2504.125,2504.125,2504.126,[],[],[],[],[],[],[],,2504.126,2504.126,0.000662252,-0.241721854,0,0,0,,0,78,78,98,1,2,word,CRIMINAL,cursive,criminal_c.png,,,,,,
,,,,31933,001,2025-11-07_13h25.12.978,HW_LDT_1,2024.2.4,MacIntel,58.82352941,,,,,,,,,,,,,,,,,,,,,,2504.127,2504.325,2504.325,2504.825,,,,,,,,,,,,,,2.462,1,,,,,,,,,,,,,,z,,,,,,,,,,,,,,,,,80,0,2504.826,2507.292,z,1,2.462,,[],[],[],[],[],[],[],2507.292,2509.292,2509.292,2509.292,[],[],[],[],[],[],[],,2509.292,2563.925,0.050993377,-0.386092715,0,0,0,space,0,79,79,66,1,2,TL,prodive,cursive,prodive_c.png,,,54.599,,,
,,,,31933,001,2025-11-07_13h25.12.978,HW_LDT_1,2024.2.4,MacIntel,58.82352941,,,,,,,,,,,,,,,,,,,,,,2563.926,2564.125,2564.125,2564.625,,,,,,,,,,,,,,1.023,0,,,,,,,,,,,,,,m,,,,,,,,,,,,,,,,,81,0,2564.625,2565.659,z,0,1.023,,[],[],[],[],[],[],[],2565.659,2567.658,2567.659,2567.659,[],[],[],[],[],[],[],,2567.659,2567.66,0.050993377,-0.386092715,0,0,0,,0,80,80,138,1,2,word,REFUSAL,cursive,refusal_c.png,,,,,,
,,,,31933,001,2025-11-07_13h25.12.978,HW_LDT_1,2024.2.4,MacIntel,58.82352941,,,,,,,,,,,,,,,,,,,,,,2567.661,2567.858,2567.858,2568.358,,,,,,,,,,,,,,1.209,1,,,,,,,,,,,,,,z,,,,,,,,,,,,,,,,,82,0,2568.359,2569.575,z,1,1.209,,[],[],[],[],[],[],[],2569.575,2571.575,2571.575,2571.576,[],[],[],[],[],[],[],,2571.576,2571.576,0.050993377,-0.386092715,0,0,0,,0,81,81,14,1,2,RL,insibate,cursive,insibate_c.png,,,,,,
,,,,31933,001,2025-11-07_13h25.12.978,HW_LDT_1,2024.2.4,MacIntel,58.82352941,,,,,,,,,,,,,,,,,,,,,,2571.577,2571.775,2571.775,2572.275,,,,,,,,,,,,,,0.511,1,,,,,,,,,,,,,,m,,,,,,,,,,,,,,,,,83,0,2572.276,2572.801,m,1,0.511,,[],[],[],[],[],[],[],2572.801,2574.792,2574.792,2574.792,[],[],[],[],[],[],[],,2574.792,2574.792,0.050993377,-0.386092715,0,0,0,,0,82,82,102,1,2,word,DENSITY,print,density_p.png,,,,,,
,,,,31933,001,2025-11-07_13h25.12.978,HW_LDT_1,2024.2.4,MacIntel,58.82352941,,,,,,,,,,,,,,,,,,,,,,2574.793,2574.992,2574.992,2575.492,,,,,,,,,,,,,,0.82,1,,,,,,,,,,,,,,z,,,,,,,,,,,,,,,,,84,1,2575.492,2576.325,z,1,0.82,,[],[],[],[],[],[],[],2576.325,2578.325,2578.325,2579.325,[],[],[],[],[],[],[],m,2579.325,2579.325,0.050993377,-0.386092715,0,0,0,,0,83,83,4,1,2,RL,cenesony,print,cenesony_p.png,0.989,,,,,
,,,,31933,001,2025-11-07_13h25.12.978,HW_LDT_1,2024.2.4,MacIntel,58.82352941,,,,,,,,,,,,,,,,,,,,,,2579.326,2579.525,2579.525,2580.025,,,,,,,,,,,,,,3.521,0,,,,,,,,,,,,,,m,,,,,,,,,,,,,,,,,85,0,2580.025,2583.558,z,0,3.521,,[],[],[],[],[],[],[],2583.559,2585.558,2585.558,2585.559,[],[],[],[],[],[],[],,2585.559,2585.559,0.050993377,-0.386092715,0,0,0,,0,84,84,111,1,2,word,INDICATE,cursive,indicate_c.png,,,,,,
,,,,31933,001,2025-11-07_13h25.12.978,HW_LDT_1,2024.2.4,MacIntel,58.82352941,,,,,,,,,,,,,,,,,,,,,,2585.56,2585.758,2585.759,2586.259,,,,,,,,,,,,,,1.46,0,,,,,,,,,,,,,,m,,,,,,,,,,,,,,,,,86,0,2586.259,2587.725,z,0,1.46,,[],[],[],[],[],[],[],2587.725,2589.725,2589.725,2589.726,[],[],[],[],[],[],[],,2589.726,2589.726,0.050993377,-0.386092715,0,0,0,,0,85,85,121,1,2,word,MISTAKE,cursive,mistake_c.png,,,,,,
,,,,31933,001,2025-11-07_13h25.12.978,HW_LDT_1,2024.2.4,MacIntel,58.82352941,,,,,,,,,,,,,,,,,,,,,,2589.726,2589.925,2589.925,2590.425,,,,,,,,,,,,,,0.928,1,,,,,,,,,,,,,,z,,,,,,,,,,,,,,,,,87,0,2590.425,2591.358,z,1,0.928,,[],[],[],[],[],[],[],2591.358,2593.358,2593.359,2593.359,[],[],[],[],[],[],[],,2593.359,2593.359,0.050993377,-0.386092715,0,0,0,,0,86,86,63,1,2,TL,orinigal,print,orinigal_p.png,,,,,,
,,,,31933,001,2025-11-07_13h25.12.978,HW_LDT_1,2024.2.4,MacIntel,58.82352941,,,,,,,,,,,,,,,,,,,,,,2593.36,2593.558,2593.558,2594.058,,,,,,,,,,,,,,4.121,1,,,,,,,,,,,,,,z,,,,,,,,,,,,,,,,,88,0,2594.059,2598.191,z,1,4.121,,[],[],[],[],[],[],[],2598.191,2600.192,2600.192,2600.192,[],[],[],[],[],[],[],,2600.192,2600.192,0.050993377,-0.386092715,0,0,0,,0,87,87,61,1,2,TL,nuremical,cursive,nuremical_c.png,,,,,,
,,,,31933,001,2025-11-07_13h25.12.978,HW_LDT_1,2024.2.4,MacIntel,58.82352941,,,,,,,,,,,,,,,,,,,,,,2600.193,2600.392,2600.392,2600.891,,,,,,,,,,,,,,0.687,1,,,,,,,,,,,,,,m,,,,,,,,,,,,,,,,,89,0,2600.892,2601.592,m,1,0.687,,[],[],[],[],[],[],[],2601.592,2603.592,2603.592,2603.592,[],[],[],[],[],[],[],,2603.592,2603.592,0.050993377,-0.386092715,0,0,0,,0,88,88,96,1,2,word,CONSIDER,print,consider_p.png,,,,,,
,,,,31933,001,2025-11-07_13h25.12.978,HW_LDT_1,2024.2.4,MacIntel,58.82352941,,,,,,,,,,,,,,,,,,,,,,2603.593,2603.792,2603.792,2604.292,,,,,,,,,,,,,,3.594,1,,,,,,,,,,,,,,m,,,,,,,,,,,,,,,,,90,1,2604.292,2607.899,m,1,3.594,,[],[],[],[],[],[],[],2607.899,2609.892,2609.892,2610.841,[],[],[],[],[],[],[],z,2610.842,2610.842,0.050993377,-0.386092715,0,0,0,,0,89,89,84,1,2,word,BELOVED,cursive,beloved_c.png,0.938,,,,,
,,,,31933,001,2025-11-07_13h25.12.978,HW_LDT_1,2024.2.4,MacIntel,58.82352941,,,,,,,,,,,,,,,,,,,,,,2610.843,2611.041,2611.041,2611.542,,,,,,,,,,,,,,1.376,1,,,,,,,,,,,,,,z,,,,,,,,,,,,,,,,,91,0,2611.542,2612.925,z,1,1.376,,[],[],[],[],[],[],[],2612.925,2614.925,2614.925,2614.925,[],[],[],[],[],[],[],,2614.926,2614.926,0.050993377,-0.386092715,0,0,0,,0,90,90,17,1,2,RL,macise,cursive,macise_c.png,,,,,,
,,,,31933,001,2025-11-07_13h25.12.978,HW_LDT_1,2024.2.4,MacIntel,58.82352941,,,,,,,,,,,,,,,,,,,,,,2614.926,2615.125,2615.125,2615.625,,,,,,,,,,,,,,0.612,1,,,,,,,,,,,,,,m,,,,,,,,,,,,,,,,,92,0,2615.625,2616.249,m,1,0.612,,[],[],[],[],[],[],[],2616.249,2618.242,2618.242,2618.242,[],[],[],[],[],[],[],,2618.242,2618.242,0.050993377,-0.386092715,0,0,0,,0,91,91,110,1,2,word,HERITAGE,print,heritage_p.png,,,,,,
,,,,31933,001,2025-11-07_13h25.12.978,HW_LDT_1,2024.2.4,MacIntel,58.82352941,,,,,,,,,,,,,,,,,,,,,,2618.243,2618.442,2618.442,2618.942,,,,,,,,,,,,,,0.92,1,,,,,,,,,,,,,,z,,,,,,,,,,,,,,,,,93,1,2618.942,2619.876,z,1,0.92,,[],[],[],[],[],[],[],2619.876,2621.875,2621.875,2623.042,[],[],[],[],[],[],[],m,2623.042,2623.042,0.050993377,-0.386092715,0,0,0,,0,92,92,75,1,2,TL,ronamtic,print,ronamtic_p.png,1.159,,,,,
,,,,31933,001,2025-11-07_13h25.12.978,HW_LDT_1,2024.2.4,MacIntel,58.82352941,,,,,,,,,,,,,,,,,,,,,,2623.043,2623.242,2623.242,2623.742,,,,,,,,,,,,,,1.824,1,,,,,,,,,,,,,,m,,,,,,,,,,,,,,,,,94,1,2623.742,2625.575,m,1,1.824,,[],[],[],[],[],[],[],2625.575,2627.575,2627.575,2628.825,[],[],[],[],[],[],[],z,2628.825,2628.826,0.050993377,-0.386092715,0,0,0,,0,93,93,139,1,2,word,REGULAR,cursive,regular_c.png,1.239,,,,,
,,,,31933,001,2025-11-07_13h25.12.978,HW_LDT_1,2024.2.4,MacIntel,58.82352941,,,,,,,,,,,,,,,,,,,,,,2628.827,2629.025,2629.025,2629.524,,,,,,,,,,,,,,0.655,1,,,,,,,,,,,,,,m,,,,,,,,,,,,,,,,,95,1,2629.525,2630.192,m,1,0.655,,[],[],[],[],[],[],[],2630.192,2632.192,2632.192,2633.309,[],[],[],[],[],[],[],m,2633.309,2633.309,0.050993377,-0.386092715,0,0,0,,0,94,94,153,1,2,word,STOLEN,print,stolen_p.png,1.105,,,,,
,,,,31933,001,2025-11-07_13h25.12.978,HW_LDT_1,2024.2.4,MacIntel,58.82352941,,,,,,,,,,,,,,,,,,,,,,2633.31,2633.508,2633.508,2634.008,,,,,,,,,,,,,,0.957,1,,,,,,,,,,,,,,z,,,,,,,,,,,,,,,,,96,0,2634.009,2634.975,z,1,0.957,,[],[],[],[],[],[],[],2634.975,2636.975,2636.975,2636.976,[],[],[],[],[],[],[],,2636.976,2636.976,0.050993377,-0.386092715,0,0,0,,0,95,95,51,1,2,TL,etidor,cursive,etidor_c.png,,,,,,
,,,,31933,001,2025-11-07_13h25.12.978,HW_LDT_1,2024.2.4,MacIntel,58.82352941,,,,,,,,,,,,,,,,,,,,,,2636.978,2637.175,2637.175,2637.675,,,,,,,,,,,,,,3.086,1,,,,,,,,,,,,,,z,,,,,,,,,,,,,,,,,97,0,2637.676,2640.775,z,1,3.086,,[],[],[],[],[],[],[],2640.776,2642.775,2642.775,2642.775,[],[],[],[],[],[],[],,2642.776,2642.776,0.050993377,-0.386092715,0,0,0,,0,96,96,65,1,2,TL,polupar,cursive,polupar_c.png,,,,,,
,,,,31933,001,2025-11-07_13h25.12.978,HW_LDT_1,2024.2.4,MacIntel,58.82352941,,,,,,,,,,,,,,,,,,,,,,2642.777,2642.975,2642.975,2643.475,,,,,,,,,,,,,,0.69,1,,,,,,,,,,,,,,m,,,,,,,,,,,,,,,,,98,0,2643.476,2644.175,m,1,0.69,,[],[],[],[],[],[],[],2644.175,2646.175,2646.175,2646.175,[],[],[],[],[],[],[],,2646.175,2646.175,0.050993377,-0.386092715,0,0,0,,0,97,97,128,1,2,word,PACIFIC,print,pacific_p.png,,,,,,
,,,,31933,001,2025-11-07_13h25.12.978,HW_LDT_1,2024.2.4,MacIntel,58.82352941,,,,,,,,,,,,,,,,,,,,,,2646.176,2646.375,2646.375,2646.878,,,,,,,,,,,,,,1.084,1,,,,,,,,,,,,,,m,,,,,,,,,,,,,,,,,99,0,2646.879,2647.975,m,1,1.084,,[],[],[],[],[],[],[],2647.975,2649.974,2649.974,2649.975,[],[],[],[],[],[],[],,2649.975,2649.975,0.050993377,-0.386092715,0,0,0,,0,98,98,156,1,2,word,TRIBUTE,cursive,tribute_c.png,,,,,,
,,,,31933,001,2025-11-07_13h25.12.978,HW_LDT_1,2024.2.4,MacIntel,58.82352941,,,,,,,,,,,,,,,,,,,,,,2649.976,2650.175,2650.175,2650.675,,,,,,,,,,,,,,1.637,1,,,,,,,,,,,,,,z,,,,,,,,,,,,,,,,,100,0,2650.676,2652.325,z,1,1.637,,[],[],[],[],[],[],[],2652.325,2654.325,2654.325,2654.326,[],[],[],[],[],[],[],,2654.326,2654.326,0.050993377,-0.386092715,0,0,0,,0,99,99,16,1,2,RL,losipal,print,losipal_p.png,,,,,,
,,,,31933,001,2025-11-07_13h25.12.978,HW_LDT_1,2024.2.4,MacIntel,58.82352941,,,,,,,,,,,,,,,,,,,,,,2654.327,2654.525,2654.525,2655.025,,,,,,,,,,,,,,2.28,1,,,,,,,,,,,,,,z,,,,,,,,,,,,,,,,,101,0,2655.025,2657.308,z,1,2.28,,[],[],[],[],[],[],[],2657.308,2659.308,2659.308,2659.309,[],[],[],[],[],[],[],,2659.309,2659.309,0.050993377,-0.386092715,0,0,0,,0,100,100,55,1,2,TL,lotace,print,lotace_p.png,,,,,,
,,,,31933,001,2025-11-07_13h25.12.978,HW_LDT_1,2024.2.4,MacIntel,58.82352941,,,,,,,,,,,,,,,,,,,,,,2659.31,2659.508,2659.508,2660.008,,,,,,,,,,,,,,1.121,1,,,,,,,,,,,,,,m,,,,,,,,,,,,,,,,,102,0,2660.009,2661.141,m,1,1.121,,[],[],[],[],[],[],[],2661.141,2663.142,2663.142,2663.142,[],[],[],[],[],[],[],,2663.142,2663.142,0.050993377,-0.386092715,0,0,0,,0,101,101,148,1,2,word,SALINE,cursive,saline_c.png,,,,,,
,,,,31933,001,2025-11-07_13h25.12.978,HW_LDT_1,2024.2.4,MacIntel,58.82352941,,,,,,,,,,,,,,,,,,,,,,2663.143,2663.342,2663.342,2663.842,,,,,,,,,,,,,,0.621,1,,,,,,,,,,,,,,m,,,,,,,,,,,,,,,,,103,0,2663.842,2664.474,m,1,0.621,,[],[],[],[],[],[],[],2664.475,2666.475,2666.475,2666.476,[],[],[],[],[],[],[],,2666.476,2666.476,0.050993377,-0.386092715,0,0,0,,0,102,102,101,1,2,word,DELICATE,print,delicate_p.png,,,,,,
,,,,31933,001,2025-11-07_13h25.12.978,HW_LDT_1,2024.2.4,MacIntel,58.82352941,,,,,,,,,,,,,,,,,,,,,,2666.477,2666.675,2666.675,2667.175,,,,,,,,,,,,,,3.42,0,,,,,,,,,,,,,,m,,,,,,,,,,,,,,,,,104,0,2667.175,2670.609,z,0,3.42,,[],[],[],[],[],[],[],2670.609,2672.608,2672.609,2672.609,[],[],[],[],[],[],[],,2672.609,2672.609,0.050993377,-0.386092715,0,0,0,,0,103,103,90,1,2,word,CAPITAL,cursive,capital_c.png,,,,,,
,,,,31933,001,2025-11-07_13h25.12.978,HW_LDT_1,2024.2.4,MacIntel,58.82352941,,,,,,,,,,,,,,,,,,,,,,2672.61,2672.808,2672.809,2673.308,,,,,,,,,,,,,,0.804,1,,,,,,,,,,,,,,m,,,,,,,,,,,,,,,,,105,0,2673.309,2674.125,m,1,0.804,,[],[],[],[],[],[],[],2674.125,2676.124,2676.124,2676.124,[],[],[],[],[],[],[],,2676.124,2676.124,0.050993377,-0.386092715,0,0,0,,0,104,104,107,1,2,word,EVIDENT,cursive,evident_c.png,,,,,,
,,,,31933,001,2025-11-07_13h25.12.978,HW_LDT_1,2024.2.4,MacIntel,58.82352941,,,,,,,,,,,,,,,,,,,,,,2676.126,2676.325,2676.325,2676.825,,,,,,,,,,,,,,0.597,1,,,,,,,,,,,,,,m,,,,,,,,,,,,,,,,,106,1,2676.826,2677.432,m,1,0.597,,[],[],[],[],[],[],[],2677.432,2679.425,2679.425,2681.175,[],[],[],[],[],[],[],z,2681.175,2681.176,0.050993377,-0.386092715,0,0,0,,0,105,105,127,1,2,word,ORIGINAL,print,original_p.png,1.741,,,,,
,,,,31933,001,2025-11-07_13h25.12.978,HW_LDT_1,2024.2.4,MacIntel,58.82352941,,,,,,,,,,,,,,,,,,,,,,2681.177,2681.375,2681.375,2681.875,,,,,,,,,,,,,,1.52,1,,,,,,,,,,,,,,m,,,,,,,,,,,,,,,,,107,0,2681.876,2683.408,m,1,1.52,,[],[],[],[],[],[],[],2683.409,2685.408,2685.408,2685.409,[],[],[],[],[],[],[],,2685.409,2685.409,0.050993377,-0.386092715,0,0,0,,0,106,106,142,1,2,word,REMOTE,cursive,remote_c.png,,,,,,
,,,,31933,001,2025-11-07_13h25.12.978,HW_LDT_1,2024.2.4,MacIntel,58.82352941,,,,,,,,,,,,,,,,,,,,,,2685.41,2685.608,2685.609,2686.108,,,,,,,,,,,,,,1.007,1,,,,,,,,,,,,,,m,,,,,,,,,,,,,,,,,108,0,2686.109,2687.125,m,1,1.007,,[],[],[],[],[],[],[],2687.125,2689.125,2689.125,2689.126,[],[],[],[],[],[],[],,2689.126,2689.126,0.050993377,-0.386092715,0,0,0,,0,107,107,116,1,2,word,MARGINAL,cursive,marginal_c.png,,,,,,
,,,,31933,001,2025-11-07_13h25.12.978,HW_LDT_1,2024.2.4,MacIntel,58.82352941,,,,,,,,,,,,,,,,,,,,,,2689.127,2689.324,2689.324,2689.825,,,,,,,,,,,,,,0.978,1,,,,,,,,,,,,,,z,,,,,,,,,,,,,,,,,109,0,2689.826,2690.808,z,1,0.978,,[],[],[],[],[],[],[],2690.808,2692.809,2692.809,2692.809,[],[],[],[],[],[],[],,2692.809,2692.809,0.050993377,-0.386092715,0,0,0,,0,108,108,9,1,2,RL,denficy,print,denficy_p.png,,,,,,
,,,,31933,001,2025-11-07_13h25.12.978,HW_LDT_1,2024.2.4,MacIntel,58.82352941,,,,,,,,,,,,,,,,,,,,,,2692.81,2693.009,2693.009,2693.508,,,,,,,,,,,,,,3.606,1,,,,,,,,,,,,,,m,,,,,,,,,,,,,,,,,110,0,2693.508,2697.125,m,1,3.606,,[],[],[],[],[],[],[],2697.125,2699.125,2699.125,2699.126,[],[],[],[],[],[],[],,2699.126,2699.126,0.050993377,-0.386092715,0,0,0,,0,109,109,146,1,2,word,RETIRE,cursive,retire_c.png,,,,,,
,,,,31933,001,2025-11-07_13h25.12.978,HW_LDT_1,2024.2.4,MacIntel,58.82352941,,,,,,,,,,,,,,,,,,,,,,2699.127,2699.325,2699.325,2699.825,,,,,,,,,,,,,,2.954,1,,,,,,,,,,,,,,z,,,,,,,,,,,,,,,,,111,0,2699.825,2702.792,z,1,2.954,,[],[],[],[],[],[],[],2702.792,2704.792,2704.792,2704.792,[],[],[],[],[],[],[],,2704.793,2704.793,0.050993377,-0.386092715,0,0,0,,0,110,110,27,1,2,RL,repifion,cursive,repifion_c.png,,,,,,
,,,,31933,001,2025-11-07_13h25.12.978,HW_LDT_1,2024.2.4,MacIntel,58.82352941,,,,,,,,,,,,,,,,,,,,,,2704.794,2704.991,2704.991,2705.492,,,,,,,,,,,,,,0.906,1,,,,,,,,,,,,,,m,,,,,,,,,,,,,,,,,112,0,2705.492,2706.408,m,1,0.906,,[],[],[],[],[],[],[],2706.409,2708.408,2708.409,2708.409,[],[],[],[],[],[],[],,2708.409,2708.409,0.050993377,-0.386092715,0,0,0,,0,111,111,88,1,2,word,CAMERA,print,camera_p.png,,,,,,
,,,,31933,001,2025-11-07_13h25.12.978,HW_LDT_1,2024.2.4,MacIntel,58.82352941,,,,,,,,,,,,,,,,,,,,,,2708.41,2708.609,2708.609,2709.108,,,,,,,,,,,,,,2.139,0,,,,,,,,,,,,,,m,,,,,,,,,,,,,,,,,113,0,2709.108,2711.258,z,0,2.139,,[],[],[],[],[],[],[],2711.259,2713.258,2713.258,2713.259,[],[],[],[],[],[],[],,2713.259,2713.259,0.050993377,-0.386092715,0,0,0,,0,112,112,123,1,2,word,MODERATE,cursive,moderate_c.png,,,,,,
,,,,31933,001,2025-11-07_13h25.12.978,HW_LDT_1,2024.2.4,MacIntel,58.82352941,,,,,,,,,,,,,,,,,,,,,,2713.26,2713.458,2713.458,2713.958,,,,,,,,,,,,,,1.055,1,,,,,,,,,,,,,,m,,,,,,,,,,,,,,,,,114,0,2713.959,2715.025,m,1,1.055,,[],[],[],[],[],[],[],2715.025,2717.025,2717.025,2717.026,[],[],[],[],[],[],[],,2717.026,2717.026,0.050993377,-0.386092715,0,0,0,,0,113,113,151,1,2,word,SPECIFIC,print,specific_p.png,,,,,,
,,,,31933,001,2025-11-07_13h25.12.978,HW_LDT_1,2024.2.4,MacIntel,58.82352941,,,,,,,,,,,,,,,,,,,,,,2717.026,2717.225,2717.225,2717.725,,,,,,,,,,,,,,1.206,1,,,,,,,,,,,,,,z,,,,,,,,,,,,,,,,,115,0,2717.725,2718.942,z,1,1.206,,[],[],[],[],[],[],[],2718.942,2720.941,2720.941,2720.941,[],[],[],[],[],[],[],,2720.941,2720.941,0.050993377,-0.386092715,0,0,0,,0,114,114,72,1,2,TL,revomal,print,revomal_p.png,,,,,,
,,,,31933,001,2025-11-07_13h25.12.978,HW_LDT_1,2024.2.4,MacIntel,58.82352941,,,,,,,,,,,,,,,,,,,,,,2720.943,2721.142,2721.142,2721.642,,,,,,,,,,,,,,2.42,1,,,,,,,,,,,,,,m,,,,,,,,,,,,,,,,,116,0,2721.642,2724.075,m,1,2.42,,[],[],[],[],[],[],[],2724.075,2726.075,2726.075,2726.076,[],[],[],[],[],[],[],,2726.076,2726.076,0.050993377,-0.386092715,0,0,0,,0,115,115,117,1,2,word,MARINE,cursive,marine_c.png,,,,,,
,,,,31933,001,2025-11-07_13h25.12.978,HW_LDT_1,2024.2.4,MacIntel,58.82352941,,,,,,,,,,,,,,,,,,,,,,2726.077,2726.274,2726.274,2726.775,,,,,,,,,,,,,,1.993,1,,,,,,,,,,,,,,z,,,,,,,,,,,,,,,,,117,0,2726.775,2728.775,z,1,1.993,,[],[],[],[],[],[],[],2728.775,2730.774,2730.774,2730.775,[],[],[],[],[],[],[],,2730.775,2730.775,0.050993377,-0.386092715,0,0,0,,0,116,116,47,1,2,TL,crinimal,cursive,crinimal_c.png,,,,,,
,,,,31933,001,2025-11-07_13h25.12.978,HW_LDT_1,2024.2.4,MacIntel,58.82352941,,,,,,,,,,,,,,,,,,,,,,2730.776,2730.974,2730.974,2731.475,,,,,,,,,,,,,,2.237,1,,,,,,,,,,,,,,m,,,,,,,,,,,,,,,,,118,0,2731.476,2733.725,m,1,2.237,,[],[],[],[],[],[],[],2733.725,2735.725,2735.725,2735.726,[],[],[],[],[],[],[],,2735.726,2735.726,0.050993377,-0.386092715,0,0,0,,0,117,117,158,1,2,word,VELOCITY,print,velocity_p.png,,,,,,
,,,,31933,001,2025-11-07_13h25.12.978,HW_LDT_1,2024.2.4,MacIntel,58.82352941,,,,,,,,,,,,,,,,,,,,,,2735.726,2735.925,2735.925,2736.425,,,,,,,,,,,,,,0.858,1,,,,,,,,,,,,,,z,,,,,,,,,,,,,,,,,119,0,2736.426,2737.292,z,1,0.858,,[],[],[],[],[],[],[],2737.292,2739.292,2739.292,2739.292,[],[],[],[],[],[],[],,2739.292,2739.292,0.050993377,-0.386092715,0,0,0,,0,118,118,30,1,2,RL,selamor,print,selamor_p.png,,,,,,
,,,,31933,001,2025-11-07_13h25.12.978,HW_LDT_1,2024.2.4,MacIntel,58.82352941,,,,,,,,,,,,,,,,,,,,,,2739.293,2739.492,2739.492,2739.992,,,,,,,,,,,,,,0.621,1,,,,,,,,,,,,,,m,,,,,,,,,,,,,,,,,120,0,2739.992,2740.625,m,1,0.621,,[],[],[],[],[],[],[],2740.625,2742.625,2742.625,2742.625,[],[],[],[],[],[],[],,2742.625,2742.626,0.050993377,-0.386092715,0,0,0,,0,119,119,129,1,2,word,PARENT,print,parent_p.png,,,,,,
,,,,31933,001,2025-11-07_13h25.12.978,HW_LDT_1,2024.2.4,MacIntel,58.82352941,,,,,,,,,,,,,,,,,,,,,,2742.626,2742.825,2742.825,2743.325,,,,,,,,,,,,,,0.74,1,,,,,,,,,,,,,,z,,,,,,,,,,,,,,,,,121,1,2743.326,2744.075,z,1,0.74,,[],[],[],[],[],[],[],2744.075,2746.075,2746.075,2747.099,[],[],[],[],[],[],[],m,2747.099,2747.099,0.050993377,-0.386092715,0,0,0,,0,120,120,36,1,2,RL,vecelan,print,vecelan_p.png,1.013,,,,,
,,,,31933,001,2025-11-07_13h25.12.978,HW_LDT_1,2024.2.4,MacIntel,58.82352941,,,,,,,,,,,,,,,,,,,,,,2747.1,2747.292,2747.292,2747.792,,,,,,,,,,,,,,0.654,1,,,,,,,,,,,,,,m,,,,,,,,,,,,,,,,,122,1,2747.792,2748.458,m,1,0.654,,[],[],[],[],[],[],[],2748.458,2750.458,2750.458,2751.392,[],[],[],[],[],[],[],m,2751.392,2751.392,0.050993377,-0.386092715,0,0,0,,0,121,121,149,1,2,word,SENATOR,print,senator_p.png,0.922,,,,,
,,,,31933,001,2025-11-07_13h25.12.978,HW_LDT_1,2024.2.4,MacIntel,58.82352941,,,,,,,,,,,,,,,,,,,,,,2751.393,2751.592,2751.592,2752.092,,,,,,,,,,,,,,0.712,1,,,,,,,,,,,,,,m,,,,,,,,,,,,,,,,,123,1,2752.092,2752.816,m,1,0.712,,[],[],[],[],[],[],[],2752.816,2754.809,2754.809,2755.425,[],[],[],[],[],[],[],z,2755.425,2755.425,0.050993377,-0.386092715,0,0,0,,0,122,122,131,1,2,word,POPULAR,cursive,popular_c.png,0.604,,,,,
,,,,31933,001,2025-11-07_13h25.12.978,HW_LDT_1,2024.2.4,MacIntel,58.82352941,,,,,,,,,,,,,,,,,,,,,,2755.427,2755.625,2755.625,2756.125,,,,,,,,,,,,,,1.403,1,,,,,,,,,,,,,,m,,,,,,,,,,,,,,,,,124,0,2756.125,2757.542,m,1,1.403,,[],[],[],[],[],[],[],2757.542,2759.541,2759.541,2759.541,[],[],[],[],[],[],[],,2759.541,2759.541,0.050993377,-0.386092715,0,0,0,,0,123,123,133,1,2,word,PROVIDE,cursive,provide_c.png,,,,,,
,,,,31933,001,2025-11-07_13h25.12.978,HW_LDT_1,2024.2.4,MacIntel,58.82352941,,,,,,,,,,,,,,,,,,,,,,2759.542,2759.742,2759.742,2760.242,,,,,,,,,,,,,,0.793,1,,,,,,,,,,,,,,z,,,,,,,,,,,,,,,,,125,1,2760.242,2761.042,z,1,0.793,,[],[],[],[],[],[],[],2761.042,2763.041,2763.042,2764.192,[],[],[],[],[],[],[],m,2764.192,2764.192,0.050993377,-0.386092715,0,0,0,,0,124,124,21,1,2,RL,pamest,print,pamest_p.png,1.138,,,,,
,,,,31933,001,2025-11-07_13h25.12.978,HW_LDT_1,2024.2.4,MacIntel,58.82352941,,,,,,,,,,,,,,,,,,,,,,2764.193,2764.392,2764.392,2764.892,,,,,,,,,,,,,,3.52,1,,,,,,,,,,,,,,z,,,,,,,,,,,,,,,,,126,0,2764.892,2768.425,z,1,3.52,,[],[],[],[],[],[],[],2768.425,2770.425,2770.425,2770.425,[],[],[],[],[],[],[],,2770.426,2770.426,0.050993377,-0.386092715,0,0,0,,0,125,125,33,1,2,RL,strapely,cursive,strapely_c.png,,,,,,
,,,,31933,001,2025-11-07_13h25.12.978,HW_LDT_1,2024.2.4,MacIntel,58.82352941,,,,,,,,,,,,,,,,,,,,,,2770.427,2770.625,2770.625,2771.125,,,,,,,,,,,,,,0.674,1,,,,,,,,,,,,,,m,,,,,,,,,,,,,,,,,127,0,2771.126,2771.808,m,1,0.674,,[],[],[],[],[],[],[],2771.808,2773.809,2773.809,2773.809,[],[],[],[],[],[],[],,2773.809,2773.809,0.050993377,-0.386092715,0,0,0,,0,126,126,115,1,2,word,LOGICAL,print,logical_p.png,,,,,,
,,,,31933,001,2025-11-07_13h25.12.978,HW_LDT_1,2024.2.4,MacIntel,58.82352941,,,,,,,,,,,,,,,,,,,,,,2773.81,2774.008,2774.009,2774.508,,,,,,,,,,,,,,0.628,1,,,,,,,,,,,,,,m,,,,,,,,,,,,,,,,,128,1,2774.508,2775.149,m,1,0.628,,[],[],[],[],[],[],[],2775.149,2777.142,2777.142,2778.009,[],[],[],[],[],[],[],m,2778.009,2778.009,0.050993377,-0.386092715,0,0,0,,0,127,127,104,1,2,word,DOMINANT,print,dominant_p.png,0.855,,,,,
,,,,31933,001,2025-11-07_13h25.12.978,HW_LDT_1,2024.2.4,MacIntel,58.82352941,,,,,,,,,,,,,,,,,,,,,,2778.01,2778.209,2778.209,2778.709,,,,,,,,,,,,,,0.757,1,,,,,,,,,,,,,,z,,,,,,,,,,,,,,,,,129,0,2778.709,2779.475,z,1,0.757,,[],[],[],[],[],[],[],2779.476,2781.475,2781.475,2781.476,[],[],[],[],[],[],[],,2781.476,2781.476,0.050993377,-0.386092715,0,0,0,,0,128,128,11,1,2,RL,formuke,print,formuke_p.png,,,,,,
,,,,31933,001,2025-11-07_13h25.12.978,HW_LDT_1,2024.2.4,MacIntel,58.82352941,,,,,,,,,,,,,,,,,,,,,,2781.477,2781.675,2781.675,2782.175,,,,,,,,,,,,,,3.326,0,,,,,,,,,,,,,,m,,,,,,,,,,,,,,,,,130,1,2782.176,2785.508,z,0,3.326,,[],[],[],[],[],[],[],2785.508,2787.508,2787.508,2788.409,[],[],[],[],[],[],[],z,2788.409,2788.409,0.050993377,-0.386092715,0,0,0,,0,129,129,113,1,2,word,LITERAL,cursive,literal_c.png,0.888,,,,,
,,,,31933,001,2025-11-07_13h25.12.978,HW_LDT_1,2024.2.4,MacIntel,58.82352941,,,,,,,,,,,,,,,,,,,,,,2788.41,2788.609,2788.609,2789.108,,,,,,,,,,,,,,1.195,1,,,,,,,,,,,,,,z,,,,,,,,,,,,,,,,,131,0,2789.109,2790.309,z,1,1.195,,[],[],[],[],[],[],[],2790.309,2792.308,2792.308,2792.309,[],[],[],[],[],[],[],,2792.309,2792.309,0.050993377,-0.386092715,0,0,0,,0,130,130,23,1,2,RL,procogal,cursive,procogal_c.png,,,,,,
,,,,31933,001,2025-11-07_13h25.12.978,HW_LDT_1,2024.2.4,MacIntel,58.82352941,,,,,,,,,,,,,,,,,,,,,,2792.31,2792.508,2792.508,2793.008,,,,,,,,,,,,,,1.108,1,,,,,,,,,,,,,,m,,,,,,,,,,,,,,,,,132,0,2793.009,2794.126,m,1,1.108,,[],[],[],[],[],[],[],2794.126,2796.125,2796.125,2796.125,[],[],[],[],[],[],[],,2796.125,2796.125,0.050993377,-0.386092715,0,0,0,,0,131,131,94,1,2,word,CLINICAL,cursive,clinical_c.png,,,,,,
,,,,31933,001,2025-11-07_13h25.12.978,HW_LDT_1,2024.2.4,MacIntel,58.82352941,,,,,,,,,,,,,,,,,,,,,,2796.127,2796.324,2796.324,2796.825,,,,,,,,,,,,,,0.773,1,,,,,,,,,,,,,,m,,,,,,,,,,,,,,,,,133,0,2796.825,2797.609,m,1,0.773,,[],[],[],[],[],[],[],2797.609,2799.609,2799.609,2799.609,[],[],[],[],[],[],[],,2799.609,2799.609,0.050993377,-0.386092715,0,0,0,,0,132,132,95,1,2,word,COMEDY,cursive,comedy_c.png,,,,,,
,,,,31933,001,2025-11-07_13h25.12.978,HW_LDT_1,2024.2.4,MacIntel,58.82352941,,,,,,,,,,,,,,,,,,,,,,2799.61,2799.809,2799.809,2800.309,,,,,,,,,,,,,,1.38,1,,,,,,,,,,,,,,z,,,,,,,,,,,,,,,,,134,1,2800.309,2801.692,z,1,1.38,,[],[],[],[],[],[],[],2801.692,2803.692,2803.692,2804.842,[],[],[],[],[],[],[],m,2804.842,2804.842,0.050993377,-0.386092715,0,0,0,,0,133,133,15,1,2,RL,linedal,print,linedal_p.png,1.14,,,,,
,,,,31933,001,2025-11-07_13h25.12.978,HW_LDT_1,2024.2.4,MacIntel,58.82352941,,,,,,,,,,,,,,,,,,,,,,2804.843,2805.042,2805.042,2805.542,,,,,,,,,,,,,,1.853,1,,,,,,,,,,,,,,z,,,,,,,,,,,,,,,,,135,0,2805.543,2807.409,z,1,1.853,,[],[],[],[],[],[],[],2807.409,2809.409,2809.409,2809.409,[],[],[],[],[],[],[],,2809.409,2809.409,0.050993377,-0.386092715,0,0,0,,0,134,134,40,1,2,TL,bevoled,cursive,bevoled_c.png,,,,,,
,,,,31933,001,2025-11-07_13h25.12.978,HW_LDT_1,2024.2.4,MacIntel,58.82352941,,,,,,,,,,,,,,,,,,,,,,2809.41,2809.609,2809.609,2810.108,,,,,,,,,,,,,,3.824,1,,,,,,,,,,,,,,z,,,,,,,,,,,,,,,,,136,0,2810.109,2813.942,z,1,3.824,,[],[],[],[],[],[],[],2813.942,2815.942,2815.942,2815.942,[],[],[],[],[],[],[],,2815.942,2815.943,0.050993377,-0.386092715,0,0,0,,0,135,135,26,1,2,RL,retupar,cursive,retupar_c.png,,,,,,
,,,,31933,001,2025-11-07_13h25.12.978,HW_LDT_1,2024.2.4,MacIntel,58.82352941,,,,,,,,,,,,,,,,,,,,,,2815.943,2816.142,2816.142,2816.642,,,,,,,,,,,,,,0.68,1,,,,,,,,,,,,,,m,,,,,,,,,,,,,,,,,137,0,2816.642,2817.332,m,1,0.68,,[],[],[],[],[],[],[],2817.332,2819.325,2819.325,2819.326,[],[],[],[],[],[],[],,2819.326,2819.326,0.050993377,-0.386092715,0,0,0,,0,136,136,140,1,2,word,RELATIVE,print,relative_p.png,,,,,,
,,,,31933,001,2025-11-07_13h25.12.978,HW_LDT_1,2024.2.4,MacIntel,58.82352941,,,,,,,,,,,,,,,,,,,,,,2819.327,2819.524,2819.524,2820.025,,,,,,,,,,,,,,2.763,0,,,,,,,,,,,,,,m,,,,,,,,,,,,,,,,,138,0,2820.026,2822.792,z,0,2.763,,[],[],[],[],[],[],[],2822.792,2824.792,2824.792,2824.792,[],[],[],[],[],[],[],,2824.792,2824.793,0.050993377,-0.386092715,0,0,0,,0,137,137,103,1,2,word,DISPUTE,cursive,dispute_c.png,,,,,,
,,,,31933,001,2025-11-07_13h25.12.978,HW_LDT_1,2024.2.4,MacIntel,58.82352941,,,,,,,,,,,,,,,,,,,,,,2824.793,2824.992,2824.992,2825.492,,,,,,,,,,,,,,0.83,1,,,,,,,,,,,,,,m,,,,,,,,,,,,,,,,,139,0,2825.492,2826.332,m,1,0.83,,[],[],[],[],[],[],[],2826.332,2828.325,2828.325,2828.326,[],[],[],[],[],[],[],,2828.326,2828.326,0.050993377,-0.386092715,0,0,0,,0,138,138,136,1,2,word,RADICAL,cursive,radical_c.png,,,,,,
,,,,31933,001,2025-11-07_13h25.12.978,HW_LDT_1,2024.2.4,MacIntel,58.82352941,,,,,,,,,,,,,,,,,,,,,,2828.327,2828.525,2828.525,2829.025,,,,,,,,,,,,,,1.105,1,,,,,,,,,,,,,,z,,,,,,,,,,,,,,,,,140,0,2829.026,2830.142,z,1,1.105,,[],[],[],[],[],[],[],2830.142,2832.142,2832.142,2832.142,[],[],[],[],[],[],[],,2832.143,2832.143,0.050993377,-0.386092715,0,0,0,,0,139,139,6,1,2,RL,conbicer,print,conbicer_p.png,,,,,,
,,,,31933,001,2025-11-07_13h25.12.978,HW_LDT_1,2024.2.4,MacIntel,58.82352941,,,,,,,,,,,,,,,,,,,,,,2832.143,2832.341,2832.341,2832.842,,,,,,,,,,,,,,1.41,1,,,,,,,,,,,,,,z,,,,,,,,,,,,,,,,,141,0,2832.842,2834.259,z,1,1.41,,[],[],[],[],[],[],[],2834.259,2836.259,2836.259,2836.259,[],[],[],[],[],[],[],,2836.259,2836.259,0.050993377,-0.386092715,0,0,0,,0,140,140,19,1,2,RL,monebate,cursive,monebate_c.png,,,,,,
,,,,31933,001,2025-11-07_13h25.12.978,HW_LDT_1,2024.2.4,MacIntel,58.82352941,,,,,,,,,,,,,,,,,,,,,,2836.26,2836.458,2836.458,2836.958,,,,,,,,,,,,,,0.774,1,,,,,,,,,,,,,,z,,,,,,,,,,,,,,,,,142,0,2836.959,2837.742,z,1,0.774,,[],[],[],[],[],[],[],2837.742,2839.741,2839.741,2839.741,[],[],[],[],[],[],[],,2839.741,2839.741,0.050993377,-0.386092715,0,0,0,,0,141,141,13,1,2,RL,helicage,print,helicage_p.png,,,,,,
,,,,31933,001,2025-11-07_13h25.12.978,HW_LDT_1,2024.2.4,MacIntel,58.82352941,,,,,,,,,,,,,,,,,,,,,,2839.742,2839.942,2839.942,2840.441,,,,,,,,,,,,,,2.288,0,,,,,,,,,,,,,,m,,,,,,,,,,,,,,,,,143,0,2840.442,2842.742,z,0,2.288,,[],[],[],[],[],[],[],2842.742,2844.742,2844.742,2844.742,[],[],[],[],[],[],[],,2844.743,2844.743,0.050993377,-0.386092715,0,0,0,,0,142,142,126,1,2,word,OPTIMAL,cursive,optimal_c.png,,,,,,
,,,,31933,001,2025-11-07_13h25.12.978,HW_LDT_1,2024.2.4,MacIntel,58.82352941,,,,,,,,,,,,,,,,,,,,,,2844.743,2844.942,2844.942,2845.442,,,,,,,,,,,,,,2.924,1,,,,,,,,,,,,,,z,,,,,,,,,,,,,,,,,144,0,2845.442,2848.376,z,1,2.924,,[],[],[],[],[],[],[],2848.376,2850.375,2850.375,2850.375,[],[],[],[],[],[],[],,2850.375,2850.376,0.050993377,-0.386092715,0,0,0,,0,143,143,1,1,2,RL,caleberia,print,caleberia_p.png,,,,,,
,,,,31933,001,2025-11-07_13h25.12.978,HW_LDT_1,2024.2.4,MacIntel,58.82352941,,,,,,,,,,,,,,,,,,,,,,2850.377,2850.575,2850.575,2851.075,,,,,,,,,,,,,,0.923,1,,,,,,,,,,,,,,m,,,,,,,,,,,,,,,,,145,0,2851.076,2852.008,m,1,0.923,,[],[],[],[],[],[],[],2852.008,2854.009,2854.009,2854.009,[],[],[],[],[],[],[],,2854.009,2854.009,0.050993377,-0.386092715,0,0,0,,0,144,144,97,1,2,word,COVERAGE,cursive,coverage_c.png,,,,,,
,,,,31933,001,2025-11-07_13h25.12.978,HW_LDT_1,2024.2.4,MacIntel,58.82352941,,,,,,,,,,,,,,,,,,,,,,2854.01,2854.209,2854.209,2854.708,,,,,,,,,,,,,,3.79,1,,,,,,,,,,,,,,z,,,,,,,,,,,,,,,,,146,0,2854.709,2858.509,z,1,3.79,,[],[],[],[],[],[],[],2858.509,2860.508,2860.509,2860.509,[],[],[],[],[],[],[],,2860.509,2860.509,0.050993377,-0.386092715,0,0,0,,0,145,145,54,1,2,TL,liretal,cursive,liretal_c.png,,,,,,
,,,,31933,001,2025-11-07_13h25.12.978,HW_LDT_1,2024.2.4,MacIntel,58.82352941,,,,,,,,,,,,,,,,,,,,,,2860.51,2860.708,2860.708,2861.208,,,,,,,,,,,,,,2.041,1,,,,,,,,,,,,,,z,,,,,,,,,,,,,,,,,147,1,2861.209,2863.259,z,1,2.041,,[],[],[],[],[],[],[],2863.259,2865.258,2865.259,2866.409,[],[],[],[],[],[],[],z,2866.409,2866.41,0.050993377,-0.386092715,0,0,0,,0,146,146,41,1,2,TL,befenit,cursive,befenit_c.png,1.138,,,,,
,,,,31933,001,2025-11-07_13h25.12.978,HW_LDT_1,2024.2.4,MacIntel,58.82352941,,,,,,,,,,,,,,,,,,,,,,2866.411,2866.608,2866.609,2867.108,,,,,,,,,,,,,,4.259,1,,,,,,,,,,,,,,z,,,,,,,,,,,,,,,,,148,0,2867.109,2871.375,z,1,4.259,,[],[],[],[],[],[],[],2871.376,2873.375,2873.375,2873.376,[],[],[],[],[],[],[],,2873.376,2873.376,0.050993377,-0.386092715,0,0,0,,0,147,147,57,1,2,TL,meromy,cursive,meromy_c.png,,,,,,
,,,,31933,001,2025-11-07_13h25.12.978,HW_LDT_1,2024.2.4,MacIntel,58.82352941,,,,,,,,,,,,,,,,,,,,,,2873.377,2873.575,2873.575,2874.075,,,,,,,,,,,,,,0.659,1,,,,,,,,,,,,,,m,,,,,,,,,,,,,,,,,149,0,2874.076,2874.748,m,1,0.659,,[],[],[],[],[],[],[],2874.748,2876.742,2876.742,2876.742,[],[],[],[],[],[],[],,2876.742,2876.743,0.050993377,-0.386092715,0,0,0,,0,148,148,89,1,2,word,CAPACITY,print,capacity_p.png,,,,,,
,,,,31933,001,2025-11-07_13h25.12.978,HW_LDT_1,2024.2.4,MacIntel,58.82352941,,,,,,,,,,,,,,,,,,,,,,2876.743,2876.942,2876.942,2877.442,,,,,,,,,,,,,,0.757,1,,,,,,,,,,,,,,z,,,,,,,,,,,,,,,,,150,0,2877.443,2878.209,z,1,0.757,,[],[],[],[],[],[],[],2878.209,2880.209,2880.209,2880.209,[],[],[],[],[],[],[],,2880.209,2880.209,0.050993377,-0.386092715,0,0,0,,0,149,149,0,1,2,RL,adnicory,print,adnicory_p.png,,,,,,
,,,,31933,001,2025-11-07_13h25.12.978,HW_LDT_1,2024.2.4,MacIntel,58.82352941,,,,,,,,,,,,,,,,,,,,,,2880.21,2880.408,2880.409,2880.908,,,,,,,,,,,,,,1.361,1,,,,,,,,,,,,,,z,,,,,,,,,,,,,,,,,151,0,2880.909,2882.275,z,1,1.361,,[],[],[],[],[],[],[],2882.275,2884.275,2884.275,2884.276,[],[],[],[],[],[],[],,2884.276,2884.276,0.050993377,-0.386092715,0,0,0,,0,150,150,59,1,2,TL,miskate,cursive,miskate_c.png,,,,,,
,,,,31933,001,2025-11-07_13h25.12.978,HW_LDT_1,2024.2.4,MacIntel,58.82352941,,,,,,,,,,,,,,,,,,,,,,2884.277,2884.475,2884.475,2884.975,,,,,,,,,,,,,,2.175,1,,,,,,,,,,,,,,z,,,,,,,,,,,,,,,,,152,0,2884.976,2887.159,z,1,2.175,,[],[],[],[],[],[],[],2887.159,2889.159,2889.159,2889.159,[],[],[],[],[],[],[],,2889.159,2889.159,0.050993377,-0.386092715,0,0,0,,0,151,151,5,1,2,RL,clisimal,cursive,clisimal_c.png,,,,,,
,,,,31933,001,2025-11-07_13h25.12.978,HW_LDT_1,2024.2.4,MacIntel,58.82352941,,,,,,,,,,,,,,,,,,,,,,2889.16,2889.359,2889.359,2889.859,,,,,,,,,,,,,,3.887,1,,,,,,,,,,,,,,z,,,,,,,,,,,,,,,,,153,0,2889.859,2893.759,z,1,3.887,,[],[],[],[],[],[],[],2893.759,2895.759,2895.759,2895.759,[],[],[],[],[],[],[],,2895.759,2895.759,0.050993377,-0.384768212,0,0,0,,0,152,152,46,1,2,TL,codemy,cursive,codemy_c.png,,,,,,
,,,,31933,001,2025-11-07_13h25.12.978,HW_LDT_1,2024.2.4,MacIntel,58.82352941,,,,,,,,,,,,,,,,,,,,,,2895.76,2895.959,2895.959,2896.458,,,,,,,,,,,,,,3.13,1,,,,,,,,,,,,,,z,,,,,,,,,,,,,,,,,154,0,2896.459,2899.592,z,1,3.13,,[],[],[],[],[],[],[],2899.592,2901.592,2901.592,2901.592,[],[],[],[],[],[],[],,2901.592,2901.592,0.050993377,-0.384768212,0,0,0,,0,153,153,69,1,2,TL,resufal,cursive,resufal_c.png,,,,,,
,,,,31933,001,2025-11-07_13h25.12.978,HW_LDT_1,2024.2.4,MacIntel,58.82352941,,,,,,,,,,,,,,,,,,,,,,2901.593,2901.792,2901.792,2902.292,,,,,,,,,,,,,,3.074,1,,,,,,,,,,,,,,z,,,,,,,,,,,,,,,,,155,0,2902.292,2905.375,z,1,3.074,,[],[],[],[],[],[],[],2905.375,2907.375,2907.375,2907.376,[],[],[],[],[],[],[],,2907.376,2907.376,0.050993377,-0.384768212,0,0,0,,0,154,154,62,1,2,TL,opmital,cursive,opmital_c.png,,,,,,
,,,,31933,001,2025-11-07_13h25.12.978,HW_LDT_1,2024.2.4,MacIntel,58.82352941,,,,,,,,,,,,,,,,,,,,,,2907.377,2907.575,2907.575,2908.075,,,,,,,,,,,,,,1.737,1,,,,,,,,,,,,,,m,,,,,,,,,,,,,,,,,156,0,2908.076,2909.824,m,1,1.737,,[],[],[],[],[],[],[],2909.824,2911.825,2911.825,2911.826,[],[],[],[],[],[],[],,2911.826,2911.826,0.050993377,-0.384768212,0,0,0,,0,155,155,144,1,2,word,RESIDENT,print,resident_p.png,,,,,,
,,,,31933,001,2025-11-07_13h25.12.978,HW_LDT_1,2024.2.4,MacIntel,58.82352941,,,,,,,,,,,,,,,,,,,,,,2911.827,2912.025,2912.025,2912.525,,,,,,,,,,,,,,0.873,1,,,,,,,,,,,,,,m,,,,,,,,,,,,,,,,,157,0,2912.525,2913.409,m,1,0.873,,[],[],[],[],[],[],[],2913.409,2915.409,2915.409,2915.409,[],[],[],[],[],[],[],,2915.409,2915.409,0.050993377,-0.384768212,0,0,0,,0,156,156,154,1,2,word,STORAGE,print,storage_p.png,,,,,,
,,,,31933,001,2025-11-07_13h25.12.978,HW_LDT_1,2024.2.4,MacIntel,58.82352941,,,,,,,,,,,,,,,,,,,,,,2915.41,2915.609,2915.609,2916.108,,,,,,,,,,,,,,0.904,1,,,,,,,,,,,,,,m,,,,,,,,,,,,,,,,,158,0,2916.109,2917.025,m,1,0.904,,[],[],[],[],[],[],[],2917.025,2919.025,2919.025,2919.025,[],[],[],[],[],[],[],,2919.025,2919.026,0.050993377,-0.383443709,0,0,0,,0,157,157,132,1,2,word,PROPOSAL,cursive,proposal_c.png,,,,,,
,,,,31933,001,2025-11-07_13h25.12.978,HW_LDT_1,2024.2.4,MacIntel,58.82352941,,,,,,,,,,,,,,,,,,,,,,2919.027,2919.225,2919.225,2919.725,,,,,,,,,,,,,,6.188,0,,,,,,,,,,,,,,m,,,,,,,,,,,,,,,,,159,0,2919.726,2925.925,z,0,6.188,,[],[],[],[],[],[],[],2925.925,2927.925,2927.925,2927.926,[],[],[],[],[],[],[],,2927.926,2927.926,0.050993377,-0.382119205,0,0,0,,0,158,158,106,1,2,word,ELABORATE,cursive,elaborate_c.png,,,,,,
,,,,31933,001,2025-11-07_13h25.12.978,HW_LDT_1,2024.2.4,MacIntel,58.82352941,,,,,,,,,,,,,,,,,,,,,,2927.927,2928.125,2928.125,2928.625,,,,,,,,,,,,,,1.021,1,,,,,,,,,,,,,,z,,,,,,,,,,,,,,,,,160,0,2928.626,2929.659,z,1,1.021,,[],[],[],[],[],[],[],2929.659,2931.658,2931.659,2931.659,[],[],[],[],[],[],[],,2931.659,2931.659,0.056291391,-0.366225166,0,0,0,,0,159,159,64,1,2,TL,paficic,print,paficic_p.png,,,,,,
,,,,31933,001,2025-11-07_13h25.12.978,HW_LDT_1,2024.2.4,MacIntel,58.82352941,,,,,,,,,,,,,,,,,,,,,,,,,,,,,,,,,,,,,,,,,,,,,,,,,,,,,,,,,,,,,,,,,,,,,,,,,,,,,,,,,,,,,,,,,,,,,,,,,,,,,,,,,,,,,,,,,,,,,,,,2931.667,2936.659
