counterbalance_lists.group,counterbalance_lists.remaining,get_list.started,get_list.stopped,participant,session,date,expName,psychopyVersion,OS,frameRate,Instructions.started,Instructions.stopped,key_resp.keys,instr_done_touch.x,instr_done_touch.y,instr_done_touch.leftButton,instr_done_touch.midButton,instr_done_touch.rightButton,instr_done_touch.clicked_name,start_instr.thisRepN,start_instr.thisTrialN,start_instr.thisN,start_instr.thisIndex,start_instr.ran,pageN,phase,instruct_text,has_image,instruct_image,key_resp.rt,key_resp.duration,showProgress.started,showProgress.stopped,fix.started,fix.stopped,prac.started,prac.stopped,response.keys,response.corr,response.rt,response.duration,touch_resp.x,touch_resp.y,touch_resp.leftButton,touch_resp.midButton,touch_resp.rightButton,touch_resp.time,touch_resp.clicked_name,rt,corr,feedback.started,feedback.stopped,trials.thisRepN,trials.thisTrialN,trials.thisN,trials.thisIndex,trials.ran,TrialID,StimulusType,Condition,PrimeDuration,Prime,Target,corrAns,Instructions_expt.started,Instructions_expt.stopped,key_resp_3.keys,instr_done_touch_3.x,instr_done_touch_3.y,instr_done_touch_3.leftButton,instr_done_touch_3.midButton,instr_done_touch_3.rightButton,instr_done_touch_3.clicked_name,instr_experiment.thisRepN,instr_experiment.thisTrialN,instr_experiment.thisN,instr_experiment.thisIndex,instr_experiment.ran,trialID,flag,maintask.started,maintask.stopped,key_resp_2.keys,key_resp_2.corr,key_resp_2.rt,key_resp_2.duration,targ_click.x,targ_click.y,targ_click.leftButton,targ_click.midButton,targ_click.rightButton,targ_click.time,targ_click.clicked_name,ITI.started,ITI.stopped,probe.started,probe.stopped,click_probe.x,click_probe.y,click_probe.leftButton,click_probe.midButton,click_probe.rightButton,click_probe.time,click_probe.clicked_name,key_resp_probe.keys,Break.started,Break.stopped,break_done_touch.x,break_done_touch.y,break_done_touch.leftButton,break_done_touch.midButton,break_done_touch.rightButton,break_done_keyboard.keys,list4_trials.thisRepN,list4_trials.thisTrialN,list4_trials.thisN,list4_trials.thisIndex,list4_trials.ran,list_id,item_type,string,font,stim_file,key_resp_probe.rt,key_resp_probe.duration,break_done_touch.clicked_name,End.started,End.stopped
list4,,5.3992,5.3993,31938,001,2025-10-17_16h48.13.869,HW_LDT_1,2024.2.4,MacIntel,59.88023952,,,,,,,,,,,,,,,,,,,,,,,,,,,,,,,,,,,,,,,,,,,,,,,,,,,,,,,,,,,,,,,,,,,,,,,,,,,,,,,,,,,,,,,,,,,,,,,,,,,,,,,,,,,,,,,,,,,,,,
,,,,31938,001,2025-10-17_16h48.13.869,HW_LDT_1,2024.2.4,MacIntel,59.88023952,5.4148,7.3795,,0.031432706,-0.37845314,1,0,0,instr_done_button,0,0,0,0,1,1,instructions,"INSTRUCTIONS
At the start of each trial, look at the plus sign  (+) in the center of the screen.  This tells you that a trial is about to begin and where to look. Second, the plus sign will disappear and a string of letters will appear. Your task is to determine if the string of letters is a word or not. If the item is a word press the M key (on keyboard)  or touch the word button (phone/tablet).  If the item is not a word,  press the  Z key (on keyboard)  or touch the nonword button (on phone/tablet). The items will be presented for a short time. 
Press the space bar or touch  continue.",0,,,,,,,,,,,,,,,,,,,,,,,,,,,,,,,,,,,,,,,,,,,,,,,,,,,,,,,,,,,,,,,,,,,,,,,,,,,,,,,,,,,,,,,,,,,,,,,,,,,,
,,,,31938,001,2025-10-17_16h48.13.869,HW_LDT_1,2024.2.4,MacIntel,59.88023952,7.381,12.3791,space,0.031432706,-0.37845314,0,0,0,,0,1,1,1,1,2,instructions,"If your device has a keyboard, press the 'Z' key for nonwords and the 'M' key for words.





Press the space bar or touch the button below to continue.",0,keyboard-example.gif,4.9801,,,,,,,,,,,,,,,,,,,,,,,,,,,,,,,,,,,,,,,,,,,,,,,,,,,,,,,,,,,,,,,,,,,,,,,,,,,,,,,,,,,,,,,,,,,,,,,,,,
,,,,31938,001,2025-10-17_16h48.13.869,HW_LDT_1,2024.2.4,MacIntel,59.88023952,12.3805,14.2459,space,0.031432706,-0.37845314,0,0,0,,0,2,2,2,1,3,instructions,"If you are using a touchscreen only device, use the buttons on the screen. Do not use the mouse.





Press the space bar or touch the button below to continue.",0,touchscreen-example.gif,1.8357,,,,,,,,,,,,,,,,,,,,,,,,,,,,,,,,,,,,,,,,,,,,,,,,,,,,,,,,,,,,,,,,,,,,,,,,,,,,,,,,,,,,,,,,,,,,,,,,,,
,,,,31938,001,2025-10-17_16h48.13.869,HW_LDT_1,2024.2.4,MacIntel,59.88023952,14.2482,15.2124,space,0.031432706,-0.37845314,0,0,0,,0,3,3,3,1,4,instructions,"It is very important that you respond as quickly and accurately as possible, as each letter string will only be on the screen for two seconds. If you do not respond within this time, the message 'Too slow!' will be displayed and the experiment will progress to the next letter string. The first 20 trials will be practice trials and you will receive feedback on your answers. 

Press the space bar or touch the button below to start the practice trials.",0,,0.9372,,,,,,,,,,,,,,,,,,,,,,,,,,,,,,,,,,,,,,,,,,,,,,,,,,,,,,,,,,,,,,,,,,,,,,,,,,,,,,,,,,,,,,,,,,,,,,,,,,
,,,,31938,001,2025-10-17_16h48.13.869,HW_LDT_1,2024.2.4,MacIntel,59.88023952,,,,,,,,,,,,,,,,,,,,,,15.2301,15.4124,15.4126,15.9124,15.9126,18.3793,m,1,2.4379,,[],[],[],[],[],[],[],2.4379,1,18.3797,18.8791,0,0,0,4,1,1005,WORD,UN,33,abound,SQUEAK,m,,,,,,,,,,,,,,,,,,,,,,,,,,,,,,,,,,,,,,,,,,,,,,,,,,,,,,,,,,,,,,,,
,,,,31938,001,2025-10-17_16h48.13.869,HW_LDT_1,2024.2.4,MacIntel,59.88023952,,,,,,,,,,,,,,,,,,,,,,18.8804,19.0788,19.0788,19.5788,19.5797,20.5954,z,1,1.0052,,[],[],[],[],[],[],[],1.0052,1,20.5954,21.0956,0,1,1,15,1,1016,NW,UN,16,mushed,WHAISE,z,,,,,,,,,,,,,,,,,,,,,,,,,,,,,,,,,,,,,,,,,,,,,,,,,,,,,,,,,,,,,,,,
,,,,31938,001,2025-10-17_16h48.13.869,HW_LDT_1,2024.2.4,MacIntel,59.88023952,,,,,,,,,,,,,,,,,,,,,,21.0968,21.2954,21.2955,21.7955,21.7965,22.7953,z,1,0.9896,,[],[],[],[],[],[],[],0.9896,1,22.7954,23.2955,0,2,2,12,1,1013,NW,UN,33,adveil,SPRINY,z,,,,,,,,,,,,,,,,,,,,,,,,,,,,,,,,,,,,,,,,,,,,,,,,,,,,,,,,,,,,,,,,
,,,,31938,001,2025-10-17_16h48.13.869,HW_LDT_1,2024.2.4,MacIntel,59.88023952,,,,,,,,,,,,,,,,,,,,,,23.2967,23.4955,23.4955,23.9954,23.9964,24.595,m,1,0.578,,[],[],[],[],[],[],[],0.578,1,24.5952,25.0955,0,3,3,2,1,1003,WORD,"ID",16,almond,ALMOND,m,,,,,,,,,,,,,,,,,,,,,,,,,,,,,,,,,,,,,,,,,,,,,,,,,,,,,,,,,,,,,,,,
,,,,31938,001,2025-10-17_16h48.13.869,HW_LDT_1,2024.2.4,MacIntel,59.88023952,,,,,,,,,,,,,,,,,,,,,,25.0968,25.2954,25.2955,25.7951,25.7958,26.529,z,1,0.7179,,[],[],[],[],[],[],[],0.7179,1,26.5293,27.0289,0,4,4,9,1,1010,NW,"ID",33,fariny,FARINY,z,,,,,,,,,,,,,,,,,,,,,,,,,,,,,,,,,,,,,,,,,,,,,,,,,,,,,,,,,,,,,,,,
,,,,31938,001,2025-10-17_16h48.13.869,HW_LDT_1,2024.2.4,MacIntel,59.88023952,,,,,,,,,,,,,,,,,,,,,,27.0299,27.2285,27.2287,27.7287,27.7297,28.3122,m,1,0.5644,,[],[],[],[],[],[],[],0.5644,1,28.3125,28.8122,0,5,5,1,1,1002,WORD,"ID",33,adjust,ADJUST,m,,,,,,,,,,,,,,,,,,,,,,,,,,,,,,,,,,,,,,,,,,,,,,,,,,,,,,,,,,,,,,,,
,,,,31938,001,2025-10-17_16h48.13.869,HW_LDT_1,2024.2.4,MacIntel,59.88023952,,,,,,,,,,,,,,,,,,,,,,28.8135,29.0122,29.0122,29.5122,29.513,30.2288,m,1,0.6992,,[],[],[],[],[],[],[],0.6992,1,30.2291,30.7288,0,6,6,3,1,1004,WORD,"ID",16,matrix,MATRIX,m,,,,,,,,,,,,,,,,,,,,,,,,,,,,,,,,,,,,,,,,,,,,,,,,,,,,,,,,,,,,,,,,
,,,,31938,001,2025-10-17_16h48.13.869,HW_LDT_1,2024.2.4,MacIntel,59.88023952,,,,,,,,,,,,,,,,,,,,,,30.7301,30.9288,30.9289,31.4287,31.4295,32.0121,m,1,0.5633,,[],[],[],[],[],[],[],0.5633,1,32.0123,32.5121,0,7,7,6,1,1007,WORD,UN,16,tropic,ZOMBIE,m,,,,,,,,,,,,,,,,,,,,,,,,,,,,,,,,,,,,,,,,,,,,,,,,,,,,,,,,,,,,,,,,
,,,,31938,001,2025-10-17_16h48.13.869,HW_LDT_1,2024.2.4,MacIntel,59.88023952,,,,,,,,,,,,,,,,,,,,,,32.5133,32.712,32.712,33.212,33.2128,33.7955,z,1,0.5651,,[],[],[],[],[],[],[],0.5651,1,33.7956,34.2955,0,8,8,14,1,1015,NW,UN,16,miaber,THRALE,z,,,,,,,,,,,,,,,,,,,,,,,,,,,,,,,,,,,,,,,,,,,,,,,,,,,,,,,,,,,,,,,,
,,,,31938,001,2025-10-17_16h48.13.869,HW_LDT_1,2024.2.4,MacIntel,59.88023952,,,,,,,,,,,,,,,,,,,,,,34.2967,34.4953,34.4954,34.9953,34.9962,35.5955,m,1,0.5801,,[],[],[],[],[],[],[],0.5801,1,35.5956,36.0954,0,9,9,7,1,1008,WORD,UN,16,hurdle,VOLUME,m,,,,,,,,,,,,,,,,,,,,,,,,,,,,,,,,,,,,,,,,,,,,,,,,,,,,,,,,,,,,,,,,
,,,,31938,001,2025-10-17_16h48.13.869,HW_LDT_1,2024.2.4,MacIntel,59.88023952,,,,,,,,,,,,,,,,,,,,,,36.0965,36.2953,36.2954,36.7945,36.7953,37.5789,z,1,0.765,,[],[],[],[],[],[],[],0.765,1,37.579,38.0787,0,10,10,11,1,1012,NW,"ID",16,rashet,RASHET,z,,,,,,,,,,,,,,,,,,,,,,,,,,,,,,,,,,,,,,,,,,,,,,,,,,,,,,,,,,,,,,,,
,,,,31938,001,2025-10-17_16h48.13.869,HW_LDT_1,2024.2.4,MacIntel,59.88023952,,,,,,,,,,,,,,,,,,,,,,38.0799,38.2787,38.2787,38.7786,38.7794,39.5288,z,1,0.7391,,[],[],[],[],[],[],[],0.7391,1,39.529,40.0287,0,11,11,13,1,1014,NW,UN,33,winfer,ROUPET,z,,,,,,,,,,,,,,,,,,,,,,,,,,,,,,,,,,,,,,,,,,,,,,,,,,,,,,,,,,,,,,,,
,,,,31938,001,2025-10-17_16h48.13.869,HW_LDT_1,2024.2.4,MacIntel,59.88023952,,,,,,,,,,,,,,,,,,,,,,40.0299,40.2287,40.2288,40.7286,40.7294,41.2455,m,1,0.4987,,[],[],[],[],[],[],[],0.4987,1,41.2456,41.7453,0,12,12,5,1,1006,WORD,UN,33,frenzy,OBTAIN,m,,,,,,,,,,,,,,,,,,,,,,,,,,,,,,,,,,,,,,,,,,,,,,,,,,,,,,,,,,,,,,,,
,,,,31938,001,2025-10-17_16h48.13.869,HW_LDT_1,2024.2.4,MacIntel,59.88023952,,,,,,,,,,,,,,,,,,,,,,41.7465,41.9443,41.9444,42.4452,42.4461,43.3119,z,1,0.856,,[],[],[],[],[],[],[],0.856,1,43.312,43.8111,0,13,13,10,1,1011,NW,"ID",16,inlade,INLADE,z,,,,,,,,,,,,,,,,,,,,,,,,,,,,,,,,,,,,,,,,,,,,,,,,,,,,,,,,,,,,,,,,
,,,,31938,001,2025-10-17_16h48.13.869,HW_LDT_1,2024.2.4,MacIntel,59.88023952,,,,,,,,,,,,,,,,,,,,,,43.8123,44.012,44.0121,44.5119,44.5126,45.2944,z,1,0.7715,,[],[],[],[],[],[],[],0.7715,1,45.2945,45.7953,0,14,14,8,1,1009,NW,"ID",33,aslert,ASLERT,z,,,,,,,,,,,,,,,,,,,,,,,,,,,,,,,,,,,,,,,,,,,,,,,,,,,,,,,,,,,,,,,,
,,,,31938,001,2025-10-17_16h48.13.869,HW_LDT_1,2024.2.4,MacIntel,59.88023952,,,,,,,,,,,,,,,,,,,,,,45.7965,45.9953,45.9954,46.4953,46.496,47.0952,m,1,0.589,,[],[],[],[],[],[],[],0.589,1,47.0953,47.5947,0,15,15,0,1,1001,WORD,"ID",33,utopia,UTOPIA,m,,,,,,,,,,,,,,,,,,,,,,,,,,,,,,,,,,,,,,,,,,,,,,,,,,,,,,,,,,,,,,,,
,,,,31938,001,2025-10-17_16h48.13.869,HW_LDT_1,2024.2.4,MacIntel,59.88023952,,,,,,,,,,,,,,,1,end_of_practice,"You have completed the practice trials. During the experimental trials, you will not receive feedback. On some trials you will be asked to report whether the item you just saw was in cursive or print. 
Before you begin, please ensure that you are in a comfortable and quiet location and will not be disturbed for about 15 minutes, as we cannot use your data if you do not complete all the trials. 
 When you are ready to start the experimental trials, please press space or touch the button below.",,,,,,,,,,,,,,,,,,,,,,,,,,,,,,,,,,,,,,47.6011,49.1293,,-0.004373977,-0.392722463,1,0,0,instr_done_button_3,0,0,0,0,1,,,,,,,,,,,,,,,,,,,,,,,,,,,,,,,,,,,,,,,,,,,,,,,,,,
,,,,31938,001,2025-10-17_16h48.13.869,HW_LDT_1,2024.2.4,MacIntel,59.88023952,,,,,,,,,,,,,,,,,,,,,,49.1465,49.3287,49.3287,49.8276,,,,,,,,,,,,,,7.7209,1,,,,,,,,,,,,,,z,,,,,,,,,,,,,,,1,0,49.8291,57.5616,z,1,7.7209,,[],[],[],[],[],[],[],57.5618,59.5623,59.5625,59.5649,[],[],[],[],[],[],[],,59.565,59.5663,0.06553657,-0.348036278,0,0,0,,0,0,0,59,1,4,TL,fornute,cursive,fornute_c.png,,,,,
,,,,31938,001,2025-10-17_16h48.13.869,HW_LDT_1,2024.2.4,MacIntel,59.88023952,,,,,,,,,,,,,,,,,,,,,,59.5669,59.7619,59.762,60.261,,,,,,,,,,,,,,1.772,1,,,,,,,,,,,,,,m,,,,,,,,,,,,,,,2,0,60.2616,62.0454,m,1,1.772,,[],[],[],[],[],[],[],62.0456,64.0452,64.0453,64.0456,[],[],[],[],[],[],[],,64.0457,64.0458,0.06553657,-0.348036278,0,0,0,,0,1,1,155,1,4,word,STRATEGY,print,strategy_p.png,,,,,
,,,,31938,001,2025-10-17_16h48.13.869,HW_LDT_1,2024.2.4,MacIntel,59.88023952,,,,,,,,,,,,,,,,,,,,,,64.0469,64.2452,64.2453,64.7452,,,,,,,,,,,,,,7.3644,1,,,,,,,,,,,,,,z,,,,,,,,,,,,,,,3,0,64.7459,72.112,z,1,7.3644,,[],[],[],[],[],[],[],72.1122,74.1118,74.1119,74.1122,[],[],[],[],[],[],[],,74.1122,74.1123,0.06553657,-0.348036278,0,0,0,,0,2,2,72,1,4,TL,relugar,cursive,relugar_c.png,,,,,
,,,,31938,001,2025-10-17_16h48.13.869,HW_LDT_1,2024.2.4,MacIntel,59.88023952,,,,,,,,,,,,,,,,,,,,,,74.1136,74.3118,74.3118,74.8118,,,,,,,,,,,,,,2.2044,1,,,,,,,,,,,,,,z,,,,,,,,,,,,,,,4,0,74.8123,77.0286,z,1,2.2044,,[],[],[],[],[],[],[],77.0287,79.0285,79.0286,79.0288,[],[],[],[],[],[],[],,79.0289,79.0289,0.06553657,-0.348036278,0,0,0,,0,3,3,50,1,4,RL,vecelan,cursive,vecelan_c.png,,,,,
,,,,31938,001,2025-10-17_16h48.13.869,HW_LDT_1,2024.2.4,MacIntel,59.88023952,,,,,,,,,,,,,,,,,,,,,,79.03,79.2285,79.2285,79.7285,,,,,,,,,,,,,,0.6805,1,,,,,,,,,,,,,,m,,,,,,,,,,,,,,,5,0,79.7291,80.4119,m,1,0.6805,,[],[],[],[],[],[],[],80.4119,82.4109,82.411,82.4113,[],[],[],[],[],[],[],,82.4114,82.4114,0.06553657,-0.348036278,0,0,0,,0,4,4,127,1,4,word,ORIGINAL,print,original_p.png,,,,,
,,,,31938,001,2025-10-17_16h48.13.869,HW_LDT_1,2024.2.4,MacIntel,59.88023952,,,,,,,,,,,,,,,,,,,,,,82.4124,82.6118,82.6118,83.1118,,,,,,,,,,,,,,1.1131,1,,,,,,,,,,,,,,z,,,,,,,,,,,,,,,6,0,83.1124,84.2276,z,1,1.1131,,[],[],[],[],[],[],[],84.2277,86.2284,86.2286,86.2289,[],[],[],[],[],[],[],,86.2289,86.2291,0.06553657,-0.348036278,0,0,0,,0,5,5,27,1,4,RL,menowy,print,menowy_p.png,,,,,
,,,,31938,001,2025-10-17_16h48.13.869,HW_LDT_1,2024.2.4,MacIntel,59.88023952,,,,,,,,,,,,,,,,,,,,,,86.2301,86.4284,86.4285,86.9275,,,,,,,,,,,,,,1.039,1,,,,,,,,,,,,,,z,,,,,,,,,,,,,,,7,0,86.9281,87.9785,z,1,1.039,,[],[],[],[],[],[],[],87.9787,89.9775,89.9777,89.9779,[],[],[],[],[],[],[],,89.9779,89.978,0.06553657,-0.348036278,0,0,0,,0,6,6,78,1,4,TL,stragety,print,stragety_p.png,,,,,
,,,,31938,001,2025-10-17_16h48.13.869,HW_LDT_1,2024.2.4,MacIntel,59.88023952,,,,,,,,,,,,,,,,,,,,,,89.9791,90.1786,90.1786,90.6783,,,,,,,,,,,,,,1.7068,1,,,,,,,,,,,,,,z,,,,,,,,,,,,,,,8,0,90.6788,92.3952,z,1,1.7068,,[],[],[],[],[],[],[],92.3954,94.3944,94.3944,94.3947,[],[],[],[],[],[],[],,94.3948,94.3948,0.06553657,-0.348036278,0,0,0,,0,7,7,31,1,4,RL,orimipal,print,orimipal_p.png,,,,,
,,,,31938,001,2025-10-17_16h48.13.869,HW_LDT_1,2024.2.4,MacIntel,59.88023952,,,,,,,,,,,,,,,,,,,,,,94.3959,94.5951,94.5952,95.0949,,,,,,,,,,,,,,0.6145,1,,,,,,,,,,,,,,m,,,,,,,,,,,,,,,9,0,95.0954,95.7117,m,1,0.6145,,[],[],[],[],[],[],[],95.7118,97.711,97.711,97.7113,[],[],[],[],[],[],[],,97.7114,97.7114,0.06553657,-0.348036278,0,0,0,,0,8,8,94,1,4,word,CLINICAL,print,clinical_p.png,,,,,
,,,,31938,001,2025-10-17_16h48.13.869,HW_LDT_1,2024.2.4,MacIntel,59.88023952,,,,,,,,,,,,,,,,,,,,,,97.7125,97.911,97.911,98.4117,,,,,,,,,,,,,,0.897,1,,,,,,,,,,,,,,z,,,,,,,,,,,,,,,10,0,98.4123,99.3108,z,1,0.897,,[],[],[],[],[],[],[],99.311,101.3117,101.3118,101.312,[],[],[],[],[],[],[],,101.312,101.3122,0.06553657,-0.348036278,0,0,0,,0,9,9,0,1,4,RL,abanemy,print,abanemy_p.png,,,,,
,,,,31938,001,2025-10-17_16h48.13.869,HW_LDT_1,2024.2.4,MacIntel,59.88023952,,,,,,,,,,,,,,,,,,,,,,101.3132,101.5117,101.5118,102.0116,,,,,,,,,,,,,,0.914,1,,,,,,,,,,,,,,z,,,,,,,,,,,,,,,11,0,102.0121,102.9275,z,1,0.914,,[],[],[],[],[],[],[],102.9277,104.9284,104.9285,104.9288,[],[],[],[],[],[],[],,104.9288,104.9289,0.06553657,-0.348036278,0,0,0,,0,10,10,29,1,4,RL,motide,print,motide_p.png,,,,,
,,,,31938,001,2025-10-17_16h48.13.869,HW_LDT_1,2024.2.4,MacIntel,59.88023952,,,,,,,,,,,,,,,,,,,,,,104.93,105.1284,105.1284,105.6283,,,,,,,,,,,,,,1.1376,1,,,,,,,,,,,,,,z,,,,,,,,,,,,,,,12,0,105.6289,106.7776,z,1,1.1376,,[],[],[],[],[],[],[],106.7777,108.7774,108.7775,108.7777,[],[],[],[],[],[],[],,108.7777,108.7779,0.06553657,-0.348036278,0,0,0,,0,11,11,62,1,4,TL,locigal,print,locigal_p.png,,,,,
,,,,31938,001,2025-10-17_16h48.13.869,HW_LDT_1,2024.2.4,MacIntel,59.88023952,,,,,,,,,,,,,,,,,,,,,,108.779,108.9775,108.9776,109.4783,,,,,,,,,,,,,,0.505,1,,,,,,,,,,,,,,m,,,,,,,,,,,,,,,13,0,109.4788,109.9942,m,1,0.505,,[],[],[],[],[],[],[],109.9943,111.995,111.995,111.9953,[],[],[],[],[],[],[],,111.9953,111.9953,0.06553657,-0.348036278,0,0,0,,0,12,12,154,1,4,word,STORAGE,print,storage_p.png,,,,,
,,,,31938,001,2025-10-17_16h48.13.869,HW_LDT_1,2024.2.4,MacIntel,59.88023952,,,,,,,,,,,,,,,,,,,,,,111.9964,112.195,112.195,112.694,,,,,,,,,,,,,,1.239,1,,,,,,,,,,,,,,m,,,,,,,,,,,,,,,14,0,112.6945,113.9441,m,1,1.239,,[],[],[],[],[],[],[],113.9443,115.945,115.9451,115.9453,[],[],[],[],[],[],[],,115.9453,115.9454,0.06553657,-0.348036278,0,0,0,,0,13,13,85,1,4,word,BENEFIT,cursive,benefit_c.png,,,,,
,,,,31938,001,2025-10-17_16h48.13.869,HW_LDT_1,2024.2.4,MacIntel,59.88023952,,,,,,,,,,,,,,,,,,,,,,115.9465,116.1449,116.145,116.645,,,,,,,,,,,,,,0.9644,1,,,,,,,,,,,,,,z,,,,,,,,,,,,,,,15,0,116.6455,117.6116,z,1,0.9644,,[],[],[],[],[],[],[],117.6117,119.6118,119.6118,119.6119,[],[],[],[],[],[],[],,119.612,119.6121,0.06553657,-0.348036278,0,0,0,,0,14,14,5,1,4,RL,bebine,print,bebine_p.png,,,,,
,,,,31938,001,2025-10-17_16h48.13.869,HW_LDT_1,2024.2.4,MacIntel,59.88023952,,,,,,,,,,,,,,,,,,,,,,119.6131,119.8106,119.8108,120.3117,,,,,,,,,,,,,,9.9382,1,,,,,,,,,,,,,,z,,,,,,,,,,,,,,,16,0,120.3122,130.2618,z,1,9.9382,,[],[],[],[],[],[],[],130.2618,132.2616,132.2617,132.2618,[],[],[],[],[],[],[],,132.2619,132.262,0.06553657,-0.348036278,0,0,0,,0,15,15,8,1,4,RL,casagity,cursive,casagity_c.png,,,,,
,,,,31938,001,2025-10-17_16h48.13.869,HW_LDT_1,2024.2.4,MacIntel,59.88023952,,,,,,,,,,,,,,,,,,,,,,132.2631,132.4617,132.4617,132.9616,,,,,,,,,,,,,,0.731,1,,,,,,,,,,,,,,m,,,,,,,,,,,,,,,17,0,132.962,133.6948,m,1,0.731,,[],[],[],[],[],[],[],133.6949,135.6949,135.6949,135.6951,[],[],[],[],[],[],[],,135.6952,135.6952,0.06553657,-0.348036278,0,0,0,,0,16,16,139,1,4,word,REGULAR,cursive,regular_c.png,,,,,
,,,,31938,001,2025-10-17_16h48.13.869,HW_LDT_1,2024.2.4,MacIntel,59.88023952,,,,,,,,,,,,,,,,,,,,,,135.6964,135.8949,135.895,136.3949,,,,,,,,,,,,,,1.5553,1,,,,,,,,,,,,,,z,,,,,,,,,,,,,,,18,0,136.3954,137.9616,z,1,1.5553,,[],[],[],[],[],[],[],137.9617,139.9615,139.9616,139.9618,[],[],[],[],[],[],[],,139.9619,139.9619,0.06553657,-0.348036278,0,0,0,,0,17,17,1,1,4,RL,afaneur,cursive,afaneur_c.png,,,,,
,,,,31938,001,2025-10-17_16h48.13.869,HW_LDT_1,2024.2.4,MacIntel,59.88023952,,,,,,,,,,,,,,,,,,,,,,139.963,140.1615,140.1616,140.6615,,,,,,,,,,,,,,2.5825,1,,,,,,,,,,,,,,z,,,,,,,,,,,,,,,19,0,140.6619,143.2452,z,1,2.5825,,[],[],[],[],[],[],[],143.2453,145.2448,145.2449,145.2451,[],[],[],[],[],[],[],,145.2452,145.2453,0.06553657,-0.348036278,0,0,0,,0,18,18,12,1,4,RL,conbicer,cursive,conbicer_c.png,,,,,
,,,,31938,001,2025-10-17_16h48.13.869,HW_LDT_1,2024.2.4,MacIntel,59.88023952,,,,,,,,,,,,,,,,,,,,,,145.2465,145.4449,145.4449,145.9449,,,,,,,,,,,,,,3.7462,1,,,,,,,,,,,,,,z,,,,,,,,,,,,,,,20,1,145.9454,149.6951,z,1,3.7462,,[],[],[],[],[],[],[],149.6952,151.6948,151.6949,154.3115,[],[],[],[],[],[],[],z,154.3116,154.3117,-0.277274322,-0.297276953,0,0,0,,0,19,19,19,1,4,RL,elacodate,cursive,elacodate_c.png,2.6149,,,,
,,,,31938,001,2025-10-17_16h48.13.869,HW_LDT_1,2024.2.4,MacIntel,59.88023952,,,,,,,,,,,,,,,,,,,,,,154.3126,154.5118,154.5118,155.0114,,,,,,,,,,,,,,1.4395,1,,,,,,,,,,,,,,m,,,,,,,,,,,,,,,21,0,155.012,156.4616,m,1,1.4395,,[],[],[],[],[],[],[],156.4617,158.4615,158.4616,158.4618,[],[],[],[],[],[],[],,158.4618,158.4619,-0.201886255,-0.265519031,0,0,0,,0,20,20,110,1,4,word,HERITAGE,print,heritage_p.png,,,,,
,,,,31938,001,2025-10-17_16h48.13.869,HW_LDT_1,2024.2.4,MacIntel,59.88023952,,,,,,,,,,,,,,,,,,,,,,158.4629,158.6615,158.6616,159.1615,,,,,,,,,,,,,,2.0902,1,,,,,,,,,,,,,,z,,,,,,,,,,,,,,,22,0,159.1619,161.2616,z,1,2.0902,,[],[],[],[],[],[],[],161.2617,163.2615,163.2616,163.2617,[],[],[],[],[],[],[],,163.2618,163.2619,-0.201886255,-0.265519031,0,0,0,,0,21,21,71,1,4,TL,racidal,print,racidal_p.png,,,,,
,,,,31938,001,2025-10-17_16h48.13.869,HW_LDT_1,2024.2.4,MacIntel,59.88023952,,,,,,,,,,,,,,,,,,,,,,163.2629,163.4615,163.4615,163.9615,,,,,,,,,,,,,,0.7569,1,,,,,,,,,,,,,,z,,,,,,,,,,,,,,,23,0,163.962,164.7283,z,1,0.7569,,[],[],[],[],[],[],[],164.7284,166.7281,166.7281,166.7284,[],[],[],[],[],[],[],,166.7285,166.7285,-0.201886255,-0.265519031,0,0,0,,0,22,22,58,1,4,TL,edivent,print,edivent_p.png,,,,,
,,,,31938,001,2025-10-17_16h48.13.869,HW_LDT_1,2024.2.4,MacIntel,59.88023952,,,,,,,,,,,,,,,,,,,,,,166.7295,166.9281,166.9282,167.4281,,,,,,,,,,,,,,0.8049,1,,,,,,,,,,,,,,m,,,,,,,,,,,,,,,24,0,167.4285,168.2449,m,1,0.8049,,[],[],[],[],[],[],[],168.245,170.2448,170.2448,170.2451,[],[],[],[],[],[],[],,170.2451,170.2452,-0.201886255,-0.265519031,0,0,0,,0,23,23,133,1,4,word,PROVIDE,cursive,provide_c.png,,,,,
,,,,31938,001,2025-10-17_16h48.13.869,HW_LDT_1,2024.2.4,MacIntel,59.88023952,,,,,,,,,,,,,,,,,,,,,,170.2462,170.4447,170.4448,170.9448,,,,,,,,,,,,,,0.6476,1,,,,,,,,,,,,,,z,,,,,,,,,,,,,,,25,0,170.9454,171.5947,z,1,0.6476,,[],[],[],[],[],[],[],171.5948,173.5944,173.5944,173.5945,[],[],[],[],[],[],[],,173.5945,173.5945,-0.201886255,-0.265519031,0,0,0,,0,24,24,18,1,4,RL,disluge,print,disluge_p.png,,,,,
,,,,31938,001,2025-10-17_16h48.13.869,HW_LDT_1,2024.2.4,MacIntel,59.88023952,,,,,,,,,,,,,,,,,,,,,,173.5949,173.7947,173.7949,174.2947,,,,,,,,,,,,,,5.3708,1,,,,,,,,,,,,,,z,,,,,,,,,,,,,,,26,1,174.2952,179.6782,z,1,5.3708,,[],[],[],[],[],[],[],179.6782,181.678,181.6781,189.2114,[],[],[],[],[],[],[],z,189.2115,189.2117,-0.201886255,-0.265519031,0,0,0,,0,25,25,16,1,4,RL,desifate,cursive,desifate_c.png,7.5304,,,,
,,,,31938,001,2025-10-17_16h48.13.869,HW_LDT_1,2024.2.4,MacIntel,59.88023952,,,,,,,,,,,,,,,,,,,,,,189.2127,189.4114,189.4114,189.9114,,,,,,,,,,,,,,0.788,1,,,,,,,,,,,,,,m,,,,,,,,,,,,,,,27,0,189.9118,190.7114,m,1,0.788,,[],[],[],[],[],[],[],190.7116,192.7112,192.7113,192.7116,[],[],[],[],[],[],[],,192.7117,192.7118,-0.201886255,-0.265519031,0,0,0,,0,26,26,103,1,4,word,DISPUTE,print,dispute_p.png,,,,,
,,,,31938,001,2025-10-17_16h48.13.869,HW_LDT_1,2024.2.4,MacIntel,59.88023952,,,,,,,,,,,,,,,,,,,,,,192.7128,192.9114,192.9114,193.4114,,,,,,,,,,,,,,0.6813,1,,,,,,,,,,,,,,z,,,,,,,,,,,,,,,28,0,193.4119,194.0946,z,1,0.6813,,[],[],[],[],[],[],[],194.0947,196.0947,196.0947,196.0949,[],[],[],[],[],[],[],,196.095,196.095,-0.201886255,-0.265519031,0,0,0,,0,27,27,43,1,4,RL,rovastic,print,rovastic_p.png,,,,,
,,,,31938,001,2025-10-17_16h48.13.869,HW_LDT_1,2024.2.4,MacIntel,59.88023952,,,,,,,,,,,,,,,,,,,,,,196.096,196.2947,196.2947,196.7947,,,,,,,,,,,,,,1.6382,0,,,,,,,,,,,,,,m,,,,,,,,,,,,,,,29,0,196.7951,198.4448,z,0,1.6382,,[],[],[],[],[],[],[],198.4448,200.4447,200.4447,200.4449,[],[],[],[],[],[],[],,200.4449,200.445,-0.201886255,-0.265519031,0,0,0,,0,28,28,87,1,4,word,CAFETERIA,cursive,cafeteria_c.png,,,,,
,,,,31938,001,2025-10-17_16h48.13.869,HW_LDT_1,2024.2.4,MacIntel,59.88023952,,,,,,,,,,,,,,,,,,,,,,200.446,200.6446,200.6447,201.1446,,,,,,,,,,,,,,7.7642,0,,,,,,,,,,,,,,m,,,,,,,,,,,,,,,30,0,201.1451,208.9112,z,0,7.7642,,[],[],[],[],[],[],[],208.9113,210.9113,210.9113,210.9115,[],[],[],[],[],[],[],,210.9115,210.9116,-0.201886255,-0.265519031,0,0,0,,0,29,29,99,1,4,word,DEBATE,cursive,debate_c.png,,,,,
,,,,31938,001,2025-10-17_16h48.13.869,HW_LDT_1,2024.2.4,MacIntel,59.88023952,,,,,,,,,,,,,,,,,,,,,,210.9128,211.1112,211.1112,211.6112,,,,,,,,,,,,,,0.8556,1,,,,,,,,,,,,,,m,,,,,,,,,,,,,,,31,0,211.6118,212.478,m,1,0.8556,,[],[],[],[],[],[],[],212.4781,214.4778,214.4779,214.4781,[],[],[],[],[],[],[],,214.4782,214.4782,-0.201886255,-0.265519031,0,0,0,,0,30,30,137,1,4,word,RAPIDLY,cursive,rapidly_c.png,,,,,
,,,,31938,001,2025-10-17_16h48.13.869,HW_LDT_1,2024.2.4,MacIntel,59.88023952,,,,,,,,,,,,,,,,,,,,,,214.4792,214.6779,214.6779,215.1779,,,,,,,,,,,,,,1.864,1,,,,,,,,,,,,,,z,,,,,,,,,,,,,,,32,0,215.1784,217.0445,z,1,1.864,,[],[],[],[],[],[],[],217.0447,219.0448,219.0449,219.0449,[],[],[],[],[],[],[],,219.045,219.045,0.782269498,-0.499981729,0,0,0,,0,31,31,35,1,4,RL,probice,cursive,probice_c.png,,,,,
,,,,31938,001,2025-10-17_16h48.13.869,HW_LDT_1,2024.2.4,MacIntel,59.88023952,,,,,,,,,,,,,,,,,,,,,,219.0458,219.2448,219.2449,219.7445,,,,,,,,,,,,,,0.9235,1,,,,,,,,,,,,,,m,,,,,,,,,,,,,,,33,1,219.745,220.6779,m,1,0.9235,,[],[],[],[],[],[],[],220.6781,222.6779,222.6779,227.8114,[],[],[],[],[],[],[],m,227.8115,227.8117,0.06080449,0.069018943,0,0,0,,0,32,32,95,1,4,word,COMEDY,print,comedy_p.png,5.1223,,,,
,,,,31938,001,2025-10-17_16h48.13.869,HW_LDT_1,2024.2.4,MacIntel,59.88023952,,,,,,,,,,,,,,,,,,,,,,227.8129,228.0111,228.0112,228.5112,,,,,,,,,,,,,,0.7972,1,,,,,,,,,,,,,,m,,,,,,,,,,,,,,,34,0,228.5118,229.3111,m,1,0.7972,,[],[],[],[],[],[],[],229.3112,231.3115,231.3116,231.3117,[],[],[],[],[],[],[],,231.3118,231.3118,0.062503654,0.067345358,0,0,0,,0,33,33,140,1,4,word,RELATIVE,print,relative_p.png,,,,,
,,,,31938,001,2025-10-17_16h48.13.869,HW_LDT_1,2024.2.4,MacIntel,59.88023952,,,,,,,,,,,,,,,,,,,,,,231.3128,231.5112,231.5112,232.0112,,,,,,,,,,,,,,0.5554,1,,,,,,,,,,,,,,m,,,,,,,,,,,,,,,35,0,232.0116,232.578,m,1,0.5554,,[],[],[],[],[],[],[],232.578,234.5778,234.5779,234.5781,[],[],[],[],[],[],[],,234.5781,234.5781,0.062730209,0.066428175,0,0,0,,0,34,34,131,1,4,word,POPULAR,print,popular_p.png,,,,,
,,,,31938,001,2025-10-17_16h48.13.869,HW_LDT_1,2024.2.4,MacIntel,59.88023952,,,,,,,,,,,,,,,,,,,,,,234.5791,234.7778,234.7779,235.2777,,,,,,,,,,,,,,0.9305,1,,,,,,,,,,,,,,z,,,,,,,,,,,,,,,36,0,235.2781,236.2111,z,1,0.9305,,[],[],[],[],[],[],[],236.2112,238.2111,238.2111,238.2113,[],[],[],[],[],[],[],,238.2113,238.2114,0.062730209,0.066428175,0,0,0,,0,35,35,41,1,4,RL,rebicent,cursive,rebicent_c.png,,,,,
,,,,31938,001,2025-10-17_16h48.13.869,HW_LDT_1,2024.2.4,MacIntel,59.88023952,,,,,,,,,,,,,,,,,,,,,,238.2122,238.4111,238.4111,238.9112,,,,,,,,,,,,,,0.8212,1,,,,,,,,,,,,,,m,,,,,,,,,,,,,,,37,0,238.9118,239.7446,m,1,0.8212,,[],[],[],[],[],[],[],239.7446,241.7445,241.7446,241.7447,[],[],[],[],[],[],[],,241.7448,241.7449,0.062730209,0.066428175,0,0,0,,0,36,36,156,1,4,word,TRIBUTE,print,tribute_p.png,,,,,
,,,,31938,001,2025-10-17_16h48.13.869,HW_LDT_1,2024.2.4,MacIntel,59.88023952,,,,,,,,,,,,,,,,,,,,,,241.7459,241.9445,241.9446,242.4445,,,,,,,,,,,,,,1.7145,1,,,,,,,,,,,,,,m,,,,,,,,,,,,,,,38,0,242.4449,244.1611,m,1,1.7145,,[],[],[],[],[],[],[],244.1611,246.161,246.1611,246.1613,[],[],[],[],[],[],[],,246.1614,246.1614,0.062730209,0.066428175,0,0,0,,0,37,37,117,1,4,word,MARINE,print,marine_p.png,,,,,
,,,,31938,001,2025-10-17_16h48.13.869,HW_LDT_1,2024.2.4,MacIntel,59.88023952,,,,,,,,,,,,,,,,,,,,,,246.1625,246.3611,246.3611,246.8611,,,,,,,,,,,,,,0.9468,0,,,,,,,,,,,,,,m,,,,,,,,,,,,,,,39,1,246.8616,247.811,z,0,0.9468,,[],[],[],[],[],[],[],247.8111,249.8111,249.8113,251.1277,[],[],[],[],[],[],[],z,251.1278,251.1278,0.062730209,0.066428175,0,0,0,,0,38,38,106,1,4,word,ELABORATE,cursive,elaborate_c.png,1.3146,,,,
,,,,31938,001,2025-10-17_16h48.13.869,HW_LDT_1,2024.2.4,MacIntel,59.88023952,,,,,,,,,,,,,,,,,,,,,,251.1286,251.3277,251.3277,251.8278,,,,,,,,,,,,,,1.0473,1,,,,,,,,,,,,,,m,,,,,,,,,,,,,,,40,0,251.8283,252.8776,m,1,1.0473,,[],[],[],[],[],[],[],252.8777,254.8777,254.8778,254.8779,[],[],[],[],[],[],[],,254.8779,254.878,0.062730209,0.066428175,0,0,0,,0,39,39,92,1,4,word,CATEGORY,cursive,category_c.png,,,,,
,,,,31938,001,2025-10-17_16h48.13.869,HW_LDT_1,2024.2.4,MacIntel,59.88023952,,,,,,,,,,,,,,,,,,,,,,254.8788,255.0777,255.0778,255.5778,,,,,,,,,,,,,,0.7387,1,,,,,,,,,,,,,,m,,,,,,,,,,,,,,,41,1,255.5783,256.3278,m,1,0.7387,,[],[],[],[],[],[],[],256.328,258.3278,258.3278,259.9612,[],[],[],[],[],[],[],z,259.9612,259.9613,0.062730209,0.066428175,0,0,0,,0,40,40,112,1,4,word,LIBERAL,cursive,liberal_c.png,1.6223,,,,
,,,,31938,001,2025-10-17_16h48.13.869,HW_LDT_1,2024.2.4,MacIntel,59.88023952,,,,,,,,,,,,,,,,,,,,,,259.9624,260.1612,260.1612,260.6611,,,,,,,,,,,,,,1.423,1,,,,,,,,,,,,,,m,,,,,,,,,,,,,,,42,0,260.6616,262.0944,m,1,1.423,,[],[],[],[],[],[],[],262.0945,264.0944,264.0945,264.0946,[],[],[],[],[],[],[],,264.0947,264.0947,0.062730209,0.066428175,0,0,0,,0,41,41,122,1,4,word,MOBILE,print,mobile_p.png,,,,,
,,,,31938,001,2025-10-17_16h48.13.869,HW_LDT_1,2024.2.4,MacIntel,59.88023952,,,,,,,,,,,,,,,,,,,,,,264.0958,264.2944,264.2944,264.7943,,,,,,,,,,,,,,0.6324,1,,,,,,,,,,,,,,m,,,,,,,,,,,,,,,43,0,264.7949,265.428,m,1,0.6324,,[],[],[],[],[],[],[],265.4281,267.4268,267.4268,267.4269,[],[],[],[],[],[],[],,267.427,267.427,0.062730209,0.066428175,0,0,0,,0,42,42,146,1,4,word,RETIRE,print,retire_p.png,,,,,
,,,,31938,001,2025-10-17_16h48.13.869,HW_LDT_1,2024.2.4,MacIntel,59.88023952,,,,,,,,,,,,,,,,,,,,,,267.4278,267.6276,267.6277,268.1274,,,,,,,,,,,,,,0.6056,1,,,,,,,,,,,,,,m,,,,,,,,,,,,,,,44,0,268.1279,268.7448,m,1,0.6056,,[],[],[],[],[],[],[],268.7448,270.7432,270.7432,270.7433,[],[],[],[],[],[],[],,270.7434,270.7434,0.05663149,0.064685161,0,0,0,,0,43,43,89,1,4,word,CAPACITY,cursive,capacity_c.png,,,,,
,,,,31938,001,2025-10-17_16h48.13.869,HW_LDT_1,2024.2.4,MacIntel,59.88023952,,,,,,,,,,,,,,,,,,,,,,270.744,270.9445,270.9445,271.4444,,,,,,,,,,,,,,3.9389,1,,,,,,,,,,,,,,z,,,,,,,,,,,,,,,45,0,271.4448,275.3943,z,1,3.9389,,[],[],[],[],[],[],[],275.3945,277.3942,277.3942,277.3944,[],[],[],[],[],[],[],,277.3944,277.3944,0.05663149,0.064685161,0,0,0,,0,44,44,36,1,4,RL,rabigly,cursive,rabigly_c.png,,,,,
,,,,31938,001,2025-10-17_16h48.13.869,HW_LDT_1,2024.2.4,MacIntel,59.88023952,,,,,,,,,,,,,,,,,,,,,,277.3953,277.5944,277.5944,278.0942,,,,,,,,,,,,,,0.5713,1,,,,,,,,,,,,,,m,,,,,,,,,,,,,,,46,0,278.0947,278.6767,m,1,0.5713,,[],[],[],[],[],[],[],278.6769,280.6777,280.6777,280.6779,[],[],[],[],[],[],[],,280.6779,280.6779,0.05663149,0.064685161,0,0,0,,0,45,45,104,1,4,word,DOMINANT,cursive,dominant_c.png,,,,,
,,,,31938,001,2025-10-17_16h48.13.869,HW_LDT_1,2024.2.4,MacIntel,59.88023952,,,,,,,,,,,,,,,,,,,,,,280.679,280.8776,280.8777,281.3776,,,,,,,,,,,,,,0.6738,0,,,,,,,,,,,,,,z,,,,,,,,,,,,,,,47,0,281.3781,282.0611,m,0,0.6738,,[],[],[],[],[],[],[],282.0612,284.0599,284.06,284.0601,[],[],[],[],[],[],[],,284.0602,284.0603,0.05663149,0.064685161,0,0,0,,0,46,46,22,1,4,RL,linedal,cursive,linedal_c.png,,,,,
,,,,31938,001,2025-10-17_16h48.13.869,HW_LDT_1,2024.2.4,MacIntel,59.88023952,,,,,,,,,,,,,,,,,,,,,,284.0614,284.2609,284.261,284.7603,,,,,,,,,,,,,,2.4977,1,,,,,,,,,,,,,,z,,,,,,,,,,,,,,,48,0,284.7607,287.2609,z,1,2.4977,,[],[],[],[],[],[],[],287.2609,289.2609,289.2609,289.2611,[],[],[],[],[],[],[],,289.2611,289.2612,0.05663149,0.064685161,0,0,0,,0,47,47,52,1,4,TL,cagetory,cursive,cagetory_c.png,,,,,
,,,,31938,001,2025-10-17_16h48.13.869,HW_LDT_1,2024.2.4,MacIntel,59.88023952,,,,,,,,,,,,,,,,,,,,,,289.2622,289.461,289.461,289.9609,,,,,,,,,,,,,,1.3305,1,,,,,,,,,,,,,,z,,,,,,,,,,,,,,,49,0,289.9614,291.2932,z,1,1.3305,,[],[],[],[],[],[],[],291.2933,293.2943,293.2943,293.2944,[],[],[],[],[],[],[],,293.2945,293.2946,0.05663149,0.064685161,0,0,0,,0,48,48,53,1,4,TL,cemerony,print,cemerony_p.png,,,,,
,,,,31938,001,2025-10-17_16h48.13.869,HW_LDT_1,2024.2.4,MacIntel,59.88023952,,,,,,,,,,,,,,,,,,,,,,293.2956,293.4943,293.4943,293.9942,,,,,,,,,,,,,,1.921,1,,,,,,,,,,,,,,m,,,,,,,,,,,,,,,50,0,293.9947,295.9276,m,1,1.921,,[],[],[],[],[],[],[],295.9277,297.9274,297.9275,297.9277,[],[],[],[],[],[],[],,297.9277,297.9278,0.069351467,0.157156221,0,0,0,,0,49,49,142,1,4,word,REMOTE,cursive,remote_c.png,,,,,
,,,,31938,001,2025-10-17_16h48.13.869,HW_LDT_1,2024.2.4,MacIntel,59.88023952,,,,,,,,,,,,,,,,,,,,,,297.9289,298.1276,298.1277,298.6275,,,,,,,,,,,,,,0.5903,1,,,,,,,,,,,,,,m,,,,,,,,,,,,,,,51,1,298.6279,299.2275,m,1,0.5903,,[],[],[],[],[],[],[],299.2277,301.2275,301.2276,302.5776,[],[],[],[],[],[],[],m,302.5777,302.5778,0.069351467,0.157156221,0,0,0,,0,50,50,80,1,4,word,ACADEMY,print,academy_p.png,1.3383,,,,
,,,,31938,001,2025-10-17_16h48.13.869,HW_LDT_1,2024.2.4,MacIntel,59.88023952,,,,,,,,,,,,,,,,,,,,,,302.579,302.7768,302.7768,303.2766,,,,,,,,,,,,,,2.3121,1,,,,,,,,,,,,,,z,,,,,,,,,,,,,,,52,0,303.2771,305.5943,z,1,2.3121,,[],[],[],[],[],[],[],305.5943,307.5942,307.5943,307.5944,[],[],[],[],[],[],[],,307.5945,307.5946,0.069351467,0.157156221,0,0,0,,0,51,51,44,1,4,RL,senvilent,print,senvilent_p.png,,,,,
,,,,31938,001,2025-10-17_16h48.13.869,HW_LDT_1,2024.2.4,MacIntel,59.88023952,,,,,,,,,,,,,,,,,,,,,,307.5958,307.7943,307.7943,308.2942,,,,,,,,,,,,,,1.0039,1,,,,,,,,,,,,,,z,,,,,,,,,,,,,,,53,0,308.2947,309.3108,z,1,1.0039,,[],[],[],[],[],[],[],309.3109,311.3108,311.3108,311.311,[],[],[],[],[],[],[],,311.3111,311.3111,0.069351467,0.157156221,0,0,0,,0,52,52,61,1,4,TL,lotace,cursive,lotace_c.png,,,,,
,,,,31938,001,2025-10-17_16h48.13.869,HW_LDT_1,2024.2.4,MacIntel,59.88023952,,,,,,,,,,,,,,,,,,,,,,311.3122,311.5108,311.5108,312.0109,,,,,,,,,,,,,,0.7952,0,,,,,,,,,,,,,,m,,,,,,,,,,,,,,,54,0,312.0113,312.8108,z,0,0.7952,,[],[],[],[],[],[],[],312.8109,314.8108,314.811,314.8111,[],[],[],[],[],[],[],,314.8112,314.8112,0.069351467,0.157156221,0,0,0,,0,53,53,138,1,4,word,REFUSAL,cursive,refusal_c.png,,,,,
,,,,31938,001,2025-10-17_16h48.13.869,HW_LDT_1,2024.2.4,MacIntel,59.88023952,,,,,,,,,,,,,,,,,,,,,,314.8122,315.0108,315.0108,315.5107,,,,,,,,,,,,,,0.5729,1,,,,,,,,,,,,,,m,,,,,,,,,,,,,,,55,0,315.5112,316.0933,m,1,0.5729,,[],[],[],[],[],[],[],316.0934,318.0942,318.0942,318.0944,[],[],[],[],[],[],[],,318.0944,318.0945,0.069351467,0.157156221,0,0,0,,0,54,54,135,1,4,word,QUALITY,print,quality_p.png,,,,,
,,,,31938,001,2025-10-17_16h48.13.869,HW_LDT_1,2024.2.4,MacIntel,59.88023952,,,,,,,,,,,,,,,,,,,,,,318.0955,318.2932,318.2932,318.7941,,,,,,,,,,,,,,0.6145,1,,,,,,,,,,,,,,m,,,,,,,,,,,,,,,56,0,318.7947,319.4107,m,1,0.6145,,[],[],[],[],[],[],[],319.4107,321.4107,321.4107,321.4109,[],[],[],[],[],[],[],,321.4109,321.4111,0.069351467,0.157156221,0,0,0,,0,55,55,81,1,4,word,ADVISORY,cursive,advisory_c.png,,,,,
,,,,31938,001,2025-10-17_16h48.13.869,HW_LDT_1,2024.2.4,MacIntel,59.88023952,,,,,,,,,,,,,,,,,,,,,,321.4121,321.6108,321.6109,322.1099,,,,,,,,,,,,,,0.9905,1,,,,,,,,,,,,,,z,,,,,,,,,,,,,,,57,0,322.1104,323.111,z,1,0.9905,,[],[],[],[],[],[],[],323.1111,325.1098,325.1099,325.11,[],[],[],[],[],[],[],,325.1101,325.1101,0.069351467,0.157156221,0,0,0,,0,56,56,38,1,4,RL,refakive,print,refakive_p.png,,,,,
,,,,31938,001,2025-10-17_16h48.13.869,HW_LDT_1,2024.2.4,MacIntel,59.88023952,,,,,,,,,,,,,,,,,,,,,,325.1109,325.3107,325.3108,325.8108,,,,,,,,,,,,,,0.5314,1,,,,,,,,,,,,,,m,,,,,,,,,,,,,,,58,0,325.8113,326.3441,m,1,0.5314,,[],[],[],[],[],[],[],326.3442,328.3442,328.3442,328.3443,[],[],[],[],[],[],[],,328.3444,328.3445,0.069351467,0.157156221,0,0,0,,0,57,57,90,1,4,word,CAPITAL,print,capital_p.png,,,,,
,,,,31938,001,2025-10-17_16h48.13.869,HW_LDT_1,2024.2.4,MacIntel,59.88023952,,,,,,,,,,,,,,,,,,,,,,328.3455,328.5441,328.5441,329.0441,,,,,,,,,,,,,,0.6884,1,,,,,,,,,,,,,,z,,,,,,,,,,,,,,,59,0,329.0445,329.7442,z,1,0.6884,,[],[],[],[],[],[],[],329.7443,331.744,331.7441,331.7443,[],[],[],[],[],[],[],,331.7443,331.7444,0.069351467,0.157156221,0,0,0,,0,58,58,40,1,4,RL,reconal,print,reconal_p.png,,,,,
,,,,31938,001,2025-10-17_16h48.13.869,HW_LDT_1,2024.2.4,MacIntel,59.88023952,,,,,,,,,,,,,,,,,,,,,,331.7454,331.9431,331.9432,332.4441,,,,,,,,,,,,,,0.6375,1,,,,,,,,,,,,,,z,,,,,,,,,,,,,,,60,0,332.4445,333.0932,z,1,0.6375,,[],[],[],[],[],[],[],333.0933,335.094,335.0941,335.0943,[],[],[],[],[],[],[],,335.0943,335.0944,0.069351467,0.157156221,0,0,0,,0,59,59,26,1,4,RL,mesibine,cursive,mesibine_c.png,,,,,
,,,,31938,001,2025-10-17_16h48.13.869,HW_LDT_1,2024.2.4,MacIntel,59.88023952,,,,,,,,,,,,,,,,,,,,,,335.0954,335.294,335.2941,335.7941,,,,,,,,,,,,,,1.3785,1,,,,,,,,,,,,,,m,,,,,,,,,,,,,,,61,1,335.7946,337.1773,m,1,1.3785,,[],[],[],[],[],[],[],337.1774,339.1775,339.1775,342.4107,[],[],[],[],[],[],[],m,342.4107,342.4108,0.069351467,0.157156221,0,0,0,,0,60,60,147,1,4,word,ROMANTIC,print,romantic_p.png,3.2295,,,,
,,,,31938,001,2025-10-17_16h48.13.869,HW_LDT_1,2024.2.4,MacIntel,59.88023952,,,,,,,,,,,,,,,,,,,,,,342.4116,342.6098,342.6098,343.1108,,,,,,,,,,,,,,2.1131,1,,,,,,,,,,,,,,z,,,,,,,,,,,,,,,62,0,343.1112,345.2273,z,1,2.1131,,[],[],[],[],[],[],[],345.2274,347.2274,347.2274,347.2275,[],[],[],[],[],[],[],,347.2275,347.2277,0.069351467,0.157156221,0,0,0,,0,61,61,45,1,4,RL,spetisic,cursive,spetisic_c.png,,,,,
,,,,31938,001,2025-10-17_16h48.13.869,HW_LDT_1,2024.2.4,MacIntel,59.88023952,,,,,,,,,,,,,,,,,,,,,,347.2287,347.4274,347.4274,347.9273,,,,,,,,,,,,,,0.5382,1,,,,,,,,,,,,,,m,,,,,,,,,,,,,,,63,0,347.9278,348.4766,m,1,0.5382,,[],[],[],[],[],[],[],348.4766,350.4764,350.4765,350.4767,[],[],[],[],[],[],[],,350.4767,350.4769,0.069351467,0.157156221,0,0,0,,0,62,62,130,1,4,word,POLICY,cursive,policy_c.png,,,,,
,,,,31938,001,2025-10-17_16h48.13.869,HW_LDT_1,2024.2.4,MacIntel,59.88023952,,,,,,,,,,,,,,,,,,,,,,350.4778,350.6771,350.6772,351.1774,,,,,,,,,,,,,,0.5973,1,,,,,,,,,,,,,,z,,,,,,,,,,,,,,,64,0,351.1779,351.7773,z,1,0.5973,,[],[],[],[],[],[],[],351.7773,353.7763,353.7764,353.7766,[],[],[],[],[],[],[],,353.7766,353.7767,0.069351467,0.157156221,0,0,0,,0,63,63,76,1,4,TL,setanor,print,setanor_p.png,,,,,
,,,,31938,001,2025-10-17_16h48.13.869,HW_LDT_1,2024.2.4,MacIntel,59.88023952,,,,,,,,,,,,,,,,,,,,,,353.7777,353.9763,353.9763,354.4773,,,,,,,,,,,,,,0.8216,1,,,,,,,,,,,,,,m,,,,,,,,,,,,,,,65,0,354.4778,355.3107,m,1,0.8216,,[],[],[],[],[],[],[],355.3108,357.3106,357.3106,357.3108,[],[],[],[],[],[],[],,357.3109,357.3109,0.069351467,0.157156221,0,0,0,,0,64,64,152,1,4,word,SPECIMEN,cursive,specimen_c.png,,,,,
,,,,31938,001,2025-10-17_16h48.13.869,HW_LDT_1,2024.2.4,MacIntel,59.88023952,,,,,,,,,,,,,,,,,,,,,,357.3119,357.5106,357.5107,358.0106,,,,,,,,,,,,,,0.5886,1,,,,,,,,,,,,,,z,,,,,,,,,,,,,,,66,0,358.0111,358.6107,z,1,0.5886,,[],[],[],[],[],[],[],358.6108,360.6107,360.6107,360.6109,[],[],[],[],[],[],[],,360.6109,360.611,0.069351467,0.157156221,0,0,0,,0,65,65,70,1,4,TL,quatily,print,quatily_p.png,,,,,
,,,,31938,001,2025-10-17_16h48.13.869,HW_LDT_1,2024.2.4,MacIntel,59.88023952,,,,,,,,,,,,,,,,,,,,,,360.612,360.8106,360.8107,361.3106,,,,,,,,,,,,,,0.6879,1,,,,,,,,,,,,,,z,,,,,,,,,,,,,,,67,0,361.3111,362.0107,z,1,0.6879,,[],[],[],[],[],[],[],362.0108,364.0107,364.0108,364.0109,[],[],[],[],[],[],[],,364.0109,364.011,0.069351467,0.157156221,0,0,0,,0,66,66,21,1,4,RL,insibate,print,insibate_p.png,,,,,
,,,,31938,001,2025-10-17_16h48.13.869,HW_LDT_1,2024.2.4,MacIntel,59.88023952,,,,,,,,,,,,,,,,,,,,,,364.0121,364.2106,364.2106,364.7106,,,,,,,,,,,,,,0.9228,1,,,,,,,,,,,,,,z,,,,,,,,,,,,,,,68,0,364.711,365.644,z,1,0.9228,,[],[],[],[],[],[],[],365.6441,367.644,367.644,367.6442,[],[],[],[],[],[],[],,367.6443,367.6443,0.069351467,0.157156221,0,0,0,,0,67,67,46,1,4,RL,skofen,cursive,skofen_c.png,,,,,
,,,,31938,001,2025-10-17_16h48.13.869,HW_LDT_1,2024.2.4,MacIntel,59.88023952,,,,,,,,,,,,,,,,,,,,,,367.6454,367.8439,367.844,368.3439,,,,,,,,,,,,,,0.6972,1,,,,,,,,,,,,,,m,,,,,,,,,,,,,,,69,0,368.3445,369.0439,m,1,0.6972,,[],[],[],[],[],[],[],369.044,371.0439,371.0439,371.0441,[],[],[],[],[],[],[],,371.0441,371.0443,0.069351467,0.157156221,0,0,0,,0,68,68,88,1,4,word,CAMERA,print,camera_p.png,,,,,
,,,,31938,001,2025-10-17_16h48.13.869,HW_LDT_1,2024.2.4,MacIntel,59.88023952,,,,,,,,,,,,,,,,,,,,,,371.0453,371.2439,371.2439,371.7439,,,,,,,,,,,,,,0.7881,1,,,,,,,,,,,,,,m,,,,,,,,,,,,,,,70,1,371.7444,372.5441,m,1,0.7881,,[],[],[],[],[],[],[],372.5442,374.5439,374.544,375.994,[],[],[],[],[],[],[],m,375.9941,375.9942,0.069351467,0.157156221,0,0,0,,0,69,69,84,1,4,word,BELOVED,print,beloved_p.png,1.4419,,,,
,,,,31938,001,2025-10-17_16h48.13.869,HW_LDT_1,2024.2.4,MacIntel,59.88023952,,,,,,,,,,,,,,,,,,,,,,375.9953,376.1934,376.1935,376.6939,,,,,,,,,,,,,,0.663,1,,,,,,,,,,,,,,m,,,,,,,,,,,,,,,71,0,376.6944,377.3606,m,1,0.663,,[],[],[],[],[],[],[],377.3607,379.3605,379.3605,379.3607,[],[],[],[],[],[],[],,379.3607,379.3609,0.069351467,0.157156221,0,0,0,,0,70,70,118,1,4,word,MEDICINE,cursive,medicine_c.png,,,,,
,,,,31938,001,2025-10-17_16h48.13.869,HW_LDT_1,2024.2.4,MacIntel,59.88023952,,,,,,,,,,,,,,,,,,,,,,379.3619,379.5606,379.5606,380.0605,,,,,,,,,,,,,,0.9066,1,,,,,,,,,,,,,,m,,,,,,,,,,,,,,,72,0,380.061,380.9772,m,1,0.9066,,[],[],[],[],[],[],[],380.9774,382.9772,382.9772,382.9773,[],[],[],[],[],[],[],,382.9774,382.9775,0.069351467,0.157156221,0,0,0,,0,71,71,116,1,4,word,MARGINAL,cursive,marginal_c.png,,,,,
,,,,31938,001,2025-10-17_16h48.13.869,HW_LDT_1,2024.2.4,MacIntel,59.88023952,,,,,,,,,,,,,,,,,,,,,,382.9787,383.1772,383.1772,383.6773,,,,,,,,,,,,,,0.6116,1,,,,,,,,,,,,,,m,,,,,,,,,,,,,,,73,0,383.6777,384.293,m,1,0.6116,,[],[],[],[],[],[],[],384.2931,386.2938,386.2939,386.294,[],[],[],[],[],[],[],,386.2941,386.2941,0.069351467,0.157156221,0,0,0,,0,72,72,157,1,4,word,VALIDITY,print,validity_p.png,,,,,
,,,,31938,001,2025-10-17_16h48.13.869,HW_LDT_1,2024.2.4,MacIntel,59.88023952,,,,,,,,,,,,,,,,,,,,,,386.2952,386.4938,386.4938,386.9938,,,,,,,,,,,,,,2.4236,1,,,,,,,,,,,,,,z,,,,,,,,,,,,,,,74,0,386.9944,389.4272,z,1,2.4236,,[],[],[],[],[],[],[],389.4273,391.4271,391.4272,391.4274,[],[],[],[],[],[],[],,391.4274,391.4275,0.069351467,0.157156221,0,0,0,,0,73,73,30,1,4,RL,nunewical,cursive,nunewical_c.png,,,,,
,,,,31938,001,2025-10-17_16h48.13.869,HW_LDT_1,2024.2.4,MacIntel,59.88023952,,,,,,,,,,,,,,,,,,,,,,391.4286,391.6271,391.6272,392.1271,,,,,,,,,,,,,,1.8715,1,,,,,,,,,,,,,,z,,,,,,,,,,,,,,,75,1,392.1277,394.0099,z,1,1.8715,,[],[],[],[],[],[],[],394.0099,396.0105,396.0106,396.7271,[],[],[],[],[],[],[],z,396.7272,396.7273,0.069351467,0.157156221,0,0,0,,0,74,74,39,1,4,RL,relone,cursive,relone_c.png,0.7136,,,,
,,,,31938,001,2025-10-17_16h48.13.869,HW_LDT_1,2024.2.4,MacIntel,59.88023952,,,,,,,,,,,,,,,,,,,,,,396.7284,396.9271,396.9272,397.4271,,,,,,,,,,,,,,0.8632,1,,,,,,,,,,,,,,m,,,,,,,,,,,,,,,76,0,397.4277,398.2938,m,1,0.8632,,[],[],[],[],[],[],[],398.2939,400.2939,400.2939,400.2942,[],[],[],[],[],[],[],,400.2942,400.2942,0.069351467,0.157156221,0,0,0,,0,75,75,134,1,4,word,QUALIFY,print,qualify_p.png,,,,,
,,,,31938,001,2025-10-17_16h48.13.869,HW_LDT_1,2024.2.4,MacIntel,59.88023952,,,,,,,,,,,,,,,,,,,,,,400.2952,400.4938,400.4938,400.9937,,,,,,,,,,,,,,1.1547,1,,,,,,,,,,,,,,z,,,,,,,,,,,,,,,77,0,400.9942,402.1605,z,1,1.1547,,[],[],[],[],[],[],[],402.1607,404.1604,404.1605,404.1608,[],[],[],[],[],[],[],,404.1608,404.1609,0.069351467,0.157156221,0,0,0,,0,76,76,15,1,4,RL,debave,cursive,debave_c.png,,,,,
,,,,31938,001,2025-10-17_16h48.13.869,HW_LDT_1,2024.2.4,MacIntel,59.88023952,,,,,,,,,,,,,,,,,,,,,,404.1619,404.3606,404.3606,404.8605,,,,,,,,,,,,,,1.3384,1,,,,,,,,,,,,,,z,,,,,,,,,,,,,,,78,0,404.861,406.2105,z,1,1.3384,,[],[],[],[],[],[],[],406.2105,408.2104,408.2104,408.2107,[],[],[],[],[],[],[],,408.2107,408.2107,0.069351467,0.157156221,0,0,0,,0,77,77,17,1,4,RL,denficy,cursive,denficy_c.png,,,,,
,,,,31938,001,2025-10-17_16h48.13.869,HW_LDT_1,2024.2.4,MacIntel,59.88023952,,,,,,,,,,,,,,,,,,,,,,408.2118,408.4104,408.4105,408.9104,,,,,,,,,,,,,,0.7385,1,,,,,,,,,,,,,,z,,,,,,,,,,,,,,,79,0,408.911,409.6605,z,1,0.7385,,[],[],[],[],[],[],[],409.6607,411.6605,411.6605,411.6607,[],[],[],[],[],[],[],,411.6607,411.6608,0.069351467,0.157156221,0,0,0,,0,78,78,4,1,4,RL,betemit,cursive,betemit_c.png,,,,,
,,,,31938,001,2025-10-17_16h48.13.869,HW_LDT_1,2024.2.4,MacIntel,59.88023952,,,,,,,,,,,,,,,,,,,,,,411.6618,411.8604,411.8604,412.3604,,,,,,,,,,,,,,0.7477,1,,,,,,,,,,,,,,m,,,,,,,,,,,,,,,80,0,412.3609,413.1104,m,1,0.7477,,[],[],[],[],[],[],[],413.1104,415.1103,415.1104,415.1107,[],[],[],[],[],[],[],,415.1107,419.3439,0.013012307,-0.377506724,1,0,0,,0,79,79,98,1,4,word,CRIMINAL,cursive,criminal_c.png,,,break_done_button,,
,,,,31938,001,2025-10-17_16h48.13.869,HW_LDT_1,2024.2.4,MacIntel,59.88023952,,,,,,,,,,,,,,,,,,,,,,419.345,419.5437,419.5438,420.0437,,,,,,,,,,,,,,0.9051,1,,,,,,,,,,,,,,z,,,,,,,,,,,,,,,81,0,420.0442,420.9605,z,1,0.9051,,[],[],[],[],[],[],[],420.9606,422.9604,422.9604,422.9606,[],[],[],[],[],[],[],,422.9606,422.9608,0.013012307,-0.377506724,0,0,0,,0,80,80,34,1,4,RL,posity,cursive,posity_c.png,,,,,
,,,,31938,001,2025-10-17_16h48.13.869,HW_LDT_1,2024.2.4,MacIntel,59.88023952,,,,,,,,,,,,,,,,,,,,,,422.9617,423.1604,423.1604,423.6604,,,,,,,,,,,,,,0.73,1,,,,,,,,,,,,,,m,,,,,,,,,,,,,,,82,0,423.6609,424.3933,m,1,0.73,,[],[],[],[],[],[],[],424.3934,426.3937,426.3937,426.3939,[],[],[],[],[],[],[],,426.394,426.394,0.013012307,-0.377506724,0,0,0,,0,81,81,132,1,4,word,PROPOSAL,print,proposal_p.png,,,,,
,,,,31938,001,2025-10-17_16h48.13.869,HW_LDT_1,2024.2.4,MacIntel,59.88023952,,,,,,,,,,,,,,,,,,,,,,426.3951,426.5936,426.5937,427.0937,,,,,,,,,,,,,,0.9633,1,,,,,,,,,,,,,,z,,,,,,,,,,,,,,,83,0,427.0942,428.0604,z,1,0.9633,,[],[],[],[],[],[],[],428.0605,430.0603,430.0603,430.0606,[],[],[],[],[],[],[],,430.0606,430.0607,0.013012307,-0.377506724,0,0,0,,0,82,82,10,1,4,RL,carminal,cursive,carminal_c.png,,,,,
,,,,31938,001,2025-10-17_16h48.13.869,HW_LDT_1,2024.2.4,MacIntel,59.88023952,,,,,,,,,,,,,,,,,,,,,,430.0617,430.2603,430.2604,430.7603,,,,,,,,,,,,,,0.5226,0,,,,,,,,,,,,,,z,,,,,,,,,,,,,,,84,1,430.7608,431.2937,m,0,0.5226,,[],[],[],[],[],[],[],431.2938,433.2936,433.2937,435.2769,[],[],[],[],[],[],[],m,435.277,435.2771,0.013012307,-0.377506724,0,0,0,,0,83,83,60,1,4,TL,hetirage,print,hetirage_p.png,1.9721,,,,
,,,,31938,001,2025-10-17_16h48.13.869,HW_LDT_1,2024.2.4,MacIntel,59.88023952,,,,,,,,,,,,,,,,,,,,,,435.2779,435.477,435.477,435.9771,,,,,,,,,,,,,,0.9044,1,,,,,,,,,,,,,,z,,,,,,,,,,,,,,,85,0,435.9775,436.8937,z,1,0.9044,,[],[],[],[],[],[],[],436.8937,438.8936,438.8937,438.8939,[],[],[],[],[],[],[],,438.894,438.894,0.013012307,-0.377506724,0,0,0,,0,84,84,69,1,4,TL,quafily,print,quafily_p.png,,,,,
,,,,31938,001,2025-10-17_16h48.13.869,HW_LDT_1,2024.2.4,MacIntel,59.88023952,,,,,,,,,,,,,,,,,,,,,,438.8951,439.0937,439.0937,439.5936,,,,,,,,,,,,,,0.7462,1,,,,,,,,,,,,,,m,,,,,,,,,,,,,,,86,1,439.5941,440.3436,m,1,0.7462,,[],[],[],[],[],[],[],440.3436,442.3436,442.3437,443.3103,[],[],[],[],[],[],[],m,443.3104,443.3105,0.013012307,-0.377506724,0,0,0,,0,85,85,149,1,4,word,SENATOR,print,senator_p.png,0.9554,,,,
,,,,31938,001,2025-10-17_16h48.13.869,HW_LDT_1,2024.2.4,MacIntel,59.88023952,,,,,,,,,,,,,,,,,,,,,,443.3114,443.5104,443.5104,444.0102,,,,,,,,,,,,,,0.7619,1,,,,,,,,,,,,,,z,,,,,,,,,,,,,,,87,0,444.0107,444.7769,z,1,0.7619,,[],[],[],[],[],[],[],444.777,446.7768,446.7769,446.7771,[],[],[],[],[],[],[],,446.7771,446.7772,0.013012307,-0.377506724,0,0,0,,0,86,86,67,1,4,TL,polupar,print,polupar_p.png,,,,,
,,,,31938,001,2025-10-17_16h48.13.869,HW_LDT_1,2024.2.4,MacIntel,59.88023952,,,,,,,,,,,,,,,,,,,,,,446.7783,446.9769,446.9769,447.4769,,,,,,,,,,,,,,0.7386,1,,,,,,,,,,,,,,z,,,,,,,,,,,,,,,88,1,447.4774,448.227,z,1,0.7386,,[],[],[],[],[],[],[],448.2271,450.2269,450.227,451.4769,[],[],[],[],[],[],[],m,451.477,451.4771,0.013012307,-0.377506724,0,0,0,,0,87,87,11,1,4,RL,clisimal,print,clisimal_p.png,1.2482,,,,
,,,,31938,001,2025-10-17_16h48.13.869,HW_LDT_1,2024.2.4,MacIntel,59.88023952,,,,,,,,,,,,,,,,,,,,,,451.4779,451.6769,451.6769,452.1769,,,,,,,,,,,,,,0.7628,1,,,,,,,,,,,,,,z,,,,,,,,,,,,,,,89,0,452.1774,452.9435,z,1,0.7628,,[],[],[],[],[],[],[],452.9436,454.9436,454.9436,454.9438,[],[],[],[],[],[],[],,454.9439,454.9439,0.013012307,-0.377506724,0,0,0,,0,88,88,54,1,4,TL,codemy,print,codemy_p.png,,,,,
,,,,31938,001,2025-10-17_16h48.13.869,HW_LDT_1,2024.2.4,MacIntel,59.88023952,,,,,,,,,,,,,,,,,,,,,,454.945,455.1436,455.1436,455.6436,,,,,,,,,,,,,,1.1124,1,,,,,,,,,,,,,,m,,,,,,,,,,,,,,,90,0,455.6441,456.7597,m,1,1.1124,,[],[],[],[],[],[],[],456.7598,458.7602,458.7603,458.7605,[],[],[],[],[],[],[],,458.7605,458.7606,0.013012307,-0.377506724,0,0,0,,0,89,89,129,1,4,word,PARENT,cursive,parent_c.png,,,,,
,,,,31938,001,2025-10-17_16h48.13.869,HW_LDT_1,2024.2.4,MacIntel,59.88023952,,,,,,,,,,,,,,,,,,,,,,458.7616,458.9594,458.9596,459.4602,,,,,,,,,,,,,,0.6049,1,,,,,,,,,,,,,,m,,,,,,,,,,,,,,,91,0,459.4607,460.0769,m,1,0.6049,,[],[],[],[],[],[],[],460.077,462.0768,462.0768,462.077,[],[],[],[],[],[],[],,462.0771,462.0771,0.013012307,-0.377506724,0,0,0,,0,90,90,119,1,4,word,MEMORY,print,memory_p.png,,,,,
,,,,31938,001,2025-10-17_16h48.13.869,HW_LDT_1,2024.2.4,MacIntel,59.88023952,,,,,,,,,,,,,,,,,,,,,,462.0782,462.2769,462.2769,462.7768,,,,,,,,,,,,,,0.7237,1,,,,,,,,,,,,,,m,,,,,,,,,,,,,,,92,0,462.7774,463.5102,m,1,0.7237,,[],[],[],[],[],[],[],463.5103,465.5101,465.5101,465.5103,[],[],[],[],[],[],[],,465.5103,465.5104,0.013012307,-0.377506724,0,0,0,,0,91,91,107,1,4,word,EVIDENT,print,evident_p.png,,,,,
,,,,31938,001,2025-10-17_16h48.13.869,HW_LDT_1,2024.2.4,MacIntel,59.88023952,,,,,,,,,,,,,,,,,,,,,,465.5113,465.7102,465.7103,466.2102,,,,,,,,,,,,,,0.8653,1,,,,,,,,,,,,,,m,,,,,,,,,,,,,,,93,1,466.2106,467.0768,m,1,0.8653,,[],[],[],[],[],[],[],467.077,469.0768,469.0768,470.0934,[],[],[],[],[],[],[],z,470.0934,470.0936,0.013012307,-0.377506724,0,0,0,,0,92,92,82,1,4,word,AMATEUR,cursive,amateur_c.png,1.008,,,,
,,,,31938,001,2025-10-17_16h48.13.869,HW_LDT_1,2024.2.4,MacIntel,59.88023952,,,,,,,,,,,,,,,,,,,,,,470.0946,470.2935,470.2935,470.7935,,,,,,,,,,,,,,1.2711,1,,,,,,,,,,,,,,m,,,,,,,,,,,,,,,94,0,470.794,472.0769,m,1,1.2711,,[],[],[],[],[],[],[],472.077,474.0768,474.0769,474.077,[],[],[],[],[],[],[],,474.0771,474.0772,0.013012307,-0.377506724,0,0,0,,0,93,93,111,1,4,word,INDICATE,print,indicate_p.png,,,,,
,,,,31938,001,2025-10-17_16h48.13.869,HW_LDT_1,2024.2.4,MacIntel,59.88023952,,,,,,,,,,,,,,,,,,,,,,474.0782,474.2769,474.2769,474.7768,,,,,,,,,,,,,,1.5627,1,,,,,,,,,,,,,,m,,,,,,,,,,,,,,,95,1,474.7773,476.3424,m,1,1.5627,,[],[],[],[],[],[],[],476.3425,478.3435,478.3435,479.5267,[],[],[],[],[],[],[],z,479.5268,479.5269,0.013012307,-0.377506724,0,0,0,,0,94,94,151,1,4,word,SPECIFIC,cursive,specific_c.png,1.1791,,,,
,,,,31938,001,2025-10-17_16h48.13.869,HW_LDT_1,2024.2.4,MacIntel,59.88023952,,,,,,,,,,,,,,,,,,,,,,479.5277,479.7268,479.7269,480.2269,,,,,,,,,,,,,,1.0067,1,,,,,,,,,,,,,,z,,,,,,,,,,,,,,,96,0,480.2274,481.2435,z,1,1.0067,,[],[],[],[],[],[],[],481.2436,483.2435,483.2435,483.2437,[],[],[],[],[],[],[],,483.2437,483.2438,0.013012307,-0.377506724,0,0,0,,0,95,95,74,1,4,TL,rerite,print,rerite_p.png,,,,,
,,,,31938,001,2025-10-17_16h48.13.869,HW_LDT_1,2024.2.4,MacIntel,59.88023952,,,,,,,,,,,,,,,,,,,,,,483.2448,483.4435,483.4435,483.9435,,,,,,,,,,,,,,0.5142,1,,,,,,,,,,,,,,m,,,,,,,,,,,,,,,97,1,483.944,484.4602,m,1,0.5142,,[],[],[],[],[],[],[],484.4603,486.4601,486.4601,487.2934,[],[],[],[],[],[],[],m,487.2935,487.2937,0.013012307,-0.377506724,0,0,0,,0,96,96,105,1,4,word,EDITOR,print,editor_p.png,0.8298,,,,
,,,,31938,001,2025-10-17_16h48.13.869,HW_LDT_1,2024.2.4,MacIntel,59.88023952,,,,,,,,,,,,,,,,,,,,,,487.2947,487.4932,487.4933,487.9934,,,,,,,,,,,,,,0.7398,1,,,,,,,,,,,,,,m,,,,,,,,,,,,,,,98,0,487.9939,488.7435,m,1,0.7398,,[],[],[],[],[],[],[],488.7435,490.7434,490.7436,490.7437,[],[],[],[],[],[],[],,490.7437,490.7438,0.013012307,-0.377506724,0,0,0,,0,97,97,123,1,4,word,MODERATE,print,moderate_p.png,,,,,
,,,,31938,001,2025-10-17_16h48.13.869,HW_LDT_1,2024.2.4,MacIntel,59.88023952,,,,,,,,,,,,,,,,,,,,,,490.7449,490.9434,490.9434,491.4434,,,,,,,,,,,,,,1.9483,1,,,,,,,,,,,,,,z,,,,,,,,,,,,,,,99,1,491.4439,493.3934,z,1,1.9483,,[],[],[],[],[],[],[],493.3935,495.3933,495.3934,496.0268,[],[],[],[],[],[],[],z,496.0268,496.0269,0.013012307,-0.377506724,0,0,0,,0,98,98,2,1,4,RL,asiral,cursive,asiral_c.png,0.6225,,,,
,,,,31938,001,2025-10-17_16h48.13.869,HW_LDT_1,2024.2.4,MacIntel,59.88023952,,,,,,,,,,,,,,,,,,,,,,496.0278,496.2267,496.2268,496.7268,,,,,,,,,,,,,,0.6312,1,,,,,,,,,,,,,,m,,,,,,,,,,,,,,,100,0,496.7273,497.3601,m,1,0.6312,,[],[],[],[],[],[],[],497.3602,499.36,499.3601,499.3603,[],[],[],[],[],[],[],,499.3603,499.3604,0.013012307,-0.377506724,0,0,0,,0,99,99,86,1,4,word,BESIDE,print,beside_p.png,,,,,
,,,,31938,001,2025-10-17_16h48.13.869,HW_LDT_1,2024.2.4,MacIntel,59.88023952,,,,,,,,,,,,,,,,,,,,,,499.3614,499.5601,499.5601,500.06,,,,,,,,,,,,,,0.6546,1,,,,,,,,,,,,,,m,,,,,,,,,,,,,,,101,0,500.0606,500.7268,m,1,0.6546,,[],[],[],[],[],[],[],500.7268,502.7267,502.7268,502.7269,[],[],[],[],[],[],[],,502.7269,502.727,0.013012307,-0.377506724,0,0,0,,0,100,100,158,1,4,word,VELOCITY,cursive,velocity_c.png,,,,,
,,,,31938,001,2025-10-17_16h48.13.869,HW_LDT_1,2024.2.4,MacIntel,59.88023952,,,,,,,,,,,,,,,,,,,,,,502.728,502.9267,502.9267,503.4266,,,,,,,,,,,,,,1.0081,1,,,,,,,,,,,,,,z,,,,,,,,,,,,,,,102,1,503.4271,504.4433,z,1,1.0081,,[],[],[],[],[],[],[],504.4435,506.4434,506.4435,507.4933,[],[],[],[],[],[],[],m,507.4934,507.4935,0.013012307,-0.377506724,0,0,0,,0,101,101,75,1,4,TL,sanile,print,sanile_p.png,1.0376,,,,
,,,,31938,001,2025-10-17_16h48.13.869,HW_LDT_1,2024.2.4,MacIntel,59.88023952,,,,,,,,,,,,,,,,,,,,,,507.4944,507.6933,507.6934,508.1925,,,,,,,,,,,,,,0.806,1,,,,,,,,,,,,,,z,,,,,,,,,,,,,,,103,0,508.193,509.0101,z,1,0.806,,[],[],[],[],[],[],[],509.0102,511.01,511.0101,511.0102,[],[],[],[],[],[],[],,511.0102,511.0103,0.013012307,-0.377506724,0,0,0,,0,102,102,63,1,4,TL,miskate,print,miskate_p.png,,,,,
,,,,31938,001,2025-10-17_16h48.13.869,HW_LDT_1,2024.2.4,MacIntel,59.88023952,,,,,,,,,,,,,,,,,,,,,,511.0113,511.21,511.2101,511.71,,,,,,,,,,,,,,0.7042,1,,,,,,,,,,,,,,m,,,,,,,,,,,,,,,104,0,511.7105,512.4267,m,1,0.7042,,[],[],[],[],[],[],[],512.4268,514.4267,514.4267,514.4268,[],[],[],[],[],[],[],,514.4269,514.4271,0.013012307,-0.377506724,0,0,0,,0,103,103,148,1,4,word,SALINE,print,saline_p.png,,,,,
,,,,31938,001,2025-10-17_16h48.13.869,HW_LDT_1,2024.2.4,MacIntel,59.88023952,,,,,,,,,,,,,,,,,,,,,,514.428,514.6267,514.6267,515.1266,,,,,,,,,,,,,,0.6559,1,,,,,,,,,,,,,,m,,,,,,,,,,,,,,,105,1,515.1272,515.7934,m,1,0.6559,,[],[],[],[],[],[],[],515.7935,517.7934,517.7934,519.1093,[],[],[],[],[],[],[],m,519.1095,519.1095,0.013012307,-0.377506724,0,0,0,,0,104,104,96,1,4,word,CONSIDER,cursive,consider_c.png,1.3052,,,,
,,,,31938,001,2025-10-17_16h48.13.869,HW_LDT_1,2024.2.4,MacIntel,59.88023952,,,,,,,,,,,,,,,,,,,,,,519.1104,519.3089,519.3089,519.81,,,,,,,,,,,,,,0.8448,1,,,,,,,,,,,,,,m,,,,,,,,,,,,,,,106,0,519.8104,520.6589,m,1,0.8448,,[],[],[],[],[],[],[],520.659,522.66,522.66,522.6602,[],[],[],[],[],[],[],,522.6602,522.6603,0.013012307,-0.377506724,0,0,0,,0,105,105,126,1,4,word,OPTIMAL,print,optimal_p.png,,,,,
,,,,31938,001,2025-10-17_16h48.13.869,HW_LDT_1,2024.2.4,MacIntel,59.88023952,,,,,,,,,,,,,,,,,,,,,,522.6613,522.8589,522.859,523.359,,,,,,,,,,,,,,0.6476,1,,,,,,,,,,,,,,m,,,,,,,,,,,,,,,107,0,523.3594,524.0089,m,1,0.6476,,[],[],[],[],[],[],[],524.0091,526.0089,526.009,526.0092,[],[],[],[],[],[],[],,526.0092,526.0094,0.013012307,-0.377506724,0,0,0,,0,106,106,120,1,4,word,MILITARY,print,military_p.png,,,,,
,,,,31938,001,2025-10-17_16h48.13.869,HW_LDT_1,2024.2.4,MacIntel,59.88023952,,,,,,,,,,,,,,,,,,,,,,526.0103,526.209,526.2091,526.7099,,,,,,,,,,,,,,0.7216,1,,,,,,,,,,,,,,m,,,,,,,,,,,,,,,108,1,526.7104,527.4435,m,1,0.7216,,[],[],[],[],[],[],[],527.4435,529.4432,529.4433,529.9266,[],[],[],[],[],[],[],z,529.9267,529.9268,0.013012307,-0.377506724,0,0,0,,0,107,107,153,1,4,word,STOLEN,cursive,stolen_c.png,0.4724,,,,
,,,,31938,001,2025-10-17_16h48.13.869,HW_LDT_1,2024.2.4,MacIntel,59.88023952,,,,,,,,,,,,,,,,,,,,,,529.9279,530.1265,530.1266,530.6267,,,,,,,,,,,,,,1.8719,1,,,,,,,,,,,,,,z,,,,,,,,,,,,,,,109,0,530.627,532.51,z,1,1.8719,,[],[],[],[],[],[],[],532.5101,534.509,534.509,534.5092,[],[],[],[],[],[],[],,534.5092,534.5092,0.013012307,-0.377506724,0,0,0,,0,108,108,24,1,4,RL,marmipal,cursive,marmipal_c.png,,,,,
,,,,31938,001,2025-10-17_16h48.13.869,HW_LDT_1,2024.2.4,MacIntel,59.88023952,,,,,,,,,,,,,,,,,,,,,,534.5103,534.7098,534.7099,535.2099,,,,,,,,,,,,,,0.664,0,,,,,,,,,,,,,,z,,,,,,,,,,,,,,,110,0,535.2104,535.8765,m,0,0.664,,[],[],[],[],[],[],[],535.8767,537.8756,537.8757,537.8758,[],[],[],[],[],[],[],,537.8758,537.876,0.013012307,-0.377506724,0,0,0,,0,109,109,51,1,4,TL,adsivory,cursive,adsivory_c.png,,,,,
,,,,31938,001,2025-10-17_16h48.13.869,HW_LDT_1,2024.2.4,MacIntel,59.88023952,,,,,,,,,,,,,,,,,,,,,,537.8769,538.0766,538.0766,538.5757,,,,,,,,,,,,,,0.7962,1,,,,,,,,,,,,,,z,,,,,,,,,,,,,,,111,0,538.5761,539.3765,z,1,0.7962,,[],[],[],[],[],[],[],539.3766,541.3765,541.3765,541.3767,[],[],[],[],[],[],[],,541.3767,541.3769,0.013012307,-0.377506724,0,0,0,,0,110,110,47,1,4,RL,stopave,print,stopave_p.png,,,,,
,,,,31938,001,2025-10-17_16h48.13.869,HW_LDT_1,2024.2.4,MacIntel,59.88023952,,,,,,,,,,,,,,,,,,,,,,541.3778,541.5765,541.5765,542.076,,,,,,,,,,,,,,0.5976,1,,,,,,,,,,,,,,z,,,,,,,,,,,,,,,112,0,542.0765,542.6755,z,1,0.5976,,[],[],[],[],[],[],[],542.6755,544.6764,544.6765,544.6766,[],[],[],[],[],[],[],,544.6767,544.6767,0.013012307,-0.377506724,0,0,0,,0,111,111,48,1,4,RL,vabifity,print,vabifity_p.png,,,,,
,,,,31938,001,2025-10-17_16h48.13.869,HW_LDT_1,2024.2.4,MacIntel,59.88023952,,,,,,,,,,,,,,,,,,,,,,544.6778,544.8765,544.8765,545.3759,,,,,,,,,,,,,,0.6233,1,,,,,,,,,,,,,,m,,,,,,,,,,,,,,,113,0,545.3763,546.009,m,1,0.6233,,[],[],[],[],[],[],[],546.0091,548.0089,548.009,548.0091,[],[],[],[],[],[],[],,548.0092,548.0093,0.013012307,-0.377506724,0,0,0,,0,112,112,141,1,4,word,RELIGION,print,religion_p.png,,,,,
,,,,31938,001,2025-10-17_16h48.13.869,HW_LDT_1,2024.2.4,MacIntel,59.88023952,,,,,,,,,,,,,,,,,,,,,,548.0107,548.2098,548.2099,548.7098,,,,,,,,,,,,,,2.7636,1,,,,,,,,,,,,,,z,,,,,,,,,,,,,,,114,0,548.7103,551.4765,z,1,2.7636,,[],[],[],[],[],[],[],551.4766,553.4764,553.4765,553.4766,[],[],[],[],[],[],[],,553.4766,553.4767,0.013012307,-0.377506724,0,0,0,,0,113,113,56,1,4,TL,donimant,cursive,donimant_c.png,,,,,
,,,,31938,001,2025-10-17_16h48.13.869,HW_LDT_1,2024.2.4,MacIntel,59.88023952,,,,,,,,,,,,,,,,,,,,,,553.4776,553.6766,553.6767,554.1765,,,,,,,,,,,,,,6.9948,1,,,,,,,,,,,,,,z,,,,,,,,,,,,,,,115,1,554.177,561.1764,z,1,6.9948,,[],[],[],[],[],[],[],561.1764,563.1764,563.1765,564.0096,[],[],[],[],[],[],[],z,564.0097,564.0098,0.013012307,-0.377506724,0,0,0,,0,114,114,37,1,4,RL,renutal,cursive,renutal_c.png,0.8319,,,,
,,,,31938,001,2025-10-17_16h48.13.869,HW_LDT_1,2024.2.4,MacIntel,59.88023952,,,,,,,,,,,,,,,,,,,,,,564.0107,564.2089,564.2089,564.7088,,,,,,,,,,,,,,1.3808,0,,,,,,,,,,,,,,m,,,,,,,,,,,,,,,116,0,564.7093,566.0923,z,0,1.3808,,[],[],[],[],[],[],[],566.0924,568.0931,568.0931,568.0933,[],[],[],[],[],[],[],,568.0933,568.0934,0.013012307,-0.377506724,0,0,0,,0,115,115,113,1,4,word,LITERAL,cursive,literal_c.png,,,,,
,,,,31938,001,2025-10-17_16h48.13.869,HW_LDT_1,2024.2.4,MacIntel,59.88023952,,,,,,,,,,,,,,,,,,,,,,568.0944,568.293,568.293,568.7931,,,,,,,,,,,,,,1.28,1,,,,,,,,,,,,,,m,,,,,,,,,,,,,,,117,0,568.7936,570.0764,m,1,1.28,,[],[],[],[],[],[],[],570.0765,572.0755,572.0755,572.0757,[],[],[],[],[],[],[],,572.0758,572.0759,0.013012307,-0.377506724,0,0,0,,0,116,116,128,1,4,word,PACIFIC,cursive,pacific_c.png,,,,,
,,,,31938,001,2025-10-17_16h48.13.869,HW_LDT_1,2024.2.4,MacIntel,59.88023952,,,,,,,,,,,,,,,,,,,,,,572.0769,572.2763,572.2764,572.7764,,,,,,,,,,,,,,1.0887,1,,,,,,,,,,,,,,m,,,,,,,,,,,,,,,118,0,572.7769,573.8764,m,1,1.0887,,[],[],[],[],[],[],[],573.8766,575.8754,575.8755,575.8757,[],[],[],[],[],[],[],,575.8757,575.8758,0.013012307,-0.377506724,0,0,0,,0,117,117,144,1,4,word,RESIDENT,cursive,resident_c.png,,,,,
,,,,31938,001,2025-10-17_16h48.13.869,HW_LDT_1,2024.2.4,MacIntel,59.88023952,,,,,,,,,,,,,,,,,,,,,,575.8768,576.0763,576.0764,576.5764,,,,,,,,,,,,,,0.7382,1,,,,,,,,,,,,,,m,,,,,,,,,,,,,,,119,0,576.5769,577.3264,m,1,0.7382,,[],[],[],[],[],[],[],577.3265,579.3264,579.3265,579.3266,[],[],[],[],[],[],[],,579.3267,579.3268,0.013012307,-0.377506724,0,0,0,,0,118,118,125,1,4,word,OPERATOR,print,operator_p.png,,,,,
,,,,31938,001,2025-10-17_16h48.13.869,HW_LDT_1,2024.2.4,MacIntel,59.88023952,,,,,,,,,,,,,,,,,,,,,,579.3279,579.5255,579.5255,580.0263,,,,,,,,,,,,,,0.7375,1,,,,,,,,,,,,,,m,,,,,,,,,,,,,,,120,0,580.0269,580.7764,m,1,0.7375,,[],[],[],[],[],[],[],580.7766,582.7764,582.7765,582.7767,[],[],[],[],[],[],[],,582.7767,582.7768,0.013012307,-0.377506724,0,0,0,,0,119,119,145,1,4,word,RESUME,print,resume_p.png,,,,,
,,,,31938,001,2025-10-17_16h48.13.869,HW_LDT_1,2024.2.4,MacIntel,59.88023952,,,,,,,,,,,,,,,,,,,,,,582.7777,582.9763,582.9764,583.4764,,,,,,,,,,,,,,0.7372,1,,,,,,,,,,,,,,z,,,,,,,,,,,,,,,121,0,583.477,584.2265,z,1,0.7372,,[],[],[],[],[],[],[],584.2266,586.2263,586.2263,586.2265,[],[],[],[],[],[],[],,586.2265,586.2266,0.013012307,-0.377506724,0,0,0,,0,120,120,9,1,4,RL,cafigal,print,cafigal_p.png,,,,,
,,,,31938,001,2025-10-17_16h48.13.869,HW_LDT_1,2024.2.4,MacIntel,59.88023952,,,,,,,,,,,,,,,,,,,,,,586.2277,586.4263,586.4264,586.9263,,,,,,,,,,,,,,0.7654,1,,,,,,,,,,,,,,m,,,,,,,,,,,,,,,122,0,586.9268,587.693,m,1,0.7654,,[],[],[],[],[],[],[],587.6931,589.693,589.693,589.6932,[],[],[],[],[],[],[],,589.6932,589.6933,0.013012307,-0.377506724,0,0,0,,0,121,121,150,1,4,word,SENTIMENT,print,sentiment_p.png,,,,,
,,,,31938,001,2025-10-17_16h48.13.869,HW_LDT_1,2024.2.4,MacIntel,59.88023952,,,,,,,,,,,,,,,,,,,,,,589.6944,589.8921,589.8922,590.393,,,,,,,,,,,,,,0.8208,1,,,,,,,,,,,,,,z,,,,,,,,,,,,,,,123,0,590.3935,591.2265,z,1,0.8208,,[],[],[],[],[],[],[],591.2266,593.2263,593.2263,593.2265,[],[],[],[],[],[],[],,593.2265,593.2266,0.013012307,-0.377506724,0,0,0,,0,122,122,13,1,4,RL,crisival,cursive,crisival_c.png,,,,,
,,,,31938,001,2025-10-17_16h48.13.869,HW_LDT_1,2024.2.4,MacIntel,59.88023952,,,,,,,,,,,,,,,,,,,,,,593.2276,593.4264,593.4264,593.9262,,,,,,,,,,,,,,0.8553,1,,,,,,,,,,,,,,m,,,,,,,,,,,,,,,124,0,593.9268,594.7931,m,1,0.8553,,[],[],[],[],[],[],[],594.7932,596.7919,596.792,596.7921,[],[],[],[],[],[],[],,596.7922,596.7923,0.013012307,-0.377506724,0,0,0,,0,123,123,159,1,4,word,VETERAN,cursive,veteran_c.png,,,,,
,,,,31938,001,2025-10-17_16h48.13.869,HW_LDT_1,2024.2.4,MacIntel,59.88023952,,,,,,,,,,,,,,,,,,,,,,596.7934,596.992,596.992,597.4919,,,,,,,,,,,,,,0.6804,1,,,,,,,,,,,,,,m,,,,,,,,,,,,,,,125,0,597.4925,598.1763,m,1,0.6804,,[],[],[],[],[],[],[],598.1763,600.1754,600.1754,600.1756,[],[],[],[],[],[],[],,600.1757,600.1757,0.013012307,-0.377506724,0,0,0,,0,124,124,136,1,4,word,RADICAL,print,radical_p.png,,,,,
,,,,31938,001,2025-10-17_16h48.13.869,HW_LDT_1,2024.2.4,MacIntel,59.88023952,,,,,,,,,,,,,,,,,,,,,,600.1767,600.3763,600.3764,600.8763,,,,,,,,,,,,,,0.6881,1,,,,,,,,,,,,,,z,,,,,,,,,,,,,,,126,0,600.8768,601.5765,z,1,0.6881,,[],[],[],[],[],[],[],601.5766,603.5762,603.5763,603.5765,[],[],[],[],[],[],[],,603.5765,603.5766,0.013012307,-0.377506724,0,0,0,,0,125,125,73,1,4,TL,regilion,print,regilion_p.png,,,,,
,,,,31938,001,2025-10-17_16h48.13.869,HW_LDT_1,2024.2.4,MacIntel,59.88023952,,,,,,,,,,,,,,,,,,,,,,603.5776,603.7762,603.7762,604.2764,,,,,,,,,,,,,,0.8962,1,,,,,,,,,,,,,,z,,,,,,,,,,,,,,,127,1,604.2768,605.1762,z,1,0.8962,,[],[],[],[],[],[],[],605.1762,607.1762,607.1762,608.0595,[],[],[],[],[],[],[],m,608.0596,608.0597,0.013012307,-0.377506724,0,0,0,,0,126,126,79,1,4,TL,tritube,print,tritube_p.png,0.8827,,,,
,,,,31938,001,2025-10-17_16h48.13.869,HW_LDT_1,2024.2.4,MacIntel,59.88023952,,,,,,,,,,,,,,,,,,,,,,608.0608,608.2596,608.2597,608.7596,,,,,,,,,,,,,,1.1448,0,,,,,,,,,,,,,,m,,,,,,,,,,,,,,,128,0,608.7602,609.9095,z,0,1.1448,,[],[],[],[],[],[],[],609.9096,611.9096,611.9096,611.9098,[],[],[],[],[],[],[],,611.9098,611.9098,0.013012307,-0.377506724,0,0,0,,0,127,127,101,1,4,word,DELICATE,cursive,delicate_c.png,,,,,
,,,,31938,001,2025-10-17_16h48.13.869,HW_LDT_1,2024.2.4,MacIntel,59.88023952,,,,,,,,,,,,,,,,,,,,,,611.9109,612.1095,612.1096,612.6096,,,,,,,,,,,,,,1.0303,1,,,,,,,,,,,,,,z,,,,,,,,,,,,,,,129,1,612.61,613.642,z,1,1.0303,,[],[],[],[],[],[],[],613.642,615.6429,615.643,616.8761,[],[],[],[],[],[],[],z,616.8762,616.8763,0.013012307,-0.377506724,0,0,0,,0,128,128,57,1,4,TL,etidor,print,etidor_p.png,1.2314,,,,
,,,,31938,001,2025-10-17_16h48.13.869,HW_LDT_1,2024.2.4,MacIntel,59.88023952,,,,,,,,,,,,,,,,,,,,,,616.8772,617.0762,617.0763,617.5763,,,,,,,,,,,,,,0.7381,1,,,,,,,,,,,,,,z,,,,,,,,,,,,,,,130,0,617.5768,618.3262,z,1,0.7381,,[],[],[],[],[],[],[],618.3264,620.3261,620.3262,620.3263,[],[],[],[],[],[],[],,620.3264,620.3265,0.013012307,-0.377506724,0,0,0,,0,129,129,65,1,4,TL,orepator,print,orepator_p.png,,,,,
,,,,31938,001,2025-10-17_16h48.13.869,HW_LDT_1,2024.2.4,MacIntel,59.88023952,,,,,,,,,,,,,,,,,,,,,,620.3274,620.5261,620.5263,621.0261,,,,,,,,,,,,,,0.8812,1,,,,,,,,,,,,,,m,,,,,,,,,,,,,,,131,0,621.0267,621.9094,m,1,0.8812,,[],[],[],[],[],[],[],621.9096,623.9095,623.9096,623.9097,[],[],[],[],[],[],[],,623.9097,623.9098,0.013012307,-0.377506724,0,0,0,,0,130,130,124,1,4,word,NUMERICAL,cursive,numerical_c.png,,,,,
,,,,31938,001,2025-10-17_16h48.13.869,HW_LDT_1,2024.2.4,MacIntel,59.88023952,,,,,,,,,,,,,,,,,,,,,,623.9108,624.1096,624.1096,624.6095,,,,,,,,,,,,,,1.1401,1,,,,,,,,,,,,,,z,,,,,,,,,,,,,,,132,0,624.61,625.7596,z,1,1.1401,,[],[],[],[],[],[],[],625.7597,627.7594,627.7595,627.7596,[],[],[],[],[],[],[],,627.7597,627.7598,0.013012307,-0.377506724,0,0,0,,0,131,131,28,1,4,RL,mifikary,print,mifikary_p.png,,,,,
,,,,31938,001,2025-10-17_16h48.13.869,HW_LDT_1,2024.2.4,MacIntel,59.88023952,,,,,,,,,,,,,,,,,,,,,,627.7608,627.9594,627.9595,628.4595,,,,,,,,,,,,,,0.7154,1,,,,,,,,,,,,,,z,,,,,,,,,,,,,,,133,0,628.4599,629.1761,z,1,0.7154,,[],[],[],[],[],[],[],629.1762,631.1761,631.1762,631.1763,[],[],[],[],[],[],[],,631.1764,631.1765,0.013012307,-0.377506724,0,0,0,,0,132,132,64,1,4,TL,moredate,print,moredate_p.png,,,,,
,,,,31938,001,2025-10-17_16h48.13.869,HW_LDT_1,2024.2.4,MacIntel,59.88023952,,,,,,,,,,,,,,,,,,,,,,631.1774,631.3761,631.3761,631.8762,,,,,,,,,,,,,,0.5473,1,,,,,,,,,,,,,,z,,,,,,,,,,,,,,,134,0,631.8766,632.4261,z,1,0.5473,,[],[],[],[],[],[],[],632.4262,634.4261,634.4261,634.4263,[],[],[],[],[],[],[],,634.4263,634.4265,0.013012307,-0.377506724,0,0,0,,0,133,133,7,1,4,RL,casena,print,casena_p.png,,,,,
,,,,31938,001,2025-10-17_16h48.13.869,HW_LDT_1,2024.2.4,MacIntel,59.88023952,,,,,,,,,,,,,,,,,,,,,,634.4274,634.6261,634.6262,635.126,,,,,,,,,,,,,,0.5822,0,,,,,,,,,,,,,,z,,,,,,,,,,,,,,,135,0,635.1265,635.7094,m,0,0.5822,,[],[],[],[],[],[],[],635.7095,637.7094,637.7095,637.7096,[],[],[],[],[],[],[],,637.7097,637.7097,0.013012307,-0.377506724,0,0,0,,0,134,134,68,1,4,TL,prosopal,print,prosopal_p.png,,,,,
,,,,31938,001,2025-10-17_16h48.13.869,HW_LDT_1,2024.2.4,MacIntel,59.88023952,,,,,,,,,,,,,,,,,,,,,,637.7108,637.9095,637.9095,638.4094,,,,,,,,,,,,,,1.0306,0,,,,,,,,,,,,,,m,,,,,,,,,,,,,,,136,0,638.41,639.4427,z,0,1.0306,,[],[],[],[],[],[],[],639.4427,641.4422,641.4422,641.4425,[],[],[],[],[],[],[],,641.4425,641.4426,0.013012307,-0.377506724,0,0,0,,0,135,135,108,1,4,word,FORTUNE,cursive,fortune_c.png,,,,,
,,,,31938,001,2025-10-17_16h48.13.869,HW_LDT_1,2024.2.4,MacIntel,59.88023952,,,,,,,,,,,,,,,,,,,,,,641.4436,641.6427,641.6428,642.1427,,,,,,,,,,,,,,0.6217,1,,,,,,,,,,,,,,z,,,,,,,,,,,,,,,137,0,642.1433,642.7762,z,1,0.6217,,[],[],[],[],[],[],[],642.7763,644.776,644.7761,644.7763,[],[],[],[],[],[],[],,644.7763,644.7764,0.013012307,-0.377506724,0,0,0,,0,136,136,20,1,4,RL,gralekul,print,gralekul_p.png,,,,,
,,,,31938,001,2025-10-17_16h48.13.869,HW_LDT_1,2024.2.4,MacIntel,59.88023952,,,,,,,,,,,,,,,,,,,,,,644.7774,644.9761,644.9761,645.476,,,,,,,,,,,,,,1.4563,1,,,,,,,,,,,,,,z,,,,,,,,,,,,,,,138,0,645.4765,646.9428,z,1,1.4563,,[],[],[],[],[],[],[],646.9429,648.9428,648.9428,648.9429,[],[],[],[],[],[],[],,648.943,648.9431,0.013012307,-0.377506724,0,0,0,,0,137,137,14,1,4,RL,delahe,cursive,delahe_c.png,,,,,
,,,,31938,001,2025-10-17_16h48.13.869,HW_LDT_1,2024.2.4,MacIntel,59.88023952,,,,,,,,,,,,,,,,,,,,,,648.9441,649.1427,649.1428,649.6427,,,,,,,,,,,,,,0.9223,1,,,,,,,,,,,,,,m,,,,,,,,,,,,,,,139,1,649.6432,650.5761,m,1,0.9223,,[],[],[],[],[],[],[],650.5762,652.5761,652.5761,653.3427,[],[],[],[],[],[],[],m,653.3428,653.3429,0.013012307,-0.377506724,0,0,0,,0,138,138,91,1,4,word,CARDINAL,cursive,cardinal_c.png,0.7652,,,,
,,,,31938,001,2025-10-17_16h48.13.869,HW_LDT_1,2024.2.4,MacIntel,59.88023952,,,,,,,,,,,,,,,,,,,,,,653.3438,653.5427,653.5428,654.0427,,,,,,,,,,,,,,1.0051,1,,,,,,,,,,,,,,z,,,,,,,,,,,,,,,140,0,654.0432,655.0595,z,1,1.0051,,[],[],[],[],[],[],[],655.0595,657.0593,657.0594,657.0595,[],[],[],[],[],[],[],,657.0596,657.0596,0.013012307,-0.377506724,0,0,0,,0,139,139,33,1,4,RL,pamest,cursive,pamest_c.png,,,,,
,,,,31938,001,2025-10-17_16h48.13.869,HW_LDT_1,2024.2.4,MacIntel,59.88023952,,,,,,,,,,,,,,,,,,,,,,657.0607,657.2594,657.2595,657.7593,,,,,,,,,,,,,,0.6637,1,,,,,,,,,,,,,,m,,,,,,,,,,,,,,,141,0,657.7599,658.426,m,1,0.6637,,[],[],[],[],[],[],[],658.426,660.426,660.4261,660.4262,[],[],[],[],[],[],[],,660.4262,660.4264,0.013012307,-0.377506724,0,0,0,,0,140,140,115,1,4,word,LOGICAL,print,logical_p.png,,,,,
,,,,31938,001,2025-10-17_16h48.13.869,HW_LDT_1,2024.2.4,MacIntel,59.88023952,,,,,,,,,,,,,,,,,,,,,,660.4274,660.626,660.6261,661.126,,,,,,,,,,,,,,0.7969,1,,,,,,,,,,,,,,m,,,,,,,,,,,,,,,142,0,661.1265,661.9251,m,1,0.7969,,[],[],[],[],[],[],[],661.9251,663.926,663.9262,663.9263,[],[],[],[],[],[],[],,663.9264,663.9265,0.013012307,-0.377506724,0,0,0,,0,141,141,121,1,4,word,MISTAKE,print,mistake_p.png,,,,,
,,,,31938,001,2025-10-17_16h48.13.869,HW_LDT_1,2024.2.4,MacIntel,59.88023952,,,,,,,,,,,,,,,,,,,,,,663.9276,664.126,664.1261,664.626,,,,,,,,,,,,,,1.7144,1,,,,,,,,,,,,,,m,,,,,,,,,,,,,,,143,0,664.6265,666.3426,m,1,1.7144,,[],[],[],[],[],[],[],666.3427,668.3426,668.3427,668.3428,[],[],[],[],[],[],[],,668.3429,668.343,0.013012307,-0.377506724,0,0,0,,0,142,142,102,1,4,word,DENSITY,cursive,density_c.png,,,,,
,,,,31938,001,2025-10-17_16h48.13.869,HW_LDT_1,2024.2.4,MacIntel,59.88023952,,,,,,,,,,,,,,,,,,,,,,668.344,668.5426,668.5427,669.0427,,,,,,,,,,,,,,1.4052,1,,,,,,,,,,,,,,m,,,,,,,,,,,,,,,144,0,669.0432,670.4594,m,1,1.4052,,[],[],[],[],[],[],[],670.4595,672.4593,672.4593,672.4595,[],[],[],[],[],[],[],,672.4595,672.4596,0.013012307,-0.377506724,0,0,0,,0,143,143,100,1,4,word,DECADE,cursive,decade_c.png,,,,,
,,,,31938,001,2025-10-17_16h48.13.869,HW_LDT_1,2024.2.4,MacIntel,59.88023952,,,,,,,,,,,,,,,,,,,,,,672.4604,672.6594,672.6594,673.1593,,,,,,,,,,,,,,0.7133,1,,,,,,,,,,,,,,z,,,,,,,,,,,,,,,145,0,673.1598,673.8759,z,1,0.7133,,[],[],[],[],[],[],[],673.876,675.8758,675.8759,675.876,[],[],[],[],[],[],[],,675.8761,675.8762,0.013012307,-0.377506724,0,0,0,,0,144,144,42,1,4,RL,revune,print,revune_p.png,,,,,
,,,,31938,001,2025-10-17_16h48.13.869,HW_LDT_1,2024.2.4,MacIntel,59.88023952,,,,,,,,,,,,,,,,,,,,,,675.8772,676.0759,676.0759,676.576,,,,,,,,,,,,,,0.8811,1,,,,,,,,,,,,,,z,,,,,,,,,,,,,,,146,1,676.5764,677.4592,z,1,0.8811,,[],[],[],[],[],[],[],677.4592,679.4594,679.4594,680.4927,[],[],[],[],[],[],[],z,680.4928,680.4929,0.013012307,-0.377506724,0,0,0,,0,145,145,49,1,4,RL,vesofity,cursive,vesofity_c.png,1.0223,,,,
,,,,31938,001,2025-10-17_16h48.13.869,HW_LDT_1,2024.2.4,MacIntel,59.88023952,,,,,,,,,,,,,,,,,,,,,,680.4939,680.6926,680.6926,681.1926,,,,,,,,,,,,,,1.9382,1,,,,,,,,,,,,,,z,,,,,,,,,,,,,,,147,0,681.1931,683.1428,z,1,1.9382,,[],[],[],[],[],[],[],683.1429,685.1426,685.1427,685.1429,[],[],[],[],[],[],[],,685.1429,685.143,0.013012307,-0.377506724,0,0,0,,0,146,146,77,1,4,TL,spemicen,cursive,spemicen_c.png,,,,,
,,,,31938,001,2025-10-17_16h48.13.869,HW_LDT_1,2024.2.4,MacIntel,59.88023952,,,,,,,,,,,,,,,,,,,,,,685.144,685.3425,685.3426,685.8426,,,,,,,,,,,,,,0.705,1,,,,,,,,,,,,,,z,,,,,,,,,,,,,,,148,0,685.8431,686.5594,z,1,0.705,,[],[],[],[],[],[],[],686.5594,688.5593,688.5594,688.5596,[],[],[],[],[],[],[],,688.5596,688.5597,0.013012307,-0.377506724,0,0,0,,0,147,147,66,1,4,TL,opmital,print,opmital_p.png,,,,,
,,,,31938,001,2025-10-17_16h48.13.869,HW_LDT_1,2024.2.4,MacIntel,59.88023952,,,,,,,,,,,,,,,,,,,,,,688.5606,688.7592,688.7593,689.2592,,,,,,,,,,,,,,1.7883,1,,,,,,,,,,,,,,m,,,,,,,,,,,,,,,149,0,689.2597,691.0593,m,1,1.7883,,[],[],[],[],[],[],[],691.0593,693.0592,693.0593,693.0594,[],[],[],[],[],[],[],,693.0595,693.0596,0.013012307,-0.377506724,0,0,0,,0,148,148,109,1,4,word,GRATEFUL,print,grateful_p.png,,,,,
,,,,31938,001,2025-10-17_16h48.13.869,HW_LDT_1,2024.2.4,MacIntel,59.88023952,,,,,,,,,,,,,,,,,,,,,,693.0606,693.2592,693.2593,693.7592,,,,,,,,,,,,,,1.0885,0,,,,,,,,,,,,,,m,,,,,,,,,,,,,,,150,0,693.7598,694.8593,z,0,1.0885,,[],[],[],[],[],[],[],694.8594,696.8592,696.8593,696.8594,[],[],[],[],[],[],[],,696.8595,696.8596,0.013012307,-0.377506724,0,0,0,,0,149,149,114,1,4,word,LOCATE,cursive,locate_c.png,,,,,
,,,,31938,001,2025-10-17_16h48.13.869,HW_LDT_1,2024.2.4,MacIntel,59.88023952,,,,,,,,,,,,,,,,,,,,,,696.8606,697.0591,697.0592,697.5592,,,,,,,,,,,,,,0.5971,1,,,,,,,,,,,,,,z,,,,,,,,,,,,,,,151,0,697.5596,698.1591,z,1,0.5971,,[],[],[],[],[],[],[],698.1592,700.1591,700.1592,700.1594,[],[],[],[],[],[],[],,700.1594,700.1596,0.013012307,-0.377506724,0,0,0,,0,150,150,25,1,4,RL,macise,print,macise_p.png,,,,,
,,,,31938,001,2025-10-17_16h48.13.869,HW_LDT_1,2024.2.4,MacIntel,59.88023952,,,,,,,,,,,,,,,,,,,,,,700.1605,700.3591,700.3592,700.8591,,,,,,,,,,,,,,0.6612,1,,,,,,,,,,,,,,z,,,,,,,,,,,,,,,152,0,700.8597,701.5259,z,1,0.6612,,[],[],[],[],[],[],[],701.5259,703.5259,703.5259,703.526,[],[],[],[],[],[],[],,703.5262,703.5262,0.013012307,-0.377506724,0,0,0,,0,151,151,6,1,4,RL,caleberia,cursive,caleberia_c.png,,,,,
,,,,31938,001,2025-10-17_16h48.13.869,HW_LDT_1,2024.2.4,MacIntel,59.88023952,,,,,,,,,,,,,,,,,,,,,,703.5273,703.7259,703.7259,704.2258,,,,,,,,,,,,,,2.5048,1,,,,,,,,,,,,,,z,,,,,,,,,,,,,,,153,0,704.2263,706.7425,z,1,2.5048,,[],[],[],[],[],[],[],706.7426,708.7424,708.7425,708.7427,[],[],[],[],[],[],[],,708.7428,708.7428,0.013012307,-0.377506724,0,0,0,,0,152,152,32,1,4,RL,patisic,cursive,patisic_c.png,,,,,
,,,,31938,001,2025-10-17_16h48.13.869,HW_LDT_1,2024.2.4,MacIntel,59.88023952,,,,,,,,,,,,,,,,,,,,,,708.7438,708.9424,708.9425,709.4425,,,,,,,,,,,,,,0.7972,1,,,,,,,,,,,,,,m,,,,,,,,,,,,,,,154,0,709.443,710.2426,m,1,0.7972,,[],[],[],[],[],[],[],710.2427,712.2425,712.2426,712.2427,[],[],[],[],[],[],[],,712.2427,712.2428,0.013012307,-0.377506724,0,0,0,,0,153,153,97,1,4,word,COVERAGE,cursive,coverage_c.png,,,,,
,,,,31938,001,2025-10-17_16h48.13.869,HW_LDT_1,2024.2.4,MacIntel,59.88023952,,,,,,,,,,,,,,,,,,,,,,712.2438,712.4425,712.4425,712.9425,,,,,,,,,,,,,,1.6653,0,,,,,,,,,,,,,,z,,,,,,,,,,,,,,,155,0,712.943,714.6091,m,0,1.6653,,[],[],[],[],[],[],[],714.6091,716.6092,716.6092,716.6094,[],[],[],[],[],[],[],,716.6094,716.6095,0.013012307,-0.377506724,0,0,0,,0,154,154,23,1,4,RL,linefal,cursive,linefal_c.png,,,,,
,,,,31938,001,2025-10-17_16h48.13.869,HW_LDT_1,2024.2.4,MacIntel,59.88023952,,,,,,,,,,,,,,,,,,,,,,716.6106,716.8091,716.8092,717.3091,,,,,,,,,,,,,,0.9883,1,,,,,,,,,,,,,,m,,,,,,,,,,,,,,,156,0,717.3096,718.3092,m,1,0.9883,,[],[],[],[],[],[],[],718.3093,720.3091,720.3092,720.3093,[],[],[],[],[],[],[],,720.3093,720.3094,0.013012307,-0.377506724,0,0,0,,0,155,155,83,1,4,word,ANIMAL,cursive,animal_c.png,,,,,
,,,,31938,001,2025-10-17_16h48.13.869,HW_LDT_1,2024.2.4,MacIntel,59.88023952,,,,,,,,,,,,,,,,,,,,,,720.3104,720.5091,720.5091,721.0091,,,,,,,,,,,,,,0.7979,1,,,,,,,,,,,,,,m,,,,,,,,,,,,,,,157,0,721.0097,721.8091,m,1,0.7979,,[],[],[],[],[],[],[],721.8091,723.8091,723.8091,723.8093,[],[],[],[],[],[],[],,723.8093,723.8094,0.013012307,-0.377506724,0,0,0,,0,156,156,143,1,4,word,REMOVAL,print,removal_p.png,,,,,
,,,,31938,001,2025-10-17_16h48.13.869,HW_LDT_1,2024.2.4,MacIntel,59.88023952,,,,,,,,,,,,,,,,,,,,,,723.8104,724.009,724.0091,724.5091,,,,,,,,,,,,,,0.6979,1,,,,,,,,,,,,,,z,,,,,,,,,,,,,,,158,0,724.5095,725.209,z,1,0.6979,,[],[],[],[],[],[],[],725.2091,727.2091,727.2091,727.2093,[],[],[],[],[],[],[],,727.2093,727.2094,0.013012307,-0.377506724,0,0,0,,0,157,157,3,1,4,RL,bewoted,print,bewoted_p.png,,,,,
,,,,31938,001,2025-10-17_16h48.13.869,HW_LDT_1,2024.2.4,MacIntel,59.88023952,,,,,,,,,,,,,,,,,,,,,,727.2102,727.4091,727.4091,727.9091,,,,,,,,,,,,,,0.5882,1,,,,,,,,,,,,,,m,,,,,,,,,,,,,,,159,0,727.9096,728.5091,m,1,0.5882,,[],[],[],[],[],[],[],728.5093,730.509,730.509,730.5093,[],[],[],[],[],[],[],,730.5093,730.5094,0.013012307,-0.377506724,0,0,0,,0,158,158,93,1,4,word,CEREMONY,print,ceremony_p.png,,,,,
,,,,31938,001,2025-10-17_16h48.13.869,HW_LDT_1,2024.2.4,MacIntel,59.88023952,,,,,,,,,,,,,,,,,,,,,,730.5104,730.7091,730.7091,731.2091,,,,,,,,,,,,,,2.7473,1,,,,,,,,,,,,,,z,,,,,,,,,,,,,,,160,0,731.2096,733.9591,z,1,2.7473,,[],[],[],[],[],[],[],733.9591,735.959,735.9591,735.9592,[],[],[],[],[],[],[],,735.9593,735.9593,0.013012307,-0.377506724,0,0,0,,0,159,159,55,1,4,TL,corevage,cursive,corevage_c.png,,,,,
,,,,31938,001,2025-10-17_16h48.13.869,HW_LDT_1,2024.2.4,MacIntel,59.88023952,,,,,,,,,,,,,,,,,,,,,,,,,,,,,,,,,,,,,,,,,,,,,,,,,,,,,,,,,,,,,,,,,,,,,,,,,,,,,,,,,,,,,,,,,,,,,,,,,,,,,,,,,,,,,,,,,,,,,735.9598,740.9594
