counterbalance_lists.group,counterbalance_lists.remaining,get_list.started,get_list.stopped,participant,session,date,expName,psychopyVersion,OS,frameRate,Instructions.started,Instructions.stopped,key_resp.keys,key_resp.rt,key_resp.duration,instr_done_touch.x,instr_done_touch.y,instr_done_touch.leftButton,instr_done_touch.midButton,instr_done_touch.rightButton,start_instr.thisRepN,start_instr.thisTrialN,start_instr.thisN,start_instr.thisIndex,start_instr.ran,pageN,phase,instruct_text,has_image,instruct_image,showProgress.started,showProgress.stopped,fix.started,fix.stopped,prac.started,prac.stopped,response.keys,response.corr,response.rt,response.duration,touch_resp.x,touch_resp.y,touch_resp.leftButton,touch_resp.midButton,touch_resp.rightButton,touch_resp.time,touch_resp.clicked_name,rt,corr,feedback.started,feedback.stopped,trials.thisRepN,trials.thisTrialN,trials.thisN,trials.thisIndex,trials.ran,TrialID,StimulusType,Condition,PrimeDuration,Prime,Target,corrAns,Instructions_expt.started,Instructions_expt.stopped,key_resp_3.keys,key_resp_3.rt,key_resp_3.duration,instr_done_touch_3.x,instr_done_touch_3.y,instr_done_touch_3.leftButton,instr_done_touch_3.midButton,instr_done_touch_3.rightButton,instr_experiment.thisRepN,instr_experiment.thisTrialN,instr_experiment.thisN,instr_experiment.thisIndex,instr_experiment.ran,trialID,flag,maintask.started,maintask.stopped,key_resp_2.keys,key_resp_2.corr,key_resp_2.rt,key_resp_2.duration,targ_click.x,targ_click.y,targ_click.leftButton,targ_click.midButton,targ_click.rightButton,targ_click.time,targ_click.clicked_name,ITI.started,ITI.stopped,probe.started,probe.stopped,click_probe.x,click_probe.y,click_probe.leftButton,click_probe.midButton,click_probe.rightButton,click_probe.time,click_probe.clicked_name,key_resp_probe.keys,Break.started,Break.stopped,break_done_touch.x,break_done_touch.y,break_done_touch.leftButton,break_done_touch.midButton,break_done_touch.rightButton,break_done_keyboard.keys,list4_trials.thisRepN,list4_trials.thisTrialN,list4_trials.thisN,list4_trials.thisIndex,list4_trials.ran,list_id,item_type,string,font,stim_file,key_resp_probe.rt,key_resp_probe.duration,break_done_keyboard.rt,break_done_keyboard.duration,End.started,End.stopped
list4,,0.4055,0.4056,31939,001,2025-11-08_19h16.34.633,HW_LDT_1,2024.2.4,MacIntel,60.24096386,,,,,,,,,,,,,,,,,,,,,,,,,,,,,,,,,,,,,,,,,,,,,,,,,,,,,,,,,,,,,,,,,,,,,,,,,,,,,,,,,,,,,,,,,,,,,,,,,,,,,,,,,,,,,,,,,,,,,,,
,,,,31939,001,2025-11-08_19h16.34.633,HW_LDT_1,2024.2.4,MacIntel,60.24096386,0.427,16.5748,space,16.1234,,0.61843316,-0.047556424,0,0,0,0,0,0,0,1,1,instructions,"INSTRUCTIONS
At the start of each trial, look at the plus sign  (+) in the center of the screen.  This tells you that a trial is about to begin and where to look. Second, the plus sign will disappear and a string of letters will appear. Your task is to determine if the string of letters is a word or not. If the item is a word press the M key (on keyboard)  or touch the word button (phone/tablet).  If the item is not a word,  press the  Z key (on keyboard)  or touch the nonword button (on phone/tablet). The items will be presented for a short time. 
Press the space bar or touch  continue.",0,,,,,,,,,,,,,,,,,,,,,,,,,,,,,,,,,,,,,,,,,,,,,,,,,,,,,,,,,,,,,,,,,,,,,,,,,,,,,,,,,,,,,,,,,,,,,,,,,,,,
,,,,31939,001,2025-11-08_19h16.34.633,HW_LDT_1,2024.2.4,MacIntel,60.24096386,16.5776,22.9909,space,6.385,,0.61843316,-0.047556424,0,0,0,0,1,1,1,1,2,instructions,"If your device has a keyboard, press the 'Z' key for nonwords and the 'M' key for words.





Press the space bar or touch the button below to continue.",0,keyboard-example.gif,,,,,,,,,,,,,,,,,,,,,,,,,,,,,,,,,,,,,,,,,,,,,,,,,,,,,,,,,,,,,,,,,,,,,,,,,,,,,,,,,,,,,,,,,,,,,,,,,,,
,,,,31939,001,2025-11-08_19h16.34.633,HW_LDT_1,2024.2.4,MacIntel,60.24096386,22.9932,26.9909,space,3.9705,,0.61843316,-0.047556424,0,0,0,0,2,2,2,1,3,instructions,"If you are using a touchscreen only device, use the buttons on the screen. Do not use the mouse.





Press the space bar or touch the button below to continue.",0,touchscreen-example.gif,,,,,,,,,,,,,,,,,,,,,,,,,,,,,,,,,,,,,,,,,,,,,,,,,,,,,,,,,,,,,,,,,,,,,,,,,,,,,,,,,,,,,,,,,,,,,,,,,,,
,,,,31939,001,2025-11-08_19h16.34.633,HW_LDT_1,2024.2.4,MacIntel,60.24096386,26.994,35.9577,space,8.9369,,0.61843316,-0.047556424,0,0,0,0,3,3,3,1,4,instructions,"It is very important that you respond as quickly and accurately as possible, as each letter string will only be on the screen for two seconds. If you do not respond within this time, the message 'Too slow!' will be displayed and the experiment will progress to the next letter string. The first 20 trials will be practice trials and you will receive feedback on your answers. 

Press the space bar or touch the button below to start the practice trials.",0,,,,,,,,,,,,,,,,,,,,,,,,,,,,,,,,,,,,,,,,,,,,,,,,,,,,,,,,,,,,,,,,,,,,,,,,,,,,,,,,,,,,,,,,,,,,,,,,,,,,
,,,,31939,001,2025-11-08_19h16.34.633,HW_LDT_1,2024.2.4,MacIntel,60.24096386,,,,,,,,,,,,,,,,,,,,,35.9863,36.1572,36.1575,36.6573,36.6577,38.724,z,1,2.0412,,[],[],[],[],[],[],[],2.0412,1,38.7244,39.2239,0,0,0,10,1,1011,NW,"ID",16,inlade,INLADE,z,,,,,,,,,,,,,,,,,,,,,,,,,,,,,,,,,,,,,,,,,,,,,,,,,,,,,,,,,,,,,,,,,,
,,,,31939,001,2025-11-08_19h16.34.633,HW_LDT_1,2024.2.4,MacIntel,60.24096386,,,,,,,,,,,,,,,,,,,,,39.2256,39.4236,39.4237,39.9236,39.9249,40.6571,z,1,0.7117,,[],[],[],[],[],[],[],0.7117,1,40.6572,41.157,0,1,1,13,1,1014,NW,UN,33,winfer,ROUPET,z,,,,,,,,,,,,,,,,,,,,,,,,,,,,,,,,,,,,,,,,,,,,,,,,,,,,,,,,,,,,,,,,,,
,,,,31939,001,2025-11-08_19h16.34.633,HW_LDT_1,2024.2.4,MacIntel,60.24096386,,,,,,,,,,,,,,,,,,,,,41.1585,41.357,41.3571,41.857,41.858,42.3896,m,1,0.5141,,[],[],[],[],[],[],[],0.5141,1,42.3897,42.8904,0,2,2,6,1,1007,WORD,UN,16,tropic,ZOMBIE,m,,,,,,,,,,,,,,,,,,,,,,,,,,,,,,,,,,,,,,,,,,,,,,,,,,,,,,,,,,,,,,,,,,
,,,,31939,001,2025-11-08_19h16.34.633,HW_LDT_1,2024.2.4,MacIntel,60.24096386,,,,,,,,,,,,,,,,,,,,,42.892,43.0903,43.0904,43.5903,43.5915,44.3403,z,1,0.7283,,[],[],[],[],[],[],[],0.7283,1,44.3405,44.84,0,3,3,11,1,1012,NW,"ID",16,rashet,RASHET,z,,,,,,,,,,,,,,,,,,,,,,,,,,,,,,,,,,,,,,,,,,,,,,,,,,,,,,,,,,,,,,,,,,
,,,,31939,001,2025-11-08_19h16.34.633,HW_LDT_1,2024.2.4,MacIntel,60.24096386,,,,,,,,,,,,,,,,,,,,,44.8406,45.04,45.04,45.5403,45.5423,46.1565,m,1,0.6008,,[],[],[],[],[],[],[],0.6008,1,46.1566,46.657,0,4,4,1,1,1002,WORD,"ID",33,adjust,ADJUST,m,,,,,,,,,,,,,,,,,,,,,,,,,,,,,,,,,,,,,,,,,,,,,,,,,,,,,,,,,,,,,,,,,,
,,,,31939,001,2025-11-08_19h16.34.633,HW_LDT_1,2024.2.4,MacIntel,60.24096386,,,,,,,,,,,,,,,,,,,,,46.6588,46.8569,46.857,47.357,47.3585,47.8731,m,1,0.494,,[],[],[],[],[],[],[],0.494,1,47.8734,48.3737,0,5,5,4,1,1005,WORD,UN,33,abound,SQUEAK,m,,,,,,,,,,,,,,,,,,,,,,,,,,,,,,,,,,,,,,,,,,,,,,,,,,,,,,,,,,,,,,,,,,
,,,,31939,001,2025-11-08_19h16.34.633,HW_LDT_1,2024.2.4,MacIntel,60.24096386,,,,,,,,,,,,,,,,,,,,,48.3756,48.5737,48.5738,49.0736,49.0748,49.857,z,1,0.7629,,[],[],[],[],[],[],[],0.7629,1,49.8572,50.3559,0,6,6,15,1,1016,NW,UN,16,mushed,WHAISE,z,,,,,,,,,,,,,,,,,,,,,,,,,,,,,,,,,,,,,,,,,,,,,,,,,,,,,,,,,,,,,,,,,,
,,,,31939,001,2025-11-08_19h16.34.633,HW_LDT_1,2024.2.4,MacIntel,60.24096386,,,,,,,,,,,,,,,,,,,,,50.3578,50.5569,50.557,51.057,51.0581,51.657,m,1,0.5788,,[],[],[],[],[],[],[],0.5788,1,51.6572,52.1572,0,7,7,5,1,1006,WORD,UN,33,frenzy,OBTAIN,m,,,,,,,,,,,,,,,,,,,,,,,,,,,,,,,,,,,,,,,,,,,,,,,,,,,,,,,,,,,,,,,,,,
,,,,31939,001,2025-11-08_19h16.34.633,HW_LDT_1,2024.2.4,MacIntel,60.24096386,,,,,,,,,,,,,,,,,,,,,52.1592,52.356,52.356,52.8571,52.8582,53.5893,z,1,0.7216,,[],[],[],[],[],[],[],0.7216,1,53.5895,54.0904,0,8,8,12,1,1013,NW,UN,33,adveil,SPRINY,z,,,,,,,,,,,,,,,,,,,,,,,,,,,,,,,,,,,,,,,,,,,,,,,,,,,,,,,,,,,,,,,,,,
,,,,31939,001,2025-11-08_19h16.34.633,HW_LDT_1,2024.2.4,MacIntel,60.24096386,,,,,,,,,,,,,,,,,,,,,54.0921,54.2902,54.2903,54.7892,54.7902,55.5237,z,1,0.7119,,[],[],[],[],[],[],[],0.7119,1,55.5239,56.0236,0,9,9,8,1,1009,NW,"ID",33,aslert,ASLERT,z,,,,,,,,,,,,,,,,,,,,,,,,,,,,,,,,,,,,,,,,,,,,,,,,,,,,,,,,,,,,,,,,,,
,,,,31939,001,2025-11-08_19h16.34.633,HW_LDT_1,2024.2.4,MacIntel,60.24096386,,,,,,,,,,,,,,,,,,,,,56.0254,56.2226,56.2227,56.7232,56.7238,57.4236,m,1,0.6804,,[],[],[],[],[],[],[],0.6804,1,57.4237,57.9236,0,10,10,7,1,1008,WORD,UN,16,hurdle,VOLUME,m,,,,,,,,,,,,,,,,,,,,,,,,,,,,,,,,,,,,,,,,,,,,,,,,,,,,,,,,,,,,,,,,,,
,,,,31939,001,2025-11-08_19h16.34.633,HW_LDT_1,2024.2.4,MacIntel,60.24096386,,,,,,,,,,,,,,,,,,,,,57.925,58.1236,58.1236,58.6225,58.6235,59.2573,m,1,0.6252,,[],[],[],[],[],[],[],0.6252,1,59.2575,59.7571,0,11,11,3,1,1004,WORD,"ID",16,matrix,MATRIX,m,,,,,,,,,,,,,,,,,,,,,,,,,,,,,,,,,,,,,,,,,,,,,,,,,,,,,,,,,,,,,,,,,,
,,,,31939,001,2025-11-08_19h16.34.633,HW_LDT_1,2024.2.4,MacIntel,60.24096386,,,,,,,,,,,,,,,,,,,,,59.7587,59.9559,59.9559,60.4555,60.456,61.0893,z,1,0.6156,,[],[],[],[],[],[],[],0.6156,1,61.0894,61.5903,0,12,12,9,1,1010,NW,"ID",33,fariny,FARINY,z,,,,,,,,,,,,,,,,,,,,,,,,,,,,,,,,,,,,,,,,,,,,,,,,,,,,,,,,,,,,,,,,,,
,,,,31939,001,2025-11-08_19h16.34.633,HW_LDT_1,2024.2.4,MacIntel,60.24096386,,,,,,,,,,,,,,,,,,,,,61.5921,61.7891,61.7892,62.2902,62.2914,62.7905,m,1,0.478,,[],[],[],[],[],[],[],0.478,1,62.7906,63.2892,0,13,13,2,1,1003,WORD,"ID",16,almond,ALMOND,m,,,,,,,,,,,,,,,,,,,,,,,,,,,,,,,,,,,,,,,,,,,,,,,,,,,,,,,,,,,,,,,,,,
,,,,31939,001,2025-11-08_19h16.34.633,HW_LDT_1,2024.2.4,MacIntel,60.24096386,,,,,,,,,,,,,,,,,,,,,63.291,63.473,63.4731,63.9902,63.9914,64.5569,m,1,0.5487,,[],[],[],[],[],[],[],0.5487,1,64.5571,65.057,0,14,14,0,1,1001,WORD,"ID",33,utopia,UTOPIA,m,,,,,,,,,,,,,,,,,,,,,,,,,,,,,,,,,,,,,,,,,,,,,,,,,,,,,,,,,,,,,,,,,,
,,,,31939,001,2025-11-08_19h16.34.633,HW_LDT_1,2024.2.4,MacIntel,60.24096386,,,,,,,,,,,,,,,,,,,,,65.0586,65.2559,65.2559,65.7558,65.7569,66.4904,z,1,0.7136,,[],[],[],[],[],[],[],0.7136,1,66.4906,66.9902,0,15,15,14,1,1015,NW,UN,16,miaber,THRALE,z,,,,,,,,,,,,,,,,,,,,,,,,,,,,,,,,,,,,,,,,,,,,,,,,,,,,,,,,,,,,,,,,,,
,,,,31939,001,2025-11-08_19h16.34.633,HW_LDT_1,2024.2.4,MacIntel,60.24096386,,,,,,,,,,,,,,,,1,end_of_practice,"You have completed the practice trials. During the experimental trials, you will not receive feedback. On some trials you will be asked to report whether the item you just saw was in cursive or print. 
Before you begin, please ensure that you are in a comfortable and quiet location and will not be disturbed for about 15 minutes, as we cannot use your data if you do not complete all the trials. 
 When you are ready to start the experimental trials, please press space or touch the button below.",,,,,,,,,,,,,,,,,,,,,,,,,,,,,,,,,,,,66.9975,74.4576,space,7.4346,,0.61843316,-0.047556424,0,0,0,0,0,0,0,1,,,,,,,,,,,,,,,,,,,,,,,,,,,,,,,,,,,,,,,,,,,,,,,,,,,
,,,,31939,001,2025-11-08_19h16.34.633,HW_LDT_1,2024.2.4,MacIntel,60.24096386,,,,,,,,,,,,,,,,,,,,,74.4779,74.6568,74.6569,75.1568,,,,,,,,,,,,,,1.0872,1,,,,,,,,,,,,,,z,,,,,,,,,,,,,,,,1,0,75.1582,76.2574,z,1,1.0872,,[],[],[],[],[],[],[],76.2578,78.2572,78.2577,78.2612,[],[],[],[],[],[],[],,78.2614,78.2633,0.61843316,-0.047556424,0,0,0,,0,0,0,8,1,4,RL,casagity,cursive,casagity_c.png,,,,,,
,,,,31939,001,2025-11-08_19h16.34.633,HW_LDT_1,2024.2.4,MacIntel,60.24096386,,,,,,,,,,,,,,,,,,,,,78.2645,78.4568,78.457,78.9569,,,,,,,,,,,,,,0.5996,1,,,,,,,,,,,,,,m,,,,,,,,,,,,,,,,2,0,78.9579,79.5732,m,1,0.5996,,[],[],[],[],[],[],[],79.5733,81.5735,81.5736,81.5738,[],[],[],[],[],[],[],,81.5739,81.574,0.61843316,-0.047556424,0,0,0,,0,1,1,154,1,4,word,STORAGE,print,storage_p.png,,,,,,
,,,,31939,001,2025-11-08_19h16.34.633,HW_LDT_1,2024.2.4,MacIntel,60.24096386,,,,,,,,,,,,,,,,,,,,,81.5758,81.7735,81.7735,82.2735,,,,,,,,,,,,,,0.6861,1,,,,,,,,,,,,,,m,,,,,,,,,,,,,,,,3,0,82.2744,82.9736,m,1,0.6861,,[],[],[],[],[],[],[],82.9737,84.9735,84.9736,84.9739,[],[],[],[],[],[],[],,84.9741,84.9742,0.61843316,-0.047556424,0,0,0,,0,2,2,81,1,4,word,ADVISORY,cursive,advisory_c.png,,,,,,
,,,,31939,001,2025-11-08_19h16.34.633,HW_LDT_1,2024.2.4,MacIntel,60.24096386,,,,,,,,,,,,,,,,,,,,,84.9758,85.1735,85.1736,85.6735,,,,,,,,,,,,,,0.8259,0,,,,,,,,,,,,,,z,,,,,,,,,,,,,,,,4,0,85.6743,86.5063,m,0,0.8259,,[],[],[],[],[],[],[],86.5065,88.5068,88.5069,88.5071,[],[],[],[],[],[],[],,88.5072,88.5073,0.61843316,-0.047556424,0,0,0,,0,3,3,69,1,4,TL,quafily,print,quafily_p.png,,,,,,
,,,,31939,001,2025-11-08_19h16.34.633,HW_LDT_1,2024.2.4,MacIntel,60.24096386,,,,,,,,,,,,,,,,,,,,,88.5085,88.7068,88.7069,89.2067,,,,,,,,,,,,,,0.6526,1,,,,,,,,,,,,,,m,,,,,,,,,,,,,,,,5,0,89.2077,89.8736,m,1,0.6526,,[],[],[],[],[],[],[],89.8737,91.8735,91.8736,91.874,[],[],[],[],[],[],[],,91.8741,91.8742,0.61843316,-0.047556424,0,0,0,,0,4,4,111,1,4,word,INDICATE,print,indicate_p.png,,,,,,
,,,,31939,001,2025-11-08_19h16.34.633,HW_LDT_1,2024.2.4,MacIntel,60.24096386,,,,,,,,,,,,,,,,,,,,,91.8757,92.0731,92.0731,92.5734,,,,,,,,,,,,,,0.6024,1,,,,,,,,,,,,,,z,,,,,,,,,,,,,,,,6,0,92.5743,93.19,z,1,0.6024,,[],[],[],[],[],[],[],93.1902,95.1901,95.1902,95.1906,[],[],[],[],[],[],[],,95.1907,95.191,0.61843316,-0.047556424,0,0,0,,0,5,5,5,1,4,RL,bebine,print,bebine_p.png,,,,,,
,,,,31939,001,2025-11-08_19h16.34.633,HW_LDT_1,2024.2.4,MacIntel,60.24096386,,,,,,,,,,,,,,,,,,,,,95.1927,95.3901,95.3901,95.8894,,,,,,,,,,,,,,0.6426,0,,,,,,,,,,,,,,m,,,,,,,,,,,,,,,,7,0,95.8908,96.5404,z,0,0.6426,,[],[],[],[],[],[],[],96.5406,98.5403,98.5404,98.5409,[],[],[],[],[],[],[],,98.5409,98.5411,0.61843316,-0.047556424,0,0,0,,0,6,6,85,1,4,word,BENEFIT,cursive,benefit_c.png,,,,,,
,,,,31939,001,2025-11-08_19h16.34.633,HW_LDT_1,2024.2.4,MacIntel,60.24096386,,,,,,,,,,,,,,,,,,,,,98.5439,98.7399,98.7399,99.2397,,,,,,,,,,,,,,0.6413,1,,,,,,,,,,,,,,z,,,,,,,,,,,,,,,,8,0,99.2401,99.89,z,1,0.6413,,[],[],[],[],[],[],[],99.8901,101.8897,101.8897,101.8903,[],[],[],[],[],[],[],,101.8903,101.8903,0.61843316,-0.047556424,0,0,0,,0,7,7,28,1,4,RL,mifikary,print,mifikary_p.png,,,,,,
,,,,31939,001,2025-11-08_19h16.34.633,HW_LDT_1,2024.2.4,MacIntel,60.24096386,,,,,,,,,,,,,,,,,,,,,101.891,102.09,102.0901,102.5901,,,,,,,,,,,,,,0.6526,1,,,,,,,,,,,,,,m,,,,,,,,,,,,,,,,9,0,102.5909,103.2568,m,1,0.6526,,[],[],[],[],[],[],[],103.257,105.257,105.2572,105.2576,[],[],[],[],[],[],[],,105.2577,105.2579,0.61843316,-0.047556424,0,0,0,,0,8,8,125,1,4,word,OPERATOR,print,operator_p.png,,,,,,
,,,,31939,001,2025-11-08_19h16.34.633,HW_LDT_1,2024.2.4,MacIntel,60.24096386,,,,,,,,,,,,,,,,,,,,,105.2607,105.4568,105.4568,105.9567,,,,,,,,,,,,,,0.7184,1,,,,,,,,,,,,,,z,,,,,,,,,,,,,,,,10,0,105.9577,106.6889,z,1,0.7184,,[],[],[],[],[],[],[],106.6891,108.69,108.69,108.6905,[],[],[],[],[],[],[],,108.6905,108.6908,0.61843316,-0.047556424,0,0,0,,0,9,9,11,1,4,RL,clisimal,print,clisimal_p.png,,,,,,
,,,,31939,001,2025-11-08_19h16.34.633,HW_LDT_1,2024.2.4,MacIntel,60.24096386,,,,,,,,,,,,,,,,,,,,,108.6922,108.8903,108.8903,109.3901,,,,,,,,,,,,,,0.6976,1,,,,,,,,,,,,,,m,,,,,,,,,,,,,,,,11,0,109.3912,110.09,m,1,0.6976,,[],[],[],[],[],[],[],110.0901,112.0902,112.0903,112.0906,[],[],[],[],[],[],[],,112.0907,112.0909,0.61843316,-0.047556424,0,0,0,,0,10,10,120,1,4,word,MILITARY,print,military_p.png,,,,,,
,,,,31939,001,2025-11-08_19h16.34.633,HW_LDT_1,2024.2.4,MacIntel,60.24096386,,,,,,,,,,,,,,,,,,,,,112.0926,112.29,112.29,112.79,,,,,,,,,,,,,,2.2667,1,,,,,,,,,,,,,,z,,,,,,,,,,,,,,,,12,1,112.7934,115.073,z,1,2.2667,,[],[],[],[],[],[],[],115.0731,117.0732,117.0733,118.8234,[],[],[],[],[],[],[],z,118.8236,118.8238,0.61843316,-0.047556424,0,0,0,,0,11,11,51,1,4,TL,adsivory,cursive,adsivory_c.png,1.737,,,,,
,,,,31939,001,2025-11-08_19h16.34.633,HW_LDT_1,2024.2.4,MacIntel,60.24096386,,,,,,,,,,,,,,,,,,,,,118.8252,119.0234,119.0234,119.5234,,,,,,,,,,,,,,0.7449,1,,,,,,,,,,,,,,z,,,,,,,,,,,,,,,,13,0,119.5244,120.2731,z,1,0.7449,,[],[],[],[],[],[],[],120.2732,122.2734,122.2735,122.2738,[],[],[],[],[],[],[],,122.2738,122.274,0.61843316,-0.047556424,0,0,0,,0,12,12,29,1,4,RL,motide,print,motide_p.png,,,,,,
,,,,31939,001,2025-11-08_19h16.34.633,HW_LDT_1,2024.2.4,MacIntel,60.24096386,,,,,,,,,,,,,,,,,,,,,122.2758,122.4735,122.4735,122.9733,,,,,,,,,,,,,,0.6743,1,,,,,,,,,,,,,,z,,,,,,,,,,,,,,,,14,0,122.9738,123.6567,z,1,0.6743,,[],[],[],[],[],[],[],123.6568,125.6568,125.657,125.6572,[],[],[],[],[],[],[],,125.6572,125.6574,0.61843316,-0.047556424,0,0,0,,0,13,13,3,1,4,RL,bewoted,print,bewoted_p.png,,,,,,
,,,,31939,001,2025-11-08_19h16.34.633,HW_LDT_1,2024.2.4,MacIntel,60.24096386,,,,,,,,,,,,,,,,,,,,,125.6588,125.8567,125.8568,126.3568,,,,,,,,,,,,,,0.8212,1,,,,,,,,,,,,,,z,,,,,,,,,,,,,,,,15,0,126.3575,127.1901,z,1,0.8212,,[],[],[],[],[],[],[],127.1902,129.1899,129.19,129.1903,[],[],[],[],[],[],[],,129.1904,129.1906,0.61843316,-0.047556424,0,0,0,,0,14,14,22,1,4,RL,linedal,cursive,linedal_c.png,,,,,,
,,,,31939,001,2025-11-08_19h16.34.633,HW_LDT_1,2024.2.4,MacIntel,60.24096386,,,,,,,,,,,,,,,,,,,,,129.1921,129.3899,129.39,129.8901,,,,,,,,,,,,,,1.4984,1,,,,,,,,,,,,,,z,,,,,,,,,,,,,,,,16,0,129.8907,131.3901,z,1,1.4984,,[],[],[],[],[],[],[],131.3902,133.3899,133.3901,133.3904,[],[],[],[],[],[],[],,133.3904,133.3906,0.61843316,-0.047556424,0,0,0,,0,15,15,79,1,4,TL,tritube,print,tritube_p.png,,,,,,
,,,,31939,001,2025-11-08_19h16.34.633,HW_LDT_1,2024.2.4,MacIntel,60.24096386,,,,,,,,,,,,,,,,,,,,,133.3923,133.5901,133.5901,134.09,,,,,,,,,,,,,,0.9122,1,,,,,,,,,,,,,,z,,,,,,,,,,,,,,,,17,0,134.0908,135.0063,z,1,0.9122,,[],[],[],[],[],[],[],135.0063,137.0067,137.0068,137.0071,[],[],[],[],[],[],[],,137.0071,137.0073,0.61843316,-0.047556424,0,0,0,,0,16,16,67,1,4,TL,polupar,print,polupar_p.png,,,,,,
,,,,31939,001,2025-11-08_19h16.34.633,HW_LDT_1,2024.2.4,MacIntel,60.24096386,,,,,,,,,,,,,,,,,,,,,137.0088,137.2066,137.2067,137.7066,,,,,,,,,,,,,,0.7045,1,,,,,,,,,,,,,,m,,,,,,,,,,,,,,,,18,0,137.7073,138.4235,m,1,0.7045,,[],[],[],[],[],[],[],138.4237,140.4233,140.4234,140.4236,[],[],[],[],[],[],[],,140.4237,140.4238,0.61843316,-0.047556424,0,0,0,,0,17,17,123,1,4,word,MODERATE,print,moderate_p.png,,,,,,
,,,,31939,001,2025-11-08_19h16.34.633,HW_LDT_1,2024.2.4,MacIntel,60.24096386,,,,,,,,,,,,,,,,,,,,,140.4255,140.6233,140.6234,141.1223,,,,,,,,,,,,,,0.7552,1,,,,,,,,,,,,,,z,,,,,,,,,,,,,,,,19,0,141.1229,141.89,z,1,0.7552,,[],[],[],[],[],[],[],141.8902,143.89,143.8901,143.8904,[],[],[],[],[],[],[],,143.8904,143.8907,0.61843316,-0.047556424,0,0,0,,0,18,18,70,1,4,TL,quatily,print,quatily_p.png,,,,,,
,,,,31939,001,2025-11-08_19h16.34.633,HW_LDT_1,2024.2.4,MacIntel,60.24096386,,,,,,,,,,,,,,,,,,,,,143.8923,144.09,144.0901,144.5899,,,,,,,,,,,,,,1.5872,0,,,,,,,,,,,,,,m,,,,,,,,,,,,,,,,20,0,144.5906,146.1898,z,0,1.5872,,[],[],[],[],[],[],[],146.1899,148.19,148.1902,148.1905,[],[],[],[],[],[],[],,148.1906,148.1908,0.61843316,-0.047556424,0,0,0,,0,19,19,138,1,4,word,REFUSAL,cursive,refusal_c.png,,,,,,
,,,,31939,001,2025-11-08_19h16.34.633,HW_LDT_1,2024.2.4,MacIntel,60.24096386,,,,,,,,,,,,,,,,,,,,,148.1929,148.39,148.39,148.8898,,,,,,,,,,,,,,0.6532,1,,,,,,,,,,,,,,z,,,,,,,,,,,,,,,,21,0,148.8904,149.5566,z,1,0.6532,,[],[],[],[],[],[],[],149.5568,151.5567,151.5568,151.557,[],[],[],[],[],[],[],,151.5571,151.5573,0.61843316,-0.047556424,0,0,0,,0,20,20,18,1,4,RL,disluge,print,disluge_p.png,,,,,,
,,,,31939,001,2025-11-08_19h16.34.633,HW_LDT_1,2024.2.4,MacIntel,60.24096386,,,,,,,,,,,,,,,,,,,,,151.5588,151.7567,151.7567,152.2567,,,,,,,,,,,,,,0.8242,1,,,,,,,,,,,,,,m,,,,,,,,,,,,,,,,22,1,152.2575,153.0897,m,1,0.8242,,[],[],[],[],[],[],[],153.0898,155.0894,155.0894,156.4396,[],[],[],[],[],[],[],m,156.4396,156.4396,0.61843316,-0.047556424,0,0,0,,0,21,21,136,1,4,word,RADICAL,print,radical_p.png,1.342,,,,,
,,,,31939,001,2025-11-08_19h16.34.633,HW_LDT_1,2024.2.4,MacIntel,60.24096386,,,,,,,,,,,,,,,,,,,,,156.4401,156.6399,156.6399,157.1399,,,,,,,,,,,,,,1.1874,1,,,,,,,,,,,,,,m,,,,,,,,,,,,,,,,23,0,157.1409,158.3399,m,1,1.1874,,[],[],[],[],[],[],[],158.34,160.3399,160.34,160.3402,[],[],[],[],[],[],[],,160.3402,160.3403,0.61843316,-0.047556424,0,0,0,,0,22,22,142,1,4,word,REMOTE,cursive,remote_c.png,,,,,,
,,,,31939,001,2025-11-08_19h16.34.633,HW_LDT_1,2024.2.4,MacIntel,60.24096386,,,,,,,,,,,,,,,,,,,,,160.342,160.54,160.5401,161.04,,,,,,,,,,,,,,0.7134,1,,,,,,,,,,,,,,m,,,,,,,,,,,,,,,,24,0,161.0406,161.7565,m,1,0.7134,,[],[],[],[],[],[],[],161.7565,163.7565,163.7566,163.7568,[],[],[],[],[],[],[],,163.7568,163.757,0.61843316,-0.047556424,0,0,0,,0,23,23,144,1,4,word,RESIDENT,cursive,resident_c.png,,,,,,
,,,,31939,001,2025-11-08_19h16.34.633,HW_LDT_1,2024.2.4,MacIntel,60.24096386,,,,,,,,,,,,,,,,,,,,,163.7579,163.9567,163.9568,164.4565,,,,,,,,,,,,,,0.6628,1,,,,,,,,,,,,,,z,,,,,,,,,,,,,,,,25,0,164.4574,165.123,z,1,0.6628,,[],[],[],[],[],[],[],165.1231,167.123,167.1231,167.1241,[],[],[],[],[],[],[],,167.1242,167.1242,0.61843316,-0.047556424,0,0,0,,0,24,24,43,1,4,RL,rovastic,print,rovastic_p.png,,,,,,
,,,,31939,001,2025-11-08_19h16.34.633,HW_LDT_1,2024.2.4,MacIntel,60.24096386,,,,,,,,,,,,,,,,,,,,,167.1253,167.3231,167.3231,167.8232,,,,,,,,,,,,,,0.9377,1,,,,,,,,,,,,,,m,,,,,,,,,,,,,,,,26,0,167.8241,168.7728,m,1,0.9377,,[],[],[],[],[],[],[],168.7729,170.7732,170.7733,170.7736,[],[],[],[],[],[],[],,170.7738,170.7738,0.61843316,-0.047556424,0,0,0,,0,25,25,148,1,4,word,SALINE,print,saline_p.png,,,,,,
,,,,31939,001,2025-11-08_19h16.34.633,HW_LDT_1,2024.2.4,MacIntel,60.24096386,,,,,,,,,,,,,,,,,,,,,170.7753,170.9736,170.9737,171.4733,,,,,,,,,,,,,,0.6811,1,,,,,,,,,,,,,,z,,,,,,,,,,,,,,,,27,0,171.4742,172.1567,z,1,0.6811,,[],[],[],[],[],[],[],172.1568,174.1566,174.1568,174.1571,[],[],[],[],[],[],[],,174.1571,174.1572,0.61843316,-0.047556424,0,0,0,,0,26,26,47,1,4,RL,stopave,print,stopave_p.png,,,,,,
,,,,31939,001,2025-11-08_19h16.34.633,HW_LDT_1,2024.2.4,MacIntel,60.24096386,,,,,,,,,,,,,,,,,,,,,174.1589,174.3564,174.3565,174.8566,,,,,,,,,,,,,,0.9477,0,,,,,,,,,,,,,,m,,,,,,,,,,,,,,,,28,1,174.8573,175.8064,z,0,0.9477,,[],[],[],[],[],[],[],175.8065,177.8055,177.8055,178.8898,[],[],[],[],[],[],[],z,178.8899,178.89,0.61843316,-0.047556424,0,0,0,,0,27,27,92,1,4,word,CATEGORY,cursive,category_c.png,1.0832,,,,,
,,,,31939,001,2025-11-08_19h16.34.633,HW_LDT_1,2024.2.4,MacIntel,60.24096386,,,,,,,,,,,,,,,,,,,,,178.8918,179.0888,179.0889,179.5895,,,,,,,,,,,,,,1.054,1,,,,,,,,,,,,,,m,,,,,,,,,,,,,,,,29,0,179.5905,180.6565,m,1,1.054,,[],[],[],[],[],[],[],180.6567,182.6556,182.6557,182.6559,[],[],[],[],[],[],[],,182.656,182.6562,0.61843316,-0.047556424,0,0,0,,0,28,28,139,1,4,word,REGULAR,cursive,regular_c.png,,,,,,
,,,,31939,001,2025-11-08_19h16.34.633,HW_LDT_1,2024.2.4,MacIntel,60.24096386,,,,,,,,,,,,,,,,,,,,,182.6578,182.8565,182.8565,183.3555,,,,,,,,,,,,,,1.0987,1,,,,,,,,,,,,,,z,,,,,,,,,,,,,,,,30,0,183.3561,184.4558,z,1,1.0987,,[],[],[],[],[],[],[],184.4559,186.4564,186.4565,186.4568,[],[],[],[],[],[],[],,186.4568,186.4569,0.61843316,-0.047556424,0,0,0,,0,29,29,37,1,4,RL,renutal,cursive,renutal_c.png,,,,,,
,,,,31939,001,2025-11-08_19h16.34.633,HW_LDT_1,2024.2.4,MacIntel,60.24096386,,,,,,,,,,,,,,,,,,,,,186.4587,186.6564,186.6565,187.1565,,,,,,,,,,,,,,1.369,1,,,,,,,,,,,,,,z,,,,,,,,,,,,,,,,31,0,187.1573,188.5389,z,1,1.369,,[],[],[],[],[],[],[],188.5389,190.5398,190.5399,190.5401,[],[],[],[],[],[],[],,190.5401,190.5403,0.61843316,-0.047556424,0,0,0,,0,30,30,52,1,4,TL,cagetory,cursive,cagetory_c.png,,,,,,
,,,,31939,001,2025-11-08_19h16.34.633,HW_LDT_1,2024.2.4,MacIntel,60.24096386,,,,,,,,,,,,,,,,,,,,,190.5423,190.7398,190.7399,191.2398,,,,,,,,,,,,,,0.6356,1,,,,,,,,,,,,,,z,,,,,,,,,,,,,,,,32,0,191.2405,191.8898,z,1,0.6356,,[],[],[],[],[],[],[],191.8899,193.8898,193.89,193.8902,[],[],[],[],[],[],[],,193.8903,193.8904,0.61843316,-0.047556424,0,0,0,,0,31,31,0,1,4,RL,abanemy,print,abanemy_p.png,,,,,,
,,,,31939,001,2025-11-08_19h16.34.633,HW_LDT_1,2024.2.4,MacIntel,60.24096386,,,,,,,,,,,,,,,,,,,,,193.8921,194.0898,194.0899,194.5897,,,,,,,,,,,,,,0.6399,1,,,,,,,,,,,,,,z,,,,,,,,,,,,,,,,33,0,194.5904,195.2397,z,1,0.6399,,[],[],[],[],[],[],[],195.2398,197.2392,197.2392,197.2393,[],[],[],[],[],[],[],,197.2393,197.2395,0.61843316,-0.047556424,0,0,0,,0,32,32,54,1,4,TL,codemy,print,codemy_p.png,,,,,,
,,,,31939,001,2025-11-08_19h16.34.633,HW_LDT_1,2024.2.4,MacIntel,60.24096386,,,,,,,,,,,,,,,,,,,,,197.2401,197.4395,197.4396,197.9398,,,,,,,,,,,,,,0.5712,1,,,,,,,,,,,,,,m,,,,,,,,,,,,,,,,34,0,197.9406,198.5231,m,1,0.5712,,[],[],[],[],[],[],[],198.5233,200.5232,200.5233,200.5236,[],[],[],[],[],[],[],,200.5236,200.5238,0.61843316,-0.047556424,0,0,0,,0,33,33,146,1,4,word,RETIRE,print,retire_p.png,,,,,,
,,,,31939,001,2025-11-08_19h16.34.633,HW_LDT_1,2024.2.4,MacIntel,60.24096386,,,,,,,,,,,,,,,,,,,,,200.5252,200.7232,200.7233,201.2232,,,,,,,,,,,,,,4.2539,1,,,,,,,,,,,,,,z,,,,,,,,,,,,,,,,35,0,201.2241,205.4898,z,1,4.2539,,[],[],[],[],[],[],[],205.49,207.4898,207.4899,207.4902,[],[],[],[],[],[],[],,207.4902,207.4904,0.61843316,-0.047556424,0,0,0,,0,34,34,32,1,4,RL,patisic,cursive,patisic_c.png,,,,,,
,,,,31939,001,2025-11-08_19h16.34.633,HW_LDT_1,2024.2.4,MacIntel,60.24096386,,,,,,,,,,,,,,,,,,,,,207.4921,207.6898,207.6899,208.1889,,,,,,,,,,,,,,0.6302,1,,,,,,,,,,,,,,m,,,,,,,,,,,,,,,,36,1,208.1899,208.823,m,1,0.6302,,[],[],[],[],[],[],[],208.823,210.8231,210.8231,212.7896,[],[],[],[],[],[],[],m,212.7898,212.7898,0.61843316,-0.047556424,0,0,0,,0,35,35,109,1,4,word,GRATEFUL,print,grateful_p.png,1.9651,,,,,
,,,,31939,001,2025-11-08_19h16.34.633,HW_LDT_1,2024.2.4,MacIntel,60.24096386,,,,,,,,,,,,,,,,,,,,,212.7911,212.9897,212.9898,213.4893,,,,,,,,,,,,,,1.521,1,,,,,,,,,,,,,,m,,,,,,,,,,,,,,,,37,0,213.4894,215.0224,m,1,1.521,,[],[],[],[],[],[],[],215.0225,217.023,217.0231,217.0233,[],[],[],[],[],[],[],,217.0233,217.0235,0.61843316,-0.047556424,0,0,0,,0,36,36,153,1,4,word,STOLEN,cursive,stolen_c.png,,,,,,
,,,,31939,001,2025-11-08_19h16.34.633,HW_LDT_1,2024.2.4,MacIntel,60.24096386,,,,,,,,,,,,,,,,,,,,,217.025,217.2231,217.2231,217.7227,,,,,,,,,,,,,,0.6825,1,,,,,,,,,,,,,,m,,,,,,,,,,,,,,,,38,0,217.7231,218.4065,m,1,0.6825,,[],[],[],[],[],[],[],218.4066,220.4063,220.4064,220.4066,[],[],[],[],[],[],[],,220.4066,220.4068,0.61843316,-0.047556424,0,0,0,,0,37,37,158,1,4,word,VELOCITY,cursive,velocity_c.png,,,,,,
,,,,31939,001,2025-11-08_19h16.34.633,HW_LDT_1,2024.2.4,MacIntel,60.24096386,,,,,,,,,,,,,,,,,,,,,220.4083,220.6064,220.6064,221.1063,,,,,,,,,,,,,,0.6315,1,,,,,,,,,,,,,,m,,,,,,,,,,,,,,,,39,0,221.107,221.7395,m,1,0.6315,,[],[],[],[],[],[],[],221.7396,223.7397,223.7397,223.7401,[],[],[],[],[],[],[],,223.7401,223.7402,0.61843316,-0.047556424,0,0,0,,0,38,38,103,1,4,word,DISPUTE,print,dispute_p.png,,,,,,
,,,,31939,001,2025-11-08_19h16.34.633,HW_LDT_1,2024.2.4,MacIntel,60.24096386,,,,,,,,,,,,,,,,,,,,,223.7422,223.9396,223.9397,224.4396,,,,,,,,,,,,,,0.6844,1,,,,,,,,,,,,,,z,,,,,,,,,,,,,,,,40,0,224.4403,225.1398,z,1,0.6844,,[],[],[],[],[],[],[],225.1399,227.1393,227.1393,227.1396,[],[],[],[],[],[],[],,227.1396,227.1397,0.61843316,-0.047556424,0,0,0,,0,39,39,57,1,4,TL,etidor,print,etidor_p.png,,,,,,
,,,,31939,001,2025-11-08_19h16.34.633,HW_LDT_1,2024.2.4,MacIntel,60.24096386,,,,,,,,,,,,,,,,,,,,,227.1413,227.3398,227.3398,227.8396,,,,,,,,,,,,,,1.4365,1,,,,,,,,,,,,,,m,,,,,,,,,,,,,,,,41,0,227.8406,229.2887,m,1,1.4365,,[],[],[],[],[],[],[],229.2887,231.2897,231.2898,231.29,[],[],[],[],[],[],[],,231.2901,231.2902,0.61843316,-0.047556424,0,0,0,,0,40,40,135,1,4,word,QUALITY,print,quality_p.png,,,,,,
,,,,31939,001,2025-11-08_19h16.34.633,HW_LDT_1,2024.2.4,MacIntel,60.24096386,,,,,,,,,,,,,,,,,,,,,231.2917,231.4897,231.4899,231.9897,,,,,,,,,,,,,,1.0913,1,,,,,,,,,,,,,,z,,,,,,,,,,,,,,,,42,0,231.9903,233.0898,z,1,1.0913,,[],[],[],[],[],[],[],233.0898,235.0899,235.09,235.0902,[],[],[],[],[],[],[],,235.0903,235.0905,0.61843316,-0.047556424,0,0,0,,0,41,41,1,1,4,RL,afaneur,cursive,afaneur_c.png,,,,,,
,,,,31939,001,2025-11-08_19h16.34.633,HW_LDT_1,2024.2.4,MacIntel,60.24096386,,,,,,,,,,,,,,,,,,,,,235.0921,235.2896,235.2896,235.7894,,,,,,,,,,,,,,1.1981,1,,,,,,,,,,,,,,m,,,,,,,,,,,,,,,,43,1,235.79,236.9895,m,1,1.1981,,[],[],[],[],[],[],[],236.9896,238.9897,238.9898,240.4562,[],[],[],[],[],[],[],z,240.4564,240.4565,0.61843316,-0.047556424,0,0,0,,0,42,42,91,1,4,word,CARDINAL,cursive,cardinal_c.png,1.4572,,,,,
,,,,31939,001,2025-11-08_19h16.34.633,HW_LDT_1,2024.2.4,MacIntel,60.24096386,,,,,,,,,,,,,,,,,,,,,240.4581,240.6563,240.6563,241.1565,,,,,,,,,,,,,,0.8573,1,,,,,,,,,,,,,,z,,,,,,,,,,,,,,,,44,0,241.1578,242.0226,z,1,0.8573,,[],[],[],[],[],[],[],242.0227,244.0231,244.0231,244.0234,[],[],[],[],[],[],[],,244.0235,244.0236,0.61843316,-0.047556424,0,0,0,,0,43,43,76,1,4,TL,setanor,print,setanor_p.png,,,,,,
,,,,31939,001,2025-11-08_19h16.34.633,HW_LDT_1,2024.2.4,MacIntel,60.24096386,,,,,,,,,,,,,,,,,,,,,244.0254,244.2229,244.223,244.723,,,,,,,,,,,,,,0.7868,1,,,,,,,,,,,,,,z,,,,,,,,,,,,,,,,45,0,244.7238,245.523,z,1,0.7868,,[],[],[],[],[],[],[],245.5233,247.5226,247.5226,247.5227,[],[],[],[],[],[],[],,247.5227,247.5227,0.61843316,-0.047556424,0,0,0,,0,44,44,27,1,4,RL,menowy,print,menowy_p.png,,,,,,
,,,,31939,001,2025-11-08_19h16.34.633,HW_LDT_1,2024.2.4,MacIntel,60.24096386,,,,,,,,,,,,,,,,,,,,,247.5233,247.7226,247.7226,248.223,,,,,,,,,,,,,,0.7531,1,,,,,,,,,,,,,,m,,,,,,,,,,,,,,,,46,0,248.2237,248.9892,m,1,0.7531,,[],[],[],[],[],[],[],248.9892,250.9897,250.9897,250.9901,[],[],[],[],[],[],[],,250.9901,250.9902,0.61843316,-0.047556424,0,0,0,,0,45,45,98,1,4,word,CRIMINAL,cursive,criminal_c.png,,,,,,
,,,,31939,001,2025-11-08_19h16.34.633,HW_LDT_1,2024.2.4,MacIntel,60.24096386,,,,,,,,,,,,,,,,,,,,,250.9921,251.1896,251.1897,251.6898,,,,,,,,,,,,,,0.6864,1,,,,,,,,,,,,,,m,,,,,,,,,,,,,,,,47,0,251.6906,252.3898,m,1,0.6864,,[],[],[],[],[],[],[],252.3898,254.3897,254.3897,254.3901,[],[],[],[],[],[],[],,254.3902,254.3903,0.61843316,-0.047556424,0,0,0,,0,46,46,122,1,4,word,MOBILE,print,mobile_p.png,,,,,,
,,,,31939,001,2025-11-08_19h16.34.633,HW_LDT_1,2024.2.4,MacIntel,60.24096386,,,,,,,,,,,,,,,,,,,,,254.3918,254.5896,254.5898,255.0895,,,,,,,,,,,,,,0.7734,1,,,,,,,,,,,,,,z,,,,,,,,,,,,,,,,48,0,255.0902,255.873,z,1,0.7734,,[],[],[],[],[],[],[],255.8731,257.873,257.873,257.8733,[],[],[],[],[],[],[],,257.8733,257.8734,0.61843316,-0.047556424,0,0,0,,0,47,47,58,1,4,TL,edivent,print,edivent_p.png,,,,,,
,,,,31939,001,2025-11-08_19h16.34.633,HW_LDT_1,2024.2.4,MacIntel,60.24096386,,,,,,,,,,,,,,,,,,,,,257.8751,258.073,258.0731,258.5729,,,,,,,,,,,,,,2.2191,1,,,,,,,,,,,,,,z,,,,,,,,,,,,,,,,49,0,258.5741,260.8057,z,1,2.2191,,[],[],[],[],[],[],[],260.8059,262.8064,262.8065,262.8068,[],[],[],[],[],[],[],,262.807,262.8071,0.61843316,-0.047556424,0,0,0,,0,48,48,16,1,4,RL,desifate,cursive,desifate_c.png,,,,,,
,,,,31939,001,2025-11-08_19h16.34.633,HW_LDT_1,2024.2.4,MacIntel,60.24096386,,,,,,,,,,,,,,,,,,,,,262.8102,263.0062,263.0062,263.5083,,,,,,,,,,,,,,1.0782,1,,,,,,,,,,,,,,z,,,,,,,,,,,,,,,,50,0,263.5088,264.5895,z,1,1.0782,,[],[],[],[],[],[],[],264.5896,266.5896,266.5897,266.5899,[],[],[],[],[],[],[],,266.5899,266.5901,0.61843316,-0.047556424,0,0,0,,0,49,49,45,1,4,RL,spetisic,cursive,spetisic_c.png,,,,,,
,,,,31939,001,2025-11-08_19h16.34.633,HW_LDT_1,2024.2.4,MacIntel,60.24096386,,,,,,,,,,,,,,,,,,,,,266.5918,266.7896,266.7897,267.2896,,,,,,,,,,,,,,0.6695,1,,,,,,,,,,,,,,m,,,,,,,,,,,,,,,,51,0,267.2903,267.9729,m,1,0.6695,,[],[],[],[],[],[],[],267.9731,269.9733,269.9734,269.9737,[],[],[],[],[],[],[],,269.9739,269.974,0.61843316,-0.047556424,0,0,0,,0,50,50,119,1,4,word,MEMORY,print,memory_p.png,,,,,,
,,,,31939,001,2025-11-08_19h16.34.633,HW_LDT_1,2024.2.4,MacIntel,60.24096386,,,,,,,,,,,,,,,,,,,,,269.9755,270.173,270.1732,270.6729,,,,,,,,,,,,,,0.5525,1,,,,,,,,,,,,,,m,,,,,,,,,,,,,,,,52,0,270.6738,271.2396,m,1,0.5525,,[],[],[],[],[],[],[],271.2396,273.2395,273.2397,273.24,[],[],[],[],[],[],[],,273.24,273.2401,0.61843316,-0.047556424,0,0,0,,0,51,51,141,1,4,word,RELIGION,print,religion_p.png,,,,,,
,,,,31939,001,2025-11-08_19h16.34.633,HW_LDT_1,2024.2.4,MacIntel,60.24096386,,,,,,,,,,,,,,,,,,,,,273.2417,273.4396,273.4396,273.9397,,,,,,,,,,,,,,1.5133,1,,,,,,,,,,,,,,z,,,,,,,,,,,,,,,,53,1,273.9404,275.4559,z,1,1.5133,,[],[],[],[],[],[],[],275.456,277.4562,277.4563,278.3729,[],[],[],[],[],[],[],z,278.373,278.3731,0.61843316,-0.047556424,0,0,0,,0,52,52,30,1,4,RL,nunewical,cursive,nunewical_c.png,0.9047,,,,,
,,,,31939,001,2025-11-08_19h16.34.633,HW_LDT_1,2024.2.4,MacIntel,60.24096386,,,,,,,,,,,,,,,,,,,,,278.3746,278.5729,278.573,279.0728,,,,,,,,,,,,,,0.7698,0,,,,,,,,,,,,,,z,,,,,,,,,,,,,,,,54,0,279.0735,279.8561,m,0,0.7698,,[],[],[],[],[],[],[],279.8562,281.8559,281.8559,281.856,[],[],[],[],[],[],[],,281.856,281.8562,0.61843316,-0.047556424,0,0,0,,0,53,53,77,1,4,TL,spemicen,cursive,spemicen_c.png,,,,,,
,,,,31939,001,2025-11-08_19h16.34.633,HW_LDT_1,2024.2.4,MacIntel,60.24096386,,,,,,,,,,,,,,,,,,,,,281.8573,282.0563,282.0563,282.5561,,,,,,,,,,,,,,0.8128,1,,,,,,,,,,,,,,z,,,,,,,,,,,,,,,,55,0,282.557,283.3725,z,1,0.8128,,[],[],[],[],[],[],[],283.3725,285.3733,285.3739,285.3743,[],[],[],[],[],[],[],,285.3744,285.3746,0.61843316,-0.047556424,0,0,0,,0,54,54,19,1,4,RL,elacodate,cursive,elacodate_c.png,,,,,,
,,,,31939,001,2025-11-08_19h16.34.633,HW_LDT_1,2024.2.4,MacIntel,60.24096386,,,,,,,,,,,,,,,,,,,,,285.3765,285.5725,285.5725,286.0729,,,,,,,,,,,,,,0.586,1,,,,,,,,,,,,,,m,,,,,,,,,,,,,,,,56,0,286.0739,286.6725,m,1,0.586,,[],[],[],[],[],[],[],286.6726,288.6729,288.673,288.6733,[],[],[],[],[],[],[],,288.6734,288.6735,0.61843316,-0.047556424,0,0,0,,0,55,55,90,1,4,word,CAPITAL,print,capital_p.png,,,,,,
,,,,31939,001,2025-11-08_19h16.34.633,HW_LDT_1,2024.2.4,MacIntel,60.24096386,,,,,,,,,,,,,,,,,,,,,288.6758,288.8724,288.8724,289.3726,,,,,,,,,,,,,,0.6745,1,,,,,,,,,,,,,,z,,,,,,,,,,,,,,,,57,0,289.3733,290.0561,z,1,0.6745,,[],[],[],[],[],[],[],290.0563,292.0562,292.0563,292.0565,[],[],[],[],[],[],[],,292.0566,292.0567,0.61843316,-0.047556424,0,0,0,,0,56,56,73,1,4,TL,regilion,print,regilion_p.png,,,,,,
,,,,31939,001,2025-11-08_19h16.34.633,HW_LDT_1,2024.2.4,MacIntel,60.24096386,,,,,,,,,,,,,,,,,,,,,292.0583,292.2562,292.2563,292.7561,,,,,,,,,,,,,,0.6862,1,,,,,,,,,,,,,,z,,,,,,,,,,,,,,,,58,0,292.7568,293.4563,z,1,0.6862,,[],[],[],[],[],[],[],293.4563,295.4562,295.4562,295.4566,[],[],[],[],[],[],[],,295.4566,295.4569,0.61843316,-0.047556424,0,0,0,,0,57,57,2,1,4,RL,asiral,cursive,asiral_c.png,,,,,,
,,,,31939,001,2025-11-08_19h16.34.633,HW_LDT_1,2024.2.4,MacIntel,60.24096386,,,,,,,,,,,,,,,,,,,,,295.4584,295.6561,295.6562,296.1561,,,,,,,,,,,,,,0.5363,1,,,,,,,,,,,,,,m,,,,,,,,,,,,,,,,59,0,296.1569,296.7061,m,1,0.5363,,[],[],[],[],[],[],[],296.7063,298.7062,298.7063,298.7064,[],[],[],[],[],[],[],,298.7065,298.7066,0.61843316,-0.047556424,0,0,0,,0,58,58,88,1,4,word,CAMERA,print,camera_p.png,,,,,,
,,,,31939,001,2025-11-08_19h16.34.633,HW_LDT_1,2024.2.4,MacIntel,60.24096386,,,,,,,,,,,,,,,,,,,,,298.7081,298.9061,298.9061,299.4061,,,,,,,,,,,,,,0.5908,1,,,,,,,,,,,,,,z,,,,,,,,,,,,,,,,60,0,299.4068,300.0061,z,1,0.5908,,[],[],[],[],[],[],[],300.0062,302.0063,302.0064,302.0067,[],[],[],[],[],[],[],,302.0068,302.0069,0.61843316,-0.047556424,0,0,0,,0,59,59,50,1,4,RL,vecelan,cursive,vecelan_c.png,,,,,,
,,,,31939,001,2025-11-08_19h16.34.633,HW_LDT_1,2024.2.4,MacIntel,60.24096386,,,,,,,,,,,,,,,,,,,,,302.0083,302.2062,302.2063,302.7061,,,,,,,,,,,,,,0.7199,0,,,,,,,,,,,,,,m,,,,,,,,,,,,,,,,61,0,302.7069,303.4397,z,0,0.7199,,[],[],[],[],[],[],[],303.4399,305.4394,305.4395,305.4398,[],[],[],[],[],[],[],,305.4398,305.4399,0.61843316,-0.047556424,0,0,0,,0,60,60,101,1,4,word,DELICATE,cursive,delicate_c.png,,,,,,
,,,,31939,001,2025-11-08_19h16.34.633,HW_LDT_1,2024.2.4,MacIntel,60.24096386,,,,,,,,,,,,,,,,,,,,,305.4415,305.6395,305.6395,306.1383,,,,,,,,,,,,,,0.7714,1,,,,,,,,,,,,,,m,,,,,,,,,,,,,,,,62,1,306.1389,306.9228,m,1,0.7714,,[],[],[],[],[],[],[],306.9229,308.9225,308.9225,310.5894,[],[],[],[],[],[],[],m,310.5895,310.5897,0.61843316,-0.047556424,0,0,0,,0,61,61,134,1,4,word,QUALIFY,print,qualify_p.png,1.6543,,,,,
,,,,31939,001,2025-11-08_19h16.34.633,HW_LDT_1,2024.2.4,MacIntel,60.24096386,,,,,,,,,,,,,,,,,,,,,310.5911,310.7894,310.7895,311.2895,,,,,,,,,,,,,,0.9367,1,,,,,,,,,,,,,,z,,,,,,,,,,,,,,,,63,0,311.2901,312.2396,z,1,0.9367,,[],[],[],[],[],[],[],312.2397,314.2389,314.2389,314.2392,[],[],[],[],[],[],[],,314.2394,314.2394,0.61843316,-0.047556424,0,0,0,,0,62,62,53,1,4,TL,cemerony,print,cemerony_p.png,,,,,,
,,,,31939,001,2025-11-08_19h16.34.633,HW_LDT_1,2024.2.4,MacIntel,60.24096386,,,,,,,,,,,,,,,,,,,,,314.241,314.4394,314.4395,314.9394,,,,,,,,,,,,,,1.2409,1,,,,,,,,,,,,,,m,,,,,,,,,,,,,,,,64,0,314.9401,316.1894,m,1,1.2409,,[],[],[],[],[],[],[],316.1895,318.1894,318.1895,318.1897,[],[],[],[],[],[],[],,318.1898,318.1899,0.61843316,-0.047556424,0,0,0,,0,63,63,129,1,4,word,PARENT,cursive,parent_c.png,,,,,,
,,,,31939,001,2025-11-08_19h16.34.633,HW_LDT_1,2024.2.4,MacIntel,60.24096386,,,,,,,,,,,,,,,,,,,,,318.1914,318.3895,318.3896,318.8894,,,,,,,,,,,,,,0.6217,1,,,,,,,,,,,,,,z,,,,,,,,,,,,,,,,65,0,318.8901,319.5223,z,1,0.6217,,[],[],[],[],[],[],[],319.5223,321.5227,321.5228,321.523,[],[],[],[],[],[],[],,321.5231,321.5232,0.61843316,-0.047556424,0,0,0,,0,64,64,59,1,4,TL,fornute,cursive,fornute_c.png,,,,,,
,,,,31939,001,2025-11-08_19h16.34.633,HW_LDT_1,2024.2.4,MacIntel,60.24096386,,,,,,,,,,,,,,,,,,,,,321.525,321.7224,321.7224,322.2227,,,,,,,,,,,,,,0.9628,1,,,,,,,,,,,,,,m,,,,,,,,,,,,,,,,66,1,322.2233,323.1893,m,1,0.9628,,[],[],[],[],[],[],[],323.1894,325.1895,325.1895,326.1062,[],[],[],[],[],[],[],m,326.1062,326.1063,0.61843316,-0.047556424,0,0,0,,0,65,65,131,1,4,word,POPULAR,print,popular_p.png,0.9152,,,,,
,,,,31939,001,2025-11-08_19h16.34.633,HW_LDT_1,2024.2.4,MacIntel,60.24096386,,,,,,,,,,,,,,,,,,,,,326.1075,326.306,326.306,326.806,,,,,,,,,,,,,,0.6471,1,,,,,,,,,,,,,,z,,,,,,,,,,,,,,,,67,0,326.8068,327.4561,z,1,0.6471,,[],[],[],[],[],[],[],327.4561,329.4561,329.4561,329.4563,[],[],[],[],[],[],[],,329.4563,329.4565,0.61843316,-0.047556424,0,0,0,,0,66,66,36,1,4,RL,rabigly,cursive,rabigly_c.png,,,,,,
,,,,31939,001,2025-11-08_19h16.34.633,HW_LDT_1,2024.2.4,MacIntel,60.24096386,,,,,,,,,,,,,,,,,,,,,329.4582,329.6561,329.6561,330.156,,,,,,,,,,,,,,0.6528,1,,,,,,,,,,,,,,z,,,,,,,,,,,,,,,,68,0,330.1567,330.8228,z,1,0.6528,,[],[],[],[],[],[],[],330.8229,332.8227,332.8228,332.8231,[],[],[],[],[],[],[],,332.8231,332.8232,0.61843316,-0.047556424,0,0,0,,0,67,67,23,1,4,RL,linefal,cursive,linefal_c.png,,,,,,
,,,,31939,001,2025-11-08_19h16.34.633,HW_LDT_1,2024.2.4,MacIntel,60.24096386,,,,,,,,,,,,,,,,,,,,,332.8248,333.0223,333.0223,333.5227,,,,,,,,,,,,,,0.9039,1,,,,,,,,,,,,,,m,,,,,,,,,,,,,,,,69,1,333.5235,334.4394,m,1,0.9039,,[],[],[],[],[],[],[],334.4394,336.4393,336.4393,338.0217,[],[],[],[],[],[],[],m,338.0218,338.0218,0.61843316,-0.047556424,0,0,0,,0,68,68,155,1,4,word,STRATEGY,print,strategy_p.png,1.5817,,,,,
,,,,31939,001,2025-11-08_19h16.34.633,HW_LDT_1,2024.2.4,MacIntel,60.24096386,,,,,,,,,,,,,,,,,,,,,338.0231,338.2226,338.2227,338.7226,,,,,,,,,,,,,,1.0152,1,,,,,,,,,,,,,,m,,,,,,,,,,,,,,,,70,0,338.7232,339.739,m,1,1.0152,,[],[],[],[],[],[],[],339.7391,341.7393,341.7393,341.7394,[],[],[],[],[],[],[],,341.7395,341.7397,0.61843316,-0.047556424,0,0,0,,0,69,69,105,1,4,word,EDITOR,print,editor_p.png,,,,,,
,,,,31939,001,2025-11-08_19h16.34.633,HW_LDT_1,2024.2.4,MacIntel,60.24096386,,,,,,,,,,,,,,,,,,,,,341.7413,341.9393,341.9393,342.4393,,,,,,,,,,,,,,0.6891,1,,,,,,,,,,,,,,m,,,,,,,,,,,,,,,,71,0,342.44,343.1383,m,1,0.6891,,[],[],[],[],[],[],[],343.1384,345.1389,345.139,345.1392,[],[],[],[],[],[],[],,345.1393,345.1393,0.61843316,-0.047556424,0,0,0,,0,70,70,132,1,4,word,PROPOSAL,print,proposal_p.png,,,,,,
,,,,31939,001,2025-11-08_19h16.34.633,HW_LDT_1,2024.2.4,MacIntel,60.24096386,,,,,,,,,,,,,,,,,,,,,345.1405,345.3392,345.3393,345.8394,,,,,,,,,,,,,,1.5406,0,,,,,,,,,,,,,,m,,,,,,,,,,,,,,,,72,0,345.8403,347.3894,z,0,1.5406,,[],[],[],[],[],[],[],347.3894,349.3893,349.3894,349.3897,[],[],[],[],[],[],[],,349.3898,349.3899,0.61843316,-0.047556424,0,0,0,,0,71,71,113,1,4,word,LITERAL,cursive,literal_c.png,,,,,,
,,,,31939,001,2025-11-08_19h16.34.633,HW_LDT_1,2024.2.4,MacIntel,60.24096386,,,,,,,,,,,,,,,,,,,,,349.3917,349.5891,349.5892,350.0893,,,,,,,,,,,,,,0.7837,1,,,,,,,,,,,,,,z,,,,,,,,,,,,,,,,73,0,350.0902,350.889,z,1,0.7837,,[],[],[],[],[],[],[],350.8891,352.8892,352.8893,352.8896,[],[],[],[],[],[],[],,352.8897,352.8897,0.61843316,-0.047556424,0,0,0,,0,72,72,64,1,4,TL,moredate,print,moredate_p.png,,,,,,
,,,,31939,001,2025-11-08_19h16.34.633,HW_LDT_1,2024.2.4,MacIntel,60.24096386,,,,,,,,,,,,,,,,,,,,,352.8914,353.0893,353.0893,353.5893,,,,,,,,,,,,,,0.938,1,,,,,,,,,,,,,,z,,,,,,,,,,,,,,,,74,0,353.5901,354.5386,z,1,0.938,,[],[],[],[],[],[],[],354.5386,356.5393,356.5394,356.5396,[],[],[],[],[],[],[],,356.5396,356.5398,0.61843316,-0.047556424,0,0,0,,0,73,73,35,1,4,RL,probice,cursive,probice_c.png,,,,,,
,,,,31939,001,2025-11-08_19h16.34.633,HW_LDT_1,2024.2.4,MacIntel,60.24096386,,,,,,,,,,,,,,,,,,,,,356.5417,356.7405,356.7405,357.2393,,,,,,,,,,,,,,0.784,1,,,,,,,,,,,,,,m,,,,,,,,,,,,,,,,75,0,357.24,358.0388,m,1,0.784,,[],[],[],[],[],[],[],358.0388,360.0394,360.0394,360.04,[],[],[],[],[],[],[],,360.0401,360.0403,0.61843316,-0.047556424,0,0,0,,0,74,74,110,1,4,word,HERITAGE,print,heritage_p.png,,,,,,
,,,,31939,001,2025-11-08_19h16.34.633,HW_LDT_1,2024.2.4,MacIntel,60.24096386,,,,,,,,,,,,,,,,,,,,,360.0434,360.2393,360.2393,360.7392,,,,,,,,,,,,,,0.9804,1,,,,,,,,,,,,,,z,,,,,,,,,,,,,,,,76,1,360.7399,361.7227,z,1,0.9804,,[],[],[],[],[],[],[],361.7227,363.7227,363.7227,365.6892,[],[],[],[],[],[],[],m,365.6893,365.6893,0.61843316,-0.047556424,0,0,0,,0,75,75,60,1,4,TL,hetirage,print,hetirage_p.png,1.9653,,,,,
,,,,31939,001,2025-11-08_19h16.34.633,HW_LDT_1,2024.2.4,MacIntel,60.24096386,,,,,,,,,,,,,,,,,,,,,365.6906,365.8892,365.8893,366.3893,,,,,,,,,,,,,,0.9574,1,,,,,,,,,,,,,,z,,,,,,,,,,,,,,,,77,0,366.3899,367.356,z,1,0.9574,,[],[],[],[],[],[],[],367.3562,369.3559,369.3559,369.3561,[],[],[],[],[],[],[],,369.3561,369.3563,0.61843316,-0.047556424,0,0,0,,0,76,76,61,1,4,TL,lotace,cursive,lotace_c.png,,,,,,
,,,,31939,001,2025-11-08_19h16.34.633,HW_LDT_1,2024.2.4,MacIntel,60.24096386,,,,,,,,,,,,,,,,,,,,,369.3579,369.5559,369.5559,370.0558,,,,,,,,,,,,,,1.2525,1,,,,,,,,,,,,,,m,,,,,,,,,,,,,,,,78,0,370.0568,371.3225,m,1,1.2525,,[],[],[],[],[],[],[],371.3226,373.3225,373.3226,373.3229,[],[],[],[],[],[],[],,373.3229,373.323,0.61843316,-0.047556424,0,0,0,,0,77,77,145,1,4,word,RESUME,print,resume_p.png,,,,,,
,,,,31939,001,2025-11-08_19h16.34.633,HW_LDT_1,2024.2.4,MacIntel,60.24096386,,,,,,,,,,,,,,,,,,,,,373.3246,373.5226,373.5227,374.0224,,,,,,,,,,,,,,0.7046,1,,,,,,,,,,,,,,m,,,,,,,,,,,,,,,,79,0,374.0232,374.7393,m,1,0.7046,,[],[],[],[],[],[],[],374.7395,376.7392,376.7392,376.7396,[],[],[],[],[],[],[],,376.7397,376.7398,0.61843316,-0.047556424,0,0,0,,0,78,78,156,1,4,word,TRIBUTE,print,tribute_p.png,,,,,,
,,,,31939,001,2025-11-08_19h16.34.633,HW_LDT_1,2024.2.4,MacIntel,60.24096386,,,,,,,,,,,,,,,,,,,,,376.7413,376.9392,376.9393,377.4391,,,,,,,,,,,,,,0.7956,1,,,,,,,,,,,,,,m,,,,,,,,,,,,,,,,80,0,377.4397,378.2392,m,1,0.7956,,[],[],[],[],[],[],[],378.2393,380.2392,380.2392,380.2394,[],[],[],[],[],[],[],,380.2394,383.539,0.61843316,-0.047556424,0,0,0,space,0,79,79,84,1,4,word,BELOVED,print,beloved_p.png,,,3.2792,,,
,,,,31939,001,2025-11-08_19h16.34.633,HW_LDT_1,2024.2.4,MacIntel,60.24096386,,,,,,,,,,,,,,,,,,,,,383.5395,383.7391,383.7392,384.239,,,,,,,,,,,,,,0.7026,1,,,,,,,,,,,,,,z,,,,,,,,,,,,,,,,81,0,384.2395,384.9559,z,1,0.7026,,[],[],[],[],[],[],[],384.9561,386.9557,386.9558,386.956,[],[],[],[],[],[],[],,386.9561,386.9562,0.61843316,-0.047556424,0,0,0,,0,80,80,7,1,4,RL,casena,print,casena_p.png,,,,,,
,,,,31939,001,2025-11-08_19h16.34.633,HW_LDT_1,2024.2.4,MacIntel,60.24096386,,,,,,,,,,,,,,,,,,,,,386.9577,387.1558,387.1559,387.6558,,,,,,,,,,,,,,0.8211,0,,,,,,,,,,,,,,m,,,,,,,,,,,,,,,,82,0,387.6566,388.4892,z,0,0.8211,,[],[],[],[],[],[],[],388.4894,390.4893,390.4893,390.4895,[],[],[],[],[],[],[],,390.4896,390.4898,0.61843316,-0.047556424,0,0,0,,0,81,81,133,1,4,word,PROVIDE,cursive,provide_c.png,,,,,,
,,,,31939,001,2025-11-08_19h16.34.633,HW_LDT_1,2024.2.4,MacIntel,60.24096386,,,,,,,,,,,,,,,,,,,,,390.4913,390.6891,390.6892,391.1891,,,,,,,,,,,,,,1.0901,1,,,,,,,,,,,,,,m,,,,,,,,,,,,,,,,83,0,391.1898,392.2891,m,1,1.0901,,[],[],[],[],[],[],[],392.2892,394.2893,394.2893,394.2895,[],[],[],[],[],[],[],,394.2896,394.2897,0.61843316,-0.047556424,0,0,0,,0,82,82,104,1,4,word,DOMINANT,cursive,dominant_c.png,,,,,,
,,,,31939,001,2025-11-08_19h16.34.633,HW_LDT_1,2024.2.4,MacIntel,60.24096386,,,,,,,,,,,,,,,,,,,,,394.2912,394.489,394.4891,394.9891,,,,,,,,,,,,,,0.7373,1,,,,,,,,,,,,,,m,,,,,,,,,,,,,,,,84,0,394.9898,395.7392,m,1,0.7373,,[],[],[],[],[],[],[],395.7392,397.7392,397.7393,397.7395,[],[],[],[],[],[],[],,397.7395,397.7396,0.61843316,-0.047556424,0,0,0,,0,83,83,107,1,4,word,EVIDENT,print,evident_p.png,,,,,,
,,,,31939,001,2025-11-08_19h16.34.633,HW_LDT_1,2024.2.4,MacIntel,60.24096386,,,,,,,,,,,,,,,,,,,,,397.7411,397.9391,397.9391,398.4391,,,,,,,,,,,,,,1.4387,1,,,,,,,,,,,,,,z,,,,,,,,,,,,,,,,85,0,398.4397,399.8892,z,1,1.4387,,[],[],[],[],[],[],[],399.8893,401.8891,401.8891,401.8894,[],[],[],[],[],[],[],,401.8894,401.8896,0.61843316,-0.047556424,0,0,0,,0,84,84,78,1,4,TL,stragety,print,stragety_p.png,,,,,,
,,,,31939,001,2025-11-08_19h16.34.633,HW_LDT_1,2024.2.4,MacIntel,60.24096386,,,,,,,,,,,,,,,,,,,,,401.891,402.0892,402.0892,402.5891,,,,,,,,,,,,,,0.8032,1,,,,,,,,,,,,,,z,,,,,,,,,,,,,,,,86,0,402.5897,403.4059,z,1,0.8032,,[],[],[],[],[],[],[],403.406,405.4054,405.4056,405.4058,[],[],[],[],[],[],[],,405.4058,405.4059,0.61843316,-0.047556424,0,0,0,,0,85,85,41,1,4,RL,rebicent,cursive,rebicent_c.png,,,,,,
,,,,31939,001,2025-11-08_19h16.34.633,HW_LDT_1,2024.2.4,MacIntel,60.24096386,,,,,,,,,,,,,,,,,,,,,405.407,405.6058,405.6059,406.1053,,,,,,,,,,,,,,0.9106,1,,,,,,,,,,,,,,z,,,,,,,,,,,,,,,,87,0,406.1055,407.022,z,1,0.9106,,[],[],[],[],[],[],[],407.0221,409.0227,409.0228,409.0232,[],[],[],[],[],[],[],,409.0234,409.0235,0.61843316,-0.047556424,0,0,0,,0,86,86,31,1,4,RL,orimipal,print,orimipal_p.png,,,,,,
,,,,31939,001,2025-11-08_19h16.34.633,HW_LDT_1,2024.2.4,MacIntel,60.24096386,,,,,,,,,,,,,,,,,,,,,409.0257,409.2226,409.2228,409.7223,,,,,,,,,,,,,,1.0597,1,,,,,,,,,,,,,,m,,,,,,,,,,,,,,,,88,0,409.7226,410.789,m,1,1.0597,,[],[],[],[],[],[],[],410.7891,412.7892,412.7893,412.7895,[],[],[],[],[],[],[],,412.7896,412.7897,0.61843316,-0.047556424,0,0,0,,0,87,87,118,1,4,word,MEDICINE,cursive,medicine_c.png,,,,,,
,,,,31939,001,2025-11-08_19h16.34.633,HW_LDT_1,2024.2.4,MacIntel,60.24096386,,,,,,,,,,,,,,,,,,,,,412.7912,412.9891,412.9892,413.4891,,,,,,,,,,,,,,1.7317,1,,,,,,,,,,,,,,z,,,,,,,,,,,,,,,,89,0,413.4901,415.2227,z,1,1.7317,,[],[],[],[],[],[],[],415.2228,417.2225,417.2225,417.2228,[],[],[],[],[],[],[],,417.2229,417.223,0.61843316,-0.047556424,0,0,0,,0,88,88,14,1,4,RL,delahe,cursive,delahe_c.png,,,,,,
,,,,31939,001,2025-11-08_19h16.34.633,HW_LDT_1,2024.2.4,MacIntel,60.24096386,,,,,,,,,,,,,,,,,,,,,417.2246,417.4223,417.4224,417.9225,,,,,,,,,,,,,,0.7716,1,,,,,,,,,,,,,,z,,,,,,,,,,,,,,,,90,0,417.9234,418.7058,z,1,0.7716,,[],[],[],[],[],[],[],418.7059,420.7058,420.7059,420.7061,[],[],[],[],[],[],[],,420.7062,420.7063,0.61843316,-0.047556424,0,0,0,,0,89,89,17,1,4,RL,denficy,cursive,denficy_c.png,,,,,,
,,,,31939,001,2025-11-08_19h16.34.633,HW_LDT_1,2024.2.4,MacIntel,60.24096386,,,,,,,,,,,,,,,,,,,,,420.7079,420.9058,420.9059,421.4057,,,,,,,,,,,,,,0.9244,1,,,,,,,,,,,,,,m,,,,,,,,,,,,,,,,91,0,421.4064,422.339,m,1,0.9244,,[],[],[],[],[],[],[],422.3391,424.339,424.3392,424.3395,[],[],[],[],[],[],[],,424.3395,424.3396,0.61843316,-0.047556424,0,0,0,,0,90,90,83,1,4,word,ANIMAL,cursive,animal_c.png,,,,,,
,,,,31939,001,2025-11-08_19h16.34.633,HW_LDT_1,2024.2.4,MacIntel,60.24096386,,,,,,,,,,,,,,,,,,,,,424.3413,424.5391,424.5391,425.0391,,,,,,,,,,,,,,1.1364,1,,,,,,,,,,,,,,z,,,,,,,,,,,,,,,,92,0,425.0398,426.1892,z,1,1.1364,,[],[],[],[],[],[],[],426.1893,428.1889,428.189,428.1891,[],[],[],[],[],[],[],,428.1891,428.1892,0.61843316,-0.047556424,0,0,0,,0,91,91,26,1,4,RL,mesibine,cursive,mesibine_c.png,,,,,,
,,,,31939,001,2025-11-08_19h16.34.633,HW_LDT_1,2024.2.4,MacIntel,60.24096386,,,,,,,,,,,,,,,,,,,,,428.1903,428.3891,428.3892,428.889,,,,,,,,,,,,,,0.6698,1,,,,,,,,,,,,,,m,,,,,,,,,,,,,,,,93,0,428.8897,429.5725,m,1,0.6698,,[],[],[],[],[],[],[],429.5727,431.5724,431.5725,431.5726,[],[],[],[],[],[],[],,431.5728,431.5728,0.61843316,-0.047556424,0,0,0,,0,92,92,115,1,4,word,LOGICAL,print,logical_p.png,,,,,,
,,,,31939,001,2025-11-08_19h16.34.633,HW_LDT_1,2024.2.4,MacIntel,60.24096386,,,,,,,,,,,,,,,,,,,,,431.5744,431.7723,431.7724,432.2725,,,,,,,,,,,,,,0.6028,1,,,,,,,,,,,,,,z,,,,,,,,,,,,,,,,94,0,432.2732,432.8891,z,1,0.6028,,[],[],[],[],[],[],[],432.8892,434.8889,434.8889,434.8892,[],[],[],[],[],[],[],,434.8892,434.8893,0.61843316,-0.047556424,0,0,0,,0,93,93,38,1,4,RL,refakive,print,refakive_p.png,,,,,,
,,,,31939,001,2025-11-08_19h16.34.633,HW_LDT_1,2024.2.4,MacIntel,60.24096386,,,,,,,,,,,,,,,,,,,,,434.8907,435.0887,435.0887,435.5889,,,,,,,,,,,,,,0.6037,1,,,,,,,,,,,,,,m,,,,,,,,,,,,,,,,95,0,435.5897,436.2057,m,1,0.6037,,[],[],[],[],[],[],[],436.2058,438.2057,438.2058,438.206,[],[],[],[],[],[],[],,438.2061,438.2061,0.61843316,-0.047556424,0,0,0,,0,94,94,140,1,4,word,RELATIVE,print,relative_p.png,,,,,,
,,,,31939,001,2025-11-08_19h16.34.633,HW_LDT_1,2024.2.4,MacIntel,60.24096386,,,,,,,,,,,,,,,,,,,,,438.2077,438.4057,438.4058,438.9057,,,,,,,,,,,,,,0.9197,1,,,,,,,,,,,,,,m,,,,,,,,,,,,,,,,96,0,438.9064,439.8387,m,1,0.9197,,[],[],[],[],[],[],[],439.8388,441.839,441.8391,441.8392,[],[],[],[],[],[],[],,441.8393,441.8394,0.61843316,-0.047556424,0,0,0,,0,95,95,86,1,4,word,BESIDE,print,beside_p.png,,,,,,
,,,,31939,001,2025-11-08_19h16.34.633,HW_LDT_1,2024.2.4,MacIntel,60.24096386,,,,,,,,,,,,,,,,,,,,,441.8411,442.0436,442.0436,442.539,,,,,,,,,,,,,,0.6056,1,,,,,,,,,,,,,,z,,,,,,,,,,,,,,,,97,0,442.5397,443.1557,z,1,0.6056,,[],[],[],[],[],[],[],443.1558,445.1556,445.1556,445.1559,[],[],[],[],[],[],[],,445.156,445.1562,0.61843316,-0.047556424,0,0,0,,0,96,96,21,1,4,RL,insibate,print,insibate_p.png,,,,,,
,,,,31939,001,2025-11-08_19h16.34.633,HW_LDT_1,2024.2.4,MacIntel,60.24096386,,,,,,,,,,,,,,,,,,,,,445.1579,445.3556,445.3557,445.8557,,,,,,,,,,,,,,0.5699,1,,,,,,,,,,,,,,m,,,,,,,,,,,,,,,,98,1,445.8564,446.439,m,1,0.5699,,[],[],[],[],[],[],[],446.4391,448.4389,448.439,449.3387,[],[],[],[],[],[],[],m,449.3388,449.3388,0.61843316,-0.047556424,0,0,0,,0,97,97,80,1,4,word,ACADEMY,print,academy_p.png,0.8875,,,,,
,,,,31939,001,2025-11-08_19h16.34.633,HW_LDT_1,2024.2.4,MacIntel,60.24096386,,,,,,,,,,,,,,,,,,,,,449.3402,449.5389,449.539,450.0389,,,,,,,,,,,,,,0.754,1,,,,,,,,,,,,,,m,,,,,,,,,,,,,,,,99,0,450.0397,450.8052,m,1,0.754,,[],[],[],[],[],[],[],450.8052,452.8052,452.8052,452.8052,[],[],[],[],[],[],[],,452.8053,452.8053,0.61843316,-0.047556424,0,0,0,,0,98,98,127,1,4,word,ORIGINAL,print,original_p.png,,,,,,
,,,,31939,001,2025-11-08_19h16.34.633,HW_LDT_1,2024.2.4,MacIntel,60.24096386,,,,,,,,,,,,,,,,,,,,,452.8057,453.0052,453.0053,453.5056,,,,,,,,,,,,,,1.0971,1,,,,,,,,,,,,,,z,,,,,,,,,,,,,,,,100,0,453.5064,454.6047,z,1,1.0971,,[],[],[],[],[],[],[],454.6048,456.6055,456.6056,456.6059,[],[],[],[],[],[],[],,456.6059,456.6061,0.61843316,-0.047556424,0,0,0,,0,99,99,71,1,4,TL,racidal,print,racidal_p.png,,,,,,
,,,,31939,001,2025-11-08_19h16.34.633,HW_LDT_1,2024.2.4,MacIntel,60.24096386,,,,,,,,,,,,,,,,,,,,,456.6077,456.8055,456.8056,457.3057,,,,,,,,,,,,,,0.6525,1,,,,,,,,,,,,,,z,,,,,,,,,,,,,,,,101,0,457.3064,457.9723,z,1,0.6525,,[],[],[],[],[],[],[],457.9726,459.9723,459.9724,459.9726,[],[],[],[],[],[],[],,459.9727,459.9728,0.61843316,-0.047556424,0,0,0,,0,100,100,74,1,4,TL,rerite,print,rerite_p.png,,,,,,
,,,,31939,001,2025-11-08_19h16.34.633,HW_LDT_1,2024.2.4,MacIntel,60.24096386,,,,,,,,,,,,,,,,,,,,,459.9742,460.1723,460.1724,460.6712,,,,,,,,,,,,,,0.7301,1,,,,,,,,,,,,,,z,,,,,,,,,,,,,,,,102,1,460.6718,461.4053,z,1,0.7301,,[],[],[],[],[],[],[],461.4054,463.4056,463.4056,464.4556,[],[],[],[],[],[],[],m,464.4557,464.4558,0.61843316,-0.047556424,0,0,0,,0,101,101,65,1,4,TL,orepator,print,orepator_p.png,1.0413,,,,,
,,,,31939,001,2025-11-08_19h16.34.633,HW_LDT_1,2024.2.4,MacIntel,60.24096386,,,,,,,,,,,,,,,,,,,,,464.4572,464.6556,464.6556,465.1554,,,,,,,,,,,,,,1.2809,0,,,,,,,,,,,,,,m,,,,,,,,,,,,,,,,103,0,465.1561,466.4385,z,0,1.2809,,[],[],[],[],[],[],[],466.4386,468.439,468.4391,468.4395,[],[],[],[],[],[],[],,468.4396,468.4397,0.61843316,-0.047556424,0,0,0,,0,102,102,87,1,4,word,CAFETERIA,cursive,cafeteria_c.png,,,,,,
,,,,31939,001,2025-11-08_19h16.34.633,HW_LDT_1,2024.2.4,MacIntel,60.24096386,,,,,,,,,,,,,,,,,,,,,468.4421,468.639,468.639,469.1389,,,,,,,,,,,,,,1.0197,1,,,,,,,,,,,,,,m,,,,,,,,,,,,,,,,104,0,469.1397,470.1723,m,1,1.0197,,[],[],[],[],[],[],[],470.1724,472.172,472.172,472.1722,[],[],[],[],[],[],[],,472.1722,472.1724,0.61843316,-0.047556424,0,0,0,,0,103,103,96,1,4,word,CONSIDER,cursive,consider_c.png,,,,,,
,,,,31939,001,2025-11-08_19h16.34.633,HW_LDT_1,2024.2.4,MacIntel,60.24096386,,,,,,,,,,,,,,,,,,,,,472.1736,472.3724,472.3724,472.8723,,,,,,,,,,,,,,0.938,1,,,,,,,,,,,,,,m,,,,,,,,,,,,,,,,105,1,472.8729,473.8223,m,1,0.938,,[],[],[],[],[],[],[],473.8224,475.822,475.8221,476.8386,[],[],[],[],[],[],[],z,476.8388,476.8389,0.61843316,-0.047556424,0,0,0,,0,104,104,116,1,4,word,MARGINAL,cursive,marginal_c.png,1.0039,,,,,
,,,,31939,001,2025-11-08_19h16.34.633,HW_LDT_1,2024.2.4,MacIntel,60.24096386,,,,,,,,,,,,,,,,,,,,,476.8401,477.0388,477.0388,477.5389,,,,,,,,,,,,,,1.6134,1,,,,,,,,,,,,,,z,,,,,,,,,,,,,,,,106,0,477.5396,479.1555,z,1,1.6134,,[],[],[],[],[],[],[],479.1556,481.1549,481.1549,481.155,[],[],[],[],[],[],[],,481.155,481.1551,0.61843316,-0.047556424,0,0,0,,0,105,105,9,1,4,RL,cafigal,print,cafigal_p.png,,,,,,
,,,,31939,001,2025-11-08_19h16.34.633,HW_LDT_1,2024.2.4,MacIntel,60.24096386,,,,,,,,,,,,,,,,,,,,,481.1558,481.3556,481.3556,481.8589,,,,,,,,,,,,,,0.6646,1,,,,,,,,,,,,,,m,,,,,,,,,,,,,,,,107,0,481.8613,482.5388,m,1,0.6646,,[],[],[],[],[],[],[],482.5388,484.539,484.539,484.5395,[],[],[],[],[],[],[],,484.5396,484.5397,0.61843316,-0.047556424,0,0,0,,0,106,106,94,1,4,word,CLINICAL,print,clinical_p.png,,,,,,
,,,,31939,001,2025-11-08_19h16.34.633,HW_LDT_1,2024.2.4,MacIntel,60.24096386,,,,,,,,,,,,,,,,,,,,,484.542,484.7391,484.7391,485.2389,,,,,,,,,,,,,,0.6973,1,,,,,,,,,,,,,,m,,,,,,,,,,,,,,,,108,0,485.2398,485.9381,m,1,0.6973,,[],[],[],[],[],[],[],485.9382,487.9389,487.939,487.9392,[],[],[],[],[],[],[],,487.9392,487.9394,0.61843316,-0.047556424,0,0,0,,0,107,107,157,1,4,word,VALIDITY,print,validity_p.png,,,,,,
,,,,31939,001,2025-11-08_19h16.34.633,HW_LDT_1,2024.2.4,MacIntel,60.24096386,,,,,,,,,,,,,,,,,,,,,487.9411,488.1388,488.1388,488.6389,,,,,,,,,,,,,,0.7144,1,,,,,,,,,,,,,,m,,,,,,,,,,,,,,,,109,0,488.6398,489.3554,m,1,0.7144,,[],[],[],[],[],[],[],489.3556,491.3555,491.3556,491.3558,[],[],[],[],[],[],[],,491.3558,491.356,0.61843316,-0.047556424,0,0,0,,0,108,108,117,1,4,word,MARINE,print,marine_p.png,,,,,,
,,,,31939,001,2025-11-08_19h16.34.633,HW_LDT_1,2024.2.4,MacIntel,60.24096386,,,,,,,,,,,,,,,,,,,,,491.3575,491.5554,491.5554,492.0557,,,,,,,,,,,,,,0.8293,1,,,,,,,,,,,,,,m,,,,,,,,,,,,,,,,110,0,492.0567,492.8888,m,1,0.8293,,[],[],[],[],[],[],[],492.8888,494.8888,494.8888,494.8889,[],[],[],[],[],[],[],,494.889,494.8891,0.61843316,-0.047556424,0,0,0,,0,109,109,150,1,4,word,SENTIMENT,print,sentiment_p.png,,,,,,
,,,,31939,001,2025-11-08_19h16.34.633,HW_LDT_1,2024.2.4,MacIntel,60.24096386,,,,,,,,,,,,,,,,,,,,,494.8906,495.0885,495.0885,495.5887,,,,,,,,,,,,,,0.7359,1,,,,,,,,,,,,,,z,,,,,,,,,,,,,,,,111,0,495.5897,496.3386,z,1,0.7359,,[],[],[],[],[],[],[],496.3387,498.3387,498.3387,498.339,[],[],[],[],[],[],[],,498.339,498.339,0.61843316,-0.047556424,0,0,0,,0,110,110,62,1,4,TL,locigal,print,locigal_p.png,,,,,,
,,,,31939,001,2025-11-08_19h16.34.633,HW_LDT_1,2024.2.4,MacIntel,60.24096386,,,,,,,,,,,,,,,,,,,,,498.3402,498.5389,498.539,499.0387,,,,,,,,,,,,,,0.7064,1,,,,,,,,,,,,,,m,,,,,,,,,,,,,,,,112,1,499.0397,499.7554,m,1,0.7064,,[],[],[],[],[],[],[],499.7555,501.7555,501.7556,503.3056,[],[],[],[],[],[],[],z,503.3057,503.3059,0.61843316,-0.047556424,0,0,0,,0,111,111,82,1,4,word,AMATEUR,cursive,amateur_c.png,1.5374,,,,,
,,,,31939,001,2025-11-08_19h16.34.633,HW_LDT_1,2024.2.4,MacIntel,60.24096386,,,,,,,,,,,,,,,,,,,,,503.3075,503.5054,503.5055,504.0054,,,,,,,,,,,,,,0.7069,1,,,,,,,,,,,,,,m,,,,,,,,,,,,,,,,113,1,504.0062,504.7213,m,1,0.7069,,[],[],[],[],[],[],[],504.7215,506.7217,506.7217,508.3221,[],[],[],[],[],[],[],m,508.3222,508.3222,0.61843316,-0.047556424,0,0,0,,0,112,112,95,1,4,word,COMEDY,print,comedy_p.png,1.5882,,,,,
,,,,31939,001,2025-11-08_19h16.34.633,HW_LDT_1,2024.2.4,MacIntel,60.24096386,,,,,,,,,,,,,,,,,,,,,508.3236,508.5218,508.5219,509.0221,,,,,,,,,,,,,,1.1701,1,,,,,,,,,,,,,,m,,,,,,,,,,,,,,,,114,0,509.0228,510.2054,m,1,1.1701,,[],[],[],[],[],[],[],510.2055,512.2055,512.2055,512.2057,[],[],[],[],[],[],[],,512.2057,512.2059,0.61843316,-0.047556424,0,0,0,,0,113,113,130,1,4,word,POLICY,cursive,policy_c.png,,,,,,
,,,,31939,001,2025-11-08_19h16.34.633,HW_LDT_1,2024.2.4,MacIntel,60.24096386,,,,,,,,,,,,,,,,,,,,,512.2074,512.4054,512.4055,512.9054,,,,,,,,,,,,,,0.9317,1,,,,,,,,,,,,,,m,,,,,,,,,,,,,,,,115,0,512.9061,513.8387,m,1,0.9317,,[],[],[],[],[],[],[],513.8388,515.8384,515.8384,515.8385,[],[],[],[],[],[],[],,515.8385,515.8385,0.61843316,-0.047556424,0,0,0,,0,114,114,159,1,4,word,VETERAN,cursive,veteran_c.png,,,,,,
,,,,31939,001,2025-11-08_19h16.34.633,HW_LDT_1,2024.2.4,MacIntel,60.24096386,,,,,,,,,,,,,,,,,,,,,515.8389,516.0386,516.0387,516.5388,,,,,,,,,,,,,,0.7363,1,,,,,,,,,,,,,,z,,,,,,,,,,,,,,,,116,1,516.5395,517.2887,z,1,0.7363,,[],[],[],[],[],[],[],517.2888,519.2883,519.2883,520.2722,[],[],[],[],[],[],[],z,520.2723,520.2724,0.61843316,-0.047556424,0,0,0,,0,115,115,6,1,4,RL,caleberia,cursive,caleberia_c.png,0.9728,,,,,
,,,,31939,001,2025-11-08_19h16.34.633,HW_LDT_1,2024.2.4,MacIntel,60.24096386,,,,,,,,,,,,,,,,,,,,,520.2743,520.4721,520.4722,520.9723,,,,,,,,,,,,,,0.8526,1,,,,,,,,,,,,,,z,,,,,,,,,,,,,,,,117,0,520.973,521.8388,z,1,0.8526,,[],[],[],[],[],[],[],521.8389,523.8387,523.8387,523.839,[],[],[],[],[],[],[],,523.839,523.8392,0.61843316,-0.047556424,0,0,0,,0,116,116,15,1,4,RL,debave,cursive,debave_c.png,,,,,,
,,,,31939,001,2025-11-08_19h16.34.633,HW_LDT_1,2024.2.4,MacIntel,60.24096386,,,,,,,,,,,,,,,,,,,,,523.841,524.0387,524.0388,524.5387,,,,,,,,,,,,,,0.6695,1,,,,,,,,,,,,,,z,,,,,,,,,,,,,,,,118,0,524.5395,525.2219,z,1,0.6695,,[],[],[],[],[],[],[],525.2221,527.2224,527.2224,527.2231,[],[],[],[],[],[],[],,527.2231,527.2233,0.61843316,-0.047556424,0,0,0,,0,117,117,46,1,4,RL,skofen,cursive,skofen_c.png,,,,,,
,,,,31939,001,2025-11-08_19h16.34.633,HW_LDT_1,2024.2.4,MacIntel,60.24096386,,,,,,,,,,,,,,,,,,,,,527.2262,527.4221,527.4222,527.9215,,,,,,,,,,,,,,0.8521,1,,,,,,,,,,,,,,m,,,,,,,,,,,,,,,,119,0,527.922,528.7886,m,1,0.8521,,[],[],[],[],[],[],[],528.7886,530.7883,530.7884,530.7885,[],[],[],[],[],[],[],,530.7885,530.7885,0.61843316,-0.047556424,0,0,0,,0,118,118,121,1,4,word,MISTAKE,print,mistake_p.png,,,,,,
,,,,31939,001,2025-11-08_19h16.34.633,HW_LDT_1,2024.2.4,MacIntel,60.24096386,,,,,,,,,,,,,,,,,,,,,530.7893,530.9887,530.9888,531.4876,,,,,,,,,,,,,,0.9041,0,,,,,,,,,,,,,,m,,,,,,,,,,,,,,,,120,0,531.4882,532.4055,z,0,0.9041,,[],[],[],[],[],[],[],532.4056,534.4054,534.4055,534.4057,[],[],[],[],[],[],[],,534.4058,534.406,0.61843316,-0.047556424,0,0,0,,0,119,119,97,1,4,word,COVERAGE,cursive,coverage_c.png,,,,,,
,,,,31939,001,2025-11-08_19h16.34.633,HW_LDT_1,2024.2.4,MacIntel,60.24096386,,,,,,,,,,,,,,,,,,,,,534.4074,534.6054,534.6054,535.1053,,,,,,,,,,,,,,1.1198,1,,,,,,,,,,,,,,z,,,,,,,,,,,,,,,,121,1,535.106,536.2388,z,1,1.1198,,[],[],[],[],[],[],[],536.2388,538.2387,538.2388,539.2887,[],[],[],[],[],[],[],z,539.2888,539.289,0.61843316,-0.047556424,0,0,0,,0,120,120,39,1,4,RL,relone,cursive,relone_c.png,1.0376,,,,,
,,,,31939,001,2025-11-08_19h16.34.633,HW_LDT_1,2024.2.4,MacIntel,60.24096386,,,,,,,,,,,,,,,,,,,,,539.2919,539.4885,539.4885,539.9887,,,,,,,,,,,,,,1.4197,0,,,,,,,,,,,,,,m,,,,,,,,,,,,,,,,122,0,539.9894,541.4222,z,0,1.4197,,[],[],[],[],[],[],[],541.4223,543.4219,543.422,543.4222,[],[],[],[],[],[],[],,543.4223,543.4224,0.61843316,-0.047556424,0,0,0,,0,121,121,108,1,4,word,FORTUNE,cursive,fortune_c.png,,,,,,
,,,,31939,001,2025-11-08_19h16.34.633,HW_LDT_1,2024.2.4,MacIntel,60.24096386,,,,,,,,,,,,,,,,,,,,,543.4237,543.622,543.622,544.1219,,,,,,,,,,,,,,0.8788,1,,,,,,,,,,,,,,z,,,,,,,,,,,,,,,,123,0,544.1228,545.0051,z,1,0.8788,,[],[],[],[],[],[],[],545.0051,547.0052,547.0053,547.0055,[],[],[],[],[],[],[],,547.0056,547.0057,0.61843316,-0.047556424,0,0,0,,0,122,122,13,1,4,RL,crisival,cursive,crisival_c.png,,,,,,
,,,,31939,001,2025-11-08_19h16.34.633,HW_LDT_1,2024.2.4,MacIntel,60.24096386,,,,,,,,,,,,,,,,,,,,,547.0074,547.2054,547.2054,547.7054,,,,,,,,,,,,,,0.9805,0,,,,,,,,,,,,,,m,,,,,,,,,,,,,,,,124,1,547.7061,548.6886,z,0,0.9805,,[],[],[],[],[],[],[],548.6887,550.6887,550.6888,551.3721,[],[],[],[],[],[],[],z,551.3722,551.3724,0.61843316,-0.047556424,0,0,0,,0,123,123,99,1,4,word,DEBATE,cursive,debate_c.png,0.6706,,,,,
,,,,31939,001,2025-11-08_19h16.34.633,HW_LDT_1,2024.2.4,MacIntel,60.24096386,,,,,,,,,,,,,,,,,,,,,551.374,551.5719,551.572,552.0718,,,,,,,,,,,,,,1.2199,0,,,,,,,,,,,,,,m,,,,,,,,,,,,,,,,125,0,552.0727,553.3054,z,0,1.2199,,[],[],[],[],[],[],[],553.3055,555.3054,555.3054,555.3057,[],[],[],[],[],[],[],,555.3057,555.3058,0.61843316,-0.047556424,0,0,0,,0,124,124,151,1,4,word,SPECIFIC,cursive,specific_c.png,,,,,,
,,,,31939,001,2025-11-08_19h16.34.633,HW_LDT_1,2024.2.4,MacIntel,60.24096386,,,,,,,,,,,,,,,,,,,,,555.3076,555.5052,555.5054,556.005,,,,,,,,,,,,,,0.9571,1,,,,,,,,,,,,,,z,,,,,,,,,,,,,,,,126,0,556.0057,556.9719,z,1,0.9571,,[],[],[],[],[],[],[],556.9721,558.9719,558.9719,558.9722,[],[],[],[],[],[],[],,558.9722,558.9723,0.61843316,-0.047556424,0,0,0,,0,125,125,56,1,4,TL,donimant,cursive,donimant_c.png,,,,,,
,,,,31939,001,2025-11-08_19h16.34.633,HW_LDT_1,2024.2.4,MacIntel,60.24096386,,,,,,,,,,,,,,,,,,,,,558.974,559.1719,559.1719,559.6719,,,,,,,,,,,,,,1.27,0,,,,,,,,,,,,,,m,,,,,,,,,,,,,,,,127,0,559.6726,560.9552,z,0,1.27,,[],[],[],[],[],[],[],560.9553,562.9553,562.9553,562.9556,[],[],[],[],[],[],[],,562.9557,562.9559,0.61843316,-0.047556424,0,0,0,,0,126,126,128,1,4,word,PACIFIC,cursive,pacific_c.png,,,,,,
,,,,31939,001,2025-11-08_19h16.34.633,HW_LDT_1,2024.2.4,MacIntel,60.24096386,,,,,,,,,,,,,,,,,,,,,562.9574,563.1553,563.1554,563.6553,,,,,,,,,,,,,,1.0364,1,,,,,,,,,,,,,,m,,,,,,,,,,,,,,,,128,1,563.656,564.7053,m,1,1.0364,,[],[],[],[],[],[],[],564.7054,566.7042,566.7042,567.5886,[],[],[],[],[],[],[],z,567.5886,567.5887,0.61843316,-0.047556424,0,0,0,,0,127,127,124,1,4,word,NUMERICAL,cursive,numerical_c.png,0.8703,,,,,
,,,,31939,001,2025-11-08_19h16.34.633,HW_LDT_1,2024.2.4,MacIntel,60.24096386,,,,,,,,,,,,,,,,,,,,,567.5901,567.7875,567.7875,568.2875,,,,,,,,,,,,,,1.1649,1,,,,,,,,,,,,,,m,,,,,,,,,,,,,,,,129,0,568.2881,569.4551,m,1,1.1649,,[],[],[],[],[],[],[],569.4552,571.4552,571.4553,571.4556,[],[],[],[],[],[],[],,571.4556,571.4558,0.61843316,-0.047556424,0,0,0,,0,128,128,143,1,4,word,REMOVAL,print,removal_p.png,,,,,,
,,,,31939,001,2025-11-08_19h16.34.633,HW_LDT_1,2024.2.4,MacIntel,60.24096386,,,,,,,,,,,,,,,,,,,,,571.4572,571.655,571.6551,572.1553,,,,,,,,,,,,,,1.7569,0,,,,,,,,,,,,,,m,,,,,,,,,,,,,,,,130,0,572.1559,573.9208,z,0,1.7569,,[],[],[],[],[],[],[],573.9208,575.9209,575.921,575.9212,[],[],[],[],[],[],[],,575.9212,575.9213,0.61843316,-0.047556424,0,0,0,,0,129,129,89,1,4,word,CAPACITY,cursive,capacity_c.png,,,,,,
,,,,31939,001,2025-11-08_19h16.34.633,HW_LDT_1,2024.2.4,MacIntel,60.24096386,,,,,,,,,,,,,,,,,,,,,575.9229,576.1218,576.1219,576.6219,,,,,,,,,,,,,,0.6643,0,,,,,,,,,,,,,,z,,,,,,,,,,,,,,,,131,0,576.6226,577.2886,m,0,0.6643,,[],[],[],[],[],[],[],577.2888,579.2885,579.2887,579.2888,[],[],[],[],[],[],[],,579.2889,579.289,0.61843316,-0.047556424,0,0,0,,0,130,130,66,1,4,TL,opmital,print,opmital_p.png,,,,,,
,,,,31939,001,2025-11-08_19h16.34.633,HW_LDT_1,2024.2.4,MacIntel,60.24096386,,,,,,,,,,,,,,,,,,,,,579.2905,579.4874,579.4875,579.9885,,,,,,,,,,,,,,1.5532,1,,,,,,,,,,,,,,z,,,,,,,,,,,,,,,,132,0,579.9892,581.5541,z,1,1.5532,,[],[],[],[],[],[],[],581.5542,583.5552,583.5552,583.5554,[],[],[],[],[],[],[],,583.5555,583.5556,0.61843316,-0.047556424,0,0,0,,0,131,131,68,1,4,TL,prosopal,print,prosopal_p.png,,,,,,
,,,,31939,001,2025-11-08_19h16.34.633,HW_LDT_1,2024.2.4,MacIntel,60.24096386,,,,,,,,,,,,,,,,,,,,,583.5572,583.7553,583.7553,584.2553,,,,,,,,,,,,,,0.7709,0,,,,,,,,,,,,,,m,,,,,,,,,,,,,,,,133,0,584.2561,585.0383,z,0,0.7709,,[],[],[],[],[],[],[],585.0384,587.0385,587.0386,587.039,[],[],[],[],[],[],[],,587.039,587.0392,0.61843316,-0.047556424,0,0,0,,0,132,132,114,1,4,word,LOCATE,cursive,locate_c.png,,,,,,
,,,,31939,001,2025-11-08_19h16.34.633,HW_LDT_1,2024.2.4,MacIntel,60.24096386,,,,,,,,,,,,,,,,,,,,,587.0414,587.2376,587.2377,587.7383,,,,,,,,,,,,,,0.7868,1,,,,,,,,,,,,,,z,,,,,,,,,,,,,,,,134,0,587.7401,588.5385,z,1,0.7868,,[],[],[],[],[],[],[],588.5385,590.5385,590.5386,590.539,[],[],[],[],[],[],[],,590.5392,590.5392,0.61843316,-0.047556424,0,0,0,,0,133,133,75,1,4,TL,sanile,print,sanile_p.png,,,,,,
,,,,31939,001,2025-11-08_19h16.34.633,HW_LDT_1,2024.2.4,MacIntel,60.24096386,,,,,,,,,,,,,,,,,,,,,590.541,590.7386,590.7387,591.2383,,,,,,,,,,,,,,1.2868,1,,,,,,,,,,,,,,m,,,,,,,,,,,,,,,,135,0,591.2389,592.5385,m,1,1.2868,,[],[],[],[],[],[],[],592.5386,594.5386,594.5386,594.5389,[],[],[],[],[],[],[],,594.539,594.5391,0.61843316,-0.047556424,0,0,0,,0,134,134,93,1,4,word,CEREMONY,print,ceremony_p.png,,,,,,
,,,,31939,001,2025-11-08_19h16.34.633,HW_LDT_1,2024.2.4,MacIntel,60.24096386,,,,,,,,,,,,,,,,,,,,,594.5406,594.7386,594.7386,595.2385,,,,,,,,,,,,,,0.9551,1,,,,,,,,,,,,,,m,,,,,,,,,,,,,,,,136,1,595.2393,596.2052,m,1,0.9551,,[],[],[],[],[],[],[],596.2054,598.2054,598.2055,598.8887,[],[],[],[],[],[],[],m,598.8887,598.8888,0.61843316,-0.047556424,0,0,0,,0,135,135,147,1,4,word,ROMANTIC,print,romantic_p.png,0.6727,,,,,
,,,,31939,001,2025-11-08_19h16.34.633,HW_LDT_1,2024.2.4,MacIntel,60.24096386,,,,,,,,,,,,,,,,,,,,,598.8902,599.0885,599.0886,599.5885,,,,,,,,,,,,,,1.0406,1,,,,,,,,,,,,,,z,,,,,,,,,,,,,,,,137,0,599.5893,600.6385,z,1,1.0406,,[],[],[],[],[],[],[],600.6385,602.6385,602.6385,602.6389,[],[],[],[],[],[],[],,602.6389,602.6391,0.61843316,-0.047556424,0,0,0,,0,136,136,33,1,4,RL,pamest,cursive,pamest_c.png,,,,,,
,,,,31939,001,2025-11-08_19h16.34.633,HW_LDT_1,2024.2.4,MacIntel,60.24096386,,,,,,,,,,,,,,,,,,,,,602.6408,602.8385,602.8386,603.3385,,,,,,,,,,,,,,0.8221,1,,,,,,,,,,,,,,z,,,,,,,,,,,,,,,,138,0,603.3393,604.172,z,1,0.8221,,[],[],[],[],[],[],[],604.172,606.1718,606.1718,606.172,[],[],[],[],[],[],[],,606.172,606.1722,0.61843316,-0.047556424,0,0,0,,0,137,137,24,1,4,RL,marmipal,cursive,marmipal_c.png,,,,,,
,,,,31939,001,2025-11-08_19h16.34.633,HW_LDT_1,2024.2.4,MacIntel,60.24096386,,,,,,,,,,,,,,,,,,,,,606.1734,606.3717,606.3718,606.8717,,,,,,,,,,,,,,0.5534,1,,,,,,,,,,,,,,z,,,,,,,,,,,,,,,,139,0,606.8724,607.4386,z,1,0.5534,,[],[],[],[],[],[],[],607.4387,609.4385,609.4386,609.4389,[],[],[],[],[],[],[],,609.4389,609.4391,0.61843316,-0.047556424,0,0,0,,0,138,138,42,1,4,RL,revune,print,revune_p.png,,,,,,
,,,,31939,001,2025-11-08_19h16.34.633,HW_LDT_1,2024.2.4,MacIntel,60.24096386,,,,,,,,,,,,,,,,,,,,,609.4407,609.6385,609.6385,610.1385,,,,,,,,,,,,,,0.7023,1,,,,,,,,,,,,,,z,,,,,,,,,,,,,,,,140,0,610.1394,610.8552,z,1,0.7023,,[],[],[],[],[],[],[],610.8554,612.8552,612.8552,612.8555,[],[],[],[],[],[],[],,612.8556,612.8557,0.61843316,-0.047556424,0,0,0,,0,139,139,40,1,4,RL,reconal,print,reconal_p.png,,,,,,
,,,,31939,001,2025-11-08_19h16.34.633,HW_LDT_1,2024.2.4,MacIntel,60.24096386,,,,,,,,,,,,,,,,,,,,,612.8572,613.0552,613.0552,613.5551,,,,,,,,,,,,,,0.7697,1,,,,,,,,,,,,,,z,,,,,,,,,,,,,,,,141,0,613.556,614.3385,z,1,0.7697,,[],[],[],[],[],[],[],614.3386,616.3385,616.3385,616.3388,[],[],[],[],[],[],[],,616.3389,616.339,0.61843316,-0.047556424,0,0,0,,0,140,140,10,1,4,RL,carminal,cursive,carminal_c.png,,,,,,
,,,,31939,001,2025-11-08_19h16.34.633,HW_LDT_1,2024.2.4,MacIntel,60.24096386,,,,,,,,,,,,,,,,,,,,,616.3406,616.5385,616.5386,617.0384,,,,,,,,,,,,,,0.7364,1,,,,,,,,,,,,,,z,,,,,,,,,,,,,,,,142,0,617.0391,617.7885,z,1,0.7364,,[],[],[],[],[],[],[],617.7886,619.7884,619.7885,619.7887,[],[],[],[],[],[],[],,619.7888,619.7889,0.61843316,-0.047556424,0,0,0,,0,141,141,12,1,4,RL,conbicer,cursive,conbicer_c.png,,,,,,
,,,,31939,001,2025-11-08_19h16.34.633,HW_LDT_1,2024.2.4,MacIntel,60.24096386,,,,,,,,,,,,,,,,,,,,,619.7905,619.9884,619.9885,620.4884,,,,,,,,,,,,,,0.6863,1,,,,,,,,,,,,,,z,,,,,,,,,,,,,,,,143,0,620.4891,621.1885,z,1,0.6863,,[],[],[],[],[],[],[],621.1886,623.1883,623.1884,623.1886,[],[],[],[],[],[],[],,623.1887,623.1887,0.61843316,-0.047556424,0,0,0,,0,142,142,4,1,4,RL,betemit,cursive,betemit_c.png,,,,,,
,,,,31939,001,2025-11-08_19h16.34.633,HW_LDT_1,2024.2.4,MacIntel,60.24096386,,,,,,,,,,,,,,,,,,,,,623.19,623.3884,623.3885,623.8885,,,,,,,,,,,,,,0.6854,1,,,,,,,,,,,,,,m,,,,,,,,,,,,,,,,144,1,623.8892,624.5884,m,1,0.6854,,[],[],[],[],[],[],[],624.5884,626.5883,626.5884,627.9873,[],[],[],[],[],[],[],z,627.9874,627.9876,0.61843316,-0.047556424,0,0,0,,0,143,143,100,1,4,word,DECADE,cursive,decade_c.png,1.3922,,,,,
,,,,31939,001,2025-11-08_19h16.34.633,HW_LDT_1,2024.2.4,MacIntel,60.24096386,,,,,,,,,,,,,,,,,,,,,627.989,628.1884,628.1885,628.688,,,,,,,,,,,,,,1.3813,0,,,,,,,,,,,,,,m,,,,,,,,,,,,,,,,145,0,628.6884,630.0718,z,0,1.3813,,[],[],[],[],[],[],[],630.0718,632.0716,632.0716,632.0718,[],[],[],[],[],[],[],,632.0719,632.072,0.61843316,-0.047556424,0,0,0,,0,144,144,106,1,4,word,ELABORATE,cursive,elaborate_c.png,,,,,,
,,,,31939,001,2025-11-08_19h16.34.633,HW_LDT_1,2024.2.4,MacIntel,60.24096386,,,,,,,,,,,,,,,,,,,,,632.0736,632.2717,632.2717,632.7716,,,,,,,,,,,,,,0.6474,1,,,,,,,,,,,,,,z,,,,,,,,,,,,,,,,146,0,632.7722,633.4217,z,1,0.6474,,[],[],[],[],[],[],[],633.4218,635.4217,635.4217,635.422,[],[],[],[],[],[],[],,635.422,635.4221,0.61843316,-0.047556424,0,0,0,,0,145,145,25,1,4,RL,macise,print,macise_p.png,,,,,,
,,,,31939,001,2025-11-08_19h16.34.633,HW_LDT_1,2024.2.4,MacIntel,60.24096386,,,,,,,,,,,,,,,,,,,,,635.4236,635.6217,635.6218,636.1217,,,,,,,,,,,,,,0.979,1,,,,,,,,,,,,,,z,,,,,,,,,,,,,,,,147,1,636.1224,637.1047,z,1,0.979,,[],[],[],[],[],[],[],637.1048,639.105,639.105,639.7717,[],[],[],[],[],[],[],z,639.7718,639.7719,0.61843316,-0.047556424,0,0,0,,0,146,146,49,1,4,RL,vesofity,cursive,vesofity_c.png,0.6545,,,,,
,,,,31939,001,2025-11-08_19h16.34.633,HW_LDT_1,2024.2.4,MacIntel,60.24096386,,,,,,,,,,,,,,,,,,,,,639.7734,639.9717,639.9717,640.4716,,,,,,,,,,,,,,1.853,1,,,,,,,,,,,,,,m,,,,,,,,,,,,,,,,148,0,640.4725,642.3383,m,1,1.853,,[],[],[],[],[],[],[],642.3384,644.3383,644.3384,644.3386,[],[],[],[],[],[],[],,644.3386,644.3388,0.61843316,-0.047556424,0,0,0,,0,147,147,112,1,4,word,LIBERAL,cursive,liberal_c.png,,,,,,
,,,,31939,001,2025-11-08_19h16.34.633,HW_LDT_1,2024.2.4,MacIntel,60.24096386,,,,,,,,,,,,,,,,,,,,,644.3404,644.5383,644.5383,645.0382,,,,,,,,,,,,,,0.6022,1,,,,,,,,,,,,,,z,,,,,,,,,,,,,,,,149,0,645.0385,645.6546,z,1,0.6022,,[],[],[],[],[],[],[],645.6546,647.655,647.6551,647.6555,[],[],[],[],[],[],[],,647.6556,647.6557,0.61843316,-0.047556424,0,0,0,,0,148,148,44,1,4,RL,senvilent,print,senvilent_p.png,,,,,,
,,,,31939,001,2025-11-08_19h16.34.633,HW_LDT_1,2024.2.4,MacIntel,60.24096386,,,,,,,,,,,,,,,,,,,,,647.6583,647.855,647.855,648.355,,,,,,,,,,,,,,0.6361,1,,,,,,,,,,,,,,m,,,,,,,,,,,,,,,,150,0,648.3558,649.0049,m,1,0.6361,,[],[],[],[],[],[],[],649.005,651.0051,651.0051,651.0055,[],[],[],[],[],[],[],,651.0055,651.0056,0.61843316,-0.047556424,0,0,0,,0,149,149,149,1,4,word,SENATOR,print,senator_p.png,,,,,,
,,,,31939,001,2025-11-08_19h16.34.633,HW_LDT_1,2024.2.4,MacIntel,60.24096386,,,,,,,,,,,,,,,,,,,,,651.0072,651.2051,651.2051,651.7049,,,,,,,,,,,,,,0.5706,1,,,,,,,,,,,,,,z,,,,,,,,,,,,,,,,151,0,651.7057,652.2874,z,1,0.5706,,[],[],[],[],[],[],[],652.2875,654.2883,654.2883,654.2887,[],[],[],[],[],[],[],,654.2887,654.2888,0.61843316,-0.047556424,0,0,0,,0,150,150,20,1,4,RL,gralekul,print,gralekul_p.png,,,,,,
,,,,31939,001,2025-11-08_19h16.34.633,HW_LDT_1,2024.2.4,MacIntel,60.24096386,,,,,,,,,,,,,,,,,,,,,654.2903,654.4882,654.4883,654.9883,,,,,,,,,,,,,,1.3692,1,,,,,,,,,,,,,,m,,,,,,,,,,,,,,,,152,0,654.9891,656.3707,m,1,1.3692,,[],[],[],[],[],[],[],656.3708,658.3715,658.3716,658.3719,[],[],[],[],[],[],[],,658.372,658.3723,0.61843316,-0.047556424,0,0,0,,0,151,151,126,1,4,word,OPTIMAL,print,optimal_p.png,,,,,,
,,,,31939,001,2025-11-08_19h16.34.633,HW_LDT_1,2024.2.4,MacIntel,60.24096386,,,,,,,,,,,,,,,,,,,,,658.3737,658.5716,658.5717,659.0716,,,,,,,,,,,,,,0.9696,1,,,,,,,,,,,,,,m,,,,,,,,,,,,,,,,153,1,659.0723,660.0551,m,1,0.9696,,[],[],[],[],[],[],[],660.0553,662.0548,662.0549,662.9382,[],[],[],[],[],[],[],z,662.9383,662.9384,0.61843316,-0.047556424,0,0,0,,0,152,152,102,1,4,word,DENSITY,cursive,density_c.png,0.8753,,,,,
,,,,31939,001,2025-11-08_19h16.34.633,HW_LDT_1,2024.2.4,MacIntel,60.24096386,,,,,,,,,,,,,,,,,,,,,662.9398,663.1379,663.1379,663.6382,,,,,,,,,,,,,,0.8031,1,,,,,,,,,,,,,,z,,,,,,,,,,,,,,,,154,0,663.639,664.4548,z,1,0.8031,,[],[],[],[],[],[],[],664.4549,666.455,666.455,666.4552,[],[],[],[],[],[],[],,666.4553,666.4554,0.61843316,-0.047556424,0,0,0,,0,153,153,63,1,4,TL,miskate,print,miskate_p.png,,,,,,
,,,,31939,001,2025-11-08_19h16.34.633,HW_LDT_1,2024.2.4,MacIntel,60.24096386,,,,,,,,,,,,,,,,,,,,,666.457,666.6549,666.655,667.1548,,,,,,,,,,,,,,1.9035,1,,,,,,,,,,,,,,m,,,,,,,,,,,,,,,,155,0,667.1557,669.0716,m,1,1.9035,,[],[],[],[],[],[],[],669.0716,671.0716,671.0717,671.0719,[],[],[],[],[],[],[],,671.0719,671.0721,0.61843316,-0.047556424,0,0,0,,0,154,154,152,1,4,word,SPECIMEN,cursive,specimen_c.png,,,,,,
,,,,31939,001,2025-11-08_19h16.34.633,HW_LDT_1,2024.2.4,MacIntel,60.24096386,,,,,,,,,,,,,,,,,,,,,671.0736,671.2718,671.2719,671.7715,,,,,,,,,,,,,,1.1197,1,,,,,,,,,,,,,,m,,,,,,,,,,,,,,,,156,0,671.7722,672.905,m,1,1.1197,,[],[],[],[],[],[],[],672.905,674.9049,674.905,674.9051,[],[],[],[],[],[],[],,674.9052,674.9053,0.61843316,-0.047556424,0,0,0,,0,155,155,137,1,4,word,RAPIDLY,cursive,rapidly_c.png,,,,,,
,,,,31939,001,2025-11-08_19h16.34.633,HW_LDT_1,2024.2.4,MacIntel,60.24096386,,,,,,,,,,,,,,,,,,,,,674.9069,675.1047,675.1048,675.605,,,,,,,,,,,,,,2.286,0,,,,,,,,,,,,,,z,,,,,,,,,,,,,,,,157,1,675.6057,677.9049,m,0,2.286,,[],[],[],[],[],[],[],677.9051,679.9049,679.9049,680.5549,[],[],[],[],[],[],[],z,680.5549,680.5552,0.61843316,-0.047556424,0,0,0,,0,156,156,55,1,4,TL,corevage,cursive,corevage_c.png,0.6374,,,,,
,,,,31939,001,2025-11-08_19h16.34.633,HW_LDT_1,2024.2.4,MacIntel,60.24096386,,,,,,,,,,,,,,,,,,,,,680.5567,680.7545,680.7545,681.2549,,,,,,,,,,,,,,0.8695,1,,,,,,,,,,,,,,z,,,,,,,,,,,,,,,,158,0,681.2557,682.1382,z,1,0.8695,,[],[],[],[],[],[],[],682.1383,684.1382,684.1382,684.1384,[],[],[],[],[],[],[],,684.1384,684.1386,0.61843316,-0.047556424,0,0,0,,0,157,157,34,1,4,RL,posity,cursive,posity_c.png,,,,,,
,,,,31939,001,2025-11-08_19h16.34.633,HW_LDT_1,2024.2.4,MacIntel,60.24096386,,,,,,,,,,,,,,,,,,,,,684.1402,684.3381,684.3382,684.8381,,,,,,,,,,,,,,0.6199,1,,,,,,,,,,,,,,z,,,,,,,,,,,,,,,,159,0,684.8389,685.4715,z,1,0.6199,,[],[],[],[],[],[],[],685.4716,687.4712,687.4713,687.4715,[],[],[],[],[],[],[],,687.4716,687.4717,0.61843316,-0.047556424,0,0,0,,0,158,158,48,1,4,RL,vabifity,print,vabifity_p.png,,,,,,
,,,,31939,001,2025-11-08_19h16.34.633,HW_LDT_1,2024.2.4,MacIntel,60.24096386,,,,,,,,,,,,,,,,,,,,,687.4733,687.6716,687.6717,688.1716,,,,,,,,,,,,,,0.8697,1,,,,,,,,,,,,,,z,,,,,,,,,,,,,,,,160,0,688.1724,689.0549,z,1,0.8697,,[],[],[],[],[],[],[],689.055,691.0549,691.0549,691.0551,[],[],[],[],[],[],[],,691.0552,691.0554,0.61843316,-0.047556424,0,0,0,,0,159,159,72,1,4,TL,relugar,cursive,relugar_c.png,,,,,,
,,,,31939,001,2025-11-08_19h16.34.633,HW_LDT_1,2024.2.4,MacIntel,60.24096386,,,,,,,,,,,,,,,,,,,,,,,,,,,,,,,,,,,,,,,,,,,,,,,,,,,,,,,,,,,,,,,,,,,,,,,,,,,,,,,,,,,,,,,,,,,,,,,,,,,,,,,,,,,,,,,,,,,,,,691.0563,696.0552
