counterbalance_lists.group,counterbalance_lists.remaining,get_list.started,get_list.stopped,participant,session,date,expName,psychopyVersion,OS,frameRate,Instructions.started,Instructions.stopped,key_resp.keys,instr_done_touch.x,instr_done_touch.y,instr_done_touch.leftButton,instr_done_touch.midButton,instr_done_touch.rightButton,instr_done_touch.clicked_name,start_instr.thisRepN,start_instr.thisTrialN,start_instr.thisN,start_instr.thisIndex,start_instr.ran,pageN,phase,instruct_text,has_image,instruct_image,key_resp.rt,key_resp.duration,showProgress.started,showProgress.stopped,fix.started,fix.stopped,prac.started,prac.stopped,response.keys,response.corr,response.rt,response.duration,touch_resp.x,touch_resp.y,touch_resp.leftButton,touch_resp.midButton,touch_resp.rightButton,touch_resp.time,touch_resp.clicked_name,rt,corr,feedback.started,feedback.stopped,trials.thisRepN,trials.thisTrialN,trials.thisN,trials.thisIndex,trials.ran,TrialID,StimulusType,Condition,PrimeDuration,Prime,Target,corrAns,Instructions_expt.started,Instructions_expt.stopped,key_resp_3.keys,instr_done_touch_3.x,instr_done_touch_3.y,instr_done_touch_3.leftButton,instr_done_touch_3.midButton,instr_done_touch_3.rightButton,instr_done_touch_3.clicked_name,instr_experiment.thisRepN,instr_experiment.thisTrialN,instr_experiment.thisN,instr_experiment.thisIndex,instr_experiment.ran,trialID,flag,maintask.started,maintask.stopped,key_resp_2.keys,key_resp_2.corr,key_resp_2.rt,key_resp_2.duration,targ_click.x,targ_click.y,targ_click.leftButton,targ_click.midButton,targ_click.rightButton,targ_click.time,targ_click.clicked_name,ITI.started,ITI.stopped,probe.started,probe.stopped,click_probe.x,click_probe.y,click_probe.leftButton,click_probe.midButton,click_probe.rightButton,click_probe.time,click_probe.clicked_name,key_resp_probe.keys,Break.started,Break.stopped,break_done_touch.x,break_done_touch.y,break_done_touch.leftButton,break_done_touch.midButton,break_done_touch.rightButton,break_done_keyboard.keys,list2_trials.thisRepN,list2_trials.thisTrialN,list2_trials.thisN,list2_trials.thisIndex,list2_trials.ran,list_id,item_type,string,font,stim_file,key_resp_probe.rt,key_resp_probe.duration,break_done_touch.clicked_name,End.started,End.stopped
list2,,5.7635,5.7636,31947,001,2025-10-26_18h49.20.093,HW_LDT_1,2024.2.4,MacIntel,59.88023952,,,,,,,,,,,,,,,,,,,,,,,,,,,,,,,,,,,,,,,,,,,,,,,,,,,,,,,,,,,,,,,,,,,,,,,,,,,,,,,,,,,,,,,,,,,,,,,,,,,,,,,,,,,,,,,,,,,,,,
,,,,31947,001,2025-10-26_18h49.20.093,HW_LDT_1,2024.2.4,MacIntel,59.88023952,5.7806,12.8319,,0.099561268,-0.396849985,1,0,0,instr_done_button,0,0,0,0,1,1,instructions,"INSTRUCTIONS
At the start of each trial, look at the plus sign  (+) in the center of the screen.  This tells you that a trial is about to begin and where to look. Second, the plus sign will disappear and a string of letters will appear. Your task is to determine if the string of letters is a word or not. If the item is a word press the M key (on keyboard)  or touch the word button (phone/tablet).  If the item is not a word,  press the  Z key (on keyboard)  or touch the nonword button (on phone/tablet). The items will be presented for a short time. 
Press the space bar or touch  continue.",0,,,,,,,,,,,,,,,,,,,,,,,,,,,,,,,,,,,,,,,,,,,,,,,,,,,,,,,,,,,,,,,,,,,,,,,,,,,,,,,,,,,,,,,,,,,,,,,,,,,,
,,,,31947,001,2025-10-26_18h49.20.093,HW_LDT_1,2024.2.4,MacIntel,59.88023952,12.8323,21.4331,space,0.099715209,-0.396849985,0,0,0,,0,1,1,1,1,2,instructions,"If your device has a keyboard, press the 'Z' key for nonwords and the 'M' key for words.





Press the space bar or touch the button below to continue.",0,keyboard-example.gif,8.5871,,,,,,,,,,,,,,,,,,,,,,,,,,,,,,,,,,,,,,,,,,,,,,,,,,,,,,,,,,,,,,,,,,,,,,,,,,,,,,,,,,,,,,,,,,,,,,,,,,
,,,,31947,001,2025-10-26_18h49.20.093,HW_LDT_1,2024.2.4,MacIntel,59.88023952,21.4342,22.7169,space,0.099715209,-0.396849985,0,0,0,,0,2,2,2,1,3,instructions,"If you are using a touchscreen only device, use the buttons on the screen. Do not use the mouse.





Press the space bar or touch the button below to continue.",0,touchscreen-example.gif,1.2658,,,,,,,,,,,,,,,,,,,,,,,,,,,,,,,,,,,,,,,,,,,,,,,,,,,,,,,,,,,,,,,,,,,,,,,,,,,,,,,,,,,,,,,,,,,,,,,,,,
,,,,31947,001,2025-10-26_18h49.20.093,HW_LDT_1,2024.2.4,MacIntel,59.88023952,22.7193,24.5501,space,0.099715209,-0.396849985,0,0,0,,0,3,3,3,1,4,instructions,"It is very important that you respond as quickly and accurately as possible, as each letter string will only be on the screen for two seconds. If you do not respond within this time, the message 'Too slow!' will be displayed and the experiment will progress to the next letter string. The first 20 trials will be practice trials and you will receive feedback on your answers. 

Press the space bar or touch the button below to start the practice trials.",0,,1.8104,,,,,,,,,,,,,,,,,,,,,,,,,,,,,,,,,,,,,,,,,,,,,,,,,,,,,,,,,,,,,,,,,,,,,,,,,,,,,,,,,,,,,,,,,,,,,,,,,,
,,,,31947,001,2025-10-26_18h49.20.093,HW_LDT_1,2024.2.4,MacIntel,59.88023952,,,,,,,,,,,,,,,,,,,,,,24.5825,24.7503,24.7506,25.2492,25.2494,26.7339,m,1,1.467,,[],[],[],[],[],[],[],1.467,1,26.7344,27.2325,0,0,0,3,1,1004,WORD,"ID",16,matrix,MATRIX,m,,,,,,,,,,,,,,,,,,,,,,,,,,,,,,,,,,,,,,,,,,,,,,,,,,,,,,,,,,,,,,,,
,,,,31947,001,2025-10-26_18h49.20.093,HW_LDT_1,2024.2.4,MacIntel,59.88023952,,,,,,,,,,,,,,,,,,,,,,27.2338,27.4331,27.4331,27.9325,27.9335,28.8989,m,1,0.94,,[],[],[],[],[],[],[],0.94,1,28.8991,29.4001,0,1,1,4,1,1005,WORD,UN,33,abound,SQUEAK,m,,,,,,,,,,,,,,,,,,,,,,,,,,,,,,,,,,,,,,,,,,,,,,,,,,,,,,,,,,,,,,,,
,,,,31947,001,2025-10-26_18h49.20.093,HW_LDT_1,2024.2.4,MacIntel,59.88023952,,,,,,,,,,,,,,,,,,,,,,29.4014,29.5999,29.6,30.0999,30.101,30.9332,m,1,0.8135,,[],[],[],[],[],[],[],0.8135,1,30.9333,31.4334,0,2,2,1,1,1002,WORD,"ID",33,adjust,ADJUST,m,,,,,,,,,,,,,,,,,,,,,,,,,,,,,,,,,,,,,,,,,,,,,,,,,,,,,,,,,,,,,,,,
,,,,31947,001,2025-10-26_18h49.20.093,HW_LDT_1,2024.2.4,MacIntel,59.88023952,,,,,,,,,,,,,,,,,,,,,,31.435,31.6333,31.6333,32.1334,32.1345,33.1002,m,1,0.9538,,[],[],[],[],[],[],[],0.9538,1,33.1002,33.6,0,3,3,2,1,1003,WORD,"ID",16,almond,ALMOND,m,,,,,,,,,,,,,,,,,,,,,,,,,,,,,,,,,,,,,,,,,,,,,,,,,,,,,,,,,,,,,,,,
,,,,31947,001,2025-10-26_18h49.20.093,HW_LDT_1,2024.2.4,MacIntel,59.88023952,,,,,,,,,,,,,,,,,,,,,,33.6012,33.8001,33.8001,34.2999,34.3008,34.9666,z,1,0.6568,,[],[],[],[],[],[],[],0.6568,1,34.9668,35.4666,0,4,4,14,1,1015,NW,UN,16,miaber,THRALE,z,,,,,,,,,,,,,,,,,,,,,,,,,,,,,,,,,,,,,,,,,,,,,,,,,,,,,,,,,,,,,,,,
,,,,31947,001,2025-10-26_18h49.20.093,HW_LDT_1,2024.2.4,MacIntel,59.88023952,,,,,,,,,,,,,,,,,,,,,,35.4677,35.6667,35.6668,36.1667,36.1675,37.0157,z,1,0.8296,,[],[],[],[],[],[],[],0.8296,1,37.0158,37.5164,0,5,5,8,1,1009,NW,"ID",33,aslert,ASLERT,z,,,,,,,,,,,,,,,,,,,,,,,,,,,,,,,,,,,,,,,,,,,,,,,,,,,,,,,,,,,,,,,,
,,,,31947,001,2025-10-26_18h49.20.093,HW_LDT_1,2024.2.4,MacIntel,59.88023952,,,,,,,,,,,,,,,,,,,,,,37.5169,37.7167,37.7168,38.2168,38.2177,39.1827,m,1,0.9563,,[],[],[],[],[],[],[],0.9563,1,39.1828,39.6835,0,6,6,0,1,1001,WORD,"ID",33,utopia,UTOPIA,m,,,,,,,,,,,,,,,,,,,,,,,,,,,,,,,,,,,,,,,,,,,,,,,,,,,,,,,,,,,,,,,,
,,,,31947,001,2025-10-26_18h49.20.093,HW_LDT_1,2024.2.4,MacIntel,59.88023952,,,,,,,,,,,,,,,,,,,,,,39.6849,39.8834,39.8835,40.3834,40.3843,41.0001,z,1,0.5963,,[],[],[],[],[],[],[],0.5963,1,41.0002,41.5001,0,7,7,9,1,1010,NW,"ID",33,fariny,FARINY,z,,,,,,,,,,,,,,,,,,,,,,,,,,,,,,,,,,,,,,,,,,,,,,,,,,,,,,,,,,,,,,,,
,,,,31947,001,2025-10-26_18h49.20.093,HW_LDT_1,2024.2.4,MacIntel,59.88023952,,,,,,,,,,,,,,,,,,,,,,41.5017,41.7001,41.7001,42.2001,42.201,42.9325,m,1,0.7127,,[],[],[],[],[],[],[],0.7127,1,42.9326,43.4335,0,8,8,5,1,1006,WORD,UN,33,frenzy,OBTAIN,m,,,,,,,,,,,,,,,,,,,,,,,,,,,,,,,,,,,,,,,,,,,,,,,,,,,,,,,,,,,,,,,,
,,,,31947,001,2025-10-26_18h49.20.093,HW_LDT_1,2024.2.4,MacIntel,59.88023952,,,,,,,,,,,,,,,,,,,,,,43.4349,43.6334,43.6335,44.1335,44.1344,44.7669,z,1,0.6139,,[],[],[],[],[],[],[],0.6139,1,44.767,45.2659,0,9,9,13,1,1014,NW,UN,33,winfer,ROUPET,z,,,,,,,,,,,,,,,,,,,,,,,,,,,,,,,,,,,,,,,,,,,,,,,,,,,,,,,,,,,,,,,,
,,,,31947,001,2025-10-26_18h49.20.093,HW_LDT_1,2024.2.4,MacIntel,59.88023952,,,,,,,,,,,,,,,,,,,,,,45.2673,45.4666,45.4666,45.9669,45.9678,46.9331,z,1,0.957,,[],[],[],[],[],[],[],0.957,1,46.9333,47.4336,0,10,10,15,1,1016,NW,UN,16,mushed,WHAISE,z,,,,,,,,,,,,,,,,,,,,,,,,,,,,,,,,,,,,,,,,,,,,,,,,,,,,,,,,,,,,,,,,
,,,,31947,001,2025-10-26_18h49.20.093,HW_LDT_1,2024.2.4,MacIntel,59.88023952,,,,,,,,,,,,,,,,,,,,,,47.4351,47.6336,47.6336,48.1335,48.1344,48.9171,m,1,0.7583,,[],[],[],[],[],[],[],0.7583,1,48.9172,49.416,0,11,11,7,1,1008,WORD,UN,16,hurdle,VOLUME,m,,,,,,,,,,,,,,,,,,,,,,,,,,,,,,,,,,,,,,,,,,,,,,,,,,,,,,,,,,,,,,,,
,,,,31947,001,2025-10-26_18h49.20.093,HW_LDT_1,2024.2.4,MacIntel,59.88023952,,,,,,,,,,,,,,,,,,,,,,49.4172,49.6168,49.6168,50.1168,50.1177,50.9502,m,1,0.812,,[],[],[],[],[],[],[],0.812,1,50.9503,51.4503,0,12,12,6,1,1007,WORD,UN,16,tropic,ZOMBIE,m,,,,,,,,,,,,,,,,,,,,,,,,,,,,,,,,,,,,,,,,,,,,,,,,,,,,,,,,,,,,,,,,
,,,,31947,001,2025-10-26_18h49.20.093,HW_LDT_1,2024.2.4,MacIntel,59.88023952,,,,,,,,,,,,,,,,,,,,,,51.4516,51.6503,51.6503,52.1503,52.1512,53.3337,z,1,1.1619,,[],[],[],[],[],[],[],1.1619,1,53.3338,53.8337,0,13,13,12,1,1013,NW,UN,33,adveil,SPRINY,z,,,,,,,,,,,,,,,,,,,,,,,,,,,,,,,,,,,,,,,,,,,,,,,,,,,,,,,,,,,,,,,,
,,,,31947,001,2025-10-26_18h49.20.093,HW_LDT_1,2024.2.4,MacIntel,59.88023952,,,,,,,,,,,,,,,,,,,,,,53.8351,54.0326,54.0326,54.5339,54.5347,55.2836,z,1,0.7381,,[],[],[],[],[],[],[],0.7381,1,55.2837,55.7825,0,14,14,11,1,1012,NW,"ID",16,rashet,RASHET,z,,,,,,,,,,,,,,,,,,,,,,,,,,,,,,,,,,,,,,,,,,,,,,,,,,,,,,,,,,,,,,,,
,,,,31947,001,2025-10-26_18h49.20.093,HW_LDT_1,2024.2.4,MacIntel,59.88023952,,,,,,,,,,,,,,,,,,,,,,55.7832,55.9839,55.984,56.4836,56.4844,58.6341,z,1,2.1302,,[],[],[],[],[],[],[],2.1302,1,58.6342,59.1337,0,15,15,10,1,1011,NW,"ID",16,inlade,INLADE,z,,,,,,,,,,,,,,,,,,,,,,,,,,,,,,,,,,,,,,,,,,,,,,,,,,,,,,,,,,,,,,,,
,,,,31947,001,2025-10-26_18h49.20.093,HW_LDT_1,2024.2.4,MacIntel,59.88023952,,,,,,,,,,,,,,,1,end_of_practice,"You have completed the practice trials. During the experimental trials, you will not receive feedback. On some trials you will be asked to report whether the item you just saw was in cursive or print. 
Before you begin, please ensure that you are in a comfortable and quiet location and will not be disturbed for about 15 minutes, as we cannot use your data if you do not complete all the trials. 
 When you are ready to start the experimental trials, please press space or touch the button below.",,,,,,,,,,,,,,,,,,,,,,,,,,,,,,,,,,,,,,59.1421,77.6346,,0.06257216,-0.402690117,1,0,0,instr_done_button_3,0,0,0,0,1,,,,,,,,,,,,,,,,,,,,,,,,,,,,,,,,,,,,,,,,,,,,,,,,,,
,,,,31947,001,2025-10-26_18h49.20.093,HW_LDT_1,2024.2.4,MacIntel,59.88023952,,,,,,,,,,,,,,,,,,,,,,77.6443,77.8331,77.8331,78.334,,,,,,,,,,,,,,2.2057,1,,,,,,,,,,,,,,m,,,,,,,,,,,,,,,1,0,78.3353,80.551,m,1,2.2057,,[],[],[],[],[],[],[],80.5511,82.5512,82.5515,82.5551,[],[],[],[],[],[],[],,82.5552,82.5568,0.094332089,-0.190703895,0,0,0,,0,0,0,151,1,2,word,SPECIFIC,print,specific_p.png,,,,,
,,,,31947,001,2025-10-26_18h49.20.093,HW_LDT_1,2024.2.4,MacIntel,59.88023952,,,,,,,,,,,,,,,,,,,,,,82.5577,82.751,82.751,83.2499,,,,,,,,,,,,,,1.0371,1,,,,,,,,,,,,,,m,,,,,,,,,,,,,,,2,0,83.2503,84.3009,m,1,1.0371,,[],[],[],[],[],[],[],84.301,86.2999,86.2999,86.3002,[],[],[],[],[],[],[],,86.3003,86.3003,0.094332089,-0.190703895,0,0,0,,0,1,1,144,1,2,word,RESIDENT,print,resident_p.png,,,,,
,,,,31947,001,2025-10-26_18h49.20.093,HW_LDT_1,2024.2.4,MacIntel,59.88023952,,,,,,,,,,,,,,,,,,,,,,86.3015,86.5009,86.501,87.0006,,,,,,,,,,,,,,0.9542,1,,,,,,,,,,,,,,z,,,,,,,,,,,,,,,3,0,87.001,87.9677,z,1,0.9542,,[],[],[],[],[],[],[],87.9678,89.9677,89.9678,89.968,[],[],[],[],[],[],[],,89.9681,89.9682,0.094332089,-0.190703895,0,0,0,,0,2,2,39,1,2,TL,aminal,print,aminal_p.png,,,,,
,,,,31947,001,2025-10-26_18h49.20.093,HW_LDT_1,2024.2.4,MacIntel,59.88023952,,,,,,,,,,,,,,,,,,,,,,89.9693,90.1678,90.1678,90.6678,,,,,,,,,,,,,,4.5292,0,,,,,,,,,,,,,,m,,,,,,,,,,,,,,,4,0,90.6684,95.2,z,0,4.5292,,[],[],[],[],[],[],[],95.2001,97.2012,97.2013,97.2016,[],[],[],[],[],[],[],,97.2017,97.2018,0.094332089,-0.190703895,0,0,0,,0,3,3,119,1,2,word,MEMORY,cursive,memory_c.png,,,,,
,,,,31947,001,2025-10-26_18h49.20.093,HW_LDT_1,2024.2.4,MacIntel,59.88023952,,,,,,,,,,,,,,,,,,,,,,97.2032,97.4012,97.4013,97.9012,,,,,,,,,,,,,,1.8908,1,,,,,,,,,,,,,,m,,,,,,,,,,,,,,,5,0,97.9019,99.8013,m,1,1.8908,,[],[],[],[],[],[],[],99.8013,101.8013,101.8014,101.8017,[],[],[],[],[],[],[],,101.8017,101.802,0.094332089,-0.190703895,0,0,0,,0,4,4,132,1,2,word,PROPOSAL,cursive,proposal_c.png,,,,,
,,,,31947,001,2025-10-26_18h49.20.093,HW_LDT_1,2024.2.4,MacIntel,59.88023952,,,,,,,,,,,,,,,,,,,,,,101.8033,102.0013,102.0013,102.5013,,,,,,,,,,,,,,0.9232,1,,,,,,,,,,,,,,m,,,,,,,,,,,,,,,6,0,102.5021,103.4347,m,1,0.9232,,[],[],[],[],[],[],[],103.4348,105.4348,105.4349,105.4353,[],[],[],[],[],[],[],,105.4353,105.4354,0.094332089,-0.190703895,0,0,0,,0,5,5,101,1,2,word,DELICATE,print,delicate_p.png,,,,,
,,,,31947,001,2025-10-26_18h49.20.093,HW_LDT_1,2024.2.4,MacIntel,59.88023952,,,,,,,,,,,,,,,,,,,,,,105.4368,105.6346,105.6347,106.1348,,,,,,,,,,,,,,5.8989,1,,,,,,,,,,,,,,z,,,,,,,,,,,,,,,7,1,106.1354,112.0351,z,1,5.8989,,[],[],[],[],[],[],[],112.0353,114.0347,114.0348,115.4517,[],[],[],[],[],[],[],z,115.4518,115.4521,0.094332089,-0.190703895,0,0,0,,0,6,6,47,1,2,TL,crinimal,cursive,crinimal_c.png,1.406,,,,
,,,,31947,001,2025-10-26_18h49.20.093,HW_LDT_1,2024.2.4,MacIntel,59.88023952,,,,,,,,,,,,,,,,,,,,,,115.4534,115.6516,115.6517,116.1514,,,,,,,,,,,,,,3.0576,0,,,,,,,,,,,,,,m,,,,,,,,,,,,,,,8,0,116.1561,119.218,z,0,3.0576,,[],[],[],[],[],[],[],119.218,121.2183,121.2184,121.2187,[],[],[],[],[],[],[],,121.2187,121.2188,0.094332089,-0.190703895,0,0,0,,0,7,7,125,1,2,word,OPERATOR,cursive,operator_c.png,,,,,
,,,,31947,001,2025-10-26_18h49.20.093,HW_LDT_1,2024.2.4,MacIntel,59.88023952,,,,,,,,,,,,,,,,,,,,,,121.2199,121.4185,121.4185,121.9173,,,,,,,,,,,,,,3.037,1,,,,,,,,,,,,,,m,,,,,,,,,,,,,,,9,0,121.9178,124.9684,m,1,3.037,,[],[],[],[],[],[],[],124.9685,126.9685,126.9685,126.9687,[],[],[],[],[],[],[],,126.9687,126.969,0.094332089,-0.190703895,0,0,0,,0,8,8,82,1,2,word,AMATEUR,cursive,amateur_c.png,,,,,
,,,,31947,001,2025-10-26_18h49.20.093,HW_LDT_1,2024.2.4,MacIntel,59.88023952,,,,,,,,,,,,,,,,,,,,,,126.9703,127.1684,127.1685,127.6684,,,,,,,,,,,,,,1.2976,0,,,,,,,,,,,,,,m,,,,,,,,,,,,,,,10,0,127.669,128.9683,z,0,1.2976,,[],[],[],[],[],[],[],128.9684,130.9675,130.9675,130.9677,[],[],[],[],[],[],[],,130.9678,130.9679,0.094332089,-0.190703895,0,0,0,,0,9,9,85,1,2,word,BENEFIT,cursive,benefit_c.png,,,,,
,,,,31947,001,2025-10-26_18h49.20.093,HW_LDT_1,2024.2.4,MacIntel,59.88023952,,,,,,,,,,,,,,,,,,,,,,130.9691,131.1684,131.1685,131.6685,,,,,,,,,,,,,,1.1865,1,,,,,,,,,,,,,,z,,,,,,,,,,,,,,,11,0,131.6692,132.8688,z,1,1.1865,,[],[],[],[],[],[],[],132.8689,134.8686,134.8687,134.8689,[],[],[],[],[],[],[],,134.8689,134.8692,0.094332089,-0.190703895,0,0,0,,0,10,10,72,1,2,TL,revomal,print,revomal_p.png,,,,,
,,,,31947,001,2025-10-26_18h49.20.093,HW_LDT_1,2024.2.4,MacIntel,59.88023952,,,,,,,,,,,,,,,,,,,,,,134.8704,135.0677,135.0677,135.5687,,,,,,,,,,,,,,0.9027,1,,,,,,,,,,,,,,z,,,,,,,,,,,,,,,12,0,135.5692,136.4854,z,1,0.9027,,[],[],[],[],[],[],[],136.4854,138.4845,138.4846,138.4847,[],[],[],[],[],[],[],,138.4849,138.485,0.094332089,-0.190703895,0,0,0,,0,11,11,73,1,2,TL,redisent,print,redisent_p.png,,,,,
,,,,31947,001,2025-10-26_18h49.20.093,HW_LDT_1,2024.2.4,MacIntel,59.88023952,,,,,,,,,,,,,,,,,,,,,,138.4863,138.6854,138.6855,139.1854,,,,,,,,,,,,,,2.2074,0,,,,,,,,,,,,,,m,,,,,,,,,,,,,,,13,0,139.186,141.402,z,0,2.2074,,[],[],[],[],[],[],[],141.4021,143.4012,143.4012,143.4014,[],[],[],[],[],[],[],,143.4015,143.4017,0.094332089,-0.190703895,0,0,0,,0,12,12,109,1,2,word,GRATEFUL,cursive,grateful_c.png,,,,,
,,,,31947,001,2025-10-26_18h49.20.093,HW_LDT_1,2024.2.4,MacIntel,59.88023952,,,,,,,,,,,,,,,,,,,,,,143.4029,143.6022,143.6022,144.1021,,,,,,,,,,,,,,0.8542,1,,,,,,,,,,,,,,z,,,,,,,,,,,,,,,14,0,144.1026,144.9689,z,1,0.8542,,[],[],[],[],[],[],[],144.9689,146.9688,146.9689,146.969,[],[],[],[],[],[],[],,146.969,146.969,0.094332089,-0.190703895,0,0,0,,0,13,13,4,1,2,RL,cenesony,print,cenesony_p.png,,,,,
,,,,31947,001,2025-10-26_18h49.20.093,HW_LDT_1,2024.2.4,MacIntel,59.88023952,,,,,,,,,,,,,,,,,,,,,,146.9701,147.1687,147.1687,147.6688,,,,,,,,,,,,,,0.8492,1,,,,,,,,,,,,,,m,,,,,,,,,,,,,,,15,0,147.6693,148.5191,m,1,0.8492,,[],[],[],[],[],[],[],148.5192,150.519,150.5191,150.5193,[],[],[],[],[],[],[],,150.5194,150.5195,0.094332089,-0.190703895,0,0,0,,0,14,14,129,1,2,word,PARENT,print,parent_p.png,,,,,
,,,,31947,001,2025-10-26_18h49.20.093,HW_LDT_1,2024.2.4,MacIntel,59.88023952,,,,,,,,,,,,,,,,,,,,,,150.5209,150.7189,150.719,151.2189,,,,,,,,,,,,,,0.7154,1,,,,,,,,,,,,,,z,,,,,,,,,,,,,,,16,0,151.2196,151.936,z,1,0.7154,,[],[],[],[],[],[],[],151.9362,153.9357,153.9357,153.9359,[],[],[],[],[],[],[],,153.936,153.9362,0.094332089,-0.190703895,0,0,0,,0,15,15,36,1,2,RL,vecelan,print,vecelan_p.png,,,,,
,,,,31947,001,2025-10-26_18h49.20.093,HW_LDT_1,2024.2.4,MacIntel,59.88023952,,,,,,,,,,,,,,,,,,,,,,153.9375,154.1358,154.1358,154.6357,,,,,,,,,,,,,,0.9315,1,,,,,,,,,,,,,,m,,,,,,,,,,,,,,,17,0,154.6364,155.569,m,1,0.9315,,[],[],[],[],[],[],[],155.5691,157.5681,157.5682,157.5683,[],[],[],[],[],[],[],,157.5684,157.5685,0.094332089,-0.190703895,0,0,0,,0,16,16,100,1,2,word,DECADE,print,decade_p.png,,,,,
,,,,31947,001,2025-10-26_18h49.20.093,HW_LDT_1,2024.2.4,MacIntel,59.88023952,,,,,,,,,,,,,,,,,,,,,,157.5698,157.7683,157.7683,158.2691,,,,,,,,,,,,,,1.4396,1,,,,,,,,,,,,,,m,,,,,,,,,,,,,,,18,0,158.2697,159.719,m,1,1.4396,,[],[],[],[],[],[],[],159.7191,161.7192,161.7193,161.7195,[],[],[],[],[],[],[],,161.7196,161.7197,0.094332089,-0.190703895,0,0,0,,0,17,17,149,1,2,word,SENATOR,print,senator_p.png,,,,,
,,,,31947,001,2025-10-26_18h49.20.093,HW_LDT_1,2024.2.4,MacIntel,59.88023952,,,,,,,,,,,,,,,,,,,,,,161.7211,161.9191,161.9193,162.4193,,,,,,,,,,,,,,2.6814,1,,,,,,,,,,,,,,m,,,,,,,,,,,,,,,19,1,162.4198,165.1025,m,1,2.6814,,[],[],[],[],[],[],[],165.1026,167.1018,167.1018,168.8026,[],[],[],[],[],[],[],z,168.8027,168.8029,0.094332089,-0.190703895,0,0,0,,0,18,18,98,1,2,word,CRIMINAL,cursive,criminal_c.png,1.6988,,,,
,,,,31947,001,2025-10-26_18h49.20.093,HW_LDT_1,2024.2.4,MacIntel,59.88023952,,,,,,,,,,,,,,,,,,,,,,168.8042,169.0027,169.0027,169.5023,,,,,,,,,,,,,,2.6651,1,,,,,,,,,,,,,,z,,,,,,,,,,,,,,,20,0,169.503,172.1692,z,1,2.6651,,[],[],[],[],[],[],[],172.1693,174.1694,174.1695,174.1696,[],[],[],[],[],[],[],,174.1697,174.1698,0.094332089,-0.190703895,0,0,0,,0,19,19,70,1,2,TL,retalive,print,retalive_p.png,,,,,
,,,,31947,001,2025-10-26_18h49.20.093,HW_LDT_1,2024.2.4,MacIntel,59.88023952,,,,,,,,,,,,,,,,,,,,,,174.1709,174.3694,174.3695,174.8695,,,,,,,,,,,,,,3.0207,1,,,,,,,,,,,,,,m,,,,,,,,,,,,,,,21,0,174.8701,177.9029,m,1,3.0207,,[],[],[],[],[],[],[],177.9029,179.9028,179.9029,179.9032,[],[],[],[],[],[],[],,179.9032,179.9034,0.094332089,-0.190703895,0,0,0,,0,20,20,145,1,2,word,RESUME,cursive,resume_c.png,,,,,
,,,,31947,001,2025-10-26_18h49.20.093,HW_LDT_1,2024.2.4,MacIntel,59.88023952,,,,,,,,,,,,,,,,,,,,,,179.9048,180.103,180.103,180.6028,,,,,,,,,,,,,,0.8526,1,,,,,,,,,,,,,,m,,,,,,,,,,,,,,,22,0,180.6033,181.4696,m,1,0.8526,,[],[],[],[],[],[],[],181.4697,183.4695,183.4696,183.4697,[],[],[],[],[],[],[],,183.4697,183.4698,0.094332089,-0.190703895,0,0,0,,0,21,21,87,1,2,word,CAFETERIA,print,cafeteria_p.png,,,,,
,,,,31947,001,2025-10-26_18h49.20.093,HW_LDT_1,2024.2.4,MacIntel,59.88023952,,,,,,,,,,,,,,,,,,,,,,183.4709,183.6695,183.6697,184.1697,,,,,,,,,,,,,,2.1029,0,,,,,,,,,,,,,,m,,,,,,,,,,,,,,,23,0,184.1702,186.2863,z,0,2.1029,,[],[],[],[],[],[],[],186.2864,188.2864,188.2865,188.2867,[],[],[],[],[],[],[],,188.2867,188.2869,0.094332089,-0.190703895,0,0,0,,0,22,22,120,1,2,word,MILITARY,cursive,military_c.png,,,,,
,,,,31947,001,2025-10-26_18h49.20.093,HW_LDT_1,2024.2.4,MacIntel,59.88023952,,,,,,,,,,,,,,,,,,,,,,188.2883,188.4864,188.4865,188.9863,,,,,,,,,,,,,,3.9822,1,,,,,,,,,,,,,,z,,,,,,,,,,,,,,,24,0,188.9868,192.9697,z,1,3.9822,,[],[],[],[],[],[],[],192.9698,194.9699,194.97,194.9702,[],[],[],[],[],[],[],,194.9702,194.9704,0.094332089,-0.190703895,0,0,0,,0,23,23,67,1,2,TL,quafily,cursive,quafily_c.png,,,,,
,,,,31947,001,2025-10-26_18h49.20.093,HW_LDT_1,2024.2.4,MacIntel,59.88023952,,,,,,,,,,,,,,,,,,,,,,194.9719,195.1699,195.1699,195.6698,,,,,,,,,,,,,,0.8531,1,,,,,,,,,,,,,,m,,,,,,,,,,,,,,,25,0,195.6704,196.5364,m,1,0.8531,,[],[],[],[],[],[],[],196.5365,198.5367,198.5367,198.5369,[],[],[],[],[],[],[],,198.5369,198.537,0.094332089,-0.190703895,0,0,0,,0,24,24,83,1,2,word,ANIMAL,print,animal_p.png,,,,,
,,,,31947,001,2025-10-26_18h49.20.093,HW_LDT_1,2024.2.4,MacIntel,59.88023952,,,,,,,,,,,,,,,,,,,,,,198.5379,198.7356,198.7356,199.2365,,,,,,,,,,,,,,2.1543,1,,,,,,,,,,,,,,z,,,,,,,,,,,,,,,26,0,199.2372,201.4034,z,1,2.1543,,[],[],[],[],[],[],[],201.4035,203.4032,203.4033,203.4035,[],[],[],[],[],[],[],,203.4036,203.4038,0.094332089,-0.190703895,0,0,0,,0,25,25,28,1,2,RL,revune,cursive,revune_c.png,,,,,
,,,,31947,001,2025-10-26_18h49.20.093,HW_LDT_1,2024.2.4,MacIntel,59.88023952,,,,,,,,,,,,,,,,,,,,,,203.4051,203.6029,203.6029,204.1033,,,,,,,,,,,,,,1.7393,1,,,,,,,,,,,,,,m,,,,,,,,,,,,,,,27,0,204.104,205.8535,m,1,1.7393,,[],[],[],[],[],[],[],205.8536,207.8535,207.8536,207.8539,[],[],[],[],[],[],[],,207.8539,207.8541,0.094332089,-0.190703895,0,0,0,,0,26,26,107,1,2,word,EVIDENT,cursive,evident_c.png,,,,,
,,,,31947,001,2025-10-26_18h49.20.093,HW_LDT_1,2024.2.4,MacIntel,59.88023952,,,,,,,,,,,,,,,,,,,,,,207.8554,208.0534,208.0534,208.5532,,,,,,,,,,,,,,1.2207,1,,,,,,,,,,,,,,m,,,,,,,,,,,,,,,28,0,208.5535,209.7858,m,1,1.2207,,[],[],[],[],[],[],[],209.7858,211.7869,211.7869,211.7871,[],[],[],[],[],[],[],,211.7872,211.7873,0.094332089,-0.190703895,0,0,0,,0,27,27,97,1,2,word,COVERAGE,cursive,coverage_c.png,,,,,
,,,,31947,001,2025-10-26_18h49.20.093,HW_LDT_1,2024.2.4,MacIntel,59.88023952,,,,,,,,,,,,,,,,,,,,,,211.7888,211.9869,211.9869,212.4868,,,,,,,,,,,,,,3.5142,0,,,,,,,,,,,,,,m,,,,,,,,,,,,,,,29,0,212.4874,216.0032,z,0,3.5142,,[],[],[],[],[],[],[],216.0033,218.0025,218.0026,218.0027,[],[],[],[],[],[],[],,218.0027,218.0028,0.094332089,-0.190703895,0,0,0,,0,28,28,138,1,2,word,REFUSAL,cursive,refusal_c.png,,,,,
,,,,31947,001,2025-10-26_18h49.20.093,HW_LDT_1,2024.2.4,MacIntel,59.88023952,,,,,,,,,,,,,,,,,,,,,,218.0035,218.2034,218.2034,218.7034,,,,,,,,,,,,,,0.9279,1,,,,,,,,,,,,,,z,,,,,,,,,,,,,,,30,0,218.7037,219.6362,z,1,0.9279,,[],[],[],[],[],[],[],219.6362,221.6369,221.6369,221.6372,[],[],[],[],[],[],[],,221.6373,221.6373,0.094332089,-0.190703895,0,0,0,,0,29,29,6,1,2,RL,conbicer,print,conbicer_p.png,,,,,
,,,,31947,001,2025-10-26_18h49.20.093,HW_LDT_1,2024.2.4,MacIntel,59.88023952,,,,,,,,,,,,,,,,,,,,,,221.6383,221.837,221.8371,222.3368,,,,,,,,,,,,,,1.8707,1,,,,,,,,,,,,,,m,,,,,,,,,,,,,,,31,0,222.3372,224.2194,m,1,1.8707,,[],[],[],[],[],[],[],224.2195,226.2205,226.2205,226.2206,[],[],[],[],[],[],[],,226.2207,226.2208,0.094332089,-0.190703895,0,0,0,,0,30,30,94,1,2,word,CLINICAL,cursive,clinical_c.png,,,,,
,,,,31947,001,2025-10-26_18h49.20.093,HW_LDT_1,2024.2.4,MacIntel,59.88023952,,,,,,,,,,,,,,,,,,,,,,226.2222,226.4205,226.4206,226.9204,,,,,,,,,,,,,,0.9573,1,,,,,,,,,,,,,,m,,,,,,,,,,,,,,,32,0,226.921,227.8864,m,1,0.9573,,[],[],[],[],[],[],[],227.8864,229.8871,229.8872,229.8874,[],[],[],[],[],[],[],,229.8874,229.8875,0.094332089,-0.190703895,0,0,0,,0,31,31,131,1,2,word,POPULAR,cursive,popular_c.png,,,,,
,,,,31947,001,2025-10-26_18h49.20.093,HW_LDT_1,2024.2.4,MacIntel,59.88023952,,,,,,,,,,,,,,,,,,,,,,229.8885,230.0863,230.0863,230.5871,,,,,,,,,,,,,,1.6704,0,,,,,,,,,,,,,,m,,,,,,,,,,,,,,,33,1,230.5876,232.2705,z,0,1.6704,,[],[],[],[],[],[],[],232.2706,234.2705,234.2706,235.5039,[],[],[],[],[],[],[],z,235.504,235.5041,0.094332089,-0.190703895,0,0,0,,0,32,32,90,1,2,word,CAPITAL,cursive,capital_c.png,1.2208,,,,
,,,,31947,001,2025-10-26_18h49.20.093,HW_LDT_1,2024.2.4,MacIntel,59.88023952,,,,,,,,,,,,,,,,,,,,,,235.5052,235.7029,235.7029,236.2039,,,,,,,,,,,,,,2.4864,0,,,,,,,,,,,,,,m,,,,,,,,,,,,,,,34,1,236.2045,238.703,z,0,2.4864,,[],[],[],[],[],[],[],238.7031,240.7041,240.7041,242.0706,[],[],[],[],[],[],[],z,242.0708,242.0708,0.094332089,-0.190703895,0,0,0,,0,33,33,146,1,2,word,RETIRE,cursive,retire_c.png,1.3654,,,,
,,,,31947,001,2025-10-26_18h49.20.093,HW_LDT_1,2024.2.4,MacIntel,59.88023952,,,,,,,,,,,,,,,,,,,,,,242.0722,242.2707,242.2707,242.7708,,,,,,,,,,,,,,2.0741,0,,,,,,,,,,,,,,m,,,,,,,,,,,,,,,35,0,242.7713,244.8541,z,0,2.0741,,[],[],[],[],[],[],[],244.8542,246.8542,246.8542,246.8545,[],[],[],[],[],[],[],,246.8545,246.8547,0.094332089,-0.190703895,0,0,0,,0,34,34,106,1,2,word,ELABORATE,cursive,elaborate_c.png,,,,,
,,,,31947,001,2025-10-26_18h49.20.093,HW_LDT_1,2024.2.4,MacIntel,59.88023952,,,,,,,,,,,,,,,,,,,,,,246.8558,247.0542,247.0543,247.5543,,,,,,,,,,,,,,1.1367,1,,,,,,,,,,,,,,z,,,,,,,,,,,,,,,36,0,247.5548,248.7044,z,1,1.1367,,[],[],[],[],[],[],[],248.7045,250.7043,250.7044,250.7044,[],[],[],[],[],[],[],,250.7045,250.7047,0.094332089,-0.190703895,0,0,0,,0,35,35,9,1,2,RL,denficy,print,denficy_p.png,,,,,
,,,,31947,001,2025-10-26_18h49.20.093,HW_LDT_1,2024.2.4,MacIntel,59.88023952,,,,,,,,,,,,,,,,,,,,,,250.7063,250.9042,250.9043,251.4043,,,,,,,,,,,,,,4.657,1,,,,,,,,,,,,,,z,,,,,,,,,,,,,,,37,1,251.4048,256.071,z,1,4.657,,[],[],[],[],[],[],[],256.0711,258.0711,258.0712,258.9879,[],[],[],[],[],[],[],z,258.988,258.9881,0.094332089,-0.190703895,0,0,0,,0,36,36,61,1,2,TL,nuremical,cursive,nuremical_c.png,0.9081,,,,
,,,,31947,001,2025-10-26_18h49.20.093,HW_LDT_1,2024.2.4,MacIntel,59.88023952,,,,,,,,,,,,,,,,,,,,,,258.9895,259.1876,259.1876,259.6877,,,,,,,,,,,,,,1.5364,1,,,,,,,,,,,,,,m,,,,,,,,,,,,,,,38,0,259.6882,261.2378,m,1,1.5364,,[],[],[],[],[],[],[],261.2379,263.2379,263.2379,263.2381,[],[],[],[],[],[],[],,263.2381,263.2381,0.094332089,-0.190703895,0,0,0,,0,37,37,159,1,2,word,VETERAN,print,veteran_p.png,,,,,
,,,,31947,001,2025-10-26_18h49.20.093,HW_LDT_1,2024.2.4,MacIntel,59.88023952,,,,,,,,,,,,,,,,,,,,,,263.2391,263.4378,263.4379,263.9369,,,,,,,,,,,,,,2.6143,1,,,,,,,,,,,,,,z,,,,,,,,,,,,,,,39,0,263.9372,266.5545,z,1,2.6143,,[],[],[],[],[],[],[],266.5546,268.5537,268.5538,268.5539,[],[],[],[],[],[],[],,268.554,268.554,0.093706704,-0.190386392,0,0,0,,0,38,38,69,1,2,TL,resufal,cursive,resufal_c.png,,,,,
,,,,31947,001,2025-10-26_18h49.20.093,HW_LDT_1,2024.2.4,MacIntel,59.88023952,,,,,,,,,,,,,,,,,,,,,,268.5546,268.7547,268.7548,269.2545,,,,,,,,,,,,,,1.295,1,,,,,,,,,,,,,,z,,,,,,,,,,,,,,,40,0,269.2551,270.5545,z,1,1.295,,[],[],[],[],[],[],[],270.5545,272.5547,272.5547,272.5548,[],[],[],[],[],[],[],,272.5548,272.5549,0.093706704,-0.190386392,0,0,0,,0,39,39,23,1,2,RL,procogal,cursive,procogal_c.png,,,,,
,,,,31947,001,2025-10-26_18h49.20.093,HW_LDT_1,2024.2.4,MacIntel,59.88023952,,,,,,,,,,,,,,,,,,,,,,272.5556,272.7546,272.7547,273.2545,,,,,,,,,,,,,,0.9028,1,,,,,,,,,,,,,,z,,,,,,,,,,,,,,,41,0,273.2551,274.1713,z,1,0.9028,,[],[],[],[],[],[],[],274.1714,276.1705,276.1705,276.1708,[],[],[],[],[],[],[],,276.1708,276.1709,0.093706704,-0.190386392,0,0,0,,0,40,40,78,1,2,TL,stogare,print,stogare_p.png,,,,,
,,,,31947,001,2025-10-26_18h49.20.093,HW_LDT_1,2024.2.4,MacIntel,59.88023952,,,,,,,,,,,,,,,,,,,,,,276.1718,276.3715,276.3715,276.8709,,,,,,,,,,,,,,1.9045,1,,,,,,,,,,,,,,z,,,,,,,,,,,,,,,42,0,276.8714,278.7882,z,1,1.9045,,[],[],[],[],[],[],[],278.7883,280.7881,280.7882,280.7883,[],[],[],[],[],[],[],,280.7884,280.7885,0.093706704,-0.190386392,0,0,0,,0,41,41,33,1,2,RL,strapely,cursive,strapely_c.png,,,,,
,,,,31947,001,2025-10-26_18h49.20.093,HW_LDT_1,2024.2.4,MacIntel,59.88023952,,,,,,,,,,,,,,,,,,,,,,280.7895,280.9881,280.9882,281.488,,,,,,,,,,,,,,1.0034,1,,,,,,,,,,,,,,m,,,,,,,,,,,,,,,43,0,281.4884,282.505,m,1,1.0034,,[],[],[],[],[],[],[],282.5051,284.505,284.505,284.5052,[],[],[],[],[],[],[],,284.5053,284.5053,0.093706704,-0.190386392,0,0,0,,0,42,42,133,1,2,word,PROVIDE,cursive,provide_c.png,,,,,
,,,,31947,001,2025-10-26_18h49.20.093,HW_LDT_1,2024.2.4,MacIntel,59.88023952,,,,,,,,,,,,,,,,,,,,,,284.5068,284.7051,284.7051,285.205,,,,,,,,,,,,,,2.0699,1,,,,,,,,,,,,,,z,,,,,,,,,,,,,,,44,0,285.2055,287.2884,z,1,2.0699,,[],[],[],[],[],[],[],287.2884,289.2883,289.2884,289.2885,[],[],[],[],[],[],[],,289.2885,289.2887,0.093706704,-0.190386392,0,0,0,,0,43,43,66,1,2,TL,prodive,cursive,prodive_c.png,,,,,
,,,,31947,001,2025-10-26_18h49.20.093,HW_LDT_1,2024.2.4,MacIntel,59.88023952,,,,,,,,,,,,,,,,,,,,,,289.2898,289.4883,289.4884,289.9883,,,,,,,,,,,,,,0.9569,1,,,,,,,,,,,,,,z,,,,,,,,,,,,,,,45,0,289.9887,290.9551,z,1,0.9569,,[],[],[],[],[],[],[],290.9552,292.9551,292.9551,292.9553,[],[],[],[],[],[],[],,292.9553,292.9554,0.093706704,-0.190386392,0,0,0,,0,44,44,49,1,2,TL,dedace,print,dedace_p.png,,,,,
,,,,31947,001,2025-10-26_18h49.20.093,HW_LDT_1,2024.2.4,MacIntel,59.88023952,,,,,,,,,,,,,,,,,,,,,,292.9565,293.154,293.1541,293.6551,,,,,,,,,,,,,,1.7583,1,,,,,,,,,,,,,,m,,,,,,,,,,,,,,,46,1,293.6558,295.421,m,1,1.7583,,[],[],[],[],[],[],[],295.4211,297.4218,297.4219,298.4054,[],[],[],[],[],[],[],z,298.4055,298.4057,0.093706704,-0.190386392,0,0,0,,0,45,45,150,1,2,word,SENTIMENT,cursive,sentiment_c.png,0.9829,,,,
,,,,31947,001,2025-10-26_18h49.20.093,HW_LDT_1,2024.2.4,MacIntel,59.88023952,,,,,,,,,,,,,,,,,,,,,,298.407,298.6053,298.6053,299.1052,,,,,,,,,,,,,,1.4376,1,,,,,,,,,,,,,,m,,,,,,,,,,,,,,,47,1,299.1058,300.5554,m,1,1.4376,,[],[],[],[],[],[],[],300.5554,302.5551,302.5552,305.1386,[],[],[],[],[],[],[],z,305.1387,305.1388,0.093706704,-0.190386392,0,0,0,,0,46,46,140,1,2,word,RELATIVE,print,relative_p.png,2.5826,,,,
,,,,31947,001,2025-10-26_18h49.20.093,HW_LDT_1,2024.2.4,MacIntel,59.88023952,,,,,,,,,,,,,,,,,,,,,,305.1399,305.3385,305.3386,305.8388,,,,,,,,,,,,,,1.865,1,,,,,,,,,,,,,,m,,,,,,,,,,,,,,,48,0,305.8393,307.7053,m,1,1.865,,[],[],[],[],[],[],[],307.7054,309.7054,309.7055,309.7056,[],[],[],[],[],[],[],,309.7056,309.7057,0.093706704,-0.190386392,0,0,0,,0,47,47,136,1,2,word,RADICAL,cursive,radical_c.png,,,,,
,,,,31947,001,2025-10-26_18h49.20.093,HW_LDT_1,2024.2.4,MacIntel,59.88023952,,,,,,,,,,,,,,,,,,,,,,309.7068,309.9052,309.9053,310.4054,,,,,,,,,,,,,,1.4532,1,,,,,,,,,,,,,,z,,,,,,,,,,,,,,,49,1,310.4059,311.8721,z,1,1.4532,,[],[],[],[],[],[],[],311.8723,313.8723,313.8723,314.7723,[],[],[],[],[],[],[],z,314.7724,314.7726,0.093706704,-0.190386392,0,0,0,,0,48,48,58,1,2,TL,mitilary,cursive,mitilary_c.png,0.8994,,,,
,,,,31947,001,2025-10-26_18h49.20.093,HW_LDT_1,2024.2.4,MacIntel,59.88023952,,,,,,,,,,,,,,,,,,,,,,314.7744,314.9723,314.9723,315.4722,,,,,,,,,,,,,,2.1815,1,,,,,,,,,,,,,,z,,,,,,,,,,,,,,,50,0,315.4728,317.6555,z,1,2.1815,,[],[],[],[],[],[],[],317.6556,319.6557,319.6558,319.656,[],[],[],[],[],[],[],,319.656,319.6561,0.093706704,-0.190386392,0,0,0,,0,49,49,53,1,2,TL,edivent,cursive,edivent_c.png,,,,,
,,,,31947,001,2025-10-26_18h49.20.093,HW_LDT_1,2024.2.4,MacIntel,59.88023952,,,,,,,,,,,,,,,,,,,,,,319.6575,319.8557,319.8557,320.3556,,,,,,,,,,,,,,1.9521,1,,,,,,,,,,,,,,z,,,,,,,,,,,,,,,51,0,320.3561,322.3224,z,1,1.9521,,[],[],[],[],[],[],[],322.3225,324.3224,324.3225,324.3226,[],[],[],[],[],[],[],,324.3226,324.3227,0.093706704,-0.190386392,0,0,0,,0,50,50,24,1,2,RL,rasibal,cursive,rasibal_c.png,,,,,
,,,,31947,001,2025-10-26_18h49.20.093,HW_LDT_1,2024.2.4,MacIntel,59.88023952,,,,,,,,,,,,,,,,,,,,,,324.324,324.5223,324.5224,325.0224,,,,,,,,,,,,,,1.1202,1,,,,,,,,,,,,,,m,,,,,,,,,,,,,,,52,0,325.0229,326.1559,m,1,1.1202,,[],[],[],[],[],[],[],326.1559,328.156,328.1561,328.1563,[],[],[],[],[],[],[],,328.1564,328.1565,0.093706704,-0.190386392,0,0,0,,0,51,51,115,1,2,word,LOGICAL,print,logical_p.png,,,,,
,,,,31947,001,2025-10-26_18h49.20.093,HW_LDT_1,2024.2.4,MacIntel,59.88023952,,,,,,,,,,,,,,,,,,,,,,328.1579,328.3558,328.356,328.8558,,,,,,,,,,,,,,1.5385,1,,,,,,,,,,,,,,z,,,,,,,,,,,,,,,53,0,328.8564,330.4059,z,1,1.5385,,[],[],[],[],[],[],[],330.406,332.4055,332.4056,332.4057,[],[],[],[],[],[],[],,332.4057,332.4058,0.093706704,-0.190386392,0,0,0,,0,52,52,12,1,2,RL,gralekul,cursive,gralekul_c.png,,,,,
,,,,31947,001,2025-10-26_18h49.20.093,HW_LDT_1,2024.2.4,MacIntel,59.88023952,,,,,,,,,,,,,,,,,,,,,,332.4066,332.6055,332.6055,333.1058,,,,,,,,,,,,,,3.1595,1,,,,,,,,,,,,,,z,,,,,,,,,,,,,,,54,0,333.1064,336.2728,z,1,3.1595,,[],[],[],[],[],[],[],336.2728,338.272,338.272,338.2721,[],[],[],[],[],[],[],,338.2722,338.2722,0.093706704,-0.190386392,0,0,0,,0,53,53,62,1,2,TL,opmital,cursive,opmital_c.png,,,,,
,,,,31947,001,2025-10-26_18h49.20.093,HW_LDT_1,2024.2.4,MacIntel,59.88023952,,,,,,,,,,,,,,,,,,,,,,338.2732,338.4727,338.4727,338.9728,,,,,,,,,,,,,,0.7648,1,,,,,,,,,,,,,,m,,,,,,,,,,,,,,,55,1,338.9733,339.7394,m,1,0.7648,,[],[],[],[],[],[],[],339.7394,341.7395,341.7395,342.8227,[],[],[],[],[],[],[],m,342.8228,342.8228,0.093706704,-0.190386392,0,0,0,,0,54,54,154,1,2,word,STORAGE,print,storage_p.png,1.0814,,,,
,,,,31947,001,2025-10-26_18h49.20.093,HW_LDT_1,2024.2.4,MacIntel,59.88023952,,,,,,,,,,,,,,,,,,,,,,342.8238,343.0227,343.0227,343.5228,,,,,,,,,,,,,,2.1154,1,,,,,,,,,,,,,,m,,,,,,,,,,,,,,,56,0,343.5231,345.6394,m,1,2.1154,,[],[],[],[],[],[],[],345.6395,347.6395,347.6396,347.6397,[],[],[],[],[],[],[],,347.6399,347.64,0.093706704,-0.190386392,0,0,0,,0,55,55,102,1,2,word,DENSITY,print,density_p.png,,,,,
,,,,31947,001,2025-10-26_18h49.20.093,HW_LDT_1,2024.2.4,MacIntel,59.88023952,,,,,,,,,,,,,,,,,,,,,,347.6411,347.8396,347.8397,348.3396,,,,,,,,,,,,,,0.9366,1,,,,,,,,,,,,,,m,,,,,,,,,,,,,,,57,1,348.34,349.2896,m,1,0.9366,,[],[],[],[],[],[],[],349.2897,351.2895,351.2896,352.4395,[],[],[],[],[],[],[],m,352.4395,352.4396,0.093706704,-0.190386392,0,0,0,,0,56,56,88,1,2,word,CAMERA,print,camera_p.png,1.1436,,,,
,,,,31947,001,2025-10-26_18h49.20.093,HW_LDT_1,2024.2.4,MacIntel,59.88023952,,,,,,,,,,,,,,,,,,,,,,352.4402,352.6397,352.6397,353.1396,,,,,,,,,,,,,,2.824,1,,,,,,,,,,,,,,m,,,,,,,,,,,,,,,58,0,353.1401,355.973,m,1,2.824,,[],[],[],[],[],[],[],355.9731,357.9726,357.9726,357.9728,[],[],[],[],[],[],[],,357.9729,357.973,0.093706704,-0.190386392,0,0,0,,0,57,57,134,1,2,word,QUALIFY,cursive,qualify_c.png,,,,,
,,,,31947,001,2025-10-26_18h49.20.093,HW_LDT_1,2024.2.4,MacIntel,59.88023952,,,,,,,,,,,,,,,,,,,,,,357.9743,358.1731,358.1732,358.6731,,,,,,,,,,,,,,4.8211,1,,,,,,,,,,,,,,z,,,,,,,,,,,,,,,59,0,358.6735,363.5066,z,1,4.8211,,[],[],[],[],[],[],[],363.5067,365.5065,365.5065,365.5067,[],[],[],[],[],[],[],,365.5068,365.5068,0.093706704,-0.190386392,0,0,0,,0,58,58,56,1,2,TL,marnigal,cursive,marnigal_c.png,,,,,
,,,,31947,001,2025-10-26_18h49.20.093,HW_LDT_1,2024.2.4,MacIntel,59.88023952,,,,,,,,,,,,,,,,,,,,,,365.5081,365.7067,365.7068,366.2065,,,,,,,,,,,,,,3.8534,1,,,,,,,,,,,,,,z,,,,,,,,,,,,,,,60,0,366.207,370.0733,z,1,3.8534,,[],[],[],[],[],[],[],370.0734,372.0731,372.0731,372.0733,[],[],[],[],[],[],[],,372.0733,372.0734,0.093706704,-0.190386392,0,0,0,,0,59,59,40,1,2,TL,bevoled,cursive,bevoled_c.png,,,,,
,,,,31947,001,2025-10-26_18h49.20.093,HW_LDT_1,2024.2.4,MacIntel,59.88023952,,,,,,,,,,,,,,,,,,,,,,372.0741,372.2732,372.2733,372.7733,,,,,,,,,,,,,,0.8034,1,,,,,,,,,,,,,,m,,,,,,,,,,,,,,,61,0,372.7737,373.5901,m,1,0.8034,,[],[],[],[],[],[],[],373.5901,375.5896,375.5896,375.5899,[],[],[],[],[],[],[],,375.5899,375.5899,0.093706704,-0.187605834,0,0,0,,0,60,60,114,1,2,word,LOCATE,print,locate_p.png,,,,,
,,,,31947,001,2025-10-26_18h49.20.093,HW_LDT_1,2024.2.4,MacIntel,59.88023952,,,,,,,,,,,,,,,,,,,,,,375.5912,375.7896,375.7897,376.2894,,,,,,,,,,,,,,1.9652,1,,,,,,,,,,,,,,z,,,,,,,,,,,,,,,62,0,376.2897,378.2565,z,1,1.9652,,[],[],[],[],[],[],[],378.2565,380.257,380.257,380.2572,[],[],[],[],[],[],[],,380.2573,380.2575,0.093706704,-0.187317195,0,0,0,,0,61,61,31,1,2,RL,spetisic,print,spetisic_p.png,,,,,
,,,,31947,001,2025-10-26_18h49.20.093,HW_LDT_1,2024.2.4,MacIntel,59.88023952,,,,,,,,,,,,,,,,,,,,,,380.2588,380.457,380.457,380.956,,,,,,,,,,,,,,0.7487,1,,,,,,,,,,,,,,m,,,,,,,,,,,,,,,63,0,380.9565,381.707,m,1,0.7487,,[],[],[],[],[],[],[],381.7071,383.7069,383.707,383.7071,[],[],[],[],[],[],[],,383.7072,383.7072,0.093706704,-0.187317195,0,0,0,,0,62,62,152,1,2,word,SPECIMEN,print,specimen_p.png,,,,,
,,,,31947,001,2025-10-26_18h49.20.093,HW_LDT_1,2024.2.4,MacIntel,59.88023952,,,,,,,,,,,,,,,,,,,,,,383.7082,383.907,383.9071,384.4069,,,,,,,,,,,,,,2.0822,1,,,,,,,,,,,,,,z,,,,,,,,,,,,,,,64,0,384.4075,386.4905,z,1,2.0822,,[],[],[],[],[],[],[],386.4906,388.49,388.49,388.4902,[],[],[],[],[],[],[],,388.4902,388.4903,0.093706704,-0.186744728,0,0,0,,0,63,63,1,1,2,RL,caleberia,print,caleberia_p.png,,,,,
,,,,31947,001,2025-10-26_18h49.20.093,HW_LDT_1,2024.2.4,MacIntel,59.88023952,,,,,,,,,,,,,,,,,,,,,,388.491,388.6893,388.6894,389.19,,,,,,,,,,,,,,1.7037,1,,,,,,,,,,,,,,z,,,,,,,,,,,,,,,65,0,389.1905,390.9073,z,1,1.7037,,[],[],[],[],[],[],[],390.9074,392.9071,392.9072,392.9073,[],[],[],[],[],[],[],,392.9073,392.9074,0.093706704,-0.186460899,0,0,0,,0,64,64,16,1,2,RL,losipal,print,losipal_p.png,,,,,
,,,,31947,001,2025-10-26_18h49.20.093,HW_LDT_1,2024.2.4,MacIntel,59.88023952,,,,,,,,,,,,,,,,,,,,,,392.9086,393.107,393.1071,393.6071,,,,,,,,,,,,,,2.6867,1,,,,,,,,,,,,,,m,,,,,,,,,,,,,,,66,0,393.6077,396.3073,m,1,2.6867,,[],[],[],[],[],[],[],396.3074,398.3061,398.3062,398.3063,[],[],[],[],[],[],[],,398.3064,398.3064,0.093706704,-0.186460899,0,0,0,,0,65,65,91,1,2,word,CARDINAL,cursive,cardinal_c.png,,,,,
,,,,31947,001,2025-10-26_18h49.20.093,HW_LDT_1,2024.2.4,MacIntel,59.88023952,,,,,,,,,,,,,,,,,,,,,,398.3074,398.5073,398.5073,399.0073,,,,,,,,,,,,,,1.4517,1,,,,,,,,,,,,,,z,,,,,,,,,,,,,,,67,1,399.0079,400.474,z,1,1.4517,,[],[],[],[],[],[],[],400.4741,402.4734,402.4735,404.8738,[],[],[],[],[],[],[],m,404.8739,404.8739,0.093706704,-0.186177071,0,0,0,,0,66,66,0,1,2,RL,adnicory,print,adnicory_p.png,2.3977,,,,
,,,,31947,001,2025-10-26_18h49.20.093,HW_LDT_1,2024.2.4,MacIntel,59.88023952,,,,,,,,,,,,,,,,,,,,,,404.8746,405.074,405.074,405.574,,,,,,,,,,,,,,0.9414,1,,,,,,,,,,,,,,m,,,,,,,,,,,,,,,68,0,405.5744,406.5242,m,1,0.9414,,[],[],[],[],[],[],[],406.5242,408.5241,408.5242,408.5243,[],[],[],[],[],[],[],,408.5243,408.5244,0.093706704,-0.186177071,0,0,0,,0,67,67,89,1,2,word,CAPACITY,print,capacity_p.png,,,,,
,,,,31947,001,2025-10-26_18h49.20.093,HW_LDT_1,2024.2.4,MacIntel,59.88023952,,,,,,,,,,,,,,,,,,,,,,408.5254,408.7241,408.7242,409.2242,,,,,,,,,,,,,,1.6899,1,,,,,,,,,,,,,,z,,,,,,,,,,,,,,,69,0,409.2247,410.9241,z,1,1.6899,,[],[],[],[],[],[],[],410.9242,412.9241,412.9243,412.9245,[],[],[],[],[],[],[],,412.9246,412.9247,0.093706704,-0.186177071,0,0,0,,0,68,68,50,1,2,TL,donimant,print,donimant_p.png,,,,,
,,,,31947,001,2025-10-26_18h49.20.093,HW_LDT_1,2024.2.4,MacIntel,59.88023952,,,,,,,,,,,,,,,,,,,,,,412.9262,413.1242,413.1243,413.6242,,,,,,,,,,,,,,0.8949,1,,,,,,,,,,,,,,z,,,,,,,,,,,,,,,70,0,413.625,414.5239,z,1,0.8949,,[],[],[],[],[],[],[],414.524,416.5244,416.5244,416.5248,[],[],[],[],[],[],[],,416.5248,416.5249,0.093706704,-0.186177071,0,0,0,,0,69,69,32,1,2,RL,speniven,print,speniven_p.png,,,,,
,,,,31947,001,2025-10-26_18h49.20.093,HW_LDT_1,2024.2.4,MacIntel,59.88023952,,,,,,,,,,,,,,,,,,,,,,416.5265,416.7243,416.7244,417.2244,,,,,,,,,,,,,,2.3904,1,,,,,,,,,,,,,,z,,,,,,,,,,,,,,,71,0,417.225,419.6243,z,1,2.3904,,[],[],[],[],[],[],[],419.6245,421.6245,421.6246,421.6248,[],[],[],[],[],[],[],,421.6249,421.625,0.093706704,-0.186177071,0,0,0,,0,70,70,34,1,2,RL,trilude,cursive,trilude_c.png,,,,,
,,,,31947,001,2025-10-26_18h49.20.093,HW_LDT_1,2024.2.4,MacIntel,59.88023952,,,,,,,,,,,,,,,,,,,,,,421.6264,421.8244,421.8245,422.3244,,,,,,,,,,,,,,0.8691,1,,,,,,,,,,,,,,z,,,,,,,,,,,,,,,72,0,422.325,423.2078,z,1,0.8691,,[],[],[],[],[],[],[],423.2078,425.2079,425.208,425.2081,[],[],[],[],[],[],[],,425.2082,425.2082,0.093706704,-0.186177071,0,0,0,,0,71,71,18,1,2,RL,mesibine,print,mesibine_p.png,,,,,
,,,,31947,001,2025-10-26_18h49.20.093,HW_LDT_1,2024.2.4,MacIntel,59.88023952,,,,,,,,,,,,,,,,,,,,,,425.2093,425.4078,425.4079,425.9078,,,,,,,,,,,,,,0.9033,1,,,,,,,,,,,,,,m,,,,,,,,,,,,,,,73,0,425.9083,426.8247,m,1,0.9033,,[],[],[],[],[],[],[],426.8247,428.8248,428.8249,428.8251,[],[],[],[],[],[],[],,428.8252,428.8252,0.093706704,-0.186177071,0,0,0,,0,72,72,110,1,2,word,HERITAGE,print,heritage_p.png,,,,,
,,,,31947,001,2025-10-26_18h49.20.093,HW_LDT_1,2024.2.4,MacIntel,59.88023952,,,,,,,,,,,,,,,,,,,,,,428.8268,429.0245,429.0245,429.5235,,,,,,,,,,,,,,1.654,1,,,,,,,,,,,,,,z,,,,,,,,,,,,,,,74,0,429.5242,431.1912,z,1,1.654,,[],[],[],[],[],[],[],431.1913,433.1914,433.1914,433.1916,[],[],[],[],[],[],[],,433.1917,433.1918,0.093706704,-0.186177071,0,0,0,,0,73,73,14,1,2,RL,insibate,cursive,insibate_c.png,,,,,
,,,,31947,001,2025-10-26_18h49.20.093,HW_LDT_1,2024.2.4,MacIntel,59.88023952,,,,,,,,,,,,,,,,,,,,,,433.193,433.3912,433.3912,433.8914,,,,,,,,,,,,,,2.4365,0,,,,,,,,,,,,,,m,,,,,,,,,,,,,,,75,0,433.8919,436.3413,z,0,2.4365,,[],[],[],[],[],[],[],436.3414,438.3413,438.3414,438.3416,[],[],[],[],[],[],[],,438.3416,438.3417,0.093706704,-0.186177071,0,0,0,,0,74,74,142,1,2,word,REMOTE,cursive,remote_c.png,,,,,
,,,,31947,001,2025-10-26_18h49.20.093,HW_LDT_1,2024.2.4,MacIntel,59.88023952,,,,,,,,,,,,,,,,,,,,,,438.3431,438.5414,438.5414,439.041,,,,,,,,,,,,,,2.8807,1,,,,,,,,,,,,,,z,,,,,,,,,,,,,,,76,0,439.0415,441.9247,z,1,2.8807,,[],[],[],[],[],[],[],441.9248,443.9245,443.9246,443.9249,[],[],[],[],[],[],[],,443.9249,443.925,0.093706704,-0.186177071,0,0,0,,0,75,75,20,1,2,RL,onegator,cursive,onegator_c.png,,,,,
,,,,31947,001,2025-10-26_18h49.20.093,HW_LDT_1,2024.2.4,MacIntel,59.88023952,,,,,,,,,,,,,,,,,,,,,,443.9265,444.1246,444.1246,444.6246,,,,,,,,,,,,,,1.6821,1,,,,,,,,,,,,,,z,,,,,,,,,,,,,,,77,0,444.6252,446.3082,z,1,1.6821,,[],[],[],[],[],[],[],446.3083,448.3082,448.3082,448.3084,[],[],[],[],[],[],[],,448.3084,448.3085,0.093706704,-0.186177071,0,0,0,,0,76,76,41,1,2,TL,befenit,cursive,befenit_c.png,,,,,
,,,,31947,001,2025-10-26_18h49.20.093,HW_LDT_1,2024.2.4,MacIntel,59.88023952,,,,,,,,,,,,,,,,,,,,,,448.3097,448.5081,448.5081,449.0082,,,,,,,,,,,,,,1.8977,1,,,,,,,,,,,,,,z,,,,,,,,,,,,,,,78,0,449.0088,450.9082,z,1,1.8977,,[],[],[],[],[],[],[],450.9082,452.9083,452.9084,452.9086,[],[],[],[],[],[],[],,452.9087,452.9088,0.093706704,-0.186177071,0,0,0,,0,77,77,68,1,2,TL,quatily,cursive,quatily_c.png,,,,,
,,,,31947,001,2025-10-26_18h49.20.093,HW_LDT_1,2024.2.4,MacIntel,59.88023952,,,,,,,,,,,,,,,,,,,,,,452.9103,453.1082,453.1082,453.6084,,,,,,,,,,,,,,2.4356,1,,,,,,,,,,,,,,z,,,,,,,,,,,,,,,79,0,453.6091,456.0571,z,1,2.4356,,[],[],[],[],[],[],[],456.0572,458.058,458.0581,458.0581,[],[],[],[],[],[],[],,458.0581,458.0582,0.093706704,-0.186177071,0,0,0,,0,78,78,74,1,2,TL,rerite,cursive,rerite_c.png,,,,,
,,,,31947,001,2025-10-26_18h49.20.093,HW_LDT_1,2024.2.4,MacIntel,59.88023952,,,,,,,,,,,,,,,,,,,,,,458.0586,458.2582,458.2582,458.7584,,,,,,,,,,,,,,1.7655,1,,,,,,,,,,,,,,m,,,,,,,,,,,,,,,80,0,458.7588,460.5252,m,1,1.7655,,[],[],[],[],[],[],[],460.5254,462.5252,462.5252,462.5254,[],[],[],[],[],[],[],,462.5254,585.6945,0.068046683,-0.375211669,1,0,0,,0,79,79,116,1,2,word,MARGINAL,cursive,marginal_c.png,,,break_done_button,,
,,,,31947,001,2025-10-26_18h49.20.093,HW_LDT_1,2024.2.4,MacIntel,59.88023952,,,,,,,,,,,,,,,,,,,,,,585.6955,585.8942,585.8942,586.3943,,,,,,,,,,,,,,1.8314,1,,,,,,,,,,,,,,z,,,,,,,,,,,,,,,81,0,586.395,588.2276,z,1,1.8314,,[],[],[],[],[],[],[],588.2277,590.2266,590.2266,590.2268,[],[],[],[],[],[],[],,590.2268,590.2269,0.068046683,-0.375355988,0,0,0,,0,80,80,79,1,2,TL,vadility,print,vadility_p.png,,,,,
,,,,31947,001,2025-10-26_18h49.20.093,HW_LDT_1,2024.2.4,MacIntel,59.88023952,,,,,,,,,,,,,,,,,,,,,,590.2277,590.4266,590.4267,590.9276,,,,,,,,,,,,,,1.4159,1,,,,,,,,,,,,,,z,,,,,,,,,,,,,,,82,1,590.9281,592.3449,z,1,1.4159,,[],[],[],[],[],[],[],592.345,594.3434,594.3436,596.3947,[],[],[],[],[],[],[],m,596.3948,596.3949,0.068046683,-0.375355988,0,0,0,,0,81,81,77,1,2,TL,sloten,print,sloten_p.png,2.0382,,,,
,,,,31947,001,2025-10-26_18h49.20.093,HW_LDT_1,2024.2.4,MacIntel,59.88023952,,,,,,,,,,,,,,,,,,,,,,596.3961,596.5942,596.5943,597.0944,,,,,,,,,,,,,,2.3485,0,,,,,,,,,,,,,,m,,,,,,,,,,,,,,,83,0,597.095,599.4444,z,0,2.3485,,[],[],[],[],[],[],[],599.4445,601.4437,601.4437,601.4439,[],[],[],[],[],[],[],,601.4439,601.4441,0.068046683,-0.375355988,0,0,0,,0,82,82,121,1,2,word,MISTAKE,cursive,mistake_c.png,,,,,
,,,,31947,001,2025-10-26_18h49.20.093,HW_LDT_1,2024.2.4,MacIntel,59.88023952,,,,,,,,,,,,,,,,,,,,,,601.4453,601.6446,601.6447,602.1447,,,,,,,,,,,,,,1.3982,1,,,,,,,,,,,,,,m,,,,,,,,,,,,,,,84,0,602.1452,603.5442,m,1,1.3982,,[],[],[],[],[],[],[],603.5442,605.5436,605.5436,605.5438,[],[],[],[],[],[],[],,605.5438,605.5438,0.068046683,-0.375355988,0,0,0,,0,83,83,80,1,2,word,ACADEMY,cursive,academy_c.png,,,,,
,,,,31947,001,2025-10-26_18h49.20.093,HW_LDT_1,2024.2.4,MacIntel,59.88023952,,,,,,,,,,,,,,,,,,,,,,605.5448,605.7444,605.7445,606.2447,,,,,,,,,,,,,,3.3981,1,,,,,,,,,,,,,,m,,,,,,,,,,,,,,,85,0,606.2452,609.6447,m,1,3.3981,,[],[],[],[],[],[],[],609.6447,611.6446,611.6447,611.6449,[],[],[],[],[],[],[],,611.6449,611.645,0.068046683,-0.375355988,0,0,0,,0,84,84,86,1,2,word,BESIDE,cursive,beside_c.png,,,,,
,,,,31947,001,2025-10-26_18h49.20.093,HW_LDT_1,2024.2.4,MacIntel,59.88023952,,,,,,,,,,,,,,,,,,,,,,611.6462,611.8447,611.8448,612.3438,,,,,,,,,,,,,,1.0655,1,,,,,,,,,,,,,,z,,,,,,,,,,,,,,,86,0,612.3442,613.4115,z,1,1.0655,,[],[],[],[],[],[],[],613.4116,615.4116,615.4116,615.4119,[],[],[],[],[],[],[],,615.4119,615.412,0.068046683,-0.375355988,0,0,0,,0,85,85,60,1,2,TL,molibe,print,molibe_p.png,,,,,
,,,,31947,001,2025-10-26_18h49.20.093,HW_LDT_1,2024.2.4,MacIntel,59.88023952,,,,,,,,,,,,,,,,,,,,,,615.4133,615.6116,615.6116,616.1114,,,,,,,,,,,,,,2.6721,1,,,,,,,,,,,,,,z,,,,,,,,,,,,,,,87,1,616.112,618.7949,z,1,2.6721,,[],[],[],[],[],[],[],618.7949,620.7949,620.795,622.1618,[],[],[],[],[],[],[],z,622.1618,622.1619,0.068046683,-0.375355988,0,0,0,,0,86,86,29,1,2,RL,samite,cursive,samite_c.png,1.3536,,,,
,,,,31947,001,2025-10-26_18h49.20.093,HW_LDT_1,2024.2.4,MacIntel,59.88023952,,,,,,,,,,,,,,,,,,,,,,622.1629,622.3616,622.3617,622.8616,,,,,,,,,,,,,,1.3087,1,,,,,,,,,,,,,,m,,,,,,,,,,,,,,,88,0,622.8622,624.1783,m,1,1.3087,,[],[],[],[],[],[],[],624.1784,626.1784,626.1784,626.1787,[],[],[],[],[],[],[],,626.1787,626.1789,0.068046683,-0.375355988,0,0,0,,0,87,87,104,1,2,word,DOMINANT,print,dominant_p.png,,,,,
,,,,31947,001,2025-10-26_18h49.20.093,HW_LDT_1,2024.2.4,MacIntel,59.88023952,,,,,,,,,,,,,,,,,,,,,,626.1797,626.3783,626.3784,626.8784,,,,,,,,,,,,,,0.9987,1,,,,,,,,,,,,,,m,,,,,,,,,,,,,,,89,0,626.8787,627.8784,m,1,0.9987,,[],[],[],[],[],[],[],627.8785,629.8774,629.8775,629.8776,[],[],[],[],[],[],[],,629.8777,629.8777,0.068046683,-0.375355988,0,0,0,,0,88,88,128,1,2,word,PACIFIC,print,pacific_p.png,,,,,
,,,,31947,001,2025-10-26_18h49.20.093,HW_LDT_1,2024.2.4,MacIntel,59.88023952,,,,,,,,,,,,,,,,,,,,,,629.8787,630.0785,630.0785,630.5785,,,,,,,,,,,,,,3.6697,1,,,,,,,,,,,,,,m,,,,,,,,,,,,,,,90,0,630.5789,634.2608,m,1,3.6697,,[],[],[],[],[],[],[],634.261,636.2619,636.2619,636.2621,[],[],[],[],[],[],[],,636.2621,636.2621,0.068046683,-0.375355988,0,0,0,,0,89,89,124,1,2,word,NUMERICAL,cursive,numerical_c.png,,,,,
,,,,31947,001,2025-10-26_18h49.20.093,HW_LDT_1,2024.2.4,MacIntel,59.88023952,,,,,,,,,,,,,,,,,,,,,,636.2635,636.461,636.461,636.9618,,,,,,,,,,,,,,0.9211,1,,,,,,,,,,,,,,m,,,,,,,,,,,,,,,91,1,636.9622,637.8951,m,1,0.9211,,[],[],[],[],[],[],[],637.8952,639.8953,639.8954,641.0114,[],[],[],[],[],[],[],m,641.0115,641.0115,0.068046683,-0.375355988,0,0,0,,0,90,90,127,1,2,word,ORIGINAL,print,original_p.png,1.1157,,,,
,,,,31947,001,2025-10-26_18h49.20.093,HW_LDT_1,2024.2.4,MacIntel,59.88023952,,,,,,,,,,,,,,,,,,,,,,641.0125,641.2111,641.2111,641.7121,,,,,,,,,,,,,,1.5209,1,,,,,,,,,,,,,,z,,,,,,,,,,,,,,,92,0,641.7126,643.2454,z,1,1.5209,,[],[],[],[],[],[],[],643.2455,645.2454,645.2454,645.2455,[],[],[],[],[],[],[],,645.2456,645.2457,0.068046683,-0.375355988,0,0,0,,0,91,91,37,1,2,TL,adacemy,cursive,adacemy_c.png,,,,,
,,,,31947,001,2025-10-26_18h49.20.093,HW_LDT_1,2024.2.4,MacIntel,59.88023952,,,,,,,,,,,,,,,,,,,,,,645.2466,645.4455,645.4456,645.9453,,,,,,,,,,,,,,1.6537,1,,,,,,,,,,,,,,m,,,,,,,,,,,,,,,93,0,645.9457,647.6122,m,1,1.6537,,[],[],[],[],[],[],[],647.6124,649.6122,649.6122,649.6124,[],[],[],[],[],[],[],,649.6124,649.6125,0.068046683,-0.375355988,0,0,0,,0,92,92,99,1,2,word,DEBATE,print,debate_p.png,,,,,
,,,,31947,001,2025-10-26_18h49.20.093,HW_LDT_1,2024.2.4,MacIntel,59.88023952,,,,,,,,,,,,,,,,,,,,,,649.6138,649.8121,649.8122,650.3121,,,,,,,,,,,,,,1.5784,0,,,,,,,,,,,,,,m,,,,,,,,,,,,,,,94,0,650.3127,651.8944,z,0,1.5784,,[],[],[],[],[],[],[],651.8944,653.8956,653.8956,653.8957,[],[],[],[],[],[],[],,653.8958,653.8959,0.068046683,-0.375355988,0,0,0,,0,93,93,117,1,2,word,MARINE,cursive,marine_c.png,,,,,
,,,,31947,001,2025-10-26_18h49.20.093,HW_LDT_1,2024.2.4,MacIntel,59.88023952,,,,,,,,,,,,,,,,,,,,,,653.8973,654.0956,654.0956,654.5956,,,,,,,,,,,,,,4.188,0,,,,,,,,,,,,,,z,,,,,,,,,,,,,,,95,0,654.5962,658.7947,m,0,4.188,,[],[],[],[],[],[],[],658.7948,660.7958,660.7958,660.796,[],[],[],[],[],[],[],,660.7961,660.7961,0.068046683,-0.375355988,0,0,0,,0,94,94,13,1,2,RL,helicage,print,helicage_p.png,,,,,
,,,,31947,001,2025-10-26_18h49.20.093,HW_LDT_1,2024.2.4,MacIntel,59.88023952,,,,,,,,,,,,,,,,,,,,,,660.7974,660.9958,660.9958,661.4958,,,,,,,,,,,,,,3.8384,1,,,,,,,,,,,,,,m,,,,,,,,,,,,,,,96,0,661.4963,665.3457,m,1,3.8384,,[],[],[],[],[],[],[],665.3458,667.3455,667.3455,667.3457,[],[],[],[],[],[],[],,667.3457,667.3458,0.068046683,-0.375355988,0,0,0,,0,95,95,155,1,2,word,STRATEGY,cursive,strategy_c.png,,,,,
,,,,31947,001,2025-10-26_18h49.20.093,HW_LDT_1,2024.2.4,MacIntel,59.88023952,,,,,,,,,,,,,,,,,,,,,,667.3466,667.5453,667.5453,668.0449,,,,,,,,,,,,,,1.02,1,,,,,,,,,,,,,,z,,,,,,,,,,,,,,,97,1,668.0453,669.0783,z,1,1.02,,[],[],[],[],[],[],[],669.0784,671.0792,671.0793,672.5116,[],[],[],[],[],[],[],z,672.5117,672.5117,0.068046683,-0.375355988,0,0,0,,0,96,96,59,1,2,TL,miskate,cursive,miskate_c.png,1.4206,,,,
,,,,31947,001,2025-10-26_18h49.20.093,HW_LDT_1,2024.2.4,MacIntel,59.88023952,,,,,,,,,,,,,,,,,,,,,,672.5127,672.7125,672.7126,673.2117,,,,,,,,,,,,,,1.4121,1,,,,,,,,,,,,,,z,,,,,,,,,,,,,,,98,0,673.2121,674.629,z,1,1.4121,,[],[],[],[],[],[],[],674.629,676.6284,676.6285,676.6287,[],[],[],[],[],[],[],,676.6287,676.6288,0.068046683,-0.375355988,0,0,0,,0,97,97,51,1,2,TL,etidor,cursive,etidor_c.png,,,,,
,,,,31947,001,2025-10-26_18h49.20.093,HW_LDT_1,2024.2.4,MacIntel,59.88023952,,,,,,,,,,,,,,,,,,,,,,676.6301,676.8285,676.8286,677.3295,,,,,,,,,,,,,,0.931,1,,,,,,,,,,,,,,m,,,,,,,,,,,,,,,99,0,677.3301,678.2627,m,1,0.931,,[],[],[],[],[],[],[],678.2629,680.2619,680.262,680.2621,[],[],[],[],[],[],[],,680.2622,680.2623,0.068046683,-0.375355988,0,0,0,,0,98,98,122,1,2,word,MOBILE,print,mobile_p.png,,,,,
,,,,31947,001,2025-10-26_18h49.20.093,HW_LDT_1,2024.2.4,MacIntel,59.88023952,,,,,,,,,,,,,,,,,,,,,,680.2636,680.4628,680.4628,680.9627,,,,,,,,,,,,,,0.8035,1,,,,,,,,,,,,,,m,,,,,,,,,,,,,,,100,0,680.9632,681.7785,m,1,0.8035,,[],[],[],[],[],[],[],681.7787,683.7796,683.7797,683.7798,[],[],[],[],[],[],[],,683.7799,683.78,0.068046683,-0.375355988,0,0,0,,0,99,99,108,1,2,word,FORTUNE,print,fortune_p.png,,,,,
,,,,31947,001,2025-10-26_18h49.20.093,HW_LDT_1,2024.2.4,MacIntel,59.88023952,,,,,,,,,,,,,,,,,,,,,,683.7816,683.9795,683.9796,684.4794,,,,,,,,,,,,,,0.8887,1,,,,,,,,,,,,,,m,,,,,,,,,,,,,,,101,0,684.4797,685.3796,m,1,0.8887,,[],[],[],[],[],[],[],685.3796,687.3796,687.3797,687.3798,[],[],[],[],[],[],[],,687.3798,687.3799,0.068046683,-0.375355988,0,0,0,,0,100,100,93,1,2,word,CEREMONY,print,ceremony_p.png,,,,,
,,,,31947,001,2025-10-26_18h49.20.093,HW_LDT_1,2024.2.4,MacIntel,59.88023952,,,,,,,,,,,,,,,,,,,,,,687.3808,687.5795,687.5796,688.0796,,,,,,,,,,,,,,0.9516,1,,,,,,,,,,,,,,z,,,,,,,,,,,,,,,102,0,688.0802,689.0464,z,1,0.9516,,[],[],[],[],[],[],[],689.0464,691.0456,691.0457,691.0458,[],[],[],[],[],[],[],,691.0458,691.0459,0.068046683,-0.375355988,0,0,0,,0,101,101,75,1,2,TL,ronamtic,print,ronamtic_p.png,,,,,
,,,,31947,001,2025-10-26_18h49.20.093,HW_LDT_1,2024.2.4,MacIntel,59.88023952,,,,,,,,,,,,,,,,,,,,,,691.0469,691.2463,691.2463,691.7453,,,,,,,,,,,,,,1.1734,1,,,,,,,,,,,,,,m,,,,,,,,,,,,,,,103,0,691.7458,692.9288,m,1,1.1734,,[],[],[],[],[],[],[],692.9288,694.9297,694.9297,694.9299,[],[],[],[],[],[],[],,694.9299,694.93,0.068046683,-0.375355988,0,0,0,,0,102,102,141,1,2,word,RELIGION,cursive,religion_c.png,,,,,
,,,,31947,001,2025-10-26_18h49.20.093,HW_LDT_1,2024.2.4,MacIntel,59.88023952,,,,,,,,,,,,,,,,,,,,,,694.9311,695.1298,695.1298,695.6299,,,,,,,,,,,,,,1.3492,1,,,,,,,,,,,,,,m,,,,,,,,,,,,,,,104,0,695.6304,696.9802,m,1,1.3492,,[],[],[],[],[],[],[],696.9804,698.9799,698.9799,698.9801,[],[],[],[],[],[],[],,698.9801,698.9802,0.068046683,-0.375355988,0,0,0,,0,103,103,84,1,2,word,BELOVED,cursive,beloved_c.png,,,,,
,,,,31947,001,2025-10-26_18h49.20.093,HW_LDT_1,2024.2.4,MacIntel,59.88023952,,,,,,,,,,,,,,,,,,,,,,698.9819,699.1789,699.179,699.6798,,,,,,,,,,,,,,3.082,1,,,,,,,,,,,,,,z,,,,,,,,,,,,,,,105,0,699.6804,702.7633,z,1,3.082,,[],[],[],[],[],[],[],702.7633,704.7634,704.7634,704.7636,[],[],[],[],[],[],[],,704.7636,704.7637,0.068046683,-0.375355988,0,0,0,,0,104,104,76,1,2,TL,senmitent,cursive,senmitent_c.png,,,,,
,,,,31947,001,2025-10-26_18h49.20.093,HW_LDT_1,2024.2.4,MacIntel,59.88023952,,,,,,,,,,,,,,,,,,,,,,704.7649,704.9632,704.9632,705.4632,,,,,,,,,,,,,,1.0532,1,,,,,,,,,,,,,,z,,,,,,,,,,,,,,,106,0,705.4638,706.5299,z,1,1.0532,,[],[],[],[],[],[],[],706.5301,708.5301,708.5301,708.5304,[],[],[],[],[],[],[],,708.5304,708.5305,0.068046683,-0.375355988,0,0,0,,0,105,105,15,1,2,RL,linedal,print,linedal_p.png,,,,,
,,,,31947,001,2025-10-26_18h49.20.093,HW_LDT_1,2024.2.4,MacIntel,59.88023952,,,,,,,,,,,,,,,,,,,,,,708.5321,708.73,708.73,709.23,,,,,,,,,,,,,,1.197,1,,,,,,,,,,,,,,z,,,,,,,,,,,,,,,107,0,709.2305,710.4288,z,1,1.197,,[],[],[],[],[],[],[],710.4289,712.4299,712.4299,712.43,[],[],[],[],[],[],[],,712.4301,712.4301,0.068046683,-0.375355988,0,0,0,,0,106,106,55,1,2,TL,lotace,print,lotace_p.png,,,,,
,,,,31947,001,2025-10-26_18h49.20.093,HW_LDT_1,2024.2.4,MacIntel,59.88023952,,,,,,,,,,,,,,,,,,,,,,712.431,712.6302,712.6302,713.1301,,,,,,,,,,,,,,2.837,1,,,,,,,,,,,,,,z,,,,,,,,,,,,,,,108,1,713.1305,715.9802,z,1,2.837,,[],[],[],[],[],[],[],715.9803,717.9802,717.9803,719.0469,[],[],[],[],[],[],[],z,719.047,719.0471,0.068046683,-0.375355988,0,0,0,,0,107,107,45,1,2,TL,carnidal,cursive,carnidal_c.png,1.0526,,,,
,,,,31947,001,2025-10-26_18h49.20.093,HW_LDT_1,2024.2.4,MacIntel,59.88023952,,,,,,,,,,,,,,,,,,,,,,719.0481,719.2469,719.2469,719.7469,,,,,,,,,,,,,,0.9908,1,,,,,,,,,,,,,,m,,,,,,,,,,,,,,,109,0,719.7474,720.747,m,1,0.9908,,[],[],[],[],[],[],[],720.747,722.747,722.7471,722.7473,[],[],[],[],[],[],[],,722.7473,722.7473,0.068046683,-0.375355988,0,0,0,,0,108,108,96,1,2,word,CONSIDER,print,consider_p.png,,,,,
,,,,31947,001,2025-10-26_18h49.20.093,HW_LDT_1,2024.2.4,MacIntel,59.88023952,,,,,,,,,,,,,,,,,,,,,,722.7487,722.947,722.947,723.4469,,,,,,,,,,,,,,0.8493,1,,,,,,,,,,,,,,z,,,,,,,,,,,,,,,110,0,723.4473,724.2972,z,1,0.8493,,[],[],[],[],[],[],[],724.2973,726.2961,726.2961,726.2963,[],[],[],[],[],[],[],,726.2963,726.2964,0.068046683,-0.375355988,0,0,0,,0,109,109,8,1,2,RL,desifate,print,desifate_p.png,,,,,
,,,,31947,001,2025-10-26_18h49.20.093,HW_LDT_1,2024.2.4,MacIntel,59.88023952,,,,,,,,,,,,,,,,,,,,,,726.2974,726.4968,726.4969,726.997,,,,,,,,,,,,,,1.8485,1,,,,,,,,,,,,,,z,,,,,,,,,,,,,,,111,1,726.9975,728.8471,z,1,1.8485,,[],[],[],[],[],[],[],728.8471,730.8471,730.8471,734.6303,[],[],[],[],[],[],[],z,734.6303,734.6303,0.068046683,-0.375355988,0,0,0,,0,110,110,71,1,2,TL,retome,cursive,retome_c.png,3.7808,,,,
,,,,31947,001,2025-10-26_18h49.20.093,HW_LDT_1,2024.2.4,MacIntel,59.88023952,,,,,,,,,,,,,,,,,,,,,,734.6312,734.8297,734.8297,735.3305,,,,,,,,,,,,,,1.7253,1,,,,,,,,,,,,,,z,,,,,,,,,,,,,,,112,0,735.331,737.0641,z,1,1.7253,,[],[],[],[],[],[],[],737.0642,739.063,739.0631,739.0633,[],[],[],[],[],[],[],,739.0633,739.0634,0.068046683,-0.375355988,0,0,0,,0,111,111,2,1,2,RL,casagity,print,casagity_p.png,,,,,
,,,,31947,001,2025-10-26_18h49.20.093,HW_LDT_1,2024.2.4,MacIntel,59.88023952,,,,,,,,,,,,,,,,,,,,,,739.0647,739.2639,739.2639,739.764,,,,,,,,,,,,,,2.2374,1,,,,,,,,,,,,,,z,,,,,,,,,,,,,,,113,1,739.7646,742.0142,z,1,2.2374,,[],[],[],[],[],[],[],742.0142,744.0141,744.0141,744.8807,[],[],[],[],[],[],[],z,744.8808,744.8808,0.068046683,-0.375355988,0,0,0,,0,112,112,57,1,2,TL,meromy,cursive,meromy_c.png,0.8645,,,,
,,,,31947,001,2025-10-26_18h49.20.093,HW_LDT_1,2024.2.4,MacIntel,59.88023952,,,,,,,,,,,,,,,,,,,,,,744.8817,745.0801,745.0801,745.5807,,,,,,,,,,,,,,2.4869,0,,,,,,,,,,,,,,m,,,,,,,,,,,,,,,114,0,745.5811,748.0803,z,0,2.4869,,[],[],[],[],[],[],[],748.0803,750.0808,750.0809,750.081,[],[],[],[],[],[],[],,750.0811,750.0812,0.068046683,-0.375355988,0,0,0,,0,113,113,113,1,2,word,LITERAL,cursive,literal_c.png,,,,,
,,,,31947,001,2025-10-26_18h49.20.093,HW_LDT_1,2024.2.4,MacIntel,59.88023952,,,,,,,,,,,,,,,,,,,,,,750.0822,750.2809,750.281,750.7798,,,,,,,,,,,,,,0.9332,1,,,,,,,,,,,,,,z,,,,,,,,,,,,,,,115,0,750.7803,751.7142,z,1,0.9332,,[],[],[],[],[],[],[],751.7142,753.7144,753.7144,753.7146,[],[],[],[],[],[],[],,753.7146,753.7147,0.068046683,-0.375355988,0,0,0,,0,114,114,11,1,2,RL,formuke,print,formuke_p.png,,,,,
,,,,31947,001,2025-10-26_18h49.20.093,HW_LDT_1,2024.2.4,MacIntel,59.88023952,,,,,,,,,,,,,,,,,,,,,,753.7159,753.9143,753.9143,754.414,,,,,,,,,,,,,,0.9657,1,,,,,,,,,,,,,,z,,,,,,,,,,,,,,,116,0,754.4145,755.3811,z,1,0.9657,,[],[],[],[],[],[],[],755.3812,757.381,757.3811,757.3812,[],[],[],[],[],[],[],,757.3812,757.3813,0.068046683,-0.375355988,0,0,0,,0,115,115,3,1,2,RL,capefory,print,capefory_p.png,,,,,
,,,,31947,001,2025-10-26_18h49.20.093,HW_LDT_1,2024.2.4,MacIntel,59.88023952,,,,,,,,,,,,,,,,,,,,,,757.3828,757.581,757.5811,758.0806,,,,,,,,,,,,,,1.1654,1,,,,,,,,,,,,,,m,,,,,,,,,,,,,,,117,0,758.0811,759.2476,m,1,1.1654,,[],[],[],[],[],[],[],759.2477,761.2479,761.2479,761.248,[],[],[],[],[],[],[],,761.2481,761.2482,0.068046683,-0.375355988,0,0,0,,0,116,116,147,1,2,word,ROMANTIC,print,romantic_p.png,,,,,
,,,,31947,001,2025-10-26_18h49.20.093,HW_LDT_1,2024.2.4,MacIntel,59.88023952,,,,,,,,,,,,,,,,,,,,,,761.2493,761.4478,761.4478,761.9478,,,,,,,,,,,,,,1.1649,1,,,,,,,,,,,,,,z,,,,,,,,,,,,,,,118,0,761.9483,763.1144,z,1,1.1649,,[],[],[],[],[],[],[],763.1144,765.1145,765.1146,765.1147,[],[],[],[],[],[],[],,765.1148,765.1149,0.068046683,-0.375355988,0,0,0,,0,117,117,48,1,2,TL,detabe,print,detabe_p.png,,,,,
,,,,31947,001,2025-10-26_18h49.20.093,HW_LDT_1,2024.2.4,MacIntel,59.88023952,,,,,,,,,,,,,,,,,,,,,,765.1163,765.3145,765.3145,765.8144,,,,,,,,,,,,,,1.5915,1,,,,,,,,,,,,,,z,,,,,,,,,,,,,,,119,0,765.815,767.4145,z,1,1.5915,,[],[],[],[],[],[],[],767.4146,769.4146,769.4146,769.4147,[],[],[],[],[],[],[],,769.4148,769.4148,0.068046683,-0.375355988,0,0,0,,0,118,118,26,1,2,RL,retupar,cursive,retupar_c.png,,,,,
,,,,31947,001,2025-10-26_18h49.20.093,HW_LDT_1,2024.2.4,MacIntel,59.88023952,,,,,,,,,,,,,,,,,,,,,,769.416,769.6145,769.6146,770.1143,,,,,,,,,,,,,,0.9355,1,,,,,,,,,,,,,,m,,,,,,,,,,,,,,,120,0,770.1147,771.0647,m,1,0.9355,,[],[],[],[],[],[],[],771.0648,773.0637,773.0637,773.0638,[],[],[],[],[],[],[],,773.0639,773.064,0.068046683,-0.375355988,0,0,0,,0,119,119,92,1,2,word,CATEGORY,print,category_p.png,,,,,
,,,,31947,001,2025-10-26_18h49.20.093,HW_LDT_1,2024.2.4,MacIntel,59.88023952,,,,,,,,,,,,,,,,,,,,,,773.0651,773.2646,773.2647,773.7647,,,,,,,,,,,,,,1.8192,1,,,,,,,,,,,,,,z,,,,,,,,,,,,,,,121,0,773.7653,775.5981,z,1,1.8192,,[],[],[],[],[],[],[],775.5982,777.598,777.598,777.5982,[],[],[],[],[],[],[],,777.5982,777.5983,0.068046683,-0.375355988,0,0,0,,0,120,120,42,1,2,TL,bedise,cursive,bedise_c.png,,,,,
,,,,31947,001,2025-10-26_18h49.20.093,HW_LDT_1,2024.2.4,MacIntel,59.88023952,,,,,,,,,,,,,,,,,,,,,,777.5992,777.7982,777.7982,778.2984,,,,,,,,,,,,,,2.3484,1,,,,,,,,,,,,,,z,,,,,,,,,,,,,,,122,0,778.2991,780.6484,z,1,2.3484,,[],[],[],[],[],[],[],780.6485,782.6483,782.6484,782.6485,[],[],[],[],[],[],[],,782.6486,782.6487,0.068046683,-0.375355988,0,0,0,,0,121,121,5,1,2,RL,clisimal,cursive,clisimal_c.png,,,,,
,,,,31947,001,2025-10-26_18h49.20.093,HW_LDT_1,2024.2.4,MacIntel,59.88023952,,,,,,,,,,,,,,,,,,,,,,782.65,782.8479,782.8479,783.3481,,,,,,,,,,,,,,0.8656,1,,,,,,,,,,,,,,z,,,,,,,,,,,,,,,123,0,783.3487,784.2148,z,1,0.8656,,[],[],[],[],[],[],[],784.2149,786.2148,786.2148,786.2149,[],[],[],[],[],[],[],,786.215,786.2151,0.068046683,-0.375355988,0,0,0,,0,122,122,65,1,2,TL,polupar,cursive,polupar_c.png,,,,,
,,,,31947,001,2025-10-26_18h49.20.093,HW_LDT_1,2024.2.4,MacIntel,59.88023952,,,,,,,,,,,,,,,,,,,,,,786.2159,786.415,786.415,786.9147,,,,,,,,,,,,,,0.919,1,,,,,,,,,,,,,,z,,,,,,,,,,,,,,,124,0,786.9153,787.8483,z,1,0.919,,[],[],[],[],[],[],[],787.8484,789.8482,789.8483,789.8485,[],[],[],[],[],[],[],,789.8485,789.8486,0.068046683,-0.375355988,0,0,0,,0,123,123,17,1,2,RL,macise,cursive,macise_c.png,,,,,
,,,,31947,001,2025-10-26_18h49.20.093,HW_LDT_1,2024.2.4,MacIntel,59.88023952,,,,,,,,,,,,,,,,,,,,,,789.8496,790.0483,790.0484,790.5483,,,,,,,,,,,,,,2.1427,1,,,,,,,,,,,,,,z,,,,,,,,,,,,,,,125,0,790.5489,792.6983,z,1,2.1427,,[],[],[],[],[],[],[],792.6984,794.698,794.6981,794.6982,[],[],[],[],[],[],[],,794.6983,794.6983,0.068046683,-0.375355988,0,0,0,,0,124,124,54,1,2,TL,liretal,cursive,liretal_c.png,,,,,
,,,,31947,001,2025-10-26_18h49.20.093,HW_LDT_1,2024.2.4,MacIntel,59.88023952,,,,,,,,,,,,,,,,,,,,,,794.699,794.8974,794.8974,795.3984,,,,,,,,,,,,,,2.3698,0,,,,,,,,,,,,,,m,,,,,,,,,,,,,,,126,0,795.3989,797.7819,z,0,2.3698,,[],[],[],[],[],[],[],797.7819,799.7818,799.7818,799.7819,[],[],[],[],[],[],[],,799.782,799.7821,0.068046683,-0.375355988,0,0,0,,0,125,125,123,1,2,word,MODERATE,cursive,moderate_c.png,,,,,
,,,,31947,001,2025-10-26_18h49.20.093,HW_LDT_1,2024.2.4,MacIntel,59.88023952,,,,,,,,,,,,,,,,,,,,,,799.7832,799.982,799.982,800.4818,,,,,,,,,,,,,,1.1812,1,,,,,,,,,,,,,,m,,,,,,,,,,,,,,,127,0,800.4824,801.6651,m,1,1.1812,,[],[],[],[],[],[],[],801.6653,803.6654,803.6654,803.6656,[],[],[],[],[],[],[],,803.6656,803.6658,0.068046683,-0.375355988,0,0,0,,0,126,126,112,1,2,word,LIBERAL,print,liberal_p.png,,,,,
,,,,31947,001,2025-10-26_18h49.20.093,HW_LDT_1,2024.2.4,MacIntel,59.88023952,,,,,,,,,,,,,,,,,,,,,,803.6669,803.8653,803.8653,804.3653,,,,,,,,,,,,,,0.8848,1,,,,,,,,,,,,,,z,,,,,,,,,,,,,,,128,0,804.3659,805.2653,z,1,0.8848,,[],[],[],[],[],[],[],805.2653,807.2646,807.2647,807.2648,[],[],[],[],[],[],[],,807.2648,807.2649,0.068046683,-0.375355988,0,0,0,,0,127,127,25,1,2,RL,rabigly,print,rabigly_p.png,,,,,
,,,,31947,001,2025-10-26_18h49.20.093,HW_LDT_1,2024.2.4,MacIntel,59.88023952,,,,,,,,,,,,,,,,,,,,,,807.2659,807.4653,807.4653,807.9654,,,,,,,,,,,,,,3.6695,1,,,,,,,,,,,,,,m,,,,,,,,,,,,,,,129,0,807.966,811.6489,m,1,3.6695,,[],[],[],[],[],[],[],811.649,813.6487,813.6487,813.6489,[],[],[],[],[],[],[],,813.649,813.649,0.068046683,-0.375355988,0,0,0,,0,128,128,111,1,2,word,INDICATE,cursive,indicate_c.png,,,,,
,,,,31947,001,2025-10-26_18h49.20.093,HW_LDT_1,2024.2.4,MacIntel,59.88023952,,,,,,,,,,,,,,,,,,,,,,813.65,813.8488,813.8488,814.3488,,,,,,,,,,,,,,1.4699,0,,,,,,,,,,,,,,m,,,,,,,,,,,,,,,130,0,814.3492,815.8312,z,0,1.4699,,[],[],[],[],[],[],[],815.8313,817.8321,817.8321,817.8323,[],[],[],[],[],[],[],,817.8323,817.8324,0.068046683,-0.375355988,0,0,0,,0,129,129,126,1,2,word,OPTIMAL,cursive,optimal_c.png,,,,,
,,,,31947,001,2025-10-26_18h49.20.093,HW_LDT_1,2024.2.4,MacIntel,59.88023952,,,,,,,,,,,,,,,,,,,,,,817.8336,818.0322,818.0322,818.5323,,,,,,,,,,,,,,1.2522,1,,,,,,,,,,,,,,m,,,,,,,,,,,,,,,131,0,818.5329,819.798,m,1,1.2522,,[],[],[],[],[],[],[],819.7981,821.7989,821.799,821.7991,[],[],[],[],[],[],[],,821.7991,821.7992,0.068046683,-0.375355988,0,0,0,,0,130,130,156,1,2,word,TRIBUTE,cursive,tribute_c.png,,,,,
,,,,31947,001,2025-10-26_18h49.20.093,HW_LDT_1,2024.2.4,MacIntel,59.88023952,,,,,,,,,,,,,,,,,,,,,,821.8002,821.9989,821.999,822.498,,,,,,,,,,,,,,2.0412,0,,,,,,,,,,,,,,m,,,,,,,,,,,,,,,132,0,822.4984,824.5489,z,0,2.0412,,[],[],[],[],[],[],[],824.5489,826.5489,826.5489,826.549,[],[],[],[],[],[],[],,826.549,826.5491,0.068046683,-0.375355988,0,0,0,,0,131,131,135,1,2,word,QUALITY,cursive,quality_c.png,,,,,
,,,,31947,001,2025-10-26_18h49.20.093,HW_LDT_1,2024.2.4,MacIntel,59.88023952,,,,,,,,,,,,,,,,,,,,,,826.5498,826.748,826.7481,827.2491,,,,,,,,,,,,,,0.7962,1,,,,,,,,,,,,,,m,,,,,,,,,,,,,,,133,0,827.2496,828.049,m,1,0.7962,,[],[],[],[],[],[],[],828.049,830.0487,830.0487,830.0488,[],[],[],[],[],[],[],,830.0488,830.0489,0.068046683,-0.375355988,0,0,0,,0,132,132,153,1,2,word,STOLEN,print,stolen_p.png,,,,,
,,,,31947,001,2025-10-26_18h49.20.093,HW_LDT_1,2024.2.4,MacIntel,59.88023952,,,,,,,,,,,,,,,,,,,,,,830.0496,830.2486,830.2486,830.748,,,,,,,,,,,,,,2.1196,1,,,,,,,,,,,,,,z,,,,,,,,,,,,,,,134,0,830.7483,832.8823,z,1,2.1196,,[],[],[],[],[],[],[],832.8823,834.8825,834.8826,834.8827,[],[],[],[],[],[],[],,834.8828,834.8829,0.068046683,-0.375355988,0,0,0,,0,133,133,10,1,2,RL,disluge,cursive,disluge_c.png,,,,,
,,,,31947,001,2025-10-26_18h49.20.093,HW_LDT_1,2024.2.4,MacIntel,59.88023952,,,,,,,,,,,,,,,,,,,,,,834.8841,835.0817,835.0817,835.5826,,,,,,,,,,,,,,2.4558,0,,,,,,,,,,,,,,m,,,,,,,,,,,,,,,135,1,835.5832,838.0493,z,0,2.4558,,[],[],[],[],[],[],[],838.0494,840.0484,840.0485,841.3817,[],[],[],[],[],[],[],z,841.3817,841.3818,0.068046683,-0.375355988,0,0,0,,0,134,134,105,1,2,word,EDITOR,cursive,editor_c.png,1.3268,,,,
,,,,31947,001,2025-10-26_18h49.20.093,HW_LDT_1,2024.2.4,MacIntel,59.88023952,,,,,,,,,,,,,,,,,,,,,,841.3828,841.5825,841.5826,842.0824,,,,,,,,,,,,,,1.2826,1,,,,,,,,,,,,,,z,,,,,,,,,,,,,,,136,0,842.083,843.3664,z,1,1.2826,,[],[],[],[],[],[],[],843.3664,845.3661,845.3662,845.3662,[],[],[],[],[],[],[],,845.3663,845.3664,0.068046683,-0.375355988,0,0,0,,0,135,135,63,1,2,TL,orinigal,print,orinigal_p.png,,,,,
,,,,31947,001,2025-10-26_18h49.20.093,HW_LDT_1,2024.2.4,MacIntel,59.88023952,,,,,,,,,,,,,,,,,,,,,,845.3672,845.5662,845.5663,846.066,,,,,,,,,,,,,,1.3317,1,,,,,,,,,,,,,,m,,,,,,,,,,,,,,,137,1,846.0665,847.3994,m,1,1.3317,,[],[],[],[],[],[],[],847.3995,849.3995,849.3996,850.1985,[],[],[],[],[],[],[],m,850.1985,850.1987,0.068046683,-0.375355988,0,0,0,,0,136,136,157,1,2,word,VALIDITY,print,validity_p.png,0.7892,,,,
,,,,31947,001,2025-10-26_18h49.20.093,HW_LDT_1,2024.2.4,MacIntel,59.88023952,,,,,,,,,,,,,,,,,,,,,,850.1997,850.3996,850.3996,850.8996,,,,,,,,,,,,,,1.5685,1,,,,,,,,,,,,,,z,,,,,,,,,,,,,,,138,0,850.9002,852.483,z,1,1.5685,,[],[],[],[],[],[],[],852.4831,854.4826,854.4826,854.4826,[],[],[],[],[],[],[],,854.4826,854.4827,0.068046683,-0.375355988,0,0,0,,0,137,137,19,1,2,RL,monebate,cursive,monebate_c.png,,,,,
,,,,31947,001,2025-10-26_18h49.20.093,HW_LDT_1,2024.2.4,MacIntel,59.88023952,,,,,,,,,,,,,,,,,,,,,,854.4831,854.6826,854.6826,855.1829,,,,,,,,,,,,,,3.165,1,,,,,,,,,,,,,,z,,,,,,,,,,,,,,,139,0,855.1833,858.3493,z,1,3.165,,[],[],[],[],[],[],[],858.3493,860.3498,860.3499,860.35,[],[],[],[],[],[],[],,860.3501,860.3502,0.068046683,-0.375355988,0,0,0,,0,138,138,7,1,2,RL,cocewage,cursive,cocewage_c.png,,,,,
,,,,31947,001,2025-10-26_18h49.20.093,HW_LDT_1,2024.2.4,MacIntel,59.88023952,,,,,,,,,,,,,,,,,,,,,,860.3511,860.5495,860.5495,861.0497,,,,,,,,,,,,,,1.0147,1,,,,,,,,,,,,,,z,,,,,,,,,,,,,,,140,0,861.0502,862.0658,z,1,1.0147,,[],[],[],[],[],[],[],862.0659,864.0665,864.0665,864.0667,[],[],[],[],[],[],[],,864.0667,864.0668,0.068046683,-0.375355988,0,0,0,,0,139,139,30,1,2,RL,selamor,print,selamor_p.png,,,,,
,,,,31947,001,2025-10-26_18h49.20.093,HW_LDT_1,2024.2.4,MacIntel,59.88023952,,,,,,,,,,,,,,,,,,,,,,864.068,864.266,864.266,864.7664,,,,,,,,,,,,,,1.431,1,,,,,,,,,,,,,,z,,,,,,,,,,,,,,,141,0,864.7668,866.1998,z,1,1.431,,[],[],[],[],[],[],[],866.1999,868.1991,868.1991,868.1992,[],[],[],[],[],[],[],,868.1993,868.1994,0.068046683,-0.375355988,0,0,0,,0,140,140,38,1,2,TL,atameur,cursive,atameur_c.png,,,,,
,,,,31947,001,2025-10-26_18h49.20.093,HW_LDT_1,2024.2.4,MacIntel,59.88023952,,,,,,,,,,,,,,,,,,,,,,868.2007,868.4,868.4,868.9,,,,,,,,,,,,,,1.2196,1,,,,,,,,,,,,,,z,,,,,,,,,,,,,,,142,0,868.9006,870.1324,z,1,1.2196,,[],[],[],[],[],[],[],870.1325,872.1335,872.1336,872.1337,[],[],[],[],[],[],[],,872.1338,872.1338,0.068046683,-0.375355988,0,0,0,,0,141,141,52,1,2,TL,elarobate,cursive,elarobate_c.png,,,,,
,,,,31947,001,2025-10-26_18h49.20.093,HW_LDT_1,2024.2.4,MacIntel,59.88023952,,,,,,,,,,,,,,,,,,,,,,872.1351,872.3333,872.3333,872.8333,,,,,,,,,,,,,,0.8989,1,,,,,,,,,,,,,,m,,,,,,,,,,,,,,,143,0,872.8339,873.7338,m,1,0.8989,,[],[],[],[],[],[],[],873.734,875.7334,875.7335,875.7336,[],[],[],[],[],[],[],,875.7337,875.7339,0.068046683,-0.375355988,0,0,0,,0,142,142,118,1,2,word,MEDICINE,print,medicine_p.png,,,,,
,,,,31947,001,2025-10-26_18h49.20.093,HW_LDT_1,2024.2.4,MacIntel,59.88023952,,,,,,,,,,,,,,,,,,,,,,875.735,875.9334,875.9334,876.4334,,,,,,,,,,,,,,1.435,1,,,,,,,,,,,,,,m,,,,,,,,,,,,,,,144,0,876.4341,877.883,m,1,1.435,,[],[],[],[],[],[],[],877.8831,879.8835,879.8835,879.8837,[],[],[],[],[],[],[],,879.8837,879.8838,0.068046683,-0.375355988,0,0,0,,0,143,143,158,1,2,word,VELOCITY,print,velocity_p.png,,,,,
,,,,31947,001,2025-10-26_18h49.20.093,HW_LDT_1,2024.2.4,MacIntel,59.88023952,,,,,,,,,,,,,,,,,,,,,,879.885,880.0834,880.0834,880.5834,,,,,,,,,,,,,,0.9971,1,,,,,,,,,,,,,,z,,,,,,,,,,,,,,,145,0,880.584,881.5834,z,1,0.9971,,[],[],[],[],[],[],[],881.5834,883.5837,883.5837,883.5838,[],[],[],[],[],[],[],,883.5839,883.584,0.068046683,-0.375355988,0,0,0,,0,144,144,64,1,2,TL,paficic,print,paficic_p.png,,,,,
,,,,31947,001,2025-10-26_18h49.20.093,HW_LDT_1,2024.2.4,MacIntel,59.88023952,,,,,,,,,,,,,,,,,,,,,,883.5854,883.7825,883.7825,884.2836,,,,,,,,,,,,,,0.9819,1,,,,,,,,,,,,,,z,,,,,,,,,,,,,,,146,0,884.2841,885.2668,z,1,0.9819,,[],[],[],[],[],[],[],885.2669,887.2669,887.267,887.2672,[],[],[],[],[],[],[],,887.2672,887.2674,0.068046683,-0.375355988,0,0,0,,0,145,145,22,1,2,RL,posity,print,posity_p.png,,,,,
,,,,31947,001,2025-10-26_18h49.20.093,HW_LDT_1,2024.2.4,MacIntel,59.88023952,,,,,,,,,,,,,,,,,,,,,,887.2685,887.467,887.4671,887.9669,,,,,,,,,,,,,,0.7703,1,,,,,,,,,,,,,,z,,,,,,,,,,,,,,,147,0,887.9675,888.7502,z,1,0.7703,,[],[],[],[],[],[],[],888.7504,890.75,890.75,890.7502,[],[],[],[],[],[],[],,890.7502,890.7503,0.068046683,-0.375355988,0,0,0,,0,146,146,35,1,2,RL,vesofity,print,vesofity_p.png,,,,,
,,,,31947,001,2025-10-26_18h49.20.093,HW_LDT_1,2024.2.4,MacIntel,59.88023952,,,,,,,,,,,,,,,,,,,,,,890.7513,890.9503,890.9503,891.4504,,,,,,,,,,,,,,2.0973,1,,,,,,,,,,,,,,m,,,,,,,,,,,,,,,148,1,891.451,893.5503,m,1,2.0973,,[],[],[],[],[],[],[],893.5504,895.5504,895.5505,896.4502,[],[],[],[],[],[],[],z,896.4503,896.4504,0.068046683,-0.375355988,0,0,0,,0,147,147,95,1,2,word,COMEDY,cursive,comedy_c.png,0.8971,,,,
,,,,31947,001,2025-10-26_18h49.20.093,HW_LDT_1,2024.2.4,MacIntel,59.88023952,,,,,,,,,,,,,,,,,,,,,,896.4511,896.6495,896.6495,897.1505,,,,,,,,,,,,,,1.5074,1,,,,,,,,,,,,,,z,,,,,,,,,,,,,,,149,0,897.151,898.6671,z,1,1.5074,,[],[],[],[],[],[],[],898.6673,900.6662,900.6663,900.6663,[],[],[],[],[],[],[],,900.6664,900.6665,0.068046683,-0.375355988,0,0,0,,0,148,148,43,1,2,TL,carema,print,carema_p.png,,,,,
,,,,31947,001,2025-10-26_18h49.20.093,HW_LDT_1,2024.2.4,MacIntel,59.88023952,,,,,,,,,,,,,,,,,,,,,,900.6676,900.8669,900.867,901.3662,,,,,,,,,,,,,,0.7871,1,,,,,,,,,,,,,,m,,,,,,,,,,,,,,,150,1,901.3666,902.1672,m,1,0.7871,,[],[],[],[],[],[],[],902.1672,904.1673,904.1673,905.6507,[],[],[],[],[],[],[],m,905.6507,905.6509,0.068046683,-0.375355988,0,0,0,,0,149,149,137,1,2,word,RAPIDLY,print,rapidly_p.png,1.4706,,,,
,,,,31947,001,2025-10-26_18h49.20.093,HW_LDT_1,2024.2.4,MacIntel,59.88023952,,,,,,,,,,,,,,,,,,,,,,905.652,905.8507,905.8508,906.3505,,,,,,,,,,,,,,1.9244,1,,,,,,,,,,,,,,z,,,,,,,,,,,,,,,151,0,906.3509,908.284,z,1,1.9244,,[],[],[],[],[],[],[],908.2842,910.2837,910.2837,910.2839,[],[],[],[],[],[],[],,910.2839,910.284,0.068046683,-0.375355988,0,0,0,,0,150,150,46,1,2,TL,codemy,cursive,codemy_c.png,,,,,
,,,,31947,001,2025-10-26_18h49.20.093,HW_LDT_1,2024.2.4,MacIntel,59.88023952,,,,,,,,,,,,,,,,,,,,,,910.285,910.4837,910.4837,910.9841,,,,,,,,,,,,,,1.22,1,,,,,,,,,,,,,,z,,,,,,,,,,,,,,,152,0,910.9847,912.2175,z,1,1.22,,[],[],[],[],[],[],[],912.2176,914.2175,914.2175,914.2177,[],[],[],[],[],[],[],,914.2177,914.2178,0.068046683,-0.375355988,0,0,0,,0,151,151,44,1,2,TL,catipal,cursive,catipal_c.png,,,,,
,,,,31947,001,2025-10-26_18h49.20.093,HW_LDT_1,2024.2.4,MacIntel,59.88023952,,,,,,,,,,,,,,,,,,,,,,914.2188,914.4163,914.4163,914.9175,,,,,,,,,,,,,,1.6854,0,,,,,,,,,,,,,,m,,,,,,,,,,,,,,,153,0,914.9183,916.6174,z,0,1.6854,,[],[],[],[],[],[],[],916.6176,918.6166,918.6167,918.6169,[],[],[],[],[],[],[],,918.617,918.617,0.068046683,-0.375355988,0,0,0,,0,152,152,103,1,2,word,DISPUTE,cursive,dispute_c.png,,,,,
,,,,31947,001,2025-10-26_18h49.20.093,HW_LDT_1,2024.2.4,MacIntel,59.88023952,,,,,,,,,,,,,,,,,,,,,,918.6183,918.8175,918.8176,919.3167,,,,,,,,,,,,,,0.8492,1,,,,,,,,,,,,,,m,,,,,,,,,,,,,,,154,1,919.317,920.1676,m,1,0.8492,,[],[],[],[],[],[],[],920.1676,922.1678,922.1678,923.0675,[],[],[],[],[],[],[],z,923.0676,923.0677,0.068046683,-0.375355988,0,0,0,,0,153,153,139,1,2,word,REGULAR,cursive,regular_c.png,0.899,,,,
,,,,31947,001,2025-10-26_18h49.20.093,HW_LDT_1,2024.2.4,MacIntel,59.88023952,,,,,,,,,,,,,,,,,,,,,,923.0686,923.2676,923.2676,923.7676,,,,,,,,,,,,,,1.3689,1,,,,,,,,,,,,,,m,,,,,,,,,,,,,,,155,1,923.7681,925.1512,m,1,1.3689,,[],[],[],[],[],[],[],925.1512,927.1502,927.1502,928.2177,[],[],[],[],[],[],[],m,928.2179,928.2179,0.068046683,-0.375355988,0,0,0,,0,154,154,81,1,2,word,ADVISORY,print,advisory_p.png,1.0665,,,,
,,,,31947,001,2025-10-26_18h49.20.093,HW_LDT_1,2024.2.4,MacIntel,59.88023952,,,,,,,,,,,,,,,,,,,,,,928.2191,928.418,928.4181,928.9178,,,,,,,,,,,,,,1.3389,1,,,,,,,,,,,,,,m,,,,,,,,,,,,,,,156,0,928.9184,930.2678,m,1,1.3389,,[],[],[],[],[],[],[],930.2678,932.2679,932.2679,932.2681,[],[],[],[],[],[],[],,932.2681,932.2681,0.068046683,-0.375355988,0,0,0,,0,155,155,148,1,2,word,SALINE,cursive,saline_c.png,,,,,
,,,,31947,001,2025-10-26_18h49.20.093,HW_LDT_1,2024.2.4,MacIntel,59.88023952,,,,,,,,,,,,,,,,,,,,,,932.2693,932.4678,932.4678,932.9668,,,,,,,,,,,,,,1.1664,1,,,,,,,,,,,,,,z,,,,,,,,,,,,,,,157,0,932.9674,934.1344,z,1,1.1664,,[],[],[],[],[],[],[],934.1345,936.1346,936.1346,936.1347,[],[],[],[],[],[],[],,936.1348,936.1348,0.068046683,-0.375355988,0,0,0,,0,156,156,21,1,2,RL,pamest,print,pamest_p.png,,,,,
,,,,31947,001,2025-10-26_18h49.20.093,HW_LDT_1,2024.2.4,MacIntel,59.88023952,,,,,,,,,,,,,,,,,,,,,,936.1359,936.3345,936.3346,936.8341,,,,,,,,,,,,,,1.8375,1,,,,,,,,,,,,,,z,,,,,,,,,,,,,,,158,0,936.8345,938.6846,z,1,1.8375,,[],[],[],[],[],[],[],938.6848,940.6847,940.6848,940.685,[],[],[],[],[],[],[],,940.685,940.6851,0.068046683,-0.375355988,0,0,0,,0,157,157,27,1,2,RL,repifion,cursive,repifion_c.png,,,,,
,,,,31947,001,2025-10-26_18h49.20.093,HW_LDT_1,2024.2.4,MacIntel,59.88023952,,,,,,,,,,,,,,,,,,,,,,940.6862,940.8842,940.8843,941.3836,,,,,,,,,,,,,,1.026,1,,,,,,,,,,,,,,m,,,,,,,,,,,,,,,159,0,941.3841,942.418,m,1,1.026,,[],[],[],[],[],[],[],942.418,944.418,944.4181,944.4182,[],[],[],[],[],[],[],,944.4183,944.4184,0.068046683,-0.375355988,0,0,0,,0,158,158,143,1,2,word,REMOVAL,print,removal_p.png,,,,,
,,,,31947,001,2025-10-26_18h49.20.093,HW_LDT_1,2024.2.4,MacIntel,59.88023952,,,,,,,,,,,,,,,,,,,,,,944.4195,944.6181,944.6181,945.1181,,,,,,,,,,,,,,0.9687,1,,,,,,,,,,,,,,m,,,,,,,,,,,,,,,160,0,945.1185,946.1013,m,1,0.9687,,[],[],[],[],[],[],[],946.1014,948.1004,948.1005,948.1006,[],[],[],[],[],[],[],,948.1006,948.1008,0.068046683,-0.375355988,0,0,0,,0,159,159,130,1,2,word,POLICY,print,policy_p.png,,,,,
,,,,31947,001,2025-10-26_18h49.20.093,HW_LDT_1,2024.2.4,MacIntel,59.88023952,,,,,,,,,,,,,,,,,,,,,,,,,,,,,,,,,,,,,,,,,,,,,,,,,,,,,,,,,,,,,,,,,,,,,,,,,,,,,,,,,,,,,,,,,,,,,,,,,,,,,,,,,,,,,,,,,,,,,948.1134,953.1019
