counterbalance_lists.group,counterbalance_lists.remaining,get_list.started,get_list.stopped,participant,session,date,expName,psychopyVersion,OS,frameRate,Instructions.started,Instructions.stopped,key_resp.keys,instr_done_touch.x,instr_done_touch.y,instr_done_touch.leftButton,instr_done_touch.midButton,instr_done_touch.rightButton,instr_done_touch.clicked_name,start_instr.thisRepN,start_instr.thisTrialN,start_instr.thisN,start_instr.thisIndex,start_instr.ran,pageN,phase,instruct_text,has_image,instruct_image,key_resp.rt,key_resp.duration,showProgress.started,showProgress.stopped,fix.started,fix.stopped,prac.started,prac.stopped,response.keys,response.corr,response.rt,response.duration,touch_resp.x,touch_resp.y,touch_resp.leftButton,touch_resp.midButton,touch_resp.rightButton,touch_resp.time,touch_resp.clicked_name,rt,corr,feedback.started,feedback.stopped,trials.thisRepN,trials.thisTrialN,trials.thisN,trials.thisIndex,trials.ran,TrialID,StimulusType,Condition,PrimeDuration,Prime,Target,corrAns,Instructions_expt.started,Instructions_expt.stopped,key_resp_3.keys,instr_done_touch_3.x,instr_done_touch_3.y,instr_done_touch_3.leftButton,instr_done_touch_3.midButton,instr_done_touch_3.rightButton,instr_done_touch_3.clicked_name,instr_experiment.thisRepN,instr_experiment.thisTrialN,instr_experiment.thisN,instr_experiment.thisIndex,instr_experiment.ran,trialID,flag,maintask.started,maintask.stopped,key_resp_2.keys,key_resp_2.corr,key_resp_2.rt,key_resp_2.duration,targ_click.x,targ_click.y,targ_click.leftButton,targ_click.midButton,targ_click.rightButton,targ_click.time,targ_click.clicked_name,ITI.started,ITI.stopped,probe.started,probe.stopped,click_probe.x,click_probe.y,click_probe.leftButton,click_probe.midButton,click_probe.rightButton,click_probe.time,click_probe.clicked_name,key_resp_probe.keys,Break.started,Break.stopped,break_done_touch.x,break_done_touch.y,break_done_touch.leftButton,break_done_touch.midButton,break_done_touch.rightButton,break_done_keyboard.keys,list2_trials.thisRepN,list2_trials.thisTrialN,list2_trials.thisN,list2_trials.thisIndex,list2_trials.ran,list_id,item_type,string,font,stim_file,key_resp_probe.rt,key_resp_probe.duration,break_done_touch.clicked_name,End.started,End.stopped
list2,,0.5384,0.5386,31951,001,2025-10-17_14h14.28.469,HW_LDT_1,2024.2.4,MacIntel,62.89308176,,,,,,,,,,,,,,,,,,,,,,,,,,,,,,,,,,,,,,,,,,,,,,,,,,,,,,,,,,,,,,,,,,,,,,,,,,,,,,,,,,,,,,,,,,,,,,,,,,,,,,,,,,,,,,,,,,,,,,
,,,,31951,001,2025-10-17_14h14.28.469,HW_LDT_1,2024.2.4,MacIntel,62.89308176,0.5552,30.212,,-0.057281528,-0.378532571,1,0,0,instr_done_button,0,0,0,0,1,1,instructions,"INSTRUCTIONS
At the start of each trial, look at the plus sign  (+) in the center of the screen.  This tells you that a trial is about to begin and where to look. Second, the plus sign will disappear and a string of letters will appear. Your task is to determine if the string of letters is a word or not. If the item is a word press the M key (on keyboard)  or touch the word button (phone/tablet).  If the item is not a word,  press the  Z key (on keyboard)  or touch the nonword button (on phone/tablet). The items will be presented for a short time. 
Press the space bar or touch  continue.",0,,,,,,,,,,,,,,,,,,,,,,,,,,,,,,,,,,,,,,,,,,,,,,,,,,,,,,,,,,,,,,,,,,,,,,,,,,,,,,,,,,,,,,,,,,,,,,,,,,,,
,,,,31951,001,2025-10-17_14h14.28.469,HW_LDT_1,2024.2.4,MacIntel,62.89308176,30.2131,33.6284,space,-0.057281528,-0.378532571,0,0,0,,0,1,1,1,1,2,instructions,"If your device has a keyboard, press the 'Z' key for nonwords and the 'M' key for words.





Press the space bar or touch the button below to continue.",0,keyboard-example.gif,3.3907,,,,,,,,,,,,,,,,,,,,,,,,,,,,,,,,,,,,,,,,,,,,,,,,,,,,,,,,,,,,,,,,,,,,,,,,,,,,,,,,,,,,,,,,,,,,,,,,,,
,,,,31951,001,2025-10-17_14h14.28.469,HW_LDT_1,2024.2.4,MacIntel,62.89308176,33.63,37.8616,space,-0.057281528,-0.378532571,0,0,0,,0,2,2,2,1,3,instructions,"If you are using a touchscreen only device, use the buttons on the screen. Do not use the mouse.





Press the space bar or touch the button below to continue.",0,touchscreen-example.gif,4.2037,,,,,,,,,,,,,,,,,,,,,,,,,,,,,,,,,,,,,,,,,,,,,,,,,,,,,,,,,,,,,,,,,,,,,,,,,,,,,,,,,,,,,,,,,,,,,,,,,,
,,,,31951,001,2025-10-17_14h14.28.469,HW_LDT_1,2024.2.4,MacIntel,62.89308176,37.8637,97.3261,space,0.394227093,0.127980742,0,0,0,,0,3,3,3,1,4,instructions,"It is very important that you respond as quickly and accurately as possible, as each letter string will only be on the screen for two seconds. If you do not respond within this time, the message 'Too slow!' will be displayed and the experiment will progress to the next letter string. The first 20 trials will be practice trials and you will receive feedback on your answers. 

Press the space bar or touch the button below to start the practice trials.",0,,59.4347,,,,,,,,,,,,,,,,,,,,,,,,,,,,,,,,,,,,,,,,,,,,,,,,,,,,,,,,,,,,,,,,,,,,,,,,,,,,,,,,,,,,,,,,,,,,,,,,,,
,,,,31951,001,2025-10-17_14h14.28.469,HW_LDT_1,2024.2.4,MacIntel,62.89308176,,,,,,,,,,,,,,,,,,,,,,97.3495,97.526,97.5264,98.0259,98.0263,99.3927,z,1,1.3372,,[],[],[],[],[],[],[],1.3372,1,99.3932,99.8925,0,0,0,13,1,1014,NW,UN,33,winfer,ROUPET,z,,,,,,,,,,,,,,,,,,,,,,,,,,,,,,,,,,,,,,,,,,,,,,,,,,,,,,,,,,,,,,,,
,,,,31951,001,2025-10-17_14h14.28.469,HW_LDT_1,2024.2.4,MacIntel,62.89308176,,,,,,,,,,,,,,,,,,,,,,99.8945,100.0922,100.0923,100.5921,100.5937,101.6755,z,1,1.0631,,[],[],[],[],[],[],[],1.0631,1,101.6757,102.1755,0,1,1,15,1,1016,NW,UN,16,mushed,WHAISE,z,,,,,,,,,,,,,,,,,,,,,,,,,,,,,,,,,,,,,,,,,,,,,,,,,,,,,,,,,,,,,,,,
,,,,31951,001,2025-10-17_14h14.28.469,HW_LDT_1,2024.2.4,MacIntel,62.89308176,,,,,,,,,,,,,,,,,,,,,,102.1774,102.3753,102.3755,102.8754,102.8767,103.7587,z,1,0.8664,,[],[],[],[],[],[],[],0.8664,1,103.7589,104.2587,0,2,2,8,1,1009,NW,"ID",33,aslert,ASLERT,z,,,,,,,,,,,,,,,,,,,,,,,,,,,,,,,,,,,,,,,,,,,,,,,,,,,,,,,,,,,,,,,,
,,,,31951,001,2025-10-17_14h14.28.469,HW_LDT_1,2024.2.4,MacIntel,62.89308176,,,,,,,,,,,,,,,,,,,,,,104.2605,104.4586,104.4586,104.9586,104.9601,105.8254,z,1,0.8469,,[],[],[],[],[],[],[],0.8469,1,105.8256,106.3253,0,3,3,9,1,1010,NW,"ID",33,fariny,FARINY,z,,,,,,,,,,,,,,,,,,,,,,,,,,,,,,,,,,,,,,,,,,,,,,,,,,,,,,,,,,,,,,,,
,,,,31951,001,2025-10-17_14h14.28.469,HW_LDT_1,2024.2.4,MacIntel,62.89308176,,,,,,,,,,,,,,,,,,,,,,106.3271,106.5253,106.5254,107.0252,107.0263,107.6919,m,1,0.6493,,[],[],[],[],[],[],[],0.6493,1,107.6921,108.1919,0,4,4,6,1,1007,WORD,UN,16,tropic,ZOMBIE,m,,,,,,,,,,,,,,,,,,,,,,,,,,,,,,,,,,,,,,,,,,,,,,,,,,,,,,,,,,,,,,,,
,,,,31951,001,2025-10-17_14h14.28.469,HW_LDT_1,2024.2.4,MacIntel,62.89308176,,,,,,,,,,,,,,,,,,,,,,108.1937,108.3918,108.3918,108.8918,108.8928,109.8752,z,1,0.9659,,[],[],[],[],[],[],[],0.9659,1,109.8753,110.3751,0,5,5,12,1,1013,NW,UN,33,adveil,SPRINY,z,,,,,,,,,,,,,,,,,,,,,,,,,,,,,,,,,,,,,,,,,,,,,,,,,,,,,,,,,,,,,,,,
,,,,31951,001,2025-10-17_14h14.28.469,HW_LDT_1,2024.2.4,MacIntel,62.89308176,,,,,,,,,,,,,,,,,,,,,,110.377,110.575,110.5752,111.075,111.0763,111.8419,z,1,0.7465,,[],[],[],[],[],[],[],0.7465,1,111.8421,112.3417,0,6,6,10,1,1011,NW,"ID",16,inlade,INLADE,z,,,,,,,,,,,,,,,,,,,,,,,,,,,,,,,,,,,,,,,,,,,,,,,,,,,,,,,,,,,,,,,,
,,,,31951,001,2025-10-17_14h14.28.469,HW_LDT_1,2024.2.4,MacIntel,62.89308176,,,,,,,,,,,,,,,,,,,,,,112.3436,112.5416,112.5417,113.0416,113.0427,113.7251,m,1,0.6674,,[],[],[],[],[],[],[],0.6674,1,113.7252,114.2251,0,7,7,2,1,1003,WORD,"ID",16,almond,ALMOND,m,,,,,,,,,,,,,,,,,,,,,,,,,,,,,,,,,,,,,,,,,,,,,,,,,,,,,,,,,,,,,,,,
,,,,31951,001,2025-10-17_14h14.28.469,HW_LDT_1,2024.2.4,MacIntel,62.89308176,,,,,,,,,,,,,,,,,,,,,,114.227,114.4248,114.425,114.9248,114.9259,115.7749,m,1,0.8364,,[],[],[],[],[],[],[],0.8364,1,115.7751,116.2743,0,8,8,3,1,1004,WORD,"ID",16,matrix,MATRIX,m,,,,,,,,,,,,,,,,,,,,,,,,,,,,,,,,,,,,,,,,,,,,,,,,,,,,,,,,,,,,,,,,
,,,,31951,001,2025-10-17_14h14.28.469,HW_LDT_1,2024.2.4,MacIntel,62.89308176,,,,,,,,,,,,,,,,,,,,,,116.2758,116.4747,116.4748,116.9748,116.9758,117.6081,m,1,0.6144,,[],[],[],[],[],[],[],0.6144,1,117.6083,118.1081,0,9,9,7,1,1008,WORD,UN,16,hurdle,VOLUME,m,,,,,,,,,,,,,,,,,,,,,,,,,,,,,,,,,,,,,,,,,,,,,,,,,,,,,,,,,,,,,,,,
,,,,31951,001,2025-10-17_14h14.28.469,HW_LDT_1,2024.2.4,MacIntel,62.89308176,,,,,,,,,,,,,,,,,,,,,,118.1099,118.308,118.3081,118.808,118.809,119.4742,z,1,0.6569,,[],[],[],[],[],[],[],0.6569,1,119.4743,119.9748,0,10,10,14,1,1015,NW,UN,16,miaber,THRALE,z,,,,,,,,,,,,,,,,,,,,,,,,,,,,,,,,,,,,,,,,,,,,,,,,,,,,,,,,,,,,,,,,
,,,,31951,001,2025-10-17_14h14.28.469,HW_LDT_1,2024.2.4,MacIntel,62.89308176,,,,,,,,,,,,,,,,,,,,,,119.976,120.1748,120.1748,120.6746,120.6759,121.2079,m,1,0.5144,,[],[],[],[],[],[],[],0.5144,1,121.2081,121.7071,0,11,11,4,1,1005,WORD,UN,33,abound,SQUEAK,m,,,,,,,,,,,,,,,,,,,,,,,,,,,,,,,,,,,,,,,,,,,,,,,,,,,,,,,,,,,,,,,,
,,,,31951,001,2025-10-17_14h14.28.469,HW_LDT_1,2024.2.4,MacIntel,62.89308176,,,,,,,,,,,,,,,,,,,,,,121.7085,121.9076,121.9077,122.4079,122.409,122.9579,m,1,0.5315,,[],[],[],[],[],[],[],0.5315,1,122.958,123.4576,0,12,12,0,1,1001,WORD,"ID",33,utopia,UTOPIA,m,,,,,,,,,,,,,,,,,,,,,,,,,,,,,,,,,,,,,,,,,,,,,,,,,,,,,,,,,,,,,,,,
,,,,31951,001,2025-10-17_14h14.28.469,HW_LDT_1,2024.2.4,MacIntel,62.89308176,,,,,,,,,,,,,,,,,,,,,,123.458,123.6579,123.6579,124.1578,124.1586,124.7246,m,1,0.5472,,[],[],[],[],[],[],[],0.5472,1,124.7247,125.2245,0,13,13,5,1,1006,WORD,UN,33,frenzy,OBTAIN,m,,,,,,,,,,,,,,,,,,,,,,,,,,,,,,,,,,,,,,,,,,,,,,,,,,,,,,,,,,,,,,,,
,,,,31951,001,2025-10-17_14h14.28.469,HW_LDT_1,2024.2.4,MacIntel,62.89308176,,,,,,,,,,,,,,,,,,,,,,125.2259,125.4244,125.4245,125.9244,125.9253,126.9078,z,1,0.9648,,[],[],[],[],[],[],[],0.9648,1,126.9079,127.4077,0,14,14,11,1,1012,NW,"ID",16,rashet,RASHET,z,,,,,,,,,,,,,,,,,,,,,,,,,,,,,,,,,,,,,,,,,,,,,,,,,,,,,,,,,,,,,,,,
,,,,31951,001,2025-10-17_14h14.28.469,HW_LDT_1,2024.2.4,MacIntel,62.89308176,,,,,,,,,,,,,,,,,,,,,,127.4091,127.6077,127.6077,128.1076,128.1087,128.6744,m,1,0.5483,,[],[],[],[],[],[],[],0.5483,1,128.6746,129.1744,0,15,15,1,1,1002,WORD,"ID",33,adjust,ADJUST,m,,,,,,,,,,,,,,,,,,,,,,,,,,,,,,,,,,,,,,,,,,,,,,,,,,,,,,,,,,,,,,,,
,,,,31951,001,2025-10-17_14h14.28.469,HW_LDT_1,2024.2.4,MacIntel,62.89308176,,,,,,,,,,,,,,,1,end_of_practice,"You have completed the practice trials. During the experimental trials, you will not receive feedback. On some trials you will be asked to report whether the item you just saw was in cursive or print. 
Before you begin, please ensure that you are in a comfortable and quiet location and will not be disturbed for about 15 minutes, as we cannot use your data if you do not complete all the trials. 
 When you are ready to start the experimental trials, please press space or touch the button below.",,,,,,,,,,,,,,,,,,,,,,,,,,,,,,,,,,,,,,129.1813,19169.0923,,0.102304254,-0.381719135,1,0,0,instr_done_button_3,0,0,0,0,1,,,,,,,,,,,,,,,,,,,,,,,,,,,,,,,,,,,,,,,,,,,,,,,,,,
,,,,31951,001,2025-10-17_14h14.28.469,HW_LDT_1,2024.2.4,MacIntel,62.89308176,,,,,,,,,,,,,,,,,,,,,,19169.1005,19169.292,19169.292,19169.7921,,,,,,,,,,,,,,2.0836,1,,,,,,,,,,,,,,m,,,,,,,,,,,,,,,1,0,19169.794,19171.8925,m,1,2.0836,,[],[],[],[],[],[],[],19171.8927,19173.8918,19173.8921,19173.8946,[],[],[],[],[],[],[],,19173.8946,19173.8958,0.103233855,-0.012869914,0,0,0,,0,0,0,128,1,2,word,PACIFIC,print,pacific_p.png,,,,,
,,,,31951,001,2025-10-17_14h14.28.469,HW_LDT_1,2024.2.4,MacIntel,62.89308176,,,,,,,,,,,,,,,,,,,,,,19173.8964,19174.0918,19174.0918,19174.5918,,,,,,,,,,,,,,1.4118,1,,,,,,,,,,,,,,m,,,,,,,,,,,,,,,2,0,19174.5924,19176.0084,m,1,1.4118,,[],[],[],[],[],[],[],19176.0085,19178.0083,19178.0084,19178.0087,[],[],[],[],[],[],[],,19178.0088,19178.0089,0.103233855,-0.012869914,0,0,0,,0,1,1,102,1,2,word,DENSITY,print,density_p.png,,,,,
,,,,31951,001,2025-10-17_14h14.28.469,HW_LDT_1,2024.2.4,MacIntel,62.89308176,,,,,,,,,,,,,,,,,,,,,,19178.0101,19178.2082,19178.2083,19178.7083,,,,,,,,,,,,,,1.1698,1,,,,,,,,,,,,,,m,,,,,,,,,,,,,,,3,0,19178.709,19179.8916,m,1,1.1698,,[],[],[],[],[],[],[],19179.8917,19181.8914,19181.8916,19181.8918,[],[],[],[],[],[],[],,19181.8919,19181.8921,0.103233855,-0.012869914,0,0,0,,0,2,2,141,1,2,word,RELIGION,cursive,religion_c.png,,,,,
,,,,31951,001,2025-10-17_14h14.28.469,HW_LDT_1,2024.2.4,MacIntel,62.89308176,,,,,,,,,,,,,,,,,,,,,,19181.8933,19182.0915,19182.0915,19182.5914,,,,,,,,,,,,,,1.0708,1,,,,,,,,,,,,,,z,,,,,,,,,,,,,,,4,0,19182.5921,19183.6751,z,1,1.0708,,[],[],[],[],[],[],[],19183.6752,19185.6747,19185.6748,19185.6751,[],[],[],[],[],[],[],,19185.6751,19185.6753,0.103233855,-0.012869914,0,0,0,,0,3,3,50,1,2,TL,donimant,print,donimant_p.png,,,,,
,,,,31951,001,2025-10-17_14h14.28.469,HW_LDT_1,2024.2.4,MacIntel,62.89308176,,,,,,,,,,,,,,,,,,,,,,19185.6766,19185.8746,19185.8747,19186.3746,,,,,,,,,,,,,,0.671,1,,,,,,,,,,,,,,m,,,,,,,,,,,,,,,5,0,19186.3752,19187.058,m,1,0.671,,[],[],[],[],[],[],[],19187.0582,19189.0579,19189.058,19189.0583,[],[],[],[],[],[],[],,19189.0583,19189.0585,0.103233855,-0.012869914,0,0,0,,0,4,4,159,1,2,word,VETERAN,print,veteran_p.png,,,,,
,,,,31951,001,2025-10-17_14h14.28.469,HW_LDT_1,2024.2.4,MacIntel,62.89308176,,,,,,,,,,,,,,,,,,,,,,19189.0598,19189.2578,19189.2579,19189.7578,,,,,,,,,,,,,,1.1199,1,,,,,,,,,,,,,,z,,,,,,,,,,,,,,,6,0,19189.7585,19190.8913,z,1,1.1199,,[],[],[],[],[],[],[],19190.8914,19192.891,19192.8911,19192.8915,[],[],[],[],[],[],[],,19192.8916,19192.8917,0.103233855,-0.012869914,0,0,0,,0,5,5,51,1,2,TL,etidor,cursive,etidor_c.png,,,,,
,,,,31951,001,2025-10-17_14h14.28.469,HW_LDT_1,2024.2.4,MacIntel,62.89308176,,,,,,,,,,,,,,,,,,,,,,19192.8931,19193.0909,19193.091,19193.591,,,,,,,,,,,,,,2.0076,0,,,,,,,,,,,,,,m,,,,,,,,,,,,,,,7,0,19193.5917,19195.6077,z,0,2.0076,,[],[],[],[],[],[],[],19195.6078,19197.6076,19197.6076,19197.6079,[],[],[],[],[],[],[],,19197.6079,19197.608,0.103233855,-0.012869914,0,0,0,,0,6,6,103,1,2,word,DISPUTE,cursive,dispute_c.png,,,,,
,,,,31951,001,2025-10-17_14h14.28.469,HW_LDT_1,2024.2.4,MacIntel,62.89308176,,,,,,,,,,,,,,,,,,,,,,19197.6093,19197.8075,19197.8076,19198.3076,,,,,,,,,,,,,,1.0887,1,,,,,,,,,,,,,,z,,,,,,,,,,,,,,,8,0,19198.3082,19199.4075,z,1,1.0887,,[],[],[],[],[],[],[],19199.4077,19201.4074,19201.4075,19201.4077,[],[],[],[],[],[],[],,19201.4078,19201.408,0.103233855,-0.012869914,0,0,0,,0,7,7,37,1,2,TL,adacemy,cursive,adacemy_c.png,,,,,
,,,,31951,001,2025-10-17_14h14.28.469,HW_LDT_1,2024.2.4,MacIntel,62.89308176,,,,,,,,,,,,,,,,,,,,,,19201.4093,19201.6074,19201.6075,19202.1073,,,,,,,,,,,,,,0.6239,1,,,,,,,,,,,,,,m,,,,,,,,,,,,,,,9,1,19202.1079,19202.7408,m,1,0.6239,,[],[],[],[],[],[],[],19202.7408,19204.7405,19204.7406,19206.774,[],[],[],[],[],[],[],z,19206.7741,19206.7742,0.103233855,-0.012869914,0,0,0,,0,8,8,81,1,2,word,ADVISORY,print,advisory_p.png,2.0269,,,,
,,,,31951,001,2025-10-17_14h14.28.469,HW_LDT_1,2024.2.4,MacIntel,62.89308176,,,,,,,,,,,,,,,,,,,,,,19206.7752,19206.9738,19206.9739,19207.4737,,,,,,,,,,,,,,1.9199,1,,,,,,,,,,,,,,z,,,,,,,,,,,,,,,10,0,19207.4745,19209.4072,z,1,1.9199,,[],[],[],[],[],[],[],19209.4073,19211.4069,19211.407,19211.4073,[],[],[],[],[],[],[],,19211.4074,19211.4075,0.103233855,-0.012869914,0,0,0,,0,9,9,0,1,2,RL,adnicory,print,adnicory_p.png,,,,,
,,,,31951,001,2025-10-17_14h14.28.469,HW_LDT_1,2024.2.4,MacIntel,62.89308176,,,,,,,,,,,,,,,,,,,,,,19211.4088,19211.6069,19211.607,19212.1069,,,,,,,,,,,,,,0.9899,1,,,,,,,,,,,,,,m,,,,,,,,,,,,,,,11,0,19212.1075,19213.1069,m,1,0.9899,,[],[],[],[],[],[],[],19213.107,19215.1068,19215.1068,19215.107,[],[],[],[],[],[],[],,19215.1071,19215.1073,0.103233855,-0.012869914,0,0,0,,0,10,10,142,1,2,word,REMOTE,cursive,remote_c.png,,,,,
,,,,31951,001,2025-10-17_14h14.28.469,HW_LDT_1,2024.2.4,MacIntel,62.89308176,,,,,,,,,,,,,,,,,,,,,,19215.1086,19215.3067,19215.3068,19215.8067,,,,,,,,,,,,,,0.9537,1,,,,,,,,,,,,,,z,,,,,,,,,,,,,,,12,0,19215.8074,19216.7735,z,1,0.9537,,[],[],[],[],[],[],[],19216.7735,19218.7733,19218.7734,19218.7736,[],[],[],[],[],[],[],,19218.7737,19218.7738,0.103233855,-0.012869914,0,0,0,,0,11,11,34,1,2,RL,trilude,cursive,trilude_c.png,,,,,
,,,,31951,001,2025-10-17_14h14.28.469,HW_LDT_1,2024.2.4,MacIntel,62.89308176,,,,,,,,,,,,,,,,,,,,,,19218.775,19218.9733,19218.9733,19219.4733,,,,,,,,,,,,,,4.4381,1,,,,,,,,,,,,,,z,,,,,,,,,,,,,,,13,0,19219.4738,19223.9233,z,1,4.4381,,[],[],[],[],[],[],[],19223.9234,19225.9231,19225.9232,19225.9236,[],[],[],[],[],[],[],,19225.9236,19225.9238,0.103233855,-0.012869914,0,0,0,,0,12,12,56,1,2,TL,marnigal,cursive,marnigal_c.png,,,,,
,,,,31951,001,2025-10-17_14h14.28.469,HW_LDT_1,2024.2.4,MacIntel,62.89308176,,,,,,,,,,,,,,,,,,,,,,19225.925,19226.1228,19226.1229,19226.623,,,,,,,,,,,,,,0.6702,1,,,,,,,,,,,,,,m,,,,,,,,,,,,,,,14,0,19226.6236,19227.3055,m,1,0.6702,,[],[],[],[],[],[],[],19227.3056,19229.3064,19229.3064,19229.3066,[],[],[],[],[],[],[],,19229.3066,19229.3067,0.103233855,-0.012869914,0,0,0,,0,13,13,131,1,2,word,POPULAR,cursive,popular_c.png,,,,,
,,,,31951,001,2025-10-17_14h14.28.469,HW_LDT_1,2024.2.4,MacIntel,62.89308176,,,,,,,,,,,,,,,,,,,,,,19229.3079,19229.5062,19229.5063,19230.0053,,,,,,,,,,,,,,1.4544,1,,,,,,,,,,,,,,m,,,,,,,,,,,,,,,15,0,19230.006,19231.472,m,1,1.4544,,[],[],[],[],[],[],[],19231.4721,19233.4727,19233.4728,19233.473,[],[],[],[],[],[],[],,19233.473,19233.4732,0.103233855,-0.012869914,0,0,0,,0,14,14,106,1,2,word,ELABORATE,cursive,elaborate_c.png,,,,,
,,,,31951,001,2025-10-17_14h14.28.469,HW_LDT_1,2024.2.4,MacIntel,62.89308176,,,,,,,,,,,,,,,,,,,,,,19233.4744,19233.6717,19233.6717,19234.1719,,,,,,,,,,,,,,0.7287,1,,,,,,,,,,,,,,z,,,,,,,,,,,,,,,16,0,19234.1724,19234.9056,z,1,0.7287,,[],[],[],[],[],[],[],19234.9057,19236.9052,19236.9052,19236.9055,[],[],[],[],[],[],[],,19236.9056,19236.9056,0.103233855,-0.012869914,0,0,0,,0,15,15,4,1,2,RL,cenesony,print,cenesony_p.png,,,,,
,,,,31951,001,2025-10-17_14h14.28.469,HW_LDT_1,2024.2.4,MacIntel,62.89308176,,,,,,,,,,,,,,,,,,,,,,19236.9069,19237.1059,19237.1059,19237.6058,,,,,,,,,,,,,,0.7368,1,,,,,,,,,,,,,,m,,,,,,,,,,,,,,,17,0,19237.6065,19238.355,m,1,0.7368,,[],[],[],[],[],[],[],19238.3551,19240.3551,19240.3551,19240.3555,[],[],[],[],[],[],[],,19240.3555,19240.3556,0.103233855,-0.012869914,0,0,0,,0,16,16,82,1,2,word,AMATEUR,cursive,amateur_c.png,,,,,
,,,,31951,001,2025-10-17_14h14.28.469,HW_LDT_1,2024.2.4,MacIntel,62.89308176,,,,,,,,,,,,,,,,,,,,,,19240.3569,19240.5558,19240.5559,19241.055,,,,,,,,,,,,,,0.9911,1,,,,,,,,,,,,,,z,,,,,,,,,,,,,,,18,1,19241.0557,19242.056,z,1,0.9911,,[],[],[],[],[],[],[],19242.056,19244.0556,19244.0559,19245.3217,[],[],[],[],[],[],[],z,19245.3219,19245.322,0.103233855,-0.012869914,0,0,0,,0,17,17,39,1,2,TL,aminal,print,aminal_p.png,1.2598,,,,
,,,,31951,001,2025-10-17_14h14.28.469,HW_LDT_1,2024.2.4,MacIntel,62.89308176,,,,,,,,,,,,,,,,,,,,,,19245.3229,19245.5223,19245.5223,19246.0223,,,,,,,,,,,,,,1.0103,1,,,,,,,,,,,,,,z,,,,,,,,,,,,,,,19,0,19246.0229,19247.038,z,1,1.0103,,[],[],[],[],[],[],[],19247.0381,19249.0387,19249.0388,19249.039,[],[],[],[],[],[],[],,19249.0391,19249.0393,0.103233855,-0.012869914,0,0,0,,0,18,18,73,1,2,TL,redisent,print,redisent_p.png,,,,,
,,,,31951,001,2025-10-17_14h14.28.469,HW_LDT_1,2024.2.4,MacIntel,62.89308176,,,,,,,,,,,,,,,,,,,,,,19249.0406,19249.2386,19249.2387,19249.7387,,,,,,,,,,,,,,0.6044,1,,,,,,,,,,,,,,m,,,,,,,,,,,,,,,20,0,19249.7393,19250.3556,m,1,0.6044,,[],[],[],[],[],[],[],19250.3557,19252.3548,19252.3548,19252.355,[],[],[],[],[],[],[],,19252.3551,19252.3552,0.103233855,-0.012869914,0,0,0,,0,19,19,92,1,2,word,CATEGORY,print,category_p.png,,,,,
,,,,31951,001,2025-10-17_14h14.28.469,HW_LDT_1,2024.2.4,MacIntel,62.89308176,,,,,,,,,,,,,,,,,,,,,,19252.3563,19252.5553,19252.5553,19253.0544,,,,,,,,,,,,,,2.2157,1,,,,,,,,,,,,,,z,,,,,,,,,,,,,,,21,0,19253.055,19255.2718,z,1,2.2157,,[],[],[],[],[],[],[],19255.2719,19257.2716,19257.2716,19257.2718,[],[],[],[],[],[],[],,19257.2719,19257.272,0.103233855,-0.012869914,0,0,0,,0,20,20,68,1,2,TL,quatily,cursive,quatily_c.png,,,,,
,,,,31951,001,2025-10-17_14h14.28.469,HW_LDT_1,2024.2.4,MacIntel,62.89308176,,,,,,,,,,,,,,,,,,,,,,19257.2733,19257.4717,19257.4717,19257.9718,,,,,,,,,,,,,,0.7202,1,,,,,,,,,,,,,,m,,,,,,,,,,,,,,,22,0,19257.9724,19258.7053,m,1,0.7202,,[],[],[],[],[],[],[],19258.7054,19260.7049,19260.705,19260.7051,[],[],[],[],[],[],[],,19260.7052,19260.7054,0.103233855,-0.012869914,0,0,0,,0,21,21,151,1,2,word,SPECIFIC,print,specific_p.png,,,,,
,,,,31951,001,2025-10-17_14h14.28.469,HW_LDT_1,2024.2.4,MacIntel,62.89308176,,,,,,,,,,,,,,,,,,,,,,19260.7064,19260.905,19260.905,19261.404,,,,,,,,,,,,,,0.6719,1,,,,,,,,,,,,,,m,,,,,,,,,,,,,,,23,0,19261.4045,19262.0883,m,1,0.6719,,[],[],[],[],[],[],[],19262.0884,19264.0881,19264.0881,19264.0883,[],[],[],[],[],[],[],,19264.0883,19264.0885,0.103233855,-0.012869914,0,0,0,,0,22,22,96,1,2,word,CONSIDER,print,consider_p.png,,,,,
,,,,31951,001,2025-10-17_14h14.28.469,HW_LDT_1,2024.2.4,MacIntel,62.89308176,,,,,,,,,,,,,,,,,,,,,,19264.0896,19264.288,19264.2882,19264.7881,,,,,,,,,,,,,,0.7907,1,,,,,,,,,,,,,,z,,,,,,,,,,,,,,,24,0,19264.7886,19265.5882,z,1,0.7907,,[],[],[],[],[],[],[],19265.5882,19267.5879,19267.5881,19267.5882,[],[],[],[],[],[],[],,19267.5883,19267.5884,0.103233855,-0.012869914,0,0,0,,0,23,23,54,1,2,TL,liretal,cursive,liretal_c.png,,,,,
,,,,31951,001,2025-10-17_14h14.28.469,HW_LDT_1,2024.2.4,MacIntel,62.89308176,,,,,,,,,,,,,,,,,,,,,,19267.5896,19267.7879,19267.788,19268.2879,,,,,,,,,,,,,,0.8207,1,,,,,,,,,,,,,,m,,,,,,,,,,,,,,,25,0,19268.2885,19269.1214,m,1,0.8207,,[],[],[],[],[],[],[],19269.1215,19271.1212,19271.1212,19271.1215,[],[],[],[],[],[],[],,19271.1215,19271.1216,0.103233855,-0.012869914,0,0,0,,0,24,24,108,1,2,word,FORTUNE,print,fortune_p.png,,,,,
,,,,31951,001,2025-10-17_14h14.28.469,HW_LDT_1,2024.2.4,MacIntel,62.89308176,,,,,,,,,,,,,,,,,,,,,,19271.1228,19271.3212,19271.3212,19271.8214,,,,,,,,,,,,,,0.9864,1,,,,,,,,,,,,,,z,,,,,,,,,,,,,,,26,0,19271.822,19272.8213,z,1,0.9864,,[],[],[],[],[],[],[],19272.8214,19274.821,19274.8211,19274.8213,[],[],[],[],[],[],[],,19274.8214,19274.8214,0.103233855,-0.012869914,0,0,0,,0,25,25,72,1,2,TL,revomal,print,revomal_p.png,,,,,
,,,,31951,001,2025-10-17_14h14.28.469,HW_LDT_1,2024.2.4,MacIntel,62.89308176,,,,,,,,,,,,,,,,,,,,,,19274.8226,19275.0209,19275.021,19275.521,,,,,,,,,,,,,,0.7374,1,,,,,,,,,,,,,,m,,,,,,,,,,,,,,,27,0,19275.5214,19276.2712,m,1,0.7374,,[],[],[],[],[],[],[],19276.2713,19278.2708,19278.2709,19278.2711,[],[],[],[],[],[],[],,19278.2712,19278.2713,0.103233855,-0.012869914,0,0,0,,0,26,26,124,1,2,word,NUMERICAL,cursive,numerical_c.png,,,,,
,,,,31951,001,2025-10-17_14h14.28.469,HW_LDT_1,2024.2.4,MacIntel,62.89308176,,,,,,,,,,,,,,,,,,,,,,19278.2725,19278.4709,19278.4709,19278.9709,,,,,,,,,,,,,,1.0362,1,,,,,,,,,,,,,,m,,,,,,,,,,,,,,,28,0,19278.9714,19280.0209,m,1,1.0362,,[],[],[],[],[],[],[],19280.0211,19282.0206,19282.0208,19282.0209,[],[],[],[],[],[],[],,19282.021,19282.0211,0.103233855,-0.012869914,0,0,0,,0,27,27,90,1,2,word,CAPITAL,cursive,capital_c.png,,,,,
,,,,31951,001,2025-10-17_14h14.28.469,HW_LDT_1,2024.2.4,MacIntel,62.89308176,,,,,,,,,,,,,,,,,,,,,,19282.0223,19282.2207,19282.2208,19282.7207,,,,,,,,,,,,,,0.7278,1,,,,,,,,,,,,,,m,,,,,,,,,,,,,,,29,0,19282.7212,19283.4535,m,1,0.7278,,[],[],[],[],[],[],[],19283.4536,19285.454,19285.4541,19285.4542,[],[],[],[],[],[],[],,19285.4542,19285.4544,0.103233855,-0.012869914,0,0,0,,0,28,28,146,1,2,word,RETIRE,cursive,retire_c.png,,,,,
,,,,31951,001,2025-10-17_14h14.28.469,HW_LDT_1,2024.2.4,MacIntel,62.89308176,,,,,,,,,,,,,,,,,,,,,,19285.4555,19285.6539,19285.654,19286.1539,,,,,,,,,,,,,,0.8725,1,,,,,,,,,,,,,,z,,,,,,,,,,,,,,,30,1,19286.1544,19287.0374,z,1,0.8725,,[],[],[],[],[],[],[],19287.0375,19289.0372,19289.0372,19290.4872,[],[],[],[],[],[],[],z,19290.4873,19290.4875,0.103233855,-0.012869914,0,0,0,,0,29,29,62,1,2,TL,opmital,cursive,opmital_c.png,1.4386,,,,
,,,,31951,001,2025-10-17_14h14.28.469,HW_LDT_1,2024.2.4,MacIntel,62.89308176,,,,,,,,,,,,,,,,,,,,,,19290.4885,19290.6871,19290.6872,19291.187,,,,,,,,,,,,,,1.1044,1,,,,,,,,,,,,,,m,,,,,,,,,,,,,,,31,0,19291.1875,19292.304,m,1,1.1044,,[],[],[],[],[],[],[],19292.304,19294.3036,19294.3038,19294.3039,[],[],[],[],[],[],[],,19294.3039,19294.3041,0.103233855,-0.012869914,0,0,0,,0,30,30,83,1,2,word,ANIMAL,print,animal_p.png,,,,,
,,,,31951,001,2025-10-17_14h14.28.469,HW_LDT_1,2024.2.4,MacIntel,62.89308176,,,,,,,,,,,,,,,,,,,,,,19294.3053,19294.5035,19294.5035,19295.0035,,,,,,,,,,,,,,3.225,1,,,,,,,,,,,,,,z,,,,,,,,,,,,,,,32,0,19295.004,19298.2362,z,1,3.225,,[],[],[],[],[],[],[],19298.2364,19300.2369,19300.2369,19300.2372,[],[],[],[],[],[],[],,19300.2372,19300.2373,0.103233855,-0.012869914,0,0,0,,0,31,31,45,1,2,TL,carnidal,cursive,carnidal_c.png,,,,,
,,,,31951,001,2025-10-17_14h14.28.469,HW_LDT_1,2024.2.4,MacIntel,62.89308176,,,,,,,,,,,,,,,,,,,,,,19300.2384,19300.4367,19300.4368,19300.9362,,,,,,,,,,,,,,1.0087,0,,,,,,,,,,,,,,m,,,,,,,,,,,,,,,33,1,19300.9371,19301.9536,z,0,1.0087,,[],[],[],[],[],[],[],19301.9536,19303.9532,19303.9534,19305.0033,[],[],[],[],[],[],[],z,19305.0034,19305.0034,0.103233855,-0.012869914,0,0,0,,0,32,32,113,1,2,word,LITERAL,cursive,literal_c.png,1.047,,,,
,,,,31951,001,2025-10-17_14h14.28.469,HW_LDT_1,2024.2.4,MacIntel,62.89308176,,,,,,,,,,,,,,,,,,,,,,19305.0048,19305.2031,19305.2032,19305.7031,,,,,,,,,,,,,,2.1034,1,,,,,,,,,,,,,,z,,,,,,,,,,,,,,,34,0,19305.7039,19307.8198,z,1,2.1034,,[],[],[],[],[],[],[],19307.8199,19309.8197,19309.8197,19309.8199,[],[],[],[],[],[],[],,19309.82,19309.82,0.103233855,-0.012869914,0,0,0,,0,33,33,1,1,2,RL,caleberia,print,caleberia_p.png,,,,,
,,,,31951,001,2025-10-17_14h14.28.469,HW_LDT_1,2024.2.4,MacIntel,62.89308176,,,,,,,,,,,,,,,,,,,,,,19309.8212,19310.0196,19310.0196,19310.5197,,,,,,,,,,,,,,0.741,1,,,,,,,,,,,,,,z,,,,,,,,,,,,,,,35,0,19310.5204,19311.2696,z,1,0.741,,[],[],[],[],[],[],[],19311.2697,19313.2695,19313.2696,19313.2698,[],[],[],[],[],[],[],,19313.2698,19313.27,0.103233855,-0.012869914,0,0,0,,0,34,34,77,1,2,TL,sloten,print,sloten_p.png,,,,,
,,,,31951,001,2025-10-17_14h14.28.469,HW_LDT_1,2024.2.4,MacIntel,62.89308176,,,,,,,,,,,,,,,,,,,,,,19313.2712,19313.4695,19313.4696,19313.9695,,,,,,,,,,,,,,0.6307,1,,,,,,,,,,,,,,m,,,,,,,,,,,,,,,36,0,19313.9703,19314.6029,m,1,0.6307,,[],[],[],[],[],[],[],19314.6029,19316.6029,19316.6029,19316.6033,[],[],[],[],[],[],[],,19316.6033,19316.6033,0.103233855,-0.012869914,0,0,0,,0,35,35,98,1,2,word,CRIMINAL,cursive,criminal_c.png,,,,,
,,,,31951,001,2025-10-17_14h14.28.469,HW_LDT_1,2024.2.4,MacIntel,62.89308176,,,,,,,,,,,,,,,,,,,,,,19316.6043,19316.8028,19316.8029,19317.3027,,,,,,,,,,,,,,0.8948,1,,,,,,,,,,,,,,z,,,,,,,,,,,,,,,37,1,19317.3033,19318.2027,z,1,0.8948,,[],[],[],[],[],[],[],19318.2028,19320.2025,19320.2026,19321.4527,[],[],[],[],[],[],[],z,19321.4528,19321.453,0.103233855,-0.012869914,0,0,0,,0,36,36,6,1,2,RL,conbicer,print,conbicer_p.png,1.2389,,,,
,,,,31951,001,2025-10-17_14h14.28.469,HW_LDT_1,2024.2.4,MacIntel,62.89308176,,,,,,,,,,,,,,,,,,,,,,19321.4544,19321.6525,19321.6526,19322.1524,,,,,,,,,,,,,,0.7565,1,,,,,,,,,,,,,,m,,,,,,,,,,,,,,,38,0,19322.1532,19322.9191,m,1,0.7565,,[],[],[],[],[],[],[],19322.9193,19324.9191,19324.9191,19324.9193,[],[],[],[],[],[],[],,19324.9194,19324.9195,0.103233855,-0.012869914,0,0,0,,0,37,37,132,1,2,word,PROPOSAL,cursive,proposal_c.png,,,,,
,,,,31951,001,2025-10-17_14h14.28.469,HW_LDT_1,2024.2.4,MacIntel,62.89308176,,,,,,,,,,,,,,,,,,,,,,19324.921,19325.119,19325.1191,19325.619,,,,,,,,,,,,,,0.9047,1,,,,,,,,,,,,,,m,,,,,,,,,,,,,,,39,0,19325.6198,19326.5358,m,1,0.9047,,[],[],[],[],[],[],[],19326.5359,19328.5355,19328.5356,19328.5358,[],[],[],[],[],[],[],,19328.5358,19328.5361,0.103233855,-0.012869914,0,0,0,,0,38,38,97,1,2,word,COVERAGE,cursive,coverage_c.png,,,,,
,,,,31951,001,2025-10-17_14h14.28.469,HW_LDT_1,2024.2.4,MacIntel,62.89308176,,,,,,,,,,,,,,,,,,,,,,19328.5375,19328.7355,19328.7356,19329.2355,,,,,,,,,,,,,,1.1554,1,,,,,,,,,,,,,,m,,,,,,,,,,,,,,,40,1,19329.2361,19330.402,m,1,1.1554,,[],[],[],[],[],[],[],19330.4021,19332.402,19332.4021,19333.9177,[],[],[],[],[],[],[],m,19333.9179,19333.9179,0.103233855,-0.012869914,0,0,0,,0,39,39,140,1,2,word,RELATIVE,print,relative_p.png,1.5108,,,,
,,,,31951,001,2025-10-17_14h14.28.469,HW_LDT_1,2024.2.4,MacIntel,62.89308176,,,,,,,,,,,,,,,,,,,,,,19333.919,19334.1186,19334.1187,19334.6187,,,,,,,,,,,,,,1.3482,1,,,,,,,,,,,,,,m,,,,,,,,,,,,,,,41,0,19334.6193,19335.9687,m,1,1.3482,,[],[],[],[],[],[],[],19335.9688,19337.9685,19337.9686,19337.9689,[],[],[],[],[],[],[],,19337.9689,19337.9691,0.103233855,-0.012869914,0,0,0,,0,40,40,150,1,2,word,SENTIMENT,cursive,sentiment_c.png,,,,,
,,,,31951,001,2025-10-17_14h14.28.469,HW_LDT_1,2024.2.4,MacIntel,62.89308176,,,,,,,,,,,,,,,,,,,,,,19337.9707,19338.1686,19338.1687,19338.6685,,,,,,,,,,,,,,1.1231,0,,,,,,,,,,,,,,z,,,,,,,,,,,,,,,42,0,19338.6691,19339.8011,m,0,1.1231,,[],[],[],[],[],[],[],19339.8012,19341.8017,19341.8017,19341.802,[],[],[],[],[],[],[],,19341.8021,19341.8022,0.103233855,-0.012869914,0,0,0,,0,41,41,26,1,2,RL,retupar,cursive,retupar_c.png,,,,,
,,,,31951,001,2025-10-17_14h14.28.469,HW_LDT_1,2024.2.4,MacIntel,62.89308176,,,,,,,,,,,,,,,,,,,,,,19341.8038,19342.0017,19342.0018,19342.5017,,,,,,,,,,,,,,1.4228,1,,,,,,,,,,,,,,z,,,,,,,,,,,,,,,43,0,19342.5023,19343.935,z,1,1.4228,,[],[],[],[],[],[],[],19343.9351,19345.9349,19345.935,19345.9352,[],[],[],[],[],[],[],,19345.9352,19345.9354,0.103233855,-0.012869914,0,0,0,,0,42,42,17,1,2,RL,macise,cursive,macise_c.png,,,,,
,,,,31951,001,2025-10-17_14h14.28.469,HW_LDT_1,2024.2.4,MacIntel,62.89308176,,,,,,,,,,,,,,,,,,,,,,19345.9369,19346.1348,19346.1349,19346.6348,,,,,,,,,,,,,,0.6611,1,,,,,,,,,,,,,,m,,,,,,,,,,,,,,,44,0,19346.6355,19347.3015,m,1,0.6611,,[],[],[],[],[],[],[],19347.3016,19349.3014,19349.3014,19349.3017,[],[],[],[],[],[],[],,19349.3017,19349.3018,0.103233855,-0.012869914,0,0,0,,0,43,43,130,1,2,word,POLICY,print,policy_p.png,,,,,
,,,,31951,001,2025-10-17_14h14.28.469,HW_LDT_1,2024.2.4,MacIntel,62.89308176,,,,,,,,,,,,,,,,,,,,,,19349.303,19349.5006,19349.5006,19350.0014,,,,,,,,,,,,,,1.4276,1,,,,,,,,,,,,,,m,,,,,,,,,,,,,,,45,0,19350.0021,19351.4347,m,1,1.4276,,[],[],[],[],[],[],[],19351.4348,19353.4345,19353.4346,19353.4349,[],[],[],[],[],[],[],,19353.435,19353.435,0.103233855,-0.012869914,0,0,0,,0,44,44,91,1,2,word,CARDINAL,cursive,cardinal_c.png,,,,,
,,,,31951,001,2025-10-17_14h14.28.469,HW_LDT_1,2024.2.4,MacIntel,62.89308176,,,,,,,,,,,,,,,,,,,,,,19353.4363,19353.6345,19353.6346,19354.1346,,,,,,,,,,,,,,1.0645,1,,,,,,,,,,,,,,z,,,,,,,,,,,,,,,46,0,19354.1351,19355.2013,z,1,1.0645,,[],[],[],[],[],[],[],19355.2014,19357.2011,19357.2011,19357.2014,[],[],[],[],[],[],[],,19357.2014,19357.2015,0.103233855,-0.012869914,0,0,0,,0,45,45,69,1,2,TL,resufal,cursive,resufal_c.png,,,,,
,,,,31951,001,2025-10-17_14h14.28.469,HW_LDT_1,2024.2.4,MacIntel,62.89308176,,,,,,,,,,,,,,,,,,,,,,19357.203,19357.401,19357.4011,19357.901,,,,,,,,,,,,,,0.5407,1,,,,,,,,,,,,,,m,,,,,,,,,,,,,,,47,0,19357.9017,19358.4511,m,1,0.5407,,[],[],[],[],[],[],[],19358.4511,19360.4509,19360.451,19360.4512,[],[],[],[],[],[],[],,19360.4513,19360.4513,0.103233855,-0.012869914,0,0,0,,0,46,46,127,1,2,word,ORIGINAL,print,original_p.png,,,,,
,,,,31951,001,2025-10-17_14h14.28.469,HW_LDT_1,2024.2.4,MacIntel,62.89308176,,,,,,,,,,,,,,,,,,,,,,19360.4526,19360.6509,19360.651,19361.1508,,,,,,,,,,,,,,0.8263,0,,,,,,,,,,,,,,m,,,,,,,,,,,,,,,48,0,19361.1515,19361.9841,z,0,0.8263,,[],[],[],[],[],[],[],19361.9842,19363.9841,19363.9842,19363.9844,[],[],[],[],[],[],[],,19363.9845,19363.9846,0.103233855,-0.012869914,0,0,0,,0,47,47,125,1,2,word,OPERATOR,cursive,operator_c.png,,,,,
,,,,31951,001,2025-10-17_14h14.28.469,HW_LDT_1,2024.2.4,MacIntel,62.89308176,,,,,,,,,,,,,,,,,,,,,,19363.986,19364.1841,19364.1842,19364.6842,,,,,,,,,,,,,,0.6078,1,,,,,,,,,,,,,,m,,,,,,,,,,,,,,,49,0,19364.6848,19365.3007,m,1,0.6078,,[],[],[],[],[],[],[],19365.3007,19367.3007,19367.3007,19367.3008,[],[],[],[],[],[],[],,19367.301,19367.301,0.103233855,-0.012869914,0,0,0,,0,48,48,87,1,2,word,CAFETERIA,print,cafeteria_p.png,,,,,
,,,,31951,001,2025-10-17_14h14.28.469,HW_LDT_1,2024.2.4,MacIntel,62.89308176,,,,,,,,,,,,,,,,,,,,,,19367.3023,19367.4997,19367.4998,19368.0006,,,,,,,,,,,,,,0.6206,1,,,,,,,,,,,,,,m,,,,,,,,,,,,,,,50,0,19368.0014,19368.634,m,1,0.6206,,[],[],[],[],[],[],[],19368.6341,19370.6331,19370.6331,19370.6333,[],[],[],[],[],[],[],,19370.6333,19370.6334,0.103233855,-0.012869914,0,0,0,,0,49,49,139,1,2,word,REGULAR,cursive,regular_c.png,,,,,
,,,,31951,001,2025-10-17_14h14.28.469,HW_LDT_1,2024.2.4,MacIntel,62.89308176,,,,,,,,,,,,,,,,,,,,,,19370.6346,19370.8338,19370.8339,19371.333,,,,,,,,,,,,,,0.8788,0,,,,,,,,,,,,,,m,,,,,,,,,,,,,,,51,0,19371.3337,19372.2172,z,0,0.8788,,[],[],[],[],[],[],[],19372.2173,19374.2171,19374.2171,19374.2174,[],[],[],[],[],[],[],,19374.2174,19374.2175,0.103233855,-0.012869914,0,0,0,,0,50,50,105,1,2,word,EDITOR,cursive,editor_c.png,,,,,
,,,,31951,001,2025-10-17_14h14.28.469,HW_LDT_1,2024.2.4,MacIntel,62.89308176,,,,,,,,,,,,,,,,,,,,,,19374.2188,19374.4171,19374.4171,19374.917,,,,,,,,,,,,,,0.9897,1,,,,,,,,,,,,,,z,,,,,,,,,,,,,,,52,0,19374.9176,19375.9165,z,1,0.9897,,[],[],[],[],[],[],[],19375.9166,19377.9169,19377.9169,19377.9173,[],[],[],[],[],[],[],,19377.9173,19377.9174,0.103233855,-0.012869914,0,0,0,,0,51,51,22,1,2,RL,posity,print,posity_p.png,,,,,
,,,,31951,001,2025-10-17_14h14.28.469,HW_LDT_1,2024.2.4,MacIntel,62.89308176,,,,,,,,,,,,,,,,,,,,,,19377.9187,19378.1164,19378.1164,19378.6168,,,,,,,,,,,,,,1.0744,1,,,,,,,,,,,,,,m,,,,,,,,,,,,,,,53,0,19378.6175,19379.7003,m,1,1.0744,,[],[],[],[],[],[],[],19379.7005,19381.6997,19381.6998,19381.7,[],[],[],[],[],[],[],,19381.7001,19381.7003,0.103233855,-0.012869914,0,0,0,,0,52,52,135,1,2,word,QUALITY,cursive,quality_c.png,,,,,
,,,,31951,001,2025-10-17_14h14.28.469,HW_LDT_1,2024.2.4,MacIntel,62.89308176,,,,,,,,,,,,,,,,,,,,,,19381.7016,19381.9001,19381.9001,19382.4,,,,,,,,,,,,,,0.8286,1,,,,,,,,,,,,,,z,,,,,,,,,,,,,,,54,0,19382.4007,19383.2336,z,1,0.8286,,[],[],[],[],[],[],[],19383.2337,19385.2331,19385.2331,19385.2334,[],[],[],[],[],[],[],,19385.2334,19385.2335,0.103233855,-0.012869914,0,0,0,,0,53,53,15,1,2,RL,linedal,print,linedal_p.png,,,,,
,,,,31951,001,2025-10-17_14h14.28.469,HW_LDT_1,2024.2.4,MacIntel,62.89308176,,,,,,,,,,,,,,,,,,,,,,19385.2348,19385.4333,19385.4333,19385.933,,,,,,,,,,,,,,0.9743,1,,,,,,,,,,,,,,m,,,,,,,,,,,,,,,55,1,19385.9337,19386.9164,m,1,0.9743,,[],[],[],[],[],[],[],19386.9165,19388.9163,19388.9164,19390.2665,[],[],[],[],[],[],[],z,19390.2665,19390.2666,0.103233855,-0.012869914,0,0,0,,0,54,54,155,1,2,word,STRATEGY,cursive,strategy_c.png,1.3462,,,,
,,,,31951,001,2025-10-17_14h14.28.469,HW_LDT_1,2024.2.4,MacIntel,62.89308176,,,,,,,,,,,,,,,,,,,,,,19390.2676,19390.4664,19390.4665,19390.9664,,,,,,,,,,,,,,1.1045,1,,,,,,,,,,,,,,z,,,,,,,,,,,,,,,56,0,19390.967,19392.083,z,1,1.1045,,[],[],[],[],[],[],[],19392.0831,19394.0829,19394.083,19394.0831,[],[],[],[],[],[],[],,19394.0832,19394.0833,0.103233855,-0.012869914,0,0,0,,0,55,55,23,1,2,RL,procogal,cursive,procogal_c.png,,,,,
,,,,31951,001,2025-10-17_14h14.28.469,HW_LDT_1,2024.2.4,MacIntel,62.89308176,,,,,,,,,,,,,,,,,,,,,,19394.0846,19394.2826,19394.2827,19394.7828,,,,,,,,,,,,,,0.6751,1,,,,,,,,,,,,,,m,,,,,,,,,,,,,,,57,0,19394.7835,19395.466,m,1,0.6751,,[],[],[],[],[],[],[],19395.4662,19397.4662,19397.4662,19397.4664,[],[],[],[],[],[],[],,19397.4664,19397.4664,0.103233855,-0.012869914,0,0,0,,0,56,56,154,1,2,word,STORAGE,print,storage_p.png,,,,,
,,,,31951,001,2025-10-17_14h14.28.469,HW_LDT_1,2024.2.4,MacIntel,62.89308176,,,,,,,,,,,,,,,,,,,,,,19397.4677,19397.6661,19397.6661,19398.1661,,,,,,,,,,,,,,2.5097,1,,,,,,,,,,,,,,z,,,,,,,,,,,,,,,58,0,19398.1666,19400.6827,z,1,2.5097,,[],[],[],[],[],[],[],19400.6828,19402.6827,19402.6827,19402.6828,[],[],[],[],[],[],[],,19402.6829,19402.683,0.103233855,-0.012869914,0,0,0,,0,57,57,5,1,2,RL,clisimal,cursive,clisimal_c.png,,,,,
,,,,31951,001,2025-10-17_14h14.28.469,HW_LDT_1,2024.2.4,MacIntel,62.89308176,,,,,,,,,,,,,,,,,,,,,,19402.6841,19402.8826,19402.8827,19403.3827,,,,,,,,,,,,,,0.6918,1,,,,,,,,,,,,,,m,,,,,,,,,,,,,,,59,0,19403.3832,19404.0827,m,1,0.6918,,[],[],[],[],[],[],[],19404.0827,19406.0824,19406.0825,19406.0827,[],[],[],[],[],[],[],,19406.0829,19406.083,0.103233855,-0.012869914,0,0,0,,0,58,58,143,1,2,word,REMOVAL,print,removal_p.png,,,,,
,,,,31951,001,2025-10-17_14h14.28.469,HW_LDT_1,2024.2.4,MacIntel,62.89308176,,,,,,,,,,,,,,,,,,,,,,19406.0842,19406.2824,19406.2824,19406.7815,,,,,,,,,,,,,,1.0703,0,,,,,,,,,,,,,,z,,,,,,,,,,,,,,,60,0,19406.7821,19407.8658,m,0,1.0703,,[],[],[],[],[],[],[],19407.8659,19409.8659,19409.8659,19409.866,[],[],[],[],[],[],[],,19409.8662,19409.8663,0.103233855,-0.012869914,0,0,0,,0,59,59,61,1,2,TL,nuremical,cursive,nuremical_c.png,,,,,
,,,,31951,001,2025-10-17_14h14.28.469,HW_LDT_1,2024.2.4,MacIntel,62.89308176,,,,,,,,,,,,,,,,,,,,,,19409.8675,19410.0657,19410.0657,19410.5655,,,,,,,,,,,,,,1.0723,1,,,,,,,,,,,,,,m,,,,,,,,,,,,,,,61,1,19410.5663,19411.6489,m,1,1.0723,,[],[],[],[],[],[],[],19411.6491,19413.6488,19413.6488,19414.6991,[],[],[],[],[],[],[],z,19414.6992,19414.6993,0.103233855,-0.012869914,0,0,0,,0,60,60,117,1,2,word,MARINE,cursive,marine_c.png,1.0422,,,,
,,,,31951,001,2025-10-17_14h14.28.469,HW_LDT_1,2024.2.4,MacIntel,62.89308176,,,,,,,,,,,,,,,,,,,,,,19414.7005,19414.8987,19414.8988,19415.3987,,,,,,,,,,,,,,1.526,1,,,,,,,,,,,,,,z,,,,,,,,,,,,,,,62,0,19415.3995,19416.9321,z,1,1.526,,[],[],[],[],[],[],[],19416.9321,19418.9313,19418.9313,19418.9315,[],[],[],[],[],[],[],,19418.9315,19418.9315,0.103233855,-0.012869914,0,0,0,,0,61,61,30,1,2,RL,selamor,print,selamor_p.png,,,,,
,,,,31951,001,2025-10-17_14h14.28.469,HW_LDT_1,2024.2.4,MacIntel,62.89308176,,,,,,,,,,,,,,,,,,,,,,19418.9325,19419.132,19419.132,19419.632,,,,,,,,,,,,,,0.9228,1,,,,,,,,,,,,,,z,,,,,,,,,,,,,,,63,0,19419.6326,19420.5652,z,1,0.9228,,[],[],[],[],[],[],[],19420.5654,19422.5651,19422.5652,19422.5654,[],[],[],[],[],[],[],,19422.5655,19422.5655,0.103233855,-0.012869914,0,0,0,,0,62,62,36,1,2,RL,vecelan,print,vecelan_p.png,,,,,
,,,,31951,001,2025-10-17_14h14.28.469,HW_LDT_1,2024.2.4,MacIntel,62.89308176,,,,,,,,,,,,,,,,,,,,,,19422.5668,19422.7651,19422.7651,19423.265,,,,,,,,,,,,,,5.2418,1,,,,,,,,,,,,,,m,,,,,,,,,,,,,,,64,0,19423.2657,19428.5149,m,1,5.2418,,[],[],[],[],[],[],[],19428.5149,19430.5148,19430.5149,19430.515,[],[],[],[],[],[],[],,19430.5152,19430.5152,0.103233855,-0.012869914,0,0,0,,0,63,63,119,1,2,word,MEMORY,cursive,memory_c.png,,,,,
,,,,31951,001,2025-10-17_14h14.28.469,HW_LDT_1,2024.2.4,MacIntel,62.89308176,,,,,,,,,,,,,,,,,,,,,,19430.5166,19430.7148,19430.7148,19431.2147,,,,,,,,,,,,,,1.0425,1,,,,,,,,,,,,,,m,,,,,,,,,,,,,,,65,0,19431.2154,19432.2647,m,1,1.0425,,[],[],[],[],[],[],[],19432.2649,19434.2646,19434.2646,19434.2649,[],[],[],[],[],[],[],,19434.2649,19434.265,0.103233855,-0.012869914,0,0,0,,0,64,64,86,1,2,word,BESIDE,cursive,beside_c.png,,,,,
,,,,31951,001,2025-10-17_14h14.28.469,HW_LDT_1,2024.2.4,MacIntel,62.89308176,,,,,,,,,,,,,,,,,,,,,,19434.2663,19434.4646,19434.4647,19434.9646,,,,,,,,,,,,,,0.9195,1,,,,,,,,,,,,,,z,,,,,,,,,,,,,,,66,0,19434.9652,19435.8979,z,1,0.9195,,[],[],[],[],[],[],[],19435.898,19437.8978,19437.8979,19437.8982,[],[],[],[],[],[],[],,19437.8982,19437.8983,0.103233855,-0.012869914,0,0,0,,0,65,65,41,1,2,TL,befenit,cursive,befenit_c.png,,,,,
,,,,31951,001,2025-10-17_14h14.28.469,HW_LDT_1,2024.2.4,MacIntel,62.89308176,,,,,,,,,,,,,,,,,,,,,,19437.8997,19438.0977,19438.0979,19438.5978,,,,,,,,,,,,,,1.8759,1,,,,,,,,,,,,,,z,,,,,,,,,,,,,,,67,0,19438.5983,19440.4812,z,1,1.8759,,[],[],[],[],[],[],[],19440.4812,19442.481,19442.4811,19442.4812,[],[],[],[],[],[],[],,19442.4812,19442.4814,0.103233855,-0.012869914,0,0,0,,0,66,66,42,1,2,TL,bedise,cursive,bedise_c.png,,,,,
,,,,31951,001,2025-10-17_14h14.28.469,HW_LDT_1,2024.2.4,MacIntel,62.89308176,,,,,,,,,,,,,,,,,,,,,,19442.4827,19442.6803,19442.6804,19443.181,,,,,,,,,,,,,,1.2263,1,,,,,,,,,,,,,,m,,,,,,,,,,,,,,,68,0,19443.1815,19444.4143,m,1,1.2263,,[],[],[],[],[],[],[],19444.4144,19446.4142,19446.4142,19446.4146,[],[],[],[],[],[],[],,19446.4146,19446.4147,0.103233855,-0.012869914,0,0,0,,0,67,67,80,1,2,word,ACADEMY,cursive,academy_c.png,,,,,
,,,,31951,001,2025-10-17_14h14.28.469,HW_LDT_1,2024.2.4,MacIntel,62.89308176,,,,,,,,,,,,,,,,,,,,,,19446.416,19446.6143,19446.6144,19447.1141,,,,,,,,,,,,,,0.907,1,,,,,,,,,,,,,,z,,,,,,,,,,,,,,,69,1,19447.1147,19448.0308,z,1,0.907,,[],[],[],[],[],[],[],19448.0308,19450.0307,19450.0307,19451.2463,[],[],[],[],[],[],[],z,19451.2464,19451.2464,0.103233855,-0.012869914,0,0,0,,0,68,68,49,1,2,TL,dedace,print,dedace_p.png,1.2104,,,,
,,,,31951,001,2025-10-17_14h14.28.469,HW_LDT_1,2024.2.4,MacIntel,62.89308176,,,,,,,,,,,,,,,,,,,,,,19451.247,19451.4473,19451.4473,19451.9474,,,,,,,,,,,,,,0.9391,1,,,,,,,,,,,,,,m,,,,,,,,,,,,,,,70,1,19451.9479,19452.8966,m,1,0.9391,,[],[],[],[],[],[],[],19452.8968,19454.8972,19454.8972,19457.6638,[],[],[],[],[],[],[],m,19457.6639,19457.6641,0.103233855,-0.012869914,0,0,0,,0,69,69,115,1,2,word,LOGICAL,print,logical_p.png,2.7654,,,,
,,,,31951,001,2025-10-17_14h14.28.469,HW_LDT_1,2024.2.4,MacIntel,62.89308176,,,,,,,,,,,,,,,,,,,,,,19457.6652,19457.8636,19457.8637,19458.3637,,,,,,,,,,,,,,1.1445,1,,,,,,,,,,,,,,m,,,,,,,,,,,,,,,71,0,19458.3643,19459.5137,m,1,1.1445,,[],[],[],[],[],[],[],19459.5137,19461.5135,19461.5136,19461.5138,[],[],[],[],[],[],[],,19461.5138,19461.5139,0.103233855,-0.012869914,0,0,0,,0,70,70,157,1,2,word,VALIDITY,print,validity_p.png,,,,,
,,,,31951,001,2025-10-17_14h14.28.469,HW_LDT_1,2024.2.4,MacIntel,62.89308176,,,,,,,,,,,,,,,,,,,,,,19461.5151,19461.7128,19461.7128,19462.2136,,,,,,,,,,,,,,2.5106,1,,,,,,,,,,,,,,z,,,,,,,,,,,,,,,72,1,19462.2143,19464.7301,z,1,2.5106,,[],[],[],[],[],[],[],19464.7302,19466.7291,19466.7291,19468.1796,[],[],[],[],[],[],[],m,19468.1797,19468.1798,0.103233855,-0.012869914,0,0,0,,0,71,71,55,1,2,TL,lotace,print,lotace_p.png,1.4462,,,,
,,,,31951,001,2025-10-17_14h14.28.469,HW_LDT_1,2024.2.4,MacIntel,62.89308176,,,,,,,,,,,,,,,,,,,,,,19468.1809,19468.38,19468.3801,19468.8799,,,,,,,,,,,,,,1.1575,1,,,,,,,,,,,,,,z,,,,,,,,,,,,,,,73,0,19468.8805,19470.0466,z,1,1.1575,,[],[],[],[],[],[],[],19470.0467,19472.0465,19472.0466,19472.0467,[],[],[],[],[],[],[],,19472.0467,19472.0469,0.103233855,-0.012869914,0,0,0,,0,72,72,9,1,2,RL,denficy,print,denficy_p.png,,,,,
,,,,31951,001,2025-10-17_14h14.28.469,HW_LDT_1,2024.2.4,MacIntel,62.89308176,,,,,,,,,,,,,,,,,,,,,,19472.048,19472.2465,19472.2465,19472.7465,,,,,,,,,,,,,,1.338,1,,,,,,,,,,,,,,z,,,,,,,,,,,,,,,74,0,19472.747,19474.0964,z,1,1.338,,[],[],[],[],[],[],[],19474.0965,19476.0963,19476.0963,19476.0965,[],[],[],[],[],[],[],,19476.0966,19476.0967,0.103233855,-0.012869914,0,0,0,,0,73,73,32,1,2,RL,speniven,print,speniven_p.png,,,,,
,,,,31951,001,2025-10-17_14h14.28.469,HW_LDT_1,2024.2.4,MacIntel,62.89308176,,,,,,,,,,,,,,,,,,,,,,19476.0978,19476.2963,19476.2963,19476.7962,,,,,,,,,,,,,,0.7814,1,,,,,,,,,,,,,,m,,,,,,,,,,,,,,,75,1,19476.7969,19477.5797,m,1,0.7814,,[],[],[],[],[],[],[],19477.5798,19479.5795,19479.5795,19480.7961,[],[],[],[],[],[],[],m,19480.7962,19480.7964,0.103233855,-0.012869914,0,0,0,,0,74,74,99,1,2,word,DEBATE,print,debate_p.png,1.2043,,,,
,,,,31951,001,2025-10-17_14h14.28.469,HW_LDT_1,2024.2.4,MacIntel,62.89308176,,,,,,,,,,,,,,,,,,,,,,19480.7973,19480.9961,19480.9962,19481.4961,,,,,,,,,,,,,,1.2368,1,,,,,,,,,,,,,,z,,,,,,,,,,,,,,,76,0,19481.4967,19482.7461,z,1,1.2368,,[],[],[],[],[],[],[],19482.7462,19484.7459,19484.746,19484.7462,[],[],[],[],[],[],[],,19484.7463,19484.7464,0.103233855,-0.012869914,0,0,0,,0,75,75,20,1,2,RL,onegator,cursive,onegator_c.png,,,,,
,,,,31951,001,2025-10-17_14h14.28.469,HW_LDT_1,2024.2.4,MacIntel,62.89308176,,,,,,,,,,,,,,,,,,,,,,19484.7475,19484.9459,19484.946,19485.446,,,,,,,,,,,,,,0.8777,1,,,,,,,,,,,,,,z,,,,,,,,,,,,,,,77,0,19485.4465,19486.3294,z,1,0.8777,,[],[],[],[],[],[],[],19486.3295,19488.3281,19488.3282,19488.3284,[],[],[],[],[],[],[],,19488.3285,19488.3286,0.103233855,-0.012869914,0,0,0,,0,76,76,31,1,2,RL,spetisic,print,spetisic_p.png,,,,,
,,,,31951,001,2025-10-17_14h14.28.469,HW_LDT_1,2024.2.4,MacIntel,62.89308176,,,,,,,,,,,,,,,,,,,,,,19488.3298,19488.5291,19488.5292,19489.0291,,,,,,,,,,,,,,0.9602,1,,,,,,,,,,,,,,z,,,,,,,,,,,,,,,78,0,19489.0297,19489.9958,z,1,0.9602,,[],[],[],[],[],[],[],19489.9959,19491.9956,19491.9957,19491.9959,[],[],[],[],[],[],[],,19491.9959,19491.996,0.103233855,-0.012869914,0,0,0,,0,77,77,58,1,2,TL,mitilary,cursive,mitilary_c.png,,,,,
,,,,31951,001,2025-10-17_14h14.28.469,HW_LDT_1,2024.2.4,MacIntel,62.89308176,,,,,,,,,,,,,,,,,,,,,,19491.9973,19492.1949,19492.1949,19492.6956,,,,,,,,,,,,,,1.1426,1,,,,,,,,,,,,,,z,,,,,,,,,,,,,,,79,0,19492.6962,19493.8455,z,1,1.1426,,[],[],[],[],[],[],[],19493.8456,19495.8455,19495.8456,19495.8458,[],[],[],[],[],[],[],,19495.8459,19495.8459,0.103233855,-0.012869914,0,0,0,,0,78,78,40,1,2,TL,bevoled,cursive,bevoled_c.png,,,,,
,,,,31951,001,2025-10-17_14h14.28.469,HW_LDT_1,2024.2.4,MacIntel,62.89308176,,,,,,,,,,,,,,,,,,,,,,19495.8471,19496.0454,19496.0456,19496.5455,,,,,,,,,,,,,,1.1539,1,,,,,,,,,,,,,,m,,,,,,,,,,,,,,,80,1,19496.5461,19497.7121,m,1,1.1539,,[],[],[],[],[],[],[],19497.7122,19499.7123,19499.7123,19500.912,[],[],[],[],[],[],[],z,19500.912,19914.2527,0.066666346,-0.416918735,1,0,0,,0,79,79,85,1,2,word,BENEFIT,cursive,benefit_c.png,1.193,,break_done_button,,
,,,,31951,001,2025-10-17_14h14.28.469,HW_LDT_1,2024.2.4,MacIntel,62.89308176,,,,,,,,,,,,,,,,,,,,,,19914.2535,19914.4521,19914.4522,19914.9519,,,,,,,,,,,,,,1.2715,1,,,,,,,,,,,,,,z,,,,,,,,,,,,,,,81,0,19914.9522,19916.2354,z,1,1.2715,,[],[],[],[],[],[],[],19916.2355,19918.2359,19918.2359,19918.2361,[],[],[],[],[],[],[],,19918.2361,19918.2362,0.141622033,-0.08809533,0,0,0,,0,80,80,3,1,2,RL,capefory,print,capefory_p.png,,,,,
,,,,31951,001,2025-10-17_14h14.28.469,HW_LDT_1,2024.2.4,MacIntel,62.89308176,,,,,,,,,,,,,,,,,,,,,,19918.2374,19918.436,19918.436,19918.9358,,,,,,,,,,,,,,0.8209,1,,,,,,,,,,,,,,m,,,,,,,,,,,,,,,82,0,19918.9362,19919.7693,m,1,0.8209,,[],[],[],[],[],[],[],19919.7693,19921.7692,19921.7692,19921.7693,[],[],[],[],[],[],[],,19921.7694,19921.7694,0.141622033,-0.08809533,0,0,0,,0,81,81,152,1,2,word,SPECIMEN,print,specimen_p.png,,,,,
,,,,31951,001,2025-10-17_14h14.28.469,HW_LDT_1,2024.2.4,MacIntel,62.89308176,,,,,,,,,,,,,,,,,,,,,,19921.7705,19921.9691,19921.9692,19922.4691,,,,,,,,,,,,,,2.1064,1,,,,,,,,,,,,,,z,,,,,,,,,,,,,,,83,1,19922.4694,19924.5859,z,1,2.1064,,[],[],[],[],[],[],[],19924.586,19926.5855,19926.5856,19927.6023,[],[],[],[],[],[],[],z,19927.6024,19927.6025,0.141622033,-0.08809533,0,0,0,,0,82,82,29,1,2,RL,samite,cursive,samite_c.png,1.005,,,,
,,,,31951,001,2025-10-17_14h14.28.469,HW_LDT_1,2024.2.4,MacIntel,62.89308176,,,,,,,,,,,,,,,,,,,,,,19927.6033,19927.8021,19927.8021,19928.3021,,,,,,,,,,,,,,1.1042,0,,,,,,,,,,,,,,m,,,,,,,,,,,,,,,84,0,19928.3025,19929.4189,z,0,1.1042,,[],[],[],[],[],[],[],19929.419,19931.4188,19931.4188,19931.4189,[],[],[],[],[],[],[],,19931.4189,19931.419,0.141622033,-0.08809533,0,0,0,,0,83,83,123,1,2,word,MODERATE,cursive,moderate_c.png,,,,,
,,,,31951,001,2025-10-17_14h14.28.469,HW_LDT_1,2024.2.4,MacIntel,62.89308176,,,,,,,,,,,,,,,,,,,,,,19931.42,19931.6187,19931.6187,19932.1187,,,,,,,,,,,,,,0.5042,1,,,,,,,,,,,,,,m,,,,,,,,,,,,,,,85,0,19932.1191,19932.6355,m,1,0.5042,,[],[],[],[],[],[],[],19932.6355,19934.6352,19934.6353,19934.6354,[],[],[],[],[],[],[],,19934.6356,19934.6356,0.141622033,-0.08809533,0,0,0,,0,84,84,149,1,2,word,SENATOR,print,senator_p.png,,,,,
,,,,31951,001,2025-10-17_14h14.28.469,HW_LDT_1,2024.2.4,MacIntel,62.89308176,,,,,,,,,,,,,,,,,,,,,,19934.6366,19934.8353,19934.8353,19935.3352,,,,,,,,,,,,,,0.7714,1,,,,,,,,,,,,,,z,,,,,,,,,,,,,,,86,0,19935.3357,19936.1186,z,1,0.7714,,[],[],[],[],[],[],[],19936.1187,19938.1184,19938.1185,19938.1186,[],[],[],[],[],[],[],,19938.1187,19938.1187,0.141622033,-0.08809533,0,0,0,,0,85,85,11,1,2,RL,formuke,print,formuke_p.png,,,,,
,,,,31951,001,2025-10-17_14h14.28.469,HW_LDT_1,2024.2.4,MacIntel,62.89308176,,,,,,,,,,,,,,,,,,,,,,19938.1197,19938.3184,19938.3185,19938.8187,,,,,,,,,,,,,,0.5603,1,,,,,,,,,,,,,,m,,,,,,,,,,,,,,,87,0,19938.8191,19939.3852,m,1,0.5603,,[],[],[],[],[],[],[],19939.3852,19941.385,19941.3851,19941.3853,[],[],[],[],[],[],[],,19941.3853,19941.3854,0.141622033,-0.08809533,0,0,0,,0,86,86,156,1,2,word,TRIBUTE,cursive,tribute_c.png,,,,,
,,,,31951,001,2025-10-17_14h14.28.469,HW_LDT_1,2024.2.4,MacIntel,62.89308176,,,,,,,,,,,,,,,,,,,,,,19941.3863,19941.5851,19941.5852,19942.0851,,,,,,,,,,,,,,1.6597,1,,,,,,,,,,,,,,z,,,,,,,,,,,,,,,88,0,19942.0856,19943.7517,z,1,1.6597,,[],[],[],[],[],[],[],19943.7518,19945.7517,19945.7517,19945.7519,[],[],[],[],[],[],[],,19945.7519,19945.752,0.141622033,-0.08809533,0,0,0,,0,87,87,74,1,2,TL,rerite,cursive,rerite_c.png,,,,,
,,,,31951,001,2025-10-17_14h14.28.469,HW_LDT_1,2024.2.4,MacIntel,62.89308176,,,,,,,,,,,,,,,,,,,,,,19945.753,19945.9517,19945.9517,19946.4516,,,,,,,,,,,,,,0.7282,1,,,,,,,,,,,,,,z,,,,,,,,,,,,,,,89,0,19946.452,19947.185,z,1,0.7282,,[],[],[],[],[],[],[],19947.185,19949.1847,19949.1848,19949.185,[],[],[],[],[],[],[],,19949.185,19949.1851,0.141622033,-0.08809533,0,0,0,,0,88,88,75,1,2,TL,ronamtic,print,ronamtic_p.png,,,,,
,,,,31951,001,2025-10-17_14h14.28.469,HW_LDT_1,2024.2.4,MacIntel,62.89308176,,,,,,,,,,,,,,,,,,,,,,19949.186,19949.3848,19949.3848,19949.8848,,,,,,,,,,,,,,0.638,1,,,,,,,,,,,,,,z,,,,,,,,,,,,,,,90,0,19949.8855,19950.5347,z,1,0.638,,[],[],[],[],[],[],[],19950.5349,19952.5346,19952.5346,19952.5348,[],[],[],[],[],[],[],,19952.5349,19952.535,0.141622033,-0.08809533,0,0,0,,0,89,89,78,1,2,TL,stogare,print,stogare_p.png,,,,,
,,,,31951,001,2025-10-17_14h14.28.469,HW_LDT_1,2024.2.4,MacIntel,62.89308176,,,,,,,,,,,,,,,,,,,,,,19952.5361,19952.7346,19952.7346,19953.2345,,,,,,,,,,,,,,0.7547,1,,,,,,,,,,,,,,z,,,,,,,,,,,,,,,91,1,19953.2351,19954.0012,z,1,0.7547,,[],[],[],[],[],[],[],19954.0014,19956.0011,19956.0012,19957.1011,[],[],[],[],[],[],[],z,19957.1012,19957.1012,0.141622033,-0.08809533,0,0,0,,0,90,90,64,1,2,TL,paficic,print,paficic_p.png,1.0878,,,,
,,,,31951,001,2025-10-17_14h14.28.469,HW_LDT_1,2024.2.4,MacIntel,62.89308176,,,,,,,,,,,,,,,,,,,,,,19957.1023,19957.301,19957.3011,19957.8011,,,,,,,,,,,,,,3.8039,1,,,,,,,,,,,,,,m,,,,,,,,,,,,,,,92,1,19957.8017,19961.6173,m,1,3.8039,,[],[],[],[],[],[],[],19961.6174,19963.6175,19963.6175,19964.6508,[],[],[],[],[],[],[],z,19964.6509,19964.651,0.141622033,-0.08809533,0,0,0,,0,91,91,126,1,2,word,OPTIMAL,cursive,optimal_c.png,1.0272,,,,
,,,,31951,001,2025-10-17_14h14.28.469,HW_LDT_1,2024.2.4,MacIntel,62.89308176,,,,,,,,,,,,,,,,,,,,,,19964.652,19964.8507,19964.8508,19965.3507,,,,,,,,,,,,,,0.9079,1,,,,,,,,,,,,,,m,,,,,,,,,,,,,,,93,0,19965.3513,19966.2674,m,1,0.9079,,[],[],[],[],[],[],[],19966.2675,19968.2674,19968.2674,19968.2676,[],[],[],[],[],[],[],,19968.2676,19968.2677,0.141622033,-0.08809533,0,0,0,,0,92,92,137,1,2,word,RAPIDLY,print,rapidly_p.png,,,,,
,,,,31951,001,2025-10-17_14h14.28.469,HW_LDT_1,2024.2.4,MacIntel,62.89308176,,,,,,,,,,,,,,,,,,,,,,19968.269,19968.4673,19968.4673,19968.9672,,,,,,,,,,,,,,1.2602,1,,,,,,,,,,,,,,z,,,,,,,,,,,,,,,94,0,19968.9678,19970.2339,z,1,1.2602,,[],[],[],[],[],[],[],19970.2339,19972.2338,19972.2338,19972.234,[],[],[],[],[],[],[],,19972.234,19972.2341,0.141622033,-0.08809533,0,0,0,,0,93,93,38,1,2,TL,atameur,cursive,atameur_c.png,,,,,
,,,,31951,001,2025-10-17_14h14.28.469,HW_LDT_1,2024.2.4,MacIntel,62.89308176,,,,,,,,,,,,,,,,,,,,,,19972.2353,19972.4337,19972.4338,19972.9337,,,,,,,,,,,,,,1.2395,1,,,,,,,,,,,,,,m,,,,,,,,,,,,,,,95,0,19972.9343,19974.1837,m,1,1.2395,,[],[],[],[],[],[],[],19974.1838,19976.1837,19976.1837,19976.1839,[],[],[],[],[],[],[],,19976.1839,19976.1841,0.141622033,-0.08809533,0,0,0,,0,94,94,95,1,2,word,COMEDY,cursive,comedy_c.png,,,,,
,,,,31951,001,2025-10-17_14h14.28.469,HW_LDT_1,2024.2.4,MacIntel,62.89308176,,,,,,,,,,,,,,,,,,,,,,19976.1855,19976.3836,19976.3837,19976.8836,,,,,,,,,,,,,,1.3432,1,,,,,,,,,,,,,,m,,,,,,,,,,,,,,,96,0,19976.884,19978.2336,m,1,1.3432,,[],[],[],[],[],[],[],19978.2337,19980.2335,19980.2335,19980.2337,[],[],[],[],[],[],[],,19980.2337,19980.2339,0.141622033,-0.08809533,0,0,0,,0,95,95,110,1,2,word,HERITAGE,print,heritage_p.png,,,,,
,,,,31951,001,2025-10-17_14h14.28.469,HW_LDT_1,2024.2.4,MacIntel,62.89308176,,,,,,,,,,,,,,,,,,,,,,19980.2352,19980.4335,19980.4335,19980.9334,,,,,,,,,,,,,,0.7062,1,,,,,,,,,,,,,,z,,,,,,,,,,,,,,,97,1,19980.934,19981.6502,z,1,0.7062,,[],[],[],[],[],[],[],19981.6502,19983.65,19983.6501,19984.3667,[],[],[],[],[],[],[],z,19984.3667,19984.3669,0.141622033,-0.08809533,0,0,0,,0,96,96,46,1,2,TL,codemy,cursive,codemy_c.png,0.7069,,,,
,,,,31951,001,2025-10-17_14h14.28.469,HW_LDT_1,2024.2.4,MacIntel,62.89308176,,,,,,,,,,,,,,,,,,,,,,19984.368,19984.5666,19984.5667,19985.0666,,,,,,,,,,,,,,0.6737,1,,,,,,,,,,,,,,m,,,,,,,,,,,,,,,98,0,19985.0671,19985.7499,m,1,0.6737,,[],[],[],[],[],[],[],19985.75,19987.7498,19987.7499,19987.75,[],[],[],[],[],[],[],,19987.75,19987.7502,0.141622033,-0.08809533,0,0,0,,0,97,97,104,1,2,word,DOMINANT,print,dominant_p.png,,,,,
,,,,31951,001,2025-10-17_14h14.28.469,HW_LDT_1,2024.2.4,MacIntel,62.89308176,,,,,,,,,,,,,,,,,,,,,,19987.7516,19987.9495,19987.9496,19988.4498,,,,,,,,,,,,,,0.6724,1,,,,,,,,,,,,,,z,,,,,,,,,,,,,,,99,1,19988.4504,19989.1331,z,1,0.6724,,[],[],[],[],[],[],[],19989.1332,19991.133,19991.133,19992.1828,[],[],[],[],[],[],[],m,19992.1829,19992.1829,0.141622033,-0.08809533,0,0,0,,0,98,98,13,1,2,RL,helicage,print,helicage_p.png,1.0396,,,,
,,,,31951,001,2025-10-17_14h14.28.469,HW_LDT_1,2024.2.4,MacIntel,62.89308176,,,,,,,,,,,,,,,,,,,,,,19992.184,19992.3829,19992.383,19992.8829,,,,,,,,,,,,,,1.0949,1,,,,,,,,,,,,,,m,,,,,,,,,,,,,,,100,0,19992.8835,19993.983,m,1,1.0949,,[],[],[],[],[],[],[],19993.9831,19995.9829,19995.983,19995.9831,[],[],[],[],[],[],[],,19995.9831,19995.9832,0.141622033,-0.08809533,0,0,0,,0,99,99,129,1,2,word,PARENT,print,parent_p.png,,,,,
,,,,31951,001,2025-10-17_14h14.28.469,HW_LDT_1,2024.2.4,MacIntel,62.89308176,,,,,,,,,,,,,,,,,,,,,,19995.9845,19996.1828,19996.1828,19996.6827,,,,,,,,,,,,,,1.2583,1,,,,,,,,,,,,,,m,,,,,,,,,,,,,,,101,0,19996.6832,19997.9496,m,1,1.2583,,[],[],[],[],[],[],[],19997.9496,19999.9493,19999.9493,19999.9495,[],[],[],[],[],[],[],,19999.9496,19999.9496,0.141622033,-0.08809533,0,0,0,,0,100,100,84,1,2,word,BELOVED,cursive,beloved_c.png,,,,,
,,,,31951,001,2025-10-17_14h14.28.469,HW_LDT_1,2024.2.4,MacIntel,62.89308176,,,,,,,,,,,,,,,,,,,,,,19999.9509,20000.1493,20000.1493,20000.6493,,,,,,,,,,,,,,0.9138,1,,,,,,,,,,,,,,z,,,,,,,,,,,,,,,102,1,20000.6498,20001.5661,z,1,0.9138,,[],[],[],[],[],[],[],20001.5661,20003.5659,20003.5659,20004.2658,[],[],[],[],[],[],[],z,20004.2659,20004.266,0.141622033,-0.08809533,0,0,0,,0,101,101,70,1,2,TL,retalive,print,retalive_p.png,0.691,,,,
,,,,31951,001,2025-10-17_14h14.28.469,HW_LDT_1,2024.2.4,MacIntel,62.89308176,,,,,,,,,,,,,,,,,,,,,,20004.267,20004.4659,20004.4659,20004.9657,,,,,,,,,,,,,,1.7923,1,,,,,,,,,,,,,,m,,,,,,,,,,,,,,,103,0,20004.9663,20006.7657,m,1,1.7923,,[],[],[],[],[],[],[],20006.7658,20008.7656,20008.7657,20008.7659,[],[],[],[],[],[],[],,20008.7659,20008.7659,0.141622033,-0.08809533,0,0,0,,0,102,102,122,1,2,word,MOBILE,print,mobile_p.png,,,,,
,,,,31951,001,2025-10-17_14h14.28.469,HW_LDT_1,2024.2.4,MacIntel,62.89308176,,,,,,,,,,,,,,,,,,,,,,20008.7672,20008.9656,20008.9657,20009.4655,,,,,,,,,,,,,,0.9325,1,,,,,,,,,,,,,,z,,,,,,,,,,,,,,,104,0,20009.4661,20010.3992,z,1,0.9325,,[],[],[],[],[],[],[],20010.3994,20012.3988,20012.3989,20012.399,[],[],[],[],[],[],[],,20012.3991,20012.3992,0.141622033,-0.08809533,0,0,0,,0,103,103,65,1,2,TL,polupar,cursive,polupar_c.png,,,,,
,,,,31951,001,2025-10-17_14h14.28.469,HW_LDT_1,2024.2.4,MacIntel,62.89308176,,,,,,,,,,,,,,,,,,,,,,20012.4004,20012.5978,20012.5979,20013.0989,,,,,,,,,,,,,,0.8241,1,,,,,,,,,,,,,,m,,,,,,,,,,,,,,,105,0,20013.0993,20013.9322,m,1,0.8241,,[],[],[],[],[],[],[],20013.9322,20015.932,20015.932,20015.9322,[],[],[],[],[],[],[],,20015.9323,20015.9324,0.141622033,-0.08809533,0,0,0,,0,104,104,94,1,2,word,CLINICAL,cursive,clinical_c.png,,,,,
,,,,31951,001,2025-10-17_14h14.28.469,HW_LDT_1,2024.2.4,MacIntel,62.89308176,,,,,,,,,,,,,,,,,,,,,,20015.9335,20016.1311,20016.1312,20016.6319,,,,,,,,,,,,,,1.0584,1,,,,,,,,,,,,,,z,,,,,,,,,,,,,,,106,0,20016.6325,20017.6986,z,1,1.0584,,[],[],[],[],[],[],[],20017.6986,20019.6986,20019.6986,20019.6987,[],[],[],[],[],[],[],,20019.6988,20019.6989,0.141622033,-0.08809533,0,0,0,,0,105,105,43,1,2,TL,carema,print,carema_p.png,,,,,
,,,,31951,001,2025-10-17_14h14.28.469,HW_LDT_1,2024.2.4,MacIntel,62.89308176,,,,,,,,,,,,,,,,,,,,,,20019.7,20019.8986,20019.8986,20020.3976,,,,,,,,,,,,,,1.2267,1,,,,,,,,,,,,,,z,,,,,,,,,,,,,,,107,0,20020.3982,20021.6318,z,1,1.2267,,[],[],[],[],[],[],[],20021.6319,20023.6312,20023.6312,20023.6314,[],[],[],[],[],[],[],,20023.6314,20023.6315,0.141622033,-0.08809533,0,0,0,,0,106,106,12,1,2,RL,gralekul,cursive,gralekul_c.png,,,,,
,,,,31951,001,2025-10-17_14h14.28.469,HW_LDT_1,2024.2.4,MacIntel,62.89308176,,,,,,,,,,,,,,,,,,,,,,20023.6327,20023.8318,20023.8318,20024.3317,,,,,,,,,,,,,,1.6706,0,,,,,,,,,,,,,,m,,,,,,,,,,,,,,,108,0,20024.3322,20026.0146,z,0,1.6706,,[],[],[],[],[],[],[],20026.0146,20028.0144,20028.0145,20028.0147,[],[],[],[],[],[],[],,20028.0147,20028.0148,0.141622033,-0.08809533,0,0,0,,0,107,107,138,1,2,word,REFUSAL,cursive,refusal_c.png,,,,,
,,,,31951,001,2025-10-17_14h14.28.469,HW_LDT_1,2024.2.4,MacIntel,62.89308176,,,,,,,,,,,,,,,,,,,,,,20028.016,20028.2149,20028.2149,20028.7148,,,,,,,,,,,,,,3.3391,1,,,,,,,,,,,,,,m,,,,,,,,,,,,,,,109,0,20028.7153,20032.0647,m,1,3.3391,,[],[],[],[],[],[],[],20032.0648,20034.0646,20034.0646,20034.0648,[],[],[],[],[],[],[],,20034.0649,20034.0649,0.141622033,-0.08809533,0,0,0,,0,108,108,120,1,2,word,MILITARY,cursive,military_c.png,,,,,
,,,,31951,001,2025-10-17_14h14.28.469,HW_LDT_1,2024.2.4,MacIntel,62.89308176,,,,,,,,,,,,,,,,,,,,,,20034.0662,20034.2644,20034.2645,20034.7646,,,,,,,,,,,,,,0.8322,0,,,,,,,,,,,,,,z,,,,,,,,,,,,,,,110,0,20034.7651,20035.5982,m,0,0.8322,,[],[],[],[],[],[],[],20035.5982,20037.5977,20037.5978,20037.598,[],[],[],[],[],[],[],,20037.598,20037.5981,0.141622033,-0.08809533,0,0,0,,0,109,109,47,1,2,TL,crinimal,cursive,crinimal_c.png,,,,,
,,,,31951,001,2025-10-17_14h14.28.469,HW_LDT_1,2024.2.4,MacIntel,62.89308176,,,,,,,,,,,,,,,,,,,,,,20037.5993,20037.7978,20037.7978,20038.2977,,,,,,,,,,,,,,0.7388,1,,,,,,,,,,,,,,z,,,,,,,,,,,,,,,111,0,20038.2983,20039.0478,z,1,0.7388,,[],[],[],[],[],[],[],20039.0478,20041.0477,20041.0478,20041.0479,[],[],[],[],[],[],[],,20041.0479,20041.048,0.141622033,-0.08809533,0,0,0,,0,110,110,71,1,2,TL,retome,cursive,retome_c.png,,,,,
,,,,31951,001,2025-10-17_14h14.28.469,HW_LDT_1,2024.2.4,MacIntel,62.89308176,,,,,,,,,,,,,,,,,,,,,,20041.0492,20041.2473,20041.2473,20041.7477,,,,,,,,,,,,,,0.7144,1,,,,,,,,,,,,,,m,,,,,,,,,,,,,,,112,0,20041.7482,20042.464,m,1,0.7144,,[],[],[],[],[],[],[],20042.4641,20044.4641,20044.4642,20044.4644,[],[],[],[],[],[],[],,20044.4644,20044.4645,0.141622033,-0.08809533,0,0,0,,0,111,111,136,1,2,word,RADICAL,cursive,radical_c.png,,,,,
,,,,31951,001,2025-10-17_14h14.28.469,HW_LDT_1,2024.2.4,MacIntel,62.89308176,,,,,,,,,,,,,,,,,,,,,,20044.4657,20044.6641,20044.6641,20045.1641,,,,,,,,,,,,,,0.7248,1,,,,,,,,,,,,,,m,,,,,,,,,,,,,,,113,0,20045.1646,20045.8973,m,1,0.7248,,[],[],[],[],[],[],[],20045.8974,20047.8974,20047.8974,20047.8977,[],[],[],[],[],[],[],,20047.8977,20047.8978,0.141622033,-0.08809533,0,0,0,,0,112,112,144,1,2,word,RESIDENT,print,resident_p.png,,,,,
,,,,31951,001,2025-10-17_14h14.28.469,HW_LDT_1,2024.2.4,MacIntel,62.89308176,,,,,,,,,,,,,,,,,,,,,,20047.899,20048.0974,20048.0975,20048.5973,,,,,,,,,,,,,,0.7589,1,,,,,,,,,,,,,,z,,,,,,,,,,,,,,,114,0,20048.5979,20049.364,z,1,0.7589,,[],[],[],[],[],[],[],20049.3641,20051.364,20051.3641,20051.3643,[],[],[],[],[],[],[],,20051.3643,20051.3644,0.141622033,-0.08809533,0,0,0,,0,113,113,16,1,2,RL,losipal,print,losipal_p.png,,,,,
,,,,31951,001,2025-10-17_14h14.28.469,HW_LDT_1,2024.2.4,MacIntel,62.89308176,,,,,,,,,,,,,,,,,,,,,,20051.3657,20051.5639,20051.564,20052.0641,,,,,,,,,,,,,,0.7561,1,,,,,,,,,,,,,,z,,,,,,,,,,,,,,,115,0,20052.0646,20052.8306,z,1,0.7561,,[],[],[],[],[],[],[],20052.8307,20054.8295,20054.8295,20054.8297,[],[],[],[],[],[],[],,20054.8297,20054.8298,0.141622033,-0.08809533,0,0,0,,0,114,114,66,1,2,TL,prodive,cursive,prodive_c.png,,,,,
,,,,31951,001,2025-10-17_14h14.28.469,HW_LDT_1,2024.2.4,MacIntel,62.89308176,,,,,,,,,,,,,,,,,,,,,,20054.831,20055.0305,20055.0306,20055.5302,,,,,,,,,,,,,,0.8394,1,,,,,,,,,,,,,,m,,,,,,,,,,,,,,,116,0,20055.5304,20056.3805,m,1,0.8394,,[],[],[],[],[],[],[],20056.3805,20058.3802,20058.3803,20058.3805,[],[],[],[],[],[],[],,20058.3806,20058.3807,0.141622033,-0.08809533,0,0,0,,0,115,115,145,1,2,word,RESUME,cursive,resume_c.png,,,,,
,,,,31951,001,2025-10-17_14h14.28.469,HW_LDT_1,2024.2.4,MacIntel,62.89308176,,,,,,,,,,,,,,,,,,,,,,20058.3818,20058.5803,20058.5803,20059.0801,,,,,,,,,,,,,,0.6308,1,,,,,,,,,,,,,,z,,,,,,,,,,,,,,,117,0,20059.0807,20059.7138,z,1,0.6308,,[],[],[],[],[],[],[],20059.7139,20061.7135,20061.7136,20061.7139,[],[],[],[],[],[],[],,20061.714,20061.7141,0.141622033,-0.08809533,0,0,0,,0,116,116,48,1,2,TL,detabe,print,detabe_p.png,,,,,
,,,,31951,001,2025-10-17_14h14.28.469,HW_LDT_1,2024.2.4,MacIntel,62.89308176,,,,,,,,,,,,,,,,,,,,,,20061.7153,20061.9134,20061.9135,20062.4133,,,,,,,,,,,,,,0.8109,1,,,,,,,,,,,,,,m,,,,,,,,,,,,,,,118,0,20062.4139,20063.2301,m,1,0.8109,,[],[],[],[],[],[],[],20063.2302,20065.23,20065.2301,20065.2302,[],[],[],[],[],[],[],,20065.2302,20065.2303,0.141622033,-0.08809533,0,0,0,,0,117,117,114,1,2,word,LOCATE,print,locate_p.png,,,,,
,,,,31951,001,2025-10-17_14h14.28.469,HW_LDT_1,2024.2.4,MacIntel,62.89308176,,,,,,,,,,,,,,,,,,,,,,20065.2315,20065.43,20065.43,20065.9299,,,,,,,,,,,,,,3.0753,1,,,,,,,,,,,,,,z,,,,,,,,,,,,,,,119,0,20065.9305,20069.0133,z,1,3.0753,,[],[],[],[],[],[],[],20069.0133,20071.0131,20071.0131,20071.0133,[],[],[],[],[],[],[],,20071.0133,20071.0135,0.141622033,-0.08809533,0,0,0,,0,118,118,53,1,2,TL,edivent,cursive,edivent_c.png,,,,,
,,,,31951,001,2025-10-17_14h14.28.469,HW_LDT_1,2024.2.4,MacIntel,62.89308176,,,,,,,,,,,,,,,,,,,,,,20071.0147,20071.2131,20071.2131,20071.7129,,,,,,,,,,,,,,1.538,1,,,,,,,,,,,,,,z,,,,,,,,,,,,,,,120,0,20071.713,20073.2631,z,1,1.538,,[],[],[],[],[],[],[],20073.2631,20075.263,20075.263,20075.2632,[],[],[],[],[],[],[],,20075.2632,20075.2632,0.141622033,-0.08809533,0,0,0,,0,119,119,44,1,2,TL,catipal,cursive,catipal_c.png,,,,,
,,,,31951,001,2025-10-17_14h14.28.469,HW_LDT_1,2024.2.4,MacIntel,62.89308176,,,,,,,,,,,,,,,,,,,,,,20075.2646,20075.4629,20075.463,20075.9629,,,,,,,,,,,,,,0.937,1,,,,,,,,,,,,,,z,,,,,,,,,,,,,,,121,0,20075.9634,20076.9129,z,1,0.937,,[],[],[],[],[],[],[],20076.913,20078.9129,20078.9129,20078.913,[],[],[],[],[],[],[],,20078.913,20078.9131,0.141622033,-0.08809533,0,0,0,,0,120,120,18,1,2,RL,mesibine,print,mesibine_p.png,,,,,
,,,,31951,001,2025-10-17_14h14.28.469,HW_LDT_1,2024.2.4,MacIntel,62.89308176,,,,,,,,,,,,,,,,,,,,,,20078.914,20079.1122,20079.1123,20079.6128,,,,,,,,,,,,,,0.9134,1,,,,,,,,,,,,,,z,,,,,,,,,,,,,,,122,0,20079.6134,20080.5295,z,1,0.9134,,[],[],[],[],[],[],[],20080.5296,20082.5293,20082.5294,20082.5296,[],[],[],[],[],[],[],,20082.5296,20082.5297,0.141622033,-0.08809533,0,0,0,,0,121,121,14,1,2,RL,insibate,cursive,insibate_c.png,,,,,
,,,,31951,001,2025-10-17_14h14.28.469,HW_LDT_1,2024.2.4,MacIntel,62.89308176,,,,,,,,,,,,,,,,,,,,,,20082.531,20082.7293,20082.7294,20083.2288,,,,,,,,,,,,,,0.8809,1,,,,,,,,,,,,,,z,,,,,,,,,,,,,,,123,1,20083.2293,20084.1128,z,1,0.8809,,[],[],[],[],[],[],[],20084.1128,20086.1125,20086.1125,20087.9125,[],[],[],[],[],[],[],z,20087.9125,20087.9126,0.141622033,-0.08809533,0,0,0,,0,122,122,21,1,2,RL,pamest,print,pamest_p.png,1.7908,,,,
,,,,31951,001,2025-10-17_14h14.28.469,HW_LDT_1,2024.2.4,MacIntel,62.89308176,,,,,,,,,,,,,,,,,,,,,,20087.9136,20088.1125,20088.1125,20088.6124,,,,,,,,,,,,,,1.9441,1,,,,,,,,,,,,,,z,,,,,,,,,,,,,,,124,0,20088.6129,20090.5624,z,1,1.9441,,[],[],[],[],[],[],[],20090.5624,20092.5622,20092.5623,20092.5624,[],[],[],[],[],[],[],,20092.5625,20092.5626,0.141622033,-0.08809533,0,0,0,,0,123,123,52,1,2,TL,elarobate,cursive,elarobate_c.png,,,,,
,,,,31951,001,2025-10-17_14h14.28.469,HW_LDT_1,2024.2.4,MacIntel,62.89308176,,,,,,,,,,,,,,,,,,,,,,20092.5638,20092.7623,20092.7623,20093.2617,,,,,,,,,,,,,,0.7933,1,,,,,,,,,,,,,,m,,,,,,,,,,,,,,,125,0,20093.2622,20094.0614,m,1,0.7933,,[],[],[],[],[],[],[],20094.0615,20096.0621,20096.0622,20096.0623,[],[],[],[],[],[],[],,20096.0623,20096.0625,0.141622033,-0.08809533,0,0,0,,0,124,124,158,1,2,word,VELOCITY,print,velocity_p.png,,,,,
,,,,31951,001,2025-10-17_14h14.28.469,HW_LDT_1,2024.2.4,MacIntel,62.89308176,,,,,,,,,,,,,,,,,,,,,,20096.0637,20096.2623,20096.2623,20096.762,,,,,,,,,,,,,,0.6601,1,,,,,,,,,,,,,,m,,,,,,,,,,,,,,,126,0,20096.7626,20097.4288,m,1,0.6601,,[],[],[],[],[],[],[],20097.4289,20099.4287,20099.4287,20099.4289,[],[],[],[],[],[],[],,20099.4289,20099.429,0.141622033,-0.08809533,0,0,0,,0,125,125,101,1,2,word,DELICATE,print,delicate_p.png,,,,,
,,,,31951,001,2025-10-17_14h14.28.469,HW_LDT_1,2024.2.4,MacIntel,62.89308176,,,,,,,,,,,,,,,,,,,,,,20099.4301,20099.6286,20099.6287,20100.1286,,,,,,,,,,,,,,1.8761,1,,,,,,,,,,,,,,m,,,,,,,,,,,,,,,127,0,20100.1291,20102.0119,m,1,1.8761,,[],[],[],[],[],[],[],20102.012,20104.0118,20104.0119,20104.012,[],[],[],[],[],[],[],,20104.0121,20104.0121,0.141622033,-0.08809533,0,0,0,,0,126,126,116,1,2,word,MARGINAL,cursive,marginal_c.png,,,,,
,,,,31951,001,2025-10-17_14h14.28.469,HW_LDT_1,2024.2.4,MacIntel,62.89308176,,,,,,,,,,,,,,,,,,,,,,20104.0133,20104.2119,20104.2119,20104.7118,,,,,,,,,,,,,,0.7455,1,,,,,,,,,,,,,,z,,,,,,,,,,,,,,,128,0,20104.7123,20105.4618,z,1,0.7455,,[],[],[],[],[],[],[],20105.4619,20107.4616,20107.4617,20107.4618,[],[],[],[],[],[],[],,20107.4619,20107.462,0.141622033,-0.08809533,0,0,0,,0,127,127,35,1,2,RL,vesofity,print,vesofity_p.png,,,,,
,,,,31951,001,2025-10-17_14h14.28.469,HW_LDT_1,2024.2.4,MacIntel,62.89308176,,,,,,,,,,,,,,,,,,,,,,20107.4631,20107.6616,20107.6617,20108.1616,,,,,,,,,,,,,,1.2102,1,,,,,,,,,,,,,,z,,,,,,,,,,,,,,,129,0,20108.1622,20109.3783,z,1,1.2102,,[],[],[],[],[],[],[],20109.3783,20111.3782,20111.3782,20111.3784,[],[],[],[],[],[],[],,20111.3784,20111.3785,0.141622033,-0.08809533,0,0,0,,0,128,128,19,1,2,RL,monebate,cursive,monebate_c.png,,,,,
,,,,31951,001,2025-10-17_14h14.28.469,HW_LDT_1,2024.2.4,MacIntel,62.89308176,,,,,,,,,,,,,,,,,,,,,,20111.3796,20111.5782,20111.5783,20112.0775,,,,,,,,,,,,,,0.861,1,,,,,,,,,,,,,,m,,,,,,,,,,,,,,,130,0,20112.078,20112.9448,m,1,0.861,,[],[],[],[],[],[],[],20112.9449,20114.9448,20114.9448,20114.945,[],[],[],[],[],[],[],,20114.945,20114.9451,0.141622033,-0.08809533,0,0,0,,0,129,129,153,1,2,word,STOLEN,print,stolen_p.png,,,,,
,,,,31951,001,2025-10-17_14h14.28.469,HW_LDT_1,2024.2.4,MacIntel,62.89308176,,,,,,,,,,,,,,,,,,,,,,20114.9463,20115.1447,20115.1447,20115.6448,,,,,,,,,,,,,,1.1066,1,,,,,,,,,,,,,,z,,,,,,,,,,,,,,,131,0,20115.6452,20116.7615,z,1,1.1066,,[],[],[],[],[],[],[],20116.7616,20118.7612,20118.7612,20118.7614,[],[],[],[],[],[],[],,20118.7615,20118.7616,0.141622033,-0.08809533,0,0,0,,0,130,130,2,1,2,RL,casagity,print,casagity_p.png,,,,,
,,,,31951,001,2025-10-17_14h14.28.469,HW_LDT_1,2024.2.4,MacIntel,62.89308176,,,,,,,,,,,,,,,,,,,,,,20118.7626,20118.9612,20118.9613,20119.4612,,,,,,,,,,,,,,2.6948,1,,,,,,,,,,,,,,z,,,,,,,,,,,,,,,132,0,20119.4617,20122.1612,z,1,2.6948,,[],[],[],[],[],[],[],20122.1612,20124.161,20124.1611,20124.1612,[],[],[],[],[],[],[],,20124.1612,20124.1614,0.141622033,-0.08809533,0,0,0,,0,131,131,67,1,2,TL,quafily,cursive,quafily_c.png,,,,,
,,,,31951,001,2025-10-17_14h14.28.469,HW_LDT_1,2024.2.4,MacIntel,62.89308176,,,,,,,,,,,,,,,,,,,,,,20124.1625,20124.361,20124.3611,20124.8611,,,,,,,,,,,,,,0.9037,1,,,,,,,,,,,,,,z,,,,,,,,,,,,,,,133,0,20124.8615,20125.7776,z,1,0.9037,,[],[],[],[],[],[],[],20125.7777,20127.7775,20127.7776,20127.7778,[],[],[],[],[],[],[],,20127.7778,20127.7778,0.141622033,-0.08809533,0,0,0,,0,132,132,27,1,2,RL,repifion,cursive,repifion_c.png,,,,,
,,,,31951,001,2025-10-17_14h14.28.469,HW_LDT_1,2024.2.4,MacIntel,62.89308176,,,,,,,,,,,,,,,,,,,,,,20127.779,20127.9775,20127.9775,20128.4775,,,,,,,,,,,,,,1.0399,1,,,,,,,,,,,,,,z,,,,,,,,,,,,,,,134,0,20128.4781,20129.5275,z,1,1.0399,,[],[],[],[],[],[],[],20129.5276,20131.5274,20131.5274,20131.5276,[],[],[],[],[],[],[],,20131.5276,20131.5277,0.141622033,-0.08809533,0,0,0,,0,133,133,79,1,2,TL,vadility,print,vadility_p.png,,,,,
,,,,31951,001,2025-10-17_14h14.28.469,HW_LDT_1,2024.2.4,MacIntel,62.89308176,,,,,,,,,,,,,,,,,,,,,,20131.5288,20131.7274,20131.7274,20132.2274,,,,,,,,,,,,,,0.6961,1,,,,,,,,,,,,,,m,,,,,,,,,,,,,,,135,0,20132.228,20132.9266,m,1,0.6961,,[],[],[],[],[],[],[],20132.9267,20134.9272,20134.9273,20134.9275,[],[],[],[],[],[],[],,20134.9275,20134.9276,0.141622033,-0.08809533,0,0,0,,0,134,134,88,1,2,word,CAMERA,print,camera_p.png,,,,,
,,,,31951,001,2025-10-17_14h14.28.469,HW_LDT_1,2024.2.4,MacIntel,62.89308176,,,,,,,,,,,,,,,,,,,,,,20134.9286,20135.1273,20135.1274,20135.6272,,,,,,,,,,,,,,0.7087,1,,,,,,,,,,,,,,m,,,,,,,,,,,,,,,136,0,20135.6277,20136.3439,m,1,0.7087,,[],[],[],[],[],[],[],20136.344,20138.344,20138.344,20138.3443,[],[],[],[],[],[],[],,20138.3443,20138.3444,0.141622033,-0.08809533,0,0,0,,0,135,135,112,1,2,word,LIBERAL,print,liberal_p.png,,,,,
,,,,31951,001,2025-10-17_14h14.28.469,HW_LDT_1,2024.2.4,MacIntel,62.89308176,,,,,,,,,,,,,,,,,,,,,,20138.3455,20138.5438,20138.5438,20139.0438,,,,,,,,,,,,,,0.6127,1,,,,,,,,,,,,,,m,,,,,,,,,,,,,,,137,0,20139.0443,20139.6605,m,1,0.6127,,[],[],[],[],[],[],[],20139.6606,20141.6603,20141.6604,20141.6605,[],[],[],[],[],[],[],,20141.6605,20141.6606,0.141622033,-0.08809533,0,0,0,,0,136,136,93,1,2,word,CEREMONY,print,ceremony_p.png,,,,,
,,,,31951,001,2025-10-17_14h14.28.469,HW_LDT_1,2024.2.4,MacIntel,62.89308176,,,,,,,,,,,,,,,,,,,,,,20141.6618,20141.8603,20141.8603,20142.3602,,,,,,,,,,,,,,0.6598,1,,,,,,,,,,,,,,z,,,,,,,,,,,,,,,138,0,20142.3608,20143.027,z,1,0.6598,,[],[],[],[],[],[],[],20143.0271,20145.027,20145.027,20145.0272,[],[],[],[],[],[],[],,20145.0272,20145.0273,0.141622033,-0.08809533,0,0,0,,0,137,137,8,1,2,RL,desifate,print,desifate_p.png,,,,,
,,,,31951,001,2025-10-17_14h14.28.469,HW_LDT_1,2024.2.4,MacIntel,62.89308176,,,,,,,,,,,,,,,,,,,,,,20145.0284,20145.2268,20145.2269,20145.7268,,,,,,,,,,,,,,1.0783,1,,,,,,,,,,,,,,z,,,,,,,,,,,,,,,139,0,20145.7273,20146.8101,z,1,1.0783,,[],[],[],[],[],[],[],20146.8102,20148.8101,20148.8101,20148.8103,[],[],[],[],[],[],[],,20148.8104,20148.8105,0.141622033,-0.08809533,0,0,0,,0,138,138,57,1,2,TL,meromy,cursive,meromy_c.png,,,,,
,,,,31951,001,2025-10-17_14h14.28.469,HW_LDT_1,2024.2.4,MacIntel,62.89308176,,,,,,,,,,,,,,,,,,,,,,20148.8116,20149.0101,20149.0102,20149.5101,,,,,,,,,,,,,,0.8601,1,,,,,,,,,,,,,,z,,,,,,,,,,,,,,,140,1,20149.5106,20150.3758,z,1,0.8601,,[],[],[],[],[],[],[],20150.3759,20152.3765,20152.3766,20154.4098,[],[],[],[],[],[],[],z,20154.4099,20154.41,0.141622033,-0.08809533,0,0,0,,0,139,139,60,1,2,TL,molibe,print,molibe_p.png,2.0255,,,,
,,,,31951,001,2025-10-17_14h14.28.469,HW_LDT_1,2024.2.4,MacIntel,62.89308176,,,,,,,,,,,,,,,,,,,,,,20154.4109,20154.6099,20154.6099,20155.1099,,,,,,,,,,,,,,1.0422,0,,,,,,,,,,,,,,m,,,,,,,,,,,,,,,141,0,20155.1103,20156.1601,z,0,1.0422,,[],[],[],[],[],[],[],20156.1602,20158.1597,20158.1597,20158.1599,[],[],[],[],[],[],[],,20158.1599,20158.16,0.141622033,-0.08809533,0,0,0,,0,140,140,111,1,2,word,INDICATE,cursive,indicate_c.png,,,,,
,,,,31951,001,2025-10-17_14h14.28.469,HW_LDT_1,2024.2.4,MacIntel,62.89308176,,,,,,,,,,,,,,,,,,,,,,20158.1612,20158.3596,20158.3597,20158.8596,,,,,,,,,,,,,,1.2098,1,,,,,,,,,,,,,,m,,,,,,,,,,,,,,,142,0,20158.8601,20160.0758,m,1,1.2098,,[],[],[],[],[],[],[],20160.0759,20162.0761,20162.0762,20162.0763,[],[],[],[],[],[],[],,20162.0764,20162.0764,0.141622033,-0.08809533,0,0,0,,0,141,141,148,1,2,word,SALINE,cursive,saline_c.png,,,,,
,,,,31951,001,2025-10-17_14h14.28.469,HW_LDT_1,2024.2.4,MacIntel,62.89308176,,,,,,,,,,,,,,,,,,,,,,20162.0777,20162.2762,20162.2762,20162.7761,,,,,,,,,,,,,,0.9576,1,,,,,,,,,,,,,,m,,,,,,,,,,,,,,,143,1,20162.7766,20163.7428,m,1,0.9576,,[],[],[],[],[],[],[],20163.7428,20165.7427,20165.7427,20166.8927,[],[],[],[],[],[],[],m,20166.8928,20166.8929,0.141622033,-0.08809533,0,0,0,,0,142,142,89,1,2,word,CAPACITY,print,capacity_p.png,1.1377,,,,
,,,,31951,001,2025-10-17_14h14.28.469,HW_LDT_1,2024.2.4,MacIntel,62.89308176,,,,,,,,,,,,,,,,,,,,,,20166.8939,20167.0926,20167.0927,20167.5926,,,,,,,,,,,,,,1.9536,1,,,,,,,,,,,,,,m,,,,,,,,,,,,,,,144,0,20167.5931,20169.5592,m,1,1.9536,,[],[],[],[],[],[],[],20169.5593,20171.5592,20171.5592,20171.5593,[],[],[],[],[],[],[],,20171.5594,20171.5596,0.141622033,-0.08809533,0,0,0,,0,143,143,109,1,2,word,GRATEFUL,cursive,grateful_c.png,,,,,
,,,,31951,001,2025-10-17_14h14.28.469,HW_LDT_1,2024.2.4,MacIntel,62.89308176,,,,,,,,,,,,,,,,,,,,,,20171.5607,20171.7591,20171.7591,20172.2588,,,,,,,,,,,,,,1.0609,1,,,,,,,,,,,,,,m,,,,,,,,,,,,,,,145,0,20172.2593,20173.3257,m,1,1.0609,,[],[],[],[],[],[],[],20173.3258,20175.3254,20175.3255,20175.3257,[],[],[],[],[],[],[],,20175.3257,20175.3258,0.141622033,-0.08809533,0,0,0,,0,144,144,133,1,2,word,PROVIDE,cursive,provide_c.png,,,,,
,,,,31951,001,2025-10-17_14h14.28.469,HW_LDT_1,2024.2.4,MacIntel,62.89308176,,,,,,,,,,,,,,,,,,,,,,20175.3269,20175.5256,20175.5256,20176.0256,,,,,,,,,,,,,,0.8536,0,,,,,,,,,,,,,,z,,,,,,,,,,,,,,,146,0,20176.0261,20176.8923,m,0,0.8536,,[],[],[],[],[],[],[],20176.8924,20178.8921,20178.8921,20178.8923,[],[],[],[],[],[],[],,20178.8923,20178.8924,0.141622033,-0.08809533,0,0,0,,0,145,145,76,1,2,TL,senmitent,cursive,senmitent_c.png,,,,,
,,,,31951,001,2025-10-17_14h14.28.469,HW_LDT_1,2024.2.4,MacIntel,62.89308176,,,,,,,,,,,,,,,,,,,,,,20178.8936,20179.0921,20179.0922,20179.5921,,,,,,,,,,,,,,0.6372,1,,,,,,,,,,,,,,m,,,,,,,,,,,,,,,147,0,20179.5926,20180.2421,m,1,0.6372,,[],[],[],[],[],[],[],20180.2422,20182.242,20182.2421,20182.2422,[],[],[],[],[],[],[],,20182.2423,20182.2424,0.141622033,-0.08809533,0,0,0,,0,146,146,147,1,2,word,ROMANTIC,print,romantic_p.png,,,,,
,,,,31951,001,2025-10-17_14h14.28.469,HW_LDT_1,2024.2.4,MacIntel,62.89308176,,,,,,,,,,,,,,,,,,,,,,20182.2434,20182.442,20182.4421,20182.942,,,,,,,,,,,,,,1.0532,1,,,,,,,,,,,,,,z,,,,,,,,,,,,,,,148,0,20182.9424,20184.0086,z,1,1.0532,,[],[],[],[],[],[],[],20184.0087,20186.0085,20186.0086,20186.0087,[],[],[],[],[],[],[],,20186.0088,20186.0088,0.141622033,-0.08809533,0,0,0,,0,147,147,10,1,2,RL,disluge,cursive,disluge_c.png,,,,,
,,,,31951,001,2025-10-17_14h14.28.469,HW_LDT_1,2024.2.4,MacIntel,62.89308176,,,,,,,,,,,,,,,,,,,,,,20186.01,20186.2085,20186.2085,20186.7078,,,,,,,,,,,,,,1.2463,1,,,,,,,,,,,,,,z,,,,,,,,,,,,,,,149,0,20186.7083,20187.9584,z,1,1.2463,,[],[],[],[],[],[],[],20187.9585,20189.9584,20189.9585,20189.9586,[],[],[],[],[],[],[],,20189.9587,20189.9588,0.141622033,-0.08809533,0,0,0,,0,148,148,28,1,2,RL,revune,cursive,revune_c.png,,,,,
,,,,31951,001,2025-10-17_14h14.28.469,HW_LDT_1,2024.2.4,MacIntel,62.89308176,,,,,,,,,,,,,,,,,,,,,,20189.9598,20190.1583,20190.1584,20190.6584,,,,,,,,,,,,,,1.1225,1,,,,,,,,,,,,,,z,,,,,,,,,,,,,,,150,1,20190.6588,20191.7916,z,1,1.1225,,[],[],[],[],[],[],[],20191.7918,20193.7916,20193.7916,20194.8748,[],[],[],[],[],[],[],z,20194.8749,20194.875,0.141622033,-0.08809533,0,0,0,,0,149,149,33,1,2,RL,strapely,cursive,strapely_c.png,1.0724,,,,
,,,,31951,001,2025-10-17_14h14.28.469,HW_LDT_1,2024.2.4,MacIntel,62.89308176,,,,,,,,,,,,,,,,,,,,,,20194.8759,20195.0748,20195.0749,20195.575,,,,,,,,,,,,,,0.8233,1,,,,,,,,,,,,,,z,,,,,,,,,,,,,,,151,0,20195.5754,20196.4072,z,1,0.8233,,[],[],[],[],[],[],[],20196.4072,20198.4081,20198.4081,20198.4082,[],[],[],[],[],[],[],,20198.4083,20198.4084,0.141622033,-0.08809533,0,0,0,,0,150,150,63,1,2,TL,orinigal,print,orinigal_p.png,,,,,
,,,,31951,001,2025-10-17_14h14.28.469,HW_LDT_1,2024.2.4,MacIntel,62.89308176,,,,,,,,,,,,,,,,,,,,,,20198.4096,20198.608,20198.608,20199.1081,,,,,,,,,,,,,,0.8035,1,,,,,,,,,,,,,,m,,,,,,,,,,,,,,,152,0,20199.1086,20199.9246,m,1,0.8035,,[],[],[],[],[],[],[],20199.9247,20201.9247,20201.9247,20201.9249,[],[],[],[],[],[],[],,20201.925,20201.9251,0.141622033,-0.08809533,0,0,0,,0,151,151,118,1,2,word,MEDICINE,print,medicine_p.png,,,,,
,,,,31951,001,2025-10-17_14h14.28.469,HW_LDT_1,2024.2.4,MacIntel,62.89308176,,,,,,,,,,,,,,,,,,,,,,20201.9262,20202.1246,20202.1247,20202.6246,,,,,,,,,,,,,,1.6649,1,,,,,,,,,,,,,,m,,,,,,,,,,,,,,,153,1,20202.6252,20204.2913,m,1,1.6649,,[],[],[],[],[],[],[],20204.2913,20206.2911,20206.2911,20207.1744,[],[],[],[],[],[],[],z,20207.1744,20207.1746,0.141622033,-0.08809533,0,0,0,,0,152,152,121,1,2,word,MISTAKE,cursive,mistake_c.png,0.8721,,,,
,,,,31951,001,2025-10-17_14h14.28.469,HW_LDT_1,2024.2.4,MacIntel,62.89308176,,,,,,,,,,,,,,,,,,,,,,20207.1754,20207.3743,20207.3745,20207.8744,,,,,,,,,,,,,,0.8649,1,,,,,,,,,,,,,,z,,,,,,,,,,,,,,,154,0,20207.8749,20208.7411,z,1,0.8649,,[],[],[],[],[],[],[],20208.7413,20210.7409,20210.7409,20210.7411,[],[],[],[],[],[],[],,20210.7411,20210.7412,0.141622033,-0.08809533,0,0,0,,0,153,153,24,1,2,RL,rasibal,cursive,rasibal_c.png,,,,,
,,,,31951,001,2025-10-17_14h14.28.469,HW_LDT_1,2024.2.4,MacIntel,62.89308176,,,,,,,,,,,,,,,,,,,,,,20210.7423,20210.9409,20210.941,20211.441,,,,,,,,,,,,,,0.6885,1,,,,,,,,,,,,,,m,,,,,,,,,,,,,,,155,0,20211.4414,20212.1409,m,1,0.6885,,[],[],[],[],[],[],[],20212.1409,20214.1408,20214.1409,20214.141,[],[],[],[],[],[],[],,20214.1411,20214.1412,0.141622033,-0.08809533,0,0,0,,0,154,154,100,1,2,word,DECADE,print,decade_p.png,,,,,
,,,,31951,001,2025-10-17_14h14.28.469,HW_LDT_1,2024.2.4,MacIntel,62.89308176,,,,,,,,,,,,,,,,,,,,,,20214.1423,20214.3407,20214.3408,20214.8407,,,,,,,,,,,,,,1.9938,1,,,,,,,,,,,,,,m,,,,,,,,,,,,,,,156,0,20214.8412,20216.8407,m,1,1.9938,,[],[],[],[],[],[],[],20216.8408,20218.8406,20218.8406,20218.8408,[],[],[],[],[],[],[],,20218.8408,20218.841,0.141622033,-0.08809533,0,0,0,,0,155,155,134,1,2,word,QUALIFY,cursive,qualify_c.png,,,,,
,,,,31951,001,2025-10-17_14h14.28.469,HW_LDT_1,2024.2.4,MacIntel,62.89308176,,,,,,,,,,,,,,,,,,,,,,20218.8421,20219.0405,20219.0406,20219.5405,,,,,,,,,,,,,,6.4201,0,,,,,,,,,,,,,,z,,,,,,,,,,,,,,,157,0,20219.541,20225.9737,m,0,6.4201,,[],[],[],[],[],[],[],20225.9738,20227.973,20227.973,20227.9732,[],[],[],[],[],[],[],,20227.9733,20227.9734,0.141622033,-0.08809533,0,0,0,,0,156,156,59,1,2,TL,miskate,cursive,miskate_c.png,,,,,
,,,,31951,001,2025-10-17_14h14.28.469,HW_LDT_1,2024.2.4,MacIntel,62.89308176,,,,,,,,,,,,,,,,,,,,,,20227.9745,20228.1736,20228.1736,20228.6735,,,,,,,,,,,,,,0.7733,1,,,,,,,,,,,,,,z,,,,,,,,,,,,,,,158,0,20228.6741,20229.4568,z,1,0.7733,,[],[],[],[],[],[],[],20229.4568,20231.4567,20231.4568,20231.4569,[],[],[],[],[],[],[],,20231.4569,20231.4571,0.141622033,-0.08809533,0,0,0,,0,157,157,7,1,2,RL,cocewage,cursive,cocewage_c.png,,,,,
,,,,31951,001,2025-10-17_14h14.28.469,HW_LDT_1,2024.2.4,MacIntel,62.89308176,,,,,,,,,,,,,,,,,,,,,,20231.4582,20231.6567,20231.6568,20232.1567,,,,,,,,,,,,,,0.7202,1,,,,,,,,,,,,,,m,,,,,,,,,,,,,,,159,0,20232.1573,20232.8901,m,1,0.7202,,[],[],[],[],[],[],[],20232.8902,20234.8899,20234.89,20234.8902,[],[],[],[],[],[],[],,20234.8902,20234.8903,0.141622033,-0.08809533,0,0,0,,0,158,158,107,1,2,word,EVIDENT,cursive,evident_c.png,,,,,
,,,,31951,001,2025-10-17_14h14.28.469,HW_LDT_1,2024.2.4,MacIntel,62.89308176,,,,,,,,,,,,,,,,,,,,,,20234.8914,20235.0899,20235.0899,20235.59,,,,,,,,,,,,,,0.7202,1,,,,,,,,,,,,,,z,,,,,,,,,,,,,,,160,0,20235.5906,20236.3234,z,1,0.7202,,[],[],[],[],[],[],[],20236.3234,20238.3231,20238.3232,20238.3234,[],[],[],[],[],[],[],,20238.3234,20238.3235,0.141622033,-0.08809533,0,0,0,,0,159,159,25,1,2,RL,rabigly,print,rabigly_p.png,,,,,
,,,,31951,001,2025-10-17_14h14.28.469,HW_LDT_1,2024.2.4,MacIntel,62.89308176,,,,,,,,,,,,,,,,,,,,,,,,,,,,,,,,,,,,,,,,,,,,,,,,,,,,,,,,,,,,,,,,,,,,,,,,,,,,,,,,,,,,,,,,,,,,,,,,,,,,,,,,,,,,,,,,,,,,,20238.3337,20243.3233
