counterbalance_lists.group,counterbalance_lists.remaining,get_list.started,get_list.stopped,participant,session,date,expName,psychopyVersion,OS,frameRate,Instructions.started,Instructions.stopped,key_resp.keys,instr_done_touch.x,instr_done_touch.y,instr_done_touch.leftButton,instr_done_touch.midButton,instr_done_touch.rightButton,instr_done_touch.clicked_name,start_instr.thisRepN,start_instr.thisTrialN,start_instr.thisN,start_instr.thisIndex,start_instr.ran,pageN,phase,instruct_text,has_image,instruct_image,key_resp.rt,key_resp.duration,showProgress.started,showProgress.stopped,fix.started,fix.stopped,prac.started,prac.stopped,response.keys,response.corr,response.rt,response.duration,touch_resp.x,touch_resp.y,touch_resp.leftButton,touch_resp.midButton,touch_resp.rightButton,touch_resp.time,touch_resp.clicked_name,rt,corr,feedback.started,feedback.stopped,trials.thisRepN,trials.thisTrialN,trials.thisN,trials.thisIndex,trials.ran,TrialID,StimulusType,Condition,PrimeDuration,Prime,Target,corrAns,Instructions_expt.started,Instructions_expt.stopped,key_resp_3.keys,instr_done_touch_3.x,instr_done_touch_3.y,instr_done_touch_3.leftButton,instr_done_touch_3.midButton,instr_done_touch_3.rightButton,instr_done_touch_3.clicked_name,instr_experiment.thisRepN,instr_experiment.thisTrialN,instr_experiment.thisN,instr_experiment.thisIndex,instr_experiment.ran,trialID,flag,maintask.started,maintask.stopped,key_resp_2.keys,key_resp_2.corr,key_resp_2.rt,key_resp_2.duration,targ_click.x,targ_click.y,targ_click.leftButton,targ_click.midButton,targ_click.rightButton,targ_click.time,targ_click.clicked_name,ITI.started,ITI.stopped,probe.started,probe.stopped,click_probe.x,click_probe.y,click_probe.leftButton,click_probe.midButton,click_probe.rightButton,click_probe.time,click_probe.clicked_name,key_resp_probe.keys,Break.started,Break.stopped,break_done_touch.x,break_done_touch.y,break_done_touch.leftButton,break_done_touch.midButton,break_done_touch.rightButton,break_done_keyboard.keys,list2_trials.thisRepN,list2_trials.thisTrialN,list2_trials.thisN,list2_trials.thisIndex,list2_trials.ran,list_id,item_type,string,font,stim_file,key_resp_probe.rt,key_resp_probe.duration,break_done_keyboard.rt,break_done_keyboard.duration,End.started,End.stopped
list2,,0.4381,0.4382,31962,001,2025-10-19_21h11.09.786,HW_LDT_1,2024.2.4,MacIntel,59.88023952,,,,,,,,,,,,,,,,,,,,,,,,,,,,,,,,,,,,,,,,,,,,,,,,,,,,,,,,,,,,,,,,,,,,,,,,,,,,,,,,,,,,,,,,,,,,,,,,,,,,,,,,,,,,,,,,,,,,,,,
,,,,31962,001,2025-10-19_21h11.09.786,HW_LDT_1,2024.2.4,MacIntel,59.88023952,0.4555,27.7967,,-0.082307535,-0.38101452,1,0,0,instr_done_button,0,0,0,0,1,1,instructions,"INSTRUCTIONS
At the start of each trial, look at the plus sign  (+) in the center of the screen.  This tells you that a trial is about to begin and where to look. Second, the plus sign will disappear and a string of letters will appear. Your task is to determine if the string of letters is a word or not. If the item is a word press the M key (on keyboard)  or touch the word button (phone/tablet).  If the item is not a word,  press the  Z key (on keyboard)  or touch the nonword button (on phone/tablet). The items will be presented for a short time. 
Press the space bar or touch  continue.",0,,,,,,,,,,,,,,,,,,,,,,,,,,,,,,,,,,,,,,,,,,,,,,,,,,,,,,,,,,,,,,,,,,,,,,,,,,,,,,,,,,,,,,,,,,,,,,,,,,,,,
,,,,31962,001,2025-10-19_21h11.09.786,HW_LDT_1,2024.2.4,MacIntel,59.88023952,27.7989,33.7126,space,-0.082307535,-0.38101452,0,0,0,,0,1,1,1,1,2,instructions,"If your device has a keyboard, press the 'Z' key for nonwords and the 'M' key for words.





Press the space bar or touch the button below to continue.",0,keyboard-example.gif,5.8864,,,,,,,,,,,,,,,,,,,,,,,,,,,,,,,,,,,,,,,,,,,,,,,,,,,,,,,,,,,,,,,,,,,,,,,,,,,,,,,,,,,,,,,,,,,,,,,,,,,
,,,,31962,001,2025-10-19_21h11.09.786,HW_LDT_1,2024.2.4,MacIntel,59.88023952,33.7144,37.5125,space,-0.082307535,-0.38101452,0,0,0,,0,2,2,2,1,3,instructions,"If you are using a touchscreen only device, use the buttons on the screen. Do not use the mouse.





Press the space bar or touch the button below to continue.",0,touchscreen-example.gif,3.7698,,,,,,,,,,,,,,,,,,,,,,,,,,,,,,,,,,,,,,,,,,,,,,,,,,,,,,,,,,,,,,,,,,,,,,,,,,,,,,,,,,,,,,,,,,,,,,,,,,,
,,,,31962,001,2025-10-19_21h11.09.786,HW_LDT_1,2024.2.4,MacIntel,59.88023952,37.5149,53.9125,space,-0.082307535,-0.38101452,0,0,0,,0,3,3,3,1,4,instructions,"It is very important that you respond as quickly and accurately as possible, as each letter string will only be on the screen for two seconds. If you do not respond within this time, the message 'Too slow!' will be displayed and the experiment will progress to the next letter string. The first 20 trials will be practice trials and you will receive feedback on your answers. 

Press the space bar or touch the button below to start the practice trials.",0,,16.3707,,,,,,,,,,,,,,,,,,,,,,,,,,,,,,,,,,,,,,,,,,,,,,,,,,,,,,,,,,,,,,,,,,,,,,,,,,,,,,,,,,,,,,,,,,,,,,,,,,,
,,,,31962,001,2025-10-19_21h11.09.786,HW_LDT_1,2024.2.4,MacIntel,59.88023952,,,,,,,,,,,,,,,,,,,,,,53.9392,54.1122,54.1126,54.6118,54.6119,56.5116,z,1,1.8919,,[],[],[],[],[],[],[],1.8919,1,56.5121,57.0122,0,0,0,15,1,1016,NW,UN,16,mushed,WHAISE,z,,,,,,,,,,,,,,,,,,,,,,,,,,,,,,,,,,,,,,,,,,,,,,,,,,,,,,,,,,,,,,,,,
,,,,31962,001,2025-10-19_21h11.09.786,HW_LDT_1,2024.2.4,MacIntel,59.88023952,,,,,,,,,,,,,,,,,,,,,,57.014,57.211,57.211,57.7121,57.7133,58.5786,m,1,0.8529,,[],[],[],[],[],[],[],0.8529,1,58.5787,59.0787,0,1,1,6,1,1007,WORD,UN,16,tropic,ZOMBIE,m,,,,,,,,,,,,,,,,,,,,,,,,,,,,,,,,,,,,,,,,,,,,,,,,,,,,,,,,,,,,,,,,,
,,,,31962,001,2025-10-19_21h11.09.786,HW_LDT_1,2024.2.4,MacIntel,59.88023952,,,,,,,,,,,,,,,,,,,,,,59.0803,59.2777,59.2778,59.7782,59.7793,61.1612,m,1,1.3661,,[],[],[],[],[],[],[],1.3661,1,61.1614,61.6621,0,2,2,5,1,1006,WORD,UN,33,frenzy,OBTAIN,m,,,,,,,,,,,,,,,,,,,,,,,,,,,,,,,,,,,,,,,,,,,,,,,,,,,,,,,,,,,,,,,,,
,,,,31962,001,2025-10-19_21h11.09.786,HW_LDT_1,2024.2.4,MacIntel,59.88023952,,,,,,,,,,,,,,,,,,,,,,61.6636,61.861,61.861,62.362,62.3631,63.2611,m,1,0.878,,[],[],[],[],[],[],[],0.878,1,63.2612,63.762,0,3,3,2,1,1003,WORD,"ID",16,almond,ALMOND,m,,,,,,,,,,,,,,,,,,,,,,,,,,,,,,,,,,,,,,,,,,,,,,,,,,,,,,,,,,,,,,,,,
,,,,31962,001,2025-10-19_21h11.09.786,HW_LDT_1,2024.2.4,MacIntel,59.88023952,,,,,,,,,,,,,,,,,,,,,,63.7634,63.9619,63.962,64.4619,64.463,65.6777,z,1,1.198,,[],[],[],[],[],[],[],1.198,1,65.6781,66.1777,0,4,4,12,1,1013,NW,UN,33,adveil,SPRINY,z,,,,,,,,,,,,,,,,,,,,,,,,,,,,,,,,,,,,,,,,,,,,,,,,,,,,,,,,,,,,,,,,,
,,,,31962,001,2025-10-19_21h11.09.786,HW_LDT_1,2024.2.4,MacIntel,59.88023952,,,,,,,,,,,,,,,,,,,,,,66.1793,66.3776,66.3778,66.8779,66.8792,67.9122,m,1,1.0211,,[],[],[],[],[],[],[],1.0211,1,67.9124,68.412,0,5,5,4,1,1005,WORD,UN,33,abound,SQUEAK,m,,,,,,,,,,,,,,,,,,,,,,,,,,,,,,,,,,,,,,,,,,,,,,,,,,,,,,,,,,,,,,,,,
,,,,31962,001,2025-10-19_21h11.09.786,HW_LDT_1,2024.2.4,MacIntel,59.88023952,,,,,,,,,,,,,,,,,,,,,,68.4135,68.6119,68.6119,69.1119,69.113,70.4113,z,1,1.278,,[],[],[],[],[],[],[],1.278,1,70.4115,70.911,0,6,6,9,1,1010,NW,"ID",33,fariny,FARINY,z,,,,,,,,,,,,,,,,,,,,,,,,,,,,,,,,,,,,,,,,,,,,,,,,,,,,,,,,,,,,,,,,,
,,,,31962,001,2025-10-19_21h11.09.786,HW_LDT_1,2024.2.4,MacIntel,59.88023952,,,,,,,,,,,,,,,,,,,,,,70.9126,71.1118,71.1119,71.6119,71.6128,72.6444,z,1,1.0113,,[],[],[],[],[],[],[],1.0113,1,72.6446,73.1453,0,7,7,8,1,1009,NW,"ID",33,aslert,ASLERT,z,,,,,,,,,,,,,,,,,,,,,,,,,,,,,,,,,,,,,,,,,,,,,,,,,,,,,,,,,,,,,,,,,
,,,,31962,001,2025-10-19_21h11.09.786,HW_LDT_1,2024.2.4,MacIntel,59.88023952,,,,,,,,,,,,,,,,,,,,,,73.1467,73.3452,73.3453,73.8444,73.8453,74.7119,m,1,0.8547,,[],[],[],[],[],[],[],0.8547,1,74.7121,75.2119,0,8,8,0,1,1001,WORD,"ID",33,utopia,UTOPIA,m,,,,,,,,,,,,,,,,,,,,,,,,,,,,,,,,,,,,,,,,,,,,,,,,,,,,,,,,,,,,,,,,,
,,,,31962,001,2025-10-19_21h11.09.786,HW_LDT_1,2024.2.4,MacIntel,59.88023952,,,,,,,,,,,,,,,,,,,,,,75.2136,75.4109,75.4111,75.9109,75.9118,76.8786,z,1,0.9468,,[],[],[],[],[],[],[],0.9468,1,76.8788,77.3786,0,9,9,10,1,1011,NW,"ID",16,inlade,INLADE,z,,,,,,,,,,,,,,,,,,,,,,,,,,,,,,,,,,,,,,,,,,,,,,,,,,,,,,,,,,,,,,,,,
,,,,31962,001,2025-10-19_21h11.09.786,HW_LDT_1,2024.2.4,MacIntel,59.88023952,,,,,,,,,,,,,,,,,,,,,,77.3799,77.5785,77.5785,78.0785,78.0795,78.8285,m,1,0.7286,,[],[],[],[],[],[],[],0.7286,1,78.8287,79.3276,0,10,10,1,1,1002,WORD,"ID",33,adjust,ADJUST,m,,,,,,,,,,,,,,,,,,,,,,,,,,,,,,,,,,,,,,,,,,,,,,,,,,,,,,,,,,,,,,,,,
,,,,31962,001,2025-10-19_21h11.09.786,HW_LDT_1,2024.2.4,MacIntel,59.88023952,,,,,,,,,,,,,,,,,,,,,,79.329,79.5281,79.5282,80.0282,80.0292,80.7453,z,1,0.6955,,[],[],[],[],[],[],[],0.6955,1,80.7455,81.2452,0,11,11,11,1,1012,NW,"ID",16,rashet,RASHET,z,,,,,,,,,,,,,,,,,,,,,,,,,,,,,,,,,,,,,,,,,,,,,,,,,,,,,,,,,,,,,,,,,
,,,,31962,001,2025-10-19_21h11.09.786,HW_LDT_1,2024.2.4,MacIntel,59.88023952,,,,,,,,,,,,,,,,,,,,,,81.2468,81.4452,81.4454,81.9443,81.9453,82.9443,z,1,0.9794,,[],[],[],[],[],[],[],0.9794,1,82.9444,83.4443,0,12,12,13,1,1014,NW,UN,33,winfer,ROUPET,z,,,,,,,,,,,,,,,,,,,,,,,,,,,,,,,,,,,,,,,,,,,,,,,,,,,,,,,,,,,,,,,,,
,,,,31962,001,2025-10-19_21h11.09.786,HW_LDT_1,2024.2.4,MacIntel,59.88023952,,,,,,,,,,,,,,,,,,,,,,83.4456,83.6451,83.6452,84.1443,84.1454,84.9445,m,1,0.78,,[],[],[],[],[],[],[],0.78,1,84.9447,85.4443,0,13,13,7,1,1008,WORD,UN,16,hurdle,VOLUME,m,,,,,,,,,,,,,,,,,,,,,,,,,,,,,,,,,,,,,,,,,,,,,,,,,,,,,,,,,,,,,,,,,
,,,,31962,001,2025-10-19_21h11.09.786,HW_LDT_1,2024.2.4,MacIntel,59.88023952,,,,,,,,,,,,,,,,,,,,,,85.4457,85.6453,85.6453,86.1452,86.1461,86.8286,z,1,0.6737,,[],[],[],[],[],[],[],0.6737,1,86.8288,87.3282,0,14,14,14,1,1015,NW,UN,16,miaber,THRALE,z,,,,,,,,,,,,,,,,,,,,,,,,,,,,,,,,,,,,,,,,,,,,,,,,,,,,,,,,,,,,,,,,,
,,,,31962,001,2025-10-19_21h11.09.786,HW_LDT_1,2024.2.4,MacIntel,59.88023952,,,,,,,,,,,,,,,,,,,,,,87.3294,87.5277,87.5278,88.0285,88.0296,88.8621,m,1,0.8159,,[],[],[],[],[],[],[],0.8159,1,88.8621,89.3619,0,15,15,3,1,1004,WORD,"ID",16,matrix,MATRIX,m,,,,,,,,,,,,,,,,,,,,,,,,,,,,,,,,,,,,,,,,,,,,,,,,,,,,,,,,,,,,,,,,,
,,,,31962,001,2025-10-19_21h11.09.786,HW_LDT_1,2024.2.4,MacIntel,59.88023952,,,,,,,,,,,,,,,1,end_of_practice,"You have completed the practice trials. During the experimental trials, you will not receive feedback. On some trials you will be asked to report whether the item you just saw was in cursive or print. 
Before you begin, please ensure that you are in a comfortable and quiet location and will not be disturbed for about 15 minutes, as we cannot use your data if you do not complete all the trials. 
 When you are ready to start the experimental trials, please press space or touch the button below.",,,,,,,,,,,,,,,,,,,,,,,,,,,,,,,,,,,,,,89.3677,90.2789,,-0.082307535,-0.38101452,1,0,0,instr_done_button_3,0,0,0,0,1,,,,,,,,,,,,,,,,,,,,,,,,,,,,,,,,,,,,,,,,,,,,,,,,,,,
,,,,31962,001,2025-10-19_21h11.09.786,HW_LDT_1,2024.2.4,MacIntel,59.88023952,,,,,,,,,,,,,,,,,,,,,,90.2926,90.4785,90.4786,90.9786,,,,,,,,,,,,,,3.3793,1,,,,,,,,,,,,,,z,,,,,,,,,,,,,,,1,0,90.9803,94.3624,z,1,3.3793,,[],[],[],[],[],[],[],94.3627,96.3621,96.3624,96.3652,[],[],[],[],[],[],[],,96.3653,96.3666,-0.082307535,-0.38101452,0,0,0,,0,0,0,61,1,2,TL,nuremical,cursive,nuremical_c.png,,,,,,
,,,,31962,001,2025-10-19_21h11.09.786,HW_LDT_1,2024.2.4,MacIntel,59.88023952,,,,,,,,,,,,,,,,,,,,,,96.3673,96.5618,96.5619,97.0619,,,,,,,,,,,,,,1.6855,1,,,,,,,,,,,,,,z,,,,,,,,,,,,,,,2,0,97.0625,98.7611,z,1,1.6855,,[],[],[],[],[],[],[],98.7612,100.7609,100.761,100.7614,[],[],[],[],[],[],[],,100.7614,100.7615,-0.082307535,-0.38101452,0,0,0,,0,1,1,9,1,2,RL,denficy,print,denficy_p.png,,,,,,
,,,,31962,001,2025-10-19_21h11.09.786,HW_LDT_1,2024.2.4,MacIntel,59.88023952,,,,,,,,,,,,,,,,,,,,,,100.7628,100.9618,100.9619,101.4609,,,,,,,,,,,,,,0.9571,0,,,,,,,,,,,,,,z,,,,,,,,,,,,,,,3,0,101.4616,102.4286,m,0,0.9571,,[],[],[],[],[],[],[],102.4288,104.4285,104.4285,104.4289,[],[],[],[],[],[],[],,104.4289,104.429,-0.082307535,-0.38101452,0,0,0,,0,2,2,47,1,2,TL,crinimal,cursive,crinimal_c.png,,,,,,
,,,,31962,001,2025-10-19_21h11.09.786,HW_LDT_1,2024.2.4,MacIntel,59.88023952,,,,,,,,,,,,,,,,,,,,,,104.4302,104.6284,104.6285,105.1276,,,,,,,,,,,,,,0.7868,1,,,,,,,,,,,,,,m,,,,,,,,,,,,,,,4,0,105.1282,105.9286,m,1,0.7868,,[],[],[],[],[],[],[],105.9287,107.9285,107.9286,107.9289,[],[],[],[],[],[],[],,107.929,107.929,-0.082307535,-0.38101452,0,0,0,,0,3,3,83,1,2,word,ANIMAL,print,animal_p.png,,,,,,
,,,,31962,001,2025-10-19_21h11.09.786,HW_LDT_1,2024.2.4,MacIntel,59.88023952,,,,,,,,,,,,,,,,,,,,,,107.9303,108.1285,108.1286,108.6276,,,,,,,,,,,,,,0.9209,1,,,,,,,,,,,,,,m,,,,,,,,,,,,,,,5,0,108.6282,109.562,m,1,0.9209,,[],[],[],[],[],[],[],109.5621,111.5616,111.5617,111.562,[],[],[],[],[],[],[],,111.5621,111.5622,-0.082307535,-0.38101452,0,0,0,,0,4,4,89,1,2,word,CAPACITY,print,capacity_p.png,,,,,,
,,,,31962,001,2025-10-19_21h11.09.786,HW_LDT_1,2024.2.4,MacIntel,59.88023952,,,,,,,,,,,,,,,,,,,,,,111.5634,111.7617,111.7617,112.2618,,,,,,,,,,,,,,1.2314,1,,,,,,,,,,,,,,m,,,,,,,,,,,,,,,6,0,112.2624,113.4952,m,1,1.2314,,[],[],[],[],[],[],[],113.4954,115.4951,115.4952,115.4956,[],[],[],[],[],[],[],,115.4957,115.4959,-0.082307535,-0.38101452,0,0,0,,0,5,5,156,1,2,word,TRIBUTE,cursive,tribute_c.png,,,,,,
,,,,31962,001,2025-10-19_21h11.09.786,HW_LDT_1,2024.2.4,MacIntel,59.88023952,,,,,,,,,,,,,,,,,,,,,,115.4972,115.6951,115.6951,116.1951,,,,,,,,,,,,,,0.8536,1,,,,,,,,,,,,,,z,,,,,,,,,,,,,,,7,0,116.1958,117.0615,z,1,0.8536,,[],[],[],[],[],[],[],117.0617,119.0619,119.062,119.0623,[],[],[],[],[],[],[],,119.0623,119.0625,-0.082307535,-0.38101452,0,0,0,,0,6,6,77,1,2,TL,sloten,print,sloten_p.png,,,,,,
,,,,31962,001,2025-10-19_21h11.09.786,HW_LDT_1,2024.2.4,MacIntel,59.88023952,,,,,,,,,,,,,,,,,,,,,,119.0637,119.2619,119.262,119.7619,,,,,,,,,,,,,,1.1029,1,,,,,,,,,,,,,,m,,,,,,,,,,,,,,,8,0,119.7625,120.8786,m,1,1.1029,,[],[],[],[],[],[],[],120.8788,122.8784,122.8786,122.8789,[],[],[],[],[],[],[],,122.879,122.879,-0.082307535,-0.38101452,0,0,0,,0,7,7,96,1,2,word,CONSIDER,print,consider_p.png,,,,,,
,,,,31962,001,2025-10-19_21h11.09.786,HW_LDT_1,2024.2.4,MacIntel,59.88023952,,,,,,,,,,,,,,,,,,,,,,122.8802,123.0784,123.0786,123.5784,,,,,,,,,,,,,,0.7701,1,,,,,,,,,,,,,,z,,,,,,,,,,,,,,,9,0,123.5791,124.3619,z,1,0.7701,,[],[],[],[],[],[],[],124.362,126.3619,126.3619,126.3623,[],[],[],[],[],[],[],,126.3624,126.3625,-0.082307535,-0.38101452,0,0,0,,0,8,8,38,1,2,TL,atameur,cursive,atameur_c.png,,,,,,
,,,,31962,001,2025-10-19_21h11.09.786,HW_LDT_1,2024.2.4,MacIntel,59.88023952,,,,,,,,,,,,,,,,,,,,,,126.3637,126.5615,126.5616,127.0618,,,,,,,,,,,,,,1.0192,1,,,,,,,,,,,,,,m,,,,,,,,,,,,,,,10,1,127.0624,128.0952,m,1,1.0192,,[],[],[],[],[],[],[],128.0954,130.0951,130.0952,136.062,[],[],[],[],[],[],[],z,136.0621,136.0623,-0.082307535,-0.38101452,0,0,0,,0,9,9,108,1,2,word,FORTUNE,print,fortune_p.png,5.9588,,,,,
,,,,31962,001,2025-10-19_21h11.09.786,HW_LDT_1,2024.2.4,MacIntel,59.88023952,,,,,,,,,,,,,,,,,,,,,,136.0637,136.2619,136.262,136.7618,,,,,,,,,,,,,,0.9795,1,,,,,,,,,,,,,,m,,,,,,,,,,,,,,,11,0,136.7624,137.7451,m,1,0.9795,,[],[],[],[],[],[],[],137.7452,139.745,139.7452,139.7454,[],[],[],[],[],[],[],,139.7454,139.7456,-0.082307535,-0.38101452,0,0,0,,0,10,10,147,1,2,word,ROMANTIC,print,romantic_p.png,,,,,,
,,,,31962,001,2025-10-19_21h11.09.786,HW_LDT_1,2024.2.4,MacIntel,59.88023952,,,,,,,,,,,,,,,,,,,,,,139.7468,139.9451,139.9451,140.4451,,,,,,,,,,,,,,0.7816,0,,,,,,,,,,,,,,z,,,,,,,,,,,,,,,12,0,140.4456,141.2285,m,0,0.7816,,[],[],[],[],[],[],[],141.2285,143.2284,143.2284,143.2287,[],[],[],[],[],[],[],,143.2288,143.2288,-0.082307535,-0.38101452,0,0,0,,0,11,11,64,1,2,TL,paficic,print,paficic_p.png,,,,,,
,,,,31962,001,2025-10-19_21h11.09.786,HW_LDT_1,2024.2.4,MacIntel,59.88023952,,,,,,,,,,,,,,,,,,,,,,143.23,143.4283,143.4285,143.9284,,,,,,,,,,,,,,1.087,1,,,,,,,,,,,,,,z,,,,,,,,,,,,,,,13,0,143.929,145.0275,z,1,1.087,,[],[],[],[],[],[],[],145.0277,147.0284,147.0284,147.0287,[],[],[],[],[],[],[],,147.0288,147.029,-0.082307535,-0.38101452,0,0,0,,0,12,12,79,1,2,TL,vadility,print,vadility_p.png,,,,,,
,,,,31962,001,2025-10-19_21h11.09.786,HW_LDT_1,2024.2.4,MacIntel,59.88023952,,,,,,,,,,,,,,,,,,,,,,147.0302,147.2284,147.2286,147.7284,,,,,,,,,,,,,,1.7203,1,,,,,,,,,,,,,,z,,,,,,,,,,,,,,,14,1,147.729,149.4618,z,1,1.7203,,[],[],[],[],[],[],[],149.4619,151.4617,151.4618,153.5118,[],[],[],[],[],[],[],z,153.512,153.5121,-0.082307535,-0.38101452,0,0,0,,0,13,13,33,1,2,RL,strapely,cursive,strapely_c.png,2.0377,,,,,
,,,,31962,001,2025-10-19_21h11.09.786,HW_LDT_1,2024.2.4,MacIntel,59.88023952,,,,,,,,,,,,,,,,,,,,,,153.5133,153.7117,153.7117,154.2117,,,,,,,,,,,,,,0.9146,1,,,,,,,,,,,,,,m,,,,,,,,,,,,,,,15,0,154.2123,155.1284,m,1,0.9146,,[],[],[],[],[],[],[],155.1285,157.1284,157.1285,157.1287,[],[],[],[],[],[],[],,157.1287,157.1288,-0.082307535,-0.38101452,0,0,0,,0,14,14,95,1,2,word,COMEDY,cursive,comedy_c.png,,,,,,
,,,,31962,001,2025-10-19_21h11.09.786,HW_LDT_1,2024.2.4,MacIntel,59.88023952,,,,,,,,,,,,,,,,,,,,,,157.13,157.3285,157.3285,157.8284,,,,,,,,,,,,,,2.7905,0,,,,,,,,,,,,,,m,,,,,,,,,,,,,,,16,0,157.8289,160.6284,z,0,2.7905,,[],[],[],[],[],[],[],160.6286,162.6284,162.6284,162.6287,[],[],[],[],[],[],[],,162.6287,162.6289,-0.082307535,-0.38101452,0,0,0,,0,15,15,134,1,2,word,QUALIFY,cursive,qualify_c.png,,,,,,
,,,,31962,001,2025-10-19_21h11.09.786,HW_LDT_1,2024.2.4,MacIntel,59.88023952,,,,,,,,,,,,,,,,,,,,,,162.6301,162.8284,162.8285,163.3284,,,,,,,,,,,,,,1.5874,1,,,,,,,,,,,,,,z,,,,,,,,,,,,,,,17,1,163.329,164.9285,z,1,1.5874,,[],[],[],[],[],[],[],164.9287,166.9274,166.9275,167.7452,[],[],[],[],[],[],[],z,167.7452,167.7454,-0.082307535,-0.38101452,0,0,0,,0,16,16,59,1,2,TL,miskate,cursive,miskate_c.png,0.8054,,,,,
,,,,31962,001,2025-10-19_21h11.09.786,HW_LDT_1,2024.2.4,MacIntel,59.88023952,,,,,,,,,,,,,,,,,,,,,,167.7466,167.945,167.9451,168.4451,,,,,,,,,,,,,,1.096,1,,,,,,,,,,,,,,z,,,,,,,,,,,,,,,18,0,168.4456,169.545,z,1,1.096,,[],[],[],[],[],[],[],169.5452,171.545,171.545,171.5453,[],[],[],[],[],[],[],,171.5453,171.5455,-0.082307535,-0.38101452,0,0,0,,0,17,17,60,1,2,TL,molibe,print,molibe_p.png,,,,,,
,,,,31962,001,2025-10-19_21h11.09.786,HW_LDT_1,2024.2.4,MacIntel,59.88023952,,,,,,,,,,,,,,,,,,,,,,171.5468,171.745,171.745,172.2451,,,,,,,,,,,,,,1.7463,1,,,,,,,,,,,,,,z,,,,,,,,,,,,,,,19,0,172.2456,173.9951,z,1,1.7463,,[],[],[],[],[],[],[],173.9951,175.9943,175.9944,175.9947,[],[],[],[],[],[],[],,175.9947,175.9948,-0.082307535,-0.38101452,0,0,0,,0,18,18,28,1,2,RL,revune,cursive,revune_c.png,,,,,,
,,,,31962,001,2025-10-19_21h11.09.786,HW_LDT_1,2024.2.4,MacIntel,59.88023952,,,,,,,,,,,,,,,,,,,,,,175.9961,176.195,176.1951,176.695,,,,,,,,,,,,,,1.1883,1,,,,,,,,,,,,,,z,,,,,,,,,,,,,,,20,1,176.6956,177.895,z,1,1.1883,,[],[],[],[],[],[],[],177.8952,179.8949,179.895,180.9617,[],[],[],[],[],[],[],m,180.9618,180.9619,-0.082307535,-0.38101452,0,0,0,,0,19,19,13,1,2,RL,helicage,print,helicage_p.png,1.0653,,,,,
,,,,31962,001,2025-10-19_21h11.09.786,HW_LDT_1,2024.2.4,MacIntel,59.88023952,,,,,,,,,,,,,,,,,,,,,,180.963,181.1619,181.1619,181.6616,,,,,,,,,,,,,,1.0894,1,,,,,,,,,,,,,,z,,,,,,,,,,,,,,,21,0,181.6621,182.7617,z,1,1.0894,,[],[],[],[],[],[],[],182.7618,184.7617,184.7617,184.762,[],[],[],[],[],[],[],,184.7621,184.7622,-0.082307535,-0.38101452,0,0,0,,0,20,20,16,1,2,RL,losipal,print,losipal_p.png,,,,,,
,,,,31962,001,2025-10-19_21h11.09.786,HW_LDT_1,2024.2.4,MacIntel,59.88023952,,,,,,,,,,,,,,,,,,,,,,184.7634,184.9617,184.9617,185.4617,,,,,,,,,,,,,,4.3573,1,,,,,,,,,,,,,,z,,,,,,,,,,,,,,,22,0,185.4622,189.8284,z,1,4.3573,,[],[],[],[],[],[],[],189.8285,191.8283,191.8284,191.8286,[],[],[],[],[],[],[],,191.8286,191.8288,-0.082307535,-0.38101452,0,0,0,,0,21,21,45,1,2,TL,carnidal,cursive,carnidal_c.png,,,,,,
,,,,31962,001,2025-10-19_21h11.09.786,HW_LDT_1,2024.2.4,MacIntel,59.88023952,,,,,,,,,,,,,,,,,,,,,,191.8301,192.0283,192.0284,192.5275,,,,,,,,,,,,,,3.8551,1,,,,,,,,,,,,,,z,,,,,,,,,,,,,,,23,0,192.528,196.3951,z,1,3.8551,,[],[],[],[],[],[],[],196.3952,198.395,198.3951,198.3954,[],[],[],[],[],[],[],,198.3955,198.3956,-0.082307535,-0.38101452,0,0,0,,0,22,22,65,1,2,TL,polupar,cursive,polupar_c.png,,,,,,
,,,,31962,001,2025-10-19_21h11.09.786,HW_LDT_1,2024.2.4,MacIntel,59.88023952,,,,,,,,,,,,,,,,,,,,,,198.3966,198.595,198.595,199.095,,,,,,,,,,,,,,2.6748,1,,,,,,,,,,,,,,z,,,,,,,,,,,,,,,24,0,199.0955,201.7784,z,1,2.6748,,[],[],[],[],[],[],[],201.7785,203.7782,203.7783,203.7786,[],[],[],[],[],[],[],,203.7786,203.7787,-0.082307535,-0.38101452,0,0,0,,0,23,23,68,1,2,TL,quatily,cursive,quatily_c.png,,,,,,
,,,,31962,001,2025-10-19_21h11.09.786,HW_LDT_1,2024.2.4,MacIntel,59.88023952,,,,,,,,,,,,,,,,,,,,,,203.78,203.9783,203.9783,204.4783,,,,,,,,,,,,,,2.337,1,,,,,,,,,,,,,,z,,,,,,,,,,,,,,,25,0,204.4789,206.8284,z,1,2.337,,[],[],[],[],[],[],[],206.8285,208.8283,208.8284,208.8286,[],[],[],[],[],[],[],,208.8286,208.8288,-0.082307535,-0.38101452,0,0,0,,0,24,24,42,1,2,TL,bedise,cursive,bedise_c.png,,,,,,
,,,,31962,001,2025-10-19_21h11.09.786,HW_LDT_1,2024.2.4,MacIntel,59.88023952,,,,,,,,,,,,,,,,,,,,,,208.8298,209.0283,209.0284,209.5283,,,,,,,,,,,,,,2.7643,1,,,,,,,,,,,,,,m,,,,,,,,,,,,,,,26,0,209.5289,212.2949,m,1,2.7643,,[],[],[],[],[],[],[],212.295,214.295,214.295,214.2953,[],[],[],[],[],[],[],,214.2953,214.2955,-0.082307535,-0.38101452,0,0,0,,0,25,25,142,1,2,word,REMOTE,cursive,remote_c.png,,,,,,
,,,,31962,001,2025-10-19_21h11.09.786,HW_LDT_1,2024.2.4,MacIntel,59.88023952,,,,,,,,,,,,,,,,,,,,,,214.2968,214.4949,214.4949,214.9949,,,,,,,,,,,,,,0.9133,1,,,,,,,,,,,,,,z,,,,,,,,,,,,,,,27,0,214.9954,215.9116,z,1,0.9133,,[],[],[],[],[],[],[],215.9116,217.9116,217.9117,217.912,[],[],[],[],[],[],[],,217.9121,217.9122,-0.082307535,-0.38101452,0,0,0,,0,26,26,50,1,2,TL,donimant,print,donimant_p.png,,,,,,
,,,,31962,001,2025-10-19_21h11.09.786,HW_LDT_1,2024.2.4,MacIntel,59.88023952,,,,,,,,,,,,,,,,,,,,,,217.9135,218.1117,218.1118,218.6116,,,,,,,,,,,,,,1.2461,1,,,,,,,,,,,,,,z,,,,,,,,,,,,,,,28,0,218.6123,219.8616,z,1,1.2461,,[],[],[],[],[],[],[],219.8617,221.8615,221.8615,221.8618,[],[],[],[],[],[],[],,221.8619,221.862,-0.082307535,-0.38101452,0,0,0,,0,27,27,21,1,2,RL,pamest,print,pamest_p.png,,,,,,
,,,,31962,001,2025-10-19_21h11.09.786,HW_LDT_1,2024.2.4,MacIntel,59.88023952,,,,,,,,,,,,,,,,,,,,,,221.8633,222.0616,222.0617,222.5616,,,,,,,,,,,,,,4.1872,0,,,,,,,,,,,,,,m,,,,,,,,,,,,,,,29,0,222.5621,226.7617,z,0,4.1872,,[],[],[],[],[],[],[],226.7618,228.7615,228.7617,228.7619,[],[],[],[],[],[],[],,228.762,228.7621,-0.082307535,-0.38101452,0,0,0,,0,28,28,103,1,2,word,DISPUTE,cursive,dispute_c.png,,,,,,
,,,,31962,001,2025-10-19_21h11.09.786,HW_LDT_1,2024.2.4,MacIntel,59.88023952,,,,,,,,,,,,,,,,,,,,,,228.7634,228.9616,228.9616,229.4616,,,,,,,,,,,,,,1.748,1,,,,,,,,,,,,,,m,,,,,,,,,,,,,,,30,0,229.4621,231.2116,m,1,1.748,,[],[],[],[],[],[],[],231.2117,233.2116,233.2116,233.2119,[],[],[],[],[],[],[],,233.212,233.2121,-0.082307535,-0.38101452,0,0,0,,0,29,29,116,1,2,word,MARGINAL,cursive,marginal_c.png,,,,,,
,,,,31962,001,2025-10-19_21h11.09.786,HW_LDT_1,2024.2.4,MacIntel,59.88023952,,,,,,,,,,,,,,,,,,,,,,233.2133,233.4116,233.4116,233.9115,,,,,,,,,,,,,,1.1225,1,,,,,,,,,,,,,,m,,,,,,,,,,,,,,,31,0,233.9121,235.045,m,1,1.1225,,[],[],[],[],[],[],[],235.0452,237.0449,237.045,237.0452,[],[],[],[],[],[],[],,237.0452,237.0453,-0.082307535,-0.38101452,0,0,0,,0,30,30,102,1,2,word,DENSITY,print,density_p.png,,,,,,
,,,,31962,001,2025-10-19_21h11.09.786,HW_LDT_1,2024.2.4,MacIntel,59.88023952,,,,,,,,,,,,,,,,,,,,,,237.0468,237.2449,237.2449,237.7449,,,,,,,,,,,,,,1.2632,1,,,,,,,,,,,,,,m,,,,,,,,,,,,,,,32,0,237.7455,239.0116,m,1,1.2632,,[],[],[],[],[],[],[],239.0117,241.0116,241.0116,241.0118,[],[],[],[],[],[],[],,241.0119,241.0119,-0.082307535,-0.38101452,0,0,0,,0,31,31,146,1,2,word,RETIRE,cursive,retire_c.png,,,,,,
,,,,31962,001,2025-10-19_21h11.09.786,HW_LDT_1,2024.2.4,MacIntel,59.88023952,,,,,,,,,,,,,,,,,,,,,,241.0133,241.2115,241.2116,241.7111,,,,,,,,,,,,,,0.9629,1,,,,,,,,,,,,,,m,,,,,,,,,,,,,,,33,0,241.7117,242.6782,m,1,0.9629,,[],[],[],[],[],[],[],242.6784,244.6782,244.6782,244.6784,[],[],[],[],[],[],[],,244.6785,244.6786,-0.082307535,-0.38101452,0,0,0,,0,32,32,98,1,2,word,CRIMINAL,cursive,criminal_c.png,,,,,,
,,,,31962,001,2025-10-19_21h11.09.786,HW_LDT_1,2024.2.4,MacIntel,59.88023952,,,,,,,,,,,,,,,,,,,,,,244.6797,244.8782,244.8782,245.3782,,,,,,,,,,,,,,2.0789,0,,,,,,,,,,,,,,m,,,,,,,,,,,,,,,34,0,245.3789,247.4616,z,0,2.0789,,[],[],[],[],[],[],[],247.4616,249.4615,249.4616,249.4618,[],[],[],[],[],[],[],,249.4618,249.4619,-0.082307535,-0.38101452,0,0,0,,0,33,33,109,1,2,word,GRATEFUL,cursive,grateful_c.png,,,,,,
,,,,31962,001,2025-10-19_21h11.09.786,HW_LDT_1,2024.2.4,MacIntel,59.88023952,,,,,,,,,,,,,,,,,,,,,,249.4632,249.6615,249.6616,250.1615,,,,,,,,,,,,,,0.9534,1,,,,,,,,,,,,,,z,,,,,,,,,,,,,,,35,0,250.1621,251.1283,z,1,0.9534,,[],[],[],[],[],[],[],251.1283,253.1282,253.1283,253.1284,[],[],[],[],[],[],[],,253.1285,253.1286,-0.082307535,-0.38101452,0,0,0,,0,34,34,30,1,2,RL,selamor,print,selamor_p.png,,,,,,
,,,,31962,001,2025-10-19_21h11.09.786,HW_LDT_1,2024.2.4,MacIntel,59.88023952,,,,,,,,,,,,,,,,,,,,,,253.1299,253.3281,253.3283,253.8282,,,,,,,,,,,,,,0.8699,1,,,,,,,,,,,,,,m,,,,,,,,,,,,,,,36,0,253.8288,254.711,m,1,0.8699,,[],[],[],[],[],[],[],254.7111,256.7115,256.7116,256.7118,[],[],[],[],[],[],[],,256.7118,256.7119,-0.082307535,-0.38101452,0,0,0,,0,35,35,152,1,2,word,SPECIMEN,print,specimen_p.png,,,,,,
,,,,31962,001,2025-10-19_21h11.09.786,HW_LDT_1,2024.2.4,MacIntel,59.88023952,,,,,,,,,,,,,,,,,,,,,,256.7132,256.9115,256.9115,257.4116,,,,,,,,,,,,,,1.0408,1,,,,,,,,,,,,,,z,,,,,,,,,,,,,,,37,0,257.4122,258.4616,z,1,1.0408,,[],[],[],[],[],[],[],258.4617,260.4615,260.4616,260.4617,[],[],[],[],[],[],[],,260.4617,260.4619,-0.082307535,-0.38101452,0,0,0,,0,36,36,27,1,2,RL,repifion,cursive,repifion_c.png,,,,,,
,,,,31962,001,2025-10-19_21h11.09.786,HW_LDT_1,2024.2.4,MacIntel,59.88023952,,,,,,,,,,,,,,,,,,,,,,260.4631,260.6614,260.6616,261.1615,,,,,,,,,,,,,,0.8487,1,,,,,,,,,,,,,,m,,,,,,,,,,,,,,,38,0,261.162,262.0116,m,1,0.8487,,[],[],[],[],[],[],[],262.0116,264.0116,264.0116,264.0118,[],[],[],[],[],[],[],,264.0119,264.012,-0.082307535,-0.38101452,0,0,0,,0,37,37,118,1,2,word,MEDICINE,print,medicine_p.png,,,,,,
,,,,31962,001,2025-10-19_21h11.09.786,HW_LDT_1,2024.2.4,MacIntel,59.88023952,,,,,,,,,,,,,,,,,,,,,,264.0132,264.2115,264.2115,264.7114,,,,,,,,,,,,,,0.7874,1,,,,,,,,,,,,,,m,,,,,,,,,,,,,,,39,0,264.712,265.5115,m,1,0.7874,,[],[],[],[],[],[],[],265.5117,267.5115,267.5116,267.5118,[],[],[],[],[],[],[],,267.5118,267.512,-0.082307535,-0.38101452,0,0,0,,0,38,38,80,1,2,word,ACADEMY,cursive,academy_c.png,,,,,,
,,,,31962,001,2025-10-19_21h11.09.786,HW_LDT_1,2024.2.4,MacIntel,59.88023952,,,,,,,,,,,,,,,,,,,,,,267.5132,267.7115,267.7116,268.2115,,,,,,,,,,,,,,1.4312,1,,,,,,,,,,,,,,z,,,,,,,,,,,,,,,40,0,268.2121,269.6448,z,1,1.4312,,[],[],[],[],[],[],[],269.6449,271.6448,271.6448,271.6452,[],[],[],[],[],[],[],,271.6452,271.6453,-0.082307535,-0.38101452,0,0,0,,0,39,39,46,1,2,TL,codemy,cursive,codemy_c.png,,,,,,
,,,,31962,001,2025-10-19_21h11.09.786,HW_LDT_1,2024.2.4,MacIntel,59.88023952,,,,,,,,,,,,,,,,,,,,,,271.6465,271.8448,271.8448,272.3446,,,,,,,,,,,,,,1.0305,1,,,,,,,,,,,,,,z,,,,,,,,,,,,,,,41,0,272.3448,273.3782,z,1,1.0305,,[],[],[],[],[],[],[],273.3782,275.3783,275.3783,275.3785,[],[],[],[],[],[],[],,275.3786,275.3787,-0.082307535,-0.38101452,0,0,0,,0,40,40,17,1,2,RL,macise,cursive,macise_c.png,,,,,,
,,,,31962,001,2025-10-19_21h11.09.786,HW_LDT_1,2024.2.4,MacIntel,59.88023952,,,,,,,,,,,,,,,,,,,,,,275.38,275.5781,275.5782,276.0781,,,,,,,,,,,,,,0.7312,1,,,,,,,,,,,,,,z,,,,,,,,,,,,,,,42,0,276.0788,276.8116,z,1,0.7312,,[],[],[],[],[],[],[],276.8118,278.8116,278.8116,278.8118,[],[],[],[],[],[],[],,278.8119,278.812,-0.082307535,-0.38101452,0,0,0,,0,41,41,19,1,2,RL,monebate,cursive,monebate_c.png,,,,,,
,,,,31962,001,2025-10-19_21h11.09.786,HW_LDT_1,2024.2.4,MacIntel,59.88023952,,,,,,,,,,,,,,,,,,,,,,278.8134,279.0116,279.0116,279.5116,,,,,,,,,,,,,,0.921,1,,,,,,,,,,,,,,z,,,,,,,,,,,,,,,43,0,279.5122,280.4449,z,1,0.921,,[],[],[],[],[],[],[],280.445,282.4448,282.4449,282.4451,[],[],[],[],[],[],[],,282.4452,282.4453,-0.082307535,-0.38101452,0,0,0,,0,42,42,11,1,2,RL,formuke,print,formuke_p.png,,,,,,
,,,,31962,001,2025-10-19_21h11.09.786,HW_LDT_1,2024.2.4,MacIntel,59.88023952,,,,,,,,,,,,,,,,,,,,,,282.4465,282.6448,282.6448,283.1448,,,,,,,,,,,,,,1.2719,1,,,,,,,,,,,,,,m,,,,,,,,,,,,,,,44,0,283.1455,284.4282,m,1,1.2719,,[],[],[],[],[],[],[],284.4283,286.4282,286.4282,286.4284,[],[],[],[],[],[],[],,286.4285,286.4286,-0.082307535,-0.38101452,0,0,0,,0,43,43,82,1,2,word,AMATEUR,cursive,amateur_c.png,,,,,,
,,,,31962,001,2025-10-19_21h11.09.786,HW_LDT_1,2024.2.4,MacIntel,59.88023952,,,,,,,,,,,,,,,,,,,,,,286.4299,286.6282,286.6283,287.1281,,,,,,,,,,,,,,2.4988,1,,,,,,,,,,,,,,m,,,,,,,,,,,,,,,45,1,287.1286,289.6284,m,1,2.4988,,[],[],[],[],[],[],[],289.6284,291.6281,291.6283,292.6614,[],[],[],[],[],[],[],z,292.6615,292.6615,-0.082307535,-0.38101452,0,0,0,,0,44,44,124,1,2,word,NUMERICAL,cursive,numerical_c.png,1.0212,,,,,
,,,,31962,001,2025-10-19_21h11.09.786,HW_LDT_1,2024.2.4,MacIntel,59.88023952,,,,,,,,,,,,,,,,,,,,,,292.6627,292.8615,292.8615,293.3614,,,,,,,,,,,,,,4.0967,1,,,,,,,,,,,,,,z,,,,,,,,,,,,,,,46,0,293.362,297.4615,z,1,4.0967,,[],[],[],[],[],[],[],297.4616,299.4615,299.4616,299.4618,[],[],[],[],[],[],[],,299.4619,299.462,-0.082307535,-0.38101452,0,0,0,,0,45,45,29,1,2,RL,samite,cursive,samite_c.png,,,,,,
,,,,31962,001,2025-10-19_21h11.09.786,HW_LDT_1,2024.2.4,MacIntel,59.88023952,,,,,,,,,,,,,,,,,,,,,,299.4633,299.6614,299.6615,300.1614,,,,,,,,,,,,,,1.8812,1,,,,,,,,,,,,,,z,,,,,,,,,,,,,,,47,0,300.1619,302.0448,z,1,1.8812,,[],[],[],[],[],[],[],302.0449,304.0447,304.0448,304.0451,[],[],[],[],[],[],[],,304.0452,304.0453,-0.082307535,-0.38101452,0,0,0,,0,46,46,69,1,2,TL,resufal,cursive,resufal_c.png,,,,,,
,,,,31962,001,2025-10-19_21h11.09.786,HW_LDT_1,2024.2.4,MacIntel,59.88023952,,,,,,,,,,,,,,,,,,,,,,304.0465,304.2447,304.2448,304.7447,,,,,,,,,,,,,,0.955,1,,,,,,,,,,,,,,z,,,,,,,,,,,,,,,48,0,304.7452,305.7117,z,1,0.955,,[],[],[],[],[],[],[],305.7117,307.7115,307.7115,307.7118,[],[],[],[],[],[],[],,307.7118,307.712,-0.082307535,-0.38101452,0,0,0,,0,47,47,48,1,2,TL,detabe,print,detabe_p.png,,,,,,
,,,,31962,001,2025-10-19_21h11.09.786,HW_LDT_1,2024.2.4,MacIntel,59.88023952,,,,,,,,,,,,,,,,,,,,,,307.7132,307.9115,307.9115,308.4114,,,,,,,,,,,,,,1.3042,0,,,,,,,,,,,,,,z,,,,,,,,,,,,,,,49,0,308.4119,309.7283,m,0,1.3042,,[],[],[],[],[],[],[],309.7284,311.7281,311.7281,311.7284,[],[],[],[],[],[],[],,311.7285,311.7285,-0.082307535,-0.38101452,0,0,0,,0,48,48,3,1,2,RL,capefory,print,capefory_p.png,,,,,,
,,,,31962,001,2025-10-19_21h11.09.786,HW_LDT_1,2024.2.4,MacIntel,59.88023952,,,,,,,,,,,,,,,,,,,,,,311.7297,311.9281,311.9282,312.4281,,,,,,,,,,,,,,0.8869,1,,,,,,,,,,,,,,m,,,,,,,,,,,,,,,50,0,312.4287,313.3282,m,1,0.8869,,[],[],[],[],[],[],[],313.3283,315.3281,315.3282,315.3285,[],[],[],[],[],[],[],,315.3285,315.3286,-0.082307535,-0.38101452,0,0,0,,0,49,49,114,1,2,word,LOCATE,print,locate_p.png,,,,,,
,,,,31962,001,2025-10-19_21h11.09.786,HW_LDT_1,2024.2.4,MacIntel,59.88023952,,,,,,,,,,,,,,,,,,,,,,315.3299,315.5282,315.5282,316.0281,,,,,,,,,,,,,,1.1481,1,,,,,,,,,,,,,,m,,,,,,,,,,,,,,,51,0,316.0286,317.1781,m,1,1.1481,,[],[],[],[],[],[],[],317.1783,319.178,319.178,319.1782,[],[],[],[],[],[],[],,319.1783,319.1784,-0.082307535,-0.38101452,0,0,0,,0,50,50,91,1,2,word,CARDINAL,cursive,cardinal_c.png,,,,,,
,,,,31962,001,2025-10-19_21h11.09.786,HW_LDT_1,2024.2.4,MacIntel,59.88023952,,,,,,,,,,,,,,,,,,,,,,319.1796,319.378,319.3781,319.878,,,,,,,,,,,,,,0.9057,1,,,,,,,,,,,,,,m,,,,,,,,,,,,,,,52,0,319.8786,320.7948,m,1,0.9057,,[],[],[],[],[],[],[],320.7949,322.7947,322.7948,322.7949,[],[],[],[],[],[],[],,322.795,322.7951,-0.082307535,-0.38101452,0,0,0,,0,51,51,110,1,2,word,HERITAGE,print,heritage_p.png,,,,,,
,,,,31962,001,2025-10-19_21h11.09.786,HW_LDT_1,2024.2.4,MacIntel,59.88023952,,,,,,,,,,,,,,,,,,,,,,322.7963,322.9947,322.9948,323.4947,,,,,,,,,,,,,,1.0444,1,,,,,,,,,,,,,,z,,,,,,,,,,,,,,,53,0,323.4953,324.5441,z,1,1.0444,,[],[],[],[],[],[],[],324.5442,326.5447,326.5448,326.545,[],[],[],[],[],[],[],,326.5451,326.5451,-0.082307535,-0.38101452,0,0,0,,0,52,52,44,1,2,TL,catipal,cursive,catipal_c.png,,,,,,
,,,,31962,001,2025-10-19_21h11.09.786,HW_LDT_1,2024.2.4,MacIntel,59.88023952,,,,,,,,,,,,,,,,,,,,,,326.5463,326.7447,326.7448,327.2447,,,,,,,,,,,,,,0.8628,1,,,,,,,,,,,,,,z,,,,,,,,,,,,,,,54,0,327.2453,328.1114,z,1,0.8628,,[],[],[],[],[],[],[],328.1115,330.1115,330.1115,330.1118,[],[],[],[],[],[],[],,330.1118,330.112,-0.082307535,-0.38101452,0,0,0,,0,53,53,2,1,2,RL,casagity,print,casagity_p.png,,,,,,
,,,,31962,001,2025-10-19_21h11.09.786,HW_LDT_1,2024.2.4,MacIntel,59.88023952,,,,,,,,,,,,,,,,,,,,,,330.113,330.3114,330.3114,330.8113,,,,,,,,,,,,,,3.6703,1,,,,,,,,,,,,,,z,,,,,,,,,,,,,,,55,0,330.8119,334.4947,z,1,3.6703,,[],[],[],[],[],[],[],334.4948,336.4947,336.4948,336.495,[],[],[],[],[],[],[],,336.4951,336.4952,-0.082307535,-0.38101452,0,0,0,,0,54,54,24,1,2,RL,rasibal,cursive,rasibal_c.png,,,,,,
,,,,31962,001,2025-10-19_21h11.09.786,HW_LDT_1,2024.2.4,MacIntel,59.88023952,,,,,,,,,,,,,,,,,,,,,,336.4964,336.694,336.694,337.1947,,,,,,,,,,,,,,1.3128,1,,,,,,,,,,,,,,z,,,,,,,,,,,,,,,56,0,337.1953,338.5114,z,1,1.3128,,[],[],[],[],[],[],[],338.5114,340.5113,340.5114,340.5116,[],[],[],[],[],[],[],,340.5117,340.5118,-0.082307535,-0.38101452,0,0,0,,0,55,55,32,1,2,RL,speniven,print,speniven_p.png,,,,,,
,,,,31962,001,2025-10-19_21h11.09.786,HW_LDT_1,2024.2.4,MacIntel,59.88023952,,,,,,,,,,,,,,,,,,,,,,340.5131,340.7114,340.7114,341.2113,,,,,,,,,,,,,,6.4824,0,,,,,,,,,,,,,,z,,,,,,,,,,,,,,,57,0,341.2119,347.6951,m,0,6.4824,,[],[],[],[],[],[],[],347.6952,349.6941,349.6941,349.6943,[],[],[],[],[],[],[],,349.6943,349.6944,-0.082307535,-0.38101452,0,0,0,,0,56,56,62,1,2,TL,opmital,cursive,opmital_c.png,,,,,,
,,,,31962,001,2025-10-19_21h11.09.786,HW_LDT_1,2024.2.4,MacIntel,59.88023952,,,,,,,,,,,,,,,,,,,,,,349.6958,349.8947,349.8947,350.3946,,,,,,,,,,,,,,1.2871,1,,,,,,,,,,,,,,z,,,,,,,,,,,,,,,58,0,350.3952,351.6948,z,1,1.2871,,[],[],[],[],[],[],[],351.6948,353.6946,353.6946,353.6948,[],[],[],[],[],[],[],,353.6949,353.6949,-0.082307535,-0.38101452,0,0,0,,0,57,57,31,1,2,RL,spetisic,print,spetisic_p.png,,,,,,
,,,,31962,001,2025-10-19_21h11.09.786,HW_LDT_1,2024.2.4,MacIntel,59.88023952,,,,,,,,,,,,,,,,,,,,,,353.6961,353.8946,353.8947,354.3946,,,,,,,,,,,,,,2.0072,1,,,,,,,,,,,,,,z,,,,,,,,,,,,,,,59,0,354.3951,356.4115,z,1,2.0072,,[],[],[],[],[],[],[],356.4115,358.4113,358.4114,358.4116,[],[],[],[],[],[],[],,358.4117,358.4118,-0.082307535,-0.38101452,0,0,0,,0,58,58,22,1,2,RL,posity,print,posity_p.png,,,,,,
,,,,31962,001,2025-10-19_21h11.09.786,HW_LDT_1,2024.2.4,MacIntel,59.88023952,,,,,,,,,,,,,,,,,,,,,,358.4131,358.6113,358.6114,359.1113,,,,,,,,,,,,,,1.9297,1,,,,,,,,,,,,,,z,,,,,,,,,,,,,,,60,0,359.1119,361.0446,z,1,1.9297,,[],[],[],[],[],[],[],361.0447,363.0447,363.0447,363.0449,[],[],[],[],[],[],[],,363.0449,363.045,-0.082307535,-0.38101452,0,0,0,,0,59,59,78,1,2,TL,stogare,print,stogare_p.png,,,,,,
,,,,31962,001,2025-10-19_21h11.09.786,HW_LDT_1,2024.2.4,MacIntel,59.88023952,,,,,,,,,,,,,,,,,,,,,,363.0463,363.2446,363.2447,363.7446,,,,,,,,,,,,,,0.8222,1,,,,,,,,,,,,,,m,,,,,,,,,,,,,,,61,0,363.7452,364.578,m,1,0.8222,,[],[],[],[],[],[],[],364.5781,366.5779,366.578,366.5782,[],[],[],[],[],[],[],,366.5782,366.5783,-0.082307535,-0.38101452,0,0,0,,0,60,60,101,1,2,word,DELICATE,print,delicate_p.png,,,,,,
,,,,31962,001,2025-10-19_21h11.09.786,HW_LDT_1,2024.2.4,MacIntel,59.88023952,,,,,,,,,,,,,,,,,,,,,,366.5795,366.778,366.778,367.2779,,,,,,,,,,,,,,0.7538,1,,,,,,,,,,,,,,m,,,,,,,,,,,,,,,62,1,367.2785,368.0447,m,1,0.7538,,[],[],[],[],[],[],[],368.0448,370.0447,370.0447,372.1114,[],[],[],[],[],[],[],m,372.1115,372.1116,-0.082307535,-0.38101452,0,0,0,,0,61,61,130,1,2,word,POLICY,print,policy_p.png,2.0543,,,,,
,,,,31962,001,2025-10-19_21h11.09.786,HW_LDT_1,2024.2.4,MacIntel,59.88023952,,,,,,,,,,,,,,,,,,,,,,372.1129,372.3112,372.3114,372.8113,,,,,,,,,,,,,,1.1938,1,,,,,,,,,,,,,,m,,,,,,,,,,,,,,,63,1,372.8119,374.0113,m,1,1.1938,,[],[],[],[],[],[],[],374.0114,376.0112,376.0113,377.0114,[],[],[],[],[],[],[],z,377.0114,377.0116,-0.082307535,-0.38101452,0,0,0,,0,62,62,94,1,2,word,CLINICAL,cursive,clinical_c.png,0.9885,,,,,
,,,,31962,001,2025-10-19_21h11.09.786,HW_LDT_1,2024.2.4,MacIntel,59.88023952,,,,,,,,,,,,,,,,,,,,,,377.0129,377.2107,377.2108,377.7112,,,,,,,,,,,,,,5.2485,1,,,,,,,,,,,,,,z,,,,,,,,,,,,,,,64,0,377.7118,382.9614,z,1,5.2485,,[],[],[],[],[],[],[],382.9615,384.9612,384.9613,384.9615,[],[],[],[],[],[],[],,384.9615,384.9616,-0.082307535,-0.38101452,0,0,0,,0,63,63,51,1,2,TL,etidor,cursive,etidor_c.png,,,,,,
,,,,31962,001,2025-10-19_21h11.09.786,HW_LDT_1,2024.2.4,MacIntel,59.88023952,,,,,,,,,,,,,,,,,,,,,,384.9628,385.1613,385.1613,385.6613,,,,,,,,,,,,,,4.2409,1,,,,,,,,,,,,,,m,,,,,,,,,,,,,,,65,1,385.6619,389.9113,m,1,4.2409,,[],[],[],[],[],[],[],389.9114,391.9114,391.9114,393.0279,[],[],[],[],[],[],[],z,393.028,393.0282,-0.082307535,-0.38101452,0,0,0,,0,64,64,121,1,2,word,MISTAKE,cursive,mistake_c.png,1.1067,,,,,
,,,,31962,001,2025-10-19_21h11.09.786,HW_LDT_1,2024.2.4,MacIntel,59.88023952,,,,,,,,,,,,,,,,,,,,,,393.0292,393.2279,393.2279,393.7279,,,,,,,,,,,,,,1.4319,1,,,,,,,,,,,,,,m,,,,,,,,,,,,,,,66,0,393.7284,395.1614,m,1,1.4319,,[],[],[],[],[],[],[],395.1614,397.1613,397.1613,397.1616,[],[],[],[],[],[],[],,397.1617,397.1618,-0.082307535,-0.38101452,0,0,0,,0,65,65,87,1,2,word,CAFETERIA,print,cafeteria_p.png,,,,,,
,,,,31962,001,2025-10-19_21h11.09.786,HW_LDT_1,2024.2.4,MacIntel,59.88023952,,,,,,,,,,,,,,,,,,,,,,397.1629,397.3613,397.3613,397.8612,,,,,,,,,,,,,,1.4065,1,,,,,,,,,,,,,,z,,,,,,,,,,,,,,,67,0,397.8618,399.2774,z,1,1.4065,,[],[],[],[],[],[],[],399.2775,401.278,401.278,401.2782,[],[],[],[],[],[],[],,401.2783,401.2784,-0.082307535,-0.38101452,0,0,0,,0,66,66,8,1,2,RL,desifate,print,desifate_p.png,,,,,,
,,,,31962,001,2025-10-19_21h11.09.786,HW_LDT_1,2024.2.4,MacIntel,59.88023952,,,,,,,,,,,,,,,,,,,,,,401.2797,401.4778,401.4779,401.9779,,,,,,,,,,,,,,3.1202,1,,,,,,,,,,,,,,z,,,,,,,,,,,,,,,68,0,401.9785,405.1113,z,1,3.1202,,[],[],[],[],[],[],[],405.1114,407.1113,407.1113,407.1114,[],[],[],[],[],[],[],,407.1116,407.1116,-0.082307535,-0.38101452,0,0,0,,0,67,67,5,1,2,RL,clisimal,cursive,clisimal_c.png,,,,,,
,,,,31962,001,2025-10-19_21h11.09.786,HW_LDT_1,2024.2.4,MacIntel,59.88023952,,,,,,,,,,,,,,,,,,,,,,407.1129,407.3113,407.3113,407.8113,,,,,,,,,,,,,,0.948,1,,,,,,,,,,,,,,z,,,,,,,,,,,,,,,69,0,407.8118,408.7613,z,1,0.948,,[],[],[],[],[],[],[],408.7616,410.7611,410.7612,410.7615,[],[],[],[],[],[],[],,410.7615,410.7616,-0.082307535,-0.38101452,0,0,0,,0,68,68,35,1,2,RL,vesofity,print,vesofity_p.png,,,,,,
,,,,31962,001,2025-10-19_21h11.09.786,HW_LDT_1,2024.2.4,MacIntel,59.88023952,,,,,,,,,,,,,,,,,,,,,,410.7628,410.9612,410.9612,411.4612,,,,,,,,,,,,,,1.5869,1,,,,,,,,,,,,,,m,,,,,,,,,,,,,,,70,0,411.4618,413.0613,m,1,1.5869,,[],[],[],[],[],[],[],413.0614,415.0612,415.0612,415.0615,[],[],[],[],[],[],[],,415.0615,415.0616,-0.082307535,-0.38101452,0,0,0,,0,69,69,132,1,2,word,PROPOSAL,cursive,proposal_c.png,,,,,,
,,,,31962,001,2025-10-19_21h11.09.786,HW_LDT_1,2024.2.4,MacIntel,59.88023952,,,,,,,,,,,,,,,,,,,,,,415.0628,415.2612,415.2612,415.7612,,,,,,,,,,,,,,2.0871,0,,,,,,,,,,,,,,m,,,,,,,,,,,,,,,71,1,415.7618,417.8614,z,0,2.0871,,[],[],[],[],[],[],[],417.8615,419.8612,419.8613,420.6946,[],[],[],[],[],[],[],z,420.6946,420.6949,-0.082307535,-0.38101452,0,0,0,,0,70,70,85,1,2,word,BENEFIT,cursive,benefit_c.png,0.8313,,,,,
,,,,31962,001,2025-10-19_21h11.09.786,HW_LDT_1,2024.2.4,MacIntel,59.88023952,,,,,,,,,,,,,,,,,,,,,,420.6957,420.8945,420.8945,421.3945,,,,,,,,,,,,,,2.3081,1,,,,,,,,,,,,,,z,,,,,,,,,,,,,,,72,0,421.395,423.7112,z,1,2.3081,,[],[],[],[],[],[],[],423.7113,425.7112,425.7113,425.7115,[],[],[],[],[],[],[],,425.7115,425.7116,-0.082307535,-0.38101452,0,0,0,,0,71,71,43,1,2,TL,carema,print,carema_p.png,,,,,,
,,,,31962,001,2025-10-19_21h11.09.786,HW_LDT_1,2024.2.4,MacIntel,59.88023952,,,,,,,,,,,,,,,,,,,,,,425.7128,425.9111,425.9112,426.4114,,,,,,,,,,,,,,0.9313,1,,,,,,,,,,,,,,m,,,,,,,,,,,,,,,73,0,426.412,427.3447,m,1,0.9313,,[],[],[],[],[],[],[],427.3448,429.3445,429.3446,429.3448,[],[],[],[],[],[],[],,429.3448,429.3449,-0.082307535,-0.38101452,0,0,0,,0,72,72,99,1,2,word,DEBATE,print,debate_p.png,,,,,,
,,,,31962,001,2025-10-19_21h11.09.786,HW_LDT_1,2024.2.4,MacIntel,59.88023952,,,,,,,,,,,,,,,,,,,,,,429.3462,429.5445,429.5445,430.0445,,,,,,,,,,,,,,0.8485,1,,,,,,,,,,,,,,m,,,,,,,,,,,,,,,74,0,430.0452,430.8946,m,1,0.8485,,[],[],[],[],[],[],[],430.8948,432.8945,432.8945,432.8947,[],[],[],[],[],[],[],,432.8947,432.8948,-0.082307535,-0.38101452,0,0,0,,0,73,73,136,1,2,word,RADICAL,cursive,radical_c.png,,,,,,
,,,,31962,001,2025-10-19_21h11.09.786,HW_LDT_1,2024.2.4,MacIntel,59.88023952,,,,,,,,,,,,,,,,,,,,,,432.896,433.0945,433.0946,433.5944,,,,,,,,,,,,,,1.6982,0,,,,,,,,,,,,,,m,,,,,,,,,,,,,,,75,0,433.5951,435.2946,z,0,1.6982,,[],[],[],[],[],[],[],435.2947,437.2945,437.2945,437.2947,[],[],[],[],[],[],[],,437.2948,437.2949,-0.082307535,-0.38101452,0,0,0,,0,74,74,97,1,2,word,COVERAGE,cursive,coverage_c.png,,,,,,
,,,,31962,001,2025-10-19_21h11.09.786,HW_LDT_1,2024.2.4,MacIntel,59.88023952,,,,,,,,,,,,,,,,,,,,,,437.2961,437.4946,437.4947,437.9944,,,,,,,,,,,,,,1.263,1,,,,,,,,,,,,,,z,,,,,,,,,,,,,,,76,0,437.9949,439.2612,z,1,1.263,,[],[],[],[],[],[],[],439.2612,441.2612,441.2612,441.2614,[],[],[],[],[],[],[],,441.2615,441.2616,-0.082307535,-0.38101452,0,0,0,,0,75,75,70,1,2,TL,retalive,print,retalive_p.png,,,,,,
,,,,31962,001,2025-10-19_21h11.09.786,HW_LDT_1,2024.2.4,MacIntel,59.88023952,,,,,,,,,,,,,,,,,,,,,,441.2628,441.4612,441.4612,441.9611,,,,,,,,,,,,,,0.9082,1,,,,,,,,,,,,,,m,,,,,,,,,,,,,,,77,0,441.9617,442.8779,m,1,0.9082,,[],[],[],[],[],[],[],442.878,444.8779,444.8779,444.8781,[],[],[],[],[],[],[],,444.8782,444.8783,-0.082307535,-0.38101452,0,0,0,,0,76,76,154,1,2,word,STORAGE,print,storage_p.png,,,,,,
,,,,31962,001,2025-10-19_21h11.09.786,HW_LDT_1,2024.2.4,MacIntel,59.88023952,,,,,,,,,,,,,,,,,,,,,,444.8794,445.0778,445.0778,445.5778,,,,,,,,,,,,,,1.8488,0,,,,,,,,,,,,,,z,,,,,,,,,,,,,,,78,0,445.5783,447.428,m,0,1.8488,,[],[],[],[],[],[],[],447.428,449.4278,449.4279,449.4282,[],[],[],[],[],[],[],,449.4282,449.4283,-0.082307535,-0.38101452,0,0,0,,0,77,77,67,1,2,TL,quafily,cursive,quafily_c.png,,,,,,
,,,,31962,001,2025-10-19_21h11.09.786,HW_LDT_1,2024.2.4,MacIntel,59.88023952,,,,,,,,,,,,,,,,,,,,,,449.4295,449.6272,449.6273,450.1279,,,,,,,,,,,,,,1.0203,1,,,,,,,,,,,,,,z,,,,,,,,,,,,,,,79,0,450.1284,451.1611,z,1,1.0203,,[],[],[],[],[],[],[],451.1613,453.1612,453.1612,453.1615,[],[],[],[],[],[],[],,453.1615,453.1617,-0.082307535,-0.38101452,0,0,0,,0,78,78,75,1,2,TL,ronamtic,print,ronamtic_p.png,,,,,,
,,,,31962,001,2025-10-19_21h11.09.786,HW_LDT_1,2024.2.4,MacIntel,59.88023952,,,,,,,,,,,,,,,,,,,,,,453.1629,453.3607,453.3607,453.8611,,,,,,,,,,,,,,1.5058,1,,,,,,,,,,,,,,m,,,,,,,,,,,,,,,80,0,453.8616,455.3781,m,1,1.5058,,[],[],[],[],[],[],[],455.3782,457.3778,457.3778,457.378,[],[],[],[],[],[],[],,457.3781,463.2448,-0.082307535,-0.38101452,0,0,0,space,0,79,79,119,1,2,word,MEMORY,cursive,memory_c.png,,,5.8386,,,
,,,,31962,001,2025-10-19_21h11.09.786,HW_LDT_1,2024.2.4,MacIntel,59.88023952,,,,,,,,,,,,,,,,,,,,,,463.2461,463.4444,463.4444,463.9445,,,,,,,,,,,,,,2.6988,1,,,,,,,,,,,,,,z,,,,,,,,,,,,,,,81,0,463.945,466.6448,z,1,2.6988,,[],[],[],[],[],[],[],466.645,468.6444,468.6445,468.6447,[],[],[],[],[],[],[],,468.6448,468.6449,-0.082307535,-0.38101452,0,0,0,,0,80,80,66,1,2,TL,prodive,cursive,prodive_c.png,,,,,,
,,,,31962,001,2025-10-19_21h11.09.786,HW_LDT_1,2024.2.4,MacIntel,59.88023952,,,,,,,,,,,,,,,,,,,,,,468.6461,468.8444,468.8444,469.3444,,,,,,,,,,,,,,1.0988,0,,,,,,,,,,,,,,m,,,,,,,,,,,,,,,82,1,469.345,470.4445,z,0,1.0988,,[],[],[],[],[],[],[],470.4445,472.4445,472.4445,473.3113,[],[],[],[],[],[],[],z,473.3114,473.3115,-0.082307535,-0.38101452,0,0,0,,0,81,81,120,1,2,word,MILITARY,cursive,military_c.png,0.8662,,,,,
,,,,31962,001,2025-10-19_21h11.09.786,HW_LDT_1,2024.2.4,MacIntel,59.88023952,,,,,,,,,,,,,,,,,,,,,,473.3128,473.5111,473.5113,474.0106,,,,,,,,,,,,,,1.4708,1,,,,,,,,,,,,,,z,,,,,,,,,,,,,,,83,0,474.0112,475.4945,z,1,1.4708,,[],[],[],[],[],[],[],475.4946,477.4943,477.4945,477.4946,[],[],[],[],[],[],[],,477.4947,477.4948,-0.082307535,-0.38101452,0,0,0,,0,82,82,26,1,2,RL,retupar,cursive,retupar_c.png,,,,,,
,,,,31962,001,2025-10-19_21h11.09.786,HW_LDT_1,2024.2.4,MacIntel,59.88023952,,,,,,,,,,,,,,,,,,,,,,477.496,477.6945,477.6945,478.1944,,,,,,,,,,,,,,1.232,1,,,,,,,,,,,,,,m,,,,,,,,,,,,,,,84,0,478.195,479.4278,m,1,1.232,,[],[],[],[],[],[],[],479.4279,481.4277,481.4277,481.4279,[],[],[],[],[],[],[],,481.428,481.4281,-0.082307535,-0.38101452,0,0,0,,0,83,83,81,1,2,word,ADVISORY,print,advisory_p.png,,,,,,
,,,,31962,001,2025-10-19_21h11.09.786,HW_LDT_1,2024.2.4,MacIntel,59.88023952,,,,,,,,,,,,,,,,,,,,,,481.4293,481.6277,481.6278,482.1277,,,,,,,,,,,,,,1.7375,1,,,,,,,,,,,,,,z,,,,,,,,,,,,,,,85,0,482.1282,483.8778,z,1,1.7375,,[],[],[],[],[],[],[],483.8779,485.8777,485.8778,485.8781,[],[],[],[],[],[],[],,485.8781,485.8782,-0.082307535,-0.38101452,0,0,0,,0,84,84,34,1,2,RL,trilude,cursive,trilude_c.png,,,,,,
,,,,31962,001,2025-10-19_21h11.09.786,HW_LDT_1,2024.2.4,MacIntel,59.88023952,,,,,,,,,,,,,,,,,,,,,,485.8794,486.0776,486.0777,486.5776,,,,,,,,,,,,,,1.3538,1,,,,,,,,,,,,,,z,,,,,,,,,,,,,,,86,0,486.5782,487.9438,z,1,1.3538,,[],[],[],[],[],[],[],487.9439,489.9443,489.9444,489.9446,[],[],[],[],[],[],[],,489.9446,489.9448,-0.082307535,-0.38101452,0,0,0,,0,85,85,58,1,2,TL,mitilary,cursive,mitilary_c.png,,,,,,
,,,,31962,001,2025-10-19_21h11.09.786,HW_LDT_1,2024.2.4,MacIntel,59.88023952,,,,,,,,,,,,,,,,,,,,,,489.946,490.1444,490.1444,490.6443,,,,,,,,,,,,,,1.1146,1,,,,,,,,,,,,,,m,,,,,,,,,,,,,,,87,0,490.645,491.7613,m,1,1.1146,,[],[],[],[],[],[],[],491.7614,493.7611,493.7612,493.7614,[],[],[],[],[],[],[],,493.7615,493.7616,-0.082307535,-0.38101452,0,0,0,,0,86,86,158,1,2,word,VELOCITY,print,velocity_p.png,,,,,,
,,,,31962,001,2025-10-19_21h11.09.786,HW_LDT_1,2024.2.4,MacIntel,59.88023952,,,,,,,,,,,,,,,,,,,,,,493.7628,493.961,493.961,494.461,,,,,,,,,,,,,,2.1051,0,,,,,,,,,,,,,,m,,,,,,,,,,,,,,,88,0,494.4615,496.5778,z,0,2.1051,,[],[],[],[],[],[],[],496.5779,498.5778,498.5778,498.578,[],[],[],[],[],[],[],,498.5781,498.5782,-0.082307535,-0.38101452,0,0,0,,0,87,87,106,1,2,word,ELABORATE,cursive,elaborate_c.png,,,,,,
,,,,31962,001,2025-10-19_21h11.09.786,HW_LDT_1,2024.2.4,MacIntel,59.88023952,,,,,,,,,,,,,,,,,,,,,,498.5794,498.7777,498.7778,499.2777,,,,,,,,,,,,,,0.7031,1,,,,,,,,,,,,,,m,,,,,,,,,,,,,,,89,0,499.2783,499.9945,m,1,0.7031,,[],[],[],[],[],[],[],499.9946,501.9938,501.9939,501.9942,[],[],[],[],[],[],[],,501.9942,501.9943,-0.082307535,-0.38101452,0,0,0,,0,88,88,88,1,2,word,CAMERA,print,camera_p.png,,,,,,
,,,,31962,001,2025-10-19_21h11.09.786,HW_LDT_1,2024.2.4,MacIntel,59.88023952,,,,,,,,,,,,,,,,,,,,,,501.9955,502.1944,502.1944,502.6943,,,,,,,,,,,,,,0.525,1,,,,,,,,,,,,,,m,,,,,,,,,,,,,,,90,0,502.6948,503.2277,m,1,0.525,,[],[],[],[],[],[],[],503.2279,505.2276,505.2278,505.228,[],[],[],[],[],[],[],,505.228,505.2281,-0.082307535,-0.38101452,0,0,0,,0,89,89,122,1,2,word,MOBILE,print,mobile_p.png,,,,,,
,,,,31962,001,2025-10-19_21h11.09.786,HW_LDT_1,2024.2.4,MacIntel,59.88023952,,,,,,,,,,,,,,,,,,,,,,505.2293,505.4277,505.4278,505.9271,,,,,,,,,,,,,,0.9318,1,,,,,,,,,,,,,,z,,,,,,,,,,,,,,,91,0,505.9277,506.8613,z,1,0.9318,,[],[],[],[],[],[],[],506.8613,508.8611,508.8611,508.8613,[],[],[],[],[],[],[],,508.8613,508.8614,-0.082307535,-0.38101452,0,0,0,,0,90,90,4,1,2,RL,cenesony,print,cenesony_p.png,,,,,,
,,,,31962,001,2025-10-19_21h11.09.786,HW_LDT_1,2024.2.4,MacIntel,59.88023952,,,,,,,,,,,,,,,,,,,,,,508.8626,509.061,509.061,509.5611,,,,,,,,,,,,,,0.7147,1,,,,,,,,,,,,,,m,,,,,,,,,,,,,,,92,0,509.5616,510.2778,m,1,0.7147,,[],[],[],[],[],[],[],510.2779,512.2773,512.2775,512.2777,[],[],[],[],[],[],[],,512.2777,512.2778,-0.082307535,-0.38101452,0,0,0,,0,91,91,128,1,2,word,PACIFIC,print,pacific_p.png,,,,,,
,,,,31962,001,2025-10-19_21h11.09.786,HW_LDT_1,2024.2.4,MacIntel,59.88023952,,,,,,,,,,,,,,,,,,,,,,512.279,512.4769,512.4769,512.9777,,,,,,,,,,,,,,2.02,1,,,,,,,,,,,,,,z,,,,,,,,,,,,,,,93,0,512.9782,515.0111,z,1,2.02,,[],[],[],[],[],[],[],515.0113,517.0109,517.0111,517.0113,[],[],[],[],[],[],[],,517.0114,517.0114,-0.082307535,-0.38101452,0,0,0,,0,92,92,7,1,2,RL,cocewage,cursive,cocewage_c.png,,,,,,
,,,,31962,001,2025-10-19_21h11.09.786,HW_LDT_1,2024.2.4,MacIntel,59.88023952,,,,,,,,,,,,,,,,,,,,,,517.0127,517.211,517.211,517.711,,,,,,,,,,,,,,3.0315,0,,,,,,,,,,,,,,m,,,,,,,,,,,,,,,94,0,517.7115,520.7444,z,0,3.0315,,[],[],[],[],[],[],[],520.7444,522.7443,522.7443,522.7445,[],[],[],[],[],[],[],,522.7446,522.7447,-0.082307535,-0.38101452,0,0,0,,0,93,93,123,1,2,word,MODERATE,cursive,moderate_c.png,,,,,,
,,,,31962,001,2025-10-19_21h11.09.786,HW_LDT_1,2024.2.4,MacIntel,59.88023952,,,,,,,,,,,,,,,,,,,,,,522.7459,522.9444,522.9444,523.4443,,,,,,,,,,,,,,1.187,1,,,,,,,,,,,,,,z,,,,,,,,,,,,,,,95,0,523.4449,524.6444,z,1,1.187,,[],[],[],[],[],[],[],524.6445,526.6443,526.6444,526.6446,[],[],[],[],[],[],[],,526.6447,526.6447,-0.082307535,-0.38101452,0,0,0,,0,94,94,72,1,2,TL,revomal,print,revomal_p.png,,,,,,
,,,,31962,001,2025-10-19_21h11.09.786,HW_LDT_1,2024.2.4,MacIntel,59.88023952,,,,,,,,,,,,,,,,,,,,,,526.646,526.8444,526.8444,527.3442,,,,,,,,,,,,,,0.8636,0,,,,,,,,,,,,,,m,,,,,,,,,,,,,,,96,0,527.3449,528.2109,z,0,0.8636,,[],[],[],[],[],[],[],528.211,530.211,530.211,530.2113,[],[],[],[],[],[],[],,530.2113,530.2114,-0.082307535,-0.38101452,0,0,0,,0,95,95,159,1,2,word,VETERAN,print,veteran_p.png,,,,,,
,,,,31962,001,2025-10-19_21h11.09.786,HW_LDT_1,2024.2.4,MacIntel,59.88023952,,,,,,,,,,,,,,,,,,,,,,530.2126,530.411,530.411,530.9109,,,,,,,,,,,,,,1.1061,1,,,,,,,,,,,,,,z,,,,,,,,,,,,,,,97,0,530.9115,532.0277,z,1,1.1061,,[],[],[],[],[],[],[],532.0279,534.0276,534.0277,534.0279,[],[],[],[],[],[],[],,534.0279,534.028,-0.082307535,-0.38101452,0,0,0,,0,96,96,10,1,2,RL,disluge,cursive,disluge_c.png,,,,,,
,,,,31962,001,2025-10-19_21h11.09.786,HW_LDT_1,2024.2.4,MacIntel,59.88023952,,,,,,,,,,,,,,,,,,,,,,534.0293,534.2276,534.2277,534.7276,,,,,,,,,,,,,,2.2454,1,,,,,,,,,,,,,,z,,,,,,,,,,,,,,,98,0,534.7282,536.9777,z,1,2.2454,,[],[],[],[],[],[],[],536.9777,538.9776,538.9777,538.978,[],[],[],[],[],[],[],,538.978,538.9782,-0.082307535,-0.38101452,0,0,0,,0,97,97,52,1,2,TL,elarobate,cursive,elarobate_c.png,,,,,,
,,,,31962,001,2025-10-19_21h11.09.786,HW_LDT_1,2024.2.4,MacIntel,59.88023952,,,,,,,,,,,,,,,,,,,,,,538.9793,539.1777,539.1777,539.6776,,,,,,,,,,,,,,1.2152,1,,,,,,,,,,,,,,z,,,,,,,,,,,,,,,99,1,539.6782,540.8944,z,1,1.2152,,[],[],[],[],[],[],[],540.8945,542.8943,542.8944,543.8443,[],[],[],[],[],[],[],z,543.8444,543.8446,-0.082307535,-0.38101452,0,0,0,,0,98,98,23,1,2,RL,procogal,cursive,procogal_c.png,0.9492,,,,,
,,,,31962,001,2025-10-19_21h11.09.786,HW_LDT_1,2024.2.4,MacIntel,59.88023952,,,,,,,,,,,,,,,,,,,,,,543.8457,544.0442,544.0443,544.5442,,,,,,,,,,,,,,0.6565,1,,,,,,,,,,,,,,m,,,,,,,,,,,,,,,100,0,544.5448,545.211,m,1,0.6565,,[],[],[],[],[],[],[],545.2111,547.211,547.211,547.2113,[],[],[],[],[],[],[],,547.2114,547.2115,-0.082307535,-0.38101452,0,0,0,,0,99,99,143,1,2,word,REMOVAL,print,removal_p.png,,,,,,
,,,,31962,001,2025-10-19_21h11.09.786,HW_LDT_1,2024.2.4,MacIntel,59.88023952,,,,,,,,,,,,,,,,,,,,,,547.2126,547.4109,547.411,547.911,,,,,,,,,,,,,,2.6704,1,,,,,,,,,,,,,,z,,,,,,,,,,,,,,,101,1,547.9116,550.5943,z,1,2.6704,,[],[],[],[],[],[],[],550.5944,552.5943,552.5944,553.4944,[],[],[],[],[],[],[],z,553.4944,553.4946,-0.082307535,-0.38101452,0,0,0,,0,100,100,57,1,2,TL,meromy,cursive,meromy_c.png,0.8875,,,,,
,,,,31962,001,2025-10-19_21h11.09.786,HW_LDT_1,2024.2.4,MacIntel,59.88023952,,,,,,,,,,,,,,,,,,,,,,553.496,553.6943,553.6943,554.1943,,,,,,,,,,,,,,0.8649,1,,,,,,,,,,,,,,m,,,,,,,,,,,,,,,102,0,554.195,555.061,m,1,0.8649,,[],[],[],[],[],[],[],555.0611,557.0609,557.0609,557.0612,[],[],[],[],[],[],[],,557.0612,557.0613,-0.082307535,-0.38101452,0,0,0,,0,101,101,149,1,2,word,SENATOR,print,senator_p.png,,,,,,
,,,,31962,001,2025-10-19_21h11.09.786,HW_LDT_1,2024.2.4,MacIntel,59.88023952,,,,,,,,,,,,,,,,,,,,,,557.0625,557.2609,557.2609,557.7609,,,,,,,,,,,,,,3.8983,1,,,,,,,,,,,,,,m,,,,,,,,,,,,,,,103,0,557.7615,561.6611,m,1,3.8983,,[],[],[],[],[],[],[],561.6611,563.661,563.661,563.6612,[],[],[],[],[],[],[],,563.6612,563.6614,-0.082307535,-0.38101452,0,0,0,,0,102,102,131,1,2,word,POPULAR,cursive,popular_c.png,,,,,,
,,,,31962,001,2025-10-19_21h11.09.786,HW_LDT_1,2024.2.4,MacIntel,59.88023952,,,,,,,,,,,,,,,,,,,,,,563.6625,563.8609,563.8609,564.3609,,,,,,,,,,,,,,1.5036,1,,,,,,,,,,,,,,z,,,,,,,,,,,,,,,104,0,564.3614,565.8776,z,1,1.5036,,[],[],[],[],[],[],[],565.8777,567.8775,567.8776,567.8778,[],[],[],[],[],[],[],,567.8779,567.8779,-0.082307535,-0.38101452,0,0,0,,0,103,103,14,1,2,RL,insibate,cursive,insibate_c.png,,,,,,
,,,,31962,001,2025-10-19_21h11.09.786,HW_LDT_1,2024.2.4,MacIntel,59.88023952,,,,,,,,,,,,,,,,,,,,,,567.8791,568.0775,568.0776,568.5774,,,,,,,,,,,,,,1.3549,1,,,,,,,,,,,,,,m,,,,,,,,,,,,,,,105,0,568.578,569.9443,m,1,1.3549,,[],[],[],[],[],[],[],569.9444,571.9442,571.9443,571.9444,[],[],[],[],[],[],[],,571.9445,571.9446,-0.082307535,-0.38101452,0,0,0,,0,104,104,141,1,2,word,RELIGION,cursive,religion_c.png,,,,,,
,,,,31962,001,2025-10-19_21h11.09.786,HW_LDT_1,2024.2.4,MacIntel,59.88023952,,,,,,,,,,,,,,,,,,,,,,571.9457,572.1443,572.1444,572.6442,,,,,,,,,,,,,,1.5035,1,,,,,,,,,,,,,,z,,,,,,,,,,,,,,,106,0,572.6448,574.161,z,1,1.5035,,[],[],[],[],[],[],[],574.161,576.1609,576.161,576.1612,[],[],[],[],[],[],[],,576.1612,576.1613,-0.082307535,-0.38101452,0,0,0,,0,105,105,73,1,2,TL,redisent,print,redisent_p.png,,,,,,
,,,,31962,001,2025-10-19_21h11.09.786,HW_LDT_1,2024.2.4,MacIntel,59.88023952,,,,,,,,,,,,,,,,,,,,,,576.1624,576.3608,576.3609,576.8609,,,,,,,,,,,,,,0.8818,1,,,,,,,,,,,,,,m,,,,,,,,,,,,,,,107,0,576.8615,577.7443,m,1,0.8818,,[],[],[],[],[],[],[],577.7444,579.7441,579.7443,579.7444,[],[],[],[],[],[],[],,579.7445,579.7446,-0.082307535,-0.38101452,0,0,0,,0,106,106,127,1,2,word,ORIGINAL,print,original_p.png,,,,,,
,,,,31962,001,2025-10-19_21h11.09.786,HW_LDT_1,2024.2.4,MacIntel,59.88023952,,,,,,,,,,,,,,,,,,,,,,579.7458,579.9441,579.9442,580.4442,,,,,,,,,,,,,,0.9472,1,,,,,,,,,,,,,,z,,,,,,,,,,,,,,,108,0,580.4447,581.3942,z,1,0.9472,,[],[],[],[],[],[],[],581.3944,583.3942,583.3942,583.3944,[],[],[],[],[],[],[],,583.3945,583.3946,-0.082307535,-0.38101452,0,0,0,,0,107,107,55,1,2,TL,lotace,print,lotace_p.png,,,,,,
,,,,31962,001,2025-10-19_21h11.09.786,HW_LDT_1,2024.2.4,MacIntel,59.88023952,,,,,,,,,,,,,,,,,,,,,,583.3957,583.5941,583.5942,584.0942,,,,,,,,,,,,,,2.9374,0,,,,,,,,,,,,,,m,,,,,,,,,,,,,,,109,0,584.0948,587.0444,z,0,2.9374,,[],[],[],[],[],[],[],587.0445,589.0437,589.0438,589.044,[],[],[],[],[],[],[],,589.044,589.0442,-0.082307535,-0.38101452,0,0,0,,0,108,108,86,1,2,word,BESIDE,cursive,beside_c.png,,,,,,
,,,,31962,001,2025-10-19_21h11.09.786,HW_LDT_1,2024.2.4,MacIntel,59.88023952,,,,,,,,,,,,,,,,,,,,,,589.0455,589.2442,589.2443,589.7442,,,,,,,,,,,,,,1.0135,1,,,,,,,,,,,,,,z,,,,,,,,,,,,,,,110,0,589.7447,590.7608,z,1,1.0135,,[],[],[],[],[],[],[],590.7609,592.7599,592.7599,592.7601,[],[],[],[],[],[],[],,592.7602,592.7602,-0.082307535,-0.38101452,0,0,0,,0,109,109,15,1,2,RL,linedal,print,linedal_p.png,,,,,,
,,,,31962,001,2025-10-19_21h11.09.786,HW_LDT_1,2024.2.4,MacIntel,59.88023952,,,,,,,,,,,,,,,,,,,,,,592.7614,592.9599,592.9599,593.4599,,,,,,,,,,,,,,0.7868,1,,,,,,,,,,,,,,m,,,,,,,,,,,,,,,111,0,593.4605,594.2599,m,1,0.7868,,[],[],[],[],[],[],[],594.26,596.2608,596.2609,596.2611,[],[],[],[],[],[],[],,596.2612,596.2613,-0.082307535,-0.38101452,0,0,0,,0,110,110,115,1,2,word,LOGICAL,print,logical_p.png,,,,,,
,,,,31962,001,2025-10-19_21h11.09.786,HW_LDT_1,2024.2.4,MacIntel,59.88023952,,,,,,,,,,,,,,,,,,,,,,596.2625,596.4608,596.4608,596.9608,,,,,,,,,,,,,,3.7535,1,,,,,,,,,,,,,,m,,,,,,,,,,,,,,,112,0,596.9613,600.7271,m,1,3.7535,,[],[],[],[],[],[],[],600.7272,602.7276,602.7276,602.7278,[],[],[],[],[],[],[],,602.7278,602.7279,-0.082307535,-0.38101452,0,0,0,,0,111,111,117,1,2,word,MARINE,cursive,marine_c.png,,,,,,
,,,,31962,001,2025-10-19_21h11.09.786,HW_LDT_1,2024.2.4,MacIntel,59.88023952,,,,,,,,,,,,,,,,,,,,,,602.7291,602.9265,602.9265,603.4275,,,,,,,,,,,,,,1.0537,1,,,,,,,,,,,,,,m,,,,,,,,,,,,,,,113,0,603.428,604.494,m,1,1.0537,,[],[],[],[],[],[],[],604.4941,606.4931,606.4932,606.4935,[],[],[],[],[],[],[],,606.4935,606.4937,-0.082307535,-0.38101452,0,0,0,,0,112,112,100,1,2,word,DECADE,print,decade_p.png,,,,,,
,,,,31962,001,2025-10-19_21h11.09.786,HW_LDT_1,2024.2.4,MacIntel,59.88023952,,,,,,,,,,,,,,,,,,,,,,606.4948,606.6941,606.6941,607.1942,,,,,,,,,,,,,,1.9373,0,,,,,,,,,,,,,,m,,,,,,,,,,,,,,,114,0,607.1946,609.1443,z,0,1.9373,,[],[],[],[],[],[],[],609.1444,611.1442,611.1443,611.1444,[],[],[],[],[],[],[],,611.1445,611.1446,-0.082307535,-0.38101452,0,0,0,,0,113,113,125,1,2,word,OPERATOR,cursive,operator_c.png,,,,,,
,,,,31962,001,2025-10-19_21h11.09.786,HW_LDT_1,2024.2.4,MacIntel,59.88023952,,,,,,,,,,,,,,,,,,,,,,611.1458,611.3442,611.3442,611.8441,,,,,,,,,,,,,,0.737,1,,,,,,,,,,,,,,m,,,,,,,,,,,,,,,115,0,611.8446,612.5942,m,1,0.737,,[],[],[],[],[],[],[],612.5943,614.5931,614.5932,614.5934,[],[],[],[],[],[],[],,614.5934,614.5936,-0.082307535,-0.38101452,0,0,0,,0,114,114,153,1,2,word,STOLEN,print,stolen_p.png,,,,,,
,,,,31962,001,2025-10-19_21h11.09.786,HW_LDT_1,2024.2.4,MacIntel,59.88023952,,,,,,,,,,,,,,,,,,,,,,614.5948,614.7941,614.7941,615.2932,,,,,,,,,,,,,,5.0494,0,,,,,,,,,,,,,,m,,,,,,,,,,,,,,,116,0,615.2937,620.3442,z,0,5.0494,,[],[],[],[],[],[],[],620.3443,622.3437,622.3437,622.3439,[],[],[],[],[],[],[],,622.3439,622.3441,-0.082307535,-0.38101452,0,0,0,,0,115,115,138,1,2,word,REFUSAL,cursive,refusal_c.png,,,,,,
,,,,31962,001,2025-10-19_21h11.09.786,HW_LDT_1,2024.2.4,MacIntel,59.88023952,,,,,,,,,,,,,,,,,,,,,,622.3458,622.5441,622.5442,623.0441,,,,,,,,,,,,,,1.2371,1,,,,,,,,,,,,,,m,,,,,,,,,,,,,,,117,1,623.0446,624.2942,m,1,1.2371,,[],[],[],[],[],[],[],624.2943,626.2932,626.2932,627.1271,[],[],[],[],[],[],[],z,627.1272,627.1273,-0.082307535,-0.38101452,0,0,0,,0,116,116,145,1,2,word,RESUME,cursive,resume_c.png,0.8333,,,,,
,,,,31962,001,2025-10-19_21h11.09.786,HW_LDT_1,2024.2.4,MacIntel,59.88023952,,,,,,,,,,,,,,,,,,,,,,627.1283,627.3274,627.3274,627.8265,,,,,,,,,,,,,,4.4146,1,,,,,,,,,,,,,,z,,,,,,,,,,,,,,,118,0,627.8271,632.2441,z,1,4.4146,,[],[],[],[],[],[],[],632.2442,634.2441,634.2441,634.2443,[],[],[],[],[],[],[],,634.2444,634.2444,-0.082307535,-0.38101452,0,0,0,,0,117,117,56,1,2,TL,marnigal,cursive,marnigal_c.png,,,,,,
,,,,31962,001,2025-10-19_21h11.09.786,HW_LDT_1,2024.2.4,MacIntel,59.88023952,,,,,,,,,,,,,,,,,,,,,,634.2457,634.4441,634.4442,634.9441,,,,,,,,,,,,,,1.3884,0,,,,,,,,,,,,,,m,,,,,,,,,,,,,,,119,0,634.9447,636.3442,z,0,1.3884,,[],[],[],[],[],[],[],636.3443,638.3441,638.3441,638.3443,[],[],[],[],[],[],[],,638.3443,638.3445,-0.082307535,-0.38101452,0,0,0,,0,118,118,126,1,2,word,OPTIMAL,cursive,optimal_c.png,,,,,,
,,,,31962,001,2025-10-19_21h11.09.786,HW_LDT_1,2024.2.4,MacIntel,59.88023952,,,,,,,,,,,,,,,,,,,,,,638.3458,638.5434,638.5434,639.0432,,,,,,,,,,,,,,1.8371,1,,,,,,,,,,,,,,z,,,,,,,,,,,,,,,120,0,639.0437,640.8942,z,1,1.8371,,[],[],[],[],[],[],[],640.8943,642.894,642.8941,642.8944,[],[],[],[],[],[],[],,642.8944,642.8945,-0.082307535,-0.38101452,0,0,0,,0,119,119,40,1,2,TL,bevoled,cursive,bevoled_c.png,,,,,,
,,,,31962,001,2025-10-19_21h11.09.786,HW_LDT_1,2024.2.4,MacIntel,59.88023952,,,,,,,,,,,,,,,,,,,,,,642.8956,643.0932,643.0932,643.5932,,,,,,,,,,,,,,1.6891,0,,,,,,,,,,,,,,m,,,,,,,,,,,,,,,121,0,643.5938,645.2933,z,0,1.6891,,[],[],[],[],[],[],[],645.2933,647.2941,647.2941,647.2942,[],[],[],[],[],[],[],,647.2944,647.2944,-0.082307535,-0.38101452,0,0,0,,0,120,120,111,1,2,word,INDICATE,cursive,indicate_c.png,,,,,,
,,,,31962,001,2025-10-19_21h11.09.786,HW_LDT_1,2024.2.4,MacIntel,59.88023952,,,,,,,,,,,,,,,,,,,,,,647.2957,647.4942,647.4943,647.994,,,,,,,,,,,,,,2.1819,0,,,,,,,,,,,,,,z,,,,,,,,,,,,,,,122,0,647.9949,650.1778,m,0,2.1819,,[],[],[],[],[],[],[],650.178,652.1774,652.1774,652.1776,[],[],[],[],[],[],[],,652.1776,652.1778,-0.082307535,-0.38101452,0,0,0,,0,121,121,20,1,2,RL,onegator,cursive,onegator_c.png,,,,,,
,,,,31962,001,2025-10-19_21h11.09.786,HW_LDT_1,2024.2.4,MacIntel,59.88023952,,,,,,,,,,,,,,,,,,,,,,652.1791,652.3773,652.3774,652.8774,,,,,,,,,,,,,,1.7626,1,,,,,,,,,,,,,,z,,,,,,,,,,,,,,,123,1,652.878,654.6439,z,1,1.7626,,[],[],[],[],[],[],[],654.6439,656.6438,656.6439,658.1442,[],[],[],[],[],[],[],z,658.1443,658.1444,-0.082307535,-0.38101452,0,0,0,,0,122,122,37,1,2,TL,adacemy,cursive,adacemy_c.png,1.4913,,,,,
,,,,31962,001,2025-10-19_21h11.09.786,HW_LDT_1,2024.2.4,MacIntel,59.88023952,,,,,,,,,,,,,,,,,,,,,,658.1456,658.3441,658.3441,658.8441,,,,,,,,,,,,,,0.8026,1,,,,,,,,,,,,,,m,,,,,,,,,,,,,,,124,0,658.8446,659.6599,m,1,0.8026,,[],[],[],[],[],[],[],659.66,661.6598,661.6598,661.66,[],[],[],[],[],[],[],,661.6601,661.6602,-0.082307535,-0.38101452,0,0,0,,0,123,123,144,1,2,word,RESIDENT,print,resident_p.png,,,,,,
,,,,31962,001,2025-10-19_21h11.09.786,HW_LDT_1,2024.2.4,MacIntel,59.88023952,,,,,,,,,,,,,,,,,,,,,,661.6614,661.8601,661.8601,662.3607,,,,,,,,,,,,,,1.4369,1,,,,,,,,,,,,,,z,,,,,,,,,,,,,,,125,1,662.3613,663.8108,z,1,1.4369,,[],[],[],[],[],[],[],663.8109,665.8107,665.8108,666.5941,[],[],[],[],[],[],[],z,666.5943,666.5944,-0.082307535,-0.38101452,0,0,0,,0,124,124,76,1,2,TL,senmitent,cursive,senmitent_c.png,0.7744,,,,,
,,,,31962,001,2025-10-19_21h11.09.786,HW_LDT_1,2024.2.4,MacIntel,59.88023952,,,,,,,,,,,,,,,,,,,,,,666.5956,666.794,666.7941,667.294,,,,,,,,,,,,,,0.9985,1,,,,,,,,,,,,,,m,,,,,,,,,,,,,,,126,0,667.2946,668.2941,m,1,0.9985,,[],[],[],[],[],[],[],668.2942,670.294,670.2941,670.2942,[],[],[],[],[],[],[],,670.2944,670.2944,-0.082307535,-0.38101452,0,0,0,,0,125,125,157,1,2,word,VALIDITY,print,validity_p.png,,,,,,
,,,,31962,001,2025-10-19_21h11.09.786,HW_LDT_1,2024.2.4,MacIntel,59.88023952,,,,,,,,,,,,,,,,,,,,,,670.2956,670.4939,670.494,670.993,,,,,,,,,,,,,,0.8492,1,,,,,,,,,,,,,,z,,,,,,,,,,,,,,,127,0,670.9936,671.8441,z,1,0.8492,,[],[],[],[],[],[],[],671.8441,673.844,673.844,673.8442,[],[],[],[],[],[],[],,673.8443,673.8444,-0.082307535,-0.38101452,0,0,0,,0,126,126,36,1,2,RL,vecelan,print,vecelan_p.png,,,,,,
,,,,31962,001,2025-10-19_21h11.09.786,HW_LDT_1,2024.2.4,MacIntel,59.88023952,,,,,,,,,,,,,,,,,,,,,,673.8455,674.044,674.044,674.544,,,,,,,,,,,,,,1.3394,0,,,,,,,,,,,,,,m,,,,,,,,,,,,,,,128,0,674.5446,675.8937,z,0,1.3394,,[],[],[],[],[],[],[],675.8938,677.8941,677.8941,677.8943,[],[],[],[],[],[],[],,677.8944,677.8944,-0.082307535,-0.38101452,0,0,0,,0,127,127,113,1,2,word,LITERAL,cursive,literal_c.png,,,,,,
,,,,31962,001,2025-10-19_21h11.09.786,HW_LDT_1,2024.2.4,MacIntel,59.88023952,,,,,,,,,,,,,,,,,,,,,,677.8957,678.094,678.094,678.594,,,,,,,,,,,,,,0.8883,1,,,,,,,,,,,,,,z,,,,,,,,,,,,,,,129,1,678.5946,679.4941,z,1,0.8883,,[],[],[],[],[],[],[],679.4942,681.494,681.4941,682.1108,[],[],[],[],[],[],[],z,682.1108,682.1111,-0.082307535,-0.38101452,0,0,0,,0,128,128,41,1,2,TL,befenit,cursive,befenit_c.png,0.6046,,,,,
,,,,31962,001,2025-10-19_21h11.09.786,HW_LDT_1,2024.2.4,MacIntel,59.88023952,,,,,,,,,,,,,,,,,,,,,,682.1124,682.3107,682.3107,682.8107,,,,,,,,,,,,,,1.7126,1,,,,,,,,,,,,,,m,,,,,,,,,,,,,,,130,0,682.8112,684.5273,m,1,1.7126,,[],[],[],[],[],[],[],684.5274,686.5273,686.5274,686.5276,[],[],[],[],[],[],[],,686.5277,686.5277,-0.082307535,-0.38101452,0,0,0,,0,129,129,150,1,2,word,SENTIMENT,cursive,sentiment_c.png,,,,,,
,,,,31962,001,2025-10-19_21h11.09.786,HW_LDT_1,2024.2.4,MacIntel,59.88023952,,,,,,,,,,,,,,,,,,,,,,686.5289,686.7271,686.7271,687.2273,,,,,,,,,,,,,,1.6371,0,,,,,,,,,,,,,,m,,,,,,,,,,,,,,,131,1,687.2278,688.8769,z,0,1.6371,,[],[],[],[],[],[],[],688.877,690.8773,690.8773,691.5274,[],[],[],[],[],[],[],z,691.5275,691.5277,-0.082307535,-0.38101452,0,0,0,,0,130,130,133,1,2,word,PROVIDE,cursive,provide_c.png,0.6491,,,,,
,,,,31962,001,2025-10-19_21h11.09.786,HW_LDT_1,2024.2.4,MacIntel,59.88023952,,,,,,,,,,,,,,,,,,,,,,691.5288,691.7274,691.7274,692.2272,,,,,,,,,,,,,,2.2036,1,,,,,,,,,,,,,,z,,,,,,,,,,,,,,,132,0,692.2279,694.444,z,1,2.2036,,[],[],[],[],[],[],[],694.4441,696.4439,696.444,696.4442,[],[],[],[],[],[],[],,696.4442,696.4443,-0.082307535,-0.38101452,0,0,0,,0,131,131,1,1,2,RL,caleberia,print,caleberia_p.png,,,,,,
,,,,31962,001,2025-10-19_21h11.09.786,HW_LDT_1,2024.2.4,MacIntel,59.88023952,,,,,,,,,,,,,,,,,,,,,,696.4456,696.644,696.644,697.144,,,,,,,,,,,,,,0.8401,1,,,,,,,,,,,,,,m,,,,,,,,,,,,,,,133,0,697.1445,697.9941,m,1,0.8401,,[],[],[],[],[],[],[],697.9942,699.993,699.993,699.9933,[],[],[],[],[],[],[],,699.9934,699.9934,-0.082307535,-0.38101452,0,0,0,,0,132,132,129,1,2,word,PARENT,print,parent_p.png,,,,,,
,,,,31962,001,2025-10-19_21h11.09.786,HW_LDT_1,2024.2.4,MacIntel,59.88023952,,,,,,,,,,,,,,,,,,,,,,699.9946,700.194,700.194,700.6939,,,,,,,,,,,,,,0.8872,1,,,,,,,,,,,,,,z,,,,,,,,,,,,,,,134,0,700.6945,701.594,z,1,0.8872,,[],[],[],[],[],[],[],701.5941,703.5939,703.594,703.5942,[],[],[],[],[],[],[],,703.5942,703.5943,-0.082307535,-0.38101452,0,0,0,,0,133,133,25,1,2,RL,rabigly,print,rabigly_p.png,,,,,,
,,,,31962,001,2025-10-19_21h11.09.786,HW_LDT_1,2024.2.4,MacIntel,59.88023952,,,,,,,,,,,,,,,,,,,,,,703.5955,703.794,703.794,704.2939,,,,,,,,,,,,,,0.7869,1,,,,,,,,,,,,,,z,,,,,,,,,,,,,,,135,0,704.2945,705.0941,z,1,0.7869,,[],[],[],[],[],[],[],705.0942,707.0939,707.094,707.0942,[],[],[],[],[],[],[],,707.0943,707.0944,-0.082307535,-0.38101452,0,0,0,,0,134,134,12,1,2,RL,gralekul,cursive,gralekul_c.png,,,,,,
,,,,31962,001,2025-10-19_21h11.09.786,HW_LDT_1,2024.2.4,MacIntel,59.88023952,,,,,,,,,,,,,,,,,,,,,,707.0955,707.2939,707.294,707.794,,,,,,,,,,,,,,2.3647,0,,,,,,,,,,,,,,m,,,,,,,,,,,,,,,136,0,707.7945,710.1606,z,0,2.3647,,[],[],[],[],[],[],[],710.1607,712.1606,712.1607,712.1609,[],[],[],[],[],[],[],,712.1609,712.161,-0.082307535,-0.38101452,0,0,0,,0,135,135,90,1,2,word,CAPITAL,cursive,capital_c.png,,,,,,
,,,,31962,001,2025-10-19_21h11.09.786,HW_LDT_1,2024.2.4,MacIntel,59.88023952,,,,,,,,,,,,,,,,,,,,,,712.1623,712.3606,712.3606,712.8607,,,,,,,,,,,,,,1.1869,1,,,,,,,,,,,,,,z,,,,,,,,,,,,,,,137,1,712.8612,714.0602,z,1,1.1869,,[],[],[],[],[],[],[],714.0603,716.0605,716.0606,716.794,[],[],[],[],[],[],[],z,716.7941,716.7943,-0.082307535,-0.38101452,0,0,0,,0,136,136,0,1,2,RL,adnicory,print,adnicory_p.png,0.7212,,,,,
,,,,31962,001,2025-10-19_21h11.09.786,HW_LDT_1,2024.2.4,MacIntel,59.88023952,,,,,,,,,,,,,,,,,,,,,,716.7955,716.9939,716.994,717.4939,,,,,,,,,,,,,,1.8371,1,,,,,,,,,,,,,,z,,,,,,,,,,,,,,,138,0,717.4944,719.344,z,1,1.8371,,[],[],[],[],[],[],[],719.3441,721.3439,721.344,721.3442,[],[],[],[],[],[],[],,721.3442,721.3443,-0.082307535,-0.38101452,0,0,0,,0,137,137,54,1,2,TL,liretal,cursive,liretal_c.png,,,,,,
,,,,31962,001,2025-10-19_21h11.09.786,HW_LDT_1,2024.2.4,MacIntel,59.88023952,,,,,,,,,,,,,,,,,,,,,,721.3455,721.5438,721.544,722.0439,,,,,,,,,,,,,,1.3405,1,,,,,,,,,,,,,,z,,,,,,,,,,,,,,,139,0,722.0445,723.394,z,1,1.3405,,[],[],[],[],[],[],[],723.3942,725.394,725.394,725.3942,[],[],[],[],[],[],[],,725.3943,725.3944,-0.082307535,-0.38101452,0,0,0,,0,138,138,6,1,2,RL,conbicer,print,conbicer_p.png,,,,,,
,,,,31962,001,2025-10-19_21h11.09.786,HW_LDT_1,2024.2.4,MacIntel,59.88023952,,,,,,,,,,,,,,,,,,,,,,725.3956,725.5939,725.5939,726.0939,,,,,,,,,,,,,,0.8047,1,,,,,,,,,,,,,,m,,,,,,,,,,,,,,,140,1,726.0945,726.9107,m,1,0.8047,,[],[],[],[],[],[],[],726.9108,728.9106,728.9106,729.4939,[],[],[],[],[],[],[],m,729.4941,729.4942,-0.082307535,-0.38101452,0,0,0,,0,139,139,112,1,2,word,LIBERAL,print,liberal_p.png,0.5714,,,,,
,,,,31962,001,2025-10-19_21h11.09.786,HW_LDT_1,2024.2.4,MacIntel,59.88023952,,,,,,,,,,,,,,,,,,,,,,729.4954,729.6938,729.694,730.1938,,,,,,,,,,,,,,1.5981,1,,,,,,,,,,,,,,z,,,,,,,,,,,,,,,141,0,730.1945,731.794,z,1,1.5981,,[],[],[],[],[],[],[],731.7942,733.7938,733.7939,733.7941,[],[],[],[],[],[],[],,733.7943,733.7943,-0.082307535,-0.38101452,0,0,0,,0,140,140,63,1,2,TL,orinigal,print,orinigal_p.png,,,,,,
,,,,31962,001,2025-10-19_21h11.09.786,HW_LDT_1,2024.2.4,MacIntel,59.88023952,,,,,,,,,,,,,,,,,,,,,,733.7955,733.9938,733.9939,734.4939,,,,,,,,,,,,,,1.5295,1,,,,,,,,,,,,,,m,,,,,,,,,,,,,,,142,0,734.4944,736.0272,m,1,1.5295,,[],[],[],[],[],[],[],736.0273,738.0274,738.0274,738.0276,[],[],[],[],[],[],[],,738.0277,738.0278,-0.082307535,-0.38101452,0,0,0,,0,141,141,84,1,2,word,BELOVED,cursive,beloved_c.png,,,,,,
,,,,31962,001,2025-10-19_21h11.09.786,HW_LDT_1,2024.2.4,MacIntel,59.88023952,,,,,,,,,,,,,,,,,,,,,,738.029,738.2273,738.2273,738.7272,,,,,,,,,,,,,,0.8575,1,,,,,,,,,,,,,,z,,,,,,,,,,,,,,,143,0,738.7278,739.594,z,1,0.8575,,[],[],[],[],[],[],[],739.5941,741.5939,741.5939,741.5942,[],[],[],[],[],[],[],,741.5943,741.5943,-0.082307535,-0.38101452,0,0,0,,0,142,142,39,1,2,TL,aminal,print,aminal_p.png,,,,,,
,,,,31962,001,2025-10-19_21h11.09.786,HW_LDT_1,2024.2.4,MacIntel,59.88023952,,,,,,,,,,,,,,,,,,,,,,741.5955,741.7939,741.7939,742.2939,,,,,,,,,,,,,,0.873,1,,,,,,,,,,,,,,m,,,,,,,,,,,,,,,144,0,742.2945,743.1773,m,1,0.873,,[],[],[],[],[],[],[],743.1774,745.1773,745.1774,745.1776,[],[],[],[],[],[],[],,745.1776,745.1778,-0.082307535,-0.38101452,0,0,0,,0,143,143,92,1,2,word,CATEGORY,print,category_p.png,,,,,,
,,,,31962,001,2025-10-19_21h11.09.786,HW_LDT_1,2024.2.4,MacIntel,59.88023952,,,,,,,,,,,,,,,,,,,,,,745.179,745.3772,745.3772,745.8772,,,,,,,,,,,,,,0.8542,1,,,,,,,,,,,,,,z,,,,,,,,,,,,,,,145,0,745.8778,746.7438,z,1,0.8542,,[],[],[],[],[],[],[],746.7439,748.7438,748.7439,748.7441,[],[],[],[],[],[],[],,748.7442,748.7443,-0.082307535,-0.38101452,0,0,0,,0,144,144,49,1,2,TL,dedace,print,dedace_p.png,,,,,,
,,,,31962,001,2025-10-19_21h11.09.786,HW_LDT_1,2024.2.4,MacIntel,59.88023952,,,,,,,,,,,,,,,,,,,,,,748.7455,748.9438,748.9439,749.4438,,,,,,,,,,,,,,1.5079,1,,,,,,,,,,,,,,m,,,,,,,,,,,,,,,146,0,749.4444,750.9607,m,1,1.5079,,[],[],[],[],[],[],[],750.9608,752.9606,752.9607,752.9609,[],[],[],[],[],[],[],,752.9609,752.961,-0.082307535,-0.38101452,0,0,0,,0,145,145,155,1,2,word,STRATEGY,cursive,strategy_c.png,,,,,,
,,,,31962,001,2025-10-19_21h11.09.786,HW_LDT_1,2024.2.4,MacIntel,59.88023952,,,,,,,,,,,,,,,,,,,,,,752.9623,753.1605,753.1605,753.6605,,,,,,,,,,,,,,1.1482,1,,,,,,,,,,,,,,m,,,,,,,,,,,,,,,147,1,753.6612,754.8106,m,1,1.1482,,[],[],[],[],[],[],[],754.8107,756.8105,756.8105,757.894,[],[],[],[],[],[],[],z,757.894,757.8942,-0.082307535,-0.38101452,0,0,0,,0,146,146,135,1,2,word,QUALITY,cursive,quality_c.png,1.0712,,,,,
,,,,31962,001,2025-10-19_21h11.09.786,HW_LDT_1,2024.2.4,MacIntel,59.88023952,,,,,,,,,,,,,,,,,,,,,,757.8954,758.0938,758.0939,758.5938,,,,,,,,,,,,,,2.7571,1,,,,,,,,,,,,,,z,,,,,,,,,,,,,,,148,0,758.5944,761.3606,z,1,2.7571,,[],[],[],[],[],[],[],761.3607,763.3606,763.3606,763.3608,[],[],[],[],[],[],[],,763.3609,763.361,-0.082307535,-0.38101452,0,0,0,,0,147,147,74,1,2,TL,rerite,cursive,rerite_c.png,,,,,,
,,,,31962,001,2025-10-19_21h11.09.786,HW_LDT_1,2024.2.4,MacIntel,59.88023952,,,,,,,,,,,,,,,,,,,,,,763.3622,763.5605,763.5605,764.0606,,,,,,,,,,,,,,0.8373,1,,,,,,,,,,,,,,m,,,,,,,,,,,,,,,149,0,764.0611,764.9106,m,1,0.8373,,[],[],[],[],[],[],[],764.9107,766.9106,766.9106,766.9109,[],[],[],[],[],[],[],,766.9109,766.9111,-0.082307535,-0.38101452,0,0,0,,0,148,148,93,1,2,word,CEREMONY,print,ceremony_p.png,,,,,,
,,,,31962,001,2025-10-19_21h11.09.786,HW_LDT_1,2024.2.4,MacIntel,59.88023952,,,,,,,,,,,,,,,,,,,,,,766.9123,767.1105,767.1106,767.6105,,,,,,,,,,,,,,0.6459,1,,,,,,,,,,,,,,m,,,,,,,,,,,,,,,150,1,767.6111,768.2597,m,1,0.6459,,[],[],[],[],[],[],[],768.2597,770.2605,770.2606,771.1273,[],[],[],[],[],[],[],m,771.1273,771.1275,-0.082307535,-0.38101452,0,0,0,,0,149,149,140,1,2,word,RELATIVE,print,relative_p.png,0.8567,,,,,
,,,,31962,001,2025-10-19_21h11.09.786,HW_LDT_1,2024.2.4,MacIntel,59.88023952,,,,,,,,,,,,,,,,,,,,,,771.1286,771.3271,771.3272,771.8267,,,,,,,,,,,,,,0.8878,1,,,,,,,,,,,,,,m,,,,,,,,,,,,,,,151,0,771.8273,772.7273,m,1,0.8878,,[],[],[],[],[],[],[],772.7275,774.7273,774.7273,774.7275,[],[],[],[],[],[],[],,774.7275,774.7277,-0.082307535,-0.38101452,0,0,0,,0,150,150,104,1,2,word,DOMINANT,print,dominant_p.png,,,,,,
,,,,31962,001,2025-10-19_21h11.09.786,HW_LDT_1,2024.2.4,MacIntel,59.88023952,,,,,,,,,,,,,,,,,,,,,,774.7289,774.9271,774.9272,775.4272,,,,,,,,,,,,,,3.3368,1,,,,,,,,,,,,,,z,,,,,,,,,,,,,,,152,0,775.4278,778.7773,z,1,3.3368,,[],[],[],[],[],[],[],778.7774,780.7771,780.7772,780.7773,[],[],[],[],[],[],[],,780.7774,780.7776,-0.082307535,-0.38101452,0,0,0,,0,151,151,71,1,2,TL,retome,cursive,retome_c.png,,,,,,
,,,,31962,001,2025-10-19_21h11.09.786,HW_LDT_1,2024.2.4,MacIntel,59.88023952,,,,,,,,,,,,,,,,,,,,,,780.7788,780.9771,780.9772,781.4771,,,,,,,,,,,,,,1.099,1,,,,,,,,,,,,,,z,,,,,,,,,,,,,,,153,0,781.4777,782.5774,z,1,1.099,,[],[],[],[],[],[],[],782.5775,784.5772,784.5773,784.5775,[],[],[],[],[],[],[],,784.5776,784.5777,-0.082307535,-0.38101452,0,0,0,,0,152,152,18,1,2,RL,mesibine,print,mesibine_p.png,,,,,,
,,,,31962,001,2025-10-19_21h11.09.786,HW_LDT_1,2024.2.4,MacIntel,59.88023952,,,,,,,,,,,,,,,,,,,,,,784.5789,784.7771,784.7772,785.2773,,,,,,,,,,,,,,1.5874,1,,,,,,,,,,,,,,m,,,,,,,,,,,,,,,154,0,785.2779,786.8772,m,1,1.5874,,[],[],[],[],[],[],[],786.8773,788.8771,788.8771,788.8774,[],[],[],[],[],[],[],,788.8774,788.8775,-0.082307535,-0.38101452,0,0,0,,0,153,153,107,1,2,word,EVIDENT,cursive,evident_c.png,,,,,,
,,,,31962,001,2025-10-19_21h11.09.786,HW_LDT_1,2024.2.4,MacIntel,59.88023952,,,,,,,,,,,,,,,,,,,,,,788.8786,789.0771,789.0771,789.5772,,,,,,,,,,,,,,0.6739,1,,,,,,,,,,,,,,m,,,,,,,,,,,,,,,155,0,789.5777,790.2604,m,1,0.6739,,[],[],[],[],[],[],[],790.2606,792.2604,792.2605,792.2608,[],[],[],[],[],[],[],,792.2608,792.2609,-0.082307535,-0.38101452,0,0,0,,0,154,154,151,1,2,word,SPECIFIC,print,specific_p.png,,,,,,
,,,,31962,001,2025-10-19_21h11.09.786,HW_LDT_1,2024.2.4,MacIntel,59.88023952,,,,,,,,,,,,,,,,,,,,,,792.2621,792.4604,792.4604,792.9605,,,,,,,,,,,,,,0.8481,0,,,,,,,,,,,,,,m,,,,,,,,,,,,,,,156,1,792.9611,793.8105,z,0,0.8481,,[],[],[],[],[],[],[],793.8107,795.8105,795.8105,796.6096,[],[],[],[],[],[],[],z,796.6097,796.61,-0.082307535,-0.38101452,0,0,0,,0,155,155,148,1,2,word,SALINE,cursive,saline_c.png,0.7882,,,,,
,,,,31962,001,2025-10-19_21h11.09.786,HW_LDT_1,2024.2.4,MacIntel,59.88023952,,,,,,,,,,,,,,,,,,,,,,796.6111,796.8104,796.8104,797.3104,,,,,,,,,,,,,,2.6153,1,,,,,,,,,,,,,,m,,,,,,,,,,,,,,,157,1,797.311,799.9271,m,1,2.6153,,[],[],[],[],[],[],[],799.9272,801.9271,801.9272,803.5438,[],[],[],[],[],[],[],z,803.5439,803.5441,-0.082307535,-0.38101452,0,0,0,,0,156,156,139,1,2,word,REGULAR,cursive,regular_c.png,1.6046,,,,,
,,,,31962,001,2025-10-19_21h11.09.786,HW_LDT_1,2024.2.4,MacIntel,59.88023952,,,,,,,,,,,,,,,,,,,,,,803.5453,803.7438,803.7438,804.2437,,,,,,,,,,,,,,1.4704,0,,,,,,,,,,,,,,m,,,,,,,,,,,,,,,158,1,804.2443,805.7274,z,0,1.4704,,[],[],[],[],[],[],[],805.7275,807.727,807.7271,808.3105,[],[],[],[],[],[],[],z,808.3106,808.3107,-0.082307535,-0.38101452,0,0,0,,0,157,157,105,1,2,word,EDITOR,cursive,editor_c.png,0.5749,,,,,
,,,,31962,001,2025-10-19_21h11.09.786,HW_LDT_1,2024.2.4,MacIntel,59.88023952,,,,,,,,,,,,,,,,,,,,,,808.312,808.5103,808.5104,809.0104,,,,,,,,,,,,,,2.655,0,,,,,,,,,,,,,,z,,,,,,,,,,,,,,,159,0,809.011,811.6773,m,0,2.655,,[],[],[],[],[],[],[],811.6773,813.677,813.677,813.6773,[],[],[],[],[],[],[],,813.6774,813.6776,-0.082307535,-0.38101452,0,0,0,,0,158,158,53,1,2,TL,edivent,cursive,edivent_c.png,,,,,,
,,,,31962,001,2025-10-19_21h11.09.786,HW_LDT_1,2024.2.4,MacIntel,59.88023952,,,,,,,,,,,,,,,,,,,,,,813.6786,813.8771,813.8772,814.3771,,,,,,,,,,,,,,0.8706,1,,,,,,,,,,,,,,m,,,,,,,,,,,,,,,160,0,814.3778,815.2606,m,1,0.8706,,[],[],[],[],[],[],[],815.2607,817.2604,817.2604,817.2607,[],[],[],[],[],[],[],,817.2607,817.2609,-0.082307535,-0.38101452,0,0,0,,0,159,159,137,1,2,word,RAPIDLY,print,rapidly_p.png,,,,,,
,,,,31962,001,2025-10-19_21h11.09.786,HW_LDT_1,2024.2.4,MacIntel,59.88023952,,,,,,,,,,,,,,,,,,,,,,,,,,,,,,,,,,,,,,,,,,,,,,,,,,,,,,,,,,,,,,,,,,,,,,,,,,,,,,,,,,,,,,,,,,,,,,,,,,,,,,,,,,,,,,,,,,,,,,817.2708,822.2607
