counterbalance_lists.group,counterbalance_lists.remaining,get_list.started,get_list.stopped,participant,session,date,expName,psychopyVersion,OS,frameRate,Instructions.started,Instructions.stopped,key_resp.keys,instr_done_touch.x,instr_done_touch.y,instr_done_touch.leftButton,instr_done_touch.midButton,instr_done_touch.rightButton,instr_done_touch.clicked_name,start_instr.thisRepN,start_instr.thisTrialN,start_instr.thisN,start_instr.thisIndex,start_instr.ran,pageN,phase,instruct_text,has_image,instruct_image,showProgress.started,showProgress.stopped,fix.started,fix.stopped,prac.started,prac.stopped,response.keys,response.corr,response.rt,response.duration,touch_resp.x,touch_resp.y,touch_resp.leftButton,touch_resp.midButton,touch_resp.rightButton,touch_resp.time,touch_resp.clicked_name,rt,corr,feedback.started,feedback.stopped,trials.thisRepN,trials.thisTrialN,trials.thisN,trials.thisIndex,trials.ran,TrialID,StimulusType,Condition,PrimeDuration,Prime,Target,corrAns,Instructions_expt.started,Instructions_expt.stopped,key_resp_3.keys,instr_done_touch_3.x,instr_done_touch_3.y,instr_done_touch_3.leftButton,instr_done_touch_3.midButton,instr_done_touch_3.rightButton,instr_done_touch_3.clicked_name,instr_experiment.thisRepN,instr_experiment.thisTrialN,instr_experiment.thisN,instr_experiment.thisIndex,instr_experiment.ran,trialID,flag,maintask.started,maintask.stopped,key_resp_2.keys,key_resp_2.corr,key_resp_2.rt,key_resp_2.duration,targ_click.x,targ_click.y,targ_click.leftButton,targ_click.midButton,targ_click.rightButton,targ_click.time,targ_click.clicked_name,ITI.started,ITI.stopped,probe.started,probe.stopped,click_probe.x,click_probe.y,click_probe.leftButton,click_probe.midButton,click_probe.rightButton,click_probe.time,click_probe.clicked_name,key_resp_probe.keys,Break.started,Break.stopped,break_done_touch.x,break_done_touch.y,break_done_touch.leftButton,break_done_touch.midButton,break_done_touch.rightButton,break_done_keyboard.keys,list3_trials.thisRepN,list3_trials.thisTrialN,list3_trials.thisN,list3_trials.thisIndex,list3_trials.ran,list_id,item_type,string,font,stim_file,key_resp_probe.rt,key_resp_probe.duration,break_done_touch.clicked_name,End.started,End.stopped
list3,,0.4439,0.444,31963,001,2025-10-19_23h50.40.807,HW_LDT_1,2024.2.4,Win32,59.88023952,,,,,,,,,,,,,,,,,,,,,,,,,,,,,,,,,,,,,,,,,,,,,,,,,,,,,,,,,,,,,,,,,,,,,,,,,,,,,,,,,,,,,,,,,,,,,,,,,,,,,,,,,,,,,,,,,,,,
,,,,31963,001,2025-10-19_23h50.40.807,HW_LDT_1,2024.2.4,Win32,59.88023952,0.4555,25.1171,,0.122222265,-0.396296325,1,0,0,instr_done_button,0,0,0,0,1,1,instructions,"INSTRUCTIONS
At the start of each trial, look at the plus sign  (+) in the center of the screen.  This tells you that a trial is about to begin and where to look. Second, the plus sign will disappear and a string of letters will appear. Your task is to determine if the string of letters is a word or not. If the item is a word press the M key (on keyboard)  or touch the word button (phone/tablet).  If the item is not a word,  press the  Z key (on keyboard)  or touch the nonword button (on phone/tablet). The items will be presented for a short time. 
Press the space bar or touch  continue.",0,,,,,,,,,,,,,,,,,,,,,,,,,,,,,,,,,,,,,,,,,,,,,,,,,,,,,,,,,,,,,,,,,,,,,,,,,,,,,,,,,,,,,,,,,,,,,,,,,,
,,,,31963,001,2025-10-19_23h50.40.807,HW_LDT_1,2024.2.4,Win32,59.88023952,25.1183,30.8669,,0.016666695,-0.405555584,1,0,0,instr_done_button,0,1,1,1,1,2,instructions,"If your device has a keyboard, press the 'Z' key for nonwords and the 'M' key for words.





Press the space bar or touch the button below to continue.",0,keyboard-example.gif,,,,,,,,,,,,,,,,,,,,,,,,,,,,,,,,,,,,,,,,,,,,,,,,,,,,,,,,,,,,,,,,,,,,,,,,,,,,,,,,,,,,,,,,,,,,,,,,,
,,,,31963,001,2025-10-19_23h50.40.807,HW_LDT_1,2024.2.4,Win32,59.88023952,30.8679,32.7499,,0.025000042,-0.383333347,1,0,0,instr_done_button,0,2,2,2,1,3,instructions,"If you are using a touchscreen only device, use the buttons on the screen. Do not use the mouse.





Press the space bar or touch the button below to continue.",0,touchscreen-example.gif,,,,,,,,,,,,,,,,,,,,,,,,,,,,,,,,,,,,,,,,,,,,,,,,,,,,,,,,,,,,,,,,,,,,,,,,,,,,,,,,,,,,,,,,,,,,,,,,,
,,,,31963,001,2025-10-19_23h50.40.807,HW_LDT_1,2024.2.4,Win32,59.88023952,32.751,38.1662,,0.007407436,-0.404629672,1,0,0,instr_done_button,0,3,3,3,1,4,instructions,"It is very important that you respond as quickly and accurately as possible, as each letter string will only be on the screen for two seconds. If you do not respond within this time, the message 'Too slow!' will be displayed and the experiment will progress to the next letter string. The first 20 trials will be practice trials and you will receive feedback on your answers. 

Press the space bar or touch the button below to start the practice trials.",0,,,,,,,,,,,,,,,,,,,,,,,,,,,,,,,,,,,,,,,,,,,,,,,,,,,,,,,,,,,,,,,,,,,,,,,,,,,,,,,,,,,,,,,,,,,,,,,,,,
,,,,31963,001,2025-10-19_23h50.40.807,HW_LDT_1,2024.2.4,Win32,59.88023952,,,,,,,,,,,,,,,,,,,,38.1907,38.3665,38.3665,38.867,38.8673,40.1831,m,1,1.2839,,[],[],[],[],[],[],[],1.2839,1,40.1834,40.6834,0,0,0,3,1,1004,WORD,"ID",16,matrix,MATRIX,m,,,,,,,,,,,,,,,,,,,,,,,,,,,,,,,,,,,,,,,,,,,,,,,,,,,,,,,,,,,,,,,,
,,,,31963,001,2025-10-19_23h50.40.807,HW_LDT_1,2024.2.4,Win32,59.88023952,,,,,,,,,,,,,,,,,,,,40.6844,40.8834,40.8834,41.3833,41.3847,42.4831,m,1,1.071,,[],[],[],[],[],[],[],1.071,1,42.4832,42.9837,0,1,1,7,1,1008,WORD,UN,16,hurdle,VOLUME,m,,,,,,,,,,,,,,,,,,,,,,,,,,,,,,,,,,,,,,,,,,,,,,,,,,,,,,,,,,,,,,,,
,,,,31963,001,2025-10-19_23h50.40.807,HW_LDT_1,2024.2.4,Win32,59.88023952,,,,,,,,,,,,,,,,,,,,42.9848,43.1833,43.1833,43.6832,43.684,44.6167,m,1,0.9016,,[],[],[],[],[],[],[],0.9016,1,44.6168,45.1169,0,2,2,1,1,1002,WORD,"ID",33,adjust,ADJUST,m,,,,,,,,,,,,,,,,,,,,,,,,,,,,,,,,,,,,,,,,,,,,,,,,,,,,,,,,,,,,,,,,
,,,,31963,001,2025-10-19_23h50.40.807,HW_LDT_1,2024.2.4,Win32,59.88023952,,,,,,,,,,,,,,,,,,,,45.1182,45.316,45.3161,45.8162,45.817,46.7331,z,1,0.8837,,[],[],[],[],[],[],[],0.8837,1,46.7333,47.2328,0,3,3,12,1,1013,NW,UN,33,adveil,SPRINY,z,,,,,,,,,,,,,,,,,,,,,,,,,,,,,,,,,,,,,,,,,,,,,,,,,,,,,,,,,,,,,,,,
,,,,31963,001,2025-10-19_23h50.40.807,HW_LDT_1,2024.2.4,Win32,59.88023952,,,,,,,,,,,,,,,,,,,,47.2339,47.4336,47.4337,47.9325,47.9329,49.2833,z,1,1.3176,,[],[],[],[],[],[],[],1.3176,1,49.2834,49.783,0,4,4,9,1,1010,NW,"ID",33,fariny,FARINY,z,,,,,,,,,,,,,,,,,,,,,,,,,,,,,,,,,,,,,,,,,,,,,,,,,,,,,,,,,,,,,,,,
,,,,31963,001,2025-10-19_23h50.40.807,HW_LDT_1,2024.2.4,Win32,59.88023952,,,,,,,,,,,,,,,,,,,,49.7838,49.9825,49.9825,50.4833,50.4842,51.3492,m,1,0.8342,,[],[],[],[],[],[],[],0.8342,1,51.3493,51.8496,0,5,5,5,1,1006,WORD,UN,33,frenzy,OBTAIN,m,,,,,,,,,,,,,,,,,,,,,,,,,,,,,,,,,,,,,,,,,,,,,,,,,,,,,,,,,,,,,,,,
,,,,31963,001,2025-10-19_23h50.40.807,HW_LDT_1,2024.2.4,Win32,59.88023952,,,,,,,,,,,,,,,,,,,,51.8504,52.0499,52.0499,52.5498,52.5506,53.5325,z,1,0.9623,,[],[],[],[],[],[],[],0.9623,1,53.5325,54.033,0,6,6,10,1,1011,NW,"ID",16,inlade,INLADE,z,,,,,,,,,,,,,,,,,,,,,,,,,,,,,,,,,,,,,,,,,,,,,,,,,,,,,,,,,,,,,,,,
,,,,31963,001,2025-10-19_23h50.40.807,HW_LDT_1,2024.2.4,Win32,59.88023952,,,,,,,,,,,,,,,,,,,,54.034,54.2326,54.2326,54.7332,54.7338,55.5663,m,1,0.8012,,[],[],[],[],[],[],[],0.8012,1,55.5663,56.0663,0,7,7,6,1,1007,WORD,UN,16,tropic,ZOMBIE,m,,,,,,,,,,,,,,,,,,,,,,,,,,,,,,,,,,,,,,,,,,,,,,,,,,,,,,,,,,,,,,,,
,,,,31963,001,2025-10-19_23h50.40.807,HW_LDT_1,2024.2.4,Win32,59.88023952,,,,,,,,,,,,,,,,,,,,56.0672,56.2665,56.2665,56.7665,56.767,57.5489,z,1,0.7622,,[],[],[],[],[],[],[],0.7622,1,57.549,58.0494,0,8,8,13,1,1014,NW,UN,33,winfer,ROUPET,z,,,,,,,,,,,,,,,,,,,,,,,,,,,,,,,,,,,,,,,,,,,,,,,,,,,,,,,,,,,,,,,,
,,,,31963,001,2025-10-19_23h50.40.807,HW_LDT_1,2024.2.4,Win32,59.88023952,,,,,,,,,,,,,,,,,,,,58.0501,58.2488,58.2489,58.7497,58.7505,59.5822,m,1,0.8053,,[],[],[],[],[],[],[],0.8053,1,59.5822,60.0828,0,9,9,0,1,1001,WORD,"ID",33,utopia,UTOPIA,m,,,,,,,,,,,,,,,,,,,,,,,,,,,,,,,,,,,,,,,,,,,,,,,,,,,,,,,,,,,,,,,,
,,,,31963,001,2025-10-19_23h50.40.807,HW_LDT_1,2024.2.4,Win32,59.88023952,,,,,,,,,,,,,,,,,,,,60.0836,60.2829,60.2829,60.7829,60.784,61.5491,m,1,0.7341,,[],[],[],[],[],[],[],0.7341,1,61.5492,62.0499,0,10,10,4,1,1005,WORD,UN,33,abound,SQUEAK,m,,,,,,,,,,,,,,,,,,,,,,,,,,,,,,,,,,,,,,,,,,,,,,,,,,,,,,,,,,,,,,,,
,,,,31963,001,2025-10-19_23h50.40.807,HW_LDT_1,2024.2.4,Win32,59.88023952,,,,,,,,,,,,,,,,,,,,62.0505,62.2489,62.249,62.75,62.7508,63.4823,z,1,0.708,,[],[],[],[],[],[],[],0.708,1,63.4825,63.9826,0,11,11,8,1,1009,NW,"ID",33,aslert,ASLERT,z,,,,,,,,,,,,,,,,,,,,,,,,,,,,,,,,,,,,,,,,,,,,,,,,,,,,,,,,,,,,,,,,
,,,,31963,001,2025-10-19_23h50.40.807,HW_LDT_1,2024.2.4,Win32,59.88023952,,,,,,,,,,,,,,,,,,,,63.9834,64.1827,64.1828,64.6829,64.6839,65.4988,z,1,0.7959,,[],[],[],[],[],[],[],0.7959,1,65.4988,65.9993,0,12,12,14,1,1015,NW,UN,16,miaber,THRALE,z,,,,,,,,,,,,,,,,,,,,,,,,,,,,,,,,,,,,,,,,,,,,,,,,,,,,,,,,,,,,,,,,
,,,,31963,001,2025-10-19_23h50.40.807,HW_LDT_1,2024.2.4,Win32,59.88023952,,,,,,,,,,,,,,,,,,,,66.0003,66.199,66.199,66.6996,66.7002,67.6321,z,1,0.908,,[],[],[],[],[],[],[],0.908,1,67.6322,68.1325,0,13,13,11,1,1012,NW,"ID",16,rashet,RASHET,z,,,,,,,,,,,,,,,,,,,,,,,,,,,,,,,,,,,,,,,,,,,,,,,,,,,,,,,,,,,,,,,,
,,,,31963,001,2025-10-19_23h50.40.807,HW_LDT_1,2024.2.4,Win32,59.88023952,,,,,,,,,,,,,,,,,,,,68.1334,68.3325,68.3325,68.8321,68.8326,69.5656,z,1,0.7043,,[],[],[],[],[],[],[],0.7043,1,69.5656,70.066,0,14,14,15,1,1016,NW,UN,16,mushed,WHAISE,z,,,,,,,,,,,,,,,,,,,,,,,,,,,,,,,,,,,,,,,,,,,,,,,,,,,,,,,,,,,,,,,,
,,,,31963,001,2025-10-19_23h50.40.807,HW_LDT_1,2024.2.4,Win32,59.88023952,,,,,,,,,,,,,,,,,,,,70.0667,70.2655,70.2655,70.7654,70.7658,71.7821,m,1,0.9879,,[],[],[],[],[],[],[],0.9879,1,71.7822,72.2821,0,15,15,2,1,1003,WORD,"ID",16,almond,ALMOND,m,,,,,,,,,,,,,,,,,,,,,,,,,,,,,,,,,,,,,,,,,,,,,,,,,,,,,,,,,,,,,,,,
,,,,31963,001,2025-10-19_23h50.40.807,HW_LDT_1,2024.2.4,Win32,59.88023952,,,,,,,,,,,,,,,1,end_of_practice,"You have completed the practice trials. During the experimental trials, you will not receive feedback. On some trials you will be asked to report whether the item you just saw was in cursive or print. 
Before you begin, please ensure that you are in a comfortable and quiet location and will not be disturbed for about 15 minutes, as we cannot use your data if you do not complete all the trials. 
 When you are ready to start the experimental trials, please press space or touch the button below.",,,,,,,,,,,,,,,,,,,,,,,,,,,,,,,,,,,,72.2855,75.1987,,-0.000925912,-0.39444443,1,0,0,instr_done_button_3,0,0,0,0,1,,,,,,,,,,,,,,,,,,,,,,,,,,,,,,,,,,,,,,,,,,,,,,,,,,
,,,,31963,001,2025-10-19_23h50.40.807,HW_LDT_1,2024.2.4,Win32,59.88023952,,,,,,,,,,,,,,,,,,,,75.2069,75.3991,75.3991,75.8993,,,,,,,,,,,,,,1.2444,1,,,,,,,,,,,,,,z,,,,,,,,,,,,,,,1,0,75.8999,77.1487,z,1,1.2444,,[],[],[],[],[],[],[],77.1489,79.1492,79.1495,79.1509,[],[],[],[],[],[],[],,79.151,79.1529,-0.000925912,-0.39444443,0,0,0,,0,0,0,40,1,3,TL,condiser,print,condiser_p.png,,,,,
,,,,31963,001,2025-10-19_23h50.40.807,HW_LDT_1,2024.2.4,Win32,59.88023952,,,,,,,,,,,,,,,,,,,,79.1533,79.3484,79.3485,79.8488,,,,,,,,,,,,,,1.7414,1,,,,,,,,,,,,,,z,,,,,,,,,,,,,,,2,0,79.8493,81.5982,z,1,1.7414,,[],[],[],[],[],[],[],81.5983,83.5991,83.5991,83.5994,[],[],[],[],[],[],[],,83.5994,83.5996,-0.000925912,-0.39444443,0,0,0,,0,1,1,20,1,3,RL,orimipal,cursive,orimipal_c.png,,,,,
,,,,31963,001,2025-10-19_23h50.40.807,HW_LDT_1,2024.2.4,Win32,59.88023952,,,,,,,,,,,,,,,,,,,,83.6005,83.7991,83.7991,84.2992,,,,,,,,,,,,,,1.0475,1,,,,,,,,,,,,,,z,,,,,,,,,,,,,,,3,0,84.2999,85.3482,z,1,1.0475,,[],[],[],[],[],[],[],85.3483,87.3492,87.3493,87.3495,[],[],[],[],[],[],[],,87.3495,87.3496,-0.000925912,-0.39444443,0,0,0,,0,2,2,72,1,3,TL,senmitent,print,senmitent_p.png,,,,,
,,,,31963,001,2025-10-19_23h50.40.807,HW_LDT_1,2024.2.4,Win32,59.88023952,,,,,,,,,,,,,,,,,,,,87.3501,87.5486,87.5487,88.0489,,,,,,,,,,,,,,1.0523,1,,,,,,,,,,,,,,m,,,,,,,,,,,,,,,4,0,88.0495,89.1153,m,1,1.0523,,[],[],[],[],[],[],[],89.1155,91.1151,91.1151,91.1153,[],[],[],[],[],[],[],,91.1153,91.1153,-0.000925912,-0.39444443,0,0,0,,0,3,3,158,1,3,word,VELOCITY,cursive,velocity_c.png,,,,,
,,,,31963,001,2025-10-19_23h50.40.807,HW_LDT_1,2024.2.4,Win32,59.88023952,,,,,,,,,,,,,,,,,,,,91.116,91.3149,91.3149,91.8154,,,,,,,,,,,,,,1.7475,0,,,,,,,,,,,,,,m,,,,,,,,,,,,,,,5,0,91.8159,93.5646,z,0,1.7475,,[],[],[],[],[],[],[],93.5646,95.5652,95.5653,95.5656,[],[],[],[],[],[],[],,95.5656,95.5657,-0.000925912,-0.39444443,0,0,0,,0,4,4,114,1,3,word,LOCATE,cursive,locate_c.png,,,,,
,,,,31963,001,2025-10-19_23h50.40.807,HW_LDT_1,2024.2.4,Win32,59.88023952,,,,,,,,,,,,,,,,,,,,95.5664,95.7651,95.7653,96.2649,,,,,,,,,,,,,,0.8842,1,,,,,,,,,,,,,,z,,,,,,,,,,,,,,,6,0,96.2653,97.1647,z,1,0.8842,,[],[],[],[],[],[],[],97.1648,99.1652,99.1653,99.1657,[],[],[],[],[],[],[],,99.1657,99.1658,-0.000925912,-0.39444443,0,0,0,,0,5,5,35,1,3,TL,cateferia,print,cateferia_p.png,,,,,
,,,,31963,001,2025-10-19_23h50.40.807,HW_LDT_1,2024.2.4,Win32,59.88023952,,,,,,,,,,,,,,,,,,,,99.1664,99.3649,99.3649,99.865,,,,,,,,,,,,,,0.7834,1,,,,,,,,,,,,,,m,,,,,,,,,,,,,,,7,0,99.8654,100.6646,m,1,0.7834,,[],[],[],[],[],[],[],100.6648,102.6653,102.6654,102.6656,[],[],[],[],[],[],[],,102.6657,102.6658,-0.000925912,-0.39444443,0,0,0,,0,6,6,104,1,3,word,DOMINANT,print,dominant_p.png,,,,,
,,,,31963,001,2025-10-19_23h50.40.807,HW_LDT_1,2024.2.4,Win32,59.88023952,,,,,,,,,,,,,,,,,,,,102.6666,102.8648,102.8648,103.3644,,,,,,,,,,,,,,3.5368,1,,,,,,,,,,,,,,z,,,,,,,,,,,,,,,8,0,103.3648,106.915,z,1,3.5368,,[],[],[],[],[],[],[],106.9151,108.9146,108.9147,108.915,[],[],[],[],[],[],[],,108.915,108.9151,-0.000925912,-0.39444443,0,0,0,,0,7,7,31,1,3,RL,trilude,print,trilude_p.png,,,,,
,,,,31963,001,2025-10-19_23h50.40.807,HW_LDT_1,2024.2.4,Win32,59.88023952,,,,,,,,,,,,,,,,,,,,108.9158,109.1148,109.1148,109.6148,,,,,,,,,,,,,,0.8091,1,,,,,,,,,,,,,,m,,,,,,,,,,,,,,,9,0,109.6152,110.431,m,1,0.8091,,[],[],[],[],[],[],[],110.4311,112.4314,112.4314,112.4316,[],[],[],[],[],[],[],,112.4316,112.4318,-0.000925912,-0.39444443,0,0,0,,0,8,8,80,1,3,word,ACADEMY,print,academy_p.png,,,,,
,,,,31963,001,2025-10-19_23h50.40.807,HW_LDT_1,2024.2.4,Win32,59.88023952,,,,,,,,,,,,,,,,,,,,112.4324,112.6307,112.6308,113.1313,,,,,,,,,,,,,,0.8438,1,,,,,,,,,,,,,,m,,,,,,,,,,,,,,,10,0,113.1317,113.9807,m,1,0.8438,,[],[],[],[],[],[],[],113.9808,115.9814,115.9816,115.9817,[],[],[],[],[],[],[],,115.9818,115.9819,-0.000925912,-0.39444443,0,0,0,,0,9,9,113,1,3,word,LITERAL,print,literal_p.png,,,,,
,,,,31963,001,2025-10-19_23h50.40.807,HW_LDT_1,2024.2.4,Win32,59.88023952,,,,,,,,,,,,,,,,,,,,115.9827,116.1813,116.1813,116.6812,,,,,,,,,,,,,,1.3756,1,,,,,,,,,,,,,,z,,,,,,,,,,,,,,,11,0,116.6816,118.064,z,1,1.3756,,[],[],[],[],[],[],[],118.0641,120.0645,120.0646,120.0647,[],[],[],[],[],[],[],,120.0648,120.0649,-0.000925912,-0.39444443,0,0,0,,0,10,10,47,1,3,TL,elarobate,print,elarobate_p.png,,,,,
,,,,31963,001,2025-10-19_23h50.40.807,HW_LDT_1,2024.2.4,Win32,59.88023952,,,,,,,,,,,,,,,,,,,,120.0656,120.2639,120.264,120.7649,,,,,,,,,,,,,,0.8586,1,,,,,,,,,,,,,,m,,,,,,,,,,,,,,,12,1,120.7653,121.6305,m,1,0.8586,,[],[],[],[],[],[],[],121.6306,123.631,123.631,127.6304,[],[],[],[],[],[],[],m,127.6304,127.6305,-0.000925912,-0.39444443,0,0,0,,0,11,11,131,1,3,word,POPULAR,print,popular_p.png,3.99,,,,
,,,,31963,001,2025-10-19_23h50.40.807,HW_LDT_1,2024.2.4,Win32,59.88023952,,,,,,,,,,,,,,,,,,,,127.6313,127.8304,127.8304,128.3307,,,,,,,,,,,,,,1.5209,1,,,,,,,,,,,,,,z,,,,,,,,,,,,,,,13,0,128.3311,129.8644,z,1,1.5209,,[],[],[],[],[],[],[],129.8646,131.8641,131.8642,131.8643,[],[],[],[],[],[],[],,131.8643,131.8644,-0.000925912,-0.39444443,0,0,0,,0,12,12,70,1,3,TL,remuse,cursive,remuse_c.png,,,,,
,,,,31963,001,2025-10-19_23h50.40.807,HW_LDT_1,2024.2.4,Win32,59.88023952,,,,,,,,,,,,,,,,,,,,131.8652,132.0647,132.0647,132.5637,,,,,,,,,,,,,,0.9303,1,,,,,,,,,,,,,,m,,,,,,,,,,,,,,,14,0,132.5641,133.4968,m,1,0.9303,,[],[],[],[],[],[],[],133.4969,135.4972,135.4972,135.4973,[],[],[],[],[],[],[],,135.4973,135.4973,-0.000925912,-0.39444443,0,0,0,,0,13,13,85,1,3,word,BENEFIT,print,benefit_p.png,,,,,
,,,,31963,001,2025-10-19_23h50.40.807,HW_LDT_1,2024.2.4,Win32,59.88023952,,,,,,,,,,,,,,,,,,,,135.4979,135.6978,135.6978,136.1975,,,,,,,,,,,,,,1.3739,1,,,,,,,,,,,,,,m,,,,,,,,,,,,,,,15,1,136.1979,137.5802,m,1,1.3739,,[],[],[],[],[],[],[],137.5802,139.5808,139.5809,142.6799,[],[],[],[],[],[],[],z,142.68,142.6801,-0.000925912,-0.39444443,0,0,0,,0,14,14,89,1,3,word,CAPACITY,cursive,capacity_c.png,3.0967,,,,
,,,,31963,001,2025-10-19_23h50.40.807,HW_LDT_1,2024.2.4,Win32,59.88023952,,,,,,,,,,,,,,,,,,,,142.6807,142.8803,142.8803,143.3805,,,,,,,,,,,,,,1.6985,1,,,,,,,,,,,,,,z,,,,,,,,,,,,,,,16,0,143.381,145.0801,z,1,1.6985,,[],[],[],[],[],[],[],145.0801,147.0803,147.0804,147.0805,[],[],[],[],[],[],[],,147.0806,147.0806,-0.000925912,-0.39444443,0,0,0,,0,15,15,4,1,3,RL,cafigal,cursive,cafigal_c.png,,,,,
,,,,31963,001,2025-10-19_23h50.40.807,HW_LDT_1,2024.2.4,Win32,59.88023952,,,,,,,,,,,,,,,,,,,,147.0811,147.2807,147.2808,147.7804,,,,,,,,,,,,,,0.8887,1,,,,,,,,,,,,,,m,,,,,,,,,,,,,,,17,0,147.7808,148.6803,m,1,0.8887,,[],[],[],[],[],[],[],148.6804,150.6803,150.6803,150.6805,[],[],[],[],[],[],[],,150.6805,150.6808,-0.000925912,-0.39444443,0,0,0,,0,16,16,96,1,3,word,CONSIDER,print,consider_p.png,,,,,
,,,,31963,001,2025-10-19_23h50.40.807,HW_LDT_1,2024.2.4,Win32,59.88023952,,,,,,,,,,,,,,,,,,,,150.6816,150.8805,150.8805,151.3804,,,,,,,,,,,,,,0.973,1,,,,,,,,,,,,,,z,,,,,,,,,,,,,,,18,0,151.3806,152.3635,z,1,0.973,,[],[],[],[],[],[],[],152.3635,154.3637,154.3638,154.364,[],[],[],[],[],[],[],,154.364,154.3641,-0.000925912,-0.39444443,0,0,0,,0,17,17,25,1,3,RL,retupar,print,retupar_p.png,,,,,
,,,,31963,001,2025-10-19_23h50.40.807,HW_LDT_1,2024.2.4,Win32,59.88023952,,,,,,,,,,,,,,,,,,,,154.3648,154.5635,154.5635,155.0634,,,,,,,,,,,,,,1.0416,1,,,,,,,,,,,,,,z,,,,,,,,,,,,,,,19,1,155.0637,156.1129,z,1,1.0416,,[],[],[],[],[],[],[],156.1129,158.1136,158.1136,159.6128,[],[],[],[],[],[],[],m,159.6128,159.6131,-0.000925912,-0.39444443,0,0,0,,0,18,18,62,1,3,TL,prodive,print,prodive_p.png,1.4932,,,,
,,,,31963,001,2025-10-19_23h50.40.807,HW_LDT_1,2024.2.4,Win32,59.88023952,,,,,,,,,,,,,,,,,,,,159.6139,159.8136,159.8137,160.3137,,,,,,,,,,,,,,1.6841,0,,,,,,,,,,,,,,m,,,,,,,,,,,,,,,20,0,160.3141,162.0134,z,0,1.6841,,[],[],[],[],[],[],[],162.0135,164.0129,164.0129,164.013,[],[],[],[],[],[],[],,164.013,164.013,-0.000925912,-0.39444443,0,0,0,,0,19,19,108,1,3,word,FORTUNE,cursive,fortune_c.png,,,,,
,,,,31963,001,2025-10-19_23h50.40.807,HW_LDT_1,2024.2.4,Win32,59.88023952,,,,,,,,,,,,,,,,,,,,164.0137,164.2133,164.2133,164.713,,,,,,,,,,,,,,1.2855,1,,,,,,,,,,,,,,z,,,,,,,,,,,,,,,21,0,164.7134,166.0132,z,1,1.2855,,[],[],[],[],[],[],[],166.0132,168.013,168.013,168.0132,[],[],[],[],[],[],[],,168.0132,168.0134,-0.000925912,-0.39444443,0,0,0,,0,20,20,8,1,3,RL,cocewage,print,cocewage_p.png,,,,,
,,,,31963,001,2025-10-19_23h50.40.807,HW_LDT_1,2024.2.4,Win32,59.88023952,,,,,,,,,,,,,,,,,,,,168.0141,168.213,168.213,168.7132,,,,,,,,,,,,,,1.1666,1,,,,,,,,,,,,,,z,,,,,,,,,,,,,,,22,0,168.7137,169.8961,z,1,1.1666,,[],[],[],[],[],[],[],169.8962,171.8963,171.8964,171.8965,[],[],[],[],[],[],[],,171.8965,171.8966,-0.000925912,-0.39444443,0,0,0,,0,21,21,22,1,3,RL,procogal,print,procogal_p.png,,,,,
,,,,31963,001,2025-10-19_23h50.40.807,HW_LDT_1,2024.2.4,Win32,59.88023952,,,,,,,,,,,,,,,,,,,,171.8974,172.0964,172.0964,172.5969,,,,,,,,,,,,,,0.9547,1,,,,,,,,,,,,,,m,,,,,,,,,,,,,,,23,0,172.5973,173.5622,m,1,0.9547,,[],[],[],[],[],[],[],173.5623,175.5631,175.5631,175.5634,[],[],[],[],[],[],[],,175.5634,175.5635,-0.000925912,-0.39444443,0,0,0,,0,22,22,84,1,3,word,BELOVED,cursive,beloved_c.png,,,,,
,,,,31963,001,2025-10-19_23h50.40.807,HW_LDT_1,2024.2.4,Win32,59.88023952,,,,,,,,,,,,,,,,,,,,175.5644,175.7633,175.7633,176.263,,,,,,,,,,,,,,1.6507,1,,,,,,,,,,,,,,z,,,,,,,,,,,,,,,24,0,176.2634,177.9295,z,1,1.6507,,[],[],[],[],[],[],[],177.9296,179.9294,179.9294,179.9297,[],[],[],[],[],[],[],,179.9297,179.9298,-0.000925912,-0.39444443,0,0,0,,0,23,23,6,1,3,RL,cenesony,cursive,cenesony_c.png,,,,,
,,,,31963,001,2025-10-19_23h50.40.807,HW_LDT_1,2024.2.4,Win32,59.88023952,,,,,,,,,,,,,,,,,,,,179.9308,180.1294,180.1294,180.6296,,,,,,,,,,,,,,1.6762,0,,,,,,,,,,,,,,m,,,,,,,,,,,,,,,25,0,180.63,182.3123,z,0,1.6762,,[],[],[],[],[],[],[],182.3123,184.3124,184.3124,184.3125,[],[],[],[],[],[],[],,184.3126,184.3127,-0.000925912,-0.39444443,0,0,0,,0,24,24,110,1,3,word,HERITAGE,cursive,heritage_c.png,,,,,
,,,,31963,001,2025-10-19_23h50.40.807,HW_LDT_1,2024.2.4,Win32,59.88023952,,,,,,,,,,,,,,,,,,,,184.3133,184.5121,184.5122,185.0128,,,,,,,,,,,,,,1.5012,1,,,,,,,,,,,,,,z,,,,,,,,,,,,,,,26,0,185.0133,186.5295,z,1,1.5012,,[],[],[],[],[],[],[],186.5296,188.529,188.5291,188.5293,[],[],[],[],[],[],[],,188.5293,188.5294,-0.000925912,-0.39444443,0,0,0,,0,25,25,56,1,3,TL,meromy,print,meromy_p.png,,,,,
,,,,31963,001,2025-10-19_23h50.40.807,HW_LDT_1,2024.2.4,Win32,59.88023952,,,,,,,,,,,,,,,,,,,,188.5303,188.7291,188.7292,189.2291,,,,,,,,,,,,,,1.9982,1,,,,,,,,,,,,,,z,,,,,,,,,,,,,,,27,0,189.2295,191.2286,z,1,1.9982,,[],[],[],[],[],[],[],191.2286,193.2291,193.2291,193.2295,[],[],[],[],[],[],[],,193.2295,193.2295,-0.000925912,-0.39444443,0,0,0,,0,26,26,19,1,3,RL,opcifal,cursive,opcifal_c.png,,,,,
,,,,31963,001,2025-10-19_23h50.40.807,HW_LDT_1,2024.2.4,Win32,59.88023952,,,,,,,,,,,,,,,,,,,,193.2303,193.429,193.429,193.9289,,,,,,,,,,,,,,1.2739,1,,,,,,,,,,,,,,z,,,,,,,,,,,,,,,28,0,193.9293,195.2118,z,1,1.2739,,[],[],[],[],[],[],[],195.2119,197.2117,197.2117,197.2119,[],[],[],[],[],[],[],,197.212,197.212,-0.000925912,-0.39444443,0,0,0,,0,27,27,23,1,3,RL,quakity,print,quakity_p.png,,,,,
,,,,31963,001,2025-10-19_23h50.40.807,HW_LDT_1,2024.2.4,Win32,59.88023952,,,,,,,,,,,,,,,,,,,,197.2126,197.4121,197.4121,197.9121,,,,,,,,,,,,,,1.0112,1,,,,,,,,,,,,,,z,,,,,,,,,,,,,,,29,0,197.9125,198.9287,z,1,1.0112,,[],[],[],[],[],[],[],198.9288,200.9289,200.929,200.9292,[],[],[],[],[],[],[],,200.9292,200.9293,-0.000925912,-0.39444443,0,0,0,,0,28,28,39,1,3,TL,clicinal,print,clicinal_p.png,,,,,
,,,,31963,001,2025-10-19_23h50.40.807,HW_LDT_1,2024.2.4,Win32,59.88023952,,,,,,,,,,,,,,,,,,,,200.93,201.1291,201.1291,201.6286,,,,,,,,,,,,,,1.186,1,,,,,,,,,,,,,,m,,,,,,,,,,,,,,,30,0,201.629,202.8283,m,1,1.186,,[],[],[],[],[],[],[],202.8283,204.829,204.829,204.8293,[],[],[],[],[],[],[],,204.8293,204.8293,-0.000925912,-0.39444443,0,0,0,,0,29,29,83,1,3,word,ANIMAL,cursive,animal_c.png,,,,,
,,,,31963,001,2025-10-19_23h50.40.807,HW_LDT_1,2024.2.4,Win32,59.88023952,,,,,,,,,,,,,,,,,,,,204.83,205.0288,205.0288,205.5288,,,,,,,,,,,,,,2.2424,1,,,,,,,,,,,,,,z,,,,,,,,,,,,,,,31,1,205.5293,207.7781,z,1,2.2424,,[],[],[],[],[],[],[],207.7782,209.7785,209.7787,212.2281,[],[],[],[],[],[],[],z,212.2282,212.2283,-0.000925912,-0.39444443,0,0,0,,0,30,30,68,1,3,TL,revomal,cursive,revomal_c.png,2.445,,,,
,,,,31963,001,2025-10-19_23h50.40.807,HW_LDT_1,2024.2.4,Win32,59.88023952,,,,,,,,,,,,,,,,,,,,212.2293,212.4285,212.4286,212.9283,,,,,,,,,,,,,,0.9282,1,,,,,,,,,,,,,,m,,,,,,,,,,,,,,,32,0,212.9288,213.8613,m,1,0.9282,,[],[],[],[],[],[],[],213.8613,215.8613,215.8614,215.8615,[],[],[],[],[],[],[],,215.8615,215.8615,-0.000925912,-0.39444443,0,0,0,,0,31,31,155,1,3,word,STRATEGY,print,strategy_p.png,,,,,
,,,,31963,001,2025-10-19_23h50.40.807,HW_LDT_1,2024.2.4,Win32,59.88023952,,,,,,,,,,,,,,,,,,,,215.8621,216.0614,216.0615,216.5616,,,,,,,,,,,,,,1.6907,1,,,,,,,,,,,,,,m,,,,,,,,,,,,,,,33,0,216.562,218.2612,m,1,1.6907,,[],[],[],[],[],[],[],218.2613,220.2609,220.261,220.2611,[],[],[],[],[],[],[],,220.2611,220.2611,-0.000925912,-0.39444443,0,0,0,,0,32,32,124,1,3,word,NUMERICAL,print,numerical_p.png,,,,,
,,,,31963,001,2025-10-19_23h50.40.807,HW_LDT_1,2024.2.4,Win32,59.88023952,,,,,,,,,,,,,,,,,,,,220.2617,220.4618,220.4618,220.9611,,,,,,,,,,,,,,1.5851,1,,,,,,,,,,,,,,z,,,,,,,,,,,,,,,34,0,220.9614,222.5613,z,1,1.5851,,[],[],[],[],[],[],[],222.5613,224.5617,224.5617,224.5619,[],[],[],[],[],[],[],,224.5619,224.562,-0.000925912,-0.39444443,0,0,0,,0,33,33,54,1,3,TL,manire,cursive,manire_c.png,,,,,
,,,,31963,001,2025-10-19_23h50.40.807,HW_LDT_1,2024.2.4,Win32,59.88023952,,,,,,,,,,,,,,,,,,,,224.5629,224.7615,224.7616,225.2614,,,,,,,,,,,,,,0.9152,1,,,,,,,,,,,,,,m,,,,,,,,,,,,,,,35,0,225.2617,226.1775,m,1,0.9152,,[],[],[],[],[],[],[],226.1776,228.1781,228.1783,228.1784,[],[],[],[],[],[],[],,228.1785,228.1785,-0.000925912,-0.39444443,0,0,0,,0,34,34,142,1,3,word,REMOTE,print,remote_p.png,,,,,
,,,,31963,001,2025-10-19_23h50.40.807,HW_LDT_1,2024.2.4,Win32,59.88023952,,,,,,,,,,,,,,,,,,,,228.1793,228.3777,228.3777,228.8779,,,,,,,,,,,,,,1.7462,1,,,,,,,,,,,,,,z,,,,,,,,,,,,,,,36,0,228.8783,230.6274,z,1,1.7462,,[],[],[],[],[],[],[],230.6274,232.6281,232.6282,232.6283,[],[],[],[],[],[],[],,232.6284,232.6284,-0.000925912,-0.39444443,0,0,0,,0,35,35,76,1,3,TL,stogare,cursive,stogare_c.png,,,,,
,,,,31963,001,2025-10-19_23h50.40.807,HW_LDT_1,2024.2.4,Win32,59.88023952,,,,,,,,,,,,,,,,,,,,232.6292,232.828,232.8281,233.3273,,,,,,,,,,,,,,1.013,1,,,,,,,,,,,,,,m,,,,,,,,,,,,,,,37,0,233.3277,234.344,m,1,1.013,,[],[],[],[],[],[],[],234.344,236.3439,236.3439,236.344,[],[],[],[],[],[],[],,236.344,236.3441,-0.000925912,-0.39444443,0,0,0,,0,36,36,135,1,3,word,QUALITY,print,quality_p.png,,,,,
,,,,31963,001,2025-10-19_23h50.40.807,HW_LDT_1,2024.2.4,Win32,59.88023952,,,,,,,,,,,,,,,,,,,,236.3447,236.5445,236.5446,237.0445,,,,,,,,,,,,,,1.3179,1,,,,,,,,,,,,,,z,,,,,,,,,,,,,,,38,0,237.0449,238.3771,z,1,1.3179,,[],[],[],[],[],[],[],238.3772,240.3778,240.3778,240.3779,[],[],[],[],[],[],[],,240.3779,240.378,-0.000925912,-0.39444443,0,0,0,,0,37,37,24,1,3,RL,quafidy,print,quafidy_p.png,,,,,
,,,,31963,001,2025-10-19_23h50.40.807,HW_LDT_1,2024.2.4,Win32,59.88023952,,,,,,,,,,,,,,,,,,,,240.3785,240.5774,240.5775,241.0775,,,,,,,,,,,,,,1.8455,0,,,,,,,,,,,,,,m,,,,,,,,,,,,,,,39,0,241.0779,242.9271,z,0,1.8455,,[],[],[],[],[],[],[],242.9271,244.9274,244.9274,244.9276,[],[],[],[],[],[],[],,244.9276,244.9277,-0.000925912,-0.39444443,0,0,0,,0,38,38,92,1,3,word,CATEGORY,cursive,category_c.png,,,,,
,,,,31963,001,2025-10-19_23h50.40.807,HW_LDT_1,2024.2.4,Win32,59.88023952,,,,,,,,,,,,,,,,,,,,244.9284,245.1276,245.1277,245.6274,,,,,,,,,,,,,,1.3182,0,,,,,,,,,,,,,,m,,,,,,,,,,,,,,,40,0,245.6278,246.9609,z,0,1.3182,,[],[],[],[],[],[],[],246.9609,248.9608,248.9608,248.9609,[],[],[],[],[],[],[],,248.9609,248.9611,-0.000925912,-0.39444443,0,0,0,,0,39,39,99,1,3,word,DEBATE,cursive,debate_c.png,,,,,
,,,,31963,001,2025-10-19_23h50.40.807,HW_LDT_1,2024.2.4,Win32,59.88023952,,,,,,,,,,,,,,,,,,,,248.9619,249.1608,249.1609,249.6604,,,,,,,,,,,,,,1.6348,0,,,,,,,,,,,,,,m,,,,,,,,,,,,,,,41,0,249.6607,251.3109,z,0,1.6348,,[],[],[],[],[],[],[],251.3111,253.3103,253.3104,253.3104,[],[],[],[],[],[],[],,253.3105,253.3106,-0.000925912,-0.39444443,0,0,0,,0,40,40,120,1,3,word,MILITARY,cursive,military_c.png,,,,,
,,,,31963,001,2025-10-19_23h50.40.807,HW_LDT_1,2024.2.4,Win32,59.88023952,,,,,,,,,,,,,,,,,,,,253.3112,253.5107,253.5108,254.0107,,,,,,,,,,,,,,0.8672,1,,,,,,,,,,,,,,m,,,,,,,,,,,,,,,42,0,254.0111,254.8937,m,1,0.8672,,[],[],[],[],[],[],[],254.8937,256.8937,256.8938,256.8939,[],[],[],[],[],[],[],,256.8939,256.894,-0.000925912,-0.39444443,0,0,0,,0,41,41,98,1,3,word,CRIMINAL,print,criminal_p.png,,,,,
,,,,31963,001,2025-10-19_23h50.40.807,HW_LDT_1,2024.2.4,Win32,59.88023952,,,,,,,,,,,,,,,,,,,,256.8948,257.0939,257.094,257.5941,,,,,,,,,,,,,,0.9044,1,,,,,,,,,,,,,,m,,,,,,,,,,,,,,,43,0,257.5946,258.5101,m,1,0.9044,,[],[],[],[],[],[],[],258.5102,260.5108,260.5108,260.5109,[],[],[],[],[],[],[],,260.5109,260.5109,-0.000925912,-0.39444443,0,0,0,,0,42,42,152,1,3,word,SPECIMEN,print,specimen_p.png,,,,,
,,,,31963,001,2025-10-19_23h50.40.807,HW_LDT_1,2024.2.4,Win32,59.88023952,,,,,,,,,,,,,,,,,,,,260.5116,260.7105,260.7106,261.2106,,,,,,,,,,,,,,0.8012,1,,,,,,,,,,,,,,z,,,,,,,,,,,,,,,44,0,261.2111,262.0273,z,1,0.8012,,[],[],[],[],[],[],[],262.0275,264.027,264.0271,264.0273,[],[],[],[],[],[],[],,264.0273,264.0275,-0.000925912,-0.39444443,0,0,0,,0,43,43,41,1,3,TL,crinimal,print,crinimal_p.png,,,,,
,,,,31963,001,2025-10-19_23h50.40.807,HW_LDT_1,2024.2.4,Win32,59.88023952,,,,,,,,,,,,,,,,,,,,264.0284,264.2271,264.2272,264.7268,,,,,,,,,,,,,,0.9248,1,,,,,,,,,,,,,,m,,,,,,,,,,,,,,,45,0,264.7272,265.6598,m,1,0.9248,,[],[],[],[],[],[],[],265.6599,267.6598,267.6598,267.6598,[],[],[],[],[],[],[],,267.6599,267.6599,-0.000925912,-0.39444443,0,0,0,,0,44,44,138,1,3,word,REFUSAL,print,refusal_p.png,,,,,
,,,,31963,001,2025-10-19_23h50.40.807,HW_LDT_1,2024.2.4,Win32,59.88023952,,,,,,,,,,,,,,,,,,,,267.6604,267.86,267.86,268.3605,,,,,,,,,,,,,,2.2593,1,,,,,,,,,,,,,,z,,,,,,,,,,,,,,,46,0,268.3609,270.6262,z,1,2.2593,,[],[],[],[],[],[],[],270.6262,272.6268,272.6268,272.627,[],[],[],[],[],[],[],,272.6271,272.6271,-0.000925912,-0.39444443,0,0,0,,0,45,45,71,1,3,TL,sanile,cursive,sanile_c.png,,,,,
,,,,31963,001,2025-10-19_23h50.40.807,HW_LDT_1,2024.2.4,Win32,59.88023952,,,,,,,,,,,,,,,,,,,,272.6281,272.8269,272.8271,273.3269,,,,,,,,,,,,,,0.9648,1,,,,,,,,,,,,,,m,,,,,,,,,,,,,,,47,1,273.3272,274.2927,m,1,0.9648,,[],[],[],[],[],[],[],274.2928,276.2937,276.2938,277.7928,[],[],[],[],[],[],[],m,277.7928,277.7929,-0.000925912,-0.39444443,0,0,0,,0,46,46,95,1,3,word,COMEDY,print,comedy_p.png,1.4923,,,,
,,,,31963,001,2025-10-19_23h50.40.807,HW_LDT_1,2024.2.4,Win32,59.88023952,,,,,,,,,,,,,,,,,,,,277.7936,277.9934,277.9935,278.4934,,,,,,,,,,,,,,1.9773,1,,,,,,,,,,,,,,z,,,,,,,,,,,,,,,48,0,278.4939,280.4762,z,1,1.9773,,[],[],[],[],[],[],[],280.4762,282.4766,282.4766,282.4768,[],[],[],[],[],[],[],,282.4768,282.4769,-0.000925912,-0.39444443,0,0,0,,0,47,47,27,1,3,RL,recile,print,recile_p.png,,,,,
,,,,31963,001,2025-10-19_23h50.40.807,HW_LDT_1,2024.2.4,Win32,59.88023952,,,,,,,,,,,,,,,,,,,,282.4778,282.6769,282.6769,283.1763,,,,,,,,,,,,,,0.729,1,,,,,,,,,,,,,,m,,,,,,,,,,,,,,,49,0,283.1767,283.9092,m,1,0.729,,[],[],[],[],[],[],[],283.9093,285.91,285.91,285.9102,[],[],[],[],[],[],[],,285.9102,285.9102,-0.000925912,-0.39444443,0,0,0,,0,48,48,133,1,3,word,PROVIDE,print,provide_p.png,,,,,
,,,,31963,001,2025-10-19_23h50.40.807,HW_LDT_1,2024.2.4,Win32,59.88023952,,,,,,,,,,,,,,,,,,,,285.9109,286.1097,286.1098,286.6091,,,,,,,,,,,,,,1.018,1,,,,,,,,,,,,,,z,,,,,,,,,,,,,,,50,0,286.6093,287.6433,z,1,1.018,,[],[],[],[],[],[],[],287.6434,289.6429,289.643,289.6431,[],[],[],[],[],[],[],,289.6431,289.6432,-0.000925912,-0.39444443,0,0,0,,0,49,49,43,1,3,TL,dedace,cursive,dedace_c.png,,,,,
,,,,31963,001,2025-10-19_23h50.40.807,HW_LDT_1,2024.2.4,Win32,59.88023952,,,,,,,,,,,,,,,,,,,,289.6438,289.8429,289.8429,290.343,,,,,,,,,,,,,,1.9386,1,,,,,,,,,,,,,,m,,,,,,,,,,,,,,,51,0,290.3434,292.2925,m,1,1.9386,,[],[],[],[],[],[],[],292.2925,294.2923,294.2923,294.2925,[],[],[],[],[],[],[],,294.2925,294.2926,-0.000925912,-0.39444443,0,0,0,,0,50,50,87,1,3,word,CAFETERIA,print,cafeteria_p.png,,,,,
,,,,31963,001,2025-10-19_23h50.40.807,HW_LDT_1,2024.2.4,Win32,59.88023952,,,,,,,,,,,,,,,,,,,,294.2931,294.4932,294.4932,294.9929,,,,,,,,,,,,,,1.7002,1,,,,,,,,,,,,,,m,,,,,,,,,,,,,,,52,0,294.9932,296.7097,m,1,1.7002,,[],[],[],[],[],[],[],296.7097,298.7096,298.7096,298.7097,[],[],[],[],[],[],[],,298.7097,298.7098,-0.000925912,-0.39444443,0,0,0,,0,51,51,88,1,3,word,CAMERA,cursive,camera_c.png,,,,,
,,,,31963,001,2025-10-19_23h50.40.807,HW_LDT_1,2024.2.4,Win32,59.88023952,,,,,,,,,,,,,,,,,,,,298.7105,298.9093,298.9093,299.4094,,,,,,,,,,,,,,3.8446,1,,,,,,,,,,,,,,z,,,,,,,,,,,,,,,53,1,299.4099,303.2589,z,1,3.8446,,[],[],[],[],[],[],[],303.2589,305.2592,305.2593,307.3427,[],[],[],[],[],[],[],m,307.3427,307.3428,-0.000925912,-0.39444443,0,0,0,,0,52,52,9,1,3,RL,docirant,print,docirant_p.png,2.0673,,,,
,,,,31963,001,2025-10-19_23h50.40.807,HW_LDT_1,2024.2.4,Win32,59.88023952,,,,,,,,,,,,,,,,,,,,307.3437,307.542,307.542,308.0424,,,,,,,,,,,,,,1.3065,1,,,,,,,,,,,,,,m,,,,,,,,,,,,,,,54,0,308.0429,309.3586,m,1,1.3065,,[],[],[],[],[],[],[],309.3587,311.3593,311.3593,311.3594,[],[],[],[],[],[],[],,311.3595,311.3595,-0.000925912,-0.39444443,0,0,0,,0,53,53,82,1,3,word,AMATEUR,print,amateur_p.png,,,,,
,,,,31963,001,2025-10-19_23h50.40.807,HW_LDT_1,2024.2.4,Win32,59.88023952,,,,,,,,,,,,,,,,,,,,311.3603,311.5591,311.5592,312.059,,,,,,,,,,,,,,0.9449,1,,,,,,,,,,,,,,z,,,,,,,,,,,,,,,55,0,312.0594,313.0084,z,1,0.9449,,[],[],[],[],[],[],[],313.0084,315.0085,315.0085,315.0087,[],[],[],[],[],[],[],,315.0087,315.0087,-0.000925912,-0.39444443,0,0,0,,0,54,54,44,1,3,TL,decilate,print,decilate_p.png,,,,,
,,,,31963,001,2025-10-19_23h50.40.807,HW_LDT_1,2024.2.4,Win32,59.88023952,,,,,,,,,,,,,,,,,,,,315.0093,315.2089,315.2089,315.7089,,,,,,,,,,,,,,0.795,1,,,,,,,,,,,,,,z,,,,,,,,,,,,,,,56,0,315.7092,316.5084,z,1,0.795,,[],[],[],[],[],[],[],316.5084,318.5086,318.5087,318.5088,[],[],[],[],[],[],[],,318.5088,318.5088,-0.000925912,-0.39444443,0,0,0,,0,55,55,63,1,3,TL,racidal,cursive,racidal_c.png,,,,,
,,,,31963,001,2025-10-19_23h50.40.807,HW_LDT_1,2024.2.4,Win32,59.88023952,,,,,,,,,,,,,,,,,,,,318.5098,318.7088,318.7088,319.2085,,,,,,,,,,,,,,1.437,1,,,,,,,,,,,,,,z,,,,,,,,,,,,,,,57,0,319.2089,320.6591,z,1,1.437,,[],[],[],[],[],[],[],320.6592,322.6594,322.6594,322.6596,[],[],[],[],[],[],[],,322.6596,322.6597,-0.000925912,-0.39444443,0,0,0,,0,56,56,33,1,3,TL,adsivory,print,adsivory_p.png,,,,,
,,,,31963,001,2025-10-19_23h50.40.807,HW_LDT_1,2024.2.4,Win32,59.88023952,,,,,,,,,,,,,,,,,,,,322.6605,322.8589,322.8589,323.3589,,,,,,,,,,,,,,0.9941,1,,,,,,,,,,,,,,z,,,,,,,,,,,,,,,58,1,323.3592,324.3581,z,1,0.9941,,[],[],[],[],[],[],[],324.3582,326.3584,326.3584,327.6253,[],[],[],[],[],[],[],z,327.6253,327.6255,-0.000925912,-0.39444443,0,0,0,,0,57,57,5,1,3,RL,capefory,cursive,capefory_c.png,1.2524,,,,
,,,,31963,001,2025-10-19_23h50.40.807,HW_LDT_1,2024.2.4,Win32,59.88023952,,,,,,,,,,,,,,,,,,,,327.6262,327.8251,327.8251,328.3246,,,,,,,,,,,,,,1.1957,1,,,,,,,,,,,,,,z,,,,,,,,,,,,,,,59,0,328.3249,329.5246,z,1,1.1957,,[],[],[],[],[],[],[],329.5247,331.5252,331.5253,331.5254,[],[],[],[],[],[],[],,331.5256,331.5256,-0.000925912,-0.39444443,0,0,0,,0,58,58,14,1,3,RL,lofase,cursive,lofase_c.png,,,,,
,,,,31963,001,2025-10-19_23h50.40.807,HW_LDT_1,2024.2.4,Win32,59.88023952,,,,,,,,,,,,,,,,,,,,331.5262,331.725,331.725,332.2254,,,,,,,,,,,,,,1.1628,1,,,,,,,,,,,,,,z,,,,,,,,,,,,,,,60,0,332.2258,333.3912,z,1,1.1628,,[],[],[],[],[],[],[],333.3913,335.3917,335.3918,335.3919,[],[],[],[],[],[],[],,335.3919,335.392,-0.000925912,-0.39444443,0,0,0,,0,59,59,30,1,3,RL,strapely,print,strapely_p.png,,,,,
,,,,31963,001,2025-10-19_23h50.40.807,HW_LDT_1,2024.2.4,Win32,59.88023952,,,,,,,,,,,,,,,,,,,,335.3927,335.5913,335.5913,336.0921,,,,,,,,,,,,,,1.0564,1,,,,,,,,,,,,,,z,,,,,,,,,,,,,,,61,0,336.0924,337.1577,z,1,1.0564,,[],[],[],[],[],[],[],337.1578,339.1582,339.1583,339.1584,[],[],[],[],[],[],[],,339.1584,339.1585,-0.000925912,-0.39444443,0,0,0,,0,60,60,45,1,3,TL,dentisy,print,dentisy_p.png,,,,,
,,,,31963,001,2025-10-19_23h50.40.807,HW_LDT_1,2024.2.4,Win32,59.88023952,,,,,,,,,,,,,,,,,,,,339.1592,339.3577,339.3577,339.8576,,,,,,,,,,,,,,1.4849,0,,,,,,,,,,,,,,m,,,,,,,,,,,,,,,62,0,339.8579,341.3583,z,0,1.4849,,[],[],[],[],[],[],[],341.3584,343.358,343.358,343.3582,[],[],[],[],[],[],[],,343.3583,343.3584,-0.000925912,-0.39444443,0,0,0,,0,61,61,136,1,3,word,RADICAL,cursive,radical_c.png,,,,,
,,,,31963,001,2025-10-19_23h50.40.807,HW_LDT_1,2024.2.4,Win32,59.88023952,,,,,,,,,,,,,,,,,,,,343.3594,343.5586,343.5586,344.0575,,,,,,,,,,,,,,3.192,1,,,,,,,,,,,,,,m,,,,,,,,,,,,,,,63,0,344.0577,347.2574,m,1,3.192,,[],[],[],[],[],[],[],347.2574,349.2581,349.2581,349.2582,[],[],[],[],[],[],[],,349.2583,349.2583,-0.000925912,-0.39444443,0,0,0,,0,62,62,128,1,3,word,PACIFIC,cursive,pacific_c.png,,,,,
,,,,31963,001,2025-10-19_23h50.40.807,HW_LDT_1,2024.2.4,Win32,59.88023952,,,,,,,,,,,,,,,,,,,,349.2593,349.4579,349.4579,349.9582,,,,,,,,,,,,,,1.7743,1,,,,,,,,,,,,,,z,,,,,,,,,,,,,,,64,0,349.9587,351.7407,z,1,1.7743,,[],[],[],[],[],[],[],351.7407,353.741,353.7411,353.7411,[],[],[],[],[],[],[],,353.7412,353.7412,-0.000925912,-0.39444443,0,0,0,,0,63,63,3,1,3,RL,bebine,cursive,bebine_c.png,,,,,
,,,,31963,001,2025-10-19_23h50.40.807,HW_LDT_1,2024.2.4,Win32,59.88023952,,,,,,,,,,,,,,,,,,,,353.7422,353.9413,353.9413,354.4417,,,,,,,,,,,,,,1.3509,1,,,,,,,,,,,,,,z,,,,,,,,,,,,,,,65,0,354.4422,355.8074,z,1,1.3509,,[],[],[],[],[],[],[],355.8074,357.8074,357.8074,357.8076,[],[],[],[],[],[],[],,357.8076,357.8076,-0.000925912,-0.39444443,0,0,0,,0,64,64,11,1,3,RL,ebiwent,cursive,ebiwent_c.png,,,,,
,,,,31963,001,2025-10-19_23h50.40.807,HW_LDT_1,2024.2.4,Win32,59.88023952,,,,,,,,,,,,,,,,,,,,357.8084,358.008,358.008,358.5076,,,,,,,,,,,,,,5.55,0,,,,,,,,,,,,,,z,,,,,,,,,,,,,,,66,0,358.5082,364.0736,m,0,5.55,,[],[],[],[],[],[],[],364.0736,366.0742,366.0742,366.0743,[],[],[],[],[],[],[],,366.0744,366.0745,-0.000925912,-0.39444443,0,0,0,,0,65,65,16,1,3,RL,mishafe,cursive,mishafe_c.png,,,,,
,,,,31963,001,2025-10-19_23h50.40.807,HW_LDT_1,2024.2.4,Win32,59.88023952,,,,,,,,,,,,,,,,,,,,366.0753,366.2739,366.2739,366.7736,,,,,,,,,,,,,,1.0249,1,,,,,,,,,,,,,,m,,,,,,,,,,,,,,,67,0,366.7739,367.8069,m,1,1.0249,,[],[],[],[],[],[],[],367.807,369.8074,369.8074,369.8076,[],[],[],[],[],[],[],,369.8076,369.8078,-0.000925912,-0.39444443,0,0,0,,0,66,66,151,1,3,word,SPECIFIC,print,specific_p.png,,,,,
,,,,31963,001,2025-10-19_23h50.40.807,HW_LDT_1,2024.2.4,Win32,59.88023952,,,,,,,,,,,,,,,,,,,,369.8085,370.0075,370.0075,370.5071,,,,,,,,,,,,,,1.6309,0,,,,,,,,,,,,,,m,,,,,,,,,,,,,,,68,0,370.5075,372.1402,z,0,1.6309,,[],[],[],[],[],[],[],372.1402,374.1407,374.1407,374.1408,[],[],[],[],[],[],[],,374.1409,374.1409,-0.000925912,-0.39444443,0,0,0,,0,67,67,90,1,3,word,CAPITAL,cursive,capital_c.png,,,,,
,,,,31963,001,2025-10-19_23h50.40.807,HW_LDT_1,2024.2.4,Win32,59.88023952,,,,,,,,,,,,,,,,,,,,374.1415,374.3406,374.3407,374.8407,,,,,,,,,,,,,,1.6984,1,,,,,,,,,,,,,,z,,,,,,,,,,,,,,,69,0,374.8412,376.5401,z,1,1.6984,,[],[],[],[],[],[],[],376.5401,378.5407,378.5408,378.5408,[],[],[],[],[],[],[],,378.5409,378.5409,-0.000925912,-0.39444443,0,0,0,,0,68,68,50,1,3,TL,lirebal,print,lirebal_p.png,,,,,
,,,,31963,001,2025-10-19_23h50.40.807,HW_LDT_1,2024.2.4,Win32,59.88023952,,,,,,,,,,,,,,,,,,,,378.5417,378.7406,378.7406,379.2404,,,,,,,,,,,,,,1.7505,1,,,,,,,,,,,,,,z,,,,,,,,,,,,,,,70,0,379.2408,381.0072,z,1,1.7505,,[],[],[],[],[],[],[],381.0072,383.0068,383.0068,383.007,[],[],[],[],[],[],[],,383.007,383.0071,-0.000925912,-0.39444443,0,0,0,,0,69,69,73,1,3,TL,speficic,print,speficic_p.png,,,,,
,,,,31963,001,2025-10-19_23h50.40.807,HW_LDT_1,2024.2.4,Win32,59.88023952,,,,,,,,,,,,,,,,,,,,383.0081,383.2072,383.2073,383.707,,,,,,,,,,,,,,1.8563,1,,,,,,,,,,,,,,z,,,,,,,,,,,,,,,71,0,383.7073,385.5733,z,1,1.8563,,[],[],[],[],[],[],[],385.5733,387.5736,387.5736,387.5737,[],[],[],[],[],[],[],,387.5737,387.5739,-0.000925912,-0.39444443,0,0,0,,0,70,70,37,1,3,TL,cacapity,cursive,cacapity_c.png,,,,,
,,,,31963,001,2025-10-19_23h50.40.807,HW_LDT_1,2024.2.4,Win32,59.88023952,,,,,,,,,,,,,,,,,,,,387.5746,387.7729,387.773,388.2737,,,,,,,,,,,,,,1.1945,1,,,,,,,,,,,,,,m,,,,,,,,,,,,,,,72,0,388.2741,389.4729,m,1,1.1945,,[],[],[],[],[],[],[],389.473,391.4734,391.4735,391.4735,[],[],[],[],[],[],[],,391.4736,391.4737,-0.000925912,-0.39444443,0,0,0,,0,71,71,125,1,3,word,OPERATOR,print,operator_p.png,,,,,
,,,,31963,001,2025-10-19_23h50.40.807,HW_LDT_1,2024.2.4,Win32,59.88023952,,,,,,,,,,,,,,,,,,,,391.4744,391.6729,391.673,392.1736,,,,,,,,,,,,,,1.0069,0,,,,,,,,,,,,,,m,,,,,,,,,,,,,,,73,0,392.1739,393.1896,z,0,1.0069,,[],[],[],[],[],[],[],393.1896,395.1898,395.1898,395.1899,[],[],[],[],[],[],[],,395.1899,395.1899,-0.000925912,-0.39444443,0,0,0,,0,72,72,123,1,3,word,MODERATE,cursive,moderate_c.png,,,,,
,,,,31963,001,2025-10-19_23h50.40.807,HW_LDT_1,2024.2.4,Win32,59.88023952,,,,,,,,,,,,,,,,,,,,395.1905,395.3901,395.3901,395.8897,,,,,,,,,,,,,,1.9178,1,,,,,,,,,,,,,,z,,,,,,,,,,,,,,,74,0,395.89,397.8228,z,1,1.9178,,[],[],[],[],[],[],[],397.8229,399.8234,399.8234,399.8236,[],[],[],[],[],[],[],,399.8236,399.8237,-0.000925912,-0.39444443,0,0,0,,0,73,73,52,1,3,TL,locigal,cursive,locigal_c.png,,,,,
,,,,31963,001,2025-10-19_23h50.40.807,HW_LDT_1,2024.2.4,Win32,59.88023952,,,,,,,,,,,,,,,,,,,,399.8246,400.0233,400.0233,400.5232,,,,,,,,,,,,,,1.0481,1,,,,,,,,,,,,,,m,,,,,,,,,,,,,,,75,1,400.5237,401.5725,m,1,1.0481,,[],[],[],[],[],[],[],401.5726,403.5732,403.5733,405.2226,[],[],[],[],[],[],[],m,405.2226,405.2228,-0.000925912,-0.39444443,0,0,0,,0,74,74,141,1,3,word,RELIGION,print,religion_p.png,1.6406,,,,
,,,,31963,001,2025-10-19_23h50.40.807,HW_LDT_1,2024.2.4,Win32,59.88023952,,,,,,,,,,,,,,,,,,,,405.2237,405.4232,405.4233,405.9231,,,,,,,,,,,,,,2.2437,1,,,,,,,,,,,,,,m,,,,,,,,,,,,,,,76,0,405.9234,408.1724,m,1,2.2437,,[],[],[],[],[],[],[],408.1724,410.1728,410.1728,410.173,[],[],[],[],[],[],[],,410.1731,410.1732,-0.000925912,-0.39444443,0,0,0,,0,75,75,107,1,3,word,EVIDENT,cursive,evident_c.png,,,,,
,,,,31963,001,2025-10-19_23h50.40.807,HW_LDT_1,2024.2.4,Win32,59.88023952,,,,,,,,,,,,,,,,,,,,410.1739,410.3725,410.3725,410.8729,,,,,,,,,,,,,,1.1793,1,,,,,,,,,,,,,,z,,,,,,,,,,,,,,,77,0,410.8733,412.0555,z,1,1.1793,,[],[],[],[],[],[],[],412.0556,414.0565,414.0566,414.0567,[],[],[],[],[],[],[],,414.0567,414.0569,-0.000925912,-0.39444443,0,0,0,,0,76,76,42,1,3,TL,detabe,cursive,detabe_c.png,,,,,
,,,,31963,001,2025-10-19_23h50.40.807,HW_LDT_1,2024.2.4,Win32,59.88023952,,,,,,,,,,,,,,,,,,,,414.0576,414.2563,414.2563,414.7561,,,,,,,,,,,,,,0.8585,1,,,,,,,,,,,,,,z,,,,,,,,,,,,,,,78,1,414.7565,415.6223,z,1,0.8585,,[],[],[],[],[],[],[],415.6224,417.623,417.623,418.8386,[],[],[],[],[],[],[],z,418.8387,418.8387,-0.000925912,-0.39444443,0,0,0,,0,77,77,64,1,3,TL,radiply,print,radiply_p.png,1.2145,,,,
,,,,31963,001,2025-10-19_23h50.40.807,HW_LDT_1,2024.2.4,Win32,59.88023952,,,,,,,,,,,,,,,,,,,,418.8392,419.0393,419.0393,419.5395,,,,,,,,,,,,,,1.1703,1,,,,,,,,,,,,,,z,,,,,,,,,,,,,,,79,0,419.54,420.7222,z,1,1.1703,,[],[],[],[],[],[],[],420.7223,422.7221,422.7222,422.7223,[],[],[],[],[],[],[],,422.7223,422.7224,-0.000925912,-0.39444443,0,0,0,,0,78,78,0,1,3,RL,afaneur,print,afaneur_p.png,,,,,
,,,,31963,001,2025-10-19_23h50.40.807,HW_LDT_1,2024.2.4,Win32,59.88023952,,,,,,,,,,,,,,,,,,,,422.7231,422.9225,422.9225,423.4229,,,,,,,,,,,,,,0.8094,1,,,,,,,,,,,,,,m,,,,,,,,,,,,,,,80,0,423.4232,424.2386,m,1,0.8094,,[],[],[],[],[],[],[],424.2386,426.2389,426.2389,426.2391,[],[],[],[],[],[],[],,426.2391,491.3203,0.032407407,-0.401851866,1,0,0,,0,79,79,101,1,3,word,DELICATE,print,delicate_p.png,,,break_done_button,,
,,,,31963,001,2025-10-19_23h50.40.807,HW_LDT_1,2024.2.4,Win32,59.88023952,,,,,,,,,,,,,,,,,,,,491.3209,491.5205,491.5206,492.02,,,,,,,,,,,,,,1.1414,1,,,,,,,,,,,,,,z,,,,,,,,,,,,,,,81,0,492.0203,493.1707,z,1,1.1414,,[],[],[],[],[],[],[],493.1708,495.1705,495.1705,495.1706,[],[],[],[],[],[],[],,495.1706,495.1707,0.032407407,-0.401851866,0,0,0,,0,80,80,18,1,3,RL,onegator,print,onegator_p.png,,,,,
,,,,31963,001,2025-10-19_23h50.40.807,HW_LDT_1,2024.2.4,Win32,59.88023952,,,,,,,,,,,,,,,,,,,,495.1714,495.3707,495.3708,495.8698,,,,,,,,,,,,,,1.1909,1,,,,,,,,,,,,,,z,,,,,,,,,,,,,,,82,0,495.8701,497.0699,z,1,1.1909,,[],[],[],[],[],[],[],497.0699,499.0705,499.0705,499.0707,[],[],[],[],[],[],[],,499.0708,499.0709,0.032407407,-0.401851866,0,0,0,,0,81,81,74,1,3,TL,spemicen,print,spemicen_p.png,,,,,
,,,,31963,001,2025-10-19_23h50.40.807,HW_LDT_1,2024.2.4,Win32,59.88023952,,,,,,,,,,,,,,,,,,,,499.0717,499.2704,499.2704,499.7696,,,,,,,,,,,,,,0.9287,1,,,,,,,,,,,,,,z,,,,,,,,,,,,,,,83,1,499.77,500.7031,z,1,0.9287,,[],[],[],[],[],[],[],500.7032,502.7029,502.703,504.6196,[],[],[],[],[],[],[],m,504.6196,504.6198,0.032407407,-0.401851866,0,0,0,,0,82,82,61,1,3,TL,pocily,print,pocily_p.png,1.9035,,,,
,,,,31963,001,2025-10-19_23h50.40.807,HW_LDT_1,2024.2.4,Win32,59.88023952,,,,,,,,,,,,,,,,,,,,504.6203,504.8196,504.8196,505.3195,,,,,,,,,,,,,,0.9982,1,,,,,,,,,,,,,,m,,,,,,,,,,,,,,,84,0,505.3198,506.3195,m,1,0.9982,,[],[],[],[],[],[],[],506.3195,508.3196,508.3196,508.3196,[],[],[],[],[],[],[],,508.3197,508.3197,0.032407407,-0.401851866,0,0,0,,0,83,83,103,1,3,word,DISPUTE,print,dispute_p.png,,,,,
,,,,31963,001,2025-10-19_23h50.40.807,HW_LDT_1,2024.2.4,Win32,59.88023952,,,,,,,,,,,,,,,,,,,,508.3201,508.5194,508.5195,509.0197,,,,,,,,,,,,,,0.92,1,,,,,,,,,,,,,,z,,,,,,,,,,,,,,,85,1,509.02,509.9529,z,1,0.92,,[],[],[],[],[],[],[],509.9529,511.9528,511.9528,513.903,[],[],[],[],[],[],[],m,513.903,513.9031,0.032407407,-0.401851866,0,0,0,,0,84,84,2,1,3,RL,betemit,print,betemit_p.png,1.9426,,,,
,,,,31963,001,2025-10-19_23h50.40.807,HW_LDT_1,2024.2.4,Win32,59.88023952,,,,,,,,,,,,,,,,,,,,513.9037,514.1028,514.1028,514.6027,,,,,,,,,,,,,,0.9182,1,,,,,,,,,,,,,,z,,,,,,,,,,,,,,,86,0,514.6029,515.536,z,1,0.9182,,[],[],[],[],[],[],[],515.5361,517.5359,517.5359,517.536,[],[],[],[],[],[],[],,517.536,517.536,0.032407407,-0.401851866,0,0,0,,0,85,85,38,1,3,TL,carnidal,print,carnidal_p.png,,,,,
,,,,31963,001,2025-10-19_23h50.40.807,HW_LDT_1,2024.2.4,Win32,59.88023952,,,,,,,,,,,,,,,,,,,,517.5366,517.7358,517.7359,518.2363,,,,,,,,,,,,,,1.4183,1,,,,,,,,,,,,,,m,,,,,,,,,,,,,,,87,0,518.2366,519.6694,m,1,1.4183,,[],[],[],[],[],[],[],519.6695,521.6695,521.6696,521.6698,[],[],[],[],[],[],[],,521.6698,521.6698,0.032407407,-0.401851866,0,0,0,,0,86,86,144,1,3,word,RESIDENT,cursive,resident_c.png,,,,,
,,,,31963,001,2025-10-19_23h50.40.807,HW_LDT_1,2024.2.4,Win32,59.88023952,,,,,,,,,,,,,,,,,,,,521.6708,521.8696,521.8696,522.3694,,,,,,,,,,,,,,0.7506,1,,,,,,,,,,,,,,m,,,,,,,,,,,,,,,88,0,522.3699,523.1364,m,1,0.7506,,[],[],[],[],[],[],[],523.1365,525.1365,525.1366,525.1367,[],[],[],[],[],[],[],,525.1367,525.1369,0.032407407,-0.401851866,0,0,0,,0,87,87,119,1,3,word,MEMORY,print,memory_p.png,,,,,
,,,,31963,001,2025-10-19_23h50.40.807,HW_LDT_1,2024.2.4,Win32,59.88023952,,,,,,,,,,,,,,,,,,,,525.1377,525.3363,525.3363,525.8362,,,,,,,,,,,,,,0.7802,1,,,,,,,,,,,,,,z,,,,,,,,,,,,,,,89,1,525.8366,526.6192,z,1,0.7802,,[],[],[],[],[],[],[],526.6192,528.6194,528.6195,531.3855,[],[],[],[],[],[],[],z,531.3855,531.3855,0.032407407,-0.401851866,0,0,0,,0,88,88,67,1,3,TL,retome,print,retome_p.png,2.7647,,,,
,,,,31963,001,2025-10-19_23h50.40.807,HW_LDT_1,2024.2.4,Win32,59.88023952,,,,,,,,,,,,,,,,,,,,531.386,531.5857,531.5857,532.0864,,,,,,,,,,,,,,1.9515,1,,,,,,,,,,,,,,z,,,,,,,,,,,,,,,90,0,532.0869,534.0531,z,1,1.9515,,[],[],[],[],[],[],[],534.0531,536.0529,536.0529,536.0531,[],[],[],[],[],[],[],,536.0531,536.0533,0.032407407,-0.401851866,0,0,0,,0,89,89,7,1,3,RL,cobeny,print,cobeny_p.png,,,,,
,,,,31963,001,2025-10-19_23h50.40.807,HW_LDT_1,2024.2.4,Win32,59.88023952,,,,,,,,,,,,,,,,,,,,536.0544,536.2528,536.2529,536.7525,,,,,,,,,,,,,,0.9571,1,,,,,,,,,,,,,,m,,,,,,,,,,,,,,,91,1,536.7528,537.7187,m,1,0.9571,,[],[],[],[],[],[],[],537.7188,539.7186,539.7186,541.1686,[],[],[],[],[],[],[],m,541.1686,541.1686,0.032407407,-0.401851866,0,0,0,,0,90,90,112,1,3,word,LIBERAL,print,liberal_p.png,1.4346,0.0129,,,
,,,,31963,001,2025-10-19_23h50.40.807,HW_LDT_1,2024.2.4,Win32,59.88023952,,,,,,,,,,,,,,,,,,,,541.1691,541.3687,541.3687,541.8686,,,,,,,,,,,,,,1.663,1,,,,,,,,,,,,,,z,,,,,,,,,,,,,,,92,0,541.8689,543.5352,z,1,1.663,,[],[],[],[],[],[],[],543.5353,545.536,545.5361,545.5362,[],[],[],[],[],[],[],,545.5363,545.5364,0.032407407,-0.401851866,0,0,0,,0,91,91,66,1,3,TL,retalive,cursive,retalive_c.png,,,,,
,,,,31963,001,2025-10-19_23h50.40.807,HW_LDT_1,2024.2.4,Win32,59.88023952,,,,,,,,,,,,,,,,,,,,545.5371,545.7355,545.7355,546.2355,,,,,,,,,,,,,,1.3938,1,,,,,,,,,,,,,,m,,,,,,,,,,,,,,,93,0,546.2357,547.6351,m,1,1.3938,,[],[],[],[],[],[],[],547.6351,549.6358,549.6358,549.6358,[],[],[],[],[],[],[],,549.6359,549.636,0.032407407,-0.401851866,0,0,0,,0,92,92,147,1,3,word,ROMANTIC,cursive,romantic_c.png,,,,,
,,,,31963,001,2025-10-19_23h50.40.807,HW_LDT_1,2024.2.4,Win32,59.88023952,,,,,,,,,,,,,,,,,,,,549.6366,549.8352,549.8352,550.3359,,,,,,,,,,,,,,1.4015,1,,,,,,,,,,,,,,z,,,,,,,,,,,,,,,94,0,550.3361,551.7522,z,1,1.4015,,[],[],[],[],[],[],[],551.7523,553.7519,553.7519,553.752,[],[],[],[],[],[],[],,553.7522,553.7522,0.032407407,-0.401851866,0,0,0,,0,93,93,48,1,3,TL,grafetul,cursive,grafetul_c.png,,,,,
,,,,31963,001,2025-10-19_23h50.40.807,HW_LDT_1,2024.2.4,Win32,59.88023952,,,,,,,,,,,,,,,,,,,,553.7529,553.9526,553.9527,554.452,,,,,,,,,,,,,,1.5298,1,,,,,,,,,,,,,,m,,,,,,,,,,,,,,,95,1,554.4524,555.9847,m,1,1.5298,,[],[],[],[],[],[],[],555.9848,557.9849,557.9849,558.7516,[],[],[],[],[],[],[],z,558.7516,558.7517,0.032407407,-0.401851866,0,0,0,,0,94,94,93,1,3,word,CEREMONY,cursive,ceremony_c.png,0.7591,,,,
,,,,31963,001,2025-10-19_23h50.40.807,HW_LDT_1,2024.2.4,Win32,59.88023952,,,,,,,,,,,,,,,,,,,,558.7525,558.9519,558.952,559.4524,,,,,,,,,,,,,,1.4503,1,,,,,,,,,,,,,,z,,,,,,,,,,,,,,,96,0,559.4528,560.919,z,1,1.4503,,[],[],[],[],[],[],[],560.9191,562.9186,562.9186,562.9188,[],[],[],[],[],[],[],,562.9188,562.9189,0.032407407,-0.401851866,0,0,0,,0,95,95,32,1,3,TL,adacemy,print,adacemy_p.png,,,,,
,,,,31963,001,2025-10-19_23h50.40.807,HW_LDT_1,2024.2.4,Win32,59.88023952,,,,,,,,,,,,,,,,,,,,562.9196,563.119,563.1191,563.6184,,,,,,,,,,,,,,1.0024,1,,,,,,,,,,,,,,m,,,,,,,,,,,,,,,97,0,563.6188,564.6355,m,1,1.0024,,[],[],[],[],[],[],[],564.6355,566.6352,566.6353,566.6353,[],[],[],[],[],[],[],,566.6353,566.6353,0.032407407,-0.401851866,0,0,0,,0,96,96,111,1,3,word,INDICATE,print,indicate_p.png,,,,,
,,,,31963,001,2025-10-19_23h50.40.807,HW_LDT_1,2024.2.4,Win32,59.88023952,,,,,,,,,,,,,,,,,,,,566.6359,566.8346,566.8346,567.3345,,,,,,,,,,,,,,1.2195,1,,,,,,,,,,,,,,m,,,,,,,,,,,,,,,98,0,567.3349,568.568,m,1,1.2195,,[],[],[],[],[],[],[],568.568,570.5678,570.5679,570.568,[],[],[],[],[],[],[],,570.568,570.5681,0.032407407,-0.401851866,0,0,0,,0,97,97,154,1,3,word,STORAGE,cursive,storage_c.png,,,,,
,,,,31963,001,2025-10-19_23h50.40.807,HW_LDT_1,2024.2.4,Win32,59.88023952,,,,,,,,,,,,,,,,,,,,570.569,570.7677,570.7678,571.2682,,,,,,,,,,,,,,2.7422,1,,,,,,,,,,,,,,z,,,,,,,,,,,,,,,99,0,571.2685,574.0177,z,1,2.7422,,[],[],[],[],[],[],[],574.0177,576.0179,576.018,576.0181,[],[],[],[],[],[],[],,576.0181,576.0182,0.032407407,-0.401851866,0,0,0,,0,98,98,1,1,3,RL,bewoted,cursive,bewoted_c.png,,,,,
,,,,31963,001,2025-10-19_23h50.40.807,HW_LDT_1,2024.2.4,Win32,59.88023952,,,,,,,,,,,,,,,,,,,,576.0189,576.2182,576.2182,576.7181,,,,,,,,,,,,,,0.8384,1,,,,,,,,,,,,,,m,,,,,,,,,,,,,,,100,0,576.7186,577.5681,m,1,0.8384,,[],[],[],[],[],[],[],577.5682,579.5683,579.5683,579.5685,[],[],[],[],[],[],[],,579.5685,579.5686,0.032407407,-0.401851866,0,0,0,,0,99,99,105,1,3,word,EDITOR,print,editor_p.png,,,,,
,,,,31963,001,2025-10-19_23h50.40.807,HW_LDT_1,2024.2.4,Win32,59.88023952,,,,,,,,,,,,,,,,,,,,579.5692,579.7676,579.7677,580.2675,,,,,,,,,,,,,,2.2605,1,,,,,,,,,,,,,,z,,,,,,,,,,,,,,,101,0,580.2677,582.5343,z,1,2.2605,,[],[],[],[],[],[],[],582.5344,584.5342,584.5343,584.5343,[],[],[],[],[],[],[],,584.5344,584.5345,0.032407407,-0.401851866,0,0,0,,0,100,100,34,1,3,TL,aminal,cursive,aminal_c.png,,,,,
,,,,31963,001,2025-10-19_23h50.40.807,HW_LDT_1,2024.2.4,Win32,59.88023952,,,,,,,,,,,,,,,,,,,,584.5351,584.735,584.735,585.2349,,,,,,,,,,,,,,0.8565,1,,,,,,,,,,,,,,z,,,,,,,,,,,,,,,102,0,585.2354,586.1017,z,1,0.8565,,[],[],[],[],[],[],[],586.1017,588.101,588.1011,588.1012,[],[],[],[],[],[],[],,588.1012,588.1013,0.032407407,-0.401851866,0,0,0,,0,101,101,60,1,3,TL,panert,print,panert_p.png,,,,,
,,,,31963,001,2025-10-19_23h50.40.807,HW_LDT_1,2024.2.4,Win32,59.88023952,,,,,,,,,,,,,,,,,,,,588.1022,588.3006,588.3006,588.8006,,,,,,,,,,,,,,1.2085,0,,,,,,,,,,,,,,m,,,,,,,,,,,,,,,103,1,588.8009,590.0173,z,0,1.2085,,[],[],[],[],[],[],[],590.0173,592.0173,592.0173,593.0344,[],[],[],[],[],[],[],z,593.0345,593.0345,0.032407407,-0.401851866,0,0,0,,0,102,102,149,1,3,word,SENATOR,cursive,senator_c.png,1.0039,,,,
,,,,31963,001,2025-10-19_23h50.40.807,HW_LDT_1,2024.2.4,Win32,59.88023952,,,,,,,,,,,,,,,,,,,,593.0352,593.2345,593.2345,593.7345,,,,,,,,,,,,,,1.9011,1,,,,,,,,,,,,,,m,,,,,,,,,,,,,,,104,1,593.7347,595.6512,m,1,1.9011,,[],[],[],[],[],[],[],595.6513,597.651,597.6511,599.117,[],[],[],[],[],[],[],m,599.117,599.1171,0.032407407,-0.401851866,0,0,0,,0,103,103,81,1,3,word,ADVISORY,print,advisory_p.png,1.4649,,,,
,,,,31963,001,2025-10-19_23h50.40.807,HW_LDT_1,2024.2.4,Win32,59.88023952,,,,,,,,,,,,,,,,,,,,599.1175,599.3174,599.3174,599.8179,,,,,,,,,,,,,,2.141,1,,,,,,,,,,,,,,z,,,,,,,,,,,,,,,105,0,599.8182,601.9669,z,1,2.141,,[],[],[],[],[],[],[],601.9669,603.9679,603.9679,603.968,[],[],[],[],[],[],[],,603.968,603.9681,0.032407407,-0.401851866,0,0,0,,0,104,104,79,1,3,TL,veretan,cursive,veretan_c.png,,,,,
,,,,31963,001,2025-10-19_23h50.40.807,HW_LDT_1,2024.2.4,Win32,59.88023952,,,,,,,,,,,,,,,,,,,,603.9686,604.1676,604.1676,604.6675,,,,,,,,,,,,,,4.7344,1,,,,,,,,,,,,,,z,,,,,,,,,,,,,,,106,0,604.668,609.4174,z,1,4.7344,,[],[],[],[],[],[],[],609.4174,611.4174,611.4174,611.4175,[],[],[],[],[],[],[],,611.4175,611.4176,0.032407407,-0.401851866,0,0,0,,0,105,105,29,1,3,RL,selamor,cursive,selamor_c.png,,,,,
,,,,31963,001,2025-10-19_23h50.40.807,HW_LDT_1,2024.2.4,Win32,59.88023952,,,,,,,,,,,,,,,,,,,,611.4183,611.6171,611.6171,612.1172,,,,,,,,,,,,,,1.5116,0,,,,,,,,,,,,,,m,,,,,,,,,,,,,,,107,0,612.1177,613.6332,z,0,1.5116,,[],[],[],[],[],[],[],613.6332,615.6341,615.6342,615.6344,[],[],[],[],[],[],[],,615.6344,615.6344,0.032407407,-0.401851866,0,0,0,,0,106,106,140,1,3,word,RELATIVE,cursive,relative_c.png,,,,,
,,,,31963,001,2025-10-19_23h50.40.807,HW_LDT_1,2024.2.4,Win32,59.88023952,,,,,,,,,,,,,,,,,,,,615.635,615.8335,615.8335,616.3342,,,,,,,,,,,,,,1.5887,1,,,,,,,,,,,,,,z,,,,,,,,,,,,,,,108,1,616.3345,617.9332,z,1,1.5887,,[],[],[],[],[],[],[],617.9332,619.9335,619.9336,622.1006,[],[],[],[],[],[],[],z,622.1007,622.1008,0.032407407,-0.401851866,0,0,0,,0,107,107,36,1,3,TL,carema,cursive,carema_c.png,2.1507,,,,
,,,,31963,001,2025-10-19_23h50.40.807,HW_LDT_1,2024.2.4,Win32,59.88023952,,,,,,,,,,,,,,,,,,,,622.1014,622.3003,622.3003,622.8001,,,,,,,,,,,,,,3.0477,1,,,,,,,,,,,,,,m,,,,,,,,,,,,,,,109,0,622.8005,625.8496,m,1,3.0477,,[],[],[],[],[],[],[],625.8496,627.8498,627.8499,627.85,[],[],[],[],[],[],[],,627.8501,627.8502,0.032407407,-0.401851866,0,0,0,,0,108,108,159,1,3,word,VETERAN,cursive,veteran_c.png,,,,,
,,,,31963,001,2025-10-19_23h50.40.807,HW_LDT_1,2024.2.4,Win32,59.88023952,,,,,,,,,,,,,,,,,,,,627.8509,628.0503,628.0503,628.5502,,,,,,,,,,,,,,1.5898,0,,,,,,,,,,,,,,m,,,,,,,,,,,,,,,110,0,628.5508,630.1495,z,0,1.5898,,[],[],[],[],[],[],[],630.1496,632.1497,632.1498,632.15,[],[],[],[],[],[],[],,632.1501,632.1501,0.032407407,-0.401851866,0,0,0,,0,109,109,126,1,3,word,OPTIMAL,cursive,optimal_c.png,,,,,
,,,,31963,001,2025-10-19_23h50.40.807,HW_LDT_1,2024.2.4,Win32,59.88023952,,,,,,,,,,,,,,,,,,,,632.1507,632.3501,632.3501,632.8502,,,,,,,,,,,,,,2.0383,0,,,,,,,,,,,,,,m,,,,,,,,,,,,,,,111,0,632.8506,634.8994,z,0,2.0383,,[],[],[],[],[],[],[],634.8994,636.8998,636.8998,636.9,[],[],[],[],[],[],[],,636.9,636.9,0.032407407,-0.401851866,0,0,0,,0,110,110,121,1,3,word,MISTAKE,cursive,mistake_c.png,,,,,
,,,,31963,001,2025-10-19_23h50.40.807,HW_LDT_1,2024.2.4,Win32,59.88023952,,,,,,,,,,,,,,,,,,,,636.9008,637.0998,637.0998,637.5992,,,,,,,,,,,,,,0.8626,1,,,,,,,,,,,,,,m,,,,,,,,,,,,,,,112,0,637.5995,638.4658,m,1,0.8626,,[],[],[],[],[],[],[],638.4658,640.4659,640.466,640.466,[],[],[],[],[],[],[],,640.4661,640.4662,0.032407407,-0.401851866,0,0,0,,0,111,111,118,1,3,word,MEDICINE,print,medicine_p.png,,,,,
,,,,31963,001,2025-10-19_23h50.40.807,HW_LDT_1,2024.2.4,Win32,59.88023952,,,,,,,,,,,,,,,,,,,,640.4671,640.666,640.6661,641.1663,,,,,,,,,,,,,,0.8523,1,,,,,,,,,,,,,,z,,,,,,,,,,,,,,,113,0,641.1668,642.0329,z,1,0.8523,,[],[],[],[],[],[],[],642.033,644.0329,644.033,644.0331,[],[],[],[],[],[],[],,644.0331,644.0332,0.032407407,-0.401851866,0,0,0,,0,112,112,15,1,3,RL,mifikary,cursive,mifikary_c.png,,,,,
,,,,31963,001,2025-10-19_23h50.40.807,HW_LDT_1,2024.2.4,Win32,59.88023952,,,,,,,,,,,,,,,,,,,,644.034,644.2328,644.2329,644.733,,,,,,,,,,,,,,1.3428,1,,,,,,,,,,,,,,z,,,,,,,,,,,,,,,114,0,644.7334,646.0823,z,1,1.3428,,[],[],[],[],[],[],[],646.0823,648.083,648.0831,648.0833,[],[],[],[],[],[],[],,648.0833,648.0835,0.032407407,-0.401851866,0,0,0,,0,113,113,77,1,3,TL,vadility,cursive,vadility_c.png,,,,,
,,,,31963,001,2025-10-19_23h50.40.807,HW_LDT_1,2024.2.4,Win32,59.88023952,,,,,,,,,,,,,,,,,,,,648.0841,648.283,648.283,648.7823,,,,,,,,,,,,,,1.2808,1,,,,,,,,,,,,,,m,,,,,,,,,,,,,,,115,0,648.7826,650.0654,m,1,1.2808,,[],[],[],[],[],[],[],650.0655,652.0657,652.0657,652.0658,[],[],[],[],[],[],[],,652.0658,652.0659,0.032407407,-0.401851866,0,0,0,,0,114,114,139,1,3,word,REGULAR,print,regular_p.png,,,,,
,,,,31963,001,2025-10-19_23h50.40.807,HW_LDT_1,2024.2.4,Win32,59.88023952,,,,,,,,,,,,,,,,,,,,652.0663,652.2656,652.2657,652.7655,,,,,,,,,,,,,,1.2655,1,,,,,,,,,,,,,,z,,,,,,,,,,,,,,,116,0,652.7659,654.0321,z,1,1.2655,,[],[],[],[],[],[],[],654.0321,656.0326,656.0326,656.0328,[],[],[],[],[],[],[],,656.0328,656.0329,0.032407407,-0.401851866,0,0,0,,0,115,115,58,1,3,TL,nuremical,print,nuremical_p.png,,,,,
,,,,31963,001,2025-10-19_23h50.40.807,HW_LDT_1,2024.2.4,Win32,59.88023952,,,,,,,,,,,,,,,,,,,,656.0341,656.2327,656.2328,656.7328,,,,,,,,,,,,,,2.0913,1,,,,,,,,,,,,,,m,,,,,,,,,,,,,,,117,0,656.7331,658.8321,m,1,2.0913,,[],[],[],[],[],[],[],658.8322,660.8325,660.8326,660.8327,[],[],[],[],[],[],[],,660.8328,660.8329,0.032407407,-0.401851866,0,0,0,,0,116,116,127,1,3,word,ORIGINAL,cursive,original_c.png,,,,,
,,,,31963,001,2025-10-19_23h50.40.807,HW_LDT_1,2024.2.4,Win32,59.88023952,,,,,,,,,,,,,,,,,,,,660.8335,661.0328,661.0329,661.5324,,,,,,,,,,,,,,1.1474,1,,,,,,,,,,,,,,z,,,,,,,,,,,,,,,118,0,661.5328,662.6819,z,1,1.1474,,[],[],[],[],[],[],[],662.6819,664.6816,664.6817,664.6818,[],[],[],[],[],[],[],,664.6818,664.6818,0.032407407,-0.401851866,0,0,0,,0,117,117,49,1,3,TL,incidate,print,incidate_p.png,,,,,
,,,,31963,001,2025-10-19_23h50.40.807,HW_LDT_1,2024.2.4,Win32,59.88023952,,,,,,,,,,,,,,,,,,,,664.6824,664.882,664.882,665.3819,,,,,,,,,,,,,,3.0142,1,,,,,,,,,,,,,,m,,,,,,,,,,,,,,,119,1,665.3823,668.3983,m,1,3.0142,,[],[],[],[],[],[],[],668.3984,670.3991,670.3991,671.0991,[],[],[],[],[],[],[],z,671.0991,671.0993,0.032407407,-0.401851866,0,0,0,,0,118,118,109,1,3,word,GRATEFUL,cursive,grateful_c.png,0.6842,,,,
,,,,31963,001,2025-10-19_23h50.40.807,HW_LDT_1,2024.2.4,Win32,59.88023952,,,,,,,,,,,,,,,,,,,,671.0999,671.2991,671.2991,671.7987,,,,,,,,,,,,,,2.0005,0,,,,,,,,,,,,,,m,,,,,,,,,,,,,,,120,0,671.7991,673.8149,z,0,2.0005,,[],[],[],[],[],[],[],673.8149,675.8149,675.8149,675.8151,[],[],[],[],[],[],[],,675.8151,675.8152,0.032407407,-0.401851866,0,0,0,,0,119,119,148,1,3,word,SALINE,cursive,saline_c.png,,,,,
,,,,31963,001,2025-10-19_23h50.40.807,HW_LDT_1,2024.2.4,Win32,59.88023952,,,,,,,,,,,,,,,,,,,,675.8157,676.0158,676.0158,676.5148,,,,,,,,,,,,,,1.5898,1,,,,,,,,,,,,,,m,,,,,,,,,,,,,,,121,0,676.5151,678.1146,m,1,1.5898,,[],[],[],[],[],[],[],678.1147,680.1156,680.1156,680.1158,[],[],[],[],[],[],[],,680.1158,680.1159,0.032407407,-0.401851866,0,0,0,,0,120,120,157,1,3,word,VALIDITY,cursive,validity_c.png,,,,,
,,,,31963,001,2025-10-19_23h50.40.807,HW_LDT_1,2024.2.4,Win32,59.88023952,,,,,,,,,,,,,,,,,,,,680.1167,680.3151,680.3151,680.8152,,,,,,,,,,,,,,0.8723,0,,,,,,,,,,,,,,m,,,,,,,,,,,,,,,122,0,680.8157,681.6979,z,0,0.8723,,[],[],[],[],[],[],[],681.6981,683.6978,683.6979,683.698,[],[],[],[],[],[],[],,683.698,683.698,0.032407407,-0.401851866,0,0,0,,0,121,121,153,1,3,word,STOLEN,cursive,stolen_c.png,,,,,
,,,,31963,001,2025-10-19_23h50.40.807,HW_LDT_1,2024.2.4,Win32,59.88023952,,,,,,,,,,,,,,,,,,,,683.6985,683.8978,683.8979,684.3977,,,,,,,,,,,,,,1.2275,1,,,,,,,,,,,,,,m,,,,,,,,,,,,,,,123,0,684.398,685.6313,m,1,1.2275,,[],[],[],[],[],[],[],685.6313,687.6312,687.6312,687.6313,[],[],[],[],[],[],[],,687.6314,687.6315,0.032407407,-0.401851866,0,0,0,,0,122,122,86,1,3,word,BESIDE,cursive,beside_c.png,,,,,
,,,,31963,001,2025-10-19_23h50.40.807,HW_LDT_1,2024.2.4,Win32,59.88023952,,,,,,,,,,,,,,,,,,,,687.6323,687.831,687.831,688.331,,,,,,,,,,,,,,1.7296,1,,,,,,,,,,,,,,z,,,,,,,,,,,,,,,124,0,688.3312,690.0644,z,1,1.7296,,[],[],[],[],[],[],[],690.0645,692.0643,692.0643,692.0643,[],[],[],[],[],[],[],,692.0644,692.0645,0.032407407,-0.401851866,0,0,0,,0,123,123,59,1,3,TL,paficic,cursive,paficic_c.png,,,,,
,,,,31963,001,2025-10-19_23h50.40.807,HW_LDT_1,2024.2.4,Win32,59.88023952,,,,,,,,,,,,,,,,,,,,692.0652,692.2643,692.2643,692.7643,,,,,,,,,,,,,,1.0229,1,,,,,,,,,,,,,,z,,,,,,,,,,,,,,,125,0,692.7646,693.7976,z,1,1.0229,,[],[],[],[],[],[],[],693.7977,695.7975,695.7976,695.7976,[],[],[],[],[],[],[],,695.7977,695.7977,0.032407407,-0.401851866,0,0,0,,0,124,124,53,1,3,TL,marnigal,print,marnigal_p.png,,,,,
,,,,31963,001,2025-10-19_23h50.40.807,HW_LDT_1,2024.2.4,Win32,59.88023952,,,,,,,,,,,,,,,,,,,,695.7982,695.9975,695.9975,696.4975,,,,,,,,,,,,,,1.0209,1,,,,,,,,,,,,,,z,,,,,,,,,,,,,,,126,0,696.4978,697.5308,z,1,1.0209,,[],[],[],[],[],[],[],697.5308,699.5307,699.5307,699.5307,[],[],[],[],[],[],[],,699.5307,699.5308,0.032407407,-0.401851866,0,0,0,,0,125,125,28,1,3,RL,rovastic,cursive,rovastic_c.png,,,,,
,,,,31963,001,2025-10-19_23h50.40.807,HW_LDT_1,2024.2.4,Win32,59.88023952,,,,,,,,,,,,,,,,,,,,699.5314,699.7308,699.7308,700.2307,,,,,,,,,,,,,,1.1574,1,,,,,,,,,,,,,,z,,,,,,,,,,,,,,,127,0,700.2309,701.3974,z,1,1.1574,,[],[],[],[],[],[],[],701.3975,703.3979,703.3979,703.398,[],[],[],[],[],[],[],,703.3981,703.3982,0.032407407,-0.401851866,0,0,0,,0,126,126,13,1,3,RL,helicage,cursive,helicage_c.png,,,,,
,,,,31963,001,2025-10-19_23h50.40.807,HW_LDT_1,2024.2.4,Win32,59.88023952,,,,,,,,,,,,,,,,,,,,703.399,703.5978,703.5978,704.0978,,,,,,,,,,,,,,1.0601,1,,,,,,,,,,,,,,m,,,,,,,,,,,,,,,128,0,704.098,705.1639,m,1,1.0601,,[],[],[],[],[],[],[],705.164,707.1648,707.1649,707.1651,[],[],[],[],[],[],[],,707.1651,707.1652,0.038888931,-0.40370369,0,0,0,,0,127,127,156,1,3,word,TRIBUTE,print,tribute_p.png,,,,,
,,,,31963,001,2025-10-19_23h50.40.807,HW_LDT_1,2024.2.4,Win32,59.88023952,,,,,,,,,,,,,,,,,,,,707.1659,707.364,707.364,707.8645,,,,,,,,,,,,,,1.1183,1,,,,,,,,,,,,,,m,,,,,,,,,,,,,,,129,0,707.865,708.9978,m,1,1.1183,,[],[],[],[],[],[],[],708.9979,710.998,710.998,710.998,[],[],[],[],[],[],[],,710.9981,710.9982,0.029629672,-0.39444443,0,0,0,,0,128,128,134,1,3,word,QUALIFY,print,qualify_p.png,,,,,
,,,,31963,001,2025-10-19_23h50.40.807,HW_LDT_1,2024.2.4,Win32,59.88023952,,,,,,,,,,,,,,,,,,,,710.9989,711.1977,711.1978,711.697,,,,,,,,,,,,,,1.2355,1,,,,,,,,,,,,,,m,,,,,,,,,,,,,,,130,0,711.6973,712.9471,m,1,1.2355,,[],[],[],[],[],[],[],712.9472,714.9469,714.947,714.947,[],[],[],[],[],[],[],,714.947,714.9471,0.029629672,-0.39444443,0,0,0,,0,129,129,150,1,3,word,SENTIMENT,print,sentiment_p.png,,,,,
,,,,31963,001,2025-10-19_23h50.40.807,HW_LDT_1,2024.2.4,Win32,59.88023952,,,,,,,,,,,,,,,,,,,,714.9477,715.147,715.147,715.6469,,,,,,,,,,,,,,0.956,1,,,,,,,,,,,,,,m,,,,,,,,,,,,,,,131,0,715.6472,716.6136,m,1,0.956,,[],[],[],[],[],[],[],716.6137,718.6135,718.6136,718.6137,[],[],[],[],[],[],[],,718.6137,718.6138,0.029629672,-0.39444443,0,0,0,,0,130,130,94,1,3,word,CLINICAL,print,clinical_p.png,,,,,
,,,,31963,001,2025-10-19_23h50.40.807,HW_LDT_1,2024.2.4,Win32,59.88023952,,,,,,,,,,,,,,,,,,,,718.6144,718.8135,718.8135,719.3135,,,,,,,,,,,,,,1.0799,1,,,,,,,,,,,,,,z,,,,,,,,,,,,,,,132,0,719.3137,720.3967,z,1,1.0799,,[],[],[],[],[],[],[],720.3968,722.3968,722.3968,722.3969,[],[],[],[],[],[],[],,722.3969,722.3969,0.032407407,-0.396296325,0,0,0,,0,131,131,51,1,3,TL,liretal,print,liretal_p.png,,,,,
,,,,31963,001,2025-10-19_23h50.40.807,HW_LDT_1,2024.2.4,Win32,59.88023952,,,,,,,,,,,,,,,,,,,,722.3975,722.5966,722.5967,723.0966,,,,,,,,,,,,,,1.3191,1,,,,,,,,,,,,,,z,,,,,,,,,,,,,,,133,1,723.097,724.4301,z,1,1.3191,,[],[],[],[],[],[],[],724.4301,726.4301,726.4301,727.73,[],[],[],[],[],[],[],z,727.73,727.7301,0.032407407,-0.397222236,0,0,0,,0,132,132,12,1,3,RL,formuke,cursive,formuke_c.png,1.2842,,,,
,,,,31963,001,2025-10-19_23h50.40.807,HW_LDT_1,2024.2.4,Win32,59.88023952,,,,,,,,,,,,,,,,,,,,727.7307,727.9299,727.93,728.4299,,,,,,,,,,,,,,2.2404,1,,,,,,,,,,,,,,m,,,,,,,,,,,,,,,134,0,728.4302,730.68,m,1,2.2404,,[],[],[],[],[],[],[],730.68,732.6797,732.6798,732.6799,[],[],[],[],[],[],[],,732.6799,732.6799,0.032407407,-0.397222236,0,0,0,,0,133,133,100,1,3,word,DECADE,cursive,decade_c.png,,,,,
,,,,31963,001,2025-10-19_23h50.40.807,HW_LDT_1,2024.2.4,Win32,59.88023952,,,,,,,,,,,,,,,,,,,,732.6808,732.8797,732.8798,733.3798,,,,,,,,,,,,,,0.8507,1,,,,,,,,,,,,,,m,,,,,,,,,,,,,,,135,0,733.3801,734.2464,m,1,0.8507,,[],[],[],[],[],[],[],734.2465,736.2463,736.2463,736.2464,[],[],[],[],[],[],[],,736.2464,736.2464,0.032407407,-0.397222236,0,0,0,,0,134,134,130,1,3,word,POLICY,print,policy_p.png,,,,,
,,,,31963,001,2025-10-19_23h50.40.807,HW_LDT_1,2024.2.4,Win32,59.88023952,,,,,,,,,,,,,,,,,,,,736.247,736.4464,736.4464,736.9462,,,,,,,,,,,,,,0.8209,1,,,,,,,,,,,,,,z,,,,,,,,,,,,,,,136,0,736.9465,737.7797,z,1,0.8209,,[],[],[],[],[],[],[],737.7797,739.7796,739.7796,739.7797,[],[],[],[],[],[],[],,739.7797,739.7798,0.032407407,-0.397222236,0,0,0,,0,135,135,26,1,3,RL,repifion,print,repifion_p.png,,,,,
,,,,31963,001,2025-10-19_23h50.40.807,HW_LDT_1,2024.2.4,Win32,59.88023952,,,,,,,,,,,,,,,,,,,,739.7803,739.9795,739.9795,740.4796,,,,,,,,,,,,,,1.1717,1,,,,,,,,,,,,,,z,,,,,,,,,,,,,,,137,0,740.4799,741.6629,z,1,1.1717,,[],[],[],[],[],[],[],741.663,743.663,743.663,743.6631,[],[],[],[],[],[],[],,743.6631,743.6632,0.032407407,-0.397222236,0,0,0,,0,136,136,46,1,3,TL,distupe,print,distupe_p.png,,,,,
,,,,31963,001,2025-10-19_23h50.40.807,HW_LDT_1,2024.2.4,Win32,59.88023952,,,,,,,,,,,,,,,,,,,,743.664,743.8626,743.8627,744.3628,,,,,,,,,,,,,,0.7459,1,,,,,,,,,,,,,,z,,,,,,,,,,,,,,,138,0,744.363,745.1128,z,1,0.7459,,[],[],[],[],[],[],[],745.1128,747.1127,747.1127,747.1128,[],[],[],[],[],[],[],,747.1128,747.1128,0.032407407,-0.397222236,0,0,0,,0,137,137,65,1,3,TL,resufal,print,resufal_p.png,,,,,
,,,,31963,001,2025-10-19_23h50.40.807,HW_LDT_1,2024.2.4,Win32,59.88023952,,,,,,,,,,,,,,,,,,,,747.1132,747.3127,747.3127,747.8127,,,,,,,,,,,,,,1.6954,1,,,,,,,,,,,,,,z,,,,,,,,,,,,,,,139,0,747.813,749.5126,z,1,1.6954,,[],[],[],[],[],[],[],749.5126,751.5125,751.5125,751.5127,[],[],[],[],[],[],[],,751.5127,751.5127,0.032407407,-0.397222236,0,0,0,,0,138,138,78,1,3,TL,vecolity,cursive,vecolity_c.png,,,,,
,,,,31963,001,2025-10-19_23h50.40.807,HW_LDT_1,2024.2.4,Win32,59.88023952,,,,,,,,,,,,,,,,,,,,751.5133,751.7125,751.7126,752.2126,,,,,,,,,,,,,,1.5989,1,,,,,,,,,,,,,,z,,,,,,,,,,,,,,,140,0,752.2129,753.8125,z,1,1.5989,,[],[],[],[],[],[],[],753.8126,755.8125,755.8125,755.8126,[],[],[],[],[],[],[],,755.8127,755.8127,0.032407407,-0.397222236,0,0,0,,0,139,139,57,1,3,TL,moredate,cursive,moredate_c.png,,,,,
,,,,31963,001,2025-10-19_23h50.40.807,HW_LDT_1,2024.2.4,Win32,59.88023952,,,,,,,,,,,,,,,,,,,,755.8134,756.0124,756.0125,756.5124,,,,,,,,,,,,,,0.9492,1,,,,,,,,,,,,,,z,,,,,,,,,,,,,,,141,1,756.5125,757.4624,z,1,0.9492,,[],[],[],[],[],[],[],757.4624,759.4623,759.4623,760.9457,[],[],[],[],[],[],[],m,760.9457,760.9458,0.032407407,-0.397222236,0,0,0,,0,140,140,10,1,3,RL,efibor,print,efibor_p.png,1.4756,,,,
,,,,31963,001,2025-10-19_23h50.40.807,HW_LDT_1,2024.2.4,Win32,59.88023952,,,,,,,,,,,,,,,,,,,,760.9465,761.1456,761.1456,761.6457,,,,,,,,,,,,,,3.4249,0,,,,,,,,,,,,,,m,,,,,,,,,,,,,,,142,0,761.6459,765.079,z,0,3.4249,,[],[],[],[],[],[],[],765.079,767.0789,767.0789,767.079,[],[],[],[],[],[],[],,767.079,767.0792,0.029629672,-0.404629672,0,0,0,,0,141,141,117,1,3,word,MARINE,cursive,marine_c.png,,,,,
,,,,31963,001,2025-10-19_23h50.40.807,HW_LDT_1,2024.2.4,Win32,59.88023952,,,,,,,,,,,,,,,,,,,,767.0799,767.2788,767.2788,767.7788,,,,,,,,,,,,,,0.7394,1,,,,,,,,,,,,,,m,,,,,,,,,,,,,,,143,1,767.7791,768.5289,m,1,0.7394,,[],[],[],[],[],[],[],768.5289,770.5287,770.5287,771.8953,[],[],[],[],[],[],[],m,771.8954,771.8955,0.029629672,-0.40370369,0,0,0,,0,142,142,97,1,3,word,COVERAGE,print,coverage_p.png,1.3515,,,,
,,,,31963,001,2025-10-19_23h50.40.807,HW_LDT_1,2024.2.4,Win32,59.88023952,,,,,,,,,,,,,,,,,,,,771.896,772.0954,772.0954,772.5953,,,,,,,,,,,,,,0.8947,1,,,,,,,,,,,,,,m,,,,,,,,,,,,,,,144,0,772.5955,773.4954,m,1,0.8947,,[],[],[],[],[],[],[],773.4954,775.4953,775.4953,775.4954,[],[],[],[],[],[],[],,775.4954,775.4955,0.02407406,-0.414814843,0,0,0,,0,143,143,137,1,3,word,RAPIDLY,print,rapidly_p.png,,,,,
,,,,31963,001,2025-10-19_23h50.40.807,HW_LDT_1,2024.2.4,Win32,59.88023952,,,,,,,,,,,,,,,,,,,,775.4962,775.6953,775.6953,776.1953,,,,,,,,,,,,,,0.603,1,,,,,,,,,,,,,,m,,,,,,,,,,,,,,,145,0,776.1956,776.8119,m,1,0.603,,[],[],[],[],[],[],[],776.8119,778.8118,778.8118,778.812,[],[],[],[],[],[],[],,778.812,778.812,0.02407406,-0.410185213,0,0,0,,0,144,144,146,1,3,word,RETIRE,print,retire_p.png,,,,,
,,,,31963,001,2025-10-19_23h50.40.807,HW_LDT_1,2024.2.4,Win32,59.88023952,,,,,,,,,,,,,,,,,,,,778.8126,779.0118,779.0118,779.5119,,,,,,,,,,,,,,1.4411,1,,,,,,,,,,,,,,m,,,,,,,,,,,,,,,146,0,779.5122,780.9617,m,1,1.4411,,[],[],[],[],[],[],[],780.9618,782.9617,782.9617,782.9618,[],[],[],[],[],[],[],,782.9619,782.9619,0.02407406,-0.410185213,0,0,0,,0,145,145,122,1,3,word,MOBILE,cursive,mobile_c.png,,,,,
,,,,31963,001,2025-10-19_23h50.40.807,HW_LDT_1,2024.2.4,Win32,59.88023952,,,,,,,,,,,,,,,,,,,,782.9625,783.1617,783.1617,783.6617,,,,,,,,,,,,,,0.6518,1,,,,,,,,,,,,,,m,,,,,,,,,,,,,,,147,1,783.662,784.3283,m,1,0.6518,,[],[],[],[],[],[],[],784.3284,786.3283,786.3283,786.9783,[],[],[],[],[],[],[],m,786.9783,786.9783,0.02407406,-0.410185213,0,0,0,,0,146,146,132,1,3,word,PROPOSAL,print,proposal_p.png,0.6344,,,,
,,,,31963,001,2025-10-19_23h50.40.807,HW_LDT_1,2024.2.4,Win32,59.88023952,,,,,,,,,,,,,,,,,,,,786.979,787.1781,787.1782,787.6782,,,,,,,,,,,,,,2.9013,1,,,,,,,,,,,,,,z,,,,,,,,,,,,,,,148,0,787.6785,790.5949,z,1,2.9013,,[],[],[],[],[],[],[],790.5949,792.5947,792.5947,792.5949,[],[],[],[],[],[],[],,792.5949,792.5949,0.02407406,-0.410185213,0,0,0,,0,147,147,17,1,3,RL,motide,cursive,motide_c.png,,,,,
,,,,31963,001,2025-10-19_23h50.40.807,HW_LDT_1,2024.2.4,Win32,59.88023952,,,,,,,,,,,,,,,,,,,,792.5956,792.7948,792.7948,793.2946,,,,,,,,,,,,,,0.9061,1,,,,,,,,,,,,,,z,,,,,,,,,,,,,,,149,0,793.2947,794.2114,z,1,0.9061,,[],[],[],[],[],[],[],794.2115,796.2113,796.2113,796.2114,[],[],[],[],[],[],[],,796.2115,796.2115,0.02407406,-0.410185213,0,0,0,,0,148,148,75,1,3,TL,sloten,cursive,sloten_c.png,,,,,
,,,,31963,001,2025-10-19_23h50.40.807,HW_LDT_1,2024.2.4,Win32,59.88023952,,,,,,,,,,,,,,,,,,,,796.212,796.4112,796.4112,796.9112,,,,,,,,,,,,,,1.0652,1,,,,,,,,,,,,,,m,,,,,,,,,,,,,,,150,0,796.9114,797.9778,m,1,1.0652,,[],[],[],[],[],[],[],797.9778,799.9778,799.9778,799.978,[],[],[],[],[],[],[],,799.978,799.9781,0.02407406,-0.410185213,0,0,0,,0,149,149,91,1,3,word,CARDINAL,print,cardinal_p.png,,,,,
,,,,31963,001,2025-10-19_23h50.40.807,HW_LDT_1,2024.2.4,Win32,59.88023952,,,,,,,,,,,,,,,,,,,,799.9789,800.1778,800.1779,800.6779,,,,,,,,,,,,,,0.8842,1,,,,,,,,,,,,,,m,,,,,,,,,,,,,,,151,0,800.6782,801.5779,m,1,0.8842,,[],[],[],[],[],[],[],801.5779,803.5777,803.5777,803.5778,[],[],[],[],[],[],[],,803.5779,803.5779,0.02407406,-0.410185213,0,0,0,,0,150,150,115,1,3,word,LOGICAL,cursive,logical_c.png,,,,,
,,,,31963,001,2025-10-19_23h50.40.807,HW_LDT_1,2024.2.4,Win32,59.88023952,,,,,,,,,,,,,,,,,,,,803.5785,803.7778,803.7778,804.2776,,,,,,,,,,,,,,0.6195,1,,,,,,,,,,,,,,m,,,,,,,,,,,,,,,152,0,804.2778,804.9113,m,1,0.6195,,[],[],[],[],[],[],[],804.9113,806.911,806.9111,806.9112,[],[],[],[],[],[],[],,806.9113,806.9114,0.02407406,-0.410185213,0,0,0,,0,151,151,129,1,3,word,PARENT,print,parent_p.png,,,,,
,,,,31963,001,2025-10-19_23h50.40.807,HW_LDT_1,2024.2.4,Win32,59.88023952,,,,,,,,,,,,,,,,,,,,806.912,807.1111,807.1111,807.6109,,,,,,,,,,,,,,0.6418,0,,,,,,,,,,,,,,z,,,,,,,,,,,,,,,153,0,807.6112,808.261,m,0,0.6418,,[],[],[],[],[],[],[],808.2611,810.261,810.261,810.2612,[],[],[],[],[],[],[],,810.2612,810.2613,0.025000042,-0.409259302,0,0,0,,0,152,152,55,1,3,TL,mecidine,print,mecidine_p.png,,,,,
,,,,31963,001,2025-10-19_23h50.40.807,HW_LDT_1,2024.2.4,Win32,59.88023952,,,,,,,,,,,,,,,,,,,,810.262,810.4609,810.461,810.9609,,,,,,,,,,,,,,1.1371,1,,,,,,,,,,,,,,m,,,,,,,,,,,,,,,154,0,810.9611,812.1109,m,1,1.1371,,[],[],[],[],[],[],[],812.111,814.1109,814.1109,814.111,[],[],[],[],[],[],[],,814.1111,814.1111,0.025000042,-0.409259302,0,0,0,,0,153,153,143,1,3,word,REMOVAL,cursive,removal_c.png,,,,,
,,,,31963,001,2025-10-19_23h50.40.807,HW_LDT_1,2024.2.4,Win32,59.88023952,,,,,,,,,,,,,,,,,,,,814.1118,814.3108,814.3108,814.8109,,,,,,,,,,,,,,0.8088,1,,,,,,,,,,,,,,z,,,,,,,,,,,,,,,155,0,814.8111,815.6275,z,1,0.8088,,[],[],[],[],[],[],[],815.6276,817.6275,817.6275,817.6275,[],[],[],[],[],[],[],,817.6275,817.6276,0.02407406,-0.412037037,0,0,0,,0,154,154,21,1,3,RL,potugar,print,potugar_p.png,,,,,
,,,,31963,001,2025-10-19_23h50.40.807,HW_LDT_1,2024.2.4,Win32,59.88023952,,,,,,,,,,,,,,,,,,,,817.6283,817.8275,817.8275,818.3272,,,,,,,,,,,,,,1.2237,1,,,,,,,,,,,,,,m,,,,,,,,,,,,,,,156,0,818.3275,819.5606,m,1,1.2237,,[],[],[],[],[],[],[],819.5607,821.5606,821.5606,821.5607,[],[],[],[],[],[],[],,821.5607,821.5608,0.023148148,-0.413888931,0,0,0,,0,155,155,116,1,3,word,MARGINAL,print,marginal_p.png,,,,,
,,,,31963,001,2025-10-19_23h50.40.807,HW_LDT_1,2024.2.4,Win32,59.88023952,,,,,,,,,,,,,,,,,,,,821.5614,821.7604,821.7604,822.2606,,,,,,,,,,,,,,0.8368,1,,,,,,,,,,,,,,m,,,,,,,,,,,,,,,157,0,822.261,823.1106,m,1,0.8368,,[],[],[],[],[],[],[],823.1106,825.1105,825.1105,825.1105,[],[],[],[],[],[],[],,825.1105,825.1105,0.023148148,-0.413888931,0,0,0,,0,156,156,102,1,3,word,DENSITY,print,density_p.png,,,,,
,,,,31963,001,2025-10-19_23h50.40.807,HW_LDT_1,2024.2.4,Win32,59.88023952,,,,,,,,,,,,,,,,,,,,825.111,825.3106,825.3106,825.8106,,,,,,,,,,,,,,0.921,1,,,,,,,,,,,,,,m,,,,,,,,,,,,,,,158,1,825.8109,826.7437,m,1,0.921,,[],[],[],[],[],[],[],826.7438,828.7437,828.7437,830.0436,[],[],[],[],[],[],[],z,830.0437,830.0437,0.023148148,-0.413888931,0,0,0,,0,157,157,145,1,3,word,RESUME,cursive,resume_c.png,1.2971,,,,
,,,,31963,001,2025-10-19_23h50.40.807,HW_LDT_1,2024.2.4,Win32,59.88023952,,,,,,,,,,,,,,,,,,,,830.0443,830.2436,830.2437,830.7436,,,,,,,,,,,,,,1.1155,1,,,,,,,,,,,,,,z,,,,,,,,,,,,,,,159,0,830.7438,831.8603,z,1,1.1155,,[],[],[],[],[],[],[],831.8603,833.8602,833.8603,833.8604,[],[],[],[],[],[],[],,833.8605,833.8606,0.023148148,-0.413888931,0,0,0,,0,158,158,69,1,3,TL,redisent,cursive,redisent_c.png,,,,,
,,,,31963,001,2025-10-19_23h50.40.807,HW_LDT_1,2024.2.4,Win32,59.88023952,,,,,,,,,,,,,,,,,,,,833.8611,834.0602,834.0603,834.5603,,,,,,,,,,,,,,0.8973,1,,,,,,,,,,,,,,m,,,,,,,,,,,,,,,160,0,834.5608,835.4602,m,1,0.8973,,[],[],[],[],[],[],[],835.4603,837.4609,837.4609,837.461,[],[],[],[],[],[],[],,837.4611,837.4612,0.023148148,-0.413888931,0,0,0,,0,159,159,106,1,3,word,ELABORATE,print,elaborate_p.png,,,,,
,,,,31963,001,2025-10-19_23h50.40.807,HW_LDT_1,2024.2.4,Win32,59.88023952,,,,,,,,,,,,,,,,,,,,,,,,,,,,,,,,,,,,,,,,,,,,,,,,,,,,,,,,,,,,,,,,,,,,,,,,,,,,,,,,,,,,,,,,,,,,,,,,,,,,,,,,,,,,,,,,,,,837.4645,842.4605
