counterbalance_lists.group,counterbalance_lists.remaining,get_list.started,get_list.stopped,participant,session,date,expName,psychopyVersion,OS,frameRate,Instructions.started,Instructions.stopped,key_resp.keys,key_resp.rt,key_resp.duration,instr_done_touch.x,instr_done_touch.y,instr_done_touch.leftButton,instr_done_touch.midButton,instr_done_touch.rightButton,start_instr.thisRepN,start_instr.thisTrialN,start_instr.thisN,start_instr.thisIndex,start_instr.ran,pageN,phase,instruct_text,has_image,instruct_image,showProgress.started,showProgress.stopped,fix.started,fix.stopped,prac.started,prac.stopped,response.keys,response.corr,response.rt,response.duration,touch_resp.x,touch_resp.y,touch_resp.leftButton,touch_resp.midButton,touch_resp.rightButton,touch_resp.time,touch_resp.clicked_name,rt,corr,feedback.started,feedback.stopped,trials.thisRepN,trials.thisTrialN,trials.thisN,trials.thisIndex,trials.ran,TrialID,StimulusType,Condition,PrimeDuration,Prime,Target,corrAns,Instructions_expt.started,Instructions_expt.stopped,key_resp_3.keys,instr_done_touch_3.x,instr_done_touch_3.y,instr_done_touch_3.leftButton,instr_done_touch_3.midButton,instr_done_touch_3.rightButton,instr_done_touch_3.clicked_name,instr_experiment.thisRepN,instr_experiment.thisTrialN,instr_experiment.thisN,instr_experiment.thisIndex,instr_experiment.ran,trialID,flag,maintask.started,maintask.stopped,key_resp_2.keys,key_resp_2.corr,key_resp_2.rt,key_resp_2.duration,targ_click.x,targ_click.y,targ_click.leftButton,targ_click.midButton,targ_click.rightButton,targ_click.time,targ_click.clicked_name,ITI.started,ITI.stopped,probe.started,probe.stopped,click_probe.x,click_probe.y,click_probe.leftButton,click_probe.midButton,click_probe.rightButton,click_probe.time,click_probe.clicked_name,key_resp_probe.keys,Break.started,Break.stopped,break_done_touch.x,break_done_touch.y,break_done_touch.leftButton,break_done_touch.midButton,break_done_touch.rightButton,break_done_keyboard.keys,list4_trials.thisRepN,list4_trials.thisTrialN,list4_trials.thisN,list4_trials.thisIndex,list4_trials.ran,list_id,item_type,string,font,stim_file,key_resp_probe.rt,key_resp_probe.duration,break_done_keyboard.rt,break_done_keyboard.duration,End.started,End.stopped
list4,,0.7337,0.7339,31982,001,2025-10-17_11h17.30.492,HW_LDT_1,2024.2.4,MacIntel,63.29113924,,,,,,,,,,,,,,,,,,,,,,,,,,,,,,,,,,,,,,,,,,,,,,,,,,,,,,,,,,,,,,,,,,,,,,,,,,,,,,,,,,,,,,,,,,,,,,,,,,,,,,,,,,,,,,,,,,,,,,
,,,,31982,001,2025-10-17_11h17.30.492,HW_LDT_1,2024.2.4,MacIntel,63.29113924,0.7598,18.7175,space,17.9295,,0.018164063,-0.389592014,0,0,0,0,0,0,0,1,1,instructions,"INSTRUCTIONS
At the start of each trial, look at the plus sign  (+) in the center of the screen.  This tells you that a trial is about to begin and where to look. Second, the plus sign will disappear and a string of letters will appear. Your task is to determine if the string of letters is a word or not. If the item is a word press the M key (on keyboard)  or touch the word button (phone/tablet).  If the item is not a word,  press the  Z key (on keyboard)  or touch the nonword button (on phone/tablet). The items will be presented for a short time. 
Press the space bar or touch  continue.",0,,,,,,,,,,,,,,,,,,,,,,,,,,,,,,,,,,,,,,,,,,,,,,,,,,,,,,,,,,,,,,,,,,,,,,,,,,,,,,,,,,,,,,,,,,,,,,,,,,,
,,,,31982,001,2025-10-17_11h17.30.492,HW_LDT_1,2024.2.4,MacIntel,63.29113924,18.7205,23.1299,space,4.3825,,0.018164063,-0.389592014,0,0,0,0,1,1,1,1,2,instructions,"If your device has a keyboard, press the 'Z' key for nonwords and the 'M' key for words.





Press the space bar or touch the button below to continue.",0,keyboard-example.gif,,,,,,,,,,,,,,,,,,,,,,,,,,,,,,,,,,,,,,,,,,,,,,,,,,,,,,,,,,,,,,,,,,,,,,,,,,,,,,,,,,,,,,,,,,,,,,,,,,
,,,,31982,001,2025-10-17_11h17.30.492,HW_LDT_1,2024.2.4,MacIntel,63.29113924,23.1318,25.2633,space,2.1077,,0.017647569,-0.389592014,0,0,0,0,2,2,2,1,3,instructions,"If you are using a touchscreen only device, use the buttons on the screen. Do not use the mouse.





Press the space bar or touch the button below to continue.",0,touchscreen-example.gif,,,,,,,,,,,,,,,,,,,,,,,,,,,,,,,,,,,,,,,,,,,,,,,,,,,,,,,,,,,,,,,,,,,,,,,,,,,,,,,,,,,,,,,,,,,,,,,,,,
,,,,31982,001,2025-10-17_11h17.30.492,HW_LDT_1,2024.2.4,MacIntel,63.29113924,25.266,31.912,space,6.6201,,0.017647569,-0.389592014,0,0,0,0,3,3,3,1,4,instructions,"It is very important that you respond as quickly and accurately as possible, as each letter string will only be on the screen for two seconds. If you do not respond within this time, the message 'Too slow!' will be displayed and the experiment will progress to the next letter string. The first 20 trials will be practice trials and you will receive feedback on your answers. 

Press the space bar or touch the button below to start the practice trials.",0,,,,,,,,,,,,,,,,,,,,,,,,,,,,,,,,,,,,,,,,,,,,,,,,,,,,,,,,,,,,,,,,,,,,,,,,,,,,,,,,,,,,,,,,,,,,,,,,,,,
,,,,31982,001,2025-10-17_11h17.30.492,HW_LDT_1,2024.2.4,MacIntel,63.29113924,,,,,,,,,,,,,,,,,,,,,31.9458,32.1127,32.113,32.6115,32.6116,34.4789,m,1,1.8454,,[],[],[],[],[],[],[],1.8454,1,34.4794,34.9794,0,0,0,6,1,1007,WORD,UN,16,tropic,ZOMBIE,m,,,,,,,,,,,,,,,,,,,,,,,,,,,,,,,,,,,,,,,,,,,,,,,,,,,,,,,,,,,,,,,,,
,,,,31982,001,2025-10-17_11h17.30.492,HW_LDT_1,2024.2.4,MacIntel,63.29113924,,,,,,,,,,,,,,,,,,,,,34.981,35.1794,35.1795,35.6784,35.6794,36.6117,z,1,0.9162,,[],[],[],[],[],[],[],0.9162,1,36.6118,37.1127,0,1,1,10,1,1011,NW,"ID",16,inlade,INLADE,z,,,,,,,,,,,,,,,,,,,,,,,,,,,,,,,,,,,,,,,,,,,,,,,,,,,,,,,,,,,,,,,,,
,,,,31982,001,2025-10-17_11h17.30.492,HW_LDT_1,2024.2.4,MacIntel,63.29113924,,,,,,,,,,,,,,,,,,,,,37.1142,37.3123,37.3123,37.8128,37.8139,38.3461,m,1,0.5132,,[],[],[],[],[],[],[],0.5132,1,38.3464,38.846,0,2,2,7,1,1008,WORD,UN,16,hurdle,VOLUME,m,,,,,,,,,,,,,,,,,,,,,,,,,,,,,,,,,,,,,,,,,,,,,,,,,,,,,,,,,,,,,,,,,
,,,,31982,001,2025-10-17_11h17.30.492,HW_LDT_1,2024.2.4,MacIntel,63.29113924,,,,,,,,,,,,,,,,,,,,,38.8478,39.0459,39.046,39.5456,39.5461,40.1793,z,1,0.6146,,[],[],[],[],[],[],[],0.6146,1,40.1794,40.6793,0,3,3,8,1,1009,NW,"ID",33,aslert,ASLERT,z,,,,,,,,,,,,,,,,,,,,,,,,,,,,,,,,,,,,,,,,,,,,,,,,,,,,,,,,,,,,,,,,,
,,,,31982,001,2025-10-17_11h17.30.492,HW_LDT_1,2024.2.4,MacIntel,63.29113924,,,,,,,,,,,,,,,,,,,,,40.6806,40.8793,40.8794,41.3793,41.3802,42.079,z,1,0.69,,[],[],[],[],[],[],[],0.69,1,42.079,42.5784,0,4,4,12,1,1013,NW,UN,33,adveil,SPRINY,z,,,,,,,,,,,,,,,,,,,,,,,,,,,,,,,,,,,,,,,,,,,,,,,,,,,,,,,,,,,,,,,,,
,,,,31982,001,2025-10-17_11h17.30.492,HW_LDT_1,2024.2.4,MacIntel,63.29113924,,,,,,,,,,,,,,,,,,,,,42.5797,42.7793,42.7794,43.2783,43.2791,43.8959,m,1,0.5959,,[],[],[],[],[],[],[],0.5959,1,43.8961,44.3961,0,5,5,3,1,1004,WORD,"ID",16,matrix,MATRIX,m,,,,,,,,,,,,,,,,,,,,,,,,,,,,,,,,,,,,,,,,,,,,,,,,,,,,,,,,,,,,,,,,,
,,,,31982,001,2025-10-17_11h17.30.492,HW_LDT_1,2024.2.4,MacIntel,63.29113924,,,,,,,,,,,,,,,,,,,,,44.3975,44.596,44.5961,45.095,45.0958,45.7793,m,0,0.6753,,[],[],[],[],[],[],[],0.6753,0,45.7801,46.2792,0,6,6,9,1,1010,NW,"ID",33,fariny,FARINY,z,,,,,,,,,,,,,,,,,,,,,,,,,,,,,,,,,,,,,,,,,,,,,,,,,,,,,,,,,,,,,,,,,
,,,,31982,001,2025-10-17_11h17.30.492,HW_LDT_1,2024.2.4,MacIntel,63.29113924,,,,,,,,,,,,,,,,,,,,,46.2809,46.4793,46.4794,46.9783,46.9791,47.7451,m,1,0.7474,,[],[],[],[],[],[],[],0.7474,1,47.7459,48.246,0,7,7,4,1,1005,WORD,UN,33,abound,SQUEAK,m,,,,,,,,,,,,,,,,,,,,,,,,,,,,,,,,,,,,,,,,,,,,,,,,,,,,,,,,,,,,,,,,,
,,,,31982,001,2025-10-17_11h17.30.492,HW_LDT_1,2024.2.4,MacIntel,63.29113924,,,,,,,,,,,,,,,,,,,,,48.2475,48.4448,48.4449,48.9459,48.9469,49.7126,z,1,0.7478,,[],[],[],[],[],[],[],0.7478,1,49.7127,50.2127,0,8,8,11,1,1012,NW,"ID",16,rashet,RASHET,z,,,,,,,,,,,,,,,,,,,,,,,,,,,,,,,,,,,,,,,,,,,,,,,,,,,,,,,,,,,,,,,,,
,,,,31982,001,2025-10-17_11h17.30.492,HW_LDT_1,2024.2.4,MacIntel,63.29113924,,,,,,,,,,,,,,,,,,,,,50.214,50.4126,50.4126,50.9127,50.9135,51.6127,z,1,0.6791,,[],[],[],[],[],[],[],0.6791,1,51.6128,52.1123,0,9,9,14,1,1015,NW,UN,16,miaber,THRALE,z,,,,,,,,,,,,,,,,,,,,,,,,,,,,,,,,,,,,,,,,,,,,,,,,,,,,,,,,,,,,,,,,,
,,,,31982,001,2025-10-17_11h17.30.492,HW_LDT_1,2024.2.4,MacIntel,63.29113924,,,,,,,,,,,,,,,,,,,,,52.1128,52.3125,52.3125,52.8124,52.8131,53.446,z,1,0.6119,,[],[],[],[],[],[],[],0.6119,1,53.4461,53.9451,0,10,10,15,1,1016,NW,UN,16,mushed,WHAISE,z,,,,,,,,,,,,,,,,,,,,,,,,,,,,,,,,,,,,,,,,,,,,,,,,,,,,,,,,,,,,,,,,,
,,,,31982,001,2025-10-17_11h17.30.492,HW_LDT_1,2024.2.4,MacIntel,63.29113924,,,,,,,,,,,,,,,,,,,,,53.9464,54.1458,54.1458,54.6459,54.6468,55.2116,m,1,0.5517,,[],[],[],[],[],[],[],0.5517,1,55.2117,55.7127,0,11,11,5,1,1006,WORD,UN,33,frenzy,OBTAIN,m,,,,,,,,,,,,,,,,,,,,,,,,,,,,,,,,,,,,,,,,,,,,,,,,,,,,,,,,,,,,,,,,,
,,,,31982,001,2025-10-17_11h17.30.492,HW_LDT_1,2024.2.4,MacIntel,63.29113924,,,,,,,,,,,,,,,,,,,,,55.7139,55.9115,55.9115,56.4125,56.4135,57.6292,m,1,1.1942,,[],[],[],[],[],[],[],1.1942,1,57.6292,58.1294,0,12,12,1,1,1002,WORD,"ID",33,adjust,ADJUST,m,,,,,,,,,,,,,,,,,,,,,,,,,,,,,,,,,,,,,,,,,,,,,,,,,,,,,,,,,,,,,,,,,
,,,,31982,001,2025-10-17_11h17.30.492,HW_LDT_1,2024.2.4,MacIntel,63.29113924,,,,,,,,,,,,,,,,,,,,,58.1307,58.3291,58.3292,58.8283,58.8291,59.496,z,1,0.6504,,[],[],[],[],[],[],[],0.6504,1,59.4961,59.9958,0,13,13,13,1,1014,NW,UN,33,winfer,ROUPET,z,,,,,,,,,,,,,,,,,,,,,,,,,,,,,,,,,,,,,,,,,,,,,,,,,,,,,,,,,,,,,,,,,
,,,,31982,001,2025-10-17_11h17.30.492,HW_LDT_1,2024.2.4,MacIntel,63.29113924,,,,,,,,,,,,,,,,,,,,,59.9971,60.1958,60.1959,60.695,60.696,61.2958,m,1,0.5804,,[],[],[],[],[],[],[],0.5804,1,61.2959,61.7951,0,14,14,2,1,1003,WORD,"ID",16,almond,ALMOND,m,,,,,,,,,,,,,,,,,,,,,,,,,,,,,,,,,,,,,,,,,,,,,,,,,,,,,,,,,,,,,,,,,
,,,,31982,001,2025-10-17_11h17.30.492,HW_LDT_1,2024.2.4,MacIntel,63.29113924,,,,,,,,,,,,,,,,,,,,,61.7962,61.9949,61.9949,62.4959,62.4967,63.3958,m,1,0.8895,,[],[],[],[],[],[],[],0.8895,1,63.3959,63.8949,0,15,15,0,1,1001,WORD,"ID",33,utopia,UTOPIA,m,,,,,,,,,,,,,,,,,,,,,,,,,,,,,,,,,,,,,,,,,,,,,,,,,,,,,,,,,,,,,,,,,
,,,,31982,001,2025-10-17_11h17.30.492,HW_LDT_1,2024.2.4,MacIntel,63.29113924,,,,,,,,,,,,,,,,1,end_of_practice,"You have completed the practice trials. During the experimental trials, you will not receive feedback. On some trials you will be asked to report whether the item you just saw was in cursive or print. 
Before you begin, please ensure that you are in a comfortable and quiet location and will not be disturbed for about 15 minutes, as we cannot use your data if you do not complete all the trials. 
 When you are ready to start the experimental trials, please press space or touch the button below.",,,,,,,,,,,,,,,,,,,,,,,,,,,,,,,,,,,,63.9021,66.7622,,0.004249132,-0.39328125,1,0,0,instr_done_button_3,0,0,0,0,1,,,,,,,,,,,,,,,,,,,,,,,,,,,,,,,,,,,,,,,,,,,,,,,,,,,
,,,,31982,001,2025-10-17_11h17.30.492,HW_LDT_1,2024.2.4,MacIntel,63.29113924,,,,,,,,,,,,,,,,,,,,,66.7827,66.9615,66.9615,67.4626,,,,,,,,,,,,,,1.649,1,,,,,,,,,,,,,,z,,,,,,,,,,,,,,,1,0,67.4643,69.1288,z,1,1.649,,[],[],[],[],[],[],[],69.1291,71.1294,71.1298,71.1337,[],[],[],[],[],[],[],,71.1339,71.1355,0.004249132,-0.39328125,0,0,0,,0,0,0,23,1,4,RL,linefal,cursive,linefal_c.png,,,,,,
,,,,31982,001,2025-10-17_11h17.30.492,HW_LDT_1,2024.2.4,MacIntel,63.29113924,,,,,,,,,,,,,,,,,,,,,71.1364,71.3292,71.3292,71.8283,,,,,,,,,,,,,,0.9393,1,,,,,,,,,,,,,,z,,,,,,,,,,,,,,,2,0,71.829,72.7794,z,1,0.9393,,[],[],[],[],[],[],[],72.7795,74.7783,74.7783,74.7788,[],[],[],[],[],[],[],,74.7788,74.779,0.004249132,-0.39328125,0,0,0,,0,1,1,11,1,4,RL,clisimal,print,clisimal_p.png,,,,,,
,,,,31982,001,2025-10-17_11h17.30.492,HW_LDT_1,2024.2.4,MacIntel,63.29113924,,,,,,,,,,,,,,,,,,,,,74.7802,74.9792,74.9793,75.4783,,,,,,,,,,,,,,0.8369,1,,,,,,,,,,,,,,z,,,,,,,,,,,,,,,3,0,75.4789,76.3292,z,1,0.8369,,[],[],[],[],[],[],[],76.3294,78.329,78.3291,78.3293,[],[],[],[],[],[],[],,78.3293,78.3295,0.004249132,-0.39328125,0,0,0,,0,2,2,63,1,4,TL,miskate,print,miskate_p.png,,,,,,
,,,,31982,001,2025-10-17_11h17.30.492,HW_LDT_1,2024.2.4,MacIntel,63.29113924,,,,,,,,,,,,,,,,,,,,,78.331,78.5291,78.5292,79.0292,,,,,,,,,,,,,,0.7511,1,,,,,,,,,,,,,,m,,,,,,,,,,,,,,,4,1,79.0299,79.7958,m,1,0.7511,,[],[],[],[],[],[],[],79.7958,81.7957,81.7958,85.2957,[],[],[],[],[],[],[],z,85.2958,85.296,0.004249132,-0.39328125,0,0,0,,0,3,3,112,1,4,word,LIBERAL,cursive,liberal_c.png,3.4867,,,,,
,,,,31982,001,2025-10-17_11h17.30.492,HW_LDT_1,2024.2.4,MacIntel,63.29113924,,,,,,,,,,,,,,,,,,,,,85.2971,85.4957,85.4958,85.9958,,,,,,,,,,,,,,1.7345,0,,,,,,,,,,,,,,z,,,,,,,,,,,,,,,5,0,85.9965,87.7458,m,0,1.7345,,[],[],[],[],[],[],[],87.746,89.7451,89.7453,89.7456,[],[],[],[],[],[],[],,89.7457,89.7458,0.004249132,-0.39328125,0,0,0,,0,4,4,39,1,4,RL,relone,cursive,relone_c.png,,,,,,
,,,,31982,001,2025-10-17_11h17.30.492,HW_LDT_1,2024.2.4,MacIntel,63.29113924,,,,,,,,,,,,,,,,,,,,,89.7471,89.9451,89.9451,90.4455,,,,,,,,,,,,,,1.2136,1,,,,,,,,,,,,,,z,,,,,,,,,,,,,,,6,0,90.4461,91.6624,z,1,1.2136,,[],[],[],[],[],[],[],91.6625,93.6623,93.6624,93.6629,[],[],[],[],[],[],[],,93.6629,93.663,0.004249132,-0.39328125,0,0,0,,0,5,5,49,1,4,RL,vesofity,cursive,vesofity_c.png,,,,,,
,,,,31982,001,2025-10-17_11h17.30.492,HW_LDT_1,2024.2.4,MacIntel,63.29113924,,,,,,,,,,,,,,,,,,,,,93.6644,93.8618,93.8618,94.3624,,,,,,,,,,,,,,1.2704,0,,,,,,,,,,,,,,m,,,,,,,,,,,,,,,7,1,94.3629,95.6451,z,0,1.2704,,[],[],[],[],[],[],[],95.6451,97.6458,97.6459,99.6459,[],[],[],[],[],[],[],z,99.646,99.6462,0.004249132,-0.39328125,0,0,0,,0,6,6,139,1,4,word,REGULAR,cursive,regular_c.png,1.9914,,,,,
,,,,31982,001,2025-10-17_11h17.30.492,HW_LDT_1,2024.2.4,MacIntel,63.29113924,,,,,,,,,,,,,,,,,,,,,99.6474,99.8458,99.8458,100.3448,,,,,,,,,,,,,,0.6812,1,,,,,,,,,,,,,,m,,,,,,,,,,,,,,,8,1,100.3453,101.029,m,1,0.6812,,[],[],[],[],[],[],[],101.0291,103.0291,103.0291,104.2292,[],[],[],[],[],[],[],m,104.2293,104.2295,0.004249132,-0.39328125,0,0,0,,0,7,7,84,1,4,word,BELOVED,print,beloved_p.png,1.1996,,,,,
,,,,31982,001,2025-10-17_11h17.30.492,HW_LDT_1,2024.2.4,MacIntel,63.29113924,,,,,,,,,,,,,,,,,,,,,104.2307,104.4291,104.4291,104.929,,,,,,,,,,,,,,1.2862,1,,,,,,,,,,,,,,m,,,,,,,,,,,,,,,9,0,104.9296,106.229,m,1,1.2862,,[],[],[],[],[],[],[],106.2291,108.229,108.2291,108.2294,[],[],[],[],[],[],[],,108.2295,108.2297,0.004249132,-0.39328125,0,0,0,,0,8,8,152,1,4,word,SPECIMEN,cursive,specimen_c.png,,,,,,
,,,,31982,001,2025-10-17_11h17.30.492,HW_LDT_1,2024.2.4,MacIntel,63.29113924,,,,,,,,,,,,,,,,,,,,,108.2311,108.4291,108.4292,108.9283,,,,,,,,,,,,,,0.6045,1,,,,,,,,,,,,,,m,,,,,,,,,,,,,,,10,0,108.9289,109.5459,m,1,0.6045,,[],[],[],[],[],[],[],109.5461,111.5457,111.5458,111.5461,[],[],[],[],[],[],[],,111.5461,111.5465,0.004249132,-0.39328125,0,0,0,,0,9,9,134,1,4,word,QUALIFY,print,qualify_p.png,,,,,,
,,,,31982,001,2025-10-17_11h17.30.492,HW_LDT_1,2024.2.4,MacIntel,63.29113924,,,,,,,,,,,,,,,,,,,,,111.548,111.7456,111.7456,112.2457,,,,,,,,,,,,,,1.1976,1,,,,,,,,,,,,,,z,,,,,,,,,,,,,,,11,0,112.2464,113.4451,z,1,1.1976,,[],[],[],[],[],[],[],113.4452,115.4458,115.4459,115.4461,[],[],[],[],[],[],[],,115.4461,115.4463,0.004249132,-0.39328125,0,0,0,,0,10,10,79,1,4,TL,tritube,print,tritube_p.png,,,,,,
,,,,31982,001,2025-10-17_11h17.30.492,HW_LDT_1,2024.2.4,MacIntel,63.29113924,,,,,,,,,,,,,,,,,,,,,115.4477,115.6457,115.6457,116.1457,,,,,,,,,,,,,,0.8698,0,,,,,,,,,,,,,,m,,,,,,,,,,,,,,,12,0,116.1465,117.0292,z,0,0.8698,,[],[],[],[],[],[],[],117.0294,119.0292,119.0292,119.0295,[],[],[],[],[],[],[],,119.0296,119.0297,0.004249132,-0.39328125,0,0,0,,0,11,11,85,1,4,word,BENEFIT,cursive,benefit_c.png,,,,,,
,,,,31982,001,2025-10-17_11h17.30.492,HW_LDT_1,2024.2.4,MacIntel,63.29113924,,,,,,,,,,,,,,,,,,,,,119.0311,119.2289,119.229,119.7291,,,,,,,,,,,,,,0.8858,1,,,,,,,,,,,,,,m,,,,,,,,,,,,,,,13,0,119.7298,120.6289,m,1,0.8858,,[],[],[],[],[],[],[],120.6291,122.6289,122.629,122.6293,[],[],[],[],[],[],[],,122.6294,122.6296,0.004249132,-0.39328125,0,0,0,,0,12,12,137,1,4,word,RAPIDLY,cursive,rapidly_c.png,,,,,,
,,,,31982,001,2025-10-17_11h17.30.492,HW_LDT_1,2024.2.4,MacIntel,63.29113924,,,,,,,,,,,,,,,,,,,,,122.6309,122.829,122.829,123.3289,,,,,,,,,,,,,,0.7025,1,,,,,,,,,,,,,,m,,,,,,,,,,,,,,,14,0,123.3296,124.0457,m,1,0.7025,,[],[],[],[],[],[],[],124.0458,126.0456,126.0456,126.0459,[],[],[],[],[],[],[],,126.0459,126.046,0.004249132,-0.39328125,0,0,0,,0,13,13,158,1,4,word,VELOCITY,cursive,velocity_c.png,,,,,,
,,,,31982,001,2025-10-17_11h17.30.492,HW_LDT_1,2024.2.4,MacIntel,63.29113924,,,,,,,,,,,,,,,,,,,,,126.0471,126.2455,126.2455,126.7457,,,,,,,,,,,,,,0.6224,1,,,,,,,,,,,,,,m,,,,,,,,,,,,,,,15,0,126.7464,127.379,m,1,0.6224,,[],[],[],[],[],[],[],127.3791,129.3787,129.3787,129.3788,[],[],[],[],[],[],[],,129.3788,129.3788,0.004249132,-0.39328125,0,0,0,,0,14,14,89,1,4,word,CAPACITY,cursive,capacity_c.png,,,,,,
,,,,31982,001,2025-10-17_11h17.30.492,HW_LDT_1,2024.2.4,MacIntel,63.29113924,,,,,,,,,,,,,,,,,,,,,129.3795,129.579,129.5791,130.079,,,,,,,,,,,,,,2.4351,1,,,,,,,,,,,,,,m,,,,,,,,,,,,,,,16,0,130.0798,132.5289,m,1,2.4351,,[],[],[],[],[],[],[],132.529,134.5289,134.529,134.5293,[],[],[],[],[],[],[],,134.5293,134.5295,0.004249132,-0.39328125,0,0,0,,0,15,15,151,1,4,word,SPECIFIC,cursive,specific_c.png,,,,,,
,,,,31982,001,2025-10-17_11h17.30.492,HW_LDT_1,2024.2.4,MacIntel,63.29113924,,,,,,,,,,,,,,,,,,,,,134.5309,134.7289,134.729,135.2289,,,,,,,,,,,,,,0.9801,1,,,,,,,,,,,,,,m,,,,,,,,,,,,,,,17,0,135.2295,136.2123,m,1,0.9801,,[],[],[],[],[],[],[],136.2124,138.2115,138.2117,138.2119,[],[],[],[],[],[],[],,138.2119,138.2121,0.004249132,-0.39328125,0,0,0,,0,16,16,123,1,4,word,MODERATE,print,moderate_p.png,,,,,,
,,,,31982,001,2025-10-17_11h17.30.492,HW_LDT_1,2024.2.4,MacIntel,63.29113924,,,,,,,,,,,,,,,,,,,,,138.2133,138.4122,138.4123,138.9113,,,,,,,,,,,,,,0.706,1,,,,,,,,,,,,,,m,,,,,,,,,,,,,,,18,0,138.9117,139.6292,m,1,0.706,,[],[],[],[],[],[],[],139.6294,141.629,141.629,141.6295,[],[],[],[],[],[],[],,141.6296,141.6297,0.004249132,-0.39328125,0,0,0,,0,17,17,130,1,4,word,POLICY,cursive,policy_c.png,,,,,,
,,,,31982,001,2025-10-17_11h17.30.492,HW_LDT_1,2024.2.4,MacIntel,63.29113924,,,,,,,,,,,,,,,,,,,,,141.6313,141.829,141.829,142.3289,,,,,,,,,,,,,,0.8807,0,,,,,,,,,,,,,,m,,,,,,,,,,,,,,,19,0,142.3294,143.2122,z,0,0.8807,,[],[],[],[],[],[],[],143.2123,145.2122,145.2123,145.2124,[],[],[],[],[],[],[],,145.2126,145.2127,0.004249132,-0.39328125,0,0,0,,0,18,18,92,1,4,word,CATEGORY,cursive,category_c.png,,,,,,
,,,,31982,001,2025-10-17_11h17.30.492,HW_LDT_1,2024.2.4,MacIntel,63.29113924,,,,,,,,,,,,,,,,,,,,,145.2139,145.4123,145.4123,145.9123,,,,,,,,,,,,,,0.6694,1,,,,,,,,,,,,,,m,,,,,,,,,,,,,,,20,0,145.9129,146.5955,m,1,0.6694,,[],[],[],[],[],[],[],146.5956,148.5956,148.5956,148.5959,[],[],[],[],[],[],[],,148.5959,148.5961,0.004249132,-0.39328125,0,0,0,,0,19,19,132,1,4,word,PROPOSAL,print,proposal_p.png,,,,,,
,,,,31982,001,2025-10-17_11h17.30.492,HW_LDT_1,2024.2.4,MacIntel,63.29113924,,,,,,,,,,,,,,,,,,,,,148.5976,148.7956,148.7956,149.2955,,,,,,,,,,,,,,2.036,1,,,,,,,,,,,,,,z,,,,,,,,,,,,,,,21,0,149.2961,151.3456,z,1,2.036,,[],[],[],[],[],[],[],151.3458,153.3452,153.3452,153.3453,[],[],[],[],[],[],[],,153.3453,153.3454,0.004249132,-0.39328125,0,0,0,,0,20,20,53,1,4,TL,cemerony,print,cemerony_p.png,,,,,,
,,,,31982,001,2025-10-17_11h17.30.492,HW_LDT_1,2024.2.4,MacIntel,63.29113924,,,,,,,,,,,,,,,,,,,,,153.346,153.5457,153.5457,154.0455,,,,,,,,,,,,,,2.2692,1,,,,,,,,,,,,,,z,,,,,,,,,,,,,,,22,0,154.0466,156.329,z,1,2.2692,,[],[],[],[],[],[],[],156.3291,158.3288,158.3289,158.3291,[],[],[],[],[],[],[],,158.3292,158.3295,0.004249132,-0.39328125,0,0,0,,0,21,21,32,1,4,RL,patisic,cursive,patisic_c.png,,,,,,
,,,,31982,001,2025-10-17_11h17.30.492,HW_LDT_1,2024.2.4,MacIntel,63.29113924,,,,,,,,,,,,,,,,,,,,,158.3312,158.5289,158.529,159.0283,,,,,,,,,,,,,,0.7371,1,,,,,,,,,,,,,,z,,,,,,,,,,,,,,,23,0,159.0288,159.7789,z,1,0.7371,,[],[],[],[],[],[],[],159.7791,161.7781,161.7781,161.7783,[],[],[],[],[],[],[],,161.7784,161.7784,0.004249132,-0.39328125,0,0,0,,0,22,22,75,1,4,TL,sanile,print,sanile_p.png,,,,,,
,,,,31982,001,2025-10-17_11h17.30.492,HW_LDT_1,2024.2.4,MacIntel,63.29113924,,,,,,,,,,,,,,,,,,,,,161.7798,161.9789,161.979,162.4789,,,,,,,,,,,,,,0.6641,1,,,,,,,,,,,,,,z,,,,,,,,,,,,,,,24,0,162.4796,163.1455,z,1,0.6641,,[],[],[],[],[],[],[],163.1456,165.1454,165.1454,165.1456,[],[],[],[],[],[],[],,165.1458,165.1458,0.004249132,-0.39328125,0,0,0,,0,23,23,20,1,4,RL,gralekul,print,gralekul_p.png,,,,,,
,,,,31982,001,2025-10-17_11h17.30.492,HW_LDT_1,2024.2.4,MacIntel,63.29113924,,,,,,,,,,,,,,,,,,,,,165.1473,165.3444,165.3445,165.8456,,,,,,,,,,,,,,1.5361,1,,,,,,,,,,,,,,z,,,,,,,,,,,,,,,25,0,165.8463,167.3954,z,1,1.5361,,[],[],[],[],[],[],[],167.3956,169.3957,169.3957,169.396,[],[],[],[],[],[],[],,169.3961,169.3962,0.004249132,-0.39328125,0,0,0,,0,24,24,36,1,4,RL,rabigly,cursive,rabigly_c.png,,,,,,
,,,,31982,001,2025-10-17_11h17.30.492,HW_LDT_1,2024.2.4,MacIntel,63.29113924,,,,,,,,,,,,,,,,,,,,,169.3976,169.5955,169.5955,170.0956,,,,,,,,,,,,,,0.6548,1,,,,,,,,,,,,,,z,,,,,,,,,,,,,,,26,0,170.0966,170.7623,z,1,0.6548,,[],[],[],[],[],[],[],170.7626,172.7622,172.7622,172.7626,[],[],[],[],[],[],[],,172.7627,172.7628,0.004249132,-0.39328125,0,0,0,,0,25,25,48,1,4,RL,vabifity,print,vabifity_p.png,,,,,,
,,,,31982,001,2025-10-17_11h17.30.492,HW_LDT_1,2024.2.4,MacIntel,63.29113924,,,,,,,,,,,,,,,,,,,,,172.7643,172.9621,172.9622,173.4615,,,,,,,,,,,,,,1.1562,1,,,,,,,,,,,,,,m,,,,,,,,,,,,,,,27,0,173.4621,174.629,m,1,1.1562,,[],[],[],[],[],[],[],174.629,176.6289,176.629,176.6292,[],[],[],[],[],[],[],,176.6293,176.6295,0.004249132,-0.39328125,0,0,0,,0,26,26,153,1,4,word,STOLEN,cursive,stolen_c.png,,,,,,
,,,,31982,001,2025-10-17_11h17.30.492,HW_LDT_1,2024.2.4,MacIntel,63.29113924,,,,,,,,,,,,,,,,,,,,,176.631,176.8288,176.8288,177.3289,,,,,,,,,,,,,,0.6359,1,,,,,,,,,,,,,,z,,,,,,,,,,,,,,,28,0,177.3296,177.9788,z,1,0.6359,,[],[],[],[],[],[],[],177.9789,179.9789,179.9789,179.9791,[],[],[],[],[],[],[],,179.9792,179.9794,0.004249132,-0.39328125,0,0,0,,0,27,27,25,1,4,RL,macise,print,macise_p.png,,,,,,
,,,,31982,001,2025-10-17_11h17.30.492,HW_LDT_1,2024.2.4,MacIntel,63.29113924,,,,,,,,,,,,,,,,,,,,,179.9807,180.1788,180.1788,180.6787,,,,,,,,,,,,,,1.0817,1,,,,,,,,,,,,,,m,,,,,,,,,,,,,,,29,0,180.6792,181.7622,m,1,1.0817,,[],[],[],[],[],[],[],181.7623,183.7623,183.7623,183.7626,[],[],[],[],[],[],[],,183.7626,183.7626,0.004249132,-0.39328125,0,0,0,,0,28,28,148,1,4,word,SALINE,print,saline_p.png,,,,,,
,,,,31982,001,2025-10-17_11h17.30.492,HW_LDT_1,2024.2.4,MacIntel,63.29113924,,,,,,,,,,,,,,,,,,,,,183.7642,183.9622,183.9622,184.4621,,,,,,,,,,,,,,0.9398,1,,,,,,,,,,,,,,z,,,,,,,,,,,,,,,30,0,184.4626,185.4122,z,1,0.9398,,[],[],[],[],[],[],[],185.4123,187.4122,187.4123,187.4125,[],[],[],[],[],[],[],,187.4125,187.4127,0.004249132,-0.39328125,0,0,0,,0,29,29,60,1,4,TL,hetirage,print,hetirage_p.png,,,,,,
,,,,31982,001,2025-10-17_11h17.30.492,HW_LDT_1,2024.2.4,MacIntel,63.29113924,,,,,,,,,,,,,,,,,,,,,187.4142,187.6122,187.6122,188.1122,,,,,,,,,,,,,,0.7363,1,,,,,,,,,,,,,,z,,,,,,,,,,,,,,,31,0,188.1129,188.8623,z,1,0.7363,,[],[],[],[],[],[],[],188.8625,190.8623,190.8623,190.8625,[],[],[],[],[],[],[],,190.8626,190.8627,0.004249132,-0.39328125,0,0,0,,0,30,30,67,1,4,TL,polupar,print,polupar_p.png,,,,,,
,,,,31982,001,2025-10-17_11h17.30.492,HW_LDT_1,2024.2.4,MacIntel,63.29113924,,,,,,,,,,,,,,,,,,,,,190.8643,191.0623,191.0624,191.5612,,,,,,,,,,,,,,1.2403,1,,,,,,,,,,,,,,z,,,,,,,,,,,,,,,32,0,191.5619,192.8124,z,1,1.2403,,[],[],[],[],[],[],[],192.8125,194.8121,194.8122,194.8124,[],[],[],[],[],[],[],,194.8125,194.8125,0.004249132,-0.39328125,0,0,0,,0,31,31,38,1,4,RL,refakive,print,refakive_p.png,,,,,,
,,,,31982,001,2025-10-17_11h17.30.492,HW_LDT_1,2024.2.4,MacIntel,63.29113924,,,,,,,,,,,,,,,,,,,,,194.8141,195.0121,195.0122,195.5111,,,,,,,,,,,,,,1.088,1,,,,,,,,,,,,,,z,,,,,,,,,,,,,,,33,0,195.5116,196.6123,z,1,1.088,,[],[],[],[],[],[],[],196.6124,198.6111,198.6112,198.6115,[],[],[],[],[],[],[],,198.6115,198.6117,0.004249132,-0.39328125,0,0,0,,0,32,32,42,1,4,RL,revune,print,revune_p.png,,,,,,
,,,,31982,001,2025-10-17_11h17.30.492,HW_LDT_1,2024.2.4,MacIntel,63.29113924,,,,,,,,,,,,,,,,,,,,,198.613,198.8122,198.8122,199.312,,,,,,,,,,,,,,0.7186,1,,,,,,,,,,,,,,m,,,,,,,,,,,,,,,34,0,199.3127,200.0445,m,1,0.7186,,[],[],[],[],[],[],[],200.0447,202.0456,202.0456,202.0458,[],[],[],[],[],[],[],,202.0459,202.046,0.004249132,-0.39328125,0,0,0,,0,33,33,109,1,4,word,GRATEFUL,print,grateful_p.png,,,,,,
,,,,31982,001,2025-10-17_11h17.30.492,HW_LDT_1,2024.2.4,MacIntel,63.29113924,,,,,,,,,,,,,,,,,,,,,202.0475,202.2445,202.2446,202.7444,,,,,,,,,,,,,,0.6534,1,,,,,,,,,,,,,,z,,,,,,,,,,,,,,,35,0,202.7449,203.4114,z,1,0.6534,,[],[],[],[],[],[],[],203.4115,205.4116,205.4116,205.4119,[],[],[],[],[],[],[],,205.4119,205.412,0.004249132,-0.39328125,0,0,0,,0,34,34,71,1,4,TL,racidal,print,racidal_p.png,,,,,,
,,,,31982,001,2025-10-17_11h17.30.492,HW_LDT_1,2024.2.4,MacIntel,63.29113924,,,,,,,,,,,,,,,,,,,,,205.4134,205.6121,205.6123,206.1121,,,,,,,,,,,,,,1.7178,1,,,,,,,,,,,,,,m,,,,,,,,,,,,,,,36,1,206.113,207.8454,m,1,1.7178,,[],[],[],[],[],[],[],207.8454,209.8453,209.8454,211.7453,[],[],[],[],[],[],[],m,211.7453,211.7454,0.004249132,-0.39328125,0,0,0,,0,35,35,107,1,4,word,EVIDENT,print,evident_p.png,1.8873,,,,,
,,,,31982,001,2025-10-17_11h17.30.492,HW_LDT_1,2024.2.4,MacIntel,63.29113924,,,,,,,,,,,,,,,,,,,,,211.7466,211.9453,211.9454,212.4444,,,,,,,,,,,,,,0.7592,1,,,,,,,,,,,,,,m,,,,,,,,,,,,,,,37,1,212.445,213.2111,m,1,0.7592,,[],[],[],[],[],[],[],213.2111,215.2113,215.2113,218.0787,[],[],[],[],[],[],[],m,218.0788,218.0789,0.004249132,-0.39328125,0,0,0,,0,36,36,104,1,4,word,DOMINANT,cursive,dominant_c.png,2.853,,,,,
,,,,31982,001,2025-10-17_11h17.30.492,HW_LDT_1,2024.2.4,MacIntel,63.29113924,,,,,,,,,,,,,,,,,,,,,218.0802,218.2786,218.2786,218.7787,,,,,,,,,,,,,,1.585,1,,,,,,,,,,,,,,m,,,,,,,,,,,,,,,38,1,218.7793,220.3784,m,1,1.585,,[],[],[],[],[],[],[],220.3786,222.3776,222.3777,224.0954,[],[],[],[],[],[],[],z,224.0954,224.0956,0.004249132,-0.39328125,0,0,0,,0,37,37,156,1,4,word,TRIBUTE,print,tribute_p.png,1.7171,,,,,
,,,,31982,001,2025-10-17_11h17.30.492,HW_LDT_1,2024.2.4,MacIntel,63.29113924,,,,,,,,,,,,,,,,,,,,,224.0969,224.2942,224.2943,224.7944,,,,,,,,,,,,,,0.8917,1,,,,,,,,,,,,,,z,,,,,,,,,,,,,,,39,0,224.795,225.6954,z,1,0.8917,,[],[],[],[],[],[],[],225.6955,227.6953,227.6954,227.6957,[],[],[],[],[],[],[],,227.6958,227.696,0.004249132,-0.39328125,0,0,0,,0,38,38,18,1,4,RL,disluge,print,disluge_p.png,,,,,,
,,,,31982,001,2025-10-17_11h17.30.492,HW_LDT_1,2024.2.4,MacIntel,63.29113924,,,,,,,,,,,,,,,,,,,,,227.6974,227.8952,227.8953,228.3952,,,,,,,,,,,,,,0.8191,1,,,,,,,,,,,,,,z,,,,,,,,,,,,,,,40,0,228.396,229.2287,z,1,0.8191,,[],[],[],[],[],[],[],229.2288,231.2286,231.2287,231.2289,[],[],[],[],[],[],[],,231.229,231.2292,0.158259549,-0.125980903,0,0,0,,0,39,39,52,1,4,TL,cagetory,cursive,cagetory_c.png,,,,,,
,,,,31982,001,2025-10-17_11h17.30.492,HW_LDT_1,2024.2.4,MacIntel,63.29113924,,,,,,,,,,,,,,,,,,,,,231.2305,231.4277,231.4278,231.9282,,,,,,,,,,,,,,2.4198,1,,,,,,,,,,,,,,z,,,,,,,,,,,,,,,41,0,231.9289,234.3616,z,1,2.4198,,[],[],[],[],[],[],[],234.3618,236.3619,236.362,236.3623,[],[],[],[],[],[],[],,236.3624,236.3624,0.158259549,-0.125980903,0,0,0,,0,40,40,24,1,4,RL,marmipal,cursive,marmipal_c.png,,,,,,
,,,,31982,001,2025-10-17_11h17.30.492,HW_LDT_1,2024.2.4,MacIntel,63.29113924,,,,,,,,,,,,,,,,,,,,,236.364,236.5619,236.562,237.061,,,,,,,,,,,,,,0.731,1,,,,,,,,,,,,,,z,,,,,,,,,,,,,,,42,0,237.0615,237.7949,z,1,0.731,,[],[],[],[],[],[],[],237.7949,239.7953,239.7954,239.7956,[],[],[],[],[],[],[],,239.7956,239.7958,0.158259549,-0.125980903,0,0,0,,0,41,41,78,1,4,TL,stragety,print,stragety_p.png,,,,,,
,,,,31982,001,2025-10-17_11h17.30.492,HW_LDT_1,2024.2.4,MacIntel,63.29113924,,,,,,,,,,,,,,,,,,,,,239.7974,239.9953,239.9953,240.4953,,,,,,,,,,,,,,1.7849,1,,,,,,,,,,,,,,z,,,,,,,,,,,,,,,43,0,240.4961,242.2943,z,1,1.7849,,[],[],[],[],[],[],[],242.2944,244.2944,244.2944,244.2946,[],[],[],[],[],[],[],,244.2946,244.2948,0.158259549,-0.125980903,0,0,0,,0,42,42,66,1,4,TL,opmital,print,opmital_p.png,,,,,,
,,,,31982,001,2025-10-17_11h17.30.492,HW_LDT_1,2024.2.4,MacIntel,63.29113924,,,,,,,,,,,,,,,,,,,,,244.2962,244.4953,244.4953,244.9953,,,,,,,,,,,,,,1.0413,1,,,,,,,,,,,,,,z,,,,,,,,,,,,,,,44,0,244.996,246.0443,z,1,1.0413,,[],[],[],[],[],[],[],246.0444,248.0443,248.0443,248.0445,[],[],[],[],[],[],[],,248.0445,248.0446,0.158259549,-0.125980903,0,0,0,,0,43,43,16,1,4,RL,desifate,cursive,desifate_c.png,,,,,,
,,,,31982,001,2025-10-17_11h17.30.492,HW_LDT_1,2024.2.4,MacIntel,63.29113924,,,,,,,,,,,,,,,,,,,,,248.0461,248.2451,248.2452,248.7451,,,,,,,,,,,,,,1.1197,0,,,,,,,,,,,,,,m,,,,,,,,,,,,,,,45,0,248.7456,249.8787,z,0,1.1197,,[],[],[],[],[],[],[],249.8788,251.8785,251.8786,251.8788,[],[],[],[],[],[],[],,251.879,251.8791,0.158259549,-0.125980903,0,0,0,,0,44,44,138,1,4,word,REFUSAL,cursive,refusal_c.png,,,,,,
,,,,31982,001,2025-10-17_11h17.30.492,HW_LDT_1,2024.2.4,MacIntel,63.29113924,,,,,,,,,,,,,,,,,,,,,251.8807,252.0785,252.0786,252.5786,,,,,,,,,,,,,,1.0697,1,,,,,,,,,,,,,,m,,,,,,,,,,,,,,,46,0,252.5793,253.6612,m,1,1.0697,,[],[],[],[],[],[],[],253.6613,255.6609,255.661,255.6612,[],[],[],[],[],[],[],,255.6613,255.6614,0.158259549,-0.125980903,0,0,0,,0,45,45,100,1,4,word,DECADE,cursive,decade_c.png,,,,,,
,,,,31982,001,2025-10-17_11h17.30.492,HW_LDT_1,2024.2.4,MacIntel,63.29113924,,,,,,,,,,,,,,,,,,,,,255.6629,255.861,255.8611,256.3618,,,,,,,,,,,,,,0.6686,1,,,,,,,,,,,,,,m,,,,,,,,,,,,,,,47,0,256.3626,257.0454,m,1,0.6686,,[],[],[],[],[],[],[],257.0454,259.0453,259.0454,259.0456,[],[],[],[],[],[],[],,259.0457,259.0458,0.158259549,-0.125980903,0,0,0,,0,46,46,129,1,4,word,PARENT,cursive,parent_c.png,,,,,,
,,,,31982,001,2025-10-17_11h17.30.492,HW_LDT_1,2024.2.4,MacIntel,63.29113924,,,,,,,,,,,,,,,,,,,,,259.0473,259.2442,259.2442,259.7452,,,,,,,,,,,,,,1.1026,1,,,,,,,,,,,,,,m,,,,,,,,,,,,,,,48,0,259.746,260.8619,m,1,1.1026,,[],[],[],[],[],[],[],260.8622,262.8609,262.861,262.8611,[],[],[],[],[],[],[],,262.8611,262.8612,0.158259549,-0.125980903,0,0,0,,0,47,47,111,1,4,word,INDICATE,print,indicate_p.png,,,,,,
,,,,31982,001,2025-10-17_11h17.30.492,HW_LDT_1,2024.2.4,MacIntel,63.29113924,,,,,,,,,,,,,,,,,,,,,262.8624,263.0619,263.0619,263.5608,,,,,,,,,,,,,,1.1192,1,,,,,,,,,,,,,,m,,,,,,,,,,,,,,,49,0,263.5614,264.6953,m,1,1.1192,,[],[],[],[],[],[],[],264.6954,266.6951,266.6952,266.6953,[],[],[],[],[],[],[],,266.6954,266.6956,0.158259549,-0.125980903,0,0,0,,0,48,48,144,1,4,word,RESIDENT,cursive,resident_c.png,,,,,,
,,,,31982,001,2025-10-17_11h17.30.492,HW_LDT_1,2024.2.4,MacIntel,63.29113924,,,,,,,,,,,,,,,,,,,,,266.6969,266.8952,266.8953,267.3952,,,,,,,,,,,,,,1.2188,1,,,,,,,,,,,,,,z,,,,,,,,,,,,,,,50,0,267.3959,268.6276,z,1,1.2188,,[],[],[],[],[],[],[],268.6277,270.6284,270.6285,270.6288,[],[],[],[],[],[],[],,270.6289,270.6289,0.158259549,-0.125980903,0,0,0,,0,49,49,19,1,4,RL,elacodate,cursive,elacodate_c.png,,,,,,
,,,,31982,001,2025-10-17_11h17.30.492,HW_LDT_1,2024.2.4,MacIntel,63.29113924,,,,,,,,,,,,,,,,,,,,,270.6302,270.8285,270.8285,271.3283,,,,,,,,,,,,,,1.2135,1,,,,,,,,,,,,,,z,,,,,,,,,,,,,,,51,1,271.3289,272.5451,z,1,1.2135,,[],[],[],[],[],[],[],272.5452,274.5448,274.5448,275.8618,[],[],[],[],[],[],[],z,275.8619,275.8621,0.158259549,-0.125980903,0,0,0,,0,50,50,65,1,4,TL,orepator,print,orepator_p.png,1.3058,,,,,
,,,,31982,001,2025-10-17_11h17.30.492,HW_LDT_1,2024.2.4,MacIntel,63.29113924,,,,,,,,,,,,,,,,,,,,,275.8633,276.0608,276.0609,276.5618,,,,,,,,,,,,,,1.2027,1,,,,,,,,,,,,,,m,,,,,,,,,,,,,,,52,0,276.5624,277.7775,m,1,1.2027,,[],[],[],[],[],[],[],277.7776,279.7784,279.7786,279.7787,[],[],[],[],[],[],[],,279.7787,279.7789,0.158259549,-0.125980903,0,0,0,,0,51,51,91,1,4,word,CARDINAL,cursive,cardinal_c.png,,,,,,
,,,,31982,001,2025-10-17_11h17.30.492,HW_LDT_1,2024.2.4,MacIntel,63.29113924,,,,,,,,,,,,,,,,,,,,,279.7802,279.9774,279.9774,280.4784,,,,,,,,,,,,,,0.9023,1,,,,,,,,,,,,,,z,,,,,,,,,,,,,,,53,0,280.4789,281.3944,z,1,0.9023,,[],[],[],[],[],[],[],281.3944,283.3952,283.3952,283.3954,[],[],[],[],[],[],[],,283.3955,283.3956,0.158259549,-0.125980903,0,0,0,,0,52,52,41,1,4,RL,rebicent,cursive,rebicent_c.png,,,,,,
,,,,31982,001,2025-10-17_11h17.30.492,HW_LDT_1,2024.2.4,MacIntel,63.29113924,,,,,,,,,,,,,,,,,,,,,283.3969,283.5948,283.5949,284.0952,,,,,,,,,,,,,,0.8348,1,,,,,,,,,,,,,,z,,,,,,,,,,,,,,,54,0,284.0958,284.9442,z,1,0.8348,,[],[],[],[],[],[],[],284.9444,286.9444,286.9444,286.9446,[],[],[],[],[],[],[],,286.9447,286.9448,0.158259549,-0.125980903,0,0,0,,0,53,53,59,1,4,TL,fornute,cursive,fornute_c.png,,,,,,
,,,,31982,001,2025-10-17_11h17.30.492,HW_LDT_1,2024.2.4,MacIntel,63.29113924,,,,,,,,,,,,,,,,,,,,,286.9457,287.1451,287.1452,287.6451,,,,,,,,,,,,,,0.6751,0,,,,,,,,,,,,,,z,,,,,,,,,,,,,,,55,0,287.6457,288.3285,m,0,0.6751,,[],[],[],[],[],[],[],288.3285,290.3275,290.3275,290.3276,[],[],[],[],[],[],[],,290.3277,290.3278,0.158259549,-0.125980903,0,0,0,,0,54,54,77,1,4,TL,spemicen,cursive,spemicen_c.png,,,,,,
,,,,31982,001,2025-10-17_11h17.30.492,HW_LDT_1,2024.2.4,MacIntel,63.29113924,,,,,,,,,,,,,,,,,,,,,290.3291,290.5284,290.5285,291.0284,,,,,,,,,,,,,,2.1025,1,,,,,,,,,,,,,,m,,,,,,,,,,,,,,,56,0,291.0291,293.1441,m,1,2.1025,,[],[],[],[],[],[],[],293.1442,295.145,295.145,295.1453,[],[],[],[],[],[],[],,295.1453,295.1453,0.158259549,-0.125980903,0,0,0,,0,55,55,155,1,4,word,STRATEGY,print,strategy_p.png,,,,,,
,,,,31982,001,2025-10-17_11h17.30.492,HW_LDT_1,2024.2.4,MacIntel,63.29113924,,,,,,,,,,,,,,,,,,,,,295.1467,295.345,295.3451,295.8451,,,,,,,,,,,,,,0.8693,1,,,,,,,,,,,,,,z,,,,,,,,,,,,,,,57,0,295.8458,296.7285,z,1,0.8693,,[],[],[],[],[],[],[],296.7286,298.7274,298.7275,298.7277,[],[],[],[],[],[],[],,298.7278,298.7279,0.158259549,-0.125980903,0,0,0,,0,56,56,12,1,4,RL,conbicer,cursive,conbicer_c.png,,,,,,
,,,,31982,001,2025-10-17_11h17.30.492,HW_LDT_1,2024.2.4,MacIntel,63.29113924,,,,,,,,,,,,,,,,,,,,,298.729,298.9273,298.9275,299.4274,,,,,,,,,,,,,,0.6408,1,,,,,,,,,,,,,,m,,,,,,,,,,,,,,,58,0,299.4279,300.0785,m,1,0.6408,,[],[],[],[],[],[],[],300.0787,302.0773,302.0774,302.0777,[],[],[],[],[],[],[],,302.0777,302.0778,0.158259549,-0.125980903,0,0,0,,0,57,57,83,1,4,word,ANIMAL,cursive,animal_c.png,,,,,,
,,,,31982,001,2025-10-17_11h17.30.492,HW_LDT_1,2024.2.4,MacIntel,63.29113924,,,,,,,,,,,,,,,,,,,,,302.0788,302.2783,302.2784,302.7784,,,,,,,,,,,,,,0.7679,1,,,,,,,,,,,,,,z,,,,,,,,,,,,,,,59,0,302.779,303.5618,z,1,0.7679,,[],[],[],[],[],[],[],303.5621,305.5617,305.5618,305.5621,[],[],[],[],[],[],[],,305.5621,305.5623,0.158259549,-0.125980903,0,0,0,,0,58,58,5,1,4,RL,bebine,print,bebine_p.png,,,,,,
,,,,31982,001,2025-10-17_11h17.30.492,HW_LDT_1,2024.2.4,MacIntel,63.29113924,,,,,,,,,,,,,,,,,,,,,305.5636,305.7617,305.7617,306.2608,,,,,,,,,,,,,,0.9528,1,,,,,,,,,,,,,,z,,,,,,,,,,,,,,,60,1,306.2614,307.2283,z,1,0.9528,,[],[],[],[],[],[],[],307.2284,309.2283,309.2283,309.945,[],[],[],[],[],[],[],z,309.9451,309.9452,0.158259549,-0.125980903,0,0,0,,0,59,59,35,1,4,RL,probice,cursive,probice_c.png,0.7037,,,,,
,,,,31982,001,2025-10-17_11h17.30.492,HW_LDT_1,2024.2.4,MacIntel,63.29113924,,,,,,,,,,,,,,,,,,,,,309.9467,310.145,310.145,310.644,,,,,,,,,,,,,,1.054,0,,,,,,,,,,,,,,z,,,,,,,,,,,,,,,61,1,310.6446,311.7115,m,0,1.054,,[],[],[],[],[],[],[],311.7115,313.7118,313.7118,315.1117,[],[],[],[],[],[],[],z,315.1119,315.112,0.158259549,-0.125980903,0,0,0,,0,60,60,55,1,4,TL,corevage,cursive,corevage_c.png,1.3855,,,,,
,,,,31982,001,2025-10-17_11h17.30.492,HW_LDT_1,2024.2.4,MacIntel,63.29113924,,,,,,,,,,,,,,,,,,,,,315.1132,315.3117,315.3118,315.8117,,,,,,,,,,,,,,0.6182,0,,,,,,,,,,,,,,z,,,,,,,,,,,,,,,62,0,315.8123,316.445,m,0,0.6182,,[],[],[],[],[],[],[],316.4452,318.4449,318.445,318.4452,[],[],[],[],[],[],[],,318.4453,318.4453,0.158259549,-0.125980903,0,0,0,,0,61,61,40,1,4,RL,reconal,print,reconal_p.png,,,,,,
,,,,31982,001,2025-10-17_11h17.30.492,HW_LDT_1,2024.2.4,MacIntel,63.29113924,,,,,,,,,,,,,,,,,,,,,318.4468,318.644,318.6441,319.1449,,,,,,,,,,,,,,0.7556,1,,,,,,,,,,,,,,m,,,,,,,,,,,,,,,63,0,319.1455,319.9109,m,1,0.7556,,[],[],[],[],[],[],[],319.911,321.9115,321.9116,321.9118,[],[],[],[],[],[],[],,321.9118,321.9119,0.158259549,-0.125980903,0,0,0,,0,62,62,135,1,4,word,QUALITY,print,quality_p.png,,,,,,
,,,,31982,001,2025-10-17_11h17.30.492,HW_LDT_1,2024.2.4,MacIntel,63.29113924,,,,,,,,,,,,,,,,,,,,,321.9134,322.1117,322.1117,322.6115,,,,,,,,,,,,,,1.152,1,,,,,,,,,,,,,,m,,,,,,,,,,,,,,,64,0,322.6122,323.7783,m,1,1.152,,[],[],[],[],[],[],[],323.7784,325.7782,325.7783,325.7785,[],[],[],[],[],[],[],,325.7785,325.7787,0.158259549,-0.125980903,0,0,0,,0,63,63,133,1,4,word,PROVIDE,cursive,provide_c.png,,,,,,
,,,,31982,001,2025-10-17_11h17.30.492,HW_LDT_1,2024.2.4,MacIntel,63.29113924,,,,,,,,,,,,,,,,,,,,,325.7802,325.9784,325.9785,326.4775,,,,,,,,,,,,,,0.7371,1,,,,,,,,,,,,,,z,,,,,,,,,,,,,,,65,0,326.478,327.2283,z,1,0.7371,,[],[],[],[],[],[],[],327.2283,329.2282,329.2283,329.2285,[],[],[],[],[],[],[],,329.2286,329.2287,0.158259549,-0.125980903,0,0,0,,0,64,64,27,1,4,RL,menowy,print,menowy_p.png,,,,,,
,,,,31982,001,2025-10-17_11h17.30.492,HW_LDT_1,2024.2.4,MacIntel,63.29113924,,,,,,,,,,,,,,,,,,,,,329.2302,329.4282,329.4283,329.9283,,,,,,,,,,,,,,1.7412,0,,,,,,,,,,,,,,z,,,,,,,,,,,,,,,66,0,329.9288,331.6783,m,0,1.7412,,[],[],[],[],[],[],[],331.6784,333.6784,333.6784,333.6787,[],[],[],[],[],[],[],,333.6788,333.6789,0.158259549,-0.125980903,0,0,0,,0,65,65,51,1,4,TL,adsivory,cursive,adsivory_c.png,,,,,,
,,,,31982,001,2025-10-17_11h17.30.492,HW_LDT_1,2024.2.4,MacIntel,63.29113924,,,,,,,,,,,,,,,,,,,,,333.6805,333.8783,333.8783,334.3783,,,,,,,,,,,,,,1.5376,1,,,,,,,,,,,,,,z,,,,,,,,,,,,,,,67,0,334.3789,335.9283,z,1,1.5376,,[],[],[],[],[],[],[],335.9283,337.9281,337.9282,337.9284,[],[],[],[],[],[],[],,337.9285,337.9286,0.158259549,-0.125980903,0,0,0,,0,66,66,17,1,4,RL,denficy,cursive,denficy_c.png,,,,,,
,,,,31982,001,2025-10-17_11h17.30.492,HW_LDT_1,2024.2.4,MacIntel,63.29113924,,,,,,,,,,,,,,,,,,,,,337.9301,338.1283,338.1284,338.6283,,,,,,,,,,,,,,1.0738,1,,,,,,,,,,,,,,z,,,,,,,,,,,,,,,68,0,338.629,339.7116,z,1,1.0738,,[],[],[],[],[],[],[],339.7117,341.7117,341.7117,341.7119,[],[],[],[],[],[],[],,341.712,341.7121,0.158259549,-0.125980903,0,0,0,,0,67,67,58,1,4,TL,edivent,print,edivent_p.png,,,,,,
,,,,31982,001,2025-10-17_11h17.30.492,HW_LDT_1,2024.2.4,MacIntel,63.29113924,,,,,,,,,,,,,,,,,,,,,341.7136,341.9117,341.9117,342.4116,,,,,,,,,,,,,,0.7693,1,,,,,,,,,,,,,,m,,,,,,,,,,,,,,,69,0,342.4123,343.1943,m,1,0.7693,,[],[],[],[],[],[],[],343.1943,345.1948,345.1949,345.1951,[],[],[],[],[],[],[],,345.1952,345.1952,0.158259549,-0.125980903,0,0,0,,0,68,68,95,1,4,word,COMEDY,print,comedy_p.png,,,,,,
,,,,31982,001,2025-10-17_11h17.30.492,HW_LDT_1,2024.2.4,MacIntel,63.29113924,,,,,,,,,,,,,,,,,,,,,345.1967,345.3949,345.395,345.8948,,,,,,,,,,,,,,0.6526,1,,,,,,,,,,,,,,z,,,,,,,,,,,,,,,70,0,345.8955,346.5616,z,1,0.6526,,[],[],[],[],[],[],[],346.5618,348.5613,348.5614,348.5616,[],[],[],[],[],[],[],,348.5617,348.5618,0.158259549,-0.125980903,0,0,0,,0,69,69,44,1,4,RL,senvilent,print,senvilent_p.png,,,,,,
,,,,31982,001,2025-10-17_11h17.30.492,HW_LDT_1,2024.2.4,MacIntel,63.29113924,,,,,,,,,,,,,,,,,,,,,348.5632,348.7615,348.7615,349.2615,,,,,,,,,,,,,,1.3487,1,,,,,,,,,,,,,,m,,,,,,,,,,,,,,,71,0,349.262,350.6118,m,1,1.3487,,[],[],[],[],[],[],[],350.6119,352.6115,352.6116,352.6119,[],[],[],[],[],[],[],,352.6119,352.6121,0.158259549,-0.125980903,0,0,0,,0,70,70,143,1,4,word,REMOVAL,print,removal_p.png,,,,,,
,,,,31982,001,2025-10-17_11h17.30.492,HW_LDT_1,2024.2.4,MacIntel,63.29113924,,,,,,,,,,,,,,,,,,,,,352.6133,352.8115,352.8116,353.3109,,,,,,,,,,,,,,0.9325,1,,,,,,,,,,,,,,m,,,,,,,,,,,,,,,72,0,353.3114,354.2449,m,1,0.9325,,[],[],[],[],[],[],[],354.245,356.2449,356.2449,356.2451,[],[],[],[],[],[],[],,356.2452,356.2453,0.158259549,-0.125980903,0,0,0,,0,71,71,142,1,4,word,REMOTE,cursive,remote_c.png,,,,,,
,,,,31982,001,2025-10-17_11h17.30.492,HW_LDT_1,2024.2.4,MacIntel,63.29113924,,,,,,,,,,,,,,,,,,,,,356.2467,356.4448,356.4449,356.9449,,,,,,,,,,,,,,0.7357,1,,,,,,,,,,,,,,z,,,,,,,,,,,,,,,73,1,356.9455,357.6949,z,1,0.7357,,[],[],[],[],[],[],[],357.695,359.6948,359.6948,360.8783,[],[],[],[],[],[],[],z,360.8784,360.8785,0.158259549,-0.125980903,0,0,0,,0,72,72,14,1,4,RL,delahe,cursive,delahe_c.png,1.1707,,,,,
,,,,31982,001,2025-10-17_11h17.30.492,HW_LDT_1,2024.2.4,MacIntel,63.29113924,,,,,,,,,,,,,,,,,,,,,360.8799,361.0782,361.0783,361.5782,,,,,,,,,,,,,,1.2486,1,,,,,,,,,,,,,,z,,,,,,,,,,,,,,,74,0,361.5788,362.8283,z,1,1.2486,,[],[],[],[],[],[],[],362.8284,364.8274,364.8275,364.8276,[],[],[],[],[],[],[],,364.8276,364.8277,0.158259549,-0.125980903,0,0,0,,0,73,73,68,1,4,TL,prosopal,print,prosopal_p.png,,,,,,
,,,,31982,001,2025-10-17_11h17.30.492,HW_LDT_1,2024.2.4,MacIntel,63.29113924,,,,,,,,,,,,,,,,,,,,,364.829,365.0273,365.0273,365.5281,,,,,,,,,,,,,,0.9235,1,,,,,,,,,,,,,,z,,,,,,,,,,,,,,,75,0,365.5287,366.4616,z,1,0.9235,,[],[],[],[],[],[],[],366.4617,368.4614,368.4615,368.4616,[],[],[],[],[],[],[],,368.4618,368.4619,0.158259549,-0.125980903,0,0,0,,0,74,74,43,1,4,RL,rovastic,print,rovastic_p.png,,,,,,
,,,,31982,001,2025-10-17_11h17.30.492,HW_LDT_1,2024.2.4,MacIntel,63.29113924,,,,,,,,,,,,,,,,,,,,,368.4632,368.6613,368.6614,369.1613,,,,,,,,,,,,,,0.7364,1,,,,,,,,,,,,,,m,,,,,,,,,,,,,,,76,0,369.1619,369.9114,m,1,0.7364,,[],[],[],[],[],[],[],369.9115,371.9104,371.9105,371.9107,[],[],[],[],[],[],[],,371.9107,371.9109,0.158259549,-0.125980903,0,0,0,,0,75,75,146,1,4,word,RETIRE,print,retire_p.png,,,,,,
,,,,31982,001,2025-10-17_11h17.30.492,HW_LDT_1,2024.2.4,MacIntel,63.29113924,,,,,,,,,,,,,,,,,,,,,371.9119,372.1115,372.1115,372.6114,,,,,,,,,,,,,,0.8056,1,,,,,,,,,,,,,,m,,,,,,,,,,,,,,,77,0,372.6121,373.4282,m,1,0.8056,,[],[],[],[],[],[],[],373.4283,375.4281,375.4282,375.4283,[],[],[],[],[],[],[],,375.4284,375.4285,0.158259549,-0.125980903,0,0,0,,0,76,76,150,1,4,word,SENTIMENT,print,sentiment_p.png,,,,,,
,,,,31982,001,2025-10-17_11h17.30.492,HW_LDT_1,2024.2.4,MacIntel,63.29113924,,,,,,,,,,,,,,,,,,,,,375.4298,375.6282,375.6283,376.1282,,,,,,,,,,,,,,0.9022,1,,,,,,,,,,,,,,z,,,,,,,,,,,,,,,78,0,376.1288,377.0449,z,1,0.9022,,[],[],[],[],[],[],[],377.045,379.0448,379.0449,379.045,[],[],[],[],[],[],[],,379.0451,379.0452,0.158259549,-0.125980903,0,0,0,,0,77,77,64,1,4,TL,moredate,print,moredate_p.png,,,,,,
,,,,31982,001,2025-10-17_11h17.30.492,HW_LDT_1,2024.2.4,MacIntel,63.29113924,,,,,,,,,,,,,,,,,,,,,379.0465,379.2447,379.2447,379.7448,,,,,,,,,,,,,,1.1858,0,,,,,,,,,,,,,,m,,,,,,,,,,,,,,,79,0,379.7454,380.9449,z,0,1.1858,,[],[],[],[],[],[],[],380.945,382.9443,382.9443,382.9445,[],[],[],[],[],[],[],,382.9445,382.9447,0.158259549,-0.125980903,0,0,0,,0,78,78,108,1,4,word,FORTUNE,cursive,fortune_c.png,,,,,,
,,,,31982,001,2025-10-17_11h17.30.492,HW_LDT_1,2024.2.4,MacIntel,63.29113924,,,,,,,,,,,,,,,,,,,,,382.946,383.144,383.1441,383.6438,,,,,,,,,,,,,,0.6832,1,,,,,,,,,,,,,,m,,,,,,,,,,,,,,,80,0,383.6442,384.328,m,1,0.6832,,[],[],[],[],[],[],[],384.3282,386.3282,386.3283,386.3285,[],[],[],[],[],[],[],,386.3285,390.8449,0.158259549,-0.125980903,0,0,0,space,0,79,79,90,1,4,word,CAPITAL,print,capital_p.png,,,4.484,,,
,,,,31982,001,2025-10-17_11h17.30.492,HW_LDT_1,2024.2.4,MacIntel,63.29113924,,,,,,,,,,,,,,,,,,,,,390.8462,391.0437,391.0437,391.5447,,,,,,,,,,,,,,0.7031,1,,,,,,,,,,,,,,z,,,,,,,,,,,,,,,81,0,391.5451,392.2611,z,1,0.7031,,[],[],[],[],[],[],[],392.2611,394.2606,394.2607,394.2608,[],[],[],[],[],[],[],,394.2609,394.2609,0.158259549,-0.125980903,0,0,0,,0,80,80,74,1,4,TL,rerite,print,rerite_p.png,,,,,,
,,,,31982,001,2025-10-17_11h17.30.492,HW_LDT_1,2024.2.4,MacIntel,63.29113924,,,,,,,,,,,,,,,,,,,,,394.262,394.4604,394.4604,394.9611,,,,,,,,,,,,,,2.2366,1,,,,,,,,,,,,,,m,,,,,,,,,,,,,,,82,0,394.9617,397.2116,m,1,2.2366,,[],[],[],[],[],[],[],397.2116,399.2114,399.2115,399.2116,[],[],[],[],[],[],[],,399.2116,399.2118,0.158259549,-0.125980903,0,0,0,,0,81,81,121,1,4,word,MISTAKE,print,mistake_p.png,,,,,,
,,,,31982,001,2025-10-17_11h17.30.492,HW_LDT_1,2024.2.4,MacIntel,63.29113924,,,,,,,,,,,,,,,,,,,,,399.2133,399.4114,399.4115,399.9115,,,,,,,,,,,,,,2.7363,0,,,,,,,,,,,,,,m,,,,,,,,,,,,,,,83,1,399.9122,402.6611,z,0,2.7363,,[],[],[],[],[],[],[],402.6612,404.6612,404.6613,406.0446,[],[],[],[],[],[],[],z,406.0447,406.0448,0.158259549,-0.125980903,0,0,0,,0,82,82,99,1,4,word,DEBATE,cursive,debate_c.png,1.3704,,,,,
,,,,31982,001,2025-10-17_11h17.30.492,HW_LDT_1,2024.2.4,MacIntel,63.29113924,,,,,,,,,,,,,,,,,,,,,406.0462,406.2448,406.2449,406.7445,,,,,,,,,,,,,,1.2536,1,,,,,,,,,,,,,,z,,,,,,,,,,,,,,,84,0,406.745,408.0114,z,1,1.2536,,[],[],[],[],[],[],[],408.0115,410.0114,410.0115,410.0117,[],[],[],[],[],[],[],,410.0117,410.0118,0.158259549,-0.125980903,0,0,0,,0,83,83,61,1,4,TL,lotace,cursive,lotace_c.png,,,,,,
,,,,31982,001,2025-10-17_11h17.30.492,HW_LDT_1,2024.2.4,MacIntel,63.29113924,,,,,,,,,,,,,,,,,,,,,410.0148,410.2104,410.2104,410.7112,,,,,,,,,,,,,,1.4362,1,,,,,,,,,,,,,,z,,,,,,,,,,,,,,,85,1,410.7119,412.1613,z,1,1.4362,,[],[],[],[],[],[],[],412.1614,414.1603,414.1603,415.1271,[],[],[],[],[],[],[],z,415.1272,415.1273,0.158259549,-0.125980903,0,0,0,,0,84,84,33,1,4,RL,pamest,cursive,pamest_c.png,0.9547,,,,,
,,,,31982,001,2025-10-17_11h17.30.492,HW_LDT_1,2024.2.4,MacIntel,63.29113924,,,,,,,,,,,,,,,,,,,,,415.1284,415.3281,415.3283,415.828,,,,,,,,,,,,,,0.8195,1,,,,,,,,,,,,,,z,,,,,,,,,,,,,,,86,0,415.8285,416.6613,z,1,0.8195,,[],[],[],[],[],[],[],416.6615,418.6612,418.6612,418.6614,[],[],[],[],[],[],[],,418.6614,418.6615,0.158259549,-0.125980903,0,0,0,,0,85,85,29,1,4,RL,motide,print,motide_p.png,,,,,,
,,,,31982,001,2025-10-17_11h17.30.492,HW_LDT_1,2024.2.4,MacIntel,63.29113924,,,,,,,,,,,,,,,,,,,,,418.6627,418.8612,418.8613,419.3613,,,,,,,,,,,,,,1.5182,1,,,,,,,,,,,,,,m,,,,,,,,,,,,,,,87,0,419.3619,420.8947,m,1,1.5182,,[],[],[],[],[],[],[],420.8947,422.8936,422.8936,422.8938,[],[],[],[],[],[],[],,422.8939,422.894,0.158259549,-0.125980903,0,0,0,,0,86,86,126,1,4,word,OPTIMAL,print,optimal_p.png,,,,,,
,,,,31982,001,2025-10-17_11h17.30.492,HW_LDT_1,2024.2.4,MacIntel,63.29113924,,,,,,,,,,,,,,,,,,,,,422.895,423.094,423.0941,423.5946,,,,,,,,,,,,,,1.169,1,,,,,,,,,,,,,,z,,,,,,,,,,,,,,,88,0,423.5953,424.7779,z,1,1.169,,[],[],[],[],[],[],[],424.778,426.778,426.778,426.7782,[],[],[],[],[],[],[],,426.7782,426.7784,0.158259549,-0.125980903,0,0,0,,0,87,87,31,1,4,RL,orimipal,print,orimipal_p.png,,,,,,
,,,,31982,001,2025-10-17_11h17.30.492,HW_LDT_1,2024.2.4,MacIntel,63.29113924,,,,,,,,,,,,,,,,,,,,,426.7798,426.9769,426.977,427.477,,,,,,,,,,,,,,0.7548,1,,,,,,,,,,,,,,z,,,,,,,,,,,,,,,89,0,427.4774,428.2445,z,1,0.7548,,[],[],[],[],[],[],[],428.2446,430.2445,430.2446,430.2448,[],[],[],[],[],[],[],,430.2448,430.245,0.158259549,-0.125980903,0,0,0,,0,88,88,9,1,4,RL,cafigal,print,cafigal_p.png,,,,,,
,,,,31982,001,2025-10-17_11h17.30.492,HW_LDT_1,2024.2.4,MacIntel,63.29113924,,,,,,,,,,,,,,,,,,,,,430.2465,430.4438,430.4438,430.9437,,,,,,,,,,,,,,1.4901,1,,,,,,,,,,,,,,m,,,,,,,,,,,,,,,90,0,430.9441,432.4448,m,1,1.4901,,[],[],[],[],[],[],[],432.4448,434.4447,434.4447,434.445,[],[],[],[],[],[],[],,434.4451,434.4452,0.158259549,-0.125980903,0,0,0,,0,89,89,119,1,4,word,MEMORY,print,memory_p.png,,,,,,
,,,,31982,001,2025-10-17_11h17.30.492,HW_LDT_1,2024.2.4,MacIntel,63.29113924,,,,,,,,,,,,,,,,,,,,,434.4466,434.6445,434.6446,435.1446,,,,,,,,,,,,,,0.6141,1,,,,,,,,,,,,,,z,,,,,,,,,,,,,,,91,1,435.1454,435.7611,z,1,0.6141,,[],[],[],[],[],[],[],435.7612,437.7614,437.7614,439.2103,[],[],[],[],[],[],[],z,439.2103,439.2104,0.158259549,-0.125980903,0,0,0,,0,90,90,76,1,4,TL,setanor,print,setanor_p.png,1.4368,,,,,
,,,,31982,001,2025-10-17_11h17.30.492,HW_LDT_1,2024.2.4,MacIntel,63.29113924,,,,,,,,,,,,,,,,,,,,,439.2117,439.4102,439.4102,439.9104,,,,,,,,,,,,,,0.9356,1,,,,,,,,,,,,,,m,,,,,,,,,,,,,,,92,0,439.911,440.8614,m,1,0.9356,,[],[],[],[],[],[],[],440.8614,442.8613,442.8613,442.8616,[],[],[],[],[],[],[],,442.8617,442.8618,0.158259549,-0.125980903,0,0,0,,0,91,91,157,1,4,word,VALIDITY,print,validity_p.png,,,,,,
,,,,31982,001,2025-10-17_11h17.30.492,HW_LDT_1,2024.2.4,MacIntel,63.29113924,,,,,,,,,,,,,,,,,,,,,442.8634,443.0612,443.0613,443.5602,,,,,,,,,,,,,,1.8692,0,,,,,,,,,,,,,,m,,,,,,,,,,,,,,,93,0,443.5607,445.4447,z,0,1.8692,,[],[],[],[],[],[],[],445.4448,447.4445,447.4446,447.4448,[],[],[],[],[],[],[],,447.4448,447.4449,0.158259549,-0.125980903,0,0,0,,0,92,92,101,1,4,word,DELICATE,cursive,delicate_c.png,,,,,,
,,,,31982,001,2025-10-17_11h17.30.492,HW_LDT_1,2024.2.4,MacIntel,63.29113924,,,,,,,,,,,,,,,,,,,,,447.4464,447.6436,447.6437,448.1446,,,,,,,,,,,,,,0.7686,1,,,,,,,,,,,,,,m,,,,,,,,,,,,,,,94,0,448.1451,448.928,m,1,0.7686,,[],[],[],[],[],[],[],448.9281,450.9278,450.9278,450.9281,[],[],[],[],[],[],[],,450.9282,450.9283,0.158259549,-0.125980903,0,0,0,,0,93,93,122,1,4,word,MOBILE,print,mobile_p.png,,,,,,
,,,,31982,001,2025-10-17_11h17.30.492,HW_LDT_1,2024.2.4,MacIntel,63.29113924,,,,,,,,,,,,,,,,,,,,,450.9299,451.1278,451.1278,451.6268,,,,,,,,,,,,,,1.5254,1,,,,,,,,,,,,,,m,,,,,,,,,,,,,,,95,0,451.6273,453.1612,m,1,1.5254,,[],[],[],[],[],[],[],453.1613,455.1612,455.1612,455.1614,[],[],[],[],[],[],[],,455.1615,455.1617,0.158259549,-0.125980903,0,0,0,,0,94,94,105,1,4,word,EDITOR,print,editor_p.png,,,,,,
,,,,31982,001,2025-10-17_11h17.30.492,HW_LDT_1,2024.2.4,MacIntel,63.29113924,,,,,,,,,,,,,,,,,,,,,455.1632,455.3612,455.3613,455.8611,,,,,,,,,,,,,,0.5852,1,,,,,,,,,,,,,,m,,,,,,,,,,,,,,,96,0,455.862,456.4603,m,1,0.5852,,[],[],[],[],[],[],[],456.4603,458.4611,458.4612,458.4614,[],[],[],[],[],[],[],,458.4615,458.4616,0.158259549,-0.125980903,0,0,0,,0,95,95,120,1,4,word,MILITARY,print,military_p.png,,,,,,
,,,,31982,001,2025-10-17_11h17.30.492,HW_LDT_1,2024.2.4,MacIntel,63.29113924,,,,,,,,,,,,,,,,,,,,,458.4631,458.6602,458.6603,459.1612,,,,,,,,,,,,,,1.836,1,,,,,,,,,,,,,,z,,,,,,,,,,,,,,,97,0,459.1618,461.0113,z,1,1.836,,[],[],[],[],[],[],[],461.0114,463.0111,463.0112,463.0114,[],[],[],[],[],[],[],,463.0114,463.0115,0.158259549,-0.125980903,0,0,0,,0,96,96,72,1,4,TL,relugar,cursive,relugar_c.png,,,,,,
,,,,31982,001,2025-10-17_11h17.30.492,HW_LDT_1,2024.2.4,MacIntel,63.29113924,,,,,,,,,,,,,,,,,,,,,463.0132,463.2102,463.2103,463.7102,,,,,,,,,,,,,,0.9325,1,,,,,,,,,,,,,,m,,,,,,,,,,,,,,,98,0,463.7108,464.6444,m,1,0.9325,,[],[],[],[],[],[],[],464.6445,466.6435,466.6436,466.6438,[],[],[],[],[],[],[],,466.6439,466.6439,0.158259549,-0.125980903,0,0,0,,0,97,97,140,1,4,word,RELATIVE,print,relative_p.png,,,,,,
,,,,31982,001,2025-10-17_11h17.30.492,HW_LDT_1,2024.2.4,MacIntel,63.29113924,,,,,,,,,,,,,,,,,,,,,466.645,466.8435,466.8435,467.3445,,,,,,,,,,,,,,0.8863,1,,,,,,,,,,,,,,z,,,,,,,,,,,,,,,99,0,467.3453,468.2435,z,1,0.8863,,[],[],[],[],[],[],[],468.2436,470.2445,470.2446,470.2448,[],[],[],[],[],[],[],,470.2448,470.245,0.158259549,-0.125980903,0,0,0,,0,98,98,50,1,4,RL,vecelan,cursive,vecelan_c.png,,,,,,
,,,,31982,001,2025-10-17_11h17.30.492,HW_LDT_1,2024.2.4,MacIntel,63.29113924,,,,,,,,,,,,,,,,,,,,,470.2465,470.4445,470.4445,470.9446,,,,,,,,,,,,,,0.9693,1,,,,,,,,,,,,,,z,,,,,,,,,,,,,,,100,0,470.9452,471.9268,z,1,0.9693,,[],[],[],[],[],[],[],471.9269,473.9279,473.9279,473.9282,[],[],[],[],[],[],[],,473.9282,473.9284,0.158259549,-0.125980903,0,0,0,,0,99,99,46,1,4,RL,skofen,cursive,skofen_c.png,,,,,,
,,,,31982,001,2025-10-17_11h17.30.492,HW_LDT_1,2024.2.4,MacIntel,63.29113924,,,,,,,,,,,,,,,,,,,,,473.9302,474.1269,474.1269,474.6278,,,,,,,,,,,,,,0.7515,1,,,,,,,,,,,,,,m,,,,,,,,,,,,,,,101,0,474.6285,475.3945,m,1,0.7515,,[],[],[],[],[],[],[],475.3946,477.3943,477.3944,477.3945,[],[],[],[],[],[],[],,477.3946,477.3947,0.158259549,-0.125980903,0,0,0,,0,100,100,80,1,4,word,ACADEMY,print,academy_p.png,,,,,,
,,,,31982,001,2025-10-17_11h17.30.492,HW_LDT_1,2024.2.4,MacIntel,63.29113924,,,,,,,,,,,,,,,,,,,,,477.3962,477.5943,477.5944,478.0936,,,,,,,,,,,,,,1.54,1,,,,,,,,,,,,,,z,,,,,,,,,,,,,,,102,0,478.0941,479.6447,z,1,1.54,,[],[],[],[],[],[],[],479.6447,481.6444,481.6445,481.6448,[],[],[],[],[],[],[],,481.6448,481.6451,0.158259549,-0.125980903,0,0,0,,0,101,101,13,1,4,RL,crisival,cursive,crisival_c.png,,,,,,
,,,,31982,001,2025-10-17_11h17.30.492,HW_LDT_1,2024.2.4,MacIntel,63.29113924,,,,,,,,,,,,,,,,,,,,,481.6464,481.8444,481.8446,482.3444,,,,,,,,,,,,,,1.1013,0,,,,,,,,,,,,,,z,,,,,,,,,,,,,,,103,0,482.3452,483.4611,m,0,1.1013,,[],[],[],[],[],[],[],483.4612,485.4611,485.4613,485.4615,[],[],[],[],[],[],[],,485.4616,485.4618,0.158259549,-0.125980903,0,0,0,,0,102,102,30,1,4,RL,nunewical,cursive,nunewical_c.png,,,,,,
,,,,31982,001,2025-10-17_11h17.30.492,HW_LDT_1,2024.2.4,MacIntel,63.29113924,,,,,,,,,,,,,,,,,,,,,485.463,485.6602,485.6602,486.1601,,,,,,,,,,,,,,1.8701,1,,,,,,,,,,,,,,m,,,,,,,,,,,,,,,104,1,486.1606,488.0447,m,1,1.8701,,[],[],[],[],[],[],[],488.0447,490.0445,490.0446,493.3446,[],[],[],[],[],[],[],z,493.3447,493.3448,0.094118924,-0.341449653,0,0,0,,0,103,103,118,1,4,word,MEDICINE,cursive,medicine_c.png,3.2873,,,,,
,,,,31982,001,2025-10-17_11h17.30.492,HW_LDT_1,2024.2.4,MacIntel,63.29113924,,,,,,,,,,,,,,,,,,,,,493.3463,493.5444,493.5445,494.0444,,,,,,,,,,,,,,2.8974,0,,,,,,,,,,,,,,z,,,,,,,,,,,,,,,105,0,494.0452,496.9443,m,0,2.8974,,[],[],[],[],[],[],[],496.9444,498.9445,498.9446,498.9448,[],[],[],[],[],[],[],,498.9449,498.9449,0.094118924,-0.341449653,0,0,0,,0,104,104,45,1,4,RL,spetisic,cursive,spetisic_c.png,,,,,,
,,,,31982,001,2025-10-17_11h17.30.492,HW_LDT_1,2024.2.4,MacIntel,63.29113924,,,,,,,,,,,,,,,,,,,,,498.9466,499.1444,499.1444,499.6444,,,,,,,,,,,,,,0.7313,1,,,,,,,,,,,,,,m,,,,,,,,,,,,,,,106,0,499.6451,500.3777,m,1,0.7313,,[],[],[],[],[],[],[],500.3779,502.3778,502.3779,502.3781,[],[],[],[],[],[],[],,502.3782,502.3783,0.094118924,-0.341449653,0,0,0,,0,105,105,127,1,4,word,ORIGINAL,print,original_p.png,,,,,,
,,,,31982,001,2025-10-17_11h17.30.492,HW_LDT_1,2024.2.4,MacIntel,63.29113924,,,,,,,,,,,,,,,,,,,,,502.3798,502.5777,502.5778,503.0769,,,,,,,,,,,,,,0.706,1,,,,,,,,,,,,,,z,,,,,,,,,,,,,,,107,0,503.0777,503.7944,z,1,0.706,,[],[],[],[],[],[],[],503.7945,505.7935,505.7935,505.7937,[],[],[],[],[],[],[],,505.7938,505.7939,0.094118924,-0.341449653,0,0,0,,0,106,106,0,1,4,RL,abanemy,print,abanemy_p.png,,,,,,
,,,,31982,001,2025-10-17_11h17.30.492,HW_LDT_1,2024.2.4,MacIntel,63.29113924,,,,,,,,,,,,,,,,,,,,,505.7955,505.9944,505.9944,506.4944,,,,,,,,,,,,,,1.0353,1,,,,,,,,,,,,,,m,,,,,,,,,,,,,,,108,0,506.4951,507.5444,m,1,1.0353,,[],[],[],[],[],[],[],507.5445,509.5444,509.5445,509.5447,[],[],[],[],[],[],[],,509.5447,509.5448,0.094118924,-0.341449653,0,0,0,,0,107,107,81,1,4,word,ADVISORY,cursive,advisory_c.png,,,,,,
,,,,31982,001,2025-10-17_11h17.30.492,HW_LDT_1,2024.2.4,MacIntel,63.29113924,,,,,,,,,,,,,,,,,,,,,509.5464,509.7444,509.7444,510.2434,,,,,,,,,,,,,,3.0966,1,,,,,,,,,,,,,,z,,,,,,,,,,,,,,,109,0,510.244,513.3431,z,1,3.0966,,[],[],[],[],[],[],[],513.3432,515.3434,515.3436,515.3437,[],[],[],[],[],[],[],,515.3437,515.3439,0.094118924,-0.341449653,0,0,0,,0,108,108,26,1,4,RL,mesibine,cursive,mesibine_c.png,,,,,,
,,,,31982,001,2025-10-17_11h17.30.492,HW_LDT_1,2024.2.4,MacIntel,63.29113924,,,,,,,,,,,,,,,,,,,,,515.3453,515.5443,515.5443,516.0443,,,,,,,,,,,,,,1.4864,1,,,,,,,,,,,,,,z,,,,,,,,,,,,,,,110,0,516.0449,517.5444,z,1,1.4864,,[],[],[],[],[],[],[],517.5445,519.5444,519.5445,519.5447,[],[],[],[],[],[],[],,519.5448,519.5449,0.094118924,-0.341449653,0,0,0,,0,109,109,8,1,4,RL,casagity,cursive,casagity_c.png,,,,,,
,,,,31982,001,2025-10-17_11h17.30.492,HW_LDT_1,2024.2.4,MacIntel,63.29113924,,,,,,,,,,,,,,,,,,,,,519.5463,519.7442,519.7443,520.2442,,,,,,,,,,,,,,1.0028,1,,,,,,,,,,,,,,m,,,,,,,,,,,,,,,111,0,520.2448,521.261,m,1,1.0028,,[],[],[],[],[],[],[],521.261,523.26,523.26,523.2602,[],[],[],[],[],[],[],,523.2603,523.2604,0.094118924,-0.341449653,0,0,0,,0,110,110,116,1,4,word,MARGINAL,cursive,marginal_c.png,,,,,,
,,,,31982,001,2025-10-17_11h17.30.492,HW_LDT_1,2024.2.4,MacIntel,63.29113924,,,,,,,,,,,,,,,,,,,,,523.2615,523.4609,523.461,523.96,,,,,,,,,,,,,,0.9368,1,,,,,,,,,,,,,,m,,,,,,,,,,,,,,,112,0,523.9607,524.911,m,1,0.9368,,[],[],[],[],[],[],[],524.911,526.911,526.911,526.9112,[],[],[],[],[],[],[],,526.9112,526.9114,0.094118924,-0.341449653,0,0,0,,0,111,111,97,1,4,word,COVERAGE,cursive,coverage_c.png,,,,,,
,,,,31982,001,2025-10-17_11h17.30.492,HW_LDT_1,2024.2.4,MacIntel,63.29113924,,,,,,,,,,,,,,,,,,,,,526.9128,527.11,527.11,527.6102,,,,,,,,,,,,,,1.4571,1,,,,,,,,,,,,,,m,,,,,,,,,,,,,,,113,0,527.6109,529.0776,m,1,1.4571,,[],[],[],[],[],[],[],529.0777,531.0768,531.0769,531.0771,[],[],[],[],[],[],[],,531.0772,531.0772,0.094118924,-0.341449653,0,0,0,,0,112,112,124,1,4,word,NUMERICAL,cursive,numerical_c.png,,,,,,
,,,,31982,001,2025-10-17_11h17.30.492,HW_LDT_1,2024.2.4,MacIntel,63.29113924,,,,,,,,,,,,,,,,,,,,,531.0787,531.2775,531.2775,531.7776,,,,,,,,,,,,,,0.8683,1,,,,,,,,,,,,,,z,,,,,,,,,,,,,,,114,1,531.7782,532.6605,z,1,0.8683,,[],[],[],[],[],[],[],532.6606,534.661,534.6611,537.8276,[],[],[],[],[],[],[],z,537.8277,537.8278,0.094118924,-0.341449653,0,0,0,,0,113,113,28,1,4,RL,mifikary,print,mifikary_p.png,3.1566,,,,,
,,,,31982,001,2025-10-17_11h17.30.492,HW_LDT_1,2024.2.4,MacIntel,63.29113924,,,,,,,,,,,,,,,,,,,,,537.8292,538.0275,538.0275,538.5266,,,,,,,,,,,,,,0.6491,0,,,,,,,,,,,,,,z,,,,,,,,,,,,,,,115,0,538.5271,539.1775,m,0,0.6491,,[],[],[],[],[],[],[],539.1776,541.1776,541.1777,541.1779,[],[],[],[],[],[],[],,541.1779,541.178,0.094118924,-0.341449653,0,0,0,,0,114,114,62,1,4,TL,locigal,print,locigal_p.png,,,,,,
,,,,31982,001,2025-10-17_11h17.30.492,HW_LDT_1,2024.2.4,MacIntel,63.29113924,,,,,,,,,,,,,,,,,,,,,541.1794,541.3775,541.3775,541.8775,,,,,,,,,,,,,,1.3363,0,,,,,,,,,,,,,,m,,,,,,,,,,,,,,,116,0,541.8782,543.2275,z,0,1.3363,,[],[],[],[],[],[],[],543.2275,545.2266,545.2268,545.2269,[],[],[],[],[],[],[],,545.2269,545.227,0.094118924,-0.341449653,0,0,0,,0,115,115,114,1,4,word,LOCATE,cursive,locate_c.png,,,,,,
,,,,31982,001,2025-10-17_11h17.30.492,HW_LDT_1,2024.2.4,MacIntel,63.29113924,,,,,,,,,,,,,,,,,,,,,545.2282,545.4265,545.4266,545.9274,,,,,,,,,,,,,,2.7528,1,,,,,,,,,,,,,,z,,,,,,,,,,,,,,,117,0,545.9281,548.6943,z,1,2.7528,,[],[],[],[],[],[],[],548.6943,550.6934,550.6934,550.6936,[],[],[],[],[],[],[],,550.6936,550.6937,0.094118924,-0.341449653,0,0,0,,0,116,116,57,1,4,TL,etidor,print,etidor_p.png,,,,,,
,,,,31982,001,2025-10-17_11h17.30.492,HW_LDT_1,2024.2.4,MacIntel,63.29113924,,,,,,,,,,,,,,,,,,,,,550.695,550.8942,550.8942,551.3942,,,,,,,,,,,,,,1.265,0,,,,,,,,,,,,,,m,,,,,,,,,,,,,,,118,0,551.3946,552.6604,z,0,1.265,,[],[],[],[],[],[],[],552.6604,554.66,554.6601,554.6603,[],[],[],[],[],[],[],,554.6603,554.6604,0.094118924,-0.341449653,0,0,0,,0,117,117,106,1,4,word,ELABORATE,cursive,elaborate_c.png,,,,,,
,,,,31982,001,2025-10-17_11h17.30.492,HW_LDT_1,2024.2.4,MacIntel,63.29113924,,,,,,,,,,,,,,,,,,,,,554.6617,554.8608,554.8608,555.36,,,,,,,,,,,,,,1.4882,1,,,,,,,,,,,,,,m,,,,,,,,,,,,,,,119,0,555.3604,556.8609,m,1,1.4882,,[],[],[],[],[],[],[],556.861,558.86,558.86,558.8601,[],[],[],[],[],[],[],,558.8601,558.8602,0.094118924,-0.341449653,0,0,0,,0,118,118,88,1,4,word,CAMERA,print,camera_p.png,,,,,,
,,,,31982,001,2025-10-17_11h17.30.492,HW_LDT_1,2024.2.4,MacIntel,63.29113924,,,,,,,,,,,,,,,,,,,,,558.8614,559.061,559.0611,559.5599,,,,,,,,,,,,,,1.1371,1,,,,,,,,,,,,,,z,,,,,,,,,,,,,,,120,0,559.5605,560.7099,z,1,1.1371,,[],[],[],[],[],[],[],560.7099,562.7107,562.7107,562.7109,[],[],[],[],[],[],[],,562.711,562.7111,0.094118924,-0.341449653,0,0,0,,0,119,119,21,1,4,RL,insibate,print,insibate_p.png,,,,,,
,,,,31982,001,2025-10-17_11h17.30.492,HW_LDT_1,2024.2.4,MacIntel,63.29113924,,,,,,,,,,,,,,,,,,,,,562.7123,562.9098,562.9098,563.4108,,,,,,,,,,,,,,1.3359,1,,,,,,,,,,,,,,z,,,,,,,,,,,,,,,121,1,563.4115,564.7607,z,1,1.3359,,[],[],[],[],[],[],[],564.7608,566.7608,566.7608,568.1776,[],[],[],[],[],[],[],z,568.1777,568.1778,0.094118924,-0.341449653,0,0,0,,0,120,120,7,1,4,RL,casena,print,casena_p.png,1.4034,,,,,
,,,,31982,001,2025-10-17_11h17.30.492,HW_LDT_1,2024.2.4,MacIntel,63.29113924,,,,,,,,,,,,,,,,,,,,,568.1791,568.3774,568.3775,568.8775,,,,,,,,,,,,,,1.0528,1,,,,,,,,,,,,,,m,,,,,,,,,,,,,,,122,1,568.8781,569.9442,m,1,1.0528,,[],[],[],[],[],[],[],569.9443,571.9441,571.9442,574.2105,[],[],[],[],[],[],[],m,574.2105,574.2105,0.094118924,-0.341449653,0,0,0,,0,121,121,147,1,4,word,ROMANTIC,print,romantic_p.png,2.2525,,,,,
,,,,31982,001,2025-10-17_11h17.30.492,HW_LDT_1,2024.2.4,MacIntel,63.29113924,,,,,,,,,,,,,,,,,,,,,574.2112,574.4107,574.4108,574.9106,,,,,,,,,,,,,,0.8697,1,,,,,,,,,,,,,,z,,,,,,,,,,,,,,,123,0,574.9112,575.7942,z,1,0.8697,,[],[],[],[],[],[],[],575.7944,577.7941,577.7941,577.7943,[],[],[],[],[],[],[],,577.7943,577.7945,0.094118924,-0.341449653,0,0,0,,0,122,122,2,1,4,RL,asiral,cursive,asiral_c.png,,,,,,
,,,,31982,001,2025-10-17_11h17.30.492,HW_LDT_1,2024.2.4,MacIntel,63.29113924,,,,,,,,,,,,,,,,,,,,,577.796,577.9941,577.9942,578.4942,,,,,,,,,,,,,,0.9798,1,,,,,,,,,,,,,,m,,,,,,,,,,,,,,,124,1,578.4949,579.4774,m,1,0.9798,,[],[],[],[],[],[],[],579.4775,581.4774,581.4774,583.3606,[],[],[],[],[],[],[],z,583.3606,583.3608,0.094118924,-0.341449653,0,0,0,,0,123,123,136,1,4,word,RADICAL,print,radical_p.png,1.8822,,,,,
,,,,31982,001,2025-10-17_11h17.30.492,HW_LDT_1,2024.2.4,MacIntel,63.29113924,,,,,,,,,,,,,,,,,,,,,583.362,583.5608,583.5608,584.0601,,,,,,,,,,,,,,1.2873,1,,,,,,,,,,,,,,m,,,,,,,,,,,,,,,125,1,584.0606,585.3608,m,1,1.2873,,[],[],[],[],[],[],[],585.3608,587.3608,587.3608,588.9609,[],[],[],[],[],[],[],m,588.9609,588.9611,0.094118924,-0.341449653,0,0,0,,0,124,124,125,1,4,word,OPERATOR,print,operator_p.png,1.5885,,,,,
,,,,31982,001,2025-10-17_11h17.30.492,HW_LDT_1,2024.2.4,MacIntel,63.29113924,,,,,,,,,,,,,,,,,,,,,588.9624,589.1607,589.1608,589.6608,,,,,,,,,,,,,,0.8694,1,,,,,,,,,,,,,,z,,,,,,,,,,,,,,,126,1,589.6616,590.544,z,1,0.8694,,[],[],[],[],[],[],[],590.5441,592.5441,592.5442,594.3944,[],[],[],[],[],[],[],m,594.3945,594.3946,0.094118924,-0.341449653,0,0,0,,0,125,125,73,1,4,TL,regilion,print,regilion_p.png,1.8369,,,,,
,,,,31982,001,2025-10-17_11h17.30.492,HW_LDT_1,2024.2.4,MacIntel,63.29113924,,,,,,,,,,,,,,,,,,,,,594.396,594.5941,594.5942,595.0942,,,,,,,,,,,,,,0.9363,1,,,,,,,,,,,,,,m,,,,,,,,,,,,,,,127,1,595.0949,596.0441,m,1,0.9363,,[],[],[],[],[],[],[],596.0443,598.0441,598.0442,599.7274,[],[],[],[],[],[],[],m,599.7274,599.7277,0.094118924,-0.341449653,0,0,0,,0,126,126,154,1,4,word,STORAGE,print,storage_p.png,1.6804,,,,,
,,,,31982,001,2025-10-17_11h17.30.492,HW_LDT_1,2024.2.4,MacIntel,63.29113924,,,,,,,,,,,,,,,,,,,,,599.7289,599.9274,599.9274,600.4274,,,,,,,,,,,,,,1.2536,1,,,,,,,,,,,,,,m,,,,,,,,,,,,,,,128,1,600.4281,601.694,m,1,1.2536,,[],[],[],[],[],[],[],601.6941,603.6941,603.6942,604.9107,[],[],[],[],[],[],[],m,604.9108,604.911,0.094118924,-0.341449653,0,0,0,,0,127,127,110,1,4,word,HERITAGE,print,heritage_p.png,1.2044,,,,,
,,,,31982,001,2025-10-17_11h17.30.492,HW_LDT_1,2024.2.4,MacIntel,63.29113924,,,,,,,,,,,,,,,,,,,,,604.9125,605.1107,605.1108,605.6107,,,,,,,,,,,,,,1.8811,1,,,,,,,,,,,,,,m,,,,,,,,,,,,,,,129,0,605.6114,607.4935,m,1,1.8811,,[],[],[],[],[],[],[],607.4936,609.494,609.4941,609.4943,[],[],[],[],[],[],[],,609.4944,609.4945,0.094118924,-0.341449653,0,0,0,,0,128,128,128,1,4,word,PACIFIC,cursive,pacific_c.png,,,,,,
,,,,31982,001,2025-10-17_11h17.30.492,HW_LDT_1,2024.2.4,MacIntel,63.29113924,,,,,,,,,,,,,,,,,,,,,609.4958,609.6931,609.6931,610.194,,,,,,,,,,,,,,1.0869,1,,,,,,,,,,,,,,m,,,,,,,,,,,,,,,130,0,610.1947,611.294,m,1,1.0869,,[],[],[],[],[],[],[],611.2941,613.294,613.294,613.2942,[],[],[],[],[],[],[],,613.2943,613.2944,0.094118924,-0.341449653,0,0,0,,0,129,129,159,1,4,word,VETERAN,cursive,veteran_c.png,,,,,,
,,,,31982,001,2025-10-17_11h17.30.492,HW_LDT_1,2024.2.4,MacIntel,63.29113924,,,,,,,,,,,,,,,,,,,,,613.2959,613.4939,613.4939,613.9939,,,,,,,,,,,,,,1.1524,1,,,,,,,,,,,,,,z,,,,,,,,,,,,,,,131,0,613.9946,615.1608,z,1,1.1524,,[],[],[],[],[],[],[],615.161,617.1608,617.1608,617.1611,[],[],[],[],[],[],[],,617.1611,617.1612,0.094118924,-0.341449653,0,0,0,,0,130,130,69,1,4,TL,quafily,print,quafily_p.png,,,,,,
,,,,31982,001,2025-10-17_11h17.30.492,HW_LDT_1,2024.2.4,MacIntel,63.29113924,,,,,,,,,,,,,,,,,,,,,617.1627,617.3607,617.3608,617.8608,,,,,,,,,,,,,,1.3572,1,,,,,,,,,,,,,,z,,,,,,,,,,,,,,,132,0,617.8616,619.2263,z,1,1.3572,,[],[],[],[],[],[],[],619.2264,621.2274,621.2275,621.2277,[],[],[],[],[],[],[],,621.2278,621.228,0.094118924,-0.341449653,0,0,0,,0,131,131,15,1,4,RL,debave,cursive,debave_c.png,,,,,,
,,,,31982,001,2025-10-17_11h17.30.492,HW_LDT_1,2024.2.4,MacIntel,63.29113924,,,,,,,,,,,,,,,,,,,,,621.2296,621.4271,621.4272,621.9273,,,,,,,,,,,,,,3.0873,1,,,,,,,,,,,,,,z,,,,,,,,,,,,,,,133,0,621.928,625.0273,z,1,3.0873,,[],[],[],[],[],[],[],625.0274,627.0273,627.0274,627.0276,[],[],[],[],[],[],[],,627.0277,627.0277,0.094118924,-0.341449653,0,0,0,,0,132,132,34,1,4,RL,posity,cursive,posity_c.png,,,,,,
,,,,31982,001,2025-10-17_11h17.30.492,HW_LDT_1,2024.2.4,MacIntel,63.29113924,,,,,,,,,,,,,,,,,,,,,627.0291,627.2263,627.2263,627.7273,,,,,,,,,,,,,,1.0354,1,,,,,,,,,,,,,,z,,,,,,,,,,,,,,,134,0,627.7281,628.7775,z,1,1.0354,,[],[],[],[],[],[],[],628.7776,630.7774,630.7775,630.7777,[],[],[],[],[],[],[],,630.7777,630.7778,0.289401042,0.499409722,0,0,0,,0,133,133,47,1,4,RL,stopave,print,stopave_p.png,,,,,,
,,,,31982,001,2025-10-17_11h17.30.492,HW_LDT_1,2024.2.4,MacIntel,63.29113924,,,,,,,,,,,,,,,,,,,,,630.7789,630.9762,630.9763,631.4769,,,,,,,,,,,,,,1.5417,1,,,,,,,,,,,,,,m,,,,,,,,,,,,,,,135,0,631.4773,633.0273,m,1,1.5417,,[],[],[],[],[],[],[],633.0274,635.0274,635.0275,635.0278,[],[],[],[],[],[],[],,635.0279,635.0281,0.230798611,0.172899306,0,0,0,,0,134,134,86,1,4,word,BESIDE,print,beside_p.png,,,,,,
,,,,31982,001,2025-10-17_11h17.30.492,HW_LDT_1,2024.2.4,MacIntel,63.29113924,,,,,,,,,,,,,,,,,,,,,635.0298,635.2273,635.2274,635.7273,,,,,,,,,,,,,,1.0696,1,,,,,,,,,,,,,,z,,,,,,,,,,,,,,,136,0,635.728,636.8105,z,1,1.0696,,[],[],[],[],[],[],[],636.8106,638.8106,638.8106,638.8109,[],[],[],[],[],[],[],,638.8109,638.8111,0.230798611,0.172899306,0,0,0,,0,135,135,10,1,4,RL,carminal,cursive,carminal_c.png,,,,,,
,,,,31982,001,2025-10-17_11h17.30.492,HW_LDT_1,2024.2.4,MacIntel,63.29113924,,,,,,,,,,,,,,,,,,,,,638.8125,639.0106,639.0107,639.5105,,,,,,,,,,,,,,1.403,1,,,,,,,,,,,,,,z,,,,,,,,,,,,,,,137,0,639.5111,640.9272,z,1,1.403,,[],[],[],[],[],[],[],640.9272,642.9272,642.9272,642.9274,[],[],[],[],[],[],[],,642.9274,642.9276,0.302322049,0.5,0,0,0,,0,136,136,3,1,4,RL,bewoted,print,bewoted_p.png,,,,,,
,,,,31982,001,2025-10-17_11h17.30.492,HW_LDT_1,2024.2.4,MacIntel,63.29113924,,,,,,,,,,,,,,,,,,,,,642.9291,643.1273,643.1273,643.6269,,,,,,,,,,,,,,2.052,1,,,,,,,,,,,,,,m,,,,,,,,,,,,,,,138,0,643.6275,645.6939,m,1,2.052,,[],[],[],[],[],[],[],645.694,647.6927,647.6929,647.6931,[],[],[],[],[],[],[],,647.6931,647.6933,0.302322049,0.5,0,0,0,,0,137,137,98,1,4,word,CRIMINAL,cursive,criminal_c.png,,,,,,
,,,,31982,001,2025-10-17_11h17.30.492,HW_LDT_1,2024.2.4,MacIntel,63.29113924,,,,,,,,,,,,,,,,,,,,,647.6943,647.8939,647.894,648.3939,,,,,,,,,,,,,,0.7563,1,,,,,,,,,,,,,,z,,,,,,,,,,,,,,,139,1,648.3946,649.1604,z,1,0.7563,,[],[],[],[],[],[],[],649.1606,651.1606,651.1606,652.7441,[],[],[],[],[],[],[],z,652.7442,652.7442,0.302322049,0.5,0,0,0,,0,138,138,6,1,4,RL,caleberia,cursive,caleberia_c.png,1.569,,,,,
,,,,31982,001,2025-10-17_11h17.30.492,HW_LDT_1,2024.2.4,MacIntel,63.29113924,,,,,,,,,,,,,,,,,,,,,652.7458,652.9438,652.9438,653.4438,,,,,,,,,,,,,,1.436,1,,,,,,,,,,,,,,z,,,,,,,,,,,,,,,140,0,653.4443,654.8929,z,1,1.436,,[],[],[],[],[],[],[],654.893,656.893,656.893,656.8932,[],[],[],[],[],[],[],,656.8932,656.8933,0.302322049,0.5,0,0,0,,0,139,139,22,1,4,RL,linedal,cursive,linedal_c.png,,,,,,
,,,,31982,001,2025-10-17_11h17.30.492,HW_LDT_1,2024.2.4,MacIntel,63.29113924,,,,,,,,,,,,,,,,,,,,,656.8945,657.094,657.0941,657.5928,,,,,,,,,,,,,,0.7706,1,,,,,,,,,,,,,,m,,,,,,,,,,,,,,,141,0,657.5935,658.3773,m,1,0.7706,,[],[],[],[],[],[],[],658.3774,660.3761,660.3762,660.3764,[],[],[],[],[],[],[],,660.3764,660.3765,0.302322049,0.5,0,0,0,,0,140,140,94,1,4,word,CLINICAL,print,clinical_p.png,,,,,,
,,,,31982,001,2025-10-17_11h17.30.492,HW_LDT_1,2024.2.4,MacIntel,63.29113924,,,,,,,,,,,,,,,,,,,,,660.3774,660.5762,660.5762,661.0762,,,,,,,,,,,,,,1.138,1,,,,,,,,,,,,,,m,,,,,,,,,,,,,,,142,0,661.0767,662.2271,m,1,1.138,,[],[],[],[],[],[],[],662.2271,664.2264,664.2265,664.2266,[],[],[],[],[],[],[],,664.2266,664.2267,0.302322049,0.5,0,0,0,,0,141,141,145,1,4,word,RESUME,print,resume_p.png,,,,,,
,,,,31982,001,2025-10-17_11h17.30.492,HW_LDT_1,2024.2.4,MacIntel,63.29113924,,,,,,,,,,,,,,,,,,,,,664.228,664.4261,664.4261,664.9271,,,,,,,,,,,,,,1.0574,1,,,,,,,,,,,,,,m,,,,,,,,,,,,,,,143,0,664.9278,665.9936,m,1,1.0574,,[],[],[],[],[],[],[],665.9937,667.9937,667.9938,667.9941,[],[],[],[],[],[],[],,667.9942,667.9943,0.302322049,0.5,0,0,0,,0,142,142,96,1,4,word,CONSIDER,cursive,consider_c.png,,,,,,
,,,,31982,001,2025-10-17_11h17.30.492,HW_LDT_1,2024.2.4,MacIntel,63.29113924,,,,,,,,,,,,,,,,,,,,,667.9955,668.1938,668.1938,668.6937,,,,,,,,,,,,,,1.1695,1,,,,,,,,,,,,,,m,,,,,,,,,,,,,,,144,0,668.6945,669.8771,m,1,1.1695,,[],[],[],[],[],[],[],669.8771,671.8768,671.8768,671.877,[],[],[],[],[],[],[],,671.877,671.8772,0.302322049,0.5,0,0,0,,0,143,143,141,1,4,word,RELIGION,print,religion_p.png,,,,,,
,,,,31982,001,2025-10-17_11h17.30.492,HW_LDT_1,2024.2.4,MacIntel,63.29113924,,,,,,,,,,,,,,,,,,,,,671.8784,672.0771,672.0771,672.576,,,,,,,,,,,,,,1.2829,1,,,,,,,,,,,,,,z,,,,,,,,,,,,,,,145,0,672.5765,673.8603,z,1,1.2829,,[],[],[],[],[],[],[],673.8604,675.8605,675.8605,675.8607,[],[],[],[],[],[],[],,675.8608,675.8608,0.302322049,0.5,0,0,0,,0,144,144,1,1,4,RL,afaneur,cursive,afaneur_c.png,,,,,,
,,,,31982,001,2025-10-17_11h17.30.492,HW_LDT_1,2024.2.4,MacIntel,63.29113924,,,,,,,,,,,,,,,,,,,,,675.8621,676.0603,676.0604,676.5596,,,,,,,,,,,,,,1.3496,0,,,,,,,,,,,,,,m,,,,,,,,,,,,,,,146,0,676.5601,677.9104,z,0,1.3496,,[],[],[],[],[],[],[],677.9104,679.9097,679.9097,679.91,[],[],[],[],[],[],[],,679.91,679.9101,0.302322049,0.5,0,0,0,,0,145,145,87,1,4,word,CAFETERIA,cursive,cafeteria_c.png,,,,,,
,,,,31982,001,2025-10-17_11h17.30.492,HW_LDT_1,2024.2.4,MacIntel,63.29113924,,,,,,,,,,,,,,,,,,,,,679.9112,680.1093,680.1094,680.6103,,,,,,,,,,,,,,0.6186,1,,,,,,,,,,,,,,m,,,,,,,,,,,,,,,147,0,680.611,681.2438,m,1,0.6186,,[],[],[],[],[],[],[],681.2439,683.2437,683.2437,683.244,[],[],[],[],[],[],[],,683.2441,683.2442,0.302322049,0.5,0,0,0,,0,146,146,149,1,4,word,SENATOR,print,senator_p.png,,,,,,
,,,,31982,001,2025-10-17_11h17.30.492,HW_LDT_1,2024.2.4,MacIntel,63.29113924,,,,,,,,,,,,,,,,,,,,,683.2456,683.4427,683.4428,683.9428,,,,,,,,,,,,,,0.6704,1,,,,,,,,,,,,,,m,,,,,,,,,,,,,,,148,0,683.9432,684.627,m,1,0.6704,,[],[],[],[],[],[],[],684.6271,686.627,686.6271,686.6274,[],[],[],[],[],[],[],,686.6275,686.6276,0.302322049,0.5,0,0,0,,0,147,147,131,1,4,word,POPULAR,print,popular_p.png,,,,,,
,,,,31982,001,2025-10-17_11h17.30.492,HW_LDT_1,2024.2.4,MacIntel,63.29113924,,,,,,,,,,,,,,,,,,,,,686.6289,686.8271,686.8272,687.326,,,,,,,,,,,,,,0.7498,1,,,,,,,,,,,,,,m,,,,,,,,,,,,,,,149,0,687.3266,688.0771,m,1,0.7498,,[],[],[],[],[],[],[],688.0771,690.0771,690.0771,690.0773,[],[],[],[],[],[],[],,690.0774,690.0776,0.302322049,0.5,0,0,0,,0,148,148,102,1,4,word,DENSITY,cursive,density_c.png,,,,,,
,,,,31982,001,2025-10-17_11h17.30.492,HW_LDT_1,2024.2.4,MacIntel,63.29113924,,,,,,,,,,,,,,,,,,,,,690.0789,690.2761,690.2762,690.7761,,,,,,,,,,,,,,0.6834,1,,,,,,,,,,,,,,m,,,,,,,,,,,,,,,150,0,690.7765,691.4607,m,1,0.6834,,[],[],[],[],[],[],[],691.4608,693.4591,693.4591,693.4592,[],[],[],[],[],[],[],,693.4592,693.4592,0.302322049,0.5,0,0,0,,0,149,149,103,1,4,word,DISPUTE,print,dispute_p.png,,,,,,
,,,,31982,001,2025-10-17_11h17.30.492,HW_LDT_1,2024.2.4,MacIntel,63.29113924,,,,,,,,,,,,,,,,,,,,,693.4599,693.6603,693.6604,694.1602,,,,,,,,,,,,,,0.6857,1,,,,,,,,,,,,,,m,,,,,,,,,,,,,,,151,0,694.1609,694.8604,m,1,0.6857,,[],[],[],[],[],[],[],694.8605,696.8603,696.8603,696.8606,[],[],[],[],[],[],[],,696.8606,696.8608,0.302322049,0.5,0,0,0,,0,150,150,115,1,4,word,LOGICAL,print,logical_p.png,,,,,,
,,,,31982,001,2025-10-17_11h17.30.492,HW_LDT_1,2024.2.4,MacIntel,63.29113924,,,,,,,,,,,,,,,,,,,,,696.8623,697.0593,697.0593,697.5597,,,,,,,,,,,,,,0.8208,1,,,,,,,,,,,,,,z,,,,,,,,,,,,,,,152,0,697.5603,698.3937,z,1,0.8208,,[],[],[],[],[],[],[],698.3937,700.3926,700.3927,700.3928,[],[],[],[],[],[],[],,700.3929,700.393,0.302322049,0.5,0,0,0,,0,151,151,70,1,4,TL,quatily,print,quatily_p.png,,,,,,
,,,,31982,001,2025-10-17_11h17.30.492,HW_LDT_1,2024.2.4,MacIntel,63.29113924,,,,,,,,,,,,,,,,,,,,,700.3942,700.5937,700.5937,701.0936,,,,,,,,,,,,,,0.8212,1,,,,,,,,,,,,,,z,,,,,,,,,,,,,,,153,0,701.0943,701.927,z,1,0.8212,,[],[],[],[],[],[],[],701.9271,703.9259,703.926,703.9261,[],[],[],[],[],[],[],,703.9262,703.9263,0.302322049,0.5,0,0,0,,0,152,152,54,1,4,TL,codemy,print,codemy_p.png,,,,,,
,,,,31982,001,2025-10-17_11h17.30.492,HW_LDT_1,2024.2.4,MacIntel,63.29113924,,,,,,,,,,,,,,,,,,,,,703.9274,704.127,704.1271,704.6261,,,,,,,,,,,,,,5.0871,1,,,,,,,,,,,,,,z,,,,,,,,,,,,,,,154,0,704.6267,709.7259,z,1,5.0871,,[],[],[],[],[],[],[],709.726,711.7269,711.727,711.7272,[],[],[],[],[],[],[],,711.7272,711.7274,0.302322049,0.5,0,0,0,,0,153,153,56,1,4,TL,donimant,cursive,donimant_c.png,,,,,,
,,,,31982,001,2025-10-17_11h17.30.492,HW_LDT_1,2024.2.4,MacIntel,63.29113924,,,,,,,,,,,,,,,,,,,,,711.7287,711.9267,711.9267,712.4269,,,,,,,,,,,,,,1.7857,1,,,,,,,,,,,,,,m,,,,,,,,,,,,,,,155,0,712.4277,714.2269,m,1,1.7857,,[],[],[],[],[],[],[],714.227,716.2269,716.227,716.2271,[],[],[],[],[],[],[],,716.2271,716.2271,0.302322049,0.5,0,0,0,,0,154,154,117,1,4,word,MARINE,print,marine_p.png,,,,,,
,,,,31982,001,2025-10-17_11h17.30.492,HW_LDT_1,2024.2.4,MacIntel,63.29113924,,,,,,,,,,,,,,,,,,,,,716.2282,716.4259,716.4259,716.9259,,,,,,,,,,,,,,0.8863,1,,,,,,,,,,,,,,m,,,,,,,,,,,,,,,156,0,716.9264,717.8259,m,1,0.8863,,[],[],[],[],[],[],[],717.826,719.826,719.8261,719.8262,[],[],[],[],[],[],[],,719.8262,719.8263,0.302322049,0.5,0,0,0,,0,155,155,82,1,4,word,AMATEUR,cursive,amateur_c.png,,,,,,
,,,,31982,001,2025-10-17_11h17.30.492,HW_LDT_1,2024.2.4,MacIntel,63.29113924,,,,,,,,,,,,,,,,,,,,,719.8272,720.0262,720.0262,720.5263,,,,,,,,,,,,,,1.0029,1,,,,,,,,,,,,,,z,,,,,,,,,,,,,,,157,0,720.5268,721.5427,z,1,1.0029,,[],[],[],[],[],[],[],721.5428,723.5435,723.5435,723.5437,[],[],[],[],[],[],[],,723.5438,723.5439,0.302322049,0.5,0,0,0,,0,156,156,4,1,4,RL,betemit,cursive,betemit_c.png,,,,,,
,,,,31982,001,2025-10-17_11h17.30.492,HW_LDT_1,2024.2.4,MacIntel,63.29113924,,,,,,,,,,,,,,,,,,,,,723.5453,723.7438,723.7438,724.2435,,,,,,,,,,,,,,1.3022,1,,,,,,,,,,,,,,z,,,,,,,,,,,,,,,158,0,724.244,725.5598,z,1,1.3022,,[],[],[],[],[],[],[],725.5599,727.5602,727.5603,727.5604,[],[],[],[],[],[],[],,727.5604,727.5606,0.302322049,0.5,0,0,0,,0,157,157,37,1,4,RL,renutal,cursive,renutal_c.png,,,,,,
,,,,31982,001,2025-10-17_11h17.30.492,HW_LDT_1,2024.2.4,MacIntel,63.29113924,,,,,,,,,,,,,,,,,,,,,727.5619,727.7602,727.7602,728.2602,,,,,,,,,,,,,,1.6705,0,,,,,,,,,,,,,,m,,,,,,,,,,,,,,,159,0,728.2608,729.9436,z,0,1.6705,,[],[],[],[],[],[],[],729.9437,731.9437,731.9437,731.9439,[],[],[],[],[],[],[],,731.9439,731.9441,0.302322049,0.5,0,0,0,,0,158,158,113,1,4,word,LITERAL,cursive,literal_c.png,,,,,,
,,,,31982,001,2025-10-17_11h17.30.492,HW_LDT_1,2024.2.4,MacIntel,63.29113924,,,,,,,,,,,,,,,,,,,,,731.9455,732.1435,732.1436,732.6436,,,,,,,,,,,,,,0.5858,1,,,,,,,,,,,,,,m,,,,,,,,,,,,,,,160,0,732.6443,733.2429,m,1,0.5858,,[],[],[],[],[],[],[],733.243,735.2436,735.2437,735.2439,[],[],[],[],[],[],[],,735.244,735.2441,0.302322049,0.5,0,0,0,,0,159,159,93,1,4,word,CEREMONY,print,ceremony_p.png,,,,,,
,,,,31982,001,2025-10-17_11h17.30.492,HW_LDT_1,2024.2.4,MacIntel,63.29113924,,,,,,,,,,,,,,,,,,,,,,,,,,,,,,,,,,,,,,,,,,,,,,,,,,,,,,,,,,,,,,,,,,,,,,,,,,,,,,,,,,,,,,,,,,,,,,,,,,,,,,,,,,,,,,,,,,,,,735.245,740.2437
