counterbalance_lists.group,counterbalance_lists.remaining,get_list.started,get_list.stopped,participant,session,date,expName,psychopyVersion,OS,frameRate,Instructions.started,Instructions.stopped,key_resp.keys,instr_done_touch.x,instr_done_touch.y,instr_done_touch.leftButton,instr_done_touch.midButton,instr_done_touch.rightButton,instr_done_touch.clicked_name,start_instr.thisRepN,start_instr.thisTrialN,start_instr.thisN,start_instr.thisIndex,start_instr.ran,pageN,phase,instruct_text,has_image,instruct_image,showProgress.started,showProgress.stopped,fix.started,fix.stopped,prac.started,prac.stopped,response.keys,response.corr,response.rt,response.duration,touch_resp.x,touch_resp.y,touch_resp.leftButton,touch_resp.midButton,touch_resp.rightButton,touch_resp.time,touch_resp.clicked_name,rt,corr,feedback.started,feedback.stopped,trials.thisRepN,trials.thisTrialN,trials.thisN,trials.thisIndex,trials.ran,TrialID,StimulusType,Condition,PrimeDuration,Prime,Target,corrAns,Instructions_expt.started,Instructions_expt.stopped,key_resp_3.keys,instr_done_touch_3.x,instr_done_touch_3.y,instr_done_touch_3.leftButton,instr_done_touch_3.midButton,instr_done_touch_3.rightButton,instr_done_touch_3.clicked_name,instr_experiment.thisRepN,instr_experiment.thisTrialN,instr_experiment.thisN,instr_experiment.thisIndex,instr_experiment.ran,trialID,flag,maintask.started,maintask.stopped,key_resp_2.keys,key_resp_2.corr,key_resp_2.rt,key_resp_2.duration,targ_click.x,targ_click.y,targ_click.leftButton,targ_click.midButton,targ_click.rightButton,targ_click.time,targ_click.clicked_name,ITI.started,ITI.stopped,probe.started,probe.stopped,click_probe.x,click_probe.y,click_probe.leftButton,click_probe.midButton,click_probe.rightButton,click_probe.time,click_probe.clicked_name,key_resp_probe.keys,Break.started,Break.stopped,break_done_touch.x,break_done_touch.y,break_done_touch.leftButton,break_done_touch.midButton,break_done_touch.rightButton,break_done_keyboard.keys,list3_trials.thisRepN,list3_trials.thisTrialN,list3_trials.thisN,list3_trials.thisIndex,list3_trials.ran,list_id,item_type,string,font,stim_file,key_resp_probe.rt,key_resp_probe.duration,break_done_touch.clicked_name,End.started,End.stopped
list3,,0.6087,0.6087,31980,001,2025-11-08_18h10.12.114,HW_LDT_1,2024.2.4,MacIntel,60.24096386,,,,,,,,,,,,,,,,,,,,,,,,,,,,,,,,,,,,,,,,,,,,,,,,,,,,,,,,,,,,,,,,,,,,,,,,,,,,,,,,,,,,,,,,,,,,,,,,,,,,,,,,,,,,,,,,,,,,
,,,,31980,001,2025-11-08_18h10.12.114,HW_LDT_1,2024.2.4,MacIntel,60.24096386,0.6246,34.4417,,-0.11976758,-0.388580488,1,0,0,instr_done_button,0,0,0,0,1,1,instructions,"INSTRUCTIONS
At the start of each trial, look at the plus sign  (+) in the center of the screen.  This tells you that a trial is about to begin and where to look. Second, the plus sign will disappear and a string of letters will appear. Your task is to determine if the string of letters is a word or not. If the item is a word press the M key (on keyboard)  or touch the word button (phone/tablet).  If the item is not a word,  press the  Z key (on keyboard)  or touch the nonword button (on phone/tablet). The items will be presented for a short time. 
Press the space bar or touch  continue.",0,,,,,,,,,,,,,,,,,,,,,,,,,,,,,,,,,,,,,,,,,,,,,,,,,,,,,,,,,,,,,,,,,,,,,,,,,,,,,,,,,,,,,,,,,,,,,,,,,,
,,,,31980,001,2025-11-08_18h10.12.114,HW_LDT_1,2024.2.4,MacIntel,60.24096386,34.4441,40.7901,,-0.12281522,-0.378578958,1,0,0,instr_done_button,0,1,1,1,1,2,instructions,"If your device has a keyboard, press the 'Z' key for nonwords and the 'M' key for words.





Press the space bar or touch the button below to continue.",0,keyboard-example.gif,,,,,,,,,,,,,,,,,,,,,,,,,,,,,,,,,,,,,,,,,,,,,,,,,,,,,,,,,,,,,,,,,,,,,,,,,,,,,,,,,,,,,,,,,,,,,,,,,
,,,,31980,001,2025-11-08_18h10.12.114,HW_LDT_1,2024.2.4,MacIntel,60.24096386,40.7915,45.7234,,-0.12281522,-0.378578958,1,0,0,instr_done_button,0,2,2,2,1,3,instructions,"If you are using a touchscreen only device, use the buttons on the screen. Do not use the mouse.





Press the space bar or touch the button below to continue.",0,touchscreen-example.gif,,,,,,,,,,,,,,,,,,,,,,,,,,,,,,,,,,,,,,,,,,,,,,,,,,,,,,,,,,,,,,,,,,,,,,,,,,,,,,,,,,,,,,,,,,,,,,,,,
,,,,31980,001,2025-11-08_18h10.12.114,HW_LDT_1,2024.2.4,MacIntel,60.24096386,45.7251,59.9065,,-0.12203312,-0.379573585,1,0,0,instr_done_button,0,3,3,3,1,4,instructions,"It is very important that you respond as quickly and accurately as possible, as each letter string will only be on the screen for two seconds. If you do not respond within this time, the message 'Too slow!' will be displayed and the experiment will progress to the next letter string. The first 20 trials will be practice trials and you will receive feedback on your answers. 

Press the space bar or touch the button below to start the practice trials.",0,,,,,,,,,,,,,,,,,,,,,,,,,,,,,,,,,,,,,,,,,,,,,,,,,,,,,,,,,,,,,,,,,,,,,,,,,,,,,,,,,,,,,,,,,,,,,,,,,,
,,,,31980,001,2025-11-08_18h10.12.114,HW_LDT_1,2024.2.4,MacIntel,60.24096386,,,,,,,,,,,,,,,,,,,,59.9289,60.1057,60.106,60.6068,60.6071,62.8734,z,1,2.2415,,[],[],[],[],[],[],[],2.2415,1,62.8737,63.3734,0,0,0,9,1,1010,NW,"ID",33,fariny,FARINY,z,,,,,,,,,,,,,,,,,,,,,,,,,,,,,,,,,,,,,,,,,,,,,,,,,,,,,,,,,,,,,,,,
,,,,31980,001,2025-11-08_18h10.12.114,HW_LDT_1,2024.2.4,MacIntel,60.24096386,,,,,,,,,,,,,,,,,,,,63.3748,63.5728,63.5728,64.073,64.0742,65.4566,z,1,1.3642,,[],[],[],[],[],[],[],1.3642,1,65.4568,65.9565,0,1,1,14,1,1015,NW,UN,16,miaber,THRALE,z,,,,,,,,,,,,,,,,,,,,,,,,,,,,,,,,,,,,,,,,,,,,,,,,,,,,,,,,,,,,,,,,
,,,,31980,001,2025-11-08_18h10.12.114,HW_LDT_1,2024.2.4,MacIntel,60.24096386,,,,,,,,,,,,,,,,,,,,65.9579,66.1565,66.1566,66.6565,66.6576,68.2398,m,1,1.5621,,[],[],[],[],[],[],[],1.5621,1,68.24,68.7398,0,2,2,1,1,1002,WORD,"ID",33,adjust,ADJUST,m,,,,,,,,,,,,,,,,,,,,,,,,,,,,,,,,,,,,,,,,,,,,,,,,,,,,,,,,,,,,,,,,
,,,,31980,001,2025-11-08_18h10.12.114,HW_LDT_1,2024.2.4,MacIntel,60.24096386,,,,,,,,,,,,,,,,,,,,68.7411,68.9397,68.9398,69.4396,69.4405,70.7226,m,1,1.2733,,[],[],[],[],[],[],[],1.2733,1,70.7226,71.223,0,3,3,6,1,1007,WORD,UN,16,tropic,ZOMBIE,m,,,,,,,,,,,,,,,,,,,,,,,,,,,,,,,,,,,,,,,,,,,,,,,,,,,,,,,,,,,,,,,,
,,,,31980,001,2025-11-08_18h10.12.114,HW_LDT_1,2024.2.4,MacIntel,60.24096386,,,,,,,,,,,,,,,,,,,,71.2244,71.4231,71.4231,71.9231,71.924,72.6896,m,1,0.7507,,[],[],[],[],[],[],[],0.7507,1,72.6897,73.1886,0,4,4,2,1,1003,WORD,"ID",16,almond,ALMOND,m,,,,,,,,,,,,,,,,,,,,,,,,,,,,,,,,,,,,,,,,,,,,,,,,,,,,,,,,,,,,,,,,
,,,,31980,001,2025-11-08_18h10.12.114,HW_LDT_1,2024.2.4,MacIntel,60.24096386,,,,,,,,,,,,,,,,,,,,73.189,73.3897,73.3898,73.8896,73.8907,74.9226,m,1,1.0123,,[],[],[],[],[],[],[],1.0123,1,74.9228,75.4231,0,5,5,0,1,1001,WORD,"ID",33,utopia,UTOPIA,m,,,,,,,,,,,,,,,,,,,,,,,,,,,,,,,,,,,,,,,,,,,,,,,,,,,,,,,,,,,,,,,,
,,,,31980,001,2025-11-08_18h10.12.114,HW_LDT_1,2024.2.4,MacIntel,60.24096386,,,,,,,,,,,,,,,,,,,,75.4244,75.623,75.6231,76.1231,76.1239,77.9395,z,1,1.8054,,[],[],[],[],[],[],[],1.8054,1,77.9398,78.4397,0,6,6,12,1,1013,NW,UN,33,adveil,SPRINY,z,,,,,,,,,,,,,,,,,,,,,,,,,,,,,,,,,,,,,,,,,,,,,,,,,,,,,,,,,,,,,,,,
,,,,31980,001,2025-11-08_18h10.12.114,HW_LDT_1,2024.2.4,MacIntel,60.24096386,,,,,,,,,,,,,,,,,,,,78.441,78.6396,78.6397,79.1396,79.1405,80.3397,m,0,1.1796,,[],[],[],[],[],[],[],1.1796,0,80.3407,80.8396,0,7,7,15,1,1016,NW,UN,16,mushed,WHAISE,z,,,,,,,,,,,,,,,,,,,,,,,,,,,,,,,,,,,,,,,,,,,,,,,,,,,,,,,,,,,,,,,,
,,,,31980,001,2025-11-08_18h10.12.114,HW_LDT_1,2024.2.4,MacIntel,60.24096386,,,,,,,,,,,,,,,,,,,,80.8411,81.0397,81.0397,81.5394,81.5405,83.3055,m,1,1.7496,,[],[],[],[],[],[],[],1.7496,1,83.3062,83.8061,0,8,8,7,1,1008,WORD,UN,16,hurdle,VOLUME,m,,,,,,,,,,,,,,,,,,,,,,,,,,,,,,,,,,,,,,,,,,,,,,,,,,,,,,,,,,,,,,,,
,,,,31980,001,2025-11-08_18h10.12.114,HW_LDT_1,2024.2.4,MacIntel,60.24096386,,,,,,,,,,,,,,,,,,,,83.8076,84.0062,84.0062,84.5061,84.5071,85.4055,m,1,0.886,,[],[],[],[],[],[],[],0.886,1,85.4056,85.9062,0,9,9,4,1,1005,WORD,UN,33,abound,SQUEAK,m,,,,,,,,,,,,,,,,,,,,,,,,,,,,,,,,,,,,,,,,,,,,,,,,,,,,,,,,,,,,,,,,
,,,,31980,001,2025-11-08_18h10.12.114,HW_LDT_1,2024.2.4,MacIntel,60.24096386,,,,,,,,,,,,,,,,,,,,85.9073,86.106,86.1061,86.6061,86.6069,87.2728,m,1,0.6487,,[],[],[],[],[],[],[],0.6487,1,87.2729,87.7728,0,10,10,5,1,1006,WORD,UN,33,frenzy,OBTAIN,m,,,,,,,,,,,,,,,,,,,,,,,,,,,,,,,,,,,,,,,,,,,,,,,,,,,,,,,,,,,,,,,,
,,,,31980,001,2025-11-08_18h10.12.114,HW_LDT_1,2024.2.4,MacIntel,60.24096386,,,,,,,,,,,,,,,,,,,,87.774,87.9727,87.9727,88.472,88.4731,89.3887,z,1,0.8902,,[],[],[],[],[],[],[],0.8902,1,89.3892,89.8895,0,11,11,13,1,1014,NW,UN,33,winfer,ROUPET,z,,,,,,,,,,,,,,,,,,,,,,,,,,,,,,,,,,,,,,,,,,,,,,,,,,,,,,,,,,,,,,,,
,,,,31980,001,2025-11-08_18h10.12.114,HW_LDT_1,2024.2.4,MacIntel,60.24096386,,,,,,,,,,,,,,,,,,,,89.8914,90.0894,90.0894,90.5893,90.5901,92.0561,z,1,1.4443,,[],[],[],[],[],[],[],1.4443,1,92.0563,92.556,0,12,12,8,1,1009,NW,"ID",33,aslert,ASLERT,z,,,,,,,,,,,,,,,,,,,,,,,,,,,,,,,,,,,,,,,,,,,,,,,,,,,,,,,,,,,,,,,,
,,,,31980,001,2025-11-08_18h10.12.114,HW_LDT_1,2024.2.4,MacIntel,60.24096386,,,,,,,,,,,,,,,,,,,,92.5569,92.756,92.756,93.2559,93.2568,93.9726,m,1,0.7001,,[],[],[],[],[],[],[],0.7001,1,93.9727,94.4726,0,13,13,3,1,1004,WORD,"ID",16,matrix,MATRIX,m,,,,,,,,,,,,,,,,,,,,,,,,,,,,,,,,,,,,,,,,,,,,,,,,,,,,,,,,,,,,,,,,
,,,,31980,001,2025-11-08_18h10.12.114,HW_LDT_1,2024.2.4,MacIntel,60.24096386,,,,,,,,,,,,,,,,,,,,94.4739,94.6727,94.6727,95.1726,95.1734,95.9562,z,1,0.7659,,[],[],[],[],[],[],[],0.7659,1,95.9563,96.456,0,14,14,11,1,1012,NW,"ID",16,rashet,RASHET,z,,,,,,,,,,,,,,,,,,,,,,,,,,,,,,,,,,,,,,,,,,,,,,,,,,,,,,,,,,,,,,,,
,,,,31980,001,2025-11-08_18h10.12.114,HW_LDT_1,2024.2.4,MacIntel,60.24096386,,,,,,,,,,,,,,,,,,,,96.4571,96.6559,96.6559,97.1559,97.1568,98.8222,z,1,1.6537,,[],[],[],[],[],[],[],1.6537,1,98.8223,99.3219,0,15,15,10,1,1011,NW,"ID",16,inlade,INLADE,z,,,,,,,,,,,,,,,,,,,,,,,,,,,,,,,,,,,,,,,,,,,,,,,,,,,,,,,,,,,,,,,,
,,,,31980,001,2025-11-08_18h10.12.114,HW_LDT_1,2024.2.4,MacIntel,60.24096386,,,,,,,,,,,,,,,1,end_of_practice,"You have completed the practice trials. During the experimental trials, you will not receive feedback. On some trials you will be asked to report whether the item you just saw was in cursive or print. 
Before you begin, please ensure that you are in a comfortable and quiet location and will not be disturbed for about 15 minutes, as we cannot use your data if you do not complete all the trials. 
 When you are ready to start the experimental trials, please press space or touch the button below.",,,,,,,,,,,,,,,,,,,,,,,,,,,,,,,,,,,,99.3279,112.4394,,-0.12203312,-0.38007515,1,0,0,instr_done_button_3,0,0,0,0,1,,,,,,,,,,,,,,,,,,,,,,,,,,,,,,,,,,,,,,,,,,,,,,,,,,
,,,,31980,001,2025-11-08_18h10.12.114,HW_LDT_1,2024.2.4,MacIntel,60.24096386,,,,,,,,,,,,,,,,,,,,112.4527,112.639,112.6391,113.138,,,,,,,,,,,,,,2.6091,1,,,,,,,,,,,,,,z,,,,,,,,,,,,,,,1,0,113.1397,115.756,z,1,2.6091,,[],[],[],[],[],[],[],115.7563,117.7559,117.756,117.7585,[],[],[],[],[],[],[],,117.7586,117.7597,-0.12203312,-0.380202666,0,0,0,,0,0,0,75,1,3,TL,sloten,cursive,sloten_c.png,,,,,
,,,,31980,001,2025-11-08_18h10.12.114,HW_LDT_1,2024.2.4,MacIntel,60.24096386,,,,,,,,,,,,,,,,,,,,117.7602,117.9556,117.9557,118.4555,,,,,,,,,,,,,,4.8572,1,,,,,,,,,,,,,,z,,,,,,,,,,,,,,,2,0,118.4561,123.3223,z,1,4.8572,,[],[],[],[],[],[],[],123.3224,125.3215,125.3217,125.3223,[],[],[],[],[],[],[],,125.3224,125.3225,-0.12203312,-0.380202666,0,0,0,,0,1,1,34,1,3,TL,aminal,cursive,aminal_c.png,,,,,
,,,,31980,001,2025-11-08_18h10.12.114,HW_LDT_1,2024.2.4,MacIntel,60.24096386,,,,,,,,,,,,,,,,,,,,125.3248,125.5222,125.5223,126.0213,,,,,,,,,,,,,,1.7874,1,,,,,,,,,,,,,,z,,,,,,,,,,,,,,,3,1,126.0223,127.8223,z,1,1.7874,,[],[],[],[],[],[],[],127.8225,129.8221,129.8223,134.7221,[],[],[],[],[],[],[],m,134.7223,134.7223,-0.12203312,-0.380202666,0,0,0,,0,2,2,61,1,3,TL,pocily,print,pocily_p.png,4.8935,,,,
,,,,31980,001,2025-11-08_18h10.12.114,HW_LDT_1,2024.2.4,MacIntel,60.24096386,,,,,,,,,,,,,,,,,,,,134.7234,134.9221,134.9222,135.4221,,,,,,,,,,,,,,2.5362,1,,,,,,,,,,,,,,z,,,,,,,,,,,,,,,4,0,135.4226,137.9716,z,1,2.5362,,[],[],[],[],[],[],[],137.9718,139.9719,139.9721,139.9724,[],[],[],[],[],[],[],,139.9724,139.9726,-0.12203312,-0.380202666,0,0,0,,0,3,3,25,1,3,RL,retupar,print,retupar_p.png,,,,,
,,,,31980,001,2025-11-08_18h10.12.114,HW_LDT_1,2024.2.4,MacIntel,60.24096386,,,,,,,,,,,,,,,,,,,,139.9737,140.1719,140.172,140.672,,,,,,,,,,,,,,3.038,1,,,,,,,,,,,,,,z,,,,,,,,,,,,,,,5,0,140.6726,143.7211,z,1,3.038,,[],[],[],[],[],[],[],143.7212,145.721,145.7211,145.7213,[],[],[],[],[],[],[],,145.7214,145.7215,-0.12203312,-0.380202666,0,0,0,,0,4,4,47,1,3,TL,elarobate,print,elarobate_p.png,,,,,
,,,,31980,001,2025-11-08_18h10.12.114,HW_LDT_1,2024.2.4,MacIntel,60.24096386,,,,,,,,,,,,,,,,,,,,145.7226,145.9219,145.9219,146.4218,,,,,,,,,,,,,,3.3705,1,,,,,,,,,,,,,,z,,,,,,,,,,,,,,,6,0,146.4225,149.8051,z,1,3.3705,,[],[],[],[],[],[],[],149.8052,151.8051,151.8052,151.8055,[],[],[],[],[],[],[],,151.8056,151.8057,-0.12203312,-0.380202666,0,0,0,,0,5,5,55,1,3,TL,mecidine,print,mecidine_p.png,,,,,
,,,,31980,001,2025-11-08_18h10.12.114,HW_LDT_1,2024.2.4,MacIntel,60.24096386,,,,,,,,,,,,,,,,,,,,151.8068,152.0051,152.0051,152.505,,,,,,,,,,,,,,2.6379,1,,,,,,,,,,,,,,m,,,,,,,,,,,,,,,7,0,152.5056,155.1544,m,1,2.6379,,[],[],[],[],[],[],[],155.1544,157.1548,157.155,157.1551,[],[],[],[],[],[],[],,157.1551,157.1552,-0.12203312,-0.380202666,0,0,0,,0,6,6,87,1,3,word,CAFETERIA,print,cafeteria_p.png,,,,,
,,,,31980,001,2025-11-08_18h10.12.114,HW_LDT_1,2024.2.4,MacIntel,60.24096386,,,,,,,,,,,,,,,,,,,,157.156,157.3543,157.3543,157.8537,,,,,,,,,,,,,,7.1601,1,,,,,,,,,,,,,,m,,,,,,,,,,,,,,,8,0,157.854,165.0209,m,1,7.1601,,[],[],[],[],[],[],[],165.021,167.0217,167.0217,167.022,[],[],[],[],[],[],[],,167.022,167.0221,-0.12203312,-0.380202666,0,0,0,,0,7,7,82,1,3,word,AMATEUR,print,amateur_p.png,,,,,
,,,,31980,001,2025-11-08_18h10.12.114,HW_LDT_1,2024.2.4,MacIntel,60.24096386,,,,,,,,,,,,,,,,,,,,167.0233,167.2216,167.2217,167.7215,,,,,,,,,,,,,,1.2857,1,,,,,,,,,,,,,,m,,,,,,,,,,,,,,,9,1,167.7221,169.0217,m,1,1.2857,,[],[],[],[],[],[],[],169.0218,171.0217,171.0218,172.9717,[],[],[],[],[],[],[],m,172.9718,172.972,-0.12203312,-0.380202666,0,0,0,,0,8,8,85,1,3,word,BENEFIT,print,benefit_p.png,1.938,,,,
,,,,31980,001,2025-11-08_18h10.12.114,HW_LDT_1,2024.2.4,MacIntel,60.24096386,,,,,,,,,,,,,,,,,,,,172.9735,173.1715,173.1716,173.6716,,,,,,,,,,,,,,2.5968,1,,,,,,,,,,,,,,z,,,,,,,,,,,,,,,10,0,173.6724,176.2705,z,1,2.5968,,[],[],[],[],[],[],[],176.2706,178.2715,178.2716,178.2718,[],[],[],[],[],[],[],,178.2718,178.272,-0.12203312,-0.380202666,0,0,0,,0,9,9,71,1,3,TL,sanile,cursive,sanile_c.png,,,,,
,,,,31980,001,2025-11-08_18h10.12.114,HW_LDT_1,2024.2.4,MacIntel,60.24096386,,,,,,,,,,,,,,,,,,,,178.2729,178.4714,178.4715,178.9715,,,,,,,,,,,,,,2.1052,1,,,,,,,,,,,,,,m,,,,,,,,,,,,,,,11,1,178.9721,181.0877,m,1,2.1052,,[],[],[],[],[],[],[],181.0877,183.088,183.0881,185.1382,[],[],[],[],[],[],[],m,185.1383,185.1385,-0.12203312,-0.380202666,0,0,0,,0,10,10,134,1,3,word,QUALIFY,print,qualify_p.png,2.0375,,,,
,,,,31980,001,2025-11-08_18h10.12.114,HW_LDT_1,2024.2.4,MacIntel,60.24096386,,,,,,,,,,,,,,,,,,,,185.1397,185.338,185.3381,185.8381,,,,,,,,,,,,,,1.4059,1,,,,,,,,,,,,,,m,,,,,,,,,,,,,,,12,0,185.839,187.2547,m,1,1.4059,,[],[],[],[],[],[],[],187.2548,189.2546,189.2547,189.2548,[],[],[],[],[],[],[],,189.2548,189.255,-0.12203312,-0.380202666,0,0,0,,0,11,11,137,1,3,word,RAPIDLY,print,rapidly_p.png,,,,,
,,,,31980,001,2025-11-08_18h10.12.114,HW_LDT_1,2024.2.4,MacIntel,60.24096386,,,,,,,,,,,,,,,,,,,,189.2562,189.4546,189.4547,189.9546,,,,,,,,,,,,,,2.0814,0,,,,,,,,,,,,,,m,,,,,,,,,,,,,,,13,0,189.9552,192.0379,z,0,2.0814,,[],[],[],[],[],[],[],192.0379,194.0379,194.038,194.0382,[],[],[],[],[],[],[],,194.0383,194.0385,-0.12203312,-0.380202666,0,0,0,,0,12,12,121,1,3,word,MISTAKE,cursive,mistake_c.png,,,,,
,,,,31980,001,2025-11-08_18h10.12.114,HW_LDT_1,2024.2.4,MacIntel,60.24096386,,,,,,,,,,,,,,,,,,,,194.0398,194.2381,194.2381,194.738,,,,,,,,,,,,,,6.972,0,,,,,,,,,,,,,,m,,,,,,,,,,,,,,,14,1,194.7386,201.7213,z,0,6.972,,[],[],[],[],[],[],[],201.7215,203.7211,203.7212,205.3711,[],[],[],[],[],[],[],z,205.3712,205.3713,-0.12203312,-0.380202666,0,0,0,,0,13,13,123,1,3,word,MODERATE,cursive,moderate_c.png,1.6491,,,,
,,,,31980,001,2025-11-08_18h10.12.114,HW_LDT_1,2024.2.4,MacIntel,60.24096386,,,,,,,,,,,,,,,,,,,,205.3726,205.5711,205.5711,206.071,,,,,,,,,,,,,,1.1484,1,,,,,,,,,,,,,,m,,,,,,,,,,,,,,,15,0,206.0716,207.221,m,1,1.1484,,[],[],[],[],[],[],[],207.2211,209.221,209.221,209.2213,[],[],[],[],[],[],[],,209.2213,209.2213,-0.12203312,-0.380202666,0,0,0,,0,14,14,129,1,3,word,PARENT,print,parent_p.png,,,,,
,,,,31980,001,2025-11-08_18h10.12.114,HW_LDT_1,2024.2.4,MacIntel,60.24096386,,,,,,,,,,,,,,,,,,,,209.2226,209.421,209.421,209.9206,,,,,,,,,,,,,,1.4408,1,,,,,,,,,,,,,,m,,,,,,,,,,,,,,,16,1,209.9208,211.371,m,1,1.4408,,[],[],[],[],[],[],[],211.3712,213.3709,213.3709,215.5544,[],[],[],[],[],[],[],m,215.5544,215.5546,-0.12203312,-0.380202666,0,0,0,,0,15,15,112,1,3,word,LIBERAL,print,liberal_p.png,2.1747,,,,
,,,,31980,001,2025-11-08_18h10.12.114,HW_LDT_1,2024.2.4,MacIntel,60.24096386,,,,,,,,,,,,,,,,,,,,215.5557,215.7542,215.7543,216.2542,,,,,,,,,,,,,,4.3322,1,,,,,,,,,,,,,,m,,,,,,,,,,,,,,,17,0,216.2548,220.5877,m,1,4.3322,,[],[],[],[],[],[],[],220.5877,222.5874,222.5875,222.5876,[],[],[],[],[],[],[],,222.5876,222.5877,-0.12203312,-0.380202666,0,0,0,,0,16,16,155,1,3,word,STRATEGY,print,strategy_p.png,,,,,
,,,,31980,001,2025-11-08_18h10.12.114,HW_LDT_1,2024.2.4,MacIntel,60.24096386,,,,,,,,,,,,,,,,,,,,222.5886,222.7876,222.7877,223.2875,,,,,,,,,,,,,,3.1707,0,,,,,,,,,,,,,,m,,,,,,,,,,,,,,,18,0,223.2883,226.4708,z,0,3.1707,,[],[],[],[],[],[],[],226.4709,228.4707,228.4708,228.4711,[],[],[],[],[],[],[],,228.4711,228.4712,-0.12203312,-0.380202666,0,0,0,,0,17,17,88,1,3,word,CAMERA,cursive,camera_c.png,,,,,
,,,,31980,001,2025-11-08_18h10.12.114,HW_LDT_1,2024.2.4,MacIntel,60.24096386,,,,,,,,,,,,,,,,,,,,228.4725,228.6707,228.6708,229.1708,,,,,,,,,,,,,,5.4145,1,,,,,,,,,,,,,,m,,,,,,,,,,,,,,,19,0,229.1713,234.5871,m,1,5.4145,,[],[],[],[],[],[],[],234.5872,236.5873,236.5874,236.5876,[],[],[],[],[],[],[],,236.5876,236.5878,-0.12203312,-0.380202666,0,0,0,,0,18,18,92,1,3,word,CATEGORY,cursive,category_c.png,,,,,
,,,,31980,001,2025-11-08_18h10.12.114,HW_LDT_1,2024.2.4,MacIntel,60.24096386,,,,,,,,,,,,,,,,,,,,236.589,236.787,236.787,237.2873,,,,,,,,,,,,,,4.4027,1,,,,,,,,,,,,,,m,,,,,,,,,,,,,,,20,0,237.2883,241.704,m,1,4.4027,,[],[],[],[],[],[],[],241.704,243.7026,243.7026,243.7027,[],[],[],[],[],[],[],,243.7027,243.7029,-0.12203312,-0.380202666,0,0,0,,0,19,19,159,1,3,word,VETERAN,cursive,veteran_c.png,,,,,
,,,,31980,001,2025-11-08_18h10.12.114,HW_LDT_1,2024.2.4,MacIntel,60.24096386,,,,,,,,,,,,,,,,,,,,243.7047,243.9034,243.9035,244.4037,,,,,,,,,,,,,,5.9489,1,,,,,,,,,,,,,,z,,,,,,,,,,,,,,,21,0,244.4043,250.3544,z,1,5.9489,,[],[],[],[],[],[],[],250.3545,252.3538,252.3539,252.3541,[],[],[],[],[],[],[],,252.3542,252.3545,-0.122283902,-0.380708481,0,0,0,,0,20,20,48,1,3,TL,grafetul,cursive,grafetul_c.png,,,,,
,,,,31980,001,2025-11-08_18h10.12.114,HW_LDT_1,2024.2.4,MacIntel,60.24096386,,,,,,,,,,,,,,,,,,,,252.3556,252.5537,252.5538,253.0537,,,,,,,,,,,,,,2.2382,1,,,,,,,,,,,,,,z,,,,,,,,,,,,,,,22,0,253.0544,255.3036,z,1,2.2382,,[],[],[],[],[],[],[],255.3038,257.3037,257.3037,257.304,[],[],[],[],[],[],[],,257.304,257.3041,-0.122283902,-0.380708481,0,0,0,,0,21,21,64,1,3,TL,radiply,print,radiply_p.png,,,,,
,,,,31980,001,2025-11-08_18h10.12.114,HW_LDT_1,2024.2.4,MacIntel,60.24096386,,,,,,,,,,,,,,,,,,,,257.3053,257.5037,257.5037,258.0036,,,,,,,,,,,,,,6.1983,1,,,,,,,,,,,,,,z,,,,,,,,,,,,,,,23,0,258.0042,264.2035,z,1,6.1983,,[],[],[],[],[],[],[],264.2036,266.2034,266.2035,266.2036,[],[],[],[],[],[],[],,266.2036,266.2037,-0.122538935,-0.379157032,0,0,0,,0,22,22,62,1,3,TL,prodive,print,prodive_p.png,,,,,
,,,,31980,001,2025-11-08_18h10.12.114,HW_LDT_1,2024.2.4,MacIntel,60.24096386,,,,,,,,,,,,,,,,,,,,266.2047,266.4035,266.4036,266.9035,,,,,,,,,,,,,,1.3377,1,,,,,,,,,,,,,,z,,,,,,,,,,,,,,,24,0,266.9042,268.2536,z,1,1.3377,,[],[],[],[],[],[],[],268.2537,270.2535,270.2536,270.2539,[],[],[],[],[],[],[],,270.2539,270.254,-0.122538935,-0.379157032,0,0,0,,0,23,23,56,1,3,TL,meromy,print,meromy_p.png,,,,,
,,,,31980,001,2025-11-08_18h10.12.114,HW_LDT_1,2024.2.4,MacIntel,60.24096386,,,,,,,,,,,,,,,,,,,,270.2557,270.4533,270.4535,270.9533,,,,,,,,,,,,,,4.0568,1,,,,,,,,,,,,,,m,,,,,,,,,,,,,,,25,0,270.9538,275.0201,m,1,4.0568,,[],[],[],[],[],[],[],275.0202,277.02,277.02,277.0202,[],[],[],[],[],[],[],,277.0202,277.0203,-0.122538935,-0.379157032,0,0,0,,0,24,24,154,1,3,word,STORAGE,cursive,storage_c.png,,,,,
,,,,31980,001,2025-11-08_18h10.12.114,HW_LDT_1,2024.2.4,MacIntel,60.24096386,,,,,,,,,,,,,,,,,,,,277.0215,277.22,277.22,277.72,,,,,,,,,,,,,,4.4543,1,,,,,,,,,,,,,,m,,,,,,,,,,,,,,,26,0,277.7206,282.1867,m,1,4.4543,,[],[],[],[],[],[],[],282.1868,284.1866,284.1867,284.1868,[],[],[],[],[],[],[],,284.1869,284.1869,-0.122538935,-0.379403564,0,0,0,,0,25,25,143,1,3,word,REMOVAL,cursive,removal_c.png,,,,,
,,,,31980,001,2025-11-08_18h10.12.114,HW_LDT_1,2024.2.4,MacIntel,60.24096386,,,,,,,,,,,,,,,,,,,,284.1882,284.3866,284.3866,284.8866,,,,,,,,,,,,,,2.3896,1,,,,,,,,,,,,,,z,,,,,,,,,,,,,,,27,0,284.8871,287.2867,z,1,2.3896,,[],[],[],[],[],[],[],287.2869,289.2865,289.2865,289.2868,[],[],[],[],[],[],[],,289.2868,289.287,-0.122538935,-0.379403564,0,0,0,,0,26,26,49,1,3,TL,incidate,print,incidate_p.png,,,,,
,,,,31980,001,2025-11-08_18h10.12.114,HW_LDT_1,2024.2.4,MacIntel,60.24096386,,,,,,,,,,,,,,,,,,,,289.2882,289.4865,289.4865,289.9866,,,,,,,,,,,,,,2.4234,1,,,,,,,,,,,,,,m,,,,,,,,,,,,,,,28,0,289.9872,292.4199,m,1,2.4234,,[],[],[],[],[],[],[],292.42,294.4198,294.4198,294.42,[],[],[],[],[],[],[],,294.4201,294.4201,-0.122538935,-0.379152782,0,0,0,,0,27,27,144,1,3,word,RESIDENT,cursive,resident_c.png,,,,,
,,,,31980,001,2025-11-08_18h10.12.114,HW_LDT_1,2024.2.4,MacIntel,60.24096386,,,,,,,,,,,,,,,,,,,,294.4212,294.6198,294.6199,295.1197,,,,,,,,,,,,,,1.7379,1,,,,,,,,,,,,,,m,,,,,,,,,,,,,,,29,1,295.1203,296.8698,m,1,1.7379,,[],[],[],[],[],[],[],296.8699,298.8696,298.8697,300.6706,[],[],[],[],[],[],[],m,300.6706,300.6708,-0.122292403,-0.379403564,0,0,0,,0,28,28,125,1,3,word,OPERATOR,print,operator_p.png,1.7998,,,,
,,,,31980,001,2025-11-08_18h10.12.114,HW_LDT_1,2024.2.4,MacIntel,60.24096386,,,,,,,,,,,,,,,,,,,,300.6716,300.8696,300.8696,301.3696,,,,,,,,,,,,,,1.7152,1,,,,,,,,,,,,,,z,,,,,,,,,,,,,,,30,0,301.3701,303.0862,z,1,1.7152,,[],[],[],[],[],[],[],303.0863,305.0863,305.0865,305.0867,[],[],[],[],[],[],[],,305.0868,305.0869,-0.122292403,-0.379403564,0,0,0,,0,29,29,38,1,3,TL,carnidal,print,carnidal_p.png,,,,,
,,,,31980,001,2025-11-08_18h10.12.114,HW_LDT_1,2024.2.4,MacIntel,60.24096386,,,,,,,,,,,,,,,,,,,,305.0882,305.2862,305.2863,305.7862,,,,,,,,,,,,,,1.387,1,,,,,,,,,,,,,,m,,,,,,,,,,,,,,,31,0,305.787,307.1863,m,1,1.387,,[],[],[],[],[],[],[],307.1864,309.1863,309.1863,309.1865,[],[],[],[],[],[],[],,309.1865,309.1866,-0.122292403,-0.379917879,0,0,0,,0,30,30,130,1,3,word,POLICY,print,policy_p.png,,,,,
,,,,31980,001,2025-11-08_18h10.12.114,HW_LDT_1,2024.2.4,MacIntel,60.24096386,,,,,,,,,,,,,,,,,,,,309.1877,309.3863,309.3863,309.8862,,,,,,,,,,,,,,2.4062,1,,,,,,,,,,,,,,z,,,,,,,,,,,,,,,32,1,309.8869,312.3021,z,1,2.4062,,[],[],[],[],[],[],[],312.3022,314.3028,314.3029,318.5187,[],[],[],[],[],[],[],m,318.5188,318.5189,-0.122292403,-0.379917879,0,0,0,,0,31,31,51,1,3,TL,liretal,print,liretal_p.png,4.206,,,,
,,,,31980,001,2025-11-08_18h10.12.114,HW_LDT_1,2024.2.4,MacIntel,60.24096386,,,,,,,,,,,,,,,,,,,,318.5202,318.7194,318.7195,319.2194,,,,,,,,,,,,,,1.5483,1,,,,,,,,,,,,,,z,,,,,,,,,,,,,,,33,1,319.22,320.7693,z,1,1.5483,,[],[],[],[],[],[],[],320.7694,322.7693,322.7694,324.4025,[],[],[],[],[],[],[],m,324.4026,324.4027,-0.122292403,-0.379917879,0,0,0,,0,32,32,26,1,3,RL,repifion,print,repifion_p.png,1.6315,,,,
,,,,31980,001,2025-11-08_18h10.12.114,HW_LDT_1,2024.2.4,MacIntel,60.24096386,,,,,,,,,,,,,,,,,,,,324.4037,324.6027,324.6027,325.1026,,,,,,,,,,,,,,1.123,1,,,,,,,,,,,,,,z,,,,,,,,,,,,,,,34,0,325.1032,326.236,z,1,1.123,,[],[],[],[],[],[],[],326.2362,328.2359,328.2359,328.2361,[],[],[],[],[],[],[],,328.2362,328.2362,-0.122292403,-0.379917879,0,0,0,,0,33,33,0,1,3,RL,afaneur,print,afaneur_p.png,,,,,
,,,,31980,001,2025-11-08_18h10.12.114,HW_LDT_1,2024.2.4,MacIntel,60.24096386,,,,,,,,,,,,,,,,,,,,328.2374,328.4359,328.4359,328.9359,,,,,,,,,,,,,,4.1377,0,,,,,,,,,,,,,,m,,,,,,,,,,,,,,,35,1,328.9365,333.0859,z,0,4.1377,,[],[],[],[],[],[],[],333.086,335.0857,335.0858,337.0358,[],[],[],[],[],[],[],z,337.0359,337.036,-0.122292403,-0.379917879,0,0,0,,0,34,34,126,1,3,word,OPTIMAL,cursive,optimal_c.png,1.9388,,,,
,,,,31980,001,2025-11-08_18h10.12.114,HW_LDT_1,2024.2.4,MacIntel,60.24096386,,,,,,,,,,,,,,,,,,,,337.0371,337.2358,337.2359,337.7358,,,,,,,,,,,,,,4.1808,1,,,,,,,,,,,,,,m,,,,,,,,,,,,,,,36,0,337.7364,341.9215,m,1,4.1808,,[],[],[],[],[],[],[],341.9216,343.9192,343.9194,343.9197,[],[],[],[],[],[],[],,343.9197,343.9198,-0.122292403,-0.379917879,0,0,0,,0,35,35,107,1,3,word,EVIDENT,cursive,evident_c.png,,,,,
,,,,31980,001,2025-11-08_18h10.12.114,HW_LDT_1,2024.2.4,MacIntel,60.24096386,,,,,,,,,,,,,,,,,,,,343.9217,344.1191,344.1191,344.6191,,,,,,,,,,,,,,3.0549,1,,,,,,,,,,,,,,z,,,,,,,,,,,,,,,37,0,344.6199,347.6858,z,1,3.0549,,[],[],[],[],[],[],[],347.6858,349.6856,349.6856,349.6859,[],[],[],[],[],[],[],,349.6859,349.686,-0.122292403,-0.379917879,0,0,0,,0,36,36,77,1,3,TL,vadility,cursive,vadility_c.png,,,,,
,,,,31980,001,2025-11-08_18h10.12.114,HW_LDT_1,2024.2.4,MacIntel,60.24096386,,,,,,,,,,,,,,,,,,,,349.6872,349.8854,349.8855,350.3856,,,,,,,,,,,,,,2.0706,1,,,,,,,,,,,,,,z,,,,,,,,,,,,,,,38,1,350.3863,352.469,z,1,2.0706,,[],[],[],[],[],[],[],352.4691,354.4685,354.4686,356.2016,[],[],[],[],[],[],[],z,356.2017,356.2018,-0.122292403,-0.379917879,0,0,0,,0,37,37,63,1,3,TL,racidal,cursive,racidal_c.png,1.7223,,,,
,,,,31980,001,2025-11-08_18h10.12.114,HW_LDT_1,2024.2.4,MacIntel,60.24096386,,,,,,,,,,,,,,,,,,,,356.2029,356.4022,356.4022,356.9021,,,,,,,,,,,,,,2.3253,1,,,,,,,,,,,,,,m,,,,,,,,,,,,,,,39,0,356.9027,359.2355,m,1,2.3253,,[],[],[],[],[],[],[],359.2357,361.2355,361.2355,361.2356,[],[],[],[],[],[],[],,361.2357,361.2358,-0.122292403,-0.379917879,0,0,0,,0,38,38,146,1,3,word,RETIRE,print,retire_p.png,,,,,
,,,,31980,001,2025-11-08_18h10.12.114,HW_LDT_1,2024.2.4,MacIntel,60.24096386,,,,,,,,,,,,,,,,,,,,361.237,361.4355,361.4355,361.9354,,,,,,,,,,,,,,1.7138,1,,,,,,,,,,,,,,m,,,,,,,,,,,,,,,40,0,361.936,363.6518,m,1,1.7138,,[],[],[],[],[],[],[],363.6518,365.6519,365.652,365.6521,[],[],[],[],[],[],[],,365.6521,365.6522,-0.122292403,-0.379917879,0,0,0,,0,39,39,135,1,3,word,QUALITY,print,quality_p.png,,,,,
,,,,31980,001,2025-11-08_18h10.12.114,HW_LDT_1,2024.2.4,MacIntel,60.24096386,,,,,,,,,,,,,,,,,,,,365.653,365.8521,365.8522,366.3519,,,,,,,,,,,,,,1.729,1,,,,,,,,,,,,,,m,,,,,,,,,,,,,,,41,0,366.3528,368.0852,m,1,1.729,,[],[],[],[],[],[],[],368.0852,370.0852,370.0853,370.0856,[],[],[],[],[],[],[],,370.0856,370.0857,-0.122292403,-0.379917879,0,0,0,,0,40,40,111,1,3,word,INDICATE,print,indicate_p.png,,,,,
,,,,31980,001,2025-11-08_18h10.12.114,HW_LDT_1,2024.2.4,MacIntel,60.24096386,,,,,,,,,,,,,,,,,,,,370.0873,370.2846,370.2847,370.7854,,,,,,,,,,,,,,0.9917,1,,,,,,,,,,,,,,m,,,,,,,,,,,,,,,42,0,370.7859,371.7852,m,1,0.9917,,[],[],[],[],[],[],[],371.7853,373.7853,373.7854,373.7856,[],[],[],[],[],[],[],,373.7856,373.7857,-0.122292403,-0.379917879,0,0,0,,0,41,41,101,1,3,word,DELICATE,print,delicate_p.png,,,,,
,,,,31980,001,2025-11-08_18h10.12.114,HW_LDT_1,2024.2.4,MacIntel,60.24096386,,,,,,,,,,,,,,,,,,,,373.7868,373.9848,373.9849,374.4853,,,,,,,,,,,,,,1.6149,1,,,,,,,,,,,,,,z,,,,,,,,,,,,,,,43,0,374.486,376.1018,z,1,1.6149,,[],[],[],[],[],[],[],376.102,378.1019,378.1021,378.1025,[],[],[],[],[],[],[],,378.1025,378.1026,-0.122292403,-0.379917879,0,0,0,,0,42,42,40,1,3,TL,condiser,print,condiser_p.png,,,,,
,,,,31980,001,2025-11-08_18h10.12.114,HW_LDT_1,2024.2.4,MacIntel,60.24096386,,,,,,,,,,,,,,,,,,,,378.1041,378.3018,378.302,378.8019,,,,,,,,,,,,,,1.4079,1,,,,,,,,,,,,,,m,,,,,,,,,,,,,,,44,0,378.8026,380.2187,m,1,1.4079,,[],[],[],[],[],[],[],380.2187,382.2185,382.2186,382.2188,[],[],[],[],[],[],[],,382.2188,382.2189,-0.122292403,-0.379917879,0,0,0,,0,43,43,104,1,3,word,DOMINANT,print,dominant_p.png,,,,,
,,,,31980,001,2025-11-08_18h10.12.114,HW_LDT_1,2024.2.4,MacIntel,60.24096386,,,,,,,,,,,,,,,,,,,,382.2202,382.4185,382.4186,382.9175,,,,,,,,,,,,,,1.7051,1,,,,,,,,,,,,,,z,,,,,,,,,,,,,,,45,0,382.9181,384.6351,z,1,1.7051,,[],[],[],[],[],[],[],384.6351,386.6341,386.6341,386.6342,[],[],[],[],[],[],[],,386.6342,386.6343,-0.122292403,-0.379917879,0,0,0,,0,44,44,3,1,3,RL,bebine,cursive,bebine_c.png,,,,,
,,,,31980,001,2025-11-08_18h10.12.114,HW_LDT_1,2024.2.4,MacIntel,60.24096386,,,,,,,,,,,,,,,,,,,,386.6352,386.8351,386.8351,387.3351,,,,,,,,,,,,,,1.2208,1,,,,,,,,,,,,,,z,,,,,,,,,,,,,,,46,1,387.3357,388.5684,z,1,1.2208,,[],[],[],[],[],[],[],388.5685,390.5683,390.5684,394.3518,[],[],[],[],[],[],[],z,394.3519,394.352,-0.122292403,-0.379917879,0,0,0,,0,45,45,30,1,3,RL,strapely,print,strapely_p.png,3.772,,,,
,,,,31980,001,2025-11-08_18h10.12.114,HW_LDT_1,2024.2.4,MacIntel,60.24096386,,,,,,,,,,,,,,,,,,,,394.3531,394.5518,394.5518,395.0517,,,,,,,,,,,,,,2.1478,1,,,,,,,,,,,,,,m,,,,,,,,,,,,,,,47,0,395.0524,397.2012,m,1,2.1478,,[],[],[],[],[],[],[],397.2012,399.2016,399.2016,399.2018,[],[],[],[],[],[],[],,399.2018,399.2019,-0.122292403,-0.379917879,0,0,0,,0,46,46,133,1,3,word,PROVIDE,print,provide_p.png,,,,,
,,,,31980,001,2025-11-08_18h10.12.114,HW_LDT_1,2024.2.4,MacIntel,60.24096386,,,,,,,,,,,,,,,,,,,,399.2032,399.4016,399.4017,399.9015,,,,,,,,,,,,,,1.5412,1,,,,,,,,,,,,,,z,,,,,,,,,,,,,,,48,0,399.9021,401.4517,z,1,1.5412,,[],[],[],[],[],[],[],401.4517,403.4516,403.4517,403.4518,[],[],[],[],[],[],[],,403.4518,403.4519,-0.122292403,-0.379917879,0,0,0,,0,47,47,14,1,3,RL,lofase,cursive,lofase_c.png,,,,,
,,,,31980,001,2025-11-08_18h10.12.114,HW_LDT_1,2024.2.4,MacIntel,60.24096386,,,,,,,,,,,,,,,,,,,,403.453,403.6515,403.6516,404.1516,,,,,,,,,,,,,,1.1322,1,,,,,,,,,,,,,,z,,,,,,,,,,,,,,,49,0,404.1521,405.2855,z,1,1.1322,,[],[],[],[],[],[],[],405.2855,407.2847,407.2848,407.2849,[],[],[],[],[],[],[],,407.2851,407.2851,-0.122292403,-0.379917879,0,0,0,,0,48,48,52,1,3,TL,locigal,cursive,locigal_c.png,,,,,
,,,,31980,001,2025-11-08_18h10.12.114,HW_LDT_1,2024.2.4,MacIntel,60.24096386,,,,,,,,,,,,,,,,,,,,407.2862,407.4847,407.4847,407.9848,,,,,,,,,,,,,,1.6867,0,,,,,,,,,,,,,,m,,,,,,,,,,,,,,,50,0,407.9853,409.6848,z,0,1.6867,,[],[],[],[],[],[],[],409.6849,411.6848,411.6848,411.685,[],[],[],[],[],[],[],,411.6851,411.6851,-0.122292403,-0.379917879,0,0,0,,0,49,49,99,1,3,word,DEBATE,cursive,debate_c.png,,,,,
,,,,31980,001,2025-11-08_18h10.12.114,HW_LDT_1,2024.2.4,MacIntel,60.24096386,,,,,,,,,,,,,,,,,,,,411.6863,411.8848,411.8848,412.3847,,,,,,,,,,,,,,2.1984,1,,,,,,,,,,,,,,m,,,,,,,,,,,,,,,51,1,412.3853,414.5847,m,1,2.1984,,[],[],[],[],[],[],[],414.5847,416.5847,416.5847,418.1342,[],[],[],[],[],[],[],m,418.1343,418.1344,-0.122292403,-0.379917879,0,0,0,,0,50,50,138,1,3,word,REFUSAL,print,refusal_p.png,1.5489,,,,
,,,,31980,001,2025-11-08_18h10.12.114,HW_LDT_1,2024.2.4,MacIntel,60.24096386,,,,,,,,,,,,,,,,,,,,418.1353,418.3337,418.3337,418.8337,,,,,,,,,,,,,,5.5938,1,,,,,,,,,,,,,,m,,,,,,,,,,,,,,,52,0,418.8342,424.4346,m,1,5.5938,,[],[],[],[],[],[],[],424.4349,426.4341,426.4341,426.4346,[],[],[],[],[],[],[],,426.4347,426.4349,-0.122292403,-0.379917879,0,0,0,,0,51,51,120,1,3,word,MILITARY,cursive,military_c.png,,,,,
,,,,31980,001,2025-11-08_18h10.12.114,HW_LDT_1,2024.2.4,MacIntel,60.24096386,,,,,,,,,,,,,,,,,,,,426.4374,426.6336,426.6336,427.1336,,,,,,,,,,,,,,1.7541,1,,,,,,,,,,,,,,z,,,,,,,,,,,,,,,53,0,427.1345,428.9012,z,1,1.7541,,[],[],[],[],[],[],[],428.9013,430.901,430.9011,430.9014,[],[],[],[],[],[],[],,430.9014,430.9015,-0.122292403,-0.379917879,0,0,0,,0,52,52,33,1,3,TL,adsivory,print,adsivory_p.png,,,,,
,,,,31980,001,2025-11-08_18h10.12.114,HW_LDT_1,2024.2.4,MacIntel,60.24096386,,,,,,,,,,,,,,,,,,,,430.9029,431.1011,431.1011,431.6011,,,,,,,,,,,,,,1.3792,1,,,,,,,,,,,,,,z,,,,,,,,,,,,,,,54,0,431.6017,432.9842,z,1,1.3792,,[],[],[],[],[],[],[],432.9842,434.9845,434.9845,434.9847,[],[],[],[],[],[],[],,434.9847,434.9848,-0.122292403,-0.379917879,0,0,0,,0,53,53,13,1,3,RL,helicage,cursive,helicage_c.png,,,,,
,,,,31980,001,2025-11-08_18h10.12.114,HW_LDT_1,2024.2.4,MacIntel,60.24096386,,,,,,,,,,,,,,,,,,,,434.9861,435.1836,435.1836,435.6836,,,,,,,,,,,,,,1.0573,1,,,,,,,,,,,,,,m,,,,,,,,,,,,,,,55,0,435.6842,436.751,m,1,1.0573,,[],[],[],[],[],[],[],436.7512,438.751,438.751,438.7512,[],[],[],[],[],[],[],,438.7512,438.7512,-0.122292403,-0.379917879,0,0,0,,0,54,54,142,1,3,word,REMOTE,print,remote_p.png,,,,,
,,,,31980,001,2025-11-08_18h10.12.114,HW_LDT_1,2024.2.4,MacIntel,60.24096386,,,,,,,,,,,,,,,,,,,,438.7521,438.951,438.951,439.451,,,,,,,,,,,,,,1.3038,0,,,,,,,,,,,,,,m,,,,,,,,,,,,,,,56,1,439.4517,440.7669,z,0,1.3038,,[],[],[],[],[],[],[],440.767,442.7675,442.7675,443.9342,[],[],[],[],[],[],[],m,443.9342,443.9343,-0.122292403,-0.379917879,0,0,0,,0,55,55,81,1,3,word,ADVISORY,print,advisory_p.png,1.1657,,,,
,,,,31980,001,2025-11-08_18h10.12.114,HW_LDT_1,2024.2.4,MacIntel,60.24096386,,,,,,,,,,,,,,,,,,,,443.9353,444.1341,444.1342,444.6342,,,,,,,,,,,,,,1.7867,1,,,,,,,,,,,,,,z,,,,,,,,,,,,,,,57,0,444.6348,446.4344,z,1,1.7867,,[],[],[],[],[],[],[],446.4344,448.4333,448.4334,448.4336,[],[],[],[],[],[],[],,448.4338,448.4338,-0.122292403,-0.379917879,0,0,0,,0,56,56,11,1,3,RL,ebiwent,cursive,ebiwent_c.png,,,,,
,,,,31980,001,2025-11-08_18h10.12.114,HW_LDT_1,2024.2.4,MacIntel,60.24096386,,,,,,,,,,,,,,,,,,,,448.4349,448.6342,448.6342,449.1342,,,,,,,,,,,,,,5.1375,1,,,,,,,,,,,,,,z,,,,,,,,,,,,,,,58,0,449.1347,454.2842,z,1,5.1375,,[],[],[],[],[],[],[],454.2843,456.2841,456.2841,456.2842,[],[],[],[],[],[],[],,456.2843,456.2845,-0.122555937,-0.377826612,0,0,0,,0,57,57,78,1,3,TL,vecolity,cursive,vecolity_c.png,,,,,
,,,,31980,001,2025-11-08_18h10.12.114,HW_LDT_1,2024.2.4,MacIntel,60.24096386,,,,,,,,,,,,,,,,,,,,456.2857,456.4841,456.4842,456.9841,,,,,,,,,,,,,,0.9643,1,,,,,,,,,,,,,,z,,,,,,,,,,,,,,,59,0,456.9847,457.9506,z,1,0.9643,,[],[],[],[],[],[],[],457.9508,459.9507,459.9507,459.9508,[],[],[],[],[],[],[],,459.951,459.951,-0.122555937,-0.377826612,0,0,0,,0,58,58,67,1,3,TL,retome,print,retome_p.png,,,,,
,,,,31980,001,2025-11-08_18h10.12.114,HW_LDT_1,2024.2.4,MacIntel,60.24096386,,,,,,,,,,,,,,,,,,,,459.9521,460.1507,460.1507,460.6507,,,,,,,,,,,,,,0.9381,0,,,,,,,,,,,,,,m,,,,,,,,,,,,,,,60,0,460.6511,461.6007,z,0,0.9381,,[],[],[],[],[],[],[],461.6007,463.6007,463.6007,463.6008,[],[],[],[],[],[],[],,463.6008,463.6009,-0.122555937,-0.377826612,0,0,0,,0,59,59,114,1,3,word,LOCATE,cursive,locate_c.png,,,,,
,,,,31980,001,2025-11-08_18h10.12.114,HW_LDT_1,2024.2.4,MacIntel,60.24096386,,,,,,,,,,,,,,,,,,,,463.6019,463.8007,463.8007,464.3007,,,,,,,,,,,,,,2.7707,1,,,,,,,,,,,,,,m,,,,,,,,,,,,,,,61,0,464.3012,467.084,m,1,2.7707,,[],[],[],[],[],[],[],467.0841,469.0839,469.0839,469.0841,[],[],[],[],[],[],[],,469.0841,469.0842,-0.122555937,-0.377826612,0,0,0,,0,60,60,128,1,3,word,PACIFIC,cursive,pacific_c.png,,,,,
,,,,31980,001,2025-11-08_18h10.12.114,HW_LDT_1,2024.2.4,MacIntel,60.24096386,,,,,,,,,,,,,,,,,,,,469.0852,469.2839,469.284,469.7839,,,,,,,,,,,,,,3.5656,1,,,,,,,,,,,,,,m,,,,,,,,,,,,,,,62,0,469.7844,473.351,m,1,3.5656,,[],[],[],[],[],[],[],473.351,475.3505,475.3505,475.3508,[],[],[],[],[],[],[],,475.3508,475.3509,-0.122555937,-0.377826612,0,0,0,,0,61,61,113,1,3,word,LITERAL,print,literal_p.png,,,,,
,,,,31980,001,2025-11-08_18h10.12.114,HW_LDT_1,2024.2.4,MacIntel,60.24096386,,,,,,,,,,,,,,,,,,,,475.352,475.5504,475.5505,476.0505,,,,,,,,,,,,,,2.2886,1,,,,,,,,,,,,,,z,,,,,,,,,,,,,,,63,0,476.051,478.3505,z,1,2.2886,,[],[],[],[],[],[],[],478.3506,480.3504,480.3504,480.3506,[],[],[],[],[],[],[],,480.3507,480.3508,-0.122555937,-0.377826612,0,0,0,,0,62,62,21,1,3,RL,potugar,print,potugar_p.png,,,,,
,,,,31980,001,2025-11-08_18h10.12.114,HW_LDT_1,2024.2.4,MacIntel,60.24096386,,,,,,,,,,,,,,,,,,,,480.3519,480.5503,480.5504,481.0504,,,,,,,,,,,,,,1.2322,1,,,,,,,,,,,,,,m,,,,,,,,,,,,,,,64,0,481.0509,482.2839,m,1,1.2322,,[],[],[],[],[],[],[],482.2841,484.2838,484.2838,484.2842,[],[],[],[],[],[],[],,484.2843,484.2845,-0.122555937,-0.377826612,0,0,0,,0,63,63,105,1,3,word,EDITOR,print,editor_p.png,,,,,
,,,,31980,001,2025-11-08_18h10.12.114,HW_LDT_1,2024.2.4,MacIntel,60.24096386,,,,,,,,,,,,,,,,,,,,484.2868,484.4837,484.4837,484.9838,,,,,,,,,,,,,,0.8852,1,,,,,,,,,,,,,,m,,,,,,,,,,,,,,,65,0,484.9867,485.8838,m,1,0.8852,,[],[],[],[],[],[],[],485.8839,487.8837,487.8837,487.8839,[],[],[],[],[],[],[],,487.884,487.884,-0.122555937,-0.377826612,0,0,0,,0,64,64,131,1,3,word,POPULAR,print,popular_p.png,,,,,
,,,,31980,001,2025-11-08_18h10.12.114,HW_LDT_1,2024.2.4,MacIntel,60.24096386,,,,,,,,,,,,,,,,,,,,487.8852,488.0836,488.0836,488.5836,,,,,,,,,,,,,,1.8212,0,,,,,,,,,,,,,,m,,,,,,,,,,,,,,,66,0,488.5842,490.4169,z,0,1.8212,,[],[],[],[],[],[],[],490.417,492.4169,492.4169,492.4172,[],[],[],[],[],[],[],,492.4172,492.4172,-0.122555937,-0.377826612,0,0,0,,0,65,65,153,1,3,word,STOLEN,cursive,stolen_c.png,,,,,
,,,,31980,001,2025-11-08_18h10.12.114,HW_LDT_1,2024.2.4,MacIntel,60.24096386,,,,,,,,,,,,,,,,,,,,492.4185,492.6169,492.6169,493.1169,,,,,,,,,,,,,,1.2578,1,,,,,,,,,,,,,,m,,,,,,,,,,,,,,,67,0,493.1175,494.3836,m,1,1.2578,,[],[],[],[],[],[],[],494.3837,496.3833,496.3833,496.3834,[],[],[],[],[],[],[],,496.3835,496.3835,-0.122555937,-0.377826612,0,0,0,,0,66,66,96,1,3,word,CONSIDER,print,consider_p.png,,,,,
,,,,31980,001,2025-11-08_18h10.12.114,HW_LDT_1,2024.2.4,MacIntel,60.24096386,,,,,,,,,,,,,,,,,,,,496.3844,496.5836,496.5836,497.0835,,,,,,,,,,,,,,3.3267,1,,,,,,,,,,,,,,z,,,,,,,,,,,,,,,68,0,497.0841,500.4168,z,1,3.3267,,[],[],[],[],[],[],[],500.4169,502.4168,502.4168,502.4169,[],[],[],[],[],[],[],,502.417,502.4171,-0.122555937,-0.377826612,0,0,0,,0,67,67,76,1,3,TL,stogare,cursive,stogare_c.png,,,,,
,,,,31980,001,2025-11-08_18h10.12.114,HW_LDT_1,2024.2.4,MacIntel,60.24096386,,,,,,,,,,,,,,,,,,,,502.4183,502.6167,502.6169,503.1168,,,,,,,,,,,,,,1.2145,1,,,,,,,,,,,,,,m,,,,,,,,,,,,,,,69,0,503.1177,504.3331,m,1,1.2145,,[],[],[],[],[],[],[],504.3331,506.3333,506.3334,506.3337,[],[],[],[],[],[],[],,506.3338,506.3339,-0.122555937,-0.377826612,0,0,0,,0,68,68,124,1,3,word,NUMERICAL,print,numerical_p.png,,,,,
,,,,31980,001,2025-11-08_18h10.12.114,HW_LDT_1,2024.2.4,MacIntel,60.24096386,,,,,,,,,,,,,,,,,,,,506.335,506.5334,506.5334,507.0333,,,,,,,,,,,,,,4.062,0,,,,,,,,,,,,,,z,,,,,,,,,,,,,,,70,0,507.0339,511.0995,m,0,4.062,,[],[],[],[],[],[],[],511.0997,513.1,513.1001,513.1004,[],[],[],[],[],[],[],,513.1006,513.1007,-0.122555937,-0.377826612,0,0,0,,0,69,69,6,1,3,RL,cenesony,cursive,cenesony_c.png,,,,,
,,,,31980,001,2025-11-08_18h10.12.114,HW_LDT_1,2024.2.4,MacIntel,60.24096386,,,,,,,,,,,,,,,,,,,,513.1031,513.2999,513.3,513.7999,,,,,,,,,,,,,,1.3379,1,,,,,,,,,,,,,,z,,,,,,,,,,,,,,,71,1,513.8006,515.1499,z,1,1.3379,,[],[],[],[],[],[],[],515.15,517.1498,517.1498,518.5997,[],[],[],[],[],[],[],z,518.5998,518.5999,-0.122555937,-0.377826612,0,0,0,,0,70,70,28,1,3,RL,rovastic,cursive,rovastic_c.png,1.4392,,,,
,,,,31980,001,2025-11-08_18h10.12.114,HW_LDT_1,2024.2.4,MacIntel,60.24096386,,,,,,,,,,,,,,,,,,,,518.601,518.7999,518.7999,519.2999,,,,,,,,,,,,,,1.0045,1,,,,,,,,,,,,,,m,,,,,,,,,,,,,,,72,0,519.3005,520.3166,m,1,1.0045,,[],[],[],[],[],[],[],520.3166,522.3165,522.3166,522.3168,[],[],[],[],[],[],[],,522.3169,522.3169,-0.122555937,-0.377826612,0,0,0,,0,71,71,98,1,3,word,CRIMINAL,print,criminal_p.png,,,,,
,,,,31980,001,2025-11-08_18h10.12.114,HW_LDT_1,2024.2.4,MacIntel,60.24096386,,,,,,,,,,,,,,,,,,,,522.3182,522.5165,522.5165,523.0166,,,,,,,,,,,,,,5.592,1,,,,,,,,,,,,,,z,,,,,,,,,,,,,,,73,0,523.0173,528.6163,z,1,5.592,,[],[],[],[],[],[],[],528.6164,530.6163,530.6164,530.6165,[],[],[],[],[],[],[],,530.6167,530.6167,-0.122555937,-0.377826612,0,0,0,,0,72,72,74,1,3,TL,spemicen,print,spemicen_p.png,,,,,
,,,,31980,001,2025-11-08_18h10.12.114,HW_LDT_1,2024.2.4,MacIntel,60.24096386,,,,,,,,,,,,,,,,,,,,530.6179,530.8164,530.8165,531.3164,,,,,,,,,,,,,,6.7045,1,,,,,,,,,,,,,,z,,,,,,,,,,,,,,,74,0,531.317,538.0331,z,1,6.7045,,[],[],[],[],[],[],[],538.0333,540.0329,540.033,540.0332,[],[],[],[],[],[],[],,540.0333,540.0334,-0.122555937,-0.377826612,0,0,0,,0,73,73,2,1,3,RL,betemit,print,betemit_p.png,,,,,
,,,,31980,001,2025-11-08_18h10.12.114,HW_LDT_1,2024.2.4,MacIntel,60.24096386,,,,,,,,,,,,,,,,,,,,540.0351,540.2329,540.233,540.7329,,,,,,,,,,,,,,1.8786,1,,,,,,,,,,,,,,z,,,,,,,,,,,,,,,75,0,540.7336,542.6159,z,1,1.8786,,[],[],[],[],[],[],[],542.616,544.6152,544.6154,544.6156,[],[],[],[],[],[],[],,544.6157,544.6157,-0.122555937,-0.377826612,0,0,0,,0,74,74,72,1,3,TL,senmitent,print,senmitent_p.png,,,,,
,,,,31980,001,2025-11-08_18h10.12.114,HW_LDT_1,2024.2.4,MacIntel,60.24096386,,,,,,,,,,,,,,,,,,,,544.617,544.8158,544.8159,545.3161,,,,,,,,,,,,,,1.2455,0,,,,,,,,,,,,,,z,,,,,,,,,,,,,,,76,0,545.3169,546.5662,m,0,1.2455,,[],[],[],[],[],[],[],546.5663,548.5662,548.5663,548.5665,[],[],[],[],[],[],[],,548.5666,548.5667,-0.122555937,-0.377826612,0,0,0,,0,75,75,73,1,3,TL,speficic,print,speficic_p.png,,,,,
,,,,31980,001,2025-11-08_18h10.12.114,HW_LDT_1,2024.2.4,MacIntel,60.24096386,,,,,,,,,,,,,,,,,,,,548.5677,548.7661,548.7662,549.2661,,,,,,,,,,,,,,5.7395,1,,,,,,,,,,,,,,z,,,,,,,,,,,,,,,77,0,549.2667,555.016,z,1,5.7395,,[],[],[],[],[],[],[],555.0161,557.016,557.0161,557.0164,[],[],[],[],[],[],[],,557.0164,557.0164,-0.122555937,-0.377826612,0,0,0,,0,76,76,59,1,3,TL,paficic,cursive,paficic_c.png,,,,,
,,,,31980,001,2025-11-08_18h10.12.114,HW_LDT_1,2024.2.4,MacIntel,60.24096386,,,,,,,,,,,,,,,,,,,,557.0175,557.2159,557.2159,557.7161,,,,,,,,,,,,,,1.1537,1,,,,,,,,,,,,,,m,,,,,,,,,,,,,,,78,0,557.7169,558.8827,m,1,1.1537,,[],[],[],[],[],[],[],558.8827,560.8828,560.8828,560.883,[],[],[],[],[],[],[],,560.8831,560.8832,-0.122555937,-0.377826612,0,0,0,,0,77,77,119,1,3,word,MEMORY,print,memory_p.png,,,,,
,,,,31980,001,2025-11-08_18h10.12.114,HW_LDT_1,2024.2.4,MacIntel,60.24096386,,,,,,,,,,,,,,,,,,,,560.8846,561.0826,561.0826,561.5826,,,,,,,,,,,,,,0.9215,1,,,,,,,,,,,,,,m,,,,,,,,,,,,,,,79,0,561.5833,562.516,m,1,0.9215,,[],[],[],[],[],[],[],562.516,564.5158,564.5159,564.5161,[],[],[],[],[],[],[],,564.5161,564.5161,-0.122555937,-0.377826612,0,0,0,,0,78,78,132,1,3,word,PROPOSAL,print,proposal_p.png,,,,,
,,,,31980,001,2025-11-08_18h10.12.114,HW_LDT_1,2024.2.4,MacIntel,60.24096386,,,,,,,,,,,,,,,,,,,,564.5173,564.7158,564.7159,565.2159,,,,,,,,,,,,,,1.921,1,,,,,,,,,,,,,,m,,,,,,,,,,,,,,,80,0,565.2164,567.1492,m,1,1.921,,[],[],[],[],[],[],[],567.1493,569.1491,569.1492,569.1494,[],[],[],[],[],[],[],,569.1495,604.4322,-0.123601571,-0.37757583,1,0,0,,0,79,79,84,1,3,word,BELOVED,cursive,beloved_c.png,,,break_done_button,,
,,,,31980,001,2025-11-08_18h10.12.114,HW_LDT_1,2024.2.4,MacIntel,60.24096386,,,,,,,,,,,,,,,,,,,,604.4334,604.632,604.632,605.1319,,,,,,,,,,,,,,2.5215,1,,,,,,,,,,,,,,m,,,,,,,,,,,,,,,81,0,605.1325,607.6653,m,1,2.5215,,[],[],[],[],[],[],[],607.6655,609.6652,609.6653,609.6655,[],[],[],[],[],[],[],,609.6655,609.6656,-0.123601571,-0.37757583,0,0,0,,0,80,80,122,1,3,word,MOBILE,cursive,mobile_c.png,,,,,
,,,,31980,001,2025-11-08_18h10.12.114,HW_LDT_1,2024.2.4,MacIntel,60.24096386,,,,,,,,,,,,,,,,,,,,609.6666,609.8653,609.8654,610.3652,,,,,,,,,,,,,,3.5045,1,,,,,,,,,,,,,,z,,,,,,,,,,,,,,,82,0,610.3658,613.8819,z,1,3.5045,,[],[],[],[],[],[],[],613.882,615.8818,615.8819,615.882,[],[],[],[],[],[],[],,615.8821,615.8821,-0.123601571,-0.37757583,0,0,0,,0,81,81,36,1,3,TL,carema,cursive,carema_c.png,,,,,
,,,,31980,001,2025-11-08_18h10.12.114,HW_LDT_1,2024.2.4,MacIntel,60.24096386,,,,,,,,,,,,,,,,,,,,615.8833,616.0818,616.0818,616.5817,,,,,,,,,,,,,,1.7043,1,,,,,,,,,,,,,,m,,,,,,,,,,,,,,,83,0,616.5824,618.2985,m,1,1.7043,,[],[],[],[],[],[],[],618.2985,620.2983,620.2983,620.2985,[],[],[],[],[],[],[],,620.2985,620.2985,-0.123601571,-0.37757583,0,0,0,,0,82,82,115,1,3,word,LOGICAL,cursive,logical_c.png,,,,,
,,,,31980,001,2025-11-08_18h10.12.114,HW_LDT_1,2024.2.4,MacIntel,60.24096386,,,,,,,,,,,,,,,,,,,,620.2994,620.4982,620.4982,620.9984,,,,,,,,,,,,,,2.5378,1,,,,,,,,,,,,,,z,,,,,,,,,,,,,,,84,0,620.9991,623.5485,z,1,2.5378,,[],[],[],[],[],[],[],623.5486,625.5483,625.5483,625.5484,[],[],[],[],[],[],[],,625.5484,625.5485,-0.123601571,-0.377325048,0,0,0,,0,83,83,1,1,3,RL,bewoted,cursive,bewoted_c.png,,,,,
,,,,31980,001,2025-11-08_18h10.12.114,HW_LDT_1,2024.2.4,MacIntel,60.24096386,,,,,,,,,,,,,,,,,,,,625.5495,625.7482,625.7482,626.2483,,,,,,,,,,,,,,1.0713,1,,,,,,,,,,,,,,z,,,,,,,,,,,,,,,85,0,626.2489,627.3317,z,1,1.0713,,[],[],[],[],[],[],[],627.3318,629.3316,629.3316,629.3318,[],[],[],[],[],[],[],,629.3319,629.332,-0.123601571,-0.377571579,0,0,0,,0,84,84,45,1,3,TL,dentisy,print,dentisy_p.png,,,,,
,,,,31980,001,2025-11-08_18h10.12.114,HW_LDT_1,2024.2.4,MacIntel,60.24096386,,,,,,,,,,,,,,,,,,,,629.3332,629.5316,629.5316,630.0315,,,,,,,,,,,,,,0.8881,1,,,,,,,,,,,,,,z,,,,,,,,,,,,,,,86,0,630.0321,630.9317,z,1,0.8881,,[],[],[],[],[],[],[],630.9318,632.9316,632.9316,632.9318,[],[],[],[],[],[],[],,632.9318,632.9318,-0.123601571,-0.377571579,0,0,0,,0,85,85,32,1,3,TL,adacemy,print,adacemy_p.png,,,,,
,,,,31980,001,2025-11-08_18h10.12.114,HW_LDT_1,2024.2.4,MacIntel,60.24096386,,,,,,,,,,,,,,,,,,,,632.933,633.1315,633.1316,633.6315,,,,,,,,,,,,,,1.4818,0,,,,,,,,,,,,,,m,,,,,,,,,,,,,,,87,0,633.6321,635.1149,z,0,1.4818,,[],[],[],[],[],[],[],635.1149,637.1149,637.1149,637.1151,[],[],[],[],[],[],[],,637.1151,637.1152,-0.123601571,-0.377571579,0,0,0,,0,86,86,140,1,3,word,RELATIVE,cursive,relative_c.png,,,,,
,,,,31980,001,2025-11-08_18h10.12.114,HW_LDT_1,2024.2.4,MacIntel,60.24096386,,,,,,,,,,,,,,,,,,,,637.1163,637.3148,637.3148,637.8149,,,,,,,,,,,,,,0.9354,1,,,,,,,,,,,,,,z,,,,,,,,,,,,,,,88,0,637.8174,638.7646,z,1,0.9354,,[],[],[],[],[],[],[],638.7647,640.7635,640.7635,640.7636,[],[],[],[],[],[],[],,640.7636,640.7637,-0.123601571,-0.377571579,0,0,0,,0,87,87,42,1,3,TL,detabe,cursive,detabe_c.png,,,,,
,,,,31980,001,2025-11-08_18h10.12.114,HW_LDT_1,2024.2.4,MacIntel,60.24096386,,,,,,,,,,,,,,,,,,,,640.7644,640.9647,640.9648,641.4647,,,,,,,,,,,,,,1.6475,1,,,,,,,,,,,,,,m,,,,,,,,,,,,,,,89,1,641.4654,643.1147,m,1,1.6475,,[],[],[],[],[],[],[],643.1147,645.1146,645.1147,646.8314,[],[],[],[],[],[],[],z,646.8314,646.8315,-0.123601571,-0.377571579,0,0,0,,0,88,88,157,1,3,word,VALIDITY,cursive,validity_c.png,1.7152,,,,
,,,,31980,001,2025-11-08_18h10.12.114,HW_LDT_1,2024.2.4,MacIntel,60.24096386,,,,,,,,,,,,,,,,,,,,646.8324,647.0313,647.0314,647.5314,,,,,,,,,,,,,,1.9988,1,,,,,,,,,,,,,,z,,,,,,,,,,,,,,,90,0,647.5318,649.5317,z,1,1.9988,,[],[],[],[],[],[],[],649.5318,651.5313,651.5314,651.5315,[],[],[],[],[],[],[],,651.5316,651.5317,-0.123601571,-0.377571579,0,0,0,,0,89,89,20,1,3,RL,orimipal,cursive,orimipal_c.png,,,,,
,,,,31980,001,2025-11-08_18h10.12.114,HW_LDT_1,2024.2.4,MacIntel,60.24096386,,,,,,,,,,,,,,,,,,,,651.5328,651.7313,651.7314,652.2312,,,,,,,,,,,,,,1.7213,1,,,,,,,,,,,,,,z,,,,,,,,,,,,,,,91,0,652.2317,653.9647,z,1,1.7213,,[],[],[],[],[],[],[],653.9648,655.9647,655.9647,655.9649,[],[],[],[],[],[],[],,655.9649,655.965,-0.123601571,-0.377571579,0,0,0,,0,90,90,53,1,3,TL,marnigal,print,marnigal_p.png,,,,,
,,,,31980,001,2025-11-08_18h10.12.114,HW_LDT_1,2024.2.4,MacIntel,60.24096386,,,,,,,,,,,,,,,,,,,,655.966,656.1646,656.1646,656.6646,,,,,,,,,,,,,,1.1708,1,,,,,,,,,,,,,,z,,,,,,,,,,,,,,,92,0,656.6652,657.8478,z,1,1.1708,,[],[],[],[],[],[],[],657.848,659.8478,659.8478,659.8481,[],[],[],[],[],[],[],,659.8481,659.8482,-0.123601571,-0.378073143,0,0,0,,0,91,91,44,1,3,TL,decilate,print,decilate_p.png,,,,,
,,,,31980,001,2025-11-08_18h10.12.114,HW_LDT_1,2024.2.4,MacIntel,60.24096386,,,,,,,,,,,,,,,,,,,,659.8492,660.0478,660.0478,660.5478,,,,,,,,,,,,,,3.5285,1,,,,,,,,,,,,,,m,,,,,,,,,,,,,,,93,0,660.5482,664.0813,m,1,3.5285,,[],[],[],[],[],[],[],664.0815,666.0812,666.0812,666.0814,[],[],[],[],[],[],[],,666.0815,666.0816,-0.123601571,-0.378073143,0,0,0,,0,92,92,89,1,3,word,CAPACITY,cursive,capacity_c.png,,,,,
,,,,31980,001,2025-11-08_18h10.12.114,HW_LDT_1,2024.2.4,MacIntel,60.24096386,,,,,,,,,,,,,,,,,,,,666.0832,666.281,666.2811,666.7811,,,,,,,,,,,,,,1.6145,1,,,,,,,,,,,,,,m,,,,,,,,,,,,,,,94,0,666.7818,668.3977,m,1,1.6145,,[],[],[],[],[],[],[],668.3977,670.3966,670.3966,670.3969,[],[],[],[],[],[],[],,670.397,670.397,-0.123601571,-0.379097524,0,0,0,,0,93,93,158,1,3,word,VELOCITY,cursive,velocity_c.png,,,,,
,,,,31980,001,2025-11-08_18h10.12.114,HW_LDT_1,2024.2.4,MacIntel,60.24096386,,,,,,,,,,,,,,,,,,,,670.398,670.5977,670.5977,671.0976,,,,,,,,,,,,,,1.0031,1,,,,,,,,,,,,,,z,,,,,,,,,,,,,,,95,0,671.0982,672.1133,z,1,1.0031,,[],[],[],[],[],[],[],672.1134,674.1144,674.1144,674.1146,[],[],[],[],[],[],[],,674.1147,674.1147,-0.123601571,-0.379097524,0,0,0,,0,94,94,12,1,3,RL,formuke,cursive,formuke_c.png,,,,,
,,,,31980,001,2025-11-08_18h10.12.114,HW_LDT_1,2024.2.4,MacIntel,60.24096386,,,,,,,,,,,,,,,,,,,,674.1158,674.3143,674.3143,674.8143,,,,,,,,,,,,,,2.8211,0,,,,,,,,,,,,,,m,,,,,,,,,,,,,,,96,0,674.8148,677.6476,z,0,2.8211,,[],[],[],[],[],[],[],677.6478,679.6475,679.6475,679.6479,[],[],[],[],[],[],[],,679.6479,679.6479,-0.123601571,-0.379097524,0,0,0,,0,95,95,127,1,3,word,ORIGINAL,cursive,original_c.png,,,,,
,,,,31980,001,2025-11-08_18h10.12.114,HW_LDT_1,2024.2.4,MacIntel,60.24096386,,,,,,,,,,,,,,,,,,,,679.649,679.8476,679.8476,680.3475,,,,,,,,,,,,,,1.7552,1,,,,,,,,,,,,,,z,,,,,,,,,,,,,,,97,0,680.3481,682.1133,z,1,1.7552,,[],[],[],[],[],[],[],682.1134,684.1141,684.1142,684.1143,[],[],[],[],[],[],[],,684.1144,684.1145,-0.123601571,-0.379097524,0,0,0,,0,96,96,18,1,3,RL,onegator,print,onegator_p.png,,,,,
,,,,31980,001,2025-11-08_18h10.12.114,HW_LDT_1,2024.2.4,MacIntel,60.24096386,,,,,,,,,,,,,,,,,,,,684.1156,684.3141,684.3141,684.8132,,,,,,,,,,,,,,0.841,0,,,,,,,,,,,,,,m,,,,,,,,,,,,,,,98,0,684.8136,685.6641,z,0,0.841,,[],[],[],[],[],[],[],685.6643,687.6632,687.6632,687.6633,[],[],[],[],[],[],[],,687.6634,687.6634,-0.123601571,-0.379097524,0,0,0,,0,97,97,147,1,3,word,ROMANTIC,cursive,romantic_c.png,,,,,
,,,,31980,001,2025-11-08_18h10.12.114,HW_LDT_1,2024.2.4,MacIntel,60.24096386,,,,,,,,,,,,,,,,,,,,687.6644,687.8642,687.8642,688.3641,,,,,,,,,,,,,,1.4546,1,,,,,,,,,,,,,,m,,,,,,,,,,,,,,,99,0,688.3647,689.8308,m,1,1.4546,,[],[],[],[],[],[],[],689.8309,691.8306,691.8307,691.8309,[],[],[],[],[],[],[],,691.8309,691.831,-0.123601571,-0.379097524,0,0,0,,0,98,98,150,1,3,word,SENTIMENT,print,sentiment_p.png,,,,,
,,,,31980,001,2025-11-08_18h10.12.114,HW_LDT_1,2024.2.4,MacIntel,60.24096386,,,,,,,,,,,,,,,,,,,,691.832,692.0307,692.0307,692.5307,,,,,,,,,,,,,,1.5711,1,,,,,,,,,,,,,,m,,,,,,,,,,,,,,,100,0,692.5312,694.1141,m,1,1.5711,,[],[],[],[],[],[],[],694.1141,696.114,696.114,696.1141,[],[],[],[],[],[],[],,696.1141,696.1142,-0.123601571,-0.379097524,0,0,0,,0,99,99,100,1,3,word,DECADE,cursive,decade_c.png,,,,,
,,,,31980,001,2025-11-08_18h10.12.114,HW_LDT_1,2024.2.4,MacIntel,60.24096386,,,,,,,,,,,,,,,,,,,,696.1151,696.3131,696.3131,696.814,,,,,,,,,,,,,,2.2045,0,,,,,,,,,,,,,,z,,,,,,,,,,,,,,,101,0,696.8145,699.0306,m,0,2.2045,,[],[],[],[],[],[],[],699.0307,701.0305,701.0306,701.0308,[],[],[],[],[],[],[],,701.0309,701.0309,-0.123601571,-0.379097524,0,0,0,,0,100,100,37,1,3,TL,cacapity,cursive,cacapity_c.png,,,,,
,,,,31980,001,2025-11-08_18h10.12.114,HW_LDT_1,2024.2.4,MacIntel,60.24096386,,,,,,,,,,,,,,,,,,,,701.0319,701.2305,701.2305,701.7305,,,,,,,,,,,,,,1.9211,1,,,,,,,,,,,,,,z,,,,,,,,,,,,,,,102,0,701.7311,703.6639,z,1,1.9211,,[],[],[],[],[],[],[],703.664,705.663,705.663,705.6632,[],[],[],[],[],[],[],,705.6632,705.6633,-0.123601571,-0.379097524,0,0,0,,0,101,101,65,1,3,TL,resufal,print,resufal_p.png,,,,,
,,,,31980,001,2025-11-08_18h10.12.114,HW_LDT_1,2024.2.4,MacIntel,60.24096386,,,,,,,,,,,,,,,,,,,,705.6643,705.8638,705.8639,706.3629,,,,,,,,,,,,,,1.3295,1,,,,,,,,,,,,,,m,,,,,,,,,,,,,,,103,0,706.3634,707.697,m,1,1.3295,,[],[],[],[],[],[],[],707.697,709.6963,709.6963,709.6965,[],[],[],[],[],[],[],,709.6965,709.6966,-0.123601571,-0.379097524,0,0,0,,0,102,102,116,1,3,word,MARGINAL,print,marginal_p.png,,,,,
,,,,31980,001,2025-11-08_18h10.12.114,HW_LDT_1,2024.2.4,MacIntel,60.24096386,,,,,,,,,,,,,,,,,,,,709.6977,709.8972,709.8973,710.3971,,,,,,,,,,,,,,2.7367,1,,,,,,,,,,,,,,z,,,,,,,,,,,,,,,104,0,710.3976,713.1471,z,1,2.7367,,[],[],[],[],[],[],[],713.1472,715.1461,715.1462,715.1464,[],[],[],[],[],[],[],,715.1464,715.1466,-0.123601571,-0.379097524,0,0,0,,0,103,103,79,1,3,TL,veretan,cursive,veretan_c.png,,,,,
,,,,31980,001,2025-11-08_18h10.12.114,HW_LDT_1,2024.2.4,MacIntel,60.24096386,,,,,,,,,,,,,,,,,,,,715.1476,715.347,715.347,715.8462,,,,,,,,,,,,,,2.0052,1,,,,,,,,,,,,,,z,,,,,,,,,,,,,,,105,0,715.8467,717.8629,z,1,2.0052,,[],[],[],[],[],[],[],717.8629,719.8635,719.8635,719.8637,[],[],[],[],[],[],[],,719.8637,719.8638,-0.123601571,-0.379097524,0,0,0,,0,104,104,29,1,3,RL,selamor,cursive,selamor_c.png,,,,,
,,,,31980,001,2025-11-08_18h10.12.114,HW_LDT_1,2024.2.4,MacIntel,60.24096386,,,,,,,,,,,,,,,,,,,,719.8648,720.0627,720.0628,720.5635,,,,,,,,,,,,,,1.9882,1,,,,,,,,,,,,,,z,,,,,,,,,,,,,,,106,0,720.5639,722.5637,z,1,1.9882,,[],[],[],[],[],[],[],722.5637,724.5636,724.5638,724.5641,[],[],[],[],[],[],[],,724.5642,724.5644,-0.123601571,-0.379097524,0,0,0,,0,105,105,23,1,3,RL,quakity,print,quakity_p.png,,,,,
,,,,31980,001,2025-11-08_18h10.12.114,HW_LDT_1,2024.2.4,MacIntel,60.24096386,,,,,,,,,,,,,,,,,,,,724.5662,724.7635,724.7636,725.2627,,,,,,,,,,,,,,1.5547,1,,,,,,,,,,,,,,m,,,,,,,,,,,,,,,107,0,725.2637,726.8302,m,1,1.5547,,[],[],[],[],[],[],[],726.8303,728.8297,728.8298,728.8298,[],[],[],[],[],[],[],,728.8298,728.8299,-0.123601571,-0.379097524,0,0,0,,0,106,106,91,1,3,word,CARDINAL,print,cardinal_p.png,,,,,
,,,,31980,001,2025-11-08_18h10.12.114,HW_LDT_1,2024.2.4,MacIntel,60.24096386,,,,,,,,,,,,,,,,,,,,728.8303,729.0301,729.0302,729.5293,,,,,,,,,,,,,,1.11,1,,,,,,,,,,,,,,m,,,,,,,,,,,,,,,108,0,729.5299,730.6468,m,1,1.11,,[],[],[],[],[],[],[],730.6469,732.6464,732.6465,732.6467,[],[],[],[],[],[],[],,732.6467,732.6468,-0.123601571,-0.379097524,0,0,0,,0,107,107,97,1,3,word,COVERAGE,print,coverage_p.png,,,,,
,,,,31980,001,2025-11-08_18h10.12.114,HW_LDT_1,2024.2.4,MacIntel,60.24096386,,,,,,,,,,,,,,,,,,,,732.6478,732.8468,732.8468,733.3468,,,,,,,,,,,,,,0.7543,1,,,,,,,,,,,,,,m,,,,,,,,,,,,,,,109,1,733.3474,734.1134,m,1,0.7543,,[],[],[],[],[],[],[],734.1135,736.1134,736.1134,737.4801,[],[],[],[],[],[],[],m,737.4801,737.4803,-0.123601571,-0.37960759,0,0,0,,0,108,108,151,1,3,word,SPECIFIC,print,specific_p.png,1.3659,,,,
,,,,31980,001,2025-11-08_18h10.12.114,HW_LDT_1,2024.2.4,MacIntel,60.24096386,,,,,,,,,,,,,,,,,,,,737.4815,737.68,737.68,738.18,,,,,,,,,,,,,,3.2884,1,,,,,,,,,,,,,,z,,,,,,,,,,,,,,,110,0,738.1807,741.48,z,1,3.2884,,[],[],[],[],[],[],[],741.48,743.4799,743.4799,743.4801,[],[],[],[],[],[],[],,743.4802,743.4803,-0.123601571,-0.37960759,0,0,0,,0,109,109,35,1,3,TL,cateferia,print,cateferia_p.png,,,,,
,,,,31980,001,2025-11-08_18h10.12.114,HW_LDT_1,2024.2.4,MacIntel,60.24096386,,,,,,,,,,,,,,,,,,,,743.4815,743.6799,743.6799,744.1799,,,,,,,,,,,,,,3.8812,1,,,,,,,,,,,,,,m,,,,,,,,,,,,,,,111,0,744.1806,748.0632,m,1,3.8812,,[],[],[],[],[],[],[],748.0633,750.0625,750.0625,750.0627,[],[],[],[],[],[],[],,750.0627,750.0628,-0.123601571,-0.37960759,0,0,0,,0,110,110,83,1,3,word,ANIMAL,cursive,animal_c.png,,,,,
,,,,31980,001,2025-11-08_18h10.12.114,HW_LDT_1,2024.2.4,MacIntel,60.24096386,,,,,,,,,,,,,,,,,,,,750.064,750.2632,750.2632,750.7631,,,,,,,,,,,,,,1.5042,1,,,,,,,,,,,,,,z,,,,,,,,,,,,,,,112,0,750.7636,752.2798,z,1,1.5042,,[],[],[],[],[],[],[],752.28,754.2798,754.2798,754.2801,[],[],[],[],[],[],[],,754.2801,754.2801,-0.123601571,-0.37960759,0,0,0,,0,111,111,39,1,3,TL,clicinal,print,clicinal_p.png,,,,,
,,,,31980,001,2025-11-08_18h10.12.114,HW_LDT_1,2024.2.4,MacIntel,60.24096386,,,,,,,,,,,,,,,,,,,,754.2813,754.4797,754.4798,754.9798,,,,,,,,,,,,,,0.9822,1,,,,,,,,,,,,,,z,,,,,,,,,,,,,,,113,0,754.9804,755.9637,z,1,0.9822,,[],[],[],[],[],[],[],755.9637,757.9631,757.9632,757.9634,[],[],[],[],[],[],[],,757.9635,757.9635,-0.123601571,-0.37960759,0,0,0,,0,112,112,50,1,3,TL,lirebal,print,lirebal_p.png,,,,,
,,,,31980,001,2025-11-08_18h10.12.114,HW_LDT_1,2024.2.4,MacIntel,60.24096386,,,,,,,,,,,,,,,,,,,,757.9648,758.163,758.1631,758.6631,,,,,,,,,,,,,,1.4981,1,,,,,,,,,,,,,,m,,,,,,,,,,,,,,,114,0,758.6637,760.163,m,1,1.4981,,[],[],[],[],[],[],[],760.1631,762.163,762.163,762.1633,[],[],[],[],[],[],[],,762.1633,762.1633,-0.123601571,-0.37960759,0,0,0,,0,113,113,95,1,3,word,COMEDY,print,comedy_p.png,,,,,
,,,,31980,001,2025-11-08_18h10.12.114,HW_LDT_1,2024.2.4,MacIntel,60.24096386,,,,,,,,,,,,,,,,,,,,762.1644,762.3628,762.3628,762.863,,,,,,,,,,,,,,0.8378,1,,,,,,,,,,,,,,z,,,,,,,,,,,,,,,115,0,762.8635,763.7131,z,1,0.8378,,[],[],[],[],[],[],[],763.7132,765.7129,765.7131,765.7133,[],[],[],[],[],[],[],,765.7134,765.7135,-0.123601571,-0.37960759,0,0,0,,0,114,114,16,1,3,RL,mishafe,cursive,mishafe_c.png,,,,,
,,,,31980,001,2025-11-08_18h10.12.114,HW_LDT_1,2024.2.4,MacIntel,60.24096386,,,,,,,,,,,,,,,,,,,,765.7149,765.9126,765.9126,766.4129,,,,,,,,,,,,,,0.9857,1,,,,,,,,,,,,,,z,,,,,,,,,,,,,,,116,0,766.4137,767.413,z,1,0.9857,,[],[],[],[],[],[],[],767.4131,769.4129,769.413,769.4131,[],[],[],[],[],[],[],,769.4132,769.4133,-0.123601571,-0.37960759,0,0,0,,0,115,115,4,1,3,RL,cafigal,cursive,cafigal_c.png,,,,,
,,,,31980,001,2025-11-08_18h10.12.114,HW_LDT_1,2024.2.4,MacIntel,60.24096386,,,,,,,,,,,,,,,,,,,,769.4145,769.6125,769.6126,770.113,,,,,,,,,,,,,,1.1636,1,,,,,,,,,,,,,,m,,,,,,,,,,,,,,,117,0,770.1137,771.2796,m,1,1.1636,,[],[],[],[],[],[],[],771.2796,773.2787,773.2787,773.2789,[],[],[],[],[],[],[],,773.2789,773.2789,-0.123601571,-0.37960759,0,0,0,,0,116,116,118,1,3,word,MEDICINE,print,medicine_p.png,,,,,
,,,,31980,001,2025-11-08_18h10.12.114,HW_LDT_1,2024.2.4,MacIntel,60.24096386,,,,,,,,,,,,,,,,,,,,773.2796,773.4792,773.4793,773.9794,,,,,,,,,,,,,,1.3046,1,,,,,,,,,,,,,,m,,,,,,,,,,,,,,,118,0,773.98,775.2962,m,1,1.3046,,[],[],[],[],[],[],[],775.2963,777.2961,777.2962,777.2964,[],[],[],[],[],[],[],,777.2964,777.2965,-0.123601571,-0.37960759,0,0,0,,0,117,117,136,1,3,word,RADICAL,cursive,radical_c.png,,,,,
,,,,31980,001,2025-11-08_18h10.12.114,HW_LDT_1,2024.2.4,MacIntel,60.24096386,,,,,,,,,,,,,,,,,,,,777.2977,777.4961,777.4962,777.9961,,,,,,,,,,,,,,4.2042,0,,,,,,,,,,,,,,m,,,,,,,,,,,,,,,119,0,777.9967,782.2128,z,0,4.2042,,[],[],[],[],[],[],[],782.2129,784.2126,784.2128,784.2134,[],[],[],[],[],[],[],,784.2135,784.2138,-0.123601571,-0.37960759,0,0,0,,0,118,118,145,1,3,word,RESUME,cursive,resume_c.png,,,,,
,,,,31980,001,2025-11-08_18h10.12.114,HW_LDT_1,2024.2.4,MacIntel,60.24096386,,,,,,,,,,,,,,,,,,,,784.2165,784.4128,784.4128,784.9127,,,,,,,,,,,,,,1.5708,1,,,,,,,,,,,,,,m,,,,,,,,,,,,,,,120,0,784.9136,786.496,m,1,1.5708,,[],[],[],[],[],[],[],786.4961,788.4959,788.4961,788.4963,[],[],[],[],[],[],[],,788.4963,788.4964,-0.123601571,-0.37960759,0,0,0,,0,119,119,86,1,3,word,BESIDE,cursive,beside_c.png,,,,,
,,,,31980,001,2025-11-08_18h10.12.114,HW_LDT_1,2024.2.4,MacIntel,60.24096386,,,,,,,,,,,,,,,,,,,,788.4976,788.6959,788.696,789.196,,,,,,,,,,,,,,1.1983,1,,,,,,,,,,,,,,z,,,,,,,,,,,,,,,121,0,789.1966,790.3959,z,1,1.1983,,[],[],[],[],[],[],[],790.396,792.3955,792.3955,792.3958,[],[],[],[],[],[],[],,792.3958,792.3958,-0.123601571,-0.37960759,0,0,0,,0,120,120,31,1,3,RL,trilude,print,trilude_p.png,,,,,
,,,,31980,001,2025-11-08_18h10.12.114,HW_LDT_1,2024.2.4,MacIntel,60.24096386,,,,,,,,,,,,,,,,,,,,792.3971,792.5956,792.5957,793.0959,,,,,,,,,,,,,,0.9544,1,,,,,,,,,,,,,,z,,,,,,,,,,,,,,,122,0,793.0965,794.0627,z,1,0.9544,,[],[],[],[],[],[],[],794.0629,796.0626,796.0626,796.0628,[],[],[],[],[],[],[],,796.0628,796.0629,-0.123601571,-0.37960759,0,0,0,,0,121,121,5,1,3,RL,capefory,cursive,capefory_c.png,,,,,
,,,,31980,001,2025-11-08_18h10.12.114,HW_LDT_1,2024.2.4,MacIntel,60.24096386,,,,,,,,,,,,,,,,,,,,796.0641,796.2625,796.2626,796.7625,,,,,,,,,,,,,,1.388,1,,,,,,,,,,,,,,z,,,,,,,,,,,,,,,123,0,796.7629,798.1626,z,1,1.388,,[],[],[],[],[],[],[],798.1627,800.1626,800.1627,800.1629,[],[],[],[],[],[],[],,800.1629,800.1629,-0.123601571,-0.37960759,0,0,0,,0,122,122,43,1,3,TL,dedace,cursive,dedace_c.png,,,,,
,,,,31980,001,2025-11-08_18h10.12.114,HW_LDT_1,2024.2.4,MacIntel,60.24096386,,,,,,,,,,,,,,,,,,,,800.1641,800.3624,800.3625,800.8626,,,,,,,,,,,,,,1.838,1,,,,,,,,,,,,,,z,,,,,,,,,,,,,,,124,0,800.8631,802.7126,z,1,1.838,,[],[],[],[],[],[],[],802.7126,804.7124,804.7125,804.7126,[],[],[],[],[],[],[],,804.7127,804.7127,-0.123601571,-0.37960759,0,0,0,,0,123,123,41,1,3,TL,crinimal,print,crinimal_p.png,,,,,
,,,,31980,001,2025-11-08_18h10.12.114,HW_LDT_1,2024.2.4,MacIntel,60.24096386,,,,,,,,,,,,,,,,,,,,804.7139,804.9123,804.9125,805.4124,,,,,,,,,,,,,,2.3306,1,,,,,,,,,,,,,,z,,,,,,,,,,,,,,,125,0,805.413,807.7456,z,1,2.3306,,[],[],[],[],[],[],[],807.7456,809.7456,809.7457,809.7459,[],[],[],[],[],[],[],,809.746,809.7461,-0.123601571,-0.37960759,0,0,0,,0,124,124,46,1,3,TL,distupe,print,distupe_p.png,,,,,
,,,,31980,001,2025-11-08_18h10.12.114,HW_LDT_1,2024.2.4,MacIntel,60.24096386,,,,,,,,,,,,,,,,,,,,809.7474,809.9457,809.9457,810.4457,,,,,,,,,,,,,,0.9043,1,,,,,,,,,,,,,,z,,,,,,,,,,,,,,,126,0,810.4463,811.3625,z,1,0.9043,,[],[],[],[],[],[],[],811.3627,813.3622,813.3624,813.3625,[],[],[],[],[],[],[],,813.3625,813.3626,-0.123601571,-0.37960759,0,0,0,,0,125,125,15,1,3,RL,mifikary,cursive,mifikary_c.png,,,,,
,,,,31980,001,2025-11-08_18h10.12.114,HW_LDT_1,2024.2.4,MacIntel,60.24096386,,,,,,,,,,,,,,,,,,,,813.3637,813.5623,813.5624,814.0623,,,,,,,,,,,,,,0.6913,1,,,,,,,,,,,,,,z,,,,,,,,,,,,,,,127,0,814.0629,814.7623,z,1,0.6913,,[],[],[],[],[],[],[],814.7624,816.7621,816.7622,816.7624,[],[],[],[],[],[],[],,816.7624,816.7625,-0.123601571,-0.37960759,0,0,0,,0,126,126,66,1,3,TL,retalive,cursive,retalive_c.png,,,,,
,,,,31980,001,2025-11-08_18h10.12.114,HW_LDT_1,2024.2.4,MacIntel,60.24096386,,,,,,,,,,,,,,,,,,,,816.7638,816.9622,816.9623,817.4622,,,,,,,,,,,,,,0.7551,1,,,,,,,,,,,,,,z,,,,,,,,,,,,,,,128,1,817.4628,818.228,z,1,0.7551,,[],[],[],[],[],[],[],818.2281,820.2288,820.2289,821.562,[],[],[],[],[],[],[],z,821.562,821.562,-0.123601571,-0.37960759,0,0,0,,0,127,127,54,1,3,TL,manire,cursive,manire_c.png,1.3298,,,,
,,,,31980,001,2025-11-08_18h10.12.114,HW_LDT_1,2024.2.4,MacIntel,60.24096386,,,,,,,,,,,,,,,,,,,,821.5628,821.7622,821.7622,822.2621,,,,,,,,,,,,,,1.5713,0,,,,,,,,,,,,,,m,,,,,,,,,,,,,,,129,0,822.2626,823.8456,z,0,1.5713,,[],[],[],[],[],[],[],823.8456,825.8454,825.8455,825.8457,[],[],[],[],[],[],[],,825.8458,825.8458,-0.124736466,-0.37702751,0,0,0,,0,128,128,108,1,3,word,FORTUNE,cursive,fortune_c.png,,,,,
,,,,31980,001,2025-11-08_18h10.12.114,HW_LDT_1,2024.2.4,MacIntel,60.24096386,,,,,,,,,,,,,,,,,,,,825.8469,826.0454,826.0454,826.5454,,,,,,,,,,,,,,1.5376,1,,,,,,,,,,,,,,m,,,,,,,,,,,,,,,130,0,826.546,828.0955,m,1,1.5376,,[],[],[],[],[],[],[],828.0955,830.0954,830.0954,830.0956,[],[],[],[],[],[],[],,830.0957,830.0957,-0.124736466,-0.37702751,0,0,0,,0,129,129,80,1,3,word,ACADEMY,print,academy_p.png,,,,,
,,,,31980,001,2025-11-08_18h10.12.114,HW_LDT_1,2024.2.4,MacIntel,60.24096386,,,,,,,,,,,,,,,,,,,,830.097,830.2953,830.2954,830.7953,,,,,,,,,,,,,,1.9319,1,,,,,,,,,,,,,,m,,,,,,,,,,,,,,,131,0,830.796,832.729,m,1,1.9319,,[],[],[],[],[],[],[],832.7291,834.7285,834.7286,834.7288,[],[],[],[],[],[],[],,834.7288,834.7288,-0.124736466,-0.376776727,0,0,0,,0,130,130,148,1,3,word,SALINE,cursive,saline_c.png,,,,,
,,,,31980,001,2025-11-08_18h10.12.114,HW_LDT_1,2024.2.4,MacIntel,60.24096386,,,,,,,,,,,,,,,,,,,,834.7301,834.9285,834.9286,835.4286,,,,,,,,,,,,,,1.075,1,,,,,,,,,,,,,,z,,,,,,,,,,,,,,,132,0,835.4292,836.5123,z,1,1.075,,[],[],[],[],[],[],[],836.5127,838.5119,838.512,838.5125,[],[],[],[],[],[],[],,838.5125,838.5128,-0.124736466,-0.376776727,0,0,0,,0,131,131,24,1,3,RL,quafidy,print,quafidy_p.png,,,,,
,,,,31980,001,2025-11-08_18h10.12.114,HW_LDT_1,2024.2.4,MacIntel,60.24096386,,,,,,,,,,,,,,,,,,,,838.5152,838.7119,838.712,839.2119,,,,,,,,,,,,,,0.7889,1,,,,,,,,,,,,,,z,,,,,,,,,,,,,,,133,1,839.213,840.0121,z,1,0.7889,,[],[],[],[],[],[],[],840.0121,842.0119,842.0119,843.7115,[],[],[],[],[],[],[],z,843.7115,843.7116,-0.124736466,-0.376776727,0,0,0,,0,132,132,22,1,3,RL,procogal,print,procogal_p.png,1.6873,,,,
,,,,31980,001,2025-11-08_18h10.12.114,HW_LDT_1,2024.2.4,MacIntel,60.24096386,,,,,,,,,,,,,,,,,,,,843.712,843.9114,843.9114,844.4118,,,,,,,,,,,,,,0.8877,1,,,,,,,,,,,,,,z,,,,,,,,,,,,,,,134,1,844.4125,845.3119,z,1,0.8877,,[],[],[],[],[],[],[],845.312,847.3117,847.3118,848.2951,[],[],[],[],[],[],[],m,848.2952,848.2953,-0.124736466,-0.376776727,0,0,0,,0,133,133,7,1,3,RL,cobeny,print,cobeny_p.png,0.9822,,,,
,,,,31980,001,2025-11-08_18h10.12.114,HW_LDT_1,2024.2.4,MacIntel,60.24096386,,,,,,,,,,,,,,,,,,,,848.2962,848.4952,848.4953,848.9951,,,,,,,,,,,,,,2.5541,1,,,,,,,,,,,,,,m,,,,,,,,,,,,,,,135,0,848.9959,851.5619,m,1,2.5541,,[],[],[],[],[],[],[],851.562,853.5617,853.5618,853.562,[],[],[],[],[],[],[],,853.562,853.5621,-0.124736466,-0.376776727,0,0,0,,0,134,134,103,1,3,word,DISPUTE,print,dispute_p.png,,,,,
,,,,31980,001,2025-11-08_18h10.12.114,HW_LDT_1,2024.2.4,MacIntel,60.24096386,,,,,,,,,,,,,,,,,,,,853.5635,853.7616,853.7617,854.2617,,,,,,,,,,,,,,1.2033,1,,,,,,,,,,,,,,z,,,,,,,,,,,,,,,136,0,854.2623,855.4784,z,1,1.2033,,[],[],[],[],[],[],[],855.4785,857.4783,857.4783,857.4785,[],[],[],[],[],[],[],,857.4785,857.4787,-0.124736466,-0.376776727,0,0,0,,0,135,135,58,1,3,TL,nuremical,print,nuremical_p.png,,,,,
,,,,31980,001,2025-11-08_18h10.12.114,HW_LDT_1,2024.2.4,MacIntel,60.24096386,,,,,,,,,,,,,,,,,,,,857.4798,857.6783,857.6784,858.1783,,,,,,,,,,,,,,1.3544,1,,,,,,,,,,,,,,z,,,,,,,,,,,,,,,137,0,858.1788,859.5449,z,1,1.3544,,[],[],[],[],[],[],[],859.545,861.544,861.5441,861.5442,[],[],[],[],[],[],[],,861.5442,861.5443,-0.124736466,-0.376776727,0,0,0,,0,136,136,57,1,3,TL,moredate,cursive,moredate_c.png,,,,,
,,,,31980,001,2025-11-08_18h10.12.114,HW_LDT_1,2024.2.4,MacIntel,60.24096386,,,,,,,,,,,,,,,,,,,,861.5453,861.7447,861.7447,862.2449,,,,,,,,,,,,,,2.1716,1,,,,,,,,,,,,,,m,,,,,,,,,,,,,,,138,0,862.2455,864.4283,m,1,2.1716,,[],[],[],[],[],[],[],864.4283,866.4281,866.4282,866.4283,[],[],[],[],[],[],[],,866.4284,866.4285,-0.124736466,-0.376776727,0,0,0,,0,137,137,152,1,3,word,SPECIMEN,print,specimen_p.png,,,,,
,,,,31980,001,2025-11-08_18h10.12.114,HW_LDT_1,2024.2.4,MacIntel,60.24096386,,,,,,,,,,,,,,,,,,,,866.4297,866.6281,866.6282,867.1281,,,,,,,,,,,,,,2.2085,0,,,,,,,,,,,,,,m,,,,,,,,,,,,,,,139,1,867.1286,869.3448,z,0,2.2085,,[],[],[],[],[],[],[],869.3449,871.3447,871.3448,872.9947,[],[],[],[],[],[],[],z,872.9948,872.9948,-0.124736466,-0.376776727,0,0,0,,0,138,138,90,1,3,word,CAPITAL,cursive,capital_c.png,1.6492,,,,
,,,,31980,001,2025-11-08_18h10.12.114,HW_LDT_1,2024.2.4,MacIntel,60.24096386,,,,,,,,,,,,,,,,,,,,872.9958,873.1948,873.1948,873.6948,,,,,,,,,,,,,,12.1971,0,,,,,,,,,,,,,,m,,,,,,,,,,,,,,,140,0,873.6951,885.8943,z,0,12.1971,,[],[],[],[],[],[],[],885.8943,887.8939,887.894,887.8941,[],[],[],[],[],[],[],,887.8941,887.8943,-0.124443179,-0.367302265,0,0,0,,0,139,139,117,1,3,word,MARINE,cursive,marine_c.png,,,,,
,,,,31980,001,2025-11-08_18h10.12.114,HW_LDT_1,2024.2.4,MacIntel,60.24096386,,,,,,,,,,,,,,,,,,,,887.8954,888.0945,888.0945,888.5945,,,,,,,,,,,,,,1.0898,1,,,,,,,,,,,,,,m,,,,,,,,,,,,,,,141,0,888.5951,889.6945,m,1,1.0898,,[],[],[],[],[],[],[],889.6947,891.6945,891.6945,891.6947,[],[],[],[],[],[],[],,891.6947,891.6948,-0.124443179,-0.367553047,0,0,0,,0,140,140,156,1,3,word,TRIBUTE,print,tribute_p.png,,,,,
,,,,31980,001,2025-11-08_18h10.12.114,HW_LDT_1,2024.2.4,MacIntel,60.24096386,,,,,,,,,,,,,,,,,,,,891.6959,891.8944,891.8945,892.3945,,,,,,,,,,,,,,2.315,1,,,,,,,,,,,,,,m,,,,,,,,,,,,,,,142,1,892.3951,894.711,m,1,2.315,,[],[],[],[],[],[],[],894.7111,896.7105,896.7106,898.2443,[],[],[],[],[],[],[],m,898.2443,898.2445,-0.124443179,-0.367553047,0,0,0,,0,141,141,106,1,3,word,ELABORATE,print,elaborate_p.png,1.5312,,,,
,,,,31980,001,2025-11-08_18h10.12.114,HW_LDT_1,2024.2.4,MacIntel,60.24096386,,,,,,,,,,,,,,,,,,,,898.2452,898.4443,898.4443,898.9444,,,,,,,,,,,,,,0.9541,1,,,,,,,,,,,,,,z,,,,,,,,,,,,,,,143,0,898.945,899.9111,z,1,0.9541,,[],[],[],[],[],[],[],899.9112,901.911,901.911,901.9112,[],[],[],[],[],[],[],,901.9112,901.9113,-0.124443179,-0.367553047,0,0,0,,0,142,142,8,1,3,RL,cocewage,print,cocewage_p.png,,,,,
,,,,31980,001,2025-11-08_18h10.12.114,HW_LDT_1,2024.2.4,MacIntel,60.24096386,,,,,,,,,,,,,,,,,,,,901.9125,902.111,902.111,902.611,,,,,,,,,,,,,,2.1205,0,,,,,,,,,,,,,,m,,,,,,,,,,,,,,,144,0,902.6116,904.7447,z,0,2.1205,,[],[],[],[],[],[],[],904.745,906.7442,906.7443,906.7449,[],[],[],[],[],[],[],,906.7449,906.7452,-0.124443179,-0.367553047,0,0,0,,0,143,143,109,1,3,word,GRATEFUL,cursive,grateful_c.png,,,,,
,,,,31980,001,2025-11-08_18h10.12.114,HW_LDT_1,2024.2.4,MacIntel,60.24096386,,,,,,,,,,,,,,,,,,,,906.7476,906.9443,906.9444,907.4442,,,,,,,,,,,,,,1.3868,1,,,,,,,,,,,,,,z,,,,,,,,,,,,,,,145,0,907.4459,908.8444,z,1,1.3868,,[],[],[],[],[],[],[],908.8445,910.8442,910.8443,910.8445,[],[],[],[],[],[],[],,910.8445,910.8446,-0.124443179,-0.368309644,0,0,0,,0,144,144,19,1,3,RL,opcifal,cursive,opcifal_c.png,,,,,
,,,,31980,001,2025-11-08_18h10.12.114,HW_LDT_1,2024.2.4,MacIntel,60.24096386,,,,,,,,,,,,,,,,,,,,910.8457,911.0441,911.0441,911.544,,,,,,,,,,,,,,3.1987,1,,,,,,,,,,,,,,z,,,,,,,,,,,,,,,146,0,911.5446,914.7445,z,1,3.1987,,[],[],[],[],[],[],[],914.7446,916.7441,916.7442,916.7444,[],[],[],[],[],[],[],,916.7444,916.7445,-0.124443179,-0.368309644,0,0,0,,0,145,145,17,1,3,RL,motide,cursive,motide_c.png,,,,,
,,,,31980,001,2025-11-08_18h10.12.114,HW_LDT_1,2024.2.4,MacIntel,60.24096386,,,,,,,,,,,,,,,,,,,,916.7457,916.9441,916.9442,917.4441,,,,,,,,,,,,,,1.0708,1,,,,,,,,,,,,,,m,,,,,,,,,,,,,,,147,0,917.4447,918.5275,m,1,1.0708,,[],[],[],[],[],[],[],918.5275,920.5273,920.5275,920.5276,[],[],[],[],[],[],[],,920.5276,920.5277,-0.124443179,-0.368309644,0,0,0,,0,146,146,102,1,3,word,DENSITY,print,density_p.png,,,,,
,,,,31980,001,2025-11-08_18h10.12.114,HW_LDT_1,2024.2.4,MacIntel,60.24096386,,,,,,,,,,,,,,,,,,,,920.5289,920.7275,920.7275,921.2275,,,,,,,,,,,,,,1.8207,1,,,,,,,,,,,,,,z,,,,,,,,,,,,,,,148,1,921.228,923.0607,z,1,1.8207,,[],[],[],[],[],[],[],923.0608,925.0606,925.0606,927.3105,[],[],[],[],[],[],[],m,927.3106,927.3107,-0.124443179,-0.368309644,0,0,0,,0,147,147,10,1,3,RL,efibor,print,efibor_p.png,2.2477,,,,
,,,,31980,001,2025-11-08_18h10.12.114,HW_LDT_1,2024.2.4,MacIntel,60.24096386,,,,,,,,,,,,,,,,,,,,927.3116,927.5106,927.5107,928.0106,,,,,,,,,,,,,,0.7802,0,,,,,,,,,,,,,,m,,,,,,,,,,,,,,,149,0,928.0112,928.7932,z,0,0.7802,,[],[],[],[],[],[],[],928.7933,930.7939,930.7939,930.794,[],[],[],[],[],[],[],,930.794,930.7941,-0.124443179,-0.368309644,0,0,0,,0,148,148,110,1,3,word,HERITAGE,cursive,heritage_c.png,,,,,
,,,,31980,001,2025-11-08_18h10.12.114,HW_LDT_1,2024.2.4,MacIntel,60.24096386,,,,,,,,,,,,,,,,,,,,930.7951,930.994,930.9941,931.4938,,,,,,,,,,,,,,1.657,0,,,,,,,,,,,,,,m,,,,,,,,,,,,,,,150,0,931.4945,933.1607,z,0,1.657,,[],[],[],[],[],[],[],933.1608,935.1605,935.1605,935.1607,[],[],[],[],[],[],[],,935.1608,935.1608,-0.124443179,-0.368309644,0,0,0,,0,149,149,149,1,3,word,SENATOR,cursive,senator_c.png,,,,,
,,,,31980,001,2025-11-08_18h10.12.114,HW_LDT_1,2024.2.4,MacIntel,60.24096386,,,,,,,,,,,,,,,,,,,,935.162,935.3605,935.3606,935.8605,,,,,,,,,,,,,,2.0714,1,,,,,,,,,,,,,,m,,,,,,,,,,,,,,,151,0,935.861,937.944,m,1,2.0714,,[],[],[],[],[],[],[],937.944,939.9439,939.9439,939.9441,[],[],[],[],[],[],[],,939.9441,939.9443,-0.124443179,-0.368309644,0,0,0,,0,150,150,141,1,3,word,RELIGION,print,religion_p.png,,,,,
,,,,31980,001,2025-11-08_18h10.12.114,HW_LDT_1,2024.2.4,MacIntel,60.24096386,,,,,,,,,,,,,,,,,,,,939.9455,940.1437,940.1437,940.6439,,,,,,,,,,,,,,1.0489,1,,,,,,,,,,,,,,z,,,,,,,,,,,,,,,152,0,940.6444,941.6942,z,1,1.0489,,[],[],[],[],[],[],[],941.6943,943.6937,943.6939,943.694,[],[],[],[],[],[],[],,943.694,943.6943,-0.124443179,-0.368309644,0,0,0,,0,151,151,27,1,3,RL,recile,print,recile_p.png,,,,,
,,,,31980,001,2025-11-08_18h10.12.114,HW_LDT_1,2024.2.4,MacIntel,60.24096386,,,,,,,,,,,,,,,,,,,,943.6954,943.8937,943.8938,944.3937,,,,,,,,,,,,,,1.5877,1,,,,,,,,,,,,,,z,,,,,,,,,,,,,,,153,0,944.3942,945.9938,z,1,1.5877,,[],[],[],[],[],[],[],945.9939,947.9936,947.9937,947.9938,[],[],[],[],[],[],[],,947.9939,947.994,-0.124443179,-0.368309644,0,0,0,,0,152,152,69,1,3,TL,redisent,cursive,redisent_c.png,,,,,
,,,,31980,001,2025-11-08_18h10.12.114,HW_LDT_1,2024.2.4,MacIntel,60.24096386,,,,,,,,,,,,,,,,,,,,947.995,948.1937,948.1937,948.6936,,,,,,,,,,,,,,1.4156,1,,,,,,,,,,,,,,z,,,,,,,,,,,,,,,154,1,948.6942,950.1107,z,1,1.4156,,[],[],[],[],[],[],[],950.1108,952.1103,952.1103,953.4769,[],[],[],[],[],[],[],m,953.4771,953.4772,-0.124443179,-0.368309644,0,0,0,,0,153,153,60,1,3,TL,panert,print,panert_p.png,1.3556,,,,
,,,,31980,001,2025-11-08_18h10.12.114,HW_LDT_1,2024.2.4,MacIntel,60.24096386,,,,,,,,,,,,,,,,,,,,953.4783,953.6769,953.677,954.177,,,,,,,,,,,,,,0.9211,1,,,,,,,,,,,,,,z,,,,,,,,,,,,,,,155,0,954.1774,955.1104,z,1,0.9211,,[],[],[],[],[],[],[],955.1105,957.1102,957.1102,957.1104,[],[],[],[],[],[],[],,957.1104,957.1105,-0.124443179,-0.368309644,0,0,0,,0,154,154,70,1,3,TL,remuse,cursive,remuse_c.png,,,,,
,,,,31980,001,2025-11-08_18h10.12.114,HW_LDT_1,2024.2.4,MacIntel,60.24096386,,,,,,,,,,,,,,,,,,,,957.1115,957.3092,957.3093,957.8101,,,,,,,,,,,,,,2.205,1,,,,,,,,,,,,,,m,,,,,,,,,,,,,,,156,1,957.8107,960.0269,m,1,2.205,,[],[],[],[],[],[],[],960.027,962.0267,962.0269,963.8422,[],[],[],[],[],[],[],m,963.8422,963.8422,-0.124443179,-0.368309644,0,0,0,,0,155,155,94,1,3,word,CLINICAL,print,clinical_p.png,1.814,,,,
,,,,31980,001,2025-11-08_18h10.12.114,HW_LDT_1,2024.2.4,MacIntel,60.24096386,,,,,,,,,,,,,,,,,,,,963.8428,964.042,964.042,964.5424,,,,,,,,,,,,,,1.1726,1,,,,,,,,,,,,,,z,,,,,,,,,,,,,,,157,0,964.543,965.7259,z,1,1.1726,,[],[],[],[],[],[],[],965.726,967.7263,967.7264,967.7265,[],[],[],[],[],[],[],,967.7265,967.7265,-0.124443179,-0.368309644,0,0,0,,0,156,156,9,1,3,RL,docirant,print,docirant_p.png,,,,,
,,,,31980,001,2025-11-08_18h10.12.114,HW_LDT_1,2024.2.4,MacIntel,60.24096386,,,,,,,,,,,,,,,,,,,,967.7271,967.9267,967.9267,968.4266,,,,,,,,,,,,,,1.3544,1,,,,,,,,,,,,,,m,,,,,,,,,,,,,,,158,0,968.4273,969.7934,m,1,1.3544,,[],[],[],[],[],[],[],969.7935,971.7923,971.7924,971.7926,[],[],[],[],[],[],[],,971.7926,971.7927,-0.124443179,-0.368309644,0,0,0,,0,157,157,139,1,3,word,REGULAR,print,regular_p.png,,,,,
,,,,31980,001,2025-11-08_18h10.12.114,HW_LDT_1,2024.2.4,MacIntel,60.24096386,,,,,,,,,,,,,,,,,,,,971.7939,971.9925,971.9926,972.4933,,,,,,,,,,,,,,3.6931,0,,,,,,,,,,,,,,m,,,,,,,,,,,,,,,159,0,972.4939,976.1932,z,0,3.6931,,[],[],[],[],[],[],[],976.1933,978.1935,978.1936,978.1937,[],[],[],[],[],[],[],,978.1939,978.1939,-0.124443179,-0.370375408,0,0,0,,0,158,158,93,1,3,word,CEREMONY,cursive,ceremony_c.png,,,,,
,,,,31980,001,2025-11-08_18h10.12.114,HW_LDT_1,2024.2.4,MacIntel,60.24096386,,,,,,,,,,,,,,,,,,,,978.1951,978.3926,978.3927,978.8932,,,,,,,,,,,,,,3.771,1,,,,,,,,,,,,,,z,,,,,,,,,,,,,,,160,0,978.894,982.6759,z,1,3.771,,[],[],[],[],[],[],[],982.676,984.6764,984.6764,984.6766,[],[],[],[],[],[],[],,984.6766,984.6768,-0.127146525,-0.363276999,0,0,0,,0,159,159,68,1,3,TL,revomal,cursive,revomal_c.png,,,,,
,,,,31980,001,2025-11-08_18h10.12.114,HW_LDT_1,2024.2.4,MacIntel,60.24096386,,,,,,,,,,,,,,,,,,,,,,,,,,,,,,,,,,,,,,,,,,,,,,,,,,,,,,,,,,,,,,,,,,,,,,,,,,,,,,,,,,,,,,,,,,,,,,,,,,,,,,,,,,,,,,,,,,,984.6859,989.6767
