counterbalance_lists.group,counterbalance_lists.remaining,get_list.started,get_list.stopped,participant,session,date,expName,psychopyVersion,OS,frameRate,Instructions.started,Instructions.stopped,key_resp.keys,instr_done_touch.x,instr_done_touch.y,instr_done_touch.leftButton,instr_done_touch.midButton,instr_done_touch.rightButton,instr_done_touch.clicked_name,start_instr.thisRepN,start_instr.thisTrialN,start_instr.thisN,start_instr.thisIndex,start_instr.ran,pageN,phase,instruct_text,has_image,instruct_image,key_resp.rt,key_resp.duration,showProgress.started,showProgress.stopped,fix.started,fix.stopped,prac.started,prac.stopped,response.keys,response.corr,response.rt,response.duration,touch_resp.x,touch_resp.y,touch_resp.leftButton,touch_resp.midButton,touch_resp.rightButton,touch_resp.time,touch_resp.clicked_name,rt,corr,feedback.started,feedback.stopped,trials.thisRepN,trials.thisTrialN,trials.thisN,trials.thisIndex,trials.ran,TrialID,StimulusType,Condition,PrimeDuration,Prime,Target,corrAns,Instructions_expt.started,Instructions_expt.stopped,key_resp_3.keys,instr_done_touch_3.x,instr_done_touch_3.y,instr_done_touch_3.leftButton,instr_done_touch_3.midButton,instr_done_touch_3.rightButton,instr_done_touch_3.clicked_name,instr_experiment.thisRepN,instr_experiment.thisTrialN,instr_experiment.thisN,instr_experiment.thisIndex,instr_experiment.ran,trialID,flag,maintask.started,maintask.stopped,key_resp_2.keys,key_resp_2.corr,key_resp_2.rt,key_resp_2.duration,targ_click.x,targ_click.y,targ_click.leftButton,targ_click.midButton,targ_click.rightButton,targ_click.time,targ_click.clicked_name,ITI.started,ITI.stopped,probe.started,probe.stopped,click_probe.x,click_probe.y,click_probe.leftButton,click_probe.midButton,click_probe.rightButton,click_probe.time,click_probe.clicked_name,key_resp_probe.keys,Break.started,Break.stopped,break_done_touch.x,break_done_touch.y,break_done_touch.leftButton,break_done_touch.midButton,break_done_touch.rightButton,break_done_keyboard.keys,list3_trials.thisRepN,list3_trials.thisTrialN,list3_trials.thisN,list3_trials.thisIndex,list3_trials.ran,list_id,item_type,string,font,stim_file,key_resp_probe.rt,key_resp_probe.duration,break_done_keyboard.rt,break_done_keyboard.duration,End.started,End.stopped
list3,,0.4687,0.4689,31988,001,2025-10-16_12h01.06.365,HW_LDT_1,2024.2.4,Win32,60.24096386,,,,,,,,,,,,,,,,,,,,,,,,,,,,,,,,,,,,,,,,,,,,,,,,,,,,,,,,,,,,,,,,,,,,,,,,,,,,,,,,,,,,,,,,,,,,,,,,,,,,,,,,,,,,,,,,,,,,,,,
,,,,31988,001,2025-10-16_12h01.06.365,HW_LDT_1,2024.2.4,Win32,60.24096386,0.5069,34.2922,,0.0975,-0.386666718,1,0,0,instr_done_button,0,0,0,0,1,1,instructions,"INSTRUCTIONS
At the start of each trial, look at the plus sign  (+) in the center of the screen.  This tells you that a trial is about to begin and where to look. Second, the plus sign will disappear and a string of letters will appear. Your task is to determine if the string of letters is a word or not. If the item is a word press the M key (on keyboard)  or touch the word button (phone/tablet).  If the item is not a word,  press the  Z key (on keyboard)  or touch the nonword button (on phone/tablet). The items will be presented for a short time. 
Press the space bar or touch  continue.",0,,,,,,,,,,,,,,,,,,,,,,,,,,,,,,,,,,,,,,,,,,,,,,,,,,,,,,,,,,,,,,,,,,,,,,,,,,,,,,,,,,,,,,,,,,,,,,,,,,,,,
,,,,31988,001,2025-10-16_12h01.06.365,HW_LDT_1,2024.2.4,Win32,60.24096386,34.2956,40.4485,space,0.0975,-0.386666718,0,0,0,,0,1,1,1,1,2,instructions,"If your device has a keyboard, press the 'Z' key for nonwords and the 'M' key for words.





Press the space bar or touch the button below to continue.",0,keyboard-example.gif,6.1183,,,,,,,,,,,,,,,,,,,,,,,,,,,,,,,,,,,,,,,,,,,,,,,,,,,,,,,,,,,,,,,,,,,,,,,,,,,,,,,,,,,,,,,,,,,,,,,,,,,
,,,,31988,001,2025-10-16_12h01.06.365,HW_LDT_1,2024.2.4,Win32,60.24096386,40.4517,44.5062,space,0.0975,-0.386666718,0,0,0,,0,2,2,2,1,3,instructions,"If you are using a touchscreen only device, use the buttons on the screen. Do not use the mouse.





Press the space bar or touch the button below to continue.",0,touchscreen-example.gif,4.0272,,,,,,,,,,,,,,,,,,,,,,,,,,,,,,,,,,,,,,,,,,,,,,,,,,,,,,,,,,,,,,,,,,,,,,,,,,,,,,,,,,,,,,,,,,,,,,,,,,,
,,,,31988,001,2025-10-16_12h01.06.365,HW_LDT_1,2024.2.4,Win32,60.24096386,44.5111,67.0412,,0.060833359,-0.391666718,1,0,0,instr_done_button,0,3,3,3,1,4,instructions,"It is very important that you respond as quickly and accurately as possible, as each letter string will only be on the screen for two seconds. If you do not respond within this time, the message 'Too slow!' will be displayed and the experiment will progress to the next letter string. The first 20 trials will be practice trials and you will receive feedback on your answers. 

Press the space bar or touch the button below to start the practice trials.",0,,,,,,,,,,,,,,,,,,,,,,,,,,,,,,,,,,,,,,,,,,,,,,,,,,,,,,,,,,,,,,,,,,,,,,,,,,,,,,,,,,,,,,,,,,,,,,,,,,,,,
,,,,31988,001,2025-10-16_12h01.06.365,HW_LDT_1,2024.2.4,Win32,60.24096386,,,,,,,,,,,,,,,,,,,,,,67.0672,67.2374,67.2378,67.7408,67.7414,70.3892,z,1,2.6112,,[],[],[],[],[],[],[],2.6112,1,70.39,70.8878,0,0,0,12,1,1013,NW,UN,33,adveil,SPRINY,z,,,,,,,,,,,,,,,,,,,,,,,,,,,,,,,,,,,,,,,,,,,,,,,,,,,,,,,,,,,,,,,,,
,,,,31988,001,2025-10-16_12h01.06.365,HW_LDT_1,2024.2.4,Win32,60.24096386,,,,,,,,,,,,,,,,,,,,,,70.8913,71.0873,71.0874,71.5873,71.5912,72.8756,z,1,1.2656,,[],[],[],[],[],[],[],1.2656,1,72.8759,73.3708,0,1,1,8,1,1009,NW,"ID",33,aslert,ASLERT,z,,,,,,,,,,,,,,,,,,,,,,,,,,,,,,,,,,,,,,,,,,,,,,,,,,,,,,,,,,,,,,,,,
,,,,31988,001,2025-10-16_12h01.06.365,HW_LDT_1,2024.2.4,Win32,60.24096386,,,,,,,,,,,,,,,,,,,,,,73.3744,73.5706,73.5707,74.0705,74.0728,75.2542,z,1,1.1526,,[],[],[],[],[],[],[],1.1526,1,75.2545,75.7545,0,2,2,13,1,1014,NW,UN,33,winfer,ROUPET,z,,,,,,,,,,,,,,,,,,,,,,,,,,,,,,,,,,,,,,,,,,,,,,,,,,,,,,,,,,,,,,,,,
,,,,31988,001,2025-10-16_12h01.06.365,HW_LDT_1,2024.2.4,Win32,60.24096386,,,,,,,,,,,,,,,,,,,,,,75.7575,75.9531,75.9532,76.4594,76.4618,77.1372,m,1,0.6557,,[],[],[],[],[],[],[],0.6557,1,77.1374,77.6426,0,3,3,3,1,1004,WORD,"ID",16,matrix,MATRIX,m,,,,,,,,,,,,,,,,,,,,,,,,,,,,,,,,,,,,,,,,,,,,,,,,,,,,,,,,,,,,,,,,,
,,,,31988,001,2025-10-16_12h01.06.365,HW_LDT_1,2024.2.4,Win32,60.24096386,,,,,,,,,,,,,,,,,,,,,,77.645,77.8425,77.8425,78.3375,78.3401,79.3087,z,1,0.9492,,[],[],[],[],[],[],[],0.9492,1,79.309,79.8069,0,4,4,11,1,1012,NW,"ID",16,rashet,RASHET,z,,,,,,,,,,,,,,,,,,,,,,,,,,,,,,,,,,,,,,,,,,,,,,,,,,,,,,,,,,,,,,,,,
,,,,31988,001,2025-10-16_12h01.06.365,HW_LDT_1,2024.2.4,Win32,60.24096386,,,,,,,,,,,,,,,,,,,,,,79.8092,80.0032,80.0033,80.5032,80.5052,81.1605,m,1,0.6337,,[],[],[],[],[],[],[],0.6337,1,81.1609,81.6579,0,5,5,7,1,1008,WORD,UN,16,hurdle,VOLUME,m,,,,,,,,,,,,,,,,,,,,,,,,,,,,,,,,,,,,,,,,,,,,,,,,,,,,,,,,,,,,,,,,,
,,,,31988,001,2025-10-16_12h01.06.365,HW_LDT_1,2024.2.4,Win32,60.24096386,,,,,,,,,,,,,,,,,,,,,,81.6604,81.8539,81.854,82.3538,82.3553,83.1209,z,1,0.7415,,[],[],[],[],[],[],[],0.7415,1,83.1214,83.6201,0,6,6,14,1,1015,NW,UN,16,miaber,THRALE,z,,,,,,,,,,,,,,,,,,,,,,,,,,,,,,,,,,,,,,,,,,,,,,,,,,,,,,,,,,,,,,,,,
,,,,31988,001,2025-10-16_12h01.06.365,HW_LDT_1,2024.2.4,Win32,60.24096386,,,,,,,,,,,,,,,,,,,,,,83.6231,83.8201,83.8202,84.3204,84.3232,84.9543,m,1,0.6043,,[],[],[],[],[],[],[],0.6043,1,84.9546,85.4531,0,7,7,4,1,1005,WORD,UN,33,abound,SQUEAK,m,,,,,,,,,,,,,,,,,,,,,,,,,,,,,,,,,,,,,,,,,,,,,,,,,,,,,,,,,,,,,,,,,
,,,,31988,001,2025-10-16_12h01.06.365,HW_LDT_1,2024.2.4,Win32,60.24096386,,,,,,,,,,,,,,,,,,,,,,85.4562,85.6529,85.653,86.1527,86.1545,86.9871,z,1,0.8067,,[],[],[],[],[],[],[],0.8067,1,86.9873,87.486,0,8,8,9,1,1010,NW,"ID",33,fariny,FARINY,z,,,,,,,,,,,,,,,,,,,,,,,,,,,,,,,,,,,,,,,,,,,,,,,,,,,,,,,,,,,,,,,,,
,,,,31988,001,2025-10-16_12h01.06.365,HW_LDT_1,2024.2.4,Win32,60.24096386,,,,,,,,,,,,,,,,,,,,,,87.4879,87.6856,87.6857,88.1869,88.189,89.2192,z,1,1.0094,,[],[],[],[],[],[],[],1.0094,1,89.2195,89.7193,0,9,9,15,1,1016,NW,UN,16,mushed,WHAISE,z,,,,,,,,,,,,,,,,,,,,,,,,,,,,,,,,,,,,,,,,,,,,,,,,,,,,,,,,,,,,,,,,,
,,,,31988,001,2025-10-16_12h01.06.365,HW_LDT_1,2024.2.4,Win32,60.24096386,,,,,,,,,,,,,,,,,,,,,,89.722,89.92,89.9201,90.4198,90.4216,91.1265,m,1,0.6842,,[],[],[],[],[],[],[],0.6842,1,91.1266,91.6251,0,10,10,2,1,1003,WORD,"ID",16,almond,ALMOND,m,,,,,,,,,,,,,,,,,,,,,,,,,,,,,,,,,,,,,,,,,,,,,,,,,,,,,,,,,,,,,,,,,
,,,,31988,001,2025-10-16_12h01.06.365,HW_LDT_1,2024.2.4,Win32,60.24096386,,,,,,,,,,,,,,,,,,,,,,91.6271,91.8235,91.8237,92.3193,92.3215,93.0246,m,1,0.6824,,[],[],[],[],[],[],[],0.6824,1,93.0248,93.524,0,11,11,5,1,1006,WORD,UN,33,frenzy,OBTAIN,m,,,,,,,,,,,,,,,,,,,,,,,,,,,,,,,,,,,,,,,,,,,,,,,,,,,,,,,,,,,,,,,,,
,,,,31988,001,2025-10-16_12h01.06.365,HW_LDT_1,2024.2.4,Win32,60.24096386,,,,,,,,,,,,,,,,,,,,,,93.5265,93.7229,93.723,94.2228,94.2242,94.9584,m,1,0.7183,,[],[],[],[],[],[],[],0.7183,1,94.9585,95.453,0,12,12,6,1,1007,WORD,UN,16,tropic,ZOMBIE,m,,,,,,,,,,,,,,,,,,,,,,,,,,,,,,,,,,,,,,,,,,,,,,,,,,,,,,,,,,,,,,,,,
,,,,31988,001,2025-10-16_12h01.06.365,HW_LDT_1,2024.2.4,Win32,60.24096386,,,,,,,,,,,,,,,,,,,,,,95.4562,95.6412,95.6413,96.1532,96.1551,96.9033,m,1,0.7209,,[],[],[],[],[],[],[],0.7209,1,96.9039,97.4064,0,13,13,0,1,1001,WORD,"ID",33,utopia,UTOPIA,m,,,,,,,,,,,,,,,,,,,,,,,,,,,,,,,,,,,,,,,,,,,,,,,,,,,,,,,,,,,,,,,,,
,,,,31988,001,2025-10-16_12h01.06.365,HW_LDT_1,2024.2.4,Win32,60.24096386,,,,,,,,,,,,,,,,,,,,,,97.4089,97.6077,97.6081,98.1075,98.1102,98.9769,z,1,0.8514,,[],[],[],[],[],[],[],0.8514,1,98.9771,99.4696,0,14,14,10,1,1011,NW,"ID",16,inlade,INLADE,z,,,,,,,,,,,,,,,,,,,,,,,,,,,,,,,,,,,,,,,,,,,,,,,,,,,,,,,,,,,,,,,,,
,,,,31988,001,2025-10-16_12h01.06.365,HW_LDT_1,2024.2.4,Win32,60.24096386,,,,,,,,,,,,,,,,,,,,,,99.4723,99.6584,99.6585,100.1738,100.1757,100.8195,m,1,0.6255,,[],[],[],[],[],[],[],0.6255,1,100.8197,101.3235,0,15,15,1,1,1002,WORD,"ID",33,adjust,ADJUST,m,,,,,,,,,,,,,,,,,,,,,,,,,,,,,,,,,,,,,,,,,,,,,,,,,,,,,,,,,,,,,,,,,
,,,,31988,001,2025-10-16_12h01.06.365,HW_LDT_1,2024.2.4,Win32,60.24096386,,,,,,,,,,,,,,,1,end_of_practice,"You have completed the practice trials. During the experimental trials, you will not receive feedback. On some trials you will be asked to report whether the item you just saw was in cursive or print. 
Before you begin, please ensure that you are in a comfortable and quiet location and will not be disturbed for about 15 minutes, as we cannot use your data if you do not complete all the trials. 
 When you are ready to start the experimental trials, please press space or touch the button below.",,,,,,,,,,,,,,,,,,,,,,,,,,,,,,,,,,,,,,101.3321,198.3869,,-0.001666641,-0.415833359,1,0,0,instr_done_button_3,0,0,0,0,1,,,,,,,,,,,,,,,,,,,,,,,,,,,,,,,,,,,,,,,,,,,,,,,,,,,
,,,,31988,001,2025-10-16_12h01.06.365,HW_LDT_1,2024.2.4,Win32,60.24096386,,,,,,,,,,,,,,,,,,,,,,198.4132,198.5809,198.581,199.0805,,,,,,,,,,,,,,2.4244,1,,,,,,,,,,,,,,m,,,,,,,,,,,,,,,1,0,199.0828,201.5147,m,1,2.4244,,[],[],[],[],[],[],[],201.515,203.5186,203.5189,203.5231,[],[],[],[],[],[],[],,203.5234,203.5308,-0.001666641,-0.415833359,0,0,0,,0,0,0,154,1,3,word,STORAGE,cursive,storage_c.png,,,,,,
,,,,31988,001,2025-10-16_12h01.06.365,HW_LDT_1,2024.2.4,Win32,60.24096386,,,,,,,,,,,,,,,,,,,,,,203.5326,203.734,203.7341,204.2315,,,,,,,,,,,,,,1.382,0,,,,,,,,,,,,,,z,,,,,,,,,,,,,,,2,0,204.2332,205.6181,m,0,1.382,,[],[],[],[],[],[],[],205.6183,207.6144,207.6144,207.6147,[],[],[],[],[],[],[],,207.6148,207.6149,-0.001666641,-0.415833359,0,0,0,,0,1,1,47,1,3,TL,elarobate,print,elarobate_p.png,,,,,,
,,,,31988,001,2025-10-16_12h01.06.365,HW_LDT_1,2024.2.4,Win32,60.24096386,,,,,,,,,,,,,,,,,,,,,,207.617,207.8176,207.8177,208.3165,,,,,,,,,,,,,,0.7244,1,,,,,,,,,,,,,,m,,,,,,,,,,,,,,,3,0,208.3173,209.0465,m,1,0.7244,,[],[],[],[],[],[],[],209.0466,211.0476,211.0477,211.0479,[],[],[],[],[],[],[],,211.0479,211.048,-0.001666641,-0.415833359,0,0,0,,0,2,2,133,1,3,word,PROVIDE,print,provide_p.png,,,,,,
,,,,31988,001,2025-10-16_12h01.06.365,HW_LDT_1,2024.2.4,Win32,60.24096386,,,,,,,,,,,,,,,,,,,,,,211.0506,211.2507,211.2508,211.7467,,,,,,,,,,,,,,0.6536,1,,,,,,,,,,,,,,m,,,,,,,,,,,,,,,4,0,211.7476,212.4133,m,1,0.6536,,[],[],[],[],[],[],[],212.4133,214.4173,214.4174,214.4175,[],[],[],[],[],[],[],,214.4176,214.4177,-0.001666641,-0.415833359,0,0,0,,0,3,3,155,1,3,word,STRATEGY,print,strategy_p.png,,,,,,
,,,,31988,001,2025-10-16_12h01.06.365,HW_LDT_1,2024.2.4,Win32,60.24096386,,,,,,,,,,,,,,,,,,,,,,214.4198,214.6138,214.6139,215.1172,,,,,,,,,,,,,,0.6497,1,,,,,,,,,,,,,,m,,,,,,,,,,,,,,,5,1,215.1199,215.7803,m,1,0.6497,,[],[],[],[],[],[],[],215.7808,217.7693,217.7695,220.1502,[],[],[],[],[],[],[],m,220.1503,220.1505,-0.001666641,-0.415833359,0,0,0,,0,4,4,82,1,3,word,AMATEUR,print,amateur_p.png,2.3796,,,,,
,,,,31988,001,2025-10-16_12h01.06.365,HW_LDT_1,2024.2.4,Win32,60.24096386,,,,,,,,,,,,,,,,,,,,,,220.1523,220.3462,220.3463,220.8465,,,,,,,,,,,,,,0.8127,1,,,,,,,,,,,,,,m,,,,,,,,,,,,,,,6,1,220.8477,221.6633,m,1,0.8127,,[],[],[],[],[],[],[],221.6635,223.6625,223.6625,225.5792,[],[],[],[],[],[],[],m,225.5794,225.5796,-0.001666641,-0.415833359,0,0,0,,0,5,5,95,1,3,word,COMEDY,print,comedy_p.png,1.9118,,,,,
,,,,31988,001,2025-10-16_12h01.06.365,HW_LDT_1,2024.2.4,Win32,60.24096386,,,,,,,,,,,,,,,,,,,,,,225.5815,225.78,225.7801,226.2848,,,,,,,,,,,,,,0.7738,0,,,,,,,,,,,,,,z,,,,,,,,,,,,,,,7,1,226.2855,227.0628,m,0,0.7738,,[],[],[],[],[],[],[],227.0629,229.0624,229.0624,230.584,[],[],[],[],[],[],[],m,230.584,230.5842,-0.001666641,-0.415833359,0,0,0,,0,6,6,39,1,3,TL,clicinal,print,clicinal_p.png,1.5205,,,,,
,,,,31988,001,2025-10-16_12h01.06.365,HW_LDT_1,2024.2.4,Win32,60.24096386,,,,,,,,,,,,,,,,,,,,,,230.5857,230.7789,230.7789,231.2795,,,,,,,,,,,,,,1.3068,0,,,,,,,,,,,,,,m,,,,,,,,,,,,,,,8,0,231.2803,232.5961,z,0,1.3068,,[],[],[],[],[],[],[],232.5962,234.5954,234.5955,234.5958,[],[],[],[],[],[],[],,234.5958,234.596,-0.001666641,-0.415833359,0,0,0,,0,7,7,114,1,3,word,LOCATE,cursive,locate_c.png,,,,,,
,,,,31988,001,2025-10-16_12h01.06.365,HW_LDT_1,2024.2.4,Win32,60.24096386,,,,,,,,,,,,,,,,,,,,,,234.5979,234.7955,234.7955,235.2847,,,,,,,,,,,,,,1.0645,1,,,,,,,,,,,,,,z,,,,,,,,,,,,,,,9,0,235.2854,236.352,z,1,1.0645,,[],[],[],[],[],[],[],236.3522,238.3456,238.3457,238.3459,[],[],[],[],[],[],[],,238.3459,238.346,-0.001666641,-0.415833359,0,0,0,,0,8,8,60,1,3,TL,panert,print,panert_p.png,,,,,,
,,,,31988,001,2025-10-16_12h01.06.365,HW_LDT_1,2024.2.4,Win32,60.24096386,,,,,,,,,,,,,,,,,,,,,,238.348,238.5449,238.5451,239.0452,,,,,,,,,,,,,,1.5693,1,,,,,,,,,,,,,,m,,,,,,,,,,,,,,,10,0,239.0461,240.6175,m,1,1.5693,,[],[],[],[],[],[],[],240.6177,242.6116,242.6117,242.6119,[],[],[],[],[],[],[],,242.6119,242.6122,-0.001666641,-0.415833359,0,0,0,,0,9,9,122,1,3,word,MOBILE,cursive,mobile_c.png,,,,,,
,,,,31988,001,2025-10-16_12h01.06.365,HW_LDT_1,2024.2.4,Win32,60.24096386,,,,,,,,,,,,,,,,,,,,,,242.6144,242.8123,242.8125,243.3156,,,,,,,,,,,,,,0.8332,1,,,,,,,,,,,,,,m,,,,,,,,,,,,,,,11,0,243.3168,244.1514,m,1,0.8332,,[],[],[],[],[],[],[],244.1515,246.1494,246.1495,246.1498,[],[],[],[],[],[],[],,246.15,246.1503,-0.001666641,-0.415833359,0,0,0,,0,10,10,138,1,3,word,REFUSAL,print,refusal_p.png,,,,,,
,,,,31988,001,2025-10-16_12h01.06.365,HW_LDT_1,2024.2.4,Win32,60.24096386,,,,,,,,,,,,,,,,,,,,,,246.1526,246.3501,246.3502,246.8457,,,,,,,,,,,,,,0.7605,1,,,,,,,,,,,,,,m,,,,,,,,,,,,,,,12,0,246.8466,247.6128,m,1,0.7605,,[],[],[],[],[],[],[],247.613,249.6136,249.6137,249.6139,[],[],[],[],[],[],[],,249.6141,249.6145,-0.001666641,-0.415833359,0,0,0,,0,11,11,116,1,3,word,MARGINAL,print,marginal_p.png,,,,,,
,,,,31988,001,2025-10-16_12h01.06.365,HW_LDT_1,2024.2.4,Win32,60.24096386,,,,,,,,,,,,,,,,,,,,,,249.6164,249.8116,249.8117,250.3127,,,,,,,,,,,,,,1.1679,1,,,,,,,,,,,,,,z,,,,,,,,,,,,,,,13,0,250.3137,251.4837,z,1,1.1679,,[],[],[],[],[],[],[],251.4838,253.478,253.478,253.4783,[],[],[],[],[],[],[],,253.4783,253.479,-0.001666641,-0.415833359,0,0,0,,0,12,12,58,1,3,TL,nuremical,print,nuremical_p.png,,,,,,
,,,,31988,001,2025-10-16_12h01.06.365,HW_LDT_1,2024.2.4,Win32,60.24096386,,,,,,,,,,,,,,,,,,,,,,253.4806,253.6787,253.6788,254.1817,,,,,,,,,,,,,,2.3799,1,,,,,,,,,,,,,,z,,,,,,,,,,,,,,,14,0,254.1825,256.564,z,1,2.3799,,[],[],[],[],[],[],[],256.5641,258.5608,258.561,258.5613,[],[],[],[],[],[],[],,258.5613,258.5616,-0.001666641,-0.415833359,0,0,0,,0,13,13,63,1,3,TL,racidal,cursive,racidal_c.png,,,,,,
,,,,31988,001,2025-10-16_12h01.06.365,HW_LDT_1,2024.2.4,Win32,60.24096386,,,,,,,,,,,,,,,,,,,,,,258.5633,258.7618,258.7618,259.2612,,,,,,,,,,,,,,1.0876,1,,,,,,,,,,,,,,z,,,,,,,,,,,,,,,15,0,259.2627,260.352,z,1,1.0876,,[],[],[],[],[],[],[],260.3521,262.3452,262.3453,262.3455,[],[],[],[],[],[],[],,262.3455,262.3457,-0.001666641,-0.415833359,0,0,0,,0,14,14,56,1,3,TL,meromy,print,meromy_p.png,,,,,,
,,,,31988,001,2025-10-16_12h01.06.365,HW_LDT_1,2024.2.4,Win32,60.24096386,,,,,,,,,,,,,,,,,,,,,,262.348,262.5447,262.5448,263.044,,,,,,,,,,,,,,1.751,1,,,,,,,,,,,,,,z,,,,,,,,,,,,,,,16,0,263.0446,264.7981,z,1,1.751,,[],[],[],[],[],[],[],264.7982,266.794,266.794,266.7943,[],[],[],[],[],[],[],,266.7943,266.7944,-0.001666641,-0.415833359,0,0,0,,0,15,15,44,1,3,TL,decilate,print,decilate_p.png,,,,,,
,,,,31988,001,2025-10-16_12h01.06.365,HW_LDT_1,2024.2.4,Win32,60.24096386,,,,,,,,,,,,,,,,,,,,,,266.7968,266.9986,266.9988,267.4988,,,,,,,,,,,,,,2.297,1,,,,,,,,,,,,,,z,,,,,,,,,,,,,,,17,0,267.4997,269.7986,z,1,2.297,,[],[],[],[],[],[],[],269.7987,271.7938,271.794,271.7949,[],[],[],[],[],[],[],,271.795,271.7951,-0.001666641,-0.415833359,0,0,0,,0,16,16,11,1,3,RL,ebiwent,cursive,ebiwent_c.png,,,,,,
,,,,31988,001,2025-10-16_12h01.06.365,HW_LDT_1,2024.2.4,Win32,60.24096386,,,,,,,,,,,,,,,,,,,,,,271.7971,271.9973,271.9976,272.4976,,,,,,,,,,,,,,0.6713,1,,,,,,,,,,,,,,m,,,,,,,,,,,,,,,18,0,272.4982,273.1782,m,1,0.6713,,[],[],[],[],[],[],[],273.1782,275.178,275.178,275.1782,[],[],[],[],[],[],[],,275.1783,275.1784,-0.001666641,-0.415833359,0,0,0,,0,17,17,129,1,3,word,PARENT,print,parent_p.png,,,,,,
,,,,31988,001,2025-10-16_12h01.06.365,HW_LDT_1,2024.2.4,Win32,60.24096386,,,,,,,,,,,,,,,,,,,,,,275.1809,275.3768,275.377,275.877,,,,,,,,,,,,,,0.7374,1,,,,,,,,,,,,,,m,,,,,,,,,,,,,,,19,0,275.8786,276.6175,m,1,0.7374,,[],[],[],[],[],[],[],276.6176,278.61,278.6101,278.6102,[],[],[],[],[],[],[],,278.6103,278.6109,-0.001666641,-0.415833359,0,0,0,,0,18,18,103,1,3,word,DISPUTE,print,dispute_p.png,,,,,,
,,,,31988,001,2025-10-16_12h01.06.365,HW_LDT_1,2024.2.4,Win32,60.24096386,,,,,,,,,,,,,,,,,,,,,,278.6132,278.8108,278.8109,279.3145,,,,,,,,,,,,,,1.6542,1,,,,,,,,,,,,,,m,,,,,,,,,,,,,,,20,0,279.3153,280.9769,m,1,1.6542,,[],[],[],[],[],[],[],280.977,282.9763,282.9766,282.977,[],[],[],[],[],[],[],,282.9771,282.9773,-0.001666641,-0.415833359,0,0,0,,0,19,19,147,1,3,word,ROMANTIC,cursive,romantic_c.png,,,,,,
,,,,31988,001,2025-10-16_12h01.06.365,HW_LDT_1,2024.2.4,Win32,60.24096386,,,,,,,,,,,,,,,,,,,,,,282.9794,283.1796,283.1797,283.6807,,,,,,,,,,,,,,2.0694,1,,,,,,,,,,,,,,z,,,,,,,,,,,,,,,21,0,283.6813,285.7609,z,1,2.0694,,[],[],[],[],[],[],[],285.761,287.7607,287.7607,287.7616,[],[],[],[],[],[],[],,287.7616,287.7618,-0.001666641,-0.415833359,0,0,0,,0,20,20,33,1,3,TL,adsivory,print,adsivory_p.png,,,,,,
,,,,31988,001,2025-10-16_12h01.06.365,HW_LDT_1,2024.2.4,Win32,60.24096386,,,,,,,,,,,,,,,,,,,,,,287.7639,287.9632,287.9632,288.4599,,,,,,,,,,,,,,2.7538,1,,,,,,,,,,,,,,z,,,,,,,,,,,,,,,22,0,288.462,291.227,z,1,2.7538,,[],[],[],[],[],[],[],291.2271,293.2265,293.2267,293.227,[],[],[],[],[],[],[],,293.2271,293.2273,-0.001666641,-0.415833359,0,0,0,,0,21,21,36,1,3,TL,carema,cursive,carema_c.png,,,,,,
,,,,31988,001,2025-10-16_12h01.06.365,HW_LDT_1,2024.2.4,Win32,60.24096386,,,,,,,,,,,,,,,,,,,,,,293.2293,293.4308,293.4308,293.9306,,,,,,,,,,,,,,1.3334,1,,,,,,,,,,,,,,m,,,,,,,,,,,,,,,23,0,293.9312,295.2665,m,1,1.3334,,[],[],[],[],[],[],[],295.2665,297.2654,297.2654,297.2656,[],[],[],[],[],[],[],,297.2656,297.2658,-0.001666641,-0.415833359,0,0,0,,0,22,22,81,1,3,word,ADVISORY,print,advisory_p.png,,,,,,
,,,,31988,001,2025-10-16_12h01.06.365,HW_LDT_1,2024.2.4,Win32,60.24096386,,,,,,,,,,,,,,,,,,,,,,297.2673,297.4606,297.4606,297.9635,,,,,,,,,,,,,,2.6307,1,,,,,,,,,,,,,,m,,,,,,,,,,,,,,,24,0,297.964,300.5973,m,1,2.6307,,[],[],[],[],[],[],[],300.5973,302.5937,302.594,302.5941,[],[],[],[],[],[],[],,302.5941,302.5943,-0.001666641,-0.415833359,0,0,0,,0,23,23,145,1,3,word,RESUME,cursive,resume_c.png,,,,,,
,,,,31988,001,2025-10-16_12h01.06.365,HW_LDT_1,2024.2.4,Win32,60.24096386,,,,,,,,,,,,,,,,,,,,,,302.5962,302.7921,302.7922,303.2924,,,,,,,,,,,,,,2.053,1,,,,,,,,,,,,,,m,,,,,,,,,,,,,,,25,0,303.2933,305.348,m,1,2.053,,[],[],[],[],[],[],[],305.348,307.3422,307.3422,307.3424,[],[],[],[],[],[],[],,307.3426,307.3428,0,-0.415833359,0,0,0,,0,24,24,128,1,3,word,PACIFIC,cursive,pacific_c.png,,,,,,
,,,,31988,001,2025-10-16_12h01.06.365,HW_LDT_1,2024.2.4,Win32,60.24096386,,,,,,,,,,,,,,,,,,,,,,307.345,307.542,307.542,308.0457,,,,,,,,,,,,,,1.2198,1,,,,,,,,,,,,,,m,,,,,,,,,,,,,,,26,0,308.0461,309.2751,m,1,1.2198,,[],[],[],[],[],[],[],309.2752,311.276,311.276,311.2762,[],[],[],[],[],[],[],,311.2763,311.2765,0,-0.415833359,0,0,0,,0,25,25,124,1,3,word,NUMERICAL,print,numerical_p.png,,,,,,
,,,,31988,001,2025-10-16_12h01.06.365,HW_LDT_1,2024.2.4,Win32,60.24096386,,,,,,,,,,,,,,,,,,,,,,311.2789,311.4752,311.4753,311.9753,,,,,,,,,,,,,,2.9084,1,,,,,,,,,,,,,,z,,,,,,,,,,,,,,,27,0,311.9761,314.8921,z,1,2.9084,,[],[],[],[],[],[],[],314.8922,316.8927,316.8927,316.8931,[],[],[],[],[],[],[],,316.8931,316.8934,0,-0.415833359,0,0,0,,0,26,26,68,1,3,TL,revomal,cursive,revomal_c.png,,,,,,
,,,,31988,001,2025-10-16_12h01.06.365,HW_LDT_1,2024.2.4,Win32,60.24096386,,,,,,,,,,,,,,,,,,,,,,316.8947,317.0916,317.0917,317.5913,,,,,,,,,,,,,,1.3366,1,,,,,,,,,,,,,,m,,,,,,,,,,,,,,,28,0,317.5923,318.9311,m,1,1.3366,,[],[],[],[],[],[],[],318.9311,320.9247,320.9248,320.9251,[],[],[],[],[],[],[],,320.9251,320.9252,0,-0.415833359,0,0,0,,0,27,27,91,1,3,word,CARDINAL,print,cardinal_p.png,,,,,,
,,,,31988,001,2025-10-16_12h01.06.365,HW_LDT_1,2024.2.4,Win32,60.24096386,,,,,,,,,,,,,,,,,,,,,,320.9273,321.1293,321.1294,321.6291,,,,,,,,,,,,,,3.0959,1,,,,,,,,,,,,,,z,,,,,,,,,,,,,,,29,0,321.6298,324.7277,z,1,3.0959,,[],[],[],[],[],[],[],324.7277,326.7254,326.7255,326.7259,[],[],[],[],[],[],[],,326.726,326.7261,0,-0.415833359,0,0,0,,0,28,28,28,1,3,RL,rovastic,cursive,rovastic_c.png,,,,,,
,,,,31988,001,2025-10-16_12h01.06.365,HW_LDT_1,2024.2.4,Win32,60.24096386,,,,,,,,,,,,,,,,,,,,,,326.7289,326.9259,326.9259,327.4248,,,,,,,,,,,,,,0.9349,1,,,,,,,,,,,,,,m,,,,,,,,,,,,,,,30,0,327.4252,328.3625,m,1,0.9349,,[],[],[],[],[],[],[],328.3628,330.3574,330.3574,330.3577,[],[],[],[],[],[],[],,330.3577,330.3578,0,-0.415833359,0,0,0,,0,29,29,152,1,3,word,SPECIMEN,print,specimen_p.png,,,,,,
,,,,31988,001,2025-10-16_12h01.06.365,HW_LDT_1,2024.2.4,Win32,60.24096386,,,,,,,,,,,,,,,,,,,,,,330.36,330.5575,330.5575,331.0613,,,,,,,,,,,,,,3.2136,0,,,,,,,,,,,,,,m,,,,,,,,,,,,,,,31,0,331.062,334.2777,z,0,3.2136,,[],[],[],[],[],[],[],334.2779,336.2739,336.274,336.2742,[],[],[],[],[],[],[],,336.2743,336.2744,0,-0.415833359,0,0,0,,0,30,30,149,1,3,word,SENATOR,cursive,senator_c.png,,,,,,
,,,,31988,001,2025-10-16_12h01.06.365,HW_LDT_1,2024.2.4,Win32,60.24096386,,,,,,,,,,,,,,,,,,,,,,336.2772,336.4739,336.4739,336.9747,,,,,,,,,,,,,,1.4509,1,,,,,,,,,,,,,,z,,,,,,,,,,,,,,,32,1,336.9755,338.4285,z,1,1.4509,,[],[],[],[],[],[],[],338.4286,340.424,340.424,342.1309,[],[],[],[],[],[],[],m,342.131,342.1311,0,-0.415833359,0,0,0,,0,31,31,35,1,3,TL,cateferia,print,cateferia_p.png,1.7049,,,,,
,,,,31988,001,2025-10-16_12h01.06.365,HW_LDT_1,2024.2.4,Win32,60.24096386,,,,,,,,,,,,,,,,,,,,,,342.1326,342.3244,342.3245,342.8245,,,,,,,,,,,,,,1.7689,1,,,,,,,,,,,,,,z,,,,,,,,,,,,,,,33,0,342.8255,344.5974,z,1,1.7689,,[],[],[],[],[],[],[],344.5975,346.5908,346.5909,346.5914,[],[],[],[],[],[],[],,346.5914,346.5916,0,-0.415833359,0,0,0,,0,32,32,37,1,3,TL,cacapity,cursive,cacapity_c.png,,,,,,
,,,,31988,001,2025-10-16_12h01.06.365,HW_LDT_1,2024.2.4,Win32,60.24096386,,,,,,,,,,,,,,,,,,,,,,346.5939,346.7904,346.7905,347.2943,,,,,,,,,,,,,,1.0405,1,,,,,,,,,,,,,,m,,,,,,,,,,,,,,,34,0,347.2949,348.3401,m,1,1.0405,,[],[],[],[],[],[],[],348.3401,350.3406,350.3407,350.3412,[],[],[],[],[],[],[],,350.3413,350.3414,0,-0.415833359,0,0,0,,0,33,33,85,1,3,word,BENEFIT,print,benefit_p.png,,,,,,
,,,,31988,001,2025-10-16_12h01.06.365,HW_LDT_1,2024.2.4,Win32,60.24096386,,,,,,,,,,,,,,,,,,,,,,350.3437,350.5428,350.5428,351.0404,,,,,,,,,,,,,,0.9023,1,,,,,,,,,,,,,,z,,,,,,,,,,,,,,,35,0,351.0417,351.9463,z,1,0.9023,,[],[],[],[],[],[],[],351.9465,353.9432,353.9433,353.9436,[],[],[],[],[],[],[],,353.9437,353.9437,0,-0.415833359,0,0,0,,0,34,34,7,1,3,RL,cobeny,print,cobeny_p.png,,,,,,
,,,,31988,001,2025-10-16_12h01.06.365,HW_LDT_1,2024.2.4,Win32,60.24096386,,,,,,,,,,,,,,,,,,,,,,353.9463,354.1449,354.145,354.6399,,,,,,,,,,,,,,1.1182,1,,,,,,,,,,,,,,z,,,,,,,,,,,,,,,36,0,354.6409,355.7609,z,1,1.1182,,[],[],[],[],[],[],[],355.761,357.7564,357.7564,357.7567,[],[],[],[],[],[],[],,357.7568,357.7569,0,-0.415833359,0,0,0,,0,35,35,74,1,3,TL,spemicen,print,spemicen_p.png,,,,,,
,,,,31988,001,2025-10-16_12h01.06.365,HW_LDT_1,2024.2.4,Win32,60.24096386,,,,,,,,,,,,,,,,,,,,,,357.7597,357.9566,357.9568,358.4446,,,,,,,,,,,,,,1.7609,0,,,,,,,,,,,,,,z,,,,,,,,,,,,,,,37,0,358.4467,360.2091,m,0,1.7609,,[],[],[],[],[],[],[],360.2091,362.2123,362.2123,362.2126,[],[],[],[],[],[],[],,362.2126,362.2127,0,-0.415833359,0,0,0,,0,36,36,73,1,3,TL,speficic,print,speficic_p.png,,,,,,
,,,,31988,001,2025-10-16_12h01.06.365,HW_LDT_1,2024.2.4,Win32,60.24096386,,,,,,,,,,,,,,,,,,,,,,362.2148,362.4122,362.4122,362.9066,,,,,,,,,,,,,,0.8947,1,,,,,,,,,,,,,,z,,,,,,,,,,,,,,,38,0,362.9073,363.8058,z,1,0.8947,,[],[],[],[],[],[],[],363.8059,365.806,365.8061,365.8064,[],[],[],[],[],[],[],,365.8064,365.8065,0,-0.415833359,0,0,0,,0,37,37,0,1,3,RL,afaneur,print,afaneur_p.png,,,,,,
,,,,31988,001,2025-10-16_12h01.06.365,HW_LDT_1,2024.2.4,Win32,60.24096386,,,,,,,,,,,,,,,,,,,,,,365.8085,366.006,366.006,366.506,,,,,,,,,,,,,,2.093,0,,,,,,,,,,,,,,m,,,,,,,,,,,,,,,39,0,366.5068,368.6057,z,0,2.093,,[],[],[],[],[],[],[],368.6058,370.6056,370.6056,370.6058,[],[],[],[],[],[],[],,370.6059,370.6059,0,-0.415833359,0,0,0,,0,38,38,88,1,3,word,CAMERA,cursive,camera_c.png,,,,,,
,,,,31988,001,2025-10-16_12h01.06.365,HW_LDT_1,2024.2.4,Win32,60.24096386,,,,,,,,,,,,,,,,,,,,,,370.6076,370.8055,370.8055,371.3059,,,,,,,,,,,,,,0.8938,1,,,,,,,,,,,,,,m,,,,,,,,,,,,,,,40,0,371.3069,372.2055,m,1,0.8938,,[],[],[],[],[],[],[],372.2056,374.2053,374.2054,374.2057,[],[],[],[],[],[],[],,374.2057,374.2058,0,-0.415833359,0,0,0,,0,39,39,112,1,3,word,LIBERAL,print,liberal_p.png,,,,,,
,,,,31988,001,2025-10-16_12h01.06.365,HW_LDT_1,2024.2.4,Win32,60.24096386,,,,,,,,,,,,,,,,,,,,,,374.208,374.4054,374.4054,374.9052,,,,,,,,,,,,,,1.322,0,,,,,,,,,,,,,,m,,,,,,,,,,,,,,,41,0,374.9057,376.2387,z,0,1.322,,[],[],[],[],[],[],[],376.2389,378.239,378.2391,378.2395,[],[],[],[],[],[],[],,378.2397,378.2399,0,-0.415833359,0,0,0,,0,40,40,90,1,3,word,CAPITAL,cursive,capital_c.png,,,,,,
,,,,31988,001,2025-10-16_12h01.06.365,HW_LDT_1,2024.2.4,Win32,60.24096386,,,,,,,,,,,,,,,,,,,,,,378.2421,378.4388,378.4389,378.9394,,,,,,,,,,,,,,2.6522,1,,,,,,,,,,,,,,z,,,,,,,,,,,,,,,42,0,378.9404,381.5943,z,1,2.6522,,[],[],[],[],[],[],[],381.5945,383.5925,383.5927,383.593,[],[],[],[],[],[],[],,383.593,383.5931,0,-0.415833359,0,0,0,,0,41,41,16,1,3,RL,mishafe,cursive,mishafe_c.png,,,,,,
,,,,31988,001,2025-10-16_12h01.06.365,HW_LDT_1,2024.2.4,Win32,60.24096386,,,,,,,,,,,,,,,,,,,,,,383.5952,383.7898,383.7898,384.289,,,,,,,,,,,,,,2.2728,1,,,,,,,,,,,,,,m,,,,,,,,,,,,,,,43,0,384.2899,386.5723,m,1,2.2728,,[],[],[],[],[],[],[],386.5724,388.5725,388.5727,388.5729,[],[],[],[],[],[],[],,388.573,388.5731,0,-0.415833359,0,0,0,,0,42,42,127,1,3,word,ORIGINAL,cursive,original_c.png,,,,,,
,,,,31988,001,2025-10-16_12h01.06.365,HW_LDT_1,2024.2.4,Win32,60.24096386,,,,,,,,,,,,,,,,,,,,,,388.5754,388.7723,388.7724,389.2758,,,,,,,,,,,,,,0.8826,1,,,,,,,,,,,,,,z,,,,,,,,,,,,,,,44,0,389.2767,390.1613,z,1,0.8826,,[],[],[],[],[],[],[],390.1615,392.1546,392.1546,392.1548,[],[],[],[],[],[],[],,392.1548,392.1549,0,-0.415833359,0,0,0,,0,43,43,50,1,3,TL,lirebal,print,lirebal_p.png,,,,,,
,,,,31988,001,2025-10-16_12h01.06.365,HW_LDT_1,2024.2.4,Win32,60.24096386,,,,,,,,,,,,,,,,,,,,,,392.1569,392.3569,392.3569,392.8604,,,,,,,,,,,,,,3.7613,1,,,,,,,,,,,,,,z,,,,,,,,,,,,,,,45,0,392.861,396.6248,z,1,3.7613,,[],[],[],[],[],[],[],396.6249,398.6223,398.6223,398.6229,[],[],[],[],[],[],[],,398.623,398.6231,0,-0.415833359,0,0,0,,0,44,44,6,1,3,RL,cenesony,cursive,cenesony_c.png,,,,,,
,,,,31988,001,2025-10-16_12h01.06.365,HW_LDT_1,2024.2.4,Win32,60.24096386,,,,,,,,,,,,,,,,,,,,,,398.6252,398.8223,398.8224,399.3215,,,,,,,,,,,,,,1.4889,1,,,,,,,,,,,,,,m,,,,,,,,,,,,,,,46,1,399.3234,400.8213,m,1,1.4889,,[],[],[],[],[],[],[],400.8215,402.8098,402.8098,403.7718,[],[],[],[],[],[],[],z,403.7718,403.7719,0,-0.415833359,0,0,0,,0,45,45,143,1,3,word,REMOVAL,cursive,removal_c.png,0.9542,,,,,
,,,,31988,001,2025-10-16_12h01.06.365,HW_LDT_1,2024.2.4,Win32,60.24096386,,,,,,,,,,,,,,,,,,,,,,403.7752,403.9709,403.971,404.4713,,,,,,,,,,,,,,3.544,1,,,,,,,,,,,,,,z,,,,,,,,,,,,,,,47,0,404.4721,408.0212,z,1,3.544,,[],[],[],[],[],[],[],408.0213,410.022,410.022,410.0222,[],[],[],[],[],[],[],,410.0223,410.0223,0,-0.415833359,0,0,0,,0,46,46,54,1,3,TL,manire,cursive,manire_c.png,,,,,,
,,,,31988,001,2025-10-16_12h01.06.365,HW_LDT_1,2024.2.4,Win32,60.24096386,,,,,,,,,,,,,,,,,,,,,,410.0248,410.2206,410.2207,410.7259,,,,,,,,,,,,,,1.507,1,,,,,,,,,,,,,,m,,,,,,,,,,,,,,,48,0,410.7268,412.237,m,1,1.507,,[],[],[],[],[],[],[],412.2373,414.2374,414.2375,414.2376,[],[],[],[],[],[],[],,414.2377,414.2382,0,-0.415833359,0,0,0,,0,47,47,118,1,3,word,MEDICINE,print,medicine_p.png,,,,,,
,,,,31988,001,2025-10-16_12h01.06.365,HW_LDT_1,2024.2.4,Win32,60.24096386,,,,,,,,,,,,,,,,,,,,,,414.2404,414.4378,414.438,414.9381,,,,,,,,,,,,,,1.1507,1,,,,,,,,,,,,,,m,,,,,,,,,,,,,,,49,1,414.9392,416.0921,m,1,1.1507,,[],[],[],[],[],[],[],416.0923,418.088,418.0885,424.758,[],[],[],[],[],[],[],z,424.7582,424.7584,0,-0.415833359,0,0,0,,0,48,48,86,1,3,word,BESIDE,cursive,beside_c.png,6.6689,,,,,
,,,,31988,001,2025-10-16_12h01.06.365,HW_LDT_1,2024.2.4,Win32,60.24096386,,,,,,,,,,,,,,,,,,,,,,424.7598,424.9537,424.9538,425.4534,,,,,,,,,,,,,,0.8882,1,,,,,,,,,,,,,,z,,,,,,,,,,,,,,,50,0,425.4542,426.3539,z,1,0.8882,,[],[],[],[],[],[],[],426.354,428.3531,428.3532,428.3533,[],[],[],[],[],[],[],,428.3534,428.3535,0,-0.415833359,0,0,0,,0,49,49,51,1,3,TL,liretal,print,liretal_p.png,,,,,,
,,,,31988,001,2025-10-16_12h01.06.365,HW_LDT_1,2024.2.4,Win32,60.24096386,,,,,,,,,,,,,,,,,,,,,,428.3554,428.5531,428.5532,429.0423,,,,,,,,,,,,,,1.155,1,,,,,,,,,,,,,,z,,,,,,,,,,,,,,,51,1,429.0426,430.2044,z,1,1.155,,[],[],[],[],[],[],[],430.2049,432.2042,432.2042,434.0702,[],[],[],[],[],[],[],m,434.0703,434.0705,0,-0.415833359,0,0,0,,0,50,50,61,1,3,TL,pocily,print,pocily_p.png,1.8585,,,,,
,,,,31988,001,2025-10-16_12h01.06.365,HW_LDT_1,2024.2.4,Win32,60.24096386,,,,,,,,,,,,,,,,,,,,,,434.073,434.2701,434.2703,434.7706,,,,,,,,,,,,,,1.3859,1,,,,,,,,,,,,,,m,,,,,,,,,,,,,,,52,0,434.7716,436.1597,m,1,1.3859,,[],[],[],[],[],[],[],436.1597,438.1534,438.1535,438.1538,[],[],[],[],[],[],[],,438.1538,438.1539,0,-0.415833359,0,0,0,,0,51,51,132,1,3,word,PROPOSAL,print,proposal_p.png,,,,,,
,,,,31988,001,2025-10-16_12h01.06.365,HW_LDT_1,2024.2.4,Win32,60.24096386,,,,,,,,,,,,,,,,,,,,,,438.1565,438.3545,438.3546,438.8532,,,,,,,,,,,,,,3.3024,0,,,,,,,,,,,,,,m,,,,,,,,,,,,,,,53,0,438.8539,442.1575,z,0,3.3024,,[],[],[],[],[],[],[],442.1576,444.1529,444.153,444.1532,[],[],[],[],[],[],[],,444.1532,444.1533,0,-0.415833359,0,0,0,,0,52,52,126,1,3,word,OPTIMAL,cursive,optimal_c.png,,,,,,
,,,,31988,001,2025-10-16_12h01.06.365,HW_LDT_1,2024.2.4,Win32,60.24096386,,,,,,,,,,,,,,,,,,,,,,444.1558,444.3592,444.3593,444.8531,,,,,,,,,,,,,,4.3848,1,,,,,,,,,,,,,,z,,,,,,,,,,,,,,,54,0,444.8539,449.2412,z,1,4.3848,,[],[],[],[],[],[],[],449.2413,451.2408,451.2409,451.2412,[],[],[],[],[],[],[],,451.2413,451.2413,0,-0.415833359,0,0,0,,0,53,53,69,1,3,TL,redisent,cursive,redisent_c.png,,,,,,
,,,,31988,001,2025-10-16_12h01.06.365,HW_LDT_1,2024.2.4,Win32,60.24096386,,,,,,,,,,,,,,,,,,,,,,451.2436,451.4401,451.4402,451.9369,,,,,,,,,,,,,,2.2683,1,,,,,,,,,,,,,,m,,,,,,,,,,,,,,,55,0,451.9377,454.2185,m,1,2.2683,,[],[],[],[],[],[],[],454.2186,456.2192,456.2193,456.2196,[],[],[],[],[],[],[],,456.2197,456.2197,0,-0.415833359,0,0,0,,0,54,54,106,1,3,word,ELABORATE,print,elaborate_p.png,,,,,,
,,,,31988,001,2025-10-16_12h01.06.365,HW_LDT_1,2024.2.4,Win32,60.24096386,,,,,,,,,,,,,,,,,,,,,,456.2224,456.4189,456.419,456.9227,,,,,,,,,,,,,,1.852,1,,,,,,,,,,,,,,z,,,,,,,,,,,,,,,56,0,456.9235,458.7867,z,1,1.852,,[],[],[],[],[],[],[],458.787,460.7908,460.7911,460.7912,[],[],[],[],[],[],[],,460.7913,460.7913,0,-0.415833359,0,0,0,,0,55,55,43,1,3,TL,dedace,cursive,dedace_c.png,,,,,,
,,,,31988,001,2025-10-16_12h01.06.365,HW_LDT_1,2024.2.4,Win32,60.24096386,,,,,,,,,,,,,,,,,,,,,,460.793,460.9863,460.9864,461.4858,,,,,,,,,,,,,,1.791,1,,,,,,,,,,,,,,m,,,,,,,,,,,,,,,57,0,461.4878,463.2856,m,1,1.791,,[],[],[],[],[],[],[],463.2858,465.2913,465.2915,465.2917,[],[],[],[],[],[],[],,465.2917,465.2919,0,-0.415833359,0,0,0,,0,56,56,100,1,3,word,DECADE,cursive,decade_c.png,,,,,,
,,,,31988,001,2025-10-16_12h01.06.365,HW_LDT_1,2024.2.4,Win32,60.24096386,,,,,,,,,,,,,,,,,,,,,,465.2937,465.4903,465.4905,465.9858,,,,,,,,,,,,,,0.8205,1,,,,,,,,,,,,,,m,,,,,,,,,,,,,,,58,0,465.9865,466.8083,m,1,0.8205,,[],[],[],[],[],[],[],466.8084,468.8024,468.8024,468.8027,[],[],[],[],[],[],[],,468.8027,468.8028,0,-0.415833359,0,0,0,,0,57,57,146,1,3,word,RETIRE,print,retire_p.png,,,,,,
,,,,31988,001,2025-10-16_12h01.06.365,HW_LDT_1,2024.2.4,Win32,60.24096386,,,,,,,,,,,,,,,,,,,,,,468.8054,469.0023,469.0023,469.5022,,,,,,,,,,,,,,1.676,1,,,,,,,,,,,,,,m,,,,,,,,,,,,,,,59,0,469.5034,471.1844,m,1,1.676,,[],[],[],[],[],[],[],471.1845,473.1733,473.1735,473.1737,[],[],[],[],[],[],[],,473.1738,473.1738,0,-0.415833359,0,0,0,,0,58,58,93,1,3,word,CEREMONY,cursive,ceremony_c.png,,,,,,
,,,,31988,001,2025-10-16_12h01.06.365,HW_LDT_1,2024.2.4,Win32,60.24096386,,,,,,,,,,,,,,,,,,,,,,473.1758,473.3677,473.3678,473.8717,,,,,,,,,,,,,,5.95,0,,,,,,,,,,,,,,m,,,,,,,,,,,,,,,60,0,473.8724,479.8247,z,0,5.95,,[],[],[],[],[],[],[],479.8251,481.818,481.8181,481.8185,[],[],[],[],[],[],[],,481.8186,481.8187,0,-0.415833359,0,0,0,,0,59,59,89,1,3,word,CAPACITY,cursive,capacity_c.png,,,,,,
,,,,31988,001,2025-10-16_12h01.06.365,HW_LDT_1,2024.2.4,Win32,60.24096386,,,,,,,,,,,,,,,,,,,,,,481.8209,482.0177,482.0178,482.5215,,,,,,,,,,,,,,1.9828,1,,,,,,,,,,,,,,z,,,,,,,,,,,,,,,61,0,482.5219,484.5064,z,1,1.9828,,[],[],[],[],[],[],[],484.5065,486.5057,486.5058,486.5063,[],[],[],[],[],[],[],,486.5063,486.5064,0,-0.415833359,0,0,0,,0,60,60,38,1,3,TL,carnidal,print,carnidal_p.png,,,,,,
,,,,31988,001,2025-10-16_12h01.06.365,HW_LDT_1,2024.2.4,Win32,60.24096386,,,,,,,,,,,,,,,,,,,,,,486.508,486.7011,486.7011,487.2063,,,,,,,,,,,,,,3.4899,1,,,,,,,,,,,,,,z,,,,,,,,,,,,,,,62,1,487.2069,490.7006,z,1,3.4899,,[],[],[],[],[],[],[],490.7007,492.7038,492.7038,494.0238,[],[],[],[],[],[],[],m,494.024,494.0242,0,-0.415833359,0,0,0,,0,61,61,67,1,3,TL,retome,print,retome_p.png,1.3189,,,,,
,,,,31988,001,2025-10-16_12h01.06.365,HW_LDT_1,2024.2.4,Win32,60.24096386,,,,,,,,,,,,,,,,,,,,,,494.0261,494.2225,494.2227,494.7179,,,,,,,,,,,,,,5.2084,0,,,,,,,,,,,,,,m,,,,,,,,,,,,,,,63,1,494.719,499.9353,z,0,5.2084,,[],[],[],[],[],[],[],499.9355,501.9386,501.9387,502.9899,[],[],[],[],[],[],[],z,502.99,502.9902,0,-0.415833359,0,0,0,,0,62,62,109,1,3,word,GRATEFUL,cursive,grateful_c.png,1.0501,,,,,
,,,,31988,001,2025-10-16_12h01.06.365,HW_LDT_1,2024.2.4,Win32,60.24096386,,,,,,,,,,,,,,,,,,,,,,502.9921,503.1838,503.1839,503.6872,,,,,,,,,,,,,,4.715,1,,,,,,,,,,,,,,m,,,,,,,,,,,,,,,64,0,503.6882,508.4044,m,1,4.715,,[],[],[],[],[],[],[],508.4044,510.4009,510.4014,510.4016,[],[],[],[],[],[],[],,510.4017,510.4017,0,-0.415833359,0,0,0,,0,63,63,140,1,3,word,RELATIVE,cursive,relative_c.png,,,,,,
,,,,31988,001,2025-10-16_12h01.06.365,HW_LDT_1,2024.2.4,Win32,60.24096386,,,,,,,,,,,,,,,,,,,,,,510.4038,510.6043,510.6044,511.0995,,,,,,,,,,,,,,2.0218,1,,,,,,,,,,,,,,m,,,,,,,,,,,,,,,65,0,511.1003,513.1242,m,1,2.0218,,[],[],[],[],[],[],[],513.1243,515.1173,515.1173,515.1175,[],[],[],[],[],[],[],,515.1175,515.1176,0,-0.415833359,0,0,0,,0,64,64,148,1,3,word,SALINE,cursive,saline_c.png,,,,,,
,,,,31988,001,2025-10-16_12h01.06.365,HW_LDT_1,2024.2.4,Win32,60.24096386,,,,,,,,,,,,,,,,,,,,,,515.12,515.3172,515.3173,515.8165,,,,,,,,,,,,,,4.8185,1,,,,,,,,,,,,,,m,,,,,,,,,,,,,,,66,0,515.8176,520.638,m,1,4.8185,,[],[],[],[],[],[],[],520.6381,522.6336,522.6336,522.634,[],[],[],[],[],[],[],,522.6341,522.6342,0,-0.415833359,0,0,0,,0,65,65,153,1,3,word,STOLEN,cursive,stolen_c.png,,,,,,
,,,,31988,001,2025-10-16_12h01.06.365,HW_LDT_1,2024.2.4,Win32,60.24096386,,,,,,,,,,,,,,,,,,,,,,522.6363,522.8332,522.8333,523.3373,,,,,,,,,,,,,,2.7647,1,,,,,,,,,,,,,,z,,,,,,,,,,,,,,,67,0,523.338,526.1043,z,1,2.7647,,[],[],[],[],[],[],[],526.1044,528.0997,528.0997,528.1004,[],[],[],[],[],[],[],,528.1005,528.1007,0,-0.415833359,0,0,0,,0,66,66,15,1,3,RL,mifikary,cursive,mifikary_c.png,,,,,,
,,,,31988,001,2025-10-16_12h01.06.365,HW_LDT_1,2024.2.4,Win32,60.24096386,,,,,,,,,,,,,,,,,,,,,,528.103,528.3,528.3003,528.8048,,,,,,,,,,,,,,1.2733,1,,,,,,,,,,,,,,m,,,,,,,,,,,,,,,68,0,528.8053,530.0821,m,1,1.2733,,[],[],[],[],[],[],[],530.0822,532.0827,532.0828,532.083,[],[],[],[],[],[],[],,532.0832,532.0832,0,-0.415833359,0,0,0,,0,67,67,141,1,3,word,RELIGION,print,religion_p.png,,,,,,
,,,,31988,001,2025-10-16_12h01.06.365,HW_LDT_1,2024.2.4,Win32,60.24096386,,,,,,,,,,,,,,,,,,,,,,532.0858,532.2815,532.2816,532.7873,,,,,,,,,,,,,,3.9489,1,,,,,,,,,,,,,,z,,,,,,,,,,,,,,,69,0,532.7879,536.7386,z,1,3.9489,,[],[],[],[],[],[],[],536.7386,538.736,538.7361,538.7364,[],[],[],[],[],[],[],,538.7365,538.7366,0,-0.415833359,0,0,0,,0,68,68,52,1,3,TL,locigal,cursive,locigal_c.png,,,,,,
,,,,31988,001,2025-10-16_12h01.06.365,HW_LDT_1,2024.2.4,Win32,60.24096386,,,,,,,,,,,,,,,,,,,,,,538.7389,538.9326,538.9327,539.4373,,,,,,,,,,,,,,1.1798,1,,,,,,,,,,,,,,z,,,,,,,,,,,,,,,70,0,539.4379,540.6198,z,1,1.1798,,[],[],[],[],[],[],[],540.6199,542.6154,542.6155,542.6157,[],[],[],[],[],[],[],,542.6157,542.6158,0,-0.415833359,0,0,0,,0,69,69,42,1,3,TL,detabe,cursive,detabe_c.png,,,,,,
,,,,31988,001,2025-10-16_12h01.06.365,HW_LDT_1,2024.2.4,Win32,60.24096386,,,,,,,,,,,,,,,,,,,,,,542.6183,542.8153,542.8154,543.3161,,,,,,,,,,,,,,2.157,0,,,,,,,,,,,,,,m,,,,,,,,,,,,,,,71,0,543.317,545.4812,z,0,2.157,,[],[],[],[],[],[],[],545.4812,547.4702,547.4702,547.4704,[],[],[],[],[],[],[],,547.4704,547.4706,0,-0.415833359,0,0,0,,0,70,70,117,1,3,word,MARINE,cursive,marine_c.png,,,,,,
,,,,31988,001,2025-10-16_12h01.06.365,HW_LDT_1,2024.2.4,Win32,60.24096386,,,,,,,,,,,,,,,,,,,,,,547.4727,547.6653,547.6654,548.1653,,,,,,,,,,,,,,1.8082,1,,,,,,,,,,,,,,m,,,,,,,,,,,,,,,72,0,548.1664,549.9812,m,1,1.8082,,[],[],[],[],[],[],[],549.9814,551.9817,551.9819,551.9821,[],[],[],[],[],[],[],,551.9821,551.9822,0,-0.415833359,0,0,0,,0,71,71,151,1,3,word,SPECIFIC,print,specific_p.png,,,,,,
,,,,31988,001,2025-10-16_12h01.06.365,HW_LDT_1,2024.2.4,Win32,60.24096386,,,,,,,,,,,,,,,,,,,,,,551.9844,552.1705,552.1706,552.6818,,,,,,,,,,,,,,1.5031,1,,,,,,,,,,,,,,m,,,,,,,,,,,,,,,73,0,552.6826,554.1876,m,1,1.5031,,[],[],[],[],[],[],[],554.1877,556.1837,556.1837,556.1841,[],[],[],[],[],[],[],,556.1841,556.1843,0,-0.415833359,0,0,0,,0,72,72,139,1,3,word,REGULAR,print,regular_p.png,,,,,,
,,,,31988,001,2025-10-16_12h01.06.365,HW_LDT_1,2024.2.4,Win32,60.24096386,,,,,,,,,,,,,,,,,,,,,,556.1855,556.3855,556.3855,556.8866,,,,,,,,,,,,,,1.7912,1,,,,,,,,,,,,,,z,,,,,,,,,,,,,,,74,0,556.8873,558.681,z,1,1.7912,,[],[],[],[],[],[],[],558.6811,560.6704,560.6704,560.6708,[],[],[],[],[],[],[],,560.6708,560.6711,0,-0.415833359,0,0,0,,0,73,73,34,1,3,TL,aminal,cursive,aminal_c.png,,,,,,
,,,,31988,001,2025-10-16_12h01.06.365,HW_LDT_1,2024.2.4,Win32,60.24096386,,,,,,,,,,,,,,,,,,,,,,560.673,560.865,560.8651,561.3701,,,,,,,,,,,,,,1.2313,1,,,,,,,,,,,,,,m,,,,,,,,,,,,,,,75,0,561.3708,562.6039,m,1,1.2313,,[],[],[],[],[],[],[],562.604,564.5973,564.5973,564.5976,[],[],[],[],[],[],[],,564.5977,564.5978,0,-0.415833359,0,0,0,,0,74,74,134,1,3,word,QUALIFY,print,qualify_p.png,,,,,,
,,,,31988,001,2025-10-16_12h01.06.365,HW_LDT_1,2024.2.4,Win32,60.24096386,,,,,,,,,,,,,,,,,,,,,,564.5994,564.8026,564.8027,565.2979,,,,,,,,,,,,,,2.4498,1,,,,,,,,,,,,,,z,,,,,,,,,,,,,,,76,1,565.299,567.7508,z,1,2.4498,,[],[],[],[],[],[],[],567.7509,569.7503,569.7504,571.2206,[],[],[],[],[],[],[],m,571.2209,571.2212,0,-0.415833359,0,0,0,,0,75,75,25,1,3,RL,retupar,print,retupar_p.png,1.4685,,,,,
,,,,31988,001,2025-10-16_12h01.06.365,HW_LDT_1,2024.2.4,Win32,60.24096386,,,,,,,,,,,,,,,,,,,,,,571.2227,571.4194,571.4194,571.9196,,,,,,,,,,,,,,4.8968,1,,,,,,,,,,,,,,m,,,,,,,,,,,,,,,77,0,571.9202,576.819,m,1,4.8968,,[],[],[],[],[],[],[],576.8191,578.8137,578.8138,578.8141,[],[],[],[],[],[],[],,578.8142,578.8143,0,-0.415833359,0,0,0,,0,76,76,120,1,3,word,MILITARY,cursive,military_c.png,,,,,,
,,,,31988,001,2025-10-16_12h01.06.365,HW_LDT_1,2024.2.4,Win32,60.24096386,,,,,,,,,,,,,,,,,,,,,,578.8167,579.0029,579.0029,579.5024,,,,,,,,,,,,,,2.5679,1,,,,,,,,,,,,,,z,,,,,,,,,,,,,,,78,0,579.5029,582.0806,z,1,2.5679,,[],[],[],[],[],[],[],582.0807,584.0832,584.0833,584.0834,[],[],[],[],[],[],[],,584.0837,584.0837,0,-0.415833359,0,0,0,,0,77,77,27,1,3,RL,recile,print,recile_p.png,,,,,,
,,,,31988,001,2025-10-16_12h01.06.365,HW_LDT_1,2024.2.4,Win32,60.24096386,,,,,,,,,,,,,,,,,,,,,,584.0866,584.2804,584.2805,584.7805,,,,,,,,,,,,,,1.3601,1,,,,,,,,,,,,,,m,,,,,,,,,,,,,,,79,0,584.7817,586.146,m,1,1.3601,,[],[],[],[],[],[],[],586.1461,588.1462,588.1463,588.1467,[],[],[],[],[],[],[],,588.1468,588.1469,0,-0.415833359,0,0,0,,0,78,78,96,1,3,word,CONSIDER,print,consider_p.png,,,,,,
,,,,31988,001,2025-10-16_12h01.06.365,HW_LDT_1,2024.2.4,Win32,60.24096386,,,,,,,,,,,,,,,,,,,,,,588.1492,588.3515,588.3516,588.8352,,,,,,,,,,,,,,2.5298,1,,,,,,,,,,,,,,z,,,,,,,,,,,,,,,80,0,588.8359,591.3675,z,1,2.5298,,[],[],[],[],[],[],[],591.3676,593.3628,593.3629,593.3632,[],[],[],[],[],[],[],,593.3632,717.9786,0,-0.415833359,0,0,0,space,0,79,79,32,1,3,TL,adacemy,print,adacemy_p.png,,,124.5938,,,
,,,,31988,001,2025-10-16_12h01.06.365,HW_LDT_1,2024.2.4,Win32,60.24096386,,,,,,,,,,,,,,,,,,,,,,717.9801,718.1744,718.1746,718.679,,,,,,,,,,,,,,2.764,1,,,,,,,,,,,,,,z,,,,,,,,,,,,,,,81,0,718.6798,721.4463,z,1,2.764,,[],[],[],[],[],[],[],721.4465,723.4442,723.4443,723.4445,[],[],[],[],[],[],[],,723.4445,723.4451,0,-0.415833359,0,0,0,,0,80,80,49,1,3,TL,incidate,print,incidate_p.png,,,,,,
,,,,31988,001,2025-10-16_12h01.06.365,HW_LDT_1,2024.2.4,Win32,60.24096386,,,,,,,,,,,,,,,,,,,,,,723.4474,723.6404,723.6405,724.1396,,,,,,,,,,,,,,1.225,1,,,,,,,,,,,,,,m,,,,,,,,,,,,,,,82,0,724.1403,725.3726,m,1,1.225,,[],[],[],[],[],[],[],725.3727,727.3734,727.3735,727.3737,[],[],[],[],[],[],[],,727.3738,727.3739,0,-0.415833359,0,0,0,,0,81,81,135,1,3,word,QUALITY,print,quality_p.png,,,,,,
,,,,31988,001,2025-10-16_12h01.06.365,HW_LDT_1,2024.2.4,Win32,60.24096386,,,,,,,,,,,,,,,,,,,,,,727.3759,727.5787,727.5787,728.0735,,,,,,,,,,,,,,1.2188,1,,,,,,,,,,,,,,m,,,,,,,,,,,,,,,83,1,728.0746,729.2947,m,1,1.2188,,[],[],[],[],[],[],[],729.2948,731.2935,731.2935,732.6733,[],[],[],[],[],[],[],m,732.6734,732.6738,0,-0.415833359,0,0,0,,0,82,82,104,1,3,word,DOMINANT,print,dominant_p.png,1.3729,,,,,
,,,,31988,001,2025-10-16_12h01.06.365,HW_LDT_1,2024.2.4,Win32,60.24096386,,,,,,,,,,,,,,,,,,,,,,732.6765,732.8789,732.879,733.3784,,,,,,,,,,,,,,2.9321,1,,,,,,,,,,,,,,m,,,,,,,,,,,,,,,84,0,733.379,736.3126,m,1,2.9321,,[],[],[],[],[],[],[],736.3128,738.3073,738.3073,738.3076,[],[],[],[],[],[],[],,738.3076,738.3077,0,-0.415833359,0,0,0,,0,83,83,92,1,3,word,CATEGORY,cursive,category_c.png,,,,,,
,,,,31988,001,2025-10-16_12h01.06.365,HW_LDT_1,2024.2.4,Win32,60.24096386,,,,,,,,,,,,,,,,,,,,,,738.3103,738.5073,738.5073,739.0119,,,,,,,,,,,,,,1.9971,0,,,,,,,,,,,,,,z,,,,,,,,,,,,,,,85,1,739.0126,741.0122,m,0,1.9971,,[],[],[],[],[],[],[],741.0123,743.0059,743.006,743.9895,[],[],[],[],[],[],[],z,743.9895,743.9898,0,-0.415833359,0,0,0,,0,84,84,77,1,3,TL,vadility,cursive,vadility_c.png,0.9787,,,,,
,,,,31988,001,2025-10-16_12h01.06.365,HW_LDT_1,2024.2.4,Win32,60.24096386,,,,,,,,,,,,,,,,,,,,,,743.9923,744.1894,744.1894,744.6944,,,,,,,,,,,,,,1.7149,1,,,,,,,,,,,,,,m,,,,,,,,,,,,,,,86,0,744.6954,746.4122,m,1,1.7149,,[],[],[],[],[],[],[],746.4123,748.4061,748.4062,748.4064,[],[],[],[],[],[],[],,748.4066,748.4068,0,-0.415833359,0,0,0,,0,85,85,107,1,3,word,EVIDENT,cursive,evident_c.png,,,,,,
,,,,31988,001,2025-10-16_12h01.06.365,HW_LDT_1,2024.2.4,Win32,60.24096386,,,,,,,,,,,,,,,,,,,,,,748.4091,748.6051,748.6052,749.1112,,,,,,,,,,,,,,1.2146,1,,,,,,,,,,,,,,z,,,,,,,,,,,,,,,87,0,749.1117,750.3286,z,1,1.2146,,[],[],[],[],[],[],[],750.3288,752.3214,752.3214,752.3217,[],[],[],[],[],[],[],,752.3217,752.3218,0,-0.415833359,0,0,0,,0,86,86,53,1,3,TL,marnigal,print,marnigal_p.png,,,,,,
,,,,31988,001,2025-10-16_12h01.06.365,HW_LDT_1,2024.2.4,Win32,60.24096386,,,,,,,,,,,,,,,,,,,,,,752.324,752.5274,752.5275,753.0223,,,,,,,,,,,,,,3.1892,1,,,,,,,,,,,,,,z,,,,,,,,,,,,,,,88,0,753.0233,756.2225,z,1,3.1892,,[],[],[],[],[],[],[],756.2226,758.2254,758.2256,758.2259,[],[],[],[],[],[],[],,758.2259,758.2261,0,-0.415833359,0,0,0,,0,87,87,79,1,3,TL,veretan,cursive,veretan_c.png,,,,,,
,,,,31988,001,2025-10-16_12h01.06.365,HW_LDT_1,2024.2.4,Win32,60.24096386,,,,,,,,,,,,,,,,,,,,,,758.2282,758.4221,758.4222,758.9255,,,,,,,,,,,,,,5.1157,1,,,,,,,,,,,,,,z,,,,,,,,,,,,,,,89,0,758.9262,764.0437,z,1,5.1157,,[],[],[],[],[],[],[],764.0438,766.0381,766.0381,766.0384,[],[],[],[],[],[],[],,766.0385,766.0386,0,-0.415833359,0,0,0,,0,88,88,48,1,3,TL,grafetul,cursive,grafetul_c.png,,,,,,
,,,,31988,001,2025-10-16_12h01.06.365,HW_LDT_1,2024.2.4,Win32,60.24096386,,,,,,,,,,,,,,,,,,,,,,766.041,766.2382,766.2383,766.7384,,,,,,,,,,,,,,1.5733,1,,,,,,,,,,,,,,m,,,,,,,,,,,,,,,90,0,766.7394,768.3207,m,1,1.5733,,[],[],[],[],[],[],[],768.3208,770.3258,770.3259,770.3261,[],[],[],[],[],[],[],,770.3262,770.3263,0,-0.415833359,0,0,0,,0,89,89,157,1,3,word,VALIDITY,cursive,validity_c.png,,,,,,
,,,,31988,001,2025-10-16_12h01.06.365,HW_LDT_1,2024.2.4,Win32,60.24096386,,,,,,,,,,,,,,,,,,,,,,770.3282,770.5213,770.5213,771.0214,,,,,,,,,,,,,,1.4018,1,,,,,,,,,,,,,,m,,,,,,,,,,,,,,,91,0,771.0228,772.4268,m,1,1.4018,,[],[],[],[],[],[],[],772.4269,774.4212,774.4213,774.4216,[],[],[],[],[],[],[],,774.4216,774.4221,0,-0.415833359,0,0,0,,0,90,90,137,1,3,word,RAPIDLY,print,rapidly_p.png,,,,,,
,,,,31988,001,2025-10-16_12h01.06.365,HW_LDT_1,2024.2.4,Win32,60.24096386,,,,,,,,,,,,,,,,,,,,,,774.424,774.6211,774.6212,775.1098,,,,,,,,,,,,,,5.0147,1,,,,,,,,,,,,,,z,,,,,,,,,,,,,,,92,0,775.1105,780.127,z,1,5.0147,,[],[],[],[],[],[],[],780.1271,782.1209,782.1211,782.1214,[],[],[],[],[],[],[],,782.1214,782.1215,0,-0.415833359,0,0,0,,0,91,91,76,1,3,TL,stogare,cursive,stogare_c.png,,,,,,
,,,,31988,001,2025-10-16_12h01.06.365,HW_LDT_1,2024.2.4,Win32,60.24096386,,,,,,,,,,,,,,,,,,,,,,782.124,782.3241,782.3242,782.824,,,,,,,,,,,,,,1.0182,1,,,,,,,,,,,,,,z,,,,,,,,,,,,,,,93,0,782.8247,783.8444,z,1,1.0182,,[],[],[],[],[],[],[],783.8444,785.837,785.837,785.8373,[],[],[],[],[],[],[],,785.8374,785.8374,0,-0.415833359,0,0,0,,0,92,92,2,1,3,RL,betemit,print,betemit_p.png,,,,,,
,,,,31988,001,2025-10-16_12h01.06.365,HW_LDT_1,2024.2.4,Win32,60.24096386,,,,,,,,,,,,,,,,,,,,,,785.84,786.0372,786.0373,786.5361,,,,,,,,,,,,,,1.793,1,,,,,,,,,,,,,,z,,,,,,,,,,,,,,,94,0,786.5368,788.3363,z,1,1.793,,[],[],[],[],[],[],[],788.3364,790.3383,790.3384,790.3386,[],[],[],[],[],[],[],,790.3386,790.3387,0,-0.415833359,0,0,0,,0,93,93,12,1,3,RL,formuke,cursive,formuke_c.png,,,,,,
,,,,31988,001,2025-10-16_12h01.06.365,HW_LDT_1,2024.2.4,Win32,60.24096386,,,,,,,,,,,,,,,,,,,,,,790.3403,790.5372,790.5373,791.0375,,,,,,,,,,,,,,2.1512,1,,,,,,,,,,,,,,m,,,,,,,,,,,,,,,95,0,791.0385,793.1911,m,1,2.1512,,[],[],[],[],[],[],[],793.1912,795.1871,795.1875,795.1881,[],[],[],[],[],[],[],,795.1882,795.1882,0,-0.415833359,0,0,0,,0,94,94,150,1,3,word,SENTIMENT,print,sentiment_p.png,,,,,,
,,,,31988,001,2025-10-16_12h01.06.365,HW_LDT_1,2024.2.4,Win32,60.24096386,,,,,,,,,,,,,,,,,,,,,,795.1905,795.3872,795.3872,795.8876,,,,,,,,,,,,,,3.0682,1,,,,,,,,,,,,,,z,,,,,,,,,,,,,,,96,0,795.8887,798.9585,z,1,3.0682,,[],[],[],[],[],[],[],798.9586,800.9537,800.9537,800.9543,[],[],[],[],[],[],[],,800.9543,800.9544,0,-0.415833359,0,0,0,,0,95,95,29,1,3,RL,selamor,cursive,selamor_c.png,,,,,,
,,,,31988,001,2025-10-16_12h01.06.365,HW_LDT_1,2024.2.4,Win32,60.24096386,,,,,,,,,,,,,,,,,,,,,,800.956,801.153,801.1532,801.6555,,,,,,,,,,,,,,1.0424,1,,,,,,,,,,,,,,m,,,,,,,,,,,,,,,97,1,801.6559,802.7023,m,1,1.0424,,[],[],[],[],[],[],[],802.7023,804.7027,804.7028,806.5081,[],[],[],[],[],[],[],m,806.5082,806.5083,0,-0.415833359,0,0,0,,0,96,96,156,1,3,word,TRIBUTE,print,tribute_p.png,1.8044,,,,,
,,,,31988,001,2025-10-16_12h01.06.365,HW_LDT_1,2024.2.4,Win32,60.24096386,,,,,,,,,,,,,,,,,,,,,,806.5106,806.7055,806.7056,807.2027,,,,,,,,,,,,,,3.1074,1,,,,,,,,,,,,,,m,,,,,,,,,,,,,,,98,1,807.2035,810.3128,m,1,3.1074,,[],[],[],[],[],[],[],810.3128,812.304,812.304,813.2025,[],[],[],[],[],[],[],z,813.2028,813.2034,0,-0.415833359,0,0,0,,0,97,97,121,1,3,word,MISTAKE,cursive,mistake_c.png,0.8975,,,,,
,,,,31988,001,2025-10-16_12h01.06.365,HW_LDT_1,2024.2.4,Win32,60.24096386,,,,,,,,,,,,,,,,,,,,,,813.2056,813.4024,813.4025,813.9027,,,,,,,,,,,,,,1.6024,1,,,,,,,,,,,,,,m,,,,,,,,,,,,,,,99,0,813.9035,815.5079,m,1,1.6024,,[],[],[],[],[],[],[],815.508,817.5079,817.5079,817.5083,[],[],[],[],[],[],[],,817.5083,817.5084,0,-0.415833359,0,0,0,,0,98,98,125,1,3,word,OPERATOR,print,operator_p.png,,,,,,
,,,,31988,001,2025-10-16_12h01.06.365,HW_LDT_1,2024.2.4,Win32,60.24096386,,,,,,,,,,,,,,,,,,,,,,817.5104,817.703,817.703,818.2023,,,,,,,,,,,,,,1.2365,1,,,,,,,,,,,,,,m,,,,,,,,,,,,,,,100,0,818.2034,819.4415,m,1,1.2365,,[],[],[],[],[],[],[],819.4416,821.4362,821.4363,821.4369,[],[],[],[],[],[],[],,821.4372,821.4375,0,-0.415833359,0,0,0,,0,99,99,98,1,3,word,CRIMINAL,print,criminal_p.png,,,,,,
,,,,31988,001,2025-10-16_12h01.06.365,HW_LDT_1,2024.2.4,Win32,60.24096386,,,,,,,,,,,,,,,,,,,,,,821.4395,821.6406,821.6406,822.1363,,,,,,,,,,,,,,3.7348,1,,,,,,,,,,,,,,z,,,,,,,,,,,,,,,101,0,822.1374,825.8738,z,1,3.7348,,[],[],[],[],[],[],[],825.8739,827.8692,827.8693,827.8702,[],[],[],[],[],[],[],,827.8703,827.8708,0,-0.415833359,0,0,0,,0,100,100,59,1,3,TL,paficic,cursive,paficic_c.png,,,,,,
,,,,31988,001,2025-10-16_12h01.06.365,HW_LDT_1,2024.2.4,Win32,60.24096386,,,,,,,,,,,,,,,,,,,,,,827.8727,828.0741,828.0741,828.5717,,,,,,,,,,,,,,3.6834,1,,,,,,,,,,,,,,z,,,,,,,,,,,,,,,102,0,828.5724,832.2573,z,1,3.6834,,[],[],[],[],[],[],[],832.2574,834.2516,834.2517,834.2523,[],[],[],[],[],[],[],,834.2524,834.2524,0,-0.415833359,0,0,0,,0,101,101,75,1,3,TL,sloten,cursive,sloten_c.png,,,,,,
,,,,31988,001,2025-10-16_12h01.06.365,HW_LDT_1,2024.2.4,Win32,60.24096386,,,,,,,,,,,,,,,,,,,,,,834.2545,834.4513,834.4513,834.9518,,,,,,,,,,,,,,2.8349,1,,,,,,,,,,,,,,z,,,,,,,,,,,,,,,103,0,834.9529,837.7896,z,1,2.8349,,[],[],[],[],[],[],[],837.7898,839.7851,839.7851,839.7853,[],[],[],[],[],[],[],,839.7854,839.7855,0,-0.415833359,0,0,0,,0,102,102,22,1,3,RL,procogal,print,procogal_p.png,,,,,,
,,,,31988,001,2025-10-16_12h01.06.365,HW_LDT_1,2024.2.4,Win32,60.24096386,,,,,,,,,,,,,,,,,,,,,,839.7884,839.9845,839.9846,840.4903,,,,,,,,,,,,,,4.963,1,,,,,,,,,,,,,,z,,,,,,,,,,,,,,,104,0,840.4909,845.4555,z,1,4.963,,[],[],[],[],[],[],[],845.4556,847.4508,847.4508,847.4512,[],[],[],[],[],[],[],,847.4513,847.4514,0,-0.415833359,0,0,0,,0,103,103,4,1,3,RL,cafigal,cursive,cafigal_c.png,,,,,,
,,,,31988,001,2025-10-16_12h01.06.365,HW_LDT_1,2024.2.4,Win32,60.24096386,,,,,,,,,,,,,,,,,,,,,,847.4535,847.6509,847.651,848.1512,,,,,,,,,,,,,,3.5369,0,,,,,,,,,,,,,,z,,,,,,,,,,,,,,,105,0,848.1525,851.6918,m,0,3.5369,,[],[],[],[],[],[],[],851.6919,853.6897,853.6897,853.69,[],[],[],[],[],[],[],,853.6901,853.6902,0,-0.415833359,0,0,0,,0,104,104,70,1,3,TL,remuse,cursive,remuse_c.png,,,,,,
,,,,31988,001,2025-10-16_12h01.06.365,HW_LDT_1,2024.2.4,Win32,60.24096386,,,,,,,,,,,,,,,,,,,,,,853.6928,853.8842,853.8843,854.3848,,,,,,,,,,,,,,1.5517,1,,,,,,,,,,,,,,m,,,,,,,,,,,,,,,106,0,854.3857,855.9395,m,1,1.5517,,[],[],[],[],[],[],[],855.9396,857.9342,857.9343,857.9352,[],[],[],[],[],[],[],,857.9353,857.9356,0,-0.415833359,0,0,0,,0,105,105,87,1,3,word,CAFETERIA,print,cafeteria_p.png,,,,,,
,,,,31988,001,2025-10-16_12h01.06.365,HW_LDT_1,2024.2.4,Win32,60.24096386,,,,,,,,,,,,,,,,,,,,,,857.9376,858.1339,858.1339,858.6342,,,,,,,,,,,,,,4.503,1,,,,,,,,,,,,,,z,,,,,,,,,,,,,,,107,1,858.6353,863.1411,z,1,4.503,,[],[],[],[],[],[],[],863.1412,865.1342,865.1347,866.4053,[],[],[],[],[],[],[],z,866.4053,866.4055,0,-0.415833359,0,0,0,,0,106,106,14,1,3,RL,lofase,cursive,lofase_c.png,1.2689,,,,,
,,,,31988,001,2025-10-16_12h01.06.365,HW_LDT_1,2024.2.4,Win32,60.24096386,,,,,,,,,,,,,,,,,,,,,,866.4076,866.6029,866.603,867.1004,,,,,,,,,,,,,,1.0241,1,,,,,,,,,,,,,,m,,,,,,,,,,,,,,,108,1,867.1012,868.1337,m,1,1.0241,,[],[],[],[],[],[],[],868.1339,870.1356,870.1356,873.0009,[],[],[],[],[],[],[],m,873.0012,873.0012,0,-0.415833359,0,0,0,,0,107,107,131,1,3,word,POPULAR,print,popular_p.png,2.8573,,,,,
,,,,31988,001,2025-10-16_12h01.06.365,HW_LDT_1,2024.2.4,Win32,60.24096386,,,,,,,,,,,,,,,,,,,,,,873.0036,873.1997,873.1998,873.7047,,,,,,,,,,,,,,4.551,0,,,,,,,,,,,,,,m,,,,,,,,,,,,,,,109,0,873.7052,878.267,z,0,4.551,,[],[],[],[],[],[],[],878.2675,880.271,880.2711,880.2713,[],[],[],[],[],[],[],,880.2713,880.2715,0,-0.415833359,0,0,0,,0,108,108,110,1,3,word,HERITAGE,cursive,heritage_c.png,,,,,,
,,,,31988,001,2025-10-16_12h01.06.365,HW_LDT_1,2024.2.4,Win32,60.24096386,,,,,,,,,,,,,,,,,,,,,,880.2734,880.4699,880.4699,880.9666,,,,,,,,,,,,,,2.2369,1,,,,,,,,,,,,,,m,,,,,,,,,,,,,,,110,0,880.9675,883.2058,m,1,2.2369,,[],[],[],[],[],[],[],883.206,885.1993,885.1993,885.1996,[],[],[],[],[],[],[],,885.1997,885.1998,0,-0.415833359,0,0,0,,0,109,109,158,1,3,word,VELOCITY,cursive,velocity_c.png,,,,,,
,,,,31988,001,2025-10-16_12h01.06.365,HW_LDT_1,2024.2.4,Win32,60.24096386,,,,,,,,,,,,,,,,,,,,,,885.2016,885.3995,885.3996,885.8991,,,,,,,,,,,,,,4.3692,1,,,,,,,,,,,,,,z,,,,,,,,,,,,,,,111,0,885.9003,890.2713,z,1,4.3692,,[],[],[],[],[],[],[],890.2714,892.2713,892.2713,892.2716,[],[],[],[],[],[],[],,892.2717,892.2718,0,-0.415833359,0,0,0,,0,110,110,66,1,3,TL,retalive,cursive,retalive_c.png,,,,,,
,,,,31988,001,2025-10-16_12h01.06.365,HW_LDT_1,2024.2.4,Win32,60.24096386,,,,,,,,,,,,,,,,,,,,,,892.2744,892.4655,892.4656,892.969,,,,,,,,,,,,,,1.1173,1,,,,,,,,,,,,,,z,,,,,,,,,,,,,,,112,1,892.9697,894.0889,z,1,1.1173,,[],[],[],[],[],[],[],894.089,896.0824,896.0825,897.1851,[],[],[],[],[],[],[],m,897.1851,897.1852,0,-0.415833359,0,0,0,,0,111,111,23,1,3,RL,quakity,print,quakity_p.png,1.101,,,,,
,,,,31988,001,2025-10-16_12h01.06.365,HW_LDT_1,2024.2.4,Win32,60.24096386,,,,,,,,,,,,,,,,,,,,,,897.1869,897.3821,897.3822,897.8822,,,,,,,,,,,,,,2.5893,1,,,,,,,,,,,,,,z,,,,,,,,,,,,,,,113,0,897.883,900.4822,z,1,2.5893,,[],[],[],[],[],[],[],900.4823,902.4705,902.4705,902.4707,[],[],[],[],[],[],[],,902.4708,902.4709,0,-0.415833359,0,0,0,,0,112,112,13,1,3,RL,helicage,cursive,helicage_c.png,,,,,,
,,,,31988,001,2025-10-16_12h01.06.365,HW_LDT_1,2024.2.4,Win32,60.24096386,,,,,,,,,,,,,,,,,,,,,,902.4736,902.6659,902.6661,903.1654,,,,,,,,,,,,,,3.5336,0,,,,,,,,,,,,,,m,,,,,,,,,,,,,,,114,0,903.1666,906.7022,z,0,3.5336,,[],[],[],[],[],[],[],906.7023,908.7032,908.7032,908.7034,[],[],[],[],[],[],[],,908.7035,908.7036,0,-0.415833359,0,0,0,,0,113,113,123,1,3,word,MODERATE,cursive,moderate_c.png,,,,,,
,,,,31988,001,2025-10-16_12h01.06.365,HW_LDT_1,2024.2.4,Win32,60.24096386,,,,,,,,,,,,,,,,,,,,,,908.7064,908.899,908.899,909.3988,,,,,,,,,,,,,,1.7208,1,,,,,,,,,,,,,,z,,,,,,,,,,,,,,,115,0,909.3997,911.1317,z,1,1.7208,,[],[],[],[],[],[],[],911.1318,913.1308,913.1309,913.131,[],[],[],[],[],[],[],,913.131,913.1311,0,-0.415833359,0,0,0,,0,114,114,45,1,3,TL,dentisy,print,dentisy_p.png,,,,,,
,,,,31988,001,2025-10-16_12h01.06.365,HW_LDT_1,2024.2.4,Win32,60.24096386,,,,,,,,,,,,,,,,,,,,,,913.1333,913.3316,913.3317,913.8312,,,,,,,,,,,,,,2.4094,1,,,,,,,,,,,,,,z,,,,,,,,,,,,,,,116,0,913.8325,916.2477,z,1,2.4094,,[],[],[],[],[],[],[],916.2478,918.2516,918.2517,918.2521,[],[],[],[],[],[],[],,918.2521,918.2523,0,-0.415833359,0,0,0,,0,115,115,18,1,3,RL,onegator,print,onegator_p.png,,,,,,
,,,,31988,001,2025-10-16_12h01.06.365,HW_LDT_1,2024.2.4,Win32,60.24096386,,,,,,,,,,,,,,,,,,,,,,918.2561,918.4478,918.4479,918.9476,,,,,,,,,,,,,,1.2657,1,,,,,,,,,,,,,,z,,,,,,,,,,,,,,,117,0,918.9484,920.2159,z,1,1.2657,,[],[],[],[],[],[],[],920.2159,922.2139,922.214,922.2142,[],[],[],[],[],[],[],,922.2143,922.2143,0,-0.415833359,0,0,0,,0,116,116,40,1,3,TL,condiser,print,condiser_p.png,,,,,,
,,,,31988,001,2025-10-16_12h01.06.365,HW_LDT_1,2024.2.4,Win32,60.24096386,,,,,,,,,,,,,,,,,,,,,,922.2162,922.4133,922.4134,922.9138,,,,,,,,,,,,,,1.163,1,,,,,,,,,,,,,,z,,,,,,,,,,,,,,,118,0,922.9145,924.081,z,1,1.163,,[],[],[],[],[],[],[],924.081,926.0689,926.0689,926.0691,[],[],[],[],[],[],[],,926.0692,926.0694,0,-0.415833359,0,0,0,,0,117,117,65,1,3,TL,resufal,print,resufal_p.png,,,,,,
,,,,31988,001,2025-10-16_12h01.06.365,HW_LDT_1,2024.2.4,Win32,60.24096386,,,,,,,,,,,,,,,,,,,,,,926.071,926.2642,926.2643,926.7671,,,,,,,,,,,,,,1.6015,1,,,,,,,,,,,,,,m,,,,,,,,,,,,,,,119,1,926.7678,928.3708,m,1,1.6015,,[],[],[],[],[],[],[],928.371,930.3644,930.3645,931.2464,[],[],[],[],[],[],[],z,931.2465,931.2467,0,-0.415833359,0,0,0,,0,118,118,136,1,3,word,RADICAL,cursive,radical_c.png,0.877,,,,,
,,,,31988,001,2025-10-16_12h01.06.365,HW_LDT_1,2024.2.4,Win32,60.24096386,,,,,,,,,,,,,,,,,,,,,,931.2483,931.4363,931.4364,931.947,,,,,,,,,,,,,,1.0081,1,,,,,,,,,,,,,,z,,,,,,,,,,,,,,,120,0,931.9477,932.9641,z,1,1.0081,,[],[],[],[],[],[],[],932.9643,934.9685,934.969,934.9692,[],[],[],[],[],[],[],,934.9693,934.9694,0,-0.415833359,0,0,0,,0,119,119,26,1,3,RL,repifion,print,repifion_p.png,,,,,,
,,,,31988,001,2025-10-16_12h01.06.365,HW_LDT_1,2024.2.4,Win32,60.24096386,,,,,,,,,,,,,,,,,,,,,,934.9718,935.1691,935.1692,935.6691,,,,,,,,,,,,,,1.1145,1,,,,,,,,,,,,,,m,,,,,,,,,,,,,,,121,0,935.6698,936.7872,m,1,1.1145,,[],[],[],[],[],[],[],936.7874,938.7804,938.7804,938.7814,[],[],[],[],[],[],[],,938.7815,938.7816,0,-0.415833359,0,0,0,,0,120,120,111,1,3,word,INDICATE,print,indicate_p.png,,,,,,
,,,,31988,001,2025-10-16_12h01.06.365,HW_LDT_1,2024.2.4,Win32,60.24096386,,,,,,,,,,,,,,,,,,,,,,938.7837,938.9807,938.9808,939.4806,,,,,,,,,,,,,,1.6855,1,,,,,,,,,,,,,,m,,,,,,,,,,,,,,,122,0,939.4814,941.1683,m,1,1.6855,,[],[],[],[],[],[],[],941.1684,943.1636,943.1637,943.1641,[],[],[],[],[],[],[],,943.1642,943.1643,0,-0.415833359,0,0,0,,0,121,121,83,1,3,word,ANIMAL,cursive,animal_c.png,,,,,,
,,,,31988,001,2025-10-16_12h01.06.365,HW_LDT_1,2024.2.4,Win32,60.24096386,,,,,,,,,,,,,,,,,,,,,,943.1666,943.363,943.3631,943.8623,,,,,,,,,,,,,,1.3207,0,,,,,,,,,,,,,,m,,,,,,,,,,,,,,,123,0,943.863,945.1858,z,0,1.3207,,[],[],[],[],[],[],[],945.1859,947.1799,947.18,947.1802,[],[],[],[],[],[],[],,947.1804,947.1809,0,-0.415833359,0,0,0,,0,122,122,102,1,3,word,DENSITY,print,density_p.png,,,,,,
,,,,31988,001,2025-10-16_12h01.06.365,HW_LDT_1,2024.2.4,Win32,60.24096386,,,,,,,,,,,,,,,,,,,,,,947.1831,947.383,947.3831,947.8788,,,,,,,,,,,,,,1.3745,1,,,,,,,,,,,,,,m,,,,,,,,,,,,,,,124,0,947.8796,949.2637,m,1,1.3745,,[],[],[],[],[],[],[],949.2638,951.2618,951.262,951.2622,[],[],[],[],[],[],[],,951.2622,951.2623,0,-0.415833359,0,0,0,,0,123,123,119,1,3,word,MEMORY,print,memory_p.png,,,,,,
,,,,31988,001,2025-10-16_12h01.06.365,HW_LDT_1,2024.2.4,Win32,60.24096386,,,,,,,,,,,,,,,,,,,,,,951.2633,951.4645,951.4645,951.9616,,,,,,,,,,,,,,1.0948,1,,,,,,,,,,,,,,m,,,,,,,,,,,,,,,125,1,951.9622,953.0621,m,1,1.0948,,[],[],[],[],[],[],[],953.0622,955.0497,955.0498,957.1794,[],[],[],[],[],[],[],m,957.1796,957.1797,0,-0.415833359,0,0,0,,0,124,124,97,1,3,word,COVERAGE,print,coverage_p.png,2.1244,,,,,
,,,,31988,001,2025-10-16_12h01.06.365,HW_LDT_1,2024.2.4,Win32,60.24096386,,,,,,,,,,,,,,,,,,,,,,957.1822,957.3845,957.3845,957.8849,,,,,,,,,,,,,,1.7313,1,,,,,,,,,,,,,,m,,,,,,,,,,,,,,,126,0,957.8854,959.6192,m,1,1.7313,,[],[],[],[],[],[],[],959.6194,961.616,961.616,961.6162,[],[],[],[],[],[],[],,961.6163,961.6163,-0.0125,-0.4625,0,0,0,,0,125,125,130,1,3,word,POLICY,print,policy_p.png,,,,,,
,,,,31988,001,2025-10-16_12h01.06.365,HW_LDT_1,2024.2.4,Win32,60.24096386,,,,,,,,,,,,,,,,,,,,,,961.6187,961.8149,961.815,962.3125,,,,,,,,,,,,,,4.0211,1,,,,,,,,,,,,,,z,,,,,,,,,,,,,,,127,0,962.3137,966.3462,z,1,4.0211,,[],[],[],[],[],[],[],966.3463,968.345,968.345,968.3453,[],[],[],[],[],[],[],,968.3453,968.3456,-0.0125,-0.465,0,0,0,,0,126,126,17,1,3,RL,motide,cursive,motide_c.png,,,,,,
,,,,31988,001,2025-10-16_12h01.06.365,HW_LDT_1,2024.2.4,Win32,60.24096386,,,,,,,,,,,,,,,,,,,,,,968.3478,968.5457,968.5458,969.046,,,,,,,,,,,,,,1.0031,1,,,,,,,,,,,,,,m,,,,,,,,,,,,,,,128,0,969.0469,970.0515,m,1,1.0031,,[],[],[],[],[],[],[],970.0516,972.0454,972.0454,972.0465,[],[],[],[],[],[],[],,972.0465,972.0467,-0.0125,-0.465,0,0,0,,0,127,127,113,1,3,word,LITERAL,print,literal_p.png,,,,,,
,,,,31988,001,2025-10-16_12h01.06.365,HW_LDT_1,2024.2.4,Win32,60.24096386,,,,,,,,,,,,,,,,,,,,,,972.049,972.2459,972.246,972.7453,,,,,,,,,,,,,,0.8569,1,,,,,,,,,,,,,,z,,,,,,,,,,,,,,,129,0,972.7466,973.6121,z,1,0.8569,,[],[],[],[],[],[],[],973.6122,975.6118,975.6118,975.612,[],[],[],[],[],[],[],,975.6123,975.6125,-0.0125,-0.465,0,0,0,,0,128,128,9,1,3,RL,docirant,print,docirant_p.png,,,,,,
,,,,31988,001,2025-10-16_12h01.06.365,HW_LDT_1,2024.2.4,Win32,60.24096386,,,,,,,,,,,,,,,,,,,,,,975.6151,975.8125,975.8126,976.3119,,,,,,,,,,,,,,1.5676,1,,,,,,,,,,,,,,z,,,,,,,,,,,,,,,130,0,976.3131,977.8826,z,1,1.5676,,[],[],[],[],[],[],[],977.8827,979.8828,979.8829,979.8832,[],[],[],[],[],[],[],,979.8833,979.8834,-0.0125,-0.465,0,0,0,,0,129,129,62,1,3,TL,prodive,print,prodive_p.png,,,,,,
,,,,31988,001,2025-10-16_12h01.06.365,HW_LDT_1,2024.2.4,Win32,60.24096386,,,,,,,,,,,,,,,,,,,,,,979.8856,980.0838,980.0838,980.5784,,,,,,,,,,,,,,3.3864,1,,,,,,,,,,,,,,z,,,,,,,,,,,,,,,131,0,980.5794,983.9683,z,1,3.3864,,[],[],[],[],[],[],[],983.9683,985.9653,985.9653,985.9655,[],[],[],[],[],[],[],,985.9656,985.9657,-0.0125,-0.465,0,0,0,,0,130,130,1,1,3,RL,bewoted,cursive,bewoted_c.png,,,,,,
,,,,31988,001,2025-10-16_12h01.06.365,HW_LDT_1,2024.2.4,Win32,60.24096386,,,,,,,,,,,,,,,,,,,,,,985.968,986.1616,986.1619,986.6618,,,,,,,,,,,,,,1.477,1,,,,,,,,,,,,,,m,,,,,,,,,,,,,,,132,0,986.6628,988.1453,m,1,1.477,,[],[],[],[],[],[],[],988.1454,990.1483,990.1483,990.1486,[],[],[],[],[],[],[],,990.1487,990.1487,-0.0125,-0.465,0,0,0,,0,131,131,144,1,3,word,RESIDENT,cursive,resident_c.png,,,,,,
,,,,31988,001,2025-10-16_12h01.06.365,HW_LDT_1,2024.2.4,Win32,60.24096386,,,,,,,,,,,,,,,,,,,,,,990.1507,990.3452,990.3452,990.8447,,,,,,,,,,,,,,0.9371,1,,,,,,,,,,,,,,z,,,,,,,,,,,,,,,133,0,990.8458,991.7846,z,1,0.9371,,[],[],[],[],[],[],[],991.7848,993.778,993.7781,993.7786,[],[],[],[],[],[],[],,993.7787,993.7788,-0.0125,-0.465,0,0,0,,0,132,132,10,1,3,RL,efibor,print,efibor_p.png,,,,,,
,,,,31988,001,2025-10-16_12h01.06.365,HW_LDT_1,2024.2.4,Win32,60.24096386,,,,,,,,,,,,,,,,,,,,,,993.7806,993.9778,993.9779,994.4767,,,,,,,,,,,,,,1.345,1,,,,,,,,,,,,,,m,,,,,,,,,,,,,,,134,0,994.4774,995.8269,m,1,1.345,,[],[],[],[],[],[],[],995.827,997.8319,997.832,997.8322,[],[],[],[],[],[],[],,997.8324,997.8324,-0.0125,-0.465,0,0,0,,0,133,133,159,1,3,word,VETERAN,cursive,veteran_c.png,,,,,,
,,,,31988,001,2025-10-16_12h01.06.365,HW_LDT_1,2024.2.4,Win32,60.24096386,,,,,,,,,,,,,,,,,,,,,,997.8349,998.0273,998.0273,998.5268,,,,,,,,,,,,,,1.1554,1,,,,,,,,,,,,,,m,,,,,,,,,,,,,,,135,0,998.5282,999.6938,m,1,1.1554,,[],[],[],[],[],[],[],999.694,1001.6993,1001.6993,1001.6996,[],[],[],[],[],[],[],,1001.6997,1001.6998,-0.0125,-0.465,0,0,0,,0,134,134,80,1,3,word,ACADEMY,print,academy_p.png,,,,,,
,,,,31988,001,2025-10-16_12h01.06.365,HW_LDT_1,2024.2.4,Win32,60.24096386,,,,,,,,,,,,,,,,,,,,,,1001.7018,1001.8938,1001.8939,1002.3939,,,,,,,,,,,,,,1.5708,1,,,,,,,,,,,,,,z,,,,,,,,,,,,,,,136,0,1002.3947,1003.9671,z,1,1.5708,,[],[],[],[],[],[],[],1003.9673,1005.9633,1005.9634,1005.9636,[],[],[],[],[],[],[],,1005.9636,1005.9638,-0.0125,-0.465,0,0,0,,0,135,135,30,1,3,RL,strapely,print,strapely_p.png,,,,,,
,,,,31988,001,2025-10-16_12h01.06.365,HW_LDT_1,2024.2.4,Win32,60.24096386,,,,,,,,,,,,,,,,,,,,,,1005.9661,1006.1608,1006.1609,1006.6605,,,,,,,,,,,,,,2.8697,1,,,,,,,,,,,,,,z,,,,,,,,,,,,,,,137,1,1006.6617,1009.5337,z,1,2.8697,,[],[],[],[],[],[],[],1009.5338,1011.5266,1011.5267,1012.8599,[],[],[],[],[],[],[],z,1012.8602,1012.8604,-0.0125,-0.465,0,0,0,,0,136,136,19,1,3,RL,opcifal,cursive,opcifal_c.png,1.3286,,,,,
,,,,31988,001,2025-10-16_12h01.06.365,HW_LDT_1,2024.2.4,Win32,60.24096386,,,,,,,,,,,,,,,,,,,,,,1012.8626,1013.0591,1013.0592,1013.5602,,,,,,,,,,,,,,2.0186,1,,,,,,,,,,,,,,m,,,,,,,,,,,,,,,138,0,1013.5613,1015.5818,m,1,2.0186,,[],[],[],[],[],[],[],1015.5819,1017.5757,1017.5758,1017.576,[],[],[],[],[],[],[],,1017.576,1017.5761,-0.0125,-0.465,0,0,0,,0,137,137,94,1,3,word,CLINICAL,print,clinical_p.png,,,,,,
,,,,31988,001,2025-10-16_12h01.06.365,HW_LDT_1,2024.2.4,Win32,60.24096386,,,,,,,,,,,,,,,,,,,,,,1017.5787,1017.7765,1017.7767,1018.2644,,,,,,,,,,,,,,0.872,1,,,,,,,,,,,,,,z,,,,,,,,,,,,,,,139,0,1018.2653,1019.1431,z,1,0.872,,[],[],[],[],[],[],[],1019.1433,1021.1421,1021.1421,1021.1424,[],[],[],[],[],[],[],,1021.1425,1021.1426,-0.0125,-0.465,0,0,0,,0,138,138,24,1,3,RL,quafidy,print,quafidy_p.png,,,,,,
,,,,31988,001,2025-10-16_12h01.06.365,HW_LDT_1,2024.2.4,Win32,60.24096386,,,,,,,,,,,,,,,,,,,,,,1021.1444,1021.3426,1021.3426,1021.842,,,,,,,,,,,,,,2.9275,1,,,,,,,,,,,,,,z,,,,,,,,,,,,,,,140,0,1021.8424,1024.7754,z,1,2.9275,,[],[],[],[],[],[],[],1024.7755,1026.7783,1026.7783,1026.7784,[],[],[],[],[],[],[],,1026.7785,1026.7786,-0.0125,-0.465,0,0,0,,0,139,139,3,1,3,RL,bebine,cursive,bebine_c.png,,,,,,
,,,,31988,001,2025-10-16_12h01.06.365,HW_LDT_1,2024.2.4,Win32,60.24096386,,,,,,,,,,,,,,,,,,,,,,1026.78,1026.9751,1026.9751,1027.4764,,,,,,,,,,,,,,0.9602,1,,,,,,,,,,,,,,z,,,,,,,,,,,,,,,141,1,1027.4774,1028.4426,z,1,0.9602,,[],[],[],[],[],[],[],1028.4427,1030.4416,1030.4416,1032.1431,[],[],[],[],[],[],[],z,1032.1432,1032.1432,-0.0125,-0.465,0,0,0,,0,140,140,21,1,3,RL,potugar,print,potugar_p.png,1.6895,,,,,
,,,,31988,001,2025-10-16_12h01.06.365,HW_LDT_1,2024.2.4,Win32,60.24096386,,,,,,,,,,,,,,,,,,,,,,1032.1446,1032.342,1032.342,1032.8415,,,,,,,,,,,,,,2.2864,1,,,,,,,,,,,,,,z,,,,,,,,,,,,,,,142,0,1032.8422,1035.1299,z,1,2.2864,,[],[],[],[],[],[],[],1035.13,1037.1262,1037.1264,1037.1269,[],[],[],[],[],[],[],,1037.1269,1037.127,-0.0125,-0.465,0,0,0,,0,141,141,46,1,3,TL,distupe,print,distupe_p.png,,,,,,
,,,,31988,001,2025-10-16_12h01.06.365,HW_LDT_1,2024.2.4,Win32,60.24096386,,,,,,,,,,,,,,,,,,,,,,1037.1292,1037.3255,1037.3256,1037.8246,,,,,,,,,,,,,,2.9407,1,,,,,,,,,,,,,,z,,,,,,,,,,,,,,,143,1,1037.8251,1040.7758,z,1,2.9407,,[],[],[],[],[],[],[],1040.7762,1042.7754,1042.7755,1043.7461,[],[],[],[],[],[],[],z,1043.7462,1043.7465,-0.0125,-0.465,0,0,0,,0,142,142,71,1,3,TL,sanile,cursive,sanile_c.png,0.9695,,,,,
,,,,31988,001,2025-10-16_12h01.06.365,HW_LDT_1,2024.2.4,Win32,60.24096386,,,,,,,,,,,,,,,,,,,,,,1043.7484,1043.9422,1043.9423,1044.4422,,,,,,,,,,,,,,5.7668,1,,,,,,,,,,,,,,z,,,,,,,,,,,,,,,144,0,1044.4432,1050.2119,z,1,5.7668,,[],[],[],[],[],[],[],1050.212,1052.2133,1052.2134,1052.2137,[],[],[],[],[],[],[],,1052.2138,1052.2139,-0.0125,-0.465,0,0,0,,0,143,143,57,1,3,TL,moredate,cursive,moredate_c.png,,,,,,
,,,,31988,001,2025-10-16_12h01.06.365,HW_LDT_1,2024.2.4,Win32,60.24096386,,,,,,,,,,,,,,,,,,,,,,1052.2159,1052.4084,1052.4084,1052.9086,,,,,,,,,,,,,,1.3779,1,,,,,,,,,,,,,,z,,,,,,,,,,,,,,,145,0,1052.9099,1054.291,z,1,1.3779,,[],[],[],[],[],[],[],1054.2912,1056.2799,1056.28,1056.2802,[],[],[],[],[],[],[],,1056.2802,1056.2803,-0.0125,-0.465,0,0,0,,0,144,144,78,1,3,TL,vecolity,cursive,vecolity_c.png,,,,,,
,,,,31988,001,2025-10-16_12h01.06.365,HW_LDT_1,2024.2.4,Win32,60.24096386,,,,,,,,,,,,,,,,,,,,,,1056.2829,1056.4795,1056.4796,1056.9753,,,,,,,,,,,,,,1.5002,1,,,,,,,,,,,,,,z,,,,,,,,,,,,,,,146,0,1056.9764,1058.4789,z,1,1.5002,,[],[],[],[],[],[],[],1058.4791,1060.4752,1060.4752,1060.4758,[],[],[],[],[],[],[],,1060.4759,1060.476,-0.0125,-0.465,0,0,0,,0,145,145,55,1,3,TL,mecidine,print,mecidine_p.png,,,,,,
,,,,31988,001,2025-10-16_12h01.06.365,HW_LDT_1,2024.2.4,Win32,60.24096386,,,,,,,,,,,,,,,,,,,,,,1060.4783,1060.6803,1060.6803,1061.1799,,,,,,,,,,,,,,5.6217,1,,,,,,,,,,,,,,z,,,,,,,,,,,,,,,147,0,1061.1807,1066.8068,z,1,5.6217,,[],[],[],[],[],[],[],1066.8069,1068.8105,1068.8105,1068.8109,[],[],[],[],[],[],[],,1068.8109,1068.8111,-0.0125,-0.465,0,0,0,,0,146,146,20,1,3,RL,orimipal,cursive,orimipal_c.png,,,,,,
,,,,31988,001,2025-10-16_12h01.06.365,HW_LDT_1,2024.2.4,Win32,60.24096386,,,,,,,,,,,,,,,,,,,,,,1068.8132,1069.0065,1069.0065,1069.5129,,,,,,,,,,,,,,1.4133,1,,,,,,,,,,,,,,m,,,,,,,,,,,,,,,148,0,1069.5136,1070.9288,m,1,1.4133,,[],[],[],[],[],[],[],1070.9288,1072.9228,1072.9229,1072.9233,[],[],[],[],[],[],[],,1072.9233,1072.9235,-0.0125,-0.465,0,0,0,,0,147,147,115,1,3,word,LOGICAL,cursive,logical_c.png,,,,,,
,,,,31988,001,2025-10-16_12h01.06.365,HW_LDT_1,2024.2.4,Win32,60.24096386,,,,,,,,,,,,,,,,,,,,,,1072.9255,1073.1247,1073.1248,1073.6241,,,,,,,,,,,,,,1.4253,1,,,,,,,,,,,,,,z,,,,,,,,,,,,,,,149,0,1073.6256,1075.0577,z,1,1.4253,,[],[],[],[],[],[],[],1075.0578,1077.0573,1077.0574,1077.0577,[],[],[],[],[],[],[],,1077.0578,1077.0579,-0.0125,-0.465,0,0,0,,0,148,148,64,1,3,TL,radiply,print,radiply_p.png,,,,,,
,,,,31988,001,2025-10-16_12h01.06.365,HW_LDT_1,2024.2.4,Win32,60.24096386,,,,,,,,,,,,,,,,,,,,,,1077.0603,1077.2569,1077.2571,1077.7456,,,,,,,,,,,,,,0.8652,1,,,,,,,,,,,,,,z,,,,,,,,,,,,,,,150,1,1077.7463,1078.6232,z,1,0.8652,,[],[],[],[],[],[],[],1078.6233,1080.6116,1080.6117,1081.8069,[],[],[],[],[],[],[],m,1081.8073,1081.8077,-0.0125,-0.465,0,0,0,,0,149,149,8,1,3,RL,cocewage,print,cocewage_p.png,1.1841,,,,,
,,,,31988,001,2025-10-16_12h01.06.365,HW_LDT_1,2024.2.4,Win32,60.24096386,,,,,,,,,,,,,,,,,,,,,,1081.8101,1082.01,1082.0101,1082.5066,,,,,,,,,,,,,,1.4049,1,,,,,,,,,,,,,,m,,,,,,,,,,,,,,,151,0,1082.5078,1083.9242,m,1,1.4049,,[],[],[],[],[],[],[],1083.9244,1085.9286,1085.9287,1085.929,[],[],[],[],[],[],[],,1085.929,1085.9292,-0.0125,-0.465,0,0,0,,0,150,150,105,1,3,word,EDITOR,print,editor_p.png,,,,,,
,,,,31988,001,2025-10-16_12h01.06.365,HW_LDT_1,2024.2.4,Win32,60.24096386,,,,,,,,,,,,,,,,,,,,,,1085.9316,1086.1224,1086.1225,1086.6228,,,,,,,,,,,,,,5.9027,0,,,,,,,,,,,,,,m,,,,,,,,,,,,,,,152,0,1086.6235,1092.5292,z,0,5.9027,,[],[],[],[],[],[],[],1092.5292,1094.5217,1094.5219,1094.5221,[],[],[],[],[],[],[],,1094.5222,1094.5222,-0.0125,-0.465,0,0,0,,0,151,151,108,1,3,word,FORTUNE,cursive,fortune_c.png,,,,,,
,,,,31988,001,2025-10-16_12h01.06.365,HW_LDT_1,2024.2.4,Win32,60.24096386,,,,,,,,,,,,,,,,,,,,,,1094.5245,1094.7276,1094.7277,1095.2105,,,,,,,,,,,,,,1.099,1,,,,,,,,,,,,,,z,,,,,,,,,,,,,,,153,0,1095.2111,1096.3119,z,1,1.099,,[],[],[],[],[],[],[],1096.312,1098.3097,1098.3102,1098.3104,[],[],[],[],[],[],[],,1098.3105,1098.3105,-0.0125,-0.465,0,0,0,,0,152,152,31,1,3,RL,trilude,print,trilude_p.png,,,,,,
,,,,31988,001,2025-10-16_12h01.06.365,HW_LDT_1,2024.2.4,Win32,60.24096386,,,,,,,,,,,,,,,,,,,,,,1098.3128,1098.5062,1098.5064,1099.0115,,,,,,,,,,,,,,2.0251,1,,,,,,,,,,,,,,z,,,,,,,,,,,,,,,154,1,1099.0122,1101.0395,z,1,2.0251,,[],[],[],[],[],[],[],1101.0397,1103.0428,1103.0429,1105.5615,[],[],[],[],[],[],[],z,1105.5616,1105.5616,-0.0125,-0.465,0,0,0,,0,153,153,72,1,3,TL,senmitent,print,senmitent_p.png,2.5174,,,,,
,,,,31988,001,2025-10-16_12h01.06.365,HW_LDT_1,2024.2.4,Win32,60.24096386,,,,,,,,,,,,,,,,,,,,,,1105.5637,1105.7592,1105.7592,1106.2597,,,,,,,,,,,,,,1.933,1,,,,,,,,,,,,,,m,,,,,,,,,,,,,,,155,0,1106.2605,1108.1946,m,1,1.933,,[],[],[],[],[],[],[],1108.1947,1110.1892,1110.1893,1110.1899,[],[],[],[],[],[],[],,1110.1899,1110.1901,-0.0125,-0.465,0,0,0,,0,154,154,84,1,3,word,BELOVED,cursive,beloved_c.png,,,,,,
,,,,31988,001,2025-10-16_12h01.06.365,HW_LDT_1,2024.2.4,Win32,60.24096386,,,,,,,,,,,,,,,,,,,,,,1110.1923,1110.389,1110.389,1110.8941,,,,,,,,,,,,,,1.124,1,,,,,,,,,,,,,,m,,,,,,,,,,,,,,,156,0,1110.8947,1112.0219,m,1,1.124,,[],[],[],[],[],[],[],1112.022,1114.0224,1114.0224,1114.0227,[],[],[],[],[],[],[],,1114.0228,1114.0232,-0.0125,-0.465,0,0,0,,0,155,155,101,1,3,word,DELICATE,print,delicate_p.png,,,,,,
,,,,31988,001,2025-10-16_12h01.06.365,HW_LDT_1,2024.2.4,Win32,60.24096386,,,,,,,,,,,,,,,,,,,,,,1114.0255,1114.2223,1114.2224,1114.7214,,,,,,,,,,,,,,1.6363,1,,,,,,,,,,,,,,z,,,,,,,,,,,,,,,157,0,1114.7234,1116.3616,z,1,1.6363,,[],[],[],[],[],[],[],1116.3616,1118.3551,1118.3552,1118.3555,[],[],[],[],[],[],[],,1118.3556,1118.3557,-0.0125,-0.465,0,0,0,,0,156,156,41,1,3,TL,crinimal,print,crinimal_p.png,,,,,,
,,,,31988,001,2025-10-16_12h01.06.365,HW_LDT_1,2024.2.4,Win32,60.24096386,,,,,,,,,,,,,,,,,,,,,,1118.3583,1118.5554,1118.5554,1119.0556,,,,,,,,,,,,,,1.0287,1,,,,,,,,,,,,,,m,,,,,,,,,,,,,,,158,0,1119.0565,1120.0883,m,1,1.0287,,[],[],[],[],[],[],[],1120.0884,1122.0885,1122.0885,1122.0889,[],[],[],[],[],[],[],,1122.089,1122.089,-0.0125,-0.465,0,0,0,,0,157,157,142,1,3,word,REMOTE,print,remote_p.png,,,,,,
,,,,31988,001,2025-10-16_12h01.06.365,HW_LDT_1,2024.2.4,Win32,60.24096386,,,,,,,,,,,,,,,,,,,,,,1122.0915,1122.2929,1122.293,1122.7883,,,,,,,,,,,,,,2.3484,1,,,,,,,,,,,,,,m,,,,,,,,,,,,,,,159,0,1122.7891,1125.1397,m,1,2.3484,,[],[],[],[],[],[],[],1125.1398,1127.1423,1127.1424,1127.1427,[],[],[],[],[],[],[],,1127.1427,1127.1429,-0.0125,-0.465,0,0,0,,0,158,158,99,1,3,word,DEBATE,cursive,debate_c.png,,,,,,
,,,,31988,001,2025-10-16_12h01.06.365,HW_LDT_1,2024.2.4,Win32,60.24096386,,,,,,,,,,,,,,,,,,,,,,1127.1454,1127.3381,1127.3384,1127.8369,,,,,,,,,,,,,,2.6207,1,,,,,,,,,,,,,,z,,,,,,,,,,,,,,,160,0,1127.8376,1130.4601,z,1,2.6207,,[],[],[],[],[],[],[],1130.4603,1132.454,1132.4541,1132.4544,[],[],[],[],[],[],[],,1132.4544,1132.4544,-0.0125,-0.465,0,0,0,,0,159,159,5,1,3,RL,capefory,cursive,capefory_c.png,,,,,,
,,,,31988,001,2025-10-16_12h01.06.365,HW_LDT_1,2024.2.4,Win32,60.24096386,,,,,,,,,,,,,,,,,,,,,,,,,,,,,,,,,,,,,,,,,,,,,,,,,,,,,,,,,,,,,,,,,,,,,,,,,,,,,,,,,,,,,,,,,,,,,,,,,,,,,,,,,,,,,,,,,,,,,,1132.4656,1137.4545
