counterbalance_lists.group,counterbalance_lists.remaining,get_list.started,get_list.stopped,participant,session,date,expName,psychopyVersion,OS,frameRate,Instructions.started,Instructions.stopped,key_resp.keys,instr_done_touch.x,instr_done_touch.y,instr_done_touch.leftButton,instr_done_touch.midButton,instr_done_touch.rightButton,instr_done_touch.clicked_name,start_instr.thisRepN,start_instr.thisTrialN,start_instr.thisN,start_instr.thisIndex,start_instr.ran,pageN,phase,instruct_text,has_image,instruct_image,key_resp.rt,key_resp.duration,showProgress.started,showProgress.stopped,fix.started,fix.stopped,prac.started,prac.stopped,response.keys,response.corr,response.rt,response.duration,touch_resp.x,touch_resp.y,touch_resp.leftButton,touch_resp.midButton,touch_resp.rightButton,touch_resp.time,touch_resp.clicked_name,rt,corr,feedback.started,feedback.stopped,trials.thisRepN,trials.thisTrialN,trials.thisN,trials.thisIndex,trials.ran,TrialID,StimulusType,Condition,PrimeDuration,Prime,Target,corrAns,Instructions_expt.started,Instructions_expt.stopped,key_resp_3.keys,key_resp_3.rt,key_resp_3.duration,instr_done_touch_3.x,instr_done_touch_3.y,instr_done_touch_3.leftButton,instr_done_touch_3.midButton,instr_done_touch_3.rightButton,instr_experiment.thisRepN,instr_experiment.thisTrialN,instr_experiment.thisN,instr_experiment.thisIndex,instr_experiment.ran,trialID,flag,maintask.started,maintask.stopped,key_resp_2.keys,key_resp_2.corr,key_resp_2.rt,key_resp_2.duration,targ_click.x,targ_click.y,targ_click.leftButton,targ_click.midButton,targ_click.rightButton,targ_click.time,targ_click.clicked_name,ITI.started,ITI.stopped,probe.started,probe.stopped,click_probe.x,click_probe.y,click_probe.leftButton,click_probe.midButton,click_probe.rightButton,click_probe.time,click_probe.clicked_name,key_resp_probe.keys,Break.started,Break.stopped,break_done_touch.x,break_done_touch.y,break_done_touch.leftButton,break_done_touch.midButton,break_done_touch.rightButton,break_done_keyboard.keys,list4_trials.thisRepN,list4_trials.thisTrialN,list4_trials.thisN,list4_trials.thisIndex,list4_trials.ran,list_id,item_type,string,font,stim_file,key_resp_probe.rt,key_resp_probe.duration,break_done_keyboard.rt,break_done_keyboard.duration,End.started,End.stopped
list4,,0.411,0.411,31990,001,2025-12-02_10h45.51.141,HW_LDT_1,2024.2.4,iPad,43.47826087,,,,,,,,,,,,,,,,,,,,,,,,,,,,,,,,,,,,,,,,,,,,,,,,,,,,,,,,,,,,,,,,,,,,,,,,,,,,,,,,,,,,,,,,,,,,,,,,,,,,,,,,,,,,,,,,,,,,,,,,
,,,,31990,001,2025-12-02_10h45.51.141,HW_LDT_1,2024.2.4,iPad,43.47826087,0.431,23.902,,-0.107921929,-0.390929966,1,0,0,instr_done_button,0,0,0,0,1,1,instructions,"INSTRUCTIONS
At the start of each trial, look at the plus sign  (+) in the center of the screen.  This tells you that a trial is about to begin and where to look. Second, the plus sign will disappear and a string of letters will appear. Your task is to determine if the string of letters is a word or not. If the item is a word press the M key (on keyboard)  or touch the word button (phone/tablet).  If the item is not a word,  press the  Z key (on keyboard)  or touch the nonword button (on phone/tablet). The items will be presented for a short time. 
Press the space bar or touch  continue.",0,,,,,,,,,,,,,,,,,,,,,,,,,,,,,,,,,,,,,,,,,,,,,,,,,,,,,,,,,,,,,,,,,,,,,,,,,,,,,,,,,,,,,,,,,,,,,,,,,,,,,,
,,,,31990,001,2025-12-02_10h45.51.141,HW_LDT_1,2024.2.4,iPad,43.47826087,23.903,35.126,space,-0.791044776,0.501148106,0,0,0,,0,1,1,1,1,2,instructions,"If your device has a keyboard, press the 'Z' key for nonwords and the 'M' key for words.





Press the space bar or touch the button below to continue.",0,keyboard-example.gif,11.183,,,,,,,,,,,,,,,,,,,,,,,,,,,,,,,,,,,,,,,,,,,,,,,,,,,,,,,,,,,,,,,,,,,,,,,,,,,,,,,,,,,,,,,,,,,,,,,,,,,,
,,,,31990,001,2025-12-02_10h45.51.141,HW_LDT_1,2024.2.4,iPad,43.47826087,35.127,39.691,space,-0.791044776,0.501148106,0,0,0,,0,2,2,2,1,3,instructions,"If you are using a touchscreen only device, use the buttons on the screen. Do not use the mouse.





Press the space bar or touch the button below to continue.",0,touchscreen-example.gif,4.54,,,,,,,,,,,,,,,,,,,,,,,,,,,,,,,,,,,,,,,,,,,,,,,,,,,,,,,,,,,,,,,,,,,,,,,,,,,,,,,,,,,,,,,,,,,,,,,,,,,,
,,,,31990,001,2025-12-02_10h45.51.141,HW_LDT_1,2024.2.4,iPad,43.47826087,39.692,47.929,space,-0.791044776,0.501148106,0,0,0,,0,3,3,3,1,4,instructions,"It is very important that you respond as quickly and accurately as possible, as each letter string will only be on the screen for two seconds. If you do not respond within this time, the message 'Too slow!' will be displayed and the experiment will progress to the next letter string. The first 20 trials will be practice trials and you will receive feedback on your answers. 

Press the space bar or touch the button below to start the practice trials.",0,,8.209,,,,,,,,,,,,,,,,,,,,,,,,,,,,,,,,,,,,,,,,,,,,,,,,,,,,,,,,,,,,,,,,,,,,,,,,,,,,,,,,,,,,,,,,,,,,,,,,,,,,
,,,,31990,001,2025-12-02_10h45.51.141,HW_LDT_1,2024.2.4,iPad,43.47826087,,,,,,,,,,,,,,,,,,,,,,47.944,48.129,48.13,48.63,48.63,50.056,z,1,1.399,,[],[],[],[],[],[],[],1.399,1,50.056,50.546,0,0,0,14,1,1015,NW,UN,16,miaber,THRALE,z,,,,,,,,,,,,,,,,,,,,,,,,,,,,,,,,,,,,,,,,,,,,,,,,,,,,,,,,,,,,,,,,,,
,,,,31990,001,2025-12-02_10h45.51.141,HW_LDT_1,2024.2.4,iPad,43.47826087,,,,,,,,,,,,,,,,,,,,,,50.547,50.746,50.746,51.246,51.246,52.413,m,1,1.146,,[],[],[],[],[],[],[],1.146,1,52.413,52.913,0,1,1,3,1,1004,WORD,"ID",16,matrix,MATRIX,m,,,,,,,,,,,,,,,,,,,,,,,,,,,,,,,,,,,,,,,,,,,,,,,,,,,,,,,,,,,,,,,,,,
,,,,31990,001,2025-12-02_10h45.51.141,HW_LDT_1,2024.2.4,iPad,43.47826087,,,,,,,,,,,,,,,,,,,,,,52.914,53.112,53.113,53.612,53.613,54.561,m,1,0.927,,[],[],[],[],[],[],[],0.927,1,54.561,55.062,0,2,2,7,1,1008,WORD,UN,16,hurdle,VOLUME,m,,,,,,,,,,,,,,,,,,,,,,,,,,,,,,,,,,,,,,,,,,,,,,,,,,,,,,,,,,,,,,,,,,
,,,,31990,001,2025-12-02_10h45.51.141,HW_LDT_1,2024.2.4,iPad,43.47826087,,,,,,,,,,,,,,,,,,,,,,55.063,55.262,55.262,55.762,55.763,56.944,z,1,1.158,,[],[],[],[],[],[],[],1.158,1,56.944,57.446,0,3,3,9,1,1010,NW,"ID",33,fariny,FARINY,z,,,,,,,,,,,,,,,,,,,,,,,,,,,,,,,,,,,,,,,,,,,,,,,,,,,,,,,,,,,,,,,,,,
,,,,31990,001,2025-12-02_10h45.51.141,HW_LDT_1,2024.2.4,iPad,43.47826087,,,,,,,,,,,,,,,,,,,,,,57.447,57.646,57.646,58.146,58.147,58.89,m,1,0.724,,[],[],[],[],[],[],[],0.724,1,58.891,59.396,0,4,4,5,1,1006,WORD,UN,33,frenzy,OBTAIN,m,,,,,,,,,,,,,,,,,,,,,,,,,,,,,,,,,,,,,,,,,,,,,,,,,,,,,,,,,,,,,,,,,,
,,,,31990,001,2025-12-02_10h45.51.141,HW_LDT_1,2024.2.4,iPad,43.47826087,,,,,,,,,,,,,,,,,,,,,,59.397,59.596,59.596,60.096,60.097,61.013,z,1,0.894,,[],[],[],[],[],[],[],0.894,1,61.013,61.513,0,5,5,12,1,1013,NW,UN,33,adveil,SPRINY,z,,,,,,,,,,,,,,,,,,,,,,,,,,,,,,,,,,,,,,,,,,,,,,,,,,,,,,,,,,,,,,,,,,
,,,,31990,001,2025-12-02_10h45.51.141,HW_LDT_1,2024.2.4,iPad,43.47826087,,,,,,,,,,,,,,,,,,,,,,61.513,61.713,61.713,62.212,62.213,63.26,z,1,1.027,,[],[],[],[],[],[],[],1.027,1,63.26,63.762,0,6,6,8,1,1009,NW,"ID",33,aslert,ASLERT,z,,,,,,,,,,,,,,,,,,,,,,,,,,,,,,,,,,,,,,,,,,,,,,,,,,,,,,,,,,,,,,,,,,
,,,,31990,001,2025-12-02_10h45.51.141,HW_LDT_1,2024.2.4,iPad,43.47826087,,,,,,,,,,,,,,,,,,,,,,63.764,63.963,63.963,64.463,64.463,65.162,m,1,0.678,,[],[],[],[],[],[],[],0.678,1,65.162,65.663,0,7,7,6,1,1007,WORD,UN,16,tropic,ZOMBIE,m,,,,,,,,,,,,,,,,,,,,,,,,,,,,,,,,,,,,,,,,,,,,,,,,,,,,,,,,,,,,,,,,,,
,,,,31990,001,2025-12-02_10h45.51.141,HW_LDT_1,2024.2.4,iPad,43.47826087,,,,,,,,,,,,,,,,,,,,,,65.664,65.862,65.862,66.363,66.363,67.078,m,1,0.693,,[],[],[],[],[],[],[],0.693,1,67.078,67.579,0,8,8,2,1,1003,WORD,"ID",16,almond,ALMOND,m,,,,,,,,,,,,,,,,,,,,,,,,,,,,,,,,,,,,,,,,,,,,,,,,,,,,,,,,,,,,,,,,,,
,,,,31990,001,2025-12-02_10h45.51.141,HW_LDT_1,2024.2.4,iPad,43.47826087,,,,,,,,,,,,,,,,,,,,,,67.58,67.779,67.779,68.279,68.28,69.411,m,1,1.111,,[],[],[],[],[],[],[],1.111,1,69.411,69.913,0,9,9,1,1,1002,WORD,"ID",33,adjust,ADJUST,m,,,,,,,,,,,,,,,,,,,,,,,,,,,,,,,,,,,,,,,,,,,,,,,,,,,,,,,,,,,,,,,,,,
,,,,31990,001,2025-12-02_10h45.51.141,HW_LDT_1,2024.2.4,iPad,43.47826087,,,,,,,,,,,,,,,,,,,,,,69.913,70.113,70.113,70.613,70.613,71.277,m,1,0.642,,[],[],[],[],[],[],[],0.642,1,71.277,71.779,0,10,10,4,1,1005,WORD,UN,33,abound,SQUEAK,m,,,,,,,,,,,,,,,,,,,,,,,,,,,,,,,,,,,,,,,,,,,,,,,,,,,,,,,,,,,,,,,,,,
,,,,31990,001,2025-12-02_10h45.51.141,HW_LDT_1,2024.2.4,iPad,43.47826087,,,,,,,,,,,,,,,,,,,,,,71.781,71.979,71.979,72.479,72.48,73.395,z,1,0.895,,[],[],[],[],[],[],[],0.895,1,73.395,73.896,0,11,11,10,1,1011,NW,"ID",16,inlade,INLADE,z,,,,,,,,,,,,,,,,,,,,,,,,,,,,,,,,,,,,,,,,,,,,,,,,,,,,,,,,,,,,,,,,,,
,,,,31990,001,2025-12-02_10h45.51.141,HW_LDT_1,2024.2.4,iPad,43.47826087,,,,,,,,,,,,,,,,,,,,,,73.897,74.096,74.096,74.596,74.597,75.544,z,1,0.926,,[],[],[],[],[],[],[],0.926,1,75.544,76.046,0,12,12,11,1,1012,NW,"ID",16,rashet,RASHET,z,,,,,,,,,,,,,,,,,,,,,,,,,,,,,,,,,,,,,,,,,,,,,,,,,,,,,,,,,,,,,,,,,,
,,,,31990,001,2025-12-02_10h45.51.141,HW_LDT_1,2024.2.4,iPad,43.47826087,,,,,,,,,,,,,,,,,,,,,,76.047,76.246,76.246,76.746,76.747,77.542,m,1,0.775,,[],[],[],[],[],[],[],0.775,1,77.542,78.046,0,13,13,0,1,1001,WORD,"ID",33,utopia,UTOPIA,m,,,,,,,,,,,,,,,,,,,,,,,,,,,,,,,,,,,,,,,,,,,,,,,,,,,,,,,,,,,,,,,,,,
,,,,31990,001,2025-12-02_10h45.51.141,HW_LDT_1,2024.2.4,iPad,43.47826087,,,,,,,,,,,,,,,,,,,,,,78.047,78.246,78.246,78.746,78.747,79.595,z,1,0.827,,[],[],[],[],[],[],[],0.827,1,79.595,80.096,0,14,14,13,1,1014,NW,UN,33,winfer,ROUPET,z,,,,,,,,,,,,,,,,,,,,,,,,,,,,,,,,,,,,,,,,,,,,,,,,,,,,,,,,,,,,,,,,,,
,,,,31990,001,2025-12-02_10h45.51.141,HW_LDT_1,2024.2.4,iPad,43.47826087,,,,,,,,,,,,,,,,,,,,,,80.097,80.296,80.296,80.796,80.797,81.761,z,1,0.943,,[],[],[],[],[],[],[],0.943,1,81.761,82.263,0,15,15,15,1,1016,NW,UN,16,mushed,WHAISE,z,,,,,,,,,,,,,,,,,,,,,,,,,,,,,,,,,,,,,,,,,,,,,,,,,,,,,,,,,,,,,,,,,,
,,,,31990,001,2025-12-02_10h45.51.141,HW_LDT_1,2024.2.4,iPad,43.47826087,,,,,,,,,,,,,,,1,end_of_practice,"You have completed the practice trials. During the experimental trials, you will not receive feedback. On some trials you will be asked to report whether the item you just saw was in cursive or print. 
Before you begin, please ensure that you are in a comfortable and quiet location and will not be disturbed for about 15 minutes, as we cannot use your data if you do not complete all the trials. 
 When you are ready to start the experimental trials, please press space or touch the button below.",,,,,,,,,,,,,,,,,,,,,,,,,,,,,,,,,,,,,,82.27,94.914,space,12.605,,-0.791044776,0.501148106,0,0,0,0,0,0,0,1,,,,,,,,,,,,,,,,,,,,,,,,,,,,,,,,,,,,,,,,,,,,,,,,,,,
,,,,31990,001,2025-12-02_10h45.51.141,HW_LDT_1,2024.2.4,iPad,43.47826087,,,,,,,,,,,,,,,,,,,,,,94.925,95.113,95.113,95.613,,,,,,,,,,,,,,1.482,0,,,,,,,,,,,,,,m,,,,,,,,,,,,,,,,1,0,95.614,97.11,z,0,1.482,,[],[],[],[],[],[],[],97.11,99.114,99.114,99.119,[],[],[],[],[],[],[],,99.119,99.121,-0.791044776,0.501148106,0,0,0,,0,0,0,153,1,4,word,STOLEN,cursive,stolen_c.png,,,,,,
,,,,31990,001,2025-12-02_10h45.51.141,HW_LDT_1,2024.2.4,iPad,43.47826087,,,,,,,,,,,,,,,,,,,,,,99.122,99.313,99.313,99.813,,,,,,,,,,,,,,1.666,0,,,,,,,,,,,,,,z,,,,,,,,,,,,,,,,2,0,99.814,101.495,m,0,1.666,,[],[],[],[],[],[],[],101.495,103.496,103.497,103.497,[],[],[],[],[],[],[],,103.497,103.497,-0.791044776,0.501148106,0,0,0,,0,1,1,58,1,4,TL,edivent,print,edivent_p.png,,,,,,
,,,,31990,001,2025-12-02_10h45.51.141,HW_LDT_1,2024.2.4,iPad,43.47826087,,,,,,,,,,,,,,,,,,,,,,103.498,103.696,103.696,104.196,,,,,,,,,,,,,,2.337,0,,,,,,,,,,,,,,m,,,,,,,,,,,,,,,,3,0,104.197,106.546,z,0,2.337,,[],[],[],[],[],[],[],106.546,108.547,108.547,108.547,[],[],[],[],[],[],[],,108.547,108.547,-0.791044776,0.501148106,0,0,0,,0,2,2,87,1,4,word,CAFETERIA,cursive,cafeteria_c.png,,,,,,
,,,,31990,001,2025-12-02_10h45.51.141,HW_LDT_1,2024.2.4,iPad,43.47826087,,,,,,,,,,,,,,,,,,,,,,108.548,108.746,108.747,109.246,,,,,,,,,,,,,,2.733,0,,,,,,,,,,,,,,z,,,,,,,,,,,,,,,,4,0,109.247,111.991,m,0,2.733,,[],[],[],[],[],[],[],111.991,113.997,113.997,113.997,[],[],[],[],[],[],[],,113.998,113.998,-0.791044776,0.501148106,0,0,0,,0,3,3,45,1,4,RL,spetisic,cursive,spetisic_c.png,,,,,,
,,,,31990,001,2025-12-02_10h45.51.141,HW_LDT_1,2024.2.4,iPad,43.47826087,,,,,,,,,,,,,,,,,,,,,,113.999,114.197,114.197,114.697,,,,,,,,,,,,,,0.783,1,,,,,,,,,,,,,,m,,,,,,,,,,,,,,,,5,0,114.697,115.494,m,1,0.783,,[],[],[],[],[],[],[],115.494,117.497,117.497,117.497,[],[],[],[],[],[],[],,117.497,117.497,-0.791044776,0.501148106,0,0,0,,0,4,4,134,1,4,word,QUALIFY,print,qualify_p.png,,,,,,
,,,,31990,001,2025-12-02_10h45.51.141,HW_LDT_1,2024.2.4,iPad,43.47826087,,,,,,,,,,,,,,,,,,,,,,117.499,117.697,117.697,118.197,,,,,,,,,,,,,,2.02,1,,,,,,,,,,,,,,m,,,,,,,,,,,,,,,,6,0,118.197,120.23,m,1,2.02,,[],[],[],[],[],[],[],120.23,122.22,122.22,122.221,[],[],[],[],[],[],[],,122.221,122.221,-0.791044776,0.501148106,0,0,0,,0,5,5,116,1,4,word,MARGINAL,cursive,marginal_c.png,,,,,,
,,,,31990,001,2025-12-02_10h45.51.141,HW_LDT_1,2024.2.4,iPad,43.47826087,,,,,,,,,,,,,,,,,,,,,,122.221,122.413,122.413,122.913,,,,,,,,,,,,,,3.619,1,,,,,,,,,,,,,,z,,,,,,,,,,,,,,,,7,0,122.914,126.545,z,1,3.619,,[],[],[],[],[],[],[],126.545,128.547,128.547,128.547,[],[],[],[],[],[],[],,128.547,128.547,-0.791044776,0.501148106,0,0,0,,0,6,6,23,1,4,RL,linefal,cursive,linefal_c.png,,,,,,
,,,,31990,001,2025-12-02_10h45.51.141,HW_LDT_1,2024.2.4,iPad,43.47826087,,,,,,,,,,,,,,,,,,,,,,128.548,128.747,128.747,129.247,,,,,,,,,,,,,,1.267,1,,,,,,,,,,,,,,m,,,,,,,,,,,,,,,,8,0,129.247,130.528,m,1,1.267,,[],[],[],[],[],[],[],130.528,132.53,132.53,132.53,[],[],[],[],[],[],[],,132.53,132.531,-0.791044776,0.501148106,0,0,0,,0,7,7,130,1,4,word,POLICY,cursive,policy_c.png,,,,,,
,,,,31990,001,2025-12-02_10h45.51.141,HW_LDT_1,2024.2.4,iPad,43.47826087,,,,,,,,,,,,,,,,,,,,,,132.532,132.73,132.73,133.23,,,,,,,,,,,,,,3.153,1,,,,,,,,,,,,,,z,,,,,,,,,,,,,,,,9,0,133.23,136.397,z,1,3.153,,[],[],[],[],[],[],[],136.397,138.397,138.397,138.397,[],[],[],[],[],[],[],,138.397,138.397,-0.791044776,0.501148106,0,0,0,,0,8,8,39,1,4,RL,relone,cursive,relone_c.png,,,,,,
,,,,31990,001,2025-12-02_10h45.51.141,HW_LDT_1,2024.2.4,iPad,43.47826087,,,,,,,,,,,,,,,,,,,,,,138.398,138.597,138.597,139.097,,,,,,,,,,,,,,1.385,1,,,,,,,,,,,,,,m,,,,,,,,,,,,,,,,10,0,139.097,140.495,m,1,1.385,,[],[],[],[],[],[],[],140.495,142.497,142.498,142.498,[],[],[],[],[],[],[],,142.499,142.499,-0.791044776,0.501148106,0,0,0,,0,9,9,97,1,4,word,COVERAGE,cursive,coverage_c.png,,,,,,
,,,,31990,001,2025-12-02_10h45.51.141,HW_LDT_1,2024.2.4,iPad,43.47826087,,,,,,,,,,,,,,,,,,,,,,142.501,142.697,142.697,143.197,,,,,,,,,,,,,,0.916,1,,,,,,,,,,,,,,z,,,,,,,,,,,,,,,,11,1,143.198,144.127,z,1,0.916,,[],[],[],[],[],[],[],144.127,146.13,146.13,155.329,[],[],[],[],[],[],[],m,155.329,155.329,-0.791044776,0.501148106,0,0,0,,0,10,10,43,1,4,RL,rovastic,print,rovastic_p.png,9.186,,,,,
,,,,31990,001,2025-12-02_10h45.51.141,HW_LDT_1,2024.2.4,iPad,43.47826087,,,,,,,,,,,,,,,,,,,,,,155.33,155.53,155.53,156.03,,,,,,,,,,,,,,1.552,1,,,,,,,,,,,,,,m,,,,,,,,,,,,,,,,12,0,156.031,157.595,m,1,1.552,,[],[],[],[],[],[],[],157.595,159.597,159.598,159.598,[],[],[],[],[],[],[],,159.598,159.598,-0.791044776,0.501148106,0,0,0,,0,11,11,90,1,4,word,CAPITAL,print,capital_p.png,,,,,,
,,,,31990,001,2025-12-02_10h45.51.141,HW_LDT_1,2024.2.4,iPad,43.47826087,,,,,,,,,,,,,,,,,,,,,,159.599,159.797,159.797,160.297,,,,,,,,,,,,,,2.953,1,,,,,,,,,,,,,,z,,,,,,,,,,,,,,,,13,0,160.297,163.263,z,1,2.953,,[],[],[],[],[],[],[],163.263,165.264,165.264,165.264,[],[],[],[],[],[],[],,165.264,165.265,-0.791044776,0.501148106,0,0,0,,0,12,12,4,1,4,RL,betemit,cursive,betemit_c.png,,,,,,
,,,,31990,001,2025-12-02_10h45.51.141,HW_LDT_1,2024.2.4,iPad,43.47826087,,,,,,,,,,,,,,,,,,,,,,165.266,165.464,165.464,165.964,,,,,,,,,,,,,,1.018,1,,,,,,,,,,,,,,m,,,,,,,,,,,,,,,,14,0,165.964,166.995,m,1,1.018,,[],[],[],[],[],[],[],166.995,168.997,168.997,168.998,[],[],[],[],[],[],[],,168.998,168.998,-0.791044776,0.501148106,0,0,0,,0,13,13,82,1,4,word,AMATEUR,cursive,amateur_c.png,,,,,,
,,,,31990,001,2025-12-02_10h45.51.141,HW_LDT_1,2024.2.4,iPad,43.47826087,,,,,,,,,,,,,,,,,,,,,,168.999,169.197,169.197,169.697,,,,,,,,,,,,,,1.532,1,,,,,,,,,,,,,,z,,,,,,,,,,,,,,,,15,0,169.697,171.243,z,1,1.532,,[],[],[],[],[],[],[],171.243,173.231,173.231,173.231,[],[],[],[],[],[],[],,173.231,173.231,-0.791044776,0.501148106,0,0,0,,0,14,14,65,1,4,TL,orepator,print,orepator_p.png,,,,,,
,,,,31990,001,2025-12-02_10h45.51.141,HW_LDT_1,2024.2.4,iPad,43.47826087,,,,,,,,,,,,,,,,,,,,,,173.232,173.431,173.431,173.931,,,,,,,,,,,,,,0.784,1,,,,,,,,,,,,,,m,,,,,,,,,,,,,,,,16,0,173.931,174.728,m,1,0.784,,[],[],[],[],[],[],[],174.728,176.731,176.731,176.731,[],[],[],[],[],[],[],,176.731,176.732,-0.791044776,0.501148106,0,0,0,,0,15,15,95,1,4,word,COMEDY,print,comedy_p.png,,,,,,
,,,,31990,001,2025-12-02_10h45.51.141,HW_LDT_1,2024.2.4,iPad,43.47826087,,,,,,,,,,,,,,,,,,,,,,176.733,176.931,176.931,177.431,,,,,,,,,,,,,,0.803,1,,,,,,,,,,,,,,m,,,,,,,,,,,,,,,,17,0,177.431,178.247,m,1,0.803,,[],[],[],[],[],[],[],178.247,180.248,180.248,180.248,[],[],[],[],[],[],[],,180.248,180.248,-0.791044776,0.501148106,0,0,0,,0,16,16,84,1,4,word,BELOVED,print,beloved_p.png,,,,,,
,,,,31990,001,2025-12-02_10h45.51.141,HW_LDT_1,2024.2.4,iPad,43.47826087,,,,,,,,,,,,,,,,,,,,,,180.249,180.447,180.448,180.948,,,,,,,,,,,,,,0.851,1,,,,,,,,,,,,,,z,,,,,,,,,,,,,,,,18,0,180.948,181.81,z,1,0.851,,[],[],[],[],[],[],[],181.81,183.814,183.814,183.815,[],[],[],[],[],[],[],,183.815,183.815,-0.791044776,0.501148106,0,0,0,,0,17,17,40,1,4,RL,reconal,print,reconal_p.png,,,,,,
,,,,31990,001,2025-12-02_10h45.51.141,HW_LDT_1,2024.2.4,iPad,43.47826087,,,,,,,,,,,,,,,,,,,,,,183.816,184.014,184.014,184.514,,,,,,,,,,,,,,0.949,1,,,,,,,,,,,,,,m,,,,,,,,,,,,,,,,19,0,184.515,185.475,m,1,0.949,,[],[],[],[],[],[],[],185.475,187.464,187.464,187.465,[],[],[],[],[],[],[],,187.465,187.465,-0.791044776,0.501148106,0,0,0,,0,18,18,148,1,4,word,SALINE,print,saline_p.png,,,,,,
,,,,31990,001,2025-12-02_10h45.51.141,HW_LDT_1,2024.2.4,iPad,43.47826087,,,,,,,,,,,,,,,,,,,,,,187.466,187.664,187.664,188.164,,,,,,,,,,,,,,3.301,1,,,,,,,,,,,,,,z,,,,,,,,,,,,,,,,20,0,188.165,191.478,z,1,3.301,,[],[],[],[],[],[],[],191.478,193.481,193.481,193.481,[],[],[],[],[],[],[],,193.481,193.482,-0.791044776,0.501148106,0,0,0,,0,19,19,32,1,4,RL,patisic,cursive,patisic_c.png,,,,,,
,,,,31990,001,2025-12-02_10h45.51.141,HW_LDT_1,2024.2.4,iPad,43.47826087,,,,,,,,,,,,,,,,,,,,,,193.483,193.681,193.681,194.181,,,,,,,,,,,,,,0.933,1,,,,,,,,,,,,,,z,,,,,,,,,,,,,,,,21,0,194.181,195.126,z,1,0.933,,[],[],[],[],[],[],[],195.126,197.131,197.131,197.131,[],[],[],[],[],[],[],,197.131,197.131,-0.791044776,0.501148106,0,0,0,,0,20,20,27,1,4,RL,menowy,print,menowy_p.png,,,,,,
,,,,31990,001,2025-12-02_10h45.51.141,HW_LDT_1,2024.2.4,iPad,43.47826087,,,,,,,,,,,,,,,,,,,,,,197.132,197.331,197.331,197.831,,,,,,,,,,,,,,1.051,1,,,,,,,,,,,,,,z,,,,,,,,,,,,,,,,22,0,197.831,198.895,z,1,1.051,,[],[],[],[],[],[],[],198.895,200.898,200.898,200.898,[],[],[],[],[],[],[],,200.898,200.899,-0.791044776,0.501148106,0,0,0,,0,21,21,25,1,4,RL,macise,print,macise_p.png,,,,,,
,,,,31990,001,2025-12-02_10h45.51.141,HW_LDT_1,2024.2.4,iPad,43.47826087,,,,,,,,,,,,,,,,,,,,,,200.9,201.098,201.098,201.598,,,,,,,,,,,,,,0.736,1,,,,,,,,,,,,,,m,,,,,,,,,,,,,,,,23,0,201.598,202.347,m,1,0.736,,[],[],[],[],[],[],[],202.347,204.348,204.348,204.348,[],[],[],[],[],[],[],,204.348,204.349,-0.791044776,0.501148106,0,0,0,,0,22,22,147,1,4,word,ROMANTIC,print,romantic_p.png,,,,,,
,,,,31990,001,2025-12-02_10h45.51.141,HW_LDT_1,2024.2.4,iPad,43.47826087,,,,,,,,,,,,,,,,,,,,,,204.35,204.548,204.548,205.048,,,,,,,,,,,,,,0.652,1,,,,,,,,,,,,,,m,,,,,,,,,,,,,,,,24,0,205.048,205.713,m,1,0.652,,[],[],[],[],[],[],[],205.713,207.714,207.715,207.715,[],[],[],[],[],[],[],,207.715,207.715,-0.791044776,0.501148106,0,0,0,,0,23,23,140,1,4,word,RELATIVE,print,relative_p.png,,,,,,
,,,,31990,001,2025-12-02_10h45.51.141,HW_LDT_1,2024.2.4,iPad,43.47826087,,,,,,,,,,,,,,,,,,,,,,207.716,207.914,207.915,208.414,,,,,,,,,,,,,,0.853,1,,,,,,,,,,,,,,z,,,,,,,,,,,,,,,,25,1,208.415,209.28,z,1,0.853,,[],[],[],[],[],[],[],209.28,211.281,211.281,212.614,[],[],[],[],[],[],[],m,212.614,212.614,-0.791044776,0.501148106,0,0,0,,0,24,24,31,1,4,RL,orimipal,print,orimipal_p.png,1.32,,,,,
,,,,31990,001,2025-12-02_10h45.51.141,HW_LDT_1,2024.2.4,iPad,43.47826087,,,,,,,,,,,,,,,,,,,,,,212.615,212.814,212.815,213.315,,,,,,,,,,,,,,1.535,1,,,,,,,,,,,,,,m,,,,,,,,,,,,,,,,26,0,213.315,214.864,m,1,1.535,,[],[],[],[],[],[],[],214.864,216.865,216.865,216.865,[],[],[],[],[],[],[],,216.865,216.865,-0.791044776,0.501148106,0,0,0,,0,25,25,124,1,4,word,NUMERICAL,cursive,numerical_c.png,,,,,,
,,,,31990,001,2025-12-02_10h45.51.141,HW_LDT_1,2024.2.4,iPad,43.47826087,,,,,,,,,,,,,,,,,,,,,,216.866,217.065,217.065,217.565,,,,,,,,,,,,,,1.505,1,,,,,,,,,,,,,,m,,,,,,,,,,,,,,,,27,0,217.565,219.082,m,1,1.505,,[],[],[],[],[],[],[],219.082,221.081,221.081,221.082,[],[],[],[],[],[],[],,221.082,221.082,-0.791044776,0.501148106,0,0,0,,0,26,26,106,1,4,word,ELABORATE,cursive,elaborate_c.png,,,,,,
,,,,31990,001,2025-12-02_10h45.51.141,HW_LDT_1,2024.2.4,iPad,43.47826087,,,,,,,,,,,,,,,,,,,,,,221.083,221.281,221.281,221.781,,,,,,,,,,,,,,0.903,1,,,,,,,,,,,,,,m,,,,,,,,,,,,,,,,28,0,221.782,222.697,m,1,0.903,,[],[],[],[],[],[],[],222.697,224.698,224.698,224.698,[],[],[],[],[],[],[],,224.699,224.699,-0.791044776,0.501148106,0,0,0,,0,27,27,101,1,4,word,DELICATE,cursive,delicate_c.png,,,,,,
,,,,31990,001,2025-12-02_10h45.51.141,HW_LDT_1,2024.2.4,iPad,43.47826087,,,,,,,,,,,,,,,,,,,,,,224.7,224.898,224.898,225.398,,,,,,,,,,,,,,1.369,1,,,,,,,,,,,,,,z,,,,,,,,,,,,,,,,29,0,225.399,226.78,z,1,1.369,,[],[],[],[],[],[],[],226.78,228.782,228.782,228.782,[],[],[],[],[],[],[],,228.782,228.782,-0.791044776,0.501148106,0,0,0,,0,28,28,37,1,4,RL,renutal,cursive,renutal_c.png,,,,,,
,,,,31990,001,2025-12-02_10h45.51.141,HW_LDT_1,2024.2.4,iPad,43.47826087,,,,,,,,,,,,,,,,,,,,,,228.783,228.981,228.981,229.481,,,,,,,,,,,,,,0.783,1,,,,,,,,,,,,,,m,,,,,,,,,,,,,,,,30,0,229.482,230.276,m,1,0.783,,[],[],[],[],[],[],[],230.276,232.265,232.265,232.266,[],[],[],[],[],[],[],,232.266,232.267,-0.791044776,0.501148106,0,0,0,,0,29,29,111,1,4,word,INDICATE,print,indicate_p.png,,,,,,
,,,,31990,001,2025-12-02_10h45.51.141,HW_LDT_1,2024.2.4,iPad,43.47826087,,,,,,,,,,,,,,,,,,,,,,232.268,232.465,232.465,232.965,,,,,,,,,,,,,,2.486,1,,,,,,,,,,,,,,z,,,,,,,,,,,,,,,,31,0,232.965,235.463,z,1,2.486,,[],[],[],[],[],[],[],235.463,237.465,237.465,237.466,[],[],[],[],[],[],[],,237.466,237.466,-0.791044776,0.501148106,0,0,0,,0,30,30,16,1,4,RL,desifate,cursive,desifate_c.png,,,,,,
,,,,31990,001,2025-12-02_10h45.51.141,HW_LDT_1,2024.2.4,iPad,43.47826087,,,,,,,,,,,,,,,,,,,,,,237.467,237.665,237.665,238.165,,,,,,,,,,,,,,0.986,1,,,,,,,,,,,,,,z,,,,,,,,,,,,,,,,32,0,238.165,239.164,z,1,0.986,,[],[],[],[],[],[],[],239.164,241.165,241.165,241.165,[],[],[],[],[],[],[],,241.165,241.166,-0.791044776,0.501148106,0,0,0,,0,31,31,11,1,4,RL,clisimal,print,clisimal_p.png,,,,,,
,,,,31990,001,2025-12-02_10h45.51.141,HW_LDT_1,2024.2.4,iPad,43.47826087,,,,,,,,,,,,,,,,,,,,,,241.167,241.365,241.365,241.865,,,,,,,,,,,,,,0.704,0,,,,,,,,,,,,,,z,,,,,,,,,,,,,,,,33,1,241.865,242.582,m,0,0.704,,[],[],[],[],[],[],[],242.582,244.582,244.582,248.73,[],[],[],[],[],[],[],m,248.73,248.73,-0.791044776,0.501148106,0,0,0,,0,32,32,66,1,4,TL,opmital,print,opmital_p.png,4.136,,,,,
,,,,31990,001,2025-12-02_10h45.51.141,HW_LDT_1,2024.2.4,iPad,43.47826087,,,,,,,,,,,,,,,,,,,,,,248.731,248.932,248.932,249.432,,,,,,,,,,,,,,0.901,1,,,,,,,,,,,,,,z,,,,,,,,,,,,,,,,34,0,249.432,250.347,z,1,0.901,,[],[],[],[],[],[],[],250.347,252.349,252.349,252.349,[],[],[],[],[],[],[],,252.349,252.349,-0.791044776,0.501148106,0,0,0,,0,33,33,29,1,4,RL,motide,print,motide_p.png,,,,,,
,,,,31990,001,2025-12-02_10h45.51.141,HW_LDT_1,2024.2.4,iPad,43.47826087,,,,,,,,,,,,,,,,,,,,,,252.35,252.548,252.548,253.048,,,,,,,,,,,,,,1.153,1,,,,,,,,,,,,,,m,,,,,,,,,,,,,,,,35,0,253.049,254.215,m,1,1.153,,[],[],[],[],[],[],[],254.215,256.215,256.215,256.216,[],[],[],[],[],[],[],,256.216,256.216,-0.791044776,0.501148106,0,0,0,,0,34,34,117,1,4,word,MARINE,print,marine_p.png,,,,,,
,,,,31990,001,2025-12-02_10h45.51.141,HW_LDT_1,2024.2.4,iPad,43.47826087,,,,,,,,,,,,,,,,,,,,,,256.217,256.415,256.415,256.915,,,,,,,,,,,,,,3.419,0,,,,,,,,,,,,,,m,,,,,,,,,,,,,,,,36,1,256.915,260.347,z,0,3.419,,[],[],[],[],[],[],[],260.347,262.349,262.349,263.53,[],[],[],[],[],[],[],z,263.53,263.53,-0.791044776,0.501148106,0,0,0,,0,35,35,114,1,4,word,LOCATE,cursive,locate_c.png,1.169,,,,,
,,,,31990,001,2025-12-02_10h45.51.141,HW_LDT_1,2024.2.4,iPad,43.47826087,,,,,,,,,,,,,,,,,,,,,,263.531,263.716,263.716,264.232,,,,,,,,,,,,,,0.668,0,,,,,,,,,,,,,,z,,,,,,,,,,,,,,,,37,1,264.232,264.912,m,0,0.668,,[],[],[],[],[],[],[],264.912,266.915,266.915,268.714,[],[],[],[],[],[],[],m,268.714,268.714,-0.791044776,0.501148106,0,0,0,,0,36,36,69,1,4,TL,quafily,print,quafily_p.png,1.787,,,,,
,,,,31990,001,2025-12-02_10h45.51.141,HW_LDT_1,2024.2.4,iPad,43.47826087,,,,,,,,,,,,,,,,,,,,,,268.714,268.915,268.915,269.415,,,,,,,,,,,,,,2.302,0,,,,,,,,,,,,,,m,,,,,,,,,,,,,,,,38,0,269.415,271.73,z,0,2.302,,[],[],[],[],[],[],[],271.73,273.732,273.732,273.733,[],[],[],[],[],[],[],,273.733,273.733,-0.791044776,0.501148106,0,0,0,,0,37,37,113,1,4,word,LITERAL,cursive,literal_c.png,,,,,,
,,,,31990,001,2025-12-02_10h45.51.141,HW_LDT_1,2024.2.4,iPad,43.47826087,,,,,,,,,,,,,,,,,,,,,,273.734,273.932,273.932,274.432,,,,,,,,,,,,,,0.832,1,,,,,,,,,,,,,,m,,,,,,,,,,,,,,,,39,1,274.432,275.276,m,1,0.832,,[],[],[],[],[],[],[],275.276,277.265,277.265,278.063,[],[],[],[],[],[],[],m,278.063,278.063,-0.791044776,0.501148106,0,0,0,,0,38,38,131,1,4,word,POPULAR,print,popular_p.png,0.785,,,,,
,,,,31990,001,2025-12-02_10h45.51.141,HW_LDT_1,2024.2.4,iPad,43.47826087,,,,,,,,,,,,,,,,,,,,,,278.064,278.265,278.265,278.765,,,,,,,,,,,,,,1.569,1,,,,,,,,,,,,,,m,,,,,,,,,,,,,,,,40,0,278.766,280.347,m,1,1.569,,[],[],[],[],[],[],[],280.347,282.349,282.349,282.349,[],[],[],[],[],[],[],,282.349,282.349,-0.791044776,0.501148106,0,0,0,,0,39,39,151,1,4,word,SPECIFIC,cursive,specific_c.png,,,,,,
,,,,31990,001,2025-12-02_10h45.51.141,HW_LDT_1,2024.2.4,iPad,43.47826087,,,,,,,,,,,,,,,,,,,,,,282.35,282.549,282.549,283.049,,,,,,,,,,,,,,1.698,1,,,,,,,,,,,,,,z,,,,,,,,,,,,,,,,41,0,283.049,284.762,z,1,1.698,,[],[],[],[],[],[],[],284.762,286.766,286.766,286.766,[],[],[],[],[],[],[],,286.766,286.766,-0.791044776,0.501148106,0,0,0,,0,40,40,3,1,4,RL,bewoted,print,bewoted_p.png,,,,,,
,,,,31990,001,2025-12-02_10h45.51.141,HW_LDT_1,2024.2.4,iPad,43.47826087,,,,,,,,,,,,,,,,,,,,,,286.767,286.966,286.966,287.466,,,,,,,,,,,,,,0.886,0,,,,,,,,,,,,,,z,,,,,,,,,,,,,,,,42,0,287.466,288.364,m,0,0.886,,[],[],[],[],[],[],[],288.364,290.366,290.366,290.366,[],[],[],[],[],[],[],,290.366,290.366,-0.791044776,0.501148106,0,0,0,,0,41,41,67,1,4,TL,polupar,print,polupar_p.png,,,,,,
,,,,31990,001,2025-12-02_10h45.51.141,HW_LDT_1,2024.2.4,iPad,43.47826087,,,,,,,,,,,,,,,,,,,,,,290.367,290.566,290.566,291.066,,,,,,,,,,,,,,0.871,1,,,,,,,,,,,,,,m,,,,,,,,,,,,,,,,43,0,291.066,291.95,m,1,0.871,,[],[],[],[],[],[],[],291.95,293.949,293.949,293.949,[],[],[],[],[],[],[],,293.949,293.949,-0.791044776,0.501148106,0,0,0,,0,42,42,89,1,4,word,CAPACITY,cursive,capacity_c.png,,,,,,
,,,,31990,001,2025-12-02_10h45.51.141,HW_LDT_1,2024.2.4,iPad,43.47826087,,,,,,,,,,,,,,,,,,,,,,293.95,294.149,294.149,294.649,,,,,,,,,,,,,,1.102,1,,,,,,,,,,,,,,m,,,,,,,,,,,,,,,,44,0,294.649,295.765,m,1,1.102,,[],[],[],[],[],[],[],295.765,297.766,297.766,297.766,[],[],[],[],[],[],[],,297.766,297.766,-0.791044776,0.501148106,0,0,0,,0,43,43,104,1,4,word,DOMINANT,cursive,dominant_c.png,,,,,,
,,,,31990,001,2025-12-02_10h45.51.141,HW_LDT_1,2024.2.4,iPad,43.47826087,,,,,,,,,,,,,,,,,,,,,,297.767,297.966,297.966,298.466,,,,,,,,,,,,,,1.153,1,,,,,,,,,,,,,,m,,,,,,,,,,,,,,,,45,0,298.466,299.632,m,1,1.153,,[],[],[],[],[],[],[],299.632,301.632,301.632,301.633,[],[],[],[],[],[],[],,301.633,301.633,-0.791044776,0.501148106,0,0,0,,0,44,44,120,1,4,word,MILITARY,print,military_p.png,,,,,,
,,,,31990,001,2025-12-02_10h45.51.141,HW_LDT_1,2024.2.4,iPad,43.47826087,,,,,,,,,,,,,,,,,,,,,,301.633,301.832,301.833,302.344,,,,,,,,,,,,,,0.69,1,,,,,,,,,,,,,,m,,,,,,,,,,,,,,,,46,0,302.344,303.047,m,1,0.69,,[],[],[],[],[],[],[],303.047,305.049,305.049,305.05,[],[],[],[],[],[],[],,305.05,305.05,-0.791044776,0.501148106,0,0,0,,0,45,45,109,1,4,word,GRATEFUL,print,grateful_p.png,,,,,,
,,,,31990,001,2025-12-02_10h45.51.141,HW_LDT_1,2024.2.4,iPad,43.47826087,,,,,,,,,,,,,,,,,,,,,,305.051,305.249,305.249,305.749,,,,,,,,,,,,,,2.82,1,,,,,,,,,,,,,,z,,,,,,,,,,,,,,,,47,1,305.749,308.582,z,1,2.82,,[],[],[],[],[],[],[],308.582,310.583,310.583,311.813,[],[],[],[],[],[],[],z,311.813,311.813,-0.791044776,0.501148106,0,0,0,,0,46,46,55,1,4,TL,corevage,cursive,corevage_c.png,1.218,,,,,
,,,,31990,001,2025-12-02_10h45.51.141,HW_LDT_1,2024.2.4,iPad,43.47826087,,,,,,,,,,,,,,,,,,,,,,311.813,312,312,312.516,,,,,,,,,,,,,,0.886,1,,,,,,,,,,,,,,m,,,,,,,,,,,,,,,,48,0,312.516,313.415,m,1,0.886,,[],[],[],[],[],[],[],313.415,315.416,315.416,315.416,[],[],[],[],[],[],[],,315.416,315.417,-0.791044776,0.501148106,0,0,0,,0,47,47,96,1,4,word,CONSIDER,cursive,consider_c.png,,,,,,
,,,,31990,001,2025-12-02_10h45.51.141,HW_LDT_1,2024.2.4,iPad,43.47826087,,,,,,,,,,,,,,,,,,,,,,315.417,315.616,315.616,316.116,,,,,,,,,,,,,,2.366,0,,,,,,,,,,,,,,m,,,,,,,,,,,,,,,,49,0,316.116,318.494,z,0,2.366,,[],[],[],[],[],[],[],318.494,320.483,320.483,320.483,[],[],[],[],[],[],[],,320.483,320.483,-0.791044776,0.501148106,0,0,0,,0,48,48,138,1,4,word,REFUSAL,cursive,refusal_c.png,,,,,,
,,,,31990,001,2025-12-02_10h45.51.141,HW_LDT_1,2024.2.4,iPad,43.47826087,,,,,,,,,,,,,,,,,,,,,,320.483,320.683,320.683,321.183,,,,,,,,,,,,,,1.137,1,,,,,,,,,,,,,,z,,,,,,,,,,,,,,,,50,1,321.183,322.332,z,1,1.137,,[],[],[],[],[],[],[],322.332,324.333,324.333,325.015,[],[],[],[],[],[],[],m,325.015,325.015,-0.791044776,0.501148106,0,0,0,,0,49,49,63,1,4,TL,miskate,print,miskate_p.png,0.67,,,,,
,,,,31990,001,2025-12-02_10h45.51.141,HW_LDT_1,2024.2.4,iPad,43.47826087,,,,,,,,,,,,,,,,,,,,,,325.016,325.216,325.216,325.716,,,,,,,,,,,,,,2.084,1,,,,,,,,,,,,,,z,,,,,,,,,,,,,,,,51,0,325.716,327.813,z,1,2.084,,[],[],[],[],[],[],[],327.813,329.816,329.816,329.816,[],[],[],[],[],[],[],,329.816,329.817,-0.791044776,0.501148106,0,0,0,,0,50,50,14,1,4,RL,delahe,cursive,delahe_c.png,,,,,,
,,,,31990,001,2025-12-02_10h45.51.141,HW_LDT_1,2024.2.4,iPad,43.47826087,,,,,,,,,,,,,,,,,,,,,,329.817,330.016,330.016,330.516,,,,,,,,,,,,,,3.137,1,,,,,,,,,,,,,,z,,,,,,,,,,,,,,,,52,0,330.517,333.666,z,1,3.137,,[],[],[],[],[],[],[],333.666,335.666,335.666,335.667,[],[],[],[],[],[],[],,335.667,335.667,-0.791044776,0.501148106,0,0,0,,0,51,51,17,1,4,RL,denficy,cursive,denficy_c.png,,,,,,
,,,,31990,001,2025-12-02_10h45.51.141,HW_LDT_1,2024.2.4,iPad,43.47826087,,,,,,,,,,,,,,,,,,,,,,335.668,335.866,335.866,336.366,,,,,,,,,,,,,,4.136,1,,,,,,,,,,,,,,z,,,,,,,,,,,,,,,,53,0,336.367,340.515,z,1,4.136,,[],[],[],[],[],[],[],340.515,342.516,342.516,342.516,[],[],[],[],[],[],[],,342.517,342.517,-0.791044776,0.501148106,0,0,0,,0,52,52,15,1,4,RL,debave,cursive,debave_c.png,,,,,,
,,,,31990,001,2025-12-02_10h45.51.141,HW_LDT_1,2024.2.4,iPad,43.47826087,,,,,,,,,,,,,,,,,,,,,,342.517,342.716,342.716,343.216,,,,,,,,,,,,,,0.72,1,,,,,,,,,,,,,,m,,,,,,,,,,,,,,,,54,0,343.217,343.949,m,1,0.72,,[],[],[],[],[],[],[],343.949,345.95,345.95,345.95,[],[],[],[],[],[],[],,345.95,345.95,-0.791044776,0.501148106,0,0,0,,0,53,53,88,1,4,word,CAMERA,print,camera_p.png,,,,,,
,,,,31990,001,2025-12-02_10h45.51.141,HW_LDT_1,2024.2.4,iPad,43.47826087,,,,,,,,,,,,,,,,,,,,,,345.951,346.15,346.15,346.65,,,,,,,,,,,,,,3.636,1,,,,,,,,,,,,,,z,,,,,,,,,,,,,,,,55,0,346.65,350.298,z,1,3.636,,[],[],[],[],[],[],[],350.298,352.3,352.3,352.3,[],[],[],[],[],[],[],,352.3,352.3,-0.791044776,0.501148106,0,0,0,,0,54,54,1,1,4,RL,afaneur,cursive,afaneur_c.png,,,,,,
,,,,31990,001,2025-12-02_10h45.51.141,HW_LDT_1,2024.2.4,iPad,43.47826087,,,,,,,,,,,,,,,,,,,,,,352.301,352.5,352.5,353,,,,,,,,,,,,,,1.016,1,,,,,,,,,,,,,,m,,,,,,,,,,,,,,,,56,0,353,354.03,m,1,1.016,,[],[],[],[],[],[],[],354.03,356.033,356.033,356.033,[],[],[],[],[],[],[],,356.034,356.034,-0.791044776,0.501148106,0,0,0,,0,55,55,85,1,4,word,BENEFIT,cursive,benefit_c.png,,,,,,
,,,,31990,001,2025-12-02_10h45.51.141,HW_LDT_1,2024.2.4,iPad,43.47826087,,,,,,,,,,,,,,,,,,,,,,356.035,356.233,356.233,356.733,,,,,,,,,,,,,,0.953,1,,,,,,,,,,,,,,z,,,,,,,,,,,,,,,,57,0,356.733,357.699,z,1,0.953,,[],[],[],[],[],[],[],357.699,359.7,359.7,359.7,[],[],[],[],[],[],[],,359.7,359.701,-0.791044776,0.501148106,0,0,0,,0,56,56,28,1,4,RL,mifikary,print,mifikary_p.png,,,,,,
,,,,31990,001,2025-12-02_10h45.51.141,HW_LDT_1,2024.2.4,iPad,43.47826087,,,,,,,,,,,,,,,,,,,,,,359.702,359.9,359.9,360.4,,,,,,,,,,,,,,0.753,1,,,,,,,,,,,,,,m,,,,,,,,,,,,,,,,58,0,360.4,361.166,m,1,0.753,,[],[],[],[],[],[],[],361.166,363.167,363.167,363.167,[],[],[],[],[],[],[],,363.167,363.167,-0.791044776,0.501148106,0,0,0,,0,57,57,103,1,4,word,DISPUTE,print,dispute_p.png,,,,,,
,,,,31990,001,2025-12-02_10h45.51.141,HW_LDT_1,2024.2.4,iPad,43.47826087,,,,,,,,,,,,,,,,,,,,,,363.168,363.366,363.366,363.867,,,,,,,,,,,,,,1.653,1,,,,,,,,,,,,,,z,,,,,,,,,,,,,,,,59,0,363.867,365.532,z,1,1.653,,[],[],[],[],[],[],[],365.532,367.533,367.533,367.534,[],[],[],[],[],[],[],,367.534,367.534,-0.791044776,0.501148106,0,0,0,,0,58,58,61,1,4,TL,lotace,cursive,lotace_c.png,,,,,,
,,,,31990,001,2025-12-02_10h45.51.141,HW_LDT_1,2024.2.4,iPad,43.47826087,,,,,,,,,,,,,,,,,,,,,,367.535,367.733,367.733,368.233,,,,,,,,,,,,,,1.185,1,,,,,,,,,,,,,,m,,,,,,,,,,,,,,,,60,0,368.234,369.43,m,1,1.185,,[],[],[],[],[],[],[],369.43,371.433,371.433,371.433,[],[],[],[],[],[],[],,371.434,371.434,-0.791044776,0.501148106,0,0,0,,0,59,59,152,1,4,word,SPECIMEN,cursive,specimen_c.png,,,,,,
,,,,31990,001,2025-12-02_10h45.51.141,HW_LDT_1,2024.2.4,iPad,43.47826087,,,,,,,,,,,,,,,,,,,,,,371.434,371.633,371.633,372.133,,,,,,,,,,,,,,0.719,1,,,,,,,,,,,,,,m,,,,,,,,,,,,,,,,61,0,372.134,372.867,m,1,0.719,,[],[],[],[],[],[],[],372.867,374.867,374.867,374.867,[],[],[],[],[],[],[],,374.867,374.867,-0.791044776,0.501148106,0,0,0,,0,60,60,123,1,4,word,MODERATE,print,moderate_p.png,,,,,,
,,,,31990,001,2025-12-02_10h45.51.141,HW_LDT_1,2024.2.4,iPad,43.47826087,,,,,,,,,,,,,,,,,,,,,,374.868,375.067,375.067,375.567,,,,,,,,,,,,,,0.687,0,,,,,,,,,,,,,,z,,,,,,,,,,,,,,,,62,0,375.567,376.266,m,0,0.687,,[],[],[],[],[],[],[],376.266,378.267,378.267,378.267,[],[],[],[],[],[],[],,378.267,378.267,-0.791044776,0.501148106,0,0,0,,0,61,61,54,1,4,TL,codemy,print,codemy_p.png,,,,,,
,,,,31990,001,2025-12-02_10h45.51.141,HW_LDT_1,2024.2.4,iPad,43.47826087,,,,,,,,,,,,,,,,,,,,,,378.268,378.467,378.467,378.967,,,,,,,,,,,,,,2.883,1,,,,,,,,,,,,,,m,,,,,,,,,,,,,,,,63,0,378.967,381.862,m,1,2.883,,[],[],[],[],[],[],[],381.862,383.867,383.867,383.868,[],[],[],[],[],[],[],,383.868,383.869,-0.791044776,0.501148106,0,0,0,,0,62,62,81,1,4,word,ADVISORY,cursive,advisory_c.png,,,,,,
,,,,31990,001,2025-12-02_10h45.51.141,HW_LDT_1,2024.2.4,iPad,43.47826087,,,,,,,,,,,,,,,,,,,,,,383.87,384.067,384.067,384.567,,,,,,,,,,,,,,0.736,1,,,,,,,,,,,,,,m,,,,,,,,,,,,,,,,64,0,384.567,385.317,m,1,0.736,,[],[],[],[],[],[],[],385.317,387.317,387.317,387.318,[],[],[],[],[],[],[],,387.318,387.318,-0.791044776,0.501148106,0,0,0,,0,63,63,133,1,4,word,PROVIDE,cursive,provide_c.png,,,,,,
,,,,31990,001,2025-12-02_10h45.51.141,HW_LDT_1,2024.2.4,iPad,43.47826087,,,,,,,,,,,,,,,,,,,,,,387.319,387.517,387.517,388.017,,,,,,,,,,,,,,1.2,1,,,,,,,,,,,,,,z,,,,,,,,,,,,,,,,65,0,388.017,389.23,z,1,1.2,,[],[],[],[],[],[],[],389.23,391.234,391.234,391.234,[],[],[],[],[],[],[],,391.234,391.234,-0.791044776,0.501148106,0,0,0,,0,64,64,60,1,4,TL,hetirage,print,hetirage_p.png,,,,,,
,,,,31990,001,2025-12-02_10h45.51.141,HW_LDT_1,2024.2.4,iPad,43.47826087,,,,,,,,,,,,,,,,,,,,,,391.235,391.434,391.434,391.934,,,,,,,,,,,,,,1.036,1,,,,,,,,,,,,,,m,,,,,,,,,,,,,,,,66,0,391.934,392.982,m,1,1.036,,[],[],[],[],[],[],[],392.982,394.984,394.984,394.984,[],[],[],[],[],[],[],,394.984,394.984,-0.791044776,0.501148106,0,0,0,,0,65,65,157,1,4,word,VALIDITY,print,validity_p.png,,,,,,
,,,,31990,001,2025-12-02_10h45.51.141,HW_LDT_1,2024.2.4,iPad,43.47826087,,,,,,,,,,,,,,,,,,,,,,394.985,395.184,395.184,395.684,,,,,,,,,,,,,,1.369,1,,,,,,,,,,,,,,z,,,,,,,,,,,,,,,,67,0,395.684,397.067,z,1,1.369,,[],[],[],[],[],[],[],397.067,399.067,399.067,399.067,[],[],[],[],[],[],[],,399.067,399.067,-0.791044776,0.501148106,0,0,0,,0,66,66,70,1,4,TL,quatily,print,quatily_p.png,,,,,,
,,,,31990,001,2025-12-02_10h45.51.141,HW_LDT_1,2024.2.4,iPad,43.47826087,,,,,,,,,,,,,,,,,,,,,,399.068,399.267,399.267,399.767,,,,,,,,,,,,,,1.102,1,,,,,,,,,,,,,,m,,,,,,,,,,,,,,,,68,0,399.767,400.882,m,1,1.102,,[],[],[],[],[],[],[],400.882,402.884,402.884,402.884,[],[],[],[],[],[],[],,402.884,402.884,-0.791044776,0.501148106,0,0,0,,0,67,67,135,1,4,word,QUALITY,print,quality_p.png,,,,,,
,,,,31990,001,2025-12-02_10h45.51.141,HW_LDT_1,2024.2.4,iPad,43.47826087,,,,,,,,,,,,,,,,,,,,,,402.885,403.084,403.084,403.584,,,,,,,,,,,,,,1.386,1,,,,,,,,,,,,,,m,,,,,,,,,,,,,,,,69,0,403.584,404.982,m,1,1.386,,[],[],[],[],[],[],[],404.982,406.984,406.984,406.984,[],[],[],[],[],[],[],,406.984,406.984,-0.791044776,0.501148106,0,0,0,,0,68,68,137,1,4,word,RAPIDLY,cursive,rapidly_c.png,,,,,,
,,,,31990,001,2025-12-02_10h45.51.141,HW_LDT_1,2024.2.4,iPad,43.47826087,,,,,,,,,,,,,,,,,,,,,,406.985,407.184,407.184,407.684,,,,,,,,,,,,,,1.268,1,,,,,,,,,,,,,,z,,,,,,,,,,,,,,,,70,1,407.684,408.964,z,1,1.268,,[],[],[],[],[],[],[],408.964,410.967,410.967,412.116,[],[],[],[],[],[],[],z,412.116,412.116,-0.791044776,0.501148106,0,0,0,,0,69,69,52,1,4,TL,cagetory,cursive,cagetory_c.png,1.137,,,,,
,,,,31990,001,2025-12-02_10h45.51.141,HW_LDT_1,2024.2.4,iPad,43.47826087,,,,,,,,,,,,,,,,,,,,,,412.117,412.317,412.317,412.817,,,,,,,,,,,,,,2.251,0,,,,,,,,,,,,,,z,,,,,,,,,,,,,,,,71,0,412.817,415.081,m,0,2.251,,[],[],[],[],[],[],[],415.081,417.084,417.084,417.084,[],[],[],[],[],[],[],,417.084,417.084,-0.791044776,0.501148106,0,0,0,,0,70,70,79,1,4,TL,tritube,print,tritube_p.png,,,,,,
,,,,31990,001,2025-12-02_10h45.51.141,HW_LDT_1,2024.2.4,iPad,43.47826087,,,,,,,,,,,,,,,,,,,,,,417.085,417.284,417.284,417.784,,,,,,,,,,,,,,2.019,1,,,,,,,,,,,,,,z,,,,,,,,,,,,,,,,72,0,417.784,419.816,z,1,2.019,,[],[],[],[],[],[],[],419.816,421.817,421.817,421.818,[],[],[],[],[],[],[],,421.818,421.818,-0.791044776,0.501148106,0,0,0,,0,71,71,19,1,4,RL,elacodate,cursive,elacodate_c.png,,,,,,
,,,,31990,001,2025-12-02_10h45.51.141,HW_LDT_1,2024.2.4,iPad,43.47826087,,,,,,,,,,,,,,,,,,,,,,421.819,422.018,422.018,422.517,,,,,,,,,,,,,,1.468,1,,,,,,,,,,,,,,z,,,,,,,,,,,,,,,,73,0,422.517,423.998,z,1,1.468,,[],[],[],[],[],[],[],423.999,426.001,426.001,426.001,[],[],[],[],[],[],[],,426.001,426.001,-0.791044776,0.501148106,0,0,0,,0,72,72,36,1,4,RL,rabigly,cursive,rabigly_c.png,,,,,,
,,,,31990,001,2025-12-02_10h45.51.141,HW_LDT_1,2024.2.4,iPad,43.47826087,,,,,,,,,,,,,,,,,,,,,,426.002,426.201,426.201,426.701,,,,,,,,,,,,,,2.504,0,,,,,,,,,,,,,,m,,,,,,,,,,,,,,,,74,0,426.701,429.217,z,0,2.504,,[],[],[],[],[],[],[],429.217,431.217,431.218,431.218,[],[],[],[],[],[],[],,431.218,431.218,-0.791044776,0.501148106,0,0,0,,0,73,73,108,1,4,word,FORTUNE,cursive,fortune_c.png,,,,,,
,,,,31990,001,2025-12-02_10h45.51.141,HW_LDT_1,2024.2.4,iPad,43.47826087,,,,,,,,,,,,,,,,,,,,,,431.219,431.417,431.417,431.917,,,,,,,,,,,,,,0.852,1,,,,,,,,,,,,,,m,,,,,,,,,,,,,,,,75,0,431.918,432.783,m,1,0.852,,[],[],[],[],[],[],[],432.783,434.784,434.784,434.784,[],[],[],[],[],[],[],,434.784,434.785,-0.791044776,0.501148106,0,0,0,,0,74,74,102,1,4,word,DENSITY,cursive,density_c.png,,,,,,
,,,,31990,001,2025-12-02_10h45.51.141,HW_LDT_1,2024.2.4,iPad,43.47826087,,,,,,,,,,,,,,,,,,,,,,434.785,434.984,434.984,435.484,,,,,,,,,,,,,,1.086,1,,,,,,,,,,,,,,z,,,,,,,,,,,,,,,,76,0,435.484,436.583,z,1,1.086,,[],[],[],[],[],[],[],436.583,438.584,438.584,438.585,[],[],[],[],[],[],[],,438.585,438.585,-0.791044776,0.501148106,0,0,0,,0,75,75,64,1,4,TL,moredate,print,moredate_p.png,,,,,,
,,,,31990,001,2025-12-02_10h45.51.141,HW_LDT_1,2024.2.4,iPad,43.47826087,,,,,,,,,,,,,,,,,,,,,,438.586,438.784,438.784,439.284,,,,,,,,,,,,,,0.67,1,,,,,,,,,,,,,,m,,,,,,,,,,,,,,,,77,0,439.284,439.967,m,1,0.67,,[],[],[],[],[],[],[],439.967,441.968,441.968,441.968,[],[],[],[],[],[],[],,441.968,441.968,-0.791044776,0.501148106,0,0,0,,0,76,76,80,1,4,word,ACADEMY,print,academy_p.png,,,,,,
,,,,31990,001,2025-12-02_10h45.51.141,HW_LDT_1,2024.2.4,iPad,43.47826087,,,,,,,,,,,,,,,,,,,,,,441.969,442.168,442.168,442.667,,,,,,,,,,,,,,1.269,0,,,,,,,,,,,,,,z,,,,,,,,,,,,,,,,78,0,442.668,443.949,m,0,1.269,,[],[],[],[],[],[],[],443.949,445.951,445.951,445.951,[],[],[],[],[],[],[],,445.952,445.952,-0.791044776,0.501148106,0,0,0,,0,77,77,51,1,4,TL,adsivory,cursive,adsivory_c.png,,,,,,
,,,,31990,001,2025-12-02_10h45.51.141,HW_LDT_1,2024.2.4,iPad,43.47826087,,,,,,,,,,,,,,,,,,,,,,445.953,446.151,446.151,446.651,,,,,,,,,,,,,,1.002,1,,,,,,,,,,,,,,z,,,,,,,,,,,,,,,,79,0,446.651,447.664,z,1,1.002,,[],[],[],[],[],[],[],447.664,449.668,449.668,449.668,[],[],[],[],[],[],[],,449.668,449.668,-0.791044776,0.501148106,0,0,0,,0,78,78,48,1,4,RL,vabifity,print,vabifity_p.png,,,,,,
,,,,31990,001,2025-12-02_10h45.51.141,HW_LDT_1,2024.2.4,iPad,43.47826087,,,,,,,,,,,,,,,,,,,,,,449.669,449.868,449.868,450.368,,,,,,,,,,,,,,0.685,0,,,,,,,,,,,,,,z,,,,,,,,,,,,,,,,80,0,450.368,451.065,m,0,0.685,,[],[],[],[],[],[],[],451.065,453.068,453.068,453.068,[],[],[],[],[],[],[],,453.068,460.666,-0.791044776,0.501148106,0,0,0,space,0,79,79,77,1,4,TL,spemicen,cursive,spemicen_c.png,,,7.564,,,
,,,,31990,001,2025-12-02_10h45.51.141,HW_LDT_1,2024.2.4,iPad,43.47826087,,,,,,,,,,,,,,,,,,,,,,460.667,460.868,460.868,461.368,,,,,,,,,,,,,,0.852,1,,,,,,,,,,,,,,z,,,,,,,,,,,,,,,,81,0,461.368,462.233,z,1,0.852,,[],[],[],[],[],[],[],462.233,464.234,464.235,464.235,[],[],[],[],[],[],[],,464.235,464.235,-0.791044776,0.501148106,0,0,0,,0,80,80,42,1,4,RL,revune,print,revune_p.png,,,,,,
,,,,31990,001,2025-12-02_10h45.51.141,HW_LDT_1,2024.2.4,iPad,43.47826087,,,,,,,,,,,,,,,,,,,,,,464.236,464.435,464.435,464.935,,,,,,,,,,,,,,1.1,1,,,,,,,,,,,,,,z,,,,,,,,,,,,,,,,82,0,464.935,466.046,z,1,1.1,,[],[],[],[],[],[],[],466.046,468.035,468.035,468.035,[],[],[],[],[],[],[],,468.035,468.035,-0.791044776,0.501148106,0,0,0,,0,81,81,75,1,4,TL,sanile,print,sanile_p.png,,,,,,
,,,,31990,001,2025-12-02_10h45.51.141,HW_LDT_1,2024.2.4,iPad,43.47826087,,,,,,,,,,,,,,,,,,,,,,468.036,468.235,468.235,468.735,,,,,,,,,,,,,,2.521,1,,,,,,,,,,,,,,z,,,,,,,,,,,,,,,,83,0,468.735,471.268,z,1,2.521,,[],[],[],[],[],[],[],471.268,473.268,473.268,473.268,[],[],[],[],[],[],[],,473.268,473.269,-0.791044776,0.501148106,0,0,0,,0,82,82,35,1,4,RL,probice,cursive,probice_c.png,,,,,,
,,,,31990,001,2025-12-02_10h45.51.141,HW_LDT_1,2024.2.4,iPad,43.47826087,,,,,,,,,,,,,,,,,,,,,,473.269,473.468,473.468,473.968,,,,,,,,,,,,,,0.801,1,,,,,,,,,,,,,,m,,,,,,,,,,,,,,,,84,0,473.968,474.782,m,1,0.801,,[],[],[],[],[],[],[],474.782,476.785,476.785,476.785,[],[],[],[],[],[],[],,476.785,476.785,-0.791044776,0.501148106,0,0,0,,0,83,83,156,1,4,word,TRIBUTE,print,tribute_p.png,,,,,,
,,,,31990,001,2025-12-02_10h45.51.141,HW_LDT_1,2024.2.4,iPad,43.47826087,,,,,,,,,,,,,,,,,,,,,,476.786,476.985,476.985,477.485,,,,,,,,,,,,,,0.986,1,,,,,,,,,,,,,,m,,,,,,,,,,,,,,,,85,0,477.485,478.483,m,1,0.986,,[],[],[],[],[],[],[],478.483,480.485,480.485,480.485,[],[],[],[],[],[],[],,480.485,480.485,-0.791044776,0.501148106,0,0,0,,0,84,84,100,1,4,word,DECADE,cursive,decade_c.png,,,,,,
,,,,31990,001,2025-12-02_10h45.51.141,HW_LDT_1,2024.2.4,iPad,43.47826087,,,,,,,,,,,,,,,,,,,,,,480.486,480.685,480.685,481.185,,,,,,,,,,,,,,0.787,1,,,,,,,,,,,,,,m,,,,,,,,,,,,,,,,86,0,481.185,481.984,m,1,0.787,,[],[],[],[],[],[],[],481.984,483.985,483.985,483.985,[],[],[],[],[],[],[],,483.985,483.985,-0.791044776,0.501148106,0,0,0,,0,85,85,155,1,4,word,STRATEGY,print,strategy_p.png,,,,,,
,,,,31990,001,2025-12-02_10h45.51.141,HW_LDT_1,2024.2.4,iPad,43.47826087,,,,,,,,,,,,,,,,,,,,,,483.986,484.185,484.185,484.685,,,,,,,,,,,,,,0.864,1,,,,,,,,,,,,,,z,,,,,,,,,,,,,,,,87,1,484.688,485.565,z,1,0.864,,[],[],[],[],[],[],[],485.565,487.568,487.568,488.884,[],[],[],[],[],[],[],z,488.884,488.884,-0.791044776,0.501148106,0,0,0,,0,86,86,34,1,4,RL,posity,cursive,posity_c.png,1.303,,,,,
,,,,31990,001,2025-12-02_10h45.51.141,HW_LDT_1,2024.2.4,iPad,43.47826087,,,,,,,,,,,,,,,,,,,,,,488.885,489.085,489.085,489.585,,,,,,,,,,,,,,1.352,1,,,,,,,,,,,,,,z,,,,,,,,,,,,,,,,88,1,489.585,490.95,z,1,1.352,,[],[],[],[],[],[],[],490.95,492.951,492.952,493.746,[],[],[],[],[],[],[],m,493.746,493.746,-0.791044776,0.501148106,0,0,0,,0,87,87,53,1,4,TL,cemerony,print,cemerony_p.png,0.783,,,,,
,,,,31990,001,2025-12-02_10h45.51.141,HW_LDT_1,2024.2.4,iPad,43.47826087,,,,,,,,,,,,,,,,,,,,,,493.746,493.935,493.935,494.435,,,,,,,,,,,,,,0.867,0,,,,,,,,,,,,,,z,,,,,,,,,,,,,,,,89,0,494.435,495.315,m,0,0.867,,[],[],[],[],[],[],[],495.315,497.318,497.318,497.319,[],[],[],[],[],[],[],,497.319,497.319,-0.791044776,0.501148106,0,0,0,,0,88,88,68,1,4,TL,prosopal,print,prosopal_p.png,,,,,,
,,,,31990,001,2025-12-02_10h45.51.141,HW_LDT_1,2024.2.4,iPad,43.47826087,,,,,,,,,,,,,,,,,,,,,,497.32,497.518,497.518,498.018,,,,,,,,,,,,,,1.203,1,,,,,,,,,,,,,,m,,,,,,,,,,,,,,,,90,0,498.019,499.234,m,1,1.203,,[],[],[],[],[],[],[],499.234,501.235,501.235,501.235,[],[],[],[],[],[],[],,501.235,501.236,-0.791044776,0.501148106,0,0,0,,0,89,89,93,1,4,word,CEREMONY,print,ceremony_p.png,,,,,,
,,,,31990,001,2025-12-02_10h45.51.141,HW_LDT_1,2024.2.4,iPad,43.47826087,,,,,,,,,,,,,,,,,,,,,,501.236,501.435,501.435,501.935,,,,,,,,,,,,,,0.786,1,,,,,,,,,,,,,,z,,,,,,,,,,,,,,,,91,0,501.935,502.734,z,1,0.786,,[],[],[],[],[],[],[],502.734,504.735,504.735,504.735,[],[],[],[],[],[],[],,504.735,504.735,-0.791044776,0.501148106,0,0,0,,0,90,90,57,1,4,TL,etidor,print,etidor_p.png,,,,,,
,,,,31990,001,2025-12-02_10h45.51.141,HW_LDT_1,2024.2.4,iPad,43.47826087,,,,,,,,,,,,,,,,,,,,,,504.736,504.935,504.935,505.435,,,,,,,,,,,,,,1.468,1,,,,,,,,,,,,,,m,,,,,,,,,,,,,,,,92,0,505.435,506.916,m,1,1.468,,[],[],[],[],[],[],[],506.916,508.918,508.918,508.919,[],[],[],[],[],[],[],,508.919,508.919,-0.791044776,0.501148106,0,0,0,,0,91,91,83,1,4,word,ANIMAL,cursive,animal_c.png,,,,,,
,,,,31990,001,2025-12-02_10h45.51.141,HW_LDT_1,2024.2.4,iPad,43.47826087,,,,,,,,,,,,,,,,,,,,,,508.92,509.118,509.118,509.618,,,,,,,,,,,,,,0.819,1,,,,,,,,,,,,,,m,,,,,,,,,,,,,,,,93,0,509.619,510.449,m,1,0.819,,[],[],[],[],[],[],[],510.449,512.452,512.452,512.452,[],[],[],[],[],[],[],,512.452,512.452,-0.791044776,0.501148106,0,0,0,,0,92,92,141,1,4,word,RELIGION,print,religion_p.png,,,,,,
,,,,31990,001,2025-12-02_10h45.51.141,HW_LDT_1,2024.2.4,iPad,43.47826087,,,,,,,,,,,,,,,,,,,,,,512.453,512.652,512.652,513.152,,,,,,,,,,,,,,0.935,1,,,,,,,,,,,,,,z,,,,,,,,,,,,,,,,94,0,513.152,514.1,z,1,0.935,,[],[],[],[],[],[],[],514.1,516.102,516.102,516.102,[],[],[],[],[],[],[],,516.102,516.103,-0.791044776,0.501148106,0,0,0,,0,93,93,9,1,4,RL,cafigal,print,cafigal_p.png,,,,,,
,,,,31990,001,2025-12-02_10h45.51.141,HW_LDT_1,2024.2.4,iPad,43.47826087,,,,,,,,,,,,,,,,,,,,,,516.104,516.302,516.302,516.802,,,,,,,,,,,,,,0.736,1,,,,,,,,,,,,,,m,,,,,,,,,,,,,,,,95,1,516.802,517.55,m,1,0.736,,[],[],[],[],[],[],[],517.551,519.552,519.552,522.667,[],[],[],[],[],[],[],m,522.667,522.667,-0.791044776,0.501148106,0,0,0,,0,94,94,149,1,4,word,SENATOR,print,senator_p.png,3.103,,,,,
,,,,31990,001,2025-12-02_10h45.51.141,HW_LDT_1,2024.2.4,iPad,43.47826087,,,,,,,,,,,,,,,,,,,,,,522.667,522.869,522.869,523.368,,,,,,,,,,,,,,1.268,1,,,,,,,,,,,,,,m,,,,,,,,,,,,,,,,96,1,523.369,524.65,m,1,1.268,,[],[],[],[],[],[],[],524.65,526.652,526.652,530.285,[],[],[],[],[],[],[],m,530.285,530.285,-0.791044776,0.501148106,0,0,0,,0,95,95,126,1,4,word,OPTIMAL,print,optimal_p.png,3.621,,,,,
,,,,31990,001,2025-12-02_10h45.51.141,HW_LDT_1,2024.2.4,iPad,43.47826087,,,,,,,,,,,,,,,,,,,,,,530.286,530.485,530.485,530.985,,,,,,,,,,,,,,1.767,1,,,,,,,,,,,,,,m,,,,,,,,,,,,,,,,97,0,530.986,532.764,m,1,1.767,,[],[],[],[],[],[],[],532.764,534.769,534.769,534.769,[],[],[],[],[],[],[],,534.769,534.769,-0.791044776,0.501148106,0,0,0,,0,96,96,94,1,4,word,CLINICAL,print,clinical_p.png,,,,,,
,,,,31990,001,2025-12-02_10h45.51.141,HW_LDT_1,2024.2.4,iPad,43.47826087,,,,,,,,,,,,,,,,,,,,,,534.77,534.969,534.969,535.469,,,,,,,,,,,,,,0.802,1,,,,,,,,,,,,,,m,,,,,,,,,,,,,,,,98,1,535.469,536.284,m,1,0.802,,[],[],[],[],[],[],[],536.284,538.285,538.285,539.185,[],[],[],[],[],[],[],m,539.185,539.185,-0.791044776,0.501148106,0,0,0,,0,97,97,86,1,4,word,BESIDE,print,beside_p.png,0.887,,,,,
,,,,31990,001,2025-12-02_10h45.51.141,HW_LDT_1,2024.2.4,iPad,43.47826087,,,,,,,,,,,,,,,,,,,,,,539.185,539.385,539.386,539.885,,,,,,,,,,,,,,1.121,1,,,,,,,,,,,,,,z,,,,,,,,,,,,,,,,99,1,539.886,541.019,z,1,1.121,,[],[],[],[],[],[],[],541.019,543.019,543.019,544.701,[],[],[],[],[],[],[],m,544.701,544.701,-0.791044776,0.501148106,0,0,0,,0,98,98,71,1,4,TL,racidal,print,racidal_p.png,1.67,,,,,
,,,,31990,001,2025-12-02_10h45.51.141,HW_LDT_1,2024.2.4,iPad,43.47826087,,,,,,,,,,,,,,,,,,,,,,544.702,544.902,544.902,545.402,,,,,,,,,,,,,,1.285,1,,,,,,,,,,,,,,m,,,,,,,,,,,,,,,,100,0,545.403,546.701,m,1,1.285,,[],[],[],[],[],[],[],546.701,548.702,548.702,548.702,[],[],[],[],[],[],[],,548.702,548.703,-0.791044776,0.501148106,0,0,0,,0,99,99,122,1,4,word,MOBILE,print,mobile_p.png,,,,,,
,,,,31990,001,2025-12-02_10h45.51.141,HW_LDT_1,2024.2.4,iPad,43.47826087,,,,,,,,,,,,,,,,,,,,,,548.703,548.902,548.902,549.402,,,,,,,,,,,,,,0.849,1,,,,,,,,,,,,,,m,,,,,,,,,,,,,,,,101,0,549.403,550.263,m,1,0.849,,[],[],[],[],[],[],[],550.263,552.253,552.253,552.253,[],[],[],[],[],[],[],,552.254,552.254,-0.791044776,0.501148106,0,0,0,,0,100,100,132,1,4,word,PROPOSAL,print,proposal_p.png,,,,,,
,,,,31990,001,2025-12-02_10h45.51.141,HW_LDT_1,2024.2.4,iPad,43.47826087,,,,,,,,,,,,,,,,,,,,,,552.255,552.452,552.452,552.952,,,,,,,,,,,,,,0.902,1,,,,,,,,,,,,,,z,,,,,,,,,,,,,,,,102,0,552.953,553.868,z,1,0.902,,[],[],[],[],[],[],[],553.868,555.869,555.869,555.87,[],[],[],[],[],[],[],,555.87,555.87,-0.791044776,0.501148106,0,0,0,,0,101,101,5,1,4,RL,bebine,print,bebine_p.png,,,,,,
,,,,31990,001,2025-12-02_10h45.51.141,HW_LDT_1,2024.2.4,iPad,43.47826087,,,,,,,,,,,,,,,,,,,,,,555.871,556.069,556.069,556.569,,,,,,,,,,,,,,1.019,1,,,,,,,,,,,,,,z,,,,,,,,,,,,,,,,103,0,556.57,557.601,z,1,1.019,,[],[],[],[],[],[],[],557.601,559.603,559.603,559.603,[],[],[],[],[],[],[],,559.603,559.603,-0.791044776,0.501148106,0,0,0,,0,102,102,26,1,4,RL,mesibine,cursive,mesibine_c.png,,,,,,
,,,,31990,001,2025-12-02_10h45.51.141,HW_LDT_1,2024.2.4,iPad,43.47826087,,,,,,,,,,,,,,,,,,,,,,559.604,559.802,559.802,560.302,,,,,,,,,,,,,,1.184,1,,,,,,,,,,,,,,z,,,,,,,,,,,,,,,,104,0,560.303,561.499,z,1,1.184,,[],[],[],[],[],[],[],561.499,563.502,563.503,563.503,[],[],[],[],[],[],[],,563.503,563.503,-0.791044776,0.501148106,0,0,0,,0,103,103,18,1,4,RL,disluge,print,disluge_p.png,,,,,,
,,,,31990,001,2025-12-02_10h45.51.141,HW_LDT_1,2024.2.4,iPad,43.47826087,,,,,,,,,,,,,,,,,,,,,,563.504,563.702,563.702,564.202,,,,,,,,,,,,,,0.837,1,,,,,,,,,,,,,,z,,,,,,,,,,,,,,,,105,0,564.203,565.052,z,1,0.837,,[],[],[],[],[],[],[],565.052,567.052,567.052,567.053,[],[],[],[],[],[],[],,567.053,567.053,-0.791044776,0.501148106,0,0,0,,0,104,104,20,1,4,RL,gralekul,print,gralekul_p.png,,,,,,
,,,,31990,001,2025-12-02_10h45.51.141,HW_LDT_1,2024.2.4,iPad,43.47826087,,,,,,,,,,,,,,,,,,,,,,567.053,567.253,567.253,567.752,,,,,,,,,,,,,,1.268,1,,,,,,,,,,,,,,m,,,,,,,,,,,,,,,,106,0,567.753,569.032,m,1,1.268,,[],[],[],[],[],[],[],569.032,571.036,571.036,571.036,[],[],[],[],[],[],[],,571.036,571.036,-0.791044776,0.501148106,0,0,0,,0,105,105,139,1,4,word,REGULAR,cursive,regular_c.png,,,,,,
,,,,31990,001,2025-12-02_10h45.51.141,HW_LDT_1,2024.2.4,iPad,43.47826087,,,,,,,,,,,,,,,,,,,,,,571.037,571.236,571.236,571.736,,,,,,,,,,,,,,1.486,1,,,,,,,,,,,,,,m,,,,,,,,,,,,,,,,107,1,571.736,573.236,m,1,1.486,,[],[],[],[],[],[],[],573.236,575.236,575.236,576.164,[],[],[],[],[],[],[],z,576.164,576.164,-0.791044776,0.501148106,0,0,0,,0,106,106,118,1,4,word,MEDICINE,cursive,medicine_c.png,0.917,,,,,
,,,,31990,001,2025-12-02_10h45.51.141,HW_LDT_1,2024.2.4,iPad,43.47826087,,,,,,,,,,,,,,,,,,,,,,576.165,576.362,576.362,576.852,,,,,,,,,,,,,,2.119,1,,,,,,,,,,,,,,z,,,,,,,,,,,,,,,,108,1,576.853,578.984,z,1,2.119,,[],[],[],[],[],[],[],578.984,580.986,580.986,582.051,[],[],[],[],[],[],[],z,582.051,582.051,-0.791044776,0.501148106,0,0,0,,0,107,107,6,1,4,RL,caleberia,cursive,caleberia_c.png,1.053,,,,,
,,,,31990,001,2025-12-02_10h45.51.141,HW_LDT_1,2024.2.4,iPad,43.47826087,,,,,,,,,,,,,,,,,,,,,,582.052,582.249,582.249,582.753,,,,,,,,,,,,,,1.786,1,,,,,,,,,,,,,,z,,,,,,,,,,,,,,,,109,1,582.753,584.552,z,1,1.786,,[],[],[],[],[],[],[],584.552,586.553,586.553,588.17,[],[],[],[],[],[],[],m,588.17,588.17,-0.791044776,0.501148106,0,0,0,,0,108,108,78,1,4,TL,stragety,print,stragety_p.png,1.604,,,,,
,,,,31990,001,2025-12-02_10h45.51.141,HW_LDT_1,2024.2.4,iPad,43.47826087,,,,,,,,,,,,,,,,,,,,,,588.17,588.369,588.369,588.87,,,,,,,,,,,,,,1.137,1,,,,,,,,,,,,,,m,,,,,,,,,,,,,,,,110,0,588.87,590.019,m,1,1.137,,[],[],[],[],[],[],[],590.019,592.019,592.02,592.02,[],[],[],[],[],[],[],,592.02,592.02,-0.791044776,0.501148106,0,0,0,,0,109,109,146,1,4,word,RETIRE,print,retire_p.png,,,,,,
,,,,31990,001,2025-12-02_10h45.51.141,HW_LDT_1,2024.2.4,iPad,43.47826087,,,,,,,,,,,,,,,,,,,,,,592.021,592.219,592.219,592.719,,,,,,,,,,,,,,1.25,1,,,,,,,,,,,,,,m,,,,,,,,,,,,,,,,111,0,592.72,593.982,m,1,1.25,,[],[],[],[],[],[],[],593.982,595.986,595.986,595.987,[],[],[],[],[],[],[],,595.987,595.987,-0.791044776,0.501148106,0,0,0,,0,110,110,112,1,4,word,LIBERAL,cursive,liberal_c.png,,,,,,
,,,,31990,001,2025-12-02_10h45.51.141,HW_LDT_1,2024.2.4,iPad,43.47826087,,,,,,,,,,,,,,,,,,,,,,595.988,596.186,596.186,596.686,,,,,,,,,,,,,,0.936,1,,,,,,,,,,,,,,z,,,,,,,,,,,,,,,,112,0,596.686,597.636,z,1,0.936,,[],[],[],[],[],[],[],597.636,599.636,599.636,599.636,[],[],[],[],[],[],[],,599.637,599.637,-0.791044776,0.501148106,0,0,0,,0,111,111,0,1,4,RL,abanemy,print,abanemy_p.png,,,,,,
,,,,31990,001,2025-12-02_10h45.51.141,HW_LDT_1,2024.2.4,iPad,43.47826087,,,,,,,,,,,,,,,,,,,,,,599.637,599.836,599.836,600.336,,,,,,,,,,,,,,4.202,1,,,,,,,,,,,,,,z,,,,,,,,,,,,,,,,113,0,600.336,604.551,z,1,4.202,,[],[],[],[],[],[],[],604.551,606.553,606.553,606.553,[],[],[],[],[],[],[],,606.553,606.553,-0.791044776,0.501148106,0,0,0,,0,112,112,30,1,4,RL,nunewical,cursive,nunewical_c.png,,,,,,
,,,,31990,001,2025-12-02_10h45.51.141,HW_LDT_1,2024.2.4,iPad,43.47826087,,,,,,,,,,,,,,,,,,,,,,606.554,606.753,606.753,607.253,,,,,,,,,,,,,,0.77,1,,,,,,,,,,,,,,m,,,,,,,,,,,,,,,,114,0,607.253,608.036,m,1,0.77,,[],[],[],[],[],[],[],608.036,610.036,610.036,610.037,[],[],[],[],[],[],[],,610.037,610.037,-0.791044776,0.501148106,0,0,0,,0,113,113,154,1,4,word,STORAGE,print,storage_p.png,,,,,,
,,,,31990,001,2025-12-02_10h45.51.141,HW_LDT_1,2024.2.4,iPad,43.47826087,,,,,,,,,,,,,,,,,,,,,,610.038,610.236,610.236,610.736,,,,,,,,,,,,,,0.936,1,,,,,,,,,,,,,,m,,,,,,,,,,,,,,,,115,1,610.737,611.685,m,1,0.936,,[],[],[],[],[],[],[],611.685,613.686,613.686,615.285,[],[],[],[],[],[],[],m,615.285,615.285,-0.791044776,0.501148106,0,0,0,,0,114,114,150,1,4,word,SENTIMENT,print,sentiment_p.png,1.586,,,,,
,,,,31990,001,2025-12-02_10h45.51.141,HW_LDT_1,2024.2.4,iPad,43.47826087,,,,,,,,,,,,,,,,,,,,,,615.285,615.486,615.486,615.986,,,,,,,,,,,,,,1.199,1,,,,,,,,,,,,,,z,,,,,,,,,,,,,,,,116,0,615.987,617.197,z,1,1.199,,[],[],[],[],[],[],[],617.197,619.186,619.186,619.187,[],[],[],[],[],[],[],,619.187,619.187,-0.791044776,0.501148106,0,0,0,,0,115,115,44,1,4,RL,senvilent,print,senvilent_p.png,,,,,,
,,,,31990,001,2025-12-02_10h45.51.141,HW_LDT_1,2024.2.4,iPad,43.47826087,,,,,,,,,,,,,,,,,,,,,,619.188,619.386,619.387,619.887,,,,,,,,,,,,,,1.302,1,,,,,,,,,,,,,,z,,,,,,,,,,,,,,,,117,0,619.887,621.201,z,1,1.302,,[],[],[],[],[],[],[],621.201,623.203,623.203,623.204,[],[],[],[],[],[],[],,623.204,623.204,-0.791044776,0.501148106,0,0,0,,0,116,116,21,1,4,RL,insibate,print,insibate_p.png,,,,,,
,,,,31990,001,2025-12-02_10h45.51.141,HW_LDT_1,2024.2.4,iPad,43.47826087,,,,,,,,,,,,,,,,,,,,,,623.205,623.403,623.403,623.903,,,,,,,,,,,,,,0.766,1,,,,,,,,,,,,,,m,,,,,,,,,,,,,,,,118,0,623.903,624.681,m,1,0.766,,[],[],[],[],[],[],[],624.681,626.67,626.67,626.67,[],[],[],[],[],[],[],,626.67,626.67,-0.791044776,0.501148106,0,0,0,,0,117,117,143,1,4,word,REMOVAL,print,removal_p.png,,,,,,
,,,,31990,001,2025-12-02_10h45.51.141,HW_LDT_1,2024.2.4,iPad,43.47826087,,,,,,,,,,,,,,,,,,,,,,626.671,626.87,626.87,627.37,,,,,,,,,,,,,,3.135,0,,,,,,,,,,,,,,m,,,,,,,,,,,,,,,,119,0,627.37,630.519,z,0,3.135,,[],[],[],[],[],[],[],630.519,632.52,632.52,632.52,[],[],[],[],[],[],[],,632.52,632.52,-0.791044776,0.501148106,0,0,0,,0,118,118,92,1,4,word,CATEGORY,cursive,category_c.png,,,,,,
,,,,31990,001,2025-12-02_10h45.51.141,HW_LDT_1,2024.2.4,iPad,43.47826087,,,,,,,,,,,,,,,,,,,,,,632.521,632.72,632.72,633.22,,,,,,,,,,,,,,2.687,1,,,,,,,,,,,,,,z,,,,,,,,,,,,,,,,120,0,633.22,635.92,z,1,2.687,,[],[],[],[],[],[],[],635.92,637.92,637.92,637.921,[],[],[],[],[],[],[],,637.921,637.921,-0.791044776,0.501148106,0,0,0,,0,119,119,12,1,4,RL,conbicer,cursive,conbicer_c.png,,,,,,
,,,,31990,001,2025-12-02_10h45.51.141,HW_LDT_1,2024.2.4,iPad,43.47826087,,,,,,,,,,,,,,,,,,,,,,637.922,638.12,638.12,638.62,,,,,,,,,,,,,,4.504,1,,,,,,,,,,,,,,z,,,,,,,,,,,,,,,,121,0,638.62,643.142,z,1,4.504,,[],[],[],[],[],[],[],643.142,645.137,645.137,645.137,[],[],[],[],[],[],[],,645.137,645.137,-0.791044776,0.501148106,0,0,0,,0,120,120,56,1,4,TL,donimant,cursive,donimant_c.png,,,,,,
,,,,31990,001,2025-12-02_10h45.51.141,HW_LDT_1,2024.2.4,iPad,43.47826087,,,,,,,,,,,,,,,,,,,,,,645.138,645.337,645.337,645.834,,,,,,,,,,,,,,2.255,1,,,,,,,,,,,,,,z,,,,,,,,,,,,,,,,122,0,645.834,648.11,z,1,2.255,,[],[],[],[],[],[],[],648.11,650.103,650.104,650.104,[],[],[],[],[],[],[],,650.104,650.104,-0.791044776,0.501148106,0,0,0,,0,121,121,59,1,4,TL,fornute,cursive,fornute_c.png,,,,,,
,,,,31990,001,2025-12-02_10h45.51.141,HW_LDT_1,2024.2.4,iPad,43.47826087,,,,,,,,,,,,,,,,,,,,,,650.108,650.303,650.304,650.803,,,,,,,,,,,,,,1.07,1,,,,,,,,,,,,,,z,,,,,,,,,,,,,,,,123,0,650.804,651.886,z,1,1.07,,[],[],[],[],[],[],[],651.887,653.887,653.887,653.887,[],[],[],[],[],[],[],,653.887,653.887,-0.791044776,0.501148106,0,0,0,,0,122,122,76,1,4,TL,setanor,print,setanor_p.png,,,,,,
,,,,31990,001,2025-12-02_10h45.51.141,HW_LDT_1,2024.2.4,iPad,43.47826087,,,,,,,,,,,,,,,,,,,,,,653.888,654.087,654.087,654.587,,,,,,,,,,,,,,1.488,1,,,,,,,,,,,,,,z,,,,,,,,,,,,,,,,124,0,654.587,656.096,z,1,1.488,,[],[],[],[],[],[],[],656.096,658.087,658.087,658.087,[],[],[],[],[],[],[],,658.087,658.088,-0.791044776,0.501148106,0,0,0,,0,123,123,22,1,4,RL,linedal,cursive,linedal_c.png,,,,,,
,,,,31990,001,2025-12-02_10h45.51.141,HW_LDT_1,2024.2.4,iPad,43.47826087,,,,,,,,,,,,,,,,,,,,,,658.089,658.287,658.287,658.787,,,,,,,,,,,,,,0.851,1,,,,,,,,,,,,,,m,,,,,,,,,,,,,,,,125,0,658.787,659.652,m,1,0.851,,[],[],[],[],[],[],[],659.652,661.654,661.654,661.654,[],[],[],[],[],[],[],,661.654,661.654,-0.791044776,0.501148106,0,0,0,,0,124,124,107,1,4,word,EVIDENT,print,evident_p.png,,,,,,
,,,,31990,001,2025-12-02_10h45.51.141,HW_LDT_1,2024.2.4,iPad,43.47826087,,,,,,,,,,,,,,,,,,,,,,661.654,661.854,661.854,662.354,,,,,,,,,,,,,,0.654,1,,,,,,,,,,,,,,m,,,,,,,,,,,,,,,,126,0,662.354,663.023,m,1,0.654,,[],[],[],[],[],[],[],663.023,665.02,665.02,665.021,[],[],[],[],[],[],[],,665.021,665.021,-0.791044776,0.501148106,0,0,0,,0,125,125,119,1,4,word,MEMORY,print,memory_p.png,,,,,,
,,,,31990,001,2025-12-02_10h45.51.141,HW_LDT_1,2024.2.4,iPad,43.47826087,,,,,,,,,,,,,,,,,,,,,,665.022,665.22,665.22,665.72,,,,,,,,,,,,,,0.651,1,,,,,,,,,,,,,,m,,,,,,,,,,,,,,,,127,1,665.72,666.385,m,1,0.651,,[],[],[],[],[],[],[],666.385,668.387,668.387,669.285,[],[],[],[],[],[],[],m,669.285,669.285,-0.791044776,0.501148106,0,0,0,,0,126,126,115,1,4,word,LOGICAL,print,logical_p.png,0.884,,,,,
,,,,31990,001,2025-12-02_10h45.51.141,HW_LDT_1,2024.2.4,iPad,43.47826087,,,,,,,,,,,,,,,,,,,,,,669.286,669.487,669.487,669.987,,,,,,,,,,,,,,0.817,1,,,,,,,,,,,,,,m,,,,,,,,,,,,,,,,128,0,669.987,670.819,m,1,0.817,,[],[],[],[],[],[],[],670.819,672.82,672.82,672.821,[],[],[],[],[],[],[],,672.821,672.821,-0.791044776,0.501148106,0,0,0,,0,127,127,158,1,4,word,VELOCITY,cursive,velocity_c.png,,,,,,
,,,,31990,001,2025-12-02_10h45.51.141,HW_LDT_1,2024.2.4,iPad,43.47826087,,,,,,,,,,,,,,,,,,,,,,672.822,673.02,673.02,673.52,,,,,,,,,,,,,,0.784,1,,,,,,,,,,,,,,z,,,,,,,,,,,,,,,,129,0,673.521,674.319,z,1,0.784,,[],[],[],[],[],[],[],674.319,676.32,676.32,676.321,[],[],[],[],[],[],[],,676.321,676.321,-0.791044776,0.501148106,0,0,0,,0,128,128,38,1,4,RL,refakive,print,refakive_p.png,,,,,,
,,,,31990,001,2025-12-02_10h45.51.141,HW_LDT_1,2024.2.4,iPad,43.47826087,,,,,,,,,,,,,,,,,,,,,,676.322,676.52,676.52,677.02,,,,,,,,,,,,,,1.05,1,,,,,,,,,,,,,,z,,,,,,,,,,,,,,,,130,0,677.021,678.087,z,1,1.05,,[],[],[],[],[],[],[],678.087,680.088,680.088,680.088,[],[],[],[],[],[],[],,680.088,680.088,-0.791044776,0.501148106,0,0,0,,0,129,129,50,1,4,RL,vecelan,cursive,vecelan_c.png,,,,,,
,,,,31990,001,2025-12-02_10h45.51.141,HW_LDT_1,2024.2.4,iPad,43.47826087,,,,,,,,,,,,,,,,,,,,,,680.089,680.287,680.287,680.787,,,,,,,,,,,,,,2.819,1,,,,,,,,,,,,,,z,,,,,,,,,,,,,,,,131,0,680.787,683.621,z,1,2.819,,[],[],[],[],[],[],[],683.621,685.621,685.621,685.621,[],[],[],[],[],[],[],,685.621,685.622,-0.791044776,0.501148106,0,0,0,,0,130,130,13,1,4,RL,crisival,cursive,crisival_c.png,,,,,,
,,,,31990,001,2025-12-02_10h45.51.141,HW_LDT_1,2024.2.4,iPad,43.47826087,,,,,,,,,,,,,,,,,,,,,,685.622,685.82,685.821,686.32,,,,,,,,,,,,,,1.988,1,,,,,,,,,,,,,,m,,,,,,,,,,,,,,,,132,0,686.321,688.325,m,1,1.988,,[],[],[],[],[],[],[],688.325,690.321,690.321,690.321,[],[],[],[],[],[],[],,690.321,690.321,-0.791044776,0.501148106,0,0,0,,0,131,131,129,1,4,word,PARENT,cursive,parent_c.png,,,,,,
,,,,31990,001,2025-12-02_10h45.51.141,HW_LDT_1,2024.2.4,iPad,43.47826087,,,,,,,,,,,,,,,,,,,,,,690.321,690.521,690.521,691.021,,,,,,,,,,,,,,2.234,1,,,,,,,,,,,,,,z,,,,,,,,,,,,,,,,133,1,691.021,693.269,z,1,2.234,,[],[],[],[],[],[],[],693.269,695.271,695.271,696.635,[],[],[],[],[],[],[],z,696.635,696.635,-0.791044776,0.501148106,0,0,0,,0,132,132,8,1,4,RL,casagity,cursive,casagity_c.png,1.35,,,,,
,,,,31990,001,2025-12-02_10h45.51.141,HW_LDT_1,2024.2.4,iPad,43.47826087,,,,,,,,,,,,,,,,,,,,,,696.636,696.837,696.837,697.337,,,,,,,,,,,,,,1.115,1,,,,,,,,,,,,,,z,,,,,,,,,,,,,,,,134,0,697.338,698.467,z,1,1.115,,[],[],[],[],[],[],[],698.467,700.471,700.471,700.471,[],[],[],[],[],[],[],,700.471,700.471,-0.791044776,0.501148106,0,0,0,,0,133,133,74,1,4,TL,rerite,print,rerite_p.png,,,,,,
,,,,31990,001,2025-12-02_10h45.51.141,HW_LDT_1,2024.2.4,iPad,43.47826087,,,,,,,,,,,,,,,,,,,,,,700.472,700.671,700.671,701.171,,,,,,,,,,,,,,0.8,1,,,,,,,,,,,,,,m,,,,,,,,,,,,,,,,135,0,701.171,701.985,m,1,0.8,,[],[],[],[],[],[],[],701.985,703.987,703.987,703.987,[],[],[],[],[],[],[],,703.987,703.988,-0.791044776,0.501148106,0,0,0,,0,134,134,105,1,4,word,EDITOR,print,editor_p.png,,,,,,
,,,,31990,001,2025-12-02_10h45.51.141,HW_LDT_1,2024.2.4,iPad,43.47826087,,,,,,,,,,,,,,,,,,,,,,703.988,704.187,704.187,704.687,,,,,,,,,,,,,,0.784,1,,,,,,,,,,,,,,m,,,,,,,,,,,,,,,,136,0,704.688,705.486,m,1,0.784,,[],[],[],[],[],[],[],705.486,707.487,707.487,707.488,[],[],[],[],[],[],[],,707.488,707.488,-0.791044776,0.501148106,0,0,0,,0,135,135,110,1,4,word,HERITAGE,print,heritage_p.png,,,,,,
,,,,31990,001,2025-12-02_10h45.51.141,HW_LDT_1,2024.2.4,iPad,43.47826087,,,,,,,,,,,,,,,,,,,,,,707.488,707.687,707.688,708.187,,,,,,,,,,,,,,0.671,1,,,,,,,,,,,,,,m,,,,,,,,,,,,,,,,137,0,708.188,708.871,m,1,0.671,,[],[],[],[],[],[],[],708.871,710.871,710.871,710.871,[],[],[],[],[],[],[],,710.871,710.871,-0.791044776,0.501148106,0,0,0,,0,136,136,125,1,4,word,OPERATOR,print,operator_p.png,,,,,,
,,,,31990,001,2025-12-02_10h45.51.141,HW_LDT_1,2024.2.4,iPad,43.47826087,,,,,,,,,,,,,,,,,,,,,,710.872,711.071,711.071,711.571,,,,,,,,,,,,,,0.686,1,,,,,,,,,,,,,,m,,,,,,,,,,,,,,,,138,0,711.571,712.27,m,1,0.686,,[],[],[],[],[],[],[],712.27,714.271,714.271,714.271,[],[],[],[],[],[],[],,714.271,714.271,-0.791044776,0.501148106,0,0,0,,0,137,137,136,1,4,word,RADICAL,print,radical_p.png,,,,,,
,,,,31990,001,2025-12-02_10h45.51.141,HW_LDT_1,2024.2.4,iPad,43.47826087,,,,,,,,,,,,,,,,,,,,,,714.272,714.471,714.471,714.971,,,,,,,,,,,,,,0.799,1,,,,,,,,,,,,,,z,,,,,,,,,,,,,,,,139,0,714.971,715.785,z,1,0.799,,[],[],[],[],[],[],[],715.785,717.788,717.788,717.788,[],[],[],[],[],[],[],,717.788,717.788,-0.791044776,0.501148106,0,0,0,,0,138,138,7,1,4,RL,casena,print,casena_p.png,,,,,,
,,,,31990,001,2025-12-02_10h45.51.141,HW_LDT_1,2024.2.4,iPad,43.47826087,,,,,,,,,,,,,,,,,,,,,,717.789,717.988,717.988,718.488,,,,,,,,,,,,,,1.253,1,,,,,,,,,,,,,,m,,,,,,,,,,,,,,,,140,0,718.488,719.754,m,1,1.253,,[],[],[],[],[],[],[],719.754,721.754,721.754,721.754,[],[],[],[],[],[],[],,721.755,721.755,-0.791044776,0.501148106,0,0,0,,0,139,139,128,1,4,word,PACIFIC,cursive,pacific_c.png,,,,,,
,,,,31990,001,2025-12-02_10h45.51.141,HW_LDT_1,2024.2.4,iPad,43.47826087,,,,,,,,,,,,,,,,,,,,,,721.755,721.954,721.954,722.454,,,,,,,,,,,,,,0.917,1,,,,,,,,,,,,,,m,,,,,,,,,,,,,,,,141,0,722.455,723.385,m,1,0.917,,[],[],[],[],[],[],[],723.385,725.388,725.388,725.388,[],[],[],[],[],[],[],,725.388,725.388,-0.791044776,0.501148106,0,0,0,,0,140,140,91,1,4,word,CARDINAL,cursive,cardinal_c.png,,,,,,
,,,,31990,001,2025-12-02_10h45.51.141,HW_LDT_1,2024.2.4,iPad,43.47826087,,,,,,,,,,,,,,,,,,,,,,725.389,725.588,725.588,726.091,,,,,,,,,,,,,,0.615,1,,,,,,,,,,,,,,m,,,,,,,,,,,,,,,,142,0,726.091,726.72,m,1,0.615,,[],[],[],[],[],[],[],726.72,728.721,728.722,728.723,[],[],[],[],[],[],[],,728.723,728.723,-0.791044776,0.501148106,0,0,0,,0,141,141,145,1,4,word,RESUME,print,resume_p.png,,,,,,
,,,,31990,001,2025-12-02_10h45.51.141,HW_LDT_1,2024.2.4,iPad,43.47826087,,,,,,,,,,,,,,,,,,,,,,728.726,728.921,728.921,729.421,,,,,,,,,,,,,,3.265,1,,,,,,,,,,,,,,z,,,,,,,,,,,,,,,,143,0,729.422,732.7,z,1,3.265,,[],[],[],[],[],[],[],732.7,734.704,734.704,734.705,[],[],[],[],[],[],[],,734.705,734.705,-0.791044776,0.501148106,0,0,0,,0,142,142,24,1,4,RL,marmipal,cursive,marmipal_c.png,,,,,,
,,,,31990,001,2025-12-02_10h45.51.141,HW_LDT_1,2024.2.4,iPad,43.47826087,,,,,,,,,,,,,,,,,,,,,,734.706,734.904,734.904,735.404,,,,,,,,,,,,,,1.185,1,,,,,,,,,,,,,,z,,,,,,,,,,,,,,,,144,0,735.405,736.604,z,1,1.185,,[],[],[],[],[],[],[],736.604,738.604,738.604,738.604,[],[],[],[],[],[],[],,738.605,738.605,-0.791044776,0.501148106,0,0,0,,0,143,143,46,1,4,RL,skofen,cursive,skofen_c.png,,,,,,
,,,,31990,001,2025-12-02_10h45.51.141,HW_LDT_1,2024.2.4,iPad,43.47826087,,,,,,,,,,,,,,,,,,,,,,738.605,738.804,738.804,739.304,,,,,,,,,,,,,,0.6,1,,,,,,,,,,,,,,m,,,,,,,,,,,,,,,,145,0,739.305,739.916,m,1,0.6,,[],[],[],[],[],[],[],739.916,741.921,741.921,741.921,[],[],[],[],[],[],[],,741.921,741.921,-0.791044776,0.501148106,0,0,0,,0,144,144,121,1,4,word,MISTAKE,print,mistake_p.png,,,,,,
,,,,31990,001,2025-12-02_10h45.51.141,HW_LDT_1,2024.2.4,iPad,43.47826087,,,,,,,,,,,,,,,,,,,,,,741.922,742.121,742.121,742.621,,,,,,,,,,,,,,2.654,1,,,,,,,,,,,,,,z,,,,,,,,,,,,,,,,146,0,742.621,745.288,z,1,2.654,,[],[],[],[],[],[],[],745.288,747.288,747.288,747.288,[],[],[],[],[],[],[],,747.288,747.288,-0.791044776,0.501148106,0,0,0,,0,145,145,33,1,4,RL,pamest,cursive,pamest_c.png,,,,,,
,,,,31990,001,2025-12-02_10h45.51.141,HW_LDT_1,2024.2.4,iPad,43.47826087,,,,,,,,,,,,,,,,,,,,,,747.289,747.488,747.488,747.988,,,,,,,,,,,,,,1.07,1,,,,,,,,,,,,,,z,,,,,,,,,,,,,,,,147,0,747.988,749.07,z,1,1.07,,[],[],[],[],[],[],[],749.07,751.071,751.071,751.071,[],[],[],[],[],[],[],,751.071,751.072,-0.791044776,0.501148106,0,0,0,,0,146,146,47,1,4,RL,stopave,print,stopave_p.png,,,,,,
,,,,31990,001,2025-12-02_10h45.51.141,HW_LDT_1,2024.2.4,iPad,43.47826087,,,,,,,,,,,,,,,,,,,,,,751.072,751.271,751.271,751.771,,,,,,,,,,,,,,1,1,,,,,,,,,,,,,,z,,,,,,,,,,,,,,,,148,1,751.771,752.785,z,1,1,,[],[],[],[],[],[],[],752.785,754.788,754.788,758.821,[],[],[],[],[],[],[],m,758.821,758.821,-0.791044776,0.501148106,0,0,0,,0,147,147,62,1,4,TL,locigal,print,locigal_p.png,4.021,,,,,
,,,,31990,001,2025-12-02_10h45.51.141,HW_LDT_1,2024.2.4,iPad,43.47826087,,,,,,,,,,,,,,,,,,,,,,758.822,759.021,759.021,759.521,,,,,,,,,,,,,,2.66,1,,,,,,,,,,,,,,m,,,,,,,,,,,,,,,,149,0,759.522,762.193,m,1,2.66,,[],[],[],[],[],[],[],762.193,764.188,764.188,764.188,[],[],[],[],[],[],[],,764.188,764.188,-0.791044776,0.501148106,0,0,0,,0,148,148,98,1,4,word,CRIMINAL,cursive,criminal_c.png,,,,,,
,,,,31990,001,2025-12-02_10h45.51.141,HW_LDT_1,2024.2.4,iPad,43.47826087,,,,,,,,,,,,,,,,,,,,,,764.188,764.388,764.388,764.888,,,,,,,,,,,,,,2.105,1,,,,,,,,,,,,,,z,,,,,,,,,,,,,,,,150,0,764.888,767.005,z,1,2.105,,[],[],[],[],[],[],[],767.005,769.004,769.004,769.005,[],[],[],[],[],[],[],,769.005,769.005,-0.791044776,0.501148106,0,0,0,,0,149,149,10,1,4,RL,carminal,cursive,carminal_c.png,,,,,,
,,,,31990,001,2025-12-02_10h45.51.141,HW_LDT_1,2024.2.4,iPad,43.47826087,,,,,,,,,,,,,,,,,,,,,,769.005,769.205,769.205,769.704,,,,,,,,,,,,,,3.82,0,,,,,,,,,,,,,,m,,,,,,,,,,,,,,,,151,1,769.705,773.537,z,0,3.82,,[],[],[],[],[],[],[],773.537,775.538,775.538,776.605,[],[],[],[],[],[],[],z,776.605,776.605,-0.791044776,0.501148106,0,0,0,,0,150,150,99,1,4,word,DEBATE,cursive,debate_c.png,1.055,,,,,
,,,,31990,001,2025-12-02_10h45.51.141,HW_LDT_1,2024.2.4,iPad,43.47826087,,,,,,,,,,,,,,,,,,,,,,776.605,776.805,776.805,777.305,,,,,,,,,,,,,,0.821,1,,,,,,,,,,,,,,m,,,,,,,,,,,,,,,,152,0,777.305,778.138,m,1,0.821,,[],[],[],[],[],[],[],778.138,780.138,780.138,780.138,[],[],[],[],[],[],[],,780.139,780.139,-0.791044776,0.501148106,0,0,0,,0,151,151,127,1,4,word,ORIGINAL,print,original_p.png,,,,,,
,,,,31990,001,2025-12-02_10h45.51.141,HW_LDT_1,2024.2.4,iPad,43.47826087,,,,,,,,,,,,,,,,,,,,,,780.14,780.338,780.338,780.838,,,,,,,,,,,,,,1.136,1,,,,,,,,,,,,,,m,,,,,,,,,,,,,,,,153,0,780.838,781.988,m,1,1.136,,[],[],[],[],[],[],[],781.988,783.988,783.988,783.988,[],[],[],[],[],[],[],,783.988,783.988,-0.791044776,0.501148106,0,0,0,,0,152,152,144,1,4,word,RESIDENT,cursive,resident_c.png,,,,,,
,,,,31990,001,2025-12-02_10h45.51.141,HW_LDT_1,2024.2.4,iPad,43.47826087,,,,,,,,,,,,,,,,,,,,,,783.989,784.188,784.188,784.688,,,,,,,,,,,,,,0.769,1,,,,,,,,,,,,,,z,,,,,,,,,,,,,,,,154,0,784.688,785.47,z,1,0.769,,[],[],[],[],[],[],[],785.47,787.471,787.472,787.472,[],[],[],[],[],[],[],,787.472,787.472,-0.791044776,0.501148106,0,0,0,,0,153,153,73,1,4,TL,regilion,print,regilion_p.png,,,,,,
,,,,31990,001,2025-12-02_10h45.51.141,HW_LDT_1,2024.2.4,iPad,43.47826087,,,,,,,,,,,,,,,,,,,,,,787.473,787.671,787.672,788.171,,,,,,,,,,,,,,1.519,1,,,,,,,,,,,,,,m,,,,,,,,,,,,,,,,155,0,788.172,789.703,m,1,1.519,,[],[],[],[],[],[],[],789.703,791.705,791.705,791.705,[],[],[],[],[],[],[],,791.705,791.705,-0.791044776,0.501148106,0,0,0,,0,154,154,142,1,4,word,REMOTE,cursive,remote_c.png,,,,,,
,,,,31990,001,2025-12-02_10h45.51.141,HW_LDT_1,2024.2.4,iPad,43.47826087,,,,,,,,,,,,,,,,,,,,,,791.706,791.905,791.905,792.405,,,,,,,,,,,,,,1.168,1,,,,,,,,,,,,,,m,,,,,,,,,,,,,,,,156,1,792.405,793.586,m,1,1.168,,[],[],[],[],[],[],[],793.586,795.588,795.588,796.417,[],[],[],[],[],[],[],z,796.417,796.417,-0.791044776,0.501148106,0,0,0,,0,155,155,159,1,4,word,VETERAN,cursive,veteran_c.png,0.818,,,,,
,,,,31990,001,2025-12-02_10h45.51.141,HW_LDT_1,2024.2.4,iPad,43.47826087,,,,,,,,,,,,,,,,,,,,,,796.418,796.622,796.622,797.105,,,,,,,,,,,,,,1.134,1,,,,,,,,,,,,,,z,,,,,,,,,,,,,,,,157,0,797.105,798.253,z,1,1.134,,[],[],[],[],[],[],[],798.253,800.255,800.255,800.255,[],[],[],[],[],[],[],,800.255,800.256,-0.791044776,0.501148106,0,0,0,,0,156,156,72,1,4,TL,relugar,cursive,relugar_c.png,,,,,,
,,,,31990,001,2025-12-02_10h45.51.141,HW_LDT_1,2024.2.4,iPad,43.47826087,,,,,,,,,,,,,,,,,,,,,,800.257,800.455,800.455,800.955,,,,,,,,,,,,,,3.82,1,,,,,,,,,,,,,,z,,,,,,,,,,,,,,,,158,0,800.955,804.788,z,1,3.82,,[],[],[],[],[],[],[],804.788,806.788,806.788,806.788,[],[],[],[],[],[],[],,806.788,806.789,-0.791044776,0.501148106,0,0,0,,0,157,157,49,1,4,RL,vesofity,cursive,vesofity_c.png,,,,,,
,,,,31990,001,2025-12-02_10h45.51.141,HW_LDT_1,2024.2.4,iPad,43.47826087,,,,,,,,,,,,,,,,,,,,,,806.789,806.988,806.988,807.488,,,,,,,,,,,,,,1.287,1,,,,,,,,,,,,,,z,,,,,,,,,,,,,,,,159,0,807.489,808.788,z,1,1.287,,[],[],[],[],[],[],[],808.788,810.788,810.788,810.789,[],[],[],[],[],[],[],,810.789,810.789,-0.791044776,0.501148106,0,0,0,,0,158,158,41,1,4,RL,rebicent,cursive,rebicent_c.png,,,,,,
,,,,31990,001,2025-12-02_10h45.51.141,HW_LDT_1,2024.2.4,iPad,43.47826087,,,,,,,,,,,,,,,,,,,,,,810.79,810.988,810.988,811.488,,,,,,,,,,,,,,2.103,1,,,,,,,,,,,,,,z,,,,,,,,,,,,,,,,160,0,811.489,813.605,z,1,2.103,,[],[],[],[],[],[],[],813.605,815.605,815.605,815.606,[],[],[],[],[],[],[],,815.606,815.606,-0.791044776,0.501148106,0,0,0,,0,159,159,2,1,4,RL,asiral,cursive,asiral_c.png,,,,,,
,,,,31990,001,2025-12-02_10h45.51.141,HW_LDT_1,2024.2.4,iPad,43.47826087,,,,,,,,,,,,,,,,,,,,,,,,,,,,,,,,,,,,,,,,,,,,,,,,,,,,,,,,,,,,,,,,,,,,,,,,,,,,,,,,,,,,,,,,,,,,,,,,,,,,,,,,,,,,,,,,,,,,,,,815.615,820.606
