counterbalance_lists.group,counterbalance_lists.remaining,get_list.started,get_list.stopped,participant,session,date,expName,psychopyVersion,OS,frameRate,Instructions.started,Instructions.stopped,key_resp.keys,key_resp.rt,key_resp.duration,instr_done_touch.x,instr_done_touch.y,instr_done_touch.leftButton,instr_done_touch.midButton,instr_done_touch.rightButton,instr_done_touch.clicked_name,start_instr.thisRepN,start_instr.thisTrialN,start_instr.thisN,start_instr.thisIndex,start_instr.ran,pageN,phase,instruct_text,has_image,instruct_image,showProgress.started,showProgress.stopped,fix.started,fix.stopped,prac.started,prac.stopped,response.keys,response.corr,response.rt,response.duration,touch_resp.x,touch_resp.y,touch_resp.leftButton,touch_resp.midButton,touch_resp.rightButton,touch_resp.time,touch_resp.clicked_name,rt,corr,feedback.started,feedback.stopped,trials.thisRepN,trials.thisTrialN,trials.thisN,trials.thisIndex,trials.ran,TrialID,StimulusType,Condition,PrimeDuration,Prime,Target,corrAns,Instructions_expt.started,Instructions_expt.stopped,key_resp_3.keys,key_resp_3.rt,key_resp_3.duration,instr_done_touch_3.x,instr_done_touch_3.y,instr_done_touch_3.leftButton,instr_done_touch_3.midButton,instr_done_touch_3.rightButton,instr_experiment.thisRepN,instr_experiment.thisTrialN,instr_experiment.thisN,instr_experiment.thisIndex,instr_experiment.ran,trialID,flag,maintask.started,maintask.stopped,key_resp_2.keys,key_resp_2.corr,key_resp_2.rt,key_resp_2.duration,targ_click.x,targ_click.y,targ_click.leftButton,targ_click.midButton,targ_click.rightButton,targ_click.time,targ_click.clicked_name,ITI.started,ITI.stopped,probe.started,probe.stopped,click_probe.x,click_probe.y,click_probe.leftButton,click_probe.midButton,click_probe.rightButton,click_probe.time,click_probe.clicked_name,key_resp_probe.keys,Break.started,Break.stopped,break_done_touch.x,break_done_touch.y,break_done_touch.leftButton,break_done_touch.midButton,break_done_touch.rightButton,break_done_keyboard.keys,list2_trials.thisRepN,list2_trials.thisTrialN,list2_trials.thisN,list2_trials.thisIndex,list2_trials.ran,list_id,item_type,string,font,stim_file,key_resp_probe.rt,key_resp_probe.duration,break_done_keyboard.rt,break_done_keyboard.duration,End.started,End.stopped
list2,,4.6998,4.6999,32007,001,2025-11-16_17h08.27.345,HW_LDT_1,2024.2.4,MacIntel,60.24096386,,,,,,,,,,,,,,,,,,,,,,,,,,,,,,,,,,,,,,,,,,,,,,,,,,,,,,,,,,,,,,,,,,,,,,,,,,,,,,,,,,,,,,,,,,,,,,,,,,,,,,,,,,,,,,,,,,,,,,,,
,,,,32007,001,2025-11-16_17h08.27.345,HW_LDT_1,2024.2.4,MacIntel,60.24096386,4.7088,68.461,space,63.7248,,-0.103693954,0.111807914,0,0,0,,0,0,0,0,1,1,instructions,"INSTRUCTIONS
At the start of each trial, look at the plus sign  (+) in the center of the screen.  This tells you that a trial is about to begin and where to look. Second, the plus sign will disappear and a string of letters will appear. Your task is to determine if the string of letters is a word or not. If the item is a word press the M key (on keyboard)  or touch the word button (phone/tablet).  If the item is not a word,  press the  Z key (on keyboard)  or touch the nonword button (on phone/tablet). The items will be presented for a short time. 
Press the space bar or touch  continue.",0,,,,,,,,,,,,,,,,,,,,,,,,,,,,,,,,,,,,,,,,,,,,,,,,,,,,,,,,,,,,,,,,,,,,,,,,,,,,,,,,,,,,,,,,,,,,,,,,,,,,
,,,,32007,001,2025-11-16_17h08.27.345,HW_LDT_1,2024.2.4,MacIntel,60.24096386,68.4634,68.6256,space,0.1353,,-0.103693954,0.111807914,0,0,0,,0,1,1,1,1,2,instructions,"If your device has a keyboard, press the 'Z' key for nonwords and the 'M' key for words.





Press the space bar or touch the button below to continue.",0,keyboard-example.gif,,,,,,,,,,,,,,,,,,,,,,,,,,,,,,,,,,,,,,,,,,,,,,,,,,,,,,,,,,,,,,,,,,,,,,,,,,,,,,,,,,,,,,,,,,,,,,,,,,,
,,,,32007,001,2025-11-16_17h08.27.345,HW_LDT_1,2024.2.4,MacIntel,60.24096386,68.6269,72.7766,space,4.1406,,-0.103693954,0.111807914,0,0,0,,0,2,2,2,1,3,instructions,"If you are using a touchscreen only device, use the buttons on the screen. Do not use the mouse.





Press the space bar or touch the button below to continue.",0,touchscreen-example.gif,,,,,,,,,,,,,,,,,,,,,,,,,,,,,,,,,,,,,,,,,,,,,,,,,,,,,,,,,,,,,,,,,,,,,,,,,,,,,,,,,,,,,,,,,,,,,,,,,,,
,,,,32007,001,2025-11-16_17h08.27.345,HW_LDT_1,2024.2.4,MacIntel,60.24096386,72.7783,79.0933,space,6.2903,,-0.103693954,0.111807914,0,0,0,,0,3,3,3,1,4,instructions,"It is very important that you respond as quickly and accurately as possible, as each letter string will only be on the screen for two seconds. If you do not respond within this time, the message 'Too slow!' will be displayed and the experiment will progress to the next letter string. The first 20 trials will be practice trials and you will receive feedback on your answers. 

Press the space bar or touch the button below to start the practice trials.",0,,,,,,,,,,,,,,,,,,,,,,,,,,,,,,,,,,,,,,,,,,,,,,,,,,,,,,,,,,,,,,,,,,,,,,,,,,,,,,,,,,,,,,,,,,,,,,,,,,,,
,,,,32007,001,2025-11-16_17h08.27.345,HW_LDT_1,2024.2.4,MacIntel,60.24096386,,,,,,,,,,,,,,,,,,,,,,79.1232,79.2936,79.2941,79.7936,79.7941,81.0926,m,1,1.2804,,[],[],[],[],[],[],[],1.2804,1,81.0929,81.5935,0,0,0,7,1,1008,WORD,UN,16,hurdle,VOLUME,m,,,,,,,,,,,,,,,,,,,,,,,,,,,,,,,,,,,,,,,,,,,,,,,,,,,,,,,,,,,,,,,,,,
,,,,32007,001,2025-11-16_17h08.27.345,HW_LDT_1,2024.2.4,MacIntel,60.24096386,,,,,,,,,,,,,,,,,,,,,,81.5953,81.7925,81.7927,82.2923,82.293,83.593,z,1,1.281,,[],[],[],[],[],[],[],1.281,1,83.5932,84.0934,0,1,1,14,1,1015,NW,UN,16,miaber,THRALE,z,,,,,,,,,,,,,,,,,,,,,,,,,,,,,,,,,,,,,,,,,,,,,,,,,,,,,,,,,,,,,,,,,,
,,,,32007,001,2025-11-16_17h08.27.345,HW_LDT_1,2024.2.4,MacIntel,60.24096386,,,,,,,,,,,,,,,,,,,,,,84.0949,84.2935,84.2936,84.7923,84.7934,85.6936,z,1,0.8798,,[],[],[],[],[],[],[],0.8798,1,85.6937,86.1935,0,2,2,12,1,1013,NW,UN,33,adveil,SPRINY,z,,,,,,,,,,,,,,,,,,,,,,,,,,,,,,,,,,,,,,,,,,,,,,,,,,,,,,,,,,,,,,,,,,
,,,,32007,001,2025-11-16_17h08.27.345,HW_LDT_1,2024.2.4,MacIntel,60.24096386,,,,,,,,,,,,,,,,,,,,,,86.1952,86.3932,86.3932,86.8935,86.8946,87.7264,m,1,0.8217,,[],[],[],[],[],[],[],0.8217,1,87.7265,88.2267,0,3,3,6,1,1007,WORD,UN,16,tropic,ZOMBIE,m,,,,,,,,,,,,,,,,,,,,,,,,,,,,,,,,,,,,,,,,,,,,,,,,,,,,,,,,,,,,,,,,,,
,,,,32007,001,2025-11-16_17h08.27.345,HW_LDT_1,2024.2.4,MacIntel,60.24096386,,,,,,,,,,,,,,,,,,,,,,88.2286,88.4267,88.4268,88.9261,88.9272,89.71,m,1,0.7622,,[],[],[],[],[],[],[],0.7622,1,89.7102,90.2101,0,4,4,1,1,1002,WORD,"ID",33,adjust,ADJUST,m,,,,,,,,,,,,,,,,,,,,,,,,,,,,,,,,,,,,,,,,,,,,,,,,,,,,,,,,,,,,,,,,,,
,,,,32007,001,2025-11-16_17h08.27.345,HW_LDT_1,2024.2.4,MacIntel,60.24096386,,,,,,,,,,,,,,,,,,,,,,90.2116,90.4101,90.4102,90.9101,90.9112,91.7597,m,1,0.8386,,[],[],[],[],[],[],[],0.8386,1,91.7599,92.2599,0,5,5,0,1,1001,WORD,"ID",33,utopia,UTOPIA,m,,,,,,,,,,,,,,,,,,,,,,,,,,,,,,,,,,,,,,,,,,,,,,,,,,,,,,,,,,,,,,,,,,
,,,,32007,001,2025-11-16_17h08.27.345,HW_LDT_1,2024.2.4,MacIntel,60.24096386,,,,,,,,,,,,,,,,,,,,,,92.2613,92.4588,92.4589,92.9599,92.961,94.4595,z,1,1.4781,,[],[],[],[],[],[],[],1.4781,1,94.4598,94.96,0,6,6,15,1,1016,NW,UN,16,mushed,WHAISE,z,,,,,,,,,,,,,,,,,,,,,,,,,,,,,,,,,,,,,,,,,,,,,,,,,,,,,,,,,,,,,,,,,,
,,,,32007,001,2025-11-16_17h08.27.345,HW_LDT_1,2024.2.4,MacIntel,60.24096386,,,,,,,,,,,,,,,,,,,,,,94.9613,95.1599,95.1599,95.6601,95.6613,99.7266,m,1,4.057,,[],[],[],[],[],[],[],4.057,1,99.7267,100.2266,0,7,7,3,1,1004,WORD,"ID",16,matrix,MATRIX,m,,,,,,,,,,,,,,,,,,,,,,,,,,,,,,,,,,,,,,,,,,,,,,,,,,,,,,,,,,,,,,,,,,
,,,,32007,001,2025-11-16_17h08.27.345,HW_LDT_1,2024.2.4,MacIntel,60.24096386,,,,,,,,,,,,,,,,,,,,,,100.2284,100.4267,100.4268,100.9267,100.9275,101.7431,z,1,0.7941,,[],[],[],[],[],[],[],0.7941,1,101.7433,102.2433,0,8,8,9,1,1010,NW,"ID",33,fariny,FARINY,z,,,,,,,,,,,,,,,,,,,,,,,,,,,,,,,,,,,,,,,,,,,,,,,,,,,,,,,,,,,,,,,,,,
,,,,32007,001,2025-11-16_17h08.27.345,HW_LDT_1,2024.2.4,MacIntel,60.24096386,,,,,,,,,,,,,,,,,,,,,,102.2447,102.4431,102.4432,102.9433,102.9444,103.7432,z,1,0.7795,,[],[],[],[],[],[],[],0.7795,1,103.7433,104.2435,0,9,9,8,1,1009,NW,"ID",33,aslert,ASLERT,z,,,,,,,,,,,,,,,,,,,,,,,,,,,,,,,,,,,,,,,,,,,,,,,,,,,,,,,,,,,,,,,,,,
,,,,32007,001,2025-11-16_17h08.27.345,HW_LDT_1,2024.2.4,MacIntel,60.24096386,,,,,,,,,,,,,,,,,,,,,,104.2451,104.443,104.4431,104.9431,104.9444,105.6755,m,1,0.7167,,[],[],[],[],[],[],[],0.7167,1,105.6756,106.1769,0,10,10,4,1,1005,WORD,UN,33,abound,SQUEAK,m,,,,,,,,,,,,,,,,,,,,,,,,,,,,,,,,,,,,,,,,,,,,,,,,,,,,,,,,,,,,,,,,,,
,,,,32007,001,2025-11-16_17h08.27.345,HW_LDT_1,2024.2.4,MacIntel,60.24096386,,,,,,,,,,,,,,,,,,,,,,106.1784,106.3765,106.3766,106.8758,106.8769,107.6429,z,1,0.7436,,[],[],[],[],[],[],[],0.7436,1,107.643,108.1433,0,11,11,13,1,1014,NW,UN,33,winfer,ROUPET,z,,,,,,,,,,,,,,,,,,,,,,,,,,,,,,,,,,,,,,,,,,,,,,,,,,,,,,,,,,,,,,,,,,
,,,,32007,001,2025-11-16_17h08.27.345,HW_LDT_1,2024.2.4,MacIntel,60.24096386,,,,,,,,,,,,,,,,,,,,,,108.1448,108.3421,108.3421,108.8428,108.8439,109.4254,m,1,0.5612,,[],[],[],[],[],[],[],0.5612,1,109.4254,109.9256,0,12,12,5,1,1006,WORD,UN,33,frenzy,OBTAIN,m,,,,,,,,,,,,,,,,,,,,,,,,,,,,,,,,,,,,,,,,,,,,,,,,,,,,,,,,,,,,,,,,,,
,,,,32007,001,2025-11-16_17h08.27.345,HW_LDT_1,2024.2.4,MacIntel,60.24096386,,,,,,,,,,,,,,,,,,,,,,109.9269,110.1264,110.1265,110.6255,110.6267,111.2098,m,1,0.564,,[],[],[],[],[],[],[],0.564,1,111.2099,111.71,0,13,13,2,1,1003,WORD,"ID",16,almond,ALMOND,m,,,,,,,,,,,,,,,,,,,,,,,,,,,,,,,,,,,,,,,,,,,,,,,,,,,,,,,,,,,,,,,,,,
,,,,32007,001,2025-11-16_17h08.27.345,HW_LDT_1,2024.2.4,MacIntel,60.24096386,,,,,,,,,,,,,,,,,,,,,,111.7116,111.9086,111.9088,112.41,112.411,113.0432,z,1,0.6122,,[],[],[],[],[],[],[],0.6122,1,113.0433,113.5432,0,14,14,10,1,1011,NW,"ID",16,inlade,INLADE,z,,,,,,,,,,,,,,,,,,,,,,,,,,,,,,,,,,,,,,,,,,,,,,,,,,,,,,,,,,,,,,,,,,
,,,,32007,001,2025-11-16_17h08.27.345,HW_LDT_1,2024.2.4,MacIntel,60.24096386,,,,,,,,,,,,,,,,,,,,,,113.5448,113.7432,113.7432,114.2433,114.2445,114.9099,z,1,0.6433,,[],[],[],[],[],[],[],0.6433,1,114.91,115.409,0,15,15,11,1,1012,NW,"ID",16,rashet,RASHET,z,,,,,,,,,,,,,,,,,,,,,,,,,,,,,,,,,,,,,,,,,,,,,,,,,,,,,,,,,,,,,,,,,,
,,,,32007,001,2025-11-16_17h08.27.345,HW_LDT_1,2024.2.4,MacIntel,60.24096386,,,,,,,,,,,,,,,,,1,end_of_practice,"You have completed the practice trials. During the experimental trials, you will not receive feedback. On some trials you will be asked to report whether the item you just saw was in cursive or print. 
Before you begin, please ensure that you are in a comfortable and quiet location and will not be disturbed for about 15 minutes, as we cannot use your data if you do not complete all the trials. 
 When you are ready to start the experimental trials, please press space or touch the button below.",,,,,,,,,,,,,,,,,,,,,,,,,,,,,,,,,,,,115.4153,116.8434,space,1.4017,,-0.103693954,0.111807914,0,0,0,0,0,0,0,1,,,,,,,,,,,,,,,,,,,,,,,,,,,,,,,,,,,,,,,,,,,,,,,,,,,
,,,,32007,001,2025-11-16_17h08.27.345,HW_LDT_1,2024.2.4,MacIntel,60.24096386,,,,,,,,,,,,,,,,,,,,,,116.8561,117.0434,117.0435,117.5423,,,,,,,,,,,,,,1.6569,1,,,,,,,,,,,,,,m,,,,,,,,,,,,,,,,1,0,117.5441,119.2093,m,1,1.6569,,[],[],[],[],[],[],[],119.2094,121.2103,121.2106,121.2144,[],[],[],[],[],[],[],,121.2146,121.2163,-0.103693954,0.111807914,0,0,0,,0,0,0,86,1,2,word,BESIDE,cursive,beside_c.png,,,,,,
,,,,32007,001,2025-11-16_17h08.27.345,HW_LDT_1,2024.2.4,MacIntel,60.24096386,,,,,,,,,,,,,,,,,,,,,,121.2171,121.4098,121.4099,121.9099,,,,,,,,,,,,,,3.3293,1,,,,,,,,,,,,,,z,,,,,,,,,,,,,,,,2,0,121.9106,125.2429,z,1,3.3293,,[],[],[],[],[],[],[],125.243,127.2432,127.2433,127.2437,[],[],[],[],[],[],[],,127.2437,127.2439,-0.103693954,0.111807914,0,0,0,,0,1,1,27,1,2,RL,repifion,cursive,repifion_c.png,,,,,,
,,,,32007,001,2025-11-16_17h08.27.345,HW_LDT_1,2024.2.4,MacIntel,60.24096386,,,,,,,,,,,,,,,,,,,,,,127.2454,127.4434,127.4435,127.9422,,,,,,,,,,,,,,0.953,1,,,,,,,,,,,,,,m,,,,,,,,,,,,,,,,3,0,127.9429,128.9098,m,1,0.953,,[],[],[],[],[],[],[],128.9099,130.9101,130.9102,130.9105,[],[],[],[],[],[],[],,130.9106,130.9107,-0.103693954,0.111807914,0,0,0,,0,2,2,140,1,2,word,RELATIVE,print,relative_p.png,,,,,,
,,,,32007,001,2025-11-16_17h08.27.345,HW_LDT_1,2024.2.4,MacIntel,60.24096386,,,,,,,,,,,,,,,,,,,,,,130.912,131.1098,131.1099,131.6099,,,,,,,,,,,,,,1.4534,1,,,,,,,,,,,,,,m,,,,,,,,,,,,,,,,4,0,131.6104,133.0763,m,1,1.4534,,[],[],[],[],[],[],[],133.0764,135.0754,135.0755,135.0758,[],[],[],[],[],[],[],,135.0759,135.076,-0.103693954,0.111807914,0,0,0,,0,3,3,107,1,2,word,EVIDENT,cursive,evident_c.png,,,,,,
,,,,32007,001,2025-11-16_17h08.27.345,HW_LDT_1,2024.2.4,MacIntel,60.24096386,,,,,,,,,,,,,,,,,,,,,,135.0771,135.2761,135.2763,135.7765,,,,,,,,,,,,,,0.7517,1,,,,,,,,,,,,,,m,,,,,,,,,,,,,,,,5,0,135.7773,136.5431,m,1,0.7517,,[],[],[],[],[],[],[],136.5432,138.5432,138.5433,138.5436,[],[],[],[],[],[],[],,138.5436,138.5438,-0.103693954,0.111807914,0,0,0,,0,4,4,99,1,2,word,DEBATE,print,debate_p.png,,,,,,
,,,,32007,001,2025-11-16_17h08.27.345,HW_LDT_1,2024.2.4,MacIntel,60.24096386,,,,,,,,,,,,,,,,,,,,,,138.5453,138.743,138.7431,139.2426,,,,,,,,,,,,,,0.8165,1,,,,,,,,,,,,,,z,,,,,,,,,,,,,,,,6,0,139.2428,140.0597,z,1,0.8165,,[],[],[],[],[],[],[],140.0598,142.0597,142.0598,142.06,[],[],[],[],[],[],[],,142.0602,142.0603,-0.103693954,0.111807914,0,0,0,,0,5,5,16,1,2,RL,losipal,print,losipal_p.png,,,,,,
,,,,32007,001,2025-11-16_17h08.27.345,HW_LDT_1,2024.2.4,MacIntel,60.24096386,,,,,,,,,,,,,,,,,,,,,,142.0615,142.2599,142.26,142.759,,,,,,,,,,,,,,1.7562,1,,,,,,,,,,,,,,z,,,,,,,,,,,,,,,,7,0,142.7597,144.5253,z,1,1.7562,,[],[],[],[],[],[],[],144.5253,146.5266,146.5267,146.5271,[],[],[],[],[],[],[],,146.5271,146.5273,-0.103693954,0.111807914,0,0,0,,0,6,6,53,1,2,TL,edivent,cursive,edivent_c.png,,,,,,
,,,,32007,001,2025-11-16_17h08.27.345,HW_LDT_1,2024.2.4,MacIntel,60.24096386,,,,,,,,,,,,,,,,,,,,,,146.5286,146.7265,146.7265,147.2264,,,,,,,,,,,,,,1.0358,1,,,,,,,,,,,,,,z,,,,,,,,,,,,,,,,8,1,147.2272,148.2764,z,1,1.0358,,[],[],[],[],[],[],[],148.2766,150.2766,150.2768,154.3933,[],[],[],[],[],[],[],m,154.3934,154.3936,-0.103693954,0.111807914,0,0,0,,0,7,7,64,1,2,TL,paficic,print,paficic_p.png,4.1066,,,,,
,,,,32007,001,2025-11-16_17h08.27.345,HW_LDT_1,2024.2.4,MacIntel,60.24096386,,,,,,,,,,,,,,,,,,,,,,154.3949,154.593,154.593,155.093,,,,,,,,,,,,,,1.165,1,,,,,,,,,,,,,,z,,,,,,,,,,,,,,,,9,1,155.0938,156.26,z,1,1.165,,[],[],[],[],[],[],[],156.2601,158.2598,158.2599,159.6596,[],[],[],[],[],[],[],m,159.6596,159.6597,-0.103693954,0.111807914,0,0,0,,0,8,8,9,1,2,RL,denficy,print,denficy_p.png,1.3975,,,,,
,,,,32007,001,2025-11-16_17h08.27.345,HW_LDT_1,2024.2.4,MacIntel,60.24096386,,,,,,,,,,,,,,,,,,,,,,159.6607,159.8597,159.8598,160.3599,,,,,,,,,,,,,,0.8702,1,,,,,,,,,,,,,,z,,,,,,,,,,,,,,,,10,0,160.3607,161.2429,z,1,0.8702,,[],[],[],[],[],[],[],161.243,163.2431,163.2431,163.2434,[],[],[],[],[],[],[],,163.2435,163.2437,-0.103693954,0.111807914,0,0,0,,0,9,9,15,1,2,RL,linedal,print,linedal_p.png,,,,,,
,,,,32007,001,2025-11-16_17h08.27.345,HW_LDT_1,2024.2.4,MacIntel,60.24096386,,,,,,,,,,,,,,,,,,,,,,163.2452,163.4421,163.4421,163.9419,,,,,,,,,,,,,,0.8868,1,,,,,,,,,,,,,,m,,,,,,,,,,,,,,,,11,0,163.9427,164.8427,m,1,0.8868,,[],[],[],[],[],[],[],164.8427,166.843,166.843,166.8435,[],[],[],[],[],[],[],,166.8435,166.8437,-0.103693954,0.111807914,0,0,0,,0,10,10,112,1,2,word,LIBERAL,print,liberal_p.png,,,,,,
,,,,32007,001,2025-11-16_17h08.27.345,HW_LDT_1,2024.2.4,MacIntel,60.24096386,,,,,,,,,,,,,,,,,,,,,,166.8453,167.0426,167.0426,167.5421,,,,,,,,,,,,,,1.2155,1,,,,,,,,,,,,,,z,,,,,,,,,,,,,,,,12,0,167.5428,168.7594,z,1,1.2155,,[],[],[],[],[],[],[],168.7595,170.76,170.76,170.7603,[],[],[],[],[],[],[],,170.7603,170.7605,-0.103693954,0.111807914,0,0,0,,0,11,11,5,1,2,RL,clisimal,cursive,clisimal_c.png,,,,,,
,,,,32007,001,2025-11-16_17h08.27.345,HW_LDT_1,2024.2.4,MacIntel,60.24096386,,,,,,,,,,,,,,,,,,,,,,170.7618,170.9599,170.96,171.4598,,,,,,,,,,,,,,0.969,0,,,,,,,,,,,,,,m,,,,,,,,,,,,,,,,13,0,171.4605,172.443,z,0,0.969,,[],[],[],[],[],[],[],172.4432,174.442,174.442,174.4422,[],[],[],[],[],[],[],,174.4423,174.4424,-0.103693954,0.111807914,0,0,0,,0,12,12,138,1,2,word,REFUSAL,cursive,refusal_c.png,,,,,,
,,,,32007,001,2025-11-16_17h08.27.345,HW_LDT_1,2024.2.4,MacIntel,60.24096386,,,,,,,,,,,,,,,,,,,,,,174.4438,174.6431,174.6431,175.1421,,,,,,,,,,,,,,1.2534,1,,,,,,,,,,,,,,m,,,,,,,,,,,,,,,,14,0,175.1429,176.4094,m,1,1.2534,,[],[],[],[],[],[],[],176.4096,178.4099,178.4099,178.4101,[],[],[],[],[],[],[],,178.4102,178.4104,-0.103693954,0.111807914,0,0,0,,0,13,13,136,1,2,word,RADICAL,cursive,radical_c.png,,,,,,
,,,,32007,001,2025-11-16_17h08.27.345,HW_LDT_1,2024.2.4,MacIntel,60.24096386,,,,,,,,,,,,,,,,,,,,,,178.4117,178.6086,178.6087,179.1096,,,,,,,,,,,,,,2.1313,1,,,,,,,,,,,,,,m,,,,,,,,,,,,,,,,15,0,179.1104,181.2428,m,1,2.1313,,[],[],[],[],[],[],[],181.2428,183.2432,183.2433,183.2435,[],[],[],[],[],[],[],,183.2436,183.2437,-0.103693954,0.111807914,0,0,0,,0,14,14,124,1,2,word,NUMERICAL,cursive,numerical_c.png,,,,,,
,,,,32007,001,2025-11-16_17h08.27.345,HW_LDT_1,2024.2.4,MacIntel,60.24096386,,,,,,,,,,,,,,,,,,,,,,183.2451,183.4429,183.443,183.9422,,,,,,,,,,,,,,1.8865,0,,,,,,,,,,,,,,m,,,,,,,,,,,,,,,,16,0,183.9429,185.8432,z,0,1.8865,,[],[],[],[],[],[],[],185.8433,187.843,187.843,187.8433,[],[],[],[],[],[],[],,187.8434,187.8435,-0.103693954,0.111807914,0,0,0,,0,15,15,125,1,2,word,OPERATOR,cursive,operator_c.png,,,,,,
,,,,32007,001,2025-11-16_17h08.27.345,HW_LDT_1,2024.2.4,MacIntel,60.24096386,,,,,,,,,,,,,,,,,,,,,,187.8448,188.0431,188.0432,188.542,,,,,,,,,,,,,,1.1476,1,,,,,,,,,,,,,,z,,,,,,,,,,,,,,,,17,0,188.5428,189.6926,z,1,1.1476,,[],[],[],[],[],[],[],189.6927,191.6919,191.6919,191.692,[],[],[],[],[],[],[],,191.692,191.6921,-0.103693954,0.111807914,0,0,0,,0,16,16,72,1,2,TL,revomal,print,revomal_p.png,,,,,,
,,,,32007,001,2025-11-16_17h08.27.345,HW_LDT_1,2024.2.4,MacIntel,60.24096386,,,,,,,,,,,,,,,,,,,,,,191.6932,191.8931,191.8931,192.3927,,,,,,,,,,,,,,0.8145,1,,,,,,,,,,,,,,m,,,,,,,,,,,,,,,,18,0,192.3933,193.2091,m,1,0.8145,,[],[],[],[],[],[],[],193.2091,195.2098,195.2098,195.2101,[],[],[],[],[],[],[],,195.2101,195.2104,-0.103693954,0.111807914,0,0,0,,0,17,17,144,1,2,word,RESIDENT,print,resident_p.png,,,,,,
,,,,32007,001,2025-11-16_17h08.27.345,HW_LDT_1,2024.2.4,MacIntel,60.24096386,,,,,,,,,,,,,,,,,,,,,,195.2117,195.4098,195.4099,195.9088,,,,,,,,,,,,,,0.5543,1,,,,,,,,,,,,,,m,,,,,,,,,,,,,,,,19,0,195.9094,196.4752,m,1,0.5543,,[],[],[],[],[],[],[],196.4752,198.4761,198.4762,198.4764,[],[],[],[],[],[],[],,198.4765,198.4766,-0.103693954,0.111807914,0,0,0,,0,18,18,157,1,2,word,VALIDITY,print,validity_p.png,,,,,,
,,,,32007,001,2025-11-16_17h08.27.345,HW_LDT_1,2024.2.4,MacIntel,60.24096386,,,,,,,,,,,,,,,,,,,,,,198.4778,198.6754,198.6754,199.1763,,,,,,,,,,,,,,2.1446,1,,,,,,,,,,,,,,z,,,,,,,,,,,,,,,,20,0,199.1771,201.3261,z,1,2.1446,,[],[],[],[],[],[],[],201.3261,203.3265,203.3266,203.3268,[],[],[],[],[],[],[],,203.3269,203.3271,-0.103693954,0.111807914,0,0,0,,0,19,19,29,1,2,RL,samite,cursive,samite_c.png,,,,,,
,,,,32007,001,2025-11-16_17h08.27.345,HW_LDT_1,2024.2.4,MacIntel,60.24096386,,,,,,,,,,,,,,,,,,,,,,203.3283,203.5264,203.5264,204.0253,,,,,,,,,,,,,,1.1379,0,,,,,,,,,,,,,,z,,,,,,,,,,,,,,,,21,1,204.0259,205.1764,m,0,1.1379,,[],[],[],[],[],[],[],205.1764,207.1754,207.1754,208.7251,[],[],[],[],[],[],[],z,208.7251,208.7252,-0.103693954,0.111807914,0,0,0,,0,20,20,74,1,2,TL,rerite,cursive,rerite_c.png,1.5379,,,,,
,,,,32007,001,2025-11-16_17h08.27.345,HW_LDT_1,2024.2.4,MacIntel,60.24096386,,,,,,,,,,,,,,,,,,,,,,208.7266,208.9254,208.9255,209.426,,,,,,,,,,,,,,1.173,1,,,,,,,,,,,,,,z,,,,,,,,,,,,,,,,22,0,209.4264,210.6096,z,1,1.173,,[],[],[],[],[],[],[],210.6097,212.6094,212.6095,212.6098,[],[],[],[],[],[],[],,212.6098,212.61,-0.103693954,0.111807914,0,0,0,,0,21,21,49,1,2,TL,dedace,print,dedace_p.png,,,,,,
,,,,32007,001,2025-11-16_17h08.27.345,HW_LDT_1,2024.2.4,MacIntel,60.24096386,,,,,,,,,,,,,,,,,,,,,,212.6114,212.8093,212.8093,213.3095,,,,,,,,,,,,,,1.4571,1,,,,,,,,,,,,,,z,,,,,,,,,,,,,,,,23,0,213.3102,214.7752,z,1,1.4571,,[],[],[],[],[],[],[],214.7753,216.7761,216.7762,216.7765,[],[],[],[],[],[],[],,216.7766,216.7766,-0.103693954,0.111807914,0,0,0,,0,22,22,45,1,2,TL,carnidal,cursive,carnidal_c.png,,,,,,
,,,,32007,001,2025-11-16_17h08.27.345,HW_LDT_1,2024.2.4,MacIntel,60.24096386,,,,,,,,,,,,,,,,,,,,,,216.7781,216.9755,216.9755,217.4751,,,,,,,,,,,,,,0.7721,1,,,,,,,,,,,,,,z,,,,,,,,,,,,,,,,24,0,217.4755,218.2595,z,1,0.7721,,[],[],[],[],[],[],[],218.2596,220.2595,220.2596,220.2598,[],[],[],[],[],[],[],,220.2599,220.26,-0.103693954,0.111807914,0,0,0,,0,23,23,13,1,2,RL,helicage,print,helicage_p.png,,,,,,
,,,,32007,001,2025-11-16_17h08.27.345,HW_LDT_1,2024.2.4,MacIntel,60.24096386,,,,,,,,,,,,,,,,,,,,,,220.2613,220.4596,220.4596,220.9596,,,,,,,,,,,,,,0.9193,1,,,,,,,,,,,,,,m,,,,,,,,,,,,,,,,25,0,220.9603,221.8926,m,1,0.9193,,[],[],[],[],[],[],[],221.8927,223.8929,223.893,223.8932,[],[],[],[],[],[],[],,223.8933,223.8934,-0.103693954,0.111807914,0,0,0,,0,24,24,156,1,2,word,TRIBUTE,cursive,tribute_c.png,,,,,,
,,,,32007,001,2025-11-16_17h08.27.345,HW_LDT_1,2024.2.4,MacIntel,60.24096386,,,,,,,,,,,,,,,,,,,,,,223.8946,224.0925,224.0926,224.5928,,,,,,,,,,,,,,0.703,1,,,,,,,,,,,,,,z,,,,,,,,,,,,,,,,26,0,224.5934,225.3091,z,1,0.703,,[],[],[],[],[],[],[],225.3092,227.3097,227.3097,227.3099,[],[],[],[],[],[],[],,227.31,227.3102,-0.103693954,0.111807914,0,0,0,,0,25,25,38,1,2,TL,atameur,cursive,atameur_c.png,,,,,,
,,,,32007,001,2025-11-16_17h08.27.345,HW_LDT_1,2024.2.4,MacIntel,60.24096386,,,,,,,,,,,,,,,,,,,,,,227.3116,227.5094,227.5094,228.0094,,,,,,,,,,,,,,0.6197,1,,,,,,,,,,,,,,m,,,,,,,,,,,,,,,,27,1,228.01,228.6418,m,1,0.6197,,[],[],[],[],[],[],[],228.6419,230.643,230.643,231.6593,[],[],[],[],[],[],[],m,231.6594,231.6595,-0.103693954,0.111807914,0,0,0,,0,26,26,104,1,2,word,DOMINANT,print,dominant_p.png,1.0139,,,,,
,,,,32007,001,2025-11-16_17h08.27.345,HW_LDT_1,2024.2.4,MacIntel,60.24096386,,,,,,,,,,,,,,,,,,,,,,231.6607,231.8595,231.8596,232.3587,,,,,,,,,,,,,,1.3826,1,,,,,,,,,,,,,,m,,,,,,,,,,,,,,,,28,1,232.3594,233.7429,m,1,1.3826,,[],[],[],[],[],[],[],233.7429,235.7423,235.7424,236.7757,[],[],[],[],[],[],[],m,236.7758,236.7759,-0.103693954,0.111807914,0,0,0,,0,27,27,128,1,2,word,PACIFIC,print,pacific_p.png,1.0209,,,,,
,,,,32007,001,2025-11-16_17h08.27.345,HW_LDT_1,2024.2.4,MacIntel,60.24096386,,,,,,,,,,,,,,,,,,,,,,236.7766,236.976,236.976,237.476,,,,,,,,,,,,,,1.223,1,,,,,,,,,,,,,,z,,,,,,,,,,,,,,,,29,1,237.4766,238.7093,z,1,1.223,,[],[],[],[],[],[],[],238.7093,240.7095,240.7095,241.5092,[],[],[],[],[],[],[],m,241.5093,241.5093,-0.103693954,0.111807914,0,0,0,,0,28,28,70,1,2,TL,retalive,print,retalive_p.png,0.7985,,,,,
,,,,32007,001,2025-11-16_17h08.27.345,HW_LDT_1,2024.2.4,MacIntel,60.24096386,,,,,,,,,,,,,,,,,,,,,,241.5103,241.7086,241.7087,242.2091,,,,,,,,,,,,,,1.0513,1,,,,,,,,,,,,,,m,,,,,,,,,,,,,,,,30,0,242.2099,243.2763,m,1,1.0513,,[],[],[],[],[],[],[],243.2764,245.2757,245.2757,245.276,[],[],[],[],[],[],[],,245.2761,245.2762,-0.103693954,0.111807914,0,0,0,,0,29,29,115,1,2,word,LOGICAL,print,logical_p.png,,,,,,
,,,,32007,001,2025-11-16_17h08.27.345,HW_LDT_1,2024.2.4,MacIntel,60.24096386,,,,,,,,,,,,,,,,,,,,,,245.2777,245.4749,245.475,245.976,,,,,,,,,,,,,,0.7238,1,,,,,,,,,,,,,,z,,,,,,,,,,,,,,,,31,0,245.9765,246.7093,z,1,0.7238,,[],[],[],[],[],[],[],246.7095,248.7095,248.7095,248.7097,[],[],[],[],[],[],[],,248.7098,248.71,-0.103693954,0.111807914,0,0,0,,0,30,30,78,1,2,TL,stogare,print,stogare_p.png,,,,,,
,,,,32007,001,2025-11-16_17h08.27.345,HW_LDT_1,2024.2.4,MacIntel,60.24096386,,,,,,,,,,,,,,,,,,,,,,248.7115,248.9086,248.9086,249.4096,,,,,,,,,,,,,,1.1519,1,,,,,,,,,,,,,,m,,,,,,,,,,,,,,,,32,0,249.4104,250.575,m,1,1.1519,,[],[],[],[],[],[],[],250.575,252.576,252.5761,252.5763,[],[],[],[],[],[],[],,252.5763,252.5763,-0.103693954,0.111807914,0,0,0,,0,31,31,80,1,2,word,ACADEMY,cursive,academy_c.png,,,,,,
,,,,32007,001,2025-11-16_17h08.27.345,HW_LDT_1,2024.2.4,MacIntel,60.24096386,,,,,,,,,,,,,,,,,,,,,,252.5775,252.7758,252.7758,253.2762,,,,,,,,,,,,,,1.4008,1,,,,,,,,,,,,,,m,,,,,,,,,,,,,,,,33,0,253.2771,254.6927,m,1,1.4008,,[],[],[],[],[],[],[],254.6927,256.6917,256.6917,256.6919,[],[],[],[],[],[],[],,256.6919,256.6921,-0.103693954,0.111807914,0,0,0,,0,32,32,131,1,2,word,POPULAR,cursive,popular_c.png,,,,,,
,,,,32007,001,2025-11-16_17h08.27.345,HW_LDT_1,2024.2.4,MacIntel,60.24096386,,,,,,,,,,,,,,,,,,,,,,256.6935,256.893,256.8931,257.3928,,,,,,,,,,,,,,1.0353,1,,,,,,,,,,,,,,z,,,,,,,,,,,,,,,,34,0,257.3936,258.4426,z,1,1.0353,,[],[],[],[],[],[],[],258.4428,260.4417,260.4418,260.442,[],[],[],[],[],[],[],,260.442,260.4421,-0.103693954,0.111807914,0,0,0,,0,33,33,18,1,2,RL,mesibine,print,mesibine_p.png,,,,,,
,,,,32007,001,2025-11-16_17h08.27.345,HW_LDT_1,2024.2.4,MacIntel,60.24096386,,,,,,,,,,,,,,,,,,,,,,260.4435,260.6427,260.6429,261.1429,,,,,,,,,,,,,,0.9814,1,,,,,,,,,,,,,,m,,,,,,,,,,,,,,,,35,1,261.1435,262.126,m,1,0.9814,,[],[],[],[],[],[],[],262.1261,264.1261,264.1263,266.1091,[],[],[],[],[],[],[],m,266.1091,266.1092,-0.103693954,0.111807914,0,0,0,,0,34,34,152,1,2,word,SPECIMEN,print,specimen_p.png,1.9818,,,,,
,,,,32007,001,2025-11-16_17h08.27.345,HW_LDT_1,2024.2.4,MacIntel,60.24096386,,,,,,,,,,,,,,,,,,,,,,266.11,266.3093,266.3095,266.8095,,,,,,,,,,,,,,1.0623,1,,,,,,,,,,,,,,m,,,,,,,,,,,,,,,,36,1,266.8102,267.8748,m,1,1.0623,,[],[],[],[],[],[],[],267.875,269.8761,269.8761,272.7929,[],[],[],[],[],[],[],z,272.793,272.793,-0.103693954,0.111807914,0,0,0,,0,35,35,155,1,2,word,STRATEGY,cursive,strategy_c.png,2.9083,,,,,
,,,,32007,001,2025-11-16_17h08.27.345,HW_LDT_1,2024.2.4,MacIntel,60.24096386,,,,,,,,,,,,,,,,,,,,,,272.7943,272.9921,272.9922,273.4917,,,,,,,,,,,,,,1.9068,1,,,,,,,,,,,,,,z,,,,,,,,,,,,,,,,37,0,273.4923,275.4093,z,1,1.9068,,[],[],[],[],[],[],[],275.4095,277.4096,277.4096,277.4098,[],[],[],[],[],[],[],,277.4099,277.41,-0.103693954,0.111807914,0,0,0,,0,36,36,42,1,2,TL,bedise,cursive,bedise_c.png,,,,,,
,,,,32007,001,2025-11-16_17h08.27.345,HW_LDT_1,2024.2.4,MacIntel,60.24096386,,,,,,,,,,,,,,,,,,,,,,277.4112,277.6094,277.6094,278.1093,,,,,,,,,,,,,,2.2704,1,,,,,,,,,,,,,,m,,,,,,,,,,,,,,,,38,0,278.1099,280.392,m,1,2.2704,,[],[],[],[],[],[],[],280.3921,282.3927,282.3928,282.3931,[],[],[],[],[],[],[],,282.3931,282.3932,-0.103693954,0.111807914,0,0,0,,0,37,37,85,1,2,word,BENEFIT,cursive,benefit_c.png,,,,,,
,,,,32007,001,2025-11-16_17h08.27.345,HW_LDT_1,2024.2.4,MacIntel,60.24096386,,,,,,,,,,,,,,,,,,,,,,282.3945,282.5916,282.5916,283.0926,,,,,,,,,,,,,,0.8731,1,,,,,,,,,,,,,,z,,,,,,,,,,,,,,,,39,0,283.0933,283.9757,z,1,0.8731,,[],[],[],[],[],[],[],283.9757,285.9757,285.9758,285.9759,[],[],[],[],[],[],[],,285.9761,285.9762,-0.103693954,0.111807914,0,0,0,,0,38,38,32,1,2,RL,speniven,print,speniven_p.png,,,,,,
,,,,32007,001,2025-11-16_17h08.27.345,HW_LDT_1,2024.2.4,MacIntel,60.24096386,,,,,,,,,,,,,,,,,,,,,,285.9774,286.1761,286.1761,286.6761,,,,,,,,,,,,,,3.3531,0,,,,,,,,,,,,,,m,,,,,,,,,,,,,,,,40,0,286.6769,290.0424,z,0,3.3531,,[],[],[],[],[],[],[],290.0424,292.0428,292.0429,292.0432,[],[],[],[],[],[],[],,292.0432,292.0433,-0.103693954,0.111807914,0,0,0,,0,39,39,142,1,2,word,REMOTE,cursive,remote_c.png,,,,,,
,,,,32007,001,2025-11-16_17h08.27.345,HW_LDT_1,2024.2.4,MacIntel,60.24096386,,,,,,,,,,,,,,,,,,,,,,292.0445,292.2427,292.2428,292.7425,,,,,,,,,,,,,,1.2191,1,,,,,,,,,,,,,,z,,,,,,,,,,,,,,,,41,0,292.7432,293.9749,z,1,1.2191,,[],[],[],[],[],[],[],293.975,295.9757,295.9757,295.9759,[],[],[],[],[],[],[],,295.976,295.976,-0.103693954,0.111807914,0,0,0,,0,40,40,39,1,2,TL,aminal,print,aminal_p.png,,,,,,
,,,,32007,001,2025-11-16_17h08.27.345,HW_LDT_1,2024.2.4,MacIntel,60.24096386,,,,,,,,,,,,,,,,,,,,,,295.9772,296.1761,296.1761,296.6761,,,,,,,,,,,,,,0.701,1,,,,,,,,,,,,,,m,,,,,,,,,,,,,,,,42,0,296.6768,297.3926,m,1,0.701,,[],[],[],[],[],[],[],297.3928,299.3928,299.3928,299.3931,[],[],[],[],[],[],[],,299.3931,299.3933,-0.103693954,0.111807914,0,0,0,,0,41,41,95,1,2,word,COMEDY,cursive,comedy_c.png,,,,,,
,,,,32007,001,2025-11-16_17h08.27.345,HW_LDT_1,2024.2.4,MacIntel,60.24096386,,,,,,,,,,,,,,,,,,,,,,299.3946,299.5917,299.5917,300.0915,,,,,,,,,,,,,,0.9705,0,,,,,,,,,,,,,,m,,,,,,,,,,,,,,,,43,1,300.0919,301.0759,z,0,0.9705,,[],[],[],[],[],[],[],301.076,303.0753,303.0755,304.2091,[],[],[],[],[],[],[],z,304.2091,304.2093,-0.103693954,0.111807914,0,0,0,,0,42,42,90,1,2,word,CAPITAL,cursive,capital_c.png,1.1324,,,,,
,,,,32007,001,2025-11-16_17h08.27.345,HW_LDT_1,2024.2.4,MacIntel,60.24096386,,,,,,,,,,,,,,,,,,,,,,304.2102,304.4094,304.4095,304.9092,,,,,,,,,,,,,,1.785,1,,,,,,,,,,,,,,z,,,,,,,,,,,,,,,,44,0,304.9099,306.7092,z,1,1.785,,[],[],[],[],[],[],[],306.7093,308.7094,308.7095,308.7097,[],[],[],[],[],[],[],,308.7097,308.7098,-0.103693954,0.111807914,0,0,0,,0,43,43,62,1,2,TL,opmital,cursive,opmital_c.png,,,,,,
,,,,32007,001,2025-11-16_17h08.27.345,HW_LDT_1,2024.2.4,MacIntel,60.24096386,,,,,,,,,,,,,,,,,,,,,,308.7114,308.9094,308.9096,309.4094,,,,,,,,,,,,,,2.2981,0,,,,,,,,,,,,,,m,,,,,,,,,,,,,,,,45,0,309.4101,311.709,z,0,2.2981,,[],[],[],[],[],[],[],311.709,313.7092,313.7093,313.7095,[],[],[],[],[],[],[],,313.7095,313.7097,-0.103693954,0.111807914,0,0,0,,0,44,44,139,1,2,word,REGULAR,cursive,regular_c.png,,,,,,
,,,,32007,001,2025-11-16_17h08.27.345,HW_LDT_1,2024.2.4,MacIntel,60.24096386,,,,,,,,,,,,,,,,,,,,,,313.7109,313.9092,313.9092,314.4094,,,,,,,,,,,,,,0.7689,1,,,,,,,,,,,,,,z,,,,,,,,,,,,,,,,46,0,314.4101,315.1923,z,1,0.7689,,[],[],[],[],[],[],[],315.1924,317.1927,317.1927,317.193,[],[],[],[],[],[],[],,317.1931,317.1932,-0.103693954,0.111807914,0,0,0,,0,45,45,3,1,2,RL,capefory,print,capefory_p.png,,,,,,
,,,,32007,001,2025-11-16_17h08.27.345,HW_LDT_1,2024.2.4,MacIntel,60.24096386,,,,,,,,,,,,,,,,,,,,,,317.1948,317.3921,317.3921,317.8917,,,,,,,,,,,,,,1.6536,1,,,,,,,,,,,,,,z,,,,,,,,,,,,,,,,47,1,317.8924,319.5592,z,1,1.6536,,[],[],[],[],[],[],[],319.5593,321.5593,321.5593,322.6092,[],[],[],[],[],[],[],z,322.6093,322.6094,-0.103693954,0.111807914,0,0,0,,0,46,46,69,1,2,TL,resufal,cursive,resufal_c.png,1.0404,,,,,
,,,,32007,001,2025-11-16_17h08.27.345,HW_LDT_1,2024.2.4,MacIntel,60.24096386,,,,,,,,,,,,,,,,,,,,,,322.6106,322.8085,322.8085,323.3084,,,,,,,,,,,,,,1.1539,1,,,,,,,,,,,,,,z,,,,,,,,,,,,,,,,48,1,323.3091,324.4757,z,1,1.1539,,[],[],[],[],[],[],[],324.4757,326.4759,326.4759,327.3758,[],[],[],[],[],[],[],z,327.3759,327.3761,-0.103693954,0.111807914,0,0,0,,0,47,47,65,1,2,TL,polupar,cursive,polupar_c.png,0.8875,,,,,
,,,,32007,001,2025-11-16_17h08.27.345,HW_LDT_1,2024.2.4,MacIntel,60.24096386,,,,,,,,,,,,,,,,,,,,,,327.3772,327.5756,327.5756,328.0757,,,,,,,,,,,,,,1.5209,1,,,,,,,,,,,,,,z,,,,,,,,,,,,,,,,49,1,328.0761,329.6092,z,1,1.5209,,[],[],[],[],[],[],[],329.6092,331.6091,331.6091,332.3589,[],[],[],[],[],[],[],z,332.3589,332.359,-0.103693954,0.111807914,0,0,0,,0,48,48,40,1,2,TL,bevoled,cursive,bevoled_c.png,0.7362,,,,,
,,,,32007,001,2025-11-16_17h08.27.345,HW_LDT_1,2024.2.4,MacIntel,60.24096386,,,,,,,,,,,,,,,,,,,,,,332.3598,332.5593,332.5593,333.0592,,,,,,,,,,,,,,1.2371,0,,,,,,,,,,,,,,m,,,,,,,,,,,,,,,,50,0,333.0598,334.3091,z,0,1.2371,,[],[],[],[],[],[],[],334.3092,336.3093,336.3094,336.3096,[],[],[],[],[],[],[],,336.3097,336.3097,-0.103693954,0.111807914,0,0,0,,0,49,49,126,1,2,word,OPTIMAL,cursive,optimal_c.png,,,,,,
,,,,32007,001,2025-11-16_17h08.27.345,HW_LDT_1,2024.2.4,MacIntel,60.24096386,,,,,,,,,,,,,,,,,,,,,,336.3111,336.509,336.5091,337.0084,,,,,,,,,,,,,,0.7365,1,,,,,,,,,,,,,,m,,,,,,,,,,,,,,,,51,0,337.0089,337.7582,m,1,0.7365,,[],[],[],[],[],[],[],337.7582,339.7593,339.7593,339.7595,[],[],[],[],[],[],[],,339.7597,339.7597,-0.103693954,0.111807914,0,0,0,,0,50,50,158,1,2,word,VELOCITY,print,velocity_p.png,,,,,,
,,,,32007,001,2025-11-16_17h08.27.345,HW_LDT_1,2024.2.4,MacIntel,60.24096386,,,,,,,,,,,,,,,,,,,,,,339.7612,339.9582,339.9583,340.459,,,,,,,,,,,,,,0.5697,1,,,,,,,,,,,,,,m,,,,,,,,,,,,,,,,52,0,340.4597,341.0416,m,1,0.5697,,[],[],[],[],[],[],[],341.0417,343.0426,343.0427,343.043,[],[],[],[],[],[],[],,343.043,343.0431,-0.103693954,0.111807914,0,0,0,,0,51,51,130,1,2,word,POLICY,print,policy_p.png,,,,,,
,,,,32007,001,2025-11-16_17h08.27.345,HW_LDT_1,2024.2.4,MacIntel,60.24096386,,,,,,,,,,,,,,,,,,,,,,343.0445,343.2426,343.2427,343.7425,,,,,,,,,,,,,,1.5822,1,,,,,,,,,,,,,,z,,,,,,,,,,,,,,,,53,0,343.743,345.3259,z,1,1.5822,,[],[],[],[],[],[],[],345.326,347.326,347.3261,347.3263,[],[],[],[],[],[],[],,347.3263,347.3264,-0.103693954,0.111807914,0,0,0,,0,52,52,66,1,2,TL,prodive,cursive,prodive_c.png,,,,,,
,,,,32007,001,2025-11-16_17h08.27.345,HW_LDT_1,2024.2.4,MacIntel,60.24096386,,,,,,,,,,,,,,,,,,,,,,347.328,347.526,347.526,348.026,,,,,,,,,,,,,,1.2231,1,,,,,,,,,,,,,,z,,,,,,,,,,,,,,,,54,0,348.0267,349.2589,z,1,1.2231,,[],[],[],[],[],[],[],349.2589,351.259,351.2591,351.2592,[],[],[],[],[],[],[],,351.2594,351.2594,-0.103693954,0.111807914,0,0,0,,0,53,53,25,1,2,RL,rabigly,print,rabigly_p.png,,,,,,
,,,,32007,001,2025-11-16_17h08.27.345,HW_LDT_1,2024.2.4,MacIntel,60.24096386,,,,,,,,,,,,,,,,,,,,,,351.2609,351.4594,351.4595,351.9592,,,,,,,,,,,,,,0.6857,1,,,,,,,,,,,,,,m,,,,,,,,,,,,,,,,55,1,351.9599,352.6588,m,1,0.6857,,[],[],[],[],[],[],[],352.6588,354.6593,354.6593,358.4593,[],[],[],[],[],[],[],m,358.4593,358.4595,-0.103693954,0.111807914,0,0,0,,0,54,54,108,1,2,word,FORTUNE,print,fortune_p.png,3.7994,,,,,
,,,,32007,001,2025-11-16_17h08.27.345,HW_LDT_1,2024.2.4,MacIntel,60.24096386,,,,,,,,,,,,,,,,,,,,,,358.4602,358.6589,358.6589,359.1593,,,,,,,,,,,,,,0.931,1,,,,,,,,,,,,,,z,,,,,,,,,,,,,,,,56,0,359.16,360.0922,z,1,0.931,,[],[],[],[],[],[],[],360.0922,362.0923,362.0924,362.0926,[],[],[],[],[],[],[],,362.0927,362.0928,-0.103693954,0.111807914,0,0,0,,0,55,55,24,1,2,RL,rasibal,cursive,rasibal_c.png,,,,,,
,,,,32007,001,2025-11-16_17h08.27.345,HW_LDT_1,2024.2.4,MacIntel,60.24096386,,,,,,,,,,,,,,,,,,,,,,362.0943,362.2924,362.2925,362.7923,,,,,,,,,,,,,,1.6525,0,,,,,,,,,,,,,,m,,,,,,,,,,,,,,,,57,0,362.7931,364.459,z,0,1.6525,,[],[],[],[],[],[],[],364.4591,366.4592,366.4592,366.4595,[],[],[],[],[],[],[],,366.4595,366.4597,-0.103693954,0.111807914,0,0,0,,0,56,56,145,1,2,word,RESUME,cursive,resume_c.png,,,,,,
,,,,32007,001,2025-11-16_17h08.27.345,HW_LDT_1,2024.2.4,MacIntel,60.24096386,,,,,,,,,,,,,,,,,,,,,,366.4612,366.6593,366.6593,367.1592,,,,,,,,,,,,,,1.4191,1,,,,,,,,,,,,,,z,,,,,,,,,,,,,,,,58,0,367.16,368.5922,z,1,1.4191,,[],[],[],[],[],[],[],368.5923,370.5921,370.5922,370.5922,[],[],[],[],[],[],[],,370.5923,370.5923,-0.103693954,0.111807914,0,0,0,,0,57,57,31,1,2,RL,spetisic,print,spetisic_p.png,,,,,,
,,,,32007,001,2025-11-16_17h08.27.345,HW_LDT_1,2024.2.4,MacIntel,60.24096386,,,,,,,,,,,,,,,,,,,,,,370.5929,370.7924,370.7924,371.2926,,,,,,,,,,,,,,1.1206,0,,,,,,,,,,,,,,m,,,,,,,,,,,,,,,,59,0,371.2933,372.4257,z,0,1.1206,,[],[],[],[],[],[],[],372.4259,374.4253,374.4253,374.4254,[],[],[],[],[],[],[],,374.4254,374.4255,-0.103693954,0.111807914,0,0,0,,0,58,58,121,1,2,word,MISTAKE,cursive,mistake_c.png,,,,,,
,,,,32007,001,2025-11-16_17h08.27.345,HW_LDT_1,2024.2.4,MacIntel,60.24096386,,,,,,,,,,,,,,,,,,,,,,374.4265,374.6259,374.6259,375.1257,,,,,,,,,,,,,,1.5643,1,,,,,,,,,,,,,,z,,,,,,,,,,,,,,,,60,0,375.1264,376.692,z,1,1.5643,,[],[],[],[],[],[],[],376.6921,378.6925,378.6925,378.6928,[],[],[],[],[],[],[],,378.6928,378.693,-0.103693954,0.111807914,0,0,0,,0,59,59,37,1,2,TL,adacemy,cursive,adacemy_c.png,,,,,,
,,,,32007,001,2025-11-16_17h08.27.345,HW_LDT_1,2024.2.4,MacIntel,60.24096386,,,,,,,,,,,,,,,,,,,,,,378.6945,378.8925,378.8925,379.3925,,,,,,,,,,,,,,0.8568,1,,,,,,,,,,,,,,m,,,,,,,,,,,,,,,,61,0,379.3932,380.2592,m,1,0.8568,,[],[],[],[],[],[],[],380.2593,382.2593,382.2593,382.2595,[],[],[],[],[],[],[],,382.2596,382.2598,-0.103693954,0.111807914,0,0,0,,0,60,60,88,1,2,word,CAMERA,print,camera_p.png,,,,,,
,,,,32007,001,2025-11-16_17h08.27.345,HW_LDT_1,2024.2.4,MacIntel,60.24096386,,,,,,,,,,,,,,,,,,,,,,382.2611,382.4592,382.4592,382.959,,,,,,,,,,,,,,0.9896,1,,,,,,,,,,,,,,z,,,,,,,,,,,,,,,,62,0,382.9596,383.9592,z,1,0.9896,,[],[],[],[],[],[],[],383.9593,385.9592,385.9593,385.9595,[],[],[],[],[],[],[],,385.9596,385.9598,-0.103693954,0.111807914,0,0,0,,0,61,61,36,1,2,RL,vecelan,print,vecelan_p.png,,,,,,
,,,,32007,001,2025-11-16_17h08.27.345,HW_LDT_1,2024.2.4,MacIntel,60.24096386,,,,,,,,,,,,,,,,,,,,,,385.9611,386.1592,386.1593,386.6593,,,,,,,,,,,,,,0.9392,1,,,,,,,,,,,,,,z,,,,,,,,,,,,,,,,63,0,386.66,387.609,z,1,0.9392,,[],[],[],[],[],[],[],387.6091,389.6089,389.6089,389.6092,[],[],[],[],[],[],[],,389.6092,389.6094,-0.103693954,0.111807914,0,0,0,,0,62,62,21,1,2,RL,pamest,print,pamest_p.png,,,,,,
,,,,32007,001,2025-11-16_17h08.27.345,HW_LDT_1,2024.2.4,MacIntel,60.24096386,,,,,,,,,,,,,,,,,,,,,,389.6106,389.8091,389.8092,390.3092,,,,,,,,,,,,,,0.5856,1,,,,,,,,,,,,,,m,,,,,,,,,,,,,,,,64,0,390.31,390.909,m,1,0.5856,,[],[],[],[],[],[],[],390.9091,392.9088,392.9088,392.909,[],[],[],[],[],[],[],,392.9091,392.9093,-0.103693954,0.111807914,0,0,0,,0,63,63,151,1,2,word,SPECIFIC,print,specific_p.png,,,,,,
,,,,32007,001,2025-11-16_17h08.27.345,HW_LDT_1,2024.2.4,MacIntel,60.24096386,,,,,,,,,,,,,,,,,,,,,,392.9107,393.1089,393.1089,393.6091,,,,,,,,,,,,,,0.6983,1,,,,,,,,,,,,,,z,,,,,,,,,,,,,,,,65,0,393.6098,394.309,z,1,0.6983,,[],[],[],[],[],[],[],394.309,396.3092,396.3092,396.3094,[],[],[],[],[],[],[],,396.3095,396.3097,-0.103693954,0.111807914,0,0,0,,0,64,64,75,1,2,TL,ronamtic,print,ronamtic_p.png,,,,,,
,,,,32007,001,2025-11-16_17h08.27.345,HW_LDT_1,2024.2.4,MacIntel,60.24096386,,,,,,,,,,,,,,,,,,,,,,396.311,396.5089,396.509,397.0089,,,,,,,,,,,,,,2.3984,0,,,,,,,,,,,,,,m,,,,,,,,,,,,,,,,66,0,397.0096,399.4088,z,0,2.3984,,[],[],[],[],[],[],[],399.4088,401.4092,401.4092,401.4095,[],[],[],[],[],[],[],,401.4095,401.4096,-0.103693954,0.111807914,0,0,0,,0,65,65,109,1,2,word,GRATEFUL,cursive,grateful_c.png,,,,,,
,,,,32007,001,2025-11-16_17h08.27.345,HW_LDT_1,2024.2.4,MacIntel,60.24096386,,,,,,,,,,,,,,,,,,,,,,401.411,401.609,401.609,402.1079,,,,,,,,,,,,,,1.6664,1,,,,,,,,,,,,,,m,,,,,,,,,,,,,,,,67,0,402.1084,403.7756,m,1,1.6664,,[],[],[],[],[],[],[],403.7757,405.7757,405.7758,405.776,[],[],[],[],[],[],[],,405.776,405.7762,-0.103693954,0.111807914,0,0,0,,0,66,66,133,1,2,word,PROVIDE,cursive,provide_c.png,,,,,,
,,,,32007,001,2025-11-16_17h08.27.345,HW_LDT_1,2024.2.4,MacIntel,60.24096386,,,,,,,,,,,,,,,,,,,,,,405.7776,405.9756,405.9757,406.4755,,,,,,,,,,,,,,4.3038,1,,,,,,,,,,,,,,z,,,,,,,,,,,,,,,,68,1,406.4761,410.7923,z,1,4.3038,,[],[],[],[],[],[],[],410.7924,412.7923,412.7924,414.1088,[],[],[],[],[],[],[],z,414.1089,414.109,-0.103693954,0.111807914,0,0,0,,0,67,67,76,1,2,TL,senmitent,cursive,senmitent_c.png,1.3142,,,,,
,,,,32007,001,2025-11-16_17h08.27.345,HW_LDT_1,2024.2.4,MacIntel,60.24096386,,,,,,,,,,,,,,,,,,,,,,414.1099,414.308,414.308,414.809,,,,,,,,,,,,,,0.7425,1,,,,,,,,,,,,,,m,,,,,,,,,,,,,,,,69,1,414.8097,415.5586,m,1,0.7425,,[],[],[],[],[],[],[],415.5586,417.559,417.5592,419.4421,[],[],[],[],[],[],[],m,419.4423,419.4423,-0.103693954,0.111807914,0,0,0,,0,68,68,159,1,2,word,VETERAN,print,veteran_p.png,1.8734,,,,,
,,,,32007,001,2025-11-16_17h08.27.345,HW_LDT_1,2024.2.4,MacIntel,60.24096386,,,,,,,,,,,,,,,,,,,,,,419.4436,419.6424,419.6425,420.1425,,,,,,,,,,,,,,0.718,1,,,,,,,,,,,,,,z,,,,,,,,,,,,,,,,70,0,420.1432,420.8757,z,1,0.718,,[],[],[],[],[],[],[],420.8757,422.8756,422.8757,422.8758,[],[],[],[],[],[],[],,422.8759,422.876,-0.103693954,0.111807914,0,0,0,,0,69,69,2,1,2,RL,casagity,print,casagity_p.png,,,,,,
,,,,32007,001,2025-11-16_17h08.27.345,HW_LDT_1,2024.2.4,MacIntel,60.24096386,,,,,,,,,,,,,,,,,,,,,,422.8774,423.0755,423.0755,423.5755,,,,,,,,,,,,,,0.7064,1,,,,,,,,,,,,,,z,,,,,,,,,,,,,,,,71,0,423.5763,424.2923,z,1,0.7064,,[],[],[],[],[],[],[],424.2924,426.2923,426.2925,426.2927,[],[],[],[],[],[],[],,426.2927,426.2928,-0.103693954,0.111807914,0,0,0,,0,70,70,0,1,2,RL,adnicory,print,adnicory_p.png,,,,,,
,,,,32007,001,2025-11-16_17h08.27.345,HW_LDT_1,2024.2.4,MacIntel,60.24096386,,,,,,,,,,,,,,,,,,,,,,426.2944,426.4922,426.4923,426.9912,,,,,,,,,,,,,,1.4967,0,,,,,,,,,,,,,,m,,,,,,,,,,,,,,,,72,0,426.9918,428.492,z,0,1.4967,,[],[],[],[],[],[],[],428.492,430.4921,430.4922,430.4923,[],[],[],[],[],[],[],,430.4924,430.4925,-0.103693954,0.111807914,0,0,0,,0,71,71,111,1,2,word,INDICATE,cursive,indicate_c.png,,,,,,
,,,,32007,001,2025-11-16_17h08.27.345,HW_LDT_1,2024.2.4,MacIntel,60.24096386,,,,,,,,,,,,,,,,,,,,,,430.4937,430.6919,430.6919,431.1922,,,,,,,,,,,,,,1.9557,1,,,,,,,,,,,,,,z,,,,,,,,,,,,,,,,73,0,431.1928,433.159,z,1,1.9557,,[],[],[],[],[],[],[],433.1591,435.1589,435.159,435.1592,[],[],[],[],[],[],[],,435.1593,435.1594,-0.103693954,0.111807914,0,0,0,,0,72,72,23,1,2,RL,procogal,cursive,procogal_c.png,,,,,,
,,,,32007,001,2025-11-16_17h08.27.345,HW_LDT_1,2024.2.4,MacIntel,60.24096386,,,,,,,,,,,,,,,,,,,,,,435.1607,435.359,435.3591,435.8591,,,,,,,,,,,,,,0.9289,0,,,,,,,,,,,,,,m,,,,,,,,,,,,,,,,74,0,435.8598,436.7916,z,0,0.9289,,[],[],[],[],[],[],[],436.7917,438.7923,438.7924,438.7926,[],[],[],[],[],[],[],,438.7926,438.7928,-0.103693954,0.111807914,0,0,0,,0,73,73,146,1,2,word,RETIRE,cursive,retire_c.png,,,,,,
,,,,32007,001,2025-11-16_17h08.27.345,HW_LDT_1,2024.2.4,MacIntel,60.24096386,,,,,,,,,,,,,,,,,,,,,,438.7943,438.9919,438.9919,439.492,,,,,,,,,,,,,,0.9806,1,,,,,,,,,,,,,,z,,,,,,,,,,,,,,,,75,0,439.4926,440.4754,z,1,0.9806,,[],[],[],[],[],[],[],440.4754,442.4755,442.4756,442.4757,[],[],[],[],[],[],[],,442.4758,442.4759,-0.103693954,0.111807914,0,0,0,,0,74,74,33,1,2,RL,strapely,cursive,strapely_c.png,,,,,,
,,,,32007,001,2025-11-16_17h08.27.345,HW_LDT_1,2024.2.4,MacIntel,60.24096386,,,,,,,,,,,,,,,,,,,,,,442.477,442.6752,442.6752,443.1745,,,,,,,,,,,,,,0.7083,1,,,,,,,,,,,,,,m,,,,,,,,,,,,,,,,76,1,443.1751,443.8917,m,1,0.7083,,[],[],[],[],[],[],[],443.8917,445.8922,445.8923,451.2078,[],[],[],[],[],[],[],z,451.2078,451.2079,-0.103693954,0.111807914,0,0,0,,0,75,75,129,1,2,word,PARENT,print,parent_p.png,5.3131,,,,,
,,,,32007,001,2025-11-16_17h08.27.345,HW_LDT_1,2024.2.4,MacIntel,60.24096386,,,,,,,,,,,,,,,,,,,,,,451.2086,451.409,451.409,451.9078,,,,,,,,,,,,,,1.586,1,,,,,,,,,,,,,,m,,,,,,,,,,,,,,,,77,0,451.9084,453.508,m,1,1.586,,[],[],[],[],[],[],[],453.5081,455.5087,455.5088,455.5089,[],[],[],[],[],[],[],,455.509,455.5092,-0.103693954,0.111807914,0,0,0,,0,76,76,116,1,2,word,MARGINAL,cursive,marginal_c.png,,,,,,
,,,,32007,001,2025-11-16_17h08.27.345,HW_LDT_1,2024.2.4,MacIntel,60.24096386,,,,,,,,,,,,,,,,,,,,,,455.5106,455.7088,455.7089,456.2088,,,,,,,,,,,,,,0.6304,1,,,,,,,,,,,,,,m,,,,,,,,,,,,,,,,78,0,456.2095,456.842,m,1,0.6304,,[],[],[],[],[],[],[],456.842,458.8422,458.8423,458.8425,[],[],[],[],[],[],[],,458.8426,458.8427,-0.103693954,0.111807914,0,0,0,,0,77,77,102,1,2,word,DENSITY,print,density_p.png,,,,,,
,,,,32007,001,2025-11-16_17h08.27.345,HW_LDT_1,2024.2.4,MacIntel,60.24096386,,,,,,,,,,,,,,,,,,,,,,458.844,459.0423,459.0423,459.5423,,,,,,,,,,,,,,1.5853,1,,,,,,,,,,,,,,m,,,,,,,,,,,,,,,,79,1,459.5429,461.1411,m,1,1.5853,,[],[],[],[],[],[],[],461.1411,463.1412,463.1412,464.8744,[],[],[],[],[],[],[],z,464.8745,464.8746,-0.103693954,0.111807914,0,0,0,,0,78,78,98,1,2,word,CRIMINAL,cursive,criminal_c.png,1.7223,,,,,
,,,,32007,001,2025-11-16_17h08.27.345,HW_LDT_1,2024.2.4,MacIntel,60.24096386,,,,,,,,,,,,,,,,,,,,,,464.8757,465.0754,465.0755,465.5754,,,,,,,,,,,,,,3.4414,1,,,,,,,,,,,,,,z,,,,,,,,,,,,,,,,80,0,465.5759,469.0253,z,1,3.4414,,[],[],[],[],[],[],[],469.0254,471.0255,471.0256,471.0258,[],[],[],[],[],[],[],,471.0259,472.8588,-0.103693954,0.111807914,0,0,0,space,0,79,79,71,1,2,TL,retome,cursive,retome_c.png,,,1.8139,,,
,,,,32007,001,2025-11-16_17h08.27.345,HW_LDT_1,2024.2.4,MacIntel,60.24096386,,,,,,,,,,,,,,,,,,,,,,472.8599,473.0589,473.059,473.559,,,,,,,,,,,,,,0.9059,1,,,,,,,,,,,,,,m,,,,,,,,,,,,,,,,81,0,473.5598,474.4747,m,1,0.9059,,[],[],[],[],[],[],[],474.4747,476.4754,476.4754,476.4755,[],[],[],[],[],[],[],,476.4755,476.4757,-0.103693954,0.111807914,0,0,0,,0,80,80,101,1,2,word,DELICATE,print,delicate_p.png,,,,,,
,,,,32007,001,2025-11-16_17h08.27.345,HW_LDT_1,2024.2.4,MacIntel,60.24096386,,,,,,,,,,,,,,,,,,,,,,476.4767,476.6756,476.6756,477.1744,,,,,,,,,,,,,,1.4817,0,,,,,,,,,,,,,,m,,,,,,,,,,,,,,,,82,0,477.1749,478.6587,z,0,1.4817,,[],[],[],[],[],[],[],478.6587,480.6588,480.659,480.6591,[],[],[],[],[],[],[],,480.6593,480.6594,-0.103693954,0.111807914,0,0,0,,0,81,81,120,1,2,word,MILITARY,cursive,military_c.png,,,,,,
,,,,32007,001,2025-11-16_17h08.27.345,HW_LDT_1,2024.2.4,MacIntel,60.24096386,,,,,,,,,,,,,,,,,,,,,,480.6607,480.8589,480.859,481.3589,,,,,,,,,,,,,,1.7468,1,,,,,,,,,,,,,,z,,,,,,,,,,,,,,,,83,0,481.3598,483.1084,z,1,1.7468,,[],[],[],[],[],[],[],483.1085,485.1086,485.1087,485.1091,[],[],[],[],[],[],[],,485.1091,485.1091,-0.103693954,0.111807914,0,0,0,,0,82,82,56,1,2,TL,marnigal,cursive,marnigal_c.png,,,,,,
,,,,32007,001,2025-11-16_17h08.27.345,HW_LDT_1,2024.2.4,MacIntel,60.24096386,,,,,,,,,,,,,,,,,,,,,,485.1106,485.3088,485.3089,485.8075,,,,,,,,,,,,,,1.7717,1,,,,,,,,,,,,,,z,,,,,,,,,,,,,,,,84,0,485.8081,487.5915,z,1,1.7717,,[],[],[],[],[],[],[],487.5915,489.591,489.591,489.5911,[],[],[],[],[],[],[],,489.5913,489.5913,-0.103693954,0.111807914,0,0,0,,0,83,83,17,1,2,RL,macise,cursive,macise_c.png,,,,,,
,,,,32007,001,2025-11-16_17h08.27.345,HW_LDT_1,2024.2.4,MacIntel,60.24096386,,,,,,,,,,,,,,,,,,,,,,489.5925,489.7922,489.7923,490.2911,,,,,,,,,,,,,,1.2077,1,,,,,,,,,,,,,,m,,,,,,,,,,,,,,,,85,0,490.2916,491.5079,m,1,1.2077,,[],[],[],[],[],[],[],491.5079,493.5075,493.5076,493.5078,[],[],[],[],[],[],[],,493.5079,493.5079,-0.103693954,0.111807914,0,0,0,,0,84,84,150,1,2,word,SENTIMENT,cursive,sentiment_c.png,,,,,,
,,,,32007,001,2025-11-16_17h08.27.345,HW_LDT_1,2024.2.4,MacIntel,60.24096386,,,,,,,,,,,,,,,,,,,,,,493.509,493.7087,493.7088,494.2086,,,,,,,,,,,,,,1.1867,1,,,,,,,,,,,,,,z,,,,,,,,,,,,,,,,86,0,494.2091,495.4086,z,1,1.1867,,[],[],[],[],[],[],[],495.4087,497.4089,497.409,497.4092,[],[],[],[],[],[],[],,497.4092,497.4093,-0.103693954,0.111807914,0,0,0,,0,85,85,54,1,2,TL,liretal,cursive,liretal_c.png,,,,,,
,,,,32007,001,2025-11-16_17h08.27.345,HW_LDT_1,2024.2.4,MacIntel,60.24096386,,,,,,,,,,,,,,,,,,,,,,497.4106,497.6086,497.6087,498.1086,,,,,,,,,,,,,,1.5712,0,,,,,,,,,,,,,,m,,,,,,,,,,,,,,,,87,0,498.1092,499.6921,z,0,1.5712,,[],[],[],[],[],[],[],499.6923,501.6919,501.692,501.6921,[],[],[],[],[],[],[],,501.6922,501.6924,-0.103693954,0.111807914,0,0,0,,0,86,86,117,1,2,word,MARINE,cursive,marine_c.png,,,,,,
,,,,32007,001,2025-11-16_17h08.27.345,HW_LDT_1,2024.2.4,MacIntel,60.24096386,,,,,,,,,,,,,,,,,,,,,,501.6939,501.8911,501.8912,502.392,,,,,,,,,,,,,,0.8892,0,,,,,,,,,,,,,,z,,,,,,,,,,,,,,,,88,0,502.3926,503.2922,m,0,0.8892,,[],[],[],[],[],[],[],503.2923,505.2922,505.2923,505.2925,[],[],[],[],[],[],[],,505.2926,505.2926,-0.103693954,0.111807914,0,0,0,,0,87,87,79,1,2,TL,vadility,print,vadility_p.png,,,,,,
,,,,32007,001,2025-11-16_17h08.27.345,HW_LDT_1,2024.2.4,MacIntel,60.24096386,,,,,,,,,,,,,,,,,,,,,,505.2942,505.4919,505.492,505.9919,,,,,,,,,,,,,,2.1025,1,,,,,,,,,,,,,,m,,,,,,,,,,,,,,,,89,0,505.9926,508.1087,m,1,2.1025,,[],[],[],[],[],[],[],508.1088,510.1086,510.1087,510.1089,[],[],[],[],[],[],[],,510.1089,510.109,-0.103693954,0.111807914,0,0,0,,0,88,88,137,1,2,word,RAPIDLY,print,rapidly_p.png,,,,,,
,,,,32007,001,2025-11-16_17h08.27.345,HW_LDT_1,2024.2.4,MacIntel,60.24096386,,,,,,,,,,,,,,,,,,,,,,510.1105,510.3079,510.3079,510.8083,,,,,,,,,,,,,,1.0816,1,,,,,,,,,,,,,,m,,,,,,,,,,,,,,,,90,0,510.8091,511.8919,m,1,1.0816,,[],[],[],[],[],[],[],511.892,513.8921,513.8922,513.8924,[],[],[],[],[],[],[],,513.8925,513.8925,-0.103693954,0.111807914,0,0,0,,0,89,89,81,1,2,word,ADVISORY,print,advisory_p.png,,,,,,
,,,,32007,001,2025-11-16_17h08.27.345,HW_LDT_1,2024.2.4,MacIntel,60.24096386,,,,,,,,,,,,,,,,,,,,,,513.8938,514.092,514.0921,514.592,,,,,,,,,,,,,,1.1362,0,,,,,,,,,,,,,,m,,,,,,,,,,,,,,,,91,0,514.5927,515.7422,z,0,1.1362,,[],[],[],[],[],[],[],515.7423,517.7409,517.7409,517.7411,[],[],[],[],[],[],[],,517.7412,517.7413,-0.103693954,0.111807914,0,0,0,,0,90,90,103,1,2,word,DISPUTE,cursive,dispute_c.png,,,,,,
,,,,32007,001,2025-11-16_17h08.27.345,HW_LDT_1,2024.2.4,MacIntel,60.24096386,,,,,,,,,,,,,,,,,,,,,,517.7425,517.942,517.9421,518.4421,,,,,,,,,,,,,,1.1872,0,,,,,,,,,,,,,,m,,,,,,,,,,,,,,,,92,0,518.4428,519.6421,z,0,1.1872,,[],[],[],[],[],[],[],519.6422,521.6419,521.642,521.6422,[],[],[],[],[],[],[],,521.6422,521.6423,-0.103693954,0.111807914,0,0,0,,0,91,91,135,1,2,word,QUALITY,cursive,quality_c.png,,,,,,
,,,,32007,001,2025-11-16_17h08.27.345,HW_LDT_1,2024.2.4,MacIntel,60.24096386,,,,,,,,,,,,,,,,,,,,,,521.6437,521.8421,521.8421,522.3417,,,,,,,,,,,,,,0.8819,1,,,,,,,,,,,,,,z,,,,,,,,,,,,,,,,93,0,522.3424,523.2254,z,1,0.8819,,[],[],[],[],[],[],[],523.2255,525.2255,525.2255,525.2257,[],[],[],[],[],[],[],,525.2258,525.2259,-0.103693954,0.111807914,0,0,0,,0,92,92,11,1,2,RL,formuke,print,formuke_p.png,,,,,,
,,,,32007,001,2025-11-16_17h08.27.345,HW_LDT_1,2024.2.4,MacIntel,60.24096386,,,,,,,,,,,,,,,,,,,,,,525.2273,525.4252,525.4254,525.9253,,,,,,,,,,,,,,0.6866,1,,,,,,,,,,,,,,m,,,,,,,,,,,,,,,,94,0,525.9259,526.6253,m,1,0.6866,,[],[],[],[],[],[],[],526.6254,528.6254,528.6254,528.6257,[],[],[],[],[],[],[],,528.6257,528.6259,-0.103693954,0.111807914,0,0,0,,0,93,93,96,1,2,word,CONSIDER,print,consider_p.png,,,,,,
,,,,32007,001,2025-11-16_17h08.27.345,HW_LDT_1,2024.2.4,MacIntel,60.24096386,,,,,,,,,,,,,,,,,,,,,,528.6272,528.8244,528.8245,529.3244,,,,,,,,,,,,,,1.0561,1,,,,,,,,,,,,,,z,,,,,,,,,,,,,,,,95,0,529.3251,530.391,z,1,1.0561,,[],[],[],[],[],[],[],530.3911,532.3921,532.3921,532.3923,[],[],[],[],[],[],[],,532.3923,532.3924,-0.103693954,0.111807914,0,0,0,,0,94,94,47,1,2,TL,crinimal,cursive,crinimal_c.png,,,,,,
,,,,32007,001,2025-11-16_17h08.27.345,HW_LDT_1,2024.2.4,MacIntel,60.24096386,,,,,,,,,,,,,,,,,,,,,,532.3938,532.5919,532.592,533.0916,,,,,,,,,,,,,,0.7558,1,,,,,,,,,,,,,,z,,,,,,,,,,,,,,,,96,0,533.0922,533.8588,z,1,0.7558,,[],[],[],[],[],[],[],533.8588,535.8588,535.8588,535.859,[],[],[],[],[],[],[],,535.859,535.8591,-0.103693954,0.111807914,0,0,0,,0,95,95,77,1,2,TL,sloten,print,sloten_p.png,,,,,,
,,,,32007,001,2025-11-16_17h08.27.345,HW_LDT_1,2024.2.4,MacIntel,60.24096386,,,,,,,,,,,,,,,,,,,,,,535.8605,536.0575,536.0575,536.5585,,,,,,,,,,,,,,2.3879,1,,,,,,,,,,,,,,m,,,,,,,,,,,,,,,,97,0,536.559,538.9588,m,1,2.3879,,[],[],[],[],[],[],[],538.9588,540.9585,540.9586,540.9588,[],[],[],[],[],[],[],,540.9588,540.9589,-0.103693954,0.111807914,0,0,0,,0,96,96,134,1,2,word,QUALIFY,cursive,qualify_c.png,,,,,,
,,,,32007,001,2025-11-16_17h08.27.345,HW_LDT_1,2024.2.4,MacIntel,60.24096386,,,,,,,,,,,,,,,,,,,,,,540.9597,541.1575,541.1575,541.6589,,,,,,,,,,,,,,0.6147,1,,,,,,,,,,,,,,z,,,,,,,,,,,,,,,,98,0,541.6595,542.2751,z,1,0.6147,,[],[],[],[],[],[],[],542.2752,544.2752,544.2753,544.2754,[],[],[],[],[],[],[],,544.2755,544.2756,-0.103693954,0.111807914,0,0,0,,0,97,97,4,1,2,RL,cenesony,print,cenesony_p.png,,,,,,
,,,,32007,001,2025-11-16_17h08.27.345,HW_LDT_1,2024.2.4,MacIntel,60.24096386,,,,,,,,,,,,,,,,,,,,,,544.2767,544.4753,544.4753,544.9746,,,,,,,,,,,,,,1.0265,1,,,,,,,,,,,,,,z,,,,,,,,,,,,,,,,99,0,544.975,546.0084,z,1,1.0265,,[],[],[],[],[],[],[],546.0084,548.0085,548.0086,548.0089,[],[],[],[],[],[],[],,548.0089,548.009,-0.103693954,0.111807914,0,0,0,,0,98,98,30,1,2,RL,selamor,print,selamor_p.png,,,,,,
,,,,32007,001,2025-11-16_17h08.27.345,HW_LDT_1,2024.2.4,MacIntel,60.24096386,,,,,,,,,,,,,,,,,,,,,,548.0104,548.2077,548.2078,548.7087,,,,,,,,,,,,,,1.0173,1,,,,,,,,,,,,,,z,,,,,,,,,,,,,,,,100,0,548.7094,549.7419,z,1,1.0173,,[],[],[],[],[],[],[],549.742,551.7421,551.7421,551.7423,[],[],[],[],[],[],[],,551.7424,551.7425,-0.103693954,0.111807914,0,0,0,,0,99,99,20,1,2,RL,onegator,cursive,onegator_c.png,,,,,,
,,,,32007,001,2025-11-16_17h08.27.345,HW_LDT_1,2024.2.4,MacIntel,60.24096386,,,,,,,,,,,,,,,,,,,,,,551.744,551.9408,551.9409,552.442,,,,,,,,,,,,,,1.5546,0,,,,,,,,,,,,,,m,,,,,,,,,,,,,,,,101,0,552.4427,554.0086,z,0,1.5546,,[],[],[],[],[],[],[],554.0086,556.0085,556.0085,556.0087,[],[],[],[],[],[],[],,556.0088,556.009,-0.103693954,0.111807914,0,0,0,,0,100,100,123,1,2,word,MODERATE,cursive,moderate_c.png,,,,,,
,,,,32007,001,2025-11-16_17h08.27.345,HW_LDT_1,2024.2.4,MacIntel,60.24096386,,,,,,,,,,,,,,,,,,,,,,556.0104,556.2087,556.2087,556.7088,,,,,,,,,,,,,,0.6353,1,,,,,,,,,,,,,,m,,,,,,,,,,,,,,,,102,0,556.7094,557.3585,m,1,0.6353,,[],[],[],[],[],[],[],557.3587,559.3586,559.3587,559.359,[],[],[],[],[],[],[],,559.359,559.3592,-0.103693954,0.111807914,0,0,0,,0,101,101,93,1,2,word,CEREMONY,print,ceremony_p.png,,,,,,
,,,,32007,001,2025-11-16_17h08.27.345,HW_LDT_1,2024.2.4,MacIntel,60.24096386,,,,,,,,,,,,,,,,,,,,,,559.3604,559.5585,559.5586,560.0582,,,,,,,,,,,,,,1.8409,1,,,,,,,,,,,,,,z,,,,,,,,,,,,,,,,103,0,560.0585,561.9085,z,1,1.8409,,[],[],[],[],[],[],[],561.9085,563.9086,563.9087,563.9088,[],[],[],[],[],[],[],,563.9089,563.909,-0.103693954,0.111807914,0,0,0,,0,102,102,14,1,2,RL,insibate,cursive,insibate_c.png,,,,,,
,,,,32007,001,2025-11-16_17h08.27.345,HW_LDT_1,2024.2.4,MacIntel,60.24096386,,,,,,,,,,,,,,,,,,,,,,563.9104,564.1085,564.1085,564.6087,,,,,,,,,,,,,,0.6021,1,,,,,,,,,,,,,,m,,,,,,,,,,,,,,,,104,0,564.6094,565.2252,m,1,0.6021,,[],[],[],[],[],[],[],565.2253,567.2253,567.2254,567.2256,[],[],[],[],[],[],[],,567.2256,567.2259,-0.103693954,0.111807914,0,0,0,,0,103,103,149,1,2,word,SENATOR,print,senator_p.png,,,,,,
,,,,32007,001,2025-11-16_17h08.27.345,HW_LDT_1,2024.2.4,MacIntel,60.24096386,,,,,,,,,,,,,,,,,,,,,,567.2273,567.4244,567.4245,567.9243,,,,,,,,,,,,,,0.9164,1,,,,,,,,,,,,,,m,,,,,,,,,,,,,,,,105,0,567.9247,568.8421,m,1,0.9164,,[],[],[],[],[],[],[],568.8422,570.8419,570.8419,570.8421,[],[],[],[],[],[],[],,570.8422,570.8423,-0.103693954,0.111807914,0,0,0,,0,104,104,82,1,2,word,AMATEUR,cursive,amateur_c.png,,,,,,
,,,,32007,001,2025-11-16_17h08.27.345,HW_LDT_1,2024.2.4,MacIntel,60.24096386,,,,,,,,,,,,,,,,,,,,,,570.8436,571.0419,571.042,571.5418,,,,,,,,,,,,,,0.8136,1,,,,,,,,,,,,,,z,,,,,,,,,,,,,,,,106,1,571.5424,572.3584,z,1,0.8136,,[],[],[],[],[],[],[],572.3585,574.3574,574.3574,575.5418,[],[],[],[],[],[],[],z,575.5419,575.5419,-0.103693954,0.111807914,0,0,0,,0,105,105,44,1,2,TL,catipal,cursive,catipal_c.png,1.1754,,,,,
,,,,32007,001,2025-11-16_17h08.27.345,HW_LDT_1,2024.2.4,MacIntel,60.24096386,,,,,,,,,,,,,,,,,,,,,,575.5432,575.7419,575.7419,576.241,,,,,,,,,,,,,,1.1994,1,,,,,,,,,,,,,,m,,,,,,,,,,,,,,,,107,0,576.2416,577.4417,m,1,1.1994,,[],[],[],[],[],[],[],577.4417,579.4409,579.4409,579.4411,[],[],[],[],[],[],[],,579.4411,579.4412,-0.103693954,0.111807914,0,0,0,,0,106,106,94,1,2,word,CLINICAL,cursive,clinical_c.png,,,,,,
,,,,32007,001,2025-11-16_17h08.27.345,HW_LDT_1,2024.2.4,MacIntel,60.24096386,,,,,,,,,,,,,,,,,,,,,,579.4427,579.6419,579.642,580.1414,,,,,,,,,,,,,,1.1697,1,,,,,,,,,,,,,,z,,,,,,,,,,,,,,,,108,0,580.1421,581.3241,z,1,1.1697,,[],[],[],[],[],[],[],581.3242,583.3247,583.3247,583.325,[],[],[],[],[],[],[],,583.3251,583.3253,-0.103693954,0.111807914,0,0,0,,0,107,107,57,1,2,TL,meromy,cursive,meromy_c.png,,,,,,
,,,,32007,001,2025-11-16_17h08.27.345,HW_LDT_1,2024.2.4,MacIntel,60.24096386,,,,,,,,,,,,,,,,,,,,,,583.3269,583.5252,583.5254,584.0251,,,,,,,,,,,,,,0.9679,1,,,,,,,,,,,,,,z,,,,,,,,,,,,,,,,109,0,584.0258,585.0074,z,1,0.9679,,[],[],[],[],[],[],[],585.0076,587.0074,587.0075,587.0076,[],[],[],[],[],[],[],,587.0076,587.0077,-0.103693954,0.111807914,0,0,0,,0,108,108,1,1,2,RL,caleberia,print,caleberia_p.png,,,,,,
,,,,32007,001,2025-11-16_17h08.27.345,HW_LDT_1,2024.2.4,MacIntel,60.24096386,,,,,,,,,,,,,,,,,,,,,,587.0087,587.2084,587.2085,587.7085,,,,,,,,,,,,,,0.8298,1,,,,,,,,,,,,,,z,,,,,,,,,,,,,,,,110,0,587.709,588.5416,z,1,0.8298,,[],[],[],[],[],[],[],588.5417,590.5419,590.542,590.5422,[],[],[],[],[],[],[],,590.5423,590.5424,-0.103693954,0.111807914,0,0,0,,0,109,109,55,1,2,TL,lotace,print,lotace_p.png,,,,,,
,,,,32007,001,2025-11-16_17h08.27.345,HW_LDT_1,2024.2.4,MacIntel,60.24096386,,,,,,,,,,,,,,,,,,,,,,590.5438,590.742,590.742,591.2418,,,,,,,,,,,,,,0.7792,1,,,,,,,,,,,,,,z,,,,,,,,,,,,,,,,111,0,591.2425,592.0249,z,1,0.7792,,[],[],[],[],[],[],[],592.025,594.0253,594.0254,594.0256,[],[],[],[],[],[],[],,594.0258,594.0258,-0.103693954,0.111807914,0,0,0,,0,110,110,48,1,2,TL,detabe,print,detabe_p.png,,,,,,
,,,,32007,001,2025-11-16_17h08.27.345,HW_LDT_1,2024.2.4,MacIntel,60.24096386,,,,,,,,,,,,,,,,,,,,,,594.0272,594.2241,594.2242,594.7251,,,,,,,,,,,,,,1.6057,1,,,,,,,,,,,,,,z,,,,,,,,,,,,,,,,112,1,594.7257,596.3417,z,1,1.6057,,[],[],[],[],[],[],[],596.3418,598.3419,598.342,598.975,[],[],[],[],[],[],[],z,598.9751,598.9752,-0.103693954,0.111807914,0,0,0,,0,111,111,26,1,2,RL,retupar,cursive,retupar_c.png,0.6198,,,,,
,,,,32007,001,2025-11-16_17h08.27.345,HW_LDT_1,2024.2.4,MacIntel,60.24096386,,,,,,,,,,,,,,,,,,,,,,598.9763,599.1742,599.1742,599.6753,,,,,,,,,,,,,,0.9632,1,,,,,,,,,,,,,,m,,,,,,,,,,,,,,,,113,0,599.6759,600.6406,m,1,0.9632,,[],[],[],[],[],[],[],600.6406,602.6419,602.642,602.6422,[],[],[],[],[],[],[],,602.6422,602.6424,-0.103693954,0.111807914,0,0,0,,0,112,112,97,1,2,word,COVERAGE,cursive,coverage_c.png,,,,,,
,,,,32007,001,2025-11-16_17h08.27.345,HW_LDT_1,2024.2.4,MacIntel,60.24096386,,,,,,,,,,,,,,,,,,,,,,602.644,602.8419,602.8419,603.3409,,,,,,,,,,,,,,0.5653,1,,,,,,,,,,,,,,m,,,,,,,,,,,,,,,,114,0,603.3415,603.9076,m,1,0.5653,,[],[],[],[],[],[],[],603.9076,605.9085,605.9086,605.9087,[],[],[],[],[],[],[],,605.9088,605.909,-0.103693954,0.111807914,0,0,0,,0,113,113,127,1,2,word,ORIGINAL,print,original_p.png,,,,,,
,,,,32007,001,2025-11-16_17h08.27.345,HW_LDT_1,2024.2.4,MacIntel,60.24096386,,,,,,,,,,,,,,,,,,,,,,605.9102,606.1083,606.1084,606.6083,,,,,,,,,,,,,,0.7036,1,,,,,,,,,,,,,,m,,,,,,,,,,,,,,,,115,0,606.609,607.3252,m,1,0.7036,,[],[],[],[],[],[],[],607.3253,609.3249,609.325,609.3252,[],[],[],[],[],[],[],,609.3252,609.3254,-0.103693954,0.111807914,0,0,0,,0,114,114,114,1,2,word,LOCATE,print,locate_p.png,,,,,,
,,,,32007,001,2025-11-16_17h08.27.345,HW_LDT_1,2024.2.4,MacIntel,60.24096386,,,,,,,,,,,,,,,,,,,,,,609.3269,609.5252,609.5253,610.0251,,,,,,,,,,,,,,1.3319,1,,,,,,,,,,,,,,z,,,,,,,,,,,,,,,,116,0,610.0258,611.3583,z,1,1.3319,,[],[],[],[],[],[],[],611.3583,613.3585,613.3586,613.3588,[],[],[],[],[],[],[],,613.3589,613.3589,-0.103693954,0.111807914,0,0,0,,0,115,115,8,1,2,RL,desifate,print,desifate_p.png,,,,,,
,,,,32007,001,2025-11-16_17h08.27.345,HW_LDT_1,2024.2.4,MacIntel,60.24096386,,,,,,,,,,,,,,,,,,,,,,613.3602,613.5584,613.5584,614.0584,,,,,,,,,,,,,,0.9697,1,,,,,,,,,,,,,,m,,,,,,,,,,,,,,,,117,0,614.059,615.0418,m,1,0.9697,,[],[],[],[],[],[],[],615.0419,617.0406,617.0406,617.0408,[],[],[],[],[],[],[],,617.0408,617.0408,-0.103693954,0.111807914,0,0,0,,0,116,116,84,1,2,word,BELOVED,cursive,beloved_c.png,,,,,,
,,,,32007,001,2025-11-16_17h08.27.345,HW_LDT_1,2024.2.4,MacIntel,60.24096386,,,,,,,,,,,,,,,,,,,,,,617.0417,617.2407,617.2407,617.7418,,,,,,,,,,,,,,1.2199,1,,,,,,,,,,,,,,z,,,,,,,,,,,,,,,,118,1,617.7424,618.9751,z,1,1.2199,,[],[],[],[],[],[],[],618.9752,620.9747,620.9747,622.1417,[],[],[],[],[],[],[],m,622.1418,622.1419,-0.103693954,0.111807914,0,0,0,,0,117,117,50,1,2,TL,donimant,print,donimant_p.png,1.1536,,,,,
,,,,32007,001,2025-11-16_17h08.27.345,HW_LDT_1,2024.2.4,MacIntel,60.24096386,,,,,,,,,,,,,,,,,,,,,,622.1431,622.3407,622.3408,622.8418,,,,,,,,,,,,,,1.252,1,,,,,,,,,,,,,,m,,,,,,,,,,,,,,,,119,0,622.8426,624.1084,m,1,1.252,,[],[],[],[],[],[],[],624.1085,626.1085,626.1085,626.1088,[],[],[],[],[],[],[],,626.1088,626.1089,-0.103693954,0.111807914,0,0,0,,0,118,118,91,1,2,word,CARDINAL,cursive,cardinal_c.png,,,,,,
,,,,32007,001,2025-11-16_17h08.27.345,HW_LDT_1,2024.2.4,MacIntel,60.24096386,,,,,,,,,,,,,,,,,,,,,,626.11,626.3079,626.308,626.8082,,,,,,,,,,,,,,1.2548,1,,,,,,,,,,,,,,z,,,,,,,,,,,,,,,,120,0,626.8089,628.0741,z,1,1.2548,,[],[],[],[],[],[],[],628.0741,630.0749,630.075,630.0752,[],[],[],[],[],[],[],,630.0753,630.0754,-0.103693954,0.111807914,0,0,0,,0,119,119,52,1,2,TL,elarobate,cursive,elarobate_c.png,,,,,,
,,,,32007,001,2025-11-16_17h08.27.345,HW_LDT_1,2024.2.4,MacIntel,60.24096386,,,,,,,,,,,,,,,,,,,,,,630.0768,630.2752,630.2753,630.7752,,,,,,,,,,,,,,0.6581,1,,,,,,,,,,,,,,m,,,,,,,,,,,,,,,,121,1,630.7757,631.4414,m,1,0.6581,,[],[],[],[],[],[],[],631.4415,633.4418,633.4419,635.2417,[],[],[],[],[],[],[],z,635.2418,635.2419,-0.103693954,0.111807914,0,0,0,,0,120,120,143,1,2,word,REMOVAL,print,removal_p.png,1.7866,,,,,
,,,,32007,001,2025-11-16_17h08.27.345,HW_LDT_1,2024.2.4,MacIntel,60.24096386,,,,,,,,,,,,,,,,,,,,,,635.2431,635.4406,635.4407,635.9414,,,,,,,,,,,,,,3.1036,1,,,,,,,,,,,,,,z,,,,,,,,,,,,,,,,122,0,635.942,639.0583,z,1,3.1036,,[],[],[],[],[],[],[],639.0583,641.0583,641.0584,641.0585,[],[],[],[],[],[],[],,641.0586,641.0588,-0.103693954,0.111807914,0,0,0,,0,121,121,67,1,2,TL,quafily,cursive,quafily_c.png,,,,,,
,,,,32007,001,2025-11-16_17h08.27.345,HW_LDT_1,2024.2.4,MacIntel,60.24096386,,,,,,,,,,,,,,,,,,,,,,641.0601,641.2586,641.2586,641.7584,,,,,,,,,,,,,,0.8793,0,,,,,,,,,,,,,,m,,,,,,,,,,,,,,,,123,0,641.7591,642.6414,z,0,0.8793,,[],[],[],[],[],[],[],642.6415,644.6408,644.6408,644.641,[],[],[],[],[],[],[],,644.641,644.6411,-0.103693954,0.111807914,0,0,0,,0,122,122,105,1,2,word,EDITOR,cursive,editor_c.png,,,,,,
,,,,32007,001,2025-11-16_17h08.27.345,HW_LDT_1,2024.2.4,MacIntel,60.24096386,,,,,,,,,,,,,,,,,,,,,,644.6426,644.8407,644.8407,645.3417,,,,,,,,,,,,,,2.5389,1,,,,,,,,,,,,,,z,,,,,,,,,,,,,,,,124,0,645.3424,647.8915,z,1,2.5389,,[],[],[],[],[],[],[],647.8916,649.8906,649.8906,649.8907,[],[],[],[],[],[],[],,649.8908,649.8908,-0.103693954,0.111807914,0,0,0,,0,123,123,46,1,2,TL,codemy,cursive,codemy_c.png,,,,,,
,,,,32007,001,2025-11-16_17h08.27.345,HW_LDT_1,2024.2.4,MacIntel,60.24096386,,,,,,,,,,,,,,,,,,,,,,649.8918,650.0914,650.0914,650.5913,,,,,,,,,,,,,,1.3318,1,,,,,,,,,,,,,,m,,,,,,,,,,,,,,,,125,0,650.5915,651.9242,m,1,1.3318,,[],[],[],[],[],[],[],651.9242,653.9242,653.9243,653.9245,[],[],[],[],[],[],[],,653.9245,653.9248,-0.103693954,0.111807914,0,0,0,,0,124,124,122,1,2,word,MOBILE,print,mobile_p.png,,,,,,
,,,,32007,001,2025-11-16_17h08.27.345,HW_LDT_1,2024.2.4,MacIntel,60.24096386,,,,,,,,,,,,,,,,,,,,,,653.9261,654.1251,654.1251,654.6247,,,,,,,,,,,,,,1.2362,1,,,,,,,,,,,,,,z,,,,,,,,,,,,,,,,126,0,654.6252,655.8747,z,1,1.2362,,[],[],[],[],[],[],[],655.8747,657.8741,657.8742,657.8743,[],[],[],[],[],[],[],,657.8743,657.8745,-0.103693954,0.111807914,0,0,0,,0,125,125,22,1,2,RL,posity,print,posity_p.png,,,,,,
,,,,32007,001,2025-11-16_17h08.27.345,HW_LDT_1,2024.2.4,MacIntel,60.24096386,,,,,,,,,,,,,,,,,,,,,,657.8761,658.0739,658.074,658.575,,,,,,,,,,,,,,0.6513,1,,,,,,,,,,,,,,z,,,,,,,,,,,,,,,,127,0,658.5757,659.2416,z,1,0.6513,,[],[],[],[],[],[],[],659.2416,661.2419,661.242,661.2421,[],[],[],[],[],[],[],,661.2422,661.2423,-0.103693954,0.111807914,0,0,0,,0,126,126,63,1,2,TL,orinigal,print,orinigal_p.png,,,,,,
,,,,32007,001,2025-11-16_17h08.27.345,HW_LDT_1,2024.2.4,MacIntel,60.24096386,,,,,,,,,,,,,,,,,,,,,,661.2436,661.4416,661.4417,661.9416,,,,,,,,,,,,,,0.7194,1,,,,,,,,,,,,,,z,,,,,,,,,,,,,,,,128,0,661.9424,662.6749,z,1,0.7194,,[],[],[],[],[],[],[],662.6749,664.6751,664.6751,664.6754,[],[],[],[],[],[],[],,664.6754,664.6755,-0.103693954,0.111807914,0,0,0,,0,127,127,43,1,2,TL,carema,print,carema_p.png,,,,,,
,,,,32007,001,2025-11-16_17h08.27.345,HW_LDT_1,2024.2.4,MacIntel,60.24096386,,,,,,,,,,,,,,,,,,,,,,664.6767,664.8749,664.875,665.375,,,,,,,,,,,,,,0.8738,1,,,,,,,,,,,,,,z,,,,,,,,,,,,,,,,129,0,665.3757,666.2581,z,1,0.8738,,[],[],[],[],[],[],[],666.2582,668.2581,668.2582,668.2584,[],[],[],[],[],[],[],,668.2585,668.2586,-0.103693954,0.111807914,0,0,0,,0,128,128,68,1,2,TL,quatily,cursive,quatily_c.png,,,,,,
,,,,32007,001,2025-11-16_17h08.27.345,HW_LDT_1,2024.2.4,MacIntel,60.24096386,,,,,,,,,,,,,,,,,,,,,,668.2601,668.4584,668.4584,668.9583,,,,,,,,,,,,,,0.9121,1,,,,,,,,,,,,,,z,,,,,,,,,,,,,,,,130,0,668.9589,669.8738,z,1,0.9121,,[],[],[],[],[],[],[],669.8739,671.8739,671.874,671.874,[],[],[],[],[],[],[],,671.8741,671.8743,-0.103693954,0.111807914,0,0,0,,0,129,129,19,1,2,RL,monebate,cursive,monebate_c.png,,,,,,
,,,,32007,001,2025-11-16_17h08.27.345,HW_LDT_1,2024.2.4,MacIntel,60.24096386,,,,,,,,,,,,,,,,,,,,,,671.8755,672.075,672.075,672.5743,,,,,,,,,,,,,,0.9026,1,,,,,,,,,,,,,,m,,,,,,,,,,,,,,,,131,0,672.5751,673.4912,m,1,0.9026,,[],[],[],[],[],[],[],673.4913,675.4914,675.4915,675.4917,[],[],[],[],[],[],[],,675.4918,675.4919,-0.103693954,0.111807914,0,0,0,,0,130,130,83,1,2,word,ANIMAL,print,animal_p.png,,,,,,
,,,,32007,001,2025-11-16_17h08.27.345,HW_LDT_1,2024.2.4,MacIntel,60.24096386,,,,,,,,,,,,,,,,,,,,,,675.4931,675.6909,675.691,676.1918,,,,,,,,,,,,,,0.7518,1,,,,,,,,,,,,,,m,,,,,,,,,,,,,,,,132,0,676.1924,676.9581,m,1,0.7518,,[],[],[],[],[],[],[],676.9581,678.9584,678.9586,678.9588,[],[],[],[],[],[],[],,678.9589,678.959,-0.103693954,0.111807914,0,0,0,,0,131,131,154,1,2,word,STORAGE,print,storage_p.png,,,,,,
,,,,32007,001,2025-11-16_17h08.27.345,HW_LDT_1,2024.2.4,MacIntel,60.24096386,,,,,,,,,,,,,,,,,,,,,,678.9603,679.1578,679.1578,679.6583,,,,,,,,,,,,,,1.373,0,,,,,,,,,,,,,,m,,,,,,,,,,,,,,,,133,1,679.659,681.0417,z,0,1.373,,[],[],[],[],[],[],[],681.0417,683.0417,683.0417,684.0081,[],[],[],[],[],[],[],z,684.0082,684.0083,-0.103693954,0.111807914,0,0,0,,0,132,132,106,1,2,word,ELABORATE,cursive,elaborate_c.png,0.9528,,,,,
,,,,32007,001,2025-11-16_17h08.27.345,HW_LDT_1,2024.2.4,MacIntel,60.24096386,,,,,,,,,,,,,,,,,,,,,,684.0096,684.2082,684.2083,684.708,,,,,,,,,,,,,,0.72,1,,,,,,,,,,,,,,m,,,,,,,,,,,,,,,,134,0,684.7087,685.4415,m,1,0.72,,[],[],[],[],[],[],[],685.4416,687.4414,687.4414,687.4417,[],[],[],[],[],[],[],,687.4417,687.4418,-0.103693954,0.111807914,0,0,0,,0,133,133,89,1,2,word,CAPACITY,print,capacity_p.png,,,,,,
,,,,32007,001,2025-11-16_17h08.27.345,HW_LDT_1,2024.2.4,MacIntel,60.24096386,,,,,,,,,,,,,,,,,,,,,,687.4432,687.6417,687.6418,688.1417,,,,,,,,,,,,,,1.2914,1,,,,,,,,,,,,,,z,,,,,,,,,,,,,,,,135,0,688.1423,689.4414,z,1,1.2914,,[],[],[],[],[],[],[],689.4414,691.4407,691.4407,691.4409,[],[],[],[],[],[],[],,691.441,691.4411,-0.103693954,0.111807914,0,0,0,,0,134,134,41,1,2,TL,befenit,cursive,befenit_c.png,,,,,,
,,,,32007,001,2025-11-16_17h08.27.345,HW_LDT_1,2024.2.4,MacIntel,60.24096386,,,,,,,,,,,,,,,,,,,,,,691.4426,691.641,691.6411,692.1417,,,,,,,,,,,,,,1.3476,0,,,,,,,,,,,,,,m,,,,,,,,,,,,,,,,136,0,692.1424,693.4912,z,0,1.3476,,[],[],[],[],[],[],[],693.4913,695.4907,695.4907,695.491,[],[],[],[],[],[],[],,695.491,695.4911,-0.103693954,0.111807914,0,0,0,,0,135,135,113,1,2,word,LITERAL,cursive,literal_c.png,,,,,,
,,,,32007,001,2025-11-16_17h08.27.345,HW_LDT_1,2024.2.4,MacIntel,60.24096386,,,,,,,,,,,,,,,,,,,,,,695.4923,695.6905,695.6905,696.1904,,,,,,,,,,,,,,0.5922,1,,,,,,,,,,,,,,m,,,,,,,,,,,,,,,,137,0,696.1908,696.7915,m,1,0.5922,,[],[],[],[],[],[],[],696.7916,698.7915,698.7915,698.7917,[],[],[],[],[],[],[],,698.7918,698.7919,-0.103693954,0.111807914,0,0,0,,0,136,136,100,1,2,word,DECADE,print,decade_p.png,,,,,,
,,,,32007,001,2025-11-16_17h08.27.345,HW_LDT_1,2024.2.4,MacIntel,60.24096386,,,,,,,,,,,,,,,,,,,,,,698.7936,698.9905,698.9905,699.4913,,,,,,,,,,,,,,0.9564,1,,,,,,,,,,,,,,z,,,,,,,,,,,,,,,,138,0,699.4919,700.4584,z,1,0.9564,,[],[],[],[],[],[],[],700.4584,702.4582,702.4584,702.4586,[],[],[],[],[],[],[],,702.4586,702.4587,-0.103693954,0.111807914,0,0,0,,0,137,137,12,1,2,RL,gralekul,cursive,gralekul_c.png,,,,,,
,,,,32007,001,2025-11-16_17h08.27.345,HW_LDT_1,2024.2.4,MacIntel,60.24096386,,,,,,,,,,,,,,,,,,,,,,702.4601,702.6571,702.6571,703.1584,,,,,,,,,,,,,,1.7483,0,,,,,,,,,,,,,,z,,,,,,,,,,,,,,,,139,0,703.1589,704.9081,m,0,1.7483,,[],[],[],[],[],[],[],704.9082,706.9074,706.9075,706.9076,[],[],[],[],[],[],[],,706.9077,706.9078,-0.103693954,0.111807914,0,0,0,,0,138,138,61,1,2,TL,nuremical,cursive,nuremical_c.png,,,,,,
,,,,32007,001,2025-11-16_17h08.27.345,HW_LDT_1,2024.2.4,MacIntel,60.24096386,,,,,,,,,,,,,,,,,,,,,,706.9093,707.108,707.1081,707.608,,,,,,,,,,,,,,0.7569,1,,,,,,,,,,,,,,z,,,,,,,,,,,,,,,,140,1,707.6087,708.3748,z,1,0.7569,,[],[],[],[],[],[],[],708.375,710.374,710.374,711.9414,[],[],[],[],[],[],[],z,711.9414,711.9415,-0.103693954,0.111807914,0,0,0,,0,139,139,6,1,2,RL,conbicer,print,conbicer_p.png,1.567,,,,,
,,,,32007,001,2025-11-16_17h08.27.345,HW_LDT_1,2024.2.4,MacIntel,60.24096386,,,,,,,,,,,,,,,,,,,,,,711.9422,712.1406,712.1406,712.6415,,,,,,,,,,,,,,3.8214,1,,,,,,,,,,,,,,z,,,,,,,,,,,,,,,,141,0,712.642,716.4738,z,1,3.8214,,[],[],[],[],[],[],[],716.4739,718.4737,718.4737,718.4739,[],[],[],[],[],[],[],,718.4739,718.474,-0.103693954,0.111807914,0,0,0,,0,140,140,10,1,2,RL,disluge,cursive,disluge_c.png,,,,,,
,,,,32007,001,2025-11-16_17h08.27.345,HW_LDT_1,2024.2.4,MacIntel,60.24096386,,,,,,,,,,,,,,,,,,,,,,718.4748,718.6743,718.6743,719.1738,,,,,,,,,,,,,,1.6427,1,,,,,,,,,,,,,,z,,,,,,,,,,,,,,,,142,1,719.1743,720.8248,z,1,1.6427,,[],[],[],[],[],[],[],720.8248,722.8249,722.825,723.4247,[],[],[],[],[],[],[],m,723.4248,723.425,-0.103693954,0.111807914,0,0,0,,0,141,141,60,1,2,TL,molibe,print,molibe_p.png,0.5865,,,,,
,,,,32007,001,2025-11-16_17h08.27.345,HW_LDT_1,2024.2.4,MacIntel,60.24096386,,,,,,,,,,,,,,,,,,,,,,723.4261,723.6247,723.6247,724.1239,,,,,,,,,,,,,,0.8322,1,,,,,,,,,,,,,,m,,,,,,,,,,,,,,,,143,0,724.1246,724.9579,m,1,0.8322,,[],[],[],[],[],[],[],724.9579,726.9571,726.9572,726.9574,[],[],[],[],[],[],[],,726.9575,726.9577,-0.103693954,0.111807914,0,0,0,,0,142,142,87,1,2,word,CAFETERIA,print,cafeteria_p.png,,,,,,
,,,,32007,001,2025-11-16_17h08.27.345,HW_LDT_1,2024.2.4,MacIntel,60.24096386,,,,,,,,,,,,,,,,,,,,,,726.9592,727.1572,727.1573,727.6583,,,,,,,,,,,,,,1.4469,0,,,,,,,,,,,,,,m,,,,,,,,,,,,,,,,144,0,727.659,729.1078,z,0,1.4469,,[],[],[],[],[],[],[],729.1079,731.1081,731.1083,731.1085,[],[],[],[],[],[],[],,731.1085,731.1088,-0.103693954,0.111807914,0,0,0,,0,143,143,141,1,2,word,RELIGION,cursive,religion_c.png,,,,,,
,,,,32007,001,2025-11-16_17h08.27.345,HW_LDT_1,2024.2.4,MacIntel,60.24096386,,,,,,,,,,,,,,,,,,,,,,731.1102,731.308,731.308,731.8081,,,,,,,,,,,,,,0.6311,1,,,,,,,,,,,,,,m,,,,,,,,,,,,,,,,145,0,731.8087,732.4413,m,1,0.6311,,[],[],[],[],[],[],[],732.4413,734.4411,734.4413,734.4414,[],[],[],[],[],[],[],,734.4415,734.4415,-0.103693954,0.111807914,0,0,0,,0,144,144,153,1,2,word,STOLEN,print,stolen_p.png,,,,,,
,,,,32007,001,2025-11-16_17h08.27.345,HW_LDT_1,2024.2.4,MacIntel,60.24096386,,,,,,,,,,,,,,,,,,,,,,734.4427,734.641,734.6411,735.1415,,,,,,,,,,,,,,0.7911,1,,,,,,,,,,,,,,z,,,,,,,,,,,,,,,,146,0,735.1422,735.9402,z,1,0.7911,,[],[],[],[],[],[],[],735.9403,737.9404,737.9405,737.9408,[],[],[],[],[],[],[],,737.9408,737.9411,-0.103693954,0.111807914,0,0,0,,0,145,145,35,1,2,RL,vesofity,print,vesofity_p.png,,,,,,
,,,,32007,001,2025-11-16_17h08.27.345,HW_LDT_1,2024.2.4,MacIntel,60.24096386,,,,,,,,,,,,,,,,,,,,,,737.9426,738.1414,738.1414,738.6405,,,,,,,,,,,,,,0.7139,1,,,,,,,,,,,,,,m,,,,,,,,,,,,,,,,147,0,738.6412,739.3567,m,1,0.7139,,[],[],[],[],[],[],[],739.3567,741.3572,741.3572,741.3574,[],[],[],[],[],[],[],,741.3575,741.3576,-0.103693954,0.111807914,0,0,0,,0,146,146,147,1,2,word,ROMANTIC,print,romantic_p.png,,,,,,
,,,,32007,001,2025-11-16_17h08.27.345,HW_LDT_1,2024.2.4,MacIntel,60.24096386,,,,,,,,,,,,,,,,,,,,,,741.3589,741.5581,741.5582,742.0579,,,,,,,,,,,,,,0.9574,1,,,,,,,,,,,,,,z,,,,,,,,,,,,,,,,148,0,742.0585,743.0248,z,1,0.9574,,[],[],[],[],[],[],[],743.0249,745.0247,745.0247,745.0248,[],[],[],[],[],[],[],,745.025,745.025,-0.103693954,0.111807914,0,0,0,,0,147,147,59,1,2,TL,miskate,cursive,miskate_c.png,,,,,,
,,,,32007,001,2025-11-16_17h08.27.345,HW_LDT_1,2024.2.4,MacIntel,60.24096386,,,,,,,,,,,,,,,,,,,,,,745.0265,745.2247,745.2248,745.7245,,,,,,,,,,,,,,0.7256,1,,,,,,,,,,,,,,z,,,,,,,,,,,,,,,,149,0,745.7253,746.4577,z,1,0.7256,,[],[],[],[],[],[],[],746.4578,748.457,748.4571,748.4572,[],[],[],[],[],[],[],,748.4572,748.4574,-0.103693954,0.111807914,0,0,0,,0,148,148,73,1,2,TL,redisent,print,redisent_p.png,,,,,,
,,,,32007,001,2025-11-16_17h08.27.345,HW_LDT_1,2024.2.4,MacIntel,60.24096386,,,,,,,,,,,,,,,,,,,,,,748.4588,748.6581,748.6581,749.1571,,,,,,,,,,,,,,0.615,1,,,,,,,,,,,,,,m,,,,,,,,,,,,,,,,150,0,749.1577,749.7742,m,1,0.615,,[],[],[],[],[],[],[],749.7742,751.7745,751.7745,751.7746,[],[],[],[],[],[],[],,751.7747,751.7748,-0.103693954,0.111807914,0,0,0,,0,149,149,110,1,2,word,HERITAGE,print,heritage_p.png,,,,,,
,,,,32007,001,2025-11-16_17h08.27.345,HW_LDT_1,2024.2.4,MacIntel,60.24096386,,,,,,,,,,,,,,,,,,,,,,751.7756,751.9745,751.9745,752.4746,,,,,,,,,,,,,,0.9564,1,,,,,,,,,,,,,,m,,,,,,,,,,,,,,,,151,0,752.475,753.4412,m,1,0.9564,,[],[],[],[],[],[],[],753.4413,755.4413,755.4413,755.4415,[],[],[],[],[],[],[],,755.4415,755.4416,-0.103693954,0.111807914,0,0,0,,0,150,150,148,1,2,word,SALINE,cursive,saline_c.png,,,,,,
,,,,32007,001,2025-11-16_17h08.27.345,HW_LDT_1,2024.2.4,MacIntel,60.24096386,,,,,,,,,,,,,,,,,,,,,,755.4428,755.6413,755.6413,756.1413,,,,,,,,,,,,,,0.9794,1,,,,,,,,,,,,,,z,,,,,,,,,,,,,,,,152,0,756.1419,757.1244,z,1,0.9794,,[],[],[],[],[],[],[],757.1245,759.1248,759.1248,759.125,[],[],[],[],[],[],[],,759.125,759.1252,-0.103693954,0.111807914,0,0,0,,0,151,151,7,1,2,RL,cocewage,cursive,cocewage_c.png,,,,,,
,,,,32007,001,2025-11-16_17h08.27.345,HW_LDT_1,2024.2.4,MacIntel,60.24096386,,,,,,,,,,,,,,,,,,,,,,759.1268,759.3249,759.3249,759.8247,,,,,,,,,,,,,,0.7796,1,,,,,,,,,,,,,,z,,,,,,,,,,,,,,,,153,0,759.8255,760.608,z,1,0.7796,,[],[],[],[],[],[],[],760.608,762.608,762.608,762.6083,[],[],[],[],[],[],[],,762.6083,762.6085,-0.103693954,0.111807914,0,0,0,,0,152,152,51,1,2,TL,etidor,cursive,etidor_c.png,,,,,,
,,,,32007,001,2025-11-16_17h08.27.345,HW_LDT_1,2024.2.4,MacIntel,60.24096386,,,,,,,,,,,,,,,,,,,,,,762.6099,762.8081,762.8081,763.308,,,,,,,,,,,,,,1.056,1,,,,,,,,,,,,,,z,,,,,,,,,,,,,,,,154,0,763.3087,764.3748,z,1,1.056,,[],[],[],[],[],[],[],764.3749,766.3748,766.3748,766.375,[],[],[],[],[],[],[],,766.375,766.3752,-0.103693954,0.111807914,0,0,0,,0,153,153,58,1,2,TL,mitilary,cursive,mitilary_c.png,,,,,,
,,,,32007,001,2025-11-16_17h08.27.345,HW_LDT_1,2024.2.4,MacIntel,60.24096386,,,,,,,,,,,,,,,,,,,,,,766.3766,766.5746,766.5747,767.0746,,,,,,,,,,,,,,0.8732,1,,,,,,,,,,,,,,m,,,,,,,,,,,,,,,,155,0,767.0751,767.9579,m,1,0.8732,,[],[],[],[],[],[],[],767.958,769.9579,769.9579,769.9582,[],[],[],[],[],[],[],,769.9582,769.9583,-0.103693954,0.111807914,0,0,0,,0,154,154,132,1,2,word,PROPOSAL,cursive,proposal_c.png,,,,,,
,,,,32007,001,2025-11-16_17h08.27.345,HW_LDT_1,2024.2.4,MacIntel,60.24096386,,,,,,,,,,,,,,,,,,,,,,769.9598,770.1582,770.1583,770.6571,,,,,,,,,,,,,,2.9534,1,,,,,,,,,,,,,,m,,,,,,,,,,,,,,,,156,0,770.6577,773.6241,m,1,2.9534,,[],[],[],[],[],[],[],773.6242,775.6244,775.6244,775.6246,[],[],[],[],[],[],[],,775.6246,775.6246,-0.103693954,0.111807914,0,0,0,,0,155,155,119,1,2,word,MEMORY,cursive,memory_c.png,,,,,,
,,,,32007,001,2025-11-16_17h08.27.345,HW_LDT_1,2024.2.4,MacIntel,60.24096386,,,,,,,,,,,,,,,,,,,,,,775.6256,775.8248,775.8249,776.3246,,,,,,,,,,,,,,0.84,1,,,,,,,,,,,,,,m,,,,,,,,,,,,,,,,157,0,776.3253,777.1748,m,1,0.84,,[],[],[],[],[],[],[],777.1749,779.1742,779.1743,779.1745,[],[],[],[],[],[],[],,779.1745,779.1746,-0.103693954,0.111807914,0,0,0,,0,156,156,118,1,2,word,MEDICINE,print,medicine_p.png,,,,,,
,,,,32007,001,2025-11-16_17h08.27.345,HW_LDT_1,2024.2.4,MacIntel,60.24096386,,,,,,,,,,,,,,,,,,,,,,779.1759,779.3747,779.3748,779.8746,,,,,,,,,,,,,,1.6193,1,,,,,,,,,,,,,,z,,,,,,,,,,,,,,,,158,0,779.8753,781.5068,z,1,1.6193,,[],[],[],[],[],[],[],781.5069,783.5079,783.5079,783.5081,[],[],[],[],[],[],[],,783.5083,783.5084,-0.103693954,0.111807914,0,0,0,,0,157,157,34,1,2,RL,trilude,cursive,trilude_c.png,,,,,,
,,,,32007,001,2025-11-16_17h08.27.345,HW_LDT_1,2024.2.4,MacIntel,60.24096386,,,,,,,,,,,,,,,,,,,,,,783.5095,783.7081,783.7081,784.2078,,,,,,,,,,,,,,0.7517,1,,,,,,,,,,,,,,m,,,,,,,,,,,,,,,,159,0,784.2085,784.9747,m,1,0.7517,,[],[],[],[],[],[],[],784.9747,786.9735,786.9735,786.9736,[],[],[],[],[],[],[],,786.9737,786.9738,-0.103693954,0.111807914,0,0,0,,0,158,158,92,1,2,word,CATEGORY,print,category_p.png,,,,,,
,,,,32007,001,2025-11-16_17h08.27.345,HW_LDT_1,2024.2.4,MacIntel,60.24096386,,,,,,,,,,,,,,,,,,,,,,786.9746,787.1736,787.1737,787.6736,,,,,,,,,,,,,,1.0523,1,,,,,,,,,,,,,,z,,,,,,,,,,,,,,,,160,0,787.6742,788.7411,z,1,1.0523,,[],[],[],[],[],[],[],788.7411,790.7413,790.7413,790.7415,[],[],[],[],[],[],[],,790.7415,790.7417,-0.103693954,0.111807914,0,0,0,,0,159,159,28,1,2,RL,revune,cursive,revune_c.png,,,,,,
,,,,32007,001,2025-11-16_17h08.27.345,HW_LDT_1,2024.2.4,MacIntel,60.24096386,,,,,,,,,,,,,,,,,,,,,,,,,,,,,,,,,,,,,,,,,,,,,,,,,,,,,,,,,,,,,,,,,,,,,,,,,,,,,,,,,,,,,,,,,,,,,,,,,,,,,,,,,,,,,,,,,,,,,,,790.7522,795.7418
