counterbalance_lists.group,counterbalance_lists.remaining,get_list.started,get_list.stopped,participant,session,date,expName,psychopyVersion,OS,frameRate,Instructions.started,Instructions.stopped,key_resp.keys,instr_done_touch.x,instr_done_touch.y,instr_done_touch.leftButton,instr_done_touch.midButton,instr_done_touch.rightButton,instr_done_touch.clicked_name,start_instr.thisRepN,start_instr.thisTrialN,start_instr.thisN,start_instr.thisIndex,start_instr.ran,pageN,phase,instruct_text,has_image,instruct_image,key_resp.rt,key_resp.duration,showProgress.started,showProgress.stopped,fix.started,fix.stopped,prac.started,prac.stopped,response.keys,response.corr,response.rt,response.duration,touch_resp.x,touch_resp.y,touch_resp.leftButton,touch_resp.midButton,touch_resp.rightButton,touch_resp.time,touch_resp.clicked_name,rt,corr,feedback.started,feedback.stopped,trials.thisRepN,trials.thisTrialN,trials.thisN,trials.thisIndex,trials.ran,TrialID,StimulusType,Condition,PrimeDuration,Prime,Target,corrAns,Instructions_expt.started,Instructions_expt.stopped,key_resp_3.keys,key_resp_3.rt,key_resp_3.duration,instr_done_touch_3.x,instr_done_touch_3.y,instr_done_touch_3.leftButton,instr_done_touch_3.midButton,instr_done_touch_3.rightButton,instr_experiment.thisRepN,instr_experiment.thisTrialN,instr_experiment.thisN,instr_experiment.thisIndex,instr_experiment.ran,trialID,flag,maintask.started,maintask.stopped,key_resp_2.keys,key_resp_2.corr,key_resp_2.rt,key_resp_2.duration,targ_click.x,targ_click.y,targ_click.leftButton,targ_click.midButton,targ_click.rightButton,targ_click.time,targ_click.clicked_name,ITI.started,ITI.stopped,probe.started,probe.stopped,click_probe.x,click_probe.y,click_probe.leftButton,click_probe.midButton,click_probe.rightButton,click_probe.time,click_probe.clicked_name,key_resp_probe.keys,key_resp_probe.rt,key_resp_probe.duration,Break.started,Break.stopped,break_done_touch.x,break_done_touch.y,break_done_touch.leftButton,break_done_touch.midButton,break_done_touch.rightButton,break_done_keyboard.keys,list2_trials.thisRepN,list2_trials.thisTrialN,list2_trials.thisN,list2_trials.thisIndex,list2_trials.ran,list_id,item_type,string,font,stim_file,break_done_keyboard.rt,break_done_keyboard.duration,End.started,End.stopped
list2,,4.615,4.616,32005,001,2025-10-18_17h16.56.755,HW_LDT_1,2024.2.4,MacIntel,62.5,,,,,,,,,,,,,,,,,,,,,,,,,,,,,,,,,,,,,,,,,,,,,,,,,,,,,,,,,,,,,,,,,,,,,,,,,,,,,,,,,,,,,,,,,,,,,,,,,,,,,,,,,,,,,,,,,,,,,,,,
,,,,32005,001,2025-10-18_17h16.56.755,HW_LDT_1,2024.2.4,MacIntel,62.5,4.633,36.11,,-0.026115343,-0.398803047,1,0,0,instr_done_button,0,0,0,0,1,1,instructions,"INSTRUCTIONS
At the start of each trial, look at the plus sign  (+) in the center of the screen.  This tells you that a trial is about to begin and where to look. Second, the plus sign will disappear and a string of letters will appear. Your task is to determine if the string of letters is a word or not. If the item is a word press the M key (on keyboard)  or touch the word button (phone/tablet).  If the item is not a word,  press the  Z key (on keyboard)  or touch the nonword button (on phone/tablet). The items will be presented for a short time. 
Press the space bar or touch  continue.",0,,,,,,,,,,,,,,,,,,,,,,,,,,,,,,,,,,,,,,,,,,,,,,,,,,,,,,,,,,,,,,,,,,,,,,,,,,,,,,,,,,,,,,,,,,,,,,,,,,,,,,
,,,,32005,001,2025-10-18_17h16.56.755,HW_LDT_1,2024.2.4,MacIntel,62.5,36.112,41.342,space,0.245919478,-0.21164309,0,0,0,,0,1,1,1,1,2,instructions,"If your device has a keyboard, press the 'Z' key for nonwords and the 'M' key for words.





Press the space bar or touch the button below to continue.",0,keyboard-example.gif,5.191,,,,,,,,,,,,,,,,,,,,,,,,,,,,,,,,,,,,,,,,,,,,,,,,,,,,,,,,,,,,,,,,,,,,,,,,,,,,,,,,,,,,,,,,,,,,,,,,,,,,
,,,,32005,001,2025-10-18_17h16.56.755,HW_LDT_1,2024.2.4,MacIntel,62.5,41.344,44.241,space,0.245919478,-0.21164309,0,0,0,,0,2,2,2,1,3,instructions,"If you are using a touchscreen only device, use the buttons on the screen. Do not use the mouse.





Press the space bar or touch the button below to continue.",0,touchscreen-example.gif,2.857,,,,,,,,,,,,,,,,,,,,,,,,,,,,,,,,,,,,,,,,,,,,,,,,,,,,,,,,,,,,,,,,,,,,,,,,,,,,,,,,,,,,,,,,,,,,,,,,,,,,
,,,,32005,001,2025-10-18_17h16.56.755,HW_LDT_1,2024.2.4,MacIntel,62.5,44.243,54.658,space,0.245919478,-0.21164309,0,0,0,,0,3,3,3,1,4,instructions,"It is very important that you respond as quickly and accurately as possible, as each letter string will only be on the screen for two seconds. If you do not respond within this time, the message 'Too slow!' will be displayed and the experiment will progress to the next letter string. The first 20 trials will be practice trials and you will receive feedback on your answers. 

Press the space bar or touch the button below to start the practice trials.",0,,10.385,,,,,,,,,,,,,,,,,,,,,,,,,,,,,,,,,,,,,,,,,,,,,,,,,,,,,,,,,,,,,,,,,,,,,,,,,,,,,,,,,,,,,,,,,,,,,,,,,,,,
,,,,32005,001,2025-10-18_17h16.56.755,HW_LDT_1,2024.2.4,MacIntel,62.5,,,,,,,,,,,,,,,,,,,,,,54.68,54.858,54.858,55.358,55.359,57.726,z,1,2.337,,[],[],[],[],[],[],[],2.337,1,57.726,58.225,0,0,0,15,1,1016,NW,UN,16,mushed,WHAISE,z,,,,,,,,,,,,,,,,,,,,,,,,,,,,,,,,,,,,,,,,,,,,,,,,,,,,,,,,,,,,,,,,,,
,,,,32005,001,2025-10-18_17h16.56.755,HW_LDT_1,2024.2.4,MacIntel,62.5,,,,,,,,,,,,,,,,,,,,,,58.226,58.425,58.425,58.925,58.926,59.742,m,1,0.808,,[],[],[],[],[],[],[],0.808,1,59.742,60.242,0,1,1,7,1,1008,WORD,UN,16,hurdle,VOLUME,m,,,,,,,,,,,,,,,,,,,,,,,,,,,,,,,,,,,,,,,,,,,,,,,,,,,,,,,,,,,,,,,,,,
,,,,32005,001,2025-10-18_17h16.56.755,HW_LDT_1,2024.2.4,MacIntel,62.5,,,,,,,,,,,,,,,,,,,,,,60.243,60.441,60.441,60.942,60.942,61.575,m,1,0.616,,[],[],[],[],[],[],[],0.616,1,61.575,62.075,0,2,2,4,1,1005,WORD,UN,33,abound,SQUEAK,m,,,,,,,,,,,,,,,,,,,,,,,,,,,,,,,,,,,,,,,,,,,,,,,,,,,,,,,,,,,,,,,,,,
,,,,32005,001,2025-10-18_17h16.56.755,HW_LDT_1,2024.2.4,MacIntel,62.5,,,,,,,,,,,,,,,,,,,,,,62.076,62.275,62.275,62.775,62.776,63.525,m,1,0.728,,[],[],[],[],[],[],[],0.728,1,63.525,64.025,0,3,3,5,1,1006,WORD,UN,33,frenzy,OBTAIN,m,,,,,,,,,,,,,,,,,,,,,,,,,,,,,,,,,,,,,,,,,,,,,,,,,,,,,,,,,,,,,,,,,,
,,,,32005,001,2025-10-18_17h16.56.755,HW_LDT_1,2024.2.4,MacIntel,62.5,,,,,,,,,,,,,,,,,,,,,,64.026,64.224,64.224,64.725,64.726,65.392,z,1,0.646,,[],[],[],[],[],[],[],0.646,1,65.392,65.891,0,4,4,11,1,1012,NW,"ID",16,rashet,RASHET,z,,,,,,,,,,,,,,,,,,,,,,,,,,,,,,,,,,,,,,,,,,,,,,,,,,,,,,,,,,,,,,,,,,
,,,,32005,001,2025-10-18_17h16.56.755,HW_LDT_1,2024.2.4,MacIntel,62.5,,,,,,,,,,,,,,,,,,,,,,65.892,66.091,66.091,66.592,66.592,67.425,z,1,0.82,,[],[],[],[],[],[],[],0.82,1,67.426,67.924,0,5,5,9,1,1010,NW,"ID",33,fariny,FARINY,z,,,,,,,,,,,,,,,,,,,,,,,,,,,,,,,,,,,,,,,,,,,,,,,,,,,,,,,,,,,,,,,,,,
,,,,32005,001,2025-10-18_17h16.56.755,HW_LDT_1,2024.2.4,MacIntel,62.5,,,,,,,,,,,,,,,,,,,,,,67.926,68.125,68.125,68.625,68.625,69.209,m,1,0.563,,[],[],[],[],[],[],[],0.563,1,69.209,69.708,0,6,6,0,1,1001,WORD,"ID",33,utopia,UTOPIA,m,,,,,,,,,,,,,,,,,,,,,,,,,,,,,,,,,,,,,,,,,,,,,,,,,,,,,,,,,,,,,,,,,,
,,,,32005,001,2025-10-18_17h16.56.755,HW_LDT_1,2024.2.4,MacIntel,62.5,,,,,,,,,,,,,,,,,,,,,,69.709,69.907,69.907,70.408,70.409,71.042,m,1,0.617,,[],[],[],[],[],[],[],0.617,1,71.042,71.542,0,7,7,2,1,1003,WORD,"ID",16,almond,ALMOND,m,,,,,,,,,,,,,,,,,,,,,,,,,,,,,,,,,,,,,,,,,,,,,,,,,,,,,,,,,,,,,,,,,,
,,,,32005,001,2025-10-18_17h16.56.755,HW_LDT_1,2024.2.4,MacIntel,62.5,,,,,,,,,,,,,,,,,,,,,,71.542,71.742,71.742,72.241,72.242,72.842,m,1,0.592,,[],[],[],[],[],[],[],0.592,1,72.843,73.342,0,8,8,1,1,1002,WORD,"ID",33,adjust,ADJUST,m,,,,,,,,,,,,,,,,,,,,,,,,,,,,,,,,,,,,,,,,,,,,,,,,,,,,,,,,,,,,,,,,,,
,,,,32005,001,2025-10-18_17h16.56.755,HW_LDT_1,2024.2.4,MacIntel,62.5,,,,,,,,,,,,,,,,,,,,,,73.342,73.542,73.542,74.041,74.042,74.925,z,1,0.865,,[],[],[],[],[],[],[],0.865,1,74.925,75.425,0,9,9,10,1,1011,NW,"ID",16,inlade,INLADE,z,,,,,,,,,,,,,,,,,,,,,,,,,,,,,,,,,,,,,,,,,,,,,,,,,,,,,,,,,,,,,,,,,,
,,,,32005,001,2025-10-18_17h16.56.755,HW_LDT_1,2024.2.4,MacIntel,62.5,,,,,,,,,,,,,,,,,,,,,,75.426,75.624,75.624,76.125,76.126,76.725,m,1,0.58,,[],[],[],[],[],[],[],0.58,1,76.725,77.225,0,10,10,3,1,1004,WORD,"ID",16,matrix,MATRIX,m,,,,,,,,,,,,,,,,,,,,,,,,,,,,,,,,,,,,,,,,,,,,,,,,,,,,,,,,,,,,,,,,,,
,,,,32005,001,2025-10-18_17h16.56.755,HW_LDT_1,2024.2.4,MacIntel,62.5,,,,,,,,,,,,,,,,,,,,,,77.226,77.425,77.425,77.925,77.926,78.691,z,1,0.755,,[],[],[],[],[],[],[],0.755,1,78.691,79.192,0,11,11,14,1,1015,NW,UN,16,miaber,THRALE,z,,,,,,,,,,,,,,,,,,,,,,,,,,,,,,,,,,,,,,,,,,,,,,,,,,,,,,,,,,,,,,,,,,
,,,,32005,001,2025-10-18_17h16.56.755,HW_LDT_1,2024.2.4,MacIntel,62.5,,,,,,,,,,,,,,,,,,,,,,79.193,79.391,79.391,79.891,79.892,80.459,m,1,0.556,,[],[],[],[],[],[],[],0.556,1,80.459,80.958,0,12,12,6,1,1007,WORD,UN,16,tropic,ZOMBIE,m,,,,,,,,,,,,,,,,,,,,,,,,,,,,,,,,,,,,,,,,,,,,,,,,,,,,,,,,,,,,,,,,,,
,,,,32005,001,2025-10-18_17h16.56.755,HW_LDT_1,2024.2.4,MacIntel,62.5,,,,,,,,,,,,,,,,,,,,,,80.959,81.158,81.158,81.658,81.659,82.424,z,1,0.75,,[],[],[],[],[],[],[],0.75,1,82.424,82.925,0,13,13,13,1,1014,NW,UN,33,winfer,ROUPET,z,,,,,,,,,,,,,,,,,,,,,,,,,,,,,,,,,,,,,,,,,,,,,,,,,,,,,,,,,,,,,,,,,,
,,,,32005,001,2025-10-18_17h16.56.755,HW_LDT_1,2024.2.4,MacIntel,62.5,,,,,,,,,,,,,,,,,,,,,,82.926,83.124,83.124,83.624,83.625,84.174,z,1,0.531,,[],[],[],[],[],[],[],0.531,1,84.175,84.675,0,14,14,12,1,1013,NW,UN,33,adveil,SPRINY,z,,,,,,,,,,,,,,,,,,,,,,,,,,,,,,,,,,,,,,,,,,,,,,,,,,,,,,,,,,,,,,,,,,
,,,,32005,001,2025-10-18_17h16.56.755,HW_LDT_1,2024.2.4,MacIntel,62.5,,,,,,,,,,,,,,,,,,,,,,84.675,84.875,84.875,85.375,85.375,86.125,z,1,0.731,,[],[],[],[],[],[],[],0.731,1,86.125,86.625,0,15,15,8,1,1009,NW,"ID",33,aslert,ASLERT,z,,,,,,,,,,,,,,,,,,,,,,,,,,,,,,,,,,,,,,,,,,,,,,,,,,,,,,,,,,,,,,,,,,
,,,,32005,001,2025-10-18_17h16.56.755,HW_LDT_1,2024.2.4,MacIntel,62.5,,,,,,,,,,,,,,,1,end_of_practice,"You have completed the practice trials. During the experimental trials, you will not receive feedback. On some trials you will be asked to report whether the item you just saw was in cursive or print. 
Before you begin, please ensure that you are in a comfortable and quiet location and will not be disturbed for about 15 minutes, as we cannot use your data if you do not complete all the trials. 
 When you are ready to start the experimental trials, please press space or touch the button below.",,,,,,,,,,,,,,,,,,,,,,,,,,,,,,,,,,,,,,86.631,98.992,space,12.325,,0.245919478,-0.21164309,0,0,0,0,0,0,0,1,,,,,,,,,,,,,,,,,,,,,,,,,,,,,,,,,,,,,,,,,,,,,,,,,,,
,,,,32005,001,2025-10-18_17h16.56.755,HW_LDT_1,2024.2.4,MacIntel,62.5,,,,,,,,,,,,,,,,,,,,,,99.007,99.192,99.192,99.691,,,,,,,,,,,,,,1.302,1,,,,,,,,,,,,,,z,,,,,,,,,,,,,,,,1,1,99.692,101.009,z,1,1.302,,[],[],[],[],[],[],[],101.009,103.008,103.009,105.725,[],[],[],[],[],[],[],z,2.701,,105.726,105.729,0.245919478,-0.21164309,0,0,0,,0,0,0,69,1,2,TL,resufal,cursive,resufal_c.png,,,,
,,,,32005,001,2025-10-18_17h16.56.755,HW_LDT_1,2024.2.4,MacIntel,62.5,,,,,,,,,,,,,,,,,,,,,,105.73,105.925,105.925,106.424,,,,,,,,,,,,,,1.171,1,,,,,,,,,,,,,,z,,,,,,,,,,,,,,,,2,1,106.424,107.609,z,1,1.171,,[],[],[],[],[],[],[],107.609,109.608,109.608,110.661,[],[],[],[],[],[],[],m,1.047,,110.661,110.661,0.245919478,-0.21164309,0,0,0,,0,1,1,1,1,2,RL,caleberia,print,caleberia_p.png,,,,
,,,,32005,001,2025-10-18_17h16.56.755,HW_LDT_1,2024.2.4,MacIntel,62.5,,,,,,,,,,,,,,,,,,,,,,110.662,110.858,110.858,111.358,,,,,,,,,,,,,,1.337,0,,,,,,,,,,,,,,z,,,,,,,,,,,,,,,,3,0,111.358,112.707,m,0,1.337,,[],[],[],[],[],[],[],112.707,114.707,114.708,114.708,[],[],[],[],[],[],[],,,,114.708,114.708,0.245919478,-0.21164309,0,0,0,,0,2,2,38,1,2,TL,atameur,cursive,atameur_c.png,,,,
,,,,32005,001,2025-10-18_17h16.56.755,HW_LDT_1,2024.2.4,MacIntel,62.5,,,,,,,,,,,,,,,,,,,,,,114.709,114.907,114.907,115.408,,,,,,,,,,,,,,1.327,1,,,,,,,,,,,,,,z,,,,,,,,,,,,,,,,4,0,115.408,116.741,z,1,1.327,,[],[],[],[],[],[],[],116.742,118.741,118.741,118.742,[],[],[],[],[],[],[],,,,118.742,118.742,0.245919478,-0.21164309,0,0,0,,0,3,3,42,1,2,TL,bedise,cursive,bedise_c.png,,,,
,,,,32005,001,2025-10-18_17h16.56.755,HW_LDT_1,2024.2.4,MacIntel,62.5,,,,,,,,,,,,,,,,,,,,,,118.742,118.941,118.941,119.441,,,,,,,,,,,,,,0.887,1,,,,,,,,,,,,,,m,,,,,,,,,,,,,,,,5,0,119.441,120.341,m,1,0.887,,[],[],[],[],[],[],[],120.342,122.341,122.341,122.342,[],[],[],[],[],[],[],,,,122.342,122.342,0.245919478,-0.21164309,0,0,0,,0,4,4,103,1,2,word,DISPUTE,cursive,dispute_c.png,,,,
,,,,32005,001,2025-10-18_17h16.56.755,HW_LDT_1,2024.2.4,MacIntel,62.5,,,,,,,,,,,,,,,,,,,,,,122.342,122.542,122.542,123.041,,,,,,,,,,,,,,0.774,1,,,,,,,,,,,,,,m,,,,,,,,,,,,,,,,6,0,123.042,123.825,m,1,0.774,,[],[],[],[],[],[],[],123.825,125.824,125.825,125.825,[],[],[],[],[],[],[],,,,125.825,125.825,0.245919478,-0.21164309,0,0,0,,0,5,5,114,1,2,word,LOCATE,print,locate_p.png,,,,
,,,,32005,001,2025-10-18_17h16.56.755,HW_LDT_1,2024.2.4,MacIntel,62.5,,,,,,,,,,,,,,,,,,,,,,125.826,126.024,126.024,126.525,,,,,,,,,,,,,,0.736,0,,,,,,,,,,,,,,z,,,,,,,,,,,,,,,,7,0,126.525,127.275,m,0,0.736,,[],[],[],[],[],[],[],127.275,129.275,129.275,129.275,[],[],[],[],[],[],[],,,,129.275,129.275,0.245919478,-0.21164309,0,0,0,,0,6,6,37,1,2,TL,adacemy,cursive,adacemy_c.png,,,,
,,,,32005,001,2025-10-18_17h16.56.755,HW_LDT_1,2024.2.4,MacIntel,62.5,,,,,,,,,,,,,,,,,,,,,,129.276,129.475,129.475,129.974,,,,,,,,,,,,,,0.974,1,,,,,,,,,,,,,,z,,,,,,,,,,,,,,,,8,0,129.975,130.957,z,1,0.974,,[],[],[],[],[],[],[],130.958,132.958,132.958,132.958,[],[],[],[],[],[],[],,,,132.958,132.958,0.245919478,-0.21164309,0,0,0,,0,7,7,30,1,2,RL,selamor,print,selamor_p.png,,,,
,,,,32005,001,2025-10-18_17h16.56.755,HW_LDT_1,2024.2.4,MacIntel,62.5,,,,,,,,,,,,,,,,,,,,,,132.959,133.158,133.158,133.657,,,,,,,,,,,,,,0.845,1,,,,,,,,,,,,,,m,,,,,,,,,,,,,,,,9,0,133.657,134.509,m,1,0.845,,[],[],[],[],[],[],[],134.509,136.507,136.507,136.508,[],[],[],[],[],[],[],,,,136.508,136.508,0.245919478,-0.21164309,0,0,0,,0,8,8,119,1,2,word,MEMORY,cursive,memory_c.png,,,,
,,,,32005,001,2025-10-18_17h16.56.755,HW_LDT_1,2024.2.4,MacIntel,62.5,,,,,,,,,,,,,,,,,,,,,,136.508,136.708,136.708,137.208,,,,,,,,,,,,,,0.739,1,,,,,,,,,,,,,,m,,,,,,,,,,,,,,,,10,0,137.208,137.958,m,1,0.739,,[],[],[],[],[],[],[],137.958,139.958,139.958,139.958,[],[],[],[],[],[],[],,,,139.958,139.958,0.245919478,-0.21164309,0,0,0,,0,9,9,98,1,2,word,CRIMINAL,cursive,criminal_c.png,,,,
,,,,32005,001,2025-10-18_17h16.56.755,HW_LDT_1,2024.2.4,MacIntel,62.5,,,,,,,,,,,,,,,,,,,,,,139.959,140.158,140.158,140.657,,,,,,,,,,,,,,0.845,1,,,,,,,,,,,,,,z,,,,,,,,,,,,,,,,11,0,140.657,141.508,z,1,0.845,,[],[],[],[],[],[],[],141.508,143.508,143.508,143.508,[],[],[],[],[],[],[],,,,143.508,143.508,0.245919478,-0.21164309,0,0,0,,0,10,10,32,1,2,RL,speniven,print,speniven_p.png,,,,
,,,,32005,001,2025-10-18_17h16.56.755,HW_LDT_1,2024.2.4,MacIntel,62.5,,,,,,,,,,,,,,,,,,,,,,143.509,143.708,143.708,144.208,,,,,,,,,,,,,,0.653,1,,,,,,,,,,,,,,m,,,,,,,,,,,,,,,,12,0,144.208,144.874,m,1,0.653,,[],[],[],[],[],[],[],144.875,146.875,146.875,146.875,[],[],[],[],[],[],[],,,,146.875,146.875,0.245919478,-0.21164309,0,0,0,,0,11,11,88,1,2,word,CAMERA,print,camera_p.png,,,,
,,,,32005,001,2025-10-18_17h16.56.755,HW_LDT_1,2024.2.4,MacIntel,62.5,,,,,,,,,,,,,,,,,,,,,,146.876,147.075,147.075,147.575,,,,,,,,,,,,,,1.128,0,,,,,,,,,,,,,,m,,,,,,,,,,,,,,,,13,0,147.575,148.707,z,0,1.128,,[],[],[],[],[],[],[],148.708,150.708,150.708,150.708,[],[],[],[],[],[],[],,,,150.708,150.708,0.245919478,-0.21164309,0,0,0,,0,12,12,85,1,2,word,BENEFIT,cursive,benefit_c.png,,,,
,,,,32005,001,2025-10-18_17h16.56.755,HW_LDT_1,2024.2.4,MacIntel,62.5,,,,,,,,,,,,,,,,,,,,,,150.709,150.907,150.907,151.408,,,,,,,,,,,,,,1.409,1,,,,,,,,,,,,,,m,,,,,,,,,,,,,,,,14,1,151.408,152.824,m,1,1.409,,[],[],[],[],[],[],[],152.824,154.824,154.825,157.091,[],[],[],[],[],[],[],z,2.254,,157.091,157.091,0.245919478,-0.21164309,0,0,0,,0,13,13,121,1,2,word,MISTAKE,cursive,mistake_c.png,,,,
,,,,32005,001,2025-10-18_17h16.56.755,HW_LDT_1,2024.2.4,MacIntel,62.5,,,,,,,,,,,,,,,,,,,,,,157.092,157.291,157.291,157.79,,,,,,,,,,,,,,0.74,1,,,,,,,,,,,,,,m,,,,,,,,,,,,,,,,15,0,157.791,158.541,m,1,0.74,,[],[],[],[],[],[],[],158.541,160.541,160.541,160.541,[],[],[],[],[],[],[],,,,160.542,160.542,0.245919478,-0.21164309,0,0,0,,0,14,14,140,1,2,word,RELATIVE,print,relative_p.png,,,,
,,,,32005,001,2025-10-18_17h16.56.755,HW_LDT_1,2024.2.4,MacIntel,62.5,,,,,,,,,,,,,,,,,,,,,,160.542,160.741,160.741,161.241,,,,,,,,,,,,,,1.354,1,,,,,,,,,,,,,,z,,,,,,,,,,,,,,,,16,0,161.241,162.608,z,1,1.354,,[],[],[],[],[],[],[],162.608,164.608,164.608,164.608,[],[],[],[],[],[],[],,,,164.608,164.608,0.245919478,-0.21164309,0,0,0,,0,15,15,24,1,2,RL,rasibal,cursive,rasibal_c.png,,,,
,,,,32005,001,2025-10-18_17h16.56.755,HW_LDT_1,2024.2.4,MacIntel,62.5,,,,,,,,,,,,,,,,,,,,,,164.609,164.808,164.808,165.308,,,,,,,,,,,,,,2.327,0,,,,,,,,,,,,,,m,,,,,,,,,,,,,,,,17,0,165.308,167.641,z,0,2.327,,[],[],[],[],[],[],[],167.641,169.641,169.641,169.642,[],[],[],[],[],[],[],,,,169.642,169.642,0.245919478,-0.21164309,0,0,0,,0,16,16,125,1,2,word,OPERATOR,cursive,operator_c.png,,,,
,,,,32005,001,2025-10-18_17h16.56.755,HW_LDT_1,2024.2.4,MacIntel,62.5,,,,,,,,,,,,,,,,,,,,,,169.642,169.841,169.841,170.34,,,,,,,,,,,,,,1.625,0,,,,,,,,,,,,,,z,,,,,,,,,,,,,,,,18,0,170.34,171.974,m,0,1.625,,[],[],[],[],[],[],[],171.974,173.974,173.974,173.974,[],[],[],[],[],[],[],,,,173.974,173.975,0.245919478,-0.21164309,0,0,0,,0,17,17,8,1,2,RL,desifate,print,desifate_p.png,,,,
,,,,32005,001,2025-10-18_17h16.56.755,HW_LDT_1,2024.2.4,MacIntel,62.5,,,,,,,,,,,,,,,,,,,,,,173.975,174.175,174.175,174.675,,,,,,,,,,,,,,0.771,1,,,,,,,,,,,,,,m,,,,,,,,,,,,,,,,19,0,174.675,175.458,m,1,0.771,,[],[],[],[],[],[],[],175.458,177.458,177.458,177.458,[],[],[],[],[],[],[],,,,177.458,177.458,0.245919478,-0.21164309,0,0,0,,0,18,18,94,1,2,word,CLINICAL,cursive,clinical_c.png,,,,
,,,,32005,001,2025-10-18_17h16.56.755,HW_LDT_1,2024.2.4,MacIntel,62.5,,,,,,,,,,,,,,,,,,,,,,177.459,177.658,177.658,178.158,,,,,,,,,,,,,,0.854,1,,,,,,,,,,,,,,m,,,,,,,,,,,,,,,,20,0,178.158,179.024,m,1,0.854,,[],[],[],[],[],[],[],179.024,181.024,181.025,181.025,[],[],[],[],[],[],[],,,,181.025,181.025,0.245919478,-0.21164309,0,0,0,,0,19,19,100,1,2,word,DECADE,print,decade_p.png,,,,
,,,,32005,001,2025-10-18_17h16.56.755,HW_LDT_1,2024.2.4,MacIntel,62.5,,,,,,,,,,,,,,,,,,,,,,181.025,181.224,181.224,181.724,,,,,,,,,,,,,,1.004,1,,,,,,,,,,,,,,z,,,,,,,,,,,,,,,,21,1,181.724,182.741,z,1,1.004,,[],[],[],[],[],[],[],182.741,184.741,184.741,186.124,[],[],[],[],[],[],[],m,1.376,,186.125,186.125,0.245919478,-0.21164309,0,0,0,,0,20,20,18,1,2,RL,mesibine,print,mesibine_p.png,,,,
,,,,32005,001,2025-10-18_17h16.56.755,HW_LDT_1,2024.2.4,MacIntel,62.5,,,,,,,,,,,,,,,,,,,,,,186.125,186.324,186.324,186.824,,,,,,,,,,,,,,6.88,1,,,,,,,,,,,,,,z,,,,,,,,,,,,,,,,22,0,186.824,193.708,z,1,6.88,,[],[],[],[],[],[],[],193.708,195.708,195.708,195.708,[],[],[],[],[],[],[],,,,195.708,195.709,0.245919478,-0.21164309,0,0,0,,0,21,21,56,1,2,TL,marnigal,cursive,marnigal_c.png,,,,
,,,,32005,001,2025-10-18_17h16.56.755,HW_LDT_1,2024.2.4,MacIntel,62.5,,,,,,,,,,,,,,,,,,,,,,195.71,195.908,195.908,196.408,,,,,,,,,,,,,,0.786,1,,,,,,,,,,,,,,m,,,,,,,,,,,,,,,,23,0,196.408,197.208,m,1,0.786,,[],[],[],[],[],[],[],197.208,199.208,199.208,199.208,[],[],[],[],[],[],[],,,,199.208,199.208,0.245919478,-0.21164309,0,0,0,,0,22,22,95,1,2,word,COMEDY,cursive,comedy_c.png,,,,
,,,,32005,001,2025-10-18_17h16.56.755,HW_LDT_1,2024.2.4,MacIntel,62.5,,,,,,,,,,,,,,,,,,,,,,199.209,199.408,199.408,199.907,,,,,,,,,,,,,,0.671,1,,,,,,,,,,,,,,m,,,,,,,,,,,,,,,,24,0,199.908,200.59,m,1,0.671,,[],[],[],[],[],[],[],200.59,202.59,202.59,202.591,[],[],[],[],[],[],[],,,,202.591,202.591,0.245919478,-0.21164309,0,0,0,,0,23,23,93,1,2,word,CEREMONY,print,ceremony_p.png,,,,
,,,,32005,001,2025-10-18_17h16.56.755,HW_LDT_1,2024.2.4,MacIntel,62.5,,,,,,,,,,,,,,,,,,,,,,202.592,202.791,202.791,203.291,,,,,,,,,,,,,,0.604,1,,,,,,,,,,,,,,m,,,,,,,,,,,,,,,,25,0,203.291,203.908,m,1,0.604,,[],[],[],[],[],[],[],203.908,205.908,205.908,205.908,[],[],[],[],[],[],[],,,,205.908,205.908,0.245919478,-0.21164309,0,0,0,,0,24,24,99,1,2,word,DEBATE,print,debate_p.png,,,,
,,,,32005,001,2025-10-18_17h16.56.755,HW_LDT_1,2024.2.4,MacIntel,62.5,,,,,,,,,,,,,,,,,,,,,,205.909,206.107,206.108,206.608,,,,,,,,,,,,,,0.571,0,,,,,,,,,,,,,,z,,,,,,,,,,,,,,,,26,0,206.608,207.191,m,0,0.571,,[],[],[],[],[],[],[],207.191,209.191,209.191,209.191,[],[],[],[],[],[],[],,,,209.191,209.192,0.245919478,-0.21164309,0,0,0,,0,25,25,72,1,2,TL,revomal,print,revomal_p.png,,,,
,,,,32005,001,2025-10-18_17h16.56.755,HW_LDT_1,2024.2.4,MacIntel,62.5,,,,,,,,,,,,,,,,,,,,,,209.192,209.391,209.391,209.891,,,,,,,,,,,,,,0.92,1,,,,,,,,,,,,,,z,,,,,,,,,,,,,,,,27,0,209.891,210.824,z,1,0.92,,[],[],[],[],[],[],[],210.824,212.824,212.824,212.824,[],[],[],[],[],[],[],,,,212.824,212.825,0.245919478,-0.21164309,0,0,0,,0,26,26,40,1,2,TL,bevoled,cursive,bevoled_c.png,,,,
,,,,32005,001,2025-10-18_17h16.56.755,HW_LDT_1,2024.2.4,MacIntel,62.5,,,,,,,,,,,,,,,,,,,,,,212.825,213.024,213.024,213.524,,,,,,,,,,,,,,0.754,1,,,,,,,,,,,,,,z,,,,,,,,,,,,,,,,28,0,213.525,214.291,z,1,0.754,,[],[],[],[],[],[],[],214.291,216.291,216.291,216.291,[],[],[],[],[],[],[],,,,216.291,216.292,0.245919478,-0.21164309,0,0,0,,0,27,27,16,1,2,RL,losipal,print,losipal_p.png,,,,
,,,,32005,001,2025-10-18_17h16.56.755,HW_LDT_1,2024.2.4,MacIntel,62.5,,,,,,,,,,,,,,,,,,,,,,216.293,216.491,216.491,216.991,,,,,,,,,,,,,,1.86,1,,,,,,,,,,,,,,z,,,,,,,,,,,,,,,,29,0,216.991,218.858,z,1,1.86,,[],[],[],[],[],[],[],218.858,220.858,220.858,220.858,[],[],[],[],[],[],[],,,,220.858,220.858,0.245919478,-0.21164309,0,0,0,,0,28,28,23,1,2,RL,procogal,cursive,procogal_c.png,,,,
,,,,32005,001,2025-10-18_17h16.56.755,HW_LDT_1,2024.2.4,MacIntel,62.5,,,,,,,,,,,,,,,,,,,,,,220.859,221.058,221.058,221.557,,,,,,,,,,,,,,2.904,1,,,,,,,,,,,,,,z,,,,,,,,,,,,,,,,30,1,221.558,224.474,z,1,2.904,,[],[],[],[],[],[],[],224.474,226.474,226.475,227.808,[],[],[],[],[],[],[],z,1.324,,227.808,227.808,0.245919478,-0.21164309,0,0,0,,0,29,29,52,1,2,TL,elarobate,cursive,elarobate_c.png,,,,
,,,,32005,001,2025-10-18_17h16.56.755,HW_LDT_1,2024.2.4,MacIntel,62.5,,,,,,,,,,,,,,,,,,,,,,227.809,228.008,228.008,228.508,,,,,,,,,,,,,,1.256,1,,,,,,,,,,,,,,m,,,,,,,,,,,,,,,,31,0,228.508,229.774,m,1,1.256,,[],[],[],[],[],[],[],229.774,231.774,231.774,231.774,[],[],[],[],[],[],[],,,,231.774,231.775,0.245919478,-0.21164309,0,0,0,,0,30,30,150,1,2,word,SENTIMENT,cursive,sentiment_c.png,,,,
,,,,32005,001,2025-10-18_17h16.56.755,HW_LDT_1,2024.2.4,MacIntel,62.5,,,,,,,,,,,,,,,,,,,,,,231.776,231.973,231.974,232.474,,,,,,,,,,,,,,0.787,1,,,,,,,,,,,,,,m,,,,,,,,,,,,,,,,32,0,232.475,233.275,m,1,0.787,,[],[],[],[],[],[],[],233.275,235.274,235.274,235.275,[],[],[],[],[],[],[],,,,235.275,235.275,0.245919478,-0.21164309,0,0,0,,0,31,31,142,1,2,word,REMOTE,cursive,remote_c.png,,,,
,,,,32005,001,2025-10-18_17h16.56.755,HW_LDT_1,2024.2.4,MacIntel,62.5,,,,,,,,,,,,,,,,,,,,,,235.275,235.474,235.474,235.974,,,,,,,,,,,,,,2.38,1,,,,,,,,,,,,,,m,,,,,,,,,,,,,,,,33,0,235.974,238.36,m,1,2.38,,[],[],[],[],[],[],[],238.36,240.357,240.358,240.358,[],[],[],[],[],[],[],,,,240.358,240.358,0.245919478,-0.21164309,0,0,0,,0,32,32,116,1,2,word,MARGINAL,cursive,marginal_c.png,,,,
,,,,32005,001,2025-10-18_17h16.56.755,HW_LDT_1,2024.2.4,MacIntel,62.5,,,,,,,,,,,,,,,,,,,,,,240.359,240.557,240.557,241.057,,,,,,,,,,,,,,0.737,1,,,,,,,,,,,,,,m,,,,,,,,,,,,,,,,34,0,241.058,241.808,m,1,0.737,,[],[],[],[],[],[],[],241.808,243.808,243.808,243.808,[],[],[],[],[],[],[],,,,243.808,243.808,0.245919478,-0.21164309,0,0,0,,0,33,33,80,1,2,word,ACADEMY,cursive,academy_c.png,,,,
,,,,32005,001,2025-10-18_17h16.56.755,HW_LDT_1,2024.2.4,MacIntel,62.5,,,,,,,,,,,,,,,,,,,,,,243.809,244.007,244.007,244.507,,,,,,,,,,,,,,1.537,1,,,,,,,,,,,,,,z,,,,,,,,,,,,,,,,35,0,244.508,246.058,z,1,1.537,,[],[],[],[],[],[],[],246.058,248.058,248.058,248.058,[],[],[],[],[],[],[],,,,248.058,248.058,0.245919478,-0.21164309,0,0,0,,0,34,34,46,1,2,TL,codemy,cursive,codemy_c.png,,,,
,,,,32005,001,2025-10-18_17h16.56.755,HW_LDT_1,2024.2.4,MacIntel,62.5,,,,,,,,,,,,,,,,,,,,,,248.059,248.257,248.257,248.757,,,,,,,,,,,,,,1.171,1,,,,,,,,,,,,,,z,,,,,,,,,,,,,,,,36,0,248.758,249.94,z,1,1.171,,[],[],[],[],[],[],[],249.94,251.941,251.941,251.941,[],[],[],[],[],[],[],,,,251.941,251.941,0.245919478,-0.21164309,0,0,0,,0,35,35,21,1,2,RL,pamest,print,pamest_p.png,,,,
,,,,32005,001,2025-10-18_17h16.56.755,HW_LDT_1,2024.2.4,MacIntel,62.5,,,,,,,,,,,,,,,,,,,,,,251.942,252.14,252.14,252.641,,,,,,,,,,,,,,2.84,1,,,,,,,,,,,,,,z,,,,,,,,,,,,,,,,37,0,252.641,255.491,z,1,2.84,,[],[],[],[],[],[],[],255.491,257.491,257.491,257.491,[],[],[],[],[],[],[],,,,257.491,257.491,0.245919478,-0.21164309,0,0,0,,0,36,36,58,1,2,TL,mitilary,cursive,mitilary_c.png,,,,
,,,,32005,001,2025-10-18_17h16.56.755,HW_LDT_1,2024.2.4,MacIntel,62.5,,,,,,,,,,,,,,,,,,,,,,257.492,257.691,257.691,258.191,,,,,,,,,,,,,,0.825,1,,,,,,,,,,,,,,m,,,,,,,,,,,,,,,,38,0,258.191,259.024,m,1,0.825,,[],[],[],[],[],[],[],259.024,261.024,261.024,261.024,[],[],[],[],[],[],[],,,,261.024,261.024,0.245919478,-0.21164309,0,0,0,,0,37,37,148,1,2,word,SALINE,cursive,saline_c.png,,,,
,,,,32005,001,2025-10-18_17h16.56.755,HW_LDT_1,2024.2.4,MacIntel,62.5,,,,,,,,,,,,,,,,,,,,,,261.025,261.224,261.224,261.724,,,,,,,,,,,,,,1.605,0,,,,,,,,,,,,,,z,,,,,,,,,,,,,,,,39,0,261.724,263.341,m,0,1.605,,[],[],[],[],[],[],[],263.341,265.341,265.341,265.341,[],[],[],[],[],[],[],,,,265.341,265.341,0.245919478,-0.21164309,0,0,0,,0,38,38,76,1,2,TL,senmitent,cursive,senmitent_c.png,,,,
,,,,32005,001,2025-10-18_17h16.56.755,HW_LDT_1,2024.2.4,MacIntel,62.5,,,,,,,,,,,,,,,,,,,,,,265.342,265.541,265.541,266.041,,,,,,,,,,,,,,2.074,1,,,,,,,,,,,,,,m,,,,,,,,,,,,,,,,40,1,266.041,268.124,m,1,2.074,,[],[],[],[],[],[],[],268.124,270.124,270.124,271.891,[],[],[],[],[],[],[],m,1.755,,271.891,271.891,0.245919478,-0.21164309,0,0,0,,0,39,39,157,1,2,word,VALIDITY,print,validity_p.png,,,,
,,,,32005,001,2025-10-18_17h16.56.755,HW_LDT_1,2024.2.4,MacIntel,62.5,,,,,,,,,,,,,,,,,,,,,,271.892,272.091,272.091,272.591,,,,,,,,,,,,,,2.753,1,,,,,,,,,,,,,,z,,,,,,,,,,,,,,,,41,0,272.591,275.358,z,1,2.753,,[],[],[],[],[],[],[],275.358,277.357,277.357,277.357,[],[],[],[],[],[],[],,,,277.357,277.357,0.245919478,-0.21164309,0,0,0,,0,40,40,19,1,2,RL,monebate,cursive,monebate_c.png,,,,
,,,,32005,001,2025-10-18_17h16.56.755,HW_LDT_1,2024.2.4,MacIntel,62.5,,,,,,,,,,,,,,,,,,,,,,277.358,277.557,277.557,278.057,,,,,,,,,,,,,,1.444,1,,,,,,,,,,,,,,z,,,,,,,,,,,,,,,,42,0,278.058,279.507,z,1,1.444,,[],[],[],[],[],[],[],279.507,281.507,281.507,281.508,[],[],[],[],[],[],[],,,,281.508,281.508,0.245919478,-0.21164309,0,0,0,,0,41,41,60,1,2,TL,molibe,print,molibe_p.png,,,,
,,,,32005,001,2025-10-18_17h16.56.755,HW_LDT_1,2024.2.4,MacIntel,62.5,,,,,,,,,,,,,,,,,,,,,,281.508,281.707,281.707,282.207,,,,,,,,,,,,,,2.88,0,,,,,,,,,,,,,,m,,,,,,,,,,,,,,,,43,0,282.208,285.091,z,0,2.88,,[],[],[],[],[],[],[],285.091,287.091,287.091,287.091,[],[],[],[],[],[],[],,,,287.091,287.091,0.245919478,-0.21164309,0,0,0,,0,42,42,117,1,2,word,MARINE,cursive,marine_c.png,,,,
,,,,32005,001,2025-10-18_17h16.56.755,HW_LDT_1,2024.2.4,MacIntel,62.5,,,,,,,,,,,,,,,,,,,,,,287.092,287.291,287.291,287.79,,,,,,,,,,,,,,1.954,1,,,,,,,,,,,,,,z,,,,,,,,,,,,,,,,44,0,287.79,289.757,z,1,1.954,,[],[],[],[],[],[],[],289.758,291.757,291.757,291.758,[],[],[],[],[],[],[],,,,291.758,291.758,0.245919478,-0.21164309,0,0,0,,0,43,43,33,1,2,RL,strapely,cursive,strapely_c.png,,,,
,,,,32005,001,2025-10-18_17h16.56.755,HW_LDT_1,2024.2.4,MacIntel,62.5,,,,,,,,,,,,,,,,,,,,,,291.759,291.957,291.957,292.457,,,,,,,,,,,,,,0.942,1,,,,,,,,,,,,,,z,,,,,,,,,,,,,,,,45,1,292.458,293.407,z,1,0.942,,[],[],[],[],[],[],[],293.407,295.407,295.407,296.491,[],[],[],[],[],[],[],z,1.072,,296.491,296.491,0.245919478,-0.21164309,0,0,0,,0,44,44,41,1,2,TL,befenit,cursive,befenit_c.png,,,,
,,,,32005,001,2025-10-18_17h16.56.755,HW_LDT_1,2024.2.4,MacIntel,62.5,,,,,,,,,,,,,,,,,,,,,,296.492,296.691,296.691,297.191,,,,,,,,,,,,,,1.321,0,,,,,,,,,,,,,,z,,,,,,,,,,,,,,,,46,1,297.191,298.524,m,0,1.321,,[],[],[],[],[],[],[],298.524,300.524,300.524,302.34,[],[],[],[],[],[],[],z,1.804,,302.341,302.341,0.245919478,-0.21164309,0,0,0,,0,45,45,59,1,2,TL,miskate,cursive,miskate_c.png,,,,
,,,,32005,001,2025-10-18_17h16.56.755,HW_LDT_1,2024.2.4,MacIntel,62.5,,,,,,,,,,,,,,,,,,,,,,302.341,302.541,302.541,303.04,,,,,,,,,,,,,,1.028,1,,,,,,,,,,,,,,z,,,,,,,,,,,,,,,,47,0,303.041,304.074,z,1,1.028,,[],[],[],[],[],[],[],304.074,306.074,306.074,306.074,[],[],[],[],[],[],[],,,,306.074,306.074,0.245919478,-0.21164309,0,0,0,,0,46,46,22,1,2,RL,posity,print,posity_p.png,,,,
,,,,32005,001,2025-10-18_17h16.56.755,HW_LDT_1,2024.2.4,MacIntel,62.5,,,,,,,,,,,,,,,,,,,,,,306.075,306.274,306.274,306.774,,,,,,,,,,,,,,0.704,1,,,,,,,,,,,,,,m,,,,,,,,,,,,,,,,48,1,306.774,307.49,m,1,0.704,,[],[],[],[],[],[],[],307.49,309.491,309.491,310.391,[],[],[],[],[],[],[],m,0.89,,310.391,310.391,0.245919478,-0.21164309,0,0,0,,0,47,47,137,1,2,word,RAPIDLY,print,rapidly_p.png,,,,
,,,,32005,001,2025-10-18_17h16.56.755,HW_LDT_1,2024.2.4,MacIntel,62.5,,,,,,,,,,,,,,,,,,,,,,310.392,310.591,310.591,311.091,,,,,,,,,,,,,,0.923,0,,,,,,,,,,,,,,z,,,,,,,,,,,,,,,,49,0,311.091,312.024,m,0,0.923,,[],[],[],[],[],[],[],312.024,314.024,314.024,314.024,[],[],[],[],[],[],[],,,,314.024,314.024,0.245919478,-0.21164309,0,0,0,,0,48,48,47,1,2,TL,crinimal,cursive,crinimal_c.png,,,,
,,,,32005,001,2025-10-18_17h16.56.755,HW_LDT_1,2024.2.4,MacIntel,62.5,,,,,,,,,,,,,,,,,,,,,,314.025,314.224,314.224,314.724,,,,,,,,,,,,,,1.07,0,,,,,,,,,,,,,,m,,,,,,,,,,,,,,,,50,0,314.724,315.807,z,0,1.07,,[],[],[],[],[],[],[],315.807,317.807,317.807,317.807,[],[],[],[],[],[],[],,,,317.807,317.807,0.245919478,-0.21164309,0,0,0,,0,49,49,139,1,2,word,REGULAR,cursive,regular_c.png,,,,
,,,,32005,001,2025-10-18_17h16.56.755,HW_LDT_1,2024.2.4,MacIntel,62.5,,,,,,,,,,,,,,,,,,,,,,317.808,318.007,318.007,318.507,,,,,,,,,,,,,,1.221,1,,,,,,,,,,,,,,z,,,,,,,,,,,,,,,,51,1,318.507,319.741,z,1,1.221,,[],[],[],[],[],[],[],319.741,321.741,321.741,323.108,[],[],[],[],[],[],[],m,1.354,,323.108,323.108,0.245919478,-0.21164309,0,0,0,,0,50,50,9,1,2,RL,denficy,print,denficy_p.png,,,,
,,,,32005,001,2025-10-18_17h16.56.755,HW_LDT_1,2024.2.4,MacIntel,62.5,,,,,,,,,,,,,,,,,,,,,,323.109,323.307,323.307,323.807,,,,,,,,,,,,,,1.219,1,,,,,,,,,,,,,,m,,,,,,,,,,,,,,,,52,0,323.808,325.041,m,1,1.219,,[],[],[],[],[],[],[],325.041,327.04,327.04,327.04,[],[],[],[],[],[],[],,,,327.04,327.041,0.245919478,-0.21164309,0,0,0,,0,51,51,112,1,2,word,LIBERAL,print,liberal_p.png,,,,
,,,,32005,001,2025-10-18_17h16.56.755,HW_LDT_1,2024.2.4,MacIntel,62.5,,,,,,,,,,,,,,,,,,,,,,327.041,327.241,327.241,327.741,,,,,,,,,,,,,,0.87,1,,,,,,,,,,,,,,m,,,,,,,,,,,,,,,,53,0,327.741,328.624,m,1,0.87,,[],[],[],[],[],[],[],328.624,330.624,330.624,330.624,[],[],[],[],[],[],[],,,,330.624,330.624,0.245919478,-0.21164309,0,0,0,,0,52,52,149,1,2,word,SENATOR,print,senator_p.png,,,,
,,,,32005,001,2025-10-18_17h16.56.755,HW_LDT_1,2024.2.4,MacIntel,62.5,,,,,,,,,,,,,,,,,,,,,,330.625,330.824,330.824,331.324,,,,,,,,,,,,,,0.842,1,,,,,,,,,,,,,,z,,,,,,,,,,,,,,,,54,0,331.324,332.174,z,1,0.842,,[],[],[],[],[],[],[],332.174,334.173,334.173,334.173,[],[],[],[],[],[],[],,,,334.174,334.174,0.245919478,-0.21164309,0,0,0,,0,53,53,11,1,2,RL,formuke,print,formuke_p.png,,,,
,,,,32005,001,2025-10-18_17h16.56.755,HW_LDT_1,2024.2.4,MacIntel,62.5,,,,,,,,,,,,,,,,,,,,,,334.175,334.373,334.373,334.874,,,,,,,,,,,,,,1.075,1,,,,,,,,,,,,,,z,,,,,,,,,,,,,,,,55,0,334.874,335.957,z,1,1.075,,[],[],[],[],[],[],[],335.957,337.957,337.957,337.957,[],[],[],[],[],[],[],,,,337.957,337.957,0.245919478,-0.21164309,0,0,0,,0,54,54,14,1,2,RL,insibate,cursive,insibate_c.png,,,,
,,,,32005,001,2025-10-18_17h16.56.755,HW_LDT_1,2024.2.4,MacIntel,62.5,,,,,,,,,,,,,,,,,,,,,,337.958,338.157,338.157,338.657,,,,,,,,,,,,,,0.745,1,,,,,,,,,,,,,,m,,,,,,,,,,,,,,,,56,0,338.658,339.408,m,1,0.745,,[],[],[],[],[],[],[],339.409,341.406,341.406,341.407,[],[],[],[],[],[],[],,,,341.407,341.407,0.245919478,-0.21164309,0,0,0,,0,55,55,84,1,2,word,BELOVED,cursive,beloved_c.png,,,,
,,,,32005,001,2025-10-18_17h16.56.755,HW_LDT_1,2024.2.4,MacIntel,62.5,,,,,,,,,,,,,,,,,,,,,,341.408,341.607,341.607,342.107,,,,,,,,,,,,,,0.614,1,,,,,,,,,,,,,,m,,,,,,,,,,,,,,,,57,0,342.107,342.727,m,1,0.614,,[],[],[],[],[],[],[],342.727,344.724,344.724,344.724,[],[],[],[],[],[],[],,,,344.724,344.724,0.245919478,-0.21164309,0,0,0,,0,56,56,131,1,2,word,POPULAR,cursive,popular_c.png,,,,
,,,,32005,001,2025-10-18_17h16.56.755,HW_LDT_1,2024.2.4,MacIntel,62.5,,,,,,,,,,,,,,,,,,,,,,344.725,344.924,344.924,345.424,,,,,,,,,,,,,,1.344,1,,,,,,,,,,,,,,m,,,,,,,,,,,,,,,,58,0,345.424,346.775,m,1,1.344,,[],[],[],[],[],[],[],346.775,348.774,348.774,348.774,[],[],[],[],[],[],[],,,,348.774,348.774,0.245919478,-0.21164309,0,0,0,,0,57,57,111,1,2,word,INDICATE,cursive,indicate_c.png,,,,
,,,,32005,001,2025-10-18_17h16.56.755,HW_LDT_1,2024.2.4,MacIntel,62.5,,,,,,,,,,,,,,,,,,,,,,348.775,348.974,348.974,349.474,,,,,,,,,,,,,,0.845,1,,,,,,,,,,,,,,z,,,,,,,,,,,,,,,,59,0,349.474,350.324,z,1,0.845,,[],[],[],[],[],[],[],350.324,352.324,352.324,352.324,[],[],[],[],[],[],[],,,,352.324,352.324,0.245919478,-0.21164309,0,0,0,,0,58,58,35,1,2,RL,vesofity,print,vesofity_p.png,,,,
,,,,32005,001,2025-10-18_17h16.56.755,HW_LDT_1,2024.2.4,MacIntel,62.5,,,,,,,,,,,,,,,,,,,,,,352.325,352.524,352.524,353.024,,,,,,,,,,,,,,0.903,1,,,,,,,,,,,,,,m,,,,,,,,,,,,,,,,60,0,353.024,353.94,m,1,0.903,,[],[],[],[],[],[],[],353.94,355.941,355.941,355.941,[],[],[],[],[],[],[],,,,355.941,355.941,0.245919478,-0.21164309,0,0,0,,0,59,59,152,1,2,word,SPECIMEN,print,specimen_p.png,,,,
,,,,32005,001,2025-10-18_17h16.56.755,HW_LDT_1,2024.2.4,MacIntel,62.5,,,,,,,,,,,,,,,,,,,,,,355.942,356.14,356.141,356.64,,,,,,,,,,,,,,0.578,1,,,,,,,,,,,,,,m,,,,,,,,,,,,,,,,61,0,356.64,357.226,m,1,0.578,,[],[],[],[],[],[],[],357.226,359.224,359.224,359.224,[],[],[],[],[],[],[],,,,359.224,359.224,0.245919478,-0.21164309,0,0,0,,0,60,60,118,1,2,word,MEDICINE,print,medicine_p.png,,,,
,,,,32005,001,2025-10-18_17h16.56.755,HW_LDT_1,2024.2.4,MacIntel,62.5,,,,,,,,,,,,,,,,,,,,,,359.225,359.424,359.424,359.924,,,,,,,,,,,,,,0.988,1,,,,,,,,,,,,,,z,,,,,,,,,,,,,,,,62,0,359.924,360.924,z,1,0.988,,[],[],[],[],[],[],[],360.924,362.923,362.923,362.924,[],[],[],[],[],[],[],,,,362.924,362.924,0.245919478,-0.21164309,0,0,0,,0,61,61,78,1,2,TL,stogare,print,stogare_p.png,,,,
,,,,32005,001,2025-10-18_17h16.56.755,HW_LDT_1,2024.2.4,MacIntel,62.5,,,,,,,,,,,,,,,,,,,,,,362.924,363.124,363.124,363.624,,,,,,,,,,,,,,0.821,1,,,,,,,,,,,,,,z,,,,,,,,,,,,,,,,63,0,363.624,364.457,z,1,0.821,,[],[],[],[],[],[],[],364.457,366.457,366.457,366.457,[],[],[],[],[],[],[],,,,366.457,366.457,0.245919478,-0.21164309,0,0,0,,0,62,62,67,1,2,TL,quafily,cursive,quafily_c.png,,,,
,,,,32005,001,2025-10-18_17h16.56.755,HW_LDT_1,2024.2.4,MacIntel,62.5,,,,,,,,,,,,,,,,,,,,,,366.458,366.657,366.657,367.157,,,,,,,,,,,,,,1.341,0,,,,,,,,,,,,,,m,,,,,,,,,,,,,,,,64,0,367.157,368.507,z,0,1.341,,[],[],[],[],[],[],[],368.507,370.507,370.507,370.508,[],[],[],[],[],[],[],,,,370.508,370.508,0.245919478,-0.21164309,0,0,0,,0,63,63,123,1,2,word,MODERATE,cursive,moderate_c.png,,,,
,,,,32005,001,2025-10-18_17h16.56.755,HW_LDT_1,2024.2.4,MacIntel,62.5,,,,,,,,,,,,,,,,,,,,,,370.509,370.707,370.707,371.207,,,,,,,,,,,,,,1.074,1,,,,,,,,,,,,,,z,,,,,,,,,,,,,,,,65,0,371.207,372.29,z,1,1.074,,[],[],[],[],[],[],[],372.29,374.29,374.29,374.29,[],[],[],[],[],[],[],,,,374.29,374.29,0.245919478,-0.21164309,0,0,0,,0,64,64,49,1,2,TL,dedace,print,dedace_p.png,,,,
,,,,32005,001,2025-10-18_17h16.56.755,HW_LDT_1,2024.2.4,MacIntel,62.5,,,,,,,,,,,,,,,,,,,,,,374.291,374.49,374.49,374.99,,,,,,,,,,,,,,0.655,1,,,,,,,,,,,,,,m,,,,,,,,,,,,,,,,66,0,374.991,375.657,m,1,0.655,,[],[],[],[],[],[],[],375.657,377.657,377.657,377.657,[],[],[],[],[],[],[],,,,377.657,377.658,0.245919478,-0.21164309,0,0,0,,0,65,65,143,1,2,word,REMOVAL,print,removal_p.png,,,,
,,,,32005,001,2025-10-18_17h16.56.755,HW_LDT_1,2024.2.4,MacIntel,62.5,,,,,,,,,,,,,,,,,,,,,,377.659,377.857,377.857,378.357,,,,,,,,,,,,,,1.122,1,,,,,,,,,,,,,,z,,,,,,,,,,,,,,,,67,0,378.358,379.491,z,1,1.122,,[],[],[],[],[],[],[],379.491,381.49,381.49,381.491,[],[],[],[],[],[],[],,,,381.491,381.491,0.245919478,-0.21164309,0,0,0,,0,66,66,51,1,2,TL,etidor,cursive,etidor_c.png,,,,
,,,,32005,001,2025-10-18_17h16.56.755,HW_LDT_1,2024.2.4,MacIntel,62.5,,,,,,,,,,,,,,,,,,,,,,381.491,381.69,381.69,382.189,,,,,,,,,,,,,,0.547,0,,,,,,,,,,,,,,z,,,,,,,,,,,,,,,,68,1,382.19,382.742,m,0,0.547,,[],[],[],[],[],[],[],382.742,384.74,384.74,386.507,[],[],[],[],[],[],[],m,1.758,,386.507,386.507,0.245919478,-0.21164309,0,0,0,,0,67,67,63,1,2,TL,orinigal,print,orinigal_p.png,,,,
,,,,32005,001,2025-10-18_17h16.56.755,HW_LDT_1,2024.2.4,MacIntel,62.5,,,,,,,,,,,,,,,,,,,,,,386.508,386.707,386.707,387.207,,,,,,,,,,,,,,1.303,0,,,,,,,,,,,,,,m,,,,,,,,,,,,,,,,69,0,387.207,388.524,z,0,1.303,,[],[],[],[],[],[],[],388.524,390.524,390.524,390.524,[],[],[],[],[],[],[],,,,390.524,390.524,0.245919478,-0.21164309,0,0,0,,0,68,68,90,1,2,word,CAPITAL,cursive,capital_c.png,,,,
,,,,32005,001,2025-10-18_17h16.56.755,HW_LDT_1,2024.2.4,MacIntel,62.5,,,,,,,,,,,,,,,,,,,,,,390.525,390.724,390.724,391.224,,,,,,,,,,,,,,0.626,1,,,,,,,,,,,,,,m,,,,,,,,,,,,,,,,70,0,391.224,391.857,m,1,0.626,,[],[],[],[],[],[],[],391.857,393.857,393.857,393.857,[],[],[],[],[],[],[],,,,393.857,393.857,0.245919478,-0.21164309,0,0,0,,0,69,69,147,1,2,word,ROMANTIC,print,romantic_p.png,,,,
,,,,32005,001,2025-10-18_17h16.56.755,HW_LDT_1,2024.2.4,MacIntel,62.5,,,,,,,,,,,,,,,,,,,,,,393.858,394.057,394.057,394.557,,,,,,,,,,,,,,0.94,1,,,,,,,,,,,,,,z,,,,,,,,,,,,,,,,71,0,394.557,395.507,z,1,0.94,,[],[],[],[],[],[],[],395.507,397.507,397.507,397.507,[],[],[],[],[],[],[],,,,397.507,397.507,0.245919478,-0.21164309,0,0,0,,0,70,70,15,1,2,RL,linedal,print,linedal_p.png,,,,
,,,,32005,001,2025-10-18_17h16.56.755,HW_LDT_1,2024.2.4,MacIntel,62.5,,,,,,,,,,,,,,,,,,,,,,397.508,397.707,397.707,398.207,,,,,,,,,,,,,,0.945,0,,,,,,,,,,,,,,m,,,,,,,,,,,,,,,,72,0,398.207,399.157,z,0,0.945,,[],[],[],[],[],[],[],399.157,401.157,401.157,401.157,[],[],[],[],[],[],[],,,,401.157,401.157,0.245919478,-0.21164309,0,0,0,,0,71,71,105,1,2,word,EDITOR,cursive,editor_c.png,,,,
,,,,32005,001,2025-10-18_17h16.56.755,HW_LDT_1,2024.2.4,MacIntel,62.5,,,,,,,,,,,,,,,,,,,,,,401.158,401.357,401.357,401.857,,,,,,,,,,,,,,0.553,1,,,,,,,,,,,,,,m,,,,,,,,,,,,,,,,73,0,401.858,402.424,m,1,0.553,,[],[],[],[],[],[],[],402.424,404.424,404.424,404.424,[],[],[],[],[],[],[],,,,404.424,404.424,0.245919478,-0.21164309,0,0,0,,0,72,72,151,1,2,word,SPECIFIC,print,specific_p.png,,,,
,,,,32005,001,2025-10-18_17h16.56.755,HW_LDT_1,2024.2.4,MacIntel,62.5,,,,,,,,,,,,,,,,,,,,,,404.425,404.624,404.624,405.123,,,,,,,,,,,,,,0.71,1,,,,,,,,,,,,,,m,,,,,,,,,,,,,,,,74,0,405.123,405.84,m,1,0.71,,[],[],[],[],[],[],[],405.84,407.84,407.84,407.84,[],[],[],[],[],[],[],,,,407.84,407.84,0.245919478,-0.21164309,0,0,0,,0,73,73,101,1,2,word,DELICATE,print,delicate_p.png,,,,
,,,,32005,001,2025-10-18_17h16.56.755,HW_LDT_1,2024.2.4,MacIntel,62.5,,,,,,,,,,,,,,,,,,,,,,407.841,408.04,408.04,408.54,,,,,,,,,,,,,,0.97,1,,,,,,,,,,,,,,z,,,,,,,,,,,,,,,,75,0,408.541,409.524,z,1,0.97,,[],[],[],[],[],[],[],409.524,411.523,411.523,411.523,[],[],[],[],[],[],[],,,,411.523,411.523,0.245919478,-0.21164309,0,0,0,,0,74,74,25,1,2,RL,rabigly,print,rabigly_p.png,,,,
,,,,32005,001,2025-10-18_17h16.56.755,HW_LDT_1,2024.2.4,MacIntel,62.5,,,,,,,,,,,,,,,,,,,,,,411.524,411.724,411.724,412.224,,,,,,,,,,,,,,0.721,1,,,,,,,,,,,,,,z,,,,,,,,,,,,,,,,76,0,412.224,412.957,z,1,0.721,,[],[],[],[],[],[],[],412.957,414.957,414.957,414.957,[],[],[],[],[],[],[],,,,414.957,414.957,0.245919478,-0.21164309,0,0,0,,0,75,75,3,1,2,RL,capefory,print,capefory_p.png,,,,
,,,,32005,001,2025-10-18_17h16.56.755,HW_LDT_1,2024.2.4,MacIntel,62.5,,,,,,,,,,,,,,,,,,,,,,414.958,415.157,415.157,415.657,,,,,,,,,,,,,,2.12,1,,,,,,,,,,,,,,z,,,,,,,,,,,,,,,,77,0,415.657,417.791,z,1,2.12,,[],[],[],[],[],[],[],417.791,419.789,419.789,419.79,[],[],[],[],[],[],[],,,,419.79,419.79,0.245919478,-0.21164309,0,0,0,,0,76,76,10,1,2,RL,disluge,cursive,disluge_c.png,,,,
,,,,32005,001,2025-10-18_17h16.56.755,HW_LDT_1,2024.2.4,MacIntel,62.5,,,,,,,,,,,,,,,,,,,,,,419.791,419.99,419.99,420.49,,,,,,,,,,,,,,0.717,1,,,,,,,,,,,,,,m,,,,,,,,,,,,,,,,78,0,420.49,421.208,m,1,0.717,,[],[],[],[],[],[],[],421.208,423.207,423.207,423.207,[],[],[],[],[],[],[],,,,423.207,423.207,0.245919478,-0.21164309,0,0,0,,0,77,77,127,1,2,word,ORIGINAL,print,original_p.png,,,,
,,,,32005,001,2025-10-18_17h16.56.755,HW_LDT_1,2024.2.4,MacIntel,62.5,,,,,,,,,,,,,,,,,,,,,,423.208,423.407,423.407,423.906,,,,,,,,,,,,,,1.959,1,,,,,,,,,,,,,,z,,,,,,,,,,,,,,,,79,0,423.906,425.873,z,1,1.959,,[],[],[],[],[],[],[],425.873,427.873,427.873,427.874,[],[],[],[],[],[],[],,,,427.874,427.874,0.245919478,-0.21164309,0,0,0,,0,78,78,44,1,2,TL,catipal,cursive,catipal_c.png,,,,
,,,,32005,001,2025-10-18_17h16.56.755,HW_LDT_1,2024.2.4,MacIntel,62.5,,,,,,,,,,,,,,,,,,,,,,427.874,428.074,428.074,428.573,,,,,,,,,,,,,,1.921,1,,,,,,,,,,,,,,z,,,,,,,,,,,,,,,,80,0,428.574,430.507,z,1,1.921,,[],[],[],[],[],[],[],430.507,432.507,432.507,432.507,[],[],[],[],[],[],[],,,,432.507,531.24,0.149075082,-0.301958651,0,0,0,space,0,79,79,66,1,2,TL,prodive,cursive,prodive_c.png,98.707,,,
,,,,32005,001,2025-10-18_17h16.56.755,HW_LDT_1,2024.2.4,MacIntel,62.5,,,,,,,,,,,,,,,,,,,,,,531.242,531.44,531.44,531.94,,,,,,,,,,,,,,0.886,1,,,,,,,,,,,,,,z,,,,,,,,,,,,,,,,81,0,531.941,532.84,z,1,0.886,,[],[],[],[],[],[],[],532.84,534.84,534.84,534.84,[],[],[],[],[],[],[],,,,534.84,534.84,0.149075082,-0.301958651,0,0,0,,0,80,80,4,1,2,RL,cenesony,print,cenesony_p.png,,,,
,,,,32005,001,2025-10-18_17h16.56.755,HW_LDT_1,2024.2.4,MacIntel,62.5,,,,,,,,,,,,,,,,,,,,,,534.842,535.04,535.04,535.539,,,,,,,,,,,,,,2.021,0,,,,,,,,,,,,,,z,,,,,,,,,,,,,,,,82,0,535.54,537.573,m,0,2.021,,[],[],[],[],[],[],[],537.573,539.573,539.573,539.573,[],[],[],[],[],[],[],,,,539.574,539.574,0.149075082,-0.301958651,0,0,0,,0,81,81,28,1,2,RL,revune,cursive,revune_c.png,,,,
,,,,32005,001,2025-10-18_17h16.56.755,HW_LDT_1,2024.2.4,MacIntel,62.5,,,,,,,,,,,,,,,,,,,,,,539.574,539.773,539.773,540.273,,,,,,,,,,,,,,0.921,1,,,,,,,,,,,,,,z,,,,,,,,,,,,,,,,83,0,540.273,541.207,z,1,0.921,,[],[],[],[],[],[],[],541.207,543.206,543.207,543.207,[],[],[],[],[],[],[],,,,543.207,543.207,0.149075082,-0.301958651,0,0,0,,0,82,82,48,1,2,TL,detabe,print,detabe_p.png,,,,
,,,,32005,001,2025-10-18_17h16.56.755,HW_LDT_1,2024.2.4,MacIntel,62.5,,,,,,,,,,,,,,,,,,,,,,543.208,543.406,543.406,543.906,,,,,,,,,,,,,,1.039,1,,,,,,,,,,,,,,m,,,,,,,,,,,,,,,,84,0,543.907,544.957,m,1,1.039,,[],[],[],[],[],[],[],544.957,546.956,546.957,546.957,[],[],[],[],[],[],[],,,,546.957,546.957,0.149075082,-0.301958651,0,0,0,,0,83,83,128,1,2,word,PACIFIC,print,pacific_p.png,,,,
,,,,32005,001,2025-10-18_17h16.56.755,HW_LDT_1,2024.2.4,MacIntel,62.5,,,,,,,,,,,,,,,,,,,,,,546.957,547.156,547.156,547.657,,,,,,,,,,,,,,0.837,0,,,,,,,,,,,,,,m,,,,,,,,,,,,,,,,85,0,547.657,548.507,z,0,0.837,,[],[],[],[],[],[],[],548.507,550.506,550.506,550.506,[],[],[],[],[],[],[],,,,550.506,550.506,0.149075082,-0.301958651,0,0,0,,0,84,84,134,1,2,word,QUALIFY,cursive,qualify_c.png,,,,
,,,,32005,001,2025-10-18_17h16.56.755,HW_LDT_1,2024.2.4,MacIntel,62.5,,,,,,,,,,,,,,,,,,,,,,550.507,550.706,550.706,551.206,,,,,,,,,,,,,,0.704,1,,,,,,,,,,,,,,m,,,,,,,,,,,,,,,,86,0,551.207,551.923,m,1,0.704,,[],[],[],[],[],[],[],551.923,553.923,553.923,553.923,[],[],[],[],[],[],[],,,,553.924,553.924,0.149075082,-0.301958651,0,0,0,,0,85,85,141,1,2,word,RELIGION,cursive,religion_c.png,,,,
,,,,32005,001,2025-10-18_17h16.56.755,HW_LDT_1,2024.2.4,MacIntel,62.5,,,,,,,,,,,,,,,,,,,,,,553.924,554.122,554.122,554.623,,,,,,,,,,,,,,1.996,1,,,,,,,,,,,,,,z,,,,,,,,,,,,,,,,87,0,554.623,556.623,z,1,1.996,,[],[],[],[],[],[],[],556.623,558.623,558.623,558.623,[],[],[],[],[],[],[],,,,558.623,558.623,0.149075082,-0.301958651,0,0,0,,0,86,86,53,1,2,TL,edivent,cursive,edivent_c.png,,,,
,,,,32005,001,2025-10-18_17h16.56.755,HW_LDT_1,2024.2.4,MacIntel,62.5,,,,,,,,,,,,,,,,,,,,,,558.624,558.823,558.823,559.323,,,,,,,,,,,,,,0.677,1,,,,,,,,,,,,,,z,,,,,,,,,,,,,,,,88,0,559.323,560.007,z,1,0.677,,[],[],[],[],[],[],[],560.007,562.006,562.006,562.007,[],[],[],[],[],[],[],,,,562.007,562.007,0.149075082,-0.301958651,0,0,0,,0,87,87,55,1,2,TL,lotace,print,lotace_p.png,,,,
,,,,32005,001,2025-10-18_17h16.56.755,HW_LDT_1,2024.2.4,MacIntel,62.5,,,,,,,,,,,,,,,,,,,,,,562.008,562.206,562.206,562.706,,,,,,,,,,,,,,1.38,1,,,,,,,,,,,,,,m,,,,,,,,,,,,,,,,89,0,562.707,564.092,m,1,1.38,,[],[],[],[],[],[],[],564.092,566.09,566.09,566.09,[],[],[],[],[],[],[],,,,566.09,566.09,0.149075082,-0.301958651,0,0,0,,0,88,88,133,1,2,word,PROVIDE,cursive,provide_c.png,,,,
,,,,32005,001,2025-10-18_17h16.56.755,HW_LDT_1,2024.2.4,MacIntel,62.5,,,,,,,,,,,,,,,,,,,,,,566.091,566.29,566.29,566.789,,,,,,,,,,,,,,1.421,0,,,,,,,,,,,,,,z,,,,,,,,,,,,,,,,90,0,566.79,568.223,m,0,1.421,,[],[],[],[],[],[],[],568.223,570.223,570.223,570.223,[],[],[],[],[],[],[],,,,570.223,570.223,0.149075082,-0.301958651,0,0,0,,0,89,89,61,1,2,TL,nuremical,cursive,nuremical_c.png,,,,
,,,,32005,001,2025-10-18_17h16.56.755,HW_LDT_1,2024.2.4,MacIntel,62.5,,,,,,,,,,,,,,,,,,,,,,570.224,570.423,570.423,570.923,,,,,,,,,,,,,,0.689,1,,,,,,,,,,,,,,m,,,,,,,,,,,,,,,,91,0,570.923,571.623,m,1,0.689,,[],[],[],[],[],[],[],571.623,573.623,573.623,573.623,[],[],[],[],[],[],[],,,,573.623,573.623,0.149075082,-0.301958651,0,0,0,,0,90,90,81,1,2,word,ADVISORY,print,advisory_p.png,,,,
,,,,32005,001,2025-10-18_17h16.56.755,HW_LDT_1,2024.2.4,MacIntel,62.5,,,,,,,,,,,,,,,,,,,,,,573.624,573.823,573.823,574.323,,,,,,,,,,,,,,0.66,1,,,,,,,,,,,,,,m,,,,,,,,,,,,,,,,92,0,574.323,574.99,m,1,0.66,,[],[],[],[],[],[],[],574.99,576.989,576.989,576.99,[],[],[],[],[],[],[],,,,576.99,576.99,0.149075082,-0.301958651,0,0,0,,0,91,91,122,1,2,word,MOBILE,print,mobile_p.png,,,,
,,,,32005,001,2025-10-18_17h16.56.755,HW_LDT_1,2024.2.4,MacIntel,62.5,,,,,,,,,,,,,,,,,,,,,,576.991,577.19,577.19,577.69,,,,,,,,,,,,,,0.883,1,,,,,,,,,,,,,,z,,,,,,,,,,,,,,,,93,1,577.69,578.574,z,1,0.883,,[],[],[],[],[],[],[],578.574,580.573,580.573,582.023,[],[],[],[],[],[],[],z,1.438,,582.023,582.023,0.149075082,-0.301958651,0,0,0,,0,92,92,34,1,2,RL,trilude,cursive,trilude_c.png,,,,
,,,,32005,001,2025-10-18_17h16.56.755,HW_LDT_1,2024.2.4,MacIntel,62.5,,,,,,,,,,,,,,,,,,,,,,582.024,582.223,582.223,582.723,,,,,,,,,,,,,,0.725,1,,,,,,,,,,,,,,m,,,,,,,,,,,,,,,,94,0,582.723,583.456,m,1,0.725,,[],[],[],[],[],[],[],583.457,585.456,585.456,585.456,[],[],[],[],[],[],[],,,,585.457,585.457,0.149075082,-0.301958651,0,0,0,,0,93,93,96,1,2,word,CONSIDER,print,consider_p.png,,,,
,,,,32005,001,2025-10-18_17h16.56.755,HW_LDT_1,2024.2.4,MacIntel,62.5,,,,,,,,,,,,,,,,,,,,,,585.457,585.656,585.656,586.157,,,,,,,,,,,,,,1.392,1,,,,,,,,,,,,,,z,,,,,,,,,,,,,,,,95,1,586.157,587.556,z,1,1.392,,[],[],[],[],[],[],[],587.556,589.556,589.557,591.006,[],[],[],[],[],[],[],z,1.443,,591.007,591.007,0.149075082,-0.301958651,0,0,0,,0,94,94,27,1,2,RL,repifion,cursive,repifion_c.png,,,,
,,,,32005,001,2025-10-18_17h16.56.755,HW_LDT_1,2024.2.4,MacIntel,62.5,,,,,,,,,,,,,,,,,,,,,,591.008,591.206,591.206,591.706,,,,,,,,,,,,,,4.441,1,,,,,,,,,,,,,,z,,,,,,,,,,,,,,,,96,0,591.707,596.156,z,1,4.441,,[],[],[],[],[],[],[],596.156,598.156,598.156,598.157,[],[],[],[],[],[],[],,,,598.157,598.157,0.149075082,-0.301958651,0,0,0,,0,95,95,57,1,2,TL,meromy,cursive,meromy_c.png,,,,
,,,,32005,001,2025-10-18_17h16.56.755,HW_LDT_1,2024.2.4,MacIntel,62.5,,,,,,,,,,,,,,,,,,,,,,598.157,598.356,598.356,598.856,,,,,,,,,,,,,,0.637,1,,,,,,,,,,,,,,m,,,,,,,,,,,,,,,,97,0,598.856,599.506,m,1,0.637,,[],[],[],[],[],[],[],599.507,601.506,601.506,601.506,[],[],[],[],[],[],[],,,,601.506,601.506,0.149075082,-0.301958651,0,0,0,,0,96,96,92,1,2,word,CATEGORY,print,category_p.png,,,,
,,,,32005,001,2025-10-18_17h16.56.755,HW_LDT_1,2024.2.4,MacIntel,62.5,,,,,,,,,,,,,,,,,,,,,,601.507,601.706,601.706,602.206,,,,,,,,,,,,,,0.937,1,,,,,,,,,,,,,,z,,,,,,,,,,,,,,,,98,0,602.207,603.156,z,1,0.937,,[],[],[],[],[],[],[],603.157,605.156,605.156,605.157,[],[],[],[],[],[],[],,,,605.157,605.157,0.149075082,-0.301958651,0,0,0,,0,97,97,43,1,2,TL,carema,print,carema_p.png,,,,
,,,,32005,001,2025-10-18_17h16.56.755,HW_LDT_1,2024.2.4,MacIntel,62.5,,,,,,,,,,,,,,,,,,,,,,605.157,605.356,605.356,605.856,,,,,,,,,,,,,,1.271,1,,,,,,,,,,,,,,m,,,,,,,,,,,,,,,,99,1,605.857,607.14,m,1,1.271,,[],[],[],[],[],[],[],607.14,609.14,609.14,610.256,[],[],[],[],[],[],[],z,1.104,,610.256,610.256,0.149075082,-0.301958651,0,0,0,,0,98,98,109,1,2,word,GRATEFUL,cursive,grateful_c.png,,,,
,,,,32005,001,2025-10-18_17h16.56.755,HW_LDT_1,2024.2.4,MacIntel,62.5,,,,,,,,,,,,,,,,,,,,,,610.257,610.456,610.456,610.955,,,,,,,,,,,,,,1.538,1,,,,,,,,,,,,,,m,,,,,,,,,,,,,,,,100,1,610.956,612.506,m,1,1.538,,[],[],[],[],[],[],[],612.506,614.506,614.506,615.206,[],[],[],[],[],[],[],z,0.688,,615.206,615.206,0.149075082,-0.301958651,0,0,0,,0,99,99,107,1,2,word,EVIDENT,cursive,evident_c.png,,,,
,,,,32005,001,2025-10-18_17h16.56.755,HW_LDT_1,2024.2.4,MacIntel,62.5,,,,,,,,,,,,,,,,,,,,,,615.207,615.406,615.406,615.905,,,,,,,,,,,,,,0.921,1,,,,,,,,,,,,,,m,,,,,,,,,,,,,,,,101,0,615.906,616.84,m,1,0.921,,[],[],[],[],[],[],[],616.84,618.839,618.84,618.84,[],[],[],[],[],[],[],,,,618.84,618.84,0.149075082,-0.301958651,0,0,0,,0,100,100,83,1,2,word,ANIMAL,print,animal_p.png,,,,
,,,,32005,001,2025-10-18_17h16.56.755,HW_LDT_1,2024.2.4,MacIntel,62.5,,,,,,,,,,,,,,,,,,,,,,618.841,619.04,619.04,619.54,,,,,,,,,,,,,,1.259,1,,,,,,,,,,,,,,m,,,,,,,,,,,,,,,,102,0,619.54,620.806,m,1,1.259,,[],[],[],[],[],[],[],620.806,622.806,622.806,622.807,[],[],[],[],[],[],[],,,,622.807,622.807,0.149075082,-0.301958651,0,0,0,,0,101,101,82,1,2,word,AMATEUR,cursive,amateur_c.png,,,,
,,,,32005,001,2025-10-18_17h16.56.755,HW_LDT_1,2024.2.4,MacIntel,62.5,,,,,,,,,,,,,,,,,,,,,,622.807,623.006,623.006,623.506,,,,,,,,,,,,,,0.737,1,,,,,,,,,,,,,,m,,,,,,,,,,,,,,,,103,1,623.506,624.256,m,1,0.737,,[],[],[],[],[],[],[],624.256,626.256,626.256,628.222,[],[],[],[],[],[],[],m,1.958,,628.222,628.222,0.149075082,-0.301958651,0,0,0,,0,102,102,154,1,2,word,STORAGE,print,storage_p.png,,,,
,,,,32005,001,2025-10-18_17h16.56.755,HW_LDT_1,2024.2.4,MacIntel,62.5,,,,,,,,,,,,,,,,,,,,,,628.223,628.422,628.423,628.922,,,,,,,,,,,,,,0.947,1,,,,,,,,,,,,,,m,,,,,,,,,,,,,,,,104,0,628.922,629.875,m,1,0.947,,[],[],[],[],[],[],[],629.875,631.873,631.873,631.873,[],[],[],[],[],[],[],,,,631.873,631.874,0.149075082,-0.301958651,0,0,0,,0,103,103,104,1,2,word,DOMINANT,print,dominant_p.png,,,,
,,,,32005,001,2025-10-18_17h16.56.755,HW_LDT_1,2024.2.4,MacIntel,62.5,,,,,,,,,,,,,,,,,,,,,,631.874,632.073,632.073,632.573,,,,,,,,,,,,,,0.92,1,,,,,,,,,,,,,,z,,,,,,,,,,,,,,,,105,0,632.573,633.506,z,1,0.92,,[],[],[],[],[],[],[],633.506,635.506,635.506,635.506,[],[],[],[],[],[],[],,,,635.506,635.506,0.149075082,-0.301958651,0,0,0,,0,104,104,75,1,2,TL,ronamtic,print,ronamtic_p.png,,,,
,,,,32005,001,2025-10-18_17h16.56.755,HW_LDT_1,2024.2.4,MacIntel,62.5,,,,,,,,,,,,,,,,,,,,,,635.507,635.706,635.706,636.206,,,,,,,,,,,,,,0.987,1,,,,,,,,,,,,,,z,,,,,,,,,,,,,,,,106,0,636.206,637.205,z,1,0.987,,[],[],[],[],[],[],[],637.206,639.206,639.206,639.207,[],[],[],[],[],[],[],,,,639.207,639.207,0.149075082,-0.301958651,0,0,0,,0,105,105,36,1,2,RL,vecelan,print,vecelan_p.png,,,,
,,,,32005,001,2025-10-18_17h16.56.755,HW_LDT_1,2024.2.4,MacIntel,62.5,,,,,,,,,,,,,,,,,,,,,,639.208,639.406,639.406,639.906,,,,,,,,,,,,,,6.921,1,,,,,,,,,,,,,,z,,,,,,,,,,,,,,,,107,0,639.906,646.839,z,1,6.921,,[],[],[],[],[],[],[],646.839,648.839,648.84,648.84,[],[],[],[],[],[],[],,,,648.84,648.84,0.149075082,-0.301958651,0,0,0,,0,106,106,68,1,2,TL,quatily,cursive,quatily_c.png,,,,
,,,,32005,001,2025-10-18_17h16.56.755,HW_LDT_1,2024.2.4,MacIntel,62.5,,,,,,,,,,,,,,,,,,,,,,648.84,649.039,649.04,649.538,,,,,,,,,,,,,,0.948,1,,,,,,,,,,,,,,m,,,,,,,,,,,,,,,,108,1,649.539,650.491,m,1,0.948,,[],[],[],[],[],[],[],650.491,652.489,652.489,653.573,[],[],[],[],[],[],[],z,1.07,,653.573,653.573,0.149075082,-0.301958651,0,0,0,,0,107,107,86,1,2,word,BESIDE,cursive,beside_c.png,,,,
,,,,32005,001,2025-10-18_17h16.56.755,HW_LDT_1,2024.2.4,MacIntel,62.5,,,,,,,,,,,,,,,,,,,,,,653.573,653.773,653.773,654.272,,,,,,,,,,,,,,1.18,1,,,,,,,,,,,,,,m,,,,,,,,,,,,,,,,109,0,654.273,655.458,m,1,1.18,,[],[],[],[],[],[],[],655.458,657.456,657.456,657.456,[],[],[],[],[],[],[],,,,657.456,657.456,0.149075082,-0.301958651,0,0,0,,0,108,108,159,1,2,word,VETERAN,print,veteran_p.png,,,,
,,,,32005,001,2025-10-18_17h16.56.755,HW_LDT_1,2024.2.4,MacIntel,62.5,,,,,,,,,,,,,,,,,,,,,,657.457,657.655,657.655,658.156,,,,,,,,,,,,,,1.487,1,,,,,,,,,,,,,,z,,,,,,,,,,,,,,,,110,0,658.156,659.656,z,1,1.487,,[],[],[],[],[],[],[],659.656,661.655,661.655,661.656,[],[],[],[],[],[],[],,,,661.656,661.656,0.149075082,-0.301958651,0,0,0,,0,109,109,79,1,2,TL,vadility,print,vadility_p.png,,,,
,,,,32005,001,2025-10-18_17h16.56.755,HW_LDT_1,2024.2.4,MacIntel,62.5,,,,,,,,,,,,,,,,,,,,,,661.657,661.856,661.856,662.356,,,,,,,,,,,,,,0.987,1,,,,,,,,,,,,,,m,,,,,,,,,,,,,,,,111,0,662.356,663.356,m,1,0.987,,[],[],[],[],[],[],[],663.356,665.356,665.356,665.356,[],[],[],[],[],[],[],,,,665.356,665.356,0.149075082,-0.301958651,0,0,0,,0,110,110,136,1,2,word,RADICAL,cursive,radical_c.png,,,,
,,,,32005,001,2025-10-18_17h16.56.755,HW_LDT_1,2024.2.4,MacIntel,62.5,,,,,,,,,,,,,,,,,,,,,,665.357,665.556,665.556,666.055,,,,,,,,,,,,,,0.871,1,,,,,,,,,,,,,,m,,,,,,,,,,,,,,,,112,0,666.055,666.939,m,1,0.871,,[],[],[],[],[],[],[],666.939,668.939,668.939,668.939,[],[],[],[],[],[],[],,,,668.939,668.939,0.149075082,-0.301958651,0,0,0,,0,111,111,87,1,2,word,CAFETERIA,print,cafeteria_p.png,,,,
,,,,32005,001,2025-10-18_17h16.56.755,HW_LDT_1,2024.2.4,MacIntel,62.5,,,,,,,,,,,,,,,,,,,,,,668.94,669.139,669.139,669.639,,,,,,,,,,,,,,1.04,0,,,,,,,,,,,,,,m,,,,,,,,,,,,,,,,113,0,669.64,670.69,z,0,1.04,,[],[],[],[],[],[],[],670.69,672.689,672.689,672.69,[],[],[],[],[],[],[],,,,672.69,672.69,0.149075082,-0.301958651,0,0,0,,0,112,112,106,1,2,word,ELABORATE,cursive,elaborate_c.png,,,,
,,,,32005,001,2025-10-18_17h16.56.755,HW_LDT_1,2024.2.4,MacIntel,62.5,,,,,,,,,,,,,,,,,,,,,,672.691,672.888,672.888,673.389,,,,,,,,,,,,,,1.892,1,,,,,,,,,,,,,,z,,,,,,,,,,,,,,,,114,1,673.39,675.289,z,1,1.892,,[],[],[],[],[],[],[],675.289,677.29,677.29,678.406,[],[],[],[],[],[],[],z,1.11,,678.407,678.407,0.149075082,-0.301958651,0,0,0,,0,113,113,45,1,2,TL,carnidal,cursive,carnidal_c.png,,,,
,,,,32005,001,2025-10-18_17h16.56.755,HW_LDT_1,2024.2.4,MacIntel,62.5,,,,,,,,,,,,,,,,,,,,,,678.409,678.606,678.606,679.106,,,,,,,,,,,,,,2.637,1,,,,,,,,,,,,,,m,,,,,,,,,,,,,,,,115,0,679.106,681.756,m,1,2.637,,[],[],[],[],[],[],[],681.756,683.756,683.756,683.756,[],[],[],[],[],[],[],,,,683.756,683.756,0.149075082,-0.301958651,0,0,0,,0,114,114,156,1,2,word,TRIBUTE,cursive,tribute_c.png,,,,
,,,,32005,001,2025-10-18_17h16.56.755,HW_LDT_1,2024.2.4,MacIntel,62.5,,,,,,,,,,,,,,,,,,,,,,683.757,683.956,683.956,684.456,,,,,,,,,,,,,,1.32,1,,,,,,,,,,,,,,z,,,,,,,,,,,,,,,,116,0,684.456,685.789,z,1,1.32,,[],[],[],[],[],[],[],685.79,687.789,687.789,687.79,[],[],[],[],[],[],[],,,,687.79,687.79,0.149075082,-0.301958651,0,0,0,,0,115,115,26,1,2,RL,retupar,cursive,retupar_c.png,,,,
,,,,32005,001,2025-10-18_17h16.56.755,HW_LDT_1,2024.2.4,MacIntel,62.5,,,,,,,,,,,,,,,,,,,,,,687.79,687.989,687.989,688.489,,,,,,,,,,,,,,1.113,1,,,,,,,,,,,,,,z,,,,,,,,,,,,,,,,117,0,688.489,689.605,z,1,1.113,,[],[],[],[],[],[],[],689.606,691.605,691.605,691.606,[],[],[],[],[],[],[],,,,691.606,691.606,0.149075082,-0.301958651,0,0,0,,0,116,116,71,1,2,TL,retome,cursive,retome_c.png,,,,
,,,,32005,001,2025-10-18_17h16.56.755,HW_LDT_1,2024.2.4,MacIntel,62.5,,,,,,,,,,,,,,,,,,,,,,691.607,691.806,691.806,692.306,,,,,,,,,,,,,,1.296,1,,,,,,,,,,,,,,z,,,,,,,,,,,,,,,,118,0,692.306,693.606,z,1,1.296,,[],[],[],[],[],[],[],693.606,695.605,695.605,695.605,[],[],[],[],[],[],[],,,,695.606,695.606,0.149075082,-0.301958651,0,0,0,,0,117,117,50,1,2,TL,donimant,print,donimant_p.png,,,,
,,,,32005,001,2025-10-18_17h16.56.755,HW_LDT_1,2024.2.4,MacIntel,62.5,,,,,,,,,,,,,,,,,,,,,,695.607,695.806,695.806,696.305,,,,,,,,,,,,,,0.921,1,,,,,,,,,,,,,,z,,,,,,,,,,,,,,,,119,0,696.306,697.239,z,1,0.921,,[],[],[],[],[],[],[],697.24,699.239,699.239,699.239,[],[],[],[],[],[],[],,,,699.239,699.239,0.149075082,-0.301958651,0,0,0,,0,118,118,73,1,2,TL,redisent,print,redisent_p.png,,,,
,,,,32005,001,2025-10-18_17h16.56.755,HW_LDT_1,2024.2.4,MacIntel,62.5,,,,,,,,,,,,,,,,,,,,,,699.24,699.439,699.439,699.939,,,,,,,,,,,,,,0.96,1,,,,,,,,,,,,,,m,,,,,,,,,,,,,,,,120,1,699.94,700.906,m,1,0.96,,[],[],[],[],[],[],[],700.906,702.906,702.906,703.722,[],[],[],[],[],[],[],z,0.807,,703.722,703.722,0.149075082,-0.301958651,0,0,0,,0,119,119,97,1,2,word,COVERAGE,cursive,coverage_c.png,,,,
,,,,32005,001,2025-10-18_17h16.56.755,HW_LDT_1,2024.2.4,MacIntel,62.5,,,,,,,,,,,,,,,,,,,,,,703.723,703.922,703.922,704.422,,,,,,,,,,,,,,5.886,1,,,,,,,,,,,,,,z,,,,,,,,,,,,,,,,121,0,704.422,710.322,z,1,5.886,,[],[],[],[],[],[],[],710.322,712.322,712.322,712.322,[],[],[],[],[],[],[],,,,712.322,712.323,0.149075082,-0.301958651,0,0,0,,0,120,120,74,1,2,TL,rerite,cursive,rerite_c.png,,,,
,,,,32005,001,2025-10-18_17h16.56.755,HW_LDT_1,2024.2.4,MacIntel,62.5,,,,,,,,,,,,,,,,,,,,,,712.324,712.523,712.523,713.023,,,,,,,,,,,,,,1.906,1,,,,,,,,,,,,,,z,,,,,,,,,,,,,,,,122,0,713.023,714.939,z,1,1.906,,[],[],[],[],[],[],[],714.939,716.938,716.939,716.939,[],[],[],[],[],[],[],,,,716.939,716.939,0.149075082,-0.301958651,0,0,0,,0,121,121,70,1,2,TL,retalive,print,retalive_p.png,,,,
,,,,32005,001,2025-10-18_17h16.56.755,HW_LDT_1,2024.2.4,MacIntel,62.5,,,,,,,,,,,,,,,,,,,,,,716.94,717.139,717.139,717.639,,,,,,,,,,,,,,0.789,1,,,,,,,,,,,,,,m,,,,,,,,,,,,,,,,123,0,717.639,718.439,m,1,0.789,,[],[],[],[],[],[],[],718.439,720.439,720.439,720.44,[],[],[],[],[],[],[],,,,720.44,720.44,0.149075082,-0.301958651,0,0,0,,0,122,122,153,1,2,word,STOLEN,print,stolen_p.png,,,,
,,,,32005,001,2025-10-18_17h16.56.755,HW_LDT_1,2024.2.4,MacIntel,62.5,,,,,,,,,,,,,,,,,,,,,,720.44,720.639,720.639,721.139,,,,,,,,,,,,,,2.888,1,,,,,,,,,,,,,,m,,,,,,,,,,,,,,,,124,1,721.14,724.039,m,1,2.888,,[],[],[],[],[],[],[],724.039,726.039,726.039,727.006,[],[],[],[],[],[],[],z,0.955,,727.006,727.006,0.149075082,-0.301958651,0,0,0,,0,123,123,146,1,2,word,RETIRE,cursive,retire_c.png,,,,
,,,,32005,001,2025-10-18_17h16.56.755,HW_LDT_1,2024.2.4,MacIntel,62.5,,,,,,,,,,,,,,,,,,,,,,727.007,727.206,727.206,727.706,,,,,,,,,,,,,,1.838,0,,,,,,,,,,,,,,m,,,,,,,,,,,,,,,,125,0,727.706,729.556,z,0,1.838,,[],[],[],[],[],[],[],729.556,731.556,731.556,731.556,[],[],[],[],[],[],[],,,,731.556,731.556,0.149075082,-0.301958651,0,0,0,,0,124,124,113,1,2,word,LITERAL,cursive,literal_c.png,,,,
,,,,32005,001,2025-10-18_17h16.56.755,HW_LDT_1,2024.2.4,MacIntel,62.5,,,,,,,,,,,,,,,,,,,,,,731.557,731.756,731.756,732.256,,,,,,,,,,,,,,1.988,1,,,,,,,,,,,,,,z,,,,,,,,,,,,,,,,126,0,732.256,734.255,z,1,1.988,,[],[],[],[],[],[],[],734.256,736.256,736.256,736.256,[],[],[],[],[],[],[],,,,736.256,736.256,0.149075082,-0.301958651,0,0,0,,0,125,125,62,1,2,TL,opmital,cursive,opmital_c.png,,,,
,,,,32005,001,2025-10-18_17h16.56.755,HW_LDT_1,2024.2.4,MacIntel,62.5,,,,,,,,,,,,,,,,,,,,,,736.257,736.456,736.456,736.955,,,,,,,,,,,,,,2.544,1,,,,,,,,,,,,,,m,,,,,,,,,,,,,,,,127,0,736.956,739.507,m,1,2.544,,[],[],[],[],[],[],[],739.508,741.506,741.506,741.506,[],[],[],[],[],[],[],,,,741.506,741.506,0.149075082,-0.301958651,0,0,0,,0,126,126,91,1,2,word,CARDINAL,cursive,cardinal_c.png,,,,
,,,,32005,001,2025-10-18_17h16.56.755,HW_LDT_1,2024.2.4,MacIntel,62.5,,,,,,,,,,,,,,,,,,,,,,741.507,741.706,741.706,742.206,,,,,,,,,,,,,,0.913,1,,,,,,,,,,,,,,z,,,,,,,,,,,,,,,,128,0,742.206,743.122,z,1,0.913,,[],[],[],[],[],[],[],743.122,745.122,745.122,745.122,[],[],[],[],[],[],[],,,,745.122,745.122,0.149075082,-0.301958651,0,0,0,,0,127,127,20,1,2,RL,onegator,cursive,onegator_c.png,,,,
,,,,32005,001,2025-10-18_17h16.56.755,HW_LDT_1,2024.2.4,MacIntel,62.5,,,,,,,,,,,,,,,,,,,,,,745.123,745.322,745.323,745.823,,,,,,,,,,,,,,1.571,1,,,,,,,,,,,,,,z,,,,,,,,,,,,,,,,129,0,745.823,747.406,z,1,1.571,,[],[],[],[],[],[],[],747.406,749.405,749.405,749.405,[],[],[],[],[],[],[],,,,749.406,749.406,0.149075082,-0.301958651,0,0,0,,0,128,128,5,1,2,RL,clisimal,cursive,clisimal_c.png,,,,
,,,,32005,001,2025-10-18_17h16.56.755,HW_LDT_1,2024.2.4,MacIntel,62.5,,,,,,,,,,,,,,,,,,,,,,749.407,749.606,749.606,750.106,,,,,,,,,,,,,,0.705,1,,,,,,,,,,,,,,m,,,,,,,,,,,,,,,,130,0,750.106,750.822,m,1,0.705,,[],[],[],[],[],[],[],750.822,752.822,752.823,752.823,[],[],[],[],[],[],[],,,,752.823,752.823,0.149075082,-0.301958651,0,0,0,,0,129,129,130,1,2,word,POLICY,print,policy_p.png,,,,
,,,,32005,001,2025-10-18_17h16.56.755,HW_LDT_1,2024.2.4,MacIntel,62.5,,,,,,,,,,,,,,,,,,,,,,752.824,753.022,753.023,753.522,,,,,,,,,,,,,,0.76,1,,,,,,,,,,,,,,z,,,,,,,,,,,,,,,,131,0,753.523,754.289,z,1,0.76,,[],[],[],[],[],[],[],754.289,756.288,756.288,756.288,[],[],[],[],[],[],[],,,,756.288,756.289,0.149075082,-0.301958651,0,0,0,,0,130,130,31,1,2,RL,spetisic,print,spetisic_p.png,,,,
,,,,32005,001,2025-10-18_17h16.56.755,HW_LDT_1,2024.2.4,MacIntel,62.5,,,,,,,,,,,,,,,,,,,,,,756.29,756.489,756.489,756.989,,,,,,,,,,,,,,0.727,1,,,,,,,,,,,,,,z,,,,,,,,,,,,,,,,132,0,756.989,757.722,z,1,0.727,,[],[],[],[],[],[],[],757.723,759.722,759.722,759.723,[],[],[],[],[],[],[],,,,759.723,759.723,0.149075082,-0.301958651,0,0,0,,0,131,131,6,1,2,RL,conbicer,print,conbicer_p.png,,,,
,,,,32005,001,2025-10-18_17h16.56.755,HW_LDT_1,2024.2.4,MacIntel,62.5,,,,,,,,,,,,,,,,,,,,,,759.723,759.922,759.922,760.422,,,,,,,,,,,,,,0.76,1,,,,,,,,,,,,,,z,,,,,,,,,,,,,,,,133,0,760.423,761.189,z,1,0.76,,[],[],[],[],[],[],[],761.189,763.189,763.189,763.189,[],[],[],[],[],[],[],,,,763.189,763.189,0.149075082,-0.301958651,0,0,0,,0,132,132,13,1,2,RL,helicage,print,helicage_p.png,,,,
,,,,32005,001,2025-10-18_17h16.56.755,HW_LDT_1,2024.2.4,MacIntel,62.5,,,,,,,,,,,,,,,,,,,,,,763.19,763.389,763.389,763.889,,,,,,,,,,,,,,0.88,1,,,,,,,,,,,,,,m,,,,,,,,,,,,,,,,134,0,763.889,764.775,m,1,0.88,,[],[],[],[],[],[],[],764.775,766.772,766.772,766.773,[],[],[],[],[],[],[],,,,766.773,766.773,0.149075082,-0.301958651,0,0,0,,0,133,133,110,1,2,word,HERITAGE,print,heritage_p.png,,,,
,,,,32005,001,2025-10-18_17h16.56.755,HW_LDT_1,2024.2.4,MacIntel,62.5,,,,,,,,,,,,,,,,,,,,,,766.774,766.972,766.972,767.472,,,,,,,,,,,,,,0.654,1,,,,,,,,,,,,,,z,,,,,,,,,,,,,,,,135,0,767.473,768.139,z,1,0.654,,[],[],[],[],[],[],[],768.139,770.139,770.139,770.139,[],[],[],[],[],[],[],,,,770.139,770.139,0.149075082,-0.301958651,0,0,0,,0,134,134,12,1,2,RL,gralekul,cursive,gralekul_c.png,,,,
,,,,32005,001,2025-10-18_17h16.56.755,HW_LDT_1,2024.2.4,MacIntel,62.5,,,,,,,,,,,,,,,,,,,,,,770.14,770.338,770.338,770.839,,,,,,,,,,,,,,0.657,1,,,,,,,,,,,,,,z,,,,,,,,,,,,,,,,136,0,770.839,771.506,z,1,0.657,,[],[],[],[],[],[],[],771.506,773.506,773.506,773.506,[],[],[],[],[],[],[],,,,773.506,773.506,0.149075082,-0.301958651,0,0,0,,0,135,135,65,1,2,TL,polupar,cursive,polupar_c.png,,,,
,,,,32005,001,2025-10-18_17h16.56.755,HW_LDT_1,2024.2.4,MacIntel,62.5,,,,,,,,,,,,,,,,,,,,,,773.507,773.706,773.706,774.205,,,,,,,,,,,,,,0.871,1,,,,,,,,,,,,,,m,,,,,,,,,,,,,,,,137,0,774.205,775.089,m,1,0.871,,[],[],[],[],[],[],[],775.089,777.088,777.088,777.089,[],[],[],[],[],[],[],,,,777.089,777.089,0.149075082,-0.301958651,0,0,0,,0,136,136,129,1,2,word,PARENT,print,parent_p.png,,,,
,,,,32005,001,2025-10-18_17h16.56.755,HW_LDT_1,2024.2.4,MacIntel,62.5,,,,,,,,,,,,,,,,,,,,,,777.09,777.288,777.288,777.789,,,,,,,,,,,,,,0.672,1,,,,,,,,,,,,,,z,,,,,,,,,,,,,,,,138,0,777.789,778.472,z,1,0.672,,[],[],[],[],[],[],[],778.472,780.471,780.471,780.472,[],[],[],[],[],[],[],,,,780.472,780.472,0.149075082,-0.301958651,0,0,0,,0,137,137,2,1,2,RL,casagity,print,casagity_p.png,,,,
,,,,32005,001,2025-10-18_17h16.56.755,HW_LDT_1,2024.2.4,MacIntel,62.5,,,,,,,,,,,,,,,,,,,,,,780.473,780.672,780.672,781.172,,,,,,,,,,,,,,0.837,1,,,,,,,,,,,,,,z,,,,,,,,,,,,,,,,139,0,781.172,782.022,z,1,0.837,,[],[],[],[],[],[],[],782.022,784.022,784.022,784.023,[],[],[],[],[],[],[],,,,784.023,784.023,0.149075082,-0.301958651,0,0,0,,0,138,138,39,1,2,TL,aminal,print,aminal_p.png,,,,
,,,,32005,001,2025-10-18_17h16.56.755,HW_LDT_1,2024.2.4,MacIntel,62.5,,,,,,,,,,,,,,,,,,,,,,784.023,784.222,784.223,784.722,,,,,,,,,,,,,,1.91,1,,,,,,,,,,,,,,m,,,,,,,,,,,,,,,,140,1,784.723,786.639,m,1,1.91,,[],[],[],[],[],[],[],786.639,788.639,788.639,789.673,[],[],[],[],[],[],[],z,1.021,,789.673,789.673,0.149075082,-0.301958651,0,0,0,,0,139,139,155,1,2,word,STRATEGY,cursive,strategy_c.png,,,,
,,,,32005,001,2025-10-18_17h16.56.755,HW_LDT_1,2024.2.4,MacIntel,62.5,,,,,,,,,,,,,,,,,,,,,,789.674,789.872,789.872,790.372,,,,,,,,,,,,,,1.01,1,,,,,,,,,,,,,,z,,,,,,,,,,,,,,,,141,0,790.373,791.389,z,1,1.01,,[],[],[],[],[],[],[],791.389,793.389,793.389,793.389,[],[],[],[],[],[],[],,,,793.389,793.389,0.149075082,-0.301958651,0,0,0,,0,140,140,29,1,2,RL,samite,cursive,samite_c.png,,,,
,,,,32005,001,2025-10-18_17h16.56.755,HW_LDT_1,2024.2.4,MacIntel,62.5,,,,,,,,,,,,,,,,,,,,,,793.39,793.589,793.589,794.088,,,,,,,,,,,,,,0.68,1,,,,,,,,,,,,,,m,,,,,,,,,,,,,,,,142,0,794.089,794.774,m,1,0.68,,[],[],[],[],[],[],[],794.775,796.772,796.772,796.773,[],[],[],[],[],[],[],,,,796.773,796.773,0.149075082,-0.301958651,0,0,0,,0,141,141,89,1,2,word,CAPACITY,print,capacity_p.png,,,,
,,,,32005,001,2025-10-18_17h16.56.755,HW_LDT_1,2024.2.4,MacIntel,62.5,,,,,,,,,,,,,,,,,,,,,,796.774,796.972,796.972,797.472,,,,,,,,,,,,,,0.737,1,,,,,,,,,,,,,,m,,,,,,,,,,,,,,,,143,0,797.473,798.222,m,1,0.737,,[],[],[],[],[],[],[],798.222,800.222,800.222,800.223,[],[],[],[],[],[],[],,,,800.223,800.223,0.149075082,-0.301958651,0,0,0,,0,142,142,158,1,2,word,VELOCITY,print,velocity_p.png,,,,
,,,,32005,001,2025-10-18_17h16.56.755,HW_LDT_1,2024.2.4,MacIntel,62.5,,,,,,,,,,,,,,,,,,,,,,800.224,800.422,800.422,800.922,,,,,,,,,,,,,,1.353,1,,,,,,,,,,,,,,z,,,,,,,,,,,,,,,,144,0,800.922,802.288,z,1,1.353,,[],[],[],[],[],[],[],802.289,804.288,804.288,804.289,[],[],[],[],[],[],[],,,,804.289,804.289,0.149075082,-0.301958651,0,0,0,,0,143,143,54,1,2,TL,liretal,cursive,liretal_c.png,,,,
,,,,32005,001,2025-10-18_17h16.56.755,HW_LDT_1,2024.2.4,MacIntel,62.5,,,,,,,,,,,,,,,,,,,,,,804.29,804.489,804.489,804.989,,,,,,,,,,,,,,1.537,1,,,,,,,,,,,,,,z,,,,,,,,,,,,,,,,145,0,804.989,806.539,z,1,1.537,,[],[],[],[],[],[],[],806.539,808.538,808.539,808.539,[],[],[],[],[],[],[],,,,808.539,808.539,0.149075082,-0.301958651,0,0,0,,0,144,144,17,1,2,RL,macise,cursive,macise_c.png,,,,
,,,,32005,001,2025-10-18_17h16.56.755,HW_LDT_1,2024.2.4,MacIntel,62.5,,,,,,,,,,,,,,,,,,,,,,808.54,808.739,808.739,809.239,,,,,,,,,,,,,,0.854,1,,,,,,,,,,,,,,m,,,,,,,,,,,,,,,,146,0,809.239,810.105,m,1,0.854,,[],[],[],[],[],[],[],810.105,812.106,812.106,812.106,[],[],[],[],[],[],[],,,,812.106,812.106,0.149075082,-0.301958651,0,0,0,,0,145,145,132,1,2,word,PROPOSAL,cursive,proposal_c.png,,,,
,,,,32005,001,2025-10-18_17h16.56.755,HW_LDT_1,2024.2.4,MacIntel,62.5,,,,,,,,,,,,,,,,,,,,,,812.106,812.306,812.306,812.806,,,,,,,,,,,,,,1.025,1,,,,,,,,,,,,,,m,,,,,,,,,,,,,,,,147,1,812.806,813.839,m,1,1.025,,[],[],[],[],[],[],[],813.839,815.839,815.839,817.088,[],[],[],[],[],[],[],z,1.237,,817.089,817.089,0.149075082,-0.301958651,0,0,0,,0,146,146,124,1,2,word,NUMERICAL,cursive,numerical_c.png,,,,
,,,,32005,001,2025-10-18_17h16.56.755,HW_LDT_1,2024.2.4,MacIntel,62.5,,,,,,,,,,,,,,,,,,,,,,817.09,817.289,817.289,817.789,,,,,,,,,,,,,,2.346,0,,,,,,,,,,,,,,m,,,,,,,,,,,,,,,,148,0,817.789,820.139,z,0,2.346,,[],[],[],[],[],[],[],820.139,822.139,822.139,822.139,[],[],[],[],[],[],[],,,,822.139,822.139,0.149075082,-0.301958651,0,0,0,,0,147,147,120,1,2,word,MILITARY,cursive,military_c.png,,,,
,,,,32005,001,2025-10-18_17h16.56.755,HW_LDT_1,2024.2.4,MacIntel,62.5,,,,,,,,,,,,,,,,,,,,,,822.14,822.339,822.339,822.839,,,,,,,,,,,,,,0.724,1,,,,,,,,,,,,,,z,,,,,,,,,,,,,,,,149,0,822.839,823.572,z,1,0.724,,[],[],[],[],[],[],[],823.572,825.572,825.572,825.572,[],[],[],[],[],[],[],,,,825.572,825.572,0.149075082,-0.301958651,0,0,0,,0,148,148,0,1,2,RL,adnicory,print,adnicory_p.png,,,,
,,,,32005,001,2025-10-18_17h16.56.755,HW_LDT_1,2024.2.4,MacIntel,62.5,,,,,,,,,,,,,,,,,,,,,,825.573,825.772,825.772,826.272,,,,,,,,,,,,,,0.922,0,,,,,,,,,,,,,,m,,,,,,,,,,,,,,,,150,1,826.273,827.206,z,0,0.922,,[],[],[],[],[],[],[],827.206,829.205,829.205,830.105,[],[],[],[],[],[],[],z,0.894,,830.106,830.106,0.149075082,-0.301958651,0,0,0,,0,149,149,126,1,2,word,OPTIMAL,cursive,optimal_c.png,,,,
,,,,32005,001,2025-10-18_17h16.56.755,HW_LDT_1,2024.2.4,MacIntel,62.5,,,,,,,,,,,,,,,,,,,,,,830.106,830.305,830.305,830.806,,,,,,,,,,,,,,2.254,1,,,,,,,,,,,,,,z,,,,,,,,,,,,,,,,151,0,830.806,833.072,z,1,2.254,,[],[],[],[],[],[],[],833.072,835.072,835.072,835.072,[],[],[],[],[],[],[],,,,835.072,835.072,0.149075082,-0.301958651,0,0,0,,0,150,150,7,1,2,RL,cocewage,cursive,cocewage_c.png,,,,
,,,,32005,001,2025-10-18_17h16.56.755,HW_LDT_1,2024.2.4,MacIntel,62.5,,,,,,,,,,,,,,,,,,,,,,835.073,835.272,835.272,835.772,,,,,,,,,,,,,,0.62,1,,,,,,,,,,,,,,m,,,,,,,,,,,,,,,,152,0,835.772,836.406,m,1,0.62,,[],[],[],[],[],[],[],836.406,838.405,838.405,838.405,[],[],[],[],[],[],[],,,,838.405,838.405,0.149075082,-0.301958651,0,0,0,,0,151,151,144,1,2,word,RESIDENT,print,resident_p.png,,,,
,,,,32005,001,2025-10-18_17h16.56.755,HW_LDT_1,2024.2.4,MacIntel,62.5,,,,,,,,,,,,,,,,,,,,,,838.406,838.605,838.605,839.105,,,,,,,,,,,,,,0.971,0,,,,,,,,,,,,,,m,,,,,,,,,,,,,,,,153,0,839.106,840.089,z,0,0.971,,[],[],[],[],[],[],[],840.089,842.089,842.089,842.089,[],[],[],[],[],[],[],,,,842.089,842.089,0.149075082,-0.301958651,0,0,0,,0,152,152,138,1,2,word,REFUSAL,cursive,refusal_c.png,,,,
,,,,32005,001,2025-10-18_17h16.56.755,HW_LDT_1,2024.2.4,MacIntel,62.5,,,,,,,,,,,,,,,,,,,,,,842.09,842.289,842.289,842.789,,,,,,,,,,,,,,0.64,1,,,,,,,,,,,,,,m,,,,,,,,,,,,,,,,154,1,842.789,843.439,m,1,0.64,,[],[],[],[],[],[],[],843.439,845.439,845.439,846.139,[],[],[],[],[],[],[],m,0.687,,846.139,846.139,0.149075082,-0.301958651,0,0,0,,0,153,153,108,1,2,word,FORTUNE,print,fortune_p.png,,,,
,,,,32005,001,2025-10-18_17h16.56.755,HW_LDT_1,2024.2.4,MacIntel,62.5,,,,,,,,,,,,,,,,,,,,,,846.14,846.339,846.339,846.839,,,,,,,,,,,,,,0.809,1,,,,,,,,,,,,,,m,,,,,,,,,,,,,,,,155,0,846.839,847.655,m,1,0.809,,[],[],[],[],[],[],[],847.656,849.655,849.655,849.655,[],[],[],[],[],[],[],,,,849.655,849.656,0.149075082,-0.301958651,0,0,0,,0,154,154,102,1,2,word,DENSITY,print,density_p.png,,,,
,,,,32005,001,2025-10-18_17h16.56.755,HW_LDT_1,2024.2.4,MacIntel,62.5,,,,,,,,,,,,,,,,,,,,,,849.656,849.855,849.855,850.355,,,,,,,,,,,,,,0.587,1,,,,,,,,,,,,,,m,,,,,,,,,,,,,,,,156,0,850.356,850.956,m,1,0.587,,[],[],[],[],[],[],[],850.956,852.955,852.955,852.956,[],[],[],[],[],[],[],,,,852.956,852.956,0.149075082,-0.301958651,0,0,0,,0,155,155,115,1,2,word,LOGICAL,print,logical_p.png,,,,
,,,,32005,001,2025-10-18_17h16.56.755,HW_LDT_1,2024.2.4,MacIntel,62.5,,,,,,,,,,,,,,,,,,,,,,852.956,853.155,853.155,853.655,,,,,,,,,,,,,,0.538,0,,,,,,,,,,,,,,z,,,,,,,,,,,,,,,,157,0,853.656,854.205,m,0,0.538,,[],[],[],[],[],[],[],854.205,856.205,856.206,856.206,[],[],[],[],[],[],[],,,,856.206,856.206,0.149075082,-0.301958651,0,0,0,,0,156,156,64,1,2,TL,paficic,print,paficic_p.png,,,,
,,,,32005,001,2025-10-18_17h16.56.755,HW_LDT_1,2024.2.4,MacIntel,62.5,,,,,,,,,,,,,,,,,,,,,,856.207,856.405,856.406,856.905,,,,,,,,,,,,,,0.893,1,,,,,,,,,,,,,,z,,,,,,,,,,,,,,,,158,0,856.906,857.805,z,1,0.893,,[],[],[],[],[],[],[],857.805,859.805,859.805,859.806,[],[],[],[],[],[],[],,,,859.806,859.806,0.149075082,-0.301958651,0,0,0,,0,157,157,77,1,2,TL,sloten,print,sloten_p.png,,,,
,,,,32005,001,2025-10-18_17h16.56.755,HW_LDT_1,2024.2.4,MacIntel,62.5,,,,,,,,,,,,,,,,,,,,,,859.807,860.006,860.006,860.505,,,,,,,,,,,,,,1.029,1,,,,,,,,,,,,,,m,,,,,,,,,,,,,,,,159,0,860.506,861.541,m,1,1.029,,[],[],[],[],[],[],[],861.541,863.539,863.539,863.539,[],[],[],[],[],[],[],,,,863.539,863.539,0.149075082,-0.301958651,0,0,0,,0,158,158,145,1,2,word,RESUME,cursive,resume_c.png,,,,
,,,,32005,001,2025-10-18_17h16.56.755,HW_LDT_1,2024.2.4,MacIntel,62.5,,,,,,,,,,,,,,,,,,,,,,863.54,863.739,863.739,864.239,,,,,,,,,,,,,,0.942,0,,,,,,,,,,,,,,m,,,,,,,,,,,,,,,,160,0,864.239,865.189,z,0,0.942,,[],[],[],[],[],[],[],865.189,867.188,867.188,867.189,[],[],[],[],[],[],[],,,,867.189,867.189,0.149075082,-0.301958651,0,0,0,,0,159,159,135,1,2,word,QUALITY,cursive,quality_c.png,,,,
,,,,32005,001,2025-10-18_17h16.56.755,HW_LDT_1,2024.2.4,MacIntel,62.5,,,,,,,,,,,,,,,,,,,,,,,,,,,,,,,,,,,,,,,,,,,,,,,,,,,,,,,,,,,,,,,,,,,,,,,,,,,,,,,,,,,,,,,,,,,,,,,,,,,,,,,,,,,,,,,,,,,,,,,867.196,872.189
