counterbalance_lists.group,counterbalance_lists.remaining,get_list.started,get_list.stopped,participant,session,date,expName,psychopyVersion,OS,frameRate,Instructions.started,Instructions.stopped,key_resp.keys,instr_done_touch.x,instr_done_touch.y,instr_done_touch.leftButton,instr_done_touch.midButton,instr_done_touch.rightButton,instr_done_touch.clicked_name,start_instr.thisRepN,start_instr.thisTrialN,start_instr.thisN,start_instr.thisIndex,start_instr.ran,pageN,phase,instruct_text,has_image,instruct_image,showProgress.started,showProgress.stopped,fix.started,fix.stopped,prac.started,prac.stopped,response.keys,response.corr,response.rt,response.duration,touch_resp.x,touch_resp.y,touch_resp.leftButton,touch_resp.midButton,touch_resp.rightButton,touch_resp.time,touch_resp.clicked_name,rt,corr,feedback.started,feedback.stopped,trials.thisRepN,trials.thisTrialN,trials.thisN,trials.thisIndex,trials.ran,TrialID,StimulusType,Condition,PrimeDuration,Prime,Target,corrAns,Instructions_expt.started,Instructions_expt.stopped,key_resp_3.keys,instr_done_touch_3.x,instr_done_touch_3.y,instr_done_touch_3.leftButton,instr_done_touch_3.midButton,instr_done_touch_3.rightButton,instr_done_touch_3.clicked_name,instr_experiment.thisRepN,instr_experiment.thisTrialN,instr_experiment.thisN,instr_experiment.thisIndex,instr_experiment.ran,trialID,flag,maintask.started,maintask.stopped,key_resp_2.keys,key_resp_2.corr,key_resp_2.rt,key_resp_2.duration,targ_click.x,targ_click.y,targ_click.leftButton,targ_click.midButton,targ_click.rightButton,targ_click.time,targ_click.clicked_name,ITI.started,ITI.stopped,probe.started,probe.stopped,click_probe.x,click_probe.y,click_probe.leftButton,click_probe.midButton,click_probe.rightButton,click_probe.time,click_probe.clicked_name,key_resp_probe.keys,Break.started,Break.stopped,break_done_touch.x,break_done_touch.y,break_done_touch.leftButton,break_done_touch.midButton,break_done_touch.rightButton,break_done_keyboard.keys,list1_trials.thisRepN,list1_trials.thisTrialN,list1_trials.thisN,list1_trials.thisIndex,list1_trials.ran,list_id,item_type,string,font,stim_file,key_resp_probe.rt,key_resp_probe.duration,break_done_keyboard.rt,break_done_keyboard.duration,End.started,End.stopped
list1,,0.425,0.425,32009,001,2025-10-16_12h28.19.813,HW_LDT_1,2024.2.4,MacIntel,58.82352941,,,,,,,,,,,,,,,,,,,,,,,,,,,,,,,,,,,,,,,,,,,,,,,,,,,,,,,,,,,,,,,,,,,,,,,,,,,,,,,,,,,,,,,,,,,,,,,,,,,,,,,,,,,,,,,,,,,,,
,,,,32009,001,2025-10-16_12h28.19.813,HW_LDT_1,2024.2.4,MacIntel,58.82352941,0.445,20.146,,0.05,-0.384782609,1,0,0,instr_done_button,0,0,0,0,1,1,instructions,"INSTRUCTIONS
At the start of each trial, look at the plus sign  (+) in the center of the screen.  This tells you that a trial is about to begin and where to look. Second, the plus sign will disappear and a string of letters will appear. Your task is to determine if the string of letters is a word or not. If the item is a word press the M key (on keyboard)  or touch the word button (phone/tablet).  If the item is not a word,  press the  Z key (on keyboard)  or touch the nonword button (on phone/tablet). The items will be presented for a short time. 
Press the space bar or touch  continue.",0,,,,,,,,,,,,,,,,,,,,,,,,,,,,,,,,,,,,,,,,,,,,,,,,,,,,,,,,,,,,,,,,,,,,,,,,,,,,,,,,,,,,,,,,,,,,,,,,,,,
,,,,32009,001,2025-10-16_12h28.19.813,HW_LDT_1,2024.2.4,MacIntel,58.82352941,20.147,23.813,,0.05,-0.384782609,1,0,0,instr_done_button,0,1,1,1,1,2,instructions,"If your device has a keyboard, press the 'Z' key for nonwords and the 'M' key for words.





Press the space bar or touch the button below to continue.",0,keyboard-example.gif,,,,,,,,,,,,,,,,,,,,,,,,,,,,,,,,,,,,,,,,,,,,,,,,,,,,,,,,,,,,,,,,,,,,,,,,,,,,,,,,,,,,,,,,,,,,,,,,,,
,,,,32009,001,2025-10-16_12h28.19.813,HW_LDT_1,2024.2.4,MacIntel,58.82352941,23.816,28.662,,0.052173913,-0.384782609,1,0,0,instr_done_button,0,2,2,2,1,3,instructions,"If you are using a touchscreen only device, use the buttons on the screen. Do not use the mouse.





Press the space bar or touch the button below to continue.",0,touchscreen-example.gif,,,,,,,,,,,,,,,,,,,,,,,,,,,,,,,,,,,,,,,,,,,,,,,,,,,,,,,,,,,,,,,,,,,,,,,,,,,,,,,,,,,,,,,,,,,,,,,,,,
,,,,32009,001,2025-10-16_12h28.19.813,HW_LDT_1,2024.2.4,MacIntel,58.82352941,28.664,31.576,,0.052173913,-0.384782609,1,0,0,instr_done_button,0,3,3,3,1,4,instructions,"It is very important that you respond as quickly and accurately as possible, as each letter string will only be on the screen for two seconds. If you do not respond within this time, the message 'Too slow!' will be displayed and the experiment will progress to the next letter string. The first 20 trials will be practice trials and you will receive feedback on your answers. 

Press the space bar or touch the button below to start the practice trials.",0,,,,,,,,,,,,,,,,,,,,,,,,,,,,,,,,,,,,,,,,,,,,,,,,,,,,,,,,,,,,,,,,,,,,,,,,,,,,,,,,,,,,,,,,,,,,,,,,,,,
,,,,32009,001,2025-10-16_12h28.19.813,HW_LDT_1,2024.2.4,MacIntel,58.82352941,,,,,,,,,,,,,,,,,,,,31.6,31.777,31.777,32.277,32.278,33.376,m,1,1.074,,[],[],[],[],[],[],[],1.074,1,33.377,33.877,0,0,0,0,1,1001,WORD,"ID",33,utopia,UTOPIA,m,,,,,,,,,,,,,,,,,,,,,,,,,,,,,,,,,,,,,,,,,,,,,,,,,,,,,,,,,,,,,,,,,
,,,,32009,001,2025-10-16_12h28.19.813,HW_LDT_1,2024.2.4,MacIntel,58.82352941,,,,,,,,,,,,,,,,,,,,33.879,34.076,34.077,34.576,34.578,35.362,m,1,0.772,,[],[],[],[],[],[],[],0.772,1,35.363,35.861,0,1,1,1,1,1002,WORD,"ID",33,adjust,ADJUST,m,,,,,,,,,,,,,,,,,,,,,,,,,,,,,,,,,,,,,,,,,,,,,,,,,,,,,,,,,,,,,,,,,
,,,,32009,001,2025-10-16_12h28.19.813,HW_LDT_1,2024.2.4,MacIntel,58.82352941,,,,,,,,,,,,,,,,,,,,35.862,36.06,36.06,36.56,36.561,37.593,z,1,1.012,,[],[],[],[],[],[],[],1.012,1,37.593,38.093,0,2,2,12,1,1013,NW,UN,33,adveil,SPRINY,z,,,,,,,,,,,,,,,,,,,,,,,,,,,,,,,,,,,,,,,,,,,,,,,,,,,,,,,,,,,,,,,,,
,,,,32009,001,2025-10-16_12h28.19.813,HW_LDT_1,2024.2.4,MacIntel,58.82352941,,,,,,,,,,,,,,,,,,,,38.095,38.293,38.293,38.792,38.793,39.726,z,1,0.914,,[],[],[],[],[],[],[],0.914,1,39.726,40.226,0,3,3,15,1,1016,NW,UN,16,mushed,WHAISE,z,,,,,,,,,,,,,,,,,,,,,,,,,,,,,,,,,,,,,,,,,,,,,,,,,,,,,,,,,,,,,,,,,
,,,,32009,001,2025-10-16_12h28.19.813,HW_LDT_1,2024.2.4,MacIntel,58.82352941,,,,,,,,,,,,,,,,,,,,40.228,40.426,40.426,40.926,40.928,42.01,z,1,1.063,,[],[],[],[],[],[],[],1.063,1,42.01,42.51,0,4,4,9,1,1010,NW,"ID",33,fariny,FARINY,z,,,,,,,,,,,,,,,,,,,,,,,,,,,,,,,,,,,,,,,,,,,,,,,,,,,,,,,,,,,,,,,,,
,,,,32009,001,2025-10-16_12h28.19.813,HW_LDT_1,2024.2.4,MacIntel,58.82352941,,,,,,,,,,,,,,,,,,,,42.511,42.71,42.71,43.209,43.211,44.259,z,1,1.035,,[],[],[],[],[],[],[],1.035,1,44.26,44.759,0,5,5,11,1,1012,NW,"ID",16,rashet,RASHET,z,,,,,,,,,,,,,,,,,,,,,,,,,,,,,,,,,,,,,,,,,,,,,,,,,,,,,,,,,,,,,,,,,
,,,,32009,001,2025-10-16_12h28.19.813,HW_LDT_1,2024.2.4,MacIntel,58.82352941,,,,,,,,,,,,,,,,,,,,44.761,44.96,44.96,45.459,45.461,46.362,z,1,0.886,,[],[],[],[],[],[],[],0.886,1,46.362,46.86,0,6,6,10,1,1011,NW,"ID",16,inlade,INLADE,z,,,,,,,,,,,,,,,,,,,,,,,,,,,,,,,,,,,,,,,,,,,,,,,,,,,,,,,,,,,,,,,,,
,,,,32009,001,2025-10-16_12h28.19.813,HW_LDT_1,2024.2.4,MacIntel,58.82352941,,,,,,,,,,,,,,,,,,,,46.861,47.059,47.06,47.56,47.561,48.396,z,1,0.823,,[],[],[],[],[],[],[],0.823,1,48.396,48.893,0,7,7,8,1,1009,NW,"ID",33,aslert,ASLERT,z,,,,,,,,,,,,,,,,,,,,,,,,,,,,,,,,,,,,,,,,,,,,,,,,,,,,,,,,,,,,,,,,,
,,,,32009,001,2025-10-16_12h28.19.813,HW_LDT_1,2024.2.4,MacIntel,58.82352941,,,,,,,,,,,,,,,,,,,,48.895,49.093,49.093,49.593,49.594,50.343,m,1,0.729,,[],[],[],[],[],[],[],0.729,1,50.343,50.842,0,8,8,4,1,1005,WORD,UN,33,abound,SQUEAK,m,,,,,,,,,,,,,,,,,,,,,,,,,,,,,,,,,,,,,,,,,,,,,,,,,,,,,,,,,,,,,,,,,
,,,,32009,001,2025-10-16_12h28.19.813,HW_LDT_1,2024.2.4,MacIntel,58.82352941,,,,,,,,,,,,,,,,,,,,50.844,51.042,51.042,51.543,51.544,52.059,m,1,0.496,,[],[],[],[],[],[],[],0.496,1,52.059,52.56,0,9,9,7,1,1008,WORD,UN,16,hurdle,VOLUME,m,,,,,,,,,,,,,,,,,,,,,,,,,,,,,,,,,,,,,,,,,,,,,,,,,,,,,,,,,,,,,,,,,
,,,,32009,001,2025-10-16_12h28.19.813,HW_LDT_1,2024.2.4,MacIntel,58.82352941,,,,,,,,,,,,,,,,,,,,52.561,52.76,52.76,53.259,53.26,53.91,m,1,0.629,,[],[],[],[],[],[],[],0.629,1,53.91,54.409,0,10,10,3,1,1004,WORD,"ID",16,matrix,MATRIX,m,,,,,,,,,,,,,,,,,,,,,,,,,,,,,,,,,,,,,,,,,,,,,,,,,,,,,,,,,,,,,,,,,
,,,,32009,001,2025-10-16_12h28.19.813,HW_LDT_1,2024.2.4,MacIntel,58.82352941,,,,,,,,,,,,,,,,,,,,54.41,54.609,54.609,55.11,55.111,55.776,m,1,0.644,,[],[],[],[],[],[],[],0.644,1,55.776,56.276,0,11,11,5,1,1006,WORD,UN,33,frenzy,OBTAIN,m,,,,,,,,,,,,,,,,,,,,,,,,,,,,,,,,,,,,,,,,,,,,,,,,,,,,,,,,,,,,,,,,,
,,,,32009,001,2025-10-16_12h28.19.813,HW_LDT_1,2024.2.4,MacIntel,58.82352941,,,,,,,,,,,,,,,,,,,,56.278,56.476,56.476,56.976,56.977,57.811,z,1,0.82,,[],[],[],[],[],[],[],0.82,1,57.812,58.309,0,12,12,14,1,1015,NW,UN,16,miaber,THRALE,z,,,,,,,,,,,,,,,,,,,,,,,,,,,,,,,,,,,,,,,,,,,,,,,,,,,,,,,,,,,,,,,,,
,,,,32009,001,2025-10-16_12h28.19.813,HW_LDT_1,2024.2.4,MacIntel,58.82352941,,,,,,,,,,,,,,,,,,,,58.311,58.509,58.509,59.01,59.011,59.693,m,1,0.663,,[],[],[],[],[],[],[],0.663,1,59.693,60.193,0,13,13,2,1,1003,WORD,"ID",16,almond,ALMOND,m,,,,,,,,,,,,,,,,,,,,,,,,,,,,,,,,,,,,,,,,,,,,,,,,,,,,,,,,,,,,,,,,,
,,,,32009,001,2025-10-16_12h28.19.813,HW_LDT_1,2024.2.4,MacIntel,58.82352941,,,,,,,,,,,,,,,,,,,,60.194,60.393,60.393,60.893,60.894,61.559,m,1,0.643,,[],[],[],[],[],[],[],0.643,1,61.559,62.059,0,14,14,6,1,1007,WORD,UN,16,tropic,ZOMBIE,m,,,,,,,,,,,,,,,,,,,,,,,,,,,,,,,,,,,,,,,,,,,,,,,,,,,,,,,,,,,,,,,,,
,,,,32009,001,2025-10-16_12h28.19.813,HW_LDT_1,2024.2.4,MacIntel,58.82352941,,,,,,,,,,,,,,,,,,,,62.061,62.259,62.259,62.759,62.76,63.576,z,1,0.796,,[],[],[],[],[],[],[],0.796,1,63.576,64.076,0,15,15,13,1,1014,NW,UN,33,winfer,ROUPET,z,,,,,,,,,,,,,,,,,,,,,,,,,,,,,,,,,,,,,,,,,,,,,,,,,,,,,,,,,,,,,,,,,
,,,,32009,001,2025-10-16_12h28.19.813,HW_LDT_1,2024.2.4,MacIntel,58.82352941,,,,,,,,,,,,,,,1,end_of_practice,"You have completed the practice trials. During the experimental trials, you will not receive feedback. On some trials you will be asked to report whether the item you just saw was in cursive or print. 
Before you begin, please ensure that you are in a comfortable and quiet location and will not be disturbed for about 15 minutes, as we cannot use your data if you do not complete all the trials. 
 When you are ready to start the experimental trials, please press space or touch the button below.",,,,,,,,,,,,,,,,,,,,,,,,,,,,,,,,,,,,64.085,74.496,,0.07173913,-0.394565217,1,0,0,instr_done_button_3,0,0,0,0,1,,,,,,,,,,,,,,,,,,,,,,,,,,,,,,,,,,,,,,,,,,,,,,,,,,,
,,,,32009,001,2025-10-16_12h28.19.813,HW_LDT_1,2024.2.4,MacIntel,58.82352941,,,,,,,,,,,,,,,,,,,,74.508,74.693,74.694,75.193,,,,,,,,,,,,,,0.743,1,,,,,,,,,,,,,,m,,,,,,,,,,,,,,,1,0,75.194,75.945,m,1,0.743,,[],[],[],[],[],[],[],75.945,77.943,77.944,77.952,[],[],[],[],[],[],[],,77.952,77.956,0.07173913,-0.394565217,0,0,0,,0,0,0,98,1,1,word,CRIMINAL,print,criminal_p.png,,,,,,
,,,,32009,001,2025-10-16_12h28.19.813,HW_LDT_1,2024.2.4,MacIntel,58.82352941,,,,,,,,,,,,,,,,,,,,77.957,78.159,78.159,78.659,,,,,,,,,,,,,,1.945,0,,,,,,,,,,,,,,m,,,,,,,,,,,,,,,2,0,78.66,80.613,z,0,1.945,,[],[],[],[],[],[],[],80.613,82.609,82.61,82.61,[],[],[],[],[],[],[],,82.61,82.61,0.07173913,-0.394565217,0,0,0,,0,1,1,111,1,1,word,INDICATE,cursive,indicate_c.png,,,,,,
,,,,32009,001,2025-10-16_12h28.19.813,HW_LDT_1,2024.2.4,MacIntel,58.82352941,,,,,,,,,,,,,,,,,,,,82.611,82.809,82.81,83.309,,,,,,,,,,,,,,0.96,1,,,,,,,,,,,,,,z,,,,,,,,,,,,,,,3,0,83.31,84.278,z,1,0.96,,[],[],[],[],[],[],[],84.278,86.276,86.276,86.277,[],[],[],[],[],[],[],,86.277,86.277,0.07173913,-0.394565217,0,0,0,,0,2,2,20,1,1,RL,nunewical,print,nunewical_p.png,,,,,,
,,,,32009,001,2025-10-16_12h28.19.813,HW_LDT_1,2024.2.4,MacIntel,58.82352941,,,,,,,,,,,,,,,,,,,,86.278,86.476,86.476,86.976,,,,,,,,,,,,,,0.671,1,,,,,,,,,,,,,,m,,,,,,,,,,,,,,,4,0,86.976,87.659,m,1,0.671,,[],[],[],[],[],[],[],87.659,89.659,89.659,89.66,[],[],[],[],[],[],[],,89.66,89.66,0.07173913,-0.394565217,0,0,0,,0,3,3,116,1,1,word,MARGINAL,print,marginal_p.png,,,,,,
,,,,32009,001,2025-10-16_12h28.19.813,HW_LDT_1,2024.2.4,MacIntel,58.82352941,,,,,,,,,,,,,,,,,,,,89.661,89.859,89.859,90.359,,,,,,,,,,,,,,1.276,1,,,,,,,,,,,,,,z,,,,,,,,,,,,,,,5,1,90.36,91.644,z,1,1.276,,[],[],[],[],[],[],[],91.644,93.643,93.643,96.759,[],[],[],[],[],[],[],z,96.76,96.76,0.07173913,-0.394565217,0,0,0,,0,4,4,54,1,1,TL,distupe,cursive,distupe_c.png,3.105,,,,,
,,,,32009,001,2025-10-16_12h28.19.813,HW_LDT_1,2024.2.4,MacIntel,58.82352941,,,,,,,,,,,,,,,,,,,,96.761,96.959,96.959,97.459,,,,,,,,,,,,,,1.043,1,,,,,,,,,,,,,,m,,,,,,,,,,,,,,,6,1,97.46,98.51,m,1,1.043,,[],[],[],[],[],[],[],98.51,100.509,100.509,102.193,[],[],[],[],[],[],[],z,102.193,102.193,0.07173913,-0.394565217,0,0,0,,0,5,5,112,1,1,word,LIBERAL,cursive,liberal_c.png,1.67,,,,,
,,,,32009,001,2025-10-16_12h28.19.813,HW_LDT_1,2024.2.4,MacIntel,58.82352941,,,,,,,,,,,,,,,,,,,,102.194,102.392,102.393,102.893,,,,,,,,,,,,,,0.854,1,,,,,,,,,,,,,,m,,,,,,,,,,,,,,,7,0,102.893,103.759,m,1,0.854,,[],[],[],[],[],[],[],103.759,105.759,105.759,105.76,[],[],[],[],[],[],[],,105.76,105.76,0.07173913,-0.394565217,0,0,0,,0,6,6,106,1,1,word,ELABORATE,print,elaborate_p.png,,,,,,
,,,,32009,001,2025-10-16_12h28.19.813,HW_LDT_1,2024.2.4,MacIntel,58.82352941,,,,,,,,,,,,,,,,,,,,105.762,105.959,105.959,106.459,,,,,,,,,,,,,,0.739,1,,,,,,,,,,,,,,m,,,,,,,,,,,,,,,8,0,106.46,107.209,m,1,0.739,,[],[],[],[],[],[],[],107.21,109.209,109.209,109.21,[],[],[],[],[],[],[],,109.21,109.21,0.07173913,-0.394565217,0,0,0,,0,7,7,133,1,1,word,PROVIDE,print,provide_p.png,,,,,,
,,,,32009,001,2025-10-16_12h28.19.813,HW_LDT_1,2024.2.4,MacIntel,58.82352941,,,,,,,,,,,,,,,,,,,,109.211,109.409,109.409,109.909,,,,,,,,,,,,,,2.437,0,,,,,,,,,,,,,,z,,,,,,,,,,,,,,,9,0,109.91,112.359,m,0,2.437,,[],[],[],[],[],[],[],112.359,114.359,114.359,114.36,[],[],[],[],[],[],[],,114.36,114.36,0.07173913,-0.394565217,0,0,0,,0,8,8,73,1,1,TL,ronamtic,cursive,ronamtic_c.png,,,,,,
,,,,32009,001,2025-10-16_12h28.19.813,HW_LDT_1,2024.2.4,MacIntel,58.82352941,,,,,,,,,,,,,,,,,,,,114.361,114.559,114.559,115.059,,,,,,,,,,,,,,0.61,1,,,,,,,,,,,,,,m,,,,,,,,,,,,,,,10,0,115.06,115.676,m,1,0.61,,[],[],[],[],[],[],[],115.676,117.676,117.676,117.676,[],[],[],[],[],[],[],,117.676,117.676,0.07173913,-0.394565217,0,0,0,,0,9,9,121,1,1,word,MISTAKE,print,mistake_p.png,,,,,,
,,,,32009,001,2025-10-16_12h28.19.813,HW_LDT_1,2024.2.4,MacIntel,58.82352941,,,,,,,,,,,,,,,,,,,,117.678,117.875,117.876,118.376,,,,,,,,,,,,,,1.104,1,,,,,,,,,,,,,,z,,,,,,,,,,,,,,,11,0,118.376,119.492,z,1,1.104,,[],[],[],[],[],[],[],119.493,121.493,121.493,121.494,[],[],[],[],[],[],[],,121.494,121.494,0.07173913,-0.394565217,0,0,0,,0,10,10,69,1,1,TL,radiply,cursive,radiply_c.png,,,,,,
,,,,32009,001,2025-10-16_12h28.19.813,HW_LDT_1,2024.2.4,MacIntel,58.82352941,,,,,,,,,,,,,,,,,,,,121.495,121.692,121.693,122.192,,,,,,,,,,,,,,1.961,1,,,,,,,,,,,,,,z,,,,,,,,,,,,,,,12,0,122.193,124.16,z,1,1.961,,[],[],[],[],[],[],[],124.16,126.159,126.159,126.16,[],[],[],[],[],[],[],,126.16,126.16,0.07173913,-0.394565217,0,0,0,,0,11,11,39,1,1,RL,vabifity,cursive,vabifity_c.png,,,,,,
,,,,32009,001,2025-10-16_12h28.19.813,HW_LDT_1,2024.2.4,MacIntel,58.82352941,,,,,,,,,,,,,,,,,,,,126.161,126.359,126.359,126.859,,,,,,,,,,,,,,1.295,1,,,,,,,,,,,,,,z,,,,,,,,,,,,,,,13,1,126.86,128.161,z,1,1.295,,[],[],[],[],[],[],[],128.161,130.159,130.159,131.492,[],[],[],[],[],[],[],z,131.492,131.492,0.07173913,-0.394565217,0,0,0,,0,12,12,5,1,1,RL,cobeny,cursive,cobeny_c.png,1.325,,,,,
,,,,32009,001,2025-10-16_12h28.19.813,HW_LDT_1,2024.2.4,MacIntel,58.82352941,,,,,,,,,,,,,,,,,,,,131.493,131.692,131.692,132.192,,,,,,,,,,,,,,0.686,0,,,,,,,,,,,,,,z,,,,,,,,,,,,,,,14,0,132.193,132.892,m,0,0.686,,[],[],[],[],[],[],[],132.892,134.892,134.892,134.893,[],[],[],[],[],[],[],,134.893,134.893,0.07173913,-0.394565217,0,0,0,,0,13,13,47,1,1,TL,cagetory,print,cagetory_p.png,,,,,,
,,,,32009,001,2025-10-16_12h28.19.813,HW_LDT_1,2024.2.4,MacIntel,58.82352941,,,,,,,,,,,,,,,,,,,,134.894,135.092,135.092,135.592,,,,,,,,,,,,,,0.891,1,,,,,,,,,,,,,,m,,,,,,,,,,,,,,,15,0,135.593,136.492,m,1,0.891,,[],[],[],[],[],[],[],136.492,138.492,138.492,138.493,[],[],[],[],[],[],[],,138.493,138.493,0.07173913,-0.394565217,0,0,0,,0,14,14,153,1,1,word,STOLEN,print,stolen_p.png,,,,,,
,,,,32009,001,2025-10-16_12h28.19.813,HW_LDT_1,2024.2.4,MacIntel,58.82352941,,,,,,,,,,,,,,,,,,,,138.494,138.692,138.692,139.192,,,,,,,,,,,,,,1.321,1,,,,,,,,,,,,,,m,,,,,,,,,,,,,,,16,0,139.192,140.526,m,1,1.321,,[],[],[],[],[],[],[],140.526,142.526,142.526,142.526,[],[],[],[],[],[],[],,142.526,142.526,0.07173913,-0.394565217,0,0,0,,0,15,15,132,1,1,word,PROPOSAL,cursive,proposal_c.png,,,,,,
,,,,32009,001,2025-10-16_12h28.19.813,HW_LDT_1,2024.2.4,MacIntel,58.82352941,,,,,,,,,,,,,,,,,,,,142.528,142.726,142.726,143.226,,,,,,,,,,,,,,0.853,1,,,,,,,,,,,,,,m,,,,,,,,,,,,,,,17,0,143.226,144.092,m,1,0.853,,[],[],[],[],[],[],[],144.092,146.093,146.093,146.093,[],[],[],[],[],[],[],,146.093,146.093,0.07173913,-0.394565217,0,0,0,,0,16,16,142,1,1,word,REMOTE,print,remote_p.png,,,,,,
,,,,32009,001,2025-10-16_12h28.19.813,HW_LDT_1,2024.2.4,MacIntel,58.82352941,,,,,,,,,,,,,,,,,,,,146.094,146.291,146.292,146.792,,,,,,,,,,,,,,1.977,0,,,,,,,,,,,,,,z,,,,,,,,,,,,,,,18,0,146.793,148.777,m,0,1.977,,[],[],[],[],[],[],[],148.777,150.776,150.776,150.776,[],[],[],[],[],[],[],,150.776,150.777,0.07173913,-0.394565217,0,0,0,,0,17,17,34,1,1,RL,samite,print,samite_p.png,,,,,,
,,,,32009,001,2025-10-16_12h28.19.813,HW_LDT_1,2024.2.4,MacIntel,58.82352941,,,,,,,,,,,,,,,,,,,,150.778,150.975,150.976,151.476,,,,,,,,,,,,,,0.796,1,,,,,,,,,,,,,,m,,,,,,,,,,,,,,,19,0,151.476,152.277,m,1,0.796,,[],[],[],[],[],[],[],152.277,154.276,154.276,154.276,[],[],[],[],[],[],[],,154.276,154.276,0.07173913,-0.394565217,0,0,0,,0,18,18,138,1,1,word,REFUSAL,print,refusal_p.png,,,,,,
,,,,32009,001,2025-10-16_12h28.19.813,HW_LDT_1,2024.2.4,MacIntel,58.82352941,,,,,,,,,,,,,,,,,,,,154.277,154.476,154.476,154.975,,,,,,,,,,,,,,1.327,1,,,,,,,,,,,,,,z,,,,,,,,,,,,,,,20,0,154.975,156.309,z,1,1.327,,[],[],[],[],[],[],[],156.309,158.309,158.309,158.309,[],[],[],[],[],[],[],,158.309,158.309,0.07173913,-0.394565217,0,0,0,,0,19,19,46,1,1,TL,catipal,print,catipal_p.png,,,,,,
,,,,32009,001,2025-10-16_12h28.19.813,HW_LDT_1,2024.2.4,MacIntel,58.82352941,,,,,,,,,,,,,,,,,,,,158.31,158.509,158.509,159.009,,,,,,,,,,,,,,1.688,1,,,,,,,,,,,,,,z,,,,,,,,,,,,,,,21,0,159.009,160.709,z,1,1.688,,[],[],[],[],[],[],[],160.709,162.709,162.709,162.71,[],[],[],[],[],[],[],,162.71,162.71,0.07173913,-0.394565217,0,0,0,,0,20,20,3,1,1,RL,casena,cursive,casena_c.png,,,,,,
,,,,32009,001,2025-10-16_12h28.19.813,HW_LDT_1,2024.2.4,MacIntel,58.82352941,,,,,,,,,,,,,,,,,,,,162.711,162.909,162.909,163.409,,,,,,,,,,,,,,1.954,1,,,,,,,,,,,,,,m,,,,,,,,,,,,,,,22,0,163.41,165.376,m,1,1.954,,[],[],[],[],[],[],[],165.376,167.375,167.376,167.376,[],[],[],[],[],[],[],,167.376,167.376,0.07173913,-0.394565217,0,0,0,,0,21,21,134,1,1,word,QUALIFY,cursive,qualify_c.png,,,,,,
,,,,32009,001,2025-10-16_12h28.19.813,HW_LDT_1,2024.2.4,MacIntel,58.82352941,,,,,,,,,,,,,,,,,,,,167.377,167.576,167.576,168.075,,,,,,,,,,,,,,3.176,0,,,,,,,,,,,,,,m,,,,,,,,,,,,,,,23,0,168.076,171.259,z,0,3.176,,[],[],[],[],[],[],[],171.259,173.259,173.259,173.26,[],[],[],[],[],[],[],,173.26,173.26,0.07173913,-0.394565217,0,0,0,,0,22,22,140,1,1,word,RELATIVE,cursive,relative_c.png,,,,,,
,,,,32009,001,2025-10-16_12h28.19.813,HW_LDT_1,2024.2.4,MacIntel,58.82352941,,,,,,,,,,,,,,,,,,,,173.261,173.459,173.459,173.958,,,,,,,,,,,,,,1.938,1,,,,,,,,,,,,,,m,,,,,,,,,,,,,,,24,0,173.958,175.909,m,1,1.938,,[],[],[],[],[],[],[],175.909,177.909,177.909,177.909,[],[],[],[],[],[],[],,177.91,177.91,0.07173913,-0.394565217,0,0,0,,0,23,23,113,1,1,word,LITERAL,print,literal_p.png,,,,,,
,,,,32009,001,2025-10-16_12h28.19.813,HW_LDT_1,2024.2.4,MacIntel,58.82352941,,,,,,,,,,,,,,,,,,,,177.911,178.109,178.109,178.609,,,,,,,,,,,,,,1.052,1,,,,,,,,,,,,,,m,,,,,,,,,,,,,,,25,0,178.61,179.676,m,1,1.052,,[],[],[],[],[],[],[],179.676,181.676,181.676,181.677,[],[],[],[],[],[],[],,181.677,181.678,0.07173913,-0.394565217,0,0,0,,0,24,24,118,1,1,word,MEDICINE,cursive,medicine_c.png,,,,,,
,,,,32009,001,2025-10-16_12h28.19.813,HW_LDT_1,2024.2.4,MacIntel,58.82352941,,,,,,,,,,,,,,,,,,,,181.679,181.875,181.875,182.375,,,,,,,,,,,,,,1.57,1,,,,,,,,,,,,,,m,,,,,,,,,,,,,,,26,0,182.376,183.959,m,1,1.57,,[],[],[],[],[],[],[],183.959,185.959,185.959,185.96,[],[],[],[],[],[],[],,185.96,185.96,0.07173913,-0.394565217,0,0,0,,0,25,25,123,1,1,word,MODERATE,print,moderate_p.png,,,,,,
,,,,32009,001,2025-10-16_12h28.19.813,HW_LDT_1,2024.2.4,MacIntel,58.82352941,,,,,,,,,,,,,,,,,,,,185.961,186.159,186.159,186.659,,,,,,,,,,,,,,1.138,1,,,,,,,,,,,,,,z,,,,,,,,,,,,,,,27,0,186.659,187.81,z,1,1.138,,[],[],[],[],[],[],[],187.811,189.809,189.809,189.809,[],[],[],[],[],[],[],,189.809,189.81,0.07173913,-0.394565217,0,0,0,,0,26,26,10,1,1,RL,efibor,cursive,efibor_c.png,,,,,,
,,,,32009,001,2025-10-16_12h28.19.813,HW_LDT_1,2024.2.4,MacIntel,58.82352941,,,,,,,,,,,,,,,,,,,,189.811,190.008,190.008,190.509,,,,,,,,,,,,,,1.454,1,,,,,,,,,,,,,,z,,,,,,,,,,,,,,,28,0,190.51,191.976,z,1,1.454,,[],[],[],[],[],[],[],191.976,193.962,193.962,193.962,[],[],[],[],[],[],[],,193.962,193.963,0.565217391,0.329347826,0,0,0,,0,27,27,64,1,1,TL,orepator,cursive,orepator_c.png,,,,,,
,,,,32009,001,2025-10-16_12h28.19.813,HW_LDT_1,2024.2.4,MacIntel,58.82352941,,,,,,,,,,,,,,,,,,,,193.963,194.159,194.159,194.659,,,,,,,,,,,,,,1.037,1,,,,,,,,,,,,,,z,,,,,,,,,,,,,,,29,0,194.66,195.708,z,1,1.037,,[],[],[],[],[],[],[],195.709,197.709,197.709,197.709,[],[],[],[],[],[],[],,197.709,197.709,0.565217391,0.329347826,0,0,0,,0,28,28,32,1,1,RL,rebicent,print,rebicent_p.png,,,,,,
,,,,32009,001,2025-10-16_12h28.19.813,HW_LDT_1,2024.2.4,MacIntel,58.82352941,,,,,,,,,,,,,,,,,,,,197.711,197.909,197.909,198.409,,,,,,,,,,,,,,0.721,1,,,,,,,,,,,,,,m,,,,,,,,,,,,,,,30,0,198.409,199.142,m,1,0.721,,[],[],[],[],[],[],[],199.143,201.142,201.142,201.142,[],[],[],[],[],[],[],,201.142,201.142,0.565217391,0.329347826,0,0,0,,0,29,29,120,1,1,word,MILITARY,print,military_p.png,,,,,,
,,,,32009,001,2025-10-16_12h28.19.813,HW_LDT_1,2024.2.4,MacIntel,58.82352941,,,,,,,,,,,,,,,,,,,,201.142,201.342,201.342,201.842,,,,,,,,,,,,,,2.17,1,,,,,,,,,,,,,,z,,,,,,,,,,,,,,,31,1,201.842,204.025,z,1,2.17,,[],[],[],[],[],[],[],204.025,206.025,206.025,207.608,[],[],[],[],[],[],[],z,207.609,207.609,0.565217391,0.329347826,0,0,0,,0,30,30,49,1,1,TL,clicinal,cursive,clicinal_c.png,1.572,,,,,
,,,,32009,001,2025-10-16_12h28.19.813,HW_LDT_1,2024.2.4,MacIntel,58.82352941,,,,,,,,,,,,,,,,,,,,207.609,207.809,207.809,208.309,,,,,,,,,,,,,,2.52,1,,,,,,,,,,,,,,z,,,,,,,,,,,,,,,32,0,208.309,210.842,z,1,2.52,,[],[],[],[],[],[],[],210.842,212.842,212.842,212.843,[],[],[],[],[],[],[],,212.843,212.843,0.565217391,0.329347826,0,0,0,,0,31,31,58,1,1,TL,incidate,cursive,incidate_c.png,,,,,,
,,,,32009,001,2025-10-16_12h28.19.813,HW_LDT_1,2024.2.4,MacIntel,58.82352941,,,,,,,,,,,,,,,,,,,,212.845,213.041,213.041,213.542,,,,,,,,,,,,,,2.055,0,,,,,,,,,,,,,,m,,,,,,,,,,,,,,,33,0,213.542,215.61,z,0,2.055,,[],[],[],[],[],[],[],215.61,217.608,217.609,217.609,[],[],[],[],[],[],[],,217.609,217.609,0.565217391,0.329347826,0,0,0,,0,32,32,87,1,1,word,CAFETERIA,cursive,cafeteria_c.png,,,,,,
,,,,32009,001,2025-10-16_12h28.19.813,HW_LDT_1,2024.2.4,MacIntel,58.82352941,,,,,,,,,,,,,,,,,,,,217.611,217.809,217.809,218.308,,,,,,,,,,,,,,1.271,0,,,,,,,,,,,,,,m,,,,,,,,,,,,,,,34,0,218.308,219.592,z,0,1.271,,[],[],[],[],[],[],[],219.592,221.592,221.592,221.593,[],[],[],[],[],[],[],,221.593,221.593,0.565217391,0.329347826,0,0,0,,0,33,33,105,1,1,word,EDITOR,cursive,editor_c.png,,,,,,
,,,,32009,001,2025-10-16_12h28.19.813,HW_LDT_1,2024.2.4,MacIntel,58.82352941,,,,,,,,,,,,,,,,,,,,221.594,221.792,221.792,222.291,,,,,,,,,,,,,,1.087,1,,,,,,,,,,,,,,m,,,,,,,,,,,,,,,35,1,222.292,223.392,m,1,1.087,,[],[],[],[],[],[],[],223.392,225.392,225.392,227.175,[],[],[],[],[],[],[],z,227.175,227.176,0.565217391,0.329347826,0,0,0,,0,34,34,141,1,1,word,RELIGION,cursive,religion_c.png,1.773,,,,,
,,,,32009,001,2025-10-16_12h28.19.813,HW_LDT_1,2024.2.4,MacIntel,58.82352941,,,,,,,,,,,,,,,,,,,,227.177,227.375,227.375,227.875,,,,,,,,,,,,,,2.664,1,,,,,,,,,,,,,,z,,,,,,,,,,,,,,,36,0,227.875,230.544,z,1,2.664,,[],[],[],[],[],[],[],230.544,232.542,232.542,232.542,[],[],[],[],[],[],[],,232.542,232.543,0.565217391,0.329347826,0,0,0,,0,35,35,25,1,1,RL,quakity,cursive,quakity_c.png,,,,,,
,,,,32009,001,2025-10-16_12h28.19.813,HW_LDT_1,2024.2.4,MacIntel,58.82352941,,,,,,,,,,,,,,,,,,,,232.544,232.742,232.742,233.242,,,,,,,,,,,,,,4.342,0,,,,,,,,,,,,,,m,,,,,,,,,,,,,,,37,1,233.242,237.592,z,0,4.342,,[],[],[],[],[],[],[],237.592,239.592,239.592,240.792,[],[],[],[],[],[],[],z,240.792,240.793,0.565217391,0.329347826,0,0,0,,0,36,36,103,1,1,word,DISPUTE,cursive,dispute_c.png,1.188,,,,,
,,,,32009,001,2025-10-16_12h28.19.813,HW_LDT_1,2024.2.4,MacIntel,58.82352941,,,,,,,,,,,,,,,,,,,,240.793,240.991,240.991,241.492,,,,,,,,,,,,,,1.32,1,,,,,,,,,,,,,,m,,,,,,,,,,,,,,,38,0,241.492,242.825,m,1,1.32,,[],[],[],[],[],[],[],242.825,244.825,244.825,244.826,[],[],[],[],[],[],[],,244.826,244.826,0.565217391,0.329347826,0,0,0,,0,37,37,91,1,1,word,CARDINAL,print,cardinal_p.png,,,,,,
,,,,32009,001,2025-10-16_12h28.19.813,HW_LDT_1,2024.2.4,MacIntel,58.82352941,,,,,,,,,,,,,,,,,,,,244.827,245.025,245.025,245.526,,,,,,,,,,,,,,1.031,1,,,,,,,,,,,,,,z,,,,,,,,,,,,,,,39,0,245.527,246.559,z,1,1.031,,[],[],[],[],[],[],[],246.559,248.558,248.558,248.559,[],[],[],[],[],[],[],,248.559,248.559,0.565217391,0.329347826,0,0,0,,0,38,38,70,1,1,TL,relugar,print,relugar_p.png,,,,,,
,,,,32009,001,2025-10-16_12h28.19.813,HW_LDT_1,2024.2.4,MacIntel,58.82352941,,,,,,,,,,,,,,,,,,,,248.56,248.758,248.758,249.258,,,,,,,,,,,,,,0.87,1,,,,,,,,,,,,,,m,,,,,,,,,,,,,,,40,1,249.259,250.142,m,1,0.87,,[],[],[],[],[],[],[],250.142,252.143,252.143,257.092,[],[],[],[],[],[],[],m,257.092,257.092,0.565217391,0.329347826,0,0,0,,0,39,39,126,1,1,word,OPTIMAL,print,optimal_p.png,4.937,,,,,
,,,,32009,001,2025-10-16_12h28.19.813,HW_LDT_1,2024.2.4,MacIntel,58.82352941,,,,,,,,,,,,,,,,,,,,257.092,257.292,257.292,257.791,,,,,,,,,,,,,,0.937,1,,,,,,,,,,,,,,z,,,,,,,,,,,,,,,41,0,257.792,258.741,z,1,0.937,,[],[],[],[],[],[],[],258.742,260.742,260.742,260.742,[],[],[],[],[],[],[],,260.742,260.742,0.565217391,0.329347826,0,0,0,,0,40,40,7,1,1,RL,delahe,print,delahe_p.png,,,,,,
,,,,32009,001,2025-10-16_12h28.19.813,HW_LDT_1,2024.2.4,MacIntel,58.82352941,,,,,,,,,,,,,,,,,,,,260.743,260.941,260.941,261.442,,,,,,,,,,,,,,1.158,1,,,,,,,,,,,,,,z,,,,,,,,,,,,,,,42,0,261.442,262.608,z,1,1.158,,[],[],[],[],[],[],[],262.608,264.609,264.609,264.61,[],[],[],[],[],[],[],,264.61,264.611,0.565217391,0.329347826,0,0,0,,0,41,41,8,1,1,RL,debave,print,debave_p.png,,,,,,
,,,,32009,001,2025-10-16_12h28.19.813,HW_LDT_1,2024.2.4,MacIntel,58.82352941,,,,,,,,,,,,,,,,,,,,264.612,264.808,264.808,265.308,,,,,,,,,,,,,,1.758,1,,,,,,,,,,,,,,z,,,,,,,,,,,,,,,43,0,265.309,267.076,z,1,1.758,,[],[],[],[],[],[],[],267.076,269.075,269.075,269.076,[],[],[],[],[],[],[],,269.076,269.076,0.565217391,0.329347826,0,0,0,,0,42,42,50,1,1,TL,condiser,cursive,condiser_c.png,,,,,,
,,,,32009,001,2025-10-16_12h28.19.813,HW_LDT_1,2024.2.4,MacIntel,58.82352941,,,,,,,,,,,,,,,,,,,,269.077,269.275,269.275,269.775,,,,,,,,,,,,,,0.937,1,,,,,,,,,,,,,,z,,,,,,,,,,,,,,,44,0,269.776,270.724,z,1,0.937,,[],[],[],[],[],[],[],270.724,272.725,272.725,272.725,[],[],[],[],[],[],[],,272.726,272.726,0.565217391,0.329347826,0,0,0,,0,43,43,23,1,1,RL,potugar,cursive,potugar_c.png,,,,,,
,,,,32009,001,2025-10-16_12h28.19.813,HW_LDT_1,2024.2.4,MacIntel,58.82352941,,,,,,,,,,,,,,,,,,,,272.727,272.925,272.925,273.425,,,,,,,,,,,,,,1.187,1,,,,,,,,,,,,,,z,,,,,,,,,,,,,,,45,0,273.425,274.625,z,1,1.187,,[],[],[],[],[],[],[],274.625,276.625,276.625,276.626,[],[],[],[],[],[],[],,276.626,276.626,0.565217391,0.329347826,0,0,0,,0,44,44,40,1,1,TL,atameur,print,atameur_p.png,,,,,,
,,,,32009,001,2025-10-16_12h28.19.813,HW_LDT_1,2024.2.4,MacIntel,58.82352941,,,,,,,,,,,,,,,,,,,,276.627,276.825,276.825,277.325,,,,,,,,,,,,,,0.753,1,,,,,,,,,,,,,,m,,,,,,,,,,,,,,,46,1,277.326,278.091,m,1,0.753,,[],[],[],[],[],[],[],278.092,280.092,280.092,281.092,[],[],[],[],[],[],[],m,281.093,281.093,0.565217391,0.329347826,0,0,0,,0,45,45,108,1,1,word,FORTUNE,print,fortune_p.png,0.994,,,,,
,,,,32009,001,2025-10-16_12h28.19.813,HW_LDT_1,2024.2.4,MacIntel,58.82352941,,,,,,,,,,,,,,,,,,,,281.093,281.292,281.292,281.791,,,,,,,,,,,,,,2.154,1,,,,,,,,,,,,,,m,,,,,,,,,,,,,,,47,0,281.792,283.958,m,1,2.154,,[],[],[],[],[],[],[],283.958,285.958,285.958,285.959,[],[],[],[],[],[],[],,285.959,285.959,0.565217391,0.329347826,0,0,0,,0,46,46,151,1,1,word,SPECIFIC,cursive,specific_c.png,,,,,,
,,,,32009,001,2025-10-16_12h28.19.813,HW_LDT_1,2024.2.4,MacIntel,58.82352941,,,,,,,,,,,,,,,,,,,,285.96,286.158,286.158,286.658,,,,,,,,,,,,,,0.921,0,,,,,,,,,,,,,,z,,,,,,,,,,,,,,,48,0,286.659,287.591,m,0,0.921,,[],[],[],[],[],[],[],287.591,289.591,289.592,289.592,[],[],[],[],[],[],[],,289.592,289.592,0.565217391,0.329347826,0,0,0,,0,47,47,71,1,1,TL,regilion,cursive,regilion_c.png,,,,,,
,,,,32009,001,2025-10-16_12h28.19.813,HW_LDT_1,2024.2.4,MacIntel,58.82352941,,,,,,,,,,,,,,,,,,,,289.593,289.791,289.791,290.291,,,,,,,,,,,,,,1.426,1,,,,,,,,,,,,,,m,,,,,,,,,,,,,,,49,0,290.292,291.725,m,1,1.426,,[],[],[],[],[],[],[],291.725,293.724,293.724,293.725,[],[],[],[],[],[],[],,293.725,293.725,0.542391304,0.311956522,0,0,0,,0,48,48,124,1,1,word,NUMERICAL,print,numerical_p.png,,,,,,
,,,,32009,001,2025-10-16_12h28.19.813,HW_LDT_1,2024.2.4,MacIntel,58.82352941,,,,,,,,,,,,,,,,,,,,293.727,293.925,293.925,294.425,,,,,,,,,,,,,,1.093,1,,,,,,,,,,,,,,m,,,,,,,,,,,,,,,50,0,294.426,295.527,m,1,1.093,,[],[],[],[],[],[],[],295.527,297.525,297.525,297.526,[],[],[],[],[],[],[],,297.526,297.527,0.542391304,0.311956522,0,0,0,,0,49,49,97,1,1,word,COVERAGE,print,coverage_p.png,,,,,,
,,,,32009,001,2025-10-16_12h28.19.813,HW_LDT_1,2024.2.4,MacIntel,58.82352941,,,,,,,,,,,,,,,,,,,,297.528,297.725,297.725,298.225,,,,,,,,,,,,,,1.186,1,,,,,,,,,,,,,,z,,,,,,,,,,,,,,,51,1,298.226,299.425,z,1,1.186,,[],[],[],[],[],[],[],299.425,301.425,301.425,302.391,[],[],[],[],[],[],[],z,302.391,302.392,0.542391304,0.311956522,0,0,0,,0,50,50,31,1,1,RL,reconal,cursive,reconal_c.png,0.959,,,,,
,,,,32009,001,2025-10-16_12h28.19.813,HW_LDT_1,2024.2.4,MacIntel,58.82352941,,,,,,,,,,,,,,,,,,,,302.393,302.591,302.592,303.091,,,,,,,,,,,,,,0.904,1,,,,,,,,,,,,,,z,,,,,,,,,,,,,,,52,0,303.092,304.008,z,1,0.904,,[],[],[],[],[],[],[],304.008,306.008,306.008,306.009,[],[],[],[],[],[],[],,306.009,306.009,0.542391304,0.311956522,0,0,0,,0,51,51,44,1,1,TL,cateferia,cursive,cateferia_c.png,,,,,,
,,,,32009,001,2025-10-16_12h28.19.813,HW_LDT_1,2024.2.4,MacIntel,58.82352941,,,,,,,,,,,,,,,,,,,,306.01,306.208,306.208,306.708,,,,,,,,,,,,,,2.678,1,,,,,,,,,,,,,,z,,,,,,,,,,,,,,,53,0,306.709,309.395,z,1,2.678,,[],[],[],[],[],[],[],309.395,311.391,311.391,311.392,[],[],[],[],[],[],[],,311.392,311.392,0.542391304,0.311956522,0,0,0,,0,52,52,1,1,1,RL,adnicory,cursive,adnicory_c.png,,,,,,
,,,,32009,001,2025-10-16_12h28.19.813,HW_LDT_1,2024.2.4,MacIntel,58.82352941,,,,,,,,,,,,,,,,,,,,311.393,311.593,311.593,312.091,,,,,,,,,,,,,,1.103,1,,,,,,,,,,,,,,z,,,,,,,,,,,,,,,54,0,312.092,313.208,z,1,1.103,,[],[],[],[],[],[],[],313.208,315.209,315.209,315.21,[],[],[],[],[],[],[],,315.21,315.21,0.542391304,0.311956522,0,0,0,,0,53,53,29,1,1,RL,refakive,cursive,refakive_c.png,,,,,,
,,,,32009,001,2025-10-16_12h28.19.813,HW_LDT_1,2024.2.4,MacIntel,58.82352941,,,,,,,,,,,,,,,,,,,,315.211,315.408,315.408,315.907,,,,,,,,,,,,,,0.971,1,,,,,,,,,,,,,,m,,,,,,,,,,,,,,,55,0,315.908,316.892,m,1,0.971,,[],[],[],[],[],[],[],316.892,318.891,318.891,318.892,[],[],[],[],[],[],[],,318.892,318.892,0.542391304,0.311956522,0,0,0,,0,54,54,104,1,1,word,DOMINANT,cursive,dominant_c.png,,,,,,
,,,,32009,001,2025-10-16_12h28.19.813,HW_LDT_1,2024.2.4,MacIntel,58.82352941,,,,,,,,,,,,,,,,,,,,318.893,319.092,319.092,319.591,,,,,,,,,,,,,,2.06,1,,,,,,,,,,,,,,z,,,,,,,,,,,,,,,56,0,319.592,321.659,z,1,2.06,,[],[],[],[],[],[],[],321.659,323.658,323.658,323.658,[],[],[],[],[],[],[],,323.658,323.659,0.542391304,0.311956522,0,0,0,,0,55,55,59,1,1,TL,lirebal,cursive,lirebal_c.png,,,,,,
,,,,32009,001,2025-10-16_12h28.19.813,HW_LDT_1,2024.2.4,MacIntel,58.82352941,,,,,,,,,,,,,,,,,,,,323.66,323.858,323.858,324.358,,,,,,,,,,,,,,2.72,0,,,,,,,,,,,,,,z,,,,,,,,,,,,,,,57,1,324.358,327.091,m,0,2.72,,[],[],[],[],[],[],[],327.092,329.091,329.091,330.341,[],[],[],[],[],[],[],z,330.341,330.342,0.542391304,0.311956522,0,0,0,,0,56,56,26,1,1,RL,quafidy,cursive,quafidy_c.png,1.237,,,,,
,,,,32009,001,2025-10-16_12h28.19.813,HW_LDT_1,2024.2.4,MacIntel,58.82352941,,,,,,,,,,,,,,,,,,,,330.343,330.541,330.542,331.041,,,,,,,,,,,,,,4.57,1,,,,,,,,,,,,,,m,,,,,,,,,,,,,,,58,0,331.042,335.625,m,1,4.57,,[],[],[],[],[],[],[],335.625,337.624,337.624,337.624,[],[],[],[],[],[],[],,337.624,337.625,0.540217391,0.309782609,0,0,0,,0,57,57,135,1,1,word,QUALITY,cursive,quality_c.png,,,,,,
,,,,32009,001,2025-10-16_12h28.19.813,HW_LDT_1,2024.2.4,MacIntel,58.82352941,,,,,,,,,,,,,,,,,,,,337.626,337.824,337.824,338.325,,,,,,,,,,,,,,2.874,1,,,,,,,,,,,,,,m,,,,,,,,,,,,,,,59,0,338.325,341.208,m,1,2.874,,[],[],[],[],[],[],[],341.208,343.207,343.207,343.208,[],[],[],[],[],[],[],,343.208,343.208,0.52826087,0.319565217,0,0,0,,0,58,58,129,1,1,word,PARENT,cursive,parent_c.png,,,,,,
,,,,32009,001,2025-10-16_12h28.19.813,HW_LDT_1,2024.2.4,MacIntel,58.82352941,,,,,,,,,,,,,,,,,,,,343.209,343.408,343.408,343.908,,,,,,,,,,,,,,0.987,1,,,,,,,,,,,,,,z,,,,,,,,,,,,,,,60,0,343.908,344.908,z,1,0.987,,[],[],[],[],[],[],[],344.908,346.908,346.908,346.908,[],[],[],[],[],[],[],,346.908,346.908,0.52826087,0.319565217,0,0,0,,0,59,59,24,1,1,RL,probice,print,probice_p.png,,,,,,
,,,,32009,001,2025-10-16_12h28.19.813,HW_LDT_1,2024.2.4,MacIntel,58.82352941,,,,,,,,,,,,,,,,,,,,346.909,347.108,347.108,347.607,,,,,,,,,,,,,,1.236,1,,,,,,,,,,,,,,z,,,,,,,,,,,,,,,61,0,347.608,348.858,z,1,1.236,,[],[],[],[],[],[],[],348.858,350.858,350.858,350.859,[],[],[],[],[],[],[],,350.859,350.86,0.52826087,0.319565217,0,0,0,,0,60,60,18,1,1,RL,mishafe,print,mishafe_p.png,,,,,,
,,,,32009,001,2025-10-16_12h28.19.813,HW_LDT_1,2024.2.4,MacIntel,58.82352941,,,,,,,,,,,,,,,,,,,,350.861,351.058,351.058,351.558,,,,,,,,,,,,,,2.102,1,,,,,,,,,,,,,,m,,,,,,,,,,,,,,,62,0,351.558,353.674,m,1,2.102,,[],[],[],[],[],[],[],353.674,355.675,355.675,355.675,[],[],[],[],[],[],[],,355.675,355.676,0.52826087,0.319565217,0,0,0,,0,61,61,122,1,1,word,MOBILE,cursive,mobile_c.png,,,,,,
,,,,32009,001,2025-10-16_12h28.19.813,HW_LDT_1,2024.2.4,MacIntel,58.82352941,,,,,,,,,,,,,,,,,,,,355.677,355.874,355.874,356.374,,,,,,,,,,,,,,3.444,0,,,,,,,,,,,,,,m,,,,,,,,,,,,,,,63,0,356.375,359.827,z,0,3.444,,[],[],[],[],[],[],[],359.827,361.824,361.825,361.825,[],[],[],[],[],[],[],,361.825,361.826,0.52826087,0.319565217,0,0,0,,0,62,62,146,1,1,word,RETIRE,cursive,retire_c.png,,,,,,
,,,,32009,001,2025-10-16_12h28.19.813,HW_LDT_1,2024.2.4,MacIntel,58.82352941,,,,,,,,,,,,,,,,,,,,361.827,362.024,362.024,362.524,,,,,,,,,,,,,,1.493,1,,,,,,,,,,,,,,m,,,,,,,,,,,,,,,64,0,362.525,364.026,m,1,1.493,,[],[],[],[],[],[],[],364.026,366.024,366.024,366.025,[],[],[],[],[],[],[],,366.025,366.025,0.52826087,0.319565217,0,0,0,,0,63,63,86,1,1,word,BESIDE,print,beside_p.png,,,,,,
,,,,32009,001,2025-10-16_12h28.19.813,HW_LDT_1,2024.2.4,MacIntel,58.82352941,,,,,,,,,,,,,,,,,,,,366.026,366.224,366.224,366.724,,,,,,,,,,,,,,0.877,1,,,,,,,,,,,,,,m,,,,,,,,,,,,,,,65,0,366.725,367.608,m,1,0.877,,[],[],[],[],[],[],[],367.608,369.607,369.607,369.608,[],[],[],[],[],[],[],,369.608,369.608,0.52826087,0.319565217,0,0,0,,0,64,64,152,1,1,word,SPECIMEN,cursive,specimen_c.png,,,,,,
,,,,32009,001,2025-10-16_12h28.19.813,HW_LDT_1,2024.2.4,MacIntel,58.82352941,,,,,,,,,,,,,,,,,,,,369.609,369.808,369.808,370.308,,,,,,,,,,,,,,1.912,1,,,,,,,,,,,,,,z,,,,,,,,,,,,,,,66,0,370.308,372.226,z,1,1.912,,[],[],[],[],[],[],[],372.226,374.225,374.225,374.225,[],[],[],[],[],[],[],,374.225,374.225,0.52826087,0.319565217,0,0,0,,0,65,65,21,1,1,RL,opcifal,print,opcifal_p.png,,,,,,
,,,,32009,001,2025-10-16_12h28.19.813,HW_LDT_1,2024.2.4,MacIntel,58.82352941,,,,,,,,,,,,,,,,,,,,374.226,374.424,374.424,374.924,,,,,,,,,,,,,,0.954,1,,,,,,,,,,,,,,m,,,,,,,,,,,,,,,67,0,374.925,375.891,m,1,0.954,,[],[],[],[],[],[],[],375.892,377.891,377.891,377.892,[],[],[],[],[],[],[],,377.892,377.892,0.52826087,0.319565217,0,0,0,,0,66,66,84,1,1,word,BELOVED,print,beloved_p.png,,,,,,
,,,,32009,001,2025-10-16_12h28.19.813,HW_LDT_1,2024.2.4,MacIntel,58.82352941,,,,,,,,,,,,,,,,,,,,377.893,378.091,378.091,378.591,,,,,,,,,,,,,,1.737,1,,,,,,,,,,,,,,m,,,,,,,,,,,,,,,68,0,378.592,380.341,m,1,1.737,,[],[],[],[],[],[],[],380.341,382.341,382.341,382.342,[],[],[],[],[],[],[],,382.342,382.342,0.52826087,0.319565217,0,0,0,,0,67,67,157,1,1,word,VALIDITY,cursive,validity_c.png,,,,,,
,,,,32009,001,2025-10-16_12h28.19.813,HW_LDT_1,2024.2.4,MacIntel,58.82352941,,,,,,,,,,,,,,,,,,,,382.344,382.541,382.541,383.041,,,,,,,,,,,,,,0.895,1,,,,,,,,,,,,,,z,,,,,,,,,,,,,,,69,0,383.042,383.942,z,1,0.895,,[],[],[],[],[],[],[],383.942,385.941,385.941,385.941,[],[],[],[],[],[],[],,385.941,385.942,0.52826087,0.319565217,0,0,0,,0,68,68,65,1,1,TL,orinigal,cursive,orinigal_c.png,,,,,,
,,,,32009,001,2025-10-16_12h28.19.813,HW_LDT_1,2024.2.4,MacIntel,58.82352941,,,,,,,,,,,,,,,,,,,,385.943,386.141,386.141,386.641,,,,,,,,,,,,,,0.637,1,,,,,,,,,,,,,,z,,,,,,,,,,,,,,,70,0,386.641,387.291,z,1,0.637,,[],[],[],[],[],[],[],387.291,389.291,389.291,389.292,[],[],[],[],[],[],[],,389.292,389.292,0.52826087,0.319565217,0,0,0,,0,69,69,37,1,1,RL,skofen,print,skofen_p.png,,,,,,
,,,,32009,001,2025-10-16_12h28.19.813,HW_LDT_1,2024.2.4,MacIntel,58.82352941,,,,,,,,,,,,,,,,,,,,389.293,389.491,389.491,389.991,,,,,,,,,,,,,,1.454,1,,,,,,,,,,,,,,z,,,,,,,,,,,,,,,71,0,389.991,391.458,z,1,1.454,,[],[],[],[],[],[],[],391.458,393.458,393.458,393.458,[],[],[],[],[],[],[],,393.458,393.458,0.52826087,0.319565217,0,0,0,,0,70,70,74,1,1,TL,setanor,cursive,setanor_c.png,,,,,,
,,,,32009,001,2025-10-16_12h28.19.813,HW_LDT_1,2024.2.4,MacIntel,58.82352941,,,,,,,,,,,,,,,,,,,,393.459,393.658,393.658,394.158,,,,,,,,,,,,,,0.729,1,,,,,,,,,,,,,,m,,,,,,,,,,,,,,,72,1,394.158,394.892,m,1,0.729,,[],[],[],[],[],[],[],394.892,396.891,396.891,398.374,[],[],[],[],[],[],[],m,398.375,398.375,0.52826087,0.319565217,0,0,0,,0,71,71,136,1,1,word,RADICAL,print,radical_p.png,1.476,,,,,
,,,,32009,001,2025-10-16_12h28.19.813,HW_LDT_1,2024.2.4,MacIntel,58.82352941,,,,,,,,,,,,,,,,,,,,398.376,398.574,398.574,399.074,,,,,,,,,,,,,,0.988,0,,,,,,,,,,,,,,z,,,,,,,,,,,,,,,73,1,399.075,400.074,m,0,0.988,,[],[],[],[],[],[],[],400.074,402.074,402.074,403.277,[],[],[],[],[],[],[],z,403.277,403.277,0.52826087,0.319565217,0,0,0,,0,72,72,61,1,1,TL,mecidine,cursive,mecidine_c.png,1.197,,,,,
,,,,32009,001,2025-10-16_12h28.19.813,HW_LDT_1,2024.2.4,MacIntel,58.82352941,,,,,,,,,,,,,,,,,,,,403.278,403.474,403.474,403.974,,,,,,,,,,,,,,1.139,1,,,,,,,,,,,,,,z,,,,,,,,,,,,,,,74,0,403.974,405.124,z,1,1.139,,[],[],[],[],[],[],[],405.124,407.124,407.124,407.125,[],[],[],[],[],[],[],,407.125,407.125,0.52826087,0.319565217,0,0,0,,0,73,73,13,1,1,RL,linefal,print,linefal_p.png,,,,,,
,,,,32009,001,2025-10-16_12h28.19.813,HW_LDT_1,2024.2.4,MacIntel,58.82352941,,,,,,,,,,,,,,,,,,,,407.126,407.324,407.324,407.824,,,,,,,,,,,,,,0.986,1,,,,,,,,,,,,,,z,,,,,,,,,,,,,,,75,1,407.825,408.824,z,1,0.986,,[],[],[],[],[],[],[],408.824,410.823,410.823,412.642,[],[],[],[],[],[],[],z,412.642,412.643,0.52826087,0.319565217,0,0,0,,0,74,74,30,1,1,RL,relone,print,relone_p.png,1.811,,,,,
,,,,32009,001,2025-10-16_12h28.19.813,HW_LDT_1,2024.2.4,MacIntel,58.82352941,,,,,,,,,,,,,,,,,,,,412.643,412.841,412.841,413.341,,,,,,,,,,,,,,0.961,1,,,,,,,,,,,,,,m,,,,,,,,,,,,,,,76,0,413.341,414.309,m,1,0.961,,[],[],[],[],[],[],[],414.309,416.307,416.307,416.308,[],[],[],[],[],[],[],,416.308,416.308,0.52826087,0.319565217,0,0,0,,0,75,75,139,1,1,word,REGULAR,print,regular_p.png,,,,,,
,,,,32009,001,2025-10-16_12h28.19.813,HW_LDT_1,2024.2.4,MacIntel,58.82352941,,,,,,,,,,,,,,,,,,,,416.309,416.507,416.507,417.007,,,,,,,,,,,,,,0.996,1,,,,,,,,,,,,,,z,,,,,,,,,,,,,,,77,1,417.008,418.009,z,1,0.996,,[],[],[],[],[],[],[],418.009,420.007,420.007,421.141,[],[],[],[],[],[],[],m,421.141,421.141,0.52826087,0.319565217,0,0,0,,0,76,76,51,1,1,TL,corevage,print,corevage_p.png,1.127,,,,,
,,,,32009,001,2025-10-16_12h28.19.813,HW_LDT_1,2024.2.4,MacIntel,58.82352941,,,,,,,,,,,,,,,,,,,,421.142,421.341,421.341,421.841,,,,,,,,,,,,,,1.404,1,,,,,,,,,,,,,,m,,,,,,,,,,,,,,,78,0,421.841,423.257,m,1,1.404,,[],[],[],[],[],[],[],423.257,425.257,425.257,425.258,[],[],[],[],[],[],[],,425.258,425.258,0.52826087,0.319565217,0,0,0,,0,77,77,96,1,1,word,CONSIDER,cursive,consider_c.png,,,,,,
,,,,32009,001,2025-10-16_12h28.19.813,HW_LDT_1,2024.2.4,MacIntel,58.82352941,,,,,,,,,,,,,,,,,,,,425.259,425.457,425.457,425.957,,,,,,,,,,,,,,0.976,1,,,,,,,,,,,,,,m,,,,,,,,,,,,,,,79,0,425.958,426.943,m,1,0.976,,[],[],[],[],[],[],[],426.943,428.941,428.941,428.941,[],[],[],[],[],[],[],,428.941,428.941,0.52826087,0.319565217,0,0,0,,0,78,78,143,1,1,word,REMOVAL,cursive,removal_c.png,,,,,,
,,,,32009,001,2025-10-16_12h28.19.813,HW_LDT_1,2024.2.4,MacIntel,58.82352941,,,,,,,,,,,,,,,,,,,,428.942,429.141,429.141,429.641,,,,,,,,,,,,,,1.328,1,,,,,,,,,,,,,,z,,,,,,,,,,,,,,,80,0,429.641,430.977,z,1,1.328,,[],[],[],[],[],[],[],430.977,432.974,432.974,432.975,[],[],[],[],[],[],[],,432.975,457.207,0.52826087,0.319565217,0,0,0,space,0,79,79,45,1,1,TL,cacapity,print,cacapity_p.png,,,24.207,,,
,,,,32009,001,2025-10-16_12h28.19.813,HW_LDT_1,2024.2.4,MacIntel,58.82352941,,,,,,,,,,,,,,,,,,,,457.208,457.407,457.407,457.907,,,,,,,,,,,,,,0.944,0,,,,,,,,,,,,,,m,,,,,,,,,,,,,,,81,0,457.908,458.858,z,0,0.944,,[],[],[],[],[],[],[],458.858,460.857,460.857,460.858,[],[],[],[],[],[],[],,460.858,460.858,0.52826087,0.319565217,0,0,0,,0,80,80,149,1,1,word,SENATOR,cursive,senator_c.png,,,,,,
,,,,32009,001,2025-10-16_12h28.19.813,HW_LDT_1,2024.2.4,MacIntel,58.82352941,,,,,,,,,,,,,,,,,,,,460.859,461.057,461.057,461.558,,,,,,,,,,,,,,0.688,1,,,,,,,,,,,,,,m,,,,,,,,,,,,,,,82,0,461.558,462.257,m,1,0.688,,[],[],[],[],[],[],[],462.257,464.258,464.258,464.259,[],[],[],[],[],[],[],,464.259,464.259,0.52826087,0.319565217,0,0,0,,0,81,81,150,1,1,word,SENTIMENT,cursive,sentiment_c.png,,,,,,
,,,,32009,001,2025-10-16_12h28.19.813,HW_LDT_1,2024.2.4,MacIntel,58.82352941,,,,,,,,,,,,,,,,,,,,464.26,464.457,464.457,464.957,,,,,,,,,,,,,,1.036,1,,,,,,,,,,,,,,m,,,,,,,,,,,,,,,83,0,464.958,466.006,m,1,1.036,,[],[],[],[],[],[],[],466.007,468.007,468.007,468.008,[],[],[],[],[],[],[],,468.008,468.009,0.52826087,0.319565217,0,0,0,,0,82,82,145,1,1,word,RESUME,print,resume_p.png,,,,,,
,,,,32009,001,2025-10-16_12h28.19.813,HW_LDT_1,2024.2.4,MacIntel,58.82352941,,,,,,,,,,,,,,,,,,,,468.01,468.207,468.208,468.707,,,,,,,,,,,,,,3.736,0,,,,,,,,,,,,,,m,,,,,,,,,,,,,,,84,0,468.708,472.457,z,0,3.736,,[],[],[],[],[],[],[],472.458,474.457,474.457,474.458,[],[],[],[],[],[],[],,474.458,474.458,0.525,0.243478261,0,0,0,,0,83,83,102,1,1,word,DENSITY,cursive,density_c.png,,,,,,
,,,,32009,001,2025-10-16_12h28.19.813,HW_LDT_1,2024.2.4,MacIntel,58.82352941,,,,,,,,,,,,,,,,,,,,474.459,474.657,474.657,475.157,,,,,,,,,,,,,,1.203,1,,,,,,,,,,,,,,z,,,,,,,,,,,,,,,85,0,475.158,476.374,z,1,1.203,,[],[],[],[],[],[],[],476.374,478.374,478.374,478.374,[],[],[],[],[],[],[],,478.375,478.375,0.525,0.243478261,0,0,0,,0,84,84,14,1,1,RL,lofase,print,lofase_p.png,,,,,,
,,,,32009,001,2025-10-16_12h28.19.813,HW_LDT_1,2024.2.4,MacIntel,58.82352941,,,,,,,,,,,,,,,,,,,,478.376,478.574,478.574,479.074,,,,,,,,,,,,,,1.328,1,,,,,,,,,,,,,,m,,,,,,,,,,,,,,,86,0,479.075,480.411,m,1,1.328,,[],[],[],[],[],[],[],480.411,482.407,482.407,482.408,[],[],[],[],[],[],[],,482.408,482.408,0.525,0.243478261,0,0,0,,0,85,85,92,1,1,word,CATEGORY,print,category_p.png,,,,,,
,,,,32009,001,2025-10-16_12h28.19.813,HW_LDT_1,2024.2.4,MacIntel,58.82352941,,,,,,,,,,,,,,,,,,,,482.409,482.607,482.607,483.107,,,,,,,,,,,,,,0.729,1,,,,,,,,,,,,,,z,,,,,,,,,,,,,,,87,0,483.108,483.845,z,1,0.729,,[],[],[],[],[],[],[],483.845,485.841,485.841,485.841,[],[],[],[],[],[],[],,485.841,485.841,0.525,0.243478261,0,0,0,,0,86,86,19,1,1,RL,monebate,print,monebate_p.png,,,,,,
,,,,32009,001,2025-10-16_12h28.19.813,HW_LDT_1,2024.2.4,MacIntel,58.82352941,,,,,,,,,,,,,,,,,,,,485.842,486.04,486.04,486.54,,,,,,,,,,,,,,1.804,1,,,,,,,,,,,,,,z,,,,,,,,,,,,,,,88,0,486.54,488.357,z,1,1.804,,[],[],[],[],[],[],[],488.357,490.357,490.357,490.357,[],[],[],[],[],[],[],,490.358,490.358,0.525,0.243478261,0,0,0,,0,87,87,77,1,1,TL,tritube,cursive,tritube_c.png,,,,,,
,,,,32009,001,2025-10-16_12h28.19.813,HW_LDT_1,2024.2.4,MacIntel,58.82352941,,,,,,,,,,,,,,,,,,,,490.359,490.557,490.557,491.056,,,,,,,,,,,,,,1.504,0,,,,,,,,,,,,,,z,,,,,,,,,,,,,,,89,0,491.057,492.574,m,0,1.504,,[],[],[],[],[],[],[],492.574,494.574,494.574,494.575,[],[],[],[],[],[],[],,494.575,494.575,0.525,0.243478261,0,0,0,,0,88,88,17,1,1,RL,menowy,cursive,menowy_c.png,,,,,,
,,,,32009,001,2025-10-16_12h28.19.813,HW_LDT_1,2024.2.4,MacIntel,58.82352941,,,,,,,,,,,,,,,,,,,,494.577,494.774,494.774,495.274,,,,,,,,,,,,,,1.643,1,,,,,,,,,,,,,,z,,,,,,,,,,,,,,,90,0,495.275,496.926,z,1,1.643,,[],[],[],[],[],[],[],496.926,498.924,498.924,498.924,[],[],[],[],[],[],[],,498.924,498.925,0.525,0.243478261,0,0,0,,0,89,89,15,1,1,RL,losipal,cursive,losipal_c.png,,,,,,
,,,,32009,001,2025-10-16_12h28.19.813,HW_LDT_1,2024.2.4,MacIntel,58.82352941,,,,,,,,,,,,,,,,,,,,498.925,499.124,499.124,499.624,,,,,,,,,,,,,,2.326,1,,,,,,,,,,,,,,z,,,,,,,,,,,,,,,91,0,499.624,501.956,z,1,2.326,,[],[],[],[],[],[],[],501.957,503.957,503.957,503.958,[],[],[],[],[],[],[],,503.958,503.958,0.525,0.243478261,0,0,0,,0,90,90,53,1,1,TL,dentisy,cursive,dentisy_c.png,,,,,,
,,,,32009,001,2025-10-16_12h28.19.813,HW_LDT_1,2024.2.4,MacIntel,58.82352941,,,,,,,,,,,,,,,,,,,,503.959,504.157,504.157,504.657,,,,,,,,,,,,,,0.897,1,,,,,,,,,,,,,,m,,,,,,,,,,,,,,,92,0,504.657,505.559,m,1,0.897,,[],[],[],[],[],[],[],505.559,507.557,507.557,507.558,[],[],[],[],[],[],[],,507.558,507.558,0.525,0.243478261,0,0,0,,0,91,91,93,1,1,word,CEREMONY,cursive,ceremony_c.png,,,,,,
,,,,32009,001,2025-10-16_12h28.19.813,HW_LDT_1,2024.2.4,MacIntel,58.82352941,,,,,,,,,,,,,,,,,,,,507.559,507.757,507.757,508.257,,,,,,,,,,,,,,0.629,1,,,,,,,,,,,,,,m,,,,,,,,,,,,,,,93,0,508.257,508.892,m,1,0.629,,[],[],[],[],[],[],[],508.892,510.89,510.89,510.891,[],[],[],[],[],[],[],,510.891,510.891,0.525,0.243478261,0,0,0,,0,92,92,144,1,1,word,RESIDENT,print,resident_p.png,,,,,,
,,,,32009,001,2025-10-16_12h28.19.813,HW_LDT_1,2024.2.4,MacIntel,58.82352941,,,,,,,,,,,,,,,,,,,,510.892,511.09,511.09,511.59,,,,,,,,,,,,,,0.961,1,,,,,,,,,,,,,,z,,,,,,,,,,,,,,,94,0,511.591,512.56,z,1,0.961,,[],[],[],[],[],[],[],512.56,514.557,514.557,514.557,[],[],[],[],[],[],[],,514.558,514.558,0.525,0.243478261,0,0,0,,0,93,93,33,1,1,RL,recile,cursive,recile_c.png,,,,,,
,,,,32009,001,2025-10-16_12h28.19.813,HW_LDT_1,2024.2.4,MacIntel,58.82352941,,,,,,,,,,,,,,,,,,,,514.559,514.757,514.757,515.257,,,,,,,,,,,,,,0.603,1,,,,,,,,,,,,,,m,,,,,,,,,,,,,,,95,0,515.257,515.874,m,1,0.603,,[],[],[],[],[],[],[],515.874,517.874,517.874,517.874,[],[],[],[],[],[],[],,517.874,517.874,0.525,0.243478261,0,0,0,,0,94,94,137,1,1,word,RAPIDLY,cursive,rapidly_c.png,,,,,,
,,,,32009,001,2025-10-16_12h28.19.813,HW_LDT_1,2024.2.4,MacIntel,58.82352941,,,,,,,,,,,,,,,,,,,,517.876,518.074,518.074,518.574,,,,,,,,,,,,,,0.878,1,,,,,,,,,,,,,,z,,,,,,,,,,,,,,,96,0,518.574,519.49,z,1,0.878,,[],[],[],[],[],[],[],519.49,521.49,521.49,521.491,[],[],[],[],[],[],[],,521.491,521.491,0.525,0.243478261,0,0,0,,0,95,95,72,1,1,TL,remuse,print,remuse_p.png,,,,,,
,,,,32009,001,2025-10-16_12h28.19.813,HW_LDT_1,2024.2.4,MacIntel,58.82352941,,,,,,,,,,,,,,,,,,,,521.492,521.69,521.69,522.19,,,,,,,,,,,,,,1.147,1,,,,,,,,,,,,,,z,,,,,,,,,,,,,,,97,0,522.191,523.343,z,1,1.147,,[],[],[],[],[],[],[],523.343,525.34,525.34,525.341,[],[],[],[],[],[],[],,525.341,525.341,0.525,0.243478261,0,0,0,,0,96,96,38,1,1,RL,stopave,cursive,stopave_c.png,,,,,,
,,,,32009,001,2025-10-16_12h28.19.813,HW_LDT_1,2024.2.4,MacIntel,58.82352941,,,,,,,,,,,,,,,,,,,,525.342,525.54,525.54,526.04,,,,,,,,,,,,,,2.055,1,,,,,,,,,,,,,,m,,,,,,,,,,,,,,,98,0,526.041,528.107,m,1,2.055,,[],[],[],[],[],[],[],528.107,530.107,530.107,530.107,[],[],[],[],[],[],[],,530.107,530.107,0.525,0.243478261,0,0,0,,0,97,97,155,1,1,word,STRATEGY,cursive,strategy_c.png,,,,,,
,,,,32009,001,2025-10-16_12h28.19.813,HW_LDT_1,2024.2.4,MacIntel,58.82352941,,,,,,,,,,,,,,,,,,,,530.109,530.307,530.307,530.807,,,,,,,,,,,,,,1.043,1,,,,,,,,,,,,,,z,,,,,,,,,,,,,,,99,0,530.807,531.858,z,1,1.043,,[],[],[],[],[],[],[],531.858,533.857,533.857,533.857,[],[],[],[],[],[],[],,533.857,533.857,0.525,0.243478261,0,0,0,,0,98,98,79,1,1,TL,veretan,print,veretan_p.png,,,,,,
,,,,32009,001,2025-10-16_12h28.19.813,HW_LDT_1,2024.2.4,MacIntel,58.82352941,,,,,,,,,,,,,,,,,,,,533.859,534.057,534.057,534.557,,,,,,,,,,,,,,1.371,1,,,,,,,,,,,,,,z,,,,,,,,,,,,,,,100,0,534.557,535.94,z,1,1.371,,[],[],[],[],[],[],[],535.94,537.94,537.94,537.941,[],[],[],[],[],[],[],,537.941,537.941,0.525,0.243478261,0,0,0,,0,99,99,41,1,1,TL,bevoled,print,bevoled_p.png,,,,,,
,,,,32009,001,2025-10-16_12h28.19.813,HW_LDT_1,2024.2.4,MacIntel,58.82352941,,,,,,,,,,,,,,,,,,,,537.942,538.14,538.14,538.64,,,,,,,,,,,,,,0.626,1,,,,,,,,,,,,,,m,,,,,,,,,,,,,,,101,0,538.641,539.273,m,1,0.626,,[],[],[],[],[],[],[],539.273,541.274,541.274,541.274,[],[],[],[],[],[],[],,541.274,541.274,0.525,0.243478261,0,0,0,,0,100,100,107,1,1,word,EVIDENT,print,evident_p.png,,,,,,
,,,,32009,001,2025-10-16_12h28.19.813,HW_LDT_1,2024.2.4,MacIntel,58.82352941,,,,,,,,,,,,,,,,,,,,541.275,541.473,541.474,541.973,,,,,,,,,,,,,,1.361,1,,,,,,,,,,,,,,m,,,,,,,,,,,,,,,102,1,541.973,543.342,m,1,1.361,,[],[],[],[],[],[],[],543.342,545.34,545.34,546.407,[],[],[],[],[],[],[],z,546.407,546.407,0.525,0.243478261,0,0,0,,0,101,101,154,1,1,word,STORAGE,cursive,storage_c.png,1.053,,,,,
,,,,32009,001,2025-10-16_12h28.19.813,HW_LDT_1,2024.2.4,MacIntel,58.82352941,,,,,,,,,,,,,,,,,,,,546.409,546.607,546.607,547.107,,,,,,,,,,,,,,0.926,1,,,,,,,,,,,,,,z,,,,,,,,,,,,,,,103,0,547.107,548.041,z,1,0.926,,[],[],[],[],[],[],[],548.041,550.04,550.04,550.041,[],[],[],[],[],[],[],,550.041,550.041,0.525,0.243478261,0,0,0,,0,102,102,60,1,1,TL,manire,print,manire_p.png,,,,,,
,,,,32009,001,2025-10-16_12h28.19.813,HW_LDT_1,2024.2.4,MacIntel,58.82352941,,,,,,,,,,,,,,,,,,,,550.042,550.24,550.24,550.739,,,,,,,,,,,,,,1.612,1,,,,,,,,,,,,,,m,,,,,,,,,,,,,,,104,0,550.739,552.359,m,1,1.612,,[],[],[],[],[],[],[],552.359,554.357,554.357,554.357,[],[],[],[],[],[],[],,554.357,554.358,0.525,0.243478261,0,0,0,,0,103,103,95,1,1,word,COMEDY,cursive,comedy_c.png,,,,,,
,,,,32009,001,2025-10-16_12h28.19.813,HW_LDT_1,2024.2.4,MacIntel,58.82352941,,,,,,,,,,,,,,,,,,,,554.359,554.557,554.557,555.056,,,,,,,,,,,,,,0.729,1,,,,,,,,,,,,,,z,,,,,,,,,,,,,,,105,0,555.056,555.793,z,1,0.729,,[],[],[],[],[],[],[],555.793,557.79,557.79,557.79,[],[],[],[],[],[],[],,557.791,557.791,0.525,0.243478261,0,0,0,,0,104,104,2,1,1,RL,asiral,print,asiral_p.png,,,,,,
,,,,32009,001,2025-10-16_12h28.19.813,HW_LDT_1,2024.2.4,MacIntel,58.82352941,,,,,,,,,,,,,,,,,,,,557.792,557.99,557.99,558.49,,,,,,,,,,,,,,0.653,1,,,,,,,,,,,,,,m,,,,,,,,,,,,,,,106,0,558.491,559.157,m,1,0.653,,[],[],[],[],[],[],[],559.157,561.157,561.157,561.157,[],[],[],[],[],[],[],,561.157,561.158,0.525,0.243478261,0,0,0,,0,105,105,130,1,1,word,POLICY,cursive,policy_c.png,,,,,,
,,,,32009,001,2025-10-16_12h28.19.813,HW_LDT_1,2024.2.4,MacIntel,58.82352941,,,,,,,,,,,,,,,,,,,,561.159,561.356,561.357,561.857,,,,,,,,,,,,,,0.809,1,,,,,,,,,,,,,,m,,,,,,,,,,,,,,,107,0,561.857,562.674,m,1,0.809,,[],[],[],[],[],[],[],562.674,564.673,564.673,564.673,[],[],[],[],[],[],[],,564.673,564.673,0.525,0.243478261,0,0,0,,0,106,106,115,1,1,word,LOGICAL,cursive,logical_c.png,,,,,,
,,,,32009,001,2025-10-16_12h28.19.813,HW_LDT_1,2024.2.4,MacIntel,58.82352941,,,,,,,,,,,,,,,,,,,,564.674,564.873,564.873,565.373,,,,,,,,,,,,,,1.953,0,,,,,,,,,,,,,,z,,,,,,,,,,,,,,,108,0,565.374,567.339,m,0,1.953,,[],[],[],[],[],[],[],567.339,569.34,569.34,569.341,[],[],[],[],[],[],[],,569.341,569.341,0.525,0.243478261,0,0,0,,0,107,107,48,1,1,TL,cemerony,cursive,cemerony_c.png,,,,,,
,,,,32009,001,2025-10-16_12h28.19.813,HW_LDT_1,2024.2.4,MacIntel,58.82352941,,,,,,,,,,,,,,,,,,,,569.342,569.54,569.54,570.04,,,,,,,,,,,,,,0.679,1,,,,,,,,,,,,,,m,,,,,,,,,,,,,,,109,0,570.041,570.728,m,1,0.679,,[],[],[],[],[],[],[],570.728,572.723,572.724,572.724,[],[],[],[],[],[],[],,572.724,572.724,0.525,0.243478261,0,0,0,,0,108,108,158,1,1,word,VELOCITY,print,velocity_p.png,,,,,,
,,,,32009,001,2025-10-16_12h28.19.813,HW_LDT_1,2024.2.4,MacIntel,58.82352941,,,,,,,,,,,,,,,,,,,,572.725,572.923,572.923,573.423,,,,,,,,,,,,,,0.554,1,,,,,,,,,,,,,,m,,,,,,,,,,,,,,,110,0,573.424,573.99,m,1,0.554,,[],[],[],[],[],[],[],573.991,575.99,575.99,575.99,[],[],[],[],[],[],[],,575.99,575.991,0.525,0.243478261,0,0,0,,0,109,109,99,1,1,word,DEBATE,print,debate_p.png,,,,,,
,,,,32009,001,2025-10-16_12h28.19.813,HW_LDT_1,2024.2.4,MacIntel,58.82352941,,,,,,,,,,,,,,,,,,,,575.992,576.19,576.19,576.69,,,,,,,,,,,,,,0.613,1,,,,,,,,,,,,,,z,,,,,,,,,,,,,,,111,0,576.69,577.308,z,1,0.613,,[],[],[],[],[],[],[],577.308,579.307,579.307,579.308,[],[],[],[],[],[],[],,579.308,579.308,0.525,0.243478261,0,0,0,,0,110,110,28,1,1,RL,renutal,print,renutal_p.png,,,,,,
,,,,32009,001,2025-10-16_12h28.19.813,HW_LDT_1,2024.2.4,MacIntel,58.82352941,,,,,,,,,,,,,,,,,,,,579.309,579.507,579.507,580.007,,,,,,,,,,,,,,1.137,1,,,,,,,,,,,,,,z,,,,,,,,,,,,,,,112,0,580.007,581.158,z,1,1.137,,[],[],[],[],[],[],[],581.158,583.157,583.157,583.157,[],[],[],[],[],[],[],,583.157,583.157,0.525,0.243478261,0,0,0,,0,111,111,55,1,1,TL,fornute,print,fornute_p.png,,,,,,
,,,,32009,001,2025-10-16_12h28.19.813,HW_LDT_1,2024.2.4,MacIntel,58.82352941,,,,,,,,,,,,,,,,,,,,583.158,583.357,583.357,583.856,,,,,,,,,,,,,,0.687,1,,,,,,,,,,,,,,z,,,,,,,,,,,,,,,113,0,583.857,584.556,z,1,0.687,,[],[],[],[],[],[],[],584.557,586.556,586.556,586.557,[],[],[],[],[],[],[],,586.557,586.557,0.525,0.243478261,0,0,0,,0,112,112,27,1,1,RL,rasibal,print,rasibal_p.png,,,,,,
,,,,32009,001,2025-10-16_12h28.19.813,HW_LDT_1,2024.2.4,MacIntel,58.82352941,,,,,,,,,,,,,,,,,,,,586.558,586.757,586.757,587.257,,,,,,,,,,,,,,0.592,0,,,,,,,,,,,,,,z,,,,,,,,,,,,,,,114,0,587.257,587.858,m,0,0.592,,[],[],[],[],[],[],[],587.858,589.856,589.857,589.857,[],[],[],[],[],[],[],,589.857,589.857,0.525,0.243478261,0,0,0,,0,113,113,66,1,1,TL,panert,cursive,panert_c.png,,,,,,
,,,,32009,001,2025-10-16_12h28.19.813,HW_LDT_1,2024.2.4,MacIntel,58.82352941,,,,,,,,,,,,,,,,,,,,589.858,590.056,590.056,590.557,,,,,,,,,,,,,,2.172,1,,,,,,,,,,,,,,m,,,,,,,,,,,,,,,115,0,590.557,592.74,m,1,2.172,,[],[],[],[],[],[],[],592.74,594.74,594.74,594.74,[],[],[],[],[],[],[],,594.741,594.741,0.525,0.243478261,0,0,0,,0,114,114,119,1,1,word,MEMORY,cursive,memory_c.png,,,,,,
,,,,32009,001,2025-10-16_12h28.19.813,HW_LDT_1,2024.2.4,MacIntel,58.82352941,,,,,,,,,,,,,,,,,,,,594.742,594.94,594.94,595.44,,,,,,,,,,,,,,0.988,1,,,,,,,,,,,,,,z,,,,,,,,,,,,,,,116,0,595.441,596.442,z,1,0.988,,[],[],[],[],[],[],[],596.442,598.44,598.44,598.441,[],[],[],[],[],[],[],,598.441,598.441,0.525,0.243478261,0,0,0,,0,115,115,42,1,1,TL,befenit,print,befenit_p.png,,,,,,
,,,,32009,001,2025-10-16_12h28.19.813,HW_LDT_1,2024.2.4,MacIntel,58.82352941,,,,,,,,,,,,,,,,,,,,598.443,598.64,598.64,599.141,,,,,,,,,,,,,,0.87,1,,,,,,,,,,,,,,z,,,,,,,,,,,,,,,117,0,599.141,600.023,z,1,0.87,,[],[],[],[],[],[],[],600.024,602.023,602.023,602.024,[],[],[],[],[],[],[],,602.024,602.024,0.525,0.243478261,0,0,0,,0,116,116,22,1,1,RL,patisic,print,patisic_p.png,,,,,,
,,,,32009,001,2025-10-16_12h28.19.813,HW_LDT_1,2024.2.4,MacIntel,58.82352941,,,,,,,,,,,,,,,,,,,,602.025,602.223,602.223,602.723,,,,,,,,,,,,,,0.759,1,,,,,,,,,,,,,,m,,,,,,,,,,,,,,,118,0,602.724,603.49,m,1,0.759,,[],[],[],[],[],[],[],603.49,605.49,605.49,605.49,[],[],[],[],[],[],[],,605.49,605.491,0.525,0.243478261,0,0,0,,0,117,117,148,1,1,word,SALINE,print,saline_p.png,,,,,,
,,,,32009,001,2025-10-16_12h28.19.813,HW_LDT_1,2024.2.4,MacIntel,58.82352941,,,,,,,,,,,,,,,,,,,,605.492,605.69,605.69,606.19,,,,,,,,,,,,,,2.059,1,,,,,,,,,,,,,,z,,,,,,,,,,,,,,,119,0,606.19,608.257,z,1,2.059,,[],[],[],[],[],[],[],608.257,610.256,610.256,610.257,[],[],[],[],[],[],[],,610.257,610.257,0.525,0.243478261,0,0,0,,0,118,118,52,1,1,TL,decilate,cursive,decilate_c.png,,,,,,
,,,,32009,001,2025-10-16_12h28.19.813,HW_LDT_1,2024.2.4,MacIntel,58.82352941,,,,,,,,,,,,,,,,,,,,610.258,610.456,610.456,610.957,,,,,,,,,,,,,,0.753,1,,,,,,,,,,,,,,m,,,,,,,,,,,,,,,120,0,610.957,611.723,m,1,0.753,,[],[],[],[],[],[],[],611.723,613.723,613.723,613.723,[],[],[],[],[],[],[],,613.724,613.724,0.525,0.243478261,0,0,0,,0,119,119,109,1,1,word,GRATEFUL,print,grateful_p.png,,,,,,
,,,,32009,001,2025-10-16_12h28.19.813,HW_LDT_1,2024.2.4,MacIntel,58.82352941,,,,,,,,,,,,,,,,,,,,613.725,613.923,613.923,614.423,,,,,,,,,,,,,,0.821,1,,,,,,,,,,,,,,m,,,,,,,,,,,,,,,121,1,614.424,615.256,m,1,0.821,,[],[],[],[],[],[],[],615.257,617.256,617.257,618.04,[],[],[],[],[],[],[],m,618.04,618.04,0.523913043,0.243478261,0,0,0,,0,120,120,90,1,1,word,CAPITAL,print,capital_p.png,0.776,,,,,
,,,,32009,001,2025-10-16_12h28.19.813,HW_LDT_1,2024.2.4,MacIntel,58.82352941,,,,,,,,,,,,,,,,,,,,618.04,618.24,618.24,618.74,,,,,,,,,,,,,,0.637,1,,,,,,,,,,,,,,m,,,,,,,,,,,,,,,122,0,618.74,619.39,m,1,0.637,,[],[],[],[],[],[],[],619.391,621.39,621.39,621.391,[],[],[],[],[],[],[],,621.391,621.391,0.523913043,0.243478261,0,0,0,,0,121,121,117,1,1,word,MARINE,print,marine_p.png,,,,,,
,,,,32009,001,2025-10-16_12h28.19.813,HW_LDT_1,2024.2.4,MacIntel,58.82352941,,,,,,,,,,,,,,,,,,,,621.393,621.59,621.59,622.09,,,,,,,,,,,,,,0.841,1,,,,,,,,,,,,,,m,,,,,,,,,,,,,,,123,0,622.091,622.94,m,1,0.841,,[],[],[],[],[],[],[],622.94,624.94,624.94,624.94,[],[],[],[],[],[],[],,624.94,624.94,0.523913043,0.243478261,0,0,0,,0,122,122,127,1,1,word,ORIGINAL,cursive,original_c.png,,,,,,
,,,,32009,001,2025-10-16_12h28.19.813,HW_LDT_1,2024.2.4,MacIntel,58.82352941,,,,,,,,,,,,,,,,,,,,624.941,625.14,625.14,625.64,,,,,,,,,,,,,,1.176,1,,,,,,,,,,,,,,z,,,,,,,,,,,,,,,124,0,625.64,626.823,z,1,1.176,,[],[],[],[],[],[],[],626.823,628.823,628.823,628.823,[],[],[],[],[],[],[],,628.823,628.823,0.523913043,0.243478261,0,0,0,,0,123,123,68,1,1,TL,prosopal,cursive,prosopal_c.png,,,,,,
,,,,32009,001,2025-10-16_12h28.19.813,HW_LDT_1,2024.2.4,MacIntel,58.82352941,,,,,,,,,,,,,,,,,,,,628.824,629.023,629.023,629.523,,,,,,,,,,,,,,0.921,1,,,,,,,,,,,,,,m,,,,,,,,,,,,,,,125,0,629.524,630.455,m,1,0.921,,[],[],[],[],[],[],[],630.455,632.456,632.456,632.457,[],[],[],[],[],[],[],,632.457,632.457,0.523913043,0.243478261,0,0,0,,0,124,124,159,1,1,word,VETERAN,print,veteran_p.png,,,,,,
,,,,32009,001,2025-10-16_12h28.19.813,HW_LDT_1,2024.2.4,MacIntel,58.82352941,,,,,,,,,,,,,,,,,,,,632.458,632.656,632.656,633.156,,,,,,,,,,,,,,1.204,0,,,,,,,,,,,,,,z,,,,,,,,,,,,,,,126,0,633.157,634.373,m,0,1.204,,[],[],[],[],[],[],[],634.373,636.373,636.373,636.373,[],[],[],[],[],[],[],,636.373,636.374,0.523913043,0.243478261,0,0,0,,0,125,125,36,1,1,RL,speniven,cursive,speniven_c.png,,,,,,
,,,,32009,001,2025-10-16_12h28.19.813,HW_LDT_1,2024.2.4,MacIntel,58.82352941,,,,,,,,,,,,,,,,,,,,636.374,636.573,636.573,637.074,,,,,,,,,,,,,,0.629,0,,,,,,,,,,,,,,z,,,,,,,,,,,,,,,127,0,637.074,637.709,m,0,0.629,,[],[],[],[],[],[],[],637.709,639.706,639.706,639.707,[],[],[],[],[],[],[],,639.707,639.707,0.523913043,0.243478261,0,0,0,,0,126,126,62,1,1,TL,mitilary,print,mitilary_p.png,,,,,,
,,,,32009,001,2025-10-16_12h28.19.813,HW_LDT_1,2024.2.4,MacIntel,58.82352941,,,,,,,,,,,,,,,,,,,,639.708,639.906,639.906,640.406,,,,,,,,,,,,,,0.898,0,,,,,,,,,,,,,,m,,,,,,,,,,,,,,,128,0,640.407,641.308,z,0,0.898,,[],[],[],[],[],[],[],641.308,643.306,643.306,643.307,[],[],[],[],[],[],[],,643.307,643.307,0.523913043,0.243478261,0,0,0,,0,127,127,147,1,1,word,ROMANTIC,cursive,romantic_c.png,,,,,,
,,,,32009,001,2025-10-16_12h28.19.813,HW_LDT_1,2024.2.4,MacIntel,58.82352941,,,,,,,,,,,,,,,,,,,,643.308,643.506,643.506,644.006,,,,,,,,,,,,,,2.371,1,,,,,,,,,,,,,,z,,,,,,,,,,,,,,,129,1,644.007,646.389,z,1,2.371,,[],[],[],[],[],[],[],646.389,648.389,648.39,649.408,[],[],[],[],[],[],[],z,649.409,649.409,0.523913043,0.243478261,0,0,0,,0,128,128,35,1,1,RL,senvilent,cursive,senvilent_c.png,1.011,,,,,
,,,,32009,001,2025-10-16_12h28.19.813,HW_LDT_1,2024.2.4,MacIntel,58.82352941,,,,,,,,,,,,,,,,,,,,649.409,649.606,649.606,650.106,,,,,,,,,,,,,,1.287,0,,,,,,,,,,,,,,m,,,,,,,,,,,,,,,130,0,650.106,651.406,z,0,1.287,,[],[],[],[],[],[],[],651.406,653.406,653.406,653.407,[],[],[],[],[],[],[],,653.407,653.407,0.523913043,0.243478261,0,0,0,,0,129,129,125,1,1,word,OPERATOR,cursive,operator_c.png,,,,,,
,,,,32009,001,2025-10-16_12h28.19.813,HW_LDT_1,2024.2.4,MacIntel,58.82352941,,,,,,,,,,,,,,,,,,,,653.408,653.606,653.606,654.106,,,,,,,,,,,,,,0.637,1,,,,,,,,,,,,,,m,,,,,,,,,,,,,,,131,0,654.107,654.756,m,1,0.637,,[],[],[],[],[],[],[],654.756,656.756,656.756,656.757,[],[],[],[],[],[],[],,656.757,656.757,0.523913043,0.243478261,0,0,0,,0,130,130,114,1,1,word,LOCATE,print,locate_p.png,,,,,,
,,,,32009,001,2025-10-16_12h28.19.813,HW_LDT_1,2024.2.4,MacIntel,58.82352941,,,,,,,,,,,,,,,,,,,,656.758,656.956,656.956,657.456,,,,,,,,,,,,,,0.804,1,,,,,,,,,,,,,,m,,,,,,,,,,,,,,,132,0,657.457,658.273,m,1,0.804,,[],[],[],[],[],[],[],658.273,660.273,660.273,660.273,[],[],[],[],[],[],[],,660.274,660.274,0.523913043,0.243478261,0,0,0,,0,131,131,88,1,1,word,CAMERA,cursive,camera_c.png,,,,,,
,,,,32009,001,2025-10-16_12h28.19.813,HW_LDT_1,2024.2.4,MacIntel,58.82352941,,,,,,,,,,,,,,,,,,,,660.275,660.473,660.473,660.973,,,,,,,,,,,,,,1.036,0,,,,,,,,,,,,,,z,,,,,,,,,,,,,,,133,0,660.973,662.023,m,0,1.036,,[],[],[],[],[],[],[],662.023,664.023,664.023,664.023,[],[],[],[],[],[],[],,664.023,664.024,0.523913043,0.243478261,0,0,0,,0,132,132,78,1,1,TL,vecolity,print,vecolity_p.png,,,,,,
,,,,32009,001,2025-10-16_12h28.19.813,HW_LDT_1,2024.2.4,MacIntel,58.82352941,,,,,,,,,,,,,,,,,,,,664.025,664.223,664.223,664.723,,,,,,,,,,,,,,1.12,1,,,,,,,,,,,,,,m,,,,,,,,,,,,,,,134,0,664.723,665.856,m,1,1.12,,[],[],[],[],[],[],[],665.856,667.856,667.856,667.857,[],[],[],[],[],[],[],,667.857,667.857,0.523913043,0.243478261,0,0,0,,0,133,133,81,1,1,word,ADVISORY,cursive,advisory_c.png,,,,,,
,,,,32009,001,2025-10-16_12h28.19.813,HW_LDT_1,2024.2.4,MacIntel,58.82352941,,,,,,,,,,,,,,,,,,,,667.858,668.056,668.056,668.556,,,,,,,,,,,,,,0.812,0,,,,,,,,,,,,,,z,,,,,,,,,,,,,,,135,0,668.557,669.376,m,0,0.812,,[],[],[],[],[],[],[],669.376,671.373,671.373,671.373,[],[],[],[],[],[],[],,671.373,671.373,0.523913043,0.243478261,0,0,0,,0,134,134,75,1,1,TL,speficic,cursive,speficic_c.png,,,,,,
,,,,32009,001,2025-10-16_12h28.19.813,HW_LDT_1,2024.2.4,MacIntel,58.82352941,,,,,,,,,,,,,,,,,,,,671.374,671.573,671.573,672.073,,,,,,,,,,,,,,2.013,0,,,,,,,,,,,,,,z,,,,,,,,,,,,,,,136,0,672.073,674.092,m,0,2.013,,[],[],[],[],[],[],[],674.092,676.089,676.089,676.09,[],[],[],[],[],[],[],,676.09,676.09,0.523913043,0.243478261,0,0,0,,0,135,135,16,1,1,RL,marmipal,print,marmipal_p.png,,,,,,
,,,,32009,001,2025-10-16_12h28.19.813,HW_LDT_1,2024.2.4,MacIntel,58.82352941,,,,,,,,,,,,,,,,,,,,676.091,676.289,676.289,676.789,,,,,,,,,,,,,,1.113,1,,,,,,,,,,,,,,m,,,,,,,,,,,,,,,137,0,676.79,677.908,m,1,1.113,,[],[],[],[],[],[],[],677.908,679.906,679.906,679.907,[],[],[],[],[],[],[],,679.907,679.907,0.523913043,0.243478261,0,0,0,,0,136,136,83,1,1,word,ANIMAL,print,animal_p.png,,,,,,
,,,,32009,001,2025-10-16_12h28.19.813,HW_LDT_1,2024.2.4,MacIntel,58.82352941,,,,,,,,,,,,,,,,,,,,679.908,680.106,680.106,680.606,,,,,,,,,,,,,,1.688,1,,,,,,,,,,,,,,z,,,,,,,,,,,,,,,138,0,680.606,682.306,z,1,1.688,,[],[],[],[],[],[],[],682.306,684.306,684.306,684.307,[],[],[],[],[],[],[],,684.307,684.307,0.523913043,0.243478261,0,0,0,,0,137,137,67,1,1,TL,pocily,cursive,pocily_c.png,,,,,,
,,,,32009,001,2025-10-16_12h28.19.813,HW_LDT_1,2024.2.4,MacIntel,58.82352941,,,,,,,,,,,,,,,,,,,,684.308,684.506,684.506,685.006,,,,,,,,,,,,,,1.037,0,,,,,,,,,,,,,,m,,,,,,,,,,,,,,,139,1,685.007,686.056,z,0,1.037,,[],[],[],[],[],[],[],686.056,688.056,688.056,689.039,[],[],[],[],[],[],[],z,689.039,689.039,0.523913043,0.243478261,0,0,0,,0,138,138,101,1,1,word,DELICATE,cursive,delicate_c.png,0.972,,,,,
,,,,32009,001,2025-10-16_12h28.19.813,HW_LDT_1,2024.2.4,MacIntel,58.82352941,,,,,,,,,,,,,,,,,,,,689.04,689.239,689.239,689.739,,,,,,,,,,,,,,0.704,1,,,,,,,,,,,,,,z,,,,,,,,,,,,,,,140,0,689.74,690.456,z,1,0.704,,[],[],[],[],[],[],[],690.456,692.455,692.455,692.455,[],[],[],[],[],[],[],,692.456,692.456,0.523913043,0.243478261,0,0,0,,0,139,139,43,1,1,TL,bedise,print,bedise_p.png,,,,,,
,,,,32009,001,2025-10-16_12h28.19.813,HW_LDT_1,2024.2.4,MacIntel,58.82352941,,,,,,,,,,,,,,,,,,,,692.457,692.656,692.656,693.156,,,,,,,,,,,,,,0.587,1,,,,,,,,,,,,,,m,,,,,,,,,,,,,,,141,0,693.156,693.756,m,1,0.587,,[],[],[],[],[],[],[],693.756,695.756,695.756,695.756,[],[],[],[],[],[],[],,695.756,695.757,0.523913043,0.243478261,0,0,0,,0,140,140,85,1,1,word,BENEFIT,print,benefit_p.png,,,,,,
,,,,32009,001,2025-10-16_12h28.19.813,HW_LDT_1,2024.2.4,MacIntel,58.82352941,,,,,,,,,,,,,,,,,,,,695.758,695.956,695.956,696.456,,,,,,,,,,,,,,0.596,0,,,,,,,,,,,,,,z,,,,,,,,,,,,,,,142,0,696.456,697.055,m,0,0.596,,[],[],[],[],[],[],[],697.056,699.056,699.056,699.056,[],[],[],[],[],[],[],,699.056,699.057,0.523913043,0.243478261,0,0,0,,0,141,141,56,1,1,TL,grafetul,print,grafetul_p.png,,,,,,
,,,,32009,001,2025-10-16_12h28.19.813,HW_LDT_1,2024.2.4,MacIntel,58.82352941,,,,,,,,,,,,,,,,,,,,699.058,699.256,699.256,699.756,,,,,,,,,,,,,,0.713,1,,,,,,,,,,,,,,z,,,,,,,,,,,,,,,143,0,699.756,700.475,z,1,0.713,,[],[],[],[],[],[],[],700.476,702.473,702.473,702.473,[],[],[],[],[],[],[],,702.473,702.473,0.523913043,0.243478261,0,0,0,,0,142,142,9,1,1,RL,docirant,cursive,docirant_c.png,,,,,,
,,,,32009,001,2025-10-16_12h28.19.813,HW_LDT_1,2024.2.4,MacIntel,58.82352941,,,,,,,,,,,,,,,,,,,,702.474,702.673,702.673,703.173,,,,,,,,,,,,,,0.77,1,,,,,,,,,,,,,,z,,,,,,,,,,,,,,,144,0,703.173,703.955,z,1,0.77,,[],[],[],[],[],[],[],703.955,705.955,705.955,705.956,[],[],[],[],[],[],[],,705.956,705.956,0.523913043,0.243478261,0,0,0,,0,143,143,6,1,1,RL,crisival,print,crisival_p.png,,,,,,
,,,,32009,001,2025-10-16_12h28.19.813,HW_LDT_1,2024.2.4,MacIntel,58.82352941,,,,,,,,,,,,,,,,,,,,705.957,706.156,706.156,706.656,,,,,,,,,,,,,,0.754,1,,,,,,,,,,,,,,m,,,,,,,,,,,,,,,145,1,706.656,707.423,m,1,0.754,,[],[],[],[],[],[],[],707.423,709.423,709.423,711.14,[],[],[],[],[],[],[],z,711.14,711.14,0.523913043,0.243478261,0,0,0,,0,144,144,80,1,1,word,ACADEMY,cursive,academy_c.png,1.71,,,,,
,,,,32009,001,2025-10-16_12h28.19.813,HW_LDT_1,2024.2.4,MacIntel,58.82352941,,,,,,,,,,,,,,,,,,,,711.141,711.339,711.339,711.839,,,,,,,,,,,,,,0.727,1,,,,,,,,,,,,,,m,,,,,,,,,,,,,,,146,0,711.84,712.574,m,1,0.727,,[],[],[],[],[],[],[],712.574,714.573,714.573,714.574,[],[],[],[],[],[],[],,714.574,714.575,0.523913043,0.243478261,0,0,0,,0,145,145,128,1,1,word,PACIFIC,print,pacific_p.png,,,,,,
,,,,32009,001,2025-10-16_12h28.19.813,HW_LDT_1,2024.2.4,MacIntel,58.82352941,,,,,,,,,,,,,,,,,,,,714.576,714.773,714.773,715.273,,,,,,,,,,,,,,0.66,1,,,,,,,,,,,,,,m,,,,,,,,,,,,,,,147,0,715.273,715.94,m,1,0.66,,[],[],[],[],[],[],[],715.941,717.939,717.939,717.94,[],[],[],[],[],[],[],,717.94,717.941,0.523913043,0.243478261,0,0,0,,0,146,146,100,1,1,word,DECADE,print,decade_p.png,,,,,,
,,,,32009,001,2025-10-16_12h28.19.813,HW_LDT_1,2024.2.4,MacIntel,58.82352941,,,,,,,,,,,,,,,,,,,,717.942,718.139,718.139,718.639,,,,,,,,,,,,,,4.941,1,,,,,,,,,,,,,,z,,,,,,,,,,,,,,,148,0,718.64,723.589,z,1,4.941,,[],[],[],[],[],[],[],723.589,725.589,725.589,725.59,[],[],[],[],[],[],[],,725.59,725.59,0.523913043,0.243478261,0,0,0,,0,147,147,57,1,1,TL,hetirage,cursive,hetirage_c.png,,,,,,
,,,,32009,001,2025-10-16_12h28.19.813,HW_LDT_1,2024.2.4,MacIntel,58.82352941,,,,,,,,,,,,,,,,,,,,725.591,725.789,725.789,726.289,,,,,,,,,,,,,,0.675,1,,,,,,,,,,,,,,z,,,,,,,,,,,,,,,149,0,726.29,726.972,z,1,0.675,,[],[],[],[],[],[],[],726.973,728.972,728.972,728.973,[],[],[],[],[],[],[],,728.973,728.973,0.523913043,0.243478261,0,0,0,,0,148,148,63,1,1,TL,molibe,cursive,molibe_c.png,,,,,,
,,,,32009,001,2025-10-16_12h28.19.813,HW_LDT_1,2024.2.4,MacIntel,58.82352941,,,,,,,,,,,,,,,,,,,,728.974,729.172,729.172,729.672,,,,,,,,,,,,,,0.511,1,,,,,,,,,,,,,,m,,,,,,,,,,,,,,,150,0,729.673,730.189,m,1,0.511,,[],[],[],[],[],[],[],730.189,732.189,732.189,732.189,[],[],[],[],[],[],[],,732.189,732.19,0.523913043,0.243478261,0,0,0,,0,149,149,131,1,1,word,POPULAR,cursive,popular_c.png,,,,,,
,,,,32009,001,2025-10-16_12h28.19.813,HW_LDT_1,2024.2.4,MacIntel,58.82352941,,,,,,,,,,,,,,,,,,,,732.191,732.388,732.388,732.889,,,,,,,,,,,,,,0.753,1,,,,,,,,,,,,,,m,,,,,,,,,,,,,,,151,0,732.89,733.655,m,1,0.753,,[],[],[],[],[],[],[],733.656,735.656,735.656,735.656,[],[],[],[],[],[],[],,735.656,735.656,0.523913043,0.243478261,0,0,0,,0,150,150,94,1,1,word,CLINICAL,cursive,clinical_c.png,,,,,,
,,,,32009,001,2025-10-16_12h28.19.813,HW_LDT_1,2024.2.4,MacIntel,58.82352941,,,,,,,,,,,,,,,,,,,,735.658,735.856,735.856,736.356,,,,,,,,,,,,,,0.654,1,,,,,,,,,,,,,,m,,,,,,,,,,,,,,,152,0,736.356,737.022,m,1,0.654,,[],[],[],[],[],[],[],737.022,739.022,739.022,739.022,[],[],[],[],[],[],[],,739.022,739.022,0.523913043,0.243478261,0,0,0,,0,151,151,89,1,1,word,CAPACITY,print,capacity_p.png,,,,,,
,,,,32009,001,2025-10-16_12h28.19.813,HW_LDT_1,2024.2.4,MacIntel,58.82352941,,,,,,,,,,,,,,,,,,,,739.024,739.222,739.222,739.722,,,,,,,,,,,,,,1.937,0,,,,,,,,,,,,,,m,,,,,,,,,,,,,,,153,1,739.723,741.672,z,0,1.937,,[],[],[],[],[],[],[],741.673,743.673,743.673,745.389,[],[],[],[],[],[],[],z,745.389,745.389,0.523913043,0.243478261,0,0,0,,0,152,152,156,1,1,word,TRIBUTE,cursive,tribute_c.png,1.709,,,,,
,,,,32009,001,2025-10-16_12h28.19.813,HW_LDT_1,2024.2.4,MacIntel,58.82352941,,,,,,,,,,,,,,,,,,,,745.391,745.589,745.589,746.089,,,,,,,,,,,,,,1.526,1,,,,,,,,,,,,,,z,,,,,,,,,,,,,,,154,0,746.089,747.622,z,1,1.526,,[],[],[],[],[],[],[],747.623,749.622,749.622,749.623,[],[],[],[],[],[],[],,749.623,749.623,0.523913043,0.243478261,0,0,0,,0,153,153,0,1,1,RL,abanemy,cursive,abanemy_c.png,,,,,,
,,,,32009,001,2025-10-16_12h28.19.813,HW_LDT_1,2024.2.4,MacIntel,58.82352941,,,,,,,,,,,,,,,,,,,,749.624,749.822,749.822,750.322,,,,,,,,,,,,,,1.046,1,,,,,,,,,,,,,,z,,,,,,,,,,,,,,,155,1,750.322,751.374,z,1,1.046,,[],[],[],[],[],[],[],751.374,753.373,753.373,754.058,[],[],[],[],[],[],[],z,754.058,754.058,0.523913043,0.243478261,0,0,0,,0,154,154,4,1,1,RL,carminal,print,carminal_p.png,0.678,,,,,
,,,,32009,001,2025-10-16_12h28.19.813,HW_LDT_1,2024.2.4,MacIntel,58.82352941,,,,,,,,,,,,,,,,,,,,754.059,754.256,754.256,754.756,,,,,,,,,,,,,,1.319,1,,,,,,,,,,,,,,m,,,,,,,,,,,,,,,156,1,754.756,756.089,m,1,1.319,,[],[],[],[],[],[],[],756.089,758.089,758.089,759.241,[],[],[],[],[],[],[],m,759.241,759.241,0.523913043,0.243478261,0,0,0,,0,155,155,82,1,1,word,AMATEUR,print,amateur_p.png,1.145,,,,,
,,,,32009,001,2025-10-16_12h28.19.813,HW_LDT_1,2024.2.4,MacIntel,58.82352941,,,,,,,,,,,,,,,,,,,,759.242,759.439,759.439,759.939,,,,,,,,,,,,,,1.087,1,,,,,,,,,,,,,,z,,,,,,,,,,,,,,,157,1,759.94,761.039,z,1,1.087,,[],[],[],[],[],[],[],761.039,763.039,763.039,763.839,[],[],[],[],[],[],[],m,763.839,763.839,0.523913043,0.243478261,0,0,0,,0,156,156,11,1,1,RL,elacodate,print,elacodate_p.png,0.789,,,,,
,,,,32009,001,2025-10-16_12h28.19.813,HW_LDT_1,2024.2.4,MacIntel,58.82352941,,,,,,,,,,,,,,,,,,,,763.84,764.039,764.039,764.539,,,,,,,,,,,,,,1.946,0,,,,,,,,,,,,,,z,,,,,,,,,,,,,,,158,0,764.539,766.491,m,0,1.946,,[],[],[],[],[],[],[],766.491,768.489,768.489,768.489,[],[],[],[],[],[],[],,768.489,768.489,0.523913043,0.243478261,0,0,0,,0,157,157,76,1,1,TL,stragety,cursive,stragety_c.png,,,,,,
,,,,32009,001,2025-10-16_12h28.19.813,HW_LDT_1,2024.2.4,MacIntel,58.82352941,,,,,,,,,,,,,,,,,,,,768.49,768.689,768.689,769.189,,,,,,,,,,,,,,1.46,0,,,,,,,,,,,,,,m,,,,,,,,,,,,,,,159,0,769.189,770.657,z,0,1.46,,[],[],[],[],[],[],[],770.657,772.655,772.656,772.656,[],[],[],[],[],[],[],,772.656,772.656,0.523913043,0.243478261,0,0,0,,0,158,158,110,1,1,word,HERITAGE,cursive,heritage_c.png,,,,,,
,,,,32009,001,2025-10-16_12h28.19.813,HW_LDT_1,2024.2.4,MacIntel,58.82352941,,,,,,,,,,,,,,,,,,,,772.657,772.855,772.856,773.355,,,,,,,,,,,,,,0.678,1,,,,,,,,,,,,,,z,,,,,,,,,,,,,,,160,0,773.356,774.042,z,1,0.678,,[],[],[],[],[],[],[],774.042,776.039,776.039,776.039,[],[],[],[],[],[],[],,776.04,776.04,0.523913043,0.243478261,0,0,0,,0,159,159,12,1,1,RL,ebiwent,print,ebiwent_p.png,,,,,,
,,,,32009,001,2025-10-16_12h28.19.813,HW_LDT_1,2024.2.4,MacIntel,58.82352941,,,,,,,,,,,,,,,,,,,,,,,,,,,,,,,,,,,,,,,,,,,,,,,,,,,,,,,,,,,,,,,,,,,,,,,,,,,,,,,,,,,,,,,,,,,,,,,,,,,,,,,,,,,,,,,,,,,,776.055,781.04
