counterbalance_lists.group,counterbalance_lists.remaining,get_list.started,get_list.stopped,participant,session,date,expName,psychopyVersion,OS,frameRate,Instructions.started,Instructions.stopped,key_resp.keys,key_resp.rt,key_resp.duration,instr_done_touch.x,instr_done_touch.y,instr_done_touch.leftButton,instr_done_touch.midButton,instr_done_touch.rightButton,start_instr.thisRepN,start_instr.thisTrialN,start_instr.thisN,start_instr.thisIndex,start_instr.ran,pageN,phase,instruct_text,has_image,instruct_image,showProgress.started,showProgress.stopped,fix.started,fix.stopped,prac.started,prac.stopped,response.keys,response.corr,response.rt,response.duration,touch_resp.x,touch_resp.y,touch_resp.leftButton,touch_resp.midButton,touch_resp.rightButton,touch_resp.time,touch_resp.clicked_name,rt,corr,feedback.started,feedback.stopped,trials.thisRepN,trials.thisTrialN,trials.thisN,trials.thisIndex,trials.ran,TrialID,StimulusType,Condition,PrimeDuration,Prime,Target,corrAns,Instructions_expt.started,Instructions_expt.stopped,key_resp_3.keys,key_resp_3.rt,key_resp_3.duration,instr_done_touch_3.x,instr_done_touch_3.y,instr_done_touch_3.leftButton,instr_done_touch_3.midButton,instr_done_touch_3.rightButton,instr_experiment.thisRepN,instr_experiment.thisTrialN,instr_experiment.thisN,instr_experiment.thisIndex,instr_experiment.ran,trialID,flag,maintask.started,maintask.stopped,key_resp_2.keys,key_resp_2.corr,key_resp_2.rt,key_resp_2.duration,targ_click.x,targ_click.y,targ_click.leftButton,targ_click.midButton,targ_click.rightButton,targ_click.time,targ_click.clicked_name,ITI.started,ITI.stopped,probe.started,probe.stopped,click_probe.x,click_probe.y,click_probe.leftButton,click_probe.midButton,click_probe.rightButton,click_probe.time,click_probe.clicked_name,key_resp_probe.keys,Break.started,Break.stopped,break_done_touch.x,break_done_touch.y,break_done_touch.leftButton,break_done_touch.midButton,break_done_touch.rightButton,break_done_keyboard.keys,list3_trials.thisRepN,list3_trials.thisTrialN,list3_trials.thisN,list3_trials.thisIndex,list3_trials.ran,list_id,item_type,string,font,stim_file,key_resp_probe.rt,key_resp_probe.duration,break_done_keyboard.rt,break_done_keyboard.duration,End.started,End.stopped
list3,,0.4295,0.4296,32011,001,2025-10-15_16h27.43.067,HW_LDT_1,2024.2.4,MacIntel,60.24096386,,,,,,,,,,,,,,,,,,,,,,,,,,,,,,,,,,,,,,,,,,,,,,,,,,,,,,,,,,,,,,,,,,,,,,,,,,,,,,,,,,,,,,,,,,,,,,,,,,,,,,,,,,,,,,,,,,,,,,,
,,,,32011,001,2025-10-15_16h27.43.067,HW_LDT_1,2024.2.4,MacIntel,60.24096386,0.4506,21.7075,space,21.2281,,-0.080646701,-0.255529514,0,0,0,0,0,0,0,1,1,instructions,"INSTRUCTIONS
At the start of each trial, look at the plus sign  (+) in the center of the screen.  This tells you that a trial is about to begin and where to look. Second, the plus sign will disappear and a string of letters will appear. Your task is to determine if the string of letters is a word or not. If the item is a word press the M key (on keyboard)  or touch the word button (phone/tablet).  If the item is not a word,  press the  Z key (on keyboard)  or touch the nonword button (on phone/tablet). The items will be presented for a short time. 
Press the space bar or touch  continue.",0,,,,,,,,,,,,,,,,,,,,,,,,,,,,,,,,,,,,,,,,,,,,,,,,,,,,,,,,,,,,,,,,,,,,,,,,,,,,,,,,,,,,,,,,,,,,,,,,,,,,
,,,,32011,001,2025-10-15_16h27.43.067,HW_LDT_1,2024.2.4,MacIntel,60.24096386,21.7107,25.2397,space,3.4894,,-0.080646701,-0.255529514,0,0,0,0,1,1,1,1,2,instructions,"If your device has a keyboard, press the 'Z' key for nonwords and the 'M' key for words.





Press the space bar or touch the button below to continue.",0,keyboard-example.gif,,,,,,,,,,,,,,,,,,,,,,,,,,,,,,,,,,,,,,,,,,,,,,,,,,,,,,,,,,,,,,,,,,,,,,,,,,,,,,,,,,,,,,,,,,,,,,,,,,,
,,,,32011,001,2025-10-15_16h27.43.067,HW_LDT_1,2024.2.4,MacIntel,60.24096386,25.2418,27.1231,space,1.8542,,-0.080646701,-0.255529514,0,0,0,0,2,2,2,1,3,instructions,"If you are using a touchscreen only device, use the buttons on the screen. Do not use the mouse.





Press the space bar or touch the button below to continue.",0,touchscreen-example.gif,,,,,,,,,,,,,,,,,,,,,,,,,,,,,,,,,,,,,,,,,,,,,,,,,,,,,,,,,,,,,,,,,,,,,,,,,,,,,,,,,,,,,,,,,,,,,,,,,,,
,,,,32011,001,2025-10-15_16h27.43.067,HW_LDT_1,2024.2.4,MacIntel,60.24096386,27.1256,38.0393,space,10.8976,,-0.080646701,-0.255529514,0,0,0,0,3,3,3,1,4,instructions,"It is very important that you respond as quickly and accurately as possible, as each letter string will only be on the screen for two seconds. If you do not respond within this time, the message 'Too slow!' will be displayed and the experiment will progress to the next letter string. The first 20 trials will be practice trials and you will receive feedback on your answers. 

Press the space bar or touch the button below to start the practice trials.",0,,,,,,,,,,,,,,,,,,,,,,,,,,,,,,,,,,,,,,,,,,,,,,,,,,,,,,,,,,,,,,,,,,,,,,,,,,,,,,,,,,,,,,,,,,,,,,,,,,,,
,,,,32011,001,2025-10-15_16h27.43.067,HW_LDT_1,2024.2.4,MacIntel,60.24096386,,,,,,,,,,,,,,,,,,,,,38.0676,38.2395,38.2398,38.7396,38.7401,40.4399,m,1,1.6718,,[],[],[],[],[],[],[],1.6718,1,40.4403,40.9398,0,0,0,3,1,1004,WORD,"ID",16,matrix,MATRIX,m,,,,,,,,,,,,,,,,,,,,,,,,,,,,,,,,,,,,,,,,,,,,,,,,,,,,,,,,,,,,,,,,,,
,,,,32011,001,2025-10-15_16h27.43.067,HW_LDT_1,2024.2.4,MacIntel,60.24096386,,,,,,,,,,,,,,,,,,,,,40.9418,41.1394,41.1394,41.639,41.6422,42.4391,m,1,0.7734,,[],[],[],[],[],[],[],0.7734,1,42.4392,42.9391,0,1,1,1,1,1002,WORD,"ID",33,adjust,ADJUST,m,,,,,,,,,,,,,,,,,,,,,,,,,,,,,,,,,,,,,,,,,,,,,,,,,,,,,,,,,,,,,,,,,,
,,,,32011,001,2025-10-15_16h27.43.067,HW_LDT_1,2024.2.4,MacIntel,60.24096386,,,,,,,,,,,,,,,,,,,,,42.9411,43.1394,43.1394,43.6395,43.6411,44.4229,m,1,0.7612,,[],[],[],[],[],[],[],0.7612,1,44.423,44.9229,0,2,2,6,1,1007,WORD,UN,16,tropic,ZOMBIE,m,,,,,,,,,,,,,,,,,,,,,,,,,,,,,,,,,,,,,,,,,,,,,,,,,,,,,,,,,,,,,,,,,,
,,,,32011,001,2025-10-15_16h27.43.067,HW_LDT_1,2024.2.4,MacIntel,60.24096386,,,,,,,,,,,,,,,,,,,,,44.9247,45.1229,45.1231,45.6229,45.6242,46.7395,z,1,1.0936,,[],[],[],[],[],[],[],1.0936,1,46.7397,47.2394,0,3,3,10,1,1011,NW,"ID",16,inlade,INLADE,z,,,,,,,,,,,,,,,,,,,,,,,,,,,,,,,,,,,,,,,,,,,,,,,,,,,,,,,,,,,,,,,,,,
,,,,32011,001,2025-10-15_16h27.43.067,HW_LDT_1,2024.2.4,MacIntel,60.24096386,,,,,,,,,,,,,,,,,,,,,47.2414,47.4396,47.4397,47.9385,47.9396,48.7561,m,1,0.7968,,[],[],[],[],[],[],[],0.7968,1,48.7562,49.2562,0,4,4,5,1,1006,WORD,UN,33,frenzy,OBTAIN,m,,,,,,,,,,,,,,,,,,,,,,,,,,,,,,,,,,,,,,,,,,,,,,,,,,,,,,,,,,,,,,,,,,
,,,,32011,001,2025-10-15_16h27.43.067,HW_LDT_1,2024.2.4,MacIntel,60.24096386,,,,,,,,,,,,,,,,,,,,,49.258,49.4561,49.4561,49.956,49.9576,50.9561,z,1,0.9867,,[],[],[],[],[],[],[],0.9867,1,50.9563,51.4563,0,5,5,12,1,1013,NW,UN,33,adveil,SPRINY,z,,,,,,,,,,,,,,,,,,,,,,,,,,,,,,,,,,,,,,,,,,,,,,,,,,,,,,,,,,,,,,,,,,
,,,,32011,001,2025-10-15_16h27.43.067,HW_LDT_1,2024.2.4,MacIntel,60.24096386,,,,,,,,,,,,,,,,,,,,,51.4581,51.656,51.6561,52.1562,52.1575,53.0396,m,1,0.863,,[],[],[],[],[],[],[],0.863,1,53.0398,53.5394,0,6,6,0,1,1001,WORD,"ID",33,utopia,UTOPIA,m,,,,,,,,,,,,,,,,,,,,,,,,,,,,,,,,,,,,,,,,,,,,,,,,,,,,,,,,,,,,,,,,,,
,,,,32011,001,2025-10-15_16h27.43.067,HW_LDT_1,2024.2.4,MacIntel,60.24096386,,,,,,,,,,,,,,,,,,,,,53.5412,53.7396,53.7396,54.2394,54.2407,54.7895,m,1,0.529,,[],[],[],[],[],[],[],0.529,1,54.7896,55.2896,0,7,7,7,1,1008,WORD,UN,16,hurdle,VOLUME,m,,,,,,,,,,,,,,,,,,,,,,,,,,,,,,,,,,,,,,,,,,,,,,,,,,,,,,,,,,,,,,,,,,
,,,,32011,001,2025-10-15_16h27.43.067,HW_LDT_1,2024.2.4,MacIntel,60.24096386,,,,,,,,,,,,,,,,,,,,,55.2914,55.4895,55.4895,55.9895,55.9908,56.7727,z,1,0.7631,,[],[],[],[],[],[],[],0.7631,1,56.7729,57.2729,0,8,8,11,1,1012,NW,"ID",16,rashet,RASHET,z,,,,,,,,,,,,,,,,,,,,,,,,,,,,,,,,,,,,,,,,,,,,,,,,,,,,,,,,,,,,,,,,,,
,,,,32011,001,2025-10-15_16h27.43.067,HW_LDT_1,2024.2.4,MacIntel,60.24096386,,,,,,,,,,,,,,,,,,,,,57.2747,57.4728,57.4728,57.9723,57.9726,58.9727,z,1,0.9829,,[],[],[],[],[],[],[],0.9829,1,58.9729,59.4726,0,9,9,14,1,1015,NW,UN,16,miaber,THRALE,z,,,,,,,,,,,,,,,,,,,,,,,,,,,,,,,,,,,,,,,,,,,,,,,,,,,,,,,,,,,,,,,,,,
,,,,32011,001,2025-10-15_16h27.43.067,HW_LDT_1,2024.2.4,MacIntel,60.24096386,,,,,,,,,,,,,,,,,,,,,59.4741,59.6726,59.6727,60.1725,60.173,61.1561,z,1,0.964,,[],[],[],[],[],[],[],0.964,1,61.1563,61.6562,0,10,10,15,1,1016,NW,UN,16,mushed,WHAISE,z,,,,,,,,,,,,,,,,,,,,,,,,,,,,,,,,,,,,,,,,,,,,,,,,,,,,,,,,,,,,,,,,,,
,,,,32011,001,2025-10-15_16h27.43.067,HW_LDT_1,2024.2.4,MacIntel,60.24096386,,,,,,,,,,,,,,,,,,,,,61.6578,61.856,61.8561,62.3561,62.3572,62.9891,z,1,0.6216,,[],[],[],[],[],[],[],0.6216,1,62.9892,63.4892,0,11,11,13,1,1014,NW,UN,33,winfer,ROUPET,z,,,,,,,,,,,,,,,,,,,,,,,,,,,,,,,,,,,,,,,,,,,,,,,,,,,,,,,,,,,,,,,,,,
,,,,32011,001,2025-10-15_16h27.43.067,HW_LDT_1,2024.2.4,MacIntel,60.24096386,,,,,,,,,,,,,,,,,,,,,63.4905,63.6894,63.6894,64.1894,64.1906,64.8228,m,1,0.6212,,[],[],[],[],[],[],[],0.6212,1,64.823,65.3219,0,12,12,2,1,1003,WORD,"ID",16,almond,ALMOND,m,,,,,,,,,,,,,,,,,,,,,,,,,,,,,,,,,,,,,,,,,,,,,,,,,,,,,,,,,,,,,,,,,,
,,,,32011,001,2025-10-15_16h27.43.067,HW_LDT_1,2024.2.4,MacIntel,60.24096386,,,,,,,,,,,,,,,,,,,,,65.3236,65.5226,65.5228,66.0227,66.0241,66.8227,z,1,0.7891,,[],[],[],[],[],[],[],0.7891,1,66.8229,67.3228,0,13,13,9,1,1010,NW,"ID",33,fariny,FARINY,z,,,,,,,,,,,,,,,,,,,,,,,,,,,,,,,,,,,,,,,,,,,,,,,,,,,,,,,,,,,,,,,,,,
,,,,32011,001,2025-10-15_16h27.43.067,HW_LDT_1,2024.2.4,MacIntel,60.24096386,,,,,,,,,,,,,,,,,,,,,67.3244,67.5227,67.5228,68.0227,68.0242,68.606,m,1,0.5616,,[],[],[],[],[],[],[],0.5616,1,68.6063,69.1061,0,14,14,4,1,1005,WORD,UN,33,abound,SQUEAK,m,,,,,,,,,,,,,,,,,,,,,,,,,,,,,,,,,,,,,,,,,,,,,,,,,,,,,,,,,,,,,,,,,,
,,,,32011,001,2025-10-15_16h27.43.067,HW_LDT_1,2024.2.4,MacIntel,60.24096386,,,,,,,,,,,,,,,,,,,,,69.1079,69.3061,69.3061,69.806,69.8072,70.5397,z,1,0.713,,[],[],[],[],[],[],[],0.713,1,70.5398,71.0395,0,15,15,8,1,1009,NW,"ID",33,aslert,ASLERT,z,,,,,,,,,,,,,,,,,,,,,,,,,,,,,,,,,,,,,,,,,,,,,,,,,,,,,,,,,,,,,,,,,,
,,,,32011,001,2025-10-15_16h27.43.067,HW_LDT_1,2024.2.4,MacIntel,60.24096386,,,,,,,,,,,,,,,,1,end_of_practice,"You have completed the practice trials. During the experimental trials, you will not receive feedback. On some trials you will be asked to report whether the item you just saw was in cursive or print. 
Before you begin, please ensure that you are in a comfortable and quiet location and will not be disturbed for about 15 minutes, as we cannot use your data if you do not complete all the trials. 
 When you are ready to start the experimental trials, please press space or touch the button below.",,,,,,,,,,,,,,,,,,,,,,,,,,,,,,,,,,,,71.0469,82.4067,space,11.3346,,-0.080646701,-0.255529514,0,0,0,0,0,0,0,1,,,,,,,,,,,,,,,,,,,,,,,,,,,,,,,,,,,,,,,,,,,,,,,,,,,
,,,,32011,001,2025-10-15_16h27.43.067,HW_LDT_1,2024.2.4,MacIntel,60.24096386,,,,,,,,,,,,,,,,,,,,,82.4225,82.6062,82.6063,83.1061,,,,,,,,,,,,,,1.9997,1,,,,,,,,,,,,,,z,,,,,,,,,,,,,,,,1,0,83.1081,85.1233,z,1,1.9997,,[],[],[],[],[],[],[],85.1236,87.1231,87.1235,87.1266,[],[],[],[],[],[],[],,87.1268,87.1286,-0.080646701,-0.255529514,0,0,0,,0,0,0,1,1,3,RL,bewoted,cursive,bewoted_c.png,,,,,,
,,,,32011,001,2025-10-15_16h27.43.067,HW_LDT_1,2024.2.4,MacIntel,60.24096386,,,,,,,,,,,,,,,,,,,,,87.1296,87.3227,87.3228,87.8225,,,,,,,,,,,,,,0.903,1,,,,,,,,,,,,,,m,,,,,,,,,,,,,,,,2,1,87.823,88.7396,m,1,0.903,,[],[],[],[],[],[],[],88.7397,90.7394,90.7395,93.6894,[],[],[],[],[],[],[],m,93.6895,93.6897,-0.080646701,-0.255529514,0,0,0,,0,1,1,97,1,3,word,COVERAGE,print,coverage_p.png,2.9435,,,,,
,,,,32011,001,2025-10-15_16h27.43.067,HW_LDT_1,2024.2.4,MacIntel,60.24096386,,,,,,,,,,,,,,,,,,,,,93.691,93.8895,93.8896,94.3894,,,,,,,,,,,,,,1.0478,1,,,,,,,,,,,,,,m,,,,,,,,,,,,,,,,3,0,94.3903,95.4394,m,1,1.0478,,[],[],[],[],[],[],[],95.4395,97.4397,97.4398,97.4401,[],[],[],[],[],[],[],,97.4401,97.4404,-0.080646701,-0.255529514,0,0,0,,0,2,2,85,1,3,word,BENEFIT,print,benefit_p.png,,,,,,
,,,,32011,001,2025-10-15_16h27.43.067,HW_LDT_1,2024.2.4,MacIntel,60.24096386,,,,,,,,,,,,,,,,,,,,,97.4419,97.6394,97.6395,98.1394,,,,,,,,,,,,,,1.1383,1,,,,,,,,,,,,,,z,,,,,,,,,,,,,,,,4,0,98.1402,99.2895,z,1,1.1383,,[],[],[],[],[],[],[],99.2897,101.2894,101.2895,101.2899,[],[],[],[],[],[],[],,101.29,101.2901,-0.080646701,-0.255529514,0,0,0,,0,3,3,45,1,3,TL,dentisy,print,dentisy_p.png,,,,,,
,,,,32011,001,2025-10-15_16h27.43.067,HW_LDT_1,2024.2.4,MacIntel,60.24096386,,,,,,,,,,,,,,,,,,,,,101.2918,101.4894,101.4894,101.9893,,,,,,,,,,,,,,0.986,1,,,,,,,,,,,,,,m,,,,,,,,,,,,,,,,5,0,101.9905,102.9897,m,1,0.986,,[],[],[],[],[],[],[],102.9898,104.9895,104.9896,104.9899,[],[],[],[],[],[],[],,104.9901,104.9902,-0.080646701,-0.255529514,0,0,0,,0,4,4,104,1,3,word,DOMINANT,print,dominant_p.png,,,,,,
,,,,32011,001,2025-10-15_16h27.43.067,HW_LDT_1,2024.2.4,MacIntel,60.24096386,,,,,,,,,,,,,,,,,,,,,104.9926,105.1894,105.1895,105.6895,,,,,,,,,,,,,,0.7522,1,,,,,,,,,,,,,,z,,,,,,,,,,,,,,,,6,0,105.6904,106.4562,z,1,0.7522,,[],[],[],[],[],[],[],106.4564,108.4563,108.4564,108.4569,[],[],[],[],[],[],[],,108.457,108.4572,-0.080646701,-0.255529514,0,0,0,,0,5,5,61,1,3,TL,pocily,print,pocily_p.png,,,,,,
,,,,32011,001,2025-10-15_16h27.43.067,HW_LDT_1,2024.2.4,MacIntel,60.24096386,,,,,,,,,,,,,,,,,,,,,108.4588,108.6564,108.6564,109.1562,,,,,,,,,,,,,,0.9063,1,,,,,,,,,,,,,,z,,,,,,,,,,,,,,,,7,0,109.1569,110.0729,z,1,0.9063,,[],[],[],[],[],[],[],110.073,112.0728,112.0729,112.0732,[],[],[],[],[],[],[],,112.0732,112.0735,-0.080646701,-0.255529514,0,0,0,,0,6,6,49,1,3,TL,incidate,print,incidate_p.png,,,,,,
,,,,32011,001,2025-10-15_16h27.43.067,HW_LDT_1,2024.2.4,MacIntel,60.24096386,,,,,,,,,,,,,,,,,,,,,112.075,112.2728,112.2728,112.7728,,,,,,,,,,,,,,0.6027,1,,,,,,,,,,,,,,m,,,,,,,,,,,,,,,,8,0,112.7736,113.3895,m,1,0.6027,,[],[],[],[],[],[],[],113.3897,115.3891,115.3892,115.3892,[],[],[],[],[],[],[],,115.3893,115.3893,-0.080646701,-0.255529514,0,0,0,,0,7,7,94,1,3,word,CLINICAL,print,clinical_p.png,,,,,,
,,,,32011,001,2025-10-15_16h27.43.067,HW_LDT_1,2024.2.4,MacIntel,60.24096386,,,,,,,,,,,,,,,,,,,,,115.3899,115.5894,115.5894,116.0895,,,,,,,,,,,,,,4.5024,1,,,,,,,,,,,,,,m,,,,,,,,,,,,,,,,9,0,116.0904,120.6061,m,1,4.5024,,[],[],[],[],[],[],[],120.6062,122.6061,122.6062,122.6065,[],[],[],[],[],[],[],,122.6066,122.6068,-0.080646701,-0.255529514,0,0,0,,0,8,8,143,1,3,word,REMOVAL,cursive,removal_c.png,,,,,,
,,,,32011,001,2025-10-15_16h27.43.067,HW_LDT_1,2024.2.4,MacIntel,60.24096386,,,,,,,,,,,,,,,,,,,,,122.6084,122.8061,122.8062,123.3061,,,,,,,,,,,,,,3.0026,1,,,,,,,,,,,,,,m,,,,,,,,,,,,,,,,10,0,123.3069,126.3229,m,1,3.0026,,[],[],[],[],[],[],[],126.323,128.3228,128.3229,128.3232,[],[],[],[],[],[],[],,128.3232,128.3235,-0.080646701,-0.255529514,0,0,0,,0,9,9,89,1,3,word,CAPACITY,cursive,capacity_c.png,,,,,,
,,,,32011,001,2025-10-15_16h27.43.067,HW_LDT_1,2024.2.4,MacIntel,60.24096386,,,,,,,,,,,,,,,,,,,,,128.3251,128.5224,128.5224,129.0227,,,,,,,,,,,,,,3.305,1,,,,,,,,,,,,,,z,,,,,,,,,,,,,,,,11,0,129.0234,132.3397,z,1,3.305,,[],[],[],[],[],[],[],132.3398,134.3395,134.3397,134.34,[],[],[],[],[],[],[],,134.3401,134.3403,-0.080646701,-0.255529514,0,0,0,,0,10,10,59,1,3,TL,paficic,cursive,paficic_c.png,,,,,,
,,,,32011,001,2025-10-15_16h27.43.067,HW_LDT_1,2024.2.4,MacIntel,60.24096386,,,,,,,,,,,,,,,,,,,,,134.3419,134.5393,134.5394,135.0394,,,,,,,,,,,,,,0.9362,1,,,,,,,,,,,,,,z,,,,,,,,,,,,,,,,12,0,135.0402,135.9893,z,1,0.9362,,[],[],[],[],[],[],[],135.9893,137.9895,137.9895,137.9898,[],[],[],[],[],[],[],,137.9899,137.99,-0.080646701,-0.255529514,0,0,0,,0,11,11,40,1,3,TL,condiser,print,condiser_p.png,,,,,,
,,,,32011,001,2025-10-15_16h27.43.067,HW_LDT_1,2024.2.4,MacIntel,60.24096386,,,,,,,,,,,,,,,,,,,,,137.9915,138.1895,138.1896,138.6895,,,,,,,,,,,,,,1.7539,1,,,,,,,,,,,,,,z,,,,,,,,,,,,,,,,13,0,138.6901,140.4561,z,1,1.7539,,[],[],[],[],[],[],[],140.4563,142.4561,142.4562,142.4564,[],[],[],[],[],[],[],,142.4565,142.4567,-0.080646701,-0.255529514,0,0,0,,0,12,12,72,1,3,TL,senmitent,print,senmitent_p.png,,,,,,
,,,,32011,001,2025-10-15_16h27.43.067,HW_LDT_1,2024.2.4,MacIntel,60.24096386,,,,,,,,,,,,,,,,,,,,,142.4582,142.6557,142.6558,143.156,,,,,,,,,,,,,,2.7875,1,,,,,,,,,,,,,,z,,,,,,,,,,,,,,,,14,0,143.1567,145.9555,z,1,2.7875,,[],[],[],[],[],[],[],145.9556,147.9562,147.9562,147.9565,[],[],[],[],[],[],[],,147.9566,147.9567,-0.080646701,-0.255529514,0,0,0,,0,13,13,68,1,3,TL,revomal,cursive,revomal_c.png,,,,,,
,,,,32011,001,2025-10-15_16h27.43.067,HW_LDT_1,2024.2.4,MacIntel,60.24096386,,,,,,,,,,,,,,,,,,,,,147.9582,148.1563,148.1564,148.6562,,,,,,,,,,,,,,0.9696,1,,,,,,,,,,,,,,z,,,,,,,,,,,,,,,,15,0,148.657,149.6396,z,1,0.9696,,[],[],[],[],[],[],[],149.6396,151.6394,151.6395,151.6399,[],[],[],[],[],[],[],,151.6399,151.6401,-0.080646701,-0.255529514,0,0,0,,0,14,14,7,1,3,RL,cobeny,print,cobeny_p.png,,,,,,
,,,,32011,001,2025-10-15_16h27.43.067,HW_LDT_1,2024.2.4,MacIntel,60.24096386,,,,,,,,,,,,,,,,,,,,,151.6418,151.8396,151.8397,152.3395,,,,,,,,,,,,,,0.7684,1,,,,,,,,,,,,,,z,,,,,,,,,,,,,,,,16,0,152.3402,153.1228,z,1,0.7684,,[],[],[],[],[],[],[],153.1229,155.1228,155.1229,155.1231,[],[],[],[],[],[],[],,155.1232,155.1233,-0.080646701,-0.255529514,0,0,0,,0,15,15,2,1,3,RL,betemit,print,betemit_p.png,,,,,,
,,,,32011,001,2025-10-15_16h27.43.067,HW_LDT_1,2024.2.4,MacIntel,60.24096386,,,,,,,,,,,,,,,,,,,,,155.1249,155.3217,155.3218,155.8215,,,,,,,,,,,,,,0.7762,1,,,,,,,,,,,,,,z,,,,,,,,,,,,,,,,17,0,155.8221,156.606,z,1,0.7762,,[],[],[],[],[],[],[],156.6061,158.6062,158.6062,158.6066,[],[],[],[],[],[],[],,158.6068,158.6069,-0.080646701,-0.255529514,0,0,0,,0,16,16,22,1,3,RL,procogal,print,procogal_p.png,,,,,,
,,,,32011,001,2025-10-15_16h27.43.067,HW_LDT_1,2024.2.4,MacIntel,60.24096386,,,,,,,,,,,,,,,,,,,,,158.6094,158.8062,158.8062,159.3052,,,,,,,,,,,,,,0.7209,1,,,,,,,,,,,,,,m,,,,,,,,,,,,,,,,18,0,159.3058,160.0397,m,1,0.7209,,[],[],[],[],[],[],[],160.0397,162.0388,162.039,162.0395,[],[],[],[],[],[],[],,162.0397,162.0398,-0.080646701,-0.255529514,0,0,0,,0,17,17,156,1,3,word,TRIBUTE,print,tribute_p.png,,,,,,
,,,,32011,001,2025-10-15_16h27.43.067,HW_LDT_1,2024.2.4,MacIntel,60.24096386,,,,,,,,,,,,,,,,,,,,,162.0426,162.2394,162.2396,162.7395,,,,,,,,,,,,,,0.969,1,,,,,,,,,,,,,,m,,,,,,,,,,,,,,,,19,0,162.7405,163.723,m,1,0.969,,[],[],[],[],[],[],[],163.723,165.7228,165.7229,165.7232,[],[],[],[],[],[],[],,165.7233,165.7236,-0.080646701,-0.255529514,0,0,0,,0,18,18,146,1,3,word,RETIRE,print,retire_p.png,,,,,,
,,,,32011,001,2025-10-15_16h27.43.067,HW_LDT_1,2024.2.4,MacIntel,60.24096386,,,,,,,,,,,,,,,,,,,,,165.7254,165.9219,165.9219,166.4222,,,,,,,,,,,,,,2.8871,1,,,,,,,,,,,,,,z,,,,,,,,,,,,,,,,20,0,166.4229,169.3231,z,1,2.8871,,[],[],[],[],[],[],[],169.3232,171.3218,171.3219,171.3221,[],[],[],[],[],[],[],,171.3221,171.3222,-0.080646701,-0.255529514,0,0,0,,0,19,19,11,1,3,RL,ebiwent,cursive,ebiwent_c.png,,,,,,
,,,,32011,001,2025-10-15_16h27.43.067,HW_LDT_1,2024.2.4,MacIntel,60.24096386,,,,,,,,,,,,,,,,,,,,,171.3235,171.5218,171.5219,172.0228,,,,,,,,,,,,,,3.7907,1,,,,,,,,,,,,,,z,,,,,,,,,,,,,,,,21,1,172.0238,175.8228,z,1,3.7907,,[],[],[],[],[],[],[],175.823,177.822,177.822,179.4051,[],[],[],[],[],[],[],z,179.4052,179.4054,-0.080646701,-0.255529514,0,0,0,,0,20,20,76,1,3,TL,stogare,cursive,stogare_c.png,1.5717,,,,,
,,,,32011,001,2025-10-15_16h27.43.067,HW_LDT_1,2024.2.4,MacIntel,60.24096386,,,,,,,,,,,,,,,,,,,,,179.4064,179.6063,179.6063,180.1062,,,,,,,,,,,,,,1.1351,1,,,,,,,,,,,,,,m,,,,,,,,,,,,,,,,22,0,180.1069,181.2551,m,1,1.1351,,[],[],[],[],[],[],[],181.2552,183.2563,183.2563,183.2566,[],[],[],[],[],[],[],,183.2567,183.2568,-0.080646701,-0.255529514,0,0,0,,0,21,21,81,1,3,word,ADVISORY,print,advisory_p.png,,,,,,
,,,,32011,001,2025-10-15_16h27.43.067,HW_LDT_1,2024.2.4,MacIntel,60.24096386,,,,,,,,,,,,,,,,,,,,,183.2584,183.4561,183.4563,183.9552,,,,,,,,,,,,,,1.114,1,,,,,,,,,,,,,,z,,,,,,,,,,,,,,,,23,1,183.9558,185.0718,z,1,1.114,,[],[],[],[],[],[],[],185.0719,187.073,187.0732,188.5397,[],[],[],[],[],[],[],z,188.5399,188.5399,-0.080646701,-0.255529514,0,0,0,,0,22,22,33,1,3,TL,adsivory,print,adsivory_p.png,1.4549,,,,,
,,,,32011,001,2025-10-15_16h27.43.067,HW_LDT_1,2024.2.4,MacIntel,60.24096386,,,,,,,,,,,,,,,,,,,,,188.5412,188.7395,188.7395,189.2395,,,,,,,,,,,,,,1.5984,1,,,,,,,,,,,,,,z,,,,,,,,,,,,,,,,24,1,189.24,190.8393,z,1,1.5984,,[],[],[],[],[],[],[],190.8393,192.8445,192.8446,193.922,[],[],[],[],[],[],[],z,193.9222,193.9223,-0.080646701,-0.255529514,0,0,0,,0,23,23,52,1,3,TL,locigal,cursive,locigal_c.png,1.0661,,,,,
,,,,32011,001,2025-10-15_16h27.43.067,HW_LDT_1,2024.2.4,MacIntel,60.24096386,,,,,,,,,,,,,,,,,,,,,193.9258,194.1229,194.123,194.6229,,,,,,,,,,,,,,0.6367,1,,,,,,,,,,,,,,m,,,,,,,,,,,,,,,,25,0,194.6235,195.2719,m,1,0.6367,,[],[],[],[],[],[],[],195.2719,197.2719,197.272,197.2722,[],[],[],[],[],[],[],,197.2723,197.2724,-0.080646701,-0.255529514,0,0,0,,0,24,24,119,1,3,word,MEMORY,print,memory_p.png,,,,,,
,,,,32011,001,2025-10-15_16h27.43.067,HW_LDT_1,2024.2.4,MacIntel,60.24096386,,,,,,,,,,,,,,,,,,,,,197.2739,197.4723,197.4724,197.9729,,,,,,,,,,,,,,0.7721,1,,,,,,,,,,,,,,z,,,,,,,,,,,,,,,,26,0,197.9736,198.7562,z,1,0.7721,,[],[],[],[],[],[],[],198.7563,200.7561,200.7561,200.7563,[],[],[],[],[],[],[],,200.7564,200.7565,-0.080646701,-0.255529514,0,0,0,,0,25,25,65,1,3,TL,resufal,print,resufal_p.png,,,,,,
,,,,32011,001,2025-10-15_16h27.43.067,HW_LDT_1,2024.2.4,MacIntel,60.24096386,,,,,,,,,,,,,,,,,,,,,200.758,200.9563,200.9564,201.4563,,,,,,,,,,,,,,0.8699,1,,,,,,,,,,,,,,m,,,,,,,,,,,,,,,,27,0,201.4571,202.3395,m,1,0.8699,,[],[],[],[],[],[],[],202.3396,204.3395,204.3396,204.3398,[],[],[],[],[],[],[],,204.3399,204.3399,-0.080646701,-0.255529514,0,0,0,,0,26,26,91,1,3,word,CARDINAL,print,cardinal_p.png,,,,,,
,,,,32011,001,2025-10-15_16h27.43.067,HW_LDT_1,2024.2.4,MacIntel,60.24096386,,,,,,,,,,,,,,,,,,,,,204.3415,204.5396,204.5396,205.0395,,,,,,,,,,,,,,1.5044,1,,,,,,,,,,,,,,z,,,,,,,,,,,,,,,,28,0,205.0403,206.5553,z,1,1.5044,,[],[],[],[],[],[],[],206.5555,208.5561,208.5561,208.5563,[],[],[],[],[],[],[],,208.5564,208.5564,-0.080646701,-0.255529514,0,0,0,,0,27,27,77,1,3,TL,vadility,cursive,vadility_c.png,,,,,,
,,,,32011,001,2025-10-15_16h27.43.067,HW_LDT_1,2024.2.4,MacIntel,60.24096386,,,,,,,,,,,,,,,,,,,,,208.5574,208.7564,208.7564,209.2564,,,,,,,,,,,,,,3.2703,0,,,,,,,,,,,,,,m,,,,,,,,,,,,,,,,29,0,209.2572,212.5386,z,0,3.2703,,[],[],[],[],[],[],[],212.5386,214.5396,214.5397,214.5399,[],[],[],[],[],[],[],,214.5399,214.5401,-0.080646701,-0.255529514,0,0,0,,0,28,28,88,1,3,word,CAMERA,cursive,camera_c.png,,,,,,
,,,,32011,001,2025-10-15_16h27.43.067,HW_LDT_1,2024.2.4,MacIntel,60.24096386,,,,,,,,,,,,,,,,,,,,,214.5419,214.7386,214.7387,215.2396,,,,,,,,,,,,,,3.3694,1,,,,,,,,,,,,,,z,,,,,,,,,,,,,,,,30,0,215.2403,218.622,z,1,3.3694,,[],[],[],[],[],[],[],218.6221,220.623,220.6231,220.6233,[],[],[],[],[],[],[],,220.6233,220.6234,-0.080646701,-0.255529514,0,0,0,,0,29,29,13,1,3,RL,helicage,cursive,helicage_c.png,,,,,,
,,,,32011,001,2025-10-15_16h27.43.067,HW_LDT_1,2024.2.4,MacIntel,60.24096386,,,,,,,,,,,,,,,,,,,,,220.6251,220.8219,220.822,221.3219,,,,,,,,,,,,,,1.2869,1,,,,,,,,,,,,,,z,,,,,,,,,,,,,,,,31,0,221.3226,222.6218,z,1,1.2869,,[],[],[],[],[],[],[],222.6219,224.6219,224.622,224.6223,[],[],[],[],[],[],[],,224.6223,224.6226,-0.080646701,-0.255529514,0,0,0,,0,30,30,50,1,3,TL,lirebal,print,lirebal_p.png,,,,,,
,,,,32011,001,2025-10-15_16h27.43.067,HW_LDT_1,2024.2.4,MacIntel,60.24096386,,,,,,,,,,,,,,,,,,,,,224.6257,224.8229,224.823,225.3229,,,,,,,,,,,,,,1.0516,1,,,,,,,,,,,,,,z,,,,,,,,,,,,,,,,32,0,225.3236,226.3895,z,1,1.0516,,[],[],[],[],[],[],[],226.3895,228.3899,228.3901,228.3907,[],[],[],[],[],[],[],,228.3907,228.391,-0.080646701,-0.255529514,0,0,0,,0,31,31,58,1,3,TL,nuremical,print,nuremical_p.png,,,,,,
,,,,32011,001,2025-10-15_16h27.43.067,HW_LDT_1,2024.2.4,MacIntel,60.24096386,,,,,,,,,,,,,,,,,,,,,228.3943,228.5897,228.5897,229.0896,,,,,,,,,,,,,,4.2222,1,,,,,,,,,,,,,,m,,,,,,,,,,,,,,,,33,0,229.0908,233.3227,m,1,4.2222,,[],[],[],[],[],[],[],233.3228,235.3229,235.323,235.3232,[],[],[],[],[],[],[],,235.3234,235.3235,-0.080646701,-0.255529514,0,0,0,,0,32,32,121,1,3,word,MISTAKE,cursive,mistake_c.png,,,,,,
,,,,32011,001,2025-10-15_16h27.43.067,HW_LDT_1,2024.2.4,MacIntel,60.24096386,,,,,,,,,,,,,,,,,,,,,235.3251,235.5229,235.523,236.0228,,,,,,,,,,,,,,1.6363,1,,,,,,,,,,,,,,z,,,,,,,,,,,,,,,,34,1,236.0236,237.6729,z,1,1.6363,,[],[],[],[],[],[],[],237.673,239.6729,239.673,240.7401,[],[],[],[],[],[],[],z,240.7402,240.7403,-0.080646701,-0.255529514,0,0,0,,0,33,33,51,1,3,TL,liretal,print,liretal_p.png,1.0663,,,,,
,,,,32011,001,2025-10-15_16h27.43.067,HW_LDT_1,2024.2.4,MacIntel,60.24096386,,,,,,,,,,,,,,,,,,,,,240.7417,240.9397,240.9397,241.4396,,,,,,,,,,,,,,1.3362,1,,,,,,,,,,,,,,m,,,,,,,,,,,,,,,,35,0,241.4404,242.7896,m,1,1.3362,,[],[],[],[],[],[],[],242.7897,244.7895,244.7897,244.7899,[],[],[],[],[],[],[],,244.7899,244.79,-0.080646701,-0.255529514,0,0,0,,0,34,34,148,1,3,word,SALINE,cursive,saline_c.png,,,,,,
,,,,32011,001,2025-10-15_16h27.43.067,HW_LDT_1,2024.2.4,MacIntel,60.24096386,,,,,,,,,,,,,,,,,,,,,244.7917,244.9896,244.9896,245.4889,,,,,,,,,,,,,,1.9198,1,,,,,,,,,,,,,,z,,,,,,,,,,,,,,,,36,0,245.4896,247.4229,z,1,1.9198,,[],[],[],[],[],[],[],247.4231,249.4227,249.4228,249.423,[],[],[],[],[],[],[],,249.4232,249.4233,-0.080646701,-0.255529514,0,0,0,,0,35,35,15,1,3,RL,mifikary,cursive,mifikary_c.png,,,,,,
,,,,32011,001,2025-10-15_16h27.43.067,HW_LDT_1,2024.2.4,MacIntel,60.24096386,,,,,,,,,,,,,,,,,,,,,249.4249,249.6229,249.623,250.1229,,,,,,,,,,,,,,1.739,1,,,,,,,,,,,,,,m,,,,,,,,,,,,,,,,37,0,250.1236,251.8729,m,1,1.739,,[],[],[],[],[],[],[],251.8731,253.8724,253.8725,253.8727,[],[],[],[],[],[],[],,253.8728,253.8729,-0.080646701,-0.255529514,0,0,0,,0,36,36,93,1,3,word,CEREMONY,cursive,ceremony_c.png,,,,,,
,,,,32011,001,2025-10-15_16h27.43.067,HW_LDT_1,2024.2.4,MacIntel,60.24096386,,,,,,,,,,,,,,,,,,,,,253.8746,254.0729,254.073,254.573,,,,,,,,,,,,,,1.1525,1,,,,,,,,,,,,,,m,,,,,,,,,,,,,,,,38,0,254.5738,255.7398,m,1,1.1525,,[],[],[],[],[],[],[],255.74,257.7397,257.7397,257.74,[],[],[],[],[],[],[],,257.74,257.7402,-0.080646701,-0.255529514,0,0,0,,0,37,37,147,1,3,word,ROMANTIC,cursive,romantic_c.png,,,,,,
,,,,32011,001,2025-10-15_16h27.43.067,HW_LDT_1,2024.2.4,MacIntel,60.24096386,,,,,,,,,,,,,,,,,,,,,257.7425,257.9396,257.9397,258.4396,,,,,,,,,,,,,,1.0787,1,,,,,,,,,,,,,,m,,,,,,,,,,,,,,,,39,0,258.4404,259.5225,m,1,1.0787,,[],[],[],[],[],[],[],259.5226,261.523,261.5232,261.5234,[],[],[],[],[],[],[],,261.5234,261.5236,-0.080646701,-0.255529514,0,0,0,,0,38,38,125,1,3,word,OPERATOR,print,operator_p.png,,,,,,
,,,,32011,001,2025-10-15_16h27.43.067,HW_LDT_1,2024.2.4,MacIntel,60.24096386,,,,,,,,,,,,,,,,,,,,,261.5249,261.7231,261.7231,262.2228,,,,,,,,,,,,,,0.6865,1,,,,,,,,,,,,,,m,,,,,,,,,,,,,,,,40,0,262.2236,262.9226,m,1,0.6865,,[],[],[],[],[],[],[],262.9227,264.923,264.9236,264.924,[],[],[],[],[],[],[],,264.9241,264.9243,-0.080646701,-0.255529514,0,0,0,,0,39,39,102,1,3,word,DENSITY,print,density_p.png,,,,,,
,,,,32011,001,2025-10-15_16h27.43.067,HW_LDT_1,2024.2.4,MacIntel,60.24096386,,,,,,,,,,,,,,,,,,,,,264.9275,265.1229,265.123,265.6228,,,,,,,,,,,,,,2.3889,1,,,,,,,,,,,,,,z,,,,,,,,,,,,,,,,41,0,265.624,268.023,z,1,2.3889,,[],[],[],[],[],[],[],268.0231,270.0229,270.023,270.0233,[],[],[],[],[],[],[],,270.0234,270.0235,-0.080646701,-0.255529514,0,0,0,,0,40,40,71,1,3,TL,sanile,cursive,sanile_c.png,,,,,,
,,,,32011,001,2025-10-15_16h27.43.067,HW_LDT_1,2024.2.4,MacIntel,60.24096386,,,,,,,,,,,,,,,,,,,,,270.0252,270.223,270.223,270.723,,,,,,,,,,,,,,1.8059,1,,,,,,,,,,,,,,m,,,,,,,,,,,,,,,,42,0,270.7238,272.5396,m,1,1.8059,,[],[],[],[],[],[],[],272.5397,274.5396,274.5396,274.54,[],[],[],[],[],[],[],,274.54,274.5402,-0.080646701,-0.255529514,0,0,0,,0,41,41,107,1,3,word,EVIDENT,cursive,evident_c.png,,,,,,
,,,,32011,001,2025-10-15_16h27.43.067,HW_LDT_1,2024.2.4,MacIntel,60.24096386,,,,,,,,,,,,,,,,,,,,,274.5417,274.7396,274.7398,275.2396,,,,,,,,,,,,,,2.3524,1,,,,,,,,,,,,,,z,,,,,,,,,,,,,,,,43,1,275.2405,277.6063,z,1,2.3524,,[],[],[],[],[],[],[],277.6064,279.6063,279.6064,280.4395,[],[],[],[],[],[],[],z,280.4397,280.4398,-0.080646701,-0.255529514,0,0,0,,0,42,42,14,1,3,RL,lofase,cursive,lofase_c.png,0.8205,,,,,
,,,,32011,001,2025-10-15_16h27.43.067,HW_LDT_1,2024.2.4,MacIntel,60.24096386,,,,,,,,,,,,,,,,,,,,,280.4421,280.6396,280.6398,281.1397,,,,,,,,,,,,,,1.5187,0,,,,,,,,,,,,,,m,,,,,,,,,,,,,,,,44,0,281.141,282.6758,z,0,1.5187,,[],[],[],[],[],[],[],282.6766,284.6721,284.6723,284.6726,[],[],[],[],[],[],[],,284.6727,284.6728,-0.080646701,-0.255529514,0,0,0,,0,43,43,140,1,3,word,RELATIVE,cursive,relative_c.png,,,,,,
,,,,32011,001,2025-10-15_16h27.43.067,HW_LDT_1,2024.2.4,MacIntel,60.24096386,,,,,,,,,,,,,,,,,,,,,284.6763,284.8729,284.873,285.3728,,,,,,,,,,,,,,3.5044,1,,,,,,,,,,,,,,z,,,,,,,,,,,,,,,,45,0,285.3738,288.8896,z,1,3.5044,,[],[],[],[],[],[],[],288.8897,290.8896,290.8897,290.8899,[],[],[],[],[],[],[],,290.89,290.8902,-0.080646701,-0.255529514,0,0,0,,0,44,44,12,1,3,RL,formuke,cursive,formuke_c.png,,,,,,
,,,,32011,001,2025-10-15_16h27.43.067,HW_LDT_1,2024.2.4,MacIntel,60.24096386,,,,,,,,,,,,,,,,,,,,,290.8918,291.0895,291.0897,291.5896,,,,,,,,,,,,,,0.6984,1,,,,,,,,,,,,,,m,,,,,,,,,,,,,,,,46,0,291.5905,292.2902,m,1,0.6984,,[],[],[],[],[],[],[],292.2903,294.2891,294.2893,294.2895,[],[],[],[],[],[],[],,294.2895,294.2896,-0.080646701,-0.255529514,0,0,0,,0,45,45,106,1,3,word,ELABORATE,print,elaborate_p.png,,,,,,
,,,,32011,001,2025-10-15_16h27.43.067,HW_LDT_1,2024.2.4,MacIntel,60.24096386,,,,,,,,,,,,,,,,,,,,,294.2911,294.4897,294.4897,294.9896,,,,,,,,,,,,,,0.6407,1,,,,,,,,,,,,,,z,,,,,,,,,,,,,,,,47,0,294.9904,295.6396,z,1,0.6407,,[],[],[],[],[],[],[],295.6397,297.6397,297.6398,297.6399,[],[],[],[],[],[],[],,297.6401,297.6402,-0.080646701,-0.255529514,0,0,0,,0,46,46,9,1,3,RL,docirant,print,docirant_p.png,,,,,,
,,,,32011,001,2025-10-15_16h27.43.067,HW_LDT_1,2024.2.4,MacIntel,60.24096386,,,,,,,,,,,,,,,,,,,,,297.6419,297.8397,297.8398,298.3396,,,,,,,,,,,,,,0.5036,1,,,,,,,,,,,,,,m,,,,,,,,,,,,,,,,48,0,298.3404,298.8563,m,1,0.5036,,[],[],[],[],[],[],[],298.8564,300.8562,300.8563,300.8567,[],[],[],[],[],[],[],,300.8567,300.8568,-0.080646701,-0.255529514,0,0,0,,0,47,47,112,1,3,word,LIBERAL,print,liberal_p.png,,,,,,
,,,,32011,001,2025-10-15_16h27.43.067,HW_LDT_1,2024.2.4,MacIntel,60.24096386,,,,,,,,,,,,,,,,,,,,,300.8585,301.0562,301.0564,301.556,,,,,,,,,,,,,,0.6079,1,,,,,,,,,,,,,,m,,,,,,,,,,,,,,,,49,0,301.5569,302.1729,m,1,0.6079,,[],[],[],[],[],[],[],302.173,304.1729,304.173,304.1732,[],[],[],[],[],[],[],,304.1733,304.1735,-0.080646701,-0.255529514,0,0,0,,0,48,48,103,1,3,word,DISPUTE,print,dispute_p.png,,,,,,
,,,,32011,001,2025-10-15_16h27.43.067,HW_LDT_1,2024.2.4,MacIntel,60.24096386,,,,,,,,,,,,,,,,,,,,,304.1751,304.3729,304.373,304.8729,,,,,,,,,,,,,,0.5199,1,,,,,,,,,,,,,,m,,,,,,,,,,,,,,,,50,0,304.8736,305.4063,m,1,0.5199,,[],[],[],[],[],[],[],305.4063,307.4062,307.4064,307.4066,[],[],[],[],[],[],[],,307.4066,307.4067,-0.080646701,-0.255529514,0,0,0,,0,49,49,131,1,3,word,POPULAR,print,popular_p.png,,,,,,
,,,,32011,001,2025-10-15_16h27.43.067,HW_LDT_1,2024.2.4,MacIntel,60.24096386,,,,,,,,,,,,,,,,,,,,,307.4084,307.6063,307.6064,308.1063,,,,,,,,,,,,,,2.6694,1,,,,,,,,,,,,,,z,,,,,,,,,,,,,,,,51,0,308.1072,310.7896,z,1,2.6694,,[],[],[],[],[],[],[],310.7897,312.7896,312.7898,312.79,[],[],[],[],[],[],[],,312.79,312.7902,-0.080646701,-0.255529514,0,0,0,,0,50,50,36,1,3,TL,carema,cursive,carema_c.png,,,,,,
,,,,32011,001,2025-10-15_16h27.43.067,HW_LDT_1,2024.2.4,MacIntel,60.24096386,,,,,,,,,,,,,,,,,,,,,312.792,312.9897,312.9897,313.4898,,,,,,,,,,,,,,0.8364,1,,,,,,,,,,,,,,z,,,,,,,,,,,,,,,,52,1,313.4903,314.3389,z,1,0.8364,,[],[],[],[],[],[],[],314.339,316.3389,316.339,317.4063,[],[],[],[],[],[],[],m,317.4064,317.4064,-0.080646701,-0.255529514,0,0,0,,0,51,51,73,1,3,TL,speficic,print,speficic_p.png,1.0548,,,,,
,,,,32011,001,2025-10-15_16h27.43.067,HW_LDT_1,2024.2.4,MacIntel,60.24096386,,,,,,,,,,,,,,,,,,,,,317.4078,317.6063,317.6063,318.1062,,,,,,,,,,,,,,2.3581,0,,,,,,,,,,,,,,m,,,,,,,,,,,,,,,,53,0,318.1069,320.4731,z,0,2.3581,,[],[],[],[],[],[],[],320.4731,322.473,322.473,322.4732,[],[],[],[],[],[],[],,322.4733,322.4734,-0.080646701,-0.255529514,0,0,0,,0,52,52,90,1,3,word,CAPITAL,cursive,capital_c.png,,,,,,
,,,,32011,001,2025-10-15_16h27.43.067,HW_LDT_1,2024.2.4,MacIntel,60.24096386,,,,,,,,,,,,,,,,,,,,,322.4754,322.6729,322.6729,323.1729,,,,,,,,,,,,,,3.1881,1,,,,,,,,,,,,,,z,,,,,,,,,,,,,,,,54,0,323.1737,326.373,z,1,3.1881,,[],[],[],[],[],[],[],326.3731,328.3729,328.373,328.3732,[],[],[],[],[],[],[],,328.3733,328.3734,-0.080646701,-0.255529514,0,0,0,,0,53,53,42,1,3,TL,detabe,cursive,detabe_c.png,,,,,,
,,,,32011,001,2025-10-15_16h27.43.067,HW_LDT_1,2024.2.4,MacIntel,60.24096386,,,,,,,,,,,,,,,,,,,,,328.375,328.573,328.5731,329.0729,,,,,,,,,,,,,,1.081,1,,,,,,,,,,,,,,z,,,,,,,,,,,,,,,,55,0,329.0736,330.1562,z,1,1.081,,[],[],[],[],[],[],[],330.1563,332.1562,332.1563,332.1566,[],[],[],[],[],[],[],,332.1567,332.1568,-0.080646701,-0.255529514,0,0,0,,0,54,54,8,1,3,RL,cocewage,print,cocewage_p.png,,,,,,
,,,,32011,001,2025-10-15_16h27.43.067,HW_LDT_1,2024.2.4,MacIntel,60.24096386,,,,,,,,,,,,,,,,,,,,,332.1584,332.3563,332.3563,332.8562,,,,,,,,,,,,,,0.5715,1,,,,,,,,,,,,,,m,,,,,,,,,,,,,,,,56,0,332.8569,333.4396,m,1,0.5715,,[],[],[],[],[],[],[],333.4397,335.4396,335.4397,335.4398,[],[],[],[],[],[],[],,335.4399,335.44,-0.080646701,-0.255529514,0,0,0,,0,55,55,96,1,3,word,CONSIDER,print,consider_p.png,,,,,,
,,,,32011,001,2025-10-15_16h27.43.067,HW_LDT_1,2024.2.4,MacIntel,60.24096386,,,,,,,,,,,,,,,,,,,,,335.4414,335.6396,335.6397,336.1396,,,,,,,,,,,,,,0.603,1,,,,,,,,,,,,,,m,,,,,,,,,,,,,,,,57,1,336.1402,336.7563,m,1,0.603,,[],[],[],[],[],[],[],336.7563,338.7562,338.7563,339.8563,[],[],[],[],[],[],[],m,339.8564,339.8565,-0.080646701,-0.255529514,0,0,0,,0,56,56,101,1,3,word,DELICATE,print,delicate_p.png,1.0874,,,,,
,,,,32011,001,2025-10-15_16h27.43.067,HW_LDT_1,2024.2.4,MacIntel,60.24096386,,,,,,,,,,,,,,,,,,,,,339.8579,340.0563,340.0563,340.5562,,,,,,,,,,,,,,0.9561,1,,,,,,,,,,,,,,z,,,,,,,,,,,,,,,,58,0,340.557,341.5228,z,1,0.9561,,[],[],[],[],[],[],[],341.5228,343.523,343.523,343.5234,[],[],[],[],[],[],[],,343.5234,343.5235,-0.080646701,-0.255529514,0,0,0,,0,57,57,69,1,3,TL,redisent,cursive,redisent_c.png,,,,,,
,,,,32011,001,2025-10-15_16h27.43.067,HW_LDT_1,2024.2.4,MacIntel,60.24096386,,,,,,,,,,,,,,,,,,,,,343.5253,343.723,343.7231,344.2231,,,,,,,,,,,,,,2.4133,0,,,,,,,,,,,,,,m,,,,,,,,,,,,,,,,59,0,344.224,346.6394,z,0,2.4133,,[],[],[],[],[],[],[],346.6395,348.6396,348.6397,348.64,[],[],[],[],[],[],[],,348.6401,348.6402,-0.080646701,-0.255529514,0,0,0,,0,58,58,145,1,3,word,RESUME,cursive,resume_c.png,,,,,,
,,,,32011,001,2025-10-15_16h27.43.067,HW_LDT_1,2024.2.4,MacIntel,60.24096386,,,,,,,,,,,,,,,,,,,,,348.6421,348.8396,348.8396,349.3396,,,,,,,,,,,,,,0.7483,1,,,,,,,,,,,,,,z,,,,,,,,,,,,,,,,60,0,349.3402,350.0899,z,1,0.7483,,[],[],[],[],[],[],[],350.09,352.0896,352.0897,352.0899,[],[],[],[],[],[],[],,352.09,352.09,-0.080646701,-0.255529514,0,0,0,,0,59,59,43,1,3,TL,dedace,cursive,dedace_c.png,,,,,,
,,,,32011,001,2025-10-15_16h27.43.067,HW_LDT_1,2024.2.4,MacIntel,60.24096386,,,,,,,,,,,,,,,,,,,,,352.0917,352.2897,352.2898,352.7896,,,,,,,,,,,,,,1.1811,1,,,,,,,,,,,,,,m,,,,,,,,,,,,,,,,61,1,352.7903,353.973,m,1,1.1811,,[],[],[],[],[],[],[],353.9731,355.9731,355.9731,357.7063,[],[],[],[],[],[],[],m,357.7064,357.7065,-0.080646701,-0.255529514,0,0,0,,0,60,60,141,1,3,word,RELIGION,print,religion_p.png,1.7206,,,,,
,,,,32011,001,2025-10-15_16h27.43.067,HW_LDT_1,2024.2.4,MacIntel,60.24096386,,,,,,,,,,,,,,,,,,,,,357.7078,357.9059,357.906,358.4063,,,,,,,,,,,,,,1.8858,1,,,,,,,,,,,,,,m,,,,,,,,,,,,,,,,62,0,358.4073,360.3058,m,1,1.8858,,[],[],[],[],[],[],[],360.3059,362.306,362.306,362.306,[],[],[],[],[],[],[],,362.3061,362.3061,-0.080646701,-0.255529514,0,0,0,,0,61,61,158,1,3,word,VELOCITY,cursive,velocity_c.png,,,,,,
,,,,32011,001,2025-10-15_16h27.43.067,HW_LDT_1,2024.2.4,MacIntel,60.24096386,,,,,,,,,,,,,,,,,,,,,362.3069,362.5063,362.5064,363.0063,,,,,,,,,,,,,,1.807,1,,,,,,,,,,,,,,z,,,,,,,,,,,,,,,,63,0,363.007,364.8231,z,1,1.807,,[],[],[],[],[],[],[],364.8231,366.8231,366.8231,366.8232,[],[],[],[],[],[],[],,366.8233,366.8235,-0.080646701,-0.255529514,0,0,0,,0,62,62,39,1,3,TL,clicinal,print,clicinal_p.png,,,,,,
,,,,32011,001,2025-10-15_16h27.43.067,HW_LDT_1,2024.2.4,MacIntel,60.24096386,,,,,,,,,,,,,,,,,,,,,366.825,367.023,367.023,367.5229,,,,,,,,,,,,,,1.3862,1,,,,,,,,,,,,,,m,,,,,,,,,,,,,,,,64,0,367.5236,368.9222,m,1,1.3862,,[],[],[],[],[],[],[],368.9222,370.9229,370.9229,370.9232,[],[],[],[],[],[],[],,370.9233,370.9234,-0.080646701,-0.255529514,0,0,0,,0,63,63,128,1,3,word,PACIFIC,cursive,pacific_c.png,,,,,,
,,,,32011,001,2025-10-15_16h27.43.067,HW_LDT_1,2024.2.4,MacIntel,60.24096386,,,,,,,,,,,,,,,,,,,,,370.925,371.1225,371.1226,371.6229,,,,,,,,,,,,,,1.0694,1,,,,,,,,,,,,,,m,,,,,,,,,,,,,,,,65,0,371.6235,372.7063,m,1,1.0694,,[],[],[],[],[],[],[],372.7064,374.7063,374.7063,374.7065,[],[],[],[],[],[],[],,374.7067,374.7068,-0.080646701,-0.255529514,0,0,0,,0,64,64,149,1,3,word,SENATOR,cursive,senator_c.png,,,,,,
,,,,32011,001,2025-10-15_16h27.43.067,HW_LDT_1,2024.2.4,MacIntel,60.24096386,,,,,,,,,,,,,,,,,,,,,374.7084,374.9063,374.9063,375.406,,,,,,,,,,,,,,1.1247,1,,,,,,,,,,,,,,m,,,,,,,,,,,,,,,,66,0,375.4064,376.5397,m,1,1.1247,,[],[],[],[],[],[],[],376.5397,378.5397,378.5398,378.5399,[],[],[],[],[],[],[],,378.54,378.5402,-0.080646701,-0.255529514,0,0,0,,0,65,65,105,1,3,word,EDITOR,print,editor_p.png,,,,,,
,,,,32011,001,2025-10-15_16h27.43.067,HW_LDT_1,2024.2.4,MacIntel,60.24096386,,,,,,,,,,,,,,,,,,,,,378.5417,378.7397,378.7397,379.2398,,,,,,,,,,,,,,1.0383,1,,,,,,,,,,,,,,m,,,,,,,,,,,,,,,,67,0,379.2405,380.2898,m,1,1.0383,,[],[],[],[],[],[],[],380.2899,382.2897,382.2898,382.29,[],[],[],[],[],[],[],,382.2901,382.2902,-0.080646701,-0.255529514,0,0,0,,0,66,66,83,1,3,word,ANIMAL,cursive,animal_c.png,,,,,,
,,,,32011,001,2025-10-15_16h27.43.067,HW_LDT_1,2024.2.4,MacIntel,60.24096386,,,,,,,,,,,,,,,,,,,,,382.2919,382.4897,382.4898,382.9898,,,,,,,,,,,,,,1.0361,1,,,,,,,,,,,,,,z,,,,,,,,,,,,,,,,68,0,382.9906,384.0397,z,1,1.0361,,[],[],[],[],[],[],[],384.0398,386.0397,386.0398,386.04,[],[],[],[],[],[],[],,386.04,386.0402,-0.080646701,-0.255529514,0,0,0,,0,67,67,41,1,3,TL,crinimal,print,crinimal_p.png,,,,,,
,,,,32011,001,2025-10-15_16h27.43.067,HW_LDT_1,2024.2.4,MacIntel,60.24096386,,,,,,,,,,,,,,,,,,,,,386.0416,386.2397,386.2398,386.7396,,,,,,,,,,,,,,2.8052,1,,,,,,,,,,,,,,z,,,,,,,,,,,,,,,,69,0,386.7405,389.5563,z,1,2.8052,,[],[],[],[],[],[],[],389.5563,391.5563,391.5563,391.5566,[],[],[],[],[],[],[],,391.5567,391.5569,-0.080646701,-0.255529514,0,0,0,,0,68,68,6,1,3,RL,cenesony,cursive,cenesony_c.png,,,,,,
,,,,32011,001,2025-10-15_16h27.43.067,HW_LDT_1,2024.2.4,MacIntel,60.24096386,,,,,,,,,,,,,,,,,,,,,391.5585,391.7563,391.7563,392.2563,,,,,,,,,,,,,,0.9229,1,,,,,,,,,,,,,,z,,,,,,,,,,,,,,,,70,1,392.257,393.1897,z,1,0.9229,,[],[],[],[],[],[],[],393.1897,395.1897,395.1898,397.4064,[],[],[],[],[],[],[],z,397.4065,397.4066,-0.080646701,-0.255529514,0,0,0,,0,69,69,53,1,3,TL,marnigal,print,marnigal_p.png,2.2089,,,,,
,,,,32011,001,2025-10-15_16h27.43.067,HW_LDT_1,2024.2.4,MacIntel,60.24096386,,,,,,,,,,,,,,,,,,,,,397.4079,397.6064,397.6064,398.1063,,,,,,,,,,,,,,1.0698,0,,,,,,,,,,,,,,m,,,,,,,,,,,,,,,,71,0,398.107,399.1898,z,0,1.0698,,[],[],[],[],[],[],[],399.19,401.1886,401.1887,401.1888,[],[],[],[],[],[],[],,401.189,401.1892,-0.080646701,-0.255529514,0,0,0,,0,70,70,110,1,3,word,HERITAGE,cursive,heritage_c.png,,,,,,
,,,,32011,001,2025-10-15_16h27.43.067,HW_LDT_1,2024.2.4,MacIntel,60.24096386,,,,,,,,,,,,,,,,,,,,,401.1908,401.3886,401.3886,401.8892,,,,,,,,,,,,,,0.5551,1,,,,,,,,,,,,,,m,,,,,,,,,,,,,,,,72,0,401.8898,402.4564,m,1,0.5551,,[],[],[],[],[],[],[],402.4565,404.4563,404.4564,404.4567,[],[],[],[],[],[],[],,404.4568,404.457,-0.080646701,-0.255529514,0,0,0,,0,71,71,130,1,3,word,POLICY,print,policy_p.png,,,,,,
,,,,32011,001,2025-10-15_16h27.43.067,HW_LDT_1,2024.2.4,MacIntel,60.24096386,,,,,,,,,,,,,,,,,,,,,404.4601,404.6553,404.6554,405.1564,,,,,,,,,,,,,,2.5513,0,,,,,,,,,,,,,,m,,,,,,,,,,,,,,,,73,0,405.1572,407.723,z,0,2.5513,,[],[],[],[],[],[],[],407.7231,409.7219,409.7219,409.722,[],[],[],[],[],[],[],,409.722,409.7222,-0.080646701,-0.255529514,0,0,0,,0,72,72,109,1,3,word,GRATEFUL,cursive,grateful_c.png,,,,,,
,,,,32011,001,2025-10-15_16h27.43.067,HW_LDT_1,2024.2.4,MacIntel,60.24096386,,,,,,,,,,,,,,,,,,,,,409.7234,409.9221,409.9221,410.4231,,,,,,,,,,,,,,1.1808,0,,,,,,,,,,,,,,z,,,,,,,,,,,,,,,,74,0,410.424,411.6063,m,0,1.1808,,[],[],[],[],[],[],[],411.6065,413.6063,413.6063,413.6065,[],[],[],[],[],[],[],,413.6065,413.6066,-0.080646701,-0.255529514,0,0,0,,0,73,73,31,1,3,RL,trilude,print,trilude_p.png,,,,,,
,,,,32011,001,2025-10-15_16h27.43.067,HW_LDT_1,2024.2.4,MacIntel,60.24096386,,,,,,,,,,,,,,,,,,,,,413.6079,413.8064,413.8064,414.3062,,,,,,,,,,,,,,0.5895,1,,,,,,,,,,,,,,m,,,,,,,,,,,,,,,,75,0,414.307,414.9065,m,1,0.5895,,[],[],[],[],[],[],[],414.9066,416.9064,416.9064,416.9067,[],[],[],[],[],[],[],,416.9067,416.9068,-0.080646701,-0.255529514,0,0,0,,0,74,74,151,1,3,word,SPECIFIC,print,specific_p.png,,,,,,
,,,,32011,001,2025-10-15_16h27.43.067,HW_LDT_1,2024.2.4,MacIntel,60.24096386,,,,,,,,,,,,,,,,,,,,,416.9082,417.1056,417.1056,417.606,,,,,,,,,,,,,,0.921,0,,,,,,,,,,,,,,m,,,,,,,,,,,,,,,,76,0,417.6064,418.5397,z,0,0.921,,[],[],[],[],[],[],[],418.5398,420.5387,420.5388,420.5391,[],[],[],[],[],[],[],,420.5391,420.5392,-0.080646701,-0.255529514,0,0,0,,0,75,75,92,1,3,word,CATEGORY,cursive,category_c.png,,,,,,
,,,,32011,001,2025-10-15_16h27.43.067,HW_LDT_1,2024.2.4,MacIntel,60.24096386,,,,,,,,,,,,,,,,,,,,,420.5407,420.7387,420.7388,421.2397,,,,,,,,,,,,,,1.1175,1,,,,,,,,,,,,,,z,,,,,,,,,,,,,,,,77,0,421.2403,422.373,z,1,1.1175,,[],[],[],[],[],[],[],422.3731,424.3722,424.3722,424.3723,[],[],[],[],[],[],[],,424.3724,424.3725,-0.080646701,-0.255529514,0,0,0,,0,76,76,24,1,3,RL,quafidy,print,quafidy_p.png,,,,,,
,,,,32011,001,2025-10-15_16h27.43.067,HW_LDT_1,2024.2.4,MacIntel,60.24096386,,,,,,,,,,,,,,,,,,,,,424.3739,424.572,424.572,425.0729,,,,,,,,,,,,,,1.1479,1,,,,,,,,,,,,,,m,,,,,,,,,,,,,,,,78,0,425.0736,426.2231,m,1,1.1479,,[],[],[],[],[],[],[],426.2232,428.2233,428.2234,428.2236,[],[],[],[],[],[],[],,428.2237,428.2238,-0.080646701,-0.255529514,0,0,0,,0,77,77,86,1,3,word,BESIDE,cursive,beside_c.png,,,,,,
,,,,32011,001,2025-10-15_16h27.43.067,HW_LDT_1,2024.2.4,MacIntel,60.24096386,,,,,,,,,,,,,,,,,,,,,428.2253,428.4222,428.4223,428.9221,,,,,,,,,,,,,,0.8561,1,,,,,,,,,,,,,,m,,,,,,,,,,,,,,,,79,1,428.9229,429.7898,m,1,0.8561,,[],[],[],[],[],[],[],429.7899,431.7896,431.7896,433.2389,[],[],[],[],[],[],[],m,433.2389,433.2391,-0.080646701,-0.255529514,0,0,0,,0,78,78,155,1,3,word,STRATEGY,print,strategy_p.png,1.4376,,,,,
,,,,32011,001,2025-10-15_16h27.43.067,HW_LDT_1,2024.2.4,MacIntel,60.24096386,,,,,,,,,,,,,,,,,,,,,433.2404,433.4387,433.4387,433.9387,,,,,,,,,,,,,,0.6072,1,,,,,,,,,,,,,,z,,,,,,,,,,,,,,,,80,0,433.9393,434.5565,z,1,0.6072,,[],[],[],[],[],[],[],434.5566,436.5553,436.5554,436.5556,[],[],[],[],[],[],[],,436.5556,439.1907,-0.080646701,-0.255529514,0,0,0,space,0,79,79,60,1,3,TL,panert,print,panert_p.png,,,2.6144,,,
,,,,32011,001,2025-10-15_16h27.43.067,HW_LDT_1,2024.2.4,MacIntel,60.24096386,,,,,,,,,,,,,,,,,,,,,439.1921,439.3897,439.3898,439.8895,,,,,,,,,,,,,,1.2315,1,,,,,,,,,,,,,,z,,,,,,,,,,,,,,,,81,0,439.8903,441.1231,z,1,1.2315,,[],[],[],[],[],[],[],441.1232,443.122,443.1221,443.1223,[],[],[],[],[],[],[],,443.1224,443.1225,-0.080646701,-0.255529514,0,0,0,,0,80,80,64,1,3,TL,radiply,print,radiply_p.png,,,,,,
,,,,32011,001,2025-10-15_16h27.43.067,HW_LDT_1,2024.2.4,MacIntel,60.24096386,,,,,,,,,,,,,,,,,,,,,443.1241,443.323,443.323,443.8221,,,,,,,,,,,,,,0.932,1,,,,,,,,,,,,,,z,,,,,,,,,,,,,,,,82,0,443.8226,444.7563,z,1,0.932,,[],[],[],[],[],[],[],444.7564,446.7562,446.7563,446.7566,[],[],[],[],[],[],[],,446.7566,446.7568,-0.080646701,-0.255529514,0,0,0,,0,81,81,47,1,3,TL,elarobate,print,elarobate_p.png,,,,,,
,,,,32011,001,2025-10-15_16h27.43.067,HW_LDT_1,2024.2.4,MacIntel,60.24096386,,,,,,,,,,,,,,,,,,,,,446.7583,446.9564,446.9564,447.4563,,,,,,,,,,,,,,0.8031,1,,,,,,,,,,,,,,z,,,,,,,,,,,,,,,,83,1,447.4571,448.273,z,1,0.8031,,[],[],[],[],[],[],[],448.2731,450.273,450.273,451.34,[],[],[],[],[],[],[],z,451.34,451.3401,-0.080646701,-0.255529514,0,0,0,,0,82,82,30,1,3,RL,strapely,print,strapely_p.png,1.0554,,,,,
,,,,32011,001,2025-10-15_16h27.43.067,HW_LDT_1,2024.2.4,MacIntel,60.24096386,,,,,,,,,,,,,,,,,,,,,451.3415,451.5398,451.5398,452.0397,,,,,,,,,,,,,,1.0736,1,,,,,,,,,,,,,,z,,,,,,,,,,,,,,,,84,0,452.0405,453.1232,z,1,1.0736,,[],[],[],[],[],[],[],453.1233,455.123,455.1231,455.1233,[],[],[],[],[],[],[],,455.1233,455.1234,-0.080646701,-0.255529514,0,0,0,,0,83,83,18,1,3,RL,onegator,print,onegator_p.png,,,,,,
,,,,32011,001,2025-10-15_16h27.43.067,HW_LDT_1,2024.2.4,MacIntel,60.24096386,,,,,,,,,,,,,,,,,,,,,455.125,455.3229,455.3231,455.8221,,,,,,,,,,,,,,1.4911,0,,,,,,,,,,,,,,z,,,,,,,,,,,,,,,,85,1,455.8228,457.3222,m,0,1.4911,,[],[],[],[],[],[],[],457.3223,459.323,459.3231,460.0561,[],[],[],[],[],[],[],z,460.0563,460.0563,-0.080646701,-0.255529514,0,0,0,,0,84,84,16,1,3,RL,mishafe,cursive,mishafe_c.png,0.7322,,,,,
,,,,32011,001,2025-10-15_16h27.43.067,HW_LDT_1,2024.2.4,MacIntel,60.24096386,,,,,,,,,,,,,,,,,,,,,460.0572,460.2564,460.2564,460.7555,,,,,,,,,,,,,,2.7287,0,,,,,,,,,,,,,,z,,,,,,,,,,,,,,,,86,0,460.7562,463.4896,m,0,2.7287,,[],[],[],[],[],[],[],463.4899,465.4897,465.4898,465.4904,[],[],[],[],[],[],[],,465.4904,465.4906,-0.080646701,-0.255529514,0,0,0,,0,85,85,34,1,3,TL,aminal,cursive,aminal_c.png,,,,,,
,,,,32011,001,2025-10-15_16h27.43.067,HW_LDT_1,2024.2.4,MacIntel,60.24096386,,,,,,,,,,,,,,,,,,,,,465.4945,465.6897,465.6898,466.1888,,,,,,,,,,,,,,1.0704,1,,,,,,,,,,,,,,m,,,,,,,,,,,,,,,,87,0,466.1896,467.2731,m,1,1.0704,,[],[],[],[],[],[],[],467.2731,469.2721,469.2721,469.2724,[],[],[],[],[],[],[],,469.2724,469.2726,-0.080646701,-0.255529514,0,0,0,,0,86,86,122,1,3,word,MOBILE,cursive,mobile_c.png,,,,,,
,,,,32011,001,2025-10-15_16h27.43.067,HW_LDT_1,2024.2.4,MacIntel,60.24096386,,,,,,,,,,,,,,,,,,,,,469.2744,469.4731,469.4731,469.973,,,,,,,,,,,,,,1.3053,1,,,,,,,,,,,,,,m,,,,,,,,,,,,,,,,88,0,469.9738,471.2888,m,1,1.3053,,[],[],[],[],[],[],[],471.2889,473.2899,473.2899,473.2902,[],[],[],[],[],[],[],,473.2902,473.2905,-0.080646701,-0.255529514,0,0,0,,0,87,87,117,1,3,word,MARINE,cursive,marine_c.png,,,,,,
,,,,32011,001,2025-10-15_16h27.43.067,HW_LDT_1,2024.2.4,MacIntel,60.24096386,,,,,,,,,,,,,,,,,,,,,473.2921,473.4898,473.4899,473.9897,,,,,,,,,,,,,,0.6034,1,,,,,,,,,,,,,,m,,,,,,,,,,,,,,,,89,0,473.9904,474.6064,m,1,0.6034,,[],[],[],[],[],[],[],474.6065,476.6064,476.6066,476.6067,[],[],[],[],[],[],[],,476.6068,476.6069,-0.080646701,-0.255529514,0,0,0,,0,88,88,134,1,3,word,QUALIFY,print,qualify_p.png,,,,,,
,,,,32011,001,2025-10-15_16h27.43.067,HW_LDT_1,2024.2.4,MacIntel,60.24096386,,,,,,,,,,,,,,,,,,,,,476.6085,476.8064,476.8064,477.3063,,,,,,,,,,,,,,0.6033,1,,,,,,,,,,,,,,z,,,,,,,,,,,,,,,,90,0,477.307,477.9231,z,1,0.6033,,[],[],[],[],[],[],[],477.9233,479.923,479.923,479.9232,[],[],[],[],[],[],[],,479.9233,479.9234,-0.080646701,-0.255529514,0,0,0,,0,89,89,0,1,3,RL,afaneur,print,afaneur_p.png,,,,,,
,,,,32011,001,2025-10-15_16h27.43.067,HW_LDT_1,2024.2.4,MacIntel,60.24096386,,,,,,,,,,,,,,,,,,,,,479.925,480.1232,480.1232,480.6232,,,,,,,,,,,,,,0.6528,1,,,,,,,,,,,,,,m,,,,,,,,,,,,,,,,91,0,480.6239,481.2899,m,1,0.6528,,[],[],[],[],[],[],[],481.2899,483.2898,483.2899,483.2902,[],[],[],[],[],[],[],,483.2903,483.2904,-0.080646701,-0.255529514,0,0,0,,0,90,90,80,1,3,word,ACADEMY,print,academy_p.png,,,,,,
,,,,32011,001,2025-10-15_16h27.43.067,HW_LDT_1,2024.2.4,MacIntel,60.24096386,,,,,,,,,,,,,,,,,,,,,483.292,483.4899,483.4899,483.9897,,,,,,,,,,,,,,0.5189,1,,,,,,,,,,,,,,m,,,,,,,,,,,,,,,,92,0,483.9906,484.5231,m,1,0.5189,,[],[],[],[],[],[],[],484.5231,486.5231,486.5232,486.5234,[],[],[],[],[],[],[],,486.5235,486.5236,-0.080646701,-0.255529514,0,0,0,,0,91,91,142,1,3,word,REMOTE,print,remote_p.png,,,,,,
,,,,32011,001,2025-10-15_16h27.43.067,HW_LDT_1,2024.2.4,MacIntel,60.24096386,,,,,,,,,,,,,,,,,,,,,486.5253,486.7232,486.7232,487.2231,,,,,,,,,,,,,,1.7869,1,,,,,,,,,,,,,,m,,,,,,,,,,,,,,,,93,0,487.2238,489.0231,m,1,1.7869,,[],[],[],[],[],[],[],489.0232,491.0231,491.0232,491.0234,[],[],[],[],[],[],[],,491.0235,491.0235,-0.080646701,-0.255529514,0,0,0,,0,92,92,98,1,3,word,CRIMINAL,print,criminal_p.png,,,,,,
,,,,32011,001,2025-10-15_16h27.43.067,HW_LDT_1,2024.2.4,MacIntel,60.24096386,,,,,,,,,,,,,,,,,,,,,491.0251,491.2232,491.2232,491.7227,,,,,,,,,,,,,,0.8639,1,,,,,,,,,,,,,,z,,,,,,,,,,,,,,,,94,0,491.723,492.5894,z,1,0.8639,,[],[],[],[],[],[],[],492.5894,494.5895,494.5898,494.5901,[],[],[],[],[],[],[],,494.5901,494.5902,-0.080646701,-0.255529514,0,0,0,,0,93,93,32,1,3,TL,adacemy,print,adacemy_p.png,,,,,,
,,,,32011,001,2025-10-15_16h27.43.067,HW_LDT_1,2024.2.4,MacIntel,60.24096386,,,,,,,,,,,,,,,,,,,,,494.5908,494.7893,494.7893,495.2898,,,,,,,,,,,,,,0.8027,1,,,,,,,,,,,,,,m,,,,,,,,,,,,,,,,95,1,495.2906,496.1065,m,1,0.8027,,[],[],[],[],[],[],[],496.1066,498.1063,498.1064,499.423,[],[],[],[],[],[],[],m,499.4231,499.4232,-0.080646701,-0.255529514,0,0,0,,0,94,94,150,1,3,word,SENTIMENT,print,sentiment_p.png,1.3041,,,,,
,,,,32011,001,2025-10-15_16h27.43.067,HW_LDT_1,2024.2.4,MacIntel,60.24096386,,,,,,,,,,,,,,,,,,,,,499.4245,499.623,499.6231,500.1231,,,,,,,,,,,,,,0.7696,1,,,,,,,,,,,,,,z,,,,,,,,,,,,,,,,96,0,500.1238,500.9064,z,1,0.7696,,[],[],[],[],[],[],[],500.9065,502.906,502.9061,502.9062,[],[],[],[],[],[],[],,502.9062,502.9063,-0.080646701,-0.255529514,0,0,0,,0,95,95,27,1,3,RL,recile,print,recile_p.png,,,,,,
,,,,32011,001,2025-10-15_16h27.43.067,HW_LDT_1,2024.2.4,MacIntel,60.24096386,,,,,,,,,,,,,,,,,,,,,502.9069,503.106,503.106,503.6064,,,,,,,,,,,,,,1.4907,0,,,,,,,,,,,,,,m,,,,,,,,,,,,,,,,97,0,503.6072,505.1064,z,0,1.4907,,[],[],[],[],[],[],[],505.1065,507.1063,507.1064,507.1068,[],[],[],[],[],[],[],,507.1068,507.107,-0.080646701,-0.255529514,0,0,0,,0,96,96,159,1,3,word,VETERAN,cursive,veteran_c.png,,,,,,
,,,,32011,001,2025-10-15_16h27.43.067,HW_LDT_1,2024.2.4,MacIntel,60.24096386,,,,,,,,,,,,,,,,,,,,,507.1086,507.3064,507.3064,507.8063,,,,,,,,,,,,,,2.7696,0,,,,,,,,,,,,,,m,,,,,,,,,,,,,,,,98,0,507.8068,510.5896,z,0,2.7696,,[],[],[],[],[],[],[],510.5897,512.5899,512.59,512.5901,[],[],[],[],[],[],[],,512.5902,512.5903,-0.080646701,-0.255529514,0,0,0,,0,97,97,114,1,3,word,LOCATE,cursive,locate_c.png,,,,,,
,,,,32011,001,2025-10-15_16h27.43.067,HW_LDT_1,2024.2.4,MacIntel,60.24096386,,,,,,,,,,,,,,,,,,,,,512.5919,512.7896,512.7896,513.2897,,,,,,,,,,,,,,2.2696,0,,,,,,,,,,,,,,m,,,,,,,,,,,,,,,,99,1,513.2904,515.5731,z,0,2.2696,,[],[],[],[],[],[],[],515.5732,517.5731,517.5732,518.4063,[],[],[],[],[],[],[],z,518.4065,518.4066,-0.080646701,-0.255529514,0,0,0,,0,98,98,120,1,3,word,MILITARY,cursive,military_c.png,0.8206,,,,,
,,,,32011,001,2025-10-15_16h27.43.067,HW_LDT_1,2024.2.4,MacIntel,60.24096386,,,,,,,,,,,,,,,,,,,,,518.408,518.6064,518.6065,519.1064,,,,,,,,,,,,,,1.5906,1,,,,,,,,,,,,,,z,,,,,,,,,,,,,,,,100,0,519.107,520.7064,z,1,1.5906,,[],[],[],[],[],[],[],520.7065,522.7062,522.7064,522.7066,[],[],[],[],[],[],[],,522.7066,522.7068,-0.080646701,-0.255529514,0,0,0,,0,99,99,62,1,3,TL,prodive,print,prodive_p.png,,,,,,
,,,,32011,001,2025-10-15_16h27.43.067,HW_LDT_1,2024.2.4,MacIntel,60.24096386,,,,,,,,,,,,,,,,,,,,,522.7083,522.9065,522.9065,523.4066,,,,,,,,,,,,,,2.2472,1,,,,,,,,,,,,,,z,,,,,,,,,,,,,,,,101,1,523.4074,525.6562,z,1,2.2472,,[],[],[],[],[],[],[],525.6562,527.6562,527.6563,528.4062,[],[],[],[],[],[],[],z,528.4063,528.4064,-0.080646701,-0.255529514,0,0,0,,0,100,100,57,1,3,TL,moredate,cursive,moredate_c.png,0.7371,,,,,
,,,,32011,001,2025-10-15_16h27.43.067,HW_LDT_1,2024.2.4,MacIntel,60.24096386,,,,,,,,,,,,,,,,,,,,,528.4083,528.606,528.6061,529.1061,,,,,,,,,,,,,,3.1032,1,,,,,,,,,,,,,,m,,,,,,,,,,,,,,,,102,1,529.1066,532.2231,m,1,3.1032,,[],[],[],[],[],[],[],532.2233,534.2232,534.2232,534.672,[],[],[],[],[],[],[],z,534.6721,534.6721,-0.080646701,-0.255529514,0,0,0,,0,101,101,144,1,3,word,RESIDENT,cursive,resident_c.png,0.4455,,,,,
,,,,32011,001,2025-10-15_16h27.43.067,HW_LDT_1,2024.2.4,MacIntel,60.24096386,,,,,,,,,,,,,,,,,,,,,534.6729,534.8731,534.8732,535.373,,,,,,,,,,,,,,1.4197,1,,,,,,,,,,,,,,m,,,,,,,,,,,,,,,,103,0,535.3739,536.8065,m,1,1.4197,,[],[],[],[],[],[],[],536.8065,538.8064,538.8066,538.8068,[],[],[],[],[],[],[],,538.8068,538.8069,-0.080646701,-0.255529514,0,0,0,,0,102,102,137,1,3,word,RAPIDLY,print,rapidly_p.png,,,,,,
,,,,32011,001,2025-10-15_16h27.43.067,HW_LDT_1,2024.2.4,MacIntel,60.24096386,,,,,,,,,,,,,,,,,,,,,538.8085,539.0065,539.0066,539.5063,,,,,,,,,,,,,,0.8531,1,,,,,,,,,,,,,,m,,,,,,,,,,,,,,,,104,0,539.507,540.3731,m,1,0.8531,,[],[],[],[],[],[],[],540.3732,542.373,542.3731,542.3733,[],[],[],[],[],[],[],,542.3734,542.3735,-0.080646701,-0.255529514,0,0,0,,0,103,103,87,1,3,word,CAFETERIA,print,cafeteria_p.png,,,,,,
,,,,32011,001,2025-10-15_16h27.43.067,HW_LDT_1,2024.2.4,MacIntel,60.24096386,,,,,,,,,,,,,,,,,,,,,542.3751,542.5731,542.5732,543.0731,,,,,,,,,,,,,,0.6693,1,,,,,,,,,,,,,,m,,,,,,,,,,,,,,,,105,0,543.0739,543.7564,m,1,0.6693,,[],[],[],[],[],[],[],543.7566,545.7564,545.7565,545.7567,[],[],[],[],[],[],[],,545.7568,545.757,-0.080646701,-0.255529514,0,0,0,,0,104,104,133,1,3,word,PROVIDE,print,provide_p.png,,,,,,
,,,,32011,001,2025-10-15_16h27.43.067,HW_LDT_1,2024.2.4,MacIntel,60.24096386,,,,,,,,,,,,,,,,,,,,,545.7586,545.9564,545.9565,546.4564,,,,,,,,,,,,,,1.0197,1,,,,,,,,,,,,,,z,,,,,,,,,,,,,,,,106,0,546.4572,547.4898,z,1,1.0197,,[],[],[],[],[],[],[],547.4899,549.4898,549.4899,549.4901,[],[],[],[],[],[],[],,549.4901,549.4902,-0.080646701,-0.255529514,0,0,0,,0,105,105,56,1,3,TL,meromy,print,meromy_p.png,,,,,,
,,,,32011,001,2025-10-15_16h27.43.067,HW_LDT_1,2024.2.4,MacIntel,60.24096386,,,,,,,,,,,,,,,,,,,,,549.4917,549.6898,549.6899,550.1894,,,,,,,,,,,,,,1.0411,0,,,,,,,,,,,,,,z,,,,,,,,,,,,,,,,107,1,550.1897,551.2397,m,0,1.0411,,[],[],[],[],[],[],[],551.2398,553.2398,553.2398,553.6398,[],[],[],[],[],[],[],z,553.6398,553.64,-0.080646701,-0.255529514,0,0,0,,0,106,106,63,1,3,TL,racidal,cursive,racidal_c.png,0.3874,,,,,
,,,,32011,001,2025-10-15_16h27.43.067,HW_LDT_1,2024.2.4,MacIntel,60.24096386,,,,,,,,,,,,,,,,,,,,,553.6413,553.8398,553.8399,554.3398,,,,,,,,,,,,,,2.8699,1,,,,,,,,,,,,,,z,,,,,,,,,,,,,,,,108,0,554.3406,557.2231,z,1,2.8699,,[],[],[],[],[],[],[],557.2233,559.2232,559.2232,559.2235,[],[],[],[],[],[],[],,559.2235,559.2236,-0.080646701,-0.255529514,0,0,0,,0,107,107,28,1,3,RL,rovastic,cursive,rovastic_c.png,,,,,,
,,,,32011,001,2025-10-15_16h27.43.067,HW_LDT_1,2024.2.4,MacIntel,60.24096386,,,,,,,,,,,,,,,,,,,,,559.2252,559.4231,559.4232,559.9231,,,,,,,,,,,,,,0.9028,1,,,,,,,,,,,,,,m,,,,,,,,,,,,,,,,109,0,559.9239,560.8398,m,1,0.9028,,[],[],[],[],[],[],[],560.8399,562.8399,562.84,562.8402,[],[],[],[],[],[],[],,562.8403,562.8403,-0.080646701,-0.255529514,0,0,0,,0,108,108,127,1,3,word,ORIGINAL,cursive,original_c.png,,,,,,
,,,,32011,001,2025-10-15_16h27.43.067,HW_LDT_1,2024.2.4,MacIntel,60.24096386,,,,,,,,,,,,,,,,,,,,,562.8422,563.0398,563.0399,563.54,,,,,,,,,,,,,,0.5874,1,,,,,,,,,,,,,,m,,,,,,,,,,,,,,,,110,0,563.5422,564.1396,m,1,0.5874,,[],[],[],[],[],[],[],564.1397,566.1399,566.1399,566.1401,[],[],[],[],[],[],[],,566.1402,566.1403,-0.080646701,-0.255529514,0,0,0,,0,109,109,135,1,3,word,QUALITY,print,quality_p.png,,,,,,
,,,,32011,001,2025-10-15_16h27.43.067,HW_LDT_1,2024.2.4,MacIntel,60.24096386,,,,,,,,,,,,,,,,,,,,,566.1419,566.3397,566.3398,566.8398,,,,,,,,,,,,,,0.6574,1,,,,,,,,,,,,,,z,,,,,,,,,,,,,,,,111,0,566.8405,567.5066,z,1,0.6574,,[],[],[],[],[],[],[],567.5067,569.5066,569.5066,569.5068,[],[],[],[],[],[],[],,569.5068,569.507,-0.080646701,-0.255529514,0,0,0,,0,110,110,23,1,3,RL,quakity,print,quakity_p.png,,,,,,
,,,,32011,001,2025-10-15_16h27.43.067,HW_LDT_1,2024.2.4,MacIntel,60.24096386,,,,,,,,,,,,,,,,,,,,,569.5086,569.7066,569.7066,570.2065,,,,,,,,,,,,,,3.1698,1,,,,,,,,,,,,,,z,,,,,,,,,,,,,,,,112,1,570.2072,573.3899,z,1,3.1698,,[],[],[],[],[],[],[],573.3899,575.3897,575.3898,576.5566,[],[],[],[],[],[],[],z,576.5566,576.5568,-0.080646701,-0.255529514,0,0,0,,0,111,111,55,1,3,TL,mecidine,print,mecidine_p.png,1.1565,,,,,
,,,,32011,001,2025-10-15_16h27.43.067,HW_LDT_1,2024.2.4,MacIntel,60.24096386,,,,,,,,,,,,,,,,,,,,,576.558,576.7564,576.7564,577.2564,,,,,,,,,,,,,,0.6856,1,,,,,,,,,,,,,,m,,,,,,,,,,,,,,,,113,0,577.2572,577.9565,m,1,0.6856,,[],[],[],[],[],[],[],577.9565,579.9561,579.9561,579.9563,[],[],[],[],[],[],[],,579.9563,579.9563,-0.080646701,-0.255529514,0,0,0,,0,112,112,116,1,3,word,MARGINAL,print,marginal_p.png,,,,,,
,,,,32011,001,2025-10-15_16h27.43.067,HW_LDT_1,2024.2.4,MacIntel,60.24096386,,,,,,,,,,,,,,,,,,,,,579.957,580.1564,580.1565,580.6565,,,,,,,,,,,,,,2.1551,0,,,,,,,,,,,,,,m,,,,,,,,,,,,,,,,114,0,580.6572,582.8232,z,0,2.1551,,[],[],[],[],[],[],[],582.8234,584.8231,584.8232,584.8237,[],[],[],[],[],[],[],,584.8238,584.8239,-0.080646701,-0.255529514,0,0,0,,0,113,113,123,1,3,word,MODERATE,cursive,moderate_c.png,,,,,,
,,,,32011,001,2025-10-15_16h27.43.067,HW_LDT_1,2024.2.4,MacIntel,60.24096386,,,,,,,,,,,,,,,,,,,,,584.8277,585.0232,585.0232,585.5233,,,,,,,,,,,,,,1.3189,1,,,,,,,,,,,,,,m,,,,,,,,,,,,,,,,115,0,585.5244,586.8566,m,1,1.3189,,[],[],[],[],[],[],[],586.8567,588.8566,588.8566,588.8568,[],[],[],[],[],[],[],,588.8568,588.857,-0.080646701,-0.255529514,0,0,0,,0,114,114,84,1,3,word,BELOVED,cursive,beloved_c.png,,,,,,
,,,,32011,001,2025-10-15_16h27.43.067,HW_LDT_1,2024.2.4,MacIntel,60.24096386,,,,,,,,,,,,,,,,,,,,,588.8586,589.0564,589.0566,589.5565,,,,,,,,,,,,,,1.6983,1,,,,,,,,,,,,,,z,,,,,,,,,,,,,,,,116,1,589.5573,591.2568,z,1,1.6983,,[],[],[],[],[],[],[],591.2569,593.2565,593.2566,593.6397,[],[],[],[],[],[],[],z,593.6399,593.6399,-0.080646701,-0.255529514,0,0,0,,0,115,115,70,1,3,TL,remuse,cursive,remuse_c.png,0.3704,,,,,
,,,,32011,001,2025-10-15_16h27.43.067,HW_LDT_1,2024.2.4,MacIntel,60.24096386,,,,,,,,,,,,,,,,,,,,,593.6421,593.8398,593.8399,594.3397,,,,,,,,,,,,,,2.6895,1,,,,,,,,,,,,,,z,,,,,,,,,,,,,,,,117,0,594.3406,597.0399,z,1,2.6895,,[],[],[],[],[],[],[],597.04,599.0398,599.0399,599.0401,[],[],[],[],[],[],[],,599.0401,599.0403,-0.080646701,-0.255529514,0,0,0,,0,116,116,79,1,3,TL,veretan,cursive,veretan_c.png,,,,,,
,,,,32011,001,2025-10-15_16h27.43.067,HW_LDT_1,2024.2.4,MacIntel,60.24096386,,,,,,,,,,,,,,,,,,,,,599.0418,599.2398,599.2399,599.7398,,,,,,,,,,,,,,2.6019,0,,,,,,,,,,,,,,m,,,,,,,,,,,,,,,,118,1,599.7405,602.3566,z,0,2.6019,,[],[],[],[],[],[],[],602.3567,604.3565,604.3565,604.8232,[],[],[],[],[],[],[],z,604.8233,604.8234,-0.080646701,-0.255529514,0,0,0,,0,117,117,108,1,3,word,FORTUNE,cursive,fortune_c.png,0.4526,,,,,
,,,,32011,001,2025-10-15_16h27.43.067,HW_LDT_1,2024.2.4,MacIntel,60.24096386,,,,,,,,,,,,,,,,,,,,,604.8249,605.0232,605.0233,605.5234,,,,,,,,,,,,,,1.2202,1,,,,,,,,,,,,,,m,,,,,,,,,,,,,,,,119,0,605.5241,606.7567,m,1,1.2202,,[],[],[],[],[],[],[],606.7568,608.7566,608.7567,608.7569,[],[],[],[],[],[],[],,608.7569,608.7571,-0.080646701,-0.255529514,0,0,0,,0,118,118,157,1,3,word,VALIDITY,cursive,validity_c.png,,,,,,
,,,,32011,001,2025-10-15_16h27.43.067,HW_LDT_1,2024.2.4,MacIntel,60.24096386,,,,,,,,,,,,,,,,,,,,,608.7586,608.9564,608.9564,609.4565,,,,,,,,,,,,,,0.9291,1,,,,,,,,,,,,,,z,,,,,,,,,,,,,,,,120,0,609.4572,610.3896,z,1,0.9291,,[],[],[],[],[],[],[],610.3897,612.3898,612.3899,612.3901,[],[],[],[],[],[],[],,612.3902,612.3903,-0.080646701,-0.255529514,0,0,0,,0,119,119,74,1,3,TL,spemicen,print,spemicen_p.png,,,,,,
,,,,32011,001,2025-10-15_16h27.43.067,HW_LDT_1,2024.2.4,MacIntel,60.24096386,,,,,,,,,,,,,,,,,,,,,612.3918,612.5898,612.5898,613.0898,,,,,,,,,,,,,,0.5362,0,,,,,,,,,,,,,,z,,,,,,,,,,,,,,,,121,0,613.0905,613.6398,m,0,0.5362,,[],[],[],[],[],[],[],613.6399,615.6399,615.6399,615.6401,[],[],[],[],[],[],[],,615.6402,615.6403,-0.080646701,-0.255529514,0,0,0,,0,120,120,35,1,3,TL,cateferia,print,cateferia_p.png,,,,,,
,,,,32011,001,2025-10-15_16h27.43.067,HW_LDT_1,2024.2.4,MacIntel,60.24096386,,,,,,,,,,,,,,,,,,,,,615.6418,615.8397,615.8398,616.3395,,,,,,,,,,,,,,1.1386,1,,,,,,,,,,,,,,m,,,,,,,,,,,,,,,,122,0,616.3397,617.4899,m,1,1.1386,,[],[],[],[],[],[],[],617.49,619.4898,619.4898,619.49,[],[],[],[],[],[],[],,619.49,619.4901,-0.080646701,-0.255529514,0,0,0,,0,121,121,136,1,3,word,RADICAL,cursive,radical_c.png,,,,,,
,,,,32011,001,2025-10-15_16h27.43.067,HW_LDT_1,2024.2.4,MacIntel,60.24096386,,,,,,,,,,,,,,,,,,,,,619.4918,619.6899,619.6899,620.1899,,,,,,,,,,,,,,0.7863,1,,,,,,,,,,,,,,z,,,,,,,,,,,,,,,,123,0,620.1905,620.9897,z,1,0.7863,,[],[],[],[],[],[],[],620.9898,622.9897,622.9898,622.9899,[],[],[],[],[],[],[],,622.9901,622.9902,-0.080646701,-0.255529514,0,0,0,,0,122,122,17,1,3,RL,motide,cursive,motide_c.png,,,,,,
,,,,32011,001,2025-10-15_16h27.43.067,HW_LDT_1,2024.2.4,MacIntel,60.24096386,,,,,,,,,,,,,,,,,,,,,622.9917,623.1898,623.1898,623.6899,,,,,,,,,,,,,,0.5865,1,,,,,,,,,,,,,,z,,,,,,,,,,,,,,,,124,0,623.6906,624.2899,z,1,0.5865,,[],[],[],[],[],[],[],624.29,626.2899,626.2899,626.2901,[],[],[],[],[],[],[],,626.2902,626.2903,-0.080646701,-0.255529514,0,0,0,,0,123,123,67,1,3,TL,retome,print,retome_p.png,,,,,,
,,,,32011,001,2025-10-15_16h27.43.067,HW_LDT_1,2024.2.4,MacIntel,60.24096386,,,,,,,,,,,,,,,,,,,,,626.2916,626.4898,626.4898,626.9899,,,,,,,,,,,,,,0.7977,1,,,,,,,,,,,,,,m,,,,,,,,,,,,,,,,125,0,626.9906,627.7897,m,1,0.7977,,[],[],[],[],[],[],[],627.7898,629.7899,629.7899,629.7902,[],[],[],[],[],[],[],,629.7903,629.7904,-0.080646701,-0.255529514,0,0,0,,0,124,124,138,1,3,word,REFUSAL,print,refusal_p.png,,,,,,
,,,,32011,001,2025-10-15_16h27.43.067,HW_LDT_1,2024.2.4,MacIntel,60.24096386,,,,,,,,,,,,,,,,,,,,,629.792,629.9899,629.9899,630.4898,,,,,,,,,,,,,,1.0864,0,,,,,,,,,,,,,,z,,,,,,,,,,,,,,,,126,0,630.4905,631.5901,m,0,1.0864,,[],[],[],[],[],[],[],631.5902,633.5898,633.5899,633.5901,[],[],[],[],[],[],[],,633.5902,633.5903,-0.080646701,-0.255529514,0,0,0,,0,125,125,54,1,3,TL,manire,cursive,manire_c.png,,,,,,
,,,,32011,001,2025-10-15_16h27.43.067,HW_LDT_1,2024.2.4,MacIntel,60.24096386,,,,,,,,,,,,,,,,,,,,,633.592,633.7895,633.7895,634.2897,,,,,,,,,,,,,,1.3178,1,,,,,,,,,,,,,,z,,,,,,,,,,,,,,,,127,1,634.2925,635.6233,z,1,1.3178,,[],[],[],[],[],[],[],635.6233,637.6232,637.6232,637.9399,[],[],[],[],[],[],[],z,637.94,637.9401,-0.080646701,-0.255529514,0,0,0,,0,126,126,20,1,3,RL,orimipal,cursive,orimipal_c.png,0.3052,,,,,
,,,,32011,001,2025-10-15_16h27.43.067,HW_LDT_1,2024.2.4,MacIntel,60.24096386,,,,,,,,,,,,,,,,,,,,,637.9414,638.1398,638.1399,638.6399,,,,,,,,,,,,,,1.2855,1,,,,,,,,,,,,,,z,,,,,,,,,,,,,,,,128,0,638.6407,639.94,z,1,1.2855,,[],[],[],[],[],[],[],639.9401,641.9387,641.9388,641.9392,[],[],[],[],[],[],[],,641.9392,641.9393,-0.080646701,-0.255529514,0,0,0,,0,127,127,5,1,3,RL,capefory,cursive,capefory_c.png,,,,,,
,,,,32011,001,2025-10-15_16h27.43.067,HW_LDT_1,2024.2.4,MacIntel,60.24096386,,,,,,,,,,,,,,,,,,,,,641.9407,642.1398,642.1399,642.6398,,,,,,,,,,,,,,0.8356,1,,,,,,,,,,,,,,z,,,,,,,,,,,,,,,,129,0,642.6409,643.4899,z,1,0.8356,,[],[],[],[],[],[],[],643.49,645.4899,645.49,645.4902,[],[],[],[],[],[],[],,645.4902,645.4904,-0.080646701,-0.255529514,0,0,0,,0,128,128,44,1,3,TL,decilate,print,decilate_p.png,,,,,,
,,,,32011,001,2025-10-15_16h27.43.067,HW_LDT_1,2024.2.4,MacIntel,60.24096386,,,,,,,,,,,,,,,,,,,,,645.492,645.6899,645.6899,646.1898,,,,,,,,,,,,,,0.8527,1,,,,,,,,,,,,,,m,,,,,,,,,,,,,,,,130,0,646.1907,647.0566,m,1,0.8527,,[],[],[],[],[],[],[],647.0567,649.0565,649.0566,649.0569,[],[],[],[],[],[],[],,649.057,649.057,-0.080646701,-0.255529514,0,0,0,,0,129,129,115,1,3,word,LOGICAL,cursive,logical_c.png,,,,,,
,,,,32011,001,2025-10-15_16h27.43.067,HW_LDT_1,2024.2.4,MacIntel,60.24096386,,,,,,,,,,,,,,,,,,,,,649.0586,649.2554,649.2555,649.7555,,,,,,,,,,,,,,0.5485,1,,,,,,,,,,,,,,z,,,,,,,,,,,,,,,,131,0,649.7561,650.3056,z,1,0.5485,,[],[],[],[],[],[],[],650.3057,652.3055,652.3055,652.3057,[],[],[],[],[],[],[],,652.3057,652.3059,-0.080646701,-0.255529514,0,0,0,,0,130,130,25,1,3,RL,retupar,print,retupar_p.png,,,,,,
,,,,32011,001,2025-10-15_16h27.43.067,HW_LDT_1,2024.2.4,MacIntel,60.24096386,,,,,,,,,,,,,,,,,,,,,652.3075,652.5052,652.5052,653.0064,,,,,,,,,,,,,,1.0199,1,,,,,,,,,,,,,,m,,,,,,,,,,,,,,,,132,0,653.007,654.0399,m,1,1.0199,,[],[],[],[],[],[],[],654.04,656.0398,656.0399,656.0402,[],[],[],[],[],[],[],,656.0402,656.0404,-0.080646701,-0.255529514,0,0,0,,0,131,131,113,1,3,word,LITERAL,print,literal_p.png,,,,,,
,,,,32011,001,2025-10-15_16h27.43.067,HW_LDT_1,2024.2.4,MacIntel,60.24096386,,,,,,,,,,,,,,,,,,,,,656.042,656.2398,656.24,656.7393,,,,,,,,,,,,,,1.1062,1,,,,,,,,,,,,,,m,,,,,,,,,,,,,,,,133,0,656.7401,657.8562,m,1,1.1062,,[],[],[],[],[],[],[],657.8562,659.8561,659.8561,659.8563,[],[],[],[],[],[],[],,659.8563,659.8563,-0.080646701,-0.255529514,0,0,0,,0,132,132,132,1,3,word,PROPOSAL,print,proposal_p.png,,,,,,
,,,,32011,001,2025-10-15_16h27.43.067,HW_LDT_1,2024.2.4,MacIntel,60.24096386,,,,,,,,,,,,,,,,,,,,,659.8567,660.0562,660.0562,660.5562,,,,,,,,,,,,,,0.9487,1,,,,,,,,,,,,,,m,,,,,,,,,,,,,,,,134,0,660.5566,661.5065,m,1,0.9487,,[],[],[],[],[],[],[],661.5067,663.5062,663.5062,663.5063,[],[],[],[],[],[],[],,663.5063,663.5063,-0.080646701,-0.255529514,0,0,0,,0,133,133,152,1,3,word,SPECIMEN,print,specimen_p.png,,,,,,
,,,,32011,001,2025-10-15_16h27.43.067,HW_LDT_1,2024.2.4,MacIntel,60.24096386,,,,,,,,,,,,,,,,,,,,,663.5069,663.7064,663.7065,664.2065,,,,,,,,,,,,,,1.5721,1,,,,,,,,,,,,,,z,,,,,,,,,,,,,,,,135,0,664.2074,665.79,z,1,1.5721,,[],[],[],[],[],[],[],665.7901,667.7889,667.789,667.7891,[],[],[],[],[],[],[],,667.7892,667.7893,-0.080646701,-0.255529514,0,0,0,,0,134,134,29,1,3,RL,selamor,cursive,selamor_c.png,,,,,,
,,,,32011,001,2025-10-15_16h27.43.067,HW_LDT_1,2024.2.4,MacIntel,60.24096386,,,,,,,,,,,,,,,,,,,,,667.7909,667.9889,667.9889,668.4898,,,,,,,,,,,,,,0.8064,1,,,,,,,,,,,,,,m,,,,,,,,,,,,,,,,136,0,668.4905,669.3066,m,1,0.8064,,[],[],[],[],[],[],[],669.3066,671.3055,671.3055,671.3057,[],[],[],[],[],[],[],,671.3058,671.3059,-0.080646701,-0.255529514,0,0,0,,0,135,135,111,1,3,word,INDICATE,print,indicate_p.png,,,,,,
,,,,32011,001,2025-10-15_16h27.43.067,HW_LDT_1,2024.2.4,MacIntel,60.24096386,,,,,,,,,,,,,,,,,,,,,671.3075,671.5067,671.5068,672.0065,,,,,,,,,,,,,,1.1027,0,,,,,,,,,,,,,,m,,,,,,,,,,,,,,,,137,0,672.0073,673.1234,z,0,1.1027,,[],[],[],[],[],[],[],673.1235,675.1222,675.1223,675.1225,[],[],[],[],[],[],[],,675.1225,675.1227,-0.080646701,-0.255529514,0,0,0,,0,136,136,118,1,3,word,MEDICINE,print,medicine_p.png,,,,,,
,,,,32011,001,2025-10-15_16h27.43.067,HW_LDT_1,2024.2.4,MacIntel,60.24096386,,,,,,,,,,,,,,,,,,,,,675.1242,675.3232,675.3233,675.8223,,,,,,,,,,,,,,1.1531,1,,,,,,,,,,,,,,z,,,,,,,,,,,,,,,,138,0,675.8229,676.9901,z,1,1.1531,,[],[],[],[],[],[],[],676.9902,678.9899,678.9899,678.9902,[],[],[],[],[],[],[],,678.9902,678.9904,-0.080646701,-0.255529514,0,0,0,,0,137,137,37,1,3,TL,cacapity,cursive,cacapity_c.png,,,,,,
,,,,32011,001,2025-10-15_16h27.43.067,HW_LDT_1,2024.2.4,MacIntel,60.24096386,,,,,,,,,,,,,,,,,,,,,678.992,679.1898,679.1899,679.6899,,,,,,,,,,,,,,2.3712,1,,,,,,,,,,,,,,z,,,,,,,,,,,,,,,,139,0,679.6907,682.0733,z,1,2.3712,,[],[],[],[],[],[],[],682.0733,684.0732,684.0733,684.0735,[],[],[],[],[],[],[],,684.0736,684.0737,-0.080646701,-0.255529514,0,0,0,,0,138,138,75,1,3,TL,sloten,cursive,sloten_c.png,,,,,,
,,,,32011,001,2025-10-15_16h27.43.067,HW_LDT_1,2024.2.4,MacIntel,60.24096386,,,,,,,,,,,,,,,,,,,,,684.0751,684.2723,684.2723,684.7732,,,,,,,,,,,,,,0.6362,1,,,,,,,,,,,,,,m,,,,,,,,,,,,,,,,140,1,684.7739,685.4223,m,1,0.6362,,[],[],[],[],[],[],[],685.4224,687.4223,687.4223,688.2232,[],[],[],[],[],[],[],z,688.2233,688.2234,-0.080646701,-0.255529514,0,0,0,,0,139,139,129,1,3,word,PARENT,print,parent_p.png,0.7881,,,,,
,,,,32011,001,2025-10-15_16h27.43.067,HW_LDT_1,2024.2.4,MacIntel,60.24096386,,,,,,,,,,,,,,,,,,,,,688.2246,688.4232,688.4233,688.9232,,,,,,,,,,,,,,1.0697,0,,,,,,,,,,,,,,m,,,,,,,,,,,,,,,,141,0,688.9238,690.0053,z,0,1.0697,,[],[],[],[],[],[],[],690.0054,692.0056,692.0059,692.0061,[],[],[],[],[],[],[],,692.0061,692.0062,-0.080646701,-0.255529514,0,0,0,,0,140,140,99,1,3,word,DEBATE,cursive,debate_c.png,,,,,,
,,,,32011,001,2025-10-15_16h27.43.067,HW_LDT_1,2024.2.4,MacIntel,60.24096386,,,,,,,,,,,,,,,,,,,,,692.0079,692.2061,692.2061,692.7062,,,,,,,,,,,,,,2.3104,1,,,,,,,,,,,,,,z,,,,,,,,,,,,,,,,142,0,692.7079,695.023,z,1,2.3104,,[],[],[],[],[],[],[],695.023,697.023,697.0231,697.0235,[],[],[],[],[],[],[],,697.0235,697.0237,-0.080646701,-0.255529514,0,0,0,,0,141,141,19,1,3,RL,opcifal,cursive,opcifal_c.png,,,,,,
,,,,32011,001,2025-10-15_16h27.43.067,HW_LDT_1,2024.2.4,MacIntel,60.24096386,,,,,,,,,,,,,,,,,,,,,697.0253,697.2232,697.2233,697.7232,,,,,,,,,,,,,,0.8862,1,,,,,,,,,,,,,,m,,,,,,,,,,,,,,,,143,0,697.7239,698.622,m,1,0.8862,,[],[],[],[],[],[],[],698.622,700.6223,700.6224,700.6225,[],[],[],[],[],[],[],,700.6226,700.6228,-0.080646701,-0.255529514,0,0,0,,0,142,142,100,1,3,word,DECADE,cursive,decade_c.png,,,,,,
,,,,32011,001,2025-10-15_16h27.43.067,HW_LDT_1,2024.2.4,MacIntel,60.24096386,,,,,,,,,,,,,,,,,,,,,700.6245,700.8232,700.8232,701.3232,,,,,,,,,,,,,,0.7057,1,,,,,,,,,,,,,,m,,,,,,,,,,,,,,,,144,0,701.324,702.0399,m,1,0.7057,,[],[],[],[],[],[],[],702.0404,704.0389,704.039,704.0394,[],[],[],[],[],[],[],,704.0396,704.0396,-0.080646701,-0.255529514,0,0,0,,0,143,143,82,1,3,word,AMATEUR,print,amateur_p.png,,,,,,
,,,,32011,001,2025-10-15_16h27.43.067,HW_LDT_1,2024.2.4,MacIntel,60.24096386,,,,,,,,,,,,,,,,,,,,,704.043,704.239,704.239,704.7387,,,,,,,,,,,,,,0.6383,1,,,,,,,,,,,,,,m,,,,,,,,,,,,,,,,145,0,704.7391,705.39,m,1,0.6383,,[],[],[],[],[],[],[],705.3901,707.389,707.3891,707.3894,[],[],[],[],[],[],[],,707.3894,707.3895,-0.080646701,-0.255529514,0,0,0,,0,144,144,139,1,3,word,REGULAR,print,regular_p.png,,,,,,
,,,,32011,001,2025-10-15_16h27.43.067,HW_LDT_1,2024.2.4,MacIntel,60.24096386,,,,,,,,,,,,,,,,,,,,,707.3912,707.59,707.5901,708.0891,,,,,,,,,,,,,,1.2703,1,,,,,,,,,,,,,,z,,,,,,,,,,,,,,,,146,0,708.0899,709.3733,z,1,1.2703,,[],[],[],[],[],[],[],709.3734,711.3733,711.3733,711.3735,[],[],[],[],[],[],[],,711.3736,711.3738,-0.080646701,-0.255529514,0,0,0,,0,145,145,78,1,3,TL,vecolity,cursive,vecolity_c.png,,,,,,
,,,,32011,001,2025-10-15_16h27.43.067,HW_LDT_1,2024.2.4,MacIntel,60.24096386,,,,,,,,,,,,,,,,,,,,,711.3755,711.5732,711.5732,712.0733,,,,,,,,,,,,,,2.0177,1,,,,,,,,,,,,,,z,,,,,,,,,,,,,,,,147,0,712.0759,714.1065,z,1,2.0177,,[],[],[],[],[],[],[],714.1066,716.1101,716.1101,716.1105,[],[],[],[],[],[],[],,716.1106,716.1107,-0.080646701,-0.255529514,0,0,0,,0,146,146,48,1,3,TL,grafetul,cursive,grafetul_c.png,,,,,,
,,,,32011,001,2025-10-15_16h27.43.067,HW_LDT_1,2024.2.4,MacIntel,60.24096386,,,,,,,,,,,,,,,,,,,,,716.1122,716.3056,716.3056,716.8066,,,,,,,,,,,,,,0.7958,0,,,,,,,,,,,,,,m,,,,,,,,,,,,,,,,148,1,716.8073,717.6065,z,0,0.7958,,[],[],[],[],[],[],[],717.6066,719.6055,719.6056,720.6233,[],[],[],[],[],[],[],z,720.6233,720.6234,-0.080646701,-0.255529514,0,0,0,,0,147,147,126,1,3,word,OPTIMAL,cursive,optimal_c.png,1.0046,,,,,
,,,,32011,001,2025-10-15_16h27.43.067,HW_LDT_1,2024.2.4,MacIntel,60.24096386,,,,,,,,,,,,,,,,,,,,,720.6247,720.8232,720.8233,721.3228,,,,,,,,,,,,,,0.7367,0,,,,,,,,,,,,,,m,,,,,,,,,,,,,,,,149,0,721.3236,722.0734,z,0,0.7367,,[],[],[],[],[],[],[],722.0734,724.0732,724.0733,724.0735,[],[],[],[],[],[],[],,724.0735,724.0736,-0.080646701,-0.255529514,0,0,0,,0,148,148,153,1,3,word,STOLEN,cursive,stolen_c.png,,,,,,
,,,,32011,001,2025-10-15_16h27.43.067,HW_LDT_1,2024.2.4,MacIntel,60.24096386,,,,,,,,,,,,,,,,,,,,,724.0752,724.2732,724.2732,724.7733,,,,,,,,,,,,,,0.5817,1,,,,,,,,,,,,,,z,,,,,,,,,,,,,,,,150,0,724.774,725.3569,z,1,0.5817,,[],[],[],[],[],[],[],725.357,727.3556,727.3557,727.3558,[],[],[],[],[],[],[],,727.3558,727.3561,-0.080646701,-0.255529514,0,0,0,,0,149,149,10,1,3,RL,efibor,print,efibor_p.png,,,,,,
,,,,32011,001,2025-10-15_16h27.43.067,HW_LDT_1,2024.2.4,MacIntel,60.24096386,,,,,,,,,,,,,,,,,,,,,727.3574,727.5566,727.5566,728.0565,,,,,,,,,,,,,,1.1858,1,,,,,,,,,,,,,,z,,,,,,,,,,,,,,,,151,0,728.0572,729.2566,z,1,1.1858,,[],[],[],[],[],[],[],729.2566,731.2567,731.2568,731.257,[],[],[],[],[],[],[],,731.2571,731.2573,-0.080646701,-0.255529514,0,0,0,,0,150,150,3,1,3,RL,bebine,cursive,bebine_c.png,,,,,,
,,,,32011,001,2025-10-15_16h27.43.067,HW_LDT_1,2024.2.4,MacIntel,60.24096386,,,,,,,,,,,,,,,,,,,,,731.2589,731.4566,731.4567,731.9566,,,,,,,,,,,,,,0.6031,1,,,,,,,,,,,,,,m,,,,,,,,,,,,,,,,152,0,731.9574,732.5732,m,1,0.6031,,[],[],[],[],[],[],[],732.5733,734.5733,734.5734,734.5737,[],[],[],[],[],[],[],,734.5737,734.574,-0.080646701,-0.255529514,0,0,0,,0,151,151,95,1,3,word,COMEDY,print,comedy_p.png,,,,,,
,,,,32011,001,2025-10-15_16h27.43.067,HW_LDT_1,2024.2.4,MacIntel,60.24096386,,,,,,,,,,,,,,,,,,,,,734.5756,734.7733,734.7733,735.2733,,,,,,,,,,,,,,0.7192,1,,,,,,,,,,,,,,z,,,,,,,,,,,,,,,,153,0,735.274,736.0066,z,1,0.7192,,[],[],[],[],[],[],[],736.0067,738.0066,738.0066,738.0069,[],[],[],[],[],[],[],,738.007,738.0071,-0.080646701,-0.255529514,0,0,0,,0,152,152,4,1,3,RL,cafigal,cursive,cafigal_c.png,,,,,,
,,,,32011,001,2025-10-15_16h27.43.067,HW_LDT_1,2024.2.4,MacIntel,60.24096386,,,,,,,,,,,,,,,,,,,,,738.0087,738.2064,738.2066,738.7065,,,,,,,,,,,,,,0.9552,0,,,,,,,,,,,,,,m,,,,,,,,,,,,,,,,154,0,738.7074,739.6734,z,0,0.9552,,[],[],[],[],[],[],[],739.6735,741.6722,741.6722,741.6725,[],[],[],[],[],[],[],,741.6725,741.6726,-0.080646701,-0.255529514,0,0,0,,0,153,153,154,1,3,word,STORAGE,cursive,storage_c.png,,,,,,
,,,,32011,001,2025-10-15_16h27.43.067,HW_LDT_1,2024.2.4,MacIntel,60.24096386,,,,,,,,,,,,,,,,,,,,,741.6744,741.8732,741.8732,742.3732,,,,,,,,,,,,,,1.0894,1,,,,,,,,,,,,,,z,,,,,,,,,,,,,,,,155,0,742.374,743.4733,z,1,1.0894,,[],[],[],[],[],[],[],743.4734,745.4733,745.4734,745.4735,[],[],[],[],[],[],[],,745.4737,745.4738,-0.080646701,-0.255529514,0,0,0,,0,154,154,38,1,3,TL,carnidal,print,carnidal_p.png,,,,,,
,,,,32011,001,2025-10-15_16h27.43.067,HW_LDT_1,2024.2.4,MacIntel,60.24096386,,,,,,,,,,,,,,,,,,,,,745.4755,745.6732,745.6733,746.1733,,,,,,,,,,,,,,2.8699,1,,,,,,,,,,,,,,z,,,,,,,,,,,,,,,,156,0,746.1741,749.0566,z,1,2.8699,,[],[],[],[],[],[],[],749.0566,751.0563,751.0564,751.0565,[],[],[],[],[],[],[],,751.0565,751.0565,-0.080646701,-0.255529514,0,0,0,,0,155,155,66,1,3,TL,retalive,cursive,retalive_c.png,,,,,,
,,,,32011,001,2025-10-15_16h27.43.067,HW_LDT_1,2024.2.4,MacIntel,60.24096386,,,,,,,,,,,,,,,,,,,,,751.0572,751.2567,751.2568,751.7567,,,,,,,,,,,,,,0.5695,1,,,,,,,,,,,,,,z,,,,,,,,,,,,,,,,157,0,751.7574,752.34,z,1,0.5695,,[],[],[],[],[],[],[],752.3402,754.3401,754.3401,754.3403,[],[],[],[],[],[],[],,754.3404,754.3405,-0.080646701,-0.255529514,0,0,0,,0,156,156,21,1,3,RL,potugar,print,potugar_p.png,,,,,,
,,,,32011,001,2025-10-15_16h27.43.067,HW_LDT_1,2024.2.4,MacIntel,60.24096386,,,,,,,,,,,,,,,,,,,,,754.3423,754.5399,754.5399,755.0399,,,,,,,,,,,,,,1.2214,1,,,,,,,,,,,,,,m,,,,,,,,,,,,,,,,158,0,755.0406,756.2733,m,1,1.2214,,[],[],[],[],[],[],[],756.2734,758.2733,758.2733,758.2734,[],[],[],[],[],[],[],,758.2736,758.2736,-0.080646701,-0.255529514,0,0,0,,0,157,157,124,1,3,word,NUMERICAL,print,numerical_p.png,,,,,,
,,,,32011,001,2025-10-15_16h27.43.067,HW_LDT_1,2024.2.4,MacIntel,60.24096386,,,,,,,,,,,,,,,,,,,,,758.2751,758.4733,758.4734,758.9733,,,,,,,,,,,,,,0.7208,1,,,,,,,,,,,,,,z,,,,,,,,,,,,,,,,159,0,758.9753,759.7066,z,1,0.7208,,[],[],[],[],[],[],[],759.7068,761.7058,761.7059,761.7061,[],[],[],[],[],[],[],,761.7061,761.7061,-0.080646701,-0.255529514,0,0,0,,0,158,158,26,1,3,RL,repifion,print,repifion_p.png,,,,,,
,,,,32011,001,2025-10-15_16h27.43.067,HW_LDT_1,2024.2.4,MacIntel,60.24096386,,,,,,,,,,,,,,,,,,,,,761.7072,761.9062,761.9064,762.4066,,,,,,,,,,,,,,1.0875,1,,,,,,,,,,,,,,z,,,,,,,,,,,,,,,,160,0,762.4077,763.5066,z,1,1.0875,,[],[],[],[],[],[],[],763.5067,765.5066,765.5066,765.5069,[],[],[],[],[],[],[],,765.507,765.5071,-0.080646701,-0.255529514,0,0,0,,0,159,159,46,1,3,TL,distupe,print,distupe_p.png,,,,,,
,,,,32011,001,2025-10-15_16h27.43.067,HW_LDT_1,2024.2.4,MacIntel,60.24096386,,,,,,,,,,,,,,,,,,,,,,,,,,,,,,,,,,,,,,,,,,,,,,,,,,,,,,,,,,,,,,,,,,,,,,,,,,,,,,,,,,,,,,,,,,,,,,,,,,,,,,,,,,,,,,,,,,,,,,765.5172,770.5064
