counterbalance_lists.group,counterbalance_lists.remaining,get_list.started,get_list.stopped,participant,session,date,expName,psychopyVersion,OS,frameRate,Instructions.started,Instructions.stopped,key_resp.keys,key_resp.rt,key_resp.duration,instr_done_touch.x,instr_done_touch.y,instr_done_touch.leftButton,instr_done_touch.midButton,instr_done_touch.rightButton,start_instr.thisRepN,start_instr.thisTrialN,start_instr.thisN,start_instr.thisIndex,start_instr.ran,pageN,phase,instruct_text,has_image,instruct_image,showProgress.started,showProgress.stopped,fix.started,fix.stopped,prac.started,prac.stopped,response.keys,response.corr,response.rt,response.duration,touch_resp.x,touch_resp.y,touch_resp.leftButton,touch_resp.midButton,touch_resp.rightButton,touch_resp.time,touch_resp.clicked_name,rt,corr,feedback.started,feedback.stopped,trials.thisRepN,trials.thisTrialN,trials.thisN,trials.thisIndex,trials.ran,TrialID,StimulusType,Condition,PrimeDuration,Prime,Target,corrAns,Instructions_expt.started,Instructions_expt.stopped,key_resp_3.keys,key_resp_3.rt,key_resp_3.duration,instr_done_touch_3.x,instr_done_touch_3.y,instr_done_touch_3.leftButton,instr_done_touch_3.midButton,instr_done_touch_3.rightButton,instr_experiment.thisRepN,instr_experiment.thisTrialN,instr_experiment.thisN,instr_experiment.thisIndex,instr_experiment.ran,trialID,flag,maintask.started,maintask.stopped,key_resp_2.keys,key_resp_2.corr,key_resp_2.rt,key_resp_2.duration,targ_click.x,targ_click.y,targ_click.leftButton,targ_click.midButton,targ_click.rightButton,targ_click.time,targ_click.clicked_name,ITI.started,ITI.stopped,probe.started,probe.stopped,click_probe.x,click_probe.y,click_probe.leftButton,click_probe.midButton,click_probe.rightButton,click_probe.time,click_probe.clicked_name,key_resp_probe.keys,Break.started,Break.stopped,break_done_touch.x,break_done_touch.y,break_done_touch.leftButton,break_done_touch.midButton,break_done_touch.rightButton,break_done_keyboard.keys,list3_trials.thisRepN,list3_trials.thisTrialN,list3_trials.thisN,list3_trials.thisIndex,list3_trials.ran,list_id,item_type,string,font,stim_file,key_resp_probe.rt,key_resp_probe.duration,break_done_keyboard.rt,break_done_keyboard.duration,End.started,End.stopped
list3,,0.4095,0.4098,32019,001,2025-10-17_14h47.03.348,HW_LDT_1,2024.2.4,MacIntel,59.88023952,,,,,,,,,,,,,,,,,,,,,,,,,,,,,,,,,,,,,,,,,,,,,,,,,,,,,,,,,,,,,,,,,,,,,,,,,,,,,,,,,,,,,,,,,,,,,,,,,,,,,,,,,,,,,,,,,,,,,,,
,,,,32019,001,2025-10-17_14h47.03.348,HW_LDT_1,2024.2.4,MacIntel,59.88023952,0.4298,22.112,space,21.6561,,-0.059617018,-0.388243037,0,0,0,0,0,0,0,1,1,instructions,"INSTRUCTIONS
At the start of each trial, look at the plus sign  (+) in the center of the screen.  This tells you that a trial is about to begin and where to look. Second, the plus sign will disappear and a string of letters will appear. Your task is to determine if the string of letters is a word or not. If the item is a word press the M key (on keyboard)  or touch the word button (phone/tablet).  If the item is not a word,  press the  Z key (on keyboard)  or touch the nonword button (on phone/tablet). The items will be presented for a short time. 
Press the space bar or touch  continue.",0,,,,,,,,,,,,,,,,,,,,,,,,,,,,,,,,,,,,,,,,,,,,,,,,,,,,,,,,,,,,,,,,,,,,,,,,,,,,,,,,,,,,,,,,,,,,,,,,,,,,
,,,,32019,001,2025-10-17_14h47.03.348,HW_LDT_1,2024.2.4,MacIntel,59.88023952,22.114,27.2445,space,5.1048,,-0.059617018,-0.388243037,0,0,0,0,1,1,1,1,2,instructions,"If your device has a keyboard, press the 'Z' key for nonwords and the 'M' key for words.





Press the space bar or touch the button below to continue.",0,keyboard-example.gif,,,,,,,,,,,,,,,,,,,,,,,,,,,,,,,,,,,,,,,,,,,,,,,,,,,,,,,,,,,,,,,,,,,,,,,,,,,,,,,,,,,,,,,,,,,,,,,,,,,
,,,,32019,001,2025-10-17_14h47.03.348,HW_LDT_1,2024.2.4,MacIntel,59.88023952,27.2471,31.161,space,3.8916,,-0.059617018,-0.388243037,0,0,0,0,2,2,2,1,3,instructions,"If you are using a touchscreen only device, use the buttons on the screen. Do not use the mouse.





Press the space bar or touch the button below to continue.",0,touchscreen-example.gif,,,,,,,,,,,,,,,,,,,,,,,,,,,,,,,,,,,,,,,,,,,,,,,,,,,,,,,,,,,,,,,,,,,,,,,,,,,,,,,,,,,,,,,,,,,,,,,,,,,
,,,,32019,001,2025-10-17_14h47.03.348,HW_LDT_1,2024.2.4,MacIntel,59.88023952,31.1634,39.6273,space,8.4421,,-0.059617018,-0.388243037,0,0,0,0,3,3,3,1,4,instructions,"It is very important that you respond as quickly and accurately as possible, as each letter string will only be on the screen for two seconds. If you do not respond within this time, the message 'Too slow!' will be displayed and the experiment will progress to the next letter string. The first 20 trials will be practice trials and you will receive feedback on your answers. 

Press the space bar or touch the button below to start the practice trials.",0,,,,,,,,,,,,,,,,,,,,,,,,,,,,,,,,,,,,,,,,,,,,,,,,,,,,,,,,,,,,,,,,,,,,,,,,,,,,,,,,,,,,,,,,,,,,,,,,,,,,
,,,,32019,001,2025-10-17_14h47.03.348,HW_LDT_1,2024.2.4,MacIntel,59.88023952,,,,,,,,,,,,,,,,,,,,,39.6571,39.827,39.8273,40.3274,40.3277,43.8773,m,1,3.5315,,[],[],[],[],[],[],[],3.5315,1,43.8779,44.3771,0,0,0,6,1,1007,WORD,UN,16,tropic,ZOMBIE,m,,,,,,,,,,,,,,,,,,,,,,,,,,,,,,,,,,,,,,,,,,,,,,,,,,,,,,,,,,,,,,,,,,
,,,,32019,001,2025-10-17_14h47.03.348,HW_LDT_1,2024.2.4,MacIntel,59.88023952,,,,,,,,,,,,,,,,,,,,,44.3789,44.5768,44.5769,45.0767,45.078,46.1601,m,1,1.0656,,[],[],[],[],[],[],[],1.0656,1,46.1603,46.6602,0,1,1,4,1,1005,WORD,UN,33,abound,SQUEAK,m,,,,,,,,,,,,,,,,,,,,,,,,,,,,,,,,,,,,,,,,,,,,,,,,,,,,,,,,,,,,,,,,,,
,,,,32019,001,2025-10-17_14h47.03.348,HW_LDT_1,2024.2.4,MacIntel,59.88023952,,,,,,,,,,,,,,,,,,,,,46.662,46.86,46.8601,47.36,47.3612,48.8933,z,1,1.5146,,[],[],[],[],[],[],[],1.5146,1,48.8935,49.3932,0,2,2,8,1,1009,NW,"ID",33,aslert,ASLERT,z,,,,,,,,,,,,,,,,,,,,,,,,,,,,,,,,,,,,,,,,,,,,,,,,,,,,,,,,,,,,,,,,,,
,,,,32019,001,2025-10-17_14h47.03.348,HW_LDT_1,2024.2.4,MacIntel,59.88023952,,,,,,,,,,,,,,,,,,,,,49.3947,49.5932,49.5932,50.0932,50.0944,51.1265,m,1,1.0148,,[],[],[],[],[],[],[],1.0148,1,51.1267,51.6256,0,3,3,2,1,1003,WORD,"ID",16,almond,ALMOND,m,,,,,,,,,,,,,,,,,,,,,,,,,,,,,,,,,,,,,,,,,,,,,,,,,,,,,,,,,,,,,,,,,,
,,,,32019,001,2025-10-17_14h47.03.348,HW_LDT_1,2024.2.4,MacIntel,59.88023952,,,,,,,,,,,,,,,,,,,,,51.6274,51.8264,51.8265,52.3261,52.3274,53.5264,z,1,1.1852,,[],[],[],[],[],[],[],1.1852,1,53.5266,54.0264,0,4,4,11,1,1012,NW,"ID",16,rashet,RASHET,z,,,,,,,,,,,,,,,,,,,,,,,,,,,,,,,,,,,,,,,,,,,,,,,,,,,,,,,,,,,,,,,,,,
,,,,32019,001,2025-10-17_14h47.03.348,HW_LDT_1,2024.2.4,MacIntel,59.88023952,,,,,,,,,,,,,,,,,,,,,54.0279,54.2264,54.2264,54.7263,54.7275,55.8429,z,1,1.1057,,[],[],[],[],[],[],[],1.1057,1,55.8432,56.3419,0,5,5,15,1,1016,NW,UN,16,mushed,WHAISE,z,,,,,,,,,,,,,,,,,,,,,,,,,,,,,,,,,,,,,,,,,,,,,,,,,,,,,,,,,,,,,,,,,,
,,,,32019,001,2025-10-17_14h47.03.348,HW_LDT_1,2024.2.4,MacIntel,59.88023952,,,,,,,,,,,,,,,,,,,,,56.3438,56.543,56.543,57.0429,57.0439,59.8261,m,0,2.7708,,[],[],[],[],[],[],[],2.7708,0,59.8271,60.3262,0,6,6,14,1,1015,NW,UN,16,miaber,THRALE,z,,,,,,,,,,,,,,,,,,,,,,,,,,,,,,,,,,,,,,,,,,,,,,,,,,,,,,,,,,,,,,,,,,
,,,,32019,001,2025-10-17_14h47.03.348,HW_LDT_1,2024.2.4,MacIntel,59.88023952,,,,,,,,,,,,,,,,,,,,,60.3279,60.5252,60.5253,61.0261,61.0272,63.2095,z,1,2.1647,,[],[],[],[],[],[],[],2.1647,1,63.2108,63.7093,0,7,7,12,1,1013,NW,UN,33,adveil,SPRINY,z,,,,,,,,,,,,,,,,,,,,,,,,,,,,,,,,,,,,,,,,,,,,,,,,,,,,,,,,,,,,,,,,,,
,,,,32019,001,2025-10-17_14h47.03.348,HW_LDT_1,2024.2.4,MacIntel,59.88023952,,,,,,,,,,,,,,,,,,,,,63.7111,63.9093,63.9093,64.4093,64.4102,65.4427,m,1,1.0171,,[],[],[],[],[],[],[],1.0171,1,65.4429,65.9426,0,8,8,1,1,1002,WORD,"ID",33,adjust,ADJUST,m,,,,,,,,,,,,,,,,,,,,,,,,,,,,,,,,,,,,,,,,,,,,,,,,,,,,,,,,,,,,,,,,,,
,,,,32019,001,2025-10-17_14h47.03.348,HW_LDT_1,2024.2.4,MacIntel,59.88023952,,,,,,,,,,,,,,,,,,,,,65.9443,66.1422,66.1422,66.6426,66.6436,67.7925,z,1,1.1331,,[],[],[],[],[],[],[],1.1331,1,67.7926,68.2925,0,9,9,13,1,1014,NW,UN,33,winfer,ROUPET,z,,,,,,,,,,,,,,,,,,,,,,,,,,,,,,,,,,,,,,,,,,,,,,,,,,,,,,,,,,,,,,,,,,
,,,,32019,001,2025-10-17_14h47.03.348,HW_LDT_1,2024.2.4,MacIntel,59.88023952,,,,,,,,,,,,,,,,,,,,,68.2943,68.4925,68.4926,68.9917,68.9927,70.0087,m,1,1.0019,,[],[],[],[],[],[],[],1.0019,1,70.0088,70.5091,0,10,10,0,1,1001,WORD,"ID",33,utopia,UTOPIA,m,,,,,,,,,,,,,,,,,,,,,,,,,,,,,,,,,,,,,,,,,,,,,,,,,,,,,,,,,,,,,,,,,,
,,,,32019,001,2025-10-17_14h47.03.348,HW_LDT_1,2024.2.4,MacIntel,59.88023952,,,,,,,,,,,,,,,,,,,,,70.5107,70.709,70.7092,71.2091,71.2103,72.2924,m,1,1.0702,,[],[],[],[],[],[],[],1.0702,1,72.2925,72.7924,0,11,11,7,1,1008,WORD,UN,16,hurdle,VOLUME,m,,,,,,,,,,,,,,,,,,,,,,,,,,,,,,,,,,,,,,,,,,,,,,,,,,,,,,,,,,,,,,,,,,
,,,,32019,001,2025-10-17_14h47.03.348,HW_LDT_1,2024.2.4,MacIntel,59.88023952,,,,,,,,,,,,,,,,,,,,,72.7939,72.9922,72.9924,73.4923,73.4935,74.6088,z,1,1.0981,,[],[],[],[],[],[],[],1.0981,1,74.609,75.1089,0,12,12,9,1,1010,NW,"ID",33,fariny,FARINY,z,,,,,,,,,,,,,,,,,,,,,,,,,,,,,,,,,,,,,,,,,,,,,,,,,,,,,,,,,,,,,,,,,,
,,,,32019,001,2025-10-17_14h47.03.348,HW_LDT_1,2024.2.4,MacIntel,59.88023952,,,,,,,,,,,,,,,,,,,,,75.1105,75.3085,75.3086,75.8088,75.81,76.7921,m,1,0.9658,,[],[],[],[],[],[],[],0.9658,1,76.7923,77.2914,0,13,13,3,1,1004,WORD,"ID",16,matrix,MATRIX,m,,,,,,,,,,,,,,,,,,,,,,,,,,,,,,,,,,,,,,,,,,,,,,,,,,,,,,,,,,,,,,,,,,
,,,,32019,001,2025-10-17_14h47.03.348,HW_LDT_1,2024.2.4,MacIntel,59.88023952,,,,,,,,,,,,,,,,,,,,,77.293,77.4921,77.4921,77.9916,77.9926,79.4419,z,1,1.4387,,[],[],[],[],[],[],[],1.4387,1,79.4421,79.942,0,14,14,10,1,1011,NW,"ID",16,inlade,INLADE,z,,,,,,,,,,,,,,,,,,,,,,,,,,,,,,,,,,,,,,,,,,,,,,,,,,,,,,,,,,,,,,,,,,
,,,,32019,001,2025-10-17_14h47.03.348,HW_LDT_1,2024.2.4,MacIntel,59.88023952,,,,,,,,,,,,,,,,,,,,,79.9437,80.1411,80.1412,80.641,80.6421,81.6579,m,1,1.0001,,[],[],[],[],[],[],[],1.0001,1,81.6582,82.1586,0,15,15,5,1,1006,WORD,UN,33,frenzy,OBTAIN,m,,,,,,,,,,,,,,,,,,,,,,,,,,,,,,,,,,,,,,,,,,,,,,,,,,,,,,,,,,,,,,,,,,
,,,,32019,001,2025-10-17_14h47.03.348,HW_LDT_1,2024.2.4,MacIntel,59.88023952,,,,,,,,,,,,,,,,1,end_of_practice,"You have completed the practice trials. During the experimental trials, you will not receive feedback. On some trials you will be asked to report whether the item you just saw was in cursive or print. 
Before you begin, please ensure that you are in a comfortable and quiet location and will not be disturbed for about 15 minutes, as we cannot use your data if you do not complete all the trials. 
 When you are ready to start the experimental trials, please press space or touch the button below.",,,,,,,,,,,,,,,,,,,,,,,,,,,,,,,,,,,,82.1654,88.4754,space,6.289,,-0.023904552,-0.426116678,0,0,0,0,0,0,0,1,,,,,,,,,,,,,,,,,,,,,,,,,,,,,,,,,,,,,,,,,,,,,,,,,,,
,,,,32019,001,2025-10-17_14h47.03.348,HW_LDT_1,2024.2.4,MacIntel,59.88023952,,,,,,,,,,,,,,,,,,,,,88.4936,88.6749,88.675,89.1749,,,,,,,,,,,,,,2.0043,1,,,,,,,,,,,,,,m,,,,,,,,,,,,,,,,1,0,89.1767,91.1921,m,1,2.0043,,[],[],[],[],[],[],[],91.1924,93.1918,93.1921,93.1958,[],[],[],[],[],[],[],,93.1959,93.1975,-0.023904552,-0.426116678,0,0,0,,0,0,0,130,1,3,word,POLICY,print,policy_p.png,,,,,,
,,,,32019,001,2025-10-17_14h47.03.348,HW_LDT_1,2024.2.4,MacIntel,59.88023952,,,,,,,,,,,,,,,,,,,,,93.1983,93.3912,93.3913,93.8905,,,,,,,,,,,,,,2.0985,1,,,,,,,,,,,,,,z,,,,,,,,,,,,,,,,2,1,93.8912,95.9913,z,1,2.0985,,[],[],[],[],[],[],[],95.9914,97.9912,97.9913,102.1245,[],[],[],[],[],[],[],m,102.1247,102.1248,-0.023904552,-0.426116678,0,0,0,,0,1,1,38,1,3,TL,carnidal,print,carnidal_p.png,4.1233,,,,,
,,,,32019,001,2025-10-17_14h47.03.348,HW_LDT_1,2024.2.4,MacIntel,59.88023952,,,,,,,,,,,,,,,,,,,,,102.1263,102.3243,102.3244,102.8244,,,,,,,,,,,,,,1.3412,1,,,,,,,,,,,,,,z,,,,,,,,,,,,,,,,3,0,102.8252,104.1744,z,1,1.3412,,[],[],[],[],[],[],[],104.1744,106.1742,106.1743,106.1746,[],[],[],[],[],[],[],,106.1747,106.1748,-0.023904552,-0.426116678,0,0,0,,0,2,2,0,1,3,RL,afaneur,print,afaneur_p.png,,,,,,
,,,,32019,001,2025-10-17_14h47.03.348,HW_LDT_1,2024.2.4,MacIntel,59.88023952,,,,,,,,,,,,,,,,,,,,,106.1763,106.3742,106.3743,106.8743,,,,,,,,,,,,,,4.158,1,,,,,,,,,,,,,,z,,,,,,,,,,,,,,,,4,0,106.875,111.0398,z,1,4.158,,[],[],[],[],[],[],[],111.0399,113.0407,113.0408,113.0411,[],[],[],[],[],[],[],,113.0411,113.0413,-0.023904552,-0.426116678,0,0,0,,0,3,3,71,1,3,TL,sanile,cursive,sanile_c.png,,,,,,
,,,,32019,001,2025-10-17_14h47.03.348,HW_LDT_1,2024.2.4,MacIntel,59.88023952,,,,,,,,,,,,,,,,,,,,,113.0429,113.2398,113.24,113.7407,,,,,,,,,,,,,,1.7794,0,,,,,,,,,,,,,,z,,,,,,,,,,,,,,,,5,0,113.7414,115.5231,m,0,1.7794,,[],[],[],[],[],[],[],115.5233,117.5238,117.524,117.5243,[],[],[],[],[],[],[],,117.5244,117.5245,-0.023904552,-0.426116678,0,0,0,,0,4,4,64,1,3,TL,radiply,print,radiply_p.png,,,,,,
,,,,32019,001,2025-10-17_14h47.03.348,HW_LDT_1,2024.2.4,MacIntel,59.88023952,,,,,,,,,,,,,,,,,,,,,117.526,117.7238,117.7239,118.2239,,,,,,,,,,,,,,1.273,1,,,,,,,,,,,,,,m,,,,,,,,,,,,,,,,6,1,118.2246,119.5071,m,1,1.273,,[],[],[],[],[],[],[],119.5073,121.507,121.5072,124.6904,[],[],[],[],[],[],[],m,124.6906,124.6907,-0.023904552,-0.426116678,0,0,0,,0,5,5,96,1,3,word,CONSIDER,print,consider_p.png,3.1731,,,,,
,,,,32019,001,2025-10-17_14h47.03.348,HW_LDT_1,2024.2.4,MacIntel,59.88023952,,,,,,,,,,,,,,,,,,,,,124.6919,124.8903,124.8903,125.3897,,,,,,,,,,,,,,3.6154,0,,,,,,,,,,,,,,z,,,,,,,,,,,,,,,,7,0,125.3905,129.007,m,0,3.6154,,[],[],[],[],[],[],[],129.0071,131.0066,131.0068,131.0071,[],[],[],[],[],[],[],,131.0072,131.0073,-0.023904552,-0.426116678,0,0,0,,0,6,6,55,1,3,TL,mecidine,print,mecidine_p.png,,,,,,
,,,,32019,001,2025-10-17_14h47.03.348,HW_LDT_1,2024.2.4,MacIntel,59.88023952,,,,,,,,,,,,,,,,,,,,,131.0088,131.2066,131.2067,131.7066,,,,,,,,,,,,,,1.9063,1,,,,,,,,,,,,,,z,,,,,,,,,,,,,,,,8,0,131.7075,133.6232,z,1,1.9063,,[],[],[],[],[],[],[],133.6233,135.6228,135.623,135.6232,[],[],[],[],[],[],[],,135.6233,135.6235,-0.023904552,-0.426116678,0,0,0,,0,7,7,49,1,3,TL,incidate,print,incidate_p.png,,,,,,
,,,,32019,001,2025-10-17_14h47.03.348,HW_LDT_1,2024.2.4,MacIntel,59.88023952,,,,,,,,,,,,,,,,,,,,,135.6251,135.8231,135.8231,136.3231,,,,,,,,,,,,,,5.1773,1,,,,,,,,,,,,,,z,,,,,,,,,,,,,,,,9,0,136.3239,141.5061,z,1,5.1773,,[],[],[],[],[],[],[],141.5062,143.5062,143.5063,143.5066,[],[],[],[],[],[],[],,143.5067,143.5069,-0.023904552,-0.426116678,0,0,0,,0,8,8,16,1,3,RL,mishafe,cursive,mishafe_c.png,,,,,,
,,,,32019,001,2025-10-17_14h47.03.348,HW_LDT_1,2024.2.4,MacIntel,59.88023952,,,,,,,,,,,,,,,,,,,,,143.5084,143.7061,143.7062,144.2056,,,,,,,,,,,,,,2.3094,1,,,,,,,,,,,,,,m,,,,,,,,,,,,,,,,10,0,144.2064,146.5226,m,1,2.3094,,[],[],[],[],[],[],[],146.5227,148.5225,148.5226,148.5228,[],[],[],[],[],[],[],,148.5229,148.5231,-0.023904552,-0.426116678,0,0,0,,0,9,9,141,1,3,word,RELIGION,print,religion_p.png,,,,,,
,,,,32019,001,2025-10-17_14h47.03.348,HW_LDT_1,2024.2.4,MacIntel,59.88023952,,,,,,,,,,,,,,,,,,,,,148.5247,148.7225,148.7226,149.2226,,,,,,,,,,,,,,1.056,1,,,,,,,,,,,,,,m,,,,,,,,,,,,,,,,11,1,149.2233,150.2888,m,1,1.056,,[],[],[],[],[],[],[],150.2889,152.2888,152.2889,153.939,[],[],[],[],[],[],[],m,153.939,153.9394,-0.023904552,-0.426116678,0,0,0,,0,10,10,106,1,3,word,ELABORATE,print,elaborate_p.png,1.6419,,,,,
,,,,32019,001,2025-10-17_14h47.03.348,HW_LDT_1,2024.2.4,MacIntel,59.88023952,,,,,,,,,,,,,,,,,,,,,153.9405,154.1388,154.139,154.639,,,,,,,,,,,,,,4.1532,1,,,,,,,,,,,,,,z,,,,,,,,,,,,,,,,12,0,154.6398,158.8055,z,1,4.1532,,[],[],[],[],[],[],[],158.8056,160.8055,160.8055,160.8059,[],[],[],[],[],[],[],,160.8059,160.806,-0.023904552,-0.426116678,0,0,0,,0,11,11,42,1,3,TL,detabe,cursive,detabe_c.png,,,,,,
,,,,32019,001,2025-10-17_14h47.03.348,HW_LDT_1,2024.2.4,MacIntel,59.88023952,,,,,,,,,,,,,,,,,,,,,160.8075,161.0054,161.0055,161.5054,,,,,,,,,,,,,,4.8062,1,,,,,,,,,,,,,,z,,,,,,,,,,,,,,,,13,0,161.5061,166.3217,z,1,4.8062,,[],[],[],[],[],[],[],166.3219,168.3218,168.3219,168.3222,[],[],[],[],[],[],[],,168.3224,168.3226,-0.023904552,-0.426116678,0,0,0,,0,12,12,59,1,3,TL,paficic,cursive,paficic_c.png,,,,,,
,,,,32019,001,2025-10-17_14h47.03.348,HW_LDT_1,2024.2.4,MacIntel,59.88023952,,,,,,,,,,,,,,,,,,,,,168.3242,168.5219,168.522,169.0217,,,,,,,,,,,,,,1.4604,0,,,,,,,,,,,,,,z,,,,,,,,,,,,,,,,14,1,169.0224,170.4883,m,0,1.4604,,[],[],[],[],[],[],[],170.4884,172.4883,172.4883,175.4048,[],[],[],[],[],[],[],m,175.4049,175.4051,-0.023904552,-0.426116678,0,0,0,,0,13,13,32,1,3,TL,adacemy,print,adacemy_p.png,2.9085,,,,,
,,,,32019,001,2025-10-17_14h47.03.348,HW_LDT_1,2024.2.4,MacIntel,59.88023952,,,,,,,,,,,,,,,,,,,,,175.4061,175.6048,175.6049,176.1047,,,,,,,,,,,,,,1.0607,1,,,,,,,,,,,,,,m,,,,,,,,,,,,,,,,15,0,176.1054,177.1714,m,1,1.0607,,[],[],[],[],[],[],[],177.1716,179.1714,179.1714,179.1717,[],[],[],[],[],[],[],,179.1717,179.1719,-0.023904552,-0.426116678,0,0,0,,0,14,14,134,1,3,word,QUALIFY,print,qualify_p.png,,,,,,
,,,,32019,001,2025-10-17_14h47.03.348,HW_LDT_1,2024.2.4,MacIntel,59.88023952,,,,,,,,,,,,,,,,,,,,,179.1733,179.3715,179.3716,179.8713,,,,,,,,,,,,,,7.3481,1,,,,,,,,,,,,,,z,,,,,,,,,,,,,,,,16,0,179.872,187.221,z,1,7.3481,,[],[],[],[],[],[],[],187.2212,189.2209,189.221,189.2212,[],[],[],[],[],[],[],,189.2213,189.2215,-0.023904552,-0.426116678,0,0,0,,0,15,15,78,1,3,TL,vecolity,cursive,vecolity_c.png,,,,,,
,,,,32019,001,2025-10-17_14h47.03.348,HW_LDT_1,2024.2.4,MacIntel,59.88023952,,,,,,,,,,,,,,,,,,,,,189.2232,189.421,189.421,189.921,,,,,,,,,,,,,,2.2696,1,,,,,,,,,,,,,,m,,,,,,,,,,,,,,,,17,0,189.9216,192.2043,m,1,2.2696,,[],[],[],[],[],[],[],192.2044,194.2041,194.2042,194.2044,[],[],[],[],[],[],[],,194.2044,194.2046,-0.023904552,-0.426116678,0,0,0,,0,16,16,101,1,3,word,DELICATE,print,delicate_p.png,,,,,,
,,,,32019,001,2025-10-17_14h47.03.348,HW_LDT_1,2024.2.4,MacIntel,59.88023952,,,,,,,,,,,,,,,,,,,,,194.2062,194.404,194.4041,194.904,,,,,,,,,,,,,,1.2078,1,,,,,,,,,,,,,,m,,,,,,,,,,,,,,,,18,0,194.9048,196.1206,m,1,1.2078,,[],[],[],[],[],[],[],196.1208,198.1206,198.1207,198.121,[],[],[],[],[],[],[],,198.1211,198.1212,-0.023904552,-0.426116678,0,0,0,,0,17,17,131,1,3,word,POPULAR,print,popular_p.png,,,,,,
,,,,32019,001,2025-10-17_14h47.03.348,HW_LDT_1,2024.2.4,MacIntel,59.88023952,,,,,,,,,,,,,,,,,,,,,198.1227,198.3205,198.3206,198.8206,,,,,,,,,,,,,,2.377,1,,,,,,,,,,,,,,z,,,,,,,,,,,,,,,,19,0,198.8214,201.2038,z,1,2.377,,[],[],[],[],[],[],[],201.204,203.2038,203.2039,203.2042,[],[],[],[],[],[],[],,203.2043,203.2046,-0.023904552,-0.426116678,0,0,0,,0,18,18,47,1,3,TL,elarobate,print,elarobate_p.png,,,,,,
,,,,32019,001,2025-10-17_14h47.03.348,HW_LDT_1,2024.2.4,MacIntel,59.88023952,,,,,,,,,,,,,,,,,,,,,203.206,203.4038,203.4038,203.9037,,,,,,,,,,,,,,8.7184,1,,,,,,,,,,,,,,z,,,,,,,,,,,,,,,,20,1,203.9044,212.6368,z,1,8.7184,,[],[],[],[],[],[],[],212.637,214.6366,214.6367,216.6032,[],[],[],[],[],[],[],z,216.6033,216.6034,-0.023904552,-0.426116678,0,0,0,,0,19,19,57,1,3,TL,moredate,cursive,moredate_c.png,1.962,,,,,
,,,,32019,001,2025-10-17_14h47.03.348,HW_LDT_1,2024.2.4,MacIntel,59.88023952,,,,,,,,,,,,,,,,,,,,,216.6046,216.8031,216.8032,217.3033,,,,,,,,,,,,,,5.7859,1,,,,,,,,,,,,,,z,,,,,,,,,,,,,,,,21,0,217.3039,223.1032,z,1,5.7859,,[],[],[],[],[],[],[],223.1033,225.1028,225.1029,225.1032,[],[],[],[],[],[],[],,225.1033,225.1034,-0.023904552,-0.426116678,0,0,0,,0,20,20,5,1,3,RL,capefory,cursive,capefory_c.png,,,,,,
,,,,32019,001,2025-10-17_14h47.03.348,HW_LDT_1,2024.2.4,MacIntel,59.88023952,,,,,,,,,,,,,,,,,,,,,225.105,225.3029,225.3029,225.8028,,,,,,,,,,,,,,1.3141,1,,,,,,,,,,,,,,z,,,,,,,,,,,,,,,,22,0,225.8035,227.1195,z,1,1.3141,,[],[],[],[],[],[],[],227.1197,229.1194,229.1195,229.1197,[],[],[],[],[],[],[],,229.1198,229.1199,-0.023904552,-0.426116678,0,0,0,,0,21,21,60,1,3,TL,panert,print,panert_p.png,,,,,,
,,,,32019,001,2025-10-17_14h47.03.348,HW_LDT_1,2024.2.4,MacIntel,59.88023952,,,,,,,,,,,,,,,,,,,,,229.1214,229.3196,229.3196,229.8194,,,,,,,,,,,,,,1.0922,1,,,,,,,,,,,,,,m,,,,,,,,,,,,,,,,23,0,229.8201,230.9193,m,1,1.0922,,[],[],[],[],[],[],[],230.9194,232.9193,232.9193,232.9196,[],[],[],[],[],[],[],,232.9197,232.9197,-0.023904552,-0.426116678,0,0,0,,0,22,22,118,1,3,word,MEDICINE,print,medicine_p.png,,,,,,
,,,,32019,001,2025-10-17_14h47.03.348,HW_LDT_1,2024.2.4,MacIntel,59.88023952,,,,,,,,,,,,,,,,,,,,,232.9209,233.1192,233.1193,233.6192,,,,,,,,,,,,,,2.5032,1,,,,,,,,,,,,,,m,,,,,,,,,,,,,,,,24,0,233.6199,236.1359,m,1,2.5032,,[],[],[],[],[],[],[],236.136,238.1358,238.1359,238.1361,[],[],[],[],[],[],[],,238.1361,238.1362,-0.023904552,-0.426116678,0,0,0,,0,23,23,128,1,3,word,PACIFIC,cursive,pacific_c.png,,,,,,
,,,,32019,001,2025-10-17_14h47.03.348,HW_LDT_1,2024.2.4,MacIntel,59.88023952,,,,,,,,,,,,,,,,,,,,,238.1373,238.3357,238.3358,238.8358,,,,,,,,,,,,,,3.6196,1,,,,,,,,,,,,,,z,,,,,,,,,,,,,,,,25,0,238.8363,242.4691,z,1,3.6196,,[],[],[],[],[],[],[],242.4692,244.4689,244.4689,244.4692,[],[],[],[],[],[],[],,244.4692,244.4693,-0.023904552,-0.426116678,0,0,0,,0,24,24,76,1,3,TL,stogare,cursive,stogare_c.png,,,,,,
,,,,32019,001,2025-10-17_14h47.03.348,HW_LDT_1,2024.2.4,MacIntel,59.88023952,,,,,,,,,,,,,,,,,,,,,244.4707,244.6689,244.669,245.1679,,,,,,,,,,,,,,3.1209,1,,,,,,,,,,,,,,z,,,,,,,,,,,,,,,,26,0,245.1686,248.3022,z,1,3.1209,,[],[],[],[],[],[],[],248.3023,250.3019,250.3021,250.3023,[],[],[],[],[],[],[],,250.3024,250.3026,-0.023904552,-0.426116678,0,0,0,,0,25,25,52,1,3,TL,locigal,cursive,locigal_c.png,,,,,,
,,,,32019,001,2025-10-17_14h47.03.348,HW_LDT_1,2024.2.4,MacIntel,59.88023952,,,,,,,,,,,,,,,,,,,,,250.3039,250.502,250.502,251.002,,,,,,,,,,,,,,5.7032,1,,,,,,,,,,,,,,z,,,,,,,,,,,,,,,,27,0,251.0026,256.7185,z,1,5.7032,,[],[],[],[],[],[],[],256.7187,258.7183,258.7183,258.7187,[],[],[],[],[],[],[],,258.7187,258.7189,-0.023904552,-0.426116678,0,0,0,,0,26,26,12,1,3,RL,formuke,cursive,formuke_c.png,,,,,,
,,,,32019,001,2025-10-17_14h47.03.348,HW_LDT_1,2024.2.4,MacIntel,59.88023952,,,,,,,,,,,,,,,,,,,,,258.7202,258.918,258.918,259.4183,,,,,,,,,,,,,,9.9294,0,,,,,,,,,,,,,,m,,,,,,,,,,,,,,,,28,1,259.419,269.3511,z,0,9.9294,,[],[],[],[],[],[],[],269.3512,271.351,271.3512,273.051,[],[],[],[],[],[],[],z,273.0511,273.0511,-0.023904552,-0.426116678,0,0,0,,0,27,27,145,1,3,word,RESUME,cursive,resume_c.png,1.6978,,,,,
,,,,32019,001,2025-10-17_14h47.03.348,HW_LDT_1,2024.2.4,MacIntel,59.88023952,,,,,,,,,,,,,,,,,,,,,273.0524,273.2509,273.251,273.751,,,,,,,,,,,,,,1.7202,1,,,,,,,,,,,,,,z,,,,,,,,,,,,,,,,29,0,273.7515,275.4841,z,1,1.7202,,[],[],[],[],[],[],[],275.4843,277.4843,277.4843,277.4846,[],[],[],[],[],[],[],,277.4847,277.4848,-0.023904552,-0.426116678,0,0,0,,0,28,28,74,1,3,TL,spemicen,print,spemicen_p.png,,,,,,
,,,,32019,001,2025-10-17_14h47.03.348,HW_LDT_1,2024.2.4,MacIntel,59.88023952,,,,,,,,,,,,,,,,,,,,,277.4863,277.6842,277.6842,278.1842,,,,,,,,,,,,,,1.0541,1,,,,,,,,,,,,,,z,,,,,,,,,,,,,,,,30,0,278.1849,279.2507,z,1,1.0541,,[],[],[],[],[],[],[],279.2509,281.2507,281.2508,281.251,[],[],[],[],[],[],[],,281.251,281.2512,-0.023904552,-0.426116678,0,0,0,,0,29,29,65,1,3,TL,resufal,print,resufal_p.png,,,,,,
,,,,32019,001,2025-10-17_14h47.03.348,HW_LDT_1,2024.2.4,MacIntel,59.88023952,,,,,,,,,,,,,,,,,,,,,281.2527,281.4506,281.4506,281.9507,,,,,,,,,,,,,,7.103,1,,,,,,,,,,,,,,z,,,,,,,,,,,,,,,,31,1,281.9513,289.0671,z,1,7.103,,[],[],[],[],[],[],[],289.0673,291.0669,291.067,292.6001,[],[],[],[],[],[],[],z,292.6002,292.6002,-0.023904552,-0.426116678,0,0,0,,0,30,30,75,1,3,TL,sloten,cursive,sloten_c.png,1.5267,,,,,
,,,,32019,001,2025-10-17_14h47.03.348,HW_LDT_1,2024.2.4,MacIntel,59.88023952,,,,,,,,,,,,,,,,,,,,,292.6014,292.8002,292.8003,293.3,,,,,,,,,,,,,,4.153,1,,,,,,,,,,,,,,z,,,,,,,,,,,,,,,,32,0,293.3007,297.4666,z,1,4.153,,[],[],[],[],[],[],[],297.4667,299.4664,299.4665,299.4667,[],[],[],[],[],[],[],,299.4668,299.4669,-0.023904552,-0.426116678,0,0,0,,0,31,31,34,1,3,TL,aminal,cursive,aminal_c.png,,,,,,
,,,,32019,001,2025-10-17_14h47.03.348,HW_LDT_1,2024.2.4,MacIntel,59.88023952,,,,,,,,,,,,,,,,,,,,,299.4684,299.6664,299.6665,300.1664,,,,,,,,,,,,,,3.1078,1,,,,,,,,,,,,,,m,,,,,,,,,,,,,,,,33,0,300.1671,303.2832,m,1,3.1078,,[],[],[],[],[],[],[],303.2833,305.2822,305.2822,305.2825,[],[],[],[],[],[],[],,305.2825,305.2826,-0.023904552,-0.426116678,0,0,0,,0,32,32,154,1,3,word,STORAGE,cursive,storage_c.png,,,,,,
,,,,32019,001,2025-10-17_14h47.03.348,HW_LDT_1,2024.2.4,MacIntel,59.88023952,,,,,,,,,,,,,,,,,,,,,305.2836,305.483,305.483,305.9831,,,,,,,,,,,,,,2.0636,1,,,,,,,,,,,,,,z,,,,,,,,,,,,,,,,34,0,305.9838,308.0495,z,1,2.0636,,[],[],[],[],[],[],[],308.0497,310.0493,310.0494,310.0497,[],[],[],[],[],[],[],,310.0498,310.0499,-0.023904552,-0.426116678,0,0,0,,0,33,33,39,1,3,TL,clicinal,print,clicinal_p.png,,,,,,
,,,,32019,001,2025-10-17_14h47.03.348,HW_LDT_1,2024.2.4,MacIntel,59.88023952,,,,,,,,,,,,,,,,,,,,,310.0514,310.2493,310.2494,310.7493,,,,,,,,,,,,,,1.1936,1,,,,,,,,,,,,,,z,,,,,,,,,,,,,,,,35,0,310.75,311.9494,z,1,1.1936,,[],[],[],[],[],[],[],311.9494,313.9492,313.9493,313.9496,[],[],[],[],[],[],[],,313.9496,313.9498,-0.023904552,-0.426116678,0,0,0,,0,34,34,56,1,3,TL,meromy,print,meromy_p.png,,,,,,
,,,,32019,001,2025-10-17_14h47.03.348,HW_LDT_1,2024.2.4,MacIntel,59.88023952,,,,,,,,,,,,,,,,,,,,,313.9512,314.1492,314.1493,314.6494,,,,,,,,,,,,,,9.2862,0,,,,,,,,,,,,,,z,,,,,,,,,,,,,,,,36,0,314.6502,323.9492,m,0,9.2862,,[],[],[],[],[],[],[],323.9493,325.949,325.9491,325.9493,[],[],[],[],[],[],[],,325.9494,325.9495,-0.023904552,-0.426116678,0,0,0,,0,35,35,70,1,3,TL,remuse,cursive,remuse_c.png,,,,,,
,,,,32019,001,2025-10-17_14h47.03.348,HW_LDT_1,2024.2.4,MacIntel,59.88023952,,,,,,,,,,,,,,,,,,,,,325.9511,326.149,326.1491,326.6489,,,,,,,,,,,,,,1.3488,1,,,,,,,,,,,,,,z,,,,,,,,,,,,,,,,37,0,326.6496,327.9992,z,1,1.3488,,[],[],[],[],[],[],[],327.9993,329.9988,329.9989,329.9991,[],[],[],[],[],[],[],,329.9991,329.9993,-0.023904552,-0.426116678,0,0,0,,0,36,36,72,1,3,TL,senmitent,print,senmitent_p.png,,,,,,
,,,,32019,001,2025-10-17_14h47.03.348,HW_LDT_1,2024.2.4,MacIntel,59.88023952,,,,,,,,,,,,,,,,,,,,,330.0008,330.1987,330.1988,330.6989,,,,,,,,,,,,,,8.9895,0,,,,,,,,,,,,,,m,,,,,,,,,,,,,,,,38,1,330.6995,339.6983,z,0,8.9895,,[],[],[],[],[],[],[],339.6984,341.6983,341.6984,343.4483,[],[],[],[],[],[],[],z,343.4483,343.4484,-0.023904552,-0.426116678,0,0,0,,0,37,37,143,1,3,word,REMOVAL,cursive,removal_c.png,1.7369,,,,,
,,,,32019,001,2025-10-17_14h47.03.348,HW_LDT_1,2024.2.4,MacIntel,59.88023952,,,,,,,,,,,,,,,,,,,,,343.4498,343.6482,343.6483,344.1482,,,,,,,,,,,,,,18.3297,1,,,,,,,,,,,,,,z,,,,,,,,,,,,,,,,39,0,344.1489,362.4807,z,1,18.3297,,[],[],[],[],[],[],[],362.4808,364.4808,364.4809,364.481,[],[],[],[],[],[],[],,364.4811,364.4812,-0.023904552,-0.426116678,0,0,0,,0,38,38,30,1,3,RL,strapely,print,strapely_p.png,,,,,,
,,,,32019,001,2025-10-17_14h47.03.348,HW_LDT_1,2024.2.4,MacIntel,59.88023952,,,,,,,,,,,,,,,,,,,,,364.4826,364.6808,364.6808,365.1802,,,,,,,,,,,,,,1.07,1,,,,,,,,,,,,,,z,,,,,,,,,,,,,,,,40,0,365.1809,366.2641,z,1,1.07,,[],[],[],[],[],[],[],366.2642,368.2639,368.2641,368.2642,[],[],[],[],[],[],[],,368.2643,368.2644,-0.023904552,-0.426116678,0,0,0,,0,39,39,2,1,3,RL,betemit,print,betemit_p.png,,,,,,
,,,,32019,001,2025-10-17_14h47.03.348,HW_LDT_1,2024.2.4,MacIntel,59.88023952,,,,,,,,,,,,,,,,,,,,,368.2659,368.4639,368.464,368.9639,,,,,,,,,,,,,,1.3525,1,,,,,,,,,,,,,,m,,,,,,,,,,,,,,,,41,0,368.9647,370.3306,m,1,1.3525,,[],[],[],[],[],[],[],370.3307,372.3305,372.3306,372.3308,[],[],[],[],[],[],[],,372.3309,372.331,-0.023904552,-0.426116678,0,0,0,,0,40,40,81,1,3,word,ADVISORY,print,advisory_p.png,,,,,,
,,,,32019,001,2025-10-17_14h47.03.348,HW_LDT_1,2024.2.4,MacIntel,59.88023952,,,,,,,,,,,,,,,,,,,,,372.3326,372.5305,372.5305,373.0301,,,,,,,,,,,,,,5.6032,1,,,,,,,,,,,,,,z,,,,,,,,,,,,,,,,42,0,373.0307,378.647,z,1,5.6032,,[],[],[],[],[],[],[],378.6471,380.6466,380.6467,380.6469,[],[],[],[],[],[],[],,380.6469,380.647,-0.023904552,-0.426116678,0,0,0,,0,41,41,1,1,3,RL,bewoted,cursive,bewoted_c.png,,,,,,
,,,,32019,001,2025-10-17_14h47.03.348,HW_LDT_1,2024.2.4,MacIntel,59.88023952,,,,,,,,,,,,,,,,,,,,,380.6482,380.8467,380.8467,381.3466,,,,,,,,,,,,,,7.3692,0,,,,,,,,,,,,,,m,,,,,,,,,,,,,,,,43,1,381.3474,388.7298,z,0,7.3692,,[],[],[],[],[],[],[],388.7299,390.7297,390.7297,392.213,[],[],[],[],[],[],[],z,392.2131,392.2133,-0.023904552,-0.426116678,0,0,0,,0,42,42,126,1,3,word,OPTIMAL,cursive,optimal_c.png,1.4702,,,,,
,,,,32019,001,2025-10-17_14h47.03.348,HW_LDT_1,2024.2.4,MacIntel,59.88023952,,,,,,,,,,,,,,,,,,,,,392.2149,392.4129,392.4129,392.9128,,,,,,,,,,,,,,12.4517,0,,,,,,,,,,,,,,m,,,,,,,,,,,,,,,,44,0,392.9134,405.3781,z,0,12.4517,,[],[],[],[],[],[],[],405.3783,407.378,407.378,407.3783,[],[],[],[],[],[],[],,407.3784,407.3786,-0.023904552,-0.426116678,0,0,0,,0,43,43,108,1,3,word,FORTUNE,cursive,fortune_c.png,,,,,,
,,,,32019,001,2025-10-17_14h47.03.348,HW_LDT_1,2024.2.4,MacIntel,59.88023952,,,,,,,,,,,,,,,,,,,,,407.3799,407.5781,407.5781,408.0788,,,,,,,,,,,,,,1.9905,1,,,,,,,,,,,,,,m,,,,,,,,,,,,,,,,45,0,408.0795,410.0789,m,1,1.9905,,[],[],[],[],[],[],[],410.079,412.0788,412.0789,412.0791,[],[],[],[],[],[],[],,412.0791,412.0792,-0.023904552,-0.426116678,0,0,0,,0,44,44,116,1,3,word,MARGINAL,print,marginal_p.png,,,,,,
,,,,32019,001,2025-10-17_14h47.03.348,HW_LDT_1,2024.2.4,MacIntel,59.88023952,,,,,,,,,,,,,,,,,,,,,412.0807,412.2787,412.2787,412.7784,,,,,,,,,,,,,,0.9871,1,,,,,,,,,,,,,,z,,,,,,,,,,,,,,,,46,0,412.7791,413.778,z,1,0.9871,,[],[],[],[],[],[],[],413.7781,415.7786,415.7786,415.7789,[],[],[],[],[],[],[],,415.7789,415.7791,-0.023904552,-0.426116678,0,0,0,,0,45,45,26,1,3,RL,repifion,print,repifion_p.png,,,,,,
,,,,32019,001,2025-10-17_14h47.03.348,HW_LDT_1,2024.2.4,MacIntel,59.88023952,,,,,,,,,,,,,,,,,,,,,415.7805,415.9787,415.9787,416.4779,,,,,,,,,,,,,,1.1191,1,,,,,,,,,,,,,,m,,,,,,,,,,,,,,,,47,0,416.4786,417.6119,m,1,1.1191,,[],[],[],[],[],[],[],417.612,419.6113,419.6114,419.6116,[],[],[],[],[],[],[],,419.6118,419.6119,-0.023904552,-0.426116678,0,0,0,,0,46,46,113,1,3,word,LITERAL,print,literal_p.png,,,,,,
,,,,32019,001,2025-10-17_14h47.03.348,HW_LDT_1,2024.2.4,MacIntel,59.88023952,,,,,,,,,,,,,,,,,,,,,419.6132,419.8118,419.8119,420.3117,,,,,,,,,,,,,,4.1516,1,,,,,,,,,,,,,,m,,,,,,,,,,,,,,,,48,0,420.3123,424.4778,m,1,4.1516,,[],[],[],[],[],[],[],424.478,426.4779,426.4779,426.4782,[],[],[],[],[],[],[],,426.4783,426.4785,-0.023904552,-0.426116678,0,0,0,,0,47,47,148,1,3,word,SALINE,cursive,saline_c.png,,,,,,
,,,,32019,001,2025-10-17_14h47.03.348,HW_LDT_1,2024.2.4,MacIntel,59.88023952,,,,,,,,,,,,,,,,,,,,,426.4797,426.6779,426.678,427.1775,,,,,,,,,,,,,,6.4869,0,,,,,,,,,,,,,,m,,,,,,,,,,,,,,,,49,0,427.178,433.6772,z,0,6.4869,,[],[],[],[],[],[],[],433.6774,435.6778,435.6778,435.6781,[],[],[],[],[],[],[],,435.6782,435.6783,-0.023904552,-0.426116678,0,0,0,,0,48,48,114,1,3,word,LOCATE,cursive,locate_c.png,,,,,,
,,,,32019,001,2025-10-17_14h47.03.348,HW_LDT_1,2024.2.4,MacIntel,59.88023952,,,,,,,,,,,,,,,,,,,,,435.6796,435.8779,435.8779,436.3777,,,,,,,,,,,,,,0.9912,1,,,,,,,,,,,,,,m,,,,,,,,,,,,,,,,50,0,436.3785,437.3778,m,1,0.9912,,[],[],[],[],[],[],[],437.3779,439.3766,439.3767,439.3769,[],[],[],[],[],[],[],,439.3769,439.377,-0.023904552,-0.426116678,0,0,0,,0,49,49,129,1,3,word,PARENT,print,parent_p.png,,,,,,
,,,,32019,001,2025-10-17_14h47.03.348,HW_LDT_1,2024.2.4,MacIntel,59.88023952,,,,,,,,,,,,,,,,,,,,,439.3784,439.5776,439.5776,440.0772,,,,,,,,,,,,,,2.0201,1,,,,,,,,,,,,,,z,,,,,,,,,,,,,,,,51,0,440.0778,442.1109,z,1,2.0201,,[],[],[],[],[],[],[],442.1109,444.1107,444.1108,444.111,[],[],[],[],[],[],[],,444.111,444.1111,-0.023904552,-0.426116678,0,0,0,,0,50,50,24,1,3,RL,quafidy,print,quafidy_p.png,,,,,,
,,,,32019,001,2025-10-17_14h47.03.348,HW_LDT_1,2024.2.4,MacIntel,59.88023952,,,,,,,,,,,,,,,,,,,,,444.1125,444.3107,444.3108,444.8107,,,,,,,,,,,,,,2.4025,1,,,,,,,,,,,,,,m,,,,,,,,,,,,,,,,52,0,444.8114,447.2273,m,1,2.4025,,[],[],[],[],[],[],[],447.2274,449.2271,449.2273,449.2274,[],[],[],[],[],[],[],,449.2275,449.2276,-0.023904552,-0.426116678,0,0,0,,0,51,51,158,1,3,word,VELOCITY,cursive,velocity_c.png,,,,,,
,,,,32019,001,2025-10-17_14h47.03.348,HW_LDT_1,2024.2.4,MacIntel,59.88023952,,,,,,,,,,,,,,,,,,,,,449.2291,449.4271,449.4272,449.9271,,,,,,,,,,,,,,2.5926,1,,,,,,,,,,,,,,m,,,,,,,,,,,,,,,,53,0,449.9275,452.5271,m,1,2.5926,,[],[],[],[],[],[],[],452.5272,454.5271,454.5271,454.5272,[],[],[],[],[],[],[],,454.5274,454.5275,-0.023904552,-0.426116678,0,0,0,,0,52,52,94,1,3,word,CLINICAL,print,clinical_p.png,,,,,,
,,,,32019,001,2025-10-17_14h47.03.348,HW_LDT_1,2024.2.4,MacIntel,59.88023952,,,,,,,,,,,,,,,,,,,,,454.5289,454.7269,454.727,455.227,,,,,,,,,,,,,,0.92,1,,,,,,,,,,,,,,m,,,,,,,,,,,,,,,,54,0,455.2276,456.1602,m,1,0.92,,[],[],[],[],[],[],[],456.1603,458.1602,458.1602,458.1604,[],[],[],[],[],[],[],,458.1605,458.1606,-0.023904552,-0.426116678,0,0,0,,0,53,53,85,1,3,word,BENEFIT,print,benefit_p.png,,,,,,
,,,,32019,001,2025-10-17_14h47.03.348,HW_LDT_1,2024.2.4,MacIntel,59.88023952,,,,,,,,,,,,,,,,,,,,,458.1619,458.3601,458.3601,458.8601,,,,,,,,,,,,,,1.6087,1,,,,,,,,,,,,,,m,,,,,,,,,,,,,,,,55,1,458.8607,460.4768,m,1,1.6087,,[],[],[],[],[],[],[],460.4768,462.4767,462.4767,463.8102,[],[],[],[],[],[],[],m,463.8102,463.8103,-0.023904552,-0.426116678,0,0,0,,0,54,54,124,1,3,word,NUMERICAL,print,numerical_p.png,1.3216,,,,,
,,,,32019,001,2025-10-17_14h47.03.348,HW_LDT_1,2024.2.4,MacIntel,59.88023952,,,,,,,,,,,,,,,,,,,,,463.8116,464.01,464.01,464.5099,,,,,,,,,,,,,,10.569,1,,,,,,,,,,,,,,z,,,,,,,,,,,,,,,,56,0,464.5105,475.0929,z,1,10.569,,[],[],[],[],[],[],[],475.0931,477.0928,477.0928,477.0931,[],[],[],[],[],[],[],,477.0933,477.0933,-0.023904552,-0.426116678,0,0,0,,0,55,55,14,1,3,RL,lofase,cursive,lofase_c.png,,,,,,
,,,,32019,001,2025-10-17_14h47.03.348,HW_LDT_1,2024.2.4,MacIntel,59.88023952,,,,,,,,,,,,,,,,,,,,,477.0949,477.2929,477.2929,477.7928,,,,,,,,,,,,,,7.97,1,,,,,,,,,,,,,,m,,,,,,,,,,,,,,,,57,0,477.7932,485.7758,m,1,7.97,,[],[],[],[],[],[],[],485.7759,487.7757,487.7758,487.776,[],[],[],[],[],[],[],,487.776,487.7761,-0.023904552,-0.426116678,0,0,0,,0,56,56,153,1,3,word,STOLEN,cursive,stolen_c.png,,,,,,
,,,,32019,001,2025-10-17_14h47.03.348,HW_LDT_1,2024.2.4,MacIntel,59.88023952,,,,,,,,,,,,,,,,,,,,,487.7773,487.9757,487.9757,488.4755,,,,,,,,,,,,,,2.4066,1,,,,,,,,,,,,,,z,,,,,,,,,,,,,,,,58,0,488.4761,490.8922,z,1,2.4066,,[],[],[],[],[],[],[],490.8924,492.8921,492.8922,492.8923,[],[],[],[],[],[],[],,492.8925,492.8926,-0.023904552,-0.426116678,0,0,0,,0,57,57,53,1,3,TL,marnigal,print,marnigal_p.png,,,,,,
,,,,32019,001,2025-10-17_14h47.03.348,HW_LDT_1,2024.2.4,MacIntel,59.88023952,,,,,,,,,,,,,,,,,,,,,492.8937,493.0921,493.0921,493.592,,,,,,,,,,,,,,7.4871,1,,,,,,,,,,,,,,z,,,,,,,,,,,,,,,,59,0,493.5926,501.0915,z,1,7.4871,,[],[],[],[],[],[],[],501.0916,503.0918,503.0918,503.0919,[],[],[],[],[],[],[],,503.092,503.0921,-0.023904552,-0.426116678,0,0,0,,0,58,58,79,1,3,TL,veretan,cursive,veretan_c.png,,,,,,
,,,,32019,001,2025-10-17_14h47.03.348,HW_LDT_1,2024.2.4,MacIntel,59.88023952,,,,,,,,,,,,,,,,,,,,,503.0933,503.2917,503.2917,503.7916,,,,,,,,,,,,,,1.2046,1,,,,,,,,,,,,,,m,,,,,,,,,,,,,,,,60,0,503.7922,505.0083,m,1,1.2046,,[],[],[],[],[],[],[],505.0084,507.0083,507.0083,507.0085,[],[],[],[],[],[],[],,507.0086,507.0087,-0.023904552,-0.426116678,0,0,0,,0,59,59,98,1,3,word,CRIMINAL,print,criminal_p.png,,,,,,
,,,,32019,001,2025-10-17_14h47.03.348,HW_LDT_1,2024.2.4,MacIntel,59.88023952,,,,,,,,,,,,,,,,,,,,,507.0099,507.2079,507.2079,507.7081,,,,,,,,,,,,,,4.9721,1,,,,,,,,,,,,,,m,,,,,,,,,,,,,,,,61,0,507.7086,512.6913,m,1,4.9721,,[],[],[],[],[],[],[],512.6914,514.6913,514.6913,514.6915,[],[],[],[],[],[],[],,514.6915,514.6916,-0.023904552,-0.426116678,0,0,0,,0,60,60,93,1,3,word,CEREMONY,cursive,ceremony_c.png,,,,,,
,,,,32019,001,2025-10-17_14h47.03.348,HW_LDT_1,2024.2.4,MacIntel,59.88023952,,,,,,,,,,,,,,,,,,,,,514.693,514.8913,514.8913,515.3912,,,,,,,,,,,,,,1.2874,1,,,,,,,,,,,,,,m,,,,,,,,,,,,,,,,62,0,515.3917,516.6912,m,1,1.2874,,[],[],[],[],[],[],[],516.6913,518.6912,518.6912,518.6915,[],[],[],[],[],[],[],,518.6915,518.6916,-0.023904552,-0.426116678,0,0,0,,0,61,61,151,1,3,word,SPECIFIC,print,specific_p.png,,,,,,
,,,,32019,001,2025-10-17_14h47.03.348,HW_LDT_1,2024.2.4,MacIntel,59.88023952,,,,,,,,,,,,,,,,,,,,,518.6925,518.8912,518.8912,519.3912,,,,,,,,,,,,,,4.9368,1,,,,,,,,,,,,,,m,,,,,,,,,,,,,,,,63,0,519.3918,524.341,m,1,4.9368,,[],[],[],[],[],[],[],524.3411,526.3408,526.3411,526.3414,[],[],[],[],[],[],[],,526.3415,526.3416,-0.023904552,-0.426116678,0,0,0,,0,62,62,159,1,3,word,VETERAN,cursive,veteran_c.png,,,,,,
,,,,32019,001,2025-10-17_14h47.03.348,HW_LDT_1,2024.2.4,MacIntel,59.88023952,,,,,,,,,,,,,,,,,,,,,526.3428,526.5409,526.5409,527.0407,,,,,,,,,,,,,,1.1906,1,,,,,,,,,,,,,,z,,,,,,,,,,,,,,,,64,0,527.0416,528.2407,z,1,1.1906,,[],[],[],[],[],[],[],528.2408,530.2405,530.2407,530.2409,[],[],[],[],[],[],[],,530.2411,530.2412,-0.023904552,-0.426116678,0,0,0,,0,63,63,25,1,3,RL,retupar,print,retupar_p.png,,,,,,
,,,,32019,001,2025-10-17_14h47.03.348,HW_LDT_1,2024.2.4,MacIntel,59.88023952,,,,,,,,,,,,,,,,,,,,,530.2424,530.4405,530.4407,530.9406,,,,,,,,,,,,,,1.8373,1,,,,,,,,,,,,,,m,,,,,,,,,,,,,,,,65,0,530.9412,532.7905,m,1,1.8373,,[],[],[],[],[],[],[],532.7907,534.7905,534.7906,534.7909,[],[],[],[],[],[],[],,534.7911,534.7911,-0.023904552,-0.426116678,0,0,0,,0,64,64,133,1,3,word,PROVIDE,print,provide_p.png,,,,,,
,,,,32019,001,2025-10-17_14h47.03.348,HW_LDT_1,2024.2.4,MacIntel,59.88023952,,,,,,,,,,,,,,,,,,,,,534.7922,534.9904,534.9904,535.4904,,,,,,,,,,,,,,1.4444,1,,,,,,,,,,,,,,m,,,,,,,,,,,,,,,,66,1,535.491,536.9404,m,1,1.4444,,[],[],[],[],[],[],[],536.9405,538.9402,538.9404,540.406,[],[],[],[],[],[],[],m,540.4061,540.4061,-0.023904552,-0.426116678,0,0,0,,0,65,65,156,1,3,word,TRIBUTE,print,tribute_p.png,1.4559,,,,,
,,,,32019,001,2025-10-17_14h47.03.348,HW_LDT_1,2024.2.4,MacIntel,59.88023952,,,,,,,,,,,,,,,,,,,,,540.4075,540.607,540.6071,541.1068,,,,,,,,,,,,,,1.0379,1,,,,,,,,,,,,,,z,,,,,,,,,,,,,,,,67,0,541.1077,542.1568,z,1,1.0379,,[],[],[],[],[],[],[],542.157,544.1567,544.1568,544.1571,[],[],[],[],[],[],[],,544.1572,544.1574,-0.023904552,-0.426116678,0,0,0,,0,66,66,10,1,3,RL,efibor,print,efibor_p.png,,,,,,
,,,,32019,001,2025-10-17_14h47.03.348,HW_LDT_1,2024.2.4,MacIntel,59.88023952,,,,,,,,,,,,,,,,,,,,,544.1586,544.3567,544.3568,544.8567,,,,,,,,,,,,,,1.2213,1,,,,,,,,,,,,,,z,,,,,,,,,,,,,,,,68,0,544.8575,546.0901,z,1,1.2213,,[],[],[],[],[],[],[],546.0902,548.0899,548.0899,548.0901,[],[],[],[],[],[],[],,548.0902,548.0904,-0.023904552,-0.426116678,0,0,0,,0,67,67,58,1,3,TL,nuremical,print,nuremical_p.png,,,,,,
,,,,32019,001,2025-10-17_14h47.03.348,HW_LDT_1,2024.2.4,MacIntel,59.88023952,,,,,,,,,,,,,,,,,,,,,548.0916,548.2899,548.29,548.7899,,,,,,,,,,,,,,2.6776,1,,,,,,,,,,,,,,z,,,,,,,,,,,,,,,,69,1,548.7908,551.4722,z,1,2.6776,,[],[],[],[],[],[],[],551.4723,553.4727,553.4728,554.7064,[],[],[],[],[],[],[],z,554.7065,554.7068,-0.023904552,-0.426116678,0,0,0,,0,68,68,6,1,3,RL,cenesony,cursive,cenesony_c.png,1.2231,,,,,
,,,,32019,001,2025-10-17_14h47.03.348,HW_LDT_1,2024.2.4,MacIntel,59.88023952,,,,,,,,,,,,,,,,,,,,,554.7082,554.9063,554.9064,555.4062,,,,,,,,,,,,,,3.8781,0,,,,,,,,,,,,,,m,,,,,,,,,,,,,,,,70,0,555.4072,559.2895,z,0,3.8781,,[],[],[],[],[],[],[],559.2896,561.2893,561.2894,561.2894,[],[],[],[],[],[],[],,561.2895,561.2895,-0.023904552,-0.426116678,0,0,0,,0,69,69,109,1,3,word,GRATEFUL,cursive,grateful_c.png,,,,,,
,,,,32019,001,2025-10-17_14h47.03.348,HW_LDT_1,2024.2.4,MacIntel,59.88023952,,,,,,,,,,,,,,,,,,,,,561.2903,561.4895,561.4895,561.9894,,,,,,,,,,,,,,3.4711,0,,,,,,,,,,,,,,m,,,,,,,,,,,,,,,,71,0,561.9904,565.4726,z,0,3.4711,,[],[],[],[],[],[],[],565.4728,567.4722,567.4723,567.4723,[],[],[],[],[],[],[],,567.4723,567.4724,-0.023904552,-0.426116678,0,0,0,,0,70,70,110,1,3,word,HERITAGE,cursive,heritage_c.png,,,,,,
,,,,32019,001,2025-10-17_14h47.03.348,HW_LDT_1,2024.2.4,MacIntel,59.88023952,,,,,,,,,,,,,,,,,,,,,567.4729,567.6725,567.6726,568.1725,,,,,,,,,,,,,,1.4912,1,,,,,,,,,,,,,,z,,,,,,,,,,,,,,,,72,0,568.1731,569.6723,z,1,1.4912,,[],[],[],[],[],[],[],569.6725,571.6723,571.6723,571.6725,[],[],[],[],[],[],[],,571.6726,571.6727,-0.023904552,-0.426116678,0,0,0,,0,71,71,50,1,3,TL,lirebal,print,lirebal_p.png,,,,,,
,,,,32019,001,2025-10-17_14h47.03.348,HW_LDT_1,2024.2.4,MacIntel,59.88023952,,,,,,,,,,,,,,,,,,,,,571.6742,571.8722,571.8722,572.3722,,,,,,,,,,,,,,5.7891,1,,,,,,,,,,,,,,z,,,,,,,,,,,,,,,,73,0,572.3729,578.1721,z,1,5.7891,,[],[],[],[],[],[],[],578.1722,580.1719,580.172,580.1723,[],[],[],[],[],[],[],,580.1723,580.1725,-0.023904552,-0.426116678,0,0,0,,0,72,72,15,1,3,RL,mifikary,cursive,mifikary_c.png,,,,,,
,,,,32019,001,2025-10-17_14h47.03.348,HW_LDT_1,2024.2.4,MacIntel,59.88023952,,,,,,,,,,,,,,,,,,,,,580.174,580.372,580.372,580.8719,,,,,,,,,,,,,,1.3217,1,,,,,,,,,,,,,,m,,,,,,,,,,,,,,,,74,1,580.8726,582.2054,m,1,1.3217,,[],[],[],[],[],[],[],582.2055,584.2052,584.2053,586.205,[],[],[],[],[],[],[],m,586.2052,586.2052,-0.023904552,-0.426116678,0,0,0,,0,73,73,103,1,3,word,DISPUTE,print,dispute_p.png,1.9956,,,,,
,,,,32019,001,2025-10-17_14h47.03.348,HW_LDT_1,2024.2.4,MacIntel,59.88023952,,,,,,,,,,,,,,,,,,,,,586.2065,586.405,586.4051,586.905,,,,,,,,,,,,,,3.9053,1,,,,,,,,,,,,,,z,,,,,,,,,,,,,,,,75,0,586.9057,590.8216,z,1,3.9053,,[],[],[],[],[],[],[],590.8216,592.8208,592.8209,592.821,[],[],[],[],[],[],[],,592.8211,592.8211,-0.023904552,-0.426116678,0,0,0,,0,74,74,4,1,3,RL,cafigal,cursive,cafigal_c.png,,,,,,
,,,,32019,001,2025-10-17_14h47.03.348,HW_LDT_1,2024.2.4,MacIntel,59.88023952,,,,,,,,,,,,,,,,,,,,,592.8226,593.0216,593.0216,593.5215,,,,,,,,,,,,,,2.1724,1,,,,,,,,,,,,,,m,,,,,,,,,,,,,,,,76,0,593.5223,595.7048,m,1,2.1724,,[],[],[],[],[],[],[],595.7049,597.7047,597.7048,597.705,[],[],[],[],[],[],[],,597.705,597.7052,-0.023904552,-0.426116678,0,0,0,,0,75,75,107,1,3,word,EVIDENT,cursive,evident_c.png,,,,,,
,,,,32019,001,2025-10-17_14h47.03.348,HW_LDT_1,2024.2.4,MacIntel,59.88023952,,,,,,,,,,,,,,,,,,,,,597.7068,597.9046,597.9047,598.4047,,,,,,,,,,,,,,1.4436,1,,,,,,,,,,,,,,m,,,,,,,,,,,,,,,,77,0,598.4053,599.8545,m,1,1.4436,,[],[],[],[],[],[],[],599.8546,601.8539,601.854,601.8543,[],[],[],[],[],[],[],,601.8544,601.8544,-0.023904552,-0.426116678,0,0,0,,0,76,76,105,1,3,word,EDITOR,print,editor_p.png,,,,,,
,,,,32019,001,2025-10-17_14h47.03.348,HW_LDT_1,2024.2.4,MacIntel,59.88023952,,,,,,,,,,,,,,,,,,,,,601.8558,602.0545,602.0545,602.5544,,,,,,,,,,,,,,0.897,1,,,,,,,,,,,,,,m,,,,,,,,,,,,,,,,78,0,602.5552,603.4543,m,1,0.897,,[],[],[],[],[],[],[],603.4545,605.4542,605.4543,605.4546,[],[],[],[],[],[],[],,605.4547,605.4548,-0.023904552,-0.426116678,0,0,0,,0,77,77,155,1,3,word,STRATEGY,print,strategy_p.png,,,,,,
,,,,32019,001,2025-10-17_14h47.03.348,HW_LDT_1,2024.2.4,MacIntel,59.88023952,,,,,,,,,,,,,,,,,,,,,605.4563,605.6542,605.6544,606.1533,,,,,,,,,,,,,,1.3402,1,,,,,,,,,,,,,,z,,,,,,,,,,,,,,,,79,0,606.154,607.5042,z,1,1.3402,,[],[],[],[],[],[],[],607.5044,609.5042,609.5043,609.5044,[],[],[],[],[],[],[],,609.5045,609.5046,-0.023904552,-0.426116678,0,0,0,,0,78,78,45,1,3,TL,dentisy,print,dentisy_p.png,,,,,,
,,,,32019,001,2025-10-17_14h47.03.348,HW_LDT_1,2024.2.4,MacIntel,59.88023952,,,,,,,,,,,,,,,,,,,,,609.5061,609.7039,609.704,610.2041,,,,,,,,,,,,,,1.975,1,,,,,,,,,,,,,,z,,,,,,,,,,,,,,,,80,0,610.2048,612.1873,z,1,1.975,,[],[],[],[],[],[],[],612.1873,614.1872,614.1873,614.1875,[],[],[],[],[],[],[],,614.1875,617.6033,-0.023904552,-0.426116678,0,0,0,space,0,79,79,48,1,3,TL,grafetul,cursive,grafetul_c.png,,,3.3938,,,
,,,,32019,001,2025-10-17_14h47.03.348,HW_LDT_1,2024.2.4,MacIntel,59.88023952,,,,,,,,,,,,,,,,,,,,,617.6046,617.8037,617.8038,618.3038,,,,,,,,,,,,,,2.2895,0,,,,,,,,,,,,,,m,,,,,,,,,,,,,,,,81,0,618.3045,620.6034,z,0,2.2895,,[],[],[],[],[],[],[],620.6035,622.6035,622.6036,622.6038,[],[],[],[],[],[],[],,622.6039,622.604,-0.023904552,-0.426116678,0,0,0,,0,80,80,92,1,3,word,CATEGORY,cursive,category_c.png,,,,,,
,,,,32019,001,2025-10-17_14h47.03.348,HW_LDT_1,2024.2.4,MacIntel,59.88023952,,,,,,,,,,,,,,,,,,,,,622.6054,622.8036,622.8036,623.3029,,,,,,,,,,,,,,2.4737,1,,,,,,,,,,,,,,m,,,,,,,,,,,,,,,,82,0,623.3034,625.7862,m,1,2.4737,,[],[],[],[],[],[],[],625.7863,627.7868,627.7868,627.787,[],[],[],[],[],[],[],,627.7871,627.7871,-0.023904552,-0.426116678,0,0,0,,0,81,81,136,1,3,word,RADICAL,cursive,radical_c.png,,,,,,
,,,,32019,001,2025-10-17_14h47.03.348,HW_LDT_1,2024.2.4,MacIntel,59.88023952,,,,,,,,,,,,,,,,,,,,,627.7885,627.9869,627.9869,628.4867,,,,,,,,,,,,,,2.224,1,,,,,,,,,,,,,,m,,,,,,,,,,,,,,,,83,0,628.4875,630.7199,m,1,2.224,,[],[],[],[],[],[],[],630.7201,632.7199,632.7199,632.7202,[],[],[],[],[],[],[],,632.7203,632.7204,-0.023904552,-0.426116678,0,0,0,,0,82,82,122,1,3,word,MOBILE,cursive,mobile_c.png,,,,,,
,,,,32019,001,2025-10-17_14h47.03.348,HW_LDT_1,2024.2.4,MacIntel,59.88023952,,,,,,,,,,,,,,,,,,,,,632.7218,632.9198,632.9199,633.4199,,,,,,,,,,,,,,2.0903,1,,,,,,,,,,,,,,z,,,,,,,,,,,,,,,,84,0,633.4206,635.5198,z,1,2.0903,,[],[],[],[],[],[],[],635.5199,637.5197,637.5198,637.52,[],[],[],[],[],[],[],,637.5201,637.5202,-0.023904552,-0.426116678,0,0,0,,0,83,83,33,1,3,TL,adsivory,print,adsivory_p.png,,,,,,
,,,,32019,001,2025-10-17_14h47.03.348,HW_LDT_1,2024.2.4,MacIntel,59.88023952,,,,,,,,,,,,,,,,,,,,,637.5217,637.7197,637.7198,638.219,,,,,,,,,,,,,,0.9487,1,,,,,,,,,,,,,,m,,,,,,,,,,,,,,,,85,0,638.2198,639.1699,m,1,0.9487,,[],[],[],[],[],[],[],639.1699,641.1697,641.1698,641.1699,[],[],[],[],[],[],[],,641.17,641.1701,-0.023904552,-0.426116678,0,0,0,,0,84,84,132,1,3,word,PROPOSAL,print,proposal_p.png,,,,,,
,,,,32019,001,2025-10-17_14h47.03.348,HW_LDT_1,2024.2.4,MacIntel,59.88023952,,,,,,,,,,,,,,,,,,,,,641.1715,641.3696,641.3697,641.8695,,,,,,,,,,,,,,0.8906,1,,,,,,,,,,,,,,z,,,,,,,,,,,,,,,,86,0,641.8702,642.7695,z,1,0.8906,,[],[],[],[],[],[],[],642.7696,644.7694,644.7695,644.7697,[],[],[],[],[],[],[],,644.7698,644.7699,-0.023904552,-0.426116678,0,0,0,,0,85,85,21,1,3,RL,potugar,print,potugar_p.png,,,,,,
,,,,32019,001,2025-10-17_14h47.03.348,HW_LDT_1,2024.2.4,MacIntel,59.88023952,,,,,,,,,,,,,,,,,,,,,644.7713,644.9687,644.9688,645.4694,,,,,,,,,,,,,,0.8558,1,,,,,,,,,,,,,,m,,,,,,,,,,,,,,,,87,0,645.47,646.336,m,1,0.8558,,[],[],[],[],[],[],[],646.3362,648.336,648.3361,648.3363,[],[],[],[],[],[],[],,648.3364,648.3365,-0.023904552,-0.426116678,0,0,0,,0,86,86,95,1,3,word,COMEDY,print,comedy_p.png,,,,,,
,,,,32019,001,2025-10-17_14h47.03.348,HW_LDT_1,2024.2.4,MacIntel,59.88023952,,,,,,,,,,,,,,,,,,,,,648.338,648.5359,648.536,649.0359,,,,,,,,,,,,,,1.089,1,,,,,,,,,,,,,,m,,,,,,,,,,,,,,,,88,1,649.0367,650.1358,m,1,1.089,,[],[],[],[],[],[],[],650.136,652.1357,652.1357,653.3523,[],[],[],[],[],[],[],m,653.3524,653.3526,-0.023904552,-0.426116678,0,0,0,,0,87,87,150,1,3,word,SENTIMENT,print,sentiment_p.png,1.2067,,,,,
,,,,32019,001,2025-10-17_14h47.03.348,HW_LDT_1,2024.2.4,MacIntel,59.88023952,,,,,,,,,,,,,,,,,,,,,653.3537,653.5523,653.5524,654.0524,,,,,,,,,,,,,,1.3755,1,,,,,,,,,,,,,,z,,,,,,,,,,,,,,,,89,1,654.053,655.4355,z,1,1.3755,,[],[],[],[],[],[],[],655.4356,657.4355,657.4356,658.8359,[],[],[],[],[],[],[],m,658.8361,658.8361,-0.023904552,-0.426116678,0,0,0,,0,88,88,41,1,3,TL,crinimal,print,crinimal_p.png,1.3997,,,,,
,,,,32019,001,2025-10-17_14h47.03.348,HW_LDT_1,2024.2.4,MacIntel,59.88023952,,,,,,,,,,,,,,,,,,,,,658.8374,659.0354,659.0355,659.5355,,,,,,,,,,,,,,2.6253,0,,,,,,,,,,,,,,m,,,,,,,,,,,,,,,,90,0,659.5362,662.1687,z,0,2.6253,,[],[],[],[],[],[],[],662.1687,664.1684,664.1684,664.1686,[],[],[],[],[],[],[],,664.1687,664.1688,-0.023904552,-0.426116678,0,0,0,,0,89,89,90,1,3,word,CAPITAL,cursive,capital_c.png,,,,,,
,,,,32019,001,2025-10-17_14h47.03.348,HW_LDT_1,2024.2.4,MacIntel,59.88023952,,,,,,,,,,,,,,,,,,,,,664.1702,664.3676,664.3677,664.8686,,,,,,,,,,,,,,0.8824,1,,,,,,,,,,,,,,z,,,,,,,,,,,,,,,,91,0,664.8691,665.7524,z,1,0.8824,,[],[],[],[],[],[],[],665.7524,667.7511,667.7512,667.7513,[],[],[],[],[],[],[],,667.7514,667.7515,-0.023904552,-0.426116678,0,0,0,,0,90,90,23,1,3,RL,quakity,print,quakity_p.png,,,,,,
,,,,32019,001,2025-10-17_14h47.03.348,HW_LDT_1,2024.2.4,MacIntel,59.88023952,,,,,,,,,,,,,,,,,,,,,667.753,667.951,667.9511,668.451,,,,,,,,,,,,,,0.7737,1,,,,,,,,,,,,,,m,,,,,,,,,,,,,,,,92,0,668.4516,669.2343,m,1,0.7737,,[],[],[],[],[],[],[],669.2344,671.235,671.2351,671.2353,[],[],[],[],[],[],[],,671.2354,671.2356,-0.023904552,-0.426116678,0,0,0,,0,91,91,135,1,3,word,QUALITY,print,quality_p.png,,,,,,
,,,,32019,001,2025-10-17_14h47.03.348,HW_LDT_1,2024.2.4,MacIntel,59.88023952,,,,,,,,,,,,,,,,,,,,,671.237,671.4348,671.4349,671.935,,,,,,,,,,,,,,1.5924,1,,,,,,,,,,,,,,m,,,,,,,,,,,,,,,,93,0,671.9357,673.5349,m,1,1.5924,,[],[],[],[],[],[],[],673.5349,675.5348,675.5348,675.5352,[],[],[],[],[],[],[],,675.5353,675.5354,-0.023904552,-0.426116678,0,0,0,,0,92,92,157,1,3,word,VALIDITY,cursive,validity_c.png,,,,,,
,,,,32019,001,2025-10-17_14h47.03.348,HW_LDT_1,2024.2.4,MacIntel,59.88023952,,,,,,,,,,,,,,,,,,,,,675.5369,675.7342,675.7343,676.2348,,,,,,,,,,,,,,2.0785,1,,,,,,,,,,,,,,m,,,,,,,,,,,,,,,,94,0,676.2354,678.3176,m,1,2.0785,,[],[],[],[],[],[],[],678.3176,680.318,680.3181,680.3184,[],[],[],[],[],[],[],,680.3184,680.3185,-0.023904552,-0.426116678,0,0,0,,0,93,93,147,1,3,word,ROMANTIC,cursive,romantic_c.png,,,,,,
,,,,32019,001,2025-10-17_14h47.03.348,HW_LDT_1,2024.2.4,MacIntel,59.88023952,,,,,,,,,,,,,,,,,,,,,680.3201,680.5179,680.5181,681.0179,,,,,,,,,,,,,,5.4892,1,,,,,,,,,,,,,,z,,,,,,,,,,,,,,,,95,0,681.0187,686.5177,z,1,5.4892,,[],[],[],[],[],[],[],686.5177,688.5176,688.5178,688.518,[],[],[],[],[],[],[],,688.518,688.5182,-0.023904552,-0.426116678,0,0,0,,0,94,94,11,1,3,RL,ebiwent,cursive,ebiwent_c.png,,,,,,
,,,,32019,001,2025-10-17_14h47.03.348,HW_LDT_1,2024.2.4,MacIntel,59.88023952,,,,,,,,,,,,,,,,,,,,,688.5198,688.7177,688.7177,689.2176,,,,,,,,,,,,,,1.7427,0,,,,,,,,,,,,,,m,,,,,,,,,,,,,,,,96,0,689.2184,690.9675,z,0,1.7427,,[],[],[],[],[],[],[],690.9675,692.9675,692.9676,692.9678,[],[],[],[],[],[],[],,692.9679,692.968,-0.023904552,-0.426116678,0,0,0,,0,95,95,89,1,3,word,CAPACITY,cursive,capacity_c.png,,,,,,
,,,,32019,001,2025-10-17_14h47.03.348,HW_LDT_1,2024.2.4,MacIntel,59.88023952,,,,,,,,,,,,,,,,,,,,,692.9696,693.1669,693.167,693.6676,,,,,,,,,,,,,,0.8196,1,,,,,,,,,,,,,,m,,,,,,,,,,,,,,,,97,0,693.6683,694.5008,m,1,0.8196,,[],[],[],[],[],[],[],694.5009,696.5007,696.5007,696.501,[],[],[],[],[],[],[],,696.5011,696.5012,-0.023904552,-0.426116678,0,0,0,,0,96,96,142,1,3,word,REMOTE,print,remote_p.png,,,,,,
,,,,32019,001,2025-10-17_14h47.03.348,HW_LDT_1,2024.2.4,MacIntel,59.88023952,,,,,,,,,,,,,,,,,,,,,696.5026,696.7002,696.7002,697.2003,,,,,,,,,,,,,,0.8304,1,,,,,,,,,,,,,,m,,,,,,,,,,,,,,,,98,0,697.201,698.0339,m,1,0.8304,,[],[],[],[],[],[],[],698.0339,700.0339,700.0339,700.0342,[],[],[],[],[],[],[],,700.0343,700.0344,-0.023904552,-0.426116678,0,0,0,,0,97,97,82,1,3,word,AMATEUR,print,amateur_p.png,,,,,,
,,,,32019,001,2025-10-17_14h47.03.348,HW_LDT_1,2024.2.4,MacIntel,59.88023952,,,,,,,,,,,,,,,,,,,,,700.0358,700.2335,700.2336,700.7335,,,,,,,,,,,,,,1.0267,1,,,,,,,,,,,,,,z,,,,,,,,,,,,,,,,99,0,700.7343,701.7668,z,1,1.0267,,[],[],[],[],[],[],[],701.7669,703.767,703.7671,703.7673,[],[],[],[],[],[],[],,703.7673,703.7675,-0.023904552,-0.426116678,0,0,0,,0,98,98,9,1,3,RL,docirant,print,docirant_p.png,,,,,,
,,,,32019,001,2025-10-17_14h47.03.348,HW_LDT_1,2024.2.4,MacIntel,59.88023952,,,,,,,,,,,,,,,,,,,,,703.7691,703.967,703.9671,704.467,,,,,,,,,,,,,,2.1927,1,,,,,,,,,,,,,,m,,,,,,,,,,,,,,,,100,0,704.4677,706.6669,m,1,2.1927,,[],[],[],[],[],[],[],706.667,708.6668,708.6669,708.6671,[],[],[],[],[],[],[],,708.6672,708.6674,-0.023904552,-0.426116678,0,0,0,,0,99,99,86,1,3,word,BESIDE,cursive,beside_c.png,,,,,,
,,,,32019,001,2025-10-17_14h47.03.348,HW_LDT_1,2024.2.4,MacIntel,59.88023952,,,,,,,,,,,,,,,,,,,,,708.6689,708.8668,708.8669,709.3668,,,,,,,,,,,,,,0.8932,1,,,,,,,,,,,,,,m,,,,,,,,,,,,,,,,101,0,709.3676,710.2667,m,1,0.8932,,[],[],[],[],[],[],[],710.2668,712.2668,712.267,712.2672,[],[],[],[],[],[],[],,712.2672,712.2673,-0.023904552,-0.426116678,0,0,0,,0,100,100,112,1,3,word,LIBERAL,print,liberal_p.png,,,,,,
,,,,32019,001,2025-10-17_14h47.03.348,HW_LDT_1,2024.2.4,MacIntel,59.88023952,,,,,,,,,,,,,,,,,,,,,712.2687,712.4667,712.4667,712.9667,,,,,,,,,,,,,,0.978,1,,,,,,,,,,,,,,z,,,,,,,,,,,,,,,,102,0,712.9674,713.9499,z,1,0.978,,[],[],[],[],[],[],[],713.95,715.9499,715.95,715.9502,[],[],[],[],[],[],[],,715.9503,715.9505,-0.023904552,-0.426116678,0,0,0,,0,101,101,8,1,3,RL,cocewage,print,cocewage_p.png,,,,,,
,,,,32019,001,2025-10-17_14h47.03.348,HW_LDT_1,2024.2.4,MacIntel,59.88023952,,,,,,,,,,,,,,,,,,,,,715.9519,716.1499,716.1499,716.6498,,,,,,,,,,,,,,1.6704,0,,,,,,,,,,,,,,m,,,,,,,,,,,,,,,,103,0,716.6506,718.3332,z,0,1.6704,,[],[],[],[],[],[],[],718.3334,720.3331,720.3331,720.3335,[],[],[],[],[],[],[],,720.3336,720.3337,-0.023904552,-0.426116678,0,0,0,,0,102,102,149,1,3,word,SENATOR,cursive,senator_c.png,,,,,,
,,,,32019,001,2025-10-17_14h47.03.348,HW_LDT_1,2024.2.4,MacIntel,59.88023952,,,,,,,,,,,,,,,,,,,,,720.3352,720.533,720.5331,721.033,,,,,,,,,,,,,,0.945,1,,,,,,,,,,,,,,m,,,,,,,,,,,,,,,,104,1,721.0338,721.9829,m,1,0.945,,[],[],[],[],[],[],[],721.983,723.9829,723.983,725.1161,[],[],[],[],[],[],[],m,725.1162,725.1163,-0.023904552,-0.426116678,0,0,0,,0,103,103,138,1,3,word,REFUSAL,print,refusal_p.png,1.1283,,,,,
,,,,32019,001,2025-10-17_14h47.03.348,HW_LDT_1,2024.2.4,MacIntel,59.88023952,,,,,,,,,,,,,,,,,,,,,725.1175,725.3162,725.3162,725.8161,,,,,,,,,,,,,,1.3934,1,,,,,,,,,,,,,,m,,,,,,,,,,,,,,,,105,1,725.8169,727.2161,m,1,1.3934,,[],[],[],[],[],[],[],727.2162,729.2159,729.216,730.7326,[],[],[],[],[],[],[],z,730.7326,730.7327,-0.023904552,-0.426116678,0,0,0,,0,104,104,100,1,3,word,DECADE,cursive,decade_c.png,1.511,,,,,
,,,,32019,001,2025-10-17_14h47.03.348,HW_LDT_1,2024.2.4,MacIntel,59.88023952,,,,,,,,,,,,,,,,,,,,,730.7334,730.9326,730.9326,731.4325,,,,,,,,,,,,,,2.4127,0,,,,,,,,,,,,,,m,,,,,,,,,,,,,,,,106,0,731.4331,733.8491,z,0,2.4127,,[],[],[],[],[],[],[],733.8491,735.8491,735.8491,735.8492,[],[],[],[],[],[],[],,735.8493,735.8495,-0.023904552,-0.426116678,0,0,0,,0,105,105,117,1,3,word,MARINE,cursive,marine_c.png,,,,,,
,,,,32019,001,2025-10-17_14h47.03.348,HW_LDT_1,2024.2.4,MacIntel,59.88023952,,,,,,,,,,,,,,,,,,,,,735.8508,736.049,736.0491,736.549,,,,,,,,,,,,,,1.5554,0,,,,,,,,,,,,,,m,,,,,,,,,,,,,,,,107,0,736.5497,738.1156,z,0,1.5554,,[],[],[],[],[],[],[],738.1156,740.1156,740.1156,740.1158,[],[],[],[],[],[],[],,740.1159,740.1159,-0.023904552,-0.426116678,0,0,0,,0,106,106,99,1,3,word,DEBATE,cursive,debate_c.png,,,,,,
,,,,32019,001,2025-10-17_14h47.03.348,HW_LDT_1,2024.2.4,MacIntel,59.88023952,,,,,,,,,,,,,,,,,,,,,740.1173,740.3153,740.3154,740.8155,,,,,,,,,,,,,,1.0862,1,,,,,,,,,,,,,,m,,,,,,,,,,,,,,,,108,0,740.8162,741.9155,m,1,1.0862,,[],[],[],[],[],[],[],741.9156,743.9154,743.9154,743.9155,[],[],[],[],[],[],[],,743.9156,743.9157,-0.023904552,-0.426116678,0,0,0,,0,107,107,115,1,3,word,LOGICAL,cursive,logical_c.png,,,,,,
,,,,32019,001,2025-10-17_14h47.03.348,HW_LDT_1,2024.2.4,MacIntel,59.88023952,,,,,,,,,,,,,,,,,,,,,743.9171,744.1154,744.1154,744.6152,,,,,,,,,,,,,,0.9942,1,,,,,,,,,,,,,,z,,,,,,,,,,,,,,,,109,0,744.6158,745.6154,z,1,0.9942,,[],[],[],[],[],[],[],745.6154,747.615,747.6151,747.6154,[],[],[],[],[],[],[],,747.6155,747.6155,-0.023904552,-0.426116678,0,0,0,,0,108,108,43,1,3,TL,dedace,cursive,dedace_c.png,,,,,,
,,,,32019,001,2025-10-17_14h47.03.348,HW_LDT_1,2024.2.4,MacIntel,59.88023952,,,,,,,,,,,,,,,,,,,,,747.6171,747.8153,747.8154,748.3154,,,,,,,,,,,,,,1.6612,1,,,,,,,,,,,,,,z,,,,,,,,,,,,,,,,110,0,748.316,749.9817,z,1,1.6612,,[],[],[],[],[],[],[],749.9819,751.9818,751.9819,751.9822,[],[],[],[],[],[],[],,751.9822,751.9823,-0.023904552,-0.426116678,0,0,0,,0,109,109,22,1,3,RL,procogal,print,procogal_p.png,,,,,,
,,,,32019,001,2025-10-17_14h47.03.348,HW_LDT_1,2024.2.4,MacIntel,59.88023952,,,,,,,,,,,,,,,,,,,,,751.9839,752.1818,752.1819,752.6818,,,,,,,,,,,,,,2.6426,1,,,,,,,,,,,,,,z,,,,,,,,,,,,,,,,111,0,752.6824,755.3316,z,1,2.6426,,[],[],[],[],[],[],[],755.3317,757.3315,757.3315,757.3317,[],[],[],[],[],[],[],,757.3319,757.3319,-0.023904552,-0.426116678,0,0,0,,0,110,110,17,1,3,RL,motide,cursive,motide_c.png,,,,,,
,,,,32019,001,2025-10-17_14h47.03.348,HW_LDT_1,2024.2.4,MacIntel,59.88023952,,,,,,,,,,,,,,,,,,,,,757.3334,757.5314,757.5316,758.0315,,,,,,,,,,,,,,1.2945,1,,,,,,,,,,,,,,m,,,,,,,,,,,,,,,,112,0,758.0321,759.3315,m,1,1.2945,,[],[],[],[],[],[],[],759.3316,761.3315,761.3315,761.3318,[],[],[],[],[],[],[],,761.3318,761.3319,-0.023904552,-0.426116678,0,0,0,,0,111,111,87,1,3,word,CAFETERIA,print,cafeteria_p.png,,,,,,
,,,,32019,001,2025-10-17_14h47.03.348,HW_LDT_1,2024.2.4,MacIntel,59.88023952,,,,,,,,,,,,,,,,,,,,,761.3333,761.5313,761.5314,762.0314,,,,,,,,,,,,,,18.0256,0,,,,,,,,,,,,,,z,,,,,,,,,,,,,,,,113,0,762.0321,780.064,m,0,18.0256,,[],[],[],[],[],[],[],780.0641,782.0639,782.064,782.0643,[],[],[],[],[],[],[],,782.0644,782.0646,-0.023904552,-0.426116678,0,0,0,,0,112,112,54,1,3,TL,manire,cursive,manire_c.png,,,,,,
,,,,32019,001,2025-10-17_14h47.03.348,HW_LDT_1,2024.2.4,MacIntel,59.88023952,,,,,,,,,,,,,,,,,,,,,782.0662,782.2639,782.2641,782.7639,,,,,,,,,,,,,,1.5031,0,,,,,,,,,,,,,,m,,,,,,,,,,,,,,,,114,0,782.7645,784.2806,z,0,1.5031,,[],[],[],[],[],[],[],784.2807,786.2805,786.2806,786.2809,[],[],[],[],[],[],[],,786.2809,786.281,-0.023904552,-0.426116678,0,0,0,,0,113,113,120,1,3,word,MILITARY,cursive,military_c.png,,,,,,
,,,,32019,001,2025-10-17_14h47.03.348,HW_LDT_1,2024.2.4,MacIntel,59.88023952,,,,,,,,,,,,,,,,,,,,,786.2825,786.4804,786.4806,786.9803,,,,,,,,,,,,,,14.0458,1,,,,,,,,,,,,,,z,,,,,,,,,,,,,,,,115,0,786.981,801.0298,z,1,14.0458,,[],[],[],[],[],[],[],801.0299,803.0297,803.0298,803.03,[],[],[],[],[],[],[],,803.03,803.0302,-0.023904552,-0.426116678,0,0,0,,0,114,114,68,1,3,TL,revomal,cursive,revomal_c.png,,,,,,
,,,,32019,001,2025-10-17_14h47.03.348,HW_LDT_1,2024.2.4,MacIntel,59.88023952,,,,,,,,,,,,,,,,,,,,,803.0319,803.2298,803.2299,803.7296,,,,,,,,,,,,,,6.2964,1,,,,,,,,,,,,,,m,,,,,,,,,,,,,,,,116,0,803.7302,810.0295,m,1,6.2964,,[],[],[],[],[],[],[],810.0296,812.0293,812.0294,812.0296,[],[],[],[],[],[],[],,812.0296,812.0298,-0.023904552,-0.426116678,0,0,0,,0,115,115,127,1,3,word,ORIGINAL,cursive,original_c.png,,,,,,
,,,,32019,001,2025-10-17_14h47.03.348,HW_LDT_1,2024.2.4,MacIntel,59.88023952,,,,,,,,,,,,,,,,,,,,,812.0311,812.2294,812.2294,812.7294,,,,,,,,,,,,,,1.0751,1,,,,,,,,,,,,,,z,,,,,,,,,,,,,,,,117,0,812.73,813.8118,z,1,1.0751,,[],[],[],[],[],[],[],813.8119,815.8125,815.8126,815.8128,[],[],[],[],[],[],[],,815.8128,815.813,-0.023904552,-0.426116678,0,0,0,,0,116,116,67,1,3,TL,retome,print,retome_p.png,,,,,,
,,,,32019,001,2025-10-17_14h47.03.348,HW_LDT_1,2024.2.4,MacIntel,59.88023952,,,,,,,,,,,,,,,,,,,,,815.8143,816.0126,816.0126,816.5124,,,,,,,,,,,,,,3.5203,0,,,,,,,,,,,,,,m,,,,,,,,,,,,,,,,118,0,816.513,820.0456,z,0,3.5203,,[],[],[],[],[],[],[],820.0457,822.0456,822.0457,822.0459,[],[],[],[],[],[],[],,822.0459,822.046,-0.023904552,-0.426116678,0,0,0,,0,117,117,121,1,3,word,MISTAKE,cursive,mistake_c.png,,,,,,
,,,,32019,001,2025-10-17_14h47.03.348,HW_LDT_1,2024.2.4,MacIntel,59.88023952,,,,,,,,,,,,,,,,,,,,,822.0475,822.2455,822.2456,822.7456,,,,,,,,,,,,,,1.1568,0,,,,,,,,,,,,,,m,,,,,,,,,,,,,,,,119,1,822.7463,823.9121,z,0,1.1568,,[],[],[],[],[],[],[],823.9122,825.9121,825.9121,827.4621,[],[],[],[],[],[],[],m,827.4622,827.4623,-0.023904552,-0.426116678,0,0,0,,0,118,118,102,1,3,word,DENSITY,print,density_p.png,1.5471,,,,,
,,,,32019,001,2025-10-17_14h47.03.348,HW_LDT_1,2024.2.4,MacIntel,59.88023952,,,,,,,,,,,,,,,,,,,,,827.4635,827.6621,827.6622,828.1619,,,,,,,,,,,,,,20.2304,1,,,,,,,,,,,,,,z,,,,,,,,,,,,,,,,120,0,828.1625,848.3946,z,1,20.2304,,[],[],[],[],[],[],[],848.3947,850.3946,850.3946,850.3949,[],[],[],[],[],[],[],,850.3949,850.3951,-0.023904552,-0.426116678,0,0,0,,0,119,119,31,1,3,RL,trilude,print,trilude_p.png,,,,,,
,,,,32019,001,2025-10-17_14h47.03.348,HW_LDT_1,2024.2.4,MacIntel,59.88023952,,,,,,,,,,,,,,,,,,,,,850.3966,850.5942,850.5943,851.0944,,,,,,,,,,,,,,1.3488,1,,,,,,,,,,,,,,m,,,,,,,,,,,,,,,,121,0,851.0951,852.4449,m,1,1.3488,,[],[],[],[],[],[],[],852.445,854.4444,854.4445,854.4447,[],[],[],[],[],[],[],,854.4448,854.4449,-0.023904552,-0.426116678,0,0,0,,0,120,120,139,1,3,word,REGULAR,print,regular_p.png,,,,,,
,,,,32019,001,2025-10-17_14h47.03.348,HW_LDT_1,2024.2.4,MacIntel,59.88023952,,,,,,,,,,,,,,,,,,,,,854.4464,854.6445,854.6446,855.1445,,,,,,,,,,,,,,1.9362,1,,,,,,,,,,,,,,z,,,,,,,,,,,,,,,,122,1,855.1451,857.0944,z,1,1.9362,,[],[],[],[],[],[],[],857.0945,859.0943,859.0943,861.2439,[],[],[],[],[],[],[],m,861.2439,861.244,-0.023904552,-0.426116678,0,0,0,,0,121,121,7,1,3,RL,cobeny,print,cobeny_p.png,2.1451,,,,,
,,,,32019,001,2025-10-17_14h47.03.348,HW_LDT_1,2024.2.4,MacIntel,59.88023952,,,,,,,,,,,,,,,,,,,,,861.2448,861.4442,861.4443,861.9441,,,,,,,,,,,,,,1.1302,0,,,,,,,,,,,,,,z,,,,,,,,,,,,,,,,123,0,861.9447,863.0773,m,0,1.1302,,[],[],[],[],[],[],[],863.0774,865.0772,865.0773,865.0775,[],[],[],[],[],[],[],,865.0776,865.0777,-0.023904552,-0.426116678,0,0,0,,0,122,122,61,1,3,TL,pocily,print,pocily_p.png,,,,,,
,,,,32019,001,2025-10-17_14h47.03.348,HW_LDT_1,2024.2.4,MacIntel,59.88023952,,,,,,,,,,,,,,,,,,,,,865.079,865.2773,865.2773,865.7766,,,,,,,,,,,,,,1.1169,1,,,,,,,,,,,,,,m,,,,,,,,,,,,,,,,124,1,865.7771,866.8947,m,1,1.1169,,[],[],[],[],[],[],[],866.8948,868.8938,868.894,871.4759,[],[],[],[],[],[],[],m,871.476,871.4761,-0.023904552,-0.426116678,0,0,0,,0,123,123,104,1,3,word,DOMINANT,print,dominant_p.png,2.5786,,,,,
,,,,32019,001,2025-10-17_14h47.03.348,HW_LDT_1,2024.2.4,MacIntel,59.88023952,,,,,,,,,,,,,,,,,,,,,871.4773,871.677,871.677,872.177,,,,,,,,,,,,,,4.2982,1,,,,,,,,,,,,,,z,,,,,,,,,,,,,,,,125,0,872.1778,876.4769,z,1,4.2982,,[],[],[],[],[],[],[],876.4769,878.4767,878.4768,878.477,[],[],[],[],[],[],[],,878.4771,878.4772,-0.023904552,-0.426116678,0,0,0,,0,124,124,3,1,3,RL,bebine,cursive,bebine_c.png,,,,,,
,,,,32019,001,2025-10-17_14h47.03.348,HW_LDT_1,2024.2.4,MacIntel,59.88023952,,,,,,,,,,,,,,,,,,,,,878.4787,878.6767,878.6768,879.1769,,,,,,,,,,,,,,5.6196,0,,,,,,,,,,,,,,m,,,,,,,,,,,,,,,,126,0,879.1776,884.8099,z,0,5.6196,,[],[],[],[],[],[],[],884.8101,886.8099,886.81,886.8102,[],[],[],[],[],[],[],,886.8103,886.8104,-0.023904552,-0.426116678,0,0,0,,0,125,125,140,1,3,word,RELATIVE,cursive,relative_c.png,,,,,,
,,,,32019,001,2025-10-17_14h47.03.348,HW_LDT_1,2024.2.4,MacIntel,59.88023952,,,,,,,,,,,,,,,,,,,,,886.812,887.0092,887.0092,887.5099,,,,,,,,,,,,,,1.2303,1,,,,,,,,,,,,,,m,,,,,,,,,,,,,,,,127,0,887.5105,888.7428,m,1,1.2303,,[],[],[],[],[],[],[],888.7429,890.7431,890.7431,890.7433,[],[],[],[],[],[],[],,890.7434,890.7435,-0.023904552,-0.426116678,0,0,0,,0,126,126,125,1,3,word,OPERATOR,print,operator_p.png,,,,,,
,,,,32019,001,2025-10-17_14h47.03.348,HW_LDT_1,2024.2.4,MacIntel,59.88023952,,,,,,,,,,,,,,,,,,,,,890.745,890.943,890.9431,891.4431,,,,,,,,,,,,,,4.8197,1,,,,,,,,,,,,,,z,,,,,,,,,,,,,,,,128,0,891.4438,896.2764,z,1,4.8197,,[],[],[],[],[],[],[],896.2764,898.2761,898.2762,898.2764,[],[],[],[],[],[],[],,898.2766,898.2767,-0.023904552,-0.426116678,0,0,0,,0,127,127,13,1,3,RL,helicage,cursive,helicage_c.png,,,,,,
,,,,32019,001,2025-10-17_14h47.03.348,HW_LDT_1,2024.2.4,MacIntel,59.88023952,,,,,,,,,,,,,,,,,,,,,898.2782,898.475,898.4751,898.976,,,,,,,,,,,,,,1.1368,1,,,,,,,,,,,,,,m,,,,,,,,,,,,,,,,129,1,898.9767,900.1259,m,1,1.1368,,[],[],[],[],[],[],[],900.126,902.1258,902.1259,903.3425,[],[],[],[],[],[],[],m,903.3426,903.3428,-0.023904552,-0.426116678,0,0,0,,0,128,128,137,1,3,word,RAPIDLY,print,rapidly_p.png,1.2043,0.0099,,,,
,,,,32019,001,2025-10-17_14h47.03.348,HW_LDT_1,2024.2.4,MacIntel,59.88023952,,,,,,,,,,,,,,,,,,,,,903.3439,903.5425,903.5425,904.0425,,,,,,,,,,,,,,1.303,1,,,,,,,,,,,,,,z,,,,,,,,,,,,,,,,130,0,904.0431,905.359,z,1,1.303,,[],[],[],[],[],[],[],905.3591,907.3589,907.3589,907.3593,[],[],[],[],[],[],[],,907.3593,907.3595,-0.023904552,-0.426116678,0,0,0,,0,129,129,51,1,3,TL,liretal,print,liretal_p.png,,,,,,
,,,,32019,001,2025-10-17_14h47.03.348,HW_LDT_1,2024.2.4,MacIntel,59.88023952,,,,,,,,,,,,,,,,,,,,,907.3608,907.5589,907.559,908.0589,,,,,,,,,,,,,,1.2152,1,,,,,,,,,,,,,,m,,,,,,,,,,,,,,,,131,0,908.0595,909.2754,m,1,1.2152,,[],[],[],[],[],[],[],909.2755,911.2754,911.2754,911.2757,[],[],[],[],[],[],[],,911.2758,911.2759,-0.023904552,-0.426116678,0,0,0,,0,130,130,111,1,3,word,INDICATE,print,indicate_p.png,,,,,,
,,,,32019,001,2025-10-17_14h47.03.348,HW_LDT_1,2024.2.4,MacIntel,59.88023952,,,,,,,,,,,,,,,,,,,,,911.277,911.4754,911.4755,911.9754,,,,,,,,,,,,,,1.5199,0,,,,,,,,,,,,,,z,,,,,,,,,,,,,,,,132,0,911.976,913.5088,m,0,1.5199,,[],[],[],[],[],[],[],913.5089,915.5087,915.5087,915.5089,[],[],[],[],[],[],[],,915.509,915.5091,-0.023904552,-0.426116678,0,0,0,,0,131,131,44,1,3,TL,decilate,print,decilate_p.png,,,,,,
,,,,32019,001,2025-10-17_14h47.03.348,HW_LDT_1,2024.2.4,MacIntel,59.88023952,,,,,,,,,,,,,,,,,,,,,915.5105,915.7087,915.7088,916.2087,,,,,,,,,,,,,,1.263,1,,,,,,,,,,,,,,m,,,,,,,,,,,,,,,,133,1,916.2092,917.4752,m,1,1.263,,[],[],[],[],[],[],[],917.4754,919.4752,919.4752,921.0751,[],[],[],[],[],[],[],m,921.0752,921.0753,-0.023904552,-0.426116678,0,0,0,,0,132,132,80,1,3,word,ACADEMY,print,academy_p.png,1.5874,,,,,
,,,,32019,001,2025-10-17_14h47.03.348,HW_LDT_1,2024.2.4,MacIntel,59.88023952,,,,,,,,,,,,,,,,,,,,,921.0765,921.275,921.2751,921.7751,,,,,,,,,,,,,,3.2363,1,,,,,,,,,,,,,,m,,,,,,,,,,,,,,,,134,0,921.7757,925.0242,m,1,3.2363,,[],[],[],[],[],[],[],925.0242,927.0248,927.0248,927.025,[],[],[],[],[],[],[],,927.0251,927.0252,-0.023904552,-0.426116678,0,0,0,,0,133,133,84,1,3,word,BELOVED,cursive,beloved_c.png,,,,,,
,,,,32019,001,2025-10-17_14h47.03.348,HW_LDT_1,2024.2.4,MacIntel,59.88023952,,,,,,,,,,,,,,,,,,,,,927.0267,927.2247,927.2248,927.7249,,,,,,,,,,,,,,1.7387,1,,,,,,,,,,,,,,z,,,,,,,,,,,,,,,,135,0,927.7255,929.4748,z,1,1.7387,,[],[],[],[],[],[],[],929.4749,931.4747,931.4747,931.4749,[],[],[],[],[],[],[],,931.475,931.4751,-0.023904552,-0.426116678,0,0,0,,0,134,134,40,1,3,TL,condiser,print,condiser_p.png,,,,,,
,,,,32019,001,2025-10-17_14h47.03.348,HW_LDT_1,2024.2.4,MacIntel,59.88023952,,,,,,,,,,,,,,,,,,,,,931.4766,931.6746,931.6747,932.1746,,,,,,,,,,,,,,9.6029,1,,,,,,,,,,,,,,z,,,,,,,,,,,,,,,,136,0,932.1752,941.7911,z,1,9.6029,,[],[],[],[],[],[],[],941.7911,943.7908,943.7908,943.791,[],[],[],[],[],[],[],,943.7911,943.7913,-0.023904552,-0.426116678,0,0,0,,0,135,135,19,1,3,RL,opcifal,cursive,opcifal_c.png,,,,,,
,,,,32019,001,2025-10-17_14h47.03.348,HW_LDT_1,2024.2.4,MacIntel,59.88023952,,,,,,,,,,,,,,,,,,,,,943.7927,943.9908,943.9908,944.4907,,,,,,,,,,,,,,1.2035,0,,,,,,,,,,,,,,z,,,,,,,,,,,,,,,,137,0,944.4913,945.7075,m,0,1.2035,,[],[],[],[],[],[],[],945.7077,947.7073,947.7074,947.7075,[],[],[],[],[],[],[],,947.7076,947.7077,-0.023904552,-0.426116678,0,0,0,,0,136,136,35,1,3,TL,cateferia,print,cateferia_p.png,,,,,,
,,,,32019,001,2025-10-17_14h47.03.348,HW_LDT_1,2024.2.4,MacIntel,59.88023952,,,,,,,,,,,,,,,,,,,,,947.7092,947.9074,947.9074,948.4073,,,,,,,,,,,,,,2.6656,1,,,,,,,,,,,,,,z,,,,,,,,,,,,,,,,138,0,948.4079,951.0742,z,1,2.6656,,[],[],[],[],[],[],[],951.0743,953.0739,953.0739,953.0742,[],[],[],[],[],[],[],,953.0743,953.0744,-0.023904552,-0.426116678,0,0,0,,0,137,137,77,1,3,TL,vadility,cursive,vadility_c.png,,,,,,
,,,,32019,001,2025-10-17_14h47.03.348,HW_LDT_1,2024.2.4,MacIntel,59.88023952,,,,,,,,,,,,,,,,,,,,,953.0759,953.2738,953.2738,953.7728,,,,,,,,,,,,,,9.5367,1,,,,,,,,,,,,,,z,,,,,,,,,,,,,,,,139,0,953.7733,963.3234,z,1,9.5367,,[],[],[],[],[],[],[],963.3235,965.3226,965.3227,965.3229,[],[],[],[],[],[],[],,965.323,965.3231,-0.023904552,-0.426116678,0,0,0,,0,138,138,28,1,3,RL,rovastic,cursive,rovastic_c.png,,,,,,
,,,,32019,001,2025-10-17_14h47.03.348,HW_LDT_1,2024.2.4,MacIntel,59.88023952,,,,,,,,,,,,,,,,,,,,,965.3244,965.5227,965.5227,966.0233,,,,,,,,,,,,,,2.1149,1,,,,,,,,,,,,,,z,,,,,,,,,,,,,,,,140,0,966.0238,968.1398,z,1,2.1149,,[],[],[],[],[],[],[],968.1398,970.1397,970.1398,970.14,[],[],[],[],[],[],[],,970.1401,970.1403,-0.023904552,-0.426116678,0,0,0,,0,139,139,37,1,3,TL,cacapity,cursive,cacapity_c.png,,,,,,
,,,,32019,001,2025-10-17_14h47.03.348,HW_LDT_1,2024.2.4,MacIntel,59.88023952,,,,,,,,,,,,,,,,,,,,,970.1416,970.3398,970.3399,970.8398,,,,,,,,,,,,,,1.6538,1,,,,,,,,,,,,,,m,,,,,,,,,,,,,,,,141,0,970.8405,972.5061,m,1,1.6538,,[],[],[],[],[],[],[],972.5062,974.506,974.5061,974.5064,[],[],[],[],[],[],[],,974.5064,974.5065,-0.023904552,-0.426116678,0,0,0,,0,140,140,97,1,3,word,COVERAGE,print,coverage_p.png,,,,,,
,,,,32019,001,2025-10-17_14h47.03.348,HW_LDT_1,2024.2.4,MacIntel,59.88023952,,,,,,,,,,,,,,,,,,,,,974.5079,974.7064,974.7064,975.2064,,,,,,,,,,,,,,2.675,1,,,,,,,,,,,,,,z,,,,,,,,,,,,,,,,142,0,975.2069,977.8888,z,1,2.675,,[],[],[],[],[],[],[],977.889,979.8893,979.8893,979.8897,[],[],[],[],[],[],[],,979.8898,979.89,-0.023904552,-0.426116678,0,0,0,,0,141,141,73,1,3,TL,speficic,print,speficic_p.png,,,,,,
,,,,32019,001,2025-10-17_14h47.03.348,HW_LDT_1,2024.2.4,MacIntel,59.88023952,,,,,,,,,,,,,,,,,,,,,979.8912,980.0892,980.0892,980.5892,,,,,,,,,,,,,,0.9365,1,,,,,,,,,,,,,,m,,,,,,,,,,,,,,,,143,0,980.59,981.5393,m,1,0.9365,,[],[],[],[],[],[],[],981.5394,983.5391,983.5392,983.5394,[],[],[],[],[],[],[],,983.5394,983.5397,-0.023904552,-0.426116678,0,0,0,,0,142,142,119,1,3,word,MEMORY,print,memory_p.png,,,,,,
,,,,32019,001,2025-10-17_14h47.03.348,HW_LDT_1,2024.2.4,MacIntel,59.88023952,,,,,,,,,,,,,,,,,,,,,983.5408,983.7391,983.7392,984.2392,,,,,,,,,,,,,,1.6698,1,,,,,,,,,,,,,,z,,,,,,,,,,,,,,,,144,0,984.2398,985.9224,z,1,1.6698,,[],[],[],[],[],[],[],985.9225,987.9224,987.9225,987.9226,[],[],[],[],[],[],[],,987.9227,987.9228,-0.023904552,-0.426116678,0,0,0,,0,143,143,63,1,3,TL,racidal,cursive,racidal_c.png,,,,,,
,,,,32019,001,2025-10-17_14h47.03.348,HW_LDT_1,2024.2.4,MacIntel,59.88023952,,,,,,,,,,,,,,,,,,,,,987.9242,988.1225,988.1225,988.6224,,,,,,,,,,,,,,1.2199,1,,,,,,,,,,,,,,z,,,,,,,,,,,,,,,,145,0,988.6229,989.8556,z,1,1.2199,,[],[],[],[],[],[],[],989.8556,991.8556,991.8557,991.8559,[],[],[],[],[],[],[],,991.856,991.8561,-0.023904552,-0.426116678,0,0,0,,0,144,144,46,1,3,TL,distupe,print,distupe_p.png,,,,,,
,,,,32019,001,2025-10-17_14h47.03.348,HW_LDT_1,2024.2.4,MacIntel,59.88023952,,,,,,,,,,,,,,,,,,,,,991.8574,992.0555,992.0555,992.5553,,,,,,,,,,,,,,8.1195,1,,,,,,,,,,,,,,z,,,,,,,,,,,,,,,,146,0,992.5559,1000.6885,z,1,8.1195,,[],[],[],[],[],[],[],1000.6886,1002.6883,1002.6884,1002.6887,[],[],[],[],[],[],[],,1002.6887,1002.6889,-0.023904552,-0.426116678,0,0,0,,0,145,145,69,1,3,TL,redisent,cursive,redisent_c.png,,,,,,
,,,,32019,001,2025-10-17_14h47.03.348,HW_LDT_1,2024.2.4,MacIntel,59.88023952,,,,,,,,,,,,,,,,,,,,,1002.6904,1002.8884,1002.8884,1003.3883,,,,,,,,,,,,,,7.4698,1,,,,,,,,,,,,,,m,,,,,,,,,,,,,,,,147,1,1003.3888,1010.8714,m,1,7.4698,,[],[],[],[],[],[],[],1010.8716,1012.8713,1012.8714,1014.4712,[],[],[],[],[],[],[],z,1014.4712,1014.4713,-0.023904552,-0.426116678,0,0,0,,0,146,146,83,1,3,word,ANIMAL,cursive,animal_c.png,1.5876,,,,,
,,,,32019,001,2025-10-17_14h47.03.348,HW_LDT_1,2024.2.4,MacIntel,59.88023952,,,,,,,,,,,,,,,,,,,,,1014.4724,1014.6713,1014.6713,1015.1712,,,,,,,,,,,,,,1.1088,1,,,,,,,,,,,,,,z,,,,,,,,,,,,,,,,148,0,1015.172,1016.2879,z,1,1.1088,,[],[],[],[],[],[],[],1016.2879,1018.2879,1018.2879,1018.2882,[],[],[],[],[],[],[],,1018.2882,1018.2883,-0.023904552,-0.426116678,0,0,0,,0,147,147,18,1,3,RL,onegator,print,onegator_p.png,,,,,,
,,,,32019,001,2025-10-17_14h47.03.348,HW_LDT_1,2024.2.4,MacIntel,59.88023952,,,,,,,,,,,,,,,,,,,,,1018.2896,1018.4873,1018.4874,1018.9877,,,,,,,,,,,,,,5.9097,0,,,,,,,,,,,,,,m,,,,,,,,,,,,,,,,149,0,1018.9883,1024.9042,z,0,5.9097,,[],[],[],[],[],[],[],1024.9042,1026.9041,1026.9042,1026.9043,[],[],[],[],[],[],[],,1026.9043,1026.9045,-0.023904552,-0.426116678,0,0,0,,0,148,148,88,1,3,word,CAMERA,cursive,camera_c.png,,,,,,
,,,,32019,001,2025-10-17_14h47.03.348,HW_LDT_1,2024.2.4,MacIntel,59.88023952,,,,,,,,,,,,,,,,,,,,,1026.9059,1027.1041,1027.1041,1027.6041,,,,,,,,,,,,,,4.4927,1,,,,,,,,,,,,,,z,,,,,,,,,,,,,,,,150,0,1027.6046,1032.1039,z,1,4.4927,,[],[],[],[],[],[],[],1032.104,1034.1038,1034.1038,1034.104,[],[],[],[],[],[],[],,1034.104,1034.1042,-0.023904552,-0.426116678,0,0,0,,0,149,149,66,1,3,TL,retalive,cursive,retalive_c.png,,,,,,
,,,,32019,001,2025-10-17_14h47.03.348,HW_LDT_1,2024.2.4,MacIntel,59.88023952,,,,,,,,,,,,,,,,,,,,,1034.1055,1034.3035,1034.3036,1034.8029,,,,,,,,,,,,,,8.6206,1,,,,,,,,,,,,,,m,,,,,,,,,,,,,,,,151,0,1034.8035,1043.4367,m,1,8.6206,,[],[],[],[],[],[],[],1043.4368,1045.4367,1045.4368,1045.4369,[],[],[],[],[],[],[],,1045.4369,1045.4371,-0.023904552,-0.426116678,0,0,0,,0,150,150,144,1,3,word,RESIDENT,cursive,resident_c.png,,,,,,
,,,,32019,001,2025-10-17_14h47.03.348,HW_LDT_1,2024.2.4,MacIntel,59.88023952,,,,,,,,,,,,,,,,,,,,,1045.4383,1045.6366,1045.6367,1046.1366,,,,,,,,,,,,,,1.1914,1,,,,,,,,,,,,,,m,,,,,,,,,,,,,,,,152,0,1046.1371,1047.336,m,1,1.1914,,[],[],[],[],[],[],[],1047.3361,1049.3364,1049.3366,1049.3368,[],[],[],[],[],[],[],,1049.3368,1049.3369,-0.023904552,-0.426116678,0,0,0,,0,151,151,146,1,3,word,RETIRE,print,retire_p.png,,,,,,
,,,,32019,001,2025-10-17_14h47.03.348,HW_LDT_1,2024.2.4,MacIntel,59.88023952,,,,,,,,,,,,,,,,,,,,,1049.3381,1049.5366,1049.5367,1050.0365,,,,,,,,,,,,,,1.9043,1,,,,,,,,,,,,,,m,,,,,,,,,,,,,,,,153,0,1050.0371,1051.9532,m,1,1.9043,,[],[],[],[],[],[],[],1051.9533,1053.953,1053.953,1053.9532,[],[],[],[],[],[],[],,1053.9532,1053.9534,-0.023904552,-0.426116678,0,0,0,,0,152,152,152,1,3,word,SPECIMEN,print,specimen_p.png,,,,,,
,,,,32019,001,2025-10-17_14h47.03.348,HW_LDT_1,2024.2.4,MacIntel,59.88023952,,,,,,,,,,,,,,,,,,,,,1053.9545,1054.1523,1054.1524,1054.6528,,,,,,,,,,,,,,3.7786,1,,,,,,,,,,,,,,z,,,,,,,,,,,,,,,,154,0,1054.6534,1058.4356,z,1,3.7786,,[],[],[],[],[],[],[],1058.4357,1060.4361,1060.4362,1060.4364,[],[],[],[],[],[],[],,1060.4364,1060.4366,-0.023904552,-0.426116678,0,0,0,,0,153,153,29,1,3,RL,selamor,cursive,selamor_c.png,,,,,,
,,,,32019,001,2025-10-17_14h47.03.348,HW_LDT_1,2024.2.4,MacIntel,59.88023952,,,,,,,,,,,,,,,,,,,,,1060.4377,1060.6362,1060.6362,1061.1362,,,,,,,,,,,,,,3.4244,0,,,,,,,,,,,,,,m,,,,,,,,,,,,,,,,155,0,1061.1368,1064.5692,z,0,3.4244,,[],[],[],[],[],[],[],1064.5694,1066.5692,1066.5693,1066.5695,[],[],[],[],[],[],[],,1066.5696,1066.5697,-0.023904552,-0.426116678,0,0,0,,0,154,154,123,1,3,word,MODERATE,cursive,moderate_c.png,,,,,,
,,,,32019,001,2025-10-17_14h47.03.348,HW_LDT_1,2024.2.4,MacIntel,59.88023952,,,,,,,,,,,,,,,,,,,,,1066.5708,1066.7693,1066.7693,1067.2691,,,,,,,,,,,,,,6.6364,1,,,,,,,,,,,,,,z,,,,,,,,,,,,,,,,156,0,1067.2698,1073.9186,z,1,6.6364,,[],[],[],[],[],[],[],1073.9187,1075.9188,1075.9188,1075.919,[],[],[],[],[],[],[],,1075.9191,1075.9192,-0.023904552,-0.426116678,0,0,0,,0,155,155,20,1,3,RL,orimipal,cursive,orimipal_c.png,,,,,,
,,,,32019,001,2025-10-17_14h47.03.348,HW_LDT_1,2024.2.4,MacIntel,59.88023952,,,,,,,,,,,,,,,,,,,,,1075.9204,1076.1189,1076.1189,1076.6187,,,,,,,,,,,,,,1.0721,1,,,,,,,,,,,,,,m,,,,,,,,,,,,,,,,157,0,1076.6194,1077.7023,m,1,1.0721,,[],[],[],[],[],[],[],1077.7024,1079.7021,1079.7022,1079.7025,[],[],[],[],[],[],[],,1079.7026,1079.7026,-0.023904552,-0.426116678,0,0,0,,0,156,156,91,1,3,word,CARDINAL,print,cardinal_p.png,,,,,,
,,,,32019,001,2025-10-17_14h47.03.348,HW_LDT_1,2024.2.4,MacIntel,59.88023952,,,,,,,,,,,,,,,,,,,,,1079.7038,1079.9019,1079.902,1080.402,,,,,,,,,,,,,,3.6549,1,,,,,,,,,,,,,,z,,,,,,,,,,,,,,,,158,1,1080.4026,1084.0687,z,1,3.6549,,[],[],[],[],[],[],[],1084.0688,1086.0682,1086.0683,1087.735,[],[],[],[],[],[],[],z,1087.7352,1087.7353,-0.023904552,-0.426116678,0,0,0,,0,157,157,36,1,3,TL,carema,cursive,carema_c.png,1.6608,,,,,
,,,,32019,001,2025-10-17_14h47.03.348,HW_LDT_1,2024.2.4,MacIntel,59.88023952,,,,,,,,,,,,,,,,,,,,,1087.7362,1087.9349,1087.935,1088.4349,,,,,,,,,,,,,,0.9714,1,,,,,,,,,,,,,,z,,,,,,,,,,,,,,,,159,0,1088.4358,1089.4182,z,1,0.9714,,[],[],[],[],[],[],[],1089.4184,1091.4181,1091.4182,1091.4185,[],[],[],[],[],[],[],,1091.4186,1091.4187,-0.023904552,-0.426116678,0,0,0,,0,158,158,62,1,3,TL,prodive,print,prodive_p.png,,,,,,
,,,,32019,001,2025-10-17_14h47.03.348,HW_LDT_1,2024.2.4,MacIntel,59.88023952,,,,,,,,,,,,,,,,,,,,,1091.4202,1091.6182,1091.6183,1092.1181,,,,,,,,,,,,,,1.9575,1,,,,,,,,,,,,,,z,,,,,,,,,,,,,,,,160,0,1092.119,1094.0848,z,1,1.9575,,[],[],[],[],[],[],[],1094.0849,1096.0846,1096.0847,1096.085,[],[],[],[],[],[],[],,1096.085,1096.0852,-0.023904552,-0.426116678,0,0,0,,0,159,159,27,1,3,RL,recile,print,recile_p.png,,,,,,
,,,,32019,001,2025-10-17_14h47.03.348,HW_LDT_1,2024.2.4,MacIntel,59.88023952,,,,,,,,,,,,,,,,,,,,,,,,,,,,,,,,,,,,,,,,,,,,,,,,,,,,,,,,,,,,,,,,,,,,,,,,,,,,,,,,,,,,,,,,,,,,,,,,,,,,,,,,,,,,,,,,,,,,,,1096.0923,1101.0849
