counterbalance_lists.group,counterbalance_lists.remaining,get_list.started,get_list.stopped,participant,session,date,expName,psychopyVersion,OS,frameRate,Instructions.started,Instructions.stopped,key_resp.keys,key_resp.rt,key_resp.duration,instr_done_touch.x,instr_done_touch.y,instr_done_touch.leftButton,instr_done_touch.midButton,instr_done_touch.rightButton,instr_done_touch.clicked_name,start_instr.thisRepN,start_instr.thisTrialN,start_instr.thisN,start_instr.thisIndex,start_instr.ran,pageN,phase,instruct_text,has_image,instruct_image,showProgress.started,showProgress.stopped,fix.started,fix.stopped,prac.started,prac.stopped,response.keys,response.corr,response.rt,response.duration,touch_resp.x,touch_resp.y,touch_resp.leftButton,touch_resp.midButton,touch_resp.rightButton,touch_resp.time,touch_resp.clicked_name,rt,corr,feedback.started,feedback.stopped,trials.thisRepN,trials.thisTrialN,trials.thisN,trials.thisIndex,trials.ran,TrialID,StimulusType,Condition,PrimeDuration,Prime,Target,corrAns,Instructions_expt.started,Instructions_expt.stopped,key_resp_3.keys,key_resp_3.rt,key_resp_3.duration,instr_done_touch_3.x,instr_done_touch_3.y,instr_done_touch_3.leftButton,instr_done_touch_3.midButton,instr_done_touch_3.rightButton,instr_experiment.thisRepN,instr_experiment.thisTrialN,instr_experiment.thisN,instr_experiment.thisIndex,instr_experiment.ran,trialID,flag,maintask.started,maintask.stopped,key_resp_2.keys,key_resp_2.corr,key_resp_2.rt,key_resp_2.duration,targ_click.x,targ_click.y,targ_click.leftButton,targ_click.midButton,targ_click.rightButton,targ_click.time,targ_click.clicked_name,ITI.started,ITI.stopped,probe.started,probe.stopped,click_probe.x,click_probe.y,click_probe.leftButton,click_probe.midButton,click_probe.rightButton,click_probe.time,click_probe.clicked_name,key_resp_probe.keys,Break.started,Break.stopped,break_done_touch.x,break_done_touch.y,break_done_touch.leftButton,break_done_touch.midButton,break_done_touch.rightButton,break_done_keyboard.keys,list2_trials.thisRepN,list2_trials.thisTrialN,list2_trials.thisN,list2_trials.thisIndex,list2_trials.ran,list_id,item_type,string,font,stim_file,key_resp_probe.rt,key_resp_probe.duration,break_done_keyboard.rt,break_done_keyboard.duration,End.started,End.stopped
list2,,0.3987,0.3989,32014,001,2025-11-24_00h28.18.062,HW_LDT_1,2024.2.4,MacIntel,62.11180124,,,,,,,,,,,,,,,,,,,,,,,,,,,,,,,,,,,,,,,,,,,,,,,,,,,,,,,,,,,,,,,,,,,,,,,,,,,,,,,,,,,,,,,,,,,,,,,,,,,,,,,,,,,,,,,,,,,,,,,,
,,,,32014,001,2025-11-24_00h28.18.062,HW_LDT_1,2024.2.4,MacIntel,62.11180124,0.4131,423.868,space,423.4335,,0.255303819,-0.108428819,0,0,0,,0,0,0,0,1,1,instructions,"INSTRUCTIONS
At the start of each trial, look at the plus sign  (+) in the center of the screen.  This tells you that a trial is about to begin and where to look. Second, the plus sign will disappear and a string of letters will appear. Your task is to determine if the string of letters is a word or not. If the item is a word press the M key (on keyboard)  or touch the word button (phone/tablet).  If the item is not a word,  press the  Z key (on keyboard)  or touch the nonword button (on phone/tablet). The items will be presented for a short time. 
Press the space bar or touch  continue.",0,,,,,,,,,,,,,,,,,,,,,,,,,,,,,,,,,,,,,,,,,,,,,,,,,,,,,,,,,,,,,,,,,,,,,,,,,,,,,,,,,,,,,,,,,,,,,,,,,,,,
,,,,32014,001,2025-11-24_00h28.18.062,HW_LDT_1,2024.2.4,MacIntel,62.11180124,423.8735,429.1006,space,5.1916,,-0.002769097,-0.143706597,0,0,0,,0,1,1,1,1,2,instructions,"If your device has a keyboard, press the 'Z' key for nonwords and the 'M' key for words.





Press the space bar or touch the button below to continue.",0,keyboard-example.gif,,,,,,,,,,,,,,,,,,,,,,,,,,,,,,,,,,,,,,,,,,,,,,,,,,,,,,,,,,,,,,,,,,,,,,,,,,,,,,,,,,,,,,,,,,,,,,,,,,,
,,,,32014,001,2025-11-24_00h28.18.062,HW_LDT_1,2024.2.4,MacIntel,62.11180124,429.102,434.0174,space,4.8952,,-0.002769097,-0.143706597,0,0,0,,0,2,2,2,1,3,instructions,"If you are using a touchscreen only device, use the buttons on the screen. Do not use the mouse.





Press the space bar or touch the button below to continue.",0,touchscreen-example.gif,,,,,,,,,,,,,,,,,,,,,,,,,,,,,,,,,,,,,,,,,,,,,,,,,,,,,,,,,,,,,,,,,,,,,,,,,,,,,,,,,,,,,,,,,,,,,,,,,,,
,,,,32014,001,2025-11-24_00h28.18.062,HW_LDT_1,2024.2.4,MacIntel,62.11180124,434.0192,454.518,space,20.4722,,-0.002769097,-0.143706597,0,0,0,,0,3,3,3,1,4,instructions,"It is very important that you respond as quickly and accurately as possible, as each letter string will only be on the screen for two seconds. If you do not respond within this time, the message 'Too slow!' will be displayed and the experiment will progress to the next letter string. The first 20 trials will be practice trials and you will receive feedback on your answers. 

Press the space bar or touch the button below to start the practice trials.",0,,,,,,,,,,,,,,,,,,,,,,,,,,,,,,,,,,,,,,,,,,,,,,,,,,,,,,,,,,,,,,,,,,,,,,,,,,,,,,,,,,,,,,,,,,,,,,,,,,,,
,,,,32014,001,2025-11-24_00h28.18.062,HW_LDT_1,2024.2.4,MacIntel,62.11180124,,,,,,,,,,,,,,,,,,,,,,454.5553,454.718,454.7182,455.2179,455.2182,457.635,m,0,2.3854,,[],[],[],[],[],[],[],2.3854,0,457.6352,458.134,0,0,0,8,1,1009,NW,"ID",33,aslert,ASLERT,z,,,,,,,,,,,,,,,,,,,,,,,,,,,,,,,,,,,,,,,,,,,,,,,,,,,,,,,,,,,,,,,,,,
,,,,32014,001,2025-11-24_00h28.18.062,HW_LDT_1,2024.2.4,MacIntel,62.11180124,,,,,,,,,,,,,,,,,,,,,,458.135,458.3346,458.3346,458.8343,458.8345,461.1178,m,1,2.2667,,[],[],[],[],[],[],[],2.2667,1,461.1184,461.6181,0,1,1,1,1,1002,WORD,"ID",33,adjust,ADJUST,m,,,,,,,,,,,,,,,,,,,,,,,,,,,,,,,,,,,,,,,,,,,,,,,,,,,,,,,,,,,,,,,,,,
,,,,32014,001,2025-11-24_00h28.18.062,HW_LDT_1,2024.2.4,MacIntel,62.11180124,,,,,,,,,,,,,,,,,,,,,,461.6192,461.817,461.8171,462.3172,462.318,464.6839,z,1,2.3457,,[],[],[],[],[],[],[],2.3457,1,464.684,465.1848,0,2,2,9,1,1010,NW,"ID",33,fariny,FARINY,z,,,,,,,,,,,,,,,,,,,,,,,,,,,,,,,,,,,,,,,,,,,,,,,,,,,,,,,,,,,,,,,,,,
,,,,32014,001,2025-11-24_00h28.18.062,HW_LDT_1,2024.2.4,MacIntel,62.11180124,,,,,,,,,,,,,,,,,,,,,,465.1858,465.3847,465.3848,465.8848,465.8856,466.6674,m,1,0.7638,,[],[],[],[],[],[],[],0.7638,1,466.6676,467.1682,0,3,3,4,1,1005,WORD,UN,33,abound,SQUEAK,m,,,,,,,,,,,,,,,,,,,,,,,,,,,,,,,,,,,,,,,,,,,,,,,,,,,,,,,,,,,,,,,,,,
,,,,32014,001,2025-11-24_00h28.18.062,HW_LDT_1,2024.2.4,MacIntel,62.11180124,,,,,,,,,,,,,,,,,,,,,,467.1695,467.3672,467.3672,467.8681,467.8689,468.9682,z,1,1.0906,,[],[],[],[],[],[],[],1.0906,1,468.9683,469.4682,0,4,4,14,1,1015,NW,UN,16,miaber,THRALE,z,,,,,,,,,,,,,,,,,,,,,,,,,,,,,,,,,,,,,,,,,,,,,,,,,,,,,,,,,,,,,,,,,,
,,,,32014,001,2025-11-24_00h28.18.062,HW_LDT_1,2024.2.4,MacIntel,62.11180124,,,,,,,,,,,,,,,,,,,,,,469.4693,469.6683,469.6683,470.1673,470.168,470.8849,m,1,0.7081,,[],[],[],[],[],[],[],0.7081,1,470.8851,471.3846,0,5,5,6,1,1007,WORD,UN,16,tropic,ZOMBIE,m,,,,,,,,,,,,,,,,,,,,,,,,,,,,,,,,,,,,,,,,,,,,,,,,,,,,,,,,,,,,,,,,,,
,,,,32014,001,2025-11-24_00h28.18.062,HW_LDT_1,2024.2.4,MacIntel,62.11180124,,,,,,,,,,,,,,,,,,,,,,471.3856,471.584,471.5841,472.084,472.0849,472.6183,m,1,0.5239,,[],[],[],[],[],[],[],0.5239,1,472.6184,473.1184,0,6,6,7,1,1008,WORD,UN,16,hurdle,VOLUME,m,,,,,,,,,,,,,,,,,,,,,,,,,,,,,,,,,,,,,,,,,,,,,,,,,,,,,,,,,,,,,,,,,,
,,,,32014,001,2025-11-24_00h28.18.062,HW_LDT_1,2024.2.4,MacIntel,62.11180124,,,,,,,,,,,,,,,,,,,,,,473.1194,473.3183,473.3183,473.8178,473.8185,474.8517,z,1,1.0252,,[],[],[],[],[],[],[],1.0252,1,474.8518,475.351,0,7,7,13,1,1014,NW,UN,33,winfer,ROUPET,z,,,,,,,,,,,,,,,,,,,,,,,,,,,,,,,,,,,,,,,,,,,,,,,,,,,,,,,,,,,,,,,,,,
,,,,32014,001,2025-11-24_00h28.18.062,HW_LDT_1,2024.2.4,MacIntel,62.11180124,,,,,,,,,,,,,,,,,,,,,,475.3521,475.5517,475.5518,476.0517,476.0523,477.1519,z,1,1.08,,[],[],[],[],[],[],[],1.08,1,477.152,477.6518,0,8,8,15,1,1016,NW,UN,16,mushed,WHAISE,z,,,,,,,,,,,,,,,,,,,,,,,,,,,,,,,,,,,,,,,,,,,,,,,,,,,,,,,,,,,,,,,,,,
,,,,32014,001,2025-11-24_00h28.18.062,HW_LDT_1,2024.2.4,MacIntel,62.11180124,,,,,,,,,,,,,,,,,,,,,,477.6528,477.8519,477.852,478.352,478.3526,478.9852,m,1,0.6222,,[],[],[],[],[],[],[],0.6222,1,478.9853,479.4855,0,9,9,3,1,1004,WORD,"ID",16,matrix,MATRIX,m,,,,,,,,,,,,,,,,,,,,,,,,,,,,,,,,,,,,,,,,,,,,,,,,,,,,,,,,,,,,,,,,,,
,,,,32014,001,2025-11-24_00h28.18.062,HW_LDT_1,2024.2.4,MacIntel,62.11180124,,,,,,,,,,,,,,,,,,,,,,479.4867,479.6852,479.6852,480.1852,480.186,480.7352,m,1,0.5298,,[],[],[],[],[],[],[],0.5298,1,480.7353,481.2344,0,10,10,0,1,1001,WORD,"ID",33,utopia,UTOPIA,m,,,,,,,,,,,,,,,,,,,,,,,,,,,,,,,,,,,,,,,,,,,,,,,,,,,,,,,,,,,,,,,,,,
,,,,32014,001,2025-11-24_00h28.18.062,HW_LDT_1,2024.2.4,MacIntel,62.11180124,,,,,,,,,,,,,,,,,,,,,,481.2354,481.4349,481.4349,481.9353,481.9359,482.4512,m,1,0.505,,[],[],[],[],[],[],[],0.505,1,482.4513,482.9519,0,11,11,2,1,1003,WORD,"ID",16,almond,ALMOND,m,,,,,,,,,,,,,,,,,,,,,,,,,,,,,,,,,,,,,,,,,,,,,,,,,,,,,,,,,,,,,,,,,,
,,,,32014,001,2025-11-24_00h28.18.062,HW_LDT_1,2024.2.4,MacIntel,62.11180124,,,,,,,,,,,,,,,,,,,,,,482.9533,483.1519,483.152,483.6521,483.6526,484.7354,z,1,1.073,,[],[],[],[],[],[],[],1.073,1,484.7354,485.2354,0,12,12,10,1,1011,NW,"ID",16,inlade,INLADE,z,,,,,,,,,,,,,,,,,,,,,,,,,,,,,,,,,,,,,,,,,,,,,,,,,,,,,,,,,,,,,,,,,,
,,,,32014,001,2025-11-24_00h28.18.062,HW_LDT_1,2024.2.4,MacIntel,62.11180124,,,,,,,,,,,,,,,,,,,,,,485.2364,485.4344,485.4344,485.935,485.9356,486.8519,z,1,0.8969,,[],[],[],[],[],[],[],0.8969,1,486.852,487.3522,0,13,13,11,1,1012,NW,"ID",16,rashet,RASHET,z,,,,,,,,,,,,,,,,,,,,,,,,,,,,,,,,,,,,,,,,,,,,,,,,,,,,,,,,,,,,,,,,,,
,,,,32014,001,2025-11-24_00h28.18.062,HW_LDT_1,2024.2.4,MacIntel,62.11180124,,,,,,,,,,,,,,,,,,,,,,487.353,487.5518,487.5518,488.0521,488.0528,488.6012,m,1,0.5401,,[],[],[],[],[],[],[],0.5401,1,488.6013,489.1021,0,14,14,5,1,1006,WORD,UN,33,frenzy,OBTAIN,m,,,,,,,,,,,,,,,,,,,,,,,,,,,,,,,,,,,,,,,,,,,,,,,,,,,,,,,,,,,,,,,,,,
,,,,32014,001,2025-11-24_00h28.18.062,HW_LDT_1,2024.2.4,MacIntel,62.11180124,,,,,,,,,,,,,,,,,,,,,,489.103,489.3022,489.3022,489.8022,489.8029,490.668,z,1,0.8469,,[],[],[],[],[],[],[],0.8469,1,490.6681,491.1689,0,15,15,12,1,1013,NW,UN,33,adveil,SPRINY,z,,,,,,,,,,,,,,,,,,,,,,,,,,,,,,,,,,,,,,,,,,,,,,,,,,,,,,,,,,,,,,,,,,
,,,,32014,001,2025-11-24_00h28.18.062,HW_LDT_1,2024.2.4,MacIntel,62.11180124,,,,,,,,,,,,,,,,,1,end_of_practice,"You have completed the practice trials. During the experimental trials, you will not receive feedback. On some trials you will be asked to report whether the item you just saw was in cursive or print. 
Before you begin, please ensure that you are in a comfortable and quiet location and will not be disturbed for about 15 minutes, as we cannot use your data if you do not complete all the trials. 
 When you are ready to start the experimental trials, please press space or touch the button below.",,,,,,,,,,,,,,,,,,,,,,,,,,,,,,,,,,,,491.1744,560.7385,space,69.5398,,0.036210937,-0.259743924,0,0,0,0,0,0,0,1,,,,,,,,,,,,,,,,,,,,,,,,,,,,,,,,,,,,,,,,,,,,,,,,,,,
,,,,32014,001,2025-11-24_00h28.18.062,HW_LDT_1,2024.2.4,MacIntel,62.11180124,,,,,,,,,,,,,,,,,,,,,,560.7516,560.9376,560.9377,561.4376,,,,,,,,,,,,,,0.968,0,,,,,,,,,,,,,,m,,,,,,,,,,,,,,,,1,0,561.4388,562.4214,z,0,0.968,,[],[],[],[],[],[],[],562.4216,564.4203,564.4205,564.4226,[],[],[],[],[],[],[],,564.4227,564.4246,0.036210937,-0.259743924,0,0,0,,0,0,0,121,1,2,word,MISTAKE,cursive,mistake_c.png,,,,,,
,,,,32014,001,2025-11-24_00h28.18.062,HW_LDT_1,2024.2.4,MacIntel,62.11180124,,,,,,,,,,,,,,,,,,,,,,564.4255,564.6211,564.6211,565.1208,,,,,,,,,,,,,,0.896,1,,,,,,,,,,,,,,m,,,,,,,,,,,,,,,,2,0,565.1213,566.0212,m,1,0.896,,[],[],[],[],[],[],[],566.0214,568.0213,568.0213,568.0214,[],[],[],[],[],[],[],,568.0214,568.0215,0.036210937,-0.259743924,0,0,0,,0,1,1,149,1,2,word,SENATOR,print,senator_p.png,,,,,,
,,,,32014,001,2025-11-24_00h28.18.062,HW_LDT_1,2024.2.4,MacIntel,62.11180124,,,,,,,,,,,,,,,,,,,,,,568.0224,568.2212,568.2213,568.7213,,,,,,,,,,,,,,0.7865,1,,,,,,,,,,,,,,m,,,,,,,,,,,,,,,,3,0,568.7218,569.5213,m,1,0.7865,,[],[],[],[],[],[],[],569.5214,571.5214,571.5215,571.5216,[],[],[],[],[],[],[],,571.5217,571.5217,0.036210937,-0.259743924,0,0,0,,0,2,2,94,1,2,word,CLINICAL,cursive,clinical_c.png,,,,,,
,,,,32014,001,2025-11-24_00h28.18.062,HW_LDT_1,2024.2.4,MacIntel,62.11180124,,,,,,,,,,,,,,,,,,,,,,571.5225,571.7214,571.7214,572.2213,,,,,,,,,,,,,,0.7697,1,,,,,,,,,,,,,,z,,,,,,,,,,,,,,,,4,0,572.2218,573.0049,z,1,0.7697,,[],[],[],[],[],[],[],573.0049,575.0048,575.0048,575.0049,[],[],[],[],[],[],[],,575.005,575.005,0.036210937,-0.259743924,0,0,0,,0,3,3,2,1,2,RL,casagity,print,casagity_p.png,,,,,,
,,,,32014,001,2025-11-24_00h28.18.062,HW_LDT_1,2024.2.4,MacIntel,62.11180124,,,,,,,,,,,,,,,,,,,,,,575.0058,575.2047,575.2048,575.7047,,,,,,,,,,,,,,1.0307,1,,,,,,,,,,,,,,z,,,,,,,,,,,,,,,,5,0,575.7053,576.738,z,1,1.0307,,[],[],[],[],[],[],[],576.7381,578.7373,578.7373,578.7375,[],[],[],[],[],[],[],,578.7375,578.7376,0.036210937,-0.259743924,0,0,0,,0,4,4,11,1,2,RL,formuke,print,formuke_p.png,,,,,,
,,,,32014,001,2025-11-24_00h28.18.062,HW_LDT_1,2024.2.4,MacIntel,62.11180124,,,,,,,,,,,,,,,,,,,,,,578.7384,578.9373,578.9373,579.4373,,,,,,,,,,,,,,0.7065,1,,,,,,,,,,,,,,m,,,,,,,,,,,,,,,,6,0,579.4382,580.1539,m,1,0.7065,,[],[],[],[],[],[],[],580.1541,582.155,582.155,582.1552,[],[],[],[],[],[],[],,582.1553,582.1554,0.036210937,-0.259743924,0,0,0,,0,5,5,159,1,2,word,VETERAN,print,veteran_p.png,,,,,,
,,,,32014,001,2025-11-24_00h28.18.062,HW_LDT_1,2024.2.4,MacIntel,62.11180124,,,,,,,,,,,,,,,,,,,,,,582.1564,582.355,582.3551,582.8551,,,,,,,,,,,,,,0.7642,1,,,,,,,,,,,,,,z,,,,,,,,,,,,,,,,7,0,582.8556,583.6217,z,1,0.7642,,[],[],[],[],[],[],[],583.6218,585.6217,585.6218,585.622,[],[],[],[],[],[],[],,585.622,585.6221,0.036210937,-0.259743924,0,0,0,,0,6,6,14,1,2,RL,insibate,cursive,insibate_c.png,,,,,,
,,,,32014,001,2025-11-24_00h28.18.062,HW_LDT_1,2024.2.4,MacIntel,62.11180124,,,,,,,,,,,,,,,,,,,,,,585.623,585.8218,585.8218,586.3217,,,,,,,,,,,,,,0.6311,1,,,,,,,,,,,,,,m,,,,,,,,,,,,,,,,8,0,586.3221,586.9551,m,1,0.6311,,[],[],[],[],[],[],[],586.9551,588.9552,588.9553,588.9555,[],[],[],[],[],[],[],,588.9555,588.9556,0.036210937,-0.259743924,0,0,0,,0,7,7,101,1,2,word,DELICATE,print,delicate_p.png,,,,,,
,,,,32014,001,2025-11-24_00h28.18.062,HW_LDT_1,2024.2.4,MacIntel,62.11180124,,,,,,,,,,,,,,,,,,,,,,588.9563,589.1551,589.1551,589.6551,,,,,,,,,,,,,,0.6658,0,,,,,,,,,,,,,,m,,,,,,,,,,,,,,,,9,0,589.6555,590.3221,z,0,0.6658,,[],[],[],[],[],[],[],590.3221,592.3219,592.3219,592.3221,[],[],[],[],[],[],[],,592.3221,592.3222,0.036210937,-0.259743924,0,0,0,,0,8,8,133,1,2,word,PROVIDE,cursive,provide_c.png,,,,,,
,,,,32014,001,2025-11-24_00h28.18.062,HW_LDT_1,2024.2.4,MacIntel,62.11180124,,,,,,,,,,,,,,,,,,,,,,592.323,592.5219,592.5219,593.022,,,,,,,,,,,,,,0.6697,0,,,,,,,,,,,,,,m,,,,,,,,,,,,,,,,10,0,593.0227,593.7054,z,0,0.6697,,[],[],[],[],[],[],[],593.7055,595.7055,595.7056,595.7059,[],[],[],[],[],[],[],,595.7059,595.7061,0.036210937,-0.259743924,0,0,0,,0,9,9,86,1,2,word,BESIDE,cursive,beside_c.png,,,,,,
,,,,32014,001,2025-11-24_00h28.18.062,HW_LDT_1,2024.2.4,MacIntel,62.11180124,,,,,,,,,,,,,,,,,,,,,,595.7074,595.9054,595.9055,596.4044,,,,,,,,,,,,,,0.8489,1,,,,,,,,,,,,,,z,,,,,,,,,,,,,,,,11,0,596.4049,597.2554,z,1,0.8489,,[],[],[],[],[],[],[],597.2555,599.2545,599.2545,599.2549,[],[],[],[],[],[],[],,599.2549,599.2552,0.036210937,-0.259743924,0,0,0,,0,10,10,6,1,2,RL,conbicer,print,conbicer_p.png,,,,,,
,,,,32014,001,2025-11-24_00h28.18.062,HW_LDT_1,2024.2.4,MacIntel,62.11180124,,,,,,,,,,,,,,,,,,,,,,599.2563,599.4554,599.4555,599.9555,,,,,,,,,,,,,,1.7149,1,,,,,,,,,,,,,,z,,,,,,,,,,,,,,,,12,0,599.9559,601.6716,z,1,1.7149,,[],[],[],[],[],[],[],601.6717,603.6711,603.6712,603.6713,[],[],[],[],[],[],[],,603.6713,603.6714,0.036210937,-0.259743924,0,0,0,,0,11,11,75,1,2,TL,ronamtic,print,ronamtic_p.png,,,,,,
,,,,32014,001,2025-11-24_00h28.18.062,HW_LDT_1,2024.2.4,MacIntel,62.11180124,,,,,,,,,,,,,,,,,,,,,,603.6724,603.8721,603.8721,604.3721,,,,,,,,,,,,,,1.1983,1,,,,,,,,,,,,,,m,,,,,,,,,,,,,,,,13,0,604.3724,605.5721,m,1,1.1983,,[],[],[],[],[],[],[],605.5722,607.5722,607.5723,607.5725,[],[],[],[],[],[],[],,607.5725,607.5726,0.036210937,-0.259743924,0,0,0,,0,12,12,116,1,2,word,MARGINAL,cursive,marginal_c.png,,,,,,
,,,,32014,001,2025-11-24_00h28.18.062,HW_LDT_1,2024.2.4,MacIntel,62.11180124,,,,,,,,,,,,,,,,,,,,,,607.5737,607.7726,607.7726,608.2723,,,,,,,,,,,,,,0.8368,0,,,,,,,,,,,,,,z,,,,,,,,,,,,,,,,14,0,608.2729,609.1214,m,0,0.8368,,[],[],[],[],[],[],[],609.1216,611.1224,611.1225,611.123,[],[],[],[],[],[],[],,611.123,611.1231,0.036210937,-0.259743924,0,0,0,,0,13,13,47,1,2,TL,crinimal,cursive,crinimal_c.png,,,,,,
,,,,32014,001,2025-11-24_00h28.18.062,HW_LDT_1,2024.2.4,MacIntel,62.11180124,,,,,,,,,,,,,,,,,,,,,,611.1242,611.3224,611.3225,611.8225,,,,,,,,,,,,,,2.0078,1,,,,,,,,,,,,,,z,,,,,,,,,,,,,,,,15,1,611.823,613.8383,z,1,2.0078,,[],[],[],[],[],[],[],613.8383,615.8393,615.8394,619.0393,[],[],[],[],[],[],[],z,619.0394,619.0395,0.036210937,-0.259743924,0,0,0,,0,14,14,38,1,2,TL,atameur,cursive,atameur_c.png,3.1897,,,,,
,,,,32014,001,2025-11-24_00h28.18.062,HW_LDT_1,2024.2.4,MacIntel,62.11180124,,,,,,,,,,,,,,,,,,,,,,619.0403,619.2392,619.2392,619.7392,,,,,,,,,,,,,,1.1238,1,,,,,,,,,,,,,,m,,,,,,,,,,,,,,,,16,0,619.7396,620.8727,m,1,1.1238,,[],[],[],[],[],[],[],620.8728,622.8728,622.8728,622.8731,[],[],[],[],[],[],[],,622.8732,622.8733,0.036210937,-0.259743924,0,0,0,,0,15,15,137,1,2,word,RAPIDLY,print,rapidly_p.png,,,,,,
,,,,32014,001,2025-11-24_00h28.18.062,HW_LDT_1,2024.2.4,MacIntel,62.11180124,,,,,,,,,,,,,,,,,,,,,,622.8744,623.0717,623.0718,623.5728,,,,,,,,,,,,,,1.0867,1,,,,,,,,,,,,,,z,,,,,,,,,,,,,,,,17,0,623.5734,624.6731,z,1,1.0867,,[],[],[],[],[],[],[],624.6732,626.6718,626.6718,626.6719,[],[],[],[],[],[],[],,626.672,626.672,0.036210937,-0.259743924,0,0,0,,0,16,16,10,1,2,RL,disluge,cursive,disluge_c.png,,,,,,
,,,,32014,001,2025-11-24_00h28.18.062,HW_LDT_1,2024.2.4,MacIntel,62.11180124,,,,,,,,,,,,,,,,,,,,,,626.673,626.8727,626.8727,627.3728,,,,,,,,,,,,,,1.0856,1,,,,,,,,,,,,,,z,,,,,,,,,,,,,,,,18,0,627.3735,628.472,z,1,1.0856,,[],[],[],[],[],[],[],628.4721,630.4728,630.473,630.473,[],[],[],[],[],[],[],,630.473,630.4731,0.036210937,-0.259743924,0,0,0,,0,17,17,31,1,2,RL,spetisic,print,spetisic_p.png,,,,,,
,,,,32014,001,2025-11-24_00h28.18.062,HW_LDT_1,2024.2.4,MacIntel,62.11180124,,,,,,,,,,,,,,,,,,,,,,630.4739,630.6729,630.6729,631.173,,,,,,,,,,,,,,0.5899,1,,,,,,,,,,,,,,m,,,,,,,,,,,,,,,,19,0,631.1735,631.7731,m,1,0.5899,,[],[],[],[],[],[],[],631.7732,633.772,633.772,633.7722,[],[],[],[],[],[],[],,633.7722,633.7723,0.036210937,-0.259743924,0,0,0,,0,18,18,99,1,2,word,DEBATE,print,debate_p.png,,,,,,
,,,,32014,001,2025-11-24_00h28.18.062,HW_LDT_1,2024.2.4,MacIntel,62.11180124,,,,,,,,,,,,,,,,,,,,,,633.7732,633.973,633.973,634.4731,,,,,,,,,,,,,,0.7524,1,,,,,,,,,,,,,,z,,,,,,,,,,,,,,,,20,0,634.4736,635.2398,z,1,0.7524,,[],[],[],[],[],[],[],635.24,637.2398,637.2399,637.24,[],[],[],[],[],[],[],,637.2402,637.2402,0.036210937,-0.259743924,0,0,0,,0,19,19,19,1,2,RL,monebate,cursive,monebate_c.png,,,,,,
,,,,32014,001,2025-11-24_00h28.18.062,HW_LDT_1,2024.2.4,MacIntel,62.11180124,,,,,,,,,,,,,,,,,,,,,,637.2414,637.4397,637.4397,637.9398,,,,,,,,,,,,,,1.269,1,,,,,,,,,,,,,,m,,,,,,,,,,,,,,,,21,0,637.9404,639.2232,m,1,1.269,,[],[],[],[],[],[],[],639.2232,641.2222,641.2222,641.2223,[],[],[],[],[],[],[],,641.2223,641.2224,0.036210937,-0.259743924,0,0,0,,0,20,20,97,1,2,word,COVERAGE,cursive,coverage_c.png,,,,,,
,,,,32014,001,2025-11-24_00h28.18.062,HW_LDT_1,2024.2.4,MacIntel,62.11180124,,,,,,,,,,,,,,,,,,,,,,641.2233,641.4231,641.4231,641.9222,,,,,,,,,,,,,,0.6223,1,,,,,,,,,,,,,,m,,,,,,,,,,,,,,,,22,0,641.9225,642.5565,m,1,0.6223,,[],[],[],[],[],[],[],642.5565,644.5566,644.5567,644.5569,[],[],[],[],[],[],[],,644.5569,644.5571,0.036210937,-0.259743924,0,0,0,,0,21,21,118,1,2,word,MEDICINE,print,medicine_p.png,,,,,,
,,,,32014,001,2025-11-24_00h28.18.062,HW_LDT_1,2024.2.4,MacIntel,62.11180124,,,,,,,,,,,,,,,,,,,,,,644.5581,644.7565,644.7566,645.2566,,,,,,,,,,,,,,1.2075,1,,,,,,,,,,,,,,z,,,,,,,,,,,,,,,,23,0,645.2572,646.4734,z,1,1.2075,,[],[],[],[],[],[],[],646.4734,648.4732,648.4733,648.4734,[],[],[],[],[],[],[],,648.4735,648.4735,0.036210937,-0.259743924,0,0,0,,0,22,22,72,1,2,TL,revomal,print,revomal_p.png,,,,,,
,,,,32014,001,2025-11-24_00h28.18.062,HW_LDT_1,2024.2.4,MacIntel,62.11180124,,,,,,,,,,,,,,,,,,,,,,648.4743,648.6733,648.6734,649.1724,,,,,,,,,,,,,,0.6823,1,,,,,,,,,,,,,,m,,,,,,,,,,,,,,,,24,0,649.1727,649.8567,m,1,0.6823,,[],[],[],[],[],[],[],649.8567,651.8559,651.856,651.8562,[],[],[],[],[],[],[],,651.8562,651.8565,0.036210937,-0.259743924,0,0,0,,0,23,23,151,1,2,word,SPECIFIC,print,specific_p.png,,,,,,
,,,,32014,001,2025-11-24_00h28.18.062,HW_LDT_1,2024.2.4,MacIntel,62.11180124,,,,,,,,,,,,,,,,,,,,,,651.8578,652.0558,652.0558,652.5568,,,,,,,,,,,,,,2.1377,1,,,,,,,,,,,,,,m,,,,,,,,,,,,,,,,25,0,652.5572,654.707,m,1,2.1377,,[],[],[],[],[],[],[],654.7073,656.7069,656.707,656.7071,[],[],[],[],[],[],[],,656.7071,656.7071,0.036210937,-0.259743924,0,0,0,,0,24,24,155,1,2,word,STRATEGY,cursive,strategy_c.png,,,,,,
,,,,32014,001,2025-11-24_00h28.18.062,HW_LDT_1,2024.2.4,MacIntel,62.11180124,,,,,,,,,,,,,,,,,,,,,,656.708,656.9069,656.907,657.406,,,,,,,,,,,,,,1.6549,1,,,,,,,,,,,,,,z,,,,,,,,,,,,,,,,26,0,657.4063,659.0727,z,1,1.6549,,[],[],[],[],[],[],[],659.0728,661.0738,661.0738,661.0741,[],[],[],[],[],[],[],,661.0741,661.0742,0.036210937,-0.259743924,0,0,0,,0,25,25,37,1,2,TL,adacemy,cursive,adacemy_c.png,,,,,,
,,,,32014,001,2025-11-24_00h28.18.062,HW_LDT_1,2024.2.4,MacIntel,62.11180124,,,,,,,,,,,,,,,,,,,,,,661.0756,661.2738,661.2738,661.7728,,,,,,,,,,,,,,0.9213,1,,,,,,,,,,,,,,z,,,,,,,,,,,,,,,,27,0,661.7734,662.7061,z,1,0.9213,,[],[],[],[],[],[],[],662.7063,664.7073,664.7074,664.7077,[],[],[],[],[],[],[],,664.7077,664.7078,0.036210937,-0.259743924,0,0,0,,0,26,26,0,1,2,RL,adnicory,print,adnicory_p.png,,,,,,
,,,,32014,001,2025-11-24_00h28.18.062,HW_LDT_1,2024.2.4,MacIntel,62.11180124,,,,,,,,,,,,,,,,,,,,,,664.7091,664.9072,664.9073,665.4072,,,,,,,,,,,,,,1.4133,1,,,,,,,,,,,,,,m,,,,,,,,,,,,,,,,28,1,665.4078,666.824,m,1,1.4133,,[],[],[],[],[],[],[],666.8241,668.824,668.824,670.7572,[],[],[],[],[],[],[],z,670.7573,670.7574,0.036210937,-0.259743924,0,0,0,,0,27,27,107,1,2,word,EVIDENT,cursive,evident_c.png,1.9314,,,,,
,,,,32014,001,2025-11-24_00h28.18.062,HW_LDT_1,2024.2.4,MacIntel,62.11180124,,,,,,,,,,,,,,,,,,,,,,670.7583,670.9572,670.9574,671.4574,,,,,,,,,,,,,,2.5978,1,,,,,,,,,,,,,,m,,,,,,,,,,,,,,,,29,0,671.4579,674.0572,m,1,2.5978,,[],[],[],[],[],[],[],674.0573,676.0565,676.0565,676.0566,[],[],[],[],[],[],[],,676.0566,676.0567,0.036210937,-0.259743924,0,0,0,,0,28,28,134,1,2,word,QUALIFY,cursive,qualify_c.png,,,,,,
,,,,32014,001,2025-11-24_00h28.18.062,HW_LDT_1,2024.2.4,MacIntel,62.11180124,,,,,,,,,,,,,,,,,,,,,,676.0576,676.2574,676.2574,676.7574,,,,,,,,,,,,,,1.3091,0,,,,,,,,,,,,,,m,,,,,,,,,,,,,,,,30,0,676.7578,678.0742,z,0,1.3091,,[],[],[],[],[],[],[],678.0743,680.0742,680.0742,680.0744,[],[],[],[],[],[],[],,680.0744,680.0744,0.036210937,-0.259743924,0,0,0,,0,29,29,90,1,2,word,CAPITAL,cursive,capital_c.png,,,,,,
,,,,32014,001,2025-11-24_00h28.18.062,HW_LDT_1,2024.2.4,MacIntel,62.11180124,,,,,,,,,,,,,,,,,,,,,,680.0754,680.2738,680.2739,680.7742,,,,,,,,,,,,,,0.6031,1,,,,,,,,,,,,,,m,,,,,,,,,,,,,,,,31,1,680.7746,681.391,m,1,0.6031,,[],[],[],[],[],[],[],681.3911,683.3911,683.3912,685.891,[],[],[],[],[],[],[],z,685.8911,685.8912,0.036210937,-0.259743924,0,0,0,,0,30,30,144,1,2,word,RESIDENT,print,resident_p.png,2.4891,,,,,
,,,,32014,001,2025-11-24_00h28.18.062,HW_LDT_1,2024.2.4,MacIntel,62.11180124,,,,,,,,,,,,,,,,,,,,,,685.8922,686.091,686.0911,686.591,,,,,,,,,,,,,,1.3378,1,,,,,,,,,,,,,,z,,,,,,,,,,,,,,,,32,1,686.5914,687.9413,z,1,1.3378,,[],[],[],[],[],[],[],687.9413,689.9411,689.9412,691.4411,[],[],[],[],[],[],[],m,691.4413,691.4413,0.036210937,-0.259743924,0,0,0,,0,31,31,60,1,2,TL,molibe,print,molibe_p.png,1.4993,,,,,
,,,,32014,001,2025-11-24_00h28.18.062,HW_LDT_1,2024.2.4,MacIntel,62.11180124,,,,,,,,,,,,,,,,,,,,,,691.4421,691.6412,691.6413,692.1412,,,,,,,,,,,,,,1.7077,1,,,,,,,,,,,,,,z,,,,,,,,,,,,,,,,33,1,692.1416,693.858,z,1,1.7077,,[],[],[],[],[],[],[],693.858,695.858,695.858,697.2748,[],[],[],[],[],[],[],z,697.2749,697.275,0.036210937,-0.259743924,0,0,0,,0,32,32,42,1,2,TL,bedise,cursive,bedise_c.png,1.4045,,,,,
,,,,32014,001,2025-11-24_00h28.18.062,HW_LDT_1,2024.2.4,MacIntel,62.11180124,,,,,,,,,,,,,,,,,,,,,,697.2763,697.4746,697.4746,697.9744,,,,,,,,,,,,,,1.0541,1,,,,,,,,,,,,,,m,,,,,,,,,,,,,,,,34,0,697.9748,699.0417,m,1,1.0541,,[],[],[],[],[],[],[],699.0418,701.0416,701.0416,701.0418,[],[],[],[],[],[],[],,701.0418,701.0418,0.036210937,-0.259743924,0,0,0,,0,33,33,132,1,2,word,PROPOSAL,cursive,proposal_c.png,,,,,,
,,,,32014,001,2025-11-24_00h28.18.062,HW_LDT_1,2024.2.4,MacIntel,62.11180124,,,,,,,,,,,,,,,,,,,,,,701.0427,701.2416,701.2416,701.7416,,,,,,,,,,,,,,1.2374,1,,,,,,,,,,,,,,z,,,,,,,,,,,,,,,,35,0,701.742,702.9917,z,1,1.2374,,[],[],[],[],[],[],[],702.9918,704.9918,704.9919,704.992,[],[],[],[],[],[],[],,704.992,704.9921,0.036210937,-0.259743924,0,0,0,,0,34,34,29,1,2,RL,samite,cursive,samite_c.png,,,,,,
,,,,32014,001,2025-11-24_00h28.18.062,HW_LDT_1,2024.2.4,MacIntel,62.11180124,,,,,,,,,,,,,,,,,,,,,,704.9931,705.1919,705.1919,705.6917,,,,,,,,,,,,,,1.2367,1,,,,,,,,,,,,,,z,,,,,,,,,,,,,,,,36,0,705.6922,706.9419,z,1,1.2367,,[],[],[],[],[],[],[],706.942,708.9418,708.9419,708.9419,[],[],[],[],[],[],[],,708.942,708.9421,0.036210937,-0.259743924,0,0,0,,0,35,35,15,1,2,RL,linedal,print,linedal_p.png,,,,,,
,,,,32014,001,2025-11-24_00h28.18.062,HW_LDT_1,2024.2.4,MacIntel,62.11180124,,,,,,,,,,,,,,,,,,,,,,708.9429,709.1418,709.1418,709.6418,,,,,,,,,,,,,,2.0482,1,,,,,,,,,,,,,,z,,,,,,,,,,,,,,,,37,0,709.6423,711.691,z,1,2.0482,,[],[],[],[],[],[],[],711.6911,713.692,713.6921,713.6924,[],[],[],[],[],[],[],,713.6925,713.6925,0.036210937,-0.259743924,0,0,0,,0,36,36,9,1,2,RL,denficy,print,denficy_p.png,,,,,,
,,,,32014,001,2025-11-24_00h28.18.062,HW_LDT_1,2024.2.4,MacIntel,62.11180124,,,,,,,,,,,,,,,,,,,,,,713.6938,713.892,713.8922,714.3922,,,,,,,,,,,,,,1.2888,1,,,,,,,,,,,,,,z,,,,,,,,,,,,,,,,38,0,714.3927,715.6912,z,1,1.2888,,[],[],[],[],[],[],[],715.6912,717.6922,717.6922,717.6924,[],[],[],[],[],[],[],,717.6925,717.6926,0.036210937,-0.259743924,0,0,0,,0,37,37,23,1,2,RL,procogal,cursive,procogal_c.png,,,,,,
,,,,32014,001,2025-11-24_00h28.18.062,HW_LDT_1,2024.2.4,MacIntel,62.11180124,,,,,,,,,,,,,,,,,,,,,,717.6939,717.8922,717.8922,718.3922,,,,,,,,,,,,,,1.3464,0,,,,,,,,,,,,,,m,,,,,,,,,,,,,,,,39,0,718.3928,719.7421,z,0,1.3464,,[],[],[],[],[],[],[],719.7422,721.7424,721.7425,721.7427,[],[],[],[],[],[],[],,721.7427,721.7429,0.036210937,-0.259743924,0,0,0,,0,38,38,105,1,2,word,EDITOR,cursive,editor_c.png,,,,,,
,,,,32014,001,2025-11-24_00h28.18.062,HW_LDT_1,2024.2.4,MacIntel,62.11180124,,,,,,,,,,,,,,,,,,,,,,721.7442,721.9423,721.9423,722.4423,,,,,,,,,,,,,,0.7206,1,,,,,,,,,,,,,,m,,,,,,,,,,,,,,,,40,0,722.4428,723.1757,m,1,0.7206,,[],[],[],[],[],[],[],723.1758,725.1756,725.1757,725.1758,[],[],[],[],[],[],[],,725.1758,725.1758,0.036210937,-0.259743924,0,0,0,,0,39,39,114,1,2,word,LOCATE,print,locate_p.png,,,,,,
,,,,32014,001,2025-11-24_00h28.18.062,HW_LDT_1,2024.2.4,MacIntel,62.11180124,,,,,,,,,,,,,,,,,,,,,,725.1766,725.3756,725.3757,725.8746,,,,,,,,,,,,,,0.8067,1,,,,,,,,,,,,,,m,,,,,,,,,,,,,,,,41,0,725.875,726.6915,m,1,0.8067,,[],[],[],[],[],[],[],726.6916,728.6925,728.6926,728.6928,[],[],[],[],[],[],[],,728.6929,728.6929,0.036210937,-0.259743924,0,0,0,,0,40,40,143,1,2,word,REMOVAL,print,removal_p.png,,,,,,
,,,,32014,001,2025-11-24_00h28.18.062,HW_LDT_1,2024.2.4,MacIntel,62.11180124,,,,,,,,,,,,,,,,,,,,,,728.6942,728.8915,728.8916,729.3915,,,,,,,,,,,,,,1.8885,0,,,,,,,,,,,,,,m,,,,,,,,,,,,,,,,42,0,729.392,731.2925,z,0,1.8885,,[],[],[],[],[],[],[],731.2926,733.2926,733.2926,733.2927,[],[],[],[],[],[],[],,733.2927,733.2928,0.036210937,-0.259743924,0,0,0,,0,41,41,123,1,2,word,MODERATE,cursive,moderate_c.png,,,,,,
,,,,32014,001,2025-11-24_00h28.18.062,HW_LDT_1,2024.2.4,MacIntel,62.11180124,,,,,,,,,,,,,,,,,,,,,,733.2935,733.4916,733.4916,733.9926,,,,,,,,,,,,,,1.1813,0,,,,,,,,,,,,,,m,,,,,,,,,,,,,,,,43,1,733.9929,735.1758,z,0,1.1813,,[],[],[],[],[],[],[],735.1759,737.1751,737.1751,738.5094,[],[],[],[],[],[],[],z,738.5096,738.5096,0.036210937,-0.259743924,0,0,0,,0,42,42,120,1,2,word,MILITARY,cursive,military_c.png,1.3216,,,,,
,,,,32014,001,2025-11-24_00h28.18.062,HW_LDT_1,2024.2.4,MacIntel,62.11180124,,,,,,,,,,,,,,,,,,,,,,738.5106,738.7095,738.7095,739.2084,,,,,,,,,,,,,,1.7809,0,,,,,,,,,,,,,,m,,,,,,,,,,,,,,,,44,0,739.2089,740.9928,z,0,1.7809,,[],[],[],[],[],[],[],740.9928,742.9929,742.9929,742.9931,[],[],[],[],[],[],[],,742.9931,742.9932,0.036210937,-0.259743924,0,0,0,,0,43,43,106,1,2,word,ELABORATE,cursive,elaborate_c.png,,,,,,
,,,,32014,001,2025-11-24_00h28.18.062,HW_LDT_1,2024.2.4,MacIntel,62.11180124,,,,,,,,,,,,,,,,,,,,,,742.9942,743.1929,743.1929,743.6919,,,,,,,,,,,,,,3.2738,1,,,,,,,,,,,,,,m,,,,,,,,,,,,,,,,45,0,743.6924,746.9763,m,1,3.2738,,[],[],[],[],[],[],[],746.9764,748.9764,748.9765,748.9767,[],[],[],[],[],[],[],,748.9768,748.9769,0.036210937,-0.259743924,0,0,0,,0,44,44,124,1,2,word,NUMERICAL,cursive,numerical_c.png,,,,,,
,,,,32014,001,2025-11-24_00h28.18.062,HW_LDT_1,2024.2.4,MacIntel,62.11180124,,,,,,,,,,,,,,,,,,,,,,748.978,749.1754,749.1755,749.6757,,,,,,,,,,,,,,2.2392,1,,,,,,,,,,,,,,z,,,,,,,,,,,,,,,,46,0,749.6761,751.9265,z,1,2.2392,,[],[],[],[],[],[],[],751.9265,753.9266,753.9267,753.9268,[],[],[],[],[],[],[],,753.9268,753.927,0.036210937,-0.259743924,0,0,0,,0,45,45,7,1,2,RL,cocewage,cursive,cocewage_c.png,,,,,,
,,,,32014,001,2025-11-24_00h28.18.062,HW_LDT_1,2024.2.4,MacIntel,62.11180124,,,,,,,,,,,,,,,,,,,,,,753.928,754.1266,754.1268,754.626,,,,,,,,,,,,,,2.0207,1,,,,,,,,,,,,,,z,,,,,,,,,,,,,,,,47,0,754.6265,756.6591,z,1,2.0207,,[],[],[],[],[],[],[],756.6591,758.66,758.66,758.6603,[],[],[],[],[],[],[],,758.6604,758.6604,0.036210937,-0.259743924,0,0,0,,0,46,46,52,1,2,TL,elarobate,cursive,elarobate_c.png,,,,,,
,,,,32014,001,2025-11-24_00h28.18.062,HW_LDT_1,2024.2.4,MacIntel,62.11180124,,,,,,,,,,,,,,,,,,,,,,758.6615,758.8588,758.8588,759.3601,,,,,,,,,,,,,,0.7146,1,,,,,,,,,,,,,,m,,,,,,,,,,,,,,,,48,1,759.3607,760.0768,m,1,0.7146,,[],[],[],[],[],[],[],760.077,762.0767,762.0767,763.1434,[],[],[],[],[],[],[],m,763.1434,763.1435,0.036210937,-0.259743924,0,0,0,,0,47,47,112,1,2,word,LIBERAL,print,liberal_p.png,1.0653,,,,,
,,,,32014,001,2025-11-24_00h28.18.062,HW_LDT_1,2024.2.4,MacIntel,62.11180124,,,,,,,,,,,,,,,,,,,,,,763.1445,763.3424,763.3425,763.8428,,,,,,,,,,,,,,1.1622,1,,,,,,,,,,,,,,m,,,,,,,,,,,,,,,,49,0,763.8432,765.0102,m,1,1.1622,,[],[],[],[],[],[],[],765.0103,767.0095,767.0095,767.0095,[],[],[],[],[],[],[],,767.0096,767.0096,0.036210937,-0.259743924,0,0,0,,0,48,48,153,1,2,word,STOLEN,print,stolen_p.png,,,,,,
,,,,32014,001,2025-11-24_00h28.18.062,HW_LDT_1,2024.2.4,MacIntel,62.11180124,,,,,,,,,,,,,,,,,,,,,,767.0105,767.2101,767.2102,767.7102,,,,,,,,,,,,,,1.0906,1,,,,,,,,,,,,,,z,,,,,,,,,,,,,,,,50,1,767.7106,768.8093,z,1,1.0906,,[],[],[],[],[],[],[],768.8095,770.8105,770.8105,771.7939,[],[],[],[],[],[],[],m,771.794,771.794,0.036210937,-0.259743924,0,0,0,,0,49,49,48,1,2,TL,detabe,print,detabe_p.png,0.9746,,,,,
,,,,32014,001,2025-11-24_00h28.18.062,HW_LDT_1,2024.2.4,MacIntel,62.11180124,,,,,,,,,,,,,,,,,,,,,,771.795,771.9938,771.9938,772.4937,,,,,,,,,,,,,,1.1371,1,,,,,,,,,,,,,,z,,,,,,,,,,,,,,,,51,0,772.4941,773.644,z,1,1.1371,,[],[],[],[],[],[],[],773.6441,775.644,775.644,775.6442,[],[],[],[],[],[],[],,775.6442,775.6443,0.036210937,-0.259743924,0,0,0,,0,50,50,35,1,2,RL,vesofity,print,vesofity_p.png,,,,,,
,,,,32014,001,2025-11-24_00h28.18.062,HW_LDT_1,2024.2.4,MacIntel,62.11180124,,,,,,,,,,,,,,,,,,,,,,775.6455,775.8438,775.8439,776.3438,,,,,,,,,,,,,,2.1744,1,,,,,,,,,,,,,,z,,,,,,,,,,,,,,,,52,0,776.3443,778.5263,z,1,2.1744,,[],[],[],[],[],[],[],778.5264,780.5271,780.5271,780.5272,[],[],[],[],[],[],[],,780.5272,780.5273,0.036210937,-0.259743924,0,0,0,,0,51,51,5,1,2,RL,clisimal,cursive,clisimal_c.png,,,,,,
,,,,32014,001,2025-11-24_00h28.18.062,HW_LDT_1,2024.2.4,MacIntel,62.11180124,,,,,,,,,,,,,,,,,,,,,,780.5281,780.7273,780.7273,781.2273,,,,,,,,,,,,,,1.937,1,,,,,,,,,,,,,,z,,,,,,,,,,,,,,,,53,0,781.2276,783.1765,z,1,1.937,,[],[],[],[],[],[],[],783.1765,785.1774,785.1774,785.1775,[],[],[],[],[],[],[],,785.1775,785.1776,0.036210937,-0.259743924,0,0,0,,0,52,52,27,1,2,RL,repifion,cursive,repifion_c.png,,,,,,
,,,,32014,001,2025-11-24_00h28.18.062,HW_LDT_1,2024.2.4,MacIntel,62.11180124,,,,,,,,,,,,,,,,,,,,,,785.1785,785.3774,785.3774,785.8775,,,,,,,,,,,,,,3.7354,1,,,,,,,,,,,,,,z,,,,,,,,,,,,,,,,54,0,785.8779,789.6274,z,1,3.7354,,[],[],[],[],[],[],[],789.6275,791.6275,791.6276,791.6276,[],[],[],[],[],[],[],,791.6277,791.6278,0.036210937,-0.259743924,0,0,0,,0,53,53,76,1,2,TL,senmitent,cursive,senmitent_c.png,,,,,,
,,,,32014,001,2025-11-24_00h28.18.062,HW_LDT_1,2024.2.4,MacIntel,62.11180124,,,,,,,,,,,,,,,,,,,,,,791.6286,791.8276,791.8276,792.3275,,,,,,,,,,,,,,1.7975,0,,,,,,,,,,,,,,z,,,,,,,,,,,,,,,,55,0,792.328,794.1275,m,0,1.7975,,[],[],[],[],[],[],[],794.1276,796.1267,796.1268,796.1269,[],[],[],[],[],[],[],,796.1269,796.1269,0.036210937,-0.259743924,0,0,0,,0,54,54,67,1,2,TL,quafily,cursive,quafily_c.png,,,,,,
,,,,32014,001,2025-11-24_00h28.18.062,HW_LDT_1,2024.2.4,MacIntel,62.11180124,,,,,,,,,,,,,,,,,,,,,,796.1278,796.3276,796.3277,796.8276,,,,,,,,,,,,,,1.6863,1,,,,,,,,,,,,,,m,,,,,,,,,,,,,,,,56,0,796.828,798.5271,m,1,1.6863,,[],[],[],[],[],[],[],798.5272,800.5277,800.5278,800.5279,[],[],[],[],[],[],[],,800.528,800.528,0.036210937,-0.259743924,0,0,0,,0,55,55,128,1,2,word,PACIFIC,print,pacific_p.png,,,,,,
,,,,32014,001,2025-11-24_00h28.18.062,HW_LDT_1,2024.2.4,MacIntel,62.11180124,,,,,,,,,,,,,,,,,,,,,,800.5288,800.7277,800.7277,801.2276,,,,,,,,,,,,,,1.5135,1,,,,,,,,,,,,,,z,,,,,,,,,,,,,,,,57,0,801.228,802.7434,z,1,1.5135,,[],[],[],[],[],[],[],802.7435,804.7445,804.7445,804.7446,[],[],[],[],[],[],[],,804.7447,804.7447,0.036210937,-0.259743924,0,0,0,,0,56,56,74,1,2,TL,rerite,cursive,rerite_c.png,,,,,,
,,,,32014,001,2025-11-24_00h28.18.062,HW_LDT_1,2024.2.4,MacIntel,62.11180124,,,,,,,,,,,,,,,,,,,,,,804.7456,804.9444,804.9445,805.4445,,,,,,,,,,,,,,1.473,1,,,,,,,,,,,,,,z,,,,,,,,,,,,,,,,58,0,805.4449,806.9269,z,1,1.473,,[],[],[],[],[],[],[],806.9269,808.9279,808.928,808.9281,[],[],[],[],[],[],[],,808.9281,808.9282,0.036210937,-0.259743924,0,0,0,,0,57,57,54,1,2,TL,liretal,cursive,liretal_c.png,,,,,,
,,,,32014,001,2025-11-24_00h28.18.062,HW_LDT_1,2024.2.4,MacIntel,62.11180124,,,,,,,,,,,,,,,,,,,,,,808.9291,809.1278,809.1278,809.628,,,,,,,,,,,,,,2.7375,1,,,,,,,,,,,,,,m,,,,,,,,,,,,,,,,59,0,809.6284,812.3773,m,1,2.7375,,[],[],[],[],[],[],[],812.3774,814.3783,814.3783,814.3785,[],[],[],[],[],[],[],,814.3785,814.3786,0.036210937,-0.259743924,0,0,0,,0,58,58,109,1,2,word,GRATEFUL,cursive,grateful_c.png,,,,,,
,,,,32014,001,2025-11-24_00h28.18.062,HW_LDT_1,2024.2.4,MacIntel,62.11180124,,,,,,,,,,,,,,,,,,,,,,814.3798,814.5782,814.5782,815.0783,,,,,,,,,,,,,,2.4362,1,,,,,,,,,,,,,,m,,,,,,,,,,,,,,,,60,0,815.0788,817.5283,m,1,2.4362,,[],[],[],[],[],[],[],817.5284,819.5271,819.5272,819.5273,[],[],[],[],[],[],[],,819.5273,819.5273,0.036210937,-0.259743924,0,0,0,,0,59,59,103,1,2,word,DISPUTE,cursive,dispute_c.png,,,,,,
,,,,32014,001,2025-11-24_00h28.18.062,HW_LDT_1,2024.2.4,MacIntel,62.11180124,,,,,,,,,,,,,,,,,,,,,,819.5281,819.7282,819.7282,820.2282,,,,,,,,,,,,,,1.704,1,,,,,,,,,,,,,,z,,,,,,,,,,,,,,,,61,0,820.2286,821.9442,z,1,1.704,,[],[],[],[],[],[],[],821.9442,823.9447,823.9447,823.9449,[],[],[],[],[],[],[],,823.9451,823.9453,0.036210937,-0.259743924,0,0,0,,0,60,60,58,1,2,TL,mitilary,cursive,mitilary_c.png,,,,,,
,,,,32014,001,2025-11-24_00h28.18.062,HW_LDT_1,2024.2.4,MacIntel,62.11180124,,,,,,,,,,,,,,,,,,,,,,823.9465,824.145,824.1451,824.6444,,,,,,,,,,,,,,1.8383,0,,,,,,,,,,,,,,m,,,,,,,,,,,,,,,,62,0,824.6447,826.4943,z,0,1.8383,,[],[],[],[],[],[],[],826.4944,828.4942,828.4942,828.4944,[],[],[],[],[],[],[],,828.4944,828.4945,0.036210937,-0.259743924,0,0,0,,0,61,61,113,1,2,word,LITERAL,cursive,literal_c.png,,,,,,
,,,,32014,001,2025-11-24_00h28.18.062,HW_LDT_1,2024.2.4,MacIntel,62.11180124,,,,,,,,,,,,,,,,,,,,,,828.4953,828.6951,828.6951,829.1952,,,,,,,,,,,,,,3.9045,1,,,,,,,,,,,,,,z,,,,,,,,,,,,,,,,63,1,829.1955,833.1121,z,1,3.9045,,[],[],[],[],[],[],[],833.1122,835.1111,835.1111,836.3122,[],[],[],[],[],[],[],z,836.3124,836.3124,0.036210937,-0.259743924,0,0,0,,0,62,62,45,1,2,TL,carnidal,cursive,carnidal_c.png,1.1893,,,,,
,,,,32014,001,2025-11-24_00h28.18.062,HW_LDT_1,2024.2.4,MacIntel,62.11180124,,,,,,,,,,,,,,,,,,,,,,836.3136,836.5121,836.5122,837.0122,,,,,,,,,,,,,,1.0704,1,,,,,,,,,,,,,,m,,,,,,,,,,,,,,,,64,0,837.0126,838.0956,m,1,1.0704,,[],[],[],[],[],[],[],838.0957,840.0956,840.0956,840.0958,[],[],[],[],[],[],[],,840.0959,840.0961,0.036210937,-0.259743924,0,0,0,,0,63,63,108,1,2,word,FORTUNE,print,fortune_p.png,,,,,,
,,,,32014,001,2025-11-24_00h28.18.062,HW_LDT_1,2024.2.4,MacIntel,62.11180124,,,,,,,,,,,,,,,,,,,,,,840.0972,840.2946,840.2947,840.7956,,,,,,,,,,,,,,1.3748,1,,,,,,,,,,,,,,z,,,,,,,,,,,,,,,,65,0,840.7962,842.1792,z,1,1.3748,,[],[],[],[],[],[],[],842.1792,844.179,844.1791,844.1792,[],[],[],[],[],[],[],,844.1792,844.1793,0.036210937,-0.259743924,0,0,0,,0,64,64,44,1,2,TL,catipal,cursive,catipal_c.png,,,,,,
,,,,32014,001,2025-11-24_00h28.18.062,HW_LDT_1,2024.2.4,MacIntel,62.11180124,,,,,,,,,,,,,,,,,,,,,,844.1801,844.3789,844.379,844.879,,,,,,,,,,,,,,2.965,1,,,,,,,,,,,,,,m,,,,,,,,,,,,,,,,66,0,844.8794,847.8457,m,1,2.965,,[],[],[],[],[],[],[],847.8457,849.8457,849.8458,849.8459,[],[],[],[],[],[],[],,849.846,849.846,0.036210937,-0.259743924,0,0,0,,0,65,65,135,1,2,word,QUALITY,cursive,quality_c.png,,,,,,
,,,,32014,001,2025-11-24_00h28.18.062,HW_LDT_1,2024.2.4,MacIntel,62.11180124,,,,,,,,,,,,,,,,,,,,,,849.8469,850.0457,850.0458,850.5454,,,,,,,,,,,,,,3.3717,1,,,,,,,,,,,,,,z,,,,,,,,,,,,,,,,67,0,850.5458,853.9295,z,1,3.3717,,[],[],[],[],[],[],[],853.9296,855.9283,855.9284,855.9286,[],[],[],[],[],[],[],,855.9286,855.9288,0.036210937,-0.259743924,0,0,0,,0,66,66,68,1,2,TL,quatily,cursive,quatily_c.png,,,,,,
,,,,32014,001,2025-11-24_00h28.18.062,HW_LDT_1,2024.2.4,MacIntel,62.11180124,,,,,,,,,,,,,,,,,,,,,,855.9302,856.1293,856.1294,856.6292,,,,,,,,,,,,,,0.7394,1,,,,,,,,,,,,,,m,,,,,,,,,,,,,,,,68,0,856.6297,857.3793,m,1,0.7394,,[],[],[],[],[],[],[],857.3794,859.3785,859.3785,859.3787,[],[],[],[],[],[],[],,859.3788,859.3788,0.036210937,-0.259743924,0,0,0,,0,67,67,130,1,2,word,POLICY,print,policy_p.png,,,,,,
,,,,32014,001,2025-11-24_00h28.18.062,HW_LDT_1,2024.2.4,MacIntel,62.11180124,,,,,,,,,,,,,,,,,,,,,,859.3801,859.5794,859.5795,860.0793,,,,,,,,,,,,,,0.8201,1,,,,,,,,,,,,,,z,,,,,,,,,,,,,,,,69,1,860.0797,860.9122,z,1,0.8201,,[],[],[],[],[],[],[],860.9122,862.9128,862.9128,863.8129,[],[],[],[],[],[],[],m,863.813,863.813,0.036210937,-0.259743924,0,0,0,,0,68,68,8,1,2,RL,desifate,print,desifate_p.png,0.8876,,,,,
,,,,32014,001,2025-11-24_00h28.18.062,HW_LDT_1,2024.2.4,MacIntel,62.11180124,,,,,,,,,,,,,,,,,,,,,,863.8139,864.0118,864.0118,864.5128,,,,,,,,,,,,,,1.2706,1,,,,,,,,,,,,,,m,,,,,,,,,,,,,,,,70,0,864.5131,865.7962,m,1,1.2706,,[],[],[],[],[],[],[],865.7962,867.7962,867.7962,867.7963,[],[],[],[],[],[],[],,867.7963,867.7964,0.036210937,-0.259743924,0,0,0,,0,69,69,93,1,2,word,CEREMONY,print,ceremony_p.png,,,,,,
,,,,32014,001,2025-11-24_00h28.18.062,HW_LDT_1,2024.2.4,MacIntel,62.11180124,,,,,,,,,,,,,,,,,,,,,,867.7973,867.9963,867.9963,868.4962,,,,,,,,,,,,,,0.9142,1,,,,,,,,,,,,,,m,,,,,,,,,,,,,,,,71,0,868.4967,869.4129,m,1,0.9142,,[],[],[],[],[],[],[],869.413,871.4131,871.4131,871.4132,[],[],[],[],[],[],[],,871.4132,871.4132,0.036210937,-0.259743924,0,0,0,,0,70,70,104,1,2,word,DOMINANT,print,dominant_p.png,,,,,,
,,,,32014,001,2025-11-24_00h28.18.062,HW_LDT_1,2024.2.4,MacIntel,62.11180124,,,,,,,,,,,,,,,,,,,,,,871.4141,871.6131,871.6131,872.1131,,,,,,,,,,,,,,0.832,1,,,,,,,,,,,,,,z,,,,,,,,,,,,,,,,72,0,872.1134,872.9463,z,1,0.832,,[],[],[],[],[],[],[],872.9464,874.9465,874.9465,874.9465,[],[],[],[],[],[],[],,874.9467,874.9467,0.036210937,-0.259743924,0,0,0,,0,71,71,70,1,2,TL,retalive,print,retalive_p.png,,,,,,
,,,,32014,001,2025-11-24_00h28.18.062,HW_LDT_1,2024.2.4,MacIntel,62.11180124,,,,,,,,,,,,,,,,,,,,,,874.9475,875.1464,875.1466,875.6465,,,,,,,,,,,,,,1.7868,1,,,,,,,,,,,,,,z,,,,,,,,,,,,,,,,73,1,875.6469,877.4466,z,1,1.7868,,[],[],[],[],[],[],[],877.4467,879.4467,879.4468,880.4802,[],[],[],[],[],[],[],m,880.4803,880.4804,0.036210937,-0.259743924,0,0,0,,0,72,72,63,1,2,TL,orinigal,print,orinigal_p.png,1.0215,,,,,
,,,,32014,001,2025-11-24_00h28.18.062,HW_LDT_1,2024.2.4,MacIntel,62.11180124,,,,,,,,,,,,,,,,,,,,,,880.4815,880.679,880.6791,881.179,,,,,,,,,,,,,,1.055,1,,,,,,,,,,,,,,z,,,,,,,,,,,,,,,,74,0,881.1795,882.2468,z,1,1.055,,[],[],[],[],[],[],[],882.2469,884.2469,884.2469,884.2471,[],[],[],[],[],[],[],,884.2471,884.2472,0.036210937,-0.259743924,0,0,0,,0,73,73,78,1,2,TL,stogare,print,stogare_p.png,,,,,,
,,,,32014,001,2025-11-24_00h28.18.062,HW_LDT_1,2024.2.4,MacIntel,62.11180124,,,,,,,,,,,,,,,,,,,,,,884.2483,884.4468,884.4469,884.9467,,,,,,,,,,,,,,1.4637,1,,,,,,,,,,,,,,m,,,,,,,,,,,,,,,,75,0,884.9473,886.4124,m,1,1.4637,,[],[],[],[],[],[],[],886.4124,888.4136,888.4136,888.4139,[],[],[],[],[],[],[],,888.4139,888.4141,0.036210937,-0.259743924,0,0,0,,0,74,74,157,1,2,word,VALIDITY,print,validity_p.png,,,,,,
,,,,32014,001,2025-11-24_00h28.18.062,HW_LDT_1,2024.2.4,MacIntel,62.11180124,,,,,,,,,,,,,,,,,,,,,,888.4151,888.6136,888.6138,889.1136,,,,,,,,,,,,,,0.8811,1,,,,,,,,,,,,,,z,,,,,,,,,,,,,,,,76,0,889.1142,889.9961,z,1,0.8811,,[],[],[],[],[],[],[],889.9962,891.996,891.9961,891.9963,[],[],[],[],[],[],[],,891.9963,891.9965,0.036210937,-0.259743924,0,0,0,,0,75,75,24,1,2,RL,rasibal,cursive,rasibal_c.png,,,,,,
,,,,32014,001,2025-11-24_00h28.18.062,HW_LDT_1,2024.2.4,MacIntel,62.11180124,,,,,,,,,,,,,,,,,,,,,,891.9978,892.197,892.1971,892.6971,,,,,,,,,,,,,,0.82,1,,,,,,,,,,,,,,z,,,,,,,,,,,,,,,,77,1,892.6976,893.5305,z,1,0.82,,[],[],[],[],[],[],[],893.5306,895.5304,895.5305,896.5139,[],[],[],[],[],[],[],m,896.514,896.5141,0.036210937,-0.259743924,0,0,0,,0,76,76,77,1,2,TL,sloten,print,sloten_p.png,0.9713,,,,,
,,,,32014,001,2025-11-24_00h28.18.062,HW_LDT_1,2024.2.4,MacIntel,62.11180124,,,,,,,,,,,,,,,,,,,,,,896.5154,896.7128,896.7128,897.2128,,,,,,,,,,,,,,1.2709,1,,,,,,,,,,,,,,z,,,,,,,,,,,,,,,,78,0,897.2133,898.4972,z,1,1.2709,,[],[],[],[],[],[],[],898.4973,900.4971,900.4971,900.4973,[],[],[],[],[],[],[],,900.4973,900.4974,0.036210937,-0.259743924,0,0,0,,0,77,77,66,1,2,TL,prodive,cursive,prodive_c.png,,,,,,
,,,,32014,001,2025-11-24_00h28.18.062,HW_LDT_1,2024.2.4,MacIntel,62.11180124,,,,,,,,,,,,,,,,,,,,,,900.4982,900.6971,900.6972,901.1971,,,,,,,,,,,,,,0.8538,1,,,,,,,,,,,,,,m,,,,,,,,,,,,,,,,79,0,901.1975,902.0641,m,1,0.8538,,[],[],[],[],[],[],[],902.0641,904.064,904.064,904.0642,[],[],[],[],[],[],[],,904.0643,904.0645,0.036210937,-0.259743924,0,0,0,,0,78,78,131,1,2,word,POPULAR,cursive,popular_c.png,,,,,,
,,,,32014,001,2025-11-24_00h28.18.062,HW_LDT_1,2024.2.4,MacIntel,62.11180124,,,,,,,,,,,,,,,,,,,,,,904.0655,904.2641,904.2642,904.763,,,,,,,,,,,,,,0.772,1,,,,,,,,,,,,,,m,,,,,,,,,,,,,,,,80,0,904.7635,905.5475,m,1,0.772,,[],[],[],[],[],[],[],905.5476,907.5474,907.5475,907.5476,[],[],[],[],[],[],[],,907.5477,1151.0712,0.097894965,-0.037061632,0,0,0,space,0,79,79,129,1,2,word,PARENT,print,parent_p.png,,,243.4922,,,
,,,,32014,001,2025-11-24_00h28.18.062,HW_LDT_1,2024.2.4,MacIntel,62.11180124,,,,,,,,,,,,,,,,,,,,,,1151.0736,1151.2706,1151.2706,1151.7707,,,,,,,,,,,,,,1.172,1,,,,,,,,,,,,,,z,,,,,,,,,,,,,,,,81,1,1151.7715,1152.953,z,1,1.172,,[],[],[],[],[],[],[],1152.9531,1154.954,1154.9541,1155.7706,[],[],[],[],[],[],[],z,1155.7708,1155.7708,-0.012113715,-0.086848958,0,0,0,,0,80,80,34,1,2,RL,trilude,cursive,trilude_c.png,0.804,,,,,
,,,,32014,001,2025-11-24_00h28.18.062,HW_LDT_1,2024.2.4,MacIntel,62.11180124,,,,,,,,,,,,,,,,,,,,,,1155.7717,1155.9707,1155.9707,1156.4707,,,,,,,,,,,,,,0.8393,1,,,,,,,,,,,,,,m,,,,,,,,,,,,,,,,82,0,1156.4712,1157.3199,m,1,0.8393,,[],[],[],[],[],[],[],1157.3199,1159.3208,1159.3208,1159.3209,[],[],[],[],[],[],[],,1159.321,1159.321,-0.012113715,-0.086848958,0,0,0,,0,81,81,142,1,2,word,REMOTE,cursive,remote_c.png,,,,,,
,,,,32014,001,2025-11-24_00h28.18.062,HW_LDT_1,2024.2.4,MacIntel,62.11180124,,,,,,,,,,,,,,,,,,,,,,1159.3219,1159.5208,1159.5208,1160.0208,,,,,,,,,,,,,,0.7647,0,,,,,,,,,,,,,,m,,,,,,,,,,,,,,,,83,0,1160.0213,1160.7874,z,0,0.7647,,[],[],[],[],[],[],[],1160.7875,1162.7873,1162.7873,1162.7873,[],[],[],[],[],[],[],,1162.7874,1162.7875,-0.012113715,-0.086848958,0,0,0,,0,82,82,148,1,2,word,SALINE,cursive,saline_c.png,,,,,,
,,,,32014,001,2025-11-24_00h28.18.062,HW_LDT_1,2024.2.4,MacIntel,62.11180124,,,,,,,,,,,,,,,,,,,,,,1162.7882,1162.9876,1162.9876,1163.4876,,,,,,,,,,,,,,0.6033,1,,,,,,,,,,,,,,m,,,,,,,,,,,,,,,,84,0,1163.4879,1164.1033,m,1,0.6033,,[],[],[],[],[],[],[],1164.1034,1166.1037,1166.1037,1166.1039,[],[],[],[],[],[],[],,1166.1039,1166.104,-0.012113715,-0.086848958,0,0,0,,0,83,83,83,1,2,word,ANIMAL,print,animal_p.png,,,,,,
,,,,32014,001,2025-11-24_00h28.18.062,HW_LDT_1,2024.2.4,MacIntel,62.11180124,,,,,,,,,,,,,,,,,,,,,,1166.1048,1166.3043,1166.3043,1166.8045,,,,,,,,,,,,,,0.6893,1,,,,,,,,,,,,,,m,,,,,,,,,,,,,,,,85,1,1166.805,1167.5047,m,1,0.6893,,[],[],[],[],[],[],[],1167.5047,1169.5045,1169.5046,1170.854,[],[],[],[],[],[],[],m,1170.854,1170.8542,-0.012113715,-0.086848958,0,0,0,,0,84,84,140,1,2,word,RELATIVE,print,relative_p.png,1.3391,,,,,
,,,,32014,001,2025-11-24_00h28.18.062,HW_LDT_1,2024.2.4,MacIntel,62.11180124,,,,,,,,,,,,,,,,,,,,,,1170.855,1171.0544,1171.0545,1171.5544,,,,,,,,,,,,,,2.4068,1,,,,,,,,,,,,,,z,,,,,,,,,,,,,,,,86,0,1171.5549,1173.9708,z,1,2.4068,,[],[],[],[],[],[],[],1173.9708,1175.9712,1175.9712,1175.9714,[],[],[],[],[],[],[],,1175.9714,1175.9714,-0.012113715,-0.086848958,0,0,0,,0,85,85,33,1,2,RL,strapely,cursive,strapely_c.png,,,,,,
,,,,32014,001,2025-11-24_00h28.18.062,HW_LDT_1,2024.2.4,MacIntel,62.11180124,,,,,,,,,,,,,,,,,,,,,,1175.9723,1176.1705,1176.1705,1176.6713,,,,,,,,,,,,,,0.7703,1,,,,,,,,,,,,,,z,,,,,,,,,,,,,,,,87,0,1176.6717,1177.4548,z,1,0.7703,,[],[],[],[],[],[],[],1177.4549,1179.4546,1179.4547,1179.4548,[],[],[],[],[],[],[],,1179.4548,1179.4549,-0.012113715,-0.086848958,0,0,0,,0,86,86,32,1,2,RL,speniven,print,speniven_p.png,,,,,,
,,,,32014,001,2025-11-24_00h28.18.062,HW_LDT_1,2024.2.4,MacIntel,62.11180124,,,,,,,,,,,,,,,,,,,,,,1179.4557,1179.6538,1179.6539,1180.1546,,,,,,,,,,,,,,0.7565,0,,,,,,,,,,,,,,m,,,,,,,,,,,,,,,,88,0,1180.155,1180.9216,z,0,0.7565,,[],[],[],[],[],[],[],1180.9217,1182.9215,1182.9216,1182.9217,[],[],[],[],[],[],[],,1182.9218,1182.922,-0.012113715,-0.086848958,0,0,0,,0,87,87,125,1,2,word,OPERATOR,cursive,operator_c.png,,,,,,
,,,,32014,001,2025-11-24_00h28.18.062,HW_LDT_1,2024.2.4,MacIntel,62.11180124,,,,,,,,,,,,,,,,,,,,,,1182.923,1183.1205,1183.1205,1183.6215,,,,,,,,,,,,,,0.78,1,,,,,,,,,,,,,,z,,,,,,,,,,,,,,,,89,0,1183.6222,1184.4038,z,1,0.78,,[],[],[],[],[],[],[],1184.4039,1186.4049,1186.4049,1186.4052,[],[],[],[],[],[],[],,1186.4053,1186.4054,-0.012113715,-0.086848958,0,0,0,,0,88,88,1,1,2,RL,caleberia,print,caleberia_p.png,,,,,,
,,,,32014,001,2025-11-24_00h28.18.062,HW_LDT_1,2024.2.4,MacIntel,62.11180124,,,,,,,,,,,,,,,,,,,,,,1186.4067,1186.605,1186.6051,1187.105,,,,,,,,,,,,,,0.7857,0,,,,,,,,,,,,,,m,,,,,,,,,,,,,,,,90,0,1187.1055,1187.9044,z,0,0.7857,,[],[],[],[],[],[],[],1187.9045,1189.905,1189.905,1189.9053,[],[],[],[],[],[],[],,1189.9053,1189.9055,-0.012113715,-0.086848958,0,0,0,,0,89,89,138,1,2,word,REFUSAL,cursive,refusal_c.png,,,,,,
,,,,32014,001,2025-11-24_00h28.18.062,HW_LDT_1,2024.2.4,MacIntel,62.11180124,,,,,,,,,,,,,,,,,,,,,,1189.9067,1190.1051,1190.1052,1190.605,,,,,,,,,,,,,,0.7307,1,,,,,,,,,,,,,,m,,,,,,,,,,,,,,,,91,1,1190.6057,1191.3383,m,1,0.7307,,[],[],[],[],[],[],[],1191.3383,1193.3385,1193.3385,1194.7383,[],[],[],[],[],[],[],z,1194.7383,1194.7385,-0.012113715,-0.086848958,0,0,0,,0,90,90,110,1,2,word,HERITAGE,print,heritage_p.png,1.3868,,,,,
,,,,32014,001,2025-11-24_00h28.18.062,HW_LDT_1,2024.2.4,MacIntel,62.11180124,,,,,,,,,,,,,,,,,,,,,,1194.7392,1194.9386,1194.9387,1195.4386,,,,,,,,,,,,,,1.9703,1,,,,,,,,,,,,,,z,,,,,,,,,,,,,,,,92,0,1195.4391,1197.422,z,1,1.9703,,[],[],[],[],[],[],[],1197.4222,1199.4211,1199.4212,1199.4213,[],[],[],[],[],[],[],,1199.4214,1199.4214,-0.012113715,-0.086848958,0,0,0,,0,91,91,59,1,2,TL,miskate,cursive,miskate_c.png,,,,,,
,,,,32014,001,2025-11-24_00h28.18.062,HW_LDT_1,2024.2.4,MacIntel,62.11180124,,,,,,,,,,,,,,,,,,,,,,1199.4227,1199.6219,1199.6219,1200.1219,,,,,,,,,,,,,,0.6869,1,,,,,,,,,,,,,,z,,,,,,,,,,,,,,,,93,0,1200.1226,1200.8221,z,1,0.6869,,[],[],[],[],[],[],[],1200.8222,1202.822,1202.8221,1202.8223,[],[],[],[],[],[],[],,1202.8224,1202.8225,-0.012113715,-0.086848958,0,0,0,,0,92,92,18,1,2,RL,mesibine,print,mesibine_p.png,,,,,,
,,,,32014,001,2025-11-24_00h28.18.062,HW_LDT_1,2024.2.4,MacIntel,62.11180124,,,,,,,,,,,,,,,,,,,,,,1202.8238,1203.0221,1203.0221,1203.522,,,,,,,,,,,,,,1.1702,1,,,,,,,,,,,,,,m,,,,,,,,,,,,,,,,94,1,1203.5226,1204.7055,m,1,1.1702,,[],[],[],[],[],[],[],1204.7056,1206.7055,1206.7055,1207.2721,[],[],[],[],[],[],[],m,1207.2721,1207.2722,-0.012113715,-0.086848958,0,0,0,,0,93,93,154,1,2,word,STORAGE,print,storage_p.png,0.5659,,,,,
,,,,32014,001,2025-11-24_00h28.18.062,HW_LDT_1,2024.2.4,MacIntel,62.11180124,,,,,,,,,,,,,,,,,,,,,,1207.2732,1207.4722,1207.4723,1207.9712,,,,,,,,,,,,,,0.8424,1,,,,,,,,,,,,,,z,,,,,,,,,,,,,,,,95,0,1207.9717,1208.8224,z,1,0.8424,,[],[],[],[],[],[],[],1208.8224,1210.8222,1210.8222,1210.8223,[],[],[],[],[],[],[],,1210.8223,1210.8224,-0.012113715,-0.086848958,0,0,0,,0,94,94,12,1,2,RL,gralekul,cursive,gralekul_c.png,,,,,,
,,,,32014,001,2025-11-24_00h28.18.062,HW_LDT_1,2024.2.4,MacIntel,62.11180124,,,,,,,,,,,,,,,,,,,,,,1210.8232,1211.0222,1211.0222,1211.5213,,,,,,,,,,,,,,2.0165,1,,,,,,,,,,,,,,m,,,,,,,,,,,,,,,,96,1,1211.5218,1213.5392,m,1,2.0165,,[],[],[],[],[],[],[],1213.5393,1215.5391,1215.5392,1216.7882,[],[],[],[],[],[],[],z,1216.7882,1216.7883,-0.012113715,-0.086848958,0,0,0,,0,95,95,98,1,2,word,CRIMINAL,cursive,criminal_c.png,1.2394,,,,,
,,,,32014,001,2025-11-24_00h28.18.062,HW_LDT_1,2024.2.4,MacIntel,62.11180124,,,,,,,,,,,,,,,,,,,,,,1216.7892,1216.9881,1216.9881,1217.4891,,,,,,,,,,,,,,0.837,1,,,,,,,,,,,,,,m,,,,,,,,,,,,,,,,97,0,1217.4897,1218.3392,m,1,0.837,,[],[],[],[],[],[],[],1218.3392,1220.3392,1220.3392,1220.3395,[],[],[],[],[],[],[],,1220.3396,1220.3398,-0.012113715,-0.086848958,0,0,0,,0,96,96,88,1,2,word,CAMERA,print,camera_p.png,,,,,,
,,,,32014,001,2025-11-24_00h28.18.062,HW_LDT_1,2024.2.4,MacIntel,62.11180124,,,,,,,,,,,,,,,,,,,,,,1220.341,1220.5392,1220.5393,1221.0392,,,,,,,,,,,,,,1.4034,1,,,,,,,,,,,,,,z,,,,,,,,,,,,,,,,98,0,1221.0398,1222.4561,z,1,1.4034,,[],[],[],[],[],[],[],1222.4562,1224.456,1224.456,1224.4562,[],[],[],[],[],[],[],,1224.4563,1224.4564,-0.012113715,-0.086848958,0,0,0,,0,97,97,56,1,2,TL,marnigal,cursive,marnigal_c.png,,,,,,
,,,,32014,001,2025-11-24_00h28.18.062,HW_LDT_1,2024.2.4,MacIntel,62.11180124,,,,,,,,,,,,,,,,,,,,,,1224.4576,1224.6559,1224.656,1225.1559,,,,,,,,,,,,,,0.8316,1,,,,,,,,,,,,,,z,,,,,,,,,,,,,,,,99,0,1225.1563,1225.9892,z,1,0.8316,,[],[],[],[],[],[],[],1225.9893,1227.9894,1227.9896,1227.9898,[],[],[],[],[],[],[],,1227.9898,1227.9899,-0.012113715,-0.086848958,0,0,0,,0,98,98,17,1,2,RL,macise,cursive,macise_c.png,,,,,,
,,,,32014,001,2025-11-24_00h28.18.062,HW_LDT_1,2024.2.4,MacIntel,62.11180124,,,,,,,,,,,,,,,,,,,,,,1227.991,1228.1895,1228.1895,1228.6895,,,,,,,,,,,,,,0.7966,1,,,,,,,,,,,,,,m,,,,,,,,,,,,,,,,100,0,1228.6901,1229.4893,m,1,0.7966,,[],[],[],[],[],[],[],1229.4894,1231.4896,1231.4897,1231.4898,[],[],[],[],[],[],[],,1231.4899,1231.4899,-0.012113715,-0.086848958,0,0,0,,0,99,99,136,1,2,word,RADICAL,cursive,radical_c.png,,,,,,
,,,,32014,001,2025-11-24_00h28.18.062,HW_LDT_1,2024.2.4,MacIntel,62.11180124,,,,,,,,,,,,,,,,,,,,,,1231.4908,1231.6894,1231.6894,1232.1894,,,,,,,,,,,,,,0.8237,1,,,,,,,,,,,,,,z,,,,,,,,,,,,,,,,101,0,1232.1898,1233.022,z,1,0.8237,,[],[],[],[],[],[],[],1233.022,1235.0229,1235.0229,1235.023,[],[],[],[],[],[],[],,1235.0231,1235.0231,-0.012113715,-0.086848958,0,0,0,,0,100,100,22,1,2,RL,posity,print,posity_p.png,,,,,,
,,,,32014,001,2025-11-24_00h28.18.062,HW_LDT_1,2024.2.4,MacIntel,62.11180124,,,,,,,,,,,,,,,,,,,,,,1235.024,1235.2229,1235.223,1235.7228,,,,,,,,,,,,,,0.7366,0,,,,,,,,,,,,,,m,,,,,,,,,,,,,,,,102,0,1235.7232,1236.473,z,0,0.7366,,[],[],[],[],[],[],[],1236.4731,1238.473,1238.4731,1238.4735,[],[],[],[],[],[],[],,1238.4735,1238.4736,-0.012113715,-0.086848958,0,0,0,,0,101,101,95,1,2,word,COMEDY,cursive,comedy_c.png,,,,,,
,,,,32014,001,2025-11-24_00h28.18.062,HW_LDT_1,2024.2.4,MacIntel,62.11180124,,,,,,,,,,,,,,,,,,,,,,1238.4748,1238.6732,1238.6732,1239.1731,,,,,,,,,,,,,,1.3867,1,,,,,,,,,,,,,,z,,,,,,,,,,,,,,,,103,0,1239.1737,1240.5731,z,1,1.3867,,[],[],[],[],[],[],[],1240.5732,1242.5731,1242.5732,1242.5733,[],[],[],[],[],[],[],,1242.5734,1242.5735,-0.012113715,-0.086848958,0,0,0,,0,102,102,73,1,2,TL,redisent,print,redisent_p.png,,,,,,
,,,,32014,001,2025-11-24_00h28.18.062,HW_LDT_1,2024.2.4,MacIntel,62.11180124,,,,,,,,,,,,,,,,,,,,,,1242.5747,1242.7731,1242.7732,1243.2722,,,,,,,,,,,,,,1.2253,1,,,,,,,,,,,,,,z,,,,,,,,,,,,,,,,104,1,1243.2728,1244.5066,z,1,1.2253,,[],[],[],[],[],[],[],1244.5067,1246.5064,1246.5064,1249.5732,[],[],[],[],[],[],[],m,1249.5733,1249.5734,-0.012113715,-0.086848958,0,0,0,,0,103,103,64,1,2,TL,paficic,print,paficic_p.png,3.0632,,,,,
,,,,32014,001,2025-11-24_00h28.18.062,HW_LDT_1,2024.2.4,MacIntel,62.11180124,,,,,,,,,,,,,,,,,,,,,,1249.5746,1249.7732,1249.7732,1250.2729,,,,,,,,,,,,,,1.3992,0,,,,,,,,,,,,,,m,,,,,,,,,,,,,,,,105,0,1250.2733,1251.6733,z,0,1.3992,,[],[],[],[],[],[],[],1251.6734,1253.6734,1253.6734,1253.6735,[],[],[],[],[],[],[],,1253.6735,1253.6736,-0.012113715,-0.086848958,0,0,0,,0,104,104,111,1,2,word,INDICATE,cursive,indicate_c.png,,,,,,
,,,,32014,001,2025-11-24_00h28.18.062,HW_LDT_1,2024.2.4,MacIntel,62.11180124,,,,,,,,,,,,,,,,,,,,,,1253.6745,1253.8724,1253.8725,1254.3735,,,,,,,,,,,,,,1.5479,1,,,,,,,,,,,,,,z,,,,,,,,,,,,,,,,106,0,1254.3741,1255.9233,z,1,1.5479,,[],[],[],[],[],[],[],1255.9235,1257.9236,1257.9237,1257.9239,[],[],[],[],[],[],[],,1257.9239,1257.9241,-0.012113715,-0.086848958,0,0,0,,0,105,105,53,1,2,TL,edivent,cursive,edivent_c.png,,,,,,
,,,,32014,001,2025-11-24_00h28.18.062,HW_LDT_1,2024.2.4,MacIntel,62.11180124,,,,,,,,,,,,,,,,,,,,,,1257.9253,1258.1226,1258.1226,1258.6235,,,,,,,,,,,,,,1.4369,1,,,,,,,,,,,,,,m,,,,,,,,,,,,,,,,107,0,1258.6242,1260.0738,m,1,1.4369,,[],[],[],[],[],[],[],1260.0739,1262.0735,1262.0736,1262.0737,[],[],[],[],[],[],[],,1262.0738,1262.0738,-0.012113715,-0.086848958,0,0,0,,0,106,106,100,1,2,word,DECADE,print,decade_p.png,,,,,,
,,,,32014,001,2025-11-24_00h28.18.062,HW_LDT_1,2024.2.4,MacIntel,62.11180124,,,,,,,,,,,,,,,,,,,,,,1262.0746,1262.2735,1262.2736,1262.7736,,,,,,,,,,,,,,2.8978,1,,,,,,,,,,,,,,z,,,,,,,,,,,,,,,,108,0,1262.774,1265.6736,z,1,2.8978,,[],[],[],[],[],[],[],1265.6737,1267.6729,1267.6729,1267.6731,[],[],[],[],[],[],[],,1267.6731,1267.6732,-0.012113715,-0.086848958,0,0,0,,0,107,107,57,1,2,TL,meromy,cursive,meromy_c.png,,,,,,
,,,,32014,001,2025-11-24_00h28.18.062,HW_LDT_1,2024.2.4,MacIntel,62.11180124,,,,,,,,,,,,,,,,,,,,,,1267.6744,1267.8738,1267.8738,1268.3738,,,,,,,,,,,,,,3.2534,1,,,,,,,,,,,,,,m,,,,,,,,,,,,,,,,109,0,1268.3745,1271.6407,m,1,3.2534,,[],[],[],[],[],[],[],1271.6407,1273.6407,1273.6407,1273.6409,[],[],[],[],[],[],[],,1273.6409,1273.641,-0.012113715,-0.086848958,0,0,0,,0,108,108,145,1,2,word,RESUME,cursive,resume_c.png,,,,,,
,,,,32014,001,2025-11-24_00h28.18.062,HW_LDT_1,2024.2.4,MacIntel,62.11180124,,,,,,,,,,,,,,,,,,,,,,1273.6423,1273.8406,1273.8407,1274.3405,,,,,,,,,,,,,,1.7203,1,,,,,,,,,,,,,,z,,,,,,,,,,,,,,,,110,0,1274.341,1276.0741,z,1,1.7203,,[],[],[],[],[],[],[],1276.0743,1278.074,1278.0741,1278.0742,[],[],[],[],[],[],[],,1278.0742,1278.0742,-0.012113715,-0.086848958,0,0,0,,0,109,109,28,1,2,RL,revune,cursive,revune_c.png,,,,,,
,,,,32014,001,2025-11-24_00h28.18.062,HW_LDT_1,2024.2.4,MacIntel,62.11180124,,,,,,,,,,,,,,,,,,,,,,1278.0752,1278.274,1278.274,1278.7741,,,,,,,,,,,,,,2.538,1,,,,,,,,,,,,,,m,,,,,,,,,,,,,,,,111,0,1278.7745,1281.3242,m,1,2.538,,[],[],[],[],[],[],[],1281.3243,1283.3233,1283.3234,1283.3235,[],[],[],[],[],[],[],,1283.3236,1283.3237,-0.012113715,-0.086848958,0,0,0,,0,110,110,85,1,2,word,BENEFIT,cursive,benefit_c.png,,,,,,
,,,,32014,001,2025-11-24_00h28.18.062,HW_LDT_1,2024.2.4,MacIntel,62.11180124,,,,,,,,,,,,,,,,,,,,,,1283.325,1283.5243,1283.5243,1284.0242,,,,,,,,,,,,,,0.87,1,,,,,,,,,,,,,,z,,,,,,,,,,,,,,,,112,0,1284.0249,1284.9076,z,1,0.87,,[],[],[],[],[],[],[],1284.9077,1286.9078,1286.9078,1286.908,[],[],[],[],[],[],[],,1286.9081,1286.9081,-0.012113715,-0.086848958,0,0,0,,0,111,111,25,1,2,RL,rabigly,print,rabigly_p.png,,,,,,
,,,,32014,001,2025-11-24_00h28.18.062,HW_LDT_1,2024.2.4,MacIntel,62.11180124,,,,,,,,,,,,,,,,,,,,,,1286.9093,1287.1077,1287.1077,1287.6077,,,,,,,,,,,,,,1.9041,1,,,,,,,,,,,,,,m,,,,,,,,,,,,,,,,113,0,1287.6082,1289.5243,m,1,1.9041,,[],[],[],[],[],[],[],1289.5244,1291.5245,1291.5245,1291.5248,[],[],[],[],[],[],[],,1291.5249,1291.525,-0.012113715,-0.086848958,0,0,0,,0,112,112,92,1,2,word,CATEGORY,print,category_p.png,,,,,,
,,,,32014,001,2025-11-24_00h28.18.062,HW_LDT_1,2024.2.4,MacIntel,62.11180124,,,,,,,,,,,,,,,,,,,,,,1291.5262,1291.7234,1291.7235,1292.2244,,,,,,,,,,,,,,1.4147,1,,,,,,,,,,,,,,z,,,,,,,,,,,,,,,,114,1,1292.2247,1293.6411,z,1,1.4147,,[],[],[],[],[],[],[],1293.6412,1295.6412,1295.6413,1296.9913,[],[],[],[],[],[],[],z,1296.9914,1296.9916,-0.012113715,-0.086848958,0,0,0,,0,113,113,46,1,2,TL,codemy,cursive,codemy_c.png,1.338,,,,,
,,,,32014,001,2025-11-24_00h28.18.062,HW_LDT_1,2024.2.4,MacIntel,62.11180124,,,,,,,,,,,,,,,,,,,,,,1296.9927,1297.1913,1297.1913,1297.6914,,,,,,,,,,,,,,1.6368,1,,,,,,,,,,,,,,m,,,,,,,,,,,,,,,,115,0,1297.692,1299.3409,m,1,1.6368,,[],[],[],[],[],[],[],1299.341,1301.3403,1301.3404,1301.3405,[],[],[],[],[],[],[],,1301.3405,1301.3406,-0.012113715,-0.086848958,0,0,0,,0,114,114,91,1,2,word,CARDINAL,cursive,cardinal_c.png,,,,,,
,,,,32014,001,2025-11-24_00h28.18.062,HW_LDT_1,2024.2.4,MacIntel,62.11180124,,,,,,,,,,,,,,,,,,,,,,1301.3416,1301.5413,1301.5413,1302.0412,,,,,,,,,,,,,,0.721,1,,,,,,,,,,,,,,z,,,,,,,,,,,,,,,,116,0,1302.0416,1302.7746,z,1,0.721,,[],[],[],[],[],[],[],1302.7747,1304.7738,1304.774,1304.7741,[],[],[],[],[],[],[],,1304.7741,1304.7742,-0.012113715,-0.086848958,0,0,0,,0,115,115,3,1,2,RL,capefory,print,capefory_p.png,,,,,,
,,,,32014,001,2025-11-24_00h28.18.062,HW_LDT_1,2024.2.4,MacIntel,62.11180124,,,,,,,,,,,,,,,,,,,,,,1304.7755,1304.9748,1304.9749,1305.4749,,,,,,,,,,,,,,2.9357,0,,,,,,,,,,,,,,m,,,,,,,,,,,,,,,,117,0,1305.4754,1308.4249,z,0,2.9357,,[],[],[],[],[],[],[],1308.4251,1310.4251,1310.4251,1310.4253,[],[],[],[],[],[],[],,1310.4253,1310.4255,-0.012113715,-0.086848958,0,0,0,,0,116,116,150,1,2,word,SENTIMENT,cursive,sentiment_c.png,,,,,,
,,,,32014,001,2025-11-24_00h28.18.062,HW_LDT_1,2024.2.4,MacIntel,62.11180124,,,,,,,,,,,,,,,,,,,,,,1310.4266,1310.625,1310.625,1311.125,,,,,,,,,,,,,,2.3405,1,,,,,,,,,,,,,,z,,,,,,,,,,,,,,,,118,0,1311.1257,1313.4751,z,1,2.3405,,[],[],[],[],[],[],[],1313.4752,1315.4745,1315.4745,1315.4747,[],[],[],[],[],[],[],,1315.4747,1315.4747,-0.012113715,-0.086848958,0,0,0,,0,117,117,50,1,2,TL,donimant,print,donimant_p.png,,,,,,
,,,,32014,001,2025-11-24_00h28.18.062,HW_LDT_1,2024.2.4,MacIntel,62.11180124,,,,,,,,,,,,,,,,,,,,,,1315.4756,1315.675,1315.6751,1316.1751,,,,,,,,,,,,,,1.2538,1,,,,,,,,,,,,,,m,,,,,,,,,,,,,,,,119,0,1316.1754,1317.4419,m,1,1.2538,,[],[],[],[],[],[],[],1317.442,1319.442,1319.4421,1319.4422,[],[],[],[],[],[],[],,1319.4423,1319.4424,-0.012113715,-0.086848958,0,0,0,,0,118,118,158,1,2,word,VELOCITY,print,velocity_p.png,,,,,,
,,,,32014,001,2025-11-24_00h28.18.062,HW_LDT_1,2024.2.4,MacIntel,62.11180124,,,,,,,,,,,,,,,,,,,,,,1319.4435,1319.6419,1319.6419,1320.1419,,,,,,,,,,,,,,1.2366,1,,,,,,,,,,,,,,z,,,,,,,,,,,,,,,,120,0,1320.1426,1321.3911,z,1,1.2366,,[],[],[],[],[],[],[],1321.3911,1323.391,1323.391,1323.3912,[],[],[],[],[],[],[],,1323.3913,1323.3914,-0.012113715,-0.086848958,0,0,0,,0,119,119,49,1,2,TL,dedace,print,dedace_p.png,,,,,,
,,,,32014,001,2025-11-24_00h28.18.062,HW_LDT_1,2024.2.4,MacIntel,62.11180124,,,,,,,,,,,,,,,,,,,,,,1323.3927,1323.5918,1323.5919,1324.0921,,,,,,,,,,,,,,0.9692,1,,,,,,,,,,,,,,z,,,,,,,,,,,,,,,,121,0,1324.0926,1325.0755,z,1,0.9692,,[],[],[],[],[],[],[],1325.0755,1327.0754,1327.0755,1327.0756,[],[],[],[],[],[],[],,1327.0756,1327.0757,-0.012113715,-0.086848958,0,0,0,,0,120,120,51,1,2,TL,etidor,cursive,etidor_c.png,,,,,,
,,,,32014,001,2025-11-24_00h28.18.062,HW_LDT_1,2024.2.4,MacIntel,62.11180124,,,,,,,,,,,,,,,,,,,,,,1327.0764,1327.2754,1327.2754,1327.7755,,,,,,,,,,,,,,1.071,1,,,,,,,,,,,,,,m,,,,,,,,,,,,,,,,122,0,1327.7761,1328.858,m,1,1.071,,[],[],[],[],[],[],[],1328.8581,1330.8589,1330.859,1330.8591,[],[],[],[],[],[],[],,1330.8591,1330.8592,-0.012113715,-0.086848958,0,0,0,,0,121,121,102,1,2,word,DENSITY,print,density_p.png,,,,,,
,,,,32014,001,2025-11-24_00h28.18.062,HW_LDT_1,2024.2.4,MacIntel,62.11180124,,,,,,,,,,,,,,,,,,,,,,1330.8602,1331.0582,1331.0583,1331.5579,,,,,,,,,,,,,,1.3754,1,,,,,,,,,,,,,,z,,,,,,,,,,,,,,,,123,0,1331.5583,1332.9424,z,1,1.3754,,[],[],[],[],[],[],[],1332.9424,1334.9413,1334.9414,1334.9416,[],[],[],[],[],[],[],,1334.9416,1334.9417,0.362022569,-0.188020833,0,0,0,,0,122,122,65,1,2,TL,polupar,cursive,polupar_c.png,,,,,,
,,,,32014,001,2025-11-24_00h28.18.062,HW_LDT_1,2024.2.4,MacIntel,62.11180124,,,,,,,,,,,,,,,,,,,,,,1334.9429,1335.1413,1335.1414,1335.6421,,,,,,,,,,,,,,1.6204,1,,,,,,,,,,,,,,z,,,,,,,,,,,,,,,,124,0,1335.6423,1337.2758,z,1,1.6204,,[],[],[],[],[],[],[],1337.2759,1339.2756,1339.2756,1339.2758,[],[],[],[],[],[],[],,1339.2758,1339.2759,0.362022569,-0.188020833,0,0,0,,0,123,123,79,1,2,TL,vadility,print,vadility_p.png,,,,,,
,,,,32014,001,2025-11-24_00h28.18.062,HW_LDT_1,2024.2.4,MacIntel,62.11180124,,,,,,,,,,,,,,,,,,,,,,1339.2768,1339.4757,1339.4758,1339.9757,,,,,,,,,,,,,,1.2382,1,,,,,,,,,,,,,,z,,,,,,,,,,,,,,,,125,0,1339.9761,1341.2258,z,1,1.2382,,[],[],[],[],[],[],[],1341.2258,1343.2249,1343.225,1343.2251,[],[],[],[],[],[],[],,1343.2252,1343.2253,0.362022569,-0.188020833,0,0,0,,0,124,124,55,1,2,TL,lotace,print,lotace_p.png,,,,,,
,,,,32014,001,2025-11-24_00h28.18.062,HW_LDT_1,2024.2.4,MacIntel,62.11180124,,,,,,,,,,,,,,,,,,,,,,1343.2266,1343.4259,1343.4259,1343.9248,,,,,,,,,,,,,,0.955,1,,,,,,,,,,,,,,z,,,,,,,,,,,,,,,,126,0,1343.9252,1344.8917,z,1,0.955,,[],[],[],[],[],[],[],1344.8918,1346.8927,1346.8927,1346.8929,[],[],[],[],[],[],[],,1346.8931,1346.8932,0.362022569,-0.188020833,0,0,0,,0,125,125,4,1,2,RL,cenesony,print,cenesony_p.png,,,,,,
,,,,32014,001,2025-11-24_00h28.18.062,HW_LDT_1,2024.2.4,MacIntel,62.11180124,,,,,,,,,,,,,,,,,,,,,,1346.8942,1347.0927,1347.0928,1347.5918,,,,,,,,,,,,,,0.9044,1,,,,,,,,,,,,,,m,,,,,,,,,,,,,,,,127,0,1347.5924,1348.5084,m,1,0.9044,,[],[],[],[],[],[],[],1348.5086,1350.5094,1350.5094,1350.5096,[],[],[],[],[],[],[],,1350.5096,1350.5098,0.362022569,-0.188020833,0,0,0,,0,126,126,115,1,2,word,LOGICAL,print,logical_p.png,,,,,,
,,,,32014,001,2025-11-24_00h28.18.062,HW_LDT_1,2024.2.4,MacIntel,62.11180124,,,,,,,,,,,,,,,,,,,,,,1350.511,1350.7095,1350.7095,1351.2095,,,,,,,,,,,,,,2.5537,1,,,,,,,,,,,,,,z,,,,,,,,,,,,,,,,128,0,1351.21,1353.7758,z,1,2.5537,,[],[],[],[],[],[],[],1353.7759,1355.7763,1355.7763,1355.7765,[],[],[],[],[],[],[],,1355.7766,1355.7767,0.362022569,-0.188020833,0,0,0,,0,127,127,41,1,2,TL,befenit,cursive,befenit_c.png,,,,,,
,,,,32014,001,2025-11-24_00h28.18.062,HW_LDT_1,2024.2.4,MacIntel,62.11180124,,,,,,,,,,,,,,,,,,,,,,1355.7779,1355.9762,1355.9763,1356.4762,,,,,,,,,,,,,,1.2379,0,,,,,,,,,,,,,,m,,,,,,,,,,,,,,,,129,1,1356.4768,1357.7265,z,0,1.2379,,[],[],[],[],[],[],[],1357.7265,1359.7255,1359.7256,1360.9429,[],[],[],[],[],[],[],z,1360.943,1360.9431,0.362022569,-0.188020833,0,0,0,,0,128,128,141,1,2,word,RELIGION,cursive,religion_c.png,1.2159,,,,,
,,,,32014,001,2025-11-24_00h28.18.062,HW_LDT_1,2024.2.4,MacIntel,62.11180124,,,,,,,,,,,,,,,,,,,,,,1360.944,1361.1421,1361.1422,1361.6431,,,,,,,,,,,,,,1.0818,1,,,,,,,,,,,,,,z,,,,,,,,,,,,,,,,130,0,1361.6435,1362.7266,z,1,1.0818,,[],[],[],[],[],[],[],1362.7267,1364.7261,1364.7261,1364.7262,[],[],[],[],[],[],[],,1364.7262,1364.7262,0.362022569,-0.188020833,0,0,0,,0,129,129,16,1,2,RL,losipal,print,losipal_p.png,,,,,,
,,,,32014,001,2025-11-24_00h28.18.062,HW_LDT_1,2024.2.4,MacIntel,62.11180124,,,,,,,,,,,,,,,,,,,,,,1364.7267,1364.9263,1364.9264,1365.4264,,,,,,,,,,,,,,0.9076,1,,,,,,,,,,,,,,z,,,,,,,,,,,,,,,,131,0,1365.4269,1366.3432,z,1,0.9076,,[],[],[],[],[],[],[],1366.3432,1368.3429,1368.343,1368.343,[],[],[],[],[],[],[],,1368.3431,1368.3431,0.362022569,-0.188020833,0,0,0,,0,130,130,26,1,2,RL,retupar,cursive,retupar_c.png,,,,,,
,,,,32014,001,2025-11-24_00h28.18.062,HW_LDT_1,2024.2.4,MacIntel,62.11180124,,,,,,,,,,,,,,,,,,,,,,1368.3437,1368.5419,1368.5419,1369.0423,,,,,,,,,,,,,,1.0378,1,,,,,,,,,,,,,,m,,,,,,,,,,,,,,,,132,0,1369.0429,1370.0934,m,1,1.0378,,[],[],[],[],[],[],[],1370.0935,1372.0931,1372.0931,1372.0932,[],[],[],[],[],[],[],,1372.0932,1372.0932,0.362022569,-0.188020833,0,0,0,,0,131,131,127,1,2,word,ORIGINAL,print,original_p.png,,,,,,
,,,,32014,001,2025-11-24_00h28.18.062,HW_LDT_1,2024.2.4,MacIntel,62.11180124,,,,,,,,,,,,,,,,,,,,,,1372.0937,1372.293,1372.293,1372.7934,,,,,,,,,,,,,,0.69,1,,,,,,,,,,,,,,z,,,,,,,,,,,,,,,,133,0,1372.7939,1373.4935,z,1,0.69,,[],[],[],[],[],[],[],1373.4935,1375.4925,1375.4926,1375.4927,[],[],[],[],[],[],[],,1375.4927,1375.4928,0.362022569,-0.188020833,0,0,0,,0,132,132,39,1,2,TL,aminal,print,aminal_p.png,,,,,,
,,,,32014,001,2025-11-24_00h28.18.062,HW_LDT_1,2024.2.4,MacIntel,62.11180124,,,,,,,,,,,,,,,,,,,,,,1375.4942,1375.6935,1375.6936,1376.1935,,,,,,,,,,,,,,1.7528,1,,,,,,,,,,,,,,m,,,,,,,,,,,,,,,,134,0,1376.1941,1377.9591,m,1,1.7528,,[],[],[],[],[],[],[],1377.9592,1379.9602,1379.9602,1379.9602,[],[],[],[],[],[],[],,1379.9602,1379.9605,0.362022569,-0.188020833,0,0,0,,0,133,133,156,1,2,word,TRIBUTE,cursive,tribute_c.png,,,,,,
,,,,32014,001,2025-11-24_00h28.18.062,HW_LDT_1,2024.2.4,MacIntel,62.11180124,,,,,,,,,,,,,,,,,,,,,,1379.9613,1380.1601,1380.1601,1380.6602,,,,,,,,,,,,,,1.2529,1,,,,,,,,,,,,,,m,,,,,,,,,,,,,,,,135,1,1380.661,1381.927,m,1,1.2529,,[],[],[],[],[],[],[],1381.9271,1383.9272,1383.9273,1385.627,[],[],[],[],[],[],[],z,1385.6271,1385.6271,0.362022569,-0.188020833,0,0,0,,0,134,134,80,1,2,word,ACADEMY,cursive,academy_c.png,1.6871,,,,,
,,,,32014,001,2025-11-24_00h28.18.062,HW_LDT_1,2024.2.4,MacIntel,62.11180124,,,,,,,,,,,,,,,,,,,,,,1385.6282,1385.827,1385.827,1386.3268,,,,,,,,,,,,,,1.2044,1,,,,,,,,,,,,,,m,,,,,,,,,,,,,,,,136,0,1386.3272,1387.5435,m,1,1.2044,,[],[],[],[],[],[],[],1387.5436,1389.5438,1389.5438,1389.544,[],[],[],[],[],[],[],,1389.544,1389.544,0.362022569,-0.188020833,0,0,0,,0,135,135,122,1,2,word,MOBILE,print,mobile_p.png,,,,,,
,,,,32014,001,2025-11-24_00h28.18.062,HW_LDT_1,2024.2.4,MacIntel,62.11180124,,,,,,,,,,,,,,,,,,,,,,1389.5448,1389.7438,1389.7439,1390.2438,,,,,,,,,,,,,,1.087,1,,,,,,,,,,,,,,m,,,,,,,,,,,,,,,,137,1,1390.2442,1391.3439,m,1,1.087,,[],[],[],[],[],[],[],1391.344,1393.3439,1393.344,1394.2272,[],[],[],[],[],[],[],z,1394.2272,1394.2272,0.362022569,-0.188020833,0,0,0,,0,136,136,139,1,2,word,REGULAR,cursive,regular_c.png,0.8821,,,,,
,,,,32014,001,2025-11-24_00h28.18.062,HW_LDT_1,2024.2.4,MacIntel,62.11180124,,,,,,,,,,,,,,,,,,,,,,1394.2282,1394.4272,1394.4272,1394.9272,,,,,,,,,,,,,,1.2152,1,,,,,,,,,,,,,,m,,,,,,,,,,,,,,,,138,0,1394.9276,1396.1439,m,1,1.2152,,[],[],[],[],[],[],[],1396.1439,1398.1442,1398.1442,1398.1445,[],[],[],[],[],[],[],,1398.1445,1398.1446,0.362022569,-0.188020833,0,0,0,,0,137,137,117,1,2,word,MARINE,cursive,marine_c.png,,,,,,
,,,,32014,001,2025-11-24_00h28.18.062,HW_LDT_1,2024.2.4,MacIntel,62.11180124,,,,,,,,,,,,,,,,,,,,,,1398.1456,1398.3441,1398.3441,1398.844,,,,,,,,,,,,,,1.3479,1,,,,,,,,,,,,,,m,,,,,,,,,,,,,,,,139,0,1398.8447,1400.194,m,1,1.3479,,[],[],[],[],[],[],[],1400.1941,1402.1938,1402.1939,1402.194,[],[],[],[],[],[],[],,1402.1941,1402.1942,0.362022569,-0.188020833,0,0,0,,0,138,138,147,1,2,word,ROMANTIC,print,romantic_p.png,,,,,,
,,,,32014,001,2025-11-24_00h28.18.062,HW_LDT_1,2024.2.4,MacIntel,62.11180124,,,,,,,,,,,,,,,,,,,,,,1402.195,1402.3943,1402.3943,1402.8942,,,,,,,,,,,,,,0.9034,1,,,,,,,,,,,,,,z,,,,,,,,,,,,,,,,140,0,1402.8949,1403.8111,z,1,0.9034,,[],[],[],[],[],[],[],1403.8111,1405.811,1405.811,1405.8113,[],[],[],[],[],[],[],,1405.8113,1405.8114,0.362022569,-0.188020833,0,0,0,,0,139,139,40,1,2,TL,bevoled,cursive,bevoled_c.png,,,,,,
,,,,32014,001,2025-11-24_00h28.18.062,HW_LDT_1,2024.2.4,MacIntel,62.11180124,,,,,,,,,,,,,,,,,,,,,,1405.8127,1406.011,1406.0111,1406.5109,,,,,,,,,,,,,,0.9371,1,,,,,,,,,,,,,,z,,,,,,,,,,,,,,,,141,0,1406.5114,1407.4611,z,1,0.9371,,[],[],[],[],[],[],[],1407.4612,1409.4611,1409.4611,1409.4613,[],[],[],[],[],[],[],,1409.4613,1409.4615,0.362022569,-0.188020833,0,0,0,,0,140,140,62,1,2,TL,opmital,cursive,opmital_c.png,,,,,,
,,,,32014,001,2025-11-24_00h28.18.062,HW_LDT_1,2024.2.4,MacIntel,62.11180124,,,,,,,,,,,,,,,,,,,,,,1409.4626,1409.6611,1409.6612,1410.1609,,,,,,,,,,,,,,2.3867,1,,,,,,,,,,,,,,z,,,,,,,,,,,,,,,,142,0,1410.1613,1412.5611,z,1,2.3867,,[],[],[],[],[],[],[],1412.5611,1414.561,1414.5611,1414.5612,[],[],[],[],[],[],[],,1414.5613,1414.5613,0.362022569,-0.188020833,0,0,0,,0,141,141,36,1,2,RL,vecelan,print,vecelan_p.png,,,,,,
,,,,32014,001,2025-11-24_00h28.18.062,HW_LDT_1,2024.2.4,MacIntel,62.11180124,,,,,,,,,,,,,,,,,,,,,,1414.5622,1414.7611,1414.7611,1415.2611,,,,,,,,,,,,,,1.5391,1,,,,,,,,,,,,,,z,,,,,,,,,,,,,,,,143,1,1415.2616,1416.8112,z,1,1.5391,,[],[],[],[],[],[],[],1416.8113,1418.8113,1418.8114,1420.0613,[],[],[],[],[],[],[],m,1420.0614,1420.0616,0.362022569,-0.188020833,0,0,0,,0,142,142,13,1,2,RL,helicage,print,helicage_p.png,1.2493,,,,,
,,,,32014,001,2025-11-24_00h28.18.062,HW_LDT_1,2024.2.4,MacIntel,62.11180124,,,,,,,,,,,,,,,,,,,,,,1420.0627,1420.2613,1420.2614,1420.7613,,,,,,,,,,,,,,1.6797,1,,,,,,,,,,,,,,m,,,,,,,,,,,,,,,,144,0,1420.762,1422.4437,m,1,1.6797,,[],[],[],[],[],[],[],1422.4437,1424.4437,1424.4438,1424.4439,[],[],[],[],[],[],[],,1424.4439,1424.4439,0.362022569,-0.188020833,0,0,0,,0,143,143,96,1,2,word,CONSIDER,print,consider_p.png,,,,,,
,,,,32014,001,2025-11-24_00h28.18.062,HW_LDT_1,2024.2.4,MacIntel,62.11180124,,,,,,,,,,,,,,,,,,,,,,1424.4448,1424.6447,1424.6447,1425.1448,,,,,,,,,,,,,,1.0226,0,,,,,,,,,,,,,,m,,,,,,,,,,,,,,,,145,0,1425.1452,1426.1781,z,0,1.0226,,[],[],[],[],[],[],[],1426.1782,1428.1784,1428.1784,1428.1786,[],[],[],[],[],[],[],,1428.1786,1428.1787,0.362022569,-0.188020833,0,0,0,,0,144,144,126,1,2,word,OPTIMAL,cursive,optimal_c.png,,,,,,
,,,,32014,001,2025-11-24_00h28.18.062,HW_LDT_1,2024.2.4,MacIntel,62.11180124,,,,,,,,,,,,,,,,,,,,,,1428.1798,1428.3782,1428.3783,1428.8783,,,,,,,,,,,,,,1.6729,1,,,,,,,,,,,,,,m,,,,,,,,,,,,,,,,146,0,1428.879,1430.5612,m,1,1.6729,,[],[],[],[],[],[],[],1430.5613,1432.5606,1432.5606,1432.5608,[],[],[],[],[],[],[],,1432.5609,1432.5609,0.362022569,-0.188020833,0,0,0,,0,145,145,87,1,2,word,CAFETERIA,print,cafeteria_p.png,,,,,,
,,,,32014,001,2025-11-24_00h28.18.062,HW_LDT_1,2024.2.4,MacIntel,62.11180124,,,,,,,,,,,,,,,,,,,,,,1432.5618,1432.7617,1432.7617,1433.2617,,,,,,,,,,,,,,2.1309,1,,,,,,,,,,,,,,m,,,,,,,,,,,,,,,,147,0,1433.2622,1435.3951,m,1,2.1309,,[],[],[],[],[],[],[],1435.3952,1437.3951,1437.3952,1437.3954,[],[],[],[],[],[],[],,1437.3956,1437.3957,0.362022569,-0.188020833,0,0,0,,0,146,146,82,1,2,word,AMATEUR,cursive,amateur_c.png,,,,,,
,,,,32014,001,2025-11-24_00h28.18.062,HW_LDT_1,2024.2.4,MacIntel,62.11180124,,,,,,,,,,,,,,,,,,,,,,1437.3967,1437.5953,1437.5953,1438.0951,,,,,,,,,,,,,,1.2816,1,,,,,,,,,,,,,,m,,,,,,,,,,,,,,,,148,0,1438.0956,1439.3785,m,1,1.2816,,[],[],[],[],[],[],[],1439.3786,1441.3785,1441.3786,1441.3787,[],[],[],[],[],[],[],,1441.3787,1441.3788,0.498940972,0.153012153,0,0,0,,0,147,147,84,1,2,word,BELOVED,cursive,beloved_c.png,,,,,,
,,,,32014,001,2025-11-24_00h28.18.062,HW_LDT_1,2024.2.4,MacIntel,62.11180124,,,,,,,,,,,,,,,,,,,,,,1441.3796,1441.5785,1441.5785,1442.0786,,,,,,,,,,,,,,1.0032,1,,,,,,,,,,,,,,m,,,,,,,,,,,,,,,,149,0,1442.079,1443.0953,m,1,1.0032,,[],[],[],[],[],[],[],1443.0953,1445.0955,1445.0956,1445.0957,[],[],[],[],[],[],[],,1445.0957,1445.0958,0.498940972,0.153012153,0,0,0,,0,148,148,89,1,2,word,CAPACITY,print,capacity_p.png,,,,,,
,,,,32014,001,2025-11-24_00h28.18.062,HW_LDT_1,2024.2.4,MacIntel,62.11180124,,,,,,,,,,,,,,,,,,,,,,1445.0969,1445.2954,1445.2954,1445.7954,,,,,,,,,,,,,,1.9562,1,,,,,,,,,,,,,,z,,,,,,,,,,,,,,,,150,0,1445.796,1447.7622,z,1,1.9562,,[],[],[],[],[],[],[],1447.7623,1449.7621,1449.7622,1449.7622,[],[],[],[],[],[],[],,1449.7622,1449.7623,0.498940972,0.153012153,0,0,0,,0,149,149,30,1,2,RL,selamor,print,selamor_p.png,,,,,,
,,,,32014,001,2025-11-24_00h28.18.062,HW_LDT_1,2024.2.4,MacIntel,62.11180124,,,,,,,,,,,,,,,,,,,,,,1449.7634,1449.9622,1449.9622,1450.4623,,,,,,,,,,,,,,1.2477,1,,,,,,,,,,,,,,z,,,,,,,,,,,,,,,,151,0,1450.4627,1451.7115,z,1,1.2477,,[],[],[],[],[],[],[],1451.7116,1453.7122,1453.7122,1453.7123,[],[],[],[],[],[],[],,1453.7124,1453.7125,0.498940972,0.153012153,0,0,0,,0,150,150,21,1,2,RL,pamest,print,pamest_p.png,,,,,,
,,,,32014,001,2025-11-24_00h28.18.062,HW_LDT_1,2024.2.4,MacIntel,62.11180124,,,,,,,,,,,,,,,,,,,,,,1453.7135,1453.9122,1453.9122,1454.4122,,,,,,,,,,,,,,1.1725,0,,,,,,,,,,,,,,m,,,,,,,,,,,,,,,,152,0,1454.4127,1455.5958,z,0,1.1725,,[],[],[],[],[],[],[],1455.5959,1457.5956,1457.5956,1457.5957,[],[],[],[],[],[],[],,1457.5958,1457.5959,0.498940972,0.153012153,0,0,0,,0,151,151,119,1,2,word,MEMORY,cursive,memory_c.png,,,,,,
,,,,32014,001,2025-11-24_00h28.18.062,HW_LDT_1,2024.2.4,MacIntel,62.11180124,,,,,,,,,,,,,,,,,,,,,,1457.5968,1457.7957,1457.7957,1458.2947,,,,,,,,,,,,,,1.2074,1,,,,,,,,,,,,,,z,,,,,,,,,,,,,,,,153,1,1458.2951,1459.5124,z,1,1.2074,,[],[],[],[],[],[],[],1459.5125,1461.5125,1461.5125,1462.5614,[],[],[],[],[],[],[],z,1462.5614,1462.5616,0.498940972,0.153012153,0,0,0,,0,152,152,20,1,2,RL,onegator,cursive,onegator_c.png,1.0484,,,,,
,,,,32014,001,2025-11-24_00h28.18.062,HW_LDT_1,2024.2.4,MacIntel,62.11180124,,,,,,,,,,,,,,,,,,,,,,1462.5622,1462.7614,1462.7615,1463.2625,,,,,,,,,,,,,,1.3621,1,,,,,,,,,,,,,,m,,,,,,,,,,,,,,,,154,0,1463.263,1464.6289,m,1,1.3621,,[],[],[],[],[],[],[],1464.6289,1466.6282,1466.6282,1466.6283,[],[],[],[],[],[],[],,1466.6283,1466.6284,0.498940972,0.153012153,0,0,0,,0,153,153,81,1,2,word,ADVISORY,print,advisory_p.png,,,,,,
,,,,32014,001,2025-11-24_00h28.18.062,HW_LDT_1,2024.2.4,MacIntel,62.11180124,,,,,,,,,,,,,,,,,,,,,,1466.6293,1466.8292,1466.8292,1467.3294,,,,,,,,,,,,,,1.0963,0,,,,,,,,,,,,,,m,,,,,,,,,,,,,,,,155,0,1467.3299,1468.4282,z,0,1.0963,,[],[],[],[],[],[],[],1468.4283,1470.4283,1470.4283,1470.4284,[],[],[],[],[],[],[],,1470.4285,1470.4286,0.498940972,0.153012153,0,0,0,,0,154,154,146,1,2,word,RETIRE,cursive,retire_c.png,,,,,,
,,,,32014,001,2025-11-24_00h28.18.062,HW_LDT_1,2024.2.4,MacIntel,62.11180124,,,,,,,,,,,,,,,,,,,,,,1470.4294,1470.6293,1470.6294,1471.1294,,,,,,,,,,,,,,0.9367,1,,,,,,,,,,,,,,z,,,,,,,,,,,,,,,,156,0,1471.1299,1472.0794,z,1,0.9367,,[],[],[],[],[],[],[],1472.0795,1474.0787,1474.0787,1474.0789,[],[],[],[],[],[],[],,1474.0789,1474.079,0.498940972,0.153012153,0,0,0,,0,155,155,69,1,2,TL,resufal,cursive,resufal_c.png,,,,,,
,,,,32014,001,2025-11-24_00h28.18.062,HW_LDT_1,2024.2.4,MacIntel,62.11180124,,,,,,,,,,,,,,,,,,,,,,1474.0801,1474.2784,1474.2785,1474.7794,,,,,,,,,,,,,,0.7569,1,,,,,,,,,,,,,,z,,,,,,,,,,,,,,,,157,0,1474.7799,1475.5462,z,1,0.7569,,[],[],[],[],[],[],[],1475.5463,1477.5462,1477.5463,1477.5463,[],[],[],[],[],[],[],,1477.5464,1477.5464,0.498940972,0.153012153,0,0,0,,0,156,156,43,1,2,TL,carema,print,carema_p.png,,,,,,
,,,,32014,001,2025-11-24_00h28.18.062,HW_LDT_1,2024.2.4,MacIntel,62.11180124,,,,,,,,,,,,,,,,,,,,,,1477.5473,1477.7451,1477.7453,1478.2462,,,,,,,,,,,,,,0.7574,1,,,,,,,,,,,,,,m,,,,,,,,,,,,,,,,158,0,1478.2467,1479.0131,m,1,0.7574,,[],[],[],[],[],[],[],1479.0131,1481.0129,1481.013,1481.0131,[],[],[],[],[],[],[],,1481.0131,1481.0132,0.498940972,0.153012153,0,0,0,,0,157,157,152,1,2,word,SPECIMEN,print,specimen_p.png,,,,,,
,,,,32014,001,2025-11-24_00h28.18.062,HW_LDT_1,2024.2.4,MacIntel,62.11180124,,,,,,,,,,,,,,,,,,,,,,1481.014,1481.213,1481.213,1481.713,,,,,,,,,,,,,,0.6314,1,,,,,,,,,,,,,,z,,,,,,,,,,,,,,,,159,0,1481.7134,1482.3463,z,1,0.6314,,[],[],[],[],[],[],[],1482.3463,1484.3457,1484.3458,1484.3459,[],[],[],[],[],[],[],,1484.3459,1484.3459,0.498940972,0.153012153,0,0,0,,0,158,158,61,1,2,TL,nuremical,cursive,nuremical_c.png,,,,,,
,,,,32014,001,2025-11-24_00h28.18.062,HW_LDT_1,2024.2.4,MacIntel,62.11180124,,,,,,,,,,,,,,,,,,,,,,1484.3468,1484.5464,1484.5465,1485.0464,,,,,,,,,,,,,,1.2865,1,,,,,,,,,,,,,,z,,,,,,,,,,,,,,,,160,0,1485.0469,1486.3465,z,1,1.2865,,[],[],[],[],[],[],[],1486.3465,1488.3455,1488.3456,1488.3457,[],[],[],[],[],[],[],,1488.3457,1488.3458,0.498940972,0.153012153,0,0,0,,0,159,159,71,1,2,TL,retome,cursive,retome_c.png,,,,,,
,,,,32014,001,2025-11-24_00h28.18.062,HW_LDT_1,2024.2.4,MacIntel,62.11180124,,,,,,,,,,,,,,,,,,,,,,,,,,,,,,,,,,,,,,,,,,,,,,,,,,,,,,,,,,,,,,,,,,,,,,,,,,,,,,,,,,,,,,,,,,,,,,,,,,,,,,,,,,,,,,,,,,,,,,,1488.3567,1493.3468
