counterbalance_lists.group,counterbalance_lists.remaining,get_list.started,get_list.stopped,participant,session,date,expName,psychopyVersion,OS,frameRate,Instructions.started,Instructions.stopped,key_resp.keys,key_resp.rt,key_resp.duration,instr_done_touch.x,instr_done_touch.y,instr_done_touch.leftButton,instr_done_touch.midButton,instr_done_touch.rightButton,start_instr.thisRepN,start_instr.thisTrialN,start_instr.thisN,start_instr.thisIndex,start_instr.ran,pageN,phase,instruct_text,has_image,instruct_image,showProgress.started,showProgress.stopped,fix.started,fix.stopped,prac.started,prac.stopped,response.keys,response.corr,response.rt,response.duration,touch_resp.x,touch_resp.y,touch_resp.leftButton,touch_resp.midButton,touch_resp.rightButton,touch_resp.time,touch_resp.clicked_name,rt,corr,feedback.started,feedback.stopped,trials.thisRepN,trials.thisTrialN,trials.thisN,trials.thisIndex,trials.ran,TrialID,StimulusType,Condition,PrimeDuration,Prime,Target,corrAns,Instructions_expt.started,Instructions_expt.stopped,key_resp_3.keys,key_resp_3.rt,key_resp_3.duration,instr_done_touch_3.x,instr_done_touch_3.y,instr_done_touch_3.leftButton,instr_done_touch_3.midButton,instr_done_touch_3.rightButton,instr_experiment.thisRepN,instr_experiment.thisTrialN,instr_experiment.thisN,instr_experiment.thisIndex,instr_experiment.ran,trialID,flag,maintask.started,maintask.stopped,key_resp_2.keys,key_resp_2.corr,key_resp_2.rt,key_resp_2.duration,targ_click.x,targ_click.y,targ_click.leftButton,targ_click.midButton,targ_click.rightButton,targ_click.time,targ_click.clicked_name,ITI.started,ITI.stopped,probe.started,probe.stopped,click_probe.x,click_probe.y,click_probe.leftButton,click_probe.midButton,click_probe.rightButton,click_probe.time,click_probe.clicked_name,key_resp_probe.keys,Break.started,Break.stopped,break_done_touch.x,break_done_touch.y,break_done_touch.leftButton,break_done_touch.midButton,break_done_touch.rightButton,break_done_keyboard.keys,list1_trials.thisRepN,list1_trials.thisTrialN,list1_trials.thisN,list1_trials.thisIndex,list1_trials.ran,list_id,item_type,string,font,stim_file,key_resp_probe.rt,key_resp_probe.duration,break_done_keyboard.rt,break_done_keyboard.duration,End.started,End.stopped
list1,,0.4201,0.4202,32024,001,2025-11-08_17h13.47.750,HW_LDT_1,2024.2.4,MacIntel,120.4819277,,,,,,,,,,,,,,,,,,,,,,,,,,,,,,,,,,,,,,,,,,,,,,,,,,,,,,,,,,,,,,,,,,,,,,,,,,,,,,,,,,,,,,,,,,,,,,,,,,,,,,,,,,,,,,,,,,,,,,,
,,,,32024,001,2025-11-08_17h13.47.750,HW_LDT_1,2024.2.4,MacIntel,120.4819277,0.4307,25.5744,space,25.1267,,-0.148210152,-0.166307044,0,0,0,0,0,0,0,1,1,instructions,"INSTRUCTIONS
At the start of each trial, look at the plus sign  (+) in the center of the screen.  This tells you that a trial is about to begin and where to look. Second, the plus sign will disappear and a string of letters will appear. Your task is to determine if the string of letters is a word or not. If the item is a word press the M key (on keyboard)  or touch the word button (phone/tablet).  If the item is not a word,  press the  Z key (on keyboard)  or touch the nonword button (on phone/tablet). The items will be presented for a short time. 
Press the space bar or touch  continue.",0,,,,,,,,,,,,,,,,,,,,,,,,,,,,,,,,,,,,,,,,,,,,,,,,,,,,,,,,,,,,,,,,,,,,,,,,,,,,,,,,,,,,,,,,,,,,,,,,,,,,
,,,,32024,001,2025-11-08_17h13.47.750,HW_LDT_1,2024.2.4,MacIntel,120.4819277,25.576,32.7489,space,7.1561,,-0.148210152,-0.166307044,0,0,0,0,1,1,1,1,2,instructions,"If your device has a keyboard, press the 'Z' key for nonwords and the 'M' key for words.





Press the space bar or touch the button below to continue.",0,keyboard-example.gif,,,,,,,,,,,,,,,,,,,,,,,,,,,,,,,,,,,,,,,,,,,,,,,,,,,,,,,,,,,,,,,,,,,,,,,,,,,,,,,,,,,,,,,,,,,,,,,,,,,
,,,,32024,001,2025-11-08_17h13.47.750,HW_LDT_1,2024.2.4,MacIntel,120.4819277,32.7502,36.8156,space,4.0482,,-0.148210152,-0.166307044,0,0,0,0,2,2,2,1,3,instructions,"If you are using a touchscreen only device, use the buttons on the screen. Do not use the mouse.





Press the space bar or touch the button below to continue.",0,touchscreen-example.gif,,,,,,,,,,,,,,,,,,,,,,,,,,,,,,,,,,,,,,,,,,,,,,,,,,,,,,,,,,,,,,,,,,,,,,,,,,,,,,,,,,,,,,,,,,,,,,,,,,,
,,,,32024,001,2025-11-08_17h13.47.750,HW_LDT_1,2024.2.4,MacIntel,120.4819277,36.8175,45.7742,space,8.9426,,-0.148210152,-0.166307044,0,0,0,0,3,3,3,1,4,instructions,"It is very important that you respond as quickly and accurately as possible, as each letter string will only be on the screen for two seconds. If you do not respond within this time, the message 'Too slow!' will be displayed and the experiment will progress to the next letter string. The first 20 trials will be practice trials and you will receive feedback on your answers. 

Press the space bar or touch the button below to start the practice trials.",0,,,,,,,,,,,,,,,,,,,,,,,,,,,,,,,,,,,,,,,,,,,,,,,,,,,,,,,,,,,,,,,,,,,,,,,,,,,,,,,,,,,,,,,,,,,,,,,,,,,,
,,,,32024,001,2025-11-08_17h13.47.750,HW_LDT_1,2024.2.4,MacIntel,120.4819277,,,,,,,,,,,,,,,,,,,,,45.7974,45.973,45.9733,46.4738,46.474,47.5655,z,1,1.0752,,[],[],[],[],[],[],[],1.0752,1,47.5658,48.0655,0,0,0,12,1,1013,NW,UN,33,adveil,SPRINY,z,,,,,,,,,,,,,,,,,,,,,,,,,,,,,,,,,,,,,,,,,,,,,,,,,,,,,,,,,,,,,,,,,,
,,,,32024,001,2025-11-08_17h13.47.750,HW_LDT_1,2024.2.4,MacIntel,120.4819277,,,,,,,,,,,,,,,,,,,,,48.0665,48.265,48.2651,48.7652,48.766,49.548,m,1,0.7697,,[],[],[],[],[],[],[],0.7697,1,49.5481,50.0486,0,1,1,5,1,1006,WORD,UN,33,frenzy,OBTAIN,m,,,,,,,,,,,,,,,,,,,,,,,,,,,,,,,,,,,,,,,,,,,,,,,,,,,,,,,,,,,,,,,,,,
,,,,32024,001,2025-11-08_17h13.47.750,HW_LDT_1,2024.2.4,MacIntel,120.4819277,,,,,,,,,,,,,,,,,,,,,50.0496,50.2486,50.2487,50.7485,50.7493,51.2737,m,1,0.5116,,[],[],[],[],[],[],[],0.5116,1,51.2739,51.7736,0,2,2,4,1,1005,WORD,UN,33,abound,SQUEAK,m,,,,,,,,,,,,,,,,,,,,,,,,,,,,,,,,,,,,,,,,,,,,,,,,,,,,,,,,,,,,,,,,,,
,,,,32024,001,2025-11-08_17h13.47.750,HW_LDT_1,2024.2.4,MacIntel,120.4819277,,,,,,,,,,,,,,,,,,,,,51.7747,51.9736,51.9736,52.4735,52.4743,53.2401,z,1,0.752,,[],[],[],[],[],[],[],0.752,1,53.2402,53.7402,0,3,3,9,1,1010,NW,"ID",33,fariny,FARINY,z,,,,,,,,,,,,,,,,,,,,,,,,,,,,,,,,,,,,,,,,,,,,,,,,,,,,,,,,,,,,,,,,,,
,,,,32024,001,2025-11-08_17h13.47.750,HW_LDT_1,2024.2.4,MacIntel,120.4819277,,,,,,,,,,,,,,,,,,,,,53.7413,53.9401,53.9402,54.4394,54.4401,55.1653,z,1,0.7105,,[],[],[],[],[],[],[],0.7105,1,55.1654,55.6647,0,4,4,10,1,1011,NW,"ID",16,inlade,INLADE,z,,,,,,,,,,,,,,,,,,,,,,,,,,,,,,,,,,,,,,,,,,,,,,,,,,,,,,,,,,,,,,,,,,
,,,,32024,001,2025-11-08_17h13.47.750,HW_LDT_1,2024.2.4,MacIntel,120.4819277,,,,,,,,,,,,,,,,,,,,,55.6657,55.8651,55.8651,56.3652,56.3661,56.9905,z,1,0.6095,,[],[],[],[],[],[],[],0.6095,1,56.9907,57.4902,0,5,5,11,1,1012,NW,"ID",16,rashet,RASHET,z,,,,,,,,,,,,,,,,,,,,,,,,,,,,,,,,,,,,,,,,,,,,,,,,,,,,,,,,,,,,,,,,,,
,,,,32024,001,2025-11-08_17h13.47.750,HW_LDT_1,2024.2.4,MacIntel,120.4819277,,,,,,,,,,,,,,,,,,,,,57.4912,57.6901,57.6902,58.1901,58.1907,58.9149,z,1,0.7119,,[],[],[],[],[],[],[],0.7119,1,58.915,59.4152,0,6,6,8,1,1009,NW,"ID",33,aslert,ASLERT,z,,,,,,,,,,,,,,,,,,,,,,,,,,,,,,,,,,,,,,,,,,,,,,,,,,,,,,,,,,,,,,,,,,
,,,,32024,001,2025-11-08_17h13.47.750,HW_LDT_1,2024.2.4,MacIntel,120.4819277,,,,,,,,,,,,,,,,,,,,,59.4163,59.6152,59.6152,60.1145,60.1153,60.5984,m,1,0.4719,,[],[],[],[],[],[],[],0.4719,1,60.5986,61.0983,0,7,7,6,1,1007,WORD,UN,16,tropic,ZOMBIE,m,,,,,,,,,,,,,,,,,,,,,,,,,,,,,,,,,,,,,,,,,,,,,,,,,,,,,,,,,,,,,,,,,,
,,,,32024,001,2025-11-08_17h13.47.750,HW_LDT_1,2024.2.4,MacIntel,120.4819277,,,,,,,,,,,,,,,,,,,,,61.0993,61.298,61.2981,61.7985,61.7992,62.3319,m,1,0.5179,,[],[],[],[],[],[],[],0.5179,1,62.3319,62.8318,0,8,8,2,1,1003,WORD,"ID",16,almond,ALMOND,m,,,,,,,,,,,,,,,,,,,,,,,,,,,,,,,,,,,,,,,,,,,,,,,,,,,,,,,,,,,,,,,,,,
,,,,32024,001,2025-11-08_17h13.47.750,HW_LDT_1,2024.2.4,MacIntel,120.4819277,,,,,,,,,,,,,,,,,,,,,62.8329,63.0317,63.0318,63.5317,63.5322,64.1566,z,1,0.6155,,[],[],[],[],[],[],[],0.6155,1,64.1568,64.6568,0,9,9,13,1,1014,NW,UN,33,winfer,ROUPET,z,,,,,,,,,,,,,,,,,,,,,,,,,,,,,,,,,,,,,,,,,,,,,,,,,,,,,,,,,,,,,,,,,,
,,,,32024,001,2025-11-08_17h13.47.750,HW_LDT_1,2024.2.4,MacIntel,120.4819277,,,,,,,,,,,,,,,,,,,,,64.6579,64.8564,64.8565,65.3566,65.3575,66.0726,m,1,0.7024,,[],[],[],[],[],[],[],0.7024,1,66.0726,66.5734,0,10,10,3,1,1004,WORD,"ID",16,matrix,MATRIX,m,,,,,,,,,,,,,,,,,,,,,,,,,,,,,,,,,,,,,,,,,,,,,,,,,,,,,,,,,,,,,,,,,,
,,,,32024,001,2025-11-08_17h13.47.750,HW_LDT_1,2024.2.4,MacIntel,120.4819277,,,,,,,,,,,,,,,,,,,,,66.5743,66.7734,66.7734,67.2733,67.2739,68.0485,z,1,0.7599,,[],[],[],[],[],[],[],0.7599,1,68.0488,68.5484,0,11,11,14,1,1015,NW,UN,16,miaber,THRALE,z,,,,,,,,,,,,,,,,,,,,,,,,,,,,,,,,,,,,,,,,,,,,,,,,,,,,,,,,,,,,,,,,,,
,,,,32024,001,2025-11-08_17h13.47.750,HW_LDT_1,2024.2.4,MacIntel,120.4819277,,,,,,,,,,,,,,,,,,,,,68.5493,68.7485,68.7486,69.2483,69.2489,70.0146,z,1,0.7529,,[],[],[],[],[],[],[],0.7529,1,70.0149,70.5147,0,12,12,15,1,1016,NW,UN,16,mushed,WHAISE,z,,,,,,,,,,,,,,,,,,,,,,,,,,,,,,,,,,,,,,,,,,,,,,,,,,,,,,,,,,,,,,,,,,
,,,,32024,001,2025-11-08_17h13.47.750,HW_LDT_1,2024.2.4,MacIntel,120.4819277,,,,,,,,,,,,,,,,,,,,,70.5156,70.7146,70.7147,71.215,71.2157,71.8317,m,1,0.602,,[],[],[],[],[],[],[],0.602,1,71.8318,72.3312,0,13,13,0,1,1001,WORD,"ID",33,utopia,UTOPIA,m,,,,,,,,,,,,,,,,,,,,,,,,,,,,,,,,,,,,,,,,,,,,,,,,,,,,,,,,,,,,,,,,,,
,,,,32024,001,2025-11-08_17h13.47.750,HW_LDT_1,2024.2.4,MacIntel,120.4819277,,,,,,,,,,,,,,,,,,,,,72.3321,72.5317,72.5317,73.0316,73.0324,73.6482,m,1,0.6053,,[],[],[],[],[],[],[],0.6053,1,73.6483,74.1484,0,14,14,1,1,1002,WORD,"ID",33,adjust,ADJUST,m,,,,,,,,,,,,,,,,,,,,,,,,,,,,,,,,,,,,,,,,,,,,,,,,,,,,,,,,,,,,,,,,,,
,,,,32024,001,2025-11-08_17h13.47.750,HW_LDT_1,2024.2.4,MacIntel,120.4819277,,,,,,,,,,,,,,,,,,,,,74.1492,74.3482,74.3482,74.8482,74.8491,75.331,m,1,0.4693,,[],[],[],[],[],[],[],0.4693,1,75.3312,75.8318,0,15,15,7,1,1008,WORD,UN,16,hurdle,VOLUME,m,,,,,,,,,,,,,,,,,,,,,,,,,,,,,,,,,,,,,,,,,,,,,,,,,,,,,,,,,,,,,,,,,,
,,,,32024,001,2025-11-08_17h13.47.750,HW_LDT_1,2024.2.4,MacIntel,120.4819277,,,,,,,,,,,,,,,,1,end_of_practice,"You have completed the practice trials. During the experimental trials, you will not receive feedback. On some trials you will be asked to report whether the item you just saw was in cursive or print. 
Before you begin, please ensure that you are in a comfortable and quiet location and will not be disturbed for about 15 minutes, as we cannot use your data if you do not complete all the trials. 
 When you are ready to start the experimental trials, please press space or touch the button below.",,,,,,,,,,,,,,,,,,,,,,,,,,,,,,,,,,,,75.8369,89.5403,space,13.6875,,-0.148210152,-0.166307044,0,0,0,0,0,0,0,1,,,,,,,,,,,,,,,,,,,,,,,,,,,,,,,,,,,,,,,,,,,,,,,,,,,
,,,,32024,001,2025-11-08_17h13.47.750,HW_LDT_1,2024.2.4,MacIntel,120.4819277,,,,,,,,,,,,,,,,,,,,,89.5487,89.7398,89.7399,90.2398,,,,,,,,,,,,,,1.086,1,,,,,,,,,,,,,,z,,,,,,,,,,,,,,,,1,0,90.2407,91.3319,z,1,1.086,,[],[],[],[],[],[],[],91.3322,93.3317,93.332,93.3348,[],[],[],[],[],[],[],,93.3348,93.336,-0.148210152,-0.166307044,0,0,0,,0,0,0,67,1,1,TL,pocily,cursive,pocily_c.png,,,,,,
,,,,32024,001,2025-11-08_17h13.47.750,HW_LDT_1,2024.2.4,MacIntel,120.4819277,,,,,,,,,,,,,,,,,,,,,93.3366,93.5316,93.5316,94.0314,,,,,,,,,,,,,,1.137,0,,,,,,,,,,,,,,m,,,,,,,,,,,,,,,,2,0,94.0318,95.1732,z,0,1.137,,[],[],[],[],[],[],[],95.1732,97.1731,97.1732,97.1733,[],[],[],[],[],[],[],,97.1733,97.1734,-0.148210152,-0.166307044,0,0,0,,0,1,1,125,1,1,word,OPERATOR,cursive,operator_c.png,,,,,,
,,,,32024,001,2025-11-08_17h13.47.750,HW_LDT_1,2024.2.4,MacIntel,120.4819277,,,,,,,,,,,,,,,,,,,,,97.1742,97.3731,97.3731,97.8722,,,,,,,,,,,,,,0.8716,0,,,,,,,,,,,,,,z,,,,,,,,,,,,,,,,3,0,97.8727,98.7482,m,0,0.8716,,[],[],[],[],[],[],[],98.7483,100.748,100.7481,100.7483,[],[],[],[],[],[],[],,100.7483,100.7483,-0.148210152,-0.166307044,0,0,0,,0,2,2,58,1,1,TL,incidate,cursive,incidate_c.png,,,,,,
,,,,32024,001,2025-11-08_17h13.47.750,HW_LDT_1,2024.2.4,MacIntel,120.4819277,,,,,,,,,,,,,,,,,,,,,100.7492,100.948,100.9481,101.4479,,,,,,,,,,,,,,1.9786,1,,,,,,,,,,,,,,z,,,,,,,,,,,,,,,,4,1,101.4484,103.4317,z,1,1.9786,,[],[],[],[],[],[],[],103.4318,105.4314,105.4314,107.8732,[],[],[],[],[],[],[],z,107.8733,107.8734,-0.148210152,-0.166307044,0,0,0,,0,3,3,59,1,1,TL,lirebal,cursive,lirebal_c.png,2.4367,,,,,
,,,,32024,001,2025-11-08_17h13.47.750,HW_LDT_1,2024.2.4,MacIntel,120.4819277,,,,,,,,,,,,,,,,,,,,,107.8744,108.073,108.073,108.5729,,,,,,,,,,,,,,0.9444,0,,,,,,,,,,,,,,z,,,,,,,,,,,,,,,,5,0,108.5735,109.5231,m,0,0.9444,,[],[],[],[],[],[],[],109.5231,111.523,111.523,111.5233,[],[],[],[],[],[],[],,111.5233,111.5234,-0.148210152,-0.166307044,0,0,0,,0,4,4,79,1,1,TL,veretan,print,veretan_p.png,,,,,,
,,,,32024,001,2025-11-08_17h13.47.750,HW_LDT_1,2024.2.4,MacIntel,120.4819277,,,,,,,,,,,,,,,,,,,,,111.5242,111.723,111.7231,112.2231,,,,,,,,,,,,,,3.1109,1,,,,,,,,,,,,,,z,,,,,,,,,,,,,,,,6,0,112.2237,115.3397,z,1,3.1109,,[],[],[],[],[],[],[],115.3398,117.3396,117.3397,117.3399,[],[],[],[],[],[],[],,117.34,117.3401,-0.148210152,-0.166307044,0,0,0,,0,5,5,52,1,1,TL,decilate,cursive,decilate_c.png,,,,,,
,,,,32024,001,2025-11-08_17h13.47.750,HW_LDT_1,2024.2.4,MacIntel,120.4819277,,,,,,,,,,,,,,,,,,,,,117.3409,117.5395,117.5396,118.0397,,,,,,,,,,,,,,3.7705,1,,,,,,,,,,,,,,z,,,,,,,,,,,,,,,,7,0,118.0402,121.8145,z,1,3.7705,,[],[],[],[],[],[],[],121.8147,123.8139,123.8141,123.8142,[],[],[],[],[],[],[],,123.8144,123.8145,-0.148210152,-0.166307044,0,0,0,,0,6,6,36,1,1,RL,speniven,cursive,speniven_c.png,,,,,,
,,,,32024,001,2025-11-08_17h13.47.750,HW_LDT_1,2024.2.4,MacIntel,120.4819277,,,,,,,,,,,,,,,,,,,,,123.8156,124.0145,124.0146,124.5142,,,,,,,,,,,,,,1.1227,1,,,,,,,,,,,,,,m,,,,,,,,,,,,,,,,8,0,124.5146,125.6395,m,1,1.1227,,[],[],[],[],[],[],[],125.6395,127.6395,127.6395,127.6397,[],[],[],[],[],[],[],,127.6397,127.6398,-0.148210152,-0.166307044,0,0,0,,0,7,7,90,1,1,word,CAPITAL,print,capital_p.png,,,,,,
,,,,32024,001,2025-11-08_17h13.47.750,HW_LDT_1,2024.2.4,MacIntel,120.4819277,,,,,,,,,,,,,,,,,,,,,127.6406,127.8395,127.8396,128.3395,,,,,,,,,,,,,,1.4991,1,,,,,,,,,,,,,,z,,,,,,,,,,,,,,,,9,0,128.3399,129.8398,z,1,1.4991,,[],[],[],[],[],[],[],129.84,131.8395,131.8395,131.8396,[],[],[],[],[],[],[],,131.8397,131.8398,-0.148210152,-0.166307044,0,0,0,,0,8,8,4,1,1,RL,carminal,print,carminal_p.png,,,,,,
,,,,32024,001,2025-11-08_17h13.47.750,HW_LDT_1,2024.2.4,MacIntel,120.4819277,,,,,,,,,,,,,,,,,,,,,131.8405,132.0389,132.0389,132.5394,,,,,,,,,,,,,,0.6702,1,,,,,,,,,,,,,,m,,,,,,,,,,,,,,,,10,0,132.5398,133.2137,m,1,0.6702,,[],[],[],[],[],[],[],133.2138,135.2143,135.2144,135.2145,[],[],[],[],[],[],[],,135.2145,135.2147,-0.148210152,-0.166307044,0,0,0,,0,9,9,100,1,1,word,DECADE,print,decade_p.png,,,,,,
,,,,32024,001,2025-11-08_17h13.47.750,HW_LDT_1,2024.2.4,MacIntel,120.4819277,,,,,,,,,,,,,,,,,,,,,135.2156,135.4138,135.4139,135.9144,,,,,,,,,,,,,,1.3035,1,,,,,,,,,,,,,,m,,,,,,,,,,,,,,,,11,1,135.9149,137.2221,m,1,1.3035,,[],[],[],[],[],[],[],137.2223,139.2226,139.2227,140.8729,[],[],[],[],[],[],[],z,140.8731,140.8733,-0.148210152,-0.166307044,0,0,0,,0,10,10,147,1,1,word,ROMANTIC,cursive,romantic_c.png,1.6463,,,,,
,,,,32024,001,2025-11-08_17h13.47.750,HW_LDT_1,2024.2.4,MacIntel,120.4819277,,,,,,,,,,,,,,,,,,,,,140.874,141.0727,141.0727,141.5727,,,,,,,,,,,,,,1.0787,1,,,,,,,,,,,,,,z,,,,,,,,,,,,,,,,12,0,141.5731,142.656,z,1,1.0787,,[],[],[],[],[],[],[],142.656,144.656,144.6561,144.6563,[],[],[],[],[],[],[],,144.6564,144.6564,-0.148210152,-0.166307044,0,0,0,,0,11,11,34,1,1,RL,samite,print,samite_p.png,,,,,,
,,,,32024,001,2025-11-08_17h13.47.750,HW_LDT_1,2024.2.4,MacIntel,120.4819277,,,,,,,,,,,,,,,,,,,,,144.6573,144.856,144.8561,145.356,,,,,,,,,,,,,,0.6287,1,,,,,,,,,,,,,,m,,,,,,,,,,,,,,,,13,0,145.3564,145.9894,m,1,0.6287,,[],[],[],[],[],[],[],145.9895,147.9892,147.9894,147.9895,[],[],[],[],[],[],[],,147.9896,147.9897,-0.148210152,-0.166307044,0,0,0,,0,12,12,133,1,1,word,PROVIDE,print,provide_p.png,,,,,,
,,,,32024,001,2025-11-08_17h13.47.750,HW_LDT_1,2024.2.4,MacIntel,120.4819277,,,,,,,,,,,,,,,,,,,,,147.9907,148.1895,148.1895,148.6894,,,,,,,,,,,,,,0.6241,1,,,,,,,,,,,,,,m,,,,,,,,,,,,,,,,14,0,148.6899,149.3149,m,1,0.6241,,[],[],[],[],[],[],[],149.315,151.3143,151.3143,151.3144,[],[],[],[],[],[],[],,151.3144,151.3145,-0.148210152,-0.166307044,0,0,0,,0,13,13,142,1,1,word,REMOTE,print,remote_p.png,,,,,,
,,,,32024,001,2025-11-08_17h13.47.750,HW_LDT_1,2024.2.4,MacIntel,120.4819277,,,,,,,,,,,,,,,,,,,,,151.3154,151.5142,151.5142,152.0143,,,,,,,,,,,,,,1.7119,1,,,,,,,,,,,,,,z,,,,,,,,,,,,,,,,15,0,152.0147,153.731,z,1,1.7119,,[],[],[],[],[],[],[],153.7311,155.7309,155.7309,155.7311,[],[],[],[],[],[],[],,155.7312,155.7313,-0.148210152,-0.166307044,0,0,0,,0,14,14,55,1,1,TL,fornute,print,fornute_p.png,,,,,,
,,,,32024,001,2025-11-08_17h13.47.750,HW_LDT_1,2024.2.4,MacIntel,120.4819277,,,,,,,,,,,,,,,,,,,,,155.7322,155.9309,155.931,156.4308,,,,,,,,,,,,,,0.9783,1,,,,,,,,,,,,,,m,,,,,,,,,,,,,,,,16,0,156.4313,157.4144,m,1,0.9783,,[],[],[],[],[],[],[],157.4144,159.4137,159.4137,159.4139,[],[],[],[],[],[],[],,159.414,159.4141,-0.148210152,-0.166307044,0,0,0,,0,15,15,116,1,1,word,MARGINAL,print,marginal_p.png,,,,,,
,,,,32024,001,2025-11-08_17h13.47.750,HW_LDT_1,2024.2.4,MacIntel,120.4819277,,,,,,,,,,,,,,,,,,,,,159.4147,159.6142,159.6143,160.1143,,,,,,,,,,,,,,0.7034,1,,,,,,,,,,,,,,m,,,,,,,,,,,,,,,,17,0,160.1149,160.8222,m,1,0.7034,,[],[],[],[],[],[],[],160.8223,162.8183,162.8184,162.8185,[],[],[],[],[],[],[],,162.8186,162.8186,-0.148210152,-0.166307044,0,0,0,,0,16,16,85,1,1,word,BENEFIT,print,benefit_p.png,,,,,,
,,,,32024,001,2025-11-08_17h13.47.750,HW_LDT_1,2024.2.4,MacIntel,120.4819277,,,,,,,,,,,,,,,,,,,,,162.8196,163.0185,163.0186,163.5183,,,,,,,,,,,,,,0.633,1,,,,,,,,,,,,,,m,,,,,,,,,,,,,,,,18,0,163.5186,164.1561,m,1,0.633,,[],[],[],[],[],[],[],164.1562,166.1558,166.1558,166.156,[],[],[],[],[],[],[],,166.1561,166.1562,-0.148210152,-0.166307044,0,0,0,,0,17,17,114,1,1,word,LOCATE,print,locate_p.png,,,,,,
,,,,32024,001,2025-11-08_17h13.47.750,HW_LDT_1,2024.2.4,MacIntel,120.4819277,,,,,,,,,,,,,,,,,,,,,166.157,166.3559,166.356,166.8557,,,,,,,,,,,,,,0.7131,1,,,,,,,,,,,,,,m,,,,,,,,,,,,,,,,19,0,166.8561,167.5723,m,1,0.7131,,[],[],[],[],[],[],[],167.5724,169.5724,169.5724,169.5726,[],[],[],[],[],[],[],,169.5726,169.5728,-0.148210152,-0.166307044,0,0,0,,0,18,18,123,1,1,word,MODERATE,print,moderate_p.png,,,,,,
,,,,32024,001,2025-11-08_17h13.47.750,HW_LDT_1,2024.2.4,MacIntel,120.4819277,,,,,,,,,,,,,,,,,,,,,169.5737,169.7724,169.7725,170.2725,,,,,,,,,,,,,,0.9567,1,,,,,,,,,,,,,,m,,,,,,,,,,,,,,,,20,0,170.2729,171.235,m,1,0.9567,,[],[],[],[],[],[],[],171.235,173.235,173.2351,173.2353,[],[],[],[],[],[],[],,173.2354,173.2354,-0.148210152,-0.166307044,0,0,0,,0,19,19,91,1,1,word,CARDINAL,print,cardinal_p.png,,,,,,
,,,,32024,001,2025-11-08_17h13.47.750,HW_LDT_1,2024.2.4,MacIntel,120.4819277,,,,,,,,,,,,,,,,,,,,,173.2363,173.4348,173.4349,173.9349,,,,,,,,,,,,,,2.1619,1,,,,,,,,,,,,,,m,,,,,,,,,,,,,,,,21,0,173.9353,176.1014,m,1,2.1619,,[],[],[],[],[],[],[],176.1015,178.1015,178.1016,178.1017,[],[],[],[],[],[],[],,178.1018,178.1018,-0.148210152,-0.166307044,0,0,0,,0,20,20,150,1,1,word,SENTIMENT,cursive,sentiment_c.png,,,,,,
,,,,32024,001,2025-11-08_17h13.47.750,HW_LDT_1,2024.2.4,MacIntel,120.4819277,,,,,,,,,,,,,,,,,,,,,178.1026,178.3015,178.3016,178.7974,,,,,,,,,,,,,,1.3152,1,,,,,,,,,,,,,,z,,,,,,,,,,,,,,,,22,0,178.7977,180.114,z,1,1.3152,,[],[],[],[],[],[],[],180.114,182.1138,182.1139,182.1141,[],[],[],[],[],[],[],,182.1141,182.1142,-0.148210152,-0.166307044,0,0,0,,0,21,21,7,1,1,RL,delahe,print,delahe_p.png,,,,,,
,,,,32024,001,2025-11-08_17h13.47.750,HW_LDT_1,2024.2.4,MacIntel,120.4819277,,,,,,,,,,,,,,,,,,,,,182.1153,182.3132,182.3132,182.8139,,,,,,,,,,,,,,0.846,1,,,,,,,,,,,,,,m,,,,,,,,,,,,,,,,23,0,182.8143,183.6642,m,1,0.846,,[],[],[],[],[],[],[],183.6643,185.6639,185.664,185.6642,[],[],[],[],[],[],[],,185.6642,185.6643,-0.148210152,-0.166307044,0,0,0,,0,22,22,136,1,1,word,RADICAL,print,radical_p.png,,,,,,
,,,,32024,001,2025-11-08_17h13.47.750,HW_LDT_1,2024.2.4,MacIntel,120.4819277,,,,,,,,,,,,,,,,,,,,,185.6652,185.8632,185.8632,186.3631,,,,,,,,,,,,,,1.2504,1,,,,,,,,,,,,,,m,,,,,,,,,,,,,,,,24,0,186.3637,187.6182,m,1,1.2504,,[],[],[],[],[],[],[],187.6182,189.6182,189.6182,189.6184,[],[],[],[],[],[],[],,189.6184,189.6185,-0.148210152,-0.166307044,0,0,0,,0,23,23,148,1,1,word,SALINE,print,saline_p.png,,,,,,
,,,,32024,001,2025-11-08_17h13.47.750,HW_LDT_1,2024.2.4,MacIntel,120.4819277,,,,,,,,,,,,,,,,,,,,,189.6196,189.8182,189.8182,190.318,,,,,,,,,,,,,,0.7793,1,,,,,,,,,,,,,,m,,,,,,,,,,,,,,,,25,1,190.3184,191.1015,m,1,0.7793,,[],[],[],[],[],[],[],191.1015,193.1014,193.1014,194.2016,[],[],[],[],[],[],[],m,194.2017,194.2018,-0.148210152,-0.166307044,0,0,0,,0,24,24,89,1,1,word,CAPACITY,print,capacity_p.png,1.096,,,,,
,,,,32024,001,2025-11-08_17h13.47.750,HW_LDT_1,2024.2.4,MacIntel,120.4819277,,,,,,,,,,,,,,,,,,,,,194.2026,194.4015,194.4016,194.9015,,,,,,,,,,,,,,2.8537,1,,,,,,,,,,,,,,z,,,,,,,,,,,,,,,,26,0,194.9018,197.7597,z,1,2.8537,,[],[],[],[],[],[],[],197.7597,199.7595,199.7596,199.7598,[],[],[],[],[],[],[],,199.7598,199.7599,-0.148210152,-0.166307044,0,0,0,,0,25,25,35,1,1,RL,senvilent,cursive,senvilent_c.png,,,,,,
,,,,32024,001,2025-11-08_17h13.47.750,HW_LDT_1,2024.2.4,MacIntel,120.4819277,,,,,,,,,,,,,,,,,,,,,199.7607,199.9597,199.9597,200.4597,,,,,,,,,,,,,,0.8534,1,,,,,,,,,,,,,,m,,,,,,,,,,,,,,,,27,0,200.4601,201.3181,m,1,0.8534,,[],[],[],[],[],[],[],201.3182,203.3179,203.3179,203.3181,[],[],[],[],[],[],[],,203.3181,203.3183,-0.148210152,-0.166307044,0,0,0,,0,26,26,113,1,1,word,LITERAL,print,literal_p.png,,,,,,
,,,,32024,001,2025-11-08_17h13.47.750,HW_LDT_1,2024.2.4,MacIntel,120.4819277,,,,,,,,,,,,,,,,,,,,,203.3192,203.518,203.518,204.018,,,,,,,,,,,,,,3.9955,0,,,,,,,,,,,,,,m,,,,,,,,,,,,,,,,28,1,204.0184,208.0181,z,0,3.9955,,[],[],[],[],[],[],[],208.0183,210.0172,210.0172,211.0263,[],[],[],[],[],[],[],z,211.0264,211.0266,-0.148210152,-0.166307044,0,0,0,,0,27,27,110,1,1,word,HERITAGE,cursive,heritage_c.png,1.0049,,,,,
,,,,32024,001,2025-11-08_17h13.47.750,HW_LDT_1,2024.2.4,MacIntel,120.4819277,,,,,,,,,,,,,,,,,,,,,211.0275,211.2263,211.2263,211.7262,,,,,,,,,,,,,,1.2704,0,,,,,,,,,,,,,,z,,,,,,,,,,,,,,,,29,1,211.7266,213.0013,m,0,1.2704,,[],[],[],[],[],[],[],213.0014,215.0011,215.0012,216.1596,[],[],[],[],[],[],[],z,216.1598,216.1598,-0.148210152,-0.166307044,0,0,0,,0,28,28,71,1,1,TL,regilion,cursive,regilion_c.png,1.1542,,,,,
,,,,32024,001,2025-11-08_17h13.47.750,HW_LDT_1,2024.2.4,MacIntel,120.4819277,,,,,,,,,,,,,,,,,,,,,216.1605,216.3595,216.3596,216.8595,,,,,,,,,,,,,,2.6903,1,,,,,,,,,,,,,,z,,,,,,,,,,,,,,,,30,0,216.8598,219.5511,z,1,2.6903,,[],[],[],[],[],[],[],219.5512,221.5503,221.5503,221.5505,[],[],[],[],[],[],[],,221.5505,221.5506,-0.148210152,-0.166307044,0,0,0,,0,29,29,68,1,1,TL,prosopal,cursive,prosopal_c.png,,,,,,
,,,,32024,001,2025-11-08_17h13.47.750,HW_LDT_1,2024.2.4,MacIntel,120.4819277,,,,,,,,,,,,,,,,,,,,,221.5515,221.7502,221.7502,222.251,,,,,,,,,,,,,,3.0705,1,,,,,,,,,,,,,,m,,,,,,,,,,,,,,,,31,0,222.2515,225.3262,m,1,3.0705,,[],[],[],[],[],[],[],225.3263,227.3261,227.3262,227.3263,[],[],[],[],[],[],[],,227.3264,227.3265,-0.148210152,-0.166307044,0,0,0,,0,30,30,154,1,1,word,STORAGE,cursive,storage_c.png,,,,,,
,,,,32024,001,2025-11-08_17h13.47.750,HW_LDT_1,2024.2.4,MacIntel,120.4819277,,,,,,,,,,,,,,,,,,,,,227.3273,227.526,227.526,228.0257,,,,,,,,,,,,,,1.0874,0,,,,,,,,,,,,,,z,,,,,,,,,,,,,,,,32,0,228.0261,229.1178,m,0,1.0874,,[],[],[],[],[],[],[],229.1179,231.1178,231.1178,231.118,[],[],[],[],[],[],[],,231.118,231.1181,-0.148210152,-0.166307044,0,0,0,,0,31,31,49,1,1,TL,clicinal,cursive,clicinal_c.png,,,,,,
,,,,32024,001,2025-11-08_17h13.47.750,HW_LDT_1,2024.2.4,MacIntel,120.4819277,,,,,,,,,,,,,,,,,,,,,231.1191,231.3174,231.3175,231.8177,,,,,,,,,,,,,,1.0952,1,,,,,,,,,,,,,,z,,,,,,,,,,,,,,,,33,0,231.8181,232.9177,z,1,1.0952,,[],[],[],[],[],[],[],232.9177,234.9176,234.9177,234.9179,[],[],[],[],[],[],[],,234.918,234.9181,-0.148210152,-0.166307044,0,0,0,,0,32,32,32,1,1,RL,rebicent,print,rebicent_p.png,,,,,,
,,,,32024,001,2025-11-08_17h13.47.750,HW_LDT_1,2024.2.4,MacIntel,120.4819277,,,,,,,,,,,,,,,,,,,,,234.919,235.1169,235.117,235.6176,,,,,,,,,,,,,,3.1786,1,,,,,,,,,,,,,,z,,,,,,,,,,,,,,,,34,0,235.618,238.801,z,1,3.1786,,[],[],[],[],[],[],[],238.801,240.8009,240.801,240.8012,[],[],[],[],[],[],[],,240.8012,240.8012,-0.148210152,-0.166307044,0,0,0,,0,33,33,26,1,1,RL,quafidy,cursive,quafidy_c.png,,,,,,
,,,,32024,001,2025-11-08_17h13.47.750,HW_LDT_1,2024.2.4,MacIntel,120.4819277,,,,,,,,,,,,,,,,,,,,,240.8023,241.0009,241.001,241.5008,,,,,,,,,,,,,,0.9704,1,,,,,,,,,,,,,,m,,,,,,,,,,,,,,,,35,1,241.5012,242.4756,m,1,0.9704,,[],[],[],[],[],[],[],242.4756,244.4753,244.4754,245.9094,[],[],[],[],[],[],[],m,245.9096,245.9097,-0.148210152,-0.166307044,0,0,0,,0,34,34,97,1,1,word,COVERAGE,print,coverage_p.png,1.431,,,,,
,,,,32024,001,2025-11-08_17h13.47.750,HW_LDT_1,2024.2.4,MacIntel,120.4819277,,,,,,,,,,,,,,,,,,,,,245.9107,246.1092,246.1093,246.6093,,,,,,,,,,,,,,0.912,1,,,,,,,,,,,,,,m,,,,,,,,,,,,,,,,36,0,246.6097,247.5261,m,1,0.912,,[],[],[],[],[],[],[],247.5262,249.5258,249.5259,249.526,[],[],[],[],[],[],[],,249.526,249.526,-0.148210152,-0.166307044,0,0,0,,0,35,35,106,1,1,word,ELABORATE,print,elaborate_p.png,,,,,,
,,,,32024,001,2025-11-08_17h13.47.750,HW_LDT_1,2024.2.4,MacIntel,120.4819277,,,,,,,,,,,,,,,,,,,,,249.5269,249.7252,249.7253,250.2259,,,,,,,,,,,,,,2.5203,1,,,,,,,,,,,,,,z,,,,,,,,,,,,,,,,37,1,250.2263,252.7509,z,1,2.5203,,[],[],[],[],[],[],[],252.751,254.7508,254.7509,255.6341,[],[],[],[],[],[],[],z,255.6342,255.6343,-0.148210152,-0.166307044,0,0,0,,0,36,36,1,1,1,RL,adnicory,cursive,adnicory_c.png,0.8822,,,,,
,,,,32024,001,2025-11-08_17h13.47.750,HW_LDT_1,2024.2.4,MacIntel,120.4819277,,,,,,,,,,,,,,,,,,,,,255.635,255.8341,255.8342,256.3341,,,,,,,,,,,,,,1.1788,1,,,,,,,,,,,,,,z,,,,,,,,,,,,,,,,38,0,256.3346,257.5176,z,1,1.1788,,[],[],[],[],[],[],[],257.5178,259.5171,259.5171,259.5173,[],[],[],[],[],[],[],,259.5173,259.5174,-0.148210152,-0.166307044,0,0,0,,0,37,37,20,1,1,RL,nunewical,print,nunewical_p.png,,,,,,
,,,,32024,001,2025-11-08_17h13.47.750,HW_LDT_1,2024.2.4,MacIntel,120.4819277,,,,,,,,,,,,,,,,,,,,,259.5184,259.7175,259.7175,260.2175,,,,,,,,,,,,,,1.2536,0,,,,,,,,,,,,,,z,,,,,,,,,,,,,,,,39,1,260.2179,261.4758,m,0,1.2536,,[],[],[],[],[],[],[],261.476,263.4758,263.4759,264.6259,[],[],[],[],[],[],[],z,264.626,264.626,-0.148210152,-0.166307044,0,0,0,,0,38,38,69,1,1,TL,radiply,cursive,radiply_c.png,1.1463,,,,,
,,,,32024,001,2025-11-08_17h13.47.750,HW_LDT_1,2024.2.4,MacIntel,120.4819277,,,,,,,,,,,,,,,,,,,,,264.6269,264.8255,264.8256,265.3257,,,,,,,,,,,,,,1.3619,1,,,,,,,,,,,,,,z,,,,,,,,,,,,,,,,40,0,265.3261,266.6926,z,1,1.3619,,[],[],[],[],[],[],[],266.6927,268.6925,268.6925,268.6927,[],[],[],[],[],[],[],,268.6927,268.6928,-0.148210152,-0.166307044,0,0,0,,0,39,39,24,1,1,RL,probice,print,probice_p.png,,,,,,
,,,,32024,001,2025-11-08_17h13.47.750,HW_LDT_1,2024.2.4,MacIntel,120.4819277,,,,,,,,,,,,,,,,,,,,,268.6937,268.8924,268.8925,269.3924,,,,,,,,,,,,,,1.724,0,,,,,,,,,,,,,,z,,,,,,,,,,,,,,,,41,0,269.3928,271.1175,m,0,1.724,,[],[],[],[],[],[],[],271.1175,273.1175,273.1177,273.1178,[],[],[],[],[],[],[],,273.1178,273.118,-0.148210152,-0.166307044,0,0,0,,0,40,40,66,1,1,TL,panert,cursive,panert_c.png,,,,,,
,,,,32024,001,2025-11-08_17h13.47.750,HW_LDT_1,2024.2.4,MacIntel,120.4819277,,,,,,,,,,,,,,,,,,,,,273.1189,273.3173,273.3174,273.8173,,,,,,,,,,,,,,0.9455,1,,,,,,,,,,,,,,m,,,,,,,,,,,,,,,,42,0,273.8176,274.7671,m,1,0.9455,,[],[],[],[],[],[],[],274.7671,276.7674,276.7675,276.7676,[],[],[],[],[],[],[],,276.7676,276.7676,-0.148210152,-0.166307044,0,0,0,,0,41,41,121,1,1,word,MISTAKE,print,mistake_p.png,,,,,,
,,,,32024,001,2025-11-08_17h13.47.750,HW_LDT_1,2024.2.4,MacIntel,120.4819277,,,,,,,,,,,,,,,,,,,,,276.7684,276.9672,276.9672,277.4672,,,,,,,,,,,,,,0.8294,1,,,,,,,,,,,,,,m,,,,,,,,,,,,,,,,43,1,277.4676,278.3006,m,1,0.8294,,[],[],[],[],[],[],[],278.3006,280.3002,280.3002,281.7503,[],[],[],[],[],[],[],z,281.7504,281.7504,-0.148210152,-0.166307044,0,0,0,,0,42,42,128,1,1,word,PACIFIC,print,pacific_p.png,1.4447,,,,,
,,,,32024,001,2025-11-08_17h13.47.750,HW_LDT_1,2024.2.4,MacIntel,120.4819277,,,,,,,,,,,,,,,,,,,,,281.7509,281.9504,281.9505,282.4506,,,,,,,,,,,,,,2.0707,1,,,,,,,,,,,,,,z,,,,,,,,,,,,,,,,44,0,282.4511,284.5256,z,1,2.0707,,[],[],[],[],[],[],[],284.5256,286.5253,286.5254,286.5255,[],[],[],[],[],[],[],,286.5255,286.5256,-0.148210152,-0.166307044,0,0,0,,0,43,43,38,1,1,RL,stopave,cursive,stopave_c.png,,,,,,
,,,,32024,001,2025-11-08_17h13.47.750,HW_LDT_1,2024.2.4,MacIntel,120.4819277,,,,,,,,,,,,,,,,,,,,,286.5264,286.7257,286.7257,287.2255,,,,,,,,,,,,,,2.6704,1,,,,,,,,,,,,,,m,,,,,,,,,,,,,,,,45,0,287.226,289.9005,m,1,2.6704,,[],[],[],[],[],[],[],289.9006,291.9004,291.9005,291.9007,[],[],[],[],[],[],[],,291.9008,291.9008,-0.148210152,-0.166307044,0,0,0,,0,44,44,96,1,1,word,CONSIDER,cursive,consider_c.png,,,,,,
,,,,32024,001,2025-11-08_17h13.47.750,HW_LDT_1,2024.2.4,MacIntel,120.4819277,,,,,,,,,,,,,,,,,,,,,291.9016,292.1004,292.1005,292.6004,,,,,,,,,,,,,,1.0284,1,,,,,,,,,,,,,,m,,,,,,,,,,,,,,,,46,0,292.6009,293.6339,m,1,1.0284,,[],[],[],[],[],[],[],293.634,295.6296,295.6298,295.6299,[],[],[],[],[],[],[],,295.6299,295.6301,-0.148210152,-0.166307044,0,0,0,,0,45,45,135,1,1,word,QUALITY,cursive,quality_c.png,,,,,,
,,,,32024,001,2025-11-08_17h13.47.750,HW_LDT_1,2024.2.4,MacIntel,120.4819277,,,,,,,,,,,,,,,,,,,,,295.6309,295.8297,295.8297,296.3296,,,,,,,,,,,,,,2.3868,1,,,,,,,,,,,,,,z,,,,,,,,,,,,,,,,47,0,296.3301,298.7212,z,1,2.3868,,[],[],[],[],[],[],[],298.7213,300.721,300.7211,300.7213,[],[],[],[],[],[],[],,300.7213,300.7214,-0.148210152,-0.166307044,0,0,0,,0,46,46,46,1,1,TL,catipal,print,catipal_p.png,,,,,,
,,,,32024,001,2025-11-08_17h13.47.750,HW_LDT_1,2024.2.4,MacIntel,120.4819277,,,,,,,,,,,,,,,,,,,,,300.7222,300.9212,300.9213,301.4213,,,,,,,,,,,,,,2.9781,0,,,,,,,,,,,,,,m,,,,,,,,,,,,,,,,48,0,301.4217,304.4004,z,0,2.9781,,[],[],[],[],[],[],[],304.4005,306.4004,306.4004,306.4005,[],[],[],[],[],[],[],,306.4005,306.4006,-0.148210152,-0.166307044,0,0,0,,0,47,47,102,1,1,word,DENSITY,cursive,density_c.png,,,,,,
,,,,32024,001,2025-11-08_17h13.47.750,HW_LDT_1,2024.2.4,MacIntel,120.4819277,,,,,,,,,,,,,,,,,,,,,306.4013,306.6006,306.6007,307.1003,,,,,,,,,,,,,,4.7376,0,,,,,,,,,,,,,,m,,,,,,,,,,,,,,,,49,0,307.1008,311.842,z,0,4.7376,,[],[],[],[],[],[],[],311.8421,313.8376,313.8376,313.8377,[],[],[],[],[],[],[],,313.8379,313.8379,-0.148210152,-0.166307044,0,0,0,,0,48,48,111,1,1,word,INDICATE,cursive,indicate_c.png,,,,,,
,,,,32024,001,2025-11-08_17h13.47.750,HW_LDT_1,2024.2.4,MacIntel,120.4819277,,,,,,,,,,,,,,,,,,,,,313.8389,314.0379,314.038,314.5378,,,,,,,,,,,,,,2.4203,0,,,,,,,,,,,,,,z,,,,,,,,,,,,,,,,50,0,314.5382,316.9629,m,0,2.4203,,[],[],[],[],[],[],[],316.963,318.9627,318.9627,318.9628,[],[],[],[],[],[],[],,318.9628,318.9629,-0.148210152,-0.166307044,0,0,0,,0,49,49,75,1,1,TL,speficic,cursive,speficic_c.png,,,,,,
,,,,32024,001,2025-11-08_17h13.47.750,HW_LDT_1,2024.2.4,MacIntel,120.4819277,,,,,,,,,,,,,,,,,,,,,318.9635,319.1627,319.1627,319.6627,,,,,,,,,,,,,,2.7442,1,,,,,,,,,,,,,,z,,,,,,,,,,,,,,,,51,0,319.6631,322.4086,z,1,2.7442,,[],[],[],[],[],[],[],322.4086,324.4085,324.4085,324.4086,[],[],[],[],[],[],[],,324.4087,324.4088,-0.148210152,-0.166307044,0,0,0,,0,50,50,6,1,1,RL,crisival,print,crisival_p.png,,,,,,
,,,,32024,001,2025-11-08_17h13.47.750,HW_LDT_1,2024.2.4,MacIntel,120.4819277,,,,,,,,,,,,,,,,,,,,,324.4096,324.6084,324.6084,325.1086,,,,,,,,,,,,,,3.2586,1,,,,,,,,,,,,,,z,,,,,,,,,,,,,,,,52,0,325.1091,328.3709,z,1,3.2586,,[],[],[],[],[],[],[],328.3711,330.3709,330.371,330.3711,[],[],[],[],[],[],[],,330.3711,330.3712,-0.148210152,-0.166307044,0,0,0,,0,51,51,45,1,1,TL,cacapity,print,cacapity_p.png,,,,,,
,,,,32024,001,2025-11-08_17h13.47.750,HW_LDT_1,2024.2.4,MacIntel,120.4819277,,,,,,,,,,,,,,,,,,,,,330.3722,330.5711,330.5711,331.0709,,,,,,,,,,,,,,1.2701,1,,,,,,,,,,,,,,z,,,,,,,,,,,,,,,,53,0,331.0713,332.346,z,1,1.2701,,[],[],[],[],[],[],[],332.3461,334.3417,334.3417,334.342,[],[],[],[],[],[],[],,334.342,334.342,-0.148210152,-0.166307044,0,0,0,,0,52,52,27,1,1,RL,rasibal,print,rasibal_p.png,,,,,,
,,,,32024,001,2025-11-08_17h13.47.750,HW_LDT_1,2024.2.4,MacIntel,120.4819277,,,,,,,,,,,,,,,,,,,,,334.3429,334.5408,334.5408,335.0418,,,,,,,,,,,,,,1.47,0,,,,,,,,,,,,,,m,,,,,,,,,,,,,,,,54,0,335.0422,336.5168,z,0,1.47,,[],[],[],[],[],[],[],336.5169,338.5167,338.5167,338.5168,[],[],[],[],[],[],[],,338.5169,338.517,-0.148210152,-0.166307044,0,0,0,,0,53,53,87,1,1,word,CAFETERIA,cursive,cafeteria_c.png,,,,,,
,,,,32024,001,2025-11-08_17h13.47.750,HW_LDT_1,2024.2.4,MacIntel,120.4819277,,,,,,,,,,,,,,,,,,,,,338.5178,338.7167,338.7168,339.2167,,,,,,,,,,,,,,2.012,1,,,,,,,,,,,,,,m,,,,,,,,,,,,,,,,55,0,339.2172,341.2334,m,1,2.012,,[],[],[],[],[],[],[],341.2335,343.2286,343.2286,343.2287,[],[],[],[],[],[],[],,343.2288,343.2289,-0.148210152,-0.166307044,0,0,0,,0,54,54,132,1,1,word,PROPOSAL,cursive,proposal_c.png,,,,,,
,,,,32024,001,2025-11-08_17h13.47.750,HW_LDT_1,2024.2.4,MacIntel,120.4819277,,,,,,,,,,,,,,,,,,,,,343.2296,343.4292,343.4292,343.9292,,,,,,,,,,,,,,1.8039,1,,,,,,,,,,,,,,m,,,,,,,,,,,,,,,,56,0,343.9296,345.7376,m,1,1.8039,,[],[],[],[],[],[],[],345.7377,347.7376,347.7377,347.7379,[],[],[],[],[],[],[],,347.738,347.738,-0.148210152,-0.166307044,0,0,0,,0,55,55,122,1,1,word,MOBILE,cursive,mobile_c.png,,,,,,
,,,,32024,001,2025-11-08_17h13.47.750,HW_LDT_1,2024.2.4,MacIntel,120.4819277,,,,,,,,,,,,,,,,,,,,,347.7389,347.9375,347.9375,348.4375,,,,,,,,,,,,,,2.3121,1,,,,,,,,,,,,,,z,,,,,,,,,,,,,,,,57,0,348.4379,350.7541,z,1,2.3121,,[],[],[],[],[],[],[],350.7541,352.75,352.75,352.7501,[],[],[],[],[],[],[],,352.7501,352.7502,-0.148210152,-0.166307044,0,0,0,,0,56,56,39,1,1,RL,vabifity,cursive,vabifity_c.png,,,,,,
,,,,32024,001,2025-11-08_17h13.47.750,HW_LDT_1,2024.2.4,MacIntel,120.4819277,,,,,,,,,,,,,,,,,,,,,352.7509,352.9497,352.9497,353.45,,,,,,,,,,,,,,1.4037,1,,,,,,,,,,,,,,z,,,,,,,,,,,,,,,,58,0,353.4504,354.8583,z,1,1.4037,,[],[],[],[],[],[],[],354.8584,356.8582,356.8582,356.8584,[],[],[],[],[],[],[],,356.8585,356.8586,-0.148210152,-0.166307044,0,0,0,,0,57,57,5,1,1,RL,cobeny,cursive,cobeny_c.png,,,,,,
,,,,32024,001,2025-11-08_17h13.47.750,HW_LDT_1,2024.2.4,MacIntel,120.4819277,,,,,,,,,,,,,,,,,,,,,356.8596,357.0576,357.0577,357.5576,,,,,,,,,,,,,,1.8547,1,,,,,,,,,,,,,,z,,,,,,,,,,,,,,,,59,0,357.558,359.4166,z,1,1.8547,,[],[],[],[],[],[],[],359.4166,361.4165,361.4165,361.4167,[],[],[],[],[],[],[],,361.4167,361.4167,-0.148210152,-0.166307044,0,0,0,,0,58,58,23,1,1,RL,potugar,cursive,potugar_c.png,,,,,,
,,,,32024,001,2025-11-08_17h13.47.750,HW_LDT_1,2024.2.4,MacIntel,120.4819277,,,,,,,,,,,,,,,,,,,,,361.4178,361.6165,361.6165,362.1165,,,,,,,,,,,,,,1.3952,1,,,,,,,,,,,,,,m,,,,,,,,,,,,,,,,60,0,362.1171,363.5165,m,1,1.3952,,[],[],[],[],[],[],[],363.5166,365.5165,365.5165,365.5166,[],[],[],[],[],[],[],,365.5167,365.5168,-0.148210152,-0.166307044,0,0,0,,0,59,59,145,1,1,word,RESUME,print,resume_p.png,,,,,,
,,,,32024,001,2025-11-08_17h13.47.750,HW_LDT_1,2024.2.4,MacIntel,120.4819277,,,,,,,,,,,,,,,,,,,,,365.5175,365.7165,365.7166,366.2164,,,,,,,,,,,,,,1.9874,1,,,,,,,,,,,,,,m,,,,,,,,,,,,,,,,61,0,366.2168,368.2081,m,1,1.9874,,[],[],[],[],[],[],[],368.2081,370.2082,370.2082,370.2083,[],[],[],[],[],[],[],,370.2083,370.2084,-0.148210152,-0.166307044,0,0,0,,0,60,60,137,1,1,word,RAPIDLY,cursive,rapidly_c.png,,,,,,
,,,,32024,001,2025-11-08_17h13.47.750,HW_LDT_1,2024.2.4,MacIntel,120.4819277,,,,,,,,,,,,,,,,,,,,,370.2091,370.4081,370.4082,370.9072,,,,,,,,,,,,,,1.2129,1,,,,,,,,,,,,,,m,,,,,,,,,,,,,,,,62,0,370.9077,372.1249,m,1,1.2129,,[],[],[],[],[],[],[],372.1251,374.1247,374.1248,374.1249,[],[],[],[],[],[],[],,374.1249,374.125,-0.148210152,-0.166307044,0,0,0,,0,61,61,107,1,1,word,EVIDENT,print,evident_p.png,,,,,,
,,,,32024,001,2025-11-08_17h13.47.750,HW_LDT_1,2024.2.4,MacIntel,120.4819277,,,,,,,,,,,,,,,,,,,,,374.1259,374.3248,374.3248,374.8248,,,,,,,,,,,,,,1.5029,1,,,,,,,,,,,,,,z,,,,,,,,,,,,,,,,63,0,374.8251,376.3331,z,1,1.5029,,[],[],[],[],[],[],[],376.3332,378.3331,378.3332,378.3333,[],[],[],[],[],[],[],,378.3334,378.3334,-0.148210152,-0.166307044,0,0,0,,0,62,62,29,1,1,RL,refakive,cursive,refakive_c.png,,,,,,
,,,,32024,001,2025-11-08_17h13.47.750,HW_LDT_1,2024.2.4,MacIntel,120.4819277,,,,,,,,,,,,,,,,,,,,,378.3343,378.533,378.533,379.0331,,,,,,,,,,,,,,1.1536,1,,,,,,,,,,,,,,z,,,,,,,,,,,,,,,,64,1,379.0335,380.1915,z,1,1.1536,,[],[],[],[],[],[],[],380.1915,382.1874,382.1874,383.2872,[],[],[],[],[],[],[],z,383.2873,383.2874,-0.148210152,-0.166307044,0,0,0,,0,63,63,2,1,1,RL,asiral,print,asiral_p.png,1.096,,,,,
,,,,32024,001,2025-11-08_17h13.47.750,HW_LDT_1,2024.2.4,MacIntel,120.4819277,,,,,,,,,,,,,,,,,,,,,383.2883,383.4867,383.4868,383.9866,,,,,,,,,,,,,,1.305,1,,,,,,,,,,,,,,z,,,,,,,,,,,,,,,,65,0,383.987,385.2954,z,1,1.305,,[],[],[],[],[],[],[],385.2954,387.2954,387.2954,387.2956,[],[],[],[],[],[],[],,387.2957,387.2957,-0.148210152,-0.166307044,0,0,0,,0,64,64,70,1,1,TL,relugar,print,relugar_p.png,,,,,,
,,,,32024,001,2025-11-08_17h13.47.750,HW_LDT_1,2024.2.4,MacIntel,120.4819277,,,,,,,,,,,,,,,,,,,,,387.2965,387.4956,387.4957,387.995,,,,,,,,,,,,,,1.1789,1,,,,,,,,,,,,,,z,,,,,,,,,,,,,,,,66,0,387.9954,389.1788,z,1,1.1789,,[],[],[],[],[],[],[],389.1789,391.1787,391.1787,391.1789,[],[],[],[],[],[],[],,391.1789,391.179,-0.148210152,-0.166307044,0,0,0,,0,65,65,72,1,1,TL,remuse,print,remuse_p.png,,,,,,
,,,,32024,001,2025-11-08_17h13.47.750,HW_LDT_1,2024.2.4,MacIntel,120.4819277,,,,,,,,,,,,,,,,,,,,,391.1801,391.3786,391.3787,391.8779,,,,,,,,,,,,,,1.8969,1,,,,,,,,,,,,,,m,,,,,,,,,,,,,,,,67,0,391.8783,393.7787,m,1,1.8969,,[],[],[],[],[],[],[],393.7787,395.7785,395.7786,395.7788,[],[],[],[],[],[],[],,395.7789,395.779,-0.148210152,-0.166307044,0,0,0,,0,66,66,94,1,1,word,CLINICAL,cursive,clinical_c.png,,,,,,
,,,,32024,001,2025-11-08_17h13.47.750,HW_LDT_1,2024.2.4,MacIntel,120.4819277,,,,,,,,,,,,,,,,,,,,,395.7799,395.9787,395.9787,396.4787,,,,,,,,,,,,,,1.3705,1,,,,,,,,,,,,,,z,,,,,,,,,,,,,,,,68,1,396.4792,397.8538,z,1,1.3705,,[],[],[],[],[],[],[],397.8539,399.853,399.853,400.812,[],[],[],[],[],[],[],m,400.812,400.812,-0.148210152,-0.166307044,0,0,0,,0,67,67,42,1,1,TL,befenit,print,befenit_p.png,0.9582,,,,,
,,,,32024,001,2025-11-08_17h13.47.750,HW_LDT_1,2024.2.4,MacIntel,120.4819277,,,,,,,,,,,,,,,,,,,,,400.8127,401.012,401.0121,401.5121,,,,,,,,,,,,,,2.5286,1,,,,,,,,,,,,,,m,,,,,,,,,,,,,,,,69,0,401.5124,404.0446,m,1,2.5286,,[],[],[],[],[],[],[],404.0446,406.0453,406.0453,406.0454,[],[],[],[],[],[],[],,406.0454,406.0456,-0.148210152,-0.166307044,0,0,0,,0,68,68,88,1,1,word,CAMERA,cursive,camera_c.png,,,,,,
,,,,32024,001,2025-11-08_17h13.47.750,HW_LDT_1,2024.2.4,MacIntel,120.4819277,,,,,,,,,,,,,,,,,,,,,406.0466,406.2453,406.2454,406.7452,,,,,,,,,,,,,,1.187,1,,,,,,,,,,,,,,z,,,,,,,,,,,,,,,,70,1,406.7456,407.9371,z,1,1.187,,[],[],[],[],[],[],[],407.9371,409.937,409.937,411.0454,[],[],[],[],[],[],[],z,411.0454,411.0455,-0.148210152,-0.166307044,0,0,0,,0,69,69,3,1,1,RL,casena,cursive,casena_c.png,1.105,,,,,
,,,,32024,001,2025-11-08_17h13.47.750,HW_LDT_1,2024.2.4,MacIntel,120.4819277,,,,,,,,,,,,,,,,,,,,,411.0468,411.2452,411.2453,411.7453,,,,,,,,,,,,,,1.2205,1,,,,,,,,,,,,,,z,,,,,,,,,,,,,,,,71,1,411.7458,412.9704,z,1,1.2205,,[],[],[],[],[],[],[],412.9705,414.9695,414.9696,416.4452,[],[],[],[],[],[],[],z,416.4452,416.4453,-0.148210152,-0.166307044,0,0,0,,0,70,70,16,1,1,RL,marmipal,print,marmipal_p.png,1.4717,,,,,
,,,,32024,001,2025-11-08_17h13.47.750,HW_LDT_1,2024.2.4,MacIntel,120.4819277,,,,,,,,,,,,,,,,,,,,,416.4462,416.6452,416.6452,417.1451,,,,,,,,,,,,,,1.2538,1,,,,,,,,,,,,,,m,,,,,,,,,,,,,,,,72,0,417.1456,418.4032,m,1,1.2538,,[],[],[],[],[],[],[],418.4032,420.4026,420.4026,420.4027,[],[],[],[],[],[],[],,420.4028,420.4028,-0.148210152,-0.166307044,0,0,0,,0,71,71,95,1,1,word,COMEDY,cursive,comedy_c.png,,,,,,
,,,,32024,001,2025-11-08_17h13.47.750,HW_LDT_1,2024.2.4,MacIntel,120.4819277,,,,,,,,,,,,,,,,,,,,,420.4037,420.6034,420.6034,421.1032,,,,,,,,,,,,,,1.249,1,,,,,,,,,,,,,,z,,,,,,,,,,,,,,,,73,0,421.1036,422.3534,z,1,1.249,,[],[],[],[],[],[],[],422.3534,424.3535,424.3535,424.3537,[],[],[],[],[],[],[],,424.3537,424.3537,-0.148210152,-0.166307044,0,0,0,,0,72,72,0,1,1,RL,abanemy,cursive,abanemy_c.png,,,,,,
,,,,32024,001,2025-11-08_17h13.47.750,HW_LDT_1,2024.2.4,MacIntel,120.4819277,,,,,,,,,,,,,,,,,,,,,424.3545,424.5535,424.5535,425.0534,,,,,,,,,,,,,,1.1202,1,,,,,,,,,,,,,,z,,,,,,,,,,,,,,,,74,0,425.0538,426.1785,z,1,1.1202,,[],[],[],[],[],[],[],426.1785,428.1743,428.1743,428.1745,[],[],[],[],[],[],[],,428.1745,428.1746,-0.148210152,-0.166307044,0,0,0,,0,73,73,14,1,1,RL,lofase,print,lofase_p.png,,,,,,
,,,,32024,001,2025-11-08_17h13.47.750,HW_LDT_1,2024.2.4,MacIntel,120.4819277,,,,,,,,,,,,,,,,,,,,,428.1754,428.3743,428.3743,428.8743,,,,,,,,,,,,,,2.1618,1,,,,,,,,,,,,,,m,,,,,,,,,,,,,,,,75,0,428.8749,431.0409,m,1,2.1618,,[],[],[],[],[],[],[],431.041,433.0406,433.0406,433.0407,[],[],[],[],[],[],[],,433.0408,433.0409,-0.148210152,-0.166307044,0,0,0,,0,74,74,155,1,1,word,STRATEGY,cursive,strategy_c.png,,,,,,
,,,,32024,001,2025-11-08_17h13.47.750,HW_LDT_1,2024.2.4,MacIntel,120.4819277,,,,,,,,,,,,,,,,,,,,,433.0417,433.2408,433.2408,433.7366,,,,,,,,,,,,,,1.2564,1,,,,,,,,,,,,,,z,,,,,,,,,,,,,,,,76,1,433.737,434.995,z,1,1.2564,,[],[],[],[],[],[],[],434.9951,436.995,436.995,437.9118,[],[],[],[],[],[],[],z,437.9118,437.9119,-0.148210152,-0.166307044,0,0,0,,0,75,75,33,1,1,RL,recile,cursive,recile_c.png,0.9129,,,,,
,,,,32024,001,2025-11-08_17h13.47.750,HW_LDT_1,2024.2.4,MacIntel,120.4819277,,,,,,,,,,,,,,,,,,,,,437.9128,438.1106,438.1106,438.6117,,,,,,,,,,,,,,2.9508,1,,,,,,,,,,,,,,z,,,,,,,,,,,,,,,,77,0,438.6122,441.5697,z,1,2.9508,,[],[],[],[],[],[],[],441.5698,443.5699,443.57,443.5701,[],[],[],[],[],[],[],,443.5701,443.5702,-0.148210152,-0.166307044,0,0,0,,0,76,76,53,1,1,TL,dentisy,cursive,dentisy_c.png,,,,,,
,,,,32024,001,2025-11-08_17h13.47.750,HW_LDT_1,2024.2.4,MacIntel,120.4819277,,,,,,,,,,,,,,,,,,,,,443.5711,443.7699,443.7699,444.2699,,,,,,,,,,,,,,1.1204,1,,,,,,,,,,,,,,z,,,,,,,,,,,,,,,,78,0,444.2702,445.395,z,1,1.1204,,[],[],[],[],[],[],[],445.3951,447.395,447.395,447.3951,[],[],[],[],[],[],[],,447.3951,447.3953,-0.148210152,-0.166307044,0,0,0,,0,77,77,8,1,1,RL,debave,print,debave_p.png,,,,,,
,,,,32024,001,2025-11-08_17h13.47.750,HW_LDT_1,2024.2.4,MacIntel,120.4819277,,,,,,,,,,,,,,,,,,,,,447.3961,447.5949,447.5949,448.0948,,,,,,,,,,,,,,1.8622,1,,,,,,,,,,,,,,z,,,,,,,,,,,,,,,,79,0,448.0952,449.9617,z,1,1.8622,,[],[],[],[],[],[],[],449.9617,451.9615,451.9615,451.9617,[],[],[],[],[],[],[],,451.9617,451.9618,-0.148210152,-0.166307044,0,0,0,,0,78,78,73,1,1,TL,ronamtic,cursive,ronamtic_c.png,,,,,,
,,,,32024,001,2025-11-08_17h13.47.750,HW_LDT_1,2024.2.4,MacIntel,120.4819277,,,,,,,,,,,,,,,,,,,,,451.9627,452.1616,452.1616,452.6608,,,,,,,,,,,,,,1.1623,1,,,,,,,,,,,,,,z,,,,,,,,,,,,,,,,80,1,452.6611,453.8283,z,1,1.1623,,[],[],[],[],[],[],[],453.8284,455.8273,455.8274,458.5698,[],[],[],[],[],[],[],z,458.5699,517.107,-0.148210152,-0.166307044,0,0,0,space,0,79,79,28,1,1,RL,renutal,print,renutal_p.png,2.7385,,58.519,,,
,,,,32024,001,2025-11-08_17h13.47.750,HW_LDT_1,2024.2.4,MacIntel,120.4819277,,,,,,,,,,,,,,,,,,,,,517.108,517.3068,517.3069,517.8067,,,,,,,,,,,,,,2.0873,1,,,,,,,,,,,,,,m,,,,,,,,,,,,,,,,81,0,517.8071,519.8984,m,1,2.0873,,[],[],[],[],[],[],[],519.8986,521.8987,521.8987,521.8988,[],[],[],[],[],[],[],,521.8988,521.8989,-0.148210152,-0.166307044,0,0,0,,0,80,80,156,1,1,word,TRIBUTE,cursive,tribute_c.png,,,,,,
,,,,32024,001,2025-11-08_17h13.47.750,HW_LDT_1,2024.2.4,MacIntel,120.4819277,,,,,,,,,,,,,,,,,,,,,521.8997,522.0979,522.098,522.5981,,,,,,,,,,,,,,1.9999,1,,,,,,,,,,,,,,m,,,,,,,,,,,,,,,,82,0,522.5984,524.5988,m,1,1.9999,,[],[],[],[],[],[],[],524.5989,526.5984,526.5984,526.5985,[],[],[],[],[],[],[],,526.5986,526.5986,-0.148210152,-0.166307044,0,0,0,,0,81,81,93,1,1,word,CEREMONY,cursive,ceremony_c.png,,,,,,
,,,,32024,001,2025-11-08_17h13.47.750,HW_LDT_1,2024.2.4,MacIntel,120.4819277,,,,,,,,,,,,,,,,,,,,,526.5996,526.7984,526.7984,527.2983,,,,,,,,,,,,,,1.7229,1,,,,,,,,,,,,,,z,,,,,,,,,,,,,,,,83,0,527.2989,529.0234,z,1,1.7229,,[],[],[],[],[],[],[],529.0235,531.0226,531.0226,531.0228,[],[],[],[],[],[],[],,531.0228,531.0229,-0.148210152,-0.166307044,0,0,0,,0,82,82,51,1,1,TL,corevage,print,corevage_p.png,,,,,,
,,,,32024,001,2025-11-08_17h13.47.750,HW_LDT_1,2024.2.4,MacIntel,120.4819277,,,,,,,,,,,,,,,,,,,,,531.0238,531.2234,531.2234,531.7234,,,,,,,,,,,,,,1.8957,1,,,,,,,,,,,,,,z,,,,,,,,,,,,,,,,84,0,531.7236,533.6234,z,1,1.8957,,[],[],[],[],[],[],[],533.6235,535.6232,535.6233,535.6234,[],[],[],[],[],[],[],,535.6235,535.6236,-0.148210152,-0.166307044,0,0,0,,0,83,83,15,1,1,RL,losipal,cursive,losipal_c.png,,,,,,
,,,,32024,001,2025-11-08_17h13.47.750,HW_LDT_1,2024.2.4,MacIntel,120.4819277,,,,,,,,,,,,,,,,,,,,,535.6244,535.8232,535.8233,536.3232,,,,,,,,,,,,,,1.2896,1,,,,,,,,,,,,,,z,,,,,,,,,,,,,,,,85,0,536.3236,537.615,z,1,1.2896,,[],[],[],[],[],[],[],537.6151,539.6142,539.6143,539.6145,[],[],[],[],[],[],[],,539.6145,539.6146,-0.148210152,-0.166307044,0,0,0,,0,84,84,47,1,1,TL,cagetory,print,cagetory_p.png,,,,,,
,,,,32024,001,2025-11-08_17h13.47.750,HW_LDT_1,2024.2.4,MacIntel,120.4819277,,,,,,,,,,,,,,,,,,,,,539.6153,539.8148,539.8149,540.3148,,,,,,,,,,,,,,0.8869,1,,,,,,,,,,,,,,m,,,,,,,,,,,,,,,,86,0,540.3152,541.2062,m,1,0.8869,,[],[],[],[],[],[],[],541.2063,543.2066,543.2066,543.2067,[],[],[],[],[],[],[],,543.2068,543.2068,-0.148210152,-0.166307044,0,0,0,,0,85,85,109,1,1,word,GRATEFUL,print,grateful_p.png,,,,,,
,,,,32024,001,2025-11-08_17h13.47.750,HW_LDT_1,2024.2.4,MacIntel,120.4819277,,,,,,,,,,,,,,,,,,,,,543.2077,543.4066,543.4066,543.9066,,,,,,,,,,,,,,1.1299,1,,,,,,,,,,,,,,m,,,,,,,,,,,,,,,,87,0,543.9069,545.0399,m,1,1.1299,,[],[],[],[],[],[],[],545.04,547.0398,547.0399,547.0401,[],[],[],[],[],[],[],,547.0401,547.0401,-0.148210152,-0.166307044,0,0,0,,0,86,86,126,1,1,word,OPTIMAL,print,optimal_p.png,,,,,,
,,,,32024,001,2025-11-08_17h13.47.750,HW_LDT_1,2024.2.4,MacIntel,120.4819277,,,,,,,,,,,,,,,,,,,,,547.0409,547.2398,547.2398,547.7393,,,,,,,,,,,,,,2.1706,1,,,,,,,,,,,,,,z,,,,,,,,,,,,,,,,88,0,547.7397,549.9148,z,1,2.1706,,[],[],[],[],[],[],[],549.915,551.9149,551.9149,551.9151,[],[],[],[],[],[],[],,551.9151,551.9152,-0.148210152,-0.166307044,0,0,0,,0,87,87,76,1,1,TL,stragety,cursive,stragety_c.png,,,,,,
,,,,32024,001,2025-11-08_17h13.47.750,HW_LDT_1,2024.2.4,MacIntel,120.4819277,,,,,,,,,,,,,,,,,,,,,551.9161,552.114,552.114,552.6148,,,,,,,,,,,,,,0.9535,1,,,,,,,,,,,,,,z,,,,,,,,,,,,,,,,89,0,552.6152,553.5733,z,1,0.9535,,[],[],[],[],[],[],[],553.5735,555.573,555.5731,555.5732,[],[],[],[],[],[],[],,555.5732,555.5733,-0.148210152,-0.166307044,0,0,0,,0,88,88,13,1,1,RL,linefal,print,linefal_p.png,,,,,,
,,,,32024,001,2025-11-08_17h13.47.750,HW_LDT_1,2024.2.4,MacIntel,120.4819277,,,,,,,,,,,,,,,,,,,,,555.5742,555.7731,555.7731,556.2727,,,,,,,,,,,,,,2.9792,1,,,,,,,,,,,,,,z,,,,,,,,,,,,,,,,90,0,556.2732,559.2566,z,1,2.9792,,[],[],[],[],[],[],[],559.2567,561.2558,561.2559,561.2561,[],[],[],[],[],[],[],,561.2561,561.2561,-0.148210152,-0.166307044,0,0,0,,0,89,89,65,1,1,TL,orinigal,cursive,orinigal_c.png,,,,,,
,,,,32024,001,2025-11-08_17h13.47.750,HW_LDT_1,2024.2.4,MacIntel,120.4819277,,,,,,,,,,,,,,,,,,,,,561.2569,561.4564,561.4564,561.9564,,,,,,,,,,,,,,1.154,1,,,,,,,,,,,,,,m,,,,,,,,,,,,,,,,91,1,561.9568,563.1148,m,1,1.154,,[],[],[],[],[],[],[],563.115,565.1147,565.1147,566.1394,[],[],[],[],[],[],[],m,566.1394,566.1395,-0.148210152,-0.166307044,0,0,0,,0,90,90,117,1,1,word,MARINE,print,marine_p.png,1.0215,,,,,
,,,,32024,001,2025-11-08_17h13.47.750,HW_LDT_1,2024.2.4,MacIntel,120.4819277,,,,,,,,,,,,,,,,,,,,,566.1404,566.3396,566.3396,566.8389,,,,,,,,,,,,,,1.846,1,,,,,,,,,,,,,,m,,,,,,,,,,,,,,,,92,0,566.8394,568.6897,m,1,1.846,,[],[],[],[],[],[],[],568.6899,570.6896,570.6897,570.6898,[],[],[],[],[],[],[],,570.6899,570.6899,-0.148210152,-0.166307044,0,0,0,,0,91,91,81,1,1,word,ADVISORY,cursive,advisory_c.png,,,,,,
,,,,32024,001,2025-11-08_17h13.47.750,HW_LDT_1,2024.2.4,MacIntel,120.4819277,,,,,,,,,,,,,,,,,,,,,570.6909,570.8895,570.8896,571.3896,,,,,,,,,,,,,,1.7391,1,,,,,,,,,,,,,,z,,,,,,,,,,,,,,,,93,0,571.39,573.1313,z,1,1.7391,,[],[],[],[],[],[],[],573.1314,575.1312,575.1312,575.1314,[],[],[],[],[],[],[],,575.1314,575.1315,-0.148210152,-0.166307044,0,0,0,,0,92,92,11,1,1,RL,elacodate,print,elacodate_p.png,,,,,,
,,,,32024,001,2025-11-08_17h13.47.750,HW_LDT_1,2024.2.4,MacIntel,120.4819277,,,,,,,,,,,,,,,,,,,,,575.1323,575.3305,575.3305,575.8315,,,,,,,,,,,,,,1.2199,1,,,,,,,,,,,,,,m,,,,,,,,,,,,,,,,94,0,575.832,577.0553,m,1,1.2199,,[],[],[],[],[],[],[],577.0554,579.0558,579.0558,579.056,[],[],[],[],[],[],[],,579.056,579.0561,-0.148210152,-0.166307044,0,0,0,,0,93,93,115,1,1,word,LOGICAL,cursive,logical_c.png,,,,,,
,,,,32024,001,2025-11-08_17h13.47.750,HW_LDT_1,2024.2.4,MacIntel,120.4819277,,,,,,,,,,,,,,,,,,,,,579.0572,579.2562,579.2563,579.7562,,,,,,,,,,,,,,1.1125,1,,,,,,,,,,,,,,m,,,,,,,,,,,,,,,,95,0,579.7567,580.8729,m,1,1.1125,,[],[],[],[],[],[],[],580.8731,582.8729,582.8729,582.8731,[],[],[],[],[],[],[],,582.8731,582.8732,-0.148210152,-0.166307044,0,0,0,,0,94,94,130,1,1,word,POLICY,cursive,policy_c.png,,,,,,
,,,,32024,001,2025-11-08_17h13.47.750,HW_LDT_1,2024.2.4,MacIntel,120.4819277,,,,,,,,,,,,,,,,,,,,,582.8741,583.0728,583.0729,583.5728,,,,,,,,,,,,,,1.5285,1,,,,,,,,,,,,,,z,,,,,,,,,,,,,,,,96,0,583.5732,585.1063,z,1,1.5285,,[],[],[],[],[],[],[],585.1063,587.1061,587.1061,587.1063,[],[],[],[],[],[],[],,587.1063,587.1064,-0.148210152,-0.166307044,0,0,0,,0,95,95,63,1,1,TL,molibe,cursive,molibe_c.png,,,,,,
,,,,32024,001,2025-11-08_17h13.47.750,HW_LDT_1,2024.2.4,MacIntel,120.4819277,,,,,,,,,,,,,,,,,,,,,587.1072,587.3061,587.3061,587.8062,,,,,,,,,,,,,,1.1113,1,,,,,,,,,,,,,,m,,,,,,,,,,,,,,,,97,0,587.8067,588.9228,m,1,1.1113,,[],[],[],[],[],[],[],588.923,590.9224,590.9224,590.9226,[],[],[],[],[],[],[],,590.9227,590.9227,-0.148210152,-0.166307044,0,0,0,,0,96,96,98,1,1,word,CRIMINAL,print,criminal_p.png,,,,,,
,,,,32024,001,2025-11-08_17h13.47.750,HW_LDT_1,2024.2.4,MacIntel,120.4819277,,,,,,,,,,,,,,,,,,,,,590.9235,591.1229,591.1229,591.6227,,,,,,,,,,,,,,1.3705,1,,,,,,,,,,,,,,z,,,,,,,,,,,,,,,,98,0,591.6232,592.9978,z,1,1.3705,,[],[],[],[],[],[],[],592.9979,594.9976,594.9977,594.9978,[],[],[],[],[],[],[],,594.9979,594.9979,-0.148210152,-0.166307044,0,0,0,,0,97,97,44,1,1,TL,cateferia,cursive,cateferia_c.png,,,,,,
,,,,32024,001,2025-11-08_17h13.47.750,HW_LDT_1,2024.2.4,MacIntel,120.4819277,,,,,,,,,,,,,,,,,,,,,594.9988,595.1977,595.1978,595.6976,,,,,,,,,,,,,,1.4037,1,,,,,,,,,,,,,,z,,,,,,,,,,,,,,,,99,0,595.6981,597.1059,z,1,1.4037,,[],[],[],[],[],[],[],597.106,599.1053,599.1054,599.1055,[],[],[],[],[],[],[],,599.1055,599.1056,-0.148210152,-0.166307044,0,0,0,,0,98,98,43,1,1,TL,bedise,print,bedise_p.png,,,,,,
,,,,32024,001,2025-11-08_17h13.47.750,HW_LDT_1,2024.2.4,MacIntel,120.4819277,,,,,,,,,,,,,,,,,,,,,599.1064,599.306,599.3061,599.806,,,,,,,,,,,,,,1.8374,1,,,,,,,,,,,,,,z,,,,,,,,,,,,,,,,100,0,599.8064,601.6474,z,1,1.8374,,[],[],[],[],[],[],[],601.6474,603.6476,603.6476,603.6478,[],[],[],[],[],[],[],,603.6478,603.6479,-0.148210152,-0.166307044,0,0,0,,0,99,99,62,1,1,TL,mitilary,print,mitilary_p.png,,,,,,
,,,,32024,001,2025-11-08_17h13.47.750,HW_LDT_1,2024.2.4,MacIntel,120.4819277,,,,,,,,,,,,,,,,,,,,,603.6487,603.8477,603.8477,604.3477,,,,,,,,,,,,,,1.0202,1,,,,,,,,,,,,,,m,,,,,,,,,,,,,,,,101,0,604.3481,605.3728,m,1,1.0202,,[],[],[],[],[],[],[],605.3729,607.3726,607.3726,607.3728,[],[],[],[],[],[],[],,607.3728,607.3729,-0.148210152,-0.166307044,0,0,0,,0,100,100,84,1,1,word,BELOVED,print,beloved_p.png,,,,,,
,,,,32024,001,2025-11-08_17h13.47.750,HW_LDT_1,2024.2.4,MacIntel,120.4819277,,,,,,,,,,,,,,,,,,,,,607.3737,607.5723,607.5723,608.0721,,,,,,,,,,,,,,1.379,1,,,,,,,,,,,,,,m,,,,,,,,,,,,,,,,102,0,608.0725,609.4561,m,1,1.379,,[],[],[],[],[],[],[],609.4561,611.4559,611.456,611.4561,[],[],[],[],[],[],[],,611.4562,611.4562,-0.148210152,-0.166307044,0,0,0,,0,101,101,146,1,1,word,RETIRE,cursive,retire_c.png,,,,,,
,,,,32024,001,2025-11-08_17h13.47.750,HW_LDT_1,2024.2.4,MacIntel,120.4819277,,,,,,,,,,,,,,,,,,,,,611.4571,611.656,611.656,612.1551,,,,,,,,,,,,,,2.7401,1,,,,,,,,,,,,,,m,,,,,,,,,,,,,,,,103,0,612.1555,614.8968,m,1,2.7401,,[],[],[],[],[],[],[],614.897,616.8974,616.8974,616.8976,[],[],[],[],[],[],[],,616.8976,616.8977,-0.148210152,-0.166307044,0,0,0,,0,102,102,112,1,1,word,LIBERAL,cursive,liberal_c.png,,,,,,
,,,,32024,001,2025-11-08_17h13.47.750,HW_LDT_1,2024.2.4,MacIntel,120.4819277,,,,,,,,,,,,,,,,,,,,,616.8984,617.0976,617.0976,617.5975,,,,,,,,,,,,,,1.8293,1,,,,,,,,,,,,,,m,,,,,,,,,,,,,,,,104,0,617.5979,619.4309,m,1,1.8293,,[],[],[],[],[],[],[],619.431,621.4308,621.4308,621.431,[],[],[],[],[],[],[],,621.431,621.4311,-0.148210152,-0.166307044,0,0,0,,0,103,103,141,1,1,word,RELIGION,cursive,religion_c.png,,,,,,
,,,,32024,001,2025-11-08_17h13.47.750,HW_LDT_1,2024.2.4,MacIntel,120.4819277,,,,,,,,,,,,,,,,,,,,,621.4318,621.6307,621.6308,622.1309,,,,,,,,,,,,,,1.0518,1,,,,,,,,,,,,,,m,,,,,,,,,,,,,,,,105,0,622.1314,623.1891,m,1,1.0518,,[],[],[],[],[],[],[],623.1892,625.1892,625.1892,625.1893,[],[],[],[],[],[],[],,625.1894,625.1895,-0.148210152,-0.166307044,0,0,0,,0,104,104,159,1,1,word,VETERAN,print,veteran_p.png,,,,,,
,,,,32024,001,2025-11-08_17h13.47.750,HW_LDT_1,2024.2.4,MacIntel,120.4819277,,,,,,,,,,,,,,,,,,,,,625.1903,625.3891,625.3891,625.8892,,,,,,,,,,,,,,1.3204,1,,,,,,,,,,,,,,z,,,,,,,,,,,,,,,,106,0,625.8895,627.2141,z,1,1.3204,,[],[],[],[],[],[],[],627.2142,629.214,629.2141,629.2142,[],[],[],[],[],[],[],,629.2143,629.2143,-0.148210152,-0.166307044,0,0,0,,0,105,105,25,1,1,RL,quakity,cursive,quakity_c.png,,,,,,
,,,,32024,001,2025-11-08_17h13.47.750,HW_LDT_1,2024.2.4,MacIntel,120.4819277,,,,,,,,,,,,,,,,,,,,,629.2152,629.4142,629.4143,629.914,,,,,,,,,,,,,,0.9535,1,,,,,,,,,,,,,,m,,,,,,,,,,,,,,,,107,0,629.9145,630.8723,m,1,0.9535,,[],[],[],[],[],[],[],630.8724,632.8719,632.8719,632.872,[],[],[],[],[],[],[],,632.8721,632.8721,-0.148210152,-0.166307044,0,0,0,,0,106,106,144,1,1,word,RESIDENT,print,resident_p.png,,,,,,
,,,,32024,001,2025-11-08_17h13.47.750,HW_LDT_1,2024.2.4,MacIntel,120.4819277,,,,,,,,,,,,,,,,,,,,,632.873,633.0724,633.0724,633.5724,,,,,,,,,,,,,,1.2041,1,,,,,,,,,,,,,,m,,,,,,,,,,,,,,,,108,0,633.5728,634.7808,m,1,1.2041,,[],[],[],[],[],[],[],634.7808,636.7799,636.78,636.7803,[],[],[],[],[],[],[],,636.7803,636.7803,-0.148210152,-0.166307044,0,0,0,,0,107,107,92,1,1,word,CATEGORY,print,category_p.png,,,,,,
,,,,32024,001,2025-11-08_17h13.47.750,HW_LDT_1,2024.2.4,MacIntel,120.4819277,,,,,,,,,,,,,,,,,,,,,636.7813,636.9808,636.9809,637.4807,,,,,,,,,,,,,,0.7787,1,,,,,,,,,,,,,,m,,,,,,,,,,,,,,,,109,0,637.481,638.264,m,1,0.7787,,[],[],[],[],[],[],[],638.2642,640.2639,640.264,640.2641,[],[],[],[],[],[],[],,640.2642,640.2643,-0.148210152,-0.166307044,0,0,0,,0,108,108,99,1,1,word,DEBATE,print,debate_p.png,,,,,,
,,,,32024,001,2025-11-08_17h13.47.750,HW_LDT_1,2024.2.4,MacIntel,120.4819277,,,,,,,,,,,,,,,,,,,,,640.265,640.464,640.4641,640.9641,,,,,,,,,,,,,,1.2954,1,,,,,,,,,,,,,,m,,,,,,,,,,,,,,,,110,0,640.9645,642.2639,m,1,1.2954,,[],[],[],[],[],[],[],642.264,644.264,644.2641,644.2642,[],[],[],[],[],[],[],,644.2643,644.2643,-0.148210152,-0.166307044,0,0,0,,0,109,109,157,1,1,word,VALIDITY,cursive,validity_c.png,,,,,,
,,,,32024,001,2025-11-08_17h13.47.750,HW_LDT_1,2024.2.4,MacIntel,120.4819277,,,,,,,,,,,,,,,,,,,,,644.2654,644.4639,644.4639,644.9639,,,,,,,,,,,,,,1.1284,1,,,,,,,,,,,,,,z,,,,,,,,,,,,,,,,111,1,644.9643,646.0974,z,1,1.1284,,[],[],[],[],[],[],[],646.0975,648.0973,648.0973,649.0057,[],[],[],[],[],[],[],m,649.0057,649.0058,-0.148210152,-0.166307044,0,0,0,,0,110,110,41,1,1,TL,bevoled,print,bevoled_p.png,0.9042,,,,,
,,,,32024,001,2025-11-08_17h13.47.750,HW_LDT_1,2024.2.4,MacIntel,120.4819277,,,,,,,,,,,,,,,,,,,,,649.0068,649.2056,649.2056,649.7057,,,,,,,,,,,,,,1.5199,1,,,,,,,,,,,,,,z,,,,,,,,,,,,,,,,112,0,649.7063,651.2305,z,1,1.5199,,[],[],[],[],[],[],[],651.2306,653.2306,653.2306,653.2308,[],[],[],[],[],[],[],,653.2308,653.2308,-0.148210152,-0.166307044,0,0,0,,0,111,111,56,1,1,TL,grafetul,print,grafetul_p.png,,,,,,
,,,,32024,001,2025-11-08_17h13.47.750,HW_LDT_1,2024.2.4,MacIntel,120.4819277,,,,,,,,,,,,,,,,,,,,,653.2317,653.4306,653.4306,653.9306,,,,,,,,,,,,,,0.8461,1,,,,,,,,,,,,,,z,,,,,,,,,,,,,,,,113,0,653.931,654.7805,z,1,0.8461,,[],[],[],[],[],[],[],654.7806,656.7803,656.7803,656.7805,[],[],[],[],[],[],[],,656.7805,656.7805,-0.148210152,-0.166307044,0,0,0,,0,112,112,30,1,1,RL,relone,print,relone_p.png,,,,,,
,,,,32024,001,2025-11-08_17h13.47.750,HW_LDT_1,2024.2.4,MacIntel,120.4819277,,,,,,,,,,,,,,,,,,,,,656.7813,656.9807,656.9807,657.4805,,,,,,,,,,,,,,1.3537,1,,,,,,,,,,,,,,z,,,,,,,,,,,,,,,,114,0,657.4811,658.8388,z,1,1.3537,,[],[],[],[],[],[],[],658.8389,660.8386,660.8387,660.8388,[],[],[],[],[],[],[],,660.8388,660.8389,-0.148210152,-0.166307044,0,0,0,,0,113,113,61,1,1,TL,mecidine,cursive,mecidine_c.png,,,,,,
,,,,32024,001,2025-11-08_17h13.47.750,HW_LDT_1,2024.2.4,MacIntel,120.4819277,,,,,,,,,,,,,,,,,,,,,660.8398,661.0388,661.0388,661.5389,,,,,,,,,,,,,,1.1709,1,,,,,,,,,,,,,,z,,,,,,,,,,,,,,,,115,0,661.5394,662.7138,z,1,1.1709,,[],[],[],[],[],[],[],662.7139,664.7138,664.7139,664.7141,[],[],[],[],[],[],[],,664.7141,664.7141,-0.148210152,-0.166307044,0,0,0,,0,114,114,21,1,1,RL,opcifal,print,opcifal_p.png,,,,,,
,,,,32024,001,2025-11-08_17h13.47.750,HW_LDT_1,2024.2.4,MacIntel,120.4819277,,,,,,,,,,,,,,,,,,,,,664.7152,664.9139,664.9139,665.4138,,,,,,,,,,,,,,1.4236,1,,,,,,,,,,,,,,m,,,,,,,,,,,,,,,,116,0,665.4143,666.8387,m,1,1.4236,,[],[],[],[],[],[],[],666.8387,668.8388,668.8388,668.839,[],[],[],[],[],[],[],,668.839,668.8391,-0.148210152,-0.166307044,0,0,0,,0,115,115,139,1,1,word,REGULAR,print,regular_p.png,,,,,,
,,,,32024,001,2025-11-08_17h13.47.750,HW_LDT_1,2024.2.4,MacIntel,120.4819277,,,,,,,,,,,,,,,,,,,,,668.8402,669.0386,669.0387,669.5387,,,,,,,,,,,,,,1.8034,1,,,,,,,,,,,,,,z,,,,,,,,,,,,,,,,117,0,669.5392,671.3471,z,1,1.8034,,[],[],[],[],[],[],[],671.3471,673.3463,673.3463,673.3465,[],[],[],[],[],[],[],,673.3465,673.3466,-0.148210152,-0.166307044,0,0,0,,0,116,116,74,1,1,TL,setanor,cursive,setanor_c.png,,,,,,
,,,,32024,001,2025-11-08_17h13.47.750,HW_LDT_1,2024.2.4,MacIntel,120.4819277,,,,,,,,,,,,,,,,,,,,,673.3473,673.5465,673.5465,674.047,,,,,,,,,,,,,,0.8704,1,,,,,,,,,,,,,,m,,,,,,,,,,,,,,,,118,0,674.0474,674.922,m,1,0.8704,,[],[],[],[],[],[],[],674.9221,676.922,676.9221,676.9223,[],[],[],[],[],[],[],,676.9224,676.9225,-0.148210152,-0.166307044,0,0,0,,0,117,117,158,1,1,word,VELOCITY,print,velocity_p.png,,,,,,
,,,,32024,001,2025-11-08_17h13.47.750,HW_LDT_1,2024.2.4,MacIntel,120.4819277,,,,,,,,,,,,,,,,,,,,,676.9234,677.1217,677.1218,677.6219,,,,,,,,,,,,,,1.7311,1,,,,,,,,,,,,,,z,,,,,,,,,,,,,,,,119,0,677.6223,679.3554,z,1,1.7311,,[],[],[],[],[],[],[],679.3554,681.3554,681.3555,681.3557,[],[],[],[],[],[],[],,681.3557,681.3558,-0.148210152,-0.166307044,0,0,0,,0,118,118,9,1,1,RL,docirant,cursive,docirant_c.png,,,,,,
,,,,32024,001,2025-11-08_17h13.47.750,HW_LDT_1,2024.2.4,MacIntel,120.4819277,,,,,,,,,,,,,,,,,,,,,681.3568,681.5553,681.5554,682.0549,,,,,,,,,,,,,,0.996,1,,,,,,,,,,,,,,z,,,,,,,,,,,,,,,,120,0,682.0554,683.0544,z,1,0.996,,[],[],[],[],[],[],[],683.0545,685.0554,685.0555,685.0557,[],[],[],[],[],[],[],,685.0557,685.0558,-0.148210152,-0.166307044,0,0,0,,0,119,119,19,1,1,RL,monebate,print,monebate_p.png,,,,,,
,,,,32024,001,2025-11-08_17h13.47.750,HW_LDT_1,2024.2.4,MacIntel,120.4819277,,,,,,,,,,,,,,,,,,,,,685.0566,685.2552,685.2553,685.7552,,,,,,,,,,,,,,1.9954,0,,,,,,,,,,,,,,m,,,,,,,,,,,,,,,,121,1,685.7557,687.7554,z,0,1.9954,,[],[],[],[],[],[],[],687.7555,689.7552,689.7554,690.7219,[],[],[],[],[],[],[],z,690.7219,690.722,-0.148210152,-0.166307044,0,0,0,,0,120,120,149,1,1,word,SENATOR,cursive,senator_c.png,0.9624,,,,,
,,,,32024,001,2025-11-08_17h13.47.750,HW_LDT_1,2024.2.4,MacIntel,120.4819277,,,,,,,,,,,,,,,,,,,,,690.7228,690.9218,690.9218,691.422,,,,,,,,,,,,,,1.5953,1,,,,,,,,,,,,,,m,,,,,,,,,,,,,,,,122,0,691.4224,693.0217,m,1,1.5953,,[],[],[],[],[],[],[],693.0219,695.0213,695.0214,695.0214,[],[],[],[],[],[],[],,695.0215,695.0215,-0.148210152,-0.166307044,0,0,0,,0,121,121,104,1,1,word,DOMINANT,cursive,dominant_c.png,,,,,,
,,,,32024,001,2025-11-08_17h13.47.750,HW_LDT_1,2024.2.4,MacIntel,120.4819277,,,,,,,,,,,,,,,,,,,,,695.0225,695.2218,695.2219,695.7218,,,,,,,,,,,,,,3.1121,1,,,,,,,,,,,,,,z,,,,,,,,,,,,,,,,123,0,695.7222,698.8385,z,1,3.1121,,[],[],[],[],[],[],[],698.8386,700.8384,700.8384,700.8385,[],[],[],[],[],[],[],,700.8386,700.8387,-0.148210152,-0.166307044,0,0,0,,0,122,122,17,1,1,RL,menowy,cursive,menowy_c.png,,,,,,
,,,,32024,001,2025-11-08_17h13.47.750,HW_LDT_1,2024.2.4,MacIntel,120.4819277,,,,,,,,,,,,,,,,,,,,,700.8394,701.0383,701.0383,701.5378,,,,,,,,,,,,,,1.266,1,,,,,,,,,,,,,,z,,,,,,,,,,,,,,,,124,0,701.5382,702.8051,z,1,1.266,,[],[],[],[],[],[],[],702.8051,704.8051,704.8051,704.8051,[],[],[],[],[],[],[],,704.8053,704.8054,-0.148210152,-0.166307044,0,0,0,,0,123,123,64,1,1,TL,orepator,cursive,orepator_c.png,,,,,,
,,,,32024,001,2025-11-08_17h13.47.750,HW_LDT_1,2024.2.4,MacIntel,120.4819277,,,,,,,,,,,,,,,,,,,,,704.8062,705.0051,705.0051,705.5044,,,,,,,,,,,,,,1.8046,1,,,,,,,,,,,,,,z,,,,,,,,,,,,,,,,125,0,705.5048,707.3134,z,1,1.8046,,[],[],[],[],[],[],[],707.3135,709.3133,709.3134,709.3135,[],[],[],[],[],[],[],,709.3135,709.3136,-0.148210152,-0.166307044,0,0,0,,0,124,124,31,1,1,RL,reconal,cursive,reconal_c.png,,,,,,
,,,,32024,001,2025-11-08_17h13.47.750,HW_LDT_1,2024.2.4,MacIntel,120.4819277,,,,,,,,,,,,,,,,,,,,,709.3145,709.5133,709.5133,710.0134,,,,,,,,,,,,,,1.3621,0,,,,,,,,,,,,,,m,,,,,,,,,,,,,,,,126,0,710.0137,711.3802,z,0,1.3621,,[],[],[],[],[],[],[],711.3803,713.38,713.3801,713.3802,[],[],[],[],[],[],[],,713.3802,713.3803,-0.148210152,-0.166307044,0,0,0,,0,125,125,105,1,1,word,EDITOR,cursive,editor_c.png,,,,,,
,,,,32024,001,2025-11-08_17h13.47.750,HW_LDT_1,2024.2.4,MacIntel,120.4819277,,,,,,,,,,,,,,,,,,,,,713.3812,713.58,713.5801,714.0801,,,,,,,,,,,,,,1.5864,1,,,,,,,,,,,,,,m,,,,,,,,,,,,,,,,127,0,714.0804,715.6718,m,1,1.5864,,[],[],[],[],[],[],[],715.6718,717.6712,717.6712,717.6713,[],[],[],[],[],[],[],,717.6714,717.6715,-0.148210152,-0.166307044,0,0,0,,0,126,126,108,1,1,word,FORTUNE,print,fortune_p.png,,,,,,
,,,,32024,001,2025-11-08_17h13.47.750,HW_LDT_1,2024.2.4,MacIntel,120.4819277,,,,,,,,,,,,,,,,,,,,,717.6723,717.8717,717.8717,718.3715,,,,,,,,,,,,,,1.6725,1,,,,,,,,,,,,,,m,,,,,,,,,,,,,,,,128,0,718.372,720.0467,m,1,1.6725,,[],[],[],[],[],[],[],720.0468,722.046,722.0461,722.0462,[],[],[],[],[],[],[],,722.0463,722.0463,-0.148210152,-0.166307044,0,0,0,,0,127,127,129,1,1,word,PARENT,cursive,parent_c.png,,,,,,
,,,,32024,001,2025-11-08_17h13.47.750,HW_LDT_1,2024.2.4,MacIntel,120.4819277,,,,,,,,,,,,,,,,,,,,,722.0471,722.2467,722.2468,722.7459,,,,,,,,,,,,,,1.7796,1,,,,,,,,,,,,,,m,,,,,,,,,,,,,,,,129,0,722.7463,724.5301,m,1,1.7796,,[],[],[],[],[],[],[],724.5302,726.5298,726.5299,726.53,[],[],[],[],[],[],[],,726.53,726.5301,-0.148210152,-0.166307044,0,0,0,,0,128,128,119,1,1,word,MEMORY,cursive,memory_c.png,,,,,,
,,,,32024,001,2025-11-08_17h13.47.750,HW_LDT_1,2024.2.4,MacIntel,120.4819277,,,,,,,,,,,,,,,,,,,,,726.5309,726.7299,726.73,727.2299,,,,,,,,,,,,,,1.8124,1,,,,,,,,,,,,,,z,,,,,,,,,,,,,,,,130,0,727.2302,729.0466,z,1,1.8124,,[],[],[],[],[],[],[],729.0466,731.0465,731.0466,731.0467,[],[],[],[],[],[],[],,731.0467,731.0467,-0.148210152,-0.166307044,0,0,0,,0,129,129,50,1,1,TL,condiser,cursive,condiser_c.png,,,,,,
,,,,32024,001,2025-11-08_17h13.47.750,HW_LDT_1,2024.2.4,MacIntel,120.4819277,,,,,,,,,,,,,,,,,,,,,731.0476,731.2465,731.2465,731.7465,,,,,,,,,,,,,,2.6122,1,,,,,,,,,,,,,,z,,,,,,,,,,,,,,,,131,0,731.7469,734.3631,z,1,2.6122,,[],[],[],[],[],[],[],734.3631,736.3632,736.3633,736.3635,[],[],[],[],[],[],[],,736.3635,736.3636,-0.148210152,-0.166307044,0,0,0,,0,130,130,77,1,1,TL,tritube,cursive,tritube_c.png,,,,,,
,,,,32024,001,2025-11-08_17h13.47.750,HW_LDT_1,2024.2.4,MacIntel,120.4819277,,,,,,,,,,,,,,,,,,,,,736.3645,736.5631,736.5631,737.0632,,,,,,,,,,,,,,1.1705,1,,,,,,,,,,,,,,m,,,,,,,,,,,,,,,,132,0,737.0635,738.238,m,1,1.1705,,[],[],[],[],[],[],[],738.2382,740.238,740.238,740.2382,[],[],[],[],[],[],[],,740.2383,740.2383,-0.148210152,-0.166307044,0,0,0,,0,131,131,152,1,1,word,SPECIMEN,cursive,specimen_c.png,,,,,,
,,,,32024,001,2025-11-08_17h13.47.750,HW_LDT_1,2024.2.4,MacIntel,120.4819277,,,,,,,,,,,,,,,,,,,,,740.2391,740.438,740.4381,740.9376,,,,,,,,,,,,,,0.9029,1,,,,,,,,,,,,,,z,,,,,,,,,,,,,,,,133,0,740.938,741.8463,z,1,0.9029,,[],[],[],[],[],[],[],741.8465,743.8465,743.8465,743.8467,[],[],[],[],[],[],[],,743.8467,743.8468,-0.148210152,-0.166307044,0,0,0,,0,132,132,12,1,1,RL,ebiwent,print,ebiwent_p.png,,,,,,
,,,,32024,001,2025-11-08_17h13.47.750,HW_LDT_1,2024.2.4,MacIntel,120.4819277,,,,,,,,,,,,,,,,,,,,,743.8477,744.0464,744.0464,744.5464,,,,,,,,,,,,,,1.9119,1,,,,,,,,,,,,,,m,,,,,,,,,,,,,,,,134,0,744.5467,746.463,m,1,1.9119,,[],[],[],[],[],[],[],746.4631,748.463,748.4631,748.4632,[],[],[],[],[],[],[],,748.4632,748.4632,-0.148210152,-0.166307044,0,0,0,,0,133,133,143,1,1,word,REMOVAL,cursive,removal_c.png,,,,,,
,,,,32024,001,2025-11-08_17h13.47.750,HW_LDT_1,2024.2.4,MacIntel,120.4819277,,,,,,,,,,,,,,,,,,,,,748.4641,748.663,748.663,749.1631,,,,,,,,,,,,,,1.1543,1,,,,,,,,,,,,,,m,,,,,,,,,,,,,,,,135,1,749.1636,750.3214,m,1,1.1543,,[],[],[],[],[],[],[],750.3214,752.3209,752.3209,753.1797,[],[],[],[],[],[],[],m,753.1797,753.1798,-0.148210152,-0.166307044,0,0,0,,0,134,134,120,1,1,word,MILITARY,print,military_p.png,0.8552,,,,,
,,,,32024,001,2025-11-08_17h13.47.750,HW_LDT_1,2024.2.4,MacIntel,120.4819277,,,,,,,,,,,,,,,,,,,,,753.1807,753.3797,753.3797,753.8796,,,,,,,,,,,,,,1.1485,1,,,,,,,,,,,,,,m,,,,,,,,,,,,,,,,136,0,753.88,755.0296,m,1,1.1485,,[],[],[],[],[],[],[],755.0297,757.0295,757.0296,757.0298,[],[],[],[],[],[],[],,757.0298,757.0299,-0.148210152,-0.166307044,0,0,0,,0,135,135,83,1,1,word,ANIMAL,print,animal_p.png,,,,,,
,,,,32024,001,2025-11-08_17h13.47.750,HW_LDT_1,2024.2.4,MacIntel,120.4819277,,,,,,,,,,,,,,,,,,,,,757.0308,757.2296,757.2296,757.7297,,,,,,,,,,,,,,1.6287,1,,,,,,,,,,,,,,z,,,,,,,,,,,,,,,,137,0,757.73,759.3621,z,1,1.6287,,[],[],[],[],[],[],[],759.3622,761.3628,761.3629,761.3631,[],[],[],[],[],[],[],,761.3631,761.3632,-0.148210152,-0.166307044,0,0,0,,0,136,136,78,1,1,TL,vecolity,print,vecolity_p.png,,,,,,
,,,,32024,001,2025-11-08_17h13.47.750,HW_LDT_1,2024.2.4,MacIntel,120.4819277,,,,,,,,,,,,,,,,,,,,,761.3642,761.5629,761.563,762.063,,,,,,,,,,,,,,1.1954,1,,,,,,,,,,,,,,m,,,,,,,,,,,,,,,,138,0,762.0634,763.2629,m,1,1.1954,,[],[],[],[],[],[],[],763.263,765.2629,765.2629,765.2629,[],[],[],[],[],[],[],,765.263,765.2631,-0.148210152,-0.166307044,0,0,0,,0,137,137,80,1,1,word,ACADEMY,cursive,academy_c.png,,,,,,
,,,,32024,001,2025-11-08_17h13.47.750,HW_LDT_1,2024.2.4,MacIntel,120.4819277,,,,,,,,,,,,,,,,,,,,,765.2638,765.4629,765.4629,765.9629,,,,,,,,,,,,,,1.0704,1,,,,,,,,,,,,,,m,,,,,,,,,,,,,,,,139,0,765.9632,767.0378,m,1,1.0704,,[],[],[],[],[],[],[],767.0379,769.0378,769.0379,769.0379,[],[],[],[],[],[],[],,769.038,769.038,-0.148210152,-0.166307044,0,0,0,,0,138,138,82,1,1,word,AMATEUR,print,amateur_p.png,,,,,,
,,,,32024,001,2025-11-08_17h13.47.750,HW_LDT_1,2024.2.4,MacIntel,120.4819277,,,,,,,,,,,,,,,,,,,,,769.0388,769.2379,769.2379,769.7376,,,,,,,,,,,,,,3.2292,1,,,,,,,,,,,,,,m,,,,,,,,,,,,,,,,140,0,769.7382,772.9712,m,1,3.2292,,[],[],[],[],[],[],[],772.9713,774.9712,774.9713,774.9714,[],[],[],[],[],[],[],,774.9714,774.9716,-0.148210152,-0.166307044,0,0,0,,0,139,139,151,1,1,word,SPECIFIC,cursive,specific_c.png,,,,,,
,,,,32024,001,2025-11-08_17h13.47.750,HW_LDT_1,2024.2.4,MacIntel,120.4819277,,,,,,,,,,,,,,,,,,,,,774.9724,775.1711,775.1711,775.6711,,,,,,,,,,,,,,1.3055,1,,,,,,,,,,,,,,m,,,,,,,,,,,,,,,,141,0,775.6715,776.9793,m,1,1.3055,,[],[],[],[],[],[],[],776.9793,778.9789,778.9789,778.979,[],[],[],[],[],[],[],,778.979,778.9791,-0.148210152,-0.166307044,0,0,0,,0,140,140,127,1,1,word,ORIGINAL,cursive,original_c.png,,,,,,
,,,,32024,001,2025-11-08_17h13.47.750,HW_LDT_1,2024.2.4,MacIntel,120.4819277,,,,,,,,,,,,,,,,,,,,,778.9799,779.1794,779.1794,779.6789,,,,,,,,,,,,,,2.3164,0,,,,,,,,,,,,,,m,,,,,,,,,,,,,,,,142,0,779.6793,781.9963,z,0,2.3164,,[],[],[],[],[],[],[],781.9964,783.9959,783.9959,783.9962,[],[],[],[],[],[],[],,783.9962,783.9962,-0.148210152,-0.166307044,0,0,0,,0,141,141,101,1,1,word,DELICATE,cursive,delicate_c.png,,,,,,
,,,,32024,001,2025-11-08_17h13.47.750,HW_LDT_1,2024.2.4,MacIntel,120.4819277,,,,,,,,,,,,,,,,,,,,,783.997,784.196,784.1961,784.6961,,,,,,,,,,,,,,3.0464,1,,,,,,,,,,,,,,z,,,,,,,,,,,,,,,,143,1,784.6967,787.7459,z,1,3.0464,,[],[],[],[],[],[],[],787.746,789.746,789.746,790.6377,[],[],[],[],[],[],[],z,790.6378,790.6379,-0.148210152,-0.166307044,0,0,0,,0,142,142,57,1,1,TL,hetirage,cursive,hetirage_c.png,0.8867,,,,,
,,,,32024,001,2025-11-08_17h13.47.750,HW_LDT_1,2024.2.4,MacIntel,120.4819277,,,,,,,,,,,,,,,,,,,,,790.6387,790.8377,790.8377,791.3376,,,,,,,,,,,,,,1.1222,1,,,,,,,,,,,,,,m,,,,,,,,,,,,,,,,144,0,791.3381,792.4627,m,1,1.1222,,[],[],[],[],[],[],[],792.4628,794.4625,794.4626,794.4628,[],[],[],[],[],[],[],,794.4628,794.4628,-0.148210152,-0.166307044,0,0,0,,0,143,143,124,1,1,word,NUMERICAL,print,numerical_p.png,,,,,,
,,,,32024,001,2025-11-08_17h13.47.750,HW_LDT_1,2024.2.4,MacIntel,120.4819277,,,,,,,,,,,,,,,,,,,,,794.4637,794.6627,794.6627,795.1625,,,,,,,,,,,,,,0.9704,1,,,,,,,,,,,,,,m,,,,,,,,,,,,,,,,145,0,795.1629,796.1377,m,1,0.9704,,[],[],[],[],[],[],[],796.1378,798.1375,798.1375,798.1377,[],[],[],[],[],[],[],,798.1377,798.1378,-0.148210152,-0.166307044,0,0,0,,0,144,144,131,1,1,word,POPULAR,cursive,popular_c.png,,,,,,
,,,,32024,001,2025-11-08_17h13.47.750,HW_LDT_1,2024.2.4,MacIntel,120.4819277,,,,,,,,,,,,,,,,,,,,,798.1386,798.3375,798.3375,798.8376,,,,,,,,,,,,,,1.3454,1,,,,,,,,,,,,,,m,,,,,,,,,,,,,,,,146,0,798.8379,800.1876,m,1,1.3454,,[],[],[],[],[],[],[],800.1877,802.1867,802.1867,802.1868,[],[],[],[],[],[],[],,802.1869,802.1869,-0.148210152,-0.166307044,0,0,0,,0,145,145,134,1,1,word,QUALIFY,cursive,qualify_c.png,,,,,,
,,,,32024,001,2025-11-08_17h13.47.750,HW_LDT_1,2024.2.4,MacIntel,120.4819277,,,,,,,,,,,,,,,,,,,,,802.1877,802.3875,802.3876,802.8874,,,,,,,,,,,,,,2.2652,0,,,,,,,,,,,,,,m,,,,,,,,,,,,,,,,147,0,802.8878,805.1541,z,0,2.2652,,[],[],[],[],[],[],[],805.1542,807.1541,807.1542,807.1543,[],[],[],[],[],[],[],,807.1543,807.1544,-0.148210152,-0.166307044,0,0,0,,0,146,146,103,1,1,word,DISPUTE,cursive,dispute_c.png,,,,,,
,,,,32024,001,2025-11-08_17h13.47.750,HW_LDT_1,2024.2.4,MacIntel,120.4819277,,,,,,,,,,,,,,,,,,,,,807.1553,807.3541,807.3542,807.8541,,,,,,,,,,,,,,1.5954,1,,,,,,,,,,,,,,z,,,,,,,,,,,,,,,,148,1,807.8545,809.4543,z,1,1.5954,,[],[],[],[],[],[],[],809.4545,811.454,811.454,812.554,[],[],[],[],[],[],[],m,812.5541,812.5542,-0.148210152,-0.166307044,0,0,0,,0,147,147,60,1,1,TL,manire,print,manire_p.png,1.0955,,,,,
,,,,32024,001,2025-11-08_17h13.47.750,HW_LDT_1,2024.2.4,MacIntel,120.4819277,,,,,,,,,,,,,,,,,,,,,812.5551,812.7542,812.7542,813.2541,,,,,,,,,,,,,,1.7622,1,,,,,,,,,,,,,,z,,,,,,,,,,,,,,,,149,0,813.2544,815.0208,z,1,1.7622,,[],[],[],[],[],[],[],815.0208,817.0207,817.0207,817.0209,[],[],[],[],[],[],[],,817.0209,817.0209,-0.148210152,-0.166307044,0,0,0,,0,148,148,48,1,1,TL,cemerony,cursive,cemerony_c.png,,,,,,
,,,,32024,001,2025-11-08_17h13.47.750,HW_LDT_1,2024.2.4,MacIntel,120.4819277,,,,,,,,,,,,,,,,,,,,,817.0217,817.2207,817.2207,817.7207,,,,,,,,,,,,,,1.6055,1,,,,,,,,,,,,,,m,,,,,,,,,,,,,,,,150,0,817.721,819.3291,m,1,1.6055,,[],[],[],[],[],[],[],819.3291,821.329,821.3291,821.3293,[],[],[],[],[],[],[],,821.3293,821.3294,-0.148210152,-0.166307044,0,0,0,,0,149,149,86,1,1,word,BESIDE,print,beside_p.png,,,,,,
,,,,32024,001,2025-11-08_17h13.47.750,HW_LDT_1,2024.2.4,MacIntel,120.4819277,,,,,,,,,,,,,,,,,,,,,821.3302,821.529,821.529,822.029,,,,,,,,,,,,,,1.2288,1,,,,,,,,,,,,,,z,,,,,,,,,,,,,,,,151,0,822.0293,823.2621,z,1,1.2288,,[],[],[],[],[],[],[],823.2621,825.2621,825.2621,825.2622,[],[],[],[],[],[],[],,825.2622,825.2623,-0.148210152,-0.166307044,0,0,0,,0,150,150,18,1,1,RL,mishafe,print,mishafe_p.png,,,,,,
,,,,32024,001,2025-11-08_17h13.47.750,HW_LDT_1,2024.2.4,MacIntel,120.4819277,,,,,,,,,,,,,,,,,,,,,825.2631,825.4622,825.4622,825.9622,,,,,,,,,,,,,,1.129,1,,,,,,,,,,,,,,z,,,,,,,,,,,,,,,,152,1,825.9627,827.0958,z,1,1.129,,[],[],[],[],[],[],[],827.0959,829.0955,829.0955,830.1208,[],[],[],[],[],[],[],m,830.1208,830.121,-0.148210152,-0.166307044,0,0,0,,0,151,151,22,1,1,RL,patisic,print,patisic_p.png,1.0242,,,,,
,,,,32024,001,2025-11-08_17h13.47.750,HW_LDT_1,2024.2.4,MacIntel,120.4819277,,,,,,,,,,,,,,,,,,,,,830.1218,830.3206,830.3206,830.8206,,,,,,,,,,,,,,1.0039,0,,,,,,,,,,,,,,z,,,,,,,,,,,,,,,,153,1,830.8209,831.829,m,0,1.0039,,[],[],[],[],[],[],[],831.8291,833.8288,833.8289,834.6622,[],[],[],[],[],[],[],m,834.6623,834.6624,-0.148210152,-0.166307044,0,0,0,,0,152,152,40,1,1,TL,atameur,print,atameur_p.png,0.8297,,,,,
,,,,32024,001,2025-11-08_17h13.47.750,HW_LDT_1,2024.2.4,MacIntel,120.4819277,,,,,,,,,,,,,,,,,,,,,834.6632,834.8615,834.8616,835.3622,,,,,,,,,,,,,,2.1041,1,,,,,,,,,,,,,,m,,,,,,,,,,,,,,,,154,0,835.3626,837.4706,m,1,2.1041,,[],[],[],[],[],[],[],837.4707,839.4705,839.4705,839.4707,[],[],[],[],[],[],[],,839.4707,839.4707,-0.148210152,-0.166307044,0,0,0,,0,153,153,118,1,1,word,MEDICINE,cursive,medicine_c.png,,,,,,
,,,,32024,001,2025-11-08_17h13.47.750,HW_LDT_1,2024.2.4,MacIntel,120.4819277,,,,,,,,,,,,,,,,,,,,,839.4716,839.6701,839.6702,840.1699,,,,,,,,,,,,,,1.4213,1,,,,,,,,,,,,,,z,,,,,,,,,,,,,,,,155,0,840.1703,841.5955,z,1,1.4213,,[],[],[],[],[],[],[],841.5956,843.5955,843.5956,843.5957,[],[],[],[],[],[],[],,843.5957,843.5958,-0.148210152,-0.166307044,0,0,0,,0,154,154,54,1,1,TL,distupe,cursive,distupe_c.png,,,,,,
,,,,32024,001,2025-11-08_17h13.47.750,HW_LDT_1,2024.2.4,MacIntel,120.4819277,,,,,,,,,,,,,,,,,,,,,843.5967,843.7954,843.7955,844.2954,,,,,,,,,,,,,,0.9195,1,,,,,,,,,,,,,,m,,,,,,,,,,,,,,,,156,0,844.2959,845.2206,m,1,0.9195,,[],[],[],[],[],[],[],845.2207,847.2204,847.2205,847.2206,[],[],[],[],[],[],[],,847.2207,847.2207,-0.148210152,-0.166307044,0,0,0,,0,155,155,153,1,1,word,STOLEN,print,stolen_p.png,,,,,,
,,,,32024,001,2025-11-08_17h13.47.750,HW_LDT_1,2024.2.4,MacIntel,120.4819277,,,,,,,,,,,,,,,,,,,,,847.2215,847.4205,847.4206,847.9204,,,,,,,,,,,,,,1.8458,0,,,,,,,,,,,,,,m,,,,,,,,,,,,,,,,157,1,847.9208,849.7704,z,0,1.8458,,[],[],[],[],[],[],[],849.7705,851.7705,851.7705,852.9371,[],[],[],[],[],[],[],z,852.9372,852.9372,-0.148210152,-0.166307044,0,0,0,,0,156,156,140,1,1,word,RELATIVE,cursive,relative_c.png,1.1625,,,,,
,,,,32024,001,2025-11-08_17h13.47.750,HW_LDT_1,2024.2.4,MacIntel,120.4819277,,,,,,,,,,,,,,,,,,,,,852.9381,853.137,853.1371,853.6371,,,,,,,,,,,,,,1.4784,1,,,,,,,,,,,,,,z,,,,,,,,,,,,,,,,158,0,853.6376,855.1206,z,1,1.4784,,[],[],[],[],[],[],[],855.1207,857.1201,857.1202,857.1204,[],[],[],[],[],[],[],,857.1204,857.1205,-0.148210152,-0.166307044,0,0,0,,0,157,157,10,1,1,RL,efibor,cursive,efibor_c.png,,,,,,
,,,,32024,001,2025-11-08_17h13.47.750,HW_LDT_1,2024.2.4,MacIntel,120.4819277,,,,,,,,,,,,,,,,,,,,,857.1213,857.3196,857.3196,857.8203,,,,,,,,,,,,,,1.0282,1,,,,,,,,,,,,,,m,,,,,,,,,,,,,,,,159,0,857.8208,858.8537,m,1,1.0282,,[],[],[],[],[],[],[],858.8538,860.8533,860.8533,860.8535,[],[],[],[],[],[],[],,860.8535,860.8537,-0.148210152,-0.166307044,0,0,0,,0,158,158,138,1,1,word,REFUSAL,print,refusal_p.png,,,,,,
,,,,32024,001,2025-11-08_17h13.47.750,HW_LDT_1,2024.2.4,MacIntel,120.4819277,,,,,,,,,,,,,,,,,,,,,860.8544,861.0536,861.0537,861.5537,,,,,,,,,,,,,,1.6366,1,,,,,,,,,,,,,,z,,,,,,,,,,,,,,,,160,0,861.5541,863.1954,z,1,1.6366,,[],[],[],[],[],[],[],863.1954,865.1952,865.1952,865.1954,[],[],[],[],[],[],[],,865.1955,865.1955,-0.148210152,-0.166307044,0,0,0,,0,159,159,37,1,1,RL,skofen,print,skofen_p.png,,,,,,
,,,,32024,001,2025-11-08_17h13.47.750,HW_LDT_1,2024.2.4,MacIntel,120.4819277,,,,,,,,,,,,,,,,,,,,,,,,,,,,,,,,,,,,,,,,,,,,,,,,,,,,,,,,,,,,,,,,,,,,,,,,,,,,,,,,,,,,,,,,,,,,,,,,,,,,,,,,,,,,,,,,,,,,,,865.2073,870.1948
