counterbalance_lists.group,counterbalance_lists.remaining,get_list.started,get_list.stopped,participant,session,date,expName,psychopyVersion,OS,frameRate,Instructions.started,Instructions.stopped,key_resp.keys,instr_done_touch.x,instr_done_touch.y,instr_done_touch.leftButton,instr_done_touch.midButton,instr_done_touch.rightButton,instr_done_touch.clicked_name,start_instr.thisRepN,start_instr.thisTrialN,start_instr.thisN,start_instr.thisIndex,start_instr.ran,pageN,phase,instruct_text,has_image,instruct_image,key_resp.rt,key_resp.duration,showProgress.started,showProgress.stopped,fix.started,fix.stopped,prac.started,prac.stopped,response.keys,response.corr,response.rt,response.duration,touch_resp.x,touch_resp.y,touch_resp.leftButton,touch_resp.midButton,touch_resp.rightButton,touch_resp.time,touch_resp.clicked_name,rt,corr,feedback.started,feedback.stopped,trials.thisRepN,trials.thisTrialN,trials.thisN,trials.thisIndex,trials.ran,TrialID,StimulusType,Condition,PrimeDuration,Prime,Target,corrAns,Instructions_expt.started,Instructions_expt.stopped,key_resp_3.keys,instr_done_touch_3.x,instr_done_touch_3.y,instr_done_touch_3.leftButton,instr_done_touch_3.midButton,instr_done_touch_3.rightButton,instr_done_touch_3.clicked_name,instr_experiment.thisRepN,instr_experiment.thisTrialN,instr_experiment.thisN,instr_experiment.thisIndex,instr_experiment.ran,trialID,flag,maintask.started,maintask.stopped,key_resp_2.keys,key_resp_2.corr,key_resp_2.rt,key_resp_2.duration,targ_click.x,targ_click.y,targ_click.leftButton,targ_click.midButton,targ_click.rightButton,targ_click.time,targ_click.clicked_name,ITI.started,ITI.stopped,probe.started,probe.stopped,click_probe.x,click_probe.y,click_probe.leftButton,click_probe.midButton,click_probe.rightButton,click_probe.time,click_probe.clicked_name,key_resp_probe.keys,Break.started,Break.stopped,break_done_touch.x,break_done_touch.y,break_done_touch.leftButton,break_done_touch.midButton,break_done_touch.rightButton,break_done_keyboard.keys,list1_trials.thisRepN,list1_trials.thisTrialN,list1_trials.thisN,list1_trials.thisIndex,list1_trials.ran,list_id,item_type,string,font,stim_file,key_resp_probe.rt,key_resp_probe.duration,break_done_keyboard.rt,break_done_keyboard.duration,End.started,End.stopped
list1,,0.4035,0.4036,32033,001,2025-11-05_22h48.01.393,HW_LDT_1,2024.2.4,MacIntel,57.14285714,,,,,,,,,,,,,,,,,,,,,,,,,,,,,,,,,,,,,,,,,,,,,,,,,,,,,,,,,,,,,,,,,,,,,,,,,,,,,,,,,,,,,,,,,,,,,,,,,,,,,,,,,,,,,,,,,,,,,,,
,,,,32033,001,2025-11-05_22h48.01.393,HW_LDT_1,2024.2.4,MacIntel,57.14285714,0.4202,2.069,,-0.11179781,-0.404579536,1,0,0,instr_done_button,0,0,0,0,1,1,instructions,"INSTRUCTIONS
At the start of each trial, look at the plus sign  (+) in the center of the screen.  This tells you that a trial is about to begin and where to look. Second, the plus sign will disappear and a string of letters will appear. Your task is to determine if the string of letters is a word or not. If the item is a word press the M key (on keyboard)  or touch the word button (phone/tablet).  If the item is not a word,  press the  Z key (on keyboard)  or touch the nonword button (on phone/tablet). The items will be presented for a short time. 
Press the space bar or touch  continue.",0,,,,,,,,,,,,,,,,,,,,,,,,,,,,,,,,,,,,,,,,,,,,,,,,,,,,,,,,,,,,,,,,,,,,,,,,,,,,,,,,,,,,,,,,,,,,,,,,,,,,,
,,,,32033,001,2025-11-05_22h48.01.393,HW_LDT_1,2024.2.4,MacIntel,57.14285714,2.0705,15.6189,space,-0.11179781,-0.404579536,0,0,0,,0,1,1,1,1,2,instructions,"If your device has a keyboard, press the 'Z' key for nonwords and the 'M' key for words.





Press the space bar or touch the button below to continue.",0,keyboard-example.gif,13.5204,,,,,,,,,,,,,,,,,,,,,,,,,,,,,,,,,,,,,,,,,,,,,,,,,,,,,,,,,,,,,,,,,,,,,,,,,,,,,,,,,,,,,,,,,,,,,,,,,,,
,,,,32033,001,2025-11-05_22h48.01.393,HW_LDT_1,2024.2.4,MacIntel,57.14285714,15.6203,18.703,space,-0.11179781,-0.404579536,0,0,0,,0,2,2,2,1,3,instructions,"If you are using a touchscreen only device, use the buttons on the screen. Do not use the mouse.





Press the space bar or touch the button below to continue.",0,touchscreen-example.gif,3.0517,,,,,,,,,,,,,,,,,,,,,,,,,,,,,,,,,,,,,,,,,,,,,,,,,,,,,,,,,,,,,,,,,,,,,,,,,,,,,,,,,,,,,,,,,,,,,,,,,,,
,,,,32033,001,2025-11-05_22h48.01.393,HW_LDT_1,2024.2.4,MacIntel,57.14285714,18.7051,30.0029,space,-0.11179781,-0.404579536,0,0,0,,0,3,3,3,1,4,instructions,"It is very important that you respond as quickly and accurately as possible, as each letter string will only be on the screen for two seconds. If you do not respond within this time, the message 'Too slow!' will be displayed and the experiment will progress to the next letter string. The first 20 trials will be practice trials and you will receive feedback on your answers. 

Press the space bar or touch the button below to start the practice trials.",0,,11.2708,,,,,,,,,,,,,,,,,,,,,,,,,,,,,,,,,,,,,,,,,,,,,,,,,,,,,,,,,,,,,,,,,,,,,,,,,,,,,,,,,,,,,,,,,,,,,,,,,,,
,,,,32033,001,2025-11-05_22h48.01.393,HW_LDT_1,2024.2.4,MacIntel,57.14285714,,,,,,,,,,,,,,,,,,,,,,30.027,30.2027,30.203,30.7028,30.7031,32.9196,z,1,2.1983,,[],[],[],[],[],[],[],2.1983,1,32.9201,33.4194,0,0,0,12,1,1013,NW,UN,33,adveil,SPRINY,z,,,,,,,,,,,,,,,,,,,,,,,,,,,,,,,,,,,,,,,,,,,,,,,,,,,,,,,,,,,,,,,,,
,,,,32033,001,2025-11-05_22h48.01.393,HW_LDT_1,2024.2.4,MacIntel,57.14285714,,,,,,,,,,,,,,,,,,,,,,33.4207,33.6193,33.6193,34.1191,34.1201,35.936,z,1,1.8066,,[],[],[],[],[],[],[],1.8066,1,35.9362,36.4359,0,1,1,10,1,1011,NW,"ID",16,inlade,INLADE,z,,,,,,,,,,,,,,,,,,,,,,,,,,,,,,,,,,,,,,,,,,,,,,,,,,,,,,,,,,,,,,,,,
,,,,32033,001,2025-11-05_22h48.01.393,HW_LDT_1,2024.2.4,MacIntel,57.14285714,,,,,,,,,,,,,,,,,,,,,,36.4372,36.6358,36.6358,37.136,37.137,38.8182,m,1,1.666,,[],[],[],[],[],[],[],1.666,1,38.8183,39.3182,0,2,2,0,1,1001,WORD,"ID",33,utopia,UTOPIA,m,,,,,,,,,,,,,,,,,,,,,,,,,,,,,,,,,,,,,,,,,,,,,,,,,,,,,,,,,,,,,,,,,
,,,,32033,001,2025-11-05_22h48.01.393,HW_LDT_1,2024.2.4,MacIntel,57.14285714,,,,,,,,,,,,,,,,,,,,,,39.3193,39.519,39.5192,40.0191,40.0201,41.2849,m,1,1.2554,,[],[],[],[],[],[],[],1.2554,1,41.285,41.7858,0,3,3,1,1,1002,WORD,"ID",33,adjust,ADJUST,m,,,,,,,,,,,,,,,,,,,,,,,,,,,,,,,,,,,,,,,,,,,,,,,,,,,,,,,,,,,,,,,,,
,,,,32033,001,2025-11-05_22h48.01.393,HW_LDT_1,2024.2.4,MacIntel,57.14285714,,,,,,,,,,,,,,,,,,,,,,41.7871,41.9857,41.9858,42.4848,42.4858,43.3525,m,1,0.8472,,[],[],[],[],[],[],[],0.8472,1,43.3527,43.8525,0,4,4,5,1,1006,WORD,UN,33,frenzy,OBTAIN,m,,,,,,,,,,,,,,,,,,,,,,,,,,,,,,,,,,,,,,,,,,,,,,,,,,,,,,,,,,,,,,,,,
,,,,32033,001,2025-11-05_22h48.01.393,HW_LDT_1,2024.2.4,MacIntel,57.14285714,,,,,,,,,,,,,,,,,,,,,,43.8538,44.0524,44.0524,44.5524,44.5534,45.8017,z,1,1.2297,,[],[],[],[],[],[],[],1.2297,1,45.8019,46.3024,0,5,5,9,1,1010,NW,"ID",33,fariny,FARINY,z,,,,,,,,,,,,,,,,,,,,,,,,,,,,,,,,,,,,,,,,,,,,,,,,,,,,,,,,,,,,,,,,,
,,,,32033,001,2025-11-05_22h48.01.393,HW_LDT_1,2024.2.4,MacIntel,57.14285714,,,,,,,,,,,,,,,,,,,,,,46.3037,46.5024,46.5025,47.0024,47.0033,48.0022,m,0,0.9808,,[],[],[],[],[],[],[],0.9808,0,48.0032,48.5026,0,6,6,15,1,1016,NW,UN,16,mushed,WHAISE,z,,,,,,,,,,,,,,,,,,,,,,,,,,,,,,,,,,,,,,,,,,,,,,,,,,,,,,,,,,,,,,,,,
,,,,32033,001,2025-11-05_22h48.01.393,HW_LDT_1,2024.2.4,MacIntel,57.14285714,,,,,,,,,,,,,,,,,,,,,,48.5038,48.7024,48.7024,49.2024,49.2034,50.6849,m,1,1.4633,,[],[],[],[],[],[],[],1.4633,1,50.6858,51.1848,0,7,7,3,1,1004,WORD,"ID",16,matrix,MATRIX,m,,,,,,,,,,,,,,,,,,,,,,,,,,,,,,,,,,,,,,,,,,,,,,,,,,,,,,,,,,,,,,,,,
,,,,32033,001,2025-11-05_22h48.01.393,HW_LDT_1,2024.2.4,MacIntel,57.14285714,,,,,,,,,,,,,,,,,,,,,,51.1862,51.3857,51.3858,51.8848,51.8856,54.3524,z,1,2.447,,[],[],[],[],[],[],[],2.447,1,54.3526,54.8524,0,8,8,8,1,1009,NW,"ID",33,aslert,ASLERT,z,,,,,,,,,,,,,,,,,,,,,,,,,,,,,,,,,,,,,,,,,,,,,,,,,,,,,,,,,,,,,,,,,
,,,,32033,001,2025-11-05_22h48.01.393,HW_LDT_1,2024.2.4,MacIntel,57.14285714,,,,,,,,,,,,,,,,,,,,,,54.8536,55.0523,55.0524,55.5523,55.5531,57.319,z,1,1.7561,,[],[],[],[],[],[],[],1.7561,1,57.319,57.8183,0,9,9,11,1,1012,NW,"ID",16,rashet,RASHET,z,,,,,,,,,,,,,,,,,,,,,,,,,,,,,,,,,,,,,,,,,,,,,,,,,,,,,,,,,,,,,,,,,
,,,,32033,001,2025-11-05_22h48.01.393,HW_LDT_1,2024.2.4,MacIntel,57.14285714,,,,,,,,,,,,,,,,,,,,,,57.8194,58.019,58.019,58.519,58.5199,59.3357,z,1,0.804,,[],[],[],[],[],[],[],0.804,1,59.3358,59.8357,0,10,10,14,1,1015,NW,UN,16,miaber,THRALE,z,,,,,,,,,,,,,,,,,,,,,,,,,,,,,,,,,,,,,,,,,,,,,,,,,,,,,,,,,,,,,,,,,
,,,,32033,001,2025-11-05_22h48.01.393,HW_LDT_1,2024.2.4,MacIntel,57.14285714,,,,,,,,,,,,,,,,,,,,,,59.8369,60.0356,60.0356,60.5358,60.5366,61.4349,z,1,0.8795,,[],[],[],[],[],[],[],0.8795,1,61.4351,61.9358,0,11,11,13,1,1014,NW,UN,33,winfer,ROUPET,z,,,,,,,,,,,,,,,,,,,,,,,,,,,,,,,,,,,,,,,,,,,,,,,,,,,,,,,,,,,,,,,,,
,,,,32033,001,2025-11-05_22h48.01.393,HW_LDT_1,2024.2.4,MacIntel,57.14285714,,,,,,,,,,,,,,,,,,,,,,61.9372,62.1356,62.1356,62.6356,62.6365,63.4349,m,1,0.7792,,[],[],[],[],[],[],[],0.7792,1,63.435,63.9357,0,12,12,2,1,1003,WORD,"ID",16,almond,ALMOND,m,,,,,,,,,,,,,,,,,,,,,,,,,,,,,,,,,,,,,,,,,,,,,,,,,,,,,,,,,,,,,,,,,
,,,,32033,001,2025-11-05_22h48.01.393,HW_LDT_1,2024.2.4,MacIntel,57.14285714,,,,,,,,,,,,,,,,,,,,,,63.9368,64.1355,64.1356,64.6356,64.6366,65.6347,m,1,0.9893,,[],[],[],[],[],[],[],0.9893,1,65.6348,66.1358,0,13,13,4,1,1005,WORD,UN,33,abound,SQUEAK,m,,,,,,,,,,,,,,,,,,,,,,,,,,,,,,,,,,,,,,,,,,,,,,,,,,,,,,,,,,,,,,,,,
,,,,32033,001,2025-11-05_22h48.01.393,HW_LDT_1,2024.2.4,MacIntel,57.14285714,,,,,,,,,,,,,,,,,,,,,,66.137,66.3356,66.3356,66.8357,66.8366,67.5357,m,1,0.6883,,[],[],[],[],[],[],[],0.6883,1,67.5357,68.0348,0,14,14,7,1,1008,WORD,UN,16,hurdle,VOLUME,m,,,,,,,,,,,,,,,,,,,,,,,,,,,,,,,,,,,,,,,,,,,,,,,,,,,,,,,,,,,,,,,,,
,,,,32033,001,2025-11-05_22h48.01.393,HW_LDT_1,2024.2.4,MacIntel,57.14285714,,,,,,,,,,,,,,,,,,,,,,68.0361,68.2357,68.2358,68.7355,68.7363,69.8356,m,1,1.0804,,[],[],[],[],[],[],[],1.0804,1,69.8359,70.3348,0,15,15,6,1,1007,WORD,UN,16,tropic,ZOMBIE,m,,,,,,,,,,,,,,,,,,,,,,,,,,,,,,,,,,,,,,,,,,,,,,,,,,,,,,,,,,,,,,,,,
,,,,32033,001,2025-11-05_22h48.01.393,HW_LDT_1,2024.2.4,MacIntel,57.14285714,,,,,,,,,,,,,,,1,end_of_practice,"You have completed the practice trials. During the experimental trials, you will not receive feedback. On some trials you will be asked to report whether the item you just saw was in cursive or print. 
Before you begin, please ensure that you are in a comfortable and quiet location and will not be disturbed for about 15 minutes, as we cannot use your data if you do not complete all the trials. 
 When you are ready to start the experimental trials, please press space or touch the button below.",,,,,,,,,,,,,,,,,,,,,,,,,,,,,,,,,,,,,,70.341,73.2525,,-0.11179781,-0.404579536,1,0,0,instr_done_button_3,0,0,0,0,1,,,,,,,,,,,,,,,,,,,,,,,,,,,,,,,,,,,,,,,,,,,,,,,,,,,
,,,,32033,001,2025-11-05_22h48.01.393,HW_LDT_1,2024.2.4,MacIntel,57.14285714,,,,,,,,,,,,,,,,,,,,,,73.2613,73.4516,73.4517,73.9521,,,,,,,,,,,,,,1.7206,1,,,,,,,,,,,,,,m,,,,,,,,,,,,,,,1,0,73.9537,75.6862,m,1,1.7206,,[],[],[],[],[],[],[],75.6865,77.6858,77.6861,77.6892,[],[],[],[],[],[],[],,77.6893,77.6907,-0.11179781,-0.404579536,0,0,0,,0,0,0,91,1,1,word,CARDINAL,print,cardinal_p.png,,,,,,
,,,,32033,001,2025-11-05_22h48.01.393,HW_LDT_1,2024.2.4,MacIntel,57.14285714,,,,,,,,,,,,,,,,,,,,,,77.6913,77.8856,77.8856,78.3847,,,,,,,,,,,,,,1.3305,1,,,,,,,,,,,,,,z,,,,,,,,,,,,,,,2,0,78.3853,79.7188,z,1,1.3305,,[],[],[],[],[],[],[],79.7189,81.7189,81.7189,81.7191,[],[],[],[],[],[],[],,81.7193,81.7194,-0.11179781,-0.404579536,0,0,0,,0,1,1,30,1,1,RL,relone,print,relone_p.png,,,,,,
,,,,32033,001,2025-11-05_22h48.01.393,HW_LDT_1,2024.2.4,MacIntel,57.14285714,,,,,,,,,,,,,,,,,,,,,,81.7205,81.9189,81.919,82.4189,,,,,,,,,,,,,,1.3543,1,,,,,,,,,,,,,,z,,,,,,,,,,,,,,,3,0,82.4194,83.7851,z,1,1.3543,,[],[],[],[],[],[],[],83.7853,85.7855,85.7856,85.7859,[],[],[],[],[],[],[],,85.786,85.7861,-0.11179781,-0.404579536,0,0,0,,0,2,2,13,1,1,RL,linefal,print,linefal_p.png,,,,,,
,,,,32033,001,2025-11-05_22h48.01.393,HW_LDT_1,2024.2.4,MacIntel,57.14285714,,,,,,,,,,,,,,,,,,,,,,85.7874,85.9855,85.9855,86.4855,,,,,,,,,,,,,,2.2876,1,,,,,,,,,,,,,,m,,,,,,,,,,,,,,,4,0,86.4861,88.7848,m,1,2.2876,,[],[],[],[],[],[],[],88.7849,90.7855,90.7856,90.7858,[],[],[],[],[],[],[],,90.7858,90.7859,-0.11179781,-0.404579536,0,0,0,,0,3,3,150,1,1,word,SENTIMENT,cursive,sentiment_c.png,,,,,,
,,,,32033,001,2025-11-05_22h48.01.393,HW_LDT_1,2024.2.4,MacIntel,57.14285714,,,,,,,,,,,,,,,,,,,,,,90.787,90.9855,90.9855,91.4854,,,,,,,,,,,,,,0.8967,1,,,,,,,,,,,,,,m,,,,,,,,,,,,,,,5,1,91.486,92.3855,m,1,0.8967,,[],[],[],[],[],[],[],92.3856,94.3855,94.3856,101.0181,[],[],[],[],[],[],[],z,101.0182,101.0183,-0.11179781,-0.404579536,0,0,0,,0,4,4,157,1,1,word,VALIDITY,cursive,validity_c.png,6.6233,,,,,
,,,,32033,001,2025-11-05_22h48.01.393,HW_LDT_1,2024.2.4,MacIntel,57.14285714,,,,,,,,,,,,,,,,,,,,,,101.0195,101.2179,101.218,101.7187,,,,,,,,,,,,,,2.2873,1,,,,,,,,,,,,,,m,,,,,,,,,,,,,,,6,0,101.7194,104.0189,m,1,2.2873,,[],[],[],[],[],[],[],104.019,106.0187,106.0188,106.0192,[],[],[],[],[],[],[],,106.0192,106.0194,-0.11179781,-0.404579536,0,0,0,,0,5,5,135,1,1,word,QUALITY,cursive,quality_c.png,,,,,,
,,,,32033,001,2025-11-05_22h48.01.393,HW_LDT_1,2024.2.4,MacIntel,57.14285714,,,,,,,,,,,,,,,,,,,,,,106.0206,106.2187,106.2188,106.7187,,,,,,,,,,,,,,1.1217,0,,,,,,,,,,,,,,z,,,,,,,,,,,,,,,7,0,106.7192,107.8513,m,0,1.1217,,[],[],[],[],[],[],[],107.8515,109.852,109.8522,109.8524,[],[],[],[],[],[],[],,109.8524,109.8526,-0.11179781,-0.404579536,0,0,0,,0,6,6,75,1,1,TL,speficic,cursive,speficic_c.png,,,,,,
,,,,32033,001,2025-11-05_22h48.01.393,HW_LDT_1,2024.2.4,MacIntel,57.14285714,,,,,,,,,,,,,,,,,,,,,,109.8536,110.052,110.0521,110.5512,,,,,,,,,,,,,,1.7415,1,,,,,,,,,,,,,,z,,,,,,,,,,,,,,,8,0,110.5517,112.3021,z,1,1.7415,,[],[],[],[],[],[],[],112.3023,114.302,114.3021,114.3022,[],[],[],[],[],[],[],,114.3024,114.3024,-0.11179781,-0.404579536,0,0,0,,0,7,7,16,1,1,RL,marmipal,print,marmipal_p.png,,,,,,
,,,,32033,001,2025-11-05_22h48.01.393,HW_LDT_1,2024.2.4,MacIntel,57.14285714,,,,,,,,,,,,,,,,,,,,,,114.3036,114.502,114.502,115.0019,,,,,,,,,,,,,,0.9714,1,,,,,,,,,,,,,,z,,,,,,,,,,,,,,,9,0,115.0025,115.9856,z,1,0.9714,,[],[],[],[],[],[],[],115.9856,117.9853,117.9854,117.9856,[],[],[],[],[],[],[],,117.9856,117.9857,-0.11179781,-0.404579536,0,0,0,,0,8,8,10,1,1,RL,efibor,cursive,efibor_c.png,,,,,,
,,,,32033,001,2025-11-05_22h48.01.393,HW_LDT_1,2024.2.4,MacIntel,57.14285714,,,,,,,,,,,,,,,,,,,,,,117.9869,118.1854,118.1854,118.6853,,,,,,,,,,,,,,1.312,1,,,,,,,,,,,,,,z,,,,,,,,,,,,,,,10,0,118.6859,120.0019,z,1,1.312,,[],[],[],[],[],[],[],120.0019,122.0019,122.002,122.0021,[],[],[],[],[],[],[],,122.0022,122.0024,-0.11179781,-0.404579536,0,0,0,,0,9,9,0,1,1,RL,abanemy,cursive,abanemy_c.png,,,,,,
,,,,32033,001,2025-11-05_22h48.01.393,HW_LDT_1,2024.2.4,MacIntel,57.14285714,,,,,,,,,,,,,,,,,,,,,,122.0034,122.2019,122.202,122.7019,,,,,,,,,,,,,,0.8035,1,,,,,,,,,,,,,,m,,,,,,,,,,,,,,,11,0,122.7025,123.5188,m,1,0.8035,,[],[],[],[],[],[],[],123.5189,125.5187,125.5187,125.5189,[],[],[],[],[],[],[],,125.519,125.5191,-0.11179781,-0.404579536,0,0,0,,0,10,10,145,1,1,word,RESUME,print,resume_p.png,,,,,,
,,,,32033,001,2025-11-05_22h48.01.393,HW_LDT_1,2024.2.4,MacIntel,57.14285714,,,,,,,,,,,,,,,,,,,,,,125.5202,125.7186,125.7187,126.2186,,,,,,,,,,,,,,1.1816,0,,,,,,,,,,,,,,z,,,,,,,,,,,,,,,12,0,126.2191,127.4016,m,0,1.1816,,[],[],[],[],[],[],[],127.4016,129.4019,129.402,129.4022,[],[],[],[],[],[],[],,129.4022,129.4023,-0.11179781,-0.404579536,0,0,0,,0,11,11,73,1,1,TL,ronamtic,cursive,ronamtic_c.png,,,,,,
,,,,32033,001,2025-11-05_22h48.01.393,HW_LDT_1,2024.2.4,MacIntel,57.14285714,,,,,,,,,,,,,,,,,,,,,,129.4034,129.6013,129.6013,130.1019,,,,,,,,,,,,,,1.3639,1,,,,,,,,,,,,,,z,,,,,,,,,,,,,,,13,0,130.1025,131.4687,z,1,1.3639,,[],[],[],[],[],[],[],131.4688,133.4685,133.4686,133.4688,[],[],[],[],[],[],[],,133.4688,133.469,-0.11179781,-0.404579536,0,0,0,,0,12,12,38,1,1,RL,stopave,cursive,stopave_c.png,,,,,,
,,,,32033,001,2025-11-05_22h48.01.393,HW_LDT_1,2024.2.4,MacIntel,57.14285714,,,,,,,,,,,,,,,,,,,,,,133.47,133.6678,133.6678,134.1685,,,,,,,,,,,,,,0.9132,1,,,,,,,,,,,,,,m,,,,,,,,,,,,,,,14,0,134.169,135.0853,m,1,0.9132,,[],[],[],[],[],[],[],135.0854,137.0853,137.0853,137.0854,[],[],[],[],[],[],[],,137.0856,137.0856,-0.11179781,-0.404579536,0,0,0,,0,13,13,139,1,1,word,REGULAR,print,regular_p.png,,,,,,
,,,,32033,001,2025-11-05_22h48.01.393,HW_LDT_1,2024.2.4,MacIntel,57.14285714,,,,,,,,,,,,,,,,,,,,,,137.0867,137.2852,137.2853,137.7853,,,,,,,,,,,,,,1.3307,1,,,,,,,,,,,,,,z,,,,,,,,,,,,,,,15,0,137.7857,139.1185,z,1,1.3307,,[],[],[],[],[],[],[],139.1186,141.1185,141.1186,141.1188,[],[],[],[],[],[],[],,141.1189,141.1189,-0.11179781,-0.404579536,0,0,0,,0,14,14,79,1,1,TL,veretan,print,veretan_p.png,,,,,,
,,,,32033,001,2025-11-05_22h48.01.393,HW_LDT_1,2024.2.4,MacIntel,57.14285714,,,,,,,,,,,,,,,,,,,,,,141.1201,141.3185,141.3185,141.8186,,,,,,,,,,,,,,1.4134,1,,,,,,,,,,,,,,z,,,,,,,,,,,,,,,16,0,141.8191,143.2353,z,1,1.4134,,[],[],[],[],[],[],[],143.2353,145.2351,145.2352,145.2354,[],[],[],[],[],[],[],,145.2354,145.2355,-0.11179781,-0.404579536,0,0,0,,0,15,15,72,1,1,TL,remuse,print,remuse_p.png,,,,,,
,,,,32033,001,2025-11-05_22h48.01.393,HW_LDT_1,2024.2.4,MacIntel,57.14285714,,,,,,,,,,,,,,,,,,,,,,145.2366,145.4352,145.4353,145.9352,,,,,,,,,,,,,,1.4215,1,,,,,,,,,,,,,,m,,,,,,,,,,,,,,,17,0,145.9357,147.3687,m,1,1.4215,,[],[],[],[],[],[],[],147.3688,149.3685,149.3686,149.3688,[],[],[],[],[],[],[],,149.3689,149.3689,-0.11179781,-0.404579536,0,0,0,,0,16,16,103,1,1,word,DISPUTE,cursive,dispute_c.png,,,,,,
,,,,32033,001,2025-11-05_22h48.01.393,HW_LDT_1,2024.2.4,MacIntel,57.14285714,,,,,,,,,,,,,,,,,,,,,,149.37,149.5685,149.5685,150.0685,,,,,,,,,,,,,,0.6969,1,,,,,,,,,,,,,,m,,,,,,,,,,,,,,,18,0,150.069,150.7685,m,1,0.6969,,[],[],[],[],[],[],[],150.7686,152.7685,152.7686,152.7688,[],[],[],[],[],[],[],,152.7688,152.7689,-0.11179781,-0.404579536,0,0,0,,0,17,17,115,1,1,word,LOGICAL,cursive,logical_c.png,,,,,,
,,,,32033,001,2025-11-05_22h48.01.393,HW_LDT_1,2024.2.4,MacIntel,57.14285714,,,,,,,,,,,,,,,,,,,,,,152.77,152.9685,152.9686,153.4685,,,,,,,,,,,,,,1.7048,1,,,,,,,,,,,,,,z,,,,,,,,,,,,,,,19,1,153.469,155.1852,z,1,1.7048,,[],[],[],[],[],[],[],155.1854,157.1851,157.1851,161.185,[],[],[],[],[],[],[],z,161.1852,161.1853,-0.11179781,-0.404579536,0,0,0,,0,18,18,33,1,1,RL,recile,cursive,recile_c.png,3.9988,,,,,
,,,,32033,001,2025-11-05_22h48.01.393,HW_LDT_1,2024.2.4,MacIntel,57.14285714,,,,,,,,,,,,,,,,,,,,,,161.1862,161.3851,161.3851,161.8851,,,,,,,,,,,,,,1.1303,0,,,,,,,,,,,,,,z,,,,,,,,,,,,,,,20,1,161.8856,163.0185,m,0,1.1303,,[],[],[],[],[],[],[],163.0186,165.0184,165.0185,169.352,[],[],[],[],[],[],[],z,169.3521,169.3522,-0.11179781,-0.404579536,0,0,0,,0,19,19,66,1,1,TL,panert,cursive,panert_c.png,4.3242,,,,,
,,,,32033,001,2025-11-05_22h48.01.393,HW_LDT_1,2024.2.4,MacIntel,57.14285714,,,,,,,,,,,,,,,,,,,,,,169.3534,169.552,169.552,170.0517,,,,,,,,,,,,,,1.3877,1,,,,,,,,,,,,,,m,,,,,,,,,,,,,,,21,0,170.0522,171.4518,m,1,1.3877,,[],[],[],[],[],[],[],171.4519,173.4516,173.4518,173.452,[],[],[],[],[],[],[],,173.4521,173.4522,-0.11179781,-0.404579536,0,0,0,,0,20,20,154,1,1,word,STORAGE,cursive,storage_c.png,,,,,,
,,,,32033,001,2025-11-05_22h48.01.393,HW_LDT_1,2024.2.4,MacIntel,57.14285714,,,,,,,,,,,,,,,,,,,,,,173.4532,173.6517,173.6517,174.1517,,,,,,,,,,,,,,1.5043,1,,,,,,,,,,,,,,m,,,,,,,,,,,,,,,22,0,174.1523,175.6676,m,1,1.5043,,[],[],[],[],[],[],[],175.6677,177.6684,177.6684,177.6686,[],[],[],[],[],[],[],,177.6687,177.6688,-0.11179781,-0.404579536,0,0,0,,0,21,21,140,1,1,word,RELATIVE,cursive,relative_c.png,,,,,,
,,,,32033,001,2025-11-05_22h48.01.393,HW_LDT_1,2024.2.4,MacIntel,57.14285714,,,,,,,,,,,,,,,,,,,,,,177.6699,177.8683,177.8683,178.3683,,,,,,,,,,,,,,1.3135,1,,,,,,,,,,,,,,z,,,,,,,,,,,,,,,23,0,178.3688,179.685,z,1,1.3135,,[],[],[],[],[],[],[],179.6851,181.6851,181.6851,181.6853,[],[],[],[],[],[],[],,181.6854,181.6854,-0.11179781,-0.404579536,0,0,0,,0,22,22,26,1,1,RL,quafidy,cursive,quafidy_c.png,,,,,,
,,,,32033,001,2025-11-05_22h48.01.393,HW_LDT_1,2024.2.4,MacIntel,57.14285714,,,,,,,,,,,,,,,,,,,,,,181.6866,181.885,181.885,182.385,,,,,,,,,,,,,,1.2365,0,,,,,,,,,,,,,,m,,,,,,,,,,,,,,,24,0,182.3856,183.6346,z,0,1.2365,,[],[],[],[],[],[],[],183.6347,185.6346,185.6346,185.6346,[],[],[],[],[],[],[],,185.6347,185.6347,-0.11179781,-0.404579536,0,0,0,,0,23,23,111,1,1,word,INDICATE,cursive,indicate_c.png,,,,,,
,,,,32033,001,2025-11-05_22h48.01.393,HW_LDT_1,2024.2.4,MacIntel,57.14285714,,,,,,,,,,,,,,,,,,,,,,185.635,185.8346,185.8346,186.3346,,,,,,,,,,,,,,1.9249,0,,,,,,,,,,,,,,z,,,,,,,,,,,,,,,25,0,186.3351,188.2684,m,0,1.9249,,[],[],[],[],[],[],[],188.2685,190.2683,190.2684,190.2686,[],[],[],[],[],[],[],,190.2686,190.2687,-0.11179781,-0.404579536,0,0,0,,0,24,24,48,1,1,TL,cemerony,cursive,cemerony_c.png,,,,,,
,,,,32033,001,2025-11-05_22h48.01.393,HW_LDT_1,2024.2.4,MacIntel,57.14285714,,,,,,,,,,,,,,,,,,,,,,190.2698,190.4683,190.4684,190.9684,,,,,,,,,,,,,,1.5138,1,,,,,,,,,,,,,,m,,,,,,,,,,,,,,,26,0,190.9688,192.4849,m,1,1.5138,,[],[],[],[],[],[],[],192.4851,194.485,194.4851,194.4853,[],[],[],[],[],[],[],,194.4853,194.4853,-0.11179781,-0.404579536,0,0,0,,0,25,25,153,1,1,word,STOLEN,print,stolen_p.png,,,,,,
,,,,32033,001,2025-11-05_22h48.01.393,HW_LDT_1,2024.2.4,MacIntel,57.14285714,,,,,,,,,,,,,,,,,,,,,,194.4864,194.6849,194.6849,195.1849,,,,,,,,,,,,,,0.8969,1,,,,,,,,,,,,,,m,,,,,,,,,,,,,,,27,0,195.1855,196.0851,m,1,0.8969,,[],[],[],[],[],[],[],196.0851,198.084,198.0841,198.0843,[],[],[],[],[],[],[],,198.0843,198.0844,-0.11179781,-0.404579536,0,0,0,,0,26,26,106,1,1,word,ELABORATE,print,elaborate_p.png,,,,,,
,,,,32033,001,2025-11-05_22h48.01.393,HW_LDT_1,2024.2.4,MacIntel,57.14285714,,,,,,,,,,,,,,,,,,,,,,198.0855,198.2849,198.2849,198.7849,,,,,,,,,,,,,,0.9227,1,,,,,,,,,,,,,,z,,,,,,,,,,,,,,,28,0,198.7854,199.7183,z,1,0.9227,,[],[],[],[],[],[],[],199.7185,201.7182,201.7183,201.7184,[],[],[],[],[],[],[],,201.7186,201.7186,-0.11179781,-0.404579536,0,0,0,,0,27,27,27,1,1,RL,rasibal,print,rasibal_p.png,,,,,,
,,,,32033,001,2025-11-05_22h48.01.393,HW_LDT_1,2024.2.4,MacIntel,57.14285714,,,,,,,,,,,,,,,,,,,,,,201.7197,201.9183,201.9183,202.4182,,,,,,,,,,,,,,1.6045,1,,,,,,,,,,,,,,m,,,,,,,,,,,,,,,29,0,202.4186,204.0341,m,1,1.6045,,[],[],[],[],[],[],[],204.0341,206.0348,206.0349,206.035,[],[],[],[],[],[],[],,206.035,206.0351,-0.11179781,-0.404579536,0,0,0,,0,28,28,99,1,1,word,DEBATE,print,debate_p.png,,,,,,
,,,,32033,001,2025-11-05_22h48.01.393,HW_LDT_1,2024.2.4,MacIntel,57.14285714,,,,,,,,,,,,,,,,,,,,,,206.0361,206.2339,206.2339,206.7348,,,,,,,,,,,,,,2.2472,0,,,,,,,,,,,,,,z,,,,,,,,,,,,,,,30,0,206.7353,208.9848,m,0,2.2472,,[],[],[],[],[],[],[],208.985,210.9849,210.9849,210.9851,[],[],[],[],[],[],[],,210.9852,210.9852,-0.11179781,-0.404579536,0,0,0,,0,29,29,56,1,1,TL,grafetul,print,grafetul_p.png,,,,,,
,,,,32033,001,2025-11-05_22h48.01.393,HW_LDT_1,2024.2.4,MacIntel,57.14285714,,,,,,,,,,,,,,,,,,,,,,210.9863,211.1849,211.1849,211.6848,,,,,,,,,,,,,,2.4701,1,,,,,,,,,,,,,,m,,,,,,,,,,,,,,,31,0,211.6854,214.1683,m,1,2.4701,,[],[],[],[],[],[],[],214.1684,216.1681,216.1682,216.1684,[],[],[],[],[],[],[],,216.1684,216.1685,-0.11179781,-0.404579536,0,0,0,,0,30,30,155,1,1,word,STRATEGY,cursive,strategy_c.png,,,,,,
,,,,32033,001,2025-11-05_22h48.01.393,HW_LDT_1,2024.2.4,MacIntel,57.14285714,,,,,,,,,,,,,,,,,,,,,,216.1695,216.3674,216.3674,216.8681,,,,,,,,,,,,,,0.8297,0,,,,,,,,,,,,,,m,,,,,,,,,,,,,,,32,0,216.8687,217.7015,z,0,0.8297,,[],[],[],[],[],[],[],217.7015,219.7014,219.7016,219.7017,[],[],[],[],[],[],[],,219.7017,219.7018,-0.11179781,-0.404579536,0,0,0,,0,31,31,105,1,1,word,EDITOR,cursive,editor_c.png,,,,,,
,,,,32033,001,2025-11-05_22h48.01.393,HW_LDT_1,2024.2.4,MacIntel,57.14285714,,,,,,,,,,,,,,,,,,,,,,219.703,219.9015,219.9015,220.4014,,,,,,,,,,,,,,1.5799,1,,,,,,,,,,,,,,z,,,,,,,,,,,,,,,33,0,220.4019,221.9848,z,1,1.5799,,[],[],[],[],[],[],[],221.9848,223.9847,223.9848,223.9849,[],[],[],[],[],[],[],,223.9851,223.9851,-0.11179781,-0.404579536,0,0,0,,0,32,32,51,1,1,TL,corevage,print,corevage_p.png,,,,,,
,,,,32033,001,2025-11-05_22h48.01.393,HW_LDT_1,2024.2.4,MacIntel,57.14285714,,,,,,,,,,,,,,,,,,,,,,223.9862,224.1847,224.1848,224.6837,,,,,,,,,,,,,,1.9385,0,,,,,,,,,,,,,,m,,,,,,,,,,,,,,,34,0,224.6843,226.6348,z,0,1.9385,,[],[],[],[],[],[],[],226.6349,228.6347,228.6347,228.6349,[],[],[],[],[],[],[],,228.635,228.635,-0.11179781,-0.404579536,0,0,0,,0,33,33,151,1,1,word,SPECIFIC,cursive,specific_c.png,,,,,,
,,,,32033,001,2025-11-05_22h48.01.393,HW_LDT_1,2024.2.4,MacIntel,57.14285714,,,,,,,,,,,,,,,,,,,,,,228.6361,228.8348,228.8349,229.3346,,,,,,,,,,,,,,1.7138,1,,,,,,,,,,,,,,z,,,,,,,,,,,,,,,35,0,229.335,231.0514,z,1,1.7138,,[],[],[],[],[],[],[],231.0515,233.0504,233.0505,233.0507,[],[],[],[],[],[],[],,233.0507,233.0508,-0.11179781,-0.404579536,0,0,0,,0,34,34,53,1,1,TL,dentisy,cursive,dentisy_c.png,,,,,,
,,,,32033,001,2025-11-05_22h48.01.393,HW_LDT_1,2024.2.4,MacIntel,57.14285714,,,,,,,,,,,,,,,,,,,,,,233.0519,233.2514,233.2515,233.7504,,,,,,,,,,,,,,0.8321,1,,,,,,,,,,,,,,z,,,,,,,,,,,,,,,36,0,233.751,234.5847,z,1,0.8321,,[],[],[],[],[],[],[],234.5848,236.5845,236.5846,236.5848,[],[],[],[],[],[],[],,236.5849,236.5849,-0.11179781,-0.404579536,0,0,0,,0,35,35,2,1,1,RL,asiral,print,asiral_p.png,,,,,,
,,,,32033,001,2025-11-05_22h48.01.393,HW_LDT_1,2024.2.4,MacIntel,57.14285714,,,,,,,,,,,,,,,,,,,,,,236.586,236.7847,236.7847,237.2848,,,,,,,,,,,,,,0.8301,1,,,,,,,,,,,,,,m,,,,,,,,,,,,,,,37,0,237.2853,238.1181,m,1,0.8301,,[],[],[],[],[],[],[],238.1181,240.118,240.1181,240.1182,[],[],[],[],[],[],[],,240.1183,240.1183,-0.11179781,-0.404579536,0,0,0,,0,36,36,109,1,1,word,GRATEFUL,print,grateful_p.png,,,,,,
,,,,32033,001,2025-11-05_22h48.01.393,HW_LDT_1,2024.2.4,MacIntel,57.14285714,,,,,,,,,,,,,,,,,,,,,,240.1195,240.3181,240.3181,240.818,,,,,,,,,,,,,,1.2877,1,,,,,,,,,,,,,,m,,,,,,,,,,,,,,,38,0,240.8185,242.1181,m,1,1.2877,,[],[],[],[],[],[],[],242.1182,244.117,244.1171,244.1173,[],[],[],[],[],[],[],,244.1173,244.1174,-0.11179781,-0.404579536,0,0,0,,0,37,37,94,1,1,word,CLINICAL,cursive,clinical_c.png,,,,,,
,,,,32033,001,2025-11-05_22h48.01.393,HW_LDT_1,2024.2.4,MacIntel,57.14285714,,,,,,,,,,,,,,,,,,,,,,244.1186,244.3179,244.318,244.818,,,,,,,,,,,,,,1.3545,1,,,,,,,,,,,,,,m,,,,,,,,,,,,,,,39,0,244.8185,246.1848,m,1,1.3545,,[],[],[],[],[],[],[],246.1849,248.1846,248.1847,248.1848,[],[],[],[],[],[],[],,248.1849,248.1851,-0.11179781,-0.404579536,0,0,0,,0,38,38,131,1,1,word,POPULAR,cursive,popular_c.png,,,,,,
,,,,32033,001,2025-11-05_22h48.01.393,HW_LDT_1,2024.2.4,MacIntel,57.14285714,,,,,,,,,,,,,,,,,,,,,,248.1862,248.3846,248.3846,248.8846,,,,,,,,,,,,,,0.8806,0,,,,,,,,,,,,,,m,,,,,,,,,,,,,,,40,0,248.8852,249.7679,z,0,0.8806,,[],[],[],[],[],[],[],249.768,251.768,251.7681,251.7682,[],[],[],[],[],[],[],,251.7683,251.7684,-0.11179781,-0.404579536,0,0,0,,0,39,39,124,1,1,word,NUMERICAL,print,numerical_p.png,,,,,,
,,,,32033,001,2025-11-05_22h48.01.393,HW_LDT_1,2024.2.4,MacIntel,57.14285714,,,,,,,,,,,,,,,,,,,,,,251.7694,251.9679,251.9679,252.4679,,,,,,,,,,,,,,0.7213,1,,,,,,,,,,,,,,z,,,,,,,,,,,,,,,41,0,252.4684,253.2014,z,1,0.7213,,[],[],[],[],[],[],[],253.2015,255.2013,255.2014,255.2016,[],[],[],[],[],[],[],,255.2016,255.2017,-0.11179781,-0.404579536,0,0,0,,0,40,40,7,1,1,RL,delahe,print,delahe_p.png,,,,,,
,,,,32033,001,2025-11-05_22h48.01.393,HW_LDT_1,2024.2.4,MacIntel,57.14285714,,,,,,,,,,,,,,,,,,,,,,255.2029,255.4004,255.4005,255.9012,,,,,,,,,,,,,,1.382,1,,,,,,,,,,,,,,m,,,,,,,,,,,,,,,42,0,255.9018,257.2845,m,1,1.382,,[],[],[],[],[],[],[],257.2846,259.2845,259.2846,259.2848,[],[],[],[],[],[],[],,259.2848,259.2849,-0.11179781,-0.404579536,0,0,0,,0,41,41,95,1,1,word,COMEDY,cursive,comedy_c.png,,,,,,
,,,,32033,001,2025-11-05_22h48.01.393,HW_LDT_1,2024.2.4,MacIntel,57.14285714,,,,,,,,,,,,,,,,,,,,,,259.286,259.4846,259.4846,259.9846,,,,,,,,,,,,,,2.4039,1,,,,,,,,,,,,,,m,,,,,,,,,,,,,,,43,0,259.9851,262.4014,m,1,2.4039,,[],[],[],[],[],[],[],262.4014,264.4012,264.4013,264.4014,[],[],[],[],[],[],[],,264.4015,264.4016,-0.11179781,-0.404579536,0,0,0,,0,42,42,133,1,1,word,PROVIDE,print,provide_p.png,,,,,,
,,,,32033,001,2025-11-05_22h48.01.393,HW_LDT_1,2024.2.4,MacIntel,57.14285714,,,,,,,,,,,,,,,,,,,,,,264.4027,264.6013,264.6014,265.1012,,,,,,,,,,,,,,0.9376,0,,,,,,,,,,,,,,z,,,,,,,,,,,,,,,44,0,265.1018,266.0504,m,0,0.9376,,[],[],[],[],[],[],[],266.0505,268.0512,268.0513,268.0514,[],[],[],[],[],[],[],,268.0515,268.0516,-0.11179781,-0.404579536,0,0,0,,0,43,43,49,1,1,TL,clicinal,cursive,clicinal_c.png,,,,,,
,,,,32033,001,2025-11-05_22h48.01.393,HW_LDT_1,2024.2.4,MacIntel,57.14285714,,,,,,,,,,,,,,,,,,,,,,268.0527,268.251,268.251,268.7502,,,,,,,,,,,,,,1.4819,1,,,,,,,,,,,,,,m,,,,,,,,,,,,,,,45,1,268.7507,270.2344,m,1,1.4819,,[],[],[],[],[],[],[],270.2346,272.2336,272.2337,275.6347,[],[],[],[],[],[],[],z,275.6348,275.6349,-0.11179781,-0.404579536,0,0,0,,0,44,44,86,1,1,word,BESIDE,print,beside_p.png,3.3906,,,,,
,,,,32033,001,2025-11-05_22h48.01.393,HW_LDT_1,2024.2.4,MacIntel,57.14285714,,,,,,,,,,,,,,,,,,,,,,275.6361,275.8345,275.8346,276.3345,,,,,,,,,,,,,,1.5043,1,,,,,,,,,,,,,,m,,,,,,,,,,,,,,,46,1,276.3352,277.8514,m,1,1.5043,,[],[],[],[],[],[],[],277.8515,279.8512,279.8512,281.6839,[],[],[],[],[],[],[],z,281.684,281.6841,-0.11179781,-0.404579536,0,0,0,,0,45,45,137,1,1,word,RAPIDLY,cursive,rapidly_c.png,1.8219,,,,,
,,,,32033,001,2025-11-05_22h48.01.393,HW_LDT_1,2024.2.4,MacIntel,57.14285714,,,,,,,,,,,,,,,,,,,,,,281.6853,281.8844,281.8845,282.3835,,,,,,,,,,,,,,1.4558,1,,,,,,,,,,,,,,z,,,,,,,,,,,,,,,47,0,282.3839,283.8512,z,1,1.4558,,[],[],[],[],[],[],[],283.8513,285.8502,285.8503,285.8503,[],[],[],[],[],[],[],,285.8505,285.8505,-0.11179781,-0.404579536,0,0,0,,0,46,46,44,1,1,TL,cateferia,cursive,cateferia_c.png,,,,,,
,,,,32033,001,2025-11-05_22h48.01.393,HW_LDT_1,2024.2.4,MacIntel,57.14285714,,,,,,,,,,,,,,,,,,,,,,285.8517,286.0502,286.0502,286.5511,,,,,,,,,,,,,,0.9466,1,,,,,,,,,,,,,,z,,,,,,,,,,,,,,,48,0,286.5516,287.5001,z,1,0.9466,,[],[],[],[],[],[],[],287.5002,289.501,289.5012,289.5013,[],[],[],[],[],[],[],,289.5013,289.5014,-0.11179781,-0.404579536,0,0,0,,0,47,47,31,1,1,RL,reconal,cursive,reconal_c.png,,,,,,
,,,,32033,001,2025-11-05_22h48.01.393,HW_LDT_1,2024.2.4,MacIntel,57.14285714,,,,,,,,,,,,,,,,,,,,,,289.5025,289.7011,289.7012,290.2014,,,,,,,,,,,,,,1.0634,1,,,,,,,,,,,,,,z,,,,,,,,,,,,,,,49,0,290.2019,291.2678,z,1,1.0634,,[],[],[],[],[],[],[],291.2678,293.2677,293.2678,293.268,[],[],[],[],[],[],[],,293.268,293.2681,-0.11179781,-0.404579536,0,0,0,,0,48,48,57,1,1,TL,hetirage,cursive,hetirage_c.png,,,,,,
,,,,32033,001,2025-11-05_22h48.01.393,HW_LDT_1,2024.2.4,MacIntel,57.14285714,,,,,,,,,,,,,,,,,,,,,,293.2692,293.4678,293.4678,293.9677,,,,,,,,,,,,,,1.3044,1,,,,,,,,,,,,,,z,,,,,,,,,,,,,,,50,0,293.9682,295.2844,z,1,1.3044,,[],[],[],[],[],[],[],295.2845,297.2844,297.2845,297.2847,[],[],[],[],[],[],[],,297.2847,297.2847,-0.11179781,-0.404579536,0,0,0,,0,49,49,55,1,1,TL,fornute,print,fornute_p.png,,,,,,
,,,,32033,001,2025-11-05_22h48.01.393,HW_LDT_1,2024.2.4,MacIntel,57.14285714,,,,,,,,,,,,,,,,,,,,,,297.2858,297.4843,297.4844,297.9844,,,,,,,,,,,,,,1.3639,1,,,,,,,,,,,,,,z,,,,,,,,,,,,,,,51,0,297.9849,299.351,z,1,1.3639,,[],[],[],[],[],[],[],299.3511,301.351,301.351,301.3512,[],[],[],[],[],[],[],,301.3513,301.3514,-0.11179781,-0.404579536,0,0,0,,0,50,50,17,1,1,RL,menowy,cursive,menowy_c.png,,,,,,
,,,,32033,001,2025-11-05_22h48.01.393,HW_LDT_1,2024.2.4,MacIntel,57.14285714,,,,,,,,,,,,,,,,,,,,,,301.3524,301.551,301.551,302.051,,,,,,,,,,,,,,1.747,0,,,,,,,,,,,,,,m,,,,,,,,,,,,,,,52,1,302.0516,303.8011,z,0,1.747,,[],[],[],[],[],[],[],303.8012,305.801,305.801,307.5178,[],[],[],[],[],[],[],z,307.5178,307.518,-0.11179781,-0.404579536,0,0,0,,0,51,51,119,1,1,word,MEMORY,cursive,memory_c.png,1.7052,,,,,
,,,,32033,001,2025-11-05_22h48.01.393,HW_LDT_1,2024.2.4,MacIntel,57.14285714,,,,,,,,,,,,,,,,,,,,,,307.519,307.7176,307.7177,308.2176,,,,,,,,,,,,,,1.4804,0,,,,,,,,,,,,,,z,,,,,,,,,,,,,,,53,0,308.2182,309.701,m,0,1.4804,,[],[],[],[],[],[],[],309.7011,311.7011,311.7011,311.7013,[],[],[],[],[],[],[],,311.7013,311.7014,-0.11179781,-0.404579536,0,0,0,,0,52,52,61,1,1,TL,mecidine,cursive,mecidine_c.png,,,,,,
,,,,32033,001,2025-11-05_22h48.01.393,HW_LDT_1,2024.2.4,MacIntel,57.14285714,,,,,,,,,,,,,,,,,,,,,,311.7025,311.9011,311.9011,312.4001,,,,,,,,,,,,,,1.9805,1,,,,,,,,,,,,,,m,,,,,,,,,,,,,,,54,0,312.4006,314.3844,m,1,1.9805,,[],[],[],[],[],[],[],314.3844,316.3834,316.3834,316.3835,[],[],[],[],[],[],[],,316.3836,316.3837,-0.11179781,-0.404579536,0,0,0,,0,53,53,130,1,1,word,POLICY,cursive,policy_c.png,,,,,,
,,,,32033,001,2025-11-05_22h48.01.393,HW_LDT_1,2024.2.4,MacIntel,57.14285714,,,,,,,,,,,,,,,,,,,,,,316.3848,316.5843,316.5844,317.0843,,,,,,,,,,,,,,1.9376,1,,,,,,,,,,,,,,m,,,,,,,,,,,,,,,55,0,317.0848,319.0345,m,1,1.9376,,[],[],[],[],[],[],[],319.0347,321.0342,321.0342,321.0344,[],[],[],[],[],[],[],,321.0344,321.0345,-0.11179781,-0.404579536,0,0,0,,0,54,54,92,1,1,word,CATEGORY,print,category_p.png,,,,,,
,,,,32033,001,2025-11-05_22h48.01.393,HW_LDT_1,2024.2.4,MacIntel,57.14285714,,,,,,,,,,,,,,,,,,,,,,321.0356,321.2343,321.2343,321.7343,,,,,,,,,,,,,,0.731,0,,,,,,,,,,,,,,m,,,,,,,,,,,,,,,56,0,321.7348,322.4676,z,0,0.731,,[],[],[],[],[],[],[],322.4676,324.4676,324.4676,324.4678,[],[],[],[],[],[],[],,324.4678,324.4679,-0.11179781,-0.404579536,0,0,0,,0,55,55,149,1,1,word,SENATOR,cursive,senator_c.png,,,,,,
,,,,32033,001,2025-11-05_22h48.01.393,HW_LDT_1,2024.2.4,MacIntel,57.14285714,,,,,,,,,,,,,,,,,,,,,,324.469,324.6676,324.6677,325.1675,,,,,,,,,,,,,,0.7227,1,,,,,,,,,,,,,,m,,,,,,,,,,,,,,,57,1,325.168,325.901,m,1,0.7227,,[],[],[],[],[],[],[],325.9011,327.901,327.901,329.7175,[],[],[],[],[],[],[],m,329.7176,329.7177,-0.11179781,-0.404579536,0,0,0,,0,56,56,118,1,1,word,MEDICINE,cursive,medicine_c.png,1.8149,,,,,
,,,,32033,001,2025-11-05_22h48.01.393,HW_LDT_1,2024.2.4,MacIntel,57.14285714,,,,,,,,,,,,,,,,,,,,,,329.7186,329.9177,329.9177,330.4175,,,,,,,,,,,,,,1.0317,0,,,,,,,,,,,,,,m,,,,,,,,,,,,,,,58,1,330.418,331.4508,z,0,1.0317,,[],[],[],[],[],[],[],331.4509,333.4508,333.4508,335.0175,[],[],[],[],[],[],[],z,335.0175,335.0176,-0.11179781,-0.404579536,0,0,0,,0,57,57,146,1,1,word,RETIRE,cursive,retire_c.png,1.5648,,,,,
,,,,32033,001,2025-11-05_22h48.01.393,HW_LDT_1,2024.2.4,MacIntel,57.14285714,,,,,,,,,,,,,,,,,,,,,,335.0185,335.2168,335.2168,335.7175,,,,,,,,,,,,,,1.7077,1,,,,,,,,,,,,,,m,,,,,,,,,,,,,,,59,0,335.7181,337.4343,m,1,1.7077,,[],[],[],[],[],[],[],337.4345,339.4332,339.4333,339.4334,[],[],[],[],[],[],[],,339.4335,339.4335,-0.11179781,-0.404579536,0,0,0,,0,58,58,156,1,1,word,TRIBUTE,cursive,tribute_c.png,,,,,,
,,,,32033,001,2025-11-05_22h48.01.393,HW_LDT_1,2024.2.4,MacIntel,57.14285714,,,,,,,,,,,,,,,,,,,,,,339.4346,339.6333,339.6333,340.1341,,,,,,,,,,,,,,2.3978,1,,,,,,,,,,,,,,m,,,,,,,,,,,,,,,60,0,340.1347,342.5342,m,1,2.3978,,[],[],[],[],[],[],[],342.5342,344.5342,344.5342,344.5344,[],[],[],[],[],[],[],,344.5344,344.5345,-0.11179781,-0.404579536,0,0,0,,0,59,59,102,1,1,word,DENSITY,cursive,density_c.png,,,,,,
,,,,32033,001,2025-11-05_22h48.01.393,HW_LDT_1,2024.2.4,MacIntel,57.14285714,,,,,,,,,,,,,,,,,,,,,,344.5356,344.7341,344.7342,345.2342,,,,,,,,,,,,,,1.464,1,,,,,,,,,,,,,,m,,,,,,,,,,,,,,,61,0,345.2348,346.7001,m,1,1.464,,[],[],[],[],[],[],[],346.7002,348.7007,348.7008,348.701,[],[],[],[],[],[],[],,348.701,348.7011,-0.11179781,-0.404579536,0,0,0,,0,60,60,144,1,1,word,RESIDENT,print,resident_p.png,,,,,,
,,,,32033,001,2025-11-05_22h48.01.393,HW_LDT_1,2024.2.4,MacIntel,57.14285714,,,,,,,,,,,,,,,,,,,,,,348.7021,348.9008,348.9009,349.4008,,,,,,,,,,,,,,1.2572,0,,,,,,,,,,,,,,m,,,,,,,,,,,,,,,62,0,349.4013,350.6674,z,0,1.2572,,[],[],[],[],[],[],[],350.6675,352.6674,352.6674,352.6676,[],[],[],[],[],[],[],,352.6676,352.6678,-0.11179781,-0.404579536,0,0,0,,0,61,61,87,1,1,word,CAFETERIA,cursive,cafeteria_c.png,,,,,,
,,,,32033,001,2025-11-05_22h48.01.393,HW_LDT_1,2024.2.4,MacIntel,57.14285714,,,,,,,,,,,,,,,,,,,,,,352.6688,352.8674,352.8674,353.3674,,,,,,,,,,,,,,2.8045,1,,,,,,,,,,,,,,z,,,,,,,,,,,,,,,63,0,353.368,356.1842,z,1,2.8045,,[],[],[],[],[],[],[],356.1843,358.184,358.1842,358.1843,[],[],[],[],[],[],[],,358.1843,358.1844,-0.11179781,-0.404579536,0,0,0,,0,62,62,8,1,1,RL,debave,print,debave_p.png,,,,,,
,,,,32033,001,2025-11-05_22h48.01.393,HW_LDT_1,2024.2.4,MacIntel,57.14285714,,,,,,,,,,,,,,,,,,,,,,358.1855,358.3841,358.3841,358.8832,,,,,,,,,,,,,,1.9313,1,,,,,,,,,,,,,,z,,,,,,,,,,,,,,,64,0,358.8836,360.8175,z,1,1.9313,,[],[],[],[],[],[],[],360.8176,362.8174,362.8175,362.8176,[],[],[],[],[],[],[],,362.8177,362.8177,-0.11179781,-0.404579536,0,0,0,,0,63,63,21,1,1,RL,opcifal,print,opcifal_p.png,,,,,,
,,,,32033,001,2025-11-05_22h48.01.393,HW_LDT_1,2024.2.4,MacIntel,57.14285714,,,,,,,,,,,,,,,,,,,,,,362.8188,363.0174,363.0174,363.5174,,,,,,,,,,,,,,1.2076,1,,,,,,,,,,,,,,m,,,,,,,,,,,,,,,65,1,363.5179,364.7343,m,1,1.2076,,[],[],[],[],[],[],[],364.7343,366.7341,366.7342,368.0664,[],[],[],[],[],[],[],m,368.0665,368.0667,-0.11179781,-0.404579536,0,0,0,,0,64,64,148,1,1,word,SALINE,print,saline_p.png,1.3313,,,,,
,,,,32033,001,2025-11-05_22h48.01.393,HW_LDT_1,2024.2.4,MacIntel,57.14285714,,,,,,,,,,,,,,,,,,,,,,368.0678,368.2673,368.2674,368.7674,,,,,,,,,,,,,,1.1152,1,,,,,,,,,,,,,,m,,,,,,,,,,,,,,,66,0,368.7679,369.884,m,1,1.1152,,[],[],[],[],[],[],[],369.8841,371.884,371.884,371.8842,[],[],[],[],[],[],[],,371.8842,371.8843,-0.11179781,-0.404579536,0,0,0,,0,65,65,134,1,1,word,QUALIFY,cursive,qualify_c.png,,,,,,
,,,,32033,001,2025-11-05_22h48.01.393,HW_LDT_1,2024.2.4,MacIntel,57.14285714,,,,,,,,,,,,,,,,,,,,,,371.885,372.084,372.084,372.584,,,,,,,,,,,,,,1.0142,1,,,,,,,,,,,,,,z,,,,,,,,,,,,,,,67,0,372.5845,373.6007,z,1,1.0142,,[],[],[],[],[],[],[],373.6008,375.5997,375.5997,375.5999,[],[],[],[],[],[],[],,375.5999,375.6,-0.11179781,-0.404579536,0,0,0,,0,66,66,64,1,1,TL,orepator,cursive,orepator_c.png,,,,,,
,,,,32033,001,2025-11-05_22h48.01.393,HW_LDT_1,2024.2.4,MacIntel,57.14285714,,,,,,,,,,,,,,,,,,,,,,375.6011,375.8007,375.8007,376.3007,,,,,,,,,,,,,,0.856,1,,,,,,,,,,,,,,z,,,,,,,,,,,,,,,68,0,376.3012,377.1674,z,1,0.856,,[],[],[],[],[],[],[],377.1675,379.1663,379.1663,379.1665,[],[],[],[],[],[],[],,379.1666,379.1667,-0.11179781,-0.404579536,0,0,0,,0,67,67,18,1,1,RL,mishafe,print,mishafe_p.png,,,,,,
,,,,32033,001,2025-11-05_22h48.01.393,HW_LDT_1,2024.2.4,MacIntel,57.14285714,,,,,,,,,,,,,,,,,,,,,,379.1678,379.3674,379.3674,379.8673,,,,,,,,,,,,,,0.8712,0,,,,,,,,,,,,,,z,,,,,,,,,,,,,,,69,1,379.8678,380.7497,m,0,0.8712,,[],[],[],[],[],[],[],380.7498,382.7506,382.7506,384.4163,[],[],[],[],[],[],[],m,384.4164,384.4165,-0.11179781,-0.404579536,0,0,0,,0,68,68,22,1,1,RL,patisic,print,patisic_p.png,1.6645,,,,,
,,,,32033,001,2025-11-05_22h48.01.393,HW_LDT_1,2024.2.4,MacIntel,57.14285714,,,,,,,,,,,,,,,,,,,,,,384.4174,384.6173,384.6173,385.1173,,,,,,,,,,,,,,0.9544,0,,,,,,,,,,,,,,z,,,,,,,,,,,,,,,70,0,385.1178,386.084,m,0,0.9544,,[],[],[],[],[],[],[],386.0841,388.0839,388.0839,388.0842,[],[],[],[],[],[],[],,388.0842,388.0842,-0.11179781,-0.404579536,0,0,0,,0,69,69,46,1,1,TL,catipal,print,catipal_p.png,,,,,,
,,,,32033,001,2025-11-05_22h48.01.393,HW_LDT_1,2024.2.4,MacIntel,57.14285714,,,,,,,,,,,,,,,,,,,,,,388.0853,388.2838,388.2839,388.7839,,,,,,,,,,,,,,0.9636,1,,,,,,,,,,,,,,m,,,,,,,,,,,,,,,71,0,388.7845,389.7505,m,1,0.9636,,[],[],[],[],[],[],[],389.7506,391.7506,391.7506,391.7508,[],[],[],[],[],[],[],,391.7508,391.7509,-0.11179781,-0.404579536,0,0,0,,0,70,70,126,1,1,word,OPTIMAL,print,optimal_p.png,,,,,,
,,,,32033,001,2025-11-05_22h48.01.393,HW_LDT_1,2024.2.4,MacIntel,57.14285714,,,,,,,,,,,,,,,,,,,,,,391.7521,391.9496,391.9497,392.4506,,,,,,,,,,,,,,1.2974,1,,,,,,,,,,,,,,m,,,,,,,,,,,,,,,72,0,392.451,393.7505,m,1,1.2974,,[],[],[],[],[],[],[],393.7505,395.7506,395.7507,395.7508,[],[],[],[],[],[],[],,395.7508,395.7509,-0.11179781,-0.404579536,0,0,0,,0,71,71,128,1,1,word,PACIFIC,print,pacific_p.png,,,,,,
,,,,32033,001,2025-11-05_22h48.01.393,HW_LDT_1,2024.2.4,MacIntel,57.14285714,,,,,,,,,,,,,,,,,,,,,,395.752,395.9505,395.9506,396.4505,,,,,,,,,,,,,,1.1878,1,,,,,,,,,,,,,,m,,,,,,,,,,,,,,,73,0,396.451,397.6506,m,1,1.1878,,[],[],[],[],[],[],[],397.6507,399.6505,399.6506,399.6507,[],[],[],[],[],[],[],,399.6508,399.6508,-0.11179781,-0.404579536,0,0,0,,0,72,72,97,1,1,word,COVERAGE,print,coverage_p.png,,,,,,
,,,,32033,001,2025-11-05_22h48.01.393,HW_LDT_1,2024.2.4,MacIntel,57.14285714,,,,,,,,,,,,,,,,,,,,,,399.6519,399.8504,399.8505,400.3505,,,,,,,,,,,,,,1.3723,1,,,,,,,,,,,,,,z,,,,,,,,,,,,,,,74,0,400.351,401.7339,z,1,1.3723,,[],[],[],[],[],[],[],401.734,403.7339,403.7339,403.734,[],[],[],[],[],[],[],,403.7341,403.7342,-0.11179781,-0.404579536,0,0,0,,0,73,73,67,1,1,TL,pocily,cursive,pocily_c.png,,,,,,
,,,,32033,001,2025-11-05_22h48.01.393,HW_LDT_1,2024.2.4,MacIntel,57.14285714,,,,,,,,,,,,,,,,,,,,,,403.7353,403.933,403.9331,404.4335,,,,,,,,,,,,,,0.9072,0,,,,,,,,,,,,,,m,,,,,,,,,,,,,,,75,0,404.4337,405.3506,z,0,0.9072,,[],[],[],[],[],[],[],405.3507,407.3504,407.3505,407.3507,[],[],[],[],[],[],[],,407.3507,407.3509,-0.11179781,-0.404579536,0,0,0,,0,74,74,88,1,1,word,CAMERA,cursive,camera_c.png,,,,,,
,,,,32033,001,2025-11-05_22h48.01.393,HW_LDT_1,2024.2.4,MacIntel,57.14285714,,,,,,,,,,,,,,,,,,,,,,407.3519,407.5505,407.5505,408.0505,,,,,,,,,,,,,,1.3374,1,,,,,,,,,,,,,,z,,,,,,,,,,,,,,,76,0,408.0509,409.4005,z,1,1.3374,,[],[],[],[],[],[],[],409.4006,411.4005,411.4005,411.4007,[],[],[],[],[],[],[],,411.4007,411.4009,-0.11179781,-0.404579536,0,0,0,,0,75,75,3,1,1,RL,casena,cursive,casena_c.png,,,,,,
,,,,32033,001,2025-11-05_22h48.01.393,HW_LDT_1,2024.2.4,MacIntel,57.14285714,,,,,,,,,,,,,,,,,,,,,,411.4019,411.6005,411.6005,412.1005,,,,,,,,,,,,,,0.9709,1,,,,,,,,,,,,,,z,,,,,,,,,,,,,,,77,0,412.1009,413.0838,z,1,0.9709,,[],[],[],[],[],[],[],413.084,415.0838,415.0838,415.0839,[],[],[],[],[],[],[],,415.084,415.0841,-0.11179781,-0.404579536,0,0,0,,0,76,76,63,1,1,TL,molibe,cursive,molibe_c.png,,,,,,
,,,,32033,001,2025-11-05_22h48.01.393,HW_LDT_1,2024.2.4,MacIntel,57.14285714,,,,,,,,,,,,,,,,,,,,,,415.0852,415.2829,415.2829,415.7839,,,,,,,,,,,,,,0.7793,1,,,,,,,,,,,,,,z,,,,,,,,,,,,,,,78,1,415.7843,416.5661,z,1,0.7793,,[],[],[],[],[],[],[],416.5662,418.5671,418.5671,419.7006,[],[],[],[],[],[],[],m,419.7006,419.7007,-0.11179781,-0.404579536,0,0,0,,0,77,77,37,1,1,RL,skofen,print,skofen_p.png,1.1218,,,,,
,,,,32033,001,2025-11-05_22h48.01.393,HW_LDT_1,2024.2.4,MacIntel,57.14285714,,,,,,,,,,,,,,,,,,,,,,419.7018,419.8994,419.8995,420.4005,,,,,,,,,,,,,,0.9648,0,,,,,,,,,,,,,,z,,,,,,,,,,,,,,,79,0,420.4009,421.367,m,0,0.9648,,[],[],[],[],[],[],[],421.3671,423.3671,423.3672,423.3673,[],[],[],[],[],[],[],,423.3674,423.3675,-0.11179781,-0.404579536,0,0,0,,0,78,78,76,1,1,TL,stragety,cursive,stragety_c.png,,,,,,
,,,,32033,001,2025-11-05_22h48.01.393,HW_LDT_1,2024.2.4,MacIntel,57.14285714,,,,,,,,,,,,,,,,,,,,,,423.3685,423.567,423.5671,424.067,,,,,,,,,,,,,,0.9723,1,,,,,,,,,,,,,,m,,,,,,,,,,,,,,,80,1,424.0676,425.0506,m,1,0.9723,,[],[],[],[],[],[],[],425.0506,427.0504,427.0505,428.8161,[],[],[],[],[],[],[],z,428.8161,448.4173,-0.11179781,-0.404579536,0,0,0,space,0,79,79,159,1,1,word,VETERAN,print,veteran_p.png,1.7647,,19.5707,,,
,,,,32033,001,2025-11-05_22h48.01.393,HW_LDT_1,2024.2.4,MacIntel,57.14285714,,,,,,,,,,,,,,,,,,,,,,448.4187,448.617,448.617,449.116,,,,,,,,,,,,,,1.8385,1,,,,,,,,,,,,,,z,,,,,,,,,,,,,,,81,0,449.1166,450.9671,z,1,1.8385,,[],[],[],[],[],[],[],450.9671,452.9669,452.9669,452.9671,[],[],[],[],[],[],[],,452.9672,452.9672,-0.11179781,-0.404579536,0,0,0,,0,80,80,42,1,1,TL,befenit,print,befenit_p.png,,,,,,
,,,,32033,001,2025-11-05_22h48.01.393,HW_LDT_1,2024.2.4,MacIntel,57.14285714,,,,,,,,,,,,,,,,,,,,,,452.9683,453.1669,453.167,453.667,,,,,,,,,,,,,,2.8298,0,,,,,,,,,,,,,,z,,,,,,,,,,,,,,,82,0,453.6675,456.4993,m,0,2.8298,,[],[],[],[],[],[],[],456.4994,458.5003,458.5003,458.5004,[],[],[],[],[],[],[],,458.5004,458.5006,-0.11179781,-0.404579536,0,0,0,,0,81,81,39,1,1,RL,vabifity,cursive,vabifity_c.png,,,,,,
,,,,32033,001,2025-11-05_22h48.01.393,HW_LDT_1,2024.2.4,MacIntel,57.14285714,,,,,,,,,,,,,,,,,,,,,,458.5017,458.7003,458.7003,459.1993,,,,,,,,,,,,,,0.9055,1,,,,,,,,,,,,,,z,,,,,,,,,,,,,,,83,1,459.1998,460.1171,z,1,0.9055,,[],[],[],[],[],[],[],460.1171,462.1169,462.117,464.3837,[],[],[],[],[],[],[],m,464.3837,464.3839,-0.11179781,-0.404579536,0,0,0,,0,82,82,60,1,1,TL,manire,print,manire_p.png,2.2538,,,,,
,,,,32033,001,2025-11-05_22h48.01.393,HW_LDT_1,2024.2.4,MacIntel,57.14285714,,,,,,,,,,,,,,,,,,,,,,464.3849,464.5836,464.5837,465.0835,,,,,,,,,,,,,,2.1971,1,,,,,,,,,,,,,,z,,,,,,,,,,,,,,,84,0,465.084,467.2835,z,1,2.1971,,[],[],[],[],[],[],[],467.2836,469.2835,469.2836,469.2838,[],[],[],[],[],[],[],,469.2838,469.2839,-0.11179781,-0.404579536,0,0,0,,0,83,83,40,1,1,TL,atameur,print,atameur_p.png,,,,,,
,,,,32033,001,2025-11-05_22h48.01.393,HW_LDT_1,2024.2.4,MacIntel,57.14285714,,,,,,,,,,,,,,,,,,,,,,469.285,469.4835,469.4835,469.9835,,,,,,,,,,,,,,0.6732,1,,,,,,,,,,,,,,m,,,,,,,,,,,,,,,85,1,469.984,470.6668,m,1,0.6732,,[],[],[],[],[],[],[],470.6669,472.6667,472.6668,473.9825,[],[],[],[],[],[],[],z,473.9826,473.9826,-0.11179781,-0.404579536,0,0,0,,0,84,84,147,1,1,word,ROMANTIC,cursive,romantic_c.png,1.313,,,,,
,,,,32033,001,2025-11-05_22h48.01.393,HW_LDT_1,2024.2.4,MacIntel,57.14285714,,,,,,,,,,,,,,,,,,,,,,473.9836,474.1825,474.1825,474.6824,,,,,,,,,,,,,,1.0213,1,,,,,,,,,,,,,,m,,,,,,,,,,,,,,,86,0,474.683,475.7159,m,1,1.0213,,[],[],[],[],[],[],[],475.7161,477.7168,477.7168,477.717,[],[],[],[],[],[],[],,477.717,477.7171,-0.11179781,-0.404579536,0,0,0,,0,85,85,121,1,1,word,MISTAKE,print,mistake_p.png,,,,,,
,,,,32033,001,2025-11-05_22h48.01.393,HW_LDT_1,2024.2.4,MacIntel,57.14285714,,,,,,,,,,,,,,,,,,,,,,477.7182,477.9169,477.9169,478.4168,,,,,,,,,,,,,,0.9365,1,,,,,,,,,,,,,,m,,,,,,,,,,,,,,,87,0,478.4173,479.367,m,1,0.9365,,[],[],[],[],[],[],[],479.3671,481.3658,481.3659,481.366,[],[],[],[],[],[],[],,481.366,481.3662,-0.11179781,-0.404579536,0,0,0,,0,86,86,112,1,1,word,LIBERAL,cursive,liberal_c.png,,,,,,
,,,,32033,001,2025-11-05_22h48.01.393,HW_LDT_1,2024.2.4,MacIntel,57.14285714,,,,,,,,,,,,,,,,,,,,,,481.3671,481.5669,481.5669,482.0668,,,,,,,,,,,,,,1.7307,1,,,,,,,,,,,,,,m,,,,,,,,,,,,,,,88,0,482.0672,483.7992,m,1,1.7307,,[],[],[],[],[],[],[],483.7992,485.8001,485.8002,485.8003,[],[],[],[],[],[],[],,485.8003,485.8005,-0.11179781,-0.404579536,0,0,0,,0,87,87,89,1,1,word,CAPACITY,print,capacity_p.png,,,,,,
,,,,32033,001,2025-11-05_22h48.01.393,HW_LDT_1,2024.2.4,MacIntel,57.14285714,,,,,,,,,,,,,,,,,,,,,,485.8015,486.0001,486.0002,486.5001,,,,,,,,,,,,,,1.8741,1,,,,,,,,,,,,,,z,,,,,,,,,,,,,,,89,0,486.5006,488.3835,z,1,1.8741,,[],[],[],[],[],[],[],488.3836,490.3834,490.3835,490.3836,[],[],[],[],[],[],[],,490.3837,490.3837,-0.11179781,-0.404579536,0,0,0,,0,88,88,25,1,1,RL,quakity,cursive,quakity_c.png,,,,,,
,,,,32033,001,2025-11-05_22h48.01.393,HW_LDT_1,2024.2.4,MacIntel,57.14285714,,,,,,,,,,,,,,,,,,,,,,490.3848,490.5833,490.5834,491.0835,,,,,,,,,,,,,,0.8712,0,,,,,,,,,,,,,,z,,,,,,,,,,,,,,,90,0,491.0839,491.9669,m,0,0.8712,,[],[],[],[],[],[],[],491.9669,493.9667,493.9668,493.9669,[],[],[],[],[],[],[],,493.9669,493.967,-0.11179781,-0.404579536,0,0,0,,0,89,89,62,1,1,TL,mitilary,print,mitilary_p.png,,,,,,
,,,,32033,001,2025-11-05_22h48.01.393,HW_LDT_1,2024.2.4,MacIntel,57.14285714,,,,,,,,,,,,,,,,,,,,,,493.9681,494.1667,494.1667,494.6667,,,,,,,,,,,,,,2.5042,1,,,,,,,,,,,,,,m,,,,,,,,,,,,,,,91,1,494.6671,497.1835,m,1,2.5042,,[],[],[],[],[],[],[],497.1835,499.1833,499.1833,501.999,[],[],[],[],[],[],[],z,501.9991,501.9991,-0.11179781,-0.404579536,0,0,0,,0,90,90,80,1,1,word,ACADEMY,cursive,academy_c.png,2.813,,,,,
,,,,32033,001,2025-11-05_22h48.01.393,HW_LDT_1,2024.2.4,MacIntel,57.14285714,,,,,,,,,,,,,,,,,,,,,,502,502.2,502.2001,502.6999,,,,,,,,,,,,,,1.79,1,,,,,,,,,,,,,,m,,,,,,,,,,,,,,,92,0,502.7003,504.499,m,1,1.79,,[],[],[],[],[],[],[],504.4991,506.5,506.5,506.5001,[],[],[],[],[],[],[],,506.5002,506.5004,-0.11179781,-0.404579536,0,0,0,,0,91,91,132,1,1,word,PROPOSAL,cursive,proposal_c.png,,,,,,
,,,,32033,001,2025-11-05_22h48.01.393,HW_LDT_1,2024.2.4,MacIntel,57.14285714,,,,,,,,,,,,,,,,,,,,,,506.5014,506.7,506.7,507.1999,,,,,,,,,,,,,,1.6551,1,,,,,,,,,,,,,,m,,,,,,,,,,,,,,,93,0,507.2004,508.8667,m,1,1.6551,,[],[],[],[],[],[],[],508.8668,510.8667,510.8667,510.8668,[],[],[],[],[],[],[],,510.8669,510.8669,-0.11179781,-0.404579536,0,0,0,,0,92,92,116,1,1,word,MARGINAL,print,marginal_p.png,,,,,,
,,,,32033,001,2025-11-05_22h48.01.393,HW_LDT_1,2024.2.4,MacIntel,57.14285714,,,,,,,,,,,,,,,,,,,,,,510.8681,511.0667,511.0667,511.5666,,,,,,,,,,,,,,1.2981,1,,,,,,,,,,,,,,z,,,,,,,,,,,,,,,94,1,511.5672,512.8661,z,1,1.2981,,[],[],[],[],[],[],[],512.8661,514.8665,514.8666,517.2158,[],[],[],[],[],[],[],z,517.2159,517.216,-0.11179781,-0.404579536,0,0,0,,0,93,93,9,1,1,RL,docirant,cursive,docirant_c.png,2.3384,,,,,
,,,,32033,001,2025-11-05_22h48.01.393,HW_LDT_1,2024.2.4,MacIntel,57.14285714,,,,,,,,,,,,,,,,,,,,,,517.2171,517.4164,517.4165,517.9166,,,,,,,,,,,,,,3.6543,1,,,,,,,,,,,,,,z,,,,,,,,,,,,,,,95,1,517.9171,521.5824,z,1,3.6543,,[],[],[],[],[],[],[],521.5824,523.5832,523.5833,525.1499,[],[],[],[],[],[],[],z,525.1499,525.1501,-0.11179781,-0.404579536,0,0,0,,0,94,94,50,1,1,TL,condiser,cursive,condiser_c.png,1.5572,,,,,
,,,,32033,001,2025-11-05_22h48.01.393,HW_LDT_1,2024.2.4,MacIntel,57.14285714,,,,,,,,,,,,,,,,,,,,,,525.1511,525.349,525.349,525.8499,,,,,,,,,,,,,,1.5136,0,,,,,,,,,,,,,,z,,,,,,,,,,,,,,,96,0,525.8505,527.3666,m,0,1.5136,,[],[],[],[],[],[],[],527.3667,529.3664,529.3665,529.3668,[],[],[],[],[],[],[],,529.3668,529.3669,-0.11179781,-0.404579536,0,0,0,,0,95,95,78,1,1,TL,vecolity,print,vecolity_p.png,,,,,,
,,,,32033,001,2025-11-05_22h48.01.393,HW_LDT_1,2024.2.4,MacIntel,57.14285714,,,,,,,,,,,,,,,,,,,,,,529.368,529.5666,529.5666,530.0655,,,,,,,,,,,,,,3.0218,0,,,,,,,,,,,,,,m,,,,,,,,,,,,,,,97,0,530.0661,533.0999,z,0,3.0218,,[],[],[],[],[],[],[],533.1,535.0999,535.0999,535.1,[],[],[],[],[],[],[],,535.1001,535.1001,-0.11179781,-0.404579536,0,0,0,,0,96,96,81,1,1,word,ADVISORY,cursive,advisory_c.png,,,,,,
,,,,32033,001,2025-11-05_22h48.01.393,HW_LDT_1,2024.2.4,MacIntel,57.14285714,,,,,,,,,,,,,,,,,,,,,,535.1013,535.2989,535.2989,535.7999,,,,,,,,,,,,,,0.9147,1,,,,,,,,,,,,,,m,,,,,,,,,,,,,,,98,0,535.8005,536.7158,m,1,0.9147,,[],[],[],[],[],[],[],536.7159,538.7156,538.7156,538.7158,[],[],[],[],[],[],[],,538.7159,538.7159,-0.11179781,-0.404579536,0,0,0,,0,97,97,136,1,1,word,RADICAL,print,radical_p.png,,,,,,
,,,,32033,001,2025-11-05_22h48.01.393,HW_LDT_1,2024.2.4,MacIntel,57.14285714,,,,,,,,,,,,,,,,,,,,,,538.717,538.9156,538.9156,539.4165,,,,,,,,,,,,,,2.3717,1,,,,,,,,,,,,,,z,,,,,,,,,,,,,,,99,0,539.4171,541.7999,z,1,2.3717,,[],[],[],[],[],[],[],541.8,543.7998,543.7999,543.8001,[],[],[],[],[],[],[],,543.8001,543.8002,-0.11179781,-0.404579536,0,0,0,,0,98,98,1,1,1,RL,adnicory,cursive,adnicory_c.png,,,,,,
,,,,32033,001,2025-11-05_22h48.01.393,HW_LDT_1,2024.2.4,MacIntel,57.14285714,,,,,,,,,,,,,,,,,,,,,,543.8012,543.9998,543.9998,544.4989,,,,,,,,,,,,,,0.8229,1,,,,,,,,,,,,,,m,,,,,,,,,,,,,,,100,0,544.4994,545.3332,m,1,0.8229,,[],[],[],[],[],[],[],545.3332,547.3331,547.3331,547.3333,[],[],[],[],[],[],[],,547.3333,547.3335,-0.11179781,-0.404579536,0,0,0,,0,99,99,123,1,1,word,MODERATE,print,moderate_p.png,,,,,,
,,,,32033,001,2025-11-05_22h48.01.393,HW_LDT_1,2024.2.4,MacIntel,57.14285714,,,,,,,,,,,,,,,,,,,,,,547.3345,547.5331,547.5331,548.0331,,,,,,,,,,,,,,2.2973,1,,,,,,,,,,,,,,m,,,,,,,,,,,,,,,101,0,548.0336,550.3331,m,1,2.2973,,[],[],[],[],[],[],[],550.3332,552.3331,552.3332,552.3333,[],[],[],[],[],[],[],,552.3334,552.3334,-0.11179781,-0.404579536,0,0,0,,0,100,100,82,1,1,word,AMATEUR,print,amateur_p.png,,,,,,
,,,,32033,001,2025-11-05_22h48.01.393,HW_LDT_1,2024.2.4,MacIntel,57.14285714,,,,,,,,,,,,,,,,,,,,,,552.3345,552.5321,552.5322,553.0331,,,,,,,,,,,,,,0.9044,1,,,,,,,,,,,,,,z,,,,,,,,,,,,,,,102,0,553.0335,553.9499,z,1,0.9044,,[],[],[],[],[],[],[],553.9499,555.9497,555.9498,555.95,[],[],[],[],[],[],[],,555.95,555.9501,-0.11179781,-0.404579536,0,0,0,,0,101,101,19,1,1,RL,monebate,print,monebate_p.png,,,,,,
,,,,32033,001,2025-11-05_22h48.01.393,HW_LDT_1,2024.2.4,MacIntel,57.14285714,,,,,,,,,,,,,,,,,,,,,,555.9511,556.1497,556.1498,556.6494,,,,,,,,,,,,,,1.4815,1,,,,,,,,,,,,,,z,,,,,,,,,,,,,,,103,0,556.6496,558.133,z,1,1.4815,,[],[],[],[],[],[],[],558.133,560.1321,560.1321,560.1324,[],[],[],[],[],[],[],,560.1324,560.1325,-0.11179781,-0.404579536,0,0,0,,0,102,102,32,1,1,RL,rebicent,print,rebicent_p.png,,,,,,
,,,,32033,001,2025-11-05_22h48.01.393,HW_LDT_1,2024.2.4,MacIntel,57.14285714,,,,,,,,,,,,,,,,,,,,,,560.1336,560.3331,560.3331,560.8321,,,,,,,,,,,,,,0.8961,1,,,,,,,,,,,,,,m,,,,,,,,,,,,,,,104,0,560.8327,561.7329,m,1,0.8961,,[],[],[],[],[],[],[],561.733,563.7321,563.7322,563.7323,[],[],[],[],[],[],[],,563.7323,563.7325,-0.11179781,-0.404579536,0,0,0,,0,103,103,85,1,1,word,BENEFIT,print,benefit_p.png,,,,,,
,,,,32033,001,2025-11-05_22h48.01.393,HW_LDT_1,2024.2.4,MacIntel,57.14285714,,,,,,,,,,,,,,,,,,,,,,563.7334,563.933,563.933,564.433,,,,,,,,,,,,,,0.7984,0,,,,,,,,,,,,,,m,,,,,,,,,,,,,,,105,0,564.4335,565.2329,z,0,0.7984,,[],[],[],[],[],[],[],565.233,567.2329,567.233,567.2332,[],[],[],[],[],[],[],,567.2332,567.2333,-0.11179781,-0.404579536,0,0,0,,0,104,104,125,1,1,word,OPERATOR,cursive,operator_c.png,,,,,,
,,,,32033,001,2025-11-05_22h48.01.393,HW_LDT_1,2024.2.4,MacIntel,57.14285714,,,,,,,,,,,,,,,,,,,,,,567.2344,567.433,567.4331,567.933,,,,,,,,,,,,,,0.9313,1,,,,,,,,,,,,,,m,,,,,,,,,,,,,,,106,0,567.9334,568.8663,m,1,0.9313,,[],[],[],[],[],[],[],568.8663,570.8663,570.8663,570.8665,[],[],[],[],[],[],[],,570.8666,570.8666,-0.11179781,-0.404579536,0,0,0,,0,105,105,83,1,1,word,ANIMAL,print,animal_p.png,,,,,,
,,,,32033,001,2025-11-05_22h48.01.393,HW_LDT_1,2024.2.4,MacIntel,57.14285714,,,,,,,,,,,,,,,,,,,,,,570.8677,571.0662,571.0662,571.5663,,,,,,,,,,,,,,0.7542,1,,,,,,,,,,,,,,z,,,,,,,,,,,,,,,107,0,571.5668,572.3323,z,1,0.7542,,[],[],[],[],[],[],[],572.3324,574.3328,574.333,574.3331,[],[],[],[],[],[],[],,574.3331,574.3331,-0.11179781,-0.404579536,0,0,0,,0,106,106,23,1,1,RL,potugar,cursive,potugar_c.png,,,,,,
,,,,32033,001,2025-11-05_22h48.01.393,HW_LDT_1,2024.2.4,MacIntel,57.14285714,,,,,,,,,,,,,,,,,,,,,,574.3339,574.533,574.5331,575.0329,,,,,,,,,,,,,,0.7802,1,,,,,,,,,,,,,,z,,,,,,,,,,,,,,,108,0,575.0334,575.8163,z,1,0.7802,,[],[],[],[],[],[],[],575.8164,577.8154,577.8155,577.8156,[],[],[],[],[],[],[],,577.8157,577.8157,-0.11179781,-0.404579536,0,0,0,,0,107,107,20,1,1,RL,nunewical,print,nunewical_p.png,,,,,,
,,,,32033,001,2025-11-05_22h48.01.393,HW_LDT_1,2024.2.4,MacIntel,57.14285714,,,,,,,,,,,,,,,,,,,,,,577.8168,578.0163,578.0164,578.5154,,,,,,,,,,,,,,0.8146,1,,,,,,,,,,,,,,m,,,,,,,,,,,,,,,109,1,578.5159,579.3329,m,1,0.8146,,[],[],[],[],[],[],[],579.333,581.3329,581.333,582.5662,[],[],[],[],[],[],[],m,582.5663,582.5664,-0.11179781,-0.404579536,0,0,0,,0,108,108,120,1,1,word,MILITARY,print,military_p.png,1.2313,,,,,
,,,,32033,001,2025-11-05_22h48.01.393,HW_LDT_1,2024.2.4,MacIntel,57.14285714,,,,,,,,,,,,,,,,,,,,,,582.5674,582.7662,582.7662,583.2662,,,,,,,,,,,,,,2.1803,1,,,,,,,,,,,,,,m,,,,,,,,,,,,,,,110,0,583.2668,585.4496,m,1,2.1803,,[],[],[],[],[],[],[],585.4496,587.4492,587.4492,587.4493,[],[],[],[],[],[],[],,587.4493,587.4493,-0.11179781,-0.404579536,0,0,0,,0,109,109,104,1,1,word,DOMINANT,cursive,dominant_c.png,,,,,,
,,,,32033,001,2025-11-05_22h48.01.393,HW_LDT_1,2024.2.4,MacIntel,57.14285714,,,,,,,,,,,,,,,,,,,,,,587.4496,587.6495,587.6495,588.1496,,,,,,,,,,,,,,1.0211,1,,,,,,,,,,,,,,m,,,,,,,,,,,,,,,111,0,588.15,589.1821,m,1,1.0211,,[],[],[],[],[],[],[],589.1822,591.1828,591.1828,591.183,[],[],[],[],[],[],[],,591.1831,591.1831,-0.11179781,-0.404579536,0,0,0,,0,110,110,158,1,1,word,VELOCITY,print,velocity_p.png,,,,,,
,,,,32033,001,2025-11-05_22h48.01.393,HW_LDT_1,2024.2.4,MacIntel,57.14285714,,,,,,,,,,,,,,,,,,,,,,591.1842,591.383,591.3831,591.8829,,,,,,,,,,,,,,0.7639,0,,,,,,,,,,,,,,m,,,,,,,,,,,,,,,112,0,591.8833,592.6495,z,0,0.7639,,[],[],[],[],[],[],[],592.6495,594.6496,594.6496,594.6498,[],[],[],[],[],[],[],,594.6498,594.6499,-0.11179781,-0.404579536,0,0,0,,0,111,111,122,1,1,word,MOBILE,cursive,mobile_c.png,,,,,,
,,,,32033,001,2025-11-05_22h48.01.393,HW_LDT_1,2024.2.4,MacIntel,57.14285714,,,,,,,,,,,,,,,,,,,,,,594.6511,594.8485,594.8486,595.3495,,,,,,,,,,,,,,0.8971,1,,,,,,,,,,,,,,m,,,,,,,,,,,,,,,113,0,595.35,596.2495,m,1,0.8971,,[],[],[],[],[],[],[],596.2495,598.2495,598.2496,598.2498,[],[],[],[],[],[],[],,598.2498,598.2498,-0.11179781,-0.404579536,0,0,0,,0,112,112,114,1,1,word,LOCATE,print,locate_p.png,,,,,,
,,,,32033,001,2025-11-05_22h48.01.393,HW_LDT_1,2024.2.4,MacIntel,57.14285714,,,,,,,,,,,,,,,,,,,,,,598.2511,598.4496,598.4496,598.9496,,,,,,,,,,,,,,2.7887,1,,,,,,,,,,,,,,z,,,,,,,,,,,,,,,114,0,598.95,601.7487,z,1,2.7887,,[],[],[],[],[],[],[],601.7488,603.7495,603.7495,603.7497,[],[],[],[],[],[],[],,603.7498,603.7498,-0.11179781,-0.404579536,0,0,0,,0,113,113,34,1,1,RL,samite,print,samite_p.png,,,,,,
,,,,32033,001,2025-11-05_22h48.01.393,HW_LDT_1,2024.2.4,MacIntel,57.14285714,,,,,,,,,,,,,,,,,,,,,,603.7509,603.9486,603.9486,604.4495,,,,,,,,,,,,,,3.7209,1,,,,,,,,,,,,,,z,,,,,,,,,,,,,,,115,0,604.45,608.1819,z,1,3.7209,,[],[],[],[],[],[],[],608.1821,610.1818,610.1819,610.1821,[],[],[],[],[],[],[],,610.1821,610.1823,-0.11179781,-0.404579536,0,0,0,,0,114,114,15,1,1,RL,losipal,cursive,losipal_c.png,,,,,,
,,,,32033,001,2025-11-05_22h48.01.393,HW_LDT_1,2024.2.4,MacIntel,57.14285714,,,,,,,,,,,,,,,,,,,,,,610.1834,610.3827,610.3827,610.8828,,,,,,,,,,,,,,3.3376,1,,,,,,,,,,,,,,z,,,,,,,,,,,,,,,116,0,610.8832,614.232,z,1,3.3376,,[],[],[],[],[],[],[],614.2321,616.2328,616.2328,616.2329,[],[],[],[],[],[],[],,616.233,616.2331,-0.11179781,-0.404579536,0,0,0,,0,115,115,35,1,1,RL,senvilent,cursive,senvilent_c.png,,,,,,
,,,,32033,001,2025-11-05_22h48.01.393,HW_LDT_1,2024.2.4,MacIntel,57.14285714,,,,,,,,,,,,,,,,,,,,,,616.2341,616.4328,616.4329,616.9318,,,,,,,,,,,,,,0.8976,1,,,,,,,,,,,,,,z,,,,,,,,,,,,,,,117,0,616.9324,617.8328,z,1,0.8976,,[],[],[],[],[],[],[],617.8328,619.8327,619.8328,619.833,[],[],[],[],[],[],[],,619.8331,619.8331,-0.11179781,-0.404579536,0,0,0,,0,116,116,28,1,1,RL,renutal,print,renutal_p.png,,,,,,
,,,,32033,001,2025-11-05_22h48.01.393,HW_LDT_1,2024.2.4,MacIntel,57.14285714,,,,,,,,,,,,,,,,,,,,,,619.8342,620.0328,620.0328,620.5327,,,,,,,,,,,,,,1.7042,1,,,,,,,,,,,,,,z,,,,,,,,,,,,,,,118,0,620.5332,622.2494,z,1,1.7042,,[],[],[],[],[],[],[],622.2495,624.2494,624.2495,624.2496,[],[],[],[],[],[],[],,624.2497,624.2497,-0.11179781,-0.404579536,0,0,0,,0,117,117,52,1,1,TL,decilate,cursive,decilate_c.png,,,,,,
,,,,32033,001,2025-11-05_22h48.01.393,HW_LDT_1,2024.2.4,MacIntel,57.14285714,,,,,,,,,,,,,,,,,,,,,,624.2508,624.4494,624.4494,624.9493,,,,,,,,,,,,,,2.006,1,,,,,,,,,,,,,,z,,,,,,,,,,,,,,,119,0,624.9498,626.9653,z,1,2.006,,[],[],[],[],[],[],[],626.9654,628.9651,628.9652,628.9653,[],[],[],[],[],[],[],,628.9653,628.9655,-0.11179781,-0.404579536,0,0,0,,0,118,118,4,1,1,RL,carminal,print,carminal_p.png,,,,,,
,,,,32033,001,2025-11-05_22h48.01.393,HW_LDT_1,2024.2.4,MacIntel,57.14285714,,,,,,,,,,,,,,,,,,,,,,628.9666,629.166,629.166,629.666,,,,,,,,,,,,,,1.1062,1,,,,,,,,,,,,,,z,,,,,,,,,,,,,,,120,0,629.6665,630.7828,z,1,1.1062,,[],[],[],[],[],[],[],630.7829,632.7826,632.7827,632.7829,[],[],[],[],[],[],[],,632.7829,632.783,-0.11179781,-0.404579536,0,0,0,,0,119,119,68,1,1,TL,prosopal,cursive,prosopal_c.png,,,,,,
,,,,32033,001,2025-11-05_22h48.01.393,HW_LDT_1,2024.2.4,MacIntel,57.14285714,,,,,,,,,,,,,,,,,,,,,,632.784,632.9827,632.9827,633.4817,,,,,,,,,,,,,,1.0739,1,,,,,,,,,,,,,,z,,,,,,,,,,,,,,,121,0,633.4822,634.566,z,1,1.0739,,[],[],[],[],[],[],[],634.5661,636.566,636.566,636.5662,[],[],[],[],[],[],[],,636.5662,636.5663,-0.11179781,-0.404579536,0,0,0,,0,120,120,58,1,1,TL,incidate,cursive,incidate_c.png,,,,,,
,,,,32033,001,2025-11-05_22h48.01.393,HW_LDT_1,2024.2.4,MacIntel,57.14285714,,,,,,,,,,,,,,,,,,,,,,636.5673,636.7659,636.766,637.2651,,,,,,,,,,,,,,1.4071,1,,,,,,,,,,,,,,z,,,,,,,,,,,,,,,122,0,637.2655,638.6827,z,1,1.4071,,[],[],[],[],[],[],[],638.6827,640.6826,640.6826,640.6829,[],[],[],[],[],[],[],,640.6829,640.683,-0.11179781,-0.404579536,0,0,0,,0,121,121,74,1,1,TL,setanor,cursive,setanor_c.png,,,,,,
,,,,32033,001,2025-11-05_22h48.01.393,HW_LDT_1,2024.2.4,MacIntel,57.14285714,,,,,,,,,,,,,,,,,,,,,,640.684,640.8826,640.8826,641.3824,,,,,,,,,,,,,,1.0713,1,,,,,,,,,,,,,,m,,,,,,,,,,,,,,,123,0,641.383,642.465,m,1,1.0713,,[],[],[],[],[],[],[],642.4651,644.4659,644.466,644.4661,[],[],[],[],[],[],[],,644.4661,644.4662,-0.11179781,-0.404579536,0,0,0,,0,122,122,117,1,1,word,MARINE,print,marine_p.png,,,,,,
,,,,32033,001,2025-11-05_22h48.01.393,HW_LDT_1,2024.2.4,MacIntel,57.14285714,,,,,,,,,,,,,,,,,,,,,,644.467,644.666,644.666,645.166,,,,,,,,,,,,,,2.5808,1,,,,,,,,,,,,,,z,,,,,,,,,,,,,,,124,0,645.1665,647.7494,z,1,2.5808,,[],[],[],[],[],[],[],647.7494,649.7492,649.7493,649.7496,[],[],[],[],[],[],[],,649.7496,649.7497,-0.11179781,-0.404579536,0,0,0,,0,123,123,41,1,1,TL,bevoled,print,bevoled_p.png,,,,,,
,,,,32033,001,2025-11-05_22h48.01.393,HW_LDT_1,2024.2.4,MacIntel,57.14285714,,,,,,,,,,,,,,,,,,,,,,649.7507,649.9492,649.9493,650.4492,,,,,,,,,,,,,,0.8971,1,,,,,,,,,,,,,,m,,,,,,,,,,,,,,,125,0,650.4497,651.3483,m,1,0.8971,,[],[],[],[],[],[],[],651.3484,653.3494,653.3494,653.3495,[],[],[],[],[],[],[],,653.3495,653.3496,-0.11179781,-0.404579536,0,0,0,,0,124,124,84,1,1,word,BELOVED,print,beloved_p.png,,,,,,
,,,,32033,001,2025-11-05_22h48.01.393,HW_LDT_1,2024.2.4,MacIntel,57.14285714,,,,,,,,,,,,,,,,,,,,,,653.3508,653.5491,653.5493,654.0492,,,,,,,,,,,,,,0.7202,1,,,,,,,,,,,,,,z,,,,,,,,,,,,,,,126,0,654.0497,654.7826,z,1,0.7202,,[],[],[],[],[],[],[],654.7827,656.7825,656.7825,656.7827,[],[],[],[],[],[],[],,656.7828,656.7829,-0.11179781,-0.404579536,0,0,0,,0,125,125,5,1,1,RL,cobeny,cursive,cobeny_c.png,,,,,,
,,,,32033,001,2025-11-05_22h48.01.393,HW_LDT_1,2024.2.4,MacIntel,57.14285714,,,,,,,,,,,,,,,,,,,,,,656.7838,656.9824,656.9825,657.4825,,,,,,,,,,,,,,0.8974,1,,,,,,,,,,,,,,z,,,,,,,,,,,,,,,127,0,657.483,658.3825,z,1,0.8974,,[],[],[],[],[],[],[],658.3827,660.3826,660.3826,660.3828,[],[],[],[],[],[],[],,660.3828,660.3829,-0.11179781,-0.404579536,0,0,0,,0,126,126,29,1,1,RL,refakive,cursive,refakive_c.png,,,,,,
,,,,32033,001,2025-11-05_22h48.01.393,HW_LDT_1,2024.2.4,MacIntel,57.14285714,,,,,,,,,,,,,,,,,,,,,,660.3839,660.5825,660.5826,661.0825,,,,,,,,,,,,,,1.397,1,,,,,,,,,,,,,,m,,,,,,,,,,,,,,,128,0,661.0831,662.482,m,1,1.397,,[],[],[],[],[],[],[],662.4821,664.4824,664.4825,664.4827,[],[],[],[],[],[],[],,664.4827,664.4828,-0.11179781,-0.404579536,0,0,0,,0,127,127,142,1,1,word,REMOTE,print,remote_p.png,,,,,,
,,,,32033,001,2025-11-05_22h48.01.393,HW_LDT_1,2024.2.4,MacIntel,57.14285714,,,,,,,,,,,,,,,,,,,,,,664.4839,664.6825,664.6825,665.1825,,,,,,,,,,,,,,1.8209,1,,,,,,,,,,,,,,m,,,,,,,,,,,,,,,129,1,665.183,667.0151,m,1,1.8209,,[],[],[],[],[],[],[],667.0153,669.0158,669.0158,670.7825,[],[],[],[],[],[],[],z,670.7827,670.7828,-0.11179781,-0.404579536,0,0,0,,0,128,128,96,1,1,word,CONSIDER,cursive,consider_c.png,1.7588,,,,,
,,,,32033,001,2025-11-05_22h48.01.393,HW_LDT_1,2024.2.4,MacIntel,57.14285714,,,,,,,,,,,,,,,,,,,,,,670.7838,670.9825,670.9825,671.4825,,,,,,,,,,,,,,1.4973,1,,,,,,,,,,,,,,m,,,,,,,,,,,,,,,130,0,671.4829,672.9824,m,1,1.4973,,[],[],[],[],[],[],[],672.9825,674.9824,674.9825,674.9827,[],[],[],[],[],[],[],,674.9827,674.9827,-0.11179781,-0.404579536,0,0,0,,0,129,129,141,1,1,word,RELIGION,cursive,religion_c.png,,,,,,
,,,,32033,001,2025-11-05_22h48.01.393,HW_LDT_1,2024.2.4,MacIntel,57.14285714,,,,,,,,,,,,,,,,,,,,,,674.9838,675.1824,675.1825,675.6824,,,,,,,,,,,,,,3.9639,1,,,,,,,,,,,,,,m,,,,,,,,,,,,,,,131,0,675.6829,679.649,m,1,3.9639,,[],[],[],[],[],[],[],679.649,681.649,681.649,681.6493,[],[],[],[],[],[],[],,681.6493,681.6493,-0.11179781,-0.404579536,0,0,0,,0,130,130,152,1,1,word,SPECIMEN,cursive,specimen_c.png,,,,,,
,,,,32033,001,2025-11-05_22h48.01.393,HW_LDT_1,2024.2.4,MacIntel,57.14285714,,,,,,,,,,,,,,,,,,,,,,681.6504,681.849,681.8491,682.349,,,,,,,,,,,,,,1.2972,0,,,,,,,,,,,,,,z,,,,,,,,,,,,,,,132,0,682.3496,683.6491,m,0,1.2972,,[],[],[],[],[],[],[],683.6492,685.6481,685.6482,685.6484,[],[],[],[],[],[],[],,685.6484,685.6485,-0.11179781,-0.404579536,0,0,0,,0,131,131,65,1,1,TL,orinigal,cursive,orinigal_c.png,,,,,,
,,,,32033,001,2025-11-05_22h48.01.393,HW_LDT_1,2024.2.4,MacIntel,57.14285714,,,,,,,,,,,,,,,,,,,,,,685.6496,685.8491,685.8492,686.3491,,,,,,,,,,,,,,1.9711,0,,,,,,,,,,,,,,m,,,,,,,,,,,,,,,133,0,686.3497,688.3325,z,0,1.9711,,[],[],[],[],[],[],[],688.3325,690.3324,690.3324,690.3326,[],[],[],[],[],[],[],,690.3327,690.3327,-0.11179781,-0.404579536,0,0,0,,0,132,132,101,1,1,word,DELICATE,cursive,delicate_c.png,,,,,,
,,,,32033,001,2025-11-05_22h48.01.393,HW_LDT_1,2024.2.4,MacIntel,57.14285714,,,,,,,,,,,,,,,,,,,,,,690.3338,690.5324,690.5324,691.0324,,,,,,,,,,,,,,2.5968,0,,,,,,,,,,,,,,z,,,,,,,,,,,,,,,134,0,691.0329,693.6324,m,0,2.5968,,[],[],[],[],[],[],[],693.6325,695.6324,695.6324,695.6326,[],[],[],[],[],[],[],,695.6326,695.6326,-0.11179781,-0.404579536,0,0,0,,0,133,133,77,1,1,TL,tritube,cursive,tritube_c.png,,,,,,
,,,,32033,001,2025-11-05_22h48.01.393,HW_LDT_1,2024.2.4,MacIntel,57.14285714,,,,,,,,,,,,,,,,,,,,,,695.6338,695.8323,695.8323,696.3324,,,,,,,,,,,,,,2.3884,1,,,,,,,,,,,,,,m,,,,,,,,,,,,,,,135,0,696.3328,698.7325,m,1,2.3884,,[],[],[],[],[],[],[],698.7326,700.7314,700.7315,700.7316,[],[],[],[],[],[],[],,700.7317,700.7318,-0.11179781,-0.404579536,0,0,0,,0,134,134,138,1,1,word,REFUSAL,print,refusal_p.png,,,,,,
,,,,32033,001,2025-11-05_22h48.01.393,HW_LDT_1,2024.2.4,MacIntel,57.14285714,,,,,,,,,,,,,,,,,,,,,,700.7328,700.9323,700.9323,701.4323,,,,,,,,,,,,,,1.2376,1,,,,,,,,,,,,,,m,,,,,,,,,,,,,,,136,0,701.4328,702.6824,m,1,1.2376,,[],[],[],[],[],[],[],702.6824,704.6823,704.6824,704.6825,[],[],[],[],[],[],[],,704.6826,704.6826,-0.11179781,-0.404579536,0,0,0,,0,135,135,107,1,1,word,EVIDENT,print,evident_p.png,,,,,,
,,,,32033,001,2025-11-05_22h48.01.393,HW_LDT_1,2024.2.4,MacIntel,57.14285714,,,,,,,,,,,,,,,,,,,,,,704.6837,704.8824,704.8824,705.3823,,,,,,,,,,,,,,3.0634,1,,,,,,,,,,,,,,z,,,,,,,,,,,,,,,137,0,705.3829,708.4489,z,1,3.0634,,[],[],[],[],[],[],[],708.4489,710.4489,710.4489,710.4491,[],[],[],[],[],[],[],,710.4492,710.4492,-0.11179781,-0.404579536,0,0,0,,0,136,136,71,1,1,TL,regilion,cursive,regilion_c.png,,,,,,
,,,,32033,001,2025-11-05_22h48.01.393,HW_LDT_1,2024.2.4,MacIntel,57.14285714,,,,,,,,,,,,,,,,,,,,,,710.4503,710.6489,710.649,711.1488,,,,,,,,,,,,,,0.8566,1,,,,,,,,,,,,,,m,,,,,,,,,,,,,,,138,0,711.1494,712.0157,m,1,0.8566,,[],[],[],[],[],[],[],712.0158,714.0155,714.0156,714.0157,[],[],[],[],[],[],[],,714.0158,714.0159,-0.11179781,-0.404579536,0,0,0,,0,137,137,93,1,1,word,CEREMONY,cursive,ceremony_c.png,,,,,,
,,,,32033,001,2025-11-05_22h48.01.393,HW_LDT_1,2024.2.4,MacIntel,57.14285714,,,,,,,,,,,,,,,,,,,,,,714.0171,714.2155,714.2156,714.7156,,,,,,,,,,,,,,2.2542,1,,,,,,,,,,,,,,z,,,,,,,,,,,,,,,139,1,714.7161,716.9816,z,1,2.2542,,[],[],[],[],[],[],[],716.9817,718.9817,718.9818,720.4813,[],[],[],[],[],[],[],z,720.4814,720.4815,-0.11179781,-0.404579536,0,0,0,,0,138,138,59,1,1,TL,lirebal,cursive,lirebal_c.png,1.4879,,,,,
,,,,32033,001,2025-11-05_22h48.01.393,HW_LDT_1,2024.2.4,MacIntel,57.14285714,,,,,,,,,,,,,,,,,,,,,,720.4824,720.6822,720.6823,721.1821,,,,,,,,,,,,,,1.0813,1,,,,,,,,,,,,,,m,,,,,,,,,,,,,,,140,0,721.1826,722.2655,m,1,1.0813,,[],[],[],[],[],[],[],722.2656,724.2655,724.2655,724.2656,[],[],[],[],[],[],[],,724.2657,724.2657,-0.11179781,-0.404579536,0,0,0,,0,139,139,98,1,1,word,CRIMINAL,print,criminal_p.png,,,,,,
,,,,32033,001,2025-11-05_22h48.01.393,HW_LDT_1,2024.2.4,MacIntel,57.14285714,,,,,,,,,,,,,,,,,,,,,,724.2667,724.4655,724.4655,724.9655,,,,,,,,,,,,,,3.8543,0,,,,,,,,,,,,,,m,,,,,,,,,,,,,,,141,0,724.966,728.8323,z,0,3.8543,,[],[],[],[],[],[],[],728.8323,730.8321,730.8322,730.8323,[],[],[],[],[],[],[],,730.8323,730.8324,-0.11179781,-0.404579536,0,0,0,,0,140,140,110,1,1,word,HERITAGE,cursive,heritage_c.png,,,,,,
,,,,32033,001,2025-11-05_22h48.01.393,HW_LDT_1,2024.2.4,MacIntel,57.14285714,,,,,,,,,,,,,,,,,,,,,,730.8335,731.0321,731.0321,731.5322,,,,,,,,,,,,,,2.221,0,,,,,,,,,,,,,,z,,,,,,,,,,,,,,,142,0,731.5327,733.7655,m,0,2.221,,[],[],[],[],[],[],[],733.7656,735.7655,735.7655,735.7657,[],[],[],[],[],[],[],,735.7657,735.7658,-0.11179781,-0.404579536,0,0,0,,0,141,141,69,1,1,TL,radiply,cursive,radiply_c.png,,,,,,
,,,,32033,001,2025-11-05_22h48.01.393,HW_LDT_1,2024.2.4,MacIntel,57.14285714,,,,,,,,,,,,,,,,,,,,,,735.7668,735.9645,735.9646,736.4655,,,,,,,,,,,,,,0.83,1,,,,,,,,,,,,,,m,,,,,,,,,,,,,,,143,0,736.466,737.2988,m,1,0.83,,[],[],[],[],[],[],[],737.2989,739.2987,739.2987,739.2989,[],[],[],[],[],[],[],,739.2989,739.299,-0.11179781,-0.404579536,0,0,0,,0,142,142,90,1,1,word,CAPITAL,print,capital_p.png,,,,,,
,,,,32033,001,2025-11-05_22h48.01.393,HW_LDT_1,2024.2.4,MacIntel,57.14285714,,,,,,,,,,,,,,,,,,,,,,739.3,739.4979,739.498,739.9987,,,,,,,,,,,,,,0.973,0,,,,,,,,,,,,,,z,,,,,,,,,,,,,,,144,1,739.9992,740.9813,m,0,0.973,,[],[],[],[],[],[],[],740.9814,742.9812,742.9812,745.9479,[],[],[],[],[],[],[],m,745.948,745.9481,-0.11179781,-0.404579536,0,0,0,,0,143,143,47,1,1,TL,cagetory,print,cagetory_p.png,2.9659,,,,,
,,,,32033,001,2025-11-05_22h48.01.393,HW_LDT_1,2024.2.4,MacIntel,57.14285714,,,,,,,,,,,,,,,,,,,,,,745.9491,746.1488,746.1488,746.6479,,,,,,,,,,,,,,2.7648,1,,,,,,,,,,,,,,m,,,,,,,,,,,,,,,145,0,746.6483,749.4154,m,1,2.7648,,[],[],[],[],[],[],[],749.4155,751.4154,751.4154,751.4156,[],[],[],[],[],[],[],,751.4157,751.4158,-0.11179781,-0.404579536,0,0,0,,0,144,144,143,1,1,word,REMOVAL,cursive,removal_c.png,,,,,,
,,,,32033,001,2025-11-05_22h48.01.393,HW_LDT_1,2024.2.4,MacIntel,57.14285714,,,,,,,,,,,,,,,,,,,,,,751.4168,751.6154,751.6154,752.1154,,,,,,,,,,,,,,1.3544,1,,,,,,,,,,,,,,z,,,,,,,,,,,,,,,146,0,752.1159,753.4812,z,1,1.3544,,[],[],[],[],[],[],[],753.4812,755.482,755.4821,755.4823,[],[],[],[],[],[],[],,755.4823,755.4824,-0.11179781,-0.404579536,0,0,0,,0,145,145,6,1,1,RL,crisival,print,crisival_p.png,,,,,,
,,,,32033,001,2025-11-05_22h48.01.393,HW_LDT_1,2024.2.4,MacIntel,57.14285714,,,,,,,,,,,,,,,,,,,,,,755.4834,755.6819,755.682,756.1819,,,,,,,,,,,,,,0.9885,1,,,,,,,,,,,,,,z,,,,,,,,,,,,,,,147,0,756.1824,757.1821,z,1,0.9885,,[],[],[],[],[],[],[],757.1822,759.1811,759.1811,759.1814,[],[],[],[],[],[],[],,759.1814,759.1814,-0.11179781,-0.404579536,0,0,0,,0,146,146,11,1,1,RL,elacodate,print,elacodate_p.png,,,,,,
,,,,32033,001,2025-11-05_22h48.01.393,HW_LDT_1,2024.2.4,MacIntel,57.14285714,,,,,,,,,,,,,,,,,,,,,,759.1825,759.3812,759.3812,759.882,,,,,,,,,,,,,,1.8633,1,,,,,,,,,,,,,,m,,,,,,,,,,,,,,,148,0,759.8825,761.7486,m,1,1.8633,,[],[],[],[],[],[],[],761.7486,763.7486,763.7486,763.7488,[],[],[],[],[],[],[],,763.7488,763.749,-0.11179781,-0.404579536,0,0,0,,0,147,147,108,1,1,word,FORTUNE,print,fortune_p.png,,,,,,
,,,,32033,001,2025-11-05_22h48.01.393,HW_LDT_1,2024.2.4,MacIntel,57.14285714,,,,,,,,,,,,,,,,,,,,,,763.75,763.9486,763.9487,764.4486,,,,,,,,,,,,,,2.0404,1,,,,,,,,,,,,,,z,,,,,,,,,,,,,,,149,0,764.4492,766.4987,z,1,2.0404,,[],[],[],[],[],[],[],766.4988,768.4985,768.4986,768.4988,[],[],[],[],[],[],[],,768.4988,768.4989,-0.11179781,-0.404579536,0,0,0,,0,148,148,45,1,1,TL,cacapity,print,cacapity_p.png,,,,,,
,,,,32033,001,2025-11-05_22h48.01.393,HW_LDT_1,2024.2.4,MacIntel,57.14285714,,,,,,,,,,,,,,,,,,,,,,768.5,768.6986,768.6986,769.1986,,,,,,,,,,,,,,2.3392,1,,,,,,,,,,,,,,m,,,,,,,,,,,,,,,150,0,769.1991,771.5488,m,1,2.3392,,[],[],[],[],[],[],[],771.5489,773.5485,773.5486,773.5488,[],[],[],[],[],[],[],,773.5488,773.5489,-0.11179781,-0.404579536,0,0,0,,0,149,149,127,1,1,word,ORIGINAL,cursive,original_c.png,,,,,,
,,,,32033,001,2025-11-05_22h48.01.393,HW_LDT_1,2024.2.4,MacIntel,57.14285714,,,,,,,,,,,,,,,,,,,,,,773.55,773.7486,773.7487,774.2485,,,,,,,,,,,,,,2.4563,1,,,,,,,,,,,,,,z,,,,,,,,,,,,,,,151,0,774.2491,776.7153,z,1,2.4563,,[],[],[],[],[],[],[],776.7154,778.7152,778.7153,778.7154,[],[],[],[],[],[],[],,778.7155,778.7155,-0.11179781,-0.404579536,0,0,0,,0,150,150,54,1,1,TL,distupe,cursive,distupe_c.png,,,,,,
,,,,32033,001,2025-11-05_22h48.01.393,HW_LDT_1,2024.2.4,MacIntel,57.14285714,,,,,,,,,,,,,,,,,,,,,,778.7165,778.9153,778.9153,779.4152,,,,,,,,,,,,,,2.1471,1,,,,,,,,,,,,,,z,,,,,,,,,,,,,,,152,0,779.4157,781.5652,z,1,2.1471,,[],[],[],[],[],[],[],781.5653,783.5653,783.5653,783.5655,[],[],[],[],[],[],[],,783.5655,783.5655,-0.11179781,-0.404579536,0,0,0,,0,151,151,14,1,1,RL,lofase,print,lofase_p.png,,,,,,
,,,,32033,001,2025-11-05_22h48.01.393,HW_LDT_1,2024.2.4,MacIntel,57.14285714,,,,,,,,,,,,,,,,,,,,,,783.5666,783.7652,783.7652,784.2651,,,,,,,,,,,,,,0.8471,1,,,,,,,,,,,,,,z,,,,,,,,,,,,,,,153,1,784.2656,785.1152,z,1,0.8471,,[],[],[],[],[],[],[],785.1153,787.1152,787.1152,788.2985,[],[],[],[],[],[],[],m,788.2986,788.2987,-0.11179781,-0.404579536,0,0,0,,0,152,152,12,1,1,RL,ebiwent,print,ebiwent_p.png,1.1811,,,,,
,,,,32033,001,2025-11-05_22h48.01.393,HW_LDT_1,2024.2.4,MacIntel,57.14285714,,,,,,,,,,,,,,,,,,,,,,788.2998,788.4985,788.4986,788.9985,,,,,,,,,,,,,,1.3124,1,,,,,,,,,,,,,,m,,,,,,,,,,,,,,,154,0,788.9989,790.3152,m,1,1.3124,,[],[],[],[],[],[],[],790.3152,792.3152,792.3152,792.3154,[],[],[],[],[],[],[],,792.3154,792.3155,-0.11179781,-0.404579536,0,0,0,,0,153,153,100,1,1,word,DECADE,print,decade_p.png,,,,,,
,,,,32033,001,2025-11-05_22h48.01.393,HW_LDT_1,2024.2.4,MacIntel,57.14285714,,,,,,,,,,,,,,,,,,,,,,792.3165,792.5151,792.5152,793.0152,,,,,,,,,,,,,,0.8985,1,,,,,,,,,,,,,,z,,,,,,,,,,,,,,,155,0,793.0157,793.9151,z,1,0.8985,,[],[],[],[],[],[],[],793.9151,795.9142,795.9143,795.9145,[],[],[],[],[],[],[],,795.9146,795.9146,-0.11179781,-0.404579536,0,0,0,,0,154,154,24,1,1,RL,probice,print,probice_p.png,,,,,,
,,,,32033,001,2025-11-05_22h48.01.393,HW_LDT_1,2024.2.4,MacIntel,57.14285714,,,,,,,,,,,,,,,,,,,,,,795.9157,796.1143,796.1144,796.6152,,,,,,,,,,,,,,1.0882,1,,,,,,,,,,,,,,m,,,,,,,,,,,,,,,156,0,796.6156,797.7152,m,1,1.0882,,[],[],[],[],[],[],[],797.7153,799.7151,799.7152,799.7153,[],[],[],[],[],[],[],,799.7153,799.7154,-0.11179781,-0.404579536,0,0,0,,0,155,155,113,1,1,word,LITERAL,print,literal_p.png,,,,,,
,,,,32033,001,2025-11-05_22h48.01.393,HW_LDT_1,2024.2.4,MacIntel,57.14285714,,,,,,,,,,,,,,,,,,,,,,799.7165,799.9151,799.9151,800.4151,,,,,,,,,,,,,,2.4033,1,,,,,,,,,,,,,,m,,,,,,,,,,,,,,,157,0,800.4156,802.8319,m,1,2.4033,,[],[],[],[],[],[],[],802.8319,804.8317,804.8318,804.8319,[],[],[],[],[],[],[],,804.832,804.8321,-0.11179781,-0.404579536,0,0,0,,0,156,156,129,1,1,word,PARENT,cursive,parent_c.png,,,,,,
,,,,32033,001,2025-11-05_22h48.01.393,HW_LDT_1,2024.2.4,MacIntel,57.14285714,,,,,,,,,,,,,,,,,,,,,,804.8331,805.0318,805.0318,805.5319,,,,,,,,,,,,,,0.9543,1,,,,,,,,,,,,,,z,,,,,,,,,,,,,,,158,1,805.5324,806.4985,z,1,0.9543,,[],[],[],[],[],[],[],806.4987,808.4982,808.4982,810.4818,[],[],[],[],[],[],[],z,810.482,810.482,-0.11179781,-0.404579536,0,0,0,,0,157,157,43,1,1,TL,bedise,print,bedise_p.png,1.9713,,,,,
,,,,32033,001,2025-11-05_22h48.01.393,HW_LDT_1,2024.2.4,MacIntel,57.14285714,,,,,,,,,,,,,,,,,,,,,,810.4832,810.6818,810.6819,811.1817,,,,,,,,,,,,,,1.5967,1,,,,,,,,,,,,,,z,,,,,,,,,,,,,,,159,0,811.1822,812.7817,z,1,1.5967,,[],[],[],[],[],[],[],812.7818,814.7818,814.7818,814.782,[],[],[],[],[],[],[],,814.782,814.7821,-0.11179781,-0.404579536,0,0,0,,0,158,158,70,1,1,TL,relugar,print,relugar_p.png,,,,,,
,,,,32033,001,2025-11-05_22h48.01.393,HW_LDT_1,2024.2.4,MacIntel,57.14285714,,,,,,,,,,,,,,,,,,,,,,814.7832,814.9817,814.9818,815.4816,,,,,,,,,,,,,,2.6571,1,,,,,,,,,,,,,,z,,,,,,,,,,,,,,,160,0,815.4823,818.1485,z,1,2.6571,,[],[],[],[],[],[],[],818.1485,820.1484,820.1484,820.1486,[],[],[],[],[],[],[],,820.1486,820.1487,-0.11179781,-0.404579536,0,0,0,,0,159,159,36,1,1,RL,speniven,cursive,speniven_c.png,,,,,,
,,,,32033,001,2025-11-05_22h48.01.393,HW_LDT_1,2024.2.4,MacIntel,57.14285714,,,,,,,,,,,,,,,,,,,,,,,,,,,,,,,,,,,,,,,,,,,,,,,,,,,,,,,,,,,,,,,,,,,,,,,,,,,,,,,,,,,,,,,,,,,,,,,,,,,,,,,,,,,,,,,,,,,,,,820.1601,825.1486
