counterbalance_lists.group,counterbalance_lists.remaining,get_list.started,get_list.stopped,participant,session,date,expName,psychopyVersion,OS,frameRate,Instructions.started,Instructions.stopped,key_resp.keys,key_resp.rt,key_resp.duration,instr_done_touch.x,instr_done_touch.y,instr_done_touch.leftButton,instr_done_touch.midButton,instr_done_touch.rightButton,start_instr.thisRepN,start_instr.thisTrialN,start_instr.thisN,start_instr.thisIndex,start_instr.ran,pageN,phase,instruct_text,has_image,instruct_image,showProgress.started,showProgress.stopped,fix.started,fix.stopped,prac.started,prac.stopped,response.keys,response.corr,response.rt,response.duration,touch_resp.x,touch_resp.y,touch_resp.leftButton,touch_resp.midButton,touch_resp.rightButton,touch_resp.time,touch_resp.clicked_name,rt,corr,feedback.started,feedback.stopped,trials.thisRepN,trials.thisTrialN,trials.thisN,trials.thisIndex,trials.ran,TrialID,StimulusType,Condition,PrimeDuration,Prime,Target,corrAns,Instructions_expt.started,Instructions_expt.stopped,key_resp_3.keys,key_resp_3.rt,key_resp_3.duration,instr_done_touch_3.x,instr_done_touch_3.y,instr_done_touch_3.leftButton,instr_done_touch_3.midButton,instr_done_touch_3.rightButton,instr_experiment.thisRepN,instr_experiment.thisTrialN,instr_experiment.thisN,instr_experiment.thisIndex,instr_experiment.ran,trialID,flag,maintask.started,maintask.stopped,key_resp_2.keys,key_resp_2.corr,key_resp_2.rt,key_resp_2.duration,targ_click.x,targ_click.y,targ_click.leftButton,targ_click.midButton,targ_click.rightButton,targ_click.time,targ_click.clicked_name,ITI.started,ITI.stopped,probe.started,probe.stopped,click_probe.x,click_probe.y,click_probe.leftButton,click_probe.midButton,click_probe.rightButton,click_probe.time,click_probe.clicked_name,key_resp_probe.keys,Break.started,Break.stopped,break_done_touch.x,break_done_touch.y,break_done_touch.leftButton,break_done_touch.midButton,break_done_touch.rightButton,break_done_keyboard.keys,list4_trials.thisRepN,list4_trials.thisTrialN,list4_trials.thisN,list4_trials.thisIndex,list4_trials.ran,list_id,item_type,string,font,stim_file,key_resp_probe.rt,key_resp_probe.duration,break_done_touch.clicked_name,End.started,End.stopped
list4,,4.0608,4.0609,32034,001,2025-10-16_21h19.19.033,HW_LDT_1,2024.2.4,MacIntel,59.52380952,,,,,,,,,,,,,,,,,,,,,,,,,,,,,,,,,,,,,,,,,,,,,,,,,,,,,,,,,,,,,,,,,,,,,,,,,,,,,,,,,,,,,,,,,,,,,,,,,,,,,,,,,,,,,,,,,,,,,,
,,,,32034,001,2025-10-16_21h19.19.033,HW_LDT_1,2024.2.4,MacIntel,59.52380952,4.0776,28.0474,space,23.9419,,-0.027482606,-0.477808554,0,0,0,0,0,0,0,1,1,instructions,"INSTRUCTIONS
At the start of each trial, look at the plus sign  (+) in the center of the screen.  This tells you that a trial is about to begin and where to look. Second, the plus sign will disappear and a string of letters will appear. Your task is to determine if the string of letters is a word or not. If the item is a word press the M key (on keyboard)  or touch the word button (phone/tablet).  If the item is not a word,  press the  Z key (on keyboard)  or touch the nonword button (on phone/tablet). The items will be presented for a short time. 
Press the space bar or touch  continue.",0,,,,,,,,,,,,,,,,,,,,,,,,,,,,,,,,,,,,,,,,,,,,,,,,,,,,,,,,,,,,,,,,,,,,,,,,,,,,,,,,,,,,,,,,,,,,,,,,,,,
,,,,32034,001,2025-10-16_21h19.19.033,HW_LDT_1,2024.2.4,MacIntel,59.52380952,28.0491,32.7803,space,4.7009,,-0.027482606,-0.477808554,0,0,0,0,1,1,1,1,2,instructions,"If your device has a keyboard, press the 'Z' key for nonwords and the 'M' key for words.





Press the space bar or touch the button below to continue.",0,keyboard-example.gif,,,,,,,,,,,,,,,,,,,,,,,,,,,,,,,,,,,,,,,,,,,,,,,,,,,,,,,,,,,,,,,,,,,,,,,,,,,,,,,,,,,,,,,,,,,,,,,,,,
,,,,32034,001,2025-10-16_21h19.19.033,HW_LDT_1,2024.2.4,MacIntel,59.52380952,32.782,34.3637,space,1.561,,-0.027482606,-0.477808554,0,0,0,0,2,2,2,1,3,instructions,"If you are using a touchscreen only device, use the buttons on the screen. Do not use the mouse.





Press the space bar or touch the button below to continue.",0,touchscreen-example.gif,,,,,,,,,,,,,,,,,,,,,,,,,,,,,,,,,,,,,,,,,,,,,,,,,,,,,,,,,,,,,,,,,,,,,,,,,,,,,,,,,,,,,,,,,,,,,,,,,,
,,,,32034,001,2025-10-16_21h19.19.033,HW_LDT_1,2024.2.4,MacIntel,59.52380952,34.3656,47.0472,space,12.6625,,-0.027482606,-0.477808554,0,0,0,0,3,3,3,1,4,instructions,"It is very important that you respond as quickly and accurately as possible, as each letter string will only be on the screen for two seconds. If you do not respond within this time, the message 'Too slow!' will be displayed and the experiment will progress to the next letter string. The first 20 trials will be practice trials and you will receive feedback on your answers. 

Press the space bar or touch the button below to start the practice trials.",0,,,,,,,,,,,,,,,,,,,,,,,,,,,,,,,,,,,,,,,,,,,,,,,,,,,,,,,,,,,,,,,,,,,,,,,,,,,,,,,,,,,,,,,,,,,,,,,,,,,
,,,,32034,001,2025-10-16_21h19.19.033,HW_LDT_1,2024.2.4,MacIntel,59.52380952,,,,,,,,,,,,,,,,,,,,,47.0733,47.2466,47.2469,47.7467,47.747,48.9303,z,1,1.1532,,[],[],[],[],[],[],[],1.1532,1,48.9308,49.43,0,0,0,10,1,1011,NW,"ID",16,inlade,INLADE,z,,,,,,,,,,,,,,,,,,,,,,,,,,,,,,,,,,,,,,,,,,,,,,,,,,,,,,,,,,,,,,,,,
,,,,32034,001,2025-10-16_21h19.19.033,HW_LDT_1,2024.2.4,MacIntel,59.52380952,,,,,,,,,,,,,,,,,,,,,49.4314,49.6297,49.6298,50.1298,50.1306,50.6798,m,1,0.53,,[],[],[],[],[],[],[],0.53,1,50.6799,51.1799,0,1,1,2,1,1003,WORD,"ID",16,almond,ALMOND,m,,,,,,,,,,,,,,,,,,,,,,,,,,,,,,,,,,,,,,,,,,,,,,,,,,,,,,,,,,,,,,,,,
,,,,32034,001,2025-10-16_21h19.19.033,HW_LDT_1,2024.2.4,MacIntel,59.52380952,,,,,,,,,,,,,,,,,,,,,51.1812,51.3797,51.3798,51.8797,51.8807,52.4298,z,1,0.5286,,[],[],[],[],[],[],[],0.5286,1,52.43,52.9298,0,2,2,8,1,1009,NW,"ID",33,aslert,ASLERT,z,,,,,,,,,,,,,,,,,,,,,,,,,,,,,,,,,,,,,,,,,,,,,,,,,,,,,,,,,,,,,,,,,
,,,,32034,001,2025-10-16_21h19.19.033,HW_LDT_1,2024.2.4,MacIntel,59.52380952,,,,,,,,,,,,,,,,,,,,,52.9311,53.1298,53.1298,53.6298,53.6306,54.7131,m,1,1.0664,,[],[],[],[],[],[],[],1.0664,1,54.7132,55.2131,0,3,3,5,1,1006,WORD,UN,33,frenzy,OBTAIN,m,,,,,,,,,,,,,,,,,,,,,,,,,,,,,,,,,,,,,,,,,,,,,,,,,,,,,,,,,,,,,,,,,
,,,,32034,001,2025-10-16_21h19.19.033,HW_LDT_1,2024.2.4,MacIntel,59.52380952,,,,,,,,,,,,,,,,,,,,,55.2145,55.4131,55.4132,55.913,55.9139,56.6968,z,1,0.7738,,[],[],[],[],[],[],[],0.7738,1,56.6969,57.1965,0,4,4,15,1,1016,NW,UN,16,mushed,WHAISE,z,,,,,,,,,,,,,,,,,,,,,,,,,,,,,,,,,,,,,,,,,,,,,,,,,,,,,,,,,,,,,,,,,
,,,,32034,001,2025-10-16_21h19.19.033,HW_LDT_1,2024.2.4,MacIntel,59.52380952,,,,,,,,,,,,,,,,,,,,,57.1977,57.3957,57.3957,57.8965,57.8974,58.4298,z,1,0.5145,,[],[],[],[],[],[],[],0.5145,1,58.4301,58.9298,0,5,5,13,1,1014,NW,UN,33,winfer,ROUPET,z,,,,,,,,,,,,,,,,,,,,,,,,,,,,,,,,,,,,,,,,,,,,,,,,,,,,,,,,,,,,,,,,,
,,,,32034,001,2025-10-16_21h19.19.033,HW_LDT_1,2024.2.4,MacIntel,59.52380952,,,,,,,,,,,,,,,,,,,,,58.9311,59.1298,59.1298,59.6297,59.6306,60.1798,z,1,0.5397,,[],[],[],[],[],[],[],0.5397,1,60.18,60.6797,0,6,6,11,1,1012,NW,"ID",16,rashet,RASHET,z,,,,,,,,,,,,,,,,,,,,,,,,,,,,,,,,,,,,,,,,,,,,,,,,,,,,,,,,,,,,,,,,,
,,,,32034,001,2025-10-16_21h19.19.033,HW_LDT_1,2024.2.4,MacIntel,59.52380952,,,,,,,,,,,,,,,,,,,,,60.6811,60.8798,60.8798,61.3797,61.3806,62.2464,z,1,0.8466,,[],[],[],[],[],[],[],0.8466,1,62.2467,62.7465,0,7,7,9,1,1010,NW,"ID",33,fariny,FARINY,z,,,,,,,,,,,,,,,,,,,,,,,,,,,,,,,,,,,,,,,,,,,,,,,,,,,,,,,,,,,,,,,,,
,,,,32034,001,2025-10-16_21h19.19.033,HW_LDT_1,2024.2.4,MacIntel,59.52380952,,,,,,,,,,,,,,,,,,,,,62.7478,62.9464,62.9464,63.4464,63.4472,63.9467,m,1,0.4898,,[],[],[],[],[],[],[],0.4898,1,63.9468,64.4464,0,8,8,6,1,1007,WORD,UN,16,tropic,ZOMBIE,m,,,,,,,,,,,,,,,,,,,,,,,,,,,,,,,,,,,,,,,,,,,,,,,,,,,,,,,,,,,,,,,,,
,,,,32034,001,2025-10-16_21h19.19.033,HW_LDT_1,2024.2.4,MacIntel,59.52380952,,,,,,,,,,,,,,,,,,,,,64.4477,64.6463,64.6464,65.1464,65.1472,65.6801,m,1,0.5239,,[],[],[],[],[],[],[],0.5239,1,65.6802,66.1798,0,9,9,3,1,1004,WORD,"ID",16,matrix,MATRIX,m,,,,,,,,,,,,,,,,,,,,,,,,,,,,,,,,,,,,,,,,,,,,,,,,,,,,,,,,,,,,,,,,,
,,,,32034,001,2025-10-16_21h19.19.033,HW_LDT_1,2024.2.4,MacIntel,59.52380952,,,,,,,,,,,,,,,,,,,,,66.1811,66.3797,66.3798,66.8797,66.8805,67.7624,z,1,0.8633,,[],[],[],[],[],[],[],0.8633,1,67.7625,68.2631,0,10,10,12,1,1013,NW,UN,33,adveil,SPRINY,z,,,,,,,,,,,,,,,,,,,,,,,,,,,,,,,,,,,,,,,,,,,,,,,,,,,,,,,,,,,,,,,,,
,,,,32034,001,2025-10-16_21h19.19.033,HW_LDT_1,2024.2.4,MacIntel,59.52380952,,,,,,,,,,,,,,,,,,,,,68.2644,68.4631,68.4632,68.963,68.9641,69.5964,m,1,0.6113,,[],[],[],[],[],[],[],0.6113,1,69.5965,70.0964,0,11,11,4,1,1005,WORD,UN,33,abound,SQUEAK,m,,,,,,,,,,,,,,,,,,,,,,,,,,,,,,,,,,,,,,,,,,,,,,,,,,,,,,,,,,,,,,,,,
,,,,32034,001,2025-10-16_21h19.19.033,HW_LDT_1,2024.2.4,MacIntel,59.52380952,,,,,,,,,,,,,,,,,,,,,70.0977,70.2963,70.2964,70.7963,70.797,71.6464,m,1,0.8309,,[],[],[],[],[],[],[],0.8309,1,71.6466,72.1464,0,12,12,0,1,1001,WORD,"ID",33,utopia,UTOPIA,m,,,,,,,,,,,,,,,,,,,,,,,,,,,,,,,,,,,,,,,,,,,,,,,,,,,,,,,,,,,,,,,,,
,,,,32034,001,2025-10-16_21h19.19.033,HW_LDT_1,2024.2.4,MacIntel,59.52380952,,,,,,,,,,,,,,,,,,,,,72.1476,72.3464,72.3464,72.8464,72.8473,73.4964,m,1,0.6287,,[],[],[],[],[],[],[],0.6287,1,73.4965,73.9965,0,13,13,1,1,1002,WORD,"ID",33,adjust,ADJUST,m,,,,,,,,,,,,,,,,,,,,,,,,,,,,,,,,,,,,,,,,,,,,,,,,,,,,,,,,,,,,,,,,,
,,,,32034,001,2025-10-16_21h19.19.033,HW_LDT_1,2024.2.4,MacIntel,59.52380952,,,,,,,,,,,,,,,,,,,,,73.9976,74.1962,74.1962,74.6964,74.6972,75.5129,z,1,0.7964,,[],[],[],[],[],[],[],0.7964,1,75.513,76.0131,0,14,14,14,1,1015,NW,UN,16,miaber,THRALE,z,,,,,,,,,,,,,,,,,,,,,,,,,,,,,,,,,,,,,,,,,,,,,,,,,,,,,,,,,,,,,,,,,
,,,,32034,001,2025-10-16_21h19.19.033,HW_LDT_1,2024.2.4,MacIntel,59.52380952,,,,,,,,,,,,,,,,,,,,,76.0142,76.213,76.2131,76.713,76.7139,77.5797,m,1,0.847,,[],[],[],[],[],[],[],0.847,1,77.5799,78.0797,0,15,15,7,1,1008,WORD,UN,16,hurdle,VOLUME,m,,,,,,,,,,,,,,,,,,,,,,,,,,,,,,,,,,,,,,,,,,,,,,,,,,,,,,,,,,,,,,,,,
,,,,32034,001,2025-10-16_21h19.19.033,HW_LDT_1,2024.2.4,MacIntel,59.52380952,,,,,,,,,,,,,,,,1,end_of_practice,"You have completed the practice trials. During the experimental trials, you will not receive feedback. On some trials you will be asked to report whether the item you just saw was in cursive or print. 
Before you begin, please ensure that you are in a comfortable and quiet location and will not be disturbed for about 15 minutes, as we cannot use your data if you do not complete all the trials. 
 When you are ready to start the experimental trials, please press space or touch the button below.",,,,,,,,,,,,,,,,,,,,,,,,,,,,,,,,,,,,78.0854,93.4967,space,15.3926,,0.035112401,-0.278794434,0,0,0,0,0,0,0,1,,,,,,,,,,,,,,,,,,,,,,,,,,,,,,,,,,,,,,,,,,,,,,,,,,
,,,,32034,001,2025-10-16_21h19.19.033,HW_LDT_1,2024.2.4,MacIntel,59.52380952,,,,,,,,,,,,,,,,,,,,,93.5132,93.6961,93.6962,94.1963,,,,,,,,,,,,,,1.4467,0,,,,,,,,,,,,,,z,,,,,,,,,,,,,,,,1,0,94.1978,95.6472,m,0,1.4467,,[],[],[],[],[],[],[],95.6474,97.6465,97.6468,97.6498,[],[],[],[],[],[],[],,97.6499,97.6514,0.035112401,-0.278794434,0,0,0,,0,0,0,78,1,4,TL,stragety,print,stragety_p.png,,,,,
,,,,32034,001,2025-10-16_21h19.19.033,HW_LDT_1,2024.2.4,MacIntel,59.52380952,,,,,,,,,,,,,,,,,,,,,97.652,97.8463,97.8464,98.3463,,,,,,,,,,,,,,1.715,0,,,,,,,,,,,,,,m,,,,,,,,,,,,,,,,2,0,98.3468,100.0631,z,0,1.715,,[],[],[],[],[],[],[],100.0632,102.063,102.0631,102.0634,[],[],[],[],[],[],[],,102.0635,102.0636,0.035112401,-0.278794434,0,0,0,,0,1,1,144,1,4,word,RESIDENT,cursive,resident_c.png,,,,,
,,,,32034,001,2025-10-16_21h19.19.033,HW_LDT_1,2024.2.4,MacIntel,59.52380952,,,,,,,,,,,,,,,,,,,,,102.0649,102.2629,102.263,102.7629,,,,,,,,,,,,,,1.0066,1,,,,,,,,,,,,,,z,,,,,,,,,,,,,,,,3,0,102.7634,103.7798,z,1,1.0066,,[],[],[],[],[],[],[],103.7799,105.7797,105.7797,105.78,[],[],[],[],[],[],[],,105.78,105.7801,0.035112401,-0.278794434,0,0,0,,0,2,2,8,1,4,RL,casagity,cursive,casagity_c.png,,,,,
,,,,32034,001,2025-10-16_21h19.19.033,HW_LDT_1,2024.2.4,MacIntel,59.52380952,,,,,,,,,,,,,,,,,,,,,105.7812,105.9796,105.9797,106.4795,,,,,,,,,,,,,,1.3713,1,,,,,,,,,,,,,,z,,,,,,,,,,,,,,,,4,0,106.4802,107.863,z,1,1.3713,,[],[],[],[],[],[],[],107.8631,109.8629,109.8629,109.8632,[],[],[],[],[],[],[],,109.8633,109.8633,0.035112401,-0.278794434,0,0,0,,0,3,3,34,1,4,RL,posity,cursive,posity_c.png,,,,,
,,,,32034,001,2025-10-16_21h19.19.033,HW_LDT_1,2024.2.4,MacIntel,59.52380952,,,,,,,,,,,,,,,,,,,,,109.8644,110.0629,110.063,110.5629,,,,,,,,,,,,,,0.755,1,,,,,,,,,,,,,,m,,,,,,,,,,,,,,,,5,1,110.5635,111.3297,m,1,0.755,,[],[],[],[],[],[],[],111.3298,113.3296,113.3297,115.8464,[],[],[],[],[],[],[],z,115.8465,115.8466,0.035112401,-0.278794434,0,0,0,,0,4,4,104,1,4,word,DOMINANT,cursive,dominant_c.png,2.5092,,,,
,,,,32034,001,2025-10-16_21h19.19.033,HW_LDT_1,2024.2.4,MacIntel,59.52380952,,,,,,,,,,,,,,,,,,,,,115.8477,116.0463,116.0463,116.5462,,,,,,,,,,,,,,0.9072,1,,,,,,,,,,,,,,m,,,,,,,,,,,,,,,,6,0,116.5469,117.4629,m,1,0.9072,,[],[],[],[],[],[],[],117.463,119.4629,119.463,119.4633,[],[],[],[],[],[],[],,119.4634,119.4636,0.035112401,-0.278794434,0,0,0,,0,5,5,126,1,4,word,OPTIMAL,print,optimal_p.png,,,,,
,,,,32034,001,2025-10-16_21h19.19.033,HW_LDT_1,2024.2.4,MacIntel,59.52380952,,,,,,,,,,,,,,,,,,,,,119.4647,119.6629,119.663,120.1627,,,,,,,,,,,,,,1.0659,1,,,,,,,,,,,,,,z,,,,,,,,,,,,,,,,7,0,120.1631,121.23,z,1,1.0659,,[],[],[],[],[],[],[],121.2301,123.2296,123.2297,123.2299,[],[],[],[],[],[],[],,123.23,123.2301,0.035112401,-0.278794434,0,0,0,,0,6,6,67,1,4,TL,polupar,print,polupar_p.png,,,,,
,,,,32034,001,2025-10-16_21h19.19.033,HW_LDT_1,2024.2.4,MacIntel,59.52380952,,,,,,,,,,,,,,,,,,,,,123.2312,123.4291,123.4292,123.9295,,,,,,,,,,,,,,0.6215,1,,,,,,,,,,,,,,m,,,,,,,,,,,,,,,,8,0,123.9301,124.5629,m,1,0.6215,,[],[],[],[],[],[],[],124.563,126.563,126.5631,126.5633,[],[],[],[],[],[],[],,126.5633,126.5634,0.035112401,-0.278794434,0,0,0,,0,7,7,86,1,4,word,BESIDE,print,beside_p.png,,,,,
,,,,32034,001,2025-10-16_21h19.19.033,HW_LDT_1,2024.2.4,MacIntel,59.52380952,,,,,,,,,,,,,,,,,,,,,126.5645,126.7629,126.7629,127.2629,,,,,,,,,,,,,,0.7711,1,,,,,,,,,,,,,,m,,,,,,,,,,,,,,,,9,0,127.2634,128.0463,m,1,0.7711,,[],[],[],[],[],[],[],128.0464,130.0462,130.0463,130.0465,[],[],[],[],[],[],[],,130.0465,130.0467,0.035112401,-0.278794434,0,0,0,,0,8,8,145,1,4,word,RESUME,print,resume_p.png,,,,,
,,,,32034,001,2025-10-16_21h19.19.033,HW_LDT_1,2024.2.4,MacIntel,59.52380952,,,,,,,,,,,,,,,,,,,,,130.0476,130.2462,130.2462,130.7454,,,,,,,,,,,,,,0.9053,1,,,,,,,,,,,,,,z,,,,,,,,,,,,,,,,10,0,130.746,131.6629,z,1,0.9053,,[],[],[],[],[],[],[],131.6631,133.6629,133.6629,133.6631,[],[],[],[],[],[],[],,133.6632,133.6633,0.035112401,-0.278794434,0,0,0,,0,9,9,52,1,4,TL,cagetory,cursive,cagetory_c.png,,,,,
,,,,32034,001,2025-10-16_21h19.19.033,HW_LDT_1,2024.2.4,MacIntel,59.52380952,,,,,,,,,,,,,,,,,,,,,133.6644,133.8628,133.8629,134.363,,,,,,,,,,,,,,0.5881,1,,,,,,,,,,,,,,m,,,,,,,,,,,,,,,,11,1,134.3634,134.9629,m,1,0.5881,,[],[],[],[],[],[],[],134.963,136.9628,136.9629,139.2629,[],[],[],[],[],[],[],m,139.2631,139.2632,0.035112401,-0.278794434,0,0,0,,0,10,10,143,1,4,word,REMOVAL,print,removal_p.png,2.289,,,,
,,,,32034,001,2025-10-16_21h19.19.033,HW_LDT_1,2024.2.4,MacIntel,59.52380952,,,,,,,,,,,,,,,,,,,,,139.2642,139.4628,139.4629,139.9629,,,,,,,,,,,,,,0.9639,0,,,,,,,,,,,,,,z,,,,,,,,,,,,,,,,12,0,139.9634,140.9295,m,0,0.9639,,[],[],[],[],[],[],[],140.9295,142.9296,142.9297,142.9298,[],[],[],[],[],[],[],,142.9299,142.93,0.035112401,-0.278794434,0,0,0,,0,11,11,54,1,4,TL,codemy,print,codemy_p.png,,,,,
,,,,32034,001,2025-10-16_21h19.19.033,HW_LDT_1,2024.2.4,MacIntel,59.52380952,,,,,,,,,,,,,,,,,,,,,142.931,143.1295,143.1296,143.6296,,,,,,,,,,,,,,0.6321,1,,,,,,,,,,,,,,m,,,,,,,,,,,,,,,,13,0,143.6301,144.2629,m,1,0.6321,,[],[],[],[],[],[],[],144.263,146.2628,146.2629,146.2631,[],[],[],[],[],[],[],,146.2632,146.2632,0.035112401,-0.278794434,0,0,0,,0,12,12,140,1,4,word,RELATIVE,print,relative_p.png,,,,,
,,,,32034,001,2025-10-16_21h19.19.033,HW_LDT_1,2024.2.4,MacIntel,59.52380952,,,,,,,,,,,,,,,,,,,,,146.2643,146.4629,146.4629,146.9626,,,,,,,,,,,,,,0.7659,1,,,,,,,,,,,,,,z,,,,,,,,,,,,,,,,14,0,146.9631,147.7298,z,1,0.7659,,[],[],[],[],[],[],[],147.73,149.7295,149.7296,149.7297,[],[],[],[],[],[],[],,149.7298,149.7299,0.035112401,-0.278794434,0,0,0,,0,13,13,7,1,4,RL,casena,print,casena_p.png,,,,,
,,,,32034,001,2025-10-16_21h19.19.033,HW_LDT_1,2024.2.4,MacIntel,59.52380952,,,,,,,,,,,,,,,,,,,,,149.7309,149.9294,149.9295,150.4295,,,,,,,,,,,,,,1.0647,1,,,,,,,,,,,,,,m,,,,,,,,,,,,,,,,15,0,150.43,151.496,m,1,1.0647,,[],[],[],[],[],[],[],151.4961,153.4961,153.4962,153.4964,[],[],[],[],[],[],[],,153.4965,153.4965,0.035112401,-0.278794434,0,0,0,,0,14,14,96,1,4,word,CONSIDER,cursive,consider_c.png,,,,,
,,,,32034,001,2025-10-16_21h19.19.033,HW_LDT_1,2024.2.4,MacIntel,59.52380952,,,,,,,,,,,,,,,,,,,,,153.4976,153.6961,153.6962,154.1962,,,,,,,,,,,,,,1.5732,1,,,,,,,,,,,,,,z,,,,,,,,,,,,,,,,16,1,154.1967,155.7796,z,1,1.5732,,[],[],[],[],[],[],[],155.7797,157.7795,157.7795,161.0794,[],[],[],[],[],[],[],z,161.0795,161.0796,0.035112401,-0.278794434,0,0,0,,0,15,15,19,1,4,RL,elacodate,cursive,elacodate_c.png,3.2988,,,,
,,,,32034,001,2025-10-16_21h19.19.033,HW_LDT_1,2024.2.4,MacIntel,59.52380952,,,,,,,,,,,,,,,,,,,,,161.0805,161.2786,161.2786,161.7794,,,,,,,,,,,,,,2.605,1,,,,,,,,,,,,,,m,,,,,,,,,,,,,,,,17,0,161.78,164.3962,m,1,2.605,,[],[],[],[],[],[],[],164.3963,166.3961,166.3962,166.3964,[],[],[],[],[],[],[],,166.3964,166.3965,0.035112401,-0.278794434,0,0,0,,0,16,16,130,1,4,word,POLICY,cursive,policy_c.png,,,,,
,,,,32034,001,2025-10-16_21h19.19.033,HW_LDT_1,2024.2.4,MacIntel,59.52380952,,,,,,,,,,,,,,,,,,,,,166.3976,166.5961,166.5962,167.0961,,,,,,,,,,,,,,0.6314,1,,,,,,,,,,,,,,m,,,,,,,,,,,,,,,,18,0,167.0967,167.7295,m,1,0.6314,,[],[],[],[],[],[],[],167.7295,169.7294,169.7294,169.7296,[],[],[],[],[],[],[],,169.7297,169.7298,0.035112401,-0.278794434,0,0,0,,0,17,17,116,1,4,word,MARGINAL,cursive,marginal_c.png,,,,,
,,,,32034,001,2025-10-16_21h19.19.033,HW_LDT_1,2024.2.4,MacIntel,59.52380952,,,,,,,,,,,,,,,,,,,,,169.7309,169.9294,169.9295,170.4293,,,,,,,,,,,,,,0.8553,1,,,,,,,,,,,,,,z,,,,,,,,,,,,,,,,19,0,170.4299,171.2963,z,1,0.8553,,[],[],[],[],[],[],[],171.2963,173.2961,173.2961,173.2964,[],[],[],[],[],[],[],,173.2964,173.2965,0.035112401,-0.278794434,0,0,0,,0,18,18,11,1,4,RL,clisimal,print,clisimal_p.png,,,,,
,,,,32034,001,2025-10-16_21h19.19.033,HW_LDT_1,2024.2.4,MacIntel,59.52380952,,,,,,,,,,,,,,,,,,,,,173.2977,173.4961,173.4961,173.9961,,,,,,,,,,,,,,0.5318,1,,,,,,,,,,,,,,m,,,,,,,,,,,,,,,,20,0,173.9967,174.5294,m,1,0.5318,,[],[],[],[],[],[],[],174.5296,176.5294,176.5295,176.5297,[],[],[],[],[],[],[],,176.5297,176.5298,0.035112401,-0.278794434,0,0,0,,0,19,19,155,1,4,word,STRATEGY,print,strategy_p.png,,,,,
,,,,32034,001,2025-10-16_21h19.19.033,HW_LDT_1,2024.2.4,MacIntel,59.52380952,,,,,,,,,,,,,,,,,,,,,176.531,176.7295,176.7296,177.2293,,,,,,,,,,,,,,0.5748,1,,,,,,,,,,,,,,m,,,,,,,,,,,,,,,,21,0,177.2296,177.8129,m,1,0.5748,,[],[],[],[],[],[],[],177.813,179.8128,179.8128,179.813,[],[],[],[],[],[],[],,179.8131,179.8132,0.035112401,-0.278794434,0,0,0,,0,20,20,105,1,4,word,EDITOR,print,editor_p.png,,,,,
,,,,32034,001,2025-10-16_21h19.19.033,HW_LDT_1,2024.2.4,MacIntel,59.52380952,,,,,,,,,,,,,,,,,,,,,179.8143,180.0127,180.0127,180.5128,,,,,,,,,,,,,,1.6744,1,,,,,,,,,,,,,,m,,,,,,,,,,,,,,,,22,1,180.5133,182.1956,m,1,1.6744,,[],[],[],[],[],[],[],182.1957,184.1961,184.1962,188.2128,[],[],[],[],[],[],[],z,188.213,188.2132,0.035112401,-0.278794434,0,0,0,,0,21,21,153,1,4,word,STOLEN,cursive,stolen_c.png,4.0053,,,,
,,,,32034,001,2025-10-16_21h19.19.033,HW_LDT_1,2024.2.4,MacIntel,59.52380952,,,,,,,,,,,,,,,,,,,,,188.2142,188.4127,188.4128,188.9127,,,,,,,,,,,,,,4.4883,1,,,,,,,,,,,,,,z,,,,,,,,,,,,,,,,23,1,188.9133,193.4127,z,1,4.4883,,[],[],[],[],[],[],[],193.4129,195.4125,195.4125,196.7129,[],[],[],[],[],[],[],z,196.7129,196.713,0.036712903,-0.279897977,0,0,0,,0,22,22,51,1,4,TL,adsivory,cursive,adsivory_c.png,1.2894,,,,
,,,,32034,001,2025-10-16_21h19.19.033,HW_LDT_1,2024.2.4,MacIntel,59.52380952,,,,,,,,,,,,,,,,,,,,,196.7141,196.9126,196.9127,197.4127,,,,,,,,,,,,,,1.022,1,,,,,,,,,,,,,,m,,,,,,,,,,,,,,,,24,0,197.4133,198.4461,m,1,1.022,,[],[],[],[],[],[],[],198.4462,200.446,200.4461,200.4463,[],[],[],[],[],[],[],,200.4463,200.4464,0.036712903,-0.279897977,0,0,0,,0,23,23,111,1,4,word,INDICATE,print,indicate_p.png,,,,,
,,,,32034,001,2025-10-16_21h19.19.033,HW_LDT_1,2024.2.4,MacIntel,59.52380952,,,,,,,,,,,,,,,,,,,,,200.4474,200.6462,200.6462,201.146,,,,,,,,,,,,,,0.5718,1,,,,,,,,,,,,,,m,,,,,,,,,,,,,,,,25,0,201.1466,201.7295,m,1,0.5718,,[],[],[],[],[],[],[],201.7296,203.7294,203.7294,203.7297,[],[],[],[],[],[],[],,203.7297,203.7298,0.036712903,-0.279897977,0,0,0,,0,24,24,117,1,4,word,MARINE,print,marine_p.png,,,,,
,,,,32034,001,2025-10-16_21h19.19.033,HW_LDT_1,2024.2.4,MacIntel,59.52380952,,,,,,,,,,,,,,,,,,,,,203.7309,203.9295,203.9295,204.4293,,,,,,,,,,,,,,0.7154,1,,,,,,,,,,,,,,m,,,,,,,,,,,,,,,,26,0,204.4299,205.1459,m,1,0.7154,,[],[],[],[],[],[],[],205.1461,207.1461,207.1461,207.1463,[],[],[],[],[],[],[],,207.1463,207.1465,0.036712903,-0.279897977,0,0,0,,0,25,25,156,1,4,word,TRIBUTE,print,tribute_p.png,,,,,
,,,,32034,001,2025-10-16_21h19.19.033,HW_LDT_1,2024.2.4,MacIntel,59.52380952,,,,,,,,,,,,,,,,,,,,,207.1476,207.3461,207.3462,207.846,,,,,,,,,,,,,,0.938,1,,,,,,,,,,,,,,z,,,,,,,,,,,,,,,,27,1,207.8466,208.796,z,1,0.938,,[],[],[],[],[],[],[],208.7961,210.7961,210.7962,212.2628,[],[],[],[],[],[],[],m,212.2629,212.263,0.036712903,-0.279897977,0,0,0,,0,26,26,47,1,4,RL,stopave,print,stopave_p.png,1.4555,,,,
,,,,32034,001,2025-10-16_21h19.19.033,HW_LDT_1,2024.2.4,MacIntel,59.52380952,,,,,,,,,,,,,,,,,,,,,212.2642,212.4627,212.4627,212.9627,,,,,,,,,,,,,,1.6562,1,,,,,,,,,,,,,,z,,,,,,,,,,,,,,,,28,0,212.9632,214.6293,z,1,1.6562,,[],[],[],[],[],[],[],214.6295,216.6292,216.6293,216.6295,[],[],[],[],[],[],[],,216.6296,216.6297,0.036712903,-0.279897977,0,0,0,,0,27,27,48,1,4,RL,vabifity,print,vabifity_p.png,,,,,
,,,,32034,001,2025-10-16_21h19.19.033,HW_LDT_1,2024.2.4,MacIntel,59.52380952,,,,,,,,,,,,,,,,,,,,,216.6307,216.8293,216.8294,217.3293,,,,,,,,,,,,,,0.5879,1,,,,,,,,,,,,,,m,,,,,,,,,,,,,,,,29,0,217.3299,217.9294,m,1,0.5879,,[],[],[],[],[],[],[],217.9295,219.9293,219.9294,219.9296,[],[],[],[],[],[],[],,219.9296,219.9297,0.036712903,-0.279897977,0,0,0,,0,28,28,121,1,4,word,MISTAKE,print,mistake_p.png,,,,,
,,,,32034,001,2025-10-16_21h19.19.033,HW_LDT_1,2024.2.4,MacIntel,59.52380952,,,,,,,,,,,,,,,,,,,,,219.9307,220.1293,220.1294,220.6293,,,,,,,,,,,,,,1.0383,0,,,,,,,,,,,,,,z,,,,,,,,,,,,,,,,30,1,220.6299,221.6794,m,0,1.0383,,[],[],[],[],[],[],[],221.6795,223.6793,223.6793,224.6794,[],[],[],[],[],[],[],z,224.6795,224.6796,0.036712903,-0.279897977,0,0,0,,0,29,29,77,1,4,TL,spemicen,cursive,spemicen_c.png,0.9889,,,,
,,,,32034,001,2025-10-16_21h19.19.033,HW_LDT_1,2024.2.4,MacIntel,59.52380952,,,,,,,,,,,,,,,,,,,,,224.6808,224.8793,224.8794,225.3793,,,,,,,,,,,,,,2.1053,1,,,,,,,,,,,,,,m,,,,,,,,,,,,,,,,31,0,225.3799,227.4961,m,1,2.1053,,[],[],[],[],[],[],[],227.4961,229.4959,229.496,229.4961,[],[],[],[],[],[],[],,229.4961,229.4963,0.036712903,-0.279897977,0,0,0,,0,30,30,137,1,4,word,RAPIDLY,cursive,rapidly_c.png,,,,,
,,,,32034,001,2025-10-16_21h19.19.033,HW_LDT_1,2024.2.4,MacIntel,59.52380952,,,,,,,,,,,,,,,,,,,,,229.4973,229.6961,229.6961,230.1959,,,,,,,,,,,,,,0.6055,1,,,,,,,,,,,,,,m,,,,,,,,,,,,,,,,32,0,230.1965,230.8127,m,1,0.6055,,[],[],[],[],[],[],[],230.8129,232.8126,232.8127,232.8129,[],[],[],[],[],[],[],,232.8129,232.8129,0.036712903,-0.279897977,0,0,0,,0,31,31,95,1,4,word,COMEDY,print,comedy_p.png,,,,,
,,,,32034,001,2025-10-16_21h19.19.033,HW_LDT_1,2024.2.4,MacIntel,59.52380952,,,,,,,,,,,,,,,,,,,,,232.814,233.0127,233.0127,233.5126,,,,,,,,,,,,,,0.9045,1,,,,,,,,,,,,,,z,,,,,,,,,,,,,,,,33,0,233.5131,234.4293,z,1,0.9045,,[],[],[],[],[],[],[],234.4294,236.4293,236.4294,236.4295,[],[],[],[],[],[],[],,236.4295,236.4296,0.036712903,-0.279897977,0,0,0,,0,32,32,39,1,4,RL,relone,cursive,relone_c.png,,,,,
,,,,32034,001,2025-10-16_21h19.19.033,HW_LDT_1,2024.2.4,MacIntel,59.52380952,,,,,,,,,,,,,,,,,,,,,236.4306,236.6293,236.6294,237.1293,,,,,,,,,,,,,,2.3048,1,,,,,,,,,,,,,,z,,,,,,,,,,,,,,,,34,0,237.1298,239.4461,z,1,2.3048,,[],[],[],[],[],[],[],239.4461,241.4459,241.446,241.4462,[],[],[],[],[],[],[],,241.4462,241.4464,0.036712903,-0.279897977,0,0,0,,0,33,33,49,1,4,RL,vesofity,cursive,vesofity_c.png,,,,,
,,,,32034,001,2025-10-16_21h19.19.033,HW_LDT_1,2024.2.4,MacIntel,59.52380952,,,,,,,,,,,,,,,,,,,,,241.4474,241.6459,241.6459,242.146,,,,,,,,,,,,,,0.5382,1,,,,,,,,,,,,,,m,,,,,,,,,,,,,,,,35,0,242.1465,242.696,m,1,0.5382,,[],[],[],[],[],[],[],242.6961,244.6959,244.696,244.6962,[],[],[],[],[],[],[],,244.6962,244.6962,0.036712903,-0.279897977,0,0,0,,0,34,34,107,1,4,word,EVIDENT,print,evident_p.png,,,,,
,,,,32034,001,2025-10-16_21h19.19.033,HW_LDT_1,2024.2.4,MacIntel,59.52380952,,,,,,,,,,,,,,,,,,,,,244.6973,244.8956,244.8956,245.3959,,,,,,,,,,,,,,0.8217,1,,,,,,,,,,,,,,z,,,,,,,,,,,,,,,,36,0,245.3964,246.2293,z,1,0.8217,,[],[],[],[],[],[],[],246.2294,248.2293,248.2293,248.2295,[],[],[],[],[],[],[],,248.2295,248.2296,0.036712903,-0.279897977,0,0,0,,0,35,35,4,1,4,RL,betemit,cursive,betemit_c.png,,,,,
,,,,32034,001,2025-10-16_21h19.19.033,HW_LDT_1,2024.2.4,MacIntel,59.52380952,,,,,,,,,,,,,,,,,,,,,248.2308,248.4293,248.4293,248.9292,,,,,,,,,,,,,,1.7557,1,,,,,,,,,,,,,,z,,,,,,,,,,,,,,,,37,0,248.9298,250.696,z,1,1.7557,,[],[],[],[],[],[],[],250.6961,252.6959,252.696,252.6961,[],[],[],[],[],[],[],,252.6962,252.6962,0.036712903,-0.279897977,0,0,0,,0,36,36,1,1,4,RL,afaneur,cursive,afaneur_c.png,,,,,
,,,,32034,001,2025-10-16_21h19.19.033,HW_LDT_1,2024.2.4,MacIntel,59.52380952,,,,,,,,,,,,,,,,,,,,,252.6974,252.8959,252.8959,253.3959,,,,,,,,,,,,,,2.8475,1,,,,,,,,,,,,,,z,,,,,,,,,,,,,,,,38,1,253.3964,256.2456,z,1,2.8475,,[],[],[],[],[],[],[],256.2458,258.2459,258.2459,259.4958,[],[],[],[],[],[],[],z,259.4959,259.496,0.036712903,-0.279897977,0,0,0,,0,37,37,2,1,4,RL,asiral,cursive,asiral_c.png,1.248,,,,
,,,,32034,001,2025-10-16_21h19.19.033,HW_LDT_1,2024.2.4,MacIntel,59.52380952,,,,,,,,,,,,,,,,,,,,,259.4969,259.6959,259.6959,260.1959,,,,,,,,,,,,,,0.6311,1,,,,,,,,,,,,,,m,,,,,,,,,,,,,,,,39,1,260.1964,260.8292,m,1,0.6311,,[],[],[],[],[],[],[],260.8294,262.8291,262.8293,263.9793,[],[],[],[],[],[],[],m,263.9794,263.9795,0.036712903,-0.279897977,0,0,0,,0,38,38,149,1,4,word,SENATOR,print,senator_p.png,1.139,,,,
,,,,32034,001,2025-10-16_21h19.19.033,HW_LDT_1,2024.2.4,MacIntel,59.52380952,,,,,,,,,,,,,,,,,,,,,263.9807,264.1792,264.1792,264.6791,,,,,,,,,,,,,,1.2217,1,,,,,,,,,,,,,,z,,,,,,,,,,,,,,,,40,0,264.6798,265.9126,z,1,1.2217,,[],[],[],[],[],[],[],265.9126,267.9126,267.9126,267.9128,[],[],[],[],[],[],[],,267.9129,267.913,0.036712903,-0.279897977,0,0,0,,0,39,39,58,1,4,TL,edivent,print,edivent_p.png,,,,,
,,,,32034,001,2025-10-16_21h19.19.033,HW_LDT_1,2024.2.4,MacIntel,59.52380952,,,,,,,,,,,,,,,,,,,,,267.914,268.1125,268.1126,268.6126,,,,,,,,,,,,,,0.5882,1,,,,,,,,,,,,,,m,,,,,,,,,,,,,,,,41,0,268.6132,269.2125,m,1,0.5882,,[],[],[],[],[],[],[],269.2127,271.2126,271.2126,271.2128,[],[],[],[],[],[],[],,271.2128,271.2129,0.036712903,-0.279897977,0,0,0,,0,40,40,93,1,4,word,CEREMONY,print,ceremony_p.png,,,,,
,,,,32034,001,2025-10-16_21h19.19.033,HW_LDT_1,2024.2.4,MacIntel,59.52380952,,,,,,,,,,,,,,,,,,,,,271.214,271.4126,271.4127,271.9125,,,,,,,,,,,,,,2.9718,1,,,,,,,,,,,,,,m,,,,,,,,,,,,,,,,42,0,271.9131,274.8959,m,1,2.9718,,[],[],[],[],[],[],[],274.8959,276.8959,276.8959,276.8961,[],[],[],[],[],[],[],,276.8962,276.8963,0.036712903,-0.279897977,0,0,0,,0,41,41,82,1,4,word,AMATEUR,cursive,amateur_c.png,,,,,
,,,,32034,001,2025-10-16_21h19.19.033,HW_LDT_1,2024.2.4,MacIntel,59.52380952,,,,,,,,,,,,,,,,,,,,,276.8973,277.0959,277.0959,277.5957,,,,,,,,,,,,,,1.1324,1,,,,,,,,,,,,,,z,,,,,,,,,,,,,,,,43,0,277.5963,278.7295,z,1,1.1324,,[],[],[],[],[],[],[],278.7296,280.7292,280.7292,280.7294,[],[],[],[],[],[],[],,280.7295,280.7295,0.036712903,-0.279897977,0,0,0,,0,42,42,25,1,4,RL,macise,print,macise_p.png,,,,,
,,,,32034,001,2025-10-16_21h19.19.033,HW_LDT_1,2024.2.4,MacIntel,59.52380952,,,,,,,,,,,,,,,,,,,,,280.7306,280.9292,280.9292,281.4291,,,,,,,,,,,,,,2.1714,0,,,,,,,,,,,,,,m,,,,,,,,,,,,,,,,44,1,281.4297,283.6127,z,0,2.1714,,[],[],[],[],[],[],[],283.6128,285.6124,285.6126,287.0293,[],[],[],[],[],[],[],z,287.0294,287.0295,0.036712903,-0.279897977,0,0,0,,0,43,43,106,1,4,word,ELABORATE,cursive,elaborate_c.png,1.4058,,,,
,,,,32034,001,2025-10-16_21h19.19.033,HW_LDT_1,2024.2.4,MacIntel,59.52380952,,,,,,,,,,,,,,,,,,,,,287.0307,287.2292,287.2292,287.7291,,,,,,,,,,,,,,1.8724,1,,,,,,,,,,,,,,m,,,,,,,,,,,,,,,,45,1,287.7297,289.6126,m,1,1.8724,,[],[],[],[],[],[],[],289.6127,291.6119,291.612,293.1292,[],[],[],[],[],[],[],z,293.1293,293.1295,0.036712903,-0.279897977,0,0,0,,0,44,44,112,1,4,word,LIBERAL,cursive,liberal_c.png,1.506,,,,
,,,,32034,001,2025-10-16_21h19.19.033,HW_LDT_1,2024.2.4,MacIntel,59.52380952,,,,,,,,,,,,,,,,,,,,,293.1305,293.3291,293.3292,293.8291,,,,,,,,,,,,,,1.5554,1,,,,,,,,,,,,,,m,,,,,,,,,,,,,,,,46,0,293.8297,295.3958,m,1,1.5554,,[],[],[],[],[],[],[],295.3959,297.3958,297.3959,297.396,[],[],[],[],[],[],[],,297.3961,297.3962,0.036712903,-0.279897977,0,0,0,,0,45,45,120,1,4,word,MILITARY,print,military_p.png,,,,,
,,,,32034,001,2025-10-16_21h19.19.033,HW_LDT_1,2024.2.4,MacIntel,59.52380952,,,,,,,,,,,,,,,,,,,,,297.3972,297.5958,297.5959,298.0958,,,,,,,,,,,,,,3.2311,1,,,,,,,,,,,,,,z,,,,,,,,,,,,,,,,47,0,298.0963,301.3291,z,1,3.2311,,[],[],[],[],[],[],[],301.3292,303.329,303.3291,303.3293,[],[],[],[],[],[],[],,303.3293,303.3293,0.036712903,-0.279897977,0,0,0,,0,46,46,10,1,4,RL,carminal,cursive,carminal_c.png,,,,,
,,,,32034,001,2025-10-16_21h19.19.033,HW_LDT_1,2024.2.4,MacIntel,59.52380952,,,,,,,,,,,,,,,,,,,,,303.3302,303.5291,303.5292,304.0291,,,,,,,,,,,,,,1.7376,1,,,,,,,,,,,,,,z,,,,,,,,,,,,,,,,48,0,304.0297,305.7792,z,1,1.7376,,[],[],[],[],[],[],[],305.7793,307.7791,307.7791,307.7793,[],[],[],[],[],[],[],,307.7794,307.7794,0.036712903,-0.279897977,0,0,0,,0,47,47,35,1,4,RL,probice,cursive,probice_c.png,,,,,
,,,,32034,001,2025-10-16_21h19.19.033,HW_LDT_1,2024.2.4,MacIntel,59.52380952,,,,,,,,,,,,,,,,,,,,,307.7805,307.9791,307.9792,308.4791,,,,,,,,,,,,,,0.999,1,,,,,,,,,,,,,,z,,,,,,,,,,,,,,,,49,0,308.4796,309.4795,z,1,0.999,,[],[],[],[],[],[],[],309.4796,311.4791,311.4791,311.4793,[],[],[],[],[],[],[],,311.4793,311.4794,0.036712903,-0.279897977,0,0,0,,0,48,48,40,1,4,RL,reconal,print,reconal_p.png,,,,,
,,,,32034,001,2025-10-16_21h19.19.033,HW_LDT_1,2024.2.4,MacIntel,59.52380952,,,,,,,,,,,,,,,,,,,,,311.4805,311.6791,311.6791,312.1791,,,,,,,,,,,,,,1.3798,1,,,,,,,,,,,,,,z,,,,,,,,,,,,,,,,50,0,312.1796,313.5623,z,1,1.3798,,[],[],[],[],[],[],[],313.5623,315.5623,315.5624,315.5626,[],[],[],[],[],[],[],,315.5626,315.5627,0.036712903,-0.279897977,0,0,0,,0,49,49,71,1,4,TL,racidal,print,racidal_p.png,,,,,
,,,,32034,001,2025-10-16_21h19.19.033,HW_LDT_1,2024.2.4,MacIntel,59.52380952,,,,,,,,,,,,,,,,,,,,,315.5637,315.7625,315.7625,316.2621,,,,,,,,,,,,,,2.4385,1,,,,,,,,,,,,,,m,,,,,,,,,,,,,,,,51,0,316.2626,318.7125,m,1,2.4385,,[],[],[],[],[],[],[],318.7126,320.7124,320.7124,320.7126,[],[],[],[],[],[],[],,320.7127,320.7127,0.036712903,-0.279897977,0,0,0,,0,50,50,142,1,4,word,REMOTE,cursive,remote_c.png,,,,,
,,,,32034,001,2025-10-16_21h19.19.033,HW_LDT_1,2024.2.4,MacIntel,59.52380952,,,,,,,,,,,,,,,,,,,,,320.7138,320.9124,320.9125,321.4124,,,,,,,,,,,,,,2.0546,1,,,,,,,,,,,,,,z,,,,,,,,,,,,,,,,52,0,321.4131,323.4793,z,1,2.0546,,[],[],[],[],[],[],[],323.4793,325.4791,325.4791,325.4793,[],[],[],[],[],[],[],,325.4793,325.4794,0.036712903,-0.279897977,0,0,0,,0,51,51,66,1,4,TL,opmital,print,opmital_p.png,,,,,
,,,,32034,001,2025-10-16_21h19.19.033,HW_LDT_1,2024.2.4,MacIntel,59.52380952,,,,,,,,,,,,,,,,,,,,,325.4804,325.679,325.679,326.1791,,,,,,,,,,,,,,2.4651,1,,,,,,,,,,,,,,z,,,,,,,,,,,,,,,,53,0,326.1795,328.6457,z,1,2.4651,,[],[],[],[],[],[],[],328.6458,330.6457,330.6457,330.6459,[],[],[],[],[],[],[],,330.646,330.646,0.036712903,-0.279897977,0,0,0,,0,52,52,37,1,4,RL,renutal,cursive,renutal_c.png,,,,,
,,,,32034,001,2025-10-16_21h19.19.033,HW_LDT_1,2024.2.4,MacIntel,59.52380952,,,,,,,,,,,,,,,,,,,,,330.6472,330.8458,330.8458,331.3457,,,,,,,,,,,,,,3.0552,1,,,,,,,,,,,,,,z,,,,,,,,,,,,,,,,54,0,331.3463,334.4125,z,1,3.0552,,[],[],[],[],[],[],[],334.4125,336.4125,336.4125,336.4126,[],[],[],[],[],[],[],,336.4127,336.4128,0.036712903,-0.279897977,0,0,0,,0,53,53,16,1,4,RL,desifate,cursive,desifate_c.png,,,,,
,,,,32034,001,2025-10-16_21h19.19.033,HW_LDT_1,2024.2.4,MacIntel,59.52380952,,,,,,,,,,,,,,,,,,,,,336.4138,336.6124,336.6124,337.1124,,,,,,,,,,,,,,0.8643,1,,,,,,,,,,,,,,m,,,,,,,,,,,,,,,,55,0,337.1129,337.979,m,1,0.8643,,[],[],[],[],[],[],[],337.979,339.979,339.979,339.9793,[],[],[],[],[],[],[],,339.9793,339.9793,0.036712903,-0.279897977,0,0,0,,0,54,54,119,1,4,word,MEMORY,print,memory_p.png,,,,,
,,,,32034,001,2025-10-16_21h19.19.033,HW_LDT_1,2024.2.4,MacIntel,59.52380952,,,,,,,,,,,,,,,,,,,,,339.9805,340.179,340.179,340.679,,,,,,,,,,,,,,1.5416,1,,,,,,,,,,,,,,z,,,,,,,,,,,,,,,,56,0,340.6796,342.2291,z,1,1.5416,,[],[],[],[],[],[],[],342.2292,344.2291,344.2291,344.2293,[],[],[],[],[],[],[],,344.2294,344.2294,0.036712903,-0.279897977,0,0,0,,0,55,55,6,1,4,RL,caleberia,cursive,caleberia_c.png,,,,,
,,,,32034,001,2025-10-16_21h19.19.033,HW_LDT_1,2024.2.4,MacIntel,59.52380952,,,,,,,,,,,,,,,,,,,,,344.2306,344.4289,344.429,344.929,,,,,,,,,,,,,,0.9298,1,,,,,,,,,,,,,,m,,,,,,,,,,,,,,,,57,1,344.9295,345.8623,m,1,0.9298,,[],[],[],[],[],[],[],345.8624,347.8624,347.8624,348.9124,[],[],[],[],[],[],[],z,348.9125,348.9126,0.036712903,-0.279897977,0,0,0,,0,56,56,129,1,4,word,PARENT,cursive,parent_c.png,1.0395,,,,
,,,,32034,001,2025-10-16_21h19.19.033,HW_LDT_1,2024.2.4,MacIntel,59.52380952,,,,,,,,,,,,,,,,,,,,,348.9137,349.1123,349.1123,349.6123,,,,,,,,,,,,,,0.722,1,,,,,,,,,,,,,,m,,,,,,,,,,,,,,,,58,1,349.6128,350.3458,m,1,0.722,,[],[],[],[],[],[],[],350.3459,352.3456,352.3457,354.0291,[],[],[],[],[],[],[],m,354.0292,354.0293,0.036712903,-0.279897977,0,0,0,,0,57,57,134,1,4,word,QUALIFY,print,qualify_p.png,1.6727,,,,
,,,,32034,001,2025-10-16_21h19.19.033,HW_LDT_1,2024.2.4,MacIntel,59.52380952,,,,,,,,,,,,,,,,,,,,,354.0304,354.229,354.229,354.729,,,,,,,,,,,,,,1.2217,0,,,,,,,,,,,,,,m,,,,,,,,,,,,,,,,59,0,354.7295,355.9624,z,0,1.2217,,[],[],[],[],[],[],[],355.9624,357.9622,357.9623,357.9624,[],[],[],[],[],[],[],,357.9625,357.9626,0.036712903,-0.279897977,0,0,0,,0,58,58,92,1,4,word,CATEGORY,cursive,category_c.png,,,,,
,,,,32034,001,2025-10-16_21h19.19.033,HW_LDT_1,2024.2.4,MacIntel,59.52380952,,,,,,,,,,,,,,,,,,,,,357.9636,358.1623,358.1624,358.6623,,,,,,,,,,,,,,1.0127,1,,,,,,,,,,,,,,z,,,,,,,,,,,,,,,,60,0,358.6628,359.6789,z,1,1.0127,,[],[],[],[],[],[],[],359.6789,361.679,361.679,361.6792,[],[],[],[],[],[],[],,361.6792,361.6793,0.036712903,-0.279897977,0,0,0,,0,59,59,69,1,4,TL,quafily,print,quafily_p.png,,,,,
,,,,32034,001,2025-10-16_21h19.19.033,HW_LDT_1,2024.2.4,MacIntel,59.52380952,,,,,,,,,,,,,,,,,,,,,361.6804,361.879,361.879,362.3789,,,,,,,,,,,,,,0.8816,1,,,,,,,,,,,,,,z,,,,,,,,,,,,,,,,61,0,362.3795,363.2622,z,1,0.8816,,[],[],[],[],[],[],[],363.2622,365.2623,365.2624,365.2625,[],[],[],[],[],[],[],,365.2626,365.2626,0.036712903,-0.279897977,0,0,0,,0,60,60,38,1,4,RL,refakive,print,refakive_p.png,,,,,
,,,,32034,001,2025-10-16_21h19.19.033,HW_LDT_1,2024.2.4,MacIntel,59.52380952,,,,,,,,,,,,,,,,,,,,,365.2637,365.4623,365.4623,365.9622,,,,,,,,,,,,,,2.239,1,,,,,,,,,,,,,,z,,,,,,,,,,,,,,,,62,0,365.9628,368.2123,z,1,2.239,,[],[],[],[],[],[],[],368.2125,370.2116,370.2116,370.2118,[],[],[],[],[],[],[],,370.2119,370.2119,0.036712903,-0.279897977,0,0,0,,0,61,61,24,1,4,RL,marmipal,cursive,marmipal_c.png,,,,,
,,,,32034,001,2025-10-16_21h19.19.033,HW_LDT_1,2024.2.4,MacIntel,59.52380952,,,,,,,,,,,,,,,,,,,,,370.213,370.4122,370.4123,370.9123,,,,,,,,,,,,,,1.4657,1,,,,,,,,,,,,,,z,,,,,,,,,,,,,,,,63,0,370.9128,372.3791,z,1,1.4657,,[],[],[],[],[],[],[],372.3792,374.379,374.379,374.3792,[],[],[],[],[],[],[],,374.3792,374.3793,0.036712903,-0.279897977,0,0,0,,0,62,62,73,1,4,TL,regilion,print,regilion_p.png,,,,,
,,,,32034,001,2025-10-16_21h19.19.033,HW_LDT_1,2024.2.4,MacIntel,59.52380952,,,,,,,,,,,,,,,,,,,,,374.3802,374.579,374.5791,375.0789,,,,,,,,,,,,,,1.0551,1,,,,,,,,,,,,,,z,,,,,,,,,,,,,,,,64,0,375.0794,376.1457,z,1,1.0551,,[],[],[],[],[],[],[],376.1458,378.1456,378.1457,378.1458,[],[],[],[],[],[],[],,378.1458,378.1459,0.036712903,-0.279897977,0,0,0,,0,63,63,79,1,4,TL,tritube,print,tritube_p.png,,,,,
,,,,32034,001,2025-10-16_21h19.19.033,HW_LDT_1,2024.2.4,MacIntel,59.52380952,,,,,,,,,,,,,,,,,,,,,378.147,378.3456,378.3456,378.8456,,,,,,,,,,,,,,0.8883,1,,,,,,,,,,,,,,z,,,,,,,,,,,,,,,,65,0,378.8462,379.7458,z,1,0.8883,,[],[],[],[],[],[],[],379.7458,381.7456,381.7456,381.7458,[],[],[],[],[],[],[],,381.7459,381.7459,0.036712903,-0.279897977,0,0,0,,0,64,64,30,1,4,RL,nunewical,cursive,nunewical_c.png,,,,,
,,,,32034,001,2025-10-16_21h19.19.033,HW_LDT_1,2024.2.4,MacIntel,59.52380952,,,,,,,,,,,,,,,,,,,,,381.7469,381.9456,381.9456,382.4455,,,,,,,,,,,,,,1.107,1,,,,,,,,,,,,,,z,,,,,,,,,,,,,,,,66,0,382.446,383.5622,z,1,1.107,,[],[],[],[],[],[],[],383.5622,385.5623,385.5624,385.5625,[],[],[],[],[],[],[],,385.5626,385.5626,0.036712903,-0.279897977,0,0,0,,0,65,65,36,1,4,RL,rabigly,cursive,rabigly_c.png,,,,,
,,,,32034,001,2025-10-16_21h19.19.033,HW_LDT_1,2024.2.4,MacIntel,59.52380952,,,,,,,,,,,,,,,,,,,,,385.5637,385.7623,385.7623,386.2623,,,,,,,,,,,,,,1.032,1,,,,,,,,,,,,,,z,,,,,,,,,,,,,,,,67,0,386.2627,387.2955,z,1,1.032,,[],[],[],[],[],[],[],387.2956,389.2955,389.2955,389.2957,[],[],[],[],[],[],[],,389.2957,389.2958,0.036712903,-0.279897977,0,0,0,,0,66,66,27,1,4,RL,menowy,print,menowy_p.png,,,,,
,,,,32034,001,2025-10-16_21h19.19.033,HW_LDT_1,2024.2.4,MacIntel,59.52380952,,,,,,,,,,,,,,,,,,,,,389.2968,389.4956,389.4957,389.9956,,,,,,,,,,,,,,2.2419,1,,,,,,,,,,,,,,z,,,,,,,,,,,,,,,,68,0,389.9961,392.2456,z,1,2.2419,,[],[],[],[],[],[],[],392.2456,394.2456,394.2457,394.2458,[],[],[],[],[],[],[],,394.2458,394.2459,0.036712903,-0.279897977,0,0,0,,0,67,67,14,1,4,RL,delahe,cursive,delahe_c.png,,,,,
,,,,32034,001,2025-10-16_21h19.19.033,HW_LDT_1,2024.2.4,MacIntel,59.52380952,,,,,,,,,,,,,,,,,,,,,394.2469,394.4456,394.4456,394.9455,,,,,,,,,,,,,,1.1216,1,,,,,,,,,,,,,,m,,,,,,,,,,,,,,,,69,0,394.946,396.079,m,1,1.1216,,[],[],[],[],[],[],[],396.0791,398.0789,398.0789,398.0792,[],[],[],[],[],[],[],,398.0792,398.0793,0.036712903,-0.279897977,0,0,0,,0,68,68,133,1,4,word,PROVIDE,cursive,provide_c.png,,,,,
,,,,32034,001,2025-10-16_21h19.19.033,HW_LDT_1,2024.2.4,MacIntel,59.52380952,,,,,,,,,,,,,,,,,,,,,398.0804,398.2789,398.279,398.7789,,,,,,,,,,,,,,1.0715,1,,,,,,,,,,,,,,m,,,,,,,,,,,,,,,,70,1,398.7795,399.8623,m,1,1.0715,,[],[],[],[],[],[],[],399.8624,401.8622,401.8623,403.279,[],[],[],[],[],[],[],z,403.2791,403.2791,0.036712903,-0.279897977,0,0,0,,0,69,69,97,1,4,word,COVERAGE,cursive,coverage_c.png,1.4069,,,,
,,,,32034,001,2025-10-16_21h19.19.033,HW_LDT_1,2024.2.4,MacIntel,59.52380952,,,,,,,,,,,,,,,,,,,,,403.2802,403.4789,403.4789,403.9789,,,,,,,,,,,,,,1.5218,0,,,,,,,,,,,,,,m,,,,,,,,,,,,,,,,71,0,403.9794,405.5123,z,0,1.5218,,[],[],[],[],[],[],[],405.5124,407.5122,407.5123,407.5124,[],[],[],[],[],[],[],,407.5125,407.5126,0.036712903,-0.279897977,0,0,0,,0,70,70,98,1,4,word,CRIMINAL,cursive,criminal_c.png,,,,,
,,,,32034,001,2025-10-16_21h19.19.033,HW_LDT_1,2024.2.4,MacIntel,59.52380952,,,,,,,,,,,,,,,,,,,,,407.5136,407.7123,407.7123,408.2122,,,,,,,,,,,,,,1.8551,1,,,,,,,,,,,,,,z,,,,,,,,,,,,,,,,72,0,408.2127,410.0789,z,1,1.8551,,[],[],[],[],[],[],[],410.079,412.0789,412.079,412.0791,[],[],[],[],[],[],[],,412.0791,412.0792,0.036712903,-0.279897977,0,0,0,,0,71,71,72,1,4,TL,relugar,cursive,relugar_c.png,,,,,
,,,,32034,001,2025-10-16_21h19.19.033,HW_LDT_1,2024.2.4,MacIntel,59.52380952,,,,,,,,,,,,,,,,,,,,,412.0803,412.279,412.279,412.7789,,,,,,,,,,,,,,1.0565,1,,,,,,,,,,,,,,m,,,,,,,,,,,,,,,,73,0,412.7794,413.8456,m,1,1.0565,,[],[],[],[],[],[],[],413.8457,415.8456,415.8456,415.8458,[],[],[],[],[],[],[],,415.8458,415.8459,0.036712903,-0.279897977,0,0,0,,0,72,72,139,1,4,word,REGULAR,cursive,regular_c.png,,,,,
,,,,32034,001,2025-10-16_21h19.19.033,HW_LDT_1,2024.2.4,MacIntel,59.52380952,,,,,,,,,,,,,,,,,,,,,415.8469,416.0454,416.0455,416.5455,,,,,,,,,,,,,,2.5489,1,,,,,,,,,,,,,,z,,,,,,,,,,,,,,,,74,0,416.5461,419.0957,z,1,2.5489,,[],[],[],[],[],[],[],419.0958,421.0955,421.0956,421.0958,[],[],[],[],[],[],[],,421.0958,421.0959,0.036712903,-0.279897977,0,0,0,,0,73,73,55,1,4,TL,corevage,cursive,corevage_c.png,,,,,
,,,,32034,001,2025-10-16_21h19.19.033,HW_LDT_1,2024.2.4,MacIntel,59.52380952,,,,,,,,,,,,,,,,,,,,,421.0969,421.2955,421.2955,421.7956,,,,,,,,,,,,,,1.8626,0,,,,,,,,,,,,,,m,,,,,,,,,,,,,,,,75,0,421.7961,423.6621,z,0,1.8626,,[],[],[],[],[],[],[],423.6622,425.6622,425.6623,425.6624,[],[],[],[],[],[],[],,425.6624,425.6626,0.036712903,-0.279897977,0,0,0,,0,74,74,113,1,4,word,LITERAL,cursive,literal_c.png,,,,,
,,,,32034,001,2025-10-16_21h19.19.033,HW_LDT_1,2024.2.4,MacIntel,59.52380952,,,,,,,,,,,,,,,,,,,,,425.6637,425.8622,425.8623,426.3621,,,,,,,,,,,,,,1.0719,1,,,,,,,,,,,,,,m,,,,,,,,,,,,,,,,76,0,426.3628,427.4457,m,1,1.0719,,[],[],[],[],[],[],[],427.4458,429.4454,429.4456,429.4457,[],[],[],[],[],[],[],,429.4457,429.4459,0.036712903,-0.279897977,0,0,0,,0,75,75,157,1,4,word,VALIDITY,print,validity_p.png,,,,,
,,,,32034,001,2025-10-16_21h19.19.033,HW_LDT_1,2024.2.4,MacIntel,59.52380952,,,,,,,,,,,,,,,,,,,,,429.447,429.6455,429.6456,430.1455,,,,,,,,,,,,,,1.6553,1,,,,,,,,,,,,,,z,,,,,,,,,,,,,,,,77,0,430.146,431.8122,z,1,1.6553,,[],[],[],[],[],[],[],431.8124,433.8121,433.8122,433.8124,[],[],[],[],[],[],[],,433.8124,433.8125,0.036712903,-0.279897977,0,0,0,,0,76,76,64,1,4,TL,moredate,print,moredate_p.png,,,,,
,,,,32034,001,2025-10-16_21h19.19.033,HW_LDT_1,2024.2.4,MacIntel,59.52380952,,,,,,,,,,,,,,,,,,,,,433.8137,434.0122,434.0122,434.5122,,,,,,,,,,,,,,2.3157,1,,,,,,,,,,,,,,z,,,,,,,,,,,,,,,,78,0,434.5127,436.8291,z,1,2.3157,,[],[],[],[],[],[],[],436.8291,438.8286,438.8287,438.8289,[],[],[],[],[],[],[],,438.8289,438.829,0.036712903,-0.279897977,0,0,0,,0,77,77,13,1,4,RL,crisival,cursive,crisival_c.png,,,,,
,,,,32034,001,2025-10-16_21h19.19.033,HW_LDT_1,2024.2.4,MacIntel,59.52380952,,,,,,,,,,,,,,,,,,,,,438.8301,439.0288,439.0288,439.5287,,,,,,,,,,,,,,2.8222,1,,,,,,,,,,,,,,m,,,,,,,,,,,,,,,,79,0,439.5293,442.3622,m,1,2.8222,,[],[],[],[],[],[],[],442.3623,444.3622,444.3622,444.3624,[],[],[],[],[],[],[],,444.3624,444.3625,0.036712903,-0.279897977,0,0,0,,0,78,78,131,1,4,word,POPULAR,print,popular_p.png,,,,,
,,,,32034,001,2025-10-16_21h19.19.033,HW_LDT_1,2024.2.4,MacIntel,59.52380952,,,,,,,,,,,,,,,,,,,,,444.3635,444.5622,444.5622,445.0621,,,,,,,,,,,,,,2.3288,1,,,,,,,,,,,,,,z,,,,,,,,,,,,,,,,80,0,445.0626,447.3948,z,1,2.3288,,[],[],[],[],[],[],[],447.3949,449.3954,449.3955,449.3957,[],[],[],[],[],[],[],,449.3957,469.8788,0.073400228,-0.385852725,1,0,0,,0,79,79,59,1,4,TL,fornute,cursive,fornute_c.png,,,,,
,,,,32034,001,2025-10-16_21h19.19.033,HW_LDT_1,2024.2.4,MacIntel,59.52380952,,,,,,,,,,,,,,,,,,,,,469.8798,470.0788,470.0788,470.5787,,,,,,,,,,,,,,1.6051,1,,,,,,,,,,,,,,m,,,,,,,,,,,,,,,,81,0,470.5791,472.1956,m,1,1.6051,,[],[],[],[],[],[],[],472.1958,474.1953,474.1954,474.1956,[],[],[],[],[],[],[],,474.1957,474.1957,0.073400228,-0.385852725,0,0,0,,0,80,80,84,1,4,word,BELOVED,print,beloved_p.png,,,,,
,,,,32034,001,2025-10-16_21h19.19.033,HW_LDT_1,2024.2.4,MacIntel,59.52380952,,,,,,,,,,,,,,,,,,,,,474.1967,474.3954,474.3955,474.8954,,,,,,,,,,,,,,0.782,1,,,,,,,,,,,,,,z,,,,,,,,,,,,,,,,82,0,474.8959,475.6787,z,1,0.782,,[],[],[],[],[],[],[],475.6789,477.6787,477.6788,477.6789,[],[],[],[],[],[],[],,477.6789,477.6791,0.073400228,-0.385852725,0,0,0,,0,81,81,57,1,4,TL,etidor,print,etidor_p.png,,,,,
,,,,32034,001,2025-10-16_21h19.19.033,HW_LDT_1,2024.2.4,MacIntel,59.52380952,,,,,,,,,,,,,,,,,,,,,477.68,477.8788,477.8788,478.3787,,,,,,,,,,,,,,1.2549,1,,,,,,,,,,,,,,z,,,,,,,,,,,,,,,,83,0,478.3792,479.6455,z,1,1.2549,,[],[],[],[],[],[],[],479.6456,481.6453,481.6455,481.6456,[],[],[],[],[],[],[],,481.6456,481.6457,0.073400228,-0.385852725,0,0,0,,0,82,82,41,1,4,RL,rebicent,cursive,rebicent_c.png,,,,,
,,,,32034,001,2025-10-16_21h19.19.033,HW_LDT_1,2024.2.4,MacIntel,59.52380952,,,,,,,,,,,,,,,,,,,,,481.6467,481.8454,481.8454,482.3454,,,,,,,,,,,,,,2.6382,1,,,,,,,,,,,,,,z,,,,,,,,,,,,,,,,84,0,482.3459,484.9954,z,1,2.6382,,[],[],[],[],[],[],[],484.9955,486.9954,486.9954,486.9956,[],[],[],[],[],[],[],,486.9956,486.9957,0.073400228,-0.385852725,0,0,0,,0,83,83,42,1,4,RL,revune,print,revune_p.png,,,,,
,,,,32034,001,2025-10-16_21h19.19.033,HW_LDT_1,2024.2.4,MacIntel,59.52380952,,,,,,,,,,,,,,,,,,,,,486.9967,487.1954,487.1954,487.6954,,,,,,,,,,,,,,0.5962,0,,,,,,,,,,,,,,m,,,,,,,,,,,,,,,,85,0,487.6959,488.2951,z,0,0.5962,,[],[],[],[],[],[],[],488.2951,490.2953,490.2953,490.2955,[],[],[],[],[],[],[],,490.2955,490.2955,0.073400228,-0.385852725,0,0,0,,0,84,84,114,1,4,word,LOCATE,cursive,locate_c.png,,,,,
,,,,32034,001,2025-10-16_21h19.19.033,HW_LDT_1,2024.2.4,MacIntel,59.52380952,,,,,,,,,,,,,,,,,,,,,490.2965,490.4954,490.4954,490.9954,,,,,,,,,,,,,,1.055,1,,,,,,,,,,,,,,m,,,,,,,,,,,,,,,,86,0,490.9959,492.062,m,1,1.055,,[],[],[],[],[],[],[],492.0622,494.0621,494.0621,494.0623,[],[],[],[],[],[],[],,494.0623,494.0624,0.073400228,-0.385852725,0,0,0,,0,85,85,80,1,4,word,ACADEMY,print,academy_p.png,,,,,
,,,,32034,001,2025-10-16_21h19.19.033,HW_LDT_1,2024.2.4,MacIntel,59.52380952,,,,,,,,,,,,,,,,,,,,,494.0634,494.2616,494.2617,494.762,,,,,,,,,,,,,,0.705,1,,,,,,,,,,,,,,m,,,,,,,,,,,,,,,,87,1,494.7624,495.4788,m,1,0.705,,[],[],[],[],[],[],[],495.4789,497.4786,497.4787,498.7622,[0.2838151894293732],[-0.3235975502806361],[1],[0],[0],[1.2833000000118773],"[""button_right_probe""]",,498.7622,498.7623,0.283815189,-0.32359755,1,0,0,,0,86,86,122,1,4,word,MOBILE,print,mobile_p.png,,,,,
,,,,32034,001,2025-10-16_21h19.19.033,HW_LDT_1,2024.2.4,MacIntel,59.52380952,,,,,,,,,,,,,,,,,,,,,498.763,498.962,498.9621,499.462,,,,,,,,,,,,,,1.255,1,,,,,,,,,,,,,,z,,,,,,,,,,,,,,,,88,0,499.4625,500.7287,z,1,1.255,,[],[],[],[],[],[],[],500.7288,502.7287,502.7287,502.7289,[],[],[],[],[],[],[],,502.7289,502.729,0.283928467,-0.32359755,0,0,0,,0,87,87,22,1,4,RL,linedal,cursive,linedal_c.png,,,,,
,,,,32034,001,2025-10-16_21h19.19.033,HW_LDT_1,2024.2.4,MacIntel,59.52380952,,,,,,,,,,,,,,,,,,,,,502.73,502.9283,502.9283,503.4286,,,,,,,,,,,,,,3.1552,1,,,,,,,,,,,,,,m,,,,,,,,,,,,,,,,89,0,503.4291,506.5946,m,1,3.1552,,[],[],[],[],[],[],[],506.5946,508.5953,508.5954,508.5956,[],[],[],[],[],[],[],,508.5956,508.5957,0.283928467,-0.32359755,0,0,0,,0,88,88,91,1,4,word,CARDINAL,cursive,cardinal_c.png,,,,,
,,,,32034,001,2025-10-16_21h19.19.033,HW_LDT_1,2024.2.4,MacIntel,59.52380952,,,,,,,,,,,,,,,,,,,,,508.5967,508.7953,508.7954,509.2953,,,,,,,,,,,,,,1.4712,1,,,,,,,,,,,,,,m,,,,,,,,,,,,,,,,90,0,509.2957,510.7787,m,1,1.4712,,[],[],[],[],[],[],[],510.7788,512.7787,512.7787,512.779,[],[],[],[],[],[],[],,512.779,512.779,0.283928467,-0.32359755,0,0,0,,0,89,89,110,1,4,word,HERITAGE,print,heritage_p.png,,,,,
,,,,32034,001,2025-10-16_21h19.19.033,HW_LDT_1,2024.2.4,MacIntel,59.52380952,,,,,,,,,,,,,,,,,,,,,512.7802,512.9786,512.9787,513.4777,,,,,,,,,,,,,,3.2224,1,,,,,,,,,,,,,,z,,,,,,,,,,,,,,,,91,0,513.4782,516.712,z,1,3.2224,,[],[],[],[],[],[],[],516.7121,518.712,518.712,518.7122,[],[],[],[],[],[],[],,518.7122,518.7123,0.283928467,-0.32359755,0,0,0,,0,90,90,76,1,4,TL,setanor,print,setanor_p.png,,,,,
,,,,32034,001,2025-10-16_21h19.19.033,HW_LDT_1,2024.2.4,MacIntel,59.52380952,,,,,,,,,,,,,,,,,,,,,518.7133,518.911,518.911,519.4119,,,,,,,,,,,,,,2.2384,1,,,,,,,,,,,,,,z,,,,,,,,,,,,,,,,92,0,519.4124,521.662,z,1,2.2384,,[],[],[],[],[],[],[],521.6621,523.662,523.662,523.6622,[],[],[],[],[],[],[],,523.6623,523.6623,0.283928467,-0.32359755,0,0,0,,0,91,91,33,1,4,RL,pamest,cursive,pamest_c.png,,,,,
,,,,32034,001,2025-10-16_21h19.19.033,HW_LDT_1,2024.2.4,MacIntel,59.52380952,,,,,,,,,,,,,,,,,,,,,523.6633,523.8618,523.8619,524.362,,,,,,,,,,,,,,0.8382,1,,,,,,,,,,,,,,m,,,,,,,,,,,,,,,,93,1,524.3626,525.2119,m,1,0.8382,,[],[],[],[],[],[],[],525.212,527.2119,527.2119,532.4454,[],[],[],[],[],[],[],z,532.4454,532.4456,0.283928467,-0.32359755,0,0,0,,0,92,92,147,1,4,word,ROMANTIC,print,romantic_p.png,5.2213,,,,
,,,,32034,001,2025-10-16_21h19.19.033,HW_LDT_1,2024.2.4,MacIntel,59.52380952,,,,,,,,,,,,,,,,,,,,,532.4465,532.6442,532.6443,533.1452,,,,,,,,,,,,,,3.9397,1,,,,,,,,,,,,,,z,,,,,,,,,,,,,,,,94,0,533.1458,537.0953,z,1,3.9397,,[],[],[],[],[],[],[],537.0954,539.0952,539.0952,539.0955,[],[],[],[],[],[],[],,539.0955,539.0956,0.283928467,-0.32359755,0,0,0,,0,93,93,60,1,4,TL,hetirage,print,hetirage_p.png,,,,,
,,,,32034,001,2025-10-16_21h19.19.033,HW_LDT_1,2024.2.4,MacIntel,59.52380952,,,,,,,,,,,,,,,,,,,,,539.0965,539.2952,539.2952,539.7952,,,,,,,,,,,,,,2.5645,1,,,,,,,,,,,,,,z,,,,,,,,,,,,,,,,95,0,539.7957,542.3618,z,1,2.5645,,[],[],[],[],[],[],[],542.3618,544.3619,544.3619,544.3621,[],[],[],[],[],[],[],,544.3621,544.3622,0.283928467,-0.32359755,0,0,0,,0,94,94,31,1,4,RL,orimipal,print,orimipal_p.png,,,,,
,,,,32034,001,2025-10-16_21h19.19.033,HW_LDT_1,2024.2.4,MacIntel,59.52380952,,,,,,,,,,,,,,,,,,,,,544.3633,544.5619,544.5619,545.0619,,,,,,,,,,,,,,1.3049,1,,,,,,,,,,,,,,z,,,,,,,,,,,,,,,,96,0,545.0624,546.3786,z,1,1.3049,,[],[],[],[],[],[],[],546.3787,548.3785,548.3785,548.3788,[],[],[],[],[],[],[],,548.3788,548.3788,0.283928467,-0.32359755,0,0,0,,0,95,95,63,1,4,TL,miskate,print,miskate_p.png,,,,,
,,,,32034,001,2025-10-16_21h19.19.033,HW_LDT_1,2024.2.4,MacIntel,59.52380952,,,,,,,,,,,,,,,,,,,,,548.3799,548.5786,548.5786,549.0785,,,,,,,,,,,,,,1.4551,0,,,,,,,,,,,,,,m,,,,,,,,,,,,,,,,97,0,549.079,550.5444,z,0,1.4551,,[],[],[],[],[],[],[],550.5444,552.5443,552.5443,552.5445,[],[],[],[],[],[],[],,552.5445,552.5447,0.283928467,-0.32359755,0,0,0,,0,96,96,124,1,4,word,NUMERICAL,cursive,numerical_c.png,,,,,
,,,,32034,001,2025-10-16_21h19.19.033,HW_LDT_1,2024.2.4,MacIntel,59.52380952,,,,,,,,,,,,,,,,,,,,,552.5457,552.7451,552.7452,553.2452,,,,,,,,,,,,,,1.0989,1,,,,,,,,,,,,,,m,,,,,,,,,,,,,,,,98,0,553.2457,554.3453,m,1,1.0989,,[],[],[],[],[],[],[],554.3454,556.3452,556.3453,556.3455,[],[],[],[],[],[],[],,556.3455,556.3456,0.283928467,-0.32359755,0,0,0,,0,97,97,148,1,4,word,SALINE,print,saline_p.png,,,,,
,,,,32034,001,2025-10-16_21h19.19.033,HW_LDT_1,2024.2.4,MacIntel,59.52380952,,,,,,,,,,,,,,,,,,,,,556.3466,556.5452,556.5452,557.0452,,,,,,,,,,,,,,0.8387,1,,,,,,,,,,,,,,z,,,,,,,,,,,,,,,,99,0,557.0457,557.8953,z,1,0.8387,,[],[],[],[],[],[],[],557.8954,559.8951,559.8952,559.8954,[],[],[],[],[],[],[],,559.8955,559.8955,0.283928467,-0.32359755,0,0,0,,0,98,98,62,1,4,TL,locigal,print,locigal_p.png,,,,,
,,,,32034,001,2025-10-16_21h19.19.033,HW_LDT_1,2024.2.4,MacIntel,59.52380952,,,,,,,,,,,,,,,,,,,,,559.8965,560.0952,560.0953,560.5952,,,,,,,,,,,,,,0.6884,0,,,,,,,,,,,,,,m,,,,,,,,,,,,,,,,100,0,560.5957,561.2952,z,0,0.6884,,[],[],[],[],[],[],[],561.2954,563.2952,563.2952,563.2953,[],[],[],[],[],[],[],,563.2955,563.2955,0.283928467,-0.32359755,0,0,0,,0,99,99,81,1,4,word,ADVISORY,cursive,advisory_c.png,,,,,
,,,,32034,001,2025-10-16_21h19.19.033,HW_LDT_1,2024.2.4,MacIntel,59.52380952,,,,,,,,,,,,,,,,,,,,,563.2965,563.4951,563.4952,563.9952,,,,,,,,,,,,,,0.9656,1,,,,,,,,,,,,,,z,,,,,,,,,,,,,,,,101,0,563.9958,564.9621,z,1,0.9656,,[],[],[],[],[],[],[],564.9622,566.9618,566.9618,566.962,[],[],[],[],[],[],[],,566.9621,566.9622,0.283928467,-0.32359755,0,0,0,,0,100,100,18,1,4,RL,disluge,print,disluge_p.png,,,,,
,,,,32034,001,2025-10-16_21h19.19.033,HW_LDT_1,2024.2.4,MacIntel,59.52380952,,,,,,,,,,,,,,,,,,,,,566.9631,567.1618,567.1618,567.6618,,,,,,,,,,,,,,0.9243,1,,,,,,,,,,,,,,z,,,,,,,,,,,,,,,,102,0,567.6624,568.5952,z,1,0.9243,,[],[],[],[],[],[],[],568.5952,570.5952,570.5953,570.5954,[],[],[],[],[],[],[],,570.5954,570.5955,0.283928467,-0.32359755,0,0,0,,0,101,101,65,1,4,TL,orepator,print,orepator_p.png,,,,,
,,,,32034,001,2025-10-16_21h19.19.033,HW_LDT_1,2024.2.4,MacIntel,59.52380952,,,,,,,,,,,,,,,,,,,,,570.5965,570.7951,570.7952,571.2951,,,,,,,,,,,,,,0.839,1,,,,,,,,,,,,,,z,,,,,,,,,,,,,,,,103,1,571.2956,572.1452,z,1,0.839,,[],[],[],[],[],[],[],572.1453,574.145,574.1452,576.5953,[],[],[],[],[],[],[],m,576.5953,576.5955,0.283928467,-0.32359755,0,0,0,,0,102,102,70,1,4,TL,quatily,print,quatily_p.png,2.4408,,,,
,,,,32034,001,2025-10-16_21h19.19.033,HW_LDT_1,2024.2.4,MacIntel,59.52380952,,,,,,,,,,,,,,,,,,,,,576.5965,576.7951,576.7951,577.2952,,,,,,,,,,,,,,1.007,1,,,,,,,,,,,,,,m,,,,,,,,,,,,,,,,104,0,577.2956,578.3118,m,1,1.007,,[],[],[],[],[],[],[],578.3119,580.3118,580.3118,580.3121,[],[],[],[],[],[],[],,580.3121,580.3122,0.283928467,-0.32359755,0,0,0,,0,103,103,128,1,4,word,PACIFIC,cursive,pacific_c.png,,,,,
,,,,32034,001,2025-10-16_21h19.19.033,HW_LDT_1,2024.2.4,MacIntel,59.52380952,,,,,,,,,,,,,,,,,,,,,580.3132,580.5118,580.5118,581.0118,,,,,,,,,,,,,,1.1376,1,,,,,,,,,,,,,,m,,,,,,,,,,,,,,,,105,0,581.0123,582.1619,m,1,1.1376,,[],[],[],[],[],[],[],582.162,584.1618,584.1618,584.162,[],[],[],[],[],[],[],,584.1621,584.1622,0.283928467,-0.32359755,0,0,0,,0,104,104,103,1,4,word,DISPUTE,print,dispute_p.png,,,,,
,,,,32034,001,2025-10-16_21h19.19.033,HW_LDT_1,2024.2.4,MacIntel,59.52380952,,,,,,,,,,,,,,,,,,,,,584.1632,584.3618,584.3618,584.8618,,,,,,,,,,,,,,1.0989,0,,,,,,,,,,,,,,m,,,,,,,,,,,,,,,,106,0,584.8623,585.962,z,0,1.0989,,[],[],[],[],[],[],[],585.9621,587.9618,587.9618,587.9621,[],[],[],[],[],[],[],,587.9621,587.9621,0.283928467,-0.32359755,0,0,0,,0,105,105,85,1,4,word,BENEFIT,cursive,benefit_c.png,,,,,
,,,,32034,001,2025-10-16_21h19.19.033,HW_LDT_1,2024.2.4,MacIntel,59.52380952,,,,,,,,,,,,,,,,,,,,,587.9631,588.1618,588.1618,588.6618,,,,,,,,,,,,,,1.5383,1,,,,,,,,,,,,,,z,,,,,,,,,,,,,,,,107,0,588.6623,590.2119,z,1,1.5383,,[],[],[],[],[],[],[],590.212,592.2117,592.2118,592.212,[],[],[],[],[],[],[],,592.212,592.2121,0.283928467,-0.32359755,0,0,0,,0,106,106,74,1,4,TL,rerite,print,rerite_p.png,,,,,
,,,,32034,001,2025-10-16_21h19.19.033,HW_LDT_1,2024.2.4,MacIntel,59.52380952,,,,,,,,,,,,,,,,,,,,,592.2131,592.4117,592.4118,592.9117,,,,,,,,,,,,,,0.7407,1,,,,,,,,,,,,,,z,,,,,,,,,,,,,,,,108,1,592.9123,593.6618,z,1,0.7407,,[],[],[],[],[],[],[],593.6619,595.6618,595.6619,598.7285,[],[],[],[],[],[],[],m,598.7287,598.7288,0.283928467,-0.32359755,0,0,0,,0,107,107,5,1,4,RL,bebine,print,bebine_p.png,3.0558,0.0098,,,
,,,,32034,001,2025-10-16_21h19.19.033,HW_LDT_1,2024.2.4,MacIntel,59.52380952,,,,,,,,,,,,,,,,,,,,,598.7297,598.9284,598.9284,599.4284,,,,,,,,,,,,,,3.3384,1,,,,,,,,,,,,,,z,,,,,,,,,,,,,,,,109,0,599.4289,602.7777,z,1,3.3384,,[],[],[],[],[],[],[],602.7778,604.7784,604.7784,604.7786,[],[],[],[],[],[],[],,604.7787,604.7787,0.283928467,-0.32359755,0,0,0,,0,108,108,32,1,4,RL,patisic,cursive,patisic_c.png,,,,,
,,,,32034,001,2025-10-16_21h19.19.033,HW_LDT_1,2024.2.4,MacIntel,59.52380952,,,,,,,,,,,,,,,,,,,,,604.7795,604.9785,604.9785,605.4784,,,,,,,,,,,,,,1.5215,1,,,,,,,,,,,,,,m,,,,,,,,,,,,,,,,110,0,605.4789,607.0118,m,1,1.5215,,[],[],[],[],[],[],[],607.0119,609.0118,609.0119,609.0121,[],[],[],[],[],[],[],,609.0122,609.0123,0.283928467,-0.32359755,0,0,0,,0,109,109,151,1,4,word,SPECIFIC,cursive,specific_c.png,,,,,
,,,,32034,001,2025-10-16_21h19.19.033,HW_LDT_1,2024.2.4,MacIntel,59.52380952,,,,,,,,,,,,,,,,,,,,,609.0133,609.2117,609.2118,609.7118,,,,,,,,,,,,,,0.9654,0,,,,,,,,,,,,,,m,,,,,,,,,,,,,,,,111,0,609.7123,610.6783,z,0,0.9654,,[],[],[],[],[],[],[],610.6784,612.6784,612.6785,612.6787,[],[],[],[],[],[],[],,612.6787,612.6787,0.283928467,-0.32359755,0,0,0,,0,110,110,99,1,4,word,DEBATE,cursive,debate_c.png,,,,,
,,,,32034,001,2025-10-16_21h19.19.033,HW_LDT_1,2024.2.4,MacIntel,59.52380952,,,,,,,,,,,,,,,,,,,,,612.6798,612.8784,612.8785,613.3784,,,,,,,,,,,,,,1.3717,1,,,,,,,,,,,,,,z,,,,,,,,,,,,,,,,112,0,613.3788,614.762,z,1,1.3717,,[],[],[],[],[],[],[],614.7621,616.7617,616.7618,616.7621,[],[],[],[],[],[],[],,616.7622,616.7622,0.283928467,-0.32359755,0,0,0,,0,111,111,12,1,4,RL,conbicer,cursive,conbicer_c.png,,,,,
,,,,32034,001,2025-10-16_21h19.19.033,HW_LDT_1,2024.2.4,MacIntel,59.52380952,,,,,,,,,,,,,,,,,,,,,616.7633,616.9616,616.9617,617.4617,,,,,,,,,,,,,,0.6716,1,,,,,,,,,,,,,,m,,,,,,,,,,,,,,,,113,0,617.4622,618.1451,m,1,0.6716,,[],[],[],[],[],[],[],618.1452,620.1451,620.1451,620.1453,[],[],[],[],[],[],[],,620.1453,620.1454,0.283928467,-0.32359755,0,0,0,,0,112,112,88,1,4,word,CAMERA,print,camera_p.png,,,,,
,,,,32034,001,2025-10-16_21h19.19.033,HW_LDT_1,2024.2.4,MacIntel,59.52380952,,,,,,,,,,,,,,,,,,,,,620.1467,620.3451,620.3451,620.845,,,,,,,,,,,,,,1.0045,0,,,,,,,,,,,,,,m,,,,,,,,,,,,,,,,114,0,620.8455,621.8618,z,0,1.0045,,[],[],[],[],[],[],[],621.8619,623.8617,623.8618,623.8619,[],[],[],[],[],[],[],,623.8619,623.862,0.283928467,-0.32359755,0,0,0,,0,113,113,83,1,4,word,ANIMAL,cursive,animal_c.png,,,,,
,,,,32034,001,2025-10-16_21h19.19.033,HW_LDT_1,2024.2.4,MacIntel,59.52380952,,,,,,,,,,,,,,,,,,,,,623.863,624.0617,624.0618,624.5617,,,,,,,,,,,,,,1.2383,1,,,,,,,,,,,,,,m,,,,,,,,,,,,,,,,115,0,624.5622,625.8118,m,1,1.2383,,[],[],[],[],[],[],[],625.8118,627.8116,627.8118,627.8119,[],[],[],[],[],[],[],,627.8119,627.812,0.283928467,-0.32359755,0,0,0,,0,114,114,150,1,4,word,SENTIMENT,print,sentiment_p.png,,,,,
,,,,32034,001,2025-10-16_21h19.19.033,HW_LDT_1,2024.2.4,MacIntel,59.52380952,,,,,,,,,,,,,,,,,,,,,627.813,628.0117,628.0117,628.5116,,,,,,,,,,,,,,0.8083,1,,,,,,,,,,,,,,m,,,,,,,,,,,,,,,,116,0,628.5122,629.3284,m,1,0.8083,,[],[],[],[],[],[],[],629.3285,631.3284,631.3284,631.3285,[],[],[],[],[],[],[],,631.3286,631.3286,0.283928467,-0.32359755,0,0,0,,0,115,115,94,1,4,word,CLINICAL,print,clinical_p.png,,,,,
,,,,32034,001,2025-10-16_21h19.19.033,HW_LDT_1,2024.2.4,MacIntel,59.52380952,,,,,,,,,,,,,,,,,,,,,631.3297,631.5283,631.5283,632.0283,,,,,,,,,,,,,,1.388,1,,,,,,,,,,,,,,m,,,,,,,,,,,,,,,,117,0,632.0288,633.4284,m,1,1.388,,[],[],[],[],[],[],[],633.4285,635.4283,635.4283,635.4285,[],[],[],[],[],[],[],,635.4286,635.4287,0.283928467,-0.32359755,0,0,0,,0,116,116,118,1,4,word,MEDICINE,cursive,medicine_c.png,,,,,
,,,,32034,001,2025-10-16_21h19.19.033,HW_LDT_1,2024.2.4,MacIntel,59.52380952,,,,,,,,,,,,,,,,,,,,,635.4297,635.6282,635.6283,636.1283,,,,,,,,,,,,,,0.9387,1,,,,,,,,,,,,,,m,,,,,,,,,,,,,,,,118,0,636.1289,637.0784,m,1,0.9387,,[],[],[],[],[],[],[],637.0786,639.0783,639.0784,639.0785,[],[],[],[],[],[],[],,639.0786,639.0786,0.283928467,-0.32359755,0,0,0,,0,117,117,123,1,4,word,MODERATE,print,moderate_p.png,,,,,
,,,,32034,001,2025-10-16_21h19.19.033,HW_LDT_1,2024.2.4,MacIntel,59.52380952,,,,,,,,,,,,,,,,,,,,,639.0797,639.2782,639.2783,639.7783,,,,,,,,,,,,,,1.5219,1,,,,,,,,,,,,,,z,,,,,,,,,,,,,,,,119,1,639.7788,641.311,z,1,1.5219,,[],[],[],[],[],[],[],641.3111,643.3116,643.3117,645.0949,[],[],[],[],[],[],[],z,645.0949,645.0951,0.283928467,-0.32359755,0,0,0,,0,118,118,45,1,4,RL,spetisic,cursive,spetisic_c.png,1.7828,,,,
,,,,32034,001,2025-10-16_21h19.19.033,HW_LDT_1,2024.2.4,MacIntel,59.52380952,,,,,,,,,,,,,,,,,,,,,645.096,645.2949,645.295,645.7949,,,,,,,,,,,,,,1.4888,1,,,,,,,,,,,,,,z,,,,,,,,,,,,,,,,120,0,645.7954,647.2951,z,1,1.4888,,[],[],[],[],[],[],[],647.2951,649.2949,649.295,649.2951,[],[],[],[],[],[],[],,649.2952,649.2953,0.283928467,-0.32359755,0,0,0,,0,119,119,26,1,4,RL,mesibine,cursive,mesibine_c.png,,,,,
,,,,32034,001,2025-10-16_21h19.19.033,HW_LDT_1,2024.2.4,MacIntel,59.52380952,,,,,,,,,,,,,,,,,,,,,649.2963,649.4949,649.4949,649.9949,,,,,,,,,,,,,,0.9217,1,,,,,,,,,,,,,,m,,,,,,,,,,,,,,,,121,0,649.9955,650.9284,m,1,0.9217,,[],[],[],[],[],[],[],650.9284,652.9282,652.9284,652.9285,[],[],[],[],[],[],[],,652.9285,652.9286,0.283928467,-0.32359755,0,0,0,,0,120,120,89,1,4,word,CAPACITY,cursive,capacity_c.png,,,,,
,,,,32034,001,2025-10-16_21h19.19.033,HW_LDT_1,2024.2.4,MacIntel,59.52380952,,,,,,,,,,,,,,,,,,,,,652.9296,653.1283,653.1283,653.6283,,,,,,,,,,,,,,0.905,1,,,,,,,,,,,,,,z,,,,,,,,,,,,,,,,122,0,653.6288,654.545,z,1,0.905,,[],[],[],[],[],[],[],654.5452,656.5449,656.545,656.5452,[],[],[],[],[],[],[],,656.5453,656.5453,0.283928467,-0.32359755,0,0,0,,0,121,121,61,1,4,TL,lotace,cursive,lotace_c.png,,,,,
,,,,32034,001,2025-10-16_21h19.19.033,HW_LDT_1,2024.2.4,MacIntel,59.52380952,,,,,,,,,,,,,,,,,,,,,656.5464,656.7449,656.745,657.245,,,,,,,,,,,,,,1.4549,1,,,,,,,,,,,,,,m,,,,,,,,,,,,,,,,123,0,657.2455,658.7118,m,1,1.4549,,[],[],[],[],[],[],[],658.7118,660.7116,660.7116,660.7118,[],[],[],[],[],[],[],,660.7118,660.712,0.283928467,-0.32359755,0,0,0,,0,122,122,152,1,4,word,SPECIMEN,cursive,specimen_c.png,,,,,
,,,,32034,001,2025-10-16_21h19.19.033,HW_LDT_1,2024.2.4,MacIntel,59.52380952,,,,,,,,,,,,,,,,,,,,,660.713,660.9116,660.9117,661.4117,,,,,,,,,,,,,,1.807,0,,,,,,,,,,,,,,z,,,,,,,,,,,,,,,,124,0,661.4121,663.2283,m,0,1.807,,[],[],[],[],[],[],[],663.2284,665.2283,665.2284,665.2286,[],[],[],[],[],[],[],,665.2286,665.2287,0.283928467,-0.32359755,0,0,0,,0,123,123,75,1,4,TL,sanile,print,sanile_p.png,,,,,
,,,,32034,001,2025-10-16_21h19.19.033,HW_LDT_1,2024.2.4,MacIntel,59.52380952,,,,,,,,,,,,,,,,,,,,,665.2298,665.4283,665.4283,665.9282,,,,,,,,,,,,,,0.838,1,,,,,,,,,,,,,,m,,,,,,,,,,,,,,,,125,0,665.9287,666.7784,m,1,0.838,,[],[],[],[],[],[],[],666.7785,668.7782,668.7782,668.7784,[],[],[],[],[],[],[],,668.7784,668.7786,0.283928467,-0.32359755,0,0,0,,0,124,124,132,1,4,word,PROPOSAL,print,proposal_p.png,,,,,
,,,,32034,001,2025-10-16_21h19.19.033,HW_LDT_1,2024.2.4,MacIntel,59.52380952,,,,,,,,,,,,,,,,,,,,,668.7797,668.9783,668.9783,669.4782,,,,,,,,,,,,,,2.3885,0,,,,,,,,,,,,,,m,,,,,,,,,,,,,,,,126,0,669.4788,671.8783,z,0,2.3885,,[],[],[],[],[],[],[],671.8784,673.8782,673.8783,673.8784,[],[],[],[],[],[],[],,673.8785,673.8785,0.283928467,-0.32359755,0,0,0,,0,125,125,101,1,4,word,DELICATE,cursive,delicate_c.png,,,,,
,,,,32034,001,2025-10-16_21h19.19.033,HW_LDT_1,2024.2.4,MacIntel,59.52380952,,,,,,,,,,,,,,,,,,,,,673.8795,674.0782,674.0782,674.5782,,,,,,,,,,,,,,0.8563,1,,,,,,,,,,,,,,z,,,,,,,,,,,,,,,,127,0,674.5788,675.445,z,1,0.8563,,[],[],[],[],[],[],[],675.445,677.445,677.445,677.4452,[],[],[],[],[],[],[],,677.4453,677.4454,0.283928467,-0.32359755,0,0,0,,0,126,126,15,1,4,RL,debave,cursive,debave_c.png,,,,,
,,,,32034,001,2025-10-16_21h19.19.033,HW_LDT_1,2024.2.4,MacIntel,59.52380952,,,,,,,,,,,,,,,,,,,,,677.4465,677.6449,677.6449,678.1449,,,,,,,,,,,,,,0.9383,0,,,,,,,,,,,,,,m,,,,,,,,,,,,,,,,128,0,678.1453,679.0949,z,0,0.9383,,[],[],[],[],[],[],[],679.0951,681.095,681.095,681.0952,[],[],[],[],[],[],[],,681.0952,681.0953,0.283928467,-0.32359755,0,0,0,,0,127,127,102,1,4,word,DENSITY,cursive,density_c.png,,,,,
,,,,32034,001,2025-10-16_21h19.19.033,HW_LDT_1,2024.2.4,MacIntel,59.52380952,,,,,,,,,,,,,,,,,,,,,681.0964,681.2948,681.2949,681.7949,,,,,,,,,,,,,,0.8383,0,,,,,,,,,,,,,,m,,,,,,,,,,,,,,,,129,0,681.7955,682.645,z,0,0.8383,,[],[],[],[],[],[],[],682.6451,684.6449,684.645,684.6451,[],[],[],[],[],[],[],,684.6452,684.6453,0.283928467,-0.32359755,0,0,0,,0,128,128,87,1,4,word,CAFETERIA,cursive,cafeteria_c.png,,,,,
,,,,32034,001,2025-10-16_21h19.19.033,HW_LDT_1,2024.2.4,MacIntel,59.52380952,,,,,,,,,,,,,,,,,,,,,684.6464,684.8449,684.8449,685.3448,,,,,,,,,,,,,,1.0721,1,,,,,,,,,,,,,,z,,,,,,,,,,,,,,,,130,1,685.3453,686.4283,z,1,1.0721,,[],[],[],[],[],[],[],686.4284,688.4282,688.4283,690.6282,[],[],[],[],[],[],[],z,690.6283,690.6284,0.283928467,-0.32359755,0,0,0,,0,129,129,23,1,4,RL,linefal,cursive,linefal_c.png,2.1889,,,,
,,,,32034,001,2025-10-16_21h19.19.033,HW_LDT_1,2024.2.4,MacIntel,59.52380952,,,,,,,,,,,,,,,,,,,,,690.6295,690.8283,690.8283,691.3282,,,,,,,,,,,,,,6.5901,1,,,,,,,,,,,,,,m,,,,,,,,,,,,,,,,131,0,691.3287,697.9283,m,1,6.5901,,[],[],[],[],[],[],[],697.9283,699.9282,699.9282,699.9284,[],[],[],[],[],[],[],,699.9284,699.9285,0.283928467,-0.32359755,0,0,0,,0,130,130,115,1,4,word,LOGICAL,print,logical_p.png,,,,,
,,,,32034,001,2025-10-16_21h19.19.033,HW_LDT_1,2024.2.4,MacIntel,59.52380952,,,,,,,,,,,,,,,,,,,,,699.9297,700.1282,700.1283,700.6275,,,,,,,,,,,,,,0.9244,1,,,,,,,,,,,,,,z,,,,,,,,,,,,,,,,132,0,700.6282,701.561,z,1,0.9244,,[],[],[],[],[],[],[],701.5611,703.5615,703.5615,703.5617,[],[],[],[],[],[],[],,703.5618,703.5618,0.283928467,-0.32359755,0,0,0,,0,131,131,17,1,4,RL,denficy,cursive,denficy_c.png,,,,,
,,,,32034,001,2025-10-16_21h19.19.033,HW_LDT_1,2024.2.4,MacIntel,59.52380952,,,,,,,,,,,,,,,,,,,,,703.563,703.7615,703.7616,704.2615,,,,,,,,,,,,,,0.6554,0,,,,,,,,,,,,,,m,,,,,,,,,,,,,,,,133,0,704.262,704.9284,z,0,0.6554,,[],[],[],[],[],[],[],704.9284,706.9282,706.9283,706.9284,[],[],[],[],[],[],[],,706.9284,706.9285,0.283928467,-0.32359755,0,0,0,,0,132,132,138,1,4,word,REFUSAL,cursive,refusal_c.png,,,,,
,,,,32034,001,2025-10-16_21h19.19.033,HW_LDT_1,2024.2.4,MacIntel,59.52380952,,,,,,,,,,,,,,,,,,,,,706.9295,707.1282,707.1282,707.6282,,,,,,,,,,,,,,2.1384,0,,,,,,,,,,,,,,z,,,,,,,,,,,,,,,,134,0,707.6286,709.7782,m,0,2.1384,,[],[],[],[],[],[],[],709.7784,711.7781,711.7782,711.7783,[],[],[],[],[],[],[],,711.7784,711.7785,0.283928467,-0.32359755,0,0,0,,0,133,133,56,1,4,TL,donimant,cursive,donimant_c.png,,,,,
,,,,32034,001,2025-10-16_21h19.19.033,HW_LDT_1,2024.2.4,MacIntel,59.52380952,,,,,,,,,,,,,,,,,,,,,711.7796,711.9781,711.9781,712.4782,,,,,,,,,,,,,,2.813,1,,,,,,,,,,,,,,z,,,,,,,,,,,,,,,,135,1,712.4787,715.2947,z,1,2.813,,[],[],[],[],[],[],[],715.2948,717.2947,717.2948,720.9782,[],[],[],[],[],[],[],z,720.9783,720.9783,0.283928467,-0.32359755,0,0,0,,0,134,134,50,1,4,RL,vecelan,cursive,vecelan_c.png,3.673,,,,
,,,,32034,001,2025-10-16_21h19.19.033,HW_LDT_1,2024.2.4,MacIntel,59.52380952,,,,,,,,,,,,,,,,,,,,,720.9794,721.1781,721.1782,721.6781,,,,,,,,,,,,,,1.7054,1,,,,,,,,,,,,,,m,,,,,,,,,,,,,,,,136,0,721.6786,723.3949,m,1,1.7054,,[],[],[],[],[],[],[],723.3949,725.3948,725.3948,725.395,[],[],[],[],[],[],[],,725.395,725.3951,0.283928467,-0.32359755,0,0,0,,0,135,135,109,1,4,word,GRATEFUL,print,grateful_p.png,,,,,
,,,,32034,001,2025-10-16_21h19.19.033,HW_LDT_1,2024.2.4,MacIntel,59.52380952,,,,,,,,,,,,,,,,,,,,,725.396,725.5948,725.5949,726.0948,,,,,,,,,,,,,,1.3049,1,,,,,,,,,,,,,,z,,,,,,,,,,,,,,,,137,0,726.0954,727.4116,z,1,1.3049,,[],[],[],[],[],[],[],727.4118,729.4114,729.4115,729.4116,[],[],[],[],[],[],[],,729.4116,729.4118,0.283928467,-0.32359755,0,0,0,,0,136,136,20,1,4,RL,gralekul,print,gralekul_p.png,,,,,
,,,,32034,001,2025-10-16_21h19.19.033,HW_LDT_1,2024.2.4,MacIntel,59.52380952,,,,,,,,,,,,,,,,,,,,,729.4127,729.6114,729.6115,730.1114,,,,,,,,,,,,,,1.305,1,,,,,,,,,,,,,,m,,,,,,,,,,,,,,,,138,0,730.1119,731.4282,m,1,1.305,,[],[],[],[],[],[],[],731.4283,733.4281,733.4281,733.4282,[],[],[],[],[],[],[],,733.4283,733.4284,0.283928467,-0.32359755,0,0,0,,0,137,137,154,1,4,word,STORAGE,print,storage_p.png,,,,,
,,,,32034,001,2025-10-16_21h19.19.033,HW_LDT_1,2024.2.4,MacIntel,59.52380952,,,,,,,,,,,,,,,,,,,,,733.4294,733.6281,733.6281,734.128,,,,,,,,,,,,,,0.9218,1,,,,,,,,,,,,,,m,,,,,,,,,,,,,,,,139,0,734.1286,735.0608,m,1,0.9218,,[],[],[],[],[],[],[],735.0609,737.0613,737.0613,737.0615,[],[],[],[],[],[],[],,737.0615,737.0616,0.283928467,-0.32359755,0,0,0,,0,138,138,125,1,4,word,OPERATOR,print,operator_p.png,,,,,
,,,,32034,001,2025-10-16_21h19.19.033,HW_LDT_1,2024.2.4,MacIntel,59.52380952,,,,,,,,,,,,,,,,,,,,,737.0622,737.2614,737.2615,737.7615,,,,,,,,,,,,,,1.2881,1,,,,,,,,,,,,,,z,,,,,,,,,,,,,,,,140,0,737.762,739.0615,z,1,1.2881,,[],[],[],[],[],[],[],739.0616,741.0614,741.0614,741.0616,[],[],[],[],[],[],[],,741.0617,741.0618,0.283928467,-0.32359755,0,0,0,,0,139,139,46,1,4,RL,skofen,cursive,skofen_c.png,,,,,
,,,,32034,001,2025-10-16_21h19.19.033,HW_LDT_1,2024.2.4,MacIntel,59.52380952,,,,,,,,,,,,,,,,,,,,,741.0628,741.2615,741.2615,741.7613,,,,,,,,,,,,,,0.7403,1,,,,,,,,,,,,,,m,,,,,,,,,,,,,,,,141,0,741.7619,742.5115,m,1,0.7403,,[],[],[],[],[],[],[],742.5117,744.5114,744.5114,744.5116,[],[],[],[],[],[],[],,744.5116,744.5117,0.283928467,-0.32359755,0,0,0,,0,140,140,90,1,4,word,CAPITAL,print,capital_p.png,,,,,
,,,,32034,001,2025-10-16_21h19.19.033,HW_LDT_1,2024.2.4,MacIntel,59.52380952,,,,,,,,,,,,,,,,,,,,,744.5127,744.7114,744.7114,745.2114,,,,,,,,,,,,,,1.399,1,,,,,,,,,,,,,,z,,,,,,,,,,,,,,,,142,0,745.212,746.6116,z,1,1.399,,[],[],[],[],[],[],[],746.6117,748.6114,748.6115,748.6116,[],[],[],[],[],[],[],,748.6117,748.6117,0.283928467,-0.32359755,0,0,0,,0,141,141,28,1,4,RL,mifikary,print,mifikary_p.png,,,,,
,,,,32034,001,2025-10-16_21h19.19.033,HW_LDT_1,2024.2.4,MacIntel,59.52380952,,,,,,,,,,,,,,,,,,,,,748.6127,748.8114,748.8114,749.3114,,,,,,,,,,,,,,1.6822,1,,,,,,,,,,,,,,m,,,,,,,,,,,,,,,,143,0,749.3119,750.9948,m,1,1.6822,,[],[],[],[],[],[],[],750.9948,752.9947,752.9948,752.995,[],[],[],[],[],[],[],,752.995,752.9951,0.283928467,-0.32359755,0,0,0,,0,142,142,141,1,4,word,RELIGION,print,religion_p.png,,,,,
,,,,32034,001,2025-10-16_21h19.19.033,HW_LDT_1,2024.2.4,MacIntel,59.52380952,,,,,,,,,,,,,,,,,,,,,752.9962,753.1947,753.1947,753.6947,,,,,,,,,,,,,,2.465,1,,,,,,,,,,,,,,m,,,,,,,,,,,,,,,,144,0,753.6952,756.1613,m,1,2.465,,[],[],[],[],[],[],[],756.1613,758.1613,758.1613,758.1616,[],[],[],[],[],[],[],,758.1616,758.1617,0.283928467,-0.32359755,0,0,0,,0,143,143,159,1,4,word,VETERAN,cursive,veteran_c.png,,,,,
,,,,32034,001,2025-10-16_21h19.19.033,HW_LDT_1,2024.2.4,MacIntel,59.52380952,,,,,,,,,,,,,,,,,,,,,758.1626,758.3614,758.3614,758.8613,,,,,,,,,,,,,,1.2384,1,,,,,,,,,,,,,,z,,,,,,,,,,,,,,,,145,0,758.8618,760.1115,z,1,1.2384,,[],[],[],[],[],[],[],760.1116,762.1113,762.1114,762.1116,[],[],[],[],[],[],[],,762.1116,762.1116,0.283928467,-0.32359755,0,0,0,,0,144,144,21,1,4,RL,insibate,print,insibate_p.png,,,,,
,,,,32034,001,2025-10-16_21h19.19.033,HW_LDT_1,2024.2.4,MacIntel,59.52380952,,,,,,,,,,,,,,,,,,,,,762.1127,762.3114,762.3114,762.8114,,,,,,,,,,,,,,1.0213,1,,,,,,,,,,,,,,z,,,,,,,,,,,,,,,,146,0,762.8119,763.8448,z,1,1.0213,,[],[],[],[],[],[],[],763.8449,765.8447,765.8448,765.845,[],[],[],[],[],[],[],,765.845,765.8451,0.283928467,-0.32359755,0,0,0,,0,145,145,3,1,4,RL,bewoted,print,bewoted_p.png,,,,,
,,,,32034,001,2025-10-16_21h19.19.033,HW_LDT_1,2024.2.4,MacIntel,59.52380952,,,,,,,,,,,,,,,,,,,,,765.846,766.0447,766.0448,766.5447,,,,,,,,,,,,,,1.281,1,,,,,,,,,,,,,,z,,,,,,,,,,,,,,,,147,0,766.5452,767.828,z,1,1.281,,[],[],[],[],[],[],[],767.828,769.8279,769.828,769.8282,[],[],[],[],[],[],[],,769.8282,769.8283,0.283928467,-0.32359755,0,0,0,,0,146,146,68,1,4,TL,prosopal,print,prosopal_p.png,,,,,
,,,,32034,001,2025-10-16_21h19.19.033,HW_LDT_1,2024.2.4,MacIntel,59.52380952,,,,,,,,,,,,,,,,,,,,,769.8293,770.028,770.028,770.528,,,,,,,,,,,,,,0.7217,1,,,,,,,,,,,,,,z,,,,,,,,,,,,,,,,148,0,770.5285,771.2614,z,1,0.7217,,[],[],[],[],[],[],[],771.2615,773.2613,773.2613,773.2615,[],[],[],[],[],[],[],,773.2615,773.2616,0.283928467,-0.32359755,0,0,0,,0,147,147,9,1,4,RL,cafigal,print,cafigal_p.png,,,,,
,,,,32034,001,2025-10-16_21h19.19.033,HW_LDT_1,2024.2.4,MacIntel,59.52380952,,,,,,,,,,,,,,,,,,,,,773.2627,773.4613,773.4614,773.9614,,,,,,,,,,,,,,1.0883,1,,,,,,,,,,,,,,z,,,,,,,,,,,,,,,,149,1,773.9619,775.0614,z,1,1.0883,,[],[],[],[],[],[],[],775.0615,777.0614,777.0614,779.327,[],[],[],[],[],[],[],z,779.3271,779.3272,0.283928467,-0.32359755,0,0,0,,0,148,148,43,1,4,RL,rovastic,print,rovastic_p.png,2.2568,,,,
,,,,32034,001,2025-10-16_21h19.19.033,HW_LDT_1,2024.2.4,MacIntel,59.52380952,,,,,,,,,,,,,,,,,,,,,779.3282,779.528,779.528,780.028,,,,,,,,,,,,,,4.7218,1,,,,,,,,,,,,,,m,,,,,,,,,,,,,,,,150,0,780.0285,784.7605,m,1,4.7218,,[],[],[],[],[],[],[],784.7605,786.7613,786.7614,786.7615,[],[],[],[],[],[],[],,786.7616,786.7618,0.283928467,-0.32359755,0,0,0,,0,149,149,146,1,4,word,RETIRE,print,retire_p.png,,,,,
,,,,32034,001,2025-10-16_21h19.19.033,HW_LDT_1,2024.2.4,MacIntel,59.52380952,,,,,,,,,,,,,,,,,,,,,786.7629,786.9612,786.9613,787.4613,,,,,,,,,,,,,,1.7048,1,,,,,,,,,,,,,,m,,,,,,,,,,,,,,,,151,1,787.4618,789.178,m,1,1.7048,,[],[],[],[],[],[],[],789.1782,791.178,791.1781,792.378,[],[],[],[],[],[],[],m,792.378,792.3781,0.283928467,-0.32359755,0,0,0,,0,150,150,127,1,4,word,ORIGINAL,print,original_p.png,1.1965,,,,
,,,,32034,001,2025-10-16_21h19.19.033,HW_LDT_1,2024.2.4,MacIntel,59.52380952,,,,,,,,,,,,,,,,,,,,,792.3789,792.578,792.578,793.078,,,,,,,,,,,,,,3.5644,0,,,,,,,,,,,,,,z,,,,,,,,,,,,,,,,152,0,793.0784,796.6446,m,0,3.5644,,[],[],[],[],[],[],[],796.6447,798.6446,798.6446,798.6448,[],[],[],[],[],[],[],,798.6448,798.6449,0.283928467,-0.32359755,0,0,0,,0,151,151,53,1,4,TL,cemerony,print,cemerony_p.png,,,,,
,,,,32034,001,2025-10-16_21h19.19.033,HW_LDT_1,2024.2.4,MacIntel,59.52380952,,,,,,,,,,,,,,,,,,,,,798.6459,798.8437,798.8437,799.3446,,,,,,,,,,,,,,2.282,1,,,,,,,,,,,,,,z,,,,,,,,,,,,,,,,153,1,799.3451,801.6278,z,1,2.282,,[],[],[],[],[],[],[],801.628,803.6279,803.628,804.9783,[],[],[],[],[],[],[],m,804.9783,804.9785,0.283928467,-0.32359755,0,0,0,,0,152,152,0,1,4,RL,abanemy,print,abanemy_p.png,1.3497,,,,
,,,,32034,001,2025-10-16_21h19.19.033,HW_LDT_1,2024.2.4,MacIntel,59.52380952,,,,,,,,,,,,,,,,,,,,,804.9795,805.1779,805.1779,805.6779,,,,,,,,,,,,,,1.3548,1,,,,,,,,,,,,,,m,,,,,,,,,,,,,,,,154,0,805.6784,807.0447,m,1,1.3548,,[],[],[],[],[],[],[],807.0448,809.0446,809.0446,809.0448,[],[],[],[],[],[],[],,809.0449,809.0449,0.283928467,-0.32359755,0,0,0,,0,153,153,100,1,4,word,DECADE,cursive,decade_c.png,,,,,
,,,,32034,001,2025-10-16_21h19.19.033,HW_LDT_1,2024.2.4,MacIntel,59.52380952,,,,,,,,,,,,,,,,,,,,,809.046,809.2446,809.2446,809.7445,,,,,,,,,,,,,,0.8218,1,,,,,,,,,,,,,,z,,,,,,,,,,,,,,,,155,0,809.745,810.578,z,1,0.8218,,[],[],[],[],[],[],[],810.578,812.5779,812.578,812.5782,[],[],[],[],[],[],[],,812.5783,812.5783,0.283928467,-0.32359755,0,0,0,,0,154,154,44,1,4,RL,senvilent,print,senvilent_p.png,,,,,
,,,,32034,001,2025-10-16_21h19.19.033,HW_LDT_1,2024.2.4,MacIntel,59.52380952,,,,,,,,,,,,,,,,,,,,,812.5793,812.7779,812.778,813.2779,,,,,,,,,,,,,,0.6985,1,,,,,,,,,,,,,,z,,,,,,,,,,,,,,,,156,0,813.2784,813.9779,z,1,0.6985,,[],[],[],[],[],[],[],813.9779,815.9779,815.9779,815.9781,[],[],[],[],[],[],[],,815.9782,815.9783,0.283928467,-0.32359755,0,0,0,,0,155,155,29,1,4,RL,motide,print,motide_p.png,,,,,
,,,,32034,001,2025-10-16_21h19.19.033,HW_LDT_1,2024.2.4,MacIntel,59.52380952,,,,,,,,,,,,,,,,,,,,,815.9794,816.1778,816.1779,816.6779,,,,,,,,,,,,,,1.0545,1,,,,,,,,,,,,,,m,,,,,,,,,,,,,,,,157,0,816.6785,817.7447,m,1,1.0545,,[],[],[],[],[],[],[],817.7447,819.7445,819.7446,819.7448,[],[],[],[],[],[],[],,819.7448,819.7448,0.283928467,-0.32359755,0,0,0,,0,156,156,158,1,4,word,VELOCITY,cursive,velocity_c.png,,,,,
,,,,32034,001,2025-10-16_21h19.19.033,HW_LDT_1,2024.2.4,MacIntel,59.52380952,,,,,,,,,,,,,,,,,,,,,819.7458,819.9445,819.9446,820.4445,,,,,,,,,,,,,,1.0216,1,,,,,,,,,,,,,,m,,,,,,,,,,,,,,,,158,0,820.445,821.4779,m,1,1.0216,,[],[],[],[],[],[],[],821.478,823.4778,823.4778,823.478,[],[],[],[],[],[],[],,823.478,823.4782,0.283928467,-0.32359755,0,0,0,,0,157,157,135,1,4,word,QUALITY,print,quality_p.png,,,,,
,,,,32034,001,2025-10-16_21h19.19.033,HW_LDT_1,2024.2.4,MacIntel,59.52380952,,,,,,,,,,,,,,,,,,,,,823.4791,823.6779,823.678,824.1778,,,,,,,,,,,,,,0.8978,0,,,,,,,,,,,,,,m,,,,,,,,,,,,,,,,159,0,824.1784,825.0779,z,0,0.8978,,[],[],[],[],[],[],[],825.078,827.0779,827.0779,827.0781,[],[],[],[],[],[],[],,827.0782,827.0783,0.283928467,-0.32359755,0,0,0,,0,158,158,108,1,4,word,FORTUNE,cursive,fortune_c.png,,,,,
,,,,32034,001,2025-10-16_21h19.19.033,HW_LDT_1,2024.2.4,MacIntel,59.52380952,,,,,,,,,,,,,,,,,,,,,827.0793,827.2779,827.278,827.7778,,,,,,,,,,,,,,2.1883,1,,,,,,,,,,,,,,m,,,,,,,,,,,,,,,,160,0,827.7785,829.9779,m,1,2.1883,,[],[],[],[],[],[],[],829.9781,831.9777,831.9777,831.9779,[],[],[],[],[],[],[],,831.9779,831.9779,0.283928467,-0.32359755,0,0,0,,0,159,159,136,1,4,word,RADICAL,print,radical_p.png,,,,,
,,,,32034,001,2025-10-16_21h19.19.033,HW_LDT_1,2024.2.4,MacIntel,59.52380952,,,,,,,,,,,,,,,,,,,,,,,,,,,,,,,,,,,,,,,,,,,,,,,,,,,,,,,,,,,,,,,,,,,,,,,,,,,,,,,,,,,,,,,,,,,,,,,,,,,,,,,,,,,,,,,,,,,,,831.9782,836.9783
