counterbalance_lists.group,counterbalance_lists.remaining,get_list.started,get_list.stopped,participant,session,date,expName,psychopyVersion,OS,frameRate,Instructions.started,Instructions.stopped,key_resp.keys,instr_done_touch.x,instr_done_touch.y,instr_done_touch.leftButton,instr_done_touch.midButton,instr_done_touch.rightButton,instr_done_touch.clicked_name,start_instr.thisRepN,start_instr.thisTrialN,start_instr.thisN,start_instr.thisIndex,start_instr.ran,pageN,phase,instruct_text,has_image,instruct_image,showProgress.started,showProgress.stopped,fix.started,fix.stopped,prac.started,prac.stopped,response.keys,response.corr,response.rt,response.duration,touch_resp.x,touch_resp.y,touch_resp.leftButton,touch_resp.midButton,touch_resp.rightButton,touch_resp.time,touch_resp.clicked_name,rt,corr,feedback.started,feedback.stopped,trials.thisRepN,trials.thisTrialN,trials.thisN,trials.thisIndex,trials.ran,TrialID,StimulusType,Condition,PrimeDuration,Prime,Target,corrAns,Instructions_expt.started,Instructions_expt.stopped,key_resp_3.keys,instr_done_touch_3.x,instr_done_touch_3.y,instr_done_touch_3.leftButton,instr_done_touch_3.midButton,instr_done_touch_3.rightButton,instr_done_touch_3.clicked_name,instr_experiment.thisRepN,instr_experiment.thisTrialN,instr_experiment.thisN,instr_experiment.thisIndex,instr_experiment.ran,trialID,flag,maintask.started,maintask.stopped,key_resp_2.keys,key_resp_2.corr,key_resp_2.rt,key_resp_2.duration,targ_click.x,targ_click.y,targ_click.leftButton,targ_click.midButton,targ_click.rightButton,targ_click.time,targ_click.clicked_name,ITI.started,ITI.stopped,probe.started,probe.stopped,click_probe.x,click_probe.y,click_probe.leftButton,click_probe.midButton,click_probe.rightButton,click_probe.time,click_probe.clicked_name,key_resp_probe.keys,Break.started,Break.stopped,break_done_touch.x,break_done_touch.y,break_done_touch.leftButton,break_done_touch.midButton,break_done_touch.rightButton,break_done_keyboard.keys,list3_trials.thisRepN,list3_trials.thisTrialN,list3_trials.thisN,list3_trials.thisIndex,list3_trials.ran,list_id,item_type,string,font,stim_file,key_resp_probe.rt,key_resp_probe.duration,break_done_keyboard.rt,break_done_keyboard.duration,End.started,End.stopped
list3,,0.4131,0.4133,32040,001,2025-10-17_12h25.38.877,HW_LDT_1,2024.2.4,MacIntel,29.15451895,,,,,,,,,,,,,,,,,,,,,,,,,,,,,,,,,,,,,,,,,,,,,,,,,,,,,,,,,,,,,,,,,,,,,,,,,,,,,,,,,,,,,,,,,,,,,,,,,,,,,,,,,,,,,,,,,,,,,
,,,,32040,001,2025-10-17_12h25.38.877,HW_LDT_1,2024.2.4,MacIntel,29.15451895,0.4326,3.2979,,0.103453992,-0.423154414,1,0,0,instr_done_button,0,0,0,0,1,1,instructions,"INSTRUCTIONS
At the start of each trial, look at the plus sign  (+) in the center of the screen.  This tells you that a trial is about to begin and where to look. Second, the plus sign will disappear and a string of letters will appear. Your task is to determine if the string of letters is a word or not. If the item is a word press the M key (on keyboard)  or touch the word button (phone/tablet).  If the item is not a word,  press the  Z key (on keyboard)  or touch the nonword button (on phone/tablet). The items will be presented for a short time. 
Press the space bar or touch  continue.",0,,,,,,,,,,,,,,,,,,,,,,,,,,,,,,,,,,,,,,,,,,,,,,,,,,,,,,,,,,,,,,,,,,,,,,,,,,,,,,,,,,,,,,,,,,,,,,,,,,,
,,,,32040,001,2025-10-17_12h25.38.877,HW_LDT_1,2024.2.4,MacIntel,29.15451895,3.2986,3.8979,,0.103453992,-0.423154414,1,0,0,instr_done_button,0,1,1,1,1,2,instructions,"If your device has a keyboard, press the 'Z' key for nonwords and the 'M' key for words.





Press the space bar or touch the button below to continue.",0,keyboard-example.gif,,,,,,,,,,,,,,,,,,,,,,,,,,,,,,,,,,,,,,,,,,,,,,,,,,,,,,,,,,,,,,,,,,,,,,,,,,,,,,,,,,,,,,,,,,,,,,,,,,
,,,,32040,001,2025-10-17_12h25.38.877,HW_LDT_1,2024.2.4,MacIntel,29.15451895,3.8997,4.3647,,0.103453992,-0.423154414,1,0,0,instr_done_button,0,2,2,2,1,3,instructions,"If you are using a touchscreen only device, use the buttons on the screen. Do not use the mouse.





Press the space bar or touch the button below to continue.",0,touchscreen-example.gif,,,,,,,,,,,,,,,,,,,,,,,,,,,,,,,,,,,,,,,,,,,,,,,,,,,,,,,,,,,,,,,,,,,,,,,,,,,,,,,,,,,,,,,,,,,,,,,,,,
,,,,32040,001,2025-10-17_12h25.38.877,HW_LDT_1,2024.2.4,MacIntel,29.15451895,4.3668,6.9654,,0.103453992,-0.423154414,1,0,0,instr_done_button,0,3,3,3,1,4,instructions,"It is very important that you respond as quickly and accurately as possible, as each letter string will only be on the screen for two seconds. If you do not respond within this time, the message 'Too slow!' will be displayed and the experiment will progress to the next letter string. The first 20 trials will be practice trials and you will receive feedback on your answers. 

Press the space bar or touch the button below to start the practice trials.",0,,,,,,,,,,,,,,,,,,,,,,,,,,,,,,,,,,,,,,,,,,,,,,,,,,,,,,,,,,,,,,,,,,,,,,,,,,,,,,,,,,,,,,,,,,,,,,,,,,,
,,,,32040,001,2025-10-17_12h25.38.877,HW_LDT_1,2024.2.4,MacIntel,29.15451895,,,,,,,,,,,,,,,,,,,,6.9907,7.1649,7.1652,7.6651,7.6655,13.8646,m,1,6.1709,,[],[],[],[],[],[],[],6.1709,1,13.8651,14.3649,0,0,0,1,1,1002,WORD,"ID",33,adjust,ADJUST,m,,,,,,,,,,,,,,,,,,,,,,,,,,,,,,,,,,,,,,,,,,,,,,,,,,,,,,,,,,,,,,,,,
,,,,32040,001,2025-10-17_12h25.38.877,HW_LDT_1,2024.2.4,MacIntel,29.15451895,,,,,,,,,,,,,,,,,,,,14.3666,14.5645,14.5645,15.0645,15.0656,16.1313,z,1,1.0442,,[],[],[],[],[],[],[],1.0442,1,16.1315,16.6313,0,1,1,15,1,1016,NW,UN,16,mushed,WHAISE,z,,,,,,,,,,,,,,,,,,,,,,,,,,,,,,,,,,,,,,,,,,,,,,,,,,,,,,,,,,,,,,,,,
,,,,32040,001,2025-10-17_12h25.38.877,HW_LDT_1,2024.2.4,MacIntel,29.15451895,,,,,,,,,,,,,,,,,,,,16.633,16.8313,16.8313,17.3312,17.3324,17.9311,m,1,0.5803,,[],[],[],[],[],[],[],0.5803,1,17.9312,18.4314,0,2,2,7,1,1008,WORD,UN,16,hurdle,VOLUME,m,,,,,,,,,,,,,,,,,,,,,,,,,,,,,,,,,,,,,,,,,,,,,,,,,,,,,,,,,,,,,,,,,
,,,,32040,001,2025-10-17_12h25.38.877,HW_LDT_1,2024.2.4,MacIntel,29.15451895,,,,,,,,,,,,,,,,,,,,18.433,18.6314,18.6314,19.1301,19.1314,19.9967,m,1,0.8317,,[],[],[],[],[],[],[],0.8317,1,19.9969,20.4979,0,3,3,0,1,1001,WORD,"ID",33,utopia,UTOPIA,m,,,,,,,,,,,,,,,,,,,,,,,,,,,,,,,,,,,,,,,,,,,,,,,,,,,,,,,,,,,,,,,,,
,,,,32040,001,2025-10-17_12h25.38.877,HW_LDT_1,2024.2.4,MacIntel,29.15451895,,,,,,,,,,,,,,,,,,,,20.4994,20.6969,20.697,21.1978,21.199,21.8979,m,1,0.6786,,[],[],[],[],[],[],[],0.6786,1,21.8981,22.3976,0,4,4,5,1,1006,WORD,UN,33,frenzy,OBTAIN,m,,,,,,,,,,,,,,,,,,,,,,,,,,,,,,,,,,,,,,,,,,,,,,,,,,,,,,,,,,,,,,,,,
,,,,32040,001,2025-10-17_12h25.38.877,HW_LDT_1,2024.2.4,MacIntel,29.15451895,,,,,,,,,,,,,,,,,,,,22.399,22.5979,22.598,23.0978,23.0991,23.8635,z,1,0.7481,,[],[],[],[],[],[],[],0.7481,1,23.8638,24.3645,0,5,5,8,1,1009,NW,"ID",33,aslert,ASLERT,z,,,,,,,,,,,,,,,,,,,,,,,,,,,,,,,,,,,,,,,,,,,,,,,,,,,,,,,,,,,,,,,,,
,,,,32040,001,2025-10-17_12h25.38.877,HW_LDT_1,2024.2.4,MacIntel,29.15451895,,,,,,,,,,,,,,,,,,,,24.3661,24.5642,24.5643,25.0645,25.0656,26.0313,z,1,0.9388,,[],[],[],[],[],[],[],0.9388,1,26.0315,26.5302,0,6,6,9,1,1010,NW,"ID",33,fariny,FARINY,z,,,,,,,,,,,,,,,,,,,,,,,,,,,,,,,,,,,,,,,,,,,,,,,,,,,,,,,,,,,,,,,,,
,,,,32040,001,2025-10-17_12h25.38.877,HW_LDT_1,2024.2.4,MacIntel,29.15451895,,,,,,,,,,,,,,,,,,,,26.5318,26.7311,26.7312,27.2311,27.2323,28.098,m,1,0.8414,,[],[],[],[],[],[],[],0.8414,1,28.0981,28.5975,0,7,7,4,1,1005,WORD,UN,33,abound,SQUEAK,m,,,,,,,,,,,,,,,,,,,,,,,,,,,,,,,,,,,,,,,,,,,,,,,,,,,,,,,,,,,,,,,,,
,,,,32040,001,2025-10-17_12h25.38.877,HW_LDT_1,2024.2.4,MacIntel,29.15451895,,,,,,,,,,,,,,,,,,,,28.5989,28.7978,28.7978,29.298,29.2989,30.1304,z,1,0.8108,,[],[],[],[],[],[],[],0.8108,1,30.1306,30.6312,0,8,8,12,1,1013,NW,UN,33,adveil,SPRINY,z,,,,,,,,,,,,,,,,,,,,,,,,,,,,,,,,,,,,,,,,,,,,,,,,,,,,,,,,,,,,,,,,,
,,,,32040,001,2025-10-17_12h25.38.877,HW_LDT_1,2024.2.4,MacIntel,29.15451895,,,,,,,,,,,,,,,,,,,,30.633,30.8311,30.8312,31.3311,31.3321,32.2657,m,0,0.9234,,[],[],[],[],[],[],[],0.9234,0,32.2666,32.7635,0,9,9,13,1,1014,NW,UN,33,winfer,ROUPET,z,,,,,,,,,,,,,,,,,,,,,,,,,,,,,,,,,,,,,,,,,,,,,,,,,,,,,,,,,,,,,,,,,
,,,,32040,001,2025-10-17_12h25.38.877,HW_LDT_1,2024.2.4,MacIntel,29.15451895,,,,,,,,,,,,,,,,,,,,32.7647,32.9645,32.9646,33.4644,33.4656,34.1635,m,1,0.6863,,[],[],[],[],[],[],[],0.6863,1,34.1646,34.6645,0,10,10,3,1,1004,WORD,"ID",16,matrix,MATRIX,m,,,,,,,,,,,,,,,,,,,,,,,,,,,,,,,,,,,,,,,,,,,,,,,,,,,,,,,,,,,,,,,,,
,,,,32040,001,2025-10-17_12h25.38.877,HW_LDT_1,2024.2.4,MacIntel,29.15451895,,,,,,,,,,,,,,,,,,,,34.666,34.8635,34.8636,35.3636,35.3647,36.2636,z,1,0.8626,,[],[],[],[],[],[],[],0.8626,1,36.2637,36.7645,0,11,11,14,1,1015,NW,UN,16,miaber,THRALE,z,,,,,,,,,,,,,,,,,,,,,,,,,,,,,,,,,,,,,,,,,,,,,,,,,,,,,,,,,,,,,,,,,
,,,,32040,001,2025-10-17_12h25.38.877,HW_LDT_1,2024.2.4,MacIntel,29.15451895,,,,,,,,,,,,,,,,,,,,36.766,36.9645,36.9646,37.4645,37.4655,38.2312,z,1,0.7403,,[],[],[],[],[],[],[],0.7403,1,38.2314,38.7312,0,12,12,11,1,1012,NW,"ID",16,rashet,RASHET,z,,,,,,,,,,,,,,,,,,,,,,,,,,,,,,,,,,,,,,,,,,,,,,,,,,,,,,,,,,,,,,,,,
,,,,32040,001,2025-10-17_12h25.38.877,HW_LDT_1,2024.2.4,MacIntel,29.15451895,,,,,,,,,,,,,,,,,,,,38.7327,38.9313,38.9313,39.4305,39.4315,40.2978,z,1,0.8301,,[],[],[],[],[],[],[],0.8301,1,40.2981,40.7979,0,13,13,10,1,1011,NW,"ID",16,inlade,INLADE,z,,,,,,,,,,,,,,,,,,,,,,,,,,,,,,,,,,,,,,,,,,,,,,,,,,,,,,,,,,,,,,,,,
,,,,32040,001,2025-10-17_12h25.38.877,HW_LDT_1,2024.2.4,MacIntel,29.15451895,,,,,,,,,,,,,,,,,,,,40.7995,40.9969,40.997,41.4968,41.498,42.2312,m,1,0.7132,,[],[],[],[],[],[],[],0.7132,1,42.2313,42.7305,0,14,14,2,1,1003,WORD,"ID",16,almond,ALMOND,m,,,,,,,,,,,,,,,,,,,,,,,,,,,,,,,,,,,,,,,,,,,,,,,,,,,,,,,,,,,,,,,,,
,,,,32040,001,2025-10-17_12h25.38.877,HW_LDT_1,2024.2.4,MacIntel,29.15451895,,,,,,,,,,,,,,,,,,,,42.7318,42.9301,42.9302,43.4312,43.4323,44.0978,m,1,0.6284,,[],[],[],[],[],[],[],0.6284,1,44.098,44.598,0,15,15,6,1,1007,WORD,UN,16,tropic,ZOMBIE,m,,,,,,,,,,,,,,,,,,,,,,,,,,,,,,,,,,,,,,,,,,,,,,,,,,,,,,,,,,,,,,,,,
,,,,32040,001,2025-10-17_12h25.38.877,HW_LDT_1,2024.2.4,MacIntel,29.15451895,,,,,,,,,,,,,,,1,end_of_practice,"You have completed the practice trials. During the experimental trials, you will not receive feedback. On some trials you will be asked to report whether the item you just saw was in cursive or print. 
Before you begin, please ensure that you are in a comfortable and quiet location and will not be disturbed for about 15 minutes, as we cannot use your data if you do not complete all the trials. 
 When you are ready to start the experimental trials, please press space or touch the button below.",,,,,,,,,,,,,,,,,,,,,,,,,,,,,,,,,,,,44.6049,49.2976,,-0.09508042,-0.386973783,1,0,0,instr_done_button_3,0,0,0,0,1,,,,,,,,,,,,,,,,,,,,,,,,,,,,,,,,,,,,,,,,,,,,,,,,,,,
,,,,32040,001,2025-10-17_12h25.38.877,HW_LDT_1,2024.2.4,MacIntel,29.15451895,,,,,,,,,,,,,,,,,,,,49.3151,49.4969,49.497,49.998,,,,,,,,,,,,,,1.5598,1,,,,,,,,,,,,,,z,,,,,,,,,,,,,,,1,0,49.999,51.5647,z,1,1.5598,,[],[],[],[],[],[],[],51.565,53.5648,53.5653,53.5686,[],[],[],[],[],[],[],,53.5688,53.5704,-0.09508042,-0.386973783,0,0,0,,0,0,0,22,1,3,RL,procogal,print,procogal_p.png,,,,,,
,,,,32040,001,2025-10-17_12h25.38.877,HW_LDT_1,2024.2.4,MacIntel,29.15451895,,,,,,,,,,,,,,,,,,,,53.5713,53.7635,53.7636,54.2645,,,,,,,,,,,,,,1.1802,1,,,,,,,,,,,,,,m,,,,,,,,,,,,,,,2,0,54.2653,55.4645,m,1,1.1802,,[],[],[],[],[],[],[],55.4648,57.4647,57.4647,57.4651,[],[],[],[],[],[],[],,57.4652,57.4653,-0.09508042,-0.386973783,0,0,0,,0,1,1,144,1,3,word,RESIDENT,cursive,resident_c.png,,,,,,
,,,,32040,001,2025-10-17_12h25.38.877,HW_LDT_1,2024.2.4,MacIntel,29.15451895,,,,,,,,,,,,,,,,,,,,57.4667,57.6636,57.6637,58.1646,,,,,,,,,,,,,,0.6704,0,,,,,,,,,,,,,,z,,,,,,,,,,,,,,,3,0,58.1654,58.8647,m,0,0.6704,,[],[],[],[],[],[],[],58.8649,60.8636,60.8637,60.8639,[],[],[],[],[],[],[],,60.864,60.8642,-0.09508042,-0.386973783,0,0,0,,0,2,2,77,1,3,TL,vadility,cursive,vadility_c.png,,,,,,
,,,,32040,001,2025-10-17_12h25.38.877,HW_LDT_1,2024.2.4,MacIntel,29.15451895,,,,,,,,,,,,,,,,,,,,60.8654,61.0646,61.0646,61.5635,,,,,,,,,,,,,,1.7652,1,,,,,,,,,,,,,,z,,,,,,,,,,,,,,,4,0,61.5643,63.3312,z,1,1.7652,,[],[],[],[],[],[],[],63.3314,65.3312,65.3313,65.3317,[],[],[],[],[],[],[],,65.3317,65.3318,-0.09508042,-0.386973783,0,0,0,,0,3,3,17,1,3,RL,motide,cursive,motide_c.png,,,,,,
,,,,32040,001,2025-10-17_12h25.38.877,HW_LDT_1,2024.2.4,MacIntel,29.15451895,,,,,,,,,,,,,,,,,,,,65.3332,65.5312,65.5312,66.0311,,,,,,,,,,,,,,1.1634,1,,,,,,,,,,,,,,m,,,,,,,,,,,,,,,5,0,66.0317,67.1978,m,1,1.1634,,[],[],[],[],[],[],[],67.198,69.1968,69.1969,69.1972,[],[],[],[],[],[],[],,69.1972,69.1973,-0.09508042,-0.386973783,0,0,0,,0,4,4,148,1,3,word,SALINE,cursive,saline_c.png,,,,,,
,,,,32040,001,2025-10-17_12h25.38.877,HW_LDT_1,2024.2.4,MacIntel,29.15451895,,,,,,,,,,,,,,,,,,,,69.1983,69.3968,69.3968,69.8979,,,,,,,,,,,,,,0.7044,1,,,,,,,,,,,,,,m,,,,,,,,,,,,,,,6,1,69.8986,70.6303,m,1,0.7044,,[],[],[],[],[],[],[],70.6306,72.6313,72.6314,78.3972,[],[],[],[],[],[],[],z,78.3973,78.3975,-0.09508042,-0.386973783,0,0,0,,0,5,5,104,1,3,word,DOMINANT,print,dominant_p.png,5.7648,,,,,
,,,,32040,001,2025-10-17_12h25.38.877,HW_LDT_1,2024.2.4,MacIntel,29.15451895,,,,,,,,,,,,,,,,,,,,78.3987,78.5975,78.5976,79.0979,,,,,,,,,,,,,,1.4412,1,,,,,,,,,,,,,,z,,,,,,,,,,,,,,,7,0,79.0985,80.5649,z,1,1.4412,,[],[],[],[],[],[],[],80.565,82.5645,82.5646,82.5649,[],[],[],[],[],[],[],,82.565,82.5651,-0.09508042,-0.386973783,0,0,0,,0,6,6,56,1,3,TL,meromy,print,meromy_p.png,,,,,,
,,,,32040,001,2025-10-17_12h25.38.877,HW_LDT_1,2024.2.4,MacIntel,29.15451895,,,,,,,,,,,,,,,,,,,,82.5664,82.7645,82.7646,83.2645,,,,,,,,,,,,,,0.8367,1,,,,,,,,,,,,,,m,,,,,,,,,,,,,,,8,1,83.2651,84.1313,m,1,0.8367,,[],[],[],[],[],[],[],84.1314,86.1314,86.1314,87.4979,[],[],[],[],[],[],[],m,87.498,87.4982,-0.09508042,-0.386973783,0,0,0,,0,7,7,113,1,3,word,LITERAL,print,literal_p.png,1.338,,,,,
,,,,32040,001,2025-10-17_12h25.38.877,HW_LDT_1,2024.2.4,MacIntel,29.15451895,,,,,,,,,,,,,,,,,,,,87.4995,87.6979,87.6979,88.197,,,,,,,,,,,,,,4.8403,0,,,,,,,,,,,,,,z,,,,,,,,,,,,,,,9,0,88.1976,93.0646,m,0,4.8403,,[],[],[],[],[],[],[],93.0647,95.0646,95.0646,95.0648,[],[],[],[],[],[],[],,95.065,95.0651,-0.09508042,-0.386973783,0,0,0,,0,8,8,70,1,3,TL,remuse,cursive,remuse_c.png,,,,,,
,,,,32040,001,2025-10-17_12h25.38.877,HW_LDT_1,2024.2.4,MacIntel,29.15451895,,,,,,,,,,,,,,,,,,,,95.0665,95.2645,95.2646,95.7646,,,,,,,,,,,,,,1.0826,1,,,,,,,,,,,,,,z,,,,,,,,,,,,,,,10,0,95.7652,96.8649,z,1,1.0826,,[],[],[],[],[],[],[],96.865,98.8645,98.8645,98.8646,[],[],[],[],[],[],[],,98.8646,98.8647,-0.09508042,-0.386973783,0,0,0,,0,9,9,23,1,3,RL,quakity,print,quakity_p.png,,,,,,
,,,,32040,001,2025-10-17_12h25.38.877,HW_LDT_1,2024.2.4,MacIntel,29.15451895,,,,,,,,,,,,,,,,,,,,98.8654,99.0634,99.0635,99.5642,,,,,,,,,,,,,,1.5034,1,,,,,,,,,,,,,,m,,,,,,,,,,,,,,,11,0,99.5648,101.0969,m,1,1.5034,,[],[],[],[],[],[],[],101.0971,103.0977,103.0978,103.098,[],[],[],[],[],[],[],,103.0981,103.0983,-0.09508042,-0.386973783,0,0,0,,0,10,10,154,1,3,word,STORAGE,cursive,storage_c.png,,,,,,
,,,,32040,001,2025-10-17_12h25.38.877,HW_LDT_1,2024.2.4,MacIntel,29.15451895,,,,,,,,,,,,,,,,,,,,103.0995,103.2976,103.2976,103.7977,,,,,,,,,,,,,,2.2365,1,,,,,,,,,,,,,,z,,,,,,,,,,,,,,,12,0,103.7981,106.0638,z,1,2.2365,,[],[],[],[],[],[],[],106.0639,108.0647,108.0648,108.0649,[],[],[],[],[],[],[],,108.0649,108.0651,-0.09508042,-0.386973783,0,0,0,,0,11,11,36,1,3,TL,carema,cursive,carema_c.png,,,,,,
,,,,32040,001,2025-10-17_12h25.38.877,HW_LDT_1,2024.2.4,MacIntel,29.15451895,,,,,,,,,,,,,,,,,,,,108.066,108.2638,108.2639,108.7647,,,,,,,,,,,,,,0.86,1,,,,,,,,,,,,,,m,,,,,,,,,,,,,,,13,1,108.7653,109.6305,m,1,0.86,,[],[],[],[],[],[],[],109.6306,111.6312,111.6313,113.7304,[],[],[],[],[],[],[],z,113.7306,113.7308,-0.09508042,-0.386973783,0,0,0,,0,12,12,126,1,3,word,OPTIMAL,cursive,optimal_c.png,2.0805,,,,,
,,,,32040,001,2025-10-17_12h25.38.877,HW_LDT_1,2024.2.4,MacIntel,29.15451895,,,,,,,,,,,,,,,,,,,,113.7322,113.9303,113.9305,114.4314,,,,,,,,,,,,,,1.3147,0,,,,,,,,,,,,,,z,,,,,,,,,,,,,,,14,0,114.432,115.7647,m,0,1.3147,,[],[],[],[],[],[],[],115.7648,117.7646,117.7646,117.7649,[],[],[],[],[],[],[],,117.7649,117.765,-0.09508042,-0.386973783,0,0,0,,0,13,13,55,1,3,TL,mecidine,print,mecidine_p.png,,,,,,
,,,,32040,001,2025-10-17_12h25.38.877,HW_LDT_1,2024.2.4,MacIntel,29.15451895,,,,,,,,,,,,,,,,,,,,117.7665,117.9647,117.9647,118.4637,,,,,,,,,,,,,,0.7203,1,,,,,,,,,,,,,,m,,,,,,,,,,,,,,,15,1,118.4645,119.1982,m,1,0.7203,,[],[],[],[],[],[],[],119.1983,121.1971,121.1971,122.4647,[],[],[],[],[],[],[],m,122.4648,122.4649,-0.09508042,-0.386973783,0,0,0,,0,14,14,103,1,3,word,DISPUTE,print,dispute_p.png,1.2588,,,,,
,,,,32040,001,2025-10-17_12h25.38.877,HW_LDT_1,2024.2.4,MacIntel,29.15451895,,,,,,,,,,,,,,,,,,,,122.466,122.6638,122.6639,123.1637,,,,,,,,,,,,,,1.3841,1,,,,,,,,,,,,,,z,,,,,,,,,,,,,,,16,0,123.1642,124.5637,z,1,1.3841,,[],[],[],[],[],[],[],124.5639,126.5637,126.5638,126.5641,[],[],[],[],[],[],[],,126.5642,126.5642,-0.09508042,-0.386973783,0,0,0,,0,15,15,57,1,3,TL,moredate,cursive,moredate_c.png,,,,,,
,,,,32040,001,2025-10-17_12h25.38.877,HW_LDT_1,2024.2.4,MacIntel,29.15451895,,,,,,,,,,,,,,,,,,,,126.5656,126.7646,126.7646,127.2646,,,,,,,,,,,,,,1.0164,1,,,,,,,,,,,,,,m,,,,,,,,,,,,,,,17,0,127.2653,128.2981,m,1,1.0164,,[],[],[],[],[],[],[],128.2983,130.2979,130.298,130.2982,[],[],[],[],[],[],[],,130.2983,130.2984,-0.09508042,-0.386973783,0,0,0,,0,16,16,87,1,3,word,CAFETERIA,print,cafeteria_p.png,,,,,,
,,,,32040,001,2025-10-17_12h25.38.877,HW_LDT_1,2024.2.4,MacIntel,29.15451895,,,,,,,,,,,,,,,,,,,,130.2999,130.4981,130.4981,130.998,,,,,,,,,,,,,,0.8308,1,,,,,,,,,,,,,,m,,,,,,,,,,,,,,,18,1,130.9985,131.8313,m,1,0.8308,,[],[],[],[],[],[],[],131.8314,133.8313,133.8315,134.764,[],[],[],[],[],[],[],m,134.7641,134.7642,-0.09508042,-0.386973783,0,0,0,,0,17,17,111,1,3,word,INDICATE,print,indicate_p.png,0.923,,,,,
,,,,32040,001,2025-10-17_12h25.38.877,HW_LDT_1,2024.2.4,MacIntel,29.15451895,,,,,,,,,,,,,,,,,,,,134.7656,134.9638,134.9638,135.4645,,,,,,,,,,,,,,0.8895,1,,,,,,,,,,,,,,z,,,,,,,,,,,,,,,19,0,135.4652,136.3646,z,1,0.8895,,[],[],[],[],[],[],[],136.3647,138.3646,138.3647,138.3649,[],[],[],[],[],[],[],,138.3649,138.3653,-0.09508042,-0.386973783,0,0,0,,0,18,18,26,1,3,RL,repifion,print,repifion_p.png,,,,,,
,,,,32040,001,2025-10-17_12h25.38.877,HW_LDT_1,2024.2.4,MacIntel,29.15451895,,,,,,,,,,,,,,,,,,,,138.3667,138.5647,138.5647,139.0646,,,,,,,,,,,,,,0.9643,1,,,,,,,,,,,,,,z,,,,,,,,,,,,,,,20,0,139.0652,140.0311,z,1,0.9643,,[],[],[],[],[],[],[],140.0312,142.0313,142.0313,142.0316,[],[],[],[],[],[],[],,142.0317,142.0318,-0.09508042,-0.386973783,0,0,0,,0,19,19,41,1,3,TL,crinimal,print,crinimal_p.png,,,,,,
,,,,32040,001,2025-10-17_12h25.38.877,HW_LDT_1,2024.2.4,MacIntel,29.15451895,,,,,,,,,,,,,,,,,,,,142.0333,142.2313,142.2314,142.7315,,,,,,,,,,,,,,0.7041,1,,,,,,,,,,,,,,m,,,,,,,,,,,,,,,21,0,142.7321,143.4647,m,1,0.7041,,[],[],[],[],[],[],[],143.4648,145.4647,145.4647,145.4651,[],[],[],[],[],[],[],,145.4651,145.4653,-0.09508042,-0.386973783,0,0,0,,0,20,20,137,1,3,word,RAPIDLY,print,rapidly_p.png,,,,,,
,,,,32040,001,2025-10-17_12h25.38.877,HW_LDT_1,2024.2.4,MacIntel,29.15451895,,,,,,,,,,,,,,,,,,,,145.4666,145.6647,145.6647,146.1646,,,,,,,,,,,,,,0.6814,1,,,,,,,,,,,,,,m,,,,,,,,,,,,,,,22,0,146.1652,146.8648,m,1,0.6814,,[],[],[],[],[],[],[],146.8649,148.8645,148.8646,148.8649,[],[],[],[],[],[],[],,148.8649,148.8651,-0.09508042,-0.386973783,0,0,0,,0,21,21,95,1,3,word,COMEDY,print,comedy_p.png,,,,,,
,,,,32040,001,2025-10-17_12h25.38.877,HW_LDT_1,2024.2.4,MacIntel,29.15451895,,,,,,,,,,,,,,,,,,,,148.8665,149.0646,149.0646,149.5647,,,,,,,,,,,,,,0.9599,1,,,,,,,,,,,,,,m,,,,,,,,,,,,,,,23,0,149.5653,150.5304,m,1,0.9599,,[],[],[],[],[],[],[],150.5305,152.5313,152.5314,152.5316,[],[],[],[],[],[],[],,152.5316,152.5318,-0.09508042,-0.386973783,0,0,0,,0,22,22,81,1,3,word,ADVISORY,print,advisory_p.png,,,,,,
,,,,32040,001,2025-10-17_12h25.38.877,HW_LDT_1,2024.2.4,MacIntel,29.15451895,,,,,,,,,,,,,,,,,,,,152.5331,152.7314,152.7314,153.2313,,,,,,,,,,,,,,0.9174,1,,,,,,,,,,,,,,m,,,,,,,,,,,,,,,24,0,153.232,154.1648,m,1,0.9174,,[],[],[],[],[],[],[],154.1649,156.1647,156.1647,156.1651,[],[],[],[],[],[],[],,156.1651,156.1652,-0.09508042,-0.386973783,0,0,0,,0,23,23,82,1,3,word,AMATEUR,print,amateur_p.png,,,,,,
,,,,32040,001,2025-10-17_12h25.38.877,HW_LDT_1,2024.2.4,MacIntel,29.15451895,,,,,,,,,,,,,,,,,,,,156.1665,156.3646,156.3646,156.8647,,,,,,,,,,,,,,0.5498,1,,,,,,,,,,,,,,m,,,,,,,,,,,,,,,25,0,156.8654,157.4315,m,1,0.5498,,[],[],[],[],[],[],[],157.4316,159.4313,159.4314,159.4316,[],[],[],[],[],[],[],,159.4317,159.4318,-0.09508042,-0.386973783,0,0,0,,0,24,24,155,1,3,word,STRATEGY,print,strategy_p.png,,,,,,
,,,,32040,001,2025-10-17_12h25.38.877,HW_LDT_1,2024.2.4,MacIntel,29.15451895,,,,,,,,,,,,,,,,,,,,159.4333,159.6312,159.6314,160.1314,,,,,,,,,,,,,,1.9721,1,,,,,,,,,,,,,,z,,,,,,,,,,,,,,,26,0,160.132,162.1316,z,1,1.9721,,[],[],[],[],[],[],[],162.1317,164.1313,164.1314,164.1317,[],[],[],[],[],[],[],,164.1317,164.1318,-0.09508042,-0.386973783,0,0,0,,0,25,25,34,1,3,TL,aminal,cursive,aminal_c.png,,,,,,
,,,,32040,001,2025-10-17_12h25.38.877,HW_LDT_1,2024.2.4,MacIntel,29.15451895,,,,,,,,,,,,,,,,,,,,164.1334,164.3314,164.3314,164.8313,,,,,,,,,,,,,,1.8613,1,,,,,,,,,,,,,,z,,,,,,,,,,,,,,,27,0,164.8319,166.6978,z,1,1.8613,,[],[],[],[],[],[],[],166.698,168.6972,168.6972,168.6976,[],[],[],[],[],[],[],,168.6976,168.6977,-0.09508042,-0.386973783,0,0,0,,0,26,26,1,1,3,RL,bewoted,cursive,bewoted_c.png,,,,,,
,,,,32040,001,2025-10-17_12h25.38.877,HW_LDT_1,2024.2.4,MacIntel,29.15451895,,,,,,,,,,,,,,,,,,,,168.6992,168.898,168.898,169.3981,,,,,,,,,,,,,,0.7045,1,,,,,,,,,,,,,,m,,,,,,,,,,,,,,,28,1,169.3988,170.1314,m,1,0.7045,,[],[],[],[],[],[],[],170.1315,172.1313,172.1313,175.5647,[],[],[],[],[],[],[],z,175.5649,175.565,-0.09508042,-0.386973783,0,0,0,,0,27,27,118,1,3,word,MEDICINE,print,medicine_p.png,3.4176,,,,,
,,,,32040,001,2025-10-17_12h25.38.877,HW_LDT_1,2024.2.4,MacIntel,29.15451895,,,,,,,,,,,,,,,,,,,,175.5664,175.7648,175.7648,176.2647,,,,,,,,,,,,,,2.5543,0,,,,,,,,,,,,,,m,,,,,,,,,,,,,,,29,0,176.2653,178.8315,z,0,2.5543,,[],[],[],[],[],[],[],178.8316,180.8313,180.8313,180.8316,[],[],[],[],[],[],[],,180.8316,180.8318,-0.09508042,-0.386973783,0,0,0,,0,28,28,92,1,3,word,CATEGORY,cursive,category_c.png,,,,,,
,,,,32040,001,2025-10-17_12h25.38.877,HW_LDT_1,2024.2.4,MacIntel,29.15451895,,,,,,,,,,,,,,,,,,,,180.8332,181.0314,181.0314,181.5314,,,,,,,,,,,,,,1.0379,1,,,,,,,,,,,,,,z,,,,,,,,,,,,,,,30,1,181.532,182.5982,z,1,1.0379,,[],[],[],[],[],[],[],182.5983,184.5977,184.5978,185.6314,[],[],[],[],[],[],[],z,185.6315,185.6318,-0.095331202,-0.386973783,0,0,0,,0,29,29,42,1,3,TL,detabe,cursive,detabe_c.png,1.0232,,,,,
,,,,32040,001,2025-10-17_12h25.38.877,HW_LDT_1,2024.2.4,MacIntel,29.15451895,,,,,,,,,,,,,,,,,,,,185.6333,185.8313,185.8314,186.3314,,,,,,,,,,,,,,0.788,1,,,,,,,,,,,,,,z,,,,,,,,,,,,,,,31,0,186.332,187.1313,z,1,0.788,,[],[],[],[],[],[],[],187.1315,189.1314,189.1315,189.1317,[],[],[],[],[],[],[],,189.1318,189.1318,-0.095331202,-0.386973783,0,0,0,,0,30,30,2,1,3,RL,betemit,print,betemit_p.png,,,,,,
,,,,32040,001,2025-10-17_12h25.38.877,HW_LDT_1,2024.2.4,MacIntel,29.15451895,,,,,,,,,,,,,,,,,,,,189.1331,189.3314,189.3315,189.8314,,,,,,,,,,,,,,0.6564,1,,,,,,,,,,,,,,m,,,,,,,,,,,,,,,32,0,189.8321,190.4981,m,1,0.6564,,[],[],[],[],[],[],[],190.4981,192.498,192.498,192.4982,[],[],[],[],[],[],[],,192.4983,192.4984,-0.095331202,-0.386973783,0,0,0,,0,31,31,105,1,3,word,EDITOR,print,editor_p.png,,,,,,
,,,,32040,001,2025-10-17_12h25.38.877,HW_LDT_1,2024.2.4,MacIntel,29.15451895,,,,,,,,,,,,,,,,,,,,192.4999,192.6981,192.6981,193.1981,,,,,,,,,,,,,,0.7278,1,,,,,,,,,,,,,,z,,,,,,,,,,,,,,,33,0,193.1988,193.9313,z,1,0.7278,,[],[],[],[],[],[],[],193.9315,195.9314,195.9315,195.9317,[],[],[],[],[],[],[],,195.9318,195.9319,-0.095331202,-0.386973783,0,0,0,,0,32,32,25,1,3,RL,retupar,print,retupar_p.png,,,,,,
,,,,32040,001,2025-10-17_12h25.38.877,HW_LDT_1,2024.2.4,MacIntel,29.15451895,,,,,,,,,,,,,,,,,,,,195.9333,196.1314,196.1314,196.6315,,,,,,,,,,,,,,1.9982,1,,,,,,,,,,,,,,z,,,,,,,,,,,,,,,34,0,196.632,198.6314,z,1,1.9982,,[],[],[],[],[],[],[],198.6315,200.6314,200.6315,200.6317,[],[],[],[],[],[],[],,200.6317,200.6319,-0.095331202,-0.386973783,0,0,0,,0,33,33,37,1,3,TL,cacapity,cursive,cacapity_c.png,,,,,,
,,,,32040,001,2025-10-17_12h25.38.877,HW_LDT_1,2024.2.4,MacIntel,29.15451895,,,,,,,,,,,,,,,,,,,,200.6334,200.8314,200.8315,201.3313,,,,,,,,,,,,,,0.8956,0,,,,,,,,,,,,,,m,,,,,,,,,,,,,,,35,0,201.332,202.2314,z,0,0.8956,,[],[],[],[],[],[],[],202.2314,204.2314,204.2314,204.2316,[],[],[],[],[],[],[],,204.2318,204.2319,-0.095331202,-0.386973783,0,0,0,,0,34,34,99,1,3,word,DEBATE,cursive,debate_c.png,,,,,,
,,,,32040,001,2025-10-17_12h25.38.877,HW_LDT_1,2024.2.4,MacIntel,29.15451895,,,,,,,,,,,,,,,,,,,,204.2332,204.4312,204.4313,204.9313,,,,,,,,,,,,,,0.8876,1,,,,,,,,,,,,,,m,,,,,,,,,,,,,,,36,0,204.9321,205.8314,m,1,0.8876,,[],[],[],[],[],[],[],205.8316,207.8314,207.8315,207.8318,[],[],[],[],[],[],[],,207.8319,207.8319,-0.095331202,-0.386973783,0,0,0,,0,35,35,152,1,3,word,SPECIMEN,print,specimen_p.png,,,,,,
,,,,32040,001,2025-10-17_12h25.38.877,HW_LDT_1,2024.2.4,MacIntel,29.15451895,,,,,,,,,,,,,,,,,,,,207.8333,208.0313,208.0314,208.5314,,,,,,,,,,,,,,0.9733,1,,,,,,,,,,,,,,m,,,,,,,,,,,,,,,37,1,208.5321,209.5314,m,1,0.9733,,[],[],[],[],[],[],[],209.5316,211.5314,211.5314,213.8648,[],[],[],[],[],[],[],z,213.8649,213.865,-0.095331202,-0.386973783,0,0,0,,0,36,36,134,1,3,word,QUALIFY,print,qualify_p.png,2.3051,,,,,
,,,,32040,001,2025-10-17_12h25.38.877,HW_LDT_1,2024.2.4,MacIntel,29.15451895,,,,,,,,,,,,,,,,,,,,213.8667,214.0647,214.0647,214.5647,,,,,,,,,,,,,,1.5475,1,,,,,,,,,,,,,,z,,,,,,,,,,,,,,,38,0,214.5654,216.1314,z,1,1.5475,,[],[],[],[],[],[],[],216.1315,218.1309,218.1309,218.1313,[],[],[],[],[],[],[],,218.1313,218.1314,-0.095331202,-0.386973783,0,0,0,,0,37,37,13,1,3,RL,helicage,cursive,helicage_c.png,,,,,,
,,,,32040,001,2025-10-17_12h25.38.877,HW_LDT_1,2024.2.4,MacIntel,29.15451895,,,,,,,,,,,,,,,,,,,,218.1328,218.3314,218.3315,218.8316,,,,,,,,,,,,,,1.3879,0,,,,,,,,,,,,,,z,,,,,,,,,,,,,,,39,0,218.8321,220.2314,m,0,1.3879,,[],[],[],[],[],[],[],220.2314,222.2314,222.2315,222.2317,[],[],[],[],[],[],[],,222.2318,222.2319,-0.095331202,-0.386973783,0,0,0,,0,38,38,68,1,3,TL,revomal,cursive,revomal_c.png,,,,,,
,,,,32040,001,2025-10-17_12h25.38.877,HW_LDT_1,2024.2.4,MacIntel,29.15451895,,,,,,,,,,,,,,,,,,,,222.2331,222.4314,222.4315,222.9311,,,,,,,,,,,,,,0.6144,1,,,,,,,,,,,,,,m,,,,,,,,,,,,,,,40,0,222.9317,223.5648,m,1,0.6144,,[],[],[],[],[],[],[],223.5649,225.5647,225.5648,225.565,[],[],[],[],[],[],[],,225.5651,225.5652,-0.095331202,-0.386973783,0,0,0,,0,39,39,131,1,3,word,POPULAR,print,popular_p.png,,,,,,
,,,,32040,001,2025-10-17_12h25.38.877,HW_LDT_1,2024.2.4,MacIntel,29.15451895,,,,,,,,,,,,,,,,,,,,225.5666,225.7647,225.7647,226.2648,,,,,,,,,,,,,,2.8715,1,,,,,,,,,,,,,,m,,,,,,,,,,,,,,,41,0,226.2654,229.1649,m,1,2.8715,,[],[],[],[],[],[],[],229.165,231.1647,231.1648,231.165,[],[],[],[],[],[],[],,231.1651,231.1652,-0.095331202,-0.386973783,0,0,0,,0,40,40,156,1,3,word,TRIBUTE,print,tribute_p.png,,,,,,
,,,,32040,001,2025-10-17_12h25.38.877,HW_LDT_1,2024.2.4,MacIntel,29.15451895,,,,,,,,,,,,,,,,,,,,231.1666,231.3647,231.3647,231.8647,,,,,,,,,,,,,,0.6715,1,,,,,,,,,,,,,,m,,,,,,,,,,,,,,,42,0,231.8653,232.5649,m,1,0.6715,,[],[],[],[],[],[],[],232.5651,234.5647,234.5647,234.565,[],[],[],[],[],[],[],,234.565,234.5652,-0.095331202,-0.386973783,0,0,0,,0,41,41,157,1,3,word,VALIDITY,cursive,validity_c.png,,,,,,
,,,,32040,001,2025-10-17_12h25.38.877,HW_LDT_1,2024.2.4,MacIntel,29.15451895,,,,,,,,,,,,,,,,,,,,234.5663,234.7647,234.7647,235.2637,,,,,,,,,,,,,,1.1563,1,,,,,,,,,,,,,,z,,,,,,,,,,,,,,,43,1,235.2643,236.4306,z,1,1.1563,,[],[],[],[],[],[],[],236.4306,238.4315,238.4316,239.1303,[],[],[],[],[],[],[],z,239.1305,239.1306,-0.095331202,-0.386973783,0,0,0,,0,42,42,66,1,3,TL,retalive,cursive,retalive_c.png,0.6946,,,,,
,,,,32040,001,2025-10-17_12h25.38.877,HW_LDT_1,2024.2.4,MacIntel,29.15451895,,,,,,,,,,,,,,,,,,,,239.1316,239.3306,239.3306,239.8314,,,,,,,,,,,,,,0.9043,1,,,,,,,,,,,,,,z,,,,,,,,,,,,,,,44,0,239.8321,240.7638,z,1,0.9043,,[],[],[],[],[],[],[],240.7639,242.7648,242.7648,242.765,[],[],[],[],[],[],[],,242.765,242.7652,-0.095331202,-0.386973783,0,0,0,,0,43,43,21,1,3,RL,potugar,print,potugar_p.png,,,,,,
,,,,32040,001,2025-10-17_12h25.38.877,HW_LDT_1,2024.2.4,MacIntel,29.15451895,,,,,,,,,,,,,,,,,,,,242.7664,242.9638,242.9638,243.4648,,,,,,,,,,,,,,0.6542,1,,,,,,,,,,,,,,m,,,,,,,,,,,,,,,45,0,243.4654,244.1314,m,1,0.6542,,[],[],[],[],[],[],[],244.1316,246.1315,246.1315,246.1317,[],[],[],[],[],[],[],,246.1318,246.1319,-0.095331202,-0.386973783,0,0,0,,0,44,44,112,1,3,word,LIBERAL,print,liberal_p.png,,,,,,
,,,,32040,001,2025-10-17_12h25.38.877,HW_LDT_1,2024.2.4,MacIntel,29.15451895,,,,,,,,,,,,,,,,,,,,246.1334,246.3305,246.3306,246.8315,,,,,,,,,,,,,,2.0856,0,,,,,,,,,,,,,,m,,,,,,,,,,,,,,,46,0,246.8321,248.9315,z,0,2.0856,,[],[],[],[],[],[],[],248.9317,250.9315,250.9316,250.9317,[],[],[],[],[],[],[],,250.9319,250.932,-0.095331202,-0.386973783,0,0,0,,0,45,45,90,1,3,word,CAPITAL,cursive,capital_c.png,,,,,,
,,,,32040,001,2025-10-17_12h25.38.877,HW_LDT_1,2024.2.4,MacIntel,29.15451895,,,,,,,,,,,,,,,,,,,,250.9334,251.1314,251.1314,251.6314,,,,,,,,,,,,,,1.9036,1,,,,,,,,,,,,,,z,,,,,,,,,,,,,,,47,0,251.6321,253.5648,z,1,1.9036,,[],[],[],[],[],[],[],253.565,255.5639,255.5639,255.5641,[],[],[],[],[],[],[],,255.5642,255.5643,-0.095331202,-0.386973783,0,0,0,,0,46,46,53,1,3,TL,marnigal,print,marnigal_p.png,,,,,,
,,,,32040,001,2025-10-17_12h25.38.877,HW_LDT_1,2024.2.4,MacIntel,29.15451895,,,,,,,,,,,,,,,,,,,,255.5658,255.7642,255.7642,256.2637,,,,,,,,,,,,,,0.9313,1,,,,,,,,,,,,,,z,,,,,,,,,,,,,,,48,0,256.2643,257.1971,z,1,0.9313,,[],[],[],[],[],[],[],257.1972,259.1972,259.1972,259.1975,[],[],[],[],[],[],[],,259.1976,259.1977,-0.095331202,-0.386973783,0,0,0,,0,47,47,48,1,3,TL,grafetul,cursive,grafetul_c.png,,,,,,
,,,,32040,001,2025-10-17_12h25.38.877,HW_LDT_1,2024.2.4,MacIntel,29.15451895,,,,,,,,,,,,,,,,,,,,259.199,259.398,259.3981,259.8981,,,,,,,,,,,,,,0.7169,1,,,,,,,,,,,,,,m,,,,,,,,,,,,,,,49,0,259.8988,260.6316,m,1,0.7169,,[],[],[],[],[],[],[],260.6317,262.6315,262.6315,262.6317,[],[],[],[],[],[],[],,262.6318,262.6319,-0.095331202,-0.386973783,0,0,0,,0,48,48,151,1,3,word,SPECIFIC,print,specific_p.png,,,,,,
,,,,32040,001,2025-10-17_12h25.38.877,HW_LDT_1,2024.2.4,MacIntel,29.15451895,,,,,,,,,,,,,,,,,,,,262.6332,262.8314,262.8314,263.3315,,,,,,,,,,,,,,1.0045,1,,,,,,,,,,,,,,z,,,,,,,,,,,,,,,50,0,263.3322,264.3638,z,1,1.0045,,[],[],[],[],[],[],[],264.364,266.3647,266.3648,266.365,[],[],[],[],[],[],[],,266.3651,266.3652,-0.095331202,-0.386973783,0,0,0,,0,49,49,60,1,3,TL,panert,print,panert_p.png,,,,,,
,,,,32040,001,2025-10-17_12h25.38.877,HW_LDT_1,2024.2.4,MacIntel,29.15451895,,,,,,,,,,,,,,,,,,,,266.3665,266.5648,266.5649,267.0648,,,,,,,,,,,,,,0.5484,1,,,,,,,,,,,,,,m,,,,,,,,,,,,,,,51,0,267.0654,267.6315,m,1,0.5484,,[],[],[],[],[],[],[],267.6316,269.6314,269.6315,269.6317,[],[],[],[],[],[],[],,269.6317,269.6319,-0.095331202,-0.386973783,0,0,0,,0,50,50,98,1,3,word,CRIMINAL,print,criminal_p.png,,,,,,
,,,,32040,001,2025-10-17_12h25.38.877,HW_LDT_1,2024.2.4,MacIntel,29.15451895,,,,,,,,,,,,,,,,,,,,269.6333,269.8314,269.8315,270.3315,,,,,,,,,,,,,,1.9508,0,,,,,,,,,,,,,,m,,,,,,,,,,,,,,,52,0,270.3321,272.2983,z,0,1.9508,,[],[],[],[],[],[],[],272.2984,274.2981,274.2982,274.2984,[],[],[],[],[],[],[],,274.2985,274.2986,-0.095331202,-0.386973783,0,0,0,,0,51,51,140,1,3,word,RELATIVE,cursive,relative_c.png,,,,,,
,,,,32040,001,2025-10-17_12h25.38.877,HW_LDT_1,2024.2.4,MacIntel,29.15451895,,,,,,,,,,,,,,,,,,,,274.2998,274.498,274.4981,274.9971,,,,,,,,,,,,,,0.6391,1,,,,,,,,,,,,,,m,,,,,,,,,,,,,,,53,0,274.9977,275.6649,m,1,0.6391,,[],[],[],[],[],[],[],275.665,277.6647,277.6647,277.665,[],[],[],[],[],[],[],,277.665,277.6651,-0.095331202,-0.386973783,0,0,0,,0,52,52,125,1,3,word,OPERATOR,print,operator_p.png,,,,,,
,,,,32040,001,2025-10-17_12h25.38.877,HW_LDT_1,2024.2.4,MacIntel,29.15451895,,,,,,,,,,,,,,,,,,,,277.666,277.8647,277.8648,278.3648,,,,,,,,,,,,,,0.5704,1,,,,,,,,,,,,,,m,,,,,,,,,,,,,,,54,0,278.3654,278.9639,m,1,0.5704,,[],[],[],[],[],[],[],278.964,280.9639,280.964,280.9642,[],[],[],[],[],[],[],,280.9642,280.9644,-0.095331202,-0.386973783,0,0,0,,0,53,53,130,1,3,word,POLICY,print,policy_p.png,,,,,,
,,,,32040,001,2025-10-17_12h25.38.877,HW_LDT_1,2024.2.4,MacIntel,29.15451895,,,,,,,,,,,,,,,,,,,,280.9657,281.1639,281.1639,281.6648,,,,,,,,,,,,,,1.9715,0,,,,,,,,,,,,,,z,,,,,,,,,,,,,,,55,0,281.6654,283.6641,m,0,1.9715,,[],[],[],[],[],[],[],283.6642,285.6638,285.664,285.6642,[],[],[],[],[],[],[],,285.6642,285.6643,-0.095331202,-0.386973783,0,0,0,,0,54,54,52,1,3,TL,locigal,cursive,locigal_c.png,,,,,,
,,,,32040,001,2025-10-17_12h25.38.877,HW_LDT_1,2024.2.4,MacIntel,29.15451895,,,,,,,,,,,,,,,,,,,,285.6656,285.8648,285.8648,286.3638,,,,,,,,,,,,,,0.6533,0,,,,,,,,,,,,,,z,,,,,,,,,,,,,,,56,1,286.3645,287.0316,m,0,0.6533,,[],[],[],[],[],[],[],287.0317,289.0316,289.0316,290.0648,[],[],[],[],[],[],[],m,290.0649,290.065,-0.095331202,-0.386973783,0,0,0,,0,55,55,47,1,3,TL,elarobate,print,elarobate_p.png,1.008,,,,,
,,,,32040,001,2025-10-17_12h25.38.877,HW_LDT_1,2024.2.4,MacIntel,29.15451895,,,,,,,,,,,,,,,,,,,,290.066,290.264,290.2641,290.7648,,,,,,,,,,,,,,0.9579,1,,,,,,,,,,,,,,z,,,,,,,,,,,,,,,57,0,290.7654,291.7306,z,1,0.9579,,[],[],[],[],[],[],[],291.7307,293.7316,293.7316,293.7318,[],[],[],[],[],[],[],,293.7318,293.732,-0.095331202,-0.386973783,0,0,0,,0,56,56,10,1,3,RL,efibor,print,efibor_p.png,,,,,,
,,,,32040,001,2025-10-17_12h25.38.877,HW_LDT_1,2024.2.4,MacIntel,29.15451895,,,,,,,,,,,,,,,,,,,,293.7337,293.9305,293.9305,294.4315,,,,,,,,,,,,,,0.6713,1,,,,,,,,,,,,,,m,,,,,,,,,,,,,,,58,0,294.4321,295.1315,m,1,0.6713,,[],[],[],[],[],[],[],295.1316,297.1315,297.1316,297.1317,[],[],[],[],[],[],[],,297.1318,297.1319,-0.095331202,-0.386973783,0,0,0,,0,57,57,139,1,3,word,REGULAR,print,regular_p.png,,,,,,
,,,,32040,001,2025-10-17_12h25.38.877,HW_LDT_1,2024.2.4,MacIntel,29.15451895,,,,,,,,,,,,,,,,,,,,297.1331,297.3314,297.3315,297.8315,,,,,,,,,,,,,,0.9282,0,,,,,,,,,,,,,,m,,,,,,,,,,,,,,,59,0,297.8321,298.7648,z,0,0.9282,,[],[],[],[],[],[],[],298.765,300.764,300.7641,300.7643,[],[],[],[],[],[],[],,300.7643,300.7644,-0.095331202,-0.386973783,0,0,0,,0,58,58,108,1,3,word,FORTUNE,cursive,fortune_c.png,,,,,,
,,,,32040,001,2025-10-17_12h25.38.877,HW_LDT_1,2024.2.4,MacIntel,29.15451895,,,,,,,,,,,,,,,,,,,,300.7658,300.9649,300.9649,301.4641,,,,,,,,,,,,,,1.8049,1,,,,,,,,,,,,,,z,,,,,,,,,,,,,,,60,0,301.4647,303.2973,z,1,1.8049,,[],[],[],[],[],[],[],303.2974,305.2974,305.2974,305.2975,[],[],[],[],[],[],[],,305.2977,305.2978,-0.095331202,-0.386973783,0,0,0,,0,59,59,75,1,3,TL,sloten,cursive,sloten_c.png,,,,,,
,,,,32040,001,2025-10-17_12h25.38.877,HW_LDT_1,2024.2.4,MacIntel,29.15451895,,,,,,,,,,,,,,,,,,,,305.2992,305.4982,305.4982,305.9981,,,,,,,,,,,,,,1.0612,0,,,,,,,,,,,,,,z,,,,,,,,,,,,,,,61,0,305.9988,307.0649,m,0,1.0612,,[],[],[],[],[],[],[],307.065,309.0648,309.0649,309.065,[],[],[],[],[],[],[],,309.0652,309.0652,-0.095331202,-0.386973783,0,0,0,,0,60,60,32,1,3,TL,adacemy,print,adacemy_p.png,,,,,,
,,,,32040,001,2025-10-17_12h25.38.877,HW_LDT_1,2024.2.4,MacIntel,29.15451895,,,,,,,,,,,,,,,,,,,,309.0666,309.2639,309.264,309.764,,,,,,,,,,,,,,3.3716,0,,,,,,,,,,,,,,m,,,,,,,,,,,,,,,62,0,309.7646,313.165,z,0,3.3716,,[],[],[],[],[],[],[],313.1651,315.1648,315.1648,315.1651,[],[],[],[],[],[],[],,315.1651,315.1652,-0.095331202,-0.386973783,0,0,0,,0,61,61,89,1,3,word,CAPACITY,cursive,capacity_c.png,,,,,,
,,,,32040,001,2025-10-17_12h25.38.877,HW_LDT_1,2024.2.4,MacIntel,29.15451895,,,,,,,,,,,,,,,,,,,,315.1666,315.3648,315.3648,315.8639,,,,,,,,,,,,,,0.8407,1,,,,,,,,,,,,,,z,,,,,,,,,,,,,,,63,0,315.8645,316.7315,z,1,0.8407,,[],[],[],[],[],[],[],316.7317,318.7315,318.7316,318.7318,[],[],[],[],[],[],[],,318.7319,318.7321,-0.095331202,-0.386973783,0,0,0,,0,62,62,9,1,3,RL,docirant,print,docirant_p.png,,,,,,
,,,,32040,001,2025-10-17_12h25.38.877,HW_LDT_1,2024.2.4,MacIntel,29.15451895,,,,,,,,,,,,,,,,,,,,318.7335,318.9315,318.9316,319.4315,,,,,,,,,,,,,,1.6247,1,,,,,,,,,,,,,,z,,,,,,,,,,,,,,,64,0,319.432,321.065,z,1,1.6247,,[],[],[],[],[],[],[],321.0651,323.064,323.0641,323.0643,[],[],[],[],[],[],[],,323.0643,323.0644,-0.095331202,-0.386973783,0,0,0,,0,63,63,76,1,3,TL,stogare,cursive,stogare_c.png,,,,,,
,,,,32040,001,2025-10-17_12h25.38.877,HW_LDT_1,2024.2.4,MacIntel,29.15451895,,,,,,,,,,,,,,,,,,,,323.0658,323.2649,323.265,323.7648,,,,,,,,,,,,,,0.928,1,,,,,,,,,,,,,,z,,,,,,,,,,,,,,,65,0,323.7654,324.6982,z,1,0.928,,[],[],[],[],[],[],[],324.6983,326.6983,326.6983,326.6985,[],[],[],[],[],[],[],,326.6985,326.6986,-0.095331202,-0.386973783,0,0,0,,0,64,64,33,1,3,TL,adsivory,print,adsivory_p.png,,,,,,
,,,,32040,001,2025-10-17_12h25.38.877,HW_LDT_1,2024.2.4,MacIntel,29.15451895,,,,,,,,,,,,,,,,,,,,326.7,326.8974,326.8974,327.3972,,,,,,,,,,,,,,1.016,1,,,,,,,,,,,,,,m,,,,,,,,,,,,,,,66,0,327.3979,328.4307,m,1,1.016,,[],[],[],[],[],[],[],328.4307,330.4303,330.4303,330.4304,[],[],[],[],[],[],[],,330.4305,330.4305,-0.095331202,-0.386973783,0,0,0,,0,65,65,141,1,3,word,RELIGION,print,religion_p.png,,,,,,
,,,,32040,001,2025-10-17_12h25.38.877,HW_LDT_1,2024.2.4,MacIntel,29.15451895,,,,,,,,,,,,,,,,,,,,330.4308,330.6312,330.6312,331.1304,,,,,,,,,,,,,,1.0319,1,,,,,,,,,,,,,,m,,,,,,,,,,,,,,,67,0,331.1307,332.1648,m,1,1.0319,,[],[],[],[],[],[],[],332.1649,334.164,334.164,334.1645,[],[],[],[],[],[],[],,334.1646,334.1647,-0.095331202,-0.386973783,0,0,0,,0,66,66,107,1,3,word,EVIDENT,cursive,evident_c.png,,,,,,
,,,,32040,001,2025-10-17_12h25.38.877,HW_LDT_1,2024.2.4,MacIntel,29.15451895,,,,,,,,,,,,,,,,,,,,334.166,334.3649,334.3651,334.865,,,,,,,,,,,,,,0.9621,1,,,,,,,,,,,,,,m,,,,,,,,,,,,,,,68,0,334.8656,335.8317,m,1,0.9621,,[],[],[],[],[],[],[],335.8317,337.8315,337.8316,337.8318,[],[],[],[],[],[],[],,337.8318,337.8319,-0.095331202,-0.386973783,0,0,0,,0,67,67,86,1,3,word,BESIDE,cursive,beside_c.png,,,,,,
,,,,32040,001,2025-10-17_12h25.38.877,HW_LDT_1,2024.2.4,MacIntel,29.15451895,,,,,,,,,,,,,,,,,,,,337.8332,338.0315,338.0316,338.5307,,,,,,,,,,,,,,2.6214,0,,,,,,,,,,,,,,m,,,,,,,,,,,,,,,69,0,338.5312,341.165,z,0,2.6214,,[],[],[],[],[],[],[],341.1651,343.1648,343.1649,343.1651,[],[],[],[],[],[],[],,343.1651,343.1653,-0.095331202,-0.386973783,0,0,0,,0,68,68,121,1,3,word,MISTAKE,cursive,mistake_c.png,,,,,,
,,,,32040,001,2025-10-17_12h25.38.877,HW_LDT_1,2024.2.4,MacIntel,29.15451895,,,,,,,,,,,,,,,,,,,,343.1665,343.364,343.364,343.8648,,,,,,,,,,,,,,0.7383,1,,,,,,,,,,,,,,m,,,,,,,,,,,,,,,70,0,343.8654,344.6307,m,1,0.7383,,[],[],[],[],[],[],[],344.6308,346.6307,346.6307,346.631,[],[],[],[],[],[],[],,346.631,346.6311,-0.095331202,-0.386973783,0,0,0,,0,69,69,159,1,3,word,VETERAN,cursive,veteran_c.png,,,,,,
,,,,32040,001,2025-10-17_12h25.38.877,HW_LDT_1,2024.2.4,MacIntel,29.15451895,,,,,,,,,,,,,,,,,,,,346.6328,346.8315,346.8315,347.3316,,,,,,,,,,,,,,1.4712,1,,,,,,,,,,,,,,z,,,,,,,,,,,,,,,71,0,347.3321,348.8317,z,1,1.4712,,[],[],[],[],[],[],[],348.8317,350.8315,350.8316,350.8318,[],[],[],[],[],[],[],,350.8318,350.8319,-0.095331202,-0.386973783,0,0,0,,0,70,70,20,1,3,RL,orimipal,cursive,orimipal_c.png,,,,,,
,,,,32040,001,2025-10-17_12h25.38.877,HW_LDT_1,2024.2.4,MacIntel,29.15451895,,,,,,,,,,,,,,,,,,,,350.8332,351.0315,351.0315,351.5306,,,,,,,,,,,,,,2.0152,1,,,,,,,,,,,,,,z,,,,,,,,,,,,,,,72,0,351.5313,353.5641,z,1,2.0152,,[],[],[],[],[],[],[],353.5642,355.5649,355.5649,355.5651,[],[],[],[],[],[],[],,355.5653,355.5653,-0.095331202,-0.386973783,0,0,0,,0,71,71,19,1,3,RL,opcifal,cursive,opcifal_c.png,,,,,,
,,,,32040,001,2025-10-17_12h25.38.877,HW_LDT_1,2024.2.4,MacIntel,29.15451895,,,,,,,,,,,,,,,,,,,,355.5666,355.7649,355.7649,356.2644,,,,,,,,,,,,,,1.0151,1,,,,,,,,,,,,,,m,,,,,,,,,,,,,,,73,0,356.265,357.2983,m,1,1.0151,,[],[],[],[],[],[],[],357.2984,359.2984,359.2984,359.2986,[],[],[],[],[],[],[],,359.2987,359.2989,-0.095331202,-0.386973783,0,0,0,,0,72,72,158,1,3,word,VELOCITY,cursive,velocity_c.png,,,,,,
,,,,32040,001,2025-10-17_12h25.38.877,HW_LDT_1,2024.2.4,MacIntel,29.15451895,,,,,,,,,,,,,,,,,,,,359.3002,359.4982,359.4982,359.9982,,,,,,,,,,,,,,2.2818,0,,,,,,,,,,,,,,m,,,,,,,,,,,,,,,74,0,359.9988,362.2986,z,0,2.2818,,[],[],[],[],[],[],[],362.2987,364.2983,364.2985,364.2987,[],[],[],[],[],[],[],,364.2988,364.2989,-0.095331202,-0.386973783,0,0,0,,0,73,73,109,1,3,word,GRATEFUL,cursive,grateful_c.png,,,,,,
,,,,32040,001,2025-10-17_12h25.38.877,HW_LDT_1,2024.2.4,MacIntel,29.15451895,,,,,,,,,,,,,,,,,,,,364.3002,364.4982,364.4983,364.9982,,,,,,,,,,,,,,1.0043,1,,,,,,,,,,,,,,m,,,,,,,,,,,,,,,75,0,364.9989,366.0316,m,1,1.0043,,[],[],[],[],[],[],[],366.0318,368.0316,368.0316,368.0318,[],[],[],[],[],[],[],,368.0319,368.032,-0.095331202,-0.386973783,0,0,0,,0,74,74,88,1,3,word,CAMERA,cursive,camera_c.png,,,,,,
,,,,32040,001,2025-10-17_12h25.38.877,HW_LDT_1,2024.2.4,MacIntel,29.15451895,,,,,,,,,,,,,,,,,,,,368.0332,368.2316,368.2317,368.7316,,,,,,,,,,,,,,0.7224,1,,,,,,,,,,,,,,z,,,,,,,,,,,,,,,76,0,368.7321,369.465,z,1,0.7224,,[],[],[],[],[],[],[],369.465,371.4649,371.4649,371.4652,[],[],[],[],[],[],[],,371.4653,371.4654,-0.095331202,-0.386973783,0,0,0,,0,75,75,0,1,3,RL,afaneur,print,afaneur_p.png,,,,,,
,,,,32040,001,2025-10-17_12h25.38.877,HW_LDT_1,2024.2.4,MacIntel,29.15451895,,,,,,,,,,,,,,,,,,,,371.4667,371.6649,371.6649,372.165,,,,,,,,,,,,,,0.8842,1,,,,,,,,,,,,,,z,,,,,,,,,,,,,,,77,0,372.1655,373.0651,z,1,0.8842,,[],[],[],[],[],[],[],373.0652,375.0649,375.0649,375.0651,[],[],[],[],[],[],[],,375.0653,375.0653,-0.095331202,-0.386973783,0,0,0,,0,76,76,18,1,3,RL,onegator,print,onegator_p.png,,,,,,
,,,,32040,001,2025-10-17_12h25.38.877,HW_LDT_1,2024.2.4,MacIntel,29.15451895,,,,,,,,,,,,,,,,,,,,375.0666,375.2648,375.2649,375.765,,,,,,,,,,,,,,0.7551,1,,,,,,,,,,,,,,m,,,,,,,,,,,,,,,78,0,375.7656,376.5316,m,1,0.7551,,[],[],[],[],[],[],[],376.5317,378.5316,378.5316,378.5319,[],[],[],[],[],[],[],,378.5319,378.5321,-0.095331202,-0.386973783,0,0,0,,0,77,77,80,1,3,word,ACADEMY,print,academy_p.png,,,,,,
,,,,32040,001,2025-10-17_12h25.38.877,HW_LDT_1,2024.2.4,MacIntel,29.15451895,,,,,,,,,,,,,,,,,,,,378.5334,378.7306,378.7307,379.2317,,,,,,,,,,,,,,2.7045,0,,,,,,,,,,,,,,m,,,,,,,,,,,,,,,79,0,379.2323,381.965,z,0,2.7045,,[],[],[],[],[],[],[],381.9652,383.9649,383.9651,383.9652,[],[],[],[],[],[],[],,383.9654,383.9654,-0.095331202,-0.386973783,0,0,0,,0,78,78,110,1,3,word,HERITAGE,cursive,heritage_c.png,,,,,,
,,,,32040,001,2025-10-17_12h25.38.877,HW_LDT_1,2024.2.4,MacIntel,29.15451895,,,,,,,,,,,,,,,,,,,,383.9667,384.165,384.165,384.6649,,,,,,,,,,,,,,1.6717,1,,,,,,,,,,,,,,z,,,,,,,,,,,,,,,80,0,384.6655,386.365,z,1,1.6717,,[],[],[],[],[],[],[],386.3651,388.365,388.3651,388.3653,[],[],[],[],[],[],[],,388.3654,395.4651,-0.038535433,-0.266054305,0,0,0,space,0,79,79,14,1,3,RL,lofase,cursive,lofase_c.png,,,7.0683,,,
,,,,32040,001,2025-10-17_12h25.38.877,HW_LDT_1,2024.2.4,MacIntel,29.15451895,,,,,,,,,,,,,,,,,,,,395.4668,395.6649,395.665,396.165,,,,,,,,,,,,,,1.2374,1,,,,,,,,,,,,,,m,,,,,,,,,,,,,,,81,0,396.1657,397.432,m,1,1.2374,,[],[],[],[],[],[],[],397.432,399.4317,399.4317,399.4319,[],[],[],[],[],[],[],,399.432,399.432,-0.038535433,-0.266054305,0,0,0,,0,80,80,91,1,3,word,CARDINAL,print,cardinal_p.png,,,,,,
,,,,32040,001,2025-10-17_12h25.38.877,HW_LDT_1,2024.2.4,MacIntel,29.15451895,,,,,,,,,,,,,,,,,,,,399.4334,399.6317,399.6317,400.1316,,,,,,,,,,,,,,2.2711,1,,,,,,,,,,,,,,m,,,,,,,,,,,,,,,82,0,400.1323,402.4318,m,1,2.2711,,[],[],[],[],[],[],[],402.4318,404.4316,404.4317,404.4319,[],[],[],[],[],[],[],,404.4319,404.432,-0.038535433,-0.266054305,0,0,0,,0,81,81,153,1,3,word,STOLEN,cursive,stolen_c.png,,,,,,
,,,,32040,001,2025-10-17_12h25.38.877,HW_LDT_1,2024.2.4,MacIntel,29.15451895,,,,,,,,,,,,,,,,,,,,404.4335,404.6315,404.6317,405.1317,,,,,,,,,,,,,,1.4499,1,,,,,,,,,,,,,,z,,,,,,,,,,,,,,,83,1,405.1321,406.5985,z,1,1.4499,,[],[],[],[],[],[],[],406.5986,408.5983,408.5983,410.5649,[],[],[],[],[],[],[],z,410.5651,410.5652,-0.038535433,-0.266054305,0,0,0,,0,82,82,65,1,3,TL,resufal,print,resufal_p.png,1.9482,,,,,
,,,,32040,001,2025-10-17_12h25.38.877,HW_LDT_1,2024.2.4,MacIntel,29.15451895,,,,,,,,,,,,,,,,,,,,410.5661,410.7649,410.765,411.2649,,,,,,,,,,,,,,2.1404,1,,,,,,,,,,,,,,m,,,,,,,,,,,,,,,84,0,411.2655,413.4318,m,1,2.1404,,[],[],[],[],[],[],[],413.4318,415.4317,415.4317,415.432,[],[],[],[],[],[],[],,415.4321,415.4322,-0.038535433,-0.266054305,0,0,0,,0,83,83,102,1,3,word,DENSITY,print,density_p.png,,,,,,
,,,,32040,001,2025-10-17_12h25.38.877,HW_LDT_1,2024.2.4,MacIntel,29.15451895,,,,,,,,,,,,,,,,,,,,415.4337,415.6316,415.6317,416.1317,,,,,,,,,,,,,,1.2719,1,,,,,,,,,,,,,,z,,,,,,,,,,,,,,,85,0,416.1323,417.4318,z,1,1.2719,,[],[],[],[],[],[],[],417.4319,419.4317,419.4318,419.4319,[],[],[],[],[],[],[],,419.432,419.432,-0.038535433,-0.266054305,0,0,0,,0,84,84,29,1,3,RL,selamor,cursive,selamor_c.png,,,,,,
,,,,32040,001,2025-10-17_12h25.38.877,HW_LDT_1,2024.2.4,MacIntel,29.15451895,,,,,,,,,,,,,,,,,,,,419.4334,419.6317,419.6318,420.1317,,,,,,,,,,,,,,1.3514,1,,,,,,,,,,,,,,m,,,,,,,,,,,,,,,86,1,420.1323,421.4983,m,1,1.3514,,[],[],[],[],[],[],[],421.4984,423.4984,423.4985,424.9319,[],[],[],[],[],[],[],z,424.9319,424.932,-0.038535433,-0.266054305,0,0,0,,0,85,85,93,1,3,word,CEREMONY,cursive,ceremony_c.png,1.4216,,,,,
,,,,32040,001,2025-10-17_12h25.38.877,HW_LDT_1,2024.2.4,MacIntel,29.15451895,,,,,,,,,,,,,,,,,,,,424.9333,425.1317,425.1318,425.6317,,,,,,,,,,,,,,0.6982,1,,,,,,,,,,,,,,m,,,,,,,,,,,,,,,87,0,425.6323,426.3317,m,1,0.6982,,[],[],[],[],[],[],[],426.3318,428.3316,428.3317,428.332,[],[],[],[],[],[],[],,428.332,428.3321,-0.038535433,-0.266054305,0,0,0,,0,86,86,85,1,3,word,BENEFIT,print,benefit_p.png,,,,,,
,,,,32040,001,2025-10-17_12h25.38.877,HW_LDT_1,2024.2.4,MacIntel,29.15451895,,,,,,,,,,,,,,,,,,,,428.3334,428.5318,428.5318,429.0316,,,,,,,,,,,,,,0.6916,1,,,,,,,,,,,,,,m,,,,,,,,,,,,,,,88,0,429.0322,429.7314,m,1,0.6916,,[],[],[],[],[],[],[],429.7314,431.7317,431.7318,431.732,[],[],[],[],[],[],[],,431.732,431.7321,-0.038535433,-0.266054305,0,0,0,,0,87,87,127,1,3,word,ORIGINAL,cursive,original_c.png,,,,,,
,,,,32040,001,2025-10-17_12h25.38.877,HW_LDT_1,2024.2.4,MacIntel,29.15451895,,,,,,,,,,,,,,,,,,,,431.7335,431.9318,431.9318,432.4317,,,,,,,,,,,,,,1.3523,1,,,,,,,,,,,,,,z,,,,,,,,,,,,,,,89,0,432.4323,433.7985,z,1,1.3523,,[],[],[],[],[],[],[],433.7986,435.7984,435.7984,435.7986,[],[],[],[],[],[],[],,435.7987,435.7988,-0.038535433,-0.266054305,0,0,0,,0,88,88,73,1,3,TL,speficic,print,speficic_p.png,,,,,,
,,,,32040,001,2025-10-17_12h25.38.877,HW_LDT_1,2024.2.4,MacIntel,29.15451895,,,,,,,,,,,,,,,,,,,,435.8001,435.9983,435.9983,436.4984,,,,,,,,,,,,,,1.0403,1,,,,,,,,,,,,,,m,,,,,,,,,,,,,,,90,0,436.499,437.565,m,1,1.0403,,[],[],[],[],[],[],[],437.5652,439.5651,439.5651,439.5652,[],[],[],[],[],[],[],,439.5653,439.5654,-0.038535433,-0.266054305,0,0,0,,0,89,89,101,1,3,word,DELICATE,print,delicate_p.png,,,,,,
,,,,32040,001,2025-10-17_12h25.38.877,HW_LDT_1,2024.2.4,MacIntel,29.15451895,,,,,,,,,,,,,,,,,,,,439.5667,439.7649,439.765,440.2651,,,,,,,,,,,,,,0.9832,1,,,,,,,,,,,,,,z,,,,,,,,,,,,,,,91,1,440.2657,441.2653,z,1,0.9832,,[],[],[],[],[],[],[],441.2655,443.2651,443.2651,444.8317,[],[],[],[],[],[],[],z,444.8318,444.8319,-0.038535433,-0.266054305,0,0,0,,0,90,90,51,1,3,TL,liretal,print,liretal_p.png,1.5511,,,,,
,,,,32040,001,2025-10-17_12h25.38.877,HW_LDT_1,2024.2.4,MacIntel,29.15451895,,,,,,,,,,,,,,,,,,,,444.8332,445.0316,445.0317,445.5317,,,,,,,,,,,,,,1.0501,1,,,,,,,,,,,,,,m,,,,,,,,,,,,,,,92,0,445.5322,446.5985,m,1,1.0501,,[],[],[],[],[],[],[],446.5985,448.5985,448.5985,448.5988,[],[],[],[],[],[],[],,448.5988,448.5989,-0.038535433,-0.266054305,0,0,0,,0,91,91,119,1,3,word,MEMORY,print,memory_p.png,,,,,,
,,,,32040,001,2025-10-17_12h25.38.877,HW_LDT_1,2024.2.4,MacIntel,29.15451895,,,,,,,,,,,,,,,,,,,,448.6001,448.7984,448.7984,449.2975,,,,,,,,,,,,,,1.6051,0,,,,,,,,,,,,,,m,,,,,,,,,,,,,,,93,0,449.2981,450.9307,z,0,1.6051,,[],[],[],[],[],[],[],450.9308,452.9317,452.9317,452.9319,[],[],[],[],[],[],[],,452.9319,452.932,-0.038535433,-0.266054305,0,0,0,,0,92,92,122,1,3,word,MOBILE,cursive,mobile_c.png,,,,,,
,,,,32040,001,2025-10-17_12h25.38.877,HW_LDT_1,2024.2.4,MacIntel,29.15451895,,,,,,,,,,,,,,,,,,,,452.9333,453.1314,453.1315,453.6317,,,,,,,,,,,,,,1.7652,1,,,,,,,,,,,,,,z,,,,,,,,,,,,,,,94,0,453.6322,455.3984,z,1,1.7652,,[],[],[],[],[],[],[],455.3985,457.3974,457.3975,457.3976,[],[],[],[],[],[],[],,457.3977,457.3978,-0.038535433,-0.266054305,0,0,0,,0,93,93,71,1,3,TL,sanile,cursive,sanile_c.png,,,,,,
,,,,32040,001,2025-10-17_12h25.38.877,HW_LDT_1,2024.2.4,MacIntel,29.15451895,,,,,,,,,,,,,,,,,,,,457.3992,457.5978,457.5979,458.0984,,,,,,,,,,,,,,0.9155,1,,,,,,,,,,,,,,m,,,,,,,,,,,,,,,95,0,458.099,459.0319,m,1,0.9155,,[],[],[],[],[],[],[],459.0319,461.0317,461.0318,461.0319,[],[],[],[],[],[],[],,461.0321,461.0321,-0.038535433,-0.266054305,0,0,0,,0,94,94,143,1,3,word,REMOVAL,cursive,removal_c.png,,,,,,
,,,,32040,001,2025-10-17_12h25.38.877,HW_LDT_1,2024.2.4,MacIntel,29.15451895,,,,,,,,,,,,,,,,,,,,461.0334,461.2317,461.2318,461.7307,,,,,,,,,,,,,,1.8955,1,,,,,,,,,,,,,,z,,,,,,,,,,,,,,,96,0,461.7313,463.6319,z,1,1.8955,,[],[],[],[],[],[],[],463.6319,465.6317,465.6319,465.632,[],[],[],[],[],[],[],,465.6321,465.6322,-0.038535433,-0.266054305,0,0,0,,0,95,95,31,1,3,RL,trilude,print,trilude_p.png,,,,,,
,,,,32040,001,2025-10-17_12h25.38.877,HW_LDT_1,2024.2.4,MacIntel,29.15451895,,,,,,,,,,,,,,,,,,,,465.6334,465.8316,465.8317,466.3318,,,,,,,,,,,,,,1.6043,1,,,,,,,,,,,,,,z,,,,,,,,,,,,,,,97,1,466.3323,467.9641,z,1,1.6043,,[],[],[],[],[],[],[],467.9642,469.9645,469.9646,472.9318,[],[],[],[],[],[],[],z,472.9319,472.932,-0.038535433,-0.266054305,0,0,0,,0,96,96,58,1,3,TL,nuremical,print,nuremical_p.png,2.9475,,,,,
,,,,32040,001,2025-10-17_12h25.38.877,HW_LDT_1,2024.2.4,MacIntel,29.15451895,,,,,,,,,,,,,,,,,,,,472.933,473.1316,473.1316,473.6318,,,,,,,,,,,,,,1.904,0,,,,,,,,,,,,,,m,,,,,,,,,,,,,,,98,0,473.6324,475.5651,z,0,1.904,,[],[],[],[],[],[],[],475.5653,477.565,477.5651,477.5653,[],[],[],[],[],[],[],,477.5653,477.5655,-0.038535433,-0.266054305,0,0,0,,0,97,97,120,1,3,word,MILITARY,cursive,military_c.png,,,,,,
,,,,32040,001,2025-10-17_12h25.38.877,HW_LDT_1,2024.2.4,MacIntel,29.15451895,,,,,,,,,,,,,,,,,,,,477.5667,477.7651,477.7651,478.2641,,,,,,,,,,,,,,1.5403,1,,,,,,,,,,,,,,z,,,,,,,,,,,,,,,99,0,478.2647,479.8309,z,1,1.5403,,[],[],[],[],[],[],[],479.831,481.8308,481.8308,481.831,[],[],[],[],[],[],[],,481.8311,481.8312,-0.038535433,-0.266054305,0,0,0,,0,98,98,35,1,3,TL,cateferia,print,cateferia_p.png,,,,,,
,,,,32040,001,2025-10-17_12h25.38.877,HW_LDT_1,2024.2.4,MacIntel,29.15451895,,,,,,,,,,,,,,,,,,,,481.8324,482.0308,482.0308,482.5318,,,,,,,,,,,,,,1.1224,1,,,,,,,,,,,,,,m,,,,,,,,,,,,,,,100,0,482.5324,483.6652,m,1,1.1224,,[],[],[],[],[],[],[],483.6652,485.6641,485.6642,485.6644,[],[],[],[],[],[],[],,485.6644,485.6645,-0.038535433,-0.266054305,0,0,0,,0,99,99,83,1,3,word,ANIMAL,cursive,animal_c.png,,,,,,
,,,,32040,001,2025-10-17_12h25.38.877,HW_LDT_1,2024.2.4,MacIntel,29.15451895,,,,,,,,,,,,,,,,,,,,485.6659,485.8651,485.8651,486.3641,,,,,,,,,,,,,,3.0963,1,,,,,,,,,,,,,,z,,,,,,,,,,,,,,,101,1,486.3647,489.4651,z,1,3.0963,,[],[],[],[],[],[],[],489.4652,491.4651,491.4652,492.5651,[],[],[],[],[],[],[],z,492.5652,492.5653,-0.038535433,-0.266054305,0,0,0,,0,100,100,5,1,3,RL,capefory,cursive,capefory_c.png,1.0907,,,,,
,,,,32040,001,2025-10-17_12h25.38.877,HW_LDT_1,2024.2.4,MacIntel,29.15451895,,,,,,,,,,,,,,,,,,,,492.5664,492.7641,492.7642,493.265,,,,,,,,,,,,,,0.7834,1,,,,,,,,,,,,,,z,,,,,,,,,,,,,,,102,0,493.2657,494.0642,z,1,0.7834,,[],[],[],[],[],[],[],494.0643,496.0645,496.0646,496.0648,[],[],[],[],[],[],[],,496.0649,496.0649,-0.038535433,-0.266054305,0,0,0,,0,101,101,24,1,3,RL,quafidy,print,quafidy_p.png,,,,,,
,,,,32040,001,2025-10-17_12h25.38.877,HW_LDT_1,2024.2.4,MacIntel,29.15451895,,,,,,,,,,,,,,,,,,,,496.0663,496.2642,496.2642,496.7651,,,,,,,,,,,,,,0.7925,0,,,,,,,,,,,,,,m,,,,,,,,,,,,,,,103,0,496.7657,497.5652,z,0,0.7925,,[],[],[],[],[],[],[],497.5653,499.5642,499.5642,499.5645,[],[],[],[],[],[],[],,499.5645,499.5647,-0.038535433,-0.266054305,0,0,0,,0,102,102,123,1,3,word,MODERATE,cursive,moderate_c.png,,,,,,
,,,,32040,001,2025-10-17_12h25.38.877,HW_LDT_1,2024.2.4,MacIntel,29.15451895,,,,,,,,,,,,,,,,,,,,499.5658,499.7653,499.7653,500.2651,,,,,,,,,,,,,,1.2285,1,,,,,,,,,,,,,,m,,,,,,,,,,,,,,,104,0,500.2656,501.4986,m,1,1.2285,,[],[],[],[],[],[],[],501.4987,503.4975,503.4975,503.4978,[],[],[],[],[],[],[],,503.4978,503.4979,-0.038535433,-0.266054305,0,0,0,,0,103,103,116,1,3,word,MARGINAL,print,marginal_p.png,,,,,,
,,,,32040,001,2025-10-17_12h25.38.877,HW_LDT_1,2024.2.4,MacIntel,29.15451895,,,,,,,,,,,,,,,,,,,,503.4993,503.6984,503.6984,504.1984,,,,,,,,,,,,,,1.4489,1,,,,,,,,,,,,,,z,,,,,,,,,,,,,,,105,1,504.1989,505.6652,z,1,1.4489,,[],[],[],[],[],[],[],505.6652,507.6651,507.6652,508.6318,[],[],[],[],[],[],[],z,508.6319,508.6321,-0.038535433,-0.266054305,0,0,0,,0,104,104,79,1,3,TL,veretan,cursive,veretan_c.png,0.9397,,,,,
,,,,32040,001,2025-10-17_12h25.38.877,HW_LDT_1,2024.2.4,MacIntel,29.15451895,,,,,,,,,,,,,,,,,,,,508.6334,508.8318,508.8318,509.332,,,,,,,,,,,,,,0.719,1,,,,,,,,,,,,,,m,,,,,,,,,,,,,,,106,0,509.3326,510.0642,m,1,0.719,,[],[],[],[],[],[],[],510.0642,512.0652,512.0652,512.0654,[],[],[],[],[],[],[],,512.0655,512.0655,-0.038535433,-0.266054305,0,0,0,,0,105,105,142,1,3,word,REMOTE,print,remote_p.png,,,,,,
,,,,32040,001,2025-10-17_12h25.38.877,HW_LDT_1,2024.2.4,MacIntel,29.15451895,,,,,,,,,,,,,,,,,,,,512.0669,512.2651,512.2652,512.7651,,,,,,,,,,,,,,0.9872,1,,,,,,,,,,,,,,m,,,,,,,,,,,,,,,107,1,512.7656,513.7653,m,1,0.9872,,[],[],[],[],[],[],[],513.7654,515.7651,515.7652,518.5652,[],[],[],[],[],[],[],z,518.5653,518.5654,-0.038535433,-0.266054305,0,0,0,,0,106,106,97,1,3,word,COVERAGE,print,coverage_p.png,2.7853,,,,,
,,,,32040,001,2025-10-17_12h25.38.877,HW_LDT_1,2024.2.4,MacIntel,29.15451895,,,,,,,,,,,,,,,,,,,,518.5667,518.7651,518.7652,519.2651,,,,,,,,,,,,,,1.063,1,,,,,,,,,,,,,,z,,,,,,,,,,,,,,,108,0,519.2657,520.3309,z,1,1.063,,[],[],[],[],[],[],[],520.3309,522.3309,522.331,522.3312,[],[],[],[],[],[],[],,522.3313,522.3313,-0.038535433,-0.266054305,0,0,0,,0,107,107,49,1,3,TL,incidate,print,incidate_p.png,,,,,,
,,,,32040,001,2025-10-17_12h25.38.877,HW_LDT_1,2024.2.4,MacIntel,29.15451895,,,,,,,,,,,,,,,,,,,,522.3326,522.5309,522.5309,523.0318,,,,,,,,,,,,,,2.8864,1,,,,,,,,,,,,,,z,,,,,,,,,,,,,,,109,1,523.0325,525.932,z,1,2.8864,,[],[],[],[],[],[],[],525.9321,527.9309,527.931,528.831,[],[],[],[],[],[],[],z,528.8311,528.8312,-0.038535433,-0.266054305,0,0,0,,0,108,108,6,1,3,RL,cenesony,cursive,cenesony_c.png,0.8854,,,,,
,,,,32040,001,2025-10-17_12h25.38.877,HW_LDT_1,2024.2.4,MacIntel,29.15451895,,,,,,,,,,,,,,,,,,,,528.8326,529.0317,529.0317,529.5317,,,,,,,,,,,,,,0.9141,1,,,,,,,,,,,,,,z,,,,,,,,,,,,,,,110,0,529.5323,530.4642,z,1,0.9141,,[],[],[],[],[],[],[],530.4643,532.4651,532.4652,532.4653,[],[],[],[],[],[],[],,532.4653,532.4655,-0.038535433,-0.266054305,0,0,0,,0,109,109,67,1,3,TL,retome,print,retome_p.png,,,,,,
,,,,32040,001,2025-10-17_12h25.38.877,HW_LDT_1,2024.2.4,MacIntel,29.15451895,,,,,,,,,,,,,,,,,,,,532.4669,532.6643,532.6643,533.1642,,,,,,,,,,,,,,0.9155,1,,,,,,,,,,,,,,z,,,,,,,,,,,,,,,111,0,533.1648,534.0986,z,1,0.9155,,[],[],[],[],[],[],[],534.0986,536.0984,536.0985,536.0987,[],[],[],[],[],[],[],,536.0988,536.0989,-0.038535433,-0.266054305,0,0,0,,0,110,110,15,1,3,RL,mifikary,cursive,mifikary_c.png,,,,,,
,,,,32040,001,2025-10-17_12h25.38.877,HW_LDT_1,2024.2.4,MacIntel,29.15451895,,,,,,,,,,,,,,,,,,,,536.1003,536.2984,536.2984,536.7975,,,,,,,,,,,,,,1.1384,1,,,,,,,,,,,,,,m,,,,,,,,,,,,,,,112,0,536.7981,537.9643,m,1,1.1384,,[],[],[],[],[],[],[],537.9644,539.9651,539.9651,539.9654,[],[],[],[],[],[],[],,539.9655,539.9656,-0.038535433,-0.266054305,0,0,0,,0,111,111,150,1,3,word,SENTIMENT,print,sentiment_p.png,,,,,,
,,,,32040,001,2025-10-17_12h25.38.877,HW_LDT_1,2024.2.4,MacIntel,29.15451895,,,,,,,,,,,,,,,,,,,,539.9669,540.1643,540.1644,540.6643,,,,,,,,,,,,,,1.3589,0,,,,,,,,,,,,,,m,,,,,,,,,,,,,,,113,0,540.665,542.0318,z,0,1.3589,,[],[],[],[],[],[],[],542.032,544.0309,544.0309,544.0312,[],[],[],[],[],[],[],,544.0314,544.0315,-0.038535433,-0.266054305,0,0,0,,0,112,112,117,1,3,word,MARINE,cursive,marine_c.png,,,,,,
,,,,32040,001,2025-10-17_12h25.38.877,HW_LDT_1,2024.2.4,MacIntel,29.15451895,,,,,,,,,,,,,,,,,,,,544.0328,544.2309,544.231,544.7318,,,,,,,,,,,,,,1.3581,1,,,,,,,,,,,,,,z,,,,,,,,,,,,,,,114,0,544.7324,546.0985,z,1,1.3581,,[],[],[],[],[],[],[],546.0986,548.0985,548.0985,548.0987,[],[],[],[],[],[],[],,548.0988,548.0989,-0.038535433,-0.266054305,0,0,0,,0,113,113,40,1,3,TL,condiser,print,condiser_p.png,,,,,,
,,,,32040,001,2025-10-17_12h25.38.877,HW_LDT_1,2024.2.4,MacIntel,29.15451895,,,,,,,,,,,,,,,,,,,,548.1001,548.2984,548.2985,548.7985,,,,,,,,,,,,,,0.9218,0,,,,,,,,,,,,,,z,,,,,,,,,,,,,,,115,0,548.7991,549.732,m,0,0.9218,,[],[],[],[],[],[],[],549.7322,551.7318,551.7319,551.732,[],[],[],[],[],[],[],,551.7321,551.7322,-0.038535433,-0.266054305,0,0,0,,0,114,114,39,1,3,TL,clicinal,print,clicinal_p.png,,,,,,
,,,,32040,001,2025-10-17_12h25.38.877,HW_LDT_1,2024.2.4,MacIntel,29.15451895,,,,,,,,,,,,,,,,,,,,551.7338,551.9319,551.932,552.4309,,,,,,,,,,,,,,1.6589,1,,,,,,,,,,,,,,z,,,,,,,,,,,,,,,116,0,552.4315,554.0985,z,1,1.6589,,[],[],[],[],[],[],[],554.0986,556.0986,556.0987,556.0988,[],[],[],[],[],[],[],,556.0988,556.099,-0.038535433,-0.266054305,0,0,0,,0,115,115,38,1,3,TL,carnidal,print,carnidal_p.png,,,,,,
,,,,32040,001,2025-10-17_12h25.38.877,HW_LDT_1,2024.2.4,MacIntel,29.15451895,,,,,,,,,,,,,,,,,,,,556.1003,556.2985,556.2986,556.7985,,,,,,,,,,,,,,2.5796,1,,,,,,,,,,,,,,m,,,,,,,,,,,,,,,117,0,556.7991,559.3985,m,1,2.5796,,[],[],[],[],[],[],[],559.3986,561.3985,561.3985,561.3987,[],[],[],[],[],[],[],,561.3988,561.3989,-0.038535433,-0.266054305,0,0,0,,0,116,116,94,1,3,word,CLINICAL,print,clinical_p.png,,,,,,
,,,,32040,001,2025-10-17_12h25.38.877,HW_LDT_1,2024.2.4,MacIntel,29.15451895,,,,,,,,,,,,,,,,,,,,561.4002,561.5985,561.5985,562.0985,,,,,,,,,,,,,,0.8891,1,,,,,,,,,,,,,,m,,,,,,,,,,,,,,,118,0,562.0991,562.9977,m,1,0.8891,,[],[],[],[],[],[],[],562.9978,564.9985,564.9986,564.9987,[],[],[],[],[],[],[],,564.9988,564.999,-0.038535433,-0.266054305,0,0,0,,0,117,117,124,1,3,word,NUMERICAL,print,numerical_p.png,,,,,,
,,,,32040,001,2025-10-17_12h25.38.877,HW_LDT_1,2024.2.4,MacIntel,29.15451895,,,,,,,,,,,,,,,,,,,,565.0001,565.1985,565.1985,565.6985,,,,,,,,,,,,,,0.6503,1,,,,,,,,,,,,,,m,,,,,,,,,,,,,,,119,0,565.6991,566.3653,m,1,0.6503,,[],[],[],[],[],[],[],566.3654,568.3652,568.3653,568.3655,[],[],[],[],[],[],[],,568.3655,568.3657,-0.038535433,-0.266054305,0,0,0,,0,118,118,133,1,3,word,PROVIDE,print,provide_p.png,,,,,,
,,,,32040,001,2025-10-17_12h25.38.877,HW_LDT_1,2024.2.4,MacIntel,29.15451895,,,,,,,,,,,,,,,,,,,,568.3669,568.5652,568.5653,569.0652,,,,,,,,,,,,,,0.9271,1,,,,,,,,,,,,,,z,,,,,,,,,,,,,,,120,0,569.0657,569.9985,z,1,0.9271,,[],[],[],[],[],[],[],569.9986,571.9985,571.9986,571.9987,[],[],[],[],[],[],[],,571.9989,571.9991,-0.038535433,-0.266054305,0,0,0,,0,119,119,44,1,3,TL,decilate,print,decilate_p.png,,,,,,
,,,,32040,001,2025-10-17_12h25.38.877,HW_LDT_1,2024.2.4,MacIntel,29.15451895,,,,,,,,,,,,,,,,,,,,572.0004,572.1985,572.1986,572.6985,,,,,,,,,,,,,,0.8566,1,,,,,,,,,,,,,,m,,,,,,,,,,,,,,,121,0,572.6991,573.5651,m,1,0.8566,,[],[],[],[],[],[],[],573.5653,575.5652,575.5653,575.5655,[],[],[],[],[],[],[],,575.5655,575.5657,-0.038535433,-0.266054305,0,0,0,,0,120,120,96,1,3,word,CONSIDER,print,consider_p.png,,,,,,
,,,,32040,001,2025-10-17_12h25.38.877,HW_LDT_1,2024.2.4,MacIntel,29.15451895,,,,,,,,,,,,,,,,,,,,575.5671,575.7652,575.7652,576.2652,,,,,,,,,,,,,,1.8874,1,,,,,,,,,,,,,,z,,,,,,,,,,,,,,,122,0,576.2657,578.1653,z,1,1.8874,,[],[],[],[],[],[],[],578.1654,580.1652,580.1652,580.1654,[],[],[],[],[],[],[],,580.1654,580.1654,-0.038535433,-0.266054305,0,0,0,,0,121,121,78,1,3,TL,vecolity,cursive,vecolity_c.png,,,,,,
,,,,32040,001,2025-10-17_12h25.38.877,HW_LDT_1,2024.2.4,MacIntel,29.15451895,,,,,,,,,,,,,,,,,,,,580.1665,580.3644,580.3645,580.8652,,,,,,,,,,,,,,0.7302,1,,,,,,,,,,,,,,z,,,,,,,,,,,,,,,123,0,580.8657,581.5987,z,1,0.7302,,[],[],[],[],[],[],[],581.5987,583.5987,583.5987,583.599,[],[],[],[],[],[],[],,583.599,583.5991,-0.038535433,-0.266054305,0,0,0,,0,122,122,7,1,3,RL,cobeny,print,cobeny_p.png,,,,,,
,,,,32040,001,2025-10-17_12h25.38.877,HW_LDT_1,2024.2.4,MacIntel,29.15451895,,,,,,,,,,,,,,,,,,,,583.6003,583.7986,583.7986,584.2987,,,,,,,,,,,,,,1.7505,0,,,,,,,,,,,,,,m,,,,,,,,,,,,,,,124,0,584.2993,586.0654,z,0,1.7505,,[],[],[],[],[],[],[],586.0654,588.0652,588.0653,588.0655,[],[],[],[],[],[],[],,588.0655,588.0657,-0.038535433,-0.266054305,0,0,0,,0,123,123,114,1,3,word,LOCATE,cursive,locate_c.png,,,,,,
,,,,32040,001,2025-10-17_12h25.38.877,HW_LDT_1,2024.2.4,MacIntel,29.15451895,,,,,,,,,,,,,,,,,,,,588.0669,588.2651,588.2652,588.7652,,,,,,,,,,,,,,1.0321,1,,,,,,,,,,,,,,z,,,,,,,,,,,,,,,125,0,588.7659,589.7993,z,1,1.0321,,[],[],[],[],[],[],[],589.7994,591.7986,591.7986,591.799,[],[],[],[],[],[],[],,591.799,591.7991,-0.038535433,-0.266054305,0,0,0,,0,124,124,62,1,3,TL,prodive,print,prodive_p.png,,,,,,
,,,,32040,001,2025-10-17_12h25.38.877,HW_LDT_1,2024.2.4,MacIntel,29.15451895,,,,,,,,,,,,,,,,,,,,591.8005,591.9985,591.9986,592.4986,,,,,,,,,,,,,,1.1492,1,,,,,,,,,,,,,,z,,,,,,,,,,,,,,,126,0,592.4992,593.6653,z,1,1.1492,,[],[],[],[],[],[],[],593.6654,595.6652,595.6653,595.6655,[],[],[],[],[],[],[],,595.6655,595.6656,-0.038535433,-0.266054305,0,0,0,,0,125,125,45,1,3,TL,dentisy,print,dentisy_p.png,,,,,,
,,,,32040,001,2025-10-17_12h25.38.877,HW_LDT_1,2024.2.4,MacIntel,29.15451895,,,,,,,,,,,,,,,,,,,,595.6669,595.8652,595.8653,596.3652,,,,,,,,,,,,,,1.3907,1,,,,,,,,,,,,,,z,,,,,,,,,,,,,,,127,0,596.3658,597.7653,z,1,1.3907,,[],[],[],[],[],[],[],597.7654,599.7652,599.7652,599.7655,[],[],[],[],[],[],[],,599.7656,599.7656,-0.038535433,-0.266054305,0,0,0,,0,126,126,30,1,3,RL,strapely,print,strapely_p.png,,,,,,
,,,,32040,001,2025-10-17_12h25.38.877,HW_LDT_1,2024.2.4,MacIntel,29.15451895,,,,,,,,,,,,,,,,,,,,599.7668,599.9653,599.9653,600.4652,,,,,,,,,,,,,,0.7241,1,,,,,,,,,,,,,,z,,,,,,,,,,,,,,,128,0,600.4659,601.1986,z,1,0.7241,,[],[],[],[],[],[],[],601.1986,603.1985,603.1986,603.1989,[],[],[],[],[],[],[],,603.199,603.1991,-0.038535433,-0.266054305,0,0,0,,0,127,127,8,1,3,RL,cocewage,print,cocewage_p.png,,,,,,
,,,,32040,001,2025-10-17_12h25.38.877,HW_LDT_1,2024.2.4,MacIntel,29.15451895,,,,,,,,,,,,,,,,,,,,603.2004,603.3985,603.3985,603.8985,,,,,,,,,,,,,,1.5378,1,,,,,,,,,,,,,,z,,,,,,,,,,,,,,,129,0,603.8991,605.4654,z,1,1.5378,,[],[],[],[],[],[],[],605.4654,607.4652,607.4653,607.4654,[],[],[],[],[],[],[],,607.4655,607.4656,-0.038535433,-0.266054305,0,0,0,,0,128,128,61,1,3,TL,pocily,print,pocily_p.png,,,,,,
,,,,32040,001,2025-10-17_12h25.38.877,HW_LDT_1,2024.2.4,MacIntel,29.15451895,,,,,,,,,,,,,,,,,,,,607.4669,607.6653,607.6653,608.1652,,,,,,,,,,,,,,1.0562,1,,,,,,,,,,,,,,m,,,,,,,,,,,,,,,130,0,608.1658,609.2321,m,1,1.0562,,[],[],[],[],[],[],[],609.2321,611.2319,611.2319,611.2322,[],[],[],[],[],[],[],,611.2322,611.2323,-0.038535433,-0.266054305,0,0,0,,0,129,129,129,1,3,word,PARENT,print,parent_p.png,,,,,,
,,,,32040,001,2025-10-17_12h25.38.877,HW_LDT_1,2024.2.4,MacIntel,29.15451895,,,,,,,,,,,,,,,,,,,,611.2337,611.4319,611.4319,611.9318,,,,,,,,,,,,,,1.2872,1,,,,,,,,,,,,,,m,,,,,,,,,,,,,,,131,0,611.9324,613.232,m,1,1.2872,,[],[],[],[],[],[],[],613.232,615.232,615.232,615.2322,[],[],[],[],[],[],[],,615.2323,615.2324,-0.038535433,-0.266054305,0,0,0,,0,130,130,100,1,3,word,DECADE,cursive,decade_c.png,,,,,,
,,,,32040,001,2025-10-17_12h25.38.877,HW_LDT_1,2024.2.4,MacIntel,29.15451895,,,,,,,,,,,,,,,,,,,,615.2338,615.432,615.4321,615.9319,,,,,,,,,,,,,,0.9378,1,,,,,,,,,,,,,,m,,,,,,,,,,,,,,,132,0,615.9325,616.8986,m,1,0.9378,,[],[],[],[],[],[],[],616.8988,618.8986,618.8986,618.8988,[],[],[],[],[],[],[],,618.8989,618.899,-0.038535433,-0.266054305,0,0,0,,0,131,131,135,1,3,word,QUALITY,print,quality_p.png,,,,,,
,,,,32040,001,2025-10-17_12h25.38.877,HW_LDT_1,2024.2.4,MacIntel,29.15451895,,,,,,,,,,,,,,,,,,,,618.9004,619.0986,619.0987,619.5987,,,,,,,,,,,,,,1.4712,1,,,,,,,,,,,,,,z,,,,,,,,,,,,,,,133,0,619.5993,621.0987,z,1,1.4712,,[],[],[],[],[],[],[],621.0988,623.0987,623.0987,623.0989,[],[],[],[],[],[],[],,623.099,623.0991,-0.038535433,-0.266054305,0,0,0,,0,132,132,69,1,3,TL,redisent,cursive,redisent_c.png,,,,,,
,,,,32040,001,2025-10-17_12h25.38.877,HW_LDT_1,2024.2.4,MacIntel,29.15451895,,,,,,,,,,,,,,,,,,,,623.1003,623.2986,623.2987,623.7987,,,,,,,,,,,,,,0.8545,1,,,,,,,,,,,,,,z,,,,,,,,,,,,,,,134,1,623.7991,624.6651,z,1,0.8545,,[],[],[],[],[],[],[],624.6652,626.6654,626.6654,627.9648,[],[],[],[],[],[],[],z,627.9648,627.965,-0.038535433,-0.266054305,0,0,0,,0,133,133,3,1,3,RL,bebine,cursive,bebine_c.png,1.2721,,,,,
,,,,32040,001,2025-10-17_12h25.38.877,HW_LDT_1,2024.2.4,MacIntel,29.15451895,,,,,,,,,,,,,,,,,,,,627.9664,628.1652,628.1653,628.6653,,,,,,,,,,,,,,0.9966,1,,,,,,,,,,,,,,m,,,,,,,,,,,,,,,135,0,628.6659,629.6653,m,1,0.9966,,[],[],[],[],[],[],[],629.6654,631.6652,631.6654,631.6656,[],[],[],[],[],[],[],,631.6656,631.6658,-0.038535433,-0.266054305,0,0,0,,0,134,134,106,1,3,word,ELABORATE,print,elaborate_p.png,,,,,,
,,,,32040,001,2025-10-17_12h25.38.877,HW_LDT_1,2024.2.4,MacIntel,29.15451895,,,,,,,,,,,,,,,,,,,,631.6671,631.8652,631.8653,632.3653,,,,,,,,,,,,,,1.1232,1,,,,,,,,,,,,,,z,,,,,,,,,,,,,,,136,0,632.3659,633.4988,z,1,1.1232,,[],[],[],[],[],[],[],633.4988,635.4986,635.4987,635.4988,[],[],[],[],[],[],[],,635.4989,635.4991,-0.038535433,-0.266054305,0,0,0,,0,135,135,11,1,3,RL,ebiwent,cursive,ebiwent_c.png,,,,,,
,,,,32040,001,2025-10-17_12h25.38.877,HW_LDT_1,2024.2.4,MacIntel,29.15451895,,,,,,,,,,,,,,,,,,,,635.5003,635.6987,635.6988,636.1985,,,,,,,,,,,,,,1.1243,1,,,,,,,,,,,,,,z,,,,,,,,,,,,,,,137,0,636.1991,637.3319,z,1,1.1243,,[],[],[],[],[],[],[],637.332,639.3319,639.332,639.3322,[],[],[],[],[],[],[],,639.3323,639.3324,-0.038535433,-0.266054305,0,0,0,,0,136,136,64,1,3,TL,radiply,print,radiply_p.png,,,,,,
,,,,32040,001,2025-10-17_12h25.38.877,HW_LDT_1,2024.2.4,MacIntel,29.15451895,,,,,,,,,,,,,,,,,,,,639.3337,639.532,639.532,640.0319,,,,,,,,,,,,,,1.0948,0,,,,,,,,,,,,,,m,,,,,,,,,,,,,,,138,0,640.0325,641.1319,z,0,1.0948,,[],[],[],[],[],[],[],641.132,643.132,643.132,643.1322,[],[],[],[],[],[],[],,643.1322,643.1324,-0.038535433,-0.266054305,0,0,0,,0,137,137,128,1,3,word,PACIFIC,cursive,pacific_c.png,,,,,,
,,,,32040,001,2025-10-17_12h25.38.877,HW_LDT_1,2024.2.4,MacIntel,29.15451895,,,,,,,,,,,,,,,,,,,,643.134,643.3319,643.3319,643.832,,,,,,,,,,,,,,1.2532,1,,,,,,,,,,,,,,z,,,,,,,,,,,,,,,139,0,643.8326,645.0987,z,1,1.2532,,[],[],[],[],[],[],[],645.0988,647.0986,647.0987,647.0989,[],[],[],[],[],[],[],,647.099,647.0991,-0.038535433,-0.266054305,0,0,0,,0,138,138,72,1,3,TL,senmitent,print,senmitent_p.png,,,,,,
,,,,32040,001,2025-10-17_12h25.38.877,HW_LDT_1,2024.2.4,MacIntel,29.15451895,,,,,,,,,,,,,,,,,,,,647.1004,647.2986,647.2986,647.7982,,,,,,,,,,,,,,0.7864,1,,,,,,,,,,,,,,z,,,,,,,,,,,,,,,140,0,647.7989,648.5987,z,1,0.7864,,[],[],[],[],[],[],[],648.5988,650.5987,650.5987,650.5989,[],[],[],[],[],[],[],,650.599,650.5991,-0.038535433,-0.266054305,0,0,0,,0,139,139,50,1,3,TL,lirebal,print,lirebal_p.png,,,,,,
,,,,32040,001,2025-10-17_12h25.38.877,HW_LDT_1,2024.2.4,MacIntel,29.15451895,,,,,,,,,,,,,,,,,,,,650.6003,650.7986,650.7987,651.2987,,,,,,,,,,,,,,0.9159,1,,,,,,,,,,,,,,m,,,,,,,,,,,,,,,141,0,651.2993,652.232,m,1,0.9159,,[],[],[],[],[],[],[],652.2321,654.2319,654.2319,654.2322,[],[],[],[],[],[],[],,654.2322,654.2323,-0.038535433,-0.266054305,0,0,0,,0,140,140,136,1,3,word,RADICAL,cursive,radical_c.png,,,,,,
,,,,32040,001,2025-10-17_12h25.38.877,HW_LDT_1,2024.2.4,MacIntel,29.15451895,,,,,,,,,,,,,,,,,,,,654.2333,654.432,654.432,654.9318,,,,,,,,,,,,,,0.8167,1,,,,,,,,,,,,,,m,,,,,,,,,,,,,,,142,0,654.9323,655.7654,m,1,0.8167,,[],[],[],[],[],[],[],655.7655,657.7644,657.7644,657.7646,[],[],[],[],[],[],[],,657.7646,657.7647,-0.038535433,-0.266054305,0,0,0,,0,141,141,147,1,3,word,ROMANTIC,cursive,romantic_c.png,,,,,,
,,,,32040,001,2025-10-17_12h25.38.877,HW_LDT_1,2024.2.4,MacIntel,29.15451895,,,,,,,,,,,,,,,,,,,,657.7659,657.9654,657.9654,658.4654,,,,,,,,,,,,,,0.8383,1,,,,,,,,,,,,,,z,,,,,,,,,,,,,,,143,1,658.466,659.3324,z,1,0.8383,,[],[],[],[],[],[],[],659.3325,661.3319,661.332,662.5988,[],[],[],[],[],[],[],z,662.5989,662.5989,-0.038535433,-0.266054305,0,0,0,,0,142,142,63,1,3,TL,racidal,cursive,racidal_c.png,1.2544,,,,,
,,,,32040,001,2025-10-17_12h25.38.877,HW_LDT_1,2024.2.4,MacIntel,29.15451895,,,,,,,,,,,,,,,,,,,,662.6002,662.7986,662.7987,663.2986,,,,,,,,,,,,,,1.2192,1,,,,,,,,,,,,,,z,,,,,,,,,,,,,,,144,0,663.2993,664.5321,z,1,1.2192,,[],[],[],[],[],[],[],664.5321,666.5319,666.532,666.5322,[],[],[],[],[],[],[],,666.5323,666.5324,-0.038535433,-0.266054305,0,0,0,,0,143,143,43,1,3,TL,dedace,cursive,dedace_c.png,,,,,,
,,,,32040,001,2025-10-17_12h25.38.877,HW_LDT_1,2024.2.4,MacIntel,29.15451895,,,,,,,,,,,,,,,,,,,,666.5337,666.7321,666.7321,667.232,,,,,,,,,,,,,,0.7845,1,,,,,,,,,,,,,,z,,,,,,,,,,,,,,,145,0,667.2327,668.0321,z,1,0.7845,,[],[],[],[],[],[],[],668.0322,670.032,670.032,670.0322,[],[],[],[],[],[],[],,670.0323,670.0324,-0.038535433,-0.266054305,0,0,0,,0,144,144,59,1,3,TL,paficic,cursive,paficic_c.png,,,,,,
,,,,32040,001,2025-10-17_12h25.38.877,HW_LDT_1,2024.2.4,MacIntel,29.15451895,,,,,,,,,,,,,,,,,,,,670.0337,670.232,670.232,670.732,,,,,,,,,,,,,,0.9908,1,,,,,,,,,,,,,,z,,,,,,,,,,,,,,,146,1,670.7325,671.732,z,1,0.9908,,[],[],[],[],[],[],[],671.7321,673.7319,673.732,674.7654,[],[],[],[],[],[],[],z,674.7655,674.7657,-0.038535433,-0.266054305,0,0,0,,0,145,145,28,1,3,RL,rovastic,cursive,rovastic_c.png,1.0237,,,,,
,,,,32040,001,2025-10-17_12h25.38.877,HW_LDT_1,2024.2.4,MacIntel,29.15451895,,,,,,,,,,,,,,,,,,,,674.7668,674.9653,674.9653,675.4647,,,,,,,,,,,,,,0.858,1,,,,,,,,,,,,,,m,,,,,,,,,,,,,,,147,0,675.4654,676.332,m,1,0.858,,[],[],[],[],[],[],[],676.3321,678.332,678.332,678.3322,[],[],[],[],[],[],[],,678.3323,678.3324,-0.038535433,-0.266054305,0,0,0,,0,146,146,138,1,3,word,REFUSAL,print,refusal_p.png,,,,,,
,,,,32040,001,2025-10-17_12h25.38.877,HW_LDT_1,2024.2.4,MacIntel,29.15451895,,,,,,,,,,,,,,,,,,,,678.3337,678.532,678.532,679.032,,,,,,,,,,,,,,1.024,0,,,,,,,,,,,,,,z,,,,,,,,,,,,,,,148,0,679.0325,680.0654,m,0,1.024,,[],[],[],[],[],[],[],680.0654,682.0653,682.0654,682.0655,[],[],[],[],[],[],[],,682.0656,682.0656,-0.038535433,-0.266054305,0,0,0,,0,147,147,27,1,3,RL,recile,print,recile_p.png,,,,,,
,,,,32040,001,2025-10-17_12h25.38.877,HW_LDT_1,2024.2.4,MacIntel,29.15451895,,,,,,,,,,,,,,,,,,,,682.0669,682.2652,682.2652,682.7655,,,,,,,,,,,,,,1.3728,1,,,,,,,,,,,,,,z,,,,,,,,,,,,,,,149,0,682.7661,684.1655,z,1,1.3728,,[],[],[],[],[],[],[],684.1656,686.1654,686.1654,686.1657,[],[],[],[],[],[],[],,686.1657,686.1658,-0.038535433,-0.266054305,0,0,0,,0,148,148,16,1,3,RL,mishafe,cursive,mishafe_c.png,,,,,,
,,,,32040,001,2025-10-17_12h25.38.877,HW_LDT_1,2024.2.4,MacIntel,29.15451895,,,,,,,,,,,,,,,,,,,,686.1671,686.3654,686.3655,686.8653,,,,,,,,,,,,,,0.7736,1,,,,,,,,,,,,,,m,,,,,,,,,,,,,,,150,1,686.8659,687.6656,m,1,0.7736,,[],[],[],[],[],[],[],687.6656,689.6653,689.6654,691.8655,[],[],[],[],[],[],[],z,691.8655,691.8658,-0.038535433,-0.266054305,0,0,0,,0,149,149,132,1,3,word,PROPOSAL,print,proposal_p.png,2.1733,,,,,
,,,,32040,001,2025-10-17_12h25.38.877,HW_LDT_1,2024.2.4,MacIntel,29.15451895,,,,,,,,,,,,,,,,,,,,691.8671,692.0653,692.0653,692.5654,,,,,,,,,,,,,,1.0548,1,,,,,,,,,,,,,,z,,,,,,,,,,,,,,,151,0,692.5659,693.6321,z,1,1.0548,,[],[],[],[],[],[],[],693.6323,695.6321,695.6321,695.6323,[],[],[],[],[],[],[],,695.6324,695.6324,-0.038535433,-0.266054305,0,0,0,,0,150,150,74,1,3,TL,spemicen,print,spemicen_p.png,,,,,,
,,,,32040,001,2025-10-17_12h25.38.877,HW_LDT_1,2024.2.4,MacIntel,29.15451895,,,,,,,,,,,,,,,,,,,,695.6338,695.832,695.832,696.3321,,,,,,,,,,,,,,2.4152,0,,,,,,,,,,,,,,m,,,,,,,,,,,,,,,152,0,696.3327,698.7656,z,0,2.4152,,[],[],[],[],[],[],[],698.7657,700.7653,700.7654,700.7655,[],[],[],[],[],[],[],,700.7656,700.7657,-0.038535433,-0.266054305,0,0,0,,0,151,151,145,1,3,word,RESUME,cursive,resume_c.png,,,,,,
,,,,32040,001,2025-10-17_12h25.38.877,HW_LDT_1,2024.2.4,MacIntel,29.15451895,,,,,,,,,,,,,,,,,,,,700.767,700.9654,700.9654,701.4655,,,,,,,,,,,,,,0.983,1,,,,,,,,,,,,,,m,,,,,,,,,,,,,,,153,0,701.466,702.4654,m,1,0.983,,[],[],[],[],[],[],[],702.4655,704.4654,704.4654,704.4656,[],[],[],[],[],[],[],,704.4657,704.4658,-0.038535433,-0.266054305,0,0,0,,0,152,152,84,1,3,word,BELOVED,cursive,beloved_c.png,,,,,,
,,,,32040,001,2025-10-17_12h25.38.877,HW_LDT_1,2024.2.4,MacIntel,29.15451895,,,,,,,,,,,,,,,,,,,,704.4671,704.6653,704.6654,705.1654,,,,,,,,,,,,,,1.2278,0,,,,,,,,,,,,,,m,,,,,,,,,,,,,,,154,1,705.166,706.3987,z,0,1.2278,,[],[],[],[],[],[],[],706.3988,708.3989,708.3989,709.5322,[],[],[],[],[],[],[],z,709.5324,709.5325,-0.038535433,-0.266054305,0,0,0,,0,153,153,149,1,3,word,SENATOR,cursive,senator_c.png,1.1081,,,,,
,,,,32040,001,2025-10-17_12h25.38.877,HW_LDT_1,2024.2.4,MacIntel,29.15451895,,,,,,,,,,,,,,,,,,,,709.5338,709.7321,709.7321,710.2321,,,,,,,,,,,,,,1.1948,0,,,,,,,,,,,,,,z,,,,,,,,,,,,,,,155,0,710.2327,711.432,m,0,1.1948,,[],[],[],[],[],[],[],711.4321,713.4321,713.4322,713.4324,[],[],[],[],[],[],[],,713.4325,713.4325,-0.038535433,-0.266054305,0,0,0,,0,154,154,54,1,3,TL,manire,cursive,manire_c.png,,,,,,
,,,,32040,001,2025-10-17_12h25.38.877,HW_LDT_1,2024.2.4,MacIntel,29.15451895,,,,,,,,,,,,,,,,,,,,713.4337,713.632,713.6321,714.1321,,,,,,,,,,,,,,1.3905,1,,,,,,,,,,,,,,z,,,,,,,,,,,,,,,156,0,714.1326,715.5322,z,1,1.3905,,[],[],[],[],[],[],[],715.5322,717.532,717.5322,717.5323,[],[],[],[],[],[],[],,717.5324,717.5325,-0.038535433,-0.266054305,0,0,0,,0,155,155,12,1,3,RL,formuke,cursive,formuke_c.png,,,,,,
,,,,32040,001,2025-10-17_12h25.38.877,HW_LDT_1,2024.2.4,MacIntel,29.15451895,,,,,,,,,,,,,,,,,,,,717.5337,717.732,717.732,718.2321,,,,,,,,,,,,,,0.8257,1,,,,,,,,,,,,,,m,,,,,,,,,,,,,,,157,1,718.2327,719.0655,m,1,0.8257,,[],[],[],[],[],[],[],719.0656,721.0654,721.0655,721.6988,[],[],[],[],[],[],[],m,721.6988,721.699,-0.038535433,-0.266054305,0,0,0,,0,156,156,146,1,3,word,RETIRE,print,retire_p.png,0.6255,,,,,
,,,,32040,001,2025-10-17_12h25.38.877,HW_LDT_1,2024.2.4,MacIntel,29.15451895,,,,,,,,,,,,,,,,,,,,721.7002,721.8987,721.8987,722.3986,,,,,,,,,,,,,,1.5236,1,,,,,,,,,,,,,,z,,,,,,,,,,,,,,,158,0,722.3992,723.9321,z,1,1.5236,,[],[],[],[],[],[],[],723.9322,725.932,725.9321,725.9322,[],[],[],[],[],[],[],,725.9323,725.9324,-0.038535433,-0.266054305,0,0,0,,0,157,157,4,1,3,RL,cafigal,cursive,cafigal_c.png,,,,,,
,,,,32040,001,2025-10-17_12h25.38.877,HW_LDT_1,2024.2.4,MacIntel,29.15451895,,,,,,,,,,,,,,,,,,,,725.9338,726.1321,726.1321,726.6321,,,,,,,,,,,,,,0.8851,1,,,,,,,,,,,,,,m,,,,,,,,,,,,,,,159,0,726.6326,727.5323,m,1,0.8851,,[],[],[],[],[],[],[],727.5323,729.5322,729.5322,729.5324,[],[],[],[],[],[],[],,729.5325,729.5326,-0.038535433,-0.266054305,0,0,0,,0,158,158,115,1,3,word,LOGICAL,cursive,logical_c.png,,,,,,
,,,,32040,001,2025-10-17_12h25.38.877,HW_LDT_1,2024.2.4,MacIntel,29.15451895,,,,,,,,,,,,,,,,,,,,729.534,729.7321,729.7323,730.2321,,,,,,,,,,,,,,1.38,1,,,,,,,,,,,,,,z,,,,,,,,,,,,,,,160,0,730.2328,731.6322,z,1,1.38,,[],[],[],[],[],[],[],731.6322,733.6321,733.6321,733.6324,[],[],[],[],[],[],[],,733.6324,733.6324,-0.038535433,-0.266054305,0,0,0,,0,159,159,46,1,3,TL,distupe,print,distupe_p.png,,,,,,
,,,,32040,001,2025-10-17_12h25.38.877,HW_LDT_1,2024.2.4,MacIntel,29.15451895,,,,,,,,,,,,,,,,,,,,,,,,,,,,,,,,,,,,,,,,,,,,,,,,,,,,,,,,,,,,,,,,,,,,,,,,,,,,,,,,,,,,,,,,,,,,,,,,,,,,,,,,,,,,,,,,,,,,733.6394,738.6321
