counterbalance_lists.group,counterbalance_lists.remaining,get_list.started,get_list.stopped,participant,session,date,expName,psychopyVersion,OS,frameRate,Instructions.started,Instructions.stopped,key_resp.keys,key_resp.rt,key_resp.duration,instr_done_touch.x,instr_done_touch.y,instr_done_touch.leftButton,instr_done_touch.midButton,instr_done_touch.rightButton,start_instr.thisRepN,start_instr.thisTrialN,start_instr.thisN,start_instr.thisIndex,start_instr.ran,pageN,phase,instruct_text,has_image,instruct_image,showProgress.started,showProgress.stopped,fix.started,fix.stopped,prac.started,prac.stopped,response.keys,response.corr,response.rt,response.duration,touch_resp.x,touch_resp.y,touch_resp.leftButton,touch_resp.midButton,touch_resp.rightButton,touch_resp.time,touch_resp.clicked_name,rt,corr,feedback.started,feedback.stopped,trials.thisRepN,trials.thisTrialN,trials.thisN,trials.thisIndex,trials.ran,TrialID,StimulusType,Condition,PrimeDuration,Prime,Target,corrAns,Instructions_expt.started,Instructions_expt.stopped,key_resp_3.keys,key_resp_3.rt,key_resp_3.duration,instr_done_touch_3.x,instr_done_touch_3.y,instr_done_touch_3.leftButton,instr_done_touch_3.midButton,instr_done_touch_3.rightButton,instr_experiment.thisRepN,instr_experiment.thisTrialN,instr_experiment.thisN,instr_experiment.thisIndex,instr_experiment.ran,trialID,flag,maintask.started,maintask.stopped,key_resp_2.keys,key_resp_2.corr,key_resp_2.rt,key_resp_2.duration,targ_click.x,targ_click.y,targ_click.leftButton,targ_click.midButton,targ_click.rightButton,targ_click.time,targ_click.clicked_name,ITI.started,ITI.stopped,probe.started,probe.stopped,click_probe.x,click_probe.y,click_probe.leftButton,click_probe.midButton,click_probe.rightButton,click_probe.time,click_probe.clicked_name,key_resp_probe.keys,Break.started,Break.stopped,break_done_touch.x,break_done_touch.y,break_done_touch.leftButton,break_done_touch.midButton,break_done_touch.rightButton,break_done_keyboard.keys,list1_trials.thisRepN,list1_trials.thisTrialN,list1_trials.thisN,list1_trials.thisIndex,list1_trials.ran,list_id,item_type,string,font,stim_file,key_resp_probe.rt,key_resp_probe.duration,break_done_keyboard.rt,break_done_keyboard.duration,End.started,End.stopped
list1,,4.842,4.843,32046,001,2025-10-16_18h43.07.396,HW_LDT_1,2024.2.4,MacIntel,58.82352941,,,,,,,,,,,,,,,,,,,,,,,,,,,,,,,,,,,,,,,,,,,,,,,,,,,,,,,,,,,,,,,,,,,,,,,,,,,,,,,,,,,,,,,,,,,,,,,,,,,,,,,,,,,,,,,,,,,,,,,
,,,,32046,001,2025-10-16_18h43.07.396,HW_LDT_1,2024.2.4,MacIntel,58.82352941,4.861,31.341,space,26.448,,-0.005440696,-0.390097933,0,0,0,0,0,0,0,1,1,instructions,"INSTRUCTIONS
At the start of each trial, look at the plus sign  (+) in the center of the screen.  This tells you that a trial is about to begin and where to look. Second, the plus sign will disappear and a string of letters will appear. Your task is to determine if the string of letters is a word or not. If the item is a word press the M key (on keyboard)  or touch the word button (phone/tablet).  If the item is not a word,  press the  Z key (on keyboard)  or touch the nonword button (on phone/tablet). The items will be presented for a short time. 
Press the space bar or touch  continue.",0,,,,,,,,,,,,,,,,,,,,,,,,,,,,,,,,,,,,,,,,,,,,,,,,,,,,,,,,,,,,,,,,,,,,,,,,,,,,,,,,,,,,,,,,,,,,,,,,,,,,
,,,,32046,001,2025-10-16_18h43.07.396,HW_LDT_1,2024.2.4,MacIntel,58.82352941,31.343,39.035,space,7.663,,-0.005440696,-0.390097933,0,0,0,0,1,1,1,1,2,instructions,"If your device has a keyboard, press the 'Z' key for nonwords and the 'M' key for words.





Press the space bar or touch the button below to continue.",0,keyboard-example.gif,,,,,,,,,,,,,,,,,,,,,,,,,,,,,,,,,,,,,,,,,,,,,,,,,,,,,,,,,,,,,,,,,,,,,,,,,,,,,,,,,,,,,,,,,,,,,,,,,,,
,,,,32046,001,2025-10-16_18h43.07.396,HW_LDT_1,2024.2.4,MacIntel,58.82352941,39.037,41.318,space,2.241,,-0.005440696,-0.390097933,0,0,0,0,2,2,2,1,3,instructions,"If you are using a touchscreen only device, use the buttons on the screen. Do not use the mouse.





Press the space bar or touch the button below to continue.",0,touchscreen-example.gif,,,,,,,,,,,,,,,,,,,,,,,,,,,,,,,,,,,,,,,,,,,,,,,,,,,,,,,,,,,,,,,,,,,,,,,,,,,,,,,,,,,,,,,,,,,,,,,,,,,
,,,,32046,001,2025-10-16_18h43.07.396,HW_LDT_1,2024.2.4,MacIntel,58.82352941,41.32,62.302,space,20.949,,-0.005440696,-0.390097933,0,0,0,0,3,3,3,1,4,instructions,"It is very important that you respond as quickly and accurately as possible, as each letter string will only be on the screen for two seconds. If you do not respond within this time, the message 'Too slow!' will be displayed and the experiment will progress to the next letter string. The first 20 trials will be practice trials and you will receive feedback on your answers. 

Press the space bar or touch the button below to start the practice trials.",0,,,,,,,,,,,,,,,,,,,,,,,,,,,,,,,,,,,,,,,,,,,,,,,,,,,,,,,,,,,,,,,,,,,,,,,,,,,,,,,,,,,,,,,,,,,,,,,,,,,,
,,,,32046,001,2025-10-16_18h43.07.396,HW_LDT_1,2024.2.4,MacIntel,58.82352941,,,,,,,,,,,,,,,,,,,,,62.324,62.502,62.502,63.002,63.002,65.819,z,1,2.794,,[],[],[],[],[],[],[],2.794,1,65.819,66.319,0,0,0,11,1,1012,NW,"ID",16,rashet,RASHET,z,,,,,,,,,,,,,,,,,,,,,,,,,,,,,,,,,,,,,,,,,,,,,,,,,,,,,,,,,,,,,,,,,,
,,,,32046,001,2025-10-16_18h43.07.396,HW_LDT_1,2024.2.4,MacIntel,58.82352941,,,,,,,,,,,,,,,,,,,,,66.32,66.518,66.519,67.018,67.019,68.435,z,1,1.395,,[],[],[],[],[],[],[],1.395,1,68.436,68.935,0,1,1,8,1,1009,NW,"ID",33,aslert,ASLERT,z,,,,,,,,,,,,,,,,,,,,,,,,,,,,,,,,,,,,,,,,,,,,,,,,,,,,,,,,,,,,,,,,,,
,,,,32046,001,2025-10-16_18h43.07.396,HW_LDT_1,2024.2.4,MacIntel,58.82352941,,,,,,,,,,,,,,,,,,,,,68.936,69.135,69.135,69.635,69.636,70.818,m,1,1.163,,[],[],[],[],[],[],[],1.163,1,70.818,71.318,0,2,2,6,1,1007,WORD,UN,16,tropic,ZOMBIE,m,,,,,,,,,,,,,,,,,,,,,,,,,,,,,,,,,,,,,,,,,,,,,,,,,,,,,,,,,,,,,,,,,,
,,,,32046,001,2025-10-16_18h43.07.396,HW_LDT_1,2024.2.4,MacIntel,58.82352941,,,,,,,,,,,,,,,,,,,,,71.319,71.518,71.518,72.018,72.019,73.202,m,1,1.165,,[],[],[],[],[],[],[],1.165,1,73.202,73.702,0,3,3,1,1,1002,WORD,"ID",33,adjust,ADJUST,m,,,,,,,,,,,,,,,,,,,,,,,,,,,,,,,,,,,,,,,,,,,,,,,,,,,,,,,,,,,,,,,,,,
,,,,32046,001,2025-10-16_18h43.07.396,HW_LDT_1,2024.2.4,MacIntel,58.82352941,,,,,,,,,,,,,,,,,,,,,73.703,73.902,73.902,74.401,74.402,75.501,z,1,1.088,,[],[],[],[],[],[],[],1.088,1,75.502,76.002,0,4,4,15,1,1016,NW,UN,16,mushed,WHAISE,z,,,,,,,,,,,,,,,,,,,,,,,,,,,,,,,,,,,,,,,,,,,,,,,,,,,,,,,,,,,,,,,,,,
,,,,32046,001,2025-10-16_18h43.07.396,HW_LDT_1,2024.2.4,MacIntel,58.82352941,,,,,,,,,,,,,,,,,,,,,76.002,76.202,76.202,76.702,76.702,77.668,z,1,0.945,,[],[],[],[],[],[],[],0.945,1,77.668,78.168,0,5,5,14,1,1015,NW,UN,16,miaber,THRALE,z,,,,,,,,,,,,,,,,,,,,,,,,,,,,,,,,,,,,,,,,,,,,,,,,,,,,,,,,,,,,,,,,,,
,,,,32046,001,2025-10-16_18h43.07.396,HW_LDT_1,2024.2.4,MacIntel,58.82352941,,,,,,,,,,,,,,,,,,,,,78.17,78.368,78.368,78.868,78.869,80.135,z,1,1.246,,[],[],[],[],[],[],[],1.246,1,80.135,80.634,0,6,6,12,1,1013,NW,UN,33,adveil,SPRINY,z,,,,,,,,,,,,,,,,,,,,,,,,,,,,,,,,,,,,,,,,,,,,,,,,,,,,,,,,,,,,,,,,,,
,,,,32046,001,2025-10-16_18h43.07.396,HW_LDT_1,2024.2.4,MacIntel,58.82352941,,,,,,,,,,,,,,,,,,,,,80.635,80.835,80.835,81.335,81.335,82.171,m,1,0.822,,[],[],[],[],[],[],[],0.822,1,82.171,82.668,0,7,7,0,1,1001,WORD,"ID",33,utopia,UTOPIA,m,,,,,,,,,,,,,,,,,,,,,,,,,,,,,,,,,,,,,,,,,,,,,,,,,,,,,,,,,,,,,,,,,,
,,,,32046,001,2025-10-16_18h43.07.396,HW_LDT_1,2024.2.4,MacIntel,58.82352941,,,,,,,,,,,,,,,,,,,,,82.669,82.868,82.868,83.368,83.369,84.152,m,1,0.763,,[],[],[],[],[],[],[],0.763,1,84.152,84.652,0,8,8,2,1,1003,WORD,"ID",16,almond,ALMOND,m,,,,,,,,,,,,,,,,,,,,,,,,,,,,,,,,,,,,,,,,,,,,,,,,,,,,,,,,,,,,,,,,,,
,,,,32046,001,2025-10-16_18h43.07.396,HW_LDT_1,2024.2.4,MacIntel,58.82352941,,,,,,,,,,,,,,,,,,,,,84.652,84.852,84.852,85.351,85.352,86.118,m,1,0.747,,[],[],[],[],[],[],[],0.747,1,86.119,86.618,0,9,9,4,1,1005,WORD,UN,33,abound,SQUEAK,m,,,,,,,,,,,,,,,,,,,,,,,,,,,,,,,,,,,,,,,,,,,,,,,,,,,,,,,,,,,,,,,,,,
,,,,32046,001,2025-10-16_18h43.07.396,HW_LDT_1,2024.2.4,MacIntel,58.82352941,,,,,,,,,,,,,,,,,,,,,86.619,86.818,86.818,87.318,87.319,88.135,z,1,0.796,,[],[],[],[],[],[],[],0.796,1,88.135,88.635,0,10,10,13,1,1014,NW,UN,33,winfer,ROUPET,z,,,,,,,,,,,,,,,,,,,,,,,,,,,,,,,,,,,,,,,,,,,,,,,,,,,,,,,,,,,,,,,,,,
,,,,32046,001,2025-10-16_18h43.07.396,HW_LDT_1,2024.2.4,MacIntel,58.82352941,,,,,,,,,,,,,,,,,,,,,88.636,88.835,88.835,89.335,89.335,90.018,m,1,0.663,,[],[],[],[],[],[],[],0.663,1,90.018,90.518,0,11,11,7,1,1008,WORD,UN,16,hurdle,VOLUME,m,,,,,,,,,,,,,,,,,,,,,,,,,,,,,,,,,,,,,,,,,,,,,,,,,,,,,,,,,,,,,,,,,,
,,,,32046,001,2025-10-16_18h43.07.396,HW_LDT_1,2024.2.4,MacIntel,58.82352941,,,,,,,,,,,,,,,,,,,,,90.519,90.718,90.718,91.218,91.219,92.368,m,1,1.134,,[],[],[],[],[],[],[],1.134,1,92.369,92.868,0,12,12,3,1,1004,WORD,"ID",16,matrix,MATRIX,m,,,,,,,,,,,,,,,,,,,,,,,,,,,,,,,,,,,,,,,,,,,,,,,,,,,,,,,,,,,,,,,,,,
,,,,32046,001,2025-10-16_18h43.07.396,HW_LDT_1,2024.2.4,MacIntel,58.82352941,,,,,,,,,,,,,,,,,,,,,92.869,93.067,93.067,93.568,93.569,94.434,z,1,0.846,,[],[],[],[],[],[],[],0.846,1,94.435,94.935,0,13,13,9,1,1010,NW,"ID",33,fariny,FARINY,z,,,,,,,,,,,,,,,,,,,,,,,,,,,,,,,,,,,,,,,,,,,,,,,,,,,,,,,,,,,,,,,,,,
,,,,32046,001,2025-10-16_18h43.07.396,HW_LDT_1,2024.2.4,MacIntel,58.82352941,,,,,,,,,,,,,,,,,,,,,94.936,95.135,95.135,95.635,95.635,96.835,m,1,1.187,,[],[],[],[],[],[],[],1.187,1,96.835,97.335,0,14,14,5,1,1006,WORD,UN,33,frenzy,OBTAIN,m,,,,,,,,,,,,,,,,,,,,,,,,,,,,,,,,,,,,,,,,,,,,,,,,,,,,,,,,,,,,,,,,,,
,,,,32046,001,2025-10-16_18h43.07.396,HW_LDT_1,2024.2.4,MacIntel,58.82352941,,,,,,,,,,,,,,,,,,,,,97.335,97.535,97.535,98.035,98.036,99.218,z,1,1.171,,[],[],[],[],[],[],[],1.171,1,99.219,99.718,0,15,15,10,1,1011,NW,"ID",16,inlade,INLADE,z,,,,,,,,,,,,,,,,,,,,,,,,,,,,,,,,,,,,,,,,,,,,,,,,,,,,,,,,,,,,,,,,,,
,,,,32046,001,2025-10-16_18h43.07.396,HW_LDT_1,2024.2.4,MacIntel,58.82352941,,,,,,,,,,,,,,,,1,end_of_practice,"You have completed the practice trials. During the experimental trials, you will not receive feedback. On some trials you will be asked to report whether the item you just saw was in cursive or print. 
Before you begin, please ensure that you are in a comfortable and quiet location and will not be disturbed for about 15 minutes, as we cannot use your data if you do not complete all the trials. 
 When you are ready to start the experimental trials, please press space or touch the button below.",,,,,,,,,,,,,,,,,,,,,,,,,,,,,,,,,,,,99.723,101.852,space,2.09,,-0.005440696,-0.390097933,0,0,0,0,0,0,0,1,,,,,,,,,,,,,,,,,,,,,,,,,,,,,,,,,,,,,,,,,,,,,,,,,,,
,,,,32046,001,2025-10-16_18h43.07.396,HW_LDT_1,2024.2.4,MacIntel,58.82352941,,,,,,,,,,,,,,,,,,,,,101.865,102.051,102.051,102.551,,,,,,,,,,,,,,2.386,1,,,,,,,,,,,,,,m,,,,,,,,,,,,,,,,1,0,102.552,104.952,m,1,2.386,,[],[],[],[],[],[],[],104.953,106.952,106.952,106.956,[],[],[],[],[],[],[],,106.957,106.959,-0.005440696,-0.390097933,0,0,0,,0,0,0,130,1,1,word,POLICY,cursive,policy_c.png,,,,,,
,,,,32046,001,2025-10-16_18h43.07.396,HW_LDT_1,2024.2.4,MacIntel,58.82352941,,,,,,,,,,,,,,,,,,,,,106.959,107.152,107.152,107.651,,,,,,,,,,,,,,1.593,1,,,,,,,,,,,,,,z,,,,,,,,,,,,,,,,2,1,107.652,109.252,z,1,1.593,,[],[],[],[],[],[],[],109.252,111.252,111.252,116.618,[],[],[],[],[],[],[],m,116.618,116.619,-0.005440696,-0.390097933,0,0,0,,0,1,1,71,1,1,TL,regilion,cursive,regilion_c.png,5.353,,,,,
,,,,32046,001,2025-10-16_18h43.07.396,HW_LDT_1,2024.2.4,MacIntel,58.82352941,,,,,,,,,,,,,,,,,,,,,116.62,116.818,116.818,117.318,,,,,,,,,,,,,,3.821,1,,,,,,,,,,,,,,m,,,,,,,,,,,,,,,,3,0,117.319,121.152,m,1,3.821,,[],[],[],[],[],[],[],121.152,123.151,123.152,123.152,[],[],[],[],[],[],[],,123.152,123.152,-0.005440696,-0.390097933,0,0,0,,0,2,2,141,1,1,word,RELIGION,cursive,religion_c.png,,,,,,
,,,,32046,001,2025-10-16_18h43.07.396,HW_LDT_1,2024.2.4,MacIntel,58.82352941,,,,,,,,,,,,,,,,,,,,,123.153,123.351,123.351,123.851,,,,,,,,,,,,,,2.053,1,,,,,,,,,,,,,,z,,,,,,,,,,,,,,,,4,0,123.852,125.918,z,1,2.053,,[],[],[],[],[],[],[],125.918,127.918,127.918,127.919,[],[],[],[],[],[],[],,127.919,127.919,-0.005440696,-0.390097933,0,0,0,,0,3,3,40,1,1,TL,atameur,print,atameur_p.png,,,,,,
,,,,32046,001,2025-10-16_18h43.07.396,HW_LDT_1,2024.2.4,MacIntel,58.82352941,,,,,,,,,,,,,,,,,,,,,127.919,128.118,128.118,128.618,,,,,,,,,,,,,,0.944,1,,,,,,,,,,,,,,m,,,,,,,,,,,,,,,,5,0,128.618,129.568,m,1,0.944,,[],[],[],[],[],[],[],129.568,131.567,131.567,131.568,[],[],[],[],[],[],[],,131.568,131.568,-0.005440696,-0.390097933,0,0,0,,0,4,4,142,1,1,word,REMOTE,print,remote_p.png,,,,,,
,,,,32046,001,2025-10-16_18h43.07.396,HW_LDT_1,2024.2.4,MacIntel,58.82352941,,,,,,,,,,,,,,,,,,,,,131.569,131.768,131.768,132.268,,,,,,,,,,,,,,2.122,1,,,,,,,,,,,,,,z,,,,,,,,,,,,,,,,6,0,132.268,134.401,z,1,2.122,,[],[],[],[],[],[],[],134.401,136.401,136.402,136.402,[],[],[],[],[],[],[],,136.402,136.402,-0.005440696,-0.390097933,0,0,0,,0,5,5,33,1,1,RL,recile,cursive,recile_c.png,,,,,,
,,,,32046,001,2025-10-16_18h43.07.396,HW_LDT_1,2024.2.4,MacIntel,58.82352941,,,,,,,,,,,,,,,,,,,,,136.403,136.601,136.602,137.102,,,,,,,,,,,,,,0.845,1,,,,,,,,,,,,,,m,,,,,,,,,,,,,,,,7,0,137.102,137.953,m,1,0.845,,[],[],[],[],[],[],[],137.954,139.951,139.951,139.952,[],[],[],[],[],[],[],,139.952,139.952,-0.005440696,-0.390097933,0,0,0,,0,6,6,85,1,1,word,BENEFIT,print,benefit_p.png,,,,,,
,,,,32046,001,2025-10-16_18h43.07.396,HW_LDT_1,2024.2.4,MacIntel,58.82352941,,,,,,,,,,,,,,,,,,,,,139.953,140.151,140.151,140.651,,,,,,,,,,,,,,1.146,1,,,,,,,,,,,,,,z,,,,,,,,,,,,,,,,8,0,140.652,141.802,z,1,1.146,,[],[],[],[],[],[],[],141.802,143.802,143.802,143.802,[],[],[],[],[],[],[],,143.802,143.802,-0.005440696,-0.390097933,0,0,0,,0,7,7,46,1,1,TL,catipal,print,catipal_p.png,,,,,,
,,,,32046,001,2025-10-16_18h43.07.396,HW_LDT_1,2024.2.4,MacIntel,58.82352941,,,,,,,,,,,,,,,,,,,,,143.803,144.002,144.002,144.501,,,,,,,,,,,,,,1.519,1,,,,,,,,,,,,,,z,,,,,,,,,,,,,,,,9,0,144.502,146.035,z,1,1.519,,[],[],[],[],[],[],[],146.035,148.035,148.035,148.035,[],[],[],[],[],[],[],,148.035,148.035,-0.005440696,-0.390097933,0,0,0,,0,8,8,4,1,1,RL,carminal,print,carminal_p.png,,,,,,
,,,,32046,001,2025-10-16_18h43.07.396,HW_LDT_1,2024.2.4,MacIntel,58.82352941,,,,,,,,,,,,,,,,,,,,,148.036,148.235,148.235,148.735,,,,,,,,,,,,,,1.807,1,,,,,,,,,,,,,,m,,,,,,,,,,,,,,,,10,0,148.735,150.551,m,1,1.807,,[],[],[],[],[],[],[],150.552,152.551,152.551,152.551,[],[],[],[],[],[],[],,152.551,152.552,-0.005440696,-0.390097933,0,0,0,,0,9,9,158,1,1,word,VELOCITY,print,velocity_p.png,,,,,,
,,,,32046,001,2025-10-16_18h43.07.396,HW_LDT_1,2024.2.4,MacIntel,58.82352941,,,,,,,,,,,,,,,,,,,,,152.552,152.751,152.751,153.252,,,,,,,,,,,,,,3.137,1,,,,,,,,,,,,,,z,,,,,,,,,,,,,,,,11,0,153.252,156.402,z,1,3.137,,[],[],[],[],[],[],[],156.402,158.401,158.401,158.402,[],[],[],[],[],[],[],,158.402,158.402,-0.005440696,-0.390097933,0,0,0,,0,10,10,66,1,1,TL,panert,cursive,panert_c.png,,,,,,
,,,,32046,001,2025-10-16_18h43.07.396,HW_LDT_1,2024.2.4,MacIntel,58.82352941,,,,,,,,,,,,,,,,,,,,,158.402,158.601,158.601,159.101,,,,,,,,,,,,,,0.97,1,,,,,,,,,,,,,,z,,,,,,,,,,,,,,,,12,0,159.102,160.085,z,1,0.97,,[],[],[],[],[],[],[],160.085,162.085,162.085,162.085,[],[],[],[],[],[],[],,162.085,162.085,-0.005440696,-0.390097933,0,0,0,,0,11,11,14,1,1,RL,lofase,print,lofase_p.png,,,,,,
,,,,32046,001,2025-10-16_18h43.07.396,HW_LDT_1,2024.2.4,MacIntel,58.82352941,,,,,,,,,,,,,,,,,,,,,162.086,162.285,162.285,162.785,,,,,,,,,,,,,,0.944,1,,,,,,,,,,,,,,z,,,,,,,,,,,,,,,,13,0,162.785,163.734,z,1,0.944,,[],[],[],[],[],[],[],163.735,165.735,165.735,165.735,[],[],[],[],[],[],[],,165.735,165.735,-0.005440696,-0.390097933,0,0,0,,0,12,12,72,1,1,TL,remuse,print,remuse_p.png,,,,,,
,,,,32046,001,2025-10-16_18h43.07.396,HW_LDT_1,2024.2.4,MacIntel,58.82352941,,,,,,,,,,,,,,,,,,,,,165.736,165.935,165.935,166.435,,,,,,,,,,,,,,1.858,1,,,,,,,,,,,,,,m,,,,,,,,,,,,,,,,14,0,166.435,168.301,m,1,1.858,,[],[],[],[],[],[],[],168.302,170.301,170.301,170.301,[],[],[],[],[],[],[],,170.301,170.301,-0.005440696,-0.390097933,0,0,0,,0,13,13,120,1,1,word,MILITARY,print,military_p.png,,,,,,
,,,,32046,001,2025-10-16_18h43.07.396,HW_LDT_1,2024.2.4,MacIntel,58.82352941,,,,,,,,,,,,,,,,,,,,,170.302,170.501,170.502,171.001,,,,,,,,,,,,,,1.555,1,,,,,,,,,,,,,,m,,,,,,,,,,,,,,,,15,0,171.002,172.567,m,1,1.555,,[],[],[],[],[],[],[],172.568,174.567,174.567,174.567,[],[],[],[],[],[],[],,174.567,174.567,-0.005440696,-0.390097933,0,0,0,,0,14,14,159,1,1,word,VETERAN,print,veteran_p.png,,,,,,
,,,,32046,001,2025-10-16_18h43.07.396,HW_LDT_1,2024.2.4,MacIntel,58.82352941,,,,,,,,,,,,,,,,,,,,,174.568,174.768,174.768,175.268,,,,,,,,,,,,,,0.762,1,,,,,,,,,,,,,,z,,,,,,,,,,,,,,,,16,0,175.268,176.035,z,1,0.762,,[],[],[],[],[],[],[],176.035,178.034,178.034,178.035,[],[],[],[],[],[],[],,178.035,178.035,-0.005440696,-0.390097933,0,0,0,,0,15,15,60,1,1,TL,manire,print,manire_p.png,,,,,,
,,,,32046,001,2025-10-16_18h43.07.396,HW_LDT_1,2024.2.4,MacIntel,58.82352941,,,,,,,,,,,,,,,,,,,,,178.035,178.235,178.235,178.735,,,,,,,,,,,,,,1.841,1,,,,,,,,,,,,,,z,,,,,,,,,,,,,,,,17,0,178.735,180.584,z,1,1.841,,[],[],[],[],[],[],[],180.584,182.584,182.585,182.585,[],[],[],[],[],[],[],,182.585,182.585,-0.005440696,-0.390097933,0,0,0,,0,16,16,0,1,1,RL,abanemy,cursive,abanemy_c.png,,,,,,
,,,,32046,001,2025-10-16_18h43.07.396,HW_LDT_1,2024.2.4,MacIntel,58.82352941,,,,,,,,,,,,,,,,,,,,,182.586,182.785,182.785,183.285,,,,,,,,,,,,,,1.459,1,,,,,,,,,,,,,,z,,,,,,,,,,,,,,,,18,0,183.285,184.751,z,1,1.459,,[],[],[],[],[],[],[],184.751,186.751,186.752,186.752,[],[],[],[],[],[],[],,186.752,186.752,-0.005440696,-0.390097933,0,0,0,,0,17,17,13,1,1,RL,linefal,print,linefal_p.png,,,,,,
,,,,32046,001,2025-10-16_18h43.07.396,HW_LDT_1,2024.2.4,MacIntel,58.82352941,,,,,,,,,,,,,,,,,,,,,186.753,186.951,186.951,187.451,,,,,,,,,,,,,,1.654,1,,,,,,,,,,,,,,z,,,,,,,,,,,,,,,,19,0,187.452,189.118,z,1,1.654,,[],[],[],[],[],[],[],189.118,191.118,191.118,191.118,[],[],[],[],[],[],[],,191.118,191.118,-0.005440696,-0.390097933,0,0,0,,0,18,18,79,1,1,TL,veretan,print,veretan_p.png,,,,,,
,,,,32046,001,2025-10-16_18h43.07.396,HW_LDT_1,2024.2.4,MacIntel,58.82352941,,,,,,,,,,,,,,,,,,,,,191.119,191.318,191.318,191.818,,,,,,,,,,,,,,2.888,1,,,,,,,,,,,,,,m,,,,,,,,,,,,,,,,20,0,191.818,194.718,m,1,2.888,,[],[],[],[],[],[],[],194.718,196.718,196.718,196.718,[],[],[],[],[],[],[],,196.718,196.718,-0.005440696,-0.390097933,0,0,0,,0,19,19,134,1,1,word,QUALIFY,cursive,qualify_c.png,,,,,,
,,,,32046,001,2025-10-16_18h43.07.396,HW_LDT_1,2024.2.4,MacIntel,58.82352941,,,,,,,,,,,,,,,,,,,,,196.719,196.918,196.918,197.418,,,,,,,,,,,,,,4.929,1,,,,,,,,,,,,,,m,,,,,,,,,,,,,,,,21,0,197.418,202.354,m,1,4.929,,[],[],[],[],[],[],[],202.354,204.351,204.352,204.352,[],[],[],[],[],[],[],,204.352,204.352,-0.005440696,-0.390097933,0,0,0,,0,20,20,129,1,1,word,PARENT,cursive,parent_c.png,,,,,,
,,,,32046,001,2025-10-16_18h43.07.396,HW_LDT_1,2024.2.4,MacIntel,58.82352941,,,,,,,,,,,,,,,,,,,,,204.353,204.551,204.551,205.051,,,,,,,,,,,,,,1.295,1,,,,,,,,,,,,,,m,,,,,,,,,,,,,,,,22,0,205.052,206.354,m,1,1.295,,[],[],[],[],[],[],[],206.354,208.351,208.351,208.352,[],[],[],[],[],[],[],,208.352,208.352,-0.005440696,-0.390097933,0,0,0,,0,21,21,133,1,1,word,PROVIDE,print,provide_p.png,,,,,,
,,,,32046,001,2025-10-16_18h43.07.396,HW_LDT_1,2024.2.4,MacIntel,58.82352941,,,,,,,,,,,,,,,,,,,,,208.352,208.551,208.551,209.051,,,,,,,,,,,,,,1.761,1,,,,,,,,,,,,,,z,,,,,,,,,,,,,,,,23,0,209.052,210.818,z,1,1.761,,[],[],[],[],[],[],[],210.818,212.818,212.818,212.818,[],[],[],[],[],[],[],,212.818,212.818,-0.005440696,-0.390097933,0,0,0,,0,22,22,8,1,1,RL,debave,print,debave_p.png,,,,,,
,,,,32046,001,2025-10-16_18h43.07.396,HW_LDT_1,2024.2.4,MacIntel,58.82352941,,,,,,,,,,,,,,,,,,,,,212.819,213.018,213.018,213.518,,,,,,,,,,,,,,1.17,1,,,,,,,,,,,,,,m,,,,,,,,,,,,,,,,24,0,213.518,214.702,m,1,1.17,,[],[],[],[],[],[],[],214.702,216.701,216.701,216.702,[],[],[],[],[],[],[],,216.702,216.702,-0.005440696,-0.390097933,0,0,0,,0,23,23,124,1,1,word,NUMERICAL,print,numerical_p.png,,,,,,
,,,,32046,001,2025-10-16_18h43.07.396,HW_LDT_1,2024.2.4,MacIntel,58.82352941,,,,,,,,,,,,,,,,,,,,,216.703,216.901,216.901,217.401,,,,,,,,,,,,,,1.004,1,,,,,,,,,,,,,,m,,,,,,,,,,,,,,,,25,1,217.402,218.418,m,1,1.004,,[],[],[],[],[],[],[],218.418,220.418,220.418,223.101,[],[],[],[],[],[],[],m,223.101,223.102,-0.005440696,-0.390097933,0,0,0,,0,24,24,92,1,1,word,CATEGORY,print,category_p.png,2.675,,,,,
,,,,32046,001,2025-10-16_18h43.07.396,HW_LDT_1,2024.2.4,MacIntel,58.82352941,,,,,,,,,,,,,,,,,,,,,223.102,223.301,223.301,223.801,,,,,,,,,,,,,,2.07,1,,,,,,,,,,,,,,m,,,,,,,,,,,,,,,,26,0,223.801,225.884,m,1,2.07,,[],[],[],[],[],[],[],225.884,227.884,227.885,227.885,[],[],[],[],[],[],[],,227.885,227.885,-0.005440696,-0.390097933,0,0,0,,0,25,25,121,1,1,word,MISTAKE,print,mistake_p.png,,,,,,
,,,,32046,001,2025-10-16_18h43.07.396,HW_LDT_1,2024.2.4,MacIntel,58.82352941,,,,,,,,,,,,,,,,,,,,,227.886,228.084,228.084,228.585,,,,,,,,,,,,,,1.572,1,,,,,,,,,,,,,,m,,,,,,,,,,,,,,,,27,0,228.585,230.168,m,1,1.572,,[],[],[],[],[],[],[],230.168,232.168,232.168,232.168,[],[],[],[],[],[],[],,232.168,232.168,-0.005440696,-0.390097933,0,0,0,,0,26,26,156,1,1,word,TRIBUTE,cursive,tribute_c.png,,,,,,
,,,,32046,001,2025-10-16_18h43.07.396,HW_LDT_1,2024.2.4,MacIntel,58.82352941,,,,,,,,,,,,,,,,,,,,,232.169,232.368,232.368,232.868,,,,,,,,,,,,,,2.755,1,,,,,,,,,,,,,,z,,,,,,,,,,,,,,,,28,0,232.868,235.635,z,1,2.755,,[],[],[],[],[],[],[],235.635,237.634,237.635,237.635,[],[],[],[],[],[],[],,237.635,237.635,-0.005440696,-0.390097933,0,0,0,,0,27,27,69,1,1,TL,radiply,cursive,radiply_c.png,,,,,,
,,,,32046,001,2025-10-16_18h43.07.396,HW_LDT_1,2024.2.4,MacIntel,58.82352941,,,,,,,,,,,,,,,,,,,,,237.636,237.834,237.835,238.335,,,,,,,,,,,,,,1.791,1,,,,,,,,,,,,,,z,,,,,,,,,,,,,,,,29,0,238.335,240.135,z,1,1.791,,[],[],[],[],[],[],[],240.135,242.134,242.134,242.135,[],[],[],[],[],[],[],,242.135,242.135,-0.005440696,-0.390097933,0,0,0,,0,28,28,11,1,1,RL,elacodate,print,elacodate_p.png,,,,,,
,,,,32046,001,2025-10-16_18h43.07.396,HW_LDT_1,2024.2.4,MacIntel,58.82352941,,,,,,,,,,,,,,,,,,,,,242.135,242.335,242.335,242.835,,,,,,,,,,,,,,1.461,1,,,,,,,,,,,,,,m,,,,,,,,,,,,,,,,30,0,242.835,244.301,m,1,1.461,,[],[],[],[],[],[],[],244.301,246.301,246.301,246.301,[],[],[],[],[],[],[],,246.301,246.302,-0.005440696,-0.390097933,0,0,0,,0,29,29,127,1,1,word,ORIGINAL,cursive,original_c.png,,,,,,
,,,,32046,001,2025-10-16_18h43.07.396,HW_LDT_1,2024.2.4,MacIntel,58.82352941,,,,,,,,,,,,,,,,,,,,,246.303,246.501,246.501,247.001,,,,,,,,,,,,,,4.07,0,,,,,,,,,,,,,,m,,,,,,,,,,,,,,,,31,1,247.002,251.085,z,0,4.07,,[],[],[],[],[],[],[],251.085,253.085,253.085,255.468,[],[],[],[],[],[],[],z,255.468,255.468,-0.005440696,-0.390097933,0,0,0,,0,30,30,101,1,1,word,DELICATE,cursive,delicate_c.png,2.38,,,,,
,,,,32046,001,2025-10-16_18h43.07.396,HW_LDT_1,2024.2.4,MacIntel,58.82352941,,,,,,,,,,,,,,,,,,,,,255.469,255.668,255.668,256.168,,,,,,,,,,,,,,2.245,1,,,,,,,,,,,,,,m,,,,,,,,,,,,,,,,32,0,256.168,258.42,m,1,2.245,,[],[],[],[],[],[],[],258.42,260.418,260.418,260.418,[],[],[],[],[],[],[],,260.418,260.418,-0.005440696,-0.390097933,0,0,0,,0,31,31,153,1,1,word,STOLEN,print,stolen_p.png,,,,,,
,,,,32046,001,2025-10-16_18h43.07.396,HW_LDT_1,2024.2.4,MacIntel,58.82352941,,,,,,,,,,,,,,,,,,,,,260.419,260.618,260.618,261.118,,,,,,,,,,,,,,1.011,1,,,,,,,,,,,,,,m,,,,,,,,,,,,,,,,33,1,261.118,262.137,m,1,1.011,,[],[],[],[],[],[],[],262.137,264.135,264.135,265.968,[],[],[],[],[],[],[],z,265.968,265.968,-0.005440696,-0.390097933,0,0,0,,0,32,32,131,1,1,word,POPULAR,cursive,popular_c.png,1.827,,,,,
,,,,32046,001,2025-10-16_18h43.07.396,HW_LDT_1,2024.2.4,MacIntel,58.82352941,,,,,,,,,,,,,,,,,,,,,265.969,266.168,266.168,266.668,,,,,,,,,,,,,,2.99,1,,,,,,,,,,,,,,z,,,,,,,,,,,,,,,,34,0,266.668,269.668,z,1,2.99,,[],[],[],[],[],[],[],269.668,271.668,271.668,271.668,[],[],[],[],[],[],[],,271.668,271.668,-0.005440696,-0.390097933,0,0,0,,0,33,33,39,1,1,RL,vabifity,cursive,vabifity_c.png,,,,,,
,,,,32046,001,2025-10-16_18h43.07.396,HW_LDT_1,2024.2.4,MacIntel,58.82352941,,,,,,,,,,,,,,,,,,,,,271.669,271.868,271.868,272.367,,,,,,,,,,,,,,1.254,1,,,,,,,,,,,,,,z,,,,,,,,,,,,,,,,35,0,272.368,273.635,z,1,1.254,,[],[],[],[],[],[],[],273.635,275.635,275.635,275.635,[],[],[],[],[],[],[],,275.635,275.635,-0.005440696,-0.390097933,0,0,0,,0,34,34,55,1,1,TL,fornute,print,fornute_p.png,,,,,,
,,,,32046,001,2025-10-16_18h43.07.396,HW_LDT_1,2024.2.4,MacIntel,58.82352941,,,,,,,,,,,,,,,,,,,,,275.636,275.834,275.834,276.335,,,,,,,,,,,,,,1.897,1,,,,,,,,,,,,,,m,,,,,,,,,,,,,,,,36,0,276.335,278.238,m,1,1.897,,[],[],[],[],[],[],[],278.238,280.234,280.234,280.234,[],[],[],[],[],[],[],,280.234,280.234,-0.005440696,-0.390097933,0,0,0,,0,35,35,157,1,1,word,VALIDITY,cursive,validity_c.png,,,,,,
,,,,32046,001,2025-10-16_18h43.07.396,HW_LDT_1,2024.2.4,MacIntel,58.82352941,,,,,,,,,,,,,,,,,,,,,280.235,280.434,280.434,280.935,,,,,,,,,,,,,,2.254,1,,,,,,,,,,,,,,z,,,,,,,,,,,,,,,,37,1,280.935,283.201,z,1,2.254,,[],[],[],[],[],[],[],283.202,285.201,285.201,286.818,[],[],[],[],[],[],[],z,286.818,286.818,-0.005440696,-0.390097933,0,0,0,,0,36,36,5,1,1,RL,cobeny,cursive,cobeny_c.png,1.614,,,,,
,,,,32046,001,2025-10-16_18h43.07.396,HW_LDT_1,2024.2.4,MacIntel,58.82352941,,,,,,,,,,,,,,,,,,,,,286.819,287.018,287.018,287.518,,,,,,,,,,,,,,1.257,1,,,,,,,,,,,,,,m,,,,,,,,,,,,,,,,38,0,287.518,288.784,m,1,1.257,,[],[],[],[],[],[],[],288.785,290.784,290.785,290.785,[],[],[],[],[],[],[],,290.785,290.785,-0.005440696,-0.390097933,0,0,0,,0,37,37,107,1,1,word,EVIDENT,print,evident_p.png,,,,,,
,,,,32046,001,2025-10-16_18h43.07.396,HW_LDT_1,2024.2.4,MacIntel,58.82352941,,,,,,,,,,,,,,,,,,,,,290.786,290.985,290.985,291.484,,,,,,,,,,,,,,1.13,1,,,,,,,,,,,,,,m,,,,,,,,,,,,,,,,39,0,291.485,292.62,m,1,1.13,,[],[],[],[],[],[],[],292.62,294.617,294.618,294.618,[],[],[],[],[],[],[],,294.618,294.618,-0.005440696,-0.390097933,0,0,0,,0,38,38,100,1,1,word,DECADE,print,decade_p.png,,,,,,
,,,,32046,001,2025-10-16_18h43.07.396,HW_LDT_1,2024.2.4,MacIntel,58.82352941,,,,,,,,,,,,,,,,,,,,,294.619,294.818,294.818,295.318,,,,,,,,,,,,,,2.603,1,,,,,,,,,,,,,,z,,,,,,,,,,,,,,,,40,1,295.318,297.934,z,1,2.603,,[],[],[],[],[],[],[],297.935,299.934,299.935,301.484,[],[],[],[],[],[],[],z,301.484,301.485,-0.005440696,-0.390097933,0,0,0,,0,39,39,17,1,1,RL,menowy,cursive,menowy_c.png,1.541,,,,,
,,,,32046,001,2025-10-16_18h43.07.396,HW_LDT_1,2024.2.4,MacIntel,58.82352941,,,,,,,,,,,,,,,,,,,,,301.485,301.684,301.685,302.183,,,,,,,,,,,,,,3.254,1,,,,,,,,,,,,,,z,,,,,,,,,,,,,,,,41,1,302.184,305.451,z,1,3.254,,[],[],[],[],[],[],[],305.451,307.451,307.451,309.018,[],[],[],[],[],[],[],z,309.018,309.018,-0.005440696,-0.390097933,0,0,0,,0,40,40,75,1,1,TL,speficic,cursive,speficic_c.png,1.564,,,,,
,,,,32046,001,2025-10-16_18h43.07.396,HW_LDT_1,2024.2.4,MacIntel,58.82352941,,,,,,,,,,,,,,,,,,,,,309.019,309.218,309.218,309.717,,,,,,,,,,,,,,1.056,1,,,,,,,,,,,,,,m,,,,,,,,,,,,,,,,42,0,309.718,310.785,m,1,1.056,,[],[],[],[],[],[],[],310.785,312.785,312.785,312.785,[],[],[],[],[],[],[],,312.785,312.785,-0.005440696,-0.390097933,0,0,0,,0,41,41,84,1,1,word,BELOVED,print,beloved_p.png,,,,,,
,,,,32046,001,2025-10-16_18h43.07.396,HW_LDT_1,2024.2.4,MacIntel,58.82352941,,,,,,,,,,,,,,,,,,,,,312.786,312.984,312.984,313.484,,,,,,,,,,,,,,3.562,1,,,,,,,,,,,,,,m,,,,,,,,,,,,,,,,43,1,313.484,317.053,m,1,3.562,,[],[],[],[],[],[],[],317.054,319.051,319.051,320.184,[],[],[],[],[],[],[],z,320.185,320.185,-0.005440696,-0.390097933,0,0,0,,0,42,42,87,1,1,word,CAFETERIA,cursive,cafeteria_c.png,1.122,,,,,
,,,,32046,001,2025-10-16_18h43.07.396,HW_LDT_1,2024.2.4,MacIntel,58.82352941,,,,,,,,,,,,,,,,,,,,,320.185,320.384,320.384,320.884,,,,,,,,,,,,,,2.676,1,,,,,,,,,,,,,,z,,,,,,,,,,,,,,,,44,0,320.885,323.568,z,1,2.676,,[],[],[],[],[],[],[],323.568,325.567,325.567,325.568,[],[],[],[],[],[],[],,325.568,325.568,-0.005440696,-0.390097933,0,0,0,,0,43,43,19,1,1,RL,monebate,print,monebate_p.png,,,,,,
,,,,32046,001,2025-10-16_18h43.07.396,HW_LDT_1,2024.2.4,MacIntel,58.82352941,,,,,,,,,,,,,,,,,,,,,325.569,325.767,325.767,326.268,,,,,,,,,,,,,,1.036,1,,,,,,,,,,,,,,z,,,,,,,,,,,,,,,,45,0,326.268,327.318,z,1,1.036,,[],[],[],[],[],[],[],327.318,329.318,329.318,329.318,[],[],[],[],[],[],[],,329.318,329.318,-0.005440696,-0.390097933,0,0,0,,0,44,44,7,1,1,RL,delahe,print,delahe_p.png,,,,,,
,,,,32046,001,2025-10-16_18h43.07.396,HW_LDT_1,2024.2.4,MacIntel,58.82352941,,,,,,,,,,,,,,,,,,,,,329.319,329.518,329.518,330.018,,,,,,,,,,,,,,3.461,1,,,,,,,,,,,,,,z,,,,,,,,,,,,,,,,46,1,330.018,333.484,z,1,3.461,,[],[],[],[],[],[],[],333.484,335.484,335.484,336.368,[],[],[],[],[],[],[],z,336.368,336.368,-0.005440696,-0.390097933,0,0,0,,0,45,45,53,1,1,TL,dentisy,cursive,dentisy_c.png,0.876,,,,,
,,,,32046,001,2025-10-16_18h43.07.396,HW_LDT_1,2024.2.4,MacIntel,58.82352941,,,,,,,,,,,,,,,,,,,,,336.369,336.568,336.568,337.068,,,,,,,,,,,,,,5.371,0,,,,,,,,,,,,,,z,,,,,,,,,,,,,,,,47,1,337.068,342.451,m,0,5.371,,[],[],[],[],[],[],[],342.451,344.451,344.451,345.318,[],[],[],[],[],[],[],z,345.318,345.318,-0.005440696,-0.390097933,0,0,0,,0,46,46,25,1,1,RL,quakity,cursive,quakity_c.png,0.854,,,,,
,,,,32046,001,2025-10-16_18h43.07.396,HW_LDT_1,2024.2.4,MacIntel,58.82352941,,,,,,,,,,,,,,,,,,,,,345.319,345.518,345.518,346.018,,,,,,,,,,,,,,1.921,1,,,,,,,,,,,,,,m,,,,,,,,,,,,,,,,48,0,346.018,347.951,m,1,1.921,,[],[],[],[],[],[],[],347.951,349.951,349.951,349.951,[],[],[],[],[],[],[],,349.951,349.951,-0.005440696,-0.390097933,0,0,0,,0,47,47,91,1,1,word,CARDINAL,print,cardinal_p.png,,,,,,
,,,,32046,001,2025-10-16_18h43.07.396,HW_LDT_1,2024.2.4,MacIntel,58.82352941,,,,,,,,,,,,,,,,,,,,,349.952,350.151,350.151,350.651,,,,,,,,,,,,,,1.058,1,,,,,,,,,,,,,,z,,,,,,,,,,,,,,,,49,1,350.651,351.718,z,1,1.058,,[],[],[],[],[],[],[],351.718,353.718,353.718,354.885,[],[],[],[],[],[],[],m,354.885,354.885,-0.005440696,-0.390097933,0,0,0,,0,48,48,30,1,1,RL,relone,print,relone_p.png,1.154,,,,,
,,,,32046,001,2025-10-16_18h43.07.396,HW_LDT_1,2024.2.4,MacIntel,58.82352941,,,,,,,,,,,,,,,,,,,,,354.885,355.084,355.084,355.584,,,,,,,,,,,,,,4.337,1,,,,,,,,,,,,,,m,,,,,,,,,,,,,,,,50,0,355.584,359.934,m,1,4.337,,[],[],[],[],[],[],[],359.934,361.934,361.934,361.934,[],[],[],[],[],[],[],,361.934,361.934,-0.005440696,-0.390097933,0,0,0,,0,49,49,93,1,1,word,CEREMONY,cursive,ceremony_c.png,,,,,,
,,,,32046,001,2025-10-16_18h43.07.396,HW_LDT_1,2024.2.4,MacIntel,58.82352941,,,,,,,,,,,,,,,,,,,,,361.935,362.134,362.135,362.634,,,,,,,,,,,,,,0.887,1,,,,,,,,,,,,,,m,,,,,,,,,,,,,,,,51,0,362.635,363.534,m,1,0.887,,[],[],[],[],[],[],[],363.535,365.534,365.534,365.535,[],[],[],[],[],[],[],,365.535,365.535,-0.005440696,-0.390097933,0,0,0,,0,50,50,147,1,1,word,ROMANTIC,cursive,romantic_c.png,,,,,,
,,,,32046,001,2025-10-16_18h43.07.396,HW_LDT_1,2024.2.4,MacIntel,58.82352941,,,,,,,,,,,,,,,,,,,,,365.535,365.735,365.735,366.234,,,,,,,,,,,,,,2.656,1,,,,,,,,,,,,,,z,,,,,,,,,,,,,,,,52,1,366.234,368.901,z,1,2.656,,[],[],[],[],[],[],[],368.901,370.901,370.901,372.084,[],[],[],[],[],[],[],z,372.084,372.084,-0.005440696,-0.390097933,0,0,0,,0,51,51,15,1,1,RL,losipal,cursive,losipal_c.png,1.18,,,,,
,,,,32046,001,2025-10-16_18h43.07.396,HW_LDT_1,2024.2.4,MacIntel,58.82352941,,,,,,,,,,,,,,,,,,,,,372.085,372.285,372.285,372.784,,,,,,,,,,,,,,2.87,1,,,,,,,,,,,,,,z,,,,,,,,,,,,,,,,53,0,372.784,375.668,z,1,2.87,,[],[],[],[],[],[],[],375.668,377.667,377.667,377.668,[],[],[],[],[],[],[],,377.668,377.668,-0.005440696,-0.390097933,0,0,0,,0,52,52,36,1,1,RL,speniven,cursive,speniven_c.png,,,,,,
,,,,32046,001,2025-10-16_18h43.07.396,HW_LDT_1,2024.2.4,MacIntel,58.82352941,,,,,,,,,,,,,,,,,,,,,377.669,377.868,377.868,378.368,,,,,,,,,,,,,,3.405,1,,,,,,,,,,,,,,z,,,,,,,,,,,,,,,,54,0,378.368,381.785,z,1,3.405,,[],[],[],[],[],[],[],381.785,383.784,383.784,383.785,[],[],[],[],[],[],[],,383.785,383.785,-0.005440696,-0.390097933,0,0,0,,0,53,53,48,1,1,TL,cemerony,cursive,cemerony_c.png,,,,,,
,,,,32046,001,2025-10-16_18h43.07.396,HW_LDT_1,2024.2.4,MacIntel,58.82352941,,,,,,,,,,,,,,,,,,,,,383.785,383.984,383.984,384.484,,,,,,,,,,,,,,4.344,1,,,,,,,,,,,,,,z,,,,,,,,,,,,,,,,55,0,384.485,388.834,z,1,4.344,,[],[],[],[],[],[],[],388.834,390.834,390.835,390.835,[],[],[],[],[],[],[],,390.835,390.835,-0.005440696,-0.390097933,0,0,0,,0,54,54,44,1,1,TL,cateferia,cursive,cateferia_c.png,,,,,,
,,,,32046,001,2025-10-16_18h43.07.396,HW_LDT_1,2024.2.4,MacIntel,58.82352941,,,,,,,,,,,,,,,,,,,,,390.836,391.034,391.034,391.534,,,,,,,,,,,,,,2.887,1,,,,,,,,,,,,,,z,,,,,,,,,,,,,,,,56,0,391.535,394.435,z,1,2.887,,[],[],[],[],[],[],[],394.435,396.434,396.434,396.435,[],[],[],[],[],[],[],,396.435,396.435,-0.005440696,-0.390097933,0,0,0,,0,55,55,35,1,1,RL,senvilent,cursive,senvilent_c.png,,,,,,
,,,,32046,001,2025-10-16_18h43.07.396,HW_LDT_1,2024.2.4,MacIntel,58.82352941,,,,,,,,,,,,,,,,,,,,,396.435,396.634,396.634,397.134,,,,,,,,,,,,,,1.337,1,,,,,,,,,,,,,,m,,,,,,,,,,,,,,,,57,0,397.135,398.484,m,1,1.337,,[],[],[],[],[],[],[],398.485,400.484,400.484,400.484,[],[],[],[],[],[],[],,400.484,400.485,-0.005440696,-0.390097933,0,0,0,,0,56,56,96,1,1,word,CONSIDER,cursive,consider_c.png,,,,,,
,,,,32046,001,2025-10-16_18h43.07.396,HW_LDT_1,2024.2.4,MacIntel,58.82352941,,,,,,,,,,,,,,,,,,,,,400.485,400.684,400.684,401.184,,,,,,,,,,,,,,1.537,1,,,,,,,,,,,,,,z,,,,,,,,,,,,,,,,58,0,401.185,402.735,z,1,1.537,,[],[],[],[],[],[],[],402.735,404.734,404.734,404.735,[],[],[],[],[],[],[],,404.735,404.735,-0.005440696,-0.390097933,0,0,0,,0,57,57,62,1,1,TL,mitilary,print,mitilary_p.png,,,,,,
,,,,32046,001,2025-10-16_18h43.07.396,HW_LDT_1,2024.2.4,MacIntel,58.82352941,,,,,,,,,,,,,,,,,,,,,404.735,404.934,404.934,405.434,,,,,,,,,,,,,,4.287,1,,,,,,,,,,,,,,m,,,,,,,,,,,,,,,,59,0,405.435,409.734,m,1,4.287,,[],[],[],[],[],[],[],409.735,411.734,411.734,411.735,[],[],[],[],[],[],[],,411.735,411.735,-0.005440696,-0.390097933,0,0,0,,0,58,58,88,1,1,word,CAMERA,cursive,camera_c.png,,,,,,
,,,,32046,001,2025-10-16_18h43.07.396,HW_LDT_1,2024.2.4,MacIntel,58.82352941,,,,,,,,,,,,,,,,,,,,,411.736,411.934,411.934,412.434,,,,,,,,,,,,,,1.17,1,,,,,,,,,,,,,,z,,,,,,,,,,,,,,,,60,0,412.434,413.618,z,1,1.17,,[],[],[],[],[],[],[],413.618,415.617,415.617,415.617,[],[],[],[],[],[],[],,415.618,415.618,-0.005440696,-0.390097933,0,0,0,,0,59,59,24,1,1,RL,probice,print,probice_p.png,,,,,,
,,,,32046,001,2025-10-16_18h43.07.396,HW_LDT_1,2024.2.4,MacIntel,58.82352941,,,,,,,,,,,,,,,,,,,,,415.618,415.818,415.818,416.318,,,,,,,,,,,,,,1.154,1,,,,,,,,,,,,,,z,,,,,,,,,,,,,,,,61,0,416.318,417.484,z,1,1.154,,[],[],[],[],[],[],[],417.484,419.484,419.484,419.484,[],[],[],[],[],[],[],,419.484,419.484,-0.005440696,-0.390097933,0,0,0,,0,60,60,70,1,1,TL,relugar,print,relugar_p.png,,,,,,
,,,,32046,001,2025-10-16_18h43.07.396,HW_LDT_1,2024.2.4,MacIntel,58.82352941,,,,,,,,,,,,,,,,,,,,,419.485,419.684,419.684,420.184,,,,,,,,,,,,,,2.06,1,,,,,,,,,,,,,,m,,,,,,,,,,,,,,,,62,0,420.185,422.25,m,1,2.06,,[],[],[],[],[],[],[],422.251,424.251,424.251,424.251,[],[],[],[],[],[],[],,424.251,424.251,-0.005440696,-0.390097933,0,0,0,,0,61,61,151,1,1,word,SPECIFIC,cursive,specific_c.png,,,,,,
,,,,32046,001,2025-10-16_18h43.07.396,HW_LDT_1,2024.2.4,MacIntel,58.82352941,,,,,,,,,,,,,,,,,,,,,424.252,424.451,424.451,424.951,,,,,,,,,,,,,,1.286,1,,,,,,,,,,,,,,m,,,,,,,,,,,,,,,,63,0,424.951,426.251,m,1,1.286,,[],[],[],[],[],[],[],426.251,428.251,428.251,428.251,[],[],[],[],[],[],[],,428.251,428.251,-0.005440696,-0.390097933,0,0,0,,0,62,62,106,1,1,word,ELABORATE,print,elaborate_p.png,,,,,,
,,,,32046,001,2025-10-16_18h43.07.396,HW_LDT_1,2024.2.4,MacIntel,58.82352941,,,,,,,,,,,,,,,,,,,,,428.252,428.451,428.451,428.951,,,,,,,,,,,,,,1.292,1,,,,,,,,,,,,,,z,,,,,,,,,,,,,,,,64,0,428.951,430.251,z,1,1.292,,[],[],[],[],[],[],[],430.251,432.251,432.251,432.251,[],[],[],[],[],[],[],,432.251,432.251,-0.005440696,-0.390097933,0,0,0,,0,63,63,56,1,1,TL,grafetul,print,grafetul_p.png,,,,,,
,,,,32046,001,2025-10-16_18h43.07.396,HW_LDT_1,2024.2.4,MacIntel,58.82352941,,,,,,,,,,,,,,,,,,,,,432.252,432.451,432.451,432.951,,,,,,,,,,,,,,0.903,1,,,,,,,,,,,,,,z,,,,,,,,,,,,,,,,65,0,432.951,433.868,z,1,0.903,,[],[],[],[],[],[],[],433.868,435.868,435.868,435.868,[],[],[],[],[],[],[],,435.868,435.868,-0.005440696,-0.390097933,0,0,0,,0,64,64,27,1,1,RL,rasibal,print,rasibal_p.png,,,,,,
,,,,32046,001,2025-10-16_18h43.07.396,HW_LDT_1,2024.2.4,MacIntel,58.82352941,,,,,,,,,,,,,,,,,,,,,435.869,436.068,436.068,436.568,,,,,,,,,,,,,,1.346,1,,,,,,,,,,,,,,z,,,,,,,,,,,,,,,,66,0,436.568,437.918,z,1,1.346,,[],[],[],[],[],[],[],437.918,439.918,439.918,439.918,[],[],[],[],[],[],[],,439.918,439.918,-0.005440696,-0.390097933,0,0,0,,0,65,65,6,1,1,RL,crisival,print,crisival_p.png,,,,,,
,,,,32046,001,2025-10-16_18h43.07.396,HW_LDT_1,2024.2.4,MacIntel,58.82352941,,,,,,,,,,,,,,,,,,,,,439.919,440.118,440.118,440.617,,,,,,,,,,,,,,2.371,1,,,,,,,,,,,,,,z,,,,,,,,,,,,,,,,67,0,440.618,443.001,z,1,2.371,,[],[],[],[],[],[],[],443.001,445.001,445.001,445.001,[],[],[],[],[],[],[],,445.001,445.001,-0.005440696,-0.390097933,0,0,0,,0,66,66,77,1,1,TL,tritube,cursive,tritube_c.png,,,,,,
,,,,32046,001,2025-10-16_18h43.07.396,HW_LDT_1,2024.2.4,MacIntel,58.82352941,,,,,,,,,,,,,,,,,,,,,445.002,445.201,445.201,445.701,,,,,,,,,,,,,,2.879,1,,,,,,,,,,,,,,m,,,,,,,,,,,,,,,,68,0,445.701,448.587,m,1,2.879,,[],[],[],[],[],[],[],448.587,450.584,450.584,450.584,[],[],[],[],[],[],[],,450.585,450.585,-0.005440696,-0.390097933,0,0,0,,0,67,67,104,1,1,word,DOMINANT,cursive,dominant_c.png,,,,,,
,,,,32046,001,2025-10-16_18h43.07.396,HW_LDT_1,2024.2.4,MacIntel,58.82352941,,,,,,,,,,,,,,,,,,,,,450.585,450.784,450.784,451.284,,,,,,,,,,,,,,1.253,1,,,,,,,,,,,,,,z,,,,,,,,,,,,,,,,69,0,451.285,452.551,z,1,1.253,,[],[],[],[],[],[],[],452.551,454.551,454.551,454.551,[],[],[],[],[],[],[],,454.552,454.552,-0.005440696,-0.390097933,0,0,0,,0,68,68,45,1,1,TL,cacapity,print,cacapity_p.png,,,,,,
,,,,32046,001,2025-10-16_18h43.07.396,HW_LDT_1,2024.2.4,MacIntel,58.82352941,,,,,,,,,,,,,,,,,,,,,454.553,454.751,454.751,455.251,,,,,,,,,,,,,,1.237,1,,,,,,,,,,,,,,z,,,,,,,,,,,,,,,,70,0,455.252,456.501,z,1,1.237,,[],[],[],[],[],[],[],456.501,458.501,458.501,458.501,[],[],[],[],[],[],[],,458.501,458.501,-0.005440696,-0.390097933,0,0,0,,0,69,69,78,1,1,TL,vecolity,print,vecolity_p.png,,,,,,
,,,,32046,001,2025-10-16_18h43.07.396,HW_LDT_1,2024.2.4,MacIntel,58.82352941,,,,,,,,,,,,,,,,,,,,,458.502,458.701,458.701,459.201,,,,,,,,,,,,,,1.104,1,,,,,,,,,,,,,,z,,,,,,,,,,,,,,,,71,0,459.201,460.318,z,1,1.104,,[],[],[],[],[],[],[],460.318,462.316,462.317,462.317,[],[],[],[],[],[],[],,462.317,462.317,-0.005440696,-0.390097933,0,0,0,,0,70,70,41,1,1,TL,bevoled,print,bevoled_p.png,,,,,,
,,,,32046,001,2025-10-16_18h43.07.396,HW_LDT_1,2024.2.4,MacIntel,58.82352941,,,,,,,,,,,,,,,,,,,,,462.318,462.518,462.518,463.018,,,,,,,,,,,,,,1.187,1,,,,,,,,,,,,,,m,,,,,,,,,,,,,,,,72,1,463.018,464.217,m,1,1.187,,[],[],[],[],[],[],[],464.218,466.218,466.218,467.717,[],[],[],[],[],[],[],m,467.718,467.718,-0.005440696,-0.390097933,0,0,0,,0,71,71,126,1,1,word,OPTIMAL,print,optimal_p.png,1.491,,,,,
,,,,32046,001,2025-10-16_18h43.07.396,HW_LDT_1,2024.2.4,MacIntel,58.82352941,,,,,,,,,,,,,,,,,,,,,467.718,467.917,467.917,468.417,,,,,,,,,,,,,,1.821,1,,,,,,,,,,,,,,m,,,,,,,,,,,,,,,,73,0,468.417,470.251,m,1,1.821,,[],[],[],[],[],[],[],470.251,472.251,472.251,472.251,[],[],[],[],[],[],[],,472.251,472.251,-0.005440696,-0.390097933,0,0,0,,0,72,72,112,1,1,word,LIBERAL,cursive,liberal_c.png,,,,,,
,,,,32046,001,2025-10-16_18h43.07.396,HW_LDT_1,2024.2.4,MacIntel,58.82352941,,,,,,,,,,,,,,,,,,,,,472.252,472.451,472.451,472.95,,,,,,,,,,,,,,1.577,0,,,,,,,,,,,,,,m,,,,,,,,,,,,,,,,74,0,472.951,474.535,z,0,1.577,,[],[],[],[],[],[],[],474.535,476.534,476.534,476.535,[],[],[],[],[],[],[],,476.535,476.535,-0.005440696,-0.390097933,0,0,0,,0,73,73,146,1,1,word,RETIRE,cursive,retire_c.png,,,,,,
,,,,32046,001,2025-10-16_18h43.07.396,HW_LDT_1,2024.2.4,MacIntel,58.82352941,,,,,,,,,,,,,,,,,,,,,476.535,476.734,476.734,477.234,,,,,,,,,,,,,,1.475,1,,,,,,,,,,,,,,z,,,,,,,,,,,,,,,,75,0,477.235,478.718,z,1,1.475,,[],[],[],[],[],[],[],478.718,480.718,480.718,480.718,[],[],[],[],[],[],[],,480.718,480.718,-0.005440696,-0.390097933,0,0,0,,0,74,74,42,1,1,TL,befenit,print,befenit_p.png,,,,,,
,,,,32046,001,2025-10-16_18h43.07.396,HW_LDT_1,2024.2.4,MacIntel,58.82352941,,,,,,,,,,,,,,,,,,,,,480.719,480.918,480.918,481.418,,,,,,,,,,,,,,2.971,1,,,,,,,,,,,,,,z,,,,,,,,,,,,,,,,76,0,481.418,484.401,z,1,2.971,,[],[],[],[],[],[],[],484.401,486.4,486.4,486.401,[],[],[],[],[],[],[],,486.401,486.401,-0.005440696,-0.390097933,0,0,0,,0,75,75,65,1,1,TL,orinigal,cursive,orinigal_c.png,,,,,,
,,,,32046,001,2025-10-16_18h43.07.396,HW_LDT_1,2024.2.4,MacIntel,58.82352941,,,,,,,,,,,,,,,,,,,,,486.402,486.601,486.601,487.1,,,,,,,,,,,,,,2.979,0,,,,,,,,,,,,,,m,,,,,,,,,,,,,,,,77,1,487.101,490.084,z,0,2.979,,[],[],[],[],[],[],[],490.084,492.084,492.084,493.367,[],[],[],[],[],[],[],z,493.367,493.367,-0.005440696,-0.390097933,0,0,0,,0,76,76,81,1,1,word,ADVISORY,cursive,advisory_c.png,1.273,,,,,
,,,,32046,001,2025-10-16_18h43.07.396,HW_LDT_1,2024.2.4,MacIntel,58.82352941,,,,,,,,,,,,,,,,,,,,,493.368,493.567,493.567,494.068,,,,,,,,,,,,,,1.479,1,,,,,,,,,,,,,,m,,,,,,,,,,,,,,,,78,0,494.068,495.553,m,1,1.479,,[],[],[],[],[],[],[],495.554,497.551,497.551,497.551,[],[],[],[],[],[],[],,497.551,497.551,-0.005440696,-0.390097933,0,0,0,,0,77,77,128,1,1,word,PACIFIC,print,pacific_p.png,,,,,,
,,,,32046,001,2025-10-16_18h43.07.396,HW_LDT_1,2024.2.4,MacIntel,58.82352941,,,,,,,,,,,,,,,,,,,,,497.552,497.751,497.751,498.251,,,,,,,,,,,,,,0.831,1,,,,,,,,,,,,,,m,,,,,,,,,,,,,,,,79,0,498.251,499.087,m,1,0.831,,[],[],[],[],[],[],[],499.087,501.084,501.084,501.084,[],[],[],[],[],[],[],,501.084,501.085,-0.005440696,-0.390097933,0,0,0,,0,78,78,114,1,1,word,LOCATE,print,locate_p.png,,,,,,
,,,,32046,001,2025-10-16_18h43.07.396,HW_LDT_1,2024.2.4,MacIntel,58.82352941,,,,,,,,,,,,,,,,,,,,,501.085,501.284,501.284,501.784,,,,,,,,,,,,,,3.253,1,,,,,,,,,,,,,,z,,,,,,,,,,,,,,,,80,1,501.785,505.051,z,1,3.253,,[],[],[],[],[],[],[],505.051,507.051,507.051,508.334,[],[],[],[],[],[],[],z,508.334,526.268,-0.005440696,-0.390097933,0,0,0,space,0,79,79,64,1,1,TL,orepator,cursive,orepator_c.png,1.279,,17.897,,,
,,,,32046,001,2025-10-16_18h43.07.396,HW_LDT_1,2024.2.4,MacIntel,58.82352941,,,,,,,,,,,,,,,,,,,,,526.269,526.467,526.467,526.968,,,,,,,,,,,,,,2.77,1,,,,,,,,,,,,,,z,,,,,,,,,,,,,,,,81,0,526.968,529.751,z,1,2.77,,[],[],[],[],[],[],[],529.751,531.751,531.751,531.751,[],[],[],[],[],[],[],,531.751,531.751,-0.005440696,-0.390097933,0,0,0,,0,80,80,63,1,1,TL,molibe,cursive,molibe_c.png,,,,,,
,,,,32046,001,2025-10-16_18h43.07.396,HW_LDT_1,2024.2.4,MacIntel,58.82352941,,,,,,,,,,,,,,,,,,,,,531.752,531.951,531.951,532.451,,,,,,,,,,,,,,2.18,1,,,,,,,,,,,,,,z,,,,,,,,,,,,,,,,82,0,532.451,534.634,z,1,2.18,,[],[],[],[],[],[],[],534.634,536.634,536.634,536.635,[],[],[],[],[],[],[],,536.635,536.635,-0.005440696,-0.390097933,0,0,0,,0,81,81,61,1,1,TL,mecidine,cursive,mecidine_c.png,,,,,,
,,,,32046,001,2025-10-16_18h43.07.396,HW_LDT_1,2024.2.4,MacIntel,58.82352941,,,,,,,,,,,,,,,,,,,,,536.635,536.834,536.834,537.334,,,,,,,,,,,,,,1.186,1,,,,,,,,,,,,,,m,,,,,,,,,,,,,,,,83,0,537.334,538.534,m,1,1.186,,[],[],[],[],[],[],[],538.534,540.534,540.534,540.535,[],[],[],[],[],[],[],,540.535,540.535,-0.005440696,-0.390097933,0,0,0,,0,82,82,97,1,1,word,COVERAGE,print,coverage_p.png,,,,,,
,,,,32046,001,2025-10-16_18h43.07.396,HW_LDT_1,2024.2.4,MacIntel,58.82352941,,,,,,,,,,,,,,,,,,,,,540.535,540.734,540.734,541.234,,,,,,,,,,,,,,1.054,1,,,,,,,,,,,,,,z,,,,,,,,,,,,,,,,84,0,541.234,542.301,z,1,1.054,,[],[],[],[],[],[],[],542.301,544.301,544.301,544.301,[],[],[],[],[],[],[],,544.301,544.301,-0.005440696,-0.390097933,0,0,0,,0,83,83,28,1,1,RL,renutal,print,renutal_p.png,,,,,,
,,,,32046,001,2025-10-16_18h43.07.396,HW_LDT_1,2024.2.4,MacIntel,58.82352941,,,,,,,,,,,,,,,,,,,,,544.302,544.501,544.501,545.001,,,,,,,,,,,,,,1.138,1,,,,,,,,,,,,,,m,,,,,,,,,,,,,,,,85,0,545.001,546.151,m,1,1.138,,[],[],[],[],[],[],[],546.151,548.151,548.151,548.151,[],[],[],[],[],[],[],,548.151,548.151,-0.005440696,-0.390097933,0,0,0,,0,84,84,82,1,1,word,AMATEUR,print,amateur_p.png,,,,,,
,,,,32046,001,2025-10-16_18h43.07.396,HW_LDT_1,2024.2.4,MacIntel,58.82352941,,,,,,,,,,,,,,,,,,,,,548.152,548.351,548.351,548.851,,,,,,,,,,,,,,2.903,1,,,,,,,,,,,,,,z,,,,,,,,,,,,,,,,86,0,548.851,551.768,z,1,2.903,,[],[],[],[],[],[],[],551.768,553.767,553.767,553.767,[],[],[],[],[],[],[],,553.768,553.768,-0.005440696,-0.390097933,0,0,0,,0,85,85,54,1,1,TL,distupe,cursive,distupe_c.png,,,,,,
,,,,32046,001,2025-10-16_18h43.07.396,HW_LDT_1,2024.2.4,MacIntel,58.82352941,,,,,,,,,,,,,,,,,,,,,553.768,553.967,553.967,554.467,,,,,,,,,,,,,,0.955,1,,,,,,,,,,,,,,m,,,,,,,,,,,,,,,,87,0,554.468,555.434,m,1,0.955,,[],[],[],[],[],[],[],555.434,557.434,557.434,557.434,[],[],[],[],[],[],[],,557.434,557.434,-0.005440696,-0.390097933,0,0,0,,0,86,86,90,1,1,word,CAPITAL,print,capital_p.png,,,,,,
,,,,32046,001,2025-10-16_18h43.07.396,HW_LDT_1,2024.2.4,MacIntel,58.82352941,,,,,,,,,,,,,,,,,,,,,557.435,557.634,557.634,558.134,,,,,,,,,,,,,,2.17,1,,,,,,,,,,,,,,z,,,,,,,,,,,,,,,,88,0,558.134,560.318,z,1,2.17,,[],[],[],[],[],[],[],560.318,562.317,562.317,562.318,[],[],[],[],[],[],[],,562.318,562.318,-0.005440696,-0.390097933,0,0,0,,0,87,87,50,1,1,TL,condiser,cursive,condiser_c.png,,,,,,
,,,,32046,001,2025-10-16_18h43.07.396,HW_LDT_1,2024.2.4,MacIntel,58.82352941,,,,,,,,,,,,,,,,,,,,,562.319,562.517,562.517,563.017,,,,,,,,,,,,,,1.67,1,,,,,,,,,,,,,,m,,,,,,,,,,,,,,,,89,0,563.018,564.701,m,1,1.67,,[],[],[],[],[],[],[],564.701,566.701,566.701,566.701,[],[],[],[],[],[],[],,566.701,566.701,-0.005440696,-0.390097933,0,0,0,,0,88,88,132,1,1,word,PROPOSAL,cursive,proposal_c.png,,,,,,
,,,,32046,001,2025-10-16_18h43.07.396,HW_LDT_1,2024.2.4,MacIntel,58.82352941,,,,,,,,,,,,,,,,,,,,,566.702,566.901,566.901,567.4,,,,,,,,,,,,,,1.579,1,,,,,,,,,,,,,,m,,,,,,,,,,,,,,,,90,0,567.401,568.987,m,1,1.579,,[],[],[],[],[],[],[],568.987,570.984,570.984,570.984,[],[],[],[],[],[],[],,570.984,570.984,-0.005440696,-0.390097933,0,0,0,,0,89,89,116,1,1,word,MARGINAL,print,marginal_p.png,,,,,,
,,,,32046,001,2025-10-16_18h43.07.396,HW_LDT_1,2024.2.4,MacIntel,58.82352941,,,,,,,,,,,,,,,,,,,,,570.985,571.184,571.184,571.684,,,,,,,,,,,,,,2.045,1,,,,,,,,,,,,,,z,,,,,,,,,,,,,,,,91,0,571.684,573.734,z,1,2.045,,[],[],[],[],[],[],[],573.734,575.734,575.734,575.734,[],[],[],[],[],[],[],,575.734,575.734,-0.005440696,-0.390097933,0,0,0,,0,90,90,38,1,1,RL,stopave,cursive,stopave_c.png,,,,,,
,,,,32046,001,2025-10-16_18h43.07.396,HW_LDT_1,2024.2.4,MacIntel,58.82352941,,,,,,,,,,,,,,,,,,,,,575.735,575.934,575.934,576.434,,,,,,,,,,,,,,1.106,1,,,,,,,,,,,,,,m,,,,,,,,,,,,,,,,92,0,576.434,577.551,m,1,1.106,,[],[],[],[],[],[],[],577.551,579.55,579.551,579.551,[],[],[],[],[],[],[],,579.551,579.551,-0.005440696,-0.390097933,0,0,0,,0,91,91,89,1,1,word,CAPACITY,print,capacity_p.png,,,,,,
,,,,32046,001,2025-10-16_18h43.07.396,HW_LDT_1,2024.2.4,MacIntel,58.82352941,,,,,,,,,,,,,,,,,,,,,579.551,579.751,579.751,580.251,,,,,,,,,,,,,,0.956,1,,,,,,,,,,,,,,z,,,,,,,,,,,,,,,,93,0,580.251,581.218,z,1,0.956,,[],[],[],[],[],[],[],581.218,583.217,583.218,583.218,[],[],[],[],[],[],[],,583.218,583.218,-0.005440696,-0.390097933,0,0,0,,0,92,92,47,1,1,TL,cagetory,print,cagetory_p.png,,,,,,
,,,,32046,001,2025-10-16_18h43.07.396,HW_LDT_1,2024.2.4,MacIntel,58.82352941,,,,,,,,,,,,,,,,,,,,,583.219,583.417,583.418,583.917,,,,,,,,,,,,,,1.039,1,,,,,,,,,,,,,,z,,,,,,,,,,,,,,,,94,0,583.917,584.967,z,1,1.039,,[],[],[],[],[],[],[],584.967,586.967,586.967,586.967,[],[],[],[],[],[],[],,586.967,586.968,-0.005440696,-0.390097933,0,0,0,,0,93,93,2,1,1,RL,asiral,print,asiral_p.png,,,,,,
,,,,32046,001,2025-10-16_18h43.07.396,HW_LDT_1,2024.2.4,MacIntel,58.82352941,,,,,,,,,,,,,,,,,,,,,586.968,587.167,587.167,587.667,,,,,,,,,,,,,,4.17,1,,,,,,,,,,,,,,m,,,,,,,,,,,,,,,,95,0,587.668,591.851,m,1,4.17,,[],[],[],[],[],[],[],591.851,593.851,593.851,593.851,[],[],[],[],[],[],[],,593.851,593.851,-0.005440696,-0.390097933,0,0,0,,0,94,94,149,1,1,word,SENATOR,cursive,senator_c.png,,,,,,
,,,,32046,001,2025-10-16_18h43.07.396,HW_LDT_1,2024.2.4,MacIntel,58.82352941,,,,,,,,,,,,,,,,,,,,,593.852,594.05,594.05,594.551,,,,,,,,,,,,,,0.754,1,,,,,,,,,,,,,,m,,,,,,,,,,,,,,,,96,0,594.551,595.318,m,1,0.754,,[],[],[],[],[],[],[],595.318,597.318,597.318,597.318,[],[],[],[],[],[],[],,597.318,597.318,-0.005440696,-0.390097933,0,0,0,,0,95,95,136,1,1,word,RADICAL,print,radical_p.png,,,,,,
,,,,32046,001,2025-10-16_18h43.07.396,HW_LDT_1,2024.2.4,MacIntel,58.82352941,,,,,,,,,,,,,,,,,,,,,597.319,597.517,597.517,598.017,,,,,,,,,,,,,,2.874,1,,,,,,,,,,,,,,z,,,,,,,,,,,,,,,,97,0,598.018,600.901,z,1,2.874,,[],[],[],[],[],[],[],600.901,602.901,602.901,602.901,[],[],[],[],[],[],[],,602.901,602.901,-0.005440696,-0.390097933,0,0,0,,0,96,96,49,1,1,TL,clicinal,cursive,clicinal_c.png,,,,,,
,,,,32046,001,2025-10-16_18h43.07.396,HW_LDT_1,2024.2.4,MacIntel,58.82352941,,,,,,,,,,,,,,,,,,,,,602.902,603.101,603.101,603.601,,,,,,,,,,,,,,0.727,1,,,,,,,,,,,,,,m,,,,,,,,,,,,,,,,98,0,603.601,604.334,m,1,0.727,,[],[],[],[],[],[],[],604.334,606.334,606.334,606.334,[],[],[],[],[],[],[],,606.335,606.335,-0.005440696,-0.390097933,0,0,0,,0,97,97,99,1,1,word,DEBATE,print,debate_p.png,,,,,,
,,,,32046,001,2025-10-16_18h43.07.396,HW_LDT_1,2024.2.4,MacIntel,58.82352941,,,,,,,,,,,,,,,,,,,,,606.335,606.534,606.534,607.033,,,,,,,,,,,,,,0.788,1,,,,,,,,,,,,,,m,,,,,,,,,,,,,,,,99,0,607.033,607.834,m,1,0.788,,[],[],[],[],[],[],[],607.834,609.834,609.834,609.834,[],[],[],[],[],[],[],,609.834,609.834,-0.005440696,-0.390097933,0,0,0,,0,98,98,117,1,1,word,MARINE,print,marine_p.png,,,,,,
,,,,32046,001,2025-10-16_18h43.07.396,HW_LDT_1,2024.2.4,MacIntel,58.82352941,,,,,,,,,,,,,,,,,,,,,609.835,610.034,610.034,610.534,,,,,,,,,,,,,,1.471,1,,,,,,,,,,,,,,z,,,,,,,,,,,,,,,,100,1,610.534,612.017,z,1,1.471,,[],[],[],[],[],[],[],612.017,614.017,614.017,616.87,[],[],[],[],[],[],[],m,616.87,616.87,-0.005440696,-0.390097933,0,0,0,,0,99,99,37,1,1,RL,skofen,print,skofen_p.png,2.847,,,,,
,,,,32046,001,2025-10-16_18h43.07.396,HW_LDT_1,2024.2.4,MacIntel,58.82352941,,,,,,,,,,,,,,,,,,,,,616.871,617.067,617.068,617.567,,,,,,,,,,,,,,3.029,1,,,,,,,,,,,,,,z,,,,,,,,,,,,,,,,101,0,617.567,620.601,z,1,3.029,,[],[],[],[],[],[],[],620.601,622.601,622.601,622.601,[],[],[],[],[],[],[],,622.601,622.601,-0.005440696,-0.390097933,0,0,0,,0,100,100,68,1,1,TL,prosopal,cursive,prosopal_c.png,,,,,,
,,,,32046,001,2025-10-16_18h43.07.396,HW_LDT_1,2024.2.4,MacIntel,58.82352941,,,,,,,,,,,,,,,,,,,,,622.602,622.8,622.8,623.3,,,,,,,,,,,,,,1.662,1,,,,,,,,,,,,,,z,,,,,,,,,,,,,,,,102,0,623.3,624.968,z,1,1.662,,[],[],[],[],[],[],[],624.968,626.967,626.967,626.968,[],[],[],[],[],[],[],,626.968,626.968,-0.005440696,-0.390097933,0,0,0,,0,101,101,43,1,1,TL,bedise,print,bedise_p.png,,,,,,
,,,,32046,001,2025-10-16_18h43.07.396,HW_LDT_1,2024.2.4,MacIntel,58.82352941,,,,,,,,,,,,,,,,,,,,,626.969,627.167,627.167,627.667,,,,,,,,,,,,,,0.828,1,,,,,,,,,,,,,,m,,,,,,,,,,,,,,,,103,0,627.668,628.503,m,1,0.828,,[],[],[],[],[],[],[],628.503,630.501,630.501,630.501,[],[],[],[],[],[],[],,630.501,630.501,-0.005440696,-0.390097933,0,0,0,,0,102,102,109,1,1,word,GRATEFUL,print,grateful_p.png,,,,,,
,,,,32046,001,2025-10-16_18h43.07.396,HW_LDT_1,2024.2.4,MacIntel,58.82352941,,,,,,,,,,,,,,,,,,,,,630.502,630.701,630.701,631.201,,,,,,,,,,,,,,0.855,1,,,,,,,,,,,,,,m,,,,,,,,,,,,,,,,104,0,631.201,632.067,m,1,0.855,,[],[],[],[],[],[],[],632.067,634.067,634.067,634.068,[],[],[],[],[],[],[],,634.068,634.068,-0.005440696,-0.390097933,0,0,0,,0,103,103,83,1,1,word,ANIMAL,print,animal_p.png,,,,,,
,,,,32046,001,2025-10-16_18h43.07.396,HW_LDT_1,2024.2.4,MacIntel,58.82352941,,,,,,,,,,,,,,,,,,,,,634.068,634.267,634.267,634.767,,,,,,,,,,,,,,1.256,1,,,,,,,,,,,,,,m,,,,,,,,,,,,,,,,105,0,634.768,636.034,m,1,1.256,,[],[],[],[],[],[],[],636.034,638.034,638.034,638.034,[],[],[],[],[],[],[],,638.034,638.034,-0.005440696,-0.390097933,0,0,0,,0,104,104,148,1,1,word,SALINE,print,saline_p.png,,,,,,
,,,,32046,001,2025-10-16_18h43.07.396,HW_LDT_1,2024.2.4,MacIntel,58.82352941,,,,,,,,,,,,,,,,,,,,,638.035,638.234,638.234,638.734,,,,,,,,,,,,,,1.903,1,,,,,,,,,,,,,,z,,,,,,,,,,,,,,,,106,0,638.734,640.651,z,1,1.903,,[],[],[],[],[],[],[],640.651,642.65,642.65,642.651,[],[],[],[],[],[],[],,642.651,642.651,-0.005440696,-0.390097933,0,0,0,,0,105,105,76,1,1,TL,stragety,cursive,stragety_c.png,,,,,,
,,,,32046,001,2025-10-16_18h43.07.396,HW_LDT_1,2024.2.4,MacIntel,58.82352941,,,,,,,,,,,,,,,,,,,,,642.651,642.851,642.851,643.351,,,,,,,,,,,,,,1.22,1,,,,,,,,,,,,,,m,,,,,,,,,,,,,,,,107,0,643.351,644.584,m,1,1.22,,[],[],[],[],[],[],[],644.584,646.584,646.584,646.584,[],[],[],[],[],[],[],,646.584,646.584,-0.005440696,-0.390097933,0,0,0,,0,106,106,145,1,1,word,RESUME,print,resume_p.png,,,,,,
,,,,32046,001,2025-10-16_18h43.07.396,HW_LDT_1,2024.2.4,MacIntel,58.82352941,,,,,,,,,,,,,,,,,,,,,646.585,646.784,646.784,647.284,,,,,,,,,,,,,,3.662,1,,,,,,,,,,,,,,z,,,,,,,,,,,,,,,,108,0,647.284,650.951,z,1,3.662,,[],[],[],[],[],[],[],650.951,652.951,652.951,652.951,[],[],[],[],[],[],[],,652.951,652.951,-0.005440696,-0.390097933,0,0,0,,0,107,107,73,1,1,TL,ronamtic,cursive,ronamtic_c.png,,,,,,
,,,,32046,001,2025-10-16_18h43.07.396,HW_LDT_1,2024.2.4,MacIntel,58.82352941,,,,,,,,,,,,,,,,,,,,,652.952,653.151,653.151,653.651,,,,,,,,,,,,,,1.27,1,,,,,,,,,,,,,,z,,,,,,,,,,,,,,,,109,0,653.651,654.934,z,1,1.27,,[],[],[],[],[],[],[],654.934,656.934,656.934,656.934,[],[],[],[],[],[],[],,656.934,656.934,-0.005440696,-0.390097933,0,0,0,,0,108,108,34,1,1,RL,samite,print,samite_p.png,,,,,,
,,,,32046,001,2025-10-16_18h43.07.396,HW_LDT_1,2024.2.4,MacIntel,58.82352941,,,,,,,,,,,,,,,,,,,,,656.935,657.134,657.134,657.634,,,,,,,,,,,,,,2.935,1,,,,,,,,,,,,,,m,,,,,,,,,,,,,,,,110,0,657.634,660.584,m,1,2.935,,[],[],[],[],[],[],[],660.584,662.584,662.584,662.584,[],[],[],[],[],[],[],,662.584,662.585,-0.005440696,-0.390097933,0,0,0,,0,109,109,111,1,1,word,INDICATE,cursive,indicate_c.png,,,,,,
,,,,32046,001,2025-10-16_18h43.07.396,HW_LDT_1,2024.2.4,MacIntel,58.82352941,,,,,,,,,,,,,,,,,,,,,662.585,662.784,662.784,663.284,,,,,,,,,,,,,,1.159,1,,,,,,,,,,,,,,z,,,,,,,,,,,,,,,,111,0,663.284,664.451,z,1,1.159,,[],[],[],[],[],[],[],664.451,666.451,666.451,666.451,[],[],[],[],[],[],[],,666.451,666.451,-0.005440696,-0.390097933,0,0,0,,0,110,110,20,1,1,RL,nunewical,print,nunewical_p.png,,,,,,
,,,,32046,001,2025-10-16_18h43.07.396,HW_LDT_1,2024.2.4,MacIntel,58.82352941,,,,,,,,,,,,,,,,,,,,,666.452,666.651,666.651,667.151,,,,,,,,,,,,,,0.964,1,,,,,,,,,,,,,,z,,,,,,,,,,,,,,,,112,0,667.151,668.117,z,1,0.964,,[],[],[],[],[],[],[],668.117,670.117,670.117,670.118,[],[],[],[],[],[],[],,670.118,670.118,-0.005440696,-0.390097933,0,0,0,,0,111,111,21,1,1,RL,opcifal,print,opcifal_p.png,,,,,,
,,,,32046,001,2025-10-16_18h43.07.396,HW_LDT_1,2024.2.4,MacIntel,58.82352941,,,,,,,,,,,,,,,,,,,,,670.119,670.317,670.317,670.817,,,,,,,,,,,,,,3.07,1,,,,,,,,,,,,,,z,,,,,,,,,,,,,,,,113,0,670.818,673.9,z,1,3.07,,[],[],[],[],[],[],[],673.9,675.9,675.9,675.901,[],[],[],[],[],[],[],,675.901,675.901,-0.005440696,-0.390097933,0,0,0,,0,112,112,1,1,1,RL,adnicory,cursive,adnicory_c.png,,,,,,
,,,,32046,001,2025-10-16_18h43.07.396,HW_LDT_1,2024.2.4,MacIntel,58.82352941,,,,,,,,,,,,,,,,,,,,,675.902,676.101,676.101,676.601,,,,,,,,,,,,,,1.242,0,,,,,,,,,,,,,,m,,,,,,,,,,,,,,,,114,0,676.601,677.851,z,0,1.242,,[],[],[],[],[],[],[],677.851,679.851,679.851,679.851,[],[],[],[],[],[],[],,679.851,679.851,-0.005440696,-0.390097933,0,0,0,,0,113,113,105,1,1,word,EDITOR,cursive,editor_c.png,,,,,,
,,,,32046,001,2025-10-16_18h43.07.396,HW_LDT_1,2024.2.4,MacIntel,58.82352941,,,,,,,,,,,,,,,,,,,,,679.852,680.049,680.05,680.551,,,,,,,,,,,,,,1.462,1,,,,,,,,,,,,,,z,,,,,,,,,,,,,,,,115,0,680.551,682.017,z,1,1.462,,[],[],[],[],[],[],[],682.017,684.017,684.017,684.018,[],[],[],[],[],[],[],,684.018,684.018,-0.005440696,-0.390097933,0,0,0,,0,114,114,31,1,1,RL,reconal,cursive,reconal_c.png,,,,,,
,,,,32046,001,2025-10-16_18h43.07.396,HW_LDT_1,2024.2.4,MacIntel,58.82352941,,,,,,,,,,,,,,,,,,,,,684.018,684.217,684.217,684.717,,,,,,,,,,,,,,2.691,1,,,,,,,,,,,,,,z,,,,,,,,,,,,,,,,116,0,684.718,687.418,z,1,2.691,,[],[],[],[],[],[],[],687.418,689.417,689.418,689.418,[],[],[],[],[],[],[],,689.418,689.418,-0.005440696,-0.390097933,0,0,0,,0,115,115,52,1,1,TL,decilate,cursive,decilate_c.png,,,,,,
,,,,32046,001,2025-10-16_18h43.07.396,HW_LDT_1,2024.2.4,MacIntel,58.82352941,,,,,,,,,,,,,,,,,,,,,689.419,689.617,689.617,690.117,,,,,,,,,,,,,,1.587,1,,,,,,,,,,,,,,m,,,,,,,,,,,,,,,,117,0,690.118,691.718,m,1,1.587,,[],[],[],[],[],[],[],691.718,693.717,693.717,693.718,[],[],[],[],[],[],[],,693.718,693.718,-0.005440696,-0.390097933,0,0,0,,0,116,116,137,1,1,word,RAPIDLY,cursive,rapidly_c.png,,,,,,
,,,,32046,001,2025-10-16_18h43.07.396,HW_LDT_1,2024.2.4,MacIntel,58.82352941,,,,,,,,,,,,,,,,,,,,,693.718,693.917,693.917,694.417,,,,,,,,,,,,,,2.587,1,,,,,,,,,,,,,,m,,,,,,,,,,,,,,,,118,0,694.418,697.017,m,1,2.587,,[],[],[],[],[],[],[],697.017,699.017,699.017,699.018,[],[],[],[],[],[],[],,699.018,699.018,-0.005440696,-0.390097933,0,0,0,,0,117,117,102,1,1,word,DENSITY,cursive,density_c.png,,,,,,
,,,,32046,001,2025-10-16_18h43.07.396,HW_LDT_1,2024.2.4,MacIntel,58.82352941,,,,,,,,,,,,,,,,,,,,,699.018,699.217,699.217,699.717,,,,,,,,,,,,,,2.059,1,,,,,,,,,,,,,,z,,,,,,,,,,,,,,,,119,0,699.717,701.784,z,1,2.059,,[],[],[],[],[],[],[],701.784,703.784,703.784,703.784,[],[],[],[],[],[],[],,703.784,703.784,-0.005440696,-0.390097933,0,0,0,,0,118,118,74,1,1,TL,setanor,cursive,setanor_c.png,,,,,,
,,,,32046,001,2025-10-16_18h43.07.396,HW_LDT_1,2024.2.4,MacIntel,58.82352941,,,,,,,,,,,,,,,,,,,,,703.785,703.984,703.984,704.484,,,,,,,,,,,,,,1.655,1,,,,,,,,,,,,,,z,,,,,,,,,,,,,,,,120,0,704.484,706.151,z,1,1.655,,[],[],[],[],[],[],[],706.151,708.151,708.151,708.151,[],[],[],[],[],[],[],,708.151,708.151,-0.005440696,-0.390097933,0,0,0,,0,119,119,10,1,1,RL,efibor,cursive,efibor_c.png,,,,,,
,,,,32046,001,2025-10-16_18h43.07.396,HW_LDT_1,2024.2.4,MacIntel,58.82352941,,,,,,,,,,,,,,,,,,,,,708.151,708.351,708.351,708.85,,,,,,,,,,,,,,1.304,1,,,,,,,,,,,,,,z,,,,,,,,,,,,,,,,121,0,708.851,710.167,z,1,1.304,,[],[],[],[],[],[],[],710.167,712.167,712.167,712.168,[],[],[],[],[],[],[],,712.168,712.168,-0.005440696,-0.390097933,0,0,0,,0,120,120,16,1,1,RL,marmipal,print,marmipal_p.png,,,,,,
,,,,32046,001,2025-10-16_18h43.07.396,HW_LDT_1,2024.2.4,MacIntel,58.82352941,,,,,,,,,,,,,,,,,,,,,712.169,712.367,712.367,712.866,,,,,,,,,,,,,,2.061,1,,,,,,,,,,,,,,m,,,,,,,,,,,,,,,,122,1,712.867,714.934,m,1,2.061,,[],[],[],[],[],[],[],714.934,716.933,716.934,718.467,[],[],[],[],[],[],[],z,718.467,718.468,-0.005440696,-0.390097933,0,0,0,,0,121,121,118,1,1,word,MEDICINE,cursive,medicine_c.png,1.53,,,,,
,,,,32046,001,2025-10-16_18h43.07.396,HW_LDT_1,2024.2.4,MacIntel,58.82352941,,,,,,,,,,,,,,,,,,,,,718.469,718.667,718.667,719.167,,,,,,,,,,,,,,2.122,1,,,,,,,,,,,,,,z,,,,,,,,,,,,,,,,123,0,719.168,721.3,z,1,2.122,,[],[],[],[],[],[],[],721.3,723.3,723.3,723.3,[],[],[],[],[],[],[],,723.3,723.3,-0.005440696,-0.390097933,0,0,0,,0,122,122,59,1,1,TL,lirebal,cursive,lirebal_c.png,,,,,,
,,,,32046,001,2025-10-16_18h43.07.396,HW_LDT_1,2024.2.4,MacIntel,58.82352941,,,,,,,,,,,,,,,,,,,,,723.301,723.5,723.5,724.001,,,,,,,,,,,,,,2.829,1,,,,,,,,,,,,,,z,,,,,,,,,,,,,,,,124,0,724.001,726.834,z,1,2.829,,[],[],[],[],[],[],[],726.834,728.834,728.834,728.834,[],[],[],[],[],[],[],,728.834,728.834,-0.005440696,-0.390097933,0,0,0,,0,123,123,23,1,1,RL,potugar,cursive,potugar_c.png,,,,,,
,,,,32046,001,2025-10-16_18h43.07.396,HW_LDT_1,2024.2.4,MacIntel,58.82352941,,,,,,,,,,,,,,,,,,,,,728.835,729.034,729.034,729.534,,,,,,,,,,,,,,1.503,1,,,,,,,,,,,,,,m,,,,,,,,,,,,,,,,125,0,729.534,731.05,m,1,1.503,,[],[],[],[],[],[],[],731.05,733.051,733.051,733.051,[],[],[],[],[],[],[],,733.051,733.051,-0.005440696,-0.390097933,0,0,0,,0,124,124,152,1,1,word,SPECIMEN,cursive,specimen_c.png,,,,,,
,,,,32046,001,2025-10-16_18h43.07.396,HW_LDT_1,2024.2.4,MacIntel,58.82352941,,,,,,,,,,,,,,,,,,,,,733.052,733.25,733.25,733.751,,,,,,,,,,,,,,0.99,1,,,,,,,,,,,,,,m,,,,,,,,,,,,,,,,126,1,733.751,734.751,m,1,0.99,,[],[],[],[],[],[],[],734.751,736.75,736.75,738.436,[],[],[],[],[],[],[],m,738.437,738.437,-0.005440696,-0.390097933,0,0,0,,0,125,125,123,1,1,word,MODERATE,print,moderate_p.png,1.679,,,,,
,,,,32046,001,2025-10-16_18h43.07.396,HW_LDT_1,2024.2.4,MacIntel,58.82352941,,,,,,,,,,,,,,,,,,,,,738.438,738.634,738.634,739.133,,,,,,,,,,,,,,1.638,1,,,,,,,,,,,,,,m,,,,,,,,,,,,,,,,127,0,739.133,740.784,m,1,1.638,,[],[],[],[],[],[],[],740.784,742.784,742.784,742.784,[],[],[],[],[],[],[],,742.785,742.785,-0.005440696,-0.390097933,0,0,0,,0,126,126,80,1,1,word,ACADEMY,cursive,academy_c.png,,,,,,
,,,,32046,001,2025-10-16_18h43.07.396,HW_LDT_1,2024.2.4,MacIntel,58.82352941,,,,,,,,,,,,,,,,,,,,,742.785,742.983,742.983,743.484,,,,,,,,,,,,,,1.872,1,,,,,,,,,,,,,,m,,,,,,,,,,,,,,,,128,0,743.484,745.367,m,1,1.872,,[],[],[],[],[],[],[],745.367,747.367,747.367,747.367,[],[],[],[],[],[],[],,747.367,747.368,-0.005440696,-0.390097933,0,0,0,,0,127,127,119,1,1,word,MEMORY,cursive,memory_c.png,,,,,,
,,,,32046,001,2025-10-16_18h43.07.396,HW_LDT_1,2024.2.4,MacIntel,58.82352941,,,,,,,,,,,,,,,,,,,,,747.368,747.567,747.567,748.067,,,,,,,,,,,,,,1.08,1,,,,,,,,,,,,,,m,,,,,,,,,,,,,,,,129,0,748.067,749.153,m,1,1.08,,[],[],[],[],[],[],[],749.153,751.15,751.15,751.15,[],[],[],[],[],[],[],,751.15,751.15,-0.005440696,-0.390097933,0,0,0,,0,128,128,115,1,1,word,LOGICAL,cursive,logical_c.png,,,,,,
,,,,32046,001,2025-10-16_18h43.07.396,HW_LDT_1,2024.2.4,MacIntel,58.82352941,,,,,,,,,,,,,,,,,,,,,751.151,751.351,751.351,751.851,,,,,,,,,,,,,,3.32,0,,,,,,,,,,,,,,m,,,,,,,,,,,,,,,,130,1,751.851,755.184,z,0,3.32,,[],[],[],[],[],[],[],755.184,757.184,757.184,758.717,[],[],[],[],[],[],[],z,758.717,758.717,-0.005440696,-0.390097933,0,0,0,,0,129,129,125,1,1,word,OPERATOR,cursive,operator_c.png,1.53,,,,,
,,,,32046,001,2025-10-16_18h43.07.396,HW_LDT_1,2024.2.4,MacIntel,58.82352941,,,,,,,,,,,,,,,,,,,,,758.718,758.917,758.917,759.417,,,,,,,,,,,,,,1.11,1,,,,,,,,,,,,,,z,,,,,,,,,,,,,,,,131,0,759.418,760.534,z,1,1.11,,[],[],[],[],[],[],[],760.534,762.533,762.533,762.533,[],[],[],[],[],[],[],,762.533,762.533,-0.005440696,-0.390097933,0,0,0,,0,130,130,18,1,1,RL,mishafe,print,mishafe_p.png,,,,,,
,,,,32046,001,2025-10-16_18h43.07.396,HW_LDT_1,2024.2.4,MacIntel,58.82352941,,,,,,,,,,,,,,,,,,,,,762.534,762.734,762.734,763.234,,,,,,,,,,,,,,1.295,1,,,,,,,,,,,,,,m,,,,,,,,,,,,,,,,132,0,763.234,764.536,m,1,1.295,,[],[],[],[],[],[],[],764.536,766.533,766.533,766.534,[],[],[],[],[],[],[],,766.534,766.534,-0.005440696,-0.390097933,0,0,0,,0,131,131,154,1,1,word,STORAGE,cursive,storage_c.png,,,,,,
,,,,32046,001,2025-10-16_18h43.07.396,HW_LDT_1,2024.2.4,MacIntel,58.82352941,,,,,,,,,,,,,,,,,,,,,766.535,766.734,766.734,767.234,,,,,,,,,,,,,,0.954,1,,,,,,,,,,,,,,m,,,,,,,,,,,,,,,,133,0,767.234,768.201,m,1,0.954,,[],[],[],[],[],[],[],768.201,770.2,770.2,770.201,[],[],[],[],[],[],[],,770.201,770.201,-0.005440696,-0.390097933,0,0,0,,0,132,132,138,1,1,word,REFUSAL,print,refusal_p.png,,,,,,
,,,,32046,001,2025-10-16_18h43.07.396,HW_LDT_1,2024.2.4,MacIntel,58.82352941,,,,,,,,,,,,,,,,,,,,,770.201,770.4,770.4,770.9,,,,,,,,,,,,,,2.324,1,,,,,,,,,,,,,,z,,,,,,,,,,,,,,,,134,0,770.901,773.234,z,1,2.324,,[],[],[],[],[],[],[],773.234,775.234,775.234,775.234,[],[],[],[],[],[],[],,775.234,775.234,-0.005440696,-0.390097933,0,0,0,,0,133,133,9,1,1,RL,docirant,cursive,docirant_c.png,,,,,,
,,,,32046,001,2025-10-16_18h43.07.396,HW_LDT_1,2024.2.4,MacIntel,58.82352941,,,,,,,,,,,,,,,,,,,,,775.235,775.434,775.434,775.934,,,,,,,,,,,,,,1.203,0,,,,,,,,,,,,,,m,,,,,,,,,,,,,,,,135,0,775.934,777.151,z,0,1.203,,[],[],[],[],[],[],[],777.151,779.15,779.151,779.151,[],[],[],[],[],[],[],,779.151,779.151,-0.005440696,-0.390097933,0,0,0,,0,134,134,122,1,1,word,MOBILE,cursive,mobile_c.png,,,,,,
,,,,32046,001,2025-10-16_18h43.07.396,HW_LDT_1,2024.2.4,MacIntel,58.82352941,,,,,,,,,,,,,,,,,,,,,779.152,779.35,779.35,779.85,,,,,,,,,,,,,,3.621,1,,,,,,,,,,,,,,z,,,,,,,,,,,,,,,,136,0,779.851,783.484,z,1,3.621,,[],[],[],[],[],[],[],783.484,785.484,785.484,785.484,[],[],[],[],[],[],[],,785.484,785.484,-0.005440696,-0.390097933,0,0,0,,0,135,135,29,1,1,RL,refakive,cursive,refakive_c.png,,,,,,
,,,,32046,001,2025-10-16_18h43.07.396,HW_LDT_1,2024.2.4,MacIntel,58.82352941,,,,,,,,,,,,,,,,,,,,,785.485,785.684,785.684,786.183,,,,,,,,,,,,,,1.004,1,,,,,,,,,,,,,,z,,,,,,,,,,,,,,,,137,0,786.183,787.201,z,1,1.004,,[],[],[],[],[],[],[],787.201,789.2,789.201,789.201,[],[],[],[],[],[],[],,789.201,789.201,-0.005440696,-0.390097933,0,0,0,,0,136,136,32,1,1,RL,rebicent,print,rebicent_p.png,,,,,,
,,,,32046,001,2025-10-16_18h43.07.396,HW_LDT_1,2024.2.4,MacIntel,58.82352941,,,,,,,,,,,,,,,,,,,,,789.202,789.4,789.4,789.9,,,,,,,,,,,,,,0.804,1,,,,,,,,,,,,,,m,,,,,,,,,,,,,,,,138,0,789.901,790.717,m,1,0.804,,[],[],[],[],[],[],[],790.717,792.717,792.717,792.718,[],[],[],[],[],[],[],,792.718,792.718,-0.005440696,-0.390097933,0,0,0,,0,137,137,98,1,1,word,CRIMINAL,print,criminal_p.png,,,,,,
,,,,32046,001,2025-10-16_18h43.07.396,HW_LDT_1,2024.2.4,MacIntel,58.82352941,,,,,,,,,,,,,,,,,,,,,792.719,792.917,792.917,793.417,,,,,,,,,,,,,,0.92,1,,,,,,,,,,,,,,m,,,,,,,,,,,,,,,,139,0,793.417,794.35,m,1,0.92,,[],[],[],[],[],[],[],794.351,796.35,796.35,796.35,[],[],[],[],[],[],[],,796.35,796.351,-0.005440696,-0.390097933,0,0,0,,0,138,138,113,1,1,word,LITERAL,print,literal_p.png,,,,,,
,,,,32046,001,2025-10-16_18h43.07.396,HW_LDT_1,2024.2.4,MacIntel,58.82352941,,,,,,,,,,,,,,,,,,,,,796.351,796.55,796.55,797.05,,,,,,,,,,,,,,1.672,1,,,,,,,,,,,,,,z,,,,,,,,,,,,,,,,140,0,797.05,798.734,z,1,1.672,,[],[],[],[],[],[],[],798.734,800.733,800.733,800.734,[],[],[],[],[],[],[],,800.734,800.734,-0.005440696,-0.390097933,0,0,0,,0,139,139,12,1,1,RL,ebiwent,print,ebiwent_p.png,,,,,,
,,,,32046,001,2025-10-16_18h43.07.396,HW_LDT_1,2024.2.4,MacIntel,58.82352941,,,,,,,,,,,,,,,,,,,,,800.735,800.934,800.934,801.434,,,,,,,,,,,,,,0.874,1,,,,,,,,,,,,,,z,,,,,,,,,,,,,,,,141,0,801.434,802.317,z,1,0.874,,[],[],[],[],[],[],[],802.317,804.316,804.316,804.316,[],[],[],[],[],[],[],,804.316,804.316,-0.005440696,-0.390097933,0,0,0,,0,140,140,22,1,1,RL,patisic,print,patisic_p.png,,,,,,
,,,,32046,001,2025-10-16_18h43.07.396,HW_LDT_1,2024.2.4,MacIntel,58.82352941,,,,,,,,,,,,,,,,,,,,,804.318,804.517,804.517,805.017,,,,,,,,,,,,,,1.312,1,,,,,,,,,,,,,,z,,,,,,,,,,,,,,,,142,0,805.017,806.334,z,1,1.312,,[],[],[],[],[],[],[],806.334,808.334,808.334,808.334,[],[],[],[],[],[],[],,808.334,808.334,-0.005440696,-0.390097933,0,0,0,,0,141,141,51,1,1,TL,corevage,print,corevage_p.png,,,,,,
,,,,32046,001,2025-10-16_18h43.07.396,HW_LDT_1,2024.2.4,MacIntel,58.82352941,,,,,,,,,,,,,,,,,,,,,808.335,808.534,808.534,809.034,,,,,,,,,,,,,,2.126,1,,,,,,,,,,,,,,m,,,,,,,,,,,,,,,,143,0,809.034,811.167,m,1,2.126,,[],[],[],[],[],[],[],811.167,813.167,813.167,813.167,[],[],[],[],[],[],[],,813.167,813.167,-0.005440696,-0.390097933,0,0,0,,0,142,142,108,1,1,word,FORTUNE,print,fortune_p.png,,,,,,
,,,,32046,001,2025-10-16_18h43.07.396,HW_LDT_1,2024.2.4,MacIntel,58.82352941,,,,,,,,,,,,,,,,,,,,,813.168,813.367,813.367,813.867,,,,,,,,,,,,,,3.536,1,,,,,,,,,,,,,,z,,,,,,,,,,,,,,,,144,1,813.867,817.417,z,1,3.536,,[],[],[],[],[],[],[],817.417,819.417,819.417,820.451,[],[],[],[],[],[],[],z,820.451,820.451,-0.005440696,-0.390097933,0,0,0,,0,143,143,57,1,1,TL,hetirage,cursive,hetirage_c.png,1.023,,,,,
,,,,32046,001,2025-10-16_18h43.07.396,HW_LDT_1,2024.2.4,MacIntel,58.82352941,,,,,,,,,,,,,,,,,,,,,820.452,820.649,820.65,821.15,,,,,,,,,,,,,,2.504,1,,,,,,,,,,,,,,m,,,,,,,,,,,,,,,,145,0,821.151,823.667,m,1,2.504,,[],[],[],[],[],[],[],823.667,825.667,825.667,825.668,[],[],[],[],[],[],[],,825.668,825.668,-0.005440696,-0.390097933,0,0,0,,0,144,144,150,1,1,word,SENTIMENT,cursive,sentiment_c.png,,,,,,
,,,,32046,001,2025-10-16_18h43.07.396,HW_LDT_1,2024.2.4,MacIntel,58.82352941,,,,,,,,,,,,,,,,,,,,,825.668,825.867,825.867,826.367,,,,,,,,,,,,,,1.111,1,,,,,,,,,,,,,,m,,,,,,,,,,,,,,,,146,0,826.367,827.485,m,1,1.111,,[],[],[],[],[],[],[],827.485,829.484,829.484,829.484,[],[],[],[],[],[],[],,829.484,829.484,-0.005440696,-0.390097933,0,0,0,,0,145,145,135,1,1,word,QUALITY,cursive,quality_c.png,,,,,,
,,,,32046,001,2025-10-16_18h43.07.396,HW_LDT_1,2024.2.4,MacIntel,58.82352941,,,,,,,,,,,,,,,,,,,,,829.485,829.683,829.683,830.183,,,,,,,,,,,,,,1.99,1,,,,,,,,,,,,,,m,,,,,,,,,,,,,,,,147,1,830.184,832.183,m,1,1.99,,[],[],[],[],[],[],[],832.183,834.184,834.184,834.886,[],[],[],[],[],[],[],m,834.886,834.886,-0.005440696,-0.390097933,0,0,0,,0,146,146,110,1,1,word,HERITAGE,cursive,heritage_c.png,0.697,,,,,
,,,,32046,001,2025-10-16_18h43.07.396,HW_LDT_1,2024.2.4,MacIntel,58.82352941,,,,,,,,,,,,,,,,,,,,,834.887,835.084,835.084,835.584,,,,,,,,,,,,,,2.354,1,,,,,,,,,,,,,,m,,,,,,,,,,,,,,,,148,0,835.584,837.95,m,1,2.354,,[],[],[],[],[],[],[],837.951,839.95,839.951,839.951,[],[],[],[],[],[],[],,839.951,839.951,-0.005440696,-0.390097933,0,0,0,,0,147,147,155,1,1,word,STRATEGY,cursive,strategy_c.png,,,,,,
,,,,32046,001,2025-10-16_18h43.07.396,HW_LDT_1,2024.2.4,MacIntel,58.82352941,,,,,,,,,,,,,,,,,,,,,839.951,840.15,840.151,840.65,,,,,,,,,,,,,,1.437,1,,,,,,,,,,,,,,m,,,,,,,,,,,,,,,,149,0,840.651,842.101,m,1,1.437,,[],[],[],[],[],[],[],842.101,844.1,844.1,844.1,[],[],[],[],[],[],[],,844.1,844.1,-0.005440696,-0.390097933,0,0,0,,0,148,148,86,1,1,word,BESIDE,print,beside_p.png,,,,,,
,,,,32046,001,2025-10-16_18h43.07.396,HW_LDT_1,2024.2.4,MacIntel,58.82352941,,,,,,,,,,,,,,,,,,,,,844.101,844.3,844.3,844.8,,,,,,,,,,,,,,3.873,1,,,,,,,,,,,,,,z,,,,,,,,,,,,,,,,150,0,844.801,848.683,z,1,3.873,,[],[],[],[],[],[],[],848.684,850.684,850.684,850.684,[],[],[],[],[],[],[],,850.684,850.684,-0.005440696,-0.390097933,0,0,0,,0,149,149,3,1,1,RL,casena,cursive,casena_c.png,,,,,,
,,,,32046,001,2025-10-16_18h43.07.396,HW_LDT_1,2024.2.4,MacIntel,58.82352941,,,,,,,,,,,,,,,,,,,,,850.685,850.884,850.884,851.384,,,,,,,,,,,,,,0.737,1,,,,,,,,,,,,,,m,,,,,,,,,,,,,,,,151,1,851.384,852.134,m,1,0.737,,[],[],[],[],[],[],[],852.134,854.134,854.134,855.617,[],[],[],[],[],[],[],z,855.617,855.617,-0.005440696,-0.390097933,0,0,0,,0,150,150,144,1,1,word,RESIDENT,print,resident_p.png,1.47,,,,,
,,,,32046,001,2025-10-16_18h43.07.396,HW_LDT_1,2024.2.4,MacIntel,58.82352941,,,,,,,,,,,,,,,,,,,,,855.618,855.817,855.817,856.317,,,,,,,,,,,,,,1.286,1,,,,,,,,,,,,,,m,,,,,,,,,,,,,,,,152,1,856.317,857.617,m,1,1.286,,[],[],[],[],[],[],[],857.617,859.617,859.617,860.75,[],[],[],[],[],[],[],z,860.751,860.751,-0.005440696,-0.390097933,0,0,0,,0,151,151,95,1,1,word,COMEDY,cursive,comedy_c.png,1.12,,,,,
,,,,32046,001,2025-10-16_18h43.07.396,HW_LDT_1,2024.2.4,MacIntel,58.82352941,,,,,,,,,,,,,,,,,,,,,860.752,860.95,860.95,861.45,,,,,,,,,,,,,,2.456,1,,,,,,,,,,,,,,z,,,,,,,,,,,,,,,,153,0,861.451,863.917,z,1,2.456,,[],[],[],[],[],[],[],863.917,865.916,865.916,865.916,[],[],[],[],[],[],[],,865.916,865.916,-0.005440696,-0.390097933,0,0,0,,0,152,152,26,1,1,RL,quafidy,cursive,quafidy_c.png,,,,,,
,,,,32046,001,2025-10-16_18h43.07.396,HW_LDT_1,2024.2.4,MacIntel,58.82352941,,,,,,,,,,,,,,,,,,,,,865.917,866.117,866.117,866.617,,,,,,,,,,,,,,2.12,1,,,,,,,,,,,,,,m,,,,,,,,,,,,,,,,154,0,866.617,868.75,m,1,2.12,,[],[],[],[],[],[],[],868.751,870.751,870.751,870.751,[],[],[],[],[],[],[],,870.751,870.751,-0.005440696,-0.390097933,0,0,0,,0,153,153,94,1,1,word,CLINICAL,cursive,clinical_c.png,,,,,,
,,,,32046,001,2025-10-16_18h43.07.396,HW_LDT_1,2024.2.4,MacIntel,58.82352941,,,,,,,,,,,,,,,,,,,,,870.751,870.95,870.951,871.45,,,,,,,,,,,,,,2.659,1,,,,,,,,,,,,,,m,,,,,,,,,,,,,,,,155,1,871.451,874.117,m,1,2.659,,[],[],[],[],[],[],[],874.117,876.117,876.117,877.35,[],[],[],[],[],[],[],z,877.35,877.35,-0.005440696,-0.390097933,0,0,0,,0,154,154,103,1,1,word,DISPUTE,cursive,dispute_c.png,1.221,,,,,
,,,,32046,001,2025-10-16_18h43.07.396,HW_LDT_1,2024.2.4,MacIntel,58.82352941,,,,,,,,,,,,,,,,,,,,,877.351,877.55,877.55,878.05,,,,,,,,,,,,,,2.237,1,,,,,,,,,,,,,,m,,,,,,,,,,,,,,,,156,0,878.051,880.3,m,1,2.237,,[],[],[],[],[],[],[],880.301,882.3,882.3,882.301,[],[],[],[],[],[],[],,882.301,882.301,-0.005440696,-0.390097933,0,0,0,,0,155,155,143,1,1,word,REMOVAL,cursive,removal_c.png,,,,,,
,,,,32046,001,2025-10-16_18h43.07.396,HW_LDT_1,2024.2.4,MacIntel,58.82352941,,,,,,,,,,,,,,,,,,,,,882.301,882.5,882.5,883,,,,,,,,,,,,,,2.353,1,,,,,,,,,,,,,,m,,,,,,,,,,,,,,,,157,0,883.001,885.367,m,1,2.353,,[],[],[],[],[],[],[],885.367,887.367,887.367,887.367,[],[],[],[],[],[],[],,887.367,887.367,-0.005440696,-0.390097933,0,0,0,,0,156,156,140,1,1,word,RELATIVE,cursive,relative_c.png,,,,,,
,,,,32046,001,2025-10-16_18h43.07.396,HW_LDT_1,2024.2.4,MacIntel,58.82352941,,,,,,,,,,,,,,,,,,,,,887.368,887.567,887.567,888.067,,,,,,,,,,,,,,0.845,1,,,,,,,,,,,,,,m,,,,,,,,,,,,,,,,158,0,888.067,888.919,m,1,0.845,,[],[],[],[],[],[],[],888.919,890.917,890.917,890.917,[],[],[],[],[],[],[],,890.917,890.917,-0.005440696,-0.390097933,0,0,0,,0,157,157,139,1,1,word,REGULAR,print,regular_p.png,,,,,,
,,,,32046,001,2025-10-16_18h43.07.396,HW_LDT_1,2024.2.4,MacIntel,58.82352941,,,,,,,,,,,,,,,,,,,,,890.918,891.117,891.117,891.617,,,,,,,,,,,,,,2.012,1,,,,,,,,,,,,,,z,,,,,,,,,,,,,,,,159,0,891.617,893.634,z,1,2.012,,[],[],[],[],[],[],[],893.634,895.634,895.634,895.634,[],[],[],[],[],[],[],,895.634,895.634,-0.005440696,-0.390097933,0,0,0,,0,158,158,67,1,1,TL,pocily,cursive,pocily_c.png,,,,,,
,,,,32046,001,2025-10-16_18h43.07.396,HW_LDT_1,2024.2.4,MacIntel,58.82352941,,,,,,,,,,,,,,,,,,,,,895.635,895.833,895.833,896.333,,,,,,,,,,,,,,3.104,1,,,,,,,,,,,,,,z,,,,,,,,,,,,,,,,160,0,896.334,899.45,z,1,3.104,,[],[],[],[],[],[],[],899.45,901.45,901.45,901.45,[],[],[],[],[],[],[],,901.451,901.451,-0.005440696,-0.390097933,0,0,0,,0,159,159,58,1,1,TL,incidate,cursive,incidate_c.png,,,,,,
,,,,32046,001,2025-10-16_18h43.07.396,HW_LDT_1,2024.2.4,MacIntel,58.82352941,,,,,,,,,,,,,,,,,,,,,,,,,,,,,,,,,,,,,,,,,,,,,,,,,,,,,,,,,,,,,,,,,,,,,,,,,,,,,,,,,,,,,,,,,,,,,,,,,,,,,,,,,,,,,,,,,,,,,,901.461,906.451
