counterbalance_lists.group,counterbalance_lists.remaining,get_list.started,get_list.stopped,participant,session,date,expName,psychopyVersion,OS,frameRate,Instructions.started,Instructions.stopped,key_resp.keys,instr_done_touch.x,instr_done_touch.y,instr_done_touch.leftButton,instr_done_touch.midButton,instr_done_touch.rightButton,instr_done_touch.clicked_name,start_instr.thisRepN,start_instr.thisTrialN,start_instr.thisN,start_instr.thisIndex,start_instr.ran,pageN,phase,instruct_text,has_image,instruct_image,key_resp.rt,key_resp.duration,showProgress.started,showProgress.stopped,fix.started,fix.stopped,prac.started,prac.stopped,response.keys,response.corr,response.rt,response.duration,touch_resp.x,touch_resp.y,touch_resp.leftButton,touch_resp.midButton,touch_resp.rightButton,touch_resp.time,touch_resp.clicked_name,rt,corr,feedback.started,feedback.stopped,trials.thisRepN,trials.thisTrialN,trials.thisN,trials.thisIndex,trials.ran,TrialID,StimulusType,Condition,PrimeDuration,Prime,Target,corrAns,Instructions_expt.started,Instructions_expt.stopped,key_resp_3.keys,key_resp_3.rt,key_resp_3.duration,instr_done_touch_3.x,instr_done_touch_3.y,instr_done_touch_3.leftButton,instr_done_touch_3.midButton,instr_done_touch_3.rightButton,instr_experiment.thisRepN,instr_experiment.thisTrialN,instr_experiment.thisN,instr_experiment.thisIndex,instr_experiment.ran,trialID,flag,maintask.started,maintask.stopped,key_resp_2.keys,key_resp_2.corr,key_resp_2.rt,key_resp_2.duration,targ_click.x,targ_click.y,targ_click.leftButton,targ_click.midButton,targ_click.rightButton,targ_click.time,targ_click.clicked_name,ITI.started,ITI.stopped,probe.started,probe.stopped,click_probe.x,click_probe.y,click_probe.leftButton,click_probe.midButton,click_probe.rightButton,click_probe.time,click_probe.clicked_name,key_resp_probe.keys,Break.started,Break.stopped,break_done_touch.x,break_done_touch.y,break_done_touch.leftButton,break_done_touch.midButton,break_done_touch.rightButton,break_done_keyboard.keys,list4_trials.thisRepN,list4_trials.thisTrialN,list4_trials.thisN,list4_trials.thisIndex,list4_trials.ran,list_id,item_type,string,font,stim_file,key_resp_probe.rt,key_resp_probe.duration,break_done_keyboard.rt,break_done_keyboard.duration,End.started,End.stopped
list4,,0.4403,0.4406,32045,001,2025-10-15_18h39.49.706,HW_LDT_1,2024.2.4,MacIntel,59.88023952,,,,,,,,,,,,,,,,,,,,,,,,,,,,,,,,,,,,,,,,,,,,,,,,,,,,,,,,,,,,,,,,,,,,,,,,,,,,,,,,,,,,,,,,,,,,,,,,,,,,,,,,,,,,,,,,,,,,,,,,
,,,,32045,001,2025-10-15_18h39.49.706,HW_LDT_1,2024.2.4,MacIntel,59.88023952,0.46,22.2184,,0.010537099,-0.392363473,1,0,0,instr_done_button,0,0,0,0,1,1,instructions,"INSTRUCTIONS
At the start of each trial, look at the plus sign  (+) in the center of the screen.  This tells you that a trial is about to begin and where to look. Second, the plus sign will disappear and a string of letters will appear. Your task is to determine if the string of letters is a word or not. If the item is a word press the M key (on keyboard)  or touch the word button (phone/tablet).  If the item is not a word,  press the  Z key (on keyboard)  or touch the nonword button (on phone/tablet). The items will be presented for a short time. 
Press the space bar or touch  continue.",0,,,,,,,,,,,,,,,,,,,,,,,,,,,,,,,,,,,,,,,,,,,,,,,,,,,,,,,,,,,,,,,,,,,,,,,,,,,,,,,,,,,,,,,,,,,,,,,,,,,,,,
,,,,32045,001,2025-10-15_18h39.49.706,HW_LDT_1,2024.2.4,MacIntel,59.88023952,22.2196,27.3185,space,0.010537099,-0.392363473,0,0,0,,0,1,1,1,1,2,instructions,"If your device has a keyboard, press the 'Z' key for nonwords and the 'M' key for words.





Press the space bar or touch the button below to continue.",0,keyboard-example.gif,5.0722,,,,,,,,,,,,,,,,,,,,,,,,,,,,,,,,,,,,,,,,,,,,,,,,,,,,,,,,,,,,,,,,,,,,,,,,,,,,,,,,,,,,,,,,,,,,,,,,,,,,
,,,,32045,001,2025-10-15_18h39.49.706,HW_LDT_1,2024.2.4,MacIntel,59.88023952,27.3204,29.4683,space,0.010537099,-0.392363473,0,0,0,,0,2,2,2,1,3,instructions,"If you are using a touchscreen only device, use the buttons on the screen. Do not use the mouse.





Press the space bar or touch the button below to continue.",0,touchscreen-example.gif,2.1184,,,,,,,,,,,,,,,,,,,,,,,,,,,,,,,,,,,,,,,,,,,,,,,,,,,,,,,,,,,,,,,,,,,,,,,,,,,,,,,,,,,,,,,,,,,,,,,,,,,,
,,,,32045,001,2025-10-15_18h39.49.706,HW_LDT_1,2024.2.4,MacIntel,59.88023952,29.4702,32.185,space,0.010537099,-0.392363473,0,0,0,,0,3,3,3,1,4,instructions,"It is very important that you respond as quickly and accurately as possible, as each letter string will only be on the screen for two seconds. If you do not respond within this time, the message 'Too slow!' will be displayed and the experiment will progress to the next letter string. The first 20 trials will be practice trials and you will receive feedback on your answers. 

Press the space bar or touch the button below to start the practice trials.",0,,2.6888,,,,,,,,,,,,,,,,,,,,,,,,,,,,,,,,,,,,,,,,,,,,,,,,,,,,,,,,,,,,,,,,,,,,,,,,,,,,,,,,,,,,,,,,,,,,,,,,,,,,
,,,,32045,001,2025-10-15_18h39.49.706,HW_LDT_1,2024.2.4,MacIntel,59.88023952,,,,,,,,,,,,,,,,,,,,,,32.2126,32.3838,32.3841,32.8848,32.8851,35.2016,m,1,2.2982,,[],[],[],[],[],[],[],2.2982,1,35.2021,35.7014,0,0,0,3,1,1004,WORD,"ID",16,matrix,MATRIX,m,,,,,,,,,,,,,,,,,,,,,,,,,,,,,,,,,,,,,,,,,,,,,,,,,,,,,,,,,,,,,,,,,,
,,,,32045,001,2025-10-15_18h39.49.706,HW_LDT_1,2024.2.4,MacIntel,59.88023952,,,,,,,,,,,,,,,,,,,,,,35.703,35.9003,35.9003,36.4002,36.4015,37.3347,m,1,0.9118,,[],[],[],[],[],[],[],0.9118,1,37.3348,37.8346,0,1,1,4,1,1005,WORD,UN,33,abound,SQUEAK,m,,,,,,,,,,,,,,,,,,,,,,,,,,,,,,,,,,,,,,,,,,,,,,,,,,,,,,,,,,,,,,,,,,
,,,,32045,001,2025-10-15_18h39.49.706,HW_LDT_1,2024.2.4,MacIntel,59.88023952,,,,,,,,,,,,,,,,,,,,,,37.8361,38.0345,38.0345,38.5346,38.5356,39.8845,z,1,1.3325,,[],[],[],[],[],[],[],1.3325,1,39.8847,40.3835,0,2,2,15,1,1016,NW,UN,16,mushed,WHAISE,z,,,,,,,,,,,,,,,,,,,,,,,,,,,,,,,,,,,,,,,,,,,,,,,,,,,,,,,,,,,,,,,,,,
,,,,32045,001,2025-10-15_18h39.49.706,HW_LDT_1,2024.2.4,MacIntel,59.88023952,,,,,,,,,,,,,,,,,,,,,,40.385,40.5846,40.5846,41.0845,41.0855,42.7178,z,1,1.6189,,[],[],[],[],[],[],[],1.6189,1,42.7179,43.2179,0,3,3,11,1,1012,NW,"ID",16,rashet,RASHET,z,,,,,,,,,,,,,,,,,,,,,,,,,,,,,,,,,,,,,,,,,,,,,,,,,,,,,,,,,,,,,,,,,,
,,,,32045,001,2025-10-15_18h39.49.706,HW_LDT_1,2024.2.4,MacIntel,59.88023952,,,,,,,,,,,,,,,,,,,,,,43.2193,43.4177,43.4179,43.9178,43.9188,44.6846,m,1,0.7435,,[],[],[],[],[],[],[],0.7435,1,44.6847,45.1846,0,4,4,5,1,1006,WORD,UN,33,frenzy,OBTAIN,m,,,,,,,,,,,,,,,,,,,,,,,,,,,,,,,,,,,,,,,,,,,,,,,,,,,,,,,,,,,,,,,,,,
,,,,32045,001,2025-10-15_18h39.49.706,HW_LDT_1,2024.2.4,MacIntel,59.88023952,,,,,,,,,,,,,,,,,,,,,,45.1859,45.3844,45.3845,45.8835,45.8847,46.9169,m,1,1.0138,,[],[],[],[],[],[],[],1.0138,1,46.917,47.4178,0,5,5,0,1,1001,WORD,"ID",33,utopia,UTOPIA,m,,,,,,,,,,,,,,,,,,,,,,,,,,,,,,,,,,,,,,,,,,,,,,,,,,,,,,,,,,,,,,,,,,
,,,,32045,001,2025-10-15_18h39.49.706,HW_LDT_1,2024.2.4,MacIntel,59.88023952,,,,,,,,,,,,,,,,,,,,,,47.4193,47.6168,47.6169,48.1178,48.1189,48.6845,m,1,0.5583,,[],[],[],[],[],[],[],0.5583,1,48.6847,49.1845,0,6,6,7,1,1008,WORD,UN,16,hurdle,VOLUME,m,,,,,,,,,,,,,,,,,,,,,,,,,,,,,,,,,,,,,,,,,,,,,,,,,,,,,,,,,,,,,,,,,,
,,,,32045,001,2025-10-15_18h39.49.706,HW_LDT_1,2024.2.4,MacIntel,59.88023952,,,,,,,,,,,,,,,,,,,,,,49.186,49.3834,49.3836,49.8844,49.8855,50.9512,z,1,1.0568,,[],[],[],[],[],[],[],1.0568,1,50.9514,51.4511,0,7,7,12,1,1013,NW,UN,33,adveil,SPRINY,z,,,,,,,,,,,,,,,,,,,,,,,,,,,,,,,,,,,,,,,,,,,,,,,,,,,,,,,,,,,,,,,,,,
,,,,32045,001,2025-10-15_18h39.49.706,HW_LDT_1,2024.2.4,MacIntel,59.88023952,,,,,,,,,,,,,,,,,,,,,,51.4527,51.6502,51.6503,52.1511,52.1521,52.7013,m,1,0.5395,,[],[],[],[],[],[],[],0.5395,1,52.7015,53.2001,0,8,8,2,1,1003,WORD,"ID",16,almond,ALMOND,m,,,,,,,,,,,,,,,,,,,,,,,,,,,,,,,,,,,,,,,,,,,,,,,,,,,,,,,,,,,,,,,,,,
,,,,32045,001,2025-10-15_18h39.49.706,HW_LDT_1,2024.2.4,MacIntel,59.88023952,,,,,,,,,,,,,,,,,,,,,,53.2016,53.4012,53.4013,53.9002,53.9011,56.0002,z,1,2.0806,,[],[],[],[],[],[],[],2.0806,1,56.0003,56.5001,0,9,9,13,1,1014,NW,UN,33,winfer,ROUPET,z,,,,,,,,,,,,,,,,,,,,,,,,,,,,,,,,,,,,,,,,,,,,,,,,,,,,,,,,,,,,,,,,,,
,,,,32045,001,2025-10-15_18h39.49.706,HW_LDT_1,2024.2.4,MacIntel,59.88023952,,,,,,,,,,,,,,,,,,,,,,56.5014,56.7002,56.7003,57.2011,57.202,57.9346,m,1,0.7168,,[],[],[],[],[],[],[],0.7168,1,57.9348,58.4345,0,10,10,6,1,1007,WORD,UN,16,tropic,ZOMBIE,m,,,,,,,,,,,,,,,,,,,,,,,,,,,,,,,,,,,,,,,,,,,,,,,,,,,,,,,,,,,,,,,,,,
,,,,32045,001,2025-10-15_18h39.49.706,HW_LDT_1,2024.2.4,MacIntel,59.88023952,,,,,,,,,,,,,,,,,,,,,,58.4359,58.6334,58.6335,59.1335,59.1344,60.2346,z,1,1.0813,,[],[],[],[],[],[],[],1.0813,1,60.2347,60.7344,0,11,11,14,1,1015,NW,UN,16,miaber,THRALE,z,,,,,,,,,,,,,,,,,,,,,,,,,,,,,,,,,,,,,,,,,,,,,,,,,,,,,,,,,,,,,,,,,,
,,,,32045,001,2025-10-15_18h39.49.706,HW_LDT_1,2024.2.4,MacIntel,59.88023952,,,,,,,,,,,,,,,,,,,,,,60.7359,60.9335,60.9336,61.4345,61.4357,61.9512,m,1,0.5024,,[],[],[],[],[],[],[],0.5024,1,61.9513,62.4511,0,12,12,1,1,1002,WORD,"ID",33,adjust,ADJUST,m,,,,,,,,,,,,,,,,,,,,,,,,,,,,,,,,,,,,,,,,,,,,,,,,,,,,,,,,,,,,,,,,,,
,,,,32045,001,2025-10-15_18h39.49.706,HW_LDT_1,2024.2.4,MacIntel,59.88023952,,,,,,,,,,,,,,,,,,,,,,62.4524,62.6501,62.6502,63.1511,63.152,64.2345,z,1,1.0734,,[],[],[],[],[],[],[],1.0734,1,64.2347,64.7344,0,13,13,8,1,1009,NW,"ID",33,aslert,ASLERT,z,,,,,,,,,,,,,,,,,,,,,,,,,,,,,,,,,,,,,,,,,,,,,,,,,,,,,,,,,,,,,,,,,,
,,,,32045,001,2025-10-15_18h39.49.706,HW_LDT_1,2024.2.4,MacIntel,59.88023952,,,,,,,,,,,,,,,,,,,,,,64.7358,64.9333,64.9335,65.4344,65.4353,67.018,z,1,1.5747,,[],[],[],[],[],[],[],1.5747,1,67.0181,67.5177,0,14,14,9,1,1010,NW,"ID",33,fariny,FARINY,z,,,,,,,,,,,,,,,,,,,,,,,,,,,,,,,,,,,,,,,,,,,,,,,,,,,,,,,,,,,,,,,,,,
,,,,32045,001,2025-10-15_18h39.49.706,HW_LDT_1,2024.2.4,MacIntel,59.88023952,,,,,,,,,,,,,,,,,,,,,,67.5192,67.7168,67.7168,68.2167,68.2176,69.1004,m,0,0.8733,,[],[],[],[],[],[],[],0.8733,0,69.1014,69.6003,0,15,15,10,1,1011,NW,"ID",16,inlade,INLADE,z,,,,,,,,,,,,,,,,,,,,,,,,,,,,,,,,,,,,,,,,,,,,,,,,,,,,,,,,,,,,,,,,,,
,,,,32045,001,2025-10-15_18h39.49.706,HW_LDT_1,2024.2.4,MacIntel,59.88023952,,,,,,,,,,,,,,,1,end_of_practice,"You have completed the practice trials. During the experimental trials, you will not receive feedback. On some trials you will be asked to report whether the item you just saw was in cursive or print. 
Before you begin, please ensure that you are in a comfortable and quiet location and will not be disturbed for about 15 minutes, as we cannot use your data if you do not complete all the trials. 
 When you are ready to start the experimental trials, please press space or touch the button below.",,,,,,,,,,,,,,,,,,,,,,,,,,,,,,,,,,,,,,69.6064,85.0844,space,15.4613,,0.009980277,-0.403006835,0,0,0,0,0,0,0,1,,,,,,,,,,,,,,,,,,,,,,,,,,,,,,,,,,,,,,,,,,,,,,,,,,,
,,,,32045,001,2025-10-15_18h39.49.706,HW_LDT_1,2024.2.4,MacIntel,59.88023952,,,,,,,,,,,,,,,,,,,,,,85.102,85.2834,85.2835,85.7843,,,,,,,,,,,,,,2.4347,1,,,,,,,,,,,,,,m,,,,,,,,,,,,,,,,1,0,85.786,88.2348,m,1,2.4347,,[],[],[],[],[],[],[],88.2352,90.2345,90.2349,90.2377,[],[],[],[],[],[],[],,90.2379,90.2393,0.009980277,-0.403006835,0,0,0,,0,0,0,133,1,4,word,PROVIDE,cursive,provide_c.png,,,,,,
,,,,32045,001,2025-10-15_18h39.49.706,HW_LDT_1,2024.2.4,MacIntel,59.88023952,,,,,,,,,,,,,,,,,,,,,,90.2401,90.4335,90.4335,90.9343,,,,,,,,,,,,,,1.8818,1,,,,,,,,,,,,,,m,,,,,,,,,,,,,,,,2,0,90.9349,92.8182,m,1,1.8818,,[],[],[],[],[],[],[],92.8183,94.8177,94.8178,94.8181,[],[],[],[],[],[],[],,94.8181,94.8182,0.009980277,-0.403006835,0,0,0,,0,1,1,104,1,4,word,DOMINANT,cursive,dominant_c.png,,,,,,
,,,,32045,001,2025-10-15_18h39.49.706,HW_LDT_1,2024.2.4,MacIntel,59.88023952,,,,,,,,,,,,,,,,,,,,,,94.8195,95.0175,95.0177,95.5176,,,,,,,,,,,,,,0.9537,1,,,,,,,,,,,,,,m,,,,,,,,,,,,,,,,3,1,95.5182,96.4844,m,1,0.9537,,[],[],[],[],[],[],[],96.4845,98.4844,98.4845,101.0511,[],[],[],[],[],[],[],z,101.0512,101.0514,0.009980277,-0.403006835,0,0,0,,0,2,2,109,1,4,word,GRATEFUL,print,grateful_p.png,2.5655,,,,,
,,,,32045,001,2025-10-15_18h39.49.706,HW_LDT_1,2024.2.4,MacIntel,59.88023952,,,,,,,,,,,,,,,,,,,,,,101.0525,101.2509,101.251,101.7509,,,,,,,,,,,,,,2.3534,1,,,,,,,,,,,,,,z,,,,,,,,,,,,,,,,4,0,101.7516,104.1178,z,1,2.3534,,[],[],[],[],[],[],[],104.118,106.1176,106.1176,106.118,[],[],[],[],[],[],[],,106.118,106.1181,0.009980277,-0.403006835,0,0,0,,0,3,3,34,1,4,RL,posity,cursive,posity_c.png,,,,,,
,,,,32045,001,2025-10-15_18h39.49.706,HW_LDT_1,2024.2.4,MacIntel,59.88023952,,,,,,,,,,,,,,,,,,,,,,106.1195,106.3166,106.3166,106.8175,,,,,,,,,,,,,,3.2368,0,,,,,,,,,,,,,,m,,,,,,,,,,,,,,,,5,1,106.8181,110.0677,z,0,3.2368,,[],[],[],[],[],[],[],110.0678,112.0675,112.0676,112.8344,[],[],[],[],[],[],[],z,112.8345,112.8347,0.009980277,-0.403006835,0,0,0,,0,4,4,144,1,4,word,RESIDENT,cursive,resident_c.png,0.7544,,,,,
,,,,32045,001,2025-10-15_18h39.49.706,HW_LDT_1,2024.2.4,MacIntel,59.88023952,,,,,,,,,,,,,,,,,,,,,,112.8359,113.0333,113.0333,113.5342,,,,,,,,,,,,,,3.9865,1,,,,,,,,,,,,,,m,,,,,,,,,,,,,,,,6,0,113.5348,117.5344,m,1,3.9865,,[],[],[],[],[],[],[],117.5345,119.5342,119.5344,119.5347,[],[],[],[],[],[],[],,119.5348,119.535,0.009980277,-0.403006835,0,0,0,,0,5,5,92,1,4,word,CATEGORY,cursive,category_c.png,,,,,,
,,,,32045,001,2025-10-15_18h39.49.706,HW_LDT_1,2024.2.4,MacIntel,59.88023952,,,,,,,,,,,,,,,,,,,,,,119.5363,119.7342,119.7342,120.2333,,,,,,,,,,,,,,1.3705,1,,,,,,,,,,,,,,z,,,,,,,,,,,,,,,,7,0,120.2339,121.6177,z,1,1.3705,,[],[],[],[],[],[],[],121.6178,123.6166,123.6168,123.617,[],[],[],[],[],[],[],,123.617,123.6172,0.009980277,-0.403006835,0,0,0,,0,6,6,1,1,4,RL,afaneur,cursive,afaneur_c.png,,,,,,
,,,,32045,001,2025-10-15_18h39.49.706,HW_LDT_1,2024.2.4,MacIntel,59.88023952,,,,,,,,,,,,,,,,,,,,,,123.6185,123.8174,123.8175,124.3175,,,,,,,,,,,,,,1.7649,1,,,,,,,,,,,,,,z,,,,,,,,,,,,,,,,8,0,124.3181,126.0842,z,1,1.7649,,[],[],[],[],[],[],[],126.0844,128.0841,128.0842,128.0845,[],[],[],[],[],[],[],,128.0845,128.0847,0.009980277,-0.403006835,0,0,0,,0,7,7,28,1,4,RL,mifikary,print,mifikary_p.png,,,,,,
,,,,32045,001,2025-10-15_18h39.49.706,HW_LDT_1,2024.2.4,MacIntel,59.88023952,,,,,,,,,,,,,,,,,,,,,,128.0858,128.2833,128.2833,128.7841,,,,,,,,,,,,,,2.1483,1,,,,,,,,,,,,,,z,,,,,,,,,,,,,,,,9,0,128.7847,130.9343,z,1,2.1483,,[],[],[],[],[],[],[],130.9345,132.9332,132.9332,132.9335,[],[],[],[],[],[],[],,132.9336,132.9337,0.009980277,-0.403006835,0,0,0,,0,8,8,41,1,4,RL,rebicent,cursive,rebicent_c.png,,,,,,
,,,,32045,001,2025-10-15_18h39.49.706,HW_LDT_1,2024.2.4,MacIntel,59.88023952,,,,,,,,,,,,,,,,,,,,,,132.935,133.1342,133.1342,133.6341,,,,,,,,,,,,,,6.1866,1,,,,,,,,,,,,,,z,,,,,,,,,,,,,,,,10,0,133.6348,139.8342,z,1,6.1866,,[],[],[],[],[],[],[],139.8343,141.8332,141.8333,141.8336,[],[],[],[],[],[],[],,141.8336,141.8338,0.009980277,-0.403006835,0,0,0,,0,9,9,24,1,4,RL,marmipal,cursive,marmipal_c.png,,,,,,
,,,,32045,001,2025-10-15_18h39.49.706,HW_LDT_1,2024.2.4,MacIntel,59.88023952,,,,,,,,,,,,,,,,,,,,,,141.8351,142.034,142.0342,142.5341,,,,,,,,,,,,,,1.0192,1,,,,,,,,,,,,,,m,,,,,,,,,,,,,,,,11,1,142.5347,143.5666,m,1,1.0192,,[],[],[],[],[],[],[],143.5668,145.5674,145.5675,147.9674,[],[],[],[],[],[],[],z,147.9676,147.9678,0.009980277,-0.403006835,0,0,0,,0,10,10,112,1,4,word,LIBERAL,cursive,liberal_c.png,2.3994,,,,,
,,,,32045,001,2025-10-15_18h39.49.706,HW_LDT_1,2024.2.4,MacIntel,59.88023952,,,,,,,,,,,,,,,,,,,,,,147.9691,148.1665,148.1665,148.6674,,,,,,,,,,,,,,0.9967,1,,,,,,,,,,,,,,m,,,,,,,,,,,,,,,,12,0,148.6678,149.6674,m,1,0.9967,,[],[],[],[],[],[],[],149.6675,151.6673,151.6674,151.6677,[],[],[],[],[],[],[],,151.6677,151.6678,0.009980277,-0.403006835,0,0,0,,0,11,11,131,1,4,word,POPULAR,print,popular_p.png,,,,,,
,,,,32045,001,2025-10-15_18h39.49.706,HW_LDT_1,2024.2.4,MacIntel,59.88023952,,,,,,,,,,,,,,,,,,,,,,151.6691,151.8674,151.8674,152.3674,,,,,,,,,,,,,,2.3321,1,,,,,,,,,,,,,,z,,,,,,,,,,,,,,,,13,1,152.3679,154.701,z,1,2.3321,,[],[],[],[],[],[],[],154.7011,156.7007,156.7008,159.0174,[],[],[],[],[],[],[],z,159.0174,159.0177,0.009980277,-0.403006835,0,0,0,,0,12,12,61,1,4,TL,lotace,cursive,lotace_c.png,2.3158,,,,,
,,,,32045,001,2025-10-15_18h39.49.706,HW_LDT_1,2024.2.4,MacIntel,59.88023952,,,,,,,,,,,,,,,,,,,,,,159.0186,159.2174,159.2175,159.7174,,,,,,,,,,,,,,1.0872,1,,,,,,,,,,,,,,z,,,,,,,,,,,,,,,,14,0,159.7179,160.8175,z,1,1.0872,,[],[],[],[],[],[],[],160.8176,162.8174,162.8174,162.8176,[],[],[],[],[],[],[],,162.8177,162.8178,0.009980277,-0.403006835,0,0,0,,0,13,13,47,1,4,RL,stopave,print,stopave_p.png,,,,,,
,,,,32045,001,2025-10-15_18h39.49.706,HW_LDT_1,2024.2.4,MacIntel,59.88023952,,,,,,,,,,,,,,,,,,,,,,162.8189,163.0173,163.0174,163.5174,,,,,,,,,,,,,,0.8872,1,,,,,,,,,,,,,,m,,,,,,,,,,,,,,,,15,0,163.5179,164.4174,m,1,0.8872,,[],[],[],[],[],[],[],164.4176,166.4173,166.4173,166.4176,[],[],[],[],[],[],[],,166.4177,166.4179,0.009980277,-0.403006835,0,0,0,,0,14,14,93,1,4,word,CEREMONY,print,ceremony_p.png,,,,,,
,,,,32045,001,2025-10-15_18h39.49.706,HW_LDT_1,2024.2.4,MacIntel,59.88023952,,,,,,,,,,,,,,,,,,,,,,166.419,166.6174,166.6174,167.1173,,,,,,,,,,,,,,0.8252,1,,,,,,,,,,,,,,z,,,,,,,,,,,,,,,,16,0,167.1179,167.9508,z,1,0.8252,,[],[],[],[],[],[],[],167.9509,169.9507,169.9507,169.9509,[],[],[],[],[],[],[],,169.951,169.9511,0.009980277,-0.403006835,0,0,0,,0,15,15,9,1,4,RL,cafigal,print,cafigal_p.png,,,,,,
,,,,32045,001,2025-10-15_18h39.49.706,HW_LDT_1,2024.2.4,MacIntel,59.88023952,,,,,,,,,,,,,,,,,,,,,,169.9523,170.1508,170.1509,170.6507,,,,,,,,,,,,,,0.6376,1,,,,,,,,,,,,,,m,,,,,,,,,,,,,,,,17,1,170.6512,171.3007,m,1,0.6376,,[],[],[],[],[],[],[],171.3008,173.3007,173.3007,174.6508,[],[],[],[],[],[],[],m,174.6508,174.651,0.009980277,-0.403006835,0,0,0,,0,16,16,84,1,4,word,BELOVED,print,beloved_p.png,1.3493,,,,,
,,,,32045,001,2025-10-15_18h39.49.706,HW_LDT_1,2024.2.4,MacIntel,59.88023952,,,,,,,,,,,,,,,,,,,,,,174.6523,174.8506,174.8506,175.3506,,,,,,,,,,,,,,0.8747,1,,,,,,,,,,,,,,z,,,,,,,,,,,,,,,,18,0,175.3512,176.2341,z,1,0.8747,,[],[],[],[],[],[],[],176.2342,178.234,178.234,178.2343,[],[],[],[],[],[],[],,178.2344,178.2345,0.009980277,-0.403006835,0,0,0,,0,17,17,7,1,4,RL,casena,print,casena_p.png,,,,,,
,,,,32045,001,2025-10-15_18h39.49.706,HW_LDT_1,2024.2.4,MacIntel,59.88023952,,,,,,,,,,,,,,,,,,,,,,178.2358,178.4339,178.434,178.934,,,,,,,,,,,,,,1.2709,1,,,,,,,,,,,,,,z,,,,,,,,,,,,,,,,19,0,178.9345,180.2173,z,1,1.2709,,[],[],[],[],[],[],[],180.2175,182.2173,182.2174,182.2176,[],[],[],[],[],[],[],,182.2176,182.2179,0.009980277,-0.403006835,0,0,0,,0,18,18,67,1,4,TL,polupar,print,polupar_p.png,,,,,,
,,,,32045,001,2025-10-15_18h39.49.706,HW_LDT_1,2024.2.4,MacIntel,59.88023952,,,,,,,,,,,,,,,,,,,,,,182.2192,182.4173,182.4173,182.9173,,,,,,,,,,,,,,1.1153,1,,,,,,,,,,,,,,z,,,,,,,,,,,,,,,,20,0,182.9178,184.034,z,1,1.1153,,[],[],[],[],[],[],[],184.0341,186.0339,186.0339,186.0342,[],[],[],[],[],[],[],,186.0343,186.0344,0.009980277,-0.403006835,0,0,0,,0,19,19,62,1,4,TL,locigal,print,locigal_p.png,,,,,,
,,,,32045,001,2025-10-15_18h39.49.706,HW_LDT_1,2024.2.4,MacIntel,59.88023952,,,,,,,,,,,,,,,,,,,,,,186.0356,186.2341,186.2341,186.7339,,,,,,,,,,,,,,1.7563,1,,,,,,,,,,,,,,m,,,,,,,,,,,,,,,,21,0,186.7346,188.5007,m,1,1.7563,,[],[],[],[],[],[],[],188.5008,190.5006,190.5007,190.501,[],[],[],[],[],[],[],,190.501,190.5012,0.009980277,-0.403006835,0,0,0,,0,20,20,129,1,4,word,PARENT,cursive,parent_c.png,,,,,,
,,,,32045,001,2025-10-15_18h39.49.706,HW_LDT_1,2024.2.4,MacIntel,59.88023952,,,,,,,,,,,,,,,,,,,,,,190.5025,190.7006,190.7006,191.2006,,,,,,,,,,,,,,1.354,1,,,,,,,,,,,,,,z,,,,,,,,,,,,,,,,22,0,191.2012,192.5674,z,1,1.354,,[],[],[],[],[],[],[],192.5675,194.5673,194.5673,194.5675,[],[],[],[],[],[],[],,194.5676,194.5677,0.009980277,-0.403006835,0,0,0,,0,21,21,19,1,4,RL,elacodate,cursive,elacodate_c.png,,,,,,
,,,,32045,001,2025-10-15_18h39.49.706,HW_LDT_1,2024.2.4,MacIntel,59.88023952,,,,,,,,,,,,,,,,,,,,,,194.5689,194.7674,194.7674,195.2672,,,,,,,,,,,,,,0.8317,1,,,,,,,,,,,,,,z,,,,,,,,,,,,,,,,23,0,195.2678,196.1006,z,1,0.8317,,[],[],[],[],[],[],[],196.1007,198.1006,198.1006,198.1008,[],[],[],[],[],[],[],,198.1009,198.1009,0.009980277,-0.403006835,0,0,0,,0,22,22,26,1,4,RL,mesibine,cursive,mesibine_c.png,,,,,,
,,,,32045,001,2025-10-15_18h39.49.706,HW_LDT_1,2024.2.4,MacIntel,59.88023952,,,,,,,,,,,,,,,,,,,,,,198.1021,198.3006,198.3007,198.8005,,,,,,,,,,,,,,2.097,1,,,,,,,,,,,,,,z,,,,,,,,,,,,,,,,24,0,198.8011,200.9003,z,1,2.097,,[],[],[],[],[],[],[],200.9004,202.9005,202.9007,202.9009,[],[],[],[],[],[],[],,202.901,202.901,0.009980277,-0.403006835,0,0,0,,0,23,23,50,1,4,RL,vecelan,cursive,vecelan_c.png,,,,,,
,,,,32045,001,2025-10-15_18h39.49.706,HW_LDT_1,2024.2.4,MacIntel,59.88023952,,,,,,,,,,,,,,,,,,,,,,202.9022,203.1006,203.1006,203.6006,,,,,,,,,,,,,,1.3554,1,,,,,,,,,,,,,,z,,,,,,,,,,,,,,,,25,0,203.601,204.9675,z,1,1.3554,,[],[],[],[],[],[],[],204.9676,206.9672,206.9673,206.9675,[],[],[],[],[],[],[],,206.9675,206.9676,0.009980277,-0.403006835,0,0,0,,0,24,24,72,1,4,TL,relugar,cursive,relugar_c.png,,,,,,
,,,,32045,001,2025-10-15_18h39.49.706,HW_LDT_1,2024.2.4,MacIntel,59.88023952,,,,,,,,,,,,,,,,,,,,,,206.9689,207.1672,207.1673,207.6672,,,,,,,,,,,,,,4.1061,1,,,,,,,,,,,,,,z,,,,,,,,,,,,,,,,26,0,207.6678,211.7838,z,1,4.1061,,[],[],[],[],[],[],[],211.784,213.784,213.784,213.7843,[],[],[],[],[],[],[],,213.7843,213.7843,0.009980277,-0.403006835,0,0,0,,0,25,25,23,1,4,RL,linefal,cursive,linefal_c.png,,,,,,
,,,,32045,001,2025-10-15_18h39.49.706,HW_LDT_1,2024.2.4,MacIntel,59.88023952,,,,,,,,,,,,,,,,,,,,,,213.7855,213.9837,213.9837,214.4839,,,,,,,,,,,,,,1.2822,0,,,,,,,,,,,,,,m,,,,,,,,,,,,,,,,27,0,214.4845,215.7677,z,0,1.2822,,[],[],[],[],[],[],[],215.7678,217.7672,217.7672,217.7674,[],[],[],[],[],[],[],,217.7675,217.7677,0.009980277,-0.403006835,0,0,0,,0,26,26,99,1,4,word,DEBATE,cursive,debate_c.png,,,,,,
,,,,32045,001,2025-10-15_18h39.49.706,HW_LDT_1,2024.2.4,MacIntel,59.88023952,,,,,,,,,,,,,,,,,,,,,,217.7689,217.9671,217.9672,218.4672,,,,,,,,,,,,,,4.0704,0,,,,,,,,,,,,,,z,,,,,,,,,,,,,,,,28,0,218.4678,222.5505,m,0,4.0704,,[],[],[],[],[],[],[],222.5506,224.5504,224.5505,224.5508,[],[],[],[],[],[],[],,224.5508,224.5509,0.009980277,-0.403006835,0,0,0,,0,27,27,18,1,4,RL,disluge,print,disluge_p.png,,,,,,
,,,,32045,001,2025-10-15_18h39.49.706,HW_LDT_1,2024.2.4,MacIntel,59.88023952,,,,,,,,,,,,,,,,,,,,,,224.552,224.7507,224.7508,225.2504,,,,,,,,,,,,,,1.6204,1,,,,,,,,,,,,,,z,,,,,,,,,,,,,,,,29,1,225.251,226.8839,z,1,1.6204,,[],[],[],[],[],[],[],226.884,228.8837,228.8838,230.5172,[],[],[],[],[],[],[],m,230.5173,230.5175,0.009980277,-0.403006835,0,0,0,,0,28,28,66,1,4,TL,opmital,print,opmital_p.png,1.6211,,,,,
,,,,32045,001,2025-10-15_18h39.49.706,HW_LDT_1,2024.2.4,MacIntel,59.88023952,,,,,,,,,,,,,,,,,,,,,,230.5186,230.7171,230.7171,231.2171,,,,,,,,,,,,,,1.6479,1,,,,,,,,,,,,,,m,,,,,,,,,,,,,,,,30,0,231.2177,232.8671,m,1,1.6479,,[],[],[],[],[],[],[],232.8671,234.8671,234.8672,234.8674,[],[],[],[],[],[],[],,234.8674,234.8675,0.009980277,-0.403006835,0,0,0,,0,29,29,89,1,4,word,CAPACITY,cursive,capacity_c.png,,,,,,
,,,,32045,001,2025-10-15_18h39.49.706,HW_LDT_1,2024.2.4,MacIntel,59.88023952,,,,,,,,,,,,,,,,,,,,,,234.8689,235.0671,235.0671,235.5671,,,,,,,,,,,,,,1.0207,1,,,,,,,,,,,,,,z,,,,,,,,,,,,,,,,31,0,235.5676,236.6005,z,1,1.0207,,[],[],[],[],[],[],[],236.6006,238.6004,238.6004,238.6007,[],[],[],[],[],[],[],,238.6008,238.6009,0.009980277,-0.403006835,0,0,0,,0,30,30,64,1,4,TL,moredate,print,moredate_p.png,,,,,,
,,,,32045,001,2025-10-15_18h39.49.706,HW_LDT_1,2024.2.4,MacIntel,59.88023952,,,,,,,,,,,,,,,,,,,,,,238.602,238.8005,238.8005,239.3004,,,,,,,,,,,,,,0.788,0,,,,,,,,,,,,,,m,,,,,,,,,,,,,,,,32,0,239.301,240.1005,z,0,0.788,,[],[],[],[],[],[],[],240.1006,242.0994,242.0995,242.0997,[],[],[],[],[],[],[],,242.0998,242.0999,0.009980277,-0.403006835,0,0,0,,0,31,31,142,1,4,word,REMOTE,cursive,remote_c.png,,,,,,
,,,,32045,001,2025-10-15_18h39.49.706,HW_LDT_1,2024.2.4,MacIntel,59.88023952,,,,,,,,,,,,,,,,,,,,,,242.1011,242.3003,242.3004,242.7993,,,,,,,,,,,,,,0.7979,1,,,,,,,,,,,,,,z,,,,,,,,,,,,,,,,33,0,242.7999,243.6004,z,1,0.7979,,[],[],[],[],[],[],[],243.6005,245.6003,245.6005,245.6007,[],[],[],[],[],[],[],,245.6008,245.6009,0.009980277,-0.403006835,0,0,0,,0,32,32,48,1,4,RL,vabifity,print,vabifity_p.png,,,,,,
,,,,32045,001,2025-10-15_18h39.49.706,HW_LDT_1,2024.2.4,MacIntel,59.88023952,,,,,,,,,,,,,,,,,,,,,,245.6021,245.7994,245.7994,246.2994,,,,,,,,,,,,,,0.9718,1,,,,,,,,,,,,,,m,,,,,,,,,,,,,,,,34,0,246.2999,247.2838,m,1,0.9718,,[],[],[],[],[],[],[],247.2839,249.2837,249.2837,249.284,[],[],[],[],[],[],[],,249.284,249.2841,0.009980277,-0.403006835,0,0,0,,0,33,33,135,1,4,word,QUALITY,print,quality_p.png,,,,,,
,,,,32045,001,2025-10-15_18h39.49.706,HW_LDT_1,2024.2.4,MacIntel,59.88023952,,,,,,,,,,,,,,,,,,,,,,249.2853,249.4836,249.4837,249.9837,,,,,,,,,,,,,,1.2154,1,,,,,,,,,,,,,,z,,,,,,,,,,,,,,,,35,0,249.9842,251.2005,z,1,1.2154,,[],[],[],[],[],[],[],251.2006,253.2003,253.2003,253.2007,[],[],[],[],[],[],[],,253.2007,253.2008,0.009980277,-0.403006835,0,0,0,,0,34,34,14,1,4,RL,delahe,cursive,delahe_c.png,,,,,,
,,,,32045,001,2025-10-15_18h39.49.706,HW_LDT_1,2024.2.4,MacIntel,59.88023952,,,,,,,,,,,,,,,,,,,,,,253.202,253.4004,253.4005,253.8994,,,,,,,,,,,,,,1.037,1,,,,,,,,,,,,,,z,,,,,,,,,,,,,,,,36,0,253.9,254.9495,z,1,1.037,,[],[],[],[],[],[],[],254.9495,256.9493,256.9494,256.9495,[],[],[],[],[],[],[],,256.9496,256.9497,0.009980277,-0.403006835,0,0,0,,0,35,35,54,1,4,TL,codemy,print,codemy_p.png,,,,,,
,,,,32045,001,2025-10-15_18h39.49.706,HW_LDT_1,2024.2.4,MacIntel,59.88023952,,,,,,,,,,,,,,,,,,,,,,256.9509,257.1503,257.1503,257.6503,,,,,,,,,,,,,,1.0195,1,,,,,,,,,,,,,,m,,,,,,,,,,,,,,,,37,0,257.6509,258.6827,m,1,1.0195,,[],[],[],[],[],[],[],258.6828,260.6837,260.6837,260.6839,[],[],[],[],[],[],[],,260.6839,260.684,0.009980277,-0.403006835,0,0,0,,0,36,36,157,1,4,word,VALIDITY,print,validity_p.png,,,,,,
,,,,32045,001,2025-10-15_18h39.49.706,HW_LDT_1,2024.2.4,MacIntel,59.88023952,,,,,,,,,,,,,,,,,,,,,,260.6853,260.8837,260.8837,261.3827,,,,,,,,,,,,,,1.1379,0,,,,,,,,,,,,,,m,,,,,,,,,,,,,,,,38,0,261.3832,262.5337,z,0,1.1379,,[],[],[],[],[],[],[],262.5338,264.5336,264.5338,264.5339,[],[],[],[],[],[],[],,264.5339,264.5341,0.009980277,-0.403006835,0,0,0,,0,37,37,139,1,4,word,REGULAR,cursive,regular_c.png,,,,,,
,,,,32045,001,2025-10-15_18h39.49.706,HW_LDT_1,2024.2.4,MacIntel,59.88023952,,,,,,,,,,,,,,,,,,,,,,264.5354,264.7337,264.7338,265.2327,,,,,,,,,,,,,,0.9652,1,,,,,,,,,,,,,,z,,,,,,,,,,,,,,,,39,0,265.2333,266.2003,z,1,0.9652,,[],[],[],[],[],[],[],266.2004,268.1994,268.1995,268.1997,[],[],[],[],[],[],[],,268.1997,268.1998,0.009980277,-0.403006835,0,0,0,,0,38,38,13,1,4,RL,crisival,cursive,crisival_c.png,,,,,,
,,,,32045,001,2025-10-15_18h39.49.706,HW_LDT_1,2024.2.4,MacIntel,59.88023952,,,,,,,,,,,,,,,,,,,,,,268.2011,268.4004,268.4004,268.8993,,,,,,,,,,,,,,3.5213,1,,,,,,,,,,,,,,z,,,,,,,,,,,,,,,,40,1,268.8999,272.4337,z,1,3.5213,,[],[],[],[],[],[],[],272.4337,274.4335,274.4336,276.2841,[],[],[],[],[],[],[],z,276.2843,276.2845,0.009980277,-0.403006835,0,0,0,,0,39,39,33,1,4,RL,pamest,cursive,pamest_c.png,1.85,,,,,
,,,,32045,001,2025-10-15_18h39.49.706,HW_LDT_1,2024.2.4,MacIntel,59.88023952,,,,,,,,,,,,,,,,,,,,,,276.2856,276.4835,276.4835,276.9826,,,,,,,,,,,,,,1.0988,1,,,,,,,,,,,,,,m,,,,,,,,,,,,,,,,41,0,276.9832,278.0836,m,1,1.0988,,[],[],[],[],[],[],[],278.084,280.0836,280.0837,280.0839,[],[],[],[],[],[],[],,280.0839,280.084,0.009980277,-0.403006835,0,0,0,,0,40,40,111,1,4,word,INDICATE,print,indicate_p.png,,,,,,
,,,,32045,001,2025-10-15_18h39.49.706,HW_LDT_1,2024.2.4,MacIntel,59.88023952,,,,,,,,,,,,,,,,,,,,,,280.0852,280.2836,280.2837,280.7836,,,,,,,,,,,,,,0.9235,1,,,,,,,,,,,,,,z,,,,,,,,,,,,,,,,42,0,280.7841,281.7172,z,1,0.9235,,[],[],[],[],[],[],[],281.7173,283.717,283.717,283.7173,[],[],[],[],[],[],[],,283.7173,283.7174,0.009980277,-0.403006835,0,0,0,,0,41,41,5,1,4,RL,bebine,print,bebine_p.png,,,,,,
,,,,32045,001,2025-10-15_18h39.49.706,HW_LDT_1,2024.2.4,MacIntel,59.88023952,,,,,,,,,,,,,,,,,,,,,,283.7186,283.9169,283.9169,284.4159,,,,,,,,,,,,,,0.8133,1,,,,,,,,,,,,,,z,,,,,,,,,,,,,,,,43,0,284.4164,285.2336,z,1,0.8133,,[],[],[],[],[],[],[],285.2336,287.2336,287.2336,287.2338,[],[],[],[],[],[],[],,287.2339,287.2339,0.009980277,-0.403006835,0,0,0,,0,42,42,56,1,4,TL,donimant,cursive,donimant_c.png,,,,,,
,,,,32045,001,2025-10-15_18h39.49.706,HW_LDT_1,2024.2.4,MacIntel,59.88023952,,,,,,,,,,,,,,,,,,,,,,287.2352,287.4335,287.4336,287.9335,,,,,,,,,,,,,,0.9379,1,,,,,,,,,,,,,,m,,,,,,,,,,,,,,,,44,1,287.9341,288.8826,m,1,0.9379,,[],[],[],[],[],[],[],288.8828,290.8826,290.8827,292.3836,[],[],[],[],[],[],[],m,292.3837,292.3839,0.009980277,-0.403006835,0,0,0,,0,43,43,90,1,4,word,CAPITAL,print,capital_p.png,1.49,,,,,
,,,,32045,001,2025-10-15_18h39.49.706,HW_LDT_1,2024.2.4,MacIntel,59.88023952,,,,,,,,,,,,,,,,,,,,,,292.3851,292.5835,292.5836,293.0835,,,,,,,,,,,,,,1.4987,1,,,,,,,,,,,,,,m,,,,,,,,,,,,,,,,45,0,293.0841,294.5838,m,1,1.4987,,[],[],[],[],[],[],[],294.5839,296.5836,296.5836,296.5838,[],[],[],[],[],[],[],,296.5838,296.5839,0.009980277,-0.403006835,0,0,0,,0,44,44,97,1,4,word,COVERAGE,cursive,coverage_c.png,,,,,,
,,,,32045,001,2025-10-15_18h39.49.706,HW_LDT_1,2024.2.4,MacIntel,59.88023952,,,,,,,,,,,,,,,,,,,,,,296.5851,296.7835,296.7836,297.2835,,,,,,,,,,,,,,0.5206,1,,,,,,,,,,,,,,m,,,,,,,,,,,,,,,,46,0,297.2841,297.816,m,1,0.5206,,[],[],[],[],[],[],[],297.8161,299.8169,299.817,299.8171,[],[],[],[],[],[],[],,299.8172,299.8173,0.009980277,-0.403006835,0,0,0,,0,45,45,119,1,4,word,MEMORY,print,memory_p.png,,,,,,
,,,,32045,001,2025-10-15_18h39.49.706,HW_LDT_1,2024.2.4,MacIntel,59.88023952,,,,,,,,,,,,,,,,,,,,,,299.8186,300.0159,300.0159,300.5169,,,,,,,,,,,,,,0.9392,1,,,,,,,,,,,,,,z,,,,,,,,,,,,,,,,47,0,300.5173,301.466,z,1,0.9392,,[],[],[],[],[],[],[],301.4661,303.4658,303.4659,303.4662,[],[],[],[],[],[],[],,303.4662,303.4663,0.009980277,-0.403006835,0,0,0,,0,46,46,15,1,4,RL,debave,cursive,debave_c.png,,,,,,
,,,,32045,001,2025-10-15_18h39.49.706,HW_LDT_1,2024.2.4,MacIntel,59.88023952,,,,,,,,,,,,,,,,,,,,,,303.4676,303.6669,303.667,304.1668,,,,,,,,,,,,,,0.814,1,,,,,,,,,,,,,,m,,,,,,,,,,,,,,,,48,0,304.1674,304.9834,m,1,0.814,,[],[],[],[],[],[],[],304.9836,306.9825,306.9826,306.9828,[],[],[],[],[],[],[],,306.9829,306.983,0.009980277,-0.403006835,0,0,0,,0,47,47,148,1,4,word,SALINE,print,saline_p.png,,,,,,
,,,,32045,001,2025-10-15_18h39.49.706,HW_LDT_1,2024.2.4,MacIntel,59.88023952,,,,,,,,,,,,,,,,,,,,,,306.9842,307.1835,307.1837,307.6835,,,,,,,,,,,,,,1.8456,1,,,,,,,,,,,,,,z,,,,,,,,,,,,,,,,49,0,307.684,309.5335,z,1,1.8456,,[],[],[],[],[],[],[],309.5336,311.5326,311.5327,311.5328,[],[],[],[],[],[],[],,311.5329,311.533,0.009980277,-0.403006835,0,0,0,,0,48,48,45,1,4,RL,spetisic,cursive,spetisic_c.png,,,,,,
,,,,32045,001,2025-10-15_18h39.49.706,HW_LDT_1,2024.2.4,MacIntel,59.88023952,,,,,,,,,,,,,,,,,,,,,,311.5342,311.7326,311.7326,312.2334,,,,,,,,,,,,,,0.7983,1,,,,,,,,,,,,,,z,,,,,,,,,,,,,,,,50,0,312.234,313.0335,z,1,0.7983,,[],[],[],[],[],[],[],313.0336,315.0334,315.0335,315.0337,[],[],[],[],[],[],[],,315.0337,315.0339,0.009980277,-0.403006835,0,0,0,,0,49,49,59,1,4,TL,fornute,cursive,fornute_c.png,,,,,,
,,,,32045,001,2025-10-15_18h39.49.706,HW_LDT_1,2024.2.4,MacIntel,59.88023952,,,,,,,,,,,,,,,,,,,,,,315.035,315.2326,315.2326,315.7335,,,,,,,,,,,,,,0.9719,1,,,,,,,,,,,,,,z,,,,,,,,,,,,,,,,51,1,315.734,316.7159,z,1,0.9719,,[],[],[],[],[],[],[],316.716,318.7167,318.7169,319.8168,[],[],[],[],[],[],[],z,319.817,319.817,0.009980277,-0.403006835,0,0,0,,0,50,50,2,1,4,RL,asiral,cursive,asiral_c.png,1.0918,,,,,
,,,,32045,001,2025-10-15_18h39.49.706,HW_LDT_1,2024.2.4,MacIntel,59.88023952,,,,,,,,,,,,,,,,,,,,,,319.8181,320.0168,320.0169,320.5159,,,,,,,,,,,,,,0.7376,1,,,,,,,,,,,,,,m,,,,,,,,,,,,,,,,52,0,320.5164,321.266,m,1,0.7376,,[],[],[],[],[],[],[],321.2661,323.2669,323.2669,323.2671,[],[],[],[],[],[],[],,323.2671,323.2673,0.009980277,-0.403006835,0,0,0,,0,51,51,123,1,4,word,MODERATE,print,moderate_p.png,,,,,,
,,,,32045,001,2025-10-15_18h39.49.706,HW_LDT_1,2024.2.4,MacIntel,59.88023952,,,,,,,,,,,,,,,,,,,,,,323.2684,323.4658,323.4658,323.9668,,,,,,,,,,,,,,0.7043,1,,,,,,,,,,,,,,m,,,,,,,,,,,,,,,,53,0,323.9674,324.6835,m,1,0.7043,,[],[],[],[],[],[],[],324.6836,326.6825,326.6825,326.6828,[],[],[],[],[],[],[],,326.6829,326.683,0.009980277,-0.403006835,0,0,0,,0,52,52,122,1,4,word,MOBILE,print,mobile_p.png,,,,,,
,,,,32045,001,2025-10-15_18h39.49.706,HW_LDT_1,2024.2.4,MacIntel,59.88023952,,,,,,,,,,,,,,,,,,,,,,326.6842,326.8834,326.8835,327.3834,,,,,,,,,,,,,,3.2986,1,,,,,,,,,,,,,,z,,,,,,,,,,,,,,,,54,0,327.384,330.6835,z,1,3.2986,,[],[],[],[],[],[],[],330.6836,332.6825,332.6825,332.6828,[],[],[],[],[],[],[],,332.6828,332.6829,0.009980277,-0.403006835,0,0,0,,0,53,53,55,1,4,TL,corevage,cursive,corevage_c.png,,,,,,
,,,,32045,001,2025-10-15_18h39.49.706,HW_LDT_1,2024.2.4,MacIntel,59.88023952,,,,,,,,,,,,,,,,,,,,,,332.6841,332.8825,332.8826,333.3824,,,,,,,,,,,,,,1.4881,1,,,,,,,,,,,,,,m,,,,,,,,,,,,,,,,55,0,333.383,334.8827,m,1,1.4881,,[],[],[],[],[],[],[],334.8827,336.8834,336.8834,336.8837,[],[],[],[],[],[],[],,336.8837,336.8838,0.009980277,-0.403006835,0,0,0,,0,54,54,81,1,4,word,ADVISORY,cursive,advisory_c.png,,,,,,
,,,,32045,001,2025-10-15_18h39.49.706,HW_LDT_1,2024.2.4,MacIntel,59.88023952,,,,,,,,,,,,,,,,,,,,,,336.885,337.0824,337.0825,337.5834,,,,,,,,,,,,,,1.4209,1,,,,,,,,,,,,,,m,,,,,,,,,,,,,,,,56,0,337.5839,339.016,m,1,1.4209,,[],[],[],[],[],[],[],339.016,341.0167,341.0167,341.017,[],[],[],[],[],[],[],,341.0171,341.0171,0.009980277,-0.403006835,0,0,0,,0,55,55,118,1,4,word,MEDICINE,cursive,medicine_c.png,,,,,,
,,,,32045,001,2025-10-15_18h39.49.706,HW_LDT_1,2024.2.4,MacIntel,59.88023952,,,,,,,,,,,,,,,,,,,,,,341.0185,341.2158,341.2158,341.7159,,,,,,,,,,,,,,1.013,1,,,,,,,,,,,,,,z,,,,,,,,,,,,,,,,57,0,341.7164,342.7325,z,1,1.013,,[],[],[],[],[],[],[],342.7325,344.7334,344.7335,344.7336,[],[],[],[],[],[],[],,344.7336,344.7338,0.009980277,-0.403006835,0,0,0,,0,56,56,21,1,4,RL,insibate,print,insibate_p.png,,,,,,
,,,,32045,001,2025-10-15_18h39.49.706,HW_LDT_1,2024.2.4,MacIntel,59.88023952,,,,,,,,,,,,,,,,,,,,,,344.735,344.9325,344.9325,345.4324,,,,,,,,,,,,,,0.8561,1,,,,,,,,,,,,,,m,,,,,,,,,,,,,,,,58,1,345.433,346.2993,m,1,0.8561,,[],[],[],[],[],[],[],346.2993,348.3,348.3,349.35,[],[],[],[],[],[],[],z,349.3502,349.3503,0.009980277,-0.403006835,0,0,0,,0,57,57,96,1,4,word,CONSIDER,cursive,consider_c.png,1.0403,,,,,
,,,,32045,001,2025-10-15_18h39.49.706,HW_LDT_1,2024.2.4,MacIntel,59.88023952,,,,,,,,,,,,,,,,,,,,,,349.3514,349.5501,349.5502,350.0501,,,,,,,,,,,,,,0.9654,1,,,,,,,,,,,,,,m,,,,,,,,,,,,,,,,59,0,350.0506,351.0169,m,1,0.9654,,[],[],[],[],[],[],[],351.0169,353.0166,353.0167,353.0169,[],[],[],[],[],[],[],,353.0169,353.0171,0.009980277,-0.403006835,0,0,0,,0,58,58,117,1,4,word,MARINE,print,marine_p.png,,,,,,
,,,,32045,001,2025-10-15_18h39.49.706,HW_LDT_1,2024.2.4,MacIntel,59.88023952,,,,,,,,,,,,,,,,,,,,,,353.0182,353.2166,353.2166,353.7167,,,,,,,,,,,,,,1.5891,0,,,,,,,,,,,,,,z,,,,,,,,,,,,,,,,60,0,353.7172,355.3167,m,0,1.5891,,[],[],[],[],[],[],[],355.3167,357.3166,357.3166,357.317,[],[],[],[],[],[],[],,357.317,357.3171,0.009980277,-0.403006835,0,0,0,,0,59,59,77,1,4,TL,spemicen,cursive,spemicen_c.png,,,,,,
,,,,32045,001,2025-10-15_18h39.49.706,HW_LDT_1,2024.2.4,MacIntel,59.88023952,,,,,,,,,,,,,,,,,,,,,,357.3184,357.5166,357.5167,358.0158,,,,,,,,,,,,,,1.4872,1,,,,,,,,,,,,,,m,,,,,,,,,,,,,,,,61,1,358.0164,359.5167,m,1,1.4872,,[],[],[],[],[],[],[],359.5168,361.5166,361.5166,362.8663,[],[],[],[],[],[],[],m,362.8663,362.8665,0.009980277,-0.403006835,0,0,0,,0,60,60,127,1,4,word,ORIGINAL,print,original_p.png,1.3381,,,,,
,,,,32045,001,2025-10-15_18h39.49.706,HW_LDT_1,2024.2.4,MacIntel,59.88023952,,,,,,,,,,,,,,,,,,,,,,362.8676,363.0666,363.0666,363.5657,,,,,,,,,,,,,,1.738,1,,,,,,,,,,,,,,m,,,,,,,,,,,,,,,,62,0,363.5663,365.3167,m,1,1.738,,[],[],[],[],[],[],[],365.3167,367.3166,367.3166,367.3168,[],[],[],[],[],[],[],,367.3169,367.317,0.009980277,-0.403006835,0,0,0,,0,61,61,124,1,4,word,NUMERICAL,cursive,numerical_c.png,,,,,,
,,,,32045,001,2025-10-15_18h39.49.706,HW_LDT_1,2024.2.4,MacIntel,59.88023952,,,,,,,,,,,,,,,,,,,,,,367.3181,367.5167,367.5167,368.0168,,,,,,,,,,,,,,1.1813,1,,,,,,,,,,,,,,m,,,,,,,,,,,,,,,,63,0,368.0175,369.2,m,1,1.1813,,[],[],[],[],[],[],[],369.2002,371.1999,371.2,371.2002,[],[],[],[],[],[],[],,371.2003,371.2003,0.009980277,-0.403006835,0,0,0,,0,62,62,82,1,4,word,AMATEUR,cursive,amateur_c.png,,,,,,
,,,,32045,001,2025-10-15_18h39.49.706,HW_LDT_1,2024.2.4,MacIntel,59.88023952,,,,,,,,,,,,,,,,,,,,,,371.2016,371.3999,371.4,371.8999,,,,,,,,,,,,,,0.7491,1,,,,,,,,,,,,,,z,,,,,,,,,,,,,,,,64,0,371.9005,372.6502,z,1,0.7491,,[],[],[],[],[],[],[],372.6503,374.6499,374.6499,374.6502,[],[],[],[],[],[],[],,374.6502,374.6504,0.009980277,-0.403006835,0,0,0,,0,63,63,4,1,4,RL,betemit,cursive,betemit_c.png,,,,,,
,,,,32045,001,2025-10-15_18h39.49.706,HW_LDT_1,2024.2.4,MacIntel,59.88023952,,,,,,,,,,,,,,,,,,,,,,374.6515,374.85,374.85,375.3499,,,,,,,,,,,,,,1.1485,1,,,,,,,,,,,,,,z,,,,,,,,,,,,,,,,65,0,375.3504,376.4999,z,1,1.1485,,[],[],[],[],[],[],[],376.5,378.4999,378.4999,378.5002,[],[],[],[],[],[],[],,378.5003,378.5003,0.009980277,-0.403006835,0,0,0,,0,64,64,68,1,4,TL,prosopal,print,prosopal_p.png,,,,,,
,,,,32045,001,2025-10-15_18h39.49.706,HW_LDT_1,2024.2.4,MacIntel,59.88023952,,,,,,,,,,,,,,,,,,,,,,378.5016,378.6999,378.7,379.1999,,,,,,,,,,,,,,1.0655,1,,,,,,,,,,,,,,z,,,,,,,,,,,,,,,,66,0,379.2005,380.2667,z,1,1.0655,,[],[],[],[],[],[],[],380.2667,382.2666,382.2666,382.2668,[],[],[],[],[],[],[],,382.267,382.267,0.009980277,-0.403006835,0,0,0,,0,65,65,32,1,4,RL,patisic,cursive,patisic_c.png,,,,,,
,,,,32045,001,2025-10-15_18h39.49.706,HW_LDT_1,2024.2.4,MacIntel,59.88023952,,,,,,,,,,,,,,,,,,,,,,382.2681,382.4666,382.4667,382.9665,,,,,,,,,,,,,,0.9319,1,,,,,,,,,,,,,,m,,,,,,,,,,,,,,,,67,1,382.967,383.9,m,1,0.9319,,[],[],[],[],[],[],[],383.9001,385.8999,385.9,386.95,[],[],[],[],[],[],[],z,386.95,386.9503,0.009980277,-0.403006835,0,0,0,,0,66,66,100,1,4,word,DECADE,cursive,decade_c.png,1.0387,,,,,
,,,,32045,001,2025-10-15_18h39.49.706,HW_LDT_1,2024.2.4,MacIntel,59.88023952,,,,,,,,,,,,,,,,,,,,,,386.9515,387.1499,387.1499,387.6499,,,,,,,,,,,,,,1.2037,1,,,,,,,,,,,,,,z,,,,,,,,,,,,,,,,68,0,387.6504,388.8666,z,1,1.2037,,[],[],[],[],[],[],[],388.8667,390.8666,390.8666,390.8668,[],[],[],[],[],[],[],,390.8669,390.8669,0.009980277,-0.403006835,0,0,0,,0,67,67,79,1,4,TL,tritube,print,tritube_p.png,,,,,,
,,,,32045,001,2025-10-15_18h39.49.706,HW_LDT_1,2024.2.4,MacIntel,59.88023952,,,,,,,,,,,,,,,,,,,,,,390.8681,391.0665,391.0665,391.5666,,,,,,,,,,,,,,0.8155,1,,,,,,,,,,,,,,m,,,,,,,,,,,,,,,,69,0,391.5671,392.3835,m,1,0.8155,,[],[],[],[],[],[],[],392.3836,394.3832,394.3832,394.3834,[],[],[],[],[],[],[],,394.3834,394.3836,0.009980277,-0.403006835,0,0,0,,0,68,68,110,1,4,word,HERITAGE,print,heritage_p.png,,,,,,
,,,,32045,001,2025-10-15_18h39.49.706,HW_LDT_1,2024.2.4,MacIntel,59.88023952,,,,,,,,,,,,,,,,,,,,,,394.3847,394.5831,394.5832,395.0832,,,,,,,,,,,,,,0.7322,1,,,,,,,,,,,,,,z,,,,,,,,,,,,,,,,70,0,395.0838,395.8169,z,1,0.7322,,[],[],[],[],[],[],[],395.817,397.8165,397.8165,397.8167,[],[],[],[],[],[],[],,397.8167,397.8168,0.009980277,-0.403006835,0,0,0,,0,69,69,38,1,4,RL,refakive,print,refakive_p.png,,,,,,
,,,,32045,001,2025-10-15_18h39.49.706,HW_LDT_1,2024.2.4,MacIntel,59.88023952,,,,,,,,,,,,,,,,,,,,,,397.8181,398.0165,398.0166,398.5164,,,,,,,,,,,,,,0.887,1,,,,,,,,,,,,,,z,,,,,,,,,,,,,,,,71,0,398.517,399.4165,z,1,0.887,,[],[],[],[],[],[],[],399.4167,401.4164,401.4166,401.4167,[],[],[],[],[],[],[],,401.4168,401.4169,0.009980277,-0.403006835,0,0,0,,0,70,70,65,1,4,TL,orepator,print,orepator_p.png,,,,,,
,,,,32045,001,2025-10-15_18h39.49.706,HW_LDT_1,2024.2.4,MacIntel,59.88023952,,,,,,,,,,,,,,,,,,,,,,401.4181,401.6165,401.6165,402.1166,,,,,,,,,,,,,,0.9869,1,,,,,,,,,,,,,,z,,,,,,,,,,,,,,,,72,0,402.1171,403.1166,z,1,0.9869,,[],[],[],[],[],[],[],403.1167,405.1165,405.1165,405.1168,[],[],[],[],[],[],[],,405.1168,405.1169,0.009980277,-0.403006835,0,0,0,,0,71,71,53,1,4,TL,cemerony,print,cemerony_p.png,,,,,,
,,,,32045,001,2025-10-15_18h39.49.706,HW_LDT_1,2024.2.4,MacIntel,59.88023952,,,,,,,,,,,,,,,,,,,,,,405.1181,405.3164,405.3165,405.8165,,,,,,,,,,,,,,1.1538,0,,,,,,,,,,,,,,m,,,,,,,,,,,,,,,,73,0,405.817,406.9833,z,0,1.1538,,[],[],[],[],[],[],[],406.9833,408.9832,408.9832,408.9835,[],[],[],[],[],[],[],,408.9835,408.9836,0.009980277,-0.403006835,0,0,0,,0,72,72,114,1,4,word,LOCATE,cursive,locate_c.png,,,,,,
,,,,32045,001,2025-10-15_18h39.49.706,HW_LDT_1,2024.2.4,MacIntel,59.88023952,,,,,,,,,,,,,,,,,,,,,,408.9848,409.1831,409.1832,409.6832,,,,,,,,,,,,,,1.0371,1,,,,,,,,,,,,,,m,,,,,,,,,,,,,,,,74,0,409.6838,410.7333,m,1,1.0371,,[],[],[],[],[],[],[],410.7334,412.7331,412.7331,412.7334,[],[],[],[],[],[],[],,412.7334,412.7335,0.009980277,-0.403006835,0,0,0,,0,73,73,80,1,4,word,ACADEMY,print,academy_p.png,,,,,,
,,,,32045,001,2025-10-15_18h39.49.706,HW_LDT_1,2024.2.4,MacIntel,59.88023952,,,,,,,,,,,,,,,,,,,,,,412.7348,412.9331,412.9332,413.4331,,,,,,,,,,,,,,1.0638,1,,,,,,,,,,,,,,z,,,,,,,,,,,,,,,,75,0,413.4337,414.4998,z,1,1.0638,,[],[],[],[],[],[],[],414.4999,416.4997,416.4998,416.5,[],[],[],[],[],[],[],,416.5001,416.5001,0.009980277,-0.403006835,0,0,0,,0,74,74,25,1,4,RL,macise,print,macise_p.png,,,,,,
,,,,32045,001,2025-10-15_18h39.49.706,HW_LDT_1,2024.2.4,MacIntel,59.88023952,,,,,,,,,,,,,,,,,,,,,,416.5013,416.6998,416.6999,417.1997,,,,,,,,,,,,,,0.6713,1,,,,,,,,,,,,,,m,,,,,,,,,,,,,,,,76,0,417.2003,417.8831,m,1,0.6713,,[],[],[],[],[],[],[],417.8832,419.883,419.8831,419.8834,[],[],[],[],[],[],[],,419.8834,419.8835,0.009980277,-0.403006835,0,0,0,,0,75,75,147,1,4,word,ROMANTIC,print,romantic_p.png,,,,,,
,,,,32045,001,2025-10-15_18h39.49.706,HW_LDT_1,2024.2.4,MacIntel,59.88023952,,,,,,,,,,,,,,,,,,,,,,419.8847,420.0825,420.0826,420.5831,,,,,,,,,,,,,,1.0653,1,,,,,,,,,,,,,,z,,,,,,,,,,,,,,,,77,0,420.5836,421.6497,z,1,1.0653,,[],[],[],[],[],[],[],421.6498,423.6497,423.6498,423.65,[],[],[],[],[],[],[],,423.65,423.6501,0.009980277,-0.403006835,0,0,0,,0,76,76,76,1,4,TL,setanor,print,setanor_p.png,,,,,,
,,,,32045,001,2025-10-15_18h39.49.706,HW_LDT_1,2024.2.4,MacIntel,59.88023952,,,,,,,,,,,,,,,,,,,,,,423.6513,423.8497,423.8498,424.3497,,,,,,,,,,,,,,0.9983,0,,,,,,,,,,,,,,m,,,,,,,,,,,,,,,,78,1,424.3504,425.3499,z,0,0.9983,,[],[],[],[],[],[],[],425.35,427.3498,427.3498,428.4998,[],[],[],[],[],[],[],z,428.4998,428.4999,0.009980277,-0.403006835,0,0,0,,0,77,77,108,1,4,word,FORTUNE,cursive,fortune_c.png,1.1411,,,,,
,,,,32045,001,2025-10-15_18h39.49.706,HW_LDT_1,2024.2.4,MacIntel,59.88023952,,,,,,,,,,,,,,,,,,,,,,428.501,428.6997,428.6998,429.1997,,,,,,,,,,,,,,1.6371,0,,,,,,,,,,,,,,z,,,,,,,,,,,,,,,,79,0,429.2002,430.8498,m,0,1.6371,,[],[],[],[],[],[],[],430.8499,432.8498,432.8498,432.85,[],[],[],[],[],[],[],,432.8501,432.8502,0.009980277,-0.403006835,0,0,0,,0,78,78,51,1,4,TL,adsivory,cursive,adsivory_c.png,,,,,,
,,,,32045,001,2025-10-15_18h39.49.706,HW_LDT_1,2024.2.4,MacIntel,59.88023952,,,,,,,,,,,,,,,,,,,,,,432.8514,433.0497,433.0498,433.5497,,,,,,,,,,,,,,0.8537,1,,,,,,,,,,,,,,z,,,,,,,,,,,,,,,,80,0,433.5503,434.4166,z,1,0.8537,,[],[],[],[],[],[],[],434.4167,436.4164,436.4164,436.4166,[],[],[],[],[],[],[],,436.4167,562.3664,-0.016534616,-0.393706644,0,0,0,space,0,79,79,63,1,4,TL,miskate,print,miskate_p.png,,,125.9183,,,
,,,,32045,001,2025-10-15_18h39.49.706,HW_LDT_1,2024.2.4,MacIntel,59.88023952,,,,,,,,,,,,,,,,,,,,,,562.3678,562.5659,562.566,563.0659,,,,,,,,,,,,,,1.1531,1,,,,,,,,,,,,,,m,,,,,,,,,,,,,,,,81,0,563.0665,564.2327,m,1,1.1531,,[],[],[],[],[],[],[],564.2328,566.2326,566.2326,566.2328,[],[],[],[],[],[],[],,566.2329,566.233,-0.016534616,-0.393706644,0,0,0,,0,80,80,94,1,4,word,CLINICAL,print,clinical_p.png,,,,,,
,,,,32045,001,2025-10-15_18h39.49.706,HW_LDT_1,2024.2.4,MacIntel,59.88023952,,,,,,,,,,,,,,,,,,,,,,566.2342,566.4317,566.4317,566.9317,,,,,,,,,,,,,,0.771,1,,,,,,,,,,,,,,z,,,,,,,,,,,,,,,,82,0,566.9323,567.7159,z,1,0.771,,[],[],[],[],[],[],[],567.716,569.7159,569.7159,569.7162,[],[],[],[],[],[],[],,569.7162,569.7163,-0.016534616,-0.393706644,0,0,0,,0,81,81,27,1,4,RL,menowy,print,menowy_p.png,,,,,,
,,,,32045,001,2025-10-15_18h39.49.706,HW_LDT_1,2024.2.4,MacIntel,59.88023952,,,,,,,,,,,,,,,,,,,,,,569.7175,569.9159,569.9159,570.415,,,,,,,,,,,,,,0.6649,1,,,,,,,,,,,,,,m,,,,,,,,,,,,,,,,83,0,570.4156,571.0818,m,1,0.6649,,[],[],[],[],[],[],[],571.0819,573.0826,573.0826,573.0827,[],[],[],[],[],[],[],,573.0828,573.0829,-0.016534616,-0.393706644,0,0,0,,0,82,82,146,1,4,word,RETIRE,print,retire_p.png,,,,,,
,,,,32045,001,2025-10-15_18h39.49.706,HW_LDT_1,2024.2.4,MacIntel,59.88023952,,,,,,,,,,,,,,,,,,,,,,573.0839,573.2826,573.2826,573.7817,,,,,,,,,,,,,,0.5892,0,,,,,,,,,,,,,,m,,,,,,,,,,,,,,,,84,0,573.7822,574.3817,z,0,0.5892,,[],[],[],[],[],[],[],574.3819,576.3825,576.3826,576.3828,[],[],[],[],[],[],[],,576.3828,576.3829,-0.016534616,-0.393706644,0,0,0,,0,83,83,128,1,4,word,PACIFIC,cursive,pacific_c.png,,,,,,
,,,,32045,001,2025-10-15_18h39.49.706,HW_LDT_1,2024.2.4,MacIntel,59.88023952,,,,,,,,,,,,,,,,,,,,,,576.384,576.5817,576.5817,577.0826,,,,,,,,,,,,,,0.79,1,,,,,,,,,,,,,,z,,,,,,,,,,,,,,,,85,0,577.0832,577.8817,z,1,0.79,,[],[],[],[],[],[],[],577.8819,579.8818,579.8818,579.8821,[],[],[],[],[],[],[],,579.8821,579.8822,-0.016534616,-0.393706644,0,0,0,,0,84,84,71,1,4,TL,racidal,print,racidal_p.png,,,,,,
,,,,32045,001,2025-10-15_18h39.49.706,HW_LDT_1,2024.2.4,MacIntel,59.88023952,,,,,,,,,,,,,,,,,,,,,,579.8833,580.0815,580.0815,580.5826,,,,,,,,,,,,,,0.7066,1,,,,,,,,,,,,,,z,,,,,,,,,,,,,,,,86,0,580.5831,581.2992,z,1,0.7066,,[],[],[],[],[],[],[],581.2992,583.2991,583.2992,583.2994,[],[],[],[],[],[],[],,583.2995,583.2995,-0.016534616,-0.393706644,0,0,0,,0,85,85,3,1,4,RL,bewoted,print,bewoted_p.png,,,,,,
,,,,32045,001,2025-10-15_18h39.49.706,HW_LDT_1,2024.2.4,MacIntel,59.88023952,,,,,,,,,,,,,,,,,,,,,,583.3008,583.4991,583.4992,583.9992,,,,,,,,,,,,,,2.4369,1,,,,,,,,,,,,,,m,,,,,,,,,,,,,,,,87,0,583.9997,586.4492,m,1,2.4369,,[],[],[],[],[],[],[],586.4492,588.4492,588.4493,588.4494,[],[],[],[],[],[],[],,588.4494,588.4496,-0.016534616,-0.393706644,0,0,0,,0,86,86,101,1,4,word,DELICATE,cursive,delicate_c.png,,,,,,
,,,,32045,001,2025-10-15_18h39.49.706,HW_LDT_1,2024.2.4,MacIntel,59.88023952,,,,,,,,,,,,,,,,,,,,,,588.4508,588.6492,588.6492,589.1491,,,,,,,,,,,,,,0.7704,1,,,,,,,,,,,,,,z,,,,,,,,,,,,,,,,88,0,589.1498,589.9327,z,1,0.7704,,[],[],[],[],[],[],[],589.9327,591.9325,591.9326,591.9327,[],[],[],[],[],[],[],,591.9328,591.9329,-0.016534616,-0.393706644,0,0,0,,0,87,87,36,1,4,RL,rabigly,cursive,rabigly_c.png,,,,,,
,,,,32045,001,2025-10-15_18h39.49.706,HW_LDT_1,2024.2.4,MacIntel,59.88023952,,,,,,,,,,,,,,,,,,,,,,591.934,592.1325,592.1325,592.6325,,,,,,,,,,,,,,0.72,1,,,,,,,,,,,,,,m,,,,,,,,,,,,,,,,89,0,592.6331,593.3658,m,1,0.72,,[],[],[],[],[],[],[],593.366,595.3658,595.3659,595.3662,[],[],[],[],[],[],[],,595.3662,595.3663,-0.016534616,-0.393706644,0,0,0,,0,88,88,115,1,4,word,LOGICAL,print,logical_p.png,,,,,,
,,,,32045,001,2025-10-15_18h39.49.706,HW_LDT_1,2024.2.4,MacIntel,59.88023952,,,,,,,,,,,,,,,,,,,,,,595.3674,595.5658,595.5658,596.0659,,,,,,,,,,,,,,0.6037,1,,,,,,,,,,,,,,m,,,,,,,,,,,,,,,,90,0,596.0664,596.6825,m,1,0.6037,,[],[],[],[],[],[],[],596.6827,598.6824,598.6825,598.6827,[],[],[],[],[],[],[],,598.6828,598.6829,-0.016534616,-0.393706644,0,0,0,,0,89,89,145,1,4,word,RESUME,print,resume_p.png,,,,,,
,,,,32045,001,2025-10-15_18h39.49.706,HW_LDT_1,2024.2.4,MacIntel,59.88023952,,,,,,,,,,,,,,,,,,,,,,598.6841,598.8825,598.8825,599.3824,,,,,,,,,,,,,,0.7885,1,,,,,,,,,,,,,,z,,,,,,,,,,,,,,,,91,0,599.3831,600.1825,z,1,0.7885,,[],[],[],[],[],[],[],600.1826,602.1824,602.1825,602.1827,[],[],[],[],[],[],[],,602.1827,602.1829,-0.016534616,-0.393706644,0,0,0,,0,90,90,8,1,4,RL,casagity,cursive,casagity_c.png,,,,,,
,,,,32045,001,2025-10-15_18h39.49.706,HW_LDT_1,2024.2.4,MacIntel,59.88023952,,,,,,,,,,,,,,,,,,,,,,602.184,602.3825,602.3825,602.8825,,,,,,,,,,,,,,0.6247,1,,,,,,,,,,,,,,m,,,,,,,,,,,,,,,,92,0,602.883,603.5159,m,1,0.6247,,[],[],[],[],[],[],[],603.516,605.5157,605.5158,605.516,[],[],[],[],[],[],[],,605.5161,605.5162,-0.016534616,-0.393706644,0,0,0,,0,91,91,88,1,4,word,CAMERA,print,camera_p.png,,,,,,
,,,,32045,001,2025-10-15_18h39.49.706,HW_LDT_1,2024.2.4,MacIntel,59.88023952,,,,,,,,,,,,,,,,,,,,,,605.5173,605.7158,605.7158,606.2158,,,,,,,,,,,,,,0.6651,1,,,,,,,,,,,,,,z,,,,,,,,,,,,,,,,93,0,606.2163,606.8826,z,1,0.6651,,[],[],[],[],[],[],[],606.8827,608.8824,608.8824,608.8826,[],[],[],[],[],[],[],,608.8827,608.8828,-0.016534616,-0.393706644,0,0,0,,0,92,92,37,1,4,RL,renutal,cursive,renutal_c.png,,,,,,
,,,,32045,001,2025-10-15_18h39.49.706,HW_LDT_1,2024.2.4,MacIntel,59.88023952,,,,,,,,,,,,,,,,,,,,,,608.884,609.0824,609.0825,609.5824,,,,,,,,,,,,,,0.8041,1,,,,,,,,,,,,,,z,,,,,,,,,,,,,,,,94,0,609.583,610.3992,z,1,0.8041,,[],[],[],[],[],[],[],610.3993,612.3991,612.3991,612.3993,[],[],[],[],[],[],[],,612.3994,612.3995,-0.016534616,-0.393706644,0,0,0,,0,93,93,12,1,4,RL,conbicer,cursive,conbicer_c.png,,,,,,
,,,,32045,001,2025-10-15_18h39.49.706,HW_LDT_1,2024.2.4,MacIntel,59.88023952,,,,,,,,,,,,,,,,,,,,,,612.4007,612.599,612.5991,613.0991,,,,,,,,,,,,,,1.0207,1,,,,,,,,,,,,,,m,,,,,,,,,,,,,,,,95,0,613.0996,614.1325,m,1,1.0207,,[],[],[],[],[],[],[],614.1326,616.1324,616.1324,616.1327,[],[],[],[],[],[],[],,616.1327,616.1329,-0.016534616,-0.393706644,0,0,0,,0,94,94,98,1,4,word,CRIMINAL,cursive,criminal_c.png,,,,,,
,,,,32045,001,2025-10-15_18h39.49.706,HW_LDT_1,2024.2.4,MacIntel,59.88023952,,,,,,,,,,,,,,,,,,,,,,616.134,616.3325,616.3326,616.8324,,,,,,,,,,,,,,1.1372,1,,,,,,,,,,,,,,z,,,,,,,,,,,,,,,,96,1,616.8329,617.9824,z,1,1.1372,,[],[],[],[],[],[],[],617.9826,619.9825,619.9825,626.715,[],[],[],[],[],[],[],m,626.7151,626.7153,-0.016534616,-0.393706644,0,0,0,,0,95,95,75,1,4,TL,sanile,print,sanile_p.png,6.724,,,,,
,,,,32045,001,2025-10-15_18h39.49.706,HW_LDT_1,2024.2.4,MacIntel,59.88023952,,,,,,,,,,,,,,,,,,,,,,626.7166,626.9157,626.9157,627.4157,,,,,,,,,,,,,,1.1202,1,,,,,,,,,,,,,,m,,,,,,,,,,,,,,,,97,0,627.4163,628.5491,m,1,1.1202,,[],[],[],[],[],[],[],628.5492,630.549,630.549,630.5492,[],[],[],[],[],[],[],,630.5493,630.5494,-0.016534616,-0.393706644,0,0,0,,0,96,96,158,1,4,word,VELOCITY,cursive,velocity_c.png,,,,,,
,,,,32045,001,2025-10-15_18h39.49.706,HW_LDT_1,2024.2.4,MacIntel,59.88023952,,,,,,,,,,,,,,,,,,,,,,630.5505,630.7491,630.7491,631.249,,,,,,,,,,,,,,0.932,1,,,,,,,,,,,,,,z,,,,,,,,,,,,,,,,98,0,631.2494,632.1824,z,1,0.932,,[],[],[],[],[],[],[],632.1825,634.1823,634.1823,634.1826,[],[],[],[],[],[],[],,634.1826,634.1827,-0.016534616,-0.393706644,0,0,0,,0,97,97,44,1,4,RL,senvilent,print,senvilent_p.png,,,,,,
,,,,32045,001,2025-10-15_18h39.49.706,HW_LDT_1,2024.2.4,MacIntel,59.88023952,,,,,,,,,,,,,,,,,,,,,,634.1838,634.3824,634.3825,634.8823,,,,,,,,,,,,,,2.7875,1,,,,,,,,,,,,,,z,,,,,,,,,,,,,,,,99,1,634.8828,637.6824,z,1,2.7875,,[],[],[],[],[],[],[],637.6826,639.6823,639.6824,641.1491,[],[],[],[],[],[],[],z,641.1491,641.1493,-0.016534616,-0.393706644,0,0,0,,0,98,98,10,1,4,RL,carminal,cursive,carminal_c.png,1.4546,,,,,
,,,,32045,001,2025-10-15_18h39.49.706,HW_LDT_1,2024.2.4,MacIntel,59.88023952,,,,,,,,,,,,,,,,,,,,,,641.1505,641.349,641.349,641.849,,,,,,,,,,,,,,1.3904,1,,,,,,,,,,,,,,z,,,,,,,,,,,,,,,,100,0,641.8496,643.2491,z,1,1.3904,,[],[],[],[],[],[],[],643.2492,645.249,645.249,645.2493,[],[],[],[],[],[],[],,645.2493,645.2494,-0.016534616,-0.393706644,0,0,0,,0,99,99,70,1,4,TL,quatily,print,quatily_p.png,,,,,,
,,,,32045,001,2025-10-15_18h39.49.706,HW_LDT_1,2024.2.4,MacIntel,59.88023952,,,,,,,,,,,,,,,,,,,,,,645.2507,645.449,645.449,645.949,,,,,,,,,,,,,,0.8153,1,,,,,,,,,,,,,,m,,,,,,,,,,,,,,,,101,0,645.9495,646.7658,m,1,0.8153,,[],[],[],[],[],[],[],646.766,648.7656,648.7657,648.766,[],[],[],[],[],[],[],,648.766,648.7661,-0.016534616,-0.393706644,0,0,0,,0,100,100,143,1,4,word,REMOVAL,print,removal_p.png,,,,,,
,,,,32045,001,2025-10-15_18h39.49.706,HW_LDT_1,2024.2.4,MacIntel,59.88023952,,,,,,,,,,,,,,,,,,,,,,648.7672,648.9656,648.9657,649.4656,,,,,,,,,,,,,,1.2823,1,,,,,,,,,,,,,,m,,,,,,,,,,,,,,,,102,1,649.4662,650.7494,m,1,1.2823,,[],[],[],[],[],[],[],650.7494,652.7489,652.749,654.316,[],[],[],[],[],[],[],z,654.3161,654.3162,-0.016534616,-0.393706644,0,0,0,,0,101,101,153,1,4,word,STOLEN,cursive,stolen_c.png,1.5567,,,,,
,,,,32045,001,2025-10-15_18h39.49.706,HW_LDT_1,2024.2.4,MacIntel,59.88023952,,,,,,,,,,,,,,,,,,,,,,654.3173,654.5156,654.5157,655.0157,,,,,,,,,,,,,,0.7322,1,,,,,,,,,,,,,,m,,,,,,,,,,,,,,,,103,0,655.0164,655.7493,m,1,0.7322,,[],[],[],[],[],[],[],655.7495,657.7488,657.7489,657.7492,[],[],[],[],[],[],[],,657.7493,657.7494,-0.016534616,-0.393706644,0,0,0,,0,102,102,121,1,4,word,MISTAKE,print,mistake_p.png,,,,,,
,,,,32045,001,2025-10-15_18h39.49.706,HW_LDT_1,2024.2.4,MacIntel,59.88023952,,,,,,,,,,,,,,,,,,,,,,657.7505,657.9488,657.9489,658.449,,,,,,,,,,,,,,0.8038,1,,,,,,,,,,,,,,z,,,,,,,,,,,,,,,,104,0,658.4495,659.2657,z,1,0.8038,,[],[],[],[],[],[],[],659.2658,661.2655,661.2656,661.2659,[],[],[],[],[],[],[],,661.2659,661.266,-0.016534616,-0.393706644,0,0,0,,0,103,103,35,1,4,RL,probice,cursive,probice_c.png,,,,,,
,,,,32045,001,2025-10-15_18h39.49.706,HW_LDT_1,2024.2.4,MacIntel,59.88023952,,,,,,,,,,,,,,,,,,,,,,661.2672,661.4656,661.4657,661.9656,,,,,,,,,,,,,,0.9204,0,,,,,,,,,,,,,,m,,,,,,,,,,,,,,,,105,1,661.9662,662.899,z,0,0.9204,,[],[],[],[],[],[],[],662.899,664.899,664.899,665.9322,[],[],[],[],[],[],[],z,665.9323,665.9324,-0.016534616,-0.393706644,0,0,0,,0,104,104,138,1,4,word,REFUSAL,cursive,refusal_c.png,1.0229,,,,,
,,,,32045,001,2025-10-15_18h39.49.706,HW_LDT_1,2024.2.4,MacIntel,59.88023952,,,,,,,,,,,,,,,,,,,,,,665.9334,666.1321,666.1322,666.6322,,,,,,,,,,,,,,1.7055,1,,,,,,,,,,,,,,z,,,,,,,,,,,,,,,,106,0,666.6327,668.3489,z,1,1.7055,,[],[],[],[],[],[],[],668.349,670.3489,670.349,670.3491,[],[],[],[],[],[],[],,670.3492,670.3493,-0.016534616,-0.393706644,0,0,0,,0,105,105,6,1,4,RL,caleberia,cursive,caleberia_c.png,,,,,,
,,,,32045,001,2025-10-15_18h39.49.706,HW_LDT_1,2024.2.4,MacIntel,59.88023952,,,,,,,,,,,,,,,,,,,,,,670.3505,670.5489,670.5489,671.0489,,,,,,,,,,,,,,0.5867,1,,,,,,,,,,,,,,m,,,,,,,,,,,,,,,,107,0,671.0494,671.6489,m,1,0.5867,,[],[],[],[],[],[],[],671.649,673.6488,673.649,673.6491,[],[],[],[],[],[],[],,673.6492,673.6493,-0.016534616,-0.393706644,0,0,0,,0,106,106,107,1,4,word,EVIDENT,print,evident_p.png,,,,,,
,,,,32045,001,2025-10-15_18h39.49.706,HW_LDT_1,2024.2.4,MacIntel,59.88023952,,,,,,,,,,,,,,,,,,,,,,673.6504,673.8488,673.8489,674.3488,,,,,,,,,,,,,,1.9991,1,,,,,,,,,,,,,,z,,,,,,,,,,,,,,,,108,0,674.3494,676.3492,z,1,1.9991,,[],[],[],[],[],[],[],676.3492,678.3489,678.3489,678.3491,[],[],[],[],[],[],[],,678.3492,678.3494,-0.016534616,-0.393706644,0,0,0,,0,107,107,49,1,4,RL,vesofity,cursive,vesofity_c.png,,,,,,
,,,,32045,001,2025-10-15_18h39.49.706,HW_LDT_1,2024.2.4,MacIntel,59.88023952,,,,,,,,,,,,,,,,,,,,,,678.3505,678.5478,678.5479,679.0489,,,,,,,,,,,,,,0.9203,1,,,,,,,,,,,,,,m,,,,,,,,,,,,,,,,109,0,679.0494,679.9823,m,1,0.9203,,[],[],[],[],[],[],[],679.9824,681.9821,681.9822,681.9825,[],[],[],[],[],[],[],,681.9825,681.9826,-0.016534616,-0.393706644,0,0,0,,0,108,108,159,1,4,word,VETERAN,cursive,veteran_c.png,,,,,,
,,,,32045,001,2025-10-15_18h39.49.706,HW_LDT_1,2024.2.4,MacIntel,59.88023952,,,,,,,,,,,,,,,,,,,,,,681.9837,682.1822,682.1823,682.6813,,,,,,,,,,,,,,0.7993,1,,,,,,,,,,,,,,z,,,,,,,,,,,,,,,,110,0,682.6819,683.4822,z,1,0.7993,,[],[],[],[],[],[],[],683.4823,685.4812,685.4812,685.4814,[],[],[],[],[],[],[],,685.4814,685.4815,-0.016534616,-0.393706644,0,0,0,,0,109,109,69,1,4,TL,quafily,print,quafily_p.png,,,,,,
,,,,32045,001,2025-10-15_18h39.49.706,HW_LDT_1,2024.2.4,MacIntel,59.88023952,,,,,,,,,,,,,,,,,,,,,,685.4827,685.6822,685.6822,686.1822,,,,,,,,,,,,,,0.5861,1,,,,,,,,,,,,,,m,,,,,,,,,,,,,,,,111,0,686.1827,686.7814,m,1,0.5861,,[],[],[],[],[],[],[],686.7815,688.7811,688.7812,688.7814,[],[],[],[],[],[],[],,688.7815,688.7816,-0.016534616,-0.393706644,0,0,0,,0,110,110,105,1,4,word,EDITOR,print,editor_p.png,,,,,,
,,,,32045,001,2025-10-15_18h39.49.706,HW_LDT_1,2024.2.4,MacIntel,59.88023952,,,,,,,,,,,,,,,,,,,,,,688.7828,688.9822,688.9822,689.4811,,,,,,,,,,,,,,0.8161,1,,,,,,,,,,,,,,z,,,,,,,,,,,,,,,,112,0,689.4817,690.2989,z,1,0.8161,,[],[],[],[],[],[],[],690.299,692.2978,692.2978,692.2981,[],[],[],[],[],[],[],,692.2982,692.2982,-0.016534616,-0.393706644,0,0,0,,0,111,111,20,1,4,RL,gralekul,print,gralekul_p.png,,,,,,
,,,,32045,001,2025-10-15_18h39.49.706,HW_LDT_1,2024.2.4,MacIntel,59.88023952,,,,,,,,,,,,,,,,,,,,,,692.2994,692.4989,692.499,692.9978,,,,,,,,,,,,,,0.7213,1,,,,,,,,,,,,,,m,,,,,,,,,,,,,,,,113,0,692.9984,693.7312,m,1,0.7213,,[],[],[],[],[],[],[],693.7313,695.7321,695.7322,695.7324,[],[],[],[],[],[],[],,695.7325,695.7326,-0.016534616,-0.393706644,0,0,0,,0,112,112,136,1,4,word,RADICAL,print,radical_p.png,,,,,,
,,,,32045,001,2025-10-15_18h39.49.706,HW_LDT_1,2024.2.4,MacIntel,59.88023952,,,,,,,,,,,,,,,,,,,,,,695.7338,695.9311,695.9312,696.4321,,,,,,,,,,,,,,0.6864,1,,,,,,,,,,,,,,m,,,,,,,,,,,,,,,,114,0,696.4326,697.1312,m,1,0.6864,,[],[],[],[],[],[],[],697.1313,699.1311,699.1312,699.1314,[],[],[],[],[],[],[],,699.1314,699.1315,-0.016534616,-0.393706644,0,0,0,,0,113,113,156,1,4,word,TRIBUTE,print,tribute_p.png,,,,,,
,,,,32045,001,2025-10-15_18h39.49.706,HW_LDT_1,2024.2.4,MacIntel,59.88023952,,,,,,,,,,,,,,,,,,,,,,699.1328,699.3321,699.3322,699.832,,,,,,,,,,,,,,0.8971,0,,,,,,,,,,,,,,m,,,,,,,,,,,,,,,,115,0,699.8326,700.7322,z,0,0.8971,,[],[],[],[],[],[],[],700.7322,702.7321,702.7322,702.7324,[],[],[],[],[],[],[],,702.7325,702.7325,-0.016534616,-0.393706644,0,0,0,,0,114,114,130,1,4,word,POLICY,cursive,policy_c.png,,,,,,
,,,,32045,001,2025-10-15_18h39.49.706,HW_LDT_1,2024.2.4,MacIntel,59.88023952,,,,,,,,,,,,,,,,,,,,,,702.7342,702.9311,702.9311,703.4321,,,,,,,,,,,,,,0.8285,1,,,,,,,,,,,,,,z,,,,,,,,,,,,,,,,116,0,703.4326,704.2645,z,1,0.8285,,[],[],[],[],[],[],[],704.2645,706.2654,706.2655,706.2656,[],[],[],[],[],[],[],,706.2657,706.2659,-0.016534616,-0.393706644,0,0,0,,0,115,115,17,1,4,RL,denficy,cursive,denficy_c.png,,,,,,
,,,,32045,001,2025-10-15_18h39.49.706,HW_LDT_1,2024.2.4,MacIntel,59.88023952,,,,,,,,,,,,,,,,,,,,,,706.2671,706.4654,706.4654,706.9654,,,,,,,,,,,,,,0.8545,1,,,,,,,,,,,,,,z,,,,,,,,,,,,,,,,117,0,706.966,707.8321,z,1,0.8545,,[],[],[],[],[],[],[],707.8323,709.8311,709.8312,709.8314,[],[],[],[],[],[],[],,709.8314,709.8315,-0.016534616,-0.393706644,0,0,0,,0,116,116,11,1,4,RL,clisimal,print,clisimal_p.png,,,,,,
,,,,32045,001,2025-10-15_18h39.49.706,HW_LDT_1,2024.2.4,MacIntel,59.88023952,,,,,,,,,,,,,,,,,,,,,,709.8327,710.032,710.0321,710.532,,,,,,,,,,,,,,0.8383,1,,,,,,,,,,,,,,z,,,,,,,,,,,,,,,,118,0,710.5326,711.3821,z,1,0.8383,,[],[],[],[],[],[],[],711.3823,713.381,713.3811,713.3814,[],[],[],[],[],[],[],,713.3814,713.3815,-0.016534616,-0.393706644,0,0,0,,0,117,117,60,1,4,TL,hetirage,print,hetirage_p.png,,,,,,
,,,,32045,001,2025-10-15_18h39.49.706,HW_LDT_1,2024.2.4,MacIntel,59.88023952,,,,,,,,,,,,,,,,,,,,,,713.3826,713.5811,713.5811,714.0811,,,,,,,,,,,,,,0.6381,1,,,,,,,,,,,,,,m,,,,,,,,,,,,,,,,119,1,714.0816,714.7322,m,1,0.6381,,[],[],[],[],[],[],[],714.7322,716.732,716.7321,718.3988,[],[],[],[],[],[],[],m,718.3989,718.399,-0.016534616,-0.393706644,0,0,0,,0,118,118,103,1,4,word,DISPUTE,print,dispute_p.png,1.6566,,,,,
,,,,32045,001,2025-10-15_18h39.49.706,HW_LDT_1,2024.2.4,MacIntel,59.88023952,,,,,,,,,,,,,,,,,,,,,,718.4002,718.5987,718.5987,719.0987,,,,,,,,,,,,,,1.1709,1,,,,,,,,,,,,,,z,,,,,,,,,,,,,,,,120,1,719.0992,720.2821,z,1,1.1709,,[],[],[],[],[],[],[],720.2821,722.2821,722.2821,723.7654,[],[],[],[],[],[],[],z,723.7655,723.7657,-0.016534616,-0.393706644,0,0,0,,0,119,119,52,1,4,TL,cagetory,cursive,cagetory_c.png,1.4708,,,,,
,,,,32045,001,2025-10-15_18h39.49.706,HW_LDT_1,2024.2.4,MacIntel,59.88023952,,,,,,,,,,,,,,,,,,,,,,723.7669,723.9644,723.9644,724.4653,,,,,,,,,,,,,,0.7876,1,,,,,,,,,,,,,,z,,,,,,,,,,,,,,,,121,0,724.4659,725.2654,z,1,0.7876,,[],[],[],[],[],[],[],725.2655,727.2653,727.2653,727.2656,[],[],[],[],[],[],[],,727.2656,727.2657,-0.016534616,-0.393706644,0,0,0,,0,120,120,40,1,4,RL,reconal,print,reconal_p.png,,,,,,
,,,,32045,001,2025-10-15_18h39.49.706,HW_LDT_1,2024.2.4,MacIntel,59.88023952,,,,,,,,,,,,,,,,,,,,,,727.267,727.4653,727.4654,727.9655,,,,,,,,,,,,,,1.1478,1,,,,,,,,,,,,,,m,,,,,,,,,,,,,,,,122,0,727.9661,729.1154,m,1,1.1478,,[],[],[],[],[],[],[],729.1155,731.1144,731.1144,731.1147,[],[],[],[],[],[],[],,731.1148,731.1149,-0.016534616,-0.393706644,0,0,0,,0,121,121,120,1,4,word,MILITARY,print,military_p.png,,,,,,
,,,,32045,001,2025-10-15_18h39.49.706,HW_LDT_1,2024.2.4,MacIntel,59.88023952,,,,,,,,,,,,,,,,,,,,,,731.116,731.3153,731.3154,731.8143,,,,,,,,,,,,,,0.6921,1,,,,,,,,,,,,,,z,,,,,,,,,,,,,,,,123,0,731.8149,732.5144,z,1,0.6921,,[],[],[],[],[],[],[],732.5145,734.5144,734.5144,734.5146,[],[],[],[],[],[],[],,734.5147,734.5148,-0.016534616,-0.393706644,0,0,0,,0,122,122,46,1,4,RL,skofen,cursive,skofen_c.png,,,,,,
,,,,32045,001,2025-10-15_18h39.49.706,HW_LDT_1,2024.2.4,MacIntel,59.88023952,,,,,,,,,,,,,,,,,,,,,,734.5159,734.7143,734.7144,735.2153,,,,,,,,,,,,,,0.8026,1,,,,,,,,,,,,,,z,,,,,,,,,,,,,,,,124,0,735.2159,736.0312,z,1,0.8026,,[],[],[],[],[],[],[],736.0312,738.0319,738.032,738.0322,[],[],[],[],[],[],[],,738.0322,738.0324,-0.016534616,-0.393706644,0,0,0,,0,123,123,57,1,4,TL,etidor,print,etidor_p.png,,,,,,
,,,,32045,001,2025-10-15_18h39.49.706,HW_LDT_1,2024.2.4,MacIntel,59.88023952,,,,,,,,,,,,,,,,,,,,,,738.0335,738.2319,738.2319,738.7319,,,,,,,,,,,,,,1.0034,1,,,,,,,,,,,,,,m,,,,,,,,,,,,,,,,125,0,738.7325,739.7477,m,1,1.0034,,[],[],[],[],[],[],[],739.7478,741.7486,741.7487,741.7489,[],[],[],[],[],[],[],,741.7489,741.749,-0.016534616,-0.393706644,0,0,0,,0,124,124,150,1,4,word,SENTIMENT,print,sentiment_p.png,,,,,,
,,,,32045,001,2025-10-15_18h39.49.706,HW_LDT_1,2024.2.4,MacIntel,59.88023952,,,,,,,,,,,,,,,,,,,,,,741.7503,741.9486,741.9487,742.4486,,,,,,,,,,,,,,0.9197,1,,,,,,,,,,,,,,m,,,,,,,,,,,,,,,,126,0,742.4491,743.3821,m,1,0.9197,,[],[],[],[],[],[],[],743.3823,745.381,745.3811,745.3814,[],[],[],[],[],[],[],,745.3814,745.3814,-0.016534616,-0.393706644,0,0,0,,0,125,125,134,1,4,word,QUALIFY,print,qualify_p.png,,,,,,
,,,,32045,001,2025-10-15_18h39.49.706,HW_LDT_1,2024.2.4,MacIntel,59.88023952,,,,,,,,,,,,,,,,,,,,,,745.3827,745.5811,745.5811,746.0819,,,,,,,,,,,,,,0.8323,1,,,,,,,,,,,,,,z,,,,,,,,,,,,,,,,127,0,746.0824,746.9156,z,1,0.8323,,[],[],[],[],[],[],[],746.9158,748.9143,748.9144,748.9146,[],[],[],[],[],[],[],,748.9147,748.9148,-0.016534616,-0.393706644,0,0,0,,0,126,126,43,1,4,RL,rovastic,print,rovastic_p.png,,,,,,
,,,,32045,001,2025-10-15_18h39.49.706,HW_LDT_1,2024.2.4,MacIntel,59.88023952,,,,,,,,,,,,,,,,,,,,,,748.9161,749.1143,749.1144,749.6144,,,,,,,,,,,,,,0.7214,1,,,,,,,,,,,,,,m,,,,,,,,,,,,,,,,128,0,749.6148,750.3487,m,1,0.7214,,[],[],[],[],[],[],[],750.3488,752.3486,752.3487,752.3489,[],[],[],[],[],[],[],,752.349,752.3491,-0.016534616,-0.393706644,0,0,0,,0,127,127,140,1,4,word,RELATIVE,print,relative_p.png,,,,,,
,,,,32045,001,2025-10-15_18h39.49.706,HW_LDT_1,2024.2.4,MacIntel,59.88023952,,,,,,,,,,,,,,,,,,,,,,752.3502,752.5477,752.5477,753.0477,,,,,,,,,,,,,,0.8145,1,,,,,,,,,,,,,,m,,,,,,,,,,,,,,,,129,0,753.0482,753.8652,m,1,0.8145,,[],[],[],[],[],[],[],753.8653,755.8653,755.8653,755.8655,[],[],[],[],[],[],[],,755.8656,755.8656,-0.016534616,-0.393706644,0,0,0,,0,128,128,132,1,4,word,PROPOSAL,print,proposal_p.png,,,,,,
,,,,32045,001,2025-10-15_18h39.49.706,HW_LDT_1,2024.2.4,MacIntel,59.88023952,,,,,,,,,,,,,,,,,,,,,,755.8669,756.0652,756.0652,756.5643,,,,,,,,,,,,,,1.0218,1,,,,,,,,,,,,,,z,,,,,,,,,,,,,,,,130,0,756.5649,757.5987,z,1,1.0218,,[],[],[],[],[],[],[],757.5987,759.5986,759.5987,759.5988,[],[],[],[],[],[],[],,759.5989,759.599,-0.016534616,-0.393706644,0,0,0,,0,129,129,22,1,4,RL,linedal,cursive,linedal_c.png,,,,,,
,,,,32045,001,2025-10-15_18h39.49.706,HW_LDT_1,2024.2.4,MacIntel,59.88023952,,,,,,,,,,,,,,,,,,,,,,759.6001,759.7986,759.7986,760.2977,,,,,,,,,,,,,,1.737,1,,,,,,,,,,,,,,z,,,,,,,,,,,,,,,,131,0,760.2983,762.0486,z,1,1.737,,[],[],[],[],[],[],[],762.0487,764.0476,764.0477,764.048,[],[],[],[],[],[],[],,764.048,764.0481,-0.016534616,-0.393706644,0,0,0,,0,130,130,29,1,4,RL,motide,print,motide_p.png,,,,,,
,,,,32045,001,2025-10-15_18h39.49.706,HW_LDT_1,2024.2.4,MacIntel,59.88023952,,,,,,,,,,,,,,,,,,,,,,764.0494,764.2477,764.2477,764.7485,,,,,,,,,,,,,,1.0152,0,,,,,,,,,,,,,,m,,,,,,,,,,,,,,,,132,0,764.7491,765.7652,z,0,1.0152,,[],[],[],[],[],[],[],765.7654,767.7643,767.7644,767.7645,[],[],[],[],[],[],[],,767.7646,767.7647,-0.016534616,-0.393706644,0,0,0,,0,131,131,87,1,4,word,CAFETERIA,cursive,cafeteria_c.png,,,,,,
,,,,32045,001,2025-10-15_18h39.49.706,HW_LDT_1,2024.2.4,MacIntel,59.88023952,,,,,,,,,,,,,,,,,,,,,,767.7659,767.9653,767.9653,768.4644,,,,,,,,,,,,,,1.0926,1,,,,,,,,,,,,,,z,,,,,,,,,,,,,,,,133,1,768.4648,769.5652,z,1,1.0926,,[],[],[],[],[],[],[],769.5653,771.5652,771.5652,772.2819,[],[],[],[],[],[],[],z,772.282,772.2821,-0.016534616,-0.393706644,0,0,0,,0,132,132,39,1,4,RL,relone,cursive,relone_c.png,0.7161,,,,,
,,,,32045,001,2025-10-15_18h39.49.706,HW_LDT_1,2024.2.4,MacIntel,59.88023952,,,,,,,,,,,,,,,,,,,,,,772.2831,772.4809,772.481,772.9818,,,,,,,,,,,,,,1.7028,1,,,,,,,,,,,,,,z,,,,,,,,,,,,,,,,134,0,772.9823,774.6985,z,1,1.7028,,[],[],[],[],[],[],[],774.6987,776.6976,776.6976,776.6979,[],[],[],[],[],[],[],,776.6979,776.698,-0.016534616,-0.393706644,0,0,0,,0,133,133,74,1,4,TL,rerite,print,rerite_p.png,,,,,,
,,,,32045,001,2025-10-15_18h39.49.706,HW_LDT_1,2024.2.4,MacIntel,59.88023952,,,,,,,,,,,,,,,,,,,,,,776.6992,776.8986,776.8986,777.3985,,,,,,,,,,,,,,0.8642,1,,,,,,,,,,,,,,z,,,,,,,,,,,,,,,,135,0,777.3991,778.2652,z,1,0.8642,,[],[],[],[],[],[],[],778.2652,780.2651,780.2652,780.2655,[],[],[],[],[],[],[],,780.2655,780.2657,-0.016534616,-0.393706644,0,0,0,,0,134,134,58,1,4,TL,edivent,print,edivent_p.png,,,,,,
,,,,32045,001,2025-10-15_18h39.49.706,HW_LDT_1,2024.2.4,MacIntel,59.88023952,,,,,,,,,,,,,,,,,,,,,,780.2668,780.4651,780.4652,780.9651,,,,,,,,,,,,,,0.8693,1,,,,,,,,,,,,,,z,,,,,,,,,,,,,,,,136,0,780.9657,781.8477,z,1,0.8693,,[],[],[],[],[],[],[],781.8477,783.8485,783.8486,783.8488,[],[],[],[],[],[],[],,783.8489,783.849,-0.016534616,-0.393706644,0,0,0,,0,135,135,42,1,4,RL,revune,print,revune_p.png,,,,,,
,,,,32045,001,2025-10-15_18h39.49.706,HW_LDT_1,2024.2.4,MacIntel,59.88023952,,,,,,,,,,,,,,,,,,,,,,783.8502,784.0486,784.0486,784.5476,,,,,,,,,,,,,,0.7992,1,,,,,,,,,,,,,,z,,,,,,,,,,,,,,,,137,0,784.5482,785.3485,z,1,0.7992,,[],[],[],[],[],[],[],785.3485,787.3484,787.3485,787.3487,[],[],[],[],[],[],[],,787.3488,787.3489,-0.016534616,-0.393706644,0,0,0,,0,136,136,31,1,4,RL,orimipal,print,orimipal_p.png,,,,,,
,,,,32045,001,2025-10-15_18h39.49.706,HW_LDT_1,2024.2.4,MacIntel,59.88023952,,,,,,,,,,,,,,,,,,,,,,787.3501,787.5477,787.5477,788.0486,,,,,,,,,,,,,,1.0371,1,,,,,,,,,,,,,,z,,,,,,,,,,,,,,,,138,0,788.049,789.0976,z,1,1.0371,,[],[],[],[],[],[],[],789.0977,791.0984,791.0985,791.0987,[],[],[],[],[],[],[],,791.0987,791.0988,-0.016534616,-0.393706644,0,0,0,,0,137,137,78,1,4,TL,stragety,print,stragety_p.png,,,,,,
,,,,32045,001,2025-10-15_18h39.49.706,HW_LDT_1,2024.2.4,MacIntel,59.88023952,,,,,,,,,,,,,,,,,,,,,,791.0999,791.2976,791.2976,791.7985,,,,,,,,,,,,,,0.8885,1,,,,,,,,,,,,,,z,,,,,,,,,,,,,,,,139,0,791.7991,792.6977,z,1,0.8885,,[],[],[],[],[],[],[],792.6978,794.6976,794.6977,794.698,[],[],[],[],[],[],[],,794.698,794.6981,-0.016534616,-0.393706644,0,0,0,,0,138,138,0,1,4,RL,abanemy,print,abanemy_p.png,,,,,,
,,,,32045,001,2025-10-15_18h39.49.706,HW_LDT_1,2024.2.4,MacIntel,59.88023952,,,,,,,,,,,,,,,,,,,,,,794.6992,794.8985,794.8985,795.3984,,,,,,,,,,,,,,1.0976,1,,,,,,,,,,,,,,m,,,,,,,,,,,,,,,,140,0,795.3989,796.4985,m,1,1.0976,,[],[],[],[],[],[],[],796.4985,798.4985,798.4985,798.4988,[],[],[],[],[],[],[],,798.4988,798.4989,-0.016534616,-0.393706644,0,0,0,,0,139,139,152,1,4,word,SPECIMEN,cursive,specimen_c.png,,,,,,
,,,,32045,001,2025-10-15_18h39.49.706,HW_LDT_1,2024.2.4,MacIntel,59.88023952,,,,,,,,,,,,,,,,,,,,,,798.5,798.6984,798.6985,799.1984,,,,,,,,,,,,,,1.9325,0,,,,,,,,,,,,,,z,,,,,,,,,,,,,,,,141,0,799.1989,801.1321,m,0,1.9325,,[],[],[],[],[],[],[],801.1323,803.1317,803.1318,803.132,[],[],[],[],[],[],[],,803.132,803.1321,-0.016534616,-0.393706644,0,0,0,,0,140,140,30,1,4,RL,nunewical,cursive,nunewical_c.png,,,,,,
,,,,32045,001,2025-10-15_18h39.49.706,HW_LDT_1,2024.2.4,MacIntel,59.88023952,,,,,,,,,,,,,,,,,,,,,,803.1332,803.3317,803.3317,803.8317,,,,,,,,,,,,,,0.8368,0,,,,,,,,,,,,,,m,,,,,,,,,,,,,,,,142,0,803.8322,804.6818,z,0,0.8368,,[],[],[],[],[],[],[],804.6819,806.6817,806.6818,806.682,[],[],[],[],[],[],[],,806.682,806.6821,-0.016534616,-0.393706644,0,0,0,,0,141,141,85,1,4,word,BENEFIT,cursive,benefit_c.png,,,,,,
,,,,32045,001,2025-10-15_18h39.49.706,HW_LDT_1,2024.2.4,MacIntel,59.88023952,,,,,,,,,,,,,,,,,,,,,,806.6833,806.8817,806.8818,807.3817,,,,,,,,,,,,,,1.3157,1,,,,,,,,,,,,,,m,,,,,,,,,,,,,,,,143,0,807.3822,808.6987,m,1,1.3157,,[],[],[],[],[],[],[],808.6989,810.6984,810.6984,810.6986,[],[],[],[],[],[],[],,810.6987,810.6987,-0.016534616,-0.393706644,0,0,0,,0,142,142,86,1,4,word,BESIDE,print,beside_p.png,,,,,,
,,,,32045,001,2025-10-15_18h39.49.706,HW_LDT_1,2024.2.4,MacIntel,59.88023952,,,,,,,,,,,,,,,,,,,,,,810.6999,810.8977,810.8978,811.3983,,,,,,,,,,,,,,0.9225,1,,,,,,,,,,,,,,m,,,,,,,,,,,,,,,,144,0,811.3989,812.3318,m,1,0.9225,,[],[],[],[],[],[],[],812.3319,814.3317,814.3318,814.3319,[],[],[],[],[],[],[],,814.332,814.3321,-0.016534616,-0.393706644,0,0,0,,0,143,143,154,1,4,word,STORAGE,print,storage_p.png,,,,,,
,,,,32045,001,2025-10-15_18h39.49.706,HW_LDT_1,2024.2.4,MacIntel,59.88023952,,,,,,,,,,,,,,,,,,,,,,814.3333,814.5316,814.5317,815.0317,,,,,,,,,,,,,,1.3133,0,,,,,,,,,,,,,,m,,,,,,,,,,,,,,,,145,0,815.0322,816.3481,z,0,1.3133,,[],[],[],[],[],[],[],816.3481,818.3484,818.3484,818.3487,[],[],[],[],[],[],[],,818.3487,818.3487,-0.016534616,-0.393706644,0,0,0,,0,144,144,113,1,4,word,LITERAL,cursive,literal_c.png,,,,,,
,,,,32045,001,2025-10-15_18h39.49.706,HW_LDT_1,2024.2.4,MacIntel,59.88023952,,,,,,,,,,,,,,,,,,,,,,818.3499,818.5484,818.5484,819.0484,,,,,,,,,,,,,,1.2257,1,,,,,,,,,,,,,,z,,,,,,,,,,,,,,,,146,1,819.0489,820.2818,z,1,1.2257,,[],[],[],[],[],[],[],820.2818,822.2817,822.2818,823.7317,[],[],[],[],[],[],[],z,823.7317,823.7319,-0.016534616,-0.393706644,0,0,0,,0,145,145,16,1,4,RL,desifate,cursive,desifate_c.png,1.4421,,,,,
,,,,32045,001,2025-10-15_18h39.49.706,HW_LDT_1,2024.2.4,MacIntel,59.88023952,,,,,,,,,,,,,,,,,,,,,,823.7329,823.9317,823.9317,824.4317,,,,,,,,,,,,,,1.1292,1,,,,,,,,,,,,,,m,,,,,,,,,,,,,,,,147,0,824.4322,825.565,m,1,1.1292,,[],[],[],[],[],[],[],825.5651,827.5652,827.5653,827.5654,[],[],[],[],[],[],[],,827.5654,827.5655,-0.016534616,-0.393706644,0,0,0,,0,146,146,141,1,4,word,RELIGION,print,religion_p.png,,,,,,
,,,,32045,001,2025-10-15_18h39.49.706,HW_LDT_1,2024.2.4,MacIntel,59.88023952,,,,,,,,,,,,,,,,,,,,,,827.5665,827.765,827.7651,828.265,,,,,,,,,,,,,,0.8549,1,,,,,,,,,,,,,,m,,,,,,,,,,,,,,,,148,0,828.2656,829.1318,m,1,0.8549,,[],[],[],[],[],[],[],829.1319,831.1316,831.1317,831.1319,[],[],[],[],[],[],[],,831.1319,831.132,-0.016534616,-0.393706644,0,0,0,,0,147,147,126,1,4,word,OPTIMAL,print,optimal_p.png,,,,,,
,,,,32045,001,2025-10-15_18h39.49.706,HW_LDT_1,2024.2.4,MacIntel,59.88023952,,,,,,,,,,,,,,,,,,,,,,831.1332,831.3317,831.3317,831.8317,,,,,,,,,,,,,,1.414,1,,,,,,,,,,,,,,z,,,,,,,,,,,,,,,,149,0,831.8322,833.2483,z,1,1.414,,[],[],[],[],[],[],[],833.2484,835.2483,835.2484,835.2486,[],[],[],[],[],[],[],,835.2486,835.2488,-0.016534616,-0.393706644,0,0,0,,0,148,148,73,1,4,TL,regilion,print,regilion_p.png,,,,,,
,,,,32045,001,2025-10-15_18h39.49.706,HW_LDT_1,2024.2.4,MacIntel,59.88023952,,,,,,,,,,,,,,,,,,,,,,835.2498,835.4483,835.4483,835.9483,,,,,,,,,,,,,,1.3243,0,,,,,,,,,,,,,,m,,,,,,,,,,,,,,,,150,0,835.9489,837.2809,z,0,1.3243,,[],[],[],[],[],[],[],837.2811,839.2816,839.2817,839.2819,[],[],[],[],[],[],[],,839.2819,839.282,-0.016534616,-0.393706644,0,0,0,,0,149,149,151,1,4,word,SPECIFIC,cursive,specific_c.png,,,,,,
,,,,32045,001,2025-10-15_18h39.49.706,HW_LDT_1,2024.2.4,MacIntel,59.88023952,,,,,,,,,,,,,,,,,,,,,,839.2832,839.4816,839.4817,839.9816,,,,,,,,,,,,,,0.704,0,,,,,,,,,,,,,,m,,,,,,,,,,,,,,,,151,0,839.9822,840.6983,z,0,0.704,,[],[],[],[],[],[],[],840.6984,842.6983,842.6983,842.6986,[],[],[],[],[],[],[],,842.6986,842.6987,-0.016534616,-0.393706644,0,0,0,,0,150,150,106,1,4,word,ELABORATE,cursive,elaborate_c.png,,,,,,
,,,,32045,001,2025-10-15_18h39.49.706,HW_LDT_1,2024.2.4,MacIntel,59.88023952,,,,,,,,,,,,,,,,,,,,,,842.7,842.8983,842.8984,843.3983,,,,,,,,,,,,,,1.5703,1,,,,,,,,,,,,,,m,,,,,,,,,,,,,,,,152,1,843.3989,844.9816,m,1,1.5703,,[],[],[],[],[],[],[],844.9818,846.9815,846.9816,848.4483,[],[],[],[],[],[],[],z,848.4484,848.4487,-0.016534616,-0.393706644,0,0,0,,0,151,151,91,1,4,word,CARDINAL,cursive,cardinal_c.png,1.4565,,,,,
,,,,32045,001,2025-10-15_18h39.49.706,HW_LDT_1,2024.2.4,MacIntel,59.88023952,,,,,,,,,,,,,,,,,,,,,,848.4496,848.6482,848.6482,849.1482,,,,,,,,,,,,,,1.1655,1,,,,,,,,,,,,,,m,,,,,,,,,,,,,,,,153,0,849.1488,850.315,m,1,1.1655,,[],[],[],[],[],[],[],850.3151,852.3149,852.315,852.3152,[],[],[],[],[],[],[],,852.3153,852.3154,-0.016534616,-0.393706644,0,0,0,,0,152,152,149,1,4,word,SENATOR,print,senator_p.png,,,,,,
,,,,32045,001,2025-10-15_18h39.49.706,HW_LDT_1,2024.2.4,MacIntel,59.88023952,,,,,,,,,,,,,,,,,,,,,,852.3165,852.5151,852.5151,853.0149,,,,,,,,,,,,,,1.2078,1,,,,,,,,,,,,,,m,,,,,,,,,,,,,,,,154,0,853.0155,854.2316,m,1,1.2078,,[],[],[],[],[],[],[],854.2318,856.2315,856.2316,856.2318,[],[],[],[],[],[],[],,856.2319,856.2319,-0.016534616,-0.393706644,0,0,0,,0,153,153,155,1,4,word,STRATEGY,print,strategy_p.png,,,,,,
,,,,32045,001,2025-10-15_18h39.49.706,HW_LDT_1,2024.2.4,MacIntel,59.88023952,,,,,,,,,,,,,,,,,,,,,,856.2331,856.4315,856.4315,856.9315,,,,,,,,,,,,,,0.7153,1,,,,,,,,,,,,,,m,,,,,,,,,,,,,,,,155,1,856.932,857.6482,m,1,0.7153,,[],[],[],[],[],[],[],857.6483,859.6482,859.6482,860.7482,[],[],[],[],[],[],[],m,860.7482,860.7484,-0.016534616,-0.393706644,0,0,0,,0,154,154,95,1,4,word,COMEDY,print,comedy_p.png,1.0978,,,,,
,,,,32045,001,2025-10-15_18h39.49.706,HW_LDT_1,2024.2.4,MacIntel,59.88023952,,,,,,,,,,,,,,,,,,,,,,860.7493,860.9482,860.9482,861.4482,,,,,,,,,,,,,,1.2581,1,,,,,,,,,,,,,,m,,,,,,,,,,,,,,,,156,0,861.4487,862.715,m,1,1.2581,,[],[],[],[],[],[],[],862.715,864.7148,864.7149,864.7151,[],[],[],[],[],[],[],,864.7151,864.7153,-0.016534616,-0.393706644,0,0,0,,0,155,155,83,1,4,word,ANIMAL,cursive,animal_c.png,,,,,,
,,,,32045,001,2025-10-15_18h39.49.706,HW_LDT_1,2024.2.4,MacIntel,59.88023952,,,,,,,,,,,,,,,,,,,,,,864.7164,864.9148,864.9149,865.4148,,,,,,,,,,,,,,1.2305,1,,,,,,,,,,,,,,m,,,,,,,,,,,,,,,,157,0,865.4154,866.6482,m,1,1.2305,,[],[],[],[],[],[],[],866.6482,868.6482,868.6483,868.6485,[],[],[],[],[],[],[],,868.6486,868.6487,-0.016534616,-0.393706644,0,0,0,,0,156,156,137,1,4,word,RAPIDLY,cursive,rapidly_c.png,,,,,,
,,,,32045,001,2025-10-15_18h39.49.706,HW_LDT_1,2024.2.4,MacIntel,59.88023952,,,,,,,,,,,,,,,,,,,,,,868.6498,868.8481,868.8482,869.3481,,,,,,,,,,,,,,0.8157,1,,,,,,,,,,,,,,m,,,,,,,,,,,,,,,,158,1,869.3487,870.1651,m,1,0.8157,,[],[],[],[],[],[],[],870.1652,872.1648,872.1649,873.465,[],[],[],[],[],[],[],z,873.465,873.4652,-0.016534616,-0.393706644,0,0,0,,0,157,157,125,1,4,word,OPERATOR,print,operator_p.png,1.2897,,,,,
,,,,32045,001,2025-10-15_18h39.49.706,HW_LDT_1,2024.2.4,MacIntel,59.88023952,,,,,,,,,,,,,,,,,,,,,,873.4663,873.6648,873.6649,874.1648,,,,,,,,,,,,,,2.3529,1,,,,,,,,,,,,,,m,,,,,,,,,,,,,,,,159,0,874.1654,876.5315,m,1,2.3529,,[],[],[],[],[],[],[],876.5316,878.5315,878.5316,878.5318,[],[],[],[],[],[],[],,878.5318,878.5319,-0.016534616,-0.393706644,0,0,0,,0,158,158,116,1,4,word,MARGINAL,cursive,marginal_c.png,,,,,,
,,,,32045,001,2025-10-15_18h39.49.706,HW_LDT_1,2024.2.4,MacIntel,59.88023952,,,,,,,,,,,,,,,,,,,,,,878.533,878.7314,878.7315,879.2314,,,,,,,,,,,,,,2.4898,0,,,,,,,,,,,,,,m,,,,,,,,,,,,,,,,160,0,879.2321,881.7315,z,0,2.4898,,[],[],[],[],[],[],[],881.7317,883.7314,883.7316,883.7317,[],[],[],[],[],[],[],,883.7317,883.7318,-0.016534616,-0.393706644,0,0,0,,0,159,159,102,1,4,word,DENSITY,cursive,density_c.png,,,,,,
,,,,32045,001,2025-10-15_18h39.49.706,HW_LDT_1,2024.2.4,MacIntel,59.88023952,,,,,,,,,,,,,,,,,,,,,,,,,,,,,,,,,,,,,,,,,,,,,,,,,,,,,,,,,,,,,,,,,,,,,,,,,,,,,,,,,,,,,,,,,,,,,,,,,,,,,,,,,,,,,,,,,,,,,,,883.7325,888.7318
