counterbalance_lists.group,counterbalance_lists.remaining,get_list.started,get_list.stopped,participant,session,date,expName,psychopyVersion,OS,frameRate,Instructions.started,Instructions.stopped,key_resp.keys,key_resp.rt,key_resp.duration,instr_done_touch.x,instr_done_touch.y,instr_done_touch.leftButton,instr_done_touch.midButton,instr_done_touch.rightButton,start_instr.thisRepN,start_instr.thisTrialN,start_instr.thisN,start_instr.thisIndex,start_instr.ran,pageN,phase,instruct_text,has_image,instruct_image,showProgress.started,showProgress.stopped,fix.started,fix.stopped,prac.started,prac.stopped,response.keys,response.corr,response.rt,response.duration,touch_resp.x,touch_resp.y,touch_resp.leftButton,touch_resp.midButton,touch_resp.rightButton,touch_resp.time,touch_resp.clicked_name,rt,corr,feedback.started,feedback.stopped,trials.thisRepN,trials.thisTrialN,trials.thisN,trials.thisIndex,trials.ran,TrialID,StimulusType,Condition,PrimeDuration,Prime,Target,corrAns,Instructions_expt.started,Instructions_expt.stopped,key_resp_3.keys,instr_done_touch_3.x,instr_done_touch_3.y,instr_done_touch_3.leftButton,instr_done_touch_3.midButton,instr_done_touch_3.rightButton,instr_done_touch_3.clicked_name,instr_experiment.thisRepN,instr_experiment.thisTrialN,instr_experiment.thisN,instr_experiment.thisIndex,instr_experiment.ran,trialID,flag,maintask.started,maintask.stopped,key_resp_2.keys,key_resp_2.corr,key_resp_2.rt,key_resp_2.duration,targ_click.x,targ_click.y,targ_click.leftButton,targ_click.midButton,targ_click.rightButton,targ_click.time,targ_click.clicked_name,ITI.started,ITI.stopped,probe.started,probe.stopped,click_probe.x,click_probe.y,click_probe.leftButton,click_probe.midButton,click_probe.rightButton,click_probe.time,click_probe.clicked_name,key_resp_probe.keys,Break.started,Break.stopped,break_done_touch.x,break_done_touch.y,break_done_touch.leftButton,break_done_touch.midButton,break_done_touch.rightButton,break_done_keyboard.keys,list4_trials.thisRepN,list4_trials.thisTrialN,list4_trials.thisN,list4_trials.thisIndex,list4_trials.ran,list_id,item_type,string,font,stim_file,key_resp_probe.rt,key_resp_probe.duration,break_done_keyboard.rt,break_done_keyboard.duration,End.started,End.stopped
list4,,0.6376,0.6377,32061,001,2025-10-21_14h37.44.801,HW_LDT_1,2024.2.4,MacIntel,107.5268817,,,,,,,,,,,,,,,,,,,,,,,,,,,,,,,,,,,,,,,,,,,,,,,,,,,,,,,,,,,,,,,,,,,,,,,,,,,,,,,,,,,,,,,,,,,,,,,,,,,,,,,,,,,,,,,,,,,,,,
,,,,32061,001,2025-10-21_14h37.44.801,HW_LDT_1,2024.2.4,MacIntel,107.5268817,0.6578,16.3684,space,15.6889,,-0.064686673,-0.395329034,0,0,0,0,0,0,0,1,1,instructions,"INSTRUCTIONS
At the start of each trial, look at the plus sign  (+) in the center of the screen.  This tells you that a trial is about to begin and where to look. Second, the plus sign will disappear and a string of letters will appear. Your task is to determine if the string of letters is a word or not. If the item is a word press the M key (on keyboard)  or touch the word button (phone/tablet).  If the item is not a word,  press the  Z key (on keyboard)  or touch the nonword button (on phone/tablet). The items will be presented for a short time. 
Press the space bar or touch  continue.",0,,,,,,,,,,,,,,,,,,,,,,,,,,,,,,,,,,,,,,,,,,,,,,,,,,,,,,,,,,,,,,,,,,,,,,,,,,,,,,,,,,,,,,,,,,,,,,,,,,,
,,,,32061,001,2025-10-21_14h37.44.801,HW_LDT_1,2024.2.4,MacIntel,107.5268817,16.3698,23.7806,space,7.3572,,-0.064686673,-0.395329034,0,0,0,0,1,1,1,1,2,instructions,"If your device has a keyboard, press the 'Z' key for nonwords and the 'M' key for words.





Press the space bar or touch the button below to continue.",0,keyboard-example.gif,,,,,,,,,,,,,,,,,,,,,,,,,,,,,,,,,,,,,,,,,,,,,,,,,,,,,,,,,,,,,,,,,,,,,,,,,,,,,,,,,,,,,,,,,,,,,,,,,,
,,,,32061,001,2025-10-21_14h37.44.801,HW_LDT_1,2024.2.4,MacIntel,107.5268817,23.7819,25.601,space,1.7831,,-0.064686673,-0.395329034,0,0,0,0,2,2,2,1,3,instructions,"If you are using a touchscreen only device, use the buttons on the screen. Do not use the mouse.





Press the space bar or touch the button below to continue.",0,touchscreen-example.gif,,,,,,,,,,,,,,,,,,,,,,,,,,,,,,,,,,,,,,,,,,,,,,,,,,,,,,,,,,,,,,,,,,,,,,,,,,,,,,,,,,,,,,,,,,,,,,,,,,
,,,,32061,001,2025-10-21_14h37.44.801,HW_LDT_1,2024.2.4,MacIntel,107.5268817,25.6023,27.4345,space,1.8187,,-0.064686673,-0.395329034,0,0,0,0,3,3,3,1,4,instructions,"It is very important that you respond as quickly and accurately as possible, as each letter string will only be on the screen for two seconds. If you do not respond within this time, the message 'Too slow!' will be displayed and the experiment will progress to the next letter string. The first 20 trials will be practice trials and you will receive feedback on your answers. 

Press the space bar or touch the button below to start the practice trials.",0,,,,,,,,,,,,,,,,,,,,,,,,,,,,,,,,,,,,,,,,,,,,,,,,,,,,,,,,,,,,,,,,,,,,,,,,,,,,,,,,,,,,,,,,,,,,,,,,,,,
,,,,32061,001,2025-10-21_14h37.44.801,HW_LDT_1,2024.2.4,MacIntel,107.5268817,,,,,,,,,,,,,,,,,,,,,27.4587,27.6338,27.6341,28.1348,28.135,29.1846,z,1,1.0307,,[],[],[],[],[],[],[],1.0307,1,29.1849,29.6808,0,0,0,14,1,1015,NW,UN,16,miaber,THRALE,z,,,,,,,,,,,,,,,,,,,,,,,,,,,,,,,,,,,,,,,,,,,,,,,,,,,,,,,,,,,,,,,,,
,,,,32061,001,2025-10-21_14h37.44.801,HW_LDT_1,2024.2.4,MacIntel,107.5268817,,,,,,,,,,,,,,,,,,,,,29.6819,29.8804,29.8805,30.3766,30.3775,31.3719,m,0,0.9831,,[],[],[],[],[],[],[],0.9831,0,31.3725,31.8724,0,1,1,10,1,1011,NW,"ID",16,inlade,INLADE,z,,,,,,,,,,,,,,,,,,,,,,,,,,,,,,,,,,,,,,,,,,,,,,,,,,,,,,,,,,,,,,,,,
,,,,32061,001,2025-10-21_14h37.44.801,HW_LDT_1,2024.2.4,MacIntel,107.5268817,,,,,,,,,,,,,,,,,,,,,31.8736,32.0713,32.0715,32.5722,32.573,33.5302,z,1,0.9409,,[],[],[],[],[],[],[],0.9409,1,33.5306,34.0296,0,2,2,13,1,1014,NW,UN,33,winfer,ROUPET,z,,,,,,,,,,,,,,,,,,,,,,,,,,,,,,,,,,,,,,,,,,,,,,,,,,,,,,,,,,,,,,,,,
,,,,32061,001,2025-10-21_14h37.44.801,HW_LDT_1,2024.2.4,MacIntel,107.5268817,,,,,,,,,,,,,,,,,,,,,34.0307,34.2303,34.2305,34.7301,34.731,35.2959,m,1,0.5505,,[],[],[],[],[],[],[],0.5505,1,35.296,35.7972,0,3,3,1,1,1002,WORD,"ID",33,adjust,ADJUST,m,,,,,,,,,,,,,,,,,,,,,,,,,,,,,,,,,,,,,,,,,,,,,,,,,,,,,,,,,,,,,,,,,
,,,,32061,001,2025-10-21_14h37.44.801,HW_LDT_1,2024.2.4,MacIntel,107.5268817,,,,,,,,,,,,,,,,,,,,,35.7983,35.9967,35.9967,36.4968,36.4979,37.1553,m,1,0.6421,,[],[],[],[],[],[],[],0.6421,1,37.1555,37.6557,0,4,4,5,1,1006,WORD,UN,33,frenzy,OBTAIN,m,,,,,,,,,,,,,,,,,,,,,,,,,,,,,,,,,,,,,,,,,,,,,,,,,,,,,,,,,,,,,,,,,
,,,,32061,001,2025-10-21_14h37.44.801,HW_LDT_1,2024.2.4,MacIntel,107.5268817,,,,,,,,,,,,,,,,,,,,,37.6568,37.8556,37.8557,38.3554,38.3563,38.8886,m,1,0.5204,,[],[],[],[],[],[],[],0.5204,1,38.8888,39.3888,0,5,5,4,1,1005,WORD,UN,33,abound,SQUEAK,m,,,,,,,,,,,,,,,,,,,,,,,,,,,,,,,,,,,,,,,,,,,,,,,,,,,,,,,,,,,,,,,,,
,,,,32061,001,2025-10-21_14h37.44.801,HW_LDT_1,2024.2.4,MacIntel,107.5268817,,,,,,,,,,,,,,,,,,,,,39.3901,39.5885,39.5886,40.089,40.0899,40.8137,m,1,0.7102,,[],[],[],[],[],[],[],0.7102,1,40.8138,41.3139,0,6,6,0,1,1001,WORD,"ID",33,utopia,UTOPIA,m,,,,,,,,,,,,,,,,,,,,,,,,,,,,,,,,,,,,,,,,,,,,,,,,,,,,,,,,,,,,,,,,,
,,,,32061,001,2025-10-21_14h37.44.801,HW_LDT_1,2024.2.4,MacIntel,107.5268817,,,,,,,,,,,,,,,,,,,,,41.3153,41.5138,41.5138,42.0135,42.0142,42.7135,z,1,0.6862,,[],[],[],[],[],[],[],0.6862,1,42.7136,43.2137,0,7,7,15,1,1016,NW,UN,16,mushed,WHAISE,z,,,,,,,,,,,,,,,,,,,,,,,,,,,,,,,,,,,,,,,,,,,,,,,,,,,,,,,,,,,,,,,,,
,,,,32061,001,2025-10-21_14h37.44.801,HW_LDT_1,2024.2.4,MacIntel,107.5268817,,,,,,,,,,,,,,,,,,,,,43.2147,43.4138,43.4139,43.9133,43.9142,44.7718,z,1,0.8412,,[],[],[],[],[],[],[],0.8412,1,44.7719,45.2717,0,8,8,9,1,1010,NW,"ID",33,fariny,FARINY,z,,,,,,,,,,,,,,,,,,,,,,,,,,,,,,,,,,,,,,,,,,,,,,,,,,,,,,,,,,,,,,,,,
,,,,32061,001,2025-10-21_14h37.44.801,HW_LDT_1,2024.2.4,MacIntel,107.5268817,,,,,,,,,,,,,,,,,,,,,45.2723,45.472,45.472,45.9722,45.973,46.6968,m,1,0.7117,,[],[],[],[],[],[],[],0.7117,1,46.697,47.1969,0,9,9,7,1,1008,WORD,UN,16,hurdle,VOLUME,m,,,,,,,,,,,,,,,,,,,,,,,,,,,,,,,,,,,,,,,,,,,,,,,,,,,,,,,,,,,,,,,,,
,,,,32061,001,2025-10-21_14h37.44.801,HW_LDT_1,2024.2.4,MacIntel,107.5268817,,,,,,,,,,,,,,,,,,,,,47.1974,47.3974,47.3974,47.8964,47.8973,48.5637,z,1,0.6502,,[],[],[],[],[],[],[],0.6502,1,48.5638,49.0639,0,10,10,11,1,1012,NW,"ID",16,rashet,RASHET,z,,,,,,,,,,,,,,,,,,,,,,,,,,,,,,,,,,,,,,,,,,,,,,,,,,,,,,,,,,,,,,,,,
,,,,32061,001,2025-10-21_14h37.44.801,HW_LDT_1,2024.2.4,MacIntel,107.5268817,,,,,,,,,,,,,,,,,,,,,49.0651,49.2639,49.2639,49.7634,49.7643,50.4552,m,0,0.675,,[],[],[],[],[],[],[],0.675,0,50.4556,50.9554,0,11,11,12,1,1013,NW,UN,33,adveil,SPRINY,z,,,,,,,,,,,,,,,,,,,,,,,,,,,,,,,,,,,,,,,,,,,,,,,,,,,,,,,,,,,,,,,,,
,,,,32061,001,2025-10-21_14h37.44.801,HW_LDT_1,2024.2.4,MacIntel,107.5268817,,,,,,,,,,,,,,,,,,,,,50.9566,51.1555,51.1555,51.6554,51.6563,52.2886,m,1,0.6184,,[],[],[],[],[],[],[],0.6184,1,52.2892,52.7888,0,12,12,2,1,1003,WORD,"ID",16,almond,ALMOND,m,,,,,,,,,,,,,,,,,,,,,,,,,,,,,,,,,,,,,,,,,,,,,,,,,,,,,,,,,,,,,,,,,
,,,,32061,001,2025-10-21_14h37.44.801,HW_LDT_1,2024.2.4,MacIntel,107.5268817,,,,,,,,,,,,,,,,,,,,,52.7899,52.9887,52.9888,53.4886,53.4895,54.0804,m,1,0.576,,[],[],[],[],[],[],[],0.576,1,54.0804,54.5797,0,13,13,6,1,1007,WORD,UN,16,tropic,ZOMBIE,m,,,,,,,,,,,,,,,,,,,,,,,,,,,,,,,,,,,,,,,,,,,,,,,,,,,,,,,,,,,,,,,,,
,,,,32061,001,2025-10-21_14h37.44.801,HW_LDT_1,2024.2.4,MacIntel,107.5268817,,,,,,,,,,,,,,,,,,,,,54.5808,54.7803,54.7803,55.2807,55.2813,55.9135,z,1,0.6173,,[],[],[],[],[],[],[],0.6173,1,55.9136,56.4137,0,14,14,8,1,1009,NW,"ID",33,aslert,ASLERT,z,,,,,,,,,,,,,,,,,,,,,,,,,,,,,,,,,,,,,,,,,,,,,,,,,,,,,,,,,,,,,,,,,
,,,,32061,001,2025-10-21_14h37.44.801,HW_LDT_1,2024.2.4,MacIntel,107.5268817,,,,,,,,,,,,,,,,,,,,,56.4148,56.6137,56.6137,57.1137,57.115,57.8051,m,1,0.6761,,[],[],[],[],[],[],[],0.6761,1,57.8053,58.3053,0,15,15,3,1,1004,WORD,"ID",16,matrix,MATRIX,m,,,,,,,,,,,,,,,,,,,,,,,,,,,,,,,,,,,,,,,,,,,,,,,,,,,,,,,,,,,,,,,,,
,,,,32061,001,2025-10-21_14h37.44.801,HW_LDT_1,2024.2.4,MacIntel,107.5268817,,,,,,,,,,,,,,,,1,end_of_practice,"You have completed the practice trials. During the experimental trials, you will not receive feedback. On some trials you will be asked to report whether the item you just saw was in cursive or print. 
Before you begin, please ensure that you are in a comfortable and quiet location and will not be disturbed for about 15 minutes, as we cannot use your data if you do not complete all the trials. 
 When you are ready to start the experimental trials, please press space or touch the button below.",,,,,,,,,,,,,,,,,,,,,,,,,,,,,,,,,,,,58.3099,65.8961,,-0.067253638,-0.406361607,1,0,0,instr_done_button_3,0,0,0,0,1,,,,,,,,,,,,,,,,,,,,,,,,,,,,,,,,,,,,,,,,,,,,,,,,,,,
,,,,32061,001,2025-10-21_14h37.44.801,HW_LDT_1,2024.2.4,MacIntel,107.5268817,,,,,,,,,,,,,,,,,,,,,65.9064,66.0958,66.0958,66.5962,,,,,,,,,,,,,,0.6635,1,,,,,,,,,,,,,,m,,,,,,,,,,,,,,,1,0,66.5975,67.2673,m,1,0.6635,,[],[],[],[],[],[],[],67.2676,69.2641,69.2644,69.2672,[],[],[],[],[],[],[],,69.2674,69.2687,-0.067253638,-0.406361607,0,0,0,,0,0,0,121,1,4,word,MISTAKE,print,mistake_p.png,,,,,,
,,,,32061,001,2025-10-21_14h37.44.801,HW_LDT_1,2024.2.4,MacIntel,107.5268817,,,,,,,,,,,,,,,,,,,,,69.2695,69.4633,69.4633,69.9632,,,,,,,,,,,,,,0.4951,1,,,,,,,,,,,,,,m,,,,,,,,,,,,,,,2,0,69.9638,70.4634,m,1,0.4951,,[],[],[],[],[],[],[],70.4634,72.463,72.463,72.4633,[],[],[],[],[],[],[],,72.4633,72.4635,-0.067253638,-0.406361607,0,0,0,,0,1,1,156,1,4,word,TRIBUTE,print,tribute_p.png,,,,,,
,,,,32061,001,2025-10-21_14h37.44.801,HW_LDT_1,2024.2.4,MacIntel,107.5268817,,,,,,,,,,,,,,,,,,,,,72.4648,72.6589,72.659,73.159,,,,,,,,,,,,,,0.5534,1,,,,,,,,,,,,,,m,,,,,,,,,,,,,,,3,0,73.1597,73.7176,m,1,0.5534,,[],[],[],[],[],[],[],73.7176,75.7132,75.7132,75.7134,[],[],[],[],[],[],[],,75.7134,75.7135,-0.067253638,-0.406361607,0,0,0,,0,2,2,126,1,4,word,OPTIMAL,print,optimal_p.png,,,,,,
,,,,32061,001,2025-10-21_14h37.44.801,HW_LDT_1,2024.2.4,MacIntel,107.5268817,,,,,,,,,,,,,,,,,,,,,75.7146,75.9135,75.9135,76.4137,,,,,,,,,,,,,,2.5594,0,,,,,,,,,,,,,,z,,,,,,,,,,,,,,,4,0,76.4145,78.9757,m,0,2.5594,,[],[],[],[],[],[],[],78.9758,80.9704,80.9705,80.9707,[],[],[],[],[],[],[],,80.9707,80.9708,-0.067253638,-0.406361607,0,0,0,,0,3,3,1,1,4,RL,afaneur,cursive,afaneur_c.png,,,,,,
,,,,32061,001,2025-10-21_14h37.44.801,HW_LDT_1,2024.2.4,MacIntel,107.5268817,,,,,,,,,,,,,,,,,,,,,80.9722,81.1708,81.1709,81.6717,,,,,,,,,,,,,,0.6864,1,,,,,,,,,,,,,,m,,,,,,,,,,,,,,,5,0,81.6722,82.3628,m,1,0.6864,,[],[],[],[],[],[],[],82.3629,84.3617,84.3617,84.3617,[],[],[],[],[],[],[],,84.3617,84.3618,-0.067253638,-0.406361607,0,0,0,,0,4,4,148,1,4,word,SALINE,print,saline_p.png,,,,,,
,,,,32061,001,2025-10-21_14h37.44.801,HW_LDT_1,2024.2.4,MacIntel,107.5268817,,,,,,,,,,,,,,,,,,,,,84.3621,84.5632,84.5632,85.0552,,,,,,,,,,,,,,1.6906,1,,,,,,,,,,,,,,z,,,,,,,,,,,,,,,6,0,85.0558,86.7471,z,1,1.6906,,[],[],[],[],[],[],[],86.7472,88.7469,88.7471,88.7473,[],[],[],[],[],[],[],,88.7473,88.7474,-0.067253638,-0.406361607,0,0,0,,0,5,5,18,1,4,RL,disluge,print,disluge_p.png,,,,,,
,,,,32061,001,2025-10-21_14h37.44.801,HW_LDT_1,2024.2.4,MacIntel,107.5268817,,,,,,,,,,,,,,,,,,,,,88.7484,88.9469,88.9469,89.447,,,,,,,,,,,,,,0.5617,1,,,,,,,,,,,,,,z,,,,,,,,,,,,,,,7,0,89.4475,90.013,z,1,0.5617,,[],[],[],[],[],[],[],90.0131,92.0136,92.0137,92.014,[],[],[],[],[],[],[],,92.014,92.0141,-0.067253638,-0.406361607,0,0,0,,0,6,6,25,1,4,RL,macise,print,macise_p.png,,,,,,
,,,,32061,001,2025-10-21_14h37.44.801,HW_LDT_1,2024.2.4,MacIntel,107.5268817,,,,,,,,,,,,,,,,,,,,,92.0153,92.2132,92.2132,92.713,,,,,,,,,,,,,,3.2205,1,,,,,,,,,,,,,,z,,,,,,,,,,,,,,,8,0,92.7133,95.9377,z,1,3.2205,,[],[],[],[],[],[],[],95.9378,97.9381,97.9382,97.9384,[],[],[],[],[],[],[],,97.9384,97.9384,-0.067253638,-0.406361607,0,0,0,,0,7,7,46,1,4,RL,skofen,cursive,skofen_c.png,,,,,,
,,,,32061,001,2025-10-21_14h37.44.801,HW_LDT_1,2024.2.4,MacIntel,107.5268817,,,,,,,,,,,,,,,,,,,,,97.9395,98.1381,98.1382,98.6382,,,,,,,,,,,,,,0.5796,1,,,,,,,,,,,,,,m,,,,,,,,,,,,,,,9,1,98.6384,99.2215,m,1,0.5796,,[],[],[],[],[],[],[],99.2216,101.222,101.222,106.2468,[],[],[],[],[],[],[],m,106.2469,106.2469,-0.067253638,-0.406361607,0,0,0,,0,8,8,117,1,4,word,MARINE,print,marine_p.png,5.0206,,,,,
,,,,32061,001,2025-10-21_14h37.44.801,HW_LDT_1,2024.2.4,MacIntel,107.5268817,,,,,,,,,,,,,,,,,,,,,106.2476,106.4428,106.4428,106.9423,,,,,,,,,,,,,,0.9511,0,,,,,,,,,,,,,,z,,,,,,,,,,,,,,,10,0,106.9431,107.9009,m,0,0.9511,,[],[],[],[],[],[],[],107.9009,109.9001,109.9002,109.9005,[],[],[],[],[],[],[],,109.9005,109.9007,-0.067253638,-0.406361607,0,0,0,,0,9,9,69,1,4,TL,quafily,print,quafily_p.png,,,,,,
,,,,32061,001,2025-10-21_14h37.44.801,HW_LDT_1,2024.2.4,MacIntel,107.5268817,,,,,,,,,,,,,,,,,,,,,109.9018,110.0953,110.0953,110.5966,,,,,,,,,,,,,,0.7051,1,,,,,,,,,,,,,,m,,,,,,,,,,,,,,,11,0,110.5971,111.303,m,1,0.7051,,[],[],[],[],[],[],[],111.303,113.3049,113.3049,113.305,[],[],[],[],[],[],[],,113.305,113.3051,-0.067253638,-0.406361607,0,0,0,,0,10,10,141,1,4,word,RELIGION,print,religion_p.png,,,,,,
,,,,32061,001,2025-10-21_14h37.44.801,HW_LDT_1,2024.2.4,MacIntel,107.5268817,,,,,,,,,,,,,,,,,,,,,113.3061,113.501,113.5011,114.0001,,,,,,,,,,,,,,0.8636,1,,,,,,,,,,,,,,m,,,,,,,,,,,,,,,12,0,114.0006,114.8669,m,1,0.8636,,[],[],[],[],[],[],[],114.867,116.8634,116.8634,116.8637,[],[],[],[],[],[],[],,116.8638,116.8639,-0.067253638,-0.406361607,0,0,0,,0,11,11,82,1,4,word,AMATEUR,cursive,amateur_c.png,,,,,,
,,,,32061,001,2025-10-21_14h37.44.801,HW_LDT_1,2024.2.4,MacIntel,107.5268817,,,,,,,,,,,,,,,,,,,,,116.8648,117.0627,117.0628,117.5635,,,,,,,,,,,,,,0.4786,0,,,,,,,,,,,,,,z,,,,,,,,,,,,,,,13,0,117.5641,118.0466,m,0,0.4786,,[],[],[],[],[],[],[],118.0467,120.0469,120.047,120.0472,[],[],[],[],[],[],[],,120.0473,120.0474,-0.067253638,-0.406361607,0,0,0,,0,12,12,71,1,4,TL,racidal,print,racidal_p.png,,,,,,
,,,,32061,001,2025-10-21_14h37.44.801,HW_LDT_1,2024.2.4,MacIntel,107.5268817,,,,,,,,,,,,,,,,,,,,,120.0485,120.2461,120.2461,120.7464,,,,,,,,,,,,,,0.4542,0,,,,,,,,,,,,,,z,,,,,,,,,,,,,,,14,1,120.7467,121.2049,m,0,0.4542,,[],[],[],[],[],[],[],121.2049,123.2004,123.2004,124.658,[],[],[],[],[],[],[],m,124.6581,124.6582,-0.067253638,-0.406361607,0,0,0,,0,13,13,67,1,4,TL,polupar,print,polupar_p.png,1.4524,,,,,
,,,,32061,001,2025-10-21_14h37.44.801,HW_LDT_1,2024.2.4,MacIntel,107.5268817,,,,,,,,,,,,,,,,,,,,,124.6589,124.8584,124.8585,125.3559,,,,,,,,,,,,,,0.8981,1,,,,,,,,,,,,,,z,,,,,,,,,,,,,,,15,1,125.3563,126.2568,z,1,0.8981,,[],[],[],[],[],[],[],126.2571,128.2551,128.2552,132.6266,[],[],[],[],[],[],[],z,132.6267,132.6267,-0.067253638,-0.406361607,0,0,0,,0,14,14,59,1,4,TL,fornute,cursive,fornute_c.png,4.3711,,,,,
,,,,32061,001,2025-10-21_14h37.44.801,HW_LDT_1,2024.2.4,MacIntel,107.5268817,,,,,,,,,,,,,,,,,,,,,132.6277,132.8218,132.8219,133.3259,,,,,,,,,,,,,,1.5935,1,,,,,,,,,,,,,,z,,,,,,,,,,,,,,,16,0,133.3267,134.9248,z,1,1.5935,,[],[],[],[],[],[],[],134.925,136.9212,136.9213,136.9214,[],[],[],[],[],[],[],,136.9214,136.9215,-0.067253638,-0.406361607,0,0,0,,0,15,15,31,1,4,RL,orimipal,print,orimipal_p.png,,,,,,
,,,,32061,001,2025-10-21_14h37.44.801,HW_LDT_1,2024.2.4,MacIntel,107.5268817,,,,,,,,,,,,,,,,,,,,,136.9223,137.122,137.122,137.6175,,,,,,,,,,,,,,1.6492,1,,,,,,,,,,,,,,m,,,,,,,,,,,,,,,17,0,137.6181,139.2713,m,1,1.6492,,[],[],[],[],[],[],[],139.2714,141.2657,141.2657,141.2659,[],[],[],[],[],[],[],,141.2659,141.266,-0.067253638,-0.406361607,0,0,0,,0,16,16,88,1,4,word,CAMERA,print,camera_p.png,,,,,,
,,,,32061,001,2025-10-21_14h37.44.801,HW_LDT_1,2024.2.4,MacIntel,107.5268817,,,,,,,,,,,,,,,,,,,,,141.2669,141.4634,141.4634,141.964,,,,,,,,,,,,,,0.664,1,,,,,,,,,,,,,,m,,,,,,,,,,,,,,,18,0,141.9644,142.6295,m,1,0.664,,[],[],[],[],[],[],[],142.6295,144.6293,144.6293,144.6295,[],[],[],[],[],[],[],,144.6295,144.6297,-0.067253638,-0.406361607,0,0,0,,0,17,17,155,1,4,word,STRATEGY,print,strategy_p.png,,,,,,
,,,,32061,001,2025-10-21_14h37.44.801,HW_LDT_1,2024.2.4,MacIntel,107.5268817,,,,,,,,,,,,,,,,,,,,,144.631,144.8299,144.8299,145.3299,,,,,,,,,,,,,,0.3025,1,,,,,,,,,,,,,,m,,,,,,,,,,,,,,,19,0,145.3306,145.6379,m,1,0.3025,,[],[],[],[],[],[],[],145.638,147.639,147.6391,147.6392,[],[],[],[],[],[],[],,147.6392,147.6394,-0.067253638,-0.406361607,0,0,0,,0,18,18,142,1,4,word,REMOTE,cursive,remote_c.png,,,,,,
,,,,32061,001,2025-10-21_14h37.44.801,HW_LDT_1,2024.2.4,MacIntel,107.5268817,,,,,,,,,,,,,,,,,,,,,147.6409,147.8341,147.8342,148.3342,,,,,,,,,,,,,,1.2096,0,,,,,,,,,,,,,,z,,,,,,,,,,,,,,,20,0,148.3348,149.5464,m,0,1.2096,,[],[],[],[],[],[],[],149.5466,151.5425,151.5425,151.5427,[],[],[],[],[],[],[],,151.5428,151.5429,-0.067253638,-0.406361607,0,0,0,,0,19,19,16,1,4,RL,desifate,cursive,desifate_c.png,,,,,,
,,,,32061,001,2025-10-21_14h37.44.801,HW_LDT_1,2024.2.4,MacIntel,107.5268817,,,,,,,,,,,,,,,,,,,,,151.5439,151.7424,151.7424,152.2425,,,,,,,,,,,,,,0.6292,0,,,,,,,,,,,,,,z,,,,,,,,,,,,,,,21,0,152.243,152.8757,m,0,0.6292,,[],[],[],[],[],[],[],152.8757,154.876,154.8762,154.8763,[],[],[],[],[],[],[],,154.8764,154.8764,-0.067253638,-0.406361607,0,0,0,,0,20,20,36,1,4,RL,rabigly,cursive,rabigly_c.png,,,,,,
,,,,32061,001,2025-10-21_14h37.44.801,HW_LDT_1,2024.2.4,MacIntel,107.5268817,,,,,,,,,,,,,,,,,,,,,154.8773,155.0756,155.0756,155.5758,,,,,,,,,,,,,,0.5531,0,,,,,,,,,,,,,,m,,,,,,,,,,,,,,,22,0,155.5762,156.1339,z,0,0.5531,,[],[],[],[],[],[],[],156.1341,158.1334,158.1334,158.1337,[],[],[],[],[],[],[],,158.1337,158.1338,-0.067253638,-0.406361607,0,0,0,,0,21,21,125,1,4,word,OPERATOR,print,operator_p.png,,,,,,
,,,,32061,001,2025-10-21_14h37.44.801,HW_LDT_1,2024.2.4,MacIntel,107.5268817,,,,,,,,,,,,,,,,,,,,,158.1346,158.3335,158.3336,158.8335,,,,,,,,,,,,,,0.663,1,,,,,,,,,,,,,,m,,,,,,,,,,,,,,,23,1,158.8337,159.4997,m,1,0.663,,[],[],[],[],[],[],[],159.4998,161.5007,161.5007,163.3339,[],[],[],[],[],[],[],m,163.334,163.334,-0.067253638,-0.406361607,0,0,0,,0,22,22,111,1,4,word,INDICATE,print,indicate_p.png,1.831,,,,,
,,,,32061,001,2025-10-21_14h37.44.801,HW_LDT_1,2024.2.4,MacIntel,107.5268817,,,,,,,,,,,,,,,,,,,,,163.3348,163.5338,163.5338,164.0338,,,,,,,,,,,,,,0.722,0,,,,,,,,,,,,,,m,,,,,,,,,,,,,,,24,0,164.0339,164.7581,z,0,0.722,,[],[],[],[],[],[],[],164.7581,166.7549,166.7549,166.7551,[],[],[],[],[],[],[],,166.7551,166.7551,-0.067253638,-0.406361607,0,0,0,,0,23,23,85,1,4,word,BENEFIT,cursive,benefit_c.png,,,,,,
,,,,32061,001,2025-10-21_14h37.44.801,HW_LDT_1,2024.2.4,MacIntel,107.5268817,,,,,,,,,,,,,,,,,,,,,166.7561,166.955,166.955,167.4546,,,,,,,,,,,,,,0.6718,1,,,,,,,,,,,,,,z,,,,,,,,,,,,,,,25,0,167.4548,168.1298,z,1,0.6718,,[],[],[],[],[],[],[],168.1298,170.1305,170.1306,170.1307,[],[],[],[],[],[],[],,170.1308,170.1309,-0.067253638,-0.406361607,0,0,0,,0,24,24,75,1,4,TL,sanile,print,sanile_p.png,,,,,,
,,,,32061,001,2025-10-21_14h37.44.801,HW_LDT_1,2024.2.4,MacIntel,107.5268817,,,,,,,,,,,,,,,,,,,,,170.1322,170.3303,170.3303,170.8297,,,,,,,,,,,,,,0.7144,1,,,,,,,,,,,,,,z,,,,,,,,,,,,,,,26,0,170.8299,171.5463,z,1,0.7144,,[],[],[],[],[],[],[],171.5464,173.5467,173.5467,173.5469,[],[],[],[],[],[],[],,173.5469,173.5471,-0.067253638,-0.406361607,0,0,0,,0,25,25,76,1,4,TL,setanor,print,setanor_p.png,,,,,,
,,,,32061,001,2025-10-21_14h37.44.801,HW_LDT_1,2024.2.4,MacIntel,107.5268817,,,,,,,,,,,,,,,,,,,,,173.5485,173.7464,173.7465,174.2468,,,,,,,,,,,,,,0.597,1,,,,,,,,,,,,,,m,,,,,,,,,,,,,,,27,0,174.2472,174.8466,m,1,0.597,,[],[],[],[],[],[],[],174.8466,176.8467,176.8468,176.8469,[],[],[],[],[],[],[],,176.847,176.847,-0.067253638,-0.406361607,0,0,0,,0,26,26,150,1,4,word,SENTIMENT,print,sentiment_p.png,,,,,,
,,,,32061,001,2025-10-21_14h37.44.801,HW_LDT_1,2024.2.4,MacIntel,107.5268817,,,,,,,,,,,,,,,,,,,,,176.848,177.0469,177.0469,177.5468,,,,,,,,,,,,,,0.7616,1,,,,,,,,,,,,,,z,,,,,,,,,,,,,,,28,0,177.5474,178.313,z,1,0.7616,,[],[],[],[],[],[],[],178.3131,180.3132,180.3133,180.3135,[],[],[],[],[],[],[],,180.3135,180.3136,-0.067253638,-0.406361607,0,0,0,,0,27,27,10,1,4,RL,carminal,cursive,carminal_c.png,,,,,,
,,,,32061,001,2025-10-21_14h37.44.801,HW_LDT_1,2024.2.4,MacIntel,107.5268817,,,,,,,,,,,,,,,,,,,,,180.3148,180.5126,180.5126,181.009,,,,,,,,,,,,,,0.5486,0,,,,,,,,,,,,,,z,,,,,,,,,,,,,,,29,0,181.0097,181.5628,m,0,0.5486,,[],[],[],[],[],[],[],181.5628,183.561,183.5611,183.5612,[],[],[],[],[],[],[],,183.5612,183.5613,-0.067253638,-0.406361607,0,0,0,,0,28,28,78,1,4,TL,stragety,print,stragety_p.png,,,,,,
,,,,32061,001,2025-10-21_14h37.44.801,HW_LDT_1,2024.2.4,MacIntel,107.5268817,,,,,,,,,,,,,,,,,,,,,183.5626,183.763,183.763,184.2588,,,,,,,,,,,,,,0.5601,1,,,,,,,,,,,,,,m,,,,,,,,,,,,,,,30,0,184.2592,184.8248,m,1,0.5601,,[],[],[],[],[],[],[],184.8249,186.8249,186.8251,186.8253,[],[],[],[],[],[],[],,186.8253,186.8254,-0.067253638,-0.406361607,0,0,0,,0,29,29,135,1,4,word,QUALITY,print,quality_p.png,,,,,,
,,,,32061,001,2025-10-21_14h37.44.801,HW_LDT_1,2024.2.4,MacIntel,107.5268817,,,,,,,,,,,,,,,,,,,,,186.8263,187.0212,187.0212,187.5244,,,,,,,,,,,,,,0.4952,1,,,,,,,,,,,,,,z,,,,,,,,,,,,,,,31,0,187.5249,188.0258,z,1,0.4952,,[],[],[],[],[],[],[],188.0259,190.0218,190.0219,190.022,[],[],[],[],[],[],[],,190.0221,190.0222,-0.067253638,-0.406361607,0,0,0,,0,30,30,37,1,4,RL,renutal,cursive,renutal_c.png,,,,,,
,,,,32061,001,2025-10-21_14h37.44.801,HW_LDT_1,2024.2.4,MacIntel,107.5268817,,,,,,,,,,,,,,,,,,,,,190.0234,190.217,190.217,190.7164,,,,,,,,,,,,,,0.7658,1,,,,,,,,,,,,,,z,,,,,,,,,,,,,,,32,0,190.7171,191.4869,z,1,0.7658,,[],[],[],[],[],[],[],191.487,193.484,193.4841,193.4841,[],[],[],[],[],[],[],,193.4842,193.4843,-0.067253638,-0.406361607,0,0,0,,0,31,31,65,1,4,TL,orepator,print,orepator_p.png,,,,,,
,,,,32061,001,2025-10-21_14h37.44.801,HW_LDT_1,2024.2.4,MacIntel,107.5268817,,,,,,,,,,,,,,,,,,,,,193.4857,193.6812,193.6812,194.1828,,,,,,,,,,,,,,0.6411,1,,,,,,,,,,,,,,z,,,,,,,,,,,,,,,33,0,194.1835,194.8286,z,1,0.6411,,[],[],[],[],[],[],[],194.8287,196.827,196.8272,196.8273,[],[],[],[],[],[],[],,196.8273,196.8275,-0.067253638,-0.406361607,0,0,0,,0,32,32,72,1,4,TL,relugar,cursive,relugar_c.png,,,,,,
,,,,32061,001,2025-10-21_14h37.44.801,HW_LDT_1,2024.2.4,MacIntel,107.5268817,,,,,,,,,,,,,,,,,,,,,196.8285,197.0295,197.0296,197.5211,,,,,,,,,,,,,,0.5551,0,,,,,,,,,,,,,,m,,,,,,,,,,,,,,,34,0,197.5218,198.0795,z,0,0.5551,,[],[],[],[],[],[],[],198.0795,200.0798,200.0799,200.0801,[],[],[],[],[],[],[],,200.0801,200.0801,-0.067253638,-0.406361607,0,0,0,,0,33,33,104,1,4,word,DOMINANT,cursive,dominant_c.png,,,,,,
,,,,32061,001,2025-10-21_14h37.44.801,HW_LDT_1,2024.2.4,MacIntel,107.5268817,,,,,,,,,,,,,,,,,,,,,200.0812,200.2801,200.2802,200.7799,,,,,,,,,,,,,,0.6526,1,,,,,,,,,,,,,,z,,,,,,,,,,,,,,,35,1,200.7804,201.4366,z,1,0.6526,,[],[],[],[],[],[],[],201.4366,203.4338,203.4339,205.1134,[],[],[],[],[],[],[],z,205.1135,205.1136,-0.067253638,-0.406361607,0,0,0,,0,34,34,44,1,4,RL,senvilent,print,senvilent_p.png,1.679,,,,,
,,,,32061,001,2025-10-21_14h37.44.801,HW_LDT_1,2024.2.4,MacIntel,107.5268817,,,,,,,,,,,,,,,,,,,,,205.1142,205.3133,205.3134,205.8133,,,,,,,,,,,,,,1.4437,1,,,,,,,,,,,,,,m,,,,,,,,,,,,,,,36,0,205.8139,207.2629,m,1,1.4437,,[],[],[],[],[],[],[],207.263,209.2631,209.2632,209.2632,[],[],[],[],[],[],[],,209.2632,209.2633,-0.067253638,-0.406361607,0,0,0,,0,35,35,116,1,4,word,MARGINAL,cursive,marginal_c.png,,,,,,
,,,,32061,001,2025-10-21_14h37.44.801,HW_LDT_1,2024.2.4,MacIntel,107.5268817,,,,,,,,,,,,,,,,,,,,,209.264,209.4632,209.4632,209.9632,,,,,,,,,,,,,,0.6368,1,,,,,,,,,,,,,,z,,,,,,,,,,,,,,,37,0,209.9636,210.6047,z,1,0.6368,,[],[],[],[],[],[],[],210.6048,212.6049,212.6049,212.6051,[],[],[],[],[],[],[],,212.6051,212.6052,-0.067253638,-0.406361607,0,0,0,,0,36,36,30,1,4,RL,nunewical,cursive,nunewical_c.png,,,,,,
,,,,32061,001,2025-10-21_14h37.44.801,HW_LDT_1,2024.2.4,MacIntel,107.5268817,,,,,,,,,,,,,,,,,,,,,212.6062,212.8049,212.8049,213.3044,,,,,,,,,,,,,,1.2752,1,,,,,,,,,,,,,,z,,,,,,,,,,,,,,,38,0,213.3046,214.5802,z,1,1.2752,,[],[],[],[],[],[],[],214.5802,216.5795,216.5795,216.5795,[],[],[],[],[],[],[],,216.5795,216.5795,-0.067253638,-0.406361607,0,0,0,,0,37,37,2,1,4,RL,asiral,cursive,asiral_c.png,,,,,,
,,,,32061,001,2025-10-21_14h37.44.801,HW_LDT_1,2024.2.4,MacIntel,107.5268817,,,,,,,,,,,,,,,,,,,,,216.5799,216.7798,216.7798,217.2799,,,,,,,,,,,,,,0.7851,1,,,,,,,,,,,,,,m,,,,,,,,,,,,,,,39,0,217.2803,218.0711,m,1,0.7851,,[],[],[],[],[],[],[],218.0711,220.0716,220.0717,220.0718,[],[],[],[],[],[],[],,220.0718,220.0719,-0.067253638,-0.406361607,0,0,0,,0,38,38,145,1,4,word,RESUME,print,resume_p.png,,,,,,
,,,,32061,001,2025-10-21_14h37.44.801,HW_LDT_1,2024.2.4,MacIntel,107.5268817,,,,,,,,,,,,,,,,,,,,,220.0728,220.2715,220.2716,220.7717,,,,,,,,,,,,,,0.6374,1,,,,,,,,,,,,,,m,,,,,,,,,,,,,,,40,0,220.7722,221.4121,m,1,0.6374,,[],[],[],[],[],[],[],221.4121,223.4132,223.4132,223.4134,[],[],[],[],[],[],[],,223.4134,223.4135,-0.067253638,-0.406361607,0,0,0,,0,39,39,80,1,4,word,ACADEMY,print,academy_p.png,,,,,,
,,,,32061,001,2025-10-21_14h37.44.801,HW_LDT_1,2024.2.4,MacIntel,107.5268817,,,,,,,,,,,,,,,,,,,,,223.4145,223.6098,223.6098,224.1081,,,,,,,,,,,,,,0.6958,1,,,,,,,,,,,,,,z,,,,,,,,,,,,,,,41,0,224.1085,224.8087,z,1,0.6958,,[],[],[],[],[],[],[],224.8087,226.8091,226.8092,226.8093,[],[],[],[],[],[],[],,226.8094,226.8095,-0.067253638,-0.406361607,0,0,0,,0,40,40,5,1,4,RL,bebine,print,bebine_p.png,,,,,,
,,,,32061,001,2025-10-21_14h37.44.801,HW_LDT_1,2024.2.4,MacIntel,107.5268817,,,,,,,,,,,,,,,,,,,,,226.8106,227.008,227.0081,227.5082,,,,,,,,,,,,,,0.6859,1,,,,,,,,,,,,,,z,,,,,,,,,,,,,,,42,0,227.5089,228.2003,z,1,0.6859,,[],[],[],[],[],[],[],228.2003,230.2004,230.2004,230.2005,[],[],[],[],[],[],[],,230.2005,230.2005,-0.067253638,-0.406361607,0,0,0,,0,41,41,57,1,4,TL,etidor,print,etidor_p.png,,,,,,
,,,,32061,001,2025-10-21_14h37.44.801,HW_LDT_1,2024.2.4,MacIntel,107.5268817,,,,,,,,,,,,,,,,,,,,,230.201,230.4,230.4,230.8985,,,,,,,,,,,,,,1.3097,1,,,,,,,,,,,,,,z,,,,,,,,,,,,,,,43,0,230.899,232.2128,z,1,1.3097,,[],[],[],[],[],[],[],232.2128,234.2085,234.2085,234.2086,[],[],[],[],[],[],[],,234.2086,234.2086,-0.067253638,-0.406361607,0,0,0,,0,42,42,22,1,4,RL,linedal,cursive,linedal_c.png,,,,,,
,,,,32061,001,2025-10-21_14h37.44.801,HW_LDT_1,2024.2.4,MacIntel,107.5268817,,,,,,,,,,,,,,,,,,,,,234.2091,234.4087,234.4087,234.9091,,,,,,,,,,,,,,0.7471,0,,,,,,,,,,,,,,z,,,,,,,,,,,,,,,44,0,234.9097,235.6577,m,0,0.7471,,[],[],[],[],[],[],[],235.6577,237.6516,237.6516,237.6518,[],[],[],[],[],[],[],,237.6519,237.6519,-0.067253638,-0.406361607,0,0,0,,0,43,43,73,1,4,TL,regilion,print,regilion_p.png,,,,,,
,,,,32061,001,2025-10-21_14h37.44.801,HW_LDT_1,2024.2.4,MacIntel,107.5268817,,,,,,,,,,,,,,,,,,,,,237.653,237.8529,237.8529,238.3528,,,,,,,,,,,,,,0.5707,1,,,,,,,,,,,,,,m,,,,,,,,,,,,,,,45,0,238.3532,238.9284,m,1,0.5707,,[],[],[],[],[],[],[],238.9285,240.9241,240.9242,240.9244,[],[],[],[],[],[],[],,240.9244,240.9245,-0.067253638,-0.406361607,0,0,0,,0,44,44,134,1,4,word,QUALIFY,print,qualify_p.png,,,,,,
,,,,32061,001,2025-10-21_14h37.44.801,HW_LDT_1,2024.2.4,MacIntel,107.5268817,,,,,,,,,,,,,,,,,,,,,240.9255,241.1216,241.1216,241.6247,,,,,,,,,,,,,,0.6459,1,,,,,,,,,,,,,,z,,,,,,,,,,,,,,,46,0,241.6253,242.2748,z,1,0.6459,,[],[],[],[],[],[],[],242.2749,244.2751,244.2752,244.2753,[],[],[],[],[],[],[],,244.2753,244.2754,-0.067253638,-0.406361607,0,0,0,,0,45,45,11,1,4,RL,clisimal,print,clisimal_p.png,,,,,,
,,,,32061,001,2025-10-21_14h37.44.801,HW_LDT_1,2024.2.4,MacIntel,107.5268817,,,,,,,,,,,,,,,,,,,,,244.2767,244.4755,244.4755,244.9754,,,,,,,,,,,,,,0.57,0,,,,,,,,,,,,,,m,,,,,,,,,,,,,,,47,0,244.9758,245.5513,z,0,0.57,,[],[],[],[],[],[],[],245.5515,247.5465,247.5465,247.5469,[],[],[],[],[],[],[],,247.5469,247.547,-0.067253638,-0.406361607,0,0,0,,0,46,46,101,1,4,word,DELICATE,cursive,delicate_c.png,,,,,,
,,,,32061,001,2025-10-21_14h37.44.801,HW_LDT_1,2024.2.4,MacIntel,107.5268817,,,,,,,,,,,,,,,,,,,,,247.5498,247.7424,247.7425,248.2442,,,,,,,,,,,,,,0.5001,1,,,,,,,,,,,,,,m,,,,,,,,,,,,,,,48,0,248.2451,248.7493,m,1,0.5001,,[],[],[],[],[],[],[],248.7494,250.7455,250.7455,250.7457,[],[],[],[],[],[],[],,250.7458,250.7459,-0.067253638,-0.406361607,0,0,0,,0,47,47,132,1,4,word,PROPOSAL,print,proposal_p.png,,,,,,
,,,,32061,001,2025-10-21_14h37.44.801,HW_LDT_1,2024.2.4,MacIntel,107.5268817,,,,,,,,,,,,,,,,,,,,,250.7467,250.9414,250.9417,251.4465,,,,,,,,,,,,,,0.5656,1,,,,,,,,,,,,,,m,,,,,,,,,,,,,,,49,1,251.4473,252.0162,m,1,0.5656,,[],[],[],[],[],[],[],252.0162,254.0163,254.0163,255.208,[],[],[],[],[],[],[],m,255.2081,255.2082,-0.067253638,-0.406361607,0,0,0,,0,48,48,115,1,4,word,LOGICAL,print,logical_p.png,1.1897,,,,,
,,,,32061,001,2025-10-21_14h37.44.801,HW_LDT_1,2024.2.4,MacIntel,107.5268817,,,,,,,,,,,,,,,,,,,,,255.2086,255.4052,255.4052,255.9084,,,,,,,,,,,,,,0.6949,1,,,,,,,,,,,,,,z,,,,,,,,,,,,,,,50,0,255.9092,256.6091,z,1,0.6949,,[],[],[],[],[],[],[],256.6092,258.608,258.6081,258.6082,[],[],[],[],[],[],[],,258.6082,258.6083,-0.067253638,-0.406361607,0,0,0,,0,49,49,6,1,4,RL,caleberia,cursive,caleberia_c.png,,,,,,
,,,,32061,001,2025-10-21_14h37.44.801,HW_LDT_1,2024.2.4,MacIntel,107.5268817,,,,,,,,,,,,,,,,,,,,,258.6094,258.8082,258.8082,259.309,,,,,,,,,,,,,,2.5615,0,,,,,,,,,,,,,,z,,,,,,,,,,,,,,,51,1,259.3095,261.8754,m,0,2.5615,,[],[],[],[],[],[],[],261.8755,263.8746,263.8747,264.2503,[],[],[],[],[],[],[],m,264.2503,264.2503,-0.067253638,-0.406361607,0,0,0,,0,50,50,70,1,4,TL,quatily,print,quatily_p.png,0.3719,,,,,
,,,,32061,001,2025-10-21_14h37.44.801,HW_LDT_1,2024.2.4,MacIntel,107.5268817,,,,,,,,,,,,,,,,,,,,,264.2509,264.4497,264.4497,264.9505,,,,,,,,,,,,,,2.1239,1,,,,,,,,,,,,,,m,,,,,,,,,,,,,,,52,0,264.951,267.0754,m,1,2.1239,,[],[],[],[],[],[],[],267.0755,269.0755,269.0755,269.0757,[],[],[],[],[],[],[],,269.0757,269.0757,-0.067253638,-0.406361607,0,0,0,,0,51,51,131,1,4,word,POPULAR,print,popular_p.png,,,,,,
,,,,32061,001,2025-10-21_14h37.44.801,HW_LDT_1,2024.2.4,MacIntel,107.5268817,,,,,,,,,,,,,,,,,,,,,269.0768,269.2756,269.2756,269.7755,,,,,,,,,,,,,,0.6292,1,,,,,,,,,,,,,,m,,,,,,,,,,,,,,,53,0,269.776,270.4086,m,1,0.6292,,[],[],[],[],[],[],[],270.4086,272.4089,272.409,272.4092,[],[],[],[],[],[],[],,272.4092,272.4093,-0.067253638,-0.406361607,0,0,0,,0,52,52,143,1,4,word,REMOVAL,print,removal_p.png,,,,,,
,,,,32061,001,2025-10-21_14h37.44.801,HW_LDT_1,2024.2.4,MacIntel,107.5268817,,,,,,,,,,,,,,,,,,,,,272.4102,272.6089,272.609,273.1078,,,,,,,,,,,,,,0.6287,1,,,,,,,,,,,,,,z,,,,,,,,,,,,,,,54,0,273.1084,273.7419,z,1,0.6287,,[],[],[],[],[],[],[],273.742,275.7423,275.7423,275.7424,[],[],[],[],[],[],[],,275.7425,275.7426,-0.067253638,-0.406361607,0,0,0,,0,53,53,28,1,4,RL,mifikary,print,mifikary_p.png,,,,,,
,,,,32061,001,2025-10-21_14h37.44.801,HW_LDT_1,2024.2.4,MacIntel,107.5268817,,,,,,,,,,,,,,,,,,,,,275.7436,275.942,275.9421,276.4424,,,,,,,,,,,,,,0.669,0,,,,,,,,,,,,,,m,,,,,,,,,,,,,,,55,0,276.4429,277.117,z,0,0.669,,[],[],[],[],[],[],[],277.117,279.1172,279.1172,279.1173,[],[],[],[],[],[],[],,279.1174,279.1175,-0.067253638,-0.406361607,0,0,0,,0,54,54,144,1,4,word,RESIDENT,cursive,resident_c.png,,,,,,
,,,,32061,001,2025-10-21_14h37.44.801,HW_LDT_1,2024.2.4,MacIntel,107.5268817,,,,,,,,,,,,,,,,,,,,,279.1185,279.3193,279.3193,279.8163,,,,,,,,,,,,,,0.9451,1,,,,,,,,,,,,,,m,,,,,,,,,,,,,,,56,0,279.8167,280.767,m,1,0.9451,,[],[],[],[],[],[],[],280.7671,282.7672,282.7673,282.7675,[],[],[],[],[],[],[],,282.7675,282.7676,-0.067253638,-0.406361607,0,0,0,,0,55,55,140,1,4,word,RELATIVE,print,relative_p.png,,,,,,
,,,,32061,001,2025-10-21_14h37.44.801,HW_LDT_1,2024.2.4,MacIntel,107.5268817,,,,,,,,,,,,,,,,,,,,,282.7686,282.9671,282.9671,283.4674,,,,,,,,,,,,,,0.6448,1,,,,,,,,,,,,,,m,,,,,,,,,,,,,,,57,1,283.468,284.1169,m,1,0.6448,,[],[],[],[],[],[],[],284.1169,286.117,286.117,288.017,[],[],[],[],[],[],[],z,288.0171,288.0172,-0.067253638,-0.406361607,0,0,0,,0,56,56,110,1,4,word,HERITAGE,print,heritage_p.png,1.8957,,,,,
,,,,32061,001,2025-10-21_14h37.44.801,HW_LDT_1,2024.2.4,MacIntel,107.5268817,,,,,,,,,,,,,,,,,,,,,288.018,288.2166,288.2167,288.7166,,,,,,,,,,,,,,0.7312,0,,,,,,,,,,,,,,m,,,,,,,,,,,,,,,58,0,288.717,289.4502,z,0,0.7312,,[],[],[],[],[],[],[],289.4502,291.446,291.446,291.4462,[],[],[],[],[],[],[],,291.4462,291.4462,-0.067253638,-0.406361607,0,0,0,,0,57,57,98,1,4,word,CRIMINAL,cursive,criminal_c.png,,,,,,
,,,,32061,001,2025-10-21_14h37.44.801,HW_LDT_1,2024.2.4,MacIntel,107.5268817,,,,,,,,,,,,,,,,,,,,,291.4475,291.6487,291.6487,292.1464,,,,,,,,,,,,,,0.8771,1,,,,,,,,,,,,,,z,,,,,,,,,,,,,,,59,0,292.1472,293.0292,z,1,0.8771,,[],[],[],[],[],[],[],293.0293,295.0286,295.0287,295.0288,[],[],[],[],[],[],[],,295.0288,295.029,-0.067253638,-0.406361607,0,0,0,,0,58,58,54,1,4,TL,codemy,print,codemy_p.png,,,,,,
,,,,32061,001,2025-10-21_14h37.44.801,HW_LDT_1,2024.2.4,MacIntel,107.5268817,,,,,,,,,,,,,,,,,,,,,295.0301,295.2295,295.2295,295.7292,,,,,,,,,,,,,,0.6967,1,,,,,,,,,,,,,,z,,,,,,,,,,,,,,,60,0,295.7296,296.4295,z,1,0.6967,,[],[],[],[],[],[],[],296.4295,298.4297,298.4297,298.4299,[],[],[],[],[],[],[],,298.4299,298.4301,-0.067253638,-0.406361607,0,0,0,,0,59,59,55,1,4,TL,corevage,cursive,corevage_c.png,,,,,,
,,,,32061,001,2025-10-21_14h37.44.801,HW_LDT_1,2024.2.4,MacIntel,107.5268817,,,,,,,,,,,,,,,,,,,,,298.4311,298.6295,298.6296,299.1296,,,,,,,,,,,,,,0.6118,0,,,,,,,,,,,,,,m,,,,,,,,,,,,,,,61,0,299.13,299.7453,z,0,0.6118,,[],[],[],[],[],[],[],299.7454,301.7464,301.7464,301.7466,[],[],[],[],[],[],[],,301.7466,301.7467,-0.067253638,-0.406361607,0,0,0,,0,60,60,153,1,4,word,STOLEN,cursive,stolen_c.png,,,,,,
,,,,32061,001,2025-10-21_14h37.44.801,HW_LDT_1,2024.2.4,MacIntel,107.5268817,,,,,,,,,,,,,,,,,,,,,301.7476,301.9462,301.9462,302.4463,,,,,,,,,,,,,,0.9786,1,,,,,,,,,,,,,,m,,,,,,,,,,,,,,,62,0,302.4467,303.4292,m,1,0.9786,,[],[],[],[],[],[],[],303.4293,305.4297,305.4298,305.4326,[],[],[],[],[],[],[],,305.4326,305.433,-0.067253638,-0.406361607,0,0,0,,0,61,61,152,1,4,word,SPECIMEN,cursive,specimen_c.png,,,,,,
,,,,32061,001,2025-10-21_14h37.44.801,HW_LDT_1,2024.2.4,MacIntel,107.5268817,,,,,,,,,,,,,,,,,,,,,305.439,305.6291,305.6291,306.1297,,,,,,,,,,,,,,1.0025,1,,,,,,,,,,,,,,z,,,,,,,,,,,,,,,63,0,306.1305,307.1379,z,1,1.0025,,[],[],[],[],[],[],[],307.138,309.1379,309.138,309.138,[],[],[],[],[],[],[],,309.1381,309.1382,-0.067253638,-0.406361607,0,0,0,,0,62,62,64,1,4,TL,moredate,print,moredate_p.png,,,,,,
,,,,32061,001,2025-10-21_14h37.44.801,HW_LDT_1,2024.2.4,MacIntel,107.5268817,,,,,,,,,,,,,,,,,,,,,309.1392,309.3337,309.3337,309.833,,,,,,,,,,,,,,0.8122,1,,,,,,,,,,,,,,m,,,,,,,,,,,,,,,64,0,309.8336,310.6505,m,1,0.8122,,[],[],[],[],[],[],[],310.6507,312.6504,312.6504,312.6505,[],[],[],[],[],[],[],,312.6505,312.6506,-0.067253638,-0.406361607,0,0,0,,0,63,63,113,1,4,word,LITERAL,cursive,literal_c.png,,,,,,
,,,,32061,001,2025-10-21_14h37.44.801,HW_LDT_1,2024.2.4,MacIntel,107.5268817,,,,,,,,,,,,,,,,,,,,,312.6517,312.8504,312.8504,313.3503,,,,,,,,,,,,,,0.896,1,,,,,,,,,,,,,,m,,,,,,,,,,,,,,,65,0,313.3508,314.2493,m,1,0.896,,[],[],[],[],[],[],[],314.2494,316.2503,316.2504,316.2505,[],[],[],[],[],[],[],,316.2505,316.2505,-0.067253638,-0.406361607,0,0,0,,0,64,64,123,1,4,word,MODERATE,print,moderate_p.png,,,,,,
,,,,32061,001,2025-10-21_14h37.44.801,HW_LDT_1,2024.2.4,MacIntel,107.5268817,,,,,,,,,,,,,,,,,,,,,316.2514,316.4456,316.4456,316.9467,,,,,,,,,,,,,,0.6855,1,,,,,,,,,,,,,,z,,,,,,,,,,,,,,,66,0,316.9472,317.6377,z,1,0.6855,,[],[],[],[],[],[],[],317.6377,319.6338,319.6339,319.6341,[],[],[],[],[],[],[],,319.6341,319.6341,-0.067253638,-0.406361607,0,0,0,,0,65,65,47,1,4,RL,stopave,print,stopave_p.png,,,,,,
,,,,32061,001,2025-10-21_14h37.44.801,HW_LDT_1,2024.2.4,MacIntel,107.5268817,,,,,,,,,,,,,,,,,,,,,319.6352,319.833,319.833,320.3331,,,,,,,,,,,,,,0.706,1,,,,,,,,,,,,,,z,,,,,,,,,,,,,,,67,1,320.3336,321.0408,z,1,0.706,,[],[],[],[],[],[],[],321.0409,323.042,323.042,324.1796,[],[],[],[],[],[],[],m,324.1796,324.1797,-0.067253638,-0.406361607,0,0,0,,0,66,66,48,1,4,RL,vabifity,print,vabifity_p.png,1.1338,,,,,
,,,,32061,001,2025-10-21_14h37.44.801,HW_LDT_1,2024.2.4,MacIntel,107.5268817,,,,,,,,,,,,,,,,,,,,,324.1806,324.3793,324.3793,324.8791,,,,,,,,,,,,,,1.0376,1,,,,,,,,,,,,,,z,,,,,,,,,,,,,,,68,1,324.8797,325.9212,z,1,1.0376,,[],[],[],[],[],[],[],325.9213,327.9169,327.9169,329.5373,[],[],[],[],[],[],[],z,329.5373,329.5373,-0.067253638,-0.406361607,0,0,0,,0,67,67,14,1,4,RL,delahe,cursive,delahe_c.png,1.6181,,,,,
,,,,32061,001,2025-10-21_14h37.44.801,HW_LDT_1,2024.2.4,MacIntel,107.5268817,,,,,,,,,,,,,,,,,,,,,329.538,329.738,329.7381,330.2377,,,,,,,,,,,,,,1.9153,1,,,,,,,,,,,,,,z,,,,,,,,,,,,,,,69,0,330.2381,332.154,z,1,1.9153,,[],[],[],[],[],[],[],332.154,334.1519,334.1521,334.1521,[],[],[],[],[],[],[],,334.1522,334.1522,-0.067253638,-0.406361607,0,0,0,,0,68,68,29,1,4,RL,motide,print,motide_p.png,,,,,,
,,,,32061,001,2025-10-21_14h37.44.801,HW_LDT_1,2024.2.4,MacIntel,107.5268817,,,,,,,,,,,,,,,,,,,,,334.1531,334.3522,334.3523,334.8484,,,,,,,,,,,,,,0.6008,1,,,,,,,,,,,,,,z,,,,,,,,,,,,,,,70,0,334.8489,335.4542,z,1,0.6008,,[],[],[],[],[],[],[],335.4542,337.4574,337.4574,337.4575,[],[],[],[],[],[],[],,337.4576,337.4577,-0.067253638,-0.406361607,0,0,0,,0,69,69,23,1,4,RL,linefal,cursive,linefal_c.png,,,,,,
,,,,32061,001,2025-10-21_14h37.44.801,HW_LDT_1,2024.2.4,MacIntel,107.5268817,,,,,,,,,,,,,,,,,,,,,337.4593,337.6539,337.654,338.1531,,,,,,,,,,,,,,0.7056,1,,,,,,,,,,,,,,m,,,,,,,,,,,,,,,71,1,338.1535,338.8622,m,1,0.7056,,[],[],[],[],[],[],[],338.8623,340.8617,340.8618,342.5956,[],[],[],[],[],[],[],m,342.5956,342.5958,-0.067253638,-0.406361607,0,0,0,,0,70,70,146,1,4,word,RETIRE,print,retire_p.png,1.731,,,,,
,,,,32061,001,2025-10-21_14h37.44.801,HW_LDT_1,2024.2.4,MacIntel,107.5268817,,,,,,,,,,,,,,,,,,,,,342.5965,342.7917,342.7918,343.2919,,,,,,,,,,,,,,1.2492,1,,,,,,,,,,,,,,z,,,,,,,,,,,,,,,72,1,343.2924,344.546,z,1,1.2492,,[],[],[],[],[],[],[],344.5461,346.5421,346.5422,347.3574,[],[],[],[],[],[],[],m,347.3574,347.3575,-0.042629795,-0.387161045,0,0,0,,0,71,71,63,1,4,TL,miskate,print,miskate_p.png,0.8118,,,,,
,,,,32061,001,2025-10-21_14h37.44.801,HW_LDT_1,2024.2.4,MacIntel,107.5268817,,,,,,,,,,,,,,,,,,,,,347.3581,347.5591,347.5592,348.0582,,,,,,,,,,,,,,0.6694,1,,,,,,,,,,,,,,z,,,,,,,,,,,,,,,73,0,348.0586,348.7332,z,1,0.6694,,[],[],[],[],[],[],[],348.7332,350.73,350.7301,350.7302,[],[],[],[],[],[],[],,350.7302,350.7303,-0.042629795,-0.387161045,0,0,0,,0,72,72,34,1,4,RL,posity,cursive,posity_c.png,,,,,,
,,,,32061,001,2025-10-21_14h37.44.801,HW_LDT_1,2024.2.4,MacIntel,107.5268817,,,,,,,,,,,,,,,,,,,,,350.7314,350.9296,350.9296,351.4298,,,,,,,,,,,,,,0.5708,0,,,,,,,,,,,,,,m,,,,,,,,,,,,,,,74,1,351.4302,352.004,z,0,0.5708,,[],[],[],[],[],[],[],352.004,354.0004,354.0004,355.2582,[],[],[],[],[],[],[],z,355.2583,355.2583,-0.042629795,-0.387161045,0,0,0,,0,73,73,159,1,4,word,VETERAN,cursive,veteran_c.png,1.2549,,,,,
,,,,32061,001,2025-10-21_14h37.44.801,HW_LDT_1,2024.2.4,MacIntel,107.5268817,,,,,,,,,,,,,,,,,,,,,355.2588,355.4583,355.4584,355.9573,,,,,,,,,,,,,,1.1947,1,,,,,,,,,,,,,,m,,,,,,,,,,,,,,,75,0,355.9576,357.1569,m,1,1.1947,,[],[],[],[],[],[],[],357.157,359.1589,359.1589,359.159,[],[],[],[],[],[],[],,359.1591,359.1591,-0.042629795,-0.387161045,0,0,0,,0,74,74,94,1,4,word,CLINICAL,print,clinical_p.png,,,,,,
,,,,32061,001,2025-10-21_14h37.44.801,HW_LDT_1,2024.2.4,MacIntel,107.5268817,,,,,,,,,,,,,,,,,,,,,359.1603,359.3571,359.3571,359.8586,,,,,,,,,,,,,,0.6664,1,,,,,,,,,,,,,,z,,,,,,,,,,,,,,,76,0,359.859,360.5292,z,1,0.6664,,[],[],[],[],[],[],[],360.5292,362.5247,362.5247,362.5249,[],[],[],[],[],[],[],,362.525,362.525,-0.042629795,-0.387161045,0,0,0,,0,75,75,12,1,4,RL,conbicer,cursive,conbicer_c.png,,,,,,
,,,,32061,001,2025-10-21_14h37.44.801,HW_LDT_1,2024.2.4,MacIntel,107.5268817,,,,,,,,,,,,,,,,,,,,,362.5261,362.7222,362.7223,363.2201,,,,,,,,,,,,,,0.8329,0,,,,,,,,,,,,,,z,,,,,,,,,,,,,,,77,0,363.2205,364.0576,m,0,0.8329,,[],[],[],[],[],[],[],364.0577,366.059,366.0593,366.0595,[],[],[],[],[],[],[],,366.0597,366.0597,-0.042873677,-0.387161045,0,0,0,,0,76,76,77,1,4,TL,spemicen,cursive,spemicen_c.png,,,,,,
,,,,32061,001,2025-10-21_14h37.44.801,HW_LDT_1,2024.2.4,MacIntel,107.5268817,,,,,,,,,,,,,,,,,,,,,366.0616,366.2579,366.2579,366.7586,,,,,,,,,,,,,,0.7804,1,,,,,,,,,,,,,,m,,,,,,,,,,,,,,,78,0,366.7594,367.5418,m,1,0.7804,,[],[],[],[],[],[],[],367.5419,369.5376,369.5378,369.5379,[],[],[],[],[],[],[],,369.5379,369.5381,-0.042873677,-0.387161045,0,0,0,,0,77,77,158,1,4,word,VELOCITY,cursive,velocity_c.png,,,,,,
,,,,32061,001,2025-10-21_14h37.44.801,HW_LDT_1,2024.2.4,MacIntel,107.5268817,,,,,,,,,,,,,,,,,,,,,369.5394,369.7372,369.7372,370.2412,,,,,,,,,,,,,,0.5716,1,,,,,,,,,,,,,,m,,,,,,,,,,,,,,,79,1,370.2416,370.8156,m,1,0.5716,,[],[],[],[],[],[],[],370.8157,372.8127,372.8128,373.2792,[],[],[],[],[],[],[],m,373.2792,373.2793,-0.042873677,-0.387161045,0,0,0,,0,78,78,92,1,4,word,CATEGORY,cursive,category_c.png,0.4626,,,,,
,,,,32061,001,2025-10-21_14h37.44.801,HW_LDT_1,2024.2.4,MacIntel,107.5268817,,,,,,,,,,,,,,,,,,,,,373.28,373.4792,373.4792,373.9794,,,,,,,,,,,,,,1.9447,1,,,,,,,,,,,,,,z,,,,,,,,,,,,,,,80,0,373.9802,375.9289,z,1,1.9447,,[],[],[],[],[],[],[],375.9289,377.9243,377.9243,377.9247,[],[],[],[],[],[],[],,377.9247,386.1882,-0.042873677,-0.387161045,0,0,0,space,0,79,79,9,1,4,RL,cafigal,print,cafigal_p.png,,,8.2189,,,
,,,,32061,001,2025-10-21_14h37.44.801,HW_LDT_1,2024.2.4,MacIntel,107.5268817,,,,,,,,,,,,,,,,,,,,,386.1887,386.3877,386.3877,386.8879,,,,,,,,,,,,,,1.4984,1,,,,,,,,,,,,,,z,,,,,,,,,,,,,,,81,0,386.8885,388.3916,z,1,1.4984,,[],[],[],[],[],[],[],388.3916,390.3866,390.3866,390.3867,[],[],[],[],[],[],[],,390.3867,390.3868,-0.042873677,-0.387161045,0,0,0,,0,80,80,58,1,4,TL,edivent,print,edivent_p.png,,,,,,
,,,,32061,001,2025-10-21_14h37.44.801,HW_LDT_1,2024.2.4,MacIntel,107.5268817,,,,,,,,,,,,,,,,,,,,,390.3875,390.5875,390.5876,391.0835,,,,,,,,,,,,,,0.578,0,,,,,,,,,,,,,,m,,,,,,,,,,,,,,,82,0,391.0841,391.6655,z,0,0.578,,[],[],[],[],[],[],[],391.6656,393.6651,393.6651,393.6653,[],[],[],[],[],[],[],,393.6654,393.6655,-0.042873677,-0.387161045,0,0,0,,0,81,81,151,1,4,word,SPECIFIC,cursive,specific_c.png,,,,,,
,,,,32061,001,2025-10-21_14h37.44.801,HW_LDT_1,2024.2.4,MacIntel,107.5268817,,,,,,,,,,,,,,,,,,,,,393.6668,393.8616,393.8616,394.3667,,,,,,,,,,,,,,0.4625,0,,,,,,,,,,,,,,m,,,,,,,,,,,,,,,83,0,394.3673,394.8335,z,0,0.4625,,[],[],[],[],[],[],[],394.8335,396.8325,396.8326,396.8327,[],[],[],[],[],[],[],,396.8327,396.8328,-0.042873677,-0.387161045,0,0,0,,0,82,82,133,1,4,word,PROVIDE,cursive,provide_c.png,,,,,,
,,,,32061,001,2025-10-21_14h37.44.801,HW_LDT_1,2024.2.4,MacIntel,107.5268817,,,,,,,,,,,,,,,,,,,,,396.8348,397.0324,397.0324,397.5307,,,,,,,,,,,,,,0.4978,0,,,,,,,,,,,,,,m,,,,,,,,,,,,,,,84,0,397.5312,398.0323,z,0,0.4978,,[],[],[],[],[],[],[],398.0323,400.0333,400.0334,400.0334,[],[],[],[],[],[],[],,400.0335,400.0336,-0.042873677,-0.387161045,0,0,0,,0,83,83,128,1,4,word,PACIFIC,cursive,pacific_c.png,,,,,,
,,,,32061,001,2025-10-21_14h37.44.801,HW_LDT_1,2024.2.4,MacIntel,107.5268817,,,,,,,,,,,,,,,,,,,,,400.0345,400.2329,400.2329,400.7286,,,,,,,,,,,,,,0.7405,1,,,,,,,,,,,,,,z,,,,,,,,,,,,,,,85,0,400.7289,401.4704,z,1,0.7405,,[],[],[],[],[],[],[],401.4705,403.4699,403.47,403.4702,[],[],[],[],[],[],[],,403.4702,403.4703,-0.042873677,-0.387161045,0,0,0,,0,84,84,62,1,4,TL,locigal,print,locigal_p.png,,,,,,
,,,,32061,001,2025-10-21_14h37.44.801,HW_LDT_1,2024.2.4,MacIntel,107.5268817,,,,,,,,,,,,,,,,,,,,,403.4713,403.6659,403.6659,404.1701,,,,,,,,,,,,,,0.7292,1,,,,,,,,,,,,,,m,,,,,,,,,,,,,,,86,0,404.1704,404.904,m,1,0.7292,,[],[],[],[],[],[],[],404.904,406.892,406.8921,406.8922,[],[],[],[],[],[],[],,406.8922,406.8923,-0.042873677,-0.387161045,0,0,0,,0,85,85,109,1,4,word,GRATEFUL,print,grateful_p.png,,,,,,
,,,,32061,001,2025-10-21_14h37.44.801,HW_LDT_1,2024.2.4,MacIntel,107.5268817,,,,,,,,,,,,,,,,,,,,,406.8931,407.0865,407.0865,407.5915,,,,,,,,,,,,,,0.6078,1,,,,,,,,,,,,,,z,,,,,,,,,,,,,,,87,1,407.5921,408.2038,z,1,0.6078,,[],[],[],[],[],[],[],408.2039,410.2002,410.2002,410.9532,[],[],[],[],[],[],[],m,410.9533,410.9534,-0.042873677,-0.387161045,0,0,0,,0,86,86,0,1,4,RL,abanemy,print,abanemy_p.png,0.7502,,,,,
,,,,32061,001,2025-10-21_14h37.44.801,HW_LDT_1,2024.2.4,MacIntel,107.5268817,,,,,,,,,,,,,,,,,,,,,410.954,411.1542,411.1542,411.6539,,,,,,,,,,,,,,0.5883,1,,,,,,,,,,,,,,z,,,,,,,,,,,,,,,88,0,411.654,412.2455,z,1,0.5883,,[],[],[],[],[],[],[],412.2457,414.241,414.2412,414.2412,[],[],[],[],[],[],[],,414.2413,414.2413,-0.042873677,-0.387161045,0,0,0,,0,87,87,35,1,4,RL,probice,cursive,probice_c.png,,,,,,
,,,,32061,001,2025-10-21_14h37.44.801,HW_LDT_1,2024.2.4,MacIntel,107.5268817,,,,,,,,,,,,,,,,,,,,,414.2425,414.4415,414.4415,414.9376,,,,,,,,,,,,,,1.8564,0,,,,,,,,,,,,,,z,,,,,,,,,,,,,,,89,0,414.9382,416.7955,m,0,1.8564,,[],[],[],[],[],[],[],416.7956,418.7952,418.7953,418.7955,[],[],[],[],[],[],[],,418.7955,418.7956,-0.042873677,-0.387161045,0,0,0,,0,88,88,68,1,4,TL,prosopal,print,prosopal_p.png,,,,,,
,,,,32061,001,2025-10-21_14h37.44.801,HW_LDT_1,2024.2.4,MacIntel,107.5268817,,,,,,,,,,,,,,,,,,,,,418.7966,418.9959,418.996,419.4957,,,,,,,,,,,,,,1.0383,0,,,,,,,,,,,,,,m,,,,,,,,,,,,,,,90,0,419.4963,420.5369,z,0,1.0383,,[],[],[],[],[],[],[],420.5371,422.5373,422.5374,422.5376,[],[],[],[],[],[],[],,422.5377,422.5379,-0.042873677,-0.387161045,0,0,0,,0,89,89,100,1,4,word,DECADE,cursive,decade_c.png,,,,,,
,,,,32061,001,2025-10-21_14h37.44.801,HW_LDT_1,2024.2.4,MacIntel,107.5268817,,,,,,,,,,,,,,,,,,,,,422.5392,422.7334,422.7334,423.232,,,,,,,,,,,,,,1.6095,0,,,,,,,,,,,,,,m,,,,,,,,,,,,,,,91,0,423.2325,424.8456,z,0,1.6095,,[],[],[],[],[],[],[],424.8457,426.8463,426.8464,426.8466,[],[],[],[],[],[],[],,426.8466,426.8466,-0.042873677,-0.387161045,0,0,0,,0,90,90,83,1,4,word,ANIMAL,cursive,animal_c.png,,,,,,
,,,,32061,001,2025-10-21_14h37.44.801,HW_LDT_1,2024.2.4,MacIntel,107.5268817,,,,,,,,,,,,,,,,,,,,,426.8479,427.0457,427.0457,427.5449,,,,,,,,,,,,,,1.089,0,,,,,,,,,,,,,,m,,,,,,,,,,,,,,,92,0,427.5456,428.6373,z,0,1.089,,[],[],[],[],[],[],[],428.6373,430.6375,430.6375,430.6376,[],[],[],[],[],[],[],,430.6376,430.6377,-0.042873677,-0.387161045,0,0,0,,0,91,91,138,1,4,word,REFUSAL,cursive,refusal_c.png,,,,,,
,,,,32061,001,2025-10-21_14h37.44.801,HW_LDT_1,2024.2.4,MacIntel,107.5268817,,,,,,,,,,,,,,,,,,,,,430.6386,430.8366,430.8366,431.3373,,,,,,,,,,,,,,1.1279,1,,,,,,,,,,,,,,z,,,,,,,,,,,,,,,93,1,431.3379,432.4706,z,1,1.1279,,[],[],[],[],[],[],[],432.4706,434.4705,434.4705,435.9373,[],[],[],[],[],[],[],z,435.9374,435.9374,-0.042873677,-0.387161045,0,0,0,,0,92,92,60,1,4,TL,hetirage,print,hetirage_p.png,1.4624,,,,,
,,,,32061,001,2025-10-21_14h37.44.801,HW_LDT_1,2024.2.4,MacIntel,107.5268817,,,,,,,,,,,,,,,,,,,,,435.9381,436.1374,436.1375,436.6374,,,,,,,,,,,,,,1.9646,0,,,,,,,,,,,,,,m,,,,,,,,,,,,,,,94,1,436.6381,438.6072,z,0,1.9646,,[],[],[],[],[],[],[],438.6073,440.6079,440.608,442.4661,[],[],[],[],[],[],[],z,442.4662,442.4663,-0.042873677,-0.387161045,0,0,0,,0,93,93,129,1,4,word,PARENT,cursive,parent_c.png,1.8546,,,,,
,,,,32061,001,2025-10-21_14h37.44.801,HW_LDT_1,2024.2.4,MacIntel,107.5268817,,,,,,,,,,,,,,,,,,,,,442.4676,442.6665,442.6666,443.1665,,,,,,,,,,,,,,1.7739,1,,,,,,,,,,,,,,z,,,,,,,,,,,,,,,95,0,443.1671,444.9416,z,1,1.7739,,[],[],[],[],[],[],[],444.9417,446.9373,446.9374,446.9375,[],[],[],[],[],[],[],,446.9376,446.9377,-0.042873677,-0.387161045,0,0,0,,0,94,94,66,1,4,TL,opmital,print,opmital_p.png,,,,,,
,,,,32061,001,2025-10-21_14h37.44.801,HW_LDT_1,2024.2.4,MacIntel,107.5268817,,,,,,,,,,,,,,,,,,,,,446.9388,447.1331,447.1331,447.6353,,,,,,,,,,,,,,1.0481,1,,,,,,,,,,,,,,m,,,,,,,,,,,,,,,96,0,447.6358,448.687,m,1,1.0481,,[],[],[],[],[],[],[],448.6871,450.6867,450.6868,450.687,[],[],[],[],[],[],[],,450.687,450.6871,-0.042873677,-0.387161045,0,0,0,,0,95,95,90,1,4,word,CAPITAL,print,capital_p.png,,,,,,
,,,,32061,001,2025-10-21_14h37.44.801,HW_LDT_1,2024.2.4,MacIntel,107.5268817,,,,,,,,,,,,,,,,,,,,,450.6882,450.8831,450.8831,451.3872,,,,,,,,,,,,,,1.0318,0,,,,,,,,,,,,,,m,,,,,,,,,,,,,,,97,0,451.3879,452.4202,z,0,1.0318,,[],[],[],[],[],[],[],452.4202,454.4208,454.4208,454.421,[],[],[],[],[],[],[],,454.421,454.4212,-0.042873677,-0.387161045,0,0,0,,0,96,96,95,1,4,word,COMEDY,print,comedy_p.png,,,,,,
,,,,32061,001,2025-10-21_14h37.44.801,HW_LDT_1,2024.2.4,MacIntel,107.5268817,,,,,,,,,,,,,,,,,,,,,454.4224,454.6207,454.6208,455.1203,,,,,,,,,,,,,,1.735,0,,,,,,,,,,,,,,m,,,,,,,,,,,,,,,98,0,455.1207,456.858,z,0,1.735,,[],[],[],[],[],[],[],456.858,458.8583,458.8584,458.8585,[],[],[],[],[],[],[],,458.8585,458.8586,-0.042873677,-0.387161045,0,0,0,,0,97,97,124,1,4,word,NUMERICAL,cursive,numerical_c.png,,,,,,
,,,,32061,001,2025-10-21_14h37.44.801,HW_LDT_1,2024.2.4,MacIntel,107.5268817,,,,,,,,,,,,,,,,,,,,,458.8594,459.0572,459.0573,459.554,,,,,,,,,,,,,,2.8453,1,,,,,,,,,,,,,,z,,,,,,,,,,,,,,,99,1,459.5545,462.4038,z,1,2.8453,,[],[],[],[],[],[],[],462.4039,464.404,464.404,466.9412,[],[],[],[],[],[],[],z,466.9414,466.9414,-0.042873677,-0.387161045,0,0,0,,0,98,98,15,1,4,RL,debave,cursive,debave_c.png,2.5349,,,,,
,,,,32061,001,2025-10-21_14h37.44.801,HW_LDT_1,2024.2.4,MacIntel,107.5268817,,,,,,,,,,,,,,,,,,,,,466.942,467.1417,467.1417,467.6416,,,,,,,,,,,,,,1.8494,1,,,,,,,,,,,,,,z,,,,,,,,,,,,,,,100,0,467.6422,469.4954,z,1,1.8494,,[],[],[],[],[],[],[],469.4955,471.4956,471.4957,471.4959,[],[],[],[],[],[],[],,471.496,471.4961,-0.042873677,-0.387161045,0,0,0,,0,99,99,3,1,4,RL,bewoted,print,bewoted_p.png,,,,,,
,,,,32061,001,2025-10-21_14h37.44.801,HW_LDT_1,2024.2.4,MacIntel,107.5268817,,,,,,,,,,,,,,,,,,,,,471.4973,471.6958,471.6959,472.1948,,,,,,,,,,,,,,1.1881,0,,,,,,,,,,,,,,m,,,,,,,,,,,,,,,101,0,472.1951,473.3871,z,0,1.1881,,[],[],[],[],[],[],[],473.3872,475.3873,475.3873,475.3875,[],[],[],[],[],[],[],,475.3876,475.3876,-0.042873677,-0.387161045,0,0,0,,0,100,100,130,1,4,word,POLICY,cursive,policy_c.png,,,,,,
,,,,32061,001,2025-10-21_14h37.44.801,HW_LDT_1,2024.2.4,MacIntel,107.5268817,,,,,,,,,,,,,,,,,,,,,475.3887,475.5872,475.5873,476.0874,,,,,,,,,,,,,,0.7761,1,,,,,,,,,,,,,,z,,,,,,,,,,,,,,,102,0,476.0879,476.8707,z,1,0.7761,,[],[],[],[],[],[],[],476.8708,478.8705,478.8706,478.8708,[],[],[],[],[],[],[],,478.8708,478.871,-0.042873677,-0.387161045,0,0,0,,0,101,101,41,1,4,RL,rebicent,cursive,rebicent_c.png,,,,,,
,,,,32061,001,2025-10-21_14h37.44.801,HW_LDT_1,2024.2.4,MacIntel,107.5268817,,,,,,,,,,,,,,,,,,,,,478.872,479.0706,479.0707,479.5707,,,,,,,,,,,,,,0.6195,1,,,,,,,,,,,,,,m,,,,,,,,,,,,,,,103,0,479.571,480.1956,m,1,0.6195,,[],[],[],[],[],[],[],480.1956,482.1954,482.1955,482.1956,[],[],[],[],[],[],[],,482.1956,482.1956,-0.042873677,-0.387161045,0,0,0,,0,102,102,86,1,4,word,BESIDE,print,beside_p.png,,,,,,
,,,,32061,001,2025-10-21_14h37.44.801,HW_LDT_1,2024.2.4,MacIntel,107.5268817,,,,,,,,,,,,,,,,,,,,,482.1965,482.3953,482.3954,482.8949,,,,,,,,,,,,,,0.6931,1,,,,,,,,,,,,,,z,,,,,,,,,,,,,,,104,0,482.8955,483.5891,z,1,0.6931,,[],[],[],[],[],[],[],483.5891,485.5913,485.5914,485.5915,[],[],[],[],[],[],[],,485.5915,485.5916,-0.042873677,-0.387161045,0,0,0,,0,103,103,52,1,4,TL,cagetory,cursive,cagetory_c.png,,,,,,
,,,,32061,001,2025-10-21_14h37.44.801,HW_LDT_1,2024.2.4,MacIntel,107.5268817,,,,,,,,,,,,,,,,,,,,,485.5923,485.7868,485.7869,486.2908,,,,,,,,,,,,,,1.6328,1,,,,,,,,,,,,,,z,,,,,,,,,,,,,,,105,0,486.2912,487.9288,z,1,1.6328,,[],[],[],[],[],[],[],487.9289,489.9288,489.9289,489.9291,[],[],[],[],[],[],[],,489.9292,489.9293,-0.042873677,-0.387161045,0,0,0,,0,104,104,79,1,4,TL,tritube,print,tritube_p.png,,,,,,
,,,,32061,001,2025-10-21_14h37.44.801,HW_LDT_1,2024.2.4,MacIntel,107.5268817,,,,,,,,,,,,,,,,,,,,,489.9305,490.1288,490.1288,490.625,,,,,,,,,,,,,,0.7944,1,,,,,,,,,,,,,,z,,,,,,,,,,,,,,,106,0,490.6254,491.4247,z,1,0.7944,,[],[],[],[],[],[],[],491.4248,493.4248,493.4248,493.425,[],[],[],[],[],[],[],,493.4251,493.4251,-0.042873677,-0.387161045,0,0,0,,0,105,105,4,1,4,RL,betemit,cursive,betemit_c.png,,,,,,
,,,,32061,001,2025-10-21_14h37.44.801,HW_LDT_1,2024.2.4,MacIntel,107.5268817,,,,,,,,,,,,,,,,,,,,,493.4262,493.6245,493.6246,494.1203,,,,,,,,,,,,,,0.5226,0,,,,,,,,,,,,,,m,,,,,,,,,,,,,,,107,0,494.1207,494.6442,z,0,0.5226,,[],[],[],[],[],[],[],494.6444,496.6457,496.6457,496.6459,[],[],[],[],[],[],[],,496.646,496.6462,-0.042873677,-0.387161045,0,0,0,,0,106,106,139,1,4,word,REGULAR,cursive,regular_c.png,,,,,,
,,,,32061,001,2025-10-21_14h37.44.801,HW_LDT_1,2024.2.4,MacIntel,107.5268817,,,,,,,,,,,,,,,,,,,,,496.6474,496.8459,496.8459,497.3438,,,,,,,,,,,,,,0.5685,0,,,,,,,,,,,,,,m,,,,,,,,,,,,,,,108,1,497.3446,497.919,z,0,0.5685,,[],[],[],[],[],[],[],497.919,499.9198,499.9198,502.3206,[],[],[],[],[],[],[],z,502.3207,502.3207,-0.042873677,-0.387161045,0,0,0,,0,107,107,97,1,4,word,COVERAGE,cursive,coverage_c.png,2.3961,,,,,
,,,,32061,001,2025-10-21_14h37.44.801,HW_LDT_1,2024.2.4,MacIntel,107.5268817,,,,,,,,,,,,,,,,,,,,,502.3215,502.5199,502.5199,503.0202,,,,,,,,,,,,,,1.896,1,,,,,,,,,,,,,,m,,,,,,,,,,,,,,,109,0,503.0209,504.9206,m,1,1.896,,[],[],[],[],[],[],[],504.9207,506.9161,506.9161,506.9163,[],[],[],[],[],[],[],,506.9163,506.9164,-0.042873677,-0.387161045,0,0,0,,0,108,108,84,1,4,word,BELOVED,print,beloved_p.png,,,,,,
,,,,32061,001,2025-10-21_14h37.44.801,HW_LDT_1,2024.2.4,MacIntel,107.5268817,,,,,,,,,,,,,,,,,,,,,506.9173,507.1114,507.1115,507.6123,,,,,,,,,,,,,,0.778,1,,,,,,,,,,,,,,z,,,,,,,,,,,,,,,110,0,507.6128,508.3946,z,1,0.778,,[],[],[],[],[],[],[],508.3947,510.3957,510.3958,510.3959,[],[],[],[],[],[],[],,510.396,510.396,-0.042873677,-0.387161045,0,0,0,,0,109,109,43,1,4,RL,rovastic,print,rovastic_p.png,,,,,,
,,,,32061,001,2025-10-21_14h37.44.801,HW_LDT_1,2024.2.4,MacIntel,107.5268817,,,,,,,,,,,,,,,,,,,,,510.3969,510.5958,510.5958,511.0948,,,,,,,,,,,,,,0.7442,1,,,,,,,,,,,,,,z,,,,,,,,,,,,,,,111,1,511.0952,511.8457,z,1,0.7442,,[],[],[],[],[],[],[],511.8457,513.8456,513.8456,515.1537,[],[],[],[],[],[],[],z,515.1538,515.1538,-0.042873677,-0.387161045,0,0,0,,0,110,110,8,1,4,RL,casagity,cursive,casagity_c.png,1.3057,,,,,
,,,,32061,001,2025-10-21_14h37.44.801,HW_LDT_1,2024.2.4,MacIntel,107.5268817,,,,,,,,,,,,,,,,,,,,,515.1547,515.3538,515.3538,515.8535,,,,,,,,,,,,,,1.0954,0,,,,,,,,,,,,,,z,,,,,,,,,,,,,,,112,0,515.8541,516.9537,m,0,1.0954,,[],[],[],[],[],[],[],516.9538,518.9532,518.9532,518.9534,[],[],[],[],[],[],[],,518.9535,518.9536,-0.042873677,-0.387161045,0,0,0,,0,111,111,39,1,4,RL,relone,cursive,relone_c.png,,,,,,
,,,,32061,001,2025-10-21_14h37.44.801,HW_LDT_1,2024.2.4,MacIntel,107.5268817,,,,,,,,,,,,,,,,,,,,,518.9546,519.1539,519.1539,519.6538,,,,,,,,,,,,,,1.0369,1,,,,,,,,,,,,,,z,,,,,,,,,,,,,,,113,1,519.6545,520.6946,z,1,1.0369,,[],[],[],[],[],[],[],520.6947,522.6949,522.695,523.9165,[],[],[],[],[],[],[],m,523.9166,523.9167,-0.042873677,-0.387161045,0,0,0,,0,112,112,38,1,4,RL,refakive,print,refakive_p.png,1.2163,,,,,
,,,,32061,001,2025-10-21_14h37.44.801,HW_LDT_1,2024.2.4,MacIntel,107.5268817,,,,,,,,,,,,,,,,,,,,,523.9191,524.1117,524.1118,524.6162,,,,,,,,,,,,,,1.2256,1,,,,,,,,,,,,,,z,,,,,,,,,,,,,,,114,0,524.6171,525.845,z,1,1.2256,,[],[],[],[],[],[],[],525.8451,527.8398,527.8398,527.84,[],[],[],[],[],[],[],,527.8401,527.8401,-0.042873677,-0.387161045,0,0,0,,0,113,113,40,1,4,RL,reconal,print,reconal_p.png,,,,,,
,,,,32061,001,2025-10-21_14h37.44.801,HW_LDT_1,2024.2.4,MacIntel,107.5268817,,,,,,,,,,,,,,,,,,,,,527.8411,528.0355,528.0355,528.5374,,,,,,,,,,,,,,0.6119,1,,,,,,,,,,,,,,z,,,,,,,,,,,,,,,115,0,528.5377,529.154,z,1,0.6119,,[],[],[],[],[],[],[],529.154,531.1532,531.1532,531.1533,[],[],[],[],[],[],[],,531.1534,531.1536,-0.042873677,-0.387161045,0,0,0,,0,114,114,21,1,4,RL,insibate,print,insibate_p.png,,,,,,
,,,,32061,001,2025-10-21_14h37.44.801,HW_LDT_1,2024.2.4,MacIntel,107.5268817,,,,,,,,,,,,,,,,,,,,,531.1547,531.3497,531.3498,531.8539,,,,,,,,,,,,,,0.9362,1,,,,,,,,,,,,,,m,,,,,,,,,,,,,,,116,0,531.8546,532.7951,m,1,0.9362,,[],[],[],[],[],[],[],532.7951,534.795,534.7951,534.7955,[],[],[],[],[],[],[],,534.7956,534.7957,-0.042873677,-0.387161045,0,0,0,,0,115,115,93,1,4,word,CEREMONY,print,ceremony_p.png,,,,,,
,,,,32061,001,2025-10-21_14h37.44.801,HW_LDT_1,2024.2.4,MacIntel,107.5268817,,,,,,,,,,,,,,,,,,,,,534.7968,534.9921,534.9922,535.4907,,,,,,,,,,,,,,0.7843,1,,,,,,,,,,,,,,m,,,,,,,,,,,,,,,117,0,535.4912,536.2818,m,1,0.7843,,[],[],[],[],[],[],[],536.2818,538.2829,538.2829,538.2831,[],[],[],[],[],[],[],,538.2831,538.2833,-0.042873677,-0.387161045,0,0,0,,0,116,116,136,1,4,word,RADICAL,print,radical_p.png,,,,,,
,,,,32061,001,2025-10-21_14h37.44.801,HW_LDT_1,2024.2.4,MacIntel,107.5268817,,,,,,,,,,,,,,,,,,,,,538.2846,538.4807,538.4807,538.9775,,,,,,,,,,,,,,0.918,0,,,,,,,,,,,,,,m,,,,,,,,,,,,,,,118,0,538.9781,539.899,z,0,0.918,,[],[],[],[],[],[],[],539.899,541.8947,541.8947,541.8949,[],[],[],[],[],[],[],,541.8949,541.895,-0.042873677,-0.387161045,0,0,0,,0,117,117,89,1,4,word,CAPACITY,cursive,capacity_c.png,,,,,,
,,,,32061,001,2025-10-21_14h37.44.801,HW_LDT_1,2024.2.4,MacIntel,107.5268817,,,,,,,,,,,,,,,,,,,,,541.8959,542.0949,542.095,542.591,,,,,,,,,,,,,,0.7697,0,,,,,,,,,,,,,,m,,,,,,,,,,,,,,,119,0,542.5916,543.3638,z,0,0.7697,,[],[],[],[],[],[],[],543.3639,545.3661,545.3661,545.3662,[],[],[],[],[],[],[],,545.3662,545.3662,-0.042873677,-0.387161045,0,0,0,,0,118,118,106,1,4,word,ELABORATE,cursive,elaborate_c.png,,,,,,
,,,,32061,001,2025-10-21_14h37.44.801,HW_LDT_1,2024.2.4,MacIntel,107.5268817,,,,,,,,,,,,,,,,,,,,,545.3666,545.5609,545.561,546.0646,,,,,,,,,,,,,,0.9679,1,,,,,,,,,,,,,,z,,,,,,,,,,,,,,,120,1,546.0653,547.0369,z,1,0.9679,,[],[],[],[],[],[],[],547.037,549.0371,549.0371,550.2035,[],[],[],[],[],[],[],z,550.2036,550.2036,-0.042873677,-0.387161045,0,0,0,,0,119,119,7,1,4,RL,casena,print,casena_p.png,1.1654,,,,,
,,,,32061,001,2025-10-21_14h37.44.801,HW_LDT_1,2024.2.4,MacIntel,107.5268817,,,,,,,,,,,,,,,,,,,,,550.2045,550.4038,550.4038,550.9029,,,,,,,,,,,,,,0.5942,1,,,,,,,,,,,,,,z,,,,,,,,,,,,,,,121,0,550.9035,551.4993,z,1,0.5942,,[],[],[],[],[],[],[],551.4993,553.4993,553.4993,553.4995,[],[],[],[],[],[],[],,553.4996,553.4997,-0.042873677,-0.387161045,0,0,0,,0,120,120,49,1,4,RL,vesofity,cursive,vesofity_c.png,,,,,,
,,,,32061,001,2025-10-21_14h37.44.801,HW_LDT_1,2024.2.4,MacIntel,107.5268817,,,,,,,,,,,,,,,,,,,,,553.5008,553.6985,553.6986,554.201,,,,,,,,,,,,,,0.7483,1,,,,,,,,,,,,,,z,,,,,,,,,,,,,,,122,0,554.2013,554.9533,z,1,0.7483,,[],[],[],[],[],[],[],554.9534,556.952,556.952,556.9522,[],[],[],[],[],[],[],,556.9522,556.9523,-0.042873677,-0.387161045,0,0,0,,0,121,121,42,1,4,RL,revune,print,revune_p.png,,,,,,
,,,,32061,001,2025-10-21_14h37.44.801,HW_LDT_1,2024.2.4,MacIntel,107.5268817,,,,,,,,,,,,,,,,,,,,,556.9532,557.1537,557.1538,557.653,,,,,,,,,,,,,,0.616,1,,,,,,,,,,,,,,z,,,,,,,,,,,,,,,123,0,557.6536,558.27,z,1,0.616,,[],[],[],[],[],[],[],558.27,560.2657,560.2658,560.266,[],[],[],[],[],[],[],,560.266,560.266,-0.042873677,-0.387161045,0,0,0,,0,122,122,74,1,4,TL,rerite,print,rerite_p.png,,,,,,
,,,,32061,001,2025-10-21_14h37.44.801,HW_LDT_1,2024.2.4,MacIntel,107.5268817,,,,,,,,,,,,,,,,,,,,,560.267,560.4661,560.4661,560.9662,,,,,,,,,,,,,,0.5554,1,,,,,,,,,,,,,,z,,,,,,,,,,,,,,,124,0,560.9668,561.5243,z,1,0.5554,,[],[],[],[],[],[],[],561.5244,563.52,563.52,563.5201,[],[],[],[],[],[],[],,563.5201,563.5202,-0.042873677,-0.387161045,0,0,0,,0,123,123,33,1,4,RL,pamest,cursive,pamest_c.png,,,,,,
,,,,32061,001,2025-10-21_14h37.44.801,HW_LDT_1,2024.2.4,MacIntel,107.5268817,,,,,,,,,,,,,,,,,,,,,563.5213,563.7198,563.7198,564.22,,,,,,,,,,,,,,0.8877,1,,,,,,,,,,,,,,m,,,,,,,,,,,,,,,125,1,564.2202,565.1118,m,1,0.8877,,[],[],[],[],[],[],[],565.1119,567.1079,567.1081,569.1484,[],[],[],[],[],[],[],z,569.1485,569.1485,-0.042873677,-0.387161045,0,0,0,,0,124,124,81,1,4,word,ADVISORY,cursive,advisory_c.png,2.0377,,,,,
,,,,32061,001,2025-10-21_14h37.44.801,HW_LDT_1,2024.2.4,MacIntel,107.5268817,,,,,,,,,,,,,,,,,,,,,569.1491,569.3492,569.3492,569.8491,,,,,,,,,,,,,,0.9946,1,,,,,,,,,,,,,,m,,,,,,,,,,,,,,,126,0,569.8498,570.849,m,1,0.9946,,[],[],[],[],[],[],[],570.8491,572.849,572.849,572.8491,[],[],[],[],[],[],[],,572.8492,572.8492,-0.042873677,-0.387161045,0,0,0,,0,125,125,154,1,4,word,STORAGE,print,storage_p.png,,,,,,
,,,,32061,001,2025-10-21_14h37.44.801,HW_LDT_1,2024.2.4,MacIntel,107.5268817,,,,,,,,,,,,,,,,,,,,,572.8501,573.0493,573.0494,573.5443,,,,,,,,,,,,,,0.6082,1,,,,,,,,,,,,,,m,,,,,,,,,,,,,,,127,0,573.545,574.1575,m,1,0.6082,,[],[],[],[],[],[],[],574.1576,576.1535,576.1535,576.1537,[],[],[],[],[],[],[],,576.1538,576.154,-0.042873677,-0.387161045,0,0,0,,0,126,126,122,1,4,word,MOBILE,print,mobile_p.png,,,,,,
,,,,32061,001,2025-10-21_14h37.44.801,HW_LDT_1,2024.2.4,MacIntel,107.5268817,,,,,,,,,,,,,,,,,,,,,576.1549,576.3494,576.3494,576.8525,,,,,,,,,,,,,,0.576,1,,,,,,,,,,,,,,z,,,,,,,,,,,,,,,128,0,576.853,577.4324,z,1,0.576,,[],[],[],[],[],[],[],577.4325,579.4281,579.4281,579.4282,[],[],[],[],[],[],[],,579.4282,579.4283,-0.042873677,-0.387161045,0,0,0,,0,127,127,32,1,4,RL,patisic,cursive,patisic_c.png,,,,,,
,,,,32061,001,2025-10-21_14h37.44.801,HW_LDT_1,2024.2.4,MacIntel,107.5268817,,,,,,,,,,,,,,,,,,,,,579.4296,579.6235,579.6235,580.1282,,,,,,,,,,,,,,0.5222,1,,,,,,,,,,,,,,z,,,,,,,,,,,,,,,129,0,580.1288,580.6571,z,1,0.5222,,[],[],[],[],[],[],[],580.6572,582.6568,582.6568,582.6569,[],[],[],[],[],[],[],,582.657,582.657,-0.042873677,-0.387161045,0,0,0,,0,128,128,17,1,4,RL,denficy,cursive,denficy_c.png,,,,,,
,,,,32061,001,2025-10-21_14h37.44.801,HW_LDT_1,2024.2.4,MacIntel,107.5268817,,,,,,,,,,,,,,,,,,,,,582.6581,582.8575,582.8575,583.3577,,,,,,,,,,,,,,0.5572,1,,,,,,,,,,,,,,z,,,,,,,,,,,,,,,130,0,583.3581,583.9201,z,1,0.5572,,[],[],[],[],[],[],[],583.9201,585.9151,585.9151,585.9153,[],[],[],[],[],[],[],,585.9153,585.9154,-0.042873677,-0.387161045,0,0,0,,0,129,129,56,1,4,TL,donimant,cursive,donimant_c.png,,,,,,
,,,,32061,001,2025-10-21_14h37.44.801,HW_LDT_1,2024.2.4,MacIntel,107.5268817,,,,,,,,,,,,,,,,,,,,,585.9164,586.1112,586.1113,586.6117,,,,,,,,,,,,,,0.8248,0,,,,,,,,,,,,,,z,,,,,,,,,,,,,,,131,0,586.6122,587.4409,m,0,0.8248,,[],[],[],[],[],[],[],587.4409,589.4408,589.4409,589.4411,[],[],[],[],[],[],[],,589.4411,589.4412,-0.042873677,-0.387161045,0,0,0,,0,130,130,51,1,4,TL,adsivory,cursive,adsivory_c.png,,,,,,
,,,,32061,001,2025-10-21_14h37.44.801,HW_LDT_1,2024.2.4,MacIntel,107.5268817,,,,,,,,,,,,,,,,,,,,,589.4423,589.6409,589.641,590.1362,,,,,,,,,,,,,,1.0561,1,,,,,,,,,,,,,,m,,,,,,,,,,,,,,,132,0,590.137,591.1983,m,1,1.0561,,[],[],[],[],[],[],[],591.1983,593.1984,593.1984,593.1985,[],[],[],[],[],[],[],,593.1985,593.1986,-0.042873677,-0.387161045,0,0,0,,0,131,131,118,1,4,word,MEDICINE,cursive,medicine_c.png,,,,,,
,,,,32061,001,2025-10-21_14h37.44.801,HW_LDT_1,2024.2.4,MacIntel,107.5268817,,,,,,,,,,,,,,,,,,,,,593.1994,593.3991,593.3991,593.9009,,,,,,,,,,,,,,0.6822,0,,,,,,,,,,,,,,m,,,,,,,,,,,,,,,133,0,593.9015,594.587,z,0,0.6822,,[],[],[],[],[],[],[],594.5871,596.5822,596.5822,596.5825,[],[],[],[],[],[],[],,596.5825,596.5826,-0.042873677,-0.387161045,0,0,0,,0,132,132,87,1,4,word,CAFETERIA,cursive,cafeteria_c.png,,,,,,
,,,,32061,001,2025-10-21_14h37.44.801,HW_LDT_1,2024.2.4,MacIntel,107.5268817,,,,,,,,,,,,,,,,,,,,,596.5836,596.7787,596.7787,597.2785,,,,,,,,,,,,,,0.4873,1,,,,,,,,,,,,,,m,,,,,,,,,,,,,,,134,0,597.2789,597.7701,m,1,0.4873,,[],[],[],[],[],[],[],597.7702,599.766,599.7661,599.7663,[],[],[],[],[],[],[],,599.7663,599.7665,-0.042873677,-0.387161045,0,0,0,,0,133,133,119,1,4,word,MEMORY,print,memory_p.png,,,,,,
,,,,32061,001,2025-10-21_14h37.44.801,HW_LDT_1,2024.2.4,MacIntel,107.5268817,,,,,,,,,,,,,,,,,,,,,599.7676,599.961,599.961,600.4616,,,,,,,,,,,,,,0.8535,0,,,,,,,,,,,,,,m,,,,,,,,,,,,,,,135,0,600.4622,601.3198,z,0,0.8535,,[],[],[],[],[],[],[],601.3198,603.32,603.3201,603.3201,[],[],[],[],[],[],[],,603.3201,603.3202,-0.042873677,-0.387161045,0,0,0,,0,134,134,91,1,4,word,CARDINAL,cursive,cardinal_c.png,,,,,,
,,,,32061,001,2025-10-21_14h37.44.801,HW_LDT_1,2024.2.4,MacIntel,107.5268817,,,,,,,,,,,,,,,,,,,,,603.3211,603.5163,603.5164,604.016,,,,,,,,,,,,,,0.6084,1,,,,,,,,,,,,,,z,,,,,,,,,,,,,,,136,0,604.0168,604.6283,z,1,0.6084,,[],[],[],[],[],[],[],604.6284,606.6278,606.6279,606.6282,[],[],[],[],[],[],[],,606.6283,606.6285,-0.042873677,-0.387161045,0,0,0,,0,135,135,45,1,4,RL,spetisic,cursive,spetisic_c.png,,,,,,
,,,,32061,001,2025-10-21_14h37.44.801,HW_LDT_1,2024.2.4,MacIntel,107.5268817,,,,,,,,,,,,,,,,,,,,,606.6307,606.8276,606.8277,607.3244,,,,,,,,,,,,,,0.6738,0,,,,,,,,,,,,,,m,,,,,,,,,,,,,,,137,0,607.3251,608.0034,z,0,0.6738,,[],[],[],[],[],[],[],608.0035,609.9991,609.9991,609.9992,[],[],[],[],[],[],[],,609.9993,609.9994,-0.042873677,-0.387161045,0,0,0,,0,136,136,99,1,4,word,DEBATE,cursive,debate_c.png,,,,,,
,,,,32061,001,2025-10-21_14h37.44.801,HW_LDT_1,2024.2.4,MacIntel,107.5268817,,,,,,,,,,,,,,,,,,,,,610.0006,610.1942,610.1942,610.6993,,,,,,,,,,,,,,0.5012,0,,,,,,,,,,,,,,m,,,,,,,,,,,,,,,138,0,610.6999,611.2064,z,0,0.5012,,[],[],[],[],[],[],[],611.2065,613.206,613.206,613.2062,[],[],[],[],[],[],[],,613.2062,613.2063,-0.042873677,-0.387161045,0,0,0,,0,137,137,96,1,4,word,CONSIDER,cursive,consider_c.png,,,,,,
,,,,32061,001,2025-10-21_14h37.44.801,HW_LDT_1,2024.2.4,MacIntel,107.5268817,,,,,,,,,,,,,,,,,,,,,613.207,613.4062,613.4062,613.9074,,,,,,,,,,,,,,0.6943,0,,,,,,,,,,,,,,m,,,,,,,,,,,,,,,139,0,613.9078,614.6041,z,0,0.6943,,[],[],[],[],[],[],[],614.6041,616.6032,616.6033,616.6035,[],[],[],[],[],[],[],,616.6035,616.6035,-0.042873677,-0.387161045,0,0,0,,0,138,138,114,1,4,word,LOCATE,cursive,locate_c.png,,,,,,
,,,,32061,001,2025-10-21_14h37.44.801,HW_LDT_1,2024.2.4,MacIntel,107.5268817,,,,,,,,,,,,,,,,,,,,,616.6049,616.7972,616.7972,617.2985,,,,,,,,,,,,,,0.6597,1,,,,,,,,,,,,,,z,,,,,,,,,,,,,,,140,0,617.2991,617.9638,z,1,0.6597,,[],[],[],[],[],[],[],617.9639,619.9618,619.9619,619.9621,[],[],[],[],[],[],[],,619.9622,619.9622,-0.042873677,-0.387161045,0,0,0,,0,139,139,26,1,4,RL,mesibine,cursive,mesibine_c.png,,,,,,
,,,,32061,001,2025-10-21_14h37.44.801,HW_LDT_1,2024.2.4,MacIntel,107.5268817,,,,,,,,,,,,,,,,,,,,,619.9636,620.1587,620.1588,620.6594,,,,,,,,,,,,,,0.5192,1,,,,,,,,,,,,,,z,,,,,,,,,,,,,,,141,0,620.6599,621.1837,z,1,0.5192,,[],[],[],[],[],[],[],621.1838,623.183,623.1831,623.1833,[],[],[],[],[],[],[],,623.1834,623.1834,-0.042873677,-0.387161045,0,0,0,,0,140,140,61,1,4,TL,lotace,cursive,lotace_c.png,,,,,,
,,,,32061,001,2025-10-21_14h37.44.801,HW_LDT_1,2024.2.4,MacIntel,107.5268817,,,,,,,,,,,,,,,,,,,,,623.1846,623.3829,623.383,623.883,,,,,,,,,,,,,,0.5915,1,,,,,,,,,,,,,,m,,,,,,,,,,,,,,,142,0,623.8837,624.4801,m,1,0.5915,,[],[],[],[],[],[],[],624.4802,626.4816,626.4816,626.4817,[],[],[],[],[],[],[],,626.4818,626.4819,-0.042873677,-0.387161045,0,0,0,,0,141,141,157,1,4,word,VALIDITY,print,validity_p.png,,,,,,
,,,,32061,001,2025-10-21_14h37.44.801,HW_LDT_1,2024.2.4,MacIntel,107.5268817,,,,,,,,,,,,,,,,,,,,,626.4828,626.6844,626.6845,627.1827,,,,,,,,,,,,,,0.5802,1,,,,,,,,,,,,,,m,,,,,,,,,,,,,,,143,0,627.1833,627.7694,m,1,0.5802,,[],[],[],[],[],[],[],627.7695,629.7662,629.7662,629.7663,[],[],[],[],[],[],[],,629.7663,629.7665,-0.042873677,-0.387161045,0,0,0,,0,142,142,105,1,4,word,EDITOR,print,editor_p.png,,,,,,
,,,,32061,001,2025-10-21_14h37.44.801,HW_LDT_1,2024.2.4,MacIntel,107.5268817,,,,,,,,,,,,,,,,,,,,,629.7675,629.9672,629.9672,630.4674,,,,,,,,,,,,,,0.5561,0,,,,,,,,,,,,,,m,,,,,,,,,,,,,,,144,0,630.4693,631.0286,z,0,0.5561,,[],[],[],[],[],[],[],631.0286,633.0241,633.0241,633.0243,[],[],[],[],[],[],[],,633.0243,633.0244,-0.042873677,-0.387161045,0,0,0,,0,143,143,108,1,4,word,FORTUNE,cursive,fortune_c.png,,,,,,
,,,,32061,001,2025-10-21_14h37.44.801,HW_LDT_1,2024.2.4,MacIntel,107.5268817,,,,,,,,,,,,,,,,,,,,,633.0256,633.2238,633.2239,633.7249,,,,,,,,,,,,,,0.5185,1,,,,,,,,,,,,,,z,,,,,,,,,,,,,,,145,0,633.7255,634.2491,z,1,0.5185,,[],[],[],[],[],[],[],634.2491,636.2489,636.2489,636.2491,[],[],[],[],[],[],[],,636.2491,636.2493,-0.042873677,-0.387161045,0,0,0,,0,144,144,50,1,4,RL,vecelan,cursive,vecelan_c.png,,,,,,
,,,,32061,001,2025-10-21_14h37.44.801,HW_LDT_1,2024.2.4,MacIntel,107.5268817,,,,,,,,,,,,,,,,,,,,,636.2504,636.4492,636.4493,636.9494,,,,,,,,,,,,,,0.7074,1,,,,,,,,,,,,,,z,,,,,,,,,,,,,,,146,0,636.9498,637.6582,z,1,0.7074,,[],[],[],[],[],[],[],637.6582,639.6579,639.6579,639.6581,[],[],[],[],[],[],[],,639.6582,639.6583,-0.042873677,-0.387161045,0,0,0,,0,145,145,20,1,4,RL,gralekul,print,gralekul_p.png,,,,,,
,,,,32061,001,2025-10-21_14h37.44.801,HW_LDT_1,2024.2.4,MacIntel,107.5268817,,,,,,,,,,,,,,,,,,,,,639.6596,639.8577,639.8578,640.3577,,,,,,,,,,,,,,0.6454,1,,,,,,,,,,,,,,z,,,,,,,,,,,,,,,147,0,640.3582,641.0074,z,1,0.6454,,[],[],[],[],[],[],[],641.0075,643.0077,643.0077,643.0079,[],[],[],[],[],[],[],,643.0079,643.008,-0.042873677,-0.387161045,0,0,0,,0,146,146,24,1,4,RL,marmipal,cursive,marmipal_c.png,,,,,,
,,,,32061,001,2025-10-21_14h37.44.801,HW_LDT_1,2024.2.4,MacIntel,107.5268817,,,,,,,,,,,,,,,,,,,,,643.0091,643.2075,643.2076,643.7086,,,,,,,,,,,,,,0.9017,1,,,,,,,,,,,,,,z,,,,,,,,,,,,,,,148,0,643.7091,644.6149,z,1,0.9017,,[],[],[],[],[],[],[],644.6149,646.6152,646.6153,646.6154,[],[],[],[],[],[],[],,646.6155,646.6155,-0.04311756,-0.386648479,0,0,0,,0,147,147,13,1,4,RL,crisival,cursive,crisival_c.png,,,,,,
,,,,32061,001,2025-10-21_14h37.44.801,HW_LDT_1,2024.2.4,MacIntel,107.5268817,,,,,,,,,,,,,,,,,,,,,646.6163,646.8172,646.8172,647.3146,,,,,,,,,,,,,,0.5514,0,,,,,,,,,,,,,,m,,,,,,,,,,,,,,,149,0,647.3149,647.8693,z,0,0.5514,,[],[],[],[],[],[],[],647.8693,649.8655,649.8655,649.8657,[],[],[],[],[],[],[],,649.8657,649.8658,-0.04311756,-0.386648479,0,0,0,,0,148,148,137,1,4,word,RAPIDLY,cursive,rapidly_c.png,,,,,,
,,,,32061,001,2025-10-21_14h37.44.801,HW_LDT_1,2024.2.4,MacIntel,107.5268817,,,,,,,,,,,,,,,,,,,,,649.867,650.0649,650.065,650.5601,,,,,,,,,,,,,,0.6733,1,,,,,,,,,,,,,,z,,,,,,,,,,,,,,,150,1,650.5603,651.2356,z,1,0.6733,,[],[],[],[],[],[],[],651.2357,653.2368,653.2368,653.8441,[],[],[],[],[],[],[],m,653.8441,653.8442,-0.04311756,-0.386648479,0,0,0,,0,149,149,27,1,4,RL,menowy,print,menowy_p.png,0.6043,,,,,
,,,,32061,001,2025-10-21_14h37.44.801,HW_LDT_1,2024.2.4,MacIntel,107.5268817,,,,,,,,,,,,,,,,,,,,,653.8449,654.0444,654.0444,654.5447,,,,,,,,,,,,,,0.8667,1,,,,,,,,,,,,,,m,,,,,,,,,,,,,,,151,0,654.5453,655.4181,m,1,0.8667,,[],[],[],[],[],[],[],655.4181,657.4196,657.4196,657.4199,[],[],[],[],[],[],[],,657.4199,657.4201,-0.04311756,-0.386648479,0,0,0,,0,150,150,107,1,4,word,EVIDENT,print,evident_p.png,,,,,,
,,,,32061,001,2025-10-21_14h37.44.801,HW_LDT_1,2024.2.4,MacIntel,107.5268817,,,,,,,,,,,,,,,,,,,,,657.4212,657.6195,657.6195,658.1151,,,,,,,,,,,,,,0.6127,1,,,,,,,,,,,,,,m,,,,,,,,,,,,,,,152,0,658.1155,658.7322,m,1,0.6127,,[],[],[],[],[],[],[],658.7322,660.7309,660.7309,660.7311,[],[],[],[],[],[],[],,660.7312,660.7313,-0.04311756,-0.386648479,0,0,0,,0,151,151,127,1,4,word,ORIGINAL,print,original_p.png,,,,,,
,,,,32061,001,2025-10-21_14h37.44.801,HW_LDT_1,2024.2.4,MacIntel,107.5268817,,,,,,,,,,,,,,,,,,,,,660.7324,660.931,660.931,661.4282,,,,,,,,,,,,,,0.5851,1,,,,,,,,,,,,,,m,,,,,,,,,,,,,,,153,0,661.4285,662.0141,m,1,0.5851,,[],[],[],[],[],[],[],662.0142,664.0157,664.0158,664.0159,[],[],[],[],[],[],[],,664.0159,664.0161,-0.04311756,-0.386648479,0,0,0,,0,152,152,149,1,4,word,SENATOR,print,senator_p.png,,,,,,
,,,,32061,001,2025-10-21_14h37.44.801,HW_LDT_1,2024.2.4,MacIntel,107.5268817,,,,,,,,,,,,,,,,,,,,,664.0171,664.2157,664.2157,664.7157,,,,,,,,,,,,,,0.7689,1,,,,,,,,,,,,,,z,,,,,,,,,,,,,,,154,0,664.7163,665.4906,z,1,0.7689,,[],[],[],[],[],[],[],665.4908,667.483,667.4832,667.4837,[],[],[],[],[],[],[],,667.4838,667.4839,-0.04311756,-0.386648479,0,0,0,,0,153,153,19,1,4,RL,elacodate,cursive,elacodate_c.png,,,,,,
,,,,32061,001,2025-10-21_14h37.44.801,HW_LDT_1,2024.2.4,MacIntel,107.5268817,,,,,,,,,,,,,,,,,,,,,667.4854,667.6861,667.6862,668.1778,,,,,,,,,,,,,,0.7628,0,,,,,,,,,,,,,,z,,,,,,,,,,,,,,,155,0,668.1787,668.9439,m,0,0.7628,,[],[],[],[],[],[],[],668.944,670.9452,670.9453,670.9455,[],[],[],[],[],[],[],,670.9456,670.9457,-0.04311756,-0.386648479,0,0,0,,0,154,154,53,1,4,TL,cemerony,print,cemerony_p.png,,,,,,
,,,,32061,001,2025-10-21_14h37.44.801,HW_LDT_1,2024.2.4,MacIntel,107.5268817,,,,,,,,,,,,,,,,,,,,,670.947,671.1445,671.1445,671.6451,,,,,,,,,,,,,,0.5048,1,,,,,,,,,,,,,,m,,,,,,,,,,,,,,,156,0,671.6457,672.1531,m,1,0.5048,,[],[],[],[],[],[],[],672.1533,674.1533,674.1534,674.1536,[],[],[],[],[],[],[],,674.1536,674.1536,-0.04311756,-0.386648479,0,0,0,,0,155,155,147,1,4,word,ROMANTIC,print,romantic_p.png,,,,,,
,,,,32061,001,2025-10-21_14h37.44.801,HW_LDT_1,2024.2.4,MacIntel,107.5268817,,,,,,,,,,,,,,,,,,,,,674.1547,674.3533,674.3533,674.8534,,,,,,,,,,,,,,1.161,1,,,,,,,,,,,,,,m,,,,,,,,,,,,,,,157,0,674.8539,676.02,m,1,1.161,,[],[],[],[],[],[],[],676.02,678.0201,678.0202,678.0204,[],[],[],[],[],[],[],,678.0205,678.0206,-0.04311756,-0.386648479,0,0,0,,0,156,156,103,1,4,word,DISPUTE,print,dispute_p.png,,,,,,
,,,,32061,001,2025-10-21_14h37.44.801,HW_LDT_1,2024.2.4,MacIntel,107.5268817,,,,,,,,,,,,,,,,,,,,,678.0217,678.2202,678.2202,678.7199,,,,,,,,,,,,,,0.5074,1,,,,,,,,,,,,,,m,,,,,,,,,,,,,,,158,0,678.7205,679.2322,m,1,0.5074,,[],[],[],[],[],[],[],679.2322,681.2315,681.2316,681.2318,[],[],[],[],[],[],[],,681.2319,681.2319,-0.04311756,-0.386648479,0,0,0,,0,157,157,120,1,4,word,MILITARY,print,military_p.png,,,,,,
,,,,32061,001,2025-10-21_14h37.44.801,HW_LDT_1,2024.2.4,MacIntel,107.5268817,,,,,,,,,,,,,,,,,,,,,681.233,681.4276,681.4276,681.9316,,,,,,,,,,,,,,0.5243,0,,,,,,,,,,,,,,m,,,,,,,,,,,,,,,159,0,681.9321,682.4619,z,0,0.5243,,[],[],[],[],[],[],[],682.462,684.4616,684.4617,684.4619,[],[],[],[],[],[],[],,684.462,684.4621,-0.04311756,-0.386648479,0,0,0,,0,158,158,102,1,4,word,DENSITY,cursive,density_c.png,,,,,,
,,,,32061,001,2025-10-21_14h37.44.801,HW_LDT_1,2024.2.4,MacIntel,107.5268817,,,,,,,,,,,,,,,,,,,,,684.4632,684.6617,684.6618,685.1616,,,,,,,,,,,,,,1.3707,1,,,,,,,,,,,,,,m,,,,,,,,,,,,,,,160,0,685.1621,686.5367,m,1,1.3707,,[],[],[],[],[],[],[],686.5368,688.5365,688.5365,688.5367,[],[],[],[],[],[],[],,688.5367,688.5368,-0.04311756,-0.386648479,0,0,0,,0,159,159,112,1,4,word,LIBERAL,cursive,liberal_c.png,,,,,,
,,,,32061,001,2025-10-21_14h37.44.801,HW_LDT_1,2024.2.4,MacIntel,107.5268817,,,,,,,,,,,,,,,,,,,,,,,,,,,,,,,,,,,,,,,,,,,,,,,,,,,,,,,,,,,,,,,,,,,,,,,,,,,,,,,,,,,,,,,,,,,,,,,,,,,,,,,,,,,,,,,,,,,,,688.5375,693.5371
