counterbalance_lists.group,counterbalance_lists.remaining,get_list.started,get_list.stopped,participant,session,date,expName,psychopyVersion,OS,frameRate,Instructions.started,Instructions.stopped,key_resp.keys,instr_done_touch.x,instr_done_touch.y,instr_done_touch.leftButton,instr_done_touch.midButton,instr_done_touch.rightButton,instr_done_touch.clicked_name,start_instr.thisRepN,start_instr.thisTrialN,start_instr.thisN,start_instr.thisIndex,start_instr.ran,pageN,phase,instruct_text,has_image,instruct_image,showProgress.started,showProgress.stopped,fix.started,fix.stopped,prac.started,prac.stopped,response.keys,response.corr,touch_resp.x,touch_resp.y,touch_resp.leftButton,touch_resp.midButton,touch_resp.rightButton,touch_resp.time,touch_resp.clicked_name,rt,corr,feedback.started,feedback.stopped,trials.thisRepN,trials.thisTrialN,trials.thisN,trials.thisIndex,trials.ran,TrialID,StimulusType,Condition,PrimeDuration,Prime,Target,corrAns,response.rt,response.duration,Instructions_expt.started,Instructions_expt.stopped,key_resp_3.keys,instr_done_touch_3.x,instr_done_touch_3.y,instr_done_touch_3.leftButton,instr_done_touch_3.midButton,instr_done_touch_3.rightButton,instr_done_touch_3.clicked_name,instr_experiment.thisRepN,instr_experiment.thisTrialN,instr_experiment.thisN,instr_experiment.thisIndex,instr_experiment.ran,trialID,flag,maintask.started,maintask.stopped,key_resp_2.keys,key_resp_2.corr,key_resp_2.rt,key_resp_2.duration,targ_click.x,targ_click.y,targ_click.leftButton,targ_click.midButton,targ_click.rightButton,targ_click.time,targ_click.clicked_name,ITI.started,ITI.stopped,probe.started,probe.stopped,click_probe.x,click_probe.y,click_probe.leftButton,click_probe.midButton,click_probe.rightButton,click_probe.time,click_probe.clicked_name,key_resp_probe.keys,Break.started,Break.stopped,break_done_touch.x,break_done_touch.y,break_done_touch.leftButton,break_done_touch.midButton,break_done_touch.rightButton,break_done_keyboard.keys,list1_trials.thisRepN,list1_trials.thisTrialN,list1_trials.thisN,list1_trials.thisIndex,list1_trials.ran,list_id,item_type,string,font,stim_file,key_resp_probe.rt,key_resp_probe.duration,break_done_keyboard.rt,break_done_keyboard.duration,End.started,End.stopped
list1,,54.7465,54.7467,32075,001,2025-12-03_24h44.10.284,HW_LDT_1,2024.2.4,MacIntel,60.0024001,,,,,,,,,,,,,,,,,,,,,,,,,,,,,,,,,,,,,,,,,,,,,,,,,,,,,,,,,,,,,,,,,,,,,,,,,,,,,,,,,,,,,,,,,,,,,,,,,,,,,,,,,,,,,,,,,,,,,
,,,,32075,001,2025-12-03_24h44.10.284,HW_LDT_1,2024.2.4,MacIntel,60.0024001,54.7643,56.1128,,-0.045837674,-0.374578993,1,0,1,instr_done_button,0,0,0,0,1,1,instructions,"INSTRUCTIONS
At the start of each trial, look at the plus sign  (+) in the center of the screen.  This tells you that a trial is about to begin and where to look. Second, the plus sign will disappear and a string of letters will appear. Your task is to determine if the string of letters is a word or not. If the item is a word press the M key (on keyboard)  or touch the word button (phone/tablet).  If the item is not a word,  press the  Z key (on keyboard)  or touch the nonword button (on phone/tablet). The items will be presented for a short time. 
Press the space bar or touch  continue.",0,,,,,,,,,,,,,,,,,,,,,,,,,,,,,,,,,,,,,,,,,,,,,,,,,,,,,,,,,,,,,,,,,,,,,,,,,,,,,,,,,,,,,,,,,,,,,,,,,,,
,,,,32075,001,2025-12-03_24h44.10.284,HW_LDT_1,2024.2.4,MacIntel,60.0024001,56.1148,56.2088,,-0.045837674,-0.374578993,0,0,1,instr_done_button,0,1,1,1,1,2,instructions,"If your device has a keyboard, press the 'Z' key for nonwords and the 'M' key for words.





Press the space bar or touch the button below to continue.",0,keyboard-example.gif,,,,,,,,,,,,,,,,,,,,,,,,,,,,,,,,,,,,,,,,,,,,,,,,,,,,,,,,,,,,,,,,,,,,,,,,,,,,,,,,,,,,,,,,,,,,,,,,,,
,,,,32075,001,2025-12-03_24h44.10.284,HW_LDT_1,2024.2.4,MacIntel,60.0024001,56.2109,57.9783,,-0.01344184,-0.350690104,1,0,1,instr_done_button,0,2,2,2,1,3,instructions,"If you are using a touchscreen only device, use the buttons on the screen. Do not use the mouse.





Press the space bar or touch the button below to continue.",0,touchscreen-example.gif,,,,,,,,,,,,,,,,,,,,,,,,,,,,,,,,,,,,,,,,,,,,,,,,,,,,,,,,,,,,,,,,,,,,,,,,,,,,,,,,,,,,,,,,,,,,,,,,,,
,,,,32075,001,2025-12-03_24h44.10.284,HW_LDT_1,2024.2.4,MacIntel,60.0024001,57.9809,58.0785,,-0.01344184,-0.350690104,0,0,1,instr_done_button,0,3,3,3,1,4,instructions,"It is very important that you respond as quickly and accurately as possible, as each letter string will only be on the screen for two seconds. If you do not respond within this time, the message 'Too slow!' will be displayed and the experiment will progress to the next letter string. The first 20 trials will be practice trials and you will receive feedback on your answers. 

Press the space bar or touch the button below to start the practice trials.",0,,,,,,,,,,,,,,,,,,,,,,,,,,,,,,,,,,,,,,,,,,,,,,,,,,,,,,,,,,,,,,,,,,,,,,,,,,,,,,,,,,,,,,,,,,,,,,,,,,,
,,,,32075,001,2025-12-03_24h44.10.284,HW_LDT_1,2024.2.4,MacIntel,60.0024001,,,,,,,,,,,,,,,,,,,,58.1013,58.2771,58.2775,58.7759,58.7763,60.6949,,0,[0.34554253472222224],[-0.26318142361111113],[1],[0],[1],[1.9150000000000063],"[""button_right""]",1.915,1,60.6954,61.1951,0,0,0,6,1,1007,WORD,UN,16,tropic,ZOMBIE,m,,,,,,,,,,,,,,,,,,,,,,,,,,,,,,,,,,,,,,,,,,,,,,,,,,,,,,,,,,,,,,,,,,,
,,,,32075,001,2025-12-03_24h44.10.284,HW_LDT_1,2024.2.4,MacIntel,60.0024001,,,,,,,,,,,,,,,,,,,,61.1968,61.3923,61.3924,61.8943,61.8959,64.043,,0,[0.2602907986111111],[-0.3212065972222222],[1],[0],[1],[2.145699999999266],"[""button_right""]",2.1457,1,64.0432,64.5416,0,1,1,0,1,1001,WORD,"ID",33,utopia,UTOPIA,m,,,,,,,,,,,,,,,,,,,,,,,,,,,,,,,,,,,,,,,,,,,,,,,,,,,,,,,,,,,,,,,,,,,
,,,,32075,001,2025-12-03_24h44.10.284,HW_LDT_1,2024.2.4,MacIntel,60.0024001,,,,,,,,,,,,,,,,,,,,64.5436,64.7428,64.7429,65.2431,65.2441,66.6099,,0,[-0.3135677083333333],[-0.27856336805555554],[1],[0],[1],[1.3645999999977647],"[""button_left""]",1.3646,1,66.6101,67.1089,0,2,2,12,1,1013,NW,UN,33,adveil,SPRINY,z,,,,,,,,,,,,,,,,,,,,,,,,,,,,,,,,,,,,,,,,,,,,,,,,,,,,,,,,,,,,,,,,,,,
,,,,32075,001,2025-12-03_24h44.10.284,HW_LDT_1,2024.2.4,MacIntel,60.0024001,,,,,,,,,,,,,,,,,,,,67.1109,67.3082,67.3082,67.8082,67.8095,68.8778,,0,[0.30463541666666666],[-0.28807725694444447],[1],[0],[1],[1.066900000002235],"[""button_right""]",1.0669,1,68.8781,69.377,0,3,3,2,1,1003,WORD,"ID",16,almond,ALMOND,m,,,,,,,,,,,,,,,,,,,,,,,,,,,,,,,,,,,,,,,,,,,,,,,,,,,,,,,,,,,,,,,,,,,
,,,,32075,001,2025-12-03_24h44.10.284,HW_LDT_1,2024.2.4,MacIntel,60.0024001,,,,,,,,,,,,,,,,,,,,69.379,69.5751,69.5753,70.0769,70.0783,73.3994,z,1,[],[],[],[],[],[],[],3.3038,1,73.3996,73.8944,0,4,4,15,1,1016,NW,UN,16,mushed,WHAISE,z,3.3038,,,,,,,,,,,,,,,,,,,,,,,,,,,,,,,,,,,,,,,,,,,,,,,,,,,,,,,,,,,,,,,,,,
,,,,32075,001,2025-12-03_24h44.10.284,HW_LDT_1,2024.2.4,MacIntel,60.0024001,,,,,,,,,,,,,,,,,,,,73.8961,74.0937,74.0938,74.5916,74.5928,78.476,z,1,[],[],[],[],[],[],[],3.8742,1,78.4853,78.9784,0,5,5,10,1,1011,NW,"ID",16,inlade,INLADE,z,3.8742,,,,,,,,,,,,,,,,,,,,,,,,,,,,,,,,,,,,,,,,,,,,,,,,,,,,,,,,,,,,,,,,,,
,,,,32075,001,2025-12-03_24h44.10.284,HW_LDT_1,2024.2.4,MacIntel,60.0024001,,,,,,,,,,,,,,,,,,,,78.9803,79.1784,79.1784,79.6758,79.6772,82.3781,z,1,[],[],[],[],[],[],[],2.6843,1,82.3783,82.8764,0,6,6,9,1,1010,NW,"ID",33,fariny,FARINY,z,2.6843,,,,,,,,,,,,,,,,,,,,,,,,,,,,,,,,,,,,,,,,,,,,,,,,,,,,,,,,,,,,,,,,,,
,,,,32075,001,2025-12-03_24h44.10.284,HW_LDT_1,2024.2.4,MacIntel,60.0024001,,,,,,,,,,,,,,,,,,,,82.8782,83.0775,83.0776,83.5756,83.577,84.5429,m,1,[],[],[],[],[],[],[],0.9515,1,84.5447,85.0442,0,7,7,7,1,1008,WORD,UN,16,hurdle,VOLUME,m,0.9515,,,,,,,,,,,,,,,,,,,,,,,,,,,,,,,,,,,,,,,,,,,,,,,,,,,,,,,,,,,,,,,,,,
,,,,32075,001,2025-12-03_24h44.10.284,HW_LDT_1,2024.2.4,MacIntel,60.0024001,,,,,,,,,,,,,,,,,,,,85.0462,85.243,85.243,85.7431,85.7444,87.0269,z,1,[],[],[],[],[],[],[],1.2734,1,87.027,87.526,0,8,8,11,1,1012,NW,"ID",16,rashet,RASHET,z,1.2734,,,,,,,,,,,,,,,,,,,,,,,,,,,,,,,,,,,,,,,,,,,,,,,,,,,,,,,,,,,,,,,,,,
,,,,32075,001,2025-12-03_24h44.10.284,HW_LDT_1,2024.2.4,MacIntel,60.0024001,,,,,,,,,,,,,,,,,,,,87.5278,87.7256,87.7258,88.2262,88.2277,89.0118,m,1,[],[],[],[],[],[],[],0.7633,1,89.0119,89.5099,0,9,9,1,1,1002,WORD,"ID",33,adjust,ADJUST,m,0.7633,,,,,,,,,,,,,,,,,,,,,,,,,,,,,,,,,,,,,,,,,,,,,,,,,,,,,,,,,,,,,,,,,,
,,,,32075,001,2025-12-03_24h44.10.284,HW_LDT_1,2024.2.4,MacIntel,60.0024001,,,,,,,,,,,,,,,,,,,,89.5114,89.7114,89.7114,90.2084,90.2095,90.9595,z,1,[],[],[],[],[],[],[],0.735,1,90.9597,91.4604,0,10,10,13,1,1014,NW,UN,33,winfer,ROUPET,z,0.735,,,,,,,,,,,,,,,,,,,,,,,,,,,,,,,,,,,,,,,,,,,,,,,,,,,,,,,,,,,,,,,,,,
,,,,32075,001,2025-12-03_24h44.10.284,HW_LDT_1,2024.2.4,MacIntel,60.0024001,,,,,,,,,,,,,,,,,,,,91.462,91.6605,91.6605,92.1608,92.1619,92.9921,m,1,[],[],[],[],[],[],[],0.8206,1,92.9923,93.4923,0,11,11,5,1,1006,WORD,UN,33,frenzy,OBTAIN,m,0.8206,,,,,,,,,,,,,,,,,,,,,,,,,,,,,,,,,,,,,,,,,,,,,,,,,,,,,,,,,,,,,,,,,,
,,,,32075,001,2025-12-03_24h44.10.284,HW_LDT_1,2024.2.4,MacIntel,60.0024001,,,,,,,,,,,,,,,,,,,,93.494,93.6941,93.6941,94.1944,94.1959,95.2951,m,1,[],[],[],[],[],[],[],1.0852,1,95.2952,95.7922,0,12,12,3,1,1004,WORD,"ID",16,matrix,MATRIX,m,1.0852,,,,,,,,,,,,,,,,,,,,,,,,,,,,,,,,,,,,,,,,,,,,,,,,,,,,,,,,,,,,,,,,,,
,,,,32075,001,2025-12-03_24h44.10.284,HW_LDT_1,2024.2.4,MacIntel,60.0024001,,,,,,,,,,,,,,,,,,,,95.7939,95.993,95.993,96.4941,96.4953,97.4436,z,1,[],[],[],[],[],[],[],0.9371,1,97.4437,97.9444,0,13,13,8,1,1009,NW,"ID",33,aslert,ASLERT,z,0.9371,,,,,,,,,,,,,,,,,,,,,,,,,,,,,,,,,,,,,,,,,,,,,,,,,,,,,,,,,,,,,,,,,,
,,,,32075,001,2025-12-03_24h44.10.284,HW_LDT_1,2024.2.4,MacIntel,60.0024001,,,,,,,,,,,,,,,,,,,,97.9462,98.1426,98.1426,98.6429,98.6444,101.0615,z,1,[],[],[],[],[],[],[],2.3985,1,101.0722,101.5584,0,14,14,14,1,1015,NW,UN,16,miaber,THRALE,z,2.3985,,,,,,,,,,,,,,,,,,,,,,,,,,,,,,,,,,,,,,,,,,,,,,,,,,,,,,,,,,,,,,,,,,
,,,,32075,001,2025-12-03_24h44.10.284,HW_LDT_1,2024.2.4,MacIntel,60.0024001,,,,,,,,,,,,,,,,,,,,101.5602,101.7615,101.7616,102.2596,102.2608,103.7425,m,1,[],[],[],[],[],[],[],1.4734,1,103.7427,104.2459,0,15,15,4,1,1005,WORD,UN,33,abound,SQUEAK,m,1.4734,,,,,,,,,,,,,,,,,,,,,,,,,,,,,,,,,,,,,,,,,,,,,,,,,,,,,,,,,,,,,,,,,,
,,,,32075,001,2025-12-03_24h44.10.284,HW_LDT_1,2024.2.4,MacIntel,60.0024001,,,,,,,,,,,,,,,1,end_of_practice,"You have completed the practice trials. During the experimental trials, you will not receive feedback. On some trials you will be asked to report whether the item you just saw was in cursive or print. 
Before you begin, please ensure that you are in a comfortable and quiet location and will not be disturbed for about 15 minutes, as we cannot use your data if you do not complete all the trials. 
 When you are ready to start the experimental trials, please press space or touch the button below.",,,,,,,,,,,,,,,,,,,,,,,,,,,,,,,,,,,,104.2532,105.5613,,0.008246528,-0.396171875,1,0,1,instr_done_button_3,0,0,0,0,1,,,,,,,,,,,,,,,,,,,,,,,,,,,,,,,,,,,,,,,,,,,,,,,,,,,
,,,,32075,001,2025-12-03_24h44.10.284,HW_LDT_1,2024.2.4,MacIntel,60.0024001,,,,,,,,,,,,,,,,,,,,105.5719,105.7584,105.7585,106.2592,,,,,,,,,,,,5.0767,1,,,,,,,,,,,,,,z,,,,,,,,,,,,,,,,,1,0,106.2603,111.3423,z,1,5.0767,,[],[],[],[],[],[],[],111.3426,113.3417,113.3421,113.3454,[],[],[],[],[],[],[],,113.3455,113.3473,0.008246528,-0.396171875,0,0,1,,0,0,0,74,1,1,TL,setanor,cursive,setanor_c.png,,,,,,
,,,,32075,001,2025-12-03_24h44.10.284,HW_LDT_1,2024.2.4,MacIntel,60.0024001,,,,,,,,,,,,,,,,,,,,113.3581,113.5413,113.5414,114.0415,,,,,,,,,,,,1.2234,1,,,,,,,,,,,,,,m,,,,,,,,,,,,,,,,,2,0,114.0422,115.2785,m,1,1.2234,,[],[],[],[],[],[],[],115.2786,117.2752,117.2752,117.2756,[],[],[],[],[],[],[],,117.2756,117.2759,0.008246528,-0.396171875,0,0,1,,0,1,1,158,1,1,word,VELOCITY,print,velocity_p.png,,,,,,
,,,,32075,001,2025-12-03_24h44.10.284,HW_LDT_1,2024.2.4,MacIntel,60.0024001,,,,,,,,,,,,,,,,,,,,117.2861,117.4774,117.4774,117.9752,,,,,,,,,,,,8.7053,1,,,,,,,,,,,,,,m,,,,,,,,,,,,,,,,,3,0,117.976,126.6928,m,1,8.7053,,[],[],[],[],[],[],[],126.693,128.6936,128.6937,128.694,[],[],[],[],[],[],[],,128.6941,128.6943,0.008246528,-0.396171875,0,0,1,,0,2,2,111,1,1,word,INDICATE,cursive,indicate_c.png,,,,,,
,,,,32075,001,2025-12-03_24h44.10.284,HW_LDT_1,2024.2.4,MacIntel,60.0024001,,,,,,,,,,,,,,,,,,,,128.7057,128.8911,128.8912,129.392,,,,,,,,,,,,1.9735,1,,,,,,,,,,,,,,z,,,,,,,,,,,,,,,,,4,0,129.3928,131.375,z,1,1.9735,,[],[],[],[],[],[],[],131.375,133.3756,133.3757,133.3761,[],[],[],[],[],[],[],,133.3762,133.3764,0.008246528,-0.396171875,0,0,1,,0,3,3,2,1,1,RL,asiral,print,asiral_p.png,,,,,,
,,,,32075,001,2025-12-03_24h44.10.284,HW_LDT_1,2024.2.4,MacIntel,60.0024001,,,,,,,,,,,,,,,,,,,,133.3866,133.5751,133.5751,134.0774,,,,,,,,,,,,2.2068,1,,,,,,,,,,,,,,m,,,,,,,,,,,,,,,,,5,0,134.0784,136.2938,m,1,2.2068,,[],[],[],[],[],[],[],136.2938,138.2934,138.2935,138.2937,[],[],[],[],[],[],[],,138.294,138.2941,0.008246528,-0.396171875,0,0,1,,0,4,4,147,1,1,word,ROMANTIC,cursive,romantic_c.png,,,,,,
,,,,32075,001,2025-12-03_24h44.10.284,HW_LDT_1,2024.2.4,MacIntel,60.0024001,,,,,,,,,,,,,,,,,,,,138.3049,138.494,138.494,138.9945,,,,,,,,,,,,2.0392,0,,,,,,,,,,,,,,z,,,,,,,,,,,,,,,,,6,0,138.9953,141.0447,m,0,2.0392,,[],[],[],[],[],[],[],141.0448,143.0433,143.0434,143.0441,[],[],[],[],[],[],[],,143.0442,143.0443,0.008246528,-0.396171875,0,0,1,,0,5,5,73,1,1,TL,ronamtic,cursive,ronamtic_c.png,,,,,,
,,,,32075,001,2025-12-03_24h44.10.284,HW_LDT_1,2024.2.4,MacIntel,60.0024001,,,,,,,,,,,,,,,,,,,,143.055,143.2432,143.2433,143.7447,,,,,,,,,,,,0.9295,1,,,,,,,,,,,,,,z,,,,,,,,,,,,,,,,,7,1,143.7454,144.6761,z,1,0.9295,,[],[],[],[],[],[],[],144.6765,146.6783,146.6784,154.0934,[],[],[],[],[],[],[],m,154.0934,154.0938,0.008246528,-0.396171875,0,0,1,,0,6,6,32,1,1,RL,rebicent,print,rebicent_p.png,7.4063,,,,,
,,,,32075,001,2025-12-03_24h44.10.284,HW_LDT_1,2024.2.4,MacIntel,60.0024001,,,,,,,,,,,,,,,,,,,,154.1047,154.2955,154.2955,154.7934,,,,,,,,,,,,2.622,1,,,,,,,,,,,,,,m,,,,,,,,,,,,,,,,,8,1,154.7941,157.4276,m,1,2.622,,[],[],[],[],[],[],[],157.4278,159.4261,159.4261,160.9957,[],[],[],[],[],[],[],m,160.9958,160.9961,0.008246528,-0.396171875,0,0,1,,0,7,7,108,1,1,word,FORTUNE,print,fortune_p.png,1.5578,,,,,
,,,,32075,001,2025-12-03_24h44.10.284,HW_LDT_1,2024.2.4,MacIntel,60.0024001,,,,,,,,,,,,,,,,,,,,161.0073,161.1946,161.1947,161.695,,,,,,,,,,,,1.8054,1,,,,,,,,,,,,,,z,,,,,,,,,,,,,,,,,9,0,161.6958,163.5097,z,1,1.8054,,[],[],[],[],[],[],[],163.5098,165.509,165.5091,165.5095,[],[],[],[],[],[],[],,165.5096,165.5098,0.008246528,-0.396171875,0,0,1,,0,8,8,34,1,1,RL,samite,print,samite_p.png,,,,,,
,,,,32075,001,2025-12-03_24h44.10.284,HW_LDT_1,2024.2.4,MacIntel,60.0024001,,,,,,,,,,,,,,,,,,,,165.5204,165.7119,165.712,166.209,,,,,,,,,,,,1.8965,1,,,,,,,,,,,,,,m,,,,,,,,,,,,,,,,,10,0,166.2096,168.1091,m,1,1.8965,,[],[],[],[],[],[],[],168.1092,170.1101,170.1103,170.1106,[],[],[],[],[],[],[],,170.111,170.1112,0.008246528,-0.396171875,0,0,1,,0,9,9,144,1,1,word,RESIDENT,print,resident_p.png,,,,,,
,,,,32075,001,2025-12-03_24h44.10.284,HW_LDT_1,2024.2.4,MacIntel,60.0024001,,,,,,,,,,,,,,,,,,,,170.1129,170.309,170.3091,170.8109,,,,,,,,,,,,1.0237,1,,,,,,,,,,,,,,m,,,,,,,,,,,,,,,,,11,0,170.8117,171.845,m,1,1.0237,,[],[],[],[],[],[],[],171.8451,173.8418,173.842,173.8424,[],[],[],[],[],[],[],,173.8424,173.8427,0.008246528,-0.396171875,0,0,1,,0,10,10,126,1,1,word,OPTIMAL,print,optimal_p.png,,,,,,
,,,,32075,001,2025-12-03_24h44.10.284,HW_LDT_1,2024.2.4,MacIntel,60.0024001,,,,,,,,,,,,,,,,,,,,173.8443,174.044,174.044,174.5442,,,,,,,,,,,,5.4881,1,,,,,,,,,,,,,,z,,,,,,,,,,,,,,,,,12,0,174.5449,180.0456,z,1,5.4881,,[],[],[],[],[],[],[],180.0456,182.0436,182.0437,182.044,[],[],[],[],[],[],[],,182.0441,182.0443,0.008246528,-0.396171875,0,0,1,,0,11,11,79,1,1,TL,veretan,print,veretan_p.png,,,,,,
,,,,32075,001,2025-12-03_24h44.10.284,HW_LDT_1,2024.2.4,MacIntel,60.0024001,,,,,,,,,,,,,,,,,,,,182.0548,182.2445,182.2445,182.7426,,,,,,,,,,,,1.2559,1,,,,,,,,,,,,,,m,,,,,,,,,,,,,,,,,13,0,182.7438,184.0121,m,1,1.2559,,[],[],[],[],[],[],[],184.0122,186.0096,186.0097,186.0101,[],[],[],[],[],[],[],,186.0102,186.0103,0.008246528,-0.396171875,0,0,1,,0,12,12,98,1,1,word,CRIMINAL,print,criminal_p.png,,,,,,
,,,,32075,001,2025-12-03_24h44.10.284,HW_LDT_1,2024.2.4,MacIntel,60.0024001,,,,,,,,,,,,,,,,,,,,186.0118,186.2102,186.2102,186.7102,,,,,,,,,,,,1.4405,1,,,,,,,,,,,,,,z,,,,,,,,,,,,,,,,,14,0,186.711,188.1604,z,1,1.4405,,[],[],[],[],[],[],[],188.1606,190.1601,190.1602,190.1606,[],[],[],[],[],[],[],,190.1607,190.161,0.008246528,-0.396171875,0,0,1,,0,13,13,20,1,1,RL,nunewical,print,nunewical_p.png,,,,,,
,,,,32075,001,2025-12-03_24h44.10.284,HW_LDT_1,2024.2.4,MacIntel,60.0024001,,,,,,,,,,,,,,,,,,,,190.1626,190.3607,190.3607,190.8603,,,,,,,,,,,,2.8108,0,,,,,,,,,,,,,,z,,,,,,,,,,,,,,,,,15,0,190.8612,193.6758,m,0,2.8108,,[],[],[],[],[],[],[],193.676,195.6779,195.678,195.6782,[],[],[],[],[],[],[],,195.6783,195.6784,0.008246528,-0.396171875,0,0,1,,0,14,14,24,1,1,RL,probice,print,probice_p.png,,,,,,
,,,,32075,001,2025-12-03_24h44.10.284,HW_LDT_1,2024.2.4,MacIntel,60.0024001,,,,,,,,,,,,,,,,,,,,195.6891,195.8776,195.8777,196.378,,,,,,,,,,,,2.4731,1,,,,,,,,,,,,,,m,,,,,,,,,,,,,,,,,16,0,196.3787,198.8619,m,1,2.4731,,[],[],[],[],[],[],[],198.862,200.8605,200.8605,200.8608,[],[],[],[],[],[],[],,200.8609,200.861,0.008246528,-0.396171875,0,0,1,,0,15,15,152,1,1,word,SPECIMEN,cursive,specimen_c.png,,,,,,
,,,,32075,001,2025-12-03_24h44.10.284,HW_LDT_1,2024.2.4,MacIntel,60.0024001,,,,,,,,,,,,,,,,,,,,200.8721,201.0608,201.061,201.5593,,,,,,,,,,,,8.2414,1,,,,,,,,,,,,,,m,,,,,,,,,,,,,,,,,17,0,201.5598,209.8114,m,1,8.2414,,[],[],[],[],[],[],[],209.8117,211.8103,211.8104,211.8107,[],[],[],[],[],[],[],,211.8108,211.8109,0.008246528,-0.396171875,0,0,1,,0,16,16,110,1,1,word,HERITAGE,cursive,heritage_c.png,,,,,,
,,,,32075,001,2025-12-03_24h44.10.284,HW_LDT_1,2024.2.4,MacIntel,60.0024001,,,,,,,,,,,,,,,,,,,,211.8216,212.0104,212.0105,212.5088,,,,,,,,,,,,5.0091,1,,,,,,,,,,,,,,z,,,,,,,,,,,,,,,,,18,0,212.5094,217.528,z,1,5.0091,,[],[],[],[],[],[],[],217.5281,219.5281,219.5281,219.5285,[],[],[],[],[],[],[],,219.5286,219.5288,0.008246528,-0.396171875,0,0,1,,0,17,17,70,1,1,TL,relugar,print,relugar_p.png,,,,,,
,,,,32075,001,2025-12-03_24h44.10.284,HW_LDT_1,2024.2.4,MacIntel,60.0024001,,,,,,,,,,,,,,,,,,,,219.5396,219.7274,219.7275,220.2293,,,,,,,,,,,,2.4882,1,,,,,,,,,,,,,,z,,,,,,,,,,,,,,,,,19,1,220.2299,222.7286,z,1,2.4882,,[],[],[],[],[],[],[],222.7287,224.7272,224.7272,228.0792,[],[],[],[],[],[],[],m,228.0793,228.0794,0.008246528,-0.396171875,0,0,1,,0,18,18,45,1,1,TL,cacapity,print,cacapity_p.png,3.3411,,,,,
,,,,32075,001,2025-12-03_24h44.10.284,HW_LDT_1,2024.2.4,MacIntel,60.0024001,,,,,,,,,,,,,,,,,,,,228.0909,228.2779,228.278,228.7791,,,,,,,,,,,,2.4091,1,,,,,,,,,,,,,,m,,,,,,,,,,,,,,,,,20,0,228.7802,231.194,m,1,2.4091,,[],[],[],[],[],[],[],231.1941,233.192,233.1921,233.1923,[],[],[],[],[],[],[],,233.1924,233.1925,0.008246528,-0.396171875,0,0,1,,0,19,19,156,1,1,word,TRIBUTE,cursive,tribute_c.png,,,,,,
,,,,32075,001,2025-12-03_24h44.10.284,HW_LDT_1,2024.2.4,MacIntel,60.0024001,,,,,,,,,,,,,,,,,,,,233.2032,233.3935,233.3935,233.8936,,,,,,,,,,,,2.1582,1,,,,,,,,,,,,,,m,,,,,,,,,,,,,,,,,21,0,233.8944,236.0609,m,1,2.1582,,[],[],[],[],[],[],[],236.061,238.0633,238.0635,238.0638,[],[],[],[],[],[],[],,238.0639,238.0642,0.008246528,-0.396171875,0,0,1,,0,20,20,154,1,1,word,STORAGE,cursive,storage_c.png,,,,,,
,,,,32075,001,2025-12-03_24h44.10.284,HW_LDT_1,2024.2.4,MacIntel,60.0024001,,,,,,,,,,,,,,,,,,,,238.0746,238.2629,238.263,238.7616,,,,,,,,,,,,4.7104,1,,,,,,,,,,,,,,z,,,,,,,,,,,,,,,,,22,0,238.7623,243.4759,z,1,4.7104,,[],[],[],[],[],[],[],243.476,245.4788,245.4788,245.4791,[],[],[],[],[],[],[],,245.4792,245.4794,0.008246528,-0.396171875,0,0,1,,0,21,21,67,1,1,TL,pocily,cursive,pocily_c.png,,,,,,
,,,,32075,001,2025-12-03_24h44.10.284,HW_LDT_1,2024.2.4,MacIntel,60.0024001,,,,,,,,,,,,,,,,,,,,245.492,245.6757,245.6758,246.1763,,,,,,,,,,,,2.8304,0,,,,,,,,,,,,,,z,,,,,,,,,,,,,,,,,23,0,246.1769,249.0095,m,0,2.8304,,[],[],[],[],[],[],[],249.0097,251.0093,251.0094,251.0097,[],[],[],[],[],[],[],,251.0097,251.0099,0.008246528,-0.396171875,0,0,1,,0,22,22,58,1,1,TL,incidate,cursive,incidate_c.png,,,,,,
,,,,32075,001,2025-12-03_24h44.10.284,HW_LDT_1,2024.2.4,MacIntel,60.0024001,,,,,,,,,,,,,,,,,,,,251.0213,251.2097,251.2098,251.7097,,,,,,,,,,,,6.626,1,,,,,,,,,,,,,,m,,,,,,,,,,,,,,,,,24,0,251.7104,258.3448,m,1,6.626,,[],[],[],[],[],[],[],258.345,260.343,260.3431,260.3435,[],[],[],[],[],[],[],,260.3435,260.3438,0.008246528,-0.396171875,0,0,1,,0,23,23,151,1,1,word,SPECIFIC,cursive,specific_c.png,,,,,,
,,,,32075,001,2025-12-03_24h44.10.284,HW_LDT_1,2024.2.4,MacIntel,60.0024001,,,,,,,,,,,,,,,,,,,,260.3553,260.5455,260.5456,261.0454,,,,,,,,,,,,7.5571,1,,,,,,,,,,,,,,z,,,,,,,,,,,,,,,,,25,0,261.0461,268.6104,z,1,7.5571,,[],[],[],[],[],[],[],268.6106,270.6095,270.6095,270.6099,[],[],[],[],[],[],[],,270.6099,270.6101,0.008246528,-0.396171875,0,0,1,,0,24,24,35,1,1,RL,senvilent,cursive,senvilent_c.png,,,,,,
,,,,32075,001,2025-12-03_24h44.10.284,HW_LDT_1,2024.2.4,MacIntel,60.0024001,,,,,,,,,,,,,,,,,,,,270.6212,270.8119,270.812,271.31,,,,,,,,,,,,2.6412,1,,,,,,,,,,,,,,m,,,,,,,,,,,,,,,,,26,0,271.3107,273.96,m,1,2.6412,,[],[],[],[],[],[],[],273.96,275.963,275.9631,275.9634,[],[],[],[],[],[],[],,275.9635,275.9637,0.008246528,-0.396171875,0,0,1,,0,25,25,121,1,1,word,MISTAKE,print,mistake_p.png,,,,,,
,,,,32075,001,2025-12-03_24h44.10.284,HW_LDT_1,2024.2.4,MacIntel,60.0024001,,,,,,,,,,,,,,,,,,,,275.9741,276.1628,276.1628,276.6637,,,,,,,,,,,,1.6714,0,,,,,,,,,,,,,,z,,,,,,,,,,,,,,,,,27,0,276.6645,278.3459,m,0,1.6714,,[],[],[],[],[],[],[],278.3462,280.3474,280.3475,280.3479,[],[],[],[],[],[],[],,280.3479,280.348,0.008246528,-0.396171875,0,0,1,,0,26,26,52,1,1,TL,decilate,cursive,decilate_c.png,,,,,,
,,,,32075,001,2025-12-03_24h44.10.284,HW_LDT_1,2024.2.4,MacIntel,60.0024001,,,,,,,,,,,,,,,,,,,,280.3492,280.5462,280.5462,281.046,,,,,,,,,,,,1.0882,1,,,,,,,,,,,,,,z,,,,,,,,,,,,,,,,,28,0,281.0467,282.1433,z,1,1.0882,,[],[],[],[],[],[],[],282.1435,284.1432,284.1433,284.1438,[],[],[],[],[],[],[],,284.1438,284.144,0.008246528,-0.396171875,0,0,1,,0,27,27,11,1,1,RL,elacodate,print,elacodate_p.png,,,,,,
,,,,32075,001,2025-12-03_24h44.10.284,HW_LDT_1,2024.2.4,MacIntel,60.0024001,,,,,,,,,,,,,,,,,,,,284.1456,284.3432,284.3433,284.8458,,,,,,,,,,,,1.1559,1,,,,,,,,,,,,,,m,,,,,,,,,,,,,,,,,29,0,284.8465,286.01,m,1,1.1559,,[],[],[],[],[],[],[],286.0101,288.0124,288.0125,288.0128,[],[],[],[],[],[],[],,288.0129,288.013,0.008246528,-0.396171875,0,0,1,,0,28,28,140,1,1,word,RELATIVE,cursive,relative_c.png,,,,,,
,,,,32075,001,2025-12-03_24h44.10.284,HW_LDT_1,2024.2.4,MacIntel,60.0024001,,,,,,,,,,,,,,,,,,,,288.0148,288.211,288.2111,288.71,,,,,,,,,,,,0.8082,1,,,,,,,,,,,,,,z,,,,,,,,,,,,,,,,,30,0,288.7105,289.5268,z,1,0.8082,,[],[],[],[],[],[],[],289.5269,291.5278,291.528,291.5282,[],[],[],[],[],[],[],,291.5283,291.5284,0.008246528,-0.396171875,0,0,1,,0,29,29,30,1,1,RL,relone,print,relone_p.png,,,,,,
,,,,32075,001,2025-12-03_24h44.10.284,HW_LDT_1,2024.2.4,MacIntel,60.0024001,,,,,,,,,,,,,,,,,,,,291.5299,291.7266,291.7267,292.2274,,,,,,,,,,,,1.4793,0,,,,,,,,,,,,,,z,,,,,,,,,,,,,,,,,31,0,292.2281,293.7101,m,0,1.4793,,[],[],[],[],[],[],[],293.7102,295.7117,295.7118,295.7121,[],[],[],[],[],[],[],,295.7121,295.7123,0.008246528,-0.396171875,0,0,1,,0,30,30,75,1,1,TL,speficic,cursive,speficic_c.png,,,,,,
,,,,32075,001,2025-12-03_24h44.10.284,HW_LDT_1,2024.2.4,MacIntel,60.0024001,,,,,,,,,,,,,,,,,,,,295.7233,295.9121,295.9122,296.4113,,,,,,,,,,,,0.7598,1,,,,,,,,,,,,,,m,,,,,,,,,,,,,,,,,32,0,296.4119,297.1801,m,1,0.7598,,[],[],[],[],[],[],[],297.1802,299.178,299.1781,299.1784,[],[],[],[],[],[],[],,299.1785,299.1786,0.008246528,-0.396171875,0,0,1,,0,31,31,113,1,1,word,LITERAL,print,literal_p.png,,,,,,
,,,,32075,001,2025-12-03_24h44.10.284,HW_LDT_1,2024.2.4,MacIntel,60.0024001,,,,,,,,,,,,,,,,,,,,299.1889,299.3768,299.3769,299.8773,,,,,,,,,,,,0.9581,0,,,,,,,,,,,,,,z,,,,,,,,,,,,,,,,,33,0,299.8781,300.8435,m,0,0.9581,,[],[],[],[],[],[],[],300.8436,302.8472,302.8474,302.848,[],[],[],[],[],[],[],,302.8483,302.8484,0.008246528,-0.396171875,0,0,1,,0,32,32,1,1,1,RL,adnicory,cursive,adnicory_c.png,,,,,,
,,,,32075,001,2025-12-03_24h44.10.284,HW_LDT_1,2024.2.4,MacIntel,60.0024001,,,,,,,,,,,,,,,,,,,,302.8595,303.0451,303.0451,303.5441,,,,,,,,,,,,0.7578,1,,,,,,,,,,,,,,m,,,,,,,,,,,,,,,,,34,1,303.5447,304.313,m,1,0.7578,,[],[],[],[],[],[],[],304.3132,306.3101,306.3102,307.9976,[],[],[],[],[],[],[],m,307.9978,307.9978,0.008246528,-0.396171875,0,0,1,,0,33,33,97,1,1,word,COVERAGE,print,coverage_p.png,1.6754,,,,,
,,,,32075,001,2025-12-03_24h44.10.284,HW_LDT_1,2024.2.4,MacIntel,60.0024001,,,,,,,,,,,,,,,,,,,,308.008,308.1934,308.1935,308.6946,,,,,,,,,,,,4.2928,1,,,,,,,,,,,,,,z,,,,,,,,,,,,,,,,,35,0,308.6953,312.9965,z,1,4.2928,,[],[],[],[],[],[],[],312.9967,314.995,314.995,314.9954,[],[],[],[],[],[],[],,314.9954,314.9955,0.008246528,-0.396171875,0,0,1,,0,34,34,50,1,1,TL,condiser,cursive,condiser_c.png,,,,,,
,,,,32075,001,2025-12-03_24h44.10.284,HW_LDT_1,2024.2.4,MacIntel,60.0024001,,,,,,,,,,,,,,,,,,,,315.0061,315.1947,315.1948,315.6934,,,,,,,,,,,,1.1084,1,,,,,,,,,,,,,,m,,,,,,,,,,,,,,,,,36,0,315.6943,316.8122,m,1,1.1084,,[],[],[],[],[],[],[],316.8124,318.8126,318.8126,318.813,[],[],[],[],[],[],[],,318.813,318.8133,0.008246528,-0.396171875,0,0,1,,0,35,35,80,1,1,word,ACADEMY,cursive,academy_c.png,,,,,,
,,,,32075,001,2025-12-03_24h44.10.284,HW_LDT_1,2024.2.4,MacIntel,60.0024001,,,,,,,,,,,,,,,,,,,,318.8242,319.0124,319.0126,319.511,,,,,,,,,,,,2.4779,1,,,,,,,,,,,,,,z,,,,,,,,,,,,,,,,,37,0,319.5119,321.9944,z,1,2.4779,,[],[],[],[],[],[],[],321.9946,323.9936,323.9936,323.9939,[],[],[],[],[],[],[],,323.994,323.9941,0.008246528,-0.396171875,0,0,1,,0,36,36,27,1,1,RL,rasibal,print,rasibal_p.png,,,,,,
,,,,32075,001,2025-12-03_24h44.10.284,HW_LDT_1,2024.2.4,MacIntel,60.0024001,,,,,,,,,,,,,,,,,,,,324.0046,324.1966,324.1967,324.6936,,,,,,,,,,,,1.1739,1,,,,,,,,,,,,,,z,,,,,,,,,,,,,,,,,38,1,324.6943,325.8784,z,1,1.1739,,[],[],[],[],[],[],[],325.8785,327.8769,327.8769,329.3604,[],[],[],[],[],[],[],z,329.3606,329.3606,0.008246528,-0.396171875,0,0,1,,0,37,37,5,1,1,RL,cobeny,cursive,cobeny_c.png,1.4754,,,,,
,,,,32075,001,2025-12-03_24h44.10.284,HW_LDT_1,2024.2.4,MacIntel,60.0024001,,,,,,,,,,,,,,,,,,,,329.3707,329.5612,329.5612,330.0614,,,,,,,,,,,,2.5062,1,,,,,,,,,,,,,,m,,,,,,,,,,,,,,,,,39,0,330.062,332.5771,m,1,2.5062,,[],[],[],[],[],[],[],332.5772,334.5768,334.5769,334.5771,[],[],[],[],[],[],[],,334.5772,334.5774,0.008246528,-0.396171875,0,0,1,,0,38,38,105,1,1,word,EDITOR,cursive,editor_c.png,,,,,,
,,,,32075,001,2025-12-03_24h44.10.284,HW_LDT_1,2024.2.4,MacIntel,60.0024001,,,,,,,,,,,,,,,,,,,,334.5879,334.7792,334.7793,335.2788,,,,,,,,,,,,1.2595,1,,,,,,,,,,,,,,m,,,,,,,,,,,,,,,,,40,0,335.2795,336.5451,m,1,1.2595,,[],[],[],[],[],[],[],336.5453,338.5468,338.5469,338.5472,[],[],[],[],[],[],[],,338.5473,338.5474,0.008246528,-0.396171875,0,0,1,,0,39,39,84,1,1,word,BELOVED,print,beloved_p.png,,,,,,
,,,,32075,001,2025-12-03_24h44.10.284,HW_LDT_1,2024.2.4,MacIntel,60.0024001,,,,,,,,,,,,,,,,,,,,338.5492,338.7468,338.7469,339.2439,,,,,,,,,,,,1.2916,1,,,,,,,,,,,,,,z,,,,,,,,,,,,,,,,,41,0,339.2443,340.5461,z,1,1.2916,,[],[],[],[],[],[],[],340.5463,342.5449,342.545,342.5453,[],[],[],[],[],[],[],,342.5454,342.5455,0.008246528,-0.396171875,0,0,1,,0,40,40,21,1,1,RL,opcifal,print,opcifal_p.png,,,,,,
,,,,32075,001,2025-12-03_24h44.10.284,HW_LDT_1,2024.2.4,MacIntel,60.0024001,,,,,,,,,,,,,,,,,,,,342.5472,342.7437,342.7438,343.2449,,,,,,,,,,,,1.1738,1,,,,,,,,,,,,,,m,,,,,,,,,,,,,,,,,42,0,343.2457,344.4304,m,1,1.1738,,[],[],[],[],[],[],[],344.4305,346.428,346.4281,346.4283,[],[],[],[],[],[],[],,346.4284,346.4285,0.008246528,-0.396171875,0,0,1,,0,41,41,99,1,1,word,DEBATE,print,debate_p.png,,,,,,
,,,,32075,001,2025-12-03_24h44.10.284,HW_LDT_1,2024.2.4,MacIntel,60.0024001,,,,,,,,,,,,,,,,,,,,346.4301,346.6289,346.6291,347.1283,,,,,,,,,,,,1.2067,1,,,,,,,,,,,,,,m,,,,,,,,,,,,,,,,,43,0,347.1289,348.3439,m,1,1.2067,,[],[],[],[],[],[],[],348.3441,350.3446,350.3447,350.3449,[],[],[],[],[],[],[],,350.3451,350.3452,0.008246528,-0.396171875,0,0,1,,0,42,42,102,1,1,word,DENSITY,cursive,density_c.png,,,,,,
,,,,32075,001,2025-12-03_24h44.10.284,HW_LDT_1,2024.2.4,MacIntel,60.0024001,,,,,,,,,,,,,,,,,,,,350.3467,350.5447,350.5447,351.0456,,,,,,,,,,,,0.8538,1,,,,,,,,,,,,,,z,,,,,,,,,,,,,,,,,44,0,351.0462,351.9121,z,1,0.8538,,[],[],[],[],[],[],[],351.9123,353.9118,353.9119,353.9126,[],[],[],[],[],[],[],,353.9126,353.9127,0.008246528,-0.396171875,0,0,1,,0,43,43,41,1,1,TL,bevoled,print,bevoled_p.png,,,,,,
,,,,32075,001,2025-12-03_24h44.10.284,HW_LDT_1,2024.2.4,MacIntel,60.0024001,,,,,,,,,,,,,,,,,,,,353.9145,354.112,354.1121,354.6115,,,,,,,,,,,,0.7551,1,,,,,,,,,,,,,,z,,,,,,,,,,,,,,,,,45,0,354.6123,355.3797,z,1,0.7551,,[],[],[],[],[],[],[],355.3799,357.3797,357.3797,357.38,[],[],[],[],[],[],[],,357.3801,357.3802,0.008246528,-0.396171875,0,0,1,,0,44,44,13,1,1,RL,linefal,print,linefal_p.png,,,,,,
,,,,32075,001,2025-12-03_24h44.10.284,HW_LDT_1,2024.2.4,MacIntel,60.0024001,,,,,,,,,,,,,,,,,,,,357.391,357.5802,357.5803,358.0772,,,,,,,,,,,,1.4812,1,,,,,,,,,,,,,,z,,,,,,,,,,,,,,,,,46,0,358.0781,359.564,z,1,1.4812,,[],[],[],[],[],[],[],359.5642,361.5621,361.5622,361.5625,[],[],[],[],[],[],[],,361.5626,361.5628,0.008246528,-0.396171875,0,0,1,,0,45,45,51,1,1,TL,corevage,print,corevage_p.png,,,,,,
,,,,32075,001,2025-12-03_24h44.10.284,HW_LDT_1,2024.2.4,MacIntel,60.0024001,,,,,,,,,,,,,,,,,,,,361.5734,361.7638,361.7639,362.2615,,,,,,,,,,,,1.027,1,,,,,,,,,,,,,,m,,,,,,,,,,,,,,,,,47,0,362.2621,363.2949,m,1,1.027,,[],[],[],[],[],[],[],363.2951,365.2951,365.2952,365.2955,[],[],[],[],[],[],[],,365.2955,365.2957,0.008246528,-0.396171875,0,0,1,,0,46,46,86,1,1,word,BESIDE,print,beside_p.png,,,,,,
,,,,32075,001,2025-12-03_24h44.10.284,HW_LDT_1,2024.2.4,MacIntel,60.0024001,,,,,,,,,,,,,,,,,,,,365.3062,365.495,365.4952,365.9951,,,,,,,,,,,,1.84,1,,,,,,,,,,,,,,z,,,,,,,,,,,,,,,,,48,0,365.9958,367.8457,z,1,1.84,,[],[],[],[],[],[],[],367.8459,369.8439,369.844,369.8443,[],[],[],[],[],[],[],,369.8444,369.8461,0.008246528,-0.396171875,0,0,1,,0,47,47,22,1,1,RL,patisic,print,patisic_p.png,,,,,,
,,,,32075,001,2025-12-03_24h44.10.284,HW_LDT_1,2024.2.4,MacIntel,60.0024001,,,,,,,,,,,,,,,,,,,,369.8566,370.0434,370.0435,370.544,,,,,,,,,,,,0.6974,1,,,,,,,,,,,,,,m,,,,,,,,,,,,,,,,,49,0,370.5447,371.2466,m,1,0.6974,,[],[],[],[],[],[],[],371.2467,373.2447,373.2447,373.2449,[],[],[],[],[],[],[],,373.245,373.245,0.008246528,-0.396171875,0,0,1,,0,48,48,157,1,1,word,VALIDITY,cursive,validity_c.png,,,,,,
,,,,32075,001,2025-12-03_24h44.10.284,HW_LDT_1,2024.2.4,MacIntel,60.0024001,,,,,,,,,,,,,,,,,,,,373.2561,373.4437,373.4437,373.9435,,,,,,,,,,,,1.0346,0,,,,,,,,,,,,,,z,,,,,,,,,,,,,,,,,50,1,373.9442,374.9796,m,0,1.0346,,[],[],[],[],[],[],[],374.9797,376.981,376.981,378.0637,[],[],[],[],[],[],[],z,378.0638,378.0641,0.008246528,-0.396171875,0,0,1,,0,49,49,78,1,1,TL,vecolity,print,vecolity_p.png,1.078,,,,,
,,,,32075,001,2025-12-03_24h44.10.284,HW_LDT_1,2024.2.4,MacIntel,60.0024001,,,,,,,,,,,,,,,,,,,,378.0747,378.2619,378.262,378.7623,,,,,,,,,,,,4.0223,1,,,,,,,,,,,,,,z,,,,,,,,,,,,,,,,,51,0,378.7631,382.7974,z,1,4.0223,,[],[],[],[],[],[],[],382.7976,384.7941,384.7942,384.7944,[],[],[],[],[],[],[],,384.7944,384.7947,0.008246528,-0.396171875,0,0,1,,0,50,50,63,1,1,TL,molibe,cursive,molibe_c.png,,,,,,
,,,,32075,001,2025-12-03_24h44.10.284,HW_LDT_1,2024.2.4,MacIntel,60.0024001,,,,,,,,,,,,,,,,,,,,384.8056,384.9936,384.9937,385.4955,,,,,,,,,,,,1.2063,1,,,,,,,,,,,,,,z,,,,,,,,,,,,,,,,,52,0,385.4964,386.7104,z,1,1.2063,,[],[],[],[],[],[],[],386.7104,388.7111,388.7111,388.7114,[],[],[],[],[],[],[],,388.7115,388.7117,0.008246528,-0.396171875,0,0,1,,0,51,51,60,1,1,TL,manire,print,manire_p.png,,,,,,
,,,,32075,001,2025-12-03_24h44.10.284,HW_LDT_1,2024.2.4,MacIntel,60.0024001,,,,,,,,,,,,,,,,,,,,388.713,388.9108,388.9108,389.4111,,,,,,,,,,,,1.1758,1,,,,,,,,,,,,,,m,,,,,,,,,,,,,,,,,53,0,389.4118,390.5956,m,1,1.1758,,[],[],[],[],[],[],[],390.5957,392.5941,392.5942,392.5944,[],[],[],[],[],[],[],,392.5945,392.5949,0.008246528,-0.396171875,0,0,1,,0,52,52,82,1,1,word,AMATEUR,print,amateur_p.png,,,,,,
,,,,32075,001,2025-12-03_24h44.10.284,HW_LDT_1,2024.2.4,MacIntel,60.0024001,,,,,,,,,,,,,,,,,,,,392.5966,392.7941,392.7942,393.2936,,,,,,,,,,,,1.5575,1,,,,,,,,,,,,,,m,,,,,,,,,,,,,,,,,54,0,393.2943,394.8603,m,1,1.5575,,[],[],[],[],[],[],[],394.8604,396.8627,396.8627,396.8631,[],[],[],[],[],[],[],,396.8631,396.8633,0.008246528,-0.396171875,0,0,1,,0,53,53,94,1,1,word,CLINICAL,cursive,clinical_c.png,,,,,,
,,,,32075,001,2025-12-03_24h44.10.284,HW_LDT_1,2024.2.4,MacIntel,60.0024001,,,,,,,,,,,,,,,,,,,,396.8651,397.0636,397.0637,397.5618,,,,,,,,,,,,1.2962,1,,,,,,,,,,,,,,z,,,,,,,,,,,,,,,,,55,0,397.5625,398.8617,z,1,1.2962,,[],[],[],[],[],[],[],398.8619,400.8617,400.8618,400.8621,[],[],[],[],[],[],[],,400.8621,400.8623,0.008246528,-0.396171875,0,0,1,,0,54,54,72,1,1,TL,remuse,print,remuse_p.png,,,,,,
,,,,32075,001,2025-12-03_24h44.10.284,HW_LDT_1,2024.2.4,MacIntel,60.0024001,,,,,,,,,,,,,,,,,,,,400.864,401.0621,401.0621,401.562,,,,,,,,,,,,0.8069,1,,,,,,,,,,,,,,m,,,,,,,,,,,,,,,,,56,0,401.5626,402.3788,m,1,0.8069,,[],[],[],[],[],[],[],402.3789,404.3777,404.3778,404.3781,[],[],[],[],[],[],[],,404.3782,404.3783,0.008246528,-0.396171875,0,0,1,,0,55,55,155,1,1,word,STRATEGY,cursive,strategy_c.png,,,,,,
,,,,32075,001,2025-12-03_24h44.10.284,HW_LDT_1,2024.2.4,MacIntel,60.0024001,,,,,,,,,,,,,,,,,,,,404.3798,404.5788,404.5789,405.0789,,,,,,,,,,,,1.1058,1,,,,,,,,,,,,,,m,,,,,,,,,,,,,,,,,57,0,405.0796,406.1937,m,1,1.1058,,[],[],[],[],[],[],[],406.1939,408.1959,408.1959,408.1962,[],[],[],[],[],[],[],,408.1963,408.1964,0.008246528,-0.396171875,0,0,1,,0,56,56,128,1,1,word,PACIFIC,print,pacific_p.png,,,,,,
,,,,32075,001,2025-12-03_24h44.10.284,HW_LDT_1,2024.2.4,MacIntel,60.0024001,,,,,,,,,,,,,,,,,,,,408.1982,408.395,408.395,408.8953,,,,,,,,,,,,0.7568,1,,,,,,,,,,,,,,m,,,,,,,,,,,,,,,,,58,0,408.8959,409.661,m,1,0.7568,,[],[],[],[],[],[],[],409.661,411.6603,411.6604,411.6607,[],[],[],[],[],[],[],,411.6608,411.661,0.008246528,-0.396171875,0,0,1,,0,57,57,90,1,1,word,CAPITAL,print,capital_p.png,,,,,,
,,,,32075,001,2025-12-03_24h44.10.284,HW_LDT_1,2024.2.4,MacIntel,60.0024001,,,,,,,,,,,,,,,,,,,,411.6716,411.8615,411.8615,412.3609,,,,,,,,,,,,0.9753,1,,,,,,,,,,,,,,m,,,,,,,,,,,,,,,,,59,0,412.3619,413.3464,m,1,0.9753,,[],[],[],[],[],[],[],413.3465,415.3466,415.3467,415.347,[],[],[],[],[],[],[],,415.347,415.3472,0.008246528,-0.396171875,0,0,1,,0,58,58,93,1,1,word,CEREMONY,cursive,ceremony_c.png,,,,,,
,,,,32075,001,2025-12-03_24h44.10.284,HW_LDT_1,2024.2.4,MacIntel,60.0024001,,,,,,,,,,,,,,,,,,,,415.3585,415.5468,415.5469,416.0475,,,,,,,,,,,,0.876,1,,,,,,,,,,,,,,m,,,,,,,,,,,,,,,,,60,0,416.0485,416.9308,m,1,0.876,,[],[],[],[],[],[],[],416.9309,418.931,418.9311,418.9313,[],[],[],[],[],[],[],,418.9314,418.9316,0.008246528,-0.396171875,0,0,1,,0,59,59,117,1,1,word,MARINE,print,marine_p.png,,,,,,
,,,,32075,001,2025-12-03_24h44.10.284,HW_LDT_1,2024.2.4,MacIntel,60.0024001,,,,,,,,,,,,,,,,,,,,418.9428,419.1305,419.1306,419.6309,,,,,,,,,,,,2.0271,1,,,,,,,,,,,,,,z,,,,,,,,,,,,,,,,,61,0,419.6319,421.6623,z,1,2.0271,,[],[],[],[],[],[],[],421.6624,423.6634,423.6635,423.6637,[],[],[],[],[],[],[],,423.6638,423.664,0.008246528,-0.396171875,0,0,1,,0,60,60,44,1,1,TL,cateferia,cursive,cateferia_c.png,,,,,,
,,,,32075,001,2025-12-03_24h44.10.284,HW_LDT_1,2024.2.4,MacIntel,60.0024001,,,,,,,,,,,,,,,,,,,,423.6747,423.861,423.8611,424.361,,,,,,,,,,,,1.0753,1,,,,,,,,,,,,,,z,,,,,,,,,,,,,,,,,62,0,424.3618,425.4473,z,1,1.0753,,[],[],[],[],[],[],[],425.4473,427.4457,427.4457,427.4461,[],[],[],[],[],[],[],,427.4461,427.4463,0.008246528,-0.396171875,0,0,1,,0,61,61,4,1,1,RL,carminal,print,carminal_p.png,,,,,,
,,,,32075,001,2025-12-03_24h44.10.284,HW_LDT_1,2024.2.4,MacIntel,60.0024001,,,,,,,,,,,,,,,,,,,,427.4569,427.6444,427.6445,428.1481,,,,,,,,,,,,0.9583,1,,,,,,,,,,,,,,z,,,,,,,,,,,,,,,,,63,0,428.1489,429.1111,z,1,0.9583,,[],[],[],[],[],[],[],429.1111,431.1131,431.1132,431.1134,[],[],[],[],[],[],[],,431.1134,431.1136,0.008246528,-0.396171875,0,0,1,,0,62,62,19,1,1,RL,monebate,print,monebate_p.png,,,,,,
,,,,32075,001,2025-12-03_24h44.10.284,HW_LDT_1,2024.2.4,MacIntel,60.0024001,,,,,,,,,,,,,,,,,,,,431.1254,431.3113,431.3113,431.8124,,,,,,,,,,,,0.7575,1,,,,,,,,,,,,,,m,,,,,,,,,,,,,,,,,64,0,431.8131,432.5812,m,1,0.7575,,[],[],[],[],[],[],[],432.5813,434.5786,434.5787,434.579,[],[],[],[],[],[],[],,434.579,434.5792,0.008246528,-0.396171875,0,0,1,,0,63,63,83,1,1,word,ANIMAL,print,animal_p.png,,,,,,
,,,,32075,001,2025-12-03_24h44.10.284,HW_LDT_1,2024.2.4,MacIntel,60.0024001,,,,,,,,,,,,,,,,,,,,434.5807,434.7801,434.7802,435.2777,,,,,,,,,,,,3.1777,0,,,,,,,,,,,,,,m,,,,,,,,,,,,,,,,,65,1,435.2784,438.4623,z,0,3.1777,,[],[],[],[],[],[],[],438.4624,440.4614,440.4614,441.8631,[],[],[],[],[],[],[],z,441.8632,441.8633,0.008246528,-0.396171875,0,0,1,,0,64,64,103,1,1,word,DISPUTE,cursive,dispute_c.png,1.4007,,,,,
,,,,32075,001,2025-12-03_24h44.10.284,HW_LDT_1,2024.2.4,MacIntel,60.0024001,,,,,,,,,,,,,,,,,,,,441.8732,442.0633,442.0634,442.5612,,,,,,,,,,,,1.0315,1,,,,,,,,,,,,,,m,,,,,,,,,,,,,,,,,66,0,442.5618,443.5956,m,1,1.0315,,[],[],[],[],[],[],[],443.5957,445.5959,445.596,445.5961,[],[],[],[],[],[],[],,445.5961,445.5962,0.008246528,-0.396171875,0,0,1,,0,65,65,148,1,1,word,SALINE,print,saline_p.png,,,,,,
,,,,32075,001,2025-12-03_24h44.10.284,HW_LDT_1,2024.2.4,MacIntel,60.0024001,,,,,,,,,,,,,,,,,,,,445.6045,445.7969,445.797,446.295,,,,,,,,,,,,0.8774,1,,,,,,,,,,,,,,m,,,,,,,,,,,,,,,,,67,0,446.2957,447.181,m,1,0.8774,,[],[],[],[],[],[],[],447.1811,449.1779,449.1779,449.1782,[],[],[],[],[],[],[],,449.1783,449.1783,0.008246528,-0.396171875,0,0,1,,0,66,66,106,1,1,word,ELABORATE,print,elaborate_p.png,,,,,,
,,,,32075,001,2025-12-03_24h44.10.284,HW_LDT_1,2024.2.4,MacIntel,60.0024001,,,,,,,,,,,,,,,,,,,,449.1894,449.3809,449.3809,449.8785,,,,,,,,,,,,0.7899,1,,,,,,,,,,,,,,m,,,,,,,,,,,,,,,,,68,0,449.8793,450.679,m,1,0.7899,,[],[],[],[],[],[],[],450.6792,452.6786,452.6787,452.679,[],[],[],[],[],[],[],,452.679,452.6791,0.008246528,-0.396171875,0,0,1,,0,67,67,132,1,1,word,PROPOSAL,cursive,proposal_c.png,,,,,,
,,,,32075,001,2025-12-03_24h44.10.284,HW_LDT_1,2024.2.4,MacIntel,60.0024001,,,,,,,,,,,,,,,,,,,,452.6806,452.878,452.878,453.3794,,,,,,,,,,,,0.7975,0,,,,,,,,,,,,,,z,,,,,,,,,,,,,,,,,69,0,453.3802,454.1791,m,0,0.7975,,[],[],[],[],[],[],[],454.1792,456.1778,456.1779,456.1781,[],[],[],[],[],[],[],,456.1782,456.1783,0.008246528,-0.396171875,0,0,1,,0,68,68,40,1,1,TL,atameur,print,atameur_p.png,,,,,,
,,,,32075,001,2025-12-03_24h44.10.284,HW_LDT_1,2024.2.4,MacIntel,60.0024001,,,,,,,,,,,,,,,,,,,,456.1798,456.3802,456.3802,456.8802,,,,,,,,,,,,1.2222,1,,,,,,,,,,,,,,m,,,,,,,,,,,,,,,,,70,0,456.8809,458.1113,m,1,1.2222,,[],[],[],[],[],[],[],458.1114,460.1113,460.1114,460.1117,[],[],[],[],[],[],[],,460.1117,460.1118,0.008246528,-0.396171875,0,0,1,,0,69,69,96,1,1,word,CONSIDER,cursive,consider_c.png,,,,,,
,,,,32075,001,2025-12-03_24h44.10.284,HW_LDT_1,2024.2.4,MacIntel,60.0024001,,,,,,,,,,,,,,,,,,,,460.1225,460.3112,460.3113,460.8143,,,,,,,,,,,,1.505,1,,,,,,,,,,,,,,z,,,,,,,,,,,,,,,,,71,0,460.815,462.328,z,1,1.505,,[],[],[],[],[],[],[],462.3281,464.3275,464.3276,464.3278,[],[],[],[],[],[],[],,464.3279,464.328,0.008246528,-0.396171875,0,0,1,,0,70,70,46,1,1,TL,catipal,print,catipal_p.png,,,,,,
,,,,32075,001,2025-12-03_24h44.10.284,HW_LDT_1,2024.2.4,MacIntel,60.0024001,,,,,,,,,,,,,,,,,,,,464.3391,464.5283,464.5284,465.0289,,,,,,,,,,,,0.7988,1,,,,,,,,,,,,,,m,,,,,,,,,,,,,,,,,72,0,465.0298,465.8308,m,1,0.7988,,[],[],[],[],[],[],[],465.8308,467.8295,467.8296,467.8298,[],[],[],[],[],[],[],,467.8299,467.83,0.008246528,-0.396171875,0,0,1,,0,71,71,129,1,1,word,PARENT,cursive,parent_c.png,,,,,,
,,,,32075,001,2025-12-03_24h44.10.284,HW_LDT_1,2024.2.4,MacIntel,60.0024001,,,,,,,,,,,,,,,,,,,,467.8406,468.0312,468.0313,468.5306,,,,,,,,,,,,1.6226,1,,,,,,,,,,,,,,z,,,,,,,,,,,,,,,,,73,0,468.5312,470.1642,z,1,1.6226,,[],[],[],[],[],[],[],470.1643,472.1629,472.1629,472.1631,[],[],[],[],[],[],[],,472.1633,472.1633,0.008246528,-0.396171875,0,0,1,,0,72,72,47,1,1,TL,cagetory,print,cagetory_p.png,,,,,,
,,,,32075,001,2025-12-03_24h44.10.284,HW_LDT_1,2024.2.4,MacIntel,60.0024001,,,,,,,,,,,,,,,,,,,,472.1747,472.361,472.361,472.8643,,,,,,,,,,,,0.743,1,,,,,,,,,,,,,,m,,,,,,,,,,,,,,,,,74,1,472.8649,473.6125,m,1,0.743,,[],[],[],[],[],[],[],473.6126,475.6125,475.6125,483.7797,[],[],[],[],[],[],[],m,483.7797,483.7799,0.008246528,-0.396171875,0,0,1,,0,73,73,153,1,1,word,STOLEN,print,stolen_p.png,8.1585,,,,,
,,,,32075,001,2025-12-03_24h44.10.284,HW_LDT_1,2024.2.4,MacIntel,60.0024001,,,,,,,,,,,,,,,,,,,,483.791,483.9786,483.9786,484.4795,,,,,,,,,,,,1.0228,1,,,,,,,,,,,,,,m,,,,,,,,,,,,,,,,,75,0,484.4801,485.5124,m,1,1.0228,,[],[],[],[],[],[],[],485.5126,487.5139,487.5141,487.5143,[],[],[],[],[],[],[],,487.5144,487.5145,0.008246528,-0.396171875,0,0,1,,0,74,74,115,1,1,word,LOGICAL,cursive,logical_c.png,,,,,,
,,,,32075,001,2025-12-03_24h44.10.284,HW_LDT_1,2024.2.4,MacIntel,60.0024001,,,,,,,,,,,,,,,,,,,,487.5163,487.7129,487.713,488.2126,,,,,,,,,,,,0.9473,1,,,,,,,,,,,,,,z,,,,,,,,,,,,,,,,,76,0,488.2133,489.1651,z,1,0.9473,,[],[],[],[],[],[],[],489.1652,491.1628,491.163,491.1632,[],[],[],[],[],[],[],,491.1633,491.1634,0.008246528,-0.396171875,0,0,1,,0,75,75,8,1,1,RL,debave,print,debave_p.png,,,,,,
,,,,32075,001,2025-12-03_24h44.10.284,HW_LDT_1,2024.2.4,MacIntel,60.0024001,,,,,,,,,,,,,,,,,,,,491.165,491.3616,491.3617,491.8628,,,,,,,,,,,,0.8787,0,,,,,,,,,,,,,,z,,,,,,,,,,,,,,,,,77,0,491.8636,492.7464,m,0,0.8787,,[],[],[],[],[],[],[],492.7465,494.7463,494.7463,494.7466,[],[],[],[],[],[],[],,494.7467,494.7468,0.008246528,-0.396171875,0,0,1,,0,76,76,48,1,1,TL,cemerony,cursive,cemerony_c.png,,,,,,
,,,,32075,001,2025-12-03_24h44.10.284,HW_LDT_1,2024.2.4,MacIntel,60.0024001,,,,,,,,,,,,,,,,,,,,494.7484,494.9463,494.9464,495.445,,,,,,,,,,,,1.2325,1,,,,,,,,,,,,,,z,,,,,,,,,,,,,,,,,78,0,495.4455,496.6806,z,1,1.2325,,[],[],[],[],[],[],[],496.6815,498.678,498.6781,498.6784,[],[],[],[],[],[],[],,498.6785,498.6786,0.008246528,-0.396171875,0,0,1,,0,77,77,10,1,1,RL,efibor,cursive,efibor_c.png,,,,,,
,,,,32075,001,2025-12-03_24h44.10.284,HW_LDT_1,2024.2.4,MacIntel,60.0024001,,,,,,,,,,,,,,,,,,,,498.689,498.8783,498.8783,499.3788,,,,,,,,,,,,2.578,0,,,,,,,,,,,,,,m,,,,,,,,,,,,,,,,,79,1,499.3795,501.9641,z,0,2.578,,[],[],[],[],[],[],[],501.9642,503.9609,503.961,505.7807,[],[],[],[],[],[],[],z,505.7808,505.7809,0.008246528,-0.396171875,0,0,1,,0,78,78,88,1,1,word,CAMERA,cursive,camera_c.png,1.8142,,,,,
,,,,32075,001,2025-12-03_24h44.10.284,HW_LDT_1,2024.2.4,MacIntel,60.0024001,,,,,,,,,,,,,,,,,,,,505.7916,505.9798,505.9799,506.4811,,,,,,,,,,,,1.2245,1,,,,,,,,,,,,,,z,,,,,,,,,,,,,,,,,80,1,506.4818,507.7119,z,1,1.2245,,[],[],[],[],[],[],[],507.712,509.7128,509.7129,511.1642,[],[],[],[],[],[],[],m,511.1643,514.1995,0.008246528,-0.396171875,0,0,1,space,0,79,79,12,1,1,RL,ebiwent,print,ebiwent_p.png,1.4422,,3.0213,,,
,,,,32075,001,2025-12-03_24h44.10.284,HW_LDT_1,2024.2.4,MacIntel,60.0024001,,,,,,,,,,,,,,,,,,,,514.2004,514.3961,514.3962,514.8945,,,,,,,,,,,,2.0413,1,,,,,,,,,,,,,,z,,,,,,,,,,,,,,,,,81,1,514.8952,516.9469,z,1,2.0413,,[],[],[],[],[],[],[],516.947,518.9485,518.9486,520.3631,[],[],[],[],[],[],[],m,520.3632,520.3633,0.008246528,-0.396171875,0,0,1,,0,80,80,14,1,1,RL,lofase,print,lofase_p.png,1.4038,,,,,
,,,,32075,001,2025-12-03_24h44.10.284,HW_LDT_1,2024.2.4,MacIntel,60.0024001,,,,,,,,,,,,,,,,,,,,520.3738,520.562,520.5621,521.063,,,,,,,,,,,,3.0564,1,,,,,,,,,,,,,,z,,,,,,,,,,,,,,,,,82,0,521.0637,524.1284,z,1,3.0564,,[],[],[],[],[],[],[],524.1285,526.1285,526.1286,526.1288,[],[],[],[],[],[],[],,526.129,526.1291,0.008246528,-0.396171875,0,0,1,,0,81,81,64,1,1,TL,orepator,cursive,orepator_c.png,,,,,,
,,,,32075,001,2025-12-03_24h44.10.284,HW_LDT_1,2024.2.4,MacIntel,60.0024001,,,,,,,,,,,,,,,,,,,,526.1401,526.3301,526.3301,526.8285,,,,,,,,,,,,5.1577,1,,,,,,,,,,,,,,z,,,,,,,,,,,,,,,,,83,0,526.8293,531.9969,z,1,5.1577,,[],[],[],[],[],[],[],531.997,533.9962,533.9962,533.9966,[],[],[],[],[],[],[],,533.9966,533.9968,0.008246528,-0.396171875,0,0,1,,0,82,82,57,1,1,TL,hetirage,cursive,hetirage_c.png,,,,,,
,,,,32075,001,2025-12-03_24h44.10.284,HW_LDT_1,2024.2.4,MacIntel,60.0024001,,,,,,,,,,,,,,,,,,,,534.0071,534.1959,534.1959,534.6948,,,,,,,,,,,,1.4923,1,,,,,,,,,,,,,,z,,,,,,,,,,,,,,,,,84,0,534.6955,536.1989,z,1,1.4923,,[],[],[],[],[],[],[],536.199,538.199,538.1992,538.1995,[],[],[],[],[],[],[],,538.1995,538.1995,0.008246528,-0.396171875,0,0,1,,0,83,83,38,1,1,RL,stopave,cursive,stopave_c.png,,,,,,
,,,,32075,001,2025-12-03_24h44.10.284,HW_LDT_1,2024.2.4,MacIntel,60.0024001,,,,,,,,,,,,,,,,,,,,538.2007,538.3967,538.3967,538.897,,,,,,,,,,,,1.8476,1,,,,,,,,,,,,,,z,,,,,,,,,,,,,,,,,85,1,538.8976,540.7479,z,1,1.8476,,[],[],[],[],[],[],[],540.7479,542.7469,542.747,543.9644,[],[],[],[],[],[],[],z,543.9645,543.9647,0.008246528,-0.396171875,0,0,1,,0,84,84,54,1,1,TL,distupe,cursive,distupe_c.png,1.2087,,,,,
,,,,32075,001,2025-12-03_24h44.10.284,HW_LDT_1,2024.2.4,MacIntel,60.0024001,,,,,,,,,,,,,,,,,,,,543.9751,544.1639,544.1639,544.6632,,,,,,,,,,,,3.5647,1,,,,,,,,,,,,,,z,,,,,,,,,,,,,,,,,86,0,544.6639,548.2297,z,1,3.5647,,[],[],[],[],[],[],[],548.2299,550.2288,550.2289,550.2292,[],[],[],[],[],[],[],,550.2292,550.2293,0.008246528,-0.396171875,0,0,1,,0,85,85,39,1,1,RL,vabifity,cursive,vabifity_c.png,,,,,,
,,,,32075,001,2025-12-03_24h44.10.284,HW_LDT_1,2024.2.4,MacIntel,60.0024001,,,,,,,,,,,,,,,,,,,,550.2402,550.4322,550.4323,550.9312,,,,,,,,,,,,1.2397,1,,,,,,,,,,,,,,m,,,,,,,,,,,,,,,,,87,0,550.9317,552.1805,m,1,1.2397,,[],[],[],[],[],[],[],552.1806,554.1773,554.1775,554.1777,[],[],[],[],[],[],[],,554.1777,554.1778,0.008246528,-0.396171875,0,0,1,,0,86,86,119,1,1,word,MEMORY,cursive,memory_c.png,,,,,,
,,,,32075,001,2025-12-03_24h44.10.284,HW_LDT_1,2024.2.4,MacIntel,60.0024001,,,,,,,,,,,,,,,,,,,,554.1796,554.3783,554.3784,554.8807,,,,,,,,,,,,1.6567,1,,,,,,,,,,,,,,m,,,,,,,,,,,,,,,,,88,0,554.8814,556.5469,m,1,1.6567,,[],[],[],[],[],[],[],556.547,558.5472,558.5473,558.5477,[],[],[],[],[],[],[],,558.5477,558.5481,0.015698785,-0.393919271,0,0,1,,0,87,87,116,1,1,word,MARGINAL,print,marginal_p.png,,,,,,
,,,,32075,001,2025-12-03_24h44.10.284,HW_LDT_1,2024.2.4,MacIntel,60.0024001,,,,,,,,,,,,,,,,,,,,558.5589,558.7469,558.7469,559.2473,,,,,,,,,,,,2.6725,1,,,,,,,,,,,,,,m,,,,,,,,,,,,,,,,,89,0,559.2479,561.9317,m,1,2.6725,,[],[],[],[],[],[],[],561.9318,563.931,563.931,563.9314,[],[],[],[],[],[],[],,563.9315,563.9316,0.015698785,-0.393919271,0,0,1,,0,88,88,150,1,1,word,SENTIMENT,cursive,sentiment_c.png,,,,,,
,,,,32075,001,2025-12-03_24h44.10.284,HW_LDT_1,2024.2.4,MacIntel,60.0024001,,,,,,,,,,,,,,,,,,,,563.9423,564.1307,564.1308,564.6302,,,,,,,,,,,,3.0905,1,,,,,,,,,,,,,,z,,,,,,,,,,,,,,,,,90,0,564.6313,567.732,z,1,3.0905,,[],[],[],[],[],[],[],567.7321,569.7289,569.7289,569.7291,[],[],[],[],[],[],[],,569.7293,569.7294,0.015698785,-0.393919271,0,0,1,,0,89,89,23,1,1,RL,potugar,cursive,potugar_c.png,,,,,,
,,,,32075,001,2025-12-03_24h44.10.284,HW_LDT_1,2024.2.4,MacIntel,60.0024001,,,,,,,,,,,,,,,,,,,,569.7409,569.9301,569.9302,570.4302,,,,,,,,,,,,0.7071,0,,,,,,,,,,,,,,z,,,,,,,,,,,,,,,,,91,0,570.4308,571.146,m,0,0.7071,,[],[],[],[],[],[],[],571.146,573.1486,573.1487,573.149,[],[],[],[],[],[],[],,573.149,573.1492,0.015698785,-0.393919271,0,0,1,,0,90,90,66,1,1,TL,panert,cursive,panert_c.png,,,,,,
,,,,32075,001,2025-12-03_24h44.10.284,HW_LDT_1,2024.2.4,MacIntel,60.0024001,,,,,,,,,,,,,,,,,,,,573.1509,573.3462,573.3463,573.846,,,,,,,,,,,,0.9958,0,,,,,,,,,,,,,,z,,,,,,,,,,,,,,,,,92,0,573.8467,574.8478,m,0,0.9958,,[],[],[],[],[],[],[],574.8479,576.8452,576.8452,576.8455,[],[],[],[],[],[],[],,576.8456,576.8457,0.015698785,-0.393919271,0,0,1,,0,91,91,77,1,1,TL,tritube,cursive,tritube_c.png,,,,,,
,,,,32075,001,2025-12-03_24h44.10.284,HW_LDT_1,2024.2.4,MacIntel,60.0024001,,,,,,,,,,,,,,,,,,,,576.8567,577.0461,577.0461,577.5479,,,,,,,,,,,,1.0882,1,,,,,,,,,,,,,,m,,,,,,,,,,,,,,,,,93,0,577.5487,578.6467,m,1,1.0882,,[],[],[],[],[],[],[],578.6468,580.649,580.649,580.6494,[],[],[],[],[],[],[],,580.6494,580.6496,0.015698785,-0.393919271,0,0,1,,0,92,92,138,1,1,word,REFUSAL,print,refusal_p.png,,,,,,
,,,,32075,001,2025-12-03_24h44.10.284,HW_LDT_1,2024.2.4,MacIntel,60.0024001,,,,,,,,,,,,,,,,,,,,580.6604,580.8471,580.8472,581.3447,,,,,,,,,,,,1.9241,1,,,,,,,,,,,,,,z,,,,,,,,,,,,,,,,,94,0,581.3453,583.279,z,1,1.9241,,[],[],[],[],[],[],[],583.2792,585.28,585.2801,585.2803,[],[],[],[],[],[],[],,585.2804,585.2804,0.015698785,-0.393919271,0,0,1,,0,93,93,29,1,1,RL,refakive,cursive,refakive_c.png,,,,,,
,,,,32075,001,2025-12-03_24h44.10.284,HW_LDT_1,2024.2.4,MacIntel,60.0024001,,,,,,,,,,,,,,,,,,,,585.292,585.483,585.4832,585.9805,,,,,,,,,,,,1.0568,1,,,,,,,,,,,,,,m,,,,,,,,,,,,,,,,,95,0,585.9812,587.0487,m,1,1.0568,,[],[],[],[],[],[],[],587.0487,589.0457,589.0458,589.0461,[],[],[],[],[],[],[],,589.0462,589.0463,0.015698785,-0.393919271,0,0,1,,0,94,94,91,1,1,word,CARDINAL,print,cardinal_p.png,,,,,,
,,,,32075,001,2025-12-03_24h44.10.284,HW_LDT_1,2024.2.4,MacIntel,60.0024001,,,,,,,,,,,,,,,,,,,,589.0579,589.2471,589.2471,589.7475,,,,,,,,,,,,1.0712,0,,,,,,,,,,,,,,z,,,,,,,,,,,,,,,,,96,0,589.7482,590.8304,m,0,1.0712,,[],[],[],[],[],[],[],590.8304,592.83,592.83,592.8302,[],[],[],[],[],[],[],,592.8303,592.8304,0.015698785,-0.393919271,0,0,1,,0,95,95,68,1,1,TL,prosopal,cursive,prosopal_c.png,,,,,,
,,,,32075,001,2025-12-03_24h44.10.284,HW_LDT_1,2024.2.4,MacIntel,60.0024001,,,,,,,,,,,,,,,,,,,,592.8418,593.0301,593.0302,593.5305,,,,,,,,,,,,1.8898,0,,,,,,,,,,,,,,m,,,,,,,,,,,,,,,,,97,0,593.5312,595.4302,z,0,1.8898,,[],[],[],[],[],[],[],595.4305,597.4311,597.4311,597.4314,[],[],[],[],[],[],[],,597.4315,597.4316,0.015698785,-0.393919271,0,0,1,,0,96,96,125,1,1,word,OPERATOR,cursive,operator_c.png,,,,,,
,,,,32075,001,2025-12-03_24h44.10.284,HW_LDT_1,2024.2.4,MacIntel,60.0024001,,,,,,,,,,,,,,,,,,,,597.4423,597.633,597.6331,598.1291,,,,,,,,,,,,0.7572,1,,,,,,,,,,,,,,m,,,,,,,,,,,,,,,,,98,0,598.1298,598.8964,m,1,0.7572,,[],[],[],[],[],[],[],598.8965,600.8958,600.8959,600.8961,[],[],[],[],[],[],[],,600.8962,600.8964,0.015698785,-0.393919271,0,0,1,,0,97,97,133,1,1,word,PROVIDE,print,provide_p.png,,,,,,
,,,,32075,001,2025-12-03_24h44.10.284,HW_LDT_1,2024.2.4,MacIntel,60.0024001,,,,,,,,,,,,,,,,,,,,600.9077,601.0977,601.0978,601.5968,,,,,,,,,,,,1.6561,1,,,,,,,,,,,,,,z,,,,,,,,,,,,,,,,,99,0,601.5977,603.2646,z,1,1.6561,,[],[],[],[],[],[],[],603.2647,605.2655,605.2655,605.2658,[],[],[],[],[],[],[],,605.2659,605.266,0.015698785,-0.393919271,0,0,1,,0,98,98,18,1,1,RL,mishafe,print,mishafe_p.png,,,,,,
,,,,32075,001,2025-12-03_24h44.10.284,HW_LDT_1,2024.2.4,MacIntel,60.0024001,,,,,,,,,,,,,,,,,,,,605.2775,605.4632,605.4632,605.9625,,,,,,,,,,,,0.8455,1,,,,,,,,,,,,,,m,,,,,,,,,,,,,,,,,100,0,605.9632,606.8157,m,1,0.8455,,[],[],[],[],[],[],[],606.8159,608.8131,608.8131,608.8135,[],[],[],[],[],[],[],,608.8135,608.8137,0.015698785,-0.393919271,0,0,1,,0,99,99,159,1,1,word,VETERAN,print,veteran_p.png,,,,,,
,,,,32075,001,2025-12-03_24h44.10.284,HW_LDT_1,2024.2.4,MacIntel,60.0024001,,,,,,,,,,,,,,,,,,,,608.8243,609.0136,609.0137,609.5125,,,,,,,,,,,,0.9926,1,,,,,,,,,,,,,,m,,,,,,,,,,,,,,,,,101,0,609.5134,610.514,m,1,0.9926,,[],[],[],[],[],[],[],610.5142,612.5144,612.5145,612.5148,[],[],[],[],[],[],[],,612.5149,612.5151,0.015698785,-0.393919271,0,0,1,,0,100,100,100,1,1,word,DECADE,print,decade_p.png,,,,,,
,,,,32075,001,2025-12-03_24h44.10.284,HW_LDT_1,2024.2.4,MacIntel,60.0024001,,,,,,,,,,,,,,,,,,,,612.526,612.7126,612.7126,613.2133,,,,,,,,,,,,0.6406,1,,,,,,,,,,,,,,m,,,,,,,,,,,,,,,,,102,0,613.214,613.8654,m,1,0.6406,,[],[],[],[],[],[],[],613.8655,615.8659,615.866,615.8662,[],[],[],[],[],[],[],,615.8663,615.8664,0.015698785,-0.393919271,0,0,1,,0,101,101,89,1,1,word,CAPACITY,print,capacity_p.png,,,,,,
,,,,32075,001,2025-12-03_24h44.10.284,HW_LDT_1,2024.2.4,MacIntel,60.0024001,,,,,,,,,,,,,,,,,,,,615.8679,616.0646,616.0646,616.5649,,,,,,,,,,,,0.923,1,,,,,,,,,,,,,,m,,,,,,,,,,,,,,,,,103,1,616.5654,617.498,m,1,0.923,,[],[],[],[],[],[],[],617.4981,619.4959,619.496,620.7301,[],[],[],[],[],[],[],z,620.7302,620.7304,0.015698785,-0.393919271,0,0,1,,0,102,102,127,1,1,word,ORIGINAL,cursive,original_c.png,1.2262,,,,,
,,,,32075,001,2025-12-03_24h44.10.284,HW_LDT_1,2024.2.4,MacIntel,60.0024001,,,,,,,,,,,,,,,,,,,,620.741,620.9305,620.9306,621.4311,,,,,,,,,,,,0.726,1,,,,,,,,,,,,,,m,,,,,,,,,,,,,,,,,104,0,621.4318,622.1659,m,1,0.726,,[],[],[],[],[],[],[],622.1659,624.1622,624.1623,624.1624,[],[],[],[],[],[],[],,624.1625,624.1627,0.015698785,-0.393919271,0,0,1,,0,103,103,85,1,1,word,BENEFIT,print,benefit_p.png,,,,,,
,,,,32075,001,2025-12-03_24h44.10.284,HW_LDT_1,2024.2.4,MacIntel,60.0024001,,,,,,,,,,,,,,,,,,,,624.1642,624.3641,624.3642,624.8626,,,,,,,,,,,,0.7159,0,,,,,,,,,,,,,,z,,,,,,,,,,,,,,,,,105,0,624.8634,625.5804,m,0,0.7159,,[],[],[],[],[],[],[],625.5806,627.582,627.5821,627.5823,[],[],[],[],[],[],[],,627.5824,627.5826,0.015698785,-0.393919271,0,0,1,,0,104,104,56,1,1,TL,grafetul,print,grafetul_p.png,,,,,,
,,,,32075,001,2025-12-03_24h44.10.284,HW_LDT_1,2024.2.4,MacIntel,60.0024001,,,,,,,,,,,,,,,,,,,,627.5843,627.7803,627.7803,628.2804,,,,,,,,,,,,1.6902,1,,,,,,,,,,,,,,m,,,,,,,,,,,,,,,,,106,0,628.281,629.9816,m,1,1.6902,,[],[],[],[],[],[],[],629.9817,631.9798,631.9799,631.9801,[],[],[],[],[],[],[],,631.9801,631.9803,0.015698785,-0.393919271,0,0,1,,0,105,105,101,1,1,word,DELICATE,cursive,delicate_c.png,,,,,,
,,,,32075,001,2025-12-03_24h44.10.284,HW_LDT_1,2024.2.4,MacIntel,60.0024001,,,,,,,,,,,,,,,,,,,,631.9916,632.1806,632.1807,632.6797,,,,,,,,,,,,1.2734,1,,,,,,,,,,,,,,z,,,,,,,,,,,,,,,,,107,0,632.6805,633.9634,z,1,1.2734,,[],[],[],[],[],[],[],633.9635,635.9642,635.9643,635.9645,[],[],[],[],[],[],[],,635.9646,635.9647,0.015698785,-0.393919271,0,0,1,,0,106,106,6,1,1,RL,crisival,print,crisival_p.png,,,,,,
,,,,32075,001,2025-12-03_24h44.10.284,HW_LDT_1,2024.2.4,MacIntel,60.0024001,,,,,,,,,,,,,,,,,,,,635.9666,636.1642,636.1643,636.6662,,,,,,,,,,,,2.7284,1,,,,,,,,,,,,,,z,,,,,,,,,,,,,,,,,108,0,636.6669,639.3976,z,1,2.7284,,[],[],[],[],[],[],[],639.3977,641.3962,641.3962,641.3965,[],[],[],[],[],[],[],,641.3966,641.3968,0.015698785,-0.393919271,0,0,1,,0,107,107,71,1,1,TL,regilion,cursive,regilion_c.png,,,,,,
,,,,32075,001,2025-12-03_24h44.10.284,HW_LDT_1,2024.2.4,MacIntel,60.0024001,,,,,,,,,,,,,,,,,,,,641.4081,641.5961,641.5961,642.0993,,,,,,,,,,,,0.9093,1,,,,,,,,,,,,,,m,,,,,,,,,,,,,,,,,109,0,642.1001,643.0153,m,1,0.9093,,[],[],[],[],[],[],[],643.0154,645.0145,645.0146,645.0149,[],[],[],[],[],[],[],,645.0151,645.0152,0.015698785,-0.393919271,0,0,1,,0,108,108,139,1,1,word,REGULAR,print,regular_p.png,,,,,,
,,,,32075,001,2025-12-03_24h44.10.284,HW_LDT_1,2024.2.4,MacIntel,60.0024001,,,,,,,,,,,,,,,,,,,,645.0263,645.213,645.2131,645.7144,,,,,,,,,,,,0.9729,1,,,,,,,,,,,,,,z,,,,,,,,,,,,,,,,,110,0,645.715,646.6994,z,1,0.9729,,[],[],[],[],[],[],[],646.6995,648.6984,648.6985,648.6988,[],[],[],[],[],[],[],,648.6988,648.699,0.015698785,-0.393919271,0,0,1,,0,109,109,28,1,1,RL,renutal,print,renutal_p.png,,,,,,
,,,,32075,001,2025-12-03_24h44.10.284,HW_LDT_1,2024.2.4,MacIntel,60.0024001,,,,,,,,,,,,,,,,,,,,648.7104,648.8956,648.8957,649.3976,,,,,,,,,,,,2.9059,1,,,,,,,,,,,,,,z,,,,,,,,,,,,,,,,,111,0,649.3985,652.315,z,1,2.9059,,[],[],[],[],[],[],[],652.3151,654.3126,654.3126,654.3128,[],[],[],[],[],[],[],,654.3129,654.313,0.015698785,-0.393919271,0,0,1,,0,110,110,17,1,1,RL,menowy,cursive,menowy_c.png,,,,,,
,,,,32075,001,2025-12-03_24h44.10.284,HW_LDT_1,2024.2.4,MacIntel,60.0024001,,,,,,,,,,,,,,,,,,,,654.3233,654.5152,654.5153,655.0159,,,,,,,,,,,,0.8888,1,,,,,,,,,,,,,,m,,,,,,,,,,,,,,,,,112,0,655.0166,655.9156,m,1,0.8888,,[],[],[],[],[],[],[],655.9157,657.9163,657.9164,657.9168,[],[],[],[],[],[],[],,657.9168,657.9169,0.015698785,-0.393919271,0,0,1,,0,111,111,114,1,1,word,LOCATE,print,locate_p.png,,,,,,
,,,,32075,001,2025-12-03_24h44.10.284,HW_LDT_1,2024.2.4,MacIntel,60.0024001,,,,,,,,,,,,,,,,,,,,657.9184,658.1154,658.1155,658.6148,,,,,,,,,,,,1.0441,1,,,,,,,,,,,,,,z,,,,,,,,,,,,,,,,,113,0,658.6154,659.6645,z,1,1.0441,,[],[],[],[],[],[],[],659.6645,661.6644,661.6645,661.6647,[],[],[],[],[],[],[],,661.6648,661.6649,0.015698785,-0.393919271,0,0,1,,0,112,112,3,1,1,RL,casena,cursive,casena_c.png,,,,,,
,,,,32075,001,2025-12-03_24h44.10.284,HW_LDT_1,2024.2.4,MacIntel,60.0024001,,,,,,,,,,,,,,,,,,,,661.6664,661.863,661.863,662.3629,,,,,,,,,,,,1.2576,1,,,,,,,,,,,,,,z,,,,,,,,,,,,,,,,,114,0,662.3637,663.6302,z,1,1.2576,,[],[],[],[],[],[],[],663.6303,665.6314,665.6314,665.6317,[],[],[],[],[],[],[],,665.6317,665.6319,0.015698785,-0.393919271,0,0,1,,0,113,113,0,1,1,RL,abanemy,cursive,abanemy_c.png,,,,,,
,,,,32075,001,2025-12-03_24h44.10.284,HW_LDT_1,2024.2.4,MacIntel,60.0024001,,,,,,,,,,,,,,,,,,,,665.6426,665.8333,665.8333,666.3322,,,,,,,,,,,,2.1247,1,,,,,,,,,,,,,,z,,,,,,,,,,,,,,,,,115,0,666.3329,668.4661,z,1,2.1247,,[],[],[],[],[],[],[],668.4662,670.4646,670.4647,670.4651,[],[],[],[],[],[],[],,670.4651,670.4653,0.015698785,-0.393919271,0,0,1,,0,114,114,25,1,1,RL,quakity,cursive,quakity_c.png,,,,,,
,,,,32075,001,2025-12-03_24h44.10.284,HW_LDT_1,2024.2.4,MacIntel,60.0024001,,,,,,,,,,,,,,,,,,,,670.4768,670.6625,670.6626,671.1631,,,,,,,,,,,,0.7574,1,,,,,,,,,,,,,,m,,,,,,,,,,,,,,,,,116,0,671.1637,671.9332,m,1,0.7574,,[],[],[],[],[],[],[],671.9333,673.9303,673.9303,673.9306,[],[],[],[],[],[],[],,673.9307,673.9308,0.015698785,-0.393919271,0,0,1,,0,115,115,142,1,1,word,REMOTE,print,remote_p.png,,,,,,
,,,,32075,001,2025-12-03_24h44.10.284,HW_LDT_1,2024.2.4,MacIntel,60.0024001,,,,,,,,,,,,,,,,,,,,673.9325,674.1307,674.1309,674.63,,,,,,,,,,,,1.1131,1,,,,,,,,,,,,,,m,,,,,,,,,,,,,,,,,117,1,674.6306,675.7461,m,1,1.1131,,[],[],[],[],[],[],[],675.7462,677.7479,677.7479,678.8465,[],[],[],[],[],[],[],z,678.8467,678.847,0.015698785,-0.393919271,0,0,1,,0,116,116,112,1,1,word,LIBERAL,cursive,liberal_c.png,1.0905,,,,,
,,,,32075,001,2025-12-03_24h44.10.284,HW_LDT_1,2024.2.4,MacIntel,60.0024001,,,,,,,,,,,,,,,,,,,,678.8579,679.0478,679.0478,679.5474,,,,,,,,,,,,1.424,1,,,,,,,,,,,,,,m,,,,,,,,,,,,,,,,,118,1,679.548,680.98,m,1,1.424,,[],[],[],[],[],[],[],680.9801,682.9806,682.9807,685.5643,[],[],[],[],[],[],[],z,685.5644,685.5646,0.015698785,-0.393919271,0,0,1,,0,117,117,131,1,1,word,POPULAR,cursive,popular_c.png,2.5756,,,,,
,,,,32075,001,2025-12-03_24h44.10.284,HW_LDT_1,2024.2.4,MacIntel,60.0024001,,,,,,,,,,,,,,,,,,,,685.5757,685.765,685.7651,686.2641,,,,,,,,,,,,0.9741,1,,,,,,,,,,,,,,z,,,,,,,,,,,,,,,,,119,1,686.2648,687.2492,z,1,0.9741,,[],[],[],[],[],[],[],687.2494,689.2501,689.2501,696.3471,[],[],[],[],[],[],[],z,696.3473,696.3474,0.015698785,-0.393919271,0,0,1,,0,118,118,42,1,1,TL,befenit,print,befenit_p.png,7.0891,,,,,
,,,,32075,001,2025-12-03_24h44.10.284,HW_LDT_1,2024.2.4,MacIntel,60.0024001,,,,,,,,,,,,,,,,,,,,696.3585,696.5478,696.5478,697.0478,,,,,,,,,,,,1.9228,1,,,,,,,,,,,,,,z,,,,,,,,,,,,,,,,,120,0,697.0484,698.9826,z,1,1.9228,,[],[],[],[],[],[],[],698.9826,700.9813,700.9814,700.9816,[],[],[],[],[],[],[],,700.9816,700.9818,0.015698785,-0.393919271,0,0,1,,0,119,119,61,1,1,TL,mecidine,cursive,mecidine_c.png,,,,,,
,,,,32075,001,2025-12-03_24h44.10.284,HW_LDT_1,2024.2.4,MacIntel,60.0024001,,,,,,,,,,,,,,,,,,,,700.9929,701.18,701.18,701.68,,,,,,,,,,,,2.6582,1,,,,,,,,,,,,,,z,,,,,,,,,,,,,,,,,121,0,701.6809,704.3466,z,1,2.6582,,[],[],[],[],[],[],[],704.3466,706.35,706.35,706.3503,[],[],[],[],[],[],[],,706.3504,706.3505,0.015698785,-0.393919271,0,0,1,,0,120,120,69,1,1,TL,radiply,cursive,radiply_c.png,,,,,,
,,,,32075,001,2025-12-03_24h44.10.284,HW_LDT_1,2024.2.4,MacIntel,60.0024001,,,,,,,,,,,,,,,,,,,,706.3627,706.5485,706.5486,707.0465,,,,,,,,,,,,6.2089,1,,,,,,,,,,,,,,m,,,,,,,,,,,,,,,,,122,0,707.0471,713.2633,m,1,6.2089,,[],[],[],[],[],[],[],713.2634,715.2641,715.2641,715.2643,[],[],[],[],[],[],[],,715.2644,715.2645,0.015698785,-0.393919271,0,0,1,,0,121,121,134,1,1,word,QUALIFY,cursive,qualify_c.png,,,,,,
,,,,32075,001,2025-12-03_24h44.10.284,HW_LDT_1,2024.2.4,MacIntel,60.0024001,,,,,,,,,,,,,,,,,,,,715.2758,715.4666,715.4667,715.9634,,,,,,,,,,,,1.0921,1,,,,,,,,,,,,,,m,,,,,,,,,,,,,,,,,123,0,715.964,717.0648,m,1,1.0921,,[],[],[],[],[],[],[],717.0649,719.0627,719.0627,719.0632,[],[],[],[],[],[],[],,719.0633,719.0634,0.015698785,-0.393919271,0,0,1,,0,122,122,104,1,1,word,DOMINANT,cursive,dominant_c.png,,,,,,
,,,,32075,001,2025-12-03_24h44.10.284,HW_LDT_1,2024.2.4,MacIntel,60.0024001,,,,,,,,,,,,,,,,,,,,719.0648,719.2634,719.2634,719.7639,,,,,,,,,,,,0.9902,0,,,,,,,,,,,,,,m,,,,,,,,,,,,,,,,,124,0,719.7645,720.767,z,0,0.9902,,[],[],[],[],[],[],[],720.7672,722.7647,722.7647,722.7649,[],[],[],[],[],[],[],,722.7651,722.7652,0.015698785,-0.393919271,0,0,1,,0,123,123,146,1,1,word,RETIRE,cursive,retire_c.png,,,,,,
,,,,32075,001,2025-12-03_24h44.10.284,HW_LDT_1,2024.2.4,MacIntel,60.0024001,,,,,,,,,,,,,,,,,,,,722.7665,722.9647,722.9648,723.4638,,,,,,,,,,,,0.9301,1,,,,,,,,,,,,,,m,,,,,,,,,,,,,,,,,125,1,723.4647,724.3968,m,1,0.9301,,[],[],[],[],[],[],[],724.3968,726.3986,726.3986,728.6993,[],[],[],[],[],[],[],z,728.6994,728.6996,0.015698785,-0.393919271,0,0,1,,0,124,124,92,1,1,word,CATEGORY,print,category_p.png,2.2963,,,,,
,,,,32075,001,2025-12-03_24h44.10.284,HW_LDT_1,2024.2.4,MacIntel,60.0024001,,,,,,,,,,,,,,,,,,,,728.71,728.8974,728.8974,729.3999,,,,,,,,,,,,1.772,1,,,,,,,,,,,,,,m,,,,,,,,,,,,,,,,,126,0,729.4005,731.1825,m,1,1.772,,[],[],[],[],[],[],[],731.1826,733.183,733.183,733.1831,[],[],[],[],[],[],[],,733.1831,733.1832,0.015698785,-0.393919271,0,0,1,,0,125,125,143,1,1,word,REMOVAL,cursive,removal_c.png,,,,,,
,,,,32075,001,2025-12-03_24h44.10.284,HW_LDT_1,2024.2.4,MacIntel,60.0024001,,,,,,,,,,,,,,,,,,,,733.1836,733.3816,733.3817,733.8835,,,,,,,,,,,,0.9551,1,,,,,,,,,,,,,,z,,,,,,,,,,,,,,,,,127,0,733.8841,734.8484,z,1,0.9551,,[],[],[],[],[],[],[],734.8485,736.8483,736.8483,736.8485,[],[],[],[],[],[],[],,736.8485,736.8487,0.015698785,-0.393919271,0,0,1,,0,126,126,31,1,1,RL,reconal,cursive,reconal_c.png,,,,,,
,,,,32075,001,2025-12-03_24h44.10.284,HW_LDT_1,2024.2.4,MacIntel,60.0024001,,,,,,,,,,,,,,,,,,,,736.8499,737.0469,737.047,737.549,,,,,,,,,,,,0.9238,0,,,,,,,,,,,,,,m,,,,,,,,,,,,,,,,,128,1,737.5497,738.4831,z,0,0.9238,,[],[],[],[],[],[],[],738.4832,740.483,740.4831,741.7803,[],[],[],[],[],[],[],z,741.7804,741.7805,0.015698785,-0.393919271,0,0,1,,0,127,127,87,1,1,word,CAFETERIA,cursive,cafeteria_c.png,1.2905,,,,,
,,,,32075,001,2025-12-03_24h44.10.284,HW_LDT_1,2024.2.4,MacIntel,60.0024001,,,,,,,,,,,,,,,,,,,,741.7917,741.9803,741.9803,742.4823,,,,,,,,,,,,1.8726,1,,,,,,,,,,,,,,m,,,,,,,,,,,,,,,,,129,0,742.483,744.3637,m,1,1.8726,,[],[],[],[],[],[],[],744.3638,746.3636,746.3637,746.364,[],[],[],[],[],[],[],,746.364,746.3641,0.015698785,-0.393919271,0,0,1,,0,128,128,137,1,1,word,RAPIDLY,cursive,rapidly_c.png,,,,,,
,,,,32075,001,2025-12-03_24h44.10.284,HW_LDT_1,2024.2.4,MacIntel,60.0024001,,,,,,,,,,,,,,,,,,,,746.3746,746.5636,746.5637,747.0651,,,,,,,,,,,,0.8423,1,,,,,,,,,,,,,,z,,,,,,,,,,,,,,,,,130,0,747.0657,747.9159,z,1,0.8423,,[],[],[],[],[],[],[],747.916,749.9149,749.915,749.9152,[],[],[],[],[],[],[],,749.9153,749.9154,0.015698785,-0.393919271,0,0,1,,0,129,129,55,1,1,TL,fornute,print,fornute_p.png,,,,,,
,,,,32075,001,2025-12-03_24h44.10.284,HW_LDT_1,2024.2.4,MacIntel,60.0024001,,,,,,,,,,,,,,,,,,,,749.9264,750.117,750.117,750.6146,,,,,,,,,,,,0.8411,1,,,,,,,,,,,,,,m,,,,,,,,,,,,,,,,,131,0,750.6152,751.4667,m,1,0.8411,,[],[],[],[],[],[],[],751.4668,753.465,753.4651,753.4652,[],[],[],[],[],[],[],,753.4654,753.4655,0.015698785,-0.393919271,0,0,1,,0,130,130,95,1,1,word,COMEDY,cursive,comedy_c.png,,,,,,
,,,,32075,001,2025-12-03_24h44.10.284,HW_LDT_1,2024.2.4,MacIntel,60.0024001,,,,,,,,,,,,,,,,,,,,753.4762,753.6637,753.6637,754.1646,,,,,,,,,,,,1.2786,1,,,,,,,,,,,,,,m,,,,,,,,,,,,,,,,,132,0,754.1652,755.4494,m,1,1.2786,,[],[],[],[],[],[],[],755.4495,757.4497,757.4498,757.4501,[],[],[],[],[],[],[],,757.4501,757.4502,0.015698785,-0.393919271,0,0,1,,0,131,131,107,1,1,word,EVIDENT,print,evident_p.png,,,,,,
,,,,32075,001,2025-12-03_24h44.10.284,HW_LDT_1,2024.2.4,MacIntel,60.0024001,,,,,,,,,,,,,,,,,,,,757.4607,757.648,757.648,758.1495,,,,,,,,,,,,0.8225,1,,,,,,,,,,,,,,z,,,,,,,,,,,,,,,,,133,0,758.1502,758.9817,z,1,0.8225,,[],[],[],[],[],[],[],758.9817,760.9836,760.9837,760.9839,[],[],[],[],[],[],[],,760.9839,760.984,0.015698785,-0.393919271,0,0,1,,0,132,132,37,1,1,RL,skofen,print,skofen_p.png,,,,,,
,,,,32075,001,2025-12-03_24h44.10.284,HW_LDT_1,2024.2.4,MacIntel,60.0024001,,,,,,,,,,,,,,,,,,,,760.9854,761.1825,761.1826,761.6804,,,,,,,,,,,,5.3639,1,,,,,,,,,,,,,,z,,,,,,,,,,,,,,,,,134,0,761.6809,767.0465,z,1,5.3639,,[],[],[],[],[],[],[],767.0467,769.0481,769.0482,769.0485,[],[],[],[],[],[],[],,769.0486,769.0487,0.015698785,-0.393919271,0,0,1,,0,133,133,49,1,1,TL,clicinal,cursive,clicinal_c.png,,,,,,
,,,,32075,001,2025-12-03_24h44.10.284,HW_LDT_1,2024.2.4,MacIntel,60.0024001,,,,,,,,,,,,,,,,,,,,769.0599,769.2473,769.2473,769.7482,,,,,,,,,,,,0.9639,1,,,,,,,,,,,,,,z,,,,,,,,,,,,,,,,,135,0,769.7488,770.7148,z,1,0.9639,,[],[],[],[],[],[],[],770.7152,772.7138,772.7139,772.7141,[],[],[],[],[],[],[],,772.7142,772.7143,0.015698785,-0.393919271,0,0,1,,0,134,134,43,1,1,TL,bedise,print,bedise_p.png,,,,,,
,,,,32075,001,2025-12-03_24h44.10.284,HW_LDT_1,2024.2.4,MacIntel,60.0024001,,,,,,,,,,,,,,,,,,,,772.7157,772.9152,772.9152,773.4146,,,,,,,,,,,,1.341,1,,,,,,,,,,,,,,m,,,,,,,,,,,,,,,,,136,1,773.4152,774.766,m,1,1.341,,[],[],[],[],[],[],[],774.7662,776.7637,776.7637,777.9815,[],[],[],[],[],[],[],z,777.9815,777.9817,0.015698785,-0.393919271,0,0,1,,0,135,135,81,1,1,word,ADVISORY,cursive,advisory_c.png,1.2099,,,,,
,,,,32075,001,2025-12-03_24h44.10.284,HW_LDT_1,2024.2.4,MacIntel,60.0024001,,,,,,,,,,,,,,,,,,,,777.9904,778.182,778.182,778.6821,,,,,,,,,,,,1.8594,0,,,,,,,,,,,,,,m,,,,,,,,,,,,,,,,,137,0,778.6828,780.5503,z,0,1.8594,,[],[],[],[],[],[],[],780.5504,782.5473,782.5473,782.5476,[],[],[],[],[],[],[],,782.5476,782.5478,0.015698785,-0.393919271,0,0,1,,0,136,136,118,1,1,word,MEDICINE,cursive,medicine_c.png,,,,,,
,,,,32075,001,2025-12-03_24h44.10.284,HW_LDT_1,2024.2.4,MacIntel,60.0024001,,,,,,,,,,,,,,,,,,,,782.5594,782.7482,782.7484,783.249,,,,,,,,,,,,1.34,1,,,,,,,,,,,,,,z,,,,,,,,,,,,,,,,,138,0,783.2497,784.598,z,1,1.34,,[],[],[],[],[],[],[],784.598,786.5997,786.5998,786.6002,[],[],[],[],[],[],[],,786.6003,786.6005,0.015698785,-0.393919271,0,0,1,,0,137,137,59,1,1,TL,lirebal,cursive,lirebal_c.png,,,,,,
,,,,32075,001,2025-12-03_24h44.10.284,HW_LDT_1,2024.2.4,MacIntel,60.0024001,,,,,,,,,,,,,,,,,,,,786.611,786.8003,786.8003,787.2972,,,,,,,,,,,,1.4264,1,,,,,,,,,,,,,,m,,,,,,,,,,,,,,,,,139,0,787.2977,788.7341,m,1,1.4264,,[],[],[],[],[],[],[],788.7342,790.7339,790.734,790.7343,[],[],[],[],[],[],[],,790.7343,790.7344,0.015698785,-0.393919271,0,0,1,,0,138,138,135,1,1,word,QUALITY,cursive,quality_c.png,,,,,,
,,,,32075,001,2025-12-03_24h44.10.284,HW_LDT_1,2024.2.4,MacIntel,60.0024001,,,,,,,,,,,,,,,,,,,,790.7453,790.9306,790.9307,791.4307,,,,,,,,,,,,0.7431,1,,,,,,,,,,,,,,m,,,,,,,,,,,,,,,,,140,0,791.4316,792.1844,m,1,0.7431,,[],[],[],[],[],[],[],792.1846,794.1818,794.1819,794.1821,[],[],[],[],[],[],[],,794.1822,794.1823,0.015698785,-0.393919271,0,0,1,,0,139,139,123,1,1,word,MODERATE,print,moderate_p.png,,,,,,
,,,,32075,001,2025-12-03_24h44.10.284,HW_LDT_1,2024.2.4,MacIntel,60.0024001,,,,,,,,,,,,,,,,,,,,794.1839,794.3821,794.3821,794.8817,,,,,,,,,,,,1.7116,1,,,,,,,,,,,,,,z,,,,,,,,,,,,,,,,,141,1,794.8823,796.5989,z,1,1.7116,,[],[],[],[],[],[],[],796.599,798.5988,798.5989,800.0833,[],[],[],[],[],[],[],z,800.0834,800.0836,0.015698785,-0.393919271,0,0,1,,0,140,140,36,1,1,RL,speniven,cursive,speniven_c.png,1.4737,,,,,
,,,,32075,001,2025-12-03_24h44.10.284,HW_LDT_1,2024.2.4,MacIntel,60.0024001,,,,,,,,,,,,,,,,,,,,800.0948,800.2821,800.2822,800.7807,,,,,,,,,,,,1.4817,1,,,,,,,,,,,,,,m,,,,,,,,,,,,,,,,,142,0,800.7814,802.2672,m,1,1.4817,,[],[],[],[],[],[],[],802.2672,804.2648,804.2649,804.2652,[],[],[],[],[],[],[],,804.2652,804.2654,0.015698785,-0.393919271,0,0,1,,0,141,141,124,1,1,word,NUMERICAL,print,numerical_p.png,,,,,,
,,,,32075,001,2025-12-03_24h44.10.284,HW_LDT_1,2024.2.4,MacIntel,60.0024001,,,,,,,,,,,,,,,,,,,,804.276,804.4669,804.4669,804.9642,,,,,,,,,,,,0.8324,1,,,,,,,,,,,,,,m,,,,,,,,,,,,,,,,,143,0,804.9647,805.7982,m,1,0.8324,,[],[],[],[],[],[],[],805.7983,807.7985,807.7986,807.7989,[],[],[],[],[],[],[],,807.7989,807.7991,0.015698785,-0.393919271,0,0,1,,0,142,142,136,1,1,word,RADICAL,print,radical_p.png,,,,,,
,,,,32075,001,2025-12-03_24h44.10.284,HW_LDT_1,2024.2.4,MacIntel,60.0024001,,,,,,,,,,,,,,,,,,,,807.8097,807.9971,807.9971,808.5007,,,,,,,,,,,,1.2078,1,,,,,,,,,,,,,,m,,,,,,,,,,,,,,,,,144,0,808.5013,809.7151,m,1,1.2078,,[],[],[],[],[],[],[],809.7152,811.7161,811.7162,811.7183,[],[],[],[],[],[],[],,811.7184,811.7184,0.017695313,-0.402083333,0,0,1,,0,143,143,122,1,1,word,MOBILE,cursive,mobile_c.png,,,,,,
,,,,32075,001,2025-12-03_24h44.10.284,HW_LDT_1,2024.2.4,MacIntel,60.0024001,,,,,,,,,,,,,,,,,,,,811.7285,811.9142,811.9143,812.4155,,,,,,,,,,,,1.3899,1,,,,,,,,,,,,,,z,,,,,,,,,,,,,,,,,145,0,812.4162,813.8173,z,1,1.3899,,[],[],[],[],[],[],[],813.8174,815.8152,815.8152,815.8155,[],[],[],[],[],[],[],,815.8155,815.8156,0.017695313,-0.402083333,0,0,1,,0,144,144,15,1,1,RL,losipal,cursive,losipal_c.png,,,,,,
,,,,32075,001,2025-12-03_24h44.10.284,HW_LDT_1,2024.2.4,MacIntel,60.0024001,,,,,,,,,,,,,,,,,,,,815.8263,816.0163,816.0163,816.5138,,,,,,,,,,,,4.5744,0,,,,,,,,,,,,,,z,,,,,,,,,,,,,,,,,146,0,816.5146,821.0983,m,0,4.5744,,[],[],[],[],[],[],[],821.0984,823.0993,823.0993,823.0996,[],[],[],[],[],[],[],,823.0996,823.0997,0.017695313,-0.402083333,0,0,1,,0,145,145,65,1,1,TL,orinigal,cursive,orinigal_c.png,,,,,,
,,,,32075,001,2025-12-03_24h44.10.284,HW_LDT_1,2024.2.4,MacIntel,60.0024001,,,,,,,,,,,,,,,,,,,,823.1105,823.2971,823.2972,823.7988,,,,,,,,,,,,1.8401,1,,,,,,,,,,,,,,z,,,,,,,,,,,,,,,,,147,0,823.7995,825.6514,z,1,1.8401,,[],[],[],[],[],[],[],825.6516,827.6494,827.6495,827.6497,[],[],[],[],[],[],[],,827.6497,827.6498,0.017695313,-0.402083333,0,0,1,,0,146,146,16,1,1,RL,marmipal,print,marmipal_p.png,,,,,,
,,,,32075,001,2025-12-03_24h44.10.284,HW_LDT_1,2024.2.4,MacIntel,60.0024001,,,,,,,,,,,,,,,,,,,,827.6614,827.8494,827.8495,828.3492,,,,,,,,,,,,0.91,1,,,,,,,,,,,,,,m,,,,,,,,,,,,,,,,,148,0,828.3499,829.264,m,1,0.91,,[],[],[],[],[],[],[],829.264,831.2644,831.2644,831.2646,[],[],[],[],[],[],[],,831.2647,831.2648,0.017695313,-0.402083333,0,0,1,,0,147,147,120,1,1,word,MILITARY,print,military_p.png,,,,,,
,,,,32075,001,2025-12-03_24h44.10.284,HW_LDT_1,2024.2.4,MacIntel,60.0024001,,,,,,,,,,,,,,,,,,,,831.2664,831.4643,831.4643,831.9639,,,,,,,,,,,,2.8599,1,,,,,,,,,,,,,,z,,,,,,,,,,,,,,,,,149,1,831.9645,834.8345,z,1,2.8599,,[],[],[],[],[],[],[],834.8347,836.8321,836.8321,838.2478,[],[],[],[],[],[],[],m,838.2479,838.248,0.017695313,-0.402083333,0,0,1,,0,148,148,62,1,1,TL,mitilary,print,mitilary_p.png,1.4092,,,,,
,,,,32075,001,2025-12-03_24h44.10.284,HW_LDT_1,2024.2.4,MacIntel,60.0024001,,,,,,,,,,,,,,,,,,,,838.2585,838.4481,838.4482,838.9482,,,,,,,,,,,,1.8978,1,,,,,,,,,,,,,,z,,,,,,,,,,,,,,,,,150,0,838.9488,840.8492,z,1,1.8978,,[],[],[],[],[],[],[],840.8494,842.8476,842.8477,842.848,[],[],[],[],[],[],[],,842.848,842.8481,0.017695313,-0.402083333,0,0,1,,0,149,149,9,1,1,RL,docirant,cursive,docirant_c.png,,,,,,
,,,,32075,001,2025-12-03_24h44.10.284,HW_LDT_1,2024.2.4,MacIntel,60.0024001,,,,,,,,,,,,,,,,,,,,842.8589,843.0491,843.0491,843.5485,,,,,,,,,,,,0.8981,1,,,,,,,,,,,,,,m,,,,,,,,,,,,,,,,,151,1,843.5492,844.4495,m,1,0.8981,,[],[],[],[],[],[],[],844.4495,846.451,846.4511,850.9979,[],[],[],[],[],[],[],z,850.9981,850.9982,0.017695313,-0.402083333,0,0,1,,0,150,150,145,1,1,word,RESUME,print,resume_p.png,4.5395,,,,,
,,,,32075,001,2025-12-03_24h44.10.284,HW_LDT_1,2024.2.4,MacIntel,60.0024001,,,,,,,,,,,,,,,,,,,,851.0094,851.2003,851.2004,851.6999,,,,,,,,,,,,1.1281,1,,,,,,,,,,,,,,m,,,,,,,,,,,,,,,,,152,0,851.7008,852.8347,m,1,1.1281,,[],[],[],[],[],[],[],852.8349,854.8313,854.8315,854.8317,[],[],[],[],[],[],[],,854.8318,854.8319,0.017695313,-0.402083333,0,0,1,,0,151,151,141,1,1,word,RELIGION,cursive,religion_c.png,,,,,,
,,,,32075,001,2025-12-03_24h44.10.284,HW_LDT_1,2024.2.4,MacIntel,60.0024001,,,,,,,,,,,,,,,,,,,,854.8334,855.0347,855.0347,855.5338,,,,,,,,,,,,1.756,1,,,,,,,,,,,,,,z,,,,,,,,,,,,,,,,,153,0,855.5344,857.3007,z,1,1.756,,[],[],[],[],[],[],[],857.3008,859.2999,859.3,859.3003,[],[],[],[],[],[],[],,859.3003,859.3005,0.017695313,-0.402083333,0,0,1,,0,152,152,76,1,1,TL,stragety,cursive,stragety_c.png,,,,,,
,,,,32075,001,2025-12-03_24h44.10.284,HW_LDT_1,2024.2.4,MacIntel,60.0024001,,,,,,,,,,,,,,,,,,,,859.311,859.4979,859.4979,859.9992,,,,,,,,,,,,0.9905,1,,,,,,,,,,,,,,z,,,,,,,,,,,,,,,,,154,0,860,860.998,z,1,0.9905,,[],[],[],[],[],[],[],860.9981,862.9999,862.9999,863.0002,[],[],[],[],[],[],[],,863.0003,863.0003,0.017695313,-0.402083333,0,0,1,,0,153,153,7,1,1,RL,delahe,print,delahe_p.png,,,,,,
,,,,32075,001,2025-12-03_24h44.10.284,HW_LDT_1,2024.2.4,MacIntel,60.0024001,,,,,,,,,,,,,,,,,,,,863.0021,863.2004,863.2004,863.699,,,,,,,,,,,,0.6913,1,,,,,,,,,,,,,,m,,,,,,,,,,,,,,,,,155,1,863.6996,864.3981,m,1,0.6913,,[],[],[],[],[],[],[],864.3981,866.399,866.3991,867.7178,[],[],[],[],[],[],[],m,867.7179,867.718,0.017695313,-0.402083333,0,0,1,,0,154,154,109,1,1,word,GRATEFUL,print,grateful_p.png,1.3083,,,,,
,,,,32075,001,2025-12-03_24h44.10.284,HW_LDT_1,2024.2.4,MacIntel,60.0024001,,,,,,,,,,,,,,,,,,,,867.7289,867.9179,867.9179,868.4152,,,,,,,,,,,,1.2908,1,,,,,,,,,,,,,,m,,,,,,,,,,,,,,,,,156,0,868.416,869.7148,m,1,1.2908,,[],[],[],[],[],[],[],869.7148,871.7146,871.7147,871.7149,[],[],[],[],[],[],[],,871.715,871.7151,0.017695313,-0.402083333,0,0,1,,0,155,155,130,1,1,word,POLICY,cursive,policy_c.png,,,,,,
,,,,32075,001,2025-12-03_24h44.10.284,HW_LDT_1,2024.2.4,MacIntel,60.0024001,,,,,,,,,,,,,,,,,,,,871.7265,871.9172,871.9173,872.4181,,,,,,,,,,,,1.0422,1,,,,,,,,,,,,,,z,,,,,,,,,,,,,,,,,157,1,872.419,873.4658,z,1,1.0422,,[],[],[],[],[],[],[],873.4658,875.4646,875.4647,876.9987,[],[],[],[],[],[],[],z,876.9988,876.9989,0.017695313,-0.402083333,0,0,1,,0,156,156,26,1,1,RL,quafidy,cursive,quafidy_c.png,1.5317,,,,,
,,,,32075,001,2025-12-03_24h44.10.284,HW_LDT_1,2024.2.4,MacIntel,60.0024001,,,,,,,,,,,,,,,,,,,,877.009,877.2011,877.2011,877.7007,,,,,,,,,,,,1.3774,0,,,,,,,,,,,,,,m,,,,,,,,,,,,,,,,,158,0,877.7014,879.082,z,0,1.3774,,[],[],[],[],[],[],[],879.0821,881.082,881.082,881.0823,[],[],[],[],[],[],[],,881.0824,881.0825,0.017695313,-0.402083333,0,0,1,,0,157,157,149,1,1,word,SENATOR,cursive,senator_c.png,,,,,,
,,,,32075,001,2025-12-03_24h44.10.284,HW_LDT_1,2024.2.4,MacIntel,60.0024001,,,,,,,,,,,,,,,,,,,,881.0929,881.281,881.281,881.7831,,,,,,,,,,,,1.1554,1,,,,,,,,,,,,,,z,,,,,,,,,,,,,,,,,159,0,881.7839,882.9488,z,1,1.1554,,[],[],[],[],[],[],[],882.9489,884.9496,884.9497,884.9499,[],[],[],[],[],[],[],,884.95,884.9501,0.017695313,-0.402083333,0,0,1,,0,158,158,33,1,1,RL,recile,cursive,recile_c.png,,,,,,
,,,,32075,001,2025-12-03_24h44.10.284,HW_LDT_1,2024.2.4,MacIntel,60.0024001,,,,,,,,,,,,,,,,,,,,884.9517,885.1495,885.1495,885.6493,,,,,,,,,,,,2.7444,1,,,,,,,,,,,,,,z,,,,,,,,,,,,,,,,,160,0,885.6501,888.3995,z,1,2.7444,,[],[],[],[],[],[],[],888.3996,890.3981,890.3982,890.3985,[],[],[],[],[],[],[],,890.3985,890.3988,0.017695313,-0.402083333,0,0,1,,0,159,159,53,1,1,TL,dentisy,cursive,dentisy_c.png,,,,,,
,,,,32075,001,2025-12-03_24h44.10.284,HW_LDT_1,2024.2.4,MacIntel,60.0024001,,,,,,,,,,,,,,,,,,,,,,,,,,,,,,,,,,,,,,,,,,,,,,,,,,,,,,,,,,,,,,,,,,,,,,,,,,,,,,,,,,,,,,,,,,,,,,,,,,,,,,,,,,,,,,,,,,,,890.4215,895.3995
