counterbalance_lists.group,counterbalance_lists.remaining,get_list.started,get_list.stopped,participant,session,date,expName,psychopyVersion,OS,frameRate,Instructions.started,Instructions.stopped,key_resp.keys,key_resp.rt,key_resp.duration,instr_done_touch.x,instr_done_touch.y,instr_done_touch.leftButton,instr_done_touch.midButton,instr_done_touch.rightButton,start_instr.thisRepN,start_instr.thisTrialN,start_instr.thisN,start_instr.thisIndex,start_instr.ran,pageN,phase,instruct_text,has_image,instruct_image,showProgress.started,showProgress.stopped,fix.started,fix.stopped,prac.started,prac.stopped,response.keys,response.corr,response.rt,response.duration,touch_resp.x,touch_resp.y,touch_resp.leftButton,touch_resp.midButton,touch_resp.rightButton,touch_resp.time,touch_resp.clicked_name,rt,corr,feedback.started,feedback.stopped,trials.thisRepN,trials.thisTrialN,trials.thisN,trials.thisIndex,trials.ran,TrialID,StimulusType,Condition,PrimeDuration,Prime,Target,corrAns,Instructions_expt.started,Instructions_expt.stopped,key_resp_3.keys,key_resp_3.rt,key_resp_3.duration,instr_done_touch_3.x,instr_done_touch_3.y,instr_done_touch_3.leftButton,instr_done_touch_3.midButton,instr_done_touch_3.rightButton,instr_experiment.thisRepN,instr_experiment.thisTrialN,instr_experiment.thisN,instr_experiment.thisIndex,instr_experiment.ran,trialID,flag,maintask.started,maintask.stopped,key_resp_2.keys,key_resp_2.corr,key_resp_2.rt,key_resp_2.duration,targ_click.x,targ_click.y,targ_click.leftButton,targ_click.midButton,targ_click.rightButton,targ_click.time,targ_click.clicked_name,ITI.started,ITI.stopped,probe.started,probe.stopped,click_probe.x,click_probe.y,click_probe.leftButton,click_probe.midButton,click_probe.rightButton,click_probe.time,click_probe.clicked_name,key_resp_probe.keys,Break.started,Break.stopped,break_done_touch.x,break_done_touch.y,break_done_touch.leftButton,break_done_touch.midButton,break_done_touch.rightButton,break_done_keyboard.keys,list4_trials.thisRepN,list4_trials.thisTrialN,list4_trials.thisN,list4_trials.thisIndex,list4_trials.ran,list_id,item_type,string,font,stim_file,key_resp_probe.rt,key_resp_probe.duration,break_done_keyboard.rt,break_done_keyboard.duration,End.started,End.stopped
list4,,0.3971,0.3972,32072,001,2025-12-02_21h19.02.318,HW_LDT_1,2024.2.4,Win32,62.89308176,,,,,,,,,,,,,,,,,,,,,,,,,,,,,,,,,,,,,,,,,,,,,,,,,,,,,,,,,,,,,,,,,,,,,,,,,,,,,,,,,,,,,,,,,,,,,,,,,,,,,,,,,,,,,,,,,,,,,,,
,,,,32072,001,2025-12-02_21h19.02.318,HW_LDT_1,2024.2.4,Win32,62.89308176,0.4122,2.9951,space,2.5557,0.001,-0.069444444,-0.361111111,0,0,0,0,0,0,0,1,1,instructions,"INSTRUCTIONS
At the start of each trial, look at the plus sign  (+) in the center of the screen.  This tells you that a trial is about to begin and where to look. Second, the plus sign will disappear and a string of letters will appear. Your task is to determine if the string of letters is a word or not. If the item is a word press the M key (on keyboard)  or touch the word button (phone/tablet).  If the item is not a word,  press the  Z key (on keyboard)  or touch the nonword button (on phone/tablet). The items will be presented for a short time. 
Press the space bar or touch  continue.",0,,,,,,,,,,,,,,,,,,,,,,,,,,,,,,,,,,,,,,,,,,,,,,,,,,,,,,,,,,,,,,,,,,,,,,,,,,,,,,,,,,,,,,,,,,,,,,,,,,,,
,,,,32072,001,2025-12-02_21h19.02.318,HW_LDT_1,2024.2.4,Win32,62.89308176,3.0009,3.7506,space,0.7246,,-0.050000014,-0.397222236,0,0,0,0,1,1,1,1,2,instructions,"If your device has a keyboard, press the 'Z' key for nonwords and the 'M' key for words.





Press the space bar or touch the button below to continue.",0,keyboard-example.gif,,,,,,,,,,,,,,,,,,,,,,,,,,,,,,,,,,,,,,,,,,,,,,,,,,,,,,,,,,,,,,,,,,,,,,,,,,,,,,,,,,,,,,,,,,,,,,,,,,,
,,,,32072,001,2025-12-02_21h19.02.318,HW_LDT_1,2024.2.4,Win32,62.89308176,3.7568,4.1747,space,0.3888,,-0.050000014,-0.397222236,0,0,0,0,2,2,2,1,3,instructions,"If you are using a touchscreen only device, use the buttons on the screen. Do not use the mouse.





Press the space bar or touch the button below to continue.",0,touchscreen-example.gif,,,,,,,,,,,,,,,,,,,,,,,,,,,,,,,,,,,,,,,,,,,,,,,,,,,,,,,,,,,,,,,,,,,,,,,,,,,,,,,,,,,,,,,,,,,,,,,,,,,
,,,,32072,001,2025-12-02_21h19.02.318,HW_LDT_1,2024.2.4,Win32,62.89308176,4.1801,4.5896,space,0.3827,,-0.050000014,-0.397222236,0,0,0,0,3,3,3,1,4,instructions,"It is very important that you respond as quickly and accurately as possible, as each letter string will only be on the screen for two seconds. If you do not respond within this time, the message 'Too slow!' will be displayed and the experiment will progress to the next letter string. The first 20 trials will be practice trials and you will receive feedback on your answers. 

Press the space bar or touch the button below to start the practice trials.",0,,,,,,,,,,,,,,,,,,,,,,,,,,,,,,,,,,,,,,,,,,,,,,,,,,,,,,,,,,,,,,,,,,,,,,,,,,,,,,,,,,,,,,,,,,,,,,,,,,,,
,,,,32072,001,2025-12-02_21h19.02.318,HW_LDT_1,2024.2.4,Win32,62.89308176,,,,,,,,,,,,,,,,,,,,,4.6476,4.7872,4.7872,5.2877,5.2884,6.9336,z,1,1.6102,,[],[],[],[],[],[],[],1.6102,1,6.9344,7.4292,0,0,0,11,1,1012,NW,"ID",16,rashet,RASHET,z,,,,,,,,,,,,,,,,,,,,,,,,,,,,,,,,,,,,,,,,,,,,,,,,,,,,,,,,,,,,,,,,,,
,,,,32072,001,2025-12-02_21h19.02.318,HW_LDT_1,2024.2.4,Win32,62.89308176,,,,,,,,,,,,,,,,,,,,,7.4324,7.6233,7.6236,8.1213,8.1264,8.7447,z,1,0.5962,,[],[],[],[],[],[],[],0.5962,1,8.7455,9.2542,0,1,1,9,1,1010,NW,"ID",33,fariny,FARINY,z,,,,,,,,,,,,,,,,,,,,,,,,,,,,,,,,,,,,,,,,,,,,,,,,,,,,,,,,,,,,,,,,,,
,,,,32072,001,2025-12-02_21h19.02.318,HW_LDT_1,2024.2.4,Win32,62.89308176,,,,,,,,,,,,,,,,,,,,,9.2558,9.4515,9.4521,9.9523,9.9551,10.5323,m,1,0.5559,,[],[],[],[],[],[],[],0.5559,1,10.5324,11.0301,0,2,2,3,1,1004,WORD,"ID",16,matrix,MATRIX,m,,,,,,,,,,,,,,,,,,,,,,,,,,,,,,,,,,,,,,,,,,,,,,,,,,,,,,,,,,,,,,,,,,
,,,,32072,001,2025-12-02_21h19.02.318,HW_LDT_1,2024.2.4,Win32,62.89308176,,,,,,,,,,,,,,,,,,,,,11.033,11.233,11.2333,11.7192,11.7198,12.2668,z,1,0.5333,,[],[],[],[],[],[],[],0.5333,1,12.267,12.7644,0,3,3,13,1,1014,NW,UN,33,winfer,ROUPET,z,,,,,,,,,,,,,,,,,,,,,,,,,,,,,,,,,,,,,,,,,,,,,,,,,,,,,,,,,,,,,,,,,,
,,,,32072,001,2025-12-02_21h19.02.318,HW_LDT_1,2024.2.4,Win32,62.89308176,,,,,,,,,,,,,,,,,,,,,12.7659,12.9725,12.9726,13.4628,13.4645,13.8855,z,0,0.3996,,[],[],[],[],[],[],[],0.3996,0,13.8879,14.3914,0,4,4,0,1,1001,WORD,"ID",33,utopia,UTOPIA,m,,,,,,,,,,,,,,,,,,,,,,,,,,,,,,,,,,,,,,,,,,,,,,,,,,,,,,,,,,,,,,,,,,
,,,,32072,001,2025-12-02_21h19.02.318,HW_LDT_1,2024.2.4,Win32,62.89308176,,,,,,,,,,,,,,,,,,,,,14.3959,14.5941,14.5944,15.1001,15.1035,15.6238,m,1,0.5008,,[],[],[],[],[],[],[],0.5008,1,15.6277,16.1233,0,5,5,6,1,1007,WORD,UN,16,tropic,ZOMBIE,m,,,,,,,,,,,,,,,,,,,,,,,,,,,,,,,,,,,,,,,,,,,,,,,,,,,,,,,,,,,,,,,,,,
,,,,32072,001,2025-12-02_21h19.02.318,HW_LDT_1,2024.2.4,Win32,62.89308176,,,,,,,,,,,,,,,,,,,,,16.1247,16.314,16.314,16.8392,16.8403,17.4445,z,1,0.5888,,[],[],[],[],[],[],[],0.5888,1,17.4447,17.9352,0,6,6,15,1,1016,NW,UN,16,mushed,WHAISE,z,,,,,,,,,,,,,,,,,,,,,,,,,,,,,,,,,,,,,,,,,,,,,,,,,,,,,,,,,,,,,,,,,,
,,,,32072,001,2025-12-02_21h19.02.318,HW_LDT_1,2024.2.4,Win32,62.89308176,,,,,,,,,,,,,,,,,,,,,17.9398,18.1271,18.1272,18.6335,18.6378,19.1996,z,1,0.5425,,[],[],[],[],[],[],[],0.5425,1,19.2002,19.7071,0,7,7,14,1,1015,NW,UN,16,miaber,THRALE,z,,,,,,,,,,,,,,,,,,,,,,,,,,,,,,,,,,,,,,,,,,,,,,,,,,,,,,,,,,,,,,,,,,
,,,,32072,001,2025-12-02_21h19.02.318,HW_LDT_1,2024.2.4,Win32,62.89308176,,,,,,,,,,,,,,,,,,,,,19.7103,19.8987,19.899,20.4029,20.4075,20.9252,m,1,0.503,,[],[],[],[],[],[],[],0.503,1,20.9253,21.4183,0,8,8,5,1,1006,WORD,UN,33,frenzy,OBTAIN,m,,,,,,,,,,,,,,,,,,,,,,,,,,,,,,,,,,,,,,,,,,,,,,,,,,,,,,,,,,,,,,,,,,
,,,,32072,001,2025-12-02_21h19.02.318,HW_LDT_1,2024.2.4,Win32,62.89308176,,,,,,,,,,,,,,,,,,,,,21.4239,21.6081,21.6081,22.106,22.1089,22.6376,m,1,0.509,,[],[],[],[],[],[],[],0.509,1,22.6377,23.1393,0,9,9,2,1,1003,WORD,"ID",16,almond,ALMOND,m,,,,,,,,,,,,,,,,,,,,,,,,,,,,,,,,,,,,,,,,,,,,,,,,,,,,,,,,,,,,,,,,,,
,,,,32072,001,2025-12-02_21h19.02.318,HW_LDT_1,2024.2.4,Win32,62.89308176,,,,,,,,,,,,,,,,,,,,,23.1427,23.3386,23.3387,23.8352,23.8381,24.3937,m,1,0.5401,,[],[],[],[],[],[],[],0.5401,1,24.3938,24.8826,0,10,10,4,1,1005,WORD,UN,33,abound,SQUEAK,m,,,,,,,,,,,,,,,,,,,,,,,,,,,,,,,,,,,,,,,,,,,,,,,,,,,,,,,,,,,,,,,,,,
,,,,32072,001,2025-12-02_21h19.02.318,HW_LDT_1,2024.2.4,Win32,62.89308176,,,,,,,,,,,,,,,,,,,,,24.8836,25.072,25.0722,25.589,25.5924,26.0729,m,1,0.4588,,[],[],[],[],[],[],[],0.4588,1,26.0738,26.5664,0,11,11,1,1,1002,WORD,"ID",33,adjust,ADJUST,m,,,,,,,,,,,,,,,,,,,,,,,,,,,,,,,,,,,,,,,,,,,,,,,,,,,,,,,,,,,,,,,,,,
,,,,32072,001,2025-12-02_21h19.02.318,HW_LDT_1,2024.2.4,Win32,62.89308176,,,,,,,,,,,,,,,,,,,,,26.5704,26.761,26.7614,27.264,27.2671,27.8227,z,1,0.5349,,[],[],[],[],[],[],[],0.5349,1,27.8235,28.3164,0,12,12,8,1,1009,NW,"ID",33,aslert,ASLERT,z,,,,,,,,,,,,,,,,,,,,,,,,,,,,,,,,,,,,,,,,,,,,,,,,,,,,,,,,,,,,,,,,,,
,,,,32072,001,2025-12-02_21h19.02.318,HW_LDT_1,2024.2.4,Win32,62.89308176,,,,,,,,,,,,,,,,,,,,,28.3203,28.5106,28.5106,29.0141,29.017,29.5152,z,1,0.478,,[],[],[],[],[],[],[],0.478,1,29.516,30.0114,0,13,13,10,1,1011,NW,"ID",16,inlade,INLADE,z,,,,,,,,,,,,,,,,,,,,,,,,,,,,,,,,,,,,,,,,,,,,,,,,,,,,,,,,,,,,,,,,,,
,,,,32072,001,2025-12-02_21h19.02.318,HW_LDT_1,2024.2.4,Win32,62.89308176,,,,,,,,,,,,,,,,,,,,,30.0148,30.2157,30.216,30.7044,30.705,31.1216,z,1,0.3996,,[],[],[],[],[],[],[],0.3996,1,31.1223,31.6277,0,14,14,12,1,1013,NW,UN,33,adveil,SPRINY,z,,,,,,,,,,,,,,,,,,,,,,,,,,,,,,,,,,,,,,,,,,,,,,,,,,,,,,,,,,,,,,,,,,
,,,,32072,001,2025-12-02_21h19.02.318,HW_LDT_1,2024.2.4,Win32,62.89308176,,,,,,,,,,,,,,,,,,,,,31.631,31.8298,31.8298,32.323,32.3245,32.893,m,1,0.5489,,[],[],[],[],[],[],[],0.5489,1,32.8937,33.3891,0,15,15,7,1,1008,WORD,UN,16,hurdle,VOLUME,m,,,,,,,,,,,,,,,,,,,,,,,,,,,,,,,,,,,,,,,,,,,,,,,,,,,,,,,,,,,,,,,,,,
,,,,32072,001,2025-12-02_21h19.02.318,HW_LDT_1,2024.2.4,Win32,62.89308176,,,,,,,,,,,,,,,,1,end_of_practice,"You have completed the practice trials. During the experimental trials, you will not receive feedback. On some trials you will be asked to report whether the item you just saw was in cursive or print. 
Before you begin, please ensure that you are in a comfortable and quiet location and will not be disturbed for about 15 minutes, as we cannot use your data if you do not complete all the trials. 
 When you are ready to start the experimental trials, please press space or touch the button below.",,,,,,,,,,,,,,,,,,,,,,,,,,,,,,,,,,,,33.3988,34.3713,space,0.9432,,-0.050000014,-0.397222236,0,0,0,0,0,0,0,1,,,,,,,,,,,,,,,,,,,,,,,,,,,,,,,,,,,,,,,,,,,,,,,,,,,
,,,,32072,001,2025-12-02_21h19.02.318,HW_LDT_1,2024.2.4,Win32,62.89308176,,,,,,,,,,,,,,,,,,,,,34.3921,34.576,34.5764,35.0745,,,,,,,,,,,,,,0.6364,1,,,,,,,,,,,,,,m,,,,,,,,,,,,,,,,1,0,35.0752,35.7136,m,1,0.6364,,[],[],[],[],[],[],[],35.7138,37.7146,37.7147,37.7166,[],[],[],[],[],[],[],,37.7166,37.7243,-0.050000014,-0.397222236,0,0,0,,0,0,0,143,1,4,word,REMOVAL,print,removal_p.png,,,,,,
,,,,32072,001,2025-12-02_21h19.02.318,HW_LDT_1,2024.2.4,Win32,62.89308176,,,,,,,,,,,,,,,,,,,,,37.7273,37.9256,37.9259,38.4194,,,,,,,,,,,,,,0.532,1,,,,,,,,,,,,,,z,,,,,,,,,,,,,,,,2,0,38.4234,38.9592,z,1,0.532,,[],[],[],[],[],[],[],38.9598,40.9489,40.9492,40.9499,[],[],[],[],[],[],[],,40.95,40.9503,-0.050000014,-0.397222236,0,0,0,,0,1,1,29,1,4,RL,motide,print,motide_p.png,,,,,,
,,,,32072,001,2025-12-02_21h19.02.318,HW_LDT_1,2024.2.4,Win32,62.89308176,,,,,,,,,,,,,,,,,,,,,40.9536,41.1458,41.146,41.6395,,,,,,,,,,,,,,0.4318,1,,,,,,,,,,,,,,z,,,,,,,,,,,,,,,,3,0,41.6416,42.0776,z,1,0.4318,,[],[],[],[],[],[],[],42.0781,44.0726,44.0726,44.0727,[],[],[],[],[],[],[],,44.0727,44.0728,-0.050000014,-0.397222236,0,0,0,,0,2,2,77,1,4,TL,spemicen,cursive,spemicen_c.png,,,,,,
,,,,32072,001,2025-12-02_21h19.02.318,HW_LDT_1,2024.2.4,Win32,62.89308176,,,,,,,,,,,,,,,,,,,,,44.0744,44.2736,44.2739,44.7618,,,,,,,,,,,,,,0.6517,0,,,,,,,,,,,,,,m,,,,,,,,,,,,,,,,4,0,44.7674,45.4216,z,0,0.6517,,[],[],[],[],[],[],[],45.4219,47.4253,47.4254,47.4254,[],[],[],[],[],[],[],,47.4255,47.4256,-0.054629644,-0.415740755,0,0,0,,0,3,3,151,1,4,word,SPECIFIC,cursive,specific_c.png,,,,,,
,,,,32072,001,2025-12-02_21h19.02.318,HW_LDT_1,2024.2.4,Win32,62.89308176,,,,,,,,,,,,,,,,,,,,,47.4263,47.6202,47.6208,48.1182,,,,,,,,,,,,,,1.4951,1,,,,,,,,,,,,,,z,,,,,,,,,,,,,,,,5,0,48.1187,49.6149,z,1,1.4951,,[],[],[],[],[],[],[],49.6172,51.6156,51.6157,51.6158,[],[],[],[],[],[],[],,51.6158,51.6158,-0.054629644,-0.415740755,0,0,0,,0,4,4,10,1,4,RL,carminal,cursive,carminal_c.png,,,,,,
,,,,32072,001,2025-12-02_21h19.02.318,HW_LDT_1,2024.2.4,Win32,62.89308176,,,,,,,,,,,,,,,,,,,,,51.619,51.8165,51.8166,52.3205,,,,,,,,,,,,,,0.7052,1,,,,,,,,,,,,,,z,,,,,,,,,,,,,,,,6,0,52.3228,53.0333,z,1,0.7052,,[],[],[],[],[],[],[],53.0334,55.0251,55.0255,55.0262,[],[],[],[],[],[],[],,55.0263,55.0267,-0.054629644,-0.415740755,0,0,0,,0,5,5,22,1,4,RL,linedal,cursive,linedal_c.png,,,,,,
,,,,32072,001,2025-12-02_21h19.02.318,HW_LDT_1,2024.2.4,Win32,62.89308176,,,,,,,,,,,,,,,,,,,,,55.029,55.2185,55.2187,55.7231,,,,,,,,,,,,,,0.5907,0,,,,,,,,,,,,,,z,,,,,,,,,,,,,,,,7,0,55.7259,56.3219,m,0,0.5907,,[],[],[],[],[],[],[],56.3222,58.3215,58.3217,58.3224,[],[],[],[],[],[],[],,58.3226,58.3229,-0.054629644,-0.415740755,0,0,0,,0,6,6,78,1,4,TL,stragety,print,stragety_p.png,,,,,,
,,,,32072,001,2025-12-02_21h19.02.318,HW_LDT_1,2024.2.4,Win32,62.89308176,,,,,,,,,,,,,,,,,,,,,58.3256,58.5199,58.52,59.0192,,,,,,,,,,,,,,0.7858,1,,,,,,,,,,,,,,z,,,,,,,,,,,,,,,,8,0,59.0214,59.8115,z,1,0.7858,,[],[],[],[],[],[],[],59.8122,61.8169,61.817,61.8174,[],[],[],[],[],[],[],,61.8175,61.8176,-0.054629644,-0.415740755,0,0,0,,0,7,7,50,1,4,RL,vecelan,cursive,vecelan_c.png,,,,,,
,,,,32072,001,2025-12-02_21h19.02.318,HW_LDT_1,2024.2.4,Win32,62.89308176,,,,,,,,,,,,,,,,,,,,,61.8187,62.0052,62.0053,62.51,,,,,,,,,,,,,,0.5867,1,,,,,,,,,,,,,,m,,,,,,,,,,,,,,,,9,0,62.5119,63.1006,m,1,0.5867,,[],[],[],[],[],[],[],63.1006,65.1078,65.1079,65.1081,[],[],[],[],[],[],[],,65.1081,65.1082,-0.054629644,-0.415740755,0,0,0,,0,8,8,104,1,4,word,DOMINANT,cursive,dominant_c.png,,,,,,
,,,,32072,001,2025-12-02_21h19.02.318,HW_LDT_1,2024.2.4,Win32,62.89308176,,,,,,,,,,,,,,,,,,,,,65.1091,65.3081,65.3081,65.8038,,,,,,,,,,,,,,0.5263,0,,,,,,,,,,,,,,z,,,,,,,,,,,,,,,,10,0,65.8064,66.3364,m,0,0.5263,,[],[],[],[],[],[],[],66.3366,68.3353,68.3356,68.3363,[],[],[],[],[],[],[],,68.3364,68.3367,-0.054629644,-0.415740755,0,0,0,,0,9,9,69,1,4,TL,quafily,print,quafily_p.png,,,,,,
,,,,32072,001,2025-12-02_21h19.02.318,HW_LDT_1,2024.2.4,Win32,62.89308176,,,,,,,,,,,,,,,,,,,,,68.3391,68.5252,68.5255,69.0331,,,,,,,,,,,,,,0.8032,1,,,,,,,,,,,,,,m,,,,,,,,,,,,,,,,11,0,69.0353,69.8407,m,1,0.8032,,[],[],[],[],[],[],[],69.8411,71.8359,71.8359,71.8362,[],[],[],[],[],[],[],,71.8362,71.8363,-0.054629644,-0.415740755,0,0,0,,0,10,10,158,1,4,word,VELOCITY,cursive,velocity_c.png,,,,,,
,,,,32072,001,2025-12-02_21h19.02.318,HW_LDT_1,2024.2.4,Win32,62.89308176,,,,,,,,,,,,,,,,,,,,,71.8417,72.0331,72.0331,72.549,,,,,,,,,,,,,,0.7594,1,,,,,,,,,,,,,,m,,,,,,,,,,,,,,,,12,0,72.5512,73.3126,m,1,0.7594,,[],[],[],[],[],[],[],73.313,75.2962,75.2964,75.297,[],[],[],[],[],[],[],,75.2972,75.2974,-0.054629644,-0.415740755,0,0,0,,0,11,11,157,1,4,word,VALIDITY,print,validity_p.png,,,,,,
,,,,32072,001,2025-12-02_21h19.02.318,HW_LDT_1,2024.2.4,Win32,62.89308176,,,,,,,,,,,,,,,,,,,,,75.3005,75.4961,75.4962,75.9997,,,,,,,,,,,,,,0.6899,1,,,,,,,,,,,,,,z,,,,,,,,,,,,,,,,13,0,76.0012,76.6956,z,1,0.6899,,[],[],[],[],[],[],[],76.696,78.6838,78.6838,78.684,[],[],[],[],[],[],[],,78.6841,78.6841,-0.054629644,-0.415740755,0,0,0,,0,12,12,75,1,4,TL,sanile,print,sanile_p.png,,,,,,
,,,,32072,001,2025-12-02_21h19.02.318,HW_LDT_1,2024.2.4,Win32,62.89308176,,,,,,,,,,,,,,,,,,,,,78.6885,78.8811,78.8813,79.3818,,,,,,,,,,,,,,0.9393,1,,,,,,,,,,,,,,m,,,,,,,,,,,,,,,,14,0,79.3838,80.3249,m,1,0.9393,,[],[],[],[],[],[],[],80.3249,82.3218,82.3219,82.3227,[],[],[],[],[],[],[],,82.3227,82.323,-0.054629644,-0.415740755,0,0,0,,0,13,13,103,1,4,word,DISPUTE,print,dispute_p.png,,,,,,
,,,,32072,001,2025-12-02_21h19.02.318,HW_LDT_1,2024.2.4,Win32,62.89308176,,,,,,,,,,,,,,,,,,,,,82.326,82.5226,82.5226,83.0362,,,,,,,,,,,,,,0.7336,0,,,,,,,,,,,,,,z,,,,,,,,,,,,,,,,15,1,83.0366,83.771,m,0,0.7336,,[],[],[],[],[],[],[],83.771,85.7606,85.7608,87.1925,[],[],[],[],[],[],[],z,87.193,87.1931,-0.054629644,-0.415740755,0,0,0,,0,14,14,55,1,4,TL,corevage,cursive,corevage_c.png,1.4289,,,,,
,,,,32072,001,2025-12-02_21h19.02.318,HW_LDT_1,2024.2.4,Win32,62.89308176,,,,,,,,,,,,,,,,,,,,,87.1941,87.3888,87.3889,87.8805,,,,,,,,,,,,,,0.6328,1,,,,,,,,,,,,,,m,,,,,,,,,,,,,,,,16,0,87.8809,88.5165,m,1,0.6328,,[],[],[],[],[],[],[],88.5169,90.5037,90.504,90.5047,[],[],[],[],[],[],[],,90.5048,90.5051,-0.054629644,-0.415740755,0,0,0,,0,15,15,127,1,4,word,ORIGINAL,print,original_p.png,,,,,,
,,,,32072,001,2025-12-02_21h19.02.318,HW_LDT_1,2024.2.4,Win32,62.89308176,,,,,,,,,,,,,,,,,,,,,90.5074,90.6969,90.6971,91.2031,,,,,,,,,,,,,,0.9431,0,,,,,,,,,,,,,,z,,,,,,,,,,,,,,,,17,0,91.2054,92.1518,m,0,0.9431,,[],[],[],[],[],[],[],92.1521,94.1479,94.1479,94.1487,[],[],[],[],[],[],[],,94.1489,94.1492,-0.054629644,-0.415740755,0,0,0,,0,16,16,72,1,4,TL,relugar,cursive,relugar_c.png,,,,,,
,,,,32072,001,2025-12-02_21h19.02.318,HW_LDT_1,2024.2.4,Win32,62.89308176,,,,,,,,,,,,,,,,,,,,,94.1539,94.345,94.345,94.85,,,,,,,,,,,,,,3.4732,1,,,,,,,,,,,,,,z,,,,,,,,,,,,,,,,18,0,94.8516,98.3307,z,1,3.4732,,[],[],[],[],[],[],[],98.3314,100.3268,100.3268,100.3273,[],[],[],[],[],[],[],,100.3275,100.3276,-0.054629644,-0.415740755,0,0,0,,0,17,17,45,1,4,RL,spetisic,cursive,spetisic_c.png,,,,,,
,,,,32072,001,2025-12-02_21h19.02.318,HW_LDT_1,2024.2.4,Win32,62.89308176,,,,,,,,,,,,,,,,,,,,,100.3327,100.5312,100.5313,101.0333,,,,,,,,,,,,,,1.8712,1,,,,,,,,,,,,,,m,,,,,,,,,,,,,,,,19,0,101.0342,102.9081,m,1,1.8712,,[],[],[],[],[],[],[],102.9085,104.9013,104.9016,104.9029,[],[],[],[],[],[],[],,104.9031,104.9033,-0.054629644,-0.415740755,0,0,0,,0,18,18,83,1,4,word,ANIMAL,cursive,animal_c.png,,,,,,
,,,,32072,001,2025-12-02_21h19.02.318,HW_LDT_1,2024.2.4,Win32,62.89308176,,,,,,,,,,,,,,,,,,,,,104.9049,105.1072,105.1076,105.5995,,,,,,,,,,,,,,0.8704,0,,,,,,,,,,,,,,m,,,,,,,,,,,,,,,,20,0,105.6015,106.4757,z,0,0.8704,,[],[],[],[],[],[],[],106.4764,108.4711,108.4711,108.4713,[],[],[],[],[],[],[],,108.4713,108.4714,-0.054629644,-0.415740755,0,0,0,,0,19,19,113,1,4,word,LITERAL,cursive,literal_c.png,,,,,,
,,,,32072,001,2025-12-02_21h19.02.318,HW_LDT_1,2024.2.4,Win32,62.89308176,,,,,,,,,,,,,,,,,,,,,108.4724,108.6742,108.6743,109.1747,,,,,,,,,,,,,,10.6649,1,,,,,,,,,,,,,,m,,,,,,,,,,,,,,,,21,0,109.176,119.8435,m,1,10.6649,,[],[],[],[],[],[],[],119.8435,121.8255,121.8258,121.8264,[],[],[],[],[],[],[],,121.8266,121.8268,-0.054629644,-0.415740755,0,0,0,,0,20,20,121,1,4,word,MISTAKE,print,mistake_p.png,,,,,,
,,,,32072,001,2025-12-02_21h19.02.318,HW_LDT_1,2024.2.4,Win32,62.89308176,,,,,,,,,,,,,,,,,,,,,121.8305,122.0307,122.031,122.525,,,,,,,,,,,,,,0.7655,1,,,,,,,,,,,,,,z,,,,,,,,,,,,,,,,22,0,122.5254,123.292,z,1,0.7655,,[],[],[],[],[],[],[],123.2924,125.286,125.2864,125.287,[],[],[],[],[],[],[],,125.2871,125.2871,-0.054629644,-0.415740755,0,0,0,,0,21,21,26,1,4,RL,mesibine,cursive,mesibine_c.png,,,,,,
,,,,32072,001,2025-12-02_21h19.02.318,HW_LDT_1,2024.2.4,Win32,62.89308176,,,,,,,,,,,,,,,,,,,,,125.2883,125.4772,125.4772,125.9874,,,,,,,,,,,,,,0.6726,1,,,,,,,,,,,,,,m,,,,,,,,,,,,,,,,23,1,125.9904,126.6656,m,1,0.6726,,[],[],[],[],[],[],[],126.6656,128.6611,128.6612,163.5711,[],[],[],[],[],[],[],z,163.5713,163.5715,-0.054629644,-0.415740755,0,0,0,,0,22,22,82,1,4,word,AMATEUR,cursive,amateur_c.png,34.9065,,,,,
,,,,32072,001,2025-12-02_21h19.02.318,HW_LDT_1,2024.2.4,Win32,62.89308176,,,,,,,,,,,,,,,,,,,,,163.5728,163.7711,163.7711,164.2471,,,,,,,,,,,,,,2.3717,0,,,,,,,,,,,,,,z,,,,,,,,,,,,,,,,24,1,164.2475,166.6199,m,0,2.3717,,[],[],[],[],[],[],[],166.62,168.6042,168.6044,169.9251,[],[],[],[],[],[],[],z,169.9252,169.9253,-0.054629644,-0.415740755,0,0,0,,0,23,23,8,1,4,RL,casagity,cursive,casagity_c.png,1.3197,,,,,
,,,,32072,001,2025-12-02_21h19.02.318,HW_LDT_1,2024.2.4,Win32,62.89308176,,,,,,,,,,,,,,,,,,,,,169.93,170.1149,170.115,170.6273,,,,,,,,,,,,,,83.8327,1,,,,,,,,,,,,,,z,,,,,,,,,,,,,,,,25,0,170.6285,254.4666,z,1,83.8327,,[-0.010185171056676793],[-0.44814816227665655],[1],[0],[0],[50.843899999976145],[null],254.4671,256.4516,256.4516,256.4523,[],[],[],[],[],[],[],,256.4524,256.4527,-0.010185171,-0.448148162,0,0,0,,0,24,24,18,1,4,RL,disluge,print,disluge_p.png,,,,,,
,,,,32072,001,2025-12-02_21h19.02.318,HW_LDT_1,2024.2.4,Win32,62.89308176,,,,,,,,,,,,,,,,,,,,,256.4574,256.6526,256.6529,257.1492,,,,,,,,,,,,,,1.6413,0,,,,,,,,,,,,,,z,,,,,,,,,,,,,,,,26,1,257.152,258.7963,m,0,1.6413,,[],[],[],[],[],[],[],258.7966,260.7865,260.787,337.0093,[],[],[],[],[],[],[],z,337.0094,337.0096,-0.001851824,-0.449999986,0,0,0,,0,25,25,35,1,4,RL,probice,cursive,probice_c.png,76.2211,,,,,
,,,,32072,001,2025-12-02_21h19.02.318,HW_LDT_1,2024.2.4,Win32,62.89308176,,,,,,,,,,,,,,,,,,,,,337.011,337.2096,337.2098,337.7093,,,,,,,,,,,,,,0.9158,1,,,,,,,,,,,,,,z,,,,,,,,,,,,,,,,27,0,337.7099,338.6425,z,1,0.9158,,[],[],[],[],[],[],[],338.6427,340.6419,340.642,340.6423,[],[],[],[],[],[],[],,340.6423,340.6424,-0.001851824,-0.449999986,0,0,0,,0,26,26,53,1,4,TL,cemerony,print,cemerony_p.png,,,,,,
,,,,32072,001,2025-12-02_21h19.02.318,HW_LDT_1,2024.2.4,Win32,62.89308176,,,,,,,,,,,,,,,,,,,,,340.6438,340.8421,340.8421,341.3412,,,,,,,,,,,,,,375.5188,1,,,,,,,,,,,,,,m,,,,,,,,,,,,,,,,28,0,341.3418,716.8642,m,1,375.5188,,"[0.00740743566442419,-0.05462964375813802,-0.09722222222222222]","[-0.4250000141285084,-0.48148148148148145,-0.48148148148148145]","[1,1,1]","[0,0,0]","[0,0,0]","[97.93700000000001,126.19560000002389,269.921]","[null,null,null]",716.8645,718.8637,718.8637,718.864,[],[],[],[],[],[],[],,718.864,718.8642,0.261111153,-0.339814857,0,0,0,,0,27,27,135,1,4,word,QUALITY,print,quality_p.png,,,,,,
,,,,32072,001,2025-12-02_21h19.02.318,HW_LDT_1,2024.2.4,Win32,62.89308176,,,,,,,,,,,,,,,,,,,,,718.8669,719.0634,719.0634,719.5632,,,,,,,,,,,,,,2.5799,1,,,,,,,,,,,,,,z,,,,,,,,,,,,,,,,29,0,719.5638,722.1631,z,1,2.5799,,[],[],[],[],[],[],[],722.1631,724.1616,724.1616,724.1618,[],[],[],[],[],[],[],,724.1618,724.1619,0.261111153,-0.339814857,0,0,0,,0,28,28,32,1,4,RL,patisic,cursive,patisic_c.png,,,,,,
,,,,32072,001,2025-12-02_21h19.02.318,HW_LDT_1,2024.2.4,Win32,62.89308176,,,,,,,,,,,,,,,,,,,,,724.1633,724.3618,724.3618,724.8617,,,,,,,,,,,,,,1.8508,1,,,,,,,,,,,,,,m,,,,,,,,,,,,,,,,30,1,724.8621,726.7282,m,1,1.8508,,[],[],[],[],[],[],[],726.7283,728.7275,728.7276,753.2537,[0.2472222646077474],[-0.3611111111111111],[1],[0],[0],[24.525899999976218],"[""button_right_probe""]",,753.2537,753.2539,0.247222265,-0.361111111,1,0,0,,0,29,29,137,1,4,word,RAPIDLY,cursive,rapidly_c.png,,,,,,
,,,,32072,001,2025-12-02_21h19.02.318,HW_LDT_1,2024.2.4,Win32,62.89308176,,,,,,,,,,,,,,,,,,,,,753.2551,753.4536,753.4537,753.9533,,,,,,,,,,,,,,16.9923,1,,,,,,,,,,,,,,z,,,,,,,,,,,,,,,,31,0,753.9544,770.9479,z,1,16.9923,,[],[],[],[],[],[],[],770.9481,772.948,772.948,772.9482,[],[],[],[],[],[],[],,772.9482,772.9483,0.210185228,-0.362037023,0,0,0,,0,30,30,43,1,4,RL,rovastic,print,rovastic_p.png,,,,,,
,,,,32072,001,2025-12-02_21h19.02.318,HW_LDT_1,2024.2.4,Win32,62.89308176,,,,,,,,,,,,,,,,,,,,,772.9493,773.1477,773.1477,773.6475,,,,,,,,,,,,,,6.8824,0,,,,,,,,,,,,,,z,,,,,,,,,,,,,,,,32,0,773.6481,780.5459,m,0,6.8824,,[],[],[],[],[],[],[],780.546,782.5445,782.5445,782.5448,[],[],[],[],[],[],[],,782.5448,782.5449,0.007407436,-0.015740748,0,0,0,,0,31,31,17,1,4,RL,denficy,cursive,denficy_c.png,,,,,,
,,,,32072,001,2025-12-02_21h19.02.318,HW_LDT_1,2024.2.4,Win32,62.89308176,,,,,,,,,,,,,,,,,,,,,782.5461,782.745,782.7452,783.2449,,,,,,,,,,,,,,2.5237,1,,,,,,,,,,,,,,m,,,,,,,,,,,,,,,,33,0,783.2455,785.777,m,1,2.5237,,[],[],[],[],[],[],[],785.777,787.7772,787.7772,787.7773,[],[],[],[],[],[],[],,787.7773,787.7774,-0.101851852,-0.041666667,0,0,0,,0,32,32,134,1,4,word,QUALIFY,print,qualify_p.png,,,,,,
,,,,32072,001,2025-12-02_21h19.02.318,HW_LDT_1,2024.2.4,Win32,62.89308176,,,,,,,,,,,,,,,,,,,,,787.7787,787.9765,787.9766,788.4761,,,,,,,,,,,,,,250.8032,0,,,,,,,,,,,,,,z,,,,,,,,,,,,,,,,34,1,788.4767,1039.2861,m,0,250.8032,,"[-0.13055554142704717,-0.09999995761447483,-0.09999995761447483,-0.09999995761447483,-0.09999995761447483,-0.09999995761447483,-0.10092594005443432,-0.10092594005443432,-0.10092594005443432,-0.10092594005443432]","[-0.056481502674244066,-0.07962965082239222,-0.07962965082239222,-0.07962965082239222,-0.07962965082239222,-0.07962965082239222,-0.08055556261980976,-0.08055556261980976,-0.08055556261980976,-0.08055556261980976]","[1,1,1,1,1,1,1,1,1,1]","[0,0,0,0,0,0,0,0,0,0]","[0,0,0,0,0,0,0,0,0,0]","[10.363000000000056,12.895700000047782,44.55240000009542,52.250800000071536,56.38250000000005,58.182000000000016,93.95440000009546,97.15410000002385,97.38750000000005,101.05230000007157]","[null,null,null,null,null,null,null,null,null,null]",1039.2863,1041.2856,1041.2856,1043.8186,[],[],[],[],[],[],[],z,1043.8187,1043.8187,0.887963048,-0.356481481,0,0,0,,0,33,33,60,1,4,TL,hetirage,print,hetirage_p.png,2.5104,,,,,
,,,,32072,001,2025-12-02_21h19.02.318,HW_LDT_1,2024.2.4,Win32,62.89308176,,,,,,,,,,,,,,,,,,,,,1043.8207,1044.0175,1044.0177,1044.5177,,,,,,,,,,,,,,1.7848,0,,,,,,,,,,,,,,m,,,,,,,,,,,,,,,,35,0,1044.5184,1046.3176,z,0,1.7848,,[],[],[],[],[],[],[],1046.3176,1048.3174,1048.3174,1048.3176,[],[],[],[],[],[],[],,1048.3177,1048.3178,0.765740712,-0.353703746,0,0,0,,0,34,34,108,1,4,word,FORTUNE,cursive,fortune_c.png,,,,,,
,,,,32072,001,2025-12-02_21h19.02.318,HW_LDT_1,2024.2.4,Win32,62.89308176,,,,,,,,,,,,,,,,,,,,,1048.3195,1048.5165,1048.5169,1049.0166,,,,,,,,,,,,,,2.119,1,,,,,,,,,,,,,,z,,,,,,,,,,,,,,,,36,0,1049.0174,1051.1496,z,1,2.119,,[],[],[],[],[],[],[],1051.1497,1053.148,1053.1481,1053.1483,[],[],[],[],[],[],[],,1053.1483,1053.1483,0.771296325,-0.356481481,0,0,0,,0,35,35,24,1,4,RL,marmipal,cursive,marmipal_c.png,,,,,,
,,,,32072,001,2025-12-02_21h19.02.318,HW_LDT_1,2024.2.4,Win32,62.89308176,,,,,,,,,,,,,,,,,,,,,1053.1493,1053.3488,1053.3488,1053.8486,,,,,,,,,,,,,,1.1804,1,,,,,,,,,,,,,,m,,,,,,,,,,,,,,,,37,0,1053.8491,1055.0484,m,1,1.1804,,[],[],[],[],[],[],[],1055.0485,1057.048,1057.048,1057.0482,[],[],[],[],[],[],[],,1057.0483,1057.0483,0.771296325,-0.356481481,0,0,0,,0,36,36,123,1,4,word,MODERATE,print,moderate_p.png,,,,,,
,,,,32072,001,2025-12-02_21h19.02.318,HW_LDT_1,2024.2.4,Win32,62.89308176,,,,,,,,,,,,,,,,,,,,,1057.0496,1057.2477,1057.2477,1057.7468,,,,,,,,,,,,,,4.1746,1,,,,,,,,,,,,,,m,,,,,,,,,,,,,,,,38,0,1057.7475,1061.9459,m,1,4.1746,,[],[],[],[],[],[],[],1061.9459,1063.9458,1063.9458,1063.9459,[],[],[],[],[],[],[],,1063.946,1063.9461,0.771296325,-0.356481481,0,0,0,,0,37,37,94,1,4,word,CLINICAL,print,clinical_p.png,,,,,,
,,,,32072,001,2025-12-02_21h19.02.318,HW_LDT_1,2024.2.4,Win32,62.89308176,,,,,,,,,,,,,,,,,,,,,1063.9475,1064.1456,1064.1457,1064.6457,,,,,,,,,,,,,,2.1812,1,,,,,,,,,,,,,,z,,,,,,,,,,,,,,,,39,0,1064.6463,1066.844,z,1,2.1812,,[],[],[],[],[],[],[],1066.8442,1068.8438,1068.8438,1068.8441,[],[],[],[],[],[],[],,1068.8441,1068.8443,0.771296325,-0.356481481,0,0,0,,0,38,38,79,1,4,TL,tritube,print,tritube_p.png,,,,,,
,,,,32072,001,2025-12-02_21h19.02.318,HW_LDT_1,2024.2.4,Win32,62.89308176,,,,,,,,,,,,,,,,,,,,,1068.8461,1069.0442,1069.0442,1069.5439,,,,,,,,,,,,,,4.3479,1,,,,,,,,,,,,,,z,,,,,,,,,,,,,,,,40,0,1069.5444,1073.9094,z,1,4.3479,,[],[],[],[],[],[],[],1073.9095,1075.9086,1075.9087,1075.9088,[],[],[],[],[],[],[],,1075.9089,1075.909,0.771296325,-0.356481481,0,0,0,,0,39,39,36,1,4,RL,rabigly,cursive,rabigly_c.png,,,,,,
,,,,32072,001,2025-12-02_21h19.02.318,HW_LDT_1,2024.2.4,Win32,62.89308176,,,,,,,,,,,,,,,,,,,,,1075.9101,1076.1087,1076.1088,1076.6086,,,,,,,,,,,,,,1.7799,1,,,,,,,,,,,,,,z,,,,,,,,,,,,,,,,41,0,1076.609,1078.4075,z,1,1.7799,,[],[],[],[],[],[],[],1078.4076,1080.4073,1080.4073,1080.4076,[],[],[],[],[],[],[],,1080.4077,1080.4078,0.771296325,-0.356481481,0,0,0,,0,40,40,9,1,4,RL,cafigal,print,cafigal_p.png,,,,,,
,,,,32072,001,2025-12-02_21h19.02.318,HW_LDT_1,2024.2.4,Win32,62.89308176,,,,,,,,,,,,,,,,,,,,,1080.4099,1080.6066,1080.6066,1081.1072,,,,,,,,,,,,,,1.1776,1,,,,,,,,,,,,,,z,,,,,,,,,,,,,,,,42,0,1081.1083,1082.3071,z,1,1.1776,,[],[],[],[],[],[],[],1082.3071,1084.3063,1084.3064,1084.3066,[],[],[],[],[],[],[],,1084.3066,1084.3068,0.771296325,-0.356481481,0,0,0,,0,41,41,1,1,4,RL,afaneur,cursive,afaneur_c.png,,,,,,
,,,,32072,001,2025-12-02_21h19.02.318,HW_LDT_1,2024.2.4,Win32,62.89308176,,,,,,,,,,,,,,,,,,,,,1084.3091,1084.5062,1084.5062,1085.0059,,,,,,,,,,,,,,1.0457,1,,,,,,,,,,,,,,m,,,,,,,,,,,,,,,,43,0,1085.0063,1086.0725,m,1,1.0457,,[],[],[],[],[],[],[],1086.0726,1088.072,1088.072,1088.0722,[],[],[],[],[],[],[],,1088.0723,1088.0724,0.771296325,-0.356481481,0,0,0,,0,42,42,88,1,4,word,CAMERA,print,camera_p.png,,,,,,
,,,,32072,001,2025-12-02_21h19.02.318,HW_LDT_1,2024.2.4,Win32,62.89308176,,,,,,,,,,,,,,,,,,,,,1088.0737,1088.2718,1088.2718,1088.771,,,,,,,,,,,,,,2.2279,1,,,,,,,,,,,,,,z,,,,,,,,,,,,,,,,44,0,1088.7715,1091.0036,z,1,2.2279,,[],[],[],[],[],[],[],1091.0037,1093.0031,1093.0032,1093.0032,[],[],[],[],[],[],[],,1093.0033,1093.0033,0.771296325,-0.356481481,0,0,0,,0,43,43,71,1,4,TL,racidal,print,racidal_p.png,,,,,,
,,,,32072,001,2025-12-02_21h19.02.318,HW_LDT_1,2024.2.4,Win32,62.89308176,,,,,,,,,,,,,,,,,,,,,1093.0041,1093.2028,1093.2028,1093.7035,,,,,,,,,,,,,,1.9977,1,,,,,,,,,,,,,,m,,,,,,,,,,,,,,,,45,0,1093.7041,1095.7026,m,1,1.9977,,[],[],[],[],[],[],[],1095.7028,1097.7024,1097.7025,1097.7026,[],[],[],[],[],[],[],,1097.7027,1097.7027,0.771296325,-0.356481481,0,0,0,,0,44,44,98,1,4,word,CRIMINAL,cursive,criminal_c.png,,,,,,
,,,,32072,001,2025-12-02_21h19.02.318,HW_LDT_1,2024.2.4,Win32,62.89308176,,,,,,,,,,,,,,,,,,,,,1097.7039,1097.9018,1097.9019,1098.4023,,,,,,,,,,,,,,1.2403,1,,,,,,,,,,,,,,m,,,,,,,,,,,,,,,,46,0,1098.4029,1099.6679,m,1,1.2403,,[],[],[],[],[],[],[],1099.668,1101.6672,1101.6673,1101.6676,[],[],[],[],[],[],[],,1101.6676,1101.6677,0.771296325,-0.356481481,0,0,0,,0,45,45,152,1,4,word,SPECIMEN,cursive,specimen_c.png,,,,,,
,,,,32072,001,2025-12-02_21h19.02.318,HW_LDT_1,2024.2.4,Win32,62.89308176,,,,,,,,,,,,,,,,,,,,,1101.6688,1101.8671,1101.8671,1102.3668,,,,,,,,,,,,,,1.9925,1,,,,,,,,,,,,,,z,,,,,,,,,,,,,,,,47,0,1102.3674,1104.3663,z,1,1.9925,,[],[],[],[],[],[],[],1104.3664,1106.3668,1106.3669,1106.367,[],[],[],[],[],[],[],,1106.3671,1106.3672,0.771296325,-0.356481481,0,0,0,,0,46,46,7,1,4,RL,casena,print,casena_p.png,,,,,,
,,,,32072,001,2025-12-02_21h19.02.318,HW_LDT_1,2024.2.4,Win32,62.89308176,,,,,,,,,,,,,,,,,,,,,1106.3685,1106.5664,1106.5664,1107.066,,,,,,,,,,,,,,4.6435,1,,,,,,,,,,,,,,z,,,,,,,,,,,,,,,,48,0,1107.0667,1111.7317,z,1,4.6435,,[],[],[],[],[],[],[],1111.7318,1113.7303,1113.7304,1113.7306,[],[],[],[],[],[],[],,1113.7307,1113.7308,0.771296325,-0.356481481,0,0,0,,0,47,47,41,1,4,RL,rebicent,cursive,rebicent_c.png,,,,,,
,,,,32072,001,2025-12-02_21h19.02.318,HW_LDT_1,2024.2.4,Win32,62.89308176,,,,,,,,,,,,,,,,,,,,,1113.732,1113.9307,1113.9308,1114.431,,,,,,,,,,,,,,1.1212,1,,,,,,,,,,,,,,z,,,,,,,,,,,,,,,,49,1,1114.4315,1115.564,z,1,1.1212,,[],[],[],[],[],[],[],1115.5641,1117.5624,1117.5624,1118.729,[],[],[],[],[],[],[],z,1118.7291,1118.7292,0.771296325,-0.356481481,0,0,0,,0,48,48,40,1,4,RL,reconal,print,reconal_p.png,1.1482,,,,,
,,,,32072,001,2025-12-02_21h19.02.318,HW_LDT_1,2024.2.4,Win32,62.89308176,,,,,,,,,,,,,,,,,,,,,1118.7302,1118.9288,1118.9288,1119.4292,,,,,,,,,,,,,,0.6185,1,,,,,,,,,,,,,,z,,,,,,,,,,,,,,,,50,0,1119.4296,1120.0622,z,1,0.6185,,[],[],[],[],[],[],[],1120.0622,1122.0618,1122.0618,1122.062,[],[],[],[],[],[],[],,1122.062,1122.0621,0.771296325,-0.356481481,0,0,0,,0,49,49,25,1,4,RL,macise,print,macise_p.png,,,,,,
,,,,32072,001,2025-12-02_21h19.02.318,HW_LDT_1,2024.2.4,Win32,62.89308176,,,,,,,,,,,,,,,,,,,,,1122.0634,1122.2616,1122.2616,1122.7608,,,,,,,,,,,,,,0.8165,0,,,,,,,,,,,,,,m,,,,,,,,,,,,,,,,51,0,1122.7614,1123.5947,z,0,0.8165,,[],[],[],[],[],[],[],1123.5948,1125.5933,1125.5934,1125.5936,[],[],[],[],[],[],[],,1125.5936,1125.5937,0.771296325,-0.356481481,0,0,0,,0,50,50,124,1,4,word,NUMERICAL,cursive,numerical_c.png,,,,,,
,,,,32072,001,2025-12-02_21h19.02.318,HW_LDT_1,2024.2.4,Win32,62.89308176,,,,,,,,,,,,,,,,,,,,,1125.5949,1125.7932,1125.7932,1126.2935,,,,,,,,,,,,,,4.3078,1,,,,,,,,,,,,,,z,,,,,,,,,,,,,,,,52,0,1126.294,1130.6256,z,1,4.3078,,[],[],[],[],[],[],[],1130.6256,1132.6255,1132.6255,1132.6256,[],[],[],[],[],[],[],,1132.6256,1132.6258,0.771296325,-0.356481481,0,0,0,,0,51,51,51,1,4,TL,adsivory,cursive,adsivory_c.png,,,,,,
,,,,32072,001,2025-12-02_21h19.02.318,HW_LDT_1,2024.2.4,Win32,62.89308176,,,,,,,,,,,,,,,,,,,,,1132.6269,1132.825,1132.825,1133.3251,,,,,,,,,,,,,,1.4453,1,,,,,,,,,,,,,,m,,,,,,,,,,,,,,,,53,0,1133.3256,1134.7914,m,1,1.4453,,[],[],[],[],[],[],[],1134.7915,1136.7907,1136.7908,1136.7909,[],[],[],[],[],[],[],,1136.791,1136.7911,0.771296325,-0.356481481,0,0,0,,0,52,52,142,1,4,word,REMOTE,cursive,remote_c.png,,,,,,
,,,,32072,001,2025-12-02_21h19.02.318,HW_LDT_1,2024.2.4,Win32,62.89308176,,,,,,,,,,,,,,,,,,,,,1136.7932,1136.9904,1136.9904,1137.4904,,,,,,,,,,,,,,0.8076,1,,,,,,,,,,,,,,m,,,,,,,,,,,,,,,,54,0,1137.4911,1138.3238,m,1,0.8076,,[],[],[],[],[],[],[],1138.3239,1140.3226,1140.3227,1140.3228,[],[],[],[],[],[],[],,1140.3229,1140.3231,0.784259231,-0.365740741,0,0,0,,0,53,53,128,1,4,word,PACIFIC,cursive,pacific_c.png,,,,,,
,,,,32072,001,2025-12-02_21h19.02.318,HW_LDT_1,2024.2.4,Win32,62.89308176,,,,,,,,,,,,,,,,,,,,,1140.3243,1140.5224,1140.5224,1141.022,,,,,,,,,,,,,,1.8132,1,,,,,,,,,,,,,,z,,,,,,,,,,,,,,,,55,0,1141.0224,1142.8556,z,1,1.8132,,[],[],[],[],[],[],[],1142.8557,1144.855,1144.8551,1144.8554,[],[],[],[],[],[],[],,1144.8554,1144.8554,0.784259231,-0.365740741,0,0,0,,0,54,54,62,1,4,TL,locigal,print,locigal_p.png,,,,,,
,,,,32072,001,2025-12-02_21h19.02.318,HW_LDT_1,2024.2.4,Win32,62.89308176,,,,,,,,,,,,,,,,,,,,,1144.8574,1145.0556,1145.0556,1145.5548,,,,,,,,,,,,,,1.0965,1,,,,,,,,,,,,,,m,,,,,,,,,,,,,,,,56,0,1145.5554,1146.6537,m,1,1.0965,,[],[],[],[],[],[],[],1146.6537,1148.6543,1148.6543,1148.6546,[],[],[],[],[],[],[],,1148.6548,1148.6548,0.817592621,-0.362037023,0,0,0,,0,55,55,132,1,4,word,PROPOSAL,print,proposal_p.png,,,,,,
,,,,32072,001,2025-12-02_21h19.02.318,HW_LDT_1,2024.2.4,Win32,62.89308176,,,,,,,,,,,,,,,,,,,,,1148.6562,1148.8536,1148.8537,1149.3537,,,,,,,,,,,,,,0.8749,1,,,,,,,,,,,,,,m,,,,,,,,,,,,,,,,57,0,1149.3542,1150.2536,m,1,0.8749,,[],[],[],[],[],[],[],1150.2536,1152.253,1152.253,1152.2532,[],[],[],[],[],[],[],,1152.2532,1152.2533,0.817592621,-0.362037023,0,0,0,,0,56,56,111,1,4,word,INDICATE,print,indicate_p.png,,,,,,
,,,,32072,001,2025-12-02_21h19.02.318,HW_LDT_1,2024.2.4,Win32,62.89308176,,,,,,,,,,,,,,,,,,,,,1152.2544,1152.453,1152.453,1152.9521,,,,,,,,,,,,,,2.7872,1,,,,,,,,,,,,,,m,,,,,,,,,,,,,,,,58,0,1152.9524,1155.7518,m,1,2.7872,,[],[],[],[],[],[],[],1155.752,1157.7508,1157.7509,1157.751,[],[],[],[],[],[],[],,1157.751,1157.7511,0.817592621,-0.362037023,0,0,0,,0,57,57,100,1,4,word,DECADE,cursive,decade_c.png,,,,,,
,,,,32072,001,2025-12-02_21h19.02.318,HW_LDT_1,2024.2.4,Win32,62.89308176,,,,,,,,,,,,,,,,,,,,,1157.7524,1157.9511,1157.9511,1158.4508,,,,,,,,,,,,,,1.1852,1,,,,,,,,,,,,,,m,,,,,,,,,,,,,,,,59,0,1158.4514,1159.6506,m,1,1.1852,,[],[],[],[],[],[],[],1159.6508,1161.6503,1161.6504,1161.6506,[],[],[],[],[],[],[],,1161.6507,1161.6509,0.817592621,-0.362037023,0,0,0,,0,58,58,97,1,4,word,COVERAGE,cursive,coverage_c.png,,,,,,
,,,,32072,001,2025-12-02_21h19.02.318,HW_LDT_1,2024.2.4,Win32,62.89308176,,,,,,,,,,,,,,,,,,,,,1161.6522,1161.8501,1161.8501,1162.3498,,,,,,,,,,,,,,1.0967,1,,,,,,,,,,,,,,m,,,,,,,,,,,,,,,,60,0,1162.3504,1163.4487,m,1,1.0967,,[],[],[],[],[],[],[],1163.4489,1165.4491,1165.4491,1165.4494,[],[],[],[],[],[],[],,1165.4495,1165.4495,0.817592621,-0.362037023,0,0,0,,0,59,59,136,1,4,word,RADICAL,print,radical_p.png,,,,,,
,,,,32072,001,2025-12-02_21h19.02.318,HW_LDT_1,2024.2.4,Win32,62.89308176,,,,,,,,,,,,,,,,,,,,,1165.4507,1165.6491,1165.6491,1166.1482,,,,,,,,,,,,,,0.9072,1,,,,,,,,,,,,,,m,,,,,,,,,,,,,,,,61,0,1166.1487,1167.082,m,1,0.9072,,[],[],[],[],[],[],[],1167.0821,1169.0814,1169.0814,1169.0816,[],[],[],[],[],[],[],,1169.0816,1169.0818,0.827777863,-0.421296296,0,0,0,,0,60,60,147,1,4,word,ROMANTIC,print,romantic_p.png,,,,,,
,,,,32072,001,2025-12-02_21h19.02.318,HW_LDT_1,2024.2.4,Win32,62.89308176,,,,,,,,,,,,,,,,,,,,,1169.0832,1169.2818,1169.2818,1169.7805,,,,,,,,,,,,,,1.4083,1,,,,,,,,,,,,,,z,,,,,,,,,,,,,,,,62,0,1169.7812,1171.2142,z,1,1.4083,,[],[],[],[],[],[],[],1171.2142,1173.2131,1173.2132,1173.2134,[],[],[],[],[],[],[],,1173.2134,1173.2134,0.827777863,-0.421296296,0,0,0,,0,61,61,33,1,4,RL,pamest,cursive,pamest_c.png,,,,,,
,,,,32072,001,2025-12-02_21h19.02.318,HW_LDT_1,2024.2.4,Win32,62.89308176,,,,,,,,,,,,,,,,,,,,,1173.2148,1173.4134,1173.4135,1173.9126,,,,,,,,,,,,,,1.8788,1,,,,,,,,,,,,,,z,,,,,,,,,,,,,,,,63,0,1173.9134,1175.8124,z,1,1.8788,,[],[],[],[],[],[],[],1175.8124,1177.8114,1177.8115,1177.8118,[],[],[],[],[],[],[],,1177.812,1177.8122,0.827777863,-0.421296296,0,0,0,,0,62,62,42,1,4,RL,revune,print,revune_p.png,,,,,,
,,,,32072,001,2025-12-02_21h19.02.318,HW_LDT_1,2024.2.4,Win32,62.89308176,,,,,,,,,,,,,,,,,,,,,1177.8144,1178.0111,1178.0111,1178.5113,,,,,,,,,,,,,,1.0242,1,,,,,,,,,,,,,,m,,,,,,,,,,,,,,,,64,0,1178.5119,1179.5441,m,1,1.0242,,[],[],[],[],[],[],[],1179.5442,1181.5436,1181.5437,1181.5439,[],[],[],[],[],[],[],,1181.5439,1181.5441,0.827777863,-0.421296296,0,0,0,,0,63,63,119,1,4,word,MEMORY,print,memory_p.png,,,,,,
,,,,32072,001,2025-12-02_21h19.02.318,HW_LDT_1,2024.2.4,Win32,62.89308176,,,,,,,,,,,,,,,,,,,,,1181.5454,1181.7443,1181.7443,1182.2438,,,,,,,,,,,,,,1.1493,1,,,,,,,,,,,,,,m,,,,,,,,,,,,,,,,65,0,1182.2443,1183.4104,m,1,1.1493,,[],[],[],[],[],[],[],1183.4105,1185.4096,1185.4097,1185.4099,[],[],[],[],[],[],[],,1185.41,1185.4101,0.827777863,-0.421296296,0,0,0,,0,64,64,89,1,4,word,CAPACITY,cursive,capacity_c.png,,,,,,
,,,,32072,001,2025-12-02_21h19.02.318,HW_LDT_1,2024.2.4,Win32,62.89308176,,,,,,,,,,,,,,,,,,,,,1185.4115,1185.6093,1185.6093,1186.1098,,,,,,,,,,,,,,4.3787,1,,,,,,,,,,,,,,z,,,,,,,,,,,,,,,,66,0,1186.1104,1190.5076,z,1,4.3787,,[],[],[],[],[],[],[],1190.5077,1192.507,1192.507,1192.5071,[],[],[],[],[],[],[],,1192.5072,1192.5073,0.827777863,-0.421296296,0,0,0,,0,65,65,61,1,4,TL,lotace,cursive,lotace_c.png,,,,,,
,,,,32072,001,2025-12-02_21h19.02.318,HW_LDT_1,2024.2.4,Win32,62.89308176,,,,,,,,,,,,,,,,,,,,,1192.5085,1192.7079,1192.708,1193.2073,,,,,,,,,,,,,,4.344,1,,,,,,,,,,,,,,z,,,,,,,,,,,,,,,,67,0,1193.208,1197.5727,z,1,4.344,,[],[],[],[],[],[],[],1197.5729,1199.5721,1199.5721,1199.5724,[],[],[],[],[],[],[],,1199.5725,1199.5725,0.827777863,-0.421296296,0,0,0,,0,66,66,23,1,4,RL,linefal,cursive,linefal_c.png,,,,,,
,,,,32072,001,2025-12-02_21h19.02.318,HW_LDT_1,2024.2.4,Win32,62.89308176,,,,,,,,,,,,,,,,,,,,,1199.5739,1199.7719,1199.772,1200.2721,,,,,,,,,,,,,,1.0899,1,,,,,,,,,,,,,,m,,,,,,,,,,,,,,,,68,0,1200.2725,1201.3714,m,1,1.0899,,[],[],[],[],[],[],[],1201.3715,1203.3712,1203.3713,1203.3714,[],[],[],[],[],[],[],,1203.3715,1203.3716,0.83148151,-0.420370384,0,0,0,,0,67,67,154,1,4,word,STORAGE,print,storage_p.png,,,,,,
,,,,32072,001,2025-12-02_21h19.02.318,HW_LDT_1,2024.2.4,Win32,62.89308176,,,,,,,,,,,,,,,,,,,,,1203.374,1203.5705,1203.5706,1204.0708,,,,,,,,,,,,,,2.3781,1,,,,,,,,,,,,,,z,,,,,,,,,,,,,,,,69,0,1204.0712,1206.4703,z,1,2.3781,,[],[],[],[],[],[],[],1206.4704,1208.4696,1208.4698,1208.47,[],[],[],[],[],[],[],,1208.47,1208.4701,0.83148151,-0.420370384,0,0,0,,0,68,68,73,1,4,TL,regilion,print,regilion_p.png,,,,,,
,,,,32072,001,2025-12-02_21h19.02.318,HW_LDT_1,2024.2.4,Win32,62.89308176,,,,,,,,,,,,,,,,,,,,,1208.4717,1208.6698,1208.6699,1209.1688,,,,,,,,,,,,,,1.1902,1,,,,,,,,,,,,,,m,,,,,,,,,,,,,,,,70,0,1209.1694,1210.3689,m,1,1.1902,,[],[],[],[],[],[],[],1210.369,1212.3689,1212.3689,1212.3692,[],[],[],[],[],[],[],,1212.3692,1212.3694,0.83148151,-0.420370384,0,0,0,,0,69,69,148,1,4,word,SALINE,print,saline_p.png,,,,,,
,,,,32072,001,2025-12-02_21h19.02.318,HW_LDT_1,2024.2.4,Win32,62.89308176,,,,,,,,,,,,,,,,,,,,,1212.3714,1212.5688,1212.5689,1213.0676,,,,,,,,,,,,,,2.377,1,,,,,,,,,,,,,,m,,,,,,,,,,,,,,,,71,0,1213.068,1215.4678,m,1,2.377,,[],[],[],[],[],[],[],1215.4679,1217.4672,1217.4673,1217.4675,[],[],[],[],[],[],[],,1217.4675,1217.4677,0.83148151,-0.420370384,0,0,0,,0,70,70,129,1,4,word,PARENT,cursive,parent_c.png,,,,,,
,,,,32072,001,2025-12-02_21h19.02.318,HW_LDT_1,2024.2.4,Win32,62.89308176,,,,,,,,,,,,,,,,,,,,,1217.4701,1217.6671,1217.6671,1218.1661,,,,,,,,,,,,,,1.7411,0,,,,,,,,,,,,,,m,,,,,,,,,,,,,,,,72,0,1218.1668,1219.9321,z,0,1.7411,,[],[],[],[],[],[],[],1219.9323,1221.9325,1221.9325,1221.9326,[],[],[],[],[],[],[],,1221.9326,1221.9328,0.83148151,-0.420370384,0,0,0,,0,71,71,92,1,4,word,CATEGORY,cursive,category_c.png,,,,,,
,,,,32072,001,2025-12-02_21h19.02.318,HW_LDT_1,2024.2.4,Win32,62.89308176,,,,,,,,,,,,,,,,,,,,,1221.9337,1222.1314,1222.1315,1222.6316,,,,,,,,,,,,,,1.9213,1,,,,,,,,,,,,,,z,,,,,,,,,,,,,,,,73,1,1222.632,1224.5645,z,1,1.9213,,[],[],[],[],[],[],[],1224.5645,1226.5639,1226.564,1227.8963,[],[],[],[],[],[],[],z,1227.8963,1227.8966,0.83148151,-0.420370384,0,0,0,,0,72,72,12,1,4,RL,conbicer,cursive,conbicer_c.png,1.3285,,,,,
,,,,32072,001,2025-12-02_21h19.02.318,HW_LDT_1,2024.2.4,Win32,62.89308176,,,,,,,,,,,,,,,,,,,,,1227.8979,1228.0976,1228.0977,1228.5965,,,,,,,,,,,,,,0.9224,1,,,,,,,,,,,,,,m,,,,,,,,,,,,,,,,74,0,1228.5972,1229.5293,m,1,0.9224,,[],[],[],[],[],[],[],1229.5294,1231.5296,1231.5297,1231.5298,[],[],[],[],[],[],[],,1231.5298,1231.5299,0.83148151,-0.420370384,0,0,0,,0,73,73,101,1,4,word,DELICATE,cursive,delicate_c.png,,,,,,
,,,,32072,001,2025-12-02_21h19.02.318,HW_LDT_1,2024.2.4,Win32,62.89308176,,,,,,,,,,,,,,,,,,,,,1231.5312,1231.7297,1231.7298,1232.229,,,,,,,,,,,,,,1.3071,1,,,,,,,,,,,,,,m,,,,,,,,,,,,,,,,75,1,1232.2297,1233.5625,m,1,1.3071,,[],[],[],[],[],[],[],1233.5626,1235.5618,1235.5618,1236.8937,[],[],[],[],[],[],[],z,1236.8938,1236.894,0.83148151,-0.420370384,0,0,0,,0,74,74,153,1,4,word,STOLEN,cursive,stolen_c.png,1.3297,,,,,
,,,,32072,001,2025-12-02_21h19.02.318,HW_LDT_1,2024.2.4,Win32,62.89308176,,,,,,,,,,,,,,,,,,,,,1236.895,1237.0945,1237.0945,1237.594,,,,,,,,,,,,,,0.8155,1,,,,,,,,,,,,,,m,,,,,,,,,,,,,,,,76,0,1237.5946,1238.4277,m,1,0.8155,,[],[],[],[],[],[],[],1238.4278,1240.4263,1240.4264,1240.4266,[],[],[],[],[],[],[],,1240.4266,1240.4267,0.83148151,-0.420370384,0,0,0,,0,75,75,86,1,4,word,BESIDE,print,beside_p.png,,,,,,
,,,,32072,001,2025-12-02_21h19.02.318,HW_LDT_1,2024.2.4,Win32,62.89308176,,,,,,,,,,,,,,,,,,,,,1240.4279,1240.6262,1240.6263,1241.1259,,,,,,,,,,,,,,1.1273,1,,,,,,,,,,,,,,z,,,,,,,,,,,,,,,,77,0,1241.1266,1242.2591,z,1,1.1273,,[],[],[],[],[],[],[],1242.2592,1244.2593,1244.2594,1244.2595,[],[],[],[],[],[],[],,1244.2596,1244.2596,0.83148151,-0.420370384,0,0,0,,0,76,76,47,1,4,RL,stopave,print,stopave_p.png,,,,,,
,,,,32072,001,2025-12-02_21h19.02.318,HW_LDT_1,2024.2.4,Win32,62.89308176,,,,,,,,,,,,,,,,,,,,,1244.2608,1244.4587,1244.4587,1244.959,,,,,,,,,,,,,,0.8847,1,,,,,,,,,,,,,,m,,,,,,,,,,,,,,,,78,0,1244.9598,1245.8588,m,1,0.8847,,[],[],[],[],[],[],[],1245.8588,1247.8581,1247.8581,1247.8583,[],[],[],[],[],[],[],,1247.8584,1247.8584,0.83148151,-0.420370384,0,0,0,,0,77,77,112,1,4,word,LIBERAL,cursive,liberal_c.png,,,,,,
,,,,32072,001,2025-12-02_21h19.02.318,HW_LDT_1,2024.2.4,Win32,62.89308176,,,,,,,,,,,,,,,,,,,,,1247.8597,1248.058,1248.058,1248.5578,,,,,,,,,,,,,,1.2837,1,,,,,,,,,,,,,,z,,,,,,,,,,,,,,,,79,0,1248.5583,1249.8574,z,1,1.2837,,[],[],[],[],[],[],[],1249.8575,1251.8569,1251.857,1251.8572,[],[],[],[],[],[],[],,1251.8572,1251.8574,0.83148151,-0.420370384,0,0,0,,0,78,78,64,1,4,TL,moredate,print,moredate_p.png,,,,,,
,,,,32072,001,2025-12-02_21h19.02.318,HW_LDT_1,2024.2.4,Win32,62.89308176,,,,,,,,,,,,,,,,,,,,,1251.8596,1252.0565,1252.0565,1252.5563,,,,,,,,,,,,,,0.95,1,,,,,,,,,,,,,,m,,,,,,,,,,,,,,,,80,1,1252.5567,1253.5231,m,1,0.95,,[],[],[],[],[],[],[],1253.5232,1255.523,1255.523,1256.5891,[],[],[],[],[],[],[],z,1256.5891,1422.4406,0.83148151,-0.420370384,0,0,0,space,0,79,79,150,1,4,word,SENTIMENT,print,sentiment_p.png,1.0453,,165.8163,,,
,,,,32072,001,2025-12-02_21h19.02.318,HW_LDT_1,2024.2.4,Win32,62.89308176,,,,,,,,,,,,,,,,,,,,,1422.4421,1422.6396,1422.6396,1423.1397,,,,,,,,,,,,,,1.008,1,,,,,,,,,,,,,,m,,,,,,,,,,,,,,,,81,0,1423.1401,1424.1726,m,1,1.008,,[],[],[],[],[],[],[],1424.1727,1426.1716,1426.1717,1426.1721,[],[],[],[],[],[],[],,1426.1722,1426.1725,0.83148151,-0.420370384,0,0,0,,0,80,80,159,1,4,word,VETERAN,cursive,veteran_c.png,,,,,,
,,,,32072,001,2025-12-02_21h19.02.318,HW_LDT_1,2024.2.4,Win32,62.89308176,,,,,,,,,,,,,,,,,,,,,1426.1746,1426.3718,1426.3719,1426.872,,,,,,,,,,,,,,2.6304,0,,,,,,,,,,,,,,z,,,,,,,,,,,,,,,,82,0,1426.8727,1429.5037,m,0,2.6304,,[],[],[],[],[],[],[],1429.5039,1431.5039,1431.5039,1431.5041,[],[],[],[],[],[],[],,1431.5041,1431.5044,0.83148151,-0.420370384,0,0,0,,0,81,81,30,1,4,RL,nunewical,cursive,nunewical_c.png,,,,,,
,,,,32072,001,2025-12-02_21h19.02.318,HW_LDT_1,2024.2.4,Win32,62.89308176,,,,,,,,,,,,,,,,,,,,,1431.5054,1431.7041,1431.7041,1432.2037,,,,,,,,,,,,,,1.3406,1,,,,,,,,,,,,,,m,,,,,,,,,,,,,,,,83,0,1432.2041,1433.5699,m,1,1.3406,,[],[],[],[],[],[],[],1433.5699,1435.5697,1435.5697,1435.5698,[],[],[],[],[],[],[],,1435.57,1435.5701,0.83148151,-0.420370384,0,0,0,,0,82,82,107,1,4,word,EVIDENT,print,evident_p.png,,,,,,
,,,,32072,001,2025-12-02_21h19.02.318,HW_LDT_1,2024.2.4,Win32,62.89308176,,,,,,,,,,,,,,,,,,,,,1435.5714,1435.7696,1435.7696,1436.2688,,,,,,,,,,,,,,1.2817,1,,,,,,,,,,,,,,z,,,,,,,,,,,,,,,,84,0,1436.2698,1437.5685,z,1,1.2817,,[],[],[],[],[],[],[],1437.5687,1439.5691,1439.5691,1439.5694,[],[],[],[],[],[],[],,1439.5695,1439.5696,0.83148151,-0.420370384,1,0,0,,0,83,83,13,1,4,RL,crisival,cursive,crisival_c.png,,,,,,
,,,,32072,001,2025-12-02_21h19.02.318,HW_LDT_1,2024.2.4,Win32,62.89308176,,,,,,,,,,,,,,,,,,,,,1439.5722,1439.7684,1439.7684,1440.2686,,,,,,,,,,,,,,1.0169,0,,,,,,,,,,,,,,z,,,,,,,,,,,,,,,,85,0,1440.2689,1441.301,m,0,1.0169,,[],[],[],[],[],[],[],1441.3011,1443.3006,1443.3006,1443.3008,[],[],[],[],[],[],[],,1443.3008,1443.3009,0.83148151,-0.420370384,0,0,0,,0,84,84,68,1,4,TL,prosopal,print,prosopal_p.png,,,,,,
,,,,32072,001,2025-12-02_21h19.02.318,HW_LDT_1,2024.2.4,Win32,62.89308176,,,,,,,,,,,,,,,,,,,,,1443.302,1443.5005,1443.5006,1444.0004,,,,,,,,,,,,,,0.9164,0,,,,,,,,,,,,,,m,,,,,,,,,,,,,,,,86,0,1444.0011,1444.9331,z,0,0.9164,,[],[],[],[],[],[],[],1444.9332,1446.9328,1446.9328,1446.9331,[],[],[],[],[],[],[],,1446.9331,1446.9333,0.83148151,-0.420370384,0,0,0,,0,85,85,138,1,4,word,REFUSAL,cursive,refusal_c.png,,,,,,
,,,,32072,001,2025-12-02_21h19.02.318,HW_LDT_1,2024.2.4,Win32,62.89308176,,,,,,,,,,,,,,,,,,,,,1446.9357,1447.1326,1447.1327,1447.6331,,,,,,,,,,,,,,0.6457,1,,,,,,,,,,,,,,m,,,,,,,,,,,,,,,,87,0,1447.6337,1448.2983,m,1,0.6457,,[],[],[],[],[],[],[],1448.2984,1450.2988,1450.2988,1450.2993,[],[],[],[],[],[],[],,1450.2993,1450.2996,0.83148151,-0.420370384,0,0,0,,0,86,86,145,1,4,word,RESUME,print,resume_p.png,,,,,,
,,,,32072,001,2025-12-02_21h19.02.318,HW_LDT_1,2024.2.4,Win32,62.89308176,,,,,,,,,,,,,,,,,,,,,1450.3006,1450.4984,1450.4985,1450.998,,,,,,,,,,,,,,0.918,1,,,,,,,,,,,,,,z,,,,,,,,,,,,,,,,88,1,1450.9985,1451.9312,z,1,0.918,,[],[],[],[],[],[],[],1451.9312,1453.9301,1453.9301,1455.03,[],[],[],[],[],[],[],z,1455.03,1455.0301,0.83148151,-0.420370384,0,0,0,,0,87,87,5,1,4,RL,bebine,print,bebine_p.png,1.076,,,,,
,,,,32072,001,2025-12-02_21h19.02.318,HW_LDT_1,2024.2.4,Win32,62.89308176,,,,,,,,,,,,,,,,,,,,,1455.0313,1455.2301,1455.2301,1455.7298,,,,,,,,,,,,,,1.2813,1,,,,,,,,,,,,,,m,,,,,,,,,,,,,,,,89,0,1455.7304,1457.0293,m,1,1.2813,,[],[],[],[],[],[],[],1457.0294,1459.0295,1459.0296,1459.0297,[],[],[],[],[],[],[],,1459.0297,1459.0298,0.83148151,-0.420370384,0,0,0,,0,88,88,125,1,4,word,OPERATOR,print,operator_p.png,,,,,,
,,,,32072,001,2025-12-02_21h19.02.318,HW_LDT_1,2024.2.4,Win32,62.89308176,,,,,,,,,,,,,,,,,,,,,1459.031,1459.2291,1459.2292,1459.7283,,,,,,,,,,,,,,1.2572,1,,,,,,,,,,,,,,z,,,,,,,,,,,,,,,,90,0,1459.7289,1460.9949,z,1,1.2572,,[],[],[],[],[],[],[],1460.995,1462.9947,1462.9948,1462.995,[],[],[],[],[],[],[],,1462.995,1462.995,0.83148151,-0.420370384,0,0,0,,0,89,89,58,1,4,TL,edivent,print,edivent_p.png,,,,,,
,,,,32072,001,2025-12-02_21h19.02.318,HW_LDT_1,2024.2.4,Win32,62.89308176,,,,,,,,,,,,,,,,,,,,,1462.9965,1463.1944,1463.1944,1463.694,,,,,,,,,,,,,,1.3607,0,,,,,,,,,,,,,,m,,,,,,,,,,,,,,,,91,0,1463.6945,1465.0606,z,0,1.3607,,[],[],[],[],[],[],[],1465.0606,1467.0603,1467.0604,1467.0605,[],[],[],[],[],[],[],,1467.0606,1467.0606,0.83148151,-0.420370384,0,0,0,,0,90,90,87,1,4,word,CAFETERIA,cursive,cafeteria_c.png,,,,,,
,,,,32072,001,2025-12-02_21h19.02.318,HW_LDT_1,2024.2.4,Win32,62.89308176,,,,,,,,,,,,,,,,,,,,,1467.0616,1467.26,1467.26,1467.7598,,,,,,,,,,,,,,2.328,1,,,,,,,,,,,,,,z,,,,,,,,,,,,,,,,92,0,1467.7603,1470.0926,z,1,2.328,,[],[],[],[],[],[],[],1470.0927,1472.0916,1472.0916,1472.0919,[],[],[],[],[],[],[],,1472.0919,1472.092,0.83148151,-0.420370384,0,0,0,,0,91,91,37,1,4,RL,renutal,cursive,renutal_c.png,,,,,,
,,,,32072,001,2025-12-02_21h19.02.318,HW_LDT_1,2024.2.4,Win32,62.89308176,,,,,,,,,,,,,,,,,,,,,1472.0932,1472.2917,1472.2917,1472.792,,,,,,,,,,,,,,1.3588,1,,,,,,,,,,,,,,m,,,,,,,,,,,,,,,,93,0,1472.7926,1474.1577,m,1,1.3588,,[],[],[],[],[],[],[],1474.1579,1476.1575,1476.1576,1476.1578,[],[],[],[],[],[],[],,1476.1578,1476.1579,0.83148151,-0.420370384,0,0,0,,0,92,92,118,1,4,word,MEDICINE,cursive,medicine_c.png,,,,,,
,,,,32072,001,2025-12-02_21h19.02.318,HW_LDT_1,2024.2.4,Win32,62.89308176,,,,,,,,,,,,,,,,,,,,,1476.159,1476.357,1476.3571,1476.857,,,,,,,,,,,,,,1.1135,1,,,,,,,,,,,,,,z,,,,,,,,,,,,,,,,94,0,1476.8574,1477.9901,z,1,1.1135,,[],[],[],[],[],[],[],1477.9902,1479.9898,1479.9899,1479.99,[],[],[],[],[],[],[],,1479.9901,1479.9901,0.83148151,-0.420370384,0,0,0,,0,93,93,76,1,4,TL,setanor,print,setanor_p.png,,,,,,
,,,,32072,001,2025-12-02_21h19.02.318,HW_LDT_1,2024.2.4,Win32,62.89308176,,,,,,,,,,,,,,,,,,,,,1479.9913,1480.1896,1480.1896,1480.6886,,,,,,,,,,,,,,0.8108,1,,,,,,,,,,,,,,m,,,,,,,,,,,,,,,,95,1,1480.6892,1481.522,m,1,0.8108,,[],[],[],[],[],[],[],1481.5221,1483.5216,1483.5217,1484.5883,[],[],[],[],[],[],[],z,1484.5884,1484.5885,0.83148151,-0.420370384,0,0,0,,0,94,94,116,1,4,word,MARGINAL,cursive,marginal_c.png,1.0423,,,,,
,,,,32072,001,2025-12-02_21h19.02.318,HW_LDT_1,2024.2.4,Win32,62.89308176,,,,,,,,,,,,,,,,,,,,,1484.5895,1484.7878,1484.7879,1485.288,,,,,,,,,,,,,,0.8213,1,,,,,,,,,,,,,,z,,,,,,,,,,,,,,,,96,0,1485.2887,1486.121,z,1,0.8213,,[],[],[],[],[],[],[],1486.1212,1488.1198,1488.1199,1488.1199,[],[],[],[],[],[],[],,1488.12,1488.1203,0.83148151,-0.420370384,0,0,0,,0,95,95,49,1,4,RL,vesofity,cursive,vesofity_c.png,,,,,,
,,,,32072,001,2025-12-02_21h19.02.318,HW_LDT_1,2024.2.4,Win32,62.89308176,,,,,,,,,,,,,,,,,,,,,1488.1236,1488.3205,1488.3205,1488.8206,,,,,,,,,,,,,,1.3171,1,,,,,,,,,,,,,,z,,,,,,,,,,,,,,,,97,0,1488.8211,1490.1535,z,1,1.3171,,[],[],[],[],[],[],[],1490.1535,1492.1524,1492.1524,1492.1526,[],[],[],[],[],[],[],,1492.1526,1492.1527,0.83148151,-0.420370384,0,0,0,,0,96,96,15,1,4,RL,debave,cursive,debave_c.png,,,,,,
,,,,32072,001,2025-12-02_21h19.02.318,HW_LDT_1,2024.2.4,Win32,62.89308176,,,,,,,,,,,,,,,,,,,,,1492.1538,1492.3524,1492.3524,1492.8525,,,,,,,,,,,,,,1.6259,1,,,,,,,,,,,,,,z,,,,,,,,,,,,,,,,98,0,1492.8531,1494.4854,z,1,1.6259,,[],[],[],[],[],[],[],1494.4857,1496.485,1496.4851,1496.4853,[],[],[],[],[],[],[],,1496.4853,1496.4855,0.83148151,-0.420370384,0,0,0,,0,97,97,4,1,4,RL,betemit,cursive,betemit_c.png,,,,,,
,,,,32072,001,2025-12-02_21h19.02.318,HW_LDT_1,2024.2.4,Win32,62.89308176,,,,,,,,,,,,,,,,,,,,,1496.4867,1496.6851,1496.6851,1497.1841,,,,,,,,,,,,,,0.9553,1,,,,,,,,,,,,,,m,,,,,,,,,,,,,,,,99,0,1497.1846,1498.1505,m,1,0.9553,,[],[],[],[],[],[],[],1498.1505,1500.1504,1500.1505,1500.1506,[],[],[],[],[],[],[],,1500.1507,1500.1508,0.83148151,-0.420370384,0,0,0,,0,98,98,126,1,4,word,OPTIMAL,print,optimal_p.png,,,,,,
,,,,32072,001,2025-12-02_21h19.02.318,HW_LDT_1,2024.2.4,Win32,62.89308176,,,,,,,,,,,,,,,,,,,,,1500.152,1500.3503,1500.3504,1500.8502,,,,,,,,,,,,,,0.9752,1,,,,,,,,,,,,,,m,,,,,,,,,,,,,,,,100,0,1500.8506,1501.8501,m,1,0.9752,,[],[],[],[],[],[],[],1501.8503,1503.8492,1503.8493,1503.8494,[],[],[],[],[],[],[],,1503.8494,1503.8495,0.83148151,-0.420370384,0,0,0,,0,99,99,122,1,4,word,MOBILE,print,mobile_p.png,,,,,,
,,,,32072,001,2025-12-02_21h19.02.318,HW_LDT_1,2024.2.4,Win32,62.89308176,,,,,,,,,,,,,,,,,,,,,1503.8508,1504.0489,1504.049,1504.5492,,,,,,,,,,,,,,0.4798,1,,,,,,,,,,,,,,m,,,,,,,,,,,,,,,,101,0,1504.5497,1505.0496,m,1,0.4798,,[],[],[],[],[],[],[],1505.0497,1507.0482,1507.0482,1507.0484,[],[],[],[],[],[],[],,1507.0485,1507.0485,0.83148151,-0.420370384,0,0,0,,0,100,100,140,1,4,word,RELATIVE,print,relative_p.png,,,,,,
,,,,32072,001,2025-12-02_21h19.02.318,HW_LDT_1,2024.2.4,Win32,62.89308176,,,,,,,,,,,,,,,,,,,,,1507.0496,1507.2484,1507.2484,1507.7474,,,,,,,,,,,,,,1.8092,1,,,,,,,,,,,,,,m,,,,,,,,,,,,,,,,102,0,1507.7479,1509.5812,m,1,1.8092,,[],[],[],[],[],[],[],1509.5812,1511.5802,1511.5803,1511.5804,[],[],[],[],[],[],[],,1511.5805,1511.5805,0.83148151,-0.420370384,0,0,0,,0,101,101,117,1,4,word,MARINE,print,marine_p.png,,,,,,
,,,,32072,001,2025-12-02_21h19.02.318,HW_LDT_1,2024.2.4,Win32,62.89308176,,,,,,,,,,,,,,,,,,,,,1511.5818,1511.78,1511.7801,1512.2796,,,,,,,,,,,,,,0.9136,1,,,,,,,,,,,,,,m,,,,,,,,,,,,,,,,103,1,1512.28,1513.2124,m,1,0.9136,,[],[],[],[],[],[],[],1513.2125,1515.2126,1515.2126,1516.4789,[],[],[],[],[],[],[],z,1516.4789,1516.4792,0.83148151,-0.420370384,0,0,0,,0,102,102,146,1,4,word,RETIRE,print,retire_p.png,1.2522,,,,,
,,,,32072,001,2025-12-02_21h19.02.318,HW_LDT_1,2024.2.4,Win32,62.89308176,,,,,,,,,,,,,,,,,,,,,1516.4807,1516.6781,1516.6782,1517.1786,,,,,,,,,,,,,,1.2207,1,,,,,,,,,,,,,,z,,,,,,,,,,,,,,,,104,0,1517.1793,1518.4114,z,1,1.2207,,[],[],[],[],[],[],[],1518.4114,1520.4106,1520.4108,1520.4109,[],[],[],[],[],[],[],,1520.4109,1520.411,0.83148151,-0.420370384,0,0,0,,0,103,103,19,1,4,RL,elacodate,cursive,elacodate_c.png,,,,,,
,,,,32072,001,2025-12-02_21h19.02.318,HW_LDT_1,2024.2.4,Win32,62.89308176,,,,,,,,,,,,,,,,,,,,,1520.4124,1520.6103,1520.6103,1521.1101,,,,,,,,,,,,,,1.4832,1,,,,,,,,,,,,,,m,,,,,,,,,,,,,,,,105,0,1521.1107,1522.6101,m,1,1.4832,,[],[],[],[],[],[],[],1522.6102,1524.6098,1524.6099,1524.61,[],[],[],[],[],[],[],,1524.61,1524.6101,0.83148151,-0.420370384,0,0,0,,0,104,104,131,1,4,word,POPULAR,print,popular_p.png,,,,,,
,,,,32072,001,2025-12-02_21h19.02.318,HW_LDT_1,2024.2.4,Win32,62.89308176,,,,,,,,,,,,,,,,,,,,,1524.6115,1524.8096,1524.8096,1525.3091,,,,,,,,,,,,,,1.5858,0,,,,,,,,,,,,,,m,,,,,,,,,,,,,,,,106,1,1525.3098,1526.9095,z,0,1.5858,,[],[],[],[],[],[],[],1526.9097,1528.9076,1528.9076,1530.375,[],[],[],[],[],[],[],m,1530.3751,1530.3753,0.83148151,-0.420370384,0,0,0,,0,105,105,156,1,4,word,TRIBUTE,print,tribute_p.png,1.4483,,,,,
,,,,32072,001,2025-12-02_21h19.02.318,HW_LDT_1,2024.2.4,Win32,62.89308176,,,,,,,,,,,,,,,,,,,,,1530.3776,1530.5751,1530.5751,1531.074,,,,,,,,,,,,,,0.789,1,,,,,,,,,,,,,,m,,,,,,,,,,,,,,,,107,0,1531.0744,1531.8742,m,1,0.789,,[],[],[],[],[],[],[],1531.8744,1533.8733,1533.8733,1533.8735,[],[],[],[],[],[],[],,1533.8736,1533.8736,0.83148151,-0.420370384,0,0,0,,0,106,106,80,1,4,word,ACADEMY,print,academy_p.png,,,,,,
,,,,32072,001,2025-12-02_21h19.02.318,HW_LDT_1,2024.2.4,Win32,62.89308176,,,,,,,,,,,,,,,,,,,,,1533.8749,1534.0734,1534.0734,1534.5733,,,,,,,,,,,,,,1.7934,1,,,,,,,,,,,,,,z,,,,,,,,,,,,,,,,108,1,1534.5737,1536.3727,z,1,1.7934,,[],[],[],[],[],[],[],1536.3728,1538.3724,1538.3724,1539.3721,[],[],[],[],[],[],[],z,1539.3722,1539.3723,0.83148151,-0.420370384,0,0,0,,0,107,107,59,1,4,TL,fornute,cursive,fornute_c.png,0.9824,,,,,
,,,,32072,001,2025-12-02_21h19.02.318,HW_LDT_1,2024.2.4,Win32,62.89308176,,,,,,,,,,,,,,,,,,,,,1539.3735,1539.5722,1539.5724,1540.0713,,,,,,,,,,,,,,1.2488,1,,,,,,,,,,,,,,z,,,,,,,,,,,,,,,,109,0,1540.0717,1541.3381,z,1,1.2488,,[],[],[],[],[],[],[],1541.3381,1543.3382,1543.3383,1543.3385,[],[],[],[],[],[],[],,1543.3386,1543.339,0.83148151,-0.420370384,0,0,0,,0,108,108,3,1,4,RL,bewoted,print,bewoted_p.png,,,,,,
,,,,32072,001,2025-12-02_21h19.02.318,HW_LDT_1,2024.2.4,Win32,62.89308176,,,,,,,,,,,,,,,,,,,,,1543.3402,1543.537,1543.537,1544.037,,,,,,,,,,,,,,1.0839,1,,,,,,,,,,,,,,m,,,,,,,,,,,,,,,,110,0,1544.0374,1545.1372,m,1,1.0839,,[],[],[],[],[],[],[],1545.1373,1547.1362,1547.1362,1547.1363,[],[],[],[],[],[],[],,1547.1363,1547.1364,0.83148151,-0.420370384,0,0,0,,0,109,109,139,1,4,word,REGULAR,cursive,regular_c.png,,,,,,
,,,,32072,001,2025-12-02_21h19.02.318,HW_LDT_1,2024.2.4,Win32,62.89308176,,,,,,,,,,,,,,,,,,,,,1547.1377,1547.3358,1547.3358,1547.836,,,,,,,,,,,,,,1.1506,1,,,,,,,,,,,,,,z,,,,,,,,,,,,,,,,111,0,1547.8365,1549.0022,z,1,1.1506,,[],[],[],[],[],[],[],1549.0022,1551.0023,1551.0023,1551.0025,[],[],[],[],[],[],[],,1551.0025,1551.0025,0.83148151,-0.420370384,0,0,0,,0,110,110,54,1,4,TL,codemy,print,codemy_p.png,,,,,,
,,,,32072,001,2025-12-02_21h19.02.318,HW_LDT_1,2024.2.4,Win32,62.89308176,,,,,,,,,,,,,,,,,,,,,1551.0036,1551.2022,1551.2022,1551.7011,,,,,,,,,,,,,,1.1817,1,,,,,,,,,,,,,,m,,,,,,,,,,,,,,,,112,0,1551.7018,1552.9017,m,1,1.1817,,[],[],[],[],[],[],[],1552.9018,1554.9001,1554.9001,1554.9003,[],[],[],[],[],[],[],,1554.9004,1554.9005,0.83148151,-0.420370384,0,0,0,,0,111,111,155,1,4,word,STRATEGY,print,strategy_p.png,,,,,,
,,,,32072,001,2025-12-02_21h19.02.318,HW_LDT_1,2024.2.4,Win32,62.89308176,,,,,,,,,,,,,,,,,,,,,1554.9019,1555.1005,1555.1005,1555.6006,,,,,,,,,,,,,,1.3217,1,,,,,,,,,,,,,,z,,,,,,,,,,,,,,,,113,0,1555.6011,1556.9333,z,1,1.3217,,[],[],[],[],[],[],[],1556.9334,1558.9329,1558.933,1558.9331,[],[],[],[],[],[],[],,1558.9331,1558.9332,0.83148151,-0.420370384,0,0,0,,0,112,112,70,1,4,TL,quatily,print,quatily_p.png,,,,,,
,,,,32072,001,2025-12-02_21h19.02.318,HW_LDT_1,2024.2.4,Win32,62.89308176,,,,,,,,,,,,,,,,,,,,,1558.9348,1559.1327,1559.1327,1559.6328,,,,,,,,,,,,,,1.159,1,,,,,,,,,,,,,,m,,,,,,,,,,,,,,,,114,0,1559.6333,1560.7994,m,1,1.159,,[],[],[],[],[],[],[],1560.7995,1562.7982,1562.7983,1562.7986,[],[],[],[],[],[],[],,1562.7986,1562.7989,0.83148151,-0.420370384,0,0,0,,0,113,113,130,1,4,word,POLICY,cursive,policy_c.png,,,,,,
,,,,32072,001,2025-12-02_21h19.02.318,HW_LDT_1,2024.2.4,Win32,62.89308176,,,,,,,,,,,,,,,,,,,,,1562.8008,1562.9988,1562.9989,1563.4987,,,,,,,,,,,,,,2.5068,1,,,,,,,,,,,,,,z,,,,,,,,,,,,,,,,115,1,1563.4991,1566.0311,z,1,2.5068,,[],[],[],[],[],[],[],1566.0312,1568.0305,1568.0306,1569.3637,[],[],[],[],[],[],[],z,1569.3637,1569.3639,0.83148151,-0.420370384,0,0,0,,0,114,114,52,1,4,TL,cagetory,cursive,cagetory_c.png,1.3136,,,,,
,,,,32072,001,2025-12-02_21h19.02.318,HW_LDT_1,2024.2.4,Win32,62.89308176,,,,,,,,,,,,,,,,,,,,,1569.3653,1569.563,1569.563,1570.0632,,,,,,,,,,,,,,2.1935,1,,,,,,,,,,,,,,m,,,,,,,,,,,,,,,,116,0,1570.0637,1572.2628,m,1,2.1935,,[],[],[],[],[],[],[],1572.263,1574.2619,1574.262,1574.2622,[],[],[],[],[],[],[],,1574.2622,1574.2623,0.83148151,-0.420370384,0,0,0,,0,115,115,91,1,4,word,CARDINAL,cursive,cardinal_c.png,,,,,,
,,,,32072,001,2025-12-02_21h19.02.318,HW_LDT_1,2024.2.4,Win32,62.89308176,,,,,,,,,,,,,,,,,,,,,1574.2635,1574.4611,1574.4612,1574.9619,,,,,,,,,,,,,,0.7792,1,,,,,,,,,,,,,,m,,,,,,,,,,,,,,,,117,0,1574.9627,1575.7616,m,1,0.7792,,[],[],[],[],[],[],[],1575.7617,1577.7606,1577.7607,1577.7608,[],[],[],[],[],[],[],,1577.7609,1577.7609,0.83148151,-0.420370384,0,0,0,,0,116,116,141,1,4,word,RELIGION,print,religion_p.png,,,,,,
,,,,32072,001,2025-12-02_21h19.02.318,HW_LDT_1,2024.2.4,Win32,62.89308176,,,,,,,,,,,,,,,,,,,,,1577.7622,1577.9606,1577.9606,1578.4609,,,,,,,,,,,,,,3.5754,1,,,,,,,,,,,,,,z,,,,,,,,,,,,,,,,118,0,1578.4615,1582.0599,z,1,3.5754,,[],[],[],[],[],[],[],1582.06,1584.0589,1584.0589,1584.0591,[],[],[],[],[],[],[],,1584.0591,1584.0592,0.83148151,-0.420370384,0,0,0,,0,117,117,6,1,4,RL,caleberia,cursive,caleberia_c.png,,,,,,
,,,,32072,001,2025-12-02_21h19.02.318,HW_LDT_1,2024.2.4,Win32,62.89308176,,,,,,,,,,,,,,,,,,,,,1584.0604,1584.2585,1584.2586,1584.759,,,,,,,,,,,,,,1.1744,1,,,,,,,,,,,,,,m,,,,,,,,,,,,,,,,119,0,1584.7596,1585.9586,m,1,1.1744,,[],[],[],[],[],[],[],1585.9588,1587.9579,1587.958,1587.9581,[],[],[],[],[],[],[],,1587.9581,1587.9582,0.83148151,-0.420370384,0,0,0,,0,118,118,105,1,4,word,EDITOR,print,editor_p.png,,,,,,
,,,,32072,001,2025-12-02_21h19.02.318,HW_LDT_1,2024.2.4,Win32,62.89308176,,,,,,,,,,,,,,,,,,,,,1587.9592,1588.1576,1588.1576,1588.6572,,,,,,,,,,,,,,3.0542,1,,,,,,,,,,,,,,z,,,,,,,,,,,,,,,,120,0,1588.6577,1591.7233,z,1,3.0542,,[],[],[],[],[],[],[],1591.7233,1593.7227,1593.7228,1593.7231,[],[],[],[],[],[],[],,1593.7231,1593.7232,0.83148151,-0.420370384,0,0,0,,0,119,119,66,1,4,TL,opmital,print,opmital_p.png,,,,,,
,,,,32072,001,2025-12-02_21h19.02.318,HW_LDT_1,2024.2.4,Win32,62.89308176,,,,,,,,,,,,,,,,,,,,,1593.7247,1593.9233,1593.9233,1594.4225,,,,,,,,,,,,,,1.0916,1,,,,,,,,,,,,,,m,,,,,,,,,,,,,,,,121,1,1594.423,1595.5226,m,1,1.0916,,[],[],[],[],[],[],[],1595.5227,1597.5209,1597.521,1598.5542,[],[],[],[],[],[],[],z,1598.5543,1598.5544,0.83148151,-0.420370384,0,0,0,,0,120,120,99,1,4,word,DEBATE,cursive,debate_c.png,1.0164,,,,,
,,,,32072,001,2025-12-02_21h19.02.318,HW_LDT_1,2024.2.4,Win32,62.89308176,,,,,,,,,,,,,,,,,,,,,1598.5555,1598.7541,1598.7541,1599.2538,,,,,,,,,,,,,,1.0846,1,,,,,,,,,,,,,,z,,,,,,,,,,,,,,,,122,0,1599.2543,1600.3545,z,1,1.0846,,[],[],[],[],[],[],[],1600.3546,1602.3535,1602.3535,1602.3536,[],[],[],[],[],[],[],,1602.3536,1602.3538,0.83148151,-0.420370384,0,0,0,,0,121,121,48,1,4,RL,vabifity,print,vabifity_p.png,,,,,,
,,,,32072,001,2025-12-02_21h19.02.318,HW_LDT_1,2024.2.4,Win32,62.89308176,,,,,,,,,,,,,,,,,,,,,1602.3549,1602.5536,1602.5536,1603.0532,,,,,,,,,,,,,,1.0539,1,,,,,,,,,,,,,,z,,,,,,,,,,,,,,,,123,1,1603.054,1604.1198,z,1,1.0539,,[],[],[],[],[],[],[],1604.1199,1606.1192,1606.1192,1606.9521,[],[],[],[],[],[],[],z,1606.9522,1606.9522,0.83148151,-0.420370384,0,0,0,,0,122,122,57,1,4,TL,etidor,print,etidor_p.png,0.8175,,,,,
,,,,32072,001,2025-12-02_21h19.02.318,HW_LDT_1,2024.2.4,Win32,62.89308176,,,,,,,,,,,,,,,,,,,,,1606.9532,1607.1522,1607.1522,1607.6516,,,,,,,,,,,,,,1.2487,1,,,,,,,,,,,,,,m,,,,,,,,,,,,,,,,124,0,1607.6522,1608.9186,m,1,1.2487,,[],[],[],[],[],[],[],1608.9187,1610.918,1610.9181,1610.9183,[],[],[],[],[],[],[],,1610.9184,1610.9185,0.83148151,-0.420370384,0,0,0,,0,123,123,84,1,4,word,BELOVED,print,beloved_p.png,,,,,,
,,,,32072,001,2025-12-02_21h19.02.318,HW_LDT_1,2024.2.4,Win32,62.89308176,,,,,,,,,,,,,,,,,,,,,1610.9212,1611.1179,1611.118,1611.6169,,,,,,,,,,,,,,0.8934,1,,,,,,,,,,,,,,m,,,,,,,,,,,,,,,,125,1,1611.6175,1612.5176,m,1,0.8934,,[],[],[],[],[],[],[],1612.5176,1614.5164,1614.5164,1615.3494,[],[],[],[],[],[],[],m,1615.3494,1615.3495,0.83148151,-0.420370384,0,0,0,,0,124,124,109,1,4,word,GRATEFUL,print,grateful_p.png,0.813,,,,,
,,,,32072,001,2025-12-02_21h19.02.318,HW_LDT_1,2024.2.4,Win32,62.89308176,,,,,,,,,,,,,,,,,,,,,1615.3507,1615.5499,1615.5499,1616.0498,,,,,,,,,,,,,,0.6322,1,,,,,,,,,,,,,,m,,,,,,,,,,,,,,,,126,0,1616.0504,1616.6832,m,1,0.6322,,[],[],[],[],[],[],[],1616.6832,1618.6824,1618.6824,1618.6826,[],[],[],[],[],[],[],,1618.6826,1618.6827,0.83148151,-0.420370384,0,0,0,,0,125,125,95,1,4,word,COMEDY,print,comedy_p.png,,,,,,
,,,,32072,001,2025-12-02_21h19.02.318,HW_LDT_1,2024.2.4,Win32,62.89308176,,,,,,,,,,,,,,,,,,,,,1618.684,1618.8823,1618.8824,1619.3822,,,,,,,,,,,,,,0.5547,1,,,,,,,,,,,,,,m,,,,,,,,,,,,,,,,127,0,1619.3828,1619.9482,m,1,0.5547,,[],[],[],[],[],[],[],1619.9483,1621.9479,1621.9479,1621.9481,[],[],[],[],[],[],[],,1621.9481,1621.9484,0.83148151,-0.420370384,0,0,0,,0,126,126,115,1,4,word,LOGICAL,print,logical_p.png,,,,,,
,,,,32072,001,2025-12-02_21h19.02.318,HW_LDT_1,2024.2.4,Win32,62.89308176,,,,,,,,,,,,,,,,,,,,,1621.9496,1622.1479,1622.1479,1622.6479,,,,,,,,,,,,,,2.1782,1,,,,,,,,,,,,,,z,,,,,,,,,,,,,,,,128,0,1622.6485,1624.8472,z,1,2.1782,,[],[],[],[],[],[],[],1624.8473,1626.8466,1626.8466,1626.8468,[],[],[],[],[],[],[],,1626.8468,1626.8469,0.83148151,-0.420370384,0,0,0,,0,127,127,14,1,4,RL,delahe,cursive,delahe_c.png,,,,,,
,,,,32072,001,2025-12-02_21h19.02.318,HW_LDT_1,2024.2.4,Win32,62.89308176,,,,,,,,,,,,,,,,,,,,,1626.8478,1627.0458,1627.0459,1627.5464,,,,,,,,,,,,,,1.1956,1,,,,,,,,,,,,,,m,,,,,,,,,,,,,,,,129,0,1627.547,1628.7451,m,1,1.1956,,[],[],[],[],[],[],[],1628.7453,1630.7455,1630.7456,1630.7458,[],[],[],[],[],[],[],,1630.7458,1630.7459,0.83148151,-0.420370384,0,0,0,,0,128,128,120,1,4,word,MILITARY,print,military_p.png,,,,,,
,,,,32072,001,2025-12-02_21h19.02.318,HW_LDT_1,2024.2.4,Win32,62.89308176,,,,,,,,,,,,,,,,,,,,,1630.7471,1630.9455,1630.9455,1631.4453,,,,,,,,,,,,,,1.3834,1,,,,,,,,,,,,,,z,,,,,,,,,,,,,,,,130,0,1631.4457,1632.8447,z,1,1.3834,,[],[],[],[],[],[],[],1632.8448,1634.8438,1634.8438,1634.8441,[],[],[],[],[],[],[],,1634.8441,1634.8443,0.83148151,-0.420370384,0,0,0,,0,129,129,44,1,4,RL,senvilent,print,senvilent_p.png,,,,,,
,,,,32072,001,2025-12-02_21h19.02.318,HW_LDT_1,2024.2.4,Win32,62.89308176,,,,,,,,,,,,,,,,,,,,,1634.8453,1635.0435,1635.0435,1635.5441,,,,,,,,,,,,,,1.4258,1,,,,,,,,,,,,,,m,,,,,,,,,,,,,,,,131,1,1635.5448,1636.9765,m,1,1.4258,,[],[],[],[],[],[],[],1636.9765,1638.9757,1638.9758,1640.0092,[],[],[],[],[],[],[],z,1640.0092,1640.0093,0.83148151,-0.420370384,0,0,0,,0,130,130,96,1,4,word,CONSIDER,cursive,consider_c.png,1.0156,,,,,
,,,,32072,001,2025-12-02_21h19.02.318,HW_LDT_1,2024.2.4,Win32,62.89308176,,,,,,,,,,,,,,,,,,,,,1640.0103,1640.2095,1640.2096,1640.7091,,,,,,,,,,,,,,1.5755,1,,,,,,,,,,,,,,z,,,,,,,,,,,,,,,,132,0,1640.7096,1642.3086,z,1,1.5755,,[],[],[],[],[],[],[],1642.3087,1644.3083,1644.3083,1644.3085,[],[],[],[],[],[],[],,1644.3085,1644.3086,0.83148151,-0.420370384,0,0,0,,0,131,131,63,1,4,TL,miskate,print,miskate_p.png,,,,,,
,,,,32072,001,2025-12-02_21h19.02.318,HW_LDT_1,2024.2.4,Win32,62.89308176,,,,,,,,,,,,,,,,,,,,,1644.3101,1644.5072,1644.5073,1645.0077,,,,,,,,,,,,,,2.7476,1,,,,,,,,,,,,,,z,,,,,,,,,,,,,,,,133,0,1645.0082,1647.7739,z,1,2.7476,,[],[],[],[],[],[],[],1647.774,1649.7727,1649.7728,1649.773,[],[],[],[],[],[],[],,1649.7731,1649.7732,0.83148151,-0.420370384,0,0,0,,0,132,132,34,1,4,RL,posity,cursive,posity_c.png,,,,,,
,,,,32072,001,2025-12-02_21h19.02.318,HW_LDT_1,2024.2.4,Win32,62.89308176,,,,,,,,,,,,,,,,,,,,,1649.7746,1649.9724,1649.9724,1650.4723,,,,,,,,,,,,,,1.0083,1,,,,,,,,,,,,,,z,,,,,,,,,,,,,,,,134,0,1650.4729,1651.5063,z,1,1.0083,,[],[],[],[],[],[],[],1651.5064,1653.5054,1653.5054,1653.5055,[],[],[],[],[],[],[],,1653.5056,1653.5057,0.83148151,-0.420370384,0,0,0,,0,133,133,28,1,4,RL,mifikary,print,mifikary_p.png,,,,,,
,,,,32072,001,2025-12-02_21h19.02.318,HW_LDT_1,2024.2.4,Win32,62.89308176,,,,,,,,,,,,,,,,,,,,,1653.5069,1653.7054,1653.7054,1654.2047,,,,,,,,,,,,,,1.1521,1,,,,,,,,,,,,,,z,,,,,,,,,,,,,,,,135,0,1654.2053,1655.3715,z,1,1.1521,,[],[],[],[],[],[],[],1655.3717,1657.3699,1657.37,1657.3701,[],[],[],[],[],[],[],,1657.3702,1657.3703,0.83148151,-0.420370384,0,0,0,,0,134,134,11,1,4,RL,clisimal,print,clisimal_p.png,,,,,,
,,,,32072,001,2025-12-02_21h19.02.318,HW_LDT_1,2024.2.4,Win32,62.89308176,,,,,,,,,,,,,,,,,,,,,1657.3721,1657.5707,1657.5708,1658.0708,,,,,,,,,,,,,,0.924,0,,,,,,,,,,,,,,m,,,,,,,,,,,,,,,,136,0,1658.0712,1659.0033,z,0,0.924,,[],[],[],[],[],[],[],1659.0034,1661.0025,1661.0026,1661.0029,[],[],[],[],[],[],[],,1661.003,1661.003,0.83148151,-0.420370384,0,0,0,,0,135,135,85,1,4,word,BENEFIT,cursive,benefit_c.png,,,,,,
,,,,32072,001,2025-12-02_21h19.02.318,HW_LDT_1,2024.2.4,Win32,62.89308176,,,,,,,,,,,,,,,,,,,,,1661.0041,1661.2028,1661.2029,1661.7028,,,,,,,,,,,,,,1.3913,1,,,,,,,,,,,,,,z,,,,,,,,,,,,,,,,137,0,1661.7034,1663.1026,z,1,1.3913,,[],[],[],[],[],[],[],1663.1026,1665.1018,1665.1019,1665.1021,[],[],[],[],[],[],[],,1665.1022,1665.1023,0.83148151,-0.420370384,0,0,0,,0,136,136,74,1,4,TL,rerite,print,rerite_p.png,,,,,,
,,,,32072,001,2025-12-02_21h19.02.318,HW_LDT_1,2024.2.4,Win32,62.89308176,,,,,,,,,,,,,,,,,,,,,1665.1044,1665.301,1665.301,1665.8016,,,,,,,,,,,,,,4.1866,1,,,,,,,,,,,,,,z,,,,,,,,,,,,,,,,138,0,1665.8022,1669.9999,z,1,4.1866,,[],[],[],[],[],[],[],1669.9999,1671.9997,1671.9997,1671.9999,[],[],[],[],[],[],[],,1672,1672.0001,0.83148151,-0.420370384,0,0,0,,0,137,137,16,1,4,RL,desifate,cursive,desifate_c.png,,,,,,
,,,,32072,001,2025-12-02_21h19.02.318,HW_LDT_1,2024.2.4,Win32,62.89308176,,,,,,,,,,,,,,,,,,,,,1672.0013,1672.1997,1672.1998,1672.6993,,,,,,,,,,,,,,1.5616,1,,,,,,,,,,,,,,m,,,,,,,,,,,,,,,,139,0,1672.6998,1674.2657,m,1,1.5616,,[],[],[],[],[],[],[],1674.2658,1676.2649,1676.2649,1676.265,[],[],[],[],[],[],[],,1676.2651,1676.2651,0.83148151,-0.420370384,0,0,0,,0,138,138,102,1,4,word,DENSITY,cursive,density_c.png,,,,,,
,,,,32072,001,2025-12-02_21h19.02.318,HW_LDT_1,2024.2.4,Win32,62.89308176,,,,,,,,,,,,,,,,,,,,,1676.2663,1676.4652,1676.4653,1676.9643,,,,,,,,,,,,,,1.9214,1,,,,,,,,,,,,,,z,,,,,,,,,,,,,,,,140,0,1676.9648,1678.8977,z,1,1.9214,,[],[],[],[],[],[],[],1678.8978,1680.8965,1680.8965,1680.8967,[],[],[],[],[],[],[],,1680.8968,1680.8969,0.83148151,-0.420370384,0,0,0,,0,139,139,67,1,4,TL,polupar,print,polupar_p.png,,,,,,
,,,,32072,001,2025-12-02_21h19.02.318,HW_LDT_1,2024.2.4,Win32,62.89308176,,,,,,,,,,,,,,,,,,,,,1680.8986,1681.0968,1681.0968,1681.5971,,,,,,,,,,,,,,1.8504,1,,,,,,,,,,,,,,z,,,,,,,,,,,,,,,,141,0,1681.5976,1683.4624,z,1,1.8504,,[],[],[],[],[],[],[],1683.4624,1685.4627,1685.4628,1685.463,[],[],[],[],[],[],[],,1685.4631,1685.4632,0.83148151,-0.420370384,0,0,0,,0,140,140,65,1,4,TL,orepator,print,orepator_p.png,,,,,,
,,,,32072,001,2025-12-02_21h19.02.318,HW_LDT_1,2024.2.4,Win32,62.89308176,,,,,,,,,,,,,,,,,,,,,1685.4653,1685.6623,1685.6623,1686.1624,,,,,,,,,,,,,,1.2478,1,,,,,,,,,,,,,,m,,,,,,,,,,,,,,,,142,1,1686.1629,1687.4285,m,1,1.2478,,[],[],[],[],[],[],[],1687.4286,1689.428,1689.428,1690.0271,[],[],[],[],[],[],[],m,1690.0272,1690.0273,0.83148151,-0.420370384,0,0,0,,0,141,141,90,1,4,word,CAPITAL,print,capital_p.png,0.5757,,,,,
,,,,32072,001,2025-12-02_21h19.02.318,HW_LDT_1,2024.2.4,Win32,62.89308176,,,,,,,,,,,,,,,,,,,,,1690.0288,1690.2274,1690.2275,1690.7272,,,,,,,,,,,,,,2.3615,1,,,,,,,,,,,,,,z,,,,,,,,,,,,,,,,143,0,1690.7279,1693.0929,z,1,2.3615,,[],[],[],[],[],[],[],1693.093,1695.0925,1695.0925,1695.0927,[],[],[],[],[],[],[],,1695.0927,1695.0928,0.83148151,-0.420370384,0,0,0,,0,142,142,39,1,4,RL,relone,cursive,relone_c.png,,,,,,
,,,,32072,001,2025-12-02_21h19.02.318,HW_LDT_1,2024.2.4,Win32,62.89308176,,,,,,,,,,,,,,,,,,,,,1695.0939,1695.2922,1695.2923,1695.7928,,,,,,,,,,,,,,4.5734,1,,,,,,,,,,,,,,z,,,,,,,,,,,,,,,,144,0,1695.7934,1700.3915,z,1,4.5734,,[],[],[],[],[],[],[],1700.3917,1702.3909,1702.391,1702.3911,[],[],[],[],[],[],[],,1702.3912,1702.3913,0.83148151,-0.420370384,0,0,0,,0,143,143,2,1,4,RL,asiral,cursive,asiral_c.png,,,,,,
,,,,32072,001,2025-12-02_21h19.02.318,HW_LDT_1,2024.2.4,Win32,62.89308176,,,,,,,,,,,,,,,,,,,,,1702.3924,1702.5903,1702.5904,1703.0905,,,,,,,,,,,,,,1.2507,1,,,,,,,,,,,,,,z,,,,,,,,,,,,,,,,145,0,1703.091,1704.3571,z,1,1.2507,,[],[],[],[],[],[],[],1704.3572,1706.356,1706.356,1706.3562,[],[],[],[],[],[],[],,1706.3563,1706.3564,0.83148151,-0.420370384,0,0,0,,0,144,144,31,1,4,RL,orimipal,print,orimipal_p.png,,,,,,
,,,,32072,001,2025-12-02_21h19.02.318,HW_LDT_1,2024.2.4,Win32,62.89308176,,,,,,,,,,,,,,,,,,,,,1706.3581,1706.5561,1706.5562,1707.0561,,,,,,,,,,,,,,11.8094,1,,,,,,,,,,,,,,z,,,,,,,,,,,,,,,,146,0,1707.0566,1718.8854,z,1,11.8094,,[],[],[],[],[],[],[],1718.8854,1720.8855,1720.8856,1720.8857,[],[],[],[],[],[],[],,1720.8858,1720.8859,0.83148151,-0.420370384,0,0,0,,0,145,145,56,1,4,TL,donimant,cursive,donimant_c.png,,,,,,
,,,,32072,001,2025-12-02_21h19.02.318,HW_LDT_1,2024.2.4,Win32,62.89308176,,,,,,,,,,,,,,,,,,,,,1720.8872,1721.0853,1721.0853,1721.5853,,,,,,,,,,,,,,1.4915,1,,,,,,,,,,,,,,m,,,,,,,,,,,,,,,,147,1,1721.5858,1723.085,m,1,1.4915,,[],[],[],[],[],[],[],1723.085,1725.0839,1725.0839,1727.8168,[],[],[],[],[],[],[],z,1727.8169,1727.817,0.83148151,-0.420370384,0,0,0,,0,146,146,110,1,4,word,HERITAGE,print,heritage_p.png,2.7093,,,,,
,,,,32072,001,2025-12-02_21h19.02.318,HW_LDT_1,2024.2.4,Win32,62.89308176,,,,,,,,,,,,,,,,,,,,,1727.8182,1728.0167,1728.0167,1728.5167,,,,,,,,,,,,,,0.9149,1,,,,,,,,,,,,,,z,,,,,,,,,,,,,,,,148,0,1728.5172,1729.4491,z,1,0.9149,,[],[],[],[],[],[],[],1729.4492,1731.4491,1731.4491,1731.4492,[],[],[],[],[],[],[],,1731.4492,1731.4493,0.83148151,-0.420370384,0,0,0,,0,147,147,0,1,4,RL,abanemy,print,abanemy_p.png,,,,,,
,,,,32072,001,2025-12-02_21h19.02.318,HW_LDT_1,2024.2.4,Win32,62.89308176,,,,,,,,,,,,,,,,,,,,,1731.4506,1731.6489,1731.649,1732.1485,,,,,,,,,,,,,,0.8815,1,,,,,,,,,,,,,,z,,,,,,,,,,,,,,,,149,0,1732.149,1733.0486,z,1,0.8815,,[],[],[],[],[],[],[],1733.0488,1735.0476,1735.0476,1735.0479,[],[],[],[],[],[],[],,1735.0479,1735.048,0.83148151,-0.420370384,0,0,0,,0,148,148,38,1,4,RL,refakive,print,refakive_p.png,,,,,,
,,,,32072,001,2025-12-02_21h19.02.318,HW_LDT_1,2024.2.4,Win32,62.89308176,,,,,,,,,,,,,,,,,,,,,1735.0492,1735.2479,1735.2479,1735.7478,,,,,,,,,,,,,,0.7798,1,,,,,,,,,,,,,,z,,,,,,,,,,,,,,,,150,0,1735.7484,1736.5477,z,1,0.7798,,[],[],[],[],[],[],[],1736.5479,1738.5471,1738.5472,1738.5473,[],[],[],[],[],[],[],,1738.5473,1738.5474,0.83148151,-0.420370384,0,0,0,,0,149,149,20,1,4,RL,gralekul,print,gralekul_p.png,,,,,,
,,,,32072,001,2025-12-02_21h19.02.318,HW_LDT_1,2024.2.4,Win32,62.89308176,,,,,,,,,,,,,,,,,,,,,1738.5486,1738.7467,1738.7467,1739.2482,,,,,,,,,,,,,,0.5411,1,,,,,,,,,,,,,,z,,,,,,,,,,,,,,,,151,1,1739.2502,1739.8125,z,1,0.5411,,[],[],[],[],[],[],[],1739.8127,1741.8129,1741.8129,1743.1114,[],[],[],[],[],[],[],m,1743.1115,1743.1116,0.83148151,-0.420370384,0,0,0,,0,150,150,21,1,4,RL,insibate,print,insibate_p.png,1.2889,,,,,
,,,,32072,001,2025-12-02_21h19.02.318,HW_LDT_1,2024.2.4,Win32,62.89308176,,,,,,,,,,,,,,,,,,,,,1743.1127,1743.3114,1743.3114,1743.8121,,,,,,,,,,,,,,0.8804,1,,,,,,,,,,,,,,m,,,,,,,,,,,,,,,,152,0,1743.8125,1744.7114,m,1,0.8804,,[],[],[],[],[],[],[],1744.7114,1746.7109,1746.7109,1746.7111,[],[],[],[],[],[],[],,1746.7112,1746.7112,0.83148151,-0.420370384,0,0,0,,0,151,151,149,1,4,word,SENATOR,print,senator_p.png,,,,,,
,,,,32072,001,2025-12-02_21h19.02.318,HW_LDT_1,2024.2.4,Win32,62.89308176,,,,,,,,,,,,,,,,,,,,,1746.7126,1746.9112,1746.9113,1747.4108,,,,,,,,,,,,,,4.4869,1,,,,,,,,,,,,,,m,,,,,,,,,,,,,,,,153,0,1747.4113,1751.909,m,1,4.4869,,[],[],[],[],[],[],[],1751.909,1753.9091,1753.9091,1753.9093,[],[],[],[],[],[],[],,1753.9095,1753.9096,0.83148151,-0.420370384,0,0,0,,0,152,152,133,1,4,word,PROVIDE,cursive,provide_c.png,,,,,,
,,,,32072,001,2025-12-02_21h19.02.318,HW_LDT_1,2024.2.4,Win32,62.89308176,,,,,,,,,,,,,,,,,,,,,1753.9109,1754.1088,1754.1088,1754.6091,,,,,,,,,,,,,,0.9244,1,,,,,,,,,,,,,,m,,,,,,,,,,,,,,,,154,1,1754.6097,1755.5416,m,1,0.9244,,[],[],[],[],[],[],[],1755.5416,1757.5416,1757.5417,1758.474,[],[],[],[],[],[],[],m,1758.4741,1758.4742,0.83148151,-0.420370384,0,0,0,,0,153,153,93,1,4,word,CEREMONY,print,ceremony_p.png,0.9148,,,,,
,,,,32072,001,2025-12-02_21h19.02.318,HW_LDT_1,2024.2.4,Win32,62.89308176,,,,,,,,,,,,,,,,,,,,,1758.4756,1758.6744,1758.6744,1759.1743,,,,,,,,,,,,,,1.3291,1,,,,,,,,,,,,,,z,,,,,,,,,,,,,,,,155,0,1759.1747,1760.5067,z,1,1.3291,,[],[],[],[],[],[],[],1760.5068,1762.5059,1762.5059,1762.5061,[],[],[],[],[],[],[],,1762.5061,1762.5062,0.83148151,-0.420370384,0,0,0,,0,154,154,46,1,4,RL,skofen,cursive,skofen_c.png,,,,,,
,,,,32072,001,2025-12-02_21h19.02.318,HW_LDT_1,2024.2.4,Win32,62.89308176,,,,,,,,,,,,,,,,,,,,,1762.5079,1762.7064,1762.7065,1763.2062,,,,,,,,,,,,,,5.3057,1,,,,,,,,,,,,,,m,,,,,,,,,,,,,,,,156,0,1763.2067,1768.5378,m,1,5.3057,,[],[],[],[],[],[],[],1768.5379,1770.537,1770.5371,1770.5373,[],[],[],[],[],[],[],,1770.5373,1770.5374,0.83148151,-0.420370384,0,0,0,,0,155,155,106,1,4,word,ELABORATE,cursive,elaborate_c.png,,,,,,
,,,,32072,001,2025-12-02_21h19.02.318,HW_LDT_1,2024.2.4,Win32,62.89308176,,,,,,,,,,,,,,,,,,,,,1770.5388,1770.7366,1770.7367,1771.2373,,,,,,,,,,,,,,6.883,1,,,,,,,,,,,,,,m,,,,,,,,,,,,,,,,157,0,1771.2381,1778.1345,m,1,6.883,,[],[],[],[],[],[],[],1778.1346,1780.1354,1780.1355,1780.1357,[],[],[],[],[],[],[],,1780.1358,1780.1359,0.83148151,-0.420370384,0,0,0,,0,156,156,114,1,4,word,LOCATE,cursive,locate_c.png,,,,,,
,,,,32072,001,2025-12-02_21h19.02.318,HW_LDT_1,2024.2.4,Win32,62.89308176,,,,,,,,,,,,,,,,,,,,,1780.1384,1780.3346,1780.3347,1780.8344,,,,,,,,,,,,,,1.249,1,,,,,,,,,,,,,,z,,,,,,,,,,,,,,,,158,0,1780.835,1782.101,z,1,1.249,,[],[],[],[],[],[],[],1782.1011,1784.0995,1784.0996,1784.0997,[],[],[],[],[],[],[],,1784.0997,1784.0998,0.83148151,-0.420370384,0,0,0,,0,157,157,27,1,4,RL,menowy,print,menowy_p.png,,,,,,
,,,,32072,001,2025-12-02_21h19.02.318,HW_LDT_1,2024.2.4,Win32,62.89308176,,,,,,,,,,,,,,,,,,,,,1784.1013,1784.3,1784.3001,1784.7998,,,,,,,,,,,,,,1.6077,1,,,,,,,,,,,,,,m,,,,,,,,,,,,,,,,159,0,1784.8002,1786.4324,m,1,1.6077,,[],[],[],[],[],[],[],1786.4324,1788.4322,1788.4322,1788.4324,[],[],[],[],[],[],[],,1788.4324,1788.4325,0.83148151,-0.420370384,0,0,0,,0,158,158,81,1,4,word,ADVISORY,cursive,advisory_c.png,,,,,,
,,,,32072,001,2025-12-02_21h19.02.318,HW_LDT_1,2024.2.4,Win32,62.89308176,,,,,,,,,,,,,,,,,,,,,1788.4339,1788.6319,1788.6319,1789.1321,,,,,,,,,,,,,,2.0278,1,,,,,,,,,,,,,,m,,,,,,,,,,,,,,,,160,0,1789.1326,1791.1641,m,1,2.0278,,[],[],[],[],[],[],[],1791.1641,1793.1633,1793.1633,1793.1636,[],[],[],[],[],[],[],,1793.1637,1793.1638,0.83148151,-0.420370384,0,0,0,,0,159,159,144,1,4,word,RESIDENT,cursive,resident_c.png,,,,,,
,,,,32072,001,2025-12-02_21h19.02.318,HW_LDT_1,2024.2.4,Win32,62.89308176,,,,,,,,,,,,,,,,,,,,,,,,,,,,,,,,,,,,,,,,,,,,,,,,,,,,,,,,,,,,,,,,,,,,,,,,,,,,,,,,,,,,,,,,,,,,,,,,,,,,,,,,,,,,,,,,,,,,,,1793.1644,1798.1625
