counterbalance_lists.group,counterbalance_lists.remaining,get_list.started,get_list.stopped,participant,session,date,expName,psychopyVersion,OS,frameRate,Instructions.started,Instructions.stopped,key_resp.keys,instr_done_touch.x,instr_done_touch.y,instr_done_touch.leftButton,instr_done_touch.midButton,instr_done_touch.rightButton,instr_done_touch.clicked_name,start_instr.thisRepN,start_instr.thisTrialN,start_instr.thisN,start_instr.thisIndex,start_instr.ran,pageN,phase,instruct_text,has_image,instruct_image,key_resp.rt,key_resp.duration,showProgress.started,showProgress.stopped,fix.started,fix.stopped,prac.started,prac.stopped,response.keys,response.corr,response.rt,response.duration,touch_resp.x,touch_resp.y,touch_resp.leftButton,touch_resp.midButton,touch_resp.rightButton,touch_resp.time,touch_resp.clicked_name,rt,corr,feedback.started,feedback.stopped,trials.thisRepN,trials.thisTrialN,trials.thisN,trials.thisIndex,trials.ran,TrialID,StimulusType,Condition,PrimeDuration,Prime,Target,corrAns,Instructions_expt.started,Instructions_expt.stopped,key_resp_3.keys,key_resp_3.rt,key_resp_3.duration,instr_done_touch_3.x,instr_done_touch_3.y,instr_done_touch_3.leftButton,instr_done_touch_3.midButton,instr_done_touch_3.rightButton,instr_experiment.thisRepN,instr_experiment.thisTrialN,instr_experiment.thisN,instr_experiment.thisIndex,instr_experiment.ran,trialID,flag,maintask.started,maintask.stopped,key_resp_2.keys,key_resp_2.corr,key_resp_2.rt,key_resp_2.duration,targ_click.x,targ_click.y,targ_click.leftButton,targ_click.midButton,targ_click.rightButton,targ_click.time,targ_click.clicked_name,ITI.started,ITI.stopped,probe.started,probe.stopped,click_probe.x,click_probe.y,click_probe.leftButton,click_probe.midButton,click_probe.rightButton,click_probe.time,click_probe.clicked_name,key_resp_probe.keys,Break.started,Break.stopped,break_done_touch.x,break_done_touch.y,break_done_touch.leftButton,break_done_touch.midButton,break_done_touch.rightButton,break_done_keyboard.keys,list1_trials.thisRepN,list1_trials.thisTrialN,list1_trials.thisN,list1_trials.thisIndex,list1_trials.ran,list_id,item_type,string,font,stim_file,key_resp_probe.rt,key_resp_probe.duration,break_done_touch.clicked_name,End.started,End.stopped
list1,,0.4223,0.4223,32080,001,2025-10-19_12h26.55.434,HW_LDT_1,2024.2.4,MacIntel,59.88023952,,,,,,,,,,,,,,,,,,,,,,,,,,,,,,,,,,,,,,,,,,,,,,,,,,,,,,,,,,,,,,,,,,,,,,,,,,,,,,,,,,,,,,,,,,,,,,,,,,,,,,,,,,,,,,,,,,,,,,,
,,,,32080,001,2025-10-19_12h26.55.434,HW_LDT_1,2024.2.4,MacIntel,59.88023952,0.4295,34.5793,,-0.083705964,-0.38601316,1,0,0,instr_done_button,0,0,0,0,1,1,instructions,"INSTRUCTIONS
At the start of each trial, look at the plus sign  (+) in the center of the screen.  This tells you that a trial is about to begin and where to look. Second, the plus sign will disappear and a string of letters will appear. Your task is to determine if the string of letters is a word or not. If the item is a word press the M key (on keyboard)  or touch the word button (phone/tablet).  If the item is not a word,  press the  Z key (on keyboard)  or touch the nonword button (on phone/tablet). The items will be presented for a short time. 
Press the space bar or touch  continue.",0,,,,,,,,,,,,,,,,,,,,,,,,,,,,,,,,,,,,,,,,,,,,,,,,,,,,,,,,,,,,,,,,,,,,,,,,,,,,,,,,,,,,,,,,,,,,,,,,,,,,,
,,,,32080,001,2025-10-19_12h26.55.434,HW_LDT_1,2024.2.4,MacIntel,59.88023952,34.5817,38.899,space,-0.083705964,-0.38601316,0,0,0,,0,1,1,1,1,2,instructions,"If your device has a keyboard, press the 'Z' key for nonwords and the 'M' key for words.





Press the space bar or touch the button below to continue.",0,keyboard-example.gif,4.2817,,,,,,,,,,,,,,,,,,,,,,,,,,,,,,,,,,,,,,,,,,,,,,,,,,,,,,,,,,,,,,,,,,,,,,,,,,,,,,,,,,,,,,,,,,,,,,,,,,,
,,,,32080,001,2025-10-19_12h26.55.434,HW_LDT_1,2024.2.4,MacIntel,59.88023952,38.9003,44.7446,space,-0.083705964,-0.38601316,0,0,0,,0,2,2,2,1,3,instructions,"If you are using a touchscreen only device, use the buttons on the screen. Do not use the mouse.





Press the space bar or touch the button below to continue.",0,touchscreen-example.gif,5.8101,,,,,,,,,,,,,,,,,,,,,,,,,,,,,,,,,,,,,,,,,,,,,,,,,,,,,,,,,,,,,,,,,,,,,,,,,,,,,,,,,,,,,,,,,,,,,,,,,,,
,,,,32080,001,2025-10-19_12h26.55.434,HW_LDT_1,2024.2.4,MacIntel,59.88023952,44.7468,63.1957,space,-0.083705964,-0.387020539,0,0,0,,0,3,3,3,1,4,instructions,"It is very important that you respond as quickly and accurately as possible, as each letter string will only be on the screen for two seconds. If you do not respond within this time, the message 'Too slow!' will be displayed and the experiment will progress to the next letter string. The first 20 trials will be practice trials and you will receive feedback on your answers. 

Press the space bar or touch the button below to start the practice trials.",0,,18.4192,,,,,,,,,,,,,,,,,,,,,,,,,,,,,,,,,,,,,,,,,,,,,,,,,,,,,,,,,,,,,,,,,,,,,,,,,,,,,,,,,,,,,,,,,,,,,,,,,,,
,,,,32080,001,2025-10-19_12h26.55.434,HW_LDT_1,2024.2.4,MacIntel,59.88023952,,,,,,,,,,,,,,,,,,,,,,63.2254,63.3954,63.3957,63.8955,63.896,66.7957,z,1,2.8806,,[],[],[],[],[],[],[],2.8806,1,66.7961,67.2955,0,0,0,12,1,1013,NW,UN,33,adveil,SPRINY,z,,,,,,,,,,,,,,,,,,,,,,,,,,,,,,,,,,,,,,,,,,,,,,,,,,,,,,,,,,,,,,,,,
,,,,32080,001,2025-10-19_12h26.55.434,HW_LDT_1,2024.2.4,MacIntel,59.88023952,,,,,,,,,,,,,,,,,,,,,,67.2976,67.4953,67.4953,67.9953,67.9964,69.0788,m,1,1.0605,,[],[],[],[],[],[],[],1.0605,1,69.079,69.5787,0,1,1,5,1,1006,WORD,UN,33,frenzy,OBTAIN,m,,,,,,,,,,,,,,,,,,,,,,,,,,,,,,,,,,,,,,,,,,,,,,,,,,,,,,,,,,,,,,,,,
,,,,32080,001,2025-10-19_12h26.55.434,HW_LDT_1,2024.2.4,MacIntel,59.88023952,,,,,,,,,,,,,,,,,,,,,,69.5809,69.7785,69.7786,70.2785,70.2799,71.4619,z,1,1.1654,,[],[],[],[],[],[],[],1.1654,1,71.4621,71.9609,0,2,2,8,1,1009,NW,"ID",33,aslert,ASLERT,z,,,,,,,,,,,,,,,,,,,,,,,,,,,,,,,,,,,,,,,,,,,,,,,,,,,,,,,,,,,,,,,,,
,,,,32080,001,2025-10-19_12h26.55.434,HW_LDT_1,2024.2.4,MacIntel,59.88023952,,,,,,,,,,,,,,,,,,,,,,71.9625,72.1609,72.161,72.6619,72.6631,73.4118,z,1,0.7222,,[],[],[],[],[],[],[],0.7222,1,73.4119,73.9123,0,3,3,15,1,1016,NW,UN,16,mushed,WHAISE,z,,,,,,,,,,,,,,,,,,,,,,,,,,,,,,,,,,,,,,,,,,,,,,,,,,,,,,,,,,,,,,,,,
,,,,32080,001,2025-10-19_12h26.55.434,HW_LDT_1,2024.2.4,MacIntel,59.88023952,,,,,,,,,,,,,,,,,,,,,,73.914,74.1118,74.1119,74.612,74.6132,75.3286,z,1,0.6962,,[],[],[],[],[],[],[],0.6962,1,75.3288,75.8282,0,4,4,13,1,1014,NW,UN,33,winfer,ROUPET,z,,,,,,,,,,,,,,,,,,,,,,,,,,,,,,,,,,,,,,,,,,,,,,,,,,,,,,,,,,,,,,,,,
,,,,32080,001,2025-10-19_12h26.55.434,HW_LDT_1,2024.2.4,MacIntel,59.88023952,,,,,,,,,,,,,,,,,,,,,,75.83,76.0285,76.0286,76.5276,76.529,77.2122,m,1,0.6628,,[],[],[],[],[],[],[],0.6628,1,77.2123,77.7121,0,5,5,1,1,1002,WORD,"ID",33,adjust,ADJUST,m,,,,,,,,,,,,,,,,,,,,,,,,,,,,,,,,,,,,,,,,,,,,,,,,,,,,,,,,,,,,,,,,,
,,,,32080,001,2025-10-19_12h26.55.434,HW_LDT_1,2024.2.4,MacIntel,59.88023952,,,,,,,,,,,,,,,,,,,,,,77.7137,77.9119,77.912,78.4119,78.4129,79.0953,z,1,0.6717,,[],[],[],[],[],[],[],0.6717,1,79.0955,79.5951,0,6,6,11,1,1012,NW,"ID",16,rashet,RASHET,z,,,,,,,,,,,,,,,,,,,,,,,,,,,,,,,,,,,,,,,,,,,,,,,,,,,,,,,,,,,,,,,,,
,,,,32080,001,2025-10-19_12h26.55.434,HW_LDT_1,2024.2.4,MacIntel,59.88023952,,,,,,,,,,,,,,,,,,,,,,79.5965,79.7954,79.7954,80.2952,80.2965,81.0954,z,1,0.7826,,[],[],[],[],[],[],[],0.7826,1,81.0955,81.5953,0,7,7,9,1,1010,NW,"ID",33,fariny,FARINY,z,,,,,,,,,,,,,,,,,,,,,,,,,,,,,,,,,,,,,,,,,,,,,,,,,,,,,,,,,,,,,,,,,
,,,,32080,001,2025-10-19_12h26.55.434,HW_LDT_1,2024.2.4,MacIntel,59.88023952,,,,,,,,,,,,,,,,,,,,,,81.5969,81.7953,81.7954,82.2953,82.2966,82.8953,m,1,0.5755,,[],[],[],[],[],[],[],0.5755,1,82.8954,83.3953,0,8,8,4,1,1005,WORD,UN,33,abound,SQUEAK,m,,,,,,,,,,,,,,,,,,,,,,,,,,,,,,,,,,,,,,,,,,,,,,,,,,,,,,,,,,,,,,,,,
,,,,32080,001,2025-10-19_12h26.55.434,HW_LDT_1,2024.2.4,MacIntel,59.88023952,,,,,,,,,,,,,,,,,,,,,,83.3969,83.5942,83.5944,84.0945,84.0956,84.878,m,1,0.7639,,[],[],[],[],[],[],[],0.7639,1,84.8781,85.3788,0,9,9,0,1,1001,WORD,"ID",33,utopia,UTOPIA,m,,,,,,,,,,,,,,,,,,,,,,,,,,,,,,,,,,,,,,,,,,,,,,,,,,,,,,,,,,,,,,,,,
,,,,32080,001,2025-10-19_12h26.55.434,HW_LDT_1,2024.2.4,MacIntel,59.88023952,,,,,,,,,,,,,,,,,,,,,,85.3804,85.5777,85.5777,86.0776,86.0785,88.2444,z,1,2.1503,,[],[],[],[],[],[],[],2.1503,1,88.2446,88.7453,0,10,10,10,1,1011,NW,"ID",16,inlade,INLADE,z,,,,,,,,,,,,,,,,,,,,,,,,,,,,,,,,,,,,,,,,,,,,,,,,,,,,,,,,,,,,,,,,,
,,,,32080,001,2025-10-19_12h26.55.434,HW_LDT_1,2024.2.4,MacIntel,59.88023952,,,,,,,,,,,,,,,,,,,,,,88.7471,88.9452,88.9453,89.4452,89.4464,90.0612,m,1,0.6035,,[],[],[],[],[],[],[],0.6035,1,90.0614,90.561,0,11,11,2,1,1003,WORD,"ID",16,almond,ALMOND,m,,,,,,,,,,,,,,,,,,,,,,,,,,,,,,,,,,,,,,,,,,,,,,,,,,,,,,,,,,,,,,,,,
,,,,32080,001,2025-10-19_12h26.55.434,HW_LDT_1,2024.2.4,MacIntel,59.88023952,,,,,,,,,,,,,,,,,,,,,,90.5626,90.7611,90.7612,91.2621,91.2631,92.3612,z,1,1.0868,,[],[],[],[],[],[],[],1.0868,1,92.3613,92.8621,0,12,12,14,1,1015,NW,UN,16,miaber,THRALE,z,,,,,,,,,,,,,,,,,,,,,,,,,,,,,,,,,,,,,,,,,,,,,,,,,,,,,,,,,,,,,,,,,
,,,,32080,001,2025-10-19_12h26.55.434,HW_LDT_1,2024.2.4,MacIntel,59.88023952,,,,,,,,,,,,,,,,,,,,,,92.8639,93.062,93.0621,93.5611,93.5624,94.1954,m,1,0.6121,,[],[],[],[],[],[],[],0.6121,1,94.1956,94.6944,0,13,13,3,1,1004,WORD,"ID",16,matrix,MATRIX,m,,,,,,,,,,,,,,,,,,,,,,,,,,,,,,,,,,,,,,,,,,,,,,,,,,,,,,,,,,,,,,,,,
,,,,32080,001,2025-10-19_12h26.55.434,HW_LDT_1,2024.2.4,MacIntel,59.88023952,,,,,,,,,,,,,,,,,,,,,,94.696,94.8953,94.8953,95.3949,95.3961,96.2285,m,1,0.8128,,[],[],[],[],[],[],[],0.8128,1,96.2285,96.7285,0,14,14,7,1,1008,WORD,UN,16,hurdle,VOLUME,m,,,,,,,,,,,,,,,,,,,,,,,,,,,,,,,,,,,,,,,,,,,,,,,,,,,,,,,,,,,,,,,,,
,,,,32080,001,2025-10-19_12h26.55.434,HW_LDT_1,2024.2.4,MacIntel,59.88023952,,,,,,,,,,,,,,,,,,,,,,96.73,96.9287,96.9287,97.4287,97.4297,98.4954,m,1,1.0417,,[],[],[],[],[],[],[],1.0417,1,98.4956,98.9945,0,15,15,6,1,1007,WORD,UN,16,tropic,ZOMBIE,m,,,,,,,,,,,,,,,,,,,,,,,,,,,,,,,,,,,,,,,,,,,,,,,,,,,,,,,,,,,,,,,,,
,,,,32080,001,2025-10-19_12h26.55.434,HW_LDT_1,2024.2.4,MacIntel,59.88023952,,,,,,,,,,,,,,,1,end_of_practice,"You have completed the practice trials. During the experimental trials, you will not receive feedback. On some trials you will be asked to report whether the item you just saw was in cursive or print. 
Before you begin, please ensure that you are in a comfortable and quiet location and will not be disturbed for about 15 minutes, as we cannot use your data if you do not complete all the trials. 
 When you are ready to start the experimental trials, please press space or touch the button below.",,,,,,,,,,,,,,,,,,,,,,,,,,,,,,,,,,,,,,99.0008,113.9289,space,14.9095,,-0.083705964,-0.387020539,0,0,0,0,0,0,0,1,,,,,,,,,,,,,,,,,,,,,,,,,,,,,,,,,,,,,,,,,,,,,,,,,,
,,,,32080,001,2025-10-19_12h26.55.434,HW_LDT_1,2024.2.4,MacIntel,59.88023952,,,,,,,,,,,,,,,,,,,,,,113.9405,114.1287,114.1288,114.6278,,,,,,,,,,,,,,2.0196,1,,,,,,,,,,,,,,m,,,,,,,,,,,,,,,,1,0,114.6297,116.6617,m,1,2.0196,,[],[],[],[],[],[],[],116.662,118.6615,118.6618,118.6648,[],[],[],[],[],[],[],,118.665,118.6665,-0.083705964,-0.387020539,0,0,0,,0,0,0,124,1,1,word,NUMERICAL,print,numerical_p.png,,,,,
,,,,32080,001,2025-10-19_12h26.55.434,HW_LDT_1,2024.2.4,MacIntel,59.88023952,,,,,,,,,,,,,,,,,,,,,,118.6674,118.8612,118.8612,119.3613,,,,,,,,,,,,,,0.7204,0,,,,,,,,,,,,,,z,,,,,,,,,,,,,,,,2,0,119.3622,120.0947,m,0,0.7204,,[],[],[],[],[],[],[],120.0949,122.0955,122.0955,122.0958,[],[],[],[],[],[],[],,122.0959,122.096,-0.083705964,-0.387020539,0,0,0,,0,1,1,42,1,1,TL,befenit,print,befenit_p.png,,,,,
,,,,32080,001,2025-10-19_12h26.55.434,HW_LDT_1,2024.2.4,MacIntel,59.88023952,,,,,,,,,,,,,,,,,,,,,,122.0975,122.2956,122.2957,122.7955,,,,,,,,,,,,,,4.2032,0,,,,,,,,,,,,,,m,,,,,,,,,,,,,,,,3,0,122.796,127.0122,z,0,4.2032,,[],[],[],[],[],[],[],127.0123,129.0122,129.0123,129.0126,[],[],[],[],[],[],[],,129.0126,129.0128,-0.083705964,-0.387020539,0,0,0,,0,2,2,110,1,1,word,HERITAGE,cursive,heritage_c.png,,,,,
,,,,32080,001,2025-10-19_12h26.55.434,HW_LDT_1,2024.2.4,MacIntel,59.88023952,,,,,,,,,,,,,,,,,,,,,,129.0142,129.2123,129.2124,129.7121,,,,,,,,,,,,,,1.5358,1,,,,,,,,,,,,,,m,,,,,,,,,,,,,,,,4,0,129.7129,131.2622,m,1,1.5358,,[],[],[],[],[],[],[],131.2624,133.2616,133.2616,133.2619,[],[],[],[],[],[],[],,133.2621,133.2622,-0.083705964,-0.387020539,0,0,0,,0,3,3,94,1,1,word,CLINICAL,cursive,clinical_c.png,,,,,
,,,,32080,001,2025-10-19_12h26.55.434,HW_LDT_1,2024.2.4,MacIntel,59.88023952,,,,,,,,,,,,,,,,,,,,,,133.2634,133.4615,133.4616,133.9621,,,,,,,,,,,,,,2.0036,1,,,,,,,,,,,,,,z,,,,,,,,,,,,,,,,5,1,133.9628,135.9779,z,1,2.0036,,[],[],[],[],[],[],[],135.978,137.9789,137.979,144.3793,[],[],[],[],[],[],[],z,144.3793,144.3796,-0.083705964,-0.387020539,0,0,0,,0,4,4,4,1,1,RL,carminal,print,carminal_p.png,6.3981,,,,
,,,,32080,001,2025-10-19_12h26.55.434,HW_LDT_1,2024.2.4,MacIntel,59.88023952,,,,,,,,,,,,,,,,,,,,,,144.3808,144.5789,144.579,145.0789,,,,,,,,,,,,,,2.6129,1,,,,,,,,,,,,,,z,,,,,,,,,,,,,,,,6,0,145.0797,147.6956,z,1,2.6129,,[],[],[],[],[],[],[],147.6958,149.6954,149.6955,149.696,[],[],[],[],[],[],[],,149.6961,149.6962,-0.083705964,-0.387020539,0,0,0,,0,5,5,69,1,1,TL,radiply,cursive,radiply_c.png,,,,,
,,,,32080,001,2025-10-19_12h26.55.434,HW_LDT_1,2024.2.4,MacIntel,59.88023952,,,,,,,,,,,,,,,,,,,,,,149.6976,149.8957,149.8957,150.3958,,,,,,,,,,,,,,1.1539,1,,,,,,,,,,,,,,m,,,,,,,,,,,,,,,,7,0,150.3966,151.5624,m,1,1.1539,,[],[],[],[],[],[],[],151.5626,153.5623,153.5624,153.5629,[],[],[],[],[],[],[],,153.5629,153.5633,-0.083705964,-0.387020539,0,0,0,,0,6,6,90,1,1,word,CAPITAL,print,capital_p.png,,,,,
,,,,32080,001,2025-10-19_12h26.55.434,HW_LDT_1,2024.2.4,MacIntel,59.88023952,,,,,,,,,,,,,,,,,,,,,,153.5645,153.7622,153.7623,154.2622,,,,,,,,,,,,,,0.6206,1,,,,,,,,,,,,,,m,,,,,,,,,,,,,,,,8,0,154.2629,154.8957,m,1,0.6206,,[],[],[],[],[],[],[],154.8958,156.8957,156.8957,156.8959,[],[],[],[],[],[],[],,156.896,156.8962,-0.083705964,-0.387020539,0,0,0,,0,7,7,99,1,1,word,DEBATE,print,debate_p.png,,,,,
,,,,32080,001,2025-10-19_12h26.55.434,HW_LDT_1,2024.2.4,MacIntel,59.88023952,,,,,,,,,,,,,,,,,,,,,,156.8976,157.0956,157.0957,157.5955,,,,,,,,,,,,,,3.0041,0,,,,,,,,,,,,,,m,,,,,,,,,,,,,,,,9,0,157.5962,160.6126,z,0,3.0041,,[],[],[],[],[],[],[],160.6128,162.6123,162.6125,162.6129,[],[],[],[],[],[],[],,162.6129,162.6132,-0.083705964,-0.387020539,0,0,0,,0,8,8,88,1,1,word,CAMERA,cursive,camera_c.png,,,,,
,,,,32080,001,2025-10-19_12h26.55.434,HW_LDT_1,2024.2.4,MacIntel,59.88023952,,,,,,,,,,,,,,,,,,,,,,162.6149,162.8123,162.8124,163.3123,,,,,,,,,,,,,,5.1805,1,,,,,,,,,,,,,,m,,,,,,,,,,,,,,,,10,0,163.3132,168.4959,m,1,5.1805,,[],[],[],[],[],[],[],168.496,170.4957,170.4958,170.496,[],[],[],[],[],[],[],,170.496,170.4962,-0.083956746,-0.387020539,0,0,0,,0,9,9,151,1,1,word,SPECIFIC,cursive,specific_c.png,,,,,
,,,,32080,001,2025-10-19_12h26.55.434,HW_LDT_1,2024.2.4,MacIntel,59.88023952,,,,,,,,,,,,,,,,,,,,,,170.4978,170.6957,170.6957,171.1958,,,,,,,,,,,,,,2.4486,1,,,,,,,,,,,,,,z,,,,,,,,,,,,,,,,11,0,171.1965,173.6463,z,1,2.4486,,[],[],[],[],[],[],[],173.6465,175.6457,175.6457,175.6461,[],[],[],[],[],[],[],,175.6461,175.6464,-0.083956746,-0.387020539,0,0,0,,0,10,10,23,1,1,RL,potugar,cursive,potugar_c.png,,,,,
,,,,32080,001,2025-10-19_12h26.55.434,HW_LDT_1,2024.2.4,MacIntel,59.88023952,,,,,,,,,,,,,,,,,,,,,,175.6479,175.8458,175.8458,176.3457,,,,,,,,,,,,,,1.763,0,,,,,,,,,,,,,,z,,,,,,,,,,,,,,,,12,0,176.3464,178.1126,m,0,1.763,,[],[],[],[],[],[],[],178.1126,180.1122,180.1122,180.1123,[],[],[],[],[],[],[],,180.1123,180.1124,-0.083956746,-0.387020539,0,0,0,,0,11,11,61,1,1,TL,mecidine,cursive,mecidine_c.png,,,,,
,,,,32080,001,2025-10-19_12h26.55.434,HW_LDT_1,2024.2.4,MacIntel,59.88023952,,,,,,,,,,,,,,,,,,,,,,180.1132,180.3125,180.3125,180.8125,,,,,,,,,,,,,,1.1534,1,,,,,,,,,,,,,,m,,,,,,,,,,,,,,,,13,0,180.8131,181.9791,m,1,1.1534,,[],[],[],[],[],[],[],181.9793,183.979,183.979,183.9792,[],[],[],[],[],[],[],,183.9792,183.9793,-0.083956746,-0.387020539,0,0,0,,0,12,12,98,1,1,word,CRIMINAL,print,criminal_p.png,,,,,
,,,,32080,001,2025-10-19_12h26.55.434,HW_LDT_1,2024.2.4,MacIntel,59.88023952,,,,,,,,,,,,,,,,,,,,,,183.98,184.1793,184.1793,184.679,,,,,,,,,,,,,,4.9372,1,,,,,,,,,,,,,,m,,,,,,,,,,,,,,,,14,0,184.6798,189.6292,m,1,4.9372,,[],[],[],[],[],[],[],189.6292,191.6292,191.6292,191.6295,[],[],[],[],[],[],[],,191.6296,191.6298,-0.08343818,-0.38726707,0,0,0,,0,13,13,119,1,1,word,MEMORY,cursive,memory_c.png,,,,,
,,,,32080,001,2025-10-19_12h26.55.434,HW_LDT_1,2024.2.4,MacIntel,59.88023952,,,,,,,,,,,,,,,,,,,,,,191.631,191.8291,191.8292,192.329,,,,,,,,,,,,,,1.5735,1,,,,,,,,,,,,,,z,,,,,,,,,,,,,,,,15,0,192.3296,193.9126,z,1,1.5735,,[],[],[],[],[],[],[],193.9127,195.9124,195.9126,195.9128,[],[],[],[],[],[],[],,195.9128,195.913,-0.080777339,-0.387466846,0,0,0,,0,14,14,78,1,1,TL,vecolity,print,vecolity_p.png,,,,,
,,,,32080,001,2025-10-19_12h26.55.434,HW_LDT_1,2024.2.4,MacIntel,59.88023952,,,,,,,,,,,,,,,,,,,,,,195.9144,196.1126,196.1126,196.6123,,,,,,,,,,,,,,1.0309,1,,,,,,,,,,,,,,z,,,,,,,,,,,,,,,,16,0,196.6129,197.646,z,1,1.0309,,[],[],[],[],[],[],[],197.6461,199.6458,199.646,199.6462,[],[],[],[],[],[],[],,199.6463,199.6465,-0.081032372,-0.387216064,0,0,0,,0,15,15,14,1,1,RL,lofase,print,lofase_p.png,,,,,
,,,,32080,001,2025-10-19_12h26.55.434,HW_LDT_1,2024.2.4,MacIntel,59.88023952,,,,,,,,,,,,,,,,,,,,,,199.6477,199.8462,199.8463,200.3458,,,,,,,,,,,,,,1.3372,1,,,,,,,,,,,,,,z,,,,,,,,,,,,,,,,17,0,200.3465,201.6959,z,1,1.3372,,[],[],[],[],[],[],[],201.6961,203.6959,203.696,203.6962,[],[],[],[],[],[],[],,203.6963,203.6965,-0.082303285,-0.386102421,0,0,0,,0,16,16,60,1,1,TL,manire,print,manire_p.png,,,,,
,,,,32080,001,2025-10-19_12h26.55.434,HW_LDT_1,2024.2.4,MacIntel,59.88023952,,,,,,,,,,,,,,,,,,,,,,203.6977,203.8955,203.8955,204.3958,,,,,,,,,,,,,,1.1373,1,,,,,,,,,,,,,,m,,,,,,,,,,,,,,,,18,0,204.3966,205.546,m,1,1.1373,,[],[],[],[],[],[],[],205.5461,207.5459,207.546,207.5463,[],[],[],[],[],[],[],,207.5463,207.5464,-0.083659208,-0.385014282,0,0,0,,0,17,17,136,1,1,word,RADICAL,print,radical_p.png,,,,,
,,,,32080,001,2025-10-19_12h26.55.434,HW_LDT_1,2024.2.4,MacIntel,59.88023952,,,,,,,,,,,,,,,,,,,,,,207.5479,207.7459,207.746,208.246,,,,,,,,,,,,,,1.2204,1,,,,,,,,,,,,,,m,,,,,,,,,,,,,,,,19,0,208.2467,209.4792,m,1,1.2204,,[],[],[],[],[],[],[],209.4792,211.4793,211.4793,211.4796,[],[],[],[],[],[],[],,211.4797,211.4799,-0.083659208,-0.385014282,0,0,0,,0,18,18,116,1,1,word,MARGINAL,print,marginal_p.png,,,,,
,,,,32080,001,2025-10-19_12h26.55.434,HW_LDT_1,2024.2.4,MacIntel,59.88023952,,,,,,,,,,,,,,,,,,,,,,211.4813,211.6793,211.6793,212.1793,,,,,,,,,,,,,,1.9703,0,,,,,,,,,,,,,,m,,,,,,,,,,,,,,,,20,0,212.18,214.1628,z,0,1.9703,,[],[],[],[],[],[],[],214.1629,216.1627,216.1628,216.1631,[],[],[],[],[],[],[],,216.1632,216.1633,-0.083659208,-0.385014282,0,0,0,,0,19,19,146,1,1,word,RETIRE,cursive,retire_c.png,,,,,
,,,,32080,001,2025-10-19_12h26.55.434,HW_LDT_1,2024.2.4,MacIntel,59.88023952,,,,,,,,,,,,,,,,,,,,,,216.1648,216.3627,216.3627,216.8627,,,,,,,,,,,,,,1.6875,1,,,,,,,,,,,,,,m,,,,,,,,,,,,,,,,21,0,216.8634,218.5627,m,1,1.6875,,[],[],[],[],[],[],[],218.5628,220.5627,220.5628,220.563,[],[],[],[],[],[],[],,220.5631,220.5632,-0.083659208,-0.385014282,0,0,0,,0,20,20,128,1,1,word,PACIFIC,print,pacific_p.png,,,,,
,,,,32080,001,2025-10-19_12h26.55.434,HW_LDT_1,2024.2.4,MacIntel,59.88023952,,,,,,,,,,,,,,,,,,,,,,220.5645,220.7627,220.7627,221.2627,,,,,,,,,,,,,,4.2366,1,,,,,,,,,,,,,,m,,,,,,,,,,,,,,,,22,0,221.2634,225.5127,m,1,4.2366,,[],[],[],[],[],[],[],225.5128,227.5127,227.5127,227.513,[],[],[],[],[],[],[],,227.513,227.5131,-0.083659208,-0.385014282,0,0,0,,0,21,21,155,1,1,word,STRATEGY,cursive,strategy_c.png,,,,,
,,,,32080,001,2025-10-19_12h26.55.434,HW_LDT_1,2024.2.4,MacIntel,59.88023952,,,,,,,,,,,,,,,,,,,,,,227.5145,227.7119,227.7119,228.2126,,,,,,,,,,,,,,2.0484,1,,,,,,,,,,,,,,z,,,,,,,,,,,,,,,,23,1,228.2132,230.2632,z,1,2.0484,,[],[],[],[],[],[],[],230.2634,232.2628,232.2628,250.2128,[],[],[],[],[],[],[],m,250.213,250.2132,-0.079672198,-0.387131053,0,0,0,,0,22,22,11,1,1,RL,elacodate,print,elacodate_p.png,17.9388,,,,
,,,,32080,001,2025-10-19_12h26.55.434,HW_LDT_1,2024.2.4,MacIntel,59.88023952,,,,,,,,,,,,,,,,,,,,,,250.2149,250.4126,250.4126,250.9134,,,,,,,,,,,,,,2.5192,1,,,,,,,,,,,,,,z,,,,,,,,,,,,,,,,24,1,250.9148,253.4462,z,1,2.5192,,[],[],[],[],[],[],[],253.4463,255.4461,255.4462,257.1796,[],[],[],[],[],[],[],z,257.1797,257.1799,-0.080437296,-0.387131053,0,0,0,,0,23,23,77,1,1,TL,tritube,cursive,tritube_c.png,1.7211,,,,
,,,,32080,001,2025-10-19_12h26.55.434,HW_LDT_1,2024.2.4,MacIntel,59.88023952,,,,,,,,,,,,,,,,,,,,,,257.181,257.3793,257.3794,257.8795,,,,,,,,,,,,,,2.4901,1,,,,,,,,,,,,,,z,,,,,,,,,,,,,,,,25,0,257.8802,260.3796,z,1,2.4901,,[],[],[],[],[],[],[],260.3797,262.3795,262.3795,262.3798,[],[],[],[],[],[],[],,262.3798,262.3799,-0.079935732,-0.387131053,0,0,0,,0,24,24,68,1,1,TL,prosopal,cursive,prosopal_c.png,,,,,
,,,,32080,001,2025-10-19_12h26.55.434,HW_LDT_1,2024.2.4,MacIntel,59.88023952,,,,,,,,,,,,,,,,,,,,,,262.381,262.5796,262.5797,263.0784,,,,,,,,,,,,,,0.8763,1,,,,,,,,,,,,,,m,,,,,,,,,,,,,,,,26,0,263.0792,263.9629,m,1,0.8763,,[],[],[],[],[],[],[],263.963,265.9628,265.9629,265.9632,[],[],[],[],[],[],[],,265.9632,265.9633,-0.079404414,-0.387394587,0,0,0,,0,25,25,133,1,1,word,PROVIDE,print,provide_p.png,,,,,
,,,,32080,001,2025-10-19_12h26.55.434,HW_LDT_1,2024.2.4,MacIntel,59.88023952,,,,,,,,,,,,,,,,,,,,,,265.9648,266.1629,266.163,266.6629,,,,,,,,,,,,,,8.9232,1,,,,,,,,,,,,,,z,,,,,,,,,,,,,,,,27,0,266.6636,275.5965,z,1,8.9232,,[],[],[],[],[],[],[],275.5966,277.5962,277.5964,277.5968,[],[],[],[],[],[],[],,277.5969,277.597,-0.07718563,-0.390119185,0,0,0,,0,26,26,49,1,1,TL,clicinal,cursive,clicinal_c.png,,,,,
,,,,32080,001,2025-10-19_12h26.55.434,HW_LDT_1,2024.2.4,MacIntel,59.88023952,,,,,,,,,,,,,,,,,,,,,,277.5989,277.7963,277.7964,278.2963,,,,,,,,,,,,,,1.2038,1,,,,,,,,,,,,,,m,,,,,,,,,,,,,,,,28,0,278.2972,279.513,m,1,1.2038,,[],[],[],[],[],[],[],279.513,281.513,281.513,281.5132,[],[],[],[],[],[],[],,281.5132,281.5134,-0.07718563,-0.390119185,0,0,0,,0,27,27,107,1,1,word,EVIDENT,print,evident_p.png,,,,,
,,,,32080,001,2025-10-19_12h26.55.434,HW_LDT_1,2024.2.4,MacIntel,59.88023952,,,,,,,,,,,,,,,,,,,,,,281.5148,281.7131,281.7131,282.2129,,,,,,,,,,,,,,0.7908,1,,,,,,,,,,,,,,m,,,,,,,,,,,,,,,,29,0,282.2136,283.013,m,1,0.7908,,[],[],[],[],[],[],[],283.0131,285.013,285.013,285.0133,[],[],[],[],[],[],[],,285.0133,285.0135,-0.07718563,-0.390119185,0,0,0,,0,28,28,114,1,1,word,LOCATE,print,locate_p.png,,,,,
,,,,32080,001,2025-10-19_12h26.55.434,HW_LDT_1,2024.2.4,MacIntel,59.88023952,,,,,,,,,,,,,,,,,,,,,,285.0149,285.213,285.2133,285.7129,,,,,,,,,,,,,,1.9234,1,,,,,,,,,,,,,,z,,,,,,,,,,,,,,,,30,0,285.7139,287.6463,z,1,1.9234,,[],[],[],[],[],[],[],287.6464,289.6463,289.6464,289.6466,[],[],[],[],[],[],[],,289.6466,289.6467,-0.07718563,-0.390119185,0,0,0,,0,29,29,55,1,1,TL,fornute,print,fornute_p.png,,,,,
,,,,32080,001,2025-10-19_12h26.55.434,HW_LDT_1,2024.2.4,MacIntel,59.88023952,,,,,,,,,,,,,,,,,,,,,,289.6481,289.8463,289.8463,290.3464,,,,,,,,,,,,,,1.4057,1,,,,,,,,,,,,,,m,,,,,,,,,,,,,,,,31,0,290.347,291.7631,m,1,1.4057,,[],[],[],[],[],[],[],291.7632,293.7623,293.7623,293.7625,[],[],[],[],[],[],[],,293.7626,293.7626,-0.07718563,-0.390119185,0,0,0,,0,30,30,138,1,1,word,REFUSAL,print,refusal_p.png,,,,,
,,,,32080,001,2025-10-19_12h26.55.434,HW_LDT_1,2024.2.4,MacIntel,59.88023952,,,,,,,,,,,,,,,,,,,,,,293.7643,293.963,293.9631,294.463,,,,,,,,,,,,,,2.1198,1,,,,,,,,,,,,,,z,,,,,,,,,,,,,,,,32,1,294.4637,296.5966,z,1,2.1198,,[],[],[],[],[],[],[],296.5966,298.5963,298.5964,299.6464,[],[],[],[],[],[],[],z,299.6465,299.6466,-0.07718563,-0.390119185,0,0,0,,0,31,31,35,1,1,RL,senvilent,cursive,senvilent_c.png,1.0418,,,,
,,,,32080,001,2025-10-19_12h26.55.434,HW_LDT_1,2024.2.4,MacIntel,59.88023952,,,,,,,,,,,,,,,,,,,,,,299.6478,299.8463,299.8463,300.3464,,,,,,,,,,,,,,7.3367,1,,,,,,,,,,,,,,m,,,,,,,,,,,,,,,,33,0,300.3471,307.6965,m,1,7.3367,,[],[],[],[],[],[],[],307.6967,309.6965,309.6966,309.6967,[],[],[],[],[],[],[],,309.6968,309.6969,-0.07718563,-0.390119185,0,0,0,,0,32,32,102,1,1,word,DENSITY,cursive,density_c.png,,,,,
,,,,32080,001,2025-10-19_12h26.55.434,HW_LDT_1,2024.2.4,MacIntel,59.88023952,,,,,,,,,,,,,,,,,,,,,,309.6982,309.8965,309.8965,310.3964,,,,,,,,,,,,,,4.2292,1,,,,,,,,,,,,,,z,,,,,,,,,,,,,,,,34,1,310.3969,314.6291,z,1,4.2292,,[],[],[],[],[],[],[],314.6291,316.6299,316.6299,317.5806,[],[],[],[],[],[],[],z,317.5807,317.5808,-0.076688316,-0.390119185,0,0,0,,0,33,33,1,1,1,RL,adnicory,cursive,adnicory_c.png,0.9499,,,,
,,,,32080,001,2025-10-19_12h26.55.434,HW_LDT_1,2024.2.4,MacIntel,59.88023952,,,,,,,,,,,,,,,,,,,,,,317.5822,317.78,317.78,318.2797,,,,,,,,,,,,,,6.9705,1,,,,,,,,,,,,,,z,,,,,,,,,,,,,,,,35,0,318.2805,325.2632,z,1,6.9705,,[],[],[],[],[],[],[],325.2633,327.2632,327.2632,327.2634,[],[],[],[],[],[],[],,327.2635,327.2636,-0.076688316,-0.390119185,0,0,0,,0,34,34,53,1,1,TL,dentisy,cursive,dentisy_c.png,,,,,
,,,,32080,001,2025-10-19_12h26.55.434,HW_LDT_1,2024.2.4,MacIntel,59.88023952,,,,,,,,,,,,,,,,,,,,,,327.265,327.4632,327.4633,327.9631,,,,,,,,,,,,,,1.454,1,,,,,,,,,,,,,,m,,,,,,,,,,,,,,,,36,0,327.9637,329.43,m,1,1.454,,[],[],[],[],[],[],[],329.43,331.43,331.4301,331.4303,[],[],[],[],[],[],[],,331.4304,331.4305,-0.076688316,-0.390119185,0,0,0,,0,35,35,139,1,1,word,REGULAR,print,regular_p.png,,,,,
,,,,32080,001,2025-10-19_12h26.55.434,HW_LDT_1,2024.2.4,MacIntel,59.88023952,,,,,,,,,,,,,,,,,,,,,,331.4326,331.6299,331.6299,332.13,,,,,,,,,,,,,,3.7749,1,,,,,,,,,,,,,,z,,,,,,,,,,,,,,,,37,0,332.1307,335.9135,z,1,3.7749,,[],[],[],[],[],[],[],335.9136,337.9132,337.9133,337.9135,[],[],[],[],[],[],[],,337.9136,337.9137,-0.076688316,-0.390119185,0,0,0,,0,36,36,25,1,1,RL,quakity,cursive,quakity_c.png,,,,,
,,,,32080,001,2025-10-19_12h26.55.434,HW_LDT_1,2024.2.4,MacIntel,59.88023952,,,,,,,,,,,,,,,,,,,,,,337.915,338.1135,338.1136,338.6133,,,,,,,,,,,,,,1.4702,1,,,,,,,,,,,,,,m,,,,,,,,,,,,,,,,38,0,338.6141,340.0966,m,1,1.4702,,[],[],[],[],[],[],[],340.0969,342.0967,342.0968,342.097,[],[],[],[],[],[],[],,342.0971,342.0972,-0.076688316,-0.390119185,0,0,0,,0,37,37,106,1,1,word,ELABORATE,print,elaborate_p.png,,,,,
,,,,32080,001,2025-10-19_12h26.55.434,HW_LDT_1,2024.2.4,MacIntel,59.88023952,,,,,,,,,,,,,,,,,,,,,,342.0985,342.2966,342.2966,342.7967,,,,,,,,,,,,,,4.3316,1,,,,,,,,,,,,,,z,,,,,,,,,,,,,,,,39,1,342.7974,347.1304,z,1,4.3316,,[],[],[],[],[],[],[],347.1305,349.1301,349.1301,352.7801,[],[],[],[],[],[],[],z,352.7802,352.7806,-0.076688316,-0.390119185,0,0,0,,0,38,38,73,1,1,TL,ronamtic,cursive,ronamtic_c.png,3.6478,,,,
,,,,32080,001,2025-10-19_12h26.55.434,HW_LDT_1,2024.2.4,MacIntel,59.88023952,,,,,,,,,,,,,,,,,,,,,,352.7823,352.9799,352.98,353.48,,,,,,,,,,,,,,3.7872,1,,,,,,,,,,,,,,m,,,,,,,,,,,,,,,,40,0,353.4807,357.2802,m,1,3.7872,,[],[],[],[],[],[],[],357.2803,359.2801,359.2801,359.2804,[],[],[],[],[],[],[],,359.2804,359.2805,-0.076688316,-0.390119185,0,0,0,,0,39,39,104,1,1,word,DOMINANT,cursive,dominant_c.png,,,,,
,,,,32080,001,2025-10-19_12h26.55.434,HW_LDT_1,2024.2.4,MacIntel,59.88023952,,,,,,,,,,,,,,,,,,,,,,359.282,359.4801,359.4802,359.9801,,,,,,,,,,,,,,4.9789,1,,,,,,,,,,,,,,z,,,,,,,,,,,,,,,,41,0,359.9808,364.9631,z,1,4.9789,,[],[],[],[],[],[],[],364.9631,366.9634,366.9635,366.9637,[],[],[],[],[],[],[],,366.9638,366.9638,-0.076688316,-0.390119185,0,0,0,,0,40,40,64,1,1,TL,orepator,cursive,orepator_c.png,,,,,
,,,,32080,001,2025-10-19_12h26.55.434,HW_LDT_1,2024.2.4,MacIntel,59.88023952,,,,,,,,,,,,,,,,,,,,,,366.9655,367.1634,367.1635,367.6634,,,,,,,,,,,,,,3.5034,0,,,,,,,,,,,,,,m,,,,,,,,,,,,,,,,42,0,367.6644,371.1801,z,0,3.5034,,[],[],[],[],[],[],[],371.1802,373.1801,373.1802,373.1804,[],[],[],[],[],[],[],,373.1804,373.1805,-0.076688316,-0.390119185,0,0,0,,0,41,41,149,1,1,word,SENATOR,cursive,senator_c.png,,,,,
,,,,32080,001,2025-10-19_12h26.55.434,HW_LDT_1,2024.2.4,MacIntel,59.88023952,,,,,,,,,,,,,,,,,,,,,,373.1819,373.38,373.3801,373.8802,,,,,,,,,,,,,,4.607,1,,,,,,,,,,,,,,z,,,,,,,,,,,,,,,,43,0,373.8808,378.4969,z,1,4.607,,[],[],[],[],[],[],[],378.497,380.4968,380.4969,380.4971,[],[],[],[],[],[],[],,380.4971,380.4972,-0.076441785,-0.390119185,0,0,0,,0,42,42,63,1,1,TL,molibe,cursive,molibe_c.png,,,,,
,,,,32080,001,2025-10-19_12h26.55.434,HW_LDT_1,2024.2.4,MacIntel,59.88023952,,,,,,,,,,,,,,,,,,,,,,380.4985,380.6968,380.6968,381.1968,,,,,,,,,,,,,,8.9489,1,,,,,,,,,,,,,,z,,,,,,,,,,,,,,,,44,0,381.1976,390.1477,z,1,8.9489,,[],[],[],[],[],[],[],390.1478,392.147,392.147,392.1472,[],[],[],[],[],[],[],,392.1473,392.1475,-0.076191002,-0.390119185,0,0,0,,0,43,43,67,1,1,TL,pocily,cursive,pocily_c.png,,,,,
,,,,32080,001,2025-10-19_12h26.55.434,HW_LDT_1,2024.2.4,MacIntel,59.88023952,,,,,,,,,,,,,,,,,,,,,,392.1494,392.3466,392.3467,392.847,,,,,,,,,,,,,,6.3036,1,,,,,,,,,,,,,,m,,,,,,,,,,,,,,,,45,0,392.8477,399.1636,m,1,6.3036,,[],[],[],[],[],[],[],399.1638,401.1635,401.1637,401.1639,[],[],[],[],[],[],[],,401.1639,401.164,-0.076191002,-0.390119185,0,0,0,,0,44,44,101,1,1,word,DELICATE,cursive,delicate_c.png,,,,,
,,,,32080,001,2025-10-19_12h26.55.434,HW_LDT_1,2024.2.4,MacIntel,59.88023952,,,,,,,,,,,,,,,,,,,,,,401.1657,401.3636,401.3636,401.8636,,,,,,,,,,,,,,1.4874,1,,,,,,,,,,,,,,z,,,,,,,,,,,,,,,,46,0,401.8642,403.3631,z,1,1.4874,,[],[],[],[],[],[],[],403.3632,405.3635,405.3636,405.3639,[],[],[],[],[],[],[],,405.3639,405.364,-0.076191002,-0.390119185,0,0,0,,0,45,45,8,1,1,RL,debave,print,debave_p.png,,,,,
,,,,32080,001,2025-10-19_12h26.55.434,HW_LDT_1,2024.2.4,MacIntel,59.88023952,,,,,,,,,,,,,,,,,,,,,,405.3655,405.5636,405.5636,406.0637,,,,,,,,,,,,,,1.1042,1,,,,,,,,,,,,,,z,,,,,,,,,,,,,,,,47,0,406.0641,407.1801,z,1,1.1042,,[],[],[],[],[],[],[],407.1802,409.1803,409.1804,409.1807,[],[],[],[],[],[],[],,409.1807,409.1808,-0.076191002,-0.390119185,0,0,0,,0,46,46,46,1,1,TL,catipal,print,catipal_p.png,,,,,
,,,,32080,001,2025-10-19_12h26.55.434,HW_LDT_1,2024.2.4,MacIntel,59.88023952,,,,,,,,,,,,,,,,,,,,,,409.1824,409.3803,409.3804,409.8803,,,,,,,,,,,,,,2.5205,0,,,,,,,,,,,,,,m,,,,,,,,,,,,,,,,48,0,409.8809,412.4137,z,0,2.5205,,[],[],[],[],[],[],[],412.4138,414.4137,414.4137,414.4139,[],[],[],[],[],[],[],,414.414,414.414,-0.076191002,-0.390119185,0,0,0,,0,47,47,140,1,1,word,RELATIVE,cursive,relative_c.png,,,,,
,,,,32080,001,2025-10-19_12h26.55.434,HW_LDT_1,2024.2.4,MacIntel,59.88023952,,,,,,,,,,,,,,,,,,,,,,414.4154,414.6136,414.6138,415.1137,,,,,,,,,,,,,,0.7872,1,,,,,,,,,,,,,,z,,,,,,,,,,,,,,,,49,0,415.1143,415.9137,z,1,0.7872,,[],[],[],[],[],[],[],415.9139,417.9137,417.9137,417.914,[],[],[],[],[],[],[],,417.914,417.9141,-0.076191002,-0.390119185,0,0,0,,0,48,48,34,1,1,RL,samite,print,samite_p.png,,,,,
,,,,32080,001,2025-10-19_12h26.55.434,HW_LDT_1,2024.2.4,MacIntel,59.88023952,,,,,,,,,,,,,,,,,,,,,,417.9156,418.1136,418.1137,418.6136,,,,,,,,,,,,,,5.7039,1,,,,,,,,,,,,,,z,,,,,,,,,,,,,,,,50,0,418.6143,424.3305,z,1,5.7039,,[],[],[],[],[],[],[],424.3306,426.3304,426.3304,426.3307,[],[],[],[],[],[],[],,426.3308,426.3308,-0.076191002,-0.390119185,0,0,0,,0,49,49,17,1,1,RL,menowy,cursive,menowy_c.png,,,,,
,,,,32080,001,2025-10-19_12h26.55.434,HW_LDT_1,2024.2.4,MacIntel,59.88023952,,,,,,,,,,,,,,,,,,,,,,426.3322,426.5305,426.5307,427.0304,,,,,,,,,,,,,,1.5207,1,,,,,,,,,,,,,,z,,,,,,,,,,,,,,,,51,0,427.031,428.5628,z,1,1.5207,,[],[],[],[],[],[],[],428.5629,430.5631,430.5631,430.5634,[],[],[],[],[],[],[],,430.5634,430.5636,-0.074648055,-0.390119185,0,0,0,,0,50,50,74,1,1,TL,setanor,cursive,setanor_c.png,,,,,
,,,,32080,001,2025-10-19_12h26.55.434,HW_LDT_1,2024.2.4,MacIntel,59.88023952,,,,,,,,,,,,,,,,,,,,,,430.5647,430.7637,430.7637,431.2639,,,,,,,,,,,,,,2.3546,1,,,,,,,,,,,,,,m,,,,,,,,,,,,,,,,52,1,431.2645,433.6305,m,1,2.3546,,[],[],[],[],[],[],[],433.6306,435.6304,435.6305,437.3474,[],[],[],[],[],[],[],z,437.3476,437.3477,-0.074648055,-0.390119185,0,0,0,,0,51,51,159,1,1,word,VETERAN,print,veteran_p.png,1.7163,,,,
,,,,32080,001,2025-10-19_12h26.55.434,HW_LDT_1,2024.2.4,MacIntel,59.88023952,,,,,,,,,,,,,,,,,,,,,,437.3489,437.5471,437.5472,438.0468,,,,,,,,,,,,,,2.4046,1,,,,,,,,,,,,,,m,,,,,,,,,,,,,,,,53,0,438.0471,440.4639,m,1,2.4046,,[],[],[],[],[],[],[],440.464,442.4638,442.4638,442.4641,[],[],[],[],[],[],[],,442.4641,442.4642,-0.074648055,-0.390119185,0,0,0,,0,52,52,147,1,1,word,ROMANTIC,cursive,romantic_c.png,,,,,
,,,,32080,001,2025-10-19_12h26.55.434,HW_LDT_1,2024.2.4,MacIntel,59.88023952,,,,,,,,,,,,,,,,,,,,,,442.4656,442.6638,442.6639,443.1638,,,,,,,,,,,,,,1.7206,1,,,,,,,,,,,,,,z,,,,,,,,,,,,,,,,54,1,443.1644,444.8972,z,1,1.7206,,[],[],[],[],[],[],[],444.8973,446.8971,446.8973,447.864,[],[],[],[],[],[],[],z,447.864,447.8641,-0.074648055,-0.390119185,0,0,0,,0,53,53,26,1,1,RL,quafidy,cursive,quafidy_c.png,0.9627,,,,
,,,,32080,001,2025-10-19_12h26.55.434,HW_LDT_1,2024.2.4,MacIntel,59.88023952,,,,,,,,,,,,,,,,,,,,,,447.8655,448.0634,448.0636,448.5639,,,,,,,,,,,,,,1.0895,1,,,,,,,,,,,,,,z,,,,,,,,,,,,,,,,55,0,448.5645,449.6638,z,1,1.0895,,[],[],[],[],[],[],[],449.664,451.6638,451.6639,451.664,[],[],[],[],[],[],[],,451.6641,451.6642,-0.074648055,-0.390119185,0,0,0,,0,54,54,27,1,1,RL,rasibal,print,rasibal_p.png,,,,,
,,,,32080,001,2025-10-19_12h26.55.434,HW_LDT_1,2024.2.4,MacIntel,59.88023952,,,,,,,,,,,,,,,,,,,,,,451.6655,451.8639,451.864,452.3638,,,,,,,,,,,,,,1.2885,1,,,,,,,,,,,,,,m,,,,,,,,,,,,,,,,56,0,452.3644,453.664,m,1,1.2885,,[],[],[],[],[],[],[],453.6641,455.6639,455.6639,455.6642,[],[],[],[],[],[],[],,455.6642,455.6643,-0.074648055,-0.390119185,0,0,0,,0,55,55,113,1,1,word,LITERAL,print,literal_p.png,,,,,
,,,,32080,001,2025-10-19_12h26.55.434,HW_LDT_1,2024.2.4,MacIntel,59.88023952,,,,,,,,,,,,,,,,,,,,,,455.6657,455.8639,455.864,456.3638,,,,,,,,,,,,,,1.0372,1,,,,,,,,,,,,,,m,,,,,,,,,,,,,,,,57,0,456.3645,457.414,m,1,1.0372,,[],[],[],[],[],[],[],457.4141,459.4138,459.414,459.4141,[],[],[],[],[],[],[],,459.4142,459.4143,-0.074648055,-0.390119185,0,0,0,,0,56,56,95,1,1,word,COMEDY,cursive,comedy_c.png,,,,,
,,,,32080,001,2025-10-19_12h26.55.434,HW_LDT_1,2024.2.4,MacIntel,59.88023952,,,,,,,,,,,,,,,,,,,,,,459.4156,459.6139,459.6139,460.1139,,,,,,,,,,,,,,3.4873,1,,,,,,,,,,,,,,z,,,,,,,,,,,,,,,,58,0,460.1144,463.614,z,1,3.4873,,[],[],[],[],[],[],[],463.6142,465.6138,465.6139,465.6141,[],[],[],[],[],[],[],,465.6141,465.6142,-0.074648055,-0.390119185,0,0,0,,0,57,57,21,1,1,RL,opcifal,print,opcifal_p.png,,,,,
,,,,32080,001,2025-10-19_12h26.55.434,HW_LDT_1,2024.2.4,MacIntel,59.88023952,,,,,,,,,,,,,,,,,,,,,,465.6153,465.814,465.8142,466.314,,,,,,,,,,,,,,0.9038,1,,,,,,,,,,,,,,z,,,,,,,,,,,,,,,,59,0,466.3148,467.2306,z,1,0.9038,,[],[],[],[],[],[],[],467.2307,469.2306,469.2307,469.2309,[],[],[],[],[],[],[],,469.2309,469.2311,-0.072539785,-0.391441104,0,0,0,,0,58,58,7,1,1,RL,delahe,print,delahe_p.png,,,,,
,,,,32080,001,2025-10-19_12h26.55.434,HW_LDT_1,2024.2.4,MacIntel,59.88023952,,,,,,,,,,,,,,,,,,,,,,469.2324,469.4306,469.4306,469.9307,,,,,,,,,,,,,,1.4705,1,,,,,,,,,,,,,,z,,,,,,,,,,,,,,,,60,0,469.9313,471.414,z,1,1.4705,,[],[],[],[],[],[],[],471.4141,473.414,473.414,473.4142,[],[],[],[],[],[],[],,473.4142,473.4143,-0.072794818,-0.391441104,0,0,0,,0,59,59,6,1,1,RL,crisival,print,crisival_p.png,,,,,
,,,,32080,001,2025-10-19_12h26.55.434,HW_LDT_1,2024.2.4,MacIntel,59.88023952,,,,,,,,,,,,,,,,,,,,,,473.4157,473.614,473.614,474.1139,,,,,,,,,,,,,,1.1373,1,,,,,,,,,,,,,,z,,,,,,,,,,,,,,,,61,0,474.1145,475.264,z,1,1.1373,,[],[],[],[],[],[],[],475.2641,477.2639,477.2641,477.2642,[],[],[],[],[],[],[],,477.2643,477.2645,-0.072794818,-0.391441104,0,0,0,,0,60,60,32,1,1,RL,rebicent,print,rebicent_p.png,,,,,
,,,,32080,001,2025-10-19_12h26.55.434,HW_LDT_1,2024.2.4,MacIntel,59.88023952,,,,,,,,,,,,,,,,,,,,,,477.2659,477.464,477.4641,477.964,,,,,,,,,,,,,,1.787,1,,,,,,,,,,,,,,z,,,,,,,,,,,,,,,,62,0,477.9646,479.7637,z,1,1.787,,[],[],[],[],[],[],[],479.7638,481.764,481.7641,481.7642,[],[],[],[],[],[],[],,481.7643,481.7643,-0.072794818,-0.391441104,0,0,0,,0,61,61,37,1,1,RL,skofen,print,skofen_p.png,,,,,
,,,,32080,001,2025-10-19_12h26.55.434,HW_LDT_1,2024.2.4,MacIntel,59.88023952,,,,,,,,,,,,,,,,,,,,,,481.7657,481.9641,481.9641,482.464,,,,,,,,,,,,,,6.7968,1,,,,,,,,,,,,,,z,,,,,,,,,,,,,,,,63,0,482.4646,489.2643,z,1,6.7968,,[],[],[],[],[],[],[],489.2643,491.2641,491.2641,491.2644,[],[],[],[],[],[],[],,491.2645,491.2647,-0.060995307,-0.392984052,0,0,0,,0,62,62,15,1,1,RL,losipal,cursive,losipal_c.png,,,,,
,,,,32080,001,2025-10-19_12h26.55.434,HW_LDT_1,2024.2.4,MacIntel,59.88023952,,,,,,,,,,,,,,,,,,,,,,491.2661,491.4641,491.4642,491.9641,,,,,,,,,,,,,,1.3703,0,,,,,,,,,,,,,,m,,,,,,,,,,,,,,,,64,0,491.9648,493.3475,z,0,1.3703,,[],[],[],[],[],[],[],493.3475,495.3474,495.3475,495.3477,[],[],[],[],[],[],[],,495.3477,495.3479,-0.060995307,-0.392984052,0,0,0,,0,63,63,100,1,1,word,DECADE,print,decade_p.png,,,,,
,,,,32080,001,2025-10-19_12h26.55.434,HW_LDT_1,2024.2.4,MacIntel,59.88023952,,,,,,,,,,,,,,,,,,,,,,495.3493,495.5474,495.5475,496.0475,,,,,,,,,,,,,,3.5413,1,,,,,,,,,,,,,,z,,,,,,,,,,,,,,,,65,0,496.048,499.5976,z,1,3.5413,,[],[],[],[],[],[],[],499.5976,501.5974,501.5975,501.5978,[],[],[],[],[],[],[],,501.5978,501.5979,-0.061773157,-0.392720518,0,0,0,,0,64,64,18,1,1,RL,mishafe,print,mishafe_p.png,,,,,
,,,,32080,001,2025-10-19_12h26.55.434,HW_LDT_1,2024.2.4,MacIntel,59.88023952,,,,,,,,,,,,,,,,,,,,,,501.5993,501.7974,501.7975,502.2974,,,,,,,,,,,,,,3.5207,0,,,,,,,,,,,,,,m,,,,,,,,,,,,,,,,66,1,502.2981,505.8308,z,0,3.5207,,[],[],[],[],[],[],[],505.8308,507.8309,507.8309,508.6806,[],[],[],[],[],[],[],z,508.6806,508.6807,-0.061773157,-0.392720518,0,0,0,,0,65,65,87,1,1,word,CAFETERIA,cursive,cafeteria_c.png,0.8486,,,,
,,,,32080,001,2025-10-19_12h26.55.434,HW_LDT_1,2024.2.4,MacIntel,59.88023952,,,,,,,,,,,,,,,,,,,,,,508.6814,508.8808,508.8809,509.3808,,,,,,,,,,,,,,2.1039,1,,,,,,,,,,,,,,z,,,,,,,,,,,,,,,,67,0,509.3813,511.4974,z,1,2.1039,,[],[],[],[],[],[],[],511.4975,513.4975,513.4975,513.4978,[],[],[],[],[],[],[],,513.4978,513.4979,-0.061773157,-0.392720518,0,0,0,,0,66,66,47,1,1,TL,cagetory,print,cagetory_p.png,,,,,
,,,,32080,001,2025-10-19_12h26.55.434,HW_LDT_1,2024.2.4,MacIntel,59.88023952,,,,,,,,,,,,,,,,,,,,,,513.4993,513.6975,513.6975,514.1975,,,,,,,,,,,,,,1.7202,1,,,,,,,,,,,,,,z,,,,,,,,,,,,,,,,68,0,514.1981,515.9309,z,1,1.7202,,[],[],[],[],[],[],[],515.931,517.9308,517.9309,517.931,[],[],[],[],[],[],[],,517.9311,517.9312,-0.061773157,-0.392720518,0,0,0,,0,67,67,43,1,1,TL,bedise,print,bedise_p.png,,,,,
,,,,32080,001,2025-10-19_12h26.55.434,HW_LDT_1,2024.2.4,MacIntel,59.88023952,,,,,,,,,,,,,,,,,,,,,,517.9326,518.1309,518.1309,518.6308,,,,,,,,,,,,,,3.1703,1,,,,,,,,,,,,,,m,,,,,,,,,,,,,,,,69,0,518.6314,521.8139,m,1,3.1703,,[],[],[],[],[],[],[],521.8139,523.8146,523.8147,523.8148,[],[],[],[],[],[],[],,523.8149,523.8149,-0.062674272,-0.390195695,0,0,0,,0,68,68,82,1,1,word,AMATEUR,print,amateur_p.png,,,,,
,,,,32080,001,2025-10-19_12h26.55.434,HW_LDT_1,2024.2.4,MacIntel,59.88023952,,,,,,,,,,,,,,,,,,,,,,523.8158,524.0138,524.0139,524.5143,,,,,,,,,,,,,,8.7402,1,,,,,,,,,,,,,,m,,,,,,,,,,,,,,,,70,0,524.5148,533.2644,m,1,8.7402,,[],[],[],[],[],[],[],533.2645,535.2643,535.2643,535.2645,[],[],[],[],[],[],[],,535.2646,535.2646,-0.062835793,-0.387551857,0,0,0,,0,69,69,129,1,1,word,PARENT,cursive,parent_c.png,,,,,
,,,,32080,001,2025-10-19_12h26.55.434,HW_LDT_1,2024.2.4,MacIntel,59.88023952,,,,,,,,,,,,,,,,,,,,,,535.2661,535.4643,535.4644,535.9643,,,,,,,,,,,,,,3.4538,1,,,,,,,,,,,,,,z,,,,,,,,,,,,,,,,71,1,535.9649,539.431,z,1,3.4538,,[],[],[],[],[],[],[],539.4311,541.431,541.431,542.4811,[],[],[],[],[],[],[],z,542.4812,542.4813,-0.062283222,-0.38781539,0,0,0,,0,70,70,36,1,1,RL,speniven,cursive,speniven_c.png,1.0375,,,,
,,,,32080,001,2025-10-19_12h26.55.434,HW_LDT_1,2024.2.4,MacIntel,59.88023952,,,,,,,,,,,,,,,,,,,,,,542.4827,542.6811,542.6811,543.1803,,,,,,,,,,,,,,0.837,1,,,,,,,,,,,,,,z,,,,,,,,,,,,,,,,72,0,543.1809,544.031,z,1,0.837,,[],[],[],[],[],[],[],544.0312,546.031,546.0311,546.0314,[],[],[],[],[],[],[],,546.0314,546.0314,-0.062283222,-0.38781539,0,0,0,,0,71,71,24,1,1,RL,probice,print,probice_p.png,,,,,
,,,,32080,001,2025-10-19_12h26.55.434,HW_LDT_1,2024.2.4,MacIntel,59.88023952,,,,,,,,,,,,,,,,,,,,,,546.0329,546.231,546.231,546.731,,,,,,,,,,,,,,13.6204,1,,,,,,,,,,,,,,z,,,,,,,,,,,,,,,,73,0,546.7317,560.3644,z,1,13.6204,,[],[],[],[],[],[],[],560.3646,562.3644,562.3644,562.3645,[],[],[],[],[],[],[],,562.3647,562.3647,-0.055439846,-0.38945185,0,0,0,,0,72,72,50,1,1,TL,condiser,cursive,condiser_c.png,,,,,
,,,,32080,001,2025-10-19_12h26.55.434,HW_LDT_1,2024.2.4,MacIntel,59.88023952,,,,,,,,,,,,,,,,,,,,,,562.3661,562.5644,562.5645,563.0644,,,,,,,,,,,,,,5.1284,1,,,,,,,,,,,,,,z,,,,,,,,,,,,,,,,74,0,563.0651,568.1979,z,1,5.1284,,[],[],[],[],[],[],[],568.1979,570.1978,570.1979,570.1981,[],[],[],[],[],[],[],,570.1982,570.1983,-0.055439846,-0.38945185,0,0,0,,0,73,73,39,1,1,RL,vabifity,cursive,vabifity_c.png,,,,,
,,,,32080,001,2025-10-19_12h26.55.434,HW_LDT_1,2024.2.4,MacIntel,59.88023952,,,,,,,,,,,,,,,,,,,,,,570.1996,570.3978,570.3978,570.8978,,,,,,,,,,,,,,1.6546,1,,,,,,,,,,,,,,m,,,,,,,,,,,,,,,,75,0,570.8986,572.5644,m,1,1.6546,,[],[],[],[],[],[],[],572.5645,574.5644,574.5646,574.5648,[],[],[],[],[],[],[],,574.5648,574.565,-0.055439846,-0.38945185,0,0,0,,0,74,74,109,1,1,word,GRATEFUL,print,grateful_p.png,,,,,
,,,,32080,001,2025-10-19_12h26.55.434,HW_LDT_1,2024.2.4,MacIntel,59.88023952,,,,,,,,,,,,,,,,,,,,,,574.5663,574.7645,574.7645,575.2644,,,,,,,,,,,,,,2.7873,1,,,,,,,,,,,,,,z,,,,,,,,,,,,,,,,76,1,575.2651,578.0646,z,1,2.7873,,[],[],[],[],[],[],[],578.0647,580.0646,580.0646,581.0312,[],[],[],[],[],[],[],z,581.0313,581.0314,-0.055690628,-0.38945185,0,0,0,,0,75,75,29,1,1,RL,refakive,cursive,refakive_c.png,0.9549,,,,
,,,,32080,001,2025-10-19_12h26.55.434,HW_LDT_1,2024.2.4,MacIntel,59.88023952,,,,,,,,,,,,,,,,,,,,,,581.0326,581.2311,581.2312,581.7312,,,,,,,,,,,,,,4.5411,1,,,,,,,,,,,,,,z,,,,,,,,,,,,,,,,77,0,581.7318,586.2813,z,1,4.5411,,[],[],[],[],[],[],[],586.2814,588.2813,588.2813,588.2816,[],[],[],[],[],[],[],,588.2816,588.2817,-0.055941411,-0.38945185,0,0,0,,0,76,76,71,1,1,TL,regilion,cursive,regilion_c.png,,,,,
,,,,32080,001,2025-10-19_12h26.55.434,HW_LDT_1,2024.2.4,MacIntel,59.88023952,,,,,,,,,,,,,,,,,,,,,,588.2831,588.4812,588.4812,588.9812,,,,,,,,,,,,,,1.3624,1,,,,,,,,,,,,,,m,,,,,,,,,,,,,,,,78,0,588.9818,590.3479,m,1,1.3624,,[],[],[],[],[],[],[],590.348,592.348,592.3481,592.3483,[],[],[],[],[],[],[],,592.3484,592.3485,-0.054908528,-0.38945185,0,0,0,,0,77,77,108,1,1,word,FORTUNE,print,fortune_p.png,,,,,
,,,,32080,001,2025-10-19_12h26.55.434,HW_LDT_1,2024.2.4,MacIntel,59.88023952,,,,,,,,,,,,,,,,,,,,,,592.3499,592.5479,592.548,593.047,,,,,,,,,,,,,,1.2132,0,,,,,,,,,,,,,,m,,,,,,,,,,,,,,,,79,0,593.0476,594.2646,z,0,1.2132,,[],[],[],[],[],[],[],594.2647,596.2646,596.2646,596.2649,[],[],[],[],[],[],[],,596.265,596.265,-0.054908528,-0.38945185,0,0,0,,0,78,78,92,1,1,word,CATEGORY,print,category_p.png,,,,,
,,,,32080,001,2025-10-19_12h26.55.434,HW_LDT_1,2024.2.4,MacIntel,59.88023952,,,,,,,,,,,,,,,,,,,,,,596.2664,596.4645,596.4647,596.9646,,,,,,,,,,,,,,1.0208,1,,,,,,,,,,,,,,m,,,,,,,,,,,,,,,,80,0,596.9652,597.9981,m,1,1.0208,,[],[],[],[],[],[],[],597.9982,599.998,599.998,599.9983,[],[],[],[],[],[],[],,599.9983,607.0317,-0.055669376,-0.38945185,1,0,0,,0,79,79,97,1,1,word,COVERAGE,print,coverage_p.png,,,break_done_button,,
,,,,32080,001,2025-10-19_12h26.55.434,HW_LDT_1,2024.2.4,MacIntel,59.88023952,,,,,,,,,,,,,,,,,,,,,,607.0324,607.2313,607.2314,607.7314,,,,,,,,,,,,,,2.8392,1,,,,,,,,,,,,,,m,,,,,,,,,,,,,,,,81,0,607.7321,610.5814,m,1,2.8392,,[],[],[],[],[],[],[],610.5815,612.5813,612.5813,612.5815,[],[],[],[],[],[],[],,612.5816,612.5817,-0.055669376,-0.38945185,0,0,0,,0,80,80,154,1,1,word,STORAGE,cursive,storage_c.png,,,,,
,,,,32080,001,2025-10-19_12h26.55.434,HW_LDT_1,2024.2.4,MacIntel,59.88023952,,,,,,,,,,,,,,,,,,,,,,612.583,612.7804,612.7805,613.2813,,,,,,,,,,,,,,8.4922,0,,,,,,,,,,,,,,m,,,,,,,,,,,,,,,,82,0,613.2819,621.7815,z,0,8.4922,,[],[],[],[],[],[],[],621.7816,623.7804,623.7804,623.7806,[],[],[],[],[],[],[],,623.7807,623.7807,-0.060744525,-0.391636629,0,0,0,,0,81,81,125,1,1,word,OPERATOR,cursive,operator_c.png,,,,,
,,,,32080,001,2025-10-19_12h26.55.434,HW_LDT_1,2024.2.4,MacIntel,59.88023952,,,,,,,,,,,,,,,,,,,,,,623.7818,623.9814,623.9815,624.4814,,,,,,,,,,,,,,1.6872,1,,,,,,,,,,,,,,m,,,,,,,,,,,,,,,,83,0,624.482,626.1816,m,1,1.6872,,[],[],[],[],[],[],[],626.1816,628.1817,628.1817,628.182,[],[],[],[],[],[],[],,628.182,628.1821,-0.059817907,-0.39085878,0,0,0,,0,82,82,118,1,1,word,MEDICINE,cursive,medicine_c.png,,,,,
,,,,32080,001,2025-10-19_12h26.55.434,HW_LDT_1,2024.2.4,MacIntel,59.88023952,,,,,,,,,,,,,,,,,,,,,,628.1834,628.3816,628.3817,628.8815,,,,,,,,,,,,,,1.5381,1,,,,,,,,,,,,,,m,,,,,,,,,,,,,,,,84,0,628.8823,630.4314,m,1,1.5381,,[],[],[],[],[],[],[],630.4315,632.4314,632.4315,632.4318,[],[],[],[],[],[],[],,632.4318,632.4319,-0.059567125,-0.390603747,0,0,0,,0,83,83,157,1,1,word,VALIDITY,cursive,validity_c.png,,,,,
,,,,32080,001,2025-10-19_12h26.55.434,HW_LDT_1,2024.2.4,MacIntel,59.88023952,,,,,,,,,,,,,,,,,,,,,,632.4332,632.6314,632.6314,633.1306,,,,,,,,,,,,,,2.9706,1,,,,,,,,,,,,,,m,,,,,,,,,,,,,,,,85,0,633.1313,636.1149,m,1,2.9706,,[],[],[],[],[],[],[],636.1151,638.1148,638.1149,638.1153,[],[],[],[],[],[],[],,638.1153,638.1155,-0.056842526,-0.392019178,0,0,0,,0,84,84,156,1,1,word,TRIBUTE,cursive,tribute_c.png,,,,,
,,,,32080,001,2025-10-19_12h26.55.434,HW_LDT_1,2024.2.4,MacIntel,59.88023952,,,,,,,,,,,,,,,,,,,,,,638.1169,638.3139,638.314,638.8148,,,,,,,,,,,,,,1.2388,1,,,,,,,,,,,,,,m,,,,,,,,,,,,,,,,86,0,638.8156,640.0642,m,1,1.2388,,[],[],[],[],[],[],[],640.0642,642.0649,642.065,642.0653,[],[],[],[],[],[],[],,642.0653,642.0654,-0.056855277,-0.39172164,0,0,0,,0,85,85,91,1,1,word,CARDINAL,print,cardinal_p.png,,,,,
,,,,32080,001,2025-10-19_12h26.55.434,HW_LDT_1,2024.2.4,MacIntel,59.88023952,,,,,,,,,,,,,,,,,,,,,,642.0678,642.2644,642.2644,642.7648,,,,,,,,,,,,,,1.2209,1,,,,,,,,,,,,,,z,,,,,,,,,,,,,,,,87,0,642.7655,643.9984,z,1,1.2209,,[],[],[],[],[],[],[],643.9985,645.9977,645.9978,645.998,[],[],[],[],[],[],[],,645.998,645.9981,-0.056855277,-0.39172164,0,0,0,,0,86,86,40,1,1,TL,atameur,print,atameur_p.png,,,,,
,,,,32080,001,2025-10-19_12h26.55.434,HW_LDT_1,2024.2.4,MacIntel,59.88023952,,,,,,,,,,,,,,,,,,,,,,645.9997,646.1982,646.1982,646.6982,,,,,,,,,,,,,,1.5208,1,,,,,,,,,,,,,,m,,,,,,,,,,,,,,,,88,0,646.6988,648.2316,m,1,1.5208,,[],[],[],[],[],[],[],648.2317,650.2315,650.2316,650.2318,[],[],[],[],[],[],[],,650.2318,650.2321,-0.055805393,-0.39280978,0,0,0,,0,87,87,123,1,1,word,MODERATE,print,moderate_p.png,,,,,
,,,,32080,001,2025-10-19_12h26.55.434,HW_LDT_1,2024.2.4,MacIntel,59.88023952,,,,,,,,,,,,,,,,,,,,,,650.2335,650.4305,650.4305,650.9315,,,,,,,,,,,,,,0.9041,1,,,,,,,,,,,,,,z,,,,,,,,,,,,,,,,89,0,650.9322,651.8476,z,1,0.9041,,[],[],[],[],[],[],[],651.8477,653.8473,653.8473,653.8476,[],[],[],[],[],[],[],,653.8476,653.8478,-0.055805393,-0.39280978,0,0,0,,0,88,88,72,1,1,TL,remuse,print,remuse_p.png,,,,,
,,,,32080,001,2025-10-19_12h26.55.434,HW_LDT_1,2024.2.4,MacIntel,59.88023952,,,,,,,,,,,,,,,,,,,,,,653.8492,654.0482,654.0483,654.5483,,,,,,,,,,,,,,1.1979,1,,,,,,,,,,,,,,m,,,,,,,,,,,,,,,,90,0,654.5489,655.7484,m,1,1.1979,,[],[],[],[],[],[],[],655.7484,657.7481,657.7482,657.7483,[],[],[],[],[],[],[],,657.7483,657.7483,-0.055805393,-0.393056311,0,0,0,,0,89,89,81,1,1,word,ADVISORY,cursive,advisory_c.png,,,,,
,,,,32080,001,2025-10-19_12h26.55.434,HW_LDT_1,2024.2.4,MacIntel,59.88023952,,,,,,,,,,,,,,,,,,,,,,657.7491,657.9482,657.9483,658.4483,,,,,,,,,,,,,,0.9373,1,,,,,,,,,,,,,,z,,,,,,,,,,,,,,,,91,0,658.4488,659.3974,z,1,0.9373,,[],[],[],[],[],[],[],659.3975,661.3974,661.3975,661.3977,[],[],[],[],[],[],[],,661.3977,661.3978,-0.055805393,-0.393056311,0,0,0,,0,90,90,19,1,1,RL,monebate,print,monebate_p.png,,,,,
,,,,32080,001,2025-10-19_12h26.55.434,HW_LDT_1,2024.2.4,MacIntel,59.88023952,,,,,,,,,,,,,,,,,,,,,,661.3991,661.5982,661.5983,662.0983,,,,,,,,,,,,,,1.0241,1,,,,,,,,,,,,,,z,,,,,,,,,,,,,,,,92,0,662.0989,663.1307,z,1,1.0241,,[],[],[],[],[],[],[],663.1309,665.1316,665.1317,665.1318,[],[],[],[],[],[],[],,665.1319,665.1319,-0.055040295,-0.393081814,0,0,0,,0,91,91,2,1,1,RL,asiral,print,asiral_p.png,,,,,
,,,,32080,001,2025-10-19_12h26.55.434,HW_LDT_1,2024.2.4,MacIntel,59.88023952,,,,,,,,,,,,,,,,,,,,,,665.1331,665.332,665.3321,665.8314,,,,,,,,,,,,,,2.3661,1,,,,,,,,,,,,,,m,,,,,,,,,,,,,,,,93,0,665.8317,668.199,m,1,2.3661,,[],[],[],[],[],[],[],668.199,670.1983,670.1984,670.1986,[],[],[],[],[],[],[],,670.1987,670.1988,-0.046309678,-0.40422249,0,0,0,,0,92,92,121,1,1,word,MISTAKE,print,mistake_p.png,,,,,
,,,,32080,001,2025-10-19_12h26.55.434,HW_LDT_1,2024.2.4,MacIntel,59.88023952,,,,,,,,,,,,,,,,,,,,,,670.2001,670.3984,670.3984,670.8983,,,,,,,,,,,,,,2.9708,1,,,,,,,,,,,,,,m,,,,,,,,,,,,,,,,94,1,670.8988,673.8817,m,1,2.9708,,[],[],[],[],[],[],[],673.8819,675.8819,675.8819,678.1148,[],[],[],[],[],[],[],m,678.1149,678.115,-0.040252652,-0.415537439,0,0,0,,0,93,93,89,1,1,word,CAPACITY,print,capacity_p.png,2.2228,,,,
,,,,32080,001,2025-10-19_12h26.55.434,HW_LDT_1,2024.2.4,MacIntel,59.88023952,,,,,,,,,,,,,,,,,,,,,,678.1157,678.3141,678.3141,678.8148,,,,,,,,,,,,,,10.3873,1,,,,,,,,,,,,,,z,,,,,,,,,,,,,,,,95,0,678.8152,689.2149,z,1,10.3873,,[],[],[],[],[],[],[],689.2151,691.2151,691.2152,691.2156,[],[],[],[],[],[],[],,691.2157,691.2159,-0.040180393,-0.416570321,0,0,0,,0,94,94,0,1,1,RL,abanemy,cursive,abanemy_c.png,,,,,
,,,,32080,001,2025-10-19_12h26.55.434,HW_LDT_1,2024.2.4,MacIntel,59.88023952,,,,,,,,,,,,,,,,,,,,,,691.218,691.4152,691.4152,691.9151,,,,,,,,,,,,,,5.2469,0,,,,,,,,,,,,,,m,,,,,,,,,,,,,,,,96,1,691.916,697.1652,z,0,5.2469,,[],[],[],[],[],[],[],697.1654,699.1651,699.1651,700.1486,[],[],[],[],[],[],[],z,700.1487,700.1487,-0.042594702,-0.414942363,0,0,0,,0,95,95,127,1,1,word,ORIGINAL,cursive,original_c.png,0.9718,,,,
,,,,32080,001,2025-10-19_12h26.55.434,HW_LDT_1,2024.2.4,MacIntel,59.88023952,,,,,,,,,,,,,,,,,,,,,,700.15,700.3485,700.3485,700.8486,,,,,,,,,,,,,,1.6022,1,,,,,,,,,,,,,,m,,,,,,,,,,,,,,,,97,0,700.8491,702.4649,m,1,1.6022,,[],[],[],[],[],[],[],702.465,704.4652,704.4652,704.4655,[],[],[],[],[],[],[],,704.4656,704.4656,-0.043138772,-0.413033868,0,0,0,,0,96,96,85,1,1,word,BENEFIT,print,benefit_p.png,,,,,
,,,,32080,001,2025-10-19_12h26.55.434,HW_LDT_1,2024.2.4,MacIntel,59.88023952,,,,,,,,,,,,,,,,,,,,,,704.4669,704.6652,704.6652,705.1652,,,,,,,,,,,,,,1.5392,1,,,,,,,,,,,,,,m,,,,,,,,,,,,,,,,98,0,705.1656,706.715,m,1,1.5392,,[],[],[],[],[],[],[],706.7151,708.7151,708.7152,708.7154,[],[],[],[],[],[],[],,708.7155,708.7156,-0.040732964,-0.413573687,0,0,0,,0,97,97,131,1,1,word,POPULAR,cursive,popular_c.png,,,,,
,,,,32080,001,2025-10-19_12h26.55.434,HW_LDT_1,2024.2.4,MacIntel,59.88023952,,,,,,,,,,,,,,,,,,,,,,708.7168,708.9152,708.9153,709.4152,,,,,,,,,,,,,,1.0746,1,,,,,,,,,,,,,,z,,,,,,,,,,,,,,,,99,0,709.4158,710.4988,z,1,1.0746,,[],[],[],[],[],[],[],710.4989,712.4985,712.4985,712.4988,[],[],[],[],[],[],[],,712.4988,712.4989,-0.040732964,-0.413573687,0,0,0,,0,98,98,70,1,1,TL,relugar,print,relugar_p.png,,,,,
,,,,32080,001,2025-10-19_12h26.55.434,HW_LDT_1,2024.2.4,MacIntel,59.88023952,,,,,,,,,,,,,,,,,,,,,,712.5003,712.6986,712.6986,713.1985,,,,,,,,,,,,,,1.6373,1,,,,,,,,,,,,,,m,,,,,,,,,,,,,,,,100,1,713.1991,714.8487,m,1,1.6373,,[],[],[],[],[],[],[],714.8488,716.8487,716.8488,717.8154,[],[],[],[],[],[],[],z,717.8154,717.8156,-0.041753094,-0.413573687,0,0,0,,0,99,99,137,1,1,word,RAPIDLY,cursive,rapidly_c.png,0.9587,,,,
,,,,32080,001,2025-10-19_12h26.55.434,HW_LDT_1,2024.2.4,MacIntel,59.88023952,,,,,,,,,,,,,,,,,,,,,,717.8171,718.0153,718.0153,718.5152,,,,,,,,,,,,,,1.0373,1,,,,,,,,,,,,,,m,,,,,,,,,,,,,,,,101,0,718.5157,719.5654,m,1,1.0373,,[],[],[],[],[],[],[],719.5655,721.5652,721.5652,721.5654,[],[],[],[],[],[],[],,721.5655,721.5657,-0.042003876,-0.413318655,0,0,0,,0,100,100,86,1,1,word,BESIDE,print,beside_p.png,,,,,
,,,,32080,001,2025-10-19_12h26.55.434,HW_LDT_1,2024.2.4,MacIntel,59.88023952,,,,,,,,,,,,,,,,,,,,,,721.5668,721.7653,721.7653,722.2647,,,,,,,,,,,,,,4.6905,1,,,,,,,,,,,,,,m,,,,,,,,,,,,,,,,102,1,722.2654,726.9645,m,1,4.6905,,[],[],[],[],[],[],[],726.9645,728.9653,728.9653,730.4321,[],[],[],[],[],[],[],z,730.4322,730.4322,-0.044103645,-0.412256019,0,0,0,,0,101,101,103,1,1,word,DISPUTE,cursive,dispute_c.png,1.4547,,,,
,,,,32080,001,2025-10-19_12h26.55.434,HW_LDT_1,2024.2.4,MacIntel,59.88023952,,,,,,,,,,,,,,,,,,,,,,730.4333,730.632,730.632,731.132,,,,,,,,,,,,,,5.6222,0,,,,,,,,,,,,,,z,,,,,,,,,,,,,,,,103,1,731.1325,736.7655,m,0,5.6222,,[],[],[],[],[],[],[],736.7655,738.7653,738.7654,740.1488,[],[],[],[],[],[],[],z,740.1489,740.149,-0.044103645,-0.412256019,0,0,0,,0,102,102,66,1,1,TL,panert,cursive,panert_c.png,1.3706,,,,
,,,,32080,001,2025-10-19_12h26.55.434,HW_LDT_1,2024.2.4,MacIntel,59.88023952,,,,,,,,,,,,,,,,,,,,,,740.1502,740.3487,740.3488,740.8488,,,,,,,,,,,,,,4.398,1,,,,,,,,,,,,,,m,,,,,,,,,,,,,,,,104,0,740.8494,745.2487,m,1,4.398,,[],[],[],[],[],[],[],745.2488,747.2487,747.2487,747.2491,[],[],[],[],[],[],[],,747.2492,747.2493,-0.044103645,-0.413021117,0,0,0,,0,103,103,83,1,1,word,ANIMAL,print,animal_p.png,,,,,
,,,,32080,001,2025-10-19_12h26.55.434,HW_LDT_1,2024.2.4,MacIntel,59.88023952,,,,,,,,,,,,,,,,,,,,,,747.2505,747.4484,747.4484,747.9487,,,,,,,,,,,,,,4.4886,1,,,,,,,,,,,,,,z,,,,,,,,,,,,,,,,105,0,747.9493,752.4489,z,1,4.4886,,[],[],[],[],[],[],[],752.449,754.4488,754.4488,754.4491,[],[],[],[],[],[],[],,754.4492,754.4492,-0.044566955,-0.414113507,0,0,0,,0,104,104,33,1,1,RL,recile,cursive,recile_c.png,,,,,
,,,,32080,001,2025-10-19_12h26.55.434,HW_LDT_1,2024.2.4,MacIntel,59.88023952,,,,,,,,,,,,,,,,,,,,,,754.4506,754.6488,754.6488,755.1486,,,,,,,,,,,,,,2.0208,1,,,,,,,,,,,,,,m,,,,,,,,,,,,,,,,106,0,755.1489,757.1822,m,1,2.0208,,[],[],[],[],[],[],[],757.1823,759.1822,759.1822,759.1825,[],[],[],[],[],[],[],,759.1825,759.1826,-0.039666077,-0.41632804,0,0,0,,0,105,105,143,1,1,word,REMOVAL,cursive,removal_c.png,,,,,
,,,,32080,001,2025-10-19_12h26.55.434,HW_LDT_1,2024.2.4,MacIntel,59.88023952,,,,,,,,,,,,,,,,,,,,,,759.184,759.3822,759.3822,759.8821,,,,,,,,,,,,,,4.5207,1,,,,,,,,,,,,,,m,,,,,,,,,,,,,,,,107,1,759.8827,764.4155,m,1,4.5207,,[],[],[],[],[],[],[],764.4157,766.4154,766.4155,769.9156,[],[],[],[],[],[],[],z,769.9157,769.9159,-0.044022885,-0.410288017,0,0,0,,0,106,106,130,1,1,word,POLICY,cursive,policy_c.png,3.4881,,,,
,,,,32080,001,2025-10-19_12h26.55.434,HW_LDT_1,2024.2.4,MacIntel,59.88023952,,,,,,,,,,,,,,,,,,,,,,769.9171,770.1155,770.1155,770.6155,,,,,,,,,,,,,,4.8701,1,,,,,,,,,,,,,,m,,,,,,,,,,,,,,,,108,0,770.6163,775.4989,m,1,4.8701,,[],[],[],[],[],[],[],775.4991,777.4989,777.499,777.4992,[],[],[],[],[],[],[],,777.4992,777.4993,-0.044022885,-0.410288017,0,0,0,,0,107,107,158,1,1,word,VELOCITY,print,velocity_p.png,,,,,
,,,,32080,001,2025-10-19_12h26.55.434,HW_LDT_1,2024.2.4,MacIntel,59.88023952,,,,,,,,,,,,,,,,,,,,,,777.5006,777.6989,777.6989,778.1989,,,,,,,,,,,,,,1.0037,1,,,,,,,,,,,,,,m,,,,,,,,,,,,,,,,109,0,778.1994,779.2156,m,1,1.0037,,[],[],[],[],[],[],[],779.2157,781.2156,781.2156,781.216,[],[],[],[],[],[],[],,781.216,781.216,-0.044022885,-0.410288017,0,0,0,,0,108,108,126,1,1,word,OPTIMAL,print,optimal_p.png,,,,,
,,,,32080,001,2025-10-19_12h26.55.434,HW_LDT_1,2024.2.4,MacIntel,59.88023952,,,,,,,,,,,,,,,,,,,,,,781.2174,781.4156,781.4157,781.9155,,,,,,,,,,,,,,8.3077,1,,,,,,,,,,,,,,z,,,,,,,,,,,,,,,,110,0,781.9162,790.2325,z,1,8.3077,,[],[],[],[],[],[],[],790.2326,792.2323,792.2324,792.2326,[],[],[],[],[],[],[],,792.2327,792.2328,-0.045616839,-0.409735446,0,0,0,,0,109,109,75,1,1,TL,speficic,cursive,speficic_c.png,,,,,
,,,,32080,001,2025-10-19_12h26.55.434,HW_LDT_1,2024.2.4,MacIntel,59.88023952,,,,,,,,,,,,,,,,,,,,,,792.234,792.4324,792.4324,792.9322,,,,,,,,,,,,,,3.5404,0,,,,,,,,,,,,,,m,,,,,,,,,,,,,,,,111,0,792.9329,796.4824,z,0,3.5404,,[],[],[],[],[],[],[],796.4825,798.4824,798.4825,798.4827,[],[],[],[],[],[],[],,798.4828,798.4829,-0.045616839,-0.408456032,0,0,0,,0,110,110,105,1,1,word,EDITOR,cursive,editor_c.png,,,,,
,,,,32080,001,2025-10-19_12h26.55.434,HW_LDT_1,2024.2.4,MacIntel,59.88023952,,,,,,,,,,,,,,,,,,,,,,798.484,798.6823,798.6824,799.1823,,,,,,,,,,,,,,1.8882,1,,,,,,,,,,,,,,z,,,,,,,,,,,,,,,,112,0,799.1828,801.0824,z,1,1.8882,,[],[],[],[],[],[],[],801.0825,803.0823,803.0824,803.0826,[],[],[],[],[],[],[],,803.0826,803.0827,-0.045616839,-0.40820525,0,0,0,,0,111,111,56,1,1,TL,grafetul,print,grafetul_p.png,,,,,
,,,,32080,001,2025-10-19_12h26.55.434,HW_LDT_1,2024.2.4,MacIntel,59.88023952,,,,,,,,,,,,,,,,,,,,,,803.084,803.2824,803.2824,803.7823,,,,,,,,,,,,,,6.8375,0,,,,,,,,,,,,,,z,,,,,,,,,,,,,,,,113,0,803.7829,810.6325,m,0,6.8375,,[],[],[],[],[],[],[],810.6326,812.6324,812.6324,812.6327,[],[],[],[],[],[],[],,812.6327,812.6329,-0.045616839,-0.40820525,0,0,0,,0,112,112,52,1,1,TL,decilate,cursive,decilate_c.png,,,,,
,,,,32080,001,2025-10-19_12h26.55.434,HW_LDT_1,2024.2.4,MacIntel,59.88023952,,,,,,,,,,,,,,,,,,,,,,812.6341,812.8324,812.8325,813.3324,,,,,,,,,,,,,,0.8711,1,,,,,,,,,,,,,,m,,,,,,,,,,,,,,,,114,0,813.333,814.2158,m,1,0.8711,,[],[],[],[],[],[],[],814.2159,816.2157,816.2158,816.2162,[],[],[],[],[],[],[],,816.2163,816.2164,-0.045616839,-0.40820525,0,0,0,,0,113,113,84,1,1,word,BELOVED,print,beloved_p.png,,,,,
,,,,32080,001,2025-10-19_12h26.55.434,HW_LDT_1,2024.2.4,MacIntel,59.88023952,,,,,,,,,,,,,,,,,,,,,,816.2176,816.4157,816.4159,816.9157,,,,,,,,,,,,,,1.6071,1,,,,,,,,,,,,,,m,,,,,,,,,,,,,,,,115,0,816.9164,818.5314,m,1,1.6071,,[],[],[],[],[],[],[],818.5315,820.5324,820.5325,820.5327,[],[],[],[],[],[],[],,820.5327,820.5329,-0.044775231,-0.409556923,0,0,0,,0,114,114,141,1,1,word,RELIGION,cursive,religion_c.png,,,,,
,,,,32080,001,2025-10-19_12h26.55.434,HW_LDT_1,2024.2.4,MacIntel,59.88023952,,,,,,,,,,,,,,,,,,,,,,820.5342,820.7324,820.7325,821.2324,,,,,,,,,,,,,,2.4986,1,,,,,,,,,,,,,,z,,,,,,,,,,,,,,,,116,0,821.233,823.7331,z,1,2.4986,,[],[],[],[],[],[],[],823.7332,825.7325,825.7325,825.7327,[],[],[],[],[],[],[],,825.7328,825.7329,-0.04827768,-0.405676177,0,0,0,,0,115,115,10,1,1,RL,efibor,cursive,efibor_c.png,,,,,
,,,,32080,001,2025-10-19_12h26.55.434,HW_LDT_1,2024.2.4,MacIntel,59.88023952,,,,,,,,,,,,,,,,,,,,,,825.7349,825.9325,825.9325,826.4325,,,,,,,,,,,,,,3.553,1,,,,,,,,,,,,,,z,,,,,,,,,,,,,,,,117,0,826.4331,829.9992,z,1,3.553,,[],[],[],[],[],[],[],829.9992,831.9992,831.9992,831.9996,[],[],[],[],[],[],[],,831.9996,831.9998,-0.047210793,-0.407520913,0,0,0,,0,116,116,65,1,1,TL,orinigal,cursive,orinigal_c.png,,,,,
,,,,32080,001,2025-10-19_12h26.55.434,HW_LDT_1,2024.2.4,MacIntel,59.88023952,,,,,,,,,,,,,,,,,,,,,,832.0013,832.1992,832.1992,832.6992,,,,,,,,,,,,,,4.2654,0,,,,,,,,,,,,,,m,,,,,,,,,,,,,,,,118,1,832.6998,836.9664,z,0,4.2654,,[],[],[],[],[],[],[],836.9665,838.9659,838.966,840.0826,[],[],[],[],[],[],[],z,840.0828,840.0828,-0.047465826,-0.406215996,0,0,0,,0,117,117,96,1,1,word,CONSIDER,cursive,consider_c.png,1.1046,,,,
,,,,32080,001,2025-10-19_12h26.55.434,HW_LDT_1,2024.2.4,MacIntel,59.88023952,,,,,,,,,,,,,,,,,,,,,,840.0841,840.2825,840.2827,840.7825,,,,,,,,,,,,,,1.9867,1,,,,,,,,,,,,,,m,,,,,,,,,,,,,,,,119,0,840.7832,842.7826,m,1,1.9867,,[],[],[],[],[],[],[],842.7827,844.7826,844.7827,844.7828,[],[],[],[],[],[],[],,844.7828,844.7828,-0.047465826,-0.406215996,0,0,0,,0,118,118,112,1,1,word,LIBERAL,cursive,liberal_c.png,,,,,
,,,,32080,001,2025-10-19_12h26.55.434,HW_LDT_1,2024.2.4,MacIntel,59.88023952,,,,,,,,,,,,,,,,,,,,,,844.784,844.9826,844.9826,845.4826,,,,,,,,,,,,,,4.4725,1,,,,,,,,,,,,,,m,,,,,,,,,,,,,,,,120,0,845.4832,849.9658,m,1,4.4725,,[],[],[],[],[],[],[],849.9659,851.9658,851.9659,851.9661,[],[],[],[],[],[],[],,851.9662,851.9663,-0.047465826,-0.406215996,0,0,0,,0,119,119,153,1,1,word,STOLEN,print,stolen_p.png,,,,,
,,,,32080,001,2025-10-19_12h26.55.434,HW_LDT_1,2024.2.4,MacIntel,59.88023952,,,,,,,,,,,,,,,,,,,,,,851.9676,852.1659,852.166,852.666,,,,,,,,,,,,,,5.3489,1,,,,,,,,,,,,,,z,,,,,,,,,,,,,,,,121,0,852.6665,858.0167,z,1,5.3489,,[],[],[],[],[],[],[],858.0168,860.016,860.0161,860.0163,[],[],[],[],[],[],[],,860.0163,860.0164,-0.04890676,-0.402828312,0,0,0,,0,120,120,59,1,1,TL,lirebal,cursive,lirebal_c.png,,,,,
,,,,32080,001,2025-10-19_12h26.55.434,HW_LDT_1,2024.2.4,MacIntel,59.88023952,,,,,,,,,,,,,,,,,,,,,,860.0177,860.216,860.2161,860.716,,,,,,,,,,,,,,13.2211,1,,,,,,,,,,,,,,z,,,,,,,,,,,,,,,,122,0,860.7166,873.9496,z,1,13.2211,,[],[],[],[],[],[],[],873.9498,875.9496,875.9497,875.9499,[],[],[],[],[],[],[],,875.95,875.9502,-0.055061548,-0.398650027,0,0,0,,0,121,121,44,1,1,TL,cateferia,cursive,cateferia_c.png,,,,,
,,,,32080,001,2025-10-19_12h26.55.434,HW_LDT_1,2024.2.4,MacIntel,59.88023952,,,,,,,,,,,,,,,,,,,,,,875.9518,876.1495,876.1496,876.649,,,,,,,,,,,,,,2.5309,1,,,,,,,,,,,,,,m,,,,,,,,,,,,,,,,123,0,876.6498,879.1819,m,1,2.5309,,[],[],[],[],[],[],[],879.1819,881.1828,881.1828,881.1829,[],[],[],[],[],[],[],,881.183,881.1831,-0.056111432,-0.398365241,0,0,0,,0,122,122,117,1,1,word,MARINE,print,marine_p.png,,,,,
,,,,32080,001,2025-10-19_12h26.55.434,HW_LDT_1,2024.2.4,MacIntel,59.88023952,,,,,,,,,,,,,,,,,,,,,,881.1844,881.3827,881.3827,881.8827,,,,,,,,,,,,,,1.2714,1,,,,,,,,,,,,,,m,,,,,,,,,,,,,,,,124,1,881.8833,883.1661,m,1,1.2714,,[],[],[],[],[],[],[],883.1662,885.1658,885.1658,886.1662,[],[],[],[],[],[],[],z,886.1663,886.1665,-0.056111432,-0.398365241,0,0,0,,0,123,123,93,1,1,word,CEREMONY,cursive,ceremony_c.png,0.9892,,,,
,,,,32080,001,2025-10-19_12h26.55.434,HW_LDT_1,2024.2.4,MacIntel,59.88023952,,,,,,,,,,,,,,,,,,,,,,886.1675,886.3662,886.3663,886.8661,,,,,,,,,,,,,,2.0821,1,,,,,,,,,,,,,,m,,,,,,,,,,,,,,,,125,0,886.8668,888.9499,m,1,2.0821,,[],[],[],[],[],[],[],888.95,890.9495,890.9496,890.9498,[],[],[],[],[],[],[],,890.9499,890.9499,-0.056111432,-0.398365241,0,0,0,,0,124,124,80,1,1,word,ACADEMY,cursive,academy_c.png,,,,,
,,,,32080,001,2025-10-19_12h26.55.434,HW_LDT_1,2024.2.4,MacIntel,59.88023952,,,,,,,,,,,,,,,,,,,,,,890.9514,891.1495,891.1495,891.65,,,,,,,,,,,,,,1.6238,1,,,,,,,,,,,,,,z,,,,,,,,,,,,,,,,126,0,891.6504,893.2826,z,1,1.6238,,[],[],[],[],[],[],[],893.2827,895.2829,895.283,895.2831,[],[],[],[],[],[],[],,895.2832,895.2833,-0.052009657,-0.381184542,0,0,0,,0,125,125,41,1,1,TL,bevoled,print,bevoled_p.png,,,,,
,,,,32080,001,2025-10-19_12h26.55.434,HW_LDT_1,2024.2.4,MacIntel,59.88023952,,,,,,,,,,,,,,,,,,,,,,895.2846,895.4828,895.4829,895.9829,,,,,,,,,,,,,,1.2207,1,,,,,,,,,,,,,,z,,,,,,,,,,,,,,,,127,0,895.9835,897.2163,z,1,1.2207,,[],[],[],[],[],[],[],897.2164,899.2162,899.2163,899.2166,[],[],[],[],[],[],[],,899.2166,899.2167,-0.05226469,-0.381184542,0,0,0,,0,126,126,79,1,1,TL,veretan,print,veretan_p.png,,,,,
,,,,32080,001,2025-10-19_12h26.55.434,HW_LDT_1,2024.2.4,MacIntel,59.88023952,,,,,,,,,,,,,,,,,,,,,,899.218,899.4163,899.4163,899.9162,,,,,,,,,,,,,,2.8389,1,,,,,,,,,,,,,,m,,,,,,,,,,,,,,,,128,0,899.9169,902.7663,m,1,2.8389,,[],[],[],[],[],[],[],902.7664,904.7663,904.7664,904.7666,[],[],[],[],[],[],[],,904.7667,904.7667,-0.057518362,-0.378136902,0,0,0,,0,127,127,115,1,1,word,LOGICAL,cursive,logical_c.png,,,,,
,,,,32080,001,2025-10-19_12h26.55.434,HW_LDT_1,2024.2.4,MacIntel,59.88023952,,,,,,,,,,,,,,,,,,,,,,904.7682,904.9663,904.9663,905.4662,,,,,,,,,,,,,,17.9698,1,,,,,,,,,,,,,,m,,,,,,,,,,,,,,,,129,0,905.467,923.4497,m,1,17.9698,,[],[],[],[],[],[],[],923.4497,925.4497,925.4497,925.45,[],[],[],[],[],[],[],,925.4501,925.4502,-0.059796654,-0.378153904,0,0,0,,0,128,128,120,1,1,word,MILITARY,print,military_p.png,,,,,
,,,,32080,001,2025-10-19_12h26.55.434,HW_LDT_1,2024.2.4,MacIntel,59.88023952,,,,,,,,,,,,,,,,,,,,,,925.4516,925.6497,925.6497,926.1497,,,,,,,,,,,,,,1.8981,1,,,,,,,,,,,,,,z,,,,,,,,,,,,,,,,130,0,926.1503,928.0493,z,1,1.8981,,[],[],[],[],[],[],[],928.0493,930.0497,930.0497,930.0499,[],[],[],[],[],[],[],,930.05,930.0501,-0.059796654,-0.378153904,0,0,0,,0,129,129,31,1,1,RL,reconal,cursive,reconal_c.png,,,,,
,,,,32080,001,2025-10-19_12h26.55.434,HW_LDT_1,2024.2.4,MacIntel,59.88023952,,,,,,,,,,,,,,,,,,,,,,930.0516,930.2499,930.25,930.7497,,,,,,,,,,,,,,7.9871,1,,,,,,,,,,,,,,z,,,,,,,,,,,,,,,,131,1,930.7505,938.7498,z,1,7.9871,,[],[],[],[],[],[],[],938.7499,940.7498,940.7498,941.5334,[],[],[],[],[],[],[],z,941.5335,941.5336,-0.064255475,-0.381554339,0,0,0,,0,130,130,54,1,1,TL,distupe,cursive,distupe_c.png,0.7827,,,,
,,,,32080,001,2025-10-19_12h26.55.434,HW_LDT_1,2024.2.4,MacIntel,59.88023952,,,,,,,,,,,,,,,,,,,,,,941.535,941.7331,941.7332,942.2332,,,,,,,,,,,,,,1.6487,1,,,,,,,,,,,,,,z,,,,,,,,,,,,,,,,132,0,942.2339,943.8838,z,1,1.6487,,[],[],[],[],[],[],[],943.884,945.8831,945.8831,945.8834,[],[],[],[],[],[],[],,945.8834,945.8835,-0.064255475,-0.381554339,0,0,0,,0,131,131,28,1,1,RL,renutal,print,renutal_p.png,,,,,
,,,,32080,001,2025-10-19_12h26.55.434,HW_LDT_1,2024.2.4,MacIntel,59.88023952,,,,,,,,,,,,,,,,,,,,,,945.8849,946.0831,946.0831,946.5831,,,,,,,,,,,,,,2.6205,1,,,,,,,,,,,,,,z,,,,,,,,,,,,,,,,133,0,946.5837,949.2166,z,1,2.6205,,[],[],[],[],[],[],[],949.2167,951.2165,951.2166,951.2169,[],[],[],[],[],[],[],,951.2169,951.217,-0.064255475,-0.381554339,0,0,0,,0,132,132,45,1,1,TL,cacapity,print,cacapity_p.png,,,,,
,,,,32080,001,2025-10-19_12h26.55.434,HW_LDT_1,2024.2.4,MacIntel,59.88023952,,,,,,,,,,,,,,,,,,,,,,951.2184,951.4165,951.4166,951.9165,,,,,,,,,,,,,,2.9201,1,,,,,,,,,,,,,,z,,,,,,,,,,,,,,,,134,0,951.9174,954.8499,z,1,2.9201,,[],[],[],[],[],[],[],954.8499,956.8498,956.8498,956.8501,[],[],[],[],[],[],[],,956.8502,956.8503,-0.064255475,-0.381554339,0,0,0,,0,133,133,9,1,1,RL,docirant,cursive,docirant_c.png,,,,,
,,,,32080,001,2025-10-19_12h26.55.434,HW_LDT_1,2024.2.4,MacIntel,59.88023952,,,,,,,,,,,,,,,,,,,,,,956.8516,957.0498,957.0499,957.5499,,,,,,,,,,,,,,1.1043,1,,,,,,,,,,,,,,z,,,,,,,,,,,,,,,,135,0,957.5505,958.6661,z,1,1.1043,,[],[],[],[],[],[],[],958.6662,960.6665,960.6665,960.6667,[],[],[],[],[],[],[],,960.6668,960.667,-0.064255475,-0.381554339,0,0,0,,0,134,134,5,1,1,RL,cobeny,cursive,cobeny_c.png,,,,,
,,,,32080,001,2025-10-19_12h26.55.434,HW_LDT_1,2024.2.4,MacIntel,59.88023952,,,,,,,,,,,,,,,,,,,,,,960.6682,960.8666,960.8667,961.3665,,,,,,,,,,,,,,0.8707,1,,,,,,,,,,,,,,z,,,,,,,,,,,,,,,,136,1,961.3672,962.2499,z,1,0.8707,,[],[],[],[],[],[],[],962.25,964.2499,964.2499,965.7159,[],[],[],[],[],[],[],m,965.716,965.716,-0.064008943,-0.381554339,0,0,0,,0,135,135,16,1,1,RL,marmipal,print,marmipal_p.png,1.4558,,,,
,,,,32080,001,2025-10-19_12h26.55.434,HW_LDT_1,2024.2.4,MacIntel,59.88023952,,,,,,,,,,,,,,,,,,,,,,965.7171,965.9165,965.9166,966.4167,,,,,,,,,,,,,,2.4407,0,,,,,,,,,,,,,,m,,,,,,,,,,,,,,,,137,0,966.4171,968.8668,z,0,2.4407,,[],[],[],[],[],[],[],968.867,970.8658,970.8658,970.866,[],[],[],[],[],[],[],,970.866,970.8661,-0.064008943,-0.381554339,0,0,0,,0,136,136,148,1,1,word,SALINE,print,saline_p.png,,,,,
,,,,32080,001,2025-10-19_12h26.55.434,HW_LDT_1,2024.2.4,MacIntel,59.88023952,,,,,,,,,,,,,,,,,,,,,,970.8674,971.0666,971.0666,971.5665,,,,,,,,,,,,,,0.9871,1,,,,,,,,,,,,,,z,,,,,,,,,,,,,,,,138,0,971.5671,972.5666,z,1,0.9871,,[],[],[],[],[],[],[],972.5667,974.5666,974.5666,974.5668,[],[],[],[],[],[],[],,974.5669,974.567,-0.064259725,-0.381554339,0,0,0,,0,137,137,12,1,1,RL,ebiwent,print,ebiwent_p.png,,,,,
,,,,32080,001,2025-10-19_12h26.55.434,HW_LDT_1,2024.2.4,MacIntel,59.88023952,,,,,,,,,,,,,,,,,,,,,,974.5682,974.7665,974.7666,975.2666,,,,,,,,,,,,,,2.7811,1,,,,,,,,,,,,,,z,,,,,,,,,,,,,,,,139,0,975.2671,978.0497,z,1,2.7811,,[],[],[],[],[],[],[],978.0497,980.05,980.05,980.0502,[],[],[],[],[],[],[],,980.0503,980.0503,-0.066223477,-0.393264588,0,0,0,,0,138,138,3,1,1,RL,casena,cursive,casena_c.png,,,,,
,,,,32080,001,2025-10-19_12h26.55.434,HW_LDT_1,2024.2.4,MacIntel,59.88023952,,,,,,,,,,,,,,,,,,,,,,980.0516,980.2499,980.25,980.7498,,,,,,,,,,,,,,6.7212,1,,,,,,,,,,,,,,z,,,,,,,,,,,,,,,,140,0,980.7503,987.4835,z,1,6.7212,,[],[],[],[],[],[],[],987.4836,989.4834,989.4834,989.4837,[],[],[],[],[],[],[],,989.4838,989.4839,-0.071379387,-0.391700388,0,0,0,,0,139,139,48,1,1,TL,cemerony,cursive,cemerony_c.png,,,,,
,,,,32080,001,2025-10-19_12h26.55.434,HW_LDT_1,2024.2.4,MacIntel,59.88023952,,,,,,,,,,,,,,,,,,,,,,989.4851,989.6834,989.6834,990.1829,,,,,,,,,,,,,,1.6551,1,,,,,,,,,,,,,,m,,,,,,,,,,,,,,,,141,0,990.1836,991.8501,m,1,1.6551,,[],[],[],[],[],[],[],991.8501,993.8503,993.8503,993.8504,[],[],[],[],[],[],[],,993.8505,993.8506,-0.074558794,-0.391122314,0,0,0,,0,140,140,135,1,1,word,QUALITY,cursive,quality_c.png,,,,,
,,,,32080,001,2025-10-19_12h26.55.434,HW_LDT_1,2024.2.4,MacIntel,59.88023952,,,,,,,,,,,,,,,,,,,,,,993.852,994.05,994.0501,994.55,,,,,,,,,,,,,,2.6708,1,,,,,,,,,,,,,,m,,,,,,,,,,,,,,,,142,0,994.5506,997.2334,m,1,2.6708,,[],[],[],[],[],[],[],997.2335,999.2335,999.2335,999.2337,[],[],[],[],[],[],[],,999.2337,999.2338,-0.074512038,-0.390097933,0,0,0,,0,141,141,142,1,1,word,REMOTE,print,remote_p.png,,,,,
,,,,32080,001,2025-10-19_12h26.55.434,HW_LDT_1,2024.2.4,MacIntel,59.88023952,,,,,,,,,,,,,,,,,,,,,,999.2348,999.4329,999.4329,999.9334,,,,,,,,,,,,,,2.2205,1,,,,,,,,,,,,,,z,,,,,,,,,,,,,,,,143,0,999.9341,1002.1668,z,1,2.2205,,[],[],[],[],[],[],[],1002.1669,1004.1667,1004.1667,1004.1669,[],[],[],[],[],[],[],,1004.1669,1004.167,-0.065772919,-0.397260099,0,0,0,,0,142,142,58,1,1,TL,incidate,cursive,incidate_c.png,,,,,
,,,,32080,001,2025-10-19_12h26.55.434,HW_LDT_1,2024.2.4,MacIntel,59.88023952,,,,,,,,,,,,,,,,,,,,,,1004.168,1004.3669,1004.367,1004.8671,,,,,,,,,,,,,,4.332,1,,,,,,,,,,,,,,m,,,,,,,,,,,,,,,,144,0,1004.8677,1009.2007,m,1,4.332,,[],[],[],[],[],[],[],1009.2008,1011.2003,1011.2004,1011.2006,[],[],[],[],[],[],[],,1011.2006,1011.2007,-0.068365751,-0.397765914,0,0,0,,0,143,143,111,1,1,word,INDICATE,cursive,indicate_c.png,,,,,
,,,,32080,001,2025-10-19_12h26.55.434,HW_LDT_1,2024.2.4,MacIntel,59.88023952,,,,,,,,,,,,,,,,,,,,,,1011.2022,1011.4003,1011.4004,1011.8996,,,,,,,,,,,,,,4.3317,1,,,,,,,,,,,,,,z,,,,,,,,,,,,,,,,145,0,1011.9002,1016.2333,z,1,4.3317,,[],[],[],[],[],[],[],1016.2333,1018.2335,1018.2336,1018.2337,[],[],[],[],[],[],[],,1018.2338,1018.2339,-0.070648293,-0.397765914,0,0,0,,0,144,144,38,1,1,RL,stopave,cursive,stopave_c.png,,,,,
,,,,32080,001,2025-10-19_12h26.55.434,HW_LDT_1,2024.2.4,MacIntel,59.88023952,,,,,,,,,,,,,,,,,,,,,,1018.2355,1018.4328,1018.4329,1018.9335,,,,,,,,,,,,,,1.4304,1,,,,,,,,,,,,,,m,,,,,,,,,,,,,,,,146,0,1018.9343,1020.3669,m,1,1.4304,,[],[],[],[],[],[],[],1020.367,1022.3668,1022.3669,1022.3672,[],[],[],[],[],[],[],,1022.3672,1022.3674,-0.071664173,-0.397765914,0,0,0,,0,145,145,152,1,1,word,SPECIMEN,cursive,specimen_c.png,,,,,
,,,,32080,001,2025-10-19_12h26.55.434,HW_LDT_1,2024.2.4,MacIntel,59.88023952,,,,,,,,,,,,,,,,,,,,,,1022.3686,1022.5669,1022.567,1023.0668,,,,,,,,,,,,,,2.0656,1,,,,,,,,,,,,,,z,,,,,,,,,,,,,,,,147,0,1023.0675,1025.1344,z,1,2.0656,,[],[],[],[],[],[],[],1025.1344,1027.1336,1027.1337,1027.134,[],[],[],[],[],[],[],,1027.134,1027.1342,-0.067698415,-0.394561004,0,0,0,,0,146,146,22,1,1,RL,patisic,print,patisic_p.png,,,,,
,,,,32080,001,2025-10-19_12h26.55.434,HW_LDT_1,2024.2.4,MacIntel,59.88023952,,,,,,,,,,,,,,,,,,,,,,1027.1355,1027.3336,1027.3337,1027.8336,,,,,,,,,,,,,,1.6237,1,,,,,,,,,,,,,,m,,,,,,,,,,,,,,,,148,1,1027.8344,1029.467,m,1,1.6237,,[],[],[],[],[],[],[],1029.4671,1031.467,1031.4671,1034.7002,[],[],[],[],[],[],[],z,1034.7003,1034.7005,-0.067698415,-0.394042437,0,0,0,,0,147,147,150,1,1,word,SENTIMENT,cursive,sentiment_c.png,3.2308,,,,
,,,,32080,001,2025-10-19_12h26.55.434,HW_LDT_1,2024.2.4,MacIntel,59.88023952,,,,,,,,,,,,,,,,,,,,,,1034.7018,1034.9002,1034.9003,1035.4003,,,,,,,,,,,,,,2.603,1,,,,,,,,,,,,,,m,,,,,,,,,,,,,,,,149,0,1035.4009,1038.0172,m,1,2.603,,[],[],[],[],[],[],[],1038.0173,1040.017,1040.017,1040.0174,[],[],[],[],[],[],[],,1040.0175,1040.0175,-0.067949197,-0.394042437,0,0,0,,0,148,148,144,1,1,word,RESIDENT,print,resident_p.png,,,,,
,,,,32080,001,2025-10-19_12h26.55.434,HW_LDT_1,2024.2.4,MacIntel,59.88023952,,,,,,,,,,,,,,,,,,,,,,1040.0189,1040.217,1040.217,1040.717,,,,,,,,,,,,,,0.814,1,,,,,,,,,,,,,,z,,,,,,,,,,,,,,,,150,0,1040.7177,1041.534,z,1,0.814,,[],[],[],[],[],[],[],1041.534,1043.5336,1043.5337,1043.5338,[],[],[],[],[],[],[],,1043.5339,1043.5341,-0.067949197,-0.394042437,0,0,0,,0,149,149,30,1,1,RL,relone,print,relone_p.png,,,,,
,,,,32080,001,2025-10-19_12h26.55.434,HW_LDT_1,2024.2.4,MacIntel,59.88023952,,,,,,,,,,,,,,,,,,,,,,1043.5354,1043.7338,1043.7338,1044.2337,,,,,,,,,,,,,,2.6744,1,,,,,,,,,,,,,,z,,,,,,,,,,,,,,,,151,0,1044.2342,1046.9169,z,1,2.6744,,[],[],[],[],[],[],[],1046.917,1048.917,1048.9171,1048.9174,[],[],[],[],[],[],[],,1048.9174,1048.9176,-0.068705794,-0.394042437,0,0,0,,0,150,150,57,1,1,TL,hetirage,cursive,hetirage_c.png,,,,,
,,,,32080,001,2025-10-19_12h26.55.434,HW_LDT_1,2024.2.4,MacIntel,59.88023952,,,,,,,,,,,,,,,,,,,,,,1048.9189,1049.117,1049.1171,1049.6169,,,,,,,,,,,,,,0.9241,0,,,,,,,,,,,,,,m,,,,,,,,,,,,,,,,152,0,1049.6178,1050.5505,z,0,0.9241,,[],[],[],[],[],[],[],1050.5506,1052.5504,1052.5505,1052.5508,[],[],[],[],[],[],[],,1052.5508,1052.5509,-0.068705794,-0.394042437,0,0,0,,0,151,151,122,1,1,word,MOBILE,cursive,mobile_c.png,,,,,
,,,,32080,001,2025-10-19_12h26.55.434,HW_LDT_1,2024.2.4,MacIntel,59.88023952,,,,,,,,,,,,,,,,,,,,,,1052.5522,1052.7504,1052.7505,1053.2504,,,,,,,,,,,,,,3.7539,1,,,,,,,,,,,,,,z,,,,,,,,,,,,,,,,153,0,1053.2511,1057.0172,z,1,3.7539,,[],[],[],[],[],[],[],1057.0173,1059.0169,1059.0169,1059.017,[],[],[],[],[],[],[],,1059.017,1059.017,-0.070984086,-0.39179815,0,0,0,,0,152,152,76,1,1,TL,stragety,cursive,stragety_c.png,,,,,
,,,,32080,001,2025-10-19_12h26.55.434,HW_LDT_1,2024.2.4,MacIntel,59.88023952,,,,,,,,,,,,,,,,,,,,,,1059.0177,1059.217,1059.2171,1059.7171,,,,,,,,,,,,,,0.8374,1,,,,,,,,,,,,,,z,,,,,,,,,,,,,,,,154,1,1059.7177,1060.5671,z,1,0.8374,,[],[],[],[],[],[],[],1060.5672,1062.5671,1062.5671,1064.3505,[],[],[],[],[],[],[],z,1064.3506,1064.3507,-0.069415635,-0.390365717,0,0,0,,0,153,153,13,1,1,RL,linefal,print,linefal_p.png,1.7821,,,,
,,,,32080,001,2025-10-19_12h26.55.434,HW_LDT_1,2024.2.4,MacIntel,59.88023952,,,,,,,,,,,,,,,,,,,,,,1064.3522,1064.5504,1064.5504,1065.0498,,,,,,,,,,,,,,2.7156,0,,,,,,,,,,,,,,m,,,,,,,,,,,,,,,,155,0,1065.0504,1067.7672,z,0,2.7156,,[],[],[],[],[],[],[],1067.7672,1069.7671,1069.7671,1069.7674,[],[],[],[],[],[],[],,1069.7674,1069.7675,-0.069415635,-0.390365717,0,0,0,,0,154,154,134,1,1,word,QUALIFY,cursive,qualify_c.png,,,,,
,,,,32080,001,2025-10-19_12h26.55.434,HW_LDT_1,2024.2.4,MacIntel,59.88023952,,,,,,,,,,,,,,,,,,,,,,1069.7687,1069.9663,1069.9664,1070.4671,,,,,,,,,,,,,,1.3476,1,,,,,,,,,,,,,,z,,,,,,,,,,,,,,,,156,0,1070.4678,1071.8172,z,1,1.3476,,[],[],[],[],[],[],[],1071.8172,1073.8171,1073.8171,1073.8175,[],[],[],[],[],[],[],,1073.8175,1073.8176,-0.069666417,-0.390365717,0,0,0,,0,155,155,62,1,1,TL,mitilary,print,mitilary_p.png,,,,,
,,,,32080,001,2025-10-19_12h26.55.434,HW_LDT_1,2024.2.4,MacIntel,59.88023952,,,,,,,,,,,,,,,,,,,,,,1073.8189,1074.0171,1074.0171,1074.5171,,,,,,,,,,,,,,0.9542,1,,,,,,,,,,,,,,z,,,,,,,,,,,,,,,,157,0,1074.5177,1075.4838,z,1,0.9542,,[],[],[],[],[],[],[],1075.4839,1077.4838,1077.4839,1077.4842,[],[],[],[],[],[],[],,1077.4842,1077.4843,-0.069666417,-0.390365717,0,0,0,,0,156,156,51,1,1,TL,corevage,print,corevage_p.png,,,,,
,,,,32080,001,2025-10-19_12h26.55.434,HW_LDT_1,2024.2.4,MacIntel,59.88023952,,,,,,,,,,,,,,,,,,,,,,1077.4856,1077.6838,1077.6838,1078.1838,,,,,,,,,,,,,,0.6884,1,,,,,,,,,,,,,,m,,,,,,,,,,,,,,,,158,0,1078.1844,1078.8839,m,1,0.6884,,[],[],[],[],[],[],[],1078.8839,1080.8838,1080.8838,1080.884,[],[],[],[],[],[],[],,1080.8841,1080.8842,-0.069666417,-0.390365717,0,0,0,,0,157,157,145,1,1,word,RESUME,print,resume_p.png,,,,,
,,,,32080,001,2025-10-19_12h26.55.434,HW_LDT_1,2024.2.4,MacIntel,59.88023952,,,,,,,,,,,,,,,,,,,,,,1080.8854,1081.0838,1081.0838,1081.5838,,,,,,,,,,,,,,1.1321,1,,,,,,,,,,,,,,m,,,,,,,,,,,,,,,,159,1,1081.5843,1082.7177,m,1,1.1321,,[],[],[],[],[],[],[],1082.7178,1084.7172,1084.7173,1086.1506,[],[],[],[],[],[],[],z,1086.1508,1086.1509,-0.069666417,-0.390365717,0,0,0,,0,158,158,132,1,1,word,PROPOSAL,cursive,proposal_c.png,1.4212,,,,
,,,,32080,001,2025-10-19_12h26.55.434,HW_LDT_1,2024.2.4,MacIntel,59.88023952,,,,,,,,,,,,,,,,,,,,,,1086.1521,1086.3505,1086.3506,1086.8505,,,,,,,,,,,,,,2.0037,1,,,,,,,,,,,,,,z,,,,,,,,,,,,,,,,160,0,1086.8512,1088.8672,z,1,2.0037,,[],[],[],[],[],[],[],1088.8673,1090.8672,1090.8673,1090.8674,[],[],[],[],[],[],[],,1090.8675,1090.8676,-0.069666417,-0.390365717,0,0,0,,0,159,159,20,1,1,RL,nunewical,print,nunewical_p.png,,,,,
,,,,32080,001,2025-10-19_12h26.55.434,HW_LDT_1,2024.2.4,MacIntel,59.88023952,,,,,,,,,,,,,,,,,,,,,,,,,,,,,,,,,,,,,,,,,,,,,,,,,,,,,,,,,,,,,,,,,,,,,,,,,,,,,,,,,,,,,,,,,,,,,,,,,,,,,,,,,,,,,,,,,,,,,,1090.8822,1095.8676
