counterbalance_lists.group,counterbalance_lists.remaining,get_list.started,get_list.stopped,participant,session,date,expName,psychopyVersion,OS,frameRate,Instructions.started,Instructions.stopped,key_resp.keys,key_resp.rt,key_resp.duration,instr_done_touch.x,instr_done_touch.y,instr_done_touch.leftButton,instr_done_touch.midButton,instr_done_touch.rightButton,start_instr.thisRepN,start_instr.thisTrialN,start_instr.thisN,start_instr.thisIndex,start_instr.ran,pageN,phase,instruct_text,has_image,instruct_image,showProgress.started,showProgress.stopped,fix.started,fix.stopped,prac.started,prac.stopped,response.keys,response.corr,response.rt,response.duration,touch_resp.x,touch_resp.y,touch_resp.leftButton,touch_resp.midButton,touch_resp.rightButton,touch_resp.time,touch_resp.clicked_name,rt,corr,feedback.started,feedback.stopped,trials.thisRepN,trials.thisTrialN,trials.thisN,trials.thisIndex,trials.ran,TrialID,StimulusType,Condition,PrimeDuration,Prime,Target,corrAns,Instructions_expt.started,Instructions_expt.stopped,key_resp_3.keys,key_resp_3.rt,key_resp_3.duration,instr_done_touch_3.x,instr_done_touch_3.y,instr_done_touch_3.leftButton,instr_done_touch_3.midButton,instr_done_touch_3.rightButton,instr_experiment.thisRepN,instr_experiment.thisTrialN,instr_experiment.thisN,instr_experiment.thisIndex,instr_experiment.ran,trialID,flag,maintask.started,maintask.stopped,key_resp_2.keys,key_resp_2.corr,key_resp_2.rt,key_resp_2.duration,targ_click.x,targ_click.y,targ_click.leftButton,targ_click.midButton,targ_click.rightButton,targ_click.time,targ_click.clicked_name,ITI.started,ITI.stopped,probe.started,probe.stopped,click_probe.x,click_probe.y,click_probe.leftButton,click_probe.midButton,click_probe.rightButton,click_probe.time,click_probe.clicked_name,key_resp_probe.keys,Break.started,Break.stopped,break_done_touch.x,break_done_touch.y,break_done_touch.leftButton,break_done_touch.midButton,break_done_touch.rightButton,break_done_keyboard.keys,list4_trials.thisRepN,list4_trials.thisTrialN,list4_trials.thisN,list4_trials.thisIndex,list4_trials.ran,list_id,item_type,string,font,stim_file,key_resp_probe.rt,key_resp_probe.duration,break_done_touch.clicked_name,End.started,End.stopped
list4,,0.4363,0.4363,32088,001,2025-11-08_19h06.10.545,HW_LDT_1,2024.2.4,MacIntel,128.2051282,,,,,,,,,,,,,,,,,,,,,,,,,,,,,,,,,,,,,,,,,,,,,,,,,,,,,,,,,,,,,,,,,,,,,,,,,,,,,,,,,,,,,,,,,,,,,,,,,,,,,,,,,,,,,,,,,,,,,,
,,,,32088,001,2025-11-08_19h06.10.545,HW_LDT_1,2024.2.4,MacIntel,128.2051282,0.4496,46.2561,space,45.7883,0.0009,-0.187195403,0.025816649,0,0,0,0,0,0,0,1,1,instructions,"INSTRUCTIONS
At the start of each trial, look at the plus sign  (+) in the center of the screen.  This tells you that a trial is about to begin and where to look. Second, the plus sign will disappear and a string of letters will appear. Your task is to determine if the string of letters is a word or not. If the item is a word press the M key (on keyboard)  or touch the word button (phone/tablet).  If the item is not a word,  press the  Z key (on keyboard)  or touch the nonword button (on phone/tablet). The items will be presented for a short time. 
Press the space bar or touch  continue.",0,,,,,,,,,,,,,,,,,,,,,,,,,,,,,,,,,,,,,,,,,,,,,,,,,,,,,,,,,,,,,,,,,,,,,,,,,,,,,,,,,,,,,,,,,,,,,,,,,,,
,,,,32088,001,2025-11-08_19h06.10.545,HW_LDT_1,2024.2.4,MacIntel,128.2051282,46.262,47.2218,space,0.874,,-0.054082422,-0.380276936,0,0,0,0,1,1,1,1,2,instructions,"If your device has a keyboard, press the 'Z' key for nonwords and the 'M' key for words.





Press the space bar or touch the button below to continue.",0,keyboard-example.gif,,,,,,,,,,,,,,,,,,,,,,,,,,,,,,,,,,,,,,,,,,,,,,,,,,,,,,,,,,,,,,,,,,,,,,,,,,,,,,,,,,,,,,,,,,,,,,,,,,
,,,,32088,001,2025-11-08_19h06.10.545,HW_LDT_1,2024.2.4,MacIntel,128.2051282,47.2228,47.7829,space,0.5487,,-0.054082422,-0.380276936,0,0,0,0,2,2,2,1,3,instructions,"If you are using a touchscreen only device, use the buttons on the screen. Do not use the mouse.





Press the space bar or touch the button below to continue.",0,touchscreen-example.gif,,,,,,,,,,,,,,,,,,,,,,,,,,,,,,,,,,,,,,,,,,,,,,,,,,,,,,,,,,,,,,,,,,,,,,,,,,,,,,,,,,,,,,,,,,,,,,,,,,
,,,,32088,001,2025-11-08_19h06.10.545,HW_LDT_1,2024.2.4,MacIntel,128.2051282,47.7845,48.305,space,0.5131,,-0.054082422,-0.380276936,0,0,0,0,3,3,3,1,4,instructions,"It is very important that you respond as quickly and accurately as possible, as each letter string will only be on the screen for two seconds. If you do not respond within this time, the message 'Too slow!' will be displayed and the experiment will progress to the next letter string. The first 20 trials will be practice trials and you will receive feedback on your answers. 

Press the space bar or touch the button below to start the practice trials.",0,,,,,,,,,,,,,,,,,,,,,,,,,,,,,,,,,,,,,,,,,,,,,,,,,,,,,,,,,,,,,,,,,,,,,,,,,,,,,,,,,,,,,,,,,,,,,,,,,,,
,,,,32088,001,2025-11-08_19h06.10.545,HW_LDT_1,2024.2.4,MacIntel,128.2051282,,,,,,,,,,,,,,,,,,,,,48.321,48.505,48.5052,49.0051,49.0053,53.6556,m,0,4.6424,,[],[],[],[],[],[],[],4.6424,0,53.656,54.1551,0,0,0,12,1,1013,NW,UN,33,adveil,SPRINY,z,,,,,,,,,,,,,,,,,,,,,,,,,,,,,,,,,,,,,,,,,,,,,,,,,,,,,,,,,,,,,,,,,
,,,,32088,001,2025-11-08_19h06.10.545,HW_LDT_1,2024.2.4,MacIntel,128.2051282,,,,,,,,,,,,,,,,,,,,,54.1564,54.3544,54.3544,54.8555,54.8564,55.6716,z,0,0.8092,,[],[],[],[],[],[],[],0.8092,0,55.6718,56.1722,0,1,1,0,1,1001,WORD,"ID",33,utopia,UTOPIA,m,,,,,,,,,,,,,,,,,,,,,,,,,,,,,,,,,,,,,,,,,,,,,,,,,,,,,,,,,,,,,,,,,
,,,,32088,001,2025-11-08_19h06.10.545,HW_LDT_1,2024.2.4,MacIntel,128.2051282,,,,,,,,,,,,,,,,,,,,,56.1733,56.3719,56.3721,56.872,56.8728,57.1966,z,1,0.3099,,[],[],[],[],[],[],[],0.3099,1,57.1972,57.6968,0,2,2,8,1,1009,NW,"ID",33,aslert,ASLERT,z,,,,,,,,,,,,,,,,,,,,,,,,,,,,,,,,,,,,,,,,,,,,,,,,,,,,,,,,,,,,,,,,,
,,,,32088,001,2025-11-08_19h06.10.545,HW_LDT_1,2024.2.4,MacIntel,128.2051282,,,,,,,,,,,,,,,,,,,,,57.6987,57.8969,57.897,58.3968,58.3978,58.8052,m,0,0.3985,,[],[],[],[],[],[],[],0.3985,0,58.8061,59.3054,0,3,3,9,1,1010,NW,"ID",33,fariny,FARINY,z,,,,,,,,,,,,,,,,,,,,,,,,,,,,,,,,,,,,,,,,,,,,,,,,,,,,,,,,,,,,,,,,,
,,,,32088,001,2025-11-08_19h06.10.545,HW_LDT_1,2024.2.4,MacIntel,128.2051282,,,,,,,,,,,,,,,,,,,,,59.3067,59.505,59.5051,60.0052,60.0062,60.497,z,0,0.4768,,[],[],[],[],[],[],[],0.4768,0,60.4971,60.9963,0,4,4,5,1,1006,WORD,UN,33,frenzy,OBTAIN,m,,,,,,,,,,,,,,,,,,,,,,,,,,,,,,,,,,,,,,,,,,,,,,,,,,,,,,,,,,,,,,,,,
,,,,32088,001,2025-11-08_19h06.10.545,HW_LDT_1,2024.2.4,MacIntel,128.2051282,,,,,,,,,,,,,,,,,,,,,60.9975,61.1961,61.1962,61.6958,61.6964,61.7383,m,1,0.0329,,[],[],[],[],[],[],[],0.0329,1,61.7386,62.2378,0,5,5,6,1,1007,WORD,UN,16,tropic,ZOMBIE,m,,,,,,,,,,,,,,,,,,,,,,,,,,,,,,,,,,,,,,,,,,,,,,,,,,,,,,,,,,,,,,,,,
,,,,32088,001,2025-11-08_19h06.10.545,HW_LDT_1,2024.2.4,MacIntel,128.2051282,,,,,,,,,,,,,,,,,,,,,62.2392,62.4386,62.4387,62.9387,62.9396,63.0967,m,1,0.1461,,[],[],[],[],[],[],[],0.1461,1,63.0967,63.5964,0,6,6,1,1,1002,WORD,"ID",33,adjust,ADJUST,m,,,,,,,,,,,,,,,,,,,,,,,,,,,,,,,,,,,,,,,,,,,,,,,,,,,,,,,,,,,,,,,,,
,,,,32088,001,2025-11-08_19h06.10.545,HW_LDT_1,2024.2.4,MacIntel,128.2051282,,,,,,,,,,,,,,,,,,,,,63.5979,63.7967,63.7967,64.2968,64.2974,64.3708,z,0,0.0678,,[],[],[],[],[],[],[],0.0678,0,64.3712,64.8722,0,7,7,2,1,1003,WORD,"ID",16,almond,ALMOND,m,,,,,,,,,,,,,,,,,,,,,,,,,,,,,,,,,,,,,,,,,,,,,,,,,,,,,,,,,,,,,,,,,
,,,,32088,001,2025-11-08_19h06.10.545,HW_LDT_1,2024.2.4,MacIntel,128.2051282,,,,,,,,,,,,,,,,,,,,,64.8734,65.071,65.0711,65.5717,65.5723,65.68,m,1,0.0972,,[],[],[],[],[],[],[],0.0972,1,65.6806,66.1802,0,8,8,3,1,1004,WORD,"ID",16,matrix,MATRIX,m,,,,,,,,,,,,,,,,,,,,,,,,,,,,,,,,,,,,,,,,,,,,,,,,,,,,,,,,,,,,,,,,,
,,,,32088,001,2025-11-08_19h06.10.545,HW_LDT_1,2024.2.4,MacIntel,128.2051282,,,,,,,,,,,,,,,,,,,,,66.1811,66.38,66.38,66.88,66.8803,67.0052,m,0,0.1207,,[],[],[],[],[],[],[],0.1207,0,67.006,67.5052,0,9,9,11,1,1012,NW,"ID",16,rashet,RASHET,z,,,,,,,,,,,,,,,,,,,,,,,,,,,,,,,,,,,,,,,,,,,,,,,,,,,,,,,,,,,,,,,,,
,,,,32088,001,2025-11-08_19h06.10.545,HW_LDT_1,2024.2.4,MacIntel,128.2051282,,,,,,,,,,,,,,,,,,,,,67.5064,67.7049,67.705,68.205,68.2055,68.3134,m,0,0.0998,,[],[],[],[],[],[],[],0.0998,0,68.3135,68.8135,0,10,10,15,1,1016,NW,UN,16,mushed,WHAISE,z,,,,,,,,,,,,,,,,,,,,,,,,,,,,,,,,,,,,,,,,,,,,,,,,,,,,,,,,,,,,,,,,,
,,,,32088,001,2025-11-08_19h06.10.545,HW_LDT_1,2024.2.4,MacIntel,128.2051282,,,,,,,,,,,,,,,,,,,,,68.8146,69.0133,69.0133,69.5133,69.5138,69.5466,z,1,0.0204,,[],[],[],[],[],[],[],0.0204,1,69.5474,70.0467,0,11,11,10,1,1011,NW,"ID",16,inlade,INLADE,z,,,,,,,,,,,,,,,,,,,,,,,,,,,,,,,,,,,,,,,,,,,,,,,,,,,,,,,,,,,,,,,,,
,,,,32088,001,2025-11-08_19h06.10.545,HW_LDT_1,2024.2.4,MacIntel,128.2051282,,,,,,,,,,,,,,,,,,,,,70.0472,70.2466,70.2466,70.7467,70.7473,70.855,m,0,0.1007,,[],[],[],[],[],[],[],0.1007,0,70.8555,71.3551,0,12,12,13,1,1014,NW,UN,33,winfer,ROUPET,z,,,,,,,,,,,,,,,,,,,,,,,,,,,,,,,,,,,,,,,,,,,,,,,,,,,,,,,,,,,,,,,,,
,,,,32088,001,2025-11-08_19h06.10.545,HW_LDT_1,2024.2.4,MacIntel,128.2051282,,,,,,,,,,,,,,,,,,,,,71.3563,71.555,71.555,72.055,72.0553,72.1466,m,1,0.0862,,[],[],[],[],[],[],[],0.0862,1,72.1474,72.6466,0,13,13,7,1,1008,WORD,UN,16,hurdle,VOLUME,m,,,,,,,,,,,,,,,,,,,,,,,,,,,,,,,,,,,,,,,,,,,,,,,,,,,,,,,,,,,,,,,,,
,,,,32088,001,2025-11-08_19h06.10.545,HW_LDT_1,2024.2.4,MacIntel,128.2051282,,,,,,,,,,,,,,,,,,,,,72.6471,72.8467,72.8467,73.3466,73.3471,73.5801,m,1,0.2233,,[],[],[],[],[],[],[],0.2233,1,73.5802,74.0794,0,14,14,4,1,1005,WORD,UN,33,abound,SQUEAK,m,,,,,,,,,,,,,,,,,,,,,,,,,,,,,,,,,,,,,,,,,,,,,,,,,,,,,,,,,,,,,,,,,
,,,,32088,001,2025-11-08_19h06.10.545,HW_LDT_1,2024.2.4,MacIntel,128.2051282,,,,,,,,,,,,,,,,,,,,,74.0799,74.2796,74.2797,74.7803,74.7812,75.097,m,0,0.3027,,[],[],[],[],[],[],[],0.3027,0,75.0979,75.5969,0,15,15,14,1,1015,NW,UN,16,miaber,THRALE,z,,,,,,,,,,,,,,,,,,,,,,,,,,,,,,,,,,,,,,,,,,,,,,,,,,,,,,,,,,,,,,,,,
,,,,32088,001,2025-11-08_19h06.10.545,HW_LDT_1,2024.2.4,MacIntel,128.2051282,,,,,,,,,,,,,,,,1,end_of_practice,"You have completed the practice trials. During the experimental trials, you will not receive feedback. On some trials you will be asked to report whether the item you just saw was in cursive or print. 
Before you begin, please ensure that you are in a comfortable and quiet location and will not be disturbed for about 15 minutes, as we cannot use your data if you do not complete all the trials. 
 When you are ready to start the experimental trials, please press space or touch the button below.",,,,,,,,,,,,,,,,,,,,,,,,,,,,,,,,,,,,75.6027,76.7556,space,1.1412,,-0.207125922,-0.297809372,0,0,0,0,0,0,0,1,,,,,,,,,,,,,,,,,,,,,,,,,,,,,,,,,,,,,,,,,,,,,,,,,,
,,,,32088,001,2025-11-08_19h06.10.545,HW_LDT_1,2024.2.4,MacIntel,128.2051282,,,,,,,,,,,,,,,,,,,,,76.7689,76.9553,76.9553,77.4553,,,,,,,,,,,,,,0.2982,1,,,,,,,,,,,,,,z,,,,,,,,,,,,,,,,1,0,77.457,77.7636,z,1,0.2982,,[],[],[],[],[],[],[],77.7636,79.764,79.7642,79.7672,[],[],[],[],[],[],[],,79.7673,79.7686,-0.207125922,-0.297809372,0,0,0,,0,0,0,74,1,4,TL,rerite,print,rerite_p.png,,,,,
,,,,32088,001,2025-11-08_19h06.10.545,HW_LDT_1,2024.2.4,MacIntel,128.2051282,,,,,,,,,,,,,,,,,,,,,79.7694,79.9637,79.9638,80.4636,,,,,,,,,,,,,,0.8452,1,,,,,,,,,,,,,,z,,,,,,,,,,,,,,,,2,0,80.4641,81.3128,z,1,0.8452,,[],[],[],[],[],[],[],81.3128,83.3135,83.3136,83.3139,[],[],[],[],[],[],[],,83.314,83.3141,-0.207125922,-0.297809372,0,0,0,,0,1,1,75,1,4,TL,sanile,print,sanile_p.png,,,,,
,,,,32088,001,2025-11-08_19h06.10.545,HW_LDT_1,2024.2.4,MacIntel,128.2051282,,,,,,,,,,,,,,,,,,,,,83.3153,83.5135,83.5135,84.0135,,,,,,,,,,,,,,0.2719,0,,,,,,,,,,,,,,m,,,,,,,,,,,,,,,,3,0,84.0159,84.2886,z,0,0.2719,,[],[],[],[],[],[],[],84.2888,86.2883,86.2883,86.2883,[],[],[],[],[],[],[],,86.2883,86.2884,-0.207125922,-0.297809372,0,0,0,,0,2,2,140,1,4,word,RELATIVE,print,relative_p.png,,,,,
,,,,32088,001,2025-11-08_19h06.10.545,HW_LDT_1,2024.2.4,MacIntel,128.2051282,,,,,,,,,,,,,,,,,,,,,86.2889,86.4873,86.4873,86.9886,,,,,,,,,,,,,,0.0062,0,,,,,,,,,,,,,,m,,,,,,,,,,,,,,,,4,0,86.9892,86.997,z,0,0.0062,,[],[],[],[],[],[],[],86.9971,88.9966,88.9967,88.9968,[],[],[],[],[],[],[],,88.9968,88.9968,-0.207125922,-0.297809372,0,0,0,,0,3,3,92,1,4,word,CATEGORY,cursive,category_c.png,,,,,
,,,,32088,001,2025-11-08_19h06.10.545,HW_LDT_1,2024.2.4,MacIntel,128.2051282,,,,,,,,,,,,,,,,,,,,,88.9974,89.1964,89.1965,89.6966,,,,,,,,,,,,,,0.3608,0,,,,,,,,,,,,,,m,,,,,,,,,,,,,,,,5,0,89.6972,90.0634,z,0,0.3608,,[],[],[],[],[],[],[],90.0635,92.0635,92.0637,92.0639,[],[],[],[],[],[],[],,92.0639,92.0641,-0.207125922,-0.297809372,0,0,0,,0,4,4,128,1,4,word,PACIFIC,cursive,pacific_c.png,,,,,
,,,,32088,001,2025-11-08_19h06.10.545,HW_LDT_1,2024.2.4,MacIntel,128.2051282,,,,,,,,,,,,,,,,,,,,,92.0654,92.2635,92.2636,92.7628,,,,,,,,,,,,,,0.1352,0,,,,,,,,,,,,,,m,,,,,,,,,,,,,,,,6,0,92.7641,92.9051,z,0,0.1352,,[],[],[],[],[],[],[],92.9053,94.9052,94.9054,94.9056,[],[],[],[],[],[],[],,94.9056,94.9056,-0.207125922,-0.297809372,0,0,0,,0,5,5,89,1,4,word,CAPACITY,cursive,capacity_c.png,,,,,
,,,,32088,001,2025-11-08_19h06.10.545,HW_LDT_1,2024.2.4,MacIntel,128.2051282,,,,,,,,,,,,,,,,,,,,,94.9066,95.105,95.105,95.6055,,,,,,,,,,,,,,0.0462,1,,,,,,,,,,,,,,z,,,,,,,,,,,,,,,,7,0,95.6064,95.6551,z,1,0.0462,,[],[],[],[],[],[],[],95.6552,97.6549,97.655,97.6551,[],[],[],[],[],[],[],,97.6551,97.6552,-0.207125922,-0.297809372,0,0,0,,0,6,6,63,1,4,TL,miskate,print,miskate_p.png,,,,,
,,,,32088,001,2025-11-08_19h06.10.545,HW_LDT_1,2024.2.4,MacIntel,128.2051282,,,,,,,,,,,,,,,,,,,,,97.6555,97.855,97.8551,98.355,,,,,,,,,,,,,,0.0297,0,,,,,,,,,,,,,,z,,,,,,,,,,,,,,,,8,1,98.3557,98.3883,m,0,0.0297,,[],[],[],[],[],[],[],98.3884,100.3884,100.3884,100.5801,[],[],[],[],[],[],[],z,100.5802,100.5802,-0.207125922,-0.297809372,0,0,0,,0,7,7,41,1,4,RL,rebicent,cursive,rebicent_c.png,0.1871,,,,
,,,,32088,001,2025-11-08_19h06.10.545,HW_LDT_1,2024.2.4,MacIntel,128.2051282,,,,,,,,,,,,,,,,,,,,,100.5808,100.7803,100.7804,101.2794,,,,,,,,,,,,,,0.3052,0,,,,,,,,,,,,,,m,,,,,,,,,,,,,,,,9,0,101.2796,101.5884,z,0,0.3052,,[],[],[],[],[],[],[],101.5884,103.5887,103.5887,103.5889,[],[],[],[],[],[],[],,103.589,103.5891,-0.207125922,-0.297809372,0,0,0,,0,8,8,113,1,4,word,LITERAL,cursive,literal_c.png,,,,,
,,,,32088,001,2025-11-08_19h06.10.545,HW_LDT_1,2024.2.4,MacIntel,128.2051282,,,,,,,,,,,,,,,,,,,,,103.59,103.788,103.7882,104.2887,,,,,,,,,,,,,,0.1637,0,,,,,,,,,,,,,,z,,,,,,,,,,,,,,,,10,0,104.2893,104.4551,m,0,0.1637,,[],[],[],[],[],[],[],104.4552,106.455,106.455,106.4551,[],[],[],[],[],[],[],,106.4551,106.4552,-0.207125922,-0.297809372,0,0,0,,0,9,9,77,1,4,TL,spemicen,cursive,spemicen_c.png,,,,,
,,,,32088,001,2025-11-08_19h06.10.545,HW_LDT_1,2024.2.4,MacIntel,128.2051282,,,,,,,,,,,,,,,,,,,,,106.4555,106.655,106.655,107.1553,,,,,,,,,,,,,,0.1694,0,,,,,,,,,,,,,,m,,,,,,,,,,,,,,,,11,0,107.1559,107.3303,z,0,0.1694,,[],[],[],[],[],[],[],107.3304,109.3303,109.3304,109.3307,[],[],[],[],[],[],[],,109.3308,109.3309,-0.207125922,-0.297809372,0,0,0,,0,10,10,133,1,4,word,PROVIDE,cursive,provide_c.png,,,,,
,,,,32088,001,2025-11-08_19h06.10.545,HW_LDT_1,2024.2.4,MacIntel,128.2051282,,,,,,,,,,,,,,,,,,,,,109.3321,109.53,109.5301,110.0301,,,,,,,,,,,,,,0.0073,1,,,,,,,,,,,,,,m,,,,,,,,,,,,,,,,12,0,110.0304,110.0381,m,1,0.0073,,[],[],[],[],[],[],[],110.0382,112.0385,112.0385,112.0385,[],[],[],[],[],[],[],,112.0386,112.0386,-0.207125922,-0.297809372,0,0,0,,0,11,11,108,1,4,word,FORTUNE,cursive,fortune_c.png,,,,,
,,,,32088,001,2025-11-08_19h06.10.545,HW_LDT_1,2024.2.4,MacIntel,128.2051282,,,,,,,,,,,,,,,,,,,,,112.0393,112.2387,112.2388,112.7384,,,,,,,,,,,,,,1.6477,0,,,,,,,,,,,,,,m,,,,,,,,,,,,,,,,13,0,112.7385,114.3885,z,0,1.6477,,[],[],[],[],[],[],[],114.3885,116.3887,116.3889,116.3891,[],[],[],[],[],[],[],,116.3892,116.3894,-0.207125922,-0.297809372,0,0,0,,0,12,12,117,1,4,word,MARINE,print,marine_p.png,,,,,
,,,,32088,001,2025-11-08_19h06.10.545,HW_LDT_1,2024.2.4,MacIntel,128.2051282,,,,,,,,,,,,,,,,,,,,,116.3909,116.5889,116.589,117.0887,,,,,,,,,,,,,,0.1436,1,,,,,,,,,,,,,,m,,,,,,,,,,,,,,,,14,0,117.0894,117.2385,m,1,0.1436,,[],[],[],[],[],[],[],117.2385,119.2388,119.2388,119.239,[],[],[],[],[],[],[],,119.2391,119.2391,-0.207125922,-0.297809372,0,0,0,,0,13,13,120,1,4,word,MILITARY,print,military_p.png,,,,,
,,,,32088,001,2025-11-08_19h06.10.545,HW_LDT_1,2024.2.4,MacIntel,128.2051282,,,,,,,,,,,,,,,,,,,,,119.2401,119.4388,119.4388,119.9386,,,,,,,,,,,,,,0.113,1,,,,,,,,,,,,,,m,,,,,,,,,,,,,,,,15,1,119.9393,120.0552,m,1,0.113,,[],[],[],[],[],[],[],120.0552,122.0554,122.0555,124.1879,[],[],[],[],[],[],[],z,124.1879,124.1879,-0.207125922,-0.297809372,0,0,0,,0,14,14,98,1,4,word,CRIMINAL,cursive,criminal_c.png,2.1296,,,,
,,,,32088,001,2025-11-08_19h06.10.545,HW_LDT_1,2024.2.4,MacIntel,128.2051282,,,,,,,,,,,,,,,,,,,,,124.1883,124.3877,124.3879,124.8884,,,,,,,,,,,,,,1.2312,1,,,,,,,,,,,,,,m,,,,,,,,,,,,,,,,16,0,124.8886,126.1219,m,1,1.2312,,[],[],[],[],[],[],[],126.1219,128.122,128.122,128.1222,[],[],[],[],[],[],[],,128.1222,128.1223,-0.207125922,-0.297809372,0,0,0,,0,15,15,112,1,4,word,LIBERAL,cursive,liberal_c.png,,,,,
,,,,32088,001,2025-11-08_19h06.10.545,HW_LDT_1,2024.2.4,MacIntel,128.2051282,,,,,,,,,,,,,,,,,,,,,128.1232,128.3219,128.322,128.8214,,,,,,,,,,,,,,0.8291,1,,,,,,,,,,,,,,z,,,,,,,,,,,,,,,,17,0,128.8235,129.655,z,1,0.8291,,[],[],[],[],[],[],[],129.6551,131.6543,131.6543,131.6545,[],[],[],[],[],[],[],,131.6545,131.6546,-0.207125922,-0.297809372,0,0,0,,0,16,16,25,1,4,RL,macise,print,macise_p.png,,,,,
,,,,32088,001,2025-11-08_19h06.10.545,HW_LDT_1,2024.2.4,MacIntel,128.2051282,,,,,,,,,,,,,,,,,,,,,131.6555,131.8543,131.8543,132.3553,,,,,,,,,,,,,,0.4299,1,,,,,,,,,,,,,,z,,,,,,,,,,,,,,,,18,0,132.356,132.7884,z,1,0.4299,,[],[],[],[],[],[],[],132.7886,134.7879,134.7879,134.7882,[],[],[],[],[],[],[],,134.7882,134.7883,-0.207125922,-0.297809372,0,0,0,,0,17,17,46,1,4,RL,skofen,cursive,skofen_c.png,,,,,
,,,,32088,001,2025-11-08_19h06.10.545,HW_LDT_1,2024.2.4,MacIntel,128.2051282,,,,,,,,,,,,,,,,,,,,,134.7896,134.9887,134.9887,135.4886,,,,,,,,,,,,,,1.0795,0,,,,,,,,,,,,,,z,,,,,,,,,,,,,,,,19,0,135.4893,136.5719,m,0,1.0795,,[],[],[],[],[],[],[],136.5719,138.5719,138.572,138.5723,[],[],[],[],[],[],[],,138.5724,138.5725,-0.207125922,-0.297809372,0,0,0,,0,18,18,52,1,4,TL,cagetory,cursive,cagetory_c.png,,,,,
,,,,32088,001,2025-11-08_19h06.10.545,HW_LDT_1,2024.2.4,MacIntel,128.2051282,,,,,,,,,,,,,,,,,,,,,138.5736,138.7721,138.7721,139.272,,,,,,,,,,,,,,0.3649,1,,,,,,,,,,,,,,m,,,,,,,,,,,,,,,,20,0,139.2727,139.6385,m,1,0.3649,,[],[],[],[],[],[],[],139.6386,141.6384,141.6385,141.6385,[],[],[],[],[],[],[],,141.6385,141.6385,-0.207125922,-0.297809372,0,0,0,,0,19,19,141,1,4,word,RELIGION,print,religion_p.png,,,,,
,,,,32088,001,2025-11-08_19h06.10.545,HW_LDT_1,2024.2.4,MacIntel,128.2051282,,,,,,,,,,,,,,,,,,,,,141.6389,141.8387,141.8388,142.3374,,,,,,,,,,,,,,1.2731,1,,,,,,,,,,,,,,z,,,,,,,,,,,,,,,,21,1,142.3378,143.6135,z,1,1.2731,,[],[],[],[],[],[],[],143.6136,145.6137,145.6138,146.2137,[],[],[],[],[],[],[],z,146.2138,146.2139,-0.207125922,-0.297809372,0,0,0,,0,20,20,40,1,4,RL,reconal,print,reconal_p.png,0.5946,,,,
,,,,32088,001,2025-11-08_19h06.10.545,HW_LDT_1,2024.2.4,MacIntel,128.2051282,,,,,,,,,,,,,,,,,,,,,146.215,146.414,146.4141,146.9134,,,,,,,,,,,,,,1.4205,1,,,,,,,,,,,,,,z,,,,,,,,,,,,,,,,22,0,146.9139,148.3375,z,1,1.4205,,[],[],[],[],[],[],[],148.3375,150.3377,150.3378,150.338,[],[],[],[],[],[],[],,150.3381,150.3382,-0.207125922,-0.297809372,0,0,0,,0,21,21,58,1,4,TL,edivent,print,edivent_p.png,,,,,
,,,,32088,001,2025-11-08_19h06.10.545,HW_LDT_1,2024.2.4,MacIntel,128.2051282,,,,,,,,,,,,,,,,,,,,,150.3393,150.5388,150.5389,151.0384,,,,,,,,,,,,,,8.3993,1,,,,,,,,,,,,,,m,,,,,,,,,,,,,,,,23,0,151.0387,159.4392,m,1,8.3993,,[],[],[],[],[],[],[],159.4395,161.4386,161.4388,161.4393,[],[],[],[],[],[],[],,161.4393,161.4394,-0.207125922,-0.297809372,0,0,0,,0,22,22,116,1,4,word,MARGINAL,cursive,marginal_c.png,,,,,
,,,,32088,001,2025-11-08_19h06.10.545,HW_LDT_1,2024.2.4,MacIntel,128.2051282,,,,,,,,,,,,,,,,,,,,,161.4416,161.6378,161.6378,162.1384,,,,,,,,,,,,,,0.4726,0,,,,,,,,,,,,,,m,,,,,,,,,,,,,,,,24,0,162.1387,162.6136,z,0,0.4726,,[],[],[],[],[],[],[],162.6136,164.6137,164.6137,164.6139,[],[],[],[],[],[],[],,164.6139,164.6141,-0.207125922,-0.297809372,0,0,0,,0,23,23,150,1,4,word,SENTIMENT,print,sentiment_p.png,,,,,
,,,,32088,001,2025-11-08_19h06.10.545,HW_LDT_1,2024.2.4,MacIntel,128.2051282,,,,,,,,,,,,,,,,,,,,,164.6153,164.8129,164.8129,165.3129,,,,,,,,,,,,,,1.0077,1,,,,,,,,,,,,,,z,,,,,,,,,,,,,,,,25,1,165.3135,166.3219,z,1,1.0077,,[],[],[],[],[],[],[],166.3219,168.3209,168.3209,168.5469,[],[],[],[],[],[],[],m,168.547,168.547,-0.207125922,-0.297809372,0,0,0,,0,24,24,66,1,4,TL,opmital,print,opmital_p.png,0.2218,,,,
,,,,32088,001,2025-11-08_19h06.10.545,HW_LDT_1,2024.2.4,MacIntel,128.2051282,,,,,,,,,,,,,,,,,,,,,168.548,168.7468,168.7468,169.2468,,,,,,,,,,,,,,0.1043,0,,,,,,,,,,,,,,m,,,,,,,,,,,,,,,,26,0,169.2474,169.3551,z,0,0.1043,,[],[],[],[],[],[],[],169.3551,171.3551,171.3551,171.3552,[],[],[],[],[],[],[],,171.3553,171.3553,-0.207125922,-0.297809372,0,0,0,,0,25,25,90,1,4,word,CAPITAL,print,capital_p.png,,,,,
,,,,32088,001,2025-11-08_19h06.10.545,HW_LDT_1,2024.2.4,MacIntel,128.2051282,,,,,,,,,,,,,,,,,,,,,171.3557,171.5555,171.5556,172.0542,,,,,,,,,,,,,,0.1698,0,,,,,,,,,,,,,,z,,,,,,,,,,,,,,,,27,0,172.0545,172.2296,m,0,0.1698,,[],[],[],[],[],[],[],172.2297,174.2303,174.2304,174.2306,[],[],[],[],[],[],[],,174.2307,174.2308,-0.207125922,-0.297809372,0,0,0,,0,26,26,69,1,4,TL,quafily,print,quafily_p.png,,,,,
,,,,32088,001,2025-11-08_19h06.10.545,HW_LDT_1,2024.2.4,MacIntel,128.2051282,,,,,,,,,,,,,,,,,,,,,174.232,174.4306,174.4307,174.9302,,,,,,,,,,,,,,1.7943,1,,,,,,,,,,,,,,z,,,,,,,,,,,,,,,,28,1,174.9307,176.7299,z,1,1.7943,,[],[],[],[],[],[],[],176.7299,178.7307,178.7309,178.8636,[],[],[],[],[],[],[],m,178.8636,178.8636,-0.207125922,-0.297809372,0,0,0,,0,27,27,35,1,4,RL,probice,cursive,probice_c.png,0.1305,,,,
,,,,32088,001,2025-11-08_19h06.10.545,HW_LDT_1,2024.2.4,MacIntel,128.2051282,,,,,,,,,,,,,,,,,,,,,178.8644,179.0635,179.0635,179.5637,,,,,,,,,,,,,,4.7772,1,,,,,,,,,,,,,,m,,,,,,,,,,,,,,,,29,1,179.5643,184.3469,m,1,4.7772,,[],[],[],[],[],[],[],184.347,186.347,186.3471,187.1054,[],[],[],[],[],[],[],m,187.1055,187.1056,-0.207125922,-0.297809372,0,0,0,,0,28,28,121,1,4,word,MISTAKE,print,mistake_p.png,0.757,,,,
,,,,32088,001,2025-11-08_19h06.10.545,HW_LDT_1,2024.2.4,MacIntel,128.2051282,,,,,,,,,,,,,,,,,,,,,187.1068,187.3055,187.3055,187.8054,,,,,,,,,,,,,,0.936,0,,,,,,,,,,,,,,z,,,,,,,,,,,,,,,,30,0,187.8059,188.7468,m,0,0.936,,[],[],[],[],[],[],[],188.7469,190.7468,190.7468,190.7469,[],[],[],[],[],[],[],,190.747,190.747,-0.207125922,-0.297809372,0,0,0,,0,29,29,78,1,4,TL,stragety,print,stragety_p.png,,,,,
,,,,32088,001,2025-11-08_19h06.10.545,HW_LDT_1,2024.2.4,MacIntel,128.2051282,,,,,,,,,,,,,,,,,,,,,190.7476,190.947,190.9471,191.4472,,,,,,,,,,,,,,1.346,0,,,,,,,,,,,,,,z,,,,,,,,,,,,,,,,31,0,191.4478,192.7969,m,0,1.346,,[],[],[],[],[],[],[],192.7969,194.797,194.7972,194.7974,[],[],[],[],[],[],[],,194.7974,194.7975,-0.207125922,-0.297809372,0,0,0,,0,30,30,65,1,4,TL,orepator,print,orepator_p.png,,,,,
,,,,32088,001,2025-11-08_19h06.10.545,HW_LDT_1,2024.2.4,MacIntel,128.2051282,,,,,,,,,,,,,,,,,,,,,194.7988,194.9971,194.9972,195.4967,,,,,,,,,,,,,,1.4719,1,,,,,,,,,,,,,,z,,,,,,,,,,,,,,,,32,0,195.4972,196.9718,z,1,1.4719,,[],[],[],[],[],[],[],196.9718,198.9719,198.972,198.972,[],[],[],[],[],[],[],,198.9721,198.9721,-0.207125922,-0.297809372,0,0,0,,0,31,31,48,1,4,RL,vabifity,print,vabifity_p.png,,,,,
,,,,32088,001,2025-11-08_19h06.10.545,HW_LDT_1,2024.2.4,MacIntel,128.2051282,,,,,,,,,,,,,,,,,,,,,198.973,199.1712,199.1713,199.6713,,,,,,,,,,,,,,0.0235,1,,,,,,,,,,,,,,z,,,,,,,,,,,,,,,,33,0,199.6718,199.6969,z,1,0.0235,,[],[],[],[],[],[],[],199.6971,201.6969,201.6969,201.697,[],[],[],[],[],[],[],,201.697,201.697,-0.207125922,-0.297809372,0,0,0,,0,32,32,79,1,4,TL,tritube,print,tritube_p.png,,,,,
,,,,32088,001,2025-11-08_19h06.10.545,HW_LDT_1,2024.2.4,MacIntel,128.2051282,,,,,,,,,,,,,,,,,,,,,201.6975,201.8972,201.8972,202.3963,,,,,,,,,,,,,,0.6769,1,,,,,,,,,,,,,,z,,,,,,,,,,,,,,,,34,0,202.397,203.0803,z,1,0.6769,,[],[],[],[],[],[],[],203.0803,205.0802,205.0802,205.0804,[],[],[],[],[],[],[],,205.0804,205.0804,-0.207125922,-0.297809372,0,0,0,,0,33,33,34,1,4,RL,posity,cursive,posity_c.png,,,,,
,,,,32088,001,2025-11-08_19h06.10.545,HW_LDT_1,2024.2.4,MacIntel,128.2051282,,,,,,,,,,,,,,,,,,,,,205.0811,205.2805,205.2805,205.7804,,,,,,,,,,,,,,0.6389,0,,,,,,,,,,,,,,m,,,,,,,,,,,,,,,,35,0,205.7806,206.4221,z,0,0.6389,,[],[],[],[],[],[],[],206.4222,208.4213,208.4213,208.4214,[],[],[],[],[],[],[],,208.4214,208.4216,-0.207125922,-0.297809372,0,0,0,,0,34,34,124,1,4,word,NUMERICAL,cursive,numerical_c.png,,,,,
,,,,32088,001,2025-11-08_19h06.10.545,HW_LDT_1,2024.2.4,MacIntel,128.2051282,,,,,,,,,,,,,,,,,,,,,208.4227,208.621,208.621,209.1222,,,,,,,,,,,,,,0.398,0,,,,,,,,,,,,,,m,,,,,,,,,,,,,,,,36,0,209.1226,209.5223,z,0,0.398,,[],[],[],[],[],[],[],209.5223,211.522,211.522,211.5225,[],[],[],[],[],[],[],,211.5225,211.5226,-0.207125922,-0.297809372,0,0,0,,0,35,35,95,1,4,word,COMEDY,print,comedy_p.png,,,,,
,,,,32088,001,2025-11-08_19h06.10.545,HW_LDT_1,2024.2.4,MacIntel,128.2051282,,,,,,,,,,,,,,,,,,,,,211.5232,211.7222,211.7222,212.2218,,,,,,,,,,,,,,6.8436,1,,,,,,,,,,,,,,m,,,,,,,,,,,,,,,,37,0,212.2221,219.072,m,1,6.8436,,[],[],[],[],[],[],[],219.0721,221.0722,221.0722,221.0728,[],[],[],[],[],[],[],,221.0728,221.073,-0.207125922,-0.297809372,0,0,0,,0,36,36,139,1,4,word,REGULAR,cursive,regular_c.png,,,,,
,,,,32088,001,2025-11-08_19h06.10.545,HW_LDT_1,2024.2.4,MacIntel,128.2051282,,,,,,,,,,,,,,,,,,,,,221.076,221.2719,221.272,221.7722,,,,,,,,,,,,,,6.6139,0,,,,,,,,,,,,,,z,,,,,,,,,,,,,,,,38,0,221.7732,228.3887,m,0,6.6139,,[],[],[],[],[],[],[],228.3888,230.3879,230.388,230.3882,[],[],[],[],[],[],[],,230.3882,230.3883,-0.207125922,-0.297809372,0,0,0,,0,37,37,67,1,4,TL,polupar,print,polupar_p.png,,,,,
,,,,32088,001,2025-11-08_19h06.10.545,HW_LDT_1,2024.2.4,MacIntel,128.2051282,,,,,,,,,,,,,,,,,,,,,230.3897,230.5888,230.5889,231.0889,,,,,,,,,,,,,,4.734,1,,,,,,,,,,,,,,m,,,,,,,,,,,,,,,,39,0,231.0896,235.8302,m,1,4.734,,[],[],[],[],[],[],[],235.8303,237.8361,237.8362,237.8363,[],[],[],[],[],[],[],,237.8363,237.8363,-0.207125922,-0.297809372,0,0,0,,0,38,38,134,1,4,word,QUALIFY,print,qualify_p.png,,,,,
,,,,32088,001,2025-11-08_19h06.10.545,HW_LDT_1,2024.2.4,MacIntel,128.2051282,,,,,,,,,,,,,,,,,,,,,237.8371,238.0305,238.0307,238.5305,,,,,,,,,,,,,,5.3598,0,,,,,,,,,,,,,,m,,,,,,,,,,,,,,,,40,0,238.5312,243.8969,z,0,5.3598,,[],[],[],[],[],[],[],243.897,245.8964,245.8964,245.8966,[],[],[],[],[],[],[],,245.8967,245.8968,-0.207125922,-0.297809372,0,0,0,,0,39,39,97,1,4,word,COVERAGE,cursive,coverage_c.png,,,,,
,,,,32088,001,2025-11-08_19h06.10.545,HW_LDT_1,2024.2.4,MacIntel,128.2051282,,,,,,,,,,,,,,,,,,,,,245.8982,246.0974,246.0975,246.5973,,,,,,,,,,,,,,17.9811,1,,,,,,,,,,,,,,m,,,,,,,,,,,,,,,,41,0,246.5979,264.5806,m,1,17.9811,,[],[],[],[],[],[],[],264.5809,266.5804,266.5805,266.5806,[],[],[],[],[],[],[],,266.5807,266.5808,-0.207125922,-0.297809372,0,0,0,,0,40,40,85,1,4,word,BENEFIT,cursive,benefit_c.png,,,,,
,,,,32088,001,2025-11-08_19h06.10.545,HW_LDT_1,2024.2.4,MacIntel,128.2051282,,,,,,,,,,,,,,,,,,,,,266.5825,266.7804,266.7806,267.2809,,,,,,,,,,,,,,1.3609,0,,,,,,,,,,,,,,m,,,,,,,,,,,,,,,,42,0,267.2817,268.6463,z,0,1.3609,,[],[],[],[],[],[],[],268.6464,270.6469,270.6469,270.647,[],[],[],[],[],[],[],,270.647,270.647,-0.207125922,-0.297809372,0,0,0,,0,41,41,106,1,4,word,ELABORATE,cursive,elaborate_c.png,,,,,
,,,,32088,001,2025-11-08_19h06.10.545,HW_LDT_1,2024.2.4,MacIntel,128.2051282,,,,,,,,,,,,,,,,,,,,,270.6476,270.847,270.847,271.3463,,,,,,,,,,,,,,0.2801,1,,,,,,,,,,,,,,m,,,,,,,,,,,,,,,,43,0,271.3471,271.6303,m,1,0.2801,,[],[],[],[],[],[],[],271.6304,273.6309,273.6312,273.6315,[],[],[],[],[],[],[],,273.6317,273.6318,-0.207125922,-0.297809372,0,0,0,,0,42,42,81,1,4,word,ADVISORY,cursive,advisory_c.png,,,,,
,,,,32088,001,2025-11-08_19h06.10.545,HW_LDT_1,2024.2.4,MacIntel,128.2051282,,,,,,,,,,,,,,,,,,,,,273.6345,273.8303,273.8304,274.3303,,,,,,,,,,,,,,8.6693,1,,,,,,,,,,,,,,m,,,,,,,,,,,,,,,,44,1,274.3307,283.0054,m,1,8.6693,,[],[],[],[],[],[],[],283.0056,285.0059,285.0059,295.8306,[],[],[],[],[],[],[],m,295.8307,295.8308,-0.207125922,-0.297809372,0,0,0,,0,43,43,107,1,4,word,EVIDENT,print,evident_p.png,10.8216,,,,
,,,,32088,001,2025-11-08_19h06.10.545,HW_LDT_1,2024.2.4,MacIntel,128.2051282,,,,,,,,,,,,,,,,,,,,,295.8318,296.0307,296.0308,296.5306,,,,,,,,,,,,,,12.8098,0,,,,,,,,,,,,,,z,,,,,,,,,,,,,,,,45,0,296.5312,309.3475,m,0,12.8098,,[],[],[],[],[],[],[],309.3476,311.3473,311.3475,311.3477,[],[],[],[],[],[],[],,311.3478,311.3478,-0.207125922,-0.297809372,0,0,0,,0,44,44,5,1,4,RL,bebine,print,bebine_p.png,,,,,
,,,,32088,001,2025-11-08_19h06.10.545,HW_LDT_1,2024.2.4,MacIntel,128.2051282,,,,,,,,,,,,,,,,,,,,,311.349,311.5471,311.5471,312.0474,,,,,,,,,,,,,,2.5426,1,,,,,,,,,,,,,,z,,,,,,,,,,,,,,,,46,0,312.0485,314.5975,z,1,2.5426,,[],[],[],[],[],[],[],314.5977,316.5973,316.5974,316.5976,[],[],[],[],[],[],[],,316.5976,316.5977,-0.207125922,-0.297809372,0,0,0,,0,45,45,31,1,4,RL,orimipal,print,orimipal_p.png,,,,,
,,,,32088,001,2025-11-08_19h06.10.545,HW_LDT_1,2024.2.4,MacIntel,128.2051282,,,,,,,,,,,,,,,,,,,,,316.5993,316.7972,316.7972,317.2974,,,,,,,,,,,,,,0.4038,1,,,,,,,,,,,,,,z,,,,,,,,,,,,,,,,47,0,317.298,317.7054,z,1,0.4038,,[],[],[],[],[],[],[],317.7054,319.7045,319.7045,319.7047,[],[],[],[],[],[],[],,319.7047,319.7047,-0.207125922,-0.297809372,0,0,0,,0,46,46,44,1,4,RL,senvilent,print,senvilent_p.png,,,,,
,,,,32088,001,2025-11-08_19h06.10.545,HW_LDT_1,2024.2.4,MacIntel,128.2051282,,,,,,,,,,,,,,,,,,,,,319.7054,319.9059,319.9059,320.4058,,,,,,,,,,,,,,0.0147,1,,,,,,,,,,,,,,z,,,,,,,,,,,,,,,,48,0,320.4063,320.4221,z,1,0.0147,,[],[],[],[],[],[],[],320.4222,322.4223,322.4224,322.4226,[],[],[],[],[],[],[],,322.4226,322.4226,-0.207125922,-0.297809372,0,0,0,,0,47,47,9,1,4,RL,cafigal,print,cafigal_p.png,,,,,
,,,,32088,001,2025-11-08_19h06.10.545,HW_LDT_1,2024.2.4,MacIntel,128.2051282,,,,,,,,,,,,,,,,,,,,,322.4236,322.6218,322.6218,323.1221,,,,,,,,,,,,,,0.1801,0,,,,,,,,,,,,,,m,,,,,,,,,,,,,,,,49,0,323.1225,323.3054,z,0,0.1801,,[],[],[],[],[],[],[],323.3054,325.3053,325.3054,325.3056,[],[],[],[],[],[],[],,325.3056,325.3057,-0.207125922,-0.297809372,0,0,0,,0,48,48,145,1,4,word,RESUME,print,resume_p.png,,,,,
,,,,32088,001,2025-11-08_19h06.10.545,HW_LDT_1,2024.2.4,MacIntel,128.2051282,,,,,,,,,,,,,,,,,,,,,325.3067,325.5053,325.5054,326.0056,,,,,,,,,,,,,,0.0804,0,,,,,,,,,,,,,,z,,,,,,,,,,,,,,,,50,0,326.0061,326.0878,m,0,0.0804,,[],[],[],[],[],[],[],326.0879,328.089,328.0891,328.0893,[],[],[],[],[],[],[],,328.0893,328.0893,-0.207125922,-0.297809372,0,0,0,,0,49,49,32,1,4,RL,patisic,cursive,patisic_c.png,,,,,
,,,,32088,001,2025-11-08_19h06.10.545,HW_LDT_1,2024.2.4,MacIntel,128.2051282,,,,,,,,,,,,,,,,,,,,,328.0903,328.2887,328.2888,328.7891,,,,,,,,,,,,,,0.0463,0,,,,,,,,,,,,,,z,,,,,,,,,,,,,,,,51,0,328.7896,328.8379,m,0,0.0463,,[],[],[],[],[],[],[],328.838,330.8386,330.8387,330.8388,[],[],[],[],[],[],[],,330.8388,330.8388,-0.207125922,-0.297809372,0,0,0,,0,50,50,1,1,4,RL,afaneur,cursive,afaneur_c.png,,,,,
,,,,32088,001,2025-11-08_19h06.10.545,HW_LDT_1,2024.2.4,MacIntel,128.2051282,,,,,,,,,,,,,,,,,,,,,330.8392,331.0388,331.0388,331.5394,,,,,,,,,,,,,,0.0846,1,,,,,,,,,,,,,,z,,,,,,,,,,,,,,,,52,0,331.5399,331.6305,z,1,0.0846,,[],[],[],[],[],[],[],331.6306,333.6313,333.6316,333.6328,[],[],[],[],[],[],[],,333.6331,333.6334,-0.207125922,-0.297809372,0,0,0,,0,51,51,50,1,4,RL,vecelan,cursive,vecelan_c.png,,,,,
,,,,32088,001,2025-11-08_19h06.10.545,HW_LDT_1,2024.2.4,MacIntel,128.2051282,,,,,,,,,,,,,,,,,,,,,333.6378,333.8303,333.8303,334.3304,,,,,,,,,,,,,,3.0774,1,,,,,,,,,,,,,,m,,,,,,,,,,,,,,,,53,0,334.3306,337.4139,m,1,3.0774,,[],[],[],[],[],[],[],337.4141,339.414,339.4141,339.4143,[],[],[],[],[],[],[],,339.4143,339.4143,-0.207125922,-0.297809372,0,0,0,,0,52,52,101,1,4,word,DELICATE,cursive,delicate_c.png,,,,,
,,,,32088,001,2025-11-08_19h06.10.545,HW_LDT_1,2024.2.4,MacIntel,128.2051282,,,,,,,,,,,,,,,,,,,,,339.4155,339.6139,339.6139,340.1132,,,,,,,,,,,,,,0.1907,1,,,,,,,,,,,,,,z,,,,,,,,,,,,,,,,54,1,340.1137,340.3056,z,1,0.1907,,[],[],[],[],[],[],[],340.3057,342.3052,342.3054,343.8057,[],[],[],[],[],[],[],m,343.8058,343.806,-0.207125922,-0.297809372,0,0,0,,0,53,53,27,1,4,RL,menowy,print,menowy_p.png,1.4989,,,,
,,,,32088,001,2025-11-08_19h06.10.545,HW_LDT_1,2024.2.4,MacIntel,128.2051282,,,,,,,,,,,,,,,,,,,,,343.8072,344.0048,344.0048,344.506,,,,,,,,,,,,,,20.526,0,,,,,,,,,,,,,,z,,,,,,,,,,,,,,,,55,1,344.5065,365.0388,m,0,20.526,,[],[],[],[],[],[],[],365.0388,367.0392,367.0393,367.5055,[],[],[],[],[],[],[],m,367.5055,367.5055,-0.207125922,-0.297809372,0,0,0,,0,54,54,23,1,4,RL,linefal,cursive,linefal_c.png,0.4647,,,,
,,,,32088,001,2025-11-08_19h06.10.545,HW_LDT_1,2024.2.4,MacIntel,128.2051282,,,,,,,,,,,,,,,,,,,,,367.506,367.7055,367.7056,368.2056,,,,,,,,,,,,,,0.4307,1,,,,,,,,,,,,,,m,,,,,,,,,,,,,,,,56,0,368.2063,368.6389,m,1,0.4307,,[],[],[],[],[],[],[],368.639,370.6385,370.6387,370.6388,[],[],[],[],[],[],[],,370.6388,370.6389,-0.207125922,-0.297809372,0,0,0,,0,55,55,103,1,4,word,DISPUTE,print,dispute_p.png,,,,,
,,,,32088,001,2025-11-08_19h06.10.545,HW_LDT_1,2024.2.4,MacIntel,128.2051282,,,,,,,,,,,,,,,,,,,,,370.6398,370.8388,370.8388,371.3387,,,,,,,,,,,,,,1.0853,0,,,,,,,,,,,,,,z,,,,,,,,,,,,,,,,57,0,371.339,372.4306,m,0,1.0853,,[],[],[],[],[],[],[],372.4306,374.431,374.4311,374.4313,[],[],[],[],[],[],[],,374.4313,374.4313,-0.207125922,-0.297809372,0,0,0,,0,56,56,43,1,4,RL,rovastic,print,rovastic_p.png,,,,,
,,,,32088,001,2025-11-08_19h06.10.545,HW_LDT_1,2024.2.4,MacIntel,128.2051282,,,,,,,,,,,,,,,,,,,,,374.4322,374.6304,374.6304,375.1305,,,,,,,,,,,,,,31.6379,1,,,,,,,,,,,,,,m,,,,,,,,,,,,,,,,58,0,375.1309,406.7725,m,1,31.6379,,[],[],[],[],[],[],[],406.7726,408.7722,408.7723,408.7725,[],[],[],[],[],[],[],,408.7726,408.7727,-0.207125922,-0.297809372,0,0,0,,0,57,57,157,1,4,word,VALIDITY,print,validity_p.png,,,,,
,,,,32088,001,2025-11-08_19h06.10.545,HW_LDT_1,2024.2.4,MacIntel,128.2051282,,,,,,,,,,,,,,,,,,,,,408.7743,408.9714,408.9715,409.4724,,,,,,,,,,,,,,0.0144,1,,,,,,,,,,,,,,m,,,,,,,,,,,,,,,,59,0,409.4732,409.4888,m,1,0.0144,,[],[],[],[],[],[],[],409.489,411.4891,411.4892,411.4893,[],[],[],[],[],[],[],,411.4893,411.4893,-0.207125922,-0.297809372,0,0,0,,0,58,58,146,1,4,word,RETIRE,print,retire_p.png,,,,,
,,,,32088,001,2025-11-08_19h06.10.545,HW_LDT_1,2024.2.4,MacIntel,128.2051282,,,,,,,,,,,,,,,,,,,,,411.4905,411.6888,411.6888,412.1887,,,,,,,,,,,,,,0.6958,1,,,,,,,,,,,,,,z,,,,,,,,,,,,,,,,60,1,412.1889,412.8893,z,1,0.6958,0.0012,[],[],[],[],[],[],[],412.8894,414.8888,414.8888,415.2391,[],[],[],[],[],[],[],z,415.2392,415.2392,-0.207125922,-0.297809372,0,0,0,,0,59,59,70,1,4,TL,quatily,print,quatily_p.png,0.3496,,,,
,,,,32088,001,2025-11-08_19h06.10.545,HW_LDT_1,2024.2.4,MacIntel,128.2051282,,,,,,,,,,,,,,,,,,,,,415.2405,415.4388,415.4388,415.938,,,,,,,,,,,,,,0.0313,1,,,,,,,,,,,,,,z,,,,,,,,,,,,,,,,61,0,415.9384,415.9722,z,1,0.0313,,[],[],[],[],[],[],[],415.9722,417.9725,417.9725,417.9727,[],[],[],[],[],[],[],,417.9727,417.9728,-0.207125922,-0.297809372,0,0,0,,0,60,60,49,1,4,RL,vesofity,cursive,vesofity_c.png,,,,,
,,,,32088,001,2025-11-08_19h06.10.545,HW_LDT_1,2024.2.4,MacIntel,128.2051282,,,,,,,,,,,,,,,,,,,,,417.974,418.1725,418.1725,418.6724,,,,,,,,,,,,,,0.0983,1,,,,,,,,,,,,,,z,,,,,,,,,,,,,,,,62,0,418.6729,418.7725,z,1,0.0983,,[],[],[],[],[],[],[],418.7726,420.7724,420.7725,420.7727,[],[],[],[],[],[],[],,420.7727,420.7728,-0.207125922,-0.297809372,0,0,0,,0,61,61,19,1,4,RL,elacodate,cursive,elacodate_c.png,,,,,
,,,,32088,001,2025-11-08_19h06.10.545,HW_LDT_1,2024.2.4,MacIntel,128.2051282,,,,,,,,,,,,,,,,,,,,,420.7739,420.9725,420.9725,421.4725,,,,,,,,,,,,,,40.1136,0,,,,,,,,,,,,,,z,,,,,,,,,,,,,,,,63,0,421.4731,461.5913,m,0,40.1136,,[],[],[],[],[],[],[],461.5921,463.5887,463.5889,463.5894,[],[],[],[],[],[],[],,463.5895,463.5897,-0.207125922,-0.297809372,0,0,0,,0,62,62,8,1,4,RL,casagity,cursive,casagity_c.png,,,,,
,,,,32088,001,2025-11-08_19h06.10.545,HW_LDT_1,2024.2.4,MacIntel,128.2051282,,,,,,,,,,,,,,,,,,,,,463.5926,463.7892,463.7893,464.2882,,,,,,,,,,,,,,119.4193,1,,,,,,,,,,,,,,m,,,,,,,,,,,,,,,,64,0,464.2891,583.7145,m,1,119.4193,,[],[],[],[],[],[],[],583.7145,585.7144,585.7146,585.7151,[],[],[],[],[],[],[],,585.7152,585.7155,-0.207125922,-0.297809372,0,0,0,,0,63,63,143,1,4,word,REMOVAL,print,removal_p.png,,,,,
,,,,32088,001,2025-11-08_19h06.10.545,HW_LDT_1,2024.2.4,MacIntel,128.2051282,,,,,,,,,,,,,,,,,,,,,585.7181,585.9142,585.9143,586.4141,,,,,,,,,,,,,,43.2853,0,,,,,,,,,,,,,,m,,,,,,,,,,,,,,,,65,0,586.4144,629.706,z,0,43.2853,,[],[],[],[],[],[],[],629.7061,631.705,631.7051,631.7051,[],[],[],[],[],[],[],,631.7052,631.7052,-0.207125922,-0.297809372,0,0,0,,0,64,64,115,1,4,word,LOGICAL,print,logical_p.png,,,,,
,,,,32088,001,2025-11-08_19h06.10.545,HW_LDT_1,2024.2.4,MacIntel,128.2051282,,,,,,,,,,,,,,,,,,,,,631.7059,631.9062,631.9063,632.4061,,,,,,,,,,,,,,0.525,1,,,,,,,,,,,,,,z,,,,,,,,,,,,,,,,66,0,632.4069,632.9368,z,1,0.525,,[],[],[],[],[],[],[],632.9379,634.9393,634.9394,634.9396,[],[],[],[],[],[],[],,634.9397,634.9397,-0.207125922,-0.297809372,0,0,0,,0,65,65,68,1,4,TL,prosopal,print,prosopal_p.png,,,,,
,,,,32088,001,2025-11-08_19h06.10.545,HW_LDT_1,2024.2.4,MacIntel,128.2051282,,,,,,,,,,,,,,,,,,,,,634.9408,635.1385,635.1386,635.6385,,,,,,,,,,,,,,1.7493,0,,,,,,,,,,,,,,m,,,,,,,,,,,,,,,,67,1,635.6393,637.3895,z,0,1.7493,,[],[],[],[],[],[],[],637.3896,639.3885,639.3886,639.4393,[],[],[],[],[],[],[],z,639.4394,639.4395,-0.207125922,-0.297809372,0,0,0,,0,66,66,142,1,4,word,REMOTE,cursive,remote_c.png,0.0496,,,,
,,,,32088,001,2025-11-08_19h06.10.545,HW_LDT_1,2024.2.4,MacIntel,128.2051282,,,,,,,,,,,,,,,,,,,,,639.4403,639.6392,639.6392,640.1394,,,,,,,,,,,,,,0.005,1,,,,,,,,,,,,,,z,,,,,,,,,,,,,,,,68,0,640.14,640.1477,z,1,0.005,,[],[],[],[],[],[],[],640.1479,642.1478,642.1478,642.1481,[],[],[],[],[],[],[],,642.1481,642.1482,-0.207125922,-0.297809372,0,0,0,,0,67,67,22,1,4,RL,linedal,cursive,linedal_c.png,,,,,
,,,,32088,001,2025-11-08_19h06.10.545,HW_LDT_1,2024.2.4,MacIntel,128.2051282,,,,,,,,,,,,,,,,,,,,,642.1493,642.3473,642.3473,642.8479,,,,,,,,,,,,,,20.5293,0,,,,,,,,,,,,,,z,,,,,,,,,,,,,,,,69,0,642.8485,663.381,m,0,20.5293,,[],[],[],[],[],[],[],663.3811,665.3811,665.3812,665.3813,[],[],[],[],[],[],[],,665.3814,665.3815,-0.207125922,-0.297809372,0,0,0,,0,68,68,11,1,4,RL,clisimal,print,clisimal_p.png,,,,,
,,,,32088,001,2025-11-08_19h06.10.545,HW_LDT_1,2024.2.4,MacIntel,128.2051282,,,,,,,,,,,,,,,,,,,,,665.3826,665.5813,665.5814,666.0812,,,,,,,,,,,,,,0.2941,1,,,,,,,,,,,,,,m,,,,,,,,,,,,,,,,70,0,666.0819,666.381,m,1,0.2941,,[],[],[],[],[],[],[],666.3811,668.3809,668.381,668.381,[],[],[],[],[],[],[],,668.3811,668.3812,-0.207125922,-0.297809372,0,0,0,,0,69,69,132,1,4,word,PROPOSAL,print,proposal_p.png,,,,,
,,,,32088,001,2025-11-08_19h06.10.545,HW_LDT_1,2024.2.4,MacIntel,128.2051282,,,,,,,,,,,,,,,,,,,,,668.3821,668.5811,668.5812,669.0811,,,,,,,,,,,,,,0.1432,0,,,,,,,,,,,,,,z,,,,,,,,,,,,,,,,71,0,669.0817,669.2309,m,0,0.1432,,[],[],[],[],[],[],[],669.231,671.2314,671.2315,671.2317,[],[],[],[],[],[],[],,671.2317,671.2319,-0.207125922,-0.297809372,0,0,0,,0,70,70,59,1,4,TL,fornute,cursive,fornute_c.png,,,,,
,,,,32088,001,2025-11-08_19h06.10.545,HW_LDT_1,2024.2.4,MacIntel,128.2051282,,,,,,,,,,,,,,,,,,,,,671.233,671.4313,671.4313,671.9309,,,,,,,,,,,,,,0.14,1,,,,,,,,,,,,,,m,,,,,,,,,,,,,,,,72,0,671.9314,672.0728,m,1,0.14,,[],[],[],[],[],[],[],672.0729,674.0717,674.0718,674.0718,[],[],[],[],[],[],[],,674.0718,674.0719,-0.207125922,-0.297809372,0,0,0,,0,71,71,86,1,4,word,BESIDE,print,beside_p.png,,,,,
,,,,32088,001,2025-11-08_19h06.10.545,HW_LDT_1,2024.2.4,MacIntel,128.2051282,,,,,,,,,,,,,,,,,,,,,674.0741,674.2726,674.2726,674.7723,,,,,,,,,,,,,,0.034,1,,,,,,,,,,,,,,m,,,,,,,,,,,,,,,,73,0,674.7729,674.8144,m,1,0.034,,[],[],[],[],[],[],[],674.8144,676.8143,676.8144,676.8145,[],[],[],[],[],[],[],,676.8145,676.8146,-0.207125922,-0.297809372,0,0,0,,0,72,72,105,1,4,word,EDITOR,print,editor_p.png,,,,,
,,,,32088,001,2025-11-08_19h06.10.545,HW_LDT_1,2024.2.4,MacIntel,128.2051282,,,,,,,,,,,,,,,,,,,,,676.8153,677.0145,677.0145,677.5137,,,,,,,,,,,,,,0.1135,0,,,,,,,,,,,,,,z,,,,,,,,,,,,,,,,74,0,677.514,677.631,m,0,0.1135,,[],[],[],[],[],[],[],677.6311,679.6309,679.6309,679.6311,[],[],[],[],[],[],[],,679.6311,679.6312,-0.207125922,-0.297809372,0,0,0,,0,73,73,10,1,4,RL,carminal,cursive,carminal_c.png,,,,,
,,,,32088,001,2025-11-08_19h06.10.545,HW_LDT_1,2024.2.4,MacIntel,128.2051282,,,,,,,,,,,,,,,,,,,,,679.6321,679.8311,679.8311,680.3311,,,,,,,,,,,,,,0.3272,1,,,,,,,,,,,,,,m,,,,,,,,,,,,,,,,75,0,680.3316,680.6645,m,1,0.3272,,[],[],[],[],[],[],[],680.6645,682.6643,682.6643,682.6644,[],[],[],[],[],[],[],,682.6644,682.6645,-0.207125922,-0.297809372,0,0,0,,0,74,74,91,1,4,word,CARDINAL,cursive,cardinal_c.png,,,,,
,,,,32088,001,2025-11-08_19h06.10.545,HW_LDT_1,2024.2.4,MacIntel,128.2051282,,,,,,,,,,,,,,,,,,,,,682.6654,682.8646,682.8646,683.3636,,,,,,,,,,,,,,0.3242,1,,,,,,,,,,,,,,m,,,,,,,,,,,,,,,,76,1,683.3641,683.6893,m,1,0.3242,,[],[],[],[],[],[],[],683.6894,685.6895,685.6897,685.8886,[],[],[],[],[],[],[],m,685.8886,685.8888,-0.207125922,-0.297809372,0,0,0,,0,75,75,155,1,4,word,STRATEGY,print,strategy_p.png,0.1982,,,,
,,,,32088,001,2025-11-08_19h06.10.545,HW_LDT_1,2024.2.4,MacIntel,128.2051282,,,,,,,,,,,,,,,,,,,,,685.8898,686.0894,686.0894,686.5893,,,,,,,,,,,,,,82.1357,0,,,,,,,,,,,,,,z,,,,,,,,,,,,,,,,77,0,686.5899,768.7314,m,0,82.1357,,[],[],[],[],[],[],[],768.7316,770.7311,770.7312,770.7313,[],[],[],[],[],[],[],,770.7314,770.7315,-0.207125922,-0.297809372,0,0,0,,0,76,76,61,1,4,TL,lotace,cursive,lotace_c.png,,,,,
,,,,32088,001,2025-11-08_19h06.10.545,HW_LDT_1,2024.2.4,MacIntel,128.2051282,,,,,,,,,,,,,,,,,,,,,770.7336,770.9314,770.9316,771.4314,,,,,,,,,,,,,,0.1081,0,,,,,,,,,,,,,,z,,,,,,,,,,,,,,,,78,0,771.4325,771.5479,m,0,0.1081,,[],[],[],[],[],[],[],771.548,773.5479,773.5481,773.5483,[],[],[],[],[],[],[],,773.5483,773.5483,-0.207125922,-0.297809372,0,0,0,,0,77,77,47,1,4,RL,stopave,print,stopave_p.png,,,,,
,,,,32088,001,2025-11-08_19h06.10.545,HW_LDT_1,2024.2.4,MacIntel,128.2051282,,,,,,,,,,,,,,,,,,,,,773.5497,773.7481,773.7482,774.248,,,,,,,,,,,,,,0.1056,1,,,,,,,,,,,,,,m,,,,,,,,,,,,,,,,79,0,774.2489,774.3563,m,1,0.1056,,[],[],[],[],[],[],[],774.3563,776.3557,776.3558,776.3559,[],[],[],[],[],[],[],,776.3559,776.356,-0.207125922,-0.297809372,0,0,0,,0,78,78,80,1,4,word,ACADEMY,print,academy_p.png,,,,,
,,,,32088,001,2025-11-08_19h06.10.545,HW_LDT_1,2024.2.4,MacIntel,128.2051282,,,,,,,,,,,,,,,,,,,,,776.3571,776.5565,776.5565,777.0561,,,,,,,,,,,,,,0.0037,0,,,,,,,,,,,,,,z,,,,,,,,,,,,,,,,80,0,777.0565,777.0645,m,0,0.0037,,[],[],[],[],[],[],[],777.0646,779.0647,779.0648,779.065,[],[],[],[],[],[],[],,779.0651,900.3991,-0.054856263,-0.402047385,1,0,0,,0,79,79,28,1,4,RL,mifikary,print,mifikary_p.png,,,break_done_button,,
,,,,32088,001,2025-11-08_19h06.10.545,HW_LDT_1,2024.2.4,MacIntel,128.2051282,,,,,,,,,,,,,,,,,,,,,900.4003,900.598,900.598,901.0979,,,,,,,,,,,,,,0.6908,0,,,,,,,,,,,,,,z,,,,,,,,,,,,,,,,81,0,901.0987,901.7901,m,0,0.6908,,[],[],[],[],[],[],[],901.7902,903.7896,903.7896,903.7901,[],[],[],[],[],[],[],,903.7901,903.7903,-0.054856263,-0.402047385,0,0,0,,0,80,80,73,1,4,TL,regilion,print,regilion_p.png,,,,,
,,,,32088,001,2025-11-08_19h06.10.545,HW_LDT_1,2024.2.4,MacIntel,128.2051282,,,,,,,,,,,,,,,,,,,,,903.791,903.9896,903.9896,904.4889,,,,,,,,,,,,,,119.7533,0,,,,,,,,,,,,,,z,,,,,,,,,,,,,,,,82,1,904.4895,1024.2494,m,0,119.7533,,[],[],[],[],[],[],[],1024.2497,1026.2488,1026.2489,1056.1401,[],[],[],[],[],[],[],m,1056.1401,1056.1403,-0.054856263,-0.402047385,0,0,0,,0,81,81,51,1,4,TL,adsivory,cursive,adsivory_c.png,29.8851,,,,
,,,,32088,001,2025-11-08_19h06.10.545,HW_LDT_1,2024.2.4,MacIntel,128.2051282,,,,,,,,,,,,,,,,,,,,,1056.1412,1056.3404,1056.3405,1056.8355,,,,,,,,,,,,,,1.1679,1,,,,,,,,,,,,,,m,,,,,,,,,,,,,,,,83,0,1056.8363,1058.0066,m,1,1.1679,,[],[],[],[],[],[],[],1058.0066,1060.0066,1060.0066,1060.0066,[],[],[],[],[],[],[],,1060.0066,1060.0067,-0.054856263,-0.402047385,0,0,0,,0,82,82,114,1,4,word,LOCATE,cursive,locate_c.png,,,,,
,,,,32088,001,2025-11-08_19h06.10.545,HW_LDT_1,2024.2.4,MacIntel,128.2051282,,,,,,,,,,,,,,,,,,,,,1060.0071,1060.2066,1060.2066,1060.7066,,,,,,,,,,,,,,0.1396,0,,,,,,,,,,,,,,z,,,,,,,,,,,,,,,,84,0,1060.707,1060.8483,m,0,0.1396,,[],[],[],[],[],[],[],1060.8484,1062.8486,1062.8486,1062.8488,[],[],[],[],[],[],[],,1062.8488,1062.8489,-0.054856263,-0.402047385,0,0,0,,0,83,83,55,1,4,TL,corevage,cursive,corevage_c.png,,,,,
,,,,32088,001,2025-11-08_19h06.10.545,HW_LDT_1,2024.2.4,MacIntel,128.2051282,,,,,,,,,,,,,,,,,,,,,1062.8507,1063.0485,1063.0486,1063.5483,,,,,,,,,,,,,,76.7436,0,,,,,,,,,,,,,,m,,,,,,,,,,,,,,,,85,0,1063.5491,1140.2988,z,0,76.7436,,[],[],[],[],[],[],[],1140.299,1142.2986,1142.2987,1142.2991,[],[],[],[],[],[],[],,1142.2991,1142.2994,-0.054856263,-0.402047385,0,0,0,,0,84,84,125,1,4,word,OPERATOR,print,operator_p.png,,,,,
,,,,32088,001,2025-11-08_19h06.10.545,HW_LDT_1,2024.2.4,MacIntel,128.2051282,,,,,,,,,,,,,,,,,,,,,1142.302,1142.4984,1142.4984,1142.9984,,,,,,,,,,,,,,0.7896,1,,,,,,,,,,,,,,m,,,,,,,,,,,,,,,,86,0,1142.9993,1143.7895,m,1,0.7896,,[],[],[],[],[],[],[],1143.7896,1145.79,1145.7902,1145.7903,[],[],[],[],[],[],[],,1145.7904,1145.7904,-0.054856263,-0.402047385,0,0,0,,0,85,85,127,1,4,word,ORIGINAL,print,original_p.png,,,,,
,,,,32088,001,2025-11-08_19h06.10.545,HW_LDT_1,2024.2.4,MacIntel,128.2051282,,,,,,,,,,,,,,,,,,,,,1145.7916,1145.9903,1145.9904,1146.4903,,,,,,,,,,,,,,94.4018,0,,,,,,,,,,,,,,z,,,,,,,,,,,,,,,,87,0,1146.491,1240.8993,m,0,94.4018,,[],[],[],[],[],[],[],1240.8996,1242.8988,1242.8989,1242.8993,[],[],[],[],[],[],[],,1242.8993,1242.8995,-0.054856263,-0.402047385,0,0,0,,0,86,86,13,1,4,RL,crisival,cursive,crisival_c.png,,,,,
,,,,32088,001,2025-11-08_19h06.10.545,HW_LDT_1,2024.2.4,MacIntel,128.2051282,,,,,,,,,,,,,,,,,,,,,1242.9029,1243.0989,1243.0989,1243.5977,,,,,,,,,,,,,,0.1105,0,,,,,,,,,,,,,,z,,,,,,,,,,,,,,,,88,0,1243.5983,1243.7151,m,0,0.1105,,[],[],[],[],[],[],[],1243.7152,1245.7153,1245.7153,1245.7154,[],[],[],[],[],[],[],,1245.7154,1245.7154,-0.054856263,-0.402047385,0,0,0,,0,87,87,14,1,4,RL,delahe,cursive,delahe_c.png,,,,,
,,,,32088,001,2025-11-08_19h06.10.545,HW_LDT_1,2024.2.4,MacIntel,128.2051282,,,,,,,,,,,,,,,,,,,,,1245.716,1245.9153,1245.9154,1246.4151,,,,,,,,,,,,,,8.6362,1,,,,,,,,,,,,,,m,,,,,,,,,,,,,,,,89,0,1246.4155,1255.057,m,1,8.6362,,[],[],[],[],[],[],[],1255.0571,1257.0573,1257.0573,1257.0574,[],[],[],[],[],[],[],,1257.0575,1257.0575,-0.054856263,-0.402047385,0,0,0,,0,88,88,123,1,4,word,MODERATE,print,moderate_p.png,,,,,
,,,,32088,001,2025-11-08_19h06.10.545,HW_LDT_1,2024.2.4,MacIntel,128.2051282,,,,,,,,,,,,,,,,,,,,,1257.0586,1257.2571,1257.2573,1257.7569,,,,,,,,,,,,,,0.0799,1,,,,,,,,,,,,,,m,,,,,,,,,,,,,,,,90,1,1257.7572,1257.8404,m,1,0.0799,,[],[],[],[],[],[],[],1257.8404,1259.8405,1259.8407,1259.8819,[],[],[],[],[],[],[],z,1259.882,1259.882,-0.054856263,-0.402047385,0,0,0,,0,89,89,153,1,4,word,STOLEN,cursive,stolen_c.png,0.0364,,,,
,,,,32088,001,2025-11-08_19h06.10.545,HW_LDT_1,2024.2.4,MacIntel,128.2051282,,,,,,,,,,,,,,,,,,,,,1259.8829,1260.0819,1260.0819,1260.5818,,,,,,,,,,,,,,0.1384,1,,,,,,,,,,,,,,z,,,,,,,,,,,,,,,,91,0,1260.5821,1260.7235,z,1,0.1384,,[],[],[],[],[],[],[],1260.7236,1262.7241,1262.7242,1262.7243,[],[],[],[],[],[],[],,1262.7243,1262.7244,-0.054856263,-0.402047385,0,0,0,,0,90,90,3,1,4,RL,bewoted,print,bewoted_p.png,,,,,
,,,,32088,001,2025-11-08_19h06.10.545,HW_LDT_1,2024.2.4,MacIntel,128.2051282,,,,,,,,,,,,,,,,,,,,,1262.7255,1262.9238,1262.9238,1263.4227,,,,,,,,,,,,,,0.2041,1,,,,,,,,,,,,,,z,,,,,,,,,,,,,,,,92,0,1263.4231,1263.6318,z,1,0.2041,,[],[],[],[],[],[],[],1263.6319,1265.6321,1265.6321,1265.6322,[],[],[],[],[],[],[],,1265.6323,1265.6326,-0.054856263,-0.402047385,0,0,0,,0,91,91,54,1,4,TL,codemy,print,codemy_p.png,,,,,
,,,,32088,001,2025-11-08_19h06.10.545,HW_LDT_1,2024.2.4,MacIntel,128.2051282,,,,,,,,,,,,,,,,,,,,,1265.634,1265.8319,1265.832,1266.3316,,,,,,,,,,,,,,0.145,0,,,,,,,,,,,,,,m,,,,,,,,,,,,,,,,93,1,1266.3322,1266.4821,z,0,0.145,,[],[],[],[],[],[],[],1266.4822,1268.4823,1268.4824,1293.498,[],[],[],[],[],[],[],m,1293.4982,1293.4986,-0.054856263,-0.402047385,0,0,0,,0,92,92,138,1,4,word,REFUSAL,cursive,refusal_c.png,25.0146,,,,
,,,,32088,001,2025-11-08_19h06.10.545,HW_LDT_1,2024.2.4,MacIntel,128.2051282,,,,,,,,,,,,,,,,,,,,,1293.4999,1293.6979,1293.6979,1294.1985,,,,,,,,,,,,,,0.1085,1,,,,,,,,,,,,,,m,,,,,,,,,,,,,,,,94,0,1294.1992,1294.3155,m,1,0.1085,,[],[],[],[],[],[],[],1294.3156,1296.3153,1296.3154,1296.3156,[],[],[],[],[],[],[],,1296.3157,1296.316,-0.054856263,-0.402047385,0,0,0,,0,93,93,102,1,4,word,DENSITY,cursive,density_c.png,,,,,
,,,,32088,001,2025-11-08_19h06.10.545,HW_LDT_1,2024.2.4,MacIntel,128.2051282,,,,,,,,,,,,,,,,,,,,,1296.3187,1296.5152,1296.5153,1297.0149,,,,,,,,,,,,,,7.3939,0,,,,,,,,,,,,,,m,,,,,,,,,,,,,,,,95,0,1297.0155,1304.4156,z,0,7.3939,,[],[],[],[],[],[],[],1304.4158,1306.4152,1306.4153,1306.4153,[],[],[],[],[],[],[],,1306.4153,1306.4153,-0.054856263,-0.402047385,0,0,0,,0,94,94,147,1,4,word,ROMANTIC,print,romantic_p.png,,,,,
,,,,32088,001,2025-11-08_19h06.10.545,HW_LDT_1,2024.2.4,MacIntel,128.2051282,,,,,,,,,,,,,,,,,,,,,1306.4159,1306.6153,1306.6153,1307.1152,,,,,,,,,,,,,,58.4765,1,,,,,,,,,,,,,,z,,,,,,,,,,,,,,,,96,0,1307.1158,1365.5989,z,1,58.4765,,[],[],[],[],[],[],[],1365.5991,1367.599,1367.5992,1367.5996,[],[],[],[],[],[],[],,1367.5997,1367.5999,-0.054856263,-0.402047385,0,0,0,,0,95,95,21,1,4,RL,insibate,print,insibate_p.png,,,,,
,,,,32088,001,2025-11-08_19h06.10.545,HW_LDT_1,2024.2.4,MacIntel,128.2051282,,,,,,,,,,,,,,,,,,,,,1367.6027,1367.7989,1367.7989,1368.299,,,,,,,,,,,,,,0.2127,0,,,,,,,,,,,,,,m,,,,,,,,,,,,,,,,97,0,1368.2999,1368.5154,z,0,0.2127,,[],[],[],[],[],[],[],1368.5156,1370.5159,1370.516,1370.5161,[],[],[],[],[],[],[],,1370.5162,1370.5162,-0.054856263,-0.402047385,0,0,0,,0,96,96,156,1,4,word,TRIBUTE,print,tribute_p.png,,,,,
,,,,32088,001,2025-11-08_19h06.10.545,HW_LDT_1,2024.2.4,MacIntel,128.2051282,,,,,,,,,,,,,,,,,,,,,1370.5173,1370.7157,1370.7158,1371.2156,,,,,,,,,,,,,,0.1715,0,,,,,,,,,,,,,,m,,,,,,,,,,,,,,,,98,0,1371.2162,1371.3905,z,0,0.1715,,[],[],[],[],[],[],[],1371.3906,1373.3906,1373.3906,1373.3907,[],[],[],[],[],[],[],,1373.3908,1373.3908,-0.054856263,-0.402047385,0,0,0,,0,97,97,159,1,4,word,VETERAN,cursive,veteran_c.png,,,,,
,,,,32088,001,2025-11-08_19h06.10.545,HW_LDT_1,2024.2.4,MacIntel,128.2051282,,,,,,,,,,,,,,,,,,,,,1373.3913,1373.5905,1373.5905,1374.0909,,,,,,,,,,,,,,18.9885,0,,,,,,,,,,,,,,z,,,,,,,,,,,,,,,,99,0,1374.0914,1393.0825,m,0,18.9885,,[],[],[],[],[],[],[],1393.0826,1395.0823,1395.0824,1395.0825,[],[],[],[],[],[],[],,1395.0825,1395.0825,-0.054856263,-0.402047385,0,0,0,,0,98,98,39,1,4,RL,relone,cursive,relone_c.png,,,,,
,,,,32088,001,2025-11-08_19h06.10.545,HW_LDT_1,2024.2.4,MacIntel,128.2051282,,,,,,,,,,,,,,,,,,,,,1395.0832,1395.2828,1395.2828,1395.7825,,,,,,,,,,,,,,0.16,1,,,,,,,,,,,,,,m,,,,,,,,,,,,,,,,100,0,1395.7834,1395.9489,m,1,0.16,,[],[],[],[],[],[],[],1395.9489,1397.949,1397.9491,1397.9493,[],[],[],[],[],[],[],,1397.9493,1397.9494,-0.054856263,-0.402047385,0,0,0,,0,99,99,130,1,4,word,POLICY,cursive,policy_c.png,,,,,
,,,,32088,001,2025-11-08_19h06.10.545,HW_LDT_1,2024.2.4,MacIntel,128.2051282,,,,,,,,,,,,,,,,,,,,,1397.9506,1398.1491,1398.1492,1398.6488,,,,,,,,,,,,,,22.7475,0,,,,,,,,,,,,,,m,,,,,,,,,,,,,,,,101,0,1398.649,1421.399,z,0,22.7475,,[],[],[],[],[],[],[],1421.3992,1423.3988,1423.3989,1423.3994,[],[],[],[],[],[],[],,1423.3995,1423.3998,-0.054856263,-0.402047385,0,0,0,,0,100,100,135,1,4,word,QUALITY,print,quality_p.png,,,,,
,,,,32088,001,2025-11-08_19h06.10.545,HW_LDT_1,2024.2.4,MacIntel,128.2051282,,,,,,,,,,,,,,,,,,,,,1423.4028,1423.5988,1423.5988,1424.0988,,,,,,,,,,,,,,0.0395,1,,,,,,,,,,,,,,m,,,,,,,,,,,,,,,,102,0,1424.0993,1424.1405,m,1,0.0395,,[],[],[],[],[],[],[],1424.1405,1426.1405,1426.1405,1426.1406,[],[],[],[],[],[],[],,1426.1406,1426.1407,-0.054856263,-0.402047385,0,0,0,,0,101,101,83,1,4,word,ANIMAL,cursive,animal_c.png,,,,,
,,,,32088,001,2025-11-08_19h06.10.545,HW_LDT_1,2024.2.4,MacIntel,128.2051282,,,,,,,,,,,,,,,,,,,,,1426.1412,1426.3404,1426.3404,1426.8404,,,,,,,,,,,,,,0.0936,1,,,,,,,,,,,,,,z,,,,,,,,,,,,,,,,103,1,1426.8407,1426.9405,z,1,0.0936,,[],[],[],[],[],[],[],1426.9405,1428.9405,1428.9405,1428.9572,[],[],[],[],[],[],[],z,1428.9572,1428.9573,-0.054856263,-0.402047385,0,0,0,,0,102,102,53,1,4,TL,cemerony,print,cemerony_p.png,0.0145,,,,
,,,,32088,001,2025-11-08_19h06.10.545,HW_LDT_1,2024.2.4,MacIntel,128.2051282,,,,,,,,,,,,,,,,,,,,,1428.9579,1429.1562,1429.1562,1429.6575,,,,,,,,,,,,,,0.0636,0,,,,,,,,,,,,,,m,,,,,,,,,,,,,,,,104,0,1429.6579,1429.7238,z,0,0.0636,,[],[],[],[],[],[],[],1429.7239,1431.7238,1431.7238,1431.724,[],[],[],[],[],[],[],,1431.724,1431.724,-0.054856263,-0.402047385,0,0,0,,0,103,103,152,1,4,word,SPECIMEN,cursive,specimen_c.png,,,,,
,,,,32088,001,2025-11-08_19h06.10.545,HW_LDT_1,2024.2.4,MacIntel,128.2051282,,,,,,,,,,,,,,,,,,,,,1431.7245,1431.9243,1431.9243,1432.4243,,,,,,,,,,,,,,3.7974,0,,,,,,,,,,,,,,z,,,,,,,,,,,,,,,,105,0,1432.425,1436.2232,m,0,3.7974,,[],[],[],[],[],[],[],1436.2233,1438.2238,1438.2239,1438.2239,[],[],[],[],[],[],[],,1438.224,1438.2241,-0.054856263,-0.402047385,0,0,0,,0,104,104,60,1,4,TL,hetirage,print,hetirage_p.png,,,,,
,,,,32088,001,2025-11-08_19h06.10.545,HW_LDT_1,2024.2.4,MacIntel,128.2051282,,,,,,,,,,,,,,,,,,,,,1438.2248,1438.4232,1438.4232,1438.9242,,,,,,,,,,,,,,0.0122,1,,,,,,,,,,,,,,m,,,,,,,,,,,,,,,,106,0,1438.9249,1438.9407,m,1,0.0122,,[],[],[],[],[],[],[],1438.9408,1440.9408,1440.9409,1440.9411,[],[],[],[],[],[],[],,1440.9411,1440.9412,-0.054856263,-0.402047385,0,0,0,,0,105,105,99,1,4,word,DEBATE,cursive,debate_c.png,,,,,
,,,,32088,001,2025-11-08_19h06.10.545,HW_LDT_1,2024.2.4,MacIntel,128.2051282,,,,,,,,,,,,,,,,,,,,,1440.9424,1441.1399,1441.1401,1441.641,,,,,,,,,,,,,,6.2342,0,,,,,,,,,,,,,,z,,,,,,,,,,,,,,,,107,0,1441.6415,1447.8822,m,0,6.2342,,[],[],[],[],[],[],[],1447.8823,1449.8822,1449.8822,1449.8823,[],[],[],[],[],[],[],,1449.8824,1449.8824,-0.054856263,-0.402047385,0,0,0,,0,106,106,33,1,4,RL,pamest,cursive,pamest_c.png,,,,,
,,,,32088,001,2025-11-08_19h06.10.545,HW_LDT_1,2024.2.4,MacIntel,128.2051282,,,,,,,,,,,,,,,,,,,,,1449.8833,1450.0824,1450.0825,1450.5826,,,,,,,,,,,,,,0.4386,1,,,,,,,,,,,,,,z,,,,,,,,,,,,,,,,108,0,1450.5832,1451.0239,z,1,0.4386,,[],[],[],[],[],[],[],1451.0239,1453.023,1453.0231,1453.0231,[],[],[],[],[],[],[],,1453.0231,1453.0232,-0.054856263,-0.402047385,0,0,0,,0,107,107,20,1,4,RL,gralekul,print,gralekul_p.png,,,,,
,,,,32088,001,2025-11-08_19h06.10.545,HW_LDT_1,2024.2.4,MacIntel,128.2051282,,,,,,,,,,,,,,,,,,,,,1453.0239,1453.2239,1453.224,1453.7242,,,,,,,,,,,,,,0.0726,1,,,,,,,,,,,,,,m,,,,,,,,,,,,,,,,109,0,1453.7247,1453.7998,m,1,0.0726,,[],[],[],[],[],[],[],1453.7999,1455.799,1455.7991,1455.7993,[],[],[],[],[],[],[],,1455.7994,1455.7995,-0.054856263,-0.402047385,0,0,0,,0,108,108,111,1,4,word,INDICATE,print,indicate_p.png,,,,,
,,,,32088,001,2025-11-08_19h06.10.545,HW_LDT_1,2024.2.4,MacIntel,128.2051282,,,,,,,,,,,,,,,,,,,,,1455.8008,1455.999,1455.9991,1456.4988,,,,,,,,,,,,,,0.2904,0,,,,,,,,,,,,,,z,,,,,,,,,,,,,,,,110,0,1456.499,1456.7899,m,0,0.2904,,[],[],[],[],[],[],[],1456.79,1458.7905,1458.7906,1458.7907,[],[],[],[],[],[],[],,1458.7907,1458.7907,-0.054856263,-0.402047385,0,0,0,,0,109,109,76,1,4,TL,setanor,print,setanor_p.png,,,,,
,,,,32088,001,2025-11-08_19h06.10.545,HW_LDT_1,2024.2.4,MacIntel,128.2051282,,,,,,,,,,,,,,,,,,,,,1458.7913,1458.9898,1458.9898,1459.4906,,,,,,,,,,,,,,0.3383,0,,,,,,,,,,,,,,z,,,,,,,,,,,,,,,,111,0,1459.4908,1459.8323,m,0,0.3383,,[],[],[],[],[],[],[],1459.8324,1461.8312,1461.8312,1461.8312,[],[],[],[],[],[],[],,1461.8313,1461.8314,-0.054856263,-0.402047385,0,0,0,,0,110,110,57,1,4,TL,etidor,print,etidor_p.png,,,,,
,,,,32088,001,2025-11-08_19h06.10.545,HW_LDT_1,2024.2.4,MacIntel,128.2051282,,,,,,,,,,,,,,,,,,,,,1461.8318,1462.0326,1462.0327,1462.5324,,,,,,,,,,,,,,0.1865,0,,,,,,,,,,,,,,z,,,,,,,,,,,,,,,,112,0,1462.5326,1462.7239,m,0,0.1865,,[],[],[],[],[],[],[],1462.724,1464.7232,1464.7233,1464.7239,[],[],[],[],[],[],[],,1464.7239,1464.724,-0.054856263,-0.402047385,0,0,0,,0,111,111,45,1,4,RL,spetisic,cursive,spetisic_c.png,,,,,
,,,,32088,001,2025-11-08_19h06.10.545,HW_LDT_1,2024.2.4,MacIntel,128.2051282,,,,,,,,,,,,,,,,,,,,,1464.7263,1464.9238,1464.9238,1465.4243,,,,,,,,,,,,,,0.0971,1,,,,,,,,,,,,,,z,,,,,,,,,,,,,,,,113,1,1465.4249,1465.524,z,1,0.0971,,[],[],[],[],[],[],[],1465.524,1467.5242,1467.5243,1467.5572,[],[],[],[],[],[],[],z,1467.5572,1467.5573,-0.054856263,-0.402047385,0,0,0,,0,112,112,71,1,4,TL,racidal,print,racidal_p.png,0.0288,,,,
,,,,32088,001,2025-11-08_19h06.10.545,HW_LDT_1,2024.2.4,MacIntel,128.2051282,,,,,,,,,,,,,,,,,,,,,1467.5577,1467.7573,1467.7573,1468.2572,,,,,,,,,,,,,,0.1294,0,,,,,,,,,,,,,,m,,,,,,,,,,,,,,,,114,0,1468.2575,1468.3897,z,0,0.1294,,[],[],[],[],[],[],[],1468.3898,1470.3906,1470.3906,1470.3907,[],[],[],[],[],[],[],,1470.3907,1470.3908,-0.054856263,-0.402047385,0,0,0,,0,113,113,136,1,4,word,RADICAL,print,radical_p.png,,,,,
,,,,32088,001,2025-11-08_19h06.10.545,HW_LDT_1,2024.2.4,MacIntel,128.2051282,,,,,,,,,,,,,,,,,,,,,1470.3915,1470.5899,1470.5899,1471.0908,,,,,,,,,,,,,,0.1157,0,,,,,,,,,,,,,,m,,,,,,,,,,,,,,,,115,0,1471.0914,1471.2078,z,0,0.1157,,[],[],[],[],[],[],[],1471.2078,1473.2074,1473.2077,1473.2082,[],[],[],[],[],[],[],,1473.2084,1473.2086,-0.054856263,-0.402047385,0,0,0,,0,114,114,88,1,4,word,CAMERA,print,camera_p.png,,,,,
,,,,32088,001,2025-11-08_19h06.10.545,HW_LDT_1,2024.2.4,MacIntel,128.2051282,,,,,,,,,,,,,,,,,,,,,1473.2119,1473.407,1473.407,1473.9072,,,,,,,,,,,,,,1.2059,0,,,,,,,,,,,,,,z,,,,,,,,,,,,,,,,116,0,1473.9076,1475.1156,m,0,1.2059,,[],[],[],[],[],[],[],1475.1156,1477.1157,1477.1159,1477.1161,[],[],[],[],[],[],[],,1477.1161,1477.1162,-0.054856263,-0.402047385,0,0,0,,0,115,115,29,1,4,RL,motide,print,motide_p.png,,,,,
,,,,32088,001,2025-11-08_19h06.10.545,HW_LDT_1,2024.2.4,MacIntel,128.2051282,,,,,,,,,,,,,,,,,,,,,1477.1176,1477.3157,1477.3158,1477.8158,,,,,,,,,,,,,,0.7547,1,,,,,,,,,,,,,,m,,,,,,,,,,,,,,,,117,0,1477.8165,1478.574,m,1,0.7547,,[],[],[],[],[],[],[],1478.574,1480.5735,1480.5735,1480.5738,[],[],[],[],[],[],[],,1480.5738,1480.5739,-0.054856263,-0.402047385,0,0,0,,0,116,116,144,1,4,word,RESIDENT,cursive,resident_c.png,,,,,
,,,,32088,001,2025-11-08_19h06.10.545,HW_LDT_1,2024.2.4,MacIntel,128.2051282,,,,,,,,,,,,,,,,,,,,,1480.5749,1480.7732,1480.7733,1481.2744,,,,,,,,,,,,,,0.4093,0,,,,,,,,,,,,,,z,,,,,,,,,,,,,,,,118,1,1481.2751,1481.6906,m,0,0.4093,,[],[],[],[],[],[],[],1481.6906,1483.6897,1483.6898,1484.2073,[],[],[],[],[],[],[],m,1484.2073,1484.2074,-0.054856263,-0.402047385,0,0,0,,0,117,117,7,1,4,RL,casena,print,casena_p.png,0.5161,,,,
,,,,32088,001,2025-11-08_19h06.10.545,HW_LDT_1,2024.2.4,MacIntel,128.2051282,,,,,,,,,,,,,,,,,,,,,1484.2082,1484.4074,1484.4075,1484.9075,,,,,,,,,,,,,,0.5849,0,,,,,,,,,,,,,,z,,,,,,,,,,,,,,,,119,0,1484.9082,1485.4989,m,0,0.5849,,[],[],[],[],[],[],[],1485.499,1487.4994,1487.4994,1487.4997,[],[],[],[],[],[],[],,1487.4997,1487.5,-0.054856263,-0.402047385,0,0,0,,0,118,118,0,1,4,RL,abanemy,print,abanemy_p.png,,,,,
,,,,32088,001,2025-11-08_19h06.10.545,HW_LDT_1,2024.2.4,MacIntel,128.2051282,,,,,,,,,,,,,,,,,,,,,1487.5037,1487.6994,1487.6995,1488.1983,,,,,,,,,,,,,,0.0437,0,,,,,,,,,,,,,,z,,,,,,,,,,,,,,,,120,0,1488.1988,1488.2492,m,0,0.0437,,[],[],[],[],[],[],[],1488.2492,1490.2492,1490.2492,1490.2494,[],[],[],[],[],[],[],,1490.2495,1490.2496,-0.054856263,-0.402047385,0,0,0,,0,119,119,30,1,4,RL,nunewical,cursive,nunewical_c.png,,,,,
,,,,32088,001,2025-11-08_19h06.10.545,HW_LDT_1,2024.2.4,MacIntel,128.2051282,,,,,,,,,,,,,,,,,,,,,1490.2509,1490.4492,1490.4492,1490.9487,,,,,,,,,,,,,,0.5904,1,,,,,,,,,,,,,,m,,,,,,,,,,,,,,,,121,0,1490.9494,1491.5407,m,1,0.5904,,[],[],[],[],[],[],[],1491.5407,1493.5408,1493.5409,1493.5412,[],[],[],[],[],[],[],,1493.5412,1493.5413,-0.054856263,-0.402047385,0,0,0,,0,120,120,118,1,4,word,MEDICINE,cursive,medicine_c.png,,,,,
,,,,32088,001,2025-11-08_19h06.10.545,HW_LDT_1,2024.2.4,MacIntel,128.2051282,,,,,,,,,,,,,,,,,,,,,1493.5425,1493.7399,1493.7399,1494.2399,,,,,,,,,,,,,,1.7728,1,,,,,,,,,,,,,,z,,,,,,,,,,,,,,,,122,0,1494.2405,1496.0157,z,1,1.7728,,[],[],[],[],[],[],[],1496.0157,1498.0158,1498.0158,1498.0159,[],[],[],[],[],[],[],,1498.0159,1498.0159,-0.054856263,-0.402047385,0,0,0,,0,121,121,26,1,4,RL,mesibine,cursive,mesibine_c.png,,,,,
,,,,32088,001,2025-11-08_19h06.10.545,HW_LDT_1,2024.2.4,MacIntel,128.2051282,,,,,,,,,,,,,,,,,,,,,1498.0166,1498.2149,1498.215,1498.716,,,,,,,,,,,,,,0.3764,1,,,,,,,,,,,,,,m,,,,,,,,,,,,,,,,123,0,1498.7164,1499.0988,m,1,0.3764,,[],[],[],[],[],[],[],1499.0989,1501.0989,1501.0989,1501.0992,[],[],[],[],[],[],[],,1501.0992,1501.0995,-0.054856263,-0.402047385,0,0,0,,0,122,122,129,1,4,word,PARENT,cursive,parent_c.png,,,,,
,,,,32088,001,2025-11-08_19h06.10.545,HW_LDT_1,2024.2.4,MacIntel,128.2051282,,,,,,,,,,,,,,,,,,,,,1501.1,1501.2991,1501.2992,1501.7992,,,,,,,,,,,,,,0.3381,0,,,,,,,,,,,,,,z,,,,,,,,,,,,,,,,124,0,1501.7998,1502.1407,m,0,0.3381,,[],[],[],[],[],[],[],1502.1407,1504.1406,1504.1406,1504.1407,[],[],[],[],[],[],[],,1504.1407,1504.1408,-0.054856263,-0.402047385,0,0,0,,0,123,123,15,1,4,RL,debave,cursive,debave_c.png,,,,,
,,,,32088,001,2025-11-08_19h06.10.545,HW_LDT_1,2024.2.4,MacIntel,128.2051282,,,,,,,,,,,,,,,,,,,,,1504.1415,1504.3398,1504.3399,1504.841,,,,,,,,,,,,,,44.3818,1,,,,,,,,,,,,,,m,,,,,,,,,,,,,,,,125,0,1504.8417,1549.2244,m,1,44.3818,,[],[],[],[],[],[],[],1549.2245,1551.2244,1551.2245,1551.225,[],[],[],[],[],[],[],,1551.2251,1551.2253,-0.054856263,-0.402047385,0,0,0,,0,124,124,148,1,4,word,SALINE,print,saline_p.png,,,,,
,,,,32088,001,2025-11-08_19h06.10.545,HW_LDT_1,2024.2.4,MacIntel,128.2051282,,,,,,,,,,,,,,,,,,,,,1551.2282,1551.4241,1551.4241,1551.9231,,,,,,,,,,,,,,0.1333,1,,,,,,,,,,,,,,m,,,,,,,,,,,,,,,,126,0,1551.9236,1552.0578,m,1,0.1333,,[],[],[],[],[],[],[],1552.0579,1554.0567,1554.0567,1554.0571,[],[],[],[],[],[],[],,1554.0571,1554.0573,-0.054856263,-0.402047385,0,0,0,,0,125,125,151,1,4,word,SPECIFIC,cursive,specific_c.png,,,,,
,,,,32088,001,2025-11-08_19h06.10.545,HW_LDT_1,2024.2.4,MacIntel,128.2051282,,,,,,,,,,,,,,,,,,,,,1554.0584,1554.2576,1554.2576,1554.7578,,,,,,,,,,,,,,0.2781,0,,,,,,,,,,,,,,m,,,,,,,,,,,,,,,,127,0,1554.7586,1555.0407,z,0,0.2781,,[],[],[],[],[],[],[],1555.0407,1557.0407,1557.0407,1557.0409,[],[],[],[],[],[],[],,1557.0409,1557.041,-0.054856263,-0.402047385,0,0,0,,0,126,126,84,1,4,word,BELOVED,print,beloved_p.png,,,,,
,,,,32088,001,2025-11-08_19h06.10.545,HW_LDT_1,2024.2.4,MacIntel,128.2051282,,,,,,,,,,,,,,,,,,,,,1557.0417,1557.2407,1557.2407,1557.7407,,,,,,,,,,,,,,0.1039,0,,,,,,,,,,,,,,z,,,,,,,,,,,,,,,,128,0,1557.741,1557.8491,m,0,0.1039,,[],[],[],[],[],[],[],1557.8492,1559.8491,1559.8491,1559.8491,[],[],[],[],[],[],[],,1559.8491,1559.8491,-0.054856263,-0.402047385,0,0,0,,0,127,127,37,1,4,RL,renutal,cursive,renutal_c.png,,,,,
,,,,32088,001,2025-11-08_19h06.10.545,HW_LDT_1,2024.2.4,MacIntel,128.2051282,,,,,,,,,,,,,,,,,,,,,1559.8495,1560.0491,1560.0491,1560.5493,,,,,,,,,,,,,,0.0426,0,,,,,,,,,,,,,,z,,,,,,,,,,,,,,,,129,0,1560.5501,1560.5992,m,0,0.0426,,[],[],[],[],[],[],[],1560.5992,1562.5991,1562.5992,1562.5993,[],[],[],[],[],[],[],,1562.5993,1562.5993,-0.054856263,-0.402047385,0,0,0,,0,128,128,12,1,4,RL,conbicer,cursive,conbicer_c.png,,,,,
,,,,32088,001,2025-11-08_19h06.10.545,HW_LDT_1,2024.2.4,MacIntel,128.2051282,,,,,,,,,,,,,,,,,,,,,1562.6,1562.7993,1562.7994,1563.2992,,,,,,,,,,,,,,0.0593,0,,,,,,,,,,,,,,z,,,,,,,,,,,,,,,,130,0,1563.2997,1563.3658,m,0,0.0593,,[],[],[],[],[],[],[],1563.3659,1565.3659,1565.366,1565.3662,[],[],[],[],[],[],[],,1565.3662,1565.3662,-0.054856263,-0.402047385,0,0,0,,0,129,129,16,1,4,RL,desifate,cursive,desifate_c.png,,,,,
,,,,32088,001,2025-11-08_19h06.10.545,HW_LDT_1,2024.2.4,MacIntel,128.2051282,,,,,,,,,,,,,,,,,,,,,1565.3675,1565.5658,1565.5659,1566.0661,,,,,,,,,,,,,,0.0691,0,,,,,,,,,,,,,,z,,,,,,,,,,,,,,,,131,1,1566.0669,1566.1408,m,0,0.0691,,[],[],[],[],[],[],[],1566.1409,1568.141,1568.1411,1568.2241,[],[],[],[],[],[],[],m,1568.2241,1568.2242,-0.054856263,-0.402047385,0,0,0,,0,130,130,42,1,4,RL,revune,print,revune_p.png,0.0804,,,,
,,,,32088,001,2025-11-08_19h06.10.545,HW_LDT_1,2024.2.4,MacIntel,128.2051282,,,,,,,,,,,,,,,,,,,,,1568.2249,1568.4234,1568.4235,1568.9236,,,,,,,,,,,,,,3.0077,0,,,,,,,,,,,,,,m,,,,,,,,,,,,,,,,132,0,1568.9243,1571.9326,z,0,3.0077,,[],[],[],[],[],[],[],1571.9327,1573.9326,1573.9326,1573.9328,[],[],[],[],[],[],[],,1573.9329,1573.9329,-0.054856263,-0.402047385,0,0,0,,0,131,131,131,1,4,word,POPULAR,print,popular_p.png,,,,,
,,,,32088,001,2025-11-08_19h06.10.545,HW_LDT_1,2024.2.4,MacIntel,128.2051282,,,,,,,,,,,,,,,,,,,,,1573.9343,1574.1328,1574.1328,1574.6326,,,,,,,,,,,,,,0.2105,0,,,,,,,,,,,,,,m,,,,,,,,,,,,,,,,133,0,1574.6333,1574.8492,z,0,0.2105,,[],[],[],[],[],[],[],1574.8492,1576.8494,1576.8494,1576.8496,[],[],[],[],[],[],[],,1576.8497,1576.8498,-0.054856263,-0.402047385,0,0,0,,0,132,132,137,1,4,word,RAPIDLY,cursive,rapidly_c.png,,,,,
,,,,32088,001,2025-11-08_19h06.10.545,HW_LDT_1,2024.2.4,MacIntel,128.2051282,,,,,,,,,,,,,,,,,,,,,1576.8514,1577.0493,1577.0493,1577.5493,,,,,,,,,,,,,,0.0214,0,,,,,,,,,,,,,,m,,,,,,,,,,,,,,,,134,0,1577.55,1577.5741,z,0,0.0214,,[],[],[],[],[],[],[],1577.5742,1579.5744,1579.5745,1579.5747,[],[],[],[],[],[],[],,1579.5749,1579.5749,-0.054856263,-0.402047385,0,0,0,,0,133,133,149,1,4,word,SENATOR,print,senator_p.png,,,,,
,,,,32088,001,2025-11-08_19h06.10.545,HW_LDT_1,2024.2.4,MacIntel,128.2051282,,,,,,,,,,,,,,,,,,,,,1579.576,1579.7743,1579.7744,1580.2743,,,,,,,,,,,,,,118.5442,1,,,,,,,,,,,,,,z,,,,,,,,,,,,,,,,135,0,1580.2747,1698.8245,z,1,118.5442,,[],[],[],[],[],[],[],1698.8245,1700.825,1700.825,1700.8254,[],[],[],[],[],[],[],,1700.8255,1700.8259,-0.054856263,-0.402047385,0,0,0,,0,134,134,17,1,4,RL,denficy,cursive,denficy_c.png,,,,,
,,,,32088,001,2025-11-08_19h06.10.545,HW_LDT_1,2024.2.4,MacIntel,128.2051282,,,,,,,,,,,,,,,,,,,,,1700.8313,1701.0246,1701.0247,1701.5247,,,,,,,,,,,,,,0.0179,0,,,,,,,,,,,,,,m,,,,,,,,,,,,,,,,136,0,1701.5256,1701.5494,z,0,0.0179,,[],[],[],[],[],[],[],1701.5494,1703.5493,1703.5493,1703.5494,[],[],[],[],[],[],[],,1703.5495,1703.5495,-0.054856263,-0.402047385,0,0,0,,0,135,135,100,1,4,word,DECADE,cursive,decade_c.png,,,,,
,,,,32088,001,2025-11-08_19h06.10.545,HW_LDT_1,2024.2.4,MacIntel,128.2051282,,,,,,,,,,,,,,,,,,,,,1703.5504,1703.7492,1703.7493,1704.2498,,,,,,,,,,,,,,0.1567,0,,,,,,,,,,,,,,m,,,,,,,,,,,,,,,,137,0,1704.2505,1704.4078,z,0,0.1567,,[],[],[],[],[],[],[],1704.4078,1706.4082,1706.4082,1706.4083,[],[],[],[],[],[],[],,1706.4083,1706.4084,-0.054856263,-0.402047385,0,0,0,,0,136,136,96,1,4,word,CONSIDER,cursive,consider_c.png,,,,,
,,,,32088,001,2025-11-08_19h06.10.545,HW_LDT_1,2024.2.4,MacIntel,128.2051282,,,,,,,,,,,,,,,,,,,,,1706.4096,1706.6068,1706.6068,1707.1077,,,,,,,,,,,,,,0.1649,0,,,,,,,,,,,,,,m,,,,,,,,,,,,,,,,138,0,1707.1081,1707.2737,z,0,0.1649,,[],[],[],[],[],[],[],1707.2738,1709.2736,1709.2736,1709.2738,[],[],[],[],[],[],[],,1709.2739,1709.2739,-0.054856263,-0.402047385,0,0,0,,0,137,137,104,1,4,word,DOMINANT,cursive,dominant_c.png,,,,,
,,,,32088,001,2025-11-08_19h06.10.545,HW_LDT_1,2024.2.4,MacIntel,128.2051282,,,,,,,,,,,,,,,,,,,,,1709.2751,1709.4746,1709.4747,1709.9743,,,,,,,,,,,,,,49.8333,1,,,,,,,,,,,,,,z,,,,,,,,,,,,,,,,139,0,1709.9746,1759.8081,,0,,,[-0.26085846944151736],[-0.3205059602212856],[1],[0],[0],[49.833300000190775],"[""button_left_main""]",1759.8083,1761.8068,1761.8068,1761.8069,[],[],[],[],[],[],[],,1761.8069,1761.8071,-0.2650652,-0.317653451,0,0,0,,0,138,138,2,1,4,RL,asiral,cursive,asiral_c.png,,,,,
,,,,32088,001,2025-11-08_19h06.10.545,HW_LDT_1,2024.2.4,MacIntel,128.2051282,,,,,,,,,,,,,,,,,,,,,1761.8083,1762.0068,1762.0069,1762.5078,,,,,,,,,,,,,,0.3324,0,,,,,,,,,,,,,,m,,,,,,,,,,,,,,,,140,0,1762.5084,1762.8411,,0,,,[-0.2653121707060063],[-0.31765345100105374],[1],[0],[0],[0.33239999985698887],"[""button_left_main""]",1762.8411,1764.8412,1764.8413,1764.8413,[],[],[],[],[],[],[],,1764.8413,1764.8413,-0.265312171,-0.317653451,0,0,0,,0,139,139,154,1,4,word,STORAGE,print,storage_p.png,,,,,
,,,,32088,001,2025-11-08_19h06.10.545,HW_LDT_1,2024.2.4,MacIntel,128.2051282,,,,,,,,,,,,,,,,,,,,,1764.8417,1765.041,1765.041,1765.541,,,,,,,,,,,,,,0.0831,1,,,,,,,,,,,,,,z,,,,,,,,,,,,,,,,141,1,1765.5412,1765.6244,,0,,,[-0.2653121707060063],[-0.31765345100105374],[1],[0],[0],[0.08310000014307661],"[""button_left_main""]",1765.6244,1767.6234,1767.6234,1767.7246,[-0.2653121707060063],[-0.31765345100105374],[1],[0],[0],[0.10110000014310572],"[""button_left_probe""]",,1767.7246,1767.7246,-0.265312171,-0.317653451,1,0,0,,0,140,140,38,1,4,RL,refakive,print,refakive_p.png,,,,,
,,,,32088,001,2025-11-08_19h06.10.545,HW_LDT_1,2024.2.4,MacIntel,128.2051282,,,,,,,,,,,,,,,,,,,,,1767.725,1767.9243,1767.9243,1768.4243,,,,,,,,,,,,,,0.1154,0,,,,,,,,,,,,,,m,,,,,,,,,,,,,,,,142,0,1768.4245,1768.5401,,0,,,[-0.2653121707060063],[-0.31765345100105374],[1],[0],[0],[0.11539999985711802],"[""button_left_main""]",1768.5402,1770.541,1770.541,1770.5411,[],[],[],[],[],[],[],,1770.5411,1770.5411,0.045022721,-0.299064805,0,0,0,,0,141,141,126,1,4,word,OPTIMAL,print,optimal_p.png,,,,,
,,,,32088,001,2025-11-08_19h06.10.545,HW_LDT_1,2024.2.4,MacIntel,128.2051282,,,,,,,,,,,,,,,,,,,,,1770.5415,1770.74,1770.74,1771.241,,,,,,,,,,,,,,0.3746,1,,,,,,,,,,,,,,m,,,,,,,,,,,,,,,,143,0,1771.2412,1771.6161,,0,,,[0.4429374670706006],[-0.35984012776606955],[1],[0],[0],[0.37459999990460346],"[""button_right_main""]",1771.6161,1773.6159,1773.6162,1773.6171,[],[],[],[],[],[],[],,1773.6172,1773.6175,0.442937467,-0.359840128,1,0,0,,0,142,142,119,1,4,word,MEMORY,print,memory_p.png,,,,,
,,,,32088,001,2025-11-08_19h06.10.545,HW_LDT_1,2024.2.4,MacIntel,128.2051282,,,,,,,,,,,,,,,,,,,,,1773.6233,1773.8158,1773.8159,1774.3161,,,,,,,,,,,,,,0.0911,1,,,,,,,,,,,,,,m,,,,,,,,,,,,,,,,144,0,1774.3165,1774.4078,,0,,,[0.4429374670706006],[-0.35984012776606955],[1],[0],[0],[0.09109999990459983],"[""button_right_main""]",1774.4079,1776.4077,1776.4077,1776.4079,[],[],[],[],[],[],[],,1776.4079,1776.4079,0.442937467,-0.359840128,0,0,0,,0,143,143,122,1,4,word,MOBILE,print,mobile_p.png,,,,,
,,,,32088,001,2025-11-08_19h06.10.545,HW_LDT_1,2024.2.4,MacIntel,128.2051282,,,,,,,,,,,,,,,,,,,,,1776.4109,1776.6068,1776.6068,1777.1082,,,,,,,,,,,,,,7.4985,0,,,,,,,,,,,,,,z,,,,,,,,,,,,,,,,145,1,1777.1089,1784.6078,,0,,,[0.42913593256059007],[-0.3376498287671233],[1],[0],[0],[7.498499999999922],"[""button_right_main""]",1784.6079,1786.6078,1786.6079,1889.5407,[],[],[],[],[],[],[],z,1889.5408,1889.541,0.429135933,-0.337649829,0,0,0,,0,144,144,4,1,4,RL,betemit,cursive,betemit_c.png,102.9314,,,,
,,,,32088,001,2025-11-08_19h06.10.545,HW_LDT_1,2024.2.4,MacIntel,128.2051282,,,,,,,,,,,,,,,,,,,,,1889.5427,1889.7412,1889.7412,1890.2416,,,,,,,,,,,,,,0.4277,0,,,,,,,,,,,,,,m,,,,,,,,,,,,,,,,146,0,1890.2423,1890.6745,z,0,0.4277,,[],[],[],[],[],[],[],1890.6746,1892.6738,1892.6738,1892.6738,[],[],[],[],[],[],[],,1892.6738,1892.6738,0.429135933,-0.337649829,0,0,0,,0,145,145,94,1,4,word,CLINICAL,print,clinical_p.png,,,,,
,,,,32088,001,2025-11-08_19h06.10.545,HW_LDT_1,2024.2.4,MacIntel,128.2051282,,,,,,,,,,,,,,,,,,,,,1892.6742,1892.875,1892.875,1893.3751,,,,,,,,,,,,,,0.1788,0,,,,,,,,,,,,,,m,,,,,,,,,,,,,,,,147,0,1893.3756,1893.5576,z,0,0.1788,,[],[],[],[],[],[],[],1893.5576,1895.5583,1895.5584,1895.5588,[],[],[],[],[],[],[],,1895.5588,1895.5591,0.429135933,-0.337649829,0,0,0,,0,146,146,110,1,4,word,HERITAGE,print,heritage_p.png,,,,,
,,,,32088,001,2025-11-08_19h06.10.545,HW_LDT_1,2024.2.4,MacIntel,128.2051282,,,,,,,,,,,,,,,,,,,,,1895.5613,1895.7569,1895.757,1896.2579,,,,,,,,,,,,,,0.1354,0,,,,,,,,,,,,,,m,,,,,,,,,,,,,,,,148,0,1896.2583,1896.3997,z,0,0.1354,,[],[],[],[],[],[],[],1896.3997,1898.3998,1898.3999,1898.4,[],[],[],[],[],[],[],,1898.4001,1898.4003,0.429135933,-0.337649829,0,0,0,,0,147,147,82,1,4,word,AMATEUR,cursive,amateur_c.png,,,,,
,,,,32088,001,2025-11-08_19h06.10.545,HW_LDT_1,2024.2.4,MacIntel,128.2051282,,,,,,,,,,,,,,,,,,,,,1898.4009,1898.5999,1898.5999,1899.0997,,,,,,,,,,,,,,0.0923,0,,,,,,,,,,,,,,z,,,,,,,,,,,,,,,,149,1,1899.1012,1899.1997,m,0,0.0923,,[],[],[],[],[],[],[],1899.1997,1901.2,1901.2,1901.3413,[],[],[],[],[],[],[],z,1901.3413,1901.3413,0.429135933,-0.337649829,0,0,0,,0,148,148,36,1,4,RL,rabigly,cursive,rabigly_c.png,0.1377,,,,
,,,,32088,001,2025-11-08_19h06.10.545,HW_LDT_1,2024.2.4,MacIntel,128.2051282,,,,,,,,,,,,,,,,,,,,,1901.3417,1901.5408,1901.5408,1902.0403,,,,,,,,,,,,,,0.1812,1,,,,,,,,,,,,,,z,,,,,,,,,,,,,,,,150,1,1902.0407,1902.224,z,1,0.1812,,[],[],[],[],[],[],[],1902.224,1904.2248,1904.2248,1904.3416,[],[],[],[],[],[],[],z,1904.3416,1904.3418,0.429135933,-0.337649829,0,0,0,,0,149,149,56,1,4,TL,donimant,cursive,donimant_c.png,0.1134,,,,
,,,,32088,001,2025-11-08_19h06.10.545,HW_LDT_1,2024.2.4,MacIntel,128.2051282,,,,,,,,,,,,,,,,,,,,,1904.3426,1904.5414,1904.5415,1905.0415,,,,,,,,,,,,,,0.5189,0,,,,,,,,,,,,,,z,,,,,,,,,,,,,,,,151,0,1905.0422,1905.5659,m,0,0.5189,,[],[],[],[],[],[],[],1905.566,1907.5667,1907.5667,1907.5669,[],[],[],[],[],[],[],,1907.567,1907.567,0.429135933,-0.337649829,0,0,0,,0,150,150,62,1,4,TL,locigal,print,locigal_p.png,,,,,
,,,,32088,001,2025-11-08_19h06.10.545,HW_LDT_1,2024.2.4,MacIntel,128.2051282,,,,,,,,,,,,,,,,,,,,,1907.5685,1907.7663,1907.7663,1908.2665,,,,,,,,,,,,,,0.6385,0,,,,,,,,,,,,,,z,,,,,,,,,,,,,,,,152,0,1908.2671,1908.9077,m,0,0.6385,,[],[],[],[],[],[],[],1908.9077,1910.9081,1910.9082,1910.9085,[],[],[],[],[],[],[],,1910.9085,1910.9088,0.429135933,-0.337649829,0,0,0,,0,151,151,24,1,4,RL,marmipal,cursive,marmipal_c.png,,,,,
,,,,32088,001,2025-11-08_19h06.10.545,HW_LDT_1,2024.2.4,MacIntel,128.2051282,,,,,,,,,,,,,,,,,,,,,1910.9097,1911.1082,1911.1083,1911.6073,,,,,,,,,,,,,,28.889,1,,,,,,,,,,,,,,z,,,,,,,,,,,,,,,,153,0,1911.6078,1940.4997,z,1,28.889,,[],[],[],[],[],[],[],1940.4998,1942.5,1942.5001,1942.5002,[],[],[],[],[],[],[],,1942.5003,1942.5004,0.429135933,-0.337649829,0,0,0,,0,152,152,6,1,4,RL,caleberia,cursive,caleberia_c.png,,,,,
,,,,32088,001,2025-11-08_19h06.10.545,HW_LDT_1,2024.2.4,MacIntel,128.2051282,,,,,,,,,,,,,,,,,,,,,1942.5018,1942.6998,1942.6998,1943.1998,,,,,,,,,,,,,,0.9382,1,,,,,,,,,,,,,,m,,,,,,,,,,,,,,,,154,0,1943.2004,1944.1415,m,1,0.9382,,[],[],[],[],[],[],[],1944.1415,1946.1406,1946.1407,1946.1408,[],[],[],[],[],[],[],,1946.1408,1946.1409,0.429135933,-0.337649829,0,0,0,,0,153,153,109,1,4,word,GRATEFUL,print,grateful_p.png,,,,,
,,,,32088,001,2025-11-08_19h06.10.545,HW_LDT_1,2024.2.4,MacIntel,128.2051282,,,,,,,,,,,,,,,,,,,,,1946.1418,1946.3413,1946.3413,1946.8404,,,,,,,,,,,,,,0.1698,0,,,,,,,,,,,,,,z,,,,,,,,,,,,,,,,155,0,1946.8406,1947.0165,m,0,0.1698,,[],[],[],[],[],[],[],1947.0166,1949.0445,1949.0449,1949.0456,[],[],[],[],[],[],[],,1949.0457,1949.046,0.429135933,-0.337649829,0,0,0,,0,154,154,72,1,4,TL,relugar,cursive,relugar_c.png,,,,,
,,,,32088,001,2025-11-08_19h06.10.545,HW_LDT_1,2024.2.4,MacIntel,128.2051282,,,,,,,,,,,,,,,,,,,,,1949.0696,1949.1195,1949.1196,1949.7413,,,,,,,,,,,,,,0.1155,1,,,,,,,,,,,,,,m,,,,,,,,,,,,,,,,156,0,1949.7417,1949.858,m,1,0.1155,,[],[],[],[],[],[],[],1949.858,1951.858,1951.8582,1951.8583,[],[],[],[],[],[],[],,1951.8584,1951.8585,0.429135933,-0.337649829,0,0,0,,0,155,155,87,1,4,word,CAFETERIA,cursive,cafeteria_c.png,,,,,
,,,,32088,001,2025-11-08_19h06.10.545,HW_LDT_1,2024.2.4,MacIntel,128.2051282,,,,,,,,,,,,,,,,,,,,,1951.8594,1952.058,1952.058,1952.558,,,,,,,,,,,,,,0.3702,0,,,,,,,,,,,,,,z,,,,,,,,,,,,,,,,157,0,1952.5584,1952.9328,m,0,0.3702,,[],[],[],[],[],[],[],1952.933,1954.9342,1954.9346,1954.9353,[],[],[],[],[],[],[],,1954.9354,1954.9356,0.429135933,-0.337649829,0,0,0,,0,156,156,18,1,4,RL,disluge,print,disluge_p.png,,,,,
,,,,32088,001,2025-11-08_19h06.10.545,HW_LDT_1,2024.2.4,MacIntel,128.2051282,,,,,,,,,,,,,,,,,,,,,1954.9381,1955.1336,1955.1336,1955.633,,,,,,,,,,,,,,0.4895,0,,,,,,,,,,,,,,m,,,,,,,,,,,,,,,,158,1,1955.6337,1956.1248,z,0,0.4895,,[],[],[],[],[],[],[],1956.1248,1958.1247,1958.1248,1958.4832,[],[],[],[],[],[],[],z,1958.4832,1958.4832,0.429135933,-0.337649829,0,0,0,,0,157,157,158,1,4,word,VELOCITY,cursive,velocity_c.png,0.3531,,,,
,,,,32088,001,2025-11-08_19h06.10.545,HW_LDT_1,2024.2.4,MacIntel,128.2051282,,,,,,,,,,,,,,,,,,,,,1958.4841,1958.6837,1958.6837,1959.1831,,,,,,,,,,,,,,1.3103,1,,,,,,,,,,,,,,z,,,,,,,,,,,,,,,,159,0,1959.1833,1960.4998,z,1,1.3103,,[],[],[],[],[],[],[],1960.4999,1962.4999,1962.4999,1962.5001,[],[],[],[],[],[],[],,1962.5001,1962.5002,0.429135933,-0.337649829,0,0,0,,0,158,158,64,1,4,TL,moredate,print,moredate_p.png,,,,,
,,,,32088,001,2025-11-08_19h06.10.545,HW_LDT_1,2024.2.4,MacIntel,128.2051282,,,,,,,,,,,,,,,,,,,,,1962.5013,1962.6997,1962.6997,1963.2,,,,,,,,,,,,,,0.9596,0,,,,,,,,,,,,,,m,,,,,,,,,,,,,,,,160,0,1963.2007,1964.1666,z,0,0.9596,,[],[],[],[],[],[],[],1964.1667,1966.1663,1966.1663,1966.1665,[],[],[],[],[],[],[],,1966.1665,1966.1665,0.429135933,-0.337649829,0,0,0,,0,159,159,93,1,4,word,CEREMONY,print,ceremony_p.png,,,,,
,,,,32088,001,2025-11-08_19h06.10.545,HW_LDT_1,2024.2.4,MacIntel,128.2051282,,,,,,,,,,,,,,,,,,,,,,,,,,,,,,,,,,,,,,,,,,,,,,,,,,,,,,,,,,,,,,,,,,,,,,,,,,,,,,,,,,,,,,,,,,,,,,,,,,,,,,,,,,,,,,,,,,,,,1966.1686,1971.167
