counterbalance_lists.group,counterbalance_lists.remaining,get_list.started,get_list.stopped,participant,session,date,expName,psychopyVersion,OS,frameRate,Instructions.started,Instructions.stopped,key_resp.keys,instr_done_touch.x,instr_done_touch.y,instr_done_touch.leftButton,instr_done_touch.midButton,instr_done_touch.rightButton,instr_done_touch.clicked_name,start_instr.thisRepN,start_instr.thisTrialN,start_instr.thisN,start_instr.thisIndex,start_instr.ran,pageN,phase,instruct_text,has_image,instruct_image,key_resp.rt,key_resp.duration,showProgress.started,showProgress.stopped,fix.started,fix.stopped,prac.started,prac.stopped,response.keys,response.corr,response.rt,response.duration,touch_resp.x,touch_resp.y,touch_resp.leftButton,touch_resp.midButton,touch_resp.rightButton,touch_resp.time,touch_resp.clicked_name,rt,corr,feedback.started,feedback.stopped,trials.thisRepN,trials.thisTrialN,trials.thisN,trials.thisIndex,trials.ran,TrialID,StimulusType,Condition,PrimeDuration,Prime,Target,corrAns,Instructions_expt.started,Instructions_expt.stopped,key_resp_3.keys,key_resp_3.rt,key_resp_3.duration,instr_done_touch_3.x,instr_done_touch_3.y,instr_done_touch_3.leftButton,instr_done_touch_3.midButton,instr_done_touch_3.rightButton,instr_experiment.thisRepN,instr_experiment.thisTrialN,instr_experiment.thisN,instr_experiment.thisIndex,instr_experiment.ran,trialID,flag,maintask.started,maintask.stopped,key_resp_2.keys,key_resp_2.corr,key_resp_2.rt,key_resp_2.duration,targ_click.x,targ_click.y,targ_click.leftButton,targ_click.midButton,targ_click.rightButton,targ_click.time,targ_click.clicked_name,ITI.started,ITI.stopped,probe.started,probe.stopped,click_probe.x,click_probe.y,click_probe.leftButton,click_probe.midButton,click_probe.rightButton,click_probe.time,click_probe.clicked_name,key_resp_probe.keys,Break.started,Break.stopped,break_done_touch.x,break_done_touch.y,break_done_touch.leftButton,break_done_touch.midButton,break_done_touch.rightButton,break_done_keyboard.keys,list2_trials.thisRepN,list2_trials.thisTrialN,list2_trials.thisN,list2_trials.thisIndex,list2_trials.ran,list_id,item_type,string,font,stim_file,key_resp_probe.rt,key_resp_probe.duration,break_done_keyboard.rt,break_done_keyboard.duration,End.started,End.stopped
list2,,64.7144,64.7145,32081,001,2025-10-21_15h23.01.545,HW_LDT_1,2024.2.4,MacIntel,59.88023952,,,,,,,,,,,,,,,,,,,,,,,,,,,,,,,,,,,,,,,,,,,,,,,,,,,,,,,,,,,,,,,,,,,,,,,,,,,,,,,,,,,,,,,,,,,,,,,,,,,,,,,,,,,,,,,,,,,,,,,,
,,,,32081,001,2025-10-21_15h23.01.545,HW_LDT_1,2024.2.4,MacIntel,59.88023952,64.7308,93.8583,,0.004025265,-0.399712663,1,0,0,instr_done_button,0,0,0,0,1,1,instructions,"INSTRUCTIONS
At the start of each trial, look at the plus sign  (+) in the center of the screen.  This tells you that a trial is about to begin and where to look. Second, the plus sign will disappear and a string of letters will appear. Your task is to determine if the string of letters is a word or not. If the item is a word press the M key (on keyboard)  or touch the word button (phone/tablet).  If the item is not a word,  press the  Z key (on keyboard)  or touch the nonword button (on phone/tablet). The items will be presented for a short time. 
Press the space bar or touch  continue.",0,,,,,,,,,,,,,,,,,,,,,,,,,,,,,,,,,,,,,,,,,,,,,,,,,,,,,,,,,,,,,,,,,,,,,,,,,,,,,,,,,,,,,,,,,,,,,,,,,,,,,,
,,,,32081,001,2025-10-21_15h23.01.545,HW_LDT_1,2024.2.4,MacIntel,59.88023952,93.8593,99.1585,space,0.03382583,-0.104410365,0,0,0,,0,1,1,1,1,2,instructions,"If your device has a keyboard, press the 'Z' key for nonwords and the 'M' key for words.





Press the space bar or touch the button below to continue.",0,keyboard-example.gif,5.2733,,,,,,,,,,,,,,,,,,,,,,,,,,,,,,,,,,,,,,,,,,,,,,,,,,,,,,,,,,,,,,,,,,,,,,,,,,,,,,,,,,,,,,,,,,,,,,,,,,,,
,,,,32081,001,2025-10-21_15h23.01.545,HW_LDT_1,2024.2.4,MacIntel,59.88023952,99.1599,101.9418,space,0.03382583,-0.104410365,0,0,0,,0,2,2,2,1,3,instructions,"If you are using a touchscreen only device, use the buttons on the screen. Do not use the mouse.





Press the space bar or touch the button below to continue.",0,touchscreen-example.gif,2.7518,,,,,,,,,,,,,,,,,,,,,,,,,,,,,,,,,,,,,,,,,,,,,,,,,,,,,,,,,,,,,,,,,,,,,,,,,,,,,,,,,,,,,,,,,,,,,,,,,,,,
,,,,32081,001,2025-10-21_15h23.01.545,HW_LDT_1,2024.2.4,MacIntel,59.88023952,101.9437,117.0578,space,-0.419039887,-0.460401931,0,0,0,,0,3,3,3,1,4,instructions,"It is very important that you respond as quickly and accurately as possible, as each letter string will only be on the screen for two seconds. If you do not respond within this time, the message 'Too slow!' will be displayed and the experiment will progress to the next letter string. The first 20 trials will be practice trials and you will receive feedback on your answers. 

Press the space bar or touch the button below to start the practice trials.",0,,15.0856,,,,,,,,,,,,,,,,,,,,,,,,,,,,,,,,,,,,,,,,,,,,,,,,,,,,,,,,,,,,,,,,,,,,,,,,,,,,,,,,,,,,,,,,,,,,,,,,,,,,
,,,,32081,001,2025-10-21_15h23.01.545,HW_LDT_1,2024.2.4,MacIntel,59.88023952,,,,,,,,,,,,,,,,,,,,,,117.0762,117.2581,117.2584,117.7582,117.7586,119.0084,z,1,1.2264,,[],[],[],[],[],[],[],1.2264,1,119.0088,119.5082,0,0,0,12,1,1013,NW,UN,33,adveil,SPRINY,z,,,,,,,,,,,,,,,,,,,,,,,,,,,,,,,,,,,,,,,,,,,,,,,,,,,,,,,,,,,,,,,,,,
,,,,32081,001,2025-10-21_15h23.01.545,HW_LDT_1,2024.2.4,MacIntel,59.88023952,,,,,,,,,,,,,,,,,,,,,,119.5097,119.7079,119.7079,120.2071,120.208,120.9571,z,1,0.73,,[],[],[],[],[],[],[],0.73,1,120.9572,121.458,0,1,1,15,1,1016,NW,UN,16,mushed,WHAISE,z,,,,,,,,,,,,,,,,,,,,,,,,,,,,,,,,,,,,,,,,,,,,,,,,,,,,,,,,,,,,,,,,,,
,,,,32081,001,2025-10-21_15h23.01.545,HW_LDT_1,2024.2.4,MacIntel,59.88023952,,,,,,,,,,,,,,,,,,,,,,121.4594,121.658,121.658,122.1572,122.1581,123.5246,m,1,1.3506,,[],[],[],[],[],[],[],1.3506,1,123.5247,124.0246,0,2,2,1,1,1002,WORD,"ID",33,adjust,ADJUST,m,,,,,,,,,,,,,,,,,,,,,,,,,,,,,,,,,,,,,,,,,,,,,,,,,,,,,,,,,,,,,,,,,,
,,,,32081,001,2025-10-21_15h23.01.545,HW_LDT_1,2024.2.4,MacIntel,59.88023952,,,,,,,,,,,,,,,,,,,,,,124.026,124.2236,124.2236,124.7246,124.7255,125.7247,z,1,0.9811,,[],[],[],[],[],[],[],0.9811,1,125.7248,126.2248,0,3,3,8,1,1009,NW,"ID",33,aslert,ASLERT,z,,,,,,,,,,,,,,,,,,,,,,,,,,,,,,,,,,,,,,,,,,,,,,,,,,,,,,,,,,,,,,,,,,
,,,,32081,001,2025-10-21_15h23.01.545,HW_LDT_1,2024.2.4,MacIntel,59.88023952,,,,,,,,,,,,,,,,,,,,,,126.2261,126.4247,126.4247,126.9238,126.9246,127.658,z,1,0.7141,,[],[],[],[],[],[],[],0.7141,1,127.6582,128.1581,0,4,4,14,1,1015,NW,UN,16,miaber,THRALE,z,,,,,,,,,,,,,,,,,,,,,,,,,,,,,,,,,,,,,,,,,,,,,,,,,,,,,,,,,,,,,,,,,,
,,,,32081,001,2025-10-21_15h23.01.545,HW_LDT_1,2024.2.4,MacIntel,59.88023952,,,,,,,,,,,,,,,,,,,,,,128.1592,128.3581,128.3582,128.8579,128.8589,129.5569,m,1,0.6835,,[],[],[],[],[],[],[],0.6835,1,129.5571,130.058,0,5,5,2,1,1003,WORD,"ID",16,almond,ALMOND,m,,,,,,,,,,,,,,,,,,,,,,,,,,,,,,,,,,,,,,,,,,,,,,,,,,,,,,,,,,,,,,,,,,
,,,,32081,001,2025-10-21_15h23.01.545,HW_LDT_1,2024.2.4,MacIntel,59.88023952,,,,,,,,,,,,,,,,,,,,,,130.0592,130.257,130.257,130.757,130.7579,131.6911,m,1,0.9139,,[],[],[],[],[],[],[],0.9139,1,131.6913,132.1913,0,6,6,6,1,1007,WORD,UN,16,tropic,ZOMBIE,m,,,,,,,,,,,,,,,,,,,,,,,,,,,,,,,,,,,,,,,,,,,,,,,,,,,,,,,,,,,,,,,,,,
,,,,32081,001,2025-10-21_15h23.01.545,HW_LDT_1,2024.2.4,MacIntel,59.88023952,,,,,,,,,,,,,,,,,,,,,,132.1925,132.3913,132.3913,132.8913,132.892,133.7246,m,1,0.8118,,[],[],[],[],[],[],[],0.8118,1,133.7247,134.2246,0,7,7,0,1,1001,WORD,"ID",33,utopia,UTOPIA,m,,,,,,,,,,,,,,,,,,,,,,,,,,,,,,,,,,,,,,,,,,,,,,,,,,,,,,,,,,,,,,,,,,
,,,,32081,001,2025-10-21_15h23.01.545,HW_LDT_1,2024.2.4,MacIntel,59.88023952,,,,,,,,,,,,,,,,,,,,,,134.2259,134.4246,134.4246,134.9245,134.9254,135.5578,m,1,0.6235,,[],[],[],[],[],[],[],0.6235,1,135.558,136.057,0,8,8,7,1,1008,WORD,UN,16,hurdle,VOLUME,m,,,,,,,,,,,,,,,,,,,,,,,,,,,,,,,,,,,,,,,,,,,,,,,,,,,,,,,,,,,,,,,,,,
,,,,32081,001,2025-10-21_15h23.01.545,HW_LDT_1,2024.2.4,MacIntel,59.88023952,,,,,,,,,,,,,,,,,,,,,,136.0583,136.257,136.257,136.7578,136.7586,137.5403,z,1,0.762,,[],[],[],[],[],[],[],0.762,1,137.5404,138.0412,0,9,9,11,1,1012,NW,"ID",16,rashet,RASHET,z,,,,,,,,,,,,,,,,,,,,,,,,,,,,,,,,,,,,,,,,,,,,,,,,,,,,,,,,,,,,,,,,,,
,,,,32081,001,2025-10-21_15h23.01.545,HW_LDT_1,2024.2.4,MacIntel,59.88023952,,,,,,,,,,,,,,,,,,,,,,138.0424,138.2412,138.2413,138.7413,138.7421,139.5246,z,1,0.7629,,[],[],[],[],[],[],[],0.7629,1,139.5248,140.0236,0,10,10,10,1,1011,NW,"ID",16,inlade,INLADE,z,,,,,,,,,,,,,,,,,,,,,,,,,,,,,,,,,,,,,,,,,,,,,,,,,,,,,,,,,,,,,,,,,,
,,,,32081,001,2025-10-21_15h23.01.545,HW_LDT_1,2024.2.4,MacIntel,59.88023952,,,,,,,,,,,,,,,,,,,,,,140.0248,140.2245,140.2246,140.7245,140.7253,141.4412,m,1,0.6959,,[],[],[],[],[],[],[],0.6959,1,141.4413,141.9413,0,11,11,3,1,1004,WORD,"ID",16,matrix,MATRIX,m,,,,,,,,,,,,,,,,,,,,,,,,,,,,,,,,,,,,,,,,,,,,,,,,,,,,,,,,,,,,,,,,,,
,,,,32081,001,2025-10-21_15h23.01.545,HW_LDT_1,2024.2.4,MacIntel,59.88023952,,,,,,,,,,,,,,,,,,,,,,141.9426,142.1412,142.1413,142.6412,142.6421,143.4236,z,1,0.763,,[],[],[],[],[],[],[],0.763,1,143.4237,143.9246,0,12,12,13,1,1014,NW,UN,33,winfer,ROUPET,z,,,,,,,,,,,,,,,,,,,,,,,,,,,,,,,,,,,,,,,,,,,,,,,,,,,,,,,,,,,,,,,,,,
,,,,32081,001,2025-10-21_15h23.01.545,HW_LDT_1,2024.2.4,MacIntel,59.88023952,,,,,,,,,,,,,,,,,,,,,,143.9258,144.1246,144.1246,144.6244,144.6251,145.2577,m,1,0.6225,,[],[],[],[],[],[],[],0.6225,1,145.2579,145.7573,0,13,13,5,1,1006,WORD,UN,33,frenzy,OBTAIN,m,,,,,,,,,,,,,,,,,,,,,,,,,,,,,,,,,,,,,,,,,,,,,,,,,,,,,,,,,,,,,,,,,,
,,,,32081,001,2025-10-21_15h23.01.545,HW_LDT_1,2024.2.4,MacIntel,59.88023952,,,,,,,,,,,,,,,,,,,,,,145.7585,145.9578,145.9579,146.4568,146.4577,147.1248,m,1,0.6578,,[],[],[],[],[],[],[],0.6578,1,147.1249,147.6246,0,14,14,4,1,1005,WORD,UN,33,abound,SQUEAK,m,,,,,,,,,,,,,,,,,,,,,,,,,,,,,,,,,,,,,,,,,,,,,,,,,,,,,,,,,,,,,,,,,,
,,,,32081,001,2025-10-21_15h23.01.545,HW_LDT_1,2024.2.4,MacIntel,59.88023952,,,,,,,,,,,,,,,,,,,,,,147.6258,147.8244,147.8245,148.3236,148.3244,149.0745,z,1,0.7303,,[],[],[],[],[],[],[],0.7303,1,149.0746,149.5745,0,15,15,9,1,1010,NW,"ID",33,fariny,FARINY,z,,,,,,,,,,,,,,,,,,,,,,,,,,,,,,,,,,,,,,,,,,,,,,,,,,,,,,,,,,,,,,,,,,
,,,,32081,001,2025-10-21_15h23.01.545,HW_LDT_1,2024.2.4,MacIntel,59.88023952,,,,,,,,,,,,,,,1,end_of_practice,"You have completed the practice trials. During the experimental trials, you will not receive feedback. On some trials you will be asked to report whether the item you just saw was in cursive or print. 
Before you begin, please ensure that you are in a comfortable and quiet location and will not be disturbed for about 15 minutes, as we cannot use your data if you do not complete all the trials. 
 When you are ready to start the experimental trials, please press space or touch the button below.",,,,,,,,,,,,,,,,,,,,,,,,,,,,,,,,,,,,,,149.5798,179.4239,space,29.8167,,0.406267002,0.142074436,0,0,0,0,0,0,0,1,,,,,,,,,,,,,,,,,,,,,,,,,,,,,,,,,,,,,,,,,,,,,,,,,,,
,,,,32081,001,2025-10-21_15h23.01.545,HW_LDT_1,2024.2.4,MacIntel,59.88023952,,,,,,,,,,,,,,,,,,,,,,179.4349,179.6233,179.6234,180.1243,,,,,,,,,,,,,,0.7288,1,,,,,,,,,,,,,,z,,,,,,,,,,,,,,,,1,0,180.1257,180.8574,z,1,0.7288,,[],[],[],[],[],[],[],180.8575,182.8568,182.857,182.8592,[],[],[],[],[],[],[],,182.8593,182.8605,0.406267002,0.142074436,0,0,0,,0,0,0,27,1,2,RL,repifion,cursive,repifion_c.png,,,,,,
,,,,32081,001,2025-10-21_15h23.01.545,HW_LDT_1,2024.2.4,MacIntel,59.88023952,,,,,,,,,,,,,,,,,,,,,,182.8611,183.0576,183.0576,183.5567,,,,,,,,,,,,,,0.637,1,,,,,,,,,,,,,,z,,,,,,,,,,,,,,,,2,0,183.5572,184.2069,z,1,0.637,,[],[],[],[],[],[],[],184.207,186.2075,186.2075,186.2077,[],[],[],[],[],[],[],,186.2078,186.2078,0.406267002,0.142074436,0,0,0,,0,1,1,32,1,2,RL,speniven,print,speniven_p.png,,,,,,
,,,,32081,001,2025-10-21_15h23.01.545,HW_LDT_1,2024.2.4,MacIntel,59.88023952,,,,,,,,,,,,,,,,,,,,,,186.2087,186.4067,186.4067,186.9076,,,,,,,,,,,,,,0.6392,1,,,,,,,,,,,,,,m,,,,,,,,,,,,,,,,3,0,186.9081,187.5577,m,1,0.6392,,[],[],[],[],[],[],[],187.5577,189.5575,189.5576,189.5579,[],[],[],[],[],[],[],,189.5579,189.5581,0.406267002,0.142074436,0,0,0,,0,2,2,116,1,2,word,MARGINAL,cursive,marginal_c.png,,,,,,
,,,,32081,001,2025-10-21_15h23.01.545,HW_LDT_1,2024.2.4,MacIntel,59.88023952,,,,,,,,,,,,,,,,,,,,,,189.5592,189.7576,189.7577,190.2568,,,,,,,,,,,,,,1.0146,0,,,,,,,,,,,,,,m,,,,,,,,,,,,,,,,4,1,190.2572,191.2742,z,0,1.0146,,[],[],[],[],[],[],[],191.2742,193.2735,193.2735,195.6577,[],[],[],[],[],[],[],z,195.6578,195.6579,0.406267002,0.142074436,0,0,0,,0,3,3,145,1,2,word,RESUME,cursive,resume_c.png,2.372,,,,,
,,,,32081,001,2025-10-21_15h23.01.545,HW_LDT_1,2024.2.4,MacIntel,59.88023952,,,,,,,,,,,,,,,,,,,,,,195.6589,195.8575,195.8576,196.3575,,,,,,,,,,,,,,0.8363,1,,,,,,,,,,,,,,z,,,,,,,,,,,,,,,,5,0,196.3582,197.2077,z,1,0.8363,,[],[],[],[],[],[],[],197.2078,199.2075,199.2076,199.2079,[],[],[],[],[],[],[],,199.2079,199.2081,0.406267002,0.142074436,0,0,0,,0,4,4,35,1,2,RL,vesofity,print,vesofity_p.png,,,,,,
,,,,32081,001,2025-10-21_15h23.01.545,HW_LDT_1,2024.2.4,MacIntel,59.88023952,,,,,,,,,,,,,,,,,,,,,,199.2092,199.4075,199.4076,199.9066,,,,,,,,,,,,,,0.6762,1,,,,,,,,,,,,,,m,,,,,,,,,,,,,,,,6,0,199.9073,200.5902,m,1,0.6762,,[],[],[],[],[],[],[],200.5903,202.5909,202.5909,202.5913,[],[],[],[],[],[],[],,202.5913,202.5915,0.406267002,0.142074436,0,0,0,,0,5,5,149,1,2,word,SENATOR,print,senator_p.png,,,,,,
,,,,32081,001,2025-10-21_15h23.01.545,HW_LDT_1,2024.2.4,MacIntel,59.88023952,,,,,,,,,,,,,,,,,,,,,,202.5926,202.7899,202.79,203.2908,,,,,,,,,,,,,,0.6872,1,,,,,,,,,,,,,,m,,,,,,,,,,,,,,,,7,0,203.2914,203.9909,m,1,0.6872,,[],[],[],[],[],[],[],203.991,205.9909,205.9909,205.9912,[],[],[],[],[],[],[],,205.9912,205.9913,0.406267002,0.142074436,0,0,0,,0,6,6,89,1,2,word,CAPACITY,print,capacity_p.png,,,,,,
,,,,32081,001,2025-10-21_15h23.01.545,HW_LDT_1,2024.2.4,MacIntel,59.88023952,,,,,,,,,,,,,,,,,,,,,,205.9925,206.19,206.19,206.6907,,,,,,,,,,,,,,0.5737,1,,,,,,,,,,,,,,m,,,,,,,,,,,,,,,,8,0,206.6913,207.2732,m,1,0.5737,,[],[],[],[],[],[],[],207.2734,209.2742,209.2743,209.2745,[],[],[],[],[],[],[],,209.2745,209.2747,0.406267002,0.142074436,0,0,0,,0,7,7,108,1,2,word,FORTUNE,print,fortune_p.png,,,,,,
,,,,32081,001,2025-10-21_15h23.01.545,HW_LDT_1,2024.2.4,MacIntel,59.88023952,,,,,,,,,,,,,,,,,,,,,,209.2758,209.4733,209.4734,209.974,,,,,,,,,,,,,,0.7038,1,,,,,,,,,,,,,,m,,,,,,,,,,,,,,,,9,0,209.9746,210.6908,m,1,0.7038,,[],[],[],[],[],[],[],210.691,212.6908,212.6908,212.6911,[],[],[],[],[],[],[],,212.6912,212.6912,0.406267002,0.142074436,0,0,0,,0,8,8,122,1,2,word,MOBILE,print,mobile_p.png,,,,,,
,,,,32081,001,2025-10-21_15h23.01.545,HW_LDT_1,2024.2.4,MacIntel,59.88023952,,,,,,,,,,,,,,,,,,,,,,212.6923,212.8908,212.8908,213.3909,,,,,,,,,,,,,,0.6534,1,,,,,,,,,,,,,,z,,,,,,,,,,,,,,,,10,0,213.3915,214.0566,z,1,0.6534,,[],[],[],[],[],[],[],214.0567,216.0574,216.0574,216.0577,[],[],[],[],[],[],[],,216.0578,216.058,0.406267002,0.142074436,0,0,0,,0,9,9,3,1,2,RL,capefory,print,capefory_p.png,,,,,,
,,,,32081,001,2025-10-21_15h23.01.545,HW_LDT_1,2024.2.4,MacIntel,59.88023952,,,,,,,,,,,,,,,,,,,,,,216.0591,216.2566,216.2566,216.7574,,,,,,,,,,,,,,1.3029,1,,,,,,,,,,,,,,z,,,,,,,,,,,,,,,,11,0,216.7579,218.0732,z,1,1.3029,,[],[],[],[],[],[],[],218.0733,220.0741,220.0741,220.0744,[],[],[],[],[],[],[],,220.0744,220.0745,0.406267002,0.142074436,0,0,0,,0,10,10,33,1,2,RL,strapely,cursive,strapely_c.png,,,,,,
,,,,32081,001,2025-10-21_15h23.01.545,HW_LDT_1,2024.2.4,MacIntel,59.88023952,,,,,,,,,,,,,,,,,,,,,,220.0757,220.2732,220.2733,220.774,,,,,,,,,,,,,,1.3373,1,,,,,,,,,,,,,,z,,,,,,,,,,,,,,,,12,1,220.7745,222.1241,z,1,1.3373,,[],[],[],[],[],[],[],222.1242,224.1232,224.1232,225.3574,[],[],[],[],[],[],[],z,225.3575,225.3575,0.406267002,0.142074436,0,0,0,,0,11,11,51,1,2,TL,etidor,cursive,etidor_c.png,1.2248,,,,,
,,,,32081,001,2025-10-21_15h23.01.545,HW_LDT_1,2024.2.4,MacIntel,59.88023952,,,,,,,,,,,,,,,,,,,,,,225.3584,225.5565,225.5566,226.0574,,,,,,,,,,,,,,1.754,1,,,,,,,,,,,,,,z,,,,,,,,,,,,,,,,13,0,226.0579,227.8235,z,1,1.754,,[],[],[],[],[],[],[],227.8236,229.8231,229.8232,229.8234,[],[],[],[],[],[],[],,229.8235,229.8236,0.406267002,0.142074436,0,0,0,,0,12,12,12,1,2,RL,gralekul,cursive,gralekul_c.png,,,,,,
,,,,32081,001,2025-10-21_15h23.01.545,HW_LDT_1,2024.2.4,MacIntel,59.88023952,,,,,,,,,,,,,,,,,,,,,,229.8248,230.0242,230.0242,230.524,,,,,,,,,,,,,,1.6048,1,,,,,,,,,,,,,,z,,,,,,,,,,,,,,,,14,0,230.5245,232.1408,z,1,1.6048,,[],[],[],[],[],[],[],232.1408,234.1406,234.1407,234.1409,[],[],[],[],[],[],[],,234.141,234.141,0.406267002,0.142074436,0,0,0,,0,13,13,41,1,2,TL,befenit,cursive,befenit_c.png,,,,,,
,,,,32081,001,2025-10-21_15h23.01.545,HW_LDT_1,2024.2.4,MacIntel,59.88023952,,,,,,,,,,,,,,,,,,,,,,234.1421,234.3397,234.3399,234.8406,,,,,,,,,,,,,,0.904,1,,,,,,,,,,,,,,z,,,,,,,,,,,,,,,,15,0,234.841,235.7573,z,1,0.904,,[],[],[],[],[],[],[],235.7575,237.7574,237.7574,237.7576,[],[],[],[],[],[],[],,237.7577,237.7578,0.406267002,0.142074436,0,0,0,,0,14,14,13,1,2,RL,helicage,print,helicage_p.png,,,,,,
,,,,32081,001,2025-10-21_15h23.01.545,HW_LDT_1,2024.2.4,MacIntel,59.88023952,,,,,,,,,,,,,,,,,,,,,,237.7589,237.9573,237.9573,238.4573,,,,,,,,,,,,,,0.6043,1,,,,,,,,,,,,,,m,,,,,,,,,,,,,,,,16,0,238.4578,239.0739,m,1,0.6043,,[],[],[],[],[],[],[],239.074,241.0731,241.0731,241.0732,[],[],[],[],[],[],[],,241.0732,241.0733,0.406267002,0.142074436,0,0,0,,0,15,15,118,1,2,word,MEDICINE,print,medicine_p.png,,,,,,
,,,,32081,001,2025-10-21_15h23.01.545,HW_LDT_1,2024.2.4,MacIntel,59.88023952,,,,,,,,,,,,,,,,,,,,,,241.0741,241.2732,241.2732,241.7731,,,,,,,,,,,,,,0.9879,1,,,,,,,,,,,,,,m,,,,,,,,,,,,,,,,17,0,241.7735,242.7731,m,1,0.9879,,[],[],[],[],[],[],[],242.7732,244.773,244.773,244.7733,[],[],[],[],[],[],[],,244.7733,244.7733,0.406267002,0.142074436,0,0,0,,0,16,16,134,1,2,word,QUALIFY,cursive,qualify_c.png,,,,,,
,,,,32081,001,2025-10-21_15h23.01.545,HW_LDT_1,2024.2.4,MacIntel,59.88023952,,,,,,,,,,,,,,,,,,,,,,244.7745,244.9739,244.974,245.4739,,,,,,,,,,,,,,1.8919,0,,,,,,,,,,,,,,m,,,,,,,,,,,,,,,,18,0,245.4744,247.374,z,0,1.8919,,[],[],[],[],[],[],[],247.374,249.3738,249.3739,249.374,[],[],[],[],[],[],[],,249.3741,249.3742,0.406267002,0.142074436,0,0,0,,0,17,17,113,1,2,word,LITERAL,cursive,literal_c.png,,,,,,
,,,,32081,001,2025-10-21_15h23.01.545,HW_LDT_1,2024.2.4,MacIntel,59.88023952,,,,,,,,,,,,,,,,,,,,,,249.3754,249.5739,249.5739,250.0738,,,,,,,,,,,,,,0.6705,1,,,,,,,,,,,,,,m,,,,,,,,,,,,,,,,19,0,250.0744,250.7573,m,1,0.6705,,[],[],[],[],[],[],[],250.7573,252.7572,252.7573,252.7575,[],[],[],[],[],[],[],,252.7576,252.7578,0.406267002,0.142074436,0,0,0,,0,18,18,127,1,2,word,ORIGINAL,print,original_p.png,,,,,,
,,,,32081,001,2025-10-21_15h23.01.545,HW_LDT_1,2024.2.4,MacIntel,59.88023952,,,,,,,,,,,,,,,,,,,,,,252.7589,252.9572,252.9573,253.4572,,,,,,,,,,,,,,0.5988,1,,,,,,,,,,,,,,m,,,,,,,,,,,,,,,,20,0,253.4577,254.0571,m,1,0.5988,,[],[],[],[],[],[],[],254.0572,256.0571,256.0572,256.0574,[],[],[],[],[],[],[],,256.0574,256.0575,0.406267002,0.142074436,0,0,0,,0,19,19,128,1,2,word,PACIFIC,print,pacific_p.png,,,,,,
,,,,32081,001,2025-10-21_15h23.01.545,HW_LDT_1,2024.2.4,MacIntel,59.88023952,,,,,,,,,,,,,,,,,,,,,,256.0587,256.2572,256.2572,256.7573,,,,,,,,,,,,,,0.5987,1,,,,,,,,,,,,,,m,,,,,,,,,,,,,,,,21,0,256.7577,257.3572,m,1,0.5987,,[],[],[],[],[],[],[],257.3572,259.3572,259.3572,259.3574,[],[],[],[],[],[],[],,259.3575,259.3576,0.406267002,0.142074436,0,0,0,,0,20,20,92,1,2,word,CATEGORY,print,category_p.png,,,,,,
,,,,32081,001,2025-10-21_15h23.01.545,HW_LDT_1,2024.2.4,MacIntel,59.88023952,,,,,,,,,,,,,,,,,,,,,,259.3587,259.5571,259.5572,260.0571,,,,,,,,,,,,,,2.2084,1,,,,,,,,,,,,,,z,,,,,,,,,,,,,,,,22,0,260.0577,262.2739,z,1,2.2084,,[],[],[],[],[],[],[],262.2739,264.2738,264.2739,264.274,[],[],[],[],[],[],[],,264.2741,264.2742,0.406267002,0.142074436,0,0,0,,0,21,21,44,1,2,TL,catipal,cursive,catipal_c.png,,,,,,
,,,,32081,001,2025-10-21_15h23.01.545,HW_LDT_1,2024.2.4,MacIntel,59.88023952,,,,,,,,,,,,,,,,,,,,,,264.2753,264.4739,264.4739,264.9737,,,,,,,,,,,,,,0.622,0,,,,,,,,,,,,,,z,,,,,,,,,,,,,,,,23,0,264.9743,265.6071,m,0,0.622,,[],[],[],[],[],[],[],265.6072,267.6071,267.6072,267.6075,[],[],[],[],[],[],[],,267.6075,267.6075,0.406267002,0.142074436,0,0,0,,0,22,22,50,1,2,TL,donimant,print,donimant_p.png,,,,,,
,,,,32081,001,2025-10-21_15h23.01.545,HW_LDT_1,2024.2.4,MacIntel,59.88023952,,,,,,,,,,,,,,,,,,,,,,267.6086,267.8062,267.8062,268.3065,,,,,,,,,,,,,,0.9071,1,,,,,,,,,,,,,,z,,,,,,,,,,,,,,,,24,0,268.307,269.2238,z,1,0.9071,,[],[],[],[],[],[],[],269.2239,271.2238,271.2238,271.224,[],[],[],[],[],[],[],,271.2241,271.2241,0.406267002,0.142074436,0,0,0,,0,23,23,4,1,2,RL,cenesony,print,cenesony_p.png,,,,,,
,,,,32081,001,2025-10-21_15h23.01.545,HW_LDT_1,2024.2.4,MacIntel,59.88023952,,,,,,,,,,,,,,,,,,,,,,271.2253,271.4238,271.4238,271.9238,,,,,,,,,,,,,,1.5257,0,,,,,,,,,,,,,,z,,,,,,,,,,,,,,,,25,1,271.9244,273.4571,m,0,1.5257,,[],[],[],[],[],[],[],273.4571,275.4571,275.4571,277.6404,[],[],[],[],[],[],[],z,277.6405,277.6406,0.406267002,0.142074436,0,0,0,,0,24,24,45,1,2,TL,carnidal,cursive,carnidal_c.png,2.1713,,,,,
,,,,32081,001,2025-10-21_15h23.01.545,HW_LDT_1,2024.2.4,MacIntel,59.88023952,,,,,,,,,,,,,,,,,,,,,,277.6415,277.8405,277.8405,278.3403,,,,,,,,,,,,,,1.5038,1,,,,,,,,,,,,,,m,,,,,,,,,,,,,,,,26,0,278.3408,279.8571,m,1,1.5038,,[],[],[],[],[],[],[],279.8571,281.8571,281.8572,281.8573,[],[],[],[],[],[],[],,281.8574,281.8575,0.406267002,0.142074436,0,0,0,,0,25,25,84,1,2,word,BELOVED,cursive,beloved_c.png,,,,,,
,,,,32081,001,2025-10-21_15h23.01.545,HW_LDT_1,2024.2.4,MacIntel,59.88023952,,,,,,,,,,,,,,,,,,,,,,281.8586,282.057,282.057,282.557,,,,,,,,,,,,,,0.6488,1,,,,,,,,,,,,,,m,,,,,,,,,,,,,,,,27,0,282.5575,283.207,m,1,0.6488,,[],[],[],[],[],[],[],283.2071,285.207,285.2071,285.2073,[],[],[],[],[],[],[],,285.2074,285.2074,0.406267002,0.142074436,0,0,0,,0,26,26,87,1,2,word,CAFETERIA,print,cafeteria_p.png,,,,,,
,,,,32081,001,2025-10-21_15h23.01.545,HW_LDT_1,2024.2.4,MacIntel,59.88023952,,,,,,,,,,,,,,,,,,,,,,285.2086,285.4069,285.407,285.907,,,,,,,,,,,,,,1.3983,1,,,,,,,,,,,,,,m,,,,,,,,,,,,,,,,28,0,285.9075,287.3068,m,1,1.3983,,[],[],[],[],[],[],[],287.3069,289.3069,289.307,289.3072,[],[],[],[],[],[],[],,289.3072,289.3074,0.406267002,0.142074436,0,0,0,,0,27,27,154,1,2,word,STORAGE,print,storage_p.png,,,,,,
,,,,32081,001,2025-10-21_15h23.01.545,HW_LDT_1,2024.2.4,MacIntel,59.88023952,,,,,,,,,,,,,,,,,,,,,,289.3085,289.507,289.507,290.0069,,,,,,,,,,,,,,0.904,1,,,,,,,,,,,,,,z,,,,,,,,,,,,,,,,29,0,290.0073,290.9237,z,1,0.904,,[],[],[],[],[],[],[],290.9237,292.9235,292.9236,292.9237,[],[],[],[],[],[],[],,292.9237,292.9238,0.406267002,0.142074436,0,0,0,,0,28,28,26,1,2,RL,retupar,cursive,retupar_c.png,,,,,,
,,,,32081,001,2025-10-21_15h23.01.545,HW_LDT_1,2024.2.4,MacIntel,59.88023952,,,,,,,,,,,,,,,,,,,,,,292.9247,293.1236,293.1237,293.6237,,,,,,,,,,,,,,1.1577,0,,,,,,,,,,,,,,m,,,,,,,,,,,,,,,,30,1,293.6241,294.7903,z,0,1.1577,,[],[],[],[],[],[],[],294.7904,296.7903,296.7903,298.2902,[],[],[],[],[],[],[],z,298.2902,298.2904,0.406267002,0.142074436,0,0,0,,0,29,29,146,1,2,word,RETIRE,cursive,retire_c.png,1.4994,,,,,
,,,,32081,001,2025-10-21_15h23.01.545,HW_LDT_1,2024.2.4,MacIntel,59.88023952,,,,,,,,,,,,,,,,,,,,,,298.2913,298.4903,298.4903,298.9902,,,,,,,,,,,,,,1.348,0,,,,,,,,,,,,,,z,,,,,,,,,,,,,,,,31,0,298.9908,300.3403,m,0,1.348,,[],[],[],[],[],[],[],300.3403,302.3399,302.3399,302.34,[],[],[],[],[],[],[],,302.34,302.34,0.409212629,0.126593954,0,0,0,,0,30,30,68,1,2,TL,quatily,cursive,quatily_c.png,,,,,,
,,,,32081,001,2025-10-21_15h23.01.545,HW_LDT_1,2024.2.4,MacIntel,59.88023952,,,,,,,,,,,,,,,,,,,,,,302.3409,302.5399,302.5399,303.0401,,,,,,,,,,,,,,1.4378,1,,,,,,,,,,,,,,m,,,,,,,,,,,,,,,,32,0,303.0407,304.4902,m,1,1.4378,,[],[],[],[],[],[],[],304.4903,306.4902,306.4903,306.4906,[],[],[],[],[],[],[],,306.4906,306.4907,0.412532304,0.125824606,0,0,0,,0,31,31,91,1,2,word,CARDINAL,cursive,cardinal_c.png,,,,,,
,,,,32081,001,2025-10-21_15h23.01.545,HW_LDT_1,2024.2.4,MacIntel,59.88023952,,,,,,,,,,,,,,,,,,,,,,306.4918,306.6902,306.6902,307.1902,,,,,,,,,,,,,,0.749,1,,,,,,,,,,,,,,m,,,,,,,,,,,,,,,,33,0,307.1908,307.9405,m,1,0.749,,[],[],[],[],[],[],[],307.9406,309.9401,309.9403,309.9404,[],[],[],[],[],[],[],,309.9405,309.9406,0.412532304,0.126075388,0,0,0,,0,32,32,95,1,2,word,COMEDY,cursive,comedy_c.png,,,,,,
,,,,32081,001,2025-10-21_15h23.01.545,HW_LDT_1,2024.2.4,MacIntel,59.88023952,,,,,,,,,,,,,,,,,,,,,,309.9416,310.1402,310.1402,310.6401,,,,,,,,,,,,,,2.3704,0,,,,,,,,,,,,,,m,,,,,,,,,,,,,,,,34,0,310.6406,313.0236,z,0,2.3704,,[],[],[],[],[],[],[],313.0236,315.0235,315.0235,315.0237,[],[],[],[],[],[],[],,315.0238,315.0239,0.412532304,0.126079638,0,0,0,,0,33,33,120,1,2,word,MILITARY,cursive,military_c.png,,,,,,
,,,,32081,001,2025-10-21_15h23.01.545,HW_LDT_1,2024.2.4,MacIntel,59.88023952,,,,,,,,,,,,,,,,,,,,,,315.025,315.2236,315.2236,315.7235,,,,,,,,,,,,,,0.9238,1,,,,,,,,,,,,,,m,,,,,,,,,,,,,,,,35,0,315.7241,316.6571,m,1,0.9238,,[],[],[],[],[],[],[],316.6572,318.6568,318.6568,318.6571,[],[],[],[],[],[],[],,318.6571,318.6571,0.412532304,0.12633042,0,0,0,,0,34,34,94,1,2,word,CLINICAL,cursive,clinical_c.png,,,,,,
,,,,32081,001,2025-10-21_15h23.01.545,HW_LDT_1,2024.2.4,MacIntel,59.88023952,,,,,,,,,,,,,,,,,,,,,,318.6582,318.8568,318.8568,319.3568,,,,,,,,,,,,,,0.6213,1,,,,,,,,,,,,,,m,,,,,,,,,,,,,,,,36,0,319.3573,319.9901,m,1,0.6213,,[],[],[],[],[],[],[],319.9902,321.9895,321.9896,321.9898,[],[],[],[],[],[],[],,321.9898,321.9899,0.412532304,0.126581202,0,0,0,,0,35,35,147,1,2,word,ROMANTIC,print,romantic_p.png,,,,,,
,,,,32081,001,2025-10-21_15h23.01.545,HW_LDT_1,2024.2.4,MacIntel,59.88023952,,,,,,,,,,,,,,,,,,,,,,321.9911,322.1901,322.1901,322.6901,,,,,,,,,,,,,,1.0936,1,,,,,,,,,,,,,,z,,,,,,,,,,,,,,,,37,0,322.6905,323.7901,z,1,1.0936,,[],[],[],[],[],[],[],323.7901,325.7898,325.7899,325.7899,[],[],[],[],[],[],[],,325.7899,325.79,0.412532304,0.129773361,0,0,0,,0,36,36,53,1,2,TL,edivent,cursive,edivent_c.png,,,,,,
,,,,32081,001,2025-10-21_15h23.01.545,HW_LDT_1,2024.2.4,MacIntel,59.88023952,,,,,,,,,,,,,,,,,,,,,,325.7906,325.9901,325.9901,326.4891,,,,,,,,,,,,,,3.0818,0,,,,,,,,,,,,,,z,,,,,,,,,,,,,,,,38,0,326.4897,329.5733,m,0,3.0818,,[],[],[],[],[],[],[],329.5734,331.5735,331.5735,331.5737,[],[],[],[],[],[],[],,331.5737,331.5739,0.412795838,0.125641832,0,0,0,,0,37,37,61,1,2,TL,nuremical,cursive,nuremical_c.png,,,,,,
,,,,32081,001,2025-10-21_15h23.01.545,HW_LDT_1,2024.2.4,MacIntel,59.88023952,,,,,,,,,,,,,,,,,,,,,,331.575,331.7734,331.7734,332.2735,,,,,,,,,,,,,,0.6703,0,,,,,,,,,,,,,,z,,,,,,,,,,,,,,,,39,0,332.274,332.9561,m,0,0.6703,,[],[],[],[],[],[],[],332.9562,334.9566,334.9567,334.9568,[],[],[],[],[],[],[],,334.9569,334.957,0.412795838,0.126657712,0,0,0,,0,38,38,60,1,2,TL,molibe,print,molibe_p.png,,,,,,
,,,,32081,001,2025-10-21_15h23.01.545,HW_LDT_1,2024.2.4,MacIntel,59.88023952,,,,,,,,,,,,,,,,,,,,,,334.958,335.1567,335.1567,335.6567,,,,,,,,,,,,,,1.0879,0,,,,,,,,,,,,,,m,,,,,,,,,,,,,,,,40,0,335.6572,336.7567,z,0,1.0879,,[],[],[],[],[],[],[],336.7568,338.7568,338.7568,338.757,[],[],[],[],[],[],[],,338.757,338.7571,0.412795838,0.12640693,0,0,0,,0,39,39,117,1,2,word,MARINE,cursive,marine_c.png,,,,,,
,,,,32081,001,2025-10-21_15h23.01.545,HW_LDT_1,2024.2.4,MacIntel,59.88023952,,,,,,,,,,,,,,,,,,,,,,338.7583,338.9567,338.9568,339.4558,,,,,,,,,,,,,,2.4215,1,,,,,,,,,,,,,,z,,,,,,,,,,,,,,,,41,0,339.4563,341.8891,z,1,2.4215,,[],[],[],[],[],[],[],341.8892,343.89,343.89,343.8902,[],[],[],[],[],[],[],,343.8903,343.8903,0.413599191,0.124506937,0,0,0,,0,40,40,29,1,2,RL,samite,cursive,samite_c.png,,,,,,
,,,,32081,001,2025-10-21_15h23.01.545,HW_LDT_1,2024.2.4,MacIntel,59.88023952,,,,,,,,,,,,,,,,,,,,,,343.8915,344.0899,344.09,344.5903,,,,,,,,,,,,,,0.8118,1,,,,,,,,,,,,,,m,,,,,,,,,,,,,,,,42,0,344.5907,345.4063,m,1,0.8118,,[],[],[],[],[],[],[],345.4063,347.4067,347.4067,347.4069,[],[],[],[],[],[],[],,347.4069,347.407,0.413314404,0.130083651,0,0,0,,0,41,41,99,1,2,word,DEBATE,print,debate_p.png,,,,,,
,,,,32081,001,2025-10-21_15h23.01.545,HW_LDT_1,2024.2.4,MacIntel,59.88023952,,,,,,,,,,,,,,,,,,,,,,347.4081,347.6068,347.6069,348.1061,,,,,,,,,,,,,,0.9384,1,,,,,,,,,,,,,,z,,,,,,,,,,,,,,,,43,0,348.1067,349.0566,z,1,0.9384,,[],[],[],[],[],[],[],349.0568,351.0556,351.0558,351.0559,[],[],[],[],[],[],[],,351.056,351.0561,0.412778836,0.131652101,0,0,0,,0,42,42,2,1,2,RL,casagity,print,casagity_p.png,,,,,,
,,,,32081,001,2025-10-21_15h23.01.545,HW_LDT_1,2024.2.4,MacIntel,59.88023952,,,,,,,,,,,,,,,,,,,,,,351.0571,351.2566,351.2566,351.7566,,,,,,,,,,,,,,0.7029,1,,,,,,,,,,,,,,m,,,,,,,,,,,,,,,,44,0,351.7572,352.4726,m,1,0.7029,,[],[],[],[],[],[],[],352.4726,354.4723,354.4723,354.4725,[],[],[],[],[],[],[],,354.4726,354.4726,0.413288901,0.131146287,0,0,0,,0,43,43,143,1,2,word,REMOVAL,print,removal_p.png,,,,,,
,,,,32081,001,2025-10-21_15h23.01.545,HW_LDT_1,2024.2.4,MacIntel,59.88023952,,,,,,,,,,,,,,,,,,,,,,354.4737,354.6733,354.6733,355.1732,,,,,,,,,,,,,,0.7695,1,,,,,,,,,,,,,,z,,,,,,,,,,,,,,,,45,0,355.1738,355.9566,z,1,0.7695,,[],[],[],[],[],[],[],355.9567,357.9566,357.9566,357.9568,[],[],[],[],[],[],[],,357.9568,357.9569,0.413288901,0.131652101,0,0,0,,0,44,44,0,1,2,RL,adnicory,print,adnicory_p.png,,,,,,
,,,,32081,001,2025-10-21_15h23.01.545,HW_LDT_1,2024.2.4,MacIntel,59.88023952,,,,,,,,,,,,,,,,,,,,,,357.958,358.1566,358.1566,358.6566,,,,,,,,,,,,,,0.9704,1,,,,,,,,,,,,,,z,,,,,,,,,,,,,,,,46,1,358.6571,359.64,z,1,0.9704,,[],[],[],[],[],[],[],359.64,361.6398,361.6399,363.5559,[],[],[],[],[],[],[],z,363.556,363.556,0.413288901,0.132667982,0,0,0,,0,45,45,15,1,2,RL,linedal,print,linedal_p.png,1.9047,,,,,
,,,,32081,001,2025-10-21_15h23.01.545,HW_LDT_1,2024.2.4,MacIntel,59.88023952,,,,,,,,,,,,,,,,,,,,,,363.5571,363.7565,363.7566,364.2565,,,,,,,,,,,,,,1.8364,1,,,,,,,,,,,,,,m,,,,,,,,,,,,,,,,47,0,364.2571,366.106,m,1,1.8364,,[],[],[],[],[],[],[],366.106,368.1065,368.1065,368.1067,[],[],[],[],[],[],[],,368.1068,368.1069,0.413288901,0.132667982,0,0,0,,0,46,46,88,1,2,word,CAMERA,print,camera_p.png,,,,,,
,,,,32081,001,2025-10-21_15h23.01.545,HW_LDT_1,2024.2.4,MacIntel,59.88023952,,,,,,,,,,,,,,,,,,,,,,368.108,368.3065,368.3065,368.8065,,,,,,,,,,,,,,1.5039,1,,,,,,,,,,,,,,z,,,,,,,,,,,,,,,,48,0,368.807,370.3233,z,1,1.5039,,[],[],[],[],[],[],[],370.3234,372.3232,372.3233,372.3234,[],[],[],[],[],[],[],,372.3234,372.3236,0.413288901,0.133173796,0,0,0,,0,47,47,72,1,2,TL,revomal,print,revomal_p.png,,,,,,
,,,,32081,001,2025-10-21_15h23.01.545,HW_LDT_1,2024.2.4,MacIntel,59.88023952,,,,,,,,,,,,,,,,,,,,,,372.3247,372.5232,372.5233,373.0234,,,,,,,,,,,,,,1.8156,1,,,,,,,,,,,,,,z,,,,,,,,,,,,,,,,49,0,373.0237,374.8399,z,1,1.8156,,[],[],[],[],[],[],[],374.84,376.8398,376.8399,376.84,[],[],[],[],[],[],[],,376.8401,376.8401,0.413543934,0.131885881,0,0,0,,0,48,48,74,1,2,TL,rerite,cursive,rerite_c.png,,,,,,
,,,,32081,001,2025-10-21_15h23.01.545,HW_LDT_1,2024.2.4,MacIntel,59.88023952,,,,,,,,,,,,,,,,,,,,,,376.8411,377.0388,377.0389,377.5397,,,,,,,,,,,,,,1.4373,0,,,,,,,,,,,,,,m,,,,,,,,,,,,,,,,50,0,377.5403,378.9898,z,0,1.4373,,[],[],[],[],[],[],[],378.9899,380.9899,380.9899,380.9901,[],[],[],[],[],[],[],,380.9901,380.9903,0.413543934,0.131885881,0,0,0,,0,49,49,103,1,2,word,DISPUTE,cursive,dispute_c.png,,,,,,
,,,,32081,001,2025-10-21_15h23.01.545,HW_LDT_1,2024.2.4,MacIntel,59.88023952,,,,,,,,,,,,,,,,,,,,,,380.9912,381.1889,381.1889,381.6889,,,,,,,,,,,,,,0.9259,1,,,,,,,,,,,,,,m,,,,,,,,,,,,,,,,51,1,381.6894,382.6231,m,1,0.9259,,[],[],[],[],[],[],[],382.6231,384.623,384.6231,387.0563,[],[],[],[],[],[],[],m,387.0564,387.0565,0.413543934,0.132638228,0,0,0,,0,50,50,152,1,2,word,SPECIMEN,print,specimen_p.png,2.4319,,,,,
,,,,32081,001,2025-10-21_15h23.01.545,HW_LDT_1,2024.2.4,MacIntel,59.88023952,,,,,,,,,,,,,,,,,,,,,,387.0574,387.2564,387.2564,387.7565,,,,,,,,,,,,,,1.537,1,,,,,,,,,,,,,,z,,,,,,,,,,,,,,,,52,0,387.7569,389.3065,z,1,1.537,,[],[],[],[],[],[],[],389.3065,391.3064,391.3064,391.3066,[],[],[],[],[],[],[],,391.3066,391.3067,0.413543934,0.132638228,0,0,0,,0,51,51,66,1,2,TL,prodive,cursive,prodive_c.png,,,,,,
,,,,32081,001,2025-10-21_15h23.01.545,HW_LDT_1,2024.2.4,MacIntel,59.88023952,,,,,,,,,,,,,,,,,,,,,,391.3078,391.5064,391.5064,392.0064,,,,,,,,,,,,,,2.2897,1,,,,,,,,,,,,,,m,,,,,,,,,,,,,,,,53,0,392.0069,394.3063,m,1,2.2897,,[],[],[],[],[],[],[],394.3064,396.3054,396.3054,396.3057,[],[],[],[],[],[],[],,396.3057,396.3058,0.413543934,0.134959025,0,0,0,,0,52,52,124,1,2,word,NUMERICAL,cursive,numerical_c.png,,,,,,
,,,,32081,001,2025-10-21_15h23.01.545,HW_LDT_1,2024.2.4,MacIntel,59.88023952,,,,,,,,,,,,,,,,,,,,,,396.3067,396.5055,396.5055,397.0063,,,,,,,,,,,,,,0.7141,1,,,,,,,,,,,,,,m,,,,,,,,,,,,,,,,54,0,397.0067,397.7229,m,1,0.7141,,[],[],[],[],[],[],[],397.723,399.7229,399.723,399.7231,[],[],[],[],[],[],[],,399.7232,399.7233,0.413543934,0.134959025,0,0,0,,0,53,53,81,1,2,word,ADVISORY,print,advisory_p.png,,,,,,
,,,,32081,001,2025-10-21_15h23.01.545,HW_LDT_1,2024.2.4,MacIntel,59.88023952,,,,,,,,,,,,,,,,,,,,,,399.7241,399.923,399.9231,400.423,,,,,,,,,,,,,,0.8486,1,,,,,,,,,,,,,,z,,,,,,,,,,,,,,,,55,0,400.4235,401.273,z,1,0.8486,,[],[],[],[],[],[],[],401.2731,403.273,403.2731,403.2732,[],[],[],[],[],[],[],,403.2733,403.2734,0.413543934,0.134959025,0,0,0,,0,54,54,31,1,2,RL,spetisic,print,spetisic_p.png,,,,,,
,,,,32081,001,2025-10-21_15h23.01.545,HW_LDT_1,2024.2.4,MacIntel,59.88023952,,,,,,,,,,,,,,,,,,,,,,403.2747,403.4729,403.473,403.9721,,,,,,,,,,,,,,1.3663,1,,,,,,,,,,,,,,m,,,,,,,,,,,,,,,,56,0,403.9726,405.3396,m,1,1.3663,,[],[],[],[],[],[],[],405.3397,407.3396,407.3397,407.3399,[],[],[],[],[],[],[],,407.3399,407.34,0.413543934,0.134959025,0,0,0,,0,55,55,133,1,2,word,PROVIDE,cursive,provide_c.png,,,,,,
,,,,32081,001,2025-10-21_15h23.01.545,HW_LDT_1,2024.2.4,MacIntel,59.88023952,,,,,,,,,,,,,,,,,,,,,,407.341,407.5395,407.5395,408.0397,,,,,,,,,,,,,,1.5876,0,,,,,,,,,,,,,,z,,,,,,,,,,,,,,,,57,0,408.04,409.6397,m,0,1.5876,,[],[],[],[],[],[],[],409.6398,411.6387,411.6388,411.6389,[],[],[],[],[],[],[],,411.6389,411.639,0.413543934,0.134959025,0,0,0,,0,56,56,56,1,2,TL,marnigal,cursive,marnigal_c.png,,,,,,
,,,,32081,001,2025-10-21_15h23.01.545,HW_LDT_1,2024.2.4,MacIntel,59.88023952,,,,,,,,,,,,,,,,,,,,,,411.6402,411.8396,411.8396,412.3396,,,,,,,,,,,,,,0.7546,1,,,,,,,,,,,,,,m,,,,,,,,,,,,,,,,58,0,412.3401,413.1063,m,1,0.7546,,[],[],[],[],[],[],[],413.1063,415.1062,415.1062,415.1065,[],[],[],[],[],[],[],,415.1065,415.1066,0.413543934,0.134959025,0,0,0,,0,57,57,140,1,2,word,RELATIVE,print,relative_p.png,,,,,,
,,,,32081,001,2025-10-21_15h23.01.545,HW_LDT_1,2024.2.4,MacIntel,59.88023952,,,,,,,,,,,,,,,,,,,,,,415.1077,415.3053,415.3054,415.8062,,,,,,,,,,,,,,1.253,1,,,,,,,,,,,,,,z,,,,,,,,,,,,,,,,59,0,415.8068,417.0726,z,1,1.253,,[],[],[],[],[],[],[],417.0726,419.073,419.0731,419.0731,[],[],[],[],[],[],[],,419.0732,419.0733,0.413543934,0.134959025,0,0,0,,0,58,58,1,1,2,RL,caleberia,print,caleberia_p.png,,,,,,
,,,,32081,001,2025-10-21_15h23.01.545,HW_LDT_1,2024.2.4,MacIntel,59.88023952,,,,,,,,,,,,,,,,,,,,,,419.0744,419.2719,419.2719,419.7728,,,,,,,,,,,,,,1.1247,0,,,,,,,,,,,,,,m,,,,,,,,,,,,,,,,60,0,419.7733,420.9062,z,0,1.1247,,[],[],[],[],[],[],[],420.9063,422.9054,422.9055,422.9058,[],[],[],[],[],[],[],,422.9058,422.9059,0.413543934,0.134959025,0,0,0,,0,59,59,90,1,2,word,CAPITAL,cursive,capital_c.png,,,,,,
,,,,32081,001,2025-10-21_15h23.01.545,HW_LDT_1,2024.2.4,MacIntel,59.88023952,,,,,,,,,,,,,,,,,,,,,,422.9069,423.1061,423.1062,423.6054,,,,,,,,,,,,,,0.7548,1,,,,,,,,,,,,,,z,,,,,,,,,,,,,,,,61,0,423.6058,424.3729,z,1,0.7548,,[],[],[],[],[],[],[],424.373,426.3728,426.3728,426.373,[],[],[],[],[],[],[],,426.373,426.3732,0.413543934,0.134959025,0,0,0,,0,60,60,21,1,2,RL,pamest,print,pamest_p.png,,,,,,
,,,,32081,001,2025-10-21_15h23.01.545,HW_LDT_1,2024.2.4,MacIntel,59.88023952,,,,,,,,,,,,,,,,,,,,,,426.3742,426.5728,426.5729,427.0728,,,,,,,,,,,,,,1.3984,0,,,,,,,,,,,,,,m,,,,,,,,,,,,,,,,62,0,427.0733,428.4728,z,0,1.3984,,[],[],[],[],[],[],[],428.4728,430.4719,430.4719,430.4721,[],[],[],[],[],[],[],,430.4722,430.4723,0.413543934,0.134959025,0,0,0,,0,61,61,121,1,2,word,MISTAKE,cursive,mistake_c.png,,,,,,
,,,,32081,001,2025-10-21_15h23.01.545,HW_LDT_1,2024.2.4,MacIntel,59.88023952,,,,,,,,,,,,,,,,,,,,,,430.4734,430.6728,430.6729,431.1727,,,,,,,,,,,,,,1.1597,1,,,,,,,,,,,,,,z,,,,,,,,,,,,,,,,63,1,431.1733,432.3394,z,1,1.1597,,[],[],[],[],[],[],[],432.3395,434.3395,434.3395,436.1896,[],[],[],[],[],[],[],z,436.1896,436.1897,0.413543934,0.134959025,0,0,0,,0,62,62,11,1,2,RL,formuke,print,formuke_p.png,1.8379,,,,,
,,,,32081,001,2025-10-21_15h23.01.545,HW_LDT_1,2024.2.4,MacIntel,59.88023952,,,,,,,,,,,,,,,,,,,,,,436.1905,436.3885,436.3886,436.8894,,,,,,,,,,,,,,1.3928,1,,,,,,,,,,,,,,z,,,,,,,,,,,,,,,,64,0,436.8898,438.2885,z,1,1.3928,,[],[],[],[],[],[],[],438.2886,440.2895,440.2895,440.2897,[],[],[],[],[],[],[],,440.2897,440.2898,0.413543934,0.135209807,0,0,0,,0,63,63,28,1,2,RL,revune,cursive,revune_c.png,,,,,,
,,,,32081,001,2025-10-21_15h23.01.545,HW_LDT_1,2024.2.4,MacIntel,59.88023952,,,,,,,,,,,,,,,,,,,,,,440.2908,440.4894,440.4895,440.9885,,,,,,,,,,,,,,0.9215,1,,,,,,,,,,,,,,z,,,,,,,,,,,,,,,,65,0,440.9891,441.9228,z,1,0.9215,,[],[],[],[],[],[],[],441.9228,443.9219,443.9219,443.922,[],[],[],[],[],[],[],,443.9221,443.9222,0.413543934,0.135209807,0,0,0,,0,64,64,75,1,2,TL,ronamtic,print,ronamtic_p.png,,,,,,
,,,,32081,001,2025-10-21_15h23.01.545,HW_LDT_1,2024.2.4,MacIntel,59.88023952,,,,,,,,,,,,,,,,,,,,,,443.9234,444.1219,444.1219,444.6227,,,,,,,,,,,,,,0.6707,1,,,,,,,,,,,,,,m,,,,,,,,,,,,,,,,66,0,444.6232,445.3061,m,1,0.6707,,[],[],[],[],[],[],[],445.3062,447.3062,447.3062,447.3064,[],[],[],[],[],[],[],,447.3064,447.3064,0.413543934,0.135218308,0,0,0,,0,65,65,115,1,2,word,LOGICAL,print,logical_p.png,,,,,,
,,,,32081,001,2025-10-21_15h23.01.545,HW_LDT_1,2024.2.4,MacIntel,59.88023952,,,,,,,,,,,,,,,,,,,,,,447.3075,447.5061,447.5061,448.0062,,,,,,,,,,,,,,0.7862,1,,,,,,,,,,,,,,m,,,,,,,,,,,,,,,,67,0,448.0066,448.8064,m,1,0.7862,,[],[],[],[],[],[],[],448.8064,450.8051,450.8052,450.8054,[],[],[],[],[],[],[],,450.8054,450.8055,0.413543934,0.13726282,0,0,0,,0,66,66,151,1,2,word,SPECIFIC,print,specific_p.png,,,,,,
,,,,32081,001,2025-10-21_15h23.01.545,HW_LDT_1,2024.2.4,MacIntel,59.88023952,,,,,,,,,,,,,,,,,,,,,,450.8066,451.006,451.006,451.506,,,,,,,,,,,,,,0.7539,1,,,,,,,,,,,,,,m,,,,,,,,,,,,,,,,68,0,451.5066,452.2727,m,1,0.7539,,[],[],[],[],[],[],[],452.2728,454.2726,454.2726,454.2728,[],[],[],[],[],[],[],,454.2729,454.273,0.413543934,0.137513602,0,0,0,,0,67,67,96,1,2,word,CONSIDER,print,consider_p.png,,,,,,
,,,,32081,001,2025-10-21_15h23.01.545,HW_LDT_1,2024.2.4,MacIntel,59.88023952,,,,,,,,,,,,,,,,,,,,,,454.274,454.4727,454.4727,454.9726,,,,,,,,,,,,,,1.1536,1,,,,,,,,,,,,,,m,,,,,,,,,,,,,,,,69,1,454.9732,456.1396,m,1,1.1536,,[],[],[],[],[],[],[],456.1397,458.1393,458.1393,459.4727,[],[],[],[],[],[],[],z,459.4727,459.4728,0.413543934,0.138793016,0,0,0,,0,68,68,132,1,2,word,PROPOSAL,cursive,proposal_c.png,1.3221,,,,,
,,,,32081,001,2025-10-21_15h23.01.545,HW_LDT_1,2024.2.4,MacIntel,59.88023952,,,,,,,,,,,,,,,,,,,,,,459.4737,459.6726,459.6727,460.1726,,,,,,,,,,,,,,1.1475,0,,,,,,,,,,,,,,z,,,,,,,,,,,,,,,,70,0,460.1731,461.3226,m,0,1.1475,,[],[],[],[],[],[],[],461.3226,463.3225,463.3226,463.3228,[],[],[],[],[],[],[],,463.3228,463.3229,0.413543934,0.138793016,0,0,0,,0,69,69,47,1,2,TL,crinimal,cursive,crinimal_c.png,,,,,,
,,,,32081,001,2025-10-21_15h23.01.545,HW_LDT_1,2024.2.4,MacIntel,59.88023952,,,,,,,,,,,,,,,,,,,,,,463.3238,463.5226,463.5227,464.0226,,,,,,,,,,,,,,1.0763,0,,,,,,,,,,,,,,m,,,,,,,,,,,,,,,,71,1,464.0232,465.1059,z,0,1.0763,,[],[],[],[],[],[],[],465.106,467.1059,467.1059,468.1384,[],[],[],[],[],[],[],z,468.1385,468.1386,0.413543934,0.138793016,0,0,0,,0,70,70,123,1,2,word,MODERATE,cursive,moderate_c.png,1.026,,,,,
,,,,32081,001,2025-10-21_15h23.01.545,HW_LDT_1,2024.2.4,MacIntel,59.88023952,,,,,,,,,,,,,,,,,,,,,,468.1395,468.3384,468.3384,468.8385,,,,,,,,,,,,,,3.508,1,,,,,,,,,,,,,,z,,,,,,,,,,,,,,,,72,0,468.8389,472.356,z,1,3.508,,[],[],[],[],[],[],[],472.356,474.355,474.355,474.3552,[],[],[],[],[],[],[],,474.3553,474.3554,0.413543934,0.138793016,0,0,0,,0,71,71,5,1,2,RL,clisimal,cursive,clisimal_c.png,,,,,,
,,,,32081,001,2025-10-21_15h23.01.545,HW_LDT_1,2024.2.4,MacIntel,59.88023952,,,,,,,,,,,,,,,,,,,,,,474.3565,474.555,474.5551,475.0559,,,,,,,,,,,,,,0.7213,1,,,,,,,,,,,,,,z,,,,,,,,,,,,,,,,73,0,475.0565,475.7889,z,1,0.7213,,[],[],[],[],[],[],[],475.7891,477.7892,477.7892,477.7894,[],[],[],[],[],[],[],,477.7895,477.7896,0.413543934,0.138793016,0,0,0,,0,72,72,77,1,2,TL,sloten,print,sloten_p.png,,,,,,
,,,,32081,001,2025-10-21_15h23.01.545,HW_LDT_1,2024.2.4,MacIntel,59.88023952,,,,,,,,,,,,,,,,,,,,,,477.7907,477.9893,477.9893,478.4884,,,,,,,,,,,,,,2.9402,1,,,,,,,,,,,,,,z,,,,,,,,,,,,,,,,74,0,478.4889,481.4392,z,1,2.9402,,[],[],[],[],[],[],[],481.4393,483.4383,483.4384,483.4386,[],[],[],[],[],[],[],,483.4386,483.4388,0.413543934,0.138793016,0,0,0,,0,73,73,40,1,2,TL,bevoled,cursive,bevoled_c.png,,,,,,
,,,,32081,001,2025-10-21_15h23.01.545,HW_LDT_1,2024.2.4,MacIntel,59.88023952,,,,,,,,,,,,,,,,,,,,,,483.4398,483.6387,483.6387,484.1386,,,,,,,,,,,,,,0.731,1,,,,,,,,,,,,,,m,,,,,,,,,,,,,,,,75,0,484.139,484.8724,m,1,0.731,,[],[],[],[],[],[],[],484.8725,486.8716,486.8716,486.8718,[],[],[],[],[],[],[],,486.8719,486.8719,0.413543934,0.138793016,0,0,0,,0,74,74,158,1,2,word,VELOCITY,print,velocity_p.png,,,,,,
,,,,32081,001,2025-10-21_15h23.01.545,HW_LDT_1,2024.2.4,MacIntel,59.88023952,,,,,,,,,,,,,,,,,,,,,,486.8728,487.0725,487.0725,487.5725,,,,,,,,,,,,,,1.2375,1,,,,,,,,,,,,,,z,,,,,,,,,,,,,,,,76,0,487.573,488.8226,z,1,1.2375,,[],[],[],[],[],[],[],488.8226,490.8225,490.8225,490.8227,[],[],[],[],[],[],[],,490.8227,490.8228,0.413543934,0.138793016,0,0,0,,0,75,75,48,1,2,TL,detabe,print,detabe_p.png,,,,,,
,,,,32081,001,2025-10-21_15h23.01.545,HW_LDT_1,2024.2.4,MacIntel,59.88023952,,,,,,,,,,,,,,,,,,,,,,490.8239,491.0216,491.0216,491.5226,,,,,,,,,,,,,,3.5905,0,,,,,,,,,,,,,,m,,,,,,,,,,,,,,,,77,0,491.5231,495.1224,z,0,3.5905,,[],[],[],[],[],[],[],495.1225,497.1225,497.1225,497.1227,[],[],[],[],[],[],[],,497.1227,497.1228,0.413543934,0.138793016,0,0,0,,0,76,76,126,1,2,word,OPTIMAL,cursive,optimal_c.png,,,,,,
,,,,32081,001,2025-10-21_15h23.01.545,HW_LDT_1,2024.2.4,MacIntel,59.88023952,,,,,,,,,,,,,,,,,,,,,,497.1239,497.3225,497.3226,497.8224,,,,,,,,,,,,,,1.2259,1,,,,,,,,,,,,,,m,,,,,,,,,,,,,,,,78,0,497.8229,499.0557,m,1,1.2259,,[],[],[],[],[],[],[],499.0557,501.0558,501.0559,501.056,[],[],[],[],[],[],[],,501.0561,501.0561,0.413543934,0.138793016,0,0,0,,0,77,77,98,1,2,word,CRIMINAL,cursive,criminal_c.png,,,,,,
,,,,32081,001,2025-10-21_15h23.01.545,HW_LDT_1,2024.2.4,MacIntel,59.88023952,,,,,,,,,,,,,,,,,,,,,,501.0572,501.2557,501.2557,501.7558,,,,,,,,,,,,,,0.8205,1,,,,,,,,,,,,,,z,,,,,,,,,,,,,,,,79,0,501.7562,502.5891,z,1,0.8205,,[],[],[],[],[],[],[],502.5892,504.589,504.5891,504.5893,[],[],[],[],[],[],[],,504.5893,504.5894,0.413543934,0.138793016,0,0,0,,0,78,78,78,1,2,TL,stogare,print,stogare_p.png,,,,,,
,,,,32081,001,2025-10-21_15h23.01.545,HW_LDT_1,2024.2.4,MacIntel,59.88023952,,,,,,,,,,,,,,,,,,,,,,504.5904,504.789,504.7891,505.2891,,,,,,,,,,,,,,1.2873,1,,,,,,,,,,,,,,m,,,,,,,,,,,,,,,,80,0,505.2896,506.589,m,1,1.2873,,[],[],[],[],[],[],[],506.5892,508.589,508.5891,508.5892,[],[],[],[],[],[],[],,508.5892,629.8386,0.413543934,0.138793016,0,0,0,space,0,79,79,155,1,2,word,STRATEGY,cursive,strategy_c.png,,,121.2186,,,
,,,,32081,001,2025-10-21_15h23.01.545,HW_LDT_1,2024.2.4,MacIntel,59.88023952,,,,,,,,,,,,,,,,,,,,,,629.8397,630.0384,630.0384,630.5383,,,,,,,,,,,,,,2.2374,1,,,,,,,,,,,,,,m,,,,,,,,,,,,,,,,81,0,630.5389,632.7884,m,1,2.2374,,[],[],[],[],[],[],[],632.7886,634.7884,634.7885,634.7886,[],[],[],[],[],[],[],,634.7886,634.7888,0.413543934,0.138793016,0,0,0,,0,80,80,107,1,2,word,EVIDENT,cursive,evident_c.png,,,,,,
,,,,32081,001,2025-10-21_15h23.01.545,HW_LDT_1,2024.2.4,MacIntel,59.88023952,,,,,,,,,,,,,,,,,,,,,,634.7897,634.9883,634.9883,635.4884,,,,,,,,,,,,,,1.3588,0,,,,,,,,,,,,,,m,,,,,,,,,,,,,,,,82,0,635.4889,636.8549,z,0,1.3588,,[],[],[],[],[],[],[],636.8551,638.8549,638.8549,638.8551,[],[],[],[],[],[],[],,638.8552,638.8552,0.413543934,0.138793016,0,0,0,,0,81,81,119,1,2,word,MEMORY,cursive,memory_c.png,,,,,,
,,,,32081,001,2025-10-21_15h23.01.545,HW_LDT_1,2024.2.4,MacIntel,59.88023952,,,,,,,,,,,,,,,,,,,,,,638.8564,639.055,639.055,639.555,,,,,,,,,,,,,,0.7202,1,,,,,,,,,,,,,,m,,,,,,,,,,,,,,,,83,0,639.5555,640.2883,m,1,0.7202,,[],[],[],[],[],[],[],640.2884,642.2883,642.2883,642.2885,[],[],[],[],[],[],[],,642.2885,642.2886,0.413543934,0.138793016,0,0,0,,0,82,82,100,1,2,word,DECADE,print,decade_p.png,,,,,,
,,,,32081,001,2025-10-21_15h23.01.545,HW_LDT_1,2024.2.4,MacIntel,59.88023952,,,,,,,,,,,,,,,,,,,,,,642.2897,642.4883,642.4883,642.9883,,,,,,,,,,,,,,1.8372,1,,,,,,,,,,,,,,z,,,,,,,,,,,,,,,,84,0,642.9889,644.8383,z,1,1.8372,,[],[],[],[],[],[],[],644.8383,646.8383,646.8383,646.8385,[],[],[],[],[],[],[],,646.8386,646.8386,0.413543934,0.138793016,0,0,0,,0,83,83,34,1,2,RL,trilude,cursive,trilude_c.png,,,,,,
,,,,32081,001,2025-10-21_15h23.01.545,HW_LDT_1,2024.2.4,MacIntel,59.88023952,,,,,,,,,,,,,,,,,,,,,,646.8398,647.0382,647.0382,647.5384,,,,,,,,,,,,,,0.8237,1,,,,,,,,,,,,,,m,,,,,,,,,,,,,,,,85,1,647.5388,648.3715,m,1,0.8237,,[],[],[],[],[],[],[],648.3716,650.3717,650.3717,651.6882,[],[],[],[],[],[],[],m,651.6882,651.6884,0.413543934,0.138793016,0,0,0,,0,84,84,144,1,2,word,RESIDENT,print,resident_p.png,1.3045,,,,,
,,,,32081,001,2025-10-21_15h23.01.545,HW_LDT_1,2024.2.4,MacIntel,59.88023952,,,,,,,,,,,,,,,,,,,,,,651.6893,651.8883,651.8884,652.3882,,,,,,,,,,,,,,1.3427,1,,,,,,,,,,,,,,z,,,,,,,,,,,,,,,,86,0,652.3887,653.7372,z,1,1.3427,,[],[],[],[],[],[],[],653.7373,655.7382,655.7383,655.7384,[],[],[],[],[],[],[],,655.7385,655.7386,0.413543934,0.138793016,0,0,0,,0,85,85,63,1,2,TL,orinigal,print,orinigal_p.png,,,,,,
,,,,32081,001,2025-10-21_15h23.01.545,HW_LDT_1,2024.2.4,MacIntel,59.88023952,,,,,,,,,,,,,,,,,,,,,,655.7397,655.9382,655.9383,656.4382,,,,,,,,,,,,,,1.249,0,,,,,,,,,,,,,,m,,,,,,,,,,,,,,,,87,0,656.4387,657.6884,z,0,1.249,,[],[],[],[],[],[],[],657.6885,659.6881,659.6882,659.6883,[],[],[],[],[],[],[],,659.6884,659.6885,0.413543934,0.138793016,0,0,0,,0,86,86,138,1,2,word,REFUSAL,cursive,refusal_c.png,,,,,,
,,,,32081,001,2025-10-21_15h23.01.545,HW_LDT_1,2024.2.4,MacIntel,59.88023952,,,,,,,,,,,,,,,,,,,,,,659.6896,659.8881,659.8882,660.3872,,,,,,,,,,,,,,1.0547,1,,,,,,,,,,,,,,z,,,,,,,,,,,,,,,,88,0,660.3878,661.4539,z,1,1.0547,,[],[],[],[],[],[],[],661.454,663.4548,663.4549,663.455,[],[],[],[],[],[],[],,663.4551,663.4552,0.413543934,0.138793016,0,0,0,,0,87,87,79,1,2,TL,vadility,print,vadility_p.png,,,,,,
,,,,32081,001,2025-10-21_15h23.01.545,HW_LDT_1,2024.2.4,MacIntel,59.88023952,,,,,,,,,,,,,,,,,,,,,,663.4562,663.6548,663.6548,664.1549,,,,,,,,,,,,,,1.4538,1,,,,,,,,,,,,,,z,,,,,,,,,,,,,,,,89,0,664.1554,665.6215,z,1,1.4538,,[],[],[],[],[],[],[],665.6216,667.6215,667.6215,667.6217,[],[],[],[],[],[],[],,667.6217,667.6219,0.413543934,0.138793016,0,0,0,,0,88,88,57,1,2,TL,meromy,cursive,meromy_c.png,,,,,,
,,,,32081,001,2025-10-21_15h23.01.545,HW_LDT_1,2024.2.4,MacIntel,59.88023952,,,,,,,,,,,,,,,,,,,,,,667.6229,667.8211,667.8212,668.3215,,,,,,,,,,,,,,0.9726,1,,,,,,,,,,,,,,m,,,,,,,,,,,,,,,,90,0,668.322,669.3048,m,1,0.9726,,[],[],[],[],[],[],[],669.3049,671.3048,671.3049,671.3051,[],[],[],[],[],[],[],,671.3051,671.3052,0.413543934,0.138793016,0,0,0,,0,89,89,101,1,2,word,DELICATE,print,delicate_p.png,,,,,,
,,,,32081,001,2025-10-21_15h23.01.545,HW_LDT_1,2024.2.4,MacIntel,59.88023952,,,,,,,,,,,,,,,,,,,,,,671.3063,671.5047,671.5049,672.0039,,,,,,,,,,,,,,0.8651,1,,,,,,,,,,,,,,z,,,,,,,,,,,,,,,,91,0,672.0044,672.8705,z,1,0.8651,,[],[],[],[],[],[],[],672.8705,674.8714,674.8715,674.8715,[],[],[],[],[],[],[],,674.8716,674.8717,0.413543934,0.138793016,0,0,0,,0,90,90,16,1,2,RL,losipal,print,losipal_p.png,,,,,,
,,,,32081,001,2025-10-21_15h23.01.545,HW_LDT_1,2024.2.4,MacIntel,59.88023952,,,,,,,,,,,,,,,,,,,,,,674.8728,675.0705,675.0706,675.5713,,,,,,,,,,,,,,2.4604,0,,,,,,,,,,,,,,m,,,,,,,,,,,,,,,,92,0,675.5719,678.0381,z,0,2.4604,,[],[],[],[],[],[],[],678.0382,680.0381,680.0381,680.0383,[],[],[],[],[],[],[],,680.0383,680.0384,0.413543934,0.138793016,0,0,0,,0,91,91,141,1,2,word,RELIGION,cursive,religion_c.png,,,,,,
,,,,32081,001,2025-10-21_15h23.01.545,HW_LDT_1,2024.2.4,MacIntel,59.88023952,,,,,,,,,,,,,,,,,,,,,,680.0395,680.2381,680.2381,680.7381,,,,,,,,,,,,,,0.7717,1,,,,,,,,,,,,,,m,,,,,,,,,,,,,,,,93,0,680.7386,681.5214,m,1,0.7717,,[],[],[],[],[],[],[],681.5215,683.5213,683.5214,683.5216,[],[],[],[],[],[],[],,683.5216,683.5217,0.413543934,0.138793016,0,0,0,,0,92,92,104,1,2,word,DOMINANT,print,dominant_p.png,,,,,,
,,,,32081,001,2025-10-21_15h23.01.545,HW_LDT_1,2024.2.4,MacIntel,59.88023952,,,,,,,,,,,,,,,,,,,,,,683.5228,683.7214,683.7214,684.2204,,,,,,,,,,,,,,0.7207,1,,,,,,,,,,,,,,z,,,,,,,,,,,,,,,,94,0,684.2209,684.9548,z,1,0.7207,,[],[],[],[],[],[],[],684.9548,686.9548,686.9548,686.955,[],[],[],[],[],[],[],,686.955,686.9551,0.477620885,0.245145879,0,0,0,,0,93,93,25,1,2,RL,rabigly,print,rabigly_p.png,,,,,,
,,,,32081,001,2025-10-21_15h23.01.545,HW_LDT_1,2024.2.4,MacIntel,59.88023952,,,,,,,,,,,,,,,,,,,,,,686.9561,687.1546,687.1547,687.6546,,,,,,,,,,,,,,0.8209,1,,,,,,,,,,,,,,z,,,,,,,,,,,,,,,,95,1,687.6552,688.4872,z,1,0.8209,,[],[],[],[],[],[],[],688.4872,690.488,690.488,692.6205,[],[],[],[],[],[],[],z,692.6206,692.6207,0.477620885,0.245145879,0,0,0,,0,94,94,9,1,2,RL,denficy,print,denficy_p.png,2.1206,,,,,
,,,,32081,001,2025-10-21_15h23.01.545,HW_LDT_1,2024.2.4,MacIntel,59.88023952,,,,,,,,,,,,,,,,,,,,,,692.6215,692.8213,692.8214,693.3213,,,,,,,,,,,,,,0.9638,1,,,,,,,,,,,,,,z,,,,,,,,,,,,,,,,96,0,693.3217,694.287,z,1,0.9638,,[],[],[],[],[],[],[],694.287,696.2881,696.2881,696.2882,[],[],[],[],[],[],[],,696.2882,696.2884,0.477620885,0.245145879,0,0,0,,0,95,95,23,1,2,RL,procogal,cursive,procogal_c.png,,,,,,
,,,,32081,001,2025-10-21_15h23.01.545,HW_LDT_1,2024.2.4,MacIntel,59.88023952,,,,,,,,,,,,,,,,,,,,,,696.2895,696.488,696.488,696.988,,,,,,,,,,,,,,0.6862,1,,,,,,,,,,,,,,m,,,,,,,,,,,,,,,,97,0,696.9886,697.688,m,1,0.6862,,[],[],[],[],[],[],[],697.6881,699.6879,699.6879,699.6881,[],[],[],[],[],[],[],,699.6882,699.6883,0.477620885,0.245145879,0,0,0,,0,96,96,110,1,2,word,HERITAGE,print,heritage_p.png,,,,,,
,,,,32081,001,2025-10-21_15h23.01.545,HW_LDT_1,2024.2.4,MacIntel,59.88023952,,,,,,,,,,,,,,,,,,,,,,699.6893,699.8871,699.8871,700.3879,,,,,,,,,,,,,,3.0041,0,,,,,,,,,,,,,,m,,,,,,,,,,,,,,,,98,0,700.3883,703.4046,z,0,3.0041,,[],[],[],[],[],[],[],703.4047,705.4045,705.4046,705.4047,[],[],[],[],[],[],[],,705.4048,705.4048,0.477620885,0.245145879,0,0,0,,0,97,97,111,1,2,word,INDICATE,cursive,indicate_c.png,,,,,,
,,,,32081,001,2025-10-21_15h23.01.545,HW_LDT_1,2024.2.4,MacIntel,59.88023952,,,,,,,,,,,,,,,,,,,,,,705.4059,705.6047,705.6047,706.1045,,,,,,,,,,,,,,2.0212,0,,,,,,,,,,,,,,m,,,,,,,,,,,,,,,,99,1,706.1051,708.1371,z,0,2.0212,,[],[],[],[],[],[],[],708.1372,710.138,710.138,711.2212,[],[],[],[],[],[],[],z,711.2212,711.2213,0.477620885,0.245145879,0,0,0,,0,98,98,125,1,2,word,OPERATOR,cursive,operator_c.png,1.0753,,,,,
,,,,32081,001,2025-10-21_15h23.01.545,HW_LDT_1,2024.2.4,MacIntel,59.88023952,,,,,,,,,,,,,,,,,,,,,,711.2222,711.4204,711.4204,711.9212,,,,,,,,,,,,,,2.954,1,,,,,,,,,,,,,,z,,,,,,,,,,,,,,,,100,0,711.9216,714.8879,z,1,2.954,,[],[],[],[],[],[],[],714.888,716.8879,716.888,716.8881,[],[],[],[],[],[],[],,716.8882,716.8883,0.477370103,0.245145879,0,0,0,,0,99,99,58,1,2,TL,mitilary,cursive,mitilary_c.png,,,,,,
,,,,32081,001,2025-10-21_15h23.01.545,HW_LDT_1,2024.2.4,MacIntel,59.88023952,,,,,,,,,,,,,,,,,,,,,,716.8893,717.0879,717.0879,717.5878,,,,,,,,,,,,,,0.7245,1,,,,,,,,,,,,,,z,,,,,,,,,,,,,,,,101,0,717.5883,718.3212,z,1,0.7245,,[],[],[],[],[],[],[],718.3213,720.3199,720.3199,720.32,[],[],[],[],[],[],[],,720.32,720.32,0.487303625,0.255070899,0,0,0,,0,100,100,8,1,2,RL,desifate,print,desifate_p.png,,,,,,
,,,,32081,001,2025-10-21_15h23.01.545,HW_LDT_1,2024.2.4,MacIntel,59.88023952,,,,,,,,,,,,,,,,,,,,,,720.3206,720.5211,720.5211,721.0211,,,,,,,,,,,,,,0.8705,1,,,,,,,,,,,,,,m,,,,,,,,,,,,,,,,102,0,721.0217,721.9045,m,1,0.8705,,[],[],[],[],[],[],[],721.9045,723.9045,723.9045,723.9047,[],[],[],[],[],[],[],,723.9047,723.9048,0.487303625,0.255070899,0,0,0,,0,101,101,114,1,2,word,LOCATE,print,locate_p.png,,,,,,
,,,,32081,001,2025-10-21_15h23.01.545,HW_LDT_1,2024.2.4,MacIntel,59.88023952,,,,,,,,,,,,,,,,,,,,,,723.9059,724.1045,724.1046,724.6045,,,,,,,,,,,,,,1.0875,1,,,,,,,,,,,,,,z,,,,,,,,,,,,,,,,103,0,724.6049,725.7045,z,1,1.0875,,[],[],[],[],[],[],[],725.7046,727.7044,727.7045,727.7046,[],[],[],[],[],[],[],,727.7046,727.7047,0.487303625,0.255070899,0,0,0,,0,102,102,70,1,2,TL,retalive,print,retalive_p.png,,,,,,
,,,,32081,001,2025-10-21_15h23.01.545,HW_LDT_1,2024.2.4,MacIntel,59.88023952,,,,,,,,,,,,,,,,,,,,,,727.7057,727.9042,727.9043,728.4045,,,,,,,,,,,,,,0.7545,1,,,,,,,,,,,,,,z,,,,,,,,,,,,,,,,104,1,728.405,729.1711,z,1,0.7545,,[],[],[],[],[],[],[],729.1712,731.1712,731.1712,732.5374,[],[],[],[],[],[],[],m,732.5375,732.5375,0.487303625,0.255070899,0,0,0,,0,103,103,36,1,2,RL,vecelan,print,vecelan_p.png,1.3544,,,,,
,,,,32081,001,2025-10-21_15h23.01.545,HW_LDT_1,2024.2.4,MacIntel,59.88023952,,,,,,,,,,,,,,,,,,,,,,732.538,732.7377,732.7377,733.2377,,,,,,,,,,,,,,2.8733,0,,,,,,,,,,,,,,m,,,,,,,,,,,,,,,,105,1,733.2383,736.1211,z,0,2.8733,,[],[],[],[],[],[],[],736.1212,738.121,738.1211,739.1877,[],[],[],[],[],[],[],z,739.1879,739.188,0.487303625,0.255070899,0,0,0,,0,104,104,106,1,2,word,ELABORATE,cursive,elaborate_c.png,1.0548,,,,,
,,,,32081,001,2025-10-21_15h23.01.545,HW_LDT_1,2024.2.4,MacIntel,59.88023952,,,,,,,,,,,,,,,,,,,,,,739.1888,739.3877,739.3878,739.8877,,,,,,,,,,,,,,2.6369,1,,,,,,,,,,,,,,z,,,,,,,,,,,,,,,,106,0,739.8882,742.5369,z,1,2.6369,,[],[],[],[],[],[],[],742.537,744.5376,744.5377,744.5379,[],[],[],[],[],[],[],,744.538,744.5381,0.487303625,0.255070899,0,0,0,,0,105,105,7,1,2,RL,cocewage,cursive,cocewage_c.png,,,,,,
,,,,32081,001,2025-10-21_15h23.01.545,HW_LDT_1,2024.2.4,MacIntel,59.88023952,,,,,,,,,,,,,,,,,,,,,,744.5393,744.7369,744.7369,745.2377,,,,,,,,,,,,,,0.9096,1,,,,,,,,,,,,,,z,,,,,,,,,,,,,,,,107,0,745.2382,746.1534,z,1,0.9096,,[],[],[],[],[],[],[],746.1535,748.1534,748.1534,748.1535,[],[],[],[],[],[],[],,748.1536,748.1537,0.487303625,0.258003774,0,0,0,,0,106,106,49,1,2,TL,dedace,print,dedace_p.png,,,,,,
,,,,32081,001,2025-10-21_15h23.01.545,HW_LDT_1,2024.2.4,MacIntel,59.88023952,,,,,,,,,,,,,,,,,,,,,,748.1546,748.3539,748.3539,748.8543,,,,,,,,,,,,,,0.7378,1,,,,,,,,,,,,,,m,,,,,,,,,,,,,,,,108,0,748.8547,749.6044,m,1,0.7378,,[],[],[],[],[],[],[],749.6045,751.6044,751.6044,751.6046,[],[],[],[],[],[],[],,751.6046,751.6047,0.487303625,0.260375578,0,0,0,,0,107,107,159,1,2,word,VETERAN,print,veteran_p.png,,,,,,
,,,,32081,001,2025-10-21_15h23.01.545,HW_LDT_1,2024.2.4,MacIntel,59.88023952,,,,,,,,,,,,,,,,,,,,,,751.6059,751.8043,751.8043,752.3043,,,,,,,,,,,,,,2.6306,1,,,,,,,,,,,,,,m,,,,,,,,,,,,,,,,109,0,752.3049,754.9367,m,1,2.6306,,[],[],[],[],[],[],[],754.9368,756.9377,756.9377,756.9378,[],[],[],[],[],[],[],,756.9378,756.9379,0.487303625,0.260375578,0,0,0,,0,108,108,109,1,2,word,GRATEFUL,cursive,grateful_c.png,,,,,,
,,,,32081,001,2025-10-21_15h23.01.545,HW_LDT_1,2024.2.4,MacIntel,59.88023952,,,,,,,,,,,,,,,,,,,,,,756.939,757.1376,757.1377,757.6376,,,,,,,,,,,,,,3.0877,1,,,,,,,,,,,,,,z,,,,,,,,,,,,,,,,110,0,757.6381,760.7377,z,1,3.0877,,[],[],[],[],[],[],[],760.7377,762.7375,762.7376,762.7378,[],[],[],[],[],[],[],,762.7378,762.738,0.487303625,0.260375578,0,0,0,,0,109,109,19,1,2,RL,monebate,cursive,monebate_c.png,,,,,,
,,,,32081,001,2025-10-21_15h23.01.545,HW_LDT_1,2024.2.4,MacIntel,59.88023952,,,,,,,,,,,,,,,,,,,,,,762.7391,762.9375,762.9376,763.4376,,,,,,,,,,,,,,0.8562,1,,,,,,,,,,,,,,z,,,,,,,,,,,,,,,,111,0,763.4382,764.3043,z,1,0.8562,,[],[],[],[],[],[],[],764.3043,766.3043,766.3043,766.3045,[],[],[],[],[],[],[],,766.3045,766.3046,0.487303625,0.260375578,0,0,0,,0,110,110,39,1,2,TL,aminal,print,aminal_p.png,,,,,,
,,,,32081,001,2025-10-21_15h23.01.545,HW_LDT_1,2024.2.4,MacIntel,59.88023952,,,,,,,,,,,,,,,,,,,,,,766.3055,766.5043,766.5043,767.0042,,,,,,,,,,,,,,3.2153,1,,,,,,,,,,,,,,m,,,,,,,,,,,,,,,,112,0,767.0046,770.2208,m,1,3.2153,,[],[],[],[],[],[],[],770.221,772.2209,772.2209,772.2211,[],[],[],[],[],[],[],,772.2211,772.2213,0.487303625,0.260129047,0,0,0,,0,111,111,142,1,2,word,REMOTE,cursive,remote_c.png,,,,,,
,,,,32081,001,2025-10-21_15h23.01.545,HW_LDT_1,2024.2.4,MacIntel,59.88023952,,,,,,,,,,,,,,,,,,,,,,772.2223,772.4208,772.4208,772.9209,,,,,,,,,,,,,,1.138,1,,,,,,,,,,,,,,z,,,,,,,,,,,,,,,,113,0,772.9214,774.0709,z,1,1.138,,[],[],[],[],[],[],[],774.0709,776.0708,776.0708,776.0711,[],[],[],[],[],[],[],,776.0711,776.0712,0.487303625,0.260379829,0,0,0,,0,112,112,55,1,2,TL,lotace,print,lotace_p.png,,,,,,
,,,,32081,001,2025-10-21_15h23.01.545,HW_LDT_1,2024.2.4,MacIntel,59.88023952,,,,,,,,,,,,,,,,,,,,,,776.0722,776.2708,776.2709,776.7709,,,,,,,,,,,,,,1.5054,1,,,,,,,,,,,,,,z,,,,,,,,,,,,,,,,114,0,776.7714,778.2875,z,1,1.5054,,[],[],[],[],[],[],[],778.2876,780.2869,780.2869,780.2871,[],[],[],[],[],[],[],,780.2871,780.2872,0.487303625,0.260379829,0,0,0,,0,113,113,71,1,2,TL,retome,cursive,retome_c.png,,,,,,
,,,,32081,001,2025-10-21_15h23.01.545,HW_LDT_1,2024.2.4,MacIntel,59.88023952,,,,,,,,,,,,,,,,,,,,,,780.2882,780.4875,780.4875,780.9875,,,,,,,,,,,,,,0.837,1,,,,,,,,,,,,,,z,,,,,,,,,,,,,,,,115,0,780.9881,781.8375,z,1,0.837,,[],[],[],[],[],[],[],781.8376,783.8374,783.8375,783.8376,[],[],[],[],[],[],[],,783.8376,783.8377,0.487303625,0.260379829,0,0,0,,0,114,114,73,1,2,TL,redisent,print,redisent_p.png,,,,,,
,,,,32081,001,2025-10-21_15h23.01.545,HW_LDT_1,2024.2.4,MacIntel,59.88023952,,,,,,,,,,,,,,,,,,,,,,783.8385,784.0375,784.0376,784.5375,,,,,,,,,,,,,,1.204,1,,,,,,,,,,,,,,z,,,,,,,,,,,,,,,,116,1,784.5379,785.7541,z,1,1.204,,[],[],[],[],[],[],[],785.7542,787.7541,787.7541,789.0874,[],[],[],[],[],[],[],m,789.0875,789.0876,0.457762344,0.200668186,0,0,0,,0,115,115,18,1,2,RL,mesibine,print,mesibine_p.png,1.3313,,,,,
,,,,32081,001,2025-10-21_15h23.01.545,HW_LDT_1,2024.2.4,MacIntel,59.88023952,,,,,,,,,,,,,,,,,,,,,,789.0888,789.2874,789.2875,789.7874,,,,,,,,,,,,,,1.2542,1,,,,,,,,,,,,,,m,,,,,,,,,,,,,,,,117,1,789.788,791.0541,m,1,1.2542,,[],[],[],[],[],[],[],791.0541,793.0541,793.0542,795.1367,[],[],[],[],[],[],[],z,795.1368,795.1369,0.457762344,0.200668186,0,0,0,,0,116,116,97,1,2,word,COVERAGE,cursive,coverage_c.png,2.0713,,,,,
,,,,32081,001,2025-10-21_15h23.01.545,HW_LDT_1,2024.2.4,MacIntel,59.88023952,,,,,,,,,,,,,,,,,,,,,,795.1378,795.3374,795.3375,795.8374,,,,,,,,,,,,,,1.6207,1,,,,,,,,,,,,,,z,,,,,,,,,,,,,,,,118,0,795.8379,797.4707,z,1,1.6207,,[],[],[],[],[],[],[],797.4708,799.4707,799.4707,799.471,[],[],[],[],[],[],[],,799.471,799.4711,0.457762344,0.200668186,0,0,0,,0,117,117,37,1,2,TL,adacemy,cursive,adacemy_c.png,,,,,,
,,,,32081,001,2025-10-21_15h23.01.545,HW_LDT_1,2024.2.4,MacIntel,59.88023952,,,,,,,,,,,,,,,,,,,,,,799.4723,799.6707,799.6707,800.1706,,,,,,,,,,,,,,2.154,0,,,,,,,,,,,,,,m,,,,,,,,,,,,,,,,119,1,800.1711,802.3374,z,0,2.154,,[],[],[],[],[],[],[],802.3375,804.337,804.3371,808.2541,[],[],[],[],[],[],[],z,808.2541,808.2542,0.559813656,0.318714295,0,0,0,,0,118,118,139,1,2,word,REGULAR,cursive,regular_c.png,3.9053,,,,,
,,,,32081,001,2025-10-21_15h23.01.545,HW_LDT_1,2024.2.4,MacIntel,59.88023952,,,,,,,,,,,,,,,,,,,,,,808.2551,808.454,808.4541,808.9536,,,,,,,,,,,,,,1.4304,1,,,,,,,,,,,,,,z,,,,,,,,,,,,,,,,120,1,808.9538,810.3873,z,1,1.4304,,[],[],[],[],[],[],[],810.3873,812.3874,812.3875,813.6039,[],[],[],[],[],[],[],z,813.6041,813.6041,0.559562874,0.318973579,0,0,0,,0,119,119,42,1,2,TL,bedise,cursive,bedise_c.png,1.2042,,,,,
,,,,32081,001,2025-10-21_15h23.01.545,HW_LDT_1,2024.2.4,MacIntel,59.88023952,,,,,,,,,,,,,,,,,,,,,,813.605,813.804,813.8041,814.304,,,,,,,,,,,,,,1.4299,1,,,,,,,,,,,,,,m,,,,,,,,,,,,,,,,121,0,814.3045,815.7372,m,1,1.4299,,[],[],[],[],[],[],[],815.7373,817.7372,817.7373,817.7375,[],[],[],[],[],[],[],,817.7376,817.7377,0.559562874,0.318973579,0,0,0,,0,120,120,112,1,2,word,LIBERAL,print,liberal_p.png,,,,,,
,,,,32081,001,2025-10-21_15h23.01.545,HW_LDT_1,2024.2.4,MacIntel,59.88023952,,,,,,,,,,,,,,,,,,,,,,817.7388,817.9372,817.9372,818.4373,,,,,,,,,,,,,,1.2714,1,,,,,,,,,,,,,,z,,,,,,,,,,,,,,,,122,0,818.4378,819.7207,z,1,1.2714,,[],[],[],[],[],[],[],819.7208,821.7206,821.7206,821.7208,[],[],[],[],[],[],[],,821.7209,821.721,0.559562874,0.318973579,0,0,0,,0,121,121,38,1,2,TL,atameur,cursive,atameur_c.png,,,,,,
,,,,32081,001,2025-10-21_15h23.01.545,HW_LDT_1,2024.2.4,MacIntel,59.88023952,,,,,,,,,,,,,,,,,,,,,,821.722,821.9208,821.9208,822.4206,,,,,,,,,,,,,,1.404,1,,,,,,,,,,,,,,m,,,,,,,,,,,,,,,,123,0,822.4211,823.8372,m,1,1.404,,[],[],[],[],[],[],[],823.8374,825.8362,825.8363,825.8364,[],[],[],[],[],[],[],,825.8364,825.8366,0.559303591,0.317940696,0,0,0,,0,122,122,150,1,2,word,SENTIMENT,cursive,sentiment_c.png,,,,,,
,,,,32081,001,2025-10-21_15h23.01.545,HW_LDT_1,2024.2.4,MacIntel,59.88023952,,,,,,,,,,,,,,,,,,,,,,825.8377,826.0372,826.0372,826.5373,,,,,,,,,,,,,,1.0537,1,,,,,,,,,,,,,,m,,,,,,,,,,,,,,,,124,0,826.5378,827.6039,m,1,1.0537,,[],[],[],[],[],[],[],827.604,829.6029,829.6029,829.6031,[],[],[],[],[],[],[],,829.6031,829.6033,0.559809406,0.317158596,0,0,0,,0,123,123,102,1,2,word,DENSITY,print,density_p.png,,,,,,
,,,,32081,001,2025-10-21_15h23.01.545,HW_LDT_1,2024.2.4,MacIntel,59.88023952,,,,,,,,,,,,,,,,,,,,,,829.6043,829.8039,829.8039,830.3038,,,,,,,,,,,,,,1.1209,1,,,,,,,,,,,,,,m,,,,,,,,,,,,,,,,125,0,830.3042,831.4372,m,1,1.1209,,[],[],[],[],[],[],[],831.4373,833.4372,833.4373,833.4374,[],[],[],[],[],[],[],,833.4375,833.4376,0.55929509,0.317409378,0,0,0,,0,124,124,136,1,2,word,RADICAL,cursive,radical_c.png,,,,,,
,,,,32081,001,2025-10-21_15h23.01.545,HW_LDT_1,2024.2.4,MacIntel,59.88023952,,,,,,,,,,,,,,,,,,,,,,833.4387,833.6373,833.6373,834.1373,,,,,,,,,,,,,,1.054,1,,,,,,,,,,,,,,m,,,,,,,,,,,,,,,,126,0,834.1377,835.2034,m,1,1.054,,[],[],[],[],[],[],[],835.2035,837.2038,837.2039,837.2041,[],[],[],[],[],[],[],,837.2042,837.2042,0.559035807,0.318187228,0,0,0,,0,125,125,83,1,2,word,ANIMAL,print,animal_p.png,,,,,,
,,,,32081,001,2025-10-21_15h23.01.545,HW_LDT_1,2024.2.4,MacIntel,59.88023952,,,,,,,,,,,,,,,,,,,,,,837.2053,837.4039,837.404,837.9038,,,,,,,,,,,,,,2.1542,0,,,,,,,,,,,,,,m,,,,,,,,,,,,,,,,127,1,837.9043,840.0705,z,0,2.1542,,[],[],[],[],[],[],[],840.0706,842.0705,842.0705,843.7205,[],[],[],[],[],[],[],z,843.7206,843.7207,0.558529992,0.318455012,0,0,0,,0,126,126,105,1,2,word,EDITOR,cursive,editor_c.png,1.6372,,,,,
,,,,32081,001,2025-10-21_15h23.01.545,HW_LDT_1,2024.2.4,MacIntel,59.88023952,,,,,,,,,,,,,,,,,,,,,,843.7216,843.9205,843.9205,844.4196,,,,,,,,,,,,,,1.3155,1,,,,,,,,,,,,,,m,,,,,,,,,,,,,,,,128,1,844.4201,845.7371,m,1,1.3155,,[],[],[],[],[],[],[],845.7371,847.7362,847.7363,849.3038,[],[],[],[],[],[],[],z,849.3039,849.304,0.558024177,0.318705794,0,0,0,,0,127,127,86,1,2,word,BESIDE,cursive,beside_c.png,1.5585,,,,,
,,,,32081,001,2025-10-21_15h23.01.545,HW_LDT_1,2024.2.4,MacIntel,59.88023952,,,,,,,,,,,,,,,,,,,,,,849.305,849.5028,849.5029,850.0037,,,,,,,,,,,,,,0.7642,1,,,,,,,,,,,,,,m,,,,,,,,,,,,,,,,129,0,850.0042,850.7695,m,1,0.7642,,[],[],[],[],[],[],[],850.7696,852.7704,852.7704,852.7705,[],[],[],[],[],[],[],,852.7707,852.7707,0.558024177,0.318705794,0,0,0,,0,128,128,157,1,2,word,VALIDITY,print,validity_p.png,,,,,,
,,,,32081,001,2025-10-21_15h23.01.545,HW_LDT_1,2024.2.4,MacIntel,59.88023952,,,,,,,,,,,,,,,,,,,,,,852.7718,852.9704,852.9704,853.4705,,,,,,,,,,,,,,1.4087,1,,,,,,,,,,,,,,m,,,,,,,,,,,,,,,,130,1,853.4709,854.887,m,1,1.4087,,[],[],[],[],[],[],[],854.8871,856.8871,856.8872,858.1204,[],[],[],[],[],[],[],z,858.1205,858.1206,0.558024177,0.318705794,0,0,0,,0,129,129,135,1,2,word,QUALITY,cursive,quality_c.png,1.2215,,,,,
,,,,32081,001,2025-10-21_15h23.01.545,HW_LDT_1,2024.2.4,MacIntel,59.88023952,,,,,,,,,,,,,,,,,,,,,,858.1215,858.3194,858.3194,858.8204,,,,,,,,,,,,,,0.7371,1,,,,,,,,,,,,,,m,,,,,,,,,,,,,,,,131,1,858.8209,859.5704,m,1,0.7371,,[],[],[],[],[],[],[],859.5705,861.5704,861.5705,863.3204,[],[],[],[],[],[],[],m,863.3204,863.3205,0.558024177,0.318705794,0,0,0,,0,130,130,153,1,2,word,STOLEN,print,stolen_p.png,1.7402,,,,,
,,,,32081,001,2025-10-21_15h23.01.545,HW_LDT_1,2024.2.4,MacIntel,59.88023952,,,,,,,,,,,,,,,,,,,,,,863.3214,863.5204,863.5204,864.0194,,,,,,,,,,,,,,0.7539,1,,,,,,,,,,,,,,m,,,,,,,,,,,,,,,,132,0,864.02,864.787,m,1,0.7539,,[],[],[],[],[],[],[],864.7871,866.7871,866.7871,866.7873,[],[],[],[],[],[],[],,866.7873,866.7874,0.558024177,0.318705794,0,0,0,,0,131,131,156,1,2,word,TRIBUTE,cursive,tribute_c.png,,,,,,
,,,,32081,001,2025-10-21_15h23.01.545,HW_LDT_1,2024.2.4,MacIntel,59.88023952,,,,,,,,,,,,,,,,,,,,,,866.7885,866.986,866.986,867.4861,,,,,,,,,,,,,,0.7714,0,,,,,,,,,,,,,,m,,,,,,,,,,,,,,,,133,0,867.4866,868.2694,z,0,0.7714,,[],[],[],[],[],[],[],868.2695,870.2702,870.2703,870.2704,[],[],[],[],[],[],[],,870.2705,870.2706,0.558024177,0.318705794,0,0,0,,0,132,132,85,1,2,word,BENEFIT,cursive,benefit_c.png,,,,,,
,,,,32081,001,2025-10-21_15h23.01.545,HW_LDT_1,2024.2.4,MacIntel,59.88023952,,,,,,,,,,,,,,,,,,,,,,870.2716,870.4703,870.4703,870.9703,,,,,,,,,,,,,,1.5821,1,,,,,,,,,,,,,,z,,,,,,,,,,,,,,,,134,0,870.9707,872.5536,z,1,1.5821,,[],[],[],[],[],[],[],872.5537,874.5536,874.5537,874.5538,[],[],[],[],[],[],[],,874.5539,874.5539,0.558024177,0.318705794,0,0,0,,0,133,133,22,1,2,RL,posity,print,posity_p.png,,,,,,
,,,,32081,001,2025-10-21_15h23.01.545,HW_LDT_1,2024.2.4,MacIntel,59.88023952,,,,,,,,,,,,,,,,,,,,,,874.555,874.7535,874.7536,875.2527,,,,,,,,,,,,,,1.2822,0,,,,,,,,,,,,,,z,,,,,,,,,,,,,,,,135,0,875.2533,876.5362,m,0,1.2822,,[],[],[],[],[],[],[],876.5363,878.537,878.5371,878.5373,[],[],[],[],[],[],[],,878.5374,878.5374,0.558024177,0.318705794,0,0,0,,0,134,134,76,1,2,TL,senmitent,cursive,senmitent_c.png,,,,,,
,,,,32081,001,2025-10-21_15h23.01.545,HW_LDT_1,2024.2.4,MacIntel,59.88023952,,,,,,,,,,,,,,,,,,,,,,878.5385,878.737,878.7371,879.2361,,,,,,,,,,,,,,0.9047,1,,,,,,,,,,,,,,m,,,,,,,,,,,,,,,,136,0,879.2366,880.1537,m,1,0.9047,,[],[],[],[],[],[],[],880.1537,882.1536,882.1536,882.1538,[],[],[],[],[],[],[],,882.1538,882.1539,0.558024177,0.318705794,0,0,0,,0,135,135,137,1,2,word,RAPIDLY,print,rapidly_p.png,,,,,,
,,,,32081,001,2025-10-21_15h23.01.545,HW_LDT_1,2024.2.4,MacIntel,59.88023952,,,,,,,,,,,,,,,,,,,,,,882.155,882.3536,882.3536,882.8535,,,,,,,,,,,,,,2.9375,1,,,,,,,,,,,,,,z,,,,,,,,,,,,,,,,137,0,882.8541,885.8036,z,1,2.9375,,[],[],[],[],[],[],[],885.8036,887.8029,887.8029,887.803,[],[],[],[],[],[],[],,887.8031,887.8032,0.558270709,0.318705794,0,0,0,,0,136,136,52,1,2,TL,elarobate,cursive,elarobate_c.png,,,,,,
,,,,32081,001,2025-10-21_15h23.01.545,HW_LDT_1,2024.2.4,MacIntel,59.88023952,,,,,,,,,,,,,,,,,,,,,,887.8042,888.0036,888.0036,888.5036,,,,,,,,,,,,,,0.8205,1,,,,,,,,,,,,,,z,,,,,,,,,,,,,,,,138,0,888.5041,889.3368,z,1,0.8205,,[],[],[],[],[],[],[],889.3369,891.3368,891.3369,891.337,[],[],[],[],[],[],[],,891.337,891.3372,0.559324844,0.316907814,0,0,0,,0,137,137,43,1,2,TL,carema,print,carema_p.png,,,,,,
,,,,32081,001,2025-10-21_15h23.01.545,HW_LDT_1,2024.2.4,MacIntel,59.88023952,,,,,,,,,,,,,,,,,,,,,,891.3383,891.5369,891.537,892.0368,,,,,,,,,,,,,,0.8541,1,,,,,,,,,,,,,,z,,,,,,,,,,,,,,,,139,0,892.0372,892.9029,z,1,0.8541,,[],[],[],[],[],[],[],892.9029,894.9035,894.9035,894.9037,[],[],[],[],[],[],[],,894.9037,894.9039,0.559324844,0.316907814,0,0,0,,0,138,138,64,1,2,TL,paficic,print,paficic_p.png,,,,,,
,,,,32081,001,2025-10-21_15h23.01.545,HW_LDT_1,2024.2.4,MacIntel,59.88023952,,,,,,,,,,,,,,,,,,,,,,894.905,895.1026,895.1027,895.6035,,,,,,,,,,,,,,0.6206,1,,,,,,,,,,,,,,z,,,,,,,,,,,,,,,,140,0,895.604,896.237,z,1,0.6206,,[],[],[],[],[],[],[],896.2371,898.2369,898.2369,898.2371,[],[],[],[],[],[],[],,898.2371,898.2372,0.559324844,0.316907814,0,0,0,,0,139,139,30,1,2,RL,selamor,print,selamor_p.png,,,,,,
,,,,32081,001,2025-10-21_15h23.01.545,HW_LDT_1,2024.2.4,MacIntel,59.88023952,,,,,,,,,,,,,,,,,,,,,,898.2383,898.4369,898.4369,898.9368,,,,,,,,,,,,,,1.7716,1,,,,,,,,,,,,,,z,,,,,,,,,,,,,,,,141,0,898.9374,900.7202,z,1,1.7716,,[],[],[],[],[],[],[],900.7203,902.7199,902.7199,902.7201,[],[],[],[],[],[],[],,902.7202,902.7203,0.559324844,0.316907814,0,0,0,,0,140,140,14,1,2,RL,insibate,cursive,insibate_c.png,,,,,,
,,,,32081,001,2025-10-21_15h23.01.545,HW_LDT_1,2024.2.4,MacIntel,59.88023952,,,,,,,,,,,,,,,,,,,,,,902.7214,902.9192,902.9193,903.4201,,,,,,,,,,,,,,1.1877,1,,,,,,,,,,,,,,m,,,,,,,,,,,,,,,,142,0,903.4206,904.6201,m,1,1.1877,,[],[],[],[],[],[],[],904.6202,906.6201,906.6202,906.6203,[],[],[],[],[],[],[],,906.6204,906.6205,0.559324844,0.316907814,0,0,0,,0,141,141,80,1,2,word,ACADEMY,cursive,academy_c.png,,,,,,
,,,,32081,001,2025-10-21_15h23.01.545,HW_LDT_1,2024.2.4,MacIntel,59.88023952,,,,,,,,,,,,,,,,,,,,,,906.6215,906.8192,906.8193,907.3202,,,,,,,,,,,,,,3.1041,1,,,,,,,,,,,,,,z,,,,,,,,,,,,,,,,143,0,907.3205,910.4369,z,1,3.1041,,[],[],[],[],[],[],[],910.4369,912.4359,912.4359,912.4361,[],[],[],[],[],[],[],,912.4361,912.4362,0.559324844,0.316907814,0,0,0,,0,142,142,67,1,2,TL,quafily,cursive,quafily_c.png,,,,,,
,,,,32081,001,2025-10-21_15h23.01.545,HW_LDT_1,2024.2.4,MacIntel,59.88023952,,,,,,,,,,,,,,,,,,,,,,912.4372,912.6368,912.6368,913.1358,,,,,,,,,,,,,,1.4048,1,,,,,,,,,,,,,,m,,,,,,,,,,,,,,,,144,0,913.1363,914.5535,m,1,1.4048,,[],[],[],[],[],[],[],914.5535,916.5534,916.5534,916.5536,[],[],[],[],[],[],[],,916.5537,916.5537,0.559324844,0.316907814,0,0,0,,0,143,143,148,1,2,word,SALINE,cursive,saline_c.png,,,,,,
,,,,32081,001,2025-10-21_15h23.01.545,HW_LDT_1,2024.2.4,MacIntel,59.88023952,,,,,,,,,,,,,,,,,,,,,,916.5548,916.7525,916.7525,917.2524,,,,,,,,,,,,,,0.9399,1,,,,,,,,,,,,,,z,,,,,,,,,,,,,,,,145,0,917.2529,918.2035,z,1,0.9399,,[],[],[],[],[],[],[],918.2036,920.2034,920.2034,920.2036,[],[],[],[],[],[],[],,920.2036,920.2037,0.559324844,0.316907814,0,0,0,,0,144,144,59,1,2,TL,miskate,cursive,miskate_c.png,,,,,,
,,,,32081,001,2025-10-21_15h23.01.545,HW_LDT_1,2024.2.4,MacIntel,59.88023952,,,,,,,,,,,,,,,,,,,,,,920.2047,920.4024,920.4025,920.9028,,,,,,,,,,,,,,2.1401,1,,,,,,,,,,,,,,m,,,,,,,,,,,,,,,,146,0,920.9032,923.0534,m,1,2.1401,,[],[],[],[],[],[],[],923.0534,925.0535,925.0535,925.0538,[],[],[],[],[],[],[],,925.0538,925.0539,0.559074061,0.316907814,0,0,0,,0,145,145,131,1,2,word,POPULAR,cursive,popular_c.png,,,,,,
,,,,32081,001,2025-10-21_15h23.01.545,HW_LDT_1,2024.2.4,MacIntel,59.88023952,,,,,,,,,,,,,,,,,,,,,,925.055,925.2533,925.2533,925.7524,,,,,,,,,,,,,,0.9215,1,,,,,,,,,,,,,,m,,,,,,,,,,,,,,,,147,1,925.7529,926.6857,m,1,0.9215,,[],[],[],[],[],[],[],926.6858,928.6867,928.6868,931.5357,[],[],[],[],[],[],[],z,931.5359,931.5359,0.559074061,0.316907814,0,0,0,,0,146,146,93,1,2,word,CEREMONY,print,ceremony_p.png,2.8371,,,,,
,,,,32081,001,2025-10-21_15h23.01.545,HW_LDT_1,2024.2.4,MacIntel,59.88023952,,,,,,,,,,,,,,,,,,,,,,931.5368,931.7366,931.7367,932.2367,,,,,,,,,,,,,,2.4705,1,,,,,,,,,,,,,,z,,,,,,,,,,,,,,,,148,0,932.2372,934.7197,z,1,2.4705,,[],[],[],[],[],[],[],934.7198,936.7191,936.7191,936.7193,[],[],[],[],[],[],[],,936.7193,936.7194,0.559074061,0.316907814,0,0,0,,0,147,147,65,1,2,TL,polupar,cursive,polupar_c.png,,,,,,
,,,,32081,001,2025-10-21_15h23.01.545,HW_LDT_1,2024.2.4,MacIntel,59.88023952,,,,,,,,,,,,,,,,,,,,,,936.7206,936.9199,936.92,937.4199,,,,,,,,,,,,,,1.3371,1,,,,,,,,,,,,,,z,,,,,,,,,,,,,,,,149,0,937.4205,938.77,z,1,1.3371,,[],[],[],[],[],[],[],938.7701,940.769,940.769,940.7692,[],[],[],[],[],[],[],,940.7693,940.7693,0.559074061,0.316907814,0,0,0,,0,148,148,10,1,2,RL,disluge,cursive,disluge_c.png,,,,,,
,,,,32081,001,2025-10-21_15h23.01.545,HW_LDT_1,2024.2.4,MacIntel,59.88023952,,,,,,,,,,,,,,,,,,,,,,940.7705,940.9699,940.9699,941.4699,,,,,,,,,,,,,,0.8417,1,,,,,,,,,,,,,,z,,,,,,,,,,,,,,,,150,0,941.4704,942.3199,z,1,0.8417,,[],[],[],[],[],[],[],942.3199,944.3198,944.32,944.32,[],[],[],[],[],[],[],,944.32,944.3201,0.559074061,0.316907814,0,0,0,,0,149,149,17,1,2,RL,macise,cursive,macise_c.png,,,,,,
,,,,32081,001,2025-10-21_15h23.01.545,HW_LDT_1,2024.2.4,MacIntel,59.88023952,,,,,,,,,,,,,,,,,,,,,,944.3209,944.5198,944.5198,945.0199,,,,,,,,,,,,,,1.8573,1,,,,,,,,,,,,,,z,,,,,,,,,,,,,,,,151,0,945.0203,946.8857,z,1,1.8573,,[],[],[],[],[],[],[],946.8858,948.8865,948.8865,948.8867,[],[],[],[],[],[],[],,948.8867,948.8869,0.559074061,0.316907814,0,0,0,,0,150,150,46,1,2,TL,codemy,cursive,codemy_c.png,,,,,,
,,,,32081,001,2025-10-21_15h23.01.545,HW_LDT_1,2024.2.4,MacIntel,59.88023952,,,,,,,,,,,,,,,,,,,,,,948.8878,949.0857,949.0857,949.5856,,,,,,,,,,,,,,4.3714,1,,,,,,,,,,,,,,z,,,,,,,,,,,,,,,,152,0,949.5862,953.969,z,1,4.3714,,[],[],[],[],[],[],[],953.969,955.9698,955.9699,955.97,[],[],[],[],[],[],[],,955.9701,955.9703,0.559074061,0.317158596,0,0,0,,0,151,151,54,1,2,TL,liretal,cursive,liretal_c.png,,,,,,
,,,,32081,001,2025-10-21_15h23.01.545,HW_LDT_1,2024.2.4,MacIntel,59.88023952,,,,,,,,,,,,,,,,,,,,,,955.9713,956.169,956.169,956.6698,,,,,,,,,,,,,,1.3887,1,,,,,,,,,,,,,,z,,,,,,,,,,,,,,,,153,0,956.6704,958.069,z,1,1.3887,,[],[],[],[],[],[],[],958.069,960.069,960.0691,960.0692,[],[],[],[],[],[],[],,960.0693,960.0693,0.559074061,0.317158596,0,0,0,,0,152,152,62,1,2,TL,opmital,cursive,opmital_c.png,,,,,,
,,,,32081,001,2025-10-21_15h23.01.545,HW_LDT_1,2024.2.4,MacIntel,59.88023952,,,,,,,,,,,,,,,,,,,,,,960.0706,960.2698,960.2699,960.7697,,,,,,,,,,,,,,2.1036,1,,,,,,,,,,,,,,z,,,,,,,,,,,,,,,,154,0,960.7702,962.8865,z,1,2.1036,,[],[],[],[],[],[],[],962.8866,964.8865,964.8865,964.8867,[],[],[],[],[],[],[],,964.8867,964.8868,0.559074061,0.317158596,0,0,0,,0,153,153,20,1,2,RL,onegator,cursive,onegator_c.png,,,,,,
,,,,32081,001,2025-10-21_15h23.01.545,HW_LDT_1,2024.2.4,MacIntel,59.88023952,,,,,,,,,,,,,,,,,,,,,,964.8879,965.0856,965.0857,965.5864,,,,,,,,,,,,,,0.9541,1,,,,,,,,,,,,,,m,,,,,,,,,,,,,,,,155,0,965.5869,966.5531,m,1,0.9541,,[],[],[],[],[],[],[],966.5532,968.5522,968.5522,968.5524,[],[],[],[],[],[],[],,968.5524,968.5525,0.559074061,0.317158596,0,0,0,,0,154,154,130,1,2,word,POLICY,print,policy_p.png,,,,,,
,,,,32081,001,2025-10-21_15h23.01.545,HW_LDT_1,2024.2.4,MacIntel,59.88023952,,,,,,,,,,,,,,,,,,,,,,968.5536,968.7531,968.7533,969.2531,,,,,,,,,,,,,,0.7537,1,,,,,,,,,,,,,,z,,,,,,,,,,,,,,,,156,0,969.2536,970.0189,z,1,0.7537,,[],[],[],[],[],[],[],970.0191,972.0188,972.0188,972.019,[],[],[],[],[],[],[],,972.019,972.0191,0.559074061,0.317409378,0,0,0,,0,155,155,6,1,2,RL,conbicer,print,conbicer_p.png,,,,,,
,,,,32081,001,2025-10-21_15h23.01.545,HW_LDT_1,2024.2.4,MacIntel,59.88023952,,,,,,,,,,,,,,,,,,,,,,972.0202,972.2189,972.2189,972.7198,,,,,,,,,,,,,,1.9074,1,,,,,,,,,,,,,,m,,,,,,,,,,,,,,,,157,0,972.7203,974.6364,m,1,1.9074,,[],[],[],[],[],[],[],974.6365,976.6355,976.6355,976.6357,[],[],[],[],[],[],[],,976.6357,976.6358,0.559074061,0.317409378,0,0,0,,0,156,156,82,1,2,word,AMATEUR,cursive,amateur_c.png,,,,,,
,,,,32081,001,2025-10-21_15h23.01.545,HW_LDT_1,2024.2.4,MacIntel,59.88023952,,,,,,,,,,,,,,,,,,,,,,976.6369,976.8356,976.8356,977.3363,,,,,,,,,,,,,,2.403,1,,,,,,,,,,,,,,z,,,,,,,,,,,,,,,,158,1,977.3369,979.7522,z,1,2.403,,[],[],[],[],[],[],[],979.7523,981.7521,981.7522,982.7864,[],[],[],[],[],[],[],z,982.7865,982.7865,0.559074061,0.317409378,0,0,0,,0,157,157,69,1,2,TL,resufal,cursive,resufal_c.png,1.0224,,,,,
,,,,32081,001,2025-10-21_15h23.01.545,HW_LDT_1,2024.2.4,MacIntel,59.88023952,,,,,,,,,,,,,,,,,,,,,,982.7874,982.9863,982.9864,983.4863,,,,,,,,,,,,,,0.7705,1,,,,,,,,,,,,,,m,,,,,,,,,,,,,,,,159,0,983.4868,984.2696,m,1,0.7705,,[],[],[],[],[],[],[],984.2697,986.2697,986.2697,986.2699,[],[],[],[],[],[],[],,986.27,986.2701,0.559074061,0.317409378,0,0,0,,0,158,158,129,1,2,word,PARENT,print,parent_p.png,,,,,,
,,,,32081,001,2025-10-21_15h23.01.545,HW_LDT_1,2024.2.4,MacIntel,59.88023952,,,,,,,,,,,,,,,,,,,,,,986.2712,986.4696,986.4697,986.9688,,,,,,,,,,,,,,1.5966,1,,,,,,,,,,,,,,z,,,,,,,,,,,,,,,,160,0,986.9694,988.5693,z,1,1.5966,,[],[],[],[],[],[],[],988.5694,990.5697,990.5698,990.57,[],[],[],[],[],[],[],,990.57,990.5701,0.559074061,0.317409378,0,0,0,,0,159,159,24,1,2,RL,rasibal,cursive,rasibal_c.png,,,,,,
,,,,32081,001,2025-10-21_15h23.01.545,HW_LDT_1,2024.2.4,MacIntel,59.88023952,,,,,,,,,,,,,,,,,,,,,,,,,,,,,,,,,,,,,,,,,,,,,,,,,,,,,,,,,,,,,,,,,,,,,,,,,,,,,,,,,,,,,,,,,,,,,,,,,,,,,,,,,,,,,,,,,,,,,,,990.5789,995.5699
