counterbalance_lists.group,counterbalance_lists.remaining,get_list.started,get_list.stopped,participant,session,date,expName,psychopyVersion,OS,frameRate,Instructions.started,Instructions.stopped,key_resp.keys,instr_done_touch.x,instr_done_touch.y,instr_done_touch.leftButton,instr_done_touch.midButton,instr_done_touch.rightButton,instr_done_touch.clicked_name,start_instr.thisRepN,start_instr.thisTrialN,start_instr.thisN,start_instr.thisIndex,start_instr.ran,pageN,phase,instruct_text,has_image,instruct_image,key_resp.rt,key_resp.duration,showProgress.started,showProgress.stopped,fix.started,fix.stopped,prac.started,prac.stopped,response.keys,response.corr,response.rt,response.duration,touch_resp.x,touch_resp.y,touch_resp.leftButton,touch_resp.midButton,touch_resp.rightButton,touch_resp.time,touch_resp.clicked_name,rt,corr,feedback.started,feedback.stopped,trials.thisRepN,trials.thisTrialN,trials.thisN,trials.thisIndex,trials.ran,TrialID,StimulusType,Condition,PrimeDuration,Prime,Target,corrAns,Instructions_expt.started,Instructions_expt.stopped,key_resp_3.keys,key_resp_3.rt,key_resp_3.duration,instr_done_touch_3.x,instr_done_touch_3.y,instr_done_touch_3.leftButton,instr_done_touch_3.midButton,instr_done_touch_3.rightButton,instr_experiment.thisRepN,instr_experiment.thisTrialN,instr_experiment.thisN,instr_experiment.thisIndex,instr_experiment.ran,trialID,flag,maintask.started,maintask.stopped,key_resp_2.keys,key_resp_2.corr,key_resp_2.rt,key_resp_2.duration,targ_click.x,targ_click.y,targ_click.leftButton,targ_click.midButton,targ_click.rightButton,targ_click.time,targ_click.clicked_name,ITI.started,ITI.stopped,probe.started,probe.stopped,click_probe.x,click_probe.y,click_probe.leftButton,click_probe.midButton,click_probe.rightButton,click_probe.time,click_probe.clicked_name,key_resp_probe.keys,Break.started,Break.stopped,break_done_touch.x,break_done_touch.y,break_done_touch.leftButton,break_done_touch.midButton,break_done_touch.rightButton,break_done_keyboard.keys,list1_trials.thisRepN,list1_trials.thisTrialN,list1_trials.thisN,list1_trials.thisIndex,list1_trials.ran,list_id,item_type,string,font,stim_file,key_resp_probe.rt,key_resp_probe.duration,break_done_keyboard.rt,break_done_keyboard.duration,End.started,End.stopped
list1,,0.4163,0.4165,32094,001,2025-10-16_17h50.47.121,HW_LDT_1,2024.2.4,MacIntel,60.24096386,,,,,,,,,,,,,,,,,,,,,,,,,,,,,,,,,,,,,,,,,,,,,,,,,,,,,,,,,,,,,,,,,,,,,,,,,,,,,,,,,,,,,,,,,,,,,,,,,,,,,,,,,,,,,,,,,,,,,,,,
,,,,32094,001,2025-10-16_17h50.47.121,HW_LDT_1,2024.2.4,MacIntel,60.24096386,0.4373,13.054,,-0.082026999,-0.369584807,1,0,0,instr_done_button,0,0,0,0,1,1,instructions,"INSTRUCTIONS
At the start of each trial, look at the plus sign  (+) in the center of the screen.  This tells you that a trial is about to begin and where to look. Second, the plus sign will disappear and a string of letters will appear. Your task is to determine if the string of letters is a word or not. If the item is a word press the M key (on keyboard)  or touch the word button (phone/tablet).  If the item is not a word,  press the  Z key (on keyboard)  or touch the nonword button (on phone/tablet). The items will be presented for a short time. 
Press the space bar or touch  continue.",0,,,,,,,,,,,,,,,,,,,,,,,,,,,,,,,,,,,,,,,,,,,,,,,,,,,,,,,,,,,,,,,,,,,,,,,,,,,,,,,,,,,,,,,,,,,,,,,,,,,,,,
,,,,32094,001,2025-10-16_17h50.47.121,HW_LDT_1,2024.2.4,MacIntel,60.24096386,13.0552,25.2888,space,-0.062555257,-0.068404006,0,0,0,,0,1,1,1,1,2,instructions,"If your device has a keyboard, press the 'Z' key for nonwords and the 'M' key for words.





Press the space bar or touch the button below to continue.",0,keyboard-example.gif,12.2002,,,,,,,,,,,,,,,,,,,,,,,,,,,,,,,,,,,,,,,,,,,,,,,,,,,,,,,,,,,,,,,,,,,,,,,,,,,,,,,,,,,,,,,,,,,,,,,,,,,,
,,,,32094,001,2025-10-16_17h50.47.121,HW_LDT_1,2024.2.4,MacIntel,60.24096386,25.2907,27.4865,space,-0.062555257,-0.068404006,0,0,0,,0,2,2,2,1,3,instructions,"If you are using a touchscreen only device, use the buttons on the screen. Do not use the mouse.





Press the space bar or touch the button below to continue.",0,touchscreen-example.gif,2.1479,,,,,,,,,,,,,,,,,,,,,,,,,,,,,,,,,,,,,,,,,,,,,,,,,,,,,,,,,,,,,,,,,,,,,,,,,,,,,,,,,,,,,,,,,,,,,,,,,,,,
,,,,32094,001,2025-10-16_17h50.47.121,HW_LDT_1,2024.2.4,MacIntel,60.24096386,27.4881,33.3854,space,-0.062555257,-0.068404006,0,0,0,,0,3,3,3,1,4,instructions,"It is very important that you respond as quickly and accurately as possible, as each letter string will only be on the screen for two seconds. If you do not respond within this time, the message 'Too slow!' will be displayed and the experiment will progress to the next letter string. The first 20 trials will be practice trials and you will receive feedback on your answers. 

Press the space bar or touch the button below to start the practice trials.",0,,5.8775,,,,,,,,,,,,,,,,,,,,,,,,,,,,,,,,,,,,,,,,,,,,,,,,,,,,,,,,,,,,,,,,,,,,,,,,,,,,,,,,,,,,,,,,,,,,,,,,,,,,
,,,,32094,001,2025-10-16_17h50.47.121,HW_LDT_1,2024.2.4,MacIntel,60.24096386,,,,,,,,,,,,,,,,,,,,,,33.403,33.5867,33.587,34.0868,34.0872,37.9867,z,1,3.8712,,[],[],[],[],[],[],[],3.8712,1,37.9872,38.4865,0,0,0,10,1,1011,NW,"ID",16,inlade,INLADE,z,,,,,,,,,,,,,,,,,,,,,,,,,,,,,,,,,,,,,,,,,,,,,,,,,,,,,,,,,,,,,,,,,,
,,,,32094,001,2025-10-16_17h50.47.121,HW_LDT_1,2024.2.4,MacIntel,60.24096386,,,,,,,,,,,,,,,,,,,,,,38.4884,38.6862,38.6862,39.1857,39.1862,40.3687,m,1,1.1644,,[],[],[],[],[],[],[],1.1644,1,40.369,40.8695,0,1,1,3,1,1004,WORD,"ID",16,matrix,MATRIX,m,,,,,,,,,,,,,,,,,,,,,,,,,,,,,,,,,,,,,,,,,,,,,,,,,,,,,,,,,,,,,,,,,,
,,,,32094,001,2025-10-16_17h50.47.121,HW_LDT_1,2024.2.4,MacIntel,60.24096386,,,,,,,,,,,,,,,,,,,,,,40.8711,41.0696,41.0696,41.569,41.5698,43.7359,z,1,2.1502,,[],[],[],[],[],[],[],2.1502,1,43.7359,44.236,0,2,2,9,1,1010,NW,"ID",33,fariny,FARINY,z,,,,,,,,,,,,,,,,,,,,,,,,,,,,,,,,,,,,,,,,,,,,,,,,,,,,,,,,,,,,,,,,,,
,,,,32094,001,2025-10-16_17h50.47.121,HW_LDT_1,2024.2.4,MacIntel,60.24096386,,,,,,,,,,,,,,,,,,,,,,44.2377,44.4346,44.4347,44.9359,44.9371,45.9527,m,1,1.0004,,[],[],[],[],[],[],[],1.0004,1,45.9529,46.4525,0,3,3,5,1,1006,WORD,UN,33,frenzy,OBTAIN,m,,,,,,,,,,,,,,,,,,,,,,,,,,,,,,,,,,,,,,,,,,,,,,,,,,,,,,,,,,,,,,,,,,
,,,,32094,001,2025-10-16_17h50.47.121,HW_LDT_1,2024.2.4,MacIntel,60.24096386,,,,,,,,,,,,,,,,,,,,,,46.4543,46.6526,46.6526,47.1523,47.1536,48.2857,z,1,1.1165,,[],[],[],[],[],[],[],1.1165,1,48.2859,48.786,0,4,4,12,1,1013,NW,UN,33,adveil,SPRINY,z,,,,,,,,,,,,,,,,,,,,,,,,,,,,,,,,,,,,,,,,,,,,,,,,,,,,,,,,,,,,,,,,,,
,,,,32094,001,2025-10-16_17h50.47.121,HW_LDT_1,2024.2.4,MacIntel,60.24096386,,,,,,,,,,,,,,,,,,,,,,48.7875,48.9857,48.9858,49.4856,49.4866,50.6688,z,1,1.1616,,[],[],[],[],[],[],[],1.1616,1,50.669,51.1692,0,5,5,8,1,1009,NW,"ID",33,aslert,ASLERT,z,,,,,,,,,,,,,,,,,,,,,,,,,,,,,,,,,,,,,,,,,,,,,,,,,,,,,,,,,,,,,,,,,,
,,,,32094,001,2025-10-16_17h50.47.121,HW_LDT_1,2024.2.4,MacIntel,60.24096386,,,,,,,,,,,,,,,,,,,,,,51.1708,51.3689,51.369,51.8689,51.87,52.8026,m,1,0.9115,,[],[],[],[],[],[],[],0.9115,1,52.8027,53.3024,0,6,6,0,1,1001,WORD,"ID",33,utopia,UTOPIA,m,,,,,,,,,,,,,,,,,,,,,,,,,,,,,,,,,,,,,,,,,,,,,,,,,,,,,,,,,,,,,,,,,,
,,,,32094,001,2025-10-16_17h50.47.121,HW_LDT_1,2024.2.4,MacIntel,60.24096386,,,,,,,,,,,,,,,,,,,,,,53.304,53.5022,53.5024,54.0023,54.0037,54.9024,z,1,0.8767,,[],[],[],[],[],[],[],0.8767,1,54.9026,55.4017,0,7,7,13,1,1014,NW,UN,33,winfer,ROUPET,z,,,,,,,,,,,,,,,,,,,,,,,,,,,,,,,,,,,,,,,,,,,,,,,,,,,,,,,,,,,,,,,,,,
,,,,32094,001,2025-10-16_17h50.47.121,HW_LDT_1,2024.2.4,MacIntel,60.24096386,,,,,,,,,,,,,,,,,,,,,,55.4038,55.6022,55.6024,56.1021,56.1033,56.8188,m,1,0.6954,,[],[],[],[],[],[],[],0.6954,1,56.8189,57.3189,0,8,8,4,1,1005,WORD,UN,33,abound,SQUEAK,m,,,,,,,,,,,,,,,,,,,,,,,,,,,,,,,,,,,,,,,,,,,,,,,,,,,,,,,,,,,,,,,,,,
,,,,32094,001,2025-10-16_17h50.47.121,HW_LDT_1,2024.2.4,MacIntel,60.24096386,,,,,,,,,,,,,,,,,,,,,,57.3205,57.5179,57.518,58.0177,58.0193,58.8183,m,1,0.7788,,[],[],[],[],[],[],[],0.7788,1,58.8184,59.3179,0,9,9,7,1,1008,WORD,UN,16,hurdle,VOLUME,m,,,,,,,,,,,,,,,,,,,,,,,,,,,,,,,,,,,,,,,,,,,,,,,,,,,,,,,,,,,,,,,,,,
,,,,32094,001,2025-10-16_17h50.47.121,HW_LDT_1,2024.2.4,MacIntel,60.24096386,,,,,,,,,,,,,,,,,,,,,,59.3196,59.5186,59.5186,60.0187,60.0198,60.9186,z,1,0.8814,,[],[],[],[],[],[],[],0.8814,1,60.9188,61.4187,0,10,10,11,1,1012,NW,"ID",16,rashet,RASHET,z,,,,,,,,,,,,,,,,,,,,,,,,,,,,,,,,,,,,,,,,,,,,,,,,,,,,,,,,,,,,,,,,,,
,,,,32094,001,2025-10-16_17h50.47.121,HW_LDT_1,2024.2.4,MacIntel,60.24096386,,,,,,,,,,,,,,,,,,,,,,61.4204,61.6185,61.6186,62.1179,62.1192,62.9352,m,1,0.7935,,[],[],[],[],[],[],[],0.7935,1,62.9355,63.4353,0,11,11,1,1,1002,WORD,"ID",33,adjust,ADJUST,m,,,,,,,,,,,,,,,,,,,,,,,,,,,,,,,,,,,,,,,,,,,,,,,,,,,,,,,,,,,,,,,,,,
,,,,32094,001,2025-10-16_17h50.47.121,HW_LDT_1,2024.2.4,MacIntel,60.24096386,,,,,,,,,,,,,,,,,,,,,,63.4367,63.6341,63.6342,64.1348,64.1358,64.9016,z,1,0.7511,,[],[],[],[],[],[],[],0.7511,1,64.9018,65.4017,0,12,12,15,1,1016,NW,UN,16,mushed,WHAISE,z,,,,,,,,,,,,,,,,,,,,,,,,,,,,,,,,,,,,,,,,,,,,,,,,,,,,,,,,,,,,,,,,,,
,,,,32094,001,2025-10-16_17h50.47.121,HW_LDT_1,2024.2.4,MacIntel,60.24096386,,,,,,,,,,,,,,,,,,,,,,65.404,65.6016,65.6016,66.1016,66.1029,66.7684,m,1,0.644,,[],[],[],[],[],[],[],0.644,1,66.7685,67.2679,0,13,13,6,1,1007,WORD,UN,16,tropic,ZOMBIE,m,,,,,,,,,,,,,,,,,,,,,,,,,,,,,,,,,,,,,,,,,,,,,,,,,,,,,,,,,,,,,,,,,,
,,,,32094,001,2025-10-16_17h50.47.121,HW_LDT_1,2024.2.4,MacIntel,60.24096386,,,,,,,,,,,,,,,,,,,,,,67.2697,67.468,67.4681,67.9682,67.9693,68.8015,z,1,0.8181,,[],[],[],[],[],[],[],0.8181,1,68.8017,69.3016,0,14,14,14,1,1015,NW,UN,16,miaber,THRALE,z,,,,,,,,,,,,,,,,,,,,,,,,,,,,,,,,,,,,,,,,,,,,,,,,,,,,,,,,,,,,,,,,,,
,,,,32094,001,2025-10-16_17h50.47.121,HW_LDT_1,2024.2.4,MacIntel,60.24096386,,,,,,,,,,,,,,,,,,,,,,69.3034,69.5008,69.5009,70.0011,70.0023,70.8513,m,1,0.8296,,[],[],[],[],[],[],[],0.8296,1,70.8513,71.3512,0,15,15,2,1,1003,WORD,"ID",16,almond,ALMOND,m,,,,,,,,,,,,,,,,,,,,,,,,,,,,,,,,,,,,,,,,,,,,,,,,,,,,,,,,,,,,,,,,,,
,,,,32094,001,2025-10-16_17h50.47.121,HW_LDT_1,2024.2.4,MacIntel,60.24096386,,,,,,,,,,,,,,,1,end_of_practice,"You have completed the practice trials. During the experimental trials, you will not receive feedback. On some trials you will be asked to report whether the item you just saw was in cursive or print. 
Before you begin, please ensure that you are in a comfortable and quiet location and will not be disturbed for about 15 minutes, as we cannot use your data if you do not complete all the trials. 
 When you are ready to start the experimental trials, please press space or touch the button below.",,,,,,,,,,,,,,,,,,,,,,,,,,,,,,,,,,,,,,71.3543,81.6522,space,10.2689,,-0.062555257,-0.068404006,0,0,0,0,0,0,0,1,,,,,,,,,,,,,,,,,,,,,,,,,,,,,,,,,,,,,,,,,,,,,,,,,,,
,,,,32094,001,2025-10-16_17h50.47.121,HW_LDT_1,2024.2.4,MacIntel,60.24096386,,,,,,,,,,,,,,,,,,,,,,81.661,81.8511,81.8512,82.3503,,,,,,,,,,,,,,5.768,1,,,,,,,,,,,,,,z,,,,,,,,,,,,,,,,1,0,82.3526,88.1337,z,1,5.768,,[],[],[],[],[],[],[],88.134,90.1345,90.1349,90.1381,[],[],[],[],[],[],[],,90.1382,90.1396,-0.062555257,-0.068404006,0,0,0,,0,0,0,73,1,1,TL,ronamtic,cursive,ronamtic_c.png,,,,,,
,,,,32094,001,2025-10-16_17h50.47.121,HW_LDT_1,2024.2.4,MacIntel,60.24096386,,,,,,,,,,,,,,,,,,,,,,90.1405,90.3341,90.3341,90.834,,,,,,,,,,,,,,2.1276,1,,,,,,,,,,,,,,m,,,,,,,,,,,,,,,,2,0,90.8348,92.9676,m,1,2.1276,,[],[],[],[],[],[],[],92.9677,94.9672,94.9673,94.9677,[],[],[],[],[],[],[],,94.9677,94.9679,-0.062555257,-0.068404006,0,0,0,,0,1,1,116,1,1,word,MARGINAL,print,marginal_p.png,,,,,,
,,,,32094,001,2025-10-16_17h50.47.121,HW_LDT_1,2024.2.4,MacIntel,60.24096386,,,,,,,,,,,,,,,,,,,,,,94.9697,95.1669,95.167,95.6671,,,,,,,,,,,,,,1.0442,1,,,,,,,,,,,,,,z,,,,,,,,,,,,,,,,3,0,95.6679,96.7171,z,1,1.0442,,[],[],[],[],[],[],[],96.7171,98.7171,98.7171,98.7177,[],[],[],[],[],[],[],,98.7177,98.7178,-0.062555257,-0.068404006,0,0,0,,0,2,2,7,1,1,RL,delahe,print,delahe_p.png,,,,,,
,,,,32094,001,2025-10-16_17h50.47.121,HW_LDT_1,2024.2.4,MacIntel,60.24096386,,,,,,,,,,,,,,,,,,,,,,98.7196,98.9165,98.9165,99.4171,,,,,,,,,,,,,,1.6224,1,,,,,,,,,,,,,,z,,,,,,,,,,,,,,,,4,0,99.4178,101.0503,z,1,1.6224,,[],[],[],[],[],[],[],101.0504,103.0494,103.0494,103.0498,[],[],[],[],[],[],[],,103.0499,103.05,-0.062555257,-0.068404006,0,0,0,,0,3,3,56,1,1,TL,grafetul,print,grafetul_p.png,,,,,,
,,,,32094,001,2025-10-16_17h50.47.121,HW_LDT_1,2024.2.4,MacIntel,60.24096386,,,,,,,,,,,,,,,,,,,,,,103.0511,103.2502,103.2504,103.7503,,,,,,,,,,,,,,1.0406,1,,,,,,,,,,,,,,z,,,,,,,,,,,,,,,,5,0,103.7509,104.8004,z,1,1.0406,,[],[],[],[],[],[],[],104.8005,106.8002,106.8003,106.8006,[],[],[],[],[],[],[],,106.8007,106.8009,-0.062555257,-0.068404006,0,0,0,,0,4,4,37,1,1,RL,skofen,print,skofen_p.png,,,,,,
,,,,32094,001,2025-10-16_17h50.47.121,HW_LDT_1,2024.2.4,MacIntel,60.24096386,,,,,,,,,,,,,,,,,,,,,,106.8026,107.0001,107.0001,107.5002,,,,,,,,,,,,,,2.1061,1,,,,,,,,,,,,,,z,,,,,,,,,,,,,,,,6,0,107.501,109.6166,z,1,2.1061,,[],[],[],[],[],[],[],109.6168,111.6166,111.6168,111.6172,[],[],[],[],[],[],[],,111.6174,111.6176,-0.062555257,-0.068404006,0,0,0,,0,5,5,35,1,1,RL,senvilent,cursive,senvilent_c.png,,,,,,
,,,,32094,001,2025-10-16_17h50.47.121,HW_LDT_1,2024.2.4,MacIntel,60.24096386,,,,,,,,,,,,,,,,,,,,,,111.6191,111.8166,111.8167,112.3166,,,,,,,,,,,,,,4.7376,1,,,,,,,,,,,,,,z,,,,,,,,,,,,,,,,7,0,112.3174,117.0663,z,1,4.7376,,[],[],[],[],[],[],[],117.0663,119.0663,119.0664,119.0668,[],[],[],[],[],[],[],,119.0668,119.067,-0.062555257,-0.068404006,0,0,0,,0,6,6,69,1,1,TL,radiply,cursive,radiply_c.png,,,,,,
,,,,32094,001,2025-10-16_17h50.47.121,HW_LDT_1,2024.2.4,MacIntel,60.24096386,,,,,,,,,,,,,,,,,,,,,,119.0686,119.2662,119.2663,119.7662,,,,,,,,,,,,,,5.4977,1,,,,,,,,,,,,,,z,,,,,,,,,,,,,,,,8,0,119.767,125.2663,z,1,5.4977,,[],[],[],[],[],[],[],125.2666,127.2661,127.2662,127.2667,[],[],[],[],[],[],[],,127.2668,127.2668,-0.062555257,-0.068404006,0,0,0,,0,7,7,57,1,1,TL,hetirage,cursive,hetirage_c.png,,,,,,
,,,,32094,001,2025-10-16_17h50.47.121,HW_LDT_1,2024.2.4,MacIntel,60.24096386,,,,,,,,,,,,,,,,,,,,,,127.269,127.4661,127.4662,127.966,,,,,,,,,,,,,,1.0966,1,,,,,,,,,,,,,,z,,,,,,,,,,,,,,,,9,0,127.9668,129.0658,z,1,1.0966,,[],[],[],[],[],[],[],129.0658,131.0658,131.0661,131.0666,[],[],[],[],[],[],[],,131.0667,131.0669,-0.062555257,-0.068404006,0,0,0,,0,8,8,60,1,1,TL,manire,print,manire_p.png,,,,,,
,,,,32094,001,2025-10-16_17h50.47.121,HW_LDT_1,2024.2.4,MacIntel,60.24096386,,,,,,,,,,,,,,,,,,,,,,131.0679,131.2658,131.2659,131.7656,,,,,,,,,,,,,,7.5706,1,,,,,,,,,,,,,,m,,,,,,,,,,,,,,,,10,0,131.7671,139.3488,m,1,7.5706,,[],[],[],[],[],[],[],139.3489,141.3479,141.3479,141.3483,[],[],[],[],[],[],[],,141.3484,141.3487,-0.062555257,-0.068404006,0,0,0,,0,9,9,150,1,1,word,SENTIMENT,cursive,sentiment_c.png,,,,,,
,,,,32094,001,2025-10-16_17h50.47.121,HW_LDT_1,2024.2.4,MacIntel,60.24096386,,,,,,,,,,,,,,,,,,,,,,141.35,141.5486,141.5487,142.0486,,,,,,,,,,,,,,1.48,1,,,,,,,,,,,,,,m,,,,,,,,,,,,,,,,11,0,142.0497,143.5313,m,1,1.48,,[],[],[],[],[],[],[],143.5314,145.5314,145.5315,145.5318,[],[],[],[],[],[],[],,145.5318,145.5321,-0.062555257,-0.068404006,0,0,0,,0,10,10,113,1,1,word,LITERAL,print,literal_p.png,,,,,,
,,,,32094,001,2025-10-16_17h50.47.121,HW_LDT_1,2024.2.4,MacIntel,60.24096386,,,,,,,,,,,,,,,,,,,,,,145.5338,145.7312,145.7312,146.2318,,,,,,,,,,,,,,1.0065,1,,,,,,,,,,,,,,z,,,,,,,,,,,,,,,,12,0,146.233,147.2485,z,1,1.0065,,[],[],[],[],[],[],[],147.2486,149.2483,149.2483,149.2487,[],[],[],[],[],[],[],,149.2488,149.249,-0.062555257,-0.068404006,0,0,0,,0,11,11,5,1,1,RL,cobeny,cursive,cobeny_c.png,,,,,,
,,,,32094,001,2025-10-16_17h50.47.121,HW_LDT_1,2024.2.4,MacIntel,60.24096386,,,,,,,,,,,,,,,,,,,,,,149.2508,149.448,149.448,149.9482,,,,,,,,,,,,,,1.1701,1,,,,,,,,,,,,,,m,,,,,,,,,,,,,,,,13,0,149.9494,151.1317,m,1,1.1701,,[],[],[],[],[],[],[],151.1317,153.1314,153.1315,153.132,[],[],[],[],[],[],[],,153.132,153.1322,-0.062555257,-0.068404006,0,0,0,,0,12,12,123,1,1,word,MODERATE,print,moderate_p.png,,,,,,
,,,,32094,001,2025-10-16_17h50.47.121,HW_LDT_1,2024.2.4,MacIntel,60.24096386,,,,,,,,,,,,,,,,,,,,,,153.1344,153.3316,153.3316,153.8314,,,,,,,,,,,,,,1.5892,1,,,,,,,,,,,,,,m,,,,,,,,,,,,,,,,14,0,153.8322,155.4317,m,1,1.5892,,[],[],[],[],[],[],[],155.4319,157.4314,157.4314,157.4318,[],[],[],[],[],[],[],,157.4318,157.4323,-0.062555257,-0.068404006,0,0,0,,0,13,13,141,1,1,word,RELIGION,cursive,religion_c.png,,,,,,
,,,,32094,001,2025-10-16_17h50.47.121,HW_LDT_1,2024.2.4,MacIntel,60.24096386,,,,,,,,,,,,,,,,,,,,,,157.4339,157.6312,157.6313,158.131,,,,,,,,,,,,,,1.6915,1,,,,,,,,,,,,,,m,,,,,,,,,,,,,,,,15,0,158.1312,159.8313,m,1,1.6915,,[],[],[],[],[],[],[],159.8314,161.8311,161.8313,161.8315,[],[],[],[],[],[],[],,161.8316,161.8318,-0.062555257,-0.068404006,0,0,0,,0,14,14,127,1,1,word,ORIGINAL,cursive,original_c.png,,,,,,
,,,,32094,001,2025-10-16_17h50.47.121,HW_LDT_1,2024.2.4,MacIntel,60.24096386,,,,,,,,,,,,,,,,,,,,,,161.8333,162.0311,162.0311,162.5311,,,,,,,,,,,,,,2.6765,1,,,,,,,,,,,,,,m,,,,,,,,,,,,,,,,16,1,162.5318,165.2144,m,1,2.6765,,[],[],[],[],[],[],[],165.2146,167.2138,167.2139,170.031,[],[],[],[],[],[],[],z,170.0311,170.0313,-0.062555257,-0.068404006,0,0,0,,0,15,15,81,1,1,word,ADVISORY,cursive,advisory_c.png,2.8097,,,,,
,,,,32094,001,2025-10-16_17h50.47.121,HW_LDT_1,2024.2.4,MacIntel,60.24096386,,,,,,,,,,,,,,,,,,,,,,170.0326,170.2308,170.2309,170.7309,,,,,,,,,,,,,,3.5908,1,,,,,,,,,,,,,,m,,,,,,,,,,,,,,,,17,0,170.7317,174.3305,m,1,3.5908,,[],[],[],[],[],[],[],174.3306,176.3306,176.3306,176.331,[],[],[],[],[],[],[],,176.3311,176.3313,-0.062555257,-0.068404006,0,0,0,,0,16,16,145,1,1,word,RESUME,print,resume_p.png,,,,,,
,,,,32094,001,2025-10-16_17h50.47.121,HW_LDT_1,2024.2.4,MacIntel,60.24096386,,,,,,,,,,,,,,,,,,,,,,176.3329,176.5309,176.531,177.0307,,,,,,,,,,,,,,1.1944,1,,,,,,,,,,,,,,m,,,,,,,,,,,,,,,,18,0,177.0313,178.231,m,1,1.1944,,[],[],[],[],[],[],[],178.2313,180.2305,180.2308,180.2311,[],[],[],[],[],[],[],,180.2312,180.2313,-0.062555257,-0.068404006,0,0,0,,0,17,17,80,1,1,word,ACADEMY,cursive,academy_c.png,,,,,,
,,,,32094,001,2025-10-16_17h50.47.121,HW_LDT_1,2024.2.4,MacIntel,60.24096386,,,,,,,,,,,,,,,,,,,,,,180.2331,180.4306,180.4306,180.9304,,,,,,,,,,,,,,3.4877,1,,,,,,,,,,,,,,z,,,,,,,,,,,,,,,,19,1,180.9318,184.4311,z,1,3.4877,,[],[],[],[],[],[],[],184.4316,186.4302,186.4305,187.9465,[],[],[],[],[],[],[],z,187.9466,187.9467,-0.062555257,-0.068404006,0,0,0,,0,18,18,44,1,1,TL,cateferia,cursive,cateferia_c.png,1.5106,,,,,
,,,,32094,001,2025-10-16_17h50.47.121,HW_LDT_1,2024.2.4,MacIntel,60.24096386,,,,,,,,,,,,,,,,,,,,,,187.9482,188.1468,188.1468,188.6469,,,,,,,,,,,,,,1.1746,1,,,,,,,,,,,,,,z,,,,,,,,,,,,,,,,20,1,188.6477,189.8313,z,1,1.1746,,[],[],[],[],[],[],[],189.8313,191.83,191.8301,192.9637,[],[],[],[],[],[],[],z,192.9638,192.9639,-0.062555257,-0.068404006,0,0,0,,0,19,19,26,1,1,RL,quafidy,cursive,quafidy_c.png,1.1267,,,,,
,,,,32094,001,2025-10-16_17h50.47.121,HW_LDT_1,2024.2.4,MacIntel,60.24096386,,,,,,,,,,,,,,,,,,,,,,192.9654,193.1632,193.1633,193.6632,,,,,,,,,,,,,,0.9912,1,,,,,,,,,,,,,,z,,,,,,,,,,,,,,,,21,1,193.664,194.6636,z,1,0.9912,,[],[],[],[],[],[],[],194.6637,196.6631,196.6632,197.6634,[],[],[],[],[],[],[],m,197.6635,197.6638,-0.062555257,-0.068404006,0,0,0,,0,20,20,55,1,1,TL,fornute,print,fornute_p.png,0.9925,,,,,
,,,,32094,001,2025-10-16_17h50.47.121,HW_LDT_1,2024.2.4,MacIntel,60.24096386,,,,,,,,,,,,,,,,,,,,,,197.6653,197.8629,197.863,198.363,,,,,,,,,,,,,,6.1427,0,,,,,,,,,,,,,,m,,,,,,,,,,,,,,,,22,0,198.3637,204.5121,z,0,6.1427,,[],[],[],[],[],[],[],204.5122,206.5129,206.513,206.5132,[],[],[],[],[],[],[],,206.5133,206.5134,-0.062555257,-0.068404006,0,0,0,,0,21,21,140,1,1,word,RELATIVE,cursive,relative_c.png,,,,,,
,,,,32094,001,2025-10-16_17h50.47.121,HW_LDT_1,2024.2.4,MacIntel,60.24096386,,,,,,,,,,,,,,,,,,,,,,206.5149,206.7118,206.7118,207.2124,,,,,,,,,,,,,,1.2257,1,,,,,,,,,,,,,,z,,,,,,,,,,,,,,,,23,0,207.2131,208.4457,z,1,1.2257,,[],[],[],[],[],[],[],208.4458,210.4463,210.4464,210.4466,[],[],[],[],[],[],[],,210.4466,210.4468,-0.062555257,-0.068404006,0,0,0,,0,22,22,2,1,1,RL,asiral,print,asiral_p.png,,,,,,
,,,,32094,001,2025-10-16_17h50.47.121,HW_LDT_1,2024.2.4,MacIntel,60.24096386,,,,,,,,,,,,,,,,,,,,,,210.4481,210.6452,210.6453,211.1455,,,,,,,,,,,,,,4.1287,1,,,,,,,,,,,,,,z,,,,,,,,,,,,,,,,24,0,211.1458,215.2794,z,1,4.1287,,[],[],[],[],[],[],[],215.2795,217.279,217.2791,217.2793,[],[],[],[],[],[],[],,217.2794,217.2796,-0.062555257,-0.068404006,0,0,0,,0,23,23,75,1,1,TL,speficic,cursive,speficic_c.png,,,,,,
,,,,32094,001,2025-10-16_17h50.47.121,HW_LDT_1,2024.2.4,MacIntel,60.24096386,,,,,,,,,,,,,,,,,,,,,,217.2813,217.479,217.4792,217.9782,,,,,,,,,,,,,,1.5769,1,,,,,,,,,,,,,,m,,,,,,,,,,,,,,,,25,1,217.9788,219.5637,m,1,1.5769,,[],[],[],[],[],[],[],219.5638,221.5621,221.5623,222.7793,[],[],[],[],[],[],[],m,222.7795,222.7795,-0.062555257,-0.068404006,0,0,0,,0,24,24,106,1,1,word,ELABORATE,print,elaborate_p.png,1.2153,,,,,
,,,,32094,001,2025-10-16_17h50.47.121,HW_LDT_1,2024.2.4,MacIntel,60.24096386,,,,,,,,,,,,,,,,,,,,,,222.7807,222.9785,222.9786,223.4782,,,,,,,,,,,,,,7.4597,1,,,,,,,,,,,,,,z,,,,,,,,,,,,,,,,26,0,223.4788,230.9468,z,1,7.4597,,[],[],[],[],[],[],[],230.9468,232.9451,232.9452,232.9454,[],[],[],[],[],[],[],,232.9454,232.9455,-0.062555257,-0.068404006,0,0,0,,0,25,25,65,1,1,TL,orinigal,cursive,orinigal_c.png,,,,,,
,,,,32094,001,2025-10-16_17h50.47.121,HW_LDT_1,2024.2.4,MacIntel,60.24096386,,,,,,,,,,,,,,,,,,,,,,232.9469,233.1449,233.1449,233.6448,,,,,,,,,,,,,,5.9545,1,,,,,,,,,,,,,,z,,,,,,,,,,,,,,,,27,0,233.6459,239.6115,z,1,5.9545,,[],[],[],[],[],[],[],239.6115,241.6115,241.6117,241.6119,[],[],[],[],[],[],[],,241.612,241.6121,-0.062555257,-0.068404006,0,0,0,,0,26,26,18,1,1,RL,mishafe,print,mishafe_p.png,,,,,,
,,,,32094,001,2025-10-16_17h50.47.121,HW_LDT_1,2024.2.4,MacIntel,60.24096386,,,,,,,,,,,,,,,,,,,,,,241.6138,241.8115,241.8116,242.3114,,,,,,,,,,,,,,3.1021,1,,,,,,,,,,,,,,m,,,,,,,,,,,,,,,,28,0,242.3122,245.4276,m,1,3.1021,,[],[],[],[],[],[],[],245.4277,247.4272,247.4272,247.4275,[],[],[],[],[],[],[],,247.4276,247.4278,-0.062555257,-0.068404006,0,0,0,,0,27,27,107,1,1,word,EVIDENT,print,evident_p.png,,,,,,
,,,,32094,001,2025-10-16_17h50.47.121,HW_LDT_1,2024.2.4,MacIntel,60.24096386,,,,,,,,,,,,,,,,,,,,,,247.4298,247.6279,247.6281,248.1276,,,,,,,,,,,,,,1.5604,1,,,,,,,,,,,,,,z,,,,,,,,,,,,,,,,29,0,248.1286,249.694,z,1,1.5604,,[],[],[],[],[],[],[],249.6941,251.6942,251.6942,251.6947,[],[],[],[],[],[],[],,251.6948,251.6949,-0.062555257,-0.068404006,0,0,0,,0,28,28,27,1,1,RL,rasibal,print,rasibal_p.png,,,,,,
,,,,32094,001,2025-10-16_17h50.47.121,HW_LDT_1,2024.2.4,MacIntel,60.24096386,,,,,,,,,,,,,,,,,,,,,,251.6964,251.8941,251.8942,252.3941,,,,,,,,,,,,,,2.8092,1,,,,,,,,,,,,,,z,,,,,,,,,,,,,,,,30,1,252.3951,255.2105,z,1,2.8092,,[],[],[],[],[],[],[],255.2105,257.2105,257.2106,259.0266,[],[],[],[],[],[],[],m,259.0268,259.0269,-0.062555257,-0.068404006,0,0,0,,0,29,29,64,1,1,TL,orepator,cursive,orepator_c.png,1.8133,,,,,
,,,,32094,001,2025-10-16_17h50.47.121,HW_LDT_1,2024.2.4,MacIntel,60.24096386,,,,,,,,,,,,,,,,,,,,,,259.0285,259.2272,259.2273,259.7271,,,,,,,,,,,,,,1.0941,1,,,,,,,,,,,,,,z,,,,,,,,,,,,,,,,31,0,259.7278,260.8266,z,1,1.0941,,[],[],[],[],[],[],[],260.8267,262.827,262.8271,262.8272,[],[],[],[],[],[],[],,262.8273,262.8274,-0.062555257,-0.068404006,0,0,0,,0,30,30,28,1,1,RL,renutal,print,renutal_p.png,,,,,,
,,,,32094,001,2025-10-16_17h50.47.121,HW_LDT_1,2024.2.4,MacIntel,60.24096386,,,,,,,,,,,,,,,,,,,,,,262.8286,263.0271,263.0271,263.5271,,,,,,,,,,,,,,1.1461,1,,,,,,,,,,,,,,m,,,,,,,,,,,,,,,,32,0,263.5276,264.6767,m,1,1.1461,,[],[],[],[],[],[],[],264.6767,266.6769,266.677,266.6772,[],[],[],[],[],[],[],,266.6773,266.6774,-0.062555257,-0.068404006,0,0,0,,0,31,31,98,1,1,word,CRIMINAL,print,criminal_p.png,,,,,,
,,,,32094,001,2025-10-16_17h50.47.121,HW_LDT_1,2024.2.4,MacIntel,60.24096386,,,,,,,,,,,,,,,,,,,,,,266.6788,266.8769,266.877,267.3769,,,,,,,,,,,,,,3.6416,1,,,,,,,,,,,,,,z,,,,,,,,,,,,,,,,33,1,267.3775,271.0267,z,1,3.6416,,[],[],[],[],[],[],[],271.0268,273.0266,273.0267,274.5433,[],[],[],[],[],[],[],z,274.5434,274.5436,-0.062555257,-0.068404006,0,0,0,,0,32,32,77,1,1,TL,tritube,cursive,tritube_c.png,1.5129,,,,,
,,,,32094,001,2025-10-16_17h50.47.121,HW_LDT_1,2024.2.4,MacIntel,60.24096386,,,,,,,,,,,,,,,,,,,,,,274.5451,274.7423,274.7423,275.2432,,,,,,,,,,,,,,4.4445,1,,,,,,,,,,,,,,z,,,,,,,,,,,,,,,,34,0,275.2439,279.6931,z,1,4.4445,,[],[],[],[],[],[],[],279.6932,281.693,281.6931,281.6933,[],[],[],[],[],[],[],,281.6934,281.6935,-0.062555257,-0.068404006,0,0,0,,0,33,33,31,1,1,RL,reconal,cursive,reconal_c.png,,,,,,
,,,,32094,001,2025-10-16_17h50.47.121,HW_LDT_1,2024.2.4,MacIntel,60.24096386,,,,,,,,,,,,,,,,,,,,,,281.6951,281.893,281.8932,282.3929,,,,,,,,,,,,,,1.2654,1,,,,,,,,,,,,,,z,,,,,,,,,,,,,,,,35,0,282.3935,283.6596,z,1,1.2654,,[],[],[],[],[],[],[],283.6597,285.6595,285.6595,285.6598,[],[],[],[],[],[],[],,285.6598,285.6599,-0.062555257,-0.068404006,0,0,0,,0,34,34,78,1,1,TL,vecolity,print,vecolity_p.png,,,,,,
,,,,32094,001,2025-10-16_17h50.47.121,HW_LDT_1,2024.2.4,MacIntel,60.24096386,,,,,,,,,,,,,,,,,,,,,,285.6614,285.8591,285.8591,286.3595,,,,,,,,,,,,,,0.8636,1,,,,,,,,,,,,,,m,,,,,,,,,,,,,,,,36,0,286.3603,287.2261,m,1,0.8636,,[],[],[],[],[],[],[],287.2262,289.2261,289.2262,289.2263,[],[],[],[],[],[],[],,289.2264,289.2265,-0.062555257,-0.068404006,0,0,0,,0,35,35,159,1,1,word,VETERAN,print,veteran_p.png,,,,,,
,,,,32094,001,2025-10-16_17h50.47.121,HW_LDT_1,2024.2.4,MacIntel,60.24096386,,,,,,,,,,,,,,,,,,,,,,289.228,289.426,289.426,289.926,,,,,,,,,,,,,,6.2369,1,,,,,,,,,,,,,,z,,,,,,,,,,,,,,,,37,0,289.9267,296.1755,z,1,6.2369,,[],[],[],[],[],[],[],296.1757,298.1756,298.1757,298.1761,[],[],[],[],[],[],[],,298.1761,298.1762,-0.062555257,-0.068404006,0,0,0,,0,36,36,76,1,1,TL,stragety,cursive,stragety_c.png,,,,,,
,,,,32094,001,2025-10-16_17h50.47.121,HW_LDT_1,2024.2.4,MacIntel,60.24096386,,,,,,,,,,,,,,,,,,,,,,298.1778,298.3757,298.3757,298.8756,,,,,,,,,,,,,,2.1476,0,,,,,,,,,,,,,,m,,,,,,,,,,,,,,,,38,0,298.8764,301.0255,z,0,2.1476,,[],[],[],[],[],[],[],301.0255,303.0254,303.0255,303.0257,[],[],[],[],[],[],[],,303.0257,303.0258,-0.062555257,-0.068404006,0,0,0,,0,37,37,87,1,1,word,CAFETERIA,cursive,cafeteria_c.png,,,,,,
,,,,32094,001,2025-10-16_17h50.47.121,HW_LDT_1,2024.2.4,MacIntel,60.24096386,,,,,,,,,,,,,,,,,,,,,,303.0271,303.2255,303.2255,303.7254,,,,,,,,,,,,,,1.2217,0,,,,,,,,,,,,,,m,,,,,,,,,,,,,,,,39,0,303.7263,304.9587,z,0,1.2217,,[],[],[],[],[],[],[],304.959,306.9587,306.9588,306.9593,[],[],[],[],[],[],[],,306.9593,306.9595,-0.062555257,-0.068404006,0,0,0,,0,38,38,110,1,1,word,HERITAGE,cursive,heritage_c.png,,,,,,
,,,,32094,001,2025-10-16_17h50.47.121,HW_LDT_1,2024.2.4,MacIntel,60.24096386,,,,,,,,,,,,,,,,,,,,,,306.9623,307.1586,307.1587,307.6587,,,,,,,,,,,,,,0.8362,0,,,,,,,,,,,,,,m,,,,,,,,,,,,,,,,40,0,307.6594,308.5083,z,0,0.8362,,[],[],[],[],[],[],[],308.5084,310.5085,310.5086,310.509,[],[],[],[],[],[],[],,310.5091,310.5091,-0.062555257,-0.068404006,0,0,0,,0,39,39,149,1,1,word,SENATOR,cursive,senator_c.png,,,,,,
,,,,32094,001,2025-10-16_17h50.47.121,HW_LDT_1,2024.2.4,MacIntel,60.24096386,,,,,,,,,,,,,,,,,,,,,,310.5106,310.7086,310.7086,311.2086,,,,,,,,,,,,,,5.6708,1,,,,,,,,,,,,,,z,,,,,,,,,,,,,,,,41,0,311.2095,316.8911,z,1,5.6708,,[],[],[],[],[],[],[],316.8911,318.8916,318.8916,318.8918,[],[],[],[],[],[],[],,318.8919,318.892,-0.062555257,-0.068404006,0,0,0,,0,40,40,36,1,1,RL,speniven,cursive,speniven_c.png,,,,,,
,,,,32094,001,2025-10-16_17h50.47.121,HW_LDT_1,2024.2.4,MacIntel,60.24096386,,,,,,,,,,,,,,,,,,,,,,318.8934,319.0915,319.0915,319.5915,,,,,,,,,,,,,,5.3209,1,,,,,,,,,,,,,,z,,,,,,,,,,,,,,,,42,0,319.5922,324.9238,z,1,5.3209,,[],[],[],[],[],[],[],324.9239,326.9245,326.9246,326.9248,[],[],[],[],[],[],[],,326.925,326.9251,-0.062555257,-0.068404006,0,0,0,,0,41,41,50,1,1,TL,condiser,cursive,condiser_c.png,,,,,,
,,,,32094,001,2025-10-16_17h50.47.121,HW_LDT_1,2024.2.4,MacIntel,60.24096386,,,,,,,,,,,,,,,,,,,,,,326.9273,327.1245,327.1245,327.6245,,,,,,,,,,,,,,5.3982,1,,,,,,,,,,,,,,z,,,,,,,,,,,,,,,,43,0,327.6253,333.0242,z,1,5.3982,,[],[],[],[],[],[],[],333.0243,335.0242,335.0244,335.0248,[],[],[],[],[],[],[],,335.0249,335.025,-0.062555257,-0.068404006,0,0,0,,0,42,42,0,1,1,RL,abanemy,cursive,abanemy_c.png,,,,,,
,,,,32094,001,2025-10-16_17h50.47.121,HW_LDT_1,2024.2.4,MacIntel,60.24096386,,,,,,,,,,,,,,,,,,,,,,335.0271,335.2242,335.2243,335.7241,,,,,,,,,,,,,,4.0474,0,,,,,,,,,,,,,,m,,,,,,,,,,,,,,,,44,0,335.7251,339.774,z,0,4.0474,,[],[],[],[],[],[],[],339.7742,341.7739,341.774,341.7742,[],[],[],[],[],[],[],,341.7744,341.7745,-0.062555257,-0.068404006,0,0,0,,0,43,43,102,1,1,word,DENSITY,cursive,density_c.png,,,,,,
,,,,32094,001,2025-10-16_17h50.47.121,HW_LDT_1,2024.2.4,MacIntel,60.24096386,,,,,,,,,,,,,,,,,,,,,,341.7765,341.9739,341.974,342.4738,,,,,,,,,,,,,,1.7473,1,,,,,,,,,,,,,,m,,,,,,,,,,,,,,,,45,0,342.4746,344.2237,m,1,1.7473,,[],[],[],[],[],[],[],344.2239,346.2238,346.2239,346.2241,[],[],[],[],[],[],[],,346.2242,346.2244,-0.062555257,-0.068404006,0,0,0,,0,44,44,97,1,1,word,COVERAGE,print,coverage_p.png,,,,,,
,,,,32094,001,2025-10-16_17h50.47.121,HW_LDT_1,2024.2.4,MacIntel,60.24096386,,,,,,,,,,,,,,,,,,,,,,346.2259,346.4239,346.4241,346.9238,,,,,,,,,,,,,,1.0375,1,,,,,,,,,,,,,,z,,,,,,,,,,,,,,,,46,0,346.9244,347.9726,z,1,1.0375,,[],[],[],[],[],[],[],347.9727,349.9736,349.9736,349.9738,[],[],[],[],[],[],[],,349.9739,349.9741,-0.062555257,-0.068404006,0,0,0,,0,45,45,38,1,1,RL,stopave,cursive,stopave_c.png,,,,,,
,,,,32094,001,2025-10-16_17h50.47.121,HW_LDT_1,2024.2.4,MacIntel,60.24096386,,,,,,,,,,,,,,,,,,,,,,349.9756,350.1735,350.1736,350.6736,,,,,,,,,,,,,,0.8733,1,,,,,,,,,,,,,,m,,,,,,,,,,,,,,,,47,0,350.6745,351.5568,m,1,0.8733,,[],[],[],[],[],[],[],351.557,353.5569,353.557,353.5572,[],[],[],[],[],[],[],,353.5573,353.5574,-0.062555257,-0.068404006,0,0,0,,0,46,46,91,1,1,word,CARDINAL,print,cardinal_p.png,,,,,,
,,,,32094,001,2025-10-16_17h50.47.121,HW_LDT_1,2024.2.4,MacIntel,60.24096386,,,,,,,,,,,,,,,,,,,,,,353.5593,353.7565,353.7565,354.2568,,,,,,,,,,,,,,0.9644,1,,,,,,,,,,,,,,z,,,,,,,,,,,,,,,,48,0,354.2577,355.2234,z,1,0.9644,,[],[],[],[],[],[],[],355.2234,357.2232,357.2233,357.2236,[],[],[],[],[],[],[],,357.2237,357.2238,-0.062555257,-0.068404006,0,0,0,,0,47,47,20,1,1,RL,nunewical,print,nunewical_p.png,,,,,,
,,,,32094,001,2025-10-16_17h50.47.121,HW_LDT_1,2024.2.4,MacIntel,60.24096386,,,,,,,,,,,,,,,,,,,,,,357.2253,357.4232,357.4234,357.9233,,,,,,,,,,,,,,1.3954,1,,,,,,,,,,,,,,m,,,,,,,,,,,,,,,,49,0,357.9241,359.3232,m,1,1.3954,,[],[],[],[],[],[],[],359.3233,361.3231,361.3231,361.3232,[],[],[],[],[],[],[],,361.3233,361.3235,-0.062555257,-0.068404006,0,0,0,,0,48,48,115,1,1,word,LOGICAL,cursive,logical_c.png,,,,,,
,,,,32094,001,2025-10-16_17h50.47.121,HW_LDT_1,2024.2.4,MacIntel,60.24096386,,,,,,,,,,,,,,,,,,,,,,361.3247,361.5231,361.5231,362.023,,,,,,,,,,,,,,0.9905,1,,,,,,,,,,,,,,z,,,,,,,,,,,,,,,,50,1,362.0236,363.0231,z,1,0.9905,,[],[],[],[],[],[],[],363.0232,365.0236,365.0241,368.0227,[],[],[],[],[],[],[],z,368.0227,368.0229,-0.062555257,-0.068404006,0,0,0,,0,49,49,14,1,1,RL,lofase,print,lofase_p.png,2.9874,,,,,
,,,,32094,001,2025-10-16_17h50.47.121,HW_LDT_1,2024.2.4,MacIntel,60.24096386,,,,,,,,,,,,,,,,,,,,,,368.0244,368.223,368.2231,368.7228,,,,,,,,,,,,,,1.1044,1,,,,,,,,,,,,,,m,,,,,,,,,,,,,,,,51,1,368.7239,369.8393,m,1,1.1044,,[],[],[],[],[],[],[],369.8394,371.8394,371.8394,374.339,[],[],[],[],[],[],[],m,374.3391,374.3392,-0.062555257,-0.068404006,0,0,0,,0,50,50,85,1,1,word,BENEFIT,print,benefit_p.png,2.488,,,,,
,,,,32094,001,2025-10-16_17h50.47.121,HW_LDT_1,2024.2.4,MacIntel,60.24096386,,,,,,,,,,,,,,,,,,,,,,374.3399,374.5394,374.5394,375.04,,,,,,,,,,,,,,2.141,1,,,,,,,,,,,,,,m,,,,,,,,,,,,,,,,52,0,375.0417,377.1887,m,1,2.141,,[],[],[],[],[],[],[],377.1888,379.1891,379.1891,379.1894,[],[],[],[],[],[],[],,379.1895,379.1897,-0.062555257,-0.068404006,0,0,0,,0,51,51,133,1,1,word,PROVIDE,print,provide_p.png,,,,,,
,,,,32094,001,2025-10-16_17h50.47.121,HW_LDT_1,2024.2.4,MacIntel,60.24096386,,,,,,,,,,,,,,,,,,,,,,379.191,379.3887,379.3887,379.889,,,,,,,,,,,,,,1.0234,1,,,,,,,,,,,,,,z,,,,,,,,,,,,,,,,53,0,379.8897,380.9225,z,1,1.0234,,[],[],[],[],[],[],[],380.9225,382.9223,382.9224,382.9226,[],[],[],[],[],[],[],,382.9227,382.9227,-0.062555257,-0.068404006,0,0,0,,0,52,52,40,1,1,TL,atameur,print,atameur_p.png,,,,,,
,,,,32094,001,2025-10-16_17h50.47.121,HW_LDT_1,2024.2.4,MacIntel,60.24096386,,,,,,,,,,,,,,,,,,,,,,382.9242,383.1222,383.1223,383.6213,,,,,,,,,,,,,,2.0309,1,,,,,,,,,,,,,,m,,,,,,,,,,,,,,,,54,0,383.622,385.6555,m,1,2.0309,,[],[],[],[],[],[],[],385.6555,387.6555,387.6555,387.6557,[],[],[],[],[],[],[],,387.6557,387.6559,-0.062555257,-0.068404006,0,0,0,,0,53,53,142,1,1,word,REMOTE,print,remote_p.png,,,,,,
,,,,32094,001,2025-10-16_17h50.47.121,HW_LDT_1,2024.2.4,MacIntel,60.24096386,,,,,,,,,,,,,,,,,,,,,,387.6572,387.8555,387.8556,388.3551,,,,,,,,,,,,,,0.9375,1,,,,,,,,,,,,,,z,,,,,,,,,,,,,,,,55,0,388.3558,389.3045,z,1,0.9375,,[],[],[],[],[],[],[],389.3045,391.3052,391.3053,391.3056,[],[],[],[],[],[],[],,391.3057,391.3058,-0.062555257,-0.068404006,0,0,0,,0,54,54,25,1,1,RL,quakity,cursive,quakity_c.png,,,,,,
,,,,32094,001,2025-10-16_17h50.47.121,HW_LDT_1,2024.2.4,MacIntel,60.24096386,,,,,,,,,,,,,,,,,,,,,,391.3071,391.5047,391.5047,392.0053,,,,,,,,,,,,,,0.8042,1,,,,,,,,,,,,,,m,,,,,,,,,,,,,,,,56,0,392.0061,392.8211,m,1,0.8042,,[],[],[],[],[],[],[],392.8212,394.8219,394.8219,394.8221,[],[],[],[],[],[],[],,394.8222,394.8224,-0.062555257,-0.068404006,0,0,0,,0,55,55,108,1,1,word,FORTUNE,print,fortune_p.png,,,,,,
,,,,32094,001,2025-10-16_17h50.47.121,HW_LDT_1,2024.2.4,MacIntel,60.24096386,,,,,,,,,,,,,,,,,,,,,,394.8239,395.0219,395.0219,395.5218,,,,,,,,,,,,,,3.1577,1,,,,,,,,,,,,,,z,,,,,,,,,,,,,,,,57,0,395.5224,398.6884,z,1,3.1577,,[],[],[],[],[],[],[],398.6885,400.6874,400.6874,400.6878,[],[],[],[],[],[],[],,400.6878,400.6879,-0.062555257,-0.068404006,0,0,0,,0,56,56,3,1,1,RL,casena,cursive,casena_c.png,,,,,,
,,,,32094,001,2025-10-16_17h50.47.121,HW_LDT_1,2024.2.4,MacIntel,60.24096386,,,,,,,,,,,,,,,,,,,,,,400.6895,400.8884,400.8885,401.3882,,,,,,,,,,,,,,1.6202,1,,,,,,,,,,,,,,m,,,,,,,,,,,,,,,,58,0,401.3888,403.0217,m,1,1.6202,,[],[],[],[],[],[],[],403.0218,405.0213,405.0213,405.0216,[],[],[],[],[],[],[],,405.0216,405.0218,-0.062555257,-0.068404006,0,0,0,,0,57,57,112,1,1,word,LIBERAL,cursive,liberal_c.png,,,,,,
,,,,32094,001,2025-10-16_17h50.47.121,HW_LDT_1,2024.2.4,MacIntel,60.24096386,,,,,,,,,,,,,,,,,,,,,,405.0234,405.2213,405.2214,405.7214,,,,,,,,,,,,,,0.8376,1,,,,,,,,,,,,,,m,,,,,,,,,,,,,,,,59,0,405.722,406.5713,m,1,0.8376,,[],[],[],[],[],[],[],406.5715,408.5713,408.5713,408.5715,[],[],[],[],[],[],[],,408.5715,408.5718,-0.062555257,-0.068404006,0,0,0,,0,58,58,126,1,1,word,OPTIMAL,print,optimal_p.png,,,,,,
,,,,32094,001,2025-10-16_17h50.47.121,HW_LDT_1,2024.2.4,MacIntel,60.24096386,,,,,,,,,,,,,,,,,,,,,,408.573,408.7714,408.7714,409.2712,,,,,,,,,,,,,,2.67,0,,,,,,,,,,,,,,m,,,,,,,,,,,,,,,,60,0,409.2719,411.9543,z,0,2.67,,[],[],[],[],[],[],[],411.9543,413.9544,413.9544,413.9548,[],[],[],[],[],[],[],,413.9548,413.955,-0.062555257,-0.068404006,0,0,0,,0,59,59,105,1,1,word,EDITOR,cursive,editor_c.png,,,,,,
,,,,32094,001,2025-10-16_17h50.47.121,HW_LDT_1,2024.2.4,MacIntel,60.24096386,,,,,,,,,,,,,,,,,,,,,,413.9562,414.1544,414.1544,414.6543,,,,,,,,,,,,,,0.9042,1,,,,,,,,,,,,,,z,,,,,,,,,,,,,,,,61,0,414.6551,415.5704,z,1,0.9042,,[],[],[],[],[],[],[],415.5705,417.5711,417.5711,417.5714,[],[],[],[],[],[],[],,417.5714,417.5715,-0.062555257,-0.068404006,0,0,0,,0,60,60,34,1,1,RL,samite,print,samite_p.png,,,,,,
,,,,32094,001,2025-10-16_17h50.47.121,HW_LDT_1,2024.2.4,MacIntel,60.24096386,,,,,,,,,,,,,,,,,,,,,,417.5729,417.7709,417.771,418.271,,,,,,,,,,,,,,2.0083,1,,,,,,,,,,,,,,m,,,,,,,,,,,,,,,,62,0,418.2715,420.2876,m,1,2.0083,,[],[],[],[],[],[],[],420.2877,422.2871,422.2871,422.2872,[],[],[],[],[],[],[],,422.2873,422.2874,-0.062555257,-0.068404006,0,0,0,,0,61,61,122,1,1,word,MOBILE,cursive,mobile_c.png,,,,,,
,,,,32094,001,2025-10-16_17h50.47.121,HW_LDT_1,2024.2.4,MacIntel,60.24096386,,,,,,,,,,,,,,,,,,,,,,422.2889,422.4871,422.4872,422.9871,,,,,,,,,,,,,,0.8367,1,,,,,,,,,,,,,,m,,,,,,,,,,,,,,,,63,0,422.9882,423.8363,m,1,0.8367,,[],[],[],[],[],[],[],423.8363,425.8373,425.8376,425.8381,[],[],[],[],[],[],[],,425.8382,425.8383,-0.062555257,-0.068404006,0,0,0,,0,62,62,153,1,1,word,STOLEN,print,stolen_p.png,,,,,,
,,,,32094,001,2025-10-16_17h50.47.121,HW_LDT_1,2024.2.4,MacIntel,60.24096386,,,,,,,,,,,,,,,,,,,,,,425.8414,426.0363,426.0363,426.5371,,,,,,,,,,,,,,5.7535,1,,,,,,,,,,,,,,m,,,,,,,,,,,,,,,,64,0,426.5385,432.3031,m,1,5.7535,,[],[],[],[],[],[],[],432.3032,434.3037,434.3037,434.3041,[],[],[],[],[],[],[],,434.3042,434.3043,-0.062555257,-0.068404006,0,0,0,,0,63,63,136,1,1,word,RADICAL,print,radical_p.png,,,,,,
,,,,32094,001,2025-10-16_17h50.47.121,HW_LDT_1,2024.2.4,MacIntel,60.24096386,,,,,,,,,,,,,,,,,,,,,,434.3057,434.5036,434.5036,435.0036,,,,,,,,,,,,,,1.2431,1,,,,,,,,,,,,,,z,,,,,,,,,,,,,,,,65,0,435.0045,436.2535,z,1,1.2431,,[],[],[],[],[],[],[],436.2536,438.2525,438.2525,438.2529,[],[],[],[],[],[],[],,438.2529,438.2531,-0.062555257,-0.068404006,0,0,0,,0,64,64,4,1,1,RL,carminal,print,carminal_p.png,,,,,,
,,,,32094,001,2025-10-16_17h50.47.121,HW_LDT_1,2024.2.4,MacIntel,60.24096386,,,,,,,,,,,,,,,,,,,,,,438.2546,438.4526,438.4526,438.9534,,,,,,,,,,,,,,2.8539,1,,,,,,,,,,,,,,z,,,,,,,,,,,,,,,,66,1,438.9542,441.8199,z,1,2.8539,,[],[],[],[],[],[],[],441.82,443.8195,443.8195,445.3529,[],[],[],[],[],[],[],z,445.353,445.353,-0.062555257,-0.068404006,0,0,0,,0,65,65,23,1,1,RL,potugar,cursive,potugar_c.png,1.526,,,,,
,,,,32094,001,2025-10-16_17h50.47.121,HW_LDT_1,2024.2.4,MacIntel,60.24096386,,,,,,,,,,,,,,,,,,,,,,445.354,445.5522,445.5522,446.0531,,,,,,,,,,,,,,0.7535,1,,,,,,,,,,,,,,m,,,,,,,,,,,,,,,,67,0,446.0539,446.8196,m,1,0.7535,,[],[],[],[],[],[],[],446.8196,448.8196,448.8196,448.8199,[],[],[],[],[],[],[],,448.82,448.8201,-0.062555257,-0.068404006,0,0,0,,0,66,66,99,1,1,word,DEBATE,print,debate_p.png,,,,,,
,,,,32094,001,2025-10-16_17h50.47.121,HW_LDT_1,2024.2.4,MacIntel,60.24096386,,,,,,,,,,,,,,,,,,,,,,448.8216,449.0197,449.0197,449.5195,,,,,,,,,,,,,,0.9063,1,,,,,,,,,,,,,,z,,,,,,,,,,,,,,,,68,0,449.5203,450.4357,z,1,0.9063,,[],[],[],[],[],[],[],450.4357,452.4361,452.4362,452.4364,[],[],[],[],[],[],[],,452.4365,452.4365,-0.062555257,-0.068404006,0,0,0,,0,67,67,39,1,1,RL,vabifity,cursive,vabifity_c.png,,,,,,
,,,,32094,001,2025-10-16_17h50.47.121,HW_LDT_1,2024.2.4,MacIntel,60.24096386,,,,,,,,,,,,,,,,,,,,,,452.4382,452.6363,452.6364,453.1361,,,,,,,,,,,,,,1.2428,1,,,,,,,,,,,,,,z,,,,,,,,,,,,,,,,69,1,453.1366,454.386,z,1,1.2428,,[],[],[],[],[],[],[],454.3861,456.3861,456.3861,457.4359,[],[],[],[],[],[],[],z,457.436,457.4361,-0.062555257,-0.068404006,0,0,0,,0,68,68,63,1,1,TL,molibe,cursive,molibe_c.png,1.0452,,,,,
,,,,32094,001,2025-10-16_17h50.47.121,HW_LDT_1,2024.2.4,MacIntel,60.24096386,,,,,,,,,,,,,,,,,,,,,,457.4371,457.636,457.6361,458.1356,,,,,,,,,,,,,,1.3216,1,,,,,,,,,,,,,,m,,,,,,,,,,,,,,,,70,0,458.1364,459.4693,m,1,1.3216,,[],[],[],[],[],[],[],459.4694,461.4692,461.4693,461.4695,[],[],[],[],[],[],[],,461.4696,461.4697,-0.062555257,-0.068404006,0,0,0,,0,69,69,118,1,1,word,MEDICINE,cursive,medicine_c.png,,,,,,
,,,,32094,001,2025-10-16_17h50.47.121,HW_LDT_1,2024.2.4,MacIntel,60.24096386,,,,,,,,,,,,,,,,,,,,,,461.4712,461.6688,461.6688,462.169,,,,,,,,,,,,,,1.0429,0,,,,,,,,,,,,,,z,,,,,,,,,,,,,,,,71,0,462.1698,463.2187,m,0,1.0429,,[],[],[],[],[],[],[],463.2187,465.2191,465.2192,465.2195,[],[],[],[],[],[],[],,465.2195,465.2196,-0.062555257,-0.068404006,0,0,0,,0,70,70,62,1,1,TL,mitilary,print,mitilary_p.png,,,,,,
,,,,32094,001,2025-10-16_17h50.47.121,HW_LDT_1,2024.2.4,MacIntel,60.24096386,,,,,,,,,,,,,,,,,,,,,,465.2211,465.4192,465.4193,465.9189,,,,,,,,,,,,,,6.1875,0,,,,,,,,,,,,,,m,,,,,,,,,,,,,,,,72,0,465.9196,472.1187,z,0,6.1875,,[],[],[],[],[],[],[],472.1188,474.1186,474.1187,474.119,[],[],[],[],[],[],[],,474.119,474.1191,-0.062555257,-0.068404006,0,0,0,,0,71,71,103,1,1,word,DISPUTE,cursive,dispute_c.png,,,,,,
,,,,32094,001,2025-10-16_17h50.47.121,HW_LDT_1,2024.2.4,MacIntel,60.24096386,,,,,,,,,,,,,,,,,,,,,,474.1207,474.318,474.318,474.8187,,,,,,,,,,,,,,0.9718,1,,,,,,,,,,,,,,m,,,,,,,,,,,,,,,,73,0,474.8196,475.8018,m,1,0.9718,,[],[],[],[],[],[],[],475.8019,477.8013,477.8015,477.8018,[],[],[],[],[],[],[],,477.8018,477.802,-0.062555257,-0.068404006,0,0,0,,0,72,72,135,1,1,word,QUALITY,cursive,quality_c.png,,,,,,
,,,,32094,001,2025-10-16_17h50.47.121,HW_LDT_1,2024.2.4,MacIntel,60.24096386,,,,,,,,,,,,,,,,,,,,,,477.8036,478.0014,478.0015,478.5017,,,,,,,,,,,,,,0.7053,1,,,,,,,,,,,,,,m,,,,,,,,,,,,,,,,74,0,478.5023,479.2186,m,1,0.7053,,[],[],[],[],[],[],[],479.2186,481.2184,481.2184,481.2187,[],[],[],[],[],[],[],,481.2188,481.219,-0.062555257,-0.068404006,0,0,0,,0,73,73,139,1,1,word,REGULAR,print,regular_p.png,,,,,,
,,,,32094,001,2025-10-16_17h50.47.121,HW_LDT_1,2024.2.4,MacIntel,60.24096386,,,,,,,,,,,,,,,,,,,,,,481.2207,481.4183,481.4184,481.918,,,,,,,,,,,,,,3.0803,1,,,,,,,,,,,,,,m,,,,,,,,,,,,,,,,75,0,481.9185,485.0021,m,1,3.0803,,[],[],[],[],[],[],[],485.0023,487.0014,487.0016,487.0019,[],[],[],[],[],[],[],,487.0021,487.0023,-0.062555257,-0.068404006,0,0,0,,0,74,74,155,1,1,word,STRATEGY,cursive,strategy_c.png,,,,,,
,,,,32094,001,2025-10-16_17h50.47.121,HW_LDT_1,2024.2.4,MacIntel,60.24096386,,,,,,,,,,,,,,,,,,,,,,487.0055,487.2015,487.2015,487.7014,,,,,,,,,,,,,,0.8874,1,,,,,,,,,,,,,,z,,,,,,,,,,,,,,,,76,1,487.7026,488.6014,z,1,0.8874,,[],[],[],[],[],[],[],488.6015,490.6014,490.6014,496.2345,[],[],[],[],[],[],[],z,496.2345,496.2347,-0.062555257,-0.068404006,0,0,0,,0,75,75,21,1,1,RL,opcifal,print,opcifal_p.png,5.6318,,,,,
,,,,32094,001,2025-10-16_17h50.47.121,HW_LDT_1,2024.2.4,MacIntel,60.24096386,,,,,,,,,,,,,,,,,,,,,,496.2362,496.4345,496.4346,496.9346,,,,,,,,,,,,,,1.3236,1,,,,,,,,,,,,,,m,,,,,,,,,,,,,,,,77,1,496.9352,498.2678,m,1,1.3236,,[],[],[],[],[],[],[],498.2679,500.2677,500.2678,501.1016,[],[],[],[],[],[],[],z,501.1017,501.1017,-0.062555257,-0.068404006,0,0,0,,0,76,76,92,1,1,word,CATEGORY,print,category_p.png,0.8287,,,,,
,,,,32094,001,2025-10-16_17h50.47.121,HW_LDT_1,2024.2.4,MacIntel,60.24096386,,,,,,,,,,,,,,,,,,,,,,501.1027,501.3011,501.3011,501.801,,,,,,,,,,,,,,3.073,1,,,,,,,,,,,,,,m,,,,,,,,,,,,,,,,78,0,501.8017,504.8842,m,1,3.073,,[],[],[],[],[],[],[],504.8844,506.884,506.8841,506.8843,[],[],[],[],[],[],[],,506.8845,506.8846,-0.062555257,-0.068404006,0,0,0,,0,77,77,154,1,1,word,STORAGE,cursive,storage_c.png,,,,,,
,,,,32094,001,2025-10-16_17h50.47.121,HW_LDT_1,2024.2.4,MacIntel,60.24096386,,,,,,,,,,,,,,,,,,,,,,506.8859,507.0831,507.0832,507.5841,,,,,,,,,,,,,,1.0557,1,,,,,,,,,,,,,,z,,,,,,,,,,,,,,,,79,0,507.5846,508.6505,z,1,1.0557,,[],[],[],[],[],[],[],508.6505,510.6507,510.6508,510.651,[],[],[],[],[],[],[],,510.6511,510.6512,-0.062555257,-0.068404006,0,0,0,,0,78,78,19,1,1,RL,monebate,print,monebate_p.png,,,,,,
,,,,32094,001,2025-10-16_17h50.47.121,HW_LDT_1,2024.2.4,MacIntel,60.24096386,,,,,,,,,,,,,,,,,,,,,,510.6527,510.8506,510.8506,511.3507,,,,,,,,,,,,,,2.378,1,,,,,,,,,,,,,,z,,,,,,,,,,,,,,,,80,0,511.3517,513.7332,z,1,2.378,,[],[],[],[],[],[],[],513.7333,515.7337,515.7338,515.7341,[],[],[],[],[],[],[],,515.7341,520.6838,-0.062555257,-0.068404006,0,0,0,space,0,79,79,41,1,1,TL,bevoled,print,bevoled_p.png,,,4.9139,,,
,,,,32094,001,2025-10-16_17h50.47.121,HW_LDT_1,2024.2.4,MacIntel,60.24096386,,,,,,,,,,,,,,,,,,,,,,520.6851,520.8835,520.8835,521.3836,,,,,,,,,,,,,,6.2721,1,,,,,,,,,,,,,,m,,,,,,,,,,,,,,,,81,1,521.3847,527.6663,m,1,6.2721,,[],[],[],[],[],[],[],527.6664,529.6656,529.6656,531.8494,[],[],[],[],[],[],[],z,531.8495,531.8496,-0.062555257,-0.068404006,0,0,0,,0,80,80,88,1,1,word,CAMERA,cursive,camera_c.png,2.1753,,,,,
,,,,32094,001,2025-10-16_17h50.47.121,HW_LDT_1,2024.2.4,MacIntel,60.24096386,,,,,,,,,,,,,,,,,,,,,,531.8509,532.0496,532.0497,532.5496,,,,,,,,,,,,,,1.1731,1,,,,,,,,,,,,,,z,,,,,,,,,,,,,,,,82,0,532.5503,533.733,z,1,1.1731,,[],[],[],[],[],[],[],533.7331,535.7329,535.733,535.7333,[],[],[],[],[],[],[],,535.7333,535.7338,-0.062555257,-0.068404006,0,0,0,,0,81,81,74,1,1,TL,setanor,cursive,setanor_c.png,,,,,,
,,,,32094,001,2025-10-16_17h50.47.121,HW_LDT_1,2024.2.4,MacIntel,60.24096386,,,,,,,,,,,,,,,,,,,,,,535.7349,535.933,535.933,536.4329,,,,,,,,,,,,,,1.842,1,,,,,,,,,,,,,,m,,,,,,,,,,,,,,,,83,0,536.4337,538.2824,m,1,1.842,,[],[],[],[],[],[],[],538.2825,540.2827,540.2828,540.2829,[],[],[],[],[],[],[],,540.2829,540.2831,-0.062555257,-0.068404006,0,0,0,,0,82,82,137,1,1,word,RAPIDLY,cursive,rapidly_c.png,,,,,,
,,,,32094,001,2025-10-16_17h50.47.121,HW_LDT_1,2024.2.4,MacIntel,60.24096386,,,,,,,,,,,,,,,,,,,,,,540.2847,540.4822,540.4823,540.9826,,,,,,,,,,,,,,2.2611,1,,,,,,,,,,,,,,z,,,,,,,,,,,,,,,,84,0,540.9833,543.2494,z,1,2.2611,,[],[],[],[],[],[],[],543.2495,545.2495,545.2497,545.2506,[],[],[],[],[],[],[],,545.2506,545.2511,-0.062555257,-0.068404006,0,0,0,,0,83,83,72,1,1,TL,remuse,print,remuse_p.png,,,,,,
,,,,32094,001,2025-10-16_17h50.47.121,HW_LDT_1,2024.2.4,MacIntel,60.24096386,,,,,,,,,,,,,,,,,,,,,,545.2537,545.4491,545.4491,545.9491,,,,,,,,,,,,,,1.6564,1,,,,,,,,,,,,,,m,,,,,,,,,,,,,,,,85,1,545.9502,547.6159,m,1,1.6564,,[],[],[],[],[],[],[],547.6159,549.6156,549.6156,550.5324,[],[],[],[],[],[],[],m,550.5325,550.5326,-0.062555257,-0.068404006,0,0,0,,0,84,84,121,1,1,word,MISTAKE,print,mistake_p.png,0.91,,,,,
,,,,32094,001,2025-10-16_17h50.47.121,HW_LDT_1,2024.2.4,MacIntel,60.24096386,,,,,,,,,,,,,,,,,,,,,,550.5347,550.7312,550.7313,551.2321,,,,,,,,,,,,,,6.5067,1,,,,,,,,,,,,,,m,,,,,,,,,,,,,,,,86,0,551.233,557.7487,m,1,6.5067,,[],[],[],[],[],[],[],557.7487,559.7486,559.7486,559.7487,[],[],[],[],[],[],[],,559.7487,559.7488,-0.062555257,-0.068404006,0,0,0,,0,85,85,151,1,1,word,SPECIFIC,cursive,specific_c.png,,,,,,
,,,,32094,001,2025-10-16_17h50.47.121,HW_LDT_1,2024.2.4,MacIntel,60.24096386,,,,,,,,,,,,,,,,,,,,,,559.75,559.9485,559.9486,560.4484,,,,,,,,,,,,,,2.7298,0,,,,,,,,,,,,,,m,,,,,,,,,,,,,,,,87,1,560.4491,563.1819,z,0,2.7298,,[],[],[],[],[],[],[],563.182,565.1807,565.1807,566.4483,[],[],[],[],[],[],[],z,566.4484,566.4485,-0.062555257,-0.068404006,0,0,0,,0,86,86,146,1,1,word,RETIRE,cursive,retire_c.png,1.2643,,,,,
,,,,32094,001,2025-10-16_17h50.47.121,HW_LDT_1,2024.2.4,MacIntel,60.24096386,,,,,,,,,,,,,,,,,,,,,,566.45,566.6482,566.6482,567.1482,,,,,,,,,,,,,,1.0085,1,,,,,,,,,,,,,,m,,,,,,,,,,,,,,,,88,1,567.1489,568.1649,m,1,1.0085,,[],[],[],[],[],[],[],568.1649,570.1648,570.1648,571.181,[],[],[],[],[],[],[],m,571.181,571.1812,-0.062555257,-0.068404006,0,0,0,,0,87,87,117,1,1,word,MARINE,print,marine_p.png,1.0088,,,,,
,,,,32094,001,2025-10-16_17h50.47.121,HW_LDT_1,2024.2.4,MacIntel,60.24096386,,,,,,,,,,,,,,,,,,,,,,571.183,571.3813,571.3814,571.8814,,,,,,,,,,,,,,1.0249,1,,,,,,,,,,,,,,m,,,,,,,,,,,,,,,,89,0,571.882,572.9147,m,1,1.0249,,[],[],[],[],[],[],[],572.9148,574.9145,574.9145,574.915,[],[],[],[],[],[],[],,574.915,574.9151,-0.062555257,-0.068404006,0,0,0,,0,88,88,148,1,1,word,SALINE,print,saline_p.png,,,,,,
,,,,32094,001,2025-10-16_17h50.47.121,HW_LDT_1,2024.2.4,MacIntel,60.24096386,,,,,,,,,,,,,,,,,,,,,,574.9165,575.1141,575.1142,575.6146,,,,,,,,,,,,,,1.5406,0,,,,,,,,,,,,,,z,,,,,,,,,,,,,,,,90,0,575.6155,577.1646,m,0,1.5406,,[],[],[],[],[],[],[],577.1647,579.1644,579.1644,579.1646,[],[],[],[],[],[],[],,579.1647,579.1648,-0.062555257,-0.068404006,0,0,0,,0,89,89,66,1,1,TL,panert,cursive,panert_c.png,,,,,,
,,,,32094,001,2025-10-16_17h50.47.121,HW_LDT_1,2024.2.4,MacIntel,60.24096386,,,,,,,,,,,,,,,,,,,,,,579.1662,579.3645,579.3645,579.8644,,,,,,,,,,,,,,2.708,1,,,,,,,,,,,,,,z,,,,,,,,,,,,,,,,91,0,579.8651,582.5805,z,1,2.708,,[],[],[],[],[],[],[],582.5805,584.5809,584.581,584.5812,[],[],[],[],[],[],[],,584.5813,584.5814,-0.062555257,-0.068404006,0,0,0,,0,90,90,68,1,1,TL,prosopal,cursive,prosopal_c.png,,,,,,
,,,,32094,001,2025-10-16_17h50.47.121,HW_LDT_1,2024.2.4,MacIntel,60.24096386,,,,,,,,,,,,,,,,,,,,,,584.583,584.7798,584.7799,585.2811,,,,,,,,,,,,,,10.609,1,,,,,,,,,,,,,,m,,,,,,,,,,,,,,,,92,0,585.2818,595.8979,m,1,10.609,,[],[],[],[],[],[],[],595.898,597.8964,597.8964,597.8966,[],[],[],[],[],[],[],,597.8966,597.8968,-0.062555257,-0.068404006,0,0,0,,0,91,91,119,1,1,word,MEMORY,cursive,memory_c.png,,,,,,
,,,,32094,001,2025-10-16_17h50.47.121,HW_LDT_1,2024.2.4,MacIntel,60.24096386,,,,,,,,,,,,,,,,,,,,,,597.8982,598.097,598.097,598.5969,,,,,,,,,,,,,,1.5085,1,,,,,,,,,,,,,,m,,,,,,,,,,,,,,,,93,0,598.5976,600.1136,m,1,1.5085,,[],[],[],[],[],[],[],600.1137,602.1132,602.1132,602.1133,[],[],[],[],[],[],[],,602.1133,602.1134,-0.062555257,-0.068404006,0,0,0,,0,92,92,129,1,1,word,PARENT,cursive,parent_c.png,,,,,,
,,,,32094,001,2025-10-16_17h50.47.121,HW_LDT_1,2024.2.4,MacIntel,60.24096386,,,,,,,,,,,,,,,,,,,,,,602.1141,602.3133,602.3133,602.8133,,,,,,,,,,,,,,0.7806,1,,,,,,,,,,,,,,m,,,,,,,,,,,,,,,,94,0,602.8135,603.5969,m,1,0.7806,,[],[],[],[],[],[],[],603.597,605.5962,605.5965,605.5968,[],[],[],[],[],[],[],,605.5968,605.5969,-0.062555257,-0.068404006,0,0,0,,0,93,93,86,1,1,word,BESIDE,print,beside_p.png,,,,,,
,,,,32094,001,2025-10-16_17h50.47.121,HW_LDT_1,2024.2.4,MacIntel,60.24096386,,,,,,,,,,,,,,,,,,,,,,605.5991,605.7962,605.7963,606.297,,,,,,,,,,,,,,3.8743,0,,,,,,,,,,,,,,m,,,,,,,,,,,,,,,,95,0,606.2982,610.1789,z,0,3.8743,,[],[],[],[],[],[],[],610.179,612.1797,612.1797,612.1798,[],[],[],[],[],[],[],,612.1799,612.1799,-0.062555257,-0.068404006,0,0,0,,0,94,94,111,1,1,word,INDICATE,cursive,indicate_c.png,,,,,,
,,,,32094,001,2025-10-16_17h50.47.121,HW_LDT_1,2024.2.4,MacIntel,60.24096386,,,,,,,,,,,,,,,,,,,,,,612.181,612.3799,612.3801,612.8798,,,,,,,,,,,,,,1.2753,1,,,,,,,,,,,,,,m,,,,,,,,,,,,,,,,96,0,612.8803,614.1632,m,1,1.2753,,[],[],[],[],[],[],[],614.1633,616.1633,616.1633,616.1635,[],[],[],[],[],[],[],,616.1636,616.1638,-0.062555257,-0.068404006,0,0,0,,0,95,95,128,1,1,word,PACIFIC,print,pacific_p.png,,,,,,
,,,,32094,001,2025-10-16_17h50.47.121,HW_LDT_1,2024.2.4,MacIntel,60.24096386,,,,,,,,,,,,,,,,,,,,,,616.1652,616.3627,616.3628,616.863,,,,,,,,,,,,,,0.9754,0,,,,,,,,,,,,,,m,,,,,,,,,,,,,,,,97,0,616.8636,617.8462,z,0,0.9754,,[],[],[],[],[],[],[],617.8462,619.8463,619.8463,619.8465,[],[],[],[],[],[],[],,619.8465,619.8466,-0.062555257,-0.068404006,0,0,0,,0,96,96,101,1,1,word,DELICATE,cursive,delicate_c.png,,,,,,
,,,,32094,001,2025-10-16_17h50.47.121,HW_LDT_1,2024.2.4,MacIntel,60.24096386,,,,,,,,,,,,,,,,,,,,,,619.848,620.0462,620.0463,620.5462,,,,,,,,,,,,,,0.9623,1,,,,,,,,,,,,,,z,,,,,,,,,,,,,,,,98,0,620.5468,621.5122,z,1,0.9623,,[],[],[],[],[],[],[],621.5122,623.5125,623.5126,623.5129,[],[],[],[],[],[],[],,623.513,623.5131,-0.062555257,-0.068404006,0,0,0,,0,97,97,51,1,1,TL,corevage,print,corevage_p.png,,,,,,
,,,,32094,001,2025-10-16_17h50.47.121,HW_LDT_1,2024.2.4,MacIntel,60.24096386,,,,,,,,,,,,,,,,,,,,,,623.5145,623.7128,623.7128,624.2121,,,,,,,,,,,,,,1.1087,1,,,,,,,,,,,,,,z,,,,,,,,,,,,,,,,99,0,624.213,625.329,z,1,1.1087,,[],[],[],[],[],[],[],625.329,627.3292,627.3292,627.3299,[],[],[],[],[],[],[],,627.33,627.33,-0.062555257,-0.068404006,0,0,0,,0,98,98,42,1,1,TL,befenit,print,befenit_p.png,,,,,,
,,,,32094,001,2025-10-16_17h50.47.121,HW_LDT_1,2024.2.4,MacIntel,60.24096386,,,,,,,,,,,,,,,,,,,,,,627.3323,627.5293,627.5294,628.0291,,,,,,,,,,,,,,1.3471,1,,,,,,,,,,,,,,m,,,,,,,,,,,,,,,,100,0,628.0298,629.3791,m,1,1.3471,,[],[],[],[],[],[],[],629.3792,631.379,631.379,631.3793,[],[],[],[],[],[],[],,631.3793,631.3796,-0.062555257,-0.068404006,0,0,0,,0,99,99,156,1,1,word,TRIBUTE,cursive,tribute_c.png,,,,,,
,,,,32094,001,2025-10-16_17h50.47.121,HW_LDT_1,2024.2.4,MacIntel,60.24096386,,,,,,,,,,,,,,,,,,,,,,631.381,631.5789,631.579,632.0789,,,,,,,,,,,,,,0.8429,0,,,,,,,,,,,,,,z,,,,,,,,,,,,,,,,101,0,632.0797,632.929,m,0,0.8429,,[],[],[],[],[],[],[],632.9291,634.9288,634.9289,634.9292,[],[],[],[],[],[],[],,634.9292,634.9293,-0.062555257,-0.068404006,0,0,0,,0,100,100,45,1,1,TL,cacapity,print,cacapity_p.png,,,,,,
,,,,32094,001,2025-10-16_17h50.47.121,HW_LDT_1,2024.2.4,MacIntel,60.24096386,,,,,,,,,,,,,,,,,,,,,,634.9308,635.1289,635.129,635.6288,,,,,,,,,,,,,,1.3616,1,,,,,,,,,,,,,,z,,,,,,,,,,,,,,,,102,0,635.6297,636.9947,z,1,1.3616,,[],[],[],[],[],[],[],636.9948,638.9953,638.9955,638.9956,[],[],[],[],[],[],[],,638.9957,638.9959,-0.062555257,-0.068404006,0,0,0,,0,101,101,47,1,1,TL,cagetory,print,cagetory_p.png,,,,,,
,,,,32094,001,2025-10-16_17h50.47.121,HW_LDT_1,2024.2.4,MacIntel,60.24096386,,,,,,,,,,,,,,,,,,,,,,638.9973,639.1954,639.1954,639.6954,,,,,,,,,,,,,,1.3119,1,,,,,,,,,,,,,,m,,,,,,,,,,,,,,,,103,0,639.6961,641.012,m,1,1.3119,,[],[],[],[],[],[],[],641.012,643.0119,643.0119,643.0122,[],[],[],[],[],[],[],,643.0122,643.0123,-0.062555257,-0.068404006,0,0,0,,0,102,102,95,1,1,word,COMEDY,cursive,comedy_c.png,,,,,,
,,,,32094,001,2025-10-16_17h50.47.121,HW_LDT_1,2024.2.4,MacIntel,60.24096386,,,,,,,,,,,,,,,,,,,,,,643.0138,643.2118,643.2119,643.7118,,,,,,,,,,,,,,0.7119,1,,,,,,,,,,,,,,m,,,,,,,,,,,,,,,,104,0,643.7125,644.4286,m,1,0.7119,,[],[],[],[],[],[],[],644.4286,646.4283,646.4284,646.4286,[],[],[],[],[],[],[],,646.4286,646.4287,-0.062555257,-0.068404006,0,0,0,,0,103,103,158,1,1,word,VELOCITY,print,velocity_p.png,,,,,,
,,,,32094,001,2025-10-16_17h50.47.121,HW_LDT_1,2024.2.4,MacIntel,60.24096386,,,,,,,,,,,,,,,,,,,,,,646.4302,646.628,646.6281,647.1285,,,,,,,,,,,,,,0.8795,1,,,,,,,,,,,,,,z,,,,,,,,,,,,,,,,105,0,647.129,648.0117,z,1,0.8795,,[],[],[],[],[],[],[],648.0118,650.0116,650.0116,650.0119,[],[],[],[],[],[],[],,650.0119,650.0119,-0.062555257,-0.068404006,0,0,0,,0,104,104,70,1,1,TL,relugar,print,relugar_p.png,,,,,,
,,,,32094,001,2025-10-16_17h50.47.121,HW_LDT_1,2024.2.4,MacIntel,60.24096386,,,,,,,,,,,,,,,,,,,,,,650.0136,650.2115,650.2116,650.7112,,,,,,,,,,,,,,1.3431,1,,,,,,,,,,,,,,m,,,,,,,,,,,,,,,,106,1,650.7114,652.0612,m,1,1.3431,,[],[],[],[],[],[],[],652.0613,654.0614,654.0615,655.2106,[],[],[],[],[],[],[],z,655.2106,655.2108,-0.062555257,-0.068404006,0,0,0,,0,105,105,152,1,1,word,SPECIMEN,cursive,specimen_c.png,1.1453,,,,,
,,,,32094,001,2025-10-16_17h50.47.121,HW_LDT_1,2024.2.4,MacIntel,60.24096386,,,,,,,,,,,,,,,,,,,,,,655.2131,655.4114,655.4115,655.9114,,,,,,,,,,,,,,2.3795,1,,,,,,,,,,,,,,z,,,,,,,,,,,,,,,,107,0,655.9121,658.2937,z,1,2.3795,,[],[],[],[],[],[],[],658.2938,660.2945,660.2945,660.2948,[],[],[],[],[],[],[],,660.2948,660.295,-0.062555257,-0.068404006,0,0,0,,0,106,106,59,1,1,TL,lirebal,cursive,lirebal_c.png,,,,,,
,,,,32094,001,2025-10-16_17h50.47.121,HW_LDT_1,2024.2.4,MacIntel,60.24096386,,,,,,,,,,,,,,,,,,,,,,660.2966,660.4938,660.4938,660.9944,,,,,,,,,,,,,,0.8376,1,,,,,,,,,,,,,,z,,,,,,,,,,,,,,,,108,1,660.9956,661.8443,z,1,0.8376,,[],[],[],[],[],[],[],661.8443,663.8435,663.8436,665.1277,[],[],[],[],[],[],[],z,665.1278,665.128,-0.062555257,-0.068404006,0,0,0,,0,107,107,32,1,1,RL,rebicent,print,rebicent_p.png,1.2736,,,,,
,,,,32094,001,2025-10-16_17h50.47.121,HW_LDT_1,2024.2.4,MacIntel,60.24096386,,,,,,,,,,,,,,,,,,,,,,665.1309,665.3276,665.3277,665.8276,,,,,,,,,,,,,,3.1134,1,,,,,,,,,,,,,,m,,,,,,,,,,,,,,,,109,0,665.8287,668.9441,m,1,3.1134,,[],[],[],[],[],[],[],668.9442,670.944,670.9441,670.9444,[],[],[],[],[],[],[],,670.9445,670.9446,-0.062555257,-0.068404006,0,0,0,,0,108,108,93,1,1,word,CEREMONY,cursive,ceremony_c.png,,,,,,
,,,,32094,001,2025-10-16_17h50.47.121,HW_LDT_1,2024.2.4,MacIntel,60.24096386,,,,,,,,,,,,,,,,,,,,,,670.946,671.1441,671.1442,671.6441,,,,,,,,,,,,,,1.6304,1,,,,,,,,,,,,,,z,,,,,,,,,,,,,,,,110,0,671.6447,673.2773,z,1,1.6304,,[],[],[],[],[],[],[],673.2773,675.2772,675.2773,675.2775,[],[],[],[],[],[],[],,675.2776,675.2777,-0.062555257,-0.068404006,0,0,0,,0,109,109,17,1,1,RL,menowy,cursive,menowy_c.png,,,,,,
,,,,32094,001,2025-10-16_17h50.47.121,HW_LDT_1,2024.2.4,MacIntel,60.24096386,,,,,,,,,,,,,,,,,,,,,,675.2791,675.4772,675.4772,675.9772,,,,,,,,,,,,,,3.2136,1,,,,,,,,,,,,,,m,,,,,,,,,,,,,,,,111,0,675.9779,679.1937,m,1,3.2136,,[],[],[],[],[],[],[],679.1938,681.1932,681.1933,681.1935,[],[],[],[],[],[],[],,681.1936,681.1936,-0.062555257,-0.068404006,0,0,0,,0,110,110,96,1,1,word,CONSIDER,cursive,consider_c.png,,,,,,
,,,,32094,001,2025-10-16_17h50.47.121,HW_LDT_1,2024.2.4,MacIntel,60.24096386,,,,,,,,,,,,,,,,,,,,,,681.195,681.3937,681.3937,681.8936,,,,,,,,,,,,,,3.1304,1,,,,,,,,,,,,,,z,,,,,,,,,,,,,,,,112,0,681.8943,685.0269,z,1,3.1304,,[],[],[],[],[],[],[],685.027,687.0268,687.0269,687.027,[],[],[],[],[],[],[],,687.027,687.0271,-0.062555257,-0.068404006,0,0,0,,0,111,111,53,1,1,TL,dentisy,cursive,dentisy_c.png,,,,,,
,,,,32094,001,2025-10-16_17h50.47.121,HW_LDT_1,2024.2.4,MacIntel,60.24096386,,,,,,,,,,,,,,,,,,,,,,687.0282,687.2267,687.2268,687.7267,,,,,,,,,,,,,,2.2477,1,,,,,,,,,,,,,,z,,,,,,,,,,,,,,,,113,0,687.7274,689.9768,z,1,2.2477,,[],[],[],[],[],[],[],689.9768,691.9765,691.9765,691.9768,[],[],[],[],[],[],[],,691.9768,691.9769,-0.062555257,-0.068404006,0,0,0,,0,112,112,67,1,1,TL,pocily,cursive,pocily_c.png,,,,,,
,,,,32094,001,2025-10-16_17h50.47.121,HW_LDT_1,2024.2.4,MacIntel,60.24096386,,,,,,,,,,,,,,,,,,,,,,691.9784,692.1766,692.1766,692.6765,,,,,,,,,,,,,,0.8757,1,,,,,,,,,,,,,,z,,,,,,,,,,,,,,,,114,0,692.6772,693.5596,z,1,0.8757,,[],[],[],[],[],[],[],693.5597,695.5597,695.5598,695.5601,[],[],[],[],[],[],[],,695.5602,695.5604,-0.062555257,-0.068404006,0,0,0,,0,113,113,58,1,1,TL,incidate,cursive,incidate_c.png,,,,,,
,,,,32094,001,2025-10-16_17h50.47.121,HW_LDT_1,2024.2.4,MacIntel,60.24096386,,,,,,,,,,,,,,,,,,,,,,695.5618,695.7597,695.7597,696.2598,,,,,,,,,,,,,,1.0312,1,,,,,,,,,,,,,,z,,,,,,,,,,,,,,,,115,1,696.2605,697.2931,z,1,1.0312,,[],[],[],[],[],[],[],697.2932,699.2929,699.2931,700.7584,[],[],[],[],[],[],[],z,700.7584,700.7586,-0.062555257,-0.068404006,0,0,0,,0,114,114,52,1,1,TL,decilate,cursive,decilate_c.png,1.4549,,,,,
,,,,32094,001,2025-10-16_17h50.47.121,HW_LDT_1,2024.2.4,MacIntel,60.24096386,,,,,,,,,,,,,,,,,,,,,,700.7592,700.9595,700.9596,701.4596,,,,,,,,,,,,,,0.9215,1,,,,,,,,,,,,,,z,,,,,,,,,,,,,,,,116,0,701.4603,702.393,z,1,0.9215,,[],[],[],[],[],[],[],702.393,704.3928,704.3928,704.393,[],[],[],[],[],[],[],,704.3931,704.3931,-0.062555257,-0.068404006,0,0,0,,0,115,115,22,1,1,RL,patisic,print,patisic_p.png,,,,,,
,,,,32094,001,2025-10-16_17h50.47.121,HW_LDT_1,2024.2.4,MacIntel,60.24096386,,,,,,,,,,,,,,,,,,,,,,704.3951,704.5927,704.5927,705.0927,,,,,,,,,,,,,,1.7044,1,,,,,,,,,,,,,,m,,,,,,,,,,,,,,,,117,0,705.0935,706.8084,m,1,1.7044,,[],[],[],[],[],[],[],706.8085,708.8092,708.8093,708.8095,[],[],[],[],[],[],[],,708.8096,708.8097,-0.062555257,-0.068404006,0,0,0,,0,116,116,94,1,1,word,CLINICAL,cursive,clinical_c.png,,,,,,
,,,,32094,001,2025-10-16_17h50.47.121,HW_LDT_1,2024.2.4,MacIntel,60.24096386,,,,,,,,,,,,,,,,,,,,,,708.8112,709.0095,709.0095,709.5094,,,,,,,,,,,,,,0.7707,1,,,,,,,,,,,,,,m,,,,,,,,,,,,,,,,118,0,709.5104,710.2924,m,1,0.7707,,[],[],[],[],[],[],[],710.2926,712.292,712.292,712.2922,[],[],[],[],[],[],[],,712.2923,712.2925,-0.062555257,-0.068404006,0,0,0,,0,117,117,89,1,1,word,CAPACITY,print,capacity_p.png,,,,,,
,,,,32094,001,2025-10-16_17h50.47.121,HW_LDT_1,2024.2.4,MacIntel,60.24096386,,,,,,,,,,,,,,,,,,,,,,712.2939,712.4926,712.4926,712.9923,,,,,,,,,,,,,,0.955,1,,,,,,,,,,,,,,z,,,,,,,,,,,,,,,,119,0,712.993,713.9591,z,1,0.955,,[],[],[],[],[],[],[],713.9592,715.9589,715.959,715.9593,[],[],[],[],[],[],[],,715.9594,715.9594,-0.062555257,-0.068404006,0,0,0,,0,118,118,16,1,1,RL,marmipal,print,marmipal_p.png,,,,,,
,,,,32094,001,2025-10-16_17h50.47.121,HW_LDT_1,2024.2.4,MacIntel,60.24096386,,,,,,,,,,,,,,,,,,,,,,715.9608,716.1589,716.159,716.6589,,,,,,,,,,,,,,4.6577,1,,,,,,,,,,,,,,m,,,,,,,,,,,,,,,,120,0,716.6596,721.3259,m,1,4.6577,,[],[],[],[],[],[],[],721.3262,723.3255,723.3256,723.3261,[],[],[],[],[],[],[],,723.3262,723.3264,-0.062555257,-0.068404006,0,0,0,,0,119,119,104,1,1,word,DOMINANT,cursive,dominant_c.png,,,,,,
,,,,32094,001,2025-10-16_17h50.47.121,HW_LDT_1,2024.2.4,MacIntel,60.24096386,,,,,,,,,,,,,,,,,,,,,,723.3295,723.5255,723.5255,724.0251,,,,,,,,,,,,,,2.8062,1,,,,,,,,,,,,,,z,,,,,,,,,,,,,,,,121,0,724.0256,726.8414,z,1,2.8062,,[],[],[],[],[],[],[],726.8414,728.8417,728.8418,728.8421,[],[],[],[],[],[],[],,728.8423,728.8424,-0.062555257,-0.068404006,0,0,0,,0,120,120,61,1,1,TL,mecidine,cursive,mecidine_c.png,,,,,,
,,,,32094,001,2025-10-16_17h50.47.121,HW_LDT_1,2024.2.4,MacIntel,60.24096386,,,,,,,,,,,,,,,,,,,,,,728.8444,729.0419,729.0421,729.5418,,,,,,,,,,,,,,1.3382,1,,,,,,,,,,,,,,m,,,,,,,,,,,,,,,,122,0,729.5427,730.8917,m,1,1.3382,,[],[],[],[],[],[],[],730.8919,732.8917,732.8917,732.8919,[],[],[],[],[],[],[],,732.8919,732.8921,-0.062555257,-0.068404006,0,0,0,,0,121,121,120,1,1,word,MILITARY,print,military_p.png,,,,,,
,,,,32094,001,2025-10-16_17h50.47.121,HW_LDT_1,2024.2.4,MacIntel,60.24096386,,,,,,,,,,,,,,,,,,,,,,732.8935,733.0912,733.0912,733.5917,,,,,,,,,,,,,,2.2146,1,,,,,,,,,,,,,,z,,,,,,,,,,,,,,,,123,0,733.5928,735.8083,z,1,2.2146,,[],[],[],[],[],[],[],735.8084,737.8081,737.8082,737.8083,[],[],[],[],[],[],[],,737.8083,737.8085,-0.062555257,-0.068404006,0,0,0,,0,122,122,1,1,1,RL,adnicory,cursive,adnicory_c.png,,,,,,
,,,,32094,001,2025-10-16_17h50.47.121,HW_LDT_1,2024.2.4,MacIntel,60.24096386,,,,,,,,,,,,,,,,,,,,,,737.8095,738.0082,738.0084,738.508,,,,,,,,,,,,,,0.9143,1,,,,,,,,,,,,,,z,,,,,,,,,,,,,,,,124,1,738.5088,739.4247,z,1,0.9143,,[],[],[],[],[],[],[],739.4248,741.4246,741.4246,742.5737,[],[],[],[],[],[],[],m,742.5738,742.5738,-0.062555257,-0.068404006,0,0,0,,0,123,123,8,1,1,RL,debave,print,debave_p.png,1.1388,,,,,
,,,,32094,001,2025-10-16_17h50.47.121,HW_LDT_1,2024.2.4,MacIntel,60.24096386,,,,,,,,,,,,,,,,,,,,,,742.5747,742.7746,742.7747,743.2746,,,,,,,,,,,,,,1.6816,1,,,,,,,,,,,,,,z,,,,,,,,,,,,,,,,125,0,743.2754,744.9579,z,1,1.6816,,[],[],[],[],[],[],[],744.9581,746.9578,746.9579,746.9581,[],[],[],[],[],[],[],,746.9582,746.9583,-0.062555257,-0.068404006,0,0,0,,0,124,124,33,1,1,RL,recile,cursive,recile_c.png,,,,,,
,,,,32094,001,2025-10-16_17h50.47.121,HW_LDT_1,2024.2.4,MacIntel,60.24096386,,,,,,,,,,,,,,,,,,,,,,746.9599,747.1578,747.1579,747.6578,,,,,,,,,,,,,,1.123,1,,,,,,,,,,,,,,m,,,,,,,,,,,,,,,,126,0,747.6589,748.7911,m,1,1.123,,[],[],[],[],[],[],[],748.7912,750.7906,750.7907,750.7909,[],[],[],[],[],[],[],,750.7909,750.7909,-0.062555257,-0.068404006,0,0,0,,0,125,125,131,1,1,word,POPULAR,cursive,popular_c.png,,,,,,
,,,,32094,001,2025-10-16_17h50.47.121,HW_LDT_1,2024.2.4,MacIntel,60.24096386,,,,,,,,,,,,,,,,,,,,,,750.7922,750.9912,750.9914,751.4911,,,,,,,,,,,,,,8.0871,1,,,,,,,,,,,,,,m,,,,,,,,,,,,,,,,127,0,751.4919,759.5906,m,1,8.0871,,[],[],[],[],[],[],[],759.5907,761.5902,761.5903,761.5904,[],[],[],[],[],[],[],,761.5904,761.5905,-0.062555257,-0.068404006,0,0,0,,0,126,126,134,1,1,word,QUALIFY,cursive,qualify_c.png,,,,,,
,,,,32094,001,2025-10-16_17h50.47.121,HW_LDT_1,2024.2.4,MacIntel,60.24096386,,,,,,,,,,,,,,,,,,,,,,761.6019,761.7907,761.7907,762.2906,,,,,,,,,,,,,,0.9043,1,,,,,,,,,,,,,,m,,,,,,,,,,,,,,,,128,0,762.2914,763.2072,m,1,0.9043,,[],[],[],[],[],[],[],763.2073,765.2071,765.2071,765.2073,[],[],[],[],[],[],[],,765.2074,765.2075,-0.062555257,-0.068404006,0,0,0,,0,127,127,124,1,1,word,NUMERICAL,print,numerical_p.png,,,,,,
,,,,32094,001,2025-10-16_17h50.47.121,HW_LDT_1,2024.2.4,MacIntel,60.24096386,,,,,,,,,,,,,,,,,,,,,,765.209,765.4072,765.4073,765.9061,,,,,,,,,,,,,,1.3383,1,,,,,,,,,,,,,,m,,,,,,,,,,,,,,,,129,0,765.9067,767.2567,m,1,1.3383,,[],[],[],[],[],[],[],767.2569,769.2569,769.257,769.2573,[],[],[],[],[],[],[],,769.2573,769.2577,-0.062555257,-0.068404006,0,0,0,,0,128,128,130,1,1,word,POLICY,cursive,policy_c.png,,,,,,
,,,,32094,001,2025-10-16_17h50.47.121,HW_LDT_1,2024.2.4,MacIntel,60.24096386,,,,,,,,,,,,,,,,,,,,,,769.2591,769.457,769.457,769.9569,,,,,,,,,,,,,,0.9228,1,,,,,,,,,,,,,,z,,,,,,,,,,,,,,,,130,0,769.9577,770.89,z,1,0.9228,,[],[],[],[],[],[],[],770.89,772.8902,772.8902,772.8906,[],[],[],[],[],[],[],,772.8906,772.8908,-0.062555257,-0.068404006,0,0,0,,0,129,129,11,1,1,RL,elacodate,print,elacodate_p.png,,,,,,
,,,,32094,001,2025-10-16_17h50.47.121,HW_LDT_1,2024.2.4,MacIntel,60.24096386,,,,,,,,,,,,,,,,,,,,,,772.8921,773.0902,773.0903,773.59,,,,,,,,,,,,,,1.0047,1,,,,,,,,,,,,,,m,,,,,,,,,,,,,,,,131,1,773.5909,774.6066,m,1,1.0047,,[],[],[],[],[],[],[],774.6067,776.6084,776.6086,778.1566,[],[],[],[],[],[],[],z,778.1567,778.157,-0.062555257,-0.068404006,0,0,0,,0,130,130,100,1,1,word,DECADE,print,decade_p.png,1.5381,,,,,
,,,,32094,001,2025-10-16_17h50.47.121,HW_LDT_1,2024.2.4,MacIntel,60.24096386,,,,,,,,,,,,,,,,,,,,,,778.1595,778.3566,778.3567,778.8566,,,,,,,,,,,,,,2.9706,0,,,,,,,,,,,,,,m,,,,,,,,,,,,,,,,132,0,778.8575,781.8398,z,0,2.9706,,[],[],[],[],[],[],[],781.8399,783.8395,783.8395,783.8396,[],[],[],[],[],[],[],,783.8396,783.8397,-0.062555257,-0.068404006,0,0,0,,0,131,131,125,1,1,word,OPERATOR,cursive,operator_c.png,,,,,,
,,,,32094,001,2025-10-16_17h50.47.121,HW_LDT_1,2024.2.4,MacIntel,60.24096386,,,,,,,,,,,,,,,,,,,,,,783.8405,784.0394,784.0394,784.5396,,,,,,,,,,,,,,0.8718,1,,,,,,,,,,,,,,m,,,,,,,,,,,,,,,,133,0,784.5413,785.4231,m,1,0.8718,,[],[],[],[],[],[],[],785.4232,787.4229,787.4229,787.4233,[],[],[],[],[],[],[],,787.4234,787.4236,-0.062555257,-0.068404006,0,0,0,,0,132,132,109,1,1,word,GRATEFUL,print,grateful_p.png,,,,,,
,,,,32094,001,2025-10-16_17h50.47.121,HW_LDT_1,2024.2.4,MacIntel,60.24096386,,,,,,,,,,,,,,,,,,,,,,787.4258,787.6227,787.6228,788.1227,,,,,,,,,,,,,,0.8413,1,,,,,,,,,,,,,,z,,,,,,,,,,,,,,,,134,0,788.1235,788.9728,z,1,0.8413,,[],[],[],[],[],[],[],788.9729,790.9726,790.9727,790.973,[],[],[],[],[],[],[],,790.9731,790.9731,-0.062555257,-0.068404006,0,0,0,,0,133,133,30,1,1,RL,relone,print,relone_p.png,,,,,,
,,,,32094,001,2025-10-16_17h50.47.121,HW_LDT_1,2024.2.4,MacIntel,60.24096386,,,,,,,,,,,,,,,,,,,,,,790.9747,791.1727,791.1727,791.672,,,,,,,,,,,,,,0.9578,1,,,,,,,,,,,,,,z,,,,,,,,,,,,,,,,135,0,791.6731,792.6391,z,1,0.9578,,[],[],[],[],[],[],[],792.6391,794.6394,794.6394,794.6397,[],[],[],[],[],[],[],,794.6397,794.6398,-0.062555257,-0.068404006,0,0,0,,0,134,134,46,1,1,TL,catipal,print,catipal_p.png,,,,,,
,,,,32094,001,2025-10-16_17h50.47.121,HW_LDT_1,2024.2.4,MacIntel,60.24096386,,,,,,,,,,,,,,,,,,,,,,794.6415,794.8387,794.8387,795.3393,,,,,,,,,,,,,,1.6203,1,,,,,,,,,,,,,,m,,,,,,,,,,,,,,,,136,0,795.3402,796.9717,m,1,1.6203,,[],[],[],[],[],[],[],796.9718,798.9725,798.9727,798.973,[],[],[],[],[],[],[],,798.9731,798.9734,-0.062555257,-0.068404006,0,0,0,,0,135,135,147,1,1,word,ROMANTIC,cursive,romantic_c.png,,,,,,
,,,,32094,001,2025-10-16_17h50.47.121,HW_LDT_1,2024.2.4,MacIntel,60.24096386,,,,,,,,,,,,,,,,,,,,,,798.9762,799.1725,799.1727,799.6724,,,,,,,,,,,,,,1.0707,1,,,,,,,,,,,,,,z,,,,,,,,,,,,,,,,137,0,799.6733,800.7551,z,1,1.0707,,[],[],[],[],[],[],[],800.7552,802.7552,802.7553,802.7556,[],[],[],[],[],[],[],,802.7556,802.7557,-0.062555257,-0.068404006,0,0,0,,0,136,136,12,1,1,RL,ebiwent,print,ebiwent_p.png,,,,,,
,,,,32094,001,2025-10-16_17h50.47.121,HW_LDT_1,2024.2.4,MacIntel,60.24096386,,,,,,,,,,,,,,,,,,,,,,802.7574,802.9557,802.9557,803.4555,,,,,,,,,,,,,,2.2936,1,,,,,,,,,,,,,,m,,,,,,,,,,,,,,,,138,0,803.4562,805.7551,m,1,2.2936,,[],[],[],[],[],[],[],805.7552,807.7552,807.7552,807.7553,[],[],[],[],[],[],[],,807.7554,807.7555,-0.062555257,-0.068404006,0,0,0,,0,137,137,132,1,1,word,PROPOSAL,cursive,proposal_c.png,,,,,,
,,,,32094,001,2025-10-16_17h50.47.121,HW_LDT_1,2024.2.4,MacIntel,60.24096386,,,,,,,,,,,,,,,,,,,,,,807.7563,807.9553,807.9554,808.4553,,,,,,,,,,,,,,0.7372,1,,,,,,,,,,,,,,z,,,,,,,,,,,,,,,,139,0,808.4564,809.2046,z,1,0.7372,,[],[],[],[],[],[],[],809.2047,811.2053,811.2054,811.2055,[],[],[],[],[],[],[],,811.2057,811.2058,-0.062555257,-0.068404006,0,0,0,,0,138,138,6,1,1,RL,crisival,print,crisival_p.png,,,,,,
,,,,32094,001,2025-10-16_17h50.47.121,HW_LDT_1,2024.2.4,MacIntel,60.24096386,,,,,,,,,,,,,,,,,,,,,,811.2069,811.4042,811.4043,811.9053,,,,,,,,,,,,,,0.8935,1,,,,,,,,,,,,,,m,,,,,,,,,,,,,,,,140,0,811.906,812.805,m,1,0.8935,,[],[],[],[],[],[],[],812.8051,814.805,814.8051,814.8053,[],[],[],[],[],[],[],,814.8054,814.8056,-0.062555257,-0.068404006,0,0,0,,0,139,139,84,1,1,word,BELOVED,print,beloved_p.png,,,,,,
,,,,32094,001,2025-10-16_17h50.47.121,HW_LDT_1,2024.2.4,MacIntel,60.24096386,,,,,,,,,,,,,,,,,,,,,,814.807,815.005,815.0051,815.505,,,,,,,,,,,,,,1.321,1,,,,,,,,,,,,,,z,,,,,,,,,,,,,,,,141,0,815.5057,816.8384,z,1,1.321,,[],[],[],[],[],[],[],816.8385,818.8384,818.8387,818.839,[],[],[],[],[],[],[],,818.8391,818.8392,-0.062555257,-0.068404006,0,0,0,,0,140,140,79,1,1,TL,veretan,print,veretan_p.png,,,,,,
,,,,32094,001,2025-10-16_17h50.47.121,HW_LDT_1,2024.2.4,MacIntel,60.24096386,,,,,,,,,,,,,,,,,,,,,,818.8409,819.0382,819.0383,819.5382,,,,,,,,,,,,,,1.1539,1,,,,,,,,,,,,,,m,,,,,,,,,,,,,,,,142,0,819.5392,820.7046,m,1,1.1539,,[],[],[],[],[],[],[],820.7046,822.7044,822.7045,822.7046,[],[],[],[],[],[],[],,822.7047,822.7047,-0.062555257,-0.068404006,0,0,0,,0,141,141,157,1,1,word,VALIDITY,cursive,validity_c.png,,,,,,
,,,,32094,001,2025-10-16_17h50.47.121,HW_LDT_1,2024.2.4,MacIntel,60.24096386,,,,,,,,,,,,,,,,,,,,,,822.7056,822.9047,822.9047,823.4038,,,,,,,,,,,,,,1.7389,0,,,,,,,,,,,,,,m,,,,,,,,,,,,,,,,143,0,823.4043,825.1546,z,0,1.7389,,[],[],[],[],[],[],[],825.1547,827.1544,827.1545,827.1547,[],[],[],[],[],[],[],,827.1547,827.1549,-0.062555257,-0.068404006,0,0,0,,0,142,142,144,1,1,word,RESIDENT,print,resident_p.png,,,,,,
,,,,32094,001,2025-10-16_17h50.47.121,HW_LDT_1,2024.2.4,MacIntel,60.24096386,,,,,,,,,,,,,,,,,,,,,,827.1564,827.3545,827.3545,827.8542,,,,,,,,,,,,,,1.1433,1,,,,,,,,,,,,,,m,,,,,,,,,,,,,,,,144,0,827.8549,829.0044,m,1,1.1433,,[],[],[],[],[],[],[],829.0045,831.0043,831.0044,831.0046,[],[],[],[],[],[],[],,831.0047,831.0049,-0.062555257,-0.068404006,0,0,0,,0,143,143,114,1,1,word,LOCATE,print,locate_p.png,,,,,,
,,,,32094,001,2025-10-16_17h50.47.121,HW_LDT_1,2024.2.4,MacIntel,60.24096386,,,,,,,,,,,,,,,,,,,,,,831.0063,831.2044,831.2045,831.7045,,,,,,,,,,,,,,1.0763,1,,,,,,,,,,,,,,z,,,,,,,,,,,,,,,,145,0,831.7053,832.7873,z,1,1.0763,,[],[],[],[],[],[],[],832.7874,834.7876,834.7876,834.7882,[],[],[],[],[],[],[],,834.7883,834.7885,-0.062555257,-0.068404006,0,0,0,,0,144,144,15,1,1,RL,losipal,cursive,losipal_c.png,,,,,,
,,,,32094,001,2025-10-16_17h50.47.121,HW_LDT_1,2024.2.4,MacIntel,60.24096386,,,,,,,,,,,,,,,,,,,,,,834.7899,834.9877,834.9877,835.4875,,,,,,,,,,,,,,0.8375,1,,,,,,,,,,,,,,z,,,,,,,,,,,,,,,,146,0,835.4883,836.3372,z,1,0.8375,,[],[],[],[],[],[],[],836.3374,838.3373,838.3374,838.3377,[],[],[],[],[],[],[],,838.3378,838.3379,-0.062555257,-0.068404006,0,0,0,,0,145,145,43,1,1,TL,bedise,print,bedise_p.png,,,,,,
,,,,32094,001,2025-10-16_17h50.47.121,HW_LDT_1,2024.2.4,MacIntel,60.24096386,,,,,,,,,,,,,,,,,,,,,,838.3395,838.5375,838.5376,839.0374,,,,,,,,,,,,,,3.054,1,,,,,,,,,,,,,,z,,,,,,,,,,,,,,,,147,0,839.0384,842.1038,z,1,3.054,,[],[],[],[],[],[],[],842.1038,844.1036,844.1037,844.1038,[],[],[],[],[],[],[],,844.1038,844.1039,-0.062555257,-0.068404006,0,0,0,,0,146,146,48,1,1,TL,cemerony,cursive,cemerony_c.png,,,,,,
,,,,32094,001,2025-10-16_17h50.47.121,HW_LDT_1,2024.2.4,MacIntel,60.24096386,,,,,,,,,,,,,,,,,,,,,,844.1048,844.3039,844.3039,844.8034,,,,,,,,,,,,,,0.8584,1,,,,,,,,,,,,,,z,,,,,,,,,,,,,,,,148,0,844.8037,845.6708,z,1,0.8584,,[],[],[],[],[],[],[],845.6709,847.6705,847.6705,847.671,[],[],[],[],[],[],[],,847.671,847.6711,-0.062555257,-0.068404006,0,0,0,,0,147,147,54,1,1,TL,distupe,cursive,distupe_c.png,,,,,,
,,,,32094,001,2025-10-16_17h50.47.121,HW_LDT_1,2024.2.4,MacIntel,60.24096386,,,,,,,,,,,,,,,,,,,,,,847.6728,847.8703,847.8704,848.3704,,,,,,,,,,,,,,2.404,1,,,,,,,,,,,,,,m,,,,,,,,,,,,,,,,149,0,848.3713,850.787,m,1,2.404,,[],[],[],[],[],[],[],850.7872,852.7868,852.7871,852.7873,[],[],[],[],[],[],[],,852.7874,852.7875,-0.062555257,-0.068404006,0,0,0,,0,148,148,143,1,1,word,REMOVAL,cursive,removal_c.png,,,,,,
,,,,32094,001,2025-10-16_17h50.47.121,HW_LDT_1,2024.2.4,MacIntel,60.24096386,,,,,,,,,,,,,,,,,,,,,,852.7889,852.9869,852.9869,853.4869,,,,,,,,,,,,,,0.8629,1,,,,,,,,,,,,,,z,,,,,,,,,,,,,,,,150,1,853.4877,854.3535,z,1,0.8629,,[],[],[],[],[],[],[],854.3537,856.3533,856.3534,857.52,[],[],[],[],[],[],[],z,857.5201,857.5204,-0.062555257,-0.068404006,0,0,0,,0,149,149,9,1,1,RL,docirant,cursive,docirant_c.png,1.1558,,,,,
,,,,32094,001,2025-10-16_17h50.47.121,HW_LDT_1,2024.2.4,MacIntel,60.24096386,,,,,,,,,,,,,,,,,,,,,,857.522,857.7201,857.7201,858.2199,,,,,,,,,,,,,,1.1225,1,,,,,,,,,,,,,,z,,,,,,,,,,,,,,,,151,0,858.2209,859.3532,z,1,1.1225,,[],[],[],[],[],[],[],859.3534,861.3531,861.3532,861.3534,[],[],[],[],[],[],[],,861.3534,861.3535,-0.062555257,-0.068404006,0,0,0,,0,150,150,29,1,1,RL,refakive,cursive,refakive_c.png,,,,,,
,,,,32094,001,2025-10-16_17h50.47.121,HW_LDT_1,2024.2.4,MacIntel,60.24096386,,,,,,,,,,,,,,,,,,,,,,861.355,861.5532,861.5533,862.0533,,,,,,,,,,,,,,1.0392,1,,,,,,,,,,,,,,m,,,,,,,,,,,,,,,,152,0,862.0541,863.1027,m,1,1.0392,,[],[],[],[],[],[],[],863.1027,865.1024,865.1026,865.1027,[],[],[],[],[],[],[],,865.1028,865.103,-0.062555257,-0.068404006,0,0,0,,0,151,151,82,1,1,word,AMATEUR,print,amateur_p.png,,,,,,
,,,,32094,001,2025-10-16_17h50.47.121,HW_LDT_1,2024.2.4,MacIntel,60.24096386,,,,,,,,,,,,,,,,,,,,,,865.1042,865.303,865.3031,865.8031,,,,,,,,,,,,,,4.1237,1,,,,,,,,,,,,,,z,,,,,,,,,,,,,,,,153,0,865.8037,869.936,z,1,4.1237,,[],[],[],[],[],[],[],869.9362,871.9361,871.9361,871.9365,[],[],[],[],[],[],[],,871.9365,871.9366,-0.062555257,-0.068404006,0,0,0,,0,152,152,10,1,1,RL,efibor,cursive,efibor_c.png,,,,,,
,,,,32094,001,2025-10-16_17h50.47.121,HW_LDT_1,2024.2.4,MacIntel,60.24096386,,,,,,,,,,,,,,,,,,,,,,871.9377,872.1361,872.1362,872.636,,,,,,,,,,,,,,0.7709,1,,,,,,,,,,,,,,m,,,,,,,,,,,,,,,,154,1,872.6369,873.4197,m,1,0.7709,,[],[],[],[],[],[],[],873.4198,875.4193,875.4193,876.2692,[],[],[],[],[],[],[],m,876.2692,876.2694,-0.062555257,-0.068404006,0,0,0,,0,153,153,138,1,1,word,REFUSAL,print,refusal_p.png,0.8475,,,,,
,,,,32094,001,2025-10-16_17h50.47.121,HW_LDT_1,2024.2.4,MacIntel,60.24096386,,,,,,,,,,,,,,,,,,,,,,876.2707,876.4692,876.4694,876.9695,,,,,,,,,,,,,,1.908,1,,,,,,,,,,,,,,z,,,,,,,,,,,,,,,,155,0,876.9701,878.8851,z,1,1.908,,[],[],[],[],[],[],[],878.8852,880.8856,880.8857,880.8863,[],[],[],[],[],[],[],,880.8863,880.8865,-0.062555257,-0.068404006,0,0,0,,0,154,154,13,1,1,RL,linefal,print,linefal_p.png,,,,,,
,,,,32094,001,2025-10-16_17h50.47.121,HW_LDT_1,2024.2.4,MacIntel,60.24096386,,,,,,,,,,,,,,,,,,,,,,880.8878,881.0857,881.0858,881.5857,,,,,,,,,,,,,,0.7724,1,,,,,,,,,,,,,,m,,,,,,,,,,,,,,,,156,0,881.5866,882.3687,m,1,0.7724,,[],[],[],[],[],[],[],882.3688,884.3689,884.369,884.3692,[],[],[],[],[],[],[],,884.3693,884.3695,-0.062555257,-0.068404006,0,0,0,,0,155,155,90,1,1,word,CAPITAL,print,capital_p.png,,,,,,
,,,,32094,001,2025-10-16_17h50.47.121,HW_LDT_1,2024.2.4,MacIntel,60.24096386,,,,,,,,,,,,,,,,,,,,,,884.3707,884.5683,884.5683,885.0688,,,,,,,,,,,,,,1.7725,1,,,,,,,,,,,,,,z,,,,,,,,,,,,,,,,157,0,885.0699,886.8516,z,1,1.7725,,[],[],[],[],[],[],[],886.8517,888.8512,888.8513,888.8515,[],[],[],[],[],[],[],,888.8515,888.8517,-0.062555257,-0.068404006,0,0,0,,0,156,156,71,1,1,TL,regilion,cursive,regilion_c.png,,,,,,
,,,,32094,001,2025-10-16_17h50.47.121,HW_LDT_1,2024.2.4,MacIntel,60.24096386,,,,,,,,,,,,,,,,,,,,,,888.8535,889.052,889.0521,889.552,,,,,,,,,,,,,,0.6564,1,,,,,,,,,,,,,,z,,,,,,,,,,,,,,,,158,0,889.553,890.2195,z,1,0.6564,,[],[],[],[],[],[],[],890.2196,892.2186,892.2188,892.2193,[],[],[],[],[],[],[],,892.2194,892.2195,-0.062555257,-0.068404006,0,0,0,,0,157,157,24,1,1,RL,probice,print,probice_p.png,,,,,,
,,,,32094,001,2025-10-16_17h50.47.121,HW_LDT_1,2024.2.4,MacIntel,60.24096386,,,,,,,,,,,,,,,,,,,,,,892.2208,892.4185,892.4185,892.9185,,,,,,,,,,,,,,0.7233,1,,,,,,,,,,,,,,m,,,,,,,,,,,,,,,,159,0,892.9193,893.6519,m,1,0.7233,,[],[],[],[],[],[],[],893.652,895.6517,895.6518,895.652,[],[],[],[],[],[],[],,895.6521,895.6522,-0.062555257,-0.068404006,0,0,0,,0,158,158,83,1,1,word,ANIMAL,print,animal_p.png,,,,,,
,,,,32094,001,2025-10-16_17h50.47.121,HW_LDT_1,2024.2.4,MacIntel,60.24096386,,,,,,,,,,,,,,,,,,,,,,895.6537,895.8519,895.852,896.3517,,,,,,,,,,,,,,1.7383,1,,,,,,,,,,,,,,z,,,,,,,,,,,,,,,,160,0,896.3529,898.1017,z,1,1.7383,,[],[],[],[],[],[],[],898.1019,900.1016,900.1016,900.1018,[],[],[],[],[],[],[],,900.1018,900.1019,-0.062555257,-0.068404006,0,0,0,,0,159,159,49,1,1,TL,clicinal,cursive,clicinal_c.png,,,,,,
,,,,32094,001,2025-10-16_17h50.47.121,HW_LDT_1,2024.2.4,MacIntel,60.24096386,,,,,,,,,,,,,,,,,,,,,,,,,,,,,,,,,,,,,,,,,,,,,,,,,,,,,,,,,,,,,,,,,,,,,,,,,,,,,,,,,,,,,,,,,,,,,,,,,,,,,,,,,,,,,,,,,,,,,,,900.1207,905.1034
