counterbalance_lists.group,counterbalance_lists.remaining,get_list.started,get_list.stopped,participant,session,date,expName,psychopyVersion,OS,frameRate,Instructions.started,Instructions.stopped,key_resp.keys,instr_done_touch.x,instr_done_touch.y,instr_done_touch.leftButton,instr_done_touch.midButton,instr_done_touch.rightButton,instr_done_touch.clicked_name,start_instr.thisRepN,start_instr.thisTrialN,start_instr.thisN,start_instr.thisIndex,start_instr.ran,pageN,phase,instruct_text,has_image,instruct_image,key_resp.rt,key_resp.duration,showProgress.started,showProgress.stopped,fix.started,fix.stopped,prac.started,prac.stopped,response.keys,response.corr,response.rt,response.duration,touch_resp.x,touch_resp.y,touch_resp.leftButton,touch_resp.midButton,touch_resp.rightButton,touch_resp.time,touch_resp.clicked_name,rt,corr,feedback.started,feedback.stopped,trials.thisRepN,trials.thisTrialN,trials.thisN,trials.thisIndex,trials.ran,TrialID,StimulusType,Condition,PrimeDuration,Prime,Target,corrAns,Instructions_expt.started,Instructions_expt.stopped,key_resp_3.keys,key_resp_3.rt,key_resp_3.duration,instr_done_touch_3.x,instr_done_touch_3.y,instr_done_touch_3.leftButton,instr_done_touch_3.midButton,instr_done_touch_3.rightButton,instr_experiment.thisRepN,instr_experiment.thisTrialN,instr_experiment.thisN,instr_experiment.thisIndex,instr_experiment.ran,trialID,flag,maintask.started,maintask.stopped,key_resp_2.keys,key_resp_2.corr,key_resp_2.rt,key_resp_2.duration,targ_click.x,targ_click.y,targ_click.leftButton,targ_click.midButton,targ_click.rightButton,targ_click.time,targ_click.clicked_name,ITI.started,ITI.stopped,probe.started,probe.stopped,click_probe.x,click_probe.y,click_probe.leftButton,click_probe.midButton,click_probe.rightButton,click_probe.time,click_probe.clicked_name,key_resp_probe.keys,Break.started,Break.stopped,break_done_touch.x,break_done_touch.y,break_done_touch.leftButton,break_done_touch.midButton,break_done_touch.rightButton,break_done_keyboard.keys,list3_trials.thisRepN,list3_trials.thisTrialN,list3_trials.thisN,list3_trials.thisIndex,list3_trials.ran,list_id,item_type,string,font,stim_file,key_resp_probe.rt,key_resp_probe.duration,break_done_touch.clicked_name,End.started,End.stopped
list3,,0.493,0.493,32092,001,2025-12-02_21h46.43.709,HW_LDT_1,2024.2.4,MacIntel,29.41176471,,,,,,,,,,,,,,,,,,,,,,,,,,,,,,,,,,,,,,,,,,,,,,,,,,,,,,,,,,,,,,,,,,,,,,,,,,,,,,,,,,,,,,,,,,,,,,,,,,,,,,,,,,,,,,,,,,,,,,,
,,,,32092,001,2025-12-02_21h46.43.709,HW_LDT_1,2024.2.4,MacIntel,29.41176471,0.511,1.937,,0.014444444,-0.38,1,0,0,instr_done_button,0,0,0,0,1,1,instructions,"INSTRUCTIONS
At the start of each trial, look at the plus sign  (+) in the center of the screen.  This tells you that a trial is about to begin and where to look. Second, the plus sign will disappear and a string of letters will appear. Your task is to determine if the string of letters is a word or not. If the item is a word press the M key (on keyboard)  or touch the word button (phone/tablet).  If the item is not a word,  press the  Z key (on keyboard)  or touch the nonword button (on phone/tablet). The items will be presented for a short time. 
Press the space bar or touch  continue.",0,,,,,,,,,,,,,,,,,,,,,,,,,,,,,,,,,,,,,,,,,,,,,,,,,,,,,,,,,,,,,,,,,,,,,,,,,,,,,,,,,,,,,,,,,,,,,,,,,,,,,
,,,,32092,001,2025-12-02_21h46.43.709,HW_LDT_1,2024.2.4,MacIntel,29.41176471,1.938,8.736,space,0.014444444,-0.38,0,0,0,,0,1,1,1,1,2,instructions,"If your device has a keyboard, press the 'Z' key for nonwords and the 'M' key for words.





Press the space bar or touch the button below to continue.",0,keyboard-example.gif,6.752,,,,,,,,,,,,,,,,,,,,,,,,,,,,,,,,,,,,,,,,,,,,,,,,,,,,,,,,,,,,,,,,,,,,,,,,,,,,,,,,,,,,,,,,,,,,,,,,,,,
,,,,32092,001,2025-12-02_21h46.43.709,HW_LDT_1,2024.2.4,MacIntel,29.41176471,8.738,11.237,space,0.014444444,-0.38,0,0,0,,0,2,2,2,1,3,instructions,"If you are using a touchscreen only device, use the buttons on the screen. Do not use the mouse.





Press the space bar or touch the button below to continue.",0,touchscreen-example.gif,2.481,,,,,,,,,,,,,,,,,,,,,,,,,,,,,,,,,,,,,,,,,,,,,,,,,,,,,,,,,,,,,,,,,,,,,,,,,,,,,,,,,,,,,,,,,,,,,,,,,,,
,,,,32092,001,2025-12-02_21h46.43.709,HW_LDT_1,2024.2.4,MacIntel,29.41176471,11.242,25.172,space,0.014444444,-0.38,0,0,0,,0,3,3,3,1,4,instructions,"It is very important that you respond as quickly and accurately as possible, as each letter string will only be on the screen for two seconds. If you do not respond within this time, the message 'Too slow!' will be displayed and the experiment will progress to the next letter string. The first 20 trials will be practice trials and you will receive feedback on your answers. 

Press the space bar or touch the button below to start the practice trials.",0,,13.898,,,,,,,,,,,,,,,,,,,,,,,,,,,,,,,,,,,,,,,,,,,,,,,,,,,,,,,,,,,,,,,,,,,,,,,,,,,,,,,,,,,,,,,,,,,,,,,,,,,
,,,,32092,001,2025-12-02_21h46.43.709,HW_LDT_1,2024.2.4,MacIntel,29.41176471,,,,,,,,,,,,,,,,,,,,,,25.209,25.371,25.371,25.871,25.872,27.772,z,1,1.865,,[],[],[],[],[],[],[],1.865,1,27.774,28.27,0,0,0,15,1,1016,NW,UN,16,mushed,WHAISE,z,,,,,,,,,,,,,,,,,,,,,,,,,,,,,,,,,,,,,,,,,,,,,,,,,,,,,,,,,,,,,,,,,
,,,,32092,001,2025-12-02_21h46.43.709,HW_LDT_1,2024.2.4,MacIntel,29.41176471,,,,,,,,,,,,,,,,,,,,,,28.272,28.471,28.471,28.971,28.973,30.605,m,1,1.606,,[],[],[],[],[],[],[],1.606,1,30.605,31.104,0,1,1,7,1,1008,WORD,UN,16,hurdle,VOLUME,m,,,,,,,,,,,,,,,,,,,,,,,,,,,,,,,,,,,,,,,,,,,,,,,,,,,,,,,,,,,,,,,,,
,,,,32092,001,2025-12-02_21h46.43.709,HW_LDT_1,2024.2.4,MacIntel,29.41176471,,,,,,,,,,,,,,,,,,,,,,31.107,31.303,31.304,31.804,31.807,32.438,m,1,0.603,,[],[],[],[],[],[],[],0.603,1,32.438,32.938,0,2,2,4,1,1005,WORD,UN,33,abound,SQUEAK,m,,,,,,,,,,,,,,,,,,,,,,,,,,,,,,,,,,,,,,,,,,,,,,,,,,,,,,,,,,,,,,,,,
,,,,32092,001,2025-12-02_21h46.43.709,HW_LDT_1,2024.2.4,MacIntel,29.41176471,,,,,,,,,,,,,,,,,,,,,,32.941,33.137,33.138,33.637,33.64,34.538,m,0,0.88,,[],[],[],[],[],[],[],0.88,0,34.54,35.038,0,3,3,10,1,1011,NW,"ID",16,inlade,INLADE,z,,,,,,,,,,,,,,,,,,,,,,,,,,,,,,,,,,,,,,,,,,,,,,,,,,,,,,,,,,,,,,,,,
,,,,32092,001,2025-12-02_21h46.43.709,HW_LDT_1,2024.2.4,MacIntel,29.41176471,,,,,,,,,,,,,,,,,,,,,,35.041,35.238,35.238,35.738,35.74,36.805,z,1,1.044,,[],[],[],[],[],[],[],1.044,1,36.807,37.304,0,4,4,9,1,1010,NW,"ID",33,fariny,FARINY,z,,,,,,,,,,,,,,,,,,,,,,,,,,,,,,,,,,,,,,,,,,,,,,,,,,,,,,,,,,,,,,,,,
,,,,32092,001,2025-12-02_21h46.43.709,HW_LDT_1,2024.2.4,MacIntel,29.41176471,,,,,,,,,,,,,,,,,,,,,,37.307,37.504,37.504,38.004,38.005,39.038,z,1,1.014,,[],[],[],[],[],[],[],1.014,1,39.039,39.538,0,5,5,11,1,1012,NW,"ID",16,rashet,RASHET,z,,,,,,,,,,,,,,,,,,,,,,,,,,,,,,,,,,,,,,,,,,,,,,,,,,,,,,,,,,,,,,,,,
,,,,32092,001,2025-12-02_21h46.43.709,HW_LDT_1,2024.2.4,MacIntel,29.41176471,,,,,,,,,,,,,,,,,,,,,,39.543,39.737,39.737,40.237,40.24,41.038,m,1,0.781,,[],[],[],[],[],[],[],0.781,1,41.038,41.539,0,6,6,0,1,1001,WORD,"ID",33,utopia,UTOPIA,m,,,,,,,,,,,,,,,,,,,,,,,,,,,,,,,,,,,,,,,,,,,,,,,,,,,,,,,,,,,,,,,,,
,,,,32092,001,2025-12-02_21h46.43.709,HW_LDT_1,2024.2.4,MacIntel,29.41176471,,,,,,,,,,,,,,,,,,,,,,41.543,41.738,41.738,42.238,42.24,43.305,z,1,1.04,,[],[],[],[],[],[],[],1.04,1,43.305,43.805,0,7,7,14,1,1015,NW,UN,16,miaber,THRALE,z,,,,,,,,,,,,,,,,,,,,,,,,,,,,,,,,,,,,,,,,,,,,,,,,,,,,,,,,,,,,,,,,,
,,,,32092,001,2025-12-02_21h46.43.709,HW_LDT_1,2024.2.4,MacIntel,29.41176471,,,,,,,,,,,,,,,,,,,,,,43.807,44.005,44.005,44.504,44.507,45.637,m,1,1.09,,[],[],[],[],[],[],[],1.09,1,45.637,46.137,0,8,8,5,1,1006,WORD,UN,33,frenzy,OBTAIN,m,,,,,,,,,,,,,,,,,,,,,,,,,,,,,,,,,,,,,,,,,,,,,,,,,,,,,,,,,,,,,,,,,
,,,,32092,001,2025-12-02_21h46.43.709,HW_LDT_1,2024.2.4,MacIntel,29.41176471,,,,,,,,,,,,,,,,,,,,,,46.14,46.338,46.338,46.838,46.84,47.538,m,1,0.657,,[],[],[],[],[],[],[],0.657,1,47.538,48.038,0,9,9,3,1,1004,WORD,"ID",16,matrix,MATRIX,m,,,,,,,,,,,,,,,,,,,,,,,,,,,,,,,,,,,,,,,,,,,,,,,,,,,,,,,,,,,,,,,,,
,,,,32092,001,2025-12-02_21h46.43.709,HW_LDT_1,2024.2.4,MacIntel,29.41176471,,,,,,,,,,,,,,,,,,,,,,48.041,48.237,48.237,48.738,48.74,49.571,z,1,0.788,,[],[],[],[],[],[],[],0.788,1,49.572,50.072,0,10,10,12,1,1013,NW,UN,33,adveil,SPRINY,z,,,,,,,,,,,,,,,,,,,,,,,,,,,,,,,,,,,,,,,,,,,,,,,,,,,,,,,,,,,,,,,,,
,,,,32092,001,2025-12-02_21h46.43.709,HW_LDT_1,2024.2.4,MacIntel,29.41176471,,,,,,,,,,,,,,,,,,,,,,50.074,50.271,50.271,50.771,50.773,51.441,z,0,0.646,,[],[],[],[],[],[],[],0.646,0,51.444,51.937,0,11,11,6,1,1007,WORD,UN,16,tropic,ZOMBIE,m,,,,,,,,,,,,,,,,,,,,,,,,,,,,,,,,,,,,,,,,,,,,,,,,,,,,,,,,,,,,,,,,,
,,,,32092,001,2025-12-02_21h46.43.709,HW_LDT_1,2024.2.4,MacIntel,29.41176471,,,,,,,,,,,,,,,,,,,,,,51.94,52.138,52.138,52.638,52.641,53.972,m,1,1.303,,[],[],[],[],[],[],[],1.303,1,53.974,54.471,0,12,12,1,1,1002,WORD,"ID",33,adjust,ADJUST,m,,,,,,,,,,,,,,,,,,,,,,,,,,,,,,,,,,,,,,,,,,,,,,,,,,,,,,,,,,,,,,,,,
,,,,32092,001,2025-12-02_21h46.43.709,HW_LDT_1,2024.2.4,MacIntel,29.41176471,,,,,,,,,,,,,,,,,,,,,,54.472,54.671,54.671,55.171,55.173,55.805,z,1,0.605,,[],[],[],[],[],[],[],0.605,1,55.805,56.304,0,13,13,13,1,1014,NW,UN,33,winfer,ROUPET,z,,,,,,,,,,,,,,,,,,,,,,,,,,,,,,,,,,,,,,,,,,,,,,,,,,,,,,,,,,,,,,,,,
,,,,32092,001,2025-12-02_21h46.43.709,HW_LDT_1,2024.2.4,MacIntel,29.41176471,,,,,,,,,,,,,,,,,,,,,,56.307,56.505,56.505,57.004,57.005,58.071,z,1,1.037,,[],[],[],[],[],[],[],1.037,1,58.072,58.572,0,14,14,8,1,1009,NW,"ID",33,aslert,ASLERT,z,,,,,,,,,,,,,,,,,,,,,,,,,,,,,,,,,,,,,,,,,,,,,,,,,,,,,,,,,,,,,,,,,
,,,,32092,001,2025-12-02_21h46.43.709,HW_LDT_1,2024.2.4,MacIntel,29.41176471,,,,,,,,,,,,,,,,,,,,,,58.576,58.771,58.771,59.272,59.275,60.172,m,1,0.854,,[],[],[],[],[],[],[],0.854,1,60.172,60.671,0,15,15,2,1,1003,WORD,"ID",16,almond,ALMOND,m,,,,,,,,,,,,,,,,,,,,,,,,,,,,,,,,,,,,,,,,,,,,,,,,,,,,,,,,,,,,,,,,,
,,,,32092,001,2025-12-02_21h46.43.709,HW_LDT_1,2024.2.4,MacIntel,29.41176471,,,,,,,,,,,,,,,1,end_of_practice,"You have completed the practice trials. During the experimental trials, you will not receive feedback. On some trials you will be asked to report whether the item you just saw was in cursive or print. 
Before you begin, please ensure that you are in a comfortable and quiet location and will not be disturbed for about 15 minutes, as we cannot use your data if you do not complete all the trials. 
 When you are ready to start the experimental trials, please press space or touch the button below.",,,,,,,,,,,,,,,,,,,,,,,,,,,,,,,,,,,,,,60.69,80.709,space,19.982,,0.045555556,-0.395555556,0,0,0,0,0,0,0,1,,,,,,,,,,,,,,,,,,,,,,,,,,,,,,,,,,,,,,,,,,,,,,,,,,
,,,,32092,001,2025-12-02_21h46.43.709,HW_LDT_1,2024.2.4,MacIntel,29.41176471,,,,,,,,,,,,,,,,,,,,,,80.765,80.91,80.91,81.406,,,,,,,,,,,,,,1.976,1,,,,,,,,,,,,,,z,,,,,,,,,,,,,,,,1,0,81.408,83.407,z,1,1.976,,[],[],[],[],[],[],[],83.407,85.406,85.407,85.426,[],[],[],[],[],[],[],,85.427,85.436,0.045555556,-0.395555556,0,0,0,,0,0,0,15,1,3,RL,mifikary,cursive,mifikary_c.png,,,,,
,,,,32092,001,2025-12-02_21h46.43.709,HW_LDT_1,2024.2.4,MacIntel,29.41176471,,,,,,,,,,,,,,,,,,,,,,85.437,85.639,85.639,86.138,,,,,,,,,,,,,,3.076,1,,,,,,,,,,,,,,z,,,,,,,,,,,,,,,,2,0,86.139,89.239,z,1,3.076,,[],[],[],[],[],[],[],89.24,91.24,91.24,91.242,[],[],[],[],[],[],[],,91.242,91.243,0.045555556,-0.395555556,0,0,0,,0,1,1,66,1,3,TL,retalive,cursive,retalive_c.png,,,,,
,,,,32092,001,2025-12-02_21h46.43.709,HW_LDT_1,2024.2.4,MacIntel,29.41176471,,,,,,,,,,,,,,,,,,,,,,91.248,91.439,91.439,91.939,,,,,,,,,,,,,,1.374,1,,,,,,,,,,,,,,z,,,,,,,,,,,,,,,,3,0,91.939,93.34,z,1,1.374,,[],[],[],[],[],[],[],93.34,95.34,95.34,95.34,[],[],[],[],[],[],[],,95.341,95.341,0.045555556,-0.395555556,0,0,0,,0,2,2,74,1,3,TL,spemicen,print,spemicen_p.png,,,,,
,,,,32092,001,2025-12-02_21h46.43.709,HW_LDT_1,2024.2.4,MacIntel,29.41176471,,,,,,,,,,,,,,,,,,,,,,95.343,95.539,95.539,96.04,,,,,,,,,,,,,,2.502,1,,,,,,,,,,,,,,z,,,,,,,,,,,,,,,,4,0,96.041,98.573,z,1,2.502,,[],[],[],[],[],[],[],98.574,100.573,100.573,100.574,[],[],[],[],[],[],[],,100.574,100.575,0.045555556,-0.395555556,0,0,0,,0,3,3,5,1,3,RL,capefory,cursive,capefory_c.png,,,,,
,,,,32092,001,2025-12-02_21h46.43.709,HW_LDT_1,2024.2.4,MacIntel,29.41176471,,,,,,,,,,,,,,,,,,,,,,100.578,100.773,100.773,101.273,,,,,,,,,,,,,,1.276,1,,,,,,,,,,,,,,m,,,,,,,,,,,,,,,,5,0,101.274,102.573,m,1,1.276,,[],[],[],[],[],[],[],102.573,104.574,104.575,104.576,[],[],[],[],[],[],[],,104.576,104.577,0.045555556,-0.395555556,0,0,0,,0,4,4,88,1,3,word,CAMERA,cursive,camera_c.png,,,,,
,,,,32092,001,2025-12-02_21h46.43.709,HW_LDT_1,2024.2.4,MacIntel,29.41176471,,,,,,,,,,,,,,,,,,,,,,104.579,104.774,104.774,105.274,,,,,,,,,,,,,,0.785,1,,,,,,,,,,,,,,m,,,,,,,,,,,,,,,,6,0,105.275,106.074,m,1,0.785,,[],[],[],[],[],[],[],106.074,108.073,108.073,108.073,[],[],[],[],[],[],[],,108.074,108.074,0.045555556,-0.395555556,0,0,0,,0,5,5,80,1,3,word,ACADEMY,print,academy_p.png,,,,,
,,,,32092,001,2025-12-02_21h46.43.709,HW_LDT_1,2024.2.4,MacIntel,29.41176471,,,,,,,,,,,,,,,,,,,,,,108.075,108.273,108.275,108.774,,,,,,,,,,,,,,0.787,1,,,,,,,,,,,,,,m,,,,,,,,,,,,,,,,7,0,108.775,109.574,m,1,0.787,,[],[],[],[],[],[],[],109.574,111.574,111.574,111.575,[],[],[],[],[],[],[],,111.575,111.576,0.045555556,-0.395555556,0,0,0,,0,6,6,116,1,3,word,MARGINAL,print,marginal_p.png,,,,,
,,,,32092,001,2025-12-02_21h46.43.709,HW_LDT_1,2024.2.4,MacIntel,29.41176471,,,,,,,,,,,,,,,,,,,,,,111.579,111.774,111.774,112.274,,,,,,,,,,,,,,0.604,1,,,,,,,,,,,,,,m,,,,,,,,,,,,,,,,8,0,112.275,112.907,m,1,0.604,,[],[],[],[],[],[],[],112.907,114.907,114.907,114.909,[],[],[],[],[],[],[],,114.909,114.909,0.045555556,-0.395555556,0,0,0,,0,7,7,135,1,3,word,QUALITY,print,quality_p.png,,,,,
,,,,32092,001,2025-12-02_21h46.43.709,HW_LDT_1,2024.2.4,MacIntel,29.41176471,,,,,,,,,,,,,,,,,,,,,,114.912,115.107,115.107,115.607,,,,,,,,,,,,,,0.886,1,,,,,,,,,,,,,,m,,,,,,,,,,,,,,,,9,0,115.608,116.507,m,1,0.886,,[],[],[],[],[],[],[],116.507,118.507,118.507,118.508,[],[],[],[],[],[],[],,118.508,118.508,0.045555556,-0.395555556,0,0,0,,0,8,8,107,1,3,word,EVIDENT,cursive,evident_c.png,,,,,
,,,,32092,001,2025-12-02_21h46.43.709,HW_LDT_1,2024.2.4,MacIntel,29.41176471,,,,,,,,,,,,,,,,,,,,,,118.511,118.707,118.707,119.207,,,,,,,,,,,,,,3.237,1,,,,,,,,,,,,,,m,,,,,,,,,,,,,,,,10,1,119.208,122.473,m,1,3.237,,[],[],[],[],[],[],[],122.474,124.474,124.474,127.841,[],[],[],[],[],[],[],z,127.841,127.842,0.045555556,-0.395555556,0,0,0,,0,9,9,109,1,3,word,GRATEFUL,cursive,grateful_c.png,3.341,,,,
,,,,32092,001,2025-12-02_21h46.43.709,HW_LDT_1,2024.2.4,MacIntel,29.41176471,,,,,,,,,,,,,,,,,,,,,,127.845,128.041,128.041,128.541,,,,,,,,,,,,,,1.236,1,,,,,,,,,,,,,,z,,,,,,,,,,,,,,,,11,0,128.542,129.808,z,1,1.236,,[],[],[],[],[],[],[],129.808,131.808,131.808,131.809,[],[],[],[],[],[],[],,131.809,131.809,0.045555556,-0.395555556,0,0,0,,0,10,10,29,1,3,RL,selamor,cursive,selamor_c.png,,,,,
,,,,32092,001,2025-12-02_21h46.43.709,HW_LDT_1,2024.2.4,MacIntel,29.41176471,,,,,,,,,,,,,,,,,,,,,,131.812,132.008,132.008,132.508,,,,,,,,,,,,,,1.288,1,,,,,,,,,,,,,,z,,,,,,,,,,,,,,,,12,1,132.509,133.807,z,1,1.288,,[],[],[],[],[],[],[],133.807,135.808,135.808,137.408,[],[],[],[],[],[],[],m,137.408,137.408,0.045555556,-0.395555556,0,0,0,,0,11,11,73,1,3,TL,speficic,print,speficic_p.png,1.572,,,,
,,,,32092,001,2025-12-02_21h46.43.709,HW_LDT_1,2024.2.4,MacIntel,29.41176471,,,,,,,,,,,,,,,,,,,,,,137.411,137.608,137.608,138.108,,,,,,,,,,,,,,1.639,1,,,,,,,,,,,,,,z,,,,,,,,,,,,,,,,13,0,138.109,139.775,z,1,1.639,,[],[],[],[],[],[],[],139.775,141.775,141.775,141.776,[],[],[],[],[],[],[],,141.776,141.776,0.045555556,-0.395555556,0,0,0,,0,12,12,79,1,3,TL,veretan,cursive,veretan_c.png,,,,,
,,,,32092,001,2025-12-02_21h46.43.709,HW_LDT_1,2024.2.4,MacIntel,29.41176471,,,,,,,,,,,,,,,,,,,,,,141.779,141.975,141.975,142.475,,,,,,,,,,,,,,2.986,1,,,,,,,,,,,,,,z,,,,,,,,,,,,,,,,14,0,142.476,145.475,z,1,2.986,,[],[],[],[],[],[],[],145.475,147.475,147.475,147.476,[],[],[],[],[],[],[],,147.476,147.476,0.045555556,-0.395555556,0,0,0,,0,13,13,14,1,3,RL,lofase,cursive,lofase_c.png,,,,,
,,,,32092,001,2025-12-02_21h46.43.709,HW_LDT_1,2024.2.4,MacIntel,29.41176471,,,,,,,,,,,,,,,,,,,,,,147.479,147.675,147.675,148.175,,,,,,,,,,,,,,2.388,1,,,,,,,,,,,,,,z,,,,,,,,,,,,,,,,15,1,148.176,150.575,z,1,2.388,,[],[],[],[],[],[],[],150.575,152.575,152.575,153.875,[],[],[],[],[],[],[],z,153.875,153.876,0.045555556,-0.395555556,0,0,0,,0,14,14,78,1,3,TL,vecolity,cursive,vecolity_c.png,1.279,,,,
,,,,32092,001,2025-12-02_21h46.43.709,HW_LDT_1,2024.2.4,MacIntel,29.41176471,,,,,,,,,,,,,,,,,,,,,,153.878,154.074,154.075,154.575,,,,,,,,,,,,,,0.669,1,,,,,,,,,,,,,,m,,,,,,,,,,,,,,,,16,0,154.576,155.275,m,1,0.669,,[],[],[],[],[],[],[],155.276,157.274,157.275,157.275,[],[],[],[],[],[],[],,157.275,157.275,0.045555556,-0.395555556,0,0,0,,0,15,15,105,1,3,word,EDITOR,print,editor_p.png,,,,,
,,,,32092,001,2025-12-02_21h46.43.709,HW_LDT_1,2024.2.4,MacIntel,29.41176471,,,,,,,,,,,,,,,,,,,,,,157.278,157.476,157.476,157.975,,,,,,,,,,,,,,1.006,1,,,,,,,,,,,,,,z,,,,,,,,,,,,,,,,17,0,157.976,159.009,z,1,1.006,,[],[],[],[],[],[],[],159.009,161.008,161.008,161.009,[],[],[],[],[],[],[],,161.009,161.009,0.045555556,-0.395555556,0,0,0,,0,16,16,26,1,3,RL,repifion,print,repifion_p.png,,,,,
,,,,32092,001,2025-12-02_21h46.43.709,HW_LDT_1,2024.2.4,MacIntel,29.41176471,,,,,,,,,,,,,,,,,,,,,,161.012,161.209,161.209,161.708,,,,,,,,,,,,,,0.89,1,,,,,,,,,,,,,,m,,,,,,,,,,,,,,,,18,0,161.709,162.609,m,1,0.89,,[],[],[],[],[],[],[],162.609,164.609,164.609,164.61,[],[],[],[],[],[],[],,164.61,164.61,0.045555556,-0.395555556,0,0,0,,0,17,17,159,1,3,word,VETERAN,cursive,veteran_c.png,,,,,
,,,,32092,001,2025-12-02_21h46.43.709,HW_LDT_1,2024.2.4,MacIntel,29.41176471,,,,,,,,,,,,,,,,,,,,,,164.613,164.809,164.809,165.309,,,,,,,,,,,,,,1.536,1,,,,,,,,,,,,,,z,,,,,,,,,,,,,,,,19,0,165.31,166.876,z,1,1.536,,[],[],[],[],[],[],[],166.876,168.876,168.876,168.877,[],[],[],[],[],[],[],,168.877,168.877,0.045555556,-0.395555556,0,0,0,,0,18,18,11,1,3,RL,ebiwent,cursive,ebiwent_c.png,,,,,
,,,,32092,001,2025-12-02_21h46.43.709,HW_LDT_1,2024.2.4,MacIntel,29.41176471,,,,,,,,,,,,,,,,,,,,,,168.88,169.075,169.075,169.576,,,,,,,,,,,,,,1.053,1,,,,,,,,,,,,,,z,,,,,,,,,,,,,,,,20,0,169.577,170.643,z,1,1.053,,[],[],[],[],[],[],[],170.643,172.643,172.643,172.644,[],[],[],[],[],[],[],,172.644,172.644,0.045555556,-0.395555556,0,0,0,,0,19,19,18,1,3,RL,onegator,print,onegator_p.png,,,,,
,,,,32092,001,2025-12-02_21h46.43.709,HW_LDT_1,2024.2.4,MacIntel,29.41176471,,,,,,,,,,,,,,,,,,,,,,172.647,172.843,172.843,173.342,,,,,,,,,,,,,,0.77,1,,,,,,,,,,,,,,z,,,,,,,,,,,,,,,,21,0,173.343,174.143,z,1,0.77,,[],[],[],[],[],[],[],174.143,176.143,176.143,176.144,[],[],[],[],[],[],[],,176.144,176.144,0.045555556,-0.395555556,0,0,0,,0,20,20,67,1,3,TL,retome,print,retome_p.png,,,,,
,,,,32092,001,2025-12-02_21h46.43.709,HW_LDT_1,2024.2.4,MacIntel,29.41176471,,,,,,,,,,,,,,,,,,,,,,176.146,176.343,176.343,176.843,,,,,,,,,,,,,,1.143,1,,,,,,,,,,,,,,z,,,,,,,,,,,,,,,,22,1,176.843,178.01,z,1,1.143,,[],[],[],[],[],[],[],178.01,180.01,180.01,182.076,[],[],[],[],[],[],[],m,182.077,182.077,0.045555556,-0.395555556,0,0,0,,0,21,21,45,1,3,TL,dentisy,print,dentisy_p.png,2.058,,,,
,,,,32092,001,2025-12-02_21h46.43.709,HW_LDT_1,2024.2.4,MacIntel,29.41176471,,,,,,,,,,,,,,,,,,,,,,182.082,182.276,182.276,182.775,,,,,,,,,,,,,,0.729,0,,,,,,,,,,,,,,z,,,,,,,,,,,,,,,,23,0,182.776,183.509,m,0,0.729,,[],[],[],[],[],[],[],183.51,185.51,185.51,185.51,[],[],[],[],[],[],[],,185.51,185.511,0.045555556,-0.395555556,0,0,0,,0,22,22,58,1,3,TL,nuremical,print,nuremical_p.png,,,,,
,,,,32092,001,2025-12-02_21h46.43.709,HW_LDT_1,2024.2.4,MacIntel,29.41176471,,,,,,,,,,,,,,,,,,,,,,185.513,185.71,185.71,186.209,,,,,,,,,,,,,,0.841,1,,,,,,,,,,,,,,m,,,,,,,,,,,,,,,,24,0,186.21,187.077,m,1,0.841,,[],[],[],[],[],[],[],187.077,189.076,189.076,189.077,[],[],[],[],[],[],[],,189.077,189.078,0.045555556,-0.395555556,0,0,0,,0,23,23,142,1,3,word,REMOTE,print,remote_p.png,,,,,
,,,,32092,001,2025-12-02_21h46.43.709,HW_LDT_1,2024.2.4,MacIntel,29.41176471,,,,,,,,,,,,,,,,,,,,,,189.08,189.276,189.276,189.777,,,,,,,,,,,,,,0.719,1,,,,,,,,,,,,,,m,,,,,,,,,,,,,,,,25,1,189.777,190.51,m,1,0.719,,[],[],[],[],[],[],[],190.51,192.51,192.51,193.643,[],[],[],[],[],[],[],m,193.644,193.644,0.045555556,-0.395555556,0,0,0,,0,24,24,98,1,3,word,CRIMINAL,print,criminal_p.png,1.121,,,,
,,,,32092,001,2025-12-02_21h46.43.709,HW_LDT_1,2024.2.4,MacIntel,29.41176471,,,,,,,,,,,,,,,,,,,,,,193.646,193.843,193.843,194.343,,,,,,,,,,,,,,0.855,1,,,,,,,,,,,,,,z,,,,,,,,,,,,,,,,26,0,194.344,195.21,z,1,0.855,,[],[],[],[],[],[],[],195.21,197.21,197.21,197.21,[],[],[],[],[],[],[],,197.21,197.211,0.045555556,-0.395555556,0,0,0,,0,25,25,21,1,3,RL,potugar,print,potugar_p.png,,,,,
,,,,32092,001,2025-12-02_21h46.43.709,HW_LDT_1,2024.2.4,MacIntel,29.41176471,,,,,,,,,,,,,,,,,,,,,,197.213,197.41,197.41,197.91,,,,,,,,,,,,,,3.442,1,,,,,,,,,,,,,,z,,,,,,,,,,,,,,,,27,0,197.911,201.377,z,1,3.442,,[],[],[],[],[],[],[],201.377,203.377,203.378,203.378,[],[],[],[],[],[],[],,203.378,203.379,0.045555556,-0.395555556,0,0,0,,0,26,26,59,1,3,TL,paficic,cursive,paficic_c.png,,,,,
,,,,32092,001,2025-12-02_21h46.43.709,HW_LDT_1,2024.2.4,MacIntel,29.41176471,,,,,,,,,,,,,,,,,,,,,,203.382,203.577,203.577,204.077,,,,,,,,,,,,,,1.403,1,,,,,,,,,,,,,,m,,,,,,,,,,,,,,,,28,0,204.078,205.51,m,1,1.403,,[],[],[],[],[],[],[],205.511,207.511,207.512,207.513,[],[],[],[],[],[],[],,207.513,207.514,0.045555556,-0.395555556,0,0,0,,0,27,27,100,1,3,word,DECADE,cursive,decade_c.png,,,,,
,,,,32092,001,2025-12-02_21h46.43.709,HW_LDT_1,2024.2.4,MacIntel,29.41176471,,,,,,,,,,,,,,,,,,,,,,207.516,207.71,207.711,208.211,,,,,,,,,,,,,,0.593,1,,,,,,,,,,,,,,m,,,,,,,,,,,,,,,,29,0,208.212,208.811,m,1,0.593,,[],[],[],[],[],[],[],208.811,210.81,210.811,210.811,[],[],[],[],[],[],[],,210.811,210.811,0.035555556,-0.394444444,0,0,0,,0,28,28,95,1,3,word,COMEDY,print,comedy_p.png,,,,,
,,,,32092,001,2025-12-02_21h46.43.709,HW_LDT_1,2024.2.4,MacIntel,29.41176471,,,,,,,,,,,,,,,,,,,,,,210.816,211.011,211.011,211.511,,,,,,,,,,,,,,0.822,1,,,,,,,,,,,,,,m,,,,,,,,,,,,,,,,30,0,211.512,212.343,m,1,0.822,,[],[],[],[],[],[],[],212.344,214.344,214.344,214.345,[],[],[],[],[],[],[],,214.345,214.345,0.035555556,-0.394444444,0,0,0,,0,29,29,138,1,3,word,REFUSAL,print,refusal_p.png,,,,,
,,,,32092,001,2025-12-02_21h46.43.709,HW_LDT_1,2024.2.4,MacIntel,29.41176471,,,,,,,,,,,,,,,,,,,,,,214.348,214.544,214.544,215.044,,,,,,,,,,,,,,0.59,1,,,,,,,,,,,,,,m,,,,,,,,,,,,,,,,31,0,215.045,215.645,m,1,0.59,,[],[],[],[],[],[],[],215.645,217.644,217.644,217.645,[],[],[],[],[],[],[],,217.645,217.645,0.035555556,-0.394444444,0,0,0,,0,30,30,124,1,3,word,NUMERICAL,print,numerical_p.png,,,,,
,,,,32092,001,2025-12-02_21h46.43.709,HW_LDT_1,2024.2.4,MacIntel,29.41176471,,,,,,,,,,,,,,,,,,,,,,217.648,217.844,217.844,218.344,,,,,,,,,,,,,,0.587,1,,,,,,,,,,,,,,m,,,,,,,,,,,,,,,,32,0,218.345,218.945,m,1,0.587,,[],[],[],[],[],[],[],218.945,220.944,220.944,220.945,[],[],[],[],[],[],[],,220.945,220.945,0.004444444,-0.378888889,0,0,0,,0,31,31,133,1,3,word,PROVIDE,print,provide_p.png,,,,,
,,,,32092,001,2025-12-02_21h46.43.709,HW_LDT_1,2024.2.4,MacIntel,29.41176471,,,,,,,,,,,,,,,,,,,,,,220.948,221.144,221.144,221.644,,,,,,,,,,,,,,1.053,0,,,,,,,,,,,,,,m,,,,,,,,,,,,,,,,33,1,221.645,222.711,z,0,1.053,,[],[],[],[],[],[],[],222.711,224.711,224.711,226.345,[],[],[],[],[],[],[],z,226.345,226.345,-0.027777778,-0.345555556,0,0,0,,0,32,32,108,1,3,word,FORTUNE,cursive,fortune_c.png,1.63,,,,
,,,,32092,001,2025-12-02_21h46.43.709,HW_LDT_1,2024.2.4,MacIntel,29.41176471,,,,,,,,,,,,,,,,,,,,,,226.349,226.544,226.544,227.045,,,,,,,,,,,,,,2.755,1,,,,,,,,,,,,,,m,,,,,,,,,,,,,,,,34,0,227.046,229.811,m,1,2.755,,[],[],[],[],[],[],[],229.812,231.811,231.811,231.812,[],[],[],[],[],[],[],,231.812,231.812,-0.027777778,-0.345555556,0,0,0,,0,33,33,90,1,3,word,CAPITAL,cursive,capital_c.png,,,,,
,,,,32092,001,2025-12-02_21h46.43.709,HW_LDT_1,2024.2.4,MacIntel,29.41176471,,,,,,,,,,,,,,,,,,,,,,231.815,232.011,232.011,232.511,,,,,,,,,,,,,,2.059,1,,,,,,,,,,,,,,z,,,,,,,,,,,,,,,,35,0,232.511,234.579,z,1,2.059,,[],[],[],[],[],[],[],234.579,236.578,236.578,236.579,[],[],[],[],[],[],[],,236.579,236.579,-0.027777778,-0.345555556,0,0,0,,0,34,34,71,1,3,TL,sanile,cursive,sanile_c.png,,,,,
,,,,32092,001,2025-12-02_21h46.43.709,HW_LDT_1,2024.2.4,MacIntel,29.41176471,,,,,,,,,,,,,,,,,,,,,,236.581,236.778,236.778,237.278,,,,,,,,,,,,,,0.936,1,,,,,,,,,,,,,,z,,,,,,,,,,,,,,,,36,0,237.279,238.245,z,1,0.936,,[],[],[],[],[],[],[],238.245,240.245,240.245,240.246,[],[],[],[],[],[],[],,240.246,240.247,-0.027777778,-0.345555556,0,0,0,,0,35,35,33,1,3,TL,adsivory,print,adsivory_p.png,,,,,
,,,,32092,001,2025-12-02_21h46.43.709,HW_LDT_1,2024.2.4,MacIntel,29.41176471,,,,,,,,,,,,,,,,,,,,,,240.249,240.445,240.446,240.945,,,,,,,,,,,,,,0.937,1,,,,,,,,,,,,,,z,,,,,,,,,,,,,,,,37,0,240.946,241.912,z,1,0.937,,[],[],[],[],[],[],[],241.912,243.912,243.912,243.913,[],[],[],[],[],[],[],,243.913,243.913,-0.027777778,-0.345555556,0,0,0,,0,36,36,72,1,3,TL,senmitent,print,senmitent_p.png,,,,,
,,,,32092,001,2025-12-02_21h46.43.709,HW_LDT_1,2024.2.4,MacIntel,29.41176471,,,,,,,,,,,,,,,,,,,,,,243.915,244.112,244.112,244.611,,,,,,,,,,,,,,0.773,1,,,,,,,,,,,,,,z,,,,,,,,,,,,,,,,38,0,244.612,245.411,z,1,0.773,,[],[],[],[],[],[],[],245.411,247.412,247.412,247.413,[],[],[],[],[],[],[],,247.413,247.413,-0.028888889,-0.345555556,0,0,0,,0,37,37,23,1,3,RL,quakity,print,quakity_p.png,,,,,
,,,,32092,001,2025-12-02_21h46.43.709,HW_LDT_1,2024.2.4,MacIntel,29.41176471,,,,,,,,,,,,,,,,,,,,,,247.416,247.612,247.612,248.112,,,,,,,,,,,,,,0.819,1,,,,,,,,,,,,,,m,,,,,,,,,,,,,,,,39,1,248.113,248.946,m,1,0.819,,[],[],[],[],[],[],[],248.946,250.945,250.946,253.478,[],[],[],[],[],[],[],z,253.478,253.479,-0.037777778,-0.353333333,0,0,0,,0,38,38,118,1,3,word,MEDICINE,print,medicine_p.png,2.531,,,,
,,,,32092,001,2025-12-02_21h46.43.709,HW_LDT_1,2024.2.4,MacIntel,29.41176471,,,,,,,,,,,,,,,,,,,,,,253.482,253.679,253.679,254.179,,,,,,,,,,,,,,0.779,1,,,,,,,,,,,,,,z,,,,,,,,,,,,,,,,40,1,254.18,254.979,z,1,0.779,,[],[],[],[],[],[],[],254.979,256.979,256.98,258.179,[],[],[],[],[],[],[],m,258.179,258.18,-0.037777778,-0.353333333,0,0,0,,0,39,39,53,1,3,TL,marnigal,print,marnigal_p.png,1.188,,,,
,,,,32092,001,2025-12-02_21h46.43.709,HW_LDT_1,2024.2.4,MacIntel,29.41176471,,,,,,,,,,,,,,,,,,,,,,258.182,258.379,258.379,258.879,,,,,,,,,,,,,,1.573,1,,,,,,,,,,,,,,z,,,,,,,,,,,,,,,,41,0,258.88,260.478,z,1,1.573,,[],[],[],[],[],[],[],260.478,262.479,262.479,262.48,[],[],[],[],[],[],[],,262.48,262.48,-0.037777778,-0.353333333,0,0,0,,0,40,40,68,1,3,TL,revomal,cursive,revomal_c.png,,,,,
,,,,32092,001,2025-12-02_21h46.43.709,HW_LDT_1,2024.2.4,MacIntel,29.41176471,,,,,,,,,,,,,,,,,,,,,,262.482,262.68,262.685,263.179,,,,,,,,,,,,,,1.409,1,,,,,,,,,,,,,,z,,,,,,,,,,,,,,,,42,0,263.18,264.612,z,1,1.409,,[],[],[],[],[],[],[],264.612,266.613,266.613,266.614,[],[],[],[],[],[],[],,266.614,266.614,-0.037777778,-0.353333333,0,0,0,,0,41,41,37,1,3,TL,cacapity,cursive,cacapity_c.png,,,,,
,,,,32092,001,2025-12-02_21h46.43.709,HW_LDT_1,2024.2.4,MacIntel,29.41176471,,,,,,,,,,,,,,,,,,,,,,266.616,266.813,266.813,267.313,,,,,,,,,,,,,,0.723,1,,,,,,,,,,,,,,m,,,,,,,,,,,,,,,,43,0,267.314,268.046,m,1,0.723,,[],[],[],[],[],[],[],268.046,270.046,270.046,270.047,[],[],[],[],[],[],[],,270.047,270.047,-0.037777778,-0.353333333,0,0,0,,0,42,42,134,1,3,word,QUALIFY,print,qualify_p.png,,,,,
,,,,32092,001,2025-12-02_21h46.43.709,HW_LDT_1,2024.2.4,MacIntel,29.41176471,,,,,,,,,,,,,,,,,,,,,,270.05,270.247,270.247,270.746,,,,,,,,,,,,,,0.943,1,,,,,,,,,,,,,,m,,,,,,,,,,,,,,,,44,0,270.747,271.712,m,1,0.943,,[],[],[],[],[],[],[],271.713,273.713,273.716,273.733,[],[],[],[],[],[],[],,273.733,273.734,-0.041111111,-0.352222222,0,0,0,,0,43,43,112,1,3,word,LIBERAL,print,liberal_p.png,,,,,
,,,,32092,001,2025-12-02_21h46.43.709,HW_LDT_1,2024.2.4,MacIntel,29.41176471,,,,,,,,,,,,,,,,,,,,,,273.744,273.913,273.913,274.413,,,,,,,,,,,,,,0.904,1,,,,,,,,,,,,,,m,,,,,,,,,,,,,,,,45,0,274.414,275.346,m,1,0.904,,[],[],[],[],[],[],[],275.346,277.346,277.346,277.347,[],[],[],[],[],[],[],,277.347,277.347,-0.038888889,-0.361111111,0,0,0,,0,44,44,111,1,3,word,INDICATE,print,indicate_p.png,,,,,
,,,,32092,001,2025-12-02_21h46.43.709,HW_LDT_1,2024.2.4,MacIntel,29.41176471,,,,,,,,,,,,,,,,,,,,,,277.35,277.546,277.547,278.046,,,,,,,,,,,,,,1.891,1,,,,,,,,,,,,,,z,,,,,,,,,,,,,,,,46,0,278.047,279.947,z,1,1.891,,[],[],[],[],[],[],[],279.947,281.946,281.947,281.947,[],[],[],[],[],[],[],,281.947,281.947,-0.024444444,-0.368888889,0,0,0,,0,45,45,19,1,3,RL,opcifal,cursive,opcifal_c.png,,,,,
,,,,32092,001,2025-12-02_21h46.43.709,HW_LDT_1,2024.2.4,MacIntel,29.41176471,,,,,,,,,,,,,,,,,,,,,,281.949,282.146,282.147,282.647,,,,,,,,,,,,,,2.147,1,,,,,,,,,,,,,,m,,,,,,,,,,,,,,,,47,0,282.647,284.813,m,1,2.147,,[],[],[],[],[],[],[],284.814,286.813,286.813,286.814,[],[],[],[],[],[],[],,286.814,286.814,-0.024444444,-0.368888889,0,0,0,,0,46,46,126,1,3,word,OPTIMAL,cursive,optimal_c.png,,,,,
,,,,32092,001,2025-12-02_21h46.43.709,HW_LDT_1,2024.2.4,MacIntel,29.41176471,,,,,,,,,,,,,,,,,,,,,,286.818,287.013,287.013,287.514,,,,,,,,,,,,,,1.903,1,,,,,,,,,,,,,,z,,,,,,,,,,,,,,,,48,0,287.514,289.447,z,1,1.903,,[],[],[],[],[],[],[],289.447,291.447,291.448,291.449,[],[],[],[],[],[],[],,291.449,291.45,-0.024444444,-0.368888889,0,0,0,,0,47,47,70,1,3,TL,remuse,cursive,remuse_c.png,,,,,
,,,,32092,001,2025-12-02_21h46.43.709,HW_LDT_1,2024.2.4,MacIntel,29.41176471,,,,,,,,,,,,,,,,,,,,,,291.455,291.646,291.646,292.146,,,,,,,,,,,,,,0.785,1,,,,,,,,,,,,,,m,,,,,,,,,,,,,,,,49,0,292.147,292.946,m,1,0.785,,[],[],[],[],[],[],[],292.947,294.947,294.947,294.948,[],[],[],[],[],[],[],,294.948,294.949,-0.024444444,-0.368888889,0,0,0,,0,48,48,137,1,3,word,RAPIDLY,print,rapidly_p.png,,,,,
,,,,32092,001,2025-12-02_21h46.43.709,HW_LDT_1,2024.2.4,MacIntel,29.41176471,,,,,,,,,,,,,,,,,,,,,,294.952,295.147,295.147,295.647,,,,,,,,,,,,,,1.203,1,,,,,,,,,,,,,,z,,,,,,,,,,,,,,,,50,0,295.648,296.881,z,1,1.203,,[],[],[],[],[],[],[],296.881,298.881,298.881,298.882,[],[],[],[],[],[],[],,298.882,298.882,-0.024444444,-0.368888889,0,0,0,,0,49,49,13,1,3,RL,helicage,cursive,helicage_c.png,,,,,
,,,,32092,001,2025-12-02_21h46.43.709,HW_LDT_1,2024.2.4,MacIntel,29.41176471,,,,,,,,,,,,,,,,,,,,,,298.885,299.081,299.081,299.581,,,,,,,,,,,,,,1.675,1,,,,,,,,,,,,,,z,,,,,,,,,,,,,,,,51,0,299.581,301.281,z,1,1.675,,[],[],[],[],[],[],[],301.281,303.281,303.281,303.282,[],[],[],[],[],[],[],,303.282,303.282,-0.024444444,-0.368888889,0,0,0,,0,50,50,38,1,3,TL,carnidal,print,carnidal_p.png,,,,,
,,,,32092,001,2025-12-02_21h46.43.709,HW_LDT_1,2024.2.4,MacIntel,29.41176471,,,,,,,,,,,,,,,,,,,,,,303.287,303.481,303.481,303.981,,,,,,,,,,,,,,1.121,1,,,,,,,,,,,,,,m,,,,,,,,,,,,,,,,52,0,303.982,305.113,m,1,1.121,,[],[],[],[],[],[],[],305.114,307.114,307.114,307.115,[],[],[],[],[],[],[],,307.115,307.115,-0.024444444,-0.368888889,0,0,0,,0,51,51,86,1,3,word,BESIDE,cursive,beside_c.png,,,,,
,,,,32092,001,2025-12-02_21h46.43.709,HW_LDT_1,2024.2.4,MacIntel,29.41176471,,,,,,,,,,,,,,,,,,,,,,307.118,307.314,307.314,307.814,,,,,,,,,,,,,,3.74,0,,,,,,,,,,,,,,z,,,,,,,,,,,,,,,,53,0,307.815,311.58,m,0,3.74,,[],[],[],[],[],[],[],311.58,313.581,313.581,313.582,[],[],[],[],[],[],[],,313.582,313.582,-0.024444444,-0.368888889,0,0,0,,0,52,52,54,1,3,TL,manire,cursive,manire_c.png,,,,,
,,,,32092,001,2025-12-02_21h46.43.709,HW_LDT_1,2024.2.4,MacIntel,29.41176471,,,,,,,,,,,,,,,,,,,,,,313.585,313.781,313.781,314.281,,,,,,,,,,,,,,1.954,1,,,,,,,,,,,,,,z,,,,,,,,,,,,,,,,54,0,314.281,316.248,z,1,1.954,,[],[],[],[],[],[],[],316.248,318.248,318.248,318.248,[],[],[],[],[],[],[],,318.248,318.249,-0.024444444,-0.368888889,0,0,0,,0,53,53,36,1,3,TL,carema,cursive,carema_c.png,,,,,
,,,,32092,001,2025-12-02_21h46.43.709,HW_LDT_1,2024.2.4,MacIntel,29.41176471,,,,,,,,,,,,,,,,,,,,,,318.251,318.448,318.448,318.948,,,,,,,,,,,,,,1.228,1,,,,,,,,,,,,,,m,,,,,,,,,,,,,,,,55,0,318.949,320.181,m,1,1.228,,[],[],[],[],[],[],[],320.182,322.182,322.182,322.182,[],[],[],[],[],[],[],,322.182,322.183,-0.024444444,-0.368888889,0,0,0,,0,54,54,81,1,3,word,ADVISORY,print,advisory_p.png,,,,,
,,,,32092,001,2025-12-02_21h46.43.709,HW_LDT_1,2024.2.4,MacIntel,29.41176471,,,,,,,,,,,,,,,,,,,,,,322.186,322.381,322.382,322.881,,,,,,,,,,,,,,1.071,1,,,,,,,,,,,,,,z,,,,,,,,,,,,,,,,56,0,322.882,323.981,z,1,1.071,,[],[],[],[],[],[],[],323.981,325.982,325.982,325.982,[],[],[],[],[],[],[],,325.982,325.983,-0.024444444,-0.368888889,0,0,0,,0,55,55,40,1,3,TL,condiser,print,condiser_p.png,,,,,
,,,,32092,001,2025-12-02_21h46.43.709,HW_LDT_1,2024.2.4,MacIntel,29.41176471,,,,,,,,,,,,,,,,,,,,,,325.985,326.182,326.182,326.682,,,,,,,,,,,,,,1.07,1,,,,,,,,,,,,,,z,,,,,,,,,,,,,,,,57,0,326.682,327.782,z,1,1.07,,[],[],[],[],[],[],[],327.782,329.782,329.782,329.783,[],[],[],[],[],[],[],,329.783,329.784,-0.024444444,-0.368888889,0,0,0,,0,56,56,52,1,3,TL,locigal,cursive,locigal_c.png,,,,,
,,,,32092,001,2025-12-02_21h46.43.709,HW_LDT_1,2024.2.4,MacIntel,29.41176471,,,,,,,,,,,,,,,,,,,,,,329.787,329.981,329.981,330.482,,,,,,,,,,,,,,1.47,1,,,,,,,,,,,,,,m,,,,,,,,,,,,,,,,58,0,330.484,331.982,m,1,1.47,,[],[],[],[],[],[],[],331.982,333.982,333.982,333.982,[],[],[],[],[],[],[],,333.982,333.983,-0.024444444,-0.368888889,0,0,0,,0,57,57,153,1,3,word,STOLEN,cursive,stolen_c.png,,,,,
,,,,32092,001,2025-12-02_21h46.43.709,HW_LDT_1,2024.2.4,MacIntel,29.41176471,,,,,,,,,,,,,,,,,,,,,,333.986,334.182,334.182,334.682,,,,,,,,,,,,,,0.736,1,,,,,,,,,,,,,,z,,,,,,,,,,,,,,,,59,0,334.683,335.449,z,1,0.736,,[],[],[],[],[],[],[],335.449,337.449,337.449,337.449,[],[],[],[],[],[],[],,337.449,337.449,-0.024444444,-0.368888889,0,0,0,,0,58,58,50,1,3,TL,lirebal,print,lirebal_p.png,,,,,
,,,,32092,001,2025-12-02_21h46.43.709,HW_LDT_1,2024.2.4,MacIntel,29.41176471,,,,,,,,,,,,,,,,,,,,,,337.452,337.648,337.649,338.149,,,,,,,,,,,,,,0.978,1,,,,,,,,,,,,,,m,,,,,,,,,,,,,,,,60,0,338.149,339.149,m,1,0.978,,[],[],[],[],[],[],[],339.149,341.149,341.149,341.149,[],[],[],[],[],[],[],,341.149,341.15,-0.024444444,-0.368888889,0,0,0,,0,59,59,106,1,3,word,ELABORATE,print,elaborate_p.png,,,,,
,,,,32092,001,2025-12-02_21h46.43.709,HW_LDT_1,2024.2.4,MacIntel,29.41176471,,,,,,,,,,,,,,,,,,,,,,341.152,341.349,341.349,341.848,,,,,,,,,,,,,,1.928,1,,,,,,,,,,,,,,m,,,,,,,,,,,,,,,,61,0,341.849,343.782,m,1,1.928,,[],[],[],[],[],[],[],343.782,345.782,345.783,345.783,[],[],[],[],[],[],[],,345.783,345.784,-0.024444444,-0.368888889,0,0,0,,0,60,60,102,1,3,word,DENSITY,print,density_p.png,,,,,
,,,,32092,001,2025-12-02_21h46.43.709,HW_LDT_1,2024.2.4,MacIntel,29.41176471,,,,,,,,,,,,,,,,,,,,,,345.787,345.982,345.982,346.482,,,,,,,,,,,,,,2.306,1,,,,,,,,,,,,,,m,,,,,,,,,,,,,,,,62,1,346.483,348.816,m,1,2.306,,[],[],[],[],[],[],[],348.816,350.816,350.816,352.149,[],[],[],[],[],[],[],z,352.15,352.15,-0.024444444,-0.368888889,0,0,0,,0,61,61,158,1,3,word,VELOCITY,cursive,velocity_c.png,1.329,,,,
,,,,32092,001,2025-12-02_21h46.43.709,HW_LDT_1,2024.2.4,MacIntel,29.41176471,,,,,,,,,,,,,,,,,,,,,,352.152,352.349,352.349,352.849,,,,,,,,,,,,,,0.755,1,,,,,,,,,,,,,,m,,,,,,,,,,,,,,,,63,0,352.85,353.616,m,1,0.755,,[],[],[],[],[],[],[],353.616,355.616,355.616,355.617,[],[],[],[],[],[],[],,355.617,355.617,-0.024444444,-0.368888889,0,0,0,,0,62,62,141,1,3,word,RELIGION,print,religion_p.png,,,,,
,,,,32092,001,2025-12-02_21h46.43.709,HW_LDT_1,2024.2.4,MacIntel,29.41176471,,,,,,,,,,,,,,,,,,,,,,355.619,355.816,355.816,356.316,,,,,,,,,,,,,,0.838,1,,,,,,,,,,,,,,m,,,,,,,,,,,,,,,,64,0,356.317,357.183,m,1,0.838,,[],[],[],[],[],[],[],357.183,359.183,359.183,359.183,[],[],[],[],[],[],[],,359.183,359.183,-0.024444444,-0.368888889,0,0,0,,0,63,63,152,1,3,word,SPECIMEN,print,specimen_p.png,,,,,
,,,,32092,001,2025-12-02_21h46.43.709,HW_LDT_1,2024.2.4,MacIntel,29.41176471,,,,,,,,,,,,,,,,,,,,,,359.185,359.383,359.383,359.882,,,,,,,,,,,,,,0.605,1,,,,,,,,,,,,,,m,,,,,,,,,,,,,,,,65,0,359.883,360.516,m,1,0.605,,[],[],[],[],[],[],[],360.516,362.516,362.516,362.516,[],[],[],[],[],[],[],,362.517,362.517,-0.024444444,-0.368888889,0,0,0,,0,64,64,139,1,3,word,REGULAR,print,regular_p.png,,,,,
,,,,32092,001,2025-12-02_21h46.43.709,HW_LDT_1,2024.2.4,MacIntel,29.41176471,,,,,,,,,,,,,,,,,,,,,,362.52,362.716,362.716,363.216,,,,,,,,,,,,,,0.509,1,,,,,,,,,,,,,,m,,,,,,,,,,,,,,,,66,0,363.218,363.75,m,1,0.509,,[],[],[],[],[],[],[],363.75,365.75,365.75,365.751,[],[],[],[],[],[],[],,365.751,365.751,-0.024444444,-0.368888889,0,0,0,,0,65,65,131,1,3,word,POPULAR,print,popular_p.png,,,,,
,,,,32092,001,2025-12-02_21h46.43.709,HW_LDT_1,2024.2.4,MacIntel,29.41176471,,,,,,,,,,,,,,,,,,,,,,365.755,365.949,365.949,366.45,,,,,,,,,,,,,,0.926,1,,,,,,,,,,,,,,z,,,,,,,,,,,,,,,,67,0,366.451,367.383,z,1,0.926,,[],[],[],[],[],[],[],367.384,369.383,369.383,369.384,[],[],[],[],[],[],[],,369.384,369.385,-0.024444444,-0.368888889,0,0,0,,0,66,66,35,1,3,TL,cateferia,print,cateferia_p.png,,,,,
,,,,32092,001,2025-12-02_21h46.43.709,HW_LDT_1,2024.2.4,MacIntel,29.41176471,,,,,,,,,,,,,,,,,,,,,,369.389,369.582,369.582,370.083,,,,,,,,,,,,,,1.188,1,,,,,,,,,,,,,,m,,,,,,,,,,,,,,,,68,0,370.083,371.289,m,1,1.188,,[],[],[],[],[],[],[],371.29,373.283,373.284,373.285,[],[],[],[],[],[],[],,373.285,373.286,-0.024444444,-0.368888889,0,0,0,,0,67,67,103,1,3,word,DISPUTE,print,dispute_p.png,,,,,
,,,,32092,001,2025-12-02_21h46.43.709,HW_LDT_1,2024.2.4,MacIntel,29.41176471,,,,,,,,,,,,,,,,,,,,,,373.292,373.484,373.484,373.983,,,,,,,,,,,,,,1.588,1,,,,,,,,,,,,,,z,,,,,,,,,,,,,,,,69,0,373.985,375.587,z,1,1.588,,[],[],[],[],[],[],[],375.587,377.583,377.584,377.584,[],[],[],[],[],[],[],,377.584,377.584,-0.024444444,-0.368888889,0,0,0,,0,68,68,1,1,3,RL,bewoted,cursive,bewoted_c.png,,,,,
,,,,32092,001,2025-12-02_21h46.43.709,HW_LDT_1,2024.2.4,MacIntel,29.41176471,,,,,,,,,,,,,,,,,,,,,,377.587,377.784,377.784,378.283,,,,,,,,,,,,,,1.236,1,,,,,,,,,,,,,,z,,,,,,,,,,,,,,,,70,0,378.284,379.55,z,1,1.236,,[],[],[],[],[],[],[],379.55,381.55,381.55,381.551,[],[],[],[],[],[],[],,381.551,381.551,-0.024444444,-0.368888889,0,0,0,,0,69,69,56,1,3,TL,meromy,print,meromy_p.png,,,,,
,,,,32092,001,2025-12-02_21h46.43.709,HW_LDT_1,2024.2.4,MacIntel,29.41176471,,,,,,,,,,,,,,,,,,,,,,381.554,381.75,381.75,382.25,,,,,,,,,,,,,,0.762,1,,,,,,,,,,,,,,z,,,,,,,,,,,,,,,,71,0,382.251,383.017,z,1,0.762,,[],[],[],[],[],[],[],383.017,385.017,385.017,385.018,[],[],[],[],[],[],[],,385.018,385.018,-0.024444444,-0.368888889,0,0,0,,0,70,70,7,1,3,RL,cobeny,print,cobeny_p.png,,,,,
,,,,32092,001,2025-12-02_21h46.43.709,HW_LDT_1,2024.2.4,MacIntel,29.41176471,,,,,,,,,,,,,,,,,,,,,,385.022,385.217,385.217,385.717,,,,,,,,,,,,,,0.676,1,,,,,,,,,,,,,,z,,,,,,,,,,,,,,,,72,0,385.718,386.417,z,1,0.676,,[],[],[],[],[],[],[],386.417,388.417,388.417,388.417,[],[],[],[],[],[],[],,388.418,388.418,-0.024444444,-0.368888889,0,0,0,,0,71,71,61,1,3,TL,pocily,print,pocily_p.png,,,,,
,,,,32092,001,2025-12-02_21h46.43.709,HW_LDT_1,2024.2.4,MacIntel,29.41176471,,,,,,,,,,,,,,,,,,,,,,388.42,388.617,388.617,389.117,,,,,,,,,,,,,,0.955,1,,,,,,,,,,,,,,z,,,,,,,,,,,,,,,,73,0,389.118,390.083,z,1,0.955,,[],[],[],[],[],[],[],390.083,392.083,392.083,392.083,[],[],[],[],[],[],[],,392.083,392.084,-0.027777778,-0.335555556,0,0,0,,0,72,72,3,1,3,RL,bebine,cursive,bebine_c.png,,,,,
,,,,32092,001,2025-12-02_21h46.43.709,HW_LDT_1,2024.2.4,MacIntel,29.41176471,,,,,,,,,,,,,,,,,,,,,,392.086,392.284,392.284,392.784,,,,,,,,,,,,,,1.007,1,,,,,,,,,,,,,,m,,,,,,,,,,,,,,,,74,0,392.784,393.817,m,1,1.007,,[],[],[],[],[],[],[],393.818,395.818,395.818,395.818,[],[],[],[],[],[],[],,395.818,395.818,-0.028888889,-0.328888889,0,0,0,,0,73,73,150,1,3,word,SENTIMENT,print,sentiment_p.png,,,,,
,,,,32092,001,2025-12-02_21h46.43.709,HW_LDT_1,2024.2.4,MacIntel,29.41176471,,,,,,,,,,,,,,,,,,,,,,395.821,396.017,396.017,396.518,,,,,,,,,,,,,,1.064,1,,,,,,,,,,,,,,z,,,,,,,,,,,,,,,,75,0,396.518,397.584,z,1,1.064,,[],[],[],[],[],[],[],397.584,399.584,399.584,399.584,[],[],[],[],[],[],[],,399.584,399.585,-0.026666667,-0.323333333,0,0,0,,0,74,74,75,1,3,TL,sloten,cursive,sloten_c.png,,,,,
,,,,32092,001,2025-12-02_21h46.43.709,HW_LDT_1,2024.2.4,MacIntel,29.41176471,,,,,,,,,,,,,,,,,,,,,,399.587,399.784,399.784,400.284,,,,,,,,,,,,,,1.205,1,,,,,,,,,,,,,,m,,,,,,,,,,,,,,,,76,0,400.285,401.518,m,1,1.205,,[],[],[],[],[],[],[],401.518,403.518,403.518,403.518,[],[],[],[],[],[],[],,403.519,403.519,-0.026666667,-0.323333333,0,0,0,,0,75,75,82,1,3,word,AMATEUR,print,amateur_p.png,,,,,
,,,,32092,001,2025-12-02_21h46.43.709,HW_LDT_1,2024.2.4,MacIntel,29.41176471,,,,,,,,,,,,,,,,,,,,,,403.521,403.718,403.718,404.218,,,,,,,,,,,,,,1.698,1,,,,,,,,,,,,,,z,,,,,,,,,,,,,,,,77,0,404.218,405.918,z,1,1.698,,[],[],[],[],[],[],[],405.918,407.918,407.918,407.919,[],[],[],[],[],[],[],,407.919,407.919,-0.026666667,-0.323333333,0,0,0,,0,76,76,16,1,3,RL,mishafe,cursive,mishafe_c.png,,,,,
,,,,32092,001,2025-12-02_21h46.43.709,HW_LDT_1,2024.2.4,MacIntel,29.41176471,,,,,,,,,,,,,,,,,,,,,,407.921,408.118,408.118,408.617,,,,,,,,,,,,,,0.722,1,,,,,,,,,,,,,,z,,,,,,,,,,,,,,,,78,0,408.618,409.351,z,1,0.722,,[],[],[],[],[],[],[],409.352,411.352,411.352,411.352,[],[],[],[],[],[],[],,411.352,411.353,-0.026666667,-0.323333333,0,0,0,,0,77,77,60,1,3,TL,panert,print,panert_p.png,,,,,
,,,,32092,001,2025-12-02_21h46.43.709,HW_LDT_1,2024.2.4,MacIntel,29.41176471,,,,,,,,,,,,,,,,,,,,,,411.355,411.552,411.552,412.051,,,,,,,,,,,,,,0.796,1,,,,,,,,,,,,,,z,,,,,,,,,,,,,,,,79,0,412.052,412.852,z,1,0.796,,[],[],[],[],[],[],[],412.852,414.851,414.852,414.852,[],[],[],[],[],[],[],,414.852,414.852,-0.026666667,-0.323333333,0,0,0,,0,78,78,42,1,3,TL,detabe,cursive,detabe_c.png,,,,,
,,,,32092,001,2025-12-02_21h46.43.709,HW_LDT_1,2024.2.4,MacIntel,29.41176471,,,,,,,,,,,,,,,,,,,,,,414.855,415.051,415.051,415.552,,,,,,,,,,,,,,0.924,0,,,,,,,,,,,,,,m,,,,,,,,,,,,,,,,80,0,415.552,416.485,z,0,0.924,,[],[],[],[],[],[],[],416.485,418.485,418.485,418.486,[],[],[],[],[],[],[],,418.486,421.985,-0.027777778,-0.423333333,1,0,0,,0,79,79,140,1,3,word,RELATIVE,cursive,relative_c.png,,,break_done_button,,
,,,,32092,001,2025-12-02_21h46.43.709,HW_LDT_1,2024.2.4,MacIntel,29.41176471,,,,,,,,,,,,,,,,,,,,,,421.987,422.185,422.185,422.685,,,,,,,,,,,,,,1.143,1,,,,,,,,,,,,,,z,,,,,,,,,,,,,,,,81,0,422.686,423.852,z,1,1.143,,[],[],[],[],[],[],[],423.852,425.852,425.852,425.853,[],[],[],[],[],[],[],,425.853,425.853,-0.027777778,-0.423333333,0,0,0,,0,80,80,47,1,3,TL,elarobate,print,elarobate_p.png,,,,,
,,,,32092,001,2025-12-02_21h46.43.709,HW_LDT_1,2024.2.4,MacIntel,29.41176471,,,,,,,,,,,,,,,,,,,,,,425.855,426.052,426.052,426.552,,,,,,,,,,,,,,0.821,1,,,,,,,,,,,,,,z,,,,,,,,,,,,,,,,82,0,426.553,427.385,z,1,0.821,,[],[],[],[],[],[],[],427.385,429.385,429.385,429.386,[],[],[],[],[],[],[],,429.386,429.386,-0.027777778,-0.423333333,0,0,0,,0,81,81,12,1,3,RL,formuke,cursive,formuke_c.png,,,,,
,,,,32092,001,2025-12-02_21h46.43.709,HW_LDT_1,2024.2.4,MacIntel,29.41176471,,,,,,,,,,,,,,,,,,,,,,429.388,429.585,429.585,430.085,,,,,,,,,,,,,,1.087,1,,,,,,,,,,,,,,m,,,,,,,,,,,,,,,,83,0,430.086,431.185,m,1,1.087,,[],[],[],[],[],[],[],431.185,433.186,433.187,433.188,[],[],[],[],[],[],[],,433.188,433.188,-0.027777778,-0.423333333,0,0,0,,0,82,82,154,1,3,word,STORAGE,cursive,storage_c.png,,,,,
,,,,32092,001,2025-12-02_21h46.43.709,HW_LDT_1,2024.2.4,MacIntel,29.41176471,,,,,,,,,,,,,,,,,,,,,,433.193,433.385,433.386,433.886,,,,,,,,,,,,,,2.067,1,,,,,,,,,,,,,,z,,,,,,,,,,,,,,,,84,1,433.887,435.986,z,1,2.067,,[],[],[],[],[],[],[],435.986,437.987,437.988,439.32,[],[],[],[],[],[],[],z,439.32,439.321,-0.027777778,-0.423333333,0,0,0,,0,83,83,28,1,3,RL,rovastic,cursive,rovastic_c.png,1.323,,,,
,,,,32092,001,2025-12-02_21h46.43.709,HW_LDT_1,2024.2.4,MacIntel,29.41176471,,,,,,,,,,,,,,,,,,,,,,439.326,439.519,439.519,440.019,,,,,,,,,,,,,,0.762,1,,,,,,,,,,,,,,z,,,,,,,,,,,,,,,,85,0,440.019,440.786,z,1,0.762,,[],[],[],[],[],[],[],440.786,442.786,442.787,442.787,[],[],[],[],[],[],[],,442.787,442.787,-0.027777778,-0.423333333,0,0,0,,0,84,84,22,1,3,RL,procogal,print,procogal_p.png,,,,,
,,,,32092,001,2025-12-02_21h46.43.709,HW_LDT_1,2024.2.4,MacIntel,29.41176471,,,,,,,,,,,,,,,,,,,,,,442.79,442.986,442.986,443.486,,,,,,,,,,,,,,0.722,1,,,,,,,,,,,,,,z,,,,,,,,,,,,,,,,86,1,443.486,444.219,z,1,0.722,,[],[],[],[],[],[],[],444.219,446.219,446.219,447.486,[],[],[],[],[],[],[],m,447.486,447.487,-0.027777778,-0.423333333,0,0,0,,0,85,85,24,1,3,RL,quafidy,print,quafidy_p.png,1.255,,,,
,,,,32092,001,2025-12-02_21h46.43.709,HW_LDT_1,2024.2.4,MacIntel,29.41176471,,,,,,,,,,,,,,,,,,,,,,447.489,447.686,447.686,448.186,,,,,,,,,,,,,,1.34,1,,,,,,,,,,,,,,z,,,,,,,,,,,,,,,,87,0,448.187,449.552,z,1,1.34,,[],[],[],[],[],[],[],449.552,451.554,451.555,451.557,[],[],[],[],[],[],[],,451.557,451.558,-0.027777778,-0.423333333,0,0,0,,0,86,86,0,1,3,RL,afaneur,print,afaneur_p.png,,,,,
,,,,32092,001,2025-12-02_21h46.43.709,HW_LDT_1,2024.2.4,MacIntel,29.41176471,,,,,,,,,,,,,,,,,,,,,,451.567,451.753,451.753,452.252,,,,,,,,,,,,,,0.861,1,,,,,,,,,,,,,,z,,,,,,,,,,,,,,,,88,1,452.252,453.12,z,1,0.861,,[],[],[],[],[],[],[],453.12,455.119,455.119,456.187,[],[],[],[],[],[],[],m,456.187,456.187,-0.027777778,-0.423333333,0,0,0,,0,87,87,49,1,3,TL,incidate,print,incidate_p.png,1.065,,,,
,,,,32092,001,2025-12-02_21h46.43.709,HW_LDT_1,2024.2.4,MacIntel,29.41176471,,,,,,,,,,,,,,,,,,,,,,456.191,456.386,456.386,456.886,,,,,,,,,,,,,,3.557,1,,,,,,,,,,,,,,z,,,,,,,,,,,,,,,,89,0,456.886,460.453,z,1,3.557,,[],[],[],[],[],[],[],460.453,462.453,462.454,462.454,[],[],[],[],[],[],[],,462.454,462.454,-0.027777778,-0.423333333,0,0,0,,0,88,88,6,1,3,RL,cenesony,cursive,cenesony_c.png,,,,,
,,,,32092,001,2025-12-02_21h46.43.709,HW_LDT_1,2024.2.4,MacIntel,29.41176471,,,,,,,,,,,,,,,,,,,,,,462.459,462.653,462.653,463.153,,,,,,,,,,,,,,1.003,1,,,,,,,,,,,,,,m,,,,,,,,,,,,,,,,90,0,463.154,464.187,m,1,1.003,,[],[],[],[],[],[],[],464.187,466.187,466.187,466.188,[],[],[],[],[],[],[],,466.188,466.189,-0.027777778,-0.423333333,0,0,0,,0,89,89,84,1,3,word,BELOVED,cursive,beloved_c.png,,,,,
,,,,32092,001,2025-12-02_21h46.43.709,HW_LDT_1,2024.2.4,MacIntel,29.41176471,,,,,,,,,,,,,,,,,,,,,,466.193,466.387,466.387,466.887,,,,,,,,,,,,,,0.628,1,,,,,,,,,,,,,,z,,,,,,,,,,,,,,,,91,0,466.887,467.52,z,1,0.628,,[],[],[],[],[],[],[],467.52,469.52,469.52,469.521,[],[],[],[],[],[],[],,469.521,469.521,-0.027777778,-0.423333333,0,0,0,,0,90,90,2,1,3,RL,betemit,print,betemit_p.png,,,,,
,,,,32092,001,2025-12-02_21h46.43.709,HW_LDT_1,2024.2.4,MacIntel,29.41176471,,,,,,,,,,,,,,,,,,,,,,469.524,469.72,469.72,470.22,,,,,,,,,,,,,,1.194,1,,,,,,,,,,,,,,z,,,,,,,,,,,,,,,,92,0,470.221,471.42,z,1,1.194,,[],[],[],[],[],[],[],471.42,473.42,473.42,473.421,[],[],[],[],[],[],[],,473.421,473.421,-0.027777778,-0.423333333,0,0,0,,0,91,91,8,1,3,RL,cocewage,print,cocewage_p.png,,,,,
,,,,32092,001,2025-12-02_21h46.43.709,HW_LDT_1,2024.2.4,MacIntel,29.41176471,,,,,,,,,,,,,,,,,,,,,,473.424,473.62,473.62,474.121,,,,,,,,,,,,,,0.82,1,,,,,,,,,,,,,,z,,,,,,,,,,,,,,,,93,0,474.121,474.954,z,1,0.82,,[],[],[],[],[],[],[],474.954,476.954,476.954,476.955,[],[],[],[],[],[],[],,476.955,476.955,-0.027777778,-0.423333333,0,0,0,,0,92,92,64,1,3,TL,radiply,print,radiply_p.png,,,,,
,,,,32092,001,2025-12-02_21h46.43.709,HW_LDT_1,2024.2.4,MacIntel,29.41176471,,,,,,,,,,,,,,,,,,,,,,476.959,477.154,477.154,477.654,,,,,,,,,,,,,,0.726,1,,,,,,,,,,,,,,z,,,,,,,,,,,,,,,,94,0,477.654,478.387,z,1,0.726,,[],[],[],[],[],[],[],478.388,480.387,480.387,480.388,[],[],[],[],[],[],[],,480.388,480.388,-0.027777778,-0.423333333,0,0,0,,0,93,93,62,1,3,TL,prodive,print,prodive_p.png,,,,,
,,,,32092,001,2025-12-02_21h46.43.709,HW_LDT_1,2024.2.4,MacIntel,29.41176471,,,,,,,,,,,,,,,,,,,,,,480.39,480.587,480.587,481.087,,,,,,,,,,,,,,1.136,1,,,,,,,,,,,,,,z,,,,,,,,,,,,,,,,95,0,481.088,482.254,z,1,1.136,,[],[],[],[],[],[],[],482.254,484.254,484.254,484.255,[],[],[],[],[],[],[],,484.256,484.256,-0.027777778,-0.423333333,0,0,0,,0,94,94,76,1,3,TL,stogare,cursive,stogare_c.png,,,,,
,,,,32092,001,2025-12-02_21h46.43.709,HW_LDT_1,2024.2.4,MacIntel,29.41176471,,,,,,,,,,,,,,,,,,,,,,484.259,484.454,484.454,484.954,,,,,,,,,,,,,,1.973,1,,,,,,,,,,,,,,m,,,,,,,,,,,,,,,,96,0,484.954,486.954,m,1,1.973,,[],[],[],[],[],[],[],486.955,488.954,488.954,488.955,[],[],[],[],[],[],[],,488.955,488.955,-0.027777778,-0.423333333,0,0,0,,0,95,95,93,1,3,word,CEREMONY,cursive,ceremony_c.png,,,,,
,,,,32092,001,2025-12-02_21h46.43.709,HW_LDT_1,2024.2.4,MacIntel,29.41176471,,,,,,,,,,,,,,,,,,,,,,488.959,489.154,489.154,489.654,,,,,,,,,,,,,,0.624,1,,,,,,,,,,,,,,m,,,,,,,,,,,,,,,,97,0,489.655,490.288,m,1,0.624,,[],[],[],[],[],[],[],490.288,492.288,492.288,492.288,[],[],[],[],[],[],[],,492.289,492.289,-0.027777778,-0.423333333,0,0,0,,0,96,96,125,1,3,word,OPERATOR,print,operator_p.png,,,,,
,,,,32092,001,2025-12-02_21h46.43.709,HW_LDT_1,2024.2.4,MacIntel,29.41176471,,,,,,,,,,,,,,,,,,,,,,492.292,492.488,492.488,492.988,,,,,,,,,,,,,,0.939,0,,,,,,,,,,,,,,m,,,,,,,,,,,,,,,,98,0,492.988,493.954,z,0,0.939,,[],[],[],[],[],[],[],493.955,495.955,495.955,495.955,[],[],[],[],[],[],[],,495.955,495.955,-0.027777778,-0.423333333,0,0,0,,0,97,97,92,1,3,word,CATEGORY,cursive,category_c.png,,,,,
,,,,32092,001,2025-12-02_21h46.43.709,HW_LDT_1,2024.2.4,MacIntel,29.41176471,,,,,,,,,,,,,,,,,,,,,,495.959,496.155,496.155,496.655,,,,,,,,,,,,,,0.758,1,,,,,,,,,,,,,,z,,,,,,,,,,,,,,,,99,0,496.655,497.421,z,1,0.758,,[],[],[],[],[],[],[],497.422,499.421,499.421,499.422,[],[],[],[],[],[],[],,499.422,499.422,-0.027777778,-0.423333333,0,0,0,,0,98,98,30,1,3,RL,strapely,print,strapely_p.png,,,,,
,,,,32092,001,2025-12-02_21h46.43.709,HW_LDT_1,2024.2.4,MacIntel,29.41176471,,,,,,,,,,,,,,,,,,,,,,499.425,499.621,499.621,500.121,,,,,,,,,,,,,,0.771,1,,,,,,,,,,,,,,z,,,,,,,,,,,,,,,,100,0,500.122,500.921,z,1,0.771,,[],[],[],[],[],[],[],500.922,502.922,502.922,502.922,[],[],[],[],[],[],[],,502.922,502.922,-0.027777778,-0.423333333,0,0,0,,0,99,99,9,1,3,RL,docirant,print,docirant_p.png,,,,,
,,,,32092,001,2025-12-02_21h46.43.709,HW_LDT_1,2024.2.4,MacIntel,29.41176471,,,,,,,,,,,,,,,,,,,,,,502.925,503.121,503.121,503.622,,,,,,,,,,,,,,0.628,1,,,,,,,,,,,,,,z,,,,,,,,,,,,,,,,101,0,503.623,504.255,z,1,0.628,,[],[],[],[],[],[],[],504.255,506.255,506.255,506.256,[],[],[],[],[],[],[],,506.256,506.256,-0.027777778,-0.423333333,0,0,0,,0,100,100,25,1,3,RL,retupar,print,retupar_p.png,,,,,
,,,,32092,001,2025-12-02_21h46.43.709,HW_LDT_1,2024.2.4,MacIntel,29.41176471,,,,,,,,,,,,,,,,,,,,,,506.26,506.456,506.456,506.955,,,,,,,,,,,,,,1.383,1,,,,,,,,,,,,,,m,,,,,,,,,,,,,,,,102,0,506.961,508.355,m,1,1.383,,[],[],[],[],[],[],[],508.356,510.355,510.356,510.356,[],[],[],[],[],[],[],,510.357,510.357,-0.027777778,-0.423333333,0,0,0,,0,101,101,147,1,3,word,ROMANTIC,cursive,romantic_c.png,,,,,
,,,,32092,001,2025-12-02_21h46.43.709,HW_LDT_1,2024.2.4,MacIntel,29.41176471,,,,,,,,,,,,,,,,,,,,,,510.361,510.555,510.555,511.055,,,,,,,,,,,,,,1.261,0,,,,,,,,,,,,,,z,,,,,,,,,,,,,,,,103,0,511.056,512.322,m,0,1.261,,[],[],[],[],[],[],[],512.322,514.322,514.322,514.323,[],[],[],[],[],[],[],,514.323,514.324,-0.027777778,-0.423333333,0,0,0,,0,102,102,34,1,3,TL,aminal,cursive,aminal_c.png,,,,,
,,,,32092,001,2025-12-02_21h46.43.709,HW_LDT_1,2024.2.4,MacIntel,29.41176471,,,,,,,,,,,,,,,,,,,,,,514.327,514.522,514.522,515.022,,,,,,,,,,,,,,1.812,1,,,,,,,,,,,,,,z,,,,,,,,,,,,,,,,104,0,515.023,516.855,z,1,1.812,,[],[],[],[],[],[],[],516.855,518.855,518.855,518.856,[],[],[],[],[],[],[],,518.856,518.856,-0.027777778,-0.423333333,0,0,0,,0,103,103,69,1,3,TL,redisent,cursive,redisent_c.png,,,,,
,,,,32092,001,2025-12-02_21h46.43.709,HW_LDT_1,2024.2.4,MacIntel,29.41176471,,,,,,,,,,,,,,,,,,,,,,518.858,519.055,519.056,519.556,,,,,,,,,,,,,,1.137,1,,,,,,,,,,,,,,m,,,,,,,,,,,,,,,,105,0,519.556,520.722,m,1,1.137,,[],[],[],[],[],[],[],520.722,522.722,522.722,522.724,[],[],[],[],[],[],[],,522.724,522.725,-0.027777778,-0.421111111,0,0,0,,0,104,104,136,1,3,word,RADICAL,cursive,radical_c.png,,,,,
,,,,32092,001,2025-12-02_21h46.43.709,HW_LDT_1,2024.2.4,MacIntel,29.41176471,,,,,,,,,,,,,,,,,,,,,,522.733,522.921,522.921,523.422,,,,,,,,,,,,,,1.071,1,,,,,,,,,,,,,,z,,,,,,,,,,,,,,,,106,0,523.424,524.523,z,1,1.071,,[],[],[],[],[],[],[],524.523,526.522,526.522,526.523,[],[],[],[],[],[],[],,526.523,526.523,-0.027777778,-0.421111111,0,0,0,,0,105,105,65,1,3,TL,resufal,print,resufal_p.png,,,,,
,,,,32092,001,2025-12-02_21h46.43.709,HW_LDT_1,2024.2.4,MacIntel,29.41176471,,,,,,,,,,,,,,,,,,,,,,526.525,526.722,526.722,527.222,,,,,,,,,,,,,,0.736,1,,,,,,,,,,,,,,m,,,,,,,,,,,,,,,,107,0,527.223,527.989,m,1,0.736,,[],[],[],[],[],[],[],527.989,529.989,529.989,529.99,[],[],[],[],[],[],[],,529.99,529.99,-0.027777778,-0.421111111,0,0,0,,0,106,106,119,1,3,word,MEMORY,print,memory_p.png,,,,,
,,,,32092,001,2025-12-02_21h46.43.709,HW_LDT_1,2024.2.4,MacIntel,29.41176471,,,,,,,,,,,,,,,,,,,,,,529.993,530.189,530.189,530.689,,,,,,,,,,,,,,1.295,1,,,,,,,,,,,,,,m,,,,,,,,,,,,,,,,108,0,530.69,531.989,m,1,1.295,,[],[],[],[],[],[],[],531.99,533.989,533.989,533.99,[],[],[],[],[],[],[],,533.99,533.99,-0.027777778,-0.421111111,0,0,0,,0,107,107,91,1,3,word,CARDINAL,print,cardinal_p.png,,,,,
,,,,32092,001,2025-12-02_21h46.43.709,HW_LDT_1,2024.2.4,MacIntel,29.41176471,,,,,,,,,,,,,,,,,,,,,,533.992,534.189,534.189,534.689,,,,,,,,,,,,,,0.988,0,,,,,,,,,,,,,,m,,,,,,,,,,,,,,,,109,0,534.69,535.689,z,0,0.988,,[],[],[],[],[],[],[],535.689,537.689,537.69,537.69,[],[],[],[],[],[],[],,537.69,537.69,-0.027777778,-0.421111111,0,0,0,,0,108,108,149,1,3,word,SENATOR,cursive,senator_c.png,,,,,
,,,,32092,001,2025-12-02_21h46.43.709,HW_LDT_1,2024.2.4,MacIntel,29.41176471,,,,,,,,,,,,,,,,,,,,,,537.693,537.889,537.889,538.389,,,,,,,,,,,,,,1.424,1,,,,,,,,,,,,,,m,,,,,,,,,,,,,,,,110,0,538.39,539.823,m,1,1.424,,[],[],[],[],[],[],[],539.823,541.823,541.823,541.824,[],[],[],[],[],[],[],,541.824,541.824,-0.027777778,-0.421111111,0,0,0,,0,109,109,145,1,3,word,RESUME,cursive,resume_c.png,,,,,
,,,,32092,001,2025-12-02_21h46.43.709,HW_LDT_1,2024.2.4,MacIntel,29.41176471,,,,,,,,,,,,,,,,,,,,,,541.827,542.023,542.023,542.522,,,,,,,,,,,,,,1.17,1,,,,,,,,,,,,,,m,,,,,,,,,,,,,,,,111,0,542.523,543.723,m,1,1.17,,[],[],[],[],[],[],[],543.724,545.723,545.724,545.724,[],[],[],[],[],[],[],,545.725,545.726,-0.027777778,-0.421111111,0,0,0,,0,110,110,83,1,3,word,ANIMAL,cursive,animal_c.png,,,,,
,,,,32092,001,2025-12-02_21h46.43.709,HW_LDT_1,2024.2.4,MacIntel,29.41176471,,,,,,,,,,,,,,,,,,,,,,545.729,545.923,545.923,546.423,,,,,,,,,,,,,,0.702,1,,,,,,,,,,,,,,z,,,,,,,,,,,,,,,,112,0,546.425,547.156,z,1,0.702,,[],[],[],[],[],[],[],547.157,549.156,549.157,549.157,[],[],[],[],[],[],[],,549.157,549.157,-0.027777778,-0.42,0,0,0,,0,111,111,27,1,3,RL,recile,print,recile_p.png,,,,,
,,,,32092,001,2025-12-02_21h46.43.709,HW_LDT_1,2024.2.4,MacIntel,29.41176471,,,,,,,,,,,,,,,,,,,,,,549.16,549.357,549.357,549.857,,,,,,,,,,,,,,0.902,1,,,,,,,,,,,,,,z,,,,,,,,,,,,,,,,113,0,549.857,550.79,z,1,0.902,,[],[],[],[],[],[],[],550.79,552.79,552.79,552.79,[],[],[],[],[],[],[],,552.79,552.791,-0.027777778,-0.42,0,0,0,,0,112,112,43,1,3,TL,dedace,cursive,dedace_c.png,,,,,
,,,,32092,001,2025-12-02_21h46.43.709,HW_LDT_1,2024.2.4,MacIntel,29.41176471,,,,,,,,,,,,,,,,,,,,,,552.793,552.99,552.99,553.49,,,,,,,,,,,,,,0.656,1,,,,,,,,,,,,,,m,,,,,,,,,,,,,,,,114,0,553.491,554.157,m,1,0.656,,[],[],[],[],[],[],[],554.157,556.157,556.157,556.157,[],[],[],[],[],[],[],,556.157,556.158,-0.027777778,-0.42,0,0,0,,0,113,113,130,1,3,word,POLICY,print,policy_p.png,,,,,
,,,,32092,001,2025-12-02_21h46.43.709,HW_LDT_1,2024.2.4,MacIntel,29.41176471,,,,,,,,,,,,,,,,,,,,,,556.16,556.357,556.357,556.857,,,,,,,,,,,,,,0.746,1,,,,,,,,,,,,,,z,,,,,,,,,,,,,,,,115,1,556.858,557.624,z,1,0.746,,[],[],[],[],[],[],[],557.624,559.624,559.624,561.291,[],[],[],[],[],[],[],m,561.291,561.291,-0.027777778,-0.436666667,0,0,0,,0,114,114,46,1,3,TL,distupe,print,distupe_p.png,1.639,,,,
,,,,32092,001,2025-12-02_21h46.43.709,HW_LDT_1,2024.2.4,MacIntel,29.41176471,,,,,,,,,,,,,,,,,,,,,,561.293,561.49,561.49,561.99,,,,,,,,,,,,,,1.337,1,,,,,,,,,,,,,,m,,,,,,,,,,,,,,,,116,0,561.991,563.357,m,1,1.337,,[],[],[],[],[],[],[],563.357,565.357,565.357,565.358,[],[],[],[],[],[],[],,565.358,565.358,-0.024444444,-0.438888889,0,0,0,,0,115,115,87,1,3,word,CAFETERIA,print,cafeteria_p.png,,,,,
,,,,32092,001,2025-12-02_21h46.43.709,HW_LDT_1,2024.2.4,MacIntel,29.41176471,,,,,,,,,,,,,,,,,,,,,,565.36,565.557,565.557,566.057,,,,,,,,,,,,,,0.87,1,,,,,,,,,,,,,,z,,,,,,,,,,,,,,,,117,0,566.058,566.957,z,1,0.87,,[],[],[],[],[],[],[],566.957,568.957,568.957,568.958,[],[],[],[],[],[],[],,568.958,568.958,-0.024444444,-0.438888889,0,0,0,,0,116,116,55,1,3,TL,mecidine,print,mecidine_p.png,,,,,
,,,,32092,001,2025-12-02_21h46.43.709,HW_LDT_1,2024.2.4,MacIntel,29.41176471,,,,,,,,,,,,,,,,,,,,,,568.96,569.157,569.157,569.657,,,,,,,,,,,,,,1.197,1,,,,,,,,,,,,,,m,,,,,,,,,,,,,,,,118,1,569.657,570.858,m,1,1.197,,[],[],[],[],[],[],[],570.858,572.858,572.859,574.791,[],[],[],[],[],[],[],m,574.791,574.792,-0.024444444,-0.438888889,0,0,0,,0,117,117,104,1,3,word,DOMINANT,print,dominant_p.png,1.912,,,,
,,,,32092,001,2025-12-02_21h46.43.709,HW_LDT_1,2024.2.4,MacIntel,29.41176471,,,,,,,,,,,,,,,,,,,,,,574.795,574.99,574.99,575.491,,,,,,,,,,,,,,0.87,1,,,,,,,,,,,,,,z,,,,,,,,,,,,,,,,119,1,575.492,576.391,z,1,0.87,,[],[],[],[],[],[],[],576.391,578.391,578.391,579.658,[],[],[],[],[],[],[],m,579.658,579.658,-0.024444444,-0.438888889,0,0,0,,0,118,118,51,1,3,TL,liretal,print,liretal_p.png,1.238,,,,
,,,,32092,001,2025-12-02_21h46.43.709,HW_LDT_1,2024.2.4,MacIntel,29.41176471,,,,,,,,,,,,,,,,,,,,,,579.661,579.858,579.858,580.358,,,,,,,,,,,,,,2.803,1,,,,,,,,,,,,,,m,,,,,,,,,,,,,,,,120,0,580.359,583.191,m,1,2.803,,[],[],[],[],[],[],[],583.191,585.191,585.191,585.192,[],[],[],[],[],[],[],,585.192,585.192,-0.024444444,-0.438888889,0,0,0,,0,119,119,89,1,3,word,CAPACITY,cursive,capacity_c.png,,,,,
,,,,32092,001,2025-12-02_21h46.43.709,HW_LDT_1,2024.2.4,MacIntel,29.41176471,,,,,,,,,,,,,,,,,,,,,,585.195,585.391,585.391,585.891,,,,,,,,,,,,,,0.957,1,,,,,,,,,,,,,,z,,,,,,,,,,,,,,,,121,1,585.892,586.858,z,1,0.957,,[],[],[],[],[],[],[],586.858,588.858,588.858,589.658,[],[],[],[],[],[],[],z,589.658,589.659,-0.024444444,-0.438888889,0,0,0,,0,120,120,63,1,3,TL,racidal,cursive,racidal_c.png,0.771,,,,
,,,,32092,001,2025-12-02_21h46.43.709,HW_LDT_1,2024.2.4,MacIntel,29.41176471,,,,,,,,,,,,,,,,,,,,,,589.661,589.857,589.857,590.358,,,,,,,,,,,,,,1.345,1,,,,,,,,,,,,,,m,,,,,,,,,,,,,,,,122,1,590.359,591.725,m,1,1.345,,[],[],[],[],[],[],[],591.725,593.725,593.725,594.558,[],[],[],[],[],[],[],m,594.558,594.559,-0.024444444,-0.438888889,0,0,0,,0,121,121,85,1,3,word,BENEFIT,print,benefit_p.png,0.818,,,,
,,,,32092,001,2025-12-02_21h46.43.709,HW_LDT_1,2024.2.4,MacIntel,29.41176471,,,,,,,,,,,,,,,,,,,,,,594.561,594.758,594.758,595.258,,,,,,,,,,,,,,0.736,1,,,,,,,,,,,,,,z,,,,,,,,,,,,,,,,123,0,595.259,596.025,z,1,0.736,,[],[],[],[],[],[],[],596.025,598.025,598.025,598.026,[],[],[],[],[],[],[],,598.026,598.026,-0.024444444,-0.438888889,0,0,0,,0,122,122,31,1,3,RL,trilude,print,trilude_p.png,,,,,
,,,,32092,001,2025-12-02_21h46.43.709,HW_LDT_1,2024.2.4,MacIntel,29.41176471,,,,,,,,,,,,,,,,,,,,,,598.029,598.225,598.225,598.725,,,,,,,,,,,,,,1.016,1,,,,,,,,,,,,,,m,,,,,,,,,,,,,,,,124,0,598.726,599.758,m,1,1.016,,[],[],[],[],[],[],[],599.758,601.758,601.758,601.759,[],[],[],[],[],[],[],,601.759,601.759,-0.024444444,-0.438888889,0,0,0,,0,123,123,99,1,3,word,DEBATE,cursive,debate_c.png,,,,,
,,,,32092,001,2025-12-02_21h46.43.709,HW_LDT_1,2024.2.4,MacIntel,29.41176471,,,,,,,,,,,,,,,,,,,,,,601.763,601.958,601.958,602.458,,,,,,,,,,,,,,0.757,1,,,,,,,,,,,,,,m,,,,,,,,,,,,,,,,125,0,602.459,603.225,m,1,0.757,,[],[],[],[],[],[],[],603.225,605.225,605.225,605.226,[],[],[],[],[],[],[],,605.226,605.226,-0.024444444,-0.438888889,0,0,0,,0,124,124,151,1,3,word,SPECIFIC,print,specific_p.png,,,,,
,,,,32092,001,2025-12-02_21h46.43.709,HW_LDT_1,2024.2.4,MacIntel,29.41176471,,,,,,,,,,,,,,,,,,,,,,605.23,605.425,605.426,605.925,,,,,,,,,,,,,,0.754,1,,,,,,,,,,,,,,m,,,,,,,,,,,,,,,,126,0,605.926,606.692,m,1,0.754,,[],[],[],[],[],[],[],606.692,608.692,608.692,608.692,[],[],[],[],[],[],[],,608.692,608.693,-0.024444444,-0.438888889,0,0,0,,0,125,125,155,1,3,word,STRATEGY,print,strategy_p.png,,,,,
,,,,32092,001,2025-12-02_21h46.43.709,HW_LDT_1,2024.2.4,MacIntel,29.41176471,,,,,,,,,,,,,,,,,,,,,,608.696,608.892,608.892,609.392,,,,,,,,,,,,,,0.907,0,,,,,,,,,,,,,,m,,,,,,,,,,,,,,,,127,1,609.393,610.325,z,0,0.907,,[],[],[],[],[],[],[],610.325,612.325,612.325,613.359,[],[],[],[],[],[],[],m,613.359,613.359,-0.024444444,-0.438888889,0,0,0,,0,126,126,120,1,3,word,MILITARY,cursive,military_c.png,1.025,,,,
,,,,32092,001,2025-12-02_21h46.43.709,HW_LDT_1,2024.2.4,MacIntel,29.41176471,,,,,,,,,,,,,,,,,,,,,,613.362,613.559,613.559,614.059,,,,,,,,,,,,,,1.173,1,,,,,,,,,,,,,,m,,,,,,,,,,,,,,,,128,1,614.06,615.259,m,1,1.173,,[],[],[],[],[],[],[],615.259,617.259,617.259,618.026,[],[],[],[],[],[],[],z,618.026,618.026,-0.024444444,-0.438888889,0,0,0,,0,127,127,143,1,3,word,REMOVAL,cursive,removal_c.png,0.757,,,,
,,,,32092,001,2025-12-02_21h46.43.709,HW_LDT_1,2024.2.4,MacIntel,29.41176471,,,,,,,,,,,,,,,,,,,,,,618.029,618.226,618.226,618.726,,,,,,,,,,,,,,1.344,1,,,,,,,,,,,,,,m,,,,,,,,,,,,,,,,129,0,618.727,620.092,m,1,1.344,,[],[],[],[],[],[],[],620.093,622.092,622.093,622.093,[],[],[],[],[],[],[],,622.093,622.093,-0.024444444,-0.438888889,0,0,0,,0,128,128,157,1,3,word,VALIDITY,cursive,validity_c.png,,,,,
,,,,32092,001,2025-12-02_21h46.43.709,HW_LDT_1,2024.2.4,MacIntel,29.41176471,,,,,,,,,,,,,,,,,,,,,,622.097,622.293,622.293,622.793,,,,,,,,,,,,,,0.855,1,,,,,,,,,,,,,,m,,,,,,,,,,,,,,,,130,0,622.793,623.659,m,1,0.855,,[],[],[],[],[],[],[],623.659,625.659,625.66,625.66,[],[],[],[],[],[],[],,625.661,625.661,-0.024444444,-0.438888889,0,0,0,,0,129,129,97,1,3,word,COVERAGE,print,coverage_p.png,,,,,
,,,,32092,001,2025-12-02_21h46.43.709,HW_LDT_1,2024.2.4,MacIntel,29.41176471,,,,,,,,,,,,,,,,,,,,,,625.664,625.859,625.859,626.359,,,,,,,,,,,,,,0.978,1,,,,,,,,,,,,,,z,,,,,,,,,,,,,,,,131,0,626.36,627.36,z,1,0.978,,[],[],[],[],[],[],[],627.36,629.359,629.359,629.36,[],[],[],[],[],[],[],,629.36,629.36,-0.017777778,-0.444444444,0,0,0,,0,130,130,77,1,3,TL,vadility,cursive,vadility_c.png,,,,,
,,,,32092,001,2025-12-02_21h46.43.709,HW_LDT_1,2024.2.4,MacIntel,29.41176471,,,,,,,,,,,,,,,,,,,,,,629.364,629.56,629.56,630.06,,,,,,,,,,,,,,0.989,1,,,,,,,,,,,,,,m,,,,,,,,,,,,,,,,132,0,630.06,631.06,m,1,0.989,,[],[],[],[],[],[],[],631.06,633.06,633.06,633.061,[],[],[],[],[],[],[],,633.061,633.061,-0.017777778,-0.444444444,0,0,0,,0,131,131,113,1,3,word,LITERAL,print,literal_p.png,,,,,
,,,,32092,001,2025-12-02_21h46.43.709,HW_LDT_1,2024.2.4,MacIntel,29.41176471,,,,,,,,,,,,,,,,,,,,,,633.065,633.26,633.26,633.76,,,,,,,,,,,,,,0.971,1,,,,,,,,,,,,,,m,,,,,,,,,,,,,,,,133,0,633.76,634.759,m,1,0.971,,[],[],[],[],[],[],[],634.759,636.76,636.76,636.76,[],[],[],[],[],[],[],,636.761,636.761,-0.017777778,-0.444444444,0,0,0,,0,132,132,156,1,3,word,TRIBUTE,print,tribute_p.png,,,,,
,,,,32092,001,2025-12-02_21h46.43.709,HW_LDT_1,2024.2.4,MacIntel,29.41176471,,,,,,,,,,,,,,,,,,,,,,636.764,636.96,636.96,637.459,,,,,,,,,,,,,,0.922,1,,,,,,,,,,,,,,m,,,,,,,,,,,,,,,,134,1,637.46,638.393,m,1,0.922,,[],[],[],[],[],[],[],638.393,640.393,640.393,641.027,[],[],[],[],[],[],[],m,641.027,641.027,-0.017777778,-0.444444444,0,0,0,,0,133,133,129,1,3,word,PARENT,print,parent_p.png,0.623,,,,
,,,,32092,001,2025-12-02_21h46.43.709,HW_LDT_1,2024.2.4,MacIntel,29.41176471,,,,,,,,,,,,,,,,,,,,,,641.03,641.227,641.227,641.727,,,,,,,,,,,,,,1.589,1,,,,,,,,,,,,,,m,,,,,,,,,,,,,,,,135,1,641.727,643.327,m,1,1.589,,[],[],[],[],[],[],[],643.327,645.327,645.327,645.927,[],[],[],[],[],[],[],z,645.927,645.927,-0.017777778,-0.444444444,0,0,0,,0,134,134,128,1,3,word,PACIFIC,cursive,pacific_c.png,0.588,,,,
,,,,32092,001,2025-12-02_21h46.43.709,HW_LDT_1,2024.2.4,MacIntel,29.41176471,,,,,,,,,,,,,,,,,,,,,,645.93,646.127,646.127,646.627,,,,,,,,,,,,,,1.01,1,,,,,,,,,,,,,,m,,,,,,,,,,,,,,,,136,1,646.628,647.66,m,1,1.01,,[],[],[],[],[],[],[],647.66,649.66,649.66,650.427,[],[],[],[],[],[],[],z,650.427,650.428,-0.017777778,-0.444444444,0,0,0,,0,135,135,115,1,3,word,LOGICAL,cursive,logical_c.png,0.758,,,,
,,,,32092,001,2025-12-02_21h46.43.709,HW_LDT_1,2024.2.4,MacIntel,29.41176471,,,,,,,,,,,,,,,,,,,,,,650.431,650.627,650.627,651.127,,,,,,,,,,,,,,1.444,1,,,,,,,,,,,,,,m,,,,,,,,,,,,,,,,137,0,651.128,652.594,m,1,1.444,,[],[],[],[],[],[],[],652.594,654.594,654.594,654.595,[],[],[],[],[],[],[],,654.595,654.595,-0.02,-0.443333333,0,0,0,,0,136,136,127,1,3,word,ORIGINAL,cursive,original_c.png,,,,,
,,,,32092,001,2025-12-02_21h46.43.709,HW_LDT_1,2024.2.4,MacIntel,29.41176471,,,,,,,,,,,,,,,,,,,,,,654.599,654.794,654.795,655.293,,,,,,,,,,,,,,0.954,1,,,,,,,,,,,,,,z,,,,,,,,,,,,,,,,138,0,655.294,656.261,z,1,0.954,,[],[],[],[],[],[],[],656.261,658.261,658.261,658.262,[],[],[],[],[],[],[],,658.262,658.263,-0.02,-0.443333333,0,0,0,,0,137,137,39,1,3,TL,clicinal,print,clicinal_p.png,,,,,
,,,,32092,001,2025-12-02_21h46.43.709,HW_LDT_1,2024.2.4,MacIntel,29.41176471,,,,,,,,,,,,,,,,,,,,,,658.266,658.461,658.461,658.961,,,,,,,,,,,,,,0.807,1,,,,,,,,,,,,,,m,,,,,,,,,,,,,,,,139,1,658.962,659.794,m,1,0.807,,[],[],[],[],[],[],[],659.794,661.794,661.794,663.46,[],[],[],[],[],[],[],z,663.461,663.461,-0.02,-0.443333333,0,0,0,,0,138,138,96,1,3,word,CONSIDER,print,consider_p.png,1.64,,,,
,,,,32092,001,2025-12-02_21h46.43.709,HW_LDT_1,2024.2.4,MacIntel,29.41176471,,,,,,,,,,,,,,,,,,,,,,663.463,663.661,663.661,664.161,,,,,,,,,,,,,,1.087,1,,,,,,,,,,,,,,m,,,,,,,,,,,,,,,,140,0,664.161,665.261,m,1,1.087,,[],[],[],[],[],[],[],665.261,667.26,667.26,667.26,[],[],[],[],[],[],[],,667.26,667.26,-0.02,-0.447777778,0,0,0,,0,139,139,110,1,3,word,HERITAGE,cursive,heritage_c.png,,,,,
,,,,32092,001,2025-12-02_21h46.43.709,HW_LDT_1,2024.2.4,MacIntel,29.41176471,,,,,,,,,,,,,,,,,,,,,,667.262,667.461,667.461,667.961,,,,,,,,,,,,,,2.195,0,,,,,,,,,,,,,,m,,,,,,,,,,,,,,,,141,0,667.962,670.161,z,0,2.195,,[],[],[],[],[],[],[],670.161,672.161,672.161,672.162,[],[],[],[],[],[],[],,672.162,672.162,-0.011111111,-0.467777778,0,0,0,,0,140,140,114,1,3,word,LOCATE,cursive,locate_c.png,,,,,
,,,,32092,001,2025-12-02_21h46.43.709,HW_LDT_1,2024.2.4,MacIntel,29.41176471,,,,,,,,,,,,,,,,,,,,,,672.165,672.36,672.36,672.861,,,,,,,,,,,,,,1.198,1,,,,,,,,,,,,,,m,,,,,,,,,,,,,,,,142,0,672.862,674.061,m,1,1.198,,[],[],[],[],[],[],[],674.062,676.061,676.062,676.062,[],[],[],[],[],[],[],,676.062,676.062,-0.006666667,-0.466666667,0,0,0,,0,141,141,101,1,3,word,DELICATE,print,delicate_p.png,,,,,
,,,,32092,001,2025-12-02_21h46.43.709,HW_LDT_1,2024.2.4,MacIntel,29.41176471,,,,,,,,,,,,,,,,,,,,,,676.066,676.261,676.261,676.761,,,,,,,,,,,,,,1.189,1,,,,,,,,,,,,,,m,,,,,,,,,,,,,,,,143,0,676.762,677.96,m,1,1.189,,[],[],[],[],[],[],[],677.961,679.961,679.961,679.962,[],[],[],[],[],[],[],,679.962,679.962,-0.008888889,-0.463333333,0,0,0,,0,142,142,148,1,3,word,SALINE,cursive,saline_c.png,,,,,
,,,,32092,001,2025-12-02_21h46.43.709,HW_LDT_1,2024.2.4,MacIntel,29.41176471,,,,,,,,,,,,,,,,,,,,,,679.965,680.161,680.162,680.662,,,,,,,,,,,,,,0.796,1,,,,,,,,,,,,,,z,,,,,,,,,,,,,,,,144,0,680.662,681.461,z,1,0.796,,[],[],[],[],[],[],[],681.461,683.462,683.462,683.462,[],[],[],[],[],[],[],,683.462,683.462,-0.008888889,-0.463333333,0,0,0,,0,143,143,41,1,3,TL,crinimal,print,crinimal_p.png,,,,,
,,,,32092,001,2025-12-02_21h46.43.709,HW_LDT_1,2024.2.4,MacIntel,29.41176471,,,,,,,,,,,,,,,,,,,,,,683.465,683.66,683.661,684.162,,,,,,,,,,,,,,1.255,1,,,,,,,,,,,,,,m,,,,,,,,,,,,,,,,145,0,684.162,685.428,m,1,1.255,,[],[],[],[],[],[],[],685.428,687.428,687.428,687.429,[],[],[],[],[],[],[],,687.429,687.429,-0.007777778,-0.463333333,0,0,0,,0,144,144,144,1,3,word,RESIDENT,cursive,resident_c.png,,,,,
,,,,32092,001,2025-12-02_21h46.43.709,HW_LDT_1,2024.2.4,MacIntel,29.41176471,,,,,,,,,,,,,,,,,,,,,,687.432,687.628,687.628,688.128,,,,,,,,,,,,,,0.671,1,,,,,,,,,,,,,,z,,,,,,,,,,,,,,,,146,0,688.129,688.828,z,1,0.671,,[],[],[],[],[],[],[],688.829,690.828,690.828,690.828,[],[],[],[],[],[],[],,690.828,690.828,-0.008888889,-0.457777778,0,0,0,,0,145,145,10,1,3,RL,efibor,print,efibor_p.png,,,,,
,,,,32092,001,2025-12-02_21h46.43.709,HW_LDT_1,2024.2.4,MacIntel,29.41176471,,,,,,,,,,,,,,,,,,,,,,690.829,691.028,691.028,691.529,,,,,,,,,,,,,,2.523,1,,,,,,,,,,,,,,m,,,,,,,,,,,,,,,,147,0,691.53,694.062,m,1,2.523,,[-0.011111111111111112],[-0.4533333333333333],[1],[0],[0],[2.5289999999999964],[null],694.063,696.062,696.063,696.064,[],[],[],[],[],[],[],,696.064,696.065,-0.011111111,-0.453333333,0,0,0,,0,146,146,123,1,3,word,MODERATE,cursive,moderate_c.png,,,,,
,,,,32092,001,2025-12-02_21h46.43.709,HW_LDT_1,2024.2.4,MacIntel,29.41176471,,,,,,,,,,,,,,,,,,,,,,696.072,696.262,696.262,696.762,,,,,,,,,,,,,,2.704,1,,,,,,,,,,,,,,z,,,,,,,,,,,,,,,,148,0,696.763,699.495,z,1,2.704,,[],[],[],[],[],[],[],699.495,701.495,701.495,701.496,[],[],[],[],[],[],[],,701.496,701.496,-0.011111111,-0.45,0,0,0,,0,147,147,48,1,3,TL,grafetul,cursive,grafetul_c.png,,,,,
,,,,32092,001,2025-12-02_21h46.43.709,HW_LDT_1,2024.2.4,MacIntel,29.41176471,,,,,,,,,,,,,,,,,,,,,,701.498,701.696,701.696,702.196,,,,,,,,,,,,,,2.424,1,,,,,,,,,,,,,,m,,,,,,,,,,,,,,,,149,0,702.196,704.629,m,1,2.424,,[],[],[],[],[],[],[],704.629,706.629,706.629,706.63,[],[],[],[],[],[],[],,706.63,706.63,-0.015555556,-0.447777778,0,0,0,,0,148,148,117,1,3,word,MARINE,cursive,marine_c.png,,,,,
,,,,32092,001,2025-12-02_21h46.43.709,HW_LDT_1,2024.2.4,MacIntel,29.41176471,,,,,,,,,,,,,,,,,,,,,,706.633,706.829,706.829,707.329,,,,,,,,,,,,,,2.607,0,,,,,,,,,,,,,,m,,,,,,,,,,,,,,,,150,0,707.33,709.965,z,0,2.607,,[],[],[],[],[],[],[],709.965,711.963,711.963,711.964,[],[],[],[],[],[],[],,711.964,711.964,-0.015555556,-0.447777778,0,0,0,,0,149,149,121,1,3,word,MISTAKE,cursive,mistake_c.png,,,,,
,,,,32092,001,2025-12-02_21h46.43.709,HW_LDT_1,2024.2.4,MacIntel,29.41176471,,,,,,,,,,,,,,,,,,,,,,711.968,712.163,712.163,712.663,,,,,,,,,,,,,,0.738,1,,,,,,,,,,,,,,z,,,,,,,,,,,,,,,,151,0,712.664,713.429,z,1,0.738,,[],[],[],[],[],[],[],713.429,715.429,715.429,715.43,[],[],[],[],[],[],[],,715.43,715.43,-0.015555556,-0.447777778,0,0,0,,0,150,150,32,1,3,TL,adacemy,print,adacemy_p.png,,,,,
,,,,32092,001,2025-12-02_21h46.43.709,HW_LDT_1,2024.2.4,MacIntel,29.41176471,,,,,,,,,,,,,,,,,,,,,,715.433,715.629,715.629,716.129,,,,,,,,,,,,,,1.057,1,,,,,,,,,,,,,,m,,,,,,,,,,,,,,,,152,0,716.13,717.196,m,1,1.057,,[],[],[],[],[],[],[],717.196,719.196,719.196,719.197,[],[],[],[],[],[],[],,719.197,719.197,-0.015555556,-0.447777778,0,0,0,,0,151,151,94,1,3,word,CLINICAL,print,clinical_p.png,,,,,
,,,,32092,001,2025-12-02_21h46.43.709,HW_LDT_1,2024.2.4,MacIntel,29.41176471,,,,,,,,,,,,,,,,,,,,,,719.2,719.396,719.396,719.896,,,,,,,,,,,,,,0.639,1,,,,,,,,,,,,,,z,,,,,,,,,,,,,,,,153,0,719.897,720.563,z,1,0.639,,[],[],[],[],[],[],[],720.563,722.563,722.563,722.564,[],[],[],[],[],[],[],,722.564,722.564,-0.015555556,-0.447777778,0,0,0,,0,152,152,44,1,3,TL,decilate,print,decilate_p.png,,,,,
,,,,32092,001,2025-12-02_21h46.43.709,HW_LDT_1,2024.2.4,MacIntel,29.41176471,,,,,,,,,,,,,,,,,,,,,,722.567,722.763,722.763,723.262,,,,,,,,,,,,,,1.243,1,,,,,,,,,,,,,,z,,,,,,,,,,,,,,,,154,1,723.263,724.53,z,1,1.243,,[],[],[],[],[],[],[],724.53,726.53,726.53,727.697,[],[],[],[],[],[],[],z,727.697,727.697,-0.015555556,-0.447777778,0,0,0,,0,153,153,57,1,3,TL,moredate,cursive,moredate_c.png,1.163,,,,
,,,,32092,001,2025-12-02_21h46.43.709,HW_LDT_1,2024.2.4,MacIntel,29.41176471,,,,,,,,,,,,,,,,,,,,,,727.7,727.897,727.897,728.397,,,,,,,,,,,,,,2.365,1,,,,,,,,,,,,,,z,,,,,,,,,,,,,,,,155,0,728.397,730.764,z,1,2.365,,[],[],[],[],[],[],[],730.764,732.763,732.763,732.764,[],[],[],[],[],[],[],,732.764,732.764,-0.013333333,-0.455555556,0,0,0,,0,154,154,4,1,3,RL,cafigal,cursive,cafigal_c.png,,,,,
,,,,32092,001,2025-12-02_21h46.43.709,HW_LDT_1,2024.2.4,MacIntel,29.41176471,,,,,,,,,,,,,,,,,,,,,,732.768,732.963,732.963,733.464,,,,,,,,,,,,,,2.735,1,,,,,,,,,,,,,,z,,,,,,,,,,,,,,,,156,0,733.465,736.23,z,1,2.735,,[],[],[],[],[],[],[],736.23,738.23,738.23,738.231,[],[],[],[],[],[],[],,738.231,738.231,-0.013333333,-0.455555556,0,0,0,,0,155,155,20,1,3,RL,orimipal,cursive,orimipal_c.png,,,,,
,,,,32092,001,2025-12-02_21h46.43.709,HW_LDT_1,2024.2.4,MacIntel,29.41176471,,,,,,,,,,,,,,,,,,,,,,738.234,738.43,738.43,738.93,,,,,,,,,,,,,,0.752,1,,,,,,,,,,,,,,m,,,,,,,,,,,,,,,,157,0,738.931,739.697,m,1,0.752,,[],[],[],[],[],[],[],739.697,741.696,741.696,741.697,[],[],[],[],[],[],[],,741.697,741.697,-0.013333333,-0.451111111,0,0,0,,0,156,156,146,1,3,word,RETIRE,print,retire_p.png,,,,,
,,,,32092,001,2025-12-02_21h46.43.709,HW_LDT_1,2024.2.4,MacIntel,29.41176471,,,,,,,,,,,,,,,,,,,,,,741.699,741.897,741.897,742.396,,,,,,,,,,,,,,0.61,1,,,,,,,,,,,,,,m,,,,,,,,,,,,,,,,158,0,742.397,743.03,m,1,0.61,,[],[],[],[],[],[],[],743.03,745.03,745.03,745.03,[],[],[],[],[],[],[],,745.03,745.03,-0.012222222,-0.452222222,0,0,0,,0,157,157,132,1,3,word,PROPOSAL,print,proposal_p.png,,,,,
,,,,32092,001,2025-12-02_21h46.43.709,HW_LDT_1,2024.2.4,MacIntel,29.41176471,,,,,,,,,,,,,,,,,,,,,,745.031,745.23,745.23,745.73,,,,,,,,,,,,,,0.704,1,,,,,,,,,,,,,,m,,,,,,,,,,,,,,,,159,0,745.73,746.464,m,1,0.704,,[],[],[],[],[],[],[],746.464,748.464,748.464,748.465,[],[],[],[],[],[],[],,748.465,748.465,-0.012222222,-0.447777778,0,0,0,,0,158,158,122,1,3,word,MOBILE,cursive,mobile_c.png,,,,,
,,,,32092,001,2025-12-02_21h46.43.709,HW_LDT_1,2024.2.4,MacIntel,29.41176471,,,,,,,,,,,,,,,,,,,,,,748.468,748.664,748.664,749.164,,,,,,,,,,,,,,1.605,1,,,,,,,,,,,,,,z,,,,,,,,,,,,,,,,160,0,749.165,750.797,z,1,1.605,,[],[],[],[],[],[],[],750.798,752.798,752.798,752.798,[],[],[],[],[],[],[],,752.798,752.799,-0.012222222,-0.446666667,0,0,0,,0,159,159,17,1,3,RL,motide,cursive,motide_c.png,,,,,
,,,,32092,001,2025-12-02_21h46.43.709,HW_LDT_1,2024.2.4,MacIntel,29.41176471,,,,,,,,,,,,,,,,,,,,,,,,,,,,,,,,,,,,,,,,,,,,,,,,,,,,,,,,,,,,,,,,,,,,,,,,,,,,,,,,,,,,,,,,,,,,,,,,,,,,,,,,,,,,,,,,,,,,,,752.818,757.798
