counterbalance_lists.group,counterbalance_lists.remaining,get_list.started,get_list.stopped,participant,session,date,expName,psychopyVersion,OS,frameRate,Instructions.started,Instructions.stopped,key_resp.keys,instr_done_touch.x,instr_done_touch.y,instr_done_touch.leftButton,instr_done_touch.midButton,instr_done_touch.rightButton,instr_done_touch.clicked_name,start_instr.thisRepN,start_instr.thisTrialN,start_instr.thisN,start_instr.thisIndex,start_instr.ran,pageN,phase,instruct_text,has_image,instruct_image,showProgress.started,showProgress.stopped,fix.started,fix.stopped,prac.started,prac.stopped,response.keys,response.corr,response.rt,response.duration,touch_resp.x,touch_resp.y,touch_resp.leftButton,touch_resp.midButton,touch_resp.rightButton,touch_resp.time,touch_resp.clicked_name,rt,corr,feedback.started,feedback.stopped,trials.thisRepN,trials.thisTrialN,trials.thisN,trials.thisIndex,trials.ran,TrialID,StimulusType,Condition,PrimeDuration,Prime,Target,corrAns,Instructions_expt.started,Instructions_expt.stopped,key_resp_3.keys,instr_done_touch_3.x,instr_done_touch_3.y,instr_done_touch_3.leftButton,instr_done_touch_3.midButton,instr_done_touch_3.rightButton,instr_done_touch_3.clicked_name,instr_experiment.thisRepN,instr_experiment.thisTrialN,instr_experiment.thisN,instr_experiment.thisIndex,instr_experiment.ran,trialID,flag,maintask.started,maintask.stopped,key_resp_2.keys,key_resp_2.corr,key_resp_2.rt,key_resp_2.duration,targ_click.x,targ_click.y,targ_click.leftButton,targ_click.midButton,targ_click.rightButton,targ_click.time,targ_click.clicked_name,ITI.started,ITI.stopped,probe.started,probe.stopped,click_probe.x,click_probe.y,click_probe.leftButton,click_probe.midButton,click_probe.rightButton,click_probe.time,click_probe.clicked_name,key_resp_probe.keys,key_resp_probe.rt,key_resp_probe.duration,Break.started,Break.stopped,break_done_touch.x,break_done_touch.y,break_done_touch.leftButton,break_done_touch.midButton,break_done_touch.rightButton,break_done_keyboard.keys,list1_trials.thisRepN,list1_trials.thisTrialN,list1_trials.thisN,list1_trials.thisIndex,list1_trials.ran,list_id,item_type,string,font,stim_file,break_done_touch.clicked_name,End.started,End.stopped
list1,,0.4707,0.4709,32095,001,2025-10-24_15h54.44.749,HW_LDT_1,2024.2.4,MacIntel,59.88023952,,,,,,,,,,,,,,,,,,,,,,,,,,,,,,,,,,,,,,,,,,,,,,,,,,,,,,,,,,,,,,,,,,,,,,,,,,,,,,,,,,,,,,,,,,,,,,,,,,,,,,,,,,,,,,,,,,,,
,,,,32095,001,2025-10-24_15h54.44.749,HW_LDT_1,2024.2.4,MacIntel,59.88023952,0.4868,2.3901,,0.012719978,-0.40945466,1,0,0,instr_done_button,0,0,0,0,1,1,instructions,"INSTRUCTIONS
At the start of each trial, look at the plus sign  (+) in the center of the screen.  This tells you that a trial is about to begin and where to look. Second, the plus sign will disappear and a string of letters will appear. Your task is to determine if the string of letters is a word or not. If the item is a word press the M key (on keyboard)  or touch the word button (phone/tablet).  If the item is not a word,  press the  Z key (on keyboard)  or touch the nonword button (on phone/tablet). The items will be presented for a short time. 
Press the space bar or touch  continue.",0,,,,,,,,,,,,,,,,,,,,,,,,,,,,,,,,,,,,,,,,,,,,,,,,,,,,,,,,,,,,,,,,,,,,,,,,,,,,,,,,,,,,,,,,,,,,,,,,,,
,,,,32095,001,2025-10-24_15h54.44.749,HW_LDT_1,2024.2.4,MacIntel,59.88023952,2.3912,14.5405,,0.012719978,-0.40945466,1,0,0,instr_done_button,0,1,1,1,1,2,instructions,"If your device has a keyboard, press the 'Z' key for nonwords and the 'M' key for words.





Press the space bar or touch the button below to continue.",0,keyboard-example.gif,,,,,,,,,,,,,,,,,,,,,,,,,,,,,,,,,,,,,,,,,,,,,,,,,,,,,,,,,,,,,,,,,,,,,,,,,,,,,,,,,,,,,,,,,,,,,,,,,
,,,,32095,001,2025-10-24_15h54.44.749,HW_LDT_1,2024.2.4,MacIntel,59.88023952,14.5418,17.7902,,0.012719978,-0.40945466,1,0,0,instr_done_button,0,2,2,2,1,3,instructions,"If you are using a touchscreen only device, use the buttons on the screen. Do not use the mouse.





Press the space bar or touch the button below to continue.",0,touchscreen-example.gif,,,,,,,,,,,,,,,,,,,,,,,,,,,,,,,,,,,,,,,,,,,,,,,,,,,,,,,,,,,,,,,,,,,,,,,,,,,,,,,,,,,,,,,,,,,,,,,,,
,,,,32095,001,2025-10-24_15h54.44.749,HW_LDT_1,2024.2.4,MacIntel,59.88023952,17.792,35.5571,,0.012719978,-0.40945466,1,0,0,instr_done_button,0,3,3,3,1,4,instructions,"It is very important that you respond as quickly and accurately as possible, as each letter string will only be on the screen for two seconds. If you do not respond within this time, the message 'Too slow!' will be displayed and the experiment will progress to the next letter string. The first 20 trials will be practice trials and you will receive feedback on your answers. 

Press the space bar or touch the button below to start the practice trials.",0,,,,,,,,,,,,,,,,,,,,,,,,,,,,,,,,,,,,,,,,,,,,,,,,,,,,,,,,,,,,,,,,,,,,,,,,,,,,,,,,,,,,,,,,,,,,,,,,,,
,,,,32095,001,2025-10-24_15h54.44.749,HW_LDT_1,2024.2.4,MacIntel,59.88023952,,,,,,,,,,,,,,,,,,,,35.5807,35.7566,35.7568,36.2568,36.2571,44.7068,m,1,8.4241,,[],[],[],[],[],[],[],8.4241,1,44.7072,45.2068,0,0,0,6,1,1007,WORD,UN,16,tropic,ZOMBIE,m,,,,,,,,,,,,,,,,,,,,,,,,,,,,,,,,,,,,,,,,,,,,,,,,,,,,,,,,,,,,,,,,
,,,,32095,001,2025-10-24_15h54.44.749,HW_LDT_1,2024.2.4,MacIntel,59.88023952,,,,,,,,,,,,,,,,,,,,45.2083,45.4066,45.4066,45.9066,45.9075,46.5066,z,0,0.5799,,[],[],[],[],[],[],[],0.5799,0,46.5073,47.0067,0,1,1,4,1,1005,WORD,UN,33,abound,SQUEAK,m,,,,,,,,,,,,,,,,,,,,,,,,,,,,,,,,,,,,,,,,,,,,,,,,,,,,,,,,,,,,,,,,
,,,,32095,001,2025-10-24_15h54.44.749,HW_LDT_1,2024.2.4,MacIntel,59.88023952,,,,,,,,,,,,,,,,,,,,47.0082,47.2065,47.2066,47.7065,47.7074,48.7065,m,0,0.9782,,[],[],[],[],[],[],[],0.9782,0,48.7067,49.2065,0,2,2,14,1,1015,NW,UN,16,miaber,THRALE,z,,,,,,,,,,,,,,,,,,,,,,,,,,,,,,,,,,,,,,,,,,,,,,,,,,,,,,,,,,,,,,,,
,,,,32095,001,2025-10-24_15h54.44.749,HW_LDT_1,2024.2.4,MacIntel,59.88023952,,,,,,,,,,,,,,,,,,,,49.2079,49.4065,49.4065,49.9065,49.9074,51.4058,m,1,1.4785,,[],[],[],[],[],[],[],1.4785,1,51.4066,51.9066,0,3,3,1,1,1002,WORD,"ID",33,adjust,ADJUST,m,,,,,,,,,,,,,,,,,,,,,,,,,,,,,,,,,,,,,,,,,,,,,,,,,,,,,,,,,,,,,,,,
,,,,32095,001,2025-10-24_15h54.44.749,HW_LDT_1,2024.2.4,MacIntel,59.88023952,,,,,,,,,,,,,,,,,,,,51.9078,52.1065,52.1066,52.6061,52.607,53.4725,m,1,0.8533,,[],[],[],[],[],[],[],0.8533,1,53.4725,53.9733,0,4,4,0,1,1001,WORD,"ID",33,utopia,UTOPIA,m,,,,,,,,,,,,,,,,,,,,,,,,,,,,,,,,,,,,,,,,,,,,,,,,,,,,,,,,,,,,,,,,
,,,,32095,001,2025-10-24_15h54.44.749,HW_LDT_1,2024.2.4,MacIntel,59.88023952,,,,,,,,,,,,,,,,,,,,53.9745,54.1732,54.1732,54.6727,54.6736,55.1898,m,1,0.4963,,[],[],[],[],[],[],[],0.4963,1,55.1901,55.6898,0,5,5,3,1,1004,WORD,"ID",16,matrix,MATRIX,m,,,,,,,,,,,,,,,,,,,,,,,,,,,,,,,,,,,,,,,,,,,,,,,,,,,,,,,,,,,,,,,,
,,,,32095,001,2025-10-24_15h54.44.749,HW_LDT_1,2024.2.4,MacIntel,59.88023952,,,,,,,,,,,,,,,,,,,,55.6912,55.8898,55.8899,56.3898,56.3907,56.8565,m,0,0.4494,,[],[],[],[],[],[],[],0.4494,0,56.8573,57.3565,0,6,6,15,1,1016,NW,UN,16,mushed,WHAISE,z,,,,,,,,,,,,,,,,,,,,,,,,,,,,,,,,,,,,,,,,,,,,,,,,,,,,,,,,,,,,,,,,
,,,,32095,001,2025-10-24_15h54.44.749,HW_LDT_1,2024.2.4,MacIntel,59.88023952,,,,,,,,,,,,,,,,,,,,57.3577,57.5566,57.5567,58.0564,58.0573,59.6399,z,1,1.5632,,[],[],[],[],[],[],[],1.5632,1,59.6407,60.1398,0,7,7,13,1,1014,NW,UN,33,winfer,ROUPET,z,,,,,,,,,,,,,,,,,,,,,,,,,,,,,,,,,,,,,,,,,,,,,,,,,,,,,,,,,,,,,,,,
,,,,32095,001,2025-10-24_15h54.44.749,HW_LDT_1,2024.2.4,MacIntel,59.88023952,,,,,,,,,,,,,,,,,,,,60.1411,60.3397,60.3398,60.8399,60.8408,62.2063,z,1,1.3545,,[],[],[],[],[],[],[],1.3545,1,62.2064,62.7065,0,8,8,9,1,1010,NW,"ID",33,fariny,FARINY,z,,,,,,,,,,,,,,,,,,,,,,,,,,,,,,,,,,,,,,,,,,,,,,,,,,,,,,,,,,,,,,,,
,,,,32095,001,2025-10-24_15h54.44.749,HW_LDT_1,2024.2.4,MacIntel,59.88023952,,,,,,,,,,,,,,,,,,,,62.7078,62.9058,62.9058,63.4064,63.4073,64.5398,z,1,1.1151,,[],[],[],[],[],[],[],1.1151,1,64.5399,65.0399,0,9,9,12,1,1013,NW,UN,33,adveil,SPRINY,z,,,,,,,,,,,,,,,,,,,,,,,,,,,,,,,,,,,,,,,,,,,,,,,,,,,,,,,,,,,,,,,,
,,,,32095,001,2025-10-24_15h54.44.749,HW_LDT_1,2024.2.4,MacIntel,59.88023952,,,,,,,,,,,,,,,,,,,,65.0411,65.2397,65.2398,65.7398,65.7406,66.7236,z,1,0.9755,,[],[],[],[],[],[],[],0.9755,1,66.7237,67.2222,0,10,10,11,1,1012,NW,"ID",16,rashet,RASHET,z,,,,,,,,,,,,,,,,,,,,,,,,,,,,,,,,,,,,,,,,,,,,,,,,,,,,,,,,,,,,,,,,
,,,,32095,001,2025-10-24_15h54.44.749,HW_LDT_1,2024.2.4,MacIntel,59.88023952,,,,,,,,,,,,,,,,,,,,67.2234,67.423,67.4231,67.9221,67.923,68.5731,m,1,0.6348,,[],[],[],[],[],[],[],0.6348,1,68.5731,69.0732,0,11,11,5,1,1006,WORD,UN,33,frenzy,OBTAIN,m,,,,,,,,,,,,,,,,,,,,,,,,,,,,,,,,,,,,,,,,,,,,,,,,,,,,,,,,,,,,,,,,
,,,,32095,001,2025-10-24_15h54.44.749,HW_LDT_1,2024.2.4,MacIntel,59.88023952,,,,,,,,,,,,,,,,,,,,69.0744,69.273,69.2731,69.7732,69.7741,70.8389,m,1,1.0466,,[],[],[],[],[],[],[],1.0466,1,70.8391,71.3397,0,12,12,2,1,1003,WORD,"ID",16,almond,ALMOND,m,,,,,,,,,,,,,,,,,,,,,,,,,,,,,,,,,,,,,,,,,,,,,,,,,,,,,,,,,,,,,,,,
,,,,32095,001,2025-10-24_15h54.44.749,HW_LDT_1,2024.2.4,MacIntel,59.88023952,,,,,,,,,,,,,,,,,,,,71.3409,71.5388,71.5389,72.0398,72.0406,72.7731,m,1,0.7132,,[],[],[],[],[],[],[],0.7132,1,72.7733,73.2732,0,13,13,7,1,1008,WORD,UN,16,hurdle,VOLUME,m,,,,,,,,,,,,,,,,,,,,,,,,,,,,,,,,,,,,,,,,,,,,,,,,,,,,,,,,,,,,,,,,
,,,,32095,001,2025-10-24_15h54.44.749,HW_LDT_1,2024.2.4,MacIntel,59.88023952,,,,,,,,,,,,,,,,,,,,73.2743,73.4731,73.4731,73.973,73.9738,75.0055,z,1,1.0137,,[],[],[],[],[],[],[],1.0137,1,75.0056,75.5054,0,14,14,8,1,1009,NW,"ID",33,aslert,ASLERT,z,,,,,,,,,,,,,,,,,,,,,,,,,,,,,,,,,,,,,,,,,,,,,,,,,,,,,,,,,,,,,,,,
,,,,32095,001,2025-10-24_15h54.44.749,HW_LDT_1,2024.2.4,MacIntel,59.88023952,,,,,,,,,,,,,,,,,,,,75.5066,75.7063,75.7064,76.2055,76.2062,77.2231,z,1,0.9996,,[],[],[],[],[],[],[],0.9996,1,77.2232,77.7221,0,15,15,10,1,1011,NW,"ID",16,inlade,INLADE,z,,,,,,,,,,,,,,,,,,,,,,,,,,,,,,,,,,,,,,,,,,,,,,,,,,,,,,,,,,,,,,,,
,,,,32095,001,2025-10-24_15h54.44.749,HW_LDT_1,2024.2.4,MacIntel,59.88023952,,,,,,,,,,,,,,,1,end_of_practice,"You have completed the practice trials. During the experimental trials, you will not receive feedback. On some trials you will be asked to report whether the item you just saw was in cursive or print. 
Before you begin, please ensure that you are in a comfortable and quiet location and will not be disturbed for about 15 minutes, as we cannot use your data if you do not complete all the trials. 
 When you are ready to start the experimental trials, please press space or touch the button below.",,,,,,,,,,,,,,,,,,,,,,,,,,,,,,,,,,,,77.7276,84.9395,,0.04272027,-0.375946416,1,0,0,instr_done_button_3,0,0,0,0,1,,,,,,,,,,,,,,,,,,,,,,,,,,,,,,,,,,,,,,,,,,,,,,,,,,
,,,,32095,001,2025-10-24_15h54.44.749,HW_LDT_1,2024.2.4,MacIntel,59.88023952,,,,,,,,,,,,,,,,,,,,84.9447,85.1395,85.1396,85.6397,,,,,,,,,,,,,,2.3776,1,,,,,,,,,,,,,,z,,,,,,,,,,,,,,,1,1,85.6411,88.0218,z,1,2.3776,,[],[],[],[],[],[],[],88.0219,90.0223,90.0226,94.3903,[],[],[],[],[],[],[],z,4.3541,,94.3906,94.3933,0.04228543,-0.375946416,0,0,0,,0,0,0,10,1,1,RL,efibor,cursive,efibor_c.png,,,
,,,,32095,001,2025-10-24_15h54.44.749,HW_LDT_1,2024.2.4,MacIntel,59.88023952,,,,,,,,,,,,,,,,,,,,94.3942,94.5897,94.5897,95.0896,,,,,,,,,,,,,,3.0569,1,,,,,,,,,,,,,,z,,,,,,,,,,,,,,,2,0,95.0903,98.1562,z,1,3.0569,,[],[],[],[],[],[],[],98.1563,100.1563,100.1564,100.1566,[],[],[],[],[],[],[],,,,100.1567,100.1568,0.04228543,-0.375946416,0,0,0,,0,1,1,5,1,1,RL,cobeny,cursive,cobeny_c.png,,,
,,,,32095,001,2025-10-24_15h54.44.749,HW_LDT_1,2024.2.4,MacIntel,59.88023952,,,,,,,,,,,,,,,,,,,,100.1578,100.3563,100.3563,100.8563,,,,,,,,,,,,,,1.2548,1,,,,,,,,,,,,,,m,,,,,,,,,,,,,,,3,1,100.8569,102.1231,m,1,1.2548,,[],[],[],[],[],[],[],102.1232,104.1229,104.123,105.573,[],[],[],[],[],[],[],m,1.4396,,105.5731,105.5732,0.04228543,-0.375946416,0,0,0,,0,2,2,107,1,1,word,EVIDENT,print,evident_p.png,,,
,,,,32095,001,2025-10-24_15h54.44.749,HW_LDT_1,2024.2.4,MacIntel,59.88023952,,,,,,,,,,,,,,,,,,,,105.5741,105.773,105.773,106.2728,,,,,,,,,,,,,,1.0578,0,,,,,,,,,,,,,,z,,,,,,,,,,,,,,,4,0,106.2734,107.3396,m,0,1.0578,,[],[],[],[],[],[],[],107.3397,109.3395,109.3395,109.3397,[],[],[],[],[],[],[],,,,109.3397,109.3398,0.04228543,-0.375946416,0,0,0,,0,3,3,45,1,1,TL,cacapity,print,cacapity_p.png,,,
,,,,32095,001,2025-10-24_15h54.44.749,HW_LDT_1,2024.2.4,MacIntel,59.88023952,,,,,,,,,,,,,,,,,,,,109.341,109.5395,109.5397,110.0397,,,,,,,,,,,,,,2.6546,1,,,,,,,,,,,,,,z,,,,,,,,,,,,,,,5,0,110.0402,112.7062,z,1,2.6546,,[],[],[],[],[],[],[],112.7063,114.7063,114.7064,114.7066,[],[],[],[],[],[],[],,,,114.7066,114.7067,0.04228543,-0.375946416,0,0,0,,0,4,4,23,1,1,RL,potugar,cursive,potugar_c.png,,,
,,,,32095,001,2025-10-24_15h54.44.749,HW_LDT_1,2024.2.4,MacIntel,59.88023952,,,,,,,,,,,,,,,,,,,,114.7078,114.9058,114.9059,115.4053,,,,,,,,,,,,,,0.7877,0,,,,,,,,,,,,,,z,,,,,,,,,,,,,,,6,0,115.406,116.2064,m,0,0.7877,,[],[],[],[],[],[],[],116.2065,118.2062,118.2063,118.2066,[],[],[],[],[],[],[],,,,118.2066,118.2068,0.04228543,-0.375946416,0,0,0,,0,5,5,47,1,1,TL,cagetory,print,cagetory_p.png,,,
,,,,32095,001,2025-10-24_15h54.44.749,HW_LDT_1,2024.2.4,MacIntel,59.88023952,,,,,,,,,,,,,,,,,,,,118.2079,118.4063,118.4063,118.9062,,,,,,,,,,,,,,0.6422,1,,,,,,,,,,,,,,m,,,,,,,,,,,,,,,7,0,118.9069,119.5564,m,1,0.6422,,[],[],[],[],[],[],[],119.5565,121.5553,121.5554,121.5556,[],[],[],[],[],[],[],,,,121.5556,121.5558,0.04228543,-0.375946416,0,0,0,,0,6,6,85,1,1,word,BENEFIT,print,benefit_p.png,,,
,,,,32095,001,2025-10-24_15h54.44.749,HW_LDT_1,2024.2.4,MacIntel,59.88023952,,,,,,,,,,,,,,,,,,,,121.5569,121.7563,121.7563,122.2562,,,,,,,,,,,,,,2.9046,1,,,,,,,,,,,,,,z,,,,,,,,,,,,,,,8,0,122.2567,125.1727,z,1,2.9046,,[],[],[],[],[],[],[],125.1728,127.1719,127.172,127.1721,[],[],[],[],[],[],[],,,,127.1721,127.1723,0.04228543,-0.375946416,0,0,0,,0,7,7,68,1,1,TL,prosopal,cursive,prosopal_c.png,,,
,,,,32095,001,2025-10-24_15h54.44.749,HW_LDT_1,2024.2.4,MacIntel,59.88023952,,,,,,,,,,,,,,,,,,,,127.1731,127.3719,127.372,127.8729,,,,,,,,,,,,,,4.1388,1,,,,,,,,,,,,,,z,,,,,,,,,,,,,,,9,0,127.8735,132.0229,z,1,4.1388,,[],[],[],[],[],[],[],132.023,134.0229,134.0229,134.0231,[],[],[],[],[],[],[],,,,134.0232,134.0233,0.04228543,-0.375946416,0,0,0,,0,8,8,26,1,1,RL,quafidy,cursive,quafidy_c.png,,,
,,,,32095,001,2025-10-24_15h54.44.749,HW_LDT_1,2024.2.4,MacIntel,59.88023952,,,,,,,,,,,,,,,,,,,,134.0244,134.2229,134.2229,134.7228,,,,,,,,,,,,,,1.0045,1,,,,,,,,,,,,,,z,,,,,,,,,,,,,,,10,0,134.7234,135.7396,z,1,1.0045,,[],[],[],[],[],[],[],135.7397,137.7396,137.7396,137.7398,[],[],[],[],[],[],[],,,,137.7398,137.74,0.04228543,-0.375946416,0,0,0,,0,9,9,8,1,1,RL,debave,print,debave_p.png,,,
,,,,32095,001,2025-10-24_15h54.44.749,HW_LDT_1,2024.2.4,MacIntel,59.88023952,,,,,,,,,,,,,,,,,,,,137.7411,137.9396,137.9396,138.4396,,,,,,,,,,,,,,2.4079,1,,,,,,,,,,,,,,m,,,,,,,,,,,,,,,11,0,138.4401,140.8562,m,1,2.4079,,[],[],[],[],[],[],[],140.8563,142.8561,142.8562,142.8563,[],[],[],[],[],[],[],,,,142.8564,142.8565,0.04228543,-0.375946416,0,0,0,,0,10,10,146,1,1,word,RETIRE,cursive,retire_c.png,,,
,,,,32095,001,2025-10-24_15h54.44.749,HW_LDT_1,2024.2.4,MacIntel,59.88023952,,,,,,,,,,,,,,,,,,,,142.8577,143.0553,143.0554,143.5562,,,,,,,,,,,,,,5.2884,1,,,,,,,,,,,,,,z,,,,,,,,,,,,,,,12,0,143.5568,148.8561,z,1,5.2884,,[],[],[],[],[],[],[],148.8562,150.8553,150.8554,150.8556,[],[],[],[],[],[],[],,,,150.8557,150.8557,0.04228543,-0.375946416,0,0,0,,0,11,11,9,1,1,RL,docirant,cursive,docirant_c.png,,,
,,,,32095,001,2025-10-24_15h54.44.749,HW_LDT_1,2024.2.4,MacIntel,59.88023952,,,,,,,,,,,,,,,,,,,,150.8568,151.0561,151.0562,151.5561,,,,,,,,,,,,,,1.3557,0,,,,,,,,,,,,,,z,,,,,,,,,,,,,,,13,0,151.5566,152.9229,m,0,1.3557,,[],[],[],[],[],[],[],152.923,154.9228,154.9228,154.923,[],[],[],[],[],[],[],,,,154.923,154.9231,0.04228543,-0.375946416,0,0,0,,0,12,12,59,1,1,TL,lirebal,cursive,lirebal_c.png,,,
,,,,32095,001,2025-10-24_15h54.44.749,HW_LDT_1,2024.2.4,MacIntel,59.88023952,,,,,,,,,,,,,,,,,,,,154.9242,155.1228,155.1228,155.6218,,,,,,,,,,,,,,1.5886,1,,,,,,,,,,,,,,z,,,,,,,,,,,,,,,14,0,155.6223,157.2218,z,1,1.5886,,[],[],[],[],[],[],[],157.222,159.2225,159.2225,159.2227,[],[],[],[],[],[],[],,,,159.2228,159.2229,0.04228543,-0.375946416,0,0,0,,0,13,13,16,1,1,RL,marmipal,print,marmipal_p.png,,,
,,,,32095,001,2025-10-24_15h54.44.749,HW_LDT_1,2024.2.4,MacIntel,59.88023952,,,,,,,,,,,,,,,,,,,,159.2241,159.4219,159.422,159.9223,,,,,,,,,,,,,,0.9218,1,,,,,,,,,,,,,,m,,,,,,,,,,,,,,,15,0,159.9227,160.8561,m,1,0.9218,,[],[],[],[],[],[],[],160.8563,162.8561,162.8561,162.8562,[],[],[],[],[],[],[],,,,162.8564,162.8565,0.04228543,-0.375946416,0,0,0,,0,14,14,158,1,1,word,VELOCITY,print,velocity_p.png,,,
,,,,32095,001,2025-10-24_15h54.44.749,HW_LDT_1,2024.2.4,MacIntel,59.88023952,,,,,,,,,,,,,,,,,,,,162.8576,163.0551,163.0552,163.5562,,,,,,,,,,,,,,4.4048,1,,,,,,,,,,,,,,z,,,,,,,,,,,,,,,16,0,163.5566,167.9728,z,1,4.4048,,[],[],[],[],[],[],[],167.9729,169.9727,169.9728,169.973,[],[],[],[],[],[],[],,,,169.973,169.9732,0.04228543,-0.375946416,0,0,0,,0,15,15,31,1,1,RL,reconal,cursive,reconal_c.png,,,
,,,,32095,001,2025-10-24_15h54.44.749,HW_LDT_1,2024.2.4,MacIntel,59.88023952,,,,,,,,,,,,,,,,,,,,169.9742,170.1718,170.1718,170.6727,,,,,,,,,,,,,,0.7049,1,,,,,,,,,,,,,,m,,,,,,,,,,,,,,,17,0,170.6732,171.3893,m,1,0.7049,,[],[],[],[],[],[],[],171.3893,173.3893,173.3894,173.3896,[],[],[],[],[],[],[],,,,173.3897,173.3898,0.04228543,-0.375946416,0,0,0,,0,16,16,117,1,1,word,MARINE,print,marine_p.png,,,
,,,,32095,001,2025-10-24_15h54.44.749,HW_LDT_1,2024.2.4,MacIntel,59.88023952,,,,,,,,,,,,,,,,,,,,173.3908,173.5885,173.5886,174.0886,,,,,,,,,,,,,,0.7885,1,,,,,,,,,,,,,,m,,,,,,,,,,,,,,,18,0,174.0891,174.8894,m,1,0.7885,,[],[],[],[],[],[],[],174.8894,176.8893,176.8894,176.8896,[],[],[],[],[],[],[],,,,176.8896,176.8897,0.04228543,-0.375946416,0,0,0,,0,17,17,89,1,1,word,CAPACITY,print,capacity_p.png,,,
,,,,32095,001,2025-10-24_15h54.44.749,HW_LDT_1,2024.2.4,MacIntel,59.88023952,,,,,,,,,,,,,,,,,,,,176.8909,177.0894,177.0894,177.5892,,,,,,,,,,,,,,0.6761,1,,,,,,,,,,,,,,m,,,,,,,,,,,,,,,19,0,177.5896,178.2727,m,1,0.6761,,[],[],[],[],[],[],[],178.2728,180.272,180.272,180.2722,[],[],[],[],[],[],[],,,,180.2723,180.2725,0.04228543,-0.375946416,0,0,0,,0,18,18,92,1,1,word,CATEGORY,print,category_p.png,,,
,,,,32095,001,2025-10-24_15h54.44.749,HW_LDT_1,2024.2.4,MacIntel,59.88023952,,,,,,,,,,,,,,,,,,,,180.2737,180.4727,180.4728,180.9719,,,,,,,,,,,,,,1.0158,0,,,,,,,,,,,,,,z,,,,,,,,,,,,,,,20,1,180.9725,181.9892,m,0,1.0158,,[],[],[],[],[],[],[],181.9892,183.9885,183.9886,186.106,[],[],[],[],[],[],[],m,2.1052,,186.1062,186.1062,0.04228543,-0.375946416,0,0,0,,0,19,19,77,1,1,TL,tritube,cursive,tritube_c.png,,,
,,,,32095,001,2025-10-24_15h54.44.749,HW_LDT_1,2024.2.4,MacIntel,59.88023952,,,,,,,,,,,,,,,,,,,,186.1071,186.306,186.306,186.806,,,,,,,,,,,,,,3.9546,0,,,,,,,,,,,,,,m,,,,,,,,,,,,,,,21,1,186.8065,190.7727,z,0,3.9546,,[],[],[],[],[],[],[],190.7728,192.7727,192.7727,193.8728,[],[],[],[],[],[],[],z,1.0888,,193.8729,193.873,0.04228543,-0.375946416,0,0,0,,0,20,20,110,1,1,word,HERITAGE,cursive,heritage_c.png,,,
,,,,32095,001,2025-10-24_15h54.44.749,HW_LDT_1,2024.2.4,MacIntel,59.88023952,,,,,,,,,,,,,,,,,,,,193.8741,194.0727,194.0728,194.5717,,,,,,,,,,,,,,0.6889,1,,,,,,,,,,,,,,m,,,,,,,,,,,,,,,22,0,194.5724,195.272,m,1,0.6889,,[],[],[],[],[],[],[],195.2721,197.2726,197.2727,197.2729,[],[],[],[],[],[],[],,,,197.273,197.2731,0.04228543,-0.375946416,0,0,0,,0,21,21,148,1,1,word,SALINE,print,saline_p.png,,,
,,,,32095,001,2025-10-24_15h54.44.749,HW_LDT_1,2024.2.4,MacIntel,59.88023952,,,,,,,,,,,,,,,,,,,,197.2742,197.4727,197.4727,197.9725,,,,,,,,,,,,,,1.3731,1,,,,,,,,,,,,,,z,,,,,,,,,,,,,,,23,0,197.9731,199.3551,z,1,1.3731,,[],[],[],[],[],[],[],199.3552,201.3558,201.3559,201.356,[],[],[],[],[],[],[],,,,201.3561,201.3562,0.04228543,-0.375946416,0,0,0,,0,22,22,6,1,1,RL,crisival,print,crisival_p.png,,,
,,,,32095,001,2025-10-24_15h54.44.749,HW_LDT_1,2024.2.4,MacIntel,59.88023952,,,,,,,,,,,,,,,,,,,,201.3572,201.556,201.5561,202.0552,,,,,,,,,,,,,,4.4381,0,,,,,,,,,,,,,,m,,,,,,,,,,,,,,,24,0,202.0557,206.5051,z,0,4.4381,,[],[],[],[],[],[],[],206.5053,208.5059,208.506,208.5062,[],[],[],[],[],[],[],,,,208.5062,208.5064,0.04228543,-0.375946416,0,0,0,,0,23,23,103,1,1,word,DISPUTE,cursive,dispute_c.png,,,
,,,,32095,001,2025-10-24_15h54.44.749,HW_LDT_1,2024.2.4,MacIntel,59.88023952,,,,,,,,,,,,,,,,,,,,208.5075,208.7059,208.706,209.205,,,,,,,,,,,,,,0.9221,1,,,,,,,,,,,,,,z,,,,,,,,,,,,,,,25,0,209.2056,210.1394,z,1,0.9221,,[],[],[],[],[],[],[],210.1394,212.1385,212.1385,212.1388,[],[],[],[],[],[],[],,,,212.1388,212.139,0.04228543,-0.375946416,0,0,0,,0,24,24,34,1,1,RL,samite,print,samite_p.png,,,
,,,,32095,001,2025-10-24_15h54.44.749,HW_LDT_1,2024.2.4,MacIntel,59.88023952,,,,,,,,,,,,,,,,,,,,212.1401,212.3393,212.3394,212.8391,,,,,,,,,,,,,,1.4883,1,,,,,,,,,,,,,,z,,,,,,,,,,,,,,,26,0,212.8396,214.3395,z,1,1.4883,,[],[],[],[],[],[],[],214.3396,216.3393,216.3393,216.3395,[],[],[],[],[],[],[],,,,216.3395,216.3397,0.04228543,-0.375946416,0,0,0,,0,25,25,28,1,1,RL,renutal,print,renutal_p.png,,,
,,,,32095,001,2025-10-24_15h54.44.749,HW_LDT_1,2024.2.4,MacIntel,59.88023952,,,,,,,,,,,,,,,,,,,,216.3409,216.5392,216.5393,217.0393,,,,,,,,,,,,,,1.4923,1,,,,,,,,,,,,,,z,,,,,,,,,,,,,,,27,0,217.0399,218.5385,z,1,1.4923,,[],[],[],[],[],[],[],218.5386,220.5393,220.5393,220.5395,[],[],[],[],[],[],[],,,,220.5396,220.5397,0.04228543,-0.375946416,0,0,0,,0,26,26,54,1,1,TL,distupe,cursive,distupe_c.png,,,
,,,,32095,001,2025-10-24_15h54.44.749,HW_LDT_1,2024.2.4,MacIntel,59.88023952,,,,,,,,,,,,,,,,,,,,220.5408,220.7393,220.7393,221.2393,,,,,,,,,,,,,,0.6384,1,,,,,,,,,,,,,,m,,,,,,,,,,,,,,,28,0,221.2397,221.8884,m,1,0.6384,,[],[],[],[],[],[],[],221.8884,223.8892,223.8893,223.8893,[],[],[],[],[],[],[],,,,223.8894,223.8895,0.04228543,-0.375946416,0,0,0,,0,27,27,86,1,1,word,BESIDE,print,beside_p.png,,,
,,,,32095,001,2025-10-24_15h54.44.749,HW_LDT_1,2024.2.4,MacIntel,59.88023952,,,,,,,,,,,,,,,,,,,,223.8904,224.0885,224.0885,224.5892,,,,,,,,,,,,,,0.939,1,,,,,,,,,,,,,,m,,,,,,,,,,,,,,,29,0,224.5897,225.5393,m,1,0.939,,[],[],[],[],[],[],[],225.5394,227.5392,227.5392,227.5395,[],[],[],[],[],[],[],,,,227.5395,227.5396,0.04228543,-0.375946416,0,0,0,,0,28,28,81,1,1,word,ADVISORY,cursive,advisory_c.png,,,
,,,,32095,001,2025-10-24_15h54.44.749,HW_LDT_1,2024.2.4,MacIntel,59.88023952,,,,,,,,,,,,,,,,,,,,227.5407,227.7391,227.7391,228.2393,,,,,,,,,,,,,,0.6087,1,,,,,,,,,,,,,,m,,,,,,,,,,,,,,,30,0,228.2398,228.8558,m,1,0.6087,,[],[],[],[],[],[],[],228.856,230.8561,230.8561,230.8562,[],[],[],[],[],[],[],,,,230.8563,230.8565,0.04228543,-0.375946416,0,0,0,,0,29,29,84,1,1,word,BELOVED,print,beloved_p.png,,,
,,,,32095,001,2025-10-24_15h54.44.749,HW_LDT_1,2024.2.4,MacIntel,59.88023952,,,,,,,,,,,,,,,,,,,,230.8576,231.0558,231.0558,231.5558,,,,,,,,,,,,,,1.0895,0,,,,,,,,,,,,,,m,,,,,,,,,,,,,,,31,0,231.5564,232.6551,z,0,1.0895,,[],[],[],[],[],[],[],232.6551,234.6558,234.6559,234.6561,[],[],[],[],[],[],[],,,,234.6561,234.6562,0.04228543,-0.375946416,0,0,0,,0,30,30,122,1,1,word,MOBILE,cursive,mobile_c.png,,,
,,,,32095,001,2025-10-24_15h54.44.749,HW_LDT_1,2024.2.4,MacIntel,59.88023952,,,,,,,,,,,,,,,,,,,,234.6573,234.855,234.8551,235.355,,,,,,,,,,,,,,1.2383,1,,,,,,,,,,,,,,m,,,,,,,,,,,,,,,32,0,235.3555,236.6051,m,1,1.2383,,[],[],[],[],[],[],[],236.6052,238.6058,238.6059,238.606,[],[],[],[],[],[],[],,,,238.606,238.6062,0.04228543,-0.375946416,0,0,0,,0,31,31,108,1,1,word,FORTUNE,print,fortune_p.png,,,
,,,,32095,001,2025-10-24_15h54.44.749,HW_LDT_1,2024.2.4,MacIntel,59.88023952,,,,,,,,,,,,,,,,,,,,238.6073,238.8059,238.806,239.3058,,,,,,,,,,,,,,1.4213,1,,,,,,,,,,,,,,m,,,,,,,,,,,,,,,33,0,239.3063,240.7388,m,1,1.4213,,[],[],[],[],[],[],[],240.739,242.7392,242.7392,242.7394,[],[],[],[],[],[],[],,,,242.7394,242.7396,0.04228543,-0.375946416,0,0,0,,0,32,32,155,1,1,word,STRATEGY,cursive,strategy_c.png,,,
,,,,32095,001,2025-10-24_15h54.44.749,HW_LDT_1,2024.2.4,MacIntel,59.88023952,,,,,,,,,,,,,,,,,,,,242.7407,242.9392,242.9392,243.4392,,,,,,,,,,,,,,1.2151,1,,,,,,,,,,,,,,m,,,,,,,,,,,,,,,34,0,243.4397,244.6558,m,1,1.2151,,[],[],[],[],[],[],[],244.6558,246.6559,246.656,246.6562,[],[],[],[],[],[],[],,,,246.6562,246.6563,0.04228543,-0.375946416,0,0,0,,0,33,33,143,1,1,word,REMOVAL,cursive,removal_c.png,,,
,,,,32095,001,2025-10-24_15h54.44.749,HW_LDT_1,2024.2.4,MacIntel,59.88023952,,,,,,,,,,,,,,,,,,,,246.6574,246.8558,246.8559,247.355,,,,,,,,,,,,,,0.5882,1,,,,,,,,,,,,,,m,,,,,,,,,,,,,,,35,0,247.3554,247.955,m,1,0.5882,,[],[],[],[],[],[],[],247.9551,249.9558,249.9558,249.956,[],[],[],[],[],[],[],,,,249.956,249.9561,0.04228543,-0.375946416,0,0,0,,0,34,34,99,1,1,word,DEBATE,print,debate_p.png,,,
,,,,32095,001,2025-10-24_15h54.44.749,HW_LDT_1,2024.2.4,MacIntel,59.88023952,,,,,,,,,,,,,,,,,,,,249.9572,250.1549,250.155,250.6559,,,,,,,,,,,,,,1.8212,1,,,,,,,,,,,,,,z,,,,,,,,,,,,,,,36,0,250.6564,252.4894,z,1,1.8212,,[],[],[],[],[],[],[],252.4895,254.4891,254.4892,254.4893,[],[],[],[],[],[],[],,,,254.4894,254.4896,0.04228543,-0.375946416,0,0,0,,0,35,35,4,1,1,RL,carminal,print,carminal_p.png,,,
,,,,32095,001,2025-10-24_15h54.44.749,HW_LDT_1,2024.2.4,MacIntel,59.88023952,,,,,,,,,,,,,,,,,,,,254.4907,254.6891,254.6891,255.1892,,,,,,,,,,,,,,1.8061,1,,,,,,,,,,,,,,z,,,,,,,,,,,,,,,37,0,255.1897,257.0058,z,1,1.8061,,[],[],[],[],[],[],[],257.0059,259.0058,259.0058,259.006,[],[],[],[],[],[],[],,,,259.0061,259.0062,0.04228543,-0.375946416,0,0,0,,0,36,36,39,1,1,RL,vabifity,cursive,vabifity_c.png,,,
,,,,32095,001,2025-10-24_15h54.44.749,HW_LDT_1,2024.2.4,MacIntel,59.88023952,,,,,,,,,,,,,,,,,,,,259.0072,259.2057,259.2058,259.7058,,,,,,,,,,,,,,0.7158,1,,,,,,,,,,,,,,m,,,,,,,,,,,,,,,38,0,259.7063,260.4231,m,1,0.7158,,[],[],[],[],[],[],[],260.4232,262.4224,262.4225,262.4227,[],[],[],[],[],[],[],,,,262.4227,262.4228,0.04228543,-0.375946416,0,0,0,,0,37,37,109,1,1,word,GRATEFUL,print,grateful_p.png,,,
,,,,32095,001,2025-10-24_15h54.44.749,HW_LDT_1,2024.2.4,MacIntel,59.88023952,,,,,,,,,,,,,,,,,,,,262.4239,262.6224,262.6225,263.1224,,,,,,,,,,,,,,2.3215,1,,,,,,,,,,,,,,m,,,,,,,,,,,,,,,39,1,263.1229,265.4558,m,1,2.3215,,[],[],[],[],[],[],[],265.4559,267.4558,267.4559,269.3891,[],[],[],[],[],[],[],z,1.9323,,269.3891,269.3893,0.04228543,-0.375946416,0,0,0,,0,38,38,125,1,1,word,OPERATOR,cursive,operator_c.png,,,
,,,,32095,001,2025-10-24_15h54.44.749,HW_LDT_1,2024.2.4,MacIntel,59.88023952,,,,,,,,,,,,,,,,,,,,269.3904,269.5891,269.5892,270.089,,,,,,,,,,,,,,1.0156,1,,,,,,,,,,,,,,m,,,,,,,,,,,,,,,40,0,270.0896,271.1062,m,1,1.0156,,[],[],[],[],[],[],[],271.1063,273.1058,273.1059,273.106,[],[],[],[],[],[],[],,,,273.1061,273.1061,0.04228543,-0.375946416,0,0,0,,0,39,39,129,1,1,word,PARENT,cursive,parent_c.png,,,
,,,,32095,001,2025-10-24_15h54.44.749,HW_LDT_1,2024.2.4,MacIntel,59.88023952,,,,,,,,,,,,,,,,,,,,273.1073,273.3057,273.3058,273.8058,,,,,,,,,,,,,,0.6481,1,,,,,,,,,,,,,,m,,,,,,,,,,,,,,,41,0,273.8063,274.4556,m,1,0.6481,,[],[],[],[],[],[],[],274.4557,276.4559,276.456,276.4561,[],[],[],[],[],[],[],,,,276.4561,276.4563,0.04228543,-0.375946416,0,0,0,,0,40,40,104,1,1,word,DOMINANT,cursive,dominant_c.png,,,
,,,,32095,001,2025-10-24_15h54.44.749,HW_LDT_1,2024.2.4,MacIntel,59.88023952,,,,,,,,,,,,,,,,,,,,276.4571,276.6557,276.6558,277.1557,,,,,,,,,,,,,,0.588,1,,,,,,,,,,,,,,m,,,,,,,,,,,,,,,42,0,277.1563,277.7557,m,1,0.588,,[],[],[],[],[],[],[],277.7558,279.7557,279.7558,279.7559,[],[],[],[],[],[],[],,,,279.7559,279.7561,0.042281776,-0.377028034,0,0,0,,0,41,41,123,1,1,word,MODERATE,print,moderate_p.png,,,
,,,,32095,001,2025-10-24_15h54.44.749,HW_LDT_1,2024.2.4,MacIntel,59.88023952,,,,,,,,,,,,,,,,,,,,279.7571,279.9557,279.9558,280.4557,,,,,,,,,,,,,,0.7551,1,,,,,,,,,,,,,,m,,,,,,,,,,,,,,,43,0,280.4562,281.2225,m,1,0.7551,,[],[],[],[],[],[],[],281.2225,283.2224,283.2225,283.2226,[],[],[],[],[],[],[],,,,283.2227,283.2228,0.042497369,-0.376808787,0,0,0,,0,42,42,156,1,1,word,TRIBUTE,cursive,tribute_c.png,,,
,,,,32095,001,2025-10-24_15h54.44.749,HW_LDT_1,2024.2.4,MacIntel,59.88023952,,,,,,,,,,,,,,,,,,,,283.2239,283.4223,283.4224,283.9224,,,,,,,,,,,,,,0.6048,1,,,,,,,,,,,,,,m,,,,,,,,,,,,,,,44,0,283.9229,284.5391,m,1,0.6048,,[],[],[],[],[],[],[],284.5392,286.539,286.5391,286.5392,[],[],[],[],[],[],[],,,,286.5393,286.5394,0.042281776,-0.377239973,0,0,0,,0,43,43,95,1,1,word,COMEDY,cursive,comedy_c.png,,,
,,,,32095,001,2025-10-24_15h54.44.749,HW_LDT_1,2024.2.4,MacIntel,59.88023952,,,,,,,,,,,,,,,,,,,,286.5404,286.7391,286.7391,287.239,,,,,,,,,,,,,,0.605,1,,,,,,,,,,,,,,m,,,,,,,,,,,,,,,45,0,287.2394,287.8557,m,1,0.605,,[],[],[],[],[],[],[],287.8559,289.8557,289.8557,289.8559,[],[],[],[],[],[],[],,,,289.856,289.856,0.042062529,-0.377919639,0,0,0,,0,44,44,136,1,1,word,RADICAL,print,radical_p.png,,,
,,,,32095,001,2025-10-24_15h54.44.749,HW_LDT_1,2024.2.4,MacIntel,59.88023952,,,,,,,,,,,,,,,,,,,,289.8572,290.0556,290.0557,290.5557,,,,,,,,,,,,,,1.0215,1,,,,,,,,,,,,,,m,,,,,,,,,,,,,,,46,0,290.5562,291.5885,m,1,1.0215,,[],[],[],[],[],[],[],291.5886,293.589,293.5891,293.5892,[],[],[],[],[],[],[],,,,293.5893,293.5893,0.042058875,-0.377919639,0,0,0,,0,45,45,145,1,1,word,RESUME,print,resume_p.png,,,
,,,,32095,001,2025-10-24_15h54.44.749,HW_LDT_1,2024.2.4,MacIntel,59.88023952,,,,,,,,,,,,,,,,,,,,293.5905,293.789,293.789,294.2884,,,,,,,,,,,,,,0.7991,1,,,,,,,,,,,,,,m,,,,,,,,,,,,,,,47,1,294.289,295.0889,m,1,0.7991,,[],[],[],[],[],[],[],295.089,297.089,297.0891,301.2722,[],[],[],[],[],[],[],z,4.1726,,301.2723,301.2724,0.041835974,-0.376816096,0,0,0,,0,46,46,152,1,1,word,SPECIMEN,cursive,specimen_c.png,,,
,,,,32095,001,2025-10-24_15h54.44.749,HW_LDT_1,2024.2.4,MacIntel,59.88023952,,,,,,,,,,,,,,,,,,,,301.2733,301.4723,301.4724,301.9723,,,,,,,,,,,,,,3.4216,1,,,,,,,,,,,,,,z,,,,,,,,,,,,,,,48,1,301.9728,305.4056,z,1,3.4216,,[],[],[],[],[],[],[],305.4058,307.4056,307.4057,308.3557,[],[],[],[],[],[],[],z,0.9389,,308.3558,308.3558,0.040948024,-0.376143738,0,0,0,,0,47,47,36,1,1,RL,speniven,cursive,speniven_c.png,,,
,,,,32095,001,2025-10-24_15h54.44.749,HW_LDT_1,2024.2.4,MacIntel,59.88023952,,,,,,,,,,,,,,,,,,,,308.3568,308.5556,308.5557,309.0556,,,,,,,,,,,,,,6.2762,1,,,,,,,,,,,,,,z,,,,,,,,,,,,,,,49,0,309.056,315.3389,z,1,6.2762,,[],[],[],[],[],[],[],315.339,317.3389,317.339,317.3392,[],[],[],[],[],[],[],,,,317.3392,317.3393,0.040948024,-0.37828505,0,0,0,,0,48,48,1,1,1,RL,adnicory,cursive,adnicory_c.png,,,
,,,,32095,001,2025-10-24_15h54.44.749,HW_LDT_1,2024.2.4,MacIntel,59.88023952,,,,,,,,,,,,,,,,,,,,317.3404,317.5389,317.539,318.0388,,,,,,,,,,,,,,0.9239,1,,,,,,,,,,,,,,m,,,,,,,,,,,,,,,50,0,318.0393,318.9722,m,1,0.9239,,[],[],[],[],[],[],[],318.9723,320.9721,320.9721,320.9723,[],[],[],[],[],[],[],,,,320.9724,320.9724,0.040948024,-0.37828505,0,0,0,,0,49,49,80,1,1,word,ACADEMY,cursive,academy_c.png,,,
,,,,32095,001,2025-10-24_15h54.44.749,HW_LDT_1,2024.2.4,MacIntel,59.88023952,,,,,,,,,,,,,,,,,,,,320.9731,321.1723,321.1723,321.6722,,,,,,,,,,,,,,1.5485,0,,,,,,,,,,,,,,z,,,,,,,,,,,,,,,51,0,321.6727,323.2222,m,0,1.5485,,[],[],[],[],[],[],[],323.2223,325.2222,325.2223,325.2225,[],[],[],[],[],[],[],,,,325.2225,325.2227,0.040948024,-0.37828505,0,0,0,,0,50,50,15,1,1,RL,losipal,cursive,losipal_c.png,,,
,,,,32095,001,2025-10-24_15h54.44.749,HW_LDT_1,2024.2.4,MacIntel,59.88023952,,,,,,,,,,,,,,,,,,,,325.2238,325.4221,325.4222,325.9223,,,,,,,,,,,,,,3.1271,1,,,,,,,,,,,,,,m,,,,,,,,,,,,,,,52,0,325.9228,329.0554,m,1,3.1271,,[],[],[],[],[],[],[],329.0555,331.0546,331.0546,331.0547,[],[],[],[],[],[],[],,,,331.0548,331.0549,0.040948024,-0.37828505,0,0,0,,0,51,51,102,1,1,word,DENSITY,cursive,density_c.png,,,
,,,,32095,001,2025-10-24_15h54.44.749,HW_LDT_1,2024.2.4,MacIntel,59.88023952,,,,,,,,,,,,,,,,,,,,331.0561,331.2556,331.2556,331.7555,,,,,,,,,,,,,,1.1047,0,,,,,,,,,,,,,,z,,,,,,,,,,,,,,,53,0,331.7561,332.8723,m,0,1.1047,,[],[],[],[],[],[],[],332.8724,334.8713,334.8713,334.8715,[],[],[],[],[],[],[],,,,334.8716,334.8717,0.040948024,-0.37828505,0,0,0,,0,52,52,50,1,1,TL,condiser,cursive,condiser_c.png,,,
,,,,32095,001,2025-10-24_15h54.44.749,HW_LDT_1,2024.2.4,MacIntel,59.88023952,,,,,,,,,,,,,,,,,,,,334.8728,335.0722,335.0723,335.5722,,,,,,,,,,,,,,2.6726,1,,,,,,,,,,,,,,m,,,,,,,,,,,,,,,54,0,335.5727,338.2556,m,1,2.6726,,[],[],[],[],[],[],[],338.2557,340.2554,340.2555,340.2556,[],[],[],[],[],[],[],,,,340.2557,340.2558,0.040948024,-0.37828505,0,0,0,,0,53,53,140,1,1,word,RELATIVE,cursive,relative_c.png,,,
,,,,32095,001,2025-10-24_15h54.44.749,HW_LDT_1,2024.2.4,MacIntel,59.88023952,,,,,,,,,,,,,,,,,,,,340.2568,340.4555,340.4556,340.9555,,,,,,,,,,,,,,0.7037,0,,,,,,,,,,,,,,z,,,,,,,,,,,,,,,55,0,340.9561,341.6721,m,0,0.7037,,[],[],[],[],[],[],[],341.6722,343.6722,343.6723,343.6724,[],[],[],[],[],[],[],,,,343.6725,343.6725,0.040948024,-0.37828505,0,0,0,,0,54,54,73,1,1,TL,ronamtic,cursive,ronamtic_c.png,,,
,,,,32095,001,2025-10-24_15h54.44.749,HW_LDT_1,2024.2.4,MacIntel,59.88023952,,,,,,,,,,,,,,,,,,,,343.6736,343.8722,343.8723,344.3712,,,,,,,,,,,,,,0.9558,0,,,,,,,,,,,,,,z,,,,,,,,,,,,,,,56,0,344.3718,345.3379,m,0,0.9558,,[],[],[],[],[],[],[],345.338,347.3389,347.3389,347.3392,[],[],[],[],[],[],[],,,,347.3392,347.3392,0.040948024,-0.37828505,0,0,0,,0,55,55,33,1,1,RL,recile,cursive,recile_c.png,,,
,,,,32095,001,2025-10-24_15h54.44.749,HW_LDT_1,2024.2.4,MacIntel,59.88023952,,,,,,,,,,,,,,,,,,,,347.3403,347.5389,347.5389,348.0388,,,,,,,,,,,,,,0.7139,0,,,,,,,,,,,,,,z,,,,,,,,,,,,,,,57,0,348.0393,348.7547,m,0,0.7139,,[],[],[],[],[],[],[],348.7547,350.7555,350.7556,350.7558,[],[],[],[],[],[],[],,,,350.7559,350.7559,0.04094437,-0.378054841,0,0,0,,0,56,56,66,1,1,TL,panert,cursive,panert_c.png,,,
,,,,32095,001,2025-10-24_15h54.44.749,HW_LDT_1,2024.2.4,MacIntel,59.88023952,,,,,,,,,,,,,,,,,,,,350.7572,350.9555,350.9556,351.4555,,,,,,,,,,,,,,0.571,1,,,,,,,,,,,,,,m,,,,,,,,,,,,,,,58,0,351.456,352.0378,m,1,0.571,,[],[],[],[],[],[],[],352.038,354.0379,354.0379,354.0381,[],[],[],[],[],[],[],,,,354.0382,354.0383,0.04094437,-0.377839248,0,0,0,,0,57,57,124,1,1,word,NUMERICAL,print,numerical_p.png,,,
,,,,32095,001,2025-10-24_15h54.44.749,HW_LDT_1,2024.2.4,MacIntel,59.88023952,,,,,,,,,,,,,,,,,,,,354.0394,354.2386,354.2387,354.7379,,,,,,,,,,,,,,0.5897,1,,,,,,,,,,,,,,m,,,,,,,,,,,,,,,59,0,354.7384,355.3388,m,1,0.5897,,[],[],[],[],[],[],[],355.3389,357.3388,357.3388,357.3389,[],[],[],[],[],[],[],,,,357.3391,357.3391,0.040505876,-0.377839248,0,0,0,,0,58,58,138,1,1,word,REFUSAL,print,refusal_p.png,,,
,,,,32095,001,2025-10-24_15h54.44.749,HW_LDT_1,2024.2.4,MacIntel,59.88023952,,,,,,,,,,,,,,,,,,,,357.3403,357.5377,357.5378,358.0379,,,,,,,,,,,,,,0.6224,1,,,,,,,,,,,,,,m,,,,,,,,,,,,,,,60,1,358.0384,358.6722,m,1,0.6224,,[],[],[],[],[],[],[],358.6723,360.6711,360.6712,364.0221,[],[],[],[],[],[],[],z,3.3396,,364.0222,364.0223,0.040505876,-0.377404408,0,0,0,,0,59,59,97,1,1,word,COVERAGE,print,coverage_p.png,,,
,,,,32095,001,2025-10-24_15h54.44.749,HW_LDT_1,2024.2.4,MacIntel,59.88023952,,,,,,,,,,,,,,,,,,,,364.0232,364.222,364.2221,364.722,,,,,,,,,,,,,,1.014,0,,,,,,,,,,,,,,m,,,,,,,,,,,,,,,61,0,364.7226,365.7385,z,0,1.014,,[],[],[],[],[],[],[],365.7386,367.7382,367.7383,367.7385,[],[],[],[],[],[],[],,,,367.7385,367.7387,0.040071036,-0.377404408,0,0,0,,0,60,60,87,1,1,word,CAFETERIA,cursive,cafeteria_c.png,,,
,,,,32095,001,2025-10-24_15h54.44.749,HW_LDT_1,2024.2.4,MacIntel,59.88023952,,,,,,,,,,,,,,,,,,,,367.7396,367.9389,367.9389,368.4388,,,,,,,,,,,,,,0.9714,1,,,,,,,,,,,,,,z,,,,,,,,,,,,,,,62,1,368.4393,369.4221,z,1,0.9714,,[],[],[],[],[],[],[],369.4222,371.4221,371.4221,373.1054,[],[],[],[],[],[],[],m,1.6725,,373.1055,373.1055,0.040071036,-0.377404408,0,0,0,,0,61,61,37,1,1,RL,skofen,print,skofen_p.png,,,
,,,,32095,001,2025-10-24_15h54.44.749,HW_LDT_1,2024.2.4,MacIntel,59.88023952,,,,,,,,,,,,,,,,,,,,373.1065,373.3045,373.3045,373.8055,,,,,,,,,,,,,,2.9038,1,,,,,,,,,,,,,,z,,,,,,,,,,,,,,,63,0,373.8059,376.7222,z,1,2.9038,,[],[],[],[],[],[],[],376.7223,378.722,378.722,378.7221,[],[],[],[],[],[],[],,,,378.7221,378.7222,0.040071036,-0.377188815,0,0,0,,0,62,62,64,1,1,TL,orepator,cursive,orepator_c.png,,,
,,,,32095,001,2025-10-24_15h54.44.749,HW_LDT_1,2024.2.4,MacIntel,59.88023952,,,,,,,,,,,,,,,,,,,,378.7232,378.922,378.922,379.422,,,,,,,,,,,,,,0.8052,1,,,,,,,,,,,,,,m,,,,,,,,,,,,,,,64,1,379.4225,380.2388,m,1,0.8052,,[],[],[],[],[],[],[],380.2388,382.2378,382.2379,383.2054,[],[],[],[],[],[],[],m,0.9563,,383.2055,383.2056,0.040071036,-0.377188815,0,0,0,,0,63,63,142,1,1,word,REMOTE,print,remote_p.png,,,
,,,,32095,001,2025-10-24_15h54.44.749,HW_LDT_1,2024.2.4,MacIntel,59.88023952,,,,,,,,,,,,,,,,,,,,383.2065,383.4054,383.4054,383.9046,,,,,,,,,,,,,,1.8391,1,,,,,,,,,,,,,,z,,,,,,,,,,,,,,,65,0,383.905,385.7554,z,1,1.8391,,[],[],[],[],[],[],[],385.7555,387.7554,387.7555,387.7556,[],[],[],[],[],[],[],,,,387.7557,387.7557,0.039855443,-0.377188815,0,0,0,,0,64,64,79,1,1,TL,veretan,print,veretan_p.png,,,
,,,,32095,001,2025-10-24_15h54.44.749,HW_LDT_1,2024.2.4,MacIntel,59.88023952,,,,,,,,,,,,,,,,,,,,387.7567,387.9544,387.9544,388.4553,,,,,,,,,,,,,,0.8064,1,,,,,,,,,,,,,,m,,,,,,,,,,,,,,,66,0,388.4558,389.2711,m,1,0.8064,,[],[],[],[],[],[],[],389.2712,391.272,391.272,391.2722,[],[],[],[],[],[],[],,,,391.2723,391.2724,0.039855443,-0.377188815,0,0,0,,0,65,65,153,1,1,word,STOLEN,print,stolen_p.png,,,
,,,,32095,001,2025-10-24_15h54.44.749,HW_LDT_1,2024.2.4,MacIntel,59.88023952,,,,,,,,,,,,,,,,,,,,391.2735,391.4712,391.4712,391.9711,,,,,,,,,,,,,,0.9222,1,,,,,,,,,,,,,,m,,,,,,,,,,,,,,,67,0,391.9717,392.9046,m,1,0.9222,,[],[],[],[],[],[],[],392.9047,394.9053,394.9054,394.9055,[],[],[],[],[],[],[],,,,394.9055,394.9057,0.039855443,-0.377188815,0,0,0,,0,66,66,157,1,1,word,VALIDITY,cursive,validity_c.png,,,
,,,,32095,001,2025-10-24_15h54.44.749,HW_LDT_1,2024.2.4,MacIntel,59.88023952,,,,,,,,,,,,,,,,,,,,394.9068,395.1054,395.1054,395.6053,,,,,,,,,,,,,,1.039,0,,,,,,,,,,,,,,z,,,,,,,,,,,,,,,68,0,395.6058,396.6553,m,0,1.039,,[],[],[],[],[],[],[],396.6555,398.6553,398.6553,398.6555,[],[],[],[],[],[],[],,,,398.6556,398.6557,0.039855443,-0.374729595,0,0,0,,0,67,67,61,1,1,TL,mecidine,cursive,mecidine_c.png,,,
,,,,32095,001,2025-10-24_15h54.44.749,HW_LDT_1,2024.2.4,MacIntel,59.88023952,,,,,,,,,,,,,,,,,,,,398.6568,398.8554,398.8554,399.3553,,,,,,,,,,,,,,0.8729,1,,,,,,,,,,,,,,m,,,,,,,,,,,,,,,69,1,399.3559,400.2386,m,1,0.8729,,[],[],[],[],[],[],[],400.2387,402.2385,402.2386,403.1211,[],[],[],[],[],[],[],z,0.8746,,403.1211,403.1212,0.039855443,-0.374729595,0,0,0,,0,68,68,118,1,1,word,MEDICINE,cursive,medicine_c.png,,,
,,,,32095,001,2025-10-24_15h54.44.749,HW_LDT_1,2024.2.4,MacIntel,59.88023952,,,,,,,,,,,,,,,,,,,,403.1221,403.3218,403.3219,403.8211,,,,,,,,,,,,,,1.7884,0,,,,,,,,,,,,,,z,,,,,,,,,,,,,,,70,0,403.8217,405.6219,m,0,1.7884,,[],[],[],[],[],[],[],405.622,407.6219,407.622,407.6222,[],[],[],[],[],[],[],,,,407.6222,407.6223,0.039855443,-0.374941534,0,0,0,,0,69,69,65,1,1,TL,orinigal,cursive,orinigal_c.png,,,
,,,,32095,001,2025-10-24_15h54.44.749,HW_LDT_1,2024.2.4,MacIntel,59.88023952,,,,,,,,,,,,,,,,,,,,407.6234,407.822,407.822,408.321,,,,,,,,,,,,,,3.6727,1,,,,,,,,,,,,,,m,,,,,,,,,,,,,,,71,0,408.3216,412.0045,m,1,3.6727,,[],[],[],[],[],[],[],412.0045,414.0053,414.0054,414.0056,[],[],[],[],[],[],[],,,,414.0056,414.0057,0.039855443,-0.375153473,0,0,0,,0,70,70,154,1,1,word,STORAGE,cursive,storage_c.png,,,
,,,,32095,001,2025-10-24_15h54.44.749,HW_LDT_1,2024.2.4,MacIntel,59.88023952,,,,,,,,,,,,,,,,,,,,414.0068,414.2051,414.2051,414.7044,,,,,,,,,,,,,,1.3924,1,,,,,,,,,,,,,,z,,,,,,,,,,,,,,,72,0,414.7049,416.1053,z,1,1.3924,,[],[],[],[],[],[],[],416.1054,418.1052,418.1053,418.1055,[],[],[],[],[],[],[],,,,418.1055,418.1055,0.039855443,-0.375153473,0,0,0,,0,71,71,78,1,1,TL,vecolity,print,vecolity_p.png,,,
,,,,32095,001,2025-10-24_15h54.44.749,HW_LDT_1,2024.2.4,MacIntel,59.88023952,,,,,,,,,,,,,,,,,,,,418.1065,418.3053,418.3054,418.8052,,,,,,,,,,,,,,1.5087,1,,,,,,,,,,,,,,m,,,,,,,,,,,,,,,73,0,418.8057,420.3215,m,1,1.5087,,[],[],[],[],[],[],[],420.3216,422.321,422.3211,422.3214,[],[],[],[],[],[],[],,,,422.3214,422.3215,0.039855443,-0.375153473,0,0,0,,0,72,72,88,1,1,word,CAMERA,cursive,camera_c.png,,,
,,,,32095,001,2025-10-24_15h54.44.749,HW_LDT_1,2024.2.4,MacIntel,59.88023952,,,,,,,,,,,,,,,,,,,,422.3226,422.5219,422.5219,423.0215,,,,,,,,,,,,,,1.3555,1,,,,,,,,,,,,,,z,,,,,,,,,,,,,,,74,0,423.022,424.3885,z,1,1.3555,,[],[],[],[],[],[],[],424.3886,426.3885,426.3886,426.3888,[],[],[],[],[],[],[],,,,426.3888,426.3889,0.039855443,-0.375153473,0,0,0,,0,73,73,24,1,1,RL,probice,print,probice_p.png,,,
,,,,32095,001,2025-10-24_15h54.44.749,HW_LDT_1,2024.2.4,MacIntel,59.88023952,,,,,,,,,,,,,,,,,,,,426.39,426.5886,426.5886,427.0878,,,,,,,,,,,,,,1.438,1,,,,,,,,,,,,,,m,,,,,,,,,,,,,,,75,0,427.0883,428.5385,m,1,1.438,,[],[],[],[],[],[],[],428.5387,430.5386,430.5387,430.5388,[],[],[],[],[],[],[],,,,430.5388,430.5389,0.039855443,-0.375153473,0,0,0,,0,74,74,82,1,1,word,AMATEUR,print,amateur_p.png,,,
,,,,32095,001,2025-10-24_15h54.44.749,HW_LDT_1,2024.2.4,MacIntel,59.88023952,,,,,,,,,,,,,,,,,,,,430.54,430.7385,430.7386,431.2385,,,,,,,,,,,,,,0.6548,1,,,,,,,,,,,,,,m,,,,,,,,,,,,,,,76,0,431.239,431.9052,m,1,0.6548,,[],[],[],[],[],[],[],431.9053,433.9052,433.9053,433.9054,[],[],[],[],[],[],[],,,,433.9055,433.9056,0.039855443,-0.375153473,0,0,0,,0,75,75,151,1,1,word,SPECIFIC,cursive,specific_c.png,,,
,,,,32095,001,2025-10-24_15h54.44.749,HW_LDT_1,2024.2.4,MacIntel,59.88023952,,,,,,,,,,,,,,,,,,,,433.9066,434.1052,434.1052,434.6052,,,,,,,,,,,,,,0.7887,1,,,,,,,,,,,,,,m,,,,,,,,,,,,,,,77,0,434.6057,435.4052,m,1,0.7887,,[],[],[],[],[],[],[],435.4053,437.4053,437.4053,437.4054,[],[],[],[],[],[],[],,,,437.4055,437.4056,0.039855443,-0.375153473,0,0,0,,0,76,76,131,1,1,word,POPULAR,cursive,popular_c.png,,,
,,,,32095,001,2025-10-24_15h54.44.749,HW_LDT_1,2024.2.4,MacIntel,59.88023952,,,,,,,,,,,,,,,,,,,,437.4063,437.6052,437.6053,438.1051,,,,,,,,,,,,,,0.7715,0,,,,,,,,,,,,,,z,,,,,,,,,,,,,,,78,0,438.1056,438.8885,m,0,0.7715,,[],[],[],[],[],[],[],438.8886,440.8887,440.8887,440.8888,[],[],[],[],[],[],[],,,,440.8889,440.8889,0.039855443,-0.375153473,0,0,0,,0,77,77,41,1,1,TL,bevoled,print,bevoled_p.png,,,
,,,,32095,001,2025-10-24_15h54.44.749,HW_LDT_1,2024.2.4,MacIntel,59.88023952,,,,,,,,,,,,,,,,,,,,440.89,441.0885,441.0885,441.5886,,,,,,,,,,,,,,2.3244,1,,,,,,,,,,,,,,z,,,,,,,,,,,,,,,79,0,441.5891,443.9219,z,1,2.3244,,[],[],[],[],[],[],[],443.922,445.921,445.921,445.9212,[],[],[],[],[],[],[],,,,445.9213,445.9214,0.039855443,-0.375153473,0,0,0,,0,78,78,17,1,1,RL,menowy,cursive,menowy_c.png,,,
,,,,32095,001,2025-10-24_15h54.44.749,HW_LDT_1,2024.2.4,MacIntel,59.88023952,,,,,,,,,,,,,,,,,,,,445.9226,446.1219,446.122,446.6212,,,,,,,,,,,,,,0.8218,1,,,,,,,,,,,,,,m,,,,,,,,,,,,,,,80,1,446.6218,447.4551,m,1,0.8218,,[],[],[],[],[],[],[],447.4552,449.4547,449.4547,450.6709,[],[],[],[],[],[],[],z,1.2069,,450.671,468.8888,0.039855443,-0.375153473,1,0,0,,0,79,79,115,1,1,word,LOGICAL,cursive,logical_c.png,break_done_button,,
,,,,32095,001,2025-10-24_15h54.44.749,HW_LDT_1,2024.2.4,MacIntel,59.88023952,,,,,,,,,,,,,,,,,,,,468.8898,469.0883,469.0884,469.5876,,,,,,,,,,,,,,1.1723,1,,,,,,,,,,,,,,z,,,,,,,,,,,,,,,81,0,469.5882,470.7709,z,1,1.1723,,[],[],[],[],[],[],[],470.7711,472.7716,472.7717,472.772,[],[],[],[],[],[],[],,,,472.772,472.7721,0.039855443,-0.375153473,0,0,0,,0,80,80,0,1,1,RL,abanemy,cursive,abanemy_c.png,,,
,,,,32095,001,2025-10-24_15h54.44.749,HW_LDT_1,2024.2.4,MacIntel,59.88023952,,,,,,,,,,,,,,,,,,,,472.7733,472.9718,472.9718,473.4718,,,,,,,,,,,,,,0.6545,1,,,,,,,,,,,,,,m,,,,,,,,,,,,,,,82,0,473.4723,474.1386,m,1,0.6545,,[],[],[],[],[],[],[],474.1388,476.1377,476.1377,476.1379,[],[],[],[],[],[],[],,,,476.138,476.138,0.039855443,-0.375153473,0,0,0,,0,81,81,133,1,1,word,PROVIDE,print,provide_p.png,,,
,,,,32095,001,2025-10-24_15h54.44.749,HW_LDT_1,2024.2.4,MacIntel,59.88023952,,,,,,,,,,,,,,,,,,,,476.1393,476.3384,476.3384,476.8386,,,,,,,,,,,,,,3.1262,1,,,,,,,,,,,,,,z,,,,,,,,,,,,,,,83,0,476.839,479.9717,z,1,3.1262,,[],[],[],[],[],[],[],479.9717,481.9709,481.971,481.9712,[],[],[],[],[],[],[],,,,481.9713,481.9714,0.039855443,-0.375153473,0,0,0,,0,82,82,48,1,1,TL,cemerony,cursive,cemerony_c.png,,,
,,,,32095,001,2025-10-24_15h54.44.749,HW_LDT_1,2024.2.4,MacIntel,59.88023952,,,,,,,,,,,,,,,,,,,,481.9724,482.1717,482.1718,482.6717,,,,,,,,,,,,,,3.4408,0,,,,,,,,,,,,,,z,,,,,,,,,,,,,,,84,1,482.6722,486.1218,m,0,3.4408,,[],[],[],[],[],[],[],486.1218,488.1216,488.1217,489.505,[],[],[],[],[],[],[],z,1.3763,,489.5051,489.5052,0.039855443,-0.375153473,0,0,0,,0,83,83,53,1,1,TL,dentisy,cursive,dentisy_c.png,,,
,,,,32095,001,2025-10-24_15h54.44.749,HW_LDT_1,2024.2.4,MacIntel,59.88023952,,,,,,,,,,,,,,,,,,,,489.5061,489.7042,489.7042,490.2051,,,,,,,,,,,,,,2.4552,0,,,,,,,,,,,,,,z,,,,,,,,,,,,,,,85,1,490.2056,492.671,m,0,2.4552,,[],[],[],[],[],[],[],492.671,494.6717,494.6718,495.6051,[],[],[],[],[],[],[],z,0.9224,,495.6052,495.6053,0.039855443,-0.375153473,0,0,0,,0,84,84,76,1,1,TL,stragety,cursive,stragety_c.png,,,
,,,,32095,001,2025-10-24_15h54.44.749,HW_LDT_1,2024.2.4,MacIntel,59.88023952,,,,,,,,,,,,,,,,,,,,495.6064,495.8042,495.8043,496.3051,,,,,,,,,,,,,,1.3434,1,,,,,,,,,,,,,,m,,,,,,,,,,,,,,,86,0,496.3056,497.6551,m,1,1.3434,,[],[],[],[],[],[],[],497.6552,499.6549,499.6551,499.6552,[],[],[],[],[],[],[],,,,499.6552,499.6553,0.039855443,-0.375153473,0,0,0,,0,85,85,112,1,1,word,LIBERAL,cursive,liberal_c.png,,,
,,,,32095,001,2025-10-24_15h54.44.749,HW_LDT_1,2024.2.4,MacIntel,59.88023952,,,,,,,,,,,,,,,,,,,,499.6564,499.855,499.855,500.355,,,,,,,,,,,,,,1.1259,1,,,,,,,,,,,,,,z,,,,,,,,,,,,,,,87,0,500.3555,501.4883,z,1,1.1259,,[],[],[],[],[],[],[],501.4884,503.4883,503.4884,503.4885,[],[],[],[],[],[],[],,,,503.4886,503.4887,0.039855443,-0.375153473,0,0,0,,0,86,86,13,1,1,RL,linefal,print,linefal_p.png,,,
,,,,32095,001,2025-10-24_15h54.44.749,HW_LDT_1,2024.2.4,MacIntel,59.88023952,,,,,,,,,,,,,,,,,,,,503.4898,503.6883,503.6883,504.1882,,,,,,,,,,,,,,0.6573,0,,,,,,,,,,,,,,z,,,,,,,,,,,,,,,88,0,504.1888,504.855,m,0,0.6573,,[],[],[],[],[],[],[],504.8551,506.855,506.8551,506.8552,[],[],[],[],[],[],[],,,,506.8553,506.8553,0.039855443,-0.375153473,0,0,0,,0,87,87,55,1,1,TL,fornute,print,fornute_p.png,,,
,,,,32095,001,2025-10-24_15h54.44.749,HW_LDT_1,2024.2.4,MacIntel,59.88023952,,,,,,,,,,,,,,,,,,,,506.8564,507.0549,507.0549,507.5549,,,,,,,,,,,,,,0.8216,0,,,,,,,,,,,,,,m,,,,,,,,,,,,,,,89,1,507.5554,508.3884,z,0,0.8216,,[],[],[],[],[],[],[],508.3884,510.3883,510.3883,511.2383,[],[],[],[],[],[],[],z,0.8407,,511.2383,511.2384,0.039855443,-0.375153473,0,0,0,,0,88,88,134,1,1,word,QUALIFY,cursive,qualify_c.png,,,
,,,,32095,001,2025-10-24_15h54.44.749,HW_LDT_1,2024.2.4,MacIntel,59.88023952,,,,,,,,,,,,,,,,,,,,511.2394,511.4383,511.4383,511.9383,,,,,,,,,,,,,,0.8882,1,,,,,,,,,,,,,,z,,,,,,,,,,,,,,,90,0,511.9389,512.8384,z,1,0.8882,,[],[],[],[],[],[],[],512.8384,514.8382,514.8383,514.8384,[],[],[],[],[],[],[],,,,514.8385,514.8386,0.039855443,-0.375153473,0,0,0,,0,89,89,20,1,1,RL,nunewical,print,nunewical_p.png,,,
,,,,32095,001,2025-10-24_15h54.44.749,HW_LDT_1,2024.2.4,MacIntel,59.88023952,,,,,,,,,,,,,,,,,,,,514.8397,515.0382,515.0382,515.5383,,,,,,,,,,,,,,0.8215,1,,,,,,,,,,,,,,m,,,,,,,,,,,,,,,91,0,515.5388,516.3718,m,1,0.8215,,[],[],[],[],[],[],[],516.372,518.3716,518.3716,518.3718,[],[],[],[],[],[],[],,,,518.3718,518.3719,0.039855443,-0.375153473,0,0,0,,0,90,90,114,1,1,word,LOCATE,print,locate_p.png,,,
,,,,32095,001,2025-10-24_15h54.44.749,HW_LDT_1,2024.2.4,MacIntel,59.88023952,,,,,,,,,,,,,,,,,,,,518.373,518.5716,518.5716,519.071,,,,,,,,,,,,,,2.006,1,,,,,,,,,,,,,,z,,,,,,,,,,,,,,,92,0,519.0714,521.0884,z,1,2.006,,[],[],[],[],[],[],[],521.0885,523.0883,523.0883,523.0885,[],[],[],[],[],[],[],,,,523.0886,523.0886,0.039855443,-0.375153473,0,0,0,,0,91,91,56,1,1,TL,grafetul,print,grafetul_p.png,,,
,,,,32095,001,2025-10-24_15h54.44.749,HW_LDT_1,2024.2.4,MacIntel,59.88023952,,,,,,,,,,,,,,,,,,,,523.0897,523.2882,523.2883,523.7882,,,,,,,,,,,,,,2.0382,1,,,,,,,,,,,,,,z,,,,,,,,,,,,,,,93,0,523.7888,525.8383,z,1,2.0382,,[],[],[],[],[],[],[],525.8384,527.8382,527.8383,527.8385,[],[],[],[],[],[],[],,,,527.8385,527.8385,0.039855443,-0.375153473,0,0,0,,0,92,92,67,1,1,TL,pocily,cursive,pocily_c.png,,,
,,,,32095,001,2025-10-24_15h54.44.749,HW_LDT_1,2024.2.4,MacIntel,59.88023952,,,,,,,,,,,,,,,,,,,,527.8397,528.0383,528.0383,528.5383,,,,,,,,,,,,,,3.239,1,,,,,,,,,,,,,,z,,,,,,,,,,,,,,,94,0,528.5388,531.7883,z,1,3.239,,[],[],[],[],[],[],[],531.7883,533.7882,533.7882,533.7885,[],[],[],[],[],[],[],,,,533.7885,533.7885,0.039855443,-0.375153473,0,0,0,,0,93,93,58,1,1,TL,incidate,cursive,incidate_c.png,,,
,,,,32095,001,2025-10-24_15h54.44.749,HW_LDT_1,2024.2.4,MacIntel,59.88023952,,,,,,,,,,,,,,,,,,,,533.7896,533.9882,533.9883,534.4882,,,,,,,,,,,,,,1.2565,1,,,,,,,,,,,,,,z,,,,,,,,,,,,,,,95,0,534.4887,535.7549,z,1,1.2565,,[],[],[],[],[],[],[],535.755,537.7549,537.755,537.7552,[],[],[],[],[],[],[],,,,537.7552,537.7553,0.039855443,-0.375153473,0,0,0,,0,94,94,62,1,1,TL,mitilary,print,mitilary_p.png,,,
,,,,32095,001,2025-10-24_15h54.44.749,HW_LDT_1,2024.2.4,MacIntel,59.88023952,,,,,,,,,,,,,,,,,,,,537.7564,537.9549,537.955,538.4548,,,,,,,,,,,,,,1.1048,1,,,,,,,,,,,,,,z,,,,,,,,,,,,,,,96,0,538.4554,539.5715,z,1,1.1048,,[],[],[],[],[],[],[],539.5716,541.5715,541.5716,541.5718,[],[],[],[],[],[],[],,,,541.5718,541.5718,0.039855443,-0.375153473,0,0,0,,0,95,95,70,1,1,TL,relugar,print,relugar_p.png,,,
,,,,32095,001,2025-10-24_15h54.44.749,HW_LDT_1,2024.2.4,MacIntel,59.88023952,,,,,,,,,,,,,,,,,,,,541.5729,541.7715,541.7715,542.2715,,,,,,,,,,,,,,1.3702,1,,,,,,,,,,,,,,m,,,,,,,,,,,,,,,97,0,542.272,543.6548,m,1,1.3702,,[],[],[],[],[],[],[],543.655,545.6548,545.6549,545.6551,[],[],[],[],[],[],[],,,,545.6551,545.6552,0.039855443,-0.375153473,0,0,0,,0,96,96,130,1,1,word,POLICY,cursive,policy_c.png,,,
,,,,32095,001,2025-10-24_15h54.44.749,HW_LDT_1,2024.2.4,MacIntel,59.88023952,,,,,,,,,,,,,,,,,,,,545.6564,545.8549,545.855,546.3549,,,,,,,,,,,,,,3.588,1,,,,,,,,,,,,,,z,,,,,,,,,,,,,,,98,0,546.3553,549.9551,z,1,3.588,,[],[],[],[],[],[],[],549.9551,551.9548,551.955,551.9551,[],[],[],[],[],[],[],,,,551.9551,551.9552,0.039855443,-0.375153473,0,0,0,,0,97,97,38,1,1,RL,stopave,cursive,stopave_c.png,,,
,,,,32095,001,2025-10-24_15h54.44.749,HW_LDT_1,2024.2.4,MacIntel,59.88023952,,,,,,,,,,,,,,,,,,,,551.9563,552.1548,552.155,552.6548,,,,,,,,,,,,,,1.5047,1,,,,,,,,,,,,,,z,,,,,,,,,,,,,,,99,0,552.6554,554.1715,z,1,1.5047,,[],[],[],[],[],[],[],554.1716,556.1714,556.1715,556.1716,[],[],[],[],[],[],[],,,,556.1716,556.1717,0.039855443,-0.375153473,0,0,0,,0,98,98,11,1,1,RL,elacodate,print,elacodate_p.png,,,
,,,,32095,001,2025-10-24_15h54.44.749,HW_LDT_1,2024.2.4,MacIntel,59.88023952,,,,,,,,,,,,,,,,,,,,556.1725,556.3715,556.3716,556.8715,,,,,,,,,,,,,,2.8076,0,,,,,,,,,,,,,,z,,,,,,,,,,,,,,,100,1,556.872,559.6881,m,0,2.8076,,[],[],[],[],[],[],[],559.6882,561.688,561.6881,562.3548,[],[],[],[],[],[],[],z,0.6583,,562.3549,562.355,0.039855443,-0.375153473,0,0,0,,0,99,99,57,1,1,TL,hetirage,cursive,hetirage_c.png,,,
,,,,32095,001,2025-10-24_15h54.44.749,HW_LDT_1,2024.2.4,MacIntel,59.88023952,,,,,,,,,,,,,,,,,,,,562.3559,562.5548,562.5548,563.055,,,,,,,,,,,,,,1.344,1,,,,,,,,,,,,,,m,,,,,,,,,,,,,,,101,0,563.0555,564.4047,m,1,1.344,,[],[],[],[],[],[],[],564.4048,566.4044,566.4045,566.4047,[],[],[],[],[],[],[],,,,566.4047,566.4048,0.039855443,-0.375153473,0,0,0,,0,100,100,100,1,1,word,DECADE,print,decade_p.png,,,
,,,,32095,001,2025-10-24_15h54.44.749,HW_LDT_1,2024.2.4,MacIntel,59.88023952,,,,,,,,,,,,,,,,,,,,566.4059,566.6048,566.6049,567.1047,,,,,,,,,,,,,,1.4653,1,,,,,,,,,,,,,,m,,,,,,,,,,,,,,,102,0,567.1052,568.5713,m,1,1.4653,,[],[],[],[],[],[],[],568.5714,570.5714,570.5715,570.5716,[],[],[],[],[],[],[],,,,570.5717,570.5718,0.039855443,-0.375153473,0,0,0,,0,101,101,96,1,1,word,CONSIDER,cursive,consider_c.png,,,
,,,,32095,001,2025-10-24_15h54.44.749,HW_LDT_1,2024.2.4,MacIntel,59.88023952,,,,,,,,,,,,,,,,,,,,570.573,570.7714,570.7715,571.2715,,,,,,,,,,,,,,1.6489,1,,,,,,,,,,,,,,z,,,,,,,,,,,,,,,103,0,571.272,572.9218,z,1,1.6489,,[],[],[],[],[],[],[],572.9219,574.9214,574.9215,574.9216,[],[],[],[],[],[],[],,,,574.9217,574.9217,0.039855443,-0.375153473,0,0,0,,0,102,102,71,1,1,TL,regilion,cursive,regilion_c.png,,,
,,,,32095,001,2025-10-24_15h54.44.749,HW_LDT_1,2024.2.4,MacIntel,59.88023952,,,,,,,,,,,,,,,,,,,,574.9229,575.1213,575.1214,575.6214,,,,,,,,,,,,,,1.5091,1,,,,,,,,,,,,,,m,,,,,,,,,,,,,,,104,0,575.6219,577.1376,m,1,1.5091,,[],[],[],[],[],[],[],577.1378,579.138,579.138,579.1382,[],[],[],[],[],[],[],,,,579.1383,579.1383,0.039855443,-0.375153473,0,0,0,,0,103,103,93,1,1,word,CEREMONY,cursive,ceremony_c.png,,,
,,,,32095,001,2025-10-24_15h54.44.749,HW_LDT_1,2024.2.4,MacIntel,59.88023952,,,,,,,,,,,,,,,,,,,,579.1393,579.3381,579.3382,579.838,,,,,,,,,,,,,,2.6742,1,,,,,,,,,,,,,,z,,,,,,,,,,,,,,,105,0,579.8386,582.5215,z,1,2.6742,,[],[],[],[],[],[],[],582.5215,584.5204,584.5204,584.5207,[],[],[],[],[],[],[],,,,584.5208,584.5209,0.039855443,-0.375153473,0,0,0,,0,104,104,44,1,1,TL,cateferia,cursive,cateferia_c.png,,,
,,,,32095,001,2025-10-24_15h54.44.749,HW_LDT_1,2024.2.4,MacIntel,59.88023952,,,,,,,,,,,,,,,,,,,,584.522,584.7213,584.7215,585.2214,,,,,,,,,,,,,,1.0259,1,,,,,,,,,,,,,,z,,,,,,,,,,,,,,,106,0,585.2219,586.2547,z,1,1.0259,,[],[],[],[],[],[],[],586.2547,588.2544,588.2544,588.2544,[],[],[],[],[],[],[],,,,588.2544,588.2544,0.039855443,-0.375153473,0,0,0,,0,105,105,19,1,1,RL,monebate,print,monebate_p.png,,,
,,,,32095,001,2025-10-24_15h54.44.749,HW_LDT_1,2024.2.4,MacIntel,59.88023952,,,,,,,,,,,,,,,,,,,,588.2547,588.4543,588.4544,588.9543,,,,,,,,,,,,,,0.9262,1,,,,,,,,,,,,,,z,,,,,,,,,,,,,,,107,0,588.9545,589.888,z,1,0.9262,,[],[],[],[],[],[],[],589.8881,591.8872,591.8872,591.8874,[],[],[],[],[],[],[],,,,591.8874,591.8876,0.039855443,-0.375153473,0,0,0,,0,106,106,30,1,1,RL,relone,print,relone_p.png,,,
,,,,32095,001,2025-10-24_15h54.44.749,HW_LDT_1,2024.2.4,MacIntel,59.88023952,,,,,,,,,,,,,,,,,,,,591.8887,592.088,592.0881,592.588,,,,,,,,,,,,,,1.237,1,,,,,,,,,,,,,,m,,,,,,,,,,,,,,,108,0,592.5886,593.8381,m,1,1.237,,[],[],[],[],[],[],[],593.8381,595.838,595.838,595.8383,[],[],[],[],[],[],[],,,,595.8383,595.8383,0.039855443,-0.375153473,0,0,0,,0,107,107,116,1,1,word,MARGINAL,print,marginal_p.png,,,
,,,,32095,001,2025-10-24_15h54.44.749,HW_LDT_1,2024.2.4,MacIntel,59.88023952,,,,,,,,,,,,,,,,,,,,595.8398,596.0381,596.0381,596.538,,,,,,,,,,,,,,0.905,1,,,,,,,,,,,,,,z,,,,,,,,,,,,,,,109,0,596.5386,597.4548,z,1,0.905,,[],[],[],[],[],[],[],597.4549,599.4546,599.4547,599.4549,[],[],[],[],[],[],[],,,,599.4549,599.455,0.039855443,-0.375153473,0,0,0,,0,108,108,18,1,1,RL,mishafe,print,mishafe_p.png,,,
,,,,32095,001,2025-10-24_15h54.44.749,HW_LDT_1,2024.2.4,MacIntel,59.88023952,,,,,,,,,,,,,,,,,,,,599.4559,599.6547,599.6547,600.1548,,,,,,,,,,,,,,1.057,1,,,,,,,,,,,,,,m,,,,,,,,,,,,,,,110,1,600.1552,601.2211,m,1,1.057,,[],[],[],[],[],[],[],601.2212,603.2212,603.2213,604.2704,[],[],[],[],[],[],[],m,1.039,,604.2705,604.2706,0.039855443,-0.375153473,0,0,0,,0,109,109,113,1,1,word,LITERAL,print,literal_p.png,,,
,,,,32095,001,2025-10-24_15h54.44.749,HW_LDT_1,2024.2.4,MacIntel,59.88023952,,,,,,,,,,,,,,,,,,,,604.2715,604.4711,604.4712,604.9713,,,,,,,,,,,,,,2.2389,0,,,,,,,,,,,,,,m,,,,,,,,,,,,,,,111,0,604.9718,607.2213,z,0,2.2389,,[],[],[],[],[],[],[],607.2214,609.2214,609.2214,609.2216,[],[],[],[],[],[],[],,,,609.2216,609.2217,0.039855443,-0.375153473,0,0,0,,0,110,110,105,1,1,word,EDITOR,cursive,editor_c.png,,,
,,,,32095,001,2025-10-24_15h54.44.749,HW_LDT_1,2024.2.4,MacIntel,59.88023952,,,,,,,,,,,,,,,,,,,,609.2228,609.4212,609.4213,609.9212,,,,,,,,,,,,,,1.0714,1,,,,,,,,,,,,,,m,,,,,,,,,,,,,,,112,0,609.9218,611.0037,m,1,1.0714,,[],[],[],[],[],[],[],611.0038,613.0047,613.0047,613.0049,[],[],[],[],[],[],[],,,,613.0049,613.0049,0.039855443,-0.375153473,0,0,0,,0,111,111,121,1,1,word,MISTAKE,print,mistake_p.png,,,
,,,,32095,001,2025-10-24_15h54.44.749,HW_LDT_1,2024.2.4,MacIntel,59.88023952,,,,,,,,,,,,,,,,,,,,613.006,613.2038,613.2039,613.7036,,,,,,,,,,,,,,1.2057,1,,,,,,,,,,,,,,m,,,,,,,,,,,,,,,113,0,613.7042,614.9204,m,1,1.2057,,[],[],[],[],[],[],[],614.9205,616.9212,616.9213,616.9215,[],[],[],[],[],[],[],,,,616.9215,616.9216,0.039855443,-0.375153473,0,0,0,,0,112,112,128,1,1,word,PACIFIC,print,pacific_p.png,,,
,,,,32095,001,2025-10-24_15h54.44.749,HW_LDT_1,2024.2.4,MacIntel,59.88023952,,,,,,,,,,,,,,,,,,,,616.9228,617.1213,617.1213,617.6213,,,,,,,,,,,,,,1.7252,1,,,,,,,,,,,,,,z,,,,,,,,,,,,,,,114,0,617.6218,619.3537,z,1,1.7252,,[],[],[],[],[],[],[],619.3537,621.3546,621.3546,621.3548,[],[],[],[],[],[],[],,,,621.3549,621.3549,0.039855443,-0.375153473,0,0,0,,0,113,113,52,1,1,TL,decilate,cursive,decilate_c.png,,,
,,,,32095,001,2025-10-24_15h54.44.749,HW_LDT_1,2024.2.4,MacIntel,59.88023952,,,,,,,,,,,,,,,,,,,,621.356,621.5546,621.5546,622.0547,,,,,,,,,,,,,,1.4705,1,,,,,,,,,,,,,,m,,,,,,,,,,,,,,,115,0,622.0552,623.537,m,1,1.4705,,[],[],[],[],[],[],[],623.5372,625.538,625.5381,625.5383,[],[],[],[],[],[],[],,,,625.5383,625.5384,0.039855443,-0.375153473,0,0,0,,0,114,114,119,1,1,word,MEMORY,cursive,memory_c.png,,,
,,,,32095,001,2025-10-24_15h54.44.749,HW_LDT_1,2024.2.4,MacIntel,59.88023952,,,,,,,,,,,,,,,,,,,,625.5395,625.7379,625.7379,626.238,,,,,,,,,,,,,,1.4212,1,,,,,,,,,,,,,,z,,,,,,,,,,,,,,,116,0,626.2385,627.6705,z,1,1.4212,,[],[],[],[],[],[],[],627.6705,629.6713,629.6713,629.6715,[],[],[],[],[],[],[],,,,629.6715,629.6716,0.039855443,-0.375153473,0,0,0,,0,115,115,75,1,1,TL,speficic,cursive,speficic_c.png,,,
,,,,32095,001,2025-10-24_15h54.44.749,HW_LDT_1,2024.2.4,MacIntel,59.88023952,,,,,,,,,,,,,,,,,,,,629.6729,629.8704,629.8705,630.3712,,,,,,,,,,,,,,0.8403,1,,,,,,,,,,,,,,z,,,,,,,,,,,,,,,117,0,630.3717,631.2203,z,1,0.8403,,[],[],[],[],[],[],[],631.2204,633.2203,633.2204,633.2206,[],[],[],[],[],[],[],,,,633.2206,633.2207,0.039855443,-0.375153473,0,0,0,,0,116,116,12,1,1,RL,ebiwent,print,ebiwent_p.png,,,
,,,,32095,001,2025-10-24_15h54.44.749,HW_LDT_1,2024.2.4,MacIntel,59.88023952,,,,,,,,,,,,,,,,,,,,633.2218,633.4212,633.4213,633.9212,,,,,,,,,,,,,,1.3403,1,,,,,,,,,,,,,,z,,,,,,,,,,,,,,,118,0,633.9217,635.2712,z,1,1.3403,,[],[],[],[],[],[],[],635.2713,637.2712,637.2713,637.2714,[],[],[],[],[],[],[],,,,637.2714,637.2716,0.039855443,-0.375153473,0,0,0,,0,117,117,3,1,1,RL,casena,cursive,casena_c.png,,,
,,,,32095,001,2025-10-24_15h54.44.749,HW_LDT_1,2024.2.4,MacIntel,59.88023952,,,,,,,,,,,,,,,,,,,,637.2726,637.4712,637.4713,637.9712,,,,,,,,,,,,,,0.6714,1,,,,,,,,,,,,,,m,,,,,,,,,,,,,,,119,0,637.9717,638.6546,m,1,0.6714,,[],[],[],[],[],[],[],638.6546,640.6546,640.6546,640.6547,[],[],[],[],[],[],[],,,,640.6548,640.6549,0.039855443,-0.375153473,0,0,0,,0,118,118,139,1,1,word,REGULAR,print,regular_p.png,,,
,,,,32095,001,2025-10-24_15h54.44.749,HW_LDT_1,2024.2.4,MacIntel,59.88023952,,,,,,,,,,,,,,,,,,,,640.656,640.8536,640.8536,641.3537,,,,,,,,,,,,,,0.9499,1,,,,,,,,,,,,,,z,,,,,,,,,,,,,,,120,0,641.3542,642.3052,z,1,0.9499,,[],[],[],[],[],[],[],642.3053,644.3045,644.3045,644.3047,[],[],[],[],[],[],[],,,,644.3048,644.3049,0.039855443,-0.375153473,0,0,0,,0,119,119,7,1,1,RL,delahe,print,delahe_p.png,,,
,,,,32095,001,2025-10-24_15h54.44.749,HW_LDT_1,2024.2.4,MacIntel,59.88023952,,,,,,,,,,,,,,,,,,,,644.306,644.5046,644.5046,645.0043,,,,,,,,,,,,,,1.4599,1,,,,,,,,,,,,,,m,,,,,,,,,,,,,,,121,0,645.0045,646.4713,m,1,1.4599,,[],[],[],[],[],[],[],646.4713,648.4711,648.4713,648.4714,[],[],[],[],[],[],[],,,,648.4714,648.4715,0.039855443,-0.375153473,0,0,0,,0,120,120,144,1,1,word,RESIDENT,print,resident_p.png,,,
,,,,32095,001,2025-10-24_15h54.44.749,HW_LDT_1,2024.2.4,MacIntel,59.88023952,,,,,,,,,,,,,,,,,,,,648.4726,648.6713,648.6713,649.1711,,,,,,,,,,,,,,1.1567,1,,,,,,,,,,,,,,m,,,,,,,,,,,,,,,122,0,649.1716,650.3378,m,1,1.1567,,[],[],[],[],[],[],[],650.3379,652.3368,652.3369,652.3369,[],[],[],[],[],[],[],,,,652.337,652.337,0.039855443,-0.375153473,0,0,0,,0,121,121,83,1,1,word,ANIMAL,print,animal_p.png,,,
,,,,32095,001,2025-10-24_15h54.44.749,HW_LDT_1,2024.2.4,MacIntel,59.88023952,,,,,,,,,,,,,,,,,,,,652.338,652.5378,652.5379,653.0379,,,,,,,,,,,,,,1.3041,1,,,,,,,,,,,,,,m,,,,,,,,,,,,,,,123,0,653.0383,654.3537,m,1,1.3041,,[],[],[],[],[],[],[],654.3537,656.3544,656.3545,656.3546,[],[],[],[],[],[],[],,,,656.3546,656.3548,0.039855443,-0.375153473,0,0,0,,0,122,122,159,1,1,word,VETERAN,print,veteran_p.png,,,
,,,,32095,001,2025-10-24_15h54.44.749,HW_LDT_1,2024.2.4,MacIntel,59.88023952,,,,,,,,,,,,,,,,,,,,656.3559,656.5543,656.5543,657.0544,,,,,,,,,,,,,,1.9893,1,,,,,,,,,,,,,,m,,,,,,,,,,,,,,,124,0,657.055,659.0545,m,1,1.9893,,[],[],[],[],[],[],[],659.0546,661.0544,661.0545,661.0547,[],[],[],[],[],[],[],,,,661.0547,661.0548,0.039855443,-0.375153473,0,0,0,,0,123,123,141,1,1,word,RELIGION,cursive,religion_c.png,,,
,,,,32095,001,2025-10-24_15h54.44.749,HW_LDT_1,2024.2.4,MacIntel,59.88023952,,,,,,,,,,,,,,,,,,,,661.0559,661.2536,661.2536,661.7536,,,,,,,,,,,,,,1.9251,1,,,,,,,,,,,,,,z,,,,,,,,,,,,,,,125,0,661.7541,663.6879,z,1,1.9251,,[],[],[],[],[],[],[],663.6879,665.687,665.687,665.6872,[],[],[],[],[],[],[],,,,665.6872,665.6874,0.039855443,-0.375153473,0,0,0,,0,124,124,51,1,1,TL,corevage,print,corevage_p.png,,,
,,,,32095,001,2025-10-24_15h54.44.749,HW_LDT_1,2024.2.4,MacIntel,59.88023952,,,,,,,,,,,,,,,,,,,,665.6885,665.887,665.887,666.3878,,,,,,,,,,,,,,1.3413,1,,,,,,,,,,,,,,z,,,,,,,,,,,,,,,126,0,666.3883,667.7369,z,1,1.3413,,[],[],[],[],[],[],[],667.7369,669.7369,669.7369,669.737,[],[],[],[],[],[],[],,,,669.7372,669.7373,0.039855443,-0.375153473,0,0,0,,0,125,125,46,1,1,TL,catipal,print,catipal_p.png,,,
,,,,32095,001,2025-10-24_15h54.44.749,HW_LDT_1,2024.2.4,MacIntel,59.88023952,,,,,,,,,,,,,,,,,,,,669.7384,669.9371,669.9372,670.4377,,,,,,,,,,,,,,2.9597,0,,,,,,,,,,,,,,m,,,,,,,,,,,,,,,127,0,670.4382,673.4044,z,0,2.9597,,[],[],[],[],[],[],[],673.4044,675.4044,675.4045,675.4047,[],[],[],[],[],[],[],,,,675.4048,675.4048,0.039855443,-0.375153473,0,0,0,,0,126,126,149,1,1,word,SENATOR,cursive,senator_c.png,,,
,,,,32095,001,2025-10-24_15h54.44.749,HW_LDT_1,2024.2.4,MacIntel,59.88023952,,,,,,,,,,,,,,,,,,,,675.406,675.6035,675.6035,676.1035,,,,,,,,,,,,,,1.4895,1,,,,,,,,,,,,,,m,,,,,,,,,,,,,,,128,0,676.1038,677.6044,m,1,1.4895,,[],[],[],[],[],[],[],677.6045,679.6044,679.6044,679.6046,[],[],[],[],[],[],[],,,,679.6047,679.6047,0.039855443,-0.375153473,0,0,0,,0,127,127,106,1,1,word,ELABORATE,print,elaborate_p.png,,,
,,,,32095,001,2025-10-24_15h54.44.749,HW_LDT_1,2024.2.4,MacIntel,59.88023952,,,,,,,,,,,,,,,,,,,,679.6058,679.8044,679.8045,680.3046,,,,,,,,,,,,,,1.6316,1,,,,,,,,,,,,,,m,,,,,,,,,,,,,,,129,0,680.3052,681.9376,m,1,1.6316,,[],[],[],[],[],[],[],681.9377,683.9377,683.9378,683.9379,[],[],[],[],[],[],[],,,,683.938,683.9381,0.039855443,-0.375153473,0,0,0,,0,128,128,126,1,1,word,OPTIMAL,print,optimal_p.png,,,
,,,,32095,001,2025-10-24_15h54.44.749,HW_LDT_1,2024.2.4,MacIntel,59.88023952,,,,,,,,,,,,,,,,,,,,683.9392,684.1378,684.1379,684.6378,,,,,,,,,,,,,,1.2559,1,,,,,,,,,,,,,,z,,,,,,,,,,,,,,,130,1,684.6383,685.9035,z,1,1.2559,,[],[],[],[],[],[],[],685.9036,687.9044,687.9046,689.2876,[],[],[],[],[],[],[],z,1.3723,,689.2878,689.2878,0.039855443,-0.375153473,0,0,0,,0,129,129,2,1,1,RL,asiral,print,asiral_p.png,,,
,,,,32095,001,2025-10-24_15h54.44.749,HW_LDT_1,2024.2.4,MacIntel,59.88023952,,,,,,,,,,,,,,,,,,,,689.2887,689.4876,689.4876,689.9877,,,,,,,,,,,,,,1.0548,1,,,,,,,,,,,,,,m,,,,,,,,,,,,,,,131,0,689.9882,691.0544,m,1,1.0548,,[],[],[],[],[],[],[],691.0544,693.0544,693.0544,693.0547,[],[],[],[],[],[],[],,,,693.0547,693.0548,0.039855443,-0.375153473,0,0,0,,0,130,130,91,1,1,word,CARDINAL,print,cardinal_p.png,,,
,,,,32095,001,2025-10-24_15h54.44.749,HW_LDT_1,2024.2.4,MacIntel,59.88023952,,,,,,,,,,,,,,,,,,,,693.0559,693.2544,693.2545,693.7545,,,,,,,,,,,,,,1.4377,1,,,,,,,,,,,,,,z,,,,,,,,,,,,,,,132,0,693.7551,695.2044,z,1,1.4377,,[],[],[],[],[],[],[],695.2045,697.2044,697.2044,697.2046,[],[],[],[],[],[],[],,,,697.2047,697.2047,0.039855443,-0.375153473,0,0,0,,0,131,131,63,1,1,TL,molibe,cursive,molibe_c.png,,,
,,,,32095,001,2025-10-24_15h54.44.749,HW_LDT_1,2024.2.4,MacIntel,59.88023952,,,,,,,,,,,,,,,,,,,,697.2058,697.4035,697.4035,697.9043,,,,,,,,,,,,,,2.072,1,,,,,,,,,,,,,,z,,,,,,,,,,,,,,,133,0,697.9049,699.9878,z,1,2.072,,[],[],[],[],[],[],[],699.9878,701.9877,701.9877,701.9879,[],[],[],[],[],[],[],,,,701.988,701.9881,0.039855443,-0.375153473,0,0,0,,0,132,132,22,1,1,RL,patisic,print,patisic_p.png,,,
,,,,32095,001,2025-10-24_15h54.44.749,HW_LDT_1,2024.2.4,MacIntel,59.88023952,,,,,,,,,,,,,,,,,,,,701.9892,702.1877,702.1877,702.6876,,,,,,,,,,,,,,1.7222,1,,,,,,,,,,,,,,m,,,,,,,,,,,,,,,134,0,702.6882,704.421,m,1,1.7222,,[],[],[],[],[],[],[],704.4212,706.421,706.421,706.4212,[],[],[],[],[],[],[],,,,706.4212,706.4213,0.039855443,-0.375153473,0,0,0,,0,133,133,137,1,1,word,RAPIDLY,cursive,rapidly_c.png,,,
,,,,32095,001,2025-10-24_15h54.44.749,HW_LDT_1,2024.2.4,MacIntel,59.88023952,,,,,,,,,,,,,,,,,,,,706.4225,706.6211,706.6211,707.1206,,,,,,,,,,,,,,1.1584,1,,,,,,,,,,,,,,z,,,,,,,,,,,,,,,135,0,707.1208,708.2868,z,1,1.1584,,[],[],[],[],[],[],[],708.2869,710.2867,710.2867,710.2869,[],[],[],[],[],[],[],,,,710.2869,710.2869,0.039855443,-0.375153473,0,0,0,,0,134,134,74,1,1,TL,setanor,cursive,setanor_c.png,,,
,,,,32095,001,2025-10-24_15h54.44.749,HW_LDT_1,2024.2.4,MacIntel,59.88023952,,,,,,,,,,,,,,,,,,,,710.2879,710.4877,710.4877,710.9875,,,,,,,,,,,,,,2.9158,0,,,,,,,,,,,,,,m,,,,,,,,,,,,,,,136,0,710.988,713.9047,z,0,2.9158,,[],[],[],[],[],[],[],713.9048,715.9043,715.9043,715.9045,[],[],[],[],[],[],[],,,,715.9045,715.9046,0.039855443,-0.375153473,0,0,0,,0,135,135,111,1,1,word,INDICATE,cursive,indicate_c.png,,,
,,,,32095,001,2025-10-24_15h54.44.749,HW_LDT_1,2024.2.4,MacIntel,59.88023952,,,,,,,,,,,,,,,,,,,,715.9058,716.1043,716.1043,716.6043,,,,,,,,,,,,,,2.3216,1,,,,,,,,,,,,,,z,,,,,,,,,,,,,,,137,0,716.6049,718.9377,z,1,2.3216,,[],[],[],[],[],[],[],718.9378,720.9374,720.9375,720.9377,[],[],[],[],[],[],[],,,,720.9377,720.9378,0.039855443,-0.375153473,0,0,0,,0,136,136,69,1,1,TL,radiply,cursive,radiply_c.png,,,
,,,,32095,001,2025-10-24_15h54.44.749,HW_LDT_1,2024.2.4,MacIntel,59.88023952,,,,,,,,,,,,,,,,,,,,720.9389,721.1367,721.1368,721.6376,,,,,,,,,,,,,,1.57,0,,,,,,,,,,,,,,m,,,,,,,,,,,,,,,138,0,721.6381,723.221,z,0,1.57,,[],[],[],[],[],[],[],723.2212,725.2209,725.221,725.2212,[],[],[],[],[],[],[],,,,725.2212,725.2213,0.039855443,-0.375153473,0,0,0,,0,137,137,135,1,1,word,QUALITY,cursive,quality_c.png,,,
,,,,32095,001,2025-10-24_15h54.44.749,HW_LDT_1,2024.2.4,MacIntel,59.88023952,,,,,,,,,,,,,,,,,,,,725.2226,725.4201,725.4202,725.9209,,,,,,,,,,,,,,1.638,0,,,,,,,,,,,,,,m,,,,,,,,,,,,,,,139,0,725.9215,727.57,z,0,1.638,,[],[],[],[],[],[],[],727.5702,729.571,729.571,729.5711,[],[],[],[],[],[],[],,,,729.5711,729.5712,0.039855443,-0.375153473,0,0,0,,0,138,138,101,1,1,word,DELICATE,cursive,delicate_c.png,,,
,,,,32095,001,2025-10-24_15h54.44.749,HW_LDT_1,2024.2.4,MacIntel,59.88023952,,,,,,,,,,,,,,,,,,,,729.5723,729.771,729.771,730.2709,,,,,,,,,,,,,,0.7713,1,,,,,,,,,,,,,,m,,,,,,,,,,,,,,,140,0,730.2714,731.0535,m,1,0.7713,,[],[],[],[],[],[],[],731.0536,733.0543,733.0543,733.0545,[],[],[],[],[],[],[],,,,733.0545,733.0546,0.039855443,-0.375153473,0,0,0,,0,139,139,132,1,1,word,PROPOSAL,cursive,proposal_c.png,,,
,,,,32095,001,2025-10-24_15h54.44.749,HW_LDT_1,2024.2.4,MacIntel,59.88023952,,,,,,,,,,,,,,,,,,,,733.0556,733.2543,733.2543,733.7542,,,,,,,,,,,,,,0.8874,1,,,,,,,,,,,,,,m,,,,,,,,,,,,,,,141,0,733.7547,734.6543,m,1,0.8874,,[],[],[],[],[],[],[],734.6544,736.6533,736.6534,736.6535,[],[],[],[],[],[],[],,,,736.6536,736.6537,0.039855443,-0.375153473,0,0,0,,0,140,140,90,1,1,word,CAPITAL,print,capital_p.png,,,
,,,,32095,001,2025-10-24_15h54.44.749,HW_LDT_1,2024.2.4,MacIntel,59.88023952,,,,,,,,,,,,,,,,,,,,736.6548,736.8543,736.8543,737.3542,,,,,,,,,,,,,,1.2051,1,,,,,,,,,,,,,,z,,,,,,,,,,,,,,,142,1,737.3548,738.5709,z,1,1.2051,,[],[],[],[],[],[],[],738.571,740.5709,740.5709,741.7209,[],[],[],[],[],[],[],z,1.1403,,741.721,741.721,0.039855443,-0.375153473,0,0,0,,0,141,141,40,1,1,TL,atameur,print,atameur_p.png,,,
,,,,32095,001,2025-10-24_15h54.44.749,HW_LDT_1,2024.2.4,MacIntel,59.88023952,,,,,,,,,,,,,,,,,,,,741.722,741.9209,741.9209,742.4201,,,,,,,,,,,,,,1.3751,1,,,,,,,,,,,,,,m,,,,,,,,,,,,,,,143,0,742.4206,743.8042,m,1,1.3751,,[],[],[],[],[],[],[],743.8042,745.8041,745.8042,745.8043,[],[],[],[],[],[],[],,,,745.8044,745.8045,0.039855443,-0.375153473,0,0,0,,0,142,142,147,1,1,word,ROMANTIC,cursive,romantic_c.png,,,
,,,,32095,001,2025-10-24_15h54.44.749,HW_LDT_1,2024.2.4,MacIntel,59.88023952,,,,,,,,,,,,,,,,,,,,745.8055,746.0041,746.0042,746.5042,,,,,,,,,,,,,,6.788,0,,,,,,,,,,,,,,z,,,,,,,,,,,,,,,144,1,746.5047,753.3043,m,0,6.788,,[],[],[],[],[],[],[],753.3044,755.3042,755.3043,756.2875,[],[],[],[],[],[],[],z,0.9826,,756.2876,756.2877,0.039855443,-0.375153473,0,0,0,,0,143,143,25,1,1,RL,quakity,cursive,quakity_c.png,,,
,,,,32095,001,2025-10-24_15h54.44.749,HW_LDT_1,2024.2.4,MacIntel,59.88023952,,,,,,,,,,,,,,,,,,,,756.2885,756.4876,756.4876,756.9875,,,,,,,,,,,,,,2.0719,1,,,,,,,,,,,,,,z,,,,,,,,,,,,,,,145,0,756.9881,759.0708,z,1,2.0719,,[],[],[],[],[],[],[],759.0709,761.0708,761.0708,761.0709,[],[],[],[],[],[],[],,,,761.071,761.0711,0.039855443,-0.375153473,0,0,0,,0,144,144,49,1,1,TL,clicinal,cursive,clicinal_c.png,,,
,,,,32095,001,2025-10-24_15h54.44.749,HW_LDT_1,2024.2.4,MacIntel,59.88023952,,,,,,,,,,,,,,,,,,,,761.0722,761.2708,761.2709,761.7708,,,,,,,,,,,,,,2.0716,1,,,,,,,,,,,,,,z,,,,,,,,,,,,,,,146,1,761.7713,763.8542,z,1,2.0716,,[],[],[],[],[],[],[],763.8542,765.8542,765.8542,766.5208,[],[],[],[],[],[],[],z,0.6557,,766.5209,766.5209,0.039855443,-0.375153473,0,0,0,,0,145,145,32,1,1,RL,rebicent,print,rebicent_p.png,,,
,,,,32095,001,2025-10-24_15h54.44.749,HW_LDT_1,2024.2.4,MacIntel,59.88023952,,,,,,,,,,,,,,,,,,,,766.5218,766.7209,766.721,767.2209,,,,,,,,,,,,,,1.239,1,,,,,,,,,,,,,,m,,,,,,,,,,,,,,,147,1,767.2213,768.4708,m,1,1.239,,[],[],[],[],[],[],[],768.4709,770.4708,770.4708,771.3542,[],[],[],[],[],[],[],z,0.8827,,771.3543,771.3544,0.039855443,-0.375153473,0,0,0,,0,146,146,150,1,1,word,SENTIMENT,cursive,sentiment_c.png,,,
,,,,32095,001,2025-10-24_15h54.44.749,HW_LDT_1,2024.2.4,MacIntel,59.88023952,,,,,,,,,,,,,,,,,,,,771.3553,771.5542,771.5542,772.054,,,,,,,,,,,,,,0.9383,1,,,,,,,,,,,,,,m,,,,,,,,,,,,,,,148,0,772.0546,773.0042,m,1,0.9383,,[],[],[],[],[],[],[],773.0042,775.0042,775.0042,775.0044,[],[],[],[],[],[],[],,,,775.0044,775.0045,0.039855443,-0.375153473,0,0,0,,0,147,147,98,1,1,word,CRIMINAL,print,criminal_p.png,,,
,,,,32095,001,2025-10-24_15h54.44.749,HW_LDT_1,2024.2.4,MacIntel,59.88023952,,,,,,,,,,,,,,,,,,,,775.0056,775.204,775.2041,775.7041,,,,,,,,,,,,,,1.4213,1,,,,,,,,,,,,,,z,,,,,,,,,,,,,,,149,0,775.7046,777.1374,z,1,1.4213,,[],[],[],[],[],[],[],777.1376,779.1375,779.1375,779.1377,[],[],[],[],[],[],[],,,,779.1377,779.1377,0.039855443,-0.375153473,0,0,0,,0,148,148,42,1,1,TL,befenit,print,befenit_p.png,,,
,,,,32095,001,2025-10-24_15h54.44.749,HW_LDT_1,2024.2.4,MacIntel,59.88023952,,,,,,,,,,,,,,,,,,,,779.1388,779.3374,779.3374,779.8375,,,,,,,,,,,,,,2.0911,1,,,,,,,,,,,,,,m,,,,,,,,,,,,,,,150,0,779.838,781.9374,m,1,2.0911,,[],[],[],[],[],[],[],781.9375,783.9374,783.9375,783.9376,[],[],[],[],[],[],[],,,,783.9376,783.9378,0.039855443,-0.375153473,0,0,0,,0,149,149,120,1,1,word,MILITARY,print,military_p.png,,,
,,,,32095,001,2025-10-24_15h54.44.749,HW_LDT_1,2024.2.4,MacIntel,59.88023952,,,,,,,,,,,,,,,,,,,,783.9389,784.1374,784.1375,784.6374,,,,,,,,,,,,,,1.4549,1,,,,,,,,,,,,,,z,,,,,,,,,,,,,,,151,1,784.638,786.1041,z,1,1.4549,,[],[],[],[],[],[],[],786.1042,788.1035,788.1036,788.9041,[],[],[],[],[],[],[],m,0.7895,,788.9042,788.9043,0.039855443,-0.375153473,0,0,0,,0,150,150,72,1,1,TL,remuse,print,remuse_p.png,,,
,,,,32095,001,2025-10-24_15h54.44.749,HW_LDT_1,2024.2.4,MacIntel,59.88023952,,,,,,,,,,,,,,,,,,,,788.9051,789.104,789.104,789.6041,,,,,,,,,,,,,,1.7757,1,,,,,,,,,,,,,,m,,,,,,,,,,,,,,,152,0,789.6046,791.3868,m,1,1.7757,,[],[],[],[],[],[],[],791.3869,793.3874,793.3874,793.3877,[],[],[],[],[],[],[],,,,793.3877,793.3877,0.039855443,-0.375153473,0,0,0,,0,151,151,94,1,1,word,CLINICAL,cursive,clinical_c.png,,,
,,,,32095,001,2025-10-24_15h54.44.749,HW_LDT_1,2024.2.4,MacIntel,59.88023952,,,,,,,,,,,,,,,,,,,,793.3889,793.5873,793.5874,794.0874,,,,,,,,,,,,,,1.4062,1,,,,,,,,,,,,,,z,,,,,,,,,,,,,,,153,0,794.0879,795.5041,z,1,1.4062,,[],[],[],[],[],[],[],795.5042,797.504,797.504,797.5042,[],[],[],[],[],[],[],,,,797.5043,797.5043,0.039855443,-0.375153473,0,0,0,,0,152,152,43,1,1,TL,bedise,print,bedise_p.png,,,
,,,,32095,001,2025-10-24_15h54.44.749,HW_LDT_1,2024.2.4,MacIntel,59.88023952,,,,,,,,,,,,,,,,,,,,797.5054,797.7041,797.7041,798.2041,,,,,,,,,,,,,,1.6714,1,,,,,,,,,,,,,,z,,,,,,,,,,,,,,,154,1,798.2045,799.8874,z,1,1.6714,,[],[],[],[],[],[],[],799.8874,801.8874,801.8875,802.7373,[],[],[],[],[],[],[],z,0.8386,,802.7375,802.7375,0.039855443,-0.375153473,0,0,0,,0,153,153,29,1,1,RL,refakive,cursive,refakive_c.png,,,
,,,,32095,001,2025-10-24_15h54.44.749,HW_LDT_1,2024.2.4,MacIntel,59.88023952,,,,,,,,,,,,,,,,,,,,802.7385,802.9374,802.9374,803.4373,,,,,,,,,,,,,,1.6218,1,,,,,,,,,,,,,,z,,,,,,,,,,,,,,,155,0,803.4379,805.0707,z,1,1.6218,,[],[],[],[],[],[],[],805.0708,807.0708,807.0708,807.071,[],[],[],[],[],[],[],,,,807.0711,807.0712,0.039855443,-0.375153473,0,0,0,,0,154,154,35,1,1,RL,senvilent,cursive,senvilent_c.png,,,
,,,,32095,001,2025-10-24_15h54.44.749,HW_LDT_1,2024.2.4,MacIntel,59.88023952,,,,,,,,,,,,,,,,,,,,807.0723,807.2707,807.2708,807.7705,,,,,,,,,,,,,,1.125,1,,,,,,,,,,,,,,z,,,,,,,,,,,,,,,156,0,807.771,808.904,z,1,1.125,,[],[],[],[],[],[],[],808.9041,810.9039,810.904,810.9042,[],[],[],[],[],[],[],,,,810.9042,810.9043,0.039855443,-0.375153473,0,0,0,,0,155,155,60,1,1,TL,manire,print,manire_p.png,,,
,,,,32095,001,2025-10-24_15h54.44.749,HW_LDT_1,2024.2.4,MacIntel,59.88023952,,,,,,,,,,,,,,,,,,,,810.9053,811.1039,811.104,811.6041,,,,,,,,,,,,,,2.9046,1,,,,,,,,,,,,,,z,,,,,,,,,,,,,,,157,0,811.6046,814.5207,z,1,2.9046,,[],[],[],[],[],[],[],814.5207,816.5208,816.5208,816.521,[],[],[],[],[],[],[],,,,816.521,816.5211,0.039855443,-0.375153473,0,0,0,,0,156,156,27,1,1,RL,rasibal,print,rasibal_p.png,,,
,,,,32095,001,2025-10-24_15h54.44.749,HW_LDT_1,2024.2.4,MacIntel,59.88023952,,,,,,,,,,,,,,,,,,,,816.5222,816.7207,816.7207,817.2207,,,,,,,,,,,,,,0.7047,1,,,,,,,,,,,,,,z,,,,,,,,,,,,,,,158,0,817.2213,817.9373,z,1,0.7047,,[],[],[],[],[],[],[],817.9374,819.9373,819.9375,819.9376,[],[],[],[],[],[],[],,,,819.9376,819.9377,0.039855443,-0.375153473,0,0,0,,0,157,157,14,1,1,RL,lofase,print,lofase_p.png,,,
,,,,32095,001,2025-10-24_15h54.44.749,HW_LDT_1,2024.2.4,MacIntel,59.88023952,,,,,,,,,,,,,,,,,,,,819.939,820.1373,820.1373,820.6373,,,,,,,,,,,,,,0.6879,1,,,,,,,,,,,,,,z,,,,,,,,,,,,,,,159,0,820.6379,821.3373,z,1,0.6879,,[],[],[],[],[],[],[],821.3374,823.3372,823.3373,823.3374,[],[],[],[],[],[],[],,,,823.3375,823.3376,0.039855443,-0.375153473,0,0,0,,0,158,158,21,1,1,RL,opcifal,print,opcifal_p.png,,,
,,,,32095,001,2025-10-24_15h54.44.749,HW_LDT_1,2024.2.4,MacIntel,59.88023952,,,,,,,,,,,,,,,,,,,,823.3386,823.5373,823.5374,824.0372,,,,,,,,,,,,,,1.3535,1,,,,,,,,,,,,,,m,,,,,,,,,,,,,,,160,0,824.0379,825.4039,m,1,1.3535,,[],[],[],[],[],[],[],825.404,827.4039,827.404,827.4041,[],[],[],[],[],[],[],,,,827.4042,827.4042,0.039855443,-0.375153473,0,0,0,,0,159,159,127,1,1,word,ORIGINAL,cursive,original_c.png,,,
,,,,32095,001,2025-10-24_15h54.44.749,HW_LDT_1,2024.2.4,MacIntel,59.88023952,,,,,,,,,,,,,,,,,,,,,,,,,,,,,,,,,,,,,,,,,,,,,,,,,,,,,,,,,,,,,,,,,,,,,,,,,,,,,,,,,,,,,,,,,,,,,,,,,,,,,,,,,,,,,,,,,,,827.4173,832.4043
