counterbalance_lists.group,counterbalance_lists.remaining,get_list.started,get_list.stopped,participant,session,date,expName,psychopyVersion,OS,frameRate,Instructions.started,Instructions.stopped,key_resp.keys,key_resp.rt,key_resp.duration,instr_done_touch.x,instr_done_touch.y,instr_done_touch.leftButton,instr_done_touch.midButton,instr_done_touch.rightButton,start_instr.thisRepN,start_instr.thisTrialN,start_instr.thisN,start_instr.thisIndex,start_instr.ran,pageN,phase,instruct_text,has_image,instruct_image,showProgress.started,showProgress.stopped,fix.started,fix.stopped,prac.started,prac.stopped,response.keys,response.corr,response.rt,response.duration,touch_resp.x,touch_resp.y,touch_resp.leftButton,touch_resp.midButton,touch_resp.rightButton,touch_resp.time,touch_resp.clicked_name,rt,corr,feedback.started,feedback.stopped,trials.thisRepN,trials.thisTrialN,trials.thisN,trials.thisIndex,trials.ran,TrialID,StimulusType,Condition,PrimeDuration,Prime,Target,corrAns,Instructions_expt.started,Instructions_expt.stopped,key_resp_3.keys,key_resp_3.rt,key_resp_3.duration,instr_done_touch_3.x,instr_done_touch_3.y,instr_done_touch_3.leftButton,instr_done_touch_3.midButton,instr_done_touch_3.rightButton,instr_experiment.thisRepN,instr_experiment.thisTrialN,instr_experiment.thisN,instr_experiment.thisIndex,instr_experiment.ran,trialID,flag,maintask.started,maintask.stopped,key_resp_2.keys,key_resp_2.corr,key_resp_2.rt,key_resp_2.duration,targ_click.x,targ_click.y,targ_click.leftButton,targ_click.midButton,targ_click.rightButton,targ_click.time,targ_click.clicked_name,ITI.started,ITI.stopped,probe.started,probe.stopped,click_probe.x,click_probe.y,click_probe.leftButton,click_probe.midButton,click_probe.rightButton,click_probe.time,click_probe.clicked_name,key_resp_probe.keys,Break.started,Break.stopped,break_done_touch.x,break_done_touch.y,break_done_touch.leftButton,break_done_touch.midButton,break_done_touch.rightButton,break_done_keyboard.keys,list1_trials.thisRepN,list1_trials.thisTrialN,list1_trials.thisN,list1_trials.thisIndex,list1_trials.ran,list_id,item_type,string,font,stim_file,key_resp_probe.rt,key_resp_probe.duration,break_done_keyboard.rt,break_done_keyboard.duration,End.started,End.stopped
list1,,0.5015,0.5017,32104,001,2025-12-03_21h30.02.828,HW_LDT_1,2024.2.4,MacIntel,59.88023952,,,,,,,,,,,,,,,,,,,,,,,,,,,,,,,,,,,,,,,,,,,,,,,,,,,,,,,,,,,,,,,,,,,,,,,,,,,,,,,,,,,,,,,,,,,,,,,,,,,,,,,,,,,,,,,,,,,,,,,
,,,,32104,001,2025-12-03_21h30.02.828,HW_LDT_1,2024.2.4,MacIntel,59.88023952,0.522,222.7728,space,222.2162,,-0.026616581,-0.379308203,0,0,0,0,0,0,0,1,1,instructions,"INSTRUCTIONS
At the start of each trial, look at the plus sign  (+) in the center of the screen.  This tells you that a trial is about to begin and where to look. Second, the plus sign will disappear and a string of letters will appear. Your task is to determine if the string of letters is a word or not. If the item is a word press the M key (on keyboard)  or touch the word button (phone/tablet).  If the item is not a word,  press the  Z key (on keyboard)  or touch the nonword button (on phone/tablet). The items will be presented for a short time. 
Press the space bar or touch  continue.",0,,,,,,,,,,,,,,,,,,,,,,,,,,,,,,,,,,,,,,,,,,,,,,,,,,,,,,,,,,,,,,,,,,,,,,,,,,,,,,,,,,,,,,,,,,,,,,,,,,,,
,,,,32104,001,2025-12-03_21h30.02.828,HW_LDT_1,2024.2.4,MacIntel,59.88023952,222.7764,293.9401,space,71.145,,-0.026616581,-0.379308203,0,0,0,0,1,1,1,1,2,instructions,"If your device has a keyboard, press the 'Z' key for nonwords and the 'M' key for words.





Press the space bar or touch the button below to continue.",0,keyboard-example.gif,,,,,,,,,,,,,,,,,,,,,,,,,,,,,,,,,,,,,,,,,,,,,,,,,,,,,,,,,,,,,,,,,,,,,,,,,,,,,,,,,,,,,,,,,,,,,,,,,,,
,,,,32104,001,2025-12-03_21h30.02.828,HW_LDT_1,2024.2.4,MacIntel,59.88023952,293.9413,307.34,space,13.3733,,-0.061732636,-0.357876812,0,0,0,0,2,2,2,1,3,instructions,"If you are using a touchscreen only device, use the buttons on the screen. Do not use the mouse.





Press the space bar or touch the button below to continue.",0,touchscreen-example.gif,,,,,,,,,,,,,,,,,,,,,,,,,,,,,,,,,,,,,,,,,,,,,,,,,,,,,,,,,,,,,,,,,,,,,,,,,,,,,,,,,,,,,,,,,,,,,,,,,,,
,,,,32104,001,2025-12-03_21h30.02.828,HW_LDT_1,2024.2.4,MacIntel,59.88023952,307.3417,316.3236,space,8.9627,,-0.061732636,-0.357876812,0,0,0,0,3,3,3,1,4,instructions,"It is very important that you respond as quickly and accurately as possible, as each letter string will only be on the screen for two seconds. If you do not respond within this time, the message 'Too slow!' will be displayed and the experiment will progress to the next letter string. The first 20 trials will be practice trials and you will receive feedback on your answers. 

Press the space bar or touch the button below to start the practice trials.",0,,,,,,,,,,,,,,,,,,,,,,,,,,,,,,,,,,,,,,,,,,,,,,,,,,,,,,,,,,,,,,,,,,,,,,,,,,,,,,,,,,,,,,,,,,,,,,,,,,,,
,,,,32104,001,2025-12-03_21h30.02.828,HW_LDT_1,2024.2.4,MacIntel,59.88023952,,,,,,,,,,,,,,,,,,,,,316.3539,316.5235,316.5237,317.0235,317.0238,324.4731,z,1,7.4293,,[],[],[],[],[],[],[],7.4293,1,324.4734,324.9739,0,0,0,12,1,1013,NW,UN,33,adveil,SPRINY,z,,,,,,,,,,,,,,,,,,,,,,,,,,,,,,,,,,,,,,,,,,,,,,,,,,,,,,,,,,,,,,,,,,
,,,,32104,001,2025-12-03_21h30.02.828,HW_LDT_1,2024.2.4,MacIntel,59.88023952,,,,,,,,,,,,,,,,,,,,,324.9752,325.173,325.173,325.6734,325.6742,326.7902,m,1,1.0944,,[],[],[],[],[],[],[],1.0944,1,326.7902,327.2901,0,1,1,7,1,1008,WORD,UN,16,hurdle,VOLUME,m,,,,,,,,,,,,,,,,,,,,,,,,,,,,,,,,,,,,,,,,,,,,,,,,,,,,,,,,,,,,,,,,,,
,,,,32104,001,2025-12-03_21h30.02.828,HW_LDT_1,2024.2.4,MacIntel,59.88023952,,,,,,,,,,,,,,,,,,,,,327.2912,327.4902,327.4902,327.9893,327.9902,328.6735,m,1,0.6717,,[],[],[],[],[],[],[],0.6717,1,328.6736,329.1724,0,2,2,3,1,1004,WORD,"ID",16,matrix,MATRIX,m,,,,,,,,,,,,,,,,,,,,,,,,,,,,,,,,,,,,,,,,,,,,,,,,,,,,,,,,,,,,,,,,,,
,,,,32104,001,2025-12-03_21h30.02.828,HW_LDT_1,2024.2.4,MacIntel,59.88023952,,,,,,,,,,,,,,,,,,,,,329.1737,329.3734,329.3734,329.8734,329.8742,330.6067,m,1,0.7221,,[],[],[],[],[],[],[],0.7221,1,330.6068,331.1062,0,3,3,1,1,1002,WORD,"ID",33,adjust,ADJUST,m,,,,,,,,,,,,,,,,,,,,,,,,,,,,,,,,,,,,,,,,,,,,,,,,,,,,,,,,,,,,,,,,,,
,,,,32104,001,2025-12-03_21h30.02.828,HW_LDT_1,2024.2.4,MacIntel,59.88023952,,,,,,,,,,,,,,,,,,,,,331.1076,331.3067,331.3068,331.8068,331.8077,332.5069,m,1,0.6811,,[],[],[],[],[],[],[],0.6811,1,332.507,333.0066,0,4,4,0,1,1001,WORD,"ID",33,utopia,UTOPIA,m,,,,,,,,,,,,,,,,,,,,,,,,,,,,,,,,,,,,,,,,,,,,,,,,,,,,,,,,,,,,,,,,,,
,,,,32104,001,2025-12-03_21h30.02.828,HW_LDT_1,2024.2.4,MacIntel,59.88023952,,,,,,,,,,,,,,,,,,,,,333.0075,333.2067,333.2068,333.7062,333.707,334.4403,z,1,0.7222,,[],[],[],[],[],[],[],0.7222,1,334.4405,334.9394,0,5,5,11,1,1012,NW,"ID",16,rashet,RASHET,z,,,,,,,,,,,,,,,,,,,,,,,,,,,,,,,,,,,,,,,,,,,,,,,,,,,,,,,,,,,,,,,,,,
,,,,32104,001,2025-12-03_21h30.02.828,HW_LDT_1,2024.2.4,MacIntel,59.88023952,,,,,,,,,,,,,,,,,,,,,334.9407,335.1402,335.1402,335.6401,335.641,336.4568,z,1,0.807,,[],[],[],[],[],[],[],0.807,1,336.457,336.957,0,6,6,15,1,1016,NW,UN,16,mushed,WHAISE,z,,,,,,,,,,,,,,,,,,,,,,,,,,,,,,,,,,,,,,,,,,,,,,,,,,,,,,,,,,,,,,,,,,
,,,,32104,001,2025-12-03_21h30.02.828,HW_LDT_1,2024.2.4,MacIntel,59.88023952,,,,,,,,,,,,,,,,,,,,,336.9587,337.1567,337.1568,337.6569,337.6576,338.2402,z,1,0.573,,[],[],[],[],[],[],[],0.573,1,338.2402,338.7402,0,7,7,14,1,1015,NW,UN,16,miaber,THRALE,z,,,,,,,,,,,,,,,,,,,,,,,,,,,,,,,,,,,,,,,,,,,,,,,,,,,,,,,,,,,,,,,,,,
,,,,32104,001,2025-12-03_21h30.02.828,HW_LDT_1,2024.2.4,MacIntel,59.88023952,,,,,,,,,,,,,,,,,,,,,338.7415,338.9396,338.9396,339.4402,339.4409,340.0067,z,1,0.5588,,[],[],[],[],[],[],[],0.5588,1,340.0068,340.5069,0,8,8,13,1,1014,NW,UN,33,winfer,ROUPET,z,,,,,,,,,,,,,,,,,,,,,,,,,,,,,,,,,,,,,,,,,,,,,,,,,,,,,,,,,,,,,,,,,,
,,,,32104,001,2025-12-03_21h30.02.828,HW_LDT_1,2024.2.4,MacIntel,59.88023952,,,,,,,,,,,,,,,,,,,,,340.508,340.7068,340.7069,341.2067,341.2074,341.9234,m,1,0.697,,[],[],[],[],[],[],[],0.697,1,341.9236,342.4237,0,9,9,6,1,1007,WORD,UN,16,tropic,ZOMBIE,m,,,,,,,,,,,,,,,,,,,,,,,,,,,,,,,,,,,,,,,,,,,,,,,,,,,,,,,,,,,,,,,,,,
,,,,32104,001,2025-12-03_21h30.02.828,HW_LDT_1,2024.2.4,MacIntel,59.88023952,,,,,,,,,,,,,,,,,,,,,342.4247,342.6235,342.6235,343.1232,343.1239,343.6901,m,1,0.55,,[],[],[],[],[],[],[],0.55,1,343.6902,344.1902,0,10,10,5,1,1006,WORD,UN,33,frenzy,OBTAIN,m,,,,,,,,,,,,,,,,,,,,,,,,,,,,,,,,,,,,,,,,,,,,,,,,,,,,,,,,,,,,,,,,,,
,,,,32104,001,2025-12-03_21h30.02.828,HW_LDT_1,2024.2.4,MacIntel,59.88023952,,,,,,,,,,,,,,,,,,,,,344.1914,344.3902,344.3903,344.8902,344.8912,345.5569,z,1,0.6451,,[],[],[],[],[],[],[],0.6451,1,345.557,346.0569,0,11,11,9,1,1010,NW,"ID",33,fariny,FARINY,z,,,,,,,,,,,,,,,,,,,,,,,,,,,,,,,,,,,,,,,,,,,,,,,,,,,,,,,,,,,,,,,,,,
,,,,32104,001,2025-12-03_21h30.02.828,HW_LDT_1,2024.2.4,MacIntel,59.88023952,,,,,,,,,,,,,,,,,,,,,346.0581,346.2568,346.2568,346.7569,346.7577,347.3068,m,1,0.5385,,[],[],[],[],[],[],[],0.5385,1,347.3069,347.8069,0,12,12,2,1,1003,WORD,"ID",16,almond,ALMOND,m,,,,,,,,,,,,,,,,,,,,,,,,,,,,,,,,,,,,,,,,,,,,,,,,,,,,,,,,,,,,,,,,,,
,,,,32104,001,2025-12-03_21h30.02.828,HW_LDT_1,2024.2.4,MacIntel,59.88023952,,,,,,,,,,,,,,,,,,,,,347.8079,348.007,348.007,348.507,348.5082,349.1068,m,1,0.5878,,[],[],[],[],[],[],[],0.5878,1,349.1069,349.607,0,13,13,4,1,1005,WORD,UN,33,abound,SQUEAK,m,,,,,,,,,,,,,,,,,,,,,,,,,,,,,,,,,,,,,,,,,,,,,,,,,,,,,,,,,,,,,,,,,,
,,,,32104,001,2025-12-03_21h30.02.828,HW_LDT_1,2024.2.4,MacIntel,59.88023952,,,,,,,,,,,,,,,,,,,,,349.6082,349.807,349.807,350.307,350.3077,351.0066,z,1,0.6789,,[],[],[],[],[],[],[],0.6789,1,351.0067,351.507,0,14,14,8,1,1009,NW,"ID",33,aslert,ASLERT,z,,,,,,,,,,,,,,,,,,,,,,,,,,,,,,,,,,,,,,,,,,,,,,,,,,,,,,,,,,,,,,,,,,
,,,,32104,001,2025-12-03_21h30.02.828,HW_LDT_1,2024.2.4,MacIntel,59.88023952,,,,,,,,,,,,,,,,,,,,,351.5081,351.7069,351.707,352.2069,352.2077,352.9069,z,1,0.6886,,[],[],[],[],[],[],[],0.6886,1,352.907,353.407,0,15,15,10,1,1011,NW,"ID",16,inlade,INLADE,z,,,,,,,,,,,,,,,,,,,,,,,,,,,,,,,,,,,,,,,,,,,,,,,,,,,,,,,,,,,,,,,,,,
,,,,32104,001,2025-12-03_21h30.02.828,HW_LDT_1,2024.2.4,MacIntel,59.88023952,,,,,,,,,,,,,,,,1,end_of_practice,"You have completed the practice trials. During the experimental trials, you will not receive feedback. On some trials you will be asked to report whether the item you just saw was in cursive or print. 
Before you begin, please ensure that you are in a comfortable and quiet location and will not be disturbed for about 15 minutes, as we cannot use your data if you do not complete all the trials. 
 When you are ready to start the experimental trials, please press space or touch the button below.",,,,,,,,,,,,,,,,,,,,,,,,,,,,,,,,,,,,353.4142,359.4407,space,6.0112,,-0.061948228,-0.357876812,0,0,0,0,0,0,0,1,,,,,,,,,,,,,,,,,,,,,,,,,,,,,,,,,,,,,,,,,,,,,,,,,,,
,,,,32104,001,2025-12-03_21h30.02.828,HW_LDT_1,2024.2.4,MacIntel,59.88023952,,,,,,,,,,,,,,,,,,,,,359.452,359.64,359.64,360.1415,,,,,,,,,,,,,,1.5186,1,,,,,,,,,,,,,,z,,,,,,,,,,,,,,,,1,0,360.1442,361.6742,z,1,1.5186,,[],[],[],[],[],[],[],361.6745,363.674,363.6743,363.6776,[],[],[],[],[],[],[],,363.6778,363.6795,-0.061948228,-0.357876812,0,0,0,,0,0,0,67,1,1,TL,pocily,cursive,pocily_c.png,,,,,,
,,,,32104,001,2025-12-03_21h30.02.828,HW_LDT_1,2024.2.4,MacIntel,59.88023952,,,,,,,,,,,,,,,,,,,,,363.6805,363.873,363.873,364.3738,,,,,,,,,,,,,,2.0544,1,,,,,,,,,,,,,,z,,,,,,,,,,,,,,,,2,0,364.3742,366.4402,z,1,2.0544,,[],[],[],[],[],[],[],366.4402,368.4404,368.4406,368.4408,[],[],[],[],[],[],[],,368.441,368.441,-0.061948228,-0.357876812,0,0,0,,0,1,1,52,1,1,TL,decilate,cursive,decilate_c.png,,,,,,
,,,,32104,001,2025-12-03_21h30.02.828,HW_LDT_1,2024.2.4,MacIntel,59.88023952,,,,,,,,,,,,,,,,,,,,,368.4421,368.6403,368.6404,369.1404,,,,,,,,,,,,,,0.9145,1,,,,,,,,,,,,,,m,,,,,,,,,,,,,,,,3,0,369.1412,370.0571,m,1,0.9145,,[],[],[],[],[],[],[],370.0572,372.057,372.0571,372.0572,[],[],[],[],[],[],[],,372.0573,372.0574,-0.061948228,-0.357876812,0,0,0,,0,2,2,147,1,1,word,ROMANTIC,cursive,romantic_c.png,,,,,,
,,,,32104,001,2025-12-03_21h30.02.828,HW_LDT_1,2024.2.4,MacIntel,59.88023952,,,,,,,,,,,,,,,,,,,,,372.0584,372.2566,372.2567,372.757,,,,,,,,,,,,,,0.7641,1,,,,,,,,,,,,,,m,,,,,,,,,,,,,,,,4,0,372.7578,373.5237,m,1,0.7641,,[],[],[],[],[],[],[],373.5239,375.5238,375.5239,375.5241,[],[],[],[],[],[],[],,375.5242,375.5244,-0.061948228,-0.357876812,0,0,0,,0,3,3,132,1,1,word,PROPOSAL,cursive,proposal_c.png,,,,,,
,,,,32104,001,2025-12-03_21h30.02.828,HW_LDT_1,2024.2.4,MacIntel,59.88023952,,,,,,,,,,,,,,,,,,,,,375.5257,375.7239,375.724,376.2233,,,,,,,,,,,,,,0.7152,1,,,,,,,,,,,,,,m,,,,,,,,,,,,,,,,5,0,376.2238,376.9405,m,1,0.7152,,[],[],[],[],[],[],[],376.9406,378.9406,378.9407,378.9409,[],[],[],[],[],[],[],,378.941,378.941,-0.061948228,-0.357876812,0,0,0,,0,4,4,155,1,1,word,STRATEGY,cursive,strategy_c.png,,,,,,
,,,,32104,001,2025-12-03_21h30.02.828,HW_LDT_1,2024.2.4,MacIntel,59.88023952,,,,,,,,,,,,,,,,,,,,,378.942,379.1398,379.1398,379.6405,,,,,,,,,,,,,,1.8528,1,,,,,,,,,,,,,,z,,,,,,,,,,,,,,,,6,0,379.6411,381.5071,z,1,1.8528,,[],[],[],[],[],[],[],381.5072,383.5072,383.5075,383.5078,[],[],[],[],[],[],[],,383.5078,383.5081,-0.061948228,-0.357876812,0,0,0,,0,5,5,57,1,1,TL,hetirage,cursive,hetirage_c.png,,,,,,
,,,,32104,001,2025-12-03_21h30.02.828,HW_LDT_1,2024.2.4,MacIntel,59.88023952,,,,,,,,,,,,,,,,,,,,,383.5093,383.7066,383.7066,384.2072,,,,,,,,,,,,,,0.8022,0,,,,,,,,,,,,,,z,,,,,,,,,,,,,,,,7,0,384.2078,385.0233,m,0,0.8022,,[],[],[],[],[],[],[],385.0234,387.0238,387.024,387.0244,[],[],[],[],[],[],[],,387.0244,387.0245,-0.061948228,-0.357876812,0,0,0,,0,6,6,49,1,1,TL,clicinal,cursive,clicinal_c.png,,,,,,
,,,,32104,001,2025-12-03_21h30.02.828,HW_LDT_1,2024.2.4,MacIntel,59.88023952,,,,,,,,,,,,,,,,,,,,,387.0255,387.2238,387.2239,387.7239,,,,,,,,,,,,,,1.2803,1,,,,,,,,,,,,,,z,,,,,,,,,,,,,,,,8,0,387.7243,389.0071,z,1,1.2803,,[],[],[],[],[],[],[],389.0072,391.0072,391.0073,391.0076,[],[],[],[],[],[],[],,391.0077,391.0077,-0.061948228,-0.357876812,0,0,0,,0,7,7,79,1,1,TL,veretan,print,veretan_p.png,,,,,,
,,,,32104,001,2025-12-03_21h30.02.828,HW_LDT_1,2024.2.4,MacIntel,59.88023952,,,,,,,,,,,,,,,,,,,,,391.0087,391.2073,391.2073,391.7072,,,,,,,,,,,,,,0.9071,1,,,,,,,,,,,,,,z,,,,,,,,,,,,,,,,9,0,391.7078,392.624,z,1,0.9071,,[],[],[],[],[],[],[],392.624,394.6241,394.6241,394.6243,[],[],[],[],[],[],[],,394.6243,394.6244,-0.061948228,-0.357876812,0,0,0,,0,8,8,41,1,1,TL,bevoled,print,bevoled_p.png,,,,,,
,,,,32104,001,2025-12-03_21h30.02.828,HW_LDT_1,2024.2.4,MacIntel,59.88023952,,,,,,,,,,,,,,,,,,,,,394.6253,394.8238,394.8238,395.3235,,,,,,,,,,,,,,0.6248,1,,,,,,,,,,,,,,m,,,,,,,,,,,,,,,,10,0,395.3237,395.957,m,1,0.6248,,[],[],[],[],[],[],[],395.9571,397.9565,397.9566,397.9568,[],[],[],[],[],[],[],,397.9569,397.9571,-0.061948228,-0.357876812,0,0,0,,0,9,9,136,1,1,word,RADICAL,print,radical_p.png,,,,,,
,,,,32104,001,2025-12-03_21h30.02.828,HW_LDT_1,2024.2.4,MacIntel,59.88023952,,,,,,,,,,,,,,,,,,,,,397.9582,398.1573,398.1573,398.6566,,,,,,,,,,,,,,0.616,0,,,,,,,,,,,,,,z,,,,,,,,,,,,,,,,11,0,398.657,399.2739,m,0,0.616,,[],[],[],[],[],[],[],399.2741,401.274,401.274,401.2743,[],[],[],[],[],[],[],,401.2744,401.2745,-0.061948228,-0.357876812,0,0,0,,0,10,10,56,1,1,TL,grafetul,print,grafetul_p.png,,,,,,
,,,,32104,001,2025-12-03_21h30.02.828,HW_LDT_1,2024.2.4,MacIntel,59.88023952,,,,,,,,,,,,,,,,,,,,,401.2755,401.4741,401.4741,401.974,,,,,,,,,,,,,,0.6986,1,,,,,,,,,,,,,,m,,,,,,,,,,,,,,,,12,1,401.9745,402.674,m,1,0.6986,,[],[],[],[],[],[],[],402.674,404.674,404.674,407.8741,[],[],[],[],[],[],[],m,407.8742,407.8742,-0.061948228,-0.357876812,0,0,0,,0,11,11,90,1,1,word,CAPITAL,print,capital_p.png,3.1916,,,,,
,,,,32104,001,2025-12-03_21h30.02.828,HW_LDT_1,2024.2.4,MacIntel,59.88023952,,,,,,,,,,,,,,,,,,,,,407.8754,408.074,408.0741,408.5741,,,,,,,,,,,,,,1.2855,1,,,,,,,,,,,,,,z,,,,,,,,,,,,,,,,13,0,408.5746,409.8741,z,1,1.2855,,[],[],[],[],[],[],[],409.8742,411.8741,411.8741,411.8744,[],[],[],[],[],[],[],,411.8744,411.8746,-0.061948228,-0.357876812,0,0,0,,0,12,12,51,1,1,TL,corevage,print,corevage_p.png,,,,,,
,,,,32104,001,2025-12-03_21h30.02.828,HW_LDT_1,2024.2.4,MacIntel,59.88023952,,,,,,,,,,,,,,,,,,,,,411.8756,412.073,412.0731,412.5741,,,,,,,,,,,,,,2.287,1,,,,,,,,,,,,,,z,,,,,,,,,,,,,,,,14,0,412.5746,414.8743,z,1,2.287,,[],[],[],[],[],[],[],414.8743,416.8741,416.8742,416.8745,[],[],[],[],[],[],[],,416.8746,416.8747,-0.061948228,-0.357876812,0,0,0,,0,13,13,47,1,1,TL,cagetory,print,cagetory_p.png,,,,,,
,,,,32104,001,2025-12-03_21h30.02.828,HW_LDT_1,2024.2.4,MacIntel,59.88023952,,,,,,,,,,,,,,,,,,,,,416.8757,417.0741,417.0741,417.5734,,,,,,,,,,,,,,1.1159,0,,,,,,,,,,,,,,m,,,,,,,,,,,,,,,,15,0,417.574,418.6908,z,0,1.1159,,[],[],[],[],[],[],[],418.691,420.6908,420.6909,420.6912,[],[],[],[],[],[],[],,420.6912,420.6913,-0.061948228,-0.357876812,0,0,0,,0,14,14,105,1,1,word,EDITOR,cursive,editor_c.png,,,,,,
,,,,32104,001,2025-12-03_21h30.02.828,HW_LDT_1,2024.2.4,MacIntel,59.88023952,,,,,,,,,,,,,,,,,,,,,420.6922,420.8908,420.8909,421.3899,,,,,,,,,,,,,,1.3394,1,,,,,,,,,,,,,,m,,,,,,,,,,,,,,,,16,0,421.3902,422.7409,m,1,1.3394,,[],[],[],[],[],[],[],422.741,424.7409,424.741,424.7413,[],[],[],[],[],[],[],,424.7413,424.7414,-0.061948228,-0.357876812,0,0,0,,0,15,15,96,1,1,word,CONSIDER,cursive,consider_c.png,,,,,,
,,,,32104,001,2025-12-03_21h30.02.828,HW_LDT_1,2024.2.4,MacIntel,59.88023952,,,,,,,,,,,,,,,,,,,,,424.7425,424.9409,424.9409,425.4407,,,,,,,,,,,,,,0.8365,1,,,,,,,,,,,,,,m,,,,,,,,,,,,,,,,17,0,425.4412,426.29,m,1,0.8365,,[],[],[],[],[],[],[],426.29,428.2909,428.2909,428.2911,[],[],[],[],[],[],[],,428.2912,428.2912,-0.061948228,-0.357876812,0,0,0,,0,16,16,89,1,1,word,CAPACITY,print,capacity_p.png,,,,,,
,,,,32104,001,2025-12-03_21h30.02.828,HW_LDT_1,2024.2.4,MacIntel,59.88023952,,,,,,,,,,,,,,,,,,,,,428.2922,428.4907,428.4908,428.9909,,,,,,,,,,,,,,0.6323,1,,,,,,,,,,,,,,m,,,,,,,,,,,,,,,,18,0,428.9913,429.6243,m,1,0.6323,,[],[],[],[],[],[],[],429.6243,431.6243,431.6244,431.6245,[],[],[],[],[],[],[],,431.6245,431.6246,-0.061948228,-0.357876812,0,0,0,,0,17,17,124,1,1,word,NUMERICAL,print,numerical_p.png,,,,,,
,,,,32104,001,2025-12-03_21h30.02.828,HW_LDT_1,2024.2.4,MacIntel,59.88023952,,,,,,,,,,,,,,,,,,,,,431.6256,431.8241,431.8241,432.3243,,,,,,,,,,,,,,2.1701,0,,,,,,,,,,,,,,m,,,,,,,,,,,,,,,,19,0,432.3248,434.5076,z,0,2.1701,,[],[],[],[],[],[],[],434.5077,436.5079,436.5082,436.5085,[],[],[],[],[],[],[],,436.5085,436.5087,-0.061948228,-0.357876812,0,0,0,,0,18,18,103,1,1,word,DISPUTE,cursive,dispute_c.png,,,,,,
,,,,32104,001,2025-12-03_21h30.02.828,HW_LDT_1,2024.2.4,MacIntel,59.88023952,,,,,,,,,,,,,,,,,,,,,436.5105,436.7089,436.709,437.2076,,,,,,,,,,,,,,0.7534,1,,,,,,,,,,,,,,m,,,,,,,,,,,,,,,,20,0,437.2082,437.9744,m,1,0.7534,,[],[],[],[],[],[],[],437.9744,439.9745,439.9748,439.9752,[],[],[],[],[],[],[],,439.9752,439.9753,-0.061948228,-0.357876812,0,0,0,,0,19,19,94,1,1,word,CLINICAL,cursive,clinical_c.png,,,,,,
,,,,32104,001,2025-12-03_21h30.02.828,HW_LDT_1,2024.2.4,MacIntel,59.88023952,,,,,,,,,,,,,,,,,,,,,439.9772,440.1737,440.1738,440.6742,,,,,,,,,,,,,,0.611,1,,,,,,,,,,,,,,m,,,,,,,,,,,,,,,,21,0,440.6747,441.2906,m,1,0.611,,[],[],[],[],[],[],[],441.2907,443.291,443.2911,443.2912,[],[],[],[],[],[],[],,443.2912,443.2914,-0.061948228,-0.357876812,0,0,0,,0,20,20,92,1,1,word,CATEGORY,print,category_p.png,,,,,,
,,,,32104,001,2025-12-03_21h30.02.828,HW_LDT_1,2024.2.4,MacIntel,59.88023952,,,,,,,,,,,,,,,,,,,,,443.2926,443.491,443.491,443.991,,,,,,,,,,,,,,0.6056,1,,,,,,,,,,,,,,m,,,,,,,,,,,,,,,,22,0,443.9916,444.6076,m,1,0.6056,,[],[],[],[],[],[],[],444.6076,446.6068,446.6069,446.6071,[],[],[],[],[],[],[],,446.6071,446.6071,-0.061948228,-0.357876812,0,0,0,,0,21,21,114,1,1,word,LOCATE,print,locate_p.png,,,,,,
,,,,32104,001,2025-12-03_21h30.02.828,HW_LDT_1,2024.2.4,MacIntel,59.88023952,,,,,,,,,,,,,,,,,,,,,446.608,446.8074,446.8075,447.3077,,,,,,,,,,,,,,0.7475,1,,,,,,,,,,,,,,z,,,,,,,,,,,,,,,,23,0,447.3082,448.0577,z,1,0.7475,,[],[],[],[],[],[],[],448.0577,450.0577,450.0577,450.058,[],[],[],[],[],[],[],,450.0581,450.0582,-0.061948228,-0.357876812,0,0,0,,0,22,22,28,1,1,RL,renutal,print,renutal_p.png,,,,,,
,,,,32104,001,2025-12-03_21h30.02.828,HW_LDT_1,2024.2.4,MacIntel,59.88023952,,,,,,,,,,,,,,,,,,,,,450.0615,450.2576,450.2576,450.7568,,,,,,,,,,,,,,1.0837,1,,,,,,,,,,,,,,m,,,,,,,,,,,,,,,,24,1,450.7607,451.8576,m,1,1.0837,,[],[],[],[],[],[],[],451.8576,453.8578,453.8578,455.7402,[],[],[],[],[],[],[],z,455.7402,455.7403,-0.061948228,-0.357876812,0,0,0,,0,23,23,134,1,1,word,QUALIFY,cursive,qualify_c.png,1.8698,,,,,
,,,,32104,001,2025-12-03_21h30.02.828,HW_LDT_1,2024.2.4,MacIntel,59.88023952,,,,,,,,,,,,,,,,,,,,,455.7425,455.9412,455.9412,456.4408,,,,,,,,,,,,,,1.8365,1,,,,,,,,,,,,,,z,,,,,,,,,,,,,,,,25,0,456.4411,458.2903,z,1,1.8365,,[],[],[],[],[],[],[],458.2903,460.2909,460.291,460.2911,[],[],[],[],[],[],[],,460.2911,460.2912,-0.061948228,-0.357876812,0,0,0,,0,24,24,59,1,1,TL,lirebal,cursive,lirebal_c.png,,,,,,
,,,,32104,001,2025-12-03_21h30.02.828,HW_LDT_1,2024.2.4,MacIntel,59.88023952,,,,,,,,,,,,,,,,,,,,,460.292,460.4912,460.4912,460.991,,,,,,,,,,,,,,1.485,1,,,,,,,,,,,,,,z,,,,,,,,,,,,,,,,26,0,460.9929,462.4912,z,1,1.485,,[],[],[],[],[],[],[],462.4912,464.4911,464.4911,464.4914,[],[],[],[],[],[],[],,464.4915,464.4916,-0.061948228,-0.357876812,0,0,0,,0,25,25,29,1,1,RL,refakive,cursive,refakive_c.png,,,,,,
,,,,32104,001,2025-12-03_21h30.02.828,HW_LDT_1,2024.2.4,MacIntel,59.88023952,,,,,,,,,,,,,,,,,,,,,464.4928,464.6912,464.6912,465.1901,,,,,,,,,,,,,,0.9527,1,,,,,,,,,,,,,,z,,,,,,,,,,,,,,,,27,0,465.1917,466.1578,z,1,0.9527,,[],[],[],[],[],[],[],466.1579,468.1579,468.158,468.1583,[],[],[],[],[],[],[],,468.1583,468.1584,-0.061948228,-0.357876812,0,0,0,,0,26,26,16,1,1,RL,marmipal,print,marmipal_p.png,,,,,,
,,,,32104,001,2025-12-03_21h30.02.828,HW_LDT_1,2024.2.4,MacIntel,59.88023952,,,,,,,,,,,,,,,,,,,,,468.1594,468.3579,468.3579,468.8578,,,,,,,,,,,,,,0.8691,1,,,,,,,,,,,,,,z,,,,,,,,,,,,,,,,28,1,468.8583,469.7413,z,1,0.8691,,[],[],[],[],[],[],[],469.7414,471.7413,471.7413,474.9078,[],[],[],[],[],[],[],z,474.9079,474.908,-0.061948228,-0.357876812,0,0,0,,0,27,27,22,1,1,RL,patisic,print,patisic_p.png,3.1661,,,,,
,,,,32104,001,2025-12-03_21h30.02.828,HW_LDT_1,2024.2.4,MacIntel,59.88023952,,,,,,,,,,,,,,,,,,,,,474.9092,475.108,475.1081,475.6075,,,,,,,,,,,,,,0.8816,1,,,,,,,,,,,,,,z,,,,,,,,,,,,,,,,29,1,475.608,476.4905,z,1,0.8816,,[],[],[],[],[],[],[],476.4907,478.4913,478.4914,479.8747,[],[],[],[],[],[],[],m,479.8748,479.8748,-0.061948228,-0.357876812,0,0,0,,0,28,28,4,1,1,RL,carminal,print,carminal_p.png,1.3829,,,,,
,,,,32104,001,2025-12-03_21h30.02.828,HW_LDT_1,2024.2.4,MacIntel,59.88023952,,,,,,,,,,,,,,,,,,,,,479.8757,480.0745,480.0746,480.5746,,,,,,,,,,,,,,1.4815,1,,,,,,,,,,,,,,m,,,,,,,,,,,,,,,,30,1,480.575,482.0579,m,1,1.4815,,[],[],[],[],[],[],[],482.0579,484.0579,484.0579,485.4246,[],[],[],[],[],[],[],z,485.4248,485.4249,-0.061948228,-0.357876812,0,0,0,,0,29,29,141,1,1,word,RELIGION,cursive,religion_c.png,1.3541,,,,,
,,,,32104,001,2025-12-03_21h30.02.828,HW_LDT_1,2024.2.4,MacIntel,59.88023952,,,,,,,,,,,,,,,,,,,,,485.4259,485.6246,485.6246,486.1236,,,,,,,,,,,,,,1.3032,1,,,,,,,,,,,,,,z,,,,,,,,,,,,,,,,31,0,486.124,487.441,z,1,1.3032,,[],[],[],[],[],[],[],487.4411,489.4408,489.4408,489.441,[],[],[],[],[],[],[],,489.441,489.4412,-0.061948228,-0.357876812,0,0,0,,0,30,30,31,1,1,RL,reconal,cursive,reconal_c.png,,,,,,
,,,,32104,001,2025-12-03_21h30.02.828,HW_LDT_1,2024.2.4,MacIntel,59.88023952,,,,,,,,,,,,,,,,,,,,,489.4424,489.6413,489.6414,490.1408,,,,,,,,,,,,,,1.3368,1,,,,,,,,,,,,,,m,,,,,,,,,,,,,,,,32,0,490.1413,491.4913,m,1,1.3368,,[],[],[],[],[],[],[],491.4914,493.4914,493.4915,493.4916,[],[],[],[],[],[],[],,493.4917,493.4918,-0.061948228,-0.357876812,0,0,0,,0,31,31,83,1,1,word,ANIMAL,print,animal_p.png,,,,,,
,,,,32104,001,2025-12-03_21h30.02.828,HW_LDT_1,2024.2.4,MacIntel,59.88023952,,,,,,,,,,,,,,,,,,,,,493.4927,493.6913,493.6914,494.1906,,,,,,,,,,,,,,1.9206,1,,,,,,,,,,,,,,z,,,,,,,,,,,,,,,,33,1,494.191,496.1243,z,1,1.9206,,[],[],[],[],[],[],[],496.1243,498.1249,498.1249,498.9914,[],[],[],[],[],[],[],z,498.9915,498.9915,-0.061948228,-0.357876812,0,0,0,,0,32,32,77,1,1,TL,tritube,cursive,tritube_c.png,0.8649,,,,,
,,,,32104,001,2025-12-03_21h30.02.828,HW_LDT_1,2024.2.4,MacIntel,59.88023952,,,,,,,,,,,,,,,,,,,,,498.9925,499.1914,499.1914,499.6915,,,,,,,,,,,,,,0.9366,1,,,,,,,,,,,,,,z,,,,,,,,,,,,,,,,34,0,499.692,500.6414,z,1,0.9366,,[],[],[],[],[],[],[],500.6415,502.6415,502.6415,502.6416,[],[],[],[],[],[],[],,502.6417,502.6417,-0.061948228,-0.357876812,0,0,0,,0,33,33,30,1,1,RL,relone,print,relone_p.png,,,,,,
,,,,32104,001,2025-12-03_21h30.02.828,HW_LDT_1,2024.2.4,MacIntel,59.88023952,,,,,,,,,,,,,,,,,,,,,502.6428,502.8406,502.8406,503.3413,,,,,,,,,,,,,,1.0308,1,,,,,,,,,,,,,,m,,,,,,,,,,,,,,,,35,0,503.3418,504.3746,m,1,1.0308,,[],[],[],[],[],[],[],504.3747,506.3748,506.3749,506.375,[],[],[],[],[],[],[],,506.375,506.3751,-0.061948228,-0.357876812,0,0,0,,0,34,34,130,1,1,word,POLICY,cursive,policy_c.png,,,,,,
,,,,32104,001,2025-12-03_21h30.02.828,HW_LDT_1,2024.2.4,MacIntel,59.88023952,,,,,,,,,,,,,,,,,,,,,506.3762,506.5739,506.574,507.0748,,,,,,,,,,,,,,0.8531,1,,,,,,,,,,,,,,m,,,,,,,,,,,,,,,,36,0,507.0752,507.9416,m,1,0.8531,,[],[],[],[],[],[],[],507.9416,509.9415,509.9416,509.9417,[],[],[],[],[],[],[],,509.9417,509.9418,-0.061948228,-0.357876812,0,0,0,,0,35,35,159,1,1,word,VETERAN,print,veteran_p.png,,,,,,
,,,,32104,001,2025-12-03_21h30.02.828,HW_LDT_1,2024.2.4,MacIntel,59.88023952,,,,,,,,,,,,,,,,,,,,,509.9428,510.1414,510.1415,510.6414,,,,,,,,,,,,,,0.787,1,,,,,,,,,,,,,,z,,,,,,,,,,,,,,,,37,0,510.6418,511.4415,z,1,0.787,,[],[],[],[],[],[],[],511.4417,513.4415,513.4416,513.4418,[],[],[],[],[],[],[],,513.4419,513.442,-0.061948228,-0.357876812,0,0,0,,0,36,36,60,1,1,TL,manire,print,manire_p.png,,,,,,
,,,,32104,001,2025-12-03_21h30.02.828,HW_LDT_1,2024.2.4,MacIntel,59.88023952,,,,,,,,,,,,,,,,,,,,,513.4445,513.6415,513.6416,514.1415,,,,,,,,,,,,,,0.6633,1,,,,,,,,,,,,,,m,,,,,,,,,,,,,,,,38,0,514.1432,514.8079,m,1,0.6633,,[],[],[],[],[],[],[],514.808,516.8084,516.8086,516.8087,[],[],[],[],[],[],[],,516.8087,516.8088,-0.061948228,-0.357876812,0,0,0,,0,37,37,131,1,1,word,POPULAR,cursive,popular_c.png,,,,,,
,,,,32104,001,2025-12-03_21h30.02.828,HW_LDT_1,2024.2.4,MacIntel,59.88023952,,,,,,,,,,,,,,,,,,,,,516.8098,517.0082,517.0083,517.5082,,,,,,,,,,,,,,0.771,1,,,,,,,,,,,,,,m,,,,,,,,,,,,,,,,39,1,517.5087,518.2916,m,1,0.771,,[],[],[],[],[],[],[],518.2916,520.2915,520.2917,521.6916,[],[],[],[],[],[],[],z,521.6916,521.6918,-0.061948228,-0.357876812,0,0,0,,0,38,38,127,1,1,word,ORIGINAL,cursive,original_c.png,1.3867,,,,,
,,,,32104,001,2025-12-03_21h30.02.828,HW_LDT_1,2024.2.4,MacIntel,59.88023952,,,,,,,,,,,,,,,,,,,,,521.6926,521.8916,521.8916,522.3916,,,,,,,,,,,,,,1.3697,1,,,,,,,,,,,,,,m,,,,,,,,,,,,,,,,40,0,522.3921,523.7749,m,1,1.3697,,[],[],[],[],[],[],[],523.7749,525.7748,525.7749,525.7751,[],[],[],[],[],[],[],,525.7751,525.7751,-0.061948228,-0.357876812,0,0,0,,0,39,39,95,1,1,word,COMEDY,cursive,comedy_c.png,,,,,,
,,,,32104,001,2025-12-03_21h30.02.828,HW_LDT_1,2024.2.4,MacIntel,59.88023952,,,,,,,,,,,,,,,,,,,,,525.7761,525.975,525.9751,526.475,,,,,,,,,,,,,,0.7527,1,,,,,,,,,,,,,,z,,,,,,,,,,,,,,,,41,0,526.4755,527.241,z,1,0.7527,,[],[],[],[],[],[],[],527.241,529.2415,529.2416,529.2418,[],[],[],[],[],[],[],,529.2419,529.2421,-0.061948228,-0.357876812,0,0,0,,0,40,40,12,1,1,RL,ebiwent,print,ebiwent_p.png,,,,,,
,,,,32104,001,2025-12-03_21h30.02.828,HW_LDT_1,2024.2.4,MacIntel,59.88023952,,,,,,,,,,,,,,,,,,,,,529.2432,529.4417,529.4417,529.9416,,,,,,,,,,,,,,0.6197,1,,,,,,,,,,,,,,m,,,,,,,,,,,,,,,,42,0,529.942,530.575,m,1,0.6197,,[],[],[],[],[],[],[],530.575,532.5749,532.575,532.5752,[],[],[],[],[],[],[],,532.5753,532.5754,-0.061948228,-0.357876812,0,0,0,,0,41,41,118,1,1,word,MEDICINE,cursive,medicine_c.png,,,,,,
,,,,32104,001,2025-12-03_21h30.02.828,HW_LDT_1,2024.2.4,MacIntel,59.88023952,,,,,,,,,,,,,,,,,,,,,532.5765,532.7751,532.7752,533.2746,,,,,,,,,,,,,,0.6369,1,,,,,,,,,,,,,,z,,,,,,,,,,,,,,,,43,0,533.275,533.9238,z,1,0.6369,,[],[],[],[],[],[],[],533.9238,535.9251,535.9252,535.9253,[],[],[],[],[],[],[],,535.9254,535.9255,-0.061948228,-0.357876812,0,0,0,,0,42,42,19,1,1,RL,monebate,print,monebate_p.png,,,,,,
,,,,32104,001,2025-12-03_21h30.02.828,HW_LDT_1,2024.2.4,MacIntel,59.88023952,,,,,,,,,,,,,,,,,,,,,535.9264,536.125,536.1251,536.6247,,,,,,,,,,,,,,0.6027,1,,,,,,,,,,,,,,m,,,,,,,,,,,,,,,,44,0,536.6253,537.2419,m,1,0.6027,,[],[],[],[],[],[],[],537.242,539.2417,539.2417,539.242,[],[],[],[],[],[],[],,539.242,539.2421,-0.061948228,-0.357876812,0,0,0,,0,43,43,82,1,1,word,AMATEUR,print,amateur_p.png,,,,,,
,,,,32104,001,2025-12-03_21h30.02.828,HW_LDT_1,2024.2.4,MacIntel,59.88023952,,,,,,,,,,,,,,,,,,,,,539.2433,539.4419,539.4419,539.9418,,,,,,,,,,,,,,0.8864,0,,,,,,,,,,,,,,z,,,,,,,,,,,,,,,,45,1,539.9423,540.8418,m,0,0.8864,,[],[],[],[],[],[],[],540.8419,542.8417,542.8419,544.2085,[],[],[],[],[],[],[],m,544.2086,544.2087,-0.061948228,-0.357876812,0,0,0,,0,44,44,43,1,1,TL,bedise,print,bedise_p.png,1.3573,,,,,
,,,,32104,001,2025-12-03_21h30.02.828,HW_LDT_1,2024.2.4,MacIntel,59.88023952,,,,,,,,,,,,,,,,,,,,,544.2101,544.4077,544.4077,544.9086,,,,,,,,,,,,,,1.3585,1,,,,,,,,,,,,,,z,,,,,,,,,,,,,,,,46,0,544.909,546.2752,z,1,1.3585,,[],[],[],[],[],[],[],546.2753,548.2751,548.2752,548.2755,[],[],[],[],[],[],[],,548.2756,548.2757,-0.061948228,-0.357876812,0,0,0,,0,45,45,3,1,1,RL,casena,cursive,casena_c.png,,,,,,
,,,,32104,001,2025-12-03_21h30.02.828,HW_LDT_1,2024.2.4,MacIntel,59.88023952,,,,,,,,,,,,,,,,,,,,,548.2768,548.4751,548.4751,548.9752,,,,,,,,,,,,,,0.6641,1,,,,,,,,,,,,,,m,,,,,,,,,,,,,,,,47,0,548.9759,549.6417,m,1,0.6641,,[],[],[],[],[],[],[],549.6418,551.6419,551.6419,551.642,[],[],[],[],[],[],[],,551.6421,551.6421,-0.061948228,-0.357876812,0,0,0,,0,46,46,142,1,1,word,REMOTE,print,remote_p.png,,,,,,
,,,,32104,001,2025-12-03_21h30.02.828,HW_LDT_1,2024.2.4,MacIntel,59.88023952,,,,,,,,,,,,,,,,,,,,,551.6431,551.8418,551.8418,552.3418,,,,,,,,,,,,,,0.7198,1,,,,,,,,,,,,,,m,,,,,,,,,,,,,,,,48,1,552.3423,553.0752,m,1,0.7198,,[],[],[],[],[],[],[],553.0752,555.0752,555.0752,556.6253,[],[],[],[],[],[],[],z,556.6254,556.6254,-0.061948228,-0.357876812,0,0,0,,0,47,47,80,1,1,word,ACADEMY,cursive,academy_c.png,1.537,,,,,
,,,,32104,001,2025-12-03_21h30.02.828,HW_LDT_1,2024.2.4,MacIntel,59.88023952,,,,,,,,,,,,,,,,,,,,,556.6264,556.8251,556.8252,557.3252,,,,,,,,,,,,,,0.8865,1,,,,,,,,,,,,,,m,,,,,,,,,,,,,,,,49,0,557.3257,558.2243,m,1,0.8865,,[],[],[],[],[],[],[],558.2244,560.2253,560.2253,560.2254,[],[],[],[],[],[],[],,560.2255,560.2256,-0.061948228,-0.357876812,0,0,0,,0,48,48,91,1,1,word,CARDINAL,print,cardinal_p.png,,,,,,
,,,,32104,001,2025-12-03_21h30.02.828,HW_LDT_1,2024.2.4,MacIntel,59.88023952,,,,,,,,,,,,,,,,,,,,,560.227,560.4251,560.4251,560.9253,,,,,,,,,,,,,,1.6035,0,,,,,,,,,,,,,,m,,,,,,,,,,,,,,,,50,0,560.9257,562.5414,z,0,1.6035,,[],[],[],[],[],[],[],562.5414,564.5418,564.5418,564.5421,[],[],[],[],[],[],[],,564.5421,564.5422,-0.061948228,-0.357876812,0,0,0,,0,49,49,102,1,1,word,DENSITY,cursive,density_c.png,,,,,,
,,,,32104,001,2025-12-03_21h30.02.828,HW_LDT_1,2024.2.4,MacIntel,59.88023952,,,,,,,,,,,,,,,,,,,,,564.5437,564.742,564.742,565.2419,,,,,,,,,,,,,,1.5194,1,,,,,,,,,,,,,,m,,,,,,,,,,,,,,,,51,0,565.2426,566.7753,m,1,1.5194,,[],[],[],[],[],[],[],566.7754,568.7753,568.7754,568.7756,[],[],[],[],[],[],[],,568.7756,568.7757,-0.061948228,-0.357876812,0,0,0,,0,50,50,154,1,1,word,STORAGE,cursive,storage_c.png,,,,,,
,,,,32104,001,2025-12-03_21h30.02.828,HW_LDT_1,2024.2.4,MacIntel,59.88023952,,,,,,,,,,,,,,,,,,,,,568.7766,568.9752,568.9752,569.4746,,,,,,,,,,,,,,1.1418,1,,,,,,,,,,,,,,m,,,,,,,,,,,,,,,,52,1,569.475,570.6254,m,1,1.1418,,[],[],[],[],[],[],[],570.6255,572.6252,572.6253,574.5087,[],[],[],[],[],[],[],z,574.5087,574.5088,-0.061948228,-0.357876812,0,0,0,,0,51,51,144,1,1,word,RESIDENT,print,resident_p.png,1.8824,,,,,
,,,,32104,001,2025-12-03_21h30.02.828,HW_LDT_1,2024.2.4,MacIntel,59.88023952,,,,,,,,,,,,,,,,,,,,,574.5098,574.7088,574.7088,575.2086,,,,,,,,,,,,,,1.481,1,,,,,,,,,,,,,,z,,,,,,,,,,,,,,,,53,0,575.209,576.6919,z,1,1.481,,[],[],[],[],[],[],[],576.692,578.6916,578.6917,578.6918,[],[],[],[],[],[],[],,578.6919,578.692,-0.061948228,-0.357876812,0,0,0,,0,52,52,44,1,1,TL,cateferia,cursive,cateferia_c.png,,,,,,
,,,,32104,001,2025-12-03_21h30.02.828,HW_LDT_1,2024.2.4,MacIntel,59.88023952,,,,,,,,,,,,,,,,,,,,,578.6932,578.8911,578.8912,579.392,,,,,,,,,,,,,,0.6654,1,,,,,,,,,,,,,,m,,,,,,,,,,,,,,,,54,0,579.3926,580.0586,m,1,0.6654,,[],[],[],[],[],[],[],580.0587,582.0587,582.0587,582.059,[],[],[],[],[],[],[],,582.0591,582.0592,-0.061948228,-0.357876812,0,0,0,,0,53,53,126,1,1,word,OPTIMAL,print,optimal_p.png,,,,,,
,,,,32104,001,2025-12-03_21h30.02.828,HW_LDT_1,2024.2.4,MacIntel,59.88023952,,,,,,,,,,,,,,,,,,,,,582.0601,582.2588,582.2588,582.7588,,,,,,,,,,,,,,0.6705,1,,,,,,,,,,,,,,m,,,,,,,,,,,,,,,,55,0,582.7592,583.442,m,1,0.6705,,[],[],[],[],[],[],[],583.4421,585.442,585.442,585.4421,[],[],[],[],[],[],[],,585.4423,585.4424,-0.061948228,-0.357876812,0,0,0,,0,54,54,100,1,1,word,DECADE,print,decade_p.png,,,,,,
,,,,32104,001,2025-12-03_21h30.02.828,HW_LDT_1,2024.2.4,MacIntel,59.88023952,,,,,,,,,,,,,,,,,,,,,585.4437,585.6421,585.6421,586.1421,,,,,,,,,,,,,,0.6471,1,,,,,,,,,,,,,,m,,,,,,,,,,,,,,,,56,0,586.1428,586.7913,m,1,0.6471,,[],[],[],[],[],[],[],586.7914,588.792,588.7921,588.7922,[],[],[],[],[],[],[],,588.7922,588.7923,-0.061948228,-0.357876812,0,0,0,,0,55,55,84,1,1,word,BELOVED,print,beloved_p.png,,,,,,
,,,,32104,001,2025-12-03_21h30.02.828,HW_LDT_1,2024.2.4,MacIntel,59.88023952,,,,,,,,,,,,,,,,,,,,,588.7934,588.9914,588.9914,589.4921,,,,,,,,,,,,,,0.7221,1,,,,,,,,,,,,,,z,,,,,,,,,,,,,,,,57,0,589.4929,590.2255,z,1,0.7221,,[],[],[],[],[],[],[],590.2255,592.2254,592.2254,592.2256,[],[],[],[],[],[],[],,592.2257,592.2259,-0.061948228,-0.357876812,0,0,0,,0,56,56,7,1,1,RL,delahe,print,delahe_p.png,,,,,,
,,,,32104,001,2025-12-03_21h30.02.828,HW_LDT_1,2024.2.4,MacIntel,59.88023952,,,,,,,,,,,,,,,,,,,,,592.2269,592.4255,592.4256,592.9253,,,,,,,,,,,,,,0.5691,1,,,,,,,,,,,,,,m,,,,,,,,,,,,,,,,58,0,592.9258,593.5088,m,1,0.5691,,[],[],[],[],[],[],[],593.5089,595.5077,595.5078,595.5079,[],[],[],[],[],[],[],,595.508,595.508,-0.061948228,-0.357876812,0,0,0,,0,57,57,123,1,1,word,MODERATE,print,moderate_p.png,,,,,,
,,,,32104,001,2025-12-03_21h30.02.828,HW_LDT_1,2024.2.4,MacIntel,59.88023952,,,,,,,,,,,,,,,,,,,,,595.509,595.7089,595.7089,596.2081,,,,,,,,,,,,,,0.7996,1,,,,,,,,,,,,,,m,,,,,,,,,,,,,,,,59,0,596.2086,597.0087,m,1,0.7996,,[],[],[],[],[],[],[],597.0089,599.0088,599.009,599.0092,[],[],[],[],[],[],[],,599.0092,599.0093,-0.061948228,-0.357876812,0,0,0,,0,58,58,122,1,1,word,MOBILE,cursive,mobile_c.png,,,,,,
,,,,32104,001,2025-12-03_21h30.02.828,HW_LDT_1,2024.2.4,MacIntel,59.88023952,,,,,,,,,,,,,,,,,,,,,599.0102,599.2088,599.2088,599.7089,,,,,,,,,,,,,,0.8025,1,,,,,,,,,,,,,,z,,,,,,,,,,,,,,,,60,1,599.7094,600.5256,z,1,0.8025,,[],[],[],[],[],[],[],600.5257,602.5254,602.5256,606.3246,[],[],[],[],[],[],[],z,606.3246,606.3247,-0.061948228,-0.357876812,0,0,0,,0,59,59,70,1,1,TL,relugar,print,relugar_p.png,3.7891,,,,,
,,,,32104,001,2025-12-03_21h30.02.828,HW_LDT_1,2024.2.4,MacIntel,59.88023952,,,,,,,,,,,,,,,,,,,,,606.3257,606.5243,606.5243,607.0252,,,,,,,,,,,,,,2.0722,1,,,,,,,,,,,,,,m,,,,,,,,,,,,,,,,61,0,607.0254,609.1088,m,1,2.0722,,[],[],[],[],[],[],[],609.1088,611.1079,611.1079,611.1081,[],[],[],[],[],[],[],,611.1082,611.1082,-0.061948228,-0.357876812,0,0,0,,0,60,60,116,1,1,word,MARGINAL,print,marginal_p.png,,,,,,
,,,,32104,001,2025-12-03_21h30.02.828,HW_LDT_1,2024.2.4,MacIntel,59.88023952,,,,,,,,,,,,,,,,,,,,,611.1091,611.3089,611.3089,611.8089,,,,,,,,,,,,,,0.7235,0,,,,,,,,,,,,,,z,,,,,,,,,,,,,,,,62,1,611.8094,612.5423,m,0,0.7235,,[],[],[],[],[],[],[],612.5423,614.5422,614.5423,616.2256,[],[],[],[],[],[],[],z,616.2256,616.2256,-0.061948228,-0.357876812,0,0,0,,0,61,61,66,1,1,TL,panert,cursive,panert_c.png,1.6817,,,,,
,,,,32104,001,2025-12-03_21h30.02.828,HW_LDT_1,2024.2.4,MacIntel,59.88023952,,,,,,,,,,,,,,,,,,,,,616.2264,616.4255,616.4256,616.9257,,,,,,,,,,,,,,2.4814,0,,,,,,,,,,,,,,m,,,,,,,,,,,,,,,,63,0,616.9261,619.409,z,0,2.4814,,[],[],[],[],[],[],[],619.4091,621.409,621.4091,621.4093,[],[],[],[],[],[],[],,621.4094,621.4094,-0.061948228,-0.357876812,0,0,0,,0,62,62,111,1,1,word,INDICATE,cursive,indicate_c.png,,,,,,
,,,,32104,001,2025-12-03_21h30.02.828,HW_LDT_1,2024.2.4,MacIntel,59.88023952,,,,,,,,,,,,,,,,,,,,,621.4105,621.6091,621.6091,622.109,,,,,,,,,,,,,,1.0859,1,,,,,,,,,,,,,,m,,,,,,,,,,,,,,,,64,0,622.1093,623.2091,m,1,1.0859,,[],[],[],[],[],[],[],623.2092,625.209,625.2091,625.2093,[],[],[],[],[],[],[],,625.2093,625.2093,-0.061948228,-0.357876812,0,0,0,,0,63,63,97,1,1,word,COVERAGE,print,coverage_p.png,,,,,,
,,,,32104,001,2025-12-03_21h30.02.828,HW_LDT_1,2024.2.4,MacIntel,59.88023952,,,,,,,,,,,,,,,,,,,,,625.2104,625.4089,625.409,625.908,,,,,,,,,,,,,,2.2865,0,,,,,,,,,,,,,,m,,,,,,,,,,,,,,,,65,0,625.9086,628.2085,z,0,2.2865,,[],[],[],[],[],[],[],628.2086,630.2092,630.2092,630.2093,[],[],[],[],[],[],[],,630.2093,630.2094,-0.061948228,-0.357876812,0,0,0,,0,64,64,125,1,1,word,OPERATOR,cursive,operator_c.png,,,,,,
,,,,32104,001,2025-12-03_21h30.02.828,HW_LDT_1,2024.2.4,MacIntel,59.88023952,,,,,,,,,,,,,,,,,,,,,630.2104,630.409,630.4091,630.9091,,,,,,,,,,,,,,1.9689,1,,,,,,,,,,,,,,z,,,,,,,,,,,,,,,,66,0,630.9097,632.8924,z,1,1.9689,,[],[],[],[],[],[],[],632.8925,634.8925,634.8926,634.8928,[],[],[],[],[],[],[],,634.8928,634.8928,-0.061948228,-0.357876812,0,0,0,,0,65,65,64,1,1,TL,orepator,cursive,orepator_c.png,,,,,,
,,,,32104,001,2025-12-03_21h30.02.828,HW_LDT_1,2024.2.4,MacIntel,59.88023952,,,,,,,,,,,,,,,,,,,,,634.8937,635.0925,635.0926,635.5914,,,,,,,,,,,,,,1.115,1,,,,,,,,,,,,,,z,,,,,,,,,,,,,,,,67,0,635.5919,636.7082,z,1,1.115,,[],[],[],[],[],[],[],636.7083,638.7092,638.7093,638.7094,[],[],[],[],[],[],[],,638.7094,638.7095,-0.061948228,-0.357876812,0,0,0,,0,66,66,45,1,1,TL,cacapity,print,cacapity_p.png,,,,,,
,,,,32104,001,2025-12-03_21h30.02.828,HW_LDT_1,2024.2.4,MacIntel,59.88023952,,,,,,,,,,,,,,,,,,,,,638.7105,638.9087,638.9087,639.4092,,,,,,,,,,,,,,1.302,1,,,,,,,,,,,,,,z,,,,,,,,,,,,,,,,68,0,639.4099,640.7258,z,1,1.302,,[],[],[],[],[],[],[],640.7258,642.726,642.7261,642.7262,[],[],[],[],[],[],[],,642.7262,642.7263,-0.061948228,-0.357876812,0,0,0,,0,67,67,21,1,1,RL,opcifal,print,opcifal_p.png,,,,,,
,,,,32104,001,2025-12-03_21h30.02.828,HW_LDT_1,2024.2.4,MacIntel,59.88023952,,,,,,,,,,,,,,,,,,,,,642.7273,642.9258,642.9259,643.426,,,,,,,,,,,,,,0.8477,1,,,,,,,,,,,,,,z,,,,,,,,,,,,,,,,69,0,643.4264,644.2758,z,1,0.8477,,[],[],[],[],[],[],[],644.2759,646.2749,646.2749,646.275,[],[],[],[],[],[],[],,646.275,646.2751,-0.061948228,-0.357876812,0,0,0,,0,68,68,40,1,1,TL,atameur,print,atameur_p.png,,,,,,
,,,,32104,001,2025-12-03_21h30.02.828,HW_LDT_1,2024.2.4,MacIntel,59.88023952,,,,,,,,,,,,,,,,,,,,,646.276,646.4752,646.4753,646.9749,,,,,,,,,,,,,,1.2576,1,,,,,,,,,,,,,,z,,,,,,,,,,,,,,,,70,0,646.9752,648.2425,z,1,1.2576,,[],[],[],[],[],[],[],648.2427,650.2427,650.2427,650.2429,[],[],[],[],[],[],[],,650.243,650.2431,-0.061948228,-0.357876812,0,0,0,,0,69,69,17,1,1,RL,menowy,cursive,menowy_c.png,,,,,,
,,,,32104,001,2025-12-03_21h30.02.828,HW_LDT_1,2024.2.4,MacIntel,59.88023952,,,,,,,,,,,,,,,,,,,,,650.2442,650.4425,650.4426,650.9426,,,,,,,,,,,,,,1.1148,1,,,,,,,,,,,,,,m,,,,,,,,,,,,,,,,71,0,650.9431,652.0593,m,1,1.1148,,[],[],[],[],[],[],[],652.0594,654.0593,654.0593,654.0595,[],[],[],[],[],[],[],,654.0595,654.0596,-0.061948228,-0.357876812,0,0,0,,0,70,70,135,1,1,word,QUALITY,cursive,quality_c.png,,,,,,
,,,,32104,001,2025-12-03_21h30.02.828,HW_LDT_1,2024.2.4,MacIntel,59.88023952,,,,,,,,,,,,,,,,,,,,,654.0608,654.2593,654.2594,654.7593,,,,,,,,,,,,,,3.3651,1,,,,,,,,,,,,,,z,,,,,,,,,,,,,,,,72,0,654.7599,658.126,z,1,3.3651,,[],[],[],[],[],[],[],658.1262,660.1261,660.1261,660.1262,[],[],[],[],[],[],[],,660.1263,660.1265,-0.061948228,-0.357876812,0,0,0,,0,71,71,65,1,1,TL,orinigal,cursive,orinigal_c.png,,,,,,
,,,,32104,001,2025-12-03_21h30.02.828,HW_LDT_1,2024.2.4,MacIntel,59.88023952,,,,,,,,,,,,,,,,,,,,,660.1275,660.3261,660.3261,660.8254,,,,,,,,,,,,,,0.8087,1,,,,,,,,,,,,,,m,,,,,,,,,,,,,,,,73,0,660.8258,661.6426,m,1,0.8087,,[],[],[],[],[],[],[],661.6428,663.6424,663.6424,663.6426,[],[],[],[],[],[],[],,663.6426,663.6426,-0.061948228,-0.357876812,0,0,0,,0,72,72,109,1,1,word,GRATEFUL,print,grateful_p.png,,,,,,
,,,,32104,001,2025-12-03_21h30.02.828,HW_LDT_1,2024.2.4,MacIntel,59.88023952,,,,,,,,,,,,,,,,,,,,,663.6435,663.8428,663.8428,664.342,,,,,,,,,,,,,,0.7037,1,,,,,,,,,,,,,,z,,,,,,,,,,,,,,,,74,0,664.3425,665.0594,z,1,0.7037,,[],[],[],[],[],[],[],665.0595,667.0594,667.0595,667.0596,[],[],[],[],[],[],[],,667.0597,667.0597,-0.061948228,-0.357876812,0,0,0,,0,73,73,37,1,1,RL,skofen,print,skofen_p.png,,,,,,
,,,,32104,001,2025-12-03_21h30.02.828,HW_LDT_1,2024.2.4,MacIntel,59.88023952,,,,,,,,,,,,,,,,,,,,,667.0606,667.2594,667.2595,667.7587,,,,,,,,,,,,,,0.6702,1,,,,,,,,,,,,,,m,,,,,,,,,,,,,,,,75,0,667.7592,668.4428,m,1,0.6702,,[],[],[],[],[],[],[],668.4429,670.4428,670.4428,670.443,[],[],[],[],[],[],[],,670.443,670.4431,-0.061948228,-0.357876812,0,0,0,,0,74,74,158,1,1,word,VELOCITY,print,velocity_p.png,,,,,,
,,,,32104,001,2025-12-03_21h30.02.828,HW_LDT_1,2024.2.4,MacIntel,59.88023952,,,,,,,,,,,,,,,,,,,,,670.4441,670.6427,670.6427,671.1428,,,,,,,,,,,,,,0.6492,1,,,,,,,,,,,,,,m,,,,,,,,,,,,,,,,76,0,671.1431,671.7928,m,1,0.6492,,[],[],[],[],[],[],[],671.7929,673.7928,673.7929,673.793,[],[],[],[],[],[],[],,673.7931,673.7932,-0.061948228,-0.357876812,0,0,0,,0,75,75,98,1,1,word,CRIMINAL,print,criminal_p.png,,,,,,
,,,,32104,001,2025-12-03_21h30.02.828,HW_LDT_1,2024.2.4,MacIntel,59.88023952,,,,,,,,,,,,,,,,,,,,,673.794,673.9928,673.9929,674.4927,,,,,,,,,,,,,,0.8487,1,,,,,,,,,,,,,,z,,,,,,,,,,,,,,,,77,0,674.4932,675.3429,z,1,0.8487,,[],[],[],[],[],[],[],675.343,677.3428,677.3429,677.343,[],[],[],[],[],[],[],,677.343,677.3431,-0.061948228,-0.357876812,0,0,0,,0,76,76,23,1,1,RL,potugar,cursive,potugar_c.png,,,,,,
,,,,32104,001,2025-12-03_21h30.02.828,HW_LDT_1,2024.2.4,MacIntel,59.88023952,,,,,,,,,,,,,,,,,,,,,677.3439,677.5427,677.5428,678.0429,,,,,,,,,,,,,,2.0699,1,,,,,,,,,,,,,,m,,,,,,,,,,,,,,,,78,0,678.0434,680.1262,m,1,2.0699,,[],[],[],[],[],[],[],680.1263,682.1252,682.1252,682.1253,[],[],[],[],[],[],[],,682.1253,682.1254,-0.061948228,-0.357876812,0,0,0,,0,77,77,81,1,1,word,ADVISORY,cursive,advisory_c.png,,,,,,
,,,,32104,001,2025-12-03_21h30.02.828,HW_LDT_1,2024.2.4,MacIntel,59.88023952,,,,,,,,,,,,,,,,,,,,,682.1262,682.3252,682.3252,682.8262,,,,,,,,,,,,,,0.6151,1,,,,,,,,,,,,,,m,,,,,,,,,,,,,,,,79,0,682.8265,683.4428,m,1,0.6151,,[],[],[],[],[],[],[],683.4429,685.4429,685.443,685.443,[],[],[],[],[],[],[],,685.4431,685.4432,-0.061948228,-0.357876812,0,0,0,,0,78,78,117,1,1,word,MARINE,print,marine_p.png,,,,,,
,,,,32104,001,2025-12-03_21h30.02.828,HW_LDT_1,2024.2.4,MacIntel,59.88023952,,,,,,,,,,,,,,,,,,,,,685.4441,685.6429,685.6429,686.1428,,,,,,,,,,,,,,0.599,1,,,,,,,,,,,,,,m,,,,,,,,,,,,,,,,80,1,686.1432,686.7428,m,1,0.599,,[],[],[],[],[],[],[],686.7429,688.742,688.7421,690.393,[],[],[],[],[],[],[],m,690.3931,703.9432,-0.061948228,-0.357876812,0,0,0,space,0,79,79,153,1,1,word,STOLEN,print,stolen_p.png,1.6395,,13.523,,,
,,,,32104,001,2025-12-03_21h30.02.828,HW_LDT_1,2024.2.4,MacIntel,59.88023952,,,,,,,,,,,,,,,,,,,,,703.9441,704.143,704.1431,704.6427,,,,,,,,,,,,,,1.3075,1,,,,,,,,,,,,,,z,,,,,,,,,,,,,,,,81,0,704.6431,705.9598,z,1,1.3075,,[],[],[],[],[],[],[],705.9598,707.9597,707.9598,707.96,[],[],[],[],[],[],[],,707.96,707.9601,-0.061948228,-0.357876812,0,0,0,,0,80,80,54,1,1,TL,distupe,cursive,distupe_c.png,,,,,,
,,,,32104,001,2025-12-03_21h30.02.828,HW_LDT_1,2024.2.4,MacIntel,59.88023952,,,,,,,,,,,,,,,,,,,,,707.9609,708.1598,708.1598,708.6597,,,,,,,,,,,,,,2.6225,1,,,,,,,,,,,,,,z,,,,,,,,,,,,,,,,82,0,708.6603,711.2928,z,1,2.6225,,[],[],[],[],[],[],[],711.2929,713.2924,713.2925,713.2926,[],[],[],[],[],[],[],,713.2927,713.2927,-0.061948228,-0.357876812,0,0,0,,0,81,81,72,1,1,TL,remuse,print,remuse_p.png,,,,,,
,,,,32104,001,2025-12-03_21h30.02.828,HW_LDT_1,2024.2.4,MacIntel,59.88023952,,,,,,,,,,,,,,,,,,,,,713.2938,713.4933,713.4933,713.9932,,,,,,,,,,,,,,0.9318,1,,,,,,,,,,,,,,z,,,,,,,,,,,,,,,,83,0,713.9935,714.9265,z,1,0.9318,,[],[],[],[],[],[],[],714.9266,716.9266,716.9266,716.9268,[],[],[],[],[],[],[],,716.9268,716.9268,-0.061948228,-0.357876812,0,0,0,,0,82,82,42,1,1,TL,befenit,print,befenit_p.png,,,,,,
,,,,32104,001,2025-12-03_21h30.02.828,HW_LDT_1,2024.2.4,MacIntel,59.88023952,,,,,,,,,,,,,,,,,,,,,716.928,717.1267,717.1268,717.6264,,,,,,,,,,,,,,1.2054,1,,,,,,,,,,,,,,m,,,,,,,,,,,,,,,,84,0,717.6269,718.8432,m,1,1.2054,,[],[],[],[],[],[],[],718.8432,720.8432,720.8432,720.8433,[],[],[],[],[],[],[],,720.8434,720.8434,-0.061948228,-0.357876812,0,0,0,,0,83,83,137,1,1,word,RAPIDLY,cursive,rapidly_c.png,,,,,,
,,,,32104,001,2025-12-03_21h30.02.828,HW_LDT_1,2024.2.4,MacIntel,59.88023952,,,,,,,,,,,,,,,,,,,,,720.8443,721.0431,721.0431,721.5432,,,,,,,,,,,,,,0.8143,1,,,,,,,,,,,,,,m,,,,,,,,,,,,,,,,85,0,721.5435,722.3597,m,1,0.8143,,[],[],[],[],[],[],[],722.3598,724.3599,724.3599,724.3601,[],[],[],[],[],[],[],,724.3602,724.3602,-0.061948228,-0.357876812,0,0,0,,0,84,84,145,1,1,word,RESUME,print,resume_p.png,,,,,,
,,,,32104,001,2025-12-03_21h30.02.828,HW_LDT_1,2024.2.4,MacIntel,59.88023952,,,,,,,,,,,,,,,,,,,,,724.3616,724.5591,724.5591,725.0589,,,,,,,,,,,,,,1.0218,1,,,,,,,,,,,,,,z,,,,,,,,,,,,,,,,86,0,725.0593,726.0933,z,1,1.0218,,[],[],[],[],[],[],[],726.0933,728.0932,728.0933,728.0935,[],[],[],[],[],[],[],,728.0935,728.0936,-0.061948228,-0.357876812,0,0,0,,0,85,85,46,1,1,TL,catipal,print,catipal_p.png,,,,,,
,,,,32104,001,2025-12-03_21h30.02.828,HW_LDT_1,2024.2.4,MacIntel,59.88023952,,,,,,,,,,,,,,,,,,,,,728.0946,728.2923,728.2924,728.7932,,,,,,,,,,,,,,0.8034,1,,,,,,,,,,,,,,m,,,,,,,,,,,,,,,,87,0,728.7937,729.609,m,1,0.8034,,[],[],[],[],[],[],[],729.6091,731.6099,731.6099,731.6102,[],[],[],[],[],[],[],,731.6102,731.6103,-0.061948228,-0.357876812,0,0,0,,0,86,86,108,1,1,word,FORTUNE,print,fortune_p.png,,,,,,
,,,,32104,001,2025-12-03_21h30.02.828,HW_LDT_1,2024.2.4,MacIntel,59.88023952,,,,,,,,,,,,,,,,,,,,,731.6112,731.81,731.8101,732.3099,,,,,,,,,,,,,,1.031,1,,,,,,,,,,,,,,m,,,,,,,,,,,,,,,,88,0,732.3104,733.3432,m,1,1.031,,[],[],[],[],[],[],[],733.3432,735.3432,735.3432,735.3433,[],[],[],[],[],[],[],,735.3434,735.3434,-0.061948228,-0.357876812,0,0,0,,0,87,87,104,1,1,word,DOMINANT,cursive,dominant_c.png,,,,,,
,,,,32104,001,2025-12-03_21h30.02.828,HW_LDT_1,2024.2.4,MacIntel,59.88023952,,,,,,,,,,,,,,,,,,,,,735.3442,735.5435,735.5435,736.0431,,,,,,,,,,,,,,0.6409,1,,,,,,,,,,,,,,m,,,,,,,,,,,,,,,,89,0,736.0435,736.6924,m,1,0.6409,,[],[],[],[],[],[],[],736.6925,738.6932,738.6932,738.6934,[],[],[],[],[],[],[],,738.6934,738.6935,-0.061948228,-0.357876812,0,0,0,,0,88,88,148,1,1,word,SALINE,print,saline_p.png,,,,,,
,,,,32104,001,2025-12-03_21h30.02.828,HW_LDT_1,2024.2.4,MacIntel,59.88023952,,,,,,,,,,,,,,,,,,,,,738.6945,738.8934,738.8934,739.3934,,,,,,,,,,,,,,1.3811,1,,,,,,,,,,,,,,z,,,,,,,,,,,,,,,,90,0,739.3938,740.7757,z,1,1.3811,,[],[],[],[],[],[],[],740.7757,742.7766,742.7767,742.7769,[],[],[],[],[],[],[],,742.777,742.7771,-0.061948228,-0.357876812,0,0,0,,0,89,89,58,1,1,TL,incidate,cursive,incidate_c.png,,,,,,
,,,,32104,001,2025-12-03_21h30.02.828,HW_LDT_1,2024.2.4,MacIntel,59.88023952,,,,,,,,,,,,,,,,,,,,,742.7782,742.9768,742.9769,743.4759,,,,,,,,,,,,,,0.8587,1,,,,,,,,,,,,,,z,,,,,,,,,,,,,,,,91,0,743.4764,744.3434,z,1,0.8587,,[],[],[],[],[],[],[],744.3435,746.3434,746.3435,746.3436,[],[],[],[],[],[],[],,746.3436,746.3438,-0.061948228,-0.357876812,0,0,0,,0,90,90,62,1,1,TL,mitilary,print,mitilary_p.png,,,,,,
,,,,32104,001,2025-12-03_21h30.02.828,HW_LDT_1,2024.2.4,MacIntel,59.88023952,,,,,,,,,,,,,,,,,,,,,746.3447,746.5425,746.5426,747.0434,,,,,,,,,,,,,,1.0313,1,,,,,,,,,,,,,,z,,,,,,,,,,,,,,,,92,1,747.044,748.0767,z,1,1.0313,,[],[],[],[],[],[],[],748.0768,750.0757,750.0757,752.6761,[],[],[],[],[],[],[],m,752.6762,752.6764,-0.061948228,-0.357876812,0,0,0,,0,91,91,2,1,1,RL,asiral,print,asiral_p.png,2.591,,,,,
,,,,32104,001,2025-12-03_21h30.02.828,HW_LDT_1,2024.2.4,MacIntel,59.88023952,,,,,,,,,,,,,,,,,,,,,752.6774,752.8767,752.8768,753.3769,,,,,,,,,,,,,,0.7146,1,,,,,,,,,,,,,,z,,,,,,,,,,,,,,,,93,1,753.3774,754.0934,z,1,0.7146,,[],[],[],[],[],[],[],754.0934,756.0935,756.0936,757.5268,[],[],[],[],[],[],[],m,757.5269,757.527,-0.061948228,-0.357876812,0,0,0,,0,92,92,14,1,1,RL,lofase,print,lofase_p.png,1.4327,,,,,
,,,,32104,001,2025-12-03_21h30.02.828,HW_LDT_1,2024.2.4,MacIntel,59.88023952,,,,,,,,,,,,,,,,,,,,,757.529,757.7269,757.7269,758.2268,,,,,,,,,,,,,,0.7987,1,,,,,,,,,,,,,,m,,,,,,,,,,,,,,,,94,0,758.2272,759.0267,m,1,0.7987,,[],[],[],[],[],[],[],759.0267,761.0267,761.0267,761.027,[],[],[],[],[],[],[],,761.027,761.0271,-0.061948228,-0.357876812,0,0,0,,0,93,93,129,1,1,word,PARENT,cursive,parent_c.png,,,,,,
,,,,32104,001,2025-12-03_21h30.02.828,HW_LDT_1,2024.2.4,MacIntel,59.88023952,,,,,,,,,,,,,,,,,,,,,761.0284,761.2268,761.2269,761.7268,,,,,,,,,,,,,,0.9696,1,,,,,,,,,,,,,,m,,,,,,,,,,,,,,,,95,0,761.7272,762.7097,m,1,0.9696,,[],[],[],[],[],[],[],762.7098,764.7102,764.7102,764.7103,[],[],[],[],[],[],[],,764.7104,764.7104,-0.061948228,-0.357876812,0,0,0,,0,94,94,139,1,1,word,REGULAR,print,regular_p.png,,,,,,
,,,,32104,001,2025-12-03_21h30.02.828,HW_LDT_1,2024.2.4,MacIntel,59.88023952,,,,,,,,,,,,,,,,,,,,,764.7114,764.91,764.9101,765.4101,,,,,,,,,,,,,,0.6532,0,,,,,,,,,,,,,,m,,,,,,,,,,,,,,,,96,0,765.4107,766.0768,z,0,0.6532,,[],[],[],[],[],[],[],766.0769,768.077,768.077,768.0772,[],[],[],[],[],[],[],,768.0773,768.0774,-0.061948228,-0.357876812,0,0,0,,0,95,95,138,1,1,word,REFUSAL,print,refusal_p.png,,,,,,
,,,,32104,001,2025-12-03_21h30.02.828,HW_LDT_1,2024.2.4,MacIntel,59.88023952,,,,,,,,,,,,,,,,,,,,,768.0784,768.2766,768.2766,768.7769,,,,,,,,,,,,,,1.0319,1,,,,,,,,,,,,,,z,,,,,,,,,,,,,,,,97,0,768.7773,769.8102,z,1,1.0319,,[],[],[],[],[],[],[],769.8102,771.8103,771.8103,771.8104,[],[],[],[],[],[],[],,771.8105,771.8105,-0.061948228,-0.357876812,0,0,0,,0,96,96,63,1,1,TL,molibe,cursive,molibe_c.png,,,,,,
,,,,32104,001,2025-12-03_21h30.02.828,HW_LDT_1,2024.2.4,MacIntel,59.88023952,,,,,,,,,,,,,,,,,,,,,771.8115,772.0101,772.0101,772.5103,,,,,,,,,,,,,,1.9543,1,,,,,,,,,,,,,,z,,,,,,,,,,,,,,,,98,0,772.5107,774.4769,z,1,1.9543,,[],[],[],[],[],[],[],774.477,776.4768,776.4768,776.4769,[],[],[],[],[],[],[],,776.477,776.4771,-0.061948228,-0.357876812,0,0,0,,0,97,97,9,1,1,RL,docirant,cursive,docirant_c.png,,,,,,
,,,,32104,001,2025-12-03_21h30.02.828,HW_LDT_1,2024.2.4,MacIntel,59.88023952,,,,,,,,,,,,,,,,,,,,,776.478,776.6769,776.677,777.177,,,,,,,,,,,,,,2.0478,1,,,,,,,,,,,,,,z,,,,,,,,,,,,,,,,99,0,777.1775,779.2269,z,1,2.0478,,[],[],[],[],[],[],[],779.2269,781.2269,781.227,781.2272,[],[],[],[],[],[],[],,781.2272,781.2274,-0.061948228,-0.357876812,0,0,0,,0,98,98,26,1,1,RL,quafidy,cursive,quafidy_c.png,,,,,,
,,,,32104,001,2025-12-03_21h30.02.828,HW_LDT_1,2024.2.4,MacIntel,59.88023952,,,,,,,,,,,,,,,,,,,,,781.2284,781.4269,781.427,781.9263,,,,,,,,,,,,,,1.2206,0,,,,,,,,,,,,,,z,,,,,,,,,,,,,,,,100,1,781.9267,783.1596,m,0,1.2206,,[],[],[],[],[],[],[],783.1596,785.1603,785.1603,788.0937,[],[],[],[],[],[],[],m,788.0938,788.0939,-0.061948228,-0.357876812,0,0,0,,0,99,99,33,1,1,RL,recile,cursive,recile_c.png,2.9209,,,,,
,,,,32104,001,2025-12-03_21h30.02.828,HW_LDT_1,2024.2.4,MacIntel,59.88023952,,,,,,,,,,,,,,,,,,,,,788.0947,788.2937,788.2938,788.7937,,,,,,,,,,,,,,2.8362,1,,,,,,,,,,,,,,z,,,,,,,,,,,,,,,,101,0,788.7943,791.6438,z,1,2.8362,,[],[],[],[],[],[],[],791.6439,793.6436,793.6437,793.6439,[],[],[],[],[],[],[],,793.644,793.644,-0.061948228,-0.357876812,0,0,0,,0,100,100,50,1,1,TL,condiser,cursive,condiser_c.png,,,,,,
,,,,32104,001,2025-12-03_21h30.02.828,HW_LDT_1,2024.2.4,MacIntel,59.88023952,,,,,,,,,,,,,,,,,,,,,793.6449,793.8436,793.8436,794.3436,,,,,,,,,,,,,,2.1711,1,,,,,,,,,,,,,,z,,,,,,,,,,,,,,,,102,0,794.3439,796.527,z,1,2.1711,,[],[],[],[],[],[],[],796.5271,798.527,798.527,798.5272,[],[],[],[],[],[],[],,798.5273,798.5275,-0.061948228,-0.357876812,0,0,0,,0,101,101,53,1,1,TL,dentisy,cursive,dentisy_c.png,,,,,,
,,,,32104,001,2025-12-03_21h30.02.828,HW_LDT_1,2024.2.4,MacIntel,59.88023952,,,,,,,,,,,,,,,,,,,,,798.5286,798.727,798.727,799.2272,,,,,,,,,,,,,,1.3549,0,,,,,,,,,,,,,,m,,,,,,,,,,,,,,,,103,1,799.2275,800.5937,z,0,1.3549,,[],[],[],[],[],[],[],800.5938,802.5937,802.5938,803.7603,[],[],[],[],[],[],[],z,803.7604,803.7606,-0.061948228,-0.357876812,0,0,0,,0,102,102,151,1,1,word,SPECIFIC,cursive,specific_c.png,1.1661,,,,,
,,,,32104,001,2025-12-03_21h30.02.828,HW_LDT_1,2024.2.4,MacIntel,59.88023952,,,,,,,,,,,,,,,,,,,,,803.7613,803.9605,803.9605,804.4594,,,,,,,,,,,,,,2.0867,1,,,,,,,,,,,,,,m,,,,,,,,,,,,,,,,104,0,804.4609,806.5604,m,1,2.0867,,[],[],[],[],[],[],[],806.5604,808.5604,808.5604,808.5607,[],[],[],[],[],[],[],,808.5607,808.5607,-0.061948228,-0.357876812,0,0,0,,0,103,103,143,1,1,word,REMOVAL,cursive,removal_c.png,,,,,,
,,,,32104,001,2025-12-03_21h30.02.828,HW_LDT_1,2024.2.4,MacIntel,59.88023952,,,,,,,,,,,,,,,,,,,,,808.5618,808.7605,808.7606,809.2605,,,,,,,,,,,,,,0.7728,1,,,,,,,,,,,,,,z,,,,,,,,,,,,,,,,105,0,809.261,810.0438,z,1,0.7728,,[],[],[],[],[],[],[],810.0439,812.0433,812.0433,812.0435,[],[],[],[],[],[],[],,812.0436,812.0437,-0.061948228,-0.357876812,0,0,0,,0,104,104,18,1,1,RL,mishafe,print,mishafe_p.png,,,,,,
,,,,32104,001,2025-12-03_21h30.02.828,HW_LDT_1,2024.2.4,MacIntel,59.88023952,,,,,,,,,,,,,,,,,,,,,812.0448,812.2438,812.2438,812.7437,,,,,,,,,,,,,,0.8533,1,,,,,,,,,,,,,,z,,,,,,,,,,,,,,,,106,0,812.7441,813.6106,z,1,0.8533,,[],[],[],[],[],[],[],813.6106,815.6104,815.6105,815.6106,[],[],[],[],[],[],[],,815.6107,815.6108,-0.061948228,-0.357876812,0,0,0,,0,105,105,8,1,1,RL,debave,print,debave_p.png,,,,,,
,,,,32104,001,2025-12-03_21h30.02.828,HW_LDT_1,2024.2.4,MacIntel,59.88023952,,,,,,,,,,,,,,,,,,,,,815.6119,815.8106,815.8106,816.31,,,,,,,,,,,,,,1.4991,0,,,,,,,,,,,,,,m,,,,,,,,,,,,,,,,107,0,816.3105,817.8104,z,0,1.4991,,[],[],[],[],[],[],[],817.8105,819.8106,819.8106,819.8107,[],[],[],[],[],[],[],,819.8108,819.811,-0.061948228,-0.357876812,0,0,0,,0,106,106,87,1,1,word,CAFETERIA,cursive,cafeteria_c.png,,,,,,
,,,,32104,001,2025-12-03_21h30.02.828,HW_LDT_1,2024.2.4,MacIntel,59.88023952,,,,,,,,,,,,,,,,,,,,,819.812,820.0106,820.0107,820.5101,,,,,,,,,,,,,,0.9814,1,,,,,,,,,,,,,,z,,,,,,,,,,,,,,,,108,0,820.5107,821.4939,z,1,0.9814,,[],[],[],[],[],[],[],821.4939,823.4939,823.4939,823.4941,[],[],[],[],[],[],[],,823.4941,823.4943,-0.061948228,-0.357876812,0,0,0,,0,107,107,11,1,1,RL,elacodate,print,elacodate_p.png,,,,,,
,,,,32104,001,2025-12-03_21h30.02.828,HW_LDT_1,2024.2.4,MacIntel,59.88023952,,,,,,,,,,,,,,,,,,,,,823.4954,823.6939,823.6939,824.1928,,,,,,,,,,,,,,1.2043,0,,,,,,,,,,,,,,m,,,,,,,,,,,,,,,,109,1,824.1932,825.41,z,0,1.2043,,[],[],[],[],[],[],[],825.41,827.4107,827.4107,828.6266,[],[],[],[],[],[],[],z,828.6268,828.6269,-0.061948228,-0.357876812,0,0,0,,0,108,108,140,1,1,word,RELATIVE,cursive,relative_c.png,1.2075,,,,,
,,,,32104,001,2025-12-03_21h30.02.828,HW_LDT_1,2024.2.4,MacIntel,59.88023952,,,,,,,,,,,,,,,,,,,,,828.6278,828.8272,828.8273,829.327,,,,,,,,,,,,,,1.1821,1,,,,,,,,,,,,,,z,,,,,,,,,,,,,,,,110,0,829.3272,830.5106,z,1,1.1821,,[],[],[],[],[],[],[],830.5106,832.5098,832.5098,832.5099,[],[],[],[],[],[],[],,832.5099,832.51,-0.061948228,-0.357876812,0,0,0,,0,109,109,74,1,1,TL,setanor,cursive,setanor_c.png,,,,,,
,,,,32104,001,2025-12-03_21h30.02.828,HW_LDT_1,2024.2.4,MacIntel,59.88023952,,,,,,,,,,,,,,,,,,,,,832.5108,832.7107,832.7108,833.2106,,,,,,,,,,,,,,3.5644,1,,,,,,,,,,,,,,m,,,,,,,,,,,,,,,,111,0,833.2111,836.7772,m,1,3.5644,,[],[],[],[],[],[],[],836.7773,838.7776,838.7776,838.7778,[],[],[],[],[],[],[],,838.7778,838.7779,-0.061948228,-0.357876812,0,0,0,,0,110,110,93,1,1,word,CEREMONY,cursive,ceremony_c.png,,,,,,
,,,,32104,001,2025-12-03_21h30.02.828,HW_LDT_1,2024.2.4,MacIntel,59.88023952,,,,,,,,,,,,,,,,,,,,,838.7789,838.9774,838.9774,839.4774,,,,,,,,,,,,,,1.4323,1,,,,,,,,,,,,,,m,,,,,,,,,,,,,,,,112,0,839.478,840.9107,m,1,1.4323,,[],[],[],[],[],[],[],840.9108,842.9098,842.9099,842.91,[],[],[],[],[],[],[],,842.91,842.9101,-0.061948228,-0.357876812,0,0,0,,0,111,111,150,1,1,word,SENTIMENT,cursive,sentiment_c.png,,,,,,
,,,,32104,001,2025-12-03_21h30.02.828,HW_LDT_1,2024.2.4,MacIntel,59.88023952,,,,,,,,,,,,,,,,,,,,,842.9113,843.1101,843.1101,843.6108,,,,,,,,,,,,,,1.3484,0,,,,,,,,,,,,,,m,,,,,,,,,,,,,,,,113,0,843.6111,844.9607,z,0,1.3484,,[],[],[],[],[],[],[],844.9607,846.9607,846.9608,846.9609,[],[],[],[],[],[],[],,846.961,846.9611,-0.061948228,-0.357876812,0,0,0,,0,112,112,110,1,1,word,HERITAGE,cursive,heritage_c.png,,,,,,
,,,,32104,001,2025-12-03_21h30.02.828,HW_LDT_1,2024.2.4,MacIntel,59.88023952,,,,,,,,,,,,,,,,,,,,,846.9626,847.1608,847.1608,847.6608,,,,,,,,,,,,,,1.3546,1,,,,,,,,,,,,,,z,,,,,,,,,,,,,,,,114,0,847.6613,849.0274,z,1,1.3546,,[],[],[],[],[],[],[],849.0275,851.0275,851.0275,851.0277,[],[],[],[],[],[],[],,851.0278,851.0279,-0.061948228,-0.357876812,0,0,0,,0,113,113,0,1,1,RL,abanemy,cursive,abanemy_c.png,,,,,,
,,,,32104,001,2025-12-03_21h30.02.828,HW_LDT_1,2024.2.4,MacIntel,59.88023952,,,,,,,,,,,,,,,,,,,,,851.0288,851.2275,851.2275,851.7275,,,,,,,,,,,,,,0.6582,1,,,,,,,,,,,,,,m,,,,,,,,,,,,,,,,115,0,851.728,852.3941,m,1,0.6582,,[],[],[],[],[],[],[],852.3942,854.3941,854.3941,854.3943,[],[],[],[],[],[],[],,854.3944,854.3945,-0.061948228,-0.357876812,0,0,0,,0,114,114,133,1,1,word,PROVIDE,print,provide_p.png,,,,,,
,,,,32104,001,2025-12-03_21h30.02.828,HW_LDT_1,2024.2.4,MacIntel,59.88023952,,,,,,,,,,,,,,,,,,,,,854.3954,854.5942,854.5942,855.0942,,,,,,,,,,,,,,1.0881,1,,,,,,,,,,,,,,m,,,,,,,,,,,,,,,,116,0,855.0946,856.1943,m,1,1.0881,,[],[],[],[],[],[],[],856.1944,858.1942,858.1943,858.1946,[],[],[],[],[],[],[],,858.1946,858.1946,-0.061948228,-0.357876812,0,0,0,,0,115,115,156,1,1,word,TRIBUTE,cursive,tribute_c.png,,,,,,
,,,,32104,001,2025-12-03_21h30.02.828,HW_LDT_1,2024.2.4,MacIntel,59.88023952,,,,,,,,,,,,,,,,,,,,,858.1959,858.3943,858.3944,858.8935,,,,,,,,,,,,,,2.966,1,,,,,,,,,,,,,,z,,,,,,,,,,,,,,,,117,0,858.894,861.8608,z,1,2.966,,[],[],[],[],[],[],[],861.861,863.8602,863.8602,863.8604,[],[],[],[],[],[],[],,863.8604,863.8605,-0.061948228,-0.357876812,0,0,0,,0,116,116,36,1,1,RL,speniven,cursive,speniven_c.png,,,,,,
,,,,32104,001,2025-12-03_21h30.02.828,HW_LDT_1,2024.2.4,MacIntel,59.88023952,,,,,,,,,,,,,,,,,,,,,863.8618,864.0602,864.0602,864.56,,,,,,,,,,,,,,0.8499,1,,,,,,,,,,,,,,z,,,,,,,,,,,,,,,,118,0,864.5605,865.4108,z,1,0.8499,,[],[],[],[],[],[],[],865.4109,867.411,867.4111,867.4113,[],[],[],[],[],[],[],,867.4113,867.4114,-0.061948228,-0.357876812,0,0,0,,0,117,117,27,1,1,RL,rasibal,print,rasibal_p.png,,,,,,
,,,,32104,001,2025-12-03_21h30.02.828,HW_LDT_1,2024.2.4,MacIntel,59.88023952,,,,,,,,,,,,,,,,,,,,,867.4125,867.6108,867.6108,868.111,,,,,,,,,,,,,,0.7357,1,,,,,,,,,,,,,,m,,,,,,,,,,,,,,,,119,0,868.1113,868.8601,m,1,0.7357,,[],[],[],[],[],[],[],868.8602,870.8607,870.8608,870.861,[],[],[],[],[],[],[],,870.8611,870.8612,-0.061948228,-0.357876812,0,0,0,,0,118,118,115,1,1,word,LOGICAL,cursive,logical_c.png,,,,,,
,,,,32104,001,2025-12-03_21h30.02.828,HW_LDT_1,2024.2.4,MacIntel,59.88023952,,,,,,,,,,,,,,,,,,,,,870.8624,871.061,871.061,871.5611,,,,,,,,,,,,,,1.6208,1,,,,,,,,,,,,,,z,,,,,,,,,,,,,,,,120,0,871.5615,873.1944,z,1,1.6208,,[],[],[],[],[],[],[],873.1945,875.1944,875.1944,875.1946,[],[],[],[],[],[],[],,875.1946,875.1946,-0.061948228,-0.357876812,0,0,0,,0,119,119,10,1,1,RL,efibor,cursive,efibor_c.png,,,,,,
,,,,32104,001,2025-12-03_21h30.02.828,HW_LDT_1,2024.2.4,MacIntel,59.88023952,,,,,,,,,,,,,,,,,,,,,875.1956,875.3942,875.3943,875.8943,,,,,,,,,,,,,,1.3532,1,,,,,,,,,,,,,,z,,,,,,,,,,,,,,,,121,0,875.8947,877.2611,z,1,1.3532,,[],[],[],[],[],[],[],877.2611,879.261,879.2611,879.2612,[],[],[],[],[],[],[],,879.2613,879.2614,-0.061948228,-0.357876812,0,0,0,,0,120,120,71,1,1,TL,regilion,cursive,regilion_c.png,,,,,,
,,,,32104,001,2025-12-03_21h30.02.828,HW_LDT_1,2024.2.4,MacIntel,59.88023952,,,,,,,,,,,,,,,,,,,,,879.2626,879.4611,879.4611,879.9609,,,,,,,,,,,,,,0.7873,1,,,,,,,,,,,,,,z,,,,,,,,,,,,,,,,122,0,879.9613,880.7601,z,1,0.7873,,[],[],[],[],[],[],[],880.7601,882.7611,882.7612,882.7614,[],[],[],[],[],[],[],,882.7615,882.7616,-0.061948228,-0.357876812,0,0,0,,0,121,121,5,1,1,RL,cobeny,cursive,cobeny_c.png,,,,,,
,,,,32104,001,2025-12-03_21h30.02.828,HW_LDT_1,2024.2.4,MacIntel,59.88023952,,,,,,,,,,,,,,,,,,,,,882.7624,882.9611,882.9612,883.4611,,,,,,,,,,,,,,0.7313,1,,,,,,,,,,,,,,m,,,,,,,,,,,,,,,,123,0,883.4617,884.1937,m,1,0.7313,,[],[],[],[],[],[],[],884.1938,886.1945,886.1945,886.1947,[],[],[],[],[],[],[],,886.1949,886.1949,-0.061948228,-0.357876812,0,0,0,,0,122,122,157,1,1,word,VALIDITY,cursive,validity_c.png,,,,,,
,,,,32104,001,2025-12-03_21h30.02.828,HW_LDT_1,2024.2.4,MacIntel,59.88023952,,,,,,,,,,,,,,,,,,,,,886.1959,886.3944,886.3945,886.894,,,,,,,,,,,,,,0.9912,1,,,,,,,,,,,,,,m,,,,,,,,,,,,,,,,124,1,886.8945,887.8944,m,1,0.9912,,[],[],[],[],[],[],[],887.8944,889.8938,889.8939,891.4278,[],[],[],[],[],[],[],m,891.4278,891.4279,-0.061948228,-0.357876812,0,0,0,,0,123,123,128,1,1,word,PACIFIC,print,pacific_p.png,1.5217,,,,,
,,,,32104,001,2025-12-03_21h30.02.828,HW_LDT_1,2024.2.4,MacIntel,59.88023952,,,,,,,,,,,,,,,,,,,,,891.429,891.6279,891.6279,892.1277,,,,,,,,,,,,,,1.1538,1,,,,,,,,,,,,,,z,,,,,,,,,,,,,,,,125,1,892.1283,893.2944,z,1,1.1538,,[],[],[],[],[],[],[],893.2946,895.2946,895.2946,898.2438,[],[],[],[],[],[],[],z,898.2439,898.2439,-0.061948228,-0.357876812,0,0,0,,0,124,124,39,1,1,RL,vabifity,cursive,vabifity_c.png,2.9379,,,,,
,,,,32104,001,2025-12-03_21h30.02.828,HW_LDT_1,2024.2.4,MacIntel,59.88023952,,,,,,,,,,,,,,,,,,,,,898.2451,898.4445,898.4445,898.9445,,,,,,,,,,,,,,1.3866,1,,,,,,,,,,,,,,z,,,,,,,,,,,,,,,,126,0,898.9451,900.3446,z,1,1.3866,,[],[],[],[],[],[],[],900.3447,902.3444,902.3445,902.3445,[],[],[],[],[],[],[],,902.3446,902.3446,-0.061948228,-0.357876812,0,0,0,,0,125,125,69,1,1,TL,radiply,cursive,radiply_c.png,,,,,,
,,,,32104,001,2025-12-03_21h30.02.828,HW_LDT_1,2024.2.4,MacIntel,59.88023952,,,,,,,,,,,,,,,,,,,,,902.3452,902.5445,902.5446,903.0446,,,,,,,,,,,,,,0.774,1,,,,,,,,,,,,,,m,,,,,,,,,,,,,,,,127,0,903.045,903.8279,m,1,0.774,,[],[],[],[],[],[],[],903.8279,905.8279,905.828,905.8282,[],[],[],[],[],[],[],,905.8283,905.8284,-0.061948228,-0.357876812,0,0,0,,0,126,126,107,1,1,word,EVIDENT,print,evident_p.png,,,,,,
,,,,32104,001,2025-12-03_21h30.02.828,HW_LDT_1,2024.2.4,MacIntel,59.88023952,,,,,,,,,,,,,,,,,,,,,905.8298,906.028,906.028,906.5277,,,,,,,,,,,,,,1.0204,1,,,,,,,,,,,,,,z,,,,,,,,,,,,,,,,128,0,906.5279,907.5613,z,1,1.0204,,[],[],[],[],[],[],[],907.5613,909.5614,909.5614,909.5617,[],[],[],[],[],[],[],,909.5618,909.5619,-0.061948228,-0.357876812,0,0,0,,0,127,127,61,1,1,TL,mecidine,cursive,mecidine_c.png,,,,,,
,,,,32104,001,2025-12-03_21h30.02.828,HW_LDT_1,2024.2.4,MacIntel,59.88023952,,,,,,,,,,,,,,,,,,,,,909.5629,909.7614,909.7614,910.2612,,,,,,,,,,,,,,1.2196,1,,,,,,,,,,,,,,z,,,,,,,,,,,,,,,,129,0,910.2618,911.4946,z,1,1.2196,,[],[],[],[],[],[],[],911.4947,913.4946,913.4947,913.495,[],[],[],[],[],[],[],,913.495,913.4952,-0.061948228,-0.357876812,0,0,0,,0,128,128,75,1,1,TL,speficic,cursive,speficic_c.png,,,,,,
,,,,32104,001,2025-12-03_21h30.02.828,HW_LDT_1,2024.2.4,MacIntel,59.88023952,,,,,,,,,,,,,,,,,,,,,913.4961,913.6946,913.6946,914.1947,,,,,,,,,,,,,,1.815,0,,,,,,,,,,,,,,m,,,,,,,,,,,,,,,,130,0,914.1953,916.0111,z,0,1.815,,[],[],[],[],[],[],[],916.0113,918.0111,918.0112,918.0114,[],[],[],[],[],[],[],,918.0115,918.0115,-0.061948228,-0.357876812,0,0,0,,0,129,129,119,1,1,word,MEMORY,cursive,memory_c.png,,,,,,
,,,,32104,001,2025-12-03_21h30.02.828,HW_LDT_1,2024.2.4,MacIntel,59.88023952,,,,,,,,,,,,,,,,,,,,,918.0123,918.2115,918.2115,918.7114,,,,,,,,,,,,,,0.7389,1,,,,,,,,,,,,,,z,,,,,,,,,,,,,,,,131,0,918.712,919.4614,z,1,0.7389,,[],[],[],[],[],[],[],919.4615,921.461,921.461,921.4611,[],[],[],[],[],[],[],,921.4611,921.4612,-0.061948228,-0.357876812,0,0,0,,0,130,130,32,1,1,RL,rebicent,print,rebicent_p.png,,,,,,
,,,,32104,001,2025-12-03_21h30.02.828,HW_LDT_1,2024.2.4,MacIntel,59.88023952,,,,,,,,,,,,,,,,,,,,,921.4622,921.6611,921.6611,922.1614,,,,,,,,,,,,,,0.6577,1,,,,,,,,,,,,,,m,,,,,,,,,,,,,,,,132,0,922.1619,922.8278,m,1,0.6577,,[],[],[],[],[],[],[],922.8279,924.827,924.827,924.8272,[],[],[],[],[],[],[],,924.8272,924.8272,-0.061948228,-0.357876812,0,0,0,,0,131,131,121,1,1,word,MISTAKE,print,mistake_p.png,,,,,,
,,,,32104,001,2025-12-03_21h30.02.828,HW_LDT_1,2024.2.4,MacIntel,59.88023952,,,,,,,,,,,,,,,,,,,,,924.8281,925.028,925.0281,925.5281,,,,,,,,,,,,,,0.8706,1,,,,,,,,,,,,,,z,,,,,,,,,,,,,,,,133,1,925.5286,926.4113,z,1,0.8706,,[],[],[],[],[],[],[],926.4115,928.4116,928.4117,929.4946,[],[],[],[],[],[],[],m,929.4948,929.4949,-0.061948228,-0.357876812,0,0,0,,0,132,132,20,1,1,RL,nunewical,print,nunewical_p.png,1.0815,,,,,
,,,,32104,001,2025-12-03_21h30.02.828,HW_LDT_1,2024.2.4,MacIntel,59.88023952,,,,,,,,,,,,,,,,,,,,,929.4957,929.694,929.694,930.1947,,,,,,,,,,,,,,1.9814,1,,,,,,,,,,,,,,z,,,,,,,,,,,,,,,,134,0,930.1953,932.1781,z,1,1.9814,,[],[],[],[],[],[],[],932.1782,934.1782,934.1782,934.1784,[],[],[],[],[],[],[],,934.1785,934.1785,-0.061948228,-0.357876812,0,0,0,,0,133,133,76,1,1,TL,stragety,cursive,stragety_c.png,,,,,,
,,,,32104,001,2025-12-03_21h30.02.828,HW_LDT_1,2024.2.4,MacIntel,59.88023952,,,,,,,,,,,,,,,,,,,,,934.1795,934.3783,934.3784,934.878,,,,,,,,,,,,,,1.4695,1,,,,,,,,,,,,,,m,,,,,,,,,,,,,,,,135,1,934.8786,936.3606,m,1,1.4695,,[],[],[],[],[],[],[],936.3606,938.3614,938.3614,940.6115,[],[],[],[],[],[],[],z,940.6116,940.6116,-0.061948228,-0.357876812,0,0,0,,0,134,134,113,1,1,word,LITERAL,print,literal_p.png,2.2488,,,,,
,,,,32104,001,2025-12-03_21h30.02.828,HW_LDT_1,2024.2.4,MacIntel,59.88023952,,,,,,,,,,,,,,,,,,,,,940.6126,940.8115,940.8115,941.3116,,,,,,,,,,,,,,1.9654,1,,,,,,,,,,,,,,z,,,,,,,,,,,,,,,,136,0,941.3119,943.2783,z,1,1.9654,,[],[],[],[],[],[],[],943.2783,945.278,945.2781,945.2782,[],[],[],[],[],[],[],,945.2783,945.2783,-0.061948228,-0.357876812,0,0,0,,0,135,135,73,1,1,TL,ronamtic,cursive,ronamtic_c.png,,,,,,
,,,,32104,001,2025-12-03_21h30.02.828,HW_LDT_1,2024.2.4,MacIntel,59.88023952,,,,,,,,,,,,,,,,,,,,,945.2793,945.4782,945.4782,945.9783,,,,,,,,,,,,,,1.7193,0,,,,,,,,,,,,,,m,,,,,,,,,,,,,,,,137,0,945.979,947.7115,z,0,1.7193,,[],[],[],[],[],[],[],947.7115,949.7115,949.7116,949.7119,[],[],[],[],[],[],[],,949.712,949.7121,-0.061948228,-0.357876812,0,0,0,,0,136,136,149,1,1,word,SENATOR,cursive,senator_c.png,,,,,,
,,,,32104,001,2025-12-03_21h30.02.828,HW_LDT_1,2024.2.4,MacIntel,59.88023952,,,,,,,,,,,,,,,,,,,,,949.7131,949.9105,949.9106,950.4111,,,,,,,,,,,,,,1.7813,0,,,,,,,,,,,,,,m,,,,,,,,,,,,,,,,138,0,950.4117,952.1949,z,0,1.7813,,[],[],[],[],[],[],[],952.1949,954.194,954.1941,954.1941,[],[],[],[],[],[],[],,954.1942,954.1943,-0.061948228,-0.357876812,0,0,0,,0,137,137,101,1,1,word,DELICATE,cursive,delicate_c.png,,,,,,
,,,,32104,001,2025-12-03_21h30.02.828,HW_LDT_1,2024.2.4,MacIntel,59.88023952,,,,,,,,,,,,,,,,,,,,,954.1953,954.3948,954.3948,954.895,,,,,,,,,,,,,,1.8707,1,,,,,,,,,,,,,,z,,,,,,,,,,,,,,,,139,0,954.8955,956.7785,z,1,1.8707,,[],[],[],[],[],[],[],956.7786,958.7784,958.7786,958.7787,[],[],[],[],[],[],[],,958.7788,958.7789,-0.061948228,-0.357876812,0,0,0,,0,138,138,68,1,1,TL,prosopal,cursive,prosopal_c.png,,,,,,
,,,,32104,001,2025-12-03_21h30.02.828,HW_LDT_1,2024.2.4,MacIntel,59.88023952,,,,,,,,,,,,,,,,,,,,,958.7804,958.9783,958.9784,959.4783,,,,,,,,,,,,,,0.7656,1,,,,,,,,,,,,,,m,,,,,,,,,,,,,,,,140,0,959.4788,960.2451,m,1,0.7656,,[],[],[],[],[],[],[],960.2451,962.2452,962.2452,962.2454,[],[],[],[],[],[],[],,962.2454,962.2455,-0.061948228,-0.357876812,0,0,0,,0,139,139,99,1,1,word,DEBATE,print,debate_p.png,,,,,,
,,,,32104,001,2025-12-03_21h30.02.828,HW_LDT_1,2024.2.4,MacIntel,59.88023952,,,,,,,,,,,,,,,,,,,,,962.2466,962.4451,962.4451,962.945,,,,,,,,,,,,,,1.3894,1,,,,,,,,,,,,,,z,,,,,,,,,,,,,,,,141,0,962.9455,964.3447,z,1,1.3894,,[],[],[],[],[],[],[],964.3447,966.3444,966.3444,966.3445,[],[],[],[],[],[],[],,966.3445,966.3446,-0.061948228,-0.357876812,0,0,0,,0,140,140,25,1,1,RL,quakity,cursive,quakity_c.png,,,,,,
,,,,32104,001,2025-12-03_21h30.02.828,HW_LDT_1,2024.2.4,MacIntel,59.88023952,,,,,,,,,,,,,,,,,,,,,966.3464,966.5447,966.5448,967.045,,,,,,,,,,,,,,1.5476,1,,,,,,,,,,,,,,z,,,,,,,,,,,,,,,,142,1,967.0455,968.595,z,1,1.5476,,[],[],[],[],[],[],[],968.595,970.5951,970.5952,971.5785,[],[],[],[],[],[],[],z,971.5785,971.5786,-0.061948228,-0.357876812,0,0,0,,0,141,141,1,1,1,RL,adnicory,cursive,adnicory_c.png,0.9706,,,,,
,,,,32104,001,2025-12-03_21h30.02.828,HW_LDT_1,2024.2.4,MacIntel,59.88023952,,,,,,,,,,,,,,,,,,,,,971.5799,971.7784,971.7784,972.2784,,,,,,,,,,,,,,4.04,1,,,,,,,,,,,,,,z,,,,,,,,,,,,,,,,143,0,972.2789,976.328,z,1,4.04,,[],[],[],[],[],[],[],976.328,978.3285,978.3285,978.3288,[],[],[],[],[],[],[],,978.3289,978.3289,-0.061948228,-0.357876812,0,0,0,,0,142,142,48,1,1,TL,cemerony,cursive,cemerony_c.png,,,,,,
,,,,32104,001,2025-12-03_21h30.02.828,HW_LDT_1,2024.2.4,MacIntel,59.88023952,,,,,,,,,,,,,,,,,,,,,978.3302,978.5285,978.5285,979.0285,,,,,,,,,,,,,,0.7317,1,,,,,,,,,,,,,,m,,,,,,,,,,,,,,,,144,0,979.0291,979.762,m,1,0.7317,,[],[],[],[],[],[],[],979.7621,981.7619,981.7619,981.7621,[],[],[],[],[],[],[],,981.7621,981.7622,-0.061948228,-0.357876812,0,0,0,,0,143,143,120,1,1,word,MILITARY,print,military_p.png,,,,,,
,,,,32104,001,2025-12-03_21h30.02.828,HW_LDT_1,2024.2.4,MacIntel,59.88023952,,,,,,,,,,,,,,,,,,,,,981.7631,981.9619,981.962,982.4614,,,,,,,,,,,,,,0.5582,1,,,,,,,,,,,,,,m,,,,,,,,,,,,,,,,145,0,982.4619,983.0285,m,1,0.5582,,[],[],[],[],[],[],[],983.0286,985.0286,985.0286,985.0289,[],[],[],[],[],[],[],,985.029,985.0291,-0.061948228,-0.357876812,0,0,0,,0,144,144,85,1,1,word,BENEFIT,print,benefit_p.png,,,,,,
,,,,32104,001,2025-12-03_21h30.02.828,HW_LDT_1,2024.2.4,MacIntel,59.88023952,,,,,,,,,,,,,,,,,,,,,985.0301,985.2286,985.2286,985.7286,,,,,,,,,,,,,,0.5697,1,,,,,,,,,,,,,,m,,,,,,,,,,,,,,,,146,0,985.729,986.3119,m,1,0.5697,,[],[],[],[],[],[],[],986.312,988.3119,988.3119,988.3122,[],[],[],[],[],[],[],,988.3122,988.3123,-0.061948228,-0.357876812,0,0,0,,0,145,145,106,1,1,word,ELABORATE,print,elaborate_p.png,,,,,,
,,,,32104,001,2025-12-03_21h30.02.828,HW_LDT_1,2024.2.4,MacIntel,59.88023952,,,,,,,,,,,,,,,,,,,,,988.3134,988.5113,988.5113,989.0118,,,,,,,,,,,,,,0.532,1,,,,,,,,,,,,,,m,,,,,,,,,,,,,,,,147,0,989.0123,989.5453,m,1,0.532,,[],[],[],[],[],[],[],989.5453,991.5453,991.5453,991.5455,[],[],[],[],[],[],[],,991.5455,991.5457,-0.061948228,-0.357876812,0,0,0,,0,146,146,86,1,1,word,BESIDE,print,beside_p.png,,,,,,
,,,,32104,001,2025-12-03_21h30.02.828,HW_LDT_1,2024.2.4,MacIntel,59.88023952,,,,,,,,,,,,,,,,,,,,,991.5467,991.7453,991.7454,992.2445,,,,,,,,,,,,,,2.0158,1,,,,,,,,,,,,,,z,,,,,,,,,,,,,,,,148,0,992.2449,994.2619,z,1,2.0158,,[],[],[],[],[],[],[],994.262,996.261,996.261,996.2611,[],[],[],[],[],[],[],,996.2612,996.2612,-0.061948228,-0.357876812,0,0,0,,0,147,147,35,1,1,RL,senvilent,cursive,senvilent_c.png,,,,,,
,,,,32104,001,2025-12-03_21h30.02.828,HW_LDT_1,2024.2.4,MacIntel,59.88023952,,,,,,,,,,,,,,,,,,,,,996.2621,996.4612,996.4613,996.962,,,,,,,,,,,,,,0.9479,1,,,,,,,,,,,,,,z,,,,,,,,,,,,,,,,149,0,996.9625,997.9118,z,1,0.9479,,[],[],[],[],[],[],[],997.9118,999.9115,999.9115,999.9118,[],[],[],[],[],[],[],,999.9118,999.9118,-0.061948228,-0.357876812,0,0,0,,0,148,148,78,1,1,TL,vecolity,print,vecolity_p.png,,,,,,
,,,,32104,001,2025-12-03_21h30.02.828,HW_LDT_1,2024.2.4,MacIntel,59.88023952,,,,,,,,,,,,,,,,,,,,,999.9127,1000.112,1000.112,1000.6119,,,,,,,,,,,,,,0.9542,1,,,,,,,,,,,,,,m,,,,,,,,,,,,,,,,150,0,1000.6126,1001.5787,m,1,0.9542,,[],[],[],[],[],[],[],1001.5787,1003.5787,1003.5787,1003.579,[],[],[],[],[],[],[],,1003.579,1003.5791,-0.061948228,-0.357876812,0,0,0,,0,149,149,112,1,1,word,LIBERAL,cursive,liberal_c.png,,,,,,
,,,,32104,001,2025-12-03_21h30.02.828,HW_LDT_1,2024.2.4,MacIntel,59.88023952,,,,,,,,,,,,,,,,,,,,,1003.5802,1003.7788,1003.7788,1004.2787,,,,,,,,,,,,,,0.7531,1,,,,,,,,,,,,,,z,,,,,,,,,,,,,,,,151,0,1004.2792,1005.0448,z,1,0.7531,,[],[],[],[],[],[],[],1005.0449,1007.0446,1007.0447,1007.0448,[],[],[],[],[],[],[],,1007.0449,1007.045,-0.061948228,-0.357876812,0,0,0,,0,150,150,6,1,1,RL,crisival,print,crisival_p.png,,,,,,
,,,,32104,001,2025-12-03_21h30.02.828,HW_LDT_1,2024.2.4,MacIntel,59.88023952,,,,,,,,,,,,,,,,,,,,,1007.0464,1007.2452,1007.2452,1007.7444,,,,,,,,,,,,,,1.3709,1,,,,,,,,,,,,,,z,,,,,,,,,,,,,,,,152,0,1007.745,1009.1282,z,1,1.3709,,[],[],[],[],[],[],[],1009.1283,1011.1287,1011.1287,1011.1289,[],[],[],[],[],[],[],,1011.1289,1011.129,-0.061948228,-0.357876812,0,0,0,,0,151,151,15,1,1,RL,losipal,cursive,losipal_c.png,,,,,,
,,,,32104,001,2025-12-03_21h30.02.828,HW_LDT_1,2024.2.4,MacIntel,59.88023952,,,,,,,,,,,,,,,,,,,,,1011.13,1011.3285,1011.3286,1011.8288,,,,,,,,,,,,,,0.9482,0,,,,,,,,,,,,,,m,,,,,,,,,,,,,,,,153,0,1011.8292,1012.7787,z,0,0.9482,,[],[],[],[],[],[],[],1012.7787,1014.7788,1014.7788,1014.779,[],[],[],[],[],[],[],,1014.7792,1014.7792,-0.061948228,-0.357876812,0,0,0,,0,152,152,146,1,1,word,RETIRE,cursive,retire_c.png,,,,,,
,,,,32104,001,2025-12-03_21h30.02.828,HW_LDT_1,2024.2.4,MacIntel,59.88023952,,,,,,,,,,,,,,,,,,,,,1014.7803,1014.9788,1014.9788,1015.4784,,,,,,,,,,,,,,0.8158,1,,,,,,,,,,,,,,m,,,,,,,,,,,,,,,,154,0,1015.4789,1016.2955,m,1,0.8158,,[],[],[],[],[],[],[],1016.2956,1018.2954,1018.2954,1018.2956,[],[],[],[],[],[],[],,1018.2957,1018.2959,-0.061948228,-0.357876812,0,0,0,,0,153,153,152,1,1,word,SPECIMEN,cursive,specimen_c.png,,,,,,
,,,,32104,001,2025-12-03_21h30.02.828,HW_LDT_1,2024.2.4,MacIntel,59.88023952,,,,,,,,,,,,,,,,,,,,,1018.2971,1018.4955,1018.4955,1018.9955,,,,,,,,,,,,,,0.6973,1,,,,,,,,,,,,,,z,,,,,,,,,,,,,,,,155,0,1018.996,1019.6954,z,1,0.6973,,[],[],[],[],[],[],[],1019.6954,1021.6955,1021.6955,1021.6958,[],[],[],[],[],[],[],,1021.6958,1021.6959,-0.061948228,-0.357876812,0,0,0,,0,154,154,34,1,1,RL,samite,print,samite_p.png,,,,,,
,,,,32104,001,2025-12-03_21h30.02.828,HW_LDT_1,2024.2.4,MacIntel,59.88023952,,,,,,,,,,,,,,,,,,,,,1021.6967,1021.8955,1021.8955,1022.3955,,,,,,,,,,,,,,0.72,1,,,,,,,,,,,,,,z,,,,,,,,,,,,,,,,156,0,1022.3959,1023.1289,z,1,0.72,,[],[],[],[],[],[],[],1023.1289,1025.1288,1025.1288,1025.129,[],[],[],[],[],[],[],,1025.1292,1025.1293,-0.061948228,-0.357876812,0,0,0,,0,155,155,24,1,1,RL,probice,print,probice_p.png,,,,,,
,,,,32104,001,2025-12-03_21h30.02.828,HW_LDT_1,2024.2.4,MacIntel,59.88023952,,,,,,,,,,,,,,,,,,,,,1025.1303,1025.3288,1025.3288,1025.8288,,,,,,,,,,,,,,1.3533,0,,,,,,,,,,,,,,m,,,,,,,,,,,,,,,,157,0,1025.8293,1027.1954,z,0,1.3533,,[],[],[],[],[],[],[],1027.1955,1029.1955,1029.1956,1029.1957,[],[],[],[],[],[],[],,1029.1958,1029.1959,-0.061948228,-0.357876812,0,0,0,,0,156,156,88,1,1,word,CAMERA,cursive,camera_c.png,,,,,,
,,,,32104,001,2025-12-03_21h30.02.828,HW_LDT_1,2024.2.4,MacIntel,59.88023952,,,,,,,,,,,,,,,,,,,,,1029.1967,1029.3954,1029.3955,1029.8955,,,,,,,,,,,,,,0.6214,1,,,,,,,,,,,,,,z,,,,,,,,,,,,,,,,158,0,1029.8961,1030.5289,z,1,0.6214,,[],[],[],[],[],[],[],1030.529,1032.5288,1032.5288,1032.5289,[],[],[],[],[],[],[],,1032.5289,1032.529,-0.061948228,-0.357876812,0,0,0,,0,157,157,13,1,1,RL,linefal,print,linefal_p.png,,,,,,
,,,,32104,001,2025-12-03_21h30.02.828,HW_LDT_1,2024.2.4,MacIntel,59.88023952,,,,,,,,,,,,,,,,,,,,,1032.5298,1032.729,1032.729,1033.2288,,,,,,,,,,,,,,0.7817,1,,,,,,,,,,,,,,z,,,,,,,,,,,,,,,,159,0,1033.2303,1034.0126,z,1,0.7817,,[],[],[],[],[],[],[],1034.0127,1036.0123,1036.0123,1036.0125,[],[],[],[],[],[],[],,1036.0125,1036.0126,-0.061948228,-0.357876812,0,0,0,,0,158,158,38,1,1,RL,stopave,cursive,stopave_c.png,,,,,,
,,,,32104,001,2025-12-03_21h30.02.828,HW_LDT_1,2024.2.4,MacIntel,59.88023952,,,,,,,,,,,,,,,,,,,,,1036.014,1036.2113,1036.2114,1036.712,,,,,,,,,,,,,,1.5327,1,,,,,,,,,,,,,,z,,,,,,,,,,,,,,,,160,0,1036.7125,1038.2458,z,1,1.5327,,[],[],[],[],[],[],[],1038.2458,1040.2455,1040.2456,1040.2459,[],[],[],[],[],[],[],,1040.2459,1040.2459,-0.061948228,-0.357876812,0,0,0,,0,159,159,55,1,1,TL,fornute,print,fornute_p.png,,,,,,
,,,,32104,001,2025-12-03_21h30.02.828,HW_LDT_1,2024.2.4,MacIntel,59.88023952,,,,,,,,,,,,,,,,,,,,,,,,,,,,,,,,,,,,,,,,,,,,,,,,,,,,,,,,,,,,,,,,,,,,,,,,,,,,,,,,,,,,,,,,,,,,,,,,,,,,,,,,,,,,,,,,,,,,,,1040.2626,1045.2459
