counterbalance_lists.group,counterbalance_lists.remaining,get_list.started,get_list.stopped,participant,session,date,expName,psychopyVersion,OS,frameRate,Instructions.started,Instructions.stopped,key_resp.keys,key_resp.rt,key_resp.duration,instr_done_touch.x,instr_done_touch.y,instr_done_touch.leftButton,instr_done_touch.midButton,instr_done_touch.rightButton,start_instr.thisRepN,start_instr.thisTrialN,start_instr.thisN,start_instr.thisIndex,start_instr.ran,pageN,phase,instruct_text,has_image,instruct_image,showProgress.started,showProgress.stopped,fix.started,fix.stopped,prac.started,prac.stopped,response.keys,response.corr,response.rt,response.duration,touch_resp.x,touch_resp.y,touch_resp.leftButton,touch_resp.midButton,touch_resp.rightButton,touch_resp.time,touch_resp.clicked_name,rt,corr,feedback.started,feedback.stopped,trials.thisRepN,trials.thisTrialN,trials.thisN,trials.thisIndex,trials.ran,TrialID,StimulusType,Condition,PrimeDuration,Prime,Target,corrAns,Instructions_expt.started,Instructions_expt.stopped,key_resp_3.keys,instr_done_touch_3.x,instr_done_touch_3.y,instr_done_touch_3.leftButton,instr_done_touch_3.midButton,instr_done_touch_3.rightButton,instr_done_touch_3.clicked_name,instr_experiment.thisRepN,instr_experiment.thisTrialN,instr_experiment.thisN,instr_experiment.thisIndex,instr_experiment.ran,trialID,flag,maintask.started,maintask.stopped,key_resp_2.keys,key_resp_2.corr,key_resp_2.rt,key_resp_2.duration,targ_click.x,targ_click.y,targ_click.leftButton,targ_click.midButton,targ_click.rightButton,targ_click.time,targ_click.clicked_name,ITI.started,ITI.stopped,probe.started,probe.stopped,click_probe.x,click_probe.y,click_probe.leftButton,click_probe.midButton,click_probe.rightButton,click_probe.time,click_probe.clicked_name,key_resp_probe.keys,Break.started,Break.stopped,break_done_touch.x,break_done_touch.y,break_done_touch.leftButton,break_done_touch.midButton,break_done_touch.rightButton,break_done_keyboard.keys,list3_trials.thisRepN,list3_trials.thisTrialN,list3_trials.thisN,list3_trials.thisIndex,list3_trials.ran,list_id,item_type,string,font,stim_file,key_resp_probe.rt,key_resp_probe.duration,break_done_keyboard.rt,break_done_keyboard.duration,End.started,End.stopped
list3,,0.4234,0.4234,32105,001,2025-12-02_09h26.58.940,HW_LDT_1,2024.2.4,MacIntel,60.24096386,,,,,,,,,,,,,,,,,,,,,,,,,,,,,,,,,,,,,,,,,,,,,,,,,,,,,,,,,,,,,,,,,,,,,,,,,,,,,,,,,,,,,,,,,,,,,,,,,,,,,,,,,,,,,,,,,,,,,,
,,,,32105,001,2025-12-02_09h26.58.940,HW_LDT_1,2024.2.4,MacIntel,60.24096386,0.4348,28.7318,space,28.2793,,-0.124822049,-0.120047743,0,0,0,0,0,0,0,1,1,instructions,"INSTRUCTIONS
At the start of each trial, look at the plus sign  (+) in the center of the screen.  This tells you that a trial is about to begin and where to look. Second, the plus sign will disappear and a string of letters will appear. Your task is to determine if the string of letters is a word or not. If the item is a word press the M key (on keyboard)  or touch the word button (phone/tablet).  If the item is not a word,  press the  Z key (on keyboard)  or touch the nonword button (on phone/tablet). The items will be presented for a short time. 
Press the space bar or touch  continue.",0,,,,,,,,,,,,,,,,,,,,,,,,,,,,,,,,,,,,,,,,,,,,,,,,,,,,,,,,,,,,,,,,,,,,,,,,,,,,,,,,,,,,,,,,,,,,,,,,,,,
,,,,32105,001,2025-12-02_09h26.58.940,HW_LDT_1,2024.2.4,MacIntel,60.24096386,28.7331,32.4826,space,3.7466,,-0.124822049,-0.120047743,0,0,0,0,1,1,1,1,2,instructions,"If your device has a keyboard, press the 'Z' key for nonwords and the 'M' key for words.





Press the space bar or touch the button below to continue.",0,keyboard-example.gif,,,,,,,,,,,,,,,,,,,,,,,,,,,,,,,,,,,,,,,,,,,,,,,,,,,,,,,,,,,,,,,,,,,,,,,,,,,,,,,,,,,,,,,,,,,,,,,,,,
,,,,32105,001,2025-12-02_09h26.58.940,HW_LDT_1,2024.2.4,MacIntel,60.24096386,32.4833,37.495,space,5.0093,,-0.124822049,-0.120047743,0,0,0,0,2,2,2,1,3,instructions,"If you are using a touchscreen only device, use the buttons on the screen. Do not use the mouse.





Press the space bar or touch the button below to continue.",0,touchscreen-example.gif,,,,,,,,,,,,,,,,,,,,,,,,,,,,,,,,,,,,,,,,,,,,,,,,,,,,,,,,,,,,,,,,,,,,,,,,,,,,,,,,,,,,,,,,,,,,,,,,,,
,,,,32105,001,2025-12-02_09h26.58.940,HW_LDT_1,2024.2.4,MacIntel,60.24096386,37.496,44.1347,space,6.6352,,-0.122278646,-0.118072917,0,0,0,0,3,3,3,1,4,instructions,"It is very important that you respond as quickly and accurately as possible, as each letter string will only be on the screen for two seconds. If you do not respond within this time, the message 'Too slow!' will be displayed and the experiment will progress to the next letter string. The first 20 trials will be practice trials and you will receive feedback on your answers. 

Press the space bar or touch the button below to start the practice trials.",0,,,,,,,,,,,,,,,,,,,,,,,,,,,,,,,,,,,,,,,,,,,,,,,,,,,,,,,,,,,,,,,,,,,,,,,,,,,,,,,,,,,,,,,,,,,,,,,,,,,
,,,,32105,001,2025-12-02_09h26.58.940,HW_LDT_1,2024.2.4,MacIntel,60.24096386,,,,,,,,,,,,,,,,,,,,,44.1484,44.3264,44.3266,44.8377,44.8378,46.9543,z,1,2.1144,,[],[],[],[],[],[],[],2.1144,1,46.9545,47.4546,0,0,0,13,1,1014,NW,UN,33,winfer,ROUPET,z,,,,,,,,,,,,,,,,,,,,,,,,,,,,,,,,,,,,,,,,,,,,,,,,,,,,,,,,,,,,,,,,,
,,,,32105,001,2025-12-02_09h26.58.940,HW_LDT_1,2024.2.4,MacIntel,60.24096386,,,,,,,,,,,,,,,,,,,,,47.4552,47.6543,47.6543,48.1543,48.1547,50.1377,z,1,1.9823,,[],[],[],[],[],[],[],1.9823,1,50.1377,50.6377,0,1,1,11,1,1012,NW,"ID",16,rashet,RASHET,z,,,,,,,,,,,,,,,,,,,,,,,,,,,,,,,,,,,,,,,,,,,,,,,,,,,,,,,,,,,,,,,,,
,,,,32105,001,2025-12-02_09h26.58.940,HW_LDT_1,2024.2.4,MacIntel,60.24096386,,,,,,,,,,,,,,,,,,,,,50.6382,50.8377,50.8377,51.3376,51.3379,52.0789,m,1,0.7402,,[],[],[],[],[],[],[],0.7402,1,52.079,52.5783,0,2,2,7,1,1008,WORD,UN,16,hurdle,VOLUME,m,,,,,,,,,,,,,,,,,,,,,,,,,,,,,,,,,,,,,,,,,,,,,,,,,,,,,,,,,,,,,,,,,
,,,,32105,001,2025-12-02_09h26.58.940,HW_LDT_1,2024.2.4,MacIntel,60.24096386,,,,,,,,,,,,,,,,,,,,,52.5792,52.7726,52.7726,53.271,53.2713,54.6878,z,1,1.4157,,[],[],[],[],[],[],[],1.4157,1,54.6879,55.1876,0,3,3,9,1,1010,NW,"ID",33,fariny,FARINY,z,,,,,,,,,,,,,,,,,,,,,,,,,,,,,,,,,,,,,,,,,,,,,,,,,,,,,,,,,,,,,,,,,
,,,,32105,001,2025-12-02_09h26.58.940,HW_LDT_1,2024.2.4,MacIntel,60.24096386,,,,,,,,,,,,,,,,,,,,,55.1881,55.3877,55.3877,55.8876,55.888,57.0043,z,1,1.1155,,[],[],[],[],[],[],[],1.1155,1,57.0043,57.5043,0,4,4,10,1,1011,NW,"ID",16,inlade,INLADE,z,,,,,,,,,,,,,,,,,,,,,,,,,,,,,,,,,,,,,,,,,,,,,,,,,,,,,,,,,,,,,,,,,
,,,,32105,001,2025-12-02_09h26.58.940,HW_LDT_1,2024.2.4,MacIntel,60.24096386,,,,,,,,,,,,,,,,,,,,,57.5048,57.7043,57.7043,58.2044,58.2048,59.1882,m,1,0.9827,,[],[],[],[],[],[],[],0.9827,1,59.1883,59.6875,0,5,5,6,1,1007,WORD,UN,16,tropic,ZOMBIE,m,,,,,,,,,,,,,,,,,,,,,,,,,,,,,,,,,,,,,,,,,,,,,,,,,,,,,,,,,,,,,,,,,
,,,,32105,001,2025-12-02_09h26.58.940,HW_LDT_1,2024.2.4,MacIntel,60.24096386,,,,,,,,,,,,,,,,,,,,,59.6881,59.8766,59.8767,60.3877,60.388,61.3492,z,1,0.9602,,[],[],[],[],[],[],[],0.9602,1,61.3494,61.84,0,6,6,12,1,1013,NW,UN,33,adveil,SPRINY,z,,,,,,,,,,,,,,,,,,,,,,,,,,,,,,,,,,,,,,,,,,,,,,,,,,,,,,,,,,,,,,,,,
,,,,32105,001,2025-12-02_09h26.58.940,HW_LDT_1,2024.2.4,MacIntel,60.24096386,,,,,,,,,,,,,,,,,,,,,61.8413,62.0377,62.0377,62.5377,62.5379,63.5709,z,1,1.0323,,[],[],[],[],[],[],[],1.0323,1,63.5709,64.0709,0,7,7,14,1,1015,NW,UN,16,miaber,THRALE,z,,,,,,,,,,,,,,,,,,,,,,,,,,,,,,,,,,,,,,,,,,,,,,,,,,,,,,,,,,,,,,,,,
,,,,32105,001,2025-12-02_09h26.58.940,HW_LDT_1,2024.2.4,MacIntel,60.24096386,,,,,,,,,,,,,,,,,,,,,64.0714,64.271,64.271,64.771,64.7713,65.421,m,1,0.6492,,[],[],[],[],[],[],[],0.6492,1,65.4211,65.9212,0,8,8,2,1,1003,WORD,"ID",16,almond,ALMOND,m,,,,,,,,,,,,,,,,,,,,,,,,,,,,,,,,,,,,,,,,,,,,,,,,,,,,,,,,,,,,,,,,,
,,,,32105,001,2025-12-02_09h26.58.940,HW_LDT_1,2024.2.4,MacIntel,60.24096386,,,,,,,,,,,,,,,,,,,,,65.9216,66.1209,66.121,66.621,66.6212,67.7602,z,1,1.1382,,[],[],[],[],[],[],[],1.1382,1,67.7602,68.2543,0,9,9,8,1,1009,NW,"ID",33,aslert,ASLERT,z,,,,,,,,,,,,,,,,,,,,,,,,,,,,,,,,,,,,,,,,,,,,,,,,,,,,,,,,,,,,,,,,,
,,,,32105,001,2025-12-02_09h26.58.940,HW_LDT_1,2024.2.4,MacIntel,60.24096386,,,,,,,,,,,,,,,,,,,,,68.2547,68.4544,68.4544,68.9544,68.9547,70.0542,m,1,1.099,,[],[],[],[],[],[],[],1.099,1,70.0544,70.5544,0,10,10,5,1,1006,WORD,UN,33,frenzy,OBTAIN,m,,,,,,,,,,,,,,,,,,,,,,,,,,,,,,,,,,,,,,,,,,,,,,,,,,,,,,,,,,,,,,,,,
,,,,32105,001,2025-12-02_09h26.58.940,HW_LDT_1,2024.2.4,MacIntel,60.24096386,,,,,,,,,,,,,,,,,,,,,70.5547,70.7544,70.7545,71.2544,71.2547,72.3544,z,1,1.0989,,[],[],[],[],[],[],[],1.0989,1,72.3545,72.8543,0,11,11,15,1,1016,NW,UN,16,mushed,WHAISE,z,,,,,,,,,,,,,,,,,,,,,,,,,,,,,,,,,,,,,,,,,,,,,,,,,,,,,,,,,,,,,,,,,
,,,,32105,001,2025-12-02_09h26.58.940,HW_LDT_1,2024.2.4,MacIntel,60.24096386,,,,,,,,,,,,,,,,,,,,,72.855,73.0543,73.0543,73.5543,73.5547,74.321,m,1,0.7655,,[],[],[],[],[],[],[],0.7655,1,74.321,74.8212,0,12,12,4,1,1005,WORD,UN,33,abound,SQUEAK,m,,,,,,,,,,,,,,,,,,,,,,,,,,,,,,,,,,,,,,,,,,,,,,,,,,,,,,,,,,,,,,,,,
,,,,32105,001,2025-12-02_09h26.58.940,HW_LDT_1,2024.2.4,MacIntel,60.24096386,,,,,,,,,,,,,,,,,,,,,74.8216,75.0211,75.0211,75.521,75.5213,76.2877,m,1,0.7656,,[],[],[],[],[],[],[],0.7656,1,76.2877,76.7877,0,13,13,3,1,1004,WORD,"ID",16,matrix,MATRIX,m,,,,,,,,,,,,,,,,,,,,,,,,,,,,,,,,,,,,,,,,,,,,,,,,,,,,,,,,,,,,,,,,,
,,,,32105,001,2025-12-02_09h26.58.940,HW_LDT_1,2024.2.4,MacIntel,60.24096386,,,,,,,,,,,,,,,,,,,,,76.7881,76.9878,76.9878,77.4877,77.4881,78.1043,m,1,0.6155,,[],[],[],[],[],[],[],0.6155,1,78.1043,78.6044,0,14,14,1,1,1002,WORD,"ID",33,adjust,ADJUST,m,,,,,,,,,,,,,,,,,,,,,,,,,,,,,,,,,,,,,,,,,,,,,,,,,,,,,,,,,,,,,,,,,
,,,,32105,001,2025-12-02_09h26.58.940,HW_LDT_1,2024.2.4,MacIntel,60.24096386,,,,,,,,,,,,,,,,,,,,,78.6049,78.8044,78.8044,79.3043,79.3046,80.4044,m,1,1.0992,,[],[],[],[],[],[],[],1.0992,1,80.4045,80.9044,0,15,15,0,1,1001,WORD,"ID",33,utopia,UTOPIA,m,,,,,,,,,,,,,,,,,,,,,,,,,,,,,,,,,,,,,,,,,,,,,,,,,,,,,,,,,,,,,,,,,
,,,,32105,001,2025-12-02_09h26.58.940,HW_LDT_1,2024.2.4,MacIntel,60.24096386,,,,,,,,,,,,,,,,1,end_of_practice,"You have completed the practice trials. During the experimental trials, you will not receive feedback. On some trials you will be asked to report whether the item you just saw was in cursive or print. 
Before you begin, please ensure that you are in a comfortable and quiet location and will not be disturbed for about 15 minutes, as we cannot use your data if you do not complete all the trials. 
 When you are ready to start the experimental trials, please press space or touch the button below.",,,,,,,,,,,,,,,,,,,,,,,,,,,,,,,,,,,,80.9069,92.9823,,-0.05233941,-0.423211806,1,0,0,instr_done_button_3,0,0,0,0,1,,,,,,,,,,,,,,,,,,,,,,,,,,,,,,,,,,,,,,,,,,,,,,,,,,,
,,,,32105,001,2025-12-02_09h26.58.940,HW_LDT_1,2024.2.4,MacIntel,60.24096386,,,,,,,,,,,,,,,,,,,,,92.991,93.1754,93.1754,93.6716,,,,,,,,,,,,,,1.6315,1,,,,,,,,,,,,,,m,,,,,,,,,,,,,,,1,0,93.6722,95.305,m,1,1.6315,,[],[],[],[],[],[],[],95.305,97.3047,97.3047,97.3057,[],[],[],[],[],[],[],,97.3058,97.3065,-0.002460938,-0.365750868,0,0,0,,0,0,0,81,1,3,word,ADVISORY,print,advisory_p.png,,,,,,
,,,,32105,001,2025-12-02_09h26.58.940,HW_LDT_1,2024.2.4,MacIntel,60.24096386,,,,,,,,,,,,,,,,,,,,,97.307,97.5044,97.5044,98.0044,,,,,,,,,,,,,,1.9545,1,,,,,,,,,,,,,,z,,,,,,,,,,,,,,,2,0,98.0046,99.9597,z,1,1.9545,,[],[],[],[],[],[],[],99.9598,101.9538,101.9539,101.9539,[],[],[],[],[],[],[],,101.9539,101.9539,0.023572049,-0.346588542,0,0,0,,0,1,1,54,1,3,TL,manire,cursive,manire_c.png,,,,,,
,,,,32105,001,2025-12-02_09h26.58.940,HW_LDT_1,2024.2.4,MacIntel,60.24096386,,,,,,,,,,,,,,,,,,,,,101.9545,102.1545,102.1545,102.6546,,,,,,,,,,,,,,1.1659,1,,,,,,,,,,,,,,z,,,,,,,,,,,,,,,3,0,102.655,103.8215,z,1,1.1659,,[],[],[],[],[],[],[],103.8215,105.8212,105.8212,105.8213,[],[],[],[],[],[],[],,105.8213,105.8214,0.023572049,-0.346588542,0,0,0,,0,2,2,31,1,3,RL,trilude,print,trilude_p.png,,,,,,
,,,,32105,001,2025-12-02_09h26.58.940,HW_LDT_1,2024.2.4,MacIntel,60.24096386,,,,,,,,,,,,,,,,,,,,,105.8217,106.0202,106.0202,106.5212,,,,,,,,,,,,,,0.8658,1,,,,,,,,,,,,,,m,,,,,,,,,,,,,,,4,0,106.5215,107.3877,m,1,0.8658,,[],[],[],[],[],[],[],107.3878,109.3879,109.3879,109.3881,[],[],[],[],[],[],[],,109.3881,109.3881,0.023572049,-0.346588542,0,0,0,,0,3,3,150,1,3,word,SENTIMENT,print,sentiment_p.png,,,,,,
,,,,32105,001,2025-12-02_09h26.58.940,HW_LDT_1,2024.2.4,MacIntel,60.24096386,,,,,,,,,,,,,,,,,,,,,109.3885,109.5878,109.5878,110.0879,,,,,,,,,,,,,,0.7664,1,,,,,,,,,,,,,,z,,,,,,,,,,,,,,,5,0,110.0882,110.8548,z,1,0.7664,,[],[],[],[],[],[],[],110.8548,112.8536,112.8537,112.8538,[],[],[],[],[],[],[],,112.8538,112.8539,0.023572049,-0.346588542,0,0,0,,0,4,4,23,1,3,RL,quakity,print,quakity_p.png,,,,,,
,,,,32105,001,2025-12-02_09h26.58.940,HW_LDT_1,2024.2.4,MacIntel,60.24096386,,,,,,,,,,,,,,,,,,,,,112.8546,113.0544,113.0544,113.5545,,,,,,,,,,,,,,3.8847,1,,,,,,,,,,,,,,z,,,,,,,,,,,,,,,6,0,113.5549,117.4417,z,1,3.8847,,[],[],[],[],[],[],[],117.4419,119.438,119.438,119.4382,[],[],[],[],[],[],[],,119.4382,119.4382,0.023572049,-0.346588542,0,0,0,,0,5,5,43,1,3,TL,dedace,cursive,dedace_c.png,,,,,,
,,,,32105,001,2025-12-02_09h26.58.940,HW_LDT_1,2024.2.4,MacIntel,60.24096386,,,,,,,,,,,,,,,,,,,,,119.4389,119.6369,119.6369,120.1369,,,,,,,,,,,,,,3.1671,1,,,,,,,,,,,,,,m,,,,,,,,,,,,,,,7,0,120.1373,123.3047,m,1,3.1671,,[],[],[],[],[],[],[],123.3047,125.3047,125.3047,125.3047,[],[],[],[],[],[],[],,125.3047,125.3048,0.023572049,-0.346588542,0,0,0,,0,6,6,110,1,3,word,HERITAGE,cursive,heritage_c.png,,,,,,
,,,,32105,001,2025-12-02_09h26.58.940,HW_LDT_1,2024.2.4,MacIntel,60.24096386,,,,,,,,,,,,,,,,,,,,,125.3053,125.5045,125.5045,126.0046,,,,,,,,,,,,,,1.2329,1,,,,,,,,,,,,,,m,,,,,,,,,,,,,,,8,0,126.0049,127.2381,m,1,1.2329,,[],[],[],[],[],[],[],127.2381,129.2378,129.2378,129.2379,[],[],[],[],[],[],[],,129.2379,129.238,0.023572049,-0.346588542,0,0,0,,0,7,7,155,1,3,word,STRATEGY,print,strategy_p.png,,,,,,
,,,,32105,001,2025-12-02_09h26.58.940,HW_LDT_1,2024.2.4,MacIntel,60.24096386,,,,,,,,,,,,,,,,,,,,,129.2384,129.4383,129.4384,129.9369,,,,,,,,,,,,,,1.6484,1,,,,,,,,,,,,,,m,,,,,,,,,,,,,,,9,0,129.937,131.586,m,1,1.6484,,[],[],[],[],[],[],[],131.586,133.5878,133.5878,133.588,[],[],[],[],[],[],[],,133.588,133.5881,0.023572049,-0.346588542,0,0,0,,0,8,8,114,1,3,word,LOCATE,cursive,locate_c.png,,,,,,
,,,,32105,001,2025-12-02_09h26.58.940,HW_LDT_1,2024.2.4,MacIntel,60.24096386,,,,,,,,,,,,,,,,,,,,,133.5885,133.7879,133.7879,134.2868,,,,,,,,,,,,,,0.8506,1,,,,,,,,,,,,,,m,,,,,,,,,,,,,,,10,0,134.287,135.1381,m,1,0.8506,,[],[],[],[],[],[],[],135.1381,137.138,137.138,137.1381,[],[],[],[],[],[],[],,137.1381,137.1381,0.023572049,-0.346588542,0,0,0,,0,9,9,109,1,3,word,GRATEFUL,cursive,grateful_c.png,,,,,,
,,,,32105,001,2025-12-02_09h26.58.940,HW_LDT_1,2024.2.4,MacIntel,60.24096386,,,,,,,,,,,,,,,,,,,,,137.1387,137.338,137.338,137.838,,,,,,,,,,,,,,4.6828,0,,,,,,,,,,,,,,m,,,,,,,,,,,,,,,11,0,137.8381,142.5214,z,0,4.6828,,[],[],[],[],[],[],[],142.5215,144.5213,144.5213,144.5214,[],[],[],[],[],[],[],,144.5214,144.5215,0.023572049,-0.346588542,0,0,0,,0,10,10,93,1,3,word,CEREMONY,cursive,ceremony_c.png,,,,,,
,,,,32105,001,2025-12-02_09h26.58.940,HW_LDT_1,2024.2.4,MacIntel,60.24096386,,,,,,,,,,,,,,,,,,,,,144.5219,144.7213,144.7213,145.2214,,,,,,,,,,,,,,4.3672,1,,,,,,,,,,,,,,z,,,,,,,,,,,,,,,12,0,145.2216,149.5892,z,1,4.3672,,[],[],[],[],[],[],[],149.5892,151.588,151.588,151.5881,[],[],[],[],[],[],[],,151.5882,151.5882,0.023572049,-0.346588542,0,0,0,,0,11,11,17,1,3,RL,motide,cursive,motide_c.png,,,,,,
,,,,32105,001,2025-12-02_09h26.58.940,HW_LDT_1,2024.2.4,MacIntel,60.24096386,,,,,,,,,,,,,,,,,,,,,151.5887,151.7879,151.7879,152.288,,,,,,,,,,,,,,2.7163,1,,,,,,,,,,,,,,m,,,,,,,,,,,,,,,13,0,152.2882,155.005,m,1,2.7163,,[],[],[],[],[],[],[],155.005,157.0037,157.0037,157.0039,[],[],[],[],[],[],[],,157.0039,157.0039,0.023572049,-0.346588542,0,0,0,,0,12,12,149,1,3,word,SENATOR,cursive,senator_c.png,,,,,,
,,,,32105,001,2025-12-02_09h26.58.940,HW_LDT_1,2024.2.4,MacIntel,60.24096386,,,,,,,,,,,,,,,,,,,,,157.0045,157.2046,157.2046,157.7046,,,,,,,,,,,,,,1.2999,1,,,,,,,,,,,,,,z,,,,,,,,,,,,,,,14,1,157.7049,159.0051,z,1,1.2999,,[],[],[],[],[],[],[],159.0051,161.0047,161.0047,168.654,[],[],[],[],[],[],[],m,168.6541,168.6541,0.023572049,-0.346588542,0,0,0,,0,13,13,2,1,3,RL,betemit,print,betemit_p.png,7.6489,,,,,
,,,,32105,001,2025-12-02_09h26.58.940,HW_LDT_1,2024.2.4,MacIntel,60.24096386,,,,,,,,,,,,,,,,,,,,,168.6546,168.8541,168.8542,169.3547,,,,,,,,,,,,,,1.5681,0,,,,,,,,,,,,,,z,,,,,,,,,,,,,,,15,0,169.3549,170.9235,m,0,1.5681,,[],[],[],[],[],[],[],170.9235,172.9213,172.9214,172.9215,[],[],[],[],[],[],[],,172.9215,172.9216,0.023572049,-0.346588542,0,0,0,,0,14,14,55,1,3,TL,mecidine,print,mecidine_p.png,,,,,,
,,,,32105,001,2025-12-02_09h26.58.940,HW_LDT_1,2024.2.4,MacIntel,60.24096386,,,,,,,,,,,,,,,,,,,,,172.9226,173.1213,173.1214,173.6215,,,,,,,,,,,,,,1.2175,1,,,,,,,,,,,,,,m,,,,,,,,,,,,,,,16,0,173.6218,174.8397,m,1,1.2175,,[],[],[],[],[],[],[],174.8397,176.8381,176.8381,176.8382,[],[],[],[],[],[],[],,176.8382,176.8382,0.023572049,-0.346588542,0,0,0,,0,15,15,113,1,3,word,LITERAL,print,literal_p.png,,,,,,
,,,,32105,001,2025-12-02_09h26.58.940,HW_LDT_1,2024.2.4,MacIntel,60.24096386,,,,,,,,,,,,,,,,,,,,,176.8389,177.0382,177.0382,177.5382,,,,,,,,,,,,,,0.6326,1,,,,,,,,,,,,,,m,,,,,,,,,,,,,,,17,0,177.5384,178.1715,m,1,0.6326,,[],[],[],[],[],[],[],178.1716,180.1713,180.1713,180.1714,[],[],[],[],[],[],[],,180.1714,180.1714,0.023572049,-0.346588542,0,0,0,,0,16,16,125,1,3,word,OPERATOR,print,operator_p.png,,,,,,
,,,,32105,001,2025-12-02_09h26.58.940,HW_LDT_1,2024.2.4,MacIntel,60.24096386,,,,,,,,,,,,,,,,,,,,,180.1718,180.3713,180.3713,180.8713,,,,,,,,,,,,,,0.7292,1,,,,,,,,,,,,,,m,,,,,,,,,,,,,,,18,0,180.8716,181.6019,m,1,0.7292,,[],[],[],[],[],[],[],181.6019,183.6049,183.6049,183.605,[],[],[],[],[],[],[],,183.605,183.605,0.023572049,-0.346588542,0,0,0,,0,17,17,152,1,3,word,SPECIMEN,print,specimen_p.png,,,,,,
,,,,32105,001,2025-12-02_09h26.58.940,HW_LDT_1,2024.2.4,MacIntel,60.24096386,,,,,,,,,,,,,,,,,,,,,183.6072,183.7994,183.7995,184.3048,,,,,,,,,,,,,,1.6661,1,,,,,,,,,,,,,,m,,,,,,,,,,,,,,,19,0,184.3051,185.9718,m,1,1.6661,,[],[],[],[],[],[],[],185.9718,187.9714,187.9714,187.9715,[],[],[],[],[],[],[],,187.9715,187.9715,0.023572049,-0.346588542,0,0,0,,0,18,18,92,1,3,word,CATEGORY,cursive,category_c.png,,,,,,
,,,,32105,001,2025-12-02_09h26.58.940,HW_LDT_1,2024.2.4,MacIntel,60.24096386,,,,,,,,,,,,,,,,,,,,,187.9721,188.1714,188.1714,188.6708,,,,,,,,,,,,,,0.75,1,,,,,,,,,,,,,,m,,,,,,,,,,,,,,,20,0,188.6711,189.4214,m,1,0.75,,[],[],[],[],[],[],[],189.4214,191.4214,191.4215,191.4215,[],[],[],[],[],[],[],,191.4215,191.4216,0.023572049,-0.346588542,0,0,0,,0,19,19,96,1,3,word,CONSIDER,print,consider_p.png,,,,,,
,,,,32105,001,2025-12-02_09h26.58.940,HW_LDT_1,2024.2.4,MacIntel,60.24096386,,,,,,,,,,,,,,,,,,,,,191.422,191.6213,191.6213,192.1215,,,,,,,,,,,,,,1.2332,0,,,,,,,,,,,,,,z,,,,,,,,,,,,,,,21,0,192.1217,193.3552,m,0,1.2332,9.99999E-05,[],[],[],[],[],[],[],193.3553,195.3538,195.3538,195.3538,[],[],[],[],[],[],[],,195.3538,195.3539,0.023572049,-0.346588542,0,0,0,,0,20,20,42,1,3,TL,detabe,cursive,detabe_c.png,,,,,,
,,,,32105,001,2025-12-02_09h26.58.940,HW_LDT_1,2024.2.4,MacIntel,60.24096386,,,,,,,,,,,,,,,,,,,,,195.3543,195.5548,195.5548,196.0542,,,,,,,,,,,,,,0.7833,1,,,,,,,,,,,,,,m,,,,,,,,,,,,,,,22,0,196.0545,196.8384,m,1,0.7833,,[],[],[],[],[],[],[],196.8384,198.8381,198.8382,198.8382,[],[],[],[],[],[],[],,198.8382,198.8382,0.023572049,-0.346588542,0,0,0,,0,21,21,94,1,3,word,CLINICAL,print,clinical_p.png,,,,,,
,,,,32105,001,2025-12-02_09h26.58.940,HW_LDT_1,2024.2.4,MacIntel,60.24096386,,,,,,,,,,,,,,,,,,,,,198.8387,199.0381,199.0381,199.5381,,,,,,,,,,,,,,0.7001,1,,,,,,,,,,,,,,m,,,,,,,,,,,,,,,23,1,199.5383,200.2386,m,1,0.7001,,[],[],[],[],[],[],[],200.2387,202.238,202.238,206.1685,[],[],[],[],[],[],[],m,206.1685,206.1686,0.023572049,-0.346588542,0,0,0,,0,22,22,104,1,3,word,DOMINANT,print,dominant_p.png,3.9302,,,,,
,,,,32105,001,2025-12-02_09h26.58.940,HW_LDT_1,2024.2.4,MacIntel,60.24096386,,,,,,,,,,,,,,,,,,,,,206.1691,206.3659,206.3659,206.8714,,,,,,,,,,,,,,0.9664,1,,,,,,,,,,,,,,m,,,,,,,,,,,,,,,24,0,206.8717,207.8384,m,1,0.9664,,[],[],[],[],[],[],[],207.8384,209.8382,209.8382,209.8383,[],[],[],[],[],[],[],,209.8383,209.8383,0.023572049,-0.346588542,0,0,0,,0,23,23,134,1,3,word,QUALIFY,print,qualify_p.png,,,,,,
,,,,32105,001,2025-12-02_09h26.58.940,HW_LDT_1,2024.2.4,MacIntel,60.24096386,,,,,,,,,,,,,,,,,,,,,209.8389,210.0381,210.0381,210.5381,,,,,,,,,,,,,,1.355,1,,,,,,,,,,,,,,m,,,,,,,,,,,,,,,25,0,210.5383,211.8936,m,1,1.355,,[],[],[],[],[],[],[],211.8936,213.8882,213.8883,213.8884,[],[],[],[],[],[],[],,213.8884,213.8884,0.023572049,-0.346588542,0,0,0,,0,24,24,128,1,3,word,PACIFIC,cursive,pacific_c.png,,,,,,
,,,,32105,001,2025-12-02_09h26.58.940,HW_LDT_1,2024.2.4,MacIntel,60.24096386,,,,,,,,,,,,,,,,,,,,,213.8889,214.0881,214.0881,214.5881,,,,,,,,,,,,,,3.1828,1,,,,,,,,,,,,,,z,,,,,,,,,,,,,,,26,0,214.5884,217.7718,z,1,3.1828,,[],[],[],[],[],[],[],217.7718,219.7715,219.7715,219.7715,[],[],[],[],[],[],[],,219.7716,219.7716,0.023572049,-0.346588542,0,0,0,,0,25,25,11,1,3,RL,ebiwent,cursive,ebiwent_c.png,,,,,,
,,,,32105,001,2025-12-02_09h26.58.940,HW_LDT_1,2024.2.4,MacIntel,60.24096386,,,,,,,,,,,,,,,,,,,,,219.772,219.9705,219.9705,220.4715,,,,,,,,,,,,,,1.0181,1,,,,,,,,,,,,,,m,,,,,,,,,,,,,,,27,0,220.4717,221.4902,m,1,1.0181,,[],[],[],[],[],[],[],221.4902,223.4881,223.4881,223.4882,[],[],[],[],[],[],[],,223.4882,223.4882,0.023572049,-0.346588542,0,0,0,,0,26,26,103,1,3,word,DISPUTE,print,dispute_p.png,,,,,,
,,,,32105,001,2025-12-02_09h26.58.940,HW_LDT_1,2024.2.4,MacIntel,60.24096386,,,,,,,,,,,,,,,,,,,,,223.4889,223.6882,223.6882,224.1881,,,,,,,,,,,,,,0.8331,1,,,,,,,,,,,,,,m,,,,,,,,,,,,,,,28,1,224.1884,225.0218,m,1,0.8331,,[],[],[],[],[],[],[],225.0218,227.0216,227.0216,229.9058,[],[],[],[],[],[],[],z,229.9058,229.9058,0.130833333,-0.229934896,0,0,0,,0,27,27,115,1,3,word,LOGICAL,cursive,logical_c.png,2.884,,,,,
,,,,32105,001,2025-12-02_09h26.58.940,HW_LDT_1,2024.2.4,MacIntel,60.24096386,,,,,,,,,,,,,,,,,,,,,229.9064,230.1048,230.1048,230.6048,,,,,,,,,,,,,,2.6665,1,,,,,,,,,,,,,,m,,,,,,,,,,,,,,,29,0,230.6051,233.2723,m,1,2.6665,,[],[],[],[],[],[],[],233.2723,235.2715,235.2715,235.2716,[],[],[],[],[],[],[],,235.2717,235.2717,0.130833333,-0.229934896,0,0,0,,0,28,28,101,1,3,word,DELICATE,print,delicate_p.png,,,,,,
,,,,32105,001,2025-12-02_09h26.58.940,HW_LDT_1,2024.2.4,MacIntel,60.24096386,,,,,,,,,,,,,,,,,,,,,235.2728,235.4715,235.4716,235.9716,,,,,,,,,,,,,,3.5831,1,,,,,,,,,,,,,,z,,,,,,,,,,,,,,,30,0,235.9718,239.556,z,1,3.5831,,[],[],[],[],[],[],[],239.556,241.5549,241.555,241.5552,[],[],[],[],[],[],[],,241.5553,241.5554,0.130833333,-0.229934896,0,0,0,,0,29,29,12,1,3,RL,formuke,cursive,formuke_c.png,,,,,,
,,,,32105,001,2025-12-02_09h26.58.940,HW_LDT_1,2024.2.4,MacIntel,60.24096386,,,,,,,,,,,,,,,,,,,,,241.5566,241.7548,241.7548,242.2556,,,,,,,,,,,,,,11.1832,1,,,,,,,,,,,,,,m,,,,,,,,,,,,,,,31,0,242.256,253.4403,m,1,11.1832,,[],[],[],[],[],[],[],253.4404,255.4383,255.4383,255.4384,[],[],[],[],[],[],[],,255.4385,255.4385,0.155238715,-0.175455729,0,0,0,,0,30,30,157,1,3,word,VALIDITY,cursive,validity_c.png,,,,,,
,,,,32105,001,2025-12-02_09h26.58.940,HW_LDT_1,2024.2.4,MacIntel,60.24096386,,,,,,,,,,,,,,,,,,,,,255.4447,255.6269,255.6269,256.1382,,,,,,,,,,,,,,3.7934,1,,,,,,,,,,,,,,m,,,,,,,,,,,,,,,32,0,256.1386,259.9323,m,1,3.7934,,[],[],[],[],[],[],[],259.9323,261.9215,261.9215,261.9215,[],[],[],[],[],[],[],,261.9215,261.9216,0.155238715,-0.175455729,0,0,0,,0,31,31,136,1,3,word,RADICAL,cursive,radical_c.png,,,,,,
,,,,32105,001,2025-12-02_09h26.58.940,HW_LDT_1,2024.2.4,MacIntel,60.24096386,,,,,,,,,,,,,,,,,,,,,261.922,262.1215,262.1215,262.6206,,,,,,,,,,,,,,1.2676,1,,,,,,,,,,,,,,m,,,,,,,,,,,,,,,33,1,262.6206,263.8887,m,1,1.2676,,[],[],[],[],[],[],[],263.8887,265.8887,265.8889,499.5982,[0.28184027777777776],[-0.27643229166666666],[1],[0],[0],[233.7089000000953],"[""button_right_probe""]",,499.5983,499.5984,0.281840278,-0.276432292,1,0,0,,0,32,32,97,1,3,word,COVERAGE,print,coverage_p.png,,,,,,
,,,,32105,001,2025-12-02_09h26.58.940,HW_LDT_1,2024.2.4,MacIntel,60.24096386,,,,,,,,,,,,,,,,,,,,,499.6025,499.7919,499.7919,500.2977,,,,,,,,,,,,,,3.1079,1,,,,,,,,,,,,,,z,,,,,,,,,,,,,,,34,0,500.2989,503.4082,z,1,3.1079,,[],[],[],[],[],[],[],503.4083,505.4067,505.4068,505.4069,[],[],[],[],[],[],[],,505.4069,505.407,0.071171875,-0.230360243,0,0,0,,0,33,33,67,1,3,TL,retome,print,retome_p.png,,,,,,
,,,,32105,001,2025-12-02_09h26.58.940,HW_LDT_1,2024.2.4,MacIntel,60.24096386,,,,,,,,,,,,,,,,,,,,,505.4076,505.6069,505.6069,506.1068,,,,,,,,,,,,,,1.3827,1,,,,,,,,,,,,,,m,,,,,,,,,,,,,,,35,0,506.1069,507.4901,m,1,1.3827,,[],[],[],[],[],[],[],507.4901,509.4892,509.4893,509.4893,[],[],[],[],[],[],[],,509.4894,509.4894,0.071171875,-0.230360243,0,0,0,,0,34,34,141,1,3,word,RELIGION,print,religion_p.png,,,,,,
,,,,32105,001,2025-12-02_09h26.58.940,HW_LDT_1,2024.2.4,MacIntel,60.24096386,,,,,,,,,,,,,,,,,,,,,509.4898,509.6902,509.6902,510.1895,,,,,,,,,,,,,,0.7664,1,,,,,,,,,,,,,,m,,,,,,,,,,,,,,,36,0,510.1897,510.9565,m,1,0.7664,,[],[],[],[],[],[],[],510.9565,512.9569,512.957,512.957,[],[],[],[],[],[],[],,512.957,512.957,0.071171875,-0.230360243,0,0,0,,0,35,35,147,1,3,word,ROMANTIC,cursive,romantic_c.png,,,,,,
,,,,32105,001,2025-12-02_09h26.58.940,HW_LDT_1,2024.2.4,MacIntel,60.24096386,,,,,,,,,,,,,,,,,,,,,512.9575,513.1561,513.1561,513.6569,,,,,,,,,,,,,,0.6326,1,,,,,,,,,,,,,,m,,,,,,,,,,,,,,,37,1,513.6573,514.2902,m,1,0.6326,,[],[],[],[],[],[],[],514.2902,516.2902,516.2902,517.7402,[],[],[],[],[],[],[],m,517.7403,517.7403,0.071171875,-0.230360243,0,0,0,,0,36,36,118,1,3,word,MEDICINE,print,medicine_p.png,1.4495,,,,,
,,,,32105,001,2025-12-02_09h26.58.940,HW_LDT_1,2024.2.4,MacIntel,60.24096386,,,,,,,,,,,,,,,,,,,,,517.7408,517.9402,517.9402,518.4402,,,,,,,,,,,,,,1.6996,1,,,,,,,,,,,,,,m,,,,,,,,,,,,,,,38,0,518.4404,520.1403,m,1,1.6996,,[],[],[],[],[],[],[],520.1403,522.1403,522.1403,522.1404,[],[],[],[],[],[],[],,522.1404,522.1404,0.071171875,-0.230360243,0,0,0,,0,37,37,153,1,3,word,STOLEN,cursive,stolen_c.png,,,,,,
,,,,32105,001,2025-12-02_09h26.58.940,HW_LDT_1,2024.2.4,MacIntel,60.24096386,,,,,,,,,,,,,,,,,,,,,522.1409,522.3403,522.3403,522.8403,,,,,,,,,,,,,,2.166,1,,,,,,,,,,,,,,m,,,,,,,,,,,,,,,39,0,522.8406,525.0071,m,1,2.166,,[],[],[],[],[],[],[],525.0071,527.007,527.0071,527.0071,[],[],[],[],[],[],[],,527.0071,527.0071,0.071171875,-0.230360243,0,0,0,,0,38,38,146,1,3,word,RETIRE,print,retire_p.png,,,,,,
,,,,32105,001,2025-12-02_09h26.58.940,HW_LDT_1,2024.2.4,MacIntel,60.24096386,,,,,,,,,,,,,,,,,,,,,527.0075,527.2069,527.207,527.707,,,,,,,,,,,,,,0.8994,1,,,,,,,,,,,,,,m,,,,,,,,,,,,,,,40,0,527.7072,528.6069,m,1,0.8994,,[],[],[],[],[],[],[],528.607,530.607,530.607,530.6071,[],[],[],[],[],[],[],,530.6071,530.6072,0.071171875,-0.230360243,0,0,0,,0,39,39,138,1,3,word,REFUSAL,print,refusal_p.png,,,,,,
,,,,32105,001,2025-12-02_09h26.58.940,HW_LDT_1,2024.2.4,MacIntel,60.24096386,,,,,,,,,,,,,,,,,,,,,530.6076,530.8071,530.8071,531.307,,,,,,,,,,,,,,4.0594,1,,,,,,,,,,,,,,m,,,,,,,,,,,,,,,41,0,531.3072,535.3672,m,1,4.0594,,[],[],[],[],[],[],[],535.3681,537.3571,537.3571,537.3573,[],[],[],[],[],[],[],,537.3573,537.3573,0.071171875,-0.230360243,0,0,0,,0,40,40,126,1,3,word,OPTIMAL,cursive,optimal_c.png,,,,,,
,,,,32105,001,2025-12-02_09h26.58.940,HW_LDT_1,2024.2.4,MacIntel,60.24096386,,,,,,,,,,,,,,,,,,,,,537.3585,537.5572,537.5572,538.0572,,,,,,,,,,,,,,0.7828,0,,,,,,,,,,,,,,z,,,,,,,,,,,,,,,42,0,538.0575,538.8406,m,0,0.7828,,[],[],[],[],[],[],[],538.8407,540.8405,540.8405,540.8406,[],[],[],[],[],[],[],,540.8406,540.8406,0.071171875,-0.230360243,0,0,0,,0,41,41,39,1,3,TL,clicinal,print,clicinal_p.png,,,,,,
,,,,32105,001,2025-12-02_09h26.58.940,HW_LDT_1,2024.2.4,MacIntel,60.24096386,,,,,,,,,,,,,,,,,,,,,540.8411,541.0405,541.0405,541.5409,,,,,,,,,,,,,,0.8157,0,,,,,,,,,,,,,,z,,,,,,,,,,,,,,,43,0,541.541,542.3572,m,0,0.8157,,[],[],[],[],[],[],[],542.3572,544.3573,544.3574,544.3575,[],[],[],[],[],[],[],,544.3575,544.3576,0.071171875,-0.230360243,0,0,0,,0,42,42,61,1,3,TL,pocily,print,pocily_p.png,,,,,,
,,,,32105,001,2025-12-02_09h26.58.940,HW_LDT_1,2024.2.4,MacIntel,60.24096386,,,,,,,,,,,,,,,,,,,,,544.3584,544.5571,544.5572,545.0571,,,,,,,,,,,,,,1.267,1,,,,,,,,,,,,,,z,,,,,,,,,,,,,,,44,1,545.0573,546.3247,z,1,1.267,,[],[],[],[],[],[],[],546.3247,548.3229,548.3229,550.4904,[],[],[],[],[],[],[],m,550.4904,550.4906,0.071171875,-0.230360243,0,0,0,,0,43,43,60,1,3,TL,panert,print,panert_p.png,2.1671,,,,,
,,,,32105,001,2025-12-02_09h26.58.940,HW_LDT_1,2024.2.4,MacIntel,60.24096386,,,,,,,,,,,,,,,,,,,,,550.491,550.6906,550.6906,551.1904,,,,,,,,,,,,,,3.0332,1,,,,,,,,,,,,,,z,,,,,,,,,,,,,,,45,1,551.1907,554.2241,z,1,3.0332,,[],[],[],[],[],[],[],554.2242,556.2238,556.2238,558.0755,[],[],[],[],[],[],[],m,558.0755,558.0755,0.071171875,-0.230360243,0,0,0,,0,44,44,25,1,3,RL,retupar,print,retupar_p.png,1.8513,,,,,
,,,,32105,001,2025-12-02_09h26.58.940,HW_LDT_1,2024.2.4,MacIntel,60.24096386,,,,,,,,,,,,,,,,,,,,,558.0767,558.2739,558.2739,558.774,,,,,,,,,,,,,,1.6994,0,,,,,,,,,,,,,,z,,,,,,,,,,,,,,,46,1,558.7742,560.4739,m,0,1.6994,,[],[],[],[],[],[],[],560.474,562.474,562.474,563.8463,[],[],[],[],[],[],[],m,563.8463,563.8463,0.071171875,-0.230360243,0,0,0,,0,45,45,58,1,3,TL,nuremical,print,nuremical_p.png,1.3719,,,,,
,,,,32105,001,2025-12-02_09h26.58.940,HW_LDT_1,2024.2.4,MacIntel,60.24096386,,,,,,,,,,,,,,,,,,,,,563.8469,564.0407,564.0408,564.5406,,,,,,,,,,,,,,0.7163,1,,,,,,,,,,,,,,m,,,,,,,,,,,,,,,47,0,564.5408,565.2575,m,1,0.7163,,[],[],[],[],[],[],[],565.2576,567.2572,567.2572,567.2573,[],[],[],[],[],[],[],,567.2573,567.2573,0.071171875,-0.230360243,0,0,0,,0,46,46,105,1,3,word,EDITOR,print,editor_p.png,,,,,,
,,,,32105,001,2025-12-02_09h26.58.940,HW_LDT_1,2024.2.4,MacIntel,60.24096386,,,,,,,,,,,,,,,,,,,,,567.2577,567.4572,567.4573,567.9574,,,,,,,,,,,,,,0.6493,1,,,,,,,,,,,,,,m,,,,,,,,,,,,,,,48,1,567.9576,568.6073,m,1,0.6493,,[],[],[],[],[],[],[],568.6073,570.6073,570.6074,571.1908,[],[],[],[],[],[],[],m,571.1908,571.1908,0.071171875,-0.230360243,0,0,0,,0,47,47,106,1,3,word,ELABORATE,print,elaborate_p.png,0.5832,,,,,
,,,,32105,001,2025-12-02_09h26.58.940,HW_LDT_1,2024.2.4,MacIntel,60.24096386,,,,,,,,,,,,,,,,,,,,,571.1912,571.3907,571.3907,571.8907,,,,,,,,,,,,,,2.2339,0,,,,,,,,,,,,,,z,,,,,,,,,,,,,,,49,0,571.8908,574.1251,m,0,2.2339,,[],[],[],[],[],[],[],574.1251,576.1239,576.1239,576.124,[],[],[],[],[],[],[],,576.124,576.1241,0.071171875,-0.230360243,0,0,0,,0,48,48,48,1,3,TL,grafetul,cursive,grafetul_c.png,,,,,,
,,,,32105,001,2025-12-02_09h26.58.940,HW_LDT_1,2024.2.4,MacIntel,60.24096386,,,,,,,,,,,,,,,,,,,,,576.1251,576.3241,576.3241,576.8239,,,,,,,,,,,,,,0.8663,1,,,,,,,,,,,,,,m,,,,,,,,,,,,,,,50,0,576.8242,577.6909,m,1,0.8663,,[],[],[],[],[],[],[],577.691,579.6906,579.6906,579.6906,[],[],[],[],[],[],[],,579.6906,579.6907,0.071171875,-0.230360243,0,0,0,,0,49,49,88,1,3,word,CAMERA,cursive,camera_c.png,,,,,,
,,,,32105,001,2025-12-02_09h26.58.940,HW_LDT_1,2024.2.4,MacIntel,60.24096386,,,,,,,,,,,,,,,,,,,,,579.6911,579.8907,579.8907,580.3907,,,,,,,,,,,,,,0.6996,0,,,,,,,,,,,,,,z,,,,,,,,,,,,,,,51,0,580.3909,581.0909,m,0,0.6996,,[],[],[],[],[],[],[],581.0909,583.0907,583.0908,583.0909,[],[],[],[],[],[],[],,583.0909,583.0909,0.071171875,-0.230360243,0,0,0,,0,50,50,56,1,3,TL,meromy,print,meromy_p.png,,,,,,
,,,,32105,001,2025-12-02_09h26.58.940,HW_LDT_1,2024.2.4,MacIntel,60.24096386,,,,,,,,,,,,,,,,,,,,,583.0913,583.2907,583.2908,583.7906,,,,,,,,,,,,,,1.2328,1,,,,,,,,,,,,,,m,,,,,,,,,,,,,,,52,0,583.7908,585.024,m,1,1.2328,,[],[],[],[],[],[],[],585.024,587.0239,587.0239,587.024,[],[],[],[],[],[],[],,587.024,587.024,0.071171875,-0.230360243,0,0,0,,0,51,51,111,1,3,word,INDICATE,print,indicate_p.png,,,,,,
,,,,32105,001,2025-12-02_09h26.58.940,HW_LDT_1,2024.2.4,MacIntel,60.24096386,,,,,,,,,,,,,,,,,,,,,587.0244,587.224,587.224,587.724,,,,,,,,,,,,,,0.7152,0,,,,,,,,,,,,,,z,,,,,,,,,,,,,,,53,0,587.7242,588.4406,m,0,0.7152,,[],[],[],[],[],[],[],588.4406,590.4407,590.4407,590.4408,[],[],[],[],[],[],[],,590.4408,590.4408,0.071171875,-0.230360243,0,0,0,,0,52,52,51,1,3,TL,liretal,print,liretal_p.png,,,,,,
,,,,32105,001,2025-12-02_09h26.58.940,HW_LDT_1,2024.2.4,MacIntel,60.24096386,,,,,,,,,,,,,,,,,,,,,590.4414,590.6408,590.6408,591.1408,,,,,,,,,,,,,,1.0399,0,,,,,,,,,,,,,,z,,,,,,,,,,,,,,,54,1,591.1409,592.1819,m,0,1.0399,,[],[],[],[],[],[],[],592.1819,594.1751,594.1752,595.7124,[],[],[],[],[],[],[],m,595.7125,595.7125,0.071171875,-0.230360243,0,0,0,,0,53,53,49,1,3,TL,incidate,print,incidate_p.png,1.5368,,,,,
,,,,32105,001,2025-12-02_09h26.58.940,HW_LDT_1,2024.2.4,MacIntel,60.24096386,,,,,,,,,,,,,,,,,,,,,595.7136,595.9073,595.9074,596.4074,,,,,,,,,,,,,,0.8993,1,,,,,,,,,,,,,,m,,,,,,,,,,,,,,,55,0,596.4078,597.3074,m,1,0.8993,,[],[],[],[],[],[],[],597.3075,599.3073,599.3074,599.3074,[],[],[],[],[],[],[],,599.3074,599.3074,0.071171875,-0.230360243,0,0,0,,0,54,54,142,1,3,word,REMOTE,print,remote_p.png,,,,,,
,,,,32105,001,2025-12-02_09h26.58.940,HW_LDT_1,2024.2.4,MacIntel,60.24096386,,,,,,,,,,,,,,,,,,,,,599.3079,599.5074,599.5074,600.0075,,,,,,,,,,,,,,1.9495,1,,,,,,,,,,,,,,z,,,,,,,,,,,,,,,56,0,600.0077,601.9576,z,1,1.9495,,[],[],[],[],[],[],[],601.9576,603.9575,603.9575,603.9576,[],[],[],[],[],[],[],,603.9576,603.9576,0.071171875,-0.230360243,0,0,0,,0,55,55,15,1,3,RL,mifikary,cursive,mifikary_c.png,,,,,,
,,,,32105,001,2025-12-02_09h26.58.940,HW_LDT_1,2024.2.4,MacIntel,60.24096386,,,,,,,,,,,,,,,,,,,,,603.9582,604.1574,604.1574,604.6575,,,,,,,,,,,,,,3.767,1,,,,,,,,,,,,,,z,,,,,,,,,,,,,,,57,0,604.6577,608.4251,z,1,3.767,,[],[],[],[],[],[],[],608.4252,610.4241,610.4242,610.4242,[],[],[],[],[],[],[],,610.4242,610.4243,0.071171875,-0.230360243,0,0,0,,0,56,56,33,1,3,TL,adsivory,print,adsivory_p.png,,,,,,
,,,,32105,001,2025-12-02_09h26.58.940,HW_LDT_1,2024.2.4,MacIntel,60.24096386,,,,,,,,,,,,,,,,,,,,,610.4253,610.6253,610.6253,611.1241,,,,,,,,,,,,,,0.5827,0,,,,,,,,,,,,,,m,,,,,,,,,,,,,,,58,0,611.1244,611.7074,z,0,0.5827,,[],[],[],[],[],[],[],611.7074,613.707,613.707,613.7071,[],[],[],[],[],[],[],,613.7071,613.7071,0.071171875,-0.230360243,0,0,0,,0,57,57,135,1,3,word,QUALITY,print,quality_p.png,,,,,,
,,,,32105,001,2025-12-02_09h26.58.940,HW_LDT_1,2024.2.4,MacIntel,60.24096386,,,,,,,,,,,,,,,,,,,,,613.7075,613.9075,613.9075,614.4075,,,,,,,,,,,,,,1.8662,1,,,,,,,,,,,,,,m,,,,,,,,,,,,,,,59,0,614.4077,616.2744,m,1,1.8662,,[],[],[],[],[],[],[],616.2744,618.2741,618.2741,618.2743,[],[],[],[],[],[],[],,618.2743,618.2743,0.071171875,-0.230360243,0,0,0,,0,58,58,90,1,3,word,CAPITAL,cursive,capital_c.png,,,,,,
,,,,32105,001,2025-12-02_09h26.58.940,HW_LDT_1,2024.2.4,MacIntel,60.24096386,,,,,,,,,,,,,,,,,,,,,618.2747,618.4742,618.4742,618.9742,,,,,,,,,,,,,,0.9331,1,,,,,,,,,,,,,,m,,,,,,,,,,,,,,,60,0,618.9744,619.9078,m,1,0.9331,,[],[],[],[],[],[],[],619.9078,621.9075,621.9076,621.9076,[],[],[],[],[],[],[],,621.9076,621.9077,0.071171875,-0.230360243,0,0,0,,0,59,59,132,1,3,word,PROPOSAL,print,proposal_p.png,,,,,,
,,,,32105,001,2025-12-02_09h26.58.940,HW_LDT_1,2024.2.4,MacIntel,60.24096386,,,,,,,,,,,,,,,,,,,,,621.9081,622.1076,622.1076,622.6084,,,,,,,,,,,,,,1.6317,1,,,,,,,,,,,,,,z,,,,,,,,,,,,,,,61,0,622.6093,624.2415,z,1,1.6317,,[],[],[],[],[],[],[],624.2415,626.2408,626.2409,626.241,[],[],[],[],[],[],[],,626.241,626.241,0.071171875,-0.230360243,0,0,0,,0,60,60,27,1,3,RL,recile,print,recile_p.png,,,,,,
,,,,32105,001,2025-12-02_09h26.58.940,HW_LDT_1,2024.2.4,MacIntel,60.24096386,,,,,,,,,,,,,,,,,,,,,626.2421,626.4295,626.4295,626.9409,,,,,,,,,,,,,,0.966,0,,,,,,,,,,,,,,z,,,,,,,,,,,,,,,62,0,626.9412,627.9077,m,0,0.966,,[],[],[],[],[],[],[],627.9077,629.9076,629.9077,629.9077,[],[],[],[],[],[],[],,629.9078,629.9078,0.071171875,-0.230360243,0,0,0,,0,61,61,38,1,3,TL,carnidal,print,carnidal_p.png,,,,,,
,,,,32105,001,2025-12-02_09h26.58.940,HW_LDT_1,2024.2.4,MacIntel,60.24096386,,,,,,,,,,,,,,,,,,,,,629.9085,630.1076,630.1076,630.6076,,,,,,,,,,,,,,1.417,1,,,,,,,,,,,,,,z,,,,,,,,,,,,,,,63,0,630.608,632.0253,z,1,1.417,,[],[],[],[],[],[],[],632.0254,634.0242,634.0242,634.0243,[],[],[],[],[],[],[],,634.0244,634.0244,0.071171875,-0.230360243,0,0,0,,0,62,62,29,1,3,RL,selamor,cursive,selamor_c.png,,,,,,
,,,,32105,001,2025-12-02_09h26.58.940,HW_LDT_1,2024.2.4,MacIntel,60.24096386,,,,,,,,,,,,,,,,,,,,,634.0249,634.2242,634.2242,634.7242,,,,,,,,,,,,,,2.1995,1,,,,,,,,,,,,,,m,,,,,,,,,,,,,,,64,0,634.7245,636.9243,m,1,2.1995,,[],[],[],[],[],[],[],636.9243,638.9243,638.9243,638.9243,[],[],[],[],[],[],[],,638.9243,638.9244,0.071171875,-0.230360243,0,0,0,,0,63,63,108,1,3,word,FORTUNE,cursive,fortune_c.png,,,,,,
,,,,32105,001,2025-12-02_09h26.58.940,HW_LDT_1,2024.2.4,MacIntel,60.24096386,,,,,,,,,,,,,,,,,,,,,638.9257,639.1242,639.1243,639.6242,,,,,,,,,,,,,,0.8362,1,,,,,,,,,,,,,,m,,,,,,,,,,,,,,,65,0,639.6245,640.4613,m,1,0.8362,,[],[],[],[],[],[],[],640.4614,642.4575,642.4575,642.4575,[],[],[],[],[],[],[],,642.4575,642.4575,0.071171875,-0.230360243,0,0,0,,0,64,64,83,1,3,word,ANIMAL,cursive,animal_c.png,,,,,,
,,,,32105,001,2025-12-02_09h26.58.940,HW_LDT_1,2024.2.4,MacIntel,60.24096386,,,,,,,,,,,,,,,,,,,,,642.458,642.6576,642.6576,643.1576,,,,,,,,,,,,,,2.4102,1,,,,,,,,,,,,,,z,,,,,,,,,,,,,,,66,1,643.1578,645.5691,z,1,2.4102,,[],[],[],[],[],[],[],645.5691,647.5574,647.5575,651.9951,[],[],[],[],[],[],[],z,651.9951,651.9952,0.071171875,-0.230360243,0,0,0,,0,65,65,47,1,3,TL,elarobate,print,elarobate_p.png,4.4373,,,,,
,,,,32105,001,2025-12-02_09h26.58.940,HW_LDT_1,2024.2.4,MacIntel,60.24096386,,,,,,,,,,,,,,,,,,,,,651.9962,652.191,652.191,652.6909,,,,,,,,,,,,,,0.7664,1,,,,,,,,,,,,,,m,,,,,,,,,,,,,,,67,0,652.6911,653.4579,m,1,0.7664,,[],[],[],[],[],[],[],653.4579,655.4577,655.4577,655.4578,[],[],[],[],[],[],[],,655.4578,655.4578,0.071171875,-0.230360243,0,0,0,,0,66,66,151,1,3,word,SPECIFIC,print,specific_p.png,,,,,,
,,,,32105,001,2025-12-02_09h26.58.940,HW_LDT_1,2024.2.4,MacIntel,60.24096386,,,,,,,,,,,,,,,,,,,,,655.4583,655.6566,655.6566,656.1576,,,,,,,,,,,,,,1.6824,1,,,,,,,,,,,,,,z,,,,,,,,,,,,,,,68,0,656.1578,657.8407,z,1,1.6824,,[],[],[],[],[],[],[],657.8407,659.8362,659.8363,659.8364,[],[],[],[],[],[],[],,659.8364,659.8364,0.071171875,-0.230360243,0,0,0,,0,67,67,20,1,3,RL,orimipal,cursive,orimipal_c.png,,,,,,
,,,,32105,001,2025-12-02_09h26.58.940,HW_LDT_1,2024.2.4,MacIntel,60.24096386,,,,,,,,,,,,,,,,,,,,,659.8372,660.0307,660.0307,660.5243,,,,,,,,,,,,,,0.693,0,,,,,,,,,,,,,,z,,,,,,,,,,,,,,,69,1,660.5246,661.2182,m,0,0.693,,[],[],[],[],[],[],[],661.2182,663.2075,663.2076,669.258,[],[],[],[],[],[],[],z,669.258,669.2581,0.071171875,-0.230360243,0,0,0,,0,68,68,65,1,3,TL,resufal,print,resufal_p.png,6.0501,,,,,
,,,,32105,001,2025-12-02_09h26.58.940,HW_LDT_1,2024.2.4,MacIntel,60.24096386,,,,,,,,,,,,,,,,,,,,,669.259,669.4577,669.4577,669.9587,,,,,,,,,,,,,,0.8481,0,,,,,,,,,,,,,,z,,,,,,,,,,,,,,,70,1,669.9592,670.8077,m,0,0.8481,,[],[],[],[],[],[],[],670.8078,672.8076,672.8076,674.7467,[],[],[],[],[],[],[],z,674.7467,674.7468,0.111831597,-0.276814236,0,0,0,,0,69,69,77,1,3,TL,vadility,cursive,vadility_c.png,1.9389,,,,,
,,,,32105,001,2025-12-02_09h26.58.940,HW_LDT_1,2024.2.4,MacIntel,60.24096386,,,,,,,,,,,,,,,,,,,,,674.7473,674.9452,674.9452,675.4451,,,,,,,,,,,,,,1.2675,1,,,,,,,,,,,,,,z,,,,,,,,,,,,,,,71,0,675.4453,676.7132,z,1,1.2675,,[],[],[],[],[],[],[],676.7133,678.7116,678.7117,678.7117,[],[],[],[],[],[],[],,678.7117,678.7118,0.111831597,-0.276814236,0,0,0,,0,70,70,9,1,3,RL,docirant,print,docirant_p.png,,,,,,
,,,,32105,001,2025-12-02_09h26.58.940,HW_LDT_1,2024.2.4,MacIntel,60.24096386,,,,,,,,,,,,,,,,,,,,,678.7128,678.9117,678.9117,679.4115,,,,,,,,,,,,,,0.7413,1,,,,,,,,,,,,,,m,,,,,,,,,,,,,,,72,0,679.4117,680.1534,m,1,0.7413,,[],[],[],[],[],[],[],680.1534,682.145,682.145,682.1451,[],[],[],[],[],[],[],,682.1451,682.1451,0.111831597,-0.276814236,0,0,0,,0,71,71,122,1,3,word,MOBILE,cursive,mobile_c.png,,,,,,
,,,,32105,001,2025-12-02_09h26.58.940,HW_LDT_1,2024.2.4,MacIntel,60.24096386,,,,,,,,,,,,,,,,,,,,,682.1456,682.3456,682.3456,682.845,,,,,,,,,,,,,,0.8974,1,,,,,,,,,,,,,,m,,,,,,,,,,,,,,,73,0,682.8452,683.7431,m,1,0.8974,,[],[],[],[],[],[],[],683.7431,685.7411,685.7411,685.7411,[],[],[],[],[],[],[],,685.7412,685.7412,0.111831597,-0.276814236,0,0,0,,0,72,72,127,1,3,word,ORIGINAL,cursive,original_c.png,,,,,,
,,,,32105,001,2025-12-02_09h26.58.940,HW_LDT_1,2024.2.4,MacIntel,60.24096386,,,,,,,,,,,,,,,,,,,,,685.7424,685.9292,685.9292,686.4403,,,,,,,,,,,,,,3.084,1,,,,,,,,,,,,,,z,,,,,,,,,,,,,,,74,0,686.4405,689.5251,z,1,3.084,,[],[],[],[],[],[],[],689.5252,691.5244,691.5244,691.5244,[],[],[],[],[],[],[],,691.5245,691.5245,0.111831597,-0.276814236,0,0,0,,0,73,73,57,1,3,TL,moredate,cursive,moredate_c.png,,,,,,
,,,,32105,001,2025-12-02_09h26.58.940,HW_LDT_1,2024.2.4,MacIntel,60.24096386,,,,,,,,,,,,,,,,,,,,,691.5251,691.7244,691.7244,692.2243,,,,,,,,,,,,,,1.0337,1,,,,,,,,,,,,,,z,,,,,,,,,,,,,,,75,0,692.2245,693.2586,z,1,1.0337,,[],[],[],[],[],[],[],693.2587,695.2578,695.2578,695.2579,[],[],[],[],[],[],[],,695.2579,695.258,0.111831597,-0.276814236,0,0,0,,0,74,74,71,1,3,TL,sanile,cursive,sanile_c.png,,,,,,
,,,,32105,001,2025-12-02_09h26.58.940,HW_LDT_1,2024.2.4,MacIntel,60.24096386,,,,,,,,,,,,,,,,,,,,,695.2592,695.4577,695.4577,695.9577,,,,,,,,,,,,,,0.7996,1,,,,,,,,,,,,,,m,,,,,,,,,,,,,,,76,0,695.9579,696.7578,m,1,0.7996,,[],[],[],[],[],[],[],696.7578,698.7576,698.7576,698.7578,[],[],[],[],[],[],[],,698.7578,698.7578,0.111831597,-0.276814236,0,0,0,,0,75,75,85,1,3,word,BENEFIT,print,benefit_p.png,,,,,,
,,,,32105,001,2025-12-02_09h26.58.940,HW_LDT_1,2024.2.4,MacIntel,60.24096386,,,,,,,,,,,,,,,,,,,,,698.7582,698.9577,698.9577,699.4577,,,,,,,,,,,,,,1.2324,1,,,,,,,,,,,,,,m,,,,,,,,,,,,,,,77,0,699.458,700.6907,m,1,1.2324,,[],[],[],[],[],[],[],700.6907,702.6909,702.6909,702.691,[],[],[],[],[],[],[],,702.691,702.6911,0.111831597,-0.276814236,0,0,0,,0,76,76,89,1,3,word,CAPACITY,cursive,capacity_c.png,,,,,,
,,,,32105,001,2025-12-02_09h26.58.940,HW_LDT_1,2024.2.4,MacIntel,60.24096386,,,,,,,,,,,,,,,,,,,,,702.6915,702.8909,702.8909,703.3914,,,,,,,,,,,,,,0.8129,0,,,,,,,,,,,,,,z,,,,,,,,,,,,,,,78,0,703.3917,704.2053,m,0,0.8129,,[],[],[],[],[],[],[],704.2054,706.2072,706.2072,706.2073,[],[],[],[],[],[],[],,706.2073,706.2073,0.111831597,-0.276814236,0,0,0,,0,77,77,79,1,3,TL,veretan,cursive,veretan_c.png,,,,,,
,,,,32105,001,2025-12-02_09h26.58.940,HW_LDT_1,2024.2.4,MacIntel,60.24096386,,,,,,,,,,,,,,,,,,,,,706.2082,706.4067,706.4068,706.9075,,,,,,,,,,,,,,1.7996,1,,,,,,,,,,,,,,z,,,,,,,,,,,,,,,79,1,706.9078,708.7077,z,1,1.7996,,[],[],[],[],[],[],[],708.7077,710.7076,710.7076,712.8054,[],[],[],[],[],[],[],z,712.8055,712.8055,0.111831597,-0.276814236,0,0,0,,0,78,78,24,1,3,RL,quafidy,print,quafidy_p.png,2.0973,,,,,
,,,,32105,001,2025-12-02_09h26.58.940,HW_LDT_1,2024.2.4,MacIntel,60.24096386,,,,,,,,,,,,,,,,,,,,,712.8062,712.9998,712.9998,713.5076,,,,,,,,,,,,,,4.4473,1,,,,,,,,,,,,,,z,,,,,,,,,,,,,,,80,0,713.5079,717.9559,z,1,4.4473,,[],[],[],[],[],[],[],717.956,719.9568,719.9569,719.957,[],[],[],[],[],[],[],,719.957,721.348,0.111831597,-0.276814236,0,0,0,space,0,79,79,63,1,3,TL,racidal,cursive,racidal_c.png,,,1.3763,,,
,,,,32105,001,2025-12-02_09h26.58.940,HW_LDT_1,2024.2.4,MacIntel,60.24096386,,,,,,,,,,,,,,,,,,,,,721.3491,721.5478,721.5478,722.0409,,,,,,,,,,,,,,3.1155,1,,,,,,,,,,,,,,z,,,,,,,,,,,,,,,81,0,722.0412,725.1598,z,1,3.1155,,[],[],[],[],[],[],[],725.1598,727.1603,727.1603,727.1604,[],[],[],[],[],[],[],,727.1604,727.1604,0.111831597,-0.276814236,0,0,0,,0,80,80,26,1,3,RL,repifion,print,repifion_p.png,,,,,,
,,,,32105,001,2025-12-02_09h26.58.940,HW_LDT_1,2024.2.4,MacIntel,60.24096386,,,,,,,,,,,,,,,,,,,,,727.1616,727.3575,727.3576,727.8576,,,,,,,,,,,,,,2.5893,1,,,,,,,,,,,,,,z,,,,,,,,,,,,,,,82,0,727.8578,730.448,z,1,2.5893,,[],[],[],[],[],[],[],730.4482,732.441,732.4411,732.4413,[],[],[],[],[],[],[],,732.4413,732.4414,0.111831597,-0.276814236,0,0,0,,0,81,81,6,1,3,RL,cenesony,cursive,cenesony_c.png,,,,,,
,,,,32105,001,2025-12-02_09h26.58.940,HW_LDT_1,2024.2.4,MacIntel,60.24096386,,,,,,,,,,,,,,,,,,,,,732.4429,732.6409,732.641,733.1408,,,,,,,,,,,,,,0.9984,1,,,,,,,,,,,,,,m,,,,,,,,,,,,,,,83,0,733.1412,734.1401,m,1,0.9984,,[],[],[],[],[],[],[],734.1402,736.1294,736.1294,736.1295,[],[],[],[],[],[],[],,736.1295,736.1295,0.111831597,-0.276814236,0,0,0,,0,82,82,80,1,3,word,ACADEMY,print,academy_p.png,,,,,,
,,,,32105,001,2025-12-02_09h26.58.940,HW_LDT_1,2024.2.4,MacIntel,60.24096386,,,,,,,,,,,,,,,,,,,,,736.1302,736.3207,736.3207,736.8281,,,,,,,,,,,,,,1.6451,1,,,,,,,,,,,,,,m,,,,,,,,,,,,,,,84,0,736.8287,738.4745,m,1,1.6451,,[],[],[],[],[],[],[],738.4745,740.4743,740.4743,740.4743,[],[],[],[],[],[],[],,740.4743,740.4743,0.111831597,-0.276814236,0,0,0,,0,83,83,159,1,3,word,VETERAN,cursive,veteran_c.png,,,,,,
,,,,32105,001,2025-12-02_09h26.58.940,HW_LDT_1,2024.2.4,MacIntel,60.24096386,,,,,,,,,,,,,,,,,,,,,740.4751,740.675,740.675,741.1743,,,,,,,,,,,,,,2.1482,1,,,,,,,,,,,,,,z,,,,,,,,,,,,,,,85,0,741.1746,743.3232,z,1,2.1482,,[],[],[],[],[],[],[],743.3233,745.3252,745.3252,745.3253,[],[],[],[],[],[],[],,745.3253,745.3254,0.111831597,-0.276814236,0,0,0,,0,84,84,53,1,3,TL,marnigal,print,marnigal_p.png,,,,,,
,,,,32105,001,2025-12-02_09h26.58.940,HW_LDT_1,2024.2.4,MacIntel,60.24096386,,,,,,,,,,,,,,,,,,,,,745.3262,745.5242,745.5242,746.0243,,,,,,,,,,,,,,0.7387,1,,,,,,,,,,,,,,m,,,,,,,,,,,,,,,86,0,746.0246,746.7637,m,1,0.7387,,[],[],[],[],[],[],[],746.7637,748.7575,748.7576,748.7576,[],[],[],[],[],[],[],,748.7577,748.7578,0.111831597,-0.276814236,0,0,0,,0,85,85,137,1,3,word,RAPIDLY,print,rapidly_p.png,,,,,,
,,,,32105,001,2025-12-02_09h26.58.940,HW_LDT_1,2024.2.4,MacIntel,60.24096386,,,,,,,,,,,,,,,,,,,,,748.7588,748.9614,748.9614,749.4465,,,,,,,,,,,,,,1.1413,1,,,,,,,,,,,,,,m,,,,,,,,,,,,,,,87,0,749.4468,750.5884,m,1,1.1413,,[],[],[],[],[],[],[],750.5885,752.5909,752.5909,752.5909,[],[],[],[],[],[],[],,752.5909,752.591,0.111831597,-0.276814236,0,0,0,,0,86,86,156,1,3,word,TRIBUTE,print,tribute_p.png,,,,,,
,,,,32105,001,2025-12-02_09h26.58.940,HW_LDT_1,2024.2.4,MacIntel,60.24096386,,,,,,,,,,,,,,,,,,,,,752.5916,752.7899,752.79,753.2924,,,,,,,,,,,,,,0.6675,1,,,,,,,,,,,,,,m,,,,,,,,,,,,,,,88,0,753.2936,753.9618,m,1,0.6675,,[],[],[],[],[],[],[],753.9619,755.9575,755.9576,755.9577,[],[],[],[],[],[],[],,755.9577,755.9577,0.111831597,-0.276814236,0,0,0,,0,87,87,95,1,3,word,COMEDY,print,comedy_p.png,,,,,,
,,,,32105,001,2025-12-02_09h26.58.940,HW_LDT_1,2024.2.4,MacIntel,60.24096386,,,,,,,,,,,,,,,,,,,,,755.9582,756.1577,756.1577,756.6572,,,,,,,,,,,,,,0.7343,1,,,,,,,,,,,,,,m,,,,,,,,,,,,,,,89,0,756.6575,757.3923,m,1,0.7343,,[],[],[],[],[],[],[],757.3923,759.3909,759.3909,759.391,[],[],[],[],[],[],[],,759.391,759.391,0.111831597,-0.276814236,0,0,0,,0,88,88,119,1,3,word,MEMORY,print,memory_p.png,,,,,,
,,,,32105,001,2025-12-02_09h26.58.940,HW_LDT_1,2024.2.4,MacIntel,60.24096386,,,,,,,,,,,,,,,,,,,,,759.3914,759.5908,759.5908,760.0908,,,,,,,,,,,,,,1.6172,1,,,,,,,,,,,,,,z,,,,,,,,,,,,,,,90,0,760.0911,761.7087,z,1,1.6172,,[],[],[],[],[],[],[],761.7087,763.7077,763.7077,763.7077,[],[],[],[],[],[],[],,763.7077,763.7078,0.111831597,-0.276814236,0,0,0,,0,89,89,21,1,3,RL,potugar,print,potugar_p.png,,,,,,
,,,,32105,001,2025-12-02_09h26.58.940,HW_LDT_1,2024.2.4,MacIntel,60.24096386,,,,,,,,,,,,,,,,,,,,,763.7086,763.9076,763.9077,764.4092,,,,,,,,,,,,,,1.5306,1,,,,,,,,,,,,,,z,,,,,,,,,,,,,,,91,0,764.4099,765.9414,z,1,1.5306,,[],[],[],[],[],[],[],765.9414,767.941,767.941,767.9411,[],[],[],[],[],[],[],,767.9411,767.9411,-0.157899306,-0.31891059,0,0,0,,0,90,90,62,1,3,TL,prodive,print,prodive_p.png,,,,,,
,,,,32105,001,2025-12-02_09h26.58.940,HW_LDT_1,2024.2.4,MacIntel,60.24096386,,,,,,,,,,,,,,,,,,,,,767.9416,768.1403,768.1403,768.6409,,,,,,,,,,,,,,0.9343,1,,,,,,,,,,,,,,m,,,,,,,,,,,,,,,92,0,768.6411,769.5756,m,1,0.9343,,[],[],[],[],[],[],[],769.5757,771.5742,771.5742,771.5743,[],[],[],[],[],[],[],,771.5743,771.5743,-0.157899306,-0.31891059,0,0,0,,0,91,91,144,1,3,word,RESIDENT,cursive,resident_c.png,,,,,,
,,,,32105,001,2025-12-02_09h26.58.940,HW_LDT_1,2024.2.4,MacIntel,60.24096386,,,,,,,,,,,,,,,,,,,,,771.5746,771.7716,771.7716,772.2741,,,,,,,,,,,,,,0.7015,1,,,,,,,,,,,,,,m,,,,,,,,,,,,,,,93,0,772.2747,772.9768,m,1,0.7015,,[],[],[],[],[],[],[],772.9769,774.9742,774.9742,774.9744,[],[],[],[],[],[],[],,774.9745,774.9745,-0.157899306,-0.31891059,0,0,0,,0,92,92,112,1,3,word,LIBERAL,print,liberal_p.png,,,,,,
,,,,32105,001,2025-12-02_09h26.58.940,HW_LDT_1,2024.2.4,MacIntel,60.24096386,,,,,,,,,,,,,,,,,,,,,774.9755,775.1743,775.1743,775.6742,,,,,,,,,,,,,,1.035,0,,,,,,,,,,,,,,z,,,,,,,,,,,,,,,94,0,775.6744,776.7098,m,0,1.035,,[],[],[],[],[],[],[],776.7098,778.7076,778.7076,778.7077,[],[],[],[],[],[],[],,778.7077,778.7077,-0.157899306,-0.31891059,0,0,0,,0,93,93,73,1,3,TL,speficic,print,speficic_p.png,,,,,,
,,,,32105,001,2025-12-02_09h26.58.940,HW_LDT_1,2024.2.4,MacIntel,60.24096386,,,,,,,,,,,,,,,,,,,,,778.7081,778.9076,778.9076,779.4073,,,,,,,,,,,,,,1.3151,1,,,,,,,,,,,,,,z,,,,,,,,,,,,,,,95,0,779.4075,780.7229,z,1,1.3151,,[],[],[],[],[],[],[],780.7229,782.7117,782.7117,782.7118,[],[],[],[],[],[],[],,782.7118,782.7119,-0.157899306,-0.31891059,0,0,0,,0,94,94,18,1,3,RL,onegator,print,onegator_p.png,,,,,,
,,,,32105,001,2025-12-02_09h26.58.940,HW_LDT_1,2024.2.4,MacIntel,60.24096386,,,,,,,,,,,,,,,,,,,,,782.7122,782.9118,782.9118,783.4128,,,,,,,,,,,,,,1.2574,1,,,,,,,,,,,,,,z,,,,,,,,,,,,,,,96,1,783.413,784.6721,z,1,1.2574,,[],[],[],[],[],[],[],784.6721,786.6617,786.6617,788.4795,[],[],[],[],[],[],[],z,788.4795,788.4795,-0.157899306,-0.31891059,0,0,0,,0,95,95,70,1,3,TL,remuse,cursive,remuse_c.png,1.8176,,,,,
,,,,32105,001,2025-12-02_09h26.58.940,HW_LDT_1,2024.2.4,MacIntel,60.24096386,,,,,,,,,,,,,,,,,,,,,788.4804,788.6783,788.6783,789.1788,,,,,,,,,,,,,,1.3019,1,,,,,,,,,,,,,,m,,,,,,,,,,,,,,,97,0,789.179,790.4812,m,1,1.3019,,[],[],[],[],[],[],[],790.4813,792.4782,792.4783,792.4784,[],[],[],[],[],[],[],,792.4784,792.4784,-0.157899306,-0.31891059,0,0,0,,0,96,96,133,1,3,word,PROVIDE,print,provide_p.png,,,,,,
,,,,32105,001,2025-12-02_09h26.58.940,HW_LDT_1,2024.2.4,MacIntel,60.24096386,,,,,,,,,,,,,,,,,,,,,792.4788,792.6782,792.6782,793.1782,,,,,,,,,,,,,,1.0016,1,,,,,,,,,,,,,,z,,,,,,,,,,,,,,,98,0,793.1784,794.1803,z,1,1.0016,,[],[],[],[],[],[],[],794.1803,796.1792,796.1792,796.1792,[],[],[],[],[],[],[],,796.1792,796.1793,-0.157899306,-0.31891059,0,0,0,,0,97,97,13,1,3,RL,helicage,cursive,helicage_c.png,,,,,,
,,,,32105,001,2025-12-02_09h26.58.940,HW_LDT_1,2024.2.4,MacIntel,60.24096386,,,,,,,,,,,,,,,,,,,,,796.1797,796.3784,796.3784,796.8784,,,,,,,,,,,,,,1.2692,1,,,,,,,,,,,,,,z,,,,,,,,,,,,,,,99,0,796.8786,798.1482,z,1,1.2692,,[],[],[],[],[],[],[],798.1482,800.1451,800.1451,800.1452,[],[],[],[],[],[],[],,800.1452,800.1452,-0.157899306,-0.31891059,0,0,0,,0,98,98,35,1,3,TL,cateferia,print,cateferia_p.png,,,,,,
,,,,32105,001,2025-12-02_09h26.58.940,HW_LDT_1,2024.2.4,MacIntel,60.24096386,,,,,,,,,,,,,,,,,,,,,800.1457,800.3451,800.3451,800.8455,,,,,,,,,,,,,,1.2359,1,,,,,,,,,,,,,,m,,,,,,,,,,,,,,,100,0,800.8458,802.0818,m,1,1.2359,,[],[],[],[],[],[],[],802.0819,804.0782,804.0783,804.0783,[],[],[],[],[],[],[],,804.0783,804.0785,-0.157899306,-0.31891059,0,0,0,,0,99,99,116,1,3,word,MARGINAL,print,marginal_p.png,,,,,,
,,,,32105,001,2025-12-02_09h26.58.940,HW_LDT_1,2024.2.4,MacIntel,60.24096386,,,,,,,,,,,,,,,,,,,,,804.0788,804.2783,804.2783,804.7783,,,,,,,,,,,,,,1.3022,1,,,,,,,,,,,,,,z,,,,,,,,,,,,,,,101,0,804.7785,806.0808,z,1,1.3022,,[],[],[],[],[],[],[],806.0808,808.0785,808.0785,808.0785,[],[],[],[],[],[],[],,808.0785,808.0785,-0.157899306,-0.31891059,0,0,0,,0,100,100,19,1,3,RL,opcifal,cursive,opcifal_c.png,,,,,,
,,,,32105,001,2025-12-02_09h26.58.940,HW_LDT_1,2024.2.4,MacIntel,60.24096386,,,,,,,,,,,,,,,,,,,,,808.0789,808.2784,808.2785,808.7784,,,,,,,,,,,,,,2.2852,1,,,,,,,,,,,,,,z,,,,,,,,,,,,,,,102,0,808.7787,811.0641,z,1,2.2852,,[],[],[],[],[],[],[],811.0641,813.0617,813.0617,813.0617,[],[],[],[],[],[],[],,813.0618,813.0618,-0.157899306,-0.31891059,0,0,0,,0,101,101,34,1,3,TL,aminal,cursive,aminal_c.png,,,,,,
,,,,32105,001,2025-12-02_09h26.58.940,HW_LDT_1,2024.2.4,MacIntel,60.24096386,,,,,,,,,,,,,,,,,,,,,813.0622,813.2625,813.2625,813.7614,,,,,,,,,,,,,,1.0008,1,,,,,,,,,,,,,,z,,,,,,,,,,,,,,,103,0,813.7616,814.7628,z,1,1.0008,,[],[],[],[],[],[],[],814.7628,816.7614,816.7615,816.7615,[],[],[],[],[],[],[],,816.7615,816.7615,-0.157899306,-0.31891059,0,0,0,,0,102,102,30,1,3,RL,strapely,print,strapely_p.png,,,,,,
,,,,32105,001,2025-12-02_09h26.58.940,HW_LDT_1,2024.2.4,MacIntel,60.24096386,,,,,,,,,,,,,,,,,,,,,816.7623,816.9614,816.9614,817.4616,,,,,,,,,,,,,,0.8164,1,,,,,,,,,,,,,,m,,,,,,,,,,,,,,,104,0,817.4628,818.2794,m,1,0.8164,,[],[],[],[],[],[],[],818.2794,820.2784,820.2784,820.2785,[],[],[],[],[],[],[],,820.2785,820.2785,-0.157899306,-0.31891059,0,0,0,,0,103,103,148,1,3,word,SALINE,cursive,saline_c.png,,,,,,
,,,,32105,001,2025-12-02_09h26.58.940,HW_LDT_1,2024.2.4,MacIntel,60.24096386,,,,,,,,,,,,,,,,,,,,,820.279,820.4782,820.4782,820.9784,,,,,,,,,,,,,,1.2294,1,,,,,,,,,,,,,,m,,,,,,,,,,,,,,,105,0,820.9786,822.2082,m,1,1.2294,,[-0.15789930555555556],[-0.3189105902777778],[1],[0],[0],[0.15420000028609593],[null],822.2083,824.2074,824.2075,824.2075,[],[],[],[],[],[],[],,824.2075,824.2075,-0.157899306,-0.31891059,0,0,0,,0,104,104,123,1,3,word,MODERATE,cursive,moderate_c.png,,,,,,
,,,,32105,001,2025-12-02_09h26.58.940,HW_LDT_1,2024.2.4,MacIntel,60.24096386,,,,,,,,,,,,,,,,,,,,,824.2083,824.4074,824.4074,824.9075,,,,,,,,,,,,,,3.0162,1,,,,,,,,,,,,,,z,,,,,,,,,,,,,,,106,0,824.9078,827.9244,z,1,3.0162,,[],[],[],[],[],[],[],827.9245,829.9242,829.9242,829.9243,[],[],[],[],[],[],[],,829.9243,829.9243,-0.157899306,-0.31891059,0,0,0,,0,105,105,37,1,3,TL,cacapity,cursive,cacapity_c.png,,,,,,
,,,,32105,001,2025-12-02_09h26.58.940,HW_LDT_1,2024.2.4,MacIntel,60.24096386,,,,,,,,,,,,,,,,,,,,,829.9247,830.124,830.1241,830.6241,,,,,,,,,,,,,,4.7665,1,,,,,,,,,,,,,,z,,,,,,,,,,,,,,,107,0,830.6244,835.3914,z,1,4.7665,,[],[],[],[],[],[],[],835.3914,837.3909,837.3909,837.391,[],[],[],[],[],[],[],,837.391,837.3911,-0.157899306,-0.31891059,0,0,0,,0,106,106,16,1,3,RL,mishafe,cursive,mishafe_c.png,,,,,,
,,,,32105,001,2025-12-02_09h26.58.940,HW_LDT_1,2024.2.4,MacIntel,60.24096386,,,,,,,,,,,,,,,,,,,,,837.3921,837.5908,837.5908,838.0909,,,,,,,,,,,,,,0.8509,1,,,,,,,,,,,,,,m,,,,,,,,,,,,,,,108,0,838.0912,838.9425,m,1,0.8509,,[],[],[],[],[],[],[],838.9425,840.9408,840.9408,840.9408,[],[],[],[],[],[],[],,840.9408,840.9409,-0.157899306,-0.31891059,0,0,0,,0,107,107,86,1,3,word,BESIDE,cursive,beside_c.png,,,,,,
,,,,32105,001,2025-12-02_09h26.58.940,HW_LDT_1,2024.2.4,MacIntel,60.24096386,,,,,,,,,,,,,,,,,,,,,840.9413,841.1408,841.1408,841.6407,,,,,,,,,,,,,,0.7847,1,,,,,,,,,,,,,,m,,,,,,,,,,,,,,,109,0,841.6409,842.4259,m,1,0.7847,,[],[],[],[],[],[],[],842.4259,844.424,844.4241,844.4241,[],[],[],[],[],[],[],,844.4241,844.4241,-0.157899306,-0.31891059,0,0,0,,0,108,108,154,1,3,word,STORAGE,cursive,storage_c.png,,,,,,
,,,,32105,001,2025-12-02_09h26.58.940,HW_LDT_1,2024.2.4,MacIntel,60.24096386,,,,,,,,,,,,,,,,,,,,,844.4246,844.6241,844.6241,845.1241,,,,,,,,,,,,,,0.7836,1,,,,,,,,,,,,,,z,,,,,,,,,,,,,,,110,0,845.1243,845.9082,z,1,0.7836,,[],[],[],[],[],[],[],845.9083,847.9075,847.9075,847.9075,[],[],[],[],[],[],[],,847.9076,847.9076,-0.157899306,-0.31891059,0,0,0,,0,109,109,10,1,3,RL,efibor,print,efibor_p.png,,,,,,
,,,,32105,001,2025-12-02_09h26.58.940,HW_LDT_1,2024.2.4,MacIntel,60.24096386,,,,,,,,,,,,,,,,,,,,,847.9083,848.1074,848.1074,848.6073,,,,,,,,,,,,,,1.7165,0,,,,,,,,,,,,,,z,,,,,,,,,,,,,,,111,1,848.6075,850.3243,m,0,1.7165,,[],[],[],[],[],[],[],850.3244,852.324,852.324,854.5407,[],[],[],[],[],[],[],z,854.5408,854.5408,-0.157899306,-0.31891059,0,0,0,,0,110,110,32,1,3,TL,adacemy,print,adacemy_p.png,2.2164,,,,,
,,,,32105,001,2025-12-02_09h26.58.940,HW_LDT_1,2024.2.4,MacIntel,60.24096386,,,,,,,,,,,,,,,,,,,,,854.5412,854.7408,854.7408,855.2406,,,,,,,,,,,,,,22.2351,1,,,,,,,,,,,,,,m,,,,,,,,,,,,,,,112,0,855.2409,877.4776,m,1,22.2351,,[],[],[],[],[],[],[],877.4776,879.474,879.4741,879.4743,[],[],[],[],[],[],[],,879.4743,879.4743,-0.148563368,-0.28655816,0,0,0,,0,111,111,121,1,3,word,MISTAKE,cursive,mistake_c.png,,,,,,
,,,,32105,001,2025-12-02_09h26.58.940,HW_LDT_1,2024.2.4,MacIntel,60.24096386,,,,,,,,,,,,,,,,,,,,,879.4816,879.6683,879.6683,880.1741,,,,,,,,,,,,,,4.5325,1,,,,,,,,,,,,,,z,,,,,,,,,,,,,,,113,0,880.1749,884.7077,z,1,4.5325,,[],[],[],[],[],[],[],884.7077,886.7085,886.7085,886.7086,[],[],[],[],[],[],[],,886.7086,886.7087,-0.148563368,-0.28655816,0,0,0,,0,112,112,52,1,3,TL,locigal,cursive,locigal_c.png,,,,,,
,,,,32105,001,2025-12-02_09h26.58.940,HW_LDT_1,2024.2.4,MacIntel,60.24096386,,,,,,,,,,,,,,,,,,,,,886.7092,886.9102,886.9102,887.4074,,,,,,,,,,,,,,0.8383,1,,,,,,,,,,,,,,m,,,,,,,,,,,,,,,114,0,887.4077,888.2466,m,1,0.8383,,[],[],[],[],[],[],[],888.2466,890.2406,890.2407,890.2408,[],[],[],[],[],[],[],,890.2408,890.2408,-0.143350694,-0.26969184,0,0,0,,0,113,113,124,1,3,word,NUMERICAL,print,numerical_p.png,,,,,,
,,,,32105,001,2025-12-02_09h26.58.940,HW_LDT_1,2024.2.4,MacIntel,60.24096386,,,,,,,,,,,,,,,,,,,,,890.2412,890.4407,890.4407,890.9408,,,,,,,,,,,,,,4.2331,1,,,,,,,,,,,,,,m,,,,,,,,,,,,,,,115,0,890.9409,895.1743,m,1,4.2331,,[],[],[],[],[],[],[],895.1743,897.1726,897.1739,897.1779,[],[],[],[],[],[],[],,897.1781,897.1783,-0.143350694,-0.26969184,0,0,0,,0,114,114,102,1,3,word,DENSITY,print,density_p.png,,,,,,
,,,,32105,001,2025-12-02_09h26.58.940,HW_LDT_1,2024.2.4,MacIntel,60.24096386,,,,,,,,,,,,,,,,,,,,,897.1796,897.371,897.371,897.8682,,,,,,,,,,,,,,0.719,1,,,,,,,,,,,,,,m,,,,,,,,,,,,,,,116,0,897.8689,898.5884,m,1,0.719,,[],[],[],[],[],[],[],898.5885,900.5907,900.5907,900.5907,[],[],[],[],[],[],[],,900.5908,900.5908,-0.143350694,-0.26969184,0,0,0,,0,115,115,129,1,3,word,PARENT,print,parent_p.png,,,,,,
,,,,32105,001,2025-12-02_09h26.58.940,HW_LDT_1,2024.2.4,MacIntel,60.24096386,,,,,,,,,,,,,,,,,,,,,900.5917,900.7908,900.7908,901.2907,,,,,,,,,,,,,,1.1347,1,,,,,,,,,,,,,,m,,,,,,,,,,,,,,,117,1,901.2908,902.4258,m,1,1.1347,,[],[],[],[],[],[],[],902.4259,904.4261,904.4263,905.2926,[],[],[],[],[],[],[],z,905.2927,905.2928,-0.143350694,-0.26969184,0,0,0,,0,116,116,99,1,3,word,DEBATE,cursive,debate_c.png,0.8658,,,,,
,,,,32105,001,2025-12-02_09h26.58.940,HW_LDT_1,2024.2.4,MacIntel,60.24096386,,,,,,,,,,,,,,,,,,,,,905.294,905.4918,905.4918,905.9923,,,,,,,,,,,,,,0.7008,1,,,,,,,,,,,,,,m,,,,,,,,,,,,,,,118,0,905.9927,906.6941,m,1,0.7008,,[],[],[],[],[],[],[],906.6941,908.6907,908.6907,908.6907,[],[],[],[],[],[],[],,908.6907,908.6907,-0.143350694,-0.26969184,0,0,0,,0,117,117,98,1,3,word,CRIMINAL,print,criminal_p.png,,,,,,
,,,,32105,001,2025-12-02_09h26.58.940,HW_LDT_1,2024.2.4,MacIntel,60.24096386,,,,,,,,,,,,,,,,,,,,,908.6913,908.8906,908.8906,909.3907,,,,,,,,,,,,,,0.6334,0,,,,,,,,,,,,,,z,,,,,,,,,,,,,,,119,0,909.3908,910.0247,m,0,0.6334,,[],[],[],[],[],[],[],910.0247,912.024,912.024,912.0242,[],[],[],[],[],[],[],,912.0242,912.0242,-0.143350694,-0.26969184,0,0,0,,0,118,118,46,1,3,TL,distupe,print,distupe_p.png,,,,,,
,,,,32105,001,2025-12-02_09h26.58.940,HW_LDT_1,2024.2.4,MacIntel,60.24096386,,,,,,,,,,,,,,,,,,,,,912.0247,912.224,912.224,912.724,,,,,,,,,,,,,,1.1804,1,,,,,,,,,,,,,,z,,,,,,,,,,,,,,,120,0,912.7242,913.905,z,1,1.1804,,[],[],[],[],[],[],[],913.9051,915.9073,915.9073,915.9074,[],[],[],[],[],[],[],,915.9074,915.9074,-0.143350694,-0.26969184,0,0,0,,0,119,119,0,1,3,RL,afaneur,print,afaneur_p.png,,,,,,
,,,,32105,001,2025-12-02_09h26.58.940,HW_LDT_1,2024.2.4,MacIntel,60.24096386,,,,,,,,,,,,,,,,,,,,,915.9079,916.1074,916.1074,916.6073,,,,,,,,,,,,,,0.7334,0,,,,,,,,,,,,,,z,,,,,,,,,,,,,,,121,0,916.6075,917.341,m,0,0.7334,,[],[],[],[],[],[],[],917.3411,919.3405,919.3406,919.3406,[],[],[],[],[],[],[],,919.3407,919.3407,-0.143350694,-0.26969184,0,0,0,,0,120,120,69,1,3,TL,redisent,cursive,redisent_c.png,,,,,,
,,,,32105,001,2025-12-02_09h26.58.940,HW_LDT_1,2024.2.4,MacIntel,60.24096386,,,,,,,,,,,,,,,,,,,,,919.3411,919.5407,919.5407,920.0406,,,,,,,,,,,,,,0.9829,0,,,,,,,,,,,,,,z,,,,,,,,,,,,,,,122,0,920.0409,921.0242,m,0,0.9829,,[],[],[],[],[],[],[],921.0242,923.024,923.0241,923.0241,[],[],[],[],[],[],[],,923.0241,923.0241,-0.143350694,-0.26969184,0,0,0,,0,121,121,59,1,3,TL,paficic,cursive,paficic_c.png,,,,,,
,,,,32105,001,2025-12-02_09h26.58.940,HW_LDT_1,2024.2.4,MacIntel,60.24096386,,,,,,,,,,,,,,,,,,,,,923.0247,923.224,923.224,923.7239,,,,,,,,,,,,,,1.8996,1,,,,,,,,,,,,,,z,,,,,,,,,,,,,,,123,0,923.7241,925.6241,z,1,1.8996,,[],[],[],[],[],[],[],925.6242,927.6241,927.6241,927.6242,[],[],[],[],[],[],[],,927.6242,927.6243,-0.143350694,-0.26969184,0,0,0,,0,122,122,50,1,3,TL,lirebal,print,lirebal_p.png,,,,,,
,,,,32105,001,2025-12-02_09h26.58.940,HW_LDT_1,2024.2.4,MacIntel,60.24096386,,,,,,,,,,,,,,,,,,,,,927.6247,927.8239,927.8239,928.324,,,,,,,,,,,,,,1.0331,1,,,,,,,,,,,,,,z,,,,,,,,,,,,,,,124,0,928.3242,929.3576,z,1,1.0331,,[],[],[],[],[],[],[],929.3576,931.3573,931.3573,931.3574,[],[],[],[],[],[],[],,931.3574,931.3574,-0.143350694,-0.26969184,0,0,0,,0,123,123,7,1,3,RL,cobeny,print,cobeny_p.png,,,,,,
,,,,32105,001,2025-12-02_09h26.58.940,HW_LDT_1,2024.2.4,MacIntel,60.24096386,,,,,,,,,,,,,,,,,,,,,931.3578,931.5573,931.5573,932.0573,,,,,,,,,,,,,,0.7661,1,,,,,,,,,,,,,,m,,,,,,,,,,,,,,,125,0,932.0576,932.8241,m,1,0.7661,,[],[],[],[],[],[],[],932.8241,934.824,934.824,934.8241,[],[],[],[],[],[],[],,934.8241,934.8241,-0.143350694,-0.26969184,0,0,0,,0,124,124,158,1,3,word,VELOCITY,cursive,velocity_c.png,,,,,,
,,,,32105,001,2025-12-02_09h26.58.940,HW_LDT_1,2024.2.4,MacIntel,60.24096386,,,,,,,,,,,,,,,,,,,,,934.8245,935.0239,935.0239,935.5237,,,,,,,,,,,,,,1.8475,1,,,,,,,,,,,,,,z,,,,,,,,,,,,,,,126,1,935.5239,937.372,z,1,1.8475,,[],[],[],[],[],[],[],937.3721,939.3741,939.3742,940.5584,[],[],[],[],[],[],[],z,940.5584,940.5585,-0.143350694,-0.26969184,0,0,0,,0,125,125,28,1,3,RL,rovastic,cursive,rovastic_c.png,1.1839,,,,,
,,,,32105,001,2025-12-02_09h26.58.940,HW_LDT_1,2024.2.4,MacIntel,60.24096386,,,,,,,,,,,,,,,,,,,,,940.5597,940.7573,940.7573,941.2574,,,,,,,,,,,,,,1.2162,1,,,,,,,,,,,,,,z,,,,,,,,,,,,,,,127,0,941.2577,942.4742,z,1,1.2162,,[],[],[],[],[],[],[],942.4742,944.4739,944.474,944.474,[],[],[],[],[],[],[],,944.474,944.474,-0.143350694,-0.26969184,0,0,0,,0,126,126,36,1,3,TL,carema,cursive,carema_c.png,,,,,,
,,,,32105,001,2025-12-02_09h26.58.940,HW_LDT_1,2024.2.4,MacIntel,60.24096386,,,,,,,,,,,,,,,,,,,,,944.4744,944.6628,944.6628,945.174,,,,,,,,,,,,,,4.5669,0,,,,,,,,,,,,,,m,,,,,,,,,,,,,,,128,0,945.1745,949.742,z,0,4.5669,,[],[],[],[],[],[],[],949.742,951.7371,951.7372,951.7374,[],[],[],[],[],[],[],,951.7374,951.7375,-0.143350694,-0.26969184,0,0,0,,0,127,127,140,1,3,word,RELATIVE,cursive,relative_c.png,,,,,,
,,,,32105,001,2025-12-02_09h26.58.940,HW_LDT_1,2024.2.4,MacIntel,60.24096386,,,,,,,,,,,,,,,,,,,,,951.7381,951.9269,951.9269,952.4405,,,,,,,,,,,,,,1.4998,1,,,,,,,,,,,,,,m,,,,,,,,,,,,,,,129,0,952.4407,953.9409,m,1,1.4998,,[],[],[],[],[],[],[],953.9409,955.9406,955.9407,955.9408,[],[],[],[],[],[],[],,955.9408,955.9408,-0.143350694,-0.26969184,0,0,0,,0,128,128,117,1,3,word,MARINE,cursive,marine_c.png,,,,,,
,,,,32105,001,2025-12-02_09h26.58.940,HW_LDT_1,2024.2.4,MacIntel,60.24096386,,,,,,,,,,,,,,,,,,,,,955.9412,956.1405,956.1405,956.6406,,,,,,,,,,,,,,2.3498,1,,,,,,,,,,,,,,z,,,,,,,,,,,,,,,130,0,956.6407,958.991,z,1,2.3498,,[],[],[],[],[],[],[],958.991,960.9936,960.9937,960.9938,[],[],[],[],[],[],[],,960.9938,960.9939,-0.143350694,-0.26969184,0,0,0,,0,129,129,5,1,3,RL,capefory,cursive,capefory_c.png,,,,,,
,,,,32105,001,2025-12-02_09h26.58.940,HW_LDT_1,2024.2.4,MacIntel,60.24096386,,,,,,,,,,,,,,,,,,,,,960.995,961.1885,961.1885,961.6924,,,,,,,,,,,,,,0.7659,1,,,,,,,,,,,,,,m,,,,,,,,,,,,,,,131,0,961.6929,962.4602,m,1,0.7659,,[],[],[],[],[],[],[],962.4602,964.4573,964.4573,964.4574,[],[],[],[],[],[],[],,964.4574,964.4575,-0.143350694,-0.26969184,0,0,0,,0,130,130,91,1,3,word,CARDINAL,print,cardinal_p.png,,,,,,
,,,,32105,001,2025-12-02_09h26.58.940,HW_LDT_1,2024.2.4,MacIntel,60.24096386,,,,,,,,,,,,,,,,,,,,,964.4579,964.6572,964.6573,965.1572,,,,,,,,,,,,,,2.7663,1,,,,,,,,,,,,,,z,,,,,,,,,,,,,,,132,0,965.1574,967.9241,z,1,2.7663,,[],[],[],[],[],[],[],967.9243,969.9238,969.9238,969.9239,[],[],[],[],[],[],[],,969.924,969.924,-0.143350694,-0.26969184,0,0,0,,0,131,131,1,1,3,RL,bewoted,cursive,bewoted_c.png,,,,,,
,,,,32105,001,2025-12-02_09h26.58.940,HW_LDT_1,2024.2.4,MacIntel,60.24096386,,,,,,,,,,,,,,,,,,,,,969.9245,970.1239,970.1239,970.6238,,,,,,,,,,,,,,0.7334,0,,,,,,,,,,,,,,z,,,,,,,,,,,,,,,133,0,970.624,971.3578,m,0,0.7334,,[],[],[],[],[],[],[],971.3578,973.3572,973.3572,973.3572,[],[],[],[],[],[],[],,973.3572,973.3573,-0.143350694,-0.26969184,0,0,0,,0,132,132,76,1,3,TL,stogare,cursive,stogare_c.png,,,,,,
,,,,32105,001,2025-12-02_09h26.58.940,HW_LDT_1,2024.2.4,MacIntel,60.24096386,,,,,,,,,,,,,,,,,,,,,973.3577,973.5493,973.5493,974.0572,,,,,,,,,,,,,,1.2162,1,,,,,,,,,,,,,,z,,,,,,,,,,,,,,,134,0,974.0575,975.274,z,1,1.2162,,[],[],[],[],[],[],[],975.2741,977.2739,977.274,977.274,[],[],[],[],[],[],[],,977.274,977.2741,-0.143350694,-0.26969184,0,0,0,,0,133,133,41,1,3,TL,crinimal,print,crinimal_p.png,,,,,,
,,,,32105,001,2025-12-02_09h26.58.940,HW_LDT_1,2024.2.4,MacIntel,60.24096386,,,,,,,,,,,,,,,,,,,,,977.2747,977.4738,977.4739,977.9739,,,,,,,,,,,,,,1.0495,0,,,,,,,,,,,,,,z,,,,,,,,,,,,,,,135,0,977.9741,979.0239,m,0,1.0495,,[],[],[],[],[],[],[],979.024,981.0238,981.0239,981.0239,[],[],[],[],[],[],[],,981.0239,981.024,-0.143350694,-0.26969184,0,0,0,,0,134,134,74,1,3,TL,spemicen,print,spemicen_p.png,,,,,,
,,,,32105,001,2025-12-02_09h26.58.940,HW_LDT_1,2024.2.4,MacIntel,60.24096386,,,,,,,,,,,,,,,,,,,,,981.0244,981.2239,981.2239,981.7238,,,,,,,,,,,,,,2.0839,0,,,,,,,,,,,,,,m,,,,,,,,,,,,,,,136,0,981.7241,983.8084,z,0,2.0839,,[],[],[],[],[],[],[],983.8084,985.8089,985.8089,985.8089,[],[],[],[],[],[],[],,985.8089,985.809,-0.143350694,-0.26969184,0,0,0,,0,135,135,145,1,3,word,RESUME,cursive,resume_c.png,,,,,,
,,,,32105,001,2025-12-02_09h26.58.940,HW_LDT_1,2024.2.4,MacIntel,60.24096386,,,,,,,,,,,,,,,,,,,,,985.8098,986.0105,986.0105,986.5072,,,,,,,,,,,,,,0.8494,1,,,,,,,,,,,,,,z,,,,,,,,,,,,,,,137,0,986.5075,987.3574,z,1,0.8494,,[],[],[],[],[],[],[],987.3574,989.3572,989.3573,989.3573,[],[],[],[],[],[],[],,989.3574,989.3574,-0.143350694,-0.26969184,0,0,0,,0,136,136,8,1,3,RL,cocewage,print,cocewage_p.png,,,,,,
,,,,32105,001,2025-12-02_09h26.58.940,HW_LDT_1,2024.2.4,MacIntel,60.24096386,,,,,,,,,,,,,,,,,,,,,989.3579,989.5572,989.5573,990.0572,,,,,,,,,,,,,,0.9662,1,,,,,,,,,,,,,,m,,,,,,,,,,,,,,,138,1,990.0574,991.0238,m,1,0.9662,,[],[],[],[],[],[],[],991.0239,993.0238,993.0238,995.5239,[],[],[],[],[],[],[],z,995.5239,995.524,-0.143350694,-0.26969184,0,0,0,,0,137,137,87,1,3,word,CAFETERIA,print,cafeteria_p.png,2.4997,,,,,
,,,,32105,001,2025-12-02_09h26.58.940,HW_LDT_1,2024.2.4,MacIntel,60.24096386,,,,,,,,,,,,,,,,,,,,,995.5247,995.7238,995.7239,996.2238,,,,,,,,,,,,,,0.7,1,,,,,,,,,,,,,,m,,,,,,,,,,,,,,,139,1,996.2241,996.9244,m,1,0.7,,[],[],[],[],[],[],[],996.9244,998.9251,998.9251,1000.9307,[],[],[],[],[],[],[],m,1000.9307,1000.9308,-0.143350694,-0.26969184,0,0,0,,0,138,138,139,1,3,word,REGULAR,print,regular_p.png,2.0051,,,,,
,,,,32105,001,2025-12-02_09h26.58.940,HW_LDT_1,2024.2.4,MacIntel,60.24096386,,,,,,,,,,,,,,,,,,,,,1000.9313,1001.1249,1001.1249,1001.6237,,,,,,,,,,,,,,1.1002,1,,,,,,,,,,,,,,m,,,,,,,,,,,,,,,140,0,1001.6241,1002.7247,m,1,1.1002,,[],[],[],[],[],[],[],1002.7247,1004.7237,1004.7238,1004.7238,[],[],[],[],[],[],[],,1004.7238,1004.7238,-0.143350694,-0.26969184,0,0,0,,0,139,139,100,1,3,word,DECADE,cursive,decade_c.png,,,,,,
,,,,32105,001,2025-12-02_09h26.58.940,HW_LDT_1,2024.2.4,MacIntel,60.24096386,,,,,,,,,,,,,,,,,,,,,1004.7244,1004.9237,1004.9237,1005.4238,,,,,,,,,,,,,,1.5665,1,,,,,,,,,,,,,,m,,,,,,,,,,,,,,,141,0,1005.4241,1006.9908,m,1,1.5665,,[],[],[],[],[],[],[],1006.9908,1008.9905,1008.9905,1008.9905,[],[],[],[],[],[],[],,1008.9905,1008.9905,-0.143350694,-0.26969184,0,0,0,,0,140,140,130,1,3,word,POLICY,print,policy_p.png,,,,,,
,,,,32105,001,2025-12-02_09h26.58.940,HW_LDT_1,2024.2.4,MacIntel,60.24096386,,,,,,,,,,,,,,,,,,,,,1008.9909,1009.1905,1009.1905,1009.6904,,,,,,,,,,,,,,1.8246,1,,,,,,,,,,,,,,z,,,,,,,,,,,,,,,142,0,1009.6906,1011.5158,z,1,1.8246,,[],[],[],[],[],[],[],1011.5158,1013.5071,1013.5071,1013.5072,[],[],[],[],[],[],[],,1013.5072,1013.5073,-0.143350694,-0.26969184,0,0,0,,0,141,141,66,1,3,TL,retalive,cursive,retalive_c.png,,,,,,
,,,,32105,001,2025-12-02_09h26.58.940,HW_LDT_1,2024.2.4,MacIntel,60.24096386,,,,,,,,,,,,,,,,,,,,,1013.5076,1013.707,1013.7071,1014.2071,,,,,,,,,,,,,,0.983,1,,,,,,,,,,,,,,z,,,,,,,,,,,,,,,143,0,1014.2075,1015.1912,z,1,0.983,,[],[],[],[],[],[],[],1015.1913,1017.1938,1017.1938,1017.1941,[],[],[],[],[],[],[],,1017.1941,1017.1941,-0.143350694,-0.26969184,0,0,0,,0,142,142,14,1,3,RL,lofase,cursive,lofase_c.png,,,,,,
,,,,32105,001,2025-12-02_09h26.58.940,HW_LDT_1,2024.2.4,MacIntel,60.24096386,,,,,,,,,,,,,,,,,,,,,1017.1954,1017.3918,1017.3918,1017.8904,,,,,,,,,,,,,,0.9663,1,,,,,,,,,,,,,,z,,,,,,,,,,,,,,,144,0,1017.8908,1018.8576,z,1,0.9663,,[],[],[],[],[],[],[],1018.8577,1020.8571,1020.8571,1020.8573,[],[],[],[],[],[],[],,1020.8573,1020.8573,-0.143350694,-0.26969184,0,0,0,,0,143,143,4,1,3,RL,cafigal,cursive,cafigal_c.png,,,,,,
,,,,32105,001,2025-12-02_09h26.58.940,HW_LDT_1,2024.2.4,MacIntel,60.24096386,,,,,,,,,,,,,,,,,,,,,1020.8579,1021.057,1021.057,1021.5571,,,,,,,,,,,,,,0.7163,1,,,,,,,,,,,,,,m,,,,,,,,,,,,,,,145,1,1021.5573,1022.2739,m,1,0.7163,,[],[],[],[],[],[],[],1022.2739,1024.2736,1024.2736,1025.3074,[],[],[],[],[],[],[],m,1025.3074,1025.3074,-0.143350694,-0.26969184,0,0,0,,0,144,144,131,1,3,word,POPULAR,print,popular_p.png,1.0332,,,,,
,,,,32105,001,2025-12-02_09h26.58.940,HW_LDT_1,2024.2.4,MacIntel,60.24096386,,,,,,,,,,,,,,,,,,,,,1025.3078,1025.507,1025.5071,1026.0071,,,,,,,,,,,,,,1.3162,0,,,,,,,,,,,,,,m,,,,,,,,,,,,,,,146,0,1026.0073,1027.3239,z,0,1.3162,,[],[],[],[],[],[],[],1027.324,1029.3237,1029.3237,1029.3239,[],[],[],[],[],[],[],,1029.3239,1029.3239,-0.143350694,-0.26969184,0,0,0,,0,145,145,107,1,3,word,EVIDENT,cursive,evident_c.png,,,,,,
,,,,32105,001,2025-12-02_09h26.58.940,HW_LDT_1,2024.2.4,MacIntel,60.24096386,,,,,,,,,,,,,,,,,,,,,1029.3245,1029.5236,1029.5236,1030.0236,,,,,,,,,,,,,,1.1836,1,,,,,,,,,,,,,,m,,,,,,,,,,,,,,,147,0,1030.0239,1031.2077,m,1,1.1836,,[],[],[],[],[],[],[],1031.2079,1033.207,1033.2071,1033.2071,[],[],[],[],[],[],[],,1033.2071,1033.2071,-0.143350694,-0.26969184,0,0,0,,0,146,146,82,1,3,word,AMATEUR,print,amateur_p.png,,,,,,
,,,,32105,001,2025-12-02_09h26.58.940,HW_LDT_1,2024.2.4,MacIntel,60.24096386,,,,,,,,,,,,,,,,,,,,,1033.2075,1033.4069,1033.4069,1033.907,,,,,,,,,,,,,,2.0997,1,,,,,,,,,,,,,,z,,,,,,,,,,,,,,,148,0,1033.9071,1036.0072,z,1,2.0997,,[],[],[],[],[],[],[],1036.0073,1038.007,1038.007,1038.007,[],[],[],[],[],[],[],,1038.007,1038.0071,-0.143350694,-0.26969184,0,0,0,,0,147,147,40,1,3,TL,condiser,print,condiser_p.png,,,,,,
,,,,32105,001,2025-12-02_09h26.58.940,HW_LDT_1,2024.2.4,MacIntel,60.24096386,,,,,,,,,,,,,,,,,,,,,1038.0075,1038.2069,1038.2069,1038.707,,,,,,,,,,,,,,1.5497,1,,,,,,,,,,,,,,z,,,,,,,,,,,,,,,149,0,1038.7073,1040.2573,z,1,1.5497,,[],[],[],[],[],[],[],1040.2573,1042.257,1042.257,1042.257,[],[],[],[],[],[],[],,1042.2571,1042.2571,-0.143350694,-0.26969184,0,0,0,,0,148,148,78,1,3,TL,vecolity,cursive,vecolity_c.png,,,,,,
,,,,32105,001,2025-12-02_09h26.58.940,HW_LDT_1,2024.2.4,MacIntel,60.24096386,,,,,,,,,,,,,,,,,,,,,1042.2576,1042.4569,1042.4569,1042.957,,,,,,,,,,,,,,1.2328,1,,,,,,,,,,,,,,z,,,,,,,,,,,,,,,150,1,1042.9573,1044.1904,z,1,1.2328,,[],[],[],[],[],[],[],1044.1904,1046.1904,1046.1904,1047.4571,[],[],[],[],[],[],[],z,1047.4571,1047.4572,-0.143350694,-0.26969184,0,0,0,,0,149,149,3,1,3,RL,bebine,cursive,bebine_c.png,1.2665,,,,,
,,,,32105,001,2025-12-02_09h26.58.940,HW_LDT_1,2024.2.4,MacIntel,60.24096386,,,,,,,,,,,,,,,,,,,,,1047.4578,1047.6569,1047.6569,1048.157,,,,,,,,,,,,,,0.8975,1,,,,,,,,,,,,,,m,,,,,,,,,,,,,,,151,1,1048.1572,1049.0554,m,1,0.8975,,[],[],[],[],[],[],[],1049.0555,1051.057,1051.057,1052.1817,[],[],[],[],[],[],[],z,1052.1818,1052.1818,-0.143350694,-0.26969184,0,0,0,,0,150,150,84,1,3,word,BELOVED,cursive,beloved_c.png,1.1243,,,,,
,,,,32105,001,2025-12-02_09h26.58.940,HW_LDT_1,2024.2.4,MacIntel,60.24096386,,,,,,,,,,,,,,,,,,,,,1052.1824,1052.385,1052.385,1052.8753,,,,,,,,,,,,,,1.2646,1,,,,,,,,,,,,,,z,,,,,,,,,,,,,,,152,0,1052.8759,1054.1409,z,1,1.2646,,[],[],[],[],[],[],[],1054.1409,1056.1404,1056.1404,1056.1405,[],[],[],[],[],[],[],,1056.1405,1056.1406,-0.143350694,-0.26969184,0,0,0,,0,151,151,22,1,3,RL,procogal,print,procogal_p.png,,,,,,
,,,,32105,001,2025-12-02_09h26.58.940,HW_LDT_1,2024.2.4,MacIntel,60.24096386,,,,,,,,,,,,,,,,,,,,,1056.1414,1056.3402,1056.3403,1056.8403,,,,,,,,,,,,,,0.7352,0,,,,,,,,,,,,,,z,,,,,,,,,,,,,,,153,0,1056.8405,1057.5761,m,0,0.7352,,[],[],[],[],[],[],[],1057.5761,1059.5735,1059.5735,1059.5736,[],[],[],[],[],[],[],,1059.5736,1059.5737,-0.143350694,-0.26969184,0,0,0,,0,152,152,64,1,3,TL,radiply,print,radiply_p.png,,,,,,
,,,,32105,001,2025-12-02_09h26.58.940,HW_LDT_1,2024.2.4,MacIntel,60.24096386,,,,,,,,,,,,,,,,,,,,,1059.5741,1059.7736,1059.7736,1060.2735,,,,,,,,,,,,,,1.1999,0,,,,,,,,,,,,,,m,,,,,,,,,,,,,,,154,0,1060.2737,1061.4738,z,0,1.1999,,[],[],[],[],[],[],[],1061.4738,1063.4736,1063.4736,1063.4736,[],[],[],[],[],[],[],,1063.4736,1063.4736,-0.143350694,-0.26969184,0,0,0,,0,153,153,120,1,3,word,MILITARY,cursive,military_c.png,,,,,,
,,,,32105,001,2025-12-02_09h26.58.940,HW_LDT_1,2024.2.4,MacIntel,60.24096386,,,,,,,,,,,,,,,,,,,,,1063.4741,1063.6736,1063.6736,1064.1737,,,,,,,,,,,,,,1.2161,1,,,,,,,,,,,,,,z,,,,,,,,,,,,,,,155,1,1064.1738,1065.3903,z,1,1.2161,,[],[],[],[],[],[],[],1065.3903,1067.3902,1067.3902,1070.0571,[],[],[],[],[],[],[],m,1070.0571,1070.0572,-0.143350694,-0.26969184,0,0,0,,0,154,154,44,1,3,TL,decilate,print,decilate_p.png,2.6665,,,,,
,,,,32105,001,2025-12-02_09h26.58.940,HW_LDT_1,2024.2.4,MacIntel,60.24096386,,,,,,,,,,,,,,,,,,,,,1070.0577,1070.2569,1070.2569,1070.7569,,,,,,,,,,,,,,1.6455,1,,,,,,,,,,,,,,z,,,,,,,,,,,,,,,156,0,1070.7572,1072.4032,z,1,1.6455,,[],[],[],[],[],[],[],1072.4034,1074.3944,1074.3945,1074.3945,[],[],[],[],[],[],[],,1074.3945,1074.3946,-0.143350694,-0.26969184,0,0,0,,0,155,155,72,1,3,TL,senmitent,print,senmitent_p.png,,,,,,
,,,,32105,001,2025-12-02_09h26.58.940,HW_LDT_1,2024.2.4,MacIntel,60.24096386,,,,,,,,,,,,,,,,,,,,,1074.3953,1074.5945,1074.5945,1075.0943,,,,,,,,,,,,,,1.8183,1,,,,,,,,,,,,,,z,,,,,,,,,,,,,,,157,0,1075.0945,1076.9133,z,1,1.8183,,[],[],[],[],[],[],[],1076.9133,1078.9111,1078.9111,1078.9112,[],[],[],[],[],[],[],,1078.9112,1078.9112,-0.143350694,-0.26969184,0,0,0,,0,156,156,68,1,3,TL,revomal,cursive,revomal_c.png,,,,,,
,,,,32105,001,2025-12-02_09h26.58.940,HW_LDT_1,2024.2.4,MacIntel,60.24096386,,,,,,,,,,,,,,,,,,,,,1078.9115,1079.111,1079.1111,1079.611,,,,,,,,,,,,,,2.4594,1,,,,,,,,,,,,,,z,,,,,,,,,,,,,,,158,0,1079.6112,1082.0712,z,1,2.4594,,[],[],[],[],[],[],[],1082.0713,1084.0607,1084.0607,1084.0608,[],[],[],[],[],[],[],,1084.0608,1084.0608,-0.143350694,-0.26969184,0,0,0,,0,157,157,75,1,3,TL,sloten,cursive,sloten_c.png,,,,,,
,,,,32105,001,2025-12-02_09h26.58.940,HW_LDT_1,2024.2.4,MacIntel,60.24096386,,,,,,,,,,,,,,,,,,,,,1084.0612,1084.2609,1084.2609,1084.7617,,,,,,,,,,,,,,0.9468,1,,,,,,,,,,,,,,m,,,,,,,,,,,,,,,159,0,1084.762,1085.7093,m,1,0.9468,,[],[],[],[],[],[],[],1085.7093,1087.7068,1087.7069,1087.7069,[],[],[],[],[],[],[],,1087.707,1087.707,-0.143350694,-0.26969184,0,0,0,,0,158,158,143,1,3,word,REMOVAL,cursive,removal_c.png,,,,,,
,,,,32105,001,2025-12-02_09h26.58.940,HW_LDT_1,2024.2.4,MacIntel,60.24096386,,,,,,,,,,,,,,,,,,,,,1087.708,1087.9068,1087.9069,1088.4068,,,,,,,,,,,,,,1.5169,1,,,,,,,,,,,,,,z,,,,,,,,,,,,,,,160,0,1088.4071,1089.9244,z,1,1.5169,,[],[],[],[],[],[],[],1089.9244,1091.9235,1091.9235,1091.9235,[],[],[],[],[],[],[],,1091.9235,1091.9236,-0.143350694,-0.26969184,0,0,0,,0,159,159,45,1,3,TL,dentisy,print,dentisy_p.png,,,,,,
,,,,32105,001,2025-12-02_09h26.58.940,HW_LDT_1,2024.2.4,MacIntel,60.24096386,,,,,,,,,,,,,,,,,,,,,,,,,,,,,,,,,,,,,,,,,,,,,,,,,,,,,,,,,,,,,,,,,,,,,,,,,,,,,,,,,,,,,,,,,,,,,,,,,,,,,,,,,,,,,,,,,,,,,1091.9301,1096.9161
