counterbalance_lists.group,counterbalance_lists.remaining,get_list.started,get_list.stopped,participant,session,date,expName,psychopyVersion,OS,frameRate,Instructions.started,Instructions.stopped,key_resp.keys,key_resp.rt,key_resp.duration,instr_done_touch.x,instr_done_touch.y,instr_done_touch.leftButton,instr_done_touch.midButton,instr_done_touch.rightButton,start_instr.thisRepN,start_instr.thisTrialN,start_instr.thisN,start_instr.thisIndex,start_instr.ran,pageN,phase,instruct_text,has_image,instruct_image,showProgress.started,showProgress.stopped,fix.started,fix.stopped,prac.started,prac.stopped,response.keys,response.corr,response.rt,response.duration,touch_resp.x,touch_resp.y,touch_resp.leftButton,touch_resp.midButton,touch_resp.rightButton,touch_resp.time,touch_resp.clicked_name,rt,corr,feedback.started,feedback.stopped,trials.thisRepN,trials.thisTrialN,trials.thisN,trials.thisIndex,trials.ran,TrialID,StimulusType,Condition,PrimeDuration,Prime,Target,corrAns,Instructions_expt.started,Instructions_expt.stopped,key_resp_3.keys,key_resp_3.rt,key_resp_3.duration,instr_done_touch_3.x,instr_done_touch_3.y,instr_done_touch_3.leftButton,instr_done_touch_3.midButton,instr_done_touch_3.rightButton,instr_experiment.thisRepN,instr_experiment.thisTrialN,instr_experiment.thisN,instr_experiment.thisIndex,instr_experiment.ran,trialID,flag,maintask.started,maintask.stopped,key_resp_2.keys,key_resp_2.corr,key_resp_2.rt,key_resp_2.duration,targ_click.x,targ_click.y,targ_click.leftButton,targ_click.midButton,targ_click.rightButton,targ_click.time,targ_click.clicked_name,ITI.started,ITI.stopped,probe.started,probe.stopped,click_probe.x,click_probe.y,click_probe.leftButton,click_probe.midButton,click_probe.rightButton,click_probe.time,click_probe.clicked_name,key_resp_probe.keys,Break.started,Break.stopped,break_done_touch.x,break_done_touch.y,break_done_touch.leftButton,break_done_touch.midButton,break_done_touch.rightButton,break_done_keyboard.keys,list4_trials.thisRepN,list4_trials.thisTrialN,list4_trials.thisN,list4_trials.thisIndex,list4_trials.ran,list_id,item_type,string,font,stim_file,key_resp_probe.rt,key_resp_probe.duration,break_done_touch.clicked_name,End.started,End.stopped
list4,,0.5071,0.5074,32113,001,2025-12-01_21h28.40.626,HW_LDT_1,2024.2.4,MacIntel,56.49717514,,,,,,,,,,,,,,,,,,,,,,,,,,,,,,,,,,,,,,,,,,,,,,,,,,,,,,,,,,,,,,,,,,,,,,,,,,,,,,,,,,,,,,,,,,,,,,,,,,,,,,,,,,,,,,,,,,,,,,
,,,,32113,001,2025-12-01_21h28.40.626,HW_LDT_1,2024.2.4,MacIntel,56.49717514,0.5284,3.3042,space,2.746,,-0.133258302,-0.319694954,0,0,0,0,0,0,0,1,1,instructions,"INSTRUCTIONS
At the start of each trial, look at the plus sign  (+) in the center of the screen.  This tells you that a trial is about to begin and where to look. Second, the plus sign will disappear and a string of letters will appear. Your task is to determine if the string of letters is a word or not. If the item is a word press the M key (on keyboard)  or touch the word button (phone/tablet).  If the item is not a word,  press the  Z key (on keyboard)  or touch the nonword button (on phone/tablet). The items will be presented for a short time. 
Press the space bar or touch  continue.",0,,,,,,,,,,,,,,,,,,,,,,,,,,,,,,,,,,,,,,,,,,,,,,,,,,,,,,,,,,,,,,,,,,,,,,,,,,,,,,,,,,,,,,,,,,,,,,,,,,,
,,,,32113,001,2025-12-01_21h28.40.626,HW_LDT_1,2024.2.4,MacIntel,56.49717514,3.3062,4.4045,space,1.0605,,-0.133258302,-0.319694954,0,0,0,0,1,1,1,1,2,instructions,"If your device has a keyboard, press the 'Z' key for nonwords and the 'M' key for words.





Press the space bar or touch the button below to continue.",0,keyboard-example.gif,,,,,,,,,,,,,,,,,,,,,,,,,,,,,,,,,,,,,,,,,,,,,,,,,,,,,,,,,,,,,,,,,,,,,,,,,,,,,,,,,,,,,,,,,,,,,,,,,,
,,,,32113,001,2025-12-01_21h28.40.626,HW_LDT_1,2024.2.4,MacIntel,56.49717514,4.4062,13.0545,space,8.6235,,-0.02808919,-0.366599187,0,0,0,0,2,2,2,1,3,instructions,"If you are using a touchscreen only device, use the buttons on the screen. Do not use the mouse.





Press the space bar or touch the button below to continue.",0,touchscreen-example.gif,,,,,,,,,,,,,,,,,,,,,,,,,,,,,,,,,,,,,,,,,,,,,,,,,,,,,,,,,,,,,,,,,,,,,,,,,,,,,,,,,,,,,,,,,,,,,,,,,,
,,,,32113,001,2025-12-01_21h28.40.626,HW_LDT_1,2024.2.4,MacIntel,56.49717514,13.0564,19.4212,space,6.3349,,-0.02808919,-0.366599187,0,0,0,0,3,3,3,1,4,instructions,"It is very important that you respond as quickly and accurately as possible, as each letter string will only be on the screen for two seconds. If you do not respond within this time, the message 'Too slow!' will be displayed and the experiment will progress to the next letter string. The first 20 trials will be practice trials and you will receive feedback on your answers. 

Press the space bar or touch the button below to start the practice trials.",0,,,,,,,,,,,,,,,,,,,,,,,,,,,,,,,,,,,,,,,,,,,,,,,,,,,,,,,,,,,,,,,,,,,,,,,,,,,,,,,,,,,,,,,,,,,,,,,,,,,
,,,,32113,001,2025-12-01_21h28.40.626,HW_LDT_1,2024.2.4,MacIntel,56.49717514,,,,,,,,,,,,,,,,,,,,,19.4487,19.6204,19.6207,20.1208,20.1212,30.2536,z,1,10.1017,,[],[],[],[],[],[],[],10.1017,1,30.254,30.7543,0,0,0,9,1,1010,NW,"ID",33,fariny,FARINY,z,,,,,,,,,,,,,,,,,,,,,,,,,,,,,,,,,,,,,,,,,,,,,,,,,,,,,,,,,,,,,,,,,
,,,,32113,001,2025-12-01_21h28.40.626,HW_LDT_1,2024.2.4,MacIntel,56.49717514,,,,,,,,,,,,,,,,,,,,,30.7558,30.9539,30.954,31.4531,31.4544,32.404,z,1,0.9288,,[],[],[],[],[],[],[],0.9288,1,32.4043,32.9041,0,1,1,14,1,1015,NW,UN,16,miaber,THRALE,z,,,,,,,,,,,,,,,,,,,,,,,,,,,,,,,,,,,,,,,,,,,,,,,,,,,,,,,,,,,,,,,,,
,,,,32113,001,2025-12-01_21h28.40.626,HW_LDT_1,2024.2.4,MacIntel,56.49717514,,,,,,,,,,,,,,,,,,,,,32.9055,33.104,33.104,33.6039,33.6051,34.5366,m,1,0.9079,,[],[],[],[],[],[],[],0.9079,1,34.5368,35.0364,0,2,2,3,1,1004,WORD,"ID",16,matrix,MATRIX,m,,,,,,,,,,,,,,,,,,,,,,,,,,,,,,,,,,,,,,,,,,,,,,,,,,,,,,,,,,,,,,,,,
,,,,32113,001,2025-12-01_21h28.40.626,HW_LDT_1,2024.2.4,MacIntel,56.49717514,,,,,,,,,,,,,,,,,,,,,35.0379,35.2373,35.2373,35.7372,35.7383,36.3197,m,1,0.558,,[],[],[],[],[],[],[],0.558,1,36.3198,36.8207,0,3,3,1,1,1002,WORD,"ID",33,adjust,ADJUST,m,,,,,,,,,,,,,,,,,,,,,,,,,,,,,,,,,,,,,,,,,,,,,,,,,,,,,,,,,,,,,,,,,
,,,,32113,001,2025-12-01_21h28.40.626,HW_LDT_1,2024.2.4,MacIntel,56.49717514,,,,,,,,,,,,,,,,,,,,,36.8223,37.0198,37.0198,37.5197,37.5209,38.0196,m,1,0.4783,,[],[],[],[],[],[],[],0.4783,1,38.0198,38.5207,0,4,4,7,1,1008,WORD,UN,16,hurdle,VOLUME,m,,,,,,,,,,,,,,,,,,,,,,,,,,,,,,,,,,,,,,,,,,,,,,,,,,,,,,,,,,,,,,,,,
,,,,32113,001,2025-12-01_21h28.40.626,HW_LDT_1,2024.2.4,MacIntel,56.49717514,,,,,,,,,,,,,,,,,,,,,38.5221,38.7203,38.7204,39.2198,39.2208,39.7038,m,1,0.4726,,[],[],[],[],[],[],[],0.4726,1,39.7041,40.2039,0,5,5,5,1,1006,WORD,UN,33,frenzy,OBTAIN,m,,,,,,,,,,,,,,,,,,,,,,,,,,,,,,,,,,,,,,,,,,,,,,,,,,,,,,,,,,,,,,,,,
,,,,32113,001,2025-12-01_21h28.40.626,HW_LDT_1,2024.2.4,MacIntel,56.49717514,,,,,,,,,,,,,,,,,,,,,40.2055,40.404,40.4042,40.9038,40.9047,41.5042,m,1,0.5901,,[],[],[],[],[],[],[],0.5901,1,41.5045,42.004,0,6,6,6,1,1007,WORD,UN,16,tropic,ZOMBIE,m,,,,,,,,,,,,,,,,,,,,,,,,,,,,,,,,,,,,,,,,,,,,,,,,,,,,,,,,,,,,,,,,,
,,,,32113,001,2025-12-01_21h28.40.626,HW_LDT_1,2024.2.4,MacIntel,56.49717514,,,,,,,,,,,,,,,,,,,,,42.0058,42.2038,42.2039,42.7028,42.7038,43.3706,z,1,0.6459,,[],[],[],[],[],[],[],0.6459,1,43.3706,43.8696,0,7,7,15,1,1016,NW,UN,16,mushed,WHAISE,z,,,,,,,,,,,,,,,,,,,,,,,,,,,,,,,,,,,,,,,,,,,,,,,,,,,,,,,,,,,,,,,,,
,,,,32113,001,2025-12-01_21h28.40.626,HW_LDT_1,2024.2.4,MacIntel,56.49717514,,,,,,,,,,,,,,,,,,,,,43.871,44.0695,44.0697,44.5695,44.5706,45.1706,m,0,0.5877,,[],[],[],[],[],[],[],0.5877,0,45.1716,45.6706,0,8,8,10,1,1011,NW,"ID",16,inlade,INLADE,z,,,,,,,,,,,,,,,,,,,,,,,,,,,,,,,,,,,,,,,,,,,,,,,,,,,,,,,,,,,,,,,,,
,,,,32113,001,2025-12-01_21h28.40.626,HW_LDT_1,2024.2.4,MacIntel,56.49717514,,,,,,,,,,,,,,,,,,,,,45.6722,45.8698,45.8698,46.3704,46.3715,47.0205,z,1,0.6366,,[],[],[],[],[],[],[],0.6366,1,47.0214,47.5205,0,9,9,11,1,1012,NW,"ID",16,rashet,RASHET,z,,,,,,,,,,,,,,,,,,,,,,,,,,,,,,,,,,,,,,,,,,,,,,,,,,,,,,,,,,,,,,,,,
,,,,32113,001,2025-12-01_21h28.40.626,HW_LDT_1,2024.2.4,MacIntel,56.49717514,,,,,,,,,,,,,,,,,,,,,47.522,47.7204,47.7204,48.2203,48.2214,49.4539,z,1,1.2109,,[],[],[],[],[],[],[],1.2109,1,49.4541,49.9537,0,10,10,12,1,1013,NW,UN,33,adveil,SPRINY,z,,,,,,,,,,,,,,,,,,,,,,,,,,,,,,,,,,,,,,,,,,,,,,,,,,,,,,,,,,,,,,,,,
,,,,32113,001,2025-12-01_21h28.40.626,HW_LDT_1,2024.2.4,MacIntel,56.49717514,,,,,,,,,,,,,,,,,,,,,49.9553,50.1537,50.1538,50.6537,50.6546,51.4705,z,1,0.7907,,[],[],[],[],[],[],[],0.7907,1,51.4707,51.9707,0,11,11,8,1,1009,NW,"ID",33,aslert,ASLERT,z,,,,,,,,,,,,,,,,,,,,,,,,,,,,,,,,,,,,,,,,,,,,,,,,,,,,,,,,,,,,,,,,,
,,,,32113,001,2025-12-01_21h28.40.626,HW_LDT_1,2024.2.4,MacIntel,56.49717514,,,,,,,,,,,,,,,,,,,,,51.972,52.1704,52.1704,52.6704,52.6712,54.6371,m,1,1.9443,,[],[],[],[],[],[],[],1.9443,1,54.6372,55.1371,0,12,12,2,1,1003,WORD,"ID",16,almond,ALMOND,m,,,,,,,,,,,,,,,,,,,,,,,,,,,,,,,,,,,,,,,,,,,,,,,,,,,,,,,,,,,,,,,,,
,,,,32113,001,2025-12-01_21h28.40.626,HW_LDT_1,2024.2.4,MacIntel,56.49717514,,,,,,,,,,,,,,,,,,,,,55.1384,55.3371,55.3372,55.8361,55.837,56.7705,z,1,0.9081,,[],[],[],[],[],[],[],0.9081,1,56.7706,57.2705,0,13,13,13,1,1014,NW,UN,33,winfer,ROUPET,z,,,,,,,,,,,,,,,,,,,,,,,,,,,,,,,,,,,,,,,,,,,,,,,,,,,,,,,,,,,,,,,,,
,,,,32113,001,2025-12-01_21h28.40.626,HW_LDT_1,2024.2.4,MacIntel,56.49717514,,,,,,,,,,,,,,,,,,,,,57.2718,57.4703,57.4704,57.9704,57.9714,58.9863,m,1,1.0056,,[],[],[],[],[],[],[],1.0056,1,58.9865,59.487,0,14,14,0,1,1001,WORD,"ID",33,utopia,UTOPIA,m,,,,,,,,,,,,,,,,,,,,,,,,,,,,,,,,,,,,,,,,,,,,,,,,,,,,,,,,,,,,,,,,,
,,,,32113,001,2025-12-01_21h28.40.626,HW_LDT_1,2024.2.4,MacIntel,56.49717514,,,,,,,,,,,,,,,,,,,,,59.4884,59.687,59.687,60.1862,60.1872,61.2371,m,1,1.0229,,[],[],[],[],[],[],[],1.0229,1,61.2373,61.737,0,15,15,4,1,1005,WORD,UN,33,abound,SQUEAK,m,,,,,,,,,,,,,,,,,,,,,,,,,,,,,,,,,,,,,,,,,,,,,,,,,,,,,,,,,,,,,,,,,
,,,,32113,001,2025-12-01_21h28.40.626,HW_LDT_1,2024.2.4,MacIntel,56.49717514,,,,,,,,,,,,,,,,1,end_of_practice,"You have completed the practice trials. During the experimental trials, you will not receive feedback. On some trials you will be asked to report whether the item you just saw was in cursive or print. 
Before you begin, please ensure that you are in a comfortable and quiet location and will not be disturbed for about 15 minutes, as we cannot use your data if you do not complete all the trials. 
 When you are ready to start the experimental trials, please press space or touch the button below.",,,,,,,,,,,,,,,,,,,,,,,,,,,,,,,,,,,,61.7423,64.2042,space,2.4415,,-0.02808919,-0.366599187,0,0,0,0,0,0,0,1,,,,,,,,,,,,,,,,,,,,,,,,,,,,,,,,,,,,,,,,,,,,,,,,,,
,,,,32113,001,2025-12-01_21h28.40.626,HW_LDT_1,2024.2.4,MacIntel,56.49717514,,,,,,,,,,,,,,,,,,,,,64.2223,64.4037,64.4038,64.9035,,,,,,,,,,,,,,3.2693,1,,,,,,,,,,,,,,m,,,,,,,,,,,,,,,,1,0,64.9048,68.1873,m,1,3.2693,,[],[],[],[],[],[],[],68.1876,70.1872,70.1875,70.191,[],[],[],[],[],[],[],,70.1911,70.1927,-0.02808919,-0.366599187,0,0,0,,0,0,0,139,1,4,word,REGULAR,cursive,regular_c.png,,,,,
,,,,32113,001,2025-12-01_21h28.40.626,HW_LDT_1,2024.2.4,MacIntel,56.49717514,,,,,,,,,,,,,,,,,,,,,70.1935,70.387,70.3871,70.8866,,,,,,,,,,,,,,2.9725,1,,,,,,,,,,,,,,m,,,,,,,,,,,,,,,,2,0,70.8872,73.8706,m,1,2.9725,,[],[],[],[],[],[],[],73.8707,75.8702,75.8702,75.8705,[],[],[],[],[],[],[],,75.8706,75.8707,-0.02808919,-0.366599187,0,0,0,,0,1,1,88,1,4,word,CAMERA,print,camera_p.png,,,,,
,,,,32113,001,2025-12-01_21h28.40.626,HW_LDT_1,2024.2.4,MacIntel,56.49717514,,,,,,,,,,,,,,,,,,,,,75.872,76.0702,76.0703,76.5701,,,,,,,,,,,,,,0.771,0,,,,,,,,,,,,,,z,,,,,,,,,,,,,,,,3,0,76.5707,77.3536,m,0,0.771,,[],[],[],[],[],[],[],77.3537,79.3535,79.3536,79.3538,[],[],[],[],[],[],[],,79.3539,79.3541,-0.02808919,-0.366599187,0,0,0,,0,2,2,47,1,4,RL,stopave,print,stopave_p.png,,,,,
,,,,32113,001,2025-12-01_21h28.40.626,HW_LDT_1,2024.2.4,MacIntel,56.49717514,,,,,,,,,,,,,,,,,,,,,79.3552,79.5535,79.5535,80.0534,,,,,,,,,,,,,,0.7473,1,,,,,,,,,,,,,,m,,,,,,,,,,,,,,,,4,0,80.0542,80.8035,m,1,0.7473,,[],[],[],[],[],[],[],80.8036,82.8035,82.8036,82.8038,[],[],[],[],[],[],[],,82.8038,82.804,-0.02808919,-0.366599187,0,0,0,,0,3,3,125,1,4,word,OPERATOR,print,operator_p.png,,,,,
,,,,32113,001,2025-12-01_21h28.40.626,HW_LDT_1,2024.2.4,MacIntel,56.49717514,,,,,,,,,,,,,,,,,,,,,82.8052,83.0034,83.0035,83.5028,,,,,,,,,,,,,,1.1379,0,,,,,,,,,,,,,,z,,,,,,,,,,,,,,,,5,0,83.5035,84.6536,m,0,1.1379,,[],[],[],[],[],[],[],84.6536,86.6535,86.6536,86.6539,[],[],[],[],[],[],[],,86.654,86.6541,-0.02808919,-0.366599187,0,0,0,,0,4,4,18,1,4,RL,disluge,print,disluge_p.png,,,,,
,,,,32113,001,2025-12-01_21h28.40.626,HW_LDT_1,2024.2.4,MacIntel,56.49717514,,,,,,,,,,,,,,,,,,,,,86.6552,86.8534,86.8535,87.3527,,,,,,,,,,,,,,0.8151,1,,,,,,,,,,,,,,m,,,,,,,,,,,,,,,,6,0,87.3533,88.1701,m,1,0.8151,,[],[],[],[],[],[],[],88.1702,90.17,90.1702,90.1706,[],[],[],[],[],[],[],,90.1707,90.1708,-0.02808919,-0.366599187,0,0,0,,0,5,5,147,1,4,word,ROMANTIC,print,romantic_p.png,,,,,
,,,,32113,001,2025-12-01_21h28.40.626,HW_LDT_1,2024.2.4,MacIntel,56.49717514,,,,,,,,,,,,,,,,,,,,,90.1721,90.37,90.3701,90.87,,,,,,,,,,,,,,1.029,0,,,,,,,,,,,,,,m,,,,,,,,,,,,,,,,7,0,90.8707,91.9025,z,0,1.029,,[],[],[],[],[],[],[],91.9026,93.9033,93.9035,93.9038,[],[],[],[],[],[],[],,93.9038,93.904,-0.02808919,-0.366599187,0,0,0,,0,6,6,113,1,4,word,LITERAL,cursive,literal_c.png,,,,,
,,,,32113,001,2025-12-01_21h28.40.626,HW_LDT_1,2024.2.4,MacIntel,56.49717514,,,,,,,,,,,,,,,,,,,,,93.9051,94.1034,94.1034,94.6033,,,,,,,,,,,,,,2.2305,1,,,,,,,,,,,,,,z,,,,,,,,,,,,,,,,8,0,94.6039,96.8367,z,1,2.2305,,[],[],[],[],[],[],[],96.8369,98.8367,98.8368,98.837,[],[],[],[],[],[],[],,98.837,98.8372,-0.02808919,-0.366599187,0,0,0,,0,7,7,69,1,4,TL,quafily,print,quafily_p.png,,,,,
,,,,32113,001,2025-12-01_21h28.40.626,HW_LDT_1,2024.2.4,MacIntel,56.49717514,,,,,,,,,,,,,,,,,,,,,98.8385,99.0366,99.0368,99.5362,,,,,,,,,,,,,,7.4213,1,,,,,,,,,,,,,,z,,,,,,,,,,,,,,,,9,0,99.5369,106.97,z,1,7.4213,,[],[],[],[],[],[],[],106.9702,108.97,108.97,108.9703,[],[],[],[],[],[],[],,108.9703,108.9705,-0.02808919,-0.366599187,0,0,0,,0,8,8,79,1,4,TL,tritube,print,tritube_p.png,,,,,
,,,,32113,001,2025-12-01_21h28.40.626,HW_LDT_1,2024.2.4,MacIntel,56.49717514,,,,,,,,,,,,,,,,,,,,,108.9715,109.1699,109.17,109.6698,,,,,,,,,,,,,,10.7544,1,,,,,,,,,,,,,,z,,,,,,,,,,,,,,,,10,0,109.6705,120.4365,z,1,10.7544,,[],[],[],[],[],[],[],120.4367,122.4364,122.4364,122.4368,[],[],[],[],[],[],[],,122.4369,122.437,-0.02808919,-0.366599187,0,0,0,,0,9,9,35,1,4,RL,probice,cursive,probice_c.png,,,,,
,,,,32113,001,2025-12-01_21h28.40.626,HW_LDT_1,2024.2.4,MacIntel,56.49717514,,,,,,,,,,,,,,,,,,,,,122.4383,122.6363,122.6364,123.1364,,,,,,,,,,,,,,2.5535,1,,,,,,,,,,,,,,z,,,,,,,,,,,,,,,,11,0,123.137,125.7031,z,1,2.5535,,[],[],[],[],[],[],[],125.7033,127.7023,127.7024,127.7027,[],[],[],[],[],[],[],,127.7027,127.7028,-0.02808919,-0.366599187,0,0,0,,0,10,10,52,1,4,TL,cagetory,cursive,cagetory_c.png,,,,,
,,,,32113,001,2025-12-01_21h28.40.626,HW_LDT_1,2024.2.4,MacIntel,56.49717514,,,,,,,,,,,,,,,,,,,,,127.7038,127.903,127.9031,128.4021,,,,,,,,,,,,,,0.6733,1,,,,,,,,,,,,,,m,,,,,,,,,,,,,,,,12,0,128.4025,129.0865,m,1,0.6733,,[],[],[],[],[],[],[],129.0866,131.0864,131.0864,131.0867,[],[],[],[],[],[],[],,131.0867,131.0869,-0.02808919,-0.366599187,0,0,0,,0,11,11,117,1,4,word,MARINE,print,marine_p.png,,,,,
,,,,32113,001,2025-12-01_21h28.40.626,HW_LDT_1,2024.2.4,MacIntel,56.49717514,,,,,,,,,,,,,,,,,,,,,131.0881,131.2864,131.2864,131.7855,,,,,,,,,,,,,,0.8389,0,,,,,,,,,,,,,,m,,,,,,,,,,,,,,,,13,1,131.786,132.6364,z,0,0.8389,,[],[],[],[],[],[],[],132.6365,134.6363,134.6364,143.6865,[],[],[],[],[],[],[],z,143.6866,143.6868,-0.02808919,-0.366599187,0,0,0,,0,12,12,87,1,4,word,CAFETERIA,cursive,cafeteria_c.png,9.0385,,,,
,,,,32113,001,2025-12-01_21h28.40.626,HW_LDT_1,2024.2.4,MacIntel,56.49717514,,,,,,,,,,,,,,,,,,,,,143.6881,143.8863,143.8863,144.3861,,,,,,,,,,,,,,1.7074,1,,,,,,,,,,,,,,z,,,,,,,,,,,,,,,,14,0,144.3867,146.1028,z,1,1.7074,,[],[],[],[],[],[],[],146.1029,148.1029,148.1029,148.1031,[],[],[],[],[],[],[],,148.1031,148.1033,-0.02808919,-0.366599187,0,0,0,,0,13,13,11,1,4,RL,clisimal,print,clisimal_p.png,,,,,
,,,,32113,001,2025-12-01_21h28.40.626,HW_LDT_1,2024.2.4,MacIntel,56.49717514,,,,,,,,,,,,,,,,,,,,,148.1045,148.3029,148.3031,148.8028,,,,,,,,,,,,,,1.2209,1,,,,,,,,,,,,,,z,,,,,,,,,,,,,,,,15,0,148.8035,150.0362,z,1,1.2209,,[],[],[],[],[],[],[],150.0363,152.0361,152.0361,152.0363,[],[],[],[],[],[],[],,152.0364,152.0365,-0.02808919,-0.366599187,0,0,0,,0,14,14,4,1,4,RL,betemit,cursive,betemit_c.png,,,,,
,,,,32113,001,2025-12-01_21h28.40.626,HW_LDT_1,2024.2.4,MacIntel,56.49717514,,,,,,,,,,,,,,,,,,,,,152.0376,152.2362,152.2363,152.7361,,,,,,,,,,,,,,1.1573,1,,,,,,,,,,,,,,m,,,,,,,,,,,,,,,,16,0,152.7369,153.9028,m,1,1.1573,,[],[],[],[],[],[],[],153.903,155.9028,155.9028,155.9031,[],[],[],[],[],[],[],,155.9032,155.9033,-0.02808919,-0.366599187,0,0,0,,0,15,15,152,1,4,word,SPECIMEN,cursive,specimen_c.png,,,,,
,,,,32113,001,2025-12-01_21h28.40.626,HW_LDT_1,2024.2.4,MacIntel,56.49717514,,,,,,,,,,,,,,,,,,,,,155.9045,156.1028,156.1029,156.6027,,,,,,,,,,,,,,2.0545,1,,,,,,,,,,,,,,z,,,,,,,,,,,,,,,,17,0,156.6034,158.6696,z,1,2.0545,,[],[],[],[],[],[],[],158.6697,160.6695,160.6695,160.6698,[],[],[],[],[],[],[],,160.6698,160.6699,-0.02808919,-0.366599187,0,0,0,,0,16,16,73,1,4,TL,regilion,print,regilion_p.png,,,,,
,,,,32113,001,2025-12-01_21h28.40.626,HW_LDT_1,2024.2.4,MacIntel,56.49717514,,,,,,,,,,,,,,,,,,,,,160.6713,160.8694,160.8694,161.3694,,,,,,,,,,,,,,3.7044,1,,,,,,,,,,,,,,z,,,,,,,,,,,,,,,,18,0,161.3699,165.0861,z,1,3.7044,,[],[],[],[],[],[],[],165.0862,167.0861,167.0861,167.0863,[],[],[],[],[],[],[],,167.0863,167.0865,-0.02808919,-0.366599187,0,0,0,,0,17,17,2,1,4,RL,asiral,cursive,asiral_c.png,,,,,
,,,,32113,001,2025-12-01_21h28.40.626,HW_LDT_1,2024.2.4,MacIntel,56.49717514,,,,,,,,,,,,,,,,,,,,,167.0878,167.286,167.286,167.786,,,,,,,,,,,,,,1.5208,0,,,,,,,,,,,,,,m,,,,,,,,,,,,,,,,19,0,167.7866,169.3194,z,0,1.5208,,[],[],[],[],[],[],[],169.3195,171.3194,171.3194,171.3196,[],[],[],[],[],[],[],,171.3197,171.3198,-0.02808919,-0.366599187,0,0,0,,0,18,18,108,1,4,word,FORTUNE,cursive,fortune_c.png,,,,,
,,,,32113,001,2025-12-01_21h28.40.626,HW_LDT_1,2024.2.4,MacIntel,56.49717514,,,,,,,,,,,,,,,,,,,,,171.3213,171.5192,171.5193,172.0195,,,,,,,,,,,,,,2.756,1,,,,,,,,,,,,,,z,,,,,,,,,,,,,,,,20,0,172.0201,174.7861,z,1,2.756,,[],[],[],[],[],[],[],174.7862,176.7859,176.786,176.7862,[],[],[],[],[],[],[],,176.7862,176.7864,-0.02808919,-0.366599187,0,0,0,,0,19,19,61,1,4,TL,lotace,cursive,lotace_c.png,,,,,
,,,,32113,001,2025-12-01_21h28.40.626,HW_LDT_1,2024.2.4,MacIntel,56.49717514,,,,,,,,,,,,,,,,,,,,,176.7876,176.9859,176.9859,177.4859,,,,,,,,,,,,,,2.4713,1,,,,,,,,,,,,,,z,,,,,,,,,,,,,,,,21,0,177.4865,179.9683,z,1,2.4713,,[],[],[],[],[],[],[],179.9685,181.9682,181.9682,181.9684,[],[],[],[],[],[],[],,181.9684,181.9685,-0.02808919,-0.366599187,0,0,0,,0,20,20,65,1,4,TL,orepator,print,orepator_p.png,,,,,
,,,,32113,001,2025-12-01_21h28.40.626,HW_LDT_1,2024.2.4,MacIntel,56.49717514,,,,,,,,,,,,,,,,,,,,,181.9695,182.1686,182.1686,182.6692,,,,,,,,,,,,,,1.7239,1,,,,,,,,,,,,,,m,,,,,,,,,,,,,,,,22,1,182.6698,184.4016,m,1,1.7239,,[],[],[],[],[],[],[],184.4016,186.4016,186.4017,188.6693,[],[],[],[],[],[],[],z,188.6694,188.6695,-0.02808919,-0.366599187,0,0,0,,0,21,21,98,1,4,word,CRIMINAL,cursive,criminal_c.png,2.2562,,,,
,,,,32113,001,2025-12-01_21h28.40.626,HW_LDT_1,2024.2.4,MacIntel,56.49717514,,,,,,,,,,,,,,,,,,,,,188.6706,188.8688,188.8688,189.3686,,,,,,,,,,,,,,1.009,1,,,,,,,,,,,,,,m,,,,,,,,,,,,,,,,23,0,189.3691,190.3858,m,1,1.009,,[],[],[],[],[],[],[],190.386,192.385,192.385,192.3853,[],[],[],[],[],[],[],,192.3854,192.3855,-0.02808919,-0.366599187,0,0,0,,0,22,22,145,1,4,word,RESUME,print,resume_p.png,,,,,
,,,,32113,001,2025-12-01_21h28.40.626,HW_LDT_1,2024.2.4,MacIntel,56.49717514,,,,,,,,,,,,,,,,,,,,,192.3866,192.5857,192.5857,193.0858,,,,,,,,,,,,,,2.7539,1,,,,,,,,,,,,,,z,,,,,,,,,,,,,,,,24,0,193.0865,195.8517,z,1,2.7539,,[],[],[],[],[],[],[],195.8518,197.8518,197.8519,197.8522,[],[],[],[],[],[],[],,197.8523,197.8523,-0.02808919,-0.366599187,0,0,0,,0,23,23,6,1,4,RL,caleberia,cursive,caleberia_c.png,,,,,
,,,,32113,001,2025-12-01_21h28.40.626,HW_LDT_1,2024.2.4,MacIntel,56.49717514,,,,,,,,,,,,,,,,,,,,,197.8535,198.0524,198.0524,198.5524,,,,,,,,,,,,,,1.1733,1,,,,,,,,,,,,,,m,,,,,,,,,,,,,,,,25,0,198.5531,199.7347,m,1,1.1733,,[],[],[],[],[],[],[],199.7349,201.7348,201.7349,201.7352,[],[],[],[],[],[],[],,201.7353,201.7354,-0.02808919,-0.366599187,0,0,0,,0,24,24,135,1,4,word,QUALITY,print,quality_p.png,,,,,
,,,,32113,001,2025-12-01_21h28.40.626,HW_LDT_1,2024.2.4,MacIntel,56.49717514,,,,,,,,,,,,,,,,,,,,,201.7369,201.9357,201.9358,202.4356,,,,,,,,,,,,,,1.1597,1,,,,,,,,,,,,,,m,,,,,,,,,,,,,,,,26,0,202.4363,203.6015,m,1,1.1597,,[],[],[],[],[],[],[],203.6015,205.6023,205.6023,205.6026,[],[],[],[],[],[],[],,205.6027,205.6027,-0.02808919,-0.366599187,0,0,0,,0,25,25,141,1,4,word,RELIGION,print,religion_p.png,,,,,
,,,,32113,001,2025-12-01_21h28.40.626,HW_LDT_1,2024.2.4,MacIntel,56.49717514,,,,,,,,,,,,,,,,,,,,,205.6039,205.8023,205.8024,206.3023,,,,,,,,,,,,,,0.7243,1,,,,,,,,,,,,,,m,,,,,,,,,,,,,,,,27,1,206.3029,207.0355,m,1,0.7243,,[],[],[],[],[],[],[],207.0356,209.0356,209.0358,210.5848,[],[],[],[],[],[],[],m,210.585,210.5852,-0.02808919,-0.366599187,0,0,0,,0,26,26,109,1,4,word,GRATEFUL,print,grateful_p.png,1.5383,,,,
,,,,32113,001,2025-12-01_21h28.40.626,HW_LDT_1,2024.2.4,MacIntel,56.49717514,,,,,,,,,,,,,,,,,,,,,210.5865,210.7857,210.7857,211.2856,,,,,,,,,,,,,,1.071,1,,,,,,,,,,,,,,z,,,,,,,,,,,,,,,,28,1,211.2863,212.3692,z,1,1.071,,[],[],[],[],[],[],[],212.3693,214.3689,214.3689,216.1189,[],[],[],[],[],[],[],z,216.119,216.1192,-0.02808919,-0.366599187,0,0,0,,0,27,27,16,1,4,RL,desifate,cursive,desifate_c.png,1.7398,,,,
,,,,32113,001,2025-12-01_21h28.40.626,HW_LDT_1,2024.2.4,MacIntel,56.49717514,,,,,,,,,,,,,,,,,,,,,216.1203,216.319,216.319,216.819,,,,,,,,,,,,,,0.6375,1,,,,,,,,,,,,,,m,,,,,,,,,,,,,,,,29,0,216.8195,217.4689,m,1,0.6375,,[],[],[],[],[],[],[],217.469,219.4686,219.4687,219.4687,[],[],[],[],[],[],[],,219.4687,219.4688,-0.02808919,-0.366599187,0,0,0,,0,28,28,132,1,4,word,PROPOSAL,print,proposal_p.png,,,,,
,,,,32113,001,2025-12-01_21h28.40.626,HW_LDT_1,2024.2.4,MacIntel,56.49717514,,,,,,,,,,,,,,,,,,,,,219.4693,219.6688,219.6688,220.1688,,,,,,,,,,,,,,3.1303,1,,,,,,,,,,,,,,z,,,,,,,,,,,,,,,,30,0,220.1695,223.3023,z,1,3.1303,,[],[],[],[],[],[],[],223.3024,225.3022,225.3023,225.3026,[],[],[],[],[],[],[],,225.3027,225.3028,-0.02808919,-0.366599187,0,0,0,,0,29,29,21,1,4,RL,insibate,print,insibate_p.png,,,,,
,,,,32113,001,2025-12-01_21h28.40.626,HW_LDT_1,2024.2.4,MacIntel,56.49717514,,,,,,,,,,,,,,,,,,,,,225.304,225.5012,225.5012,226.0013,,,,,,,,,,,,,,3.0999,1,,,,,,,,,,,,,,m,,,,,,,,,,,,,,,,31,0,226.0019,229.1025,m,1,3.0999,,[],[],[],[],[],[],[],229.1026,231.101,231.101,231.1011,[],[],[],[],[],[],[],,231.1012,231.1012,-0.02808919,-0.366599187,0,0,0,,0,30,30,91,1,4,word,CARDINAL,cursive,cardinal_c.png,,,,,
,,,,32113,001,2025-12-01_21h28.40.626,HW_LDT_1,2024.2.4,MacIntel,56.49717514,,,,,,,,,,,,,,,,,,,,,231.1018,231.3012,231.3012,231.8013,,,,,,,,,,,,,,5.0746,0,,,,,,,,,,,,,,m,,,,,,,,,,,,,,,,32,0,231.8019,236.8846,z,0,5.0746,,[],[],[],[],[],[],[],236.8847,238.8844,238.8845,238.8847,[],[],[],[],[],[],[],,238.8847,238.8849,-0.02808919,-0.366599187,0,0,0,,0,31,31,101,1,4,word,DELICATE,cursive,delicate_c.png,,,,,
,,,,32113,001,2025-12-01_21h28.40.626,HW_LDT_1,2024.2.4,MacIntel,56.49717514,,,,,,,,,,,,,,,,,,,,,238.8858,239.0855,239.0855,239.5853,,,,,,,,,,,,,,2.1547,1,,,,,,,,,,,,,,m,,,,,,,,,,,,,,,,33,0,239.5859,241.7519,m,1,2.1547,,[],[],[],[],[],[],[],241.7521,243.752,243.752,243.7523,[],[],[],[],[],[],[],,243.7523,243.7525,-0.02808919,-0.366599187,0,0,0,,0,32,32,144,1,4,word,RESIDENT,cursive,resident_c.png,,,,,
,,,,32113,001,2025-12-01_21h28.40.626,HW_LDT_1,2024.2.4,MacIntel,56.49717514,,,,,,,,,,,,,,,,,,,,,243.7536,243.952,243.952,244.452,,,,,,,,,,,,,,1.3046,0,,,,,,,,,,,,,,m,,,,,,,,,,,,,,,,34,0,244.4527,245.7688,z,0,1.3046,,[],[],[],[],[],[],[],245.7689,247.7677,247.7678,247.768,[],[],[],[],[],[],[],,247.768,247.7682,-0.02808919,-0.366599187,0,0,0,,0,33,33,138,1,4,word,REFUSAL,cursive,refusal_c.png,,,,,
,,,,32113,001,2025-12-01_21h28.40.626,HW_LDT_1,2024.2.4,MacIntel,56.49717514,,,,,,,,,,,,,,,,,,,,,247.7694,247.9686,247.9686,248.4685,,,,,,,,,,,,,,1.0714,1,,,,,,,,,,,,,,m,,,,,,,,,,,,,,,,35,0,248.4692,249.552,m,1,1.0714,,[],[],[],[],[],[],[],249.5521,251.551,251.5511,251.5512,[],[],[],[],[],[],[],,251.5513,251.5514,-0.02808919,-0.366599187,0,0,0,,0,34,34,81,1,4,word,ADVISORY,cursive,advisory_c.png,,,,,
,,,,32113,001,2025-12-01_21h28.40.626,HW_LDT_1,2024.2.4,MacIntel,56.49717514,,,,,,,,,,,,,,,,,,,,,251.5526,251.7511,251.7512,252.251,,,,,,,,,,,,,,2.5723,1,,,,,,,,,,,,,,m,,,,,,,,,,,,,,,,36,0,252.2516,254.8346,m,1,2.5723,,[],[],[],[],[],[],[],254.8346,256.8343,256.8344,256.8345,[],[],[],[],[],[],[],,256.8346,256.8347,-0.02808919,-0.366599187,0,0,0,,0,35,35,131,1,4,word,POPULAR,print,popular_p.png,,,,,
,,,,32113,001,2025-12-01_21h28.40.626,HW_LDT_1,2024.2.4,MacIntel,56.49717514,,,,,,,,,,,,,,,,,,,,,256.836,257.0354,257.0354,257.5351,,,,,,,,,,,,,,2.039,1,,,,,,,,,,,,,,z,,,,,,,,,,,,,,,,37,1,257.5357,259.5852,z,1,2.039,,[],[],[],[],[],[],[],259.5853,261.5851,261.5852,264.9685,[],[],[],[],[],[],[],z,264.9685,264.9686,-0.02808919,-0.366599187,0,0,0,,0,36,36,59,1,4,TL,fornute,cursive,fornute_c.png,3.382,,,,
,,,,32113,001,2025-12-01_21h28.40.626,HW_LDT_1,2024.2.4,MacIntel,56.49717514,,,,,,,,,,,,,,,,,,,,,264.9697,265.1685,265.1686,265.6685,,,,,,,,,,,,,,0.9461,0,,,,,,,,,,,,,,z,,,,,,,,,,,,,,,,38,0,265.6692,266.6184,m,0,0.9461,,[],[],[],[],[],[],[],266.6186,268.6184,268.6185,268.6186,[],[],[],[],[],[],[],,268.6186,268.6186,-0.02808919,-0.366599187,0,0,0,,0,37,37,51,1,4,TL,adsivory,cursive,adsivory_c.png,,,,,
,,,,32113,001,2025-12-01_21h28.40.626,HW_LDT_1,2024.2.4,MacIntel,56.49717514,,,,,,,,,,,,,,,,,,,,,268.6193,268.8185,268.8185,269.3179,,,,,,,,,,,,,,1.7495,1,,,,,,,,,,,,,,z,,,,,,,,,,,,,,,,39,0,269.3186,271.0691,z,1,1.7495,,[],[],[],[],[],[],[],271.0693,273.0684,273.0685,273.0687,[],[],[],[],[],[],[],,273.0687,273.0689,-0.02808919,-0.366599187,0,0,0,,0,38,38,57,1,4,TL,etidor,print,etidor_p.png,,,,,
,,,,32113,001,2025-12-01_21h28.40.626,HW_LDT_1,2024.2.4,MacIntel,56.49717514,,,,,,,,,,,,,,,,,,,,,273.0702,273.2683,273.2684,273.7683,,,,,,,,,,,,,,1.0811,1,,,,,,,,,,,,,,z,,,,,,,,,,,,,,,,40,0,273.7689,274.8517,z,1,1.0811,,[],[],[],[],[],[],[],274.8518,276.8517,276.8517,276.8519,[],[],[],[],[],[],[],,276.852,276.8521,-0.02808919,-0.366599187,0,0,0,,0,39,39,38,1,4,RL,refakive,print,refakive_p.png,,,,,
,,,,32113,001,2025-12-01_21h28.40.626,HW_LDT_1,2024.2.4,MacIntel,56.49717514,,,,,,,,,,,,,,,,,,,,,276.8534,277.0516,277.0517,277.5517,,,,,,,,,,,,,,0.9875,1,,,,,,,,,,,,,,m,,,,,,,,,,,,,,,,41,0,277.5523,278.5517,m,1,0.9875,,[],[],[],[],[],[],[],278.5519,280.5516,280.5516,280.5519,[],[],[],[],[],[],[],,280.5519,280.552,-0.02808919,-0.366599187,0,0,0,,0,40,40,158,1,4,word,VELOCITY,cursive,velocity_c.png,,,,,
,,,,32113,001,2025-12-01_21h28.40.626,HW_LDT_1,2024.2.4,MacIntel,56.49717514,,,,,,,,,,,,,,,,,,,,,280.5533,280.7516,280.7516,281.2516,,,,,,,,,,,,,,1.8547,1,,,,,,,,,,,,,,z,,,,,,,,,,,,,,,,42,0,281.2523,283.1183,z,1,1.8547,,[],[],[],[],[],[],[],283.1185,285.1183,285.1183,285.1185,[],[],[],[],[],[],[],,285.1186,285.1187,-0.02808919,-0.366599187,0,0,0,,0,41,41,23,1,4,RL,linefal,cursive,linefal_c.png,,,,,
,,,,32113,001,2025-12-01_21h28.40.626,HW_LDT_1,2024.2.4,MacIntel,56.49717514,,,,,,,,,,,,,,,,,,,,,285.1198,285.3182,285.3183,285.8182,,,,,,,,,,,,,,1.1056,1,,,,,,,,,,,,,,z,,,,,,,,,,,,,,,,43,0,285.8188,286.935,z,1,1.1056,,[],[],[],[],[],[],[],286.935,288.9348,288.935,288.9352,[],[],[],[],[],[],[],,288.9352,288.9353,-0.02808919,-0.366599187,0,0,0,,0,42,42,12,1,4,RL,conbicer,cursive,conbicer_c.png,,,,,
,,,,32113,001,2025-12-01_21h28.40.626,HW_LDT_1,2024.2.4,MacIntel,56.49717514,,,,,,,,,,,,,,,,,,,,,288.9365,289.1347,289.1347,289.6348,,,,,,,,,,,,,,2.0898,1,,,,,,,,,,,,,,z,,,,,,,,,,,,,,,,44,0,289.6355,291.7347,z,1,2.0898,,[],[],[],[],[],[],[],291.7347,293.735,293.735,293.7352,[],[],[],[],[],[],[],,293.7353,293.7353,-0.02808919,-0.366599187,0,0,0,,0,43,43,48,1,4,RL,vabifity,print,vabifity_p.png,,,,,
,,,,32113,001,2025-12-01_21h28.40.626,HW_LDT_1,2024.2.4,MacIntel,56.49717514,,,,,,,,,,,,,,,,,,,,,293.7366,293.9348,293.9348,294.4349,,,,,,,,,,,,,,1.0301,1,,,,,,,,,,,,,,z,,,,,,,,,,,,,,,,45,0,294.4355,295.4681,z,1,1.0301,,[],[],[],[],[],[],[],295.4682,297.4681,297.4682,297.4684,[],[],[],[],[],[],[],,297.4685,297.4685,-0.02808919,-0.366599187,0,0,0,,0,44,44,36,1,4,RL,rabigly,cursive,rabigly_c.png,,,,,
,,,,32113,001,2025-12-01_21h28.40.626,HW_LDT_1,2024.2.4,MacIntel,56.49717514,,,,,,,,,,,,,,,,,,,,,297.4699,297.6682,297.6682,298.1681,,,,,,,,,,,,,,0.7541,1,,,,,,,,,,,,,,m,,,,,,,,,,,,,,,,46,0,298.1687,298.9348,m,1,0.7541,,[],[],[],[],[],[],[],298.9349,300.9348,300.9349,300.9351,[],[],[],[],[],[],[],,300.9352,300.9353,-0.02808919,-0.366599187,0,0,0,,0,45,45,90,1,4,word,CAPITAL,print,capital_p.png,,,,,
,,,,32113,001,2025-12-01_21h28.40.626,HW_LDT_1,2024.2.4,MacIntel,56.49717514,,,,,,,,,,,,,,,,,,,,,300.9365,301.1343,301.1343,301.6343,,,,,,,,,,,,,,1.6926,1,,,,,,,,,,,,,,z,,,,,,,,,,,,,,,,47,1,301.6349,303.3342,z,1,1.6926,,[],[],[],[],[],[],[],303.3343,305.3347,305.3348,306.2683,[],[],[],[],[],[],[],m,306.2684,306.2686,-0.02808919,-0.366599187,0,0,0,,0,46,46,70,1,4,TL,quatily,print,quatily_p.png,0.9226,,,,
,,,,32113,001,2025-12-01_21h28.40.626,HW_LDT_1,2024.2.4,MacIntel,56.49717514,,,,,,,,,,,,,,,,,,,,,306.2698,306.4682,306.4682,306.9681,,,,,,,,,,,,,,0.8548,1,,,,,,,,,,,,,,z,,,,,,,,,,,,,,,,48,1,306.9687,307.834,z,1,0.8548,,[],[],[],[],[],[],[],307.8341,309.8347,309.8348,311.235,[],[],[],[],[],[],[],z,311.2351,311.2352,-0.02808919,-0.366599187,0,0,0,,0,47,47,41,1,4,RL,rebicent,cursive,rebicent_c.png,1.3888,,,,
,,,,32113,001,2025-12-01_21h28.40.626,HW_LDT_1,2024.2.4,MacIntel,56.49717514,,,,,,,,,,,,,,,,,,,,,311.2368,311.4348,311.4349,311.9348,,,,,,,,,,,,,,0.972,0,,,,,,,,,,,,,,m,,,,,,,,,,,,,,,,49,0,311.9354,312.9181,z,0,0.972,,[],[],[],[],[],[],[],312.9183,314.9181,314.9181,314.9183,[],[],[],[],[],[],[],,314.9183,314.9185,-0.02808919,-0.366599187,0,0,0,,0,48,48,106,1,4,word,ELABORATE,cursive,elaborate_c.png,,,,,
,,,,32113,001,2025-12-01_21h28.40.626,HW_LDT_1,2024.2.4,MacIntel,56.49717514,,,,,,,,,,,,,,,,,,,,,314.9198,315.1179,315.118,315.6181,,,,,,,,,,,,,,2.6713,1,,,,,,,,,,,,,,z,,,,,,,,,,,,,,,,50,0,315.6186,318.3014,z,1,2.6713,,[],[],[],[],[],[],[],318.3016,320.301,320.3011,320.3013,[],[],[],[],[],[],[],,320.3014,320.3015,-0.02808919,-0.366599187,0,0,0,,0,49,49,15,1,4,RL,debave,cursive,debave_c.png,,,,,
,,,,32113,001,2025-12-01_21h28.40.626,HW_LDT_1,2024.2.4,MacIntel,56.49717514,,,,,,,,,,,,,,,,,,,,,320.3027,320.5013,320.5013,321.0013,,,,,,,,,,,,,,1.0644,1,,,,,,,,,,,,,,z,,,,,,,,,,,,,,,,51,0,321.0018,322.0679,z,1,1.0644,,[],[],[],[],[],[],[],322.068,324.0679,324.068,324.0681,[],[],[],[],[],[],[],,324.0682,324.0683,-0.02808919,-0.366599187,0,0,0,,0,50,50,1,1,4,RL,afaneur,cursive,afaneur_c.png,,,,,
,,,,32113,001,2025-12-01_21h28.40.626,HW_LDT_1,2024.2.4,MacIntel,56.49717514,,,,,,,,,,,,,,,,,,,,,324.0696,324.2679,324.268,324.767,,,,,,,,,,,,,,1.2389,1,,,,,,,,,,,,,,m,,,,,,,,,,,,,,,,52,1,324.7675,326.018,m,1,1.2389,,[],[],[],[],[],[],[],326.0181,328.0178,328.0179,329.6847,[],[],[],[],[],[],[],z,329.6848,329.685,-0.02808919,-0.366599187,0,0,0,,0,51,51,100,1,4,word,DECADE,cursive,decade_c.png,1.6561,,,,
,,,,32113,001,2025-12-01_21h28.40.626,HW_LDT_1,2024.2.4,MacIntel,56.49717514,,,,,,,,,,,,,,,,,,,,,329.6863,329.8845,329.8845,330.3845,,,,,,,,,,,,,,0.6891,1,,,,,,,,,,,,,,m,,,,,,,,,,,,,,,,53,1,330.3851,331.0846,m,1,0.6891,,[],[],[],[],[],[],[],331.0847,333.0845,333.0845,334.0012,[],[],[],[],[],[],[],m,334.0012,334.0014,-0.02808919,-0.366599187,0,0,0,,0,52,52,95,1,4,word,COMEDY,print,comedy_p.png,0.9141,,,,
,,,,32113,001,2025-12-01_21h28.40.626,HW_LDT_1,2024.2.4,MacIntel,56.49717514,,,,,,,,,,,,,,,,,,,,,334.0026,334.2012,334.2012,334.7011,,,,,,,,,,,,,,1.8711,1,,,,,,,,,,,,,,z,,,,,,,,,,,,,,,,54,1,334.7017,336.5836,z,1,1.8711,,[],[],[],[],[],[],[],336.5837,338.5844,338.5845,340.2842,[],[],[],[],[],[],[],m,340.2843,340.2844,-0.02808919,-0.366599187,0,0,0,,0,53,53,31,1,4,RL,orimipal,print,orimipal_p.png,1.6908,,,,
,,,,32113,001,2025-12-01_21h28.40.626,HW_LDT_1,2024.2.4,MacIntel,56.49717514,,,,,,,,,,,,,,,,,,,,,340.2848,340.4844,340.4844,340.9844,,,,,,,,,,,,,,1.0712,1,,,,,,,,,,,,,,m,,,,,,,,,,,,,,,,55,0,340.9851,342.0679,m,1,1.0712,,[],[],[],[],[],[],[],342.0679,344.0677,344.0677,344.068,[],[],[],[],[],[],[],,344.0681,344.0681,-0.02808919,-0.366599187,0,0,0,,0,54,54,153,1,4,word,STOLEN,cursive,stolen_c.png,,,,,
,,,,32113,001,2025-12-01_21h28.40.626,HW_LDT_1,2024.2.4,MacIntel,56.49717514,,,,,,,,,,,,,,,,,,,,,344.0694,344.2676,344.2677,344.7677,,,,,,,,,,,,,,1.0743,1,,,,,,,,,,,,,,m,,,,,,,,,,,,,,,,56,0,344.7683,345.8511,m,1,1.0743,,[],[],[],[],[],[],[],345.8512,347.851,347.8511,347.8513,[],[],[],[],[],[],[],,347.8513,347.8514,-0.02808919,-0.366599187,0,0,0,,0,55,55,97,1,4,word,COVERAGE,cursive,coverage_c.png,,,,,
,,,,32113,001,2025-12-01_21h28.40.626,HW_LDT_1,2024.2.4,MacIntel,56.49717514,,,,,,,,,,,,,,,,,,,,,347.8527,348.051,348.051,348.551,,,,,,,,,,,,,,0.8033,1,,,,,,,,,,,,,,m,,,,,,,,,,,,,,,,57,0,348.5515,349.3676,m,1,0.8033,,[],[],[],[],[],[],[],349.3678,351.3677,351.3677,351.368,[],[],[],[],[],[],[],,351.3681,351.3682,-0.02808919,-0.366599187,0,0,0,,0,56,56,110,1,4,word,HERITAGE,print,heritage_p.png,,,,,
,,,,32113,001,2025-12-01_21h28.40.626,HW_LDT_1,2024.2.4,MacIntel,56.49717514,,,,,,,,,,,,,,,,,,,,,351.3694,351.5676,351.5676,352.0676,,,,,,,,,,,,,,1.1046,1,,,,,,,,,,,,,,z,,,,,,,,,,,,,,,,58,1,352.0683,353.1844,z,1,1.1046,,[],[],[],[],[],[],[],353.1845,355.1843,355.1844,356.0843,[],[],[],[],[],[],[],m,356.0845,356.0846,-0.02808919,-0.366599187,0,0,0,,0,57,57,0,1,4,RL,abanemy,print,abanemy_p.png,0.891,,,,
,,,,32113,001,2025-12-01_21h28.40.626,HW_LDT_1,2024.2.4,MacIntel,56.49717514,,,,,,,,,,,,,,,,,,,,,356.0857,356.2838,356.2838,356.7842,,,,,,,,,,,,,,1.9627,0,,,,,,,,,,,,,,z,,,,,,,,,,,,,,,,59,1,356.7848,358.751,m,0,1.9627,,[],[],[],[],[],[],[],358.751,360.7509,360.7509,361.7177,[],[],[],[],[],[],[],z,361.7178,361.7179,-0.02808919,-0.366599187,0,0,0,,0,58,58,10,1,4,RL,carminal,cursive,carminal_c.png,0.9563,,,,
,,,,32113,001,2025-12-01_21h28.40.626,HW_LDT_1,2024.2.4,MacIntel,56.49717514,,,,,,,,,,,,,,,,,,,,,361.7192,361.9175,361.9175,362.4175,,,,,,,,,,,,,,2.0709,1,,,,,,,,,,,,,,m,,,,,,,,,,,,,,,,60,0,362.4181,364.5011,m,1,2.0709,,[],[],[],[],[],[],[],364.5012,366.5008,366.5009,366.5012,[],[],[],[],[],[],[],,366.5012,366.5014,-0.02808919,-0.366599187,0,0,0,,0,59,59,157,1,4,word,VALIDITY,print,validity_p.png,,,,,
,,,,32113,001,2025-12-01_21h28.40.626,HW_LDT_1,2024.2.4,MacIntel,56.49717514,,,,,,,,,,,,,,,,,,,,,366.5026,366.7008,366.7009,367.2008,,,,,,,,,,,,,,0.806,1,,,,,,,,,,,,,,m,,,,,,,,,,,,,,,,61,0,367.2014,368.0176,m,1,0.806,,[],[],[],[],[],[],[],368.0177,370.0175,370.0175,370.0178,[],[],[],[],[],[],[],,370.0178,370.0178,-0.02808919,-0.366599187,0,0,0,,0,60,60,94,1,4,word,CLINICAL,print,clinical_p.png,,,,,
,,,,32113,001,2025-12-01_21h28.40.626,HW_LDT_1,2024.2.4,MacIntel,56.49717514,,,,,,,,,,,,,,,,,,,,,370.0191,370.2175,370.2175,370.7175,,,,,,,,,,,,,,0.9548,1,,,,,,,,,,,,,,z,,,,,,,,,,,,,,,,62,0,370.7182,371.6842,z,1,0.9548,,[],[],[],[],[],[],[],371.6843,373.6841,373.6841,373.6843,[],[],[],[],[],[],[],,373.6844,373.6845,-0.02808919,-0.366599187,0,0,0,,0,61,61,39,1,4,RL,relone,cursive,relone_c.png,,,,,
,,,,32113,001,2025-12-01_21h28.40.626,HW_LDT_1,2024.2.4,MacIntel,56.49717514,,,,,,,,,,,,,,,,,,,,,373.6858,373.8841,373.8842,374.3837,,,,,,,,,,,,,,1.5714,1,,,,,,,,,,,,,,z,,,,,,,,,,,,,,,,63,0,374.3844,375.967,z,1,1.5714,,[],[],[],[],[],[],[],375.967,377.9675,377.9675,377.9677,[],[],[],[],[],[],[],,377.9678,377.968,-0.02808919,-0.366599187,0,0,0,,0,62,62,78,1,4,TL,stragety,print,stragety_p.png,,,,,
,,,,32113,001,2025-12-01_21h28.40.626,HW_LDT_1,2024.2.4,MacIntel,56.49717514,,,,,,,,,,,,,,,,,,,,,377.969,378.1674,378.1675,378.6675,,,,,,,,,,,,,,1.8716,0,,,,,,,,,,,,,,m,,,,,,,,,,,,,,,,64,0,378.6681,380.5509,z,0,1.8716,,[],[],[],[],[],[],[],380.5509,382.5507,382.5508,382.551,[],[],[],[],[],[],[],,382.551,382.5512,-0.02808919,-0.366599187,0,0,0,,0,63,63,92,1,4,word,CATEGORY,cursive,category_c.png,,,,,
,,,,32113,001,2025-12-01_21h28.40.626,HW_LDT_1,2024.2.4,MacIntel,56.49717514,,,,,,,,,,,,,,,,,,,,,382.5522,382.7509,382.7509,383.2506,,,,,,,,,,,,,,2.1714,1,,,,,,,,,,,,,,z,,,,,,,,,,,,,,,,65,0,383.2514,385.4341,z,1,2.1714,,[],[],[],[],[],[],[],385.4341,387.4339,387.434,387.4344,[],[],[],[],[],[],[],,387.4344,387.4346,-0.02808919,-0.366599187,0,0,0,,0,64,64,60,1,4,TL,hetirage,print,hetirage_p.png,,,,,
,,,,32113,001,2025-12-01_21h28.40.626,HW_LDT_1,2024.2.4,MacIntel,56.49717514,,,,,,,,,,,,,,,,,,,,,387.436,387.6341,387.6341,388.134,,,,,,,,,,,,,,1.4652,1,,,,,,,,,,,,,,m,,,,,,,,,,,,,,,,66,0,388.1346,389.6008,m,1,1.4652,,[],[],[],[],[],[],[],389.6009,391.6002,391.6002,391.6004,[],[],[],[],[],[],[],,391.6004,391.6005,-0.02808919,-0.366599187,0,0,0,,0,65,65,137,1,4,word,RAPIDLY,cursive,rapidly_c.png,,,,,
,,,,32113,001,2025-12-01_21h28.40.626,HW_LDT_1,2024.2.4,MacIntel,56.49717514,,,,,,,,,,,,,,,,,,,,,391.6018,391.8006,391.8006,392.3005,,,,,,,,,,,,,,1.3629,1,,,,,,,,,,,,,,m,,,,,,,,,,,,,,,,67,0,392.3013,393.6673,m,1,1.3629,,[],[],[],[],[],[],[],393.6674,395.6672,395.6673,395.6675,[],[],[],[],[],[],[],,395.6676,395.6677,-0.02808919,-0.366599187,0,0,0,,0,66,66,104,1,4,word,DOMINANT,cursive,dominant_c.png,,,,,
,,,,32113,001,2025-12-01_21h28.40.626,HW_LDT_1,2024.2.4,MacIntel,56.49717514,,,,,,,,,,,,,,,,,,,,,395.669,395.8673,395.8674,396.3672,,,,,,,,,,,,,,1.3316,1,,,,,,,,,,,,,,m,,,,,,,,,,,,,,,,68,1,396.368,397.7006,m,1,1.3316,,[],[],[],[],[],[],[],397.7006,399.7006,399.7006,401.5003,[],[],[],[],[],[],[],m,401.5004,401.5004,-0.02808919,-0.366599187,0,0,0,,0,67,67,120,1,4,word,MILITARY,print,military_p.png,1.7903,,,,
,,,,32113,001,2025-12-01_21h28.40.626,HW_LDT_1,2024.2.4,MacIntel,56.49717514,,,,,,,,,,,,,,,,,,,,,401.501,401.7005,401.7005,402.2005,,,,,,,,,,,,,,2.3704,1,,,,,,,,,,,,,,z,,,,,,,,,,,,,,,,69,0,402.201,404.5841,z,1,2.3704,,[],[],[],[],[],[],[],404.5842,406.5837,406.5839,406.5841,[],[],[],[],[],[],[],,406.5841,406.5841,-0.02808919,-0.366599187,0,0,0,,0,68,68,25,1,4,RL,macise,print,macise_p.png,,,,,
,,,,32113,001,2025-12-01_21h28.40.626,HW_LDT_1,2024.2.4,MacIntel,56.49717514,,,,,,,,,,,,,,,,,,,,,406.5853,406.7838,406.7838,407.2838,,,,,,,,,,,,,,0.8615,1,,,,,,,,,,,,,,z,,,,,,,,,,,,,,,,70,0,407.2843,408.1503,z,1,0.8615,,[],[],[],[],[],[],[],408.1504,410.1496,410.1496,410.1498,[],[],[],[],[],[],[],,410.1498,410.1499,-0.02808919,-0.366599187,0,0,0,,0,69,69,44,1,4,RL,senvilent,print,senvilent_p.png,,,,,
,,,,32113,001,2025-12-01_21h28.40.626,HW_LDT_1,2024.2.4,MacIntel,56.49717514,,,,,,,,,,,,,,,,,,,,,410.1513,410.3505,410.3506,410.8505,,,,,,,,,,,,,,1.4205,1,,,,,,,,,,,,,,z,,,,,,,,,,,,,,,,71,0,410.8511,412.2839,z,1,1.4205,,[],[],[],[],[],[],[],412.284,414.2836,414.2837,414.2839,[],[],[],[],[],[],[],,414.284,414.2841,-0.02808919,-0.366599187,0,0,0,,0,70,70,64,1,4,TL,moredate,print,moredate_p.png,,,,,
,,,,32113,001,2025-12-01_21h28.40.626,HW_LDT_1,2024.2.4,MacIntel,56.49717514,,,,,,,,,,,,,,,,,,,,,414.2853,414.4828,414.4829,414.9837,,,,,,,,,,,,,,3.6548,1,,,,,,,,,,,,,,z,,,,,,,,,,,,,,,,72,0,414.9842,418.6504,z,1,3.6548,,[],[],[],[],[],[],[],418.6505,420.6503,420.6504,420.6506,[],[],[],[],[],[],[],,420.6506,420.6508,-0.02808919,-0.366599187,0,0,0,,0,71,71,66,1,4,TL,opmital,print,opmital_p.png,,,,,
,,,,32113,001,2025-12-01_21h28.40.626,HW_LDT_1,2024.2.4,MacIntel,56.49717514,,,,,,,,,,,,,,,,,,,,,420.652,420.8503,420.8504,421.3504,,,,,,,,,,,,,,0.9714,1,,,,,,,,,,,,,,z,,,,,,,,,,,,,,,,73,0,421.351,422.333,z,1,0.9714,,[],[],[],[],[],[],[],422.3331,424.3337,424.3338,424.334,[],[],[],[],[],[],[],,424.3341,424.3342,-0.02808919,-0.366599187,0,0,0,,0,72,72,32,1,4,RL,patisic,cursive,patisic_c.png,,,,,
,,,,32113,001,2025-12-01_21h28.40.626,HW_LDT_1,2024.2.4,MacIntel,56.49717514,,,,,,,,,,,,,,,,,,,,,424.3353,424.5337,424.5337,425.0328,,,,,,,,,,,,,,0.7391,1,,,,,,,,,,,,,,z,,,,,,,,,,,,,,,,74,0,425.0335,425.7828,z,1,0.7391,,[],[],[],[],[],[],[],425.7829,427.7836,427.7837,427.7839,[],[],[],[],[],[],[],,427.784,427.784,-0.02808919,-0.366599187,0,0,0,,0,73,73,43,1,4,RL,rovastic,print,rovastic_p.png,,,,,
,,,,32113,001,2025-12-01_21h28.40.626,HW_LDT_1,2024.2.4,MacIntel,56.49717514,,,,,,,,,,,,,,,,,,,,,427.7853,427.9836,427.9837,428.4836,,,,,,,,,,,,,,0.9461,1,,,,,,,,,,,,,,z,,,,,,,,,,,,,,,,75,0,428.4842,429.4336,z,1,0.9461,,[],[],[],[],[],[],[],429.4337,431.4335,431.4337,431.4338,[],[],[],[],[],[],[],,431.4338,431.4339,-0.02808919,-0.366599187,0,0,0,,0,74,74,71,1,4,TL,racidal,print,racidal_p.png,,,,,
,,,,32113,001,2025-12-01_21h28.40.626,HW_LDT_1,2024.2.4,MacIntel,56.49717514,,,,,,,,,,,,,,,,,,,,,431.4352,431.6327,431.6327,432.1336,,,,,,,,,,,,,,0.7546,1,,,,,,,,,,,,,,z,,,,,,,,,,,,,,,,76,0,432.1342,432.9003,z,1,0.7546,,[],[],[],[],[],[],[],432.9004,434.9002,434.9002,434.9004,[],[],[],[],[],[],[],,434.9005,434.9006,-0.02808919,-0.366599187,0,0,0,,0,75,75,17,1,4,RL,denficy,cursive,denficy_c.png,,,,,
,,,,32113,001,2025-12-01_21h28.40.626,HW_LDT_1,2024.2.4,MacIntel,56.49717514,,,,,,,,,,,,,,,,,,,,,434.902,435.1001,435.1002,435.5993,,,,,,,,,,,,,,0.8488,1,,,,,,,,,,,,,,m,,,,,,,,,,,,,,,,77,0,435.5999,436.4503,m,1,0.8488,,[],[],[],[],[],[],[],436.4504,438.4502,438.4503,438.4505,[],[],[],[],[],[],[],,438.4505,438.4506,-0.02808919,-0.366599187,0,0,0,,0,76,76,136,1,4,word,RADICAL,print,radical_p.png,,,,,
,,,,32113,001,2025-12-01_21h28.40.626,HW_LDT_1,2024.2.4,MacIntel,56.49717514,,,,,,,,,,,,,,,,,,,,,438.452,438.6502,438.6503,439.1501,,,,,,,,,,,,,,1.2621,1,,,,,,,,,,,,,,m,,,,,,,,,,,,,,,,78,0,439.1508,440.4169,m,1,1.2621,,[],[],[],[],[],[],[],440.4169,442.4168,442.4169,442.417,[],[],[],[],[],[],[],,442.4171,442.4172,-0.02808919,-0.366599187,0,0,0,,0,77,77,105,1,4,word,EDITOR,print,editor_p.png,,,,,
,,,,32113,001,2025-12-01_21h28.40.626,HW_LDT_1,2024.2.4,MacIntel,56.49717514,,,,,,,,,,,,,,,,,,,,,442.4184,442.6159,442.6159,443.1168,,,,,,,,,,,,,,0.7226,1,,,,,,,,,,,,,,m,,,,,,,,,,,,,,,,79,0,443.1174,443.8502,m,1,0.7226,,[],[],[],[],[],[],[],443.8502,445.8492,445.8492,445.8493,[],[],[],[],[],[],[],,445.8494,445.8495,-0.02808919,-0.366599187,0,0,0,,0,78,78,93,1,4,word,CEREMONY,print,ceremony_p.png,,,,,
,,,,32113,001,2025-12-01_21h28.40.626,HW_LDT_1,2024.2.4,MacIntel,56.49717514,,,,,,,,,,,,,,,,,,,,,445.8507,446.0493,446.0493,446.5501,,,,,,,,,,,,,,0.7547,1,,,,,,,,,,,,,,z,,,,,,,,,,,,,,,,80,0,446.5508,447.3169,z,1,0.7547,,[],[],[],[],[],[],[],447.3169,449.3168,449.3168,449.3169,[],[],[],[],[],[],[],,449.3171,453.0679,-0.02808919,-0.366599187,1,0,0,,0,79,79,77,1,4,TL,spemicen,cursive,spemicen_c.png,,,break_done_button,,
,,,,32113,001,2025-12-01_21h28.40.626,HW_LDT_1,2024.2.4,MacIntel,56.49717514,,,,,,,,,,,,,,,,,,,,,453.0689,453.2661,453.2662,453.7666,,,,,,,,,,,,,,6.2369,1,,,,,,,,,,,,,,m,,,,,,,,,,,,,,,,81,0,453.7674,460.0159,m,1,6.2369,,[],[],[],[],[],[],[],460.0161,462.0166,462.0167,462.0169,[],[],[],[],[],[],[],,462.0169,462.017,-0.02808919,-0.366599187,0,0,0,,0,80,80,142,1,4,word,REMOTE,cursive,remote_c.png,,,,,
,,,,32113,001,2025-12-01_21h28.40.626,HW_LDT_1,2024.2.4,MacIntel,56.49717514,,,,,,,,,,,,,,,,,,,,,462.0183,462.2157,462.2158,462.7158,,,,,,,,,,,,,,3.5072,1,,,,,,,,,,,,,,m,,,,,,,,,,,,,,,,82,0,462.7164,466.2327,m,1,3.5072,,[],[],[],[],[],[],[],466.2329,468.2333,468.2334,468.2336,[],[],[],[],[],[],[],,468.2336,468.2337,-0.02808919,-0.366599187,0,0,0,,0,81,81,130,1,4,word,POLICY,cursive,policy_c.png,,,,,
,,,,32113,001,2025-12-01_21h28.40.626,HW_LDT_1,2024.2.4,MacIntel,56.49717514,,,,,,,,,,,,,,,,,,,,,468.235,468.4332,468.4332,468.9333,,,,,,,,,,,,,,1.1876,1,,,,,,,,,,,,,,z,,,,,,,,,,,,,,,,83,0,468.9339,470.1332,z,1,1.1876,,[],[],[],[],[],[],[],470.1334,472.1332,472.1333,472.1335,[],[],[],[],[],[],[],,472.1335,472.1337,-0.02808919,-0.366599187,0,0,0,,0,82,82,26,1,4,RL,mesibine,cursive,mesibine_c.png,,,,,
,,,,32113,001,2025-12-01_21h28.40.626,HW_LDT_1,2024.2.4,MacIntel,56.49717514,,,,,,,,,,,,,,,,,,,,,472.1349,472.3323,472.3324,472.8332,,,,,,,,,,,,,,0.5878,0,,,,,,,,,,,,,,z,,,,,,,,,,,,,,,,84,0,472.8338,473.4332,m,0,0.5878,,[],[],[],[],[],[],[],473.4333,475.4323,475.4324,475.4326,[],[],[],[],[],[],[],,475.4326,475.4328,-0.02808919,-0.366599187,0,0,0,,0,83,83,53,1,4,TL,cemerony,print,cemerony_p.png,,,,,
,,,,32113,001,2025-12-01_21h28.40.626,HW_LDT_1,2024.2.4,MacIntel,56.49717514,,,,,,,,,,,,,,,,,,,,,475.4339,475.6332,475.6332,476.1331,,,,,,,,,,,,,,0.6717,1,,,,,,,,,,,,,,m,,,,,,,,,,,,,,,,85,1,476.1337,476.8157,m,1,0.6717,,[],[],[],[],[],[],[],476.8158,478.8161,478.8162,480.8,[],[],[],[],[],[],[],m,480.8001,480.8002,-0.02808919,-0.366599187,0,0,0,,0,84,84,155,1,4,word,STRATEGY,print,strategy_p.png,1.9725,,,,
,,,,32113,001,2025-12-01_21h28.40.626,HW_LDT_1,2024.2.4,MacIntel,56.49717514,,,,,,,,,,,,,,,,,,,,,480.8015,480.9998,480.9998,481.5,,,,,,,,,,,,,,0.7716,1,,,,,,,,,,,,,,m,,,,,,,,,,,,,,,,86,0,481.5007,482.2832,m,1,0.7716,,[],[],[],[],[],[],[],482.2833,484.2831,484.2832,484.2834,[],[],[],[],[],[],[],,484.2834,484.2837,-0.02808919,-0.366599187,0,0,0,,0,85,85,118,1,4,word,MEDICINE,cursive,medicine_c.png,,,,,
,,,,32113,001,2025-12-01_21h28.40.626,HW_LDT_1,2024.2.4,MacIntel,56.49717514,,,,,,,,,,,,,,,,,,,,,484.2849,484.4832,484.4832,484.9822,,,,,,,,,,,,,,0.6053,1,,,,,,,,,,,,,,m,,,,,,,,,,,,,,,,87,0,484.9829,485.5998,m,1,0.6053,,[],[],[],[],[],[],[],485.5999,487.5997,487.5998,487.5999,[],[],[],[],[],[],[],,487.6,487.6002,-0.02808919,-0.366599187,0,0,0,,0,86,86,119,1,4,word,MEMORY,print,memory_p.png,,,,,
,,,,32113,001,2025-12-01_21h28.40.626,HW_LDT_1,2024.2.4,MacIntel,56.49717514,,,,,,,,,,,,,,,,,,,,,487.6015,487.7997,487.7997,488.2997,,,,,,,,,,,,,,1.6046,1,,,,,,,,,,,,,,m,,,,,,,,,,,,,,,,88,0,488.3003,489.9165,m,1,1.6046,,[],[],[],[],[],[],[],489.9166,491.9164,491.9165,491.9166,[],[],[],[],[],[],[],,491.9166,491.9167,-0.02808919,-0.366599187,0,0,0,,0,87,87,143,1,4,word,REMOVAL,print,removal_p.png,,,,,
,,,,32113,001,2025-12-01_21h28.40.626,HW_LDT_1,2024.2.4,MacIntel,56.49717514,,,,,,,,,,,,,,,,,,,,,491.918,492.1165,492.1165,492.6163,,,,,,,,,,,,,,1.6878,1,,,,,,,,,,,,,,z,,,,,,,,,,,,,,,,89,0,492.617,494.3165,z,1,1.6878,,[],[],[],[],[],[],[],494.3166,496.3163,496.3164,496.3165,[],[],[],[],[],[],[],,496.3166,496.3167,-0.02808919,-0.366599187,0,0,0,,0,88,88,54,1,4,TL,codemy,print,codemy_p.png,,,,,
,,,,32113,001,2025-12-01_21h28.40.626,HW_LDT_1,2024.2.4,MacIntel,56.49717514,,,,,,,,,,,,,,,,,,,,,496.3179,496.5162,496.5163,497.0163,,,,,,,,,,,,,,2.4384,1,,,,,,,,,,,,,,z,,,,,,,,,,,,,,,,90,0,497.0168,499.4663,z,1,2.4384,,[],[],[],[],[],[],[],499.4664,501.4662,501.4663,501.4665,[],[],[],[],[],[],[],,501.4666,501.4667,-0.02808919,-0.366599187,0,0,0,,0,89,89,75,1,4,TL,sanile,print,sanile_p.png,,,,,
,,,,32113,001,2025-12-01_21h28.40.626,HW_LDT_1,2024.2.4,MacIntel,56.49717514,,,,,,,,,,,,,,,,,,,,,501.4679,501.6663,501.6663,502.1662,,,,,,,,,,,,,,1.7365,1,,,,,,,,,,,,,,z,,,,,,,,,,,,,,,,91,0,502.1668,503.9164,z,1,1.7365,,[],[],[],[],[],[],[],503.9165,505.9162,505.9162,505.9165,[],[],[],[],[],[],[],,505.9165,505.9167,-0.02808919,-0.366599187,0,0,0,,0,90,90,5,1,4,RL,bebine,print,bebine_p.png,,,,,
,,,,32113,001,2025-12-01_21h28.40.626,HW_LDT_1,2024.2.4,MacIntel,56.49717514,,,,,,,,,,,,,,,,,,,,,505.9179,506.1162,506.1163,506.6161,,,,,,,,,,,,,,0.971,1,,,,,,,,,,,,,,m,,,,,,,,,,,,,,,,92,0,506.6168,507.5995,m,1,0.971,,[],[],[],[],[],[],[],507.5996,509.5995,509.5996,509.5997,[],[],[],[],[],[],[],,509.5998,509.5999,-0.02808919,-0.366599187,0,0,0,,0,91,91,140,1,4,word,RELATIVE,print,relative_p.png,,,,,
,,,,32113,001,2025-12-01_21h28.40.626,HW_LDT_1,2024.2.4,MacIntel,56.49717514,,,,,,,,,,,,,,,,,,,,,509.6013,509.7995,509.7996,510.2995,,,,,,,,,,,,,,1.6369,1,,,,,,,,,,,,,,m,,,,,,,,,,,,,,,,93,0,510.3001,511.9495,m,1,1.6369,,[],[],[],[],[],[],[],511.9497,513.9494,513.9496,513.9497,[],[],[],[],[],[],[],,513.9498,513.9499,-0.02808919,-0.366599187,0,0,0,,0,92,92,116,1,4,word,MARGINAL,cursive,marginal_c.png,,,,,
,,,,32113,001,2025-12-01_21h28.40.626,HW_LDT_1,2024.2.4,MacIntel,56.49717514,,,,,,,,,,,,,,,,,,,,,513.9512,514.1493,514.1493,514.6494,,,,,,,,,,,,,,1.3546,0,,,,,,,,,,,,,,m,,,,,,,,,,,,,,,,94,0,514.65,516.0162,z,0,1.3546,,[],[],[],[],[],[],[],516.0163,518.0161,518.0162,518.0164,[],[],[],[],[],[],[],,518.0164,518.0165,-0.02808919,-0.366599187,0,0,0,,0,93,93,83,1,4,word,ANIMAL,cursive,animal_c.png,,,,,
,,,,32113,001,2025-12-01_21h28.40.626,HW_LDT_1,2024.2.4,MacIntel,56.49717514,,,,,,,,,,,,,,,,,,,,,518.0179,518.2162,518.2163,518.7161,,,,,,,,,,,,,,0.742,0,,,,,,,,,,,,,,z,,,,,,,,,,,,,,,,95,0,518.7167,519.4662,m,0,0.742,,[],[],[],[],[],[],[],519.4662,521.4661,521.4661,521.4663,[],[],[],[],[],[],[],,521.4664,521.4664,-0.02808919,-0.366599187,0,0,0,,0,94,94,68,1,4,TL,prosopal,print,prosopal_p.png,,,,,
,,,,32113,001,2025-12-01_21h28.40.626,HW_LDT_1,2024.2.4,MacIntel,56.49717514,,,,,,,,,,,,,,,,,,,,,521.4677,521.6661,521.6661,522.1661,,,,,,,,,,,,,,1.871,1,,,,,,,,,,,,,,m,,,,,,,,,,,,,,,,96,0,522.1667,524.0494,m,1,1.871,,[],[],[],[],[],[],[],524.0496,526.0494,526.0494,526.0496,[],[],[],[],[],[],[],,526.0497,526.0498,-0.02808919,-0.366599187,0,0,0,,0,95,95,122,1,4,word,MOBILE,print,mobile_p.png,,,,,
,,,,32113,001,2025-12-01_21h28.40.626,HW_LDT_1,2024.2.4,MacIntel,56.49717514,,,,,,,,,,,,,,,,,,,,,526.0511,526.2489,526.249,526.7493,,,,,,,,,,,,,,1.0213,1,,,,,,,,,,,,,,m,,,,,,,,,,,,,,,,97,0,526.75,527.7822,m,1,1.0213,,[],[],[],[],[],[],[],527.7823,529.7827,529.7827,529.7829,[],[],[],[],[],[],[],,529.783,529.7831,-0.02808919,-0.366599187,0,0,0,,0,96,96,82,1,4,word,AMATEUR,cursive,amateur_c.png,,,,,
,,,,32113,001,2025-12-01_21h28.40.626,HW_LDT_1,2024.2.4,MacIntel,56.49717514,,,,,,,,,,,,,,,,,,,,,529.7844,529.9827,529.9827,530.4827,,,,,,,,,,,,,,0.9538,1,,,,,,,,,,,,,,z,,,,,,,,,,,,,,,,98,1,530.4832,531.4494,z,1,0.9538,,[],[],[],[],[],[],[],531.4495,533.4494,533.4495,534.566,[],[],[],[],[],[],[],z,534.5661,534.5663,-0.02808919,-0.366599187,0,0,0,,0,97,97,49,1,4,RL,vesofity,cursive,vesofity_c.png,1.1147,,,,
,,,,32113,001,2025-12-01_21h28.40.626,HW_LDT_1,2024.2.4,MacIntel,56.49717514,,,,,,,,,,,,,,,,,,,,,534.5675,534.7657,534.7657,535.266,,,,,,,,,,,,,,0.7714,1,,,,,,,,,,,,,,m,,,,,,,,,,,,,,,,99,0,535.2665,536.0494,m,1,0.7714,,[],[],[],[],[],[],[],536.0494,538.0494,538.0494,538.0496,[],[],[],[],[],[],[],,538.0496,538.0498,-0.02808919,-0.366599187,0,0,0,,0,98,98,126,1,4,word,OPTIMAL,print,optimal_p.png,,,,,
,,,,32113,001,2025-12-01_21h28.40.626,HW_LDT_1,2024.2.4,MacIntel,56.49717514,,,,,,,,,,,,,,,,,,,,,538.0509,538.2494,538.2495,538.7493,,,,,,,,,,,,,,0.7546,1,,,,,,,,,,,,,,m,,,,,,,,,,,,,,,,100,0,538.7498,539.5161,m,1,0.7546,,[],[],[],[],[],[],[],539.5162,541.5159,541.5159,541.5162,[],[],[],[],[],[],[],,541.5163,541.5165,-0.02808919,-0.366599187,0,0,0,,0,99,99,121,1,4,word,MISTAKE,print,mistake_p.png,,,,,
,,,,32113,001,2025-12-01_21h28.40.626,HW_LDT_1,2024.2.4,MacIntel,56.49717514,,,,,,,,,,,,,,,,,,,,,541.5177,541.7159,541.716,542.215,,,,,,,,,,,,,,0.5726,1,,,,,,,,,,,,,,m,,,,,,,,,,,,,,,,101,0,542.2155,542.7993,m,1,0.5726,,[],[],[],[],[],[],[],542.7994,544.7993,544.7993,544.7996,[],[],[],[],[],[],[],,544.7996,544.7997,-0.02808919,-0.366599187,0,0,0,,0,100,100,146,1,4,word,RETIRE,print,retire_p.png,,,,,
,,,,32113,001,2025-12-01_21h28.40.626,HW_LDT_1,2024.2.4,MacIntel,56.49717514,,,,,,,,,,,,,,,,,,,,,544.801,544.9991,544.9992,545.4987,,,,,,,,,,,,,,0.5887,0,,,,,,,,,,,,,,z,,,,,,,,,,,,,,,,102,0,545.4993,546.0993,m,0,0.5887,,[],[],[],[],[],[],[],546.0994,548.0992,548.0993,548.0995,[],[],[],[],[],[],[],,548.0996,548.0997,-0.02808919,-0.366599187,0,0,0,,0,101,101,67,1,4,TL,polupar,print,polupar_p.png,,,,,
,,,,32113,001,2025-12-01_21h28.40.626,HW_LDT_1,2024.2.4,MacIntel,56.49717514,,,,,,,,,,,,,,,,,,,,,548.1009,548.2992,548.2993,548.7992,,,,,,,,,,,,,,1.188,1,,,,,,,,,,,,,,z,,,,,,,,,,,,,,,,103,0,548.7998,549.9993,z,1,1.188,,[],[],[],[],[],[],[],549.9995,551.9993,551.9994,551.9995,[],[],[],[],[],[],[],,551.9996,551.9998,-0.02808919,-0.366599187,0,0,0,,0,102,102,63,1,4,TL,miskate,print,miskate_p.png,,,,,
,,,,32113,001,2025-12-01_21h28.40.626,HW_LDT_1,2024.2.4,MacIntel,56.49717514,,,,,,,,,,,,,,,,,,,,,552.0009,552.1991,552.1992,552.6992,,,,,,,,,,,,,,2.5305,1,,,,,,,,,,,,,,z,,,,,,,,,,,,,,,,104,0,552.6997,555.2325,z,1,2.5305,,[],[],[],[],[],[],[],555.2326,557.2324,557.2324,557.2327,[],[],[],[],[],[],[],,557.2327,557.2328,-0.02808919,-0.366599187,0,0,0,,0,103,103,14,1,4,RL,delahe,cursive,delahe_c.png,,,,,
,,,,32113,001,2025-12-01_21h28.40.626,HW_LDT_1,2024.2.4,MacIntel,56.49717514,,,,,,,,,,,,,,,,,,,,,557.2341,557.4325,557.4326,557.9324,,,,,,,,,,,,,,0.9543,1,,,,,,,,,,,,,,z,,,,,,,,,,,,,,,,105,0,557.933,558.8992,z,1,0.9543,,[],[],[],[],[],[],[],558.8992,560.899,560.899,560.8993,[],[],[],[],[],[],[],,560.8993,560.8994,-0.02808919,-0.366599187,0,0,0,,0,104,104,37,1,4,RL,renutal,cursive,renutal_c.png,,,,,
,,,,32113,001,2025-12-01_21h28.40.626,HW_LDT_1,2024.2.4,MacIntel,56.49717514,,,,,,,,,,,,,,,,,,,,,560.9006,561.0991,561.0992,561.599,,,,,,,,,,,,,,1.3571,1,,,,,,,,,,,,,,m,,,,,,,,,,,,,,,,106,0,561.5996,562.9658,m,1,1.3571,,[],[],[],[],[],[],[],562.9658,564.9657,564.9657,564.9659,[],[],[],[],[],[],[],,564.9659,564.9661,-0.02808919,-0.366599187,0,0,0,,0,105,105,159,1,4,word,VETERAN,cursive,veteran_c.png,,,,,
,,,,32113,001,2025-12-01_21h28.40.626,HW_LDT_1,2024.2.4,MacIntel,56.49717514,,,,,,,,,,,,,,,,,,,,,564.9673,565.1657,565.1658,565.6656,,,,,,,,,,,,,,1.8485,1,,,,,,,,,,,,,,m,,,,,,,,,,,,,,,,107,0,565.6663,567.5158,m,1,1.8485,,[],[],[],[],[],[],[],567.5159,569.5157,569.5157,569.5159,[],[],[],[],[],[],[],,569.516,569.5161,-0.02808919,-0.366599187,0,0,0,,0,106,106,96,1,4,word,CONSIDER,cursive,consider_c.png,,,,,
,,,,32113,001,2025-12-01_21h28.40.626,HW_LDT_1,2024.2.4,MacIntel,56.49717514,,,,,,,,,,,,,,,,,,,,,569.5173,569.7156,569.7157,570.2156,,,,,,,,,,,,,,0.738,1,,,,,,,,,,,,,,m,,,,,,,,,,,,,,,,108,0,570.2161,570.9658,m,1,0.738,,[],[],[],[],[],[],[],570.9659,572.9656,572.9657,572.9659,[],[],[],[],[],[],[],,572.966,572.9661,-0.02808919,-0.366599187,0,0,0,,0,107,107,103,1,4,word,DISPUTE,print,dispute_p.png,,,,,
,,,,32113,001,2025-12-01_21h28.40.626,HW_LDT_1,2024.2.4,MacIntel,56.49717514,,,,,,,,,,,,,,,,,,,,,572.9673,573.1651,573.1651,573.6656,,,,,,,,,,,,,,1.0655,1,,,,,,,,,,,,,,z,,,,,,,,,,,,,,,,109,0,573.6662,574.7325,z,1,1.0655,,[],[],[],[],[],[],[],574.7326,576.7323,576.7323,576.7325,[],[],[],[],[],[],[],,576.7326,576.7327,-0.02808919,-0.366599187,0,0,0,,0,108,108,7,1,4,RL,casena,print,casena_p.png,,,,,
,,,,32113,001,2025-12-01_21h28.40.626,HW_LDT_1,2024.2.4,MacIntel,56.49717514,,,,,,,,,,,,,,,,,,,,,576.7339,576.9322,576.9322,577.4323,,,,,,,,,,,,,,0.8215,0,,,,,,,,,,,,,,m,,,,,,,,,,,,,,,,110,0,577.4328,578.2657,z,0,0.8215,,[],[],[],[],[],[],[],578.2657,580.2656,580.2657,580.2659,[],[],[],[],[],[],[],,580.2659,580.266,-0.02808919,-0.366599187,0,0,0,,0,109,109,102,1,4,word,DENSITY,cursive,density_c.png,,,,,
,,,,32113,001,2025-12-01_21h28.40.626,HW_LDT_1,2024.2.4,MacIntel,56.49717514,,,,,,,,,,,,,,,,,,,,,580.2673,580.4656,580.4656,580.9653,,,,,,,,,,,,,,0.7887,1,,,,,,,,,,,,,,z,,,,,,,,,,,,,,,,111,0,580.9656,581.7656,z,1,0.7887,,[],[],[],[],[],[],[],581.7657,583.7655,583.7655,583.7657,[],[],[],[],[],[],[],,583.7658,583.7659,-0.02808919,-0.366599187,0,0,0,,0,110,110,33,1,4,RL,pamest,cursive,pamest_c.png,,,,,
,,,,32113,001,2025-12-01_21h28.40.626,HW_LDT_1,2024.2.4,MacIntel,56.49717514,,,,,,,,,,,,,,,,,,,,,583.767,583.9655,583.9656,584.4655,,,,,,,,,,,,,,1.0984,1,,,,,,,,,,,,,,z,,,,,,,,,,,,,,,,112,0,584.4661,585.5655,z,1,1.0984,,[],[],[],[],[],[],[],585.5656,587.5655,587.5655,587.5658,[],[],[],[],[],[],[],,587.5658,587.5659,-0.02808919,-0.366599187,0,0,0,,0,111,111,13,1,4,RL,crisival,cursive,crisival_c.png,,,,,
,,,,32113,001,2025-12-01_21h28.40.626,HW_LDT_1,2024.2.4,MacIntel,56.49717514,,,,,,,,,,,,,,,,,,,,,587.5671,587.7656,587.7657,588.2652,,,,,,,,,,,,,,1.9382,0,,,,,,,,,,,,,,m,,,,,,,,,,,,,,,,113,0,588.2658,590.2155,z,0,1.9382,,[],[],[],[],[],[],[],590.2156,592.2155,592.2155,592.2157,[],[],[],[],[],[],[],,592.2157,592.2159,-0.02808919,-0.366599187,0,0,0,,0,112,112,114,1,4,word,LOCATE,cursive,locate_c.png,,,,,
,,,,32113,001,2025-12-01_21h28.40.626,HW_LDT_1,2024.2.4,MacIntel,56.49717514,,,,,,,,,,,,,,,,,,,,,592.2172,592.4154,592.4155,592.9154,,,,,,,,,,,,,,2.2472,1,,,,,,,,,,,,,,z,,,,,,,,,,,,,,,,114,0,592.9162,595.1655,z,1,2.2472,,[],[],[],[],[],[],[],595.1656,597.1653,597.1654,597.1656,[],[],[],[],[],[],[],,597.1657,597.1657,-0.02808919,-0.366599187,0,0,0,,0,113,113,9,1,4,RL,cafigal,print,cafigal_p.png,,,,,
,,,,32113,001,2025-12-01_21h28.40.626,HW_LDT_1,2024.2.4,MacIntel,56.49717514,,,,,,,,,,,,,,,,,,,,,597.167,597.3654,597.3654,597.8654,,,,,,,,,,,,,,0.7048,1,,,,,,,,,,,,,,z,,,,,,,,,,,,,,,,115,0,597.866,598.5821,z,1,0.7048,,[],[],[],[],[],[],[],598.5822,600.582,600.5821,600.5823,[],[],[],[],[],[],[],,600.5823,600.5824,-0.02808919,-0.366599187,0,0,0,,0,114,114,19,1,4,RL,elacodate,cursive,elacodate_c.png,,,,,
,,,,32113,001,2025-12-01_21h28.40.626,HW_LDT_1,2024.2.4,MacIntel,56.49717514,,,,,,,,,,,,,,,,,,,,,600.5837,600.782,600.782,601.282,,,,,,,,,,,,,,0.7319,1,,,,,,,,,,,,,,z,,,,,,,,,,,,,,,,116,0,601.2825,602.0153,z,1,0.7319,,[],[],[],[],[],[],[],602.0154,604.0153,604.0154,604.0156,[],[],[],[],[],[],[],,604.0157,604.0158,-0.02808919,-0.366599187,0,0,0,,0,115,115,27,1,4,RL,menowy,print,menowy_p.png,,,,,
,,,,32113,001,2025-12-01_21h28.40.626,HW_LDT_1,2024.2.4,MacIntel,56.49717514,,,,,,,,,,,,,,,,,,,,,604.0172,604.2153,604.2153,604.7153,,,,,,,,,,,,,,0.8814,1,,,,,,,,,,,,,,m,,,,,,,,,,,,,,,,117,0,604.7159,605.5986,m,1,0.8814,,[],[],[],[],[],[],[],605.5988,607.5986,607.5986,607.5989,[],[],[],[],[],[],[],,607.599,607.599,-0.02808919,-0.366599187,0,0,0,,0,116,116,156,1,4,word,TRIBUTE,print,tribute_p.png,,,,,
,,,,32113,001,2025-12-01_21h28.40.626,HW_LDT_1,2024.2.4,MacIntel,56.49717514,,,,,,,,,,,,,,,,,,,,,607.6004,607.7985,607.7986,608.2986,,,,,,,,,,,,,,7.9691,1,,,,,,,,,,,,,,m,,,,,,,,,,,,,,,,118,1,608.2993,616.2817,m,1,7.9691,,[],[],[],[],[],[],[],616.2818,618.2818,618.2818,619.7819,[],[],[],[],[],[],[],m,619.782,619.7821,-0.02808919,-0.366599187,0,0,0,,0,117,117,149,1,4,word,SENATOR,print,senator_p.png,1.4888,,,,
,,,,32113,001,2025-12-01_21h28.40.626,HW_LDT_1,2024.2.4,MacIntel,56.49717514,,,,,,,,,,,,,,,,,,,,,619.7833,619.982,619.982,620.4818,,,,,,,,,,,,,,0.5873,0,,,,,,,,,,,,,,m,,,,,,,,,,,,,,,,119,1,620.4825,621.0819,z,0,0.5873,,[],[],[],[],[],[],[],621.082,623.082,623.082,623.9987,[],[],[],[],[],[],[],z,623.9988,623.999,-0.02808919,-0.366599187,0,0,0,,0,118,118,128,1,4,word,PACIFIC,cursive,pacific_c.png,0.9068,,,,
,,,,32113,001,2025-12-01_21h28.40.626,HW_LDT_1,2024.2.4,MacIntel,56.49717514,,,,,,,,,,,,,,,,,,,,,624.0002,624.1984,624.1984,624.6986,,,,,,,,,,,,,,1.0151,1,,,,,,,,,,,,,,m,,,,,,,,,,,,,,,,120,0,624.6993,625.7152,m,1,1.0151,,[],[],[],[],[],[],[],625.7153,627.7151,627.7153,627.7154,[],[],[],[],[],[],[],,627.7155,627.7156,-0.02808919,-0.366599187,0,0,0,,0,119,119,84,1,4,word,BELOVED,print,beloved_p.png,,,,,
,,,,32113,001,2025-12-01_21h28.40.626,HW_LDT_1,2024.2.4,MacIntel,56.49717514,,,,,,,,,,,,,,,,,,,,,627.7168,627.9151,627.9151,628.4146,,,,,,,,,,,,,,0.938,1,,,,,,,,,,,,,,m,,,,,,,,,,,,,,,,121,0,628.4154,629.3652,m,1,0.938,,[],[],[],[],[],[],[],629.3654,631.365,631.3651,631.3654,[],[],[],[],[],[],[],,631.3655,631.3656,-0.02808919,-0.366599187,0,0,0,,0,120,120,80,1,4,word,ACADEMY,print,academy_p.png,,,,,
,,,,32113,001,2025-12-01_21h28.40.626,HW_LDT_1,2024.2.4,MacIntel,56.49717514,,,,,,,,,,,,,,,,,,,,,631.3667,631.5651,631.5651,632.0651,,,,,,,,,,,,,,0.5879,1,,,,,,,,,,,,,,z,,,,,,,,,,,,,,,,122,0,632.0658,632.6651,z,1,0.5879,,[],[],[],[],[],[],[],632.6653,634.665,634.6651,634.6652,[],[],[],[],[],[],[],,634.6653,634.6653,-0.02808919,-0.366599187,0,0,0,,0,121,121,46,1,4,RL,skofen,cursive,skofen_c.png,,,,,
,,,,32113,001,2025-12-01_21h28.40.626,HW_LDT_1,2024.2.4,MacIntel,56.49717514,,,,,,,,,,,,,,,,,,,,,634.6664,634.864,634.8641,635.364,,,,,,,,,,,,,,2.2159,1,,,,,,,,,,,,,,m,,,,,,,,,,,,,,,,123,0,635.3645,637.5817,m,1,2.2159,,[],[],[],[],[],[],[],637.5819,639.5813,639.5814,639.5816,[],[],[],[],[],[],[],,639.5817,639.5817,-0.02808919,-0.366599187,0,0,0,,0,122,122,124,1,4,word,NUMERICAL,cursive,numerical_c.png,,,,,
,,,,32113,001,2025-12-01_21h28.40.626,HW_LDT_1,2024.2.4,MacIntel,56.49717514,,,,,,,,,,,,,,,,,,,,,639.5831,639.7809,639.7809,640.2816,,,,,,,,,,,,,,0.7045,1,,,,,,,,,,,,,,m,,,,,,,,,,,,,,,,124,0,640.2822,640.9975,m,1,0.7045,,[],[],[],[],[],[],[],640.9975,642.9983,642.9983,642.9986,[],[],[],[],[],[],[],,642.9987,642.9987,-0.02808919,-0.366599187,0,0,0,,0,123,123,150,1,4,word,SENTIMENT,print,sentiment_p.png,,,,,
,,,,32113,001,2025-12-01_21h28.40.626,HW_LDT_1,2024.2.4,MacIntel,56.49717514,,,,,,,,,,,,,,,,,,,,,643,643.1973,643.1974,643.6983,,,,,,,,,,,,,,1.0874,0,,,,,,,,,,,,,,m,,,,,,,,,,,,,,,,125,0,643.6991,644.7973,z,0,1.0874,,[],[],[],[],[],[],[],644.7974,646.7973,646.7974,646.7977,[],[],[],[],[],[],[],,646.7977,646.7978,-0.02808919,-0.366599187,0,0,0,,0,124,124,85,1,4,word,BENEFIT,cursive,benefit_c.png,,,,,
,,,,32113,001,2025-12-01_21h28.40.626,HW_LDT_1,2024.2.4,MacIntel,56.49717514,,,,,,,,,,,,,,,,,,,,,646.799,646.9979,646.9979,647.4983,,,,,,,,,,,,,,2.0212,1,,,,,,,,,,,,,,z,,,,,,,,,,,,,,,,126,1,647.4989,649.5317,z,1,2.0212,,[],[],[],[],[],[],[],649.5318,651.5305,651.5305,653.3473,[],[],[],[],[],[],[],m,653.3473,653.3476,-0.02808919,-0.366599187,0,0,0,,0,125,125,29,1,4,RL,motide,print,motide_p.png,1.8085,,,,
,,,,32113,001,2025-12-01_21h28.40.626,HW_LDT_1,2024.2.4,MacIntel,56.49717514,,,,,,,,,,,,,,,,,,,,,653.3487,653.5482,653.5482,654.0472,,,,,,,,,,,,,,1.2418,0,,,,,,,,,,,,,,m,,,,,,,,,,,,,,,,127,0,654.0479,655.2982,z,0,1.2418,,[],[],[],[],[],[],[],655.2983,657.2982,657.2982,657.2985,[],[],[],[],[],[],[],,657.2986,657.2987,-0.02808919,-0.366599187,0,0,0,,0,126,126,151,1,4,word,SPECIFIC,cursive,specific_c.png,,,,,
,,,,32113,001,2025-12-01_21h28.40.626,HW_LDT_1,2024.2.4,MacIntel,56.49717514,,,,,,,,,,,,,,,,,,,,,657.2998,657.4976,657.4976,657.9972,,,,,,,,,,,,,,0.6326,1,,,,,,,,,,,,,,z,,,,,,,,,,,,,,,,128,0,657.9977,658.6315,z,1,0.6326,,[],[],[],[],[],[],[],658.6315,660.6315,660.6316,660.6317,[],[],[],[],[],[],[],,660.6318,660.6319,-0.02808919,-0.366599187,0,0,0,,0,127,127,8,1,4,RL,casagity,cursive,casagity_c.png,,,,,
,,,,32113,001,2025-12-01_21h28.40.626,HW_LDT_1,2024.2.4,MacIntel,56.49717514,,,,,,,,,,,,,,,,,,,,,660.6332,660.8315,660.8315,661.3306,,,,,,,,,,,,,,1.3542,1,,,,,,,,,,,,,,z,,,,,,,,,,,,,,,,129,0,661.3312,662.6972,z,1,1.3542,,[],[],[],[],[],[],[],662.6973,664.6972,664.6974,664.6975,[],[],[],[],[],[],[],,664.6976,664.6976,-0.02808919,-0.366599187,0,0,0,,0,128,128,30,1,4,RL,nunewical,cursive,nunewical_c.png,,,,,
,,,,32113,001,2025-12-01_21h28.40.626,HW_LDT_1,2024.2.4,MacIntel,56.49717514,,,,,,,,,,,,,,,,,,,,,664.6989,664.8982,664.8982,665.3981,,,,,,,,,,,,,,0.9702,1,,,,,,,,,,,,,,z,,,,,,,,,,,,,,,,130,1,665.3988,666.3816,z,1,0.9702,,[],[],[],[],[],[],[],666.3817,668.3814,668.3814,669.5483,[],[],[],[],[],[],[],m,669.5483,669.5485,-0.02808919,-0.366599187,0,0,0,,0,129,129,28,1,4,RL,mifikary,print,mifikary_p.png,1.1659,,,,
,,,,32113,001,2025-12-01_21h28.40.626,HW_LDT_1,2024.2.4,MacIntel,56.49717514,,,,,,,,,,,,,,,,,,,,,669.5499,669.748,669.7481,670.2471,,,,,,,,,,,,,,0.6231,1,,,,,,,,,,,,,,z,,,,,,,,,,,,,,,,131,0,670.2477,670.8815,z,1,0.6231,,[],[],[],[],[],[],[],670.8816,672.8804,672.8805,672.8807,[],[],[],[],[],[],[],,672.8808,672.8809,-0.02808919,-0.366599187,0,0,0,,0,130,130,22,1,4,RL,linedal,cursive,linedal_c.png,,,,,
,,,,32113,001,2025-12-01_21h28.40.626,HW_LDT_1,2024.2.4,MacIntel,56.49717514,,,,,,,,,,,,,,,,,,,,,672.8819,673.0813,673.0814,673.5804,,,,,,,,,,,,,,0.8049,1,,,,,,,,,,,,,,z,,,,,,,,,,,,,,,,132,0,673.5809,674.398,z,1,0.8049,,[],[],[],[],[],[],[],674.3982,676.398,676.398,676.3983,[],[],[],[],[],[],[],,676.3984,676.3986,-0.02808919,-0.366599187,0,0,0,,0,131,131,34,1,4,RL,posity,cursive,posity_c.png,,,,,
,,,,32113,001,2025-12-01_21h28.40.626,HW_LDT_1,2024.2.4,MacIntel,56.49717514,,,,,,,,,,,,,,,,,,,,,676.3999,676.5971,676.5972,677.098,,,,,,,,,,,,,,0.9213,1,,,,,,,,,,,,,,z,,,,,,,,,,,,,,,,133,0,677.0986,678.0305,z,1,0.9213,,[],[],[],[],[],[],[],678.0306,680.0313,680.0313,680.0315,[],[],[],[],[],[],[],,680.0315,680.0316,-0.02808919,-0.366599187,0,0,0,,0,132,132,42,1,4,RL,revune,print,revune_p.png,,,,,
,,,,32113,001,2025-12-01_21h28.40.626,HW_LDT_1,2024.2.4,MacIntel,56.49717514,,,,,,,,,,,,,,,,,,,,,680.0327,680.2313,680.2313,680.7304,,,,,,,,,,,,,,0.7803,1,,,,,,,,,,,,,,z,,,,,,,,,,,,,,,,134,0,680.731,681.5146,z,1,0.7803,,[],[],[],[],[],[],[],681.5147,683.5147,683.5147,683.515,[],[],[],[],[],[],[],,683.5151,683.5152,-0.02808919,-0.366599187,0,0,0,,0,133,133,3,1,4,RL,bewoted,print,bewoted_p.png,,,,,
,,,,32113,001,2025-12-01_21h28.40.626,HW_LDT_1,2024.2.4,MacIntel,56.49717514,,,,,,,,,,,,,,,,,,,,,683.5167,683.7146,683.7146,684.2138,,,,,,,,,,,,,,0.8647,1,,,,,,,,,,,,,,z,,,,,,,,,,,,,,,,135,1,684.2145,685.0814,z,1,0.8647,,[],[],[],[],[],[],[],685.0814,687.0806,687.0806,688.5644,[],[],[],[],[],[],[],m,688.5645,688.5646,-0.02808919,-0.366599187,0,0,0,,0,134,134,40,1,4,RL,reconal,print,reconal_p.png,1.4733,,,,
,,,,32113,001,2025-12-01_21h28.40.626,HW_LDT_1,2024.2.4,MacIntel,56.49717514,,,,,,,,,,,,,,,,,,,,,688.5659,688.7644,688.7645,689.2646,,,,,,,,,,,,,,0.548,0,,,,,,,,,,,,,,m,,,,,,,,,,,,,,,,136,0,689.2651,689.8139,z,0,0.548,,[],[],[],[],[],[],[],689.814,691.8146,691.8146,691.8148,[],[],[],[],[],[],[],,691.8149,691.815,-0.02808919,-0.366599187,0,0,0,,0,135,135,89,1,4,word,CAPACITY,cursive,capacity_c.png,,,,,
,,,,32113,001,2025-12-01_21h28.40.626,HW_LDT_1,2024.2.4,MacIntel,56.49717514,,,,,,,,,,,,,,,,,,,,,691.8165,692.0146,692.0147,692.5137,,,,,,,,,,,,,,0.7547,1,,,,,,,,,,,,,,m,,,,,,,,,,,,,,,,137,0,692.5144,693.2805,m,1,0.7547,,[],[],[],[],[],[],[],693.2805,695.2812,695.2812,695.2814,[],[],[],[],[],[],[],,695.2815,695.2817,-0.02808919,-0.366599187,0,0,0,,0,136,136,86,1,4,word,BESIDE,print,beside_p.png,,,,,
,,,,32113,001,2025-12-01_21h28.40.626,HW_LDT_1,2024.2.4,MacIntel,56.49717514,,,,,,,,,,,,,,,,,,,,,695.2829,695.4809,695.4809,695.9803,,,,,,,,,,,,,,1.2323,0,,,,,,,,,,,,,,m,,,,,,,,,,,,,,,,138,1,695.9809,697.2144,z,0,1.2323,,[],[],[],[],[],[],[],697.2146,699.2145,699.2145,699.9812,[],[],[],[],[],[],[],z,699.9813,699.9814,-0.02808919,-0.366599187,0,0,0,,0,137,137,129,1,4,word,PARENT,cursive,parent_c.png,0.7575,,,,
,,,,32113,001,2025-12-01_21h28.40.626,HW_LDT_1,2024.2.4,MacIntel,56.49717514,,,,,,,,,,,,,,,,,,,,,699.9826,700.1811,700.1812,700.6811,,,,,,,,,,,,,,1.421,0,,,,,,,,,,,,,,m,,,,,,,,,,,,,,,,139,1,700.6816,702.1136,z,0,1.421,,[],[],[],[],[],[],[],702.1137,704.1136,704.1136,705.1309,[],[],[],[],[],[],[],z,705.1311,705.1312,-0.02808919,-0.366599187,0,0,0,,0,138,138,99,1,4,word,DEBATE,cursive,debate_c.png,1.0085,,,,
,,,,32113,001,2025-12-01_21h28.40.626,HW_LDT_1,2024.2.4,MacIntel,56.49717514,,,,,,,,,,,,,,,,,,,,,705.1322,705.3311,705.3311,705.831,,,,,,,,,,,,,,1.3879,1,,,,,,,,,,,,,,z,,,,,,,,,,,,,,,,140,0,705.8316,707.231,z,1,1.3879,,[],[],[],[],[],[],[],707.2312,709.231,709.2312,709.2314,[],[],[],[],[],[],[],,709.2315,709.2316,-0.02808919,-0.366599187,0,0,0,,0,139,139,74,1,4,TL,rerite,print,rerite_p.png,,,,,
,,,,32113,001,2025-12-01_21h28.40.626,HW_LDT_1,2024.2.4,MacIntel,56.49717514,,,,,,,,,,,,,,,,,,,,,709.2327,709.431,709.4311,709.931,,,,,,,,,,,,,,1.2067,1,,,,,,,,,,,,,,m,,,,,,,,,,,,,,,,141,0,709.9316,711.1478,m,1,1.2067,,[],[],[],[],[],[],[],711.1479,713.1476,713.1477,713.1479,[],[],[],[],[],[],[],,713.1479,713.148,-0.02808919,-0.366599187,0,0,0,,0,140,140,112,1,4,word,LIBERAL,cursive,liberal_c.png,,,,,
,,,,32113,001,2025-12-01_21h28.40.626,HW_LDT_1,2024.2.4,MacIntel,56.49717514,,,,,,,,,,,,,,,,,,,,,713.1493,713.3476,713.3477,713.8476,,,,,,,,,,,,,,1.5542,0,,,,,,,,,,,,,,z,,,,,,,,,,,,,,,,142,0,713.8482,715.4144,m,0,1.5542,,[],[],[],[],[],[],[],715.4145,717.4143,717.4143,717.4145,[],[],[],[],[],[],[],,717.4145,717.4147,-0.02808919,-0.366599187,0,0,0,,0,141,141,55,1,4,TL,corevage,cursive,corevage_c.png,,,,,
,,,,32113,001,2025-12-01_21h28.40.626,HW_LDT_1,2024.2.4,MacIntel,56.49717514,,,,,,,,,,,,,,,,,,,,,717.4158,717.6143,717.6143,718.1143,,,,,,,,,,,,,,0.9398,1,,,,,,,,,,,,,,z,,,,,,,,,,,,,,,,143,0,718.1148,719.0636,z,1,0.9398,,[],[],[],[],[],[],[],719.0636,721.0642,721.0643,721.0645,[],[],[],[],[],[],[],,721.0645,721.0647,-0.02808919,-0.366599187,0,0,0,,0,142,142,76,1,4,TL,setanor,print,setanor_p.png,,,,,
,,,,32113,001,2025-12-01_21h28.40.626,HW_LDT_1,2024.2.4,MacIntel,56.49717514,,,,,,,,,,,,,,,,,,,,,721.0659,721.2635,721.2635,721.7643,,,,,,,,,,,,,,2.6046,1,,,,,,,,,,,,,,z,,,,,,,,,,,,,,,,144,0,721.7648,724.381,z,1,2.6046,,[],[],[],[],[],[],[],724.3811,726.3809,726.3809,726.3811,[],[],[],[],[],[],[],,726.3812,726.3813,-0.02808919,-0.366599187,0,0,0,,0,143,143,56,1,4,TL,donimant,cursive,donimant_c.png,,,,,
,,,,32113,001,2025-12-01_21h28.40.626,HW_LDT_1,2024.2.4,MacIntel,56.49717514,,,,,,,,,,,,,,,,,,,,,726.3824,726.5809,726.5809,727.0808,,,,,,,,,,,,,,0.973,1,,,,,,,,,,,,,,z,,,,,,,,,,,,,,,,145,0,727.0813,728.0643,z,1,0.973,,[],[],[],[],[],[],[],728.0644,730.0642,730.0642,730.0644,[],[],[],[],[],[],[],,730.0645,730.0646,-0.02808919,-0.366599187,0,0,0,,0,144,144,20,1,4,RL,gralekul,print,gralekul_p.png,,,,,
,,,,32113,001,2025-12-01_21h28.40.626,HW_LDT_1,2024.2.4,MacIntel,56.49717514,,,,,,,,,,,,,,,,,,,,,730.0658,730.2642,730.2642,730.7641,,,,,,,,,,,,,,1.7552,1,,,,,,,,,,,,,,z,,,,,,,,,,,,,,,,146,0,730.7647,732.5309,z,1,1.7552,,[],[],[],[],[],[],[],732.531,734.5308,734.5308,734.5311,[],[],[],[],[],[],[],,734.5312,734.5313,-0.02808919,-0.366599187,0,0,0,,0,145,145,45,1,4,RL,spetisic,cursive,spetisic_c.png,,,,,
,,,,32113,001,2025-12-01_21h28.40.626,HW_LDT_1,2024.2.4,MacIntel,56.49717514,,,,,,,,,,,,,,,,,,,,,734.5325,734.7308,734.7308,735.2308,,,,,,,,,,,,,,2.2726,1,,,,,,,,,,,,,,m,,,,,,,,,,,,,,,,147,0,735.2314,737.5141,m,1,2.2726,,[],[],[],[],[],[],[],737.5142,739.5141,739.5142,739.5143,[],[],[],[],[],[],[],,739.5145,739.5145,-0.02808919,-0.366599187,0,0,0,,0,146,146,134,1,4,word,QUALIFY,print,qualify_p.png,,,,,
,,,,32113,001,2025-12-01_21h28.40.626,HW_LDT_1,2024.2.4,MacIntel,56.49717514,,,,,,,,,,,,,,,,,,,,,739.5157,739.7142,739.7142,740.2141,,,,,,,,,,,,,,1.2712,1,,,,,,,,,,,,,,m,,,,,,,,,,,,,,,,148,0,740.2147,741.497,m,1,1.2712,,[],[],[],[],[],[],[],741.4971,743.4974,743.4974,743.4976,[],[],[],[],[],[],[],,743.4976,743.4978,-0.02808919,-0.366599187,0,0,0,,0,147,147,133,1,4,word,PROVIDE,cursive,provide_c.png,,,,,
,,,,32113,001,2025-12-01_21h28.40.626,HW_LDT_1,2024.2.4,MacIntel,56.49717514,,,,,,,,,,,,,,,,,,,,,743.499,743.6974,743.6974,744.1974,,,,,,,,,,,,,,1.5043,1,,,,,,,,,,,,,,m,,,,,,,,,,,,,,,,149,0,744.198,745.7141,m,1,1.5043,,[],[],[],[],[],[],[],745.7142,747.7141,747.7141,747.7143,[],[],[],[],[],[],[],,747.7143,747.7144,-0.02808919,-0.366599187,0,0,0,,0,148,148,111,1,4,word,INDICATE,print,indicate_p.png,,,,,
,,,,32113,001,2025-12-01_21h28.40.626,HW_LDT_1,2024.2.4,MacIntel,56.49717514,,,,,,,,,,,,,,,,,,,,,747.7155,747.9133,747.9134,748.414,,,,,,,,,,,,,,0.6816,1,,,,,,,,,,,,,,z,,,,,,,,,,,,,,,,150,1,748.4146,749.0974,z,1,0.6816,,[],[],[],[],[],[],[],749.0974,751.0973,751.0973,754.0973,[],[],[],[],[],[],[],z,754.0974,754.0977,-0.02808919,-0.366599187,0,0,0,,0,149,149,50,1,4,RL,vecelan,cursive,vecelan_c.png,2.9888,,,,
,,,,32113,001,2025-12-01_21h28.40.626,HW_LDT_1,2024.2.4,MacIntel,56.49717514,,,,,,,,,,,,,,,,,,,,,754.0989,754.2972,754.2974,754.7973,,,,,,,,,,,,,,0.805,1,,,,,,,,,,,,,,m,,,,,,,,,,,,,,,,151,0,754.7978,755.614,m,1,0.805,,[],[],[],[],[],[],[],755.6141,757.6139,757.6139,757.6143,[],[],[],[],[],[],[],,757.6143,757.6144,-0.02808919,-0.366599187,0,0,0,,0,150,150,115,1,4,word,LOGICAL,print,logical_p.png,,,,,
,,,,32113,001,2025-12-01_21h28.40.626,HW_LDT_1,2024.2.4,MacIntel,56.49717514,,,,,,,,,,,,,,,,,,,,,757.6157,757.8139,757.8139,758.3131,,,,,,,,,,,,,,3.6324,1,,,,,,,,,,,,,,z,,,,,,,,,,,,,,,,152,0,758.3138,761.9472,z,1,3.6324,,[],[],[],[],[],[],[],761.9473,763.9472,763.9472,763.9475,[],[],[],[],[],[],[],,763.9476,763.9477,-0.02808919,-0.364797708,0,0,0,,0,151,151,72,1,4,TL,relugar,cursive,relugar_c.png,,,,,
,,,,32113,001,2025-12-01_21h28.40.626,HW_LDT_1,2024.2.4,MacIntel,56.49717514,,,,,,,,,,,,,,,,,,,,,763.9489,764.1471,764.1472,764.6471,,,,,,,,,,,,,,0.9044,1,,,,,,,,,,,,,,m,,,,,,,,,,,,,,,,153,0,764.6477,765.5639,m,1,0.9044,,[],[],[],[],[],[],[],765.564,767.5638,767.5639,767.5641,[],[],[],[],[],[],[],,767.5642,767.5643,-0.02808919,-0.364797708,0,0,0,,0,152,152,107,1,4,word,EVIDENT,print,evident_p.png,,,,,
,,,,32113,001,2025-12-01_21h28.40.626,HW_LDT_1,2024.2.4,MacIntel,56.49717514,,,,,,,,,,,,,,,,,,,,,767.5654,767.7638,767.7639,768.2638,,,,,,,,,,,,,,3.0378,1,,,,,,,,,,,,,,z,,,,,,,,,,,,,,,,154,0,768.2644,771.3138,z,1,3.0378,,[],[],[],[],[],[],[],771.3139,773.3138,773.3139,773.3141,[],[],[],[],[],[],[],,773.3141,773.3142,-0.02808919,-0.364797708,0,0,0,,0,153,153,58,1,4,TL,edivent,print,edivent_p.png,,,,,
,,,,32113,001,2025-12-01_21h28.40.626,HW_LDT_1,2024.2.4,MacIntel,56.49717514,,,,,,,,,,,,,,,,,,,,,773.3156,773.5138,773.5138,774.0133,,,,,,,,,,,,,,0.6714,1,,,,,,,,,,,,,,m,,,,,,,,,,,,,,,,155,0,774.0139,774.6972,m,1,0.6714,,[],[],[],[],[],[],[],774.6974,776.6971,776.6972,776.6974,[],[],[],[],[],[],[],,776.6975,776.6976,-0.02808919,-0.364797708,0,0,0,,0,154,154,154,1,4,word,STORAGE,print,storage_p.png,,,,,
,,,,32113,001,2025-12-01_21h28.40.626,HW_LDT_1,2024.2.4,MacIntel,56.49717514,,,,,,,,,,,,,,,,,,,,,776.6989,776.8971,776.8971,777.3971,,,,,,,,,,,,,,0.9548,1,,,,,,,,,,,,,,z,,,,,,,,,,,,,,,,156,0,777.3977,778.3638,z,1,0.9548,,[],[],[],[],[],[],[],778.3639,780.3637,780.3637,780.3639,[],[],[],[],[],[],[],,780.364,780.3641,-0.02808919,-0.364797708,0,0,0,,0,155,155,24,1,4,RL,marmipal,cursive,marmipal_c.png,,,,,
,,,,32113,001,2025-12-01_21h28.40.626,HW_LDT_1,2024.2.4,MacIntel,56.49717514,,,,,,,,,,,,,,,,,,,,,780.3652,780.5637,780.5638,781.0634,,,,,,,,,,,,,,1.1391,1,,,,,,,,,,,,,,z,,,,,,,,,,,,,,,,157,0,781.0636,782.2137,z,1,1.1391,,[],[],[],[],[],[],[],782.2138,784.2136,784.2138,784.214,[],[],[],[],[],[],[],,784.2141,784.2142,-0.02808919,-0.364797708,0,0,0,,0,156,156,62,1,4,TL,locigal,print,locigal_p.png,,,,,
,,,,32113,001,2025-12-01_21h28.40.626,HW_LDT_1,2024.2.4,MacIntel,56.49717514,,,,,,,,,,,,,,,,,,,,,784.2153,784.4136,784.4137,784.9137,,,,,,,,,,,,,,1.0209,1,,,,,,,,,,,,,,m,,,,,,,,,,,,,,,,158,1,784.9144,785.947,m,1,1.0209,,[],[],[],[],[],[],[],785.947,787.9469,787.947,789.347,[],[],[],[],[],[],[],m,789.3471,789.3473,-0.02808919,-0.364797708,0,0,0,,0,157,157,148,1,4,word,SALINE,print,saline_p.png,1.3888,,,,
,,,,32113,001,2025-12-01_21h28.40.626,HW_LDT_1,2024.2.4,MacIntel,56.49717514,,,,,,,,,,,,,,,,,,,,,789.3484,789.5469,789.5469,790.0469,,,,,,,,,,,,,,1.1647,1,,,,,,,,,,,,,,m,,,,,,,,,,,,,,,,159,0,790.0475,791.2131,m,1,1.1647,,[],[],[],[],[],[],[],791.2131,793.2135,793.2136,793.2137,[],[],[],[],[],[],[],,793.2138,793.2139,-0.02808919,-0.364797708,0,0,0,,0,158,158,127,1,4,word,ORIGINAL,print,original_p.png,,,,,
,,,,32113,001,2025-12-01_21h28.40.626,HW_LDT_1,2024.2.4,MacIntel,56.49717514,,,,,,,,,,,,,,,,,,,,,793.2152,793.4136,793.4136,793.9131,,,,,,,,,,,,,,2.3326,1,,,,,,,,,,,,,,m,,,,,,,,,,,,,,,,160,0,793.9138,796.2473,m,1,2.3326,,[],[],[],[],[],[],[],796.2473,798.2469,798.2469,798.2471,[],[],[],[],[],[],[],,798.2471,798.2473,-0.02808919,-0.364797708,0,0,0,,0,159,159,123,1,4,word,MODERATE,print,moderate_p.png,,,,,
,,,,32113,001,2025-12-01_21h28.40.626,HW_LDT_1,2024.2.4,MacIntel,56.49717514,,,,,,,,,,,,,,,,,,,,,,,,,,,,,,,,,,,,,,,,,,,,,,,,,,,,,,,,,,,,,,,,,,,,,,,,,,,,,,,,,,,,,,,,,,,,,,,,,,,,,,,,,,,,,,,,,,,,,798.248,803.2472
