counterbalance_lists.group,counterbalance_lists.remaining,get_list.started,get_list.stopped,participant,session,date,expName,psychopyVersion,OS,frameRate,Instructions.started,Instructions.stopped,key_resp.keys,instr_done_touch.x,instr_done_touch.y,instr_done_touch.leftButton,instr_done_touch.midButton,instr_done_touch.rightButton,instr_done_touch.clicked_name,start_instr.thisRepN,start_instr.thisTrialN,start_instr.thisN,start_instr.thisIndex,start_instr.ran,pageN,phase,instruct_text,has_image,instruct_image,key_resp.rt,key_resp.duration,showProgress.started,showProgress.stopped,fix.started,fix.stopped,prac.started,prac.stopped,response.keys,response.corr,touch_resp.x,touch_resp.y,touch_resp.leftButton,touch_resp.midButton,touch_resp.rightButton,touch_resp.time,touch_resp.clicked_name,rt,corr,feedback.started,feedback.stopped,trials.thisRepN,trials.thisTrialN,trials.thisN,trials.thisIndex,trials.ran,TrialID,StimulusType,Condition,PrimeDuration,Prime,Target,corrAns,response.rt,response.duration,Instructions_expt.started,Instructions_expt.stopped,key_resp_3.keys,instr_done_touch_3.x,instr_done_touch_3.y,instr_done_touch_3.leftButton,instr_done_touch_3.midButton,instr_done_touch_3.rightButton,instr_done_touch_3.clicked_name,instr_experiment.thisRepN,instr_experiment.thisTrialN,instr_experiment.thisN,instr_experiment.thisIndex,instr_experiment.ran,trialID,flag,maintask.started,maintask.stopped,key_resp_2.keys,key_resp_2.corr,key_resp_2.rt,key_resp_2.duration,targ_click.x,targ_click.y,targ_click.leftButton,targ_click.midButton,targ_click.rightButton,targ_click.time,targ_click.clicked_name,ITI.started,ITI.stopped,probe.started,probe.stopped,click_probe.x,click_probe.y,click_probe.leftButton,click_probe.midButton,click_probe.rightButton,click_probe.time,click_probe.clicked_name,key_resp_probe.keys,key_resp_probe.rt,key_resp_probe.duration,Break.started,Break.stopped,break_done_touch.x,break_done_touch.y,break_done_touch.leftButton,break_done_touch.midButton,break_done_touch.rightButton,break_done_keyboard.keys,list4_trials.thisRepN,list4_trials.thisTrialN,list4_trials.thisN,list4_trials.thisIndex,list4_trials.ran,list_id,item_type,string,font,stim_file,break_done_keyboard.rt,break_done_keyboard.duration,End.started,End.stopped
list4,,0.6955,0.6957,32116,001,2025-10-16_10h41.36.748,HW_LDT_1,2024.2.4,MacIntel,60.24096386,,,,,,,,,,,,,,,,,,,,,,,,,,,,,,,,,,,,,,,,,,,,,,,,,,,,,,,,,,,,,,,,,,,,,,,,,,,,,,,,,,,,,,,,,,,,,,,,,,,,,,,,,,,,,,,,,,,,,,,
,,,,32116,001,2025-10-16_10h41.36.748,HW_LDT_1,2024.2.4,MacIntel,60.24096386,0.7161,18.2276,,-0.180962663,-0.398505509,1,0,0,instr_done_button,0,0,0,0,1,1,instructions,"INSTRUCTIONS
At the start of each trial, look at the plus sign  (+) in the center of the screen.  This tells you that a trial is about to begin and where to look. Second, the plus sign will disappear and a string of letters will appear. Your task is to determine if the string of letters is a word or not. If the item is a word press the M key (on keyboard)  or touch the word button (phone/tablet).  If the item is not a word,  press the  Z key (on keyboard)  or touch the nonword button (on phone/tablet). The items will be presented for a short time. 
Press the space bar or touch  continue.",0,,,,,,,,,,,,,,,,,,,,,,,,,,,,,,,,,,,,,,,,,,,,,,,,,,,,,,,,,,,,,,,,,,,,,,,,,,,,,,,,,,,,,,,,,,,,,,,,,,,,,
,,,,32116,001,2025-10-16_10h41.36.748,HW_LDT_1,2024.2.4,MacIntel,60.24096386,18.2291,22.6775,space,-0.172542335,-0.381452326,0,0,0,,0,1,1,1,1,2,instructions,"If your device has a keyboard, press the 'Z' key for nonwords and the 'M' key for words.





Press the space bar or touch the button below to continue.",0,keyboard-example.gif,4.4141,,,,,,,,,,,,,,,,,,,,,,,,,,,,,,,,,,,,,,,,,,,,,,,,,,,,,,,,,,,,,,,,,,,,,,,,,,,,,,,,,,,,,,,,,,,,,,,,,,,
,,,,32116,001,2025-10-16_10h41.36.748,HW_LDT_1,2024.2.4,MacIntel,60.24096386,22.6792,26.061,space,-0.172542335,-0.381452326,0,0,0,,0,2,2,2,1,3,instructions,"If you are using a touchscreen only device, use the buttons on the screen. Do not use the mouse.





Press the space bar or touch the button below to continue.",0,touchscreen-example.gif,3.364,,,,,,,,,,,,,,,,,,,,,,,,,,,,,,,,,,,,,,,,,,,,,,,,,,,,,,,,,,,,,,,,,,,,,,,,,,,,,,,,,,,,,,,,,,,,,,,,,,,
,,,,32116,001,2025-10-16_10h41.36.748,HW_LDT_1,2024.2.4,MacIntel,60.24096386,26.0637,36.4771,space,0.254174034,0.540261153,0,0,0,,0,3,3,3,1,4,instructions,"It is very important that you respond as quickly and accurately as possible, as each letter string will only be on the screen for two seconds. If you do not respond within this time, the message 'Too slow!' will be displayed and the experiment will progress to the next letter string. The first 20 trials will be practice trials and you will receive feedback on your answers. 

Press the space bar or touch the button below to start the practice trials.",0,,10.3521,,,,,,,,,,,,,,,,,,,,,,,,,,,,,,,,,,,,,,,,,,,,,,,,,,,,,,,,,,,,,,,,,,,,,,,,,,,,,,,,,,,,,,,,,,,,,,,,,,,
,,,,32116,001,2025-10-16_10h41.36.748,HW_LDT_1,2024.2.4,MacIntel,60.24096386,,,,,,,,,,,,,,,,,,,,,,36.4956,36.6772,36.6774,37.1773,37.1776,38.7603,,0,[0.3157304134929271],[-0.3122109630032644],[1],[0],[0],[1.579499999999996],"[""button_right""]",1.5795,1,38.7606,39.2606,0,0,0,2,1,1003,WORD,"ID",16,almond,ALMOND,m,,,,,,,,,,,,,,,,,,,,,,,,,,,,,,,,,,,,,,,,,,,,,,,,,,,,,,,,,,,,,,,,,,,
,,,,32116,001,2025-10-16_10h41.36.748,HW_LDT_1,2024.2.4,MacIntel,60.24096386,,,,,,,,,,,,,,,,,,,,,,39.2623,39.4605,39.4606,39.9592,39.9598,41.4106,z,1,[],[],[],[],[],[],[],1.4367,1,41.4107,41.9107,0,1,1,12,1,1013,NW,UN,33,adveil,SPRINY,z,1.4367,,,,,,,,,,,,,,,,,,,,,,,,,,,,,,,,,,,,,,,,,,,,,,,,,,,,,,,,,,,,,,,,,,
,,,,32116,001,2025-10-16_10h41.36.748,HW_LDT_1,2024.2.4,MacIntel,60.24096386,,,,,,,,,,,,,,,,,,,,,,41.9122,42.11,42.11,42.61,42.6106,43.6101,m,1,[],[],[],[],[],[],[],0.9818,1,43.6102,44.1105,0,2,2,0,1,1001,WORD,"ID",33,utopia,UTOPIA,m,0.9818,,,,,,,,,,,,,,,,,,,,,,,,,,,,,,,,,,,,,,,,,,,,,,,,,,,,,,,,,,,,,,,,,,
,,,,32116,001,2025-10-16_10h41.36.748,HW_LDT_1,2024.2.4,MacIntel,60.24096386,,,,,,,,,,,,,,,,,,,,,,44.1119,44.3104,44.3104,44.8105,44.8113,46.1934,z,1,[],[],[],[],[],[],[],1.3605,1,46.1935,46.6937,0,3,3,10,1,1011,NW,"ID",16,inlade,INLADE,z,1.3605,,,,,,,,,,,,,,,,,,,,,,,,,,,,,,,,,,,,,,,,,,,,,,,,,,,,,,,,,,,,,,,,,,
,,,,32116,001,2025-10-16_10h41.36.748,HW_LDT_1,2024.2.4,MacIntel,60.24096386,,,,,,,,,,,,,,,,,,,,,,46.695,46.8937,46.8939,47.3937,47.3946,48.2761,m,1,[],[],[],[],[],[],[],0.8605,1,48.2762,48.7771,0,4,4,1,1,1002,WORD,"ID",33,adjust,ADJUST,m,0.8605,,,,,,,,,,,,,,,,,,,,,,,,,,,,,,,,,,,,,,,,,,,,,,,,,,,,,,,,,,,,,,,,,,
,,,,32116,001,2025-10-16_10h41.36.748,HW_LDT_1,2024.2.4,MacIntel,60.24096386,,,,,,,,,,,,,,,,,,,,,,48.7786,48.9761,48.9761,49.4771,49.4784,50.3604,m,1,[],[],[],[],[],[],[],0.8699,1,50.3606,50.8599,0,5,5,5,1,1006,WORD,UN,33,frenzy,OBTAIN,m,0.8699,,,,,,,,,,,,,,,,,,,,,,,,,,,,,,,,,,,,,,,,,,,,,,,,,,,,,,,,,,,,,,,,,,
,,,,32116,001,2025-10-16_10h41.36.748,HW_LDT_1,2024.2.4,MacIntel,60.24096386,,,,,,,,,,,,,,,,,,,,,,50.8614,51.0604,51.0604,51.5603,51.5613,52.3602,m,1,[],[],[],[],[],[],[],0.7781,1,52.3603,52.8604,0,6,6,6,1,1007,WORD,UN,16,tropic,ZOMBIE,m,0.7781,,,,,,,,,,,,,,,,,,,,,,,,,,,,,,,,,,,,,,,,,,,,,,,,,,,,,,,,,,,,,,,,,,
,,,,32116,001,2025-10-16_10h41.36.748,HW_LDT_1,2024.2.4,MacIntel,60.24096386,,,,,,,,,,,,,,,,,,,,,,52.8619,53.0603,53.0604,53.5602,53.5612,54.5433,z,1,[],[],[],[],[],[],[],0.9643,1,54.5435,55.0438,0,7,7,11,1,1012,NW,"ID",16,rashet,RASHET,z,0.9643,,,,,,,,,,,,,,,,,,,,,,,,,,,,,,,,,,,,,,,,,,,,,,,,,,,,,,,,,,,,,,,,,,
,,,,32116,001,2025-10-16_10h41.36.748,HW_LDT_1,2024.2.4,MacIntel,60.24096386,,,,,,,,,,,,,,,,,,,,,,55.0454,55.2436,55.2437,55.7436,55.7445,56.6271,z,1,[],[],[],[],[],[],[],0.8615,1,56.6273,57.1265,0,8,8,15,1,1016,NW,UN,16,mushed,WHAISE,z,0.8615,,,,,,,,,,,,,,,,,,,,,,,,,,,,,,,,,,,,,,,,,,,,,,,,,,,,,,,,,,,,,,,,,,
,,,,32116,001,2025-10-16_10h41.36.748,HW_LDT_1,2024.2.4,MacIntel,60.24096386,,,,,,,,,,,,,,,,,,,,,,57.128,57.327,57.3271,57.8269,57.8283,58.9271,m,1,[],[],[],[],[],[],[],1.0733,1,58.9272,59.427,0,9,9,3,1,1004,WORD,"ID",16,matrix,MATRIX,m,1.0733,,,,,,,,,,,,,,,,,,,,,,,,,,,,,,,,,,,,,,,,,,,,,,,,,,,,,,,,,,,,,,,,,,
,,,,32116,001,2025-10-16_10h41.36.748,HW_LDT_1,2024.2.4,MacIntel,60.24096386,,,,,,,,,,,,,,,,,,,,,,59.4285,59.627,59.627,60.127,60.1282,60.877,m,1,[],[],[],[],[],[],[],0.734,1,60.8772,61.3772,0,10,10,7,1,1008,WORD,UN,16,hurdle,VOLUME,m,0.734,,,,,,,,,,,,,,,,,,,,,,,,,,,,,,,,,,,,,,,,,,,,,,,,,,,,,,,,,,,,,,,,,,
,,,,32116,001,2025-10-16_10h41.36.748,HW_LDT_1,2024.2.4,MacIntel,60.24096386,,,,,,,,,,,,,,,,,,,,,,61.3786,61.5769,61.577,62.077,62.078,62.96,z,1,[],[],[],[],[],[],[],0.8613,1,62.9601,63.4604,0,11,11,9,1,1010,NW,"ID",33,fariny,FARINY,z,0.8613,,,,,,,,,,,,,,,,,,,,,,,,,,,,,,,,,,,,,,,,,,,,,,,,,,,,,,,,,,,,,,,,,,
,,,,32116,001,2025-10-16_10h41.36.748,HW_LDT_1,2024.2.4,MacIntel,60.24096386,,,,,,,,,,,,,,,,,,,,,,63.462,63.6603,63.6603,64.1603,64.1613,65.1105,z,1,[],[],[],[],[],[],[],0.928,1,65.1106,65.6104,0,12,12,8,1,1009,NW,"ID",33,aslert,ASLERT,z,0.928,,,,,,,,,,,,,,,,,,,,,,,,,,,,,,,,,,,,,,,,,,,,,,,,,,,,,,,,,,,,,,,,,,
,,,,32116,001,2025-10-16_10h41.36.748,HW_LDT_1,2024.2.4,MacIntel,60.24096386,,,,,,,,,,,,,,,,,,,,,,65.6119,65.8103,65.8103,66.3103,66.3113,67.1766,z,1,[],[],[],[],[],[],[],0.8442,1,67.1768,67.677,0,13,13,13,1,1014,NW,UN,33,winfer,ROUPET,z,0.8442,,,,,,,,,,,,,,,,,,,,,,,,,,,,,,,,,,,,,,,,,,,,,,,,,,,,,,,,,,,,,,,,,,
,,,,32116,001,2025-10-16_10h41.36.748,HW_LDT_1,2024.2.4,MacIntel,60.24096386,,,,,,,,,,,,,,,,,,,,,,67.6784,67.8769,67.877,68.377,68.3781,70.3602,m,1,[],[],[],[],[],[],[],1.968,1,70.3605,70.8603,0,14,14,4,1,1005,WORD,UN,33,abound,SQUEAK,m,1.968,,,,,,,,,,,,,,,,,,,,,,,,,,,,,,,,,,,,,,,,,,,,,,,,,,,,,,,,,,,,,,,,,,
,,,,32116,001,2025-10-16_10h41.36.748,HW_LDT_1,2024.2.4,MacIntel,60.24096386,,,,,,,,,,,,,,,,,,,,,,70.8617,71.0603,71.0604,71.5602,71.5611,72.4934,z,1,[],[],[],[],[],[],[],0.9182,1,72.4935,72.9937,0,15,15,14,1,1015,NW,UN,16,miaber,THRALE,z,0.9182,,,,,,,,,,,,,,,,,,,,,,,,,,,,,,,,,,,,,,,,,,,,,,,,,,,,,,,,,,,,,,,,,,
,,,,32116,001,2025-10-16_10h41.36.748,HW_LDT_1,2024.2.4,MacIntel,60.24096386,,,,,,,,,,,,,,,1,end_of_practice,"You have completed the practice trials. During the experimental trials, you will not receive feedback. On some trials you will be asked to report whether the item you just saw was in cursive or print. 
Before you begin, please ensure that you are in a comfortable and quiet location and will not be disturbed for about 15 minutes, as we cannot use your data if you do not complete all the trials. 
 When you are ready to start the experimental trials, please press space or touch the button below.",,,,,,,,,,,,,,,,,,,,,,,,,,,,,,,,,,,,,,72.9999,76.9102,,0.148343988,-0.41039003,1,0,0,instr_done_button_3,0,0,0,0,1,,,,,,,,,,,,,,,,,,,,,,,,,,,,,,,,,,,,,,,,,,,,,,,,,,,
,,,,32116,001,2025-10-16_10h41.36.748,HW_LDT_1,2024.2.4,MacIntel,60.24096386,,,,,,,,,,,,,,,,,,,,,,76.922,77.1103,77.1103,77.6099,,,,,,,,,,,,0.7646,1,,,,,,,,,,,,,,m,,,,,,,,,,,,,,,,,1,1,77.6108,78.3773,m,1,0.7646,,[],[],[],[],[],[],[],78.3776,80.3773,80.3776,84.4106,[],[],[],[],[],[],[],m,4.0186,,84.4109,84.4129,0.151519144,-0.409616431,0,0,0,,0,0,0,131,1,4,word,POPULAR,print,popular_p.png,,,,
,,,,32116,001,2025-10-16_10h41.36.748,HW_LDT_1,2024.2.4,MacIntel,60.24096386,,,,,,,,,,,,,,,,,,,,,,84.4137,84.6105,84.6106,85.11,,,,,,,,,,,,1.13,1,,,,,,,,,,,,,,m,,,,,,,,,,,,,,,,,2,1,85.1103,86.2438,m,1,1.13,,[],[],[],[],[],[],[],86.2438,88.2436,88.2437,90.0437,[],[],[],[],[],[],[],m,1.7881,,90.0438,90.044,0.151519144,-0.409616431,0,0,0,,0,1,1,115,1,4,word,LOGICAL,print,logical_p.png,,,,
,,,,32116,001,2025-10-16_10h41.36.748,HW_LDT_1,2024.2.4,MacIntel,60.24096386,,,,,,,,,,,,,,,,,,,,,,90.0453,90.2435,90.2435,90.7436,,,,,,,,,,,,3.1981,1,,,,,,,,,,,,,,z,,,,,,,,,,,,,,,,,3,1,90.7443,93.9439,z,1,3.1981,,[],[],[],[],[],[],[],93.944,95.9435,95.9436,96.4936,[],[],[],[],[],[],[],z,0.5409,,96.4936,96.4937,0.151519144,-0.409616431,0,0,0,,0,2,2,1,1,4,RL,afaneur,cursive,afaneur_c.png,,,,
,,,,32116,001,2025-10-16_10h41.36.748,HW_LDT_1,2024.2.4,MacIntel,60.24096386,,,,,,,,,,,,,,,,,,,,,,96.4944,96.6935,96.6935,97.1936,,,,,,,,,,,,0.9535,1,,,,,,,,,,,,,,m,,,,,,,,,,,,,,,,,4,0,97.1942,98.1599,m,1,0.9535,,[],[],[],[],[],[],[],98.16,100.1602,100.1603,100.1606,[],[],[],[],[],[],[],,,,100.1606,100.1608,0.151255611,-0.408086235,0,0,0,,0,3,3,156,1,4,word,TRIBUTE,print,tribute_p.png,,,,
,,,,32116,001,2025-10-16_10h41.36.748,HW_LDT_1,2024.2.4,MacIntel,60.24096386,,,,,,,,,,,,,,,,,,,,,,100.1621,100.3603,100.3604,100.8601,,,,,,,,,,,,2.728,1,,,,,,,,,,,,,,m,,,,,,,,,,,,,,,,,5,0,100.8608,103.5933,m,1,2.728,,[],[],[],[],[],[],[],103.5934,105.5936,105.5937,105.594,[],[],[],[],[],[],[],,,,105.594,105.5942,0.151255611,-0.407049102,0,0,0,,0,4,4,129,1,4,word,PARENT,cursive,parent_c.png,,,,
,,,,32116,001,2025-10-16_10h41.36.748,HW_LDT_1,2024.2.4,MacIntel,60.24096386,,,,,,,,,,,,,,,,,,,,,,105.5955,105.7937,105.7937,106.2936,,,,,,,,,,,,1.2538,1,,,,,,,,,,,,,,z,,,,,,,,,,,,,,,,,6,0,106.2945,107.5602,z,1,1.2538,,[],[],[],[],[],[],[],107.5602,109.5601,109.5602,109.5605,[],[],[],[],[],[],[],,,,109.5607,109.5608,0.151255611,-0.407049102,0,0,0,,0,5,5,75,1,4,TL,sanile,print,sanile_p.png,,,,
,,,,32116,001,2025-10-16_10h41.36.748,HW_LDT_1,2024.2.4,MacIntel,60.24096386,,,,,,,,,,,,,,,,,,,,,,109.5623,109.7602,109.7603,110.2601,,,,,,,,,,,,1.0318,1,,,,,,,,,,,,,,z,,,,,,,,,,,,,,,,,7,1,110.2609,111.2938,z,1,1.0318,,[],[],[],[],[],[],[],111.2939,113.2937,113.2938,114.9601,[],[],[],[],[],[],[],m,1.6546,,114.9602,114.9603,0.151255611,-0.407049102,0,0,0,,0,6,6,43,1,4,RL,rovastic,print,rovastic_p.png,,,,
,,,,32116,001,2025-10-16_10h41.36.748,HW_LDT_1,2024.2.4,MacIntel,60.24096386,,,,,,,,,,,,,,,,,,,,,,114.9611,115.1603,115.1604,115.6601,,,,,,,,,,,,0.8785,1,,,,,,,,,,,,,,z,,,,,,,,,,,,,,,,,8,0,115.6607,116.5436,z,1,0.8785,,[],[],[],[],[],[],[],116.5437,118.5436,118.5436,118.5438,[],[],[],[],[],[],[],,,,118.5439,118.544,0.150737044,-0.405268124,0,0,0,,0,7,7,9,1,4,RL,cafigal,print,cafigal_p.png,,,,
,,,,32116,001,2025-10-16_10h41.36.748,HW_LDT_1,2024.2.4,MacIntel,60.24096386,,,,,,,,,,,,,,,,,,,,,,118.5454,118.7429,118.743,119.2436,,,,,,,,,,,,0.9885,1,,,,,,,,,,,,,,m,,,,,,,,,,,,,,,,,9,0,119.2448,120.2426,m,1,0.9885,,[],[],[],[],[],[],[],120.2429,122.2437,122.2437,122.2441,[],[],[],[],[],[],[],,,,122.2441,122.2443,0.150737044,-0.405268124,0,0,0,,0,8,8,90,1,4,word,CAPITAL,print,capital_p.png,,,,
,,,,32116,001,2025-10-16_10h41.36.748,HW_LDT_1,2024.2.4,MacIntel,60.24096386,,,,,,,,,,,,,,,,,,,,,,122.2461,122.4438,122.4438,122.9436,,,,,,,,,,,,1.3533,1,,,,,,,,,,,,,,m,,,,,,,,,,,,,,,,,10,0,122.9444,124.3104,m,1,1.3533,,[],[],[],[],[],[],[],124.3105,126.3104,126.3105,126.3108,[],[],[],[],[],[],[],,,,126.3109,126.3112,0.150737044,-0.405268124,0,0,0,,0,9,9,120,1,4,word,MILITARY,print,military_p.png,,,,
,,,,32116,001,2025-10-16_10h41.36.748,HW_LDT_1,2024.2.4,MacIntel,60.24096386,,,,,,,,,,,,,,,,,,,,,,126.3129,126.5101,126.5102,127.0102,,,,,,,,,,,,3.6893,0,,,,,,,,,,,,,,m,,,,,,,,,,,,,,,,,11,0,127.011,130.7103,z,0,3.6893,,[],[],[],[],[],[],[],130.7104,132.7102,132.7103,132.7105,[],[],[],[],[],[],[],,,,132.7106,132.7108,0.150737044,-0.405268124,0,0,0,,0,10,10,114,1,4,word,LOCATE,cursive,locate_c.png,,,,
,,,,32116,001,2025-10-16_10h41.36.748,HW_LDT_1,2024.2.4,MacIntel,60.24096386,,,,,,,,,,,,,,,,,,,,,,132.7125,132.9102,132.9103,133.4103,,,,,,,,,,,,4.8706,1,,,,,,,,,,,,,,z,,,,,,,,,,,,,,,,,12,0,133.411,138.2936,z,1,4.8706,,[],[],[],[],[],[],[],138.2937,140.2935,140.2935,140.2938,[],[],[],[],[],[],[],,,,140.2939,140.294,0.15124711,-0.406534786,0,0,0,,0,11,11,26,1,4,RL,mesibine,cursive,mesibine_c.png,,,,
,,,,32116,001,2025-10-16_10h41.36.748,HW_LDT_1,2024.2.4,MacIntel,60.24096386,,,,,,,,,,,,,,,,,,,,,,140.2954,140.4935,140.4936,140.9934,,,,,,,,,,,,2.7639,0,,,,,,,,,,,,,,m,,,,,,,,,,,,,,,,,13,0,140.9942,143.7598,z,0,2.7639,,[],[],[],[],[],[],[],143.7599,145.7603,145.7604,145.7608,[],[],[],[],[],[],[],,,,145.7609,145.761,0.139745137,-0.393647137,0,0,0,,0,12,12,101,1,4,word,DELICATE,cursive,delicate_c.png,,,,
,,,,32116,001,2025-10-16_10h41.36.748,HW_LDT_1,2024.2.4,MacIntel,60.24096386,,,,,,,,,,,,,,,,,,,,,,145.7629,145.9604,145.9605,146.4601,,,,,,,,,,,,0.7725,1,,,,,,,,,,,,,,z,,,,,,,,,,,,,,,,,14,0,146.4607,147.2436,z,1,0.7725,,[],[],[],[],[],[],[],147.2437,149.2435,149.2436,149.2439,[],[],[],[],[],[],[],,,,149.2439,149.2441,0.139745137,-0.391853407,0,0,0,,0,13,13,7,1,4,RL,casena,print,casena_p.png,,,,
,,,,32116,001,2025-10-16_10h41.36.748,HW_LDT_1,2024.2.4,MacIntel,60.24096386,,,,,,,,,,,,,,,,,,,,,,149.2456,149.4435,149.4435,149.9435,,,,,,,,,,,,1.0309,1,,,,,,,,,,,,,,z,,,,,,,,,,,,,,,,,15,0,149.9443,150.9768,z,1,1.0309,,[],[],[],[],[],[],[],150.9769,152.9768,152.9769,152.9771,[],[],[],[],[],[],[],,,,152.9772,152.9773,0.139745137,-0.391853407,0,0,0,,0,14,14,0,1,4,RL,abanemy,print,abanemy_p.png,,,,
,,,,32116,001,2025-10-16_10h41.36.748,HW_LDT_1,2024.2.4,MacIntel,60.24096386,,,,,,,,,,,,,,,,,,,,,,152.9786,153.1768,153.1768,153.6768,,,,,,,,,,,,1.1038,1,,,,,,,,,,,,,,m,,,,,,,,,,,,,,,,,16,0,153.6775,154.7932,m,1,1.1038,,[],[],[],[],[],[],[],154.7933,156.7925,156.7926,156.7927,[],[],[],[],[],[],[],,,,156.7929,156.793,0.139745137,-0.391853407,0,0,0,,0,15,15,151,1,4,word,SPECIFIC,cursive,specific_c.png,,,,
,,,,32116,001,2025-10-16_10h41.36.748,HW_LDT_1,2024.2.4,MacIntel,60.24096386,,,,,,,,,,,,,,,,,,,,,,156.7945,156.9993,156.9993,157.4934,,,,,,,,,,,,0.7779,1,,,,,,,,,,,,,,m,,,,,,,,,,,,,,,,,17,0,157.494,158.2768,m,1,0.7779,,[],[],[],[],[],[],[],158.2769,160.2768,160.2769,160.2771,[],[],[],[],[],[],[],,,,160.2772,160.2772,0.139745137,-0.391853407,0,0,0,,0,16,16,117,1,4,word,MARINE,print,marine_p.png,,,,
,,,,32116,001,2025-10-16_10h41.36.748,HW_LDT_1,2024.2.4,MacIntel,60.24096386,,,,,,,,,,,,,,,,,,,,,,160.2786,160.4767,160.4769,160.9767,,,,,,,,,,,,1.6624,1,,,,,,,,,,,,,,z,,,,,,,,,,,,,,,,,18,0,160.9773,162.6435,z,1,1.6624,,[],[],[],[],[],[],[],162.6436,164.6435,164.6436,164.6439,[],[],[],[],[],[],[],,,,164.6439,164.644,0.139745137,-0.392099939,0,0,0,,0,17,17,4,1,4,RL,betemit,cursive,betemit_c.png,,,,
,,,,32116,001,2025-10-16_10h41.36.748,HW_LDT_1,2024.2.4,MacIntel,60.24096386,,,,,,,,,,,,,,,,,,,,,,164.6453,164.8431,164.8431,165.3435,,,,,,,,,,,,0.7579,1,,,,,,,,,,,,,,m,,,,,,,,,,,,,,,,,19,0,165.3441,166.1103,m,1,0.7579,,[],[],[],[],[],[],[],166.1104,168.1102,168.1102,168.1105,[],[],[],[],[],[],[],,,,168.1105,168.1108,0.139745137,-0.392099939,0,0,0,,0,18,18,136,1,4,word,RADICAL,print,radical_p.png,,,,
,,,,32116,001,2025-10-16_10h41.36.748,HW_LDT_1,2024.2.4,MacIntel,60.24096386,,,,,,,,,,,,,,,,,,,,,,168.1121,168.3101,168.3103,168.8101,,,,,,,,,,,,0.7135,1,,,,,,,,,,,,,,m,,,,,,,,,,,,,,,,,20,0,168.8108,169.5268,m,1,0.7135,,[],[],[],[],[],[],[],169.527,171.5268,171.5268,171.5273,[],[],[],[],[],[],[],,,,171.5274,171.5278,0.139745137,-0.392099939,0,0,0,,0,19,19,94,1,4,word,CLINICAL,print,clinical_p.png,,,,
,,,,32116,001,2025-10-16_10h41.36.748,HW_LDT_1,2024.2.4,MacIntel,60.24096386,,,,,,,,,,,,,,,,,,,,,,171.5292,171.7268,171.7268,172.2268,,,,,,,,,,,,0.5566,1,,,,,,,,,,,,,,m,,,,,,,,,,,,,,,,,21,0,172.2274,172.7935,m,1,0.5566,,[],[],[],[],[],[],[],172.7936,174.7932,174.7933,174.7935,[],[],[],[],[],[],[],,,,174.7935,174.7936,0.139745137,-0.392099939,0,0,0,,0,20,20,127,1,4,word,ORIGINAL,print,original_p.png,,,,
,,,,32116,001,2025-10-16_10h41.36.748,HW_LDT_1,2024.2.4,MacIntel,60.24096386,,,,,,,,,,,,,,,,,,,,,,174.7949,174.9934,174.9935,175.4934,,,,,,,,,,,,2.3069,1,,,,,,,,,,,,,,z,,,,,,,,,,,,,,,,,22,0,175.4941,177.8101,z,1,2.3069,,[],[],[],[],[],[],[],177.8102,179.8101,179.8101,179.8103,[],[],[],[],[],[],[],,,,179.8105,179.8105,0.139745137,-0.391343342,0,0,0,,0,21,21,21,1,4,RL,insibate,print,insibate_p.png,,,,
,,,,32116,001,2025-10-16_10h41.36.748,HW_LDT_1,2024.2.4,MacIntel,60.24096386,,,,,,,,,,,,,,,,,,,,,,179.8119,180.01,180.01,180.5101,,,,,,,,,,,,1.0813,1,,,,,,,,,,,,,,m,,,,,,,,,,,,,,,,,23,0,180.5107,181.5931,m,1,1.0813,,[],[],[],[],[],[],[],181.5932,183.5934,183.5935,183.5938,[],[],[],[],[],[],[],,,,183.5938,183.5939,0.139745137,-0.391343342,0,0,0,,0,22,22,86,1,4,word,BESIDE,print,beside_p.png,,,,
,,,,32116,001,2025-10-16_10h41.36.748,HW_LDT_1,2024.2.4,MacIntel,60.24096386,,,,,,,,,,,,,,,,,,,,,,183.5953,183.7935,183.7936,184.2934,,,,,,,,,,,,0.8379,1,,,,,,,,,,,,,,z,,,,,,,,,,,,,,,,,24,0,184.294,185.1436,z,1,0.8379,,[],[],[],[],[],[],[],185.1437,187.1435,187.1436,187.1438,[],[],[],[],[],[],[],,,,187.1438,187.144,0.139745137,-0.391343342,0,0,0,,0,23,23,40,1,4,RL,reconal,print,reconal_p.png,,,,
,,,,32116,001,2025-10-16_10h41.36.748,HW_LDT_1,2024.2.4,MacIntel,60.24096386,,,,,,,,,,,,,,,,,,,,,,187.1453,187.3432,187.3433,187.8434,,,,,,,,,,,,5.5641,1,,,,,,,,,,,,,,z,,,,,,,,,,,,,,,,,25,0,187.8439,193.4093,z,1,5.5641,,[],[],[],[],[],[],[],193.4093,195.4098,195.4099,195.4101,[],[],[],[],[],[],[],,,,195.4102,195.4102,0.139745137,-0.39109256,0,0,0,,0,24,24,5,1,4,RL,bebine,print,bebine_p.png,,,,
,,,,32116,001,2025-10-16_10h41.36.748,HW_LDT_1,2024.2.4,MacIntel,60.24096386,,,,,,,,,,,,,,,,,,,,,,195.4112,195.6101,195.6102,196.1101,,,,,,,,,,,,1.9371,1,,,,,,,,,,,,,,z,,,,,,,,,,,,,,,,,26,0,196.1106,198.0601,z,1,1.9371,,[],[],[],[],[],[],[],198.0603,200.0601,200.0601,200.0605,[],[],[],[],[],[],[],,,,200.0605,200.0606,0.139745137,-0.39109256,0,0,0,,0,25,25,15,1,4,RL,debave,cursive,debave_c.png,,,,
,,,,32116,001,2025-10-16_10h41.36.748,HW_LDT_1,2024.2.4,MacIntel,60.24096386,,,,,,,,,,,,,,,,,,,,,,200.0618,200.2604,200.2605,200.76,,,,,,,,,,,,1.2057,1,,,,,,,,,,,,,,z,,,,,,,,,,,,,,,,,27,0,200.7607,201.9767,z,1,1.2057,,[],[],[],[],[],[],[],201.9768,203.9767,203.9768,203.9771,[],[],[],[],[],[],[],,,,203.9772,203.9774,0.139745137,-0.39109256,0,0,0,,0,26,26,62,1,4,TL,locigal,print,locigal_p.png,,,,
,,,,32116,001,2025-10-16_10h41.36.748,HW_LDT_1,2024.2.4,MacIntel,60.24096386,,,,,,,,,,,,,,,,,,,,,,203.9786,204.1766,204.1767,204.6767,,,,,,,,,,,,1.3041,1,,,,,,,,,,,,,,z,,,,,,,,,,,,,,,,,28,0,204.6773,205.9932,z,1,1.3041,,[],[],[],[],[],[],[],205.9933,207.9931,207.9931,207.9934,[],[],[],[],[],[],[],,,,207.9934,207.9935,0.139745137,-0.39109256,0,0,0,,0,27,27,39,1,4,RL,relone,cursive,relone_c.png,,,,
,,,,32116,001,2025-10-16_10h41.36.748,HW_LDT_1,2024.2.4,MacIntel,60.24096386,,,,,,,,,,,,,,,,,,,,,,207.9948,208.1934,208.1935,208.6933,,,,,,,,,,,,0.6534,1,,,,,,,,,,,,,,m,,,,,,,,,,,,,,,,,29,0,208.6941,209.36,m,1,0.6534,,[],[],[],[],[],[],[],209.3601,211.36,211.36,211.3603,[],[],[],[],[],[],[],,,,211.3603,211.3604,0.139745137,-0.39109256,0,0,0,,0,28,28,119,1,4,word,MEMORY,print,memory_p.png,,,,
,,,,32116,001,2025-10-16_10h41.36.748,HW_LDT_1,2024.2.4,MacIntel,60.24096386,,,,,,,,,,,,,,,,,,,,,,211.3617,211.5599,211.5601,212.0593,,,,,,,,,,,,0.9875,1,,,,,,,,,,,,,,m,,,,,,,,,,,,,,,,,30,1,212.06,213.0601,m,1,0.9875,,[],[],[],[],[],[],[],213.0602,215.06,215.0601,216.6101,[],[],[],[],[],[],[],z,1.5376,,216.6101,216.6102,0.139745137,-0.39109256,0,0,0,,0,29,29,112,1,4,word,LIBERAL,cursive,liberal_c.png,,,,
,,,,32116,001,2025-10-16_10h41.36.748,HW_LDT_1,2024.2.4,MacIntel,60.24096386,,,,,,,,,,,,,,,,,,,,,,216.6114,216.8101,216.8101,217.3099,,,,,,,,,,,,1.0459,1,,,,,,,,,,,,,,m,,,,,,,,,,,,,,,,,31,0,217.3104,218.3601,m,1,1.0459,,[],[],[],[],[],[],[],218.3602,220.3601,220.3601,220.3603,[],[],[],[],[],[],[],,,,220.3603,220.3605,0.139745137,-0.39109256,0,0,0,,0,30,30,95,1,4,word,COMEDY,print,comedy_p.png,,,,
,,,,32116,001,2025-10-16_10h41.36.748,HW_LDT_1,2024.2.4,MacIntel,60.24096386,,,,,,,,,,,,,,,,,,,,,,220.3619,220.56,220.56,221.0602,,,,,,,,,,,,1.4821,0,,,,,,,,,,,,,,m,,,,,,,,,,,,,,,,,32,0,221.0608,222.5439,z,0,1.4821,,[],[],[],[],[],[],[],222.544,224.5434,224.5434,224.5436,[],[],[],[],[],[],[],,,,224.5436,224.5437,0.139745137,-0.39109256,0,0,0,,0,31,31,102,1,4,word,DENSITY,cursive,density_c.png,,,,
,,,,32116,001,2025-10-16_10h41.36.748,HW_LDT_1,2024.2.4,MacIntel,60.24096386,,,,,,,,,,,,,,,,,,,,,,224.5449,224.7434,224.7435,225.2433,,,,,,,,,,,,0.7867,1,,,,,,,,,,,,,,z,,,,,,,,,,,,,,,,,33,0,225.2438,226.0431,z,1,0.7867,,[],[],[],[],[],[],[],226.0431,228.0434,228.0435,228.0436,[],[],[],[],[],[],[],,,,228.0437,228.0438,0.139745137,-0.39109256,0,0,0,,0,32,32,28,1,4,RL,mifikary,print,mifikary_p.png,,,,
,,,,32116,001,2025-10-16_10h41.36.748,HW_LDT_1,2024.2.4,MacIntel,60.24096386,,,,,,,,,,,,,,,,,,,,,,228.0452,228.2433,228.2433,228.7434,,,,,,,,,,,,2.5869,1,,,,,,,,,,,,,,z,,,,,,,,,,,,,,,,,34,0,228.744,231.3433,z,1,2.5869,,[],[],[],[],[],[],[],231.3434,233.3432,233.3433,233.3435,[],[],[],[],[],[],[],,,,233.3436,233.3436,0.139745137,-0.39109256,0,0,0,,0,33,33,13,1,4,RL,crisival,cursive,crisival_c.png,,,,
,,,,32116,001,2025-10-16_10h41.36.748,HW_LDT_1,2024.2.4,MacIntel,60.24096386,,,,,,,,,,,,,,,,,,,,,,233.345,233.5433,233.5433,234.0433,,,,,,,,,,,,1.3873,1,,,,,,,,,,,,,,m,,,,,,,,,,,,,,,,,35,1,234.044,235.4427,m,1,1.3873,,[],[],[],[],[],[],[],235.4428,237.4432,237.4433,239.6268,[],[],[],[],[],[],[],z,2.1825,,239.6268,239.627,0.139745137,-0.39109256,0,0,0,,0,34,34,104,1,4,word,DOMINANT,cursive,dominant_c.png,,,,
,,,,32116,001,2025-10-16_10h41.36.748,HW_LDT_1,2024.2.4,MacIntel,60.24096386,,,,,,,,,,,,,,,,,,,,,,239.628,239.8265,239.8266,240.3266,,,,,,,,,,,,7.3979,0,,,,,,,,,,,,,,z,,,,,,,,,,,,,,,,,36,0,240.3271,247.7267,m,0,7.3979,,[],[],[],[],[],[],[],247.7268,249.7269,249.7271,249.7272,[],[],[],[],[],[],[],,,,249.7272,249.7273,0.136629489,-0.385554101,0,0,0,,0,35,35,30,1,4,RL,nunewical,cursive,nunewical_c.png,,,,
,,,,32116,001,2025-10-16_10h41.36.748,HW_LDT_1,2024.2.4,MacIntel,60.24096386,,,,,,,,,,,,,,,,,,,,,,249.7285,249.9259,249.926,250.4266,,,,,,,,,,,,1.3152,1,,,,,,,,,,,,,,z,,,,,,,,,,,,,,,,,37,0,250.4272,251.7434,z,1,1.3152,,[],[],[],[],[],[],[],251.7436,253.7433,253.7434,253.7437,[],[],[],[],[],[],[],,,,253.7437,253.7438,0.136629489,-0.385554101,0,0,0,,0,36,36,57,1,4,TL,etidor,print,etidor_p.png,,,,
,,,,32116,001,2025-10-16_10h41.36.748,HW_LDT_1,2024.2.4,MacIntel,60.24096386,,,,,,,,,,,,,,,,,,,,,,253.7452,253.9431,253.9431,254.4433,,,,,,,,,,,,1.656,1,,,,,,,,,,,,,,m,,,,,,,,,,,,,,,,,38,0,254.444,256.1092,m,1,1.656,,[],[],[],[],[],[],[],256.1092,258.1099,258.1099,258.1102,[],[],[],[],[],[],[],,,,258.1102,258.1103,0.136629489,-0.385554101,0,0,0,,0,37,37,133,1,4,word,PROVIDE,cursive,provide_c.png,,,,
,,,,32116,001,2025-10-16_10h41.36.748,HW_LDT_1,2024.2.4,MacIntel,60.24096386,,,,,,,,,,,,,,,,,,,,,,258.1116,258.3099,258.3099,258.8099,,,,,,,,,,,,1.8651,1,,,,,,,,,,,,,,m,,,,,,,,,,,,,,,,,39,0,258.8106,260.6767,m,1,1.8651,,[],[],[],[],[],[],[],260.6768,262.6766,262.6767,262.6769,[],[],[],[],[],[],[],,,,262.677,262.6771,0.136629489,-0.385554101,0,0,0,,0,38,38,88,1,4,word,CAMERA,print,camera_p.png,,,,
,,,,32116,001,2025-10-16_10h41.36.748,HW_LDT_1,2024.2.4,MacIntel,60.24096386,,,,,,,,,,,,,,,,,,,,,,262.6785,262.8767,262.8767,263.3765,,,,,,,,,,,,1.1918,1,,,,,,,,,,,,,,m,,,,,,,,,,,,,,,,,40,0,263.3772,264.5767,m,1,1.1918,,[],[],[],[],[],[],[],264.5768,266.5766,266.5766,266.5768,[],[],[],[],[],[],[],,,,266.5769,266.577,0.136629489,-0.385554101,0,0,0,,0,39,39,137,1,4,word,RAPIDLY,cursive,rapidly_c.png,,,,
,,,,32116,001,2025-10-16_10h41.36.748,HW_LDT_1,2024.2.4,MacIntel,60.24096386,,,,,,,,,,,,,,,,,,,,,,266.5782,266.7766,266.7766,267.2767,,,,,,,,,,,,0.8648,0,,,,,,,,,,,,,,z,,,,,,,,,,,,,,,,,41,1,267.2772,268.1433,m,0,0.8648,,[],[],[],[],[],[],[],268.1434,270.1433,270.1434,271.9256,[],[],[],[],[],[],[],z,1.7761,,271.9256,271.9257,0.136629489,-0.385554101,0,0,0,,0,40,40,79,1,4,TL,tritube,print,tritube_p.png,,,,
,,,,32116,001,2025-10-16_10h41.36.748,HW_LDT_1,2024.2.4,MacIntel,60.24096386,,,,,,,,,,,,,,,,,,,,,,271.9269,272.1265,272.1266,272.6266,,,,,,,,,,,,2.7704,1,,,,,,,,,,,,,,z,,,,,,,,,,,,,,,,,42,0,272.6271,275.4101,z,1,2.7704,,[],[],[],[],[],[],[],275.4101,277.4099,277.41,277.4103,[],[],[],[],[],[],[],,,,277.4104,277.4105,0.136629489,-0.385554101,0,0,0,,0,41,41,24,1,4,RL,marmipal,cursive,marmipal_c.png,,,,
,,,,32116,001,2025-10-16_10h41.36.748,HW_LDT_1,2024.2.4,MacIntel,60.24096386,,,,,,,,,,,,,,,,,,,,,,277.4119,277.6099,277.61,278.1099,,,,,,,,,,,,0.804,1,,,,,,,,,,,,,,z,,,,,,,,,,,,,,,,,43,0,278.1106,278.9266,z,1,0.804,,[],[],[],[],[],[],[],278.9266,280.9264,280.9264,280.9267,[],[],[],[],[],[],[],,,,280.9267,280.9269,0.136629489,-0.385554101,0,0,0,,0,42,42,74,1,4,TL,rerite,print,rerite_p.png,,,,
,,,,32116,001,2025-10-16_10h41.36.748,HW_LDT_1,2024.2.4,MacIntel,60.24096386,,,,,,,,,,,,,,,,,,,,,,280.9282,281.1265,281.1266,281.6265,,,,,,,,,,,,2.1539,1,,,,,,,,,,,,,,z,,,,,,,,,,,,,,,,,44,0,281.6273,283.792,z,1,2.1539,,[],[],[],[],[],[],[],283.792,285.7933,285.7934,285.7936,[],[],[],[],[],[],[],,,,285.7937,285.7938,0.136629489,-0.385554101,0,0,0,,0,43,43,65,1,4,TL,orepator,print,orepator_p.png,,,,
,,,,32116,001,2025-10-16_10h41.36.748,HW_LDT_1,2024.2.4,MacIntel,60.24096386,,,,,,,,,,,,,,,,,,,,,,285.7951,285.9932,285.9932,286.4932,,,,,,,,,,,,1.022,1,,,,,,,,,,,,,,z,,,,,,,,,,,,,,,,,45,0,286.494,287.5267,z,1,1.022,,[],[],[],[],[],[],[],287.5268,289.5265,289.5265,289.5268,[],[],[],[],[],[],[],,,,289.5269,289.527,0.136629489,-0.385554101,0,0,0,,0,44,44,35,1,4,RL,probice,cursive,probice_c.png,,,,
,,,,32116,001,2025-10-16_10h41.36.748,HW_LDT_1,2024.2.4,MacIntel,60.24096386,,,,,,,,,,,,,,,,,,,,,,289.5283,289.7266,289.7267,290.2266,,,,,,,,,,,,0.837,1,,,,,,,,,,,,,,z,,,,,,,,,,,,,,,,,46,0,290.2272,291.0763,z,1,0.837,,[],[],[],[],[],[],[],291.0764,293.0766,293.0767,293.0769,[],[],[],[],[],[],[],,,,293.077,293.0772,0.136629489,-0.385554101,0,0,0,,0,45,45,70,1,4,TL,quatily,print,quatily_p.png,,,,
,,,,32116,001,2025-10-16_10h41.36.748,HW_LDT_1,2024.2.4,MacIntel,60.24096386,,,,,,,,,,,,,,,,,,,,,,293.0785,293.2766,293.2767,293.7765,,,,,,,,,,,,0.8202,1,,,,,,,,,,,,,,m,,,,,,,,,,,,,,,,,47,0,293.7771,294.6099,m,1,0.8202,,[],[],[],[],[],[],[],294.61,296.6098,296.6098,296.6101,[],[],[],[],[],[],[],,,,296.6102,296.6102,0.136629489,-0.385554101,0,0,0,,0,46,46,84,1,4,word,BELOVED,print,beloved_p.png,,,,
,,,,32116,001,2025-10-16_10h41.36.748,HW_LDT_1,2024.2.4,MacIntel,60.24096386,,,,,,,,,,,,,,,,,,,,,,296.6116,296.81,296.8101,297.3098,,,,,,,,,,,,2.7302,1,,,,,,,,,,,,,,m,,,,,,,,,,,,,,,,,48,0,297.3108,300.0433,m,1,2.7302,,[],[],[],[],[],[],[],300.0434,302.0432,302.0433,302.0435,[],[],[],[],[],[],[],,,,302.0435,302.0436,0.136629489,-0.385554101,0,0,0,,0,47,47,89,1,4,word,CAPACITY,cursive,capacity_c.png,,,,
,,,,32116,001,2025-10-16_10h41.36.748,HW_LDT_1,2024.2.4,MacIntel,60.24096386,,,,,,,,,,,,,,,,,,,,,,302.0451,302.2432,302.2433,302.7431,,,,,,,,,,,,1.9379,1,,,,,,,,,,,,,,m,,,,,,,,,,,,,,,,,49,0,302.7437,304.6933,m,1,1.9379,,[],[],[],[],[],[],[],304.6934,306.6933,306.6933,306.6936,[],[],[],[],[],[],[],,,,306.6937,306.6938,0.136629489,-0.385554101,0,0,0,,0,48,48,109,1,4,word,GRATEFUL,print,grateful_p.png,,,,
,,,,32116,001,2025-10-16_10h41.36.748,HW_LDT_1,2024.2.4,MacIntel,60.24096386,,,,,,,,,,,,,,,,,,,,,,306.6953,306.8931,306.8931,307.3932,,,,,,,,,,,,0.6707,1,,,,,,,,,,,,,,z,,,,,,,,,,,,,,,,,50,0,307.3937,308.0762,z,1,0.6707,,[],[],[],[],[],[],[],308.0763,310.0765,310.0765,310.0767,[],[],[],[],[],[],[],,,,310.0767,310.077,0.136629489,-0.385554101,0,0,0,,0,49,49,25,1,4,RL,macise,print,macise_p.png,,,,
,,,,32116,001,2025-10-16_10h41.36.748,HW_LDT_1,2024.2.4,MacIntel,60.24096386,,,,,,,,,,,,,,,,,,,,,,310.0783,310.2764,310.2765,310.7764,,,,,,,,,,,,0.7738,1,,,,,,,,,,,,,,z,,,,,,,,,,,,,,,,,51,0,310.777,311.5599,z,1,0.7738,,[],[],[],[],[],[],[],311.56,313.5597,313.5599,313.5601,[],[],[],[],[],[],[],,,,313.5601,313.5602,0.136629489,-0.385554101,0,0,0,,0,50,50,66,1,4,TL,opmital,print,opmital_p.png,,,,
,,,,32116,001,2025-10-16_10h41.36.748,HW_LDT_1,2024.2.4,MacIntel,60.24096386,,,,,,,,,,,,,,,,,,,,,,313.5615,313.7598,313.7599,314.2598,,,,,,,,,,,,0.9544,1,,,,,,,,,,,,,,z,,,,,,,,,,,,,,,,,52,1,314.2604,315.227,z,1,0.9544,,[],[],[],[],[],[],[],315.227,317.2264,317.2266,321.5097,[],[],[],[],[],[],[],m,4.2707,,321.5097,321.5098,0.136629489,-0.385554101,0,0,0,,0,51,51,60,1,4,TL,hetirage,print,hetirage_p.png,,,,
,,,,32116,001,2025-10-16_10h41.36.748,HW_LDT_1,2024.2.4,MacIntel,60.24096386,,,,,,,,,,,,,,,,,,,,,,321.5105,321.7095,321.7096,322.2088,,,,,,,,,,,,1.764,1,,,,,,,,,,,,,,z,,,,,,,,,,,,,,,,,53,0,322.2095,323.9755,z,1,1.764,,[],[],[],[],[],[],[],323.9757,325.9765,325.9766,325.977,[],[],[],[],[],[],[],,,,325.9771,325.9773,0.136629489,-0.385554101,0,0,0,,0,52,52,45,1,4,RL,spetisic,cursive,spetisic_c.png,,,,
,,,,32116,001,2025-10-16_10h41.36.748,HW_LDT_1,2024.2.4,MacIntel,60.24096386,,,,,,,,,,,,,,,,,,,,,,325.9797,326.1766,326.1767,326.6765,,,,,,,,,,,,1.1535,1,,,,,,,,,,,,,,z,,,,,,,,,,,,,,,,,54,0,326.6778,327.8429,z,1,1.1535,,[],[],[],[],[],[],[],327.8429,329.8432,329.8433,329.8438,[],[],[],[],[],[],[],,,,329.8438,329.8439,0.136629489,-0.385554101,0,0,0,,0,53,53,72,1,4,TL,relugar,cursive,relugar_c.png,,,,
,,,,32116,001,2025-10-16_10h41.36.748,HW_LDT_1,2024.2.4,MacIntel,60.24096386,,,,,,,,,,,,,,,,,,,,,,329.8456,330.0431,330.0431,330.5431,,,,,,,,,,,,1.432,1,,,,,,,,,,,,,,m,,,,,,,,,,,,,,,,,55,1,330.5438,331.9766,m,1,1.432,,[],[],[],[],[],[],[],331.9767,333.9765,333.9765,337.0765,[],[],[],[],[],[],[],z,3.0991,,337.0766,337.0767,0.136629489,-0.385303319,0,0,0,,0,54,54,143,1,4,word,REMOVAL,print,removal_p.png,,,,
,,,,32116,001,2025-10-16_10h41.36.748,HW_LDT_1,2024.2.4,MacIntel,60.24096386,,,,,,,,,,,,,,,,,,,,,,337.0779,337.2765,337.2765,337.7764,,,,,,,,,,,,4.4141,1,,,,,,,,,,,,,,z,,,,,,,,,,,,,,,,,56,0,337.7771,342.1923,z,1,4.4141,,[],[],[],[],[],[],[],342.1923,344.1932,344.1932,344.1934,[],[],[],[],[],[],[],,,,344.1934,344.1934,0.137131053,-0.384776251,0,0,0,,0,55,55,10,1,4,RL,carminal,cursive,carminal_c.png,,,,
,,,,32116,001,2025-10-16_10h41.36.748,HW_LDT_1,2024.2.4,MacIntel,60.24096386,,,,,,,,,,,,,,,,,,,,,,344.1945,344.3928,344.3928,344.8931,,,,,,,,,,,,1.4898,1,,,,,,,,,,,,,,m,,,,,,,,,,,,,,,,,57,0,344.8938,346.3931,m,1,1.4898,,[],[],[],[],[],[],[],346.3932,348.393,348.3931,348.3933,[],[],[],[],[],[],[],,,,348.3933,348.3934,0.137131053,-0.385277816,0,0,0,,0,56,56,139,1,4,word,REGULAR,cursive,regular_c.png,,,,
,,,,32116,001,2025-10-16_10h41.36.748,HW_LDT_1,2024.2.4,MacIntel,60.24096386,,,,,,,,,,,,,,,,,,,,,,348.3945,348.5932,348.5933,349.0931,,,,,,,,,,,,2.6964,1,,,,,,,,,,,,,,m,,,,,,,,,,,,,,,,,58,0,349.0939,351.7927,m,1,2.6964,,[],[],[],[],[],[],[],351.7929,353.793,353.7931,353.7933,[],[],[],[],[],[],[],,,,353.7934,353.7935,0.137131053,-0.385277816,0,0,0,,0,57,57,118,1,4,word,MEDICINE,cursive,medicine_c.png,,,,
,,,,32116,001,2025-10-16_10h41.36.748,HW_LDT_1,2024.2.4,MacIntel,60.24096386,,,,,,,,,,,,,,,,,,,,,,353.7948,353.9931,353.9931,354.493,,,,,,,,,,,,1.7203,1,,,,,,,,,,,,,,m,,,,,,,,,,,,,,,,,59,0,354.4939,356.2265,m,1,1.7203,,[],[],[],[],[],[],[],356.2266,358.2264,358.2264,358.2267,[],[],[],[],[],[],[],,,,358.2267,358.2268,0.137131053,-0.385277816,0,0,0,,0,58,58,92,1,4,word,CATEGORY,cursive,category_c.png,,,,
,,,,32116,001,2025-10-16_10h41.36.748,HW_LDT_1,2024.2.4,MacIntel,60.24096386,,,,,,,,,,,,,,,,,,,,,,358.2282,358.4264,358.4264,358.9264,,,,,,,,,,,,0.8322,1,,,,,,,,,,,,,,z,,,,,,,,,,,,,,,,,60,0,358.9271,359.7604,z,1,0.8322,,[],[],[],[],[],[],[],359.7606,361.7588,361.7589,361.759,[],[],[],[],[],[],[],,,,361.759,361.7592,0.137131053,-0.385277816,0,0,0,,0,59,59,42,1,4,RL,revune,print,revune_p.png,,,,
,,,,32116,001,2025-10-16_10h41.36.748,HW_LDT_1,2024.2.4,MacIntel,60.24096386,,,,,,,,,,,,,,,,,,,,,,361.7605,361.9597,361.9598,362.4594,,,,,,,,,,,,5.1565,1,,,,,,,,,,,,,,z,,,,,,,,,,,,,,,,,61,0,362.46,367.6265,z,1,5.1565,,[],[],[],[],[],[],[],367.6266,369.6254,369.6255,369.6256,[],[],[],[],[],[],[],,,,369.6256,369.6258,0.137131053,-0.385277816,0,0,0,,0,60,60,59,1,4,TL,fornute,cursive,fornute_c.png,,,,
,,,,32116,001,2025-10-16_10h41.36.748,HW_LDT_1,2024.2.4,MacIntel,60.24096386,,,,,,,,,,,,,,,,,,,,,,369.6269,369.8264,369.8265,370.3264,,,,,,,,,,,,0.7208,1,,,,,,,,,,,,,,m,,,,,,,,,,,,,,,,,62,0,370.327,371.0598,m,1,0.7208,,[],[],[],[],[],[],[],371.0599,373.0597,373.0597,373.0599,[],[],[],[],[],[],[],,,,373.06,373.0601,0.137131053,-0.385277816,0,0,0,,0,61,61,154,1,4,word,STORAGE,print,storage_p.png,,,,
,,,,32116,001,2025-10-16_10h41.36.748,HW_LDT_1,2024.2.4,MacIntel,60.24096386,,,,,,,,,,,,,,,,,,,,,,373.0615,373.2598,373.2598,373.7598,,,,,,,,,,,,0.6205,1,,,,,,,,,,,,,,m,,,,,,,,,,,,,,,,,63,0,373.7605,374.3928,m,1,0.6205,,[],[],[],[],[],[],[],374.3928,376.3921,376.3922,376.3924,[],[],[],[],[],[],[],,,,376.3924,376.3925,0.137131053,-0.385277816,0,0,0,,0,62,62,122,1,4,word,MOBILE,print,mobile_p.png,,,,
,,,,32116,001,2025-10-16_10h41.36.748,HW_LDT_1,2024.2.4,MacIntel,60.24096386,,,,,,,,,,,,,,,,,,,,,,376.3939,376.593,376.5931,377.0931,,,,,,,,,,,,0.8472,1,,,,,,,,,,,,,,m,,,,,,,,,,,,,,,,,64,0,377.0938,377.9431,m,1,0.8472,,[],[],[],[],[],[],[],377.9432,379.943,379.943,379.9432,[],[],[],[],[],[],[],,,,379.9433,379.9434,0.137131053,-0.385277816,0,0,0,,0,63,63,126,1,4,word,OPTIMAL,print,optimal_p.png,,,,
,,,,32116,001,2025-10-16_10h41.36.748,HW_LDT_1,2024.2.4,MacIntel,60.24096386,,,,,,,,,,,,,,,,,,,,,,379.9449,380.1431,380.1431,380.6431,,,,,,,,,,,,0.6704,1,,,,,,,,,,,,,,z,,,,,,,,,,,,,,,,,65,0,380.6436,381.3261,z,1,0.6704,,[],[],[],[],[],[],[],381.3262,383.3261,383.3262,383.3263,[],[],[],[],[],[],[],,,,383.3264,383.3265,0.137131053,-0.385277816,0,0,0,,0,64,64,47,1,4,RL,stopave,print,stopave_p.png,,,,
,,,,32116,001,2025-10-16_10h41.36.748,HW_LDT_1,2024.2.4,MacIntel,60.24096386,,,,,,,,,,,,,,,,,,,,,,383.328,383.5261,383.5261,384.0264,,,,,,,,,,,,1.1182,1,,,,,,,,,,,,,,m,,,,,,,,,,,,,,,,,66,1,384.0269,385.1594,m,1,1.1182,,[],[],[],[],[],[],[],385.1595,387.1597,387.1598,388.0096,[],[],[],[],[],[],[],z,0.8391,,388.0097,388.0098,0.137131053,-0.385277816,0,0,0,,0,65,65,96,1,4,word,CONSIDER,cursive,consider_c.png,,,,
,,,,32116,001,2025-10-16_10h41.36.748,HW_LDT_1,2024.2.4,MacIntel,60.24096386,,,,,,,,,,,,,,,,,,,,,,388.0106,388.2094,388.2094,388.7096,,,,,,,,,,,,0.8466,1,,,,,,,,,,,,,,z,,,,,,,,,,,,,,,,,67,0,388.7105,389.5594,z,1,0.8466,,[],[],[],[],[],[],[],389.5595,391.5597,391.5597,391.5599,[],[],[],[],[],[],[],,,,391.5599,391.5602,0.137131053,-0.385277816,0,0,0,,0,66,66,31,1,4,RL,orimipal,print,orimipal_p.png,,,,
,,,,32116,001,2025-10-16_10h41.36.748,HW_LDT_1,2024.2.4,MacIntel,60.24096386,,,,,,,,,,,,,,,,,,,,,,391.5615,391.7596,391.7598,392.2597,,,,,,,,,,,,0.8247,1,,,,,,,,,,,,,,m,,,,,,,,,,,,,,,,,68,1,392.2603,393.0928,m,1,0.8247,,[],[],[],[],[],[],[],393.0928,395.093,395.093,396.3261,[],[],[],[],[],[],[],m,1.2206,,396.3261,396.3261,0.137131053,-0.385277816,0,0,0,,0,67,67,111,1,4,word,INDICATE,print,indicate_p.png,,,,
,,,,32116,001,2025-10-16_10h41.36.748,HW_LDT_1,2024.2.4,MacIntel,60.24096386,,,,,,,,,,,,,,,,,,,,,,396.3268,396.5263,396.5264,397.0263,,,,,,,,,,,,1.6144,1,,,,,,,,,,,,,,m,,,,,,,,,,,,,,,,,69,0,397.0268,398.6431,m,1,1.6144,,[],[],[],[],[],[],[],398.6432,400.6429,400.643,400.6431,[],[],[],[],[],[],[],,,,400.6432,400.6433,0.137131053,-0.385277816,0,0,0,,0,68,68,134,1,4,word,QUALIFY,print,qualify_p.png,,,,
,,,,32116,001,2025-10-16_10h41.36.748,HW_LDT_1,2024.2.4,MacIntel,60.24096386,,,,,,,,,,,,,,,,,,,,,,400.6447,400.8429,400.843,401.3428,,,,,,,,,,,,12.4215,1,,,,,,,,,,,,,,z,,,,,,,,,,,,,,,,,70,0,401.343,413.7765,z,1,12.4215,,[],[],[],[],[],[],[],413.7766,415.7763,415.7764,415.7764,[],[],[],[],[],[],[],,,,415.7765,415.7766,0.137131053,-0.385277816,0,0,0,,0,69,69,19,1,4,RL,elacodate,cursive,elacodate_c.png,,,,
,,,,32116,001,2025-10-16_10h41.36.748,HW_LDT_1,2024.2.4,MacIntel,60.24096386,,,,,,,,,,,,,,,,,,,,,,415.7777,415.9763,415.9763,416.4759,,,,,,,,,,,,1.2711,1,,,,,,,,,,,,,,z,,,,,,,,,,,,,,,,,71,0,416.4763,417.7594,z,1,1.2711,,[],[],[],[],[],[],[],417.7594,419.7597,419.7597,419.7599,[],[],[],[],[],[],[],,,,419.7599,419.76,0.137131053,-0.385277816,0,0,0,,0,70,70,2,1,4,RL,asiral,cursive,asiral_c.png,,,,
,,,,32116,001,2025-10-16_10h41.36.748,HW_LDT_1,2024.2.4,MacIntel,60.24096386,,,,,,,,,,,,,,,,,,,,,,419.7613,419.9597,419.9597,420.4596,,,,,,,,,,,,1.3214,1,,,,,,,,,,,,,,z,,,,,,,,,,,,,,,,,72,1,420.4602,421.7926,z,1,1.3214,,[],[],[],[],[],[],[],421.7927,423.7929,423.7929,426.076,[],[],[],[],[],[],[],z,2.2701,,426.0761,426.0761,0.137131053,-0.385277816,0,0,0,,0,71,71,52,1,4,TL,cagetory,cursive,cagetory_c.png,,,,
,,,,32116,001,2025-10-16_10h41.36.748,HW_LDT_1,2024.2.4,MacIntel,60.24096386,,,,,,,,,,,,,,,,,,,,,,426.0768,426.276,426.276,426.7763,,,,,,,,,,,,0.9959,1,,,,,,,,,,,,,,m,,,,,,,,,,,,,,,,,73,0,426.7768,427.7763,m,1,0.9959,,[],[],[],[],[],[],[],427.7764,429.7762,429.7763,429.7765,[],[],[],[],[],[],[],,,,429.7766,429.7767,0.137131053,-0.385277816,0,0,0,,0,72,72,145,1,4,word,RESUME,print,resume_p.png,,,,
,,,,32116,001,2025-10-16_10h41.36.748,HW_LDT_1,2024.2.4,MacIntel,60.24096386,,,,,,,,,,,,,,,,,,,,,,429.7779,429.9762,429.9763,430.4763,,,,,,,,,,,,1.0454,1,,,,,,,,,,,,,,z,,,,,,,,,,,,,,,,,74,0,430.4769,431.5263,z,1,1.0454,,[],[],[],[],[],[],[],431.5264,433.5263,433.5263,433.5265,[],[],[],[],[],[],[],,,,433.5266,433.5267,0.137131053,-0.385277816,0,0,0,,0,73,73,73,1,4,TL,regilion,print,regilion_p.png,,,,
,,,,32116,001,2025-10-16_10h41.36.748,HW_LDT_1,2024.2.4,MacIntel,60.24096386,,,,,,,,,,,,,,,,,,,,,,433.5281,433.7262,433.7262,434.2262,,,,,,,,,,,,0.8205,1,,,,,,,,,,,,,,z,,,,,,,,,,,,,,,,,75,0,434.2267,435.0596,z,1,0.8205,,[],[],[],[],[],[],[],435.0596,437.0595,437.0595,437.0598,[],[],[],[],[],[],[],,,,437.0598,437.0599,0.137131053,-0.385277816,0,0,0,,0,74,74,6,1,4,RL,caleberia,cursive,caleberia_c.png,,,,
,,,,32116,001,2025-10-16_10h41.36.748,HW_LDT_1,2024.2.4,MacIntel,60.24096386,,,,,,,,,,,,,,,,,,,,,,437.0613,437.2596,437.2596,437.7595,,,,,,,,,,,,1.1231,1,,,,,,,,,,,,,,m,,,,,,,,,,,,,,,,,76,0,437.7601,438.893,m,1,1.1231,,[],[],[],[],[],[],[],438.8931,440.8929,440.893,440.8931,[],[],[],[],[],[],[],,,,440.8932,440.8933,0.137131053,-0.385277816,0,0,0,,0,75,75,81,1,4,word,ADVISORY,cursive,advisory_c.png,,,,
,,,,32116,001,2025-10-16_10h41.36.748,HW_LDT_1,2024.2.4,MacIntel,60.24096386,,,,,,,,,,,,,,,,,,,,,,440.8946,441.0929,441.0929,441.593,,,,,,,,,,,,1.0229,1,,,,,,,,,,,,,,z,,,,,,,,,,,,,,,,,77,0,441.5937,442.626,z,1,1.0229,,[],[],[],[],[],[],[],442.626,444.6262,444.6263,444.6265,[],[],[],[],[],[],[],,,,444.6265,444.6266,0.137131053,-0.385277816,0,0,0,,0,76,76,44,1,4,RL,senvilent,print,senvilent_p.png,,,,
,,,,32116,001,2025-10-16_10h41.36.748,HW_LDT_1,2024.2.4,MacIntel,60.24096386,,,,,,,,,,,,,,,,,,,,,,444.6278,444.826,444.826,445.3262,,,,,,,,,,,,1.3853,1,,,,,,,,,,,,,,m,,,,,,,,,,,,,,,,,78,1,445.3272,446.726,m,1,1.3853,,[],[],[],[],[],[],[],446.7261,448.7254,448.7255,449.5763,[],[],[],[],[],[],[],z,0.8411,,449.5765,449.5767,0.137131053,-0.385277816,0,0,0,,0,77,77,91,1,4,word,CARDINAL,cursive,cardinal_c.png,,,,
,,,,32116,001,2025-10-16_10h41.36.748,HW_LDT_1,2024.2.4,MacIntel,60.24096386,,,,,,,,,,,,,,,,,,,,,,449.5784,449.7759,449.776,450.2762,,,,,,,,,,,,2.0654,1,,,,,,,,,,,,,,z,,,,,,,,,,,,,,,,,79,0,450.2768,452.3433,z,1,2.0654,,[],[],[],[],[],[],[],452.3434,454.3429,454.343,454.3432,[],[],[],[],[],[],[],,,,454.3432,454.3433,0.137131053,-0.385277816,0,0,0,,0,78,78,78,1,4,TL,stragety,print,stragety_p.png,,,,
,,,,32116,001,2025-10-16_10h41.36.748,HW_LDT_1,2024.2.4,MacIntel,60.24096386,,,,,,,,,,,,,,,,,,,,,,454.3445,454.5429,454.543,455.0429,,,,,,,,,,,,0.714,1,,,,,,,,,,,,,,m,,,,,,,,,,,,,,,,,80,0,455.0435,455.7596,m,1,0.714,,[],[],[],[],[],[],[],455.7596,457.7596,457.7596,457.7598,[],[],[],[],[],[],[],,,,457.7599,460.8428,0.137131053,-0.385277816,0,0,0,space,0,79,79,125,1,4,word,OPERATOR,print,operator_p.png,3.0558,,,
,,,,32116,001,2025-10-16_10h41.36.748,HW_LDT_1,2024.2.4,MacIntel,60.24096386,,,,,,,,,,,,,,,,,,,,,,460.8434,461.0429,461.043,461.5427,,,,,,,,,,,,1.8213,1,,,,,,,,,,,,,,z,,,,,,,,,,,,,,,,,81,0,461.5431,463.3763,z,1,1.8213,,[],[],[],[],[],[],[],463.3763,465.3762,465.3763,465.3765,[],[],[],[],[],[],[],,,,465.3765,465.3767,0.137131053,-0.385277816,0,0,0,,0,80,80,8,1,4,RL,casagity,cursive,casagity_c.png,,,,
,,,,32116,001,2025-10-16_10h41.36.748,HW_LDT_1,2024.2.4,MacIntel,60.24096386,,,,,,,,,,,,,,,,,,,,,,465.378,465.5762,465.5763,466.0761,,,,,,,,,,,,1.0071,1,,,,,,,,,,,,,,z,,,,,,,,,,,,,,,,,82,0,466.0767,467.0923,z,1,1.0071,,[],[],[],[],[],[],[],467.0923,469.0928,469.0928,469.0931,[],[],[],[],[],[],[],,,,469.0931,469.0932,0.137131053,-0.385277816,0,0,0,,0,81,81,76,1,4,TL,setanor,print,setanor_p.png,,,,
,,,,32116,001,2025-10-16_10h41.36.748,HW_LDT_1,2024.2.4,MacIntel,60.24096386,,,,,,,,,,,,,,,,,,,,,,469.0946,469.2929,469.2929,469.7928,,,,,,,,,,,,1.987,1,,,,,,,,,,,,,,m,,,,,,,,,,,,,,,,,83,0,469.7935,471.7925,m,1,1.987,,[],[],[],[],[],[],[],471.7926,473.792,473.7921,473.7924,[],[],[],[],[],[],[],,,,473.7924,473.7925,0.137131053,-0.385277816,0,0,0,,0,82,82,106,1,4,word,ELABORATE,cursive,elaborate_c.png,,,,
,,,,32116,001,2025-10-16_10h41.36.748,HW_LDT_1,2024.2.4,MacIntel,60.24096386,,,,,,,,,,,,,,,,,,,,,,473.7939,473.9928,473.9929,474.4929,,,,,,,,,,,,2.441,1,,,,,,,,,,,,,,z,,,,,,,,,,,,,,,,,84,0,474.4934,476.9424,z,1,2.441,,[],[],[],[],[],[],[],476.9425,478.9428,478.9429,478.943,[],[],[],[],[],[],[],,,,478.9431,478.9433,0.137131053,-0.385277816,0,0,0,,0,83,83,56,1,4,TL,donimant,cursive,donimant_c.png,,,,
,,,,32116,001,2025-10-16_10h41.36.748,HW_LDT_1,2024.2.4,MacIntel,60.24096386,,,,,,,,,,,,,,,,,,,,,,478.9446,479.1429,479.143,479.6426,,,,,,,,,,,,1.3738,1,,,,,,,,,,,,,,m,,,,,,,,,,,,,,,,,85,0,479.6433,481.0262,m,1,1.3738,,[],[],[],[],[],[],[],481.0263,483.0255,483.0255,483.0258,[],[],[],[],[],[],[],,,,483.0258,483.0259,0.137131053,-0.385277816,0,0,0,,0,84,84,130,1,4,word,POLICY,cursive,policy_c.png,,,,
,,,,32116,001,2025-10-16_10h41.36.748,HW_LDT_1,2024.2.4,MacIntel,60.24096386,,,,,,,,,,,,,,,,,,,,,,483.0273,483.2262,483.2263,483.7262,,,,,,,,,,,,1.1976,1,,,,,,,,,,,,,,m,,,,,,,,,,,,,,,,,86,1,483.7267,484.9263,m,1,1.1976,,[],[],[],[],[],[],[],484.9264,486.9262,486.9262,489.0761,[],[],[],[],[],[],[],m,2.1482,,489.0762,489.0763,0.137131053,-0.385277816,0,0,0,,0,85,85,93,1,4,word,CEREMONY,print,ceremony_p.png,,,,
,,,,32116,001,2025-10-16_10h41.36.748,HW_LDT_1,2024.2.4,MacIntel,60.24096386,,,,,,,,,,,,,,,,,,,,,,489.0774,489.2762,489.2763,489.7761,,,,,,,,,,,,1.8543,0,,,,,,,,,,,,,,z,,,,,,,,,,,,,,,,,87,1,489.7766,491.6428,m,0,1.8543,,[],[],[],[],[],[],[],491.643,493.6428,493.643,499.126,[],[],[],[],[],[],[],m,5.4715,,499.1261,499.1262,0.137131053,-0.385277816,0,0,0,,0,86,86,77,1,4,TL,spemicen,cursive,spemicen_c.png,,,,
,,,,32116,001,2025-10-16_10h41.36.748,HW_LDT_1,2024.2.4,MacIntel,60.24096386,,,,,,,,,,,,,,,,,,,,,,499.128,499.3258,499.3258,499.8258,,,,,,,,,,,,4.8042,1,,,,,,,,,,,,,,z,,,,,,,,,,,,,,,,,88,1,499.8264,504.6428,z,1,4.8042,,[],[],[],[],[],[],[],504.6428,506.643,506.6433,517.0926,[],[],[],[],[],[],[],m,10.4371,,517.0926,517.0928,0.284182875,-0.344549102,0,0,0,,0,87,87,64,1,4,TL,moredate,print,moredate_p.png,,,,
,,,,32116,001,2025-10-16_10h41.36.748,HW_LDT_1,2024.2.4,MacIntel,60.24096386,,,,,,,,,,,,,,,,,,,,,,517.0947,517.2928,517.2928,517.7928,,,,,,,,,,,,3.0684,1,,,,,,,,,,,,,,m,,,,,,,,,,,,,,,,,89,0,517.7938,520.8758,m,1,3.0684,,[],[],[],[],[],[],[],520.8759,522.876,522.8761,522.8762,[],[],[],[],[],[],[],,,,522.8762,522.8763,0.284182875,-0.344549102,0,0,0,,0,88,88,116,1,4,word,MARGINAL,cursive,marginal_c.png,,,,
,,,,32116,001,2025-10-16_10h41.36.748,HW_LDT_1,2024.2.4,MacIntel,60.24096386,,,,,,,,,,,,,,,,,,,,,,522.8772,523.0763,523.0764,523.5762,,,,,,,,,,,,1.1206,1,,,,,,,,,,,,,,m,,,,,,,,,,,,,,,,,90,0,523.5767,524.7095,m,1,1.1206,,[],[],[],[],[],[],[],524.7096,526.7095,526.7095,526.7099,[],[],[],[],[],[],[],,,,526.7099,526.7101,0.284182875,-0.344549102,0,0,0,,0,89,89,153,1,4,word,STOLEN,cursive,stolen_c.png,,,,
,,,,32116,001,2025-10-16_10h41.36.748,HW_LDT_1,2024.2.4,MacIntel,60.24096386,,,,,,,,,,,,,,,,,,,,,,526.7113,526.9095,526.9095,527.4095,,,,,,,,,,,,1.0216,1,,,,,,,,,,,,,,z,,,,,,,,,,,,,,,,,91,0,527.4101,528.4425,z,1,1.0216,,[],[],[],[],[],[],[],528.4425,530.4428,530.4428,530.443,[],[],[],[],[],[],[],,,,530.4431,530.4432,0.284182875,-0.344549102,0,0,0,,0,90,90,58,1,4,TL,edivent,print,edivent_p.png,,,,
,,,,32116,001,2025-10-16_10h41.36.748,HW_LDT_1,2024.2.4,MacIntel,60.24096386,,,,,,,,,,,,,,,,,,,,,,530.4445,530.6423,530.6424,531.1427,,,,,,,,,,,,2.0027,1,,,,,,,,,,,,,,m,,,,,,,,,,,,,,,,,92,0,531.1435,533.1592,m,1,2.0027,,[],[],[],[],[],[],[],533.1592,535.1592,535.1593,535.1594,[],[],[],[],[],[],[],,,,535.1594,535.1595,0.284182875,-0.344549102,0,0,0,,0,91,91,128,1,4,word,PACIFIC,cursive,pacific_c.png,,,,
,,,,32116,001,2025-10-16_10h41.36.748,HW_LDT_1,2024.2.4,MacIntel,60.24096386,,,,,,,,,,,,,,,,,,,,,,535.1608,535.3593,535.3593,535.8594,,,,,,,,,,,,1.5656,0,,,,,,,,,,,,,,m,,,,,,,,,,,,,,,,,93,0,535.8601,537.4267,z,0,1.5656,,[],[],[],[],[],[],[],537.4268,539.4261,539.4261,539.4263,[],[],[],[],[],[],[],,,,539.4264,539.4266,0.284182875,-0.344549102,0,0,0,,0,92,92,108,1,4,word,FORTUNE,cursive,fortune_c.png,,,,
,,,,32116,001,2025-10-16_10h41.36.748,HW_LDT_1,2024.2.4,MacIntel,60.24096386,,,,,,,,,,,,,,,,,,,,,,539.4279,539.626,539.626,540.125,,,,,,,,,,,,2.1713,1,,,,,,,,,,,,,,z,,,,,,,,,,,,,,,,,94,0,540.1255,542.3085,z,1,2.1713,,[],[],[],[],[],[],[],542.3086,544.3094,544.3094,544.3097,[],[],[],[],[],[],[],,,,544.3097,544.3099,0.284182875,-0.344549102,0,0,0,,0,93,93,41,1,4,RL,rebicent,cursive,rebicent_c.png,,,,
,,,,32116,001,2025-10-16_10h41.36.748,HW_LDT_1,2024.2.4,MacIntel,60.24096386,,,,,,,,,,,,,,,,,,,,,,544.3111,544.5083,544.5084,545.0094,,,,,,,,,,,,3.7803,1,,,,,,,,,,,,,,z,,,,,,,,,,,,,,,,,95,1,545.01,548.7925,z,1,3.7803,,[],[],[],[],[],[],[],548.7925,550.7916,550.7918,551.9262,[],[],[],[],[],[],[],z,1.1267,,551.9262,551.9264,0.284182875,-0.344549102,0,0,0,,0,94,94,14,1,4,RL,delahe,cursive,delahe_c.png,,,,
,,,,32116,001,2025-10-16_10h41.36.748,HW_LDT_1,2024.2.4,MacIntel,60.24096386,,,,,,,,,,,,,,,,,,,,,,551.9276,552.1261,552.1261,552.6261,,,,,,,,,,,,1.8707,1,,,,,,,,,,,,,,z,,,,,,,,,,,,,,,,,96,1,552.6266,554.5085,z,1,1.8707,,[],[],[],[],[],[],[],554.5085,556.5093,556.5094,558.0421,[],[],[],[],[],[],[],z,1.532,,558.0422,558.0423,0.284182875,-0.344549102,0,0,0,,0,95,95,33,1,4,RL,pamest,cursive,pamest_c.png,,,,
,,,,32116,001,2025-10-16_10h41.36.748,HW_LDT_1,2024.2.4,MacIntel,60.24096386,,,,,,,,,,,,,,,,,,,,,,558.0436,558.2427,558.2428,558.7427,,,,,,,,,,,,1.2214,1,,,,,,,,,,,,,,z,,,,,,,,,,,,,,,,,97,0,558.7433,559.976,z,1,1.2214,,[],[],[],[],[],[],[],559.9761,561.9748,561.9748,561.9749,[],[],[],[],[],[],[],,,,561.9749,561.975,0.284182875,-0.344549102,0,0,0,,0,96,96,27,1,4,RL,menowy,print,menowy_p.png,,,,
,,,,32116,001,2025-10-16_10h41.36.748,HW_LDT_1,2024.2.4,MacIntel,60.24096386,,,,,,,,,,,,,,,,,,,,,,561.9756,562.1761,562.1762,562.6762,,,,,,,,,,,,2.1365,1,,,,,,,,,,,,,,z,,,,,,,,,,,,,,,,,98,0,562.6768,564.8252,z,1,2.1365,,[],[],[],[],[],[],[],564.8252,566.8251,566.8252,566.8255,[],[],[],[],[],[],[],,,,566.8255,566.8257,0.284182875,-0.344549102,0,0,0,,0,97,97,51,1,4,TL,adsivory,cursive,adsivory_c.png,,,,
,,,,32116,001,2025-10-16_10h41.36.748,HW_LDT_1,2024.2.4,MacIntel,60.24096386,,,,,,,,,,,,,,,,,,,,,,566.8272,567.0252,567.0252,567.5259,,,,,,,,,,,,1.2362,1,,,,,,,,,,,,,,m,,,,,,,,,,,,,,,,,99,0,567.5267,568.7758,m,1,1.2362,,[],[],[],[],[],[],[],568.7758,570.776,570.7761,570.7763,[],[],[],[],[],[],[],,,,570.7763,570.7764,0.284182875,-0.344549102,0,0,0,,0,98,98,97,1,4,word,COVERAGE,cursive,coverage_c.png,,,,
,,,,32116,001,2025-10-16_10h41.36.748,HW_LDT_1,2024.2.4,MacIntel,60.24096386,,,,,,,,,,,,,,,,,,,,,,570.7777,570.976,570.976,571.476,,,,,,,,,,,,0.8289,1,,,,,,,,,,,,,,m,,,,,,,,,,,,,,,,,100,1,571.4765,572.3094,m,1,0.8289,,[],[],[],[],[],[],[],572.3094,574.3093,574.3094,575.7258,[],[],[],[],[],[],[],m,1.4075,,575.7259,575.7259,0.284182875,-0.344549102,0,0,0,,0,99,99,149,1,4,word,SENATOR,print,senator_p.png,,,,
,,,,32116,001,2025-10-16_10h41.36.748,HW_LDT_1,2024.2.4,MacIntel,60.24096386,,,,,,,,,,,,,,,,,,,,,,575.7265,575.9251,575.9252,576.4261,,,,,,,,,,,,0.7686,1,,,,,,,,,,,,,,z,,,,,,,,,,,,,,,,,101,1,576.4266,577.209,z,1,0.7686,,[],[],[],[],[],[],[],577.2091,579.2093,579.2093,580.5581,[],[],[],[],[],[],[],m,1.3405,,580.5582,580.5582,0.284182875,-0.344549102,0,0,0,,0,100,100,54,1,4,TL,codemy,print,codemy_p.png,,,,
,,,,32116,001,2025-10-16_10h41.36.748,HW_LDT_1,2024.2.4,MacIntel,60.24096386,,,,,,,,,,,,,,,,,,,,,,580.5588,580.7593,580.7593,581.2585,,,,,,,,,,,,1.0886,1,,,,,,,,,,,,,,z,,,,,,,,,,,,,,,,,102,0,581.259,582.3585,z,1,1.0886,,[],[],[],[],[],[],[],582.3586,584.3593,584.3594,584.3595,[],[],[],[],[],[],[],,,,584.3596,584.3597,0.284182875,-0.344549102,0,0,0,,0,101,101,29,1,4,RL,motide,print,motide_p.png,,,,
,,,,32116,001,2025-10-16_10h41.36.748,HW_LDT_1,2024.2.4,MacIntel,60.24096386,,,,,,,,,,,,,,,,,,,,,,584.361,584.5593,584.5593,585.0593,,,,,,,,,,,,0.7853,1,,,,,,,,,,,,,,m,,,,,,,,,,,,,,,,,103,0,585.0599,585.859,m,1,0.7853,,[],[],[],[],[],[],[],585.859,587.8584,587.8585,587.8587,[],[],[],[],[],[],[],,,,587.8587,587.8588,0.284182875,-0.344549102,0,0,0,,0,102,102,132,1,4,word,PROPOSAL,print,proposal_p.png,,,,
,,,,32116,001,2025-10-16_10h41.36.748,HW_LDT_1,2024.2.4,MacIntel,60.24096386,,,,,,,,,,,,,,,,,,,,,,587.8602,588.059,588.059,588.5583,,,,,,,,,,,,0.7791,1,,,,,,,,,,,,,,m,,,,,,,,,,,,,,,,,104,0,588.559,589.3423,m,1,0.7791,,[],[],[],[],[],[],[],589.3424,591.3426,591.3426,591.3428,[],[],[],[],[],[],[],,,,591.3429,591.343,0.284182875,-0.344549102,0,0,0,,0,103,103,146,1,4,word,RETIRE,print,retire_p.png,,,,
,,,,32116,001,2025-10-16_10h41.36.748,HW_LDT_1,2024.2.4,MacIntel,60.24096386,,,,,,,,,,,,,,,,,,,,,,591.3442,591.5426,591.5426,592.0426,,,,,,,,,,,,1.6401,1,,,,,,,,,,,,,,z,,,,,,,,,,,,,,,,,105,0,592.0433,593.6926,z,1,1.6401,,[],[],[],[],[],[],[],593.6927,595.6917,595.6917,595.6918,[],[],[],[],[],[],[],,,,595.6919,595.692,0.284182875,-0.344549102,0,0,0,,0,104,104,16,1,4,RL,desifate,cursive,desifate_c.png,,,,
,,,,32116,001,2025-10-16_10h41.36.748,HW_LDT_1,2024.2.4,MacIntel,60.24096386,,,,,,,,,,,,,,,,,,,,,,595.6931,595.8917,595.8918,596.3926,,,,,,,,,,,,1.1976,1,,,,,,,,,,,,,,m,,,,,,,,,,,,,,,,,106,0,596.3931,597.592,m,1,1.1976,,[],[],[],[],[],[],[],597.592,599.5925,599.5925,599.5927,[],[],[],[],[],[],[],,,,599.5927,599.5928,0.284182875,-0.344549102,0,0,0,,0,105,105,155,1,4,word,STRATEGY,print,strategy_p.png,,,,
,,,,32116,001,2025-10-16_10h41.36.748,HW_LDT_1,2024.2.4,MacIntel,60.24096386,,,,,,,,,,,,,,,,,,,,,,599.5939,599.7916,599.7916,600.2926,,,,,,,,,,,,1.6198,1,,,,,,,,,,,,,,m,,,,,,,,,,,,,,,,,107,1,600.2932,601.9257,m,1,1.6198,,[],[],[],[],[],[],[],601.9257,603.926,603.926,604.8928,[],[],[],[],[],[],[],z,0.9659,,604.8928,604.8929,0.284182875,-0.344549102,0,0,0,,0,106,106,98,1,4,word,CRIMINAL,cursive,criminal_c.png,,,,
,,,,32116,001,2025-10-16_10h41.36.748,HW_LDT_1,2024.2.4,MacIntel,60.24096386,,,,,,,,,,,,,,,,,,,,,,604.894,605.0926,605.0926,605.5927,,,,,,,,,,,,0.9129,1,,,,,,,,,,,,,,m,,,,,,,,,,,,,,,,,108,0,605.5935,606.509,m,1,0.9129,,[],[],[],[],[],[],[],606.509,608.5093,608.5093,608.5094,[],[],[],[],[],[],[],,,,608.5095,608.5097,0.284182875,-0.344549102,0,0,0,,0,107,107,123,1,4,word,MODERATE,print,moderate_p.png,,,,
,,,,32116,001,2025-10-16_10h41.36.748,HW_LDT_1,2024.2.4,MacIntel,60.24096386,,,,,,,,,,,,,,,,,,,,,,608.5109,608.7092,608.7092,609.2092,,,,,,,,,,,,0.7154,1,,,,,,,,,,,,,,m,,,,,,,,,,,,,,,,,109,0,609.2098,609.9262,m,1,0.7154,,[],[],[],[],[],[],[],609.9263,611.9259,611.9259,611.9261,[],[],[],[],[],[],[],,,,611.9262,611.9263,0.284182875,-0.344549102,0,0,0,,0,108,108,105,1,4,word,EDITOR,print,editor_p.png,,,,
,,,,32116,001,2025-10-16_10h41.36.748,HW_LDT_1,2024.2.4,MacIntel,60.24096386,,,,,,,,,,,,,,,,,,,,,,611.9275,612.1259,612.126,612.6259,,,,,,,,,,,,2.0261,1,,,,,,,,,,,,,,z,,,,,,,,,,,,,,,,,110,0,612.6265,614.6588,z,1,2.0261,,[],[],[],[],[],[],[],614.659,616.6592,616.6593,616.6595,[],[],[],[],[],[],[],,,,616.6595,616.6597,0.284182875,-0.344549102,0,0,0,,0,109,109,22,1,4,RL,linedal,cursive,linedal_c.png,,,,
,,,,32116,001,2025-10-16_10h41.36.748,HW_LDT_1,2024.2.4,MacIntel,60.24096386,,,,,,,,,,,,,,,,,,,,,,616.6608,616.8584,616.8584,617.3592,,,,,,,,,,,,3.2538,0,,,,,,,,,,,,,,z,,,,,,,,,,,,,,,,,111,0,617.3599,620.6261,m,0,3.2538,,[],[],[],[],[],[],[],620.6261,622.6259,622.6259,622.6262,[],[],[],[],[],[],[],,,,622.6263,622.6263,0.284182875,-0.344549102,0,0,0,,0,110,110,61,1,4,TL,lotace,cursive,lotace_c.png,,,,
,,,,32116,001,2025-10-16_10h41.36.748,HW_LDT_1,2024.2.4,MacIntel,60.24096386,,,,,,,,,,,,,,,,,,,,,,622.6277,622.8259,622.826,623.3258,,,,,,,,,,,,1.7124,0,,,,,,,,,,,,,,m,,,,,,,,,,,,,,,,,112,0,623.3266,625.0423,z,0,1.7124,,[],[],[],[],[],[],[],625.0424,627.0418,627.0418,627.042,[],[],[],[],[],[],[],,,,627.042,627.0421,0.284182875,-0.344549102,0,0,0,,0,111,111,87,1,4,word,CAFETERIA,cursive,cafeteria_c.png,,,,
,,,,32116,001,2025-10-16_10h41.36.748,HW_LDT_1,2024.2.4,MacIntel,60.24096386,,,,,,,,,,,,,,,,,,,,,,627.0433,627.2418,627.2418,627.7415,,,,,,,,,,,,0.8654,1,,,,,,,,,,,,,,m,,,,,,,,,,,,,,,,,113,0,627.7421,628.6092,m,1,0.8654,,[],[],[],[],[],[],[],628.6093,630.6086,630.6088,630.609,[],[],[],[],[],[],[],,,,630.6091,630.6092,0.284182875,-0.344549102,0,0,0,,0,112,112,150,1,4,word,SENTIMENT,print,sentiment_p.png,,,,
,,,,32116,001,2025-10-16_10h41.36.748,HW_LDT_1,2024.2.4,MacIntel,60.24096386,,,,,,,,,,,,,,,,,,,,,,630.6106,630.8092,630.8093,631.3092,,,,,,,,,,,,0.6868,1,,,,,,,,,,,,,,m,,,,,,,,,,,,,,,,,114,0,631.31,632.0089,m,1,0.6868,,[],[],[],[],[],[],[],632.009,634.0093,634.0094,634.0095,[],[],[],[],[],[],[],,,,634.0096,634.0097,0.284182875,-0.344549102,0,0,0,,0,113,113,140,1,4,word,RELATIVE,print,relative_p.png,,,,
,,,,32116,001,2025-10-16_10h41.36.748,HW_LDT_1,2024.2.4,MacIntel,60.24096386,,,,,,,,,,,,,,,,,,,,,,634.0109,634.2092,634.2092,634.7091,,,,,,,,,,,,1.6477,1,,,,,,,,,,,,,,m,,,,,,,,,,,,,,,,,115,0,634.7098,636.3592,m,1,1.6477,,[],[],[],[],[],[],[],636.3593,638.3592,638.3592,638.3594,[],[],[],[],[],[],[],,,,638.3595,638.3597,0.284182875,-0.344549102,0,0,0,,0,114,114,83,1,4,word,ANIMAL,cursive,animal_c.png,,,,
,,,,32116,001,2025-10-16_10h41.36.748,HW_LDT_1,2024.2.4,MacIntel,60.24096386,,,,,,,,,,,,,,,,,,,,,,638.3611,638.5592,638.5592,639.0588,,,,,,,,,,,,1.3546,1,,,,,,,,,,,,,,z,,,,,,,,,,,,,,,,,116,0,639.0594,640.4259,z,1,1.3546,,[],[],[],[],[],[],[],640.426,642.4258,642.4259,642.4261,[],[],[],[],[],[],[],,,,642.4262,642.4263,0.284182875,-0.344549102,0,0,0,,0,115,115,68,1,4,TL,prosopal,print,prosopal_p.png,,,,
,,,,32116,001,2025-10-16_10h41.36.748,HW_LDT_1,2024.2.4,MacIntel,60.24096386,,,,,,,,,,,,,,,,,,,,,,642.4286,642.6259,642.6259,643.1252,,,,,,,,,,,,0.7891,1,,,,,,,,,,,,,,z,,,,,,,,,,,,,,,,,117,0,643.1258,643.9256,z,1,0.7891,,[],[],[],[],[],[],[],643.9256,645.9258,645.9259,645.9261,[],[],[],[],[],[],[],,,,645.9262,645.9263,0.284182875,-0.344549102,0,0,0,,0,116,116,63,1,4,TL,miskate,print,miskate_p.png,,,,
,,,,32116,001,2025-10-16_10h41.36.748,HW_LDT_1,2024.2.4,MacIntel,60.24096386,,,,,,,,,,,,,,,,,,,,,,645.9277,646.1259,646.1259,646.6259,,,,,,,,,,,,1.2883,1,,,,,,,,,,,,,,z,,,,,,,,,,,,,,,,,118,0,646.6265,647.9258,z,1,1.2883,,[],[],[],[],[],[],[],647.9259,649.9258,649.9258,649.926,[],[],[],[],[],[],[],,,,649.9261,649.9262,0.284182875,-0.344549102,0,0,0,,0,117,117,53,1,4,TL,cemerony,print,cemerony_p.png,,,,
,,,,32116,001,2025-10-16_10h41.36.748,HW_LDT_1,2024.2.4,MacIntel,60.24096386,,,,,,,,,,,,,,,,,,,,,,649.9274,650.1255,650.1255,650.6258,,,,,,,,,,,,0.6741,1,,,,,,,,,,,,,,z,,,,,,,,,,,,,,,,,119,0,650.6263,651.3092,z,1,0.6741,,[],[],[],[],[],[],[],651.3092,653.3091,653.3092,653.3093,[],[],[],[],[],[],[],,,,653.3093,653.3095,0.284182875,-0.344549102,0,0,0,,0,118,118,38,1,4,RL,refakive,print,refakive_p.png,,,,
,,,,32116,001,2025-10-16_10h41.36.748,HW_LDT_1,2024.2.4,MacIntel,60.24096386,,,,,,,,,,,,,,,,,,,,,,653.3107,653.5091,653.5092,654.0092,,,,,,,,,,,,1.4208,1,,,,,,,,,,,,,,m,,,,,,,,,,,,,,,,,120,0,654.0098,655.4425,m,1,1.4208,,[],[],[],[],[],[],[],655.4427,657.4422,657.4422,657.4425,[],[],[],[],[],[],[],,,,657.4425,657.4426,0.284182875,-0.344549102,0,0,0,,0,119,119,99,1,4,word,DEBATE,cursive,debate_c.png,,,,
,,,,32116,001,2025-10-16_10h41.36.748,HW_LDT_1,2024.2.4,MacIntel,60.24096386,,,,,,,,,,,,,,,,,,,,,,657.444,657.6425,657.6426,658.1425,,,,,,,,,,,,1.5541,0,,,,,,,,,,,,,,z,,,,,,,,,,,,,,,,,121,0,658.1433,659.7089,m,0,1.5541,,[],[],[],[],[],[],[],659.709,661.7092,661.7092,661.7094,[],[],[],[],[],[],[],,,,661.7095,661.7097,0.284182875,-0.344549102,0,0,0,,0,120,120,55,1,4,TL,corevage,cursive,corevage_c.png,,,,
,,,,32116,001,2025-10-16_10h41.36.748,HW_LDT_1,2024.2.4,MacIntel,60.24096386,,,,,,,,,,,,,,,,,,,,,,661.7109,661.9091,661.9092,662.409,,,,,,,,,,,,4.1742,1,,,,,,,,,,,,,,z,,,,,,,,,,,,,,,,,122,0,662.4096,666.5919,z,1,4.1742,,[],[],[],[],[],[],[],666.592,668.5925,668.5926,668.5928,[],[],[],[],[],[],[],,,,668.5928,668.593,0.284182875,-0.344549102,0,0,0,,0,121,121,32,1,4,RL,patisic,cursive,patisic_c.png,,,,
,,,,32116,001,2025-10-16_10h41.36.748,HW_LDT_1,2024.2.4,MacIntel,60.24096386,,,,,,,,,,,,,,,,,,,,,,668.5943,668.7917,668.7917,669.2925,,,,,,,,,,,,0.7876,1,,,,,,,,,,,,,,m,,,,,,,,,,,,,,,,,123,0,669.2933,670.0926,m,1,0.7876,,[],[],[],[],[],[],[],670.0928,672.0925,672.0925,672.0926,[],[],[],[],[],[],[],,,,672.0927,672.0928,0.284182875,-0.344549102,0,0,0,,0,122,122,110,1,4,word,HERITAGE,print,heritage_p.png,,,,
,,,,32116,001,2025-10-16_10h41.36.748,HW_LDT_1,2024.2.4,MacIntel,60.24096386,,,,,,,,,,,,,,,,,,,,,,672.0941,672.2925,672.2926,672.7925,,,,,,,,,,,,0.6967,1,,,,,,,,,,,,,,m,,,,,,,,,,,,,,,,,124,0,672.7932,673.4921,m,1,0.6967,,[],[],[],[],[],[],[],673.4921,675.4925,675.4926,675.4928,[],[],[],[],[],[],[],,,,675.4929,675.4931,0.284182875,-0.344549102,0,0,0,,0,123,123,152,1,4,word,SPECIMEN,cursive,specimen_c.png,,,,
,,,,32116,001,2025-10-16_10h41.36.748,HW_LDT_1,2024.2.4,MacIntel,60.24096386,,,,,,,,,,,,,,,,,,,,,,675.4944,675.6924,675.6924,676.1924,,,,,,,,,,,,1.0151,1,,,,,,,,,,,,,,m,,,,,,,,,,,,,,,,,125,0,676.1931,677.2092,m,1,1.0151,,[],[],[],[],[],[],[],677.2092,679.2092,679.2092,679.2094,[],[],[],[],[],[],[],,,,679.2095,679.2095,0.284182875,-0.344549102,0,0,0,,0,124,124,121,1,4,word,MISTAKE,print,mistake_p.png,,,,
,,,,32116,001,2025-10-16_10h41.36.748,HW_LDT_1,2024.2.4,MacIntel,60.24096386,,,,,,,,,,,,,,,,,,,,,,679.2109,679.4091,679.4092,679.9092,,,,,,,,,,,,2.7815,1,,,,,,,,,,,,,,z,,,,,,,,,,,,,,,,,126,0,679.9098,682.6926,z,1,2.7815,,[],[],[],[],[],[],[],682.6926,684.6924,684.6925,684.6927,[],[],[],[],[],[],[],,,,684.6928,684.6929,0.284182875,-0.344549102,0,0,0,,0,125,125,36,1,4,RL,rabigly,cursive,rabigly_c.png,,,,
,,,,32116,001,2025-10-16_10h41.36.748,HW_LDT_1,2024.2.4,MacIntel,60.24096386,,,,,,,,,,,,,,,,,,,,,,684.6941,684.8925,684.8926,685.3925,,,,,,,,,,,,1.5134,1,,,,,,,,,,,,,,m,,,,,,,,,,,,,,,,,127,0,685.3931,686.9091,m,1,1.5134,,[],[],[],[],[],[],[],686.9092,688.9092,688.9092,688.9094,[],[],[],[],[],[],[],,,,688.9094,688.9096,0.284182875,-0.344549102,0,0,0,,0,126,126,80,1,4,word,ACADEMY,print,academy_p.png,,,,
,,,,32116,001,2025-10-16_10h41.36.748,HW_LDT_1,2024.2.4,MacIntel,60.24096386,,,,,,,,,,,,,,,,,,,,,,688.9107,689.1091,689.1091,689.6088,,,,,,,,,,,,1.654,1,,,,,,,,,,,,,,m,,,,,,,,,,,,,,,,,128,0,689.6094,691.2755,m,1,1.654,,[],[],[],[],[],[],[],691.2756,693.2758,693.2758,693.276,[],[],[],[],[],[],[],,,,693.276,693.2761,0.284182875,-0.344549102,0,0,0,,0,127,127,85,1,4,word,BENEFIT,cursive,benefit_c.png,,,,
,,,,32116,001,2025-10-16_10h41.36.748,HW_LDT_1,2024.2.4,MacIntel,60.24096386,,,,,,,,,,,,,,,,,,,,,,693.2771,693.4753,693.4753,693.9758,,,,,,,,,,,,0.9904,1,,,,,,,,,,,,,,z,,,,,,,,,,,,,,,,,129,0,693.9763,694.976,z,1,0.9904,,[],[],[],[],[],[],[],694.976,696.9757,696.9758,696.976,[],[],[],[],[],[],[],,,,696.9761,696.9763,0.284182875,-0.344549102,0,0,0,,0,128,128,20,1,4,RL,gralekul,print,gralekul_p.png,,,,
,,,,32116,001,2025-10-16_10h41.36.748,HW_LDT_1,2024.2.4,MacIntel,60.24096386,,,,,,,,,,,,,,,,,,,,,,696.9776,697.1758,697.1758,697.6757,,,,,,,,,,,,2.3984,1,,,,,,,,,,,,,,z,,,,,,,,,,,,,,,,,130,0,697.6764,700.0756,z,1,2.3984,,[],[],[],[],[],[],[],700.0758,702.0757,702.0758,702.076,[],[],[],[],[],[],[],,,,702.0762,702.0762,0.284182875,-0.344549102,0,0,0,,0,129,129,49,1,4,RL,vesofity,cursive,vesofity_c.png,,,,
,,,,32116,001,2025-10-16_10h41.36.748,HW_LDT_1,2024.2.4,MacIntel,60.24096386,,,,,,,,,,,,,,,,,,,,,,702.0778,702.2753,702.2753,702.7758,,,,,,,,,,,,3.0038,1,,,,,,,,,,,,,,z,,,,,,,,,,,,,,,,,131,0,702.7766,705.7925,z,1,3.0038,,[],[],[],[],[],[],[],705.7926,707.7924,707.7924,707.7926,[],[],[],[],[],[],[],,,,707.7927,707.7928,0.284182875,-0.344549102,0,0,0,,0,130,130,23,1,4,RL,linefal,cursive,linefal_c.png,,,,
,,,,32116,001,2025-10-16_10h41.36.748,HW_LDT_1,2024.2.4,MacIntel,60.24096386,,,,,,,,,,,,,,,,,,,,,,707.7942,707.9917,707.9917,708.4921,,,,,,,,,,,,0.7862,1,,,,,,,,,,,,,,z,,,,,,,,,,,,,,,,,132,0,708.4925,709.2922,z,1,0.7862,,[],[],[],[],[],[],[],709.2922,711.292,711.292,711.2922,[],[],[],[],[],[],[],,,,711.2922,711.2922,0.284182875,-0.344549102,0,0,0,,0,131,131,71,1,4,TL,racidal,print,racidal_p.png,,,,
,,,,32116,001,2025-10-16_10h41.36.748,HW_LDT_1,2024.2.4,MacIntel,60.24096386,,,,,,,,,,,,,,,,,,,,,,711.2929,711.4923,711.4924,711.9923,,,,,,,,,,,,0.6045,1,,,,,,,,,,,,,,z,,,,,,,,,,,,,,,,,133,1,711.9928,712.6089,z,1,0.6045,,[],[],[],[],[],[],[],712.6089,714.609,714.6091,717.8746,[],[],[],[],[],[],[],m,3.2549,,717.8747,717.8748,0.284182875,-0.344549102,0,0,0,,0,132,132,11,1,4,RL,clisimal,print,clisimal_p.png,,,,
,,,,32116,001,2025-10-16_10h41.36.748,HW_LDT_1,2024.2.4,MacIntel,60.24096386,,,,,,,,,,,,,,,,,,,,,,717.8755,718.0758,718.0758,718.5757,,,,,,,,,,,,0.9468,1,,,,,,,,,,,,,,m,,,,,,,,,,,,,,,,,134,0,718.5763,719.5255,m,1,0.9468,,[],[],[],[],[],[],[],719.5255,721.5256,721.5258,721.5259,[],[],[],[],[],[],[],,,,721.5259,721.5261,0.284182875,-0.344549102,0,0,0,,0,133,133,141,1,4,word,RELIGION,print,religion_p.png,,,,
,,,,32116,001,2025-10-16_10h41.36.748,HW_LDT_1,2024.2.4,MacIntel,60.24096386,,,,,,,,,,,,,,,,,,,,,,721.5274,721.7256,721.7257,722.2258,,,,,,,,,,,,0.7573,1,,,,,,,,,,,,,,m,,,,,,,,,,,,,,,,,135,0,722.2264,722.9924,m,1,0.7573,,[],[],[],[],[],[],[],722.9925,724.9914,724.9915,724.9917,[],[],[],[],[],[],[],,,,724.9917,724.9917,0.284182875,-0.344549102,0,0,0,,0,134,134,159,1,4,word,VETERAN,cursive,veteran_c.png,,,,
,,,,32116,001,2025-10-16_10h41.36.748,HW_LDT_1,2024.2.4,MacIntel,60.24096386,,,,,,,,,,,,,,,,,,,,,,724.9929,725.1923,725.1923,725.6924,,,,,,,,,,,,0.6983,1,,,,,,,,,,,,,,m,,,,,,,,,,,,,,,,,136,0,725.6929,726.3924,m,1,0.6983,,[],[],[],[],[],[],[],726.3925,728.3922,728.3923,728.3925,[],[],[],[],[],[],[],,,,728.3926,728.3927,0.284182875,-0.344549102,0,0,0,,0,135,135,82,1,4,word,AMATEUR,cursive,amateur_c.png,,,,
,,,,32116,001,2025-10-16_10h41.36.748,HW_LDT_1,2024.2.4,MacIntel,60.24096386,,,,,,,,,,,,,,,,,,,,,,728.3941,728.5923,728.5924,729.0923,,,,,,,,,,,,0.5188,1,,,,,,,,,,,,,,m,,,,,,,,,,,,,,,,,137,0,729.093,729.6254,m,1,0.5188,,[],[],[],[],[],[],[],729.6254,731.6257,731.6258,731.6259,[],[],[],[],[],[],[],,,,731.626,731.6261,0.284182875,-0.344549102,0,0,0,,0,136,136,147,1,4,word,ROMANTIC,print,romantic_p.png,,,,
,,,,32116,001,2025-10-16_10h41.36.748,HW_LDT_1,2024.2.4,MacIntel,60.24096386,,,,,,,,,,,,,,,,,,,,,,731.6274,731.8256,731.8257,732.3256,,,,,,,,,,,,0.6243,1,,,,,,,,,,,,,,z,,,,,,,,,,,,,,,,,138,0,732.3262,732.9591,z,1,0.6243,,[],[],[],[],[],[],[],732.9592,734.959,734.9591,734.9592,[],[],[],[],[],[],[],,,,734.9592,734.9593,0.284182875,-0.344549102,0,0,0,,0,137,137,46,1,4,RL,skofen,cursive,skofen_c.png,,,,
,,,,32116,001,2025-10-16_10h41.36.748,HW_LDT_1,2024.2.4,MacIntel,60.24096386,,,,,,,,,,,,,,,,,,,,,,734.9604,735.159,735.1591,735.659,,,,,,,,,,,,0.6401,1,,,,,,,,,,,,,,z,,,,,,,,,,,,,,,,,139,0,735.6598,736.3091,z,1,0.6401,,[],[],[],[],[],[],[],736.3092,738.3088,738.3088,738.3091,[],[],[],[],[],[],[],,,,738.3091,738.3092,0.284182875,-0.344549102,0,0,0,,0,138,138,3,1,4,RL,bewoted,print,bewoted_p.png,,,,
,,,,32116,001,2025-10-16_10h41.36.748,HW_LDT_1,2024.2.4,MacIntel,60.24096386,,,,,,,,,,,,,,,,,,,,,,738.3108,738.5092,738.5093,739.009,,,,,,,,,,,,0.5907,1,,,,,,,,,,,,,,z,,,,,,,,,,,,,,,,,140,0,739.0096,739.6091,z,1,0.5907,,[],[],[],[],[],[],[],739.6092,741.609,741.6091,741.6093,[],[],[],[],[],[],[],,,,741.6093,741.6095,0.284182875,-0.344549102,0,0,0,,0,139,139,18,1,4,RL,disluge,print,disluge_p.png,,,,
,,,,32116,001,2025-10-16_10h41.36.748,HW_LDT_1,2024.2.4,MacIntel,60.24096386,,,,,,,,,,,,,,,,,,,,,,741.6111,741.809,741.809,742.309,,,,,,,,,,,,0.7381,1,,,,,,,,,,,,,,m,,,,,,,,,,,,,,,,,141,0,742.3097,743.059,m,1,0.7381,,[],[],[],[],[],[],[],743.059,745.058,745.058,745.0581,[],[],[],[],[],[],[],,,,745.0581,745.0582,0.284182875,-0.344549102,0,0,0,,0,140,140,124,1,4,word,NUMERICAL,cursive,numerical_c.png,,,,
,,,,32116,001,2025-10-16_10h41.36.748,HW_LDT_1,2024.2.4,MacIntel,60.24096386,,,,,,,,,,,,,,,,,,,,,,745.0597,745.2587,745.2587,745.759,,,,,,,,,,,,0.82,1,,,,,,,,,,,,,,z,,,,,,,,,,,,,,,,,142,0,745.7602,746.5918,z,1,0.82,,[],[],[],[],[],[],[],746.5919,748.5923,748.5923,748.5925,[],[],[],[],[],[],[],,,,748.5926,748.5927,0.284182875,-0.344549102,0,0,0,,0,141,141,69,1,4,TL,quafily,print,quafily_p.png,,,,
,,,,32116,001,2025-10-16_10h41.36.748,HW_LDT_1,2024.2.4,MacIntel,60.24096386,,,,,,,,,,,,,,,,,,,,,,748.5941,748.7918,748.7919,749.2924,,,,,,,,,,,,0.7648,1,,,,,,,,,,,,,,m,,,,,,,,,,,,,,,,,143,0,749.2932,750.0588,m,1,0.7648,,[],[],[],[],[],[],[],750.0588,752.0581,752.0581,752.0584,[],[],[],[],[],[],[],,,,752.0584,752.0586,0.284182875,-0.344549102,0,0,0,,0,142,142,103,1,4,word,DISPUTE,print,dispute_p.png,,,,
,,,,32116,001,2025-10-16_10h41.36.748,HW_LDT_1,2024.2.4,MacIntel,60.24096386,,,,,,,,,,,,,,,,,,,,,,752.0599,752.2591,752.2591,752.7589,,,,,,,,,,,,0.7317,1,,,,,,,,,,,,,,m,,,,,,,,,,,,,,,,,144,0,752.7596,753.4928,m,1,0.7317,,[],[],[],[],[],[],[],753.4929,755.4923,755.4924,755.4926,[],[],[],[],[],[],[],,,,755.4927,755.4927,0.284182875,-0.344549102,0,0,0,,0,143,143,135,1,4,word,QUALITY,print,quality_p.png,,,,
,,,,32116,001,2025-10-16_10h41.36.748,HW_LDT_1,2024.2.4,MacIntel,60.24096386,,,,,,,,,,,,,,,,,,,,,,755.4941,755.6923,755.6923,756.1924,,,,,,,,,,,,0.6356,1,,,,,,,,,,,,,,m,,,,,,,,,,,,,,,,,145,0,756.193,756.8421,m,1,0.6356,,[],[],[],[],[],[],[],756.8421,758.8415,758.8415,758.8418,[],[],[],[],[],[],[],,,,758.8419,758.8421,0.284182875,-0.344549102,0,0,0,,0,144,144,148,1,4,word,SALINE,print,saline_p.png,,,,
,,,,32116,001,2025-10-16_10h41.36.748,HW_LDT_1,2024.2.4,MacIntel,60.24096386,,,,,,,,,,,,,,,,,,,,,,758.8434,759.0424,759.0424,759.5423,,,,,,,,,,,,0.9242,1,,,,,,,,,,,,,,z,,,,,,,,,,,,,,,,,146,0,759.5431,760.4757,z,1,0.9242,,[],[],[],[],[],[],[],760.4758,762.4757,762.4757,762.4759,[],[],[],[],[],[],[],,,,762.4759,762.476,0.284182875,-0.344549102,0,0,0,,0,145,145,12,1,4,RL,conbicer,cursive,conbicer_c.png,,,,
,,,,32116,001,2025-10-16_10h41.36.748,HW_LDT_1,2024.2.4,MacIntel,60.24096386,,,,,,,,,,,,,,,,,,,,,,762.4772,762.6756,762.6757,763.1756,,,,,,,,,,,,1.6204,1,,,,,,,,,,,,,,m,,,,,,,,,,,,,,,,,147,0,763.1762,764.809,m,1,1.6204,,[],[],[],[],[],[],[],764.8091,766.8091,766.8091,766.8093,[],[],[],[],[],[],[],,,,766.8093,766.8096,0.284182875,-0.344549102,0,0,0,,0,146,146,142,1,4,word,REMOTE,cursive,remote_c.png,,,,
,,,,32116,001,2025-10-16_10h41.36.748,HW_LDT_1,2024.2.4,MacIntel,60.24096386,,,,,,,,,,,,,,,,,,,,,,766.8108,766.998,766.998,767.5091,,,,,,,,,,,,0.6206,1,,,,,,,,,,,,,,z,,,,,,,,,,,,,,,,,148,0,767.5097,768.1416,z,1,0.6206,,[],[],[],[],[],[],[],768.1417,770.1423,770.1424,770.1425,[],[],[],[],[],[],[],,,,770.1426,770.1427,0.284182875,-0.344549102,0,0,0,,0,147,147,48,1,4,RL,vabifity,print,vabifity_p.png,,,,
,,,,32116,001,2025-10-16_10h41.36.748,HW_LDT_1,2024.2.4,MacIntel,60.24096386,,,,,,,,,,,,,,,,,,,,,,770.144,770.3423,770.3423,770.8423,,,,,,,,,,,,0.8523,1,,,,,,,,,,,,,,m,,,,,,,,,,,,,,,,,149,0,770.8429,771.7087,m,1,0.8523,,[],[],[],[],[],[],[],771.7087,773.7089,773.7089,773.7091,[],[],[],[],[],[],[],,,,773.7092,773.7095,0.284182875,-0.344549102,0,0,0,,0,148,148,144,1,4,word,RESIDENT,cursive,resident_c.png,,,,
,,,,32116,001,2025-10-16_10h41.36.748,HW_LDT_1,2024.2.4,MacIntel,60.24096386,,,,,,,,,,,,,,,,,,,,,,773.7106,773.9091,773.9091,774.4089,,,,,,,,,,,,0.8045,0,,,,,,,,,,,,,,m,,,,,,,,,,,,,,,,,150,0,774.4095,775.2258,z,0,0.8045,,[],[],[],[],[],[],[],775.2259,777.2256,777.2256,777.2257,[],[],[],[],[],[],[],,,,777.2259,777.226,0.284182875,-0.344549102,0,0,0,,0,149,149,113,1,4,word,LITERAL,cursive,literal_c.png,,,,
,,,,32116,001,2025-10-16_10h41.36.748,HW_LDT_1,2024.2.4,MacIntel,60.24096386,,,,,,,,,,,,,,,,,,,,,,777.2274,777.4255,777.4256,777.9256,,,,,,,,,,,,0.7379,1,,,,,,,,,,,,,,z,,,,,,,,,,,,,,,,,151,0,777.9261,778.6757,z,1,0.7379,,[],[],[],[],[],[],[],778.6757,780.6756,780.6756,780.6758,[],[],[],[],[],[],[],,,,780.6759,780.6761,0.284182875,-0.344549102,0,0,0,,0,150,150,17,1,4,RL,denficy,cursive,denficy_c.png,,,,
,,,,32116,001,2025-10-16_10h41.36.748,HW_LDT_1,2024.2.4,MacIntel,60.24096386,,,,,,,,,,,,,,,,,,,,,,780.6773,780.8756,780.8756,781.3756,,,,,,,,,,,,0.5146,1,,,,,,,,,,,,,,m,,,,,,,,,,,,,,,,,152,0,781.3762,781.8922,m,1,0.5146,,[],[],[],[],[],[],[],781.8923,783.8923,783.8923,783.8925,[],[],[],[],[],[],[],,,,783.8926,783.8926,0.284182875,-0.344549102,0,0,0,,0,151,151,107,1,4,word,EVIDENT,print,evident_p.png,,,,
,,,,32116,001,2025-10-16_10h41.36.748,HW_LDT_1,2024.2.4,MacIntel,60.24096386,,,,,,,,,,,,,,,,,,,,,,783.8939,784.0922,784.0922,784.5923,,,,,,,,,,,,2.0707,1,,,,,,,,,,,,,,z,,,,,,,,,,,,,,,,,153,0,784.5928,786.6756,z,1,2.0707,,[],[],[],[],[],[],[],786.6757,788.6757,788.6757,788.6759,[],[],[],[],[],[],[],,,,788.676,788.6762,0.284182875,-0.344549102,0,0,0,,0,152,152,37,1,4,RL,renutal,cursive,renutal_c.png,,,,
,,,,32116,001,2025-10-16_10h41.36.748,HW_LDT_1,2024.2.4,MacIntel,60.24096386,,,,,,,,,,,,,,,,,,,,,,788.6775,788.8756,788.8756,789.3756,,,,,,,,,,,,0.8209,0,,,,,,,,,,,,,,m,,,,,,,,,,,,,,,,,154,0,789.3761,790.2089,z,0,0.8209,,[],[],[],[],[],[],[],790.2091,792.2088,792.2089,792.2092,[],[],[],[],[],[],[],,,,792.2092,792.2093,0.284182875,-0.344549102,0,0,0,,0,153,153,138,1,4,word,REFUSAL,cursive,refusal_c.png,,,,
,,,,32116,001,2025-10-16_10h41.36.748,HW_LDT_1,2024.2.4,MacIntel,60.24096386,,,,,,,,,,,,,,,,,,,,,,792.2107,792.4089,792.409,792.9089,,,,,,,,,,,,0.8461,1,,,,,,,,,,,,,,z,,,,,,,,,,,,,,,,,155,0,792.9094,793.7586,z,1,0.8461,,[],[],[],[],[],[],[],793.7587,795.7581,795.7582,795.7584,[],[],[],[],[],[],[],,,,795.7584,795.7586,0.284182875,-0.344549102,0,0,0,,0,154,154,67,1,4,TL,polupar,print,polupar_p.png,,,,
,,,,32116,001,2025-10-16_10h41.36.748,HW_LDT_1,2024.2.4,MacIntel,60.24096386,,,,,,,,,,,,,,,,,,,,,,795.7598,795.959,795.959,796.4589,,,,,,,,,,,,0.6991,1,,,,,,,,,,,,,,m,,,,,,,,,,,,,,,,,156,0,796.4595,797.1595,m,1,0.6991,,[],[],[],[],[],[],[],797.1595,799.1589,799.1589,799.1591,[],[],[],[],[],[],[],,,,799.1592,799.1593,0.284182875,-0.344549102,0,0,0,,0,155,155,157,1,4,word,VALIDITY,print,validity_p.png,,,,
,,,,32116,001,2025-10-16_10h41.36.748,HW_LDT_1,2024.2.4,MacIntel,60.24096386,,,,,,,,,,,,,,,,,,,,,,799.1605,799.3589,799.359,799.8589,,,,,,,,,,,,1.3036,1,,,,,,,,,,,,,,m,,,,,,,,,,,,,,,,,157,1,799.8592,801.175,m,1,1.3036,,[],[],[],[],[],[],[],801.175,803.1756,803.1756,806.3255,[],[],[],[],[],[],[],z,3.1461,,806.3256,806.3258,0.284182875,-0.344549102,0,0,0,,0,156,156,158,1,4,word,VELOCITY,cursive,velocity_c.png,,,,
,,,,32116,001,2025-10-16_10h41.36.748,HW_LDT_1,2024.2.4,MacIntel,60.24096386,,,,,,,,,,,,,,,,,,,,,,806.3269,806.5256,806.5256,807.0256,,,,,,,,,,,,1.8735,1,,,,,,,,,,,,,,m,,,,,,,,,,,,,,,,,158,0,807.0263,808.9084,m,1,1.8735,,[],[],[],[],[],[],[],808.9085,810.9088,810.9089,810.9093,[],[],[],[],[],[],[],,,,810.9093,810.9094,0.284182875,-0.344549102,0,0,0,,0,157,157,100,1,4,word,DECADE,cursive,decade_c.png,,,,
,,,,32116,001,2025-10-16_10h41.36.748,HW_LDT_1,2024.2.4,MacIntel,60.24096386,,,,,,,,,,,,,,,,,,,,,,810.9108,811.1088,811.1089,811.6089,,,,,,,,,,,,0.9732,1,,,,,,,,,,,,,,z,,,,,,,,,,,,,,,,,159,1,811.6094,812.5922,z,1,0.9732,,[],[],[],[],[],[],[],812.5922,814.5922,814.5923,815.8422,[],[],[],[],[],[],[],z,1.2486,,815.8422,815.8424,0.284182875,-0.344549102,0,0,0,,0,158,158,50,1,4,RL,vecelan,cursive,vecelan_c.png,,,,
,,,,32116,001,2025-10-16_10h41.36.748,HW_LDT_1,2024.2.4,MacIntel,60.24096386,,,,,,,,,,,,,,,,,,,,,,815.8435,816.0422,816.0422,816.5423,,,,,,,,,,,,2.4407,1,,,,,,,,,,,,,,z,,,,,,,,,,,,,,,,,160,0,816.543,818.9919,z,1,2.4407,,[],[],[],[],[],[],[],818.992,820.9921,820.9921,820.9922,[],[],[],[],[],[],[],,,,820.9923,820.9924,0.252860616,-0.344549102,0,0,0,,0,159,159,34,1,4,RL,posity,cursive,posity_c.png,,,,
,,,,32116,001,2025-10-16_10h41.36.748,HW_LDT_1,2024.2.4,MacIntel,60.24096386,,,,,,,,,,,,,,,,,,,,,,,,,,,,,,,,,,,,,,,,,,,,,,,,,,,,,,,,,,,,,,,,,,,,,,,,,,,,,,,,,,,,,,,,,,,,,,,,,,,,,,,,,,,,,,,,,,,,,,820.9931,825.9915
