counterbalance_lists.group,counterbalance_lists.remaining,get_list.started,get_list.stopped,participant,session,date,expName,psychopyVersion,OS,frameRate,Instructions.started,Instructions.stopped,key_resp.keys,instr_done_touch.x,instr_done_touch.y,instr_done_touch.leftButton,instr_done_touch.midButton,instr_done_touch.rightButton,instr_done_touch.clicked_name,start_instr.thisRepN,start_instr.thisTrialN,start_instr.thisN,start_instr.thisIndex,start_instr.ran,pageN,phase,instruct_text,has_image,instruct_image,key_resp.rt,key_resp.duration,showProgress.started,showProgress.stopped,fix.started,fix.stopped,prac.started,prac.stopped,response.keys,response.corr,response.rt,response.duration,touch_resp.x,touch_resp.y,touch_resp.leftButton,touch_resp.midButton,touch_resp.rightButton,touch_resp.time,touch_resp.clicked_name,rt,corr,feedback.started,feedback.stopped,trials.thisRepN,trials.thisTrialN,trials.thisN,trials.thisIndex,trials.ran,TrialID,StimulusType,Condition,PrimeDuration,Prime,Target,corrAns,Instructions_expt.started,Instructions_expt.stopped,key_resp_3.keys,instr_done_touch_3.x,instr_done_touch_3.y,instr_done_touch_3.leftButton,instr_done_touch_3.midButton,instr_done_touch_3.rightButton,instr_done_touch_3.clicked_name,instr_experiment.thisRepN,instr_experiment.thisTrialN,instr_experiment.thisN,instr_experiment.thisIndex,instr_experiment.ran,trialID,flag,maintask.started,maintask.stopped,key_resp_2.keys,key_resp_2.corr,key_resp_2.rt,key_resp_2.duration,targ_click.x,targ_click.y,targ_click.leftButton,targ_click.midButton,targ_click.rightButton,targ_click.time,targ_click.clicked_name,ITI.started,ITI.stopped,probe.started,probe.stopped,click_probe.x,click_probe.y,click_probe.leftButton,click_probe.midButton,click_probe.rightButton,click_probe.time,click_probe.clicked_name,key_resp_probe.keys,Break.started,Break.stopped,break_done_touch.x,break_done_touch.y,break_done_touch.leftButton,break_done_touch.midButton,break_done_touch.rightButton,break_done_keyboard.keys,list2_trials.thisRepN,list2_trials.thisTrialN,list2_trials.thisN,list2_trials.thisIndex,list2_trials.ran,list_id,item_type,string,font,stim_file,key_resp_probe.rt,key_resp_probe.duration,break_done_keyboard.rt,break_done_keyboard.duration,End.started,End.stopped
list2,,0.5217,0.5218,32121,001,2025-10-16_15h24.27.080,HW_LDT_1,2024.2.4,MacIntel,59.88023952,,,,,,,,,,,,,,,,,,,,,,,,,,,,,,,,,,,,,,,,,,,,,,,,,,,,,,,,,,,,,,,,,,,,,,,,,,,,,,,,,,,,,,,,,,,,,,,,,,,,,,,,,,,,,,,,,,,,,,,
,,,,32121,001,2025-10-16_15h24.27.080,HW_LDT_1,2024.2.4,MacIntel,59.88023952,0.5368,19.8611,,-0.101613451,-0.398947011,1,0,0,instr_done_button,0,0,0,0,1,1,instructions,"INSTRUCTIONS
At the start of each trial, look at the plus sign  (+) in the center of the screen.  This tells you that a trial is about to begin and where to look. Second, the plus sign will disappear and a string of letters will appear. Your task is to determine if the string of letters is a word or not. If the item is a word press the M key (on keyboard)  or touch the word button (phone/tablet).  If the item is not a word,  press the  Z key (on keyboard)  or touch the nonword button (on phone/tablet). The items will be presented for a short time. 
Press the space bar or touch  continue.",0,,,,,,,,,,,,,,,,,,,,,,,,,,,,,,,,,,,,,,,,,,,,,,,,,,,,,,,,,,,,,,,,,,,,,,,,,,,,,,,,,,,,,,,,,,,,,,,,,,,,,
,,,,32121,001,2025-10-16_15h24.27.080,HW_LDT_1,2024.2.4,MacIntel,59.88023952,19.8618,25.243,space,-0.092459239,-0.398624321,0,0,0,,0,1,1,1,1,2,instructions,"If your device has a keyboard, press the 'Z' key for nonwords and the 'M' key for words.





Press the space bar or touch the button below to continue.",0,keyboard-example.gif,5.3521,,,,,,,,,,,,,,,,,,,,,,,,,,,,,,,,,,,,,,,,,,,,,,,,,,,,,,,,,,,,,,,,,,,,,,,,,,,,,,,,,,,,,,,,,,,,,,,,,,,
,,,,32121,001,2025-10-16_15h24.27.080,HW_LDT_1,2024.2.4,MacIntel,59.88023952,25.2443,27.1437,space,-0.092459239,-0.398624321,0,0,0,,0,2,2,2,1,3,instructions,"If you are using a touchscreen only device, use the buttons on the screen. Do not use the mouse.





Press the space bar or touch the button below to continue.",0,touchscreen-example.gif,1.8817,,,,,,,,,,,,,,,,,,,,,,,,,,,,,,,,,,,,,,,,,,,,,,,,,,,,,,,,,,,,,,,,,,,,,,,,,,,,,,,,,,,,,,,,,,,,,,,,,,,
,,,,32121,001,2025-10-16_15h24.27.080,HW_LDT_1,2024.2.4,MacIntel,59.88023952,27.1459,36.4101,space,-0.092459239,-0.398624321,0,0,0,,0,3,3,3,1,4,instructions,"It is very important that you respond as quickly and accurately as possible, as each letter string will only be on the screen for two seconds. If you do not respond within this time, the message 'Too slow!' will be displayed and the experiment will progress to the next letter string. The first 20 trials will be practice trials and you will receive feedback on your answers. 

Press the space bar or touch the button below to start the practice trials.",0,,9.2541,,,,,,,,,,,,,,,,,,,,,,,,,,,,,,,,,,,,,,,,,,,,,,,,,,,,,,,,,,,,,,,,,,,,,,,,,,,,,,,,,,,,,,,,,,,,,,,,,,,
,,,,32121,001,2025-10-16_15h24.27.080,HW_LDT_1,2024.2.4,MacIntel,59.88023952,,,,,,,,,,,,,,,,,,,,,,36.4329,36.6094,36.6095,37.1102,37.1105,39.9606,z,0,2.8206,,[],[],[],[],[],[],[],2.8206,0,39.9609,40.4602,0,0,0,1,1,1002,WORD,"ID",33,adjust,ADJUST,m,,,,,,,,,,,,,,,,,,,,,,,,,,,,,,,,,,,,,,,,,,,,,,,,,,,,,,,,,,,,,,,,,
,,,,32121,001,2025-10-16_15h24.27.080,HW_LDT_1,2024.2.4,MacIntel,59.88023952,,,,,,,,,,,,,,,,,,,,,,40.4619,40.6601,40.6602,41.1604,41.1616,42.9437,z,1,1.7691,,[],[],[],[],[],[],[],1.7691,1,42.9447,43.4437,0,1,1,9,1,1010,NW,"ID",33,fariny,FARINY,z,,,,,,,,,,,,,,,,,,,,,,,,,,,,,,,,,,,,,,,,,,,,,,,,,,,,,,,,,,,,,,,,,
,,,,32121,001,2025-10-16_15h24.27.080,HW_LDT_1,2024.2.4,MacIntel,59.88023952,,,,,,,,,,,,,,,,,,,,,,43.4447,43.6432,43.6433,44.1439,44.1451,45.1104,m,1,0.9442,,[],[],[],[],[],[],[],0.9442,1,45.1106,45.6094,0,2,2,7,1,1008,WORD,UN,16,hurdle,VOLUME,m,,,,,,,,,,,,,,,,,,,,,,,,,,,,,,,,,,,,,,,,,,,,,,,,,,,,,,,,,,,,,,,,,
,,,,32121,001,2025-10-16_15h24.27.080,HW_LDT_1,2024.2.4,MacIntel,59.88023952,,,,,,,,,,,,,,,,,,,,,,45.6104,45.8097,45.8097,46.3102,46.3113,47.7937,z,1,1.4593,,[],[],[],[],[],[],[],1.4593,1,47.7939,48.2938,0,3,3,12,1,1013,NW,UN,33,adveil,SPRINY,z,,,,,,,,,,,,,,,,,,,,,,,,,,,,,,,,,,,,,,,,,,,,,,,,,,,,,,,,,,,,,,,,,
,,,,32121,001,2025-10-16_15h24.27.080,HW_LDT_1,2024.2.4,MacIntel,59.88023952,,,,,,,,,,,,,,,,,,,,,,48.2949,48.4934,48.4934,48.9935,48.9947,50.0428,m,1,1.0252,,[],[],[],[],[],[],[],1.0252,1,50.043,50.5441,0,4,4,4,1,1005,WORD,UN,33,abound,SQUEAK,m,,,,,,,,,,,,,,,,,,,,,,,,,,,,,,,,,,,,,,,,,,,,,,,,,,,,,,,,,,,,,,,,,
,,,,32121,001,2025-10-16_15h24.27.080,HW_LDT_1,2024.2.4,MacIntel,59.88023952,,,,,,,,,,,,,,,,,,,,,,50.5456,50.7428,50.743,51.2438,51.2446,52.0606,m,1,0.7996,,[],[],[],[],[],[],[],0.7996,1,52.0608,52.5605,0,5,5,3,1,1004,WORD,"ID",16,matrix,MATRIX,m,,,,,,,,,,,,,,,,,,,,,,,,,,,,,,,,,,,,,,,,,,,,,,,,,,,,,,,,,,,,,,,,,
,,,,32121,001,2025-10-16_15h24.27.080,HW_LDT_1,2024.2.4,MacIntel,59.88023952,,,,,,,,,,,,,,,,,,,,,,52.5616,52.7596,52.7598,53.2605,53.2613,54.1941,z,1,0.9184,,[],[],[],[],[],[],[],0.9184,1,54.1942,54.6931,0,6,6,15,1,1016,NW,UN,16,mushed,WHAISE,z,,,,,,,,,,,,,,,,,,,,,,,,,,,,,,,,,,,,,,,,,,,,,,,,,,,,,,,,,,,,,,,,,
,,,,32121,001,2025-10-16_15h24.27.080,HW_LDT_1,2024.2.4,MacIntel,59.88023952,,,,,,,,,,,,,,,,,,,,,,54.6945,54.894,54.894,55.3935,55.3971,56.1449,m,1,0.7395,,[],[],[],[],[],[],[],0.7395,1,56.145,56.6441,0,7,7,6,1,1007,WORD,UN,16,tropic,ZOMBIE,m,,,,,,,,,,,,,,,,,,,,,,,,,,,,,,,,,,,,,,,,,,,,,,,,,,,,,,,,,,,,,,,,,
,,,,32121,001,2025-10-16_15h24.27.080,HW_LDT_1,2024.2.4,MacIntel,59.88023952,,,,,,,,,,,,,,,,,,,,,,56.6455,56.844,56.8441,57.344,57.3447,57.8438,m,1,0.4879,,[],[],[],[],[],[],[],0.4879,1,57.8439,58.344,0,8,8,2,1,1003,WORD,"ID",16,almond,ALMOND,m,,,,,,,,,,,,,,,,,,,,,,,,,,,,,,,,,,,,,,,,,,,,,,,,,,,,,,,,,,,,,,,,,
,,,,32121,001,2025-10-16_15h24.27.080,HW_LDT_1,2024.2.4,MacIntel,59.88023952,,,,,,,,,,,,,,,,,,,,,,58.3449,58.5442,58.5442,59.0437,59.0444,59.7441,z,1,0.6855,,[],[],[],[],[],[],[],0.6855,1,59.7443,60.2442,0,9,9,8,1,1009,NW,"ID",33,aslert,ASLERT,z,,,,,,,,,,,,,,,,,,,,,,,,,,,,,,,,,,,,,,,,,,,,,,,,,,,,,,,,,,,,,,,,,
,,,,32121,001,2025-10-16_15h24.27.080,HW_LDT_1,2024.2.4,MacIntel,59.88023952,,,,,,,,,,,,,,,,,,,,,,60.2456,60.4438,60.4438,60.9443,60.9451,61.8944,z,1,0.9384,,[],[],[],[],[],[],[],0.9384,1,61.8945,62.3942,0,10,10,14,1,1015,NW,UN,16,miaber,THRALE,z,,,,,,,,,,,,,,,,,,,,,,,,,,,,,,,,,,,,,,,,,,,,,,,,,,,,,,,,,,,,,,,,,
,,,,32121,001,2025-10-16_15h24.27.080,HW_LDT_1,2024.2.4,MacIntel,59.88023952,,,,,,,,,,,,,,,,,,,,,,62.3959,62.5942,62.5943,63.0938,63.0945,63.7946,m,1,0.6929,,[],[],[],[],[],[],[],0.6929,1,63.7947,64.2935,0,11,11,5,1,1006,WORD,UN,33,frenzy,OBTAIN,m,,,,,,,,,,,,,,,,,,,,,,,,,,,,,,,,,,,,,,,,,,,,,,,,,,,,,,,,,,,,,,,,,
,,,,32121,001,2025-10-16_15h24.27.080,HW_LDT_1,2024.2.4,MacIntel,59.88023952,,,,,,,,,,,,,,,,,,,,,,64.2947,64.4932,64.4933,64.9932,64.994,66.2942,z,1,1.2929,,[],[],[],[],[],[],[],1.2929,1,66.2942,66.7944,0,12,12,11,1,1012,NW,"ID",16,rashet,RASHET,z,,,,,,,,,,,,,,,,,,,,,,,,,,,,,,,,,,,,,,,,,,,,,,,,,,,,,,,,,,,,,,,,,
,,,,32121,001,2025-10-16_15h24.27.080,HW_LDT_1,2024.2.4,MacIntel,59.88023952,,,,,,,,,,,,,,,,,,,,,,66.7956,66.9943,66.9943,67.4943,67.4949,68.8108,z,1,1.3013,,[],[],[],[],[],[],[],1.3013,1,68.8108,69.3113,0,13,13,10,1,1011,NW,"ID",16,inlade,INLADE,z,,,,,,,,,,,,,,,,,,,,,,,,,,,,,,,,,,,,,,,,,,,,,,,,,,,,,,,,,,,,,,,,,
,,,,32121,001,2025-10-16_15h24.27.080,HW_LDT_1,2024.2.4,MacIntel,59.88023952,,,,,,,,,,,,,,,,,,,,,,69.3129,69.5101,69.5101,70.0112,70.0121,70.7943,z,1,0.7718,,[],[],[],[],[],[],[],0.7718,1,70.7944,71.2939,0,14,14,13,1,1014,NW,UN,33,winfer,ROUPET,z,,,,,,,,,,,,,,,,,,,,,,,,,,,,,,,,,,,,,,,,,,,,,,,,,,,,,,,,,,,,,,,,,
,,,,32121,001,2025-10-16_15h24.27.080,HW_LDT_1,2024.2.4,MacIntel,59.88023952,,,,,,,,,,,,,,,,,,,,,,71.2947,71.4945,71.4945,71.9944,71.995,73.1269,m,1,1.1201,,[],[],[],[],[],[],[],1.1201,1,73.127,73.6274,0,15,15,0,1,1001,WORD,"ID",33,utopia,UTOPIA,m,,,,,,,,,,,,,,,,,,,,,,,,,,,,,,,,,,,,,,,,,,,,,,,,,,,,,,,,,,,,,,,,,
,,,,32121,001,2025-10-16_15h24.27.080,HW_LDT_1,2024.2.4,MacIntel,59.88023952,,,,,,,,,,,,,,,1,end_of_practice,"You have completed the practice trials. During the experimental trials, you will not receive feedback. On some trials you will be asked to report whether the item you just saw was in cursive or print. 
Before you begin, please ensure that you are in a comfortable and quiet location and will not be disturbed for about 15 minutes, as we cannot use your data if you do not complete all the trials. 
 When you are ready to start the experimental trials, please press space or touch the button below.",,,,,,,,,,,,,,,,,,,,,,,,,,,,,,,,,,,,,,73.6398,83.8954,,0.003634511,-0.391915761,1,0,0,instr_done_button_3,0,0,0,0,1,,,,,,,,,,,,,,,,,,,,,,,,,,,,,,,,,,,,,,,,,,,,,,,,,,,
,,,,32121,001,2025-10-16_15h24.27.080,HW_LDT_1,2024.2.4,MacIntel,59.88023952,,,,,,,,,,,,,,,,,,,,,,83.9108,84.0947,84.0948,84.5945,,,,,,,,,,,,,,1.0318,1,,,,,,,,,,,,,,m,,,,,,,,,,,,,,,1,0,84.5957,85.6451,m,1,1.0318,,[],[],[],[],[],[],[],85.6453,87.6451,87.6453,87.6479,[],[],[],[],[],[],[],,87.648,87.6497,0.037171649,-0.217793252,0,0,0,,0,0,0,100,1,2,word,DECADE,print,decade_p.png,,,,,,
,,,,32121,001,2025-10-16_15h24.27.080,HW_LDT_1,2024.2.4,MacIntel,59.88023952,,,,,,,,,,,,,,,,,,,,,,87.6506,87.8448,87.8448,88.3447,,,,,,,,,,,,,,1.0025,1,,,,,,,,,,,,,,z,,,,,,,,,,,,,,,2,0,88.3451,89.3616,z,1,1.0025,,[],[],[],[],[],[],[],89.3616,91.3609,91.3609,91.3612,[],[],[],[],[],[],[],,91.3612,91.3613,0.037171649,-0.217793252,0,0,0,,0,1,1,25,1,2,RL,rabigly,print,rabigly_p.png,,,,,,
,,,,32121,001,2025-10-16_15h24.27.080,HW_LDT_1,2024.2.4,MacIntel,59.88023952,,,,,,,,,,,,,,,,,,,,,,91.3626,91.5616,91.5616,92.0617,,,,,,,,,,,,,,2.141,1,,,,,,,,,,,,,,z,,,,,,,,,,,,,,,3,0,92.0623,94.212,z,1,2.141,,[],[],[],[],[],[],[],94.2121,96.2117,96.2117,96.2119,[],[],[],[],[],[],[],,96.212,96.212,0.037171649,-0.217793252,0,0,0,,0,2,2,65,1,2,TL,polupar,cursive,polupar_c.png,,,,,,
,,,,32121,001,2025-10-16_15h24.27.080,HW_LDT_1,2024.2.4,MacIntel,59.88023952,,,,,,,,,,,,,,,,,,,,,,96.215,96.4121,96.4121,96.9119,,,,,,,,,,,,,,1.2356,1,,,,,,,,,,,,,,m,,,,,,,,,,,,,,,4,0,96.9127,98.1619,m,1,1.2356,,[],[],[],[],[],[],[],98.1619,100.1618,100.1619,100.1621,[],[],[],[],[],[],[],,100.1621,100.1623,0.037171649,-0.217793252,0,0,0,,0,3,3,148,1,2,word,SALINE,cursive,saline_c.png,,,,,,
,,,,32121,001,2025-10-16_15h24.27.080,HW_LDT_1,2024.2.4,MacIntel,59.88023952,,,,,,,,,,,,,,,,,,,,,,100.1633,100.3618,100.3619,100.8618,,,,,,,,,,,,,,1.0723,1,,,,,,,,,,,,,,m,,,,,,,,,,,,,,,5,0,100.8623,101.9449,m,1,1.0723,,[],[],[],[],[],[],[],101.945,103.9443,103.9444,103.9446,[],[],[],[],[],[],[],,103.9447,103.9449,0.037171649,-0.217793252,0,0,0,,0,4,4,88,1,2,word,CAMERA,print,camera_p.png,,,,,,
,,,,32121,001,2025-10-16_15h24.27.080,HW_LDT_1,2024.2.4,MacIntel,59.88023952,,,,,,,,,,,,,,,,,,,,,,103.9474,104.1454,104.1454,104.6452,,,,,,,,,,,,,,0.9219,1,,,,,,,,,,,,,,m,,,,,,,,,,,,,,,6,0,104.6456,105.5781,m,1,0.9219,,[],[],[],[],[],[],[],105.5783,107.5788,107.5788,107.579,[],[],[],[],[],[],[],,107.5791,107.5792,0.037171649,-0.217793252,0,0,0,,0,5,5,115,1,2,word,LOGICAL,print,logical_p.png,,,,,,
,,,,32121,001,2025-10-16_15h24.27.080,HW_LDT_1,2024.2.4,MacIntel,59.88023952,,,,,,,,,,,,,,,,,,,,,,107.5815,107.7787,107.7787,108.2787,,,,,,,,,,,,,,1.4066,1,,,,,,,,,,,,,,m,,,,,,,,,,,,,,,7,0,108.2792,109.695,m,1,1.4066,,[],[],[],[],[],[],[],109.6952,111.6947,111.6948,111.695,[],[],[],[],[],[],[],,111.6952,111.6953,0.037171649,-0.217793252,0,0,0,,0,6,6,81,1,2,word,ADVISORY,print,advisory_p.png,,,,,,
,,,,32121,001,2025-10-16_15h24.27.080,HW_LDT_1,2024.2.4,MacIntel,59.88023952,,,,,,,,,,,,,,,,,,,,,,111.6965,111.8955,111.8956,112.3957,,,,,,,,,,,,,,0.8557,1,,,,,,,,,,,,,,m,,,,,,,,,,,,,,,8,0,112.3964,113.2618,m,1,0.8557,,[],[],[],[],[],[],[],113.262,115.2623,115.2623,115.2625,[],[],[],[],[],[],[],,115.2626,115.2626,0.037171649,-0.217793252,0,0,0,,0,7,7,143,1,2,word,REMOVAL,print,removal_p.png,,,,,,
,,,,32121,001,2025-10-16_15h24.27.080,HW_LDT_1,2024.2.4,MacIntel,59.88023952,,,,,,,,,,,,,,,,,,,,,,115.2635,115.4616,115.4616,115.9614,,,,,,,,,,,,,,1.5856,1,,,,,,,,,,,,,,m,,,,,,,,,,,,,,,9,1,115.963,117.5625,m,1,1.5856,,[],[],[],[],[],[],[],117.5626,119.5624,119.5624,123.196,[],[],[],[],[],[],[],z,123.196,123.1962,0.037171649,-0.217793252,0,0,0,,0,8,8,82,1,2,word,AMATEUR,cursive,amateur_c.png,3.6202,,,,,
,,,,32121,001,2025-10-16_15h24.27.080,HW_LDT_1,2024.2.4,MacIntel,59.88023952,,,,,,,,,,,,,,,,,,,,,,123.1971,123.3952,123.3953,123.8958,,,,,,,,,,,,,,2.0731,1,,,,,,,,,,,,,,m,,,,,,,,,,,,,,,10,0,123.8964,125.9794,m,1,2.0731,,[],[],[],[],[],[],[],125.9794,127.9794,127.9796,127.9798,[],[],[],[],[],[],[],,127.9798,127.9802,0.037171649,-0.217793252,0,0,0,,0,9,9,116,1,2,word,MARGINAL,cursive,marginal_c.png,,,,,,
,,,,32121,001,2025-10-16_15h24.27.080,HW_LDT_1,2024.2.4,MacIntel,59.88023952,,,,,,,,,,,,,,,,,,,,,,127.9815,128.1794,128.1794,128.6788,,,,,,,,,,,,,,3.0197,1,,,,,,,,,,,,,,m,,,,,,,,,,,,,,,11,0,128.6794,131.7127,m,1,3.0197,,[],[],[],[],[],[],[],131.7128,133.7119,133.712,133.712,[],[],[],[],[],[],[],,133.7122,133.7122,0.037171649,-0.217793252,0,0,0,,0,10,10,142,1,2,word,REMOTE,cursive,remote_c.png,,,,,,
,,,,32121,001,2025-10-16_15h24.27.080,HW_LDT_1,2024.2.4,MacIntel,59.88023952,,,,,,,,,,,,,,,,,,,,,,133.7131,133.9124,133.9124,134.4128,,,,,,,,,,,,,,4.0692,1,,,,,,,,,,,,,,z,,,,,,,,,,,,,,,12,0,134.4132,138.4963,z,1,4.0692,,[],[],[],[],[],[],[],138.4963,140.4963,140.4964,140.4966,[],[],[],[],[],[],[],,140.4966,140.4967,0.037171649,-0.217793252,0,0,0,,0,11,11,68,1,2,TL,quatily,cursive,quatily_c.png,,,,,,
,,,,32121,001,2025-10-16_15h24.27.080,HW_LDT_1,2024.2.4,MacIntel,59.88023952,,,,,,,,,,,,,,,,,,,,,,140.4976,140.6963,140.6964,141.1958,,,,,,,,,,,,,,1.1044,1,,,,,,,,,,,,,,z,,,,,,,,,,,,,,,13,0,141.1962,142.3131,z,1,1.1044,,[],[],[],[],[],[],[],142.3132,144.3126,144.3127,144.3129,[],[],[],[],[],[],[],,144.3131,144.3132,0.037171649,-0.217793252,0,0,0,,0,12,12,11,1,2,RL,formuke,print,formuke_p.png,,,,,,
,,,,32121,001,2025-10-16_15h24.27.080,HW_LDT_1,2024.2.4,MacIntel,59.88023952,,,,,,,,,,,,,,,,,,,,,,144.3147,144.5121,144.5122,145.0133,,,,,,,,,,,,,,4.0149,0,,,,,,,,,,,,,,m,,,,,,,,,,,,,,,14,0,145.014,149.0299,z,0,4.0149,,[],[],[],[],[],[],[],149.03,151.0301,151.0301,151.0303,[],[],[],[],[],[],[],,151.0304,151.0304,0.037171649,-0.217793252,0,0,0,,0,13,13,109,1,2,word,GRATEFUL,cursive,grateful_c.png,,,,,,
,,,,32121,001,2025-10-16_15h24.27.080,HW_LDT_1,2024.2.4,MacIntel,59.88023952,,,,,,,,,,,,,,,,,,,,,,151.0316,151.2294,151.2296,151.7296,,,,,,,,,,,,,,1.7026,1,,,,,,,,,,,,,,m,,,,,,,,,,,,,,,15,0,151.7301,153.4462,m,1,1.7026,,[],[],[],[],[],[],[],153.4462,155.4462,155.4463,155.4464,[],[],[],[],[],[],[],,155.4464,155.4466,0.037171649,-0.217793252,0,0,0,,0,14,14,141,1,2,word,RELIGION,cursive,religion_c.png,,,,,,
,,,,32121,001,2025-10-16_15h24.27.080,HW_LDT_1,2024.2.4,MacIntel,59.88023952,,,,,,,,,,,,,,,,,,,,,,155.4474,155.6464,155.6465,156.1467,,,,,,,,,,,,,,0.9637,1,,,,,,,,,,,,,,m,,,,,,,,,,,,,,,16,0,156.1471,157.113,m,1,0.9637,,[],[],[],[],[],[],[],157.1131,159.1135,159.1135,159.1138,[],[],[],[],[],[],[],,159.1138,159.1139,0.037171649,-0.217793252,0,0,0,,0,15,15,158,1,2,word,VELOCITY,print,velocity_p.png,,,,,,
,,,,32121,001,2025-10-16_15h24.27.080,HW_LDT_1,2024.2.4,MacIntel,59.88023952,,,,,,,,,,,,,,,,,,,,,,159.115,159.3135,159.3136,159.8135,,,,,,,,,,,,,,0.723,1,,,,,,,,,,,,,,m,,,,,,,,,,,,,,,17,0,159.8139,160.5469,m,1,0.723,,[],[],[],[],[],[],[],160.5469,162.547,162.547,162.5471,[],[],[],[],[],[],[],,162.5472,162.5473,0.037171649,-0.217793252,0,0,0,,0,16,16,101,1,2,word,DELICATE,print,delicate_p.png,,,,,,
,,,,32121,001,2025-10-16_15h24.27.080,HW_LDT_1,2024.2.4,MacIntel,59.88023952,,,,,,,,,,,,,,,,,,,,,,162.5482,162.746,162.746,163.247,,,,,,,,,,,,,,0.9647,1,,,,,,,,,,,,,,z,,,,,,,,,,,,,,,18,1,163.2476,164.2136,z,1,0.9647,,[],[],[],[],[],[],[],164.2136,166.2137,166.2137,169.814,[],[],[],[],[],[],[],m,169.814,169.8141,0.037171649,-0.217793252,0,0,0,,0,17,17,55,1,2,TL,lotace,print,lotace_p.png,3.5874,,,,,
,,,,32121,001,2025-10-16_15h24.27.080,HW_LDT_1,2024.2.4,MacIntel,59.88023952,,,,,,,,,,,,,,,,,,,,,,169.8151,170.0138,170.0138,170.514,,,,,,,,,,,,,,1.5464,1,,,,,,,,,,,,,,m,,,,,,,,,,,,,,,19,1,170.5146,172.0629,m,1,1.5464,,[],[],[],[],[],[],[],172.0629,174.0629,174.063,175.6974,[],[],[],[],[],[],[],z,175.6974,175.6977,0.037171649,-0.217793252,0,0,0,,0,18,18,107,1,2,word,EVIDENT,cursive,evident_c.png,1.6215,,,,,
,,,,32121,001,2025-10-16_15h24.27.080,HW_LDT_1,2024.2.4,MacIntel,59.88023952,,,,,,,,,,,,,,,,,,,,,,175.6988,175.8968,175.8968,176.3971,,,,,,,,,,,,,,1.9159,1,,,,,,,,,,,,,,z,,,,,,,,,,,,,,,20,0,176.3976,178.314,z,1,1.9159,,[],[],[],[],[],[],[],178.314,180.3141,180.3141,180.3142,[],[],[],[],[],[],[],,180.3142,180.3143,0.037171649,-0.217793252,0,0,0,,0,19,19,79,1,2,TL,vadility,print,vadility_p.png,,,,,,
,,,,32121,001,2025-10-16_15h24.27.080,HW_LDT_1,2024.2.4,MacIntel,59.88023952,,,,,,,,,,,,,,,,,,,,,,180.3152,180.5143,180.5144,181.0137,,,,,,,,,,,,,,1.7023,1,,,,,,,,,,,,,,m,,,,,,,,,,,,,,,21,0,181.0142,182.7298,m,1,1.7023,,[],[],[],[],[],[],[],182.7298,184.7309,184.7309,184.731,[],[],[],[],[],[],[],,184.7311,184.7312,0.037171649,-0.217793252,0,0,0,,0,20,20,124,1,2,word,NUMERICAL,cursive,numerical_c.png,,,,,,
,,,,32121,001,2025-10-16_15h24.27.080,HW_LDT_1,2024.2.4,MacIntel,59.88023952,,,,,,,,,,,,,,,,,,,,,,184.7319,184.9305,184.9306,185.4301,,,,,,,,,,,,,,0.8867,1,,,,,,,,,,,,,,m,,,,,,,,,,,,,,,22,1,185.4305,186.3309,m,1,0.8867,,[],[],[],[],[],[],[],186.3309,188.3299,188.3299,190.2977,[],[],[],[],[],[],[],m,190.2978,190.2979,0.037171649,-0.217793252,0,0,0,,0,21,21,137,1,2,word,RAPIDLY,print,rapidly_p.png,1.9604,,,,,
,,,,32121,001,2025-10-16_15h24.27.080,HW_LDT_1,2024.2.4,MacIntel,59.88023952,,,,,,,,,,,,,,,,,,,,,,190.2988,190.4977,190.4977,190.9972,,,,,,,,,,,,,,1.4468,1,,,,,,,,,,,,,,m,,,,,,,,,,,,,,,23,0,190.9978,192.4471,m,1,1.4468,,[],[],[],[],[],[],[],192.4472,194.4479,194.4479,194.4481,[],[],[],[],[],[],[],,194.4482,194.4482,0.037171649,-0.217793252,0,0,0,,0,22,22,87,1,2,word,CAFETERIA,print,cafeteria_p.png,,,,,,
,,,,32121,001,2025-10-16_15h24.27.080,HW_LDT_1,2024.2.4,MacIntel,59.88023952,,,,,,,,,,,,,,,,,,,,,,194.4491,194.6477,194.6478,195.1478,,,,,,,,,,,,,,2.7239,1,,,,,,,,,,,,,,z,,,,,,,,,,,,,,,24,0,195.1482,197.8814,z,1,2.7239,,[],[],[],[],[],[],[],197.8817,199.8808,199.8809,199.8811,[],[],[],[],[],[],[],,199.8811,199.8813,0.037171649,-0.217793252,0,0,0,,0,23,23,59,1,2,TL,miskate,cursive,miskate_c.png,,,,,,
,,,,32121,001,2025-10-16_15h24.27.080,HW_LDT_1,2024.2.4,MacIntel,59.88023952,,,,,,,,,,,,,,,,,,,,,,199.8827,200.0812,200.0813,200.5804,,,,,,,,,,,,,,1.2314,1,,,,,,,,,,,,,,z,,,,,,,,,,,,,,,25,0,200.581,201.8146,z,1,1.2314,,[],[],[],[],[],[],[],201.8148,203.8147,203.8148,203.8149,[],[],[],[],[],[],[],,203.815,203.815,0.037171649,-0.217793252,0,0,0,,0,24,24,4,1,2,RL,cenesony,print,cenesony_p.png,,,,,,
,,,,32121,001,2025-10-16_15h24.27.080,HW_LDT_1,2024.2.4,MacIntel,59.88023952,,,,,,,,,,,,,,,,,,,,,,203.816,204.0134,204.0135,204.5148,,,,,,,,,,,,,,1.9939,1,,,,,,,,,,,,,,z,,,,,,,,,,,,,,,26,0,204.5155,206.5145,z,1,1.9939,,[],[],[],[],[],[],[],206.5146,208.5149,208.515,208.5153,[],[],[],[],[],[],[],,208.5154,208.5155,0.037171649,-0.217793252,0,0,0,,0,25,25,12,1,2,RL,gralekul,cursive,gralekul_c.png,,,,,,
,,,,32121,001,2025-10-16_15h24.27.080,HW_LDT_1,2024.2.4,MacIntel,59.88023952,,,,,,,,,,,,,,,,,,,,,,208.5169,208.7149,208.715,209.2147,,,,,,,,,,,,,,2.2746,0,,,,,,,,,,,,,,m,,,,,,,,,,,,,,,27,0,209.2151,211.4984,z,0,2.2746,,[],[],[],[],[],[],[],211.4985,213.4981,213.4983,213.4985,[],[],[],[],[],[],[],,213.4986,213.4986,0.037171649,-0.217793252,0,0,0,,0,26,26,146,1,2,word,RETIRE,cursive,retire_c.png,,,,,,
,,,,32121,001,2025-10-16_15h24.27.080,HW_LDT_1,2024.2.4,MacIntel,59.88023952,,,,,,,,,,,,,,,,,,,,,,213.5002,213.6975,213.6975,214.198,,,,,,,,,,,,,,1.6718,1,,,,,,,,,,,,,,z,,,,,,,,,,,,,,,28,0,214.1983,215.8817,z,1,1.6718,,[],[],[],[],[],[],[],215.8818,217.8818,217.8818,217.8819,[],[],[],[],[],[],[],,217.8819,217.882,0.037171649,-0.217793252,0,0,0,,0,27,27,39,1,2,TL,aminal,print,aminal_p.png,,,,,,
,,,,32121,001,2025-10-16_15h24.27.080,HW_LDT_1,2024.2.4,MacIntel,59.88023952,,,,,,,,,,,,,,,,,,,,,,217.8829,218.0821,218.0821,218.5807,,,,,,,,,,,,,,0.9831,1,,,,,,,,,,,,,,m,,,,,,,,,,,,,,,29,1,218.5812,219.5651,m,1,0.9831,,[],[],[],[],[],[],[],219.5651,221.5648,221.5649,223.0322,[],[],[],[],[],[],[],m,223.0323,223.0324,0.037171649,-0.217793252,0,0,0,,0,28,28,130,1,2,word,POLICY,print,policy_p.png,1.4659,,,,,
,,,,32121,001,2025-10-16_15h24.27.080,HW_LDT_1,2024.2.4,MacIntel,59.88023952,,,,,,,,,,,,,,,,,,,,,,223.0339,223.2317,223.2318,223.7319,,,,,,,,,,,,,,1.5361,1,,,,,,,,,,,,,,z,,,,,,,,,,,,,,,30,1,223.7324,225.2811,z,1,1.5361,,[],[],[],[],[],[],[],225.2811,227.2822,227.2823,230.2146,[],[],[],[],[],[],[],m,230.2147,230.2149,0.037171649,-0.217793252,0,0,0,,0,29,29,60,1,2,TL,molibe,print,molibe_p.png,2.9198,,,,,
,,,,32121,001,2025-10-16_15h24.27.080,HW_LDT_1,2024.2.4,MacIntel,59.88023952,,,,,,,,,,,,,,,,,,,,,,230.2159,230.4155,230.4155,230.9155,,,,,,,,,,,,,,5.271,1,,,,,,,,,,,,,,z,,,,,,,,,,,,,,,31,0,230.9162,236.1989,z,1,5.271,,[],[],[],[],[],[],[],236.1991,238.1991,238.1991,238.1994,[],[],[],[],[],[],[],,238.1995,238.1997,0.037171649,-0.217793252,0,0,0,,0,30,30,61,1,2,TL,nuremical,cursive,nuremical_c.png,,,,,,
,,,,32121,001,2025-10-16_15h24.27.080,HW_LDT_1,2024.2.4,MacIntel,59.88023952,,,,,,,,,,,,,,,,,,,,,,238.2014,238.3989,238.3989,238.8992,,,,,,,,,,,,,,1.1631,1,,,,,,,,,,,,,,z,,,,,,,,,,,,,,,32,0,238.8998,240.0656,z,1,1.1631,,[],[],[],[],[],[],[],240.0656,242.0658,242.0658,242.066,[],[],[],[],[],[],[],,242.066,242.0661,0.037171649,-0.217793252,0,0,0,,0,31,31,0,1,2,RL,adnicory,print,adnicory_p.png,,,,,,
,,,,32121,001,2025-10-16_15h24.27.080,HW_LDT_1,2024.2.4,MacIntel,59.88023952,,,,,,,,,,,,,,,,,,,,,,242.0668,242.266,242.2661,242.7655,,,,,,,,,,,,,,1.1523,1,,,,,,,,,,,,,,m,,,,,,,,,,,,,,,33,0,242.7658,243.9325,m,1,1.1523,,[],[],[],[],[],[],[],243.9325,245.9324,245.9325,245.9326,[],[],[],[],[],[],[],,245.9326,245.9328,0.037171649,-0.217793252,0,0,0,,0,32,32,118,1,2,word,MEDICINE,print,medicine_p.png,,,,,,
,,,,32121,001,2025-10-16_15h24.27.080,HW_LDT_1,2024.2.4,MacIntel,59.88023952,,,,,,,,,,,,,,,,,,,,,,245.9336,246.1327,246.1327,246.632,,,,,,,,,,,,,,1.5494,1,,,,,,,,,,,,,,z,,,,,,,,,,,,,,,34,0,246.6324,248.1825,z,1,1.5494,,[],[],[],[],[],[],[],248.1827,250.1821,250.1821,250.1823,[],[],[],[],[],[],[],,250.1825,250.1826,0.037171649,-0.217793252,0,0,0,,0,33,33,16,1,2,RL,losipal,print,losipal_p.png,,,,,,
,,,,32121,001,2025-10-16_15h24.27.080,HW_LDT_1,2024.2.4,MacIntel,59.88023952,,,,,,,,,,,,,,,,,,,,,,250.184,250.3826,250.3827,250.8827,,,,,,,,,,,,,,2.3989,1,,,,,,,,,,,,,,z,,,,,,,,,,,,,,,35,1,250.8833,253.2828,z,1,2.3989,,[],[],[],[],[],[],[],253.2829,255.2828,255.2828,256.4328,[],[],[],[],[],[],[],z,256.4328,256.433,0.037171649,-0.217793252,0,0,0,,0,34,34,23,1,2,RL,procogal,cursive,procogal_c.png,1.1372,,,,,
,,,,32121,001,2025-10-16_15h24.27.080,HW_LDT_1,2024.2.4,MacIntel,59.88023952,,,,,,,,,,,,,,,,,,,,,,256.4339,256.6323,256.6324,257.133,,,,,,,,,,,,,,1.2689,1,,,,,,,,,,,,,,m,,,,,,,,,,,,,,,36,0,257.1337,258.4152,m,1,1.2689,,[],[],[],[],[],[],[],258.4153,260.4161,260.4162,260.4164,[],[],[],[],[],[],[],,260.4164,260.4165,0.037171649,-0.217793252,0,0,0,,0,35,35,83,1,2,word,ANIMAL,print,animal_p.png,,,,,,
,,,,32121,001,2025-10-16_15h24.27.080,HW_LDT_1,2024.2.4,MacIntel,59.88023952,,,,,,,,,,,,,,,,,,,,,,260.4175,260.6163,260.6163,261.1165,,,,,,,,,,,,,,0.8989,1,,,,,,,,,,,,,,z,,,,,,,,,,,,,,,37,0,261.1171,262.0168,z,1,0.8989,,[],[],[],[],[],[],[],262.0169,264.0165,264.0165,264.0168,[],[],[],[],[],[],[],,264.0169,264.0171,0.037171649,-0.217793252,0,0,0,,0,36,36,78,1,2,TL,stogare,print,stogare_p.png,,,,,,
,,,,32121,001,2025-10-16_15h24.27.080,HW_LDT_1,2024.2.4,MacIntel,59.88023952,,,,,,,,,,,,,,,,,,,,,,264.0184,264.2163,264.2163,264.7167,,,,,,,,,,,,,,3.7208,1,,,,,,,,,,,,,,z,,,,,,,,,,,,,,,38,0,264.7172,268.4499,z,1,3.7208,,[],[],[],[],[],[],[],268.45,270.4499,270.4499,270.4501,[],[],[],[],[],[],[],,270.4502,270.4503,0.037171649,-0.217793252,0,0,0,,0,37,37,57,1,2,TL,meromy,cursive,meromy_c.png,,,,,,
,,,,32121,001,2025-10-16_15h24.27.080,HW_LDT_1,2024.2.4,MacIntel,59.88023952,,,,,,,,,,,,,,,,,,,,,,270.451,270.6492,270.6493,271.1492,,,,,,,,,,,,,,1.2147,1,,,,,,,,,,,,,,m,,,,,,,,,,,,,,,39,0,271.1497,272.3664,m,1,1.2147,,[],[],[],[],[],[],[],272.3664,274.3667,274.3667,274.3669,[],[],[],[],[],[],[],,274.3669,274.367,0.037171649,-0.217793252,0,0,0,,0,38,38,89,1,2,word,CAPACITY,print,capacity_p.png,,,,,,
,,,,32121,001,2025-10-16_15h24.27.080,HW_LDT_1,2024.2.4,MacIntel,59.88023952,,,,,,,,,,,,,,,,,,,,,,274.3679,274.5666,274.5666,275.0668,,,,,,,,,,,,,,0.953,1,,,,,,,,,,,,,,z,,,,,,,,,,,,,,,40,1,275.0676,276.0334,z,1,0.953,,[],[],[],[],[],[],[],276.0335,278.0334,278.0334,279.6835,[],[],[],[],[],[],[],m,279.6835,279.6836,0.037171649,-0.217793252,0,0,0,,0,39,39,36,1,2,RL,vecelan,print,vecelan_p.png,1.6439,,,,,
,,,,32121,001,2025-10-16_15h24.27.080,HW_LDT_1,2024.2.4,MacIntel,59.88023952,,,,,,,,,,,,,,,,,,,,,,279.6846,279.8834,279.8835,280.3824,,,,,,,,,,,,,,1.3199,1,,,,,,,,,,,,,,z,,,,,,,,,,,,,,,41,0,280.3828,281.7159,z,1,1.3199,,[],[],[],[],[],[],[],281.716,283.7168,283.7168,283.7171,[],[],[],[],[],[],[],,283.7171,283.7171,0.037171649,-0.217793252,0,0,0,,0,40,40,2,1,2,RL,casagity,print,casagity_p.png,,,,,,
,,,,32121,001,2025-10-16_15h24.27.080,HW_LDT_1,2024.2.4,MacIntel,59.88023952,,,,,,,,,,,,,,,,,,,,,,283.718,283.9171,283.9172,284.4171,,,,,,,,,,,,,,2.5392,1,,,,,,,,,,,,,,m,,,,,,,,,,,,,,,42,1,284.4187,286.9667,m,1,2.5392,,[],[],[],[],[],[],[],286.9668,288.9665,288.9665,290.7004,[],[],[],[],[],[],[],z,290.7004,290.7006,0.037171649,-0.217793252,0,0,0,,0,41,41,133,1,2,word,PROVIDE,cursive,provide_c.png,1.7254,,,,,
,,,,32121,001,2025-10-16_15h24.27.080,HW_LDT_1,2024.2.4,MacIntel,59.88023952,,,,,,,,,,,,,,,,,,,,,,290.7014,290.9004,290.9004,291.4006,,,,,,,,,,,,,,1.4563,1,,,,,,,,,,,,,,m,,,,,,,,,,,,,,,43,0,291.4013,292.8672,m,1,1.4563,,[],[],[],[],[],[],[],292.8674,294.8668,294.867,294.8672,[],[],[],[],[],[],[],,294.8672,294.8673,0.037171649,-0.217793252,0,0,0,,0,42,42,99,1,2,word,DEBATE,print,debate_p.png,,,,,,
,,,,32121,001,2025-10-16_15h24.27.080,HW_LDT_1,2024.2.4,MacIntel,59.88023952,,,,,,,,,,,,,,,,,,,,,,294.8686,295.0672,295.0673,295.5672,,,,,,,,,,,,,,2.8028,1,,,,,,,,,,,,,,m,,,,,,,,,,,,,,,44,0,295.5678,298.3839,m,1,2.8028,,[],[],[],[],[],[],[],298.3841,300.3841,300.3842,300.3844,[],[],[],[],[],[],[],,300.3844,300.3846,0.037171649,-0.217793252,0,0,0,,0,43,43,132,1,2,word,PROPOSAL,cursive,proposal_c.png,,,,,,
,,,,32121,001,2025-10-16_15h24.27.080,HW_LDT_1,2024.2.4,MacIntel,59.88023952,,,,,,,,,,,,,,,,,,,,,,300.3859,300.5839,300.584,301.0835,,,,,,,,,,,,,,1.3248,1,,,,,,,,,,,,,,m,,,,,,,,,,,,,,,45,0,301.0839,302.4177,m,1,1.3248,,[],[],[],[],[],[],[],302.4178,304.4175,304.4175,304.4177,[],[],[],[],[],[],[],,304.4177,304.4178,0.037171649,-0.217793252,0,0,0,,0,44,44,95,1,2,word,COMEDY,cursive,comedy_c.png,,,,,,
,,,,32121,001,2025-10-16_15h24.27.080,HW_LDT_1,2024.2.4,MacIntel,59.88023952,,,,,,,,,,,,,,,,,,,,,,304.4188,304.617,304.617,305.1177,,,,,,,,,,,,,,3.9681,1,,,,,,,,,,,,,,z,,,,,,,,,,,,,,,46,1,305.1183,309.101,z,1,3.9681,,[],[],[],[],[],[],[],309.101,311.1007,311.1007,311.9346,[],[],[],[],[],[],[],z,311.9347,311.9347,0.037171649,-0.217793252,0,0,0,,0,45,45,69,1,2,TL,resufal,cursive,resufal_c.png,0.8334,,,,,
,,,,32121,001,2025-10-16_15h24.27.080,HW_LDT_1,2024.2.4,MacIntel,59.88023952,,,,,,,,,,,,,,,,,,,,,,311.9359,312.1342,312.1343,312.6338,,,,,,,,,,,,,,2.5381,1,,,,,,,,,,,,,,z,,,,,,,,,,,,,,,47,0,312.6345,315.1844,z,1,2.5381,,[],[],[],[],[],[],[],315.1845,317.1844,317.1845,317.1846,[],[],[],[],[],[],[],,317.1847,317.1848,0.037171649,-0.217793252,0,0,0,,0,46,46,42,1,2,TL,bedise,cursive,bedise_c.png,,,,,,
,,,,32121,001,2025-10-16_15h24.27.080,HW_LDT_1,2024.2.4,MacIntel,59.88023952,,,,,,,,,,,,,,,,,,,,,,317.1856,317.3839,317.384,317.884,,,,,,,,,,,,,,4.633,1,,,,,,,,,,,,,,z,,,,,,,,,,,,,,,48,0,317.8863,322.5347,z,1,4.633,,[],[],[],[],[],[],[],322.5348,324.5344,324.5344,324.5346,[],[],[],[],[],[],[],,324.5346,324.5347,0.037171649,-0.217793252,0,0,0,,0,47,47,5,1,2,RL,clisimal,cursive,clisimal_c.png,,,,,,
,,,,32121,001,2025-10-16_15h24.27.080,HW_LDT_1,2024.2.4,MacIntel,59.88023952,,,,,,,,,,,,,,,,,,,,,,324.5369,324.7348,324.735,325.2342,,,,,,,,,,,,,,2.6596,1,,,,,,,,,,,,,,z,,,,,,,,,,,,,,,49,0,325.2346,327.9011,z,1,2.6596,,[],[],[],[],[],[],[],327.9014,329.9016,329.9016,329.9018,[],[],[],[],[],[],[],,329.9019,329.902,0.037171649,-0.217793252,0,0,0,,0,48,48,29,1,2,RL,samite,cursive,samite_c.png,,,,,,
,,,,32121,001,2025-10-16_15h24.27.080,HW_LDT_1,2024.2.4,MacIntel,59.88023952,,,,,,,,,,,,,,,,,,,,,,329.9033,330.1016,330.1016,330.6015,,,,,,,,,,,,,,1.3402,1,,,,,,,,,,,,,,z,,,,,,,,,,,,,,,50,0,330.6019,331.9512,z,1,1.3402,,[],[],[],[],[],[],[],331.9513,333.9516,333.9517,333.9518,[],[],[],[],[],[],[],,333.9518,333.9519,0.037171649,-0.217793252,0,0,0,,0,49,49,43,1,2,TL,carema,print,carema_p.png,,,,,,
,,,,32121,001,2025-10-16_15h24.27.080,HW_LDT_1,2024.2.4,MacIntel,59.88023952,,,,,,,,,,,,,,,,,,,,,,333.9529,334.1517,334.1518,334.6518,,,,,,,,,,,,,,2.0289,1,,,,,,,,,,,,,,z,,,,,,,,,,,,,,,51,0,334.6522,336.6846,z,1,2.0289,,[],[],[],[],[],[],[],336.6847,338.6851,338.6852,338.6855,[],[],[],[],[],[],[],,338.6855,338.6856,0.037171649,-0.217793252,0,0,0,,0,50,50,70,1,2,TL,retalive,print,retalive_p.png,,,,,,
,,,,32121,001,2025-10-16_15h24.27.080,HW_LDT_1,2024.2.4,MacIntel,59.88023952,,,,,,,,,,,,,,,,,,,,,,338.6867,338.8851,338.8851,339.3853,,,,,,,,,,,,,,1.2082,1,,,,,,,,,,,,,,m,,,,,,,,,,,,,,,52,0,339.3858,340.6019,m,1,1.2082,,[],[],[],[],[],[],[],340.6019,342.602,342.6021,342.6023,[],[],[],[],[],[],[],,342.6024,342.6025,0.037171649,-0.217793252,0,0,0,,0,51,51,149,1,2,word,SENATOR,print,senator_p.png,,,,,,
,,,,32121,001,2025-10-16_15h24.27.080,HW_LDT_1,2024.2.4,MacIntel,59.88023952,,,,,,,,,,,,,,,,,,,,,,342.6038,342.8018,342.8019,343.3018,,,,,,,,,,,,,,3.0124,0,,,,,,,,,,,,,,m,,,,,,,,,,,,,,,53,0,343.3022,346.3183,z,0,3.0124,,[],[],[],[],[],[],[],346.3183,348.3186,348.3186,348.3187,[],[],[],[],[],[],[],,348.3188,348.3189,0.037171649,-0.217793252,0,0,0,,0,52,52,145,1,2,word,RESUME,cursive,resume_c.png,,,,,,
,,,,32121,001,2025-10-16_15h24.27.080,HW_LDT_1,2024.2.4,MacIntel,59.88023952,,,,,,,,,,,,,,,,,,,,,,348.3199,348.5187,348.5187,349.0182,,,,,,,,,,,,,,3.7196,1,,,,,,,,,,,,,,z,,,,,,,,,,,,,,,54,0,349.0187,352.7523,z,1,3.7196,,[],[],[],[],[],[],[],352.7524,354.7523,354.7524,354.7525,[],[],[],[],[],[],[],,354.7525,354.7527,0.037171649,-0.217793252,0,0,0,,0,53,53,10,1,2,RL,disluge,cursive,disluge_c.png,,,,,,
,,,,32121,001,2025-10-16_15h24.27.080,HW_LDT_1,2024.2.4,MacIntel,59.88023952,,,,,,,,,,,,,,,,,,,,,,354.754,354.9516,354.9516,355.4521,,,,,,,,,,,,,,0.8438,1,,,,,,,,,,,,,,m,,,,,,,,,,,,,,,55,0,355.4536,356.3023,m,1,0.8438,,[],[],[],[],[],[],[],356.3024,358.3024,358.3025,358.3027,[],[],[],[],[],[],[],,358.3028,358.3029,0.037171649,-0.217793252,0,0,0,,0,54,54,153,1,2,word,STOLEN,print,stolen_p.png,,,,,,
,,,,32121,001,2025-10-16_15h24.27.080,HW_LDT_1,2024.2.4,MacIntel,59.88023952,,,,,,,,,,,,,,,,,,,,,,358.3042,358.5024,358.5024,359.0019,,,,,,,,,,,,,,0.9859,1,,,,,,,,,,,,,,z,,,,,,,,,,,,,,,56,0,359.0026,360.0033,z,1,0.9859,,[],[],[],[],[],[],[],360.0034,362.002,362.0021,362.0022,[],[],[],[],[],[],[],,362.0023,362.0024,0.037171649,-0.217793252,0,0,0,,0,55,55,8,1,2,RL,desifate,print,desifate_p.png,,,,,,
,,,,32121,001,2025-10-16_15h24.27.080,HW_LDT_1,2024.2.4,MacIntel,59.88023952,,,,,,,,,,,,,,,,,,,,,,362.0055,362.2023,362.2023,362.7025,,,,,,,,,,,,,,1.1132,1,,,,,,,,,,,,,,z,,,,,,,,,,,,,,,57,0,362.7031,363.8191,z,1,1.1132,,[],[],[],[],[],[],[],363.8193,365.8194,365.8195,365.8197,[],[],[],[],[],[],[],,365.8197,365.8198,0.037171649,-0.217793252,0,0,0,,0,56,56,1,1,2,RL,caleberia,print,caleberia_p.png,,,,,,
,,,,32121,001,2025-10-16_15h24.27.080,HW_LDT_1,2024.2.4,MacIntel,59.88023952,,,,,,,,,,,,,,,,,,,,,,365.8213,366.0192,366.0192,366.5193,,,,,,,,,,,,,,0.8485,1,,,,,,,,,,,,,,z,,,,,,,,,,,,,,,58,1,366.52,367.3691,z,1,0.8485,,[],[],[],[],[],[],[],367.3691,369.3693,369.3694,370.6195,[],[],[],[],[],[],[],m,370.6196,370.6197,0.037171649,-0.217793252,0,0,0,,0,57,57,6,1,2,RL,conbicer,print,conbicer_p.png,1.2416,,,,,
,,,,32121,001,2025-10-16_15h24.27.080,HW_LDT_1,2024.2.4,MacIntel,59.88023952,,,,,,,,,,,,,,,,,,,,,,370.6207,370.8193,370.8193,371.3189,,,,,,,,,,,,,,4.3032,1,,,,,,,,,,,,,,z,,,,,,,,,,,,,,,59,0,371.3195,375.6352,z,1,4.3032,,[],[],[],[],[],[],[],375.6353,377.6363,377.6364,377.6366,[],[],[],[],[],[],[],,377.6367,377.6369,0.037171649,-0.217793252,0,0,0,,0,58,58,52,1,2,TL,elarobate,cursive,elarobate_c.png,,,,,,
,,,,32121,001,2025-10-16_15h24.27.080,HW_LDT_1,2024.2.4,MacIntel,59.88023952,,,,,,,,,,,,,,,,,,,,,,377.6383,377.8361,377.8362,378.3363,,,,,,,,,,,,,,0.8032,1,,,,,,,,,,,,,,m,,,,,,,,,,,,,,,60,0,378.337,379.1531,m,1,0.8032,,[],[],[],[],[],[],[],379.1531,381.1529,381.153,381.1532,[],[],[],[],[],[],[],,381.1533,381.1534,0.037171649,-0.217793252,0,0,0,,0,59,59,147,1,2,word,ROMANTIC,print,romantic_p.png,,,,,,
,,,,32121,001,2025-10-16_15h24.27.080,HW_LDT_1,2024.2.4,MacIntel,59.88023952,,,,,,,,,,,,,,,,,,,,,,381.1546,381.3529,381.353,381.8519,,,,,,,,,,,,,,4.4296,0,,,,,,,,,,,,,,m,,,,,,,,,,,,,,,61,0,381.8524,386.2865,z,0,4.4296,,[],[],[],[],[],[],[],386.2866,388.2863,388.2864,388.2865,[],[],[],[],[],[],[],,388.2866,388.2867,0.037171649,-0.217793252,0,0,0,,0,60,60,125,1,2,word,OPERATOR,cursive,operator_c.png,,,,,,
,,,,32121,001,2025-10-16_15h24.27.080,HW_LDT_1,2024.2.4,MacIntel,59.88023952,,,,,,,,,,,,,,,,,,,,,,388.2874,388.4865,388.4865,388.9866,,,,,,,,,,,,,,1.2033,1,,,,,,,,,,,,,,m,,,,,,,,,,,,,,,62,0,388.9873,390.2022,m,1,1.2033,,[],[],[],[],[],[],[],390.2023,392.2027,392.2029,392.203,[],[],[],[],[],[],[],,392.203,392.2031,0.037171649,-0.217793252,0,0,0,,0,61,61,152,1,2,word,SPECIMEN,print,specimen_p.png,,,,,,
,,,,32121,001,2025-10-16_15h24.27.080,HW_LDT_1,2024.2.4,MacIntel,59.88023952,,,,,,,,,,,,,,,,,,,,,,392.2043,392.403,392.403,392.9023,,,,,,,,,,,,,,1.6961,1,,,,,,,,,,,,,,m,,,,,,,,,,,,,,,63,0,392.9043,394.6026,m,1,1.6961,,[],[],[],[],[],[],[],394.6027,396.6036,396.6037,396.6038,[],[],[],[],[],[],[],,396.6039,396.6041,0.037171649,-0.217793252,0,0,0,,0,62,62,108,1,2,word,FORTUNE,print,fortune_p.png,,,,,,
,,,,32121,001,2025-10-16_15h24.27.080,HW_LDT_1,2024.2.4,MacIntel,59.88023952,,,,,,,,,,,,,,,,,,,,,,396.6053,396.8033,396.8034,397.3025,,,,,,,,,,,,,,1.4975,1,,,,,,,,,,,,,,m,,,,,,,,,,,,,,,64,0,397.303,398.8033,m,1,1.4975,,[],[],[],[],[],[],[],398.8034,400.8035,400.8035,400.8036,[],[],[],[],[],[],[],,400.8037,400.8037,0.037171649,-0.217793252,0,0,0,,0,63,63,94,1,2,word,CLINICAL,cursive,clinical_c.png,,,,,,
,,,,32121,001,2025-10-16_15h24.27.080,HW_LDT_1,2024.2.4,MacIntel,59.88023952,,,,,,,,,,,,,,,,,,,,,,400.8046,401.0035,401.0036,401.5035,,,,,,,,,,,,,,3.4068,1,,,,,,,,,,,,,,z,,,,,,,,,,,,,,,65,0,401.504,404.9204,z,1,3.4068,,[],[],[],[],[],[],[],404.9205,406.9203,406.9203,406.9204,[],[],[],[],[],[],[],,406.9204,406.9206,0.037171649,-0.217793252,0,0,0,,0,64,64,27,1,2,RL,repifion,cursive,repifion_c.png,,,,,,
,,,,32121,001,2025-10-16_15h24.27.080,HW_LDT_1,2024.2.4,MacIntel,59.88023952,,,,,,,,,,,,,,,,,,,,,,406.9215,407.1203,407.1204,407.6205,,,,,,,,,,,,,,4.1411,0,,,,,,,,,,,,,,m,,,,,,,,,,,,,,,66,0,407.6211,411.7699,z,0,4.1411,,[],[],[],[],[],[],[],411.77,413.7695,413.7696,413.7697,[],[],[],[],[],[],[],,413.7697,413.7699,0.037171649,-0.217793252,0,0,0,,0,65,65,134,1,2,word,QUALIFY,cursive,qualify_c.png,,,,,,
,,,,32121,001,2025-10-16_15h24.27.080,HW_LDT_1,2024.2.4,MacIntel,59.88023952,,,,,,,,,,,,,,,,,,,,,,413.7709,413.9706,413.9707,414.4699,,,,,,,,,,,,,,1.0361,1,,,,,,,,,,,,,,m,,,,,,,,,,,,,,,67,0,414.4703,415.5206,m,1,1.0361,,[],[],[],[],[],[],[],415.5207,417.5199,417.5199,417.5201,[],[],[],[],[],[],[],,417.5201,417.5202,0.037171649,-0.217793252,0,0,0,,0,66,66,112,1,2,word,LIBERAL,print,liberal_p.png,,,,,,
,,,,32121,001,2025-10-16_15h24.27.080,HW_LDT_1,2024.2.4,MacIntel,59.88023952,,,,,,,,,,,,,,,,,,,,,,417.521,417.7205,417.7206,418.2195,,,,,,,,,,,,,,1.4151,1,,,,,,,,,,,,,,z,,,,,,,,,,,,,,,68,0,418.2199,419.6374,z,1,1.4151,,[],[],[],[],[],[],[],419.6375,421.6363,421.6364,421.6365,[],[],[],[],[],[],[],,421.6365,421.6366,0.215104167,0.155904665,0,0,0,,0,67,67,30,1,2,RL,selamor,print,selamor_p.png,,,,,,
,,,,32121,001,2025-10-16_15h24.27.080,HW_LDT_1,2024.2.4,MacIntel,59.88023952,,,,,,,,,,,,,,,,,,,,,,421.6373,421.8373,421.8374,422.3374,,,,,,,,,,,,,,1.4554,0,,,,,,,,,,,,,,m,,,,,,,,,,,,,,,69,0,422.3381,423.8041,z,0,1.4554,,[],[],[],[],[],[],[],423.8042,425.8042,425.8043,425.8044,[],[],[],[],[],[],[],,425.8044,425.8045,0.215104167,0.155904665,0,0,0,,0,68,68,139,1,2,word,REGULAR,cursive,regular_c.png,,,,,,
,,,,32121,001,2025-10-16_15h24.27.080,HW_LDT_1,2024.2.4,MacIntel,59.88023952,,,,,,,,,,,,,,,,,,,,,,425.8054,426.0044,426.0044,426.5043,,,,,,,,,,,,,,1.5152,1,,,,,,,,,,,,,,z,,,,,,,,,,,,,,,70,0,426.5047,428.0209,z,1,1.5152,,[],[],[],[],[],[],[],428.0209,430.0202,430.0203,430.0203,[],[],[],[],[],[],[],,430.0204,430.0205,0.215104167,0.155904665,0,0,0,,0,69,69,38,1,2,TL,atameur,cursive,atameur_c.png,,,,,,
,,,,32121,001,2025-10-16_15h24.27.080,HW_LDT_1,2024.2.4,MacIntel,59.88023952,,,,,,,,,,,,,,,,,,,,,,430.0212,430.221,430.2211,430.7204,,,,,,,,,,,,,,0.9565,1,,,,,,,,,,,,,,z,,,,,,,,,,,,,,,71,0,430.7209,431.6874,z,1,0.9565,,[],[],[],[],[],[],[],431.6875,433.6867,433.6868,433.6869,[],[],[],[],[],[],[],,433.6869,433.6871,0.215104167,0.155904665,0,0,0,,0,70,70,13,1,2,RL,helicage,print,helicage_p.png,,,,,,
,,,,32121,001,2025-10-16_15h24.27.080,HW_LDT_1,2024.2.4,MacIntel,59.88023952,,,,,,,,,,,,,,,,,,,,,,433.6882,433.8878,433.8879,434.3877,,,,,,,,,,,,,,0.9106,1,,,,,,,,,,,,,,z,,,,,,,,,,,,,,,72,1,434.3882,435.3043,z,1,0.9106,,[],[],[],[],[],[],[],435.3043,437.3059,437.3059,438.5709,[],[],[],[],[],[],[],z,438.5711,438.5711,0.215104167,0.155904665,0,0,0,,0,71,71,20,1,2,RL,onegator,cursive,onegator_c.png,1.2605,,,,,
,,,,32121,001,2025-10-16_15h24.27.080,HW_LDT_1,2024.2.4,MacIntel,59.88023952,,,,,,,,,,,,,,,,,,,,,,438.5722,438.7703,438.7703,439.2711,,,,,,,,,,,,,,5.0316,1,,,,,,,,,,,,,,m,,,,,,,,,,,,,,,73,0,439.2728,444.3053,m,1,5.0316,,[],[],[],[],[],[],[],444.3053,446.3044,446.3045,446.3046,[],[],[],[],[],[],[],,446.3047,446.3048,0.215104167,0.155904665,0,0,0,,0,72,72,91,1,2,word,CARDINAL,cursive,cardinal_c.png,,,,,,
,,,,32121,001,2025-10-16_15h24.27.080,HW_LDT_1,2024.2.4,MacIntel,59.88023952,,,,,,,,,,,,,,,,,,,,,,446.3061,446.5047,446.5047,447.0049,,,,,,,,,,,,,,3.7356,1,,,,,,,,,,,,,,m,,,,,,,,,,,,,,,74,1,447.0072,450.7548,m,1,3.7356,,[],[],[],[],[],[],[],450.755,452.7545,452.7545,453.8717,[],[],[],[],[],[],[],z,453.8717,453.8719,0.215104167,0.155904665,0,0,0,,0,73,73,85,1,2,word,BENEFIT,cursive,benefit_c.png,1.1079,,,,,
,,,,32121,001,2025-10-16_15h24.27.080,HW_LDT_1,2024.2.4,MacIntel,59.88023952,,,,,,,,,,,,,,,,,,,,,,453.8742,454.071,454.071,454.5717,,,,,,,,,,,,,,3.6191,1,,,,,,,,,,,,,,z,,,,,,,,,,,,,,,75,0,454.5732,458.2051,z,1,3.6191,,[],[],[],[],[],[],[],458.2052,460.2051,460.2052,460.2053,[],[],[],[],[],[],[],,460.2053,460.2055,0.215104167,0.155904665,0,0,0,,0,74,74,45,1,2,TL,carnidal,cursive,carnidal_c.png,,,,,,
,,,,32121,001,2025-10-16_15h24.27.080,HW_LDT_1,2024.2.4,MacIntel,59.88023952,,,,,,,,,,,,,,,,,,,,,,460.2064,460.4041,460.4041,460.9047,,,,,,,,,,,,,,2.3682,1,,,,,,,,,,,,,,z,,,,,,,,,,,,,,,76,1,460.9067,463.2885,z,1,2.3682,,[],[],[],[],[],[],[],463.2886,465.2884,465.2885,467.0715,[],[],[],[],[],[],[],z,467.0715,467.0718,0.291253397,0.221382473,0,0,0,,0,75,75,37,1,2,TL,adacemy,cursive,adacemy_c.png,1.7821,,,,,
,,,,32121,001,2025-10-16_15h24.27.080,HW_LDT_1,2024.2.4,MacIntel,59.88023952,,,,,,,,,,,,,,,,,,,,,,467.0727,467.2721,467.2722,467.7716,,,,,,,,,,,,,,5.789,0,,,,,,,,,,,,,,m,,,,,,,,,,,,,,,77,1,467.7723,473.5722,z,0,5.789,,[],[],[],[],[],[],[],473.5723,475.5721,475.5721,477.0722,[],[],[],[],[],[],[],z,477.0722,477.0723,0.291253397,0.221382473,0,0,0,,0,76,76,111,1,2,word,INDICATE,cursive,indicate_c.png,1.4911,,,,,
,,,,32121,001,2025-10-16_15h24.27.080,HW_LDT_1,2024.2.4,MacIntel,59.88023952,,,,,,,,,,,,,,,,,,,,,,477.0743,477.2723,477.2724,477.7722,,,,,,,,,,,,,,4.2778,1,,,,,,,,,,,,,,m,,,,,,,,,,,,,,,78,0,477.7727,482.0549,m,1,4.2778,,[],[],[],[],[],[],[],482.055,484.0557,484.0557,484.0558,[],[],[],[],[],[],[],,484.0558,484.0559,0.291253397,0.221382473,0,0,0,,0,77,77,117,1,2,word,MARINE,cursive,marine_c.png,,,,,,
,,,,32121,001,2025-10-16_15h24.27.080,HW_LDT_1,2024.2.4,MacIntel,59.88023952,,,,,,,,,,,,,,,,,,,,,,484.0568,484.2554,484.2554,484.7553,,,,,,,,,,,,,,1.2991,0,,,,,,,,,,,,,,m,,,,,,,,,,,,,,,79,0,484.7598,486.0725,z,0,1.2991,,[],[],[],[],[],[],[],486.0725,488.0725,488.0725,488.0727,[],[],[],[],[],[],[],,488.0728,488.0728,0.291253397,0.221382473,0,0,0,,0,78,78,138,1,2,word,REFUSAL,cursive,refusal_c.png,,,,,,
,,,,32121,001,2025-10-16_15h24.27.080,HW_LDT_1,2024.2.4,MacIntel,59.88023952,,,,,,,,,,,,,,,,,,,,,,488.0798,488.2726,488.2726,488.7715,,,,,,,,,,,,,,2.0392,1,,,,,,,,,,,,,,z,,,,,,,,,,,,,,,80,0,488.7736,490.8214,z,1,2.0392,,[],[],[],[],[],[],[],490.8215,492.8227,492.8227,492.8228,[],[],[],[],[],[],[],,492.8228,788.0327,0.443365036,0.237839674,0,0,0,space,0,79,79,62,1,2,TL,opmital,cursive,opmital_c.png,,,295.1846,,,
,,,,32121,001,2025-10-16_15h24.27.080,HW_LDT_1,2024.2.4,MacIntel,59.88023952,,,,,,,,,,,,,,,,,,,,,,788.0424,788.2306,788.2307,788.7307,,,,,,,,,,,,,,1.6372,1,,,,,,,,,,,,,,z,,,,,,,,,,,,,,,81,1,788.7332,790.381,z,1,1.6372,,[],[],[],[],[],[],[],790.3813,792.3805,792.3806,794.6641,[],[],[],[],[],[],[],m,794.6642,794.6645,0.443365036,0.237839674,0,0,0,,0,80,80,63,1,2,TL,orinigal,print,orinigal_p.png,2.2737,,,,,
,,,,32121,001,2025-10-16_15h24.27.080,HW_LDT_1,2024.2.4,MacIntel,59.88023952,,,,,,,,,,,,,,,,,,,,,,794.666,794.8642,794.8642,795.3643,,,,,,,,,,,,,,1.405,1,,,,,,,,,,,,,,m,,,,,,,,,,,,,,,82,0,795.3647,796.7813,m,1,1.405,,[],[],[],[],[],[],[],796.7813,798.7811,798.7812,798.7814,[],[],[],[],[],[],[],,798.7815,798.7816,0.443365036,0.237839674,0,0,0,,0,81,81,80,1,2,word,ACADEMY,cursive,academy_c.png,,,,,,
,,,,32121,001,2025-10-16_15h24.27.080,HW_LDT_1,2024.2.4,MacIntel,59.88023952,,,,,,,,,,,,,,,,,,,,,,798.7828,798.981,798.9812,799.4811,,,,,,,,,,,,,,2.423,1,,,,,,,,,,,,,,z,,,,,,,,,,,,,,,83,0,799.4816,801.9144,z,1,2.423,,[],[],[],[],[],[],[],801.9146,803.9148,803.9148,803.915,[],[],[],[],[],[],[],,803.9152,803.9153,0.443365036,0.237839674,0,0,0,,0,82,82,66,1,2,TL,prodive,cursive,prodive_c.png,,,,,,
,,,,32121,001,2025-10-16_15h24.27.080,HW_LDT_1,2024.2.4,MacIntel,59.88023952,,,,,,,,,,,,,,,,,,,,,,803.9176,804.1143,804.1143,804.6142,,,,,,,,,,,,,,1.7592,1,,,,,,,,,,,,,,m,,,,,,,,,,,,,,,84,0,804.6178,806.3812,m,1,1.7592,,[],[],[],[],[],[],[],806.3812,808.3812,808.3812,808.3814,[],[],[],[],[],[],[],,808.3815,808.3816,0.443365036,0.237839674,0,0,0,,0,83,83,131,1,2,word,POPULAR,cursive,popular_c.png,,,,,,
,,,,32121,001,2025-10-16_15h24.27.080,HW_LDT_1,2024.2.4,MacIntel,59.88023952,,,,,,,,,,,,,,,,,,,,,,808.3833,808.5813,808.5813,809.0815,,,,,,,,,,,,,,2.0034,1,,,,,,,,,,,,,,m,,,,,,,,,,,,,,,85,0,809.0838,811.0984,m,1,2.0034,,[],[],[],[],[],[],[],811.0985,813.1001,813.1001,813.1029,[],[],[],[],[],[],[],,813.103,813.1037,0.443365036,0.237839674,0,0,0,,0,84,84,159,1,2,word,VETERAN,print,veteran_p.png,,,,,,
,,,,32121,001,2025-10-16_15h24.27.080,HW_LDT_1,2024.2.4,MacIntel,59.88023952,,,,,,,,,,,,,,,,,,,,,,813.1087,813.2982,813.2982,813.7982,,,,,,,,,,,,,,0.9865,1,,,,,,,,,,,,,,m,,,,,,,,,,,,,,,86,0,813.8009,814.7982,m,1,0.9865,,[],[],[],[],[],[],[],814.7983,816.7983,816.7984,816.7984,[],[],[],[],[],[],[],,816.7984,816.7986,0.443365036,0.237839674,0,0,0,,0,85,85,93,1,2,word,CEREMONY,print,ceremony_p.png,,,,,,
,,,,32121,001,2025-10-16_15h24.27.080,HW_LDT_1,2024.2.4,MacIntel,59.88023952,,,,,,,,,,,,,,,,,,,,,,816.7995,816.9978,816.9978,817.4978,,,,,,,,,,,,,,0.707,1,,,,,,,,,,,,,,m,,,,,,,,,,,,,,,87,1,817.4982,818.2149,m,1,0.707,,[],[],[],[],[],[],[],818.215,820.2147,820.2147,821.448,[],[],[],[],[],[],[],m,821.448,821.4481,0.443365036,0.237839674,0,0,0,,0,86,86,144,1,2,word,RESIDENT,print,resident_p.png,1.2265,,,,,
,,,,32121,001,2025-10-16_15h24.27.080,HW_LDT_1,2024.2.4,MacIntel,59.88023952,,,,,,,,,,,,,,,,,,,,,,821.4492,821.6474,821.6474,822.1485,,,,,,,,,,,,,,1.2822,1,,,,,,,,,,,,,,z,,,,,,,,,,,,,,,88,0,822.149,823.4316,z,1,1.2822,,[],[],[],[],[],[],[],823.4316,825.4314,825.4316,825.432,[],[],[],[],[],[],[],,825.432,825.4322,0.443365036,0.237839674,0,0,0,,0,87,87,72,1,2,TL,revomal,print,revomal_p.png,,,,,,
,,,,32121,001,2025-10-16_15h24.27.080,HW_LDT_1,2024.2.4,MacIntel,59.88023952,,,,,,,,,,,,,,,,,,,,,,825.434,825.6318,825.6318,826.1314,,,,,,,,,,,,,,3.8257,0,,,,,,,,,,,,,,m,,,,,,,,,,,,,,,89,0,826.132,829.9653,z,0,3.8257,,[],[],[],[],[],[],[],829.9654,831.9654,831.9654,831.9657,[],[],[],[],[],[],[],,831.9657,831.9659,0.443365036,0.237839674,0,0,0,,0,88,88,123,1,2,word,MODERATE,cursive,moderate_c.png,,,,,,
,,,,32121,001,2025-10-16_15h24.27.080,HW_LDT_1,2024.2.4,MacIntel,59.88023952,,,,,,,,,,,,,,,,,,,,,,831.9677,832.1653,832.1653,832.6653,,,,,,,,,,,,,,1.5876,1,,,,,,,,,,,,,,m,,,,,,,,,,,,,,,90,0,832.6658,834.2654,m,1,1.5876,,[],[],[],[],[],[],[],834.2655,836.2645,836.2646,836.2647,[],[],[],[],[],[],[],,836.2647,836.2648,0.443365036,0.237839674,0,0,0,,0,89,89,140,1,2,word,RELATIVE,print,relative_p.png,,,,,,
,,,,32121,001,2025-10-16_15h24.27.080,HW_LDT_1,2024.2.4,MacIntel,59.88023952,,,,,,,,,,,,,,,,,,,,,,836.2663,836.4649,836.4649,836.9655,,,,,,,,,,,,,,1.0374,1,,,,,,,,,,,,,,z,,,,,,,,,,,,,,,91,0,836.9678,838.0156,z,1,1.0374,,[],[],[],[],[],[],[],838.0157,840.0156,840.0156,840.0158,[],[],[],[],[],[],[],,840.0158,840.016,0.443365036,0.237839674,0,0,0,,0,90,90,18,1,2,RL,mesibine,print,mesibine_p.png,,,,,,
,,,,32121,001,2025-10-16_15h24.27.080,HW_LDT_1,2024.2.4,MacIntel,59.88023952,,,,,,,,,,,,,,,,,,,,,,840.0173,840.2155,840.2155,840.7156,,,,,,,,,,,,,,1.6689,1,,,,,,,,,,,,,,z,,,,,,,,,,,,,,,92,0,840.7163,842.3991,z,1,1.6689,,[],[],[],[],[],[],[],842.3992,844.3989,844.3989,844.399,[],[],[],[],[],[],[],,844.3991,844.3992,0.443365036,0.237839674,0,0,0,,0,91,91,24,1,2,RL,rasibal,cursive,rasibal_c.png,,,,,,
,,,,32121,001,2025-10-16_15h24.27.080,HW_LDT_1,2024.2.4,MacIntel,59.88023952,,,,,,,,,,,,,,,,,,,,,,844.4001,844.5991,844.5992,845.0992,,,,,,,,,,,,,,1.4904,1,,,,,,,,,,,,,,z,,,,,,,,,,,,,,,93,0,845.0999,846.599,z,1,1.4904,,[],[],[],[],[],[],[],846.5991,848.5988,848.5989,848.5991,[],[],[],[],[],[],[],,848.5991,848.5992,0.443365036,0.237839674,0,0,0,,0,92,92,17,1,2,RL,macise,cursive,macise_c.png,,,,,,
,,,,32121,001,2025-10-16_15h24.27.080,HW_LDT_1,2024.2.4,MacIntel,59.88023952,,,,,,,,,,,,,,,,,,,,,,848.6017,848.798,848.798,849.2991,,,,,,,,,,,,,,1.4526,1,,,,,,,,,,,,,,z,,,,,,,,,,,,,,,94,0,849.2997,850.765,z,1,1.4526,,[],[],[],[],[],[],[],850.7651,852.7658,852.7659,852.766,[],[],[],[],[],[],[],,852.766,852.7661,0.443365036,0.237839674,0,0,0,,0,93,93,40,1,2,TL,bevoled,cursive,bevoled_c.png,,,,,,
,,,,32121,001,2025-10-16_15h24.27.080,HW_LDT_1,2024.2.4,MacIntel,59.88023952,,,,,,,,,,,,,,,,,,,,,,852.7681,852.9659,852.9659,853.4655,,,,,,,,,,,,,,3.493,1,,,,,,,,,,,,,,z,,,,,,,,,,,,,,,95,1,853.4659,856.9655,z,1,3.493,,[],[],[],[],[],[],[],856.9656,858.9662,858.9663,860.2492,[],[],[],[],[],[],[],z,860.2493,860.2494,0.443365036,0.237839674,0,0,0,,0,94,94,33,1,2,RL,strapely,cursive,strapely_c.png,1.2789,,,,,
,,,,32121,001,2025-10-16_15h24.27.080,HW_LDT_1,2024.2.4,MacIntel,59.88023952,,,,,,,,,,,,,,,,,,,,,,860.2499,860.4485,860.4486,860.9496,,,,,,,,,,,,,,2.3234,1,,,,,,,,,,,,,,m,,,,,,,,,,,,,,,96,1,860.9502,863.283,m,1,2.3234,,[],[],[],[],[],[],[],863.2831,865.283,865.283,866.2156,[],[],[],[],[],[],[],m,866.2157,866.2158,0.443365036,0.237839674,0,0,0,,0,95,95,102,1,2,word,DENSITY,print,density_p.png,0.9308,,,,,
,,,,32121,001,2025-10-16_15h24.27.080,HW_LDT_1,2024.2.4,MacIntel,59.88023952,,,,,,,,,,,,,,,,,,,,,,866.2166,866.4163,866.4163,866.916,,,,,,,,,,,,,,3.0252,0,,,,,,,,,,,,,,m,,,,,,,,,,,,,,,97,0,866.9163,869.9498,z,0,3.0252,,[],[],[],[],[],[],[],869.9499,871.9497,871.9497,871.9499,[],[],[],[],[],[],[],,871.95,871.95,0.443365036,0.237839674,0,0,0,,0,96,96,103,1,2,word,DISPUTE,cursive,dispute_c.png,,,,,,
,,,,32121,001,2025-10-16_15h24.27.080,HW_LDT_1,2024.2.4,MacIntel,59.88023952,,,,,,,,,,,,,,,,,,,,,,871.9511,872.1492,872.1493,872.6494,,,,,,,,,,,,,,1.7706,1,,,,,,,,,,,,,,z,,,,,,,,,,,,,,,98,0,872.6496,874.4333,z,1,1.7706,,[],[],[],[],[],[],[],874.4333,876.4332,876.4332,876.4333,[],[],[],[],[],[],[],,876.4334,876.4334,0.443365036,0.237839674,0,0,0,,0,97,97,74,1,2,TL,rerite,cursive,rerite_c.png,,,,,,
,,,,32121,001,2025-10-16_15h24.27.080,HW_LDT_1,2024.2.4,MacIntel,59.88023952,,,,,,,,,,,,,,,,,,,,,,876.4342,876.6327,876.6327,877.1332,,,,,,,,,,,,,,1.3864,1,,,,,,,,,,,,,,m,,,,,,,,,,,,,,,99,0,877.1337,878.533,m,1,1.3864,,[],[],[],[],[],[],[],878.5331,880.5333,880.5333,880.5334,[],[],[],[],[],[],[],,880.5335,880.5336,0.443365036,0.237839674,0,0,0,,0,98,98,127,1,2,word,ORIGINAL,print,original_p.png,,,,,,
,,,,32121,001,2025-10-16_15h24.27.080,HW_LDT_1,2024.2.4,MacIntel,59.88023952,,,,,,,,,,,,,,,,,,,,,,880.5344,880.7321,880.7323,881.2333,,,,,,,,,,,,,,1.715,1,,,,,,,,,,,,,,z,,,,,,,,,,,,,,,100,0,881.2338,882.9501,z,1,1.715,,[],[],[],[],[],[],[],882.9501,884.9496,884.9497,884.9499,[],[],[],[],[],[],[],,884.9499,884.95,0.540160779,0.224756567,0,0,0,,0,99,99,19,1,2,RL,monebate,cursive,monebate_c.png,,,,,,
,,,,32121,001,2025-10-16_15h24.27.080,HW_LDT_1,2024.2.4,MacIntel,59.88023952,,,,,,,,,,,,,,,,,,,,,,884.9508,885.1491,885.1492,885.6501,,,,,,,,,,,,,,1.5406,1,,,,,,,,,,,,,,z,,,,,,,,,,,,,,,101,0,885.6506,887.2001,z,1,1.5406,,[],[],[],[],[],[],[],887.2002,889.2001,889.2002,889.2004,[],[],[],[],[],[],[],,889.2004,889.2005,0.540160779,0.224756567,0,0,0,,0,100,100,48,1,2,TL,detabe,print,detabe_p.png,,,,,,
,,,,32121,001,2025-10-16_15h24.27.080,HW_LDT_1,2024.2.4,MacIntel,59.88023952,,,,,,,,,,,,,,,,,,,,,,889.2013,889.4003,889.4004,889.9003,,,,,,,,,,,,,,0.8551,1,,,,,,,,,,,,,,z,,,,,,,,,,,,,,,102,0,889.9008,890.7668,z,1,0.8551,,[],[],[],[],[],[],[],890.7669,892.7661,892.7662,892.7663,[],[],[],[],[],[],[],,892.7663,892.7664,0.540160779,0.224756567,0,0,0,,0,101,101,15,1,2,RL,linedal,print,linedal_p.png,,,,,,
,,,,32121,001,2025-10-16_15h24.27.080,HW_LDT_1,2024.2.4,MacIntel,59.88023952,,,,,,,,,,,,,,,,,,,,,,892.7673,892.9666,892.9666,893.467,,,,,,,,,,,,,,1.3399,1,,,,,,,,,,,,,,z,,,,,,,,,,,,,,,103,1,893.4674,894.8171,z,1,1.3399,,[],[],[],[],[],[],[],894.8171,896.8165,896.8165,900.0002,[],[],[],[],[],[],[],z,900.0002,900.0004,0.540160779,0.224756567,0,0,0,,0,102,102,41,1,2,TL,befenit,cursive,befenit_c.png,3.1709,,,,,
,,,,32121,001,2025-10-16_15h24.27.080,HW_LDT_1,2024.2.4,MacIntel,59.88023952,,,,,,,,,,,,,,,,,,,,,,900.0016,900.2005,900.2005,900.7001,,,,,,,,,,,,,,1.904,0,,,,,,,,,,,,,,m,,,,,,,,,,,,,,,104,0,900.7007,902.6173,z,0,1.904,,[],[],[],[],[],[],[],902.6174,904.6173,904.6174,904.6176,[],[],[],[],[],[],[],,904.6176,904.6178,0.540160779,0.224756567,0,0,0,,0,103,103,121,1,2,word,MISTAKE,cursive,mistake_c.png,,,,,,
,,,,32121,001,2025-10-16_15h24.27.080,HW_LDT_1,2024.2.4,MacIntel,59.88023952,,,,,,,,,,,,,,,,,,,,,,904.6191,904.8165,904.8165,905.3173,,,,,,,,,,,,,,6.2246,1,,,,,,,,,,,,,,z,,,,,,,,,,,,,,,105,0,905.3178,911.5509,z,1,6.2246,,[],[],[],[],[],[],[],911.551,913.5508,913.5508,913.5509,[],[],[],[],[],[],[],,913.5509,913.551,0.540160779,0.224756567,0,0,0,,0,104,104,47,1,2,TL,crinimal,cursive,crinimal_c.png,,,,,,
,,,,32121,001,2025-10-16_15h24.27.080,HW_LDT_1,2024.2.4,MacIntel,59.88023952,,,,,,,,,,,,,,,,,,,,,,913.5519,913.751,913.7511,914.2511,,,,,,,,,,,,,,3.4189,0,,,,,,,,,,,,,,m,,,,,,,,,,,,,,,106,0,914.2517,917.6833,z,0,3.4189,,[],[],[],[],[],[],[],917.6834,919.6845,919.6845,919.6847,[],[],[],[],[],[],[],,919.6847,919.6847,0.540160779,0.224756567,0,0,0,,0,105,105,105,1,2,word,EDITOR,cursive,editor_c.png,,,,,,
,,,,32121,001,2025-10-16_15h24.27.080,HW_LDT_1,2024.2.4,MacIntel,59.88023952,,,,,,,,,,,,,,,,,,,,,,919.686,919.8843,919.8844,920.3836,,,,,,,,,,,,,,0.9754,1,,,,,,,,,,,,,,z,,,,,,,,,,,,,,,107,0,920.3842,921.3679,z,1,0.9754,,[],[],[],[],[],[],[],921.368,923.3671,923.3671,923.3672,[],[],[],[],[],[],[],,923.3672,923.3672,0.540160779,0.224756567,0,0,0,,0,106,106,35,1,2,RL,vesofity,print,vesofity_p.png,,,,,,
,,,,32121,001,2025-10-16_15h24.27.080,HW_LDT_1,2024.2.4,MacIntel,59.88023952,,,,,,,,,,,,,,,,,,,,,,923.3677,923.568,923.5681,924.0673,,,,,,,,,,,,,,0.9816,1,,,,,,,,,,,,,,m,,,,,,,,,,,,,,,108,0,924.068,925.0511,m,1,0.9816,,[],[],[],[],[],[],[],925.0512,927.0513,927.0513,927.0515,[],[],[],[],[],[],[],,927.0515,927.0517,0.540160779,0.224756567,0,0,0,,0,107,107,104,1,2,word,DOMINANT,print,dominant_p.png,,,,,,
,,,,32121,001,2025-10-16_15h24.27.080,HW_LDT_1,2024.2.4,MacIntel,59.88023952,,,,,,,,,,,,,,,,,,,,,,927.0528,927.2514,927.2514,927.7515,,,,,,,,,,,,,,4.3856,1,,,,,,,,,,,,,,z,,,,,,,,,,,,,,,109,0,927.7521,932.1514,z,1,4.3856,,[],[],[],[],[],[],[],932.1514,934.1514,934.1515,934.1519,[],[],[],[],[],[],[],,934.152,934.1522,0.540160779,0.224756567,0,0,0,,0,108,108,51,1,2,TL,etidor,cursive,etidor_c.png,,,,,,
,,,,32121,001,2025-10-16_15h24.27.080,HW_LDT_1,2024.2.4,MacIntel,59.88023952,,,,,,,,,,,,,,,,,,,,,,934.1567,934.351,934.3511,934.8515,,,,,,,,,,,,,,1.1338,1,,,,,,,,,,,,,,m,,,,,,,,,,,,,,,110,0,934.8543,936.0016,m,1,1.1338,,[],[],[],[],[],[],[],936.0017,938.0018,938.0019,938.0021,[],[],[],[],[],[],[],,938.0021,938.0022,0.540160779,0.224756567,0,0,0,,0,109,109,129,1,2,word,PARENT,print,parent_p.png,,,,,,
,,,,32121,001,2025-10-16_15h24.27.080,HW_LDT_1,2024.2.4,MacIntel,59.88023952,,,,,,,,,,,,,,,,,,,,,,938.0045,938.2006,938.2006,938.7017,,,,,,,,,,,,,,0.6862,1,,,,,,,,,,,,,,z,,,,,,,,,,,,,,,111,0,938.7024,939.4016,z,1,0.6862,,[],[],[],[],[],[],[],939.4017,941.4019,941.402,941.4021,[],[],[],[],[],[],[],,941.4022,941.4022,0.540160779,0.224756567,0,0,0,,0,110,110,21,1,2,RL,pamest,print,pamest_p.png,,,,,,
,,,,32121,001,2025-10-16_15h24.27.080,HW_LDT_1,2024.2.4,MacIntel,59.88023952,,,,,,,,,,,,,,,,,,,,,,941.4032,941.6017,941.6018,942.1016,,,,,,,,,,,,,,0.8527,1,,,,,,,,,,,,,,z,,,,,,,,,,,,,,,112,0,942.1022,942.9684,z,1,0.8527,,[],[],[],[],[],[],[],942.9685,944.9685,944.9685,944.9687,[],[],[],[],[],[],[],,944.9687,944.9688,0.540160779,0.224756567,0,0,0,,0,111,111,9,1,2,RL,denficy,print,denficy_p.png,,,,,,
,,,,32121,001,2025-10-16_15h24.27.080,HW_LDT_1,2024.2.4,MacIntel,59.88023952,,,,,,,,,,,,,,,,,,,,,,944.9713,945.168,945.1681,945.6686,,,,,,,,,,,,,,1.1363,1,,,,,,,,,,,,,,m,,,,,,,,,,,,,,,113,0,945.6707,946.8184,m,1,1.1363,,[],[],[],[],[],[],[],946.8185,948.8186,948.8186,948.8187,[],[],[],[],[],[],[],,948.8187,948.8187,0.540160779,0.224756567,0,0,0,,0,112,112,157,1,2,word,VALIDITY,print,validity_p.png,,,,,,
,,,,32121,001,2025-10-16_15h24.27.080,HW_LDT_1,2024.2.4,MacIntel,59.88023952,,,,,,,,,,,,,,,,,,,,,,948.8196,949.0185,949.0186,949.5186,,,,,,,,,,,,,,0.9604,1,,,,,,,,,,,,,,m,,,,,,,,,,,,,,,114,0,949.5191,950.4853,m,1,0.9604,,[],[],[],[],[],[],[],950.4854,952.4853,952.4853,952.4854,[],[],[],[],[],[],[],,952.4854,952.4855,0.540160779,0.224756567,0,0,0,,0,113,113,110,1,2,word,HERITAGE,print,heritage_p.png,,,,,,
,,,,32121,001,2025-10-16_15h24.27.080,HW_LDT_1,2024.2.4,MacIntel,59.88023952,,,,,,,,,,,,,,,,,,,,,,952.4867,952.6854,952.6854,953.1852,,,,,,,,,,,,,,1.4806,1,,,,,,,,,,,,,,z,,,,,,,,,,,,,,,115,0,953.1857,954.6687,z,1,1.4806,,[],[],[],[],[],[],[],954.6688,956.6689,956.669,956.6692,[],[],[],[],[],[],[],,956.6693,956.6694,0.540160779,0.224756567,0,0,0,,0,114,114,22,1,2,RL,posity,print,posity_p.png,,,,,,
,,,,32121,001,2025-10-16_15h24.27.080,HW_LDT_1,2024.2.4,MacIntel,59.88023952,,,,,,,,,,,,,,,,,,,,,,956.6706,956.8686,956.8686,957.3686,,,,,,,,,,,,,,3.2158,0,,,,,,,,,,,,,,m,,,,,,,,,,,,,,,116,0,957.3689,960.5855,z,0,3.2158,,[],[],[],[],[],[],[],960.5855,962.5856,962.5857,962.5858,[],[],[],[],[],[],[],,962.5858,962.5859,0.540160779,0.224756567,0,0,0,,0,115,115,126,1,2,word,OPTIMAL,cursive,optimal_c.png,,,,,,
,,,,32121,001,2025-10-16_15h24.27.080,HW_LDT_1,2024.2.4,MacIntel,59.88023952,,,,,,,,,,,,,,,,,,,,,,962.5868,962.7855,962.7856,963.2857,,,,,,,,,,,,,,2.0051,1,,,,,,,,,,,,,,m,,,,,,,,,,,,,,,117,1,963.2864,965.3024,m,1,2.0051,,[],[],[],[],[],[],[],965.3025,967.3013,967.3014,968.1691,[],[],[],[],[],[],[],m,968.1691,968.1692,0.540160779,0.224756567,0,0,0,,0,116,116,151,1,2,word,SPECIFIC,print,specific_p.png,0.8555,,,,,
,,,,32121,001,2025-10-16_15h24.27.080,HW_LDT_1,2024.2.4,MacIntel,59.88023952,,,,,,,,,,,,,,,,,,,,,,968.17,968.3691,968.3692,968.8691,,,,,,,,,,,,,,0.9856,1,,,,,,,,,,,,,,m,,,,,,,,,,,,,,,118,1,968.8696,969.8681,m,1,0.9856,,[],[],[],[],[],[],[],969.8682,971.8691,971.8691,972.7021,[],[],[],[],[],[],[],m,972.7023,972.7023,0.540160779,0.224756567,0,0,0,,0,117,117,96,1,2,word,CONSIDER,print,consider_p.png,0.8259,,,,,
,,,,32121,001,2025-10-16_15h24.27.080,HW_LDT_1,2024.2.4,MacIntel,59.88023952,,,,,,,,,,,,,,,,,,,,,,972.7032,972.9022,972.9023,973.4028,,,,,,,,,,,,,,1.0591,1,,,,,,,,,,,,,,z,,,,,,,,,,,,,,,119,0,973.4033,974.4689,z,1,1.0591,,[],[],[],[],[],[],[],974.4689,976.4683,976.4683,976.4684,[],[],[],[],[],[],[],,976.4684,976.4685,0.540160779,0.224756567,0,0,0,,0,118,118,77,1,2,TL,sloten,print,sloten_p.png,,,,,,
,,,,32121,001,2025-10-16_15h24.27.080,HW_LDT_1,2024.2.4,MacIntel,59.88023952,,,,,,,,,,,,,,,,,,,,,,976.4693,976.6691,976.6691,977.1693,,,,,,,,,,,,,,1.329,1,,,,,,,,,,,,,,z,,,,,,,,,,,,,,,120,0,977.1697,978.5027,z,1,1.329,,[],[],[],[],[],[],[],978.5027,980.5026,980.5027,980.5028,[],[],[],[],[],[],[],,980.5029,980.5029,0.540160779,0.224756567,0,0,0,,0,119,119,49,1,2,TL,dedace,print,dedace_p.png,,,,,,
,,,,32121,001,2025-10-16_15h24.27.080,HW_LDT_1,2024.2.4,MacIntel,59.88023952,,,,,,,,,,,,,,,,,,,,,,980.5038,980.7027,980.7027,981.2024,,,,,,,,,,,,,,3.1366,1,,,,,,,,,,,,,,z,,,,,,,,,,,,,,,121,0,981.2031,984.3522,z,1,3.1366,,[],[],[],[],[],[],[],984.3522,986.3529,986.3529,986.353,[],[],[],[],[],[],[],,986.353,986.3531,0.540160779,0.224756567,0,0,0,,0,120,120,34,1,2,RL,trilude,cursive,trilude_c.png,,,,,,
,,,,32121,001,2025-10-16_15h24.27.080,HW_LDT_1,2024.2.4,MacIntel,59.88023952,,,,,,,,,,,,,,,,,,,,,,986.3539,986.5526,986.5526,987.053,,,,,,,,,,,,,,0.9407,1,,,,,,,,,,,,,,z,,,,,,,,,,,,,,,122,0,987.0537,988.003,z,1,0.9407,,[],[],[],[],[],[],[],988.0032,990.0029,990.0029,990.0031,[],[],[],[],[],[],[],,990.0031,990.0032,0.540160779,0.224756567,0,0,0,,0,121,121,75,1,2,TL,ronamtic,print,ronamtic_p.png,,,,,,
,,,,32121,001,2025-10-16_15h24.27.080,HW_LDT_1,2024.2.4,MacIntel,59.88023952,,,,,,,,,,,,,,,,,,,,,,990.004,990.203,990.203,990.7027,,,,,,,,,,,,,,1.3051,0,,,,,,,,,,,,,,m,,,,,,,,,,,,,,,123,0,990.7032,992.0197,z,0,1.3051,,[],[],[],[],[],[],[],992.0197,994.0197,994.0197,994.0198,[],[],[],[],[],[],[],,994.0199,994.0199,0.540160779,0.224756567,0,0,0,,0,122,122,90,1,2,word,CAPITAL,cursive,capital_c.png,,,,,,
,,,,32121,001,2025-10-16_15h24.27.080,HW_LDT_1,2024.2.4,MacIntel,59.88023952,,,,,,,,,,,,,,,,,,,,,,994.0278,994.2189,994.2189,994.7199,,,,,,,,,,,,,,1.5526,1,,,,,,,,,,,,,,z,,,,,,,,,,,,,,,124,0,994.7211,996.2863,z,1,1.5526,,[],[],[],[],[],[],[],996.2864,998.2854,998.2854,998.2856,[],[],[],[],[],[],[],,998.2856,998.2857,0.540160779,0.224756567,0,0,0,,0,123,123,71,1,2,TL,retome,cursive,retome_c.png,,,,,,
,,,,32121,001,2025-10-16_15h24.27.080,HW_LDT_1,2024.2.4,MacIntel,59.88023952,,,,,,,,,,,,,,,,,,,,,,998.2882,998.4866,998.4867,998.9868,,,,,,,,,,,,,,1.5586,1,,,,,,,,,,,,,,z,,,,,,,,,,,,,,,125,0,998.9891,1000.5533,z,1,1.5586,,[],[],[],[],[],[],[],1000.5533,1002.5528,1002.5528,1002.553,[],[],[],[],[],[],[],,1002.5531,1002.5531,0.540160779,0.224756567,0,0,0,,0,124,124,46,1,2,TL,codemy,cursive,codemy_c.png,,,,,,
,,,,32121,001,2025-10-16_15h24.27.080,HW_LDT_1,2024.2.4,MacIntel,59.88023952,,,,,,,,,,,,,,,,,,,,,,1002.5539,1002.7526,1002.7526,1003.2535,,,,,,,,,,,,,,4.2413,1,,,,,,,,,,,,,,m,,,,,,,,,,,,,,,126,0,1003.2542,1007.5035,m,1,4.2413,,[],[],[],[],[],[],[],1007.5035,1009.5028,1009.5029,1009.503,[],[],[],[],[],[],[],,1009.503,1009.5032,0.540160779,0.224756567,0,0,0,,0,125,125,98,1,2,word,CRIMINAL,cursive,criminal_c.png,,,,,,
,,,,32121,001,2025-10-16_15h24.27.080,HW_LDT_1,2024.2.4,MacIntel,59.88023952,,,,,,,,,,,,,,,,,,,,,,1009.5053,1009.7035,1009.7036,1010.203,,,,,,,,,,,,,,1.603,1,,,,,,,,,,,,,,z,,,,,,,,,,,,,,,127,0,1010.2037,1011.8204,z,1,1.603,,[],[],[],[],[],[],[],1011.8205,1013.8202,1013.8202,1013.8204,[],[],[],[],[],[],[],,1013.8204,1013.8205,0.540160779,0.224756567,0,0,0,,0,126,126,58,1,2,TL,mitilary,cursive,mitilary_c.png,,,,,,
,,,,32121,001,2025-10-16_15h24.27.080,HW_LDT_1,2024.2.4,MacIntel,59.88023952,,,,,,,,,,,,,,,,,,,,,,1013.8212,1014.0204,1014.0204,1014.5204,,,,,,,,,,,,,,0.8957,1,,,,,,,,,,,,,,m,,,,,,,,,,,,,,,128,0,1014.5225,1015.4202,m,1,0.8957,,[],[],[],[],[],[],[],1015.4203,1017.4205,1017.4205,1017.4208,[],[],[],[],[],[],[],,1017.4208,1017.421,0.540160779,0.224756567,0,0,0,,0,127,127,122,1,2,word,MOBILE,print,mobile_p.png,,,,,,
,,,,32121,001,2025-10-16_15h24.27.080,HW_LDT_1,2024.2.4,MacIntel,59.88023952,,,,,,,,,,,,,,,,,,,,,,1017.4241,1017.6204,1017.6212,1018.1206,,,,,,,,,,,,,,0.9907,1,,,,,,,,,,,,,,z,,,,,,,,,,,,,,,129,0,1018.1228,1019.1196,z,1,0.9907,,[],[],[],[],[],[],[],1019.1197,1021.1201,1021.1201,1021.1202,[],[],[],[],[],[],[],,1021.1202,1021.1202,0.540160779,0.224756567,0,0,0,,0,128,128,73,1,2,TL,redisent,print,redisent_p.png,,,,,,
,,,,32121,001,2025-10-16_15h24.27.080,HW_LDT_1,2024.2.4,MacIntel,59.88023952,,,,,,,,,,,,,,,,,,,,,,1021.1205,1021.3202,1021.3202,1021.8206,,,,,,,,,,,,,,2.2411,1,,,,,,,,,,,,,,z,,,,,,,,,,,,,,,130,0,1021.8209,1024.0702,z,1,2.2411,,[],[],[],[],[],[],[],1024.0703,1026.0706,1026.0706,1026.0707,[],[],[],[],[],[],[],,1026.0707,1026.0708,0.540160779,0.224756567,0,0,0,,0,129,129,28,1,2,RL,revune,cursive,revune_c.png,,,,,,
,,,,32121,001,2025-10-16_15h24.27.080,HW_LDT_1,2024.2.4,MacIntel,59.88023952,,,,,,,,,,,,,,,,,,,,,,1026.0715,1026.2708,1026.2708,1026.7723,,,,,,,,,,,,,,0.7702,1,,,,,,,,,,,,,,m,,,,,,,,,,,,,,,131,1,1026.7736,1027.5539,m,1,0.7702,,[],[],[],[],[],[],[],1027.5539,1029.5536,1029.5536,1030.4208,[],[],[],[],[],[],[],m,1030.4209,1030.421,0.540160779,0.224756567,0,0,0,,0,130,130,92,1,2,word,CATEGORY,print,category_p.png,0.8545,,,,,
,,,,32121,001,2025-10-16_15h24.27.080,HW_LDT_1,2024.2.4,MacIntel,59.88023952,,,,,,,,,,,,,,,,,,,,,,1030.4221,1030.6208,1030.6208,1031.1207,,,,,,,,,,,,,,0.7722,1,,,,,,,,,,,,,,m,,,,,,,,,,,,,,,132,0,1031.1214,1031.9043,m,1,0.7722,,[],[],[],[],[],[],[],1031.9044,1033.9031,1033.9031,1033.9033,[],[],[],[],[],[],[],,1033.9033,1033.9034,0.540160779,0.224756567,0,0,0,,0,131,131,154,1,2,word,STORAGE,print,storage_p.png,,,,,,
,,,,32121,001,2025-10-16_15h24.27.080,HW_LDT_1,2024.2.4,MacIntel,59.88023952,,,,,,,,,,,,,,,,,,,,,,1033.9041,1034.1044,1034.1044,1034.6036,,,,,,,,,,,,,,1.7605,1,,,,,,,,,,,,,,m,,,,,,,,,,,,,,,133,0,1034.6043,1036.3706,m,1,1.7605,,[],[],[],[],[],[],[],1036.3706,1038.3706,1038.3707,1038.3708,[],[],[],[],[],[],[],,1038.3709,1038.371,0.540160779,0.224756567,0,0,0,,0,132,132,156,1,2,word,TRIBUTE,cursive,tribute_c.png,,,,,,
,,,,32121,001,2025-10-16_15h24.27.080,HW_LDT_1,2024.2.4,MacIntel,59.88023952,,,,,,,,,,,,,,,,,,,,,,1038.3737,1038.5712,1038.5713,1039.0707,,,,,,,,,,,,,,2.299,1,,,,,,,,,,,,,,z,,,,,,,,,,,,,,,134,0,1039.0714,1041.3714,z,1,2.299,,[],[],[],[],[],[],[],1041.3715,1043.3711,1043.3711,1043.3713,[],[],[],[],[],[],[],,1043.3713,1043.3714,0.540160779,0.224756567,0,0,0,,0,133,133,7,1,2,RL,cocewage,cursive,cocewage_c.png,,,,,,
,,,,32121,001,2025-10-16_15h24.27.080,HW_LDT_1,2024.2.4,MacIntel,59.88023952,,,,,,,,,,,,,,,,,,,,,,1043.3736,1043.5711,1043.5712,1044.071,,,,,,,,,,,,,,7.6474,1,,,,,,,,,,,,,,m,,,,,,,,,,,,,,,135,0,1044.0715,1051.7212,m,1,7.6474,,[],[],[],[],[],[],[],1051.7213,1053.7213,1053.7214,1053.7216,[],[],[],[],[],[],[],,1053.7216,1053.7218,0.685575181,0.392549819,0,0,0,,0,134,134,106,1,2,word,ELABORATE,cursive,elaborate_c.png,,,,,,
,,,,32121,001,2025-10-16_15h24.27.080,HW_LDT_1,2024.2.4,MacIntel,59.88023952,,,,,,,,,,,,,,,,,,,,,,1053.7229,1053.9209,1053.921,1054.4213,,,,,,,,,,,,,,1.1215,1,,,,,,,,,,,,,,z,,,,,,,,,,,,,,,136,0,1054.4217,1055.5545,z,1,1.1215,,[],[],[],[],[],[],[],1055.5545,1057.5544,1057.5544,1057.5546,[],[],[],[],[],[],[],,1057.5547,1057.5548,0.685575181,0.392549819,0,0,0,,0,135,135,44,1,2,TL,catipal,cursive,catipal_c.png,,,,,,
,,,,32121,001,2025-10-16_15h24.27.080,HW_LDT_1,2024.2.4,MacIntel,59.88023952,,,,,,,,,,,,,,,,,,,,,,1057.5562,1057.7551,1057.7551,1058.2544,,,,,,,,,,,,,,1.0935,1,,,,,,,,,,,,,,z,,,,,,,,,,,,,,,137,0,1058.2549,1059.3549,z,1,1.0935,,[],[],[],[],[],[],[],1059.3549,1061.3549,1061.3549,1061.355,[],[],[],[],[],[],[],,1061.3551,1061.3551,0.685575181,0.392549819,0,0,0,,0,136,136,67,1,2,TL,quafily,cursive,quafily_c.png,,,,,,
,,,,32121,001,2025-10-16_15h24.27.080,HW_LDT_1,2024.2.4,MacIntel,59.88023952,,,,,,,,,,,,,,,,,,,,,,1061.3574,1061.555,1061.5551,1062.0551,,,,,,,,,,,,,,0.689,1,,,,,,,,,,,,,,z,,,,,,,,,,,,,,,138,0,1062.0558,1062.755,z,1,0.689,,[],[],[],[],[],[],[],1062.7551,1064.7545,1064.7546,1064.7547,[],[],[],[],[],[],[],,1064.7548,1064.7549,0.685575181,0.392549819,0,0,0,,0,137,137,3,1,2,RL,capefory,print,capefory_p.png,,,,,,
,,,,32121,001,2025-10-16_15h24.27.080,HW_LDT_1,2024.2.4,MacIntel,59.88023952,,,,,,,,,,,,,,,,,,,,,,1064.756,1064.955,1064.955,1065.4553,,,,,,,,,,,,,,0.6921,1,,,,,,,,,,,,,,z,,,,,,,,,,,,,,,139,1,1065.4561,1066.1552,z,1,0.6921,,[],[],[],[],[],[],[],1066.1553,1068.1545,1068.1545,1069.4764,[],[],[],[],[],[],[],m,1069.4765,1069.4765,0.685575181,0.392549819,0,0,0,,0,138,138,32,1,2,RL,speniven,print,speniven_p.png,1.3052,,,,,
,,,,32121,001,2025-10-16_15h24.27.080,HW_LDT_1,2024.2.4,MacIntel,59.88023952,,,,,,,,,,,,,,,,,,,,,,1069.4769,1069.6719,1069.6719,1070.1721,,,,,,,,,,,,,,1.4476,1,,,,,,,,,,,,,,m,,,,,,,,,,,,,,,140,0,1070.1727,1071.6219,m,1,1.4476,,[],[],[],[],[],[],[],1071.6219,1073.6221,1073.6222,1073.6223,[],[],[],[],[],[],[],,1073.6223,1073.6224,0.685575181,0.392549819,0,0,0,,0,139,139,136,1,2,word,RADICAL,cursive,radical_c.png,,,,,,
,,,,32121,001,2025-10-16_15h24.27.080,HW_LDT_1,2024.2.4,MacIntel,59.88023952,,,,,,,,,,,,,,,,,,,,,,1073.6233,1073.8211,1073.8211,1074.322,,,,,,,,,,,,,,0.9078,1,,,,,,,,,,,,,,m,,,,,,,,,,,,,,,141,0,1074.3238,1075.2387,m,1,0.9078,,[],[],[],[],[],[],[],1075.2388,1077.2408,1077.2414,1077.2454,[],[],[],[],[],[],[],,1077.2455,1077.2456,0.685575181,0.392549819,0,0,0,,0,140,140,114,1,2,word,LOCATE,print,locate_p.png,,,,,,
,,,,32121,001,2025-10-16_15h24.27.080,HW_LDT_1,2024.2.4,MacIntel,59.88023952,,,,,,,,,,,,,,,,,,,,,,1077.2487,1077.4384,1077.4385,1077.938,,,,,,,,,,,,,,1.2712,1,,,,,,,,,,,,,,z,,,,,,,,,,,,,,,142,0,1077.9401,1079.222,z,1,1.2712,,[],[],[],[],[],[],[],1079.2221,1081.2221,1081.2222,1081.2224,[],[],[],[],[],[],[],,1081.2226,1081.2227,0.685575181,0.392549819,0,0,0,,0,141,141,31,1,2,RL,spetisic,print,spetisic_p.png,,,,,,
,,,,32121,001,2025-10-16_15h24.27.080,HW_LDT_1,2024.2.4,MacIntel,59.88023952,,,,,,,,,,,,,,,,,,,,,,1081.2242,1081.4221,1081.4222,1081.9224,,,,,,,,,,,,,,2.5556,0,,,,,,,,,,,,,,m,,,,,,,,,,,,,,,143,0,1081.923,1084.4887,z,0,2.5556,,[],[],[],[],[],[],[],1084.4887,1086.4889,1086.489,1086.4891,[],[],[],[],[],[],[],,1086.4891,1086.4892,0.685575181,0.392549819,0,0,0,,0,142,142,120,1,2,word,MILITARY,cursive,military_c.png,,,,,,
,,,,32121,001,2025-10-16_15h24.27.080,HW_LDT_1,2024.2.4,MacIntel,59.88023952,,,,,,,,,,,,,,,,,,,,,,1086.4909,1086.6884,1086.6884,1087.1886,,,,,,,,,,,,,,1.7403,1,,,,,,,,,,,,,,z,,,,,,,,,,,,,,,144,0,1087.1892,1088.9389,z,1,1.7403,,[],[],[],[],[],[],[],1088.9389,1090.9392,1090.9392,1090.9394,[],[],[],[],[],[],[],,1090.9394,1090.9395,0.685575181,0.392549819,0,0,0,,0,143,143,54,1,2,TL,liretal,cursive,liretal_c.png,,,,,,
,,,,32121,001,2025-10-16_15h24.27.080,HW_LDT_1,2024.2.4,MacIntel,59.88023952,,,,,,,,,,,,,,,,,,,,,,1090.9406,1091.1391,1091.1391,1091.6387,,,,,,,,,,,,,,1.3978,1,,,,,,,,,,,,,,z,,,,,,,,,,,,,,,145,0,1091.6394,1093.0392,z,1,1.3978,,[],[],[],[],[],[],[],1093.0393,1095.0392,1095.0393,1095.0395,[],[],[],[],[],[],[],,1095.0395,1095.0396,0.685575181,0.392549819,0,0,0,,0,144,144,53,1,2,TL,edivent,cursive,edivent_c.png,,,,,,
,,,,32121,001,2025-10-16_15h24.27.080,HW_LDT_1,2024.2.4,MacIntel,59.88023952,,,,,,,,,,,,,,,,,,,,,,1095.0409,1095.239,1095.239,1095.7391,,,,,,,,,,,,,,1.8394,0,,,,,,,,,,,,,,m,,,,,,,,,,,,,,,146,0,1095.7395,1097.5894,z,0,1.8394,,[],[],[],[],[],[],[],1097.5895,1099.5895,1099.5895,1099.5914,[],[],[],[],[],[],[],,1099.5914,1099.5916,0.685575181,0.392549819,0,0,0,,0,145,145,113,1,2,word,LITERAL,cursive,literal_c.png,,,,,,
,,,,32121,001,2025-10-16_15h24.27.080,HW_LDT_1,2024.2.4,MacIntel,59.88023952,,,,,,,,,,,,,,,,,,,,,,1099.5927,1099.7894,1099.7894,1100.289,,,,,,,,,,,,,,1.7583,1,,,,,,,,,,,,,,z,,,,,,,,,,,,,,,147,0,1100.2896,1102.0563,z,1,1.7583,,[],[],[],[],[],[],[],1102.0564,1104.0558,1104.0558,1104.0559,[],[],[],[],[],[],[],,1104.0559,1104.056,0.685575181,0.392549819,0,0,0,,0,146,146,56,1,2,TL,marnigal,cursive,marnigal_c.png,,,,,,
,,,,32121,001,2025-10-16_15h24.27.080,HW_LDT_1,2024.2.4,MacIntel,59.88023952,,,,,,,,,,,,,,,,,,,,,,1104.0566,1104.2559,1104.2559,1104.7562,,,,,,,,,,,,,,0.8681,1,,,,,,,,,,,,,,z,,,,,,,,,,,,,,,148,0,1104.7568,1105.6396,z,1,0.8681,,[],[],[],[],[],[],[],1105.6397,1107.6395,1107.6396,1107.6398,[],[],[],[],[],[],[],,1107.6399,1107.64,0.685575181,0.392549819,0,0,0,,0,147,147,14,1,2,RL,insibate,cursive,insibate_c.png,,,,,,
,,,,32121,001,2025-10-16_15h24.27.080,HW_LDT_1,2024.2.4,MacIntel,59.88023952,,,,,,,,,,,,,,,,,,,,,,1107.6415,1107.8393,1107.8393,1108.3393,,,,,,,,,,,,,,0.7756,1,,,,,,,,,,,,,,z,,,,,,,,,,,,,,,149,0,1108.3395,1109.1232,z,1,0.7756,,[],[],[],[],[],[],[],1109.1232,1111.123,1111.1231,1111.1233,[],[],[],[],[],[],[],,1111.1233,1111.1234,0.685575181,0.392549819,0,0,0,,0,148,148,50,1,2,TL,donimant,print,donimant_p.png,,,,,,
,,,,32121,001,2025-10-16_15h24.27.080,HW_LDT_1,2024.2.4,MacIntel,59.88023952,,,,,,,,,,,,,,,,,,,,,,1111.1249,1111.3229,1111.323,1111.8229,,,,,,,,,,,,,,1.3608,1,,,,,,,,,,,,,,m,,,,,,,,,,,,,,,150,0,1111.8232,1113.1899,m,1,1.3608,0.0034,[],[],[],[],[],[],[],1113.1899,1115.1899,1115.19,1115.1903,[],[],[],[],[],[],[],,1115.1904,1115.1905,0.685575181,0.392549819,0,0,0,,0,149,149,84,1,2,word,BELOVED,cursive,beloved_c.png,,,,,,
,,,,32121,001,2025-10-16_15h24.27.080,HW_LDT_1,2024.2.4,MacIntel,59.88023952,,,,,,,,,,,,,,,,,,,,,,1115.1921,1115.3899,1115.3899,1115.8892,,,,,,,,,,,,,,3.4447,1,,,,,,,,,,,,,,m,,,,,,,,,,,,,,,151,0,1115.8916,1119.3398,m,1,3.4447,,[],[],[],[],[],[],[],1119.3399,1121.3392,1121.3393,1121.3394,[],[],[],[],[],[],[],,1121.3394,1121.3395,0.685575181,0.392549819,0,0,0,,0,150,150,155,1,2,word,STRATEGY,cursive,strategy_c.png,,,,,,
,,,,32121,001,2025-10-16_15h24.27.080,HW_LDT_1,2024.2.4,MacIntel,59.88023952,,,,,,,,,,,,,,,,,,,,,,1121.3401,1121.5396,1121.5396,1122.0399,,,,,,,,,,,,,,1.1133,1,,,,,,,,,,,,,,z,,,,,,,,,,,,,,,152,0,1122.042,1123.1569,z,1,1.1133,,[],[],[],[],[],[],[],1123.1571,1125.1565,1125.1565,1125.1566,[],[],[],[],[],[],[],,1125.1567,1125.157,0.685575181,0.392549819,0,0,0,,0,151,151,26,1,2,RL,retupar,cursive,retupar_c.png,,,,,,
,,,,32121,001,2025-10-16_15h24.27.080,HW_LDT_1,2024.2.4,MacIntel,59.88023952,,,,,,,,,,,,,,,,,,,,,,1125.158,1125.3573,1125.3573,1125.8567,,,,,,,,,,,,,,0.7797,0,,,,,,,,,,,,,,m,,,,,,,,,,,,,,,153,0,1125.8579,1126.64,z,0,0.7797,,[],[],[],[],[],[],[],1126.6401,1128.6403,1128.6404,1128.6406,[],[],[],[],[],[],[],,1128.6406,1128.6407,0.685575181,0.392549819,0,0,0,,0,152,152,97,1,2,word,COVERAGE,cursive,coverage_c.png,,,,,,
,,,,32121,001,2025-10-16_15h24.27.080,HW_LDT_1,2024.2.4,MacIntel,59.88023952,,,,,,,,,,,,,,,,,,,,,,1128.6435,1128.8396,1128.8396,1129.3402,,,,,,,,,,,,,,0.8815,1,,,,,,,,,,,,,,z,,,,,,,,,,,,,,,154,0,1129.3406,1130.2237,z,1,0.8815,,[],[],[],[],[],[],[],1130.2238,1132.2233,1132.2233,1132.2235,[],[],[],[],[],[],[],,1132.2236,1132.2237,0.685575181,0.392549819,0,0,0,,0,153,153,64,1,2,TL,paficic,print,paficic_p.png,,,,,,
,,,,32121,001,2025-10-16_15h24.27.080,HW_LDT_1,2024.2.4,MacIntel,59.88023952,,,,,,,,,,,,,,,,,,,,,,1132.2265,1132.4236,1132.4236,1132.9237,,,,,,,,,,,,,,1.1747,1,,,,,,,,,,,,,,m,,,,,,,,,,,,,,,155,0,1132.9243,1134.107,m,1,1.1747,,[],[],[],[],[],[],[],1134.1071,1136.1064,1136.1064,1136.1067,[],[],[],[],[],[],[],,1136.1067,1136.1068,0.685575181,0.392549819,0,0,0,,0,154,154,150,1,2,word,SENTIMENT,cursive,sentiment_c.png,,,,,,
,,,,32121,001,2025-10-16_15h24.27.080,HW_LDT_1,2024.2.4,MacIntel,59.88023952,,,,,,,,,,,,,,,,,,,,,,1136.1082,1136.3071,1136.3071,1136.807,,,,,,,,,,,,,,2.3601,1,,,,,,,,,,,,,,m,,,,,,,,,,,,,,,156,0,1136.8081,1139.1733,m,1,2.3601,,[],[],[],[],[],[],[],1139.1735,1141.174,1141.174,1141.1741,[],[],[],[],[],[],[],,1141.1742,1141.1742,0.685575181,0.392549819,0,0,0,,0,155,155,86,1,2,word,BESIDE,cursive,beside_c.png,,,,,,
,,,,32121,001,2025-10-16_15h24.27.080,HW_LDT_1,2024.2.4,MacIntel,59.88023952,,,,,,,,,,,,,,,,,,,,,,1141.1752,1141.3735,1141.3736,1141.8739,,,,,,,,,,,,,,2.6705,1,,,,,,,,,,,,,,z,,,,,,,,,,,,,,,157,0,1141.8744,1144.5574,z,1,2.6705,,[],[],[],[],[],[],[],1144.5575,1146.5571,1146.5572,1146.5573,[],[],[],[],[],[],[],,1146.5574,1146.5575,0.685575181,0.392549819,0,0,0,,0,156,156,76,1,2,TL,senmitent,cursive,senmitent_c.png,,,,,,
,,,,32121,001,2025-10-16_15h24.27.080,HW_LDT_1,2024.2.4,MacIntel,59.88023952,,,,,,,,,,,,,,,,,,,,,,1146.5586,1146.7565,1146.7566,1147.2575,,,,,,,,,,,,,,3.43,1,,,,,,,,,,,,,,m,,,,,,,,,,,,,,,158,0,1147.2582,1150.6907,m,1,3.43,,[],[],[],[],[],[],[],1150.6908,1152.6907,1152.6908,1152.6909,[],[],[],[],[],[],[],,1152.691,1152.6911,0.685575181,0.392549819,0,0,0,,0,157,157,119,1,2,word,MEMORY,cursive,memory_c.png,,,,,,
,,,,32121,001,2025-10-16_15h24.27.080,HW_LDT_1,2024.2.4,MacIntel,59.88023952,,,,,,,,,,,,,,,,,,,,,,1152.692,1152.8908,1152.8909,1153.3898,,,,,,,,,,,,,,1.0585,1,,,,,,,,,,,,,,m,,,,,,,,,,,,,,,159,0,1153.3902,1154.4576,m,1,1.0585,,[],[],[],[],[],[],[],1154.4578,1156.4577,1156.4578,1156.458,[],[],[],[],[],[],[],,1156.458,1156.4581,0.685575181,0.392549819,0,0,0,,0,158,158,128,1,2,word,PACIFIC,print,pacific_p.png,,,,,,
,,,,32121,001,2025-10-16_15h24.27.080,HW_LDT_1,2024.2.4,MacIntel,59.88023952,,,,,,,,,,,,,,,,,,,,,,1156.4596,1156.6565,1156.6565,1157.1577,,,,,,,,,,,,,,2.7564,1,,,,,,,,,,,,,,m,,,,,,,,,,,,,,,160,0,1157.1584,1159.924,m,1,2.7564,,[],[],[],[],[],[],[],1159.9241,1161.9243,1161.9243,1161.9246,[],[],[],[],[],[],[],,1161.9247,1161.9248,0.685575181,0.392549819,0,0,0,,0,159,159,135,1,2,word,QUALITY,cursive,quality_c.png,,,,,,
,,,,32121,001,2025-10-16_15h24.27.080,HW_LDT_1,2024.2.4,MacIntel,59.88023952,,,,,,,,,,,,,,,,,,,,,,,,,,,,,,,,,,,,,,,,,,,,,,,,,,,,,,,,,,,,,,,,,,,,,,,,,,,,,,,,,,,,,,,,,,,,,,,,,,,,,,,,,,,,,,,,,,,,,,1161.9406,1166.9247
