counterbalance_lists.group,counterbalance_lists.remaining,get_list.started,get_list.stopped,participant,session,date,expName,psychopyVersion,OS,frameRate,Instructions.started,Instructions.stopped,key_resp.keys,key_resp.rt,key_resp.duration,instr_done_touch.x,instr_done_touch.y,instr_done_touch.leftButton,instr_done_touch.midButton,instr_done_touch.rightButton,instr_done_touch.clicked_name,start_instr.thisRepN,start_instr.thisTrialN,start_instr.thisN,start_instr.thisIndex,start_instr.ran,pageN,phase,instruct_text,has_image,instruct_image,showProgress.started,showProgress.stopped,fix.started,fix.stopped,prac.started,prac.stopped,response.keys,response.corr,response.rt,response.duration,touch_resp.x,touch_resp.y,touch_resp.leftButton,touch_resp.midButton,touch_resp.rightButton,touch_resp.time,touch_resp.clicked_name,rt,corr,feedback.started,feedback.stopped,trials.thisRepN,trials.thisTrialN,trials.thisN,trials.thisIndex,trials.ran,TrialID,StimulusType,Condition,PrimeDuration,Prime,Target,corrAns,Instructions_expt.started,Instructions_expt.stopped,key_resp_3.keys,instr_done_touch_3.x,instr_done_touch_3.y,instr_done_touch_3.leftButton,instr_done_touch_3.midButton,instr_done_touch_3.rightButton,instr_done_touch_3.clicked_name,instr_experiment.thisRepN,instr_experiment.thisTrialN,instr_experiment.thisN,instr_experiment.thisIndex,instr_experiment.ran,trialID,flag,maintask.started,maintask.stopped,key_resp_2.keys,key_resp_2.corr,key_resp_2.rt,key_resp_2.duration,targ_click.x,targ_click.y,targ_click.leftButton,targ_click.midButton,targ_click.rightButton,targ_click.time,targ_click.clicked_name,ITI.started,ITI.stopped,probe.started,probe.stopped,click_probe.x,click_probe.y,click_probe.leftButton,click_probe.midButton,click_probe.rightButton,click_probe.time,click_probe.clicked_name,key_resp_probe.keys,Break.started,Break.stopped,break_done_touch.x,break_done_touch.y,break_done_touch.leftButton,break_done_touch.midButton,break_done_touch.rightButton,break_done_keyboard.keys,list4_trials.thisRepN,list4_trials.thisTrialN,list4_trials.thisN,list4_trials.thisIndex,list4_trials.ran,list_id,item_type,string,font,stim_file,key_resp_probe.rt,key_resp_probe.duration,break_done_keyboard.rt,break_done_keyboard.duration,End.started,End.stopped
list4,,0.4342,0.4343,32127,001,2025-10-16_16h07.17.515,HW_LDT_1,2024.2.4,MacIntel,60.24096386,,,,,,,,,,,,,,,,,,,,,,,,,,,,,,,,,,,,,,,,,,,,,,,,,,,,,,,,,,,,,,,,,,,,,,,,,,,,,,,,,,,,,,,,,,,,,,,,,,,,,,,,,,,,,,,,,,,,,,,
,,,,32127,001,2025-10-16_16h07.17.515,HW_LDT_1,2024.2.4,MacIntel,60.24096386,0.4525,3.1835,space,2.6866,,-0.020109321,-0.398824124,0,0,0,,0,0,0,0,1,1,instructions,"INSTRUCTIONS
At the start of each trial, look at the plus sign  (+) in the center of the screen.  This tells you that a trial is about to begin and where to look. Second, the plus sign will disappear and a string of letters will appear. Your task is to determine if the string of letters is a word or not. If the item is a word press the M key (on keyboard)  or touch the word button (phone/tablet).  If the item is not a word,  press the  Z key (on keyboard)  or touch the nonword button (on phone/tablet). The items will be presented for a short time. 
Press the space bar or touch  continue.",0,,,,,,,,,,,,,,,,,,,,,,,,,,,,,,,,,,,,,,,,,,,,,,,,,,,,,,,,,,,,,,,,,,,,,,,,,,,,,,,,,,,,,,,,,,,,,,,,,,,
,,,,32127,001,2025-10-16_16h07.17.515,HW_LDT_1,2024.2.4,MacIntel,60.24096386,3.1849,3.7159,space,0.5094,,-0.020109321,-0.398824124,0,0,0,,0,1,1,1,1,2,instructions,"If your device has a keyboard, press the 'Z' key for nonwords and the 'M' key for words.





Press the space bar or touch the button below to continue.",0,keyboard-example.gif,,,,,,,,,,,,,,,,,,,,,,,,,,,,,,,,,,,,,,,,,,,,,,,,,,,,,,,,,,,,,,,,,,,,,,,,,,,,,,,,,,,,,,,,,,,,,,,,,,
,,,,32127,001,2025-10-16_16h07.17.515,HW_LDT_1,2024.2.4,MacIntel,60.24096386,3.7168,4.299,space,0.5621,,-0.020109321,-0.398824124,0,0,0,,0,2,2,2,1,3,instructions,"If you are using a touchscreen only device, use the buttons on the screen. Do not use the mouse.





Press the space bar or touch the button below to continue.",0,touchscreen-example.gif,,,,,,,,,,,,,,,,,,,,,,,,,,,,,,,,,,,,,,,,,,,,,,,,,,,,,,,,,,,,,,,,,,,,,,,,,,,,,,,,,,,,,,,,,,,,,,,,,,
,,,,32127,001,2025-10-16_16h07.17.515,HW_LDT_1,2024.2.4,MacIntel,60.24096386,4.3007,4.4991,space,0.1679,,-0.020109321,-0.398824124,0,0,0,,0,3,3,3,1,4,instructions,"It is very important that you respond as quickly and accurately as possible, as each letter string will only be on the screen for two seconds. If you do not respond within this time, the message 'Too slow!' will be displayed and the experiment will progress to the next letter string. The first 20 trials will be practice trials and you will receive feedback on your answers. 

Press the space bar or touch the button below to start the practice trials.",0,,,,,,,,,,,,,,,,,,,,,,,,,,,,,,,,,,,,,,,,,,,,,,,,,,,,,,,,,,,,,,,,,,,,,,,,,,,,,,,,,,,,,,,,,,,,,,,,,,,
,,,,32127,001,2025-10-16_16h07.17.515,HW_LDT_1,2024.2.4,MacIntel,60.24096386,,,,,,,,,,,,,,,,,,,,,,4.5263,4.6989,4.699,5.1998,5.2001,9.0336,m,1,3.7982,,[],[],[],[],[],[],[],3.7982,1,9.034,9.5332,0,0,0,2,1,1003,WORD,"ID",16,almond,ALMOND,m,,,,,,,,,,,,,,,,,,,,,,,,,,,,,,,,,,,,,,,,,,,,,,,,,,,,,,,,,,,,,,,,,
,,,,32127,001,2025-10-16_16h07.17.515,HW_LDT_1,2024.2.4,MacIntel,60.24096386,,,,,,,,,,,,,,,,,,,,,,9.5347,9.7325,9.7326,10.233,10.234,12.6819,z,1,2.4275,,[],[],[],[],[],[],[],2.4275,1,12.6819,13.1828,0,1,1,10,1,1011,NW,"ID",16,inlade,INLADE,z,,,,,,,,,,,,,,,,,,,,,,,,,,,,,,,,,,,,,,,,,,,,,,,,,,,,,,,,,,,,,,,,,
,,,,32127,001,2025-10-16_16h07.17.515,HW_LDT_1,2024.2.4,MacIntel,60.24096386,,,,,,,,,,,,,,,,,,,,,,13.1836,13.3828,13.3829,13.883,13.884,15.0151,z,1,1.1082,,[],[],[],[],[],[],[],1.1082,1,15.0152,15.5152,0,2,2,14,1,1015,NW,UN,16,miaber,THRALE,z,,,,,,,,,,,,,,,,,,,,,,,,,,,,,,,,,,,,,,,,,,,,,,,,,,,,,,,,,,,,,,,,,
,,,,32127,001,2025-10-16_16h07.17.515,HW_LDT_1,2024.2.4,MacIntel,60.24096386,,,,,,,,,,,,,,,,,,,,,,15.5161,15.7152,15.7153,16.2163,16.2169,17.3828,z,1,1.1377,,[],[],[],[],[],[],[],1.1377,1,17.383,17.8827,0,3,3,8,1,1009,NW,"ID",33,aslert,ASLERT,z,,,,,,,,,,,,,,,,,,,,,,,,,,,,,,,,,,,,,,,,,,,,,,,,,,,,,,,,,,,,,,,,,
,,,,32127,001,2025-10-16_16h07.17.515,HW_LDT_1,2024.2.4,MacIntel,60.24096386,,,,,,,,,,,,,,,,,,,,,,17.8838,18.0818,18.0818,18.5827,18.5836,19.8658,m,1,1.2538,,[],[],[],[],[],[],[],1.2538,1,19.8658,20.3661,0,4,4,6,1,1007,WORD,UN,16,tropic,ZOMBIE,m,,,,,,,,,,,,,,,,,,,,,,,,,,,,,,,,,,,,,,,,,,,,,,,,,,,,,,,,,,,,,,,,,
,,,,32127,001,2025-10-16_16h07.17.515,HW_LDT_1,2024.2.4,MacIntel,60.24096386,,,,,,,,,,,,,,,,,,,,,,20.3673,20.565,20.5651,21.066,21.0667,22.2328,m,0,1.1369,,[],[],[],[],[],[],[],1.1369,0,22.2338,22.7327,0,5,5,9,1,1010,NW,"ID",33,fariny,FARINY,z,,,,,,,,,,,,,,,,,,,,,,,,,,,,,,,,,,,,,,,,,,,,,,,,,,,,,,,,,,,,,,,,,
,,,,32127,001,2025-10-16_16h07.17.515,HW_LDT_1,2024.2.4,MacIntel,60.24096386,,,,,,,,,,,,,,,,,,,,,,22.734,22.9327,22.9328,23.4328,23.434,24.5158,m,1,1.0608,,[],[],[],[],[],[],[],1.0608,1,24.5164,25.016,0,6,6,1,1,1002,WORD,"ID",33,adjust,ADJUST,m,,,,,,,,,,,,,,,,,,,,,,,,,,,,,,,,,,,,,,,,,,,,,,,,,,,,,,,,,,,,,,,,,
,,,,32127,001,2025-10-16_16h07.17.515,HW_LDT_1,2024.2.4,MacIntel,60.24096386,,,,,,,,,,,,,,,,,,,,,,25.0171,25.2152,25.2152,25.7161,25.7171,26.9328,m,1,1.1914,,[],[],[],[],[],[],[],1.1914,1,26.933,27.4326,0,7,7,4,1,1005,WORD,UN,33,abound,SQUEAK,m,,,,,,,,,,,,,,,,,,,,,,,,,,,,,,,,,,,,,,,,,,,,,,,,,,,,,,,,,,,,,,,,,
,,,,32127,001,2025-10-16_16h07.17.515,HW_LDT_1,2024.2.4,MacIntel,60.24096386,,,,,,,,,,,,,,,,,,,,,,27.4339,27.6323,27.6323,28.1325,28.133,29.0321,m,1,0.8761,,[],[],[],[],[],[],[],0.8761,1,29.0322,29.5318,0,8,8,3,1,1004,WORD,"ID",16,matrix,MATRIX,m,,,,,,,,,,,,,,,,,,,,,,,,,,,,,,,,,,,,,,,,,,,,,,,,,,,,,,,,,,,,,,,,,
,,,,32127,001,2025-10-16_16h07.17.515,HW_LDT_1,2024.2.4,MacIntel,60.24096386,,,,,,,,,,,,,,,,,,,,,,29.5328,29.7327,29.7327,30.2327,30.2336,31.2491,m,1,0.9919,,[],[],[],[],[],[],[],0.9919,1,31.2493,31.7492,0,9,9,7,1,1008,WORD,UN,16,hurdle,VOLUME,m,,,,,,,,,,,,,,,,,,,,,,,,,,,,,,,,,,,,,,,,,,,,,,,,,,,,,,,,,,,,,,,,,
,,,,32127,001,2025-10-16_16h07.17.515,HW_LDT_1,2024.2.4,MacIntel,60.24096386,,,,,,,,,,,,,,,,,,,,,,31.7503,31.9494,31.9494,32.4488,32.4498,33.3326,m,1,0.8559,,[],[],[],[],[],[],[],0.8559,1,33.3327,33.8325,0,10,10,5,1,1006,WORD,UN,33,frenzy,OBTAIN,m,,,,,,,,,,,,,,,,,,,,,,,,,,,,,,,,,,,,,,,,,,,,,,,,,,,,,,,,,,,,,,,,,
,,,,32127,001,2025-10-16_16h07.17.515,HW_LDT_1,2024.2.4,MacIntel,60.24096386,,,,,,,,,,,,,,,,,,,,,,33.8336,34.0323,34.0323,34.5322,34.5329,35.3983,z,1,0.8442,,[],[],[],[],[],[],[],0.8442,1,35.3984,35.8991,0,11,11,15,1,1016,NW,UN,16,mushed,WHAISE,z,,,,,,,,,,,,,,,,,,,,,,,,,,,,,,,,,,,,,,,,,,,,,,,,,,,,,,,,,,,,,,,,,
,,,,32127,001,2025-10-16_16h07.17.515,HW_LDT_1,2024.2.4,MacIntel,60.24096386,,,,,,,,,,,,,,,,,,,,,,35.9002,36.0993,36.0993,36.5987,36.5996,37.5824,z,1,0.9583,,[],[],[],[],[],[],[],0.9583,1,37.5824,38.0825,0,12,12,11,1,1012,NW,"ID",16,rashet,RASHET,z,,,,,,,,,,,,,,,,,,,,,,,,,,,,,,,,,,,,,,,,,,,,,,,,,,,,,,,,,,,,,,,,,
,,,,32127,001,2025-10-16_16h07.17.515,HW_LDT_1,2024.2.4,MacIntel,60.24096386,,,,,,,,,,,,,,,,,,,,,,38.0836,38.2824,38.2825,38.7825,38.7834,41.266,z,1,2.4512,,[],[],[],[],[],[],[],2.4512,1,41.2661,41.7653,0,13,13,12,1,1013,NW,UN,33,adveil,SPRINY,z,,,,,,,,,,,,,,,,,,,,,,,,,,,,,,,,,,,,,,,,,,,,,,,,,,,,,,,,,,,,,,,,,
,,,,32127,001,2025-10-16_16h07.17.515,HW_LDT_1,2024.2.4,MacIntel,60.24096386,,,,,,,,,,,,,,,,,,,,,,41.7665,41.9658,41.9658,42.4654,42.4663,43.5822,m,1,1.0959,,[],[],[],[],[],[],[],1.0959,1,43.5823,44.0825,0,14,14,0,1,1001,WORD,"ID",33,utopia,UTOPIA,m,,,,,,,,,,,,,,,,,,,,,,,,,,,,,,,,,,,,,,,,,,,,,,,,,,,,,,,,,,,,,,,,,
,,,,32127,001,2025-10-16_16h07.17.515,HW_LDT_1,2024.2.4,MacIntel,60.24096386,,,,,,,,,,,,,,,,,,,,,,44.0835,44.2824,44.2824,44.7824,44.7831,46.0489,z,1,1.2461,,[],[],[],[],[],[],[],1.2461,1,46.0489,46.5481,0,15,15,13,1,1014,NW,UN,33,winfer,ROUPET,z,,,,,,,,,,,,,,,,,,,,,,,,,,,,,,,,,,,,,,,,,,,,,,,,,,,,,,,,,,,,,,,,,
,,,,32127,001,2025-10-16_16h07.17.515,HW_LDT_1,2024.2.4,MacIntel,60.24096386,,,,,,,,,,,,,,,,,1,end_of_practice,"You have completed the practice trials. During the experimental trials, you will not receive feedback. On some trials you will be asked to report whether the item you just saw was in cursive or print. 
Before you begin, please ensure that you are in a comfortable and quiet location and will not be disturbed for about 15 minutes, as we cannot use your data if you do not complete all the trials. 
 When you are ready to start the experimental trials, please press space or touch the button below.",,,,,,,,,,,,,,,,,,,,,,,,,,,,,,,,,,,,46.5541,47.6315,,0.063073256,-0.382624444,1,0,0,instr_done_button_3,0,0,0,0,1,,,,,,,,,,,,,,,,,,,,,,,,,,,,,,,,,,,,,,,,,,,,,,,,,,,
,,,,32127,001,2025-10-16_16h07.17.515,HW_LDT_1,2024.2.4,MacIntel,60.24096386,,,,,,,,,,,,,,,,,,,,,,47.6487,47.8323,47.8323,48.3318,,,,,,,,,,,,,,1.3088,0,,,,,,,,,,,,,,z,,,,,,,,,,,,,,,1,0,48.3332,49.6491,m,0,1.3088,,[],[],[],[],[],[],[],49.6492,51.6491,51.6494,51.6527,[],[],[],[],[],[],[],,51.6528,51.6549,0.063073256,-0.382624444,0,0,0,,0,0,0,78,1,4,TL,stragety,print,stragety_p.png,,,,,,
,,,,32127,001,2025-10-16_16h07.17.515,HW_LDT_1,2024.2.4,MacIntel,60.24096386,,,,,,,,,,,,,,,,,,,,,,51.6556,51.849,51.8491,52.348,,,,,,,,,,,,,,0.8538,1,,,,,,,,,,,,,,m,,,,,,,,,,,,,,,2,0,52.3486,53.2155,m,1,0.8538,,[],[],[],[],[],[],[],53.2157,55.2146,55.2147,55.2149,[],[],[],[],[],[],[],,55.215,55.215,0.063073256,-0.382624444,0,0,0,,0,1,1,90,1,4,word,CAPITAL,print,capital_p.png,,,,,,
,,,,32127,001,2025-10-16_16h07.17.515,HW_LDT_1,2024.2.4,MacIntel,60.24096386,,,,,,,,,,,,,,,,,,,,,,55.216,55.4147,55.4147,55.9154,,,,,,,,,,,,,,1.722,1,,,,,,,,,,,,,,m,,,,,,,,,,,,,,,3,0,55.9159,57.6489,m,1,1.722,,[],[],[],[],[],[],[],57.6489,59.649,59.6491,59.6493,[],[],[],[],[],[],[],,59.6493,59.6495,0.063073256,-0.382624444,0,0,0,,0,2,2,104,1,4,word,DOMINANT,cursive,dominant_c.png,,,,,,
,,,,32127,001,2025-10-16_16h07.17.515,HW_LDT_1,2024.2.4,MacIntel,60.24096386,,,,,,,,,,,,,,,,,,,,,,59.6505,59.8489,59.8489,60.3489,,,,,,,,,,,,,,2.109,0,,,,,,,,,,,,,,m,,,,,,,,,,,,,,,4,0,60.3493,62.4643,z,0,2.109,,[],[],[],[],[],[],[],62.4644,64.4654,64.4655,64.4656,[],[],[],[],[],[],[],,64.4657,64.4658,0.063073256,-0.382624444,0,0,0,,0,3,3,99,1,4,word,DEBATE,cursive,debate_c.png,,,,,,
,,,,32127,001,2025-10-16_16h07.17.515,HW_LDT_1,2024.2.4,MacIntel,60.24096386,,,,,,,,,,,,,,,,,,,,,,64.4666,64.665,64.6651,65.1654,,,,,,,,,,,,,,1.3287,0,,,,,,,,,,,,,,z,,,,,,,,,,,,,,,5,1,65.1658,66.4988,m,0,1.3287,,[],[],[],[],[],[],[],66.4988,68.4978,68.4978,75.0821,[],[],[],[],[],[],[],m,75.0822,75.0824,0.063073256,-0.382624444,0,0,0,,0,4,4,70,1,4,TL,quatily,print,quatily_p.png,6.5723,,,,,
,,,,32127,001,2025-10-16_16h07.17.515,HW_LDT_1,2024.2.4,MacIntel,60.24096386,,,,,,,,,,,,,,,,,,,,,,75.0837,75.2811,75.2811,75.7817,,,,,,,,,,,,,,2.4739,0,,,,,,,,,,,,,,z,,,,,,,,,,,,,,,6,0,75.7821,78.2651,m,0,2.4739,,[],[],[],[],[],[],[],78.2653,80.2652,80.2653,80.2656,[],[],[],[],[],[],[],,80.2657,80.2659,0.063073256,-0.382624444,0,0,0,,0,5,5,32,1,4,RL,patisic,cursive,patisic_c.png,,,,,,
,,,,32127,001,2025-10-16_16h07.17.515,HW_LDT_1,2024.2.4,MacIntel,60.24096386,,,,,,,,,,,,,,,,,,,,,,80.267,80.4651,80.4651,80.9651,,,,,,,,,,,,,,1.0536,1,,,,,,,,,,,,,,m,,,,,,,,,,,,,,,7,0,80.9655,82.0197,m,1,1.0536,,[],[],[],[],[],[],[],82.0199,84.0151,84.0151,84.0154,[],[],[],[],[],[],[],,84.0154,84.0155,0.063073256,-0.382624444,0,0,0,,0,6,6,146,1,4,word,RETIRE,print,retire_p.png,,,,,,
,,,,32127,001,2025-10-16_16h07.17.515,HW_LDT_1,2024.2.4,MacIntel,60.24096386,,,,,,,,,,,,,,,,,,,,,,84.0167,84.2143,84.2143,84.7152,,,,,,,,,,,,,,0.7094,1,,,,,,,,,,,,,,m,,,,,,,,,,,,,,,8,0,84.7158,85.4311,m,1,0.7094,,[],[],[],[],[],[],[],85.4312,87.4309,87.431,87.4311,[],[],[],[],[],[],[],,87.4312,87.4313,0.063073256,-0.382624444,0,0,0,,0,7,7,117,1,4,word,MARINE,print,marine_p.png,,,,,,
,,,,32127,001,2025-10-16_16h07.17.515,HW_LDT_1,2024.2.4,MacIntel,60.24096386,,,,,,,,,,,,,,,,,,,,,,87.4324,87.6313,87.6314,88.1312,,,,,,,,,,,,,,1.3767,1,,,,,,,,,,,,,,z,,,,,,,,,,,,,,,9,0,88.1317,89.5151,z,1,1.3767,,[],[],[],[],[],[],[],89.5151,91.515,91.515,91.5151,[],[],[],[],[],[],[],,91.5152,91.5154,0.063073256,-0.382624444,0,0,0,,0,8,8,10,1,4,RL,carminal,cursive,carminal_c.png,,,,,,
,,,,32127,001,2025-10-16_16h07.17.515,HW_LDT_1,2024.2.4,MacIntel,60.24096386,,,,,,,,,,,,,,,,,,,,,,91.5166,91.715,91.7151,92.2149,,,,,,,,,,,,,,2.5773,0,,,,,,,,,,,,,,z,,,,,,,,,,,,,,,10,1,92.2153,94.7972,m,0,2.5773,,[],[],[],[],[],[],[],94.7972,96.7982,96.7983,97.8638,[],[],[],[],[],[],[],z,97.8639,97.864,0.063073256,-0.382624444,0,0,0,,0,9,9,59,1,4,TL,fornute,cursive,fornute_c.png,1.0571,,,,,
,,,,32127,001,2025-10-16_16h07.17.515,HW_LDT_1,2024.2.4,MacIntel,60.24096386,,,,,,,,,,,,,,,,,,,,,,97.8647,98.0643,98.0643,98.5648,,,,,,,,,,,,,,1.2541,1,,,,,,,,,,,,,,m,,,,,,,,,,,,,,,11,0,98.5652,99.8316,m,1,1.2541,,[],[],[],[],[],[],[],99.8317,101.8307,101.8307,101.8309,[],[],[],[],[],[],[],,101.8309,101.8311,0.063073256,-0.382624444,0,0,0,,0,10,10,148,1,4,word,SALINE,print,saline_p.png,,,,,,
,,,,32127,001,2025-10-16_16h07.17.515,HW_LDT_1,2024.2.4,MacIntel,60.24096386,,,,,,,,,,,,,,,,,,,,,,101.8319,102.0317,102.0317,102.5316,,,,,,,,,,,,,,1.0973,1,,,,,,,,,,,,,,z,,,,,,,,,,,,,,,12,0,102.532,103.6305,z,1,1.0973,,[],[],[],[],[],[],[],103.6306,105.6312,105.6312,105.6313,[],[],[],[],[],[],[],,105.6313,105.6314,0.063073256,-0.382624444,0,0,0,,0,11,11,22,1,4,RL,linedal,cursive,linedal_c.png,,,,,,
,,,,32127,001,2025-10-16_16h07.17.515,HW_LDT_1,2024.2.4,MacIntel,60.24096386,,,,,,,,,,,,,,,,,,,,,,105.6324,105.8305,105.8305,106.3311,,,,,,,,,,,,,,0.9065,1,,,,,,,,,,,,,,m,,,,,,,,,,,,,,,13,0,106.3315,107.2481,m,1,0.9065,,[],[],[],[],[],[],[],107.2481,109.2482,109.2483,109.2485,[],[],[],[],[],[],[],,109.2486,109.2487,0.063073256,-0.382624444,0,0,0,,0,12,12,131,1,4,word,POPULAR,print,popular_p.png,,,,,,
,,,,32127,001,2025-10-16_16h07.17.515,HW_LDT_1,2024.2.4,MacIntel,60.24096386,,,,,,,,,,,,,,,,,,,,,,109.2499,109.4478,109.4478,109.9477,,,,,,,,,,,,,,1.2932,1,,,,,,,,,,,,,,m,,,,,,,,,,,,,,,14,0,109.9481,111.2477,m,1,1.2932,,[],[],[],[],[],[],[],111.2478,113.2481,113.2482,113.2483,[],[],[],[],[],[],[],,113.2484,113.2484,0.063073256,-0.382624444,0,0,0,,0,13,13,150,1,4,word,SENTIMENT,print,sentiment_p.png,,,,,,
,,,,32127,001,2025-10-16_16h07.17.515,HW_LDT_1,2024.2.4,MacIntel,60.24096386,,,,,,,,,,,,,,,,,,,,,,113.2495,113.4481,113.4482,113.9475,,,,,,,,,,,,,,1.2156,0,,,,,,,,,,,,,,z,,,,,,,,,,,,,,,15,0,113.9478,115.164,m,0,1.2156,,[],[],[],[],[],[],[],115.1641,117.164,117.1641,117.1643,[],[],[],[],[],[],[],,117.1643,117.1644,0.063073256,-0.382624444,0,0,0,,0,14,14,76,1,4,TL,setanor,print,setanor_p.png,,,,,,
,,,,32127,001,2025-10-16_16h07.17.515,HW_LDT_1,2024.2.4,MacIntel,60.24096386,,,,,,,,,,,,,,,,,,,,,,117.1655,117.3641,117.3641,117.8647,,,,,,,,,,,,,,1.2716,1,,,,,,,,,,,,,,m,,,,,,,,,,,,,,,16,0,117.865,119.148,m,1,1.2716,,[],[],[],[],[],[],[],119.1481,121.147,121.1471,121.1472,[],[],[],[],[],[],[],,121.1472,121.1473,0.063073256,-0.382624444,0,0,0,,0,15,15,139,1,4,word,REGULAR,cursive,regular_c.png,,,,,,
,,,,32127,001,2025-10-16_16h07.17.515,HW_LDT_1,2024.2.4,MacIntel,60.24096386,,,,,,,,,,,,,,,,,,,,,,121.1483,121.3473,121.3474,121.8478,,,,,,,,,,,,,,0.8454,1,,,,,,,,,,,,,,z,,,,,,,,,,,,,,,17,0,121.8482,122.6978,z,1,0.8454,,[],[],[],[],[],[],[],122.6979,124.6976,124.6976,124.6978,[],[],[],[],[],[],[],,124.6979,124.698,0.063073256,-0.382624444,0,0,0,,0,16,16,47,1,4,RL,stopave,print,stopave_p.png,,,,,,
,,,,32127,001,2025-10-16_16h07.17.515,HW_LDT_1,2024.2.4,MacIntel,60.24096386,,,,,,,,,,,,,,,,,,,,,,124.6988,124.8981,124.8982,125.3976,,,,,,,,,,,,,,1.3227,1,,,,,,,,,,,,,,m,,,,,,,,,,,,,,,18,0,125.3981,126.7313,m,1,1.3227,,[],[],[],[],[],[],[],126.7314,128.7313,128.7314,128.7316,[],[],[],[],[],[],[],,128.7316,128.7318,0.063073256,-0.382624444,0,0,0,,0,17,17,124,1,4,word,NUMERICAL,cursive,numerical_c.png,,,,,,
,,,,32127,001,2025-10-16_16h07.17.515,HW_LDT_1,2024.2.4,MacIntel,60.24096386,,,,,,,,,,,,,,,,,,,,,,128.7328,128.9311,128.9311,129.4306,,,,,,,,,,,,,,0.8713,1,,,,,,,,,,,,,,z,,,,,,,,,,,,,,,19,0,129.4311,130.3146,z,1,0.8713,,[],[],[],[],[],[],[],130.3146,132.3144,132.3145,132.3147,[],[],[],[],[],[],[],,132.3147,132.3149,0.063073256,-0.382624444,0,0,0,,0,18,18,75,1,4,TL,sanile,print,sanile_p.png,,,,,,
,,,,32127,001,2025-10-16_16h07.17.515,HW_LDT_1,2024.2.4,MacIntel,60.24096386,,,,,,,,,,,,,,,,,,,,,,132.316,132.5145,132.5146,133.0144,,,,,,,,,,,,,,0.7397,1,,,,,,,,,,,,,,m,,,,,,,,,,,,,,,20,0,133.0149,133.7644,m,1,0.7397,,[],[],[],[],[],[],[],133.7645,135.7644,135.7644,135.7647,[],[],[],[],[],[],[],,135.7647,135.7648,0.063073256,-0.382624444,0,0,0,,0,19,19,126,1,4,word,OPTIMAL,print,optimal_p.png,,,,,,
,,,,32127,001,2025-10-16_16h07.17.515,HW_LDT_1,2024.2.4,MacIntel,60.24096386,,,,,,,,,,,,,,,,,,,,,,135.766,135.9636,135.9636,136.4644,,,,,,,,,,,,,,0.7884,1,,,,,,,,,,,,,,m,,,,,,,,,,,,,,,21,0,136.4648,137.2635,m,1,0.7884,,[],[],[],[],[],[],[],137.2636,139.2643,139.2643,139.2644,[],[],[],[],[],[],[],,139.2644,139.2646,0.063073256,-0.382624444,0,0,0,,0,20,20,89,1,4,word,CAPACITY,cursive,capacity_c.png,,,,,,
,,,,32127,001,2025-10-16_16h07.17.515,HW_LDT_1,2024.2.4,MacIntel,60.24096386,,,,,,,,,,,,,,,,,,,,,,139.2656,139.4645,139.4646,139.9638,,,,,,,,,,,,,,2.0742,1,,,,,,,,,,,,,,z,,,,,,,,,,,,,,,22,0,139.9643,142.0469,z,1,2.0742,,[],[],[],[],[],[],[],142.047,144.0469,144.0469,144.047,[],[],[],[],[],[],[],,144.0471,144.0472,0.063073256,-0.382624444,0,0,0,,0,21,21,14,1,4,RL,delahe,cursive,delahe_c.png,,,,,,
,,,,32127,001,2025-10-16_16h07.17.515,HW_LDT_1,2024.2.4,MacIntel,60.24096386,,,,,,,,,,,,,,,,,,,,,,144.0481,144.2477,144.2477,144.7469,,,,,,,,,,,,,,1.678,0,,,,,,,,,,,,,,m,,,,,,,,,,,,,,,23,0,144.7473,146.4308,z,0,1.678,,[],[],[],[],[],[],[],146.4308,148.431,148.4311,148.4313,[],[],[],[],[],[],[],,148.4314,148.4315,0.063073256,-0.382624444,0,0,0,,0,22,22,81,1,4,word,ADVISORY,cursive,advisory_c.png,,,,,,
,,,,32127,001,2025-10-16_16h07.17.515,HW_LDT_1,2024.2.4,MacIntel,60.24096386,,,,,,,,,,,,,,,,,,,,,,148.4327,148.6306,148.6307,149.1305,,,,,,,,,,,,,,1.3574,1,,,,,,,,,,,,,,z,,,,,,,,,,,,,,,24,0,149.1309,150.4974,z,1,1.3574,,[],[],[],[],[],[],[],150.4976,152.4967,152.4967,152.4969,[],[],[],[],[],[],[],,152.4969,152.497,0.063073256,-0.382624444,0,0,0,,0,23,23,23,1,4,RL,linefal,cursive,linefal_c.png,,,,,,
,,,,32127,001,2025-10-16_16h07.17.515,HW_LDT_1,2024.2.4,MacIntel,60.24096386,,,,,,,,,,,,,,,,,,,,,,152.498,152.6973,152.6973,153.1975,,,,,,,,,,,,,,1.921,1,,,,,,,,,,,,,,z,,,,,,,,,,,,,,,25,0,153.198,155.1308,z,1,1.921,,[],[],[],[],[],[],[],155.1308,157.1309,157.1309,157.1313,[],[],[],[],[],[],[],,157.1313,157.1314,0.1005228,-0.370488485,0,0,0,,0,24,24,35,1,4,RL,probice,cursive,probice_c.png,,,,,,
,,,,32127,001,2025-10-16_16h07.17.515,HW_LDT_1,2024.2.4,MacIntel,60.24096386,,,,,,,,,,,,,,,,,,,,,,157.1323,157.3308,157.3309,157.8304,,,,,,,,,,,,,,2.1465,1,,,,,,,,,,,,,,z,,,,,,,,,,,,,,,26,0,157.8309,159.9806,z,1,2.1465,,[],[],[],[],[],[],[],159.9807,161.9799,161.9799,161.9801,[],[],[],[],[],[],[],,161.9802,161.9802,0.055490112,-0.393651937,0,0,0,,0,25,25,19,1,4,RL,elacodate,cursive,elacodate_c.png,,,,,,
,,,,32127,001,2025-10-16_16h07.17.515,HW_LDT_1,2024.2.4,MacIntel,60.24096386,,,,,,,,,,,,,,,,,,,,,,161.9811,162.1806,162.1807,162.6806,,,,,,,,,,,,,,1.1764,1,,,,,,,,,,,,,,m,,,,,,,,,,,,,,,27,0,162.681,163.8641,m,1,1.1764,,[],[],[],[],[],[],[],163.8642,165.864,165.864,165.8642,[],[],[],[],[],[],[],,165.8642,165.8643,0.055490112,-0.393651937,0,0,0,,0,26,26,145,1,4,word,RESUME,print,resume_p.png,,,,,,
,,,,32127,001,2025-10-16_16h07.17.515,HW_LDT_1,2024.2.4,MacIntel,60.24096386,,,,,,,,,,,,,,,,,,,,,,165.8654,166.0633,166.0634,166.564,,,,,,,,,,,,,,1.1426,0,,,,,,,,,,,,,,z,,,,,,,,,,,,,,,28,0,166.5644,167.7132,m,0,1.1426,,[],[],[],[],[],[],[],167.7133,169.7131,169.7132,169.7133,[],[],[],[],[],[],[],,169.7134,169.7135,0.055490112,-0.393651937,0,0,0,,0,27,27,56,1,4,TL,donimant,cursive,donimant_c.png,,,,,,
,,,,32127,001,2025-10-16_16h07.17.515,HW_LDT_1,2024.2.4,MacIntel,60.24096386,,,,,,,,,,,,,,,,,,,,,,169.7143,169.914,169.914,170.4136,,,,,,,,,,,,,,1.1892,1,,,,,,,,,,,,,,z,,,,,,,,,,,,,,,29,1,170.414,171.6129,z,1,1.1892,,[],[],[],[],[],[],[],171.613,173.6128,173.6129,175.2305,[],[],[],[],[],[],[],m,175.2305,175.2306,0.055490112,-0.393651937,0,0,0,,0,28,28,18,1,4,RL,disluge,print,disluge_p.png,1.615,,,,,
,,,,32127,001,2025-10-16_16h07.17.515,HW_LDT_1,2024.2.4,MacIntel,60.24096386,,,,,,,,,,,,,,,,,,,,,,175.2311,175.4299,175.43,175.9295,,,,,,,,,,,,,,1.1549,0,,,,,,,,,,,,,,z,,,,,,,,,,,,,,,30,0,175.93,177.0962,m,0,1.1549,,[],[],[],[],[],[],[],177.0963,179.0971,179.0971,179.0973,[],[],[],[],[],[],[],,179.0973,179.0975,0.055490112,-0.393651937,0,0,0,,0,29,29,73,1,4,TL,regilion,print,regilion_p.png,,,,,,
,,,,32127,001,2025-10-16_16h07.17.515,HW_LDT_1,2024.2.4,MacIntel,60.24096386,,,,,,,,,,,,,,,,,,,,,,179.0985,179.297,179.2971,179.7971,,,,,,,,,,,,,,1.1472,1,,,,,,,,,,,,,,z,,,,,,,,,,,,,,,31,0,179.7975,180.9464,z,1,1.1472,,[],[],[],[],[],[],[],180.9465,182.9473,182.9474,182.9475,[],[],[],[],[],[],[],,182.9476,182.9477,0.055490112,-0.393651937,0,0,0,,0,30,30,39,1,4,RL,relone,cursive,relone_c.png,,,,,,
,,,,32127,001,2025-10-16_16h07.17.515,HW_LDT_1,2024.2.4,MacIntel,60.24096386,,,,,,,,,,,,,,,,,,,,,,182.9489,183.147,183.147,183.647,,,,,,,,,,,,,,1.3547,1,,,,,,,,,,,,,,m,,,,,,,,,,,,,,,32,0,183.6475,185.0127,m,1,1.3547,,[],[],[],[],[],[],[],185.0128,187.0127,187.0128,187.013,[],[],[],[],[],[],[],,187.013,187.0131,0.055490112,-0.393651937,0,0,0,,0,31,31,111,1,4,word,INDICATE,print,indicate_p.png,,,,,,
,,,,32127,001,2025-10-16_16h07.17.515,HW_LDT_1,2024.2.4,MacIntel,60.24096386,,,,,,,,,,,,,,,,,,,,,,187.0139,187.2135,187.2135,187.7127,,,,,,,,,,,,,,1.1621,1,,,,,,,,,,,,,,m,,,,,,,,,,,,,,,33,1,187.7131,188.8803,m,1,1.1621,,[],[],[],[],[],[],[],188.8803,190.8803,190.8803,192.113,[],[],[],[],[],[],[],m,192.113,192.113,0.055490112,-0.393651937,0,0,0,,0,32,32,152,1,4,word,SPECIMEN,cursive,specimen_c.png,1.2292,,,,,
,,,,32127,001,2025-10-16_16h07.17.515,HW_LDT_1,2024.2.4,MacIntel,60.24096386,,,,,,,,,,,,,,,,,,,,,,192.1137,192.3133,192.3133,192.8136,,,,,,,,,,,,,,2.8546,1,,,,,,,,,,,,,,z,,,,,,,,,,,,,,,34,1,192.814,195.6801,z,1,2.8546,,[],[],[],[],[],[],[],195.6802,197.6803,197.6804,199.2804,[],[],[],[],[],[],[],m,199.2804,199.2806,0.055490112,-0.393651937,0,0,0,,0,33,33,27,1,4,RL,menowy,print,menowy_p.png,1.592,,,,,
,,,,32127,001,2025-10-16_16h07.17.515,HW_LDT_1,2024.2.4,MacIntel,60.24096386,,,,,,,,,,,,,,,,,,,,,,199.2817,199.4797,199.4797,199.9791,,,,,,,,,,,,,,1.446,1,,,,,,,,,,,,,,z,,,,,,,,,,,,,,,35,0,199.9795,201.4298,z,1,1.446,,[],[],[],[],[],[],[],201.4298,203.4297,203.4298,203.4299,[],[],[],[],[],[],[],,203.4299,203.43,0.055490112,-0.393651937,0,0,0,,0,34,34,29,1,4,RL,motide,print,motide_p.png,,,,,,
,,,,32127,001,2025-10-16_16h07.17.515,HW_LDT_1,2024.2.4,MacIntel,60.24096386,,,,,,,,,,,,,,,,,,,,,,203.431,203.6303,203.6303,204.1292,,,,,,,,,,,,,,1.0268,0,,,,,,,,,,,,,,z,,,,,,,,,,,,,,,36,1,204.1295,205.1635,m,0,1.0268,,[],[],[],[],[],[],[],205.1637,207.1631,207.1631,208.3292,[],[],[],[],[],[],[],m,208.3293,208.3293,0.055490112,-0.393651937,0,0,0,,0,35,35,67,1,4,TL,polupar,print,polupar_p.png,1.1584,,,,,
,,,,32127,001,2025-10-16_16h07.17.515,HW_LDT_1,2024.2.4,MacIntel,60.24096386,,,,,,,,,,,,,,,,,,,,,,208.3301,208.529,208.5291,209.0301,,,,,,,,,,,,,,0.8393,1,,,,,,,,,,,,,,m,,,,,,,,,,,,,,,37,0,209.0305,209.8802,m,1,0.8393,,[],[],[],[],[],[],[],209.8803,211.8802,211.8802,211.8804,[],[],[],[],[],[],[],,211.8805,211.8806,0.055490112,-0.393651937,0,0,0,,0,36,36,127,1,4,word,ORIGINAL,print,original_p.png,,,,,,
,,,,32127,001,2025-10-16_16h07.17.515,HW_LDT_1,2024.2.4,MacIntel,60.24096386,,,,,,,,,,,,,,,,,,,,,,211.8817,212.0789,212.079,212.58,,,,,,,,,,,,,,1.0058,1,,,,,,,,,,,,,,m,,,,,,,,,,,,,,,38,0,212.5803,213.5956,m,1,1.0058,,[],[],[],[],[],[],[],213.5957,215.5958,215.5958,215.5959,[],[],[],[],[],[],[],,215.596,215.5961,0.055490112,-0.393651937,0,0,0,,0,37,37,105,1,4,word,EDITOR,print,editor_p.png,,,,,,
,,,,32127,001,2025-10-16_16h07.17.515,HW_LDT_1,2024.2.4,MacIntel,60.24096386,,,,,,,,,,,,,,,,,,,,,,215.597,215.7962,215.7962,216.2967,,,,,,,,,,,,,,1.3058,0,,,,,,,,,,,,,,m,,,,,,,,,,,,,,,39,0,216.297,217.6133,z,0,1.3058,,[],[],[],[],[],[],[],217.6134,219.6127,219.6127,219.6129,[],[],[],[],[],[],[],,219.613,219.6131,0.055490112,-0.393651937,0,0,0,,0,38,38,113,1,4,word,LITERAL,cursive,literal_c.png,,,,,,
,,,,32127,001,2025-10-16_16h07.17.515,HW_LDT_1,2024.2.4,MacIntel,60.24096386,,,,,,,,,,,,,,,,,,,,,,219.614,219.8132,219.8133,220.3132,,,,,,,,,,,,,,0.84,1,,,,,,,,,,,,,,m,,,,,,,,,,,,,,,40,0,220.3137,221.1633,m,1,0.84,,[],[],[],[],[],[],[],221.1635,223.1634,223.1635,223.1636,[],[],[],[],[],[],[],,223.1636,223.1637,0.058572116,-0.397576836,0,0,0,,0,39,39,121,1,4,word,MISTAKE,print,mistake_p.png,,,,,,
,,,,32127,001,2025-10-16_16h07.17.515,HW_LDT_1,2024.2.4,MacIntel,60.24096386,,,,,,,,,,,,,,,,,,,,,,223.1647,223.3633,223.3633,223.8625,,,,,,,,,,,,,,1.5154,1,,,,,,,,,,,,,,z,,,,,,,,,,,,,,,41,0,223.8629,225.379,z,1,1.5154,,[],[],[],[],[],[],[],225.379,227.3798,227.3799,227.38,[],[],[],[],[],[],[],,227.3802,227.3802,0.058828193,-0.397576836,0,0,0,,0,40,40,8,1,4,RL,casagity,cursive,casagity_c.png,,,,,,
,,,,32127,001,2025-10-16_16h07.17.515,HW_LDT_1,2024.2.4,MacIntel,60.24096386,,,,,,,,,,,,,,,,,,,,,,227.3814,227.5798,227.5798,228.0798,,,,,,,,,,,,,,1.378,0,,,,,,,,,,,,,,m,,,,,,,,,,,,,,,42,0,228.0803,229.4624,z,0,1.378,,[],[],[],[],[],[],[],229.4625,231.4621,231.4621,231.4623,[],[],[],[],[],[],[],,231.4623,231.4623,0.058828193,-0.397576836,0,0,0,,0,41,41,112,1,4,word,LIBERAL,cursive,liberal_c.png,,,,,,
,,,,32127,001,2025-10-16_16h07.17.515,HW_LDT_1,2024.2.4,MacIntel,60.24096386,,,,,,,,,,,,,,,,,,,,,,231.4632,231.6631,231.6632,232.1631,,,,,,,,,,,,,,1.142,0,,,,,,,,,,,,,,z,,,,,,,,,,,,,,,43,1,232.1636,233.3122,m,0,1.142,,[],[],[],[],[],[],[],233.3122,235.313,235.313,236.2798,[],[],[],[],[],[],[],z,236.2798,236.2799,0.058828193,-0.397576836,0,0,0,,0,42,42,55,1,4,TL,corevage,cursive,corevage_c.png,0.9561,,,,,
,,,,32127,001,2025-10-16_16h07.17.515,HW_LDT_1,2024.2.4,MacIntel,60.24096386,,,,,,,,,,,,,,,,,,,,,,236.2809,236.4797,236.4798,236.9796,,,,,,,,,,,,,,0.7955,1,,,,,,,,,,,,,,m,,,,,,,,,,,,,,,44,1,236.9801,237.7786,m,1,0.7955,,[],[],[],[],[],[],[],237.7786,239.7787,239.7787,240.9452,[],[],[],[],[],[],[],m,240.9452,240.9453,0.058828193,-0.397576836,0,0,0,,0,43,43,80,1,4,word,ACADEMY,print,academy_p.png,1.1614,,,,,
,,,,32127,001,2025-10-16_16h07.17.515,HW_LDT_1,2024.2.4,MacIntel,60.24096386,,,,,,,,,,,,,,,,,,,,,,240.946,241.1463,241.1464,241.6464,,,,,,,,,,,,,,1.1213,1,,,,,,,,,,,,,,m,,,,,,,,,,,,,,,45,0,241.647,242.7788,m,1,1.1213,,[],[],[],[],[],[],[],242.7789,244.7794,244.7795,244.7796,[],[],[],[],[],[],[],,244.7796,244.7796,0.058828193,-0.397320828,0,0,0,,0,44,44,98,1,4,word,CRIMINAL,cursive,criminal_c.png,,,,,,
,,,,32127,001,2025-10-16_16h07.17.515,HW_LDT_1,2024.2.4,MacIntel,60.24096386,,,,,,,,,,,,,,,,,,,,,,244.7804,244.9796,244.9796,245.4786,,,,,,,,,,,,,,1.3809,0,,,,,,,,,,,,,,z,,,,,,,,,,,,,,,46,0,245.479,246.8622,m,0,1.3809,,[],[],[],[],[],[],[],246.8623,248.8629,248.8629,248.8631,[],[],[],[],[],[],[],,248.8632,248.8632,0.059353299,-0.396233588,0,0,0,,0,45,45,65,1,4,TL,orepator,print,orepator_p.png,,,,,,
,,,,32127,001,2025-10-16_16h07.17.515,HW_LDT_1,2024.2.4,MacIntel,60.24096386,,,,,,,,,,,,,,,,,,,,,,248.8641,249.0625,249.0625,249.5628,,,,,,,,,,,,,,1.1372,1,,,,,,,,,,,,,,z,,,,,,,,,,,,,,,47,0,249.5633,250.7118,z,1,1.1372,,[],[],[],[],[],[],[],250.7119,252.7127,252.7128,252.7129,[],[],[],[],[],[],[],,252.7129,252.7131,0.059353299,-0.396233588,0,0,0,,0,46,46,0,1,4,RL,abanemy,print,abanemy_p.png,,,,,,
,,,,32127,001,2025-10-16_16h07.17.515,HW_LDT_1,2024.2.4,MacIntel,60.24096386,,,,,,,,,,,,,,,,,,,,,,252.7139,252.9119,252.912,253.4123,,,,,,,,,,,,,,1.6459,1,,,,,,,,,,,,,,z,,,,,,,,,,,,,,,48,0,253.4128,255.0616,z,1,1.6459,,[],[],[],[],[],[],[],255.0616,257.0622,257.0622,257.0624,[],[],[],[],[],[],[],,257.0624,257.0625,0.059353299,-0.39675354,0,0,0,,0,47,47,43,1,4,RL,rovastic,print,rovastic_p.png,,,,,,
,,,,32127,001,2025-10-16_16h07.17.515,HW_LDT_1,2024.2.4,MacIntel,60.24096386,,,,,,,,,,,,,,,,,,,,,,257.0633,257.2627,257.2627,257.7627,,,,,,,,,,,,,,0.6774,1,,,,,,,,,,,,,,z,,,,,,,,,,,,,,,49,1,257.7631,258.4462,z,1,0.6774,,[],[],[],[],[],[],[],258.4463,260.446,260.4461,261.679,[],[],[],[],[],[],[],m,261.6791,261.6791,0.055251058,-0.400004476,0,0,0,,0,48,48,40,1,4,RL,reconal,print,reconal_p.png,1.2297,,,,,
,,,,32127,001,2025-10-16_16h07.17.515,HW_LDT_1,2024.2.4,MacIntel,60.24096386,,,,,,,,,,,,,,,,,,,,,,261.6798,261.8785,261.8786,262.3793,,,,,,,,,,,,,,1.7728,0,,,,,,,,,,,,,,z,,,,,,,,,,,,,,,50,0,262.3796,264.1626,m,0,1.7728,,[],[],[],[],[],[],[],264.1627,266.1623,266.1623,266.1625,[],[],[],[],[],[],[],,266.1625,266.1626,0.056033664,-0.4005405,0,0,0,,0,49,49,68,1,4,TL,prosopal,print,prosopal_p.png,,,,,,
,,,,32127,001,2025-10-16_16h07.17.515,HW_LDT_1,2024.2.4,MacIntel,60.24096386,,,,,,,,,,,,,,,,,,,,,,266.1637,266.3617,266.3617,266.8621,,,,,,,,,,,,,,1.0547,0,,,,,,,,,,,,,,m,,,,,,,,,,,,,,,51,1,266.8625,267.9291,z,0,1.0547,,[],[],[],[],[],[],[],267.9292,269.9292,269.9292,271.0461,[],[],[],[],[],[],[],m,271.0461,271.0462,0.056033664,-0.4005405,0,0,0,,0,50,50,129,1,4,word,PARENT,cursive,parent_c.png,1.1051,,,,,
,,,,32127,001,2025-10-16_16h07.17.515,HW_LDT_1,2024.2.4,MacIntel,60.24096386,,,,,,,,,,,,,,,,,,,,,,271.0472,271.2453,271.2453,271.746,,,,,,,,,,,,,,1.1038,1,,,,,,,,,,,,,,m,,,,,,,,,,,,,,,52,0,271.7466,272.8623,m,1,1.1038,,[],[],[],[],[],[],[],272.8625,274.8616,274.8616,274.8618,[],[],[],[],[],[],[],,274.8618,274.8619,0.058419325,-0.399881456,0,0,0,,0,51,51,140,1,4,word,RELATIVE,print,relative_p.png,,,,,,
,,,,32127,001,2025-10-16_16h07.17.515,HW_LDT_1,2024.2.4,MacIntel,60.24096386,,,,,,,,,,,,,,,,,,,,,,274.8628,275.0627,275.0628,275.5624,,,,,,,,,,,,,,0.7446,1,,,,,,,,,,,,,,m,,,,,,,,,,,,,,,53,0,275.5628,276.3125,m,1,0.7446,,[],[],[],[],[],[],[],276.3125,278.3124,278.3124,278.3125,[],[],[],[],[],[],[],,278.3125,278.3126,0.058101739,-0.398661296,0,0,0,,0,52,52,93,1,4,word,CEREMONY,print,ceremony_p.png,,,,,,
,,,,32127,001,2025-10-16_16h07.17.515,HW_LDT_1,2024.2.4,MacIntel,60.24096386,,,,,,,,,,,,,,,,,,,,,,278.3133,278.5118,278.5118,279.0126,,,,,,,,,,,,,,0.9113,1,,,,,,,,,,,,,,z,,,,,,,,,,,,,,,54,0,279.0133,279.9285,z,1,0.9113,,[],[],[],[],[],[],[],279.9285,281.9291,281.9291,281.9292,[],[],[],[],[],[],[],,281.9293,281.9293,0.058101739,-0.398661296,0,0,0,,0,53,53,12,1,4,RL,conbicer,cursive,conbicer_c.png,,,,,,
,,,,32127,001,2025-10-16_16h07.17.515,HW_LDT_1,2024.2.4,MacIntel,60.24096386,,,,,,,,,,,,,,,,,,,,,,281.9302,282.1292,282.1293,282.6291,,,,,,,,,,,,,,0.9153,1,,,,,,,,,,,,,,m,,,,,,,,,,,,,,,55,0,282.6295,283.5452,m,1,0.9153,,[],[],[],[],[],[],[],283.5452,285.5457,285.5457,285.5459,[],[],[],[],[],[],[],,285.5459,285.5459,0.058101739,-0.398149143,0,0,0,,0,54,54,154,1,4,word,STORAGE,print,storage_p.png,,,,,,
,,,,32127,001,2025-10-16_16h07.17.515,HW_LDT_1,2024.2.4,MacIntel,60.24096386,,,,,,,,,,,,,,,,,,,,,,285.547,285.7452,285.7452,286.2456,,,,,,,,,,,,,,0.5786,1,,,,,,,,,,,,,,m,,,,,,,,,,,,,,,56,0,286.246,286.828,m,1,0.5786,,[],[],[],[],[],[],[],286.828,288.8279,288.828,288.8282,[],[],[],[],[],[],[],,288.8282,288.8282,0.058101739,-0.397893338,0,0,0,,0,55,55,125,1,4,word,OPERATOR,print,operator_p.png,,,,,,
,,,,32127,001,2025-10-16_16h07.17.515,HW_LDT_1,2024.2.4,MacIntel,60.24096386,,,,,,,,,,,,,,,,,,,,,,288.8291,289.0282,289.0283,289.5289,,,,,,,,,,,,,,0.6698,1,,,,,,,,,,,,,,m,,,,,,,,,,,,,,,57,0,289.5293,290.2125,m,1,0.6698,,[],[],[],[],[],[],[],290.2125,292.2118,292.2118,292.2119,[],[],[],[],[],[],[],,292.212,292.2121,0.056606581,-0.3952162,0,0,0,,0,56,56,103,1,4,word,DISPUTE,print,dispute_p.png,,,,,,
,,,,32127,001,2025-10-16_16h07.17.515,HW_LDT_1,2024.2.4,MacIntel,60.24096386,,,,,,,,,,,,,,,,,,,,,,292.2129,292.4122,292.4122,292.9114,,,,,,,,,,,,,,1.8562,0,,,,,,,,,,,,,,m,,,,,,,,,,,,,,,58,0,292.9119,294.7779,z,0,1.8562,,[],[],[],[],[],[],[],294.778,296.7788,296.7788,296.779,[],[],[],[],[],[],[],,296.779,296.7791,0.056606581,-0.3952162,0,0,0,,0,57,57,97,1,4,word,COVERAGE,cursive,coverage_c.png,,,,,,
,,,,32127,001,2025-10-16_16h07.17.515,HW_LDT_1,2024.2.4,MacIntel,60.24096386,,,,,,,,,,,,,,,,,,,,,,296.78,296.979,296.979,297.4785,,,,,,,,,,,,,,0.9776,1,,,,,,,,,,,,,,m,,,,,,,,,,,,,,,59,0,297.479,298.4623,m,1,0.9776,,[],[],[],[],[],[],[],298.4624,300.4622,300.4622,300.4623,[],[],[],[],[],[],[],,300.4623,300.4624,0.056606581,-0.3952162,0,0,0,,0,58,58,120,1,4,word,MILITARY,print,military_p.png,,,,,,
,,,,32127,001,2025-10-16_16h07.17.515,HW_LDT_1,2024.2.4,MacIntel,60.24096386,,,,,,,,,,,,,,,,,,,,,,300.4633,300.6621,300.6621,301.1622,,,,,,,,,,,,,,0.8865,0,,,,,,,,,,,,,,m,,,,,,,,,,,,,,,60,0,301.1628,302.062,z,0,0.8865,,[],[],[],[],[],[],[],302.0621,304.0621,304.0621,304.0623,[],[],[],[],[],[],[],,304.0623,304.0623,0.056862657,-0.3952162,0,0,0,,0,59,59,108,1,4,word,FORTUNE,cursive,fortune_c.png,,,,,,
,,,,32127,001,2025-10-16_16h07.17.515,HW_LDT_1,2024.2.4,MacIntel,60.24096386,,,,,,,,,,,,,,,,,,,,,,304.0635,304.2612,304.2613,304.7621,,,,,,,,,,,,,,0.8468,1,,,,,,,,,,,,,,m,,,,,,,,,,,,,,,61,1,304.7624,305.6111,m,1,0.8468,,[],[],[],[],[],[],[],305.6111,307.6121,307.6121,308.6282,[],[],[],[],[],[],[],m,308.6282,308.6282,0.056303982,-0.39413052,0,0,0,,0,60,60,115,1,4,word,LOGICAL,print,logical_p.png,1.0146,,,,,
,,,,32127,001,2025-10-16_16h07.17.515,HW_LDT_1,2024.2.4,MacIntel,60.24096386,,,,,,,,,,,,,,,,,,,,,,308.6289,308.8286,308.8286,309.3285,,,,,,,,,,,,,,1.562,1,,,,,,,,,,,,,,z,,,,,,,,,,,,,,,62,0,309.3289,310.8952,z,1,1.562,,[],[],[],[],[],[],[],310.8953,312.8946,312.8947,312.8947,[],[],[],[],[],[],[],,312.8948,312.895,0.056303982,-0.39413052,0,0,0,,0,61,61,50,1,4,RL,vecelan,cursive,vecelan_c.png,,,,,,
,,,,32127,001,2025-10-16_16h07.17.515,HW_LDT_1,2024.2.4,MacIntel,60.24096386,,,,,,,,,,,,,,,,,,,,,,312.8962,313.0951,313.0951,313.5955,,,,,,,,,,,,,,0.812,0,,,,,,,,,,,,,,z,,,,,,,,,,,,,,,63,0,313.596,314.4117,m,0,0.812,,[],[],[],[],[],[],[],314.4117,316.4117,316.4118,316.412,[],[],[],[],[],[],[],,316.412,316.412,0.056037462,-0.393315904,0,0,0,,0,62,62,72,1,4,TL,relugar,cursive,relugar_c.png,,,,,,
,,,,32127,001,2025-10-16_16h07.17.515,HW_LDT_1,2024.2.4,MacIntel,60.24096386,,,,,,,,,,,,,,,,,,,,,,316.413,316.6113,316.6113,317.1118,,,,,,,,,,,,,,0.8636,1,,,,,,,,,,,,,,z,,,,,,,,,,,,,,,64,0,317.1123,317.9775,z,1,0.8636,,[],[],[],[],[],[],[],317.9776,319.9783,319.9783,319.9785,[],[],[],[],[],[],[],,319.9785,319.9786,0.056037462,-0.393835856,0,0,0,,0,63,63,42,1,4,RL,revune,print,revune_p.png,,,,,,
,,,,32127,001,2025-10-16_16h07.17.515,HW_LDT_1,2024.2.4,MacIntel,60.24096386,,,,,,,,,,,,,,,,,,,,,,319.9798,320.1787,320.1787,320.6781,,,,,,,,,,,,,,1.2901,0,,,,,,,,,,,,,,m,,,,,,,,,,,,,,,65,0,320.6785,321.9785,z,0,1.2901,,[],[],[],[],[],[],[],321.9785,323.9784,323.9784,323.9786,[],[],[],[],[],[],[],,323.9786,323.9787,0.04844991,-0.394686686,0,0,0,,0,64,64,87,1,4,word,CAFETERIA,cursive,cafeteria_c.png,,,,,,
,,,,32127,001,2025-10-16_16h07.17.515,HW_LDT_1,2024.2.4,MacIntel,60.24096386,,,,,,,,,,,,,,,,,,,,,,323.9797,324.1784,324.1785,324.6783,,,,,,,,,,,,,,2.0792,1,,,,,,,,,,,,,,m,,,,,,,,,,,,,,,66,0,324.6787,326.761,m,1,2.0792,,[],[],[],[],[],[],[],326.7611,328.7617,328.7617,328.7618,[],[],[],[],[],[],[],,328.7618,328.7618,0.04844991,-0.394686686,0,0,0,,0,65,65,142,1,4,word,REMOTE,cursive,remote_c.png,,,,,,
,,,,32127,001,2025-10-16_16h07.17.515,HW_LDT_1,2024.2.4,MacIntel,60.24096386,,,,,,,,,,,,,,,,,,,,,,328.7626,328.9616,328.9616,329.461,,,,,,,,,,,,,,1.7437,1,,,,,,,,,,,,,,m,,,,,,,,,,,,,,,67,0,329.4617,331.2114,m,1,1.7437,,[],[],[],[],[],[],[],331.2114,333.2117,333.2117,333.2118,[],[],[],[],[],[],[],,333.2118,333.212,0.040335151,-0.389093221,0,0,0,,0,66,66,156,1,4,word,TRIBUTE,print,tribute_p.png,,,,,,
,,,,32127,001,2025-10-16_16h07.17.515,HW_LDT_1,2024.2.4,MacIntel,60.24096386,,,,,,,,,,,,,,,,,,,,,,333.2129,333.4118,333.4119,333.9116,,,,,,,,,,,,,,0.9383,1,,,,,,,,,,,,,,m,,,,,,,,,,,,,,,68,0,333.9121,334.8617,m,1,0.9383,,[],[],[],[],[],[],[],334.8618,336.8617,336.8617,336.8618,[],[],[],[],[],[],[],,336.8618,336.862,0.040335151,-0.389093221,0,0,0,,0,67,67,110,1,4,word,HERITAGE,print,heritage_p.png,,,,,,
,,,,32127,001,2025-10-16_16h07.17.515,HW_LDT_1,2024.2.4,MacIntel,60.24096386,,,,,,,,,,,,,,,,,,,,,,336.8628,337.0617,337.0618,337.5616,,,,,,,,,,,,,,1.2262,0,,,,,,,,,,,,,,z,,,,,,,,,,,,,,,69,0,337.562,338.7945,m,0,1.2262,,[],[],[],[],[],[],[],338.7945,340.7949,340.7949,340.7951,[],[],[],[],[],[],[],,340.7951,340.7951,0.040335151,-0.389093221,0,0,0,,0,68,68,66,1,4,TL,opmital,print,opmital_p.png,,,,,,
,,,,32127,001,2025-10-16_16h07.17.515,HW_LDT_1,2024.2.4,MacIntel,60.24096386,,,,,,,,,,,,,,,,,,,,,,340.7962,340.9951,340.9951,341.494,,,,,,,,,,,,,,2.5555,0,,,,,,,,,,,,,,m,,,,,,,,,,,,,,,70,0,341.4943,344.0613,z,0,2.5555,,[],[],[],[],[],[],[],344.0614,346.0611,346.0611,346.0613,[],[],[],[],[],[],[],,346.0614,346.0615,0.040335151,-0.389093221,0,0,0,,0,69,69,128,1,4,word,PACIFIC,cursive,pacific_c.png,,,,,,
,,,,32127,001,2025-10-16_16h07.17.515,HW_LDT_1,2024.2.4,MacIntel,60.24096386,,,,,,,,,,,,,,,,,,,,,,346.0626,346.2611,346.2611,346.7614,,,,,,,,,,,,,,5.7097,0,,,,,,,,,,,,,,m,,,,,,,,,,,,,,,71,0,346.7618,352.4779,z,0,5.7097,,[],[],[],[],[],[],[],352.478,354.4772,354.4772,354.4774,[],[],[],[],[],[],[],,354.4774,354.4776,0.040335151,-0.389093221,0,0,0,,0,70,70,102,1,4,word,DENSITY,cursive,density_c.png,,,,,,
,,,,32127,001,2025-10-16_16h07.17.515,HW_LDT_1,2024.2.4,MacIntel,60.24096386,,,,,,,,,,,,,,,,,,,,,,354.4786,354.678,354.678,355.1781,,,,,,,,,,,,,,31.0794,1,,,,,,,,,,,,,,m,,,,,,,,,,,,,,,72,0,355.1785,386.2602,m,1,31.0794,,[],[],[],[],[],[],[],386.2602,388.2476,388.2476,388.2477,[],[],[],[],[],[],[],,388.2478,388.248,0.040335151,-0.389093221,0,0,0,,0,71,71,135,1,4,word,QUALITY,print,quality_p.png,,,,,,
,,,,32127,001,2025-10-16_16h07.17.515,HW_LDT_1,2024.2.4,MacIntel,60.24096386,,,,,,,,,,,,,,,,,,,,,,388.249,388.4436,388.4437,388.9442,,,,,,,,,,,,,,2.3623,0,,,,,,,,,,,,,,m,,,,,,,,,,,,,,,73,0,388.9447,391.3099,z,0,2.3623,,[],[],[],[],[],[],[],391.3099,393.3108,393.3108,393.311,[],[],[],[],[],[],[],,393.311,393.3111,0.040335151,-0.389093221,0,0,0,,0,72,72,106,1,4,word,ELABORATE,cursive,elaborate_c.png,,,,,,
,,,,32127,001,2025-10-16_16h07.17.515,HW_LDT_1,2024.2.4,MacIntel,60.24096386,,,,,,,,,,,,,,,,,,,,,,393.3119,393.5108,393.5108,394.01,,,,,,,,,,,,,,1.5061,1,,,,,,,,,,,,,,m,,,,,,,,,,,,,,,74,1,394.0105,395.5266,m,1,1.5061,,[],[],[],[],[],[],[],395.5267,397.5274,397.5275,398.8608,[],[],[],[],[],[],[],m,398.8609,398.861,0.040335151,-0.389093221,0,0,0,,0,73,73,132,1,4,word,PROPOSAL,print,proposal_p.png,1.33,,,,,
,,,,32127,001,2025-10-16_16h07.17.515,HW_LDT_1,2024.2.4,MacIntel,60.24096386,,,,,,,,,,,,,,,,,,,,,,398.8618,399.0605,399.0606,399.5607,,,,,,,,,,,,,,1.3087,1,,,,,,,,,,,,,,m,,,,,,,,,,,,,,,75,0,399.5612,400.8772,m,1,1.3087,,[],[],[],[],[],[],[],400.8772,402.8773,402.8774,402.8775,[],[],[],[],[],[],[],,402.8775,402.8776,0.040335151,-0.389093221,0,0,0,,0,74,74,157,1,4,word,VALIDITY,print,validity_p.png,,,,,,
,,,,32127,001,2025-10-16_16h07.17.515,HW_LDT_1,2024.2.4,MacIntel,60.24096386,,,,,,,,,,,,,,,,,,,,,,402.8787,403.0774,403.0774,403.5765,,,,,,,,,,,,,,1.7762,1,,,,,,,,,,,,,,m,,,,,,,,,,,,,,,76,0,403.5769,405.3607,m,1,1.7762,,[],[],[],[],[],[],[],405.3607,407.3605,407.3605,407.3607,[],[],[],[],[],[],[],,407.3608,407.3608,0.040335151,-0.389093221,0,0,0,,0,75,75,137,1,4,word,RAPIDLY,cursive,rapidly_c.png,,,,,,
,,,,32127,001,2025-10-16_16h07.17.515,HW_LDT_1,2024.2.4,MacIntel,60.24096386,,,,,,,,,,,,,,,,,,,,,,407.3617,407.5606,407.5607,408.0597,,,,,,,,,,,,,,5.6613,1,,,,,,,,,,,,,,z,,,,,,,,,,,,,,,77,0,408.06,413.7261,z,1,5.6613,,[],[],[],[],[],[],[],413.7261,415.7272,415.7272,415.7274,[],[],[],[],[],[],[],,415.7274,415.7275,0.040335151,-0.389093221,0,0,0,,0,76,76,28,1,4,RL,mifikary,print,mifikary_p.png,,,,,,
,,,,32127,001,2025-10-16_16h07.17.515,HW_LDT_1,2024.2.4,MacIntel,60.24096386,,,,,,,,,,,,,,,,,,,,,,415.7283,415.9264,415.9264,416.4271,,,,,,,,,,,,,,1.9703,1,,,,,,,,,,,,,,m,,,,,,,,,,,,,,,78,1,416.4275,418.4093,m,1,1.9703,,[],[],[],[],[],[],[],418.4094,420.4104,420.4104,421.8771,[],[],[],[],[],[],[],z,421.8771,421.8771,0.040335151,-0.389093221,0,0,0,,0,77,77,100,1,4,word,DECADE,cursive,decade_c.png,1.4641,,,,,
,,,,32127,001,2025-10-16_16h07.17.515,HW_LDT_1,2024.2.4,MacIntel,60.24096386,,,,,,,,,,,,,,,,,,,,,,421.8778,422.0771,422.0771,422.577,,,,,,,,,,,,,,1.7882,1,,,,,,,,,,,,,,m,,,,,,,,,,,,,,,79,0,422.5775,424.3772,m,1,1.7882,,[],[],[],[],[],[],[],424.3772,426.3771,426.3771,426.3772,[],[],[],[],[],[],[],,426.3772,426.3773,0.040335151,-0.389093221,0,0,0,,0,78,78,116,1,4,word,MARGINAL,cursive,marginal_c.png,,,,,,
,,,,32127,001,2025-10-16_16h07.17.515,HW_LDT_1,2024.2.4,MacIntel,60.24096386,,,,,,,,,,,,,,,,,,,,,,426.3782,426.5771,426.5772,427.077,,,,,,,,,,,,,,4.2567,1,,,,,,,,,,,,,,m,,,,,,,,,,,,,,,80,1,427.0774,431.3426,m,1,4.2567,,[],[],[],[],[],[],[],431.3427,433.3437,433.3437,435.8102,[],[],[],[],[],[],[],z,435.8102,437.8765,0.038031006,-0.389960531,0,0,0,space,0,79,79,151,1,4,word,SPECIFIC,cursive,specific_c.png,2.4607,,2.0429,,,
,,,,32127,001,2025-10-16_16h07.17.515,HW_LDT_1,2024.2.4,MacIntel,60.24096386,,,,,,,,,,,,,,,,,,,,,,437.8772,438.0761,438.0761,438.5763,,,,,,,,,,,,,,1.355,0,,,,,,,,,,,,,,m,,,,,,,,,,,,,,,81,0,438.5767,439.9436,z,0,1.355,,[],[],[],[],[],[],[],439.9438,441.9425,441.9425,441.9427,[],[],[],[],[],[],[],,441.9428,441.9429,0.038031006,-0.389960531,0,0,0,,0,80,80,92,1,4,word,CATEGORY,cursive,category_c.png,,,,,,
,,,,32127,001,2025-10-16_16h07.17.515,HW_LDT_1,2024.2.4,MacIntel,60.24096386,,,,,,,,,,,,,,,,,,,,,,441.9438,442.1429,442.1431,442.6436,,,,,,,,,,,,,,1.6462,0,,,,,,,,,,,,,,z,,,,,,,,,,,,,,,82,0,442.6441,444.2924,m,0,1.6462,,[],[],[],[],[],[],[],444.2926,446.2936,446.2937,446.2938,[],[],[],[],[],[],[],,446.2939,446.294,0.038031006,-0.389960531,0,0,0,,0,81,81,77,1,4,TL,spemicen,cursive,spemicen_c.png,,,,,,
,,,,32127,001,2025-10-16_16h07.17.515,HW_LDT_1,2024.2.4,MacIntel,60.24096386,,,,,,,,,,,,,,,,,,,,,,446.295,446.4934,446.4934,446.9932,,,,,,,,,,,,,,1.3208,1,,,,,,,,,,,,,,z,,,,,,,,,,,,,,,83,0,446.9936,448.3258,z,1,1.3208,,[],[],[],[],[],[],[],448.3258,450.3265,450.3265,450.3267,[],[],[],[],[],[],[],,450.3267,450.3268,0.038031006,-0.389960531,0,0,0,,0,82,82,52,1,4,TL,cagetory,cursive,cagetory_c.png,,,,,,
,,,,32127,001,2025-10-16_16h07.17.515,HW_LDT_1,2024.2.4,MacIntel,60.24096386,,,,,,,,,,,,,,,,,,,,,,450.3278,450.5267,450.5267,451.0267,,,,,,,,,,,,,,1.6233,0,,,,,,,,,,,,,,z,,,,,,,,,,,,,,,84,0,451.027,452.6596,m,0,1.6233,,[],[],[],[],[],[],[],452.6596,454.66,454.6601,454.6602,[],[],[],[],[],[],[],,454.6602,454.6603,0.038031006,-0.389960531,0,0,0,,0,83,83,63,1,4,TL,miskate,print,miskate_p.png,,,,,,
,,,,32127,001,2025-10-16_16h07.17.515,HW_LDT_1,2024.2.4,MacIntel,60.24096386,,,,,,,,,,,,,,,,,,,,,,454.6612,454.86,454.8601,455.36,,,,,,,,,,,,,,1.1723,1,,,,,,,,,,,,,,z,,,,,,,,,,,,,,,85,0,455.3604,456.5431,z,1,1.1723,,[],[],[],[],[],[],[],456.5431,458.5434,458.5435,458.5436,[],[],[],[],[],[],[],,458.5436,458.5438,0.038031006,-0.389960531,0,0,0,,0,84,84,1,1,4,RL,afaneur,cursive,afaneur_c.png,,,,,,
,,,,32127,001,2025-10-16_16h07.17.515,HW_LDT_1,2024.2.4,MacIntel,60.24096386,,,,,,,,,,,,,,,,,,,,,,458.5449,458.7423,458.7423,459.2425,,,,,,,,,,,,,,1.9138,1,,,,,,,,,,,,,,z,,,,,,,,,,,,,,,86,0,459.2429,461.1599,z,1,1.9138,,[],[],[],[],[],[],[],461.1599,463.1598,463.1599,463.16,[],[],[],[],[],[],[],,463.16,463.1601,0.038031006,-0.389960531,0,0,0,,0,85,85,33,1,4,RL,pamest,cursive,pamest_c.png,,,,,,
,,,,32127,001,2025-10-16_16h07.17.515,HW_LDT_1,2024.2.4,MacIntel,60.24096386,,,,,,,,,,,,,,,,,,,,,,463.161,463.3594,463.3594,463.8598,,,,,,,,,,,,,,0.8407,0,,,,,,,,,,,,,,z,,,,,,,,,,,,,,,87,0,463.8603,464.7093,m,0,0.8407,,[],[],[],[],[],[],[],464.7094,466.7099,466.7099,466.7101,[],[],[],[],[],[],[],,466.7101,466.7103,0.038031006,-0.389960531,0,0,0,,0,86,86,31,1,4,RL,orimipal,print,orimipal_p.png,,,,,,
,,,,32127,001,2025-10-16_16h07.17.515,HW_LDT_1,2024.2.4,MacIntel,60.24096386,,,,,,,,,,,,,,,,,,,,,,466.7114,466.91,466.91,467.4091,,,,,,,,,,,,,,1.1873,1,,,,,,,,,,,,,,z,,,,,,,,,,,,,,,88,0,467.4096,468.6095,z,1,1.1873,,[],[],[],[],[],[],[],468.6096,470.6089,470.6089,470.6091,[],[],[],[],[],[],[],,470.6091,470.6092,0.038031006,-0.389960531,0,0,0,,0,87,87,41,1,4,RL,rebicent,cursive,rebicent_c.png,,,,,,
,,,,32127,001,2025-10-16_16h07.17.515,HW_LDT_1,2024.2.4,MacIntel,60.24096386,,,,,,,,,,,,,,,,,,,,,,470.6103,470.8096,470.8096,471.3097,,,,,,,,,,,,,,0.8931,1,,,,,,,,,,,,,,m,,,,,,,,,,,,,,,89,0,471.3102,472.2092,m,1,0.8931,,[],[],[],[],[],[],[],472.2093,474.2091,474.2091,474.2093,[],[],[],[],[],[],[],,474.2093,474.2093,0.038031006,-0.389960531,0,0,0,,0,88,88,147,1,4,word,ROMANTIC,print,romantic_p.png,,,,,,
,,,,32127,001,2025-10-16_16h07.17.515,HW_LDT_1,2024.2.4,MacIntel,60.24096386,,,,,,,,,,,,,,,,,,,,,,474.2102,474.4095,474.4095,474.9097,,,,,,,,,,,,,,1.1784,1,,,,,,,,,,,,,,z,,,,,,,,,,,,,,,90,0,474.9101,476.0919,z,1,1.1784,,[],[],[],[],[],[],[],476.092,478.0921,478.0922,478.0924,[],[],[],[],[],[],[],,478.0924,478.0925,0.038031006,-0.389960531,0,0,0,,0,89,89,21,1,4,RL,insibate,print,insibate_p.png,,,,,,
,,,,32127,001,2025-10-16_16h07.17.515,HW_LDT_1,2024.2.4,MacIntel,60.24096386,,,,,,,,,,,,,,,,,,,,,,478.0935,478.2928,478.2929,478.793,,,,,,,,,,,,,,1.5218,1,,,,,,,,,,,,,,m,,,,,,,,,,,,,,,91,0,478.7934,480.3265,m,1,1.5218,,[],[],[],[],[],[],[],480.3265,482.326,482.3261,482.3261,[],[],[],[],[],[],[],,482.3262,482.3263,0.038031006,-0.389960531,0,0,0,,0,90,90,141,1,4,word,RELIGION,print,religion_p.png,,,,,,
,,,,32127,001,2025-10-16_16h07.17.515,HW_LDT_1,2024.2.4,MacIntel,60.24096386,,,,,,,,,,,,,,,,,,,,,,482.3274,482.5265,482.5265,483.0262,,,,,,,,,,,,,,1.1872,1,,,,,,,,,,,,,,z,,,,,,,,,,,,,,,92,0,483.0267,484.2264,z,1,1.1872,,[],[],[],[],[],[],[],484.2265,486.2262,486.2262,486.2264,[],[],[],[],[],[],[],,486.2264,486.2264,0.038031006,-0.389960531,0,0,0,,0,91,91,61,1,4,TL,lotace,cursive,lotace_c.png,,,,,,
,,,,32127,001,2025-10-16_16h07.17.515,HW_LDT_1,2024.2.4,MacIntel,60.24096386,,,,,,,,,,,,,,,,,,,,,,486.2275,486.4262,486.4263,486.9259,,,,,,,,,,,,,,1.1913,1,,,,,,,,,,,,,,m,,,,,,,,,,,,,,,93,0,486.9263,488.1251,m,1,1.1913,,[],[],[],[],[],[],[],488.1252,490.1252,490.1252,490.1253,[],[],[],[],[],[],[],,490.1253,490.1253,0.038031006,-0.389960531,0,0,0,,0,92,92,84,1,4,word,BELOVED,print,beloved_p.png,,,,,,
,,,,32127,001,2025-10-16_16h07.17.515,HW_LDT_1,2024.2.4,MacIntel,60.24096386,,,,,,,,,,,,,,,,,,,,,,490.1261,490.3261,490.3261,490.8252,,,,,,,,,,,,,,1.6928,1,,,,,,,,,,,,,,m,,,,,,,,,,,,,,,94,0,490.8256,492.5263,m,1,1.6928,,[],[],[],[],[],[],[],492.5264,494.5263,494.5264,494.5265,[],[],[],[],[],[],[],,494.5266,494.5267,0.038031006,-0.389960531,0,0,0,,0,93,93,134,1,4,word,QUALIFY,print,qualify_p.png,,,,,,
,,,,32127,001,2025-10-16_16h07.17.515,HW_LDT_1,2024.2.4,MacIntel,60.24096386,,,,,,,,,,,,,,,,,,,,,,494.5277,494.7256,494.7256,495.2259,,,,,,,,,,,,,,1.1381,1,,,,,,,,,,,,,,z,,,,,,,,,,,,,,,95,1,495.2263,496.3762,z,1,1.1381,,[],[],[],[],[],[],[],496.3762,498.3758,498.3758,500.1262,[],[],[],[],[],[],[],m,500.1263,500.1264,0.038031006,-0.389960531,0,0,0,,0,94,94,11,1,4,RL,clisimal,print,clisimal_p.png,1.7393,,,,,
,,,,32127,001,2025-10-16_16h07.17.515,HW_LDT_1,2024.2.4,MacIntel,60.24096386,,,,,,,,,,,,,,,,,,,,,,500.1275,500.3259,500.326,500.8259,,,,,,,,,,,,,,2.0956,0,,,,,,,,,,,,,,z,,,,,,,,,,,,,,,96,0,500.8262,502.9255,m,0,2.0956,,[],[],[],[],[],[],[],502.9256,504.9256,504.9256,504.9257,[],[],[],[],[],[],[],,504.9257,504.9257,-0.045798272,-0.499982639,0,0,0,,0,95,95,58,1,4,TL,edivent,print,edivent_p.png,,,,,,
,,,,32127,001,2025-10-16_16h07.17.515,HW_LDT_1,2024.2.4,MacIntel,60.24096386,,,,,,,,,,,,,,,,,,,,,,504.9265,505.1259,505.1259,505.6258,,,,,,,,,,,,,,1.015,1,,,,,,,,,,,,,,m,,,,,,,,,,,,,,,97,0,505.6262,506.6425,m,1,1.015,,[],[],[],[],[],[],[],506.6425,508.6427,508.6428,508.6429,[],[],[],[],[],[],[],,508.6429,508.6431,-0.045798272,-0.499982639,0,0,0,,0,96,96,136,1,4,word,RADICAL,print,radical_p.png,,,,,,
,,,,32127,001,2025-10-16_16h07.17.515,HW_LDT_1,2024.2.4,MacIntel,60.24096386,,,,,,,,,,,,,,,,,,,,,,508.6442,508.8426,508.8427,509.3425,,,,,,,,,,,,,,1.0599,1,,,,,,,,,,,,,,m,,,,,,,,,,,,,,,98,0,509.3431,510.4082,m,1,1.0599,,[],[],[],[],[],[],[],510.4082,512.4087,512.4088,512.4088,[],[],[],[],[],[],[],,512.4089,512.409,-0.045798272,-0.499982639,0,0,0,,0,97,97,83,1,4,word,ANIMAL,cursive,animal_c.png,,,,,,
,,,,32127,001,2025-10-16_16h07.17.515,HW_LDT_1,2024.2.4,MacIntel,60.24096386,,,,,,,,,,,,,,,,,,,,,,512.41,512.6093,512.6093,513.112,,,,,,,,,,,,,,1.2019,0,,,,,,,,,,,,,,z,,,,,,,,,,,,,,,99,0,513.1124,514.3258,m,0,1.2019,,[],[],[],[],[],[],[],514.3259,516.3254,516.3255,516.3256,[],[],[],[],[],[],[],,516.3256,516.3257,-0.045798272,-0.499982639,0,0,0,,0,98,98,74,1,4,TL,rerite,print,rerite_p.png,,,,,,
,,,,32127,001,2025-10-16_16h07.17.515,HW_LDT_1,2024.2.4,MacIntel,60.24096386,,,,,,,,,,,,,,,,,,,,,,516.3269,516.5249,516.5249,517.0258,,,,,,,,,,,,,,1.7936,0,,,,,,,,,,,,,,z,,,,,,,,,,,,,,,100,1,517.026,518.8253,m,0,1.7936,,[],[],[],[],[],[],[],518.8254,520.8258,520.8258,521.9079,[],[],[],[],[],[],[],z,521.908,521.9081,-0.078482123,-0.463407864,0,0,0,,0,99,99,69,1,4,TL,quafily,print,quafily_p.png,1.0765,,,,,
,,,,32127,001,2025-10-16_16h07.17.515,HW_LDT_1,2024.2.4,MacIntel,60.24096386,,,,,,,,,,,,,,,,,,,,,,521.9089,522.1089,522.1089,522.6091,,,,,,,,,,,,,,1.726,1,,,,,,,,,,,,,,z,,,,,,,,,,,,,,,101,0,522.6095,524.3423,z,1,1.726,,[],[],[],[],[],[],[],524.3424,526.3418,526.3419,526.3421,[],[],[],[],[],[],[],,526.3421,526.3422,-0.056018066,-0.469524129,0,0,0,,0,100,100,9,1,4,RL,cafigal,print,cafigal_p.png,,,,,,
,,,,32127,001,2025-10-16_16h07.17.515,HW_LDT_1,2024.2.4,MacIntel,60.24096386,,,,,,,,,,,,,,,,,,,,,,526.3431,526.5424,526.5424,527.0425,,,,,,,,,,,,,,1.396,1,,,,,,,,,,,,,,z,,,,,,,,,,,,,,,102,0,527.043,528.4413,z,1,1.396,,[],[],[],[],[],[],[],528.4413,530.4416,530.4417,530.4418,[],[],[],[],[],[],[],,530.4418,530.4419,-0.056018066,-0.469524129,0,0,0,,0,101,101,36,1,4,RL,rabigly,cursive,rabigly_c.png,,,,,,
,,,,32127,001,2025-10-16_16h07.17.515,HW_LDT_1,2024.2.4,MacIntel,60.24096386,,,,,,,,,,,,,,,,,,,,,,530.4429,530.6417,530.6417,531.133,,,,,,,,,,,,,,1.6127,1,,,,,,,,,,,,,,z,,,,,,,,,,,,,,,103,0,531.1333,532.7465,z,1,1.6127,,[],[],[],[],[],[],[],532.7465,534.7414,534.7414,534.7415,[],[],[],[],[],[],[],,534.7415,534.7416,-0.056018066,-0.469524129,0,0,0,,0,102,102,26,1,4,RL,mesibine,cursive,mesibine_c.png,,,,,,
,,,,32127,001,2025-10-16_16h07.17.515,HW_LDT_1,2024.2.4,MacIntel,60.24096386,,,,,,,,,,,,,,,,,,,,,,534.7421,534.9412,534.9412,535.4422,,,,,,,,,,,,,,2.6545,1,,,,,,,,,,,,,,z,,,,,,,,,,,,,,,104,0,535.4428,538.1087,z,1,2.6545,,[],[],[],[],[],[],[],538.1087,540.1087,540.1088,540.1088,[],[],[],[],[],[],[],,540.1089,540.1089,0.172659709,-0.468605618,0,0,0,,0,103,103,45,1,4,RL,spetisic,cursive,spetisic_c.png,,,,,,
,,,,32127,001,2025-10-16_16h07.17.515,HW_LDT_1,2024.2.4,MacIntel,60.24096386,,,,,,,,,,,,,,,,,,,,,,540.11,540.3088,540.3089,540.8087,,,,,,,,,,,,,,10.2991,1,,,,,,,,,,,,,,m,,,,,,,,,,,,,,,105,0,540.809,551.1084,,0,,,[0.28235432942708333],[-0.23114251030815972],[1],[0],[0],[10.299099999999612],"[""button_right_main""]",551.1085,553.1088,553.1088,553.1089,[],[],[],[],[],[],[],,553.109,553.1091,0.282354329,-0.23114251,0,0,0,,0,104,104,130,1,4,word,POLICY,cursive,policy_c.png,,,,,,
,,,,32127,001,2025-10-16_16h07.17.515,HW_LDT_1,2024.2.4,MacIntel,60.24096386,,,,,,,,,,,,,,,,,,,,,,553.11,553.3076,553.3076,553.8087,,,,,,,,,,,,,,1.7716,1,,,,,,,,,,,,,,z,,,,,,,,,,,,,,,106,0,553.8093,555.5921,z,1,1.7716,,[],[],[],[],[],[],[],555.5922,557.5916,557.5916,557.5917,[],[],[],[],[],[],[],,557.5917,557.5919,0.282354329,-0.23114251,0,0,0,,0,105,105,6,1,4,RL,caleberia,cursive,caleberia_c.png,,,,,,
,,,,32127,001,2025-10-16_16h07.17.515,HW_LDT_1,2024.2.4,MacIntel,60.24096386,,,,,,,,,,,,,,,,,,,,,,557.5926,557.7918,557.7918,558.2917,,,,,,,,,,,,,,3.5711,1,,,,,,,,,,,,,,m,,,,,,,,,,,,,,,107,0,558.2921,561.8743,m,1,3.5711,,[],[],[],[],[],[],[],561.8744,563.8753,563.8754,563.8755,[],[],[],[],[],[],[],,563.8756,563.8758,0.282354329,-0.23114251,0,0,0,,0,106,106,114,1,4,word,LOCATE,cursive,locate_c.png,,,,,,
,,,,32127,001,2025-10-16_16h07.17.515,HW_LDT_1,2024.2.4,MacIntel,60.24096386,,,,,,,,,,,,,,,,,,,,,,563.8767,564.0751,564.0752,564.5752,,,,,,,,,,,,,,1.1462,1,,,,,,,,,,,,,,m,,,,,,,,,,,,,,,108,0,564.5755,565.725,m,1,1.1462,,[],[],[],[],[],[],[],565.725,567.725,567.7251,567.7253,[],[],[],[],[],[],[],,567.7253,567.7253,0.282354329,-0.23114251,0,0,0,,0,107,107,155,1,4,word,STRATEGY,print,strategy_p.png,,,,,,
,,,,32127,001,2025-10-16_16h07.17.515,HW_LDT_1,2024.2.4,MacIntel,60.24096386,,,,,,,,,,,,,,,,,,,,,,567.7262,567.9252,567.9253,568.425,,,,,,,,,,,,,,1.2256,1,,,,,,,,,,,,,,z,,,,,,,,,,,,,,,109,0,568.4255,569.6584,z,1,1.2256,,[],[],[],[],[],[],[],569.6585,571.6581,571.6581,571.6583,[],[],[],[],[],[],[],,571.6584,571.6584,0.282354329,-0.23114251,0,0,0,,0,108,108,16,1,4,RL,desifate,cursive,desifate_c.png,,,,,,
,,,,32127,001,2025-10-16_16h07.17.515,HW_LDT_1,2024.2.4,MacIntel,60.24096386,,,,,,,,,,,,,,,,,,,,,,571.6594,571.8572,571.8572,572.3582,,,,,,,,,,,,,,1.1111,0,,,,,,,,,,,,,,z,,,,,,,,,,,,,,,110,0,572.3586,573.4742,m,0,1.1111,,[],[],[],[],[],[],[],573.4742,575.4741,575.4741,575.4743,[],[],[],[],[],[],[],,575.4743,575.4744,0.282354329,-0.23114251,0,0,0,,0,109,109,2,1,4,RL,asiral,cursive,asiral_c.png,,,,,,
,,,,32127,001,2025-10-16_16h07.17.515,HW_LDT_1,2024.2.4,MacIntel,60.24096386,,,,,,,,,,,,,,,,,,,,,,575.4754,575.6747,575.6748,576.1749,,,,,,,,,,,,,,0.9956,1,,,,,,,,,,,,,,z,,,,,,,,,,,,,,,111,0,576.1753,577.1743,z,1,0.9956,,[],[],[],[],[],[],[],577.1743,579.1745,579.1745,579.1746,[],[],[],[],[],[],[],,579.1747,579.1747,0.282354329,-0.23114251,0,0,0,,0,110,110,7,1,4,RL,casena,print,casena_p.png,,,,,,
,,,,32127,001,2025-10-16_16h07.17.515,HW_LDT_1,2024.2.4,MacIntel,60.24096386,,,,,,,,,,,,,,,,,,,,,,579.1755,579.3747,579.3747,579.8746,,,,,,,,,,,,,,1.8478,0,,,,,,,,,,,,,,z,,,,,,,,,,,,,,,112,0,579.875,581.7242,m,0,1.8478,,[],[],[],[],[],[],[],581.7243,583.724,583.724,583.7242,[],[],[],[],[],[],[],,583.7243,583.7244,0.282354329,-0.23114251,0,0,0,,0,111,111,57,1,4,TL,etidor,print,etidor_p.png,,,,,,
,,,,32127,001,2025-10-16_16h07.17.515,HW_LDT_1,2024.2.4,MacIntel,60.24096386,,,,,,,,,,,,,,,,,,,,,,583.7253,583.9241,583.9241,584.4249,,,,,,,,,,,,,,0.9462,1,,,,,,,,,,,,,,m,,,,,,,,,,,,,,,113,1,584.4252,585.3748,m,1,0.9462,,[],[],[],[],[],[],[],585.3749,587.375,587.375,589.6249,[],[],[],[],[],[],[],z,589.625,589.6251,0.282354329,-0.23114251,0,0,0,,0,112,112,88,1,4,word,CAMERA,print,camera_p.png,2.2448,,,,,
,,,,32127,001,2025-10-16_16h07.17.515,HW_LDT_1,2024.2.4,MacIntel,60.24096386,,,,,,,,,,,,,,,,,,,,,,589.6263,589.8244,589.8244,590.3249,,,,,,,,,,,,,,4.0052,0,,,,,,,,,,,,,,z,,,,,,,,,,,,,,,114,0,590.3253,594.3413,m,0,4.0052,,[],[],[],[],[],[],[],594.3413,596.3409,596.3409,596.3411,[],[],[],[],[],[],[],,596.3411,596.3412,0.282354329,-0.23114251,0,0,0,,0,113,113,30,1,4,RL,nunewical,cursive,nunewical_c.png,,,,,,
,,,,32127,001,2025-10-16_16h07.17.515,HW_LDT_1,2024.2.4,MacIntel,60.24096386,,,,,,,,,,,,,,,,,,,,,,596.3422,596.5413,596.5414,597.041,,,,,,,,,,,,,,0.9101,1,,,,,,,,,,,,,,m,,,,,,,,,,,,,,,115,1,597.0413,597.9581,m,1,0.9101,,[],[],[],[],[],[],[],597.9581,599.9575,599.9575,601.0748,[],[],[],[],[],[],[],m,601.075,601.075,0.282354329,-0.23114251,0,0,0,,0,114,114,109,1,4,word,GRATEFUL,print,grateful_p.png,1.107,,,,,
,,,,32127,001,2025-10-16_16h07.17.515,HW_LDT_1,2024.2.4,MacIntel,60.24096386,,,,,,,,,,,,,,,,,,,,,,601.0761,601.2746,601.2746,601.7743,,,,,,,,,,,,,,5.1301,1,,,,,,,,,,,,,,z,,,,,,,,,,,,,,,116,0,601.7748,606.9078,z,1,5.1301,,[],[],[],[],[],[],[],606.9079,608.9078,608.9079,608.9079,[],[],[],[],[],[],[],,608.908,608.9081,0.282354329,-0.23114251,0,0,0,,0,115,115,4,1,4,RL,betemit,cursive,betemit_c.png,,,,,,
,,,,32127,001,2025-10-16_16h07.17.515,HW_LDT_1,2024.2.4,MacIntel,60.24096386,,,,,,,,,,,,,,,,,,,,,,608.9091,609.1078,609.1078,609.6079,,,,,,,,,,,,,,2.0633,0,,,,,,,,,,,,,,z,,,,,,,,,,,,,,,117,1,609.6084,611.6743,m,0,2.0633,,[],[],[],[],[],[],[],611.6744,613.6745,613.6745,614.941,[],[],[],[],[],[],[],z,614.941,614.9411,0.282354329,-0.23114251,0,0,0,,0,116,116,24,1,4,RL,marmipal,cursive,marmipal_c.png,1.2607,,,,,
,,,,32127,001,2025-10-16_16h07.17.515,HW_LDT_1,2024.2.4,MacIntel,60.24096386,,,,,,,,,,,,,,,,,,,,,,614.9417,615.1413,615.1413,615.6411,,,,,,,,,,,,,,1.4726,0,,,,,,,,,,,,,,m,,,,,,,,,,,,,,,118,0,615.6415,617.1245,z,0,1.4726,,[],[],[],[],[],[],[],617.1245,619.124,619.124,619.1242,[],[],[],[],[],[],[],,619.1242,619.1243,0.282354329,-0.23114251,0,0,0,,0,117,117,101,1,4,word,DELICATE,cursive,delicate_c.png,,,,,,
,,,,32127,001,2025-10-16_16h07.17.515,HW_LDT_1,2024.2.4,MacIntel,60.24096386,,,,,,,,,,,,,,,,,,,,,,619.1251,619.3239,619.3239,619.8244,,,,,,,,,,,,,,1.6285,1,,,,,,,,,,,,,,m,,,,,,,,,,,,,,,119,0,619.8249,621.4578,m,1,1.6285,,[],[],[],[],[],[],[],621.4578,623.4571,623.4572,623.4573,[],[],[],[],[],[],[],,623.4573,623.4575,0.282354329,-0.23114251,0,0,0,,0,118,118,122,1,4,word,MOBILE,print,mobile_p.png,,,,,,
,,,,32127,001,2025-10-16_16h07.17.515,HW_LDT_1,2024.2.4,MacIntel,60.24096386,,,,,,,,,,,,,,,,,,,,,,623.4583,623.6573,623.6574,624.1577,,,,,,,,,,,,,,1.0763,1,,,,,,,,,,,,,,z,,,,,,,,,,,,,,,120,0,624.1583,625.2408,z,1,1.0763,,[],[],[],[],[],[],[],625.2409,627.241,627.241,627.2412,[],[],[],[],[],[],[],,627.2412,627.2412,0.282354329,-0.23114251,0,0,0,,0,119,119,20,1,4,RL,gralekul,print,gralekul_p.png,,,,,,
,,,,32127,001,2025-10-16_16h07.17.515,HW_LDT_1,2024.2.4,MacIntel,60.24096386,,,,,,,,,,,,,,,,,,,,,,627.2421,627.441,627.441,627.94,,,,,,,,,,,,,,1.0475,1,,,,,,,,,,,,,,z,,,,,,,,,,,,,,,121,0,627.9402,628.9905,z,1,1.0475,,[],[],[],[],[],[],[],628.9905,630.9909,630.9909,630.991,[],[],[],[],[],[],[],,630.9911,630.9911,0.282354329,-0.23114251,0,0,0,,0,120,120,48,1,4,RL,vabifity,print,vabifity_p.png,,,,,,
,,,,32127,001,2025-10-16_16h07.17.515,HW_LDT_1,2024.2.4,MacIntel,60.24096386,,,,,,,,,,,,,,,,,,,,,,630.992,631.1901,631.1902,631.6909,,,,,,,,,,,,,,1.1535,1,,,,,,,,,,,,,,m,,,,,,,,,,,,,,,122,0,631.6912,632.8572,m,1,1.1535,,[],[],[],[],[],[],[],632.8573,634.8566,634.8567,634.8568,[],[],[],[],[],[],[],,634.8568,634.8569,0.282354329,-0.23114251,0,0,0,,0,121,121,82,1,4,word,AMATEUR,cursive,amateur_c.png,,,,,,
,,,,32127,001,2025-10-16_16h07.17.515,HW_LDT_1,2024.2.4,MacIntel,60.24096386,,,,,,,,,,,,,,,,,,,,,,634.8578,635.0454,635.0454,635.5575,,,,,,,,,,,,,,0.9891,1,,,,,,,,,,,,,,z,,,,,,,,,,,,,,,123,0,635.5579,636.557,z,1,0.9891,,[],[],[],[],[],[],[],636.5571,638.5574,638.5574,638.5576,[],[],[],[],[],[],[],,638.5576,638.5577,0.282354329,-0.23114251,0,0,0,,0,122,122,53,1,4,TL,cemerony,print,cemerony_p.png,,,,,,
,,,,32127,001,2025-10-16_16h07.17.515,HW_LDT_1,2024.2.4,MacIntel,60.24096386,,,,,,,,,,,,,,,,,,,,,,638.5586,638.7576,638.7576,639.2574,,,,,,,,,,,,,,0.8874,1,,,,,,,,,,,,,,m,,,,,,,,,,,,,,,124,1,639.2578,640.1575,m,1,0.8874,,[],[],[],[],[],[],[],640.1575,642.1464,642.1465,643.3405,[],[],[],[],[],[],[],m,643.3405,643.3406,0.282354329,-0.23114251,0,0,0,,0,123,123,123,1,4,word,MODERATE,print,moderate_p.png,1.1915,,,,,
,,,,32127,001,2025-10-16_16h07.17.515,HW_LDT_1,2024.2.4,MacIntel,60.24096386,,,,,,,,,,,,,,,,,,,,,,643.3412,643.5407,643.5407,644.0406,,,,,,,,,,,,,,1.9599,1,,,,,,,,,,,,,,z,,,,,,,,,,,,,,,125,0,644.041,646.0073,z,1,1.9599,,[],[],[],[],[],[],[],646.0074,648.0072,648.0074,648.0075,[],[],[],[],[],[],[],,648.0075,648.0076,0.268087294,-0.031376784,0,0,0,,0,124,124,34,1,4,RL,posity,cursive,posity_c.png,,,,,,
,,,,32127,001,2025-10-16_16h07.17.515,HW_LDT_1,2024.2.4,MacIntel,60.24096386,,,,,,,,,,,,,,,,,,,,,,648.0086,648.2074,648.2074,648.7072,,,,,,,,,,,,,,0.9224,1,,,,,,,,,,,,,,z,,,,,,,,,,,,,,,126,0,648.7075,649.6401,z,1,0.9224,,[],[],[],[],[],[],[],649.6401,651.6406,651.6406,651.6407,[],[],[],[],[],[],[],,651.6408,651.6409,0.268087294,-0.031376784,0,0,0,,0,125,125,51,1,4,TL,adsivory,cursive,adsivory_c.png,,,,,,
,,,,32127,001,2025-10-16_16h07.17.515,HW_LDT_1,2024.2.4,MacIntel,60.24096386,,,,,,,,,,,,,,,,,,,,,,651.6418,651.8407,651.8407,652.3406,,,,,,,,,,,,,,2.1056,0,,,,,,,,,,,,,,z,,,,,,,,,,,,,,,127,0,652.341,654.4573,m,0,2.1056,,[],[],[],[],[],[],[],654.4575,656.4572,656.4572,656.4573,[],[],[],[],[],[],[],,656.4574,656.4575,0.268087294,-0.031376784,0,0,0,,0,126,126,15,1,4,RL,debave,cursive,debave_c.png,,,,,,
,,,,32127,001,2025-10-16_16h07.17.515,HW_LDT_1,2024.2.4,MacIntel,60.24096386,,,,,,,,,,,,,,,,,,,,,,656.4584,656.6563,656.6563,657.1571,,,,,,,,,,,,,,0.9189,1,,,,,,,,,,,,,,m,,,,,,,,,,,,,,,128,0,657.1575,658.0769,m,1,0.9189,,[],[],[],[],[],[],[],658.0769,660.0735,660.0736,660.0737,[],[],[],[],[],[],[],,660.0737,660.0738,0.268087294,-0.031376784,0,0,0,,0,127,127,95,1,4,word,COMEDY,print,comedy_p.png,,,,,,
,,,,32127,001,2025-10-16_16h07.17.515,HW_LDT_1,2024.2.4,MacIntel,60.24096386,,,,,,,,,,,,,,,,,,,,,,660.0747,660.2733,660.2733,660.774,,,,,,,,,,,,,,0.8915,0,,,,,,,,,,,,,,m,,,,,,,,,,,,,,,129,0,660.7745,661.6728,z,0,0.8915,,[],[],[],[],[],[],[],661.6729,663.6736,663.6737,663.6738,[],[],[],[],[],[],[],,663.6739,663.674,0.268087294,-0.031376784,0,0,0,,0,128,128,85,1,4,word,BENEFIT,cursive,benefit_c.png,,,,,,
,,,,32127,001,2025-10-16_16h07.17.515,HW_LDT_1,2024.2.4,MacIntel,60.24096386,,,,,,,,,,,,,,,,,,,,,,663.675,663.8731,663.8732,664.3737,,,,,,,,,,,,,,0.8468,1,,,,,,,,,,,,,,z,,,,,,,,,,,,,,,130,0,664.3741,665.223,z,1,0.8468,,[],[],[],[],[],[],[],665.2231,667.2239,667.2239,667.224,[],[],[],[],[],[],[],,667.2241,667.2242,0.268087294,-0.031376784,0,0,0,,0,129,129,46,1,4,RL,skofen,cursive,skofen_c.png,,,,,,
,,,,32127,001,2025-10-16_16h07.17.515,HW_LDT_1,2024.2.4,MacIntel,60.24096386,,,,,,,,,,,,,,,,,,,,,,667.2254,667.4237,667.4237,667.9237,,,,,,,,,,,,,,1.1944,0,,,,,,,,,,,,,,z,,,,,,,,,,,,,,,131,1,667.9242,669.1236,m,0,1.1944,,[],[],[],[],[],[],[],669.1237,671.1239,671.1239,674.1905,[],[],[],[],[],[],[],z,674.1905,674.1907,0.268087294,-0.031376784,0,0,0,,0,130,130,38,1,4,RL,refakive,print,refakive_p.png,3.0607,,,,,
,,,,32127,001,2025-10-16_16h07.17.515,HW_LDT_1,2024.2.4,MacIntel,60.24096386,,,,,,,,,,,,,,,,,,,,,,674.1918,674.3904,674.3904,674.8903,,,,,,,,,,,,,,1.313,1,,,,,,,,,,,,,,z,,,,,,,,,,,,,,,132,0,674.8907,676.2071,z,1,1.313,,[],[],[],[],[],[],[],676.2071,678.2069,678.2069,678.207,[],[],[],[],[],[],[],,678.2071,678.2072,0.268087294,-0.031376784,0,0,0,,0,131,131,44,1,4,RL,senvilent,print,senvilent_p.png,,,,,,
,,,,32127,001,2025-10-16_16h07.17.515,HW_LDT_1,2024.2.4,MacIntel,60.24096386,,,,,,,,,,,,,,,,,,,,,,678.2082,678.4062,678.4062,678.9069,,,,,,,,,,,,,,1.1603,1,,,,,,,,,,,,,,z,,,,,,,,,,,,,,,133,0,678.9073,680.0736,z,1,1.1603,,[],[],[],[],[],[],[],680.0736,682.0735,682.0735,682.0737,[],[],[],[],[],[],[],,682.0737,682.0737,0.268087294,-0.031376784,0,0,0,,0,132,132,17,1,4,RL,denficy,cursive,denficy_c.png,,,,,,
,,,,32127,001,2025-10-16_16h07.17.515,HW_LDT_1,2024.2.4,MacIntel,60.24096386,,,,,,,,,,,,,,,,,,,,,,682.0748,682.2733,682.2734,682.7732,,,,,,,,,,,,,,1.0993,0,,,,,,,,,,,,,,z,,,,,,,,,,,,,,,134,0,682.7736,683.8732,,0,,,[0.3562156846788194],[-0.27071763780381947],[1],[0],[0],[1.0992999999998574],"[""button_right_main""]",683.8733,685.873,685.873,685.8731,[],[],[],[],[],[],[],,685.8731,685.8732,0.356215685,-0.270717638,0,0,0,,0,133,133,79,1,4,TL,tritube,print,tritube_p.png,,,,,,
,,,,32127,001,2025-10-16_16h07.17.515,HW_LDT_1,2024.2.4,MacIntel,60.24096386,,,,,,,,,,,,,,,,,,,,,,685.8739,686.0736,686.0737,686.5737,,,,,,,,,,,,,,1.5245,0,,,,,,,,,,,,,,z,,,,,,,,,,,,,,,135,0,686.5741,688.1068,m,0,1.5245,,[],[],[],[],[],[],[],688.1068,690.1066,690.1066,690.1066,[],[],[],[],[],[],[],,690.1067,690.1068,0.356215685,-0.270717638,0,0,0,,0,134,134,13,1,4,RL,crisival,cursive,crisival_c.png,,,,,,
,,,,32127,001,2025-10-16_16h07.17.515,HW_LDT_1,2024.2.4,MacIntel,60.24096386,,,,,,,,,,,,,,,,,,,,,,690.1077,690.3066,690.3066,690.8061,,,,,,,,,,,,,,0.8936,0,,,,,,,,,,,,,,m,,,,,,,,,,,,,,,136,0,690.8064,691.7059,z,0,0.8936,,[],[],[],[],[],[],[],691.706,693.706,693.706,693.7061,[],[],[],[],[],[],[],,693.7062,693.7063,0.356215685,-0.270717638,0,0,0,,0,135,135,159,1,4,word,VETERAN,cursive,veteran_c.png,,,,,,
,,,,32127,001,2025-10-16_16h07.17.515,HW_LDT_1,2024.2.4,MacIntel,60.24096386,,,,,,,,,,,,,,,,,,,,,,693.7074,693.9066,693.9067,694.4067,,,,,,,,,,,,,,2.2481,1,,,,,,,,,,,,,,z,,,,,,,,,,,,,,,137,0,694.4073,696.6558,z,1,2.2481,,[],[],[],[],[],[],[],696.6559,698.6565,698.6566,698.6567,[],[],[],[],[],[],[],,698.6568,698.6569,0.356215685,-0.270717638,0,0,0,,0,136,136,3,1,4,RL,bewoted,print,bewoted_p.png,,,,,,
,,,,32127,001,2025-10-16_16h07.17.515,HW_LDT_1,2024.2.4,MacIntel,60.24096386,,,,,,,,,,,,,,,,,,,,,,698.6577,698.856,698.8561,699.3557,,,,,,,,,,,,,,1.6593,1,,,,,,,,,,,,,,m,,,,,,,,,,,,,,,138,0,699.3561,701.0232,m,1,1.6593,,[],[],[],[],[],[],[],701.0232,703.0232,703.0233,703.0234,[],[],[],[],[],[],[],,703.0234,703.0235,0.356215685,-0.270717638,0,0,0,,0,137,137,107,1,4,word,EVIDENT,print,evident_p.png,,,,,,
,,,,32127,001,2025-10-16_16h07.17.515,HW_LDT_1,2024.2.4,MacIntel,60.24096386,,,,,,,,,,,,,,,,,,,,,,703.0244,703.2224,703.2224,703.7232,,,,,,,,,,,,,,1.0155,0,,,,,,,,,,,,,,z,,,,,,,,,,,,,,,139,0,703.7235,704.7394,m,0,1.0155,,[],[],[],[],[],[],[],704.7394,706.7399,706.7399,706.74,[],[],[],[],[],[],[],,706.7401,706.7401,0.356215685,-0.270717638,0,0,0,,0,138,138,54,1,4,TL,codemy,print,codemy_p.png,,,,,,
,,,,32127,001,2025-10-16_16h07.17.515,HW_LDT_1,2024.2.4,MacIntel,60.24096386,,,,,,,,,,,,,,,,,,,,,,706.741,706.9391,706.9392,707.4397,,,,,,,,,,,,,,2.2267,1,,,,,,,,,,,,,,z,,,,,,,,,,,,,,,140,0,707.4402,709.6731,z,1,2.2267,,[],[],[],[],[],[],[],709.6731,711.6732,711.6732,711.6735,[],[],[],[],[],[],[],,711.6735,711.6736,0.356215685,-0.270717638,0,0,0,,0,139,139,5,1,4,RL,bebine,print,bebine_p.png,,,,,,
,,,,32127,001,2025-10-16_16h07.17.515,HW_LDT_1,2024.2.4,MacIntel,60.24096386,,,,,,,,,,,,,,,,,,,,,,711.6747,711.8729,711.8729,712.373,,,,,,,,,,,,,,1.7294,0,,,,,,,,,,,,,,z,,,,,,,,,,,,,,,141,0,712.3733,714.1057,m,0,1.7294,,[],[],[],[],[],[],[],714.1057,716.106,716.1061,716.1062,[],[],[],[],[],[],[],,716.1062,716.1064,0.356215685,-0.270717638,0,0,0,,0,140,140,62,1,4,TL,locigal,print,locigal_p.png,,,,,,
,,,,32127,001,2025-10-16_16h07.17.515,HW_LDT_1,2024.2.4,MacIntel,60.24096386,,,,,,,,,,,,,,,,,,,,,,716.1073,716.3063,716.3063,716.8064,,,,,,,,,,,,,,1.7443,0,,,,,,,,,,,,,,z,,,,,,,,,,,,,,,142,0,716.8069,718.5559,m,0,1.7443,,[],[],[],[],[],[],[],718.556,720.5558,720.5558,720.5559,[],[],[],[],[],[],[],,720.556,720.556,0.356215685,-0.270717638,0,0,0,,0,141,141,37,1,4,RL,renutal,cursive,renutal_c.png,,,,,,
,,,,32127,001,2025-10-16_16h07.17.515,HW_LDT_1,2024.2.4,MacIntel,60.24096386,,,,,,,,,,,,,,,,,,,,,,720.5569,720.7562,720.7562,721.2561,,,,,,,,,,,,,,2.9308,1,,,,,,,,,,,,,,z,,,,,,,,,,,,,,,143,0,721.2565,724.1888,z,1,2.9308,,[],[],[],[],[],[],[],724.1888,726.1898,726.1898,726.19,[],[],[],[],[],[],[],,726.19,726.1901,0.356215685,-0.270717638,0,0,0,,0,142,142,60,1,4,TL,hetirage,print,hetirage_p.png,,,,,,
,,,,32127,001,2025-10-16_16h07.17.515,HW_LDT_1,2024.2.4,MacIntel,60.24096386,,,,,,,,,,,,,,,,,,,,,,726.1911,726.3895,726.3896,726.8891,,,,,,,,,,,,,,1.0298,1,,,,,,,,,,,,,,z,,,,,,,,,,,,,,,144,0,726.8894,727.9222,z,1,1.0298,,[],[],[],[],[],[],[],727.9222,729.9223,729.9224,729.9225,[],[],[],[],[],[],[],,729.9226,729.9228,0.356215685,-0.270717638,0,0,0,,0,143,143,49,1,4,RL,vesofity,cursive,vesofity_c.png,,,,,,
,,,,32127,001,2025-10-16_16h07.17.515,HW_LDT_1,2024.2.4,MacIntel,60.24096386,,,,,,,,,,,,,,,,,,,,,,729.9238,730.1226,730.1226,730.623,,,,,,,,,,,,,,1.1036,1,,,,,,,,,,,,,,z,,,,,,,,,,,,,,,145,0,730.6235,731.7392,z,1,1.1036,,[],[],[],[],[],[],[],731.7394,733.7396,733.7396,733.7398,[],[],[],[],[],[],[],,733.7399,733.7399,0.356215685,-0.270717638,0,0,0,,0,144,144,25,1,4,RL,macise,print,macise_p.png,,,,,,
,,,,32127,001,2025-10-16_16h07.17.515,HW_LDT_1,2024.2.4,MacIntel,60.24096386,,,,,,,,,,,,,,,,,,,,,,733.7409,733.9396,733.9397,734.4385,,,,,,,,,,,,,,1.048,0,,,,,,,,,,,,,,m,,,,,,,,,,,,,,,146,0,734.4388,735.4884,z,0,1.048,,[],[],[],[],[],[],[],735.4884,737.4889,737.4889,737.4891,[],[],[],[],[],[],[],,737.4892,737.4892,0.356215685,-0.270717638,0,0,0,,0,145,145,133,1,4,word,PROVIDE,cursive,provide_c.png,,,,,,
,,,,32127,001,2025-10-16_16h07.17.515,HW_LDT_1,2024.2.4,MacIntel,60.24096386,,,,,,,,,,,,,,,,,,,,,,737.4901,737.6896,737.6896,738.1895,,,,,,,,,,,,,,1.7279,1,,,,,,,,,,,,,,m,,,,,,,,,,,,,,,147,0,738.1898,739.9219,m,1,1.7279,,[],[],[],[],[],[],[],739.922,741.9227,741.9227,741.9228,[],[],[],[],[],[],[],,741.9228,741.9229,0.356215685,-0.270717638,0,0,0,,0,146,146,144,1,4,word,RESIDENT,cursive,resident_c.png,,,,,,
,,,,32127,001,2025-10-16_16h07.17.515,HW_LDT_1,2024.2.4,MacIntel,60.24096386,,,,,,,,,,,,,,,,,,,,,,741.9237,742.122,742.122,742.6219,,,,,,,,,,,,,,1.227,0,,,,,,,,,,,,,,m,,,,,,,,,,,,,,,148,0,742.6223,743.8559,z,0,1.227,,[],[],[],[],[],[],[],743.856,745.8559,745.856,745.8561,[],[],[],[],[],[],[],,745.8561,745.8561,0.356215685,-0.270717638,0,0,0,,0,147,147,91,1,4,word,CARDINAL,cursive,cardinal_c.png,,,,,,
,,,,32127,001,2025-10-16_16h07.17.515,HW_LDT_1,2024.2.4,MacIntel,60.24096386,,,,,,,,,,,,,,,,,,,,,,745.8571,746.0562,746.0562,746.5559,,,,,,,,,,,,,,1.5065,0,,,,,,,,,,,,,,m,,,,,,,,,,,,,,,149,0,746.5563,748.0726,z,0,1.5065,,[],[],[],[],[],[],[],748.0727,750.0726,750.0726,750.0727,[],[],[],[],[],[],[],,750.0727,750.0728,0.356215685,-0.270717638,0,0,0,,0,148,148,138,1,4,word,REFUSAL,cursive,refusal_c.png,,,,,,
,,,,32127,001,2025-10-16_16h07.17.515,HW_LDT_1,2024.2.4,MacIntel,60.24096386,,,,,,,,,,,,,,,,,,,,,,750.0737,750.2725,750.2726,750.7727,,,,,,,,,,,,,,1.5595,1,,,,,,,,,,,,,,m,,,,,,,,,,,,,,,150,0,750.7732,752.3393,m,1,1.5595,,[],[],[],[],[],[],[],752.3394,754.3391,754.3392,754.3392,[],[],[],[],[],[],[],,754.3393,754.3394,0.356215685,-0.270717638,0,0,0,,0,149,149,118,1,4,word,MEDICINE,cursive,medicine_c.png,,,,,,
,,,,32127,001,2025-10-16_16h07.17.515,HW_LDT_1,2024.2.4,MacIntel,60.24096386,,,,,,,,,,,,,,,,,,,,,,754.3403,754.5392,754.5392,755.039,,,,,,,,,,,,,,0.9102,0,,,,,,,,,,,,,,m,,,,,,,,,,,,,,,151,0,755.0392,755.9551,z,0,0.9102,,[],[],[],[],[],[],[],755.9552,757.9556,757.9556,757.9558,[],[],[],[],[],[],[],,757.9558,757.956,0.356215685,-0.270717638,0,0,0,,0,150,150,153,1,4,word,STOLEN,cursive,stolen_c.png,,,,,,
,,,,32127,001,2025-10-16_16h07.17.515,HW_LDT_1,2024.2.4,MacIntel,60.24096386,,,,,,,,,,,,,,,,,,,,,,757.957,758.1556,758.1557,758.6557,,,,,,,,,,,,,,1.071,1,,,,,,,,,,,,,,m,,,,,,,,,,,,,,,152,1,758.6561,759.7392,m,1,1.071,,[],[],[],[],[],[],[],759.7392,761.739,761.739,763.0557,[],[],[],[],[],[],[],z,763.0558,763.0558,0.356215685,-0.270717638,0,0,0,,0,151,151,119,1,4,word,MEMORY,print,memory_p.png,1.3134,,,,,
,,,,32127,001,2025-10-16_16h07.17.515,HW_LDT_1,2024.2.4,MacIntel,60.24096386,,,,,,,,,,,,,,,,,,,,,,763.0564,763.2557,763.2558,763.7557,,,,,,,,,,,,,,1.3732,1,,,,,,,,,,,,,,m,,,,,,,,,,,,,,,153,0,763.7561,765.1391,m,1,1.3732,,[],[],[],[],[],[],[],765.1392,767.1391,767.1392,767.1394,[],[],[],[],[],[],[],,767.1394,767.1396,0.356215685,-0.270717638,0,0,0,,0,152,152,149,1,4,word,SENATOR,print,senator_p.png,,,,,,
,,,,32127,001,2025-10-16_16h07.17.515,HW_LDT_1,2024.2.4,MacIntel,60.24096386,,,,,,,,,,,,,,,,,,,,,,767.1406,767.3387,767.3387,767.8379,,,,,,,,,,,,,,0.8732,1,,,,,,,,,,,,,,m,,,,,,,,,,,,,,,154,1,767.8382,768.7213,m,1,0.8732,,[],[],[],[],[],[],[],768.7213,770.7223,770.7223,772.0879,[],[],[],[],[],[],[],m,772.0879,772.0879,0.356215685,-0.270717638,0,0,0,,0,153,153,143,1,4,word,REMOVAL,print,removal_p.png,1.3638,,,,,
,,,,32127,001,2025-10-16_16h07.17.515,HW_LDT_1,2024.2.4,MacIntel,60.24096386,,,,,,,,,,,,,,,,,,,,,,772.0885,772.2889,772.2889,772.7769,,,,,,,,,,,,,,2.3849,0,,,,,,,,,,,,,,m,,,,,,,,,,,,,,,155,0,772.7774,775.1723,z,0,2.3849,,[],[],[],[],[],[],[],775.1724,777.172,777.1721,777.1722,[],[],[],[],[],[],[],,777.1722,777.1723,0.356215685,-0.270717638,0,0,0,,0,154,154,96,1,4,word,CONSIDER,cursive,consider_c.png,,,,,,
,,,,32127,001,2025-10-16_16h07.17.515,HW_LDT_1,2024.2.4,MacIntel,60.24096386,,,,,,,,,,,,,,,,,,,,,,777.1733,777.3717,777.3717,777.8723,,,,,,,,,,,,,,0.9039,1,,,,,,,,,,,,,,m,,,,,,,,,,,,,,,156,1,777.8728,778.7887,m,1,0.9039,,[],[],[],[],[],[],[],778.7889,780.789,780.789,781.9543,[],[],[],[],[],[],[],m,781.9544,781.9544,0.356215685,-0.270717638,0,0,0,,0,155,155,94,1,4,word,CLINICAL,print,clinical_p.png,1.1567,,,,,
,,,,32127,001,2025-10-16_16h07.17.515,HW_LDT_1,2024.2.4,MacIntel,60.24096386,,,,,,,,,,,,,,,,,,,,,,781.955,782.1554,782.1554,782.6547,,,,,,,,,,,,,,0.9608,0,,,,,,,,,,,,,,z,,,,,,,,,,,,,,,157,0,782.6552,783.6219,m,0,0.9608,,[],[],[],[],[],[],[],783.622,785.6221,785.6222,785.6224,[],[],[],[],[],[],[],,785.6224,785.6226,0.356215685,-0.270717638,0,0,0,,0,156,156,71,1,4,TL,racidal,print,racidal_p.png,,,,,,
,,,,32127,001,2025-10-16_16h07.17.515,HW_LDT_1,2024.2.4,MacIntel,60.24096386,,,,,,,,,,,,,,,,,,,,,,785.6236,785.8221,785.8222,786.3213,,,,,,,,,,,,,,0.728,1,,,,,,,,,,,,,,m,,,,,,,,,,,,,,,158,0,786.3217,787.0547,m,1,0.728,,[],[],[],[],[],[],[],787.0547,789.0544,789.0544,789.0545,[],[],[],[],[],[],[],,789.0545,789.0545,0.356215685,-0.270717638,0,0,0,,0,157,157,86,1,4,word,BESIDE,print,beside_p.png,,,,,,
,,,,32127,001,2025-10-16_16h07.17.515,HW_LDT_1,2024.2.4,MacIntel,60.24096386,,,,,,,,,,,,,,,,,,,,,,789.0552,789.2591,789.2592,789.7545,,,,,,,,,,,,,,1.0891,1,,,,,,,,,,,,,,m,,,,,,,,,,,,,,,159,0,789.7547,790.8442,m,1,1.0891,,[],[],[],[],[],[],[],790.8443,792.8386,792.8386,792.8388,[],[],[],[],[],[],[],,792.8388,792.8388,0.356215685,-0.270717638,0,0,0,,0,158,158,158,1,4,word,VELOCITY,cursive,velocity_c.png,,,,,,
,,,,32127,001,2025-10-16_16h07.17.515,HW_LDT_1,2024.2.4,MacIntel,60.24096386,,,,,,,,,,,,,,,,,,,,,,792.8397,793.0383,793.0384,793.5384,,,,,,,,,,,,,,0.9109,0,,,,,,,,,,,,,,z,,,,,,,,,,,,,,,160,0,793.5389,794.4552,m,0,0.9109,,[],[],[],[],[],[],[],794.4553,796.4431,796.4431,796.4433,[],[],[],[],[],[],[],,796.4433,796.4435,0.356215685,-0.270717638,0,0,0,,0,159,159,64,1,4,TL,moredate,print,moredate_p.png,,,,,,
,,,,32127,001,2025-10-16_16h07.17.515,HW_LDT_1,2024.2.4,MacIntel,60.24096386,,,,,,,,,,,,,,,,,,,,,,,,,,,,,,,,,,,,,,,,,,,,,,,,,,,,,,,,,,,,,,,,,,,,,,,,,,,,,,,,,,,,,,,,,,,,,,,,,,,,,,,,,,,,,,,,,,,,,,796.444,801.4383
