counterbalance_lists.group,counterbalance_lists.remaining,get_list.started,get_list.stopped,participant,session,date,expName,psychopyVersion,OS,frameRate,Instructions.started,Instructions.stopped,key_resp.keys,instr_done_touch.x,instr_done_touch.y,instr_done_touch.leftButton,instr_done_touch.midButton,instr_done_touch.rightButton,instr_done_touch.clicked_name,start_instr.thisRepN,start_instr.thisTrialN,start_instr.thisN,start_instr.thisIndex,start_instr.ran,pageN,phase,instruct_text,has_image,instruct_image,showProgress.started,showProgress.stopped,fix.started,fix.stopped,prac.started,prac.stopped,response.keys,response.corr,touch_resp.x,touch_resp.y,touch_resp.leftButton,touch_resp.midButton,touch_resp.rightButton,touch_resp.time,touch_resp.clicked_name,rt,corr,feedback.started,feedback.stopped,trials.thisRepN,trials.thisTrialN,trials.thisN,trials.thisIndex,trials.ran,TrialID,StimulusType,Condition,PrimeDuration,Prime,Target,corrAns,Instructions_expt.started,Instructions_expt.stopped,key_resp_3.keys,instr_done_touch_3.x,instr_done_touch_3.y,instr_done_touch_3.leftButton,instr_done_touch_3.midButton,instr_done_touch_3.rightButton,instr_done_touch_3.clicked_name,instr_experiment.thisRepN,instr_experiment.thisTrialN,instr_experiment.thisN,instr_experiment.thisIndex,instr_experiment.ran,trialID,flag,maintask.started,maintask.stopped,key_resp_2.keys,key_resp_2.corr,targ_click.x,targ_click.y,targ_click.leftButton,targ_click.midButton,targ_click.rightButton,targ_click.time,targ_click.clicked_name,ITI.started,ITI.stopped,probe.started,probe.stopped,click_probe.x,click_probe.y,click_probe.leftButton,click_probe.midButton,click_probe.rightButton,click_probe.time,click_probe.clicked_name,key_resp_probe.keys,Break.started,Break.stopped,break_done_touch.x,break_done_touch.y,break_done_touch.leftButton,break_done_touch.midButton,break_done_touch.rightButton,break_done_keyboard.keys,list3_trials.thisRepN,list3_trials.thisTrialN,list3_trials.thisN,list3_trials.thisIndex,list3_trials.ran,list_id,item_type,string,font,stim_file,break_done_touch.clicked_name,End.started,End.stopped
list3,,5.882,5.883,32144,001,2025-10-22_03h18.23.919,HW_LDT_1,2024.2.4,MacIntel,47.61904762,,,,,,,,,,,,,,,,,,,,,,,,,,,,,,,,,,,,,,,,,,,,,,,,,,,,,,,,,,,,,,,,,,,,,,,,,,,,,,,,,,,,,,,,,,,,,,,,,,,,,,,,,,,,,,
,,,,32144,001,2025-10-22_03h18.23.919,HW_LDT_1,2024.2.4,MacIntel,47.61904762,5.911,6.966,,0.086956522,-0.425666199,1,0,0,,0,0,0,0,1,1,instructions,"INSTRUCTIONS
At the start of each trial, look at the plus sign  (+) in the center of the screen.  This tells you that a trial is about to begin and where to look. Second, the plus sign will disappear and a string of letters will appear. Your task is to determine if the string of letters is a word or not. If the item is a word press the M key (on keyboard)  or touch the word button (phone/tablet).  If the item is not a word,  press the  Z key (on keyboard)  or touch the nonword button (on phone/tablet). The items will be presented for a short time. 
Press the space bar or touch  continue.",0,,,,,,,,,,,,,,,,,,,,,,,,,,,,,,,,,,,,,,,,,,,,,,,,,,,,,,,,,,,,,,,,,,,,,,,,,,,,,,,,,,,,,,,,,,,,
,,,,32144,001,2025-10-22_03h18.23.919,HW_LDT_1,2024.2.4,MacIntel,47.61904762,6.968,14.916,,0.127629734,-0.386395512,1,0,0,instr_done_button,0,1,1,1,1,2,instructions,"If your device has a keyboard, press the 'Z' key for nonwords and the 'M' key for words.





Press the space bar or touch the button below to continue.",0,keyboard-example.gif,,,,,,,,,,,,,,,,,,,,,,,,,,,,,,,,,,,,,,,,,,,,,,,,,,,,,,,,,,,,,,,,,,,,,,,,,,,,,,,,,,,,,,,,,,,
,,,,32144,001,2025-10-22_03h18.23.919,HW_LDT_1,2024.2.4,MacIntel,47.61904762,14.918,18.264,,0.12342216,-0.401823282,1,0,0,instr_done_button,0,2,2,2,1,3,instructions,"If you are using a touchscreen only device, use the buttons on the screen. Do not use the mouse.





Press the space bar or touch the button below to continue.",0,touchscreen-example.gif,,,,,,,,,,,,,,,,,,,,,,,,,,,,,,,,,,,,,,,,,,,,,,,,,,,,,,,,,,,,,,,,,,,,,,,,,,,,,,,,,,,,,,,,,,,
,,,,32144,001,2025-10-22_03h18.23.919,HW_LDT_1,2024.2.4,MacIntel,47.61904762,18.266,25.098,,-0.119214586,-0.387798036,1,0,0,instr_done_button,0,3,3,3,1,4,instructions,"It is very important that you respond as quickly and accurately as possible, as each letter string will only be on the screen for two seconds. If you do not respond within this time, the message 'Too slow!' will be displayed and the experiment will progress to the next letter string. The first 20 trials will be practice trials and you will receive feedback on your answers. 

Press the space bar or touch the button below to start the practice trials.",0,,,,,,,,,,,,,,,,,,,,,,,,,,,,,,,,,,,,,,,,,,,,,,,,,,,,,,,,,,,,,,,,,,,,,,,,,,,,,,,,,,,,,,,,,,,,
,,,,32144,001,2025-10-22_03h18.23.919,HW_LDT_1,2024.2.4,MacIntel,47.61904762,,,,,,,,,,,,,,,,,,,,25.118,25.302,25.303,25.802,25.803,27.732,,0,[0.48807854137447404],[-0.2769985974754558],[1],[0],[0],[1.9239999999999995],"[""button_right""]",1.924,1,27.733,28.235,0,0,0,3,1,1004,WORD,"ID",16,matrix,MATRIX,m,,,,,,,,,,,,,,,,,,,,,,,,,,,,,,,,,,,,,,,,,,,,,,,,,,,,,,,,,,,,
,,,,32144,001,2025-10-22_03h18.23.919,HW_LDT_1,2024.2.4,MacIntel,47.61904762,,,,,,,,,,,,,,,,,,,,28.237,28.435,28.435,28.934,28.936,30.031,,0,[0.46563814866760167],[-0.3008415147265077],[1],[0],[0],[1.0920000000000059],"[""button_right""]",1.092,1,30.031,30.535,0,1,1,0,1,1001,WORD,"ID",33,utopia,UTOPIA,m,,,,,,,,,,,,,,,,,,,,,,,,,,,,,,,,,,,,,,,,,,,,,,,,,,,,,,,,,,,,
,,,,32144,001,2025-10-22_03h18.23.919,HW_LDT_1,2024.2.4,MacIntel,47.61904762,,,,,,,,,,,,,,,,,,,,30.536,30.734,30.735,31.235,31.236,32.481,,0,[0.46563814866760167],[-0.30925666199158486],[1],[0],[0],[1.242999999999995],"[""button_right""]",1.243,1,32.481,32.984,0,2,2,1,1,1002,WORD,"ID",33,adjust,ADJUST,m,,,,,,,,,,,,,,,,,,,,,,,,,,,,,,,,,,,,,,,,,,,,,,,,,,,,,,,,,,,,
,,,,32144,001,2025-10-22_03h18.23.919,HW_LDT_1,2024.2.4,MacIntel,47.61904762,,,,,,,,,,,,,,,,,,,,32.986,33.185,33.185,33.684,33.685,34.792,,0,[-0.4586255259467041],[-0.3330995792426367],[1],[0],[0],[1.1039999999999992],"[""button_left""]",1.104,1,34.792,35.284,0,3,3,14,1,1015,NW,UN,16,miaber,THRALE,z,,,,,,,,,,,,,,,,,,,,,,,,,,,,,,,,,,,,,,,,,,,,,,,,,,,,,,,,,,,,
,,,,32144,001,2025-10-22_03h18.23.919,HW_LDT_1,2024.2.4,MacIntel,47.61904762,,,,,,,,,,,,,,,,,,,,35.286,35.484,35.484,35.984,35.985,37.081,,0,[-0.41935483870967744],[-0.3120617110799439],[1],[0],[0],[1.0929999999999964],"[""button_left""]",1.093,1,37.081,37.584,0,4,4,13,1,1014,NW,UN,33,winfer,ROUPET,z,,,,,,,,,,,,,,,,,,,,,,,,,,,,,,,,,,,,,,,,,,,,,,,,,,,,,,,,,,,,
,,,,32144,001,2025-10-22_03h18.23.919,HW_LDT_1,2024.2.4,MacIntel,47.61904762,,,,,,,,,,,,,,,,,,,,37.585,37.784,37.784,38.284,38.285,39.363,,0,[0.4221598877980365],[-0.2980364656381487],[1],[0],[0],[1.0760000000000005],"[""button_right""]",1.076,1,39.363,39.868,0,5,5,4,1,1005,WORD,UN,33,abound,SQUEAK,m,,,,,,,,,,,,,,,,,,,,,,,,,,,,,,,,,,,,,,,,,,,,,,,,,,,,,,,,,,,,
,,,,32144,001,2025-10-22_03h18.23.919,HW_LDT_1,2024.2.4,MacIntel,47.61904762,,,,,,,,,,,,,,,,,,,,39.87,40.073,40.073,40.567,40.568,41.864,,0,[0.48807854137447404],[-0.32608695652173914],[1],[0],[0],[1.2920000000000016],"[""button_right""]",1.292,1,41.864,42.367,0,6,6,5,1,1006,WORD,UN,33,frenzy,OBTAIN,m,,,,,,,,,,,,,,,,,,,,,,,,,,,,,,,,,,,,,,,,,,,,,,,,,,,,,,,,,,,,
,,,,32144,001,2025-10-22_03h18.23.919,HW_LDT_1,2024.2.4,MacIntel,47.61904762,,,,,,,,,,,,,,,,,,,,42.369,42.567,42.567,43.067,43.068,45.062,,0,[-0.42496493688639553],[-0.31626928471248245],[1],[0],[0],[1.9919999999999973],"[""button_left""]",1.992,1,45.062,45.567,0,7,7,12,1,1013,NW,UN,33,adveil,SPRINY,z,,,,,,,,,,,,,,,,,,,,,,,,,,,,,,,,,,,,,,,,,,,,,,,,,,,,,,,,,,,,
,,,,32144,001,2025-10-22_03h18.23.919,HW_LDT_1,2024.2.4,MacIntel,47.61904762,,,,,,,,,,,,,,,,,,,,45.568,45.767,45.767,46.267,46.268,47.148,,0,[-0.36185133239831696],[-0.31626928471248245],[1],[0],[0],[0.8780000000000001],"[""button_left""]",0.878,1,47.149,47.65,0,8,8,15,1,1016,NW,UN,16,mushed,WHAISE,z,,,,,,,,,,,,,,,,,,,,,,,,,,,,,,,,,,,,,,,,,,,,,,,,,,,,,,,,,,,,
,,,,32144,001,2025-10-22_03h18.23.919,HW_LDT_1,2024.2.4,MacIntel,47.61904762,,,,,,,,,,,,,,,,,,,,47.651,47.85,47.85,48.35,48.351,49.163,,0,[0.41374474053295934],[-0.2966339410939691],[1],[0],[0],[0.8099999999999952],"[""button_right""]",0.81,1,49.163,49.666,0,9,9,6,1,1007,WORD,UN,16,tropic,ZOMBIE,m,,,,,,,,,,,,,,,,,,,,,,,,,,,,,,,,,,,,,,,,,,,,,,,,,,,,,,,,,,,,
,,,,32144,001,2025-10-22_03h18.23.919,HW_LDT_1,2024.2.4,MacIntel,47.61904762,,,,,,,,,,,,,,,,,,,,49.668,49.867,49.867,50.366,50.369,51.083,,0,[0.42917251051893407],[-0.2980364656381487],[1],[0],[0],[0.7109999999999985],"[""button_right""]",0.711,1,51.084,51.583,0,10,10,7,1,1008,WORD,UN,16,hurdle,VOLUME,m,,,,,,,,,,,,,,,,,,,,,,,,,,,,,,,,,,,,,,,,,,,,,,,,,,,,,,,,,,,,
,,,,32144,001,2025-10-22_03h18.23.919,HW_LDT_1,2024.2.4,MacIntel,47.61904762,,,,,,,,,,,,,,,,,,,,51.584,51.783,51.783,52.284,52.285,53.196,,0,[-0.3534361851332398],[-0.31486676016830295],[1],[0],[0],[0.9089999999999989],"[""button_left""]",0.909,1,53.196,53.7,0,11,11,8,1,1009,NW,"ID",33,aslert,ASLERT,z,,,,,,,,,,,,,,,,,,,,,,,,,,,,,,,,,,,,,,,,,,,,,,,,,,,,,,,,,,,,
,,,,32144,001,2025-10-22_03h18.23.919,HW_LDT_1,2024.2.4,MacIntel,47.61904762,,,,,,,,,,,,,,,,,,,,53.701,53.9,53.9,54.4,54.401,55.262,,0,[-0.3506311360448808],[-0.3190743338008415],[1],[0],[0],[0.8590000000000018],"[""button_left""]",0.859,1,55.262,55.766,0,12,12,9,1,1010,NW,"ID",33,fariny,FARINY,z,,,,,,,,,,,,,,,,,,,,,,,,,,,,,,,,,,,,,,,,,,,,,,,,,,,,,,,,,,,,
,,,,32144,001,2025-10-22_03h18.23.919,HW_LDT_1,2024.2.4,MacIntel,47.61904762,,,,,,,,,,,,,,,,,,,,55.768,55.966,55.966,56.466,56.467,57.345,,0,[-0.3492286115007013],[-0.3246844319775596],[1],[0],[0],[0.8770000000000024],"[""button_left""]",0.877,1,57.345,57.833,0,13,13,10,1,1011,NW,"ID",16,inlade,INLADE,z,,,,,,,,,,,,,,,,,,,,,,,,,,,,,,,,,,,,,,,,,,,,,,,,,,,,,,,,,,,,
,,,,32144,001,2025-10-22_03h18.23.919,HW_LDT_1,2024.2.4,MacIntel,47.61904762,,,,,,,,,,,,,,,,,,,,57.834,58.033,58.033,58.533,58.534,59.445,,0,[0.43899018232819076],[-0.2966339410939691],[1],[0],[0],[0.9089999999999918],"[""button_right""]",0.909,1,59.445,59.949,0,14,14,2,1,1003,WORD,"ID",16,almond,ALMOND,m,,,,,,,,,,,,,,,,,,,,,,,,,,,,,,,,,,,,,,,,,,,,,,,,,,,,,,,,,,,,
,,,,32144,001,2025-10-22_03h18.23.919,HW_LDT_1,2024.2.4,MacIntel,47.61904762,,,,,,,,,,,,,,,,,,,,59.951,60.149,60.15,60.649,60.65,61.811,,0,[-0.3548387096774194],[-0.3330995792426367],[1],[0],[0],[1.1589999999999918],"[""button_left""]",1.159,1,61.811,62.299,0,15,15,11,1,1012,NW,"ID",16,rashet,RASHET,z,,,,,,,,,,,,,,,,,,,,,,,,,,,,,,,,,,,,,,,,,,,,,,,,,,,,,,,,,,,,
,,,,32144,001,2025-10-22_03h18.23.919,HW_LDT_1,2024.2.4,MacIntel,47.61904762,,,,,,,,,,,,,,,1,end_of_practice,"You have completed the practice trials. During the experimental trials, you will not receive feedback. On some trials you will be asked to report whether the item you just saw was in cursive or print. 
Before you begin, please ensure that you are in a comfortable and quiet location and will not be disturbed for about 15 minutes, as we cannot use your data if you do not complete all the trials. 
 When you are ready to start the experimental trials, please press space or touch the button below.",,,,,,,,,,,,,,,,,,,,,,,,,,,,,,,,,,62.312,64.412,,-0.089761571,-0.390603086,1,0,0,instr_done_button_3,0,0,0,0,1,,,,,,,,,,,,,,,,,,,,,,,,,,,,,,,,,,,,,,,,,,,,,,
,,,,32144,001,2025-10-22_03h18.23.919,HW_LDT_1,2024.2.4,MacIntel,47.61904762,,,,,,,,,,,,,,,,,,,,64.434,64.616,64.616,65.115,,,,,,,,,,,,2.189,0,,,,,,,,,,,,,,m,,,,,,,,,,,,,,,1,0,65.117,67.312,,0,[-0.36746143057503505],[-0.3302945301542777],[1],[0],[0],[2.188999999999993],"[""button_left_main""]",67.313,69.316,69.316,69.322,[],[],[],[],[],[],[],,69.323,69.327,-0.367461431,-0.33029453,0,0,0,,0,0,0,93,1,3,word,CEREMONY,cursive,ceremony_c.png,,,
,,,,32144,001,2025-10-22_03h18.23.919,HW_LDT_1,2024.2.4,MacIntel,47.61904762,,,,,,,,,,,,,,,,,,,,69.328,69.515,69.515,70.032,,,,,,,,,,,,1.762,0,,,,,,,,,,,,,,m,,,,,,,,,,,,,,,2,0,70.032,71.796,,0,[-0.3506311360448808],[-0.32047685834502104],[1],[0],[0],[1.7620000000000005],"[""button_left_main""]",71.796,73.798,73.798,73.799,[],[],[],[],[],[],[],,73.799,73.799,-0.350631136,-0.320476858,0,0,0,,0,1,1,90,1,3,word,CAPITAL,cursive,capital_c.png,,,
,,,,32144,001,2025-10-22_03h18.23.919,HW_LDT_1,2024.2.4,MacIntel,47.61904762,,,,,,,,,,,,,,,,,,,,73.801,73.998,73.998,74.498,,,,,,,,,,,,1.111,1,,,,,,,,,,,,,,z,,,,,,,,,,,,,,,3,1,74.499,75.611,,0,[-0.3548387096774194],[-0.32187938288920054],[1],[0],[0],[1.1110000000000042],"[""button_left_main""]",75.612,77.615,77.615,80.211,[-0.36044880785413747],[-0.3134642356241234],[1],[0],[0],[2.594999999999999],"[""button_left_probe""]",,80.211,80.211,-0.360448808,-0.313464236,1,0,0,,0,2,2,17,1,3,RL,motide,cursive,motide_c.png,,,
,,,,32144,001,2025-10-22_03h18.23.919,HW_LDT_1,2024.2.4,MacIntel,47.61904762,,,,,,,,,,,,,,,,,,,,80.212,80.415,80.415,80.915,,,,,,,,,,,,1.376,1,,,,,,,,,,,,,,z,,,,,,,,,,,,,,,4,1,80.916,82.293,,0,[-0.36746143057503505],[-0.32187938288920054],[1],[0],[0],[1.3760000000000048],"[""button_left_main""]",82.293,84.281,84.281,85.76,[0.49228611500701264],[-0.28541374474053294],[1],[0],[0],[1.4779999999999944],"[""button_right_probe""]",,85.76,85.76,0.492286115,-0.285413745,1,0,0,,0,3,3,45,1,3,TL,dentisy,print,dentisy_p.png,,,
,,,,32144,001,2025-10-22_03h18.23.919,HW_LDT_1,2024.2.4,MacIntel,47.61904762,,,,,,,,,,,,,,,,,,,,85.761,85.948,85.949,86.448,,,,,,,,,,,,1.31,1,,,,,,,,,,,,,,z,,,,,,,,,,,,,,,5,0,86.448,87.761,,0,[-0.35624123422159887],[-0.30504908835904626],[1],[0],[0],[1.3100000000000023],"[""button_left_main""]",87.761,89.764,89.764,89.765,[],[],[],[],[],[],[],,89.765,89.765,-0.356241234,-0.305049088,0,0,0,,0,4,4,25,1,3,RL,retupar,print,retupar_p.png,,,
,,,,32144,001,2025-10-22_03h18.23.919,HW_LDT_1,2024.2.4,MacIntel,47.61904762,,,,,,,,,,,,,,,,,,,,89.766,89.964,89.964,90.464,,,,,,,,,,,,1.677,1,,,,,,,,,,,,,,m,,,,,,,,,,,,,,,6,0,90.464,92.142,,0,[0.49789621318373073],[-0.3022440392706872],[1],[0],[0],[1.6769999999999925],"[""button_right_main""]",92.142,94.131,94.131,94.131,[],[],[],[],[],[],[],,94.132,94.132,0.497896213,-0.302244039,0,0,0,,0,5,5,159,1,3,word,VETERAN,cursive,veteran_c.png,,,
,,,,32144,001,2025-10-22_03h18.23.919,HW_LDT_1,2024.2.4,MacIntel,47.61904762,,,,,,,,,,,,,,,,,,,,94.133,94.331,94.331,94.831,,,,,,,,,,,,1.661,1,,,,,,,,,,,,,,z,,,,,,,,,,,,,,,7,0,94.831,96.493,,0,[-0.3744740532959327],[-0.3232819074333801],[1],[0],[0],[1.6610000000000014],"[""button_left_main""]",96.493,98.497,98.497,98.498,[],[],[],[],[],[],[],,98.498,98.498,-0.374474053,-0.323281907,0,0,0,,0,6,6,38,1,3,TL,carnidal,print,carnidal_p.png,,,
,,,,32144,001,2025-10-22_03h18.23.919,HW_LDT_1,2024.2.4,MacIntel,47.61904762,,,,,,,,,,,,,,,,,,,,98.499,98.697,98.697,99.197,,,,,,,,,,,,1.144,1,,,,,,,,,,,,,,m,,,,,,,,,,,,,,,8,0,99.197,100.342,,0,[0.4670406732117812],[-0.28541374474053294],[1],[0],[0],[1.1440000000000055],"[""button_right_main""]",100.342,102.347,102.347,102.348,[],[],[],[],[],[],[],,102.348,102.348,0.467040673,-0.285413745,0,0,0,,0,7,7,134,1,3,word,QUALIFY,print,qualify_p.png,,,
,,,,32144,001,2025-10-22_03h18.23.919,HW_LDT_1,2024.2.4,MacIntel,47.61904762,,,,,,,,,,,,,,,,,,,,102.349,102.547,102.547,103.047,,,,,,,,,,,,0.795,1,,,,,,,,,,,,,,m,,,,,,,,,,,,,,,9,0,103.047,103.843,,0,[0.453015427769986],[-0.2812061711079944],[1],[0],[0],[0.7950000000000017],"[""button_right_main""]",103.843,105.846,105.847,105.847,[],[],[],[],[],[],[],,105.847,105.847,0.453015428,-0.281206171,0,0,0,,0,8,8,130,1,3,word,POLICY,print,policy_p.png,,,
,,,,32144,001,2025-10-22_03h18.23.919,HW_LDT_1,2024.2.4,MacIntel,47.61904762,,,,,,,,,,,,,,,,,,,,105.849,106.047,106.047,106.547,,,,,,,,,,,,1.11,1,,,,,,,,,,,,,,m,,,,,,,,,,,,,,,10,0,106.547,107.658,,0,[0.45161290322580644],[-0.2826086956521739],[1],[0],[0],[1.1099999999999994],"[""button_right_main""]",107.658,109.646,109.646,109.647,[],[],[],[],[],[],[],,109.647,109.647,0.451612903,-0.282608696,0,0,0,,0,9,9,83,1,3,word,ANIMAL,cursive,animal_c.png,,,
,,,,32144,001,2025-10-22_03h18.23.919,HW_LDT_1,2024.2.4,MacIntel,47.61904762,,,,,,,,,,,,,,,,,,,,109.648,109.846,109.846,110.346,,,,,,,,,,,,2.078,1,,,,,,,,,,,,,,z,,,,,,,,,,,,,,,11,0,110.347,112.426,,0,[-0.3492286115007013],[-0.3246844319775596],[1],[0],[0],[2.078000000000003],"[""button_left_main""]",112.426,114.43,114.43,114.431,[],[],[],[],[],[],[],,114.431,114.431,-0.349228612,-0.324684432,0,0,0,,0,10,10,33,1,3,TL,adsivory,print,adsivory_p.png,,,
,,,,32144,001,2025-10-22_03h18.23.919,HW_LDT_1,2024.2.4,MacIntel,47.61904762,,,,,,,,,,,,,,,,,,,,114.433,114.63,114.63,115.129,,,,,,,,,,,,1.027,1,,,,,,,,,,,,,,z,,,,,,,,,,,,,,,12,0,115.13,116.158,,0,[-0.3394109396914446],[-0.31626928471248245],[1],[0],[0],[1.027000000000001],"[""button_left_main""]",116.159,118.162,118.162,118.163,[],[],[],[],[],[],[],,118.163,118.163,-0.33941094,-0.316269285,0,0,0,,0,11,11,30,1,3,RL,strapely,print,strapely_p.png,,,
,,,,32144,001,2025-10-22_03h18.23.919,HW_LDT_1,2024.2.4,MacIntel,47.61904762,,,,,,,,,,,,,,,,,,,,118.164,118.363,118.363,118.862,,,,,,,,,,,,0.76,1,,,,,,,,,,,,,,m,,,,,,,,,,,,,,,13,0,118.863,119.625,,0,[0.4431977559607293],[-0.2938288920056101],[1],[0],[0],[0.7599999999999909],"[""button_right_main""]",119.625,121.629,121.629,121.63,[],[],[],[],[],[],[],,121.63,121.63,0.443197756,-0.293828892,0,0,0,,0,12,12,89,1,3,word,CAPACITY,cursive,capacity_c.png,,,
,,,,32144,001,2025-10-22_03h18.23.919,HW_LDT_1,2024.2.4,MacIntel,47.61904762,,,,,,,,,,,,,,,,,,,,121.632,121.829,121.829,122.329,,,,,,,,,,,,1.511,1,,,,,,,,,,,,,,z,,,,,,,,,,,,,,,14,0,122.33,123.841,,0,[-0.3520336605890603],[-0.32047685834502104],[1],[0],[0],[1.51100000000001],"[""button_left_main""]",123.842,125.846,125.846,125.846,[],[],[],[],[],[],[],,125.846,125.846,-0.352033661,-0.320476858,0,0,0,,0,13,13,37,1,3,TL,cacapity,cursive,cacapity_c.png,,,
,,,,32144,001,2025-10-22_03h18.23.919,HW_LDT_1,2024.2.4,MacIntel,47.61904762,,,,,,,,,,,,,,,,,,,,125.848,126.045,126.045,126.545,,,,,,,,,,,,0.99,1,,,,,,,,,,,,,,z,,,,,,,,,,,,,,,15,0,126.546,127.536,,0,[-0.34221598877980364],[-0.31486676016830295],[1],[0],[0],[0.9899999999999807],"[""button_left_main""]",127.536,129.528,129.528,129.529,[],[],[],[],[],[],[],,129.529,129.529,-0.342215989,-0.31486676,0,0,0,,0,14,14,21,1,3,RL,potugar,print,potugar_p.png,,,
,,,,32144,001,2025-10-22_03h18.23.919,HW_LDT_1,2024.2.4,MacIntel,47.61904762,,,,,,,,,,,,,,,,,,,,129.531,129.728,129.728,130.228,,,,,,,,,,,,0.84,1,,,,,,,,,,,,,,m,,,,,,,,,,,,,,,16,1,130.229,131.069,,0,[0.4474053295932679],[-0.2826086956521739],[1],[0],[0],[0.8400000000000034],"[""button_right_main""]",131.069,133.061,133.062,134.24,[0.45161290322580644],[-0.27980364656381485],[1],[0],[0],[1.1779999999999973],"[""button_right_probe""]",,134.241,134.241,0.451612903,-0.279803647,1,0,0,,0,15,15,116,1,3,word,MARGINAL,print,marginal_p.png,,,
,,,,32144,001,2025-10-22_03h18.23.919,HW_LDT_1,2024.2.4,MacIntel,47.61904762,,,,,,,,,,,,,,,,,,,,134.242,134.428,134.428,134.945,,,,,,,,,,,,1.022,1,,,,,,,,,,,,,,z,,,,,,,,,,,,,,,17,0,134.946,135.969,,0,[-0.3225806451612903],[-0.3022440392706872],[1],[0],[0],[1.0220000000000198],"[""button_left_main""]",135.969,137.961,137.961,137.962,[],[],[],[],[],[],[],,137.962,137.962,-0.322580645,-0.302244039,0,0,0,,0,16,16,31,1,3,RL,trilude,print,trilude_p.png,,,
,,,,32144,001,2025-10-22_03h18.23.919,HW_LDT_1,2024.2.4,MacIntel,47.61904762,,,,,,,,,,,,,,,,,,,,137.964,138.162,138.162,138.661,,,,,,,,,,,,0.66,1,,,,,,,,,,,,,,m,,,,,,,,,,,,,,,18,0,138.662,139.323,,0,[0.453015427769986],[-0.2812061711079944],[1],[0],[0],[0.6599999999999966],"[""button_right_main""]",139.324,141.328,141.328,141.328,[],[],[],[],[],[],[],,141.329,141.329,0.453015428,-0.281206171,0,0,0,,0,17,17,96,1,3,word,CONSIDER,print,consider_p.png,,,
,,,,32144,001,2025-10-22_03h18.23.919,HW_LDT_1,2024.2.4,MacIntel,47.61904762,,,,,,,,,,,,,,,,,,,,141.33,141.528,141.528,142.028,,,,,,,,,,,,1.34,1,,,,,,,,,,,,,,m,,,,,,,,,,,,,,,19,1,142.028,143.369,,0,[0.4642356241234222],[-0.29102384291725103],[1],[0],[0],[1.3400000000000034],"[""button_right_main""]",143.369,145.361,145.361,146.351,[0.47685834502103785],[-0.28541374474053294],[1],[0],[0],[0.9900000000000091],"[""button_right_probe""]",,146.351,146.351,0.476858345,-0.285413745,1,0,0,,0,18,18,102,1,3,word,DENSITY,print,density_p.png,,,
,,,,32144,001,2025-10-22_03h18.23.919,HW_LDT_1,2024.2.4,MacIntel,47.61904762,,,,,,,,,,,,,,,,,,,,146.352,146.544,146.544,147.044,,,,,,,,,,,,1.057,0,,,,,,,,,,,,,,m,,,,,,,,,,,,,,,20,0,147.044,148.102,,0,[-0.33660589060308554],[-0.3345021037868163],[1],[0],[0],[1.056999999999988],"[""button_left_main""]",148.102,150.094,150.094,150.094,[],[],[],[],[],[],[],,150.094,150.094,-0.336605891,-0.334502104,0,0,0,,0,19,19,110,1,3,word,HERITAGE,cursive,heritage_c.png,,,
,,,,32144,001,2025-10-22_03h18.23.919,HW_LDT_1,2024.2.4,MacIntel,47.61904762,,,,,,,,,,,,,,,,,,,,150.096,150.294,150.294,150.794,,,,,,,,,,,,1.162,1,,,,,,,,,,,,,,z,,,,,,,,,,,,,,,21,0,150.794,151.957,,0,[-0.3211781206171108],[-0.317671809256662],[1],[0],[0],[1.1620000000000061],"[""button_left_main""]",151.957,153.96,153.96,153.96,[],[],[],[],[],[],[],,153.96,153.961,-0.321178121,-0.317671809,0,0,0,,0,20,20,57,1,3,TL,moredate,cursive,moredate_c.png,,,
,,,,32144,001,2025-10-22_03h18.23.919,HW_LDT_1,2024.2.4,MacIntel,47.61904762,,,,,,,,,,,,,,,,,,,,153.962,154.16,154.16,154.66,,,,,,,,,,,,1.327,1,,,,,,,,,,,,,,z,,,,,,,,,,,,,,,22,0,154.661,155.989,,0,[-0.31837307152875177],[-0.31626928471248245],[1],[0],[0],[1.3269999999999982],"[""button_left_main""]",155.99,157.993,157.994,157.994,[],[],[],[],[],[],[],,157.994,157.994,-0.318373072,-0.316269285,0,0,0,,0,21,21,5,1,3,RL,capefory,cursive,capefory_c.png,,,
,,,,32144,001,2025-10-22_03h18.23.919,HW_LDT_1,2024.2.4,MacIntel,47.61904762,,,,,,,,,,,,,,,,,,,,157.996,158.193,158.193,158.693,,,,,,,,,,,,0.728,1,,,,,,,,,,,,,,m,,,,,,,,,,,,,,,23,0,158.694,159.424,,0,[0.44039270687237025],[-0.27980364656381485],[1],[0],[0],[0.7279999999999802],"[""button_right_main""]",159.424,161.426,161.427,161.427,[],[],[],[],[],[],[],,161.427,161.427,0.440392707,-0.279803647,0,0,0,,0,22,22,142,1,3,word,REMOTE,print,remote_p.png,,,
,,,,32144,001,2025-10-22_03h18.23.919,HW_LDT_1,2024.2.4,MacIntel,47.61904762,,,,,,,,,,,,,,,,,,,,161.429,161.627,161.627,162.127,,,,,,,,,,,,0.743,0,,,,,,,,,,,,,,m,,,,,,,,,,,,,,,24,1,162.127,162.871,,0,[-0.2973352033660589],[-0.30925666199158486],[1],[0],[0],[0.742999999999995],"[""button_left_main""]",162.872,164.86,164.86,166.005,[-0.32398316970546986],[-0.30925666199158486],[1],[0],[0],[1.1440000000000055],"[""button_left_probe""]",,166.005,166.005,-0.32398317,-0.309256662,1,0,0,,0,23,23,149,1,3,word,SENATOR,cursive,senator_c.png,,,
,,,,32144,001,2025-10-22_03h18.23.919,HW_LDT_1,2024.2.4,MacIntel,47.61904762,,,,,,,,,,,,,,,,,,,,166.006,166.193,166.193,166.693,,,,,,,,,,,,0.709,1,,,,,,,,,,,,,,m,,,,,,,,,,,,,,,25,0,166.694,167.405,,0,[0.453015427769986],[-0.2755960729312763],[1],[0],[0],[0.7090000000000032],"[""button_right_main""]",167.405,169.393,169.393,169.394,[],[],[],[],[],[],[],,169.394,169.394,0.453015428,-0.275596073,0,0,0,,0,24,24,133,1,3,word,PROVIDE,print,provide_p.png,,,
,,,,32144,001,2025-10-22_03h18.23.919,HW_LDT_1,2024.2.4,MacIntel,47.61904762,,,,,,,,,,,,,,,,,,,,169.396,169.593,169.593,170.092,,,,,,,,,,,,1.311,1,,,,,,,,,,,,,,z,,,,,,,,,,,,,,,26,1,170.093,171.405,,0,[-0.31136044880785413],[-0.30504908835904626],[1],[0],[0],[1.311000000000007],"[""button_left_main""]",171.405,173.41,173.41,174.585,[-0.3141654978962132],[-0.2980364656381487],[1],[0],[0],[1.174999999999983],"[""button_left_probe""]",,174.585,174.585,-0.314165498,-0.298036466,1,0,0,,0,25,25,79,1,3,TL,veretan,cursive,veretan_c.png,,,
,,,,32144,001,2025-10-22_03h18.23.919,HW_LDT_1,2024.2.4,MacIntel,47.61904762,,,,,,,,,,,,,,,,,,,,174.586,174.776,174.776,175.276,,,,,,,,,,,,1.009,1,,,,,,,,,,,,,,m,,,,,,,,,,,,,,,27,0,175.276,176.288,,0,[0.4642356241234222],[-0.27840112201963535],[1],[0],[0],[1.0089999999999861],"[""button_right_main""]",176.288,178.292,178.292,178.293,[],[],[],[],[],[],[],,178.293,178.293,0.464235624,-0.278401122,0,0,0,,0,26,26,157,1,3,word,VALIDITY,cursive,validity_c.png,,,
,,,,32144,001,2025-10-22_03h18.23.919,HW_LDT_1,2024.2.4,MacIntel,47.61904762,,,,,,,,,,,,,,,,,,,,178.295,178.492,178.492,178.992,,,,,,,,,,,,0.893,1,,,,,,,,,,,,,,z,,,,,,,,,,,,,,,28,0,178.993,179.887,,0,[-0.302945301542777],[-0.3078541374474053],[1],[0],[0],[0.8930000000000007],"[""button_left_main""]",179.888,181.892,181.892,181.893,[],[],[],[],[],[],[],,181.893,181.893,-0.302945302,-0.307854137,0,0,0,,0,27,27,32,1,3,TL,adacemy,print,adacemy_p.png,,,
,,,,32144,001,2025-10-22_03h18.23.919,HW_LDT_1,2024.2.4,MacIntel,47.61904762,,,,,,,,,,,,,,,,,,,,181.895,182.092,182.092,182.592,,,,,,,,,,,,0.943,1,,,,,,,,,,,,,,z,,,,,,,,,,,,,,,29,0,182.592,183.538,,0,[-0.29453015427769985],[-0.31065918653576435],[1],[0],[0],[0.9429999999999836],"[""button_left_main""]",183.538,185.542,185.542,185.543,[],[],[],[],[],[],[],,185.543,185.543,-0.294530154,-0.310659187,0,0,0,,0,28,28,50,1,3,TL,lirebal,print,lirebal_p.png,,,
,,,,32144,001,2025-10-22_03h18.23.919,HW_LDT_1,2024.2.4,MacIntel,47.61904762,,,,,,,,,,,,,,,,,,,,185.545,185.741,185.742,186.242,,,,,,,,,,,,0.928,1,,,,,,,,,,,,,,z,,,,,,,,,,,,,,,30,0,186.242,187.171,,0,[-0.3015427769985975],[-0.30364656381486677],[1],[0],[0],[0.9279999999999973],"[""button_left_main""]",187.171,189.175,189.175,189.175,[],[],[],[],[],[],[],,189.175,189.175,-0.301542777,-0.303646564,0,0,0,,0,29,29,39,1,3,TL,clicinal,print,clicinal_p.png,,,
,,,,32144,001,2025-10-22_03h18.23.919,HW_LDT_1,2024.2.4,MacIntel,47.61904762,,,,,,,,,,,,,,,,,,,,189.177,189.375,189.375,189.875,,,,,,,,,,,,1.061,0,,,,,,,,,,,,,,z,,,,,,,,,,,,,,,31,0,189.875,190.938,,0,[0.4684431977559607],[-0.2812061711079944],[1],[0],[0],[1.061000000000007],"[""button_right_main""]",190.938,192.941,192.941,192.941,[],[],[],[],[],[],[],,192.942,192.942,0.468443198,-0.281206171,0,0,0,,0,30,30,41,1,3,TL,crinimal,print,crinimal_p.png,,,
,,,,32144,001,2025-10-22_03h18.23.919,HW_LDT_1,2024.2.4,MacIntel,47.61904762,,,,,,,,,,,,,,,,,,,,192.943,193.141,193.141,193.641,,,,,,,,,,,,1.094,1,,,,,,,,,,,,,,m,,,,,,,,,,,,,,,32,0,193.641,194.736,,0,[0.4726507713884993],[-0.2755960729312763],[1],[0],[0],[1.093999999999994],"[""button_right_main""]",194.737,196.724,196.724,196.725,[],[],[],[],[],[],[],,196.725,196.725,0.472650771,-0.275596073,0,0,0,,0,31,31,125,1,3,word,OPERATOR,print,operator_p.png,,,
,,,,32144,001,2025-10-22_03h18.23.919,HW_LDT_1,2024.2.4,MacIntel,47.61904762,,,,,,,,,,,,,,,,,,,,196.726,196.924,196.924,197.424,,,,,,,,,,,,1.411,1,,,,,,,,,,,,,,z,,,,,,,,,,,,,,,33,0,197.425,198.837,,0,[-0.2959326788218794],[-0.2952314165497896],[1],[0],[0],[1.4110000000000014],"[""button_left_main""]",198.837,200.841,200.841,200.841,[],[],[],[],[],[],[],,200.841,200.841,-0.295932679,-0.295231417,0,0,0,,0,32,32,76,1,3,TL,stogare,cursive,stogare_c.png,,,
,,,,32144,001,2025-10-22_03h18.23.919,HW_LDT_1,2024.2.4,MacIntel,47.61904762,,,,,,,,,,,,,,,,,,,,200.843,201.041,201.041,201.541,,,,,,,,,,,,1.027,1,,,,,,,,,,,,,,z,,,,,,,,,,,,,,,34,1,201.542,202.57,,0,[-0.30575035063113604],[-0.3064516129032258],[1],[0],[0],[1.0270000000000152],"[""button_left_main""]",202.571,204.574,204.574,205.569,[-0.30575035063113604],[-0.30925666199158486],[1],[0],[0],[0.9950000000000045],"[""button_left_probe""]",,205.569,205.57,-0.305750351,-0.309256662,1,0,0,,0,33,33,29,1,3,RL,selamor,cursive,selamor_c.png,,,
,,,,32144,001,2025-10-22_03h18.23.919,HW_LDT_1,2024.2.4,MacIntel,47.61904762,,,,,,,,,,,,,,,,,,,,205.571,205.774,205.774,206.274,,,,,,,,,,,,0.89,1,,,,,,,,,,,,,,m,,,,,,,,,,,,,,,35,1,206.274,207.166,,0,[0.4796633941093969],[-0.27980364656381485],[1],[0],[0],[0.8900000000000148],"[""button_right_main""]",207.166,209.157,209.157,210.42,[-0.2959326788218794],[-0.3022440392706872],[1],[0],[0],[1.2620000000000005],"[""button_left_probe""]",,210.42,210.42,-0.295932679,-0.302244039,1,0,0,,0,34,34,100,1,3,word,DECADE,cursive,decade_c.png,,,
,,,,32144,001,2025-10-22_03h18.23.919,HW_LDT_1,2024.2.4,MacIntel,47.61904762,,,,,,,,,,,,,,,,,,,,210.421,210.623,210.623,211.124,,,,,,,,,,,,0.761,1,,,,,,,,,,,,,,m,,,,,,,,,,,,,,,36,0,211.124,211.886,,0,[0.48807854137447404],[-0.27840112201963535],[1],[0],[0],[0.7609999999999957],"[""button_right_main""]",211.886,213.89,213.89,213.89,[],[],[],[],[],[],[],,213.89,213.891,0.488078541,-0.278401122,0,0,0,,0,35,35,91,1,3,word,CARDINAL,print,cardinal_p.png,,,
,,,,32144,001,2025-10-22_03h18.23.919,HW_LDT_1,2024.2.4,MacIntel,47.61904762,,,,,,,,,,,,,,,,,,,,213.892,214.09,214.09,214.59,,,,,,,,,,,,0.994,1,,,,,,,,,,,,,,z,,,,,,,,,,,,,,,37,0,214.591,215.586,,0,[-0.34081346423562414],[-0.30925666199158486],[1],[0],[0],[0.9939999999999998],"[""button_left_main""]",215.586,217.59,217.59,217.59,[],[],[],[],[],[],[],,217.59,217.59,-0.340813464,-0.309256662,0,0,0,,0,36,36,44,1,3,TL,decilate,print,decilate_p.png,,,
,,,,32144,001,2025-10-22_03h18.23.919,HW_LDT_1,2024.2.4,MacIntel,47.61904762,,,,,,,,,,,,,,,,,,,,217.591,217.79,217.79,218.29,,,,,,,,,,,,1.094,0,,,,,,,,,,,,,,z,,,,,,,,,,,,,,,38,0,218.29,219.385,,0,[0.48667601683029454],[-0.28541374474053294],[1],[0],[0],[1.093999999999994],"[""button_right_main""]",219.385,221.39,221.39,221.39,[],[],[],[],[],[],[],,221.39,221.391,0.486676017,-0.285413745,0,0,0,,0,37,37,55,1,3,TL,mecidine,print,mecidine_p.png,,,
,,,,32144,001,2025-10-22_03h18.23.919,HW_LDT_1,2024.2.4,MacIntel,47.61904762,,,,,,,,,,,,,,,,,,,,221.393,221.59,221.59,222.089,,,,,,,,,,,,4.561,0,,,,,,,,,,,,,,z,,,,,,,,,,,,,,,39,0,222.09,226.651,,0,[0.4950911640953717],[-0.28962131837307153],[1],[0],[0],[4.561000000000007],"[""button_right_main""]",226.651,228.639,228.639,228.639,[],[],[],[],[],[],[],,228.639,228.639,0.495091164,-0.289621318,0,0,0,,0,38,38,16,1,3,RL,mishafe,cursive,mishafe_c.png,,,
,,,,32144,001,2025-10-22_03h18.23.919,HW_LDT_1,2024.2.4,MacIntel,47.61904762,,,,,,,,,,,,,,,,,,,,228.641,228.839,228.839,229.339,,,,,,,,,,,,1.045,1,,,,,,,,,,,,,,m,,,,,,,,,,,,,,,40,0,229.339,230.385,,0,[0.5077138849929874],[-0.2713884992987377],[1],[0],[0],[1.045000000000016],"[""button_right_main""]",230.385,232.389,232.389,232.39,[],[],[],[],[],[],[],,232.39,232.39,0.507713885,-0.271388499,0,0,0,,0,39,39,129,1,3,word,PARENT,print,parent_p.png,,,
,,,,32144,001,2025-10-22_03h18.23.919,HW_LDT_1,2024.2.4,MacIntel,47.61904762,,,,,,,,,,,,,,,,,,,,232.392,232.589,232.589,233.088,,,,,,,,,,,,2.044,1,,,,,,,,,,,,,,m,,,,,,,,,,,,,,,41,0,233.089,235.135,,0,[0.520336605890603],[-0.2391304347826087],[1],[0],[0],[2.044000000000011],"[""button_right_main""]",235.135,237.138,237.138,237.139,[],[],[],[],[],[],[],,237.139,237.139,0.520336606,-0.239130435,0,0,0,,0,40,40,81,1,3,word,ADVISORY,print,advisory_p.png,,,
,,,,32144,001,2025-10-22_03h18.23.919,HW_LDT_1,2024.2.4,MacIntel,47.61904762,,,,,,,,,,,,,,,,,,,,237.14,237.338,237.338,237.838,,,,,,,,,,,,0.929,1,,,,,,,,,,,,,,m,,,,,,,,,,,,,,,42,0,237.839,238.768,,0,[0.5133239831697055],[-0.2391304347826087],[1],[0],[0],[0.9289999999999736],"[""button_right_main""]",238.768,240.772,240.772,240.773,[],[],[],[],[],[],[],,240.773,240.773,0.513323983,-0.239130435,0,0,0,,0,41,41,152,1,3,word,SPECIMEN,print,specimen_p.png,,,
,,,,32144,001,2025-10-22_03h18.23.919,HW_LDT_1,2024.2.4,MacIntel,47.61904762,,,,,,,,,,,,,,,,,,,,240.775,240.971,240.972,241.472,,,,,,,,,,,,0.907,1,,,,,,,,,,,,,,m,,,,,,,,,,,,,,,43,0,241.472,242.38,,0,[0.5105189340813464],[-0.24193548387096775],[1],[0],[0],[0.9070000000000107],"[""button_right_main""]",242.38,244.371,244.372,244.372,[],[],[],[],[],[],[],,244.372,244.372,0.510518934,-0.241935484,0,0,0,,0,42,42,158,1,3,word,VELOCITY,cursive,velocity_c.png,,,
,,,,32144,001,2025-10-22_03h18.23.919,HW_LDT_1,2024.2.4,MacIntel,47.61904762,,,,,,,,,,,,,,,,,,,,244.374,244.571,244.571,245.071,,,,,,,,,,,,1.444,1,,,,,,,,,,,,,,z,,,,,,,,,,,,,,,44,0,245.072,246.518,,0,[-0.3576437587657784],[-0.3078541374474053],[1],[0],[0],[1.4440000000000168],"[""button_left_main""]",246.518,248.521,248.521,248.521,[],[],[],[],[],[],[],,248.521,248.521,-0.357643759,-0.307854137,0,0,0,,0,43,43,12,1,3,RL,formuke,cursive,formuke_c.png,,,
,,,,32144,001,2025-10-22_03h18.23.919,HW_LDT_1,2024.2.4,MacIntel,47.61904762,,,,,,,,,,,,,,,,,,,,248.523,248.721,248.721,249.221,,,,,,,,,,,,1.194,1,,,,,,,,,,,,,,z,,,,,,,,,,,,,,,45,0,249.221,250.417,,0,[-0.36185133239831696],[-0.3232819074333801],[1],[0],[0],[1.1940000000000168],"[""button_left_main""]",250.417,252.421,252.421,252.421,[],[],[],[],[],[],[],,252.421,252.421,-0.361851332,-0.323281907,0,0,0,,0,44,44,78,1,3,TL,vecolity,cursive,vecolity_c.png,,,
,,,,32144,001,2025-10-22_03h18.23.919,HW_LDT_1,2024.2.4,MacIntel,47.61904762,,,,,,,,,,,,,,,,,,,,252.422,252.621,252.621,253.121,,,,,,,,,,,,0.727,1,,,,,,,,,,,,,,m,,,,,,,,,,,,,,,46,0,253.121,253.849,,0,[0.5133239831697055],[-0.24754558204768584],[1],[0],[0],[0.7269999999999754],"[""button_right_main""]",253.849,255.837,255.837,255.837,[],[],[],[],[],[],[],,255.837,255.838,0.513323983,-0.247545582,0,0,0,,0,45,45,146,1,3,word,RETIRE,print,retire_p.png,,,
,,,,32144,001,2025-10-22_03h18.23.919,HW_LDT_1,2024.2.4,MacIntel,47.61904762,,,,,,,,,,,,,,,,,,,,255.839,256.037,256.037,256.537,,,,,,,,,,,,0.592,1,,,,,,,,,,,,,,m,,,,,,,,,,,,,,,47,1,256.537,257.13,,0,[0.5189340813464236],[-0.24754558204768584],[1],[0],[0],[0.5919999999999845],"[""button_right_main""]",257.13,259.121,259.121,261.15,[0.5077138849929874],[-0.2573632538569425],[1],[0],[0],[2.027999999999963],"[""button_right_probe""]",,261.15,261.15,0.507713885,-0.257363254,1,0,0,,0,46,46,118,1,3,word,MEDICINE,print,medicine_p.png,,,
,,,,32144,001,2025-10-22_03h18.23.919,HW_LDT_1,2024.2.4,MacIntel,47.61904762,,,,,,,,,,,,,,,,,,,,261.151,261.354,261.354,261.854,,,,,,,,,,,,1.227,1,,,,,,,,,,,,,,z,,,,,,,,,,,,,,,48,1,261.854,263.082,,0,[-0.3744740532959327],[-0.31486676016830295],[1],[0],[0],[1.2269999999999754],"[""button_left_main""]",263.082,265.07,265.07,267.499,[0.511921458625526],[-0.2615708274894811],[1],[0],[0],[2.4290000000000305],"[""button_right_probe""]",,267.499,267.499,0.511921459,-0.261570827,1,0,0,,0,47,47,24,1,3,RL,quafidy,print,quafidy_p.png,,,
,,,,32144,001,2025-10-22_03h18.23.919,HW_LDT_1,2024.2.4,MacIntel,47.61904762,,,,,,,,,,,,,,,,,,,,267.5,267.687,267.687,268.203,,,,,,,,,,,,1.357,1,,,,,,,,,,,,,,z,,,,,,,,,,,,,,,49,0,268.209,269.566,,0,[-0.34642356241234223],[-0.2966339410939691],[1],[0],[0],[1.3570000000000277],"[""button_left_main""]",269.566,271.57,271.57,271.57,[],[],[],[],[],[],[],,271.57,271.57,-0.346423562,-0.296633941,0,0,0,,0,48,48,62,1,3,TL,prodive,print,prodive_p.png,,,
,,,,32144,001,2025-10-22_03h18.23.919,HW_LDT_1,2024.2.4,MacIntel,47.61904762,,,,,,,,,,,,,,,,,,,,271.572,271.77,271.77,272.27,,,,,,,,,,,,1.144,1,,,,,,,,,,,,,,m,,,,,,,,,,,,,,,50,1,272.27,273.415,,0,[0.5091164095371669],[-0.2517531556802244],[1],[0],[0],[1.1440000000000055],"[""button_right_main""]",273.415,275.419,275.419,276.599,[-0.34081346423562414],[-0.2924263674614306],[1],[0],[0],[1.1779999999999973],"[""button_left_probe""]",,276.599,276.599,-0.340813464,-0.292426367,1,0,0,,0,49,49,144,1,3,word,RESIDENT,cursive,resident_c.png,,,
,,,,32144,001,2025-10-22_03h18.23.919,HW_LDT_1,2024.2.4,MacIntel,47.61904762,,,,,,,,,,,,,,,,,,,,276.6,276.803,276.803,277.302,,,,,,,,,,,,1.394,0,,,,,,,,,,,,,,m,,,,,,,,,,,,,,,51,0,277.303,278.698,,0,[-0.3576437587657784],[-0.317671809256662],[1],[0],[0],[1.3940000000000055],"[""button_left_main""]",278.698,280.703,280.703,280.703,[],[],[],[],[],[],[],,280.703,280.704,-0.357643759,-0.317671809,0,0,0,,0,50,50,111,1,3,word,INDICATE,print,indicate_p.png,,,
,,,,32144,001,2025-10-22_03h18.23.919,HW_LDT_1,2024.2.4,MacIntel,47.61904762,,,,,,,,,,,,,,,,,,,,280.705,280.903,280.903,281.402,,,,,,,,,,,,1.196,1,,,,,,,,,,,,,,m,,,,,,,,,,,,,,,52,0,281.403,282.6,,0,[0.5049088359046283],[-0.2573632538569425],[1],[0],[0],[1.1960000000000264],"[""button_right_main""]",282.6,284.602,284.602,284.603,[],[],[],[],[],[],[],,284.603,284.603,0.504908836,-0.257363254,0,0,0,,0,51,51,104,1,3,word,DOMINANT,print,dominant_p.png,,,
,,,,32144,001,2025-10-22_03h18.23.919,HW_LDT_1,2024.2.4,MacIntel,47.61904762,,,,,,,,,,,,,,,,,,,,284.605,284.802,284.802,285.302,,,,,,,,,,,,1.129,0,,,,,,,,,,,,,,m,,,,,,,,,,,,,,,53,0,285.303,286.432,,0,[-0.3436185133239832],[-0.30925666199158486],[1],[0],[0],[1.129000000000019],"[""button_left_main""]",286.432,288.436,288.436,288.436,[],[],[],[],[],[],[],,288.436,288.436,-0.343618513,-0.309256662,0,0,0,,0,52,52,123,1,3,word,MODERATE,cursive,moderate_c.png,,,
,,,,32144,001,2025-10-22_03h18.23.919,HW_LDT_1,2024.2.4,MacIntel,47.61904762,,,,,,,,,,,,,,,,,,,,288.437,288.635,288.635,289.135,,,,,,,,,,,,1.146,1,,,,,,,,,,,,,,z,,,,,,,,,,,,,,,54,0,289.136,290.282,,0,[-0.4277699859747546],[-0.32608695652173914],[1],[0],[0],[1.146000000000015],"[""button_left_main""]",290.282,292.285,292.285,292.285,[],[],[],[],[],[],[],,292.285,292.286,-0.427769986,-0.326086957,0,0,0,,0,53,53,63,1,3,TL,racidal,cursive,racidal_c.png,,,
,,,,32144,001,2025-10-22_03h18.23.919,HW_LDT_1,2024.2.4,MacIntel,47.61904762,,,,,,,,,,,,,,,,,,,,292.287,292.485,292.485,292.985,,,,,,,,,,,,0.76,1,,,,,,,,,,,,,,m,,,,,,,,,,,,,,,55,1,292.986,293.747,,0,[0.47685834502103785],[-0.2924263674614306],[1],[0],[0],[0.7599999999999909],"[""button_right_main""]",293.747,295.735,295.735,297.364,[0.48106591865357645],[-0.28541374474053294],[1],[0],[0],[1.629000000000019],"[""button_right_probe""]",,297.364,297.364,0.481065919,-0.285413745,1,0,0,,0,54,54,106,1,3,word,ELABORATE,print,elaborate_p.png,,,
,,,,32144,001,2025-10-22_03h18.23.919,HW_LDT_1,2024.2.4,MacIntel,47.61904762,,,,,,,,,,,,,,,,,,,,297.365,297.568,297.568,298.068,,,,,,,,,,,,1.28,1,,,,,,,,,,,,,,m,,,,,,,,,,,,,,,56,0,298.068,299.349,,0,[0.48106591865357645],[-0.2812061711079944],[1],[0],[0],[1.2800000000000296],"[""button_right_main""]",299.349,301.351,301.351,301.351,[],[],[],[],[],[],[],,301.351,301.352,0.481065919,-0.281206171,0,0,0,,0,55,55,124,1,3,word,NUMERICAL,print,numerical_p.png,,,
,,,,32144,001,2025-10-22_03h18.23.919,HW_LDT_1,2024.2.4,MacIntel,47.61904762,,,,,,,,,,,,,,,,,,,,301.353,301.551,301.551,302.051,,,,,,,,,,,,1.011,1,,,,,,,,,,,,,,m,,,,,,,,,,,,,,,57,0,302.052,303.064,,0,[0.4796633941093969],[-0.2769985974754558],[1],[0],[0],[1.011000000000024],"[""button_right_main""]",303.064,305.068,305.068,305.069,[],[],[],[],[],[],[],,305.069,305.069,0.479663394,-0.276998597,0,0,0,,0,56,56,138,1,3,word,REFUSAL,print,refusal_p.png,,,
,,,,32144,001,2025-10-22_03h18.23.919,HW_LDT_1,2024.2.4,MacIntel,47.61904762,,,,,,,,,,,,,,,,,,,,305.07,305.267,305.268,305.767,,,,,,,,,,,,0.811,1,,,,,,,,,,,,,,z,,,,,,,,,,,,,,,58,0,305.768,306.58,,0,[-0.4221598877980365],[-0.32047685834502104],[1],[0],[0],[0.8109999999999786],"[""button_left_main""]",306.58,308.584,308.584,308.584,[],[],[],[],[],[],[],,308.585,308.585,-0.422159888,-0.320476858,0,0,0,,0,57,57,13,1,3,RL,helicage,cursive,helicage_c.png,,,
,,,,32144,001,2025-10-22_03h18.23.919,HW_LDT_1,2024.2.4,MacIntel,47.61904762,,,,,,,,,,,,,,,,,,,,308.586,308.784,308.784,309.284,,,,,,,,,,,,1.011,1,,,,,,,,,,,,,,m,,,,,,,,,,,,,,,59,0,309.285,310.296,,0,[0.49228611500701264],[-0.2657784011220196],[1],[0],[0],[1.0109999999999673],"[""button_right_main""]",310.296,312.284,312.284,312.284,[],[],[],[],[],[],[],,312.284,312.284,0.492286115,-0.265778401,0,0,0,,0,58,58,135,1,3,word,QUALITY,print,quality_p.png,,,
,,,,32144,001,2025-10-22_03h18.23.919,HW_LDT_1,2024.2.4,MacIntel,47.61904762,,,,,,,,,,,,,,,,,,,,312.286,312.484,312.484,312.984,,,,,,,,,,,,0.86,1,,,,,,,,,,,,,,z,,,,,,,,,,,,,,,60,0,312.984,313.846,,0,[-0.42496493688639553],[-0.28541374474053294],[1],[0],[0],[0.8599999999999568],"[""button_left_main""]",313.846,315.85,315.85,315.85,[],[],[],[],[],[],[],,315.85,315.851,-0.424964937,-0.285413745,0,0,0,,0,59,59,22,1,3,RL,procogal,print,procogal_p.png,,,
,,,,32144,001,2025-10-22_03h18.23.919,HW_LDT_1,2024.2.4,MacIntel,47.61904762,,,,,,,,,,,,,,,,,,,,315.852,316.05,316.05,316.55,,,,,,,,,,,,0.927,1,,,,,,,,,,,,,,z,,,,,,,,,,,,,,,61,0,316.551,317.48,,0,[-0.4123422159887798],[-0.32047685834502104],[1],[0],[0],[0.9270000000000778],"[""button_left_main""]",317.48,319.484,319.484,319.485,[],[],[],[],[],[],[],,319.485,319.485,-0.412342216,-0.320476858,0,0,0,,0,60,60,15,1,3,RL,mifikary,cursive,mifikary_c.png,,,
,,,,32144,001,2025-10-22_03h18.23.919,HW_LDT_1,2024.2.4,MacIntel,47.61904762,,,,,,,,,,,,,,,,,,,,319.488,319.684,319.684,320.183,,,,,,,,,,,,0.743,1,,,,,,,,,,,,,,m,,,,,,,,,,,,,,,62,0,320.184,320.929,,0,[0.4838709677419355],[-0.27840112201963535],[1],[0],[0],[0.742999999999995],"[""button_right_main""]",320.93,322.933,322.933,322.934,[],[],[],[],[],[],[],,322.934,322.934,0.483870968,-0.278401122,0,0,0,,0,61,61,103,1,3,word,DISPUTE,print,dispute_p.png,,,
,,,,32144,001,2025-10-22_03h18.23.919,HW_LDT_1,2024.2.4,MacIntel,47.61904762,,,,,,,,,,,,,,,,,,,,322.936,323.133,323.133,323.633,,,,,,,,,,,,0.81,0,,,,,,,,,,,,,,m,,,,,,,,,,,,,,,63,0,323.634,324.445,,0,[-0.41935483870967744],[-0.31626928471248245],[1],[0],[0],[0.8100000000000023],"[""button_left_main""]",324.445,326.433,326.433,326.433,[],[],[],[],[],[],[],,326.433,326.434,-0.419354839,-0.316269285,0,0,0,,0,62,62,122,1,3,word,MOBILE,cursive,mobile_c.png,,,
,,,,32144,001,2025-10-22_03h18.23.919,HW_LDT_1,2024.2.4,MacIntel,47.61904762,,,,,,,,,,,,,,,,,,,,326.435,326.633,326.633,327.133,,,,,,,,,,,,0.628,1,,,,,,,,,,,,,,z,,,,,,,,,,,,,,,64,1,327.133,327.762,,0,[-0.4123422159887798],[-0.31486676016830295],[1],[0],[0],[0.6279999999999859],"[""button_left_main""]",327.762,329.766,329.766,331.378,[-0.4179523141654979],[-0.3078541374474053],[1],[0],[0],[1.6120000000000232],"[""button_left_probe""]",,331.378,331.378,-0.417952314,-0.307854137,1,0,0,,0,63,63,19,1,3,RL,opcifal,cursive,opcifal_c.png,,,
,,,,32144,001,2025-10-22_03h18.23.919,HW_LDT_1,2024.2.4,MacIntel,47.61904762,,,,,,,,,,,,,,,,,,,,331.379,331.566,331.566,332.066,,,,,,,,,,,,2.145,1,,,,,,,,,,,,,,z,,,,,,,,,,,,,,,65,0,332.067,334.212,,0,[-0.4417952314165498],[-0.32047685834502104],[1],[0],[0],[2.1450000000000387],"[""button_left_main""]",334.212,336.2,336.2,336.2,[],[],[],[],[],[],[],,336.2,336.201,-0.441795231,-0.320476858,0,0,0,,0,64,64,70,1,3,TL,remuse,cursive,remuse_c.png,,,
,,,,32144,001,2025-10-22_03h18.23.919,HW_LDT_1,2024.2.4,MacIntel,47.61904762,,,,,,,,,,,,,,,,,,,,336.203,336.399,336.399,336.899,,,,,,,,,,,,0.794,1,,,,,,,,,,,,,,z,,,,,,,,,,,,,,,66,0,336.899,337.695,,0,[-0.43899018232819076],[-0.31626928471248245],[1],[0],[0],[0.7939999999999827],"[""button_left_main""]",337.695,339.683,339.683,339.683,[],[],[],[],[],[],[],,339.684,339.684,-0.438990182,-0.316269285,0,0,0,,0,65,65,4,1,3,RL,cafigal,cursive,cafigal_c.png,,,
,,,,32144,001,2025-10-22_03h18.23.919,HW_LDT_1,2024.2.4,MacIntel,47.61904762,,,,,,,,,,,,,,,,,,,,339.686,339.882,339.882,340.382,,,,,,,,,,,,0.99,1,,,,,,,,,,,,,,z,,,,,,,,,,,,,,,67,0,340.382,341.373,,0,[-0.43338008415147267],[-0.3288920056100982],[1],[0],[0],[0.9900000000000091],"[""button_left_main""]",341.373,343.365,343.365,343.366,[],[],[],[],[],[],[],,343.366,343.366,-0.433380084,-0.328892006,0,0,0,,0,66,66,8,1,3,RL,cocewage,print,cocewage_p.png,,,
,,,,32144,001,2025-10-22_03h18.23.919,HW_LDT_1,2024.2.4,MacIntel,47.61904762,,,,,,,,,,,,,,,,,,,,343.367,343.565,343.565,344.065,,,,,,,,,,,,0.761,1,,,,,,,,,,,,,,z,,,,,,,,,,,,,,,68,0,344.066,344.828,,0,[-0.46143057503506313],[-0.34572230014025246],[1],[0],[0],[0.7609999999999673],"[""button_left_main""]",344.828,346.832,346.832,346.832,[],[],[],[],[],[],[],,346.832,346.832,-0.461430575,-0.3457223,0,0,0,,0,67,67,23,1,3,RL,quakity,print,quakity_p.png,,,
,,,,32144,001,2025-10-22_03h18.23.919,HW_LDT_1,2024.2.4,MacIntel,47.61904762,,,,,,,,,,,,,,,,,,,,346.833,347.032,347.032,347.532,,,,,,,,,,,,0.896,0,,,,,,,,,,,,,,z,,,,,,,,,,,,,,,69,0,347.532,348.429,,0,[0.544179523141655],[-0.2657784011220196],[1],[0],[0],[0.896000000000015],"[""button_right_main""]",348.429,350.431,350.431,350.432,[],[],[],[],[],[],[],,350.432,350.432,0.544179523,-0.265778401,0,0,0,,0,68,68,35,1,3,TL,cateferia,print,cateferia_p.png,,,
,,,,32144,001,2025-10-22_03h18.23.919,HW_LDT_1,2024.2.4,MacIntel,47.61904762,,,,,,,,,,,,,,,,,,,,350.433,350.632,350.632,351.131,,,,,,,,,,,,1.462,1,,,,,,,,,,,,,,m,,,,,,,,,,,,,,,70,0,351.132,352.596,,0,[0.5399719495091164],[-0.2755960729312763],[1],[0],[0],[1.461999999999989],"[""button_right_main""]",352.596,354.598,354.598,354.599,[],[],[],[],[],[],[],,354.599,354.599,0.53997195,-0.275596073,0,0,0,,0,69,69,105,1,3,word,EDITOR,print,editor_p.png,,,
,,,,32144,001,2025-10-22_03h18.23.919,HW_LDT_1,2024.2.4,MacIntel,47.61904762,,,,,,,,,,,,,,,,,,,,354.601,354.798,354.798,355.298,,,,,,,,,,,,1.58,1,,,,,,,,,,,,,,z,,,,,,,,,,,,,,,71,0,355.298,356.88,,0,[-0.42917251051893407],[-0.3134642356241234],[1],[0],[0],[1.579999999999984],"[""button_left_main""]",356.88,358.881,358.881,358.882,[],[],[],[],[],[],[],,358.882,358.882,-0.429172511,-0.313464236,0,0,0,,0,70,70,34,1,3,TL,aminal,cursive,aminal_c.png,,,
,,,,32144,001,2025-10-22_03h18.23.919,HW_LDT_1,2024.2.4,MacIntel,47.61904762,,,,,,,,,,,,,,,,,,,,358.884,359.081,359.081,359.581,,,,,,,,,,,,0.763,1,,,,,,,,,,,,,,m,,,,,,,,,,,,,,,72,0,359.582,360.346,,0,[0.45582047685834504],[-0.32187938288920054],[1],[0],[0],[0.7629999999999768],"[""button_right_main""]",360.347,362.348,362.348,362.349,[],[],[],[],[],[],[],,362.349,362.349,0.455820477,-0.321879383,0,0,0,,0,71,71,151,1,3,word,SPECIFIC,print,specific_p.png,,,
,,,,32144,001,2025-10-22_03h18.23.919,HW_LDT_1,2024.2.4,MacIntel,47.61904762,,,,,,,,,,,,,,,,,,,,362.351,362.548,362.548,363.048,,,,,,,,,,,,2.331,1,,,,,,,,,,,,,,m,,,,,,,,,,,,,,,73,0,363.048,365.38,,0,[0.43478260869565216],[-0.30504908835904626],[1],[0],[0],[2.3309999999999604],"[""button_right_main""]",365.38,367.381,367.381,367.382,[],[],[],[],[],[],[],,367.382,367.382,0.434782609,-0.305049088,0,0,0,,0,72,72,98,1,3,word,CRIMINAL,print,criminal_p.png,,,
,,,,32144,001,2025-10-22_03h18.23.919,HW_LDT_1,2024.2.4,MacIntel,47.61904762,,,,,,,,,,,,,,,,,,,,367.383,367.581,367.581,368.081,,,,,,,,,,,,1.763,1,,,,,,,,,,,,,,z,,,,,,,,,,,,,,,74,0,368.081,369.845,,0,[-0.453015427769986],[-0.3022440392706872],[1],[0],[0],[1.7630000000000337],"[""button_left_main""]",369.845,371.847,371.847,371.848,[],[],[],[],[],[],[],,371.848,371.848,-0.453015428,-0.302244039,0,0,0,,0,73,73,53,1,3,TL,marnigal,print,marnigal_p.png,,,
,,,,32144,001,2025-10-22_03h18.23.919,HW_LDT_1,2024.2.4,MacIntel,47.61904762,,,,,,,,,,,,,,,,,,,,371.85,372.047,372.047,372.547,,,,,,,,,,,,0.68,1,,,,,,,,,,,,,,z,,,,,,,,,,,,,,,75,0,372.548,373.229,,0,[-0.5301542776998598],[-0.2573632538569425],[1],[0],[0],[0.6800000000000637],"[""button_left_main""]",373.229,375.23,375.231,375.231,[],[],[],[],[],[],[],,375.231,375.232,-0.530154278,-0.257363254,0,0,0,,0,74,74,75,1,3,TL,sloten,cursive,sloten_c.png,,,
,,,,32144,001,2025-10-22_03h18.23.919,HW_LDT_1,2024.2.4,MacIntel,47.61904762,,,,,,,,,,,,,,,,,,,,375.233,375.43,375.43,375.93,,,,,,,,,,,,0.665,0,,,,,,,,,,,,,,m,,,,,,,,,,,,,,,76,1,375.931,376.596,,0,[-0.541374474053296],[-0.2952314165497896],[1],[0],[0],[0.6649999999999636],"[""button_left_main""]",376.596,378.597,378.597,379.646,[-0.5315568022440392],[-0.28541374474053294],[1],[0],[0],[1.0489999999999782],"[""button_left_probe""]",,379.646,379.646,-0.531556802,-0.285413745,1,0,0,,0,75,75,114,1,3,word,LOCATE,cursive,locate_c.png,,,
,,,,32144,001,2025-10-22_03h18.23.919,HW_LDT_1,2024.2.4,MacIntel,47.61904762,,,,,,,,,,,,,,,,,,,,379.647,379.847,379.847,380.347,,,,,,,,,,,,0.746,1,,,,,,,,,,,,,,m,,,,,,,,,,,,,,,77,0,380.348,381.095,,0,[0.46984572230014027],[-0.23772791023842918],[1],[0],[0],[0.7459999999999809],"[""button_right_main""]",381.095,383.097,383.097,383.097,[],[],[],[],[],[],[],,383.097,383.097,0.469845722,-0.23772791,0,0,0,,0,76,76,82,1,3,word,AMATEUR,print,amateur_p.png,,,
,,,,32144,001,2025-10-22_03h18.23.919,HW_LDT_1,2024.2.4,MacIntel,47.61904762,,,,,,,,,,,,,,,,,,,,383.099,383.297,383.297,383.796,,,,,,,,,,,,1.23,1,,,,,,,,,,,,,,z,,,,,,,,,,,,,,,78,0,383.797,385.029,,0,[-0.517531556802244],[-0.288218793828892],[1],[0],[0],[1.2300000000000182],"[""button_left_main""]",385.029,387.03,387.03,387.03,[],[],[],[],[],[],[],,387.03,387.03,-0.517531557,-0.288218794,0,0,0,,0,77,77,1,1,3,RL,bewoted,cursive,bewoted_c.png,,,
,,,,32144,001,2025-10-22_03h18.23.919,HW_LDT_1,2024.2.4,MacIntel,47.61904762,,,,,,,,,,,,,,,,,,,,387.032,387.229,387.229,387.73,,,,,,,,,,,,1.614,1,,,,,,,,,,,,,,z,,,,,,,,,,,,,,,79,0,387.73,389.345,,0,[-0.5217391304347826],[-0.28541374474053294],[1],[0],[0],[1.6140000000000327],"[""button_left_main""]",389.345,391.346,391.346,391.347,[],[],[],[],[],[],[],,391.347,391.347,-0.52173913,-0.285413745,0,0,0,,0,78,78,77,1,3,TL,vadility,cursive,vadility_c.png,,,
,,,,32144,001,2025-10-22_03h18.23.919,HW_LDT_1,2024.2.4,MacIntel,47.61904762,,,,,,,,,,,,,,,,,,,,391.348,391.546,391.546,392.046,,,,,,,,,,,,1.564,0,,,,,,,,,,,,,,m,,,,,,,,,,,,,,,80,0,392.046,393.611,,0,[-0.5301542776998598],[-0.2924263674614306],[1],[0],[0],[1.5640000000000214],"[""button_left_main""]",393.612,395.612,395.612,395.613,[],[],[],[],[],[],[],,395.613,398.294,0.192145863,-0.387798036,1,0,0,,0,79,79,120,1,3,word,MILITARY,cursive,military_c.png,break_done_button,,
,,,,32144,001,2025-10-22_03h18.23.919,HW_LDT_1,2024.2.4,MacIntel,47.61904762,,,,,,,,,,,,,,,,,,,,398.296,398.495,398.495,398.996,,,,,,,,,,,,1.097,1,,,,,,,,,,,,,,z,,,,,,,,,,,,,,,81,0,398.996,400.094,,0,[-0.5553997194950911],[-0.2826086956521739],[1],[0],[0],[1.09699999999998],"[""button_left_main""]",400.094,402.095,402.095,402.096,[],[],[],[],[],[],[],,402.096,402.096,-0.555399719,-0.282608696,0,0,0,,0,80,80,3,1,3,RL,bebine,cursive,bebine_c.png,,,
,,,,32144,001,2025-10-22_03h18.23.919,HW_LDT_1,2024.2.4,MacIntel,47.61904762,,,,,,,,,,,,,,,,,,,,402.098,402.295,402.295,402.795,,,,,,,,,,,,1.229,1,,,,,,,,,,,,,,m,,,,,,,,,,,,,,,82,1,402.796,404.027,,0,[0.46563814866760167],[-0.2643758765778401],[1],[0],[0],[1.228999999999985],"[""button_right_main""]",404.027,406.028,406.029,407.343,[-0.5231416549789621],[-0.2938288920056101],[1],[0],[0],[1.3140000000000214],"[""button_left_probe""]",,407.343,407.344,-0.523141655,-0.293828892,1,0,0,,0,81,81,141,1,3,word,RELIGION,print,religion_p.png,,,
,,,,32144,001,2025-10-22_03h18.23.919,HW_LDT_1,2024.2.4,MacIntel,47.61904762,,,,,,,,,,,,,,,,,,,,407.345,407.545,407.545,408.045,,,,,,,,,,,,2.413,1,,,,,,,,,,,,,,m,,,,,,,,,,,,,,,83,1,408.046,410.46,,0,[0.5049088359046283],[-0.2517531556802244],[1],[0],[0],[2.413000000000011],"[""button_right_main""]",410.46,412.461,412.461,414.027,[-0.5273492286115007],[-0.2924263674614306],[1],[0],[0],[1.5639999999999645],"[""button_left_probe""]",,414.027,414.027,-0.527349229,-0.292426367,1,0,0,,0,82,82,154,1,3,word,STORAGE,cursive,storage_c.png,,,
,,,,32144,001,2025-10-22_03h18.23.919,HW_LDT_1,2024.2.4,MacIntel,47.61904762,,,,,,,,,,,,,,,,,,,,414.028,414.228,414.228,414.728,,,,,,,,,,,,0.947,1,,,,,,,,,,,,,,m,,,,,,,,,,,,,,,84,1,414.728,415.676,,0,[0.5049088359046283],[-0.2573632538569425],[1],[0],[0],[0.9469999999999459],"[""button_right_main""]",415.676,417.678,417.678,418.91,[-0.544179523141655],[-0.2952314165497896],[1],[0],[0],[1.2320000000000277],"[""button_left_probe""]",,418.91,418.91,-0.544179523,-0.295231417,1,0,0,,0,83,83,147,1,3,word,ROMANTIC,cursive,romantic_c.png,,,
,,,,32144,001,2025-10-22_03h18.23.919,HW_LDT_1,2024.2.4,MacIntel,47.61904762,,,,,,,,,,,,,,,,,,,,418.911,419.111,419.111,419.611,,,,,,,,,,,,1.127,1,,,,,,,,,,,,,,m,,,,,,,,,,,,,,,85,0,419.611,420.74,,0,[0.5329593267882188],[-0.2573632538569425],[1],[0],[0],[1.1270000000000095],"[""button_right_main""]",420.74,422.744,422.744,422.745,[],[],[],[],[],[],[],,422.745,422.745,0.532959327,-0.257363254,0,0,0,,0,84,84,156,1,3,word,TRIBUTE,print,tribute_p.png,,,
,,,,32144,001,2025-10-22_03h18.23.919,HW_LDT_1,2024.2.4,MacIntel,47.61904762,,,,,,,,,,,,,,,,,,,,422.747,422.944,422.944,423.444,,,,,,,,,,,,0.814,1,,,,,,,,,,,,,,z,,,,,,,,,,,,,,,86,0,423.444,424.259,,0,[-0.5427769985974754],[-0.31065918653576435],[1],[0],[0],[0.8140000000000214],"[""button_left_main""]",424.259,426.261,426.261,426.262,[],[],[],[],[],[],[],,426.262,426.262,-0.542776999,-0.310659187,0,0,0,,0,85,85,56,1,3,TL,meromy,print,meromy_p.png,,,
,,,,32144,001,2025-10-22_03h18.23.919,HW_LDT_1,2024.2.4,MacIntel,47.61904762,,,,,,,,,,,,,,,,,,,,426.264,426.46,426.46,426.96,,,,,,,,,,,,1.13,1,,,,,,,,,,,,,,z,,,,,,,,,,,,,,,87,0,426.961,428.092,,0,[-0.5568022440392707],[-0.3022440392706872],[1],[0],[0],[1.1299999999999386],"[""button_left_main""]",428.092,430.094,430.095,430.095,[],[],[],[],[],[],[],,430.095,430.095,-0.556802244,-0.302244039,0,0,0,,0,86,86,74,1,3,TL,spemicen,print,spemicen_p.png,,,
,,,,32144,001,2025-10-22_03h18.23.919,HW_LDT_1,2024.2.4,MacIntel,47.61904762,,,,,,,,,,,,,,,,,,,,430.097,430.293,430.293,430.793,,,,,,,,,,,,0.961,1,,,,,,,,,,,,,,m,,,,,,,,,,,,,,,88,0,430.794,431.755,,0,[0.5287517531556802],[-0.2447405329593268],[1],[0],[0],[0.9609999999999559],"[""button_right_main""]",431.755,433.76,433.76,433.76,[],[],[],[],[],[],[],,433.76,433.761,0.528751753,-0.244740533,0,0,0,,0,87,87,85,1,3,word,BENEFIT,print,benefit_p.png,,,
,,,,32144,001,2025-10-22_03h18.23.919,HW_LDT_1,2024.2.4,MacIntel,47.61904762,,,,,,,,,,,,,,,,,,,,433.762,433.96,433.96,434.46,,,,,,,,,,,,1.048,1,,,,,,,,,,,,,,z,,,,,,,,,,,,,,,89,0,434.46,435.509,,0,[-0.5553997194950911],[-0.3190743338008415],[1],[0],[0],[1.0480000000000018],"[""button_left_main""]",435.509,437.51,437.51,437.51,[],[],[],[],[],[],[],,437.51,437.51,-0.555399719,-0.319074334,0,0,0,,0,88,88,73,1,3,TL,speficic,print,speficic_p.png,,,
,,,,32144,001,2025-10-22_03h18.23.919,HW_LDT_1,2024.2.4,MacIntel,47.61904762,,,,,,,,,,,,,,,,,,,,437.512,437.709,437.709,438.209,,,,,,,,,,,,0.928,1,,,,,,,,,,,,,,m,,,,,,,,,,,,,,,90,0,438.21,439.139,,0,[0.5287517531556802],[-0.2573632538569425],[1],[0],[0],[0.9279999999999973],"[""button_right_main""]",439.139,441.143,441.143,441.144,[],[],[],[],[],[],[],,441.144,441.144,0.528751753,-0.257363254,0,0,0,,0,89,89,97,1,3,word,COVERAGE,print,coverage_p.png,,,
,,,,32144,001,2025-10-22_03h18.23.919,HW_LDT_1,2024.2.4,MacIntel,47.61904762,,,,,,,,,,,,,,,,,,,,441.146,441.343,441.343,441.843,,,,,,,,,,,,0.698,1,,,,,,,,,,,,,,m,,,,,,,,,,,,,,,91,1,441.843,442.542,,0,[0.4950911640953717],[-0.2503506311360449],[1],[0],[0],[0.6980000000000359],"[""button_right_main""]",442.542,444.543,444.543,445.358,[0.5049088359046283],[-0.25455820476858343],[1],[0],[0],[0.8149999999999977],"[""button_right_probe""]",,445.358,445.358,0.504908836,-0.254558205,1,0,0,,0,90,90,80,1,3,word,ACADEMY,print,academy_p.png,,,
,,,,32144,001,2025-10-22_03h18.23.919,HW_LDT_1,2024.2.4,MacIntel,47.61904762,,,,,,,,,,,,,,,,,,,,445.36,445.559,445.559,446.059,,,,,,,,,,,,0.83,1,,,,,,,,,,,,,,m,,,,,,,,,,,,,,,92,0,446.059,446.891,,0,[0.5301542776998598],[-0.2615708274894811],[1],[0],[0],[0.8300000000000409],"[""button_right_main""]",446.891,448.892,448.892,448.893,[],[],[],[],[],[],[],,448.893,448.893,0.530154278,-0.261570827,0,0,0,,0,91,91,132,1,3,word,PROPOSAL,print,proposal_p.png,,,
,,,,32144,001,2025-10-22_03h18.23.919,HW_LDT_1,2024.2.4,MacIntel,47.61904762,,,,,,,,,,,,,,,,,,,,448.895,449.092,449.092,449.592,,,,,,,,,,,,1.23,1,,,,,,,,,,,,,,m,,,,,,,,,,,,,,,93,0,449.593,450.824,,0,[0.5301542776998598],[-0.2643758765778401],[1],[0],[0],[1.2300000000000182],"[""button_right_main""]",450.824,452.826,452.826,452.826,[],[],[],[],[],[],[],,452.827,452.827,0.530154278,-0.264375877,0,0,0,,0,92,92,127,1,3,word,ORIGINAL,cursive,original_c.png,,,
,,,,32144,001,2025-10-22_03h18.23.919,HW_LDT_1,2024.2.4,MacIntel,47.61904762,,,,,,,,,,,,,,,,,,,,452.829,453.025,453.025,453.525,,,,,,,,,,,,0.88,0,,,,,,,,,,,,,,m,,,,,,,,,,,,,,,94,0,453.526,454.407,,0,[-0.5497896213183731],[-0.3316970546984572],[1],[0],[0],[0.8799999999999955],"[""button_left_main""]",454.407,456.408,456.408,456.409,[],[],[],[],[],[],[],,456.409,456.409,-0.549789621,-0.331697055,0,0,0,,0,93,93,121,1,3,word,MISTAKE,cursive,mistake_c.png,,,
,,,,32144,001,2025-10-22_03h18.23.919,HW_LDT_1,2024.2.4,MacIntel,47.61904762,,,,,,,,,,,,,,,,,,,,456.411,456.608,456.608,457.109,,,,,,,,,,,,1.147,1,,,,,,,,,,,,,,z,,,,,,,,,,,,,,,95,0,457.109,458.257,,0,[-0.541374474053296],[-0.31065918653576435],[1],[0],[0],[1.1469999999999914],"[""button_left_main""]",458.257,460.258,460.258,460.259,[],[],[],[],[],[],[],,460.259,460.259,-0.541374474,-0.310659187,0,0,0,,0,94,94,36,1,3,TL,carema,cursive,carema_c.png,,,
,,,,32144,001,2025-10-22_03h18.23.919,HW_LDT_1,2024.2.4,MacIntel,47.61904762,,,,,,,,,,,,,,,,,,,,460.26,460.458,460.458,460.958,,,,,,,,,,,,0.863,1,,,,,,,,,,,,,,m,,,,,,,,,,,,,,,96,0,460.959,461.824,,0,[0.49228611500701264],[-0.24754558204768584],[1],[0],[0],[0.8629999999999995],"[""button_right_main""]",461.824,463.825,463.825,463.825,[],[],[],[],[],[],[],,463.825,463.826,0.492286115,-0.247545582,0,0,0,,0,95,95,145,1,3,word,RESUME,cursive,resume_c.png,,,
,,,,32144,001,2025-10-22_03h18.23.919,HW_LDT_1,2024.2.4,MacIntel,47.61904762,,,,,,,,,,,,,,,,,,,,463.827,464.025,464.025,464.524,,,,,,,,,,,,1.181,1,,,,,,,,,,,,,,z,,,,,,,,,,,,,,,97,0,464.525,465.707,,0,[-0.5525946704067322],[-0.30504908835904626],[1],[0],[0],[1.18100000000004],"[""button_left_main""]",465.707,467.708,467.708,467.708,[],[],[],[],[],[],[],,467.708,467.709,-0.55259467,-0.305049088,0,0,0,,0,96,96,59,1,3,TL,paficic,cursive,paficic_c.png,,,
,,,,32144,001,2025-10-22_03h18.23.919,HW_LDT_1,2024.2.4,MacIntel,47.61904762,,,,,,,,,,,,,,,,,,,,467.711,467.908,467.908,468.408,,,,,,,,,,,,0.881,1,,,,,,,,,,,,,,m,,,,,,,,,,,,,,,98,0,468.408,469.29,,0,[0.5049088359046283],[-0.24754558204768584],[1],[0],[0],[0.8809999999999718],"[""button_right_main""]",469.29,471.291,471.291,471.292,[],[],[],[],[],[],[],,471.292,471.292,0.504908836,-0.247545582,0,0,0,,0,97,97,112,1,3,word,LIBERAL,print,liberal_p.png,,,
,,,,32144,001,2025-10-22_03h18.23.919,HW_LDT_1,2024.2.4,MacIntel,47.61904762,,,,,,,,,,,,,,,,,,,,471.294,471.491,471.491,471.991,,,,,,,,,,,,0.897,1,,,,,,,,,,,,,,z,,,,,,,,,,,,,,,99,0,471.991,472.89,,0,[-0.544179523141655],[-0.2938288920056101],[1],[0],[0],[0.8969999999999914],"[""button_left_main""]",472.89,474.891,474.891,474.891,[],[],[],[],[],[],[],,474.891,474.891,-0.544179523,-0.293828892,0,0,0,,0,98,98,42,1,3,TL,detabe,cursive,detabe_c.png,,,
,,,,32144,001,2025-10-22_03h18.23.919,HW_LDT_1,2024.2.4,MacIntel,47.61904762,,,,,,,,,,,,,,,,,,,,474.893,475.09,475.091,475.591,,,,,,,,,,,,1.159,1,,,,,,,,,,,,,,z,,,,,,,,,,,,,,,100,0,475.591,476.751,,0,[-0.5568022440392707],[-0.2966339410939691],[1],[0],[0],[1.1590000000000487],"[""button_left_main""]",476.751,478.74,478.74,478.741,[],[],[],[],[],[],[],,478.741,478.741,-0.556802244,-0.296633941,0,0,0,,0,99,99,69,1,3,TL,redisent,cursive,redisent_c.png,,,
,,,,32144,001,2025-10-22_03h18.23.919,HW_LDT_1,2024.2.4,MacIntel,47.61904762,,,,,,,,,,,,,,,,,,,,478.742,478.94,478.94,479.44,,,,,,,,,,,,1.397,1,,,,,,,,,,,,,,m,,,,,,,,,,,,,,,101,0,479.441,480.84,,0,[0.511921458625526],[-0.26297335203366057],[1],[0],[0],[1.3969999999999914],"[""button_right_main""]",480.84,482.841,482.841,482.841,[],[],[],[],[],[],[],,482.841,482.842,0.511921459,-0.262973352,0,0,0,,0,100,100,155,1,3,word,STRATEGY,print,strategy_p.png,,,
,,,,32144,001,2025-10-22_03h18.23.919,HW_LDT_1,2024.2.4,MacIntel,47.61904762,,,,,,,,,,,,,,,,,,,,482.843,483.041,483.041,483.54,,,,,,,,,,,,2.344,1,,,,,,,,,,,,,,m,,,,,,,,,,,,,,,102,0,483.54,485.885,,0,[0.517531556802244],[-0.24894810659186536],[1],[0],[0],[2.344000000000051],"[""button_right_main""]",485.885,487.89,487.89,487.89,[],[],[],[],[],[],[],,487.89,487.89,0.517531557,-0.248948107,0,0,0,,0,101,101,128,1,3,word,PACIFIC,cursive,pacific_c.png,,,
,,,,32144,001,2025-10-22_03h18.23.919,HW_LDT_1,2024.2.4,MacIntel,47.61904762,,,,,,,,,,,,,,,,,,,,487.892,488.09,488.09,488.59,,,,,,,,,,,,0.648,1,,,,,,,,,,,,,,z,,,,,,,,,,,,,,,103,0,488.591,489.239,,0,[-0.544179523141655],[-0.317671809256662],[1],[0],[0],[0.6480000000000246],"[""button_left_main""]",489.239,491.24,491.24,491.241,[],[],[],[],[],[],[],,491.241,491.242,-0.544179523,-0.317671809,0,0,0,,0,102,102,10,1,3,RL,efibor,print,efibor_p.png,,,
,,,,32144,001,2025-10-22_03h18.23.919,HW_LDT_1,2024.2.4,MacIntel,47.61904762,,,,,,,,,,,,,,,,,,,,491.245,491.44,491.44,491.94,,,,,,,,,,,,0.745,1,,,,,,,,,,,,,,z,,,,,,,,,,,,,,,104,0,491.94,492.688,,0,[-0.541374474053296],[-0.32187938288920054],[1],[0],[0],[0.7450000000000045],"[""button_left_main""]",492.688,494.69,494.69,494.691,[],[],[],[],[],[],[],,494.691,494.691,-0.541374474,-0.321879383,0,0,0,,0,103,103,11,1,3,RL,ebiwent,cursive,ebiwent_c.png,,,
,,,,32144,001,2025-10-22_03h18.23.919,HW_LDT_1,2024.2.4,MacIntel,47.61904762,,,,,,,,,,,,,,,,,,,,494.693,494.89,494.89,495.39,,,,,,,,,,,,0.725,1,,,,,,,,,,,,,,m,,,,,,,,,,,,,,,105,0,495.391,496.119,,0,[0.5035063113604488],[-0.24754558204768584],[1],[0],[0],[0.7249999999999659],"[""button_right_main""]",496.119,498.123,498.123,498.123,[],[],[],[],[],[],[],,498.124,498.124,0.503506311,-0.247545582,0,0,0,,0,104,104,95,1,3,word,COMEDY,print,comedy_p.png,,,
,,,,32144,001,2025-10-22_03h18.23.919,HW_LDT_1,2024.2.4,MacIntel,47.61904762,,,,,,,,,,,,,,,,,,,,498.126,498.323,498.323,498.822,,,,,,,,,,,,1.03,1,,,,,,,,,,,,,,m,,,,,,,,,,,,,,,106,0,498.823,499.854,,0,[0.49228611500701264],[-0.23772791023842918],[1],[0],[0],[1.0300000000000864],"[""button_right_main""]",499.854,501.856,501.856,501.856,[],[],[],[],[],[],[],,501.856,501.856,0.492286115,-0.23772791,0,0,0,,0,105,105,113,1,3,word,LITERAL,print,literal_p.png,,,
,,,,32144,001,2025-10-22_03h18.23.919,HW_LDT_1,2024.2.4,MacIntel,47.61904762,,,,,,,,,,,,,,,,,,,,501.858,502.056,502.056,502.556,,,,,,,,,,,,0.646,1,,,,,,,,,,,,,,z,,,,,,,,,,,,,,,107,0,502.556,503.205,,0,[-0.5497896213183731],[-0.3190743338008415],[1],[0],[0],[0.6459999999999582],"[""button_left_main""]",503.205,505.206,505.206,505.206,[],[],[],[],[],[],[],,505.206,505.207,-0.549789621,-0.319074334,0,0,0,,0,106,106,60,1,3,TL,panert,print,panert_p.png,,,
,,,,32144,001,2025-10-22_03h18.23.919,HW_LDT_1,2024.2.4,MacIntel,47.61904762,,,,,,,,,,,,,,,,,,,,505.208,505.406,505.406,505.906,,,,,,,,,,,,1.13,1,,,,,,,,,,,,,,m,,,,,,,,,,,,,,,108,0,505.906,507.037,,0,[0.5161290322580645],[-0.2391304347826087],[1],[0],[0],[1.1299999999999955],"[""button_right_main""]",507.037,509.039,509.039,509.039,[],[],[],[],[],[],[],,509.04,509.04,0.516129032,-0.239130435,0,0,0,,0,107,107,87,1,3,word,CAFETERIA,print,cafeteria_p.png,,,
,,,,32144,001,2025-10-22_03h18.23.919,HW_LDT_1,2024.2.4,MacIntel,47.61904762,,,,,,,,,,,,,,,,,,,,509.041,509.238,509.239,509.739,,,,,,,,,,,,0.947,1,,,,,,,,,,,,,,z,,,,,,,,,,,,,,,109,1,509.739,510.687,,0,[-0.5497896213183731],[-0.32047685834502104],[1],[0],[0],[0.9470000000000027],"[""button_left_main""]",510.687,512.689,512.689,514.253,[0.5245441795231417],[-0.2503506311360449],[1],[0],[0],[1.5639999999999645],"[""button_right_probe""]",,514.253,514.253,0.52454418,-0.250350631,1,0,0,,0,108,108,26,1,3,RL,repifion,print,repifion_p.png,,,
,,,,32144,001,2025-10-22_03h18.23.919,HW_LDT_1,2024.2.4,MacIntel,47.61904762,,,,,,,,,,,,,,,,,,,,514.255,514.455,514.455,514.955,,,,,,,,,,,,0.748,1,,,,,,,,,,,,,,m,,,,,,,,,,,,,,,110,0,514.955,515.704,,0,[0.5133239831697055],[-0.23492286115007013],[1],[0],[0],[0.7479999999999336],"[""button_right_main""]",515.704,517.705,517.705,517.706,[],[],[],[],[],[],[],,517.706,517.706,0.513323983,-0.234922861,0,0,0,,0,109,109,131,1,3,word,POPULAR,print,popular_p.png,,,
,,,,32144,001,2025-10-22_03h18.23.919,HW_LDT_1,2024.2.4,MacIntel,47.61904762,,,,,,,,,,,,,,,,,,,,517.708,517.905,517.905,518.405,,,,,,,,,,,,2.261,1,,,,,,,,,,,,,,m,,,,,,,,,,,,,,,111,0,518.405,520.667,,0,[0.5133239831697055],[-0.24193548387096775],[1],[0],[0],[2.2609999999999673],"[""button_right_main""]",520.668,522.671,522.671,522.672,[],[],[],[],[],[],[],,522.672,522.672,0.513323983,-0.241935484,0,0,0,,0,110,110,88,1,3,word,CAMERA,cursive,camera_c.png,,,
,,,,32144,001,2025-10-22_03h18.23.919,HW_LDT_1,2024.2.4,MacIntel,47.61904762,,,,,,,,,,,,,,,,,,,,522.674,522.871,522.871,523.371,,,,,,,,,,,,2.247,0,,,,,,,,,,,,,,m,,,,,,,,,,,,,,,112,0,523.372,525.62,,0,[-0.5399719495091164],[-0.3120617110799439],[1],[0],[0],[2.247000000000071],"[""button_left_main""]",525.62,527.621,527.621,527.621,[],[],[],[],[],[],[],,527.621,527.621,-0.53997195,-0.312061711,0,0,0,,0,111,111,140,1,3,word,RELATIVE,cursive,relative_c.png,,,
,,,,32144,001,2025-10-22_03h18.23.919,HW_LDT_1,2024.2.4,MacIntel,47.61904762,,,,,,,,,,,,,,,,,,,,527.624,527.821,527.821,528.321,,,,,,,,,,,,0.83,1,,,,,,,,,,,,,,z,,,,,,,,,,,,,,,113,1,528.322,529.153,,0,[-0.5497896213183731],[-0.31065918653576435],[1],[0],[0],[0.8300000000000409],"[""button_left_main""]",529.153,531.154,531.154,532.182,[0.5189340813464236],[-0.24193548387096775],[1],[0],[0],[1.02800000000002],"[""button_right_probe""]",,532.182,532.182,0.518934081,-0.241935484,1,0,0,,0,112,112,7,1,3,RL,cobeny,print,cobeny_p.png,,,
,,,,32144,001,2025-10-22_03h18.23.919,HW_LDT_1,2024.2.4,MacIntel,47.61904762,,,,,,,,,,,,,,,,,,,,532.182,532.371,532.371,532.871,,,,,,,,,,,,0.797,1,,,,,,,,,,,,,,m,,,,,,,,,,,,,,,114,1,532.871,533.669,,0,[0.5385694249649369],[-0.24193548387096775],[1],[0],[0],[0.7970000000000255],"[""button_right_main""]",533.669,535.671,535.671,536.701,[0.5301542776998598],[-0.2391304347826087],[1],[0],[0],[1.0300000000000864],"[""button_right_probe""]",,536.701,536.701,0.530154278,-0.239130435,1,0,0,,0,113,113,139,1,3,word,REGULAR,print,regular_p.png,,,
,,,,32144,001,2025-10-22_03h18.23.919,HW_LDT_1,2024.2.4,MacIntel,47.61904762,,,,,,,,,,,,,,,,,,,,536.703,536.904,536.904,537.404,,,,,,,,,,,,0.864,1,,,,,,,,,,,,,,m,,,,,,,,,,,,,,,115,0,537.404,538.269,,0,[0.5301542776998598],[-0.24193548387096775],[1],[0],[0],[0.8640000000000327],"[""button_right_main""]",538.269,540.27,540.27,540.271,[],[],[],[],[],[],[],,540.271,540.271,0.530154278,-0.241935484,0,0,0,,0,114,114,86,1,3,word,BESIDE,cursive,beside_c.png,,,
,,,,32144,001,2025-10-22_03h18.23.919,HW_LDT_1,2024.2.4,MacIntel,47.61904762,,,,,,,,,,,,,,,,,,,,540.273,540.47,540.47,540.97,,,,,,,,,,,,0.929,1,,,,,,,,,,,,,,z,,,,,,,,,,,,,,,116,0,540.971,541.902,,0,[-0.5399719495091164],[-0.31626928471248245],[1],[0],[0],[0.9289999999999736],"[""button_left_main""]",541.902,543.903,543.904,543.904,[],[],[],[],[],[],[],,543.904,543.904,-0.53997195,-0.316269285,0,0,0,,0,115,115,65,1,3,TL,resufal,print,resufal_p.png,,,
,,,,32144,001,2025-10-22_03h18.23.919,HW_LDT_1,2024.2.4,MacIntel,47.61904762,,,,,,,,,,,,,,,,,,,,543.906,544.103,544.103,544.603,,,,,,,,,,,,0.813,1,,,,,,,,,,,,,,m,,,,,,,,,,,,,,,117,0,544.604,545.418,,0,[0.5287517531556802],[-0.25315568022440393],[1],[0],[0],[0.8129999999999882],"[""button_right_main""]",545.418,547.42,547.42,547.42,[],[],[],[],[],[],[],,547.42,547.42,0.528751753,-0.25315568,0,0,0,,0,116,116,137,1,3,word,RAPIDLY,print,rapidly_p.png,,,
,,,,32144,001,2025-10-22_03h18.23.919,HW_LDT_1,2024.2.4,MacIntel,47.61904762,,,,,,,,,,,,,,,,,,,,547.422,547.619,547.619,548.12,,,,,,,,,,,,0.964,1,,,,,,,,,,,,,,z,,,,,,,,,,,,,,,118,0,548.12,549.085,,0,[-0.5385694249649369],[-0.31626928471248245],[1],[0],[0],[0.9639999999999418],"[""button_left_main""]",549.085,551.086,551.086,551.087,[],[],[],[],[],[],[],,551.087,551.087,-0.538569425,-0.316269285,0,0,0,,0,117,117,14,1,3,RL,lofase,cursive,lofase_c.png,,,
,,,,32144,001,2025-10-22_03h18.23.919,HW_LDT_1,2024.2.4,MacIntel,47.61904762,,,,,,,,,,,,,,,,,,,,551.089,551.286,551.286,551.786,,,,,,,,,,,,0.697,1,,,,,,,,,,,,,,z,,,,,,,,,,,,,,,119,0,551.787,552.485,,0,[-0.4474053295932679],[-0.3022440392706872],[1],[0],[0],[0.696999999999889],"[""button_left_main""]",552.485,554.486,554.486,554.486,[],[],[],[],[],[],[],,554.486,554.486,-0.44740533,-0.302244039,0,0,0,,0,118,118,54,1,3,TL,manire,cursive,manire_c.png,,,
,,,,32144,001,2025-10-22_03h18.23.919,HW_LDT_1,2024.2.4,MacIntel,47.61904762,,,,,,,,,,,,,,,,,,,,554.488,554.686,554.686,555.186,,,,,,,,,,,,0.761,1,,,,,,,,,,,,,,z,,,,,,,,,,,,,,,120,0,555.187,555.949,,0,[-0.4053295932678822],[-0.2812061711079944],[1],[0],[0],[0.7609999999999673],"[""button_left_main""]",555.949,557.952,557.952,557.953,[],[],[],[],[],[],[],,557.953,557.953,-0.405329593,-0.281206171,0,0,0,,0,119,119,48,1,3,TL,grafetul,cursive,grafetul_c.png,,,
,,,,32144,001,2025-10-22_03h18.23.919,HW_LDT_1,2024.2.4,MacIntel,47.61904762,,,,,,,,,,,,,,,,,,,,557.954,558.152,558.152,558.652,,,,,,,,,,,,0.68,1,,,,,,,,,,,,,,m,,,,,,,,,,,,,,,121,0,558.653,559.334,,0,[0.3884992987377279],[-0.30364656381486677],[1],[0],[0],[0.67999999999995],"[""button_right_main""]",559.334,561.336,561.336,561.336,[],[],[],[],[],[],[],,561.336,561.336,0.388499299,-0.303646564,0,0,0,,0,120,120,119,1,3,word,MEMORY,print,memory_p.png,,,
,,,,32144,001,2025-10-22_03h18.23.919,HW_LDT_1,2024.2.4,MacIntel,47.61904762,,,,,,,,,,,,,,,,,,,,561.338,561.535,561.538,562.036,,,,,,,,,,,,0.829,1,,,,,,,,,,,,,,z,,,,,,,,,,,,,,,122,0,562.036,562.867,,0,[-0.44460028050490885],[-0.31486676016830295],[1],[0],[0],[0.8290000000000646],"[""button_left_main""]",562.867,564.868,564.869,564.869,[],[],[],[],[],[],[],,564.869,564.869,-0.444600281,-0.31486676,0,0,0,,0,121,121,9,1,3,RL,docirant,print,docirant_p.png,,,
,,,,32144,001,2025-10-22_03h18.23.919,HW_LDT_1,2024.2.4,MacIntel,47.61904762,,,,,,,,,,,,,,,,,,,,564.871,565.069,565.069,565.569,,,,,,,,,,,,0.613,1,,,,,,,,,,,,,,z,,,,,,,,,,,,,,,123,0,565.57,566.184,,0,[-0.3899018232819074],[-0.29102384291725103],[1],[0],[0],[0.6130000000000564],"[""button_left_main""]",566.184,568.185,568.185,568.186,[],[],[],[],[],[],[],,568.186,568.186,-0.389901823,-0.291023843,0,0,0,,0,122,122,43,1,3,TL,dedace,cursive,dedace_c.png,,,
,,,,32144,001,2025-10-22_03h18.23.919,HW_LDT_1,2024.2.4,MacIntel,47.61904762,,,,,,,,,,,,,,,,,,,,568.187,568.385,568.385,568.885,,,,,,,,,,,,0.847,1,,,,,,,,,,,,,,z,,,,,,,,,,,,,,,124,0,568.886,569.734,,0,[-0.39831697054698456],[-0.2966339410939691],[1],[0],[0],[0.84699999999998],"[""button_left_main""]",569.734,571.735,571.735,571.735,[],[],[],[],[],[],[],,571.735,571.735,-0.398316971,-0.296633941,0,0,0,,0,123,123,71,1,3,TL,sanile,cursive,sanile_c.png,,,
,,,,32144,001,2025-10-22_03h18.23.919,HW_LDT_1,2024.2.4,MacIntel,47.61904762,,,,,,,,,,,,,,,,,,,,571.737,571.935,571.935,572.435,,,,,,,,,,,,0.93,1,,,,,,,,,,,,,,z,,,,,,,,,,,,,,,125,0,572.435,573.366,,0,[-0.42075736325385693],[-0.29943899018232817],[1],[0],[0],[0.9300000000000637],"[""button_left_main""]",573.367,575.368,575.368,575.368,[],[],[],[],[],[],[],,575.368,575.369,-0.420757363,-0.29943899,0,0,0,,0,124,124,51,1,3,TL,liretal,print,liretal_p.png,,,
,,,,32144,001,2025-10-22_03h18.23.919,HW_LDT_1,2024.2.4,MacIntel,47.61904762,,,,,,,,,,,,,,,,,,,,575.37,575.568,575.568,576.068,,,,,,,,,,,,0.764,1,,,,,,,,,,,,,,z,,,,,,,,,,,,,,,126,0,576.068,576.833,,0,[-0.4361851332398317],[-0.28541374474053294],[1],[0],[0],[0.76400000000001],"[""button_left_main""]",576.833,578.834,578.835,578.835,[],[],[],[],[],[],[],,578.835,578.836,-0.436185133,-0.285413745,0,0,0,,0,125,125,18,1,3,RL,onegator,print,onegator_p.png,,,
,,,,32144,001,2025-10-22_03h18.23.919,HW_LDT_1,2024.2.4,MacIntel,47.61904762,,,,,,,,,,,,,,,,,,,,578.837,579.035,579.035,579.534,,,,,,,,,,,,0.813,1,,,,,,,,,,,,,,z,,,,,,,,,,,,,,,127,1,579.535,580.35,,0,[-0.40813464235624125],[-0.2980364656381487],[1],[0],[0],[0.8129999999999882],"[""button_left_main""]",580.35,582.351,582.351,583.993,[0.511921458625526],[-0.2713884992987377],[1],[0],[0],[1.641999999999939],"[""button_right_probe""]",,583.993,583.993,0.511921459,-0.271388499,1,0,0,,0,126,126,46,1,3,TL,distupe,print,distupe_p.png,,,
,,,,32144,001,2025-10-22_03h18.23.919,HW_LDT_1,2024.2.4,MacIntel,47.61904762,,,,,,,,,,,,,,,,,,,,583.994,584.184,584.184,584.684,,,,,,,,,,,,1.448,1,,,,,,,,,,,,,,z,,,,,,,,,,,,,,,128,0,584.684,586.133,,0,[-0.45582047685834504],[-0.28401122019635344],[1],[0],[0],[1.447999999999979],"[""button_left_main""]",586.133,588.134,588.134,588.134,[],[],[],[],[],[],[],,588.134,588.134,-0.455820477,-0.28401122,0,0,0,,0,127,127,67,1,3,TL,retome,print,retome_p.png,,,
,,,,32144,001,2025-10-22_03h18.23.919,HW_LDT_1,2024.2.4,MacIntel,47.61904762,,,,,,,,,,,,,,,,,,,,588.135,588.334,588.334,588.834,,,,,,,,,,,,1.13,1,,,,,,,,,,,,,,m,,,,,,,,,,,,,,,129,0,588.834,589.965,,0,[0.5259467040673211],[-0.27980364656381485],[1],[0],[0],[1.1299999999999955],"[""button_right_main""]",589.966,591.967,591.967,591.967,[],[],[],[],[],[],[],,591.967,591.967,0.525946704,-0.279803647,0,0,0,,0,128,128,150,1,3,word,SENTIMENT,print,sentiment_p.png,,,
,,,,32144,001,2025-10-22_03h18.23.919,HW_LDT_1,2024.2.4,MacIntel,47.61904762,,,,,,,,,,,,,,,,,,,,591.969,592.167,592.167,592.667,,,,,,,,,,,,0.897,1,,,,,,,,,,,,,,m,,,,,,,,,,,,,,,130,0,592.667,593.566,,0,[0.517531556802244],[-0.27419354838709675],[1],[0],[0],[0.8969999999999345],"[""button_right_main""]",593.566,595.567,595.567,595.567,[],[],[],[],[],[],[],,595.567,595.568,0.517531557,-0.274193548,0,0,0,,0,129,129,143,1,3,word,REMOVAL,cursive,removal_c.png,,,
,,,,32144,001,2025-10-22_03h18.23.919,HW_LDT_1,2024.2.4,MacIntel,47.61904762,,,,,,,,,,,,,,,,,,,,595.569,595.766,595.767,596.267,,,,,,,,,,,,0.763,1,,,,,,,,,,,,,,z,,,,,,,,,,,,,,,131,0,596.267,597.031,,0,[-0.4305750350631136],[-0.30504908835904626],[1],[0],[0],[0.7630000000000337],"[""button_left_main""]",597.031,599.033,599.034,599.034,[],[],[],[],[],[],[],,599.034,599.034,-0.430575035,-0.305049088,0,0,0,,0,130,130,27,1,3,RL,recile,print,recile_p.png,,,
,,,,32144,001,2025-10-22_03h18.23.919,HW_LDT_1,2024.2.4,MacIntel,47.61904762,,,,,,,,,,,,,,,,,,,,599.036,599.233,599.233,599.734,,,,,,,,,,,,1.528,0,,,,,,,,,,,,,,m,,,,,,,,,,,,,,,132,0,599.734,601.264,,0,[-0.4319775596072931],[-0.3064516129032258],[1],[0],[0],[1.52800000000002],"[""button_left_main""]",601.264,603.266,603.266,603.267,[],[],[],[],[],[],[],,603.267,603.267,-0.43197756,-0.306451613,0,0,0,,0,131,131,107,1,3,word,EVIDENT,cursive,evident_c.png,,,
,,,,32144,001,2025-10-22_03h18.23.919,HW_LDT_1,2024.2.4,MacIntel,47.61904762,,,,,,,,,,,,,,,,,,,,603.269,603.466,603.466,603.966,,,,,,,,,,,,1.639,1,,,,,,,,,,,,,,z,,,,,,,,,,,,,,,133,0,603.967,605.607,,0,[-0.5035063113604488],[-0.288218793828892],[1],[0],[0],[1.63900000000001],"[""button_left_main""]",605.607,607.599,607.599,607.6,[],[],[],[],[],[],[],,607.6,607.6,-0.503506311,-0.288218794,0,0,0,,0,132,132,58,1,3,TL,nuremical,print,nuremical_p.png,,,
,,,,32144,001,2025-10-22_03h18.23.919,HW_LDT_1,2024.2.4,MacIntel,47.61904762,,,,,,,,,,,,,,,,,,,,607.602,607.799,607.799,608.299,,,,,,,,,,,,1.048,0,,,,,,,,,,,,,,m,,,,,,,,,,,,,,,134,1,608.3,609.348,,0,[-0.4179523141654979],[-0.2826086956521739],[1],[0],[0],[1.0480000000000018],"[""button_left_main""]",609.348,611.349,611.349,612.662,[-0.4375876577840112],[-0.28541374474053294],[1],[0],[0],[1.3129999999999882],"[""button_left_probe""]",,612.662,612.662,-0.437587658,-0.285413745,1,0,0,,0,133,133,126,1,3,word,OPTIMAL,cursive,optimal_c.png,,,
,,,,32144,001,2025-10-22_03h18.23.919,HW_LDT_1,2024.2.4,MacIntel,47.61904762,,,,,,,,,,,,,,,,,,,,612.662,612.866,612.866,613.366,,,,,,,,,,,,2.148,0,,,,,,,,,,,,,,m,,,,,,,,,,,,,,,135,0,613.366,615.515,,0,[-0.4474053295932679],[-0.2966339410939691],[1],[0],[0],[2.1480000000000246],"[""button_left_main""]",615.515,617.515,617.515,617.515,[],[],[],[],[],[],[],,617.516,617.516,-0.44740533,-0.296633941,0,0,0,,0,134,134,109,1,3,word,GRATEFUL,cursive,grateful_c.png,,,
,,,,32144,001,2025-10-22_03h18.23.919,HW_LDT_1,2024.2.4,MacIntel,47.61904762,,,,,,,,,,,,,,,,,,,,617.517,617.715,617.715,618.215,,,,,,,,,,,,0.846,1,,,,,,,,,,,,,,z,,,,,,,,,,,,,,,136,0,618.216,619.064,,0,[-0.44460028050490885],[-0.3022440392706872],[1],[0],[0],[0.8460000000000036],"[""button_left_main""]",619.064,621.065,621.065,621.065,[],[],[],[],[],[],[],,621.065,621.066,-0.444600281,-0.302244039,0,0,0,,0,135,135,2,1,3,RL,betemit,print,betemit_p.png,,,
,,,,32144,001,2025-10-22_03h18.23.919,HW_LDT_1,2024.2.4,MacIntel,47.61904762,,,,,,,,,,,,,,,,,,,,621.067,621.265,621.265,621.765,,,,,,,,,,,,0.73,0,,,,,,,,,,,,,,m,,,,,,,,,,,,,,,137,0,621.766,622.497,,0,[-0.4319775596072931],[-0.3078541374474053],[1],[0],[0],[0.7300000000000182],"[""button_left_main""]",622.497,624.498,624.498,624.499,[],[],[],[],[],[],[],,624.499,624.499,-0.43197756,-0.307854137,0,0,0,,0,136,136,117,1,3,word,MARINE,cursive,marine_c.png,,,
,,,,32144,001,2025-10-22_03h18.23.919,HW_LDT_1,2024.2.4,MacIntel,47.61904762,,,,,,,,,,,,,,,,,,,,624.5,624.698,624.698,625.198,,,,,,,,,,,,0.846,1,,,,,,,,,,,,,,m,,,,,,,,,,,,,,,138,0,625.199,626.046,,0,[0.49789621318373073],[-0.2615708274894811],[1],[0],[0],[0.8460000000000036],"[""button_right_main""]",626.047,628.048,628.048,628.049,[],[],[],[],[],[],[],,628.049,628.049,0.497896213,-0.261570827,0,0,0,,0,137,137,136,1,3,word,RADICAL,cursive,radical_c.png,,,
,,,,32144,001,2025-10-22_03h18.23.919,HW_LDT_1,2024.2.4,MacIntel,47.61904762,,,,,,,,,,,,,,,,,,,,628.051,628.248,628.248,628.748,,,,,,,,,,,,0.897,0,,,,,,,,,,,,,,m,,,,,,,,,,,,,,,139,0,628.749,629.647,,0,[-0.4488078541374474],[-0.28401122019635344],[1],[0],[0],[0.8969999999999345],"[""button_left_main""]",629.647,631.648,631.648,631.648,[],[],[],[],[],[],[],,631.648,631.649,-0.448807854,-0.28401122,0,0,0,,0,138,138,99,1,3,word,DEBATE,cursive,debate_c.png,,,
,,,,32144,001,2025-10-22_03h18.23.919,HW_LDT_1,2024.2.4,MacIntel,47.61904762,,,,,,,,,,,,,,,,,,,,631.65,631.848,631.848,632.348,,,,,,,,,,,,0.86,0,,,,,,,,,,,,,,m,,,,,,,,,,,,,,,140,0,632.349,633.21,,0,[-0.48246844319775595],[-0.2643758765778401],[1],[0],[0],[0.8599999999999],"[""button_left_main""]",633.21,635.198,635.198,635.199,[],[],[],[],[],[],[],,635.199,635.199,-0.482468443,-0.264375877,0,0,0,,0,139,139,92,1,3,word,CATEGORY,cursive,category_c.png,,,
,,,,32144,001,2025-10-22_03h18.23.919,HW_LDT_1,2024.2.4,MacIntel,47.61904762,,,,,,,,,,,,,,,,,,,,635.201,635.398,635.398,635.898,,,,,,,,,,,,1.064,1,,,,,,,,,,,,,,z,,,,,,,,,,,,,,,141,0,635.898,636.963,,0,[-0.5035063113604488],[-0.28541374474053294],[1],[0],[0],[1.0639999999999645],"[""button_left_main""]",636.963,638.964,638.964,638.965,[],[],[],[],[],[],[],,638.965,638.965,-0.503506311,-0.285413745,0,0,0,,0,140,140,49,1,3,TL,incidate,print,incidate_p.png,,,
,,,,32144,001,2025-10-22_03h18.23.919,HW_LDT_1,2024.2.4,MacIntel,47.61904762,,,,,,,,,,,,,,,,,,,,638.967,639.164,639.164,639.664,,,,,,,,,,,,1.413,1,,,,,,,,,,,,,,z,,,,,,,,,,,,,,,142,0,639.665,641.079,,0,[-0.49789621318373073],[-0.30364656381486677],[1],[0],[0],[1.413000000000011],"[""button_left_main""]",641.079,643.08,643.081,643.081,[],[],[],[],[],[],[],,643.081,643.081,-0.497896213,-0.303646564,0,0,0,,0,141,141,52,1,3,TL,locigal,cursive,locigal_c.png,,,
,,,,32144,001,2025-10-22_03h18.23.919,HW_LDT_1,2024.2.4,MacIntel,47.61904762,,,,,,,,,,,,,,,,,,,,643.083,643.281,643.281,643.78,,,,,,,,,,,,0.664,1,,,,,,,,,,,,,,z,,,,,,,,,,,,,,,143,0,643.781,644.445,,0,[-0.48106591865357645],[-0.3064516129032258],[1],[0],[0],[0.6639999999999873],"[""button_left_main""]",644.445,646.447,646.447,646.447,[],[],[],[],[],[],[],,646.448,646.448,-0.481065919,-0.306451613,0,0,0,,0,142,142,61,1,3,TL,pocily,print,pocily_p.png,,,
,,,,32144,001,2025-10-22_03h18.23.919,HW_LDT_1,2024.2.4,MacIntel,47.61904762,,,,,,,,,,,,,,,,,,,,646.45,646.647,646.647,647.147,,,,,,,,,,,,0.846,1,,,,,,,,,,,,,,z,,,,,,,,,,,,,,,144,0,647.148,647.995,,0,[-0.4782608695652174],[-0.29943899018232817],[1],[0],[0],[0.8460000000000036],"[""button_left_main""]",647.995,649.997,650.002,650.002,[],[],[],[],[],[],[],,650.002,650.002,-0.47826087,-0.29943899,0,0,0,,0,143,143,28,1,3,RL,rovastic,cursive,rovastic_c.png,,,
,,,,32144,001,2025-10-22_03h18.23.919,HW_LDT_1,2024.2.4,MacIntel,47.61904762,,,,,,,,,,,,,,,,,,,,650.003,650.196,650.197,650.696,,,,,,,,,,,,0.897,1,,,,,,,,,,,,,,m,,,,,,,,,,,,,,,145,0,650.697,651.595,,0,[0.5245441795231417],[-0.2503506311360449],[1],[0],[0],[0.8969999999999345],"[""button_right_main""]",651.595,653.596,653.596,653.597,[],[],[],[],[],[],[],,653.597,653.597,0.52454418,-0.250350631,0,0,0,,0,144,144,153,1,3,word,STOLEN,cursive,stolen_c.png,,,
,,,,32144,001,2025-10-22_03h18.23.919,HW_LDT_1,2024.2.4,MacIntel,47.61904762,,,,,,,,,,,,,,,,,,,,653.599,653.796,653.796,654.296,,,,,,,,,,,,0.747,1,,,,,,,,,,,,,,z,,,,,,,,,,,,,,,146,0,654.297,655.045,,0,[-0.4726507713884993],[-0.3064516129032258],[1],[0],[0],[0.7469999999999573],"[""button_left_main""]",655.045,657.047,657.047,657.047,[],[],[],[],[],[],[],,657.047,657.048,-0.472650771,-0.306451613,0,0,0,,0,145,145,40,1,3,TL,condiser,print,condiser_p.png,,,
,,,,32144,001,2025-10-22_03h18.23.919,HW_LDT_1,2024.2.4,MacIntel,47.61904762,,,,,,,,,,,,,,,,,,,,657.049,657.246,657.246,657.746,,,,,,,,,,,,0.761,1,,,,,,,,,,,,,,m,,,,,,,,,,,,,,,147,0,657.747,658.508,,0,[0.5245441795231417],[-0.2615708274894811],[1],[0],[0],[0.7609999999999673],"[""button_right_main""]",658.508,660.496,660.496,660.497,[],[],[],[],[],[],[],,660.497,660.497,0.52454418,-0.261570827,0,0,0,,0,146,146,101,1,3,word,DELICATE,print,delicate_p.png,,,
,,,,32144,001,2025-10-22_03h18.23.919,HW_LDT_1,2024.2.4,MacIntel,47.61904762,,,,,,,,,,,,,,,,,,,,660.499,660.696,660.696,661.196,,,,,,,,,,,,0.881,1,,,,,,,,,,,,,,m,,,,,,,,,,,,,,,148,0,661.196,662.078,,0,[0.5273492286115007],[-0.255960729312763],[1],[0],[0],[0.8809999999999718],"[""button_right_main""]",662.078,664.079,664.079,664.079,[],[],[],[],[],[],[],,664.079,664.08,0.527349229,-0.255960729,0,0,0,,0,147,147,115,1,3,word,LOGICAL,cursive,logical_c.png,,,
,,,,32144,001,2025-10-22_03h18.23.919,HW_LDT_1,2024.2.4,MacIntel,47.61904762,,,,,,,,,,,,,,,,,,,,664.081,664.279,664.279,664.779,,,,,,,,,,,,1.563,1,,,,,,,,,,,,,,m,,,,,,,,,,,,,,,149,0,664.78,666.345,,0,[0.5161290322580645],[-0.2601683029453015],[1],[0],[0],[1.5629999999999882],"[""button_right_main""]",666.345,668.346,668.347,668.347,[],[],[],[],[],[],[],,668.347,668.348,0.516129032,-0.260168303,0,0,0,,0,148,148,148,1,3,word,SALINE,cursive,saline_c.png,,,
,,,,32144,001,2025-10-22_03h18.23.919,HW_LDT_1,2024.2.4,MacIntel,47.61904762,,,,,,,,,,,,,,,,,,,,668.351,668.546,668.546,669.046,,,,,,,,,,,,0.844,1,,,,,,,,,,,,,,z,,,,,,,,,,,,,,,150,0,669.047,669.895,,0,[-0.511921458625526],[-0.30364656381486677],[1],[0],[0],[0.8440000000000509],"[""button_left_main""]",669.895,671.896,671.896,671.897,[],[],[],[],[],[],[],,671.897,671.898,-0.511921459,-0.303646564,0,0,0,,0,149,149,64,1,3,TL,radiply,print,radiply_p.png,,,
,,,,32144,001,2025-10-22_03h18.23.919,HW_LDT_1,2024.2.4,MacIntel,47.61904762,,,,,,,,,,,,,,,,,,,,671.9,672.096,672.096,672.595,,,,,,,,,,,,0.912,1,,,,,,,,,,,,,,z,,,,,,,,,,,,,,,151,0,672.596,673.511,,0,[-0.5049088359046283],[-0.3064516129032258],[1],[0],[0],[0.9120000000000346],"[""button_left_main""]",673.511,675.512,675.512,675.513,[],[],[],[],[],[],[],,675.513,675.513,-0.504908836,-0.306451613,0,0,0,,0,150,150,72,1,3,TL,senmitent,print,senmitent_p.png,,,
,,,,32144,001,2025-10-22_03h18.23.919,HW_LDT_1,2024.2.4,MacIntel,47.61904762,,,,,,,,,,,,,,,,,,,,675.515,675.712,675.712,676.212,,,,,,,,,,,,0.897,0,,,,,,,,,,,,,,m,,,,,,,,,,,,,,,152,0,676.212,677.11,,0,[-0.4642356241234222],[-0.3078541374474053],[1],[0],[0],[0.8969999999999345],"[""button_left_main""]",677.11,679.112,679.112,679.113,[],[],[],[],[],[],[],,679.113,679.113,-0.464235624,-0.307854137,0,0,0,,0,151,151,108,1,3,word,FORTUNE,cursive,fortune_c.png,,,
,,,,32144,001,2025-10-22_03h18.23.919,HW_LDT_1,2024.2.4,MacIntel,47.61904762,,,,,,,,,,,,,,,,,,,,679.115,679.312,679.312,679.811,,,,,,,,,,,,0.631,1,,,,,,,,,,,,,,z,,,,,,,,,,,,,,,153,0,679.812,680.444,,0,[-0.4544179523141655],[-0.30925666199158486],[1],[0],[0],[0.6309999999999718],"[""button_left_main""]",680.444,682.445,682.445,682.445,[],[],[],[],[],[],[],,682.445,682.445,-0.454417952,-0.309256662,0,0,0,,0,152,152,0,1,3,RL,afaneur,print,afaneur_p.png,,,
,,,,32144,001,2025-10-22_03h18.23.919,HW_LDT_1,2024.2.4,MacIntel,47.61904762,,,,,,,,,,,,,,,,,,,,682.447,682.645,682.645,683.144,,,,,,,,,,,,0.73,1,,,,,,,,,,,,,,z,,,,,,,,,,,,,,,154,0,683.145,683.877,,0,[-0.46984572230014027],[-0.3078541374474053],[1],[0],[0],[0.7300000000000182],"[""button_left_main""]",683.877,685.878,685.878,685.878,[],[],[],[],[],[],[],,685.878,685.878,-0.469845722,-0.307854137,0,0,0,,0,153,153,47,1,3,TL,elarobate,print,elarobate_p.png,,,
,,,,32144,001,2025-10-22_03h18.23.919,HW_LDT_1,2024.2.4,MacIntel,47.61904762,,,,,,,,,,,,,,,,,,,,685.88,686.078,686.078,686.578,,,,,,,,,,,,0.997,1,,,,,,,,,,,,,,m,,,,,,,,,,,,,,,155,0,686.578,687.577,,0,[0.5287517531556802],[-0.2657784011220196],[1],[0],[0],[0.9970000000000709],"[""button_right_main""]",687.577,689.578,689.578,689.578,[],[],[],[],[],[],[],,689.578,689.579,0.528751753,-0.265778401,0,0,0,,0,154,154,84,1,3,word,BELOVED,cursive,beloved_c.png,,,
,,,,32144,001,2025-10-22_03h18.23.919,HW_LDT_1,2024.2.4,MacIntel,47.61904762,,,,,,,,,,,,,,,,,,,,689.58,689.778,689.778,690.277,,,,,,,,,,,,0.647,1,,,,,,,,,,,,,,z,,,,,,,,,,,,,,,156,0,690.278,690.927,,0,[-0.4908835904628331],[-0.3078541374474053],[1],[0],[0],[0.6469999999999345],"[""button_left_main""]",690.927,692.927,692.928,692.928,[],[],[],[],[],[],[],,692.928,692.928,-0.49088359,-0.307854137,0,0,0,,0,155,155,66,1,3,TL,retalive,cursive,retalive_c.png,,,
,,,,32144,001,2025-10-22_03h18.23.919,HW_LDT_1,2024.2.4,MacIntel,47.61904762,,,,,,,,,,,,,,,,,,,,692.93,693.127,693.128,693.627,,,,,,,,,,,,0.644,1,,,,,,,,,,,,,,z,,,,,,,,,,,,,,,157,0,693.628,694.274,,0,[-0.5035063113604488],[-0.31486676016830295],[1],[0],[0],[0.6440000000000055],"[""button_left_main""]",694.274,696.277,696.277,696.278,[],[],[],[],[],[],[],,696.278,696.278,-0.503506311,-0.31486676,0,0,0,,0,156,156,20,1,3,RL,orimipal,cursive,orimipal_c.png,,,
,,,,32144,001,2025-10-22_03h18.23.919,HW_LDT_1,2024.2.4,MacIntel,47.61904762,,,,,,,,,,,,,,,,,,,,696.28,696.477,696.477,696.977,,,,,,,,,,,,1.731,1,,,,,,,,,,,,,,z,,,,,,,,,,,,,,,158,0,696.978,698.709,,0,[-0.5077138849929874],[-0.3232819074333801],[1],[0],[0],[1.7309999999999945],"[""button_left_main""]",698.709,700.71,700.71,700.711,[],[],[],[],[],[],[],,700.711,700.711,-0.507713885,-0.323281907,0,0,0,,0,157,157,68,1,3,TL,revomal,cursive,revomal_c.png,,,
,,,,32144,001,2025-10-22_03h18.23.919,HW_LDT_1,2024.2.4,MacIntel,47.61904762,,,,,,,,,,,,,,,,,,,,700.713,700.91,700.91,701.41,,,,,,,,,,,,0.83,1,,,,,,,,,,,,,,m,,,,,,,,,,,,,,,159,1,701.411,702.242,,0,[0.5582047685834503],[-0.25315568022440393],[1],[0],[0],[0.8300000000000409],"[""button_right_main""]",702.242,704.245,704.245,706.105,[0.5568022440392707],[-0.25315568022440393],[1],[0],[0],[1.8600000000000136],"[""button_right_probe""]",,706.105,706.105,0.556802244,-0.25315568,1,0,0,,0,158,158,94,1,3,word,CLINICAL,print,clinical_p.png,,,
,,,,32144,001,2025-10-22_03h18.23.919,HW_LDT_1,2024.2.4,MacIntel,47.61904762,,,,,,,,,,,,,,,,,,,,706.106,706.31,706.31,706.793,,,,,,,,,,,,1.28,1,,,,,,,,,,,,,,z,,,,,,,,,,,,,,,160,0,706.794,708.075,,0,[-0.544179523141655],[-0.31626928471248245],[1],[0],[0],[1.2799999999999727],"[""button_left_main""]",708.075,710.076,710.076,710.077,[],[],[],[],[],[],[],,710.077,710.077,-0.544179523,-0.316269285,0,0,0,,0,159,159,6,1,3,RL,cenesony,cursive,cenesony_c.png,,,
,,,,32144,001,2025-10-22_03h18.23.919,HW_LDT_1,2024.2.4,MacIntel,47.61904762,,,,,,,,,,,,,,,,,,,,,,,,,,,,,,,,,,,,,,,,,,,,,,,,,,,,,,,,,,,,,,,,,,,,,,,,,,,,,,,,,,,,,,,,,,,,,,,,,,,,,,,,,,,,,710.09,715.092
