counterbalance_lists.group,counterbalance_lists.remaining,get_list.started,get_list.stopped,participant,session,date,expName,psychopyVersion,OS,frameRate,Instructions.started,Instructions.stopped,key_resp.keys,key_resp.rt,key_resp.duration,instr_done_touch.x,instr_done_touch.y,instr_done_touch.leftButton,instr_done_touch.midButton,instr_done_touch.rightButton,start_instr.thisRepN,start_instr.thisTrialN,start_instr.thisN,start_instr.thisIndex,start_instr.ran,pageN,phase,instruct_text,has_image,instruct_image,showProgress.started,showProgress.stopped,fix.started,fix.stopped,prac.started,prac.stopped,response.keys,response.corr,response.rt,response.duration,touch_resp.x,touch_resp.y,touch_resp.leftButton,touch_resp.midButton,touch_resp.rightButton,touch_resp.time,touch_resp.clicked_name,rt,corr,feedback.started,feedback.stopped,trials.thisRepN,trials.thisTrialN,trials.thisN,trials.thisIndex,trials.ran,TrialID,StimulusType,Condition,PrimeDuration,Prime,Target,corrAns,Instructions_expt.started,Instructions_expt.stopped,key_resp_3.keys,key_resp_3.rt,key_resp_3.duration,instr_done_touch_3.x,instr_done_touch_3.y,instr_done_touch_3.leftButton,instr_done_touch_3.midButton,instr_done_touch_3.rightButton,instr_experiment.thisRepN,instr_experiment.thisTrialN,instr_experiment.thisN,instr_experiment.thisIndex,instr_experiment.ran,trialID,flag,maintask.started,maintask.stopped,key_resp_2.keys,key_resp_2.corr,key_resp_2.rt,key_resp_2.duration,targ_click.x,targ_click.y,targ_click.leftButton,targ_click.midButton,targ_click.rightButton,targ_click.time,targ_click.clicked_name,ITI.started,ITI.stopped,probe.started,probe.stopped,click_probe.x,click_probe.y,click_probe.leftButton,click_probe.midButton,click_probe.rightButton,click_probe.time,click_probe.clicked_name,key_resp_probe.keys,key_resp_probe.rt,key_resp_probe.duration,Break.started,Break.stopped,break_done_touch.x,break_done_touch.y,break_done_touch.leftButton,break_done_touch.midButton,break_done_touch.rightButton,break_done_keyboard.keys,list3_trials.thisRepN,list3_trials.thisTrialN,list3_trials.thisN,list3_trials.thisIndex,list3_trials.ran,list_id,item_type,string,font,stim_file,break_done_keyboard.rt,break_done_keyboard.duration,End.started,End.stopped
list3,,60.52,60.52,32141,001,2025-12-01_16h04.27.708,HW_LDT_1,2024.2.4,MacIntel,58.82352941,,,,,,,,,,,,,,,,,,,,,,,,,,,,,,,,,,,,,,,,,,,,,,,,,,,,,,,,,,,,,,,,,,,,,,,,,,,,,,,,,,,,,,,,,,,,,,,,,,,,,,,,,,,,,,,,,,,,,,,
,,,,32141,001,2025-12-01_16h04.27.708,HW_LDT_1,2024.2.4,MacIntel,58.82352941,60.541,66.272,space,5.688,,0.084615385,-0.383333333,0,0,0,0,0,0,0,1,1,instructions,"INSTRUCTIONS
At the start of each trial, look at the plus sign  (+) in the center of the screen.  This tells you that a trial is about to begin and where to look. Second, the plus sign will disappear and a string of letters will appear. Your task is to determine if the string of letters is a word or not. If the item is a word press the M key (on keyboard)  or touch the word button (phone/tablet).  If the item is not a word,  press the  Z key (on keyboard)  or touch the nonword button (on phone/tablet). The items will be presented for a short time. 
Press the space bar or touch  continue.",0,,,,,,,,,,,,,,,,,,,,,,,,,,,,,,,,,,,,,,,,,,,,,,,,,,,,,,,,,,,,,,,,,,,,,,,,,,,,,,,,,,,,,,,,,,,,,,,,,,,,
,,,,32141,001,2025-12-01_16h04.27.708,HW_LDT_1,2024.2.4,MacIntel,58.82352941,66.274,80.829,space,14.527,,0.084615385,-0.383333333,0,0,0,0,1,1,1,1,2,instructions,"If your device has a keyboard, press the 'Z' key for nonwords and the 'M' key for words.





Press the space bar or touch the button below to continue.",0,keyboard-example.gif,,,,,,,,,,,,,,,,,,,,,,,,,,,,,,,,,,,,,,,,,,,,,,,,,,,,,,,,,,,,,,,,,,,,,,,,,,,,,,,,,,,,,,,,,,,,,,,,,,,
,,,,32141,001,2025-12-01_16h04.27.708,HW_LDT_1,2024.2.4,MacIntel,58.82352941,80.832,88.412,space,7.563,,0.084615385,-0.383333333,0,0,0,0,2,2,2,1,3,instructions,"If you are using a touchscreen only device, use the buttons on the screen. Do not use the mouse.





Press the space bar or touch the button below to continue.",0,touchscreen-example.gif,,,,,,,,,,,,,,,,,,,,,,,,,,,,,,,,,,,,,,,,,,,,,,,,,,,,,,,,,,,,,,,,,,,,,,,,,,,,,,,,,,,,,,,,,,,,,,,,,,,
,,,,32141,001,2025-12-01_16h04.27.708,HW_LDT_1,2024.2.4,MacIntel,58.82352941,88.415,105.446,space,17.002,,0.084615385,-0.383333333,0,0,0,0,3,3,3,1,4,instructions,"It is very important that you respond as quickly and accurately as possible, as each letter string will only be on the screen for two seconds. If you do not respond within this time, the message 'Too slow!' will be displayed and the experiment will progress to the next letter string. The first 20 trials will be practice trials and you will receive feedback on your answers. 

Press the space bar or touch the button below to start the practice trials.",0,,,,,,,,,,,,,,,,,,,,,,,,,,,,,,,,,,,,,,,,,,,,,,,,,,,,,,,,,,,,,,,,,,,,,,,,,,,,,,,,,,,,,,,,,,,,,,,,,,,,
,,,,32141,001,2025-12-01_16h04.27.708,HW_LDT_1,2024.2.4,MacIntel,58.82352941,,,,,,,,,,,,,,,,,,,,,105.475,105.647,105.647,106.147,106.148,107.397,z,1,1.224,,[],[],[],[],[],[],[],1.224,1,107.398,107.897,0,0,0,15,1,1016,NW,UN,16,mushed,WHAISE,z,,,,,,,,,,,,,,,,,,,,,,,,,,,,,,,,,,,,,,,,,,,,,,,,,,,,,,,,,,,,,,,,,,
,,,,32141,001,2025-12-01_16h04.27.708,HW_LDT_1,2024.2.4,MacIntel,58.82352941,,,,,,,,,,,,,,,,,,,,,107.899,108.096,108.096,108.596,108.597,109.353,m,1,0.733,,[],[],[],[],[],[],[],0.733,1,109.353,109.846,0,1,1,0,1,1001,WORD,"ID",33,utopia,UTOPIA,m,,,,,,,,,,,,,,,,,,,,,,,,,,,,,,,,,,,,,,,,,,,,,,,,,,,,,,,,,,,,,,,,,,
,,,,32141,001,2025-12-01_16h04.27.708,HW_LDT_1,2024.2.4,MacIntel,58.82352941,,,,,,,,,,,,,,,,,,,,,109.848,110.046,110.046,110.546,110.547,111.179,m,1,0.616,,[],[],[],[],[],[],[],0.616,1,111.179,111.679,0,2,2,3,1,1004,WORD,"ID",16,matrix,MATRIX,m,,,,,,,,,,,,,,,,,,,,,,,,,,,,,,,,,,,,,,,,,,,,,,,,,,,,,,,,,,,,,,,,,,
,,,,32141,001,2025-12-01_16h04.27.708,HW_LDT_1,2024.2.4,MacIntel,58.82352941,,,,,,,,,,,,,,,,,,,,,111.681,111.879,111.879,112.379,112.38,113.379,z,1,0.984,,[],[],[],[],[],[],[],0.984,1,113.38,113.879,0,3,3,12,1,1013,NW,UN,33,adveil,SPRINY,z,,,,,,,,,,,,,,,,,,,,,,,,,,,,,,,,,,,,,,,,,,,,,,,,,,,,,,,,,,,,,,,,,,
,,,,32141,001,2025-12-01_16h04.27.708,HW_LDT_1,2024.2.4,MacIntel,58.82352941,,,,,,,,,,,,,,,,,,,,,113.881,114.079,114.079,114.579,114.581,115.479,m,0,0.879,,[],[],[],[],[],[],[],0.879,0,115.48,115.979,0,4,4,9,1,1010,NW,"ID",33,fariny,FARINY,z,,,,,,,,,,,,,,,,,,,,,,,,,,,,,,,,,,,,,,,,,,,,,,,,,,,,,,,,,,,,,,,,,,
,,,,32141,001,2025-12-01_16h04.27.708,HW_LDT_1,2024.2.4,MacIntel,58.82352941,,,,,,,,,,,,,,,,,,,,,115.981,116.179,116.179,116.679,116.68,117.329,m,1,0.635,,[],[],[],[],[],[],[],0.635,1,117.331,117.829,0,5,5,1,1,1002,WORD,"ID",33,adjust,ADJUST,m,,,,,,,,,,,,,,,,,,,,,,,,,,,,,,,,,,,,,,,,,,,,,,,,,,,,,,,,,,,,,,,,,,
,,,,32141,001,2025-12-01_16h04.27.708,HW_LDT_1,2024.2.4,MacIntel,58.82352941,,,,,,,,,,,,,,,,,,,,,117.831,118.029,118.029,118.529,118.531,119.168,m,1,0.617,,[],[],[],[],[],[],[],0.617,1,119.168,119.663,0,6,6,6,1,1007,WORD,UN,16,tropic,ZOMBIE,m,,,,,,,,,,,,,,,,,,,,,,,,,,,,,,,,,,,,,,,,,,,,,,,,,,,,,,,,,,,,,,,,,,
,,,,32141,001,2025-12-01_16h04.27.708,HW_LDT_1,2024.2.4,MacIntel,58.82352941,,,,,,,,,,,,,,,,,,,,,119.665,119.862,119.863,120.362,120.364,121.279,z,1,0.9,,[],[],[],[],[],[],[],0.9,1,121.279,121.779,0,7,7,8,1,1009,NW,"ID",33,aslert,ASLERT,z,,,,,,,,,,,,,,,,,,,,,,,,,,,,,,,,,,,,,,,,,,,,,,,,,,,,,,,,,,,,,,,,,,
,,,,32141,001,2025-12-01_16h04.27.708,HW_LDT_1,2024.2.4,MacIntel,58.82352941,,,,,,,,,,,,,,,,,,,,,121.781,121.979,121.979,122.479,122.48,123.647,z,1,1.158,,[],[],[],[],[],[],[],1.158,1,123.647,124.146,0,8,8,14,1,1015,NW,UN,16,miaber,THRALE,z,,,,,,,,,,,,,,,,,,,,,,,,,,,,,,,,,,,,,,,,,,,,,,,,,,,,,,,,,,,,,,,,,,
,,,,32141,001,2025-12-01_16h04.27.708,HW_LDT_1,2024.2.4,MacIntel,58.82352941,,,,,,,,,,,,,,,,,,,,,124.148,124.346,124.346,124.846,124.847,125.762,z,1,0.903,,[],[],[],[],[],[],[],0.903,1,125.763,126.263,0,9,9,11,1,1012,NW,"ID",16,rashet,RASHET,z,,,,,,,,,,,,,,,,,,,,,,,,,,,,,,,,,,,,,,,,,,,,,,,,,,,,,,,,,,,,,,,,,,
,,,,32141,001,2025-12-01_16h04.27.708,HW_LDT_1,2024.2.4,MacIntel,58.82352941,,,,,,,,,,,,,,,,,,,,,126.264,126.462,126.463,126.963,126.964,127.553,m,1,0.572,,[],[],[],[],[],[],[],0.572,1,127.553,128.046,0,10,10,5,1,1006,WORD,UN,33,frenzy,OBTAIN,m,,,,,,,,,,,,,,,,,,,,,,,,,,,,,,,,,,,,,,,,,,,,,,,,,,,,,,,,,,,,,,,,,,
,,,,32141,001,2025-12-01_16h04.27.708,HW_LDT_1,2024.2.4,MacIntel,58.82352941,,,,,,,,,,,,,,,,,,,,,128.048,128.246,128.246,128.746,128.747,129.346,m,1,0.58,,[],[],[],[],[],[],[],0.58,1,129.346,129.846,0,11,11,2,1,1003,WORD,"ID",16,almond,ALMOND,m,,,,,,,,,,,,,,,,,,,,,,,,,,,,,,,,,,,,,,,,,,,,,,,,,,,,,,,,,,,,,,,,,,
,,,,32141,001,2025-12-01_16h04.27.708,HW_LDT_1,2024.2.4,MacIntel,58.82352941,,,,,,,,,,,,,,,,,,,,,129.847,130.045,130.045,130.546,130.547,131.17,m,1,0.605,,[],[],[],[],[],[],[],0.605,1,131.17,131.662,0,12,12,4,1,1005,WORD,UN,33,abound,SQUEAK,m,,,,,,,,,,,,,,,,,,,,,,,,,,,,,,,,,,,,,,,,,,,,,,,,,,,,,,,,,,,,,,,,,,
,,,,32141,001,2025-12-01_16h04.27.708,HW_LDT_1,2024.2.4,MacIntel,58.82352941,,,,,,,,,,,,,,,,,,,,,131.664,131.862,131.862,132.362,132.364,133.062,z,1,0.689,,[],[],[],[],[],[],[],0.689,1,133.063,133.562,0,13,13,13,1,1014,NW,UN,33,winfer,ROUPET,z,,,,,,,,,,,,,,,,,,,,,,,,,,,,,,,,,,,,,,,,,,,,,,,,,,,,,,,,,,,,,,,,,,
,,,,32141,001,2025-12-01_16h04.27.708,HW_LDT_1,2024.2.4,MacIntel,58.82352941,,,,,,,,,,,,,,,,,,,,,133.564,133.762,133.762,134.262,134.264,135.246,m,0,0.969,,[],[],[],[],[],[],[],0.969,0,135.246,135.746,0,14,14,10,1,1011,NW,"ID",16,inlade,INLADE,z,,,,,,,,,,,,,,,,,,,,,,,,,,,,,,,,,,,,,,,,,,,,,,,,,,,,,,,,,,,,,,,,,,
,,,,32141,001,2025-12-01_16h04.27.708,HW_LDT_1,2024.2.4,MacIntel,58.82352941,,,,,,,,,,,,,,,,,,,,,135.748,135.946,135.946,136.446,136.447,137.07,m,1,0.605,,[],[],[],[],[],[],[],0.605,1,137.071,137.562,0,15,15,7,1,1008,WORD,UN,16,hurdle,VOLUME,m,,,,,,,,,,,,,,,,,,,,,,,,,,,,,,,,,,,,,,,,,,,,,,,,,,,,,,,,,,,,,,,,,,
,,,,32141,001,2025-12-01_16h04.27.708,HW_LDT_1,2024.2.4,MacIntel,58.82352941,,,,,,,,,,,,,,,,1,end_of_practice,"You have completed the practice trials. During the experimental trials, you will not receive feedback. On some trials you will be asked to report whether the item you just saw was in cursive or print. 
Before you begin, please ensure that you are in a comfortable and quiet location and will not be disturbed for about 15 minutes, as we cannot use your data if you do not complete all the trials. 
 When you are ready to start the experimental trials, please press space or touch the button below.",,,,,,,,,,,,,,,,,,,,,,,,,,,,,,,,,,,,137.573,163.297,space,25.693,,0.084615385,-0.383333333,0,0,0,0,0,0,0,1,,,,,,,,,,,,,,,,,,,,,,,,,,,,,,,,,,,,,,,,,,,,,,,,,,,
,,,,32141,001,2025-12-01_16h04.27.708,HW_LDT_1,2024.2.4,MacIntel,58.82352941,,,,,,,,,,,,,,,,,,,,,163.312,163.496,163.496,163.996,,,,,,,,,,,,,,2.109,0,,,,,,,,,,,,,,z,,,,,,,,,,,,,,,,1,1,163.997,166.12,m,0,2.109,,[],[],[],[],[],[],[],166.121,168.113,168.114,171.93,[],[],[],[],[],[],[],m,3.8,,171.931,171.935,0.084615385,-0.383333333,0,0,0,,0,0,0,53,1,3,TL,marnigal,print,marnigal_p.png,,,,
,,,,32141,001,2025-12-01_16h04.27.708,HW_LDT_1,2024.2.4,MacIntel,58.82352941,,,,,,,,,,,,,,,,,,,,,171.936,172.129,172.129,172.629,,,,,,,,,,,,,,1.338,1,,,,,,,,,,,,,,m,,,,,,,,,,,,,,,,2,0,172.63,173.979,m,1,1.338,,[],[],[],[],[],[],[],173.979,175.979,175.979,175.98,[],[],[],[],[],[],[],,,,175.98,175.98,0.084615385,-0.383333333,0,0,0,,0,1,1,101,1,3,word,DELICATE,print,delicate_p.png,,,,
,,,,32141,001,2025-12-01_16h04.27.708,HW_LDT_1,2024.2.4,MacIntel,58.82352941,,,,,,,,,,,,,,,,,,,,,175.982,176.179,176.179,176.679,,,,,,,,,,,,,,1.174,0,,,,,,,,,,,,,,z,,,,,,,,,,,,,,,,3,0,176.68,177.862,m,0,1.174,,[],[],[],[],[],[],[],177.862,179.862,179.862,179.863,[],[],[],[],[],[],[],,,,179.863,179.863,0.084615385,-0.383333333,0,0,0,,0,2,2,39,1,3,TL,clicinal,print,clicinal_p.png,,,,
,,,,32141,001,2025-12-01_16h04.27.708,HW_LDT_1,2024.2.4,MacIntel,58.82352941,,,,,,,,,,,,,,,,,,,,,179.865,180.062,180.062,180.562,,,,,,,,,,,,,,1.578,1,,,,,,,,,,,,,,m,,,,,,,,,,,,,,,,4,0,180.563,182.153,m,1,1.578,,[],[],[],[],[],[],[],182.153,184.146,184.146,184.146,[],[],[],[],[],[],[],,,,184.146,184.146,0.084615385,-0.383333333,0,0,0,,0,3,3,157,1,3,word,VALIDITY,cursive,validity_c.png,,,,
,,,,32141,001,2025-12-01_16h04.27.708,HW_LDT_1,2024.2.4,MacIntel,58.82352941,,,,,,,,,,,,,,,,,,,,,184.148,184.346,184.346,184.846,,,,,,,,,,,,,,1.724,1,,,,,,,,,,,,,,z,,,,,,,,,,,,,,,,5,0,184.846,186.579,z,1,1.724,,[],[],[],[],[],[],[],186.579,188.579,188.579,188.579,[],[],[],[],[],[],[],,,,188.58,188.58,0.084615385,-0.383333333,0,0,0,,0,4,4,36,1,3,TL,carema,cursive,carema_c.png,,,,
,,,,32141,001,2025-12-01_16h04.27.708,HW_LDT_1,2024.2.4,MacIntel,58.82352941,,,,,,,,,,,,,,,,,,,,,188.581,188.779,188.779,189.279,,,,,,,,,,,,,,0.808,0,,,,,,,,,,,,,,z,,,,,,,,,,,,,,,,6,0,189.279,190.095,m,0,0.808,,[],[],[],[],[],[],[],190.095,192.096,192.096,192.096,[],[],[],[],[],[],[],,,,192.096,192.096,0.084615385,-0.383333333,0,0,0,,0,5,5,63,1,3,TL,racidal,cursive,racidal_c.png,,,,
,,,,32141,001,2025-12-01_16h04.27.708,HW_LDT_1,2024.2.4,MacIntel,58.82352941,,,,,,,,,,,,,,,,,,,,,192.098,192.296,192.296,192.796,,,,,,,,,,,,,,0.804,1,,,,,,,,,,,,,,m,,,,,,,,,,,,,,,,7,0,192.796,193.612,m,1,0.804,,[],[],[],[],[],[],[],193.612,195.612,195.612,195.613,[],[],[],[],[],[],[],,,,195.613,195.613,0.084615385,-0.383333333,0,0,0,,0,6,6,130,1,3,word,POLICY,print,policy_p.png,,,,
,,,,32141,001,2025-12-01_16h04.27.708,HW_LDT_1,2024.2.4,MacIntel,58.82352941,,,,,,,,,,,,,,,,,,,,,195.614,195.812,195.812,196.311,,,,,,,,,,,,,,0.808,1,,,,,,,,,,,,,,z,,,,,,,,,,,,,,,,8,0,196.312,197.129,z,1,0.808,,[],[],[],[],[],[],[],197.129,199.129,199.129,199.13,[],[],[],[],[],[],[],,,,199.13,199.13,0.084615385,-0.383333333,0,0,0,,0,7,7,46,1,3,TL,distupe,print,distupe_p.png,,,,
,,,,32141,001,2025-12-01_16h04.27.708,HW_LDT_1,2024.2.4,MacIntel,58.82352941,,,,,,,,,,,,,,,,,,,,,199.132,199.329,199.329,199.829,,,,,,,,,,,,,,2.307,0,,,,,,,,,,,,,,m,,,,,,,,,,,,,,,,9,0,199.83,202.146,z,0,2.307,,[],[],[],[],[],[],[],202.146,204.146,204.146,204.146,[],[],[],[],[],[],[],,,,204.146,204.147,0.084615385,-0.383333333,0,0,0,,0,8,8,121,1,3,word,MISTAKE,cursive,mistake_c.png,,,,
,,,,32141,001,2025-12-01_16h04.27.708,HW_LDT_1,2024.2.4,MacIntel,58.82352941,,,,,,,,,,,,,,,,,,,,,204.148,204.346,204.346,204.845,,,,,,,,,,,,,,3.002,1,,,,,,,,,,,,,,z,,,,,,,,,,,,,,,,10,0,204.846,207.862,z,1,3.002,,[],[],[],[],[],[],[],207.862,209.862,209.862,209.863,[],[],[],[],[],[],[],,,,209.863,209.863,0.084615385,-0.383333333,0,0,0,,0,9,9,59,1,3,TL,paficic,cursive,paficic_c.png,,,,
,,,,32141,001,2025-12-01_16h04.27.708,HW_LDT_1,2024.2.4,MacIntel,58.82352941,,,,,,,,,,,,,,,,,,,,,209.865,210.061,210.061,210.562,,,,,,,,,,,,,,0.74,1,,,,,,,,,,,,,,m,,,,,,,,,,,,,,,,11,0,210.563,211.312,m,1,0.74,,[],[],[],[],[],[],[],211.312,213.312,213.312,213.313,[],[],[],[],[],[],[],,,,213.313,213.314,0.084615385,-0.383333333,0,0,0,,0,10,10,146,1,3,word,RETIRE,print,retire_p.png,,,,
,,,,32141,001,2025-12-01_16h04.27.708,HW_LDT_1,2024.2.4,MacIntel,58.82352941,,,,,,,,,,,,,,,,,,,,,213.315,213.512,213.512,214.012,,,,,,,,,,,,,,0.675,1,,,,,,,,,,,,,,m,,,,,,,,,,,,,,,,12,0,214.013,214.702,m,1,0.675,,[],[],[],[],[],[],[],214.702,216.696,216.696,216.696,[],[],[],[],[],[],[],,,,216.696,216.697,0.084615385,-0.383333333,0,0,0,,0,11,11,151,1,3,word,SPECIFIC,print,specific_p.png,,,,
,,,,32141,001,2025-12-01_16h04.27.708,HW_LDT_1,2024.2.4,MacIntel,58.82352941,,,,,,,,,,,,,,,,,,,,,216.698,216.896,216.896,217.395,,,,,,,,,,,,,,0.64,1,,,,,,,,,,,,,,m,,,,,,,,,,,,,,,,13,1,217.396,218.045,m,1,0.64,,[],[],[],[],[],[],[],218.045,220.045,220.046,239.55,[],[],[],[],[],[],[],m,19.491,,239.55,239.55,0.084615385,-0.383333333,0,0,0,,0,12,12,138,1,3,word,REFUSAL,print,refusal_p.png,,,,
,,,,32141,001,2025-12-01_16h04.27.708,HW_LDT_1,2024.2.4,MacIntel,58.82352941,,,,,,,,,,,,,,,,,,,,,239.55,239.746,239.746,240.246,,,,,,,,,,,,,,2.157,0,,,,,,,,,,,,,,m,,,,,,,,,,,,,,,,14,1,240.246,242.412,z,0,2.157,,[],[],[],[],[],[],[],242.412,244.412,244.412,246.179,[],[],[],[],[],[],[],z,1.761,,246.179,246.179,0.084615385,-0.383333333,0,0,0,,0,13,13,88,1,3,word,CAMERA,cursive,camera_c.png,,,,
,,,,32141,001,2025-12-01_16h04.27.708,HW_LDT_1,2024.2.4,MacIntel,58.82352941,,,,,,,,,,,,,,,,,,,,,246.18,246.379,246.379,246.879,,,,,,,,,,,,,,2.473,1,,,,,,,,,,,,,,z,,,,,,,,,,,,,,,,15,0,246.879,249.362,z,1,2.473,,[],[],[],[],[],[],[],249.362,251.362,251.362,251.363,[],[],[],[],[],[],[],,,,251.363,251.363,0.084615385,-0.383333333,0,0,0,,0,14,14,43,1,3,TL,dedace,cursive,dedace_c.png,,,,
,,,,32141,001,2025-12-01_16h04.27.708,HW_LDT_1,2024.2.4,MacIntel,58.82352941,,,,,,,,,,,,,,,,,,,,,251.364,251.562,251.562,252.062,,,,,,,,,,,,,,2.956,1,,,,,,,,,,,,,,z,,,,,,,,,,,,,,,,16,1,252.063,255.029,z,1,2.956,,[],[],[],[],[],[],[],255.029,257.028,257.028,258.479,[],[],[],[],[],[],[],z,1.443,,258.479,258.479,0.084615385,-0.383333333,0,0,0,,0,15,15,57,1,3,TL,moredate,cursive,moredate_c.png,,,,
,,,,32141,001,2025-12-01_16h04.27.708,HW_LDT_1,2024.2.4,MacIntel,58.82352941,,,,,,,,,,,,,,,,,,,,,258.481,258.679,258.679,259.179,,,,,,,,,,,,,,0.841,1,,,,,,,,,,,,,,m,,,,,,,,,,,,,,,,17,0,259.179,260.028,m,1,0.841,,[],[],[],[],[],[],[],260.028,262.029,262.029,262.029,[],[],[],[],[],[],[],,,,262.029,262.03,0.084615385,-0.383333333,0,0,0,,0,16,16,142,1,3,word,REMOTE,print,remote_p.png,,,,
,,,,32141,001,2025-12-01_16h04.27.708,HW_LDT_1,2024.2.4,MacIntel,58.82352941,,,,,,,,,,,,,,,,,,,,,262.031,262.229,262.229,262.729,,,,,,,,,,,,,,1.21,1,,,,,,,,,,,,,,m,,,,,,,,,,,,,,,,18,0,262.729,263.953,m,1,1.21,,[],[],[],[],[],[],[],263.953,265.945,265.945,265.946,[],[],[],[],[],[],[],,,,265.946,265.946,0.084615385,-0.383333333,0,0,0,,0,17,17,136,1,3,word,RADICAL,cursive,radical_c.png,,,,
,,,,32141,001,2025-12-01_16h04.27.708,HW_LDT_1,2024.2.4,MacIntel,58.82352941,,,,,,,,,,,,,,,,,,,,,265.948,266.145,266.146,266.645,,,,,,,,,,,,,,0.99,1,,,,,,,,,,,,,,m,,,,,,,,,,,,,,,,19,0,266.646,267.651,m,1,0.99,,[],[],[],[],[],[],[],267.651,269.645,269.645,269.646,[],[],[],[],[],[],[],,,,269.646,269.647,0.084615385,-0.383333333,0,0,0,,0,18,18,147,1,3,word,ROMANTIC,cursive,romantic_c.png,,,,
,,,,32141,001,2025-12-01_16h04.27.708,HW_LDT_1,2024.2.4,MacIntel,58.82352941,,,,,,,,,,,,,,,,,,,,,269.648,269.845,269.846,270.345,,,,,,,,,,,,,,3.878,0,,,,,,,,,,,,,,m,,,,,,,,,,,,,,,,20,0,270.346,274.229,z,0,3.878,,[],[],[],[],[],[],[],274.229,276.229,276.229,276.229,[],[],[],[],[],[],[],,,,276.23,276.23,0.084615385,-0.383333333,0,0,0,,0,19,19,140,1,3,word,RELATIVE,cursive,relative_c.png,,,,
,,,,32141,001,2025-12-01_16h04.27.708,HW_LDT_1,2024.2.4,MacIntel,58.82352941,,,,,,,,,,,,,,,,,,,,,276.231,276.428,276.428,276.929,,,,,,,,,,,,,,0.758,1,,,,,,,,,,,,,,m,,,,,,,,,,,,,,,,21,1,276.929,277.695,m,1,0.758,,[],[],[],[],[],[],[],277.696,279.695,279.695,281.379,[],[],[],[],[],[],[],m,1.675,,281.379,281.379,0.084615385,-0.383333333,0,0,0,,0,20,20,111,1,3,word,INDICATE,print,indicate_p.png,,,,
,,,,32141,001,2025-12-01_16h04.27.708,HW_LDT_1,2024.2.4,MacIntel,58.82352941,,,,,,,,,,,,,,,,,,,,,281.38,281.579,281.579,282.079,,,,,,,,,,,,,,0.72,1,,,,,,,,,,,,,,m,,,,,,,,,,,,,,,,22,0,282.079,282.812,m,1,0.72,,[],[],[],[],[],[],[],282.812,284.811,284.811,284.812,[],[],[],[],[],[],[],,,,284.812,284.812,0.084615385,-0.383333333,0,0,0,,0,21,21,98,1,3,word,CRIMINAL,print,criminal_p.png,,,,
,,,,32141,001,2025-12-01_16h04.27.708,HW_LDT_1,2024.2.4,MacIntel,58.82352941,,,,,,,,,,,,,,,,,,,,,284.813,285.011,285.011,285.512,,,,,,,,,,,,,,3.111,1,,,,,,,,,,,,,,z,,,,,,,,,,,,,,,,23,0,285.513,288.628,z,1,3.111,,[],[],[],[],[],[],[],288.628,290.629,290.629,290.63,[],[],[],[],[],[],[],,,,290.63,290.63,0.084615385,-0.383333333,0,0,0,,0,22,22,70,1,3,TL,remuse,cursive,remuse_c.png,,,,
,,,,32141,001,2025-12-01_16h04.27.708,HW_LDT_1,2024.2.4,MacIntel,58.82352941,,,,,,,,,,,,,,,,,,,,,290.632,290.829,290.829,291.329,,,,,,,,,,,,,,0.71,1,,,,,,,,,,,,,,m,,,,,,,,,,,,,,,,24,0,291.329,292.052,m,1,0.71,,[],[],[],[],[],[],[],292.053,294.045,294.045,294.046,[],[],[],[],[],[],[],,,,294.046,294.046,0.084615385,-0.383333333,0,0,0,,0,23,23,131,1,3,word,POPULAR,print,popular_p.png,,,,
,,,,32141,001,2025-12-01_16h04.27.708,HW_LDT_1,2024.2.4,MacIntel,58.82352941,,,,,,,,,,,,,,,,,,,,,294.048,294.245,294.245,294.745,,,,,,,,,,,,,,2.396,1,,,,,,,,,,,,,,z,,,,,,,,,,,,,,,,25,0,294.746,297.146,z,1,2.396,,[],[],[],[],[],[],[],297.146,299.145,299.145,299.146,[],[],[],[],[],[],[],,,,299.146,299.146,0.084615385,-0.383333333,0,0,0,,0,24,24,72,1,3,TL,senmitent,print,senmitent_p.png,,,,
,,,,32141,001,2025-12-01_16h04.27.708,HW_LDT_1,2024.2.4,MacIntel,58.82352941,,,,,,,,,,,,,,,,,,,,,299.148,299.345,299.345,299.845,,,,,,,,,,,,,,1.674,1,,,,,,,,,,,,,,m,,,,,,,,,,,,,,,,26,0,299.846,301.534,m,1,1.674,,[],[],[],[],[],[],[],301.534,303.529,303.529,303.529,[],[],[],[],[],[],[],,,,303.529,303.529,0.084615385,-0.383333333,0,0,0,,0,25,25,154,1,3,word,STORAGE,cursive,storage_c.png,,,,
,,,,32141,001,2025-12-01_16h04.27.708,HW_LDT_1,2024.2.4,MacIntel,58.82352941,,,,,,,,,,,,,,,,,,,,,303.531,303.729,303.729,304.229,,,,,,,,,,,,,,0.755,0,,,,,,,,,,,,,,z,,,,,,,,,,,,,,,,27,0,304.229,304.995,m,0,0.755,,[],[],[],[],[],[],[],304.995,306.995,306.995,306.996,[],[],[],[],[],[],[],,,,306.996,306.996,0.084615385,-0.383333333,0,0,0,,0,26,26,47,1,3,TL,elarobate,print,elarobate_p.png,,,,
,,,,32141,001,2025-12-01_16h04.27.708,HW_LDT_1,2024.2.4,MacIntel,58.82352941,,,,,,,,,,,,,,,,,,,,,306.997,307.195,307.195,307.695,,,,,,,,,,,,,,0.919,1,,,,,,,,,,,,,,m,,,,,,,,,,,,,,,,28,0,307.696,308.629,m,1,0.919,,[],[],[],[],[],[],[],308.629,310.629,310.629,310.629,[],[],[],[],[],[],[],,,,310.63,310.63,0.084615385,-0.383333333,0,0,0,,0,27,27,103,1,3,word,DISPUTE,print,dispute_p.png,,,,
,,,,32141,001,2025-12-01_16h04.27.708,HW_LDT_1,2024.2.4,MacIntel,58.82352941,,,,,,,,,,,,,,,,,,,,,310.632,310.829,310.829,311.329,,,,,,,,,,,,,,1.924,1,,,,,,,,,,,,,,z,,,,,,,,,,,,,,,,29,0,311.329,313.262,z,1,1.924,,[],[],[],[],[],[],[],313.262,315.262,315.262,315.262,[],[],[],[],[],[],[],,,,315.263,315.263,0.084615385,-0.383333333,0,0,0,,0,28,28,71,1,3,TL,sanile,cursive,sanile_c.png,,,,
,,,,32141,001,2025-12-01_16h04.27.708,HW_LDT_1,2024.2.4,MacIntel,58.82352941,,,,,,,,,,,,,,,,,,,,,315.265,315.462,315.462,315.962,,,,,,,,,,,,,,2.421,0,,,,,,,,,,,,,,m,,,,,,,,,,,,,,,,30,0,315.963,318.395,z,0,2.421,,[],[],[],[],[],[],[],318.395,320.395,320.395,320.396,[],[],[],[],[],[],[],,,,320.396,320.396,0.084615385,-0.383333333,0,0,0,,0,29,29,90,1,3,word,CAPITAL,cursive,capital_c.png,,,,
,,,,32141,001,2025-12-01_16h04.27.708,HW_LDT_1,2024.2.4,MacIntel,58.82352941,,,,,,,,,,,,,,,,,,,,,320.397,320.595,320.595,321.095,,,,,,,,,,,,,,0.739,1,,,,,,,,,,,,,,m,,,,,,,,,,,,,,,,31,0,321.096,321.845,m,1,0.739,,[],[],[],[],[],[],[],321.845,323.845,323.845,323.846,[],[],[],[],[],[],[],,,,323.846,323.847,0.084615385,-0.383333333,0,0,0,,0,30,30,155,1,3,word,STRATEGY,print,strategy_p.png,,,,
,,,,32141,001,2025-12-01_16h04.27.708,HW_LDT_1,2024.2.4,MacIntel,58.82352941,,,,,,,,,,,,,,,,,,,,,323.848,324.045,324.045,324.545,,,,,,,,,,,,,,1.996,1,,,,,,,,,,,,,,z,,,,,,,,,,,,,,,,32,0,324.546,326.546,z,1,1.996,,[],[],[],[],[],[],[],326.546,328.545,328.545,328.546,[],[],[],[],[],[],[],,,,328.546,328.546,0.084615385,-0.383333333,0,0,0,,0,31,31,56,1,3,TL,meromy,print,meromy_p.png,,,,
,,,,32141,001,2025-12-01_16h04.27.708,HW_LDT_1,2024.2.4,MacIntel,58.82352941,,,,,,,,,,,,,,,,,,,,,328.548,328.745,328.745,329.245,,,,,,,,,,,,,,2.308,1,,,,,,,,,,,,,,z,,,,,,,,,,,,,,,,33,0,329.246,331.562,z,1,2.308,,[],[],[],[],[],[],[],331.562,333.562,333.562,333.563,[],[],[],[],[],[],[],,,,333.563,333.563,0.084615385,-0.383333333,0,0,0,,0,32,32,11,1,3,RL,ebiwent,cursive,ebiwent_c.png,,,,
,,,,32141,001,2025-12-01_16h04.27.708,HW_LDT_1,2024.2.4,MacIntel,58.82352941,,,,,,,,,,,,,,,,,,,,,333.564,333.762,333.762,334.262,,,,,,,,,,,,,,1.407,1,,,,,,,,,,,,,,m,,,,,,,,,,,,,,,,34,0,334.262,335.679,m,1,1.407,,[],[],[],[],[],[],[],335.679,337.679,337.679,337.679,[],[],[],[],[],[],[],,,,337.679,337.679,0.084615385,-0.383333333,0,0,0,,0,33,33,150,1,3,word,SENTIMENT,print,sentiment_p.png,,,,
,,,,32141,001,2025-12-01_16h04.27.708,HW_LDT_1,2024.2.4,MacIntel,58.82352941,,,,,,,,,,,,,,,,,,,,,337.681,337.879,337.879,338.378,,,,,,,,,,,,,,0.96,1,,,,,,,,,,,,,,m,,,,,,,,,,,,,,,,35,0,338.379,339.353,m,1,0.96,,[],[],[],[],[],[],[],339.353,341.345,341.345,341.346,[],[],[],[],[],[],[],,,,341.346,341.346,0.084615385,-0.383333333,0,0,0,,0,34,34,156,1,3,word,TRIBUTE,print,tribute_p.png,,,,
,,,,32141,001,2025-12-01_16h04.27.708,HW_LDT_1,2024.2.4,MacIntel,58.82352941,,,,,,,,,,,,,,,,,,,,,341.347,341.545,341.545,342.045,,,,,,,,,,,,,,3.573,1,,,,,,,,,,,,,,z,,,,,,,,,,,,,,,,36,0,342.046,345.628,z,1,3.573,,[],[],[],[],[],[],[],345.629,347.628,347.629,347.629,[],[],[],[],[],[],[],,,,347.629,347.629,0.084615385,-0.383333333,0,0,0,,0,35,35,6,1,3,RL,cenesony,cursive,cenesony_c.png,,,,
,,,,32141,001,2025-12-01_16h04.27.708,HW_LDT_1,2024.2.4,MacIntel,58.82352941,,,,,,,,,,,,,,,,,,,,,347.631,347.829,347.829,348.328,,,,,,,,,,,,,,0.874,1,,,,,,,,,,,,,,z,,,,,,,,,,,,,,,,37,1,348.329,349.212,z,1,0.874,,[],[],[],[],[],[],[],349.212,351.212,351.212,354.012,[],[],[],[],[],[],[],z,2.791,,354.012,354.012,0.084615385,-0.383333333,0,0,0,,0,36,36,10,1,3,RL,efibor,print,efibor_p.png,,,,
,,,,32141,001,2025-12-01_16h04.27.708,HW_LDT_1,2024.2.4,MacIntel,58.82352941,,,,,,,,,,,,,,,,,,,,,354.013,354.211,354.211,354.712,,,,,,,,,,,,,,1.088,1,,,,,,,,,,,,,,m,,,,,,,,,,,,,,,,38,0,354.712,355.812,m,1,1.088,,[],[],[],[],[],[],[],355.812,357.812,357.812,357.812,[],[],[],[],[],[],[],,,,357.812,357.812,0.084615385,-0.383333333,0,0,0,,0,37,37,152,1,3,word,SPECIMEN,print,specimen_p.png,,,,
,,,,32141,001,2025-12-01_16h04.27.708,HW_LDT_1,2024.2.4,MacIntel,58.82352941,,,,,,,,,,,,,,,,,,,,,357.813,358.012,358.012,358.512,,,,,,,,,,,,,,0.978,1,,,,,,,,,,,,,,z,,,,,,,,,,,,,,,,39,0,358.512,359.495,z,1,0.978,,[],[],[],[],[],[],[],359.495,361.495,361.495,361.496,[],[],[],[],[],[],[],,,,361.496,361.496,0.084615385,-0.383333333,0,0,0,,0,38,38,50,1,3,TL,lirebal,print,lirebal_p.png,,,,
,,,,32141,001,2025-12-01_16h04.27.708,HW_LDT_1,2024.2.4,MacIntel,58.82352941,,,,,,,,,,,,,,,,,,,,,361.498,361.695,361.695,362.195,,,,,,,,,,,,,,1.104,1,,,,,,,,,,,,,,z,,,,,,,,,,,,,,,,40,0,362.196,363.312,z,1,1.104,,[],[],[],[],[],[],[],363.312,365.312,365.312,365.312,[],[],[],[],[],[],[],,,,365.312,365.313,0.084615385,-0.383333333,0,0,0,,0,39,39,9,1,3,RL,docirant,print,docirant_p.png,,,,
,,,,32141,001,2025-12-01_16h04.27.708,HW_LDT_1,2024.2.4,MacIntel,58.82352941,,,,,,,,,,,,,,,,,,,,,365.314,365.512,365.512,366.011,,,,,,,,,,,,,,1.323,1,,,,,,,,,,,,,,m,,,,,,,,,,,,,,,,41,0,366.012,367.345,m,1,1.323,,[],[],[],[],[],[],[],367.345,369.345,369.345,369.346,[],[],[],[],[],[],[],,,,369.346,369.346,0.084615385,-0.383333333,0,0,0,,0,40,40,85,1,3,word,BENEFIT,print,benefit_p.png,,,,
,,,,32141,001,2025-12-01_16h04.27.708,HW_LDT_1,2024.2.4,MacIntel,58.82352941,,,,,,,,,,,,,,,,,,,,,369.347,369.545,369.545,370.045,,,,,,,,,,,,,,1.941,1,,,,,,,,,,,,,,z,,,,,,,,,,,,,,,,42,0,370.045,371.995,z,1,1.941,,[],[],[],[],[],[],[],371.995,373.995,373.995,373.996,[],[],[],[],[],[],[],,,,373.996,373.996,0.084615385,-0.383333333,0,0,0,,0,41,41,15,1,3,RL,mifikary,cursive,mifikary_c.png,,,,
,,,,32141,001,2025-12-01_16h04.27.708,HW_LDT_1,2024.2.4,MacIntel,58.82352941,,,,,,,,,,,,,,,,,,,,,373.997,374.195,374.195,374.695,,,,,,,,,,,,,,1.042,1,,,,,,,,,,,,,,m,,,,,,,,,,,,,,,,43,0,374.696,375.745,m,1,1.042,,[],[],[],[],[],[],[],375.745,377.745,377.745,377.746,[],[],[],[],[],[],[],,,,377.746,377.746,0.084615385,-0.383333333,0,0,0,,0,42,42,115,1,3,word,LOGICAL,cursive,logical_c.png,,,,
,,,,32141,001,2025-12-01_16h04.27.708,HW_LDT_1,2024.2.4,MacIntel,58.82352941,,,,,,,,,,,,,,,,,,,,,377.748,377.945,377.945,378.445,,,,,,,,,,,,,,1.141,1,,,,,,,,,,,,,,z,,,,,,,,,,,,,,,,44,1,378.445,379.595,z,1,1.141,,[],[],[],[],[],[],[],379.595,381.594,381.594,382.835,[],[],[],[],[],[],[],m,1.229,,382.835,382.835,0.084615385,-0.383333333,0,0,0,,0,43,43,26,1,3,RL,repifion,print,repifion_p.png,,,,
,,,,32141,001,2025-12-01_16h04.27.708,HW_LDT_1,2024.2.4,MacIntel,58.82352941,,,,,,,,,,,,,,,,,,,,,382.836,383.028,383.028,383.528,,,,,,,,,,,,,,2.93,1,,,,,,,,,,,,,,z,,,,,,,,,,,,,,,,45,0,383.529,386.462,z,1,2.93,,[],[],[],[],[],[],[],386.462,388.462,388.462,388.462,[],[],[],[],[],[],[],,,,388.462,388.462,0.084615385,-0.383333333,0,0,0,,0,44,44,52,1,3,TL,locigal,cursive,locigal_c.png,,,,
,,,,32141,001,2025-12-01_16h04.27.708,HW_LDT_1,2024.2.4,MacIntel,58.82352941,,,,,,,,,,,,,,,,,,,,,388.464,388.662,388.662,389.162,,,,,,,,,,,,,,0.774,1,,,,,,,,,,,,,,m,,,,,,,,,,,,,,,,46,1,389.162,389.945,m,1,0.774,,[],[],[],[],[],[],[],389.945,391.945,391.945,394.511,[],[],[],[],[],[],[],m,2.559,,394.512,394.512,0.084615385,-0.383333333,0,0,0,,0,45,45,125,1,3,word,OPERATOR,print,operator_p.png,,,,
,,,,32141,001,2025-12-01_16h04.27.708,HW_LDT_1,2024.2.4,MacIntel,58.82352941,,,,,,,,,,,,,,,,,,,,,394.513,394.712,394.712,395.212,,,,,,,,,,,,,,3.676,1,,,,,,,,,,,,,,m,,,,,,,,,,,,,,,,47,0,395.212,398.895,m,1,3.676,,[],[],[],[],[],[],[],398.895,400.895,400.895,400.895,[],[],[],[],[],[],[],,,,400.895,400.896,0.084615385,-0.383333333,0,0,0,,0,46,46,117,1,3,word,MARINE,cursive,marine_c.png,,,,
,,,,32141,001,2025-12-01_16h04.27.708,HW_LDT_1,2024.2.4,MacIntel,58.82352941,,,,,,,,,,,,,,,,,,,,,400.897,401.095,401.095,401.595,,,,,,,,,,,,,,1.078,1,,,,,,,,,,,,,,m,,,,,,,,,,,,,,,,48,0,401.596,402.686,m,1,1.078,,[],[],[],[],[],[],[],402.686,404.678,404.678,404.679,[],[],[],[],[],[],[],,,,404.679,404.679,0.084615385,-0.383333333,0,0,0,,0,47,47,112,1,3,word,LIBERAL,print,liberal_p.png,,,,
,,,,32141,001,2025-12-01_16h04.27.708,HW_LDT_1,2024.2.4,MacIntel,58.82352941,,,,,,,,,,,,,,,,,,,,,404.68,404.878,404.878,405.378,,,,,,,,,,,,,,1.588,1,,,,,,,,,,,,,,z,,,,,,,,,,,,,,,,49,0,405.379,406.978,z,1,1.588,,[],[],[],[],[],[],[],406.978,408.978,408.978,408.979,[],[],[],[],[],[],[],,,,408.979,408.979,0.084615385,-0.383333333,0,0,0,,0,48,48,44,1,3,TL,decilate,print,decilate_p.png,,,,
,,,,32141,001,2025-12-01_16h04.27.708,HW_LDT_1,2024.2.4,MacIntel,58.82352941,,,,,,,,,,,,,,,,,,,,,408.98,409.178,409.178,409.678,,,,,,,,,,,,,,1.762,1,,,,,,,,,,,,,,z,,,,,,,,,,,,,,,,50,0,409.679,411.445,z,1,1.762,,[],[],[],[],[],[],[],411.445,413.445,413.445,413.445,[],[],[],[],[],[],[],,,,413.445,413.446,0.084615385,-0.383333333,0,0,0,,0,49,49,78,1,3,TL,vecolity,cursive,vecolity_c.png,,,,
,,,,32141,001,2025-12-01_16h04.27.708,HW_LDT_1,2024.2.4,MacIntel,58.82352941,,,,,,,,,,,,,,,,,,,,,413.447,413.645,413.645,414.145,,,,,,,,,,,,,,1.09,1,,,,,,,,,,,,,,m,,,,,,,,,,,,,,,,51,0,414.146,415.245,m,1,1.09,,[],[],[],[],[],[],[],415.245,417.245,417.245,417.245,[],[],[],[],[],[],[],,,,417.245,417.246,0.084615385,-0.383333333,0,0,0,,0,50,50,124,1,3,word,NUMERICAL,print,numerical_p.png,,,,
,,,,32141,001,2025-12-01_16h04.27.708,HW_LDT_1,2024.2.4,MacIntel,58.82352941,,,,,,,,,,,,,,,,,,,,,417.247,417.445,417.445,417.945,,,,,,,,,,,,,,0.629,1,,,,,,,,,,,,,,m,,,,,,,,,,,,,,,,52,1,417.946,418.585,m,1,0.629,,[],[],[],[],[],[],[],418.585,420.578,420.578,422.778,[],[],[],[],[],[],[],z,2.192,,422.778,422.779,0.084615385,-0.383333333,0,0,0,,0,51,51,94,1,3,word,CLINICAL,print,clinical_p.png,,,,
,,,,32141,001,2025-12-01_16h04.27.708,HW_LDT_1,2024.2.4,MacIntel,58.82352941,,,,,,,,,,,,,,,,,,,,,422.78,422.978,422.978,423.478,,,,,,,,,,,,,,1.388,1,,,,,,,,,,,,,,m,,,,,,,,,,,,,,,,53,0,423.479,424.878,m,1,1.388,,[],[],[],[],[],[],[],424.878,426.877,426.877,426.878,[],[],[],[],[],[],[],,,,426.878,426.878,0.084615385,-0.383333333,0,0,0,,0,52,52,134,1,3,word,QUALIFY,print,qualify_p.png,,,,
,,,,32141,001,2025-12-01_16h04.27.708,HW_LDT_1,2024.2.4,MacIntel,58.82352941,,,,,,,,,,,,,,,,,,,,,426.879,427.078,427.078,427.578,,,,,,,,,,,,,,2.171,0,,,,,,,,,,,,,,m,,,,,,,,,,,,,,,,54,0,427.579,429.762,z,0,2.171,,[],[],[],[],[],[],[],429.762,431.762,431.762,431.762,[],[],[],[],[],[],[],,,,431.762,431.762,0.084615385,-0.383333333,0,0,0,,0,53,53,120,1,3,word,MILITARY,cursive,military_c.png,,,,
,,,,32141,001,2025-12-01_16h04.27.708,HW_LDT_1,2024.2.4,MacIntel,58.82352941,,,,,,,,,,,,,,,,,,,,,431.764,431.962,431.962,432.462,,,,,,,,,,,,,,0.841,1,,,,,,,,,,,,,,z,,,,,,,,,,,,,,,,55,0,432.462,433.312,z,1,0.841,,[],[],[],[],[],[],[],433.312,435.312,435.312,435.312,[],[],[],[],[],[],[],,,,435.312,435.312,0.084615385,-0.383333333,0,0,0,,0,54,54,23,1,3,RL,quakity,print,quakity_p.png,,,,
,,,,32141,001,2025-12-01_16h04.27.708,HW_LDT_1,2024.2.4,MacIntel,58.82352941,,,,,,,,,,,,,,,,,,,,,435.314,435.512,435.512,436.012,,,,,,,,,,,,,,0.889,1,,,,,,,,,,,,,,m,,,,,,,,,,,,,,,,56,0,436.012,436.912,m,1,0.889,,[],[],[],[],[],[],[],436.912,438.912,438.912,438.912,[],[],[],[],[],[],[],,,,438.912,438.912,0.084615385,-0.383333333,0,0,0,,0,55,55,133,1,3,word,PROVIDE,print,provide_p.png,,,,
,,,,32141,001,2025-12-01_16h04.27.708,HW_LDT_1,2024.2.4,MacIntel,58.82352941,,,,,,,,,,,,,,,,,,,,,438.913,439.112,439.112,439.612,,,,,,,,,,,,,,3.887,0,,,,,,,,,,,,,,m,,,,,,,,,,,,,,,,57,0,439.612,443.512,z,0,3.887,,[],[],[],[],[],[],[],443.512,445.511,445.511,445.512,[],[],[],[],[],[],[],,,,445.512,445.512,0.084615385,-0.383333333,0,0,0,,0,56,56,92,1,3,word,CATEGORY,cursive,category_c.png,,,,
,,,,32141,001,2025-12-01_16h04.27.708,HW_LDT_1,2024.2.4,MacIntel,58.82352941,,,,,,,,,,,,,,,,,,,,,445.514,445.712,445.712,446.212,,,,,,,,,,,,,,5.42,0,,,,,,,,,,,,,,m,,,,,,,,,,,,,,,,58,0,446.212,451.644,z,0,5.42,,[],[],[],[],[],[],[],451.645,453.645,453.645,453.645,[],[],[],[],[],[],[],,,,453.646,453.646,0.084615385,-0.383333333,0,0,0,,0,57,57,108,1,3,word,FORTUNE,cursive,fortune_c.png,,,,
,,,,32141,001,2025-12-01_16h04.27.708,HW_LDT_1,2024.2.4,MacIntel,58.82352941,,,,,,,,,,,,,,,,,,,,,453.647,453.845,453.845,454.345,,,,,,,,,,,,,,1.445,1,,,,,,,,,,,,,,z,,,,,,,,,,,,,,,,59,0,454.345,455.795,z,1,1.445,,[],[],[],[],[],[],[],455.795,457.795,457.795,457.795,[],[],[],[],[],[],[],,,,457.795,457.796,0.084615385,-0.383333333,0,0,0,,0,58,58,22,1,3,RL,procogal,print,procogal_p.png,,,,
,,,,32141,001,2025-12-01_16h04.27.708,HW_LDT_1,2024.2.4,MacIntel,58.82352941,,,,,,,,,,,,,,,,,,,,,457.797,457.995,457.995,458.494,,,,,,,,,,,,,,0.905,1,,,,,,,,,,,,,,m,,,,,,,,,,,,,,,,60,0,458.494,459.411,m,1,0.905,,[],[],[],[],[],[],[],459.411,461.411,461.411,461.412,[],[],[],[],[],[],[],,,,461.412,461.412,0.084615385,-0.383333333,0,0,0,,0,59,59,106,1,3,word,ELABORATE,print,elaborate_p.png,,,,
,,,,32141,001,2025-12-01_16h04.27.708,HW_LDT_1,2024.2.4,MacIntel,58.82352941,,,,,,,,,,,,,,,,,,,,,461.413,461.611,461.611,462.111,,,,,,,,,,,,,,0.871,1,,,,,,,,,,,,,,m,,,,,,,,,,,,,,,,61,0,462.112,462.995,m,1,0.871,,[],[],[],[],[],[],[],462.995,464.995,464.995,464.995,[],[],[],[],[],[],[],,,,464.995,464.995,0.084615385,-0.383333333,0,0,0,,0,60,60,119,1,3,word,MEMORY,print,memory_p.png,,,,
,,,,32141,001,2025-12-01_16h04.27.708,HW_LDT_1,2024.2.4,MacIntel,58.82352941,,,,,,,,,,,,,,,,,,,,,464.997,465.194,465.194,465.694,,,,,,,,,,,,,,4.474,1,,,,,,,,,,,,,,z,,,,,,,,,,,,,,,,62,0,465.695,470.178,z,1,4.474,,[],[],[],[],[],[],[],470.178,472.178,472.178,472.179,[],[],[],[],[],[],[],,,,472.179,472.179,0.084615385,-0.383333333,0,0,0,,0,61,61,48,1,3,TL,grafetul,cursive,grafetul_c.png,,,,
,,,,32141,001,2025-12-01_16h04.27.708,HW_LDT_1,2024.2.4,MacIntel,58.82352941,,,,,,,,,,,,,,,,,,,,,472.181,472.378,472.378,472.878,,,,,,,,,,,,,,5.34,1,,,,,,,,,,,,,,z,,,,,,,,,,,,,,,,63,0,472.879,478.228,z,1,5.34,,[],[],[],[],[],[],[],478.228,480.228,480.228,480.228,[],[],[],[],[],[],[],,,,480.229,480.229,0.084615385,-0.383333333,0,0,0,,0,62,62,66,1,3,TL,retalive,cursive,retalive_c.png,,,,
,,,,32141,001,2025-12-01_16h04.27.708,HW_LDT_1,2024.2.4,MacIntel,58.82352941,,,,,,,,,,,,,,,,,,,,,480.23,480.428,480.428,480.928,,,,,,,,,,,,,,0.938,1,,,,,,,,,,,,,,z,,,,,,,,,,,,,,,,64,1,480.929,481.878,z,1,0.938,,[],[],[],[],[],[],[],481.878,483.878,483.878,490.895,[],[],[],[],[],[],[],z,7.009,,490.895,490.895,0.084615385,-0.383333333,0,0,0,,0,63,63,18,1,3,RL,onegator,print,onegator_p.png,,,,
,,,,32141,001,2025-12-01_16h04.27.708,HW_LDT_1,2024.2.4,MacIntel,58.82352941,,,,,,,,,,,,,,,,,,,,,490.896,491.095,491.095,491.595,,,,,,,,,,,,,,1.44,1,,,,,,,,,,,,,,m,,,,,,,,,,,,,,,,65,0,491.595,493.045,m,1,1.44,,[],[],[],[],[],[],[],493.045,495.045,495.045,495.045,[],[],[],[],[],[],[],,,,495.045,495.046,0.084615385,-0.383333333,0,0,0,,0,64,64,143,1,3,word,REMOVAL,cursive,removal_c.png,,,,
,,,,32141,001,2025-12-01_16h04.27.708,HW_LDT_1,2024.2.4,MacIntel,58.82352941,,,,,,,,,,,,,,,,,,,,,495.047,495.245,495.245,495.745,,,,,,,,,,,,,,2.36,1,,,,,,,,,,,,,,z,,,,,,,,,,,,,,,,66,0,495.745,498.111,z,1,2.36,,[],[],[],[],[],[],[],498.112,500.111,500.111,500.112,[],[],[],[],[],[],[],,,,500.112,500.112,0.084615385,-0.383333333,0,0,0,,0,65,65,41,1,3,TL,crinimal,print,crinimal_p.png,,,,
,,,,32141,001,2025-12-01_16h04.27.708,HW_LDT_1,2024.2.4,MacIntel,58.82352941,,,,,,,,,,,,,,,,,,,,,500.113,500.311,500.311,500.811,,,,,,,,,,,,,,2.688,1,,,,,,,,,,,,,,z,,,,,,,,,,,,,,,,67,1,500.812,503.511,z,1,2.688,,[],[],[],[],[],[],[],503.511,505.511,505.512,506.911,[],[],[],[],[],[],[],z,1.392,,506.912,506.912,0.084615385,-0.383333333,0,0,0,,0,66,66,14,1,3,RL,lofase,cursive,lofase_c.png,,,,
,,,,32141,001,2025-12-01_16h04.27.708,HW_LDT_1,2024.2.4,MacIntel,58.82352941,,,,,,,,,,,,,,,,,,,,,506.913,507.111,507.112,507.611,,,,,,,,,,,,,,1.274,1,,,,,,,,,,,,,,m,,,,,,,,,,,,,,,,68,0,507.612,508.895,m,1,1.274,,[],[],[],[],[],[],[],508.895,510.895,510.895,510.895,[],[],[],[],[],[],[],,,,510.896,510.896,0.084615385,-0.383333333,0,0,0,,0,67,67,93,1,3,word,CEREMONY,cursive,ceremony_c.png,,,,
,,,,32141,001,2025-12-01_16h04.27.708,HW_LDT_1,2024.2.4,MacIntel,58.82352941,,,,,,,,,,,,,,,,,,,,,510.898,511.095,511.095,511.595,,,,,,,,,,,,,,2.913,1,,,,,,,,,,,,,,z,,,,,,,,,,,,,,,,69,0,511.595,514.512,z,1,2.913,,[],[],[],[],[],[],[],514.512,516.511,516.511,516.512,[],[],[],[],[],[],[],,,,516.512,516.512,0.084615385,-0.383333333,0,0,0,,0,68,68,19,1,3,RL,opcifal,cursive,opcifal_c.png,,,,
,,,,32141,001,2025-12-01_16h04.27.708,HW_LDT_1,2024.2.4,MacIntel,58.82352941,,,,,,,,,,,,,,,,,,,,,516.514,516.711,516.711,517.211,,,,,,,,,,,,,,1.777,1,,,,,,,,,,,,,,z,,,,,,,,,,,,,,,,70,0,517.212,518.995,z,1,1.777,,[],[],[],[],[],[],[],518.995,520.995,520.995,520.995,[],[],[],[],[],[],[],,,,520.995,520.995,0.084615385,-0.383333333,0,0,0,,0,69,69,42,1,3,TL,detabe,cursive,detabe_c.png,,,,
,,,,32141,001,2025-12-01_16h04.27.708,HW_LDT_1,2024.2.4,MacIntel,58.82352941,,,,,,,,,,,,,,,,,,,,,520.997,521.194,521.194,521.695,,,,,,,,,,,,,,4.09,1,,,,,,,,,,,,,,z,,,,,,,,,,,,,,,,71,0,521.695,525.795,z,1,4.09,,[],[],[],[],[],[],[],525.795,527.795,527.795,527.795,[],[],[],[],[],[],[],,,,527.795,527.796,0.084615385,-0.383333333,0,0,0,,0,70,70,5,1,3,RL,capefory,cursive,capefory_c.png,,,,
,,,,32141,001,2025-12-01_16h04.27.708,HW_LDT_1,2024.2.4,MacIntel,58.82352941,,,,,,,,,,,,,,,,,,,,,527.797,527.995,527.995,528.495,,,,,,,,,,,,,,3.447,1,,,,,,,,,,,,,,z,,,,,,,,,,,,,,,,72,0,528.495,531.946,z,1,3.447,,[],[],[],[],[],[],[],531.946,533.945,533.945,533.945,[],[],[],[],[],[],[],,,,533.945,533.945,0.084615385,-0.383333333,0,0,0,,0,71,71,28,1,3,RL,rovastic,cursive,rovastic_c.png,,,,
,,,,32141,001,2025-12-01_16h04.27.708,HW_LDT_1,2024.2.4,MacIntel,58.82352941,,,,,,,,,,,,,,,,,,,,,533.947,534.145,534.145,534.645,,,,,,,,,,,,,,5.487,0,,,,,,,,,,,,,,m,,,,,,,,,,,,,,,,73,0,534.645,540.145,z,0,5.487,,[],[],[],[],[],[],[],540.145,542.145,542.145,542.145,[],[],[],[],[],[],[],,,,542.145,542.145,0.084615385,-0.383333333,0,0,0,,0,72,72,99,1,3,word,DEBATE,cursive,debate_c.png,,,,
,,,,32141,001,2025-12-01_16h04.27.708,HW_LDT_1,2024.2.4,MacIntel,58.82352941,,,,,,,,,,,,,,,,,,,,,542.147,542.344,542.344,542.845,,,,,,,,,,,,,,3.137,1,,,,,,,,,,,,,,z,,,,,,,,,,,,,,,,74,1,542.845,545.995,z,1,3.137,,[],[],[],[],[],[],[],545.995,547.995,547.995,549.428,[],[],[],[],[],[],[],z,1.422,,549.428,549.428,0.084615385,-0.383333333,0,0,0,,0,73,73,1,1,3,RL,bewoted,cursive,bewoted_c.png,,,,
,,,,32141,001,2025-12-01_16h04.27.708,HW_LDT_1,2024.2.4,MacIntel,58.82352941,,,,,,,,,,,,,,,,,,,,,549.43,549.628,549.628,550.128,,,,,,,,,,,,,,1.292,1,,,,,,,,,,,,,,z,,,,,,,,,,,,,,,,75,0,550.129,551.427,z,1,1.292,,[],[],[],[],[],[],[],551.427,553.428,553.428,553.429,[],[],[],[],[],[],[],,,,553.429,553.429,0.084615385,-0.383333333,0,0,0,,0,74,74,67,1,3,TL,retome,print,retome_p.png,,,,
,,,,32141,001,2025-12-01_16h04.27.708,HW_LDT_1,2024.2.4,MacIntel,58.82352941,,,,,,,,,,,,,,,,,,,,,553.43,553.628,553.628,554.128,,,,,,,,,,,,,,3.262,1,,,,,,,,,,,,,,m,,,,,,,,,,,,,,,,76,0,554.128,557.401,m,1,3.262,,[],[],[],[],[],[],[],557.402,559.395,559.395,559.395,[],[],[],[],[],[],[],,,,559.395,559.395,0.084615385,-0.383333333,0,0,0,,0,75,75,107,1,3,word,EVIDENT,cursive,evident_c.png,,,,
,,,,32141,001,2025-12-01_16h04.27.708,HW_LDT_1,2024.2.4,MacIntel,58.82352941,,,,,,,,,,,,,,,,,,,,,559.396,559.595,559.595,560.094,,,,,,,,,,,,,,3.324,1,,,,,,,,,,,,,,z,,,,,,,,,,,,,,,,77,0,560.095,563.428,z,1,3.324,,[],[],[],[],[],[],[],563.428,565.428,565.428,565.429,[],[],[],[],[],[],[],,,,565.429,565.429,0.084615385,-0.383333333,0,0,0,,0,76,76,25,1,3,RL,retupar,print,retupar_p.png,,,,
,,,,32141,001,2025-12-01_16h04.27.708,HW_LDT_1,2024.2.4,MacIntel,58.82352941,,,,,,,,,,,,,,,,,,,,,565.43,565.628,565.628,566.128,,,,,,,,,,,,,,1.245,1,,,,,,,,,,,,,,m,,,,,,,,,,,,,,,,78,0,566.128,567.384,m,1,1.245,,[],[],[],[],[],[],[],567.384,569.378,569.378,569.378,[],[],[],[],[],[],[],,,,569.378,569.378,0.084615385,-0.383333333,0,0,0,,0,77,77,86,1,3,word,BESIDE,cursive,beside_c.png,,,,
,,,,32141,001,2025-12-01_16h04.27.708,HW_LDT_1,2024.2.4,MacIntel,58.82352941,,,,,,,,,,,,,,,,,,,,,569.38,569.578,569.578,570.077,,,,,,,,,,,,,,0.712,0,,,,,,,,,,,,,,z,,,,,,,,,,,,,,,,79,0,570.077,570.801,m,0,0.712,,[],[],[],[],[],[],[],570.801,572.795,572.795,572.795,[],[],[],[],[],[],[],,,,572.795,572.795,0.084615385,-0.383333333,0,0,0,,0,78,78,49,1,3,TL,incidate,print,incidate_p.png,,,,
,,,,32141,001,2025-12-01_16h04.27.708,HW_LDT_1,2024.2.4,MacIntel,58.82352941,,,,,,,,,,,,,,,,,,,,,572.797,572.995,572.995,573.494,,,,,,,,,,,,,,1.178,1,,,,,,,,,,,,,,z,,,,,,,,,,,,,,,,80,0,573.495,574.677,z,1,1.178,,[],[],[],[],[],[],[],574.677,576.677,576.677,576.678,[],[],[],[],[],[],[],,,,576.678,604.728,0.084615385,-0.383333333,0,0,0,space,0,79,79,40,1,3,TL,condiser,print,condiser_p.png,28.024,,,
,,,,32141,001,2025-12-01_16h04.27.708,HW_LDT_1,2024.2.4,MacIntel,58.82352941,,,,,,,,,,,,,,,,,,,,,604.73,604.928,604.928,605.428,,,,,,,,,,,,,,2.224,1,,,,,,,,,,,,,,z,,,,,,,,,,,,,,,,81,0,605.428,607.661,z,1,2.224,,[],[],[],[],[],[],[],607.661,609.661,609.661,609.662,[],[],[],[],[],[],[],,,,609.662,609.662,0.084615385,-0.383333333,0,0,0,,0,80,80,75,1,3,TL,sloten,cursive,sloten_c.png,,,,
,,,,32141,001,2025-12-01_16h04.27.708,HW_LDT_1,2024.2.4,MacIntel,58.82352941,,,,,,,,,,,,,,,,,,,,,609.663,609.861,609.861,610.361,,,,,,,,,,,,,,1.607,1,,,,,,,,,,,,,,z,,,,,,,,,,,,,,,,82,1,610.362,611.978,z,1,1.607,,[],[],[],[],[],[],[],611.978,613.978,613.978,615.444,[],[],[],[],[],[],[],z,1.456,,615.445,615.445,0.084615385,-0.383333333,0,0,0,,0,81,81,68,1,3,TL,revomal,cursive,revomal_c.png,,,,
,,,,32141,001,2025-12-01_16h04.27.708,HW_LDT_1,2024.2.4,MacIntel,58.82352941,,,,,,,,,,,,,,,,,,,,,615.446,615.644,615.644,616.144,,,,,,,,,,,,,,1.624,1,,,,,,,,,,,,,,z,,,,,,,,,,,,,,,,83,0,616.145,617.778,z,1,1.624,,[],[],[],[],[],[],[],617.778,619.778,619.778,619.778,[],[],[],[],[],[],[],,,,619.778,619.778,0.084615385,-0.383333333,0,0,0,,0,82,82,74,1,3,TL,spemicen,print,spemicen_p.png,,,,
,,,,32141,001,2025-12-01_16h04.27.708,HW_LDT_1,2024.2.4,MacIntel,58.82352941,,,,,,,,,,,,,,,,,,,,,619.78,619.978,619.978,620.478,,,,,,,,,,,,,,2.191,1,,,,,,,,,,,,,,z,,,,,,,,,,,,,,,,84,0,620.478,622.678,z,1,2.191,,[],[],[],[],[],[],[],622.678,624.677,624.677,624.677,[],[],[],[],[],[],[],,,,624.678,624.678,0.084615385,-0.383333333,0,0,0,,0,83,83,24,1,3,RL,quafidy,print,quafidy_p.png,,,,
,,,,32141,001,2025-12-01_16h04.27.708,HW_LDT_1,2024.2.4,MacIntel,58.82352941,,,,,,,,,,,,,,,,,,,,,624.678,624.878,624.878,625.378,,,,,,,,,,,,,,0.789,1,,,,,,,,,,,,,,z,,,,,,,,,,,,,,,,85,0,625.378,626.178,z,1,0.789,,[],[],[],[],[],[],[],626.178,628.178,628.178,628.178,[],[],[],[],[],[],[],,,,628.178,628.178,0.084615385,-0.383333333,0,0,0,,0,84,84,45,1,3,TL,dentisy,print,dentisy_p.png,,,,
,,,,32141,001,2025-12-01_16h04.27.708,HW_LDT_1,2024.2.4,MacIntel,58.82352941,,,,,,,,,,,,,,,,,,,,,628.18,628.378,628.378,628.878,,,,,,,,,,,,,,0.991,0,,,,,,,,,,,,,,m,,,,,,,,,,,,,,,,86,0,628.878,629.878,z,0,0.991,,[],[],[],[],[],[],[],629.878,631.878,631.878,631.878,[],[],[],[],[],[],[],,,,631.878,631.878,0.084615385,-0.383333333,0,0,0,,0,85,85,126,1,3,word,OPTIMAL,cursive,optimal_c.png,,,,
,,,,32141,001,2025-12-01_16h04.27.708,HW_LDT_1,2024.2.4,MacIntel,58.82352941,,,,,,,,,,,,,,,,,,,,,631.88,632.078,632.078,632.578,,,,,,,,,,,,,,1.304,1,,,,,,,,,,,,,,m,,,,,,,,,,,,,,,,87,0,632.578,633.9,m,1,1.304,,[],[],[],[],[],[],[],633.9,635.894,635.895,635.895,[],[],[],[],[],[],[],,,,635.895,635.895,0.084615385,-0.383333333,0,0,0,,0,86,86,158,1,3,word,VELOCITY,cursive,velocity_c.png,,,,
,,,,32141,001,2025-12-01_16h04.27.708,HW_LDT_1,2024.2.4,MacIntel,58.82352941,,,,,,,,,,,,,,,,,,,,,635.896,636.094,636.094,636.594,,,,,,,,,,,,,,1.338,1,,,,,,,,,,,,,,z,,,,,,,,,,,,,,,,88,0,636.595,637.944,z,1,1.338,,[],[],[],[],[],[],[],637.945,639.944,639.944,639.945,[],[],[],[],[],[],[],,,,639.945,639.945,0.084615385,-0.383333333,0,0,0,,0,87,87,4,1,3,RL,cafigal,cursive,cafigal_c.png,,,,
,,,,32141,001,2025-12-01_16h04.27.708,HW_LDT_1,2024.2.4,MacIntel,58.82352941,,,,,,,,,,,,,,,,,,,,,639.947,640.144,640.144,640.644,,,,,,,,,,,,,,1.212,1,,,,,,,,,,,,,,z,,,,,,,,,,,,,,,,89,0,640.645,641.861,z,1,1.212,,[],[],[],[],[],[],[],641.861,643.86,643.86,643.86,[],[],[],[],[],[],[],,,,643.86,643.861,0.084615385,-0.383333333,0,0,0,,0,88,88,55,1,3,TL,mecidine,print,mecidine_p.png,,,,
,,,,32141,001,2025-12-01_16h04.27.708,HW_LDT_1,2024.2.4,MacIntel,58.82352941,,,,,,,,,,,,,,,,,,,,,643.862,644.061,644.061,644.561,,,,,,,,,,,,,,1.178,1,,,,,,,,,,,,,,z,,,,,,,,,,,,,,,,90,0,644.562,645.744,z,1,1.178,,[],[],[],[],[],[],[],645.744,647.744,647.744,647.745,[],[],[],[],[],[],[],,,,647.745,647.745,0.084615385,-0.383333333,0,0,0,,0,89,89,65,1,3,TL,resufal,print,resufal_p.png,,,,
,,,,32141,001,2025-12-01_16h04.27.708,HW_LDT_1,2024.2.4,MacIntel,58.82352941,,,,,,,,,,,,,,,,,,,,,647.746,647.944,647.944,648.444,,,,,,,,,,,,,,1.821,1,,,,,,,,,,,,,,z,,,,,,,,,,,,,,,,91,0,648.445,650.278,z,1,1.821,,[],[],[],[],[],[],[],650.278,652.278,652.278,652.278,[],[],[],[],[],[],[],,,,652.278,652.278,0.084615385,-0.383333333,0,0,0,,0,90,90,58,1,3,TL,nuremical,print,nuremical_p.png,,,,
,,,,32141,001,2025-12-01_16h04.27.708,HW_LDT_1,2024.2.4,MacIntel,58.82352941,,,,,,,,,,,,,,,,,,,,,652.28,652.478,652.478,652.978,,,,,,,,,,,,,,0.971,1,,,,,,,,,,,,,,m,,,,,,,,,,,,,,,,92,0,652.978,653.961,m,1,0.971,,[],[],[],[],[],[],[],653.961,655.961,655.961,655.961,[],[],[],[],[],[],[],,,,655.962,655.962,0.084615385,-0.383333333,0,0,0,,0,91,91,97,1,3,word,COVERAGE,print,coverage_p.png,,,,
,,,,32141,001,2025-12-01_16h04.27.708,HW_LDT_1,2024.2.4,MacIntel,58.82352941,,,,,,,,,,,,,,,,,,,,,655.963,656.161,656.161,656.66,,,,,,,,,,,,,,1.01,1,,,,,,,,,,,,,,m,,,,,,,,,,,,,,,,93,0,656.661,657.682,m,1,1.01,,[],[],[],[],[],[],[],657.682,659.678,659.678,659.678,[],[],[],[],[],[],[],,,,659.678,659.678,0.084615385,-0.383333333,0,0,0,,0,92,92,139,1,3,word,REGULAR,print,regular_p.png,,,,
,,,,32141,001,2025-12-01_16h04.27.708,HW_LDT_1,2024.2.4,MacIntel,58.82352941,,,,,,,,,,,,,,,,,,,,,659.68,659.878,659.878,660.378,,,,,,,,,,,,,,2.354,0,,,,,,,,,,,,,,m,,,,,,,,,,,,,,,,94,0,660.378,662.744,z,0,2.354,,[],[],[],[],[],[],[],662.744,664.744,664.744,664.745,[],[],[],[],[],[],[],,,,664.745,664.745,0.084615385,-0.383333333,0,0,0,,0,93,93,110,1,3,word,HERITAGE,cursive,heritage_c.png,,,,
,,,,32141,001,2025-12-01_16h04.27.708,HW_LDT_1,2024.2.4,MacIntel,58.82352941,,,,,,,,,,,,,,,,,,,,,664.746,664.944,664.944,665.444,,,,,,,,,,,,,,1.813,1,,,,,,,,,,,,,,m,,,,,,,,,,,,,,,,95,0,665.445,667.267,m,1,1.813,,[],[],[],[],[],[],[],667.267,669.261,669.261,669.261,[],[],[],[],[],[],[],,,,669.261,669.261,0.084615385,-0.383333333,0,0,0,,0,94,94,84,1,3,word,BELOVED,cursive,beloved_c.png,,,,
,,,,32141,001,2025-12-01_16h04.27.708,HW_LDT_1,2024.2.4,MacIntel,58.82352941,,,,,,,,,,,,,,,,,,,,,669.263,669.461,669.461,669.961,,,,,,,,,,,,,,1.858,1,,,,,,,,,,,,,,z,,,,,,,,,,,,,,,,96,0,669.961,671.828,z,1,1.858,,[],[],[],[],[],[],[],671.828,673.828,673.828,673.828,[],[],[],[],[],[],[],,,,673.828,673.829,0.084615385,-0.383333333,0,0,0,,0,95,95,12,1,3,RL,formuke,cursive,formuke_c.png,,,,
,,,,32141,001,2025-12-01_16h04.27.708,HW_LDT_1,2024.2.4,MacIntel,58.82352941,,,,,,,,,,,,,,,,,,,,,673.83,674.028,674.028,674.527,,,,,,,,,,,,,,0.908,1,,,,,,,,,,,,,,m,,,,,,,,,,,,,,,,97,0,674.528,675.444,m,1,0.908,,[],[],[],[],[],[],[],675.444,677.444,677.444,677.445,[],[],[],[],[],[],[],,,,677.445,677.445,0.084615385,-0.383333333,0,0,0,,0,96,96,135,1,3,word,QUALITY,print,quality_p.png,,,,
,,,,32141,001,2025-12-01_16h04.27.708,HW_LDT_1,2024.2.4,MacIntel,58.82352941,,,,,,,,,,,,,,,,,,,,,677.446,677.644,677.644,678.144,,,,,,,,,,,,,,0.988,1,,,,,,,,,,,,,,m,,,,,,,,,,,,,,,,98,0,678.145,679.144,m,1,0.988,,[],[],[],[],[],[],[],679.144,681.144,681.144,681.145,[],[],[],[],[],[],[],,,,681.145,681.145,0.084615385,-0.383333333,0,0,0,,0,97,97,132,1,3,word,PROPOSAL,print,proposal_p.png,,,,
,,,,32141,001,2025-12-01_16h04.27.708,HW_LDT_1,2024.2.4,MacIntel,58.82352941,,,,,,,,,,,,,,,,,,,,,681.146,681.344,681.344,681.844,,,,,,,,,,,,,,2.226,0,,,,,,,,,,,,,,z,,,,,,,,,,,,,,,,99,0,681.845,684.077,m,0,2.226,,[],[],[],[],[],[],[],684.078,686.077,686.077,686.077,[],[],[],[],[],[],[],,,,686.077,686.078,0.084615385,-0.383333333,0,0,0,,0,98,98,54,1,3,TL,manire,cursive,manire_c.png,,,,
,,,,32141,001,2025-12-01_16h04.27.708,HW_LDT_1,2024.2.4,MacIntel,58.82352941,,,,,,,,,,,,,,,,,,,,,686.079,686.278,686.278,686.778,,,,,,,,,,,,,,1.123,1,,,,,,,,,,,,,,m,,,,,,,,,,,,,,,,100,0,686.778,687.911,m,1,1.123,,[],[],[],[],[],[],[],687.911,689.91,689.91,689.91,[],[],[],[],[],[],[],,,,689.911,689.911,0.084615385,-0.383333333,0,0,0,,0,99,99,96,1,3,word,CONSIDER,print,consider_p.png,,,,
,,,,32141,001,2025-12-01_16h04.27.708,HW_LDT_1,2024.2.4,MacIntel,58.82352941,,,,,,,,,,,,,,,,,,,,,689.912,690.111,690.111,690.611,,,,,,,,,,,,,,0.854,1,,,,,,,,,,,,,,z,,,,,,,,,,,,,,,,101,0,690.611,691.478,z,1,0.854,,[],[],[],[],[],[],[],691.478,693.478,693.478,693.478,[],[],[],[],[],[],[],,,,693.478,693.478,0.084615385,-0.383333333,0,0,0,,0,100,100,51,1,3,TL,liretal,print,liretal_p.png,,,,
,,,,32141,001,2025-12-01_16h04.27.708,HW_LDT_1,2024.2.4,MacIntel,58.82352941,,,,,,,,,,,,,,,,,,,,,693.48,693.678,693.678,694.178,,,,,,,,,,,,,,1.026,1,,,,,,,,,,,,,,m,,,,,,,,,,,,,,,,102,1,694.178,695.217,m,1,1.026,,[],[],[],[],[],[],[],695.217,697.211,697.211,699.044,[],[],[],[],[],[],[],z,1.825,,699.044,699.044,0.084615385,-0.383333333,0,0,0,,0,101,101,100,1,3,word,DECADE,cursive,decade_c.png,,,,
,,,,32141,001,2025-12-01_16h04.27.708,HW_LDT_1,2024.2.4,MacIntel,58.82352941,,,,,,,,,,,,,,,,,,,,,699.045,699.244,699.244,699.744,,,,,,,,,,,,,,2.691,1,,,,,,,,,,,,,,z,,,,,,,,,,,,,,,,103,1,699.745,702.444,z,1,2.691,,[],[],[],[],[],[],[],702.444,704.444,704.444,705.911,[],[],[],[],[],[],[],z,1.463,,705.911,705.911,0.084615385,-0.383333333,0,0,0,,0,102,102,16,1,3,RL,mishafe,cursive,mishafe_c.png,,,,
,,,,32141,001,2025-12-01_16h04.27.708,HW_LDT_1,2024.2.4,MacIntel,58.82352941,,,,,,,,,,,,,,,,,,,,,705.913,706.111,706.111,706.611,,,,,,,,,,,,,,1.84,1,,,,,,,,,,,,,,z,,,,,,,,,,,,,,,,104,0,706.611,708.461,z,1,1.84,,[],[],[],[],[],[],[],708.461,710.461,710.461,710.461,[],[],[],[],[],[],[],,,,710.461,710.461,0.084615385,-0.383333333,0,0,0,,0,103,103,7,1,3,RL,cobeny,print,cobeny_p.png,,,,
,,,,32141,001,2025-12-01_16h04.27.708,HW_LDT_1,2024.2.4,MacIntel,58.82352941,,,,,,,,,,,,,,,,,,,,,710.463,710.66,710.66,711.161,,,,,,,,,,,,,,1.741,1,,,,,,,,,,,,,,m,,,,,,,,,,,,,,,,105,0,711.161,712.911,m,1,1.741,,[],[],[],[],[],[],[],712.911,714.911,714.911,714.911,[],[],[],[],[],[],[],,,,714.911,714.911,0.084615385,-0.383333333,0,0,0,,0,104,104,144,1,3,word,RESIDENT,cursive,resident_c.png,,,,
,,,,32141,001,2025-12-01_16h04.27.708,HW_LDT_1,2024.2.4,MacIntel,58.82352941,,,,,,,,,,,,,,,,,,,,,714.913,715.111,715.111,715.611,,,,,,,,,,,,,,5.063,1,,,,,,,,,,,,,,z,,,,,,,,,,,,,,,,106,0,715.611,720.678,z,1,5.063,,[],[],[],[],[],[],[],720.678,722.678,722.678,722.678,[],[],[],[],[],[],[],,,,722.678,722.678,0.084615385,-0.383333333,0,0,0,,0,105,105,3,1,3,RL,bebine,cursive,bebine_c.png,,,,
,,,,32141,001,2025-12-01_16h04.27.708,HW_LDT_1,2024.2.4,MacIntel,58.82352941,,,,,,,,,,,,,,,,,,,,,722.68,722.877,722.877,723.377,,,,,,,,,,,,,,0.809,1,,,,,,,,,,,,,,z,,,,,,,,,,,,,,,,107,0,723.377,724.194,z,1,0.809,,[],[],[],[],[],[],[],724.194,726.194,726.194,726.195,[],[],[],[],[],[],[],,,,726.195,726.195,0.084615385,-0.383333333,0,0,0,,0,106,106,8,1,3,RL,cocewage,print,cocewage_p.png,,,,
,,,,32141,001,2025-12-01_16h04.27.708,HW_LDT_1,2024.2.4,MacIntel,58.82352941,,,,,,,,,,,,,,,,,,,,,726.196,726.394,726.394,726.894,,,,,,,,,,,,,,1.658,1,,,,,,,,,,,,,,m,,,,,,,,,,,,,,,,108,0,726.895,728.561,m,1,1.658,,[],[],[],[],[],[],[],728.561,730.561,730.561,730.561,[],[],[],[],[],[],[],,,,730.561,730.561,0.084615385,-0.383333333,0,0,0,,0,107,107,159,1,3,word,VETERAN,cursive,veteran_c.png,,,,
,,,,32141,001,2025-12-01_16h04.27.708,HW_LDT_1,2024.2.4,MacIntel,58.82352941,,,,,,,,,,,,,,,,,,,,,730.563,730.76,730.76,731.26,,,,,,,,,,,,,,1.157,1,,,,,,,,,,,,,,z,,,,,,,,,,,,,,,,109,1,731.261,732.427,z,1,1.157,,[],[],[],[],[],[],[],732.427,734.427,734.427,737.76,[],[],[],[],[],[],[],z,3.322,,737.76,737.76,0.084615385,-0.383333333,0,0,0,,0,108,108,73,1,3,TL,speficic,print,speficic_p.png,,,,
,,,,32141,001,2025-12-01_16h04.27.708,HW_LDT_1,2024.2.4,MacIntel,58.82352941,,,,,,,,,,,,,,,,,,,,,737.762,737.961,737.961,738.461,,,,,,,,,,,,,,1.307,1,,,,,,,,,,,,,,z,,,,,,,,,,,,,,,,110,1,738.461,739.777,z,1,1.307,,[],[],[],[],[],[],[],739.777,741.777,741.778,743.577,[],[],[],[],[],[],[],z,1.788,,743.578,743.578,0.084615385,-0.383333333,0,0,0,,0,109,109,0,1,3,RL,afaneur,print,afaneur_p.png,,,,
,,,,32141,001,2025-12-01_16h04.27.708,HW_LDT_1,2024.2.4,MacIntel,58.82352941,,,,,,,,,,,,,,,,,,,,,743.579,743.777,743.777,744.277,,,,,,,,,,,,,,2.026,1,,,,,,,,,,,,,,m,,,,,,,,,,,,,,,,111,0,744.278,746.316,m,1,2.026,,[],[],[],[],[],[],[],746.316,748.311,748.311,748.311,[],[],[],[],[],[],[],,,,748.311,748.311,0.084615385,-0.383333333,0,0,0,,0,110,110,118,1,3,word,MEDICINE,print,medicine_p.png,,,,
,,,,32141,001,2025-12-01_16h04.27.708,HW_LDT_1,2024.2.4,MacIntel,58.82352941,,,,,,,,,,,,,,,,,,,,,748.313,748.511,748.511,749.011,,,,,,,,,,,,,,1.081,1,,,,,,,,,,,,,,z,,,,,,,,,,,,,,,,112,0,749.011,750.095,z,1,1.081,,[],[],[],[],[],[],[],750.095,752.094,752.094,752.095,[],[],[],[],[],[],[],,,,752.095,752.095,0.084615385,-0.383333333,0,0,0,,0,111,111,13,1,3,RL,helicage,cursive,helicage_c.png,,,,
,,,,32141,001,2025-12-01_16h04.27.708,HW_LDT_1,2024.2.4,MacIntel,58.82352941,,,,,,,,,,,,,,,,,,,,,752.096,752.294,752.294,752.794,,,,,,,,,,,,,,0.823,1,,,,,,,,,,,,,,z,,,,,,,,,,,,,,,,113,0,752.795,753.627,z,1,0.823,,[],[],[],[],[],[],[],753.627,755.627,755.627,755.628,[],[],[],[],[],[],[],,,,755.628,755.628,0.084615385,-0.383333333,0,0,0,,0,112,112,2,1,3,RL,betemit,print,betemit_p.png,,,,
,,,,32141,001,2025-12-01_16h04.27.708,HW_LDT_1,2024.2.4,MacIntel,58.82352941,,,,,,,,,,,,,,,,,,,,,755.629,755.827,755.827,756.327,,,,,,,,,,,,,,1.503,1,,,,,,,,,,,,,,z,,,,,,,,,,,,,,,,114,0,756.328,757.844,z,1,1.503,,[],[],[],[],[],[],[],757.844,759.844,759.844,759.845,[],[],[],[],[],[],[],,,,759.845,759.845,0.084615385,-0.383333333,0,0,0,,0,113,113,35,1,3,TL,cateferia,print,cateferia_p.png,,,,
,,,,32141,001,2025-12-01_16h04.27.708,HW_LDT_1,2024.2.4,MacIntel,58.82352941,,,,,,,,,,,,,,,,,,,,,759.847,760.044,760.044,760.544,,,,,,,,,,,,,,1.071,1,,,,,,,,,,,,,,z,,,,,,,,,,,,,,,,115,1,760.545,761.627,z,1,1.071,,[],[],[],[],[],[],[],761.628,763.627,763.627,765.977,[],[],[],[],[],[],[],z,2.341,,765.978,765.978,0.084615385,-0.383333333,0,0,0,,0,114,114,61,1,3,TL,pocily,print,pocily_p.png,,,,
,,,,32141,001,2025-12-01_16h04.27.708,HW_LDT_1,2024.2.4,MacIntel,58.82352941,,,,,,,,,,,,,,,,,,,,,765.979,766.177,766.178,766.677,,,,,,,,,,,,,,2.169,1,,,,,,,,,,,,,,m,,,,,,,,,,,,,,,,116,0,766.677,768.86,m,1,2.169,,[],[],[],[],[],[],[],768.86,770.86,770.861,770.861,[],[],[],[],[],[],[],,,,770.861,770.861,0.084615385,-0.383333333,0,0,0,,0,115,115,116,1,3,word,MARGINAL,print,marginal_p.png,,,,
,,,,32141,001,2025-12-01_16h04.27.708,HW_LDT_1,2024.2.4,MacIntel,58.82352941,,,,,,,,,,,,,,,,,,,,,770.862,771.061,771.061,771.56,,,,,,,,,,,,,,0.836,1,,,,,,,,,,,,,,m,,,,,,,,,,,,,,,,117,0,771.561,772.41,m,1,0.836,,[],[],[],[],[],[],[],772.41,774.64,774.64,774.641,[],[],[],[],[],[],[],,,,774.641,774.641,0.084615385,-0.383333333,0,0,0,,0,116,116,113,1,3,word,LITERAL,print,literal_p.png,,,,
,,,,32141,001,2025-12-01_16h04.27.708,HW_LDT_1,2024.2.4,MacIntel,58.82352941,,,,,,,,,,,,,,,,,,,,,774.642,774.654,774.654,775.344,,,,,,,,,,,,,,2.305,0,,,,,,,,,,,,,,m,,,,,,,,,,,,,,,,118,1,775.344,777.661,z,0,2.305,,[],[],[],[],[],[],[],777.661,779.66,779.66,783.045,[],[],[],[],[],[],[],z,3.382,,783.045,783.045,0.084615385,-0.383333333,0,0,0,,0,117,117,89,1,3,word,CAPACITY,cursive,capacity_c.png,,,,
,,,,32141,001,2025-12-01_16h04.27.708,HW_LDT_1,2024.2.4,MacIntel,58.82352941,,,,,,,,,,,,,,,,,,,,,783.047,783.243,783.243,783.744,,,,,,,,,,,,,,1.368,0,,,,,,,,,,,,,,m,,,,,,,,,,,,,,,,119,0,783.744,785.127,z,0,1.368,,[],[],[],[],[],[],[],785.127,787.127,787.127,787.128,[],[],[],[],[],[],[],,,,787.128,787.128,0.084615385,-0.383333333,0,0,0,,0,118,118,153,1,3,word,STOLEN,cursive,stolen_c.png,,,,
,,,,32141,001,2025-12-01_16h04.27.708,HW_LDT_1,2024.2.4,MacIntel,58.82352941,,,,,,,,,,,,,,,,,,,,,787.129,787.327,787.327,787.827,,,,,,,,,,,,,,3.647,0,,,,,,,,,,,,,,m,,,,,,,,,,,,,,,,120,0,787.828,791.479,z,0,3.647,,[],[],[],[],[],[],[],791.479,793.476,793.476,793.477,[],[],[],[],[],[],[],,,,793.477,793.477,0.084615385,-0.383333333,0,0,0,,0,119,119,114,1,3,word,LOCATE,cursive,locate_c.png,,,,
,,,,32141,001,2025-12-01_16h04.27.708,HW_LDT_1,2024.2.4,MacIntel,58.82352941,,,,,,,,,,,,,,,,,,,,,793.477,793.677,793.677,794.177,,,,,,,,,,,,,,1.158,1,,,,,,,,,,,,,,m,,,,,,,,,,,,,,,,121,0,794.178,795.352,m,1,1.158,,[],[],[],[],[],[],[],795.352,797.343,797.343,797.344,[],[],[],[],[],[],[],,,,797.344,797.344,0.084615385,-0.383333333,0,0,0,,0,120,120,148,1,3,word,SALINE,cursive,saline_c.png,,,,
,,,,32141,001,2025-12-01_16h04.27.708,HW_LDT_1,2024.2.4,MacIntel,58.82352941,,,,,,,,,,,,,,,,,,,,,797.345,797.544,797.544,798.043,,,,,,,,,,,,,,1.304,0,,,,,,,,,,,,,,z,,,,,,,,,,,,,,,,122,0,798.043,799.36,m,0,1.304,,[],[],[],[],[],[],[],799.36,801.36,801.36,801.36,[],[],[],[],[],[],[],,,,801.36,801.36,0.084615385,-0.383333333,0,0,0,,0,121,121,77,1,3,TL,vadility,cursive,vadility_c.png,,,,
,,,,32141,001,2025-12-01_16h04.27.708,HW_LDT_1,2024.2.4,MacIntel,58.82352941,,,,,,,,,,,,,,,,,,,,,801.361,801.56,801.56,802.061,,,,,,,,,,,,,,1.072,1,,,,,,,,,,,,,,z,,,,,,,,,,,,,,,,123,0,802.061,803.144,z,1,1.072,,[],[],[],[],[],[],[],803.144,805.144,805.144,805.144,[],[],[],[],[],[],[],,,,805.144,805.144,0.084615385,-0.383333333,0,0,0,,0,122,122,21,1,3,RL,potugar,print,potugar_p.png,,,,
,,,,32141,001,2025-12-01_16h04.27.708,HW_LDT_1,2024.2.4,MacIntel,58.82352941,,,,,,,,,,,,,,,,,,,,,805.145,805.344,805.344,805.844,,,,,,,,,,,,,,1.173,1,,,,,,,,,,,,,,m,,,,,,,,,,,,,,,,124,0,805.844,807.027,m,1,1.173,,[],[],[],[],[],[],[],807.027,809.027,809.027,809.027,[],[],[],[],[],[],[],,,,809.027,809.027,0.084615385,-0.383333333,0,0,0,,0,123,123,91,1,3,word,CARDINAL,print,cardinal_p.png,,,,
,,,,32141,001,2025-12-01_16h04.27.708,HW_LDT_1,2024.2.4,MacIntel,58.82352941,,,,,,,,,,,,,,,,,,,,,809.028,809.227,809.227,809.727,,,,,,,,,,,,,,1.578,1,,,,,,,,,,,,,,z,,,,,,,,,,,,,,,,125,0,809.728,811.311,z,1,1.578,,[],[],[],[],[],[],[],811.311,813.31,813.31,813.31,[],[],[],[],[],[],[],,,,813.31,813.31,0.084615385,-0.383333333,0,0,0,,0,124,124,76,1,3,TL,stogare,cursive,stogare_c.png,,,,
,,,,32141,001,2025-12-01_16h04.27.708,HW_LDT_1,2024.2.4,MacIntel,58.82352941,,,,,,,,,,,,,,,,,,,,,813.312,813.511,813.511,814.01,,,,,,,,,,,,,,1.425,1,,,,,,,,,,,,,,z,,,,,,,,,,,,,,,,126,1,814.011,815.444,z,1,1.425,,[],[],[],[],[],[],[],815.444,817.444,817.444,818.844,[],[],[],[],[],[],[],z,1.389,,818.844,818.844,0.084615385,-0.383333333,0,0,0,,0,125,125,37,1,3,TL,cacapity,cursive,cacapity_c.png,,,,
,,,,32141,001,2025-12-01_16h04.27.708,HW_LDT_1,2024.2.4,MacIntel,58.82352941,,,,,,,,,,,,,,,,,,,,,818.846,819.044,819.044,819.544,,,,,,,,,,,,,,1.395,1,,,,,,,,,,,,,,m,,,,,,,,,,,,,,,,127,0,819.544,820.95,m,1,1.395,,[],[],[],[],[],[],[],820.95,822.944,822.944,822.945,[],[],[],[],[],[],[],,,,822.946,822.946,0.084615385,-0.383333333,0,0,0,,0,126,126,95,1,3,word,COMEDY,print,comedy_p.png,,,,
,,,,32141,001,2025-12-01_16h04.27.708,HW_LDT_1,2024.2.4,MacIntel,58.82352941,,,,,,,,,,,,,,,,,,,,,822.947,823.144,823.144,823.644,,,,,,,,,,,,,,0.834,0,,,,,,,,,,,,,,m,,,,,,,,,,,,,,,,128,0,823.644,824.494,z,0,0.834,,[],[],[],[],[],[],[],824.494,826.494,826.494,826.494,[],[],[],[],[],[],[],,,,826.494,826.494,0.084615385,-0.383333333,0,0,0,,0,127,127,128,1,3,word,PACIFIC,cursive,pacific_c.png,,,,
,,,,32141,001,2025-12-01_16h04.27.708,HW_LDT_1,2024.2.4,MacIntel,58.82352941,,,,,,,,,,,,,,,,,,,,,826.495,826.693,826.693,827.194,,,,,,,,,,,,,,1.077,1,,,,,,,,,,,,,,z,,,,,,,,,,,,,,,,129,0,827.194,828.277,z,1,1.077,,[],[],[],[],[],[],[],828.277,830.277,830.277,830.278,[],[],[],[],[],[],[],,,,830.278,830.278,0.084615385,-0.383333333,0,0,0,,0,128,128,33,1,3,TL,adsivory,print,adsivory_p.png,,,,
,,,,32141,001,2025-12-01_16h04.27.708,HW_LDT_1,2024.2.4,MacIntel,58.82352941,,,,,,,,,,,,,,,,,,,,,830.279,830.477,830.477,830.977,,,,,,,,,,,,,,2.505,1,,,,,,,,,,,,,,z,,,,,,,,,,,,,,,,130,0,830.977,833.494,z,1,2.505,,[],[],[],[],[],[],[],833.494,835.494,835.494,835.494,[],[],[],[],[],[],[],,,,835.494,835.494,0.084615385,-0.383333333,0,0,0,,0,129,129,20,1,3,RL,orimipal,cursive,orimipal_c.png,,,,
,,,,32141,001,2025-12-01_16h04.27.708,HW_LDT_1,2024.2.4,MacIntel,58.82352941,,,,,,,,,,,,,,,,,,,,,835.495,835.694,835.694,836.194,,,,,,,,,,,,,,1.162,1,,,,,,,,,,,,,,m,,,,,,,,,,,,,,,,131,0,836.194,837.366,m,1,1.162,,[],[],[],[],[],[],[],837.366,839.361,839.361,839.361,[],[],[],[],[],[],[],,,,839.361,839.361,0.084615385,-0.383333333,0,0,0,,0,130,130,145,1,3,word,RESUME,cursive,resume_c.png,,,,
,,,,32141,001,2025-12-01_16h04.27.708,HW_LDT_1,2024.2.4,MacIntel,58.82352941,,,,,,,,,,,,,,,,,,,,,839.362,839.561,839.561,840.061,,,,,,,,,,,,,,5.873,0,,,,,,,,,,,,,,m,,,,,,,,,,,,,,,,132,0,840.061,845.943,z,0,5.873,,[],[],[],[],[],[],[],845.943,847.943,847.943,847.943,[],[],[],[],[],[],[],,,,847.943,847.944,0.084615385,-0.383333333,0,0,0,,0,131,131,123,1,3,word,MODERATE,cursive,moderate_c.png,,,,
,,,,32141,001,2025-12-01_16h04.27.708,HW_LDT_1,2024.2.4,MacIntel,58.82352941,,,,,,,,,,,,,,,,,,,,,847.945,848.144,848.144,848.644,,,,,,,,,,,,,,1.457,1,,,,,,,,,,,,,,z,,,,,,,,,,,,,,,,133,0,848.644,850.11,z,1,1.457,,[],[],[],[],[],[],[],850.11,852.11,852.11,852.11,[],[],[],[],[],[],[],,,,852.11,852.111,0.084615385,-0.383333333,0,0,0,,0,132,132,32,1,3,TL,adacemy,print,adacemy_p.png,,,,
,,,,32141,001,2025-12-01_16h04.27.708,HW_LDT_1,2024.2.4,MacIntel,58.82352941,,,,,,,,,,,,,,,,,,,,,852.111,852.311,852.311,852.81,,,,,,,,,,,,,,1.471,1,,,,,,,,,,,,,,m,,,,,,,,,,,,,,,,134,1,852.811,854.293,m,1,1.471,,[],[],[],[],[],[],[],854.293,856.293,856.293,857.8,[],[],[],[],[],[],[],m,1.494,,857.8,857.8,0.084615385,-0.383333333,0,0,0,,0,133,133,137,1,3,word,RAPIDLY,print,rapidly_p.png,,,,
,,,,32141,001,2025-12-01_16h04.27.708,HW_LDT_1,2024.2.4,MacIntel,58.82352941,,,,,,,,,,,,,,,,,,,,,857.8,857.994,857.994,858.494,,,,,,,,,,,,,,1.363,1,,,,,,,,,,,,,,m,,,,,,,,,,,,,,,,135,0,858.494,859.867,m,1,1.363,,[],[],[],[],[],[],[],859.867,861.86,861.86,861.861,[],[],[],[],[],[],[],,,,861.861,861.861,0.084615385,-0.383333333,0,0,0,,0,134,134,104,1,3,word,DOMINANT,print,dominant_p.png,,,,
,,,,32141,001,2025-12-01_16h04.27.708,HW_LDT_1,2024.2.4,MacIntel,58.82352941,,,,,,,,,,,,,,,,,,,,,861.862,862.06,862.06,862.56,,,,,,,,,,,,,,2.24,1,,,,,,,,,,,,,,m,,,,,,,,,,,,,,,,136,1,862.561,864.81,m,1,2.24,,[],[],[],[],[],[],[],864.81,866.81,866.81,869.75,[],[],[],[],[],[],[],m,2.927,,869.75,869.75,0.084615385,-0.383333333,0,0,0,,0,135,135,87,1,3,word,CAFETERIA,print,cafeteria_p.png,,,,
,,,,32141,001,2025-12-01_16h04.27.708,HW_LDT_1,2024.2.4,MacIntel,58.82352941,,,,,,,,,,,,,,,,,,,,,869.751,869.944,869.944,870.443,,,,,,,,,,,,,,2.79,1,,,,,,,,,,,,,,m,,,,,,,,,,,,,,,,137,0,870.444,873.243,m,1,2.79,,[],[],[],[],[],[],[],873.243,875.244,875.244,875.244,[],[],[],[],[],[],[],,,,875.244,875.245,0.084615385,-0.383333333,0,0,0,,0,136,136,102,1,3,word,DENSITY,print,density_p.png,,,,
,,,,32141,001,2025-12-01_16h04.27.708,HW_LDT_1,2024.2.4,MacIntel,58.82352941,,,,,,,,,,,,,,,,,,,,,875.247,875.444,875.444,875.944,,,,,,,,,,,,,,0.992,1,,,,,,,,,,,,,,m,,,,,,,,,,,,,,,,138,0,875.944,876.95,m,1,0.992,,[],[],[],[],[],[],[],876.95,878.943,878.943,878.944,[],[],[],[],[],[],[],,,,878.944,878.944,0.084615385,-0.383333333,0,0,0,,0,137,137,105,1,3,word,EDITOR,print,editor_p.png,,,,
,,,,32141,001,2025-12-01_16h04.27.708,HW_LDT_1,2024.2.4,MacIntel,58.82352941,,,,,,,,,,,,,,,,,,,,,878.944,879.144,879.144,879.644,,,,,,,,,,,,,,2.144,0,,,,,,,,,,,,,,m,,,,,,,,,,,,,,,,139,0,879.644,881.794,z,0,2.144,,[],[],[],[],[],[],[],881.794,883.794,883.794,883.794,[],[],[],[],[],[],[],,,,883.794,883.794,0.084615385,-0.383333333,0,0,0,,0,138,138,149,1,3,word,SENATOR,cursive,senator_c.png,,,,
,,,,32141,001,2025-12-01_16h04.27.708,HW_LDT_1,2024.2.4,MacIntel,58.82352941,,,,,,,,,,,,,,,,,,,,,883.795,883.994,883.994,884.494,,,,,,,,,,,,,,1.384,1,,,,,,,,,,,,,,z,,,,,,,,,,,,,,,,140,0,884.494,885.893,z,1,1.384,,[],[],[],[],[],[],[],885.893,887.893,887.894,887.894,[],[],[],[],[],[],[],,,,887.894,887.894,0.084615385,-0.383333333,0,0,0,,0,139,139,60,1,3,TL,panert,print,panert_p.png,,,,
,,,,32141,001,2025-12-01_16h04.27.708,HW_LDT_1,2024.2.4,MacIntel,58.82352941,,,,,,,,,,,,,,,,,,,,,887.894,888.093,888.094,888.593,,,,,,,,,,,,,,2.072,1,,,,,,,,,,,,,,m,,,,,,,,,,,,,,,,141,0,888.594,890.677,m,1,2.072,,[],[],[],[],[],[],[],890.677,892.677,892.677,892.678,[],[],[],[],[],[],[],,,,892.678,892.678,0.084615385,-0.383333333,0,0,0,,0,140,140,80,1,3,word,ACADEMY,print,academy_p.png,,,,
,,,,32141,001,2025-12-01_16h04.27.708,HW_LDT_1,2024.2.4,MacIntel,58.82352941,,,,,,,,,,,,,,,,,,,,,892.679,892.877,892.877,893.377,,,,,,,,,,,,,,1.241,1,,,,,,,,,,,,,,m,,,,,,,,,,,,,,,,142,0,893.378,894.627,m,1,1.241,,[],[],[],[],[],[],[],894.627,896.627,896.627,896.628,[],[],[],[],[],[],[],,,,896.628,896.628,0.084615385,-0.383333333,0,0,0,,0,141,141,129,1,3,word,PARENT,print,parent_p.png,,,,
,,,,32141,001,2025-12-01_16h04.27.708,HW_LDT_1,2024.2.4,MacIntel,58.82352941,,,,,,,,,,,,,,,,,,,,,896.629,896.827,896.827,897.327,,,,,,,,,,,,,,2.958,1,,,,,,,,,,,,,,z,,,,,,,,,,,,,,,,143,0,897.328,900.294,z,1,2.958,,[],[],[],[],[],[],[],900.294,902.293,902.293,902.293,[],[],[],[],[],[],[],,,,902.293,902.293,0.084615385,-0.383333333,0,0,0,,0,142,142,17,1,3,RL,motide,cursive,motide_c.png,,,,
,,,,32141,001,2025-12-01_16h04.27.708,HW_LDT_1,2024.2.4,MacIntel,58.82352941,,,,,,,,,,,,,,,,,,,,,902.294,902.494,902.494,902.994,,,,,,,,,,,,,,2.637,1,,,,,,,,,,,,,,m,,,,,,,,,,,,,,,,144,1,902.994,905.644,m,1,2.637,,[],[],[],[],[],[],[],905.644,907.644,907.644,909.444,[],[],[],[],[],[],[],z,1.791,,909.444,909.444,0.084615385,-0.383333333,0,0,0,,0,143,143,127,1,3,word,ORIGINAL,cursive,original_c.png,,,,
,,,,32141,001,2025-12-01_16h04.27.708,HW_LDT_1,2024.2.4,MacIntel,58.82352941,,,,,,,,,,,,,,,,,,,,,909.445,909.644,909.644,910.144,,,,,,,,,,,,,,1.975,1,,,,,,,,,,,,,,m,,,,,,,,,,,,,,,,145,0,910.144,912.132,m,1,1.975,,[],[],[],[],[],[],[],912.133,914.127,914.127,914.127,[],[],[],[],[],[],[],,,,914.128,914.128,0.084615385,-0.383333333,0,0,0,,0,144,144,83,1,3,word,ANIMAL,cursive,animal_c.png,,,,
,,,,32141,001,2025-12-01_16h04.27.708,HW_LDT_1,2024.2.4,MacIntel,58.82352941,,,,,,,,,,,,,,,,,,,,,914.129,914.327,914.327,914.827,,,,,,,,,,,,,,1.607,1,,,,,,,,,,,,,,m,,,,,,,,,,,,,,,,146,0,914.827,916.444,m,1,1.607,,[],[],[],[],[],[],[],916.444,918.443,918.443,918.444,[],[],[],[],[],[],[],,,,918.444,918.444,0.084615385,-0.383333333,0,0,0,,0,145,145,82,1,3,word,AMATEUR,print,amateur_p.png,,,,
,,,,32141,001,2025-12-01_16h04.27.708,HW_LDT_1,2024.2.4,MacIntel,58.82352941,,,,,,,,,,,,,,,,,,,,,918.445,918.643,918.643,919.144,,,,,,,,,,,,,,0.746,1,,,,,,,,,,,,,,m,,,,,,,,,,,,,,,,147,0,919.144,919.898,m,1,0.746,,[],[],[],[],[],[],[],919.898,921.893,921.893,921.893,[],[],[],[],[],[],[],,,,921.893,921.893,0.084615385,-0.383333333,0,0,0,,0,146,146,141,1,3,word,RELIGION,print,religion_p.png,,,,
,,,,32141,001,2025-12-01_16h04.27.708,HW_LDT_1,2024.2.4,MacIntel,58.82352941,,,,,,,,,,,,,,,,,,,,,921.894,922.093,922.093,922.593,,,,,,,,,,,,,,2.481,0,,,,,,,,,,,,,,z,,,,,,,,,,,,,,,,148,0,922.593,925.085,m,0,2.481,,[],[],[],[],[],[],[],925.085,927.077,927.077,927.078,[],[],[],[],[],[],[],,,,927.078,927.078,0.084615385,-0.383333333,0,0,0,,0,147,147,31,1,3,RL,trilude,print,trilude_p.png,,,,
,,,,32141,001,2025-12-01_16h04.27.708,HW_LDT_1,2024.2.4,MacIntel,58.82352941,,,,,,,,,,,,,,,,,,,,,927.079,927.277,927.277,927.777,,,,,,,,,,,,,,1.591,1,,,,,,,,,,,,,,z,,,,,,,,,,,,,,,,149,0,927.777,929.377,z,1,1.591,,[],[],[],[],[],[],[],929.377,931.377,931.377,931.377,[],[],[],[],[],[],[],,,,931.377,931.378,0.084615385,-0.383333333,0,0,0,,0,148,148,30,1,3,RL,strapely,print,strapely_p.png,,,,
,,,,32141,001,2025-12-01_16h04.27.708,HW_LDT_1,2024.2.4,MacIntel,58.82352941,,,,,,,,,,,,,,,,,,,,,931.379,931.577,931.577,932.077,,,,,,,,,,,,,,2.174,1,,,,,,,,,,,,,,z,,,,,,,,,,,,,,,,150,0,932.077,934.26,z,1,2.174,,[],[],[],[],[],[],[],934.26,936.26,936.261,936.261,[],[],[],[],[],[],[],,,,936.261,936.261,0.084615385,-0.383333333,0,0,0,,0,149,149,64,1,3,TL,radiply,print,radiply_p.png,,,,
,,,,32141,001,2025-12-01_16h04.27.708,HW_LDT_1,2024.2.4,MacIntel,58.82352941,,,,,,,,,,,,,,,,,,,,,936.263,936.46,936.46,936.96,,,,,,,,,,,,,,3.874,1,,,,,,,,,,,,,,z,,,,,,,,,,,,,,,,151,1,936.961,940.844,z,1,3.874,,[],[],[],[],[],[],[],940.844,942.844,942.844,945.993,[],[],[],[],[],[],[],m,3.142,,945.993,945.993,0.084615385,-0.383333333,0,0,0,,0,150,150,62,1,3,TL,prodive,print,prodive_p.png,,,,
,,,,32141,001,2025-12-01_16h04.27.708,HW_LDT_1,2024.2.4,MacIntel,58.82352941,,,,,,,,,,,,,,,,,,,,,945.994,946.193,946.194,946.694,,,,,,,,,,,,,,2.923,1,,,,,,,,,,,,,,z,,,,,,,,,,,,,,,,152,0,946.694,949.627,z,1,2.923,,[],[],[],[],[],[],[],949.627,951.626,951.626,951.627,[],[],[],[],[],[],[],,,,951.627,951.627,0.084615385,-0.383333333,0,0,0,,0,151,151,79,1,3,TL,veretan,cursive,veretan_c.png,,,,
,,,,32141,001,2025-12-01_16h04.27.708,HW_LDT_1,2024.2.4,MacIntel,58.82352941,,,,,,,,,,,,,,,,,,,,,951.629,951.827,951.827,952.327,,,,,,,,,,,,,,2.096,1,,,,,,,,,,,,,,z,,,,,,,,,,,,,,,,153,0,952.327,954.427,z,1,2.096,,[],[],[],[],[],[],[],954.427,956.427,956.427,956.427,[],[],[],[],[],[],[],,,,956.427,956.427,0.084615385,-0.383333333,0,0,0,,0,152,152,38,1,3,TL,carnidal,print,carnidal_p.png,,,,
,,,,32141,001,2025-12-01_16h04.27.708,HW_LDT_1,2024.2.4,MacIntel,58.82352941,,,,,,,,,,,,,,,,,,,,,956.429,956.627,956.627,957.127,,,,,,,,,,,,,,1.271,1,,,,,,,,,,,,,,m,,,,,,,,,,,,,,,,154,0,957.127,958.41,m,1,1.271,,[],[],[],[],[],[],[],958.41,960.41,960.41,960.411,[],[],[],[],[],[],[],,,,960.411,960.411,0.084615385,-0.383333333,0,0,0,,0,153,153,81,1,3,word,ADVISORY,print,advisory_p.png,,,,
,,,,32141,001,2025-12-01_16h04.27.708,HW_LDT_1,2024.2.4,MacIntel,58.82352941,,,,,,,,,,,,,,,,,,,,,960.412,960.609,960.609,961.11,,,,,,,,,,,,,,2.808,1,,,,,,,,,,,,,,z,,,,,,,,,,,,,,,,155,0,961.111,963.927,z,1,2.808,,[],[],[],[],[],[],[],963.927,965.927,965.927,965.927,[],[],[],[],[],[],[],,,,965.927,965.927,0.084615385,-0.383333333,0,0,0,,0,154,154,29,1,3,RL,selamor,cursive,selamor_c.png,,,,
,,,,32141,001,2025-12-01_16h04.27.708,HW_LDT_1,2024.2.4,MacIntel,58.82352941,,,,,,,,,,,,,,,,,,,,,965.929,966.127,966.127,966.627,,,,,,,,,,,,,,2.391,0,,,,,,,,,,,,,,m,,,,,,,,,,,,,,,,156,0,966.628,969.027,z,0,2.391,,[],[],[],[],[],[],[],969.027,971.027,971.027,971.027,[],[],[],[],[],[],[],,,,971.027,971.028,0.084615385,-0.383333333,0,0,0,,0,155,155,122,1,3,word,MOBILE,cursive,mobile_c.png,,,,
,,,,32141,001,2025-12-01_16h04.27.708,HW_LDT_1,2024.2.4,MacIntel,58.82352941,,,,,,,,,,,,,,,,,,,,,971.029,971.226,971.226,971.727,,,,,,,,,,,,,,1.496,1,,,,,,,,,,,,,,z,,,,,,,,,,,,,,,,157,0,971.727,973.227,z,1,1.496,,[],[],[],[],[],[],[],973.227,975.226,975.226,975.227,[],[],[],[],[],[],[],,,,975.227,975.227,0.084615385,-0.383333333,0,0,0,,0,156,156,27,1,3,RL,recile,print,recile_p.png,,,,
,,,,32141,001,2025-12-01_16h04.27.708,HW_LDT_1,2024.2.4,MacIntel,58.82352941,,,,,,,,,,,,,,,,,,,,,975.227,975.427,975.427,975.927,,,,,,,,,,,,,,4.524,1,,,,,,,,,,,,,,z,,,,,,,,,,,,,,,,158,0,975.927,980.46,z,1,4.524,,[],[],[],[],[],[],[],980.46,982.46,982.46,982.46,[],[],[],[],[],[],[],,,,982.46,982.461,0.084615385,-0.383333333,0,0,0,,0,157,157,34,1,3,TL,aminal,cursive,aminal_c.png,,,,
,,,,32141,001,2025-12-01_16h04.27.708,HW_LDT_1,2024.2.4,MacIntel,58.82352941,,,,,,,,,,,,,,,,,,,,,982.462,982.66,982.66,983.16,,,,,,,,,,,,,,1.963,0,,,,,,,,,,,,,,z,,,,,,,,,,,,,,,,159,0,983.161,985.134,m,0,1.963,,[],[],[],[],[],[],[],985.134,987.127,987.127,987.127,[],[],[],[],[],[],[],,,,987.128,987.128,0.084615385,-0.383333333,0,0,0,,0,158,158,69,1,3,TL,redisent,cursive,redisent_c.png,,,,
,,,,32141,001,2025-12-01_16h04.27.708,HW_LDT_1,2024.2.4,MacIntel,58.82352941,,,,,,,,,,,,,,,,,,,,,987.129,987.327,987.327,987.827,,,,,,,,,,,,,,5.007,0,,,,,,,,,,,,,,m,,,,,,,,,,,,,,,,160,0,987.827,992.844,z,0,5.007,,[],[],[],[],[],[],[],992.844,994.843,994.843,994.844,[],[],[],[],[],[],[],,,,994.844,994.845,0.084615385,-0.383333333,0,0,0,,0,159,159,109,1,3,word,GRATEFUL,cursive,grateful_c.png,,,,
,,,,32141,001,2025-12-01_16h04.27.708,HW_LDT_1,2024.2.4,MacIntel,58.82352941,,,,,,,,,,,,,,,,,,,,,,,,,,,,,,,,,,,,,,,,,,,,,,,,,,,,,,,,,,,,,,,,,,,,,,,,,,,,,,,,,,,,,,,,,,,,,,,,,,,,,,,,,,,,,,,,,,,,,,994.861,999.854
