counterbalance_lists.group,counterbalance_lists.remaining,get_list.started,get_list.stopped,participant,session,date,expName,psychopyVersion,OS,frameRate,Instructions.started,Instructions.stopped,key_resp.keys,key_resp.rt,key_resp.duration,instr_done_touch.x,instr_done_touch.y,instr_done_touch.leftButton,instr_done_touch.midButton,instr_done_touch.rightButton,start_instr.thisRepN,start_instr.thisTrialN,start_instr.thisN,start_instr.thisIndex,start_instr.ran,pageN,phase,instruct_text,has_image,instruct_image,showProgress.started,showProgress.stopped,fix.started,fix.stopped,prac.started,prac.stopped,response.keys,response.corr,response.rt,response.duration,touch_resp.x,touch_resp.y,touch_resp.leftButton,touch_resp.midButton,touch_resp.rightButton,touch_resp.time,touch_resp.clicked_name,rt,corr,feedback.started,feedback.stopped,trials.thisRepN,trials.thisTrialN,trials.thisN,trials.thisIndex,trials.ran,TrialID,StimulusType,Condition,PrimeDuration,Prime,Target,corrAns,Instructions_expt.started,Instructions_expt.stopped,key_resp_3.keys,key_resp_3.rt,key_resp_3.duration,instr_done_touch_3.x,instr_done_touch_3.y,instr_done_touch_3.leftButton,instr_done_touch_3.midButton,instr_done_touch_3.rightButton,instr_experiment.thisRepN,instr_experiment.thisTrialN,instr_experiment.thisN,instr_experiment.thisIndex,instr_experiment.ran,trialID,flag,maintask.started,maintask.stopped,key_resp_2.keys,key_resp_2.corr,key_resp_2.rt,key_resp_2.duration,targ_click.x,targ_click.y,targ_click.leftButton,targ_click.midButton,targ_click.rightButton,targ_click.time,targ_click.clicked_name,ITI.started,ITI.stopped,probe.started,probe.stopped,click_probe.x,click_probe.y,click_probe.leftButton,click_probe.midButton,click_probe.rightButton,click_probe.time,click_probe.clicked_name,key_resp_probe.keys,Break.started,Break.stopped,break_done_touch.x,break_done_touch.y,break_done_touch.leftButton,break_done_touch.midButton,break_done_touch.rightButton,break_done_keyboard.keys,list3_trials.thisRepN,list3_trials.thisTrialN,list3_trials.thisN,list3_trials.thisIndex,list3_trials.ran,list_id,item_type,string,font,stim_file,key_resp_probe.rt,key_resp_probe.duration,break_done_keyboard.rt,break_done_keyboard.duration,End.started,End.stopped
list3,,0.4241,0.4244,32140,001,2025-10-17_11h41.05.930,HW_LDT_1,2024.2.4,Win32,59.52380952,,,,,,,,,,,,,,,,,,,,,,,,,,,,,,,,,,,,,,,,,,,,,,,,,,,,,,,,,,,,,,,,,,,,,,,,,,,,,,,,,,,,,,,,,,,,,,,,,,,,,,,,,,,,,,,,,,,,,,,
,,,,32140,001,2025-10-17_11h41.05.930,HW_LDT_1,2024.2.4,Win32,59.52380952,0.4526,23.1607,space,22.6639,,-0.190833321,-0.219166718,0,0,0,0,0,0,0,1,1,instructions,"INSTRUCTIONS
At the start of each trial, look at the plus sign  (+) in the center of the screen.  This tells you that a trial is about to begin and where to look. Second, the plus sign will disappear and a string of letters will appear. Your task is to determine if the string of letters is a word or not. If the item is a word press the M key (on keyboard)  or touch the word button (phone/tablet).  If the item is not a word,  press the  Z key (on keyboard)  or touch the nonword button (on phone/tablet). The items will be presented for a short time. 
Press the space bar or touch  continue.",0,,,,,,,,,,,,,,,,,,,,,,,,,,,,,,,,,,,,,,,,,,,,,,,,,,,,,,,,,,,,,,,,,,,,,,,,,,,,,,,,,,,,,,,,,,,,,,,,,,,,
,,,,32140,001,2025-10-17_11h41.05.930,HW_LDT_1,2024.2.4,Win32,59.52380952,23.1643,28.5012,space,5.298,,-0.190833321,-0.219166718,0,0,0,0,1,1,1,1,2,instructions,"If your device has a keyboard, press the 'Z' key for nonwords and the 'M' key for words.





Press the space bar or touch the button below to continue.",0,keyboard-example.gif,,,,,,,,,,,,,,,,,,,,,,,,,,,,,,,,,,,,,,,,,,,,,,,,,,,,,,,,,,,,,,,,,,,,,,,,,,,,,,,,,,,,,,,,,,,,,,,,,,,
,,,,32140,001,2025-10-17_11h41.05.930,HW_LDT_1,2024.2.4,Win32,59.52380952,28.5053,29.651,space,1.1234,,-0.190833321,-0.219166718,0,0,0,0,2,2,2,1,3,instructions,"If you are using a touchscreen only device, use the buttons on the screen. Do not use the mouse.





Press the space bar or touch the button below to continue.",0,touchscreen-example.gif,,,,,,,,,,,,,,,,,,,,,,,,,,,,,,,,,,,,,,,,,,,,,,,,,,,,,,,,,,,,,,,,,,,,,,,,,,,,,,,,,,,,,,,,,,,,,,,,,,,
,,,,32140,001,2025-10-17_11h41.05.930,HW_LDT_1,2024.2.4,Win32,59.52380952,29.6551,40.2169,space,10.5432,,-0.190833321,-0.219166718,0,0,0,0,3,3,3,1,4,instructions,"It is very important that you respond as quickly and accurately as possible, as each letter string will only be on the screen for two seconds. If you do not respond within this time, the message 'Too slow!' will be displayed and the experiment will progress to the next letter string. The first 20 trials will be practice trials and you will receive feedback on your answers. 

Press the space bar or touch the button below to start the practice trials.",0,,,,,,,,,,,,,,,,,,,,,,,,,,,,,,,,,,,,,,,,,,,,,,,,,,,,,,,,,,,,,,,,,,,,,,,,,,,,,,,,,,,,,,,,,,,,,,,,,,,,
,,,,32140,001,2025-10-17_11h41.05.930,HW_LDT_1,2024.2.4,Win32,59.52380952,,,,,,,,,,,,,,,,,,,,,40.2567,40.4062,40.4065,40.921,40.9216,43.7234,z,1,2.7751,,[],[],[],[],[],[],[],2.7751,1,43.7239,44.218,0,0,0,10,1,1011,NW,"ID",16,inlade,INLADE,z,,,,,,,,,,,,,,,,,,,,,,,,,,,,,,,,,,,,,,,,,,,,,,,,,,,,,,,,,,,,,,,,,,
,,,,32140,001,2025-10-17_11h41.05.930,HW_LDT_1,2024.2.4,Win32,59.52380952,,,,,,,,,,,,,,,,,,,,,44.2206,44.4207,44.4209,44.9206,44.9246,46.5062,z,1,1.5683,,[],[],[],[],[],[],[],1.5683,1,46.5065,47.0041,0,1,1,13,1,1014,NW,UN,33,winfer,ROUPET,z,,,,,,,,,,,,,,,,,,,,,,,,,,,,,,,,,,,,,,,,,,,,,,,,,,,,,,,,,,,,,,,,,,
,,,,32140,001,2025-10-17_11h41.05.930,HW_LDT_1,2024.2.4,Win32,59.52380952,,,,,,,,,,,,,,,,,,,,,47.0083,47.2027,47.2027,47.7035,47.7068,49.0068,m,1,1.2858,,[],[],[],[],[],[],[],1.2858,1,49.007,49.5032,0,2,2,6,1,1007,WORD,UN,16,tropic,ZOMBIE,m,,,,,,,,,,,,,,,,,,,,,,,,,,,,,,,,,,,,,,,,,,,,,,,,,,,,,,,,,,,,,,,,,,
,,,,32140,001,2025-10-17_11h41.05.930,HW_LDT_1,2024.2.4,Win32,59.52380952,,,,,,,,,,,,,,,,,,,,,49.5071,49.7,49.7,50.2034,50.2061,51.188,m,1,0.9671,,[],[],[],[],[],[],[],0.9671,1,51.1882,51.6876,0,3,3,5,1,1006,WORD,UN,33,frenzy,OBTAIN,m,,,,,,,,,,,,,,,,,,,,,,,,,,,,,,,,,,,,,,,,,,,,,,,,,,,,,,,,,,,,,,,,,,
,,,,32140,001,2025-10-17_11h41.05.930,HW_LDT_1,2024.2.4,Win32,59.52380952,,,,,,,,,,,,,,,,,,,,,51.691,51.8877,51.8878,52.3867,52.3891,53.6499,m,1,1.2391,,[],[],[],[],[],[],[],1.2391,1,53.6503,54.1529,0,4,4,0,1,1001,WORD,"ID",33,utopia,UTOPIA,m,,,,,,,,,,,,,,,,,,,,,,,,,,,,,,,,,,,,,,,,,,,,,,,,,,,,,,,,,,,,,,,,,,
,,,,32140,001,2025-10-17_11h41.05.930,HW_LDT_1,2024.2.4,Win32,59.52380952,,,,,,,,,,,,,,,,,,,,,54.1557,54.3539,54.3541,54.8534,54.8567,55.9211,z,1,1.0508,,[],[],[],[],[],[],[],1.0508,1,55.9214,56.4205,0,5,5,11,1,1012,NW,"ID",16,rashet,RASHET,z,,,,,,,,,,,,,,,,,,,,,,,,,,,,,,,,,,,,,,,,,,,,,,,,,,,,,,,,,,,,,,,,,,
,,,,32140,001,2025-10-17_11h41.05.930,HW_LDT_1,2024.2.4,Win32,59.52380952,,,,,,,,,,,,,,,,,,,,,56.4239,56.6163,56.6164,57.115,57.1163,58.6989,z,1,1.5574,,[],[],[],[],[],[],[],1.5574,1,58.6991,59.203,0,6,6,9,1,1010,NW,"ID",33,fariny,FARINY,z,,,,,,,,,,,,,,,,,,,,,,,,,,,,,,,,,,,,,,,,,,,,,,,,,,,,,,,,,,,,,,,,,,
,,,,32140,001,2025-10-17_11h41.05.930,HW_LDT_1,2024.2.4,Win32,59.52380952,,,,,,,,,,,,,,,,,,,,,59.2068,59.4054,59.4054,59.9025,59.905,60.7709,z,1,0.8514,,[],[],[],[],[],[],[],0.8514,1,60.7713,61.2686,0,7,7,15,1,1016,NW,UN,16,mushed,WHAISE,z,,,,,,,,,,,,,,,,,,,,,,,,,,,,,,,,,,,,,,,,,,,,,,,,,,,,,,,,,,,,,,,,,,
,,,,32140,001,2025-10-17_11h41.05.930,HW_LDT_1,2024.2.4,Win32,59.52380952,,,,,,,,,,,,,,,,,,,,,61.2709,61.4656,61.4656,61.9705,61.973,62.5395,m,1,0.5533,,[],[],[],[],[],[],[],0.5533,1,62.5397,63.032,0,8,8,1,1,1002,WORD,"ID",33,adjust,ADJUST,m,,,,,,,,,,,,,,,,,,,,,,,,,,,,,,,,,,,,,,,,,,,,,,,,,,,,,,,,,,,,,,,,,,
,,,,32140,001,2025-10-17_11h41.05.930,HW_LDT_1,2024.2.4,Win32,59.52380952,,,,,,,,,,,,,,,,,,,,,63.0352,63.2349,63.2349,63.7345,63.7379,64.4035,m,1,0.6513,,[],[],[],[],[],[],[],0.6513,1,64.4041,64.9041,0,9,9,4,1,1005,WORD,UN,33,abound,SQUEAK,m,,,,,,,,,,,,,,,,,,,,,,,,,,,,,,,,,,,,,,,,,,,,,,,,,,,,,,,,,,,,,,,,,,
,,,,32140,001,2025-10-17_11h41.05.930,HW_LDT_1,2024.2.4,Win32,59.52380952,,,,,,,,,,,,,,,,,,,,,64.9071,65.103,65.1031,65.5998,65.6022,66.486,z,1,0.8664,,[],[],[],[],[],[],[],0.8664,1,66.4862,66.9819,0,10,10,12,1,1013,NW,UN,33,adveil,SPRINY,z,,,,,,,,,,,,,,,,,,,,,,,,,,,,,,,,,,,,,,,,,,,,,,,,,,,,,,,,,,,,,,,,,,
,,,,32140,001,2025-10-17_11h41.05.930,HW_LDT_1,2024.2.4,Win32,59.52380952,,,,,,,,,,,,,,,,,,,,,66.984,67.182,67.182,67.6859,67.689,68.5489,m,1,0.843,,[],[],[],[],[],[],[],0.843,1,68.5492,69.0556,0,11,11,3,1,1004,WORD,"ID",16,matrix,MATRIX,m,,,,,,,,,,,,,,,,,,,,,,,,,,,,,,,,,,,,,,,,,,,,,,,,,,,,,,,,,,,,,,,,,,
,,,,32140,001,2025-10-17_11h41.05.930,HW_LDT_1,2024.2.4,Win32,59.52380952,,,,,,,,,,,,,,,,,,,,,69.0575,69.2517,69.2519,69.7533,69.7562,70.6406,z,1,0.8705,,[],[],[],[],[],[],[],0.8705,1,70.6407,71.1399,0,12,12,14,1,1015,NW,UN,16,miaber,THRALE,z,,,,,,,,,,,,,,,,,,,,,,,,,,,,,,,,,,,,,,,,,,,,,,,,,,,,,,,,,,,,,,,,,,
,,,,32140,001,2025-10-17_11h41.05.930,HW_LDT_1,2024.2.4,Win32,59.52380952,,,,,,,,,,,,,,,,,,,,,71.1426,71.3361,71.3362,71.8351,71.8383,72.6905,m,1,0.8379,,[],[],[],[],[],[],[],0.8379,1,72.6907,73.1859,0,13,13,7,1,1008,WORD,UN,16,hurdle,VOLUME,m,,,,,,,,,,,,,,,,,,,,,,,,,,,,,,,,,,,,,,,,,,,,,,,,,,,,,,,,,,,,,,,,,,
,,,,32140,001,2025-10-17_11h41.05.930,HW_LDT_1,2024.2.4,Win32,59.52380952,,,,,,,,,,,,,,,,,,,,,73.1893,73.3851,73.3852,73.8861,73.8886,74.508,m,1,0.6053,,[],[],[],[],[],[],[],0.6053,1,74.5083,75.0025,0,14,14,2,1,1003,WORD,"ID",16,almond,ALMOND,m,,,,,,,,,,,,,,,,,,,,,,,,,,,,,,,,,,,,,,,,,,,,,,,,,,,,,,,,,,,,,,,,,,
,,,,32140,001,2025-10-17_11h41.05.930,HW_LDT_1,2024.2.4,Win32,59.52380952,,,,,,,,,,,,,,,,,,,,,75.0057,75.2018,75.2019,75.7041,75.7048,76.6373,z,1,0.9198,,[],[],[],[],[],[],[],0.9198,1,76.6376,77.1318,0,15,15,8,1,1009,NW,"ID",33,aslert,ASLERT,z,,,,,,,,,,,,,,,,,,,,,,,,,,,,,,,,,,,,,,,,,,,,,,,,,,,,,,,,,,,,,,,,,,
,,,,32140,001,2025-10-17_11h41.05.930,HW_LDT_1,2024.2.4,Win32,59.52380952,,,,,,,,,,,,,,,,1,end_of_practice,"You have completed the practice trials. During the experimental trials, you will not receive feedback. On some trials you will be asked to report whether the item you just saw was in cursive or print. 
Before you begin, please ensure that you are in a comfortable and quiet location and will not be disturbed for about 15 minutes, as we cannot use your data if you do not complete all the trials. 
 When you are ready to start the experimental trials, please press space or touch the button below.",,,,,,,,,,,,,,,,,,,,,,,,,,,,,,,,,,,,77.142,90.9397,space,13.7769,,-0.190833321,-0.219166718,0,0,0,0,0,0,0,1,,,,,,,,,,,,,,,,,,,,,,,,,,,,,,,,,,,,,,,,,,,,,,,,,,,
,,,,32140,001,2025-10-17_11h41.05.930,HW_LDT_1,2024.2.4,Win32,59.52380952,,,,,,,,,,,,,,,,,,,,,90.9676,91.1308,91.1309,91.6352,,,,,,,,,,,,,,0.9954,1,,,,,,,,,,,,,,z,,,,,,,,,,,,,,,,1,0,91.6377,92.6382,z,1,0.9954,,[],[],[],[],[],[],[],92.6386,94.6346,94.636,94.641,[],[],[],[],[],[],[],,94.6413,94.6493,-0.190833321,-0.219166718,0,0,0,,0,0,0,27,1,3,RL,recile,print,recile_p.png,,,,,,
,,,,32140,001,2025-10-17_11h41.05.930,HW_LDT_1,2024.2.4,Win32,59.52380952,,,,,,,,,,,,,,,,,,,,,94.6509,94.8469,94.847,95.3517,,,,,,,,,,,,,,2.0796,1,,,,,,,,,,,,,,z,,,,,,,,,,,,,,,,2,1,95.3539,97.4359,z,1,2.0796,,[],[],[],[],[],[],[],97.4361,99.4358,99.436,101.337,[],[],[],[],[],[],[],z,101.3372,101.3373,-0.190833321,-0.219166718,0,0,0,,0,1,1,13,1,3,RL,helicage,cursive,helicage_c.png,1.8987,,,,,
,,,,32140,001,2025-10-17_11h41.05.930,HW_LDT_1,2024.2.4,Win32,59.52380952,,,,,,,,,,,,,,,,,,,,,101.3394,101.5344,101.5346,102.0351,,,,,,,,,,,,,,1.5637,1,,,,,,,,,,,,,,z,,,,,,,,,,,,,,,,3,0,102.0372,103.6022,z,1,1.5637,,[],[],[],[],[],[],[],103.6024,105.6007,105.6008,105.6011,[],[],[],[],[],[],[],,105.6012,105.6015,-0.190833321,-0.219166718,0,0,0,,0,2,2,24,1,3,RL,quafidy,print,quafidy_p.png,,,,,,
,,,,32140,001,2025-10-17_11h41.05.930,HW_LDT_1,2024.2.4,Win32,59.52380952,,,,,,,,,,,,,,,,,,,,,105.6038,105.8009,105.801,106.2996,,,,,,,,,,,,,,1.068,1,,,,,,,,,,,,,,m,,,,,,,,,,,,,,,,4,0,106.3016,107.3713,m,1,1.068,,[],[],[],[],[],[],[],107.3714,109.3678,109.3679,109.3681,[],[],[],[],[],[],[],,109.3683,109.3686,-0.190833321,-0.219166718,0,0,0,,0,3,3,139,1,3,word,REGULAR,print,regular_p.png,,,,,,
,,,,32140,001,2025-10-17_11h41.05.930,HW_LDT_1,2024.2.4,Win32,59.52380952,,,,,,,,,,,,,,,,,,,,,109.3715,109.5674,109.5675,110.0672,,,,,,,,,,,,,,0.6356,1,,,,,,,,,,,,,,m,,,,,,,,,,,,,,,,5,0,110.0691,110.7137,m,1,0.6356,,[],[],[],[],[],[],[],110.7138,112.7132,112.7133,112.7139,[],[],[],[],[],[],[],,112.7139,112.7142,-0.190833321,-0.219166718,0,0,0,,0,4,4,104,1,3,word,DOMINANT,print,dominant_p.png,,,,,,
,,,,32140,001,2025-10-17_11h41.05.930,HW_LDT_1,2024.2.4,Win32,59.52380952,,,,,,,,,,,,,,,,,,,,,112.717,112.9133,112.9133,113.4132,,,,,,,,,,,,,,0.7952,0,,,,,,,,,,,,,,z,,,,,,,,,,,,,,,,6,0,113.4153,114.2128,m,0,0.7952,,[],[],[],[],[],[],[],114.2129,116.213,116.2132,116.2138,[],[],[],[],[],[],[],,116.2139,116.215,-0.190833321,-0.219166718,0,0,0,,0,5,5,53,1,3,TL,marnigal,print,marnigal_p.png,,,,,,
,,,,32140,001,2025-10-17_11h41.05.930,HW_LDT_1,2024.2.4,Win32,59.52380952,,,,,,,,,,,,,,,,,,,,,116.2173,116.413,116.413,116.9129,,,,,,,,,,,,,,2.8022,1,,,,,,,,,,,,,,z,,,,,,,,,,,,,,,,7,0,116.9149,119.7294,z,1,2.8022,,[],[],[],[],[],[],[],119.7297,121.7297,121.7299,121.7302,[],[],[],[],[],[],[],,121.7303,121.7306,-0.190833321,-0.219166718,0,0,0,,0,6,6,6,1,3,RL,cenesony,cursive,cenesony_c.png,,,,,,
,,,,32140,001,2025-10-17_11h41.05.930,HW_LDT_1,2024.2.4,Win32,59.52380952,,,,,,,,,,,,,,,,,,,,,121.7339,121.9291,121.9292,122.4294,,,,,,,,,,,,,,0.788,1,,,,,,,,,,,,,,z,,,,,,,,,,,,,,,,8,0,122.4314,123.2296,z,1,0.788,,[],[],[],[],[],[],[],123.2298,125.2284,125.2285,125.2286,[],[],[],[],[],[],[],,125.2287,125.2287,-0.190833321,-0.219166718,0,0,0,,0,7,7,0,1,3,RL,afaneur,print,afaneur_p.png,,,,,,
,,,,32140,001,2025-10-17_11h41.05.930,HW_LDT_1,2024.2.4,Win32,59.52380952,,,,,,,,,,,,,,,,,,,,,125.2299,125.4292,125.4293,125.9293,,,,,,,,,,,,,,1.4458,1,,,,,,,,,,,,,,z,,,,,,,,,,,,,,,,9,0,125.9312,127.3791,z,1,1.4458,,[],[],[],[],[],[],[],127.3792,129.3792,129.3793,129.3795,[],[],[],[],[],[],[],,129.3796,129.3799,-0.190833321,-0.219166718,0,0,0,,0,8,8,32,1,3,TL,adacemy,print,adacemy_p.png,,,,,,
,,,,32140,001,2025-10-17_11h41.05.930,HW_LDT_1,2024.2.4,Win32,59.52380952,,,,,,,,,,,,,,,,,,,,,129.3828,129.5791,129.5792,130.0789,,,,,,,,,,,,,,1.0581,1,,,,,,,,,,,,,,z,,,,,,,,,,,,,,,,10,0,130.0809,131.1461,z,1,1.0581,,[],[],[],[],[],[],[],131.1462,133.146,133.1461,133.1463,[],[],[],[],[],[],[],,133.1463,133.1465,-0.190833321,-0.219166718,0,0,0,,0,9,9,59,1,3,TL,paficic,cursive,paficic_c.png,,,,,,
,,,,32140,001,2025-10-17_11h41.05.930,HW_LDT_1,2024.2.4,Win32,59.52380952,,,,,,,,,,,,,,,,,,,,,133.1497,133.3455,133.3455,133.8456,,,,,,,,,,,,,,1.6627,1,,,,,,,,,,,,,,z,,,,,,,,,,,,,,,,11,0,133.8474,135.5116,z,1,1.6627,,[],[],[],[],[],[],[],135.5118,137.5122,137.5123,137.5125,[],[],[],[],[],[],[],,137.5126,137.5129,-0.190833321,-0.219166718,0,0,0,,0,10,10,74,1,3,TL,spemicen,print,spemicen_p.png,,,,,,
,,,,32140,001,2025-10-17_11h41.05.930,HW_LDT_1,2024.2.4,Win32,59.52380952,,,,,,,,,,,,,,,,,,,,,137.5162,137.712,137.7121,138.212,,,,,,,,,,,,,,1.6763,1,,,,,,,,,,,,,,m,,,,,,,,,,,,,,,,12,0,138.214,139.8952,m,1,1.6763,,[],[],[],[],[],[],[],139.8954,141.8951,141.8952,141.8955,[],[],[],[],[],[],[],,141.8955,141.8956,-0.190833321,-0.219166718,0,0,0,,0,11,11,144,1,3,word,RESIDENT,cursive,resident_c.png,,,,,,
,,,,32140,001,2025-10-17_11h41.05.930,HW_LDT_1,2024.2.4,Win32,59.52380952,,,,,,,,,,,,,,,,,,,,,141.8986,142.0953,142.0953,142.5951,,,,,,,,,,,,,,1.0096,1,,,,,,,,,,,,,,z,,,,,,,,,,,,,,,,13,0,142.5971,143.6118,z,1,1.0096,,[],[],[],[],[],[],[],143.612,145.6116,145.6117,145.612,[],[],[],[],[],[],[],,145.612,145.6123,-0.190833321,-0.219166718,0,0,0,,0,12,12,54,1,3,TL,manire,cursive,manire_c.png,,,,,,
,,,,32140,001,2025-10-17_11h41.05.930,HW_LDT_1,2024.2.4,Win32,59.52380952,,,,,,,,,,,,,,,,,,,,,145.6155,145.8115,145.8117,146.3117,,,,,,,,,,,,,,2.2729,1,,,,,,,,,,,,,,m,,,,,,,,,,,,,,,,14,0,146.3134,148.5948,m,1,2.2729,,[],[],[],[],[],[],[],148.5949,150.5948,150.5949,150.5951,[],[],[],[],[],[],[],,150.5952,150.5954,-0.190833321,-0.219166718,0,0,0,,0,13,13,89,1,3,word,CAPACITY,cursive,capacity_c.png,,,,,,
,,,,32140,001,2025-10-17_11h41.05.930,HW_LDT_1,2024.2.4,Win32,59.52380952,,,,,,,,,,,,,,,,,,,,,150.5983,150.7948,150.7948,151.2946,,,,,,,,,,,,,,3.0549,1,,,,,,,,,,,,,,z,,,,,,,,,,,,,,,,15,0,151.2964,154.3612,z,1,3.0549,,[],[],[],[],[],[],[],154.3614,156.3611,156.3611,156.3615,[],[],[],[],[],[],[],,156.3616,156.3617,-0.190833321,-0.219166718,0,0,0,,0,14,14,17,1,3,RL,motide,cursive,motide_c.png,,,,,,
,,,,32140,001,2025-10-17_11h41.05.930,HW_LDT_1,2024.2.4,Win32,59.52380952,,,,,,,,,,,,,,,,,,,,,156.3634,156.5625,156.5626,157.0612,,,,,,,,,,,,,,0.763,1,,,,,,,,,,,,,,m,,,,,,,,,,,,,,,,16,0,157.063,157.8278,m,1,0.763,,[],[],[],[],[],[],[],157.8278,159.8297,159.8298,159.8301,[],[],[],[],[],[],[],,159.8301,159.8301,-0.190833321,-0.219166718,0,0,0,,0,15,15,130,1,3,word,POLICY,print,policy_p.png,,,,,,
,,,,32140,001,2025-10-17_11h41.05.930,HW_LDT_1,2024.2.4,Win32,59.52380952,,,,,,,,,,,,,,,,,,,,,159.8328,160.0286,160.0286,160.5272,,,,,,,,,,,,,,4.512,0,,,,,,,,,,,,,,m,,,,,,,,,,,,,,,,17,1,160.5291,165.0442,z,0,4.512,,[],[],[],[],[],[],[],165.0444,167.0441,167.0441,168.4772,[],[],[],[],[],[],[],z,168.4773,168.4775,-0.190833321,-0.219166718,0,0,0,,0,16,16,123,1,3,word,MODERATE,cursive,moderate_c.png,1.4239,,,,,
,,,,32140,001,2025-10-17_11h41.05.930,HW_LDT_1,2024.2.4,Win32,59.52380952,,,,,,,,,,,,,,,,,,,,,168.4812,168.6773,168.6773,169.1771,,,,,,,,,,,,,,2.8222,1,,,,,,,,,,,,,,z,,,,,,,,,,,,,,,,18,0,169.179,172.0111,z,1,2.8222,,[],[],[],[],[],[],[],172.0114,174.0103,174.0104,174.0107,[],[],[],[],[],[],[],,174.0107,174.0108,-0.190833321,-0.219166718,0,0,0,,0,17,17,39,1,3,TL,clicinal,print,clicinal_p.png,,,,,,
,,,,32140,001,2025-10-17_11h41.05.930,HW_LDT_1,2024.2.4,Win32,59.52380952,,,,,,,,,,,,,,,,,,,,,174.0142,174.2102,174.2103,174.7098,,,,,,,,,,,,,,2.0409,1,,,,,,,,,,,,,,m,,,,,,,,,,,,,,,,19,0,174.7118,176.7603,m,1,2.0409,,[],[],[],[],[],[],[],176.7606,178.7601,178.7602,178.7604,[],[],[],[],[],[],[],,178.7605,178.7609,-0.190833321,-0.219166718,0,0,0,,0,18,18,111,1,3,word,INDICATE,print,indicate_p.png,,,,,,
,,,,32140,001,2025-10-17_11h41.05.930,HW_LDT_1,2024.2.4,Win32,59.52380952,,,,,,,,,,,,,,,,,,,,,178.7642,178.9596,178.9596,179.4599,,,,,,,,,,,,,,1.146,1,,,,,,,,,,,,,,m,,,,,,,,,,,,,,,,20,0,179.462,180.6127,m,1,1.146,,[],[],[],[],[],[],[],180.6127,182.6097,182.6098,182.61,[],[],[],[],[],[],[],,182.61,182.6102,-0.190833321,-0.219166718,0,0,0,,0,19,19,88,1,3,word,CAMERA,cursive,camera_c.png,,,,,,
,,,,32140,001,2025-10-17_11h41.05.930,HW_LDT_1,2024.2.4,Win32,59.52380952,,,,,,,,,,,,,,,,,,,,,182.6133,182.8093,182.8094,183.3089,,,,,,,,,,,,,,1.6585,1,,,,,,,,,,,,,,z,,,,,,,,,,,,,,,,21,0,183.3092,184.9763,z,1,1.6585,,[],[],[],[],[],[],[],184.9765,186.9762,186.9763,186.9765,[],[],[],[],[],[],[],,186.9765,186.9767,-0.190833321,-0.219166718,0,0,0,,0,20,20,77,1,3,TL,vadility,cursive,vadility_c.png,,,,,,
,,,,32140,001,2025-10-17_11h41.05.930,HW_LDT_1,2024.2.4,Win32,59.52380952,,,,,,,,,,,,,,,,,,,,,186.979,187.1761,187.1763,187.6763,,,,,,,,,,,,,,2.2074,0,,,,,,,,,,,,,,m,,,,,,,,,,,,,,,,22,0,187.6781,189.893,z,0,2.2074,,[],[],[],[],[],[],[],189.8931,191.8928,191.8928,191.8931,[],[],[],[],[],[],[],,191.8931,191.8934,-0.190833321,-0.219166718,0,0,0,,0,21,21,114,1,3,word,LOCATE,cursive,locate_c.png,,,,,,
,,,,32140,001,2025-10-17_11h41.05.930,HW_LDT_1,2024.2.4,Win32,59.52380952,,,,,,,,,,,,,,,,,,,,,191.8962,192.0926,192.0927,192.5926,,,,,,,,,,,,,,1.073,1,,,,,,,,,,,,,,z,,,,,,,,,,,,,,,,23,0,192.5945,193.6762,z,1,1.073,,[],[],[],[],[],[],[],193.6763,195.6758,195.6759,195.6762,[],[],[],[],[],[],[],,195.6763,195.6764,-0.190833321,-0.219166718,0,0,0,,0,22,22,67,1,3,TL,retome,print,retome_p.png,,,,,,
,,,,32140,001,2025-10-17_11h41.05.930,HW_LDT_1,2024.2.4,Win32,59.52380952,,,,,,,,,,,,,,,,,,,,,195.6784,195.8762,195.8764,196.3759,,,,,,,,,,,,,,0.9226,1,,,,,,,,,,,,,,z,,,,,,,,,,,,,,,,24,0,196.3777,197.3088,z,1,0.9226,,[],[],[],[],[],[],[],197.309,199.3091,199.3093,199.3095,[],[],[],[],[],[],[],,199.3095,199.3097,-0.190833321,-0.219166718,0,0,0,,0,23,23,62,1,3,TL,prodive,print,prodive_p.png,,,,,,
,,,,32140,001,2025-10-17_11h41.05.930,HW_LDT_1,2024.2.4,Win32,59.52380952,,,,,,,,,,,,,,,,,,,,,199.3127,199.5089,199.509,200.0089,,,,,,,,,,,,,,1.0065,1,,,,,,,,,,,,,,z,,,,,,,,,,,,,,,,25,1,200.0109,201.0257,z,1,1.0065,,[],[],[],[],[],[],[],201.0258,203.0256,203.0257,205.8256,[],[],[],[],[],[],[],z,205.8257,205.8259,-0.190833321,-0.219166718,0,0,0,,0,24,24,43,1,3,TL,dedace,cursive,dedace_c.png,2.7907,,,,,
,,,,32140,001,2025-10-17_11h41.05.930,HW_LDT_1,2024.2.4,Win32,59.52380952,,,,,,,,,,,,,,,,,,,,,205.8295,206.025,206.0251,206.5255,,,,,,,,,,,,,,1.7243,0,,,,,,,,,,,,,,m,,,,,,,,,,,,,,,,26,0,206.5272,208.2589,z,0,1.7243,,[],[],[],[],[],[],[],208.259,210.258,210.2582,210.2585,[],[],[],[],[],[],[],,210.2585,210.2587,-0.190833321,-0.219166718,0,0,0,,0,25,25,120,1,3,word,MILITARY,cursive,military_c.png,,,,,,
,,,,32140,001,2025-10-17_11h41.05.930,HW_LDT_1,2024.2.4,Win32,59.52380952,,,,,,,,,,,,,,,,,,,,,210.2606,210.4585,210.4586,210.9586,,,,,,,,,,,,,,1.489,1,,,,,,,,,,,,,,z,,,,,,,,,,,,,,,,27,0,210.9604,212.4587,z,1,1.489,,[],[],[],[],[],[],[],212.4587,214.4582,214.4583,214.4586,[],[],[],[],[],[],[],,214.4587,214.459,-0.190833321,-0.219166718,0,0,0,,0,26,26,50,1,3,TL,lirebal,print,lirebal_p.png,,,,,,
,,,,32140,001,2025-10-17_11h41.05.930,HW_LDT_1,2024.2.4,Win32,59.52380952,,,,,,,,,,,,,,,,,,,,,214.461,214.6582,214.6583,215.1584,,,,,,,,,,,,,,2.1254,1,,,,,,,,,,,,,,z,,,,,,,,,,,,,,,,28,0,215.1601,217.2916,z,1,2.1254,,[],[],[],[],[],[],[],217.2918,219.2912,219.2912,219.2914,[],[],[],[],[],[],[],,219.2914,219.2916,-0.190833321,-0.219166718,0,0,0,,0,27,27,15,1,3,RL,mifikary,cursive,mifikary_c.png,,,,,,
,,,,32140,001,2025-10-17_11h41.05.930,HW_LDT_1,2024.2.4,Win32,59.52380952,,,,,,,,,,,,,,,,,,,,,219.2944,219.4911,219.4912,219.9912,,,,,,,,,,,,,,1.8509,1,,,,,,,,,,,,,,m,,,,,,,,,,,,,,,,29,0,219.9929,221.8447,m,1,1.8509,,[],[],[],[],[],[],[],221.8447,223.8413,223.8413,223.8417,[],[],[],[],[],[],[],,223.8417,223.8418,-0.190833321,-0.219166718,0,0,0,,0,28,28,141,1,3,word,RELIGION,print,religion_p.png,,,,,,
,,,,32140,001,2025-10-17_11h41.05.930,HW_LDT_1,2024.2.4,Win32,59.52380952,,,,,,,,,,,,,,,,,,,,,223.844,224.0412,224.0413,224.5413,,,,,,,,,,,,,,0.9052,1,,,,,,,,,,,,,,z,,,,,,,,,,,,,,,,30,0,224.5432,225.4578,z,1,0.9052,,[],[],[],[],[],[],[],225.4579,227.4578,227.4578,227.458,[],[],[],[],[],[],[],,227.4582,227.4582,-0.190833321,-0.219166718,0,0,0,,0,29,29,56,1,3,TL,meromy,print,meromy_p.png,,,,,,
,,,,32140,001,2025-10-17_11h41.05.930,HW_LDT_1,2024.2.4,Win32,59.52380952,,,,,,,,,,,,,,,,,,,,,227.4615,227.6578,227.6579,228.1579,,,,,,,,,,,,,,2.4978,1,,,,,,,,,,,,,,z,,,,,,,,,,,,,,,,31,0,228.1598,230.6584,z,1,2.4978,,[],[],[],[],[],[],[],230.6586,232.6575,232.6576,232.6579,[],[],[],[],[],[],[],,232.6579,232.658,-0.190833321,-0.219166718,0,0,0,,0,30,30,11,1,3,RL,ebiwent,cursive,ebiwent_c.png,,,,,,
,,,,32140,001,2025-10-17_11h41.05.930,HW_LDT_1,2024.2.4,Win32,59.52380952,,,,,,,,,,,,,,,,,,,,,232.6617,232.8573,232.8573,233.3574,,,,,,,,,,,,,,4.8302,1,,,,,,,,,,,,,,z,,,,,,,,,,,,,,,,32,0,233.3583,238.1911,z,1,4.8302,,[],[],[],[],[],[],[],238.1912,240.1899,240.1899,240.1899,[],[],[],[],[],[],[],,240.1899,240.1901,-0.190833321,-0.219166718,0,0,0,,0,31,31,70,1,3,TL,remuse,cursive,remuse_c.png,,,,,,
,,,,32140,001,2025-10-17_11h41.05.930,HW_LDT_1,2024.2.4,Win32,59.52380952,,,,,,,,,,,,,,,,,,,,,240.1911,240.3902,240.3902,240.8903,,,,,,,,,,,,,,0.8779,1,,,,,,,,,,,,,,m,,,,,,,,,,,,,,,,33,0,240.8909,241.7739,m,1,0.8779,,[],[],[],[],[],[],[],241.774,243.7734,243.7735,243.7736,[],[],[],[],[],[],[],,243.7737,243.7738,-0.190833321,-0.219166718,0,0,0,,0,32,32,115,1,3,word,LOGICAL,cursive,logical_c.png,,,,,,
,,,,32140,001,2025-10-17_11h41.05.930,HW_LDT_1,2024.2.4,Win32,59.52380952,,,,,,,,,,,,,,,,,,,,,243.7763,243.9734,243.9735,244.4735,,,,,,,,,,,,,,1.1626,1,,,,,,,,,,,,,,m,,,,,,,,,,,,,,,,34,1,244.4754,245.6423,m,1,1.1626,,[],[],[],[],[],[],[],245.6424,247.6402,247.6402,249.6236,[],[],[],[],[],[],[],z,249.6236,249.6239,-0.190833321,-0.219166718,0,0,0,,0,33,33,100,1,3,word,DECADE,cursive,decade_c.png,1.9767,,,,,
,,,,32140,001,2025-10-17_11h41.05.930,HW_LDT_1,2024.2.4,Win32,59.52380952,,,,,,,,,,,,,,,,,,,,,249.6272,249.8232,249.8233,250.3235,,,,,,,,,,,,,,0.7407,1,,,,,,,,,,,,,,m,,,,,,,,,,,,,,,,35,0,250.3242,251.0733,m,1,0.7407,,[],[],[],[],[],[],[],251.0734,253.0732,253.0733,253.0736,[],[],[],[],[],[],[],,253.0736,253.0741,-0.190833321,-0.219166718,0,0,0,,0,34,34,129,1,3,word,PARENT,print,parent_p.png,,,,,,
,,,,32140,001,2025-10-17_11h41.05.930,HW_LDT_1,2024.2.4,Win32,59.52380952,,,,,,,,,,,,,,,,,,,,,253.0772,253.2744,253.2744,253.773,,,,,,,,,,,,,,1.107,1,,,,,,,,,,,,,,m,,,,,,,,,,,,,,,,36,0,253.775,254.8899,m,1,1.107,,[],[],[],[],[],[],[],254.89,256.8897,256.8898,256.8901,[],[],[],[],[],[],[],,256.8901,256.8902,-0.190833321,-0.219166718,0,0,0,,0,35,35,81,1,3,word,ADVISORY,print,advisory_p.png,,,,,,
,,,,32140,001,2025-10-17_11h41.05.930,HW_LDT_1,2024.2.4,Win32,59.52380952,,,,,,,,,,,,,,,,,,,,,256.8933,257.0899,257.09,257.5895,,,,,,,,,,,,,,1.4906,1,,,,,,,,,,,,,,m,,,,,,,,,,,,,,,,37,0,257.5911,259.0898,m,1,1.4906,,[],[],[],[],[],[],[],259.0899,261.0894,261.0895,261.0897,[],[],[],[],[],[],[],,261.0898,261.0898,-0.190833321,-0.219166718,0,0,0,,0,36,36,157,1,3,word,VALIDITY,cursive,validity_c.png,,,,,,
,,,,32140,001,2025-10-17_11h41.05.930,HW_LDT_1,2024.2.4,Win32,59.52380952,,,,,,,,,,,,,,,,,,,,,261.092,261.2889,261.289,261.7892,,,,,,,,,,,,,,0.9756,1,,,,,,,,,,,,,,m,,,,,,,,,,,,,,,,38,0,261.7899,262.7724,m,1,0.9756,,[],[],[],[],[],[],[],262.7724,264.7723,264.7724,264.7726,[],[],[],[],[],[],[],,264.7726,264.7728,-0.190833321,-0.219166718,0,0,0,,0,37,37,133,1,3,word,PROVIDE,print,provide_p.png,,,,,,
,,,,32140,001,2025-10-17_11h41.05.930,HW_LDT_1,2024.2.4,Win32,59.52380952,,,,,,,,,,,,,,,,,,,,,264.7762,264.9723,264.9723,265.4725,,,,,,,,,,,,,,1.7238,1,,,,,,,,,,,,,,z,,,,,,,,,,,,,,,,39,0,265.4741,267.2053,z,1,1.7238,,[],[],[],[],[],[],[],267.2054,269.2055,269.2058,269.2061,[],[],[],[],[],[],[],,269.2061,269.2062,-0.190833321,-0.219166718,0,0,0,,0,38,38,47,1,3,TL,elarobate,print,elarobate_p.png,,,,,,
,,,,32140,001,2025-10-17_11h41.05.930,HW_LDT_1,2024.2.4,Win32,59.52380952,,,,,,,,,,,,,,,,,,,,,269.2082,269.4054,269.4054,269.9052,,,,,,,,,,,,,,2.3927,1,,,,,,,,,,,,,,m,,,,,,,,,,,,,,,,40,0,269.9075,272.3057,m,1,2.3927,,[],[],[],[],[],[],[],272.3058,274.3055,274.3055,274.3057,[],[],[],[],[],[],[],,274.3058,274.306,-0.190833321,-0.219166718,0,0,0,,0,39,39,148,1,3,word,SALINE,cursive,saline_c.png,,,,,,
,,,,32140,001,2025-10-17_11h41.05.930,HW_LDT_1,2024.2.4,Win32,59.52380952,,,,,,,,,,,,,,,,,,,,,274.308,274.5055,274.5055,275.0077,,,,,,,,,,,,,,1.3716,1,,,,,,,,,,,,,,m,,,,,,,,,,,,,,,,41,0,275.0083,276.3886,m,1,1.3716,,[],[],[],[],[],[],[],276.3888,278.3881,278.3883,278.3884,[],[],[],[],[],[],[],,278.3885,278.3885,-0.190833321,-0.219166718,0,0,0,,0,40,40,138,1,3,word,REFUSAL,print,refusal_p.png,,,,,,
,,,,32140,001,2025-10-17_11h41.05.930,HW_LDT_1,2024.2.4,Win32,59.52380952,,,,,,,,,,,,,,,,,,,,,278.3903,278.5885,278.5886,279.0886,,,,,,,,,,,,,,1.5051,1,,,,,,,,,,,,,,m,,,,,,,,,,,,,,,,42,0,279.0905,280.605,m,1,1.5051,,[],[],[],[],[],[],[],280.6052,282.6048,282.6049,282.605,[],[],[],[],[],[],[],,282.6052,282.6054,-0.190833321,-0.219166718,0,0,0,,0,41,41,151,1,3,word,SPECIFIC,print,specific_p.png,,,,,,
,,,,32140,001,2025-10-17_11h41.05.930,HW_LDT_1,2024.2.4,Win32,59.52380952,,,,,,,,,,,,,,,,,,,,,282.6071,282.8051,282.8052,283.3052,,,,,,,,,,,,,,1.0399,1,,,,,,,,,,,,,,m,,,,,,,,,,,,,,,,43,0,283.3071,284.3552,m,1,1.0399,,[],[],[],[],[],[],[],284.3552,286.3549,286.355,286.3553,[],[],[],[],[],[],[],,286.3553,286.3554,-0.190833321,-0.219166718,0,0,0,,0,42,42,137,1,3,word,RAPIDLY,print,rapidly_p.png,,,,,,
,,,,32140,001,2025-10-17_11h41.05.930,HW_LDT_1,2024.2.4,Win32,59.52380952,,,,,,,,,,,,,,,,,,,,,286.3589,286.5549,286.555,287.0549,,,,,,,,,,,,,,1.8615,0,,,,,,,,,,,,,,m,,,,,,,,,,,,,,,,44,0,287.0565,288.9216,z,0,1.8615,,[],[],[],[],[],[],[],288.9216,290.9213,290.9215,290.9217,[],[],[],[],[],[],[],,290.9218,290.9219,-0.190833321,-0.219166718,0,0,0,,0,43,43,121,1,3,word,MISTAKE,cursive,mistake_c.png,,,,,,
,,,,32140,001,2025-10-17_11h41.05.930,HW_LDT_1,2024.2.4,Win32,59.52380952,,,,,,,,,,,,,,,,,,,,,290.9253,291.1217,291.1217,291.6214,,,,,,,,,,,,,,2.2956,1,,,,,,,,,,,,,,m,,,,,,,,,,,,,,,,45,0,291.6231,293.9221,m,1,2.2956,,[],[],[],[],[],[],[],293.9229,295.9202,295.9203,295.9204,[],[],[],[],[],[],[],,295.9204,295.9204,-0.190833321,-0.219166718,0,0,0,,0,44,44,158,1,3,word,VELOCITY,cursive,velocity_c.png,,,,,,
,,,,32140,001,2025-10-17_11h41.05.930,HW_LDT_1,2024.2.4,Win32,59.52380952,,,,,,,,,,,,,,,,,,,,,295.9217,296.1201,296.1201,296.6208,,,,,,,,,,,,,,2.2925,1,,,,,,,,,,,,,,z,,,,,,,,,,,,,,,,46,0,296.6212,298.9206,z,1,2.2925,,[],[],[],[],[],[],[],298.9207,300.9205,300.9206,300.9209,[],[],[],[],[],[],[],,300.9209,300.9209,-0.190833321,-0.219166718,0,0,0,,0,45,45,33,1,3,TL,adsivory,print,adsivory_p.png,,,,,,
,,,,32140,001,2025-10-17_11h41.05.930,HW_LDT_1,2024.2.4,Win32,59.52380952,,,,,,,,,,,,,,,,,,,,,300.9237,301.1209,301.121,301.6208,,,,,,,,,,,,,,3.3876,1,,,,,,,,,,,,,,z,,,,,,,,,,,,,,,,47,0,301.6228,305.0209,z,1,3.3876,,[],[],[],[],[],[],[],305.021,307.0207,307.0207,307.021,[],[],[],[],[],[],[],,307.0211,307.0214,-0.190833321,-0.219166718,0,0,0,,0,46,46,65,1,3,TL,resufal,print,resufal_p.png,,,,,,
,,,,32140,001,2025-10-17_11h41.05.930,HW_LDT_1,2024.2.4,Win32,59.52380952,,,,,,,,,,,,,,,,,,,,,307.0245,307.2203,307.2203,307.7206,,,,,,,,,,,,,,1.1421,1,,,,,,,,,,,,,,z,,,,,,,,,,,,,,,,48,0,307.7225,308.8705,z,1,1.1421,,[],[],[],[],[],[],[],308.8706,310.8705,310.8706,310.8708,[],[],[],[],[],[],[],,310.8709,310.871,-0.190833321,-0.219166718,0,0,0,,0,47,47,16,1,3,RL,mishafe,cursive,mishafe_c.png,,,,,,
,,,,32140,001,2025-10-17_11h41.05.930,HW_LDT_1,2024.2.4,Win32,59.52380952,,,,,,,,,,,,,,,,,,,,,310.8742,311.0701,311.0701,311.5705,,,,,,,,,,,,,,2.0943,0,,,,,,,,,,,,,,m,,,,,,,,,,,,,,,,49,1,311.5725,313.6704,z,0,2.0943,,[],[],[],[],[],[],[],313.6705,315.6703,315.6704,317.8727,[],[],[],[],[],[],[],z,317.8728,317.8728,-0.190833321,-0.219166718,0,0,0,,0,48,48,99,1,3,word,DEBATE,cursive,debate_c.png,2.1978,,,,,
,,,,32140,001,2025-10-17_11h41.05.930,HW_LDT_1,2024.2.4,Win32,59.52380952,,,,,,,,,,,,,,,,,,,,,317.8752,318.0701,318.0701,318.5701,,,,,,,,,,,,,,0.8387,1,,,,,,,,,,,,,,m,,,,,,,,,,,,,,,,50,0,318.5721,319.4202,m,1,0.8387,,[],[],[],[],[],[],[],319.4202,321.4199,321.4199,321.4201,[],[],[],[],[],[],[],,321.4202,321.4203,-0.190833321,-0.219166718,0,0,0,,0,49,49,142,1,3,word,REMOTE,print,remote_p.png,,,,,,
,,,,32140,001,2025-10-17_11h41.05.930,HW_LDT_1,2024.2.4,Win32,59.52380952,,,,,,,,,,,,,,,,,,,,,321.4233,321.62,321.62,322.1199,,,,,,,,,,,,,,1.2225,1,,,,,,,,,,,,,,z,,,,,,,,,,,,,,,,51,0,322.122,323.3534,z,1,1.2225,,[],[],[],[],[],[],[],323.3535,325.3531,325.3533,325.3535,[],[],[],[],[],[],[],,325.3536,325.3538,-0.190833321,-0.219166718,0,0,0,,0,50,50,40,1,3,TL,condiser,print,condiser_p.png,,,,,,
,,,,32140,001,2025-10-17_11h41.05.930,HW_LDT_1,2024.2.4,Win32,59.52380952,,,,,,,,,,,,,,,,,,,,,325.3567,325.5526,325.5527,326.0528,,,,,,,,,,,,,,1.8662,0,,,,,,,,,,,,,,m,,,,,,,,,,,,,,,,52,0,326.0544,327.9212,z,0,1.8662,,[],[],[],[],[],[],[],327.9213,329.9194,329.9195,329.9196,[],[],[],[],[],[],[],,329.9197,329.9199,-0.190833321,-0.219166718,0,0,0,,0,51,51,110,1,3,word,HERITAGE,cursive,heritage_c.png,,,,,,
,,,,32140,001,2025-10-17_11h41.05.930,HW_LDT_1,2024.2.4,Win32,59.52380952,,,,,,,,,,,,,,,,,,,,,329.923,330.119,330.119,330.6195,,,,,,,,,,,,,,1.2902,1,,,,,,,,,,,,,,z,,,,,,,,,,,,,,,,53,0,330.621,331.9195,z,1,1.2902,,[],[],[],[],[],[],[],331.9196,333.919,333.9191,333.9193,[],[],[],[],[],[],[],,333.9193,333.9194,-0.190833321,-0.219166718,0,0,0,,0,52,52,25,1,3,RL,retupar,print,retupar_p.png,,,,,,
,,,,32140,001,2025-10-17_11h41.05.930,HW_LDT_1,2024.2.4,Win32,59.52380952,,,,,,,,,,,,,,,,,,,,,333.9212,334.1189,334.1189,334.6193,,,,,,,,,,,,,,1.6362,1,,,,,,,,,,,,,,m,,,,,,,,,,,,,,,,54,0,334.6211,336.2693,m,1,1.6362,,[],[],[],[],[],[],[],336.2696,338.269,338.2691,338.2693,[],[],[],[],[],[],[],,338.2694,338.2694,-0.190833321,-0.219166718,0,0,0,,0,53,53,132,1,3,word,PROPOSAL,print,proposal_p.png,,,,,,
,,,,32140,001,2025-10-17_11h41.05.930,HW_LDT_1,2024.2.4,Win32,59.52380952,,,,,,,,,,,,,,,,,,,,,338.2717,338.4692,338.4692,338.9692,,,,,,,,,,,,,,1.7438,1,,,,,,,,,,,,,,m,,,,,,,,,,,,,,,,55,0,338.9711,340.7189,m,1,1.7438,,[],[],[],[],[],[],[],340.719,342.7203,342.7204,342.7206,[],[],[],[],[],[],[],,342.7207,342.7214,-0.190833321,-0.219166718,0,0,0,,0,54,54,135,1,3,word,QUALITY,print,quality_p.png,,,,,,
,,,,32140,001,2025-10-17_11h41.05.930,HW_LDT_1,2024.2.4,Win32,59.52380952,,,,,,,,,,,,,,,,,,,,,342.724,342.9188,342.9188,343.4184,,,,,,,,,,,,,,1.4585,1,,,,,,,,,,,,,,m,,,,,,,,,,,,,,,,56,0,343.4206,344.8852,m,1,1.4585,,[],[],[],[],[],[],[],344.8853,346.8853,346.8853,346.8855,[],[],[],[],[],[],[],,346.8856,346.8857,-0.190833321,-0.219166718,0,0,0,,0,55,55,112,1,3,word,LIBERAL,print,liberal_p.png,,,,,,
,,,,32140,001,2025-10-17_11h41.05.930,HW_LDT_1,2024.2.4,Win32,59.52380952,,,,,,,,,,,,,,,,,,,,,346.8889,347.0855,347.0855,347.5853,,,,,,,,,,,,,,3.1732,1,,,,,,,,,,,,,,z,,,,,,,,,,,,,,,,57,1,347.5862,350.7684,z,1,3.1732,,[],[],[],[],[],[],[],350.7685,352.768,352.7681,355.3018,[],[],[],[],[],[],[],m,355.3019,355.3022,-0.190833321,-0.219166718,0,0,0,,0,56,56,73,1,3,TL,speficic,print,speficic_p.png,2.5258,,,,,
,,,,32140,001,2025-10-17_11h41.05.930,HW_LDT_1,2024.2.4,Win32,59.52380952,,,,,,,,,,,,,,,,,,,,,355.3055,355.5015,355.5017,356.0017,,,,,,,,,,,,,,1.3054,1,,,,,,,,,,,,,,z,,,,,,,,,,,,,,,,58,0,356.0038,357.3184,z,1,1.3054,,[],[],[],[],[],[],[],357.3185,359.3182,359.3183,359.3185,[],[],[],[],[],[],[],,359.3186,359.3187,-0.190833321,-0.219166718,0,0,0,,0,57,57,45,1,3,TL,dentisy,print,dentisy_p.png,,,,,,
,,,,32140,001,2025-10-17_11h41.05.930,HW_LDT_1,2024.2.4,Win32,59.52380952,,,,,,,,,,,,,,,,,,,,,359.3223,359.518,359.518,360.018,,,,,,,,,,,,,,1.8447,1,,,,,,,,,,,,,,m,,,,,,,,,,,,,,,,59,0,360.0199,361.868,m,1,1.8447,,[],[],[],[],[],[],[],361.8682,363.868,363.868,363.8683,[],[],[],[],[],[],[],,363.8683,363.8684,-0.190833321,-0.219166718,0,0,0,,0,58,58,153,1,3,word,STOLEN,cursive,stolen_c.png,,,,,,
,,,,32140,001,2025-10-17_11h41.05.930,HW_LDT_1,2024.2.4,Win32,59.52380952,,,,,,,,,,,,,,,,,,,,,363.8717,364.0678,364.0678,364.5677,,,,,,,,,,,,,,1.718,1,,,,,,,,,,,,,,z,,,,,,,,,,,,,,,,60,0,364.5696,366.2893,z,1,1.718,,[],[],[],[],[],[],[],366.2893,368.2843,368.2843,368.2846,[],[],[],[],[],[],[],,368.2847,368.2847,-0.190833321,-0.219166718,0,0,0,,0,59,59,41,1,3,TL,crinimal,print,crinimal_p.png,,,,,,
,,,,32140,001,2025-10-17_11h41.05.930,HW_LDT_1,2024.2.4,Win32,59.52380952,,,,,,,,,,,,,,,,,,,,,368.2879,368.484,368.4841,368.9845,,,,,,,,,,,,,,1.5479,1,,,,,,,,,,,,,,z,,,,,,,,,,,,,,,,61,1,368.9865,370.5362,z,1,1.5479,,[],[],[],[],[],[],[],370.5363,372.5342,372.5343,373.8683,[],[],[],[],[],[],[],z,373.8684,373.8695,-0.190833321,-0.219166718,0,0,0,,0,60,60,1,1,3,RL,bewoted,cursive,bewoted_c.png,1.3314,,,,,
,,,,32140,001,2025-10-17_11h41.05.930,HW_LDT_1,2024.2.4,Win32,59.52380952,,,,,,,,,,,,,,,,,,,,,373.8715,374.0669,374.0669,374.5673,,,,,,,,,,,,,,0.9254,0,,,,,,,,,,,,,,m,,,,,,,,,,,,,,,,62,0,374.569,375.5004,z,0,0.9254,,[],[],[],[],[],[],[],375.5004,377.5033,377.5034,377.5036,[],[],[],[],[],[],[],,377.5036,377.5036,-0.190833321,-0.219166718,0,0,0,,0,61,61,90,1,3,word,CAPITAL,cursive,capital_c.png,,,,,,
,,,,32140,001,2025-10-17_11h41.05.930,HW_LDT_1,2024.2.4,Win32,59.52380952,,,,,,,,,,,,,,,,,,,,,377.5065,377.7005,377.7005,378.2007,,,,,,,,,,,,,,1.1559,1,,,,,,,,,,,,,,m,,,,,,,,,,,,,,,,63,0,378.2026,379.3671,m,1,1.1559,,[],[],[],[],[],[],[],379.3672,381.3671,381.3672,381.3674,[],[],[],[],[],[],[],,381.3675,381.3677,-0.190833321,-0.219166718,0,0,0,,0,62,62,85,1,3,word,BENEFIT,print,benefit_p.png,,,,,,
,,,,32140,001,2025-10-17_11h41.05.930,HW_LDT_1,2024.2.4,Win32,59.52380952,,,,,,,,,,,,,,,,,,,,,381.3702,381.5673,381.5673,382.0668,,,,,,,,,,,,,,1.0911,1,,,,,,,,,,,,,,m,,,,,,,,,,,,,,,,64,0,382.0686,383.1671,m,1,1.0911,,[],[],[],[],[],[],[],383.1673,385.1668,385.1668,385.1672,[],[],[],[],[],[],[],,385.1673,385.1674,-0.190833321,-0.219166718,0,0,0,,0,63,63,156,1,3,word,TRIBUTE,print,tribute_p.png,,,,,,
,,,,32140,001,2025-10-17_11h41.05.930,HW_LDT_1,2024.2.4,Win32,59.52380952,,,,,,,,,,,,,,,,,,,,,385.1696,385.3669,385.3669,385.8667,,,,,,,,,,,,,,0.7737,1,,,,,,,,,,,,,,m,,,,,,,,,,,,,,,,65,0,385.8687,386.6501,m,1,0.7737,,[],[],[],[],[],[],[],386.6501,388.6498,388.6498,388.6501,[],[],[],[],[],[],[],,388.6502,388.6503,-0.190833321,-0.219166718,0,0,0,,0,64,64,119,1,3,word,MEMORY,print,memory_p.png,,,,,,
,,,,32140,001,2025-10-17_11h41.05.930,HW_LDT_1,2024.2.4,Win32,59.52380952,,,,,,,,,,,,,,,,,,,,,388.6536,388.85,388.85,389.35,,,,,,,,,,,,,,1.5914,1,,,,,,,,,,,,,,m,,,,,,,,,,,,,,,,66,0,389.3519,390.9501,m,1,1.5914,,[],[],[],[],[],[],[],390.9502,392.9497,392.9498,392.95,[],[],[],[],[],[],[],,392.9502,392.9503,-0.190833321,-0.219166718,0,0,0,,0,65,65,124,1,3,word,NUMERICAL,print,numerical_p.png,,,,,,
,,,,32140,001,2025-10-17_11h41.05.930,HW_LDT_1,2024.2.4,Win32,59.52380952,,,,,,,,,,,,,,,,,,,,,392.9523,393.1527,393.1528,393.6499,,,,,,,,,,,,,,1.2501,1,,,,,,,,,,,,,,z,,,,,,,,,,,,,,,,67,0,393.6513,394.903,z,1,1.2501,,[],[],[],[],[],[],[],394.903,396.8993,396.8994,396.8996,[],[],[],[],[],[],[],,396.8997,396.8998,-0.190833321,-0.219166718,0,0,0,,0,66,66,22,1,3,RL,procogal,print,procogal_p.png,,,,,,
,,,,32140,001,2025-10-17_11h41.05.930,HW_LDT_1,2024.2.4,Win32,59.52380952,,,,,,,,,,,,,,,,,,,,,396.9032,397.0995,397.0996,397.5993,,,,,,,,,,,,,,1.4399,1,,,,,,,,,,,,,,m,,,,,,,,,,,,,,,,68,0,397.6011,399.0498,m,1,1.4399,,[],[],[],[],[],[],[],399.0499,401.0493,401.0493,401.0496,[],[],[],[],[],[],[],,401.0496,401.0498,-0.190833321,-0.219166718,0,0,0,,0,67,67,87,1,3,word,CAFETERIA,print,cafeteria_p.png,,,,,,
,,,,32140,001,2025-10-17_11h41.05.930,HW_LDT_1,2024.2.4,Win32,59.52380952,,,,,,,,,,,,,,,,,,,,,401.053,401.2492,401.2493,401.7491,,,,,,,,,,,,,,1.9257,1,,,,,,,,,,,,,,m,,,,,,,,,,,,,,,,69,0,401.7512,403.6828,m,1,1.9257,,[],[],[],[],[],[],[],403.6828,405.6823,405.6823,405.6825,[],[],[],[],[],[],[],,405.6826,405.6827,-0.190833321,-0.219166718,0,0,0,,0,68,68,96,1,3,word,CONSIDER,print,consider_p.png,,,,,,
,,,,32140,001,2025-10-17_11h41.05.930,HW_LDT_1,2024.2.4,Win32,59.52380952,,,,,,,,,,,,,,,,,,,,,405.686,405.8827,405.8828,406.382,,,,,,,,,,,,,,0.9908,1,,,,,,,,,,,,,,m,,,,,,,,,,,,,,,,70,0,406.384,407.3826,m,1,0.9908,,[],[],[],[],[],[],[],407.3827,409.3822,409.3823,409.3824,[],[],[],[],[],[],[],,409.3828,409.3829,-0.190833321,-0.219166718,0,0,0,,0,69,69,150,1,3,word,SENTIMENT,print,sentiment_p.png,,,,,,
,,,,32140,001,2025-10-17_11h41.05.930,HW_LDT_1,2024.2.4,Win32,59.52380952,,,,,,,,,,,,,,,,,,,,,409.386,409.5819,409.582,410.0822,,,,,,,,,,,,,,4.1968,0,,,,,,,,,,,,,,m,,,,,,,,,,,,,,,,71,0,410.0842,414.2823,z,0,4.1968,,[],[],[],[],[],[],[],414.2824,416.2819,416.282,416.2823,[],[],[],[],[],[],[],,416.2824,416.2826,-0.190833321,-0.219166718,0,0,0,,0,70,70,109,1,3,word,GRATEFUL,cursive,grateful_c.png,,,,,,
,,,,32140,001,2025-10-17_11h41.05.930,HW_LDT_1,2024.2.4,Win32,59.52380952,,,,,,,,,,,,,,,,,,,,,416.2847,416.4819,416.482,416.9816,,,,,,,,,,,,,,1.3396,1,,,,,,,,,,,,,,z,,,,,,,,,,,,,,,,72,0,416.9835,418.3321,z,1,1.3396,,[],[],[],[],[],[],[],418.3321,420.3319,420.332,420.3321,[],[],[],[],[],[],[],,420.3323,420.3324,-0.190833321,-0.219166718,0,0,0,,0,71,71,51,1,3,TL,liretal,print,liretal_p.png,,,,,,
,,,,32140,001,2025-10-17_11h41.05.930,HW_LDT_1,2024.2.4,Win32,59.52380952,,,,,,,,,,,,,,,,,,,,,420.3357,420.5318,420.5319,421.0316,,,,,,,,,,,,,,1.5224,1,,,,,,,,,,,,,,z,,,,,,,,,,,,,,,,73,0,421.0336,422.5657,z,1,1.5224,,[],[],[],[],[],[],[],422.5657,424.5645,424.5645,424.5648,[],[],[],[],[],[],[],,424.5649,424.5651,-0.190833321,-0.219166718,0,0,0,,0,72,72,55,1,3,TL,mecidine,print,mecidine_p.png,,,,,,
,,,,32140,001,2025-10-17_11h41.05.930,HW_LDT_1,2024.2.4,Win32,59.52380952,,,,,,,,,,,,,,,,,,,,,424.5667,424.7647,424.7647,425.2645,,,,,,,,,,,,,,3.0241,1,,,,,,,,,,,,,,m,,,,,,,,,,,,,,,,74,0,425.2665,428.2982,m,1,3.0241,,[],[],[],[],[],[],[],428.2984,430.2979,430.298,430.2981,[],[],[],[],[],[],[],,430.2982,430.2984,-0.190833321,-0.219166718,0,0,0,,0,73,73,154,1,3,word,STORAGE,cursive,storage_c.png,,,,,,
,,,,32140,001,2025-10-17_11h41.05.930,HW_LDT_1,2024.2.4,Win32,59.52380952,,,,,,,,,,,,,,,,,,,,,430.3007,430.5001,430.5001,430.9981,,,,,,,,,,,,,,2.8393,1,,,,,,,,,,,,,,z,,,,,,,,,,,,,,,,75,0,430.9998,433.8478,z,1,2.8393,,[],[],[],[],[],[],[],433.8479,435.8478,435.8478,435.8481,[],[],[],[],[],[],[],,435.8482,435.8483,-0.190833321,-0.219166718,0,0,0,,0,74,74,2,1,3,RL,betemit,print,betemit_p.png,,,,,,
,,,,32140,001,2025-10-17_11h41.05.930,HW_LDT_1,2024.2.4,Win32,59.52380952,,,,,,,,,,,,,,,,,,,,,435.8515,436.0475,436.0475,436.5478,,,,,,,,,,,,,,1.6919,1,,,,,,,,,,,,,,z,,,,,,,,,,,,,,,,76,0,436.5496,438.2475,z,1,1.6919,,[],[],[],[],[],[],[],438.2475,440.2477,440.2477,440.2479,[],[],[],[],[],[],[],,440.248,440.2482,-0.190833321,-0.219166718,0,0,0,,0,75,75,7,1,3,RL,cobeny,print,cobeny_p.png,,,,,,
,,,,32140,001,2025-10-17_11h41.05.930,HW_LDT_1,2024.2.4,Win32,59.52380952,,,,,,,,,,,,,,,,,,,,,440.2509,440.4474,440.4475,440.9476,,,,,,,,,,,,,,2.3901,1,,,,,,,,,,,,,,z,,,,,,,,,,,,,,,,77,1,440.9495,443.349,z,1,2.3901,,[],[],[],[],[],[],[],443.3496,445.3474,445.3475,446.5805,[],[],[],[],[],[],[],z,446.5806,446.5807,-0.190833321,-0.219166718,0,0,0,,0,76,76,69,1,3,TL,redisent,cursive,redisent_c.png,1.2265,,,,,
,,,,32140,001,2025-10-17_11h41.05.930,HW_LDT_1,2024.2.4,Win32,59.52380952,,,,,,,,,,,,,,,,,,,,,446.5831,446.7805,446.7806,447.2803,,,,,,,,,,,,,,1.3723,1,,,,,,,,,,,,,,m,,,,,,,,,,,,,,,,78,0,447.2811,448.664,m,1,1.3723,,[],[],[],[],[],[],[],448.664,450.6638,450.6638,450.664,[],[],[],[],[],[],[],,450.6642,450.6643,-0.190833321,-0.219166718,0,0,0,,0,77,77,143,1,3,word,REMOVAL,cursive,removal_c.png,,,,,,
,,,,32140,001,2025-10-17_11h41.05.930,HW_LDT_1,2024.2.4,Win32,59.52380952,,,,,,,,,,,,,,,,,,,,,450.6675,450.8638,450.8638,451.3635,,,,,,,,,,,,,,1.0597,1,,,,,,,,,,,,,,z,,,,,,,,,,,,,,,,79,0,451.3654,452.4306,z,1,1.0597,,[],[],[],[],[],[],[],452.4307,454.4304,454.4304,454.4306,[],[],[],[],[],[],[],,454.4306,454.4309,-0.190833321,-0.219166718,0,0,0,,0,78,78,48,1,3,TL,grafetul,cursive,grafetul_c.png,,,,,,
,,,,32140,001,2025-10-17_11h41.05.930,HW_LDT_1,2024.2.4,Win32,59.52380952,,,,,,,,,,,,,,,,,,,,,454.4339,454.6301,454.6301,455.1303,,,,,,,,,,,,,,0.761,1,,,,,,,,,,,,,,z,,,,,,,,,,,,,,,,80,0,455.1321,455.8971,z,1,0.761,,[],[],[],[],[],[],[],455.8971,457.8967,457.8968,457.8971,[],[],[],[],[],[],[],,457.8972,537.5768,-0.190833321,-0.219166718,0,0,0,space,0,79,79,8,1,3,RL,cocewage,print,cocewage_p.png,,,79.6493,,,
,,,,32140,001,2025-10-17_11h41.05.930,HW_LDT_1,2024.2.4,Win32,59.52380952,,,,,,,,,,,,,,,,,,,,,537.5804,537.7763,537.7764,538.2758,,,,,,,,,,,,,,1.1591,1,,,,,,,,,,,,,,z,,,,,,,,,,,,,,,,81,0,538.2767,539.4426,z,1,1.1591,,[],[],[],[],[],[],[],539.4428,541.4427,541.4428,541.443,[],[],[],[],[],[],[],,541.4431,541.4432,-0.190833321,-0.219166718,0,0,0,,0,80,80,23,1,3,RL,quakity,print,quakity_p.png,,,,,,
,,,,32140,001,2025-10-17_11h41.05.930,HW_LDT_1,2024.2.4,Win32,59.52380952,,,,,,,,,,,,,,,,,,,,,541.4453,541.6425,541.6425,542.1421,,,,,,,,,,,,,,1.188,1,,,,,,,,,,,,,,z,,,,,,,,,,,,,,,,82,0,542.143,543.3419,z,1,1.188,,[],[],[],[],[],[],[],543.3419,545.3417,545.3417,545.3418,[],[],[],[],[],[],[],,545.3418,545.3419,-0.190833321,-0.219166718,0,0,0,,0,81,81,29,1,3,RL,selamor,cursive,selamor_c.png,,,,,,
,,,,32140,001,2025-10-17_11h41.05.930,HW_LDT_1,2024.2.4,Win32,59.52380952,,,,,,,,,,,,,,,,,,,,,545.343,545.5416,545.5416,546.0419,,,,,,,,,,,,,,1.3227,1,,,,,,,,,,,,,,m,,,,,,,,,,,,,,,,83,0,546.0424,547.3751,m,1,1.3227,,[],[],[],[],[],[],[],547.3751,549.3756,549.3758,549.3759,[],[],[],[],[],[],[],,549.3759,549.3761,-0.190833321,-0.219166718,0,0,0,,0,82,82,134,1,3,word,QUALIFY,print,qualify_p.png,,,,,,
,,,,32140,001,2025-10-17_11h41.05.930,HW_LDT_1,2024.2.4,Win32,59.52380952,,,,,,,,,,,,,,,,,,,,,549.3784,549.5756,549.5756,550.0757,,,,,,,,,,,,,,2.0384,1,,,,,,,,,,,,,,m,,,,,,,,,,,,,,,,84,0,550.0775,552.1258,m,1,2.0384,,[],[],[],[],[],[],[],552.1259,554.1254,554.1255,554.1256,[],[],[],[],[],[],[],,554.1257,554.1259,-0.190833321,-0.219166718,0,0,0,,0,83,83,86,1,3,word,BESIDE,cursive,beside_c.png,,,,,,
,,,,32140,001,2025-10-17_11h41.05.930,HW_LDT_1,2024.2.4,Win32,59.52380952,,,,,,,,,,,,,,,,,,,,,554.1293,554.3255,554.3255,554.825,,,,,,,,,,,,,,2.0898,1,,,,,,,,,,,,,,z,,,,,,,,,,,,,,,,85,0,554.8265,556.9254,z,1,2.0898,,[],[],[],[],[],[],[],556.9255,558.9244,558.9244,558.9245,[],[],[],[],[],[],[],,558.9245,558.9246,-0.190833321,-0.219166718,0,0,0,,0,84,84,38,1,3,TL,carnidal,print,carnidal_p.png,,,,,,
,,,,32140,001,2025-10-17_11h41.05.930,HW_LDT_1,2024.2.4,Win32,59.52380952,,,,,,,,,,,,,,,,,,,,,558.9263,559.125,559.1251,559.6247,,,,,,,,,,,,,,0.7901,1,,,,,,,,,,,,,,m,,,,,,,,,,,,,,,,86,0,559.626,560.4257,m,1,0.7901,,[],[],[],[],[],[],[],560.4258,562.4251,562.4252,562.4253,[],[],[],[],[],[],[],,562.4254,562.4256,-0.190833321,-0.219166718,0,0,0,,0,85,85,146,1,3,word,RETIRE,print,retire_p.png,,,,,,
,,,,32140,001,2025-10-17_11h41.05.930,HW_LDT_1,2024.2.4,Win32,59.52380952,,,,,,,,,,,,,,,,,,,,,562.4286,562.625,562.625,563.1244,,,,,,,,,,,,,,0.7068,1,,,,,,,,,,,,,,z,,,,,,,,,,,,,,,,87,0,563.1258,563.8415,z,1,0.7068,,[],[],[],[],[],[],[],563.8416,565.8417,565.8418,565.8419,[],[],[],[],[],[],[],,565.842,565.8422,-0.190833321,-0.219166718,0,0,0,,0,86,86,26,1,3,RL,repifion,print,repifion_p.png,,,,,,
,,,,32140,001,2025-10-17_11h41.05.930,HW_LDT_1,2024.2.4,Win32,59.52380952,,,,,,,,,,,,,,,,,,,,,565.8454,566.0417,566.0417,566.5414,,,,,,,,,,,,,,1.2432,1,,,,,,,,,,,,,,z,,,,,,,,,,,,,,,,88,0,566.5433,567.7913,z,1,1.2432,,[],[],[],[],[],[],[],567.7914,569.7914,569.7915,569.7918,[],[],[],[],[],[],[],,569.7918,569.7919,-0.190833321,-0.219166718,0,0,0,,0,87,87,31,1,3,RL,trilude,print,trilude_p.png,,,,,,
,,,,32140,001,2025-10-17_11h41.05.930,HW_LDT_1,2024.2.4,Win32,59.52380952,,,,,,,,,,,,,,,,,,,,,569.7951,569.9912,569.9913,570.4911,,,,,,,,,,,,,,1.8724,1,,,,,,,,,,,,,,z,,,,,,,,,,,,,,,,89,1,570.4931,572.3748,z,1,1.8724,,[],[],[],[],[],[],[],572.3748,574.3745,574.3746,575.0913,[],[],[],[],[],[],[],z,575.0913,575.0915,-0.190833321,-0.219166718,0,0,0,,0,88,88,66,1,3,TL,retalive,cursive,retalive_c.png,0.7081,,,,,
,,,,32140,001,2025-10-17_11h41.05.930,HW_LDT_1,2024.2.4,Win32,59.52380952,,,,,,,,,,,,,,,,,,,,,575.0942,575.291,575.291,575.7911,,,,,,,,,,,,,,0.7799,1,,,,,,,,,,,,,,z,,,,,,,,,,,,,,,,90,0,575.7932,576.5748,z,1,0.7799,,[],[],[],[],[],[],[],576.5749,578.5744,578.5745,578.5748,[],[],[],[],[],[],[],,578.5748,578.5749,-0.190833321,-0.219166718,0,0,0,,0,89,89,60,1,3,TL,panert,print,panert_p.png,,,,,,
,,,,32140,001,2025-10-17_11h41.05.930,HW_LDT_1,2024.2.4,Win32,59.52380952,,,,,,,,,,,,,,,,,,,,,578.5783,578.7742,578.7743,579.2742,,,,,,,,,,,,,,1.1297,1,,,,,,,,,,,,,,m,,,,,,,,,,,,,,,,91,0,579.2758,580.4079,m,1,1.1297,,[],[],[],[],[],[],[],580.408,582.4075,582.4076,582.4079,[],[],[],[],[],[],[],,582.4079,582.408,-0.190833321,-0.219166718,0,0,0,,0,90,90,91,1,3,word,CARDINAL,print,cardinal_p.png,,,,,,
,,,,32140,001,2025-10-17_11h41.05.930,HW_LDT_1,2024.2.4,Win32,59.52380952,,,,,,,,,,,,,,,,,,,,,582.4112,582.6075,582.6075,583.1076,,,,,,,,,,,,,,2.4411,1,,,,,,,,,,,,,,m,,,,,,,,,,,,,,,,92,0,583.1094,585.5575,m,1,2.4411,,[],[],[],[],[],[],[],585.5576,587.5571,587.5571,587.5573,[],[],[],[],[],[],[],,587.5574,587.5576,-0.190833321,-0.219166718,0,0,0,,0,91,91,125,1,3,word,OPERATOR,print,operator_p.png,,,,,,
,,,,32140,001,2025-10-17_11h41.05.930,HW_LDT_1,2024.2.4,Win32,59.52380952,,,,,,,,,,,,,,,,,,,,,587.5608,587.7571,587.7571,588.2568,,,,,,,,,,,,,,5.4308,1,,,,,,,,,,,,,,m,,,,,,,,,,,,,,,,93,0,588.2573,593.6903,m,1,5.4308,,[],[],[],[],[],[],[],593.6903,595.6901,595.6901,595.6903,[],[],[],[],[],[],[],,595.6904,595.6905,-0.190833321,-0.219166718,0,0,0,,0,92,92,83,1,3,word,ANIMAL,cursive,animal_c.png,,,,,,
,,,,32140,001,2025-10-17_11h41.05.930,HW_LDT_1,2024.2.4,Win32,59.52380952,,,,,,,,,,,,,,,,,,,,,595.6938,595.89,595.89,596.3902,,,,,,,,,,,,,,9.9387,1,,,,,,,,,,,,,,m,,,,,,,,,,,,,,,,94,0,596.3921,606.3397,m,1,9.9387,,[],[],[],[],[],[],[],606.3398,608.3397,608.3397,608.34,[],[],[],[],[],[],[],,608.3401,608.3403,-0.190833321,-0.219166718,0,0,0,,0,93,93,103,1,3,word,DISPUTE,print,dispute_p.png,,,,,,
,,,,32140,001,2025-10-17_11h41.05.930,HW_LDT_1,2024.2.4,Win32,59.52380952,,,,,,,,,,,,,,,,,,,,,608.3437,608.5396,608.5397,609.0395,,,,,,,,,,,,,,1.608,0,,,,,,,,,,,,,,z,,,,,,,,,,,,,,,,95,0,609.0419,610.6564,m,0,1.608,,[],[],[],[],[],[],[],610.6564,612.656,612.6562,612.6564,[],[],[],[],[],[],[],,612.6564,612.6565,-0.190833321,-0.219166718,0,0,0,,0,94,94,52,1,3,TL,locigal,cursive,locigal_c.png,,,,,,
,,,,32140,001,2025-10-17_11h41.05.930,HW_LDT_1,2024.2.4,Win32,59.52380952,,,,,,,,,,,,,,,,,,,,,612.6599,612.8559,612.856,613.3558,,,,,,,,,,,,,,0.787,1,,,,,,,,,,,,,,m,,,,,,,,,,,,,,,,96,1,613.358,614.1558,m,1,0.787,,[],[],[],[],[],[],[],614.156,616.1473,616.1474,617.7555,[],[],[],[],[],[],[],m,617.7555,617.7558,-0.190833321,-0.219166718,0,0,0,,0,95,95,97,1,3,word,COVERAGE,print,coverage_p.png,1.5998,,,,,
,,,,32140,001,2025-10-17_11h41.05.930,HW_LDT_1,2024.2.4,Win32,59.52380952,,,,,,,,,,,,,,,,,,,,,617.7588,617.9555,617.9555,618.4555,,,,,,,,,,,,,,2.0102,1,,,,,,,,,,,,,,m,,,,,,,,,,,,,,,,97,0,618.4577,620.4724,m,1,2.0102,,[],[],[],[],[],[],[],620.4725,622.4721,622.4721,622.4723,[],[],[],[],[],[],[],,622.4723,622.4726,-0.190833321,-0.219166718,0,0,0,,0,96,96,116,1,3,word,MARGINAL,print,marginal_p.png,,,,,,
,,,,32140,001,2025-10-17_11h41.05.930,HW_LDT_1,2024.2.4,Win32,59.52380952,,,,,,,,,,,,,,,,,,,,,622.4757,622.6721,622.6722,623.1721,,,,,,,,,,,,,,1.5564,1,,,,,,,,,,,,,,z,,,,,,,,,,,,,,,,98,0,623.1739,624.739,z,1,1.5564,,[],[],[],[],[],[],[],624.739,626.7386,626.7386,626.7388,[],[],[],[],[],[],[],,626.7388,626.7389,-0.190833321,-0.219166718,0,0,0,,0,97,97,12,1,3,RL,formuke,cursive,formuke_c.png,,,,,,
,,,,32140,001,2025-10-17_11h41.05.930,HW_LDT_1,2024.2.4,Win32,59.52380952,,,,,,,,,,,,,,,,,,,,,626.7418,626.9389,626.939,627.4385,,,,,,,,,,,,,,1.1805,1,,,,,,,,,,,,,,z,,,,,,,,,,,,,,,,99,0,627.4405,628.6219,z,1,1.1805,,[],[],[],[],[],[],[],628.622,630.6218,630.6219,630.6221,[],[],[],[],[],[],[],,630.6222,630.6222,-0.190833321,-0.219166718,0,0,0,,0,98,98,10,1,3,RL,efibor,print,efibor_p.png,,,,,,
,,,,32140,001,2025-10-17_11h41.05.930,HW_LDT_1,2024.2.4,Win32,59.52380952,,,,,,,,,,,,,,,,,,,,,630.6253,630.822,630.822,631.3221,,,,,,,,,,,,,,1.7786,1,,,,,,,,,,,,,,z,,,,,,,,,,,,,,,,100,0,631.3236,633.1051,z,1,1.7786,,[],[],[],[],[],[],[],633.1052,635.1048,635.1048,635.105,[],[],[],[],[],[],[],,635.105,635.1051,-0.190833321,-0.219166718,0,0,0,,0,99,99,58,1,3,TL,nuremical,print,nuremical_p.png,,,,,,
,,,,32140,001,2025-10-17_11h41.05.930,HW_LDT_1,2024.2.4,Win32,59.52380952,,,,,,,,,,,,,,,,,,,,,635.1076,635.3049,635.3049,635.8048,,,,,,,,,,,,,,1.3413,1,,,,,,,,,,,,,,z,,,,,,,,,,,,,,,,101,0,635.8068,637.155,z,1,1.3413,,[],[],[],[],[],[],[],637.1552,639.1547,639.1547,639.155,[],[],[],[],[],[],[],,639.155,639.1552,-0.190833321,-0.219166718,0,0,0,,0,100,100,63,1,3,TL,racidal,cursive,racidal_c.png,,,,,,
,,,,32140,001,2025-10-17_11h41.05.930,HW_LDT_1,2024.2.4,Win32,59.52380952,,,,,,,,,,,,,,,,,,,,,639.1583,639.3546,639.3546,639.8545,,,,,,,,,,,,,,1.923,1,,,,,,,,,,,,,,m,,,,,,,,,,,,,,,,102,0,639.8564,641.7879,m,1,1.923,,[],[],[],[],[],[],[],641.788,643.7876,643.7877,643.7878,[],[],[],[],[],[],[],,643.7879,643.7881,-0.190833321,-0.219166718,0,0,0,,0,101,101,147,1,3,word,ROMANTIC,cursive,romantic_c.png,,,,,,
,,,,32140,001,2025-10-17_11h41.05.930,HW_LDT_1,2024.2.4,Win32,59.52380952,,,,,,,,,,,,,,,,,,,,,643.7916,643.9876,643.9876,644.4879,,,,,,,,,,,,,,2.9215,1,,,,,,,,,,,,,,z,,,,,,,,,,,,,,,,103,1,644.4896,647.4211,z,1,2.9215,,[],[],[],[],[],[],[],647.4212,649.4211,649.4211,653.2706,[],[],[],[],[],[],[],z,653.2706,653.2709,-0.190833321,-0.219166718,0,0,0,,0,102,102,28,1,3,RL,rovastic,cursive,rovastic_c.png,3.8394,,,,,
,,,,32140,001,2025-10-17_11h41.05.930,HW_LDT_1,2024.2.4,Win32,59.52380952,,,,,,,,,,,,,,,,,,,,,653.2729,653.4701,653.4701,653.9705,,,,,,,,,,,,,,1.3389,1,,,,,,,,,,,,,,m,,,,,,,,,,,,,,,,104,0,653.9729,655.3209,m,1,1.3389,,[],[],[],[],[],[],[],655.321,657.3207,657.3207,657.3209,[],[],[],[],[],[],[],,657.321,657.3212,-0.190833321,-0.219166718,0,0,0,,0,103,103,95,1,3,word,COMEDY,print,comedy_p.png,,,,,,
,,,,32140,001,2025-10-17_11h41.05.930,HW_LDT_1,2024.2.4,Win32,59.52380952,,,,,,,,,,,,,,,,,,,,,657.3243,657.5204,657.5204,658.0207,,,,,,,,,,,,,,2.1566,0,,,,,,,,,,,,,,m,,,,,,,,,,,,,,,,105,0,658.0226,660.187,z,0,2.1566,,[],[],[],[],[],[],[],660.1871,662.1864,662.1865,662.1868,[],[],[],[],[],[],[],,662.1869,662.1869,-0.190833321,-0.219166718,0,0,0,,0,104,104,117,1,3,word,MARINE,cursive,marine_c.png,,,,,,
,,,,32140,001,2025-10-17_11h41.05.930,HW_LDT_1,2024.2.4,Win32,59.52380952,,,,,,,,,,,,,,,,,,,,,662.1885,662.3869,662.387,662.8867,,,,,,,,,,,,,,1.8554,0,,,,,,,,,,,,,,m,,,,,,,,,,,,,,,,106,0,662.8892,664.7536,z,0,1.8554,,[],[],[],[],[],[],[],664.7537,666.7535,666.7536,666.7538,[],[],[],[],[],[],[],,666.7539,666.7541,-0.190833321,-0.219166718,0,0,0,,0,105,105,140,1,3,word,RELATIVE,cursive,relative_c.png,,,,,,
,,,,32140,001,2025-10-17_11h41.05.930,HW_LDT_1,2024.2.4,Win32,59.52380952,,,,,,,,,,,,,,,,,,,,,666.7571,666.9533,666.9534,667.4534,,,,,,,,,,,,,,1.4065,1,,,,,,,,,,,,,,z,,,,,,,,,,,,,,,,107,0,667.4552,668.8699,z,1,1.4065,,[],[],[],[],[],[],[],668.87,670.87,670.87,670.8703,[],[],[],[],[],[],[],,670.8703,670.8705,-0.190833321,-0.219166718,0,0,0,,0,106,106,19,1,3,RL,opcifal,cursive,opcifal_c.png,,,,,,
,,,,32140,001,2025-10-17_11h41.05.930,HW_LDT_1,2024.2.4,Win32,59.52380952,,,,,,,,,,,,,,,,,,,,,670.874,671.0699,671.0699,671.5697,,,,,,,,,,,,,,1.807,1,,,,,,,,,,,,,,z,,,,,,,,,,,,,,,,108,0,671.5718,673.3864,z,1,1.807,,[],[],[],[],[],[],[],673.3865,675.3865,675.3865,675.3868,[],[],[],[],[],[],[],,675.3868,675.387,-0.190833321,-0.219166718,0,0,0,,0,107,107,18,1,3,RL,onegator,print,onegator_p.png,,,,,,
,,,,32140,001,2025-10-17_11h41.05.930,HW_LDT_1,2024.2.4,Win32,59.52380952,,,,,,,,,,,,,,,,,,,,,675.3904,675.5862,675.5863,676.0863,,,,,,,,,,,,,,1.7767,0,,,,,,,,,,,,,,m,,,,,,,,,,,,,,,,109,0,676.0883,677.8697,z,0,1.7767,,[],[],[],[],[],[],[],677.8697,679.8696,679.8696,679.8699,[],[],[],[],[],[],[],,679.87,679.8701,-0.190833321,-0.219166718,0,0,0,,0,108,108,145,1,3,word,RESUME,cursive,resume_c.png,,,,,,
,,,,32140,001,2025-10-17_11h41.05.930,HW_LDT_1,2024.2.4,Win32,59.52380952,,,,,,,,,,,,,,,,,,,,,679.8733,680.0694,680.0694,680.5696,,,,,,,,,,,,,,1.5911,1,,,,,,,,,,,,,,z,,,,,,,,,,,,,,,,110,0,680.5715,682.1693,z,1,1.5911,,[],[],[],[],[],[],[],682.1694,684.1688,684.1689,684.1691,[],[],[],[],[],[],[],,684.1691,684.1693,-0.190833321,-0.219166718,0,0,0,,0,109,109,21,1,3,RL,potugar,print,potugar_p.png,,,,,,
,,,,32140,001,2025-10-17_11h41.05.930,HW_LDT_1,2024.2.4,Win32,59.52380952,,,,,,,,,,,,,,,,,,,,,684.1727,684.3691,684.3692,684.8694,,,,,,,,,,,,,,22.6279,0,,,,,,,,,,,,,,m,,,,,,,,,,,,,,,,111,0,684.8713,707.5013,z,0,22.6279,,[],[],[],[],[],[],[],707.5015,709.5014,709.5015,709.5018,[],[],[],[],[],[],[],,709.5019,709.5019,-0.190833321,-0.219166718,0,0,0,,0,110,110,126,1,3,word,OPTIMAL,cursive,optimal_c.png,,,,,,
,,,,32140,001,2025-10-17_11h41.05.930,HW_LDT_1,2024.2.4,Win32,59.52380952,,,,,,,,,,,,,,,,,,,,,709.5056,709.7014,709.7015,710.2015,,,,,,,,,,,,,,3.7893,1,,,,,,,,,,,,,,z,,,,,,,,,,,,,,,,112,1,710.2035,714.0014,z,1,3.7893,,[],[],[],[],[],[],[],714.0014,716.0009,716.001,717.2676,[],[],[],[],[],[],[],z,717.2677,717.2678,-0.190833321,-0.219166718,0,0,0,,0,111,111,57,1,3,TL,moredate,cursive,moredate_c.png,1.2575,,,,,
,,,,32140,001,2025-10-17_11h41.05.930,HW_LDT_1,2024.2.4,Win32,59.52380952,,,,,,,,,,,,,,,,,,,,,717.2702,717.4676,717.4678,717.9677,,,,,,,,,,,,,,1.8215,1,,,,,,,,,,,,,,z,,,,,,,,,,,,,,,,113,1,717.9698,719.8008,z,1,1.8215,,[],[],[],[],[],[],[],719.8009,721.8009,721.801,723.4342,[],[],[],[],[],[],[],z,723.4343,723.4345,-0.190833321,-0.219166718,0,0,0,,0,112,112,34,1,3,TL,aminal,cursive,aminal_c.png,1.6298,,,,,
,,,,32140,001,2025-10-17_11h41.05.930,HW_LDT_1,2024.2.4,Win32,59.52380952,,,,,,,,,,,,,,,,,,,,,723.4372,723.6339,723.6339,724.1339,,,,,,,,,,,,,,1.3959,1,,,,,,,,,,,,,,m,,,,,,,,,,,,,,,,114,0,724.1359,725.5332,m,1,1.3959,,[],[],[],[],[],[],[],725.5332,727.5337,727.5337,727.5341,[],[],[],[],[],[],[],,727.5342,727.5343,-0.190833321,-0.219166718,0,0,0,,0,113,113,155,1,3,word,STRATEGY,print,strategy_p.png,,,,,,
,,,,32140,001,2025-10-17_11h41.05.930,HW_LDT_1,2024.2.4,Win32,59.52380952,,,,,,,,,,,,,,,,,,,,,727.5363,727.7337,727.7337,728.2334,,,,,,,,,,,,,,14.2378,0,,,,,,,,,,,,,,m,,,,,,,,,,,,,,,,115,0,728.235,742.4833,z,0,14.2378,,[],[],[],[],[],[],[],742.4834,744.4828,744.4828,744.483,[],[],[],[],[],[],[],,744.4831,744.4832,-0.190833321,-0.219166718,0,0,0,,0,114,114,107,1,3,word,EVIDENT,cursive,evident_c.png,,,,,,
,,,,32140,001,2025-10-17_11h41.05.930,HW_LDT_1,2024.2.4,Win32,59.52380952,,,,,,,,,,,,,,,,,,,,,744.4867,744.6829,744.6829,745.1831,,,,,,,,,,,,,,1.5393,1,,,,,,,,,,,,,,m,,,,,,,,,,,,,,,,116,0,745.185,746.7329,m,1,1.5393,,[],[],[],[],[],[],[],746.7331,748.7329,748.733,748.7331,[],[],[],[],[],[],[],,748.7331,748.7334,-0.190833321,-0.219166718,0,0,0,,0,115,115,118,1,3,word,MEDICINE,print,medicine_p.png,,,,,,
,,,,32140,001,2025-10-17_11h41.05.930,HW_LDT_1,2024.2.4,Win32,59.52380952,,,,,,,,,,,,,,,,,,,,,748.7375,748.9328,748.9328,749.4329,,,,,,,,,,,,,,1.815,1,,,,,,,,,,,,,,m,,,,,,,,,,,,,,,,117,0,749.4349,751.2516,m,1,1.815,,[],[],[],[],[],[],[],751.2517,753.2493,753.2494,753.2495,[],[],[],[],[],[],[],,753.2496,753.2497,-0.190833321,-0.219166718,0,0,0,,0,116,116,105,1,3,word,EDITOR,print,editor_p.png,,,,,,
,,,,32140,001,2025-10-17_11h41.05.930,HW_LDT_1,2024.2.4,Win32,59.52380952,,,,,,,,,,,,,,,,,,,,,753.2519,753.4492,753.4493,753.9495,,,,,,,,,,,,,,1.3191,1,,,,,,,,,,,,,,m,,,,,,,,,,,,,,,,118,1,753.9515,755.2819,m,1,1.3191,,[],[],[],[],[],[],[],755.2821,757.2825,757.2825,758.9325,[],[],[],[],[],[],[],m,758.9326,758.9329,-0.190833321,-0.219166718,0,0,0,,0,117,117,102,1,3,word,DENSITY,print,density_p.png,1.6407,,,,,
,,,,32140,001,2025-10-17_11h41.05.930,HW_LDT_1,2024.2.4,Win32,59.52380952,,,,,,,,,,,,,,,,,,,,,758.9364,759.1322,759.1322,759.6323,,,,,,,,,,,,,,1.2392,1,,,,,,,,,,,,,,z,,,,,,,,,,,,,,,,119,0,759.6343,760.8824,z,1,1.2392,,[],[],[],[],[],[],[],760.8826,762.8821,762.8822,762.8823,[],[],[],[],[],[],[],,762.8823,762.8825,-0.190833321,-0.219166718,0,0,0,,0,118,118,61,1,3,TL,pocily,print,pocily_p.png,,,,,,
,,,,32140,001,2025-10-17_11h41.05.930,HW_LDT_1,2024.2.4,Win32,59.52380952,,,,,,,,,,,,,,,,,,,,,762.8854,763.0817,763.0817,763.5821,,,,,,,,,,,,,,4.3727,1,,,,,,,,,,,,,,m,,,,,,,,,,,,,,,,120,1,763.5837,767.9662,m,1,4.3727,,[],[],[],[],[],[],[],767.9663,769.9654,769.9654,771.0487,[],[],[],[],[],[],[],m,771.0487,771.0489,-0.190833321,-0.219166718,0,0,0,,0,119,119,106,1,3,word,ELABORATE,print,elaborate_p.png,1.0758,,,,,
,,,,32140,001,2025-10-17_11h41.05.930,HW_LDT_1,2024.2.4,Win32,59.52380952,,,,,,,,,,,,,,,,,,,,,771.0525,771.2485,771.2485,771.7486,,,,,,,,,,,,,,1.2058,1,,,,,,,,,,,,,,z,,,,,,,,,,,,,,,,121,0,771.7506,772.9648,z,1,1.2058,,[],[],[],[],[],[],[],772.9649,774.9655,774.9657,774.9658,[],[],[],[],[],[],[],,774.9659,774.966,-0.190833321,-0.219166718,0,0,0,,0,120,120,9,1,3,RL,docirant,print,docirant_p.png,,,,,,
,,,,32140,001,2025-10-17_11h41.05.930,HW_LDT_1,2024.2.4,Win32,59.52380952,,,,,,,,,,,,,,,,,,,,,774.9685,775.1649,775.1649,775.665,,,,,,,,,,,,,,1.5789,1,,,,,,,,,,,,,,z,,,,,,,,,,,,,,,,122,0,775.6669,777.2478,z,1,1.5789,,[],[],[],[],[],[],[],777.248,779.2481,779.2482,779.2483,[],[],[],[],[],[],[],,779.2484,779.2485,-0.190833321,-0.219166718,0,0,0,,0,121,121,49,1,3,TL,incidate,print,incidate_p.png,,,,,,
,,,,32140,001,2025-10-17_11h41.05.930,HW_LDT_1,2024.2.4,Win32,59.52380952,,,,,,,,,,,,,,,,,,,,,779.2517,779.4479,779.448,779.9479,,,,,,,,,,,,,,1.6061,1,,,,,,,,,,,,,,m,,,,,,,,,,,,,,,,123,0,779.9487,781.5645,m,1,1.6061,,[],[],[],[],[],[],[],781.5645,783.5644,783.5645,783.5647,[],[],[],[],[],[],[],,783.5647,783.5649,-0.190833321,-0.219166718,0,0,0,,0,122,122,94,1,3,word,CLINICAL,print,clinical_p.png,,,,,,
,,,,32140,001,2025-10-17_11h41.05.930,HW_LDT_1,2024.2.4,Win32,59.52380952,,,,,,,,,,,,,,,,,,,,,783.5682,783.7645,783.7646,784.2647,,,,,,,,,,,,,,1.7441,1,,,,,,,,,,,,,,m,,,,,,,,,,,,,,,,124,1,784.2663,786.0145,m,1,1.7441,,[],[],[],[],[],[],[],786.0146,788.0145,788.0145,788.7311,[],[],[],[],[],[],[],z,788.7312,788.7314,-0.190833321,-0.219166718,0,0,0,,0,123,123,136,1,3,word,RADICAL,cursive,radical_c.png,0.7128,,,,,
,,,,32140,001,2025-10-17_11h41.05.930,HW_LDT_1,2024.2.4,Win32,59.52380952,,,,,,,,,,,,,,,,,,,,,788.7348,788.9306,788.9306,789.431,,,,,,,,,,,,,,1.4882,0,,,,,,,,,,,,,,z,,,,,,,,,,,,,,,,125,0,789.4329,790.9339,m,0,1.4882,,[],[],[],[],[],[],[],790.9339,792.9309,792.931,792.9313,[],[],[],[],[],[],[],,792.9313,792.9314,-0.190833321,-0.219166718,0,0,0,,0,124,124,37,1,3,TL,cacapity,cursive,cacapity_c.png,,,,,,
,,,,32140,001,2025-10-17_11h41.05.930,HW_LDT_1,2024.2.4,Win32,59.52380952,,,,,,,,,,,,,,,,,,,,,792.9348,793.1308,793.1308,793.6305,,,,,,,,,,,,,,1.5894,1,,,,,,,,,,,,,,m,,,,,,,,,,,,,,,,126,0,793.6324,795.2309,m,1,1.5894,,[],[],[],[],[],[],[],795.2311,797.2305,797.2306,797.2309,[],[],[],[],[],[],[],,797.2309,797.231,-0.190833321,-0.219166718,0,0,0,,0,125,125,101,1,3,word,DELICATE,print,delicate_p.png,,,,,,
,,,,32140,001,2025-10-17_11h41.05.930,HW_LDT_1,2024.2.4,Win32,59.52380952,,,,,,,,,,,,,,,,,,,,,797.2342,797.4305,797.4306,797.9306,,,,,,,,,,,,,,0.8088,1,,,,,,,,,,,,,,z,,,,,,,,,,,,,,,,127,0,797.9324,798.7473,z,1,0.8088,,[],[],[],[],[],[],[],798.7474,800.7466,800.7467,800.7468,[],[],[],[],[],[],[],,800.7469,800.7469,-0.190833321,-0.219166718,0,0,0,,0,126,126,30,1,3,RL,strapely,print,strapely_p.png,,,,,,
,,,,32140,001,2025-10-17_11h41.05.930,HW_LDT_1,2024.2.4,Win32,59.52380952,,,,,,,,,,,,,,,,,,,,,800.7498,800.947,800.947,801.447,,,,,,,,,,,,,,2.3571,1,,,,,,,,,,,,,,m,,,,,,,,,,,,,,,,128,1,801.4489,803.814,m,1,2.3571,,[],[],[],[],[],[],[],803.8141,805.8135,805.8136,829.3459,[],[],[],[],[],[],[],m,829.346,829.3462,-0.190833321,-0.219166718,0,0,0,,0,127,127,113,1,3,word,LITERAL,print,literal_p.png,23.5236,,,,,
,,,,32140,001,2025-10-17_11h41.05.930,HW_LDT_1,2024.2.4,Win32,59.52380952,,,,,,,,,,,,,,,,,,,,,829.3498,829.5455,829.5456,830.0457,,,,,,,,,,,,,,1.9888,1,,,,,,,,,,,,,,z,,,,,,,,,,,,,,,,129,0,830.0477,832.0455,z,1,1.9888,,[],[],[],[],[],[],[],832.0455,834.0453,834.0455,834.0456,[],[],[],[],[],[],[],,834.0457,834.0459,-0.190833321,-0.219166718,0,0,0,,0,128,128,4,1,3,RL,cafigal,cursive,cafigal_c.png,,,,,,
,,,,32140,001,2025-10-17_11h41.05.930,HW_LDT_1,2024.2.4,Win32,59.52380952,,,,,,,,,,,,,,,,,,,,,834.049,834.2455,834.2456,834.7446,,,,,,,,,,,,,,1.3302,0,,,,,,,,,,,,,,m,,,,,,,,,,,,,,,,130,0,834.745,836.0785,z,0,1.3302,,[],[],[],[],[],[],[],836.0785,838.0787,838.0788,838.079,[],[],[],[],[],[],[],,838.0791,838.0792,-0.190833321,-0.219166718,0,0,0,,0,129,129,108,1,3,word,FORTUNE,cursive,fortune_c.png,,,,,,
,,,,32140,001,2025-10-17_11h41.05.930,HW_LDT_1,2024.2.4,Win32,59.52380952,,,,,,,,,,,,,,,,,,,,,838.0819,838.2787,838.2787,838.7782,,,,,,,,,,,,,,1.6241,1,,,,,,,,,,,,,,z,,,,,,,,,,,,,,,,131,1,838.78,840.4117,z,1,1.6241,,[],[],[],[],[],[],[],840.4118,842.4116,842.4117,844.7949,[],[],[],[],[],[],[],z,844.795,844.7952,-0.190833321,-0.219166718,0,0,0,,0,130,130,71,1,3,TL,sanile,cursive,sanile_c.png,2.3803,,,,,
,,,,32140,001,2025-10-17_11h41.05.930,HW_LDT_1,2024.2.4,Win32,59.52380952,,,,,,,,,,,,,,,,,,,,,844.7981,844.995,844.9951,845.4948,,,,,,,,,,,,,,3.0926,1,,,,,,,,,,,,,,m,,,,,,,,,,,,,,,,132,0,845.4969,848.595,m,1,3.0926,,[],[],[],[],[],[],[],848.5951,850.5948,850.5948,850.5951,[],[],[],[],[],[],[],,850.5951,850.5954,-0.190833321,-0.219166718,0,0,0,,0,131,131,93,1,3,word,CEREMONY,cursive,ceremony_c.png,,,,,,
,,,,32140,001,2025-10-17_11h41.05.930,HW_LDT_1,2024.2.4,Win32,59.52380952,,,,,,,,,,,,,,,,,,,,,850.5985,850.7948,850.7948,851.2947,,,,,,,,,,,,,,2.8276,1,,,,,,,,,,,,,,z,,,,,,,,,,,,,,,,133,0,851.2967,854.128,z,1,2.8276,,[],[],[],[],[],[],[],854.1281,856.1279,856.1279,856.1282,[],[],[],[],[],[],[],,856.1283,856.1284,-0.190833321,-0.219166718,0,0,0,,0,132,132,78,1,3,TL,vecolity,cursive,vecolity_c.png,,,,,,
,,,,32140,001,2025-10-17_11h41.05.930,HW_LDT_1,2024.2.4,Win32,59.52380952,,,,,,,,,,,,,,,,,,,,,856.1315,856.3276,856.3276,856.8275,,,,,,,,,,,,,,2.7149,1,,,,,,,,,,,,,,m,,,,,,,,,,,,,,,,134,1,856.8291,859.5451,m,1,2.7149,,[],[],[],[],[],[],[],859.5452,861.5442,861.5442,863.4443,[],[],[],[],[],[],[],z,863.4447,863.4448,-0.190833321,-0.219166718,0,0,0,,0,133,133,127,1,3,word,ORIGINAL,cursive,original_c.png,1.899,,,,,
,,,,32140,001,2025-10-17_11h41.05.930,HW_LDT_1,2024.2.4,Win32,59.52380952,,,,,,,,,,,,,,,,,,,,,863.4482,863.6441,863.6441,864.1448,,,,,,,,,,,,,,1.9734,1,,,,,,,,,,,,,,m,,,,,,,,,,,,,,,,135,1,864.1457,866.1275,m,1,1.9734,,[],[],[],[],[],[],[],866.1276,868.1272,868.1272,869.96,[],[],[],[],[],[],[],m,869.9602,869.9603,-0.190833321,-0.219166718,0,0,0,,0,134,134,98,1,3,word,CRIMINAL,print,criminal_p.png,1.8252,,,,,
,,,,32140,001,2025-10-17_11h41.05.930,HW_LDT_1,2024.2.4,Win32,59.52380952,,,,,,,,,,,,,,,,,,,,,869.9621,870.1603,870.1603,870.6602,,,,,,,,,,,,,,1.2402,1,,,,,,,,,,,,,,z,,,,,,,,,,,,,,,,136,0,870.6619,871.9105,z,1,1.2402,,[],[],[],[],[],[],[],871.9106,873.9096,873.9097,873.9099,[],[],[],[],[],[],[],,873.9099,873.9101,-0.190833321,-0.219166718,0,0,0,,0,135,135,14,1,3,RL,lofase,cursive,lofase_c.png,,,,,,
,,,,32140,001,2025-10-17_11h41.05.930,HW_LDT_1,2024.2.4,Win32,59.52380952,,,,,,,,,,,,,,,,,,,,,873.9117,874.1093,874.1095,874.61,,,,,,,,,,,,,,0.7189,1,,,,,,,,,,,,,,m,,,,,,,,,,,,,,,,137,0,874.6108,875.3425,m,1,0.7189,,[],[],[],[],[],[],[],875.3426,877.3432,877.3433,877.3433,[],[],[],[],[],[],[],,877.3435,877.3435,-0.190833321,-0.219166718,0,0,0,,0,136,136,131,1,3,word,POPULAR,print,popular_p.png,,,,,,
,,,,32140,001,2025-10-17_11h41.05.930,HW_LDT_1,2024.2.4,Win32,59.52380952,,,,,,,,,,,,,,,,,,,,,877.3456,877.5435,877.5436,878.0433,,,,,,,,,,,,,,2.6686,1,,,,,,,,,,,,,,z,,,,,,,,,,,,,,,,138,1,878.0451,880.7146,z,1,2.6686,,[],[],[],[],[],[],[],880.715,882.7138,882.7139,883.2831,[],[],[],[],[],[],[],z,883.2833,883.2835,-0.190833321,-0.219166718,0,0,0,,0,137,137,76,1,3,TL,stogare,cursive,stogare_c.png,0.568,,,,,
,,,,32140,001,2025-10-17_11h41.05.930,HW_LDT_1,2024.2.4,Win32,59.52380952,,,,,,,,,,,,,,,,,,,,,883.2857,883.4805,883.4805,883.9799,,,,,,,,,,,,,,1.801,1,,,,,,,,,,,,,,z,,,,,,,,,,,,,,,,139,0,883.982,885.7841,z,1,1.801,,[],[],[],[],[],[],[],885.7843,887.7807,887.7809,887.7813,[],[],[],[],[],[],[],,887.7813,887.7814,-0.190833321,-0.219166718,0,0,0,,0,138,138,44,1,3,TL,decilate,print,decilate_p.png,,,,,,
,,,,32140,001,2025-10-17_11h41.05.930,HW_LDT_1,2024.2.4,Win32,59.52380952,,,,,,,,,,,,,,,,,,,,,887.784,887.9801,887.9803,888.4793,,,,,,,,,,,,,,1.174,1,,,,,,,,,,,,,,z,,,,,,,,,,,,,,,,140,0,888.4815,889.659,z,1,1.174,,[],[],[],[],[],[],[],889.6592,891.664,891.664,891.6649,[],[],[],[],[],[],[],,891.665,891.6651,-0.190833321,-0.219166718,0,0,0,,0,139,139,5,1,3,RL,capefory,cursive,capefory_c.png,,,,,,
,,,,32140,001,2025-10-17_11h41.05.930,HW_LDT_1,2024.2.4,Win32,59.52380952,,,,,,,,,,,,,,,,,,,,,891.667,891.8633,891.8634,892.3635,,,,,,,,,,,,,,1.5478,1,,,,,,,,,,,,,,z,,,,,,,,,,,,,,,,141,1,892.3653,893.915,z,1,1.5478,,[],[],[],[],[],[],[],893.9151,895.9083,895.9084,898.0131,[],[],[],[],[],[],[],m,898.0132,898.0134,-0.190833321,-0.219166718,0,0,0,,0,140,140,35,1,3,TL,cateferia,print,cateferia_p.png,2.1038,,,,,
,,,,32140,001,2025-10-17_11h41.05.930,HW_LDT_1,2024.2.4,Win32,59.52380952,,,,,,,,,,,,,,,,,,,,,898.0148,898.2089,898.2089,898.7086,,,,,,,,,,,,,,1.8374,1,,,,,,,,,,,,,,z,,,,,,,,,,,,,,,,142,0,898.709,900.5472,z,1,1.8374,,[],[],[],[],[],[],[],900.5473,902.546,902.5462,902.5464,[],[],[],[],[],[],[],,902.5465,902.5466,-0.190833321,-0.219166718,0,0,0,,0,141,141,42,1,3,TL,detabe,cursive,detabe_c.png,,,,,,
,,,,32140,001,2025-10-17_11h41.05.930,HW_LDT_1,2024.2.4,Win32,59.52380952,,,,,,,,,,,,,,,,,,,,,902.549,902.7464,902.7464,903.2459,,,,,,,,,,,,,,1.9433,1,,,,,,,,,,,,,,m,,,,,,,,,,,,,,,,143,0,903.2473,905.1951,m,1,1.9433,,[],[],[],[],[],[],[],905.1953,907.1962,907.1962,907.1965,[],[],[],[],[],[],[],,907.1965,907.1968,-0.190833321,-0.219166718,0,0,0,,0,142,142,80,1,3,word,ACADEMY,print,academy_p.png,,,,,,
,,,,32140,001,2025-10-17_11h41.05.930,HW_LDT_1,2024.2.4,Win32,59.52380952,,,,,,,,,,,,,,,,,,,,,907.1989,907.3956,907.3956,907.8918,,,,,,,,,,,,,,2.2685,1,,,,,,,,,,,,,,z,,,,,,,,,,,,,,,,144,0,907.8936,910.1633,z,1,2.2685,,[],[],[],[],[],[],[],910.1635,912.1613,912.1613,912.1615,[],[],[],[],[],[],[],,912.1616,912.1617,-0.190833321,-0.219166718,0,0,0,,0,143,143,36,1,3,TL,carema,cursive,carema_c.png,,,,,,
,,,,32140,001,2025-10-17_11h41.05.930,HW_LDT_1,2024.2.4,Win32,59.52380952,,,,,,,,,,,,,,,,,,,,,912.1634,912.3576,912.3576,912.8613,,,,,,,,,,,,,,1.4916,1,,,,,,,,,,,,,,z,,,,,,,,,,,,,,,,145,0,912.8619,914.3586,z,1,1.4916,,[],[],[],[],[],[],[],914.3588,916.3618,916.3618,916.362,[],[],[],[],[],[],[],,916.3621,916.3621,-0.190833321,-0.219166718,0,0,0,,0,144,144,72,1,3,TL,senmitent,print,senmitent_p.png,,,,,,
,,,,32140,001,2025-10-17_11h41.05.930,HW_LDT_1,2024.2.4,Win32,59.52380952,,,,,,,,,,,,,,,,,,,,,916.3636,916.558,916.558,917.0584,,,,,,,,,,,,,,1.552,1,,,,,,,,,,,,,,z,,,,,,,,,,,,,,,,146,0,917.0608,918.6145,z,1,1.552,,[],[],[],[],[],[],[],918.6146,920.6082,920.6083,920.6086,[],[],[],[],[],[],[],,920.6086,920.6093,-0.190833321,-0.219166718,0,0,0,,0,145,145,64,1,3,TL,radiply,print,radiply_p.png,,,,,,
,,,,32140,001,2025-10-17_11h41.05.930,HW_LDT_1,2024.2.4,Win32,59.52380952,,,,,,,,,,,,,,,,,,,,,920.6116,920.8113,920.8114,921.3075,,,,,,,,,,,,,,0.852,0,,,,,,,,,,,,,,m,,,,,,,,,,,,,,,,147,0,921.308,922.1617,z,0,0.852,,[],[],[],[],[],[],[],922.1617,924.162,924.1621,924.1622,[],[],[],[],[],[],[],,924.1623,924.1625,-0.190833321,-0.219166718,0,0,0,,0,146,146,122,1,3,word,MOBILE,cursive,mobile_c.png,,,,,,
,,,,32140,001,2025-10-17_11h41.05.930,HW_LDT_1,2024.2.4,Win32,59.52380952,,,,,,,,,,,,,,,,,,,,,924.1654,924.3616,924.3616,924.8579,,,,,,,,,,,,,,0.7658,1,,,,,,,,,,,,,,z,,,,,,,,,,,,,,,,148,0,924.86,925.6265,z,1,0.7658,,[],[],[],[],[],[],[],925.6268,927.6282,927.6286,927.6289,[],[],[],[],[],[],[],,927.629,927.629,-0.190833321,-0.219166718,0,0,0,,0,147,147,79,1,3,TL,veretan,cursive,veretan_c.png,,,,,,
,,,,32140,001,2025-10-17_11h41.05.930,HW_LDT_1,2024.2.4,Win32,59.52380952,,,,,,,,,,,,,,,,,,,,,927.6318,927.8289,927.8291,928.3287,,,,,,,,,,,,,,1.8978,0,,,,,,,,,,,,,,m,,,,,,,,,,,,,,,,149,0,928.3307,930.2303,z,0,1.8978,,[],[],[],[],[],[],[],930.2304,932.2236,932.2237,932.2238,[],[],[],[],[],[],[],,932.2238,932.2239,-0.190833321,-0.219166718,0,0,0,,0,148,148,128,1,3,word,PACIFIC,cursive,pacific_c.png,,,,,,
,,,,32140,001,2025-10-17_11h41.05.930,HW_LDT_1,2024.2.4,Win32,59.52380952,,,,,,,,,,,,,,,,,,,,,932.2253,932.4233,932.4233,932.9271,,,,,,,,,,,,,,1.8658,1,,,,,,,,,,,,,,m,,,,,,,,,,,,,,,,150,1,932.929,934.7958,m,1,1.8658,,[],[],[],[],[],[],[],934.7967,936.7902,936.7902,938.0298,[],[],[],[],[],[],[],m,938.0299,938.03,-0.190833321,-0.219166718,0,0,0,,0,149,149,82,1,3,word,AMATEUR,print,amateur_p.png,1.2379,,,,,
,,,,32140,001,2025-10-17_11h41.05.930,HW_LDT_1,2024.2.4,Win32,59.52380952,,,,,,,,,,,,,,,,,,,,,938.0321,938.2278,938.2278,938.7276,,,,,,,,,,,,,,10.1645,1,,,,,,,,,,,,,,m,,,,,,,,,,,,,,,,151,0,938.7298,948.8959,m,1,10.1645,,[],[],[],[],[],[],[],948.8962,950.8938,950.894,950.8942,[],[],[],[],[],[],[],,950.8943,950.8945,-0.190833321,-0.219166718,0,0,0,,0,150,150,159,1,3,word,VETERAN,cursive,veteran_c.png,,,,,,
,,,,32140,001,2025-10-17_11h41.05.930,HW_LDT_1,2024.2.4,Win32,59.52380952,,,,,,,,,,,,,,,,,,,,,950.8974,951.0893,951.0893,951.5925,,,,,,,,,,,,,,1.6004,1,,,,,,,,,,,,,,m,,,,,,,,,,,,,,,,152,0,951.5948,953.1964,m,1,1.6004,,[],[],[],[],[],[],[],953.1965,955.1926,955.1926,955.1929,[],[],[],[],[],[],[],,955.1929,955.1931,-0.190833321,-0.219166718,0,0,0,,0,151,151,84,1,3,word,BELOVED,cursive,beloved_c.png,,,,,,
,,,,32140,001,2025-10-17_11h41.05.930,HW_LDT_1,2024.2.4,Win32,59.52380952,,,,,,,,,,,,,,,,,,,,,955.195,955.3936,955.3938,955.8935,,,,,,,,,,,,,,1.5207,1,,,,,,,,,,,,,,z,,,,,,,,,,,,,,,,153,0,955.8953,957.4228,z,1,1.5207,,[],[],[],[],[],[],[],957.4229,959.4265,959.4266,959.4268,[],[],[],[],[],[],[],,959.4268,959.427,-0.190833321,-0.219166718,0,0,0,,0,152,152,46,1,3,TL,distupe,print,distupe_p.png,,,,,,
,,,,32140,001,2025-10-17_11h41.05.930,HW_LDT_1,2024.2.4,Win32,59.52380952,,,,,,,,,,,,,,,,,,,,,959.4297,959.6262,959.6262,960.1261,,,,,,,,,,,,,,8.6216,0,,,,,,,,,,,,,,m,,,,,,,,,,,,,,,,154,0,960.1277,968.7558,z,0,8.6216,,[],[],[],[],[],[],[],968.756,970.7596,970.7599,970.7602,[],[],[],[],[],[],[],,970.7602,970.7603,-0.190833321,-0.219166718,0,0,0,,0,153,153,92,1,3,word,CATEGORY,cursive,category_c.png,,,,,,
,,,,32140,001,2025-10-17_11h41.05.930,HW_LDT_1,2024.2.4,Win32,59.52380952,,,,,,,,,,,,,,,,,,,,,970.7631,970.9591,970.9592,971.4558,,,,,,,,,,,,,,1.7674,0,,,,,,,,,,,,,,m,,,,,,,,,,,,,,,,155,0,971.4582,973.2266,z,0,1.7674,,[],[],[],[],[],[],[],973.2268,975.2219,975.2219,975.2222,[],[],[],[],[],[],[],,975.2223,975.2224,-0.190833321,-0.219166718,0,0,0,,0,154,154,149,1,3,word,SENATOR,cursive,senator_c.png,,,,,,
,,,,32140,001,2025-10-17_11h41.05.930,HW_LDT_1,2024.2.4,Win32,59.52380952,,,,,,,,,,,,,,,,,,,,,975.2246,975.4103,975.4105,975.922,,,,,,,,,,,,,,1.0353,1,,,,,,,,,,,,,,z,,,,,,,,,,,,,,,,156,0,975.9244,976.962,z,1,1.0353,,[],[],[],[],[],[],[],976.9621,978.9592,978.9593,978.9598,[],[],[],[],[],[],[],,978.9598,978.96,-0.190833321,-0.219166718,0,0,0,,0,155,155,3,1,3,RL,bebine,cursive,bebine_c.png,,,,,,
,,,,32140,001,2025-10-17_11h41.05.930,HW_LDT_1,2024.2.4,Win32,59.52380952,,,,,,,,,,,,,,,,,,,,,978.9627,979.1485,979.1486,979.6587,,,,,,,,,,,,,,3.4502,1,,,,,,,,,,,,,,m,,,,,,,,,,,,,,,,157,0,979.6594,983.1113,m,1,3.4502,,[],[],[],[],[],[],[],983.1114,985.1048,985.1049,985.1052,[],[],[],[],[],[],[],,985.106,985.1067,-0.190833321,-0.219166718,0,0,0,,0,156,156,152,1,3,word,SPECIMEN,print,specimen_p.png,,,,,,
,,,,32140,001,2025-10-17_11h41.05.930,HW_LDT_1,2024.2.4,Win32,59.52380952,,,,,,,,,,,,,,,,,,,,,985.1083,985.3047,985.3048,985.8092,,,,,,,,,,,,,,2.4467,1,,,,,,,,,,,,,,z,,,,,,,,,,,,,,,,158,1,985.8111,988.2591,z,1,2.4467,,[],[],[],[],[],[],[],988.2592,990.2589,990.259,994.8766,[],[],[],[],[],[],[],m,994.8767,994.8775,-0.190833321,-0.219166718,0,0,0,,0,157,157,75,1,3,TL,sloten,cursive,sloten_c.png,4.6168,,,,,
,,,,32140,001,2025-10-17_11h41.05.930,HW_LDT_1,2024.2.4,Win32,59.52380952,,,,,,,,,,,,,,,,,,,,,994.8799,995.0743,995.0743,995.5747,,,,,,,,,,,,,,3.7321,1,,,,,,,,,,,,,,z,,,,,,,,,,,,,,,,159,0,995.5759,999.3102,z,1,3.7321,,[],[],[],[],[],[],[],999.3104,1001.3081,1001.3084,1001.3087,[],[],[],[],[],[],[],,1001.3087,1001.3088,-0.190833321,-0.219166718,0,0,0,,0,158,158,68,1,3,TL,revomal,cursive,revomal_c.png,,,,,,
,,,,32140,001,2025-10-17_11h41.05.930,HW_LDT_1,2024.2.4,Win32,59.52380952,,,,,,,,,,,,,,,,,,,,,1001.3116,1001.508,1001.5082,1002.0079,,,,,,,,,,,,,,3.8639,1,,,,,,,,,,,,,,z,,,,,,,,,,,,,,,,160,0,1002.01,1005.8759,z,1,3.8639,,[],[],[],[],[],[],[],1005.876,1007.8741,1007.8741,1007.8743,[],[],[],[],[],[],[],,1007.8743,1007.8743,-0.190833321,-0.219166718,0,0,0,,0,159,159,20,1,3,RL,orimipal,cursive,orimipal_c.png,,,,,,
,,,,32140,001,2025-10-17_11h41.05.930,HW_LDT_1,2024.2.4,Win32,59.52380952,,,,,,,,,,,,,,,,,,,,,,,,,,,,,,,,,,,,,,,,,,,,,,,,,,,,,,,,,,,,,,,,,,,,,,,,,,,,,,,,,,,,,,,,,,,,,,,,,,,,,,,,,,,,,,,,,,,,,,1007.8809,1012.8751
