counterbalance_lists.group,counterbalance_lists.remaining,get_list.started,get_list.stopped,participant,session,date,expName,psychopyVersion,OS,frameRate,Instructions.started,Instructions.stopped,key_resp.keys,instr_done_touch.x,instr_done_touch.y,instr_done_touch.leftButton,instr_done_touch.midButton,instr_done_touch.rightButton,instr_done_touch.clicked_name,start_instr.thisRepN,start_instr.thisTrialN,start_instr.thisN,start_instr.thisIndex,start_instr.ran,pageN,phase,instruct_text,has_image,instruct_image,key_resp.rt,key_resp.duration,showProgress.started,showProgress.stopped,fix.started,fix.stopped,prac.started,prac.stopped,response.keys,response.corr,response.rt,response.duration,touch_resp.x,touch_resp.y,touch_resp.leftButton,touch_resp.midButton,touch_resp.rightButton,touch_resp.time,touch_resp.clicked_name,rt,corr,feedback.started,feedback.stopped,trials.thisRepN,trials.thisTrialN,trials.thisN,trials.thisIndex,trials.ran,TrialID,StimulusType,Condition,PrimeDuration,Prime,Target,corrAns,Instructions_expt.started,Instructions_expt.stopped,key_resp_3.keys,key_resp_3.rt,key_resp_3.duration,instr_done_touch_3.x,instr_done_touch_3.y,instr_done_touch_3.leftButton,instr_done_touch_3.midButton,instr_done_touch_3.rightButton,instr_experiment.thisRepN,instr_experiment.thisTrialN,instr_experiment.thisN,instr_experiment.thisIndex,instr_experiment.ran,trialID,flag,maintask.started,maintask.stopped,key_resp_2.keys,key_resp_2.corr,targ_click.x,targ_click.y,targ_click.leftButton,targ_click.midButton,targ_click.rightButton,targ_click.time,targ_click.clicked_name,ITI.started,ITI.stopped,probe.started,probe.stopped,click_probe.x,click_probe.y,click_probe.leftButton,click_probe.midButton,click_probe.rightButton,click_probe.time,click_probe.clicked_name,key_resp_probe.keys,Break.started,Break.stopped,break_done_touch.x,break_done_touch.y,break_done_touch.leftButton,break_done_touch.midButton,break_done_touch.rightButton,break_done_keyboard.keys,list3_trials.thisRepN,list3_trials.thisTrialN,list3_trials.thisN,list3_trials.thisIndex,list3_trials.ran,list_id,item_type,string,font,stim_file,break_done_touch.clicked_name,End.started,End.stopped
list3,,0.5508,0.5509,32151,001,2025-10-16_21h06.54.726,HW_LDT_1,2024.2.4,Win32,60.24096386,,,,,,,,,,,,,,,,,,,,,,,,,,,,,,,,,,,,,,,,,,,,,,,,,,,,,,,,,,,,,,,,,,,,,,,,,,,,,,,,,,,,,,,,,,,,,,,,,,,,,,,,,,,,,,,,,,,
,,,,32151,001,2025-10-16_21h06.54.726,HW_LDT_1,2024.2.4,Win32,60.24096386,0.5635,71.5061,,-0.066666667,-0.379999987,1,0,0,instr_done_button,0,0,0,0,1,1,instructions,"INSTRUCTIONS
At the start of each trial, look at the plus sign  (+) in the center of the screen.  This tells you that a trial is about to begin and where to look. Second, the plus sign will disappear and a string of letters will appear. Your task is to determine if the string of letters is a word or not. If the item is a word press the M key (on keyboard)  or touch the word button (phone/tablet).  If the item is not a word,  press the  Z key (on keyboard)  or touch the nonword button (on phone/tablet). The items will be presented for a short time. 
Press the space bar or touch  continue.",0,,,,,,,,,,,,,,,,,,,,,,,,,,,,,,,,,,,,,,,,,,,,,,,,,,,,,,,,,,,,,,,,,,,,,,,,,,,,,,,,,,,,,,,,,,,,,,,,,
,,,,32151,001,2025-10-16_21h06.54.726,HW_LDT_1,2024.2.4,Win32,60.24096386,71.5076,79.2539,space,-0.066666667,-0.379999987,0,0,0,,0,1,1,1,1,2,instructions,"If your device has a keyboard, press the 'Z' key for nonwords and the 'M' key for words.





Press the space bar or touch the button below to continue.",0,keyboard-example.gif,7.7274,,,,,,,,,,,,,,,,,,,,,,,,,,,,,,,,,,,,,,,,,,,,,,,,,,,,,,,,,,,,,,,,,,,,,,,,,,,,,,,,,,,,,,,,,,,,,,,
,,,,32151,001,2025-10-16_21h06.54.726,HW_LDT_1,2024.2.4,Win32,60.24096386,79.2553,89.6706,space,-0.066666667,-0.379999987,0,0,0,,0,2,2,2,1,3,instructions,"If you are using a touchscreen only device, use the buttons on the screen. Do not use the mouse.





Press the space bar or touch the button below to continue.",0,touchscreen-example.gif,10.3886,,,,,,,,,,,,,,,,,,,,,,,,,,,,,,,,,,,,,,,,,,,,,,,,,,,,,,,,,,,,,,,,,,,,,,,,,,,,,,,,,,,,,,,,,,,,,,,
,,,,32151,001,2025-10-16_21h06.54.726,HW_LDT_1,2024.2.4,Win32,60.24096386,89.6776,108.5537,space,-0.066666667,-0.379999987,0,0,0,,0,3,3,3,1,4,instructions,"It is very important that you respond as quickly and accurately as possible, as each letter string will only be on the screen for two seconds. If you do not respond within this time, the message 'Too slow!' will be displayed and the experiment will progress to the next letter string. The first 20 trials will be practice trials and you will receive feedback on your answers. 

Press the space bar or touch the button below to start the practice trials.",0,,18.8632,,,,,,,,,,,,,,,,,,,,,,,,,,,,,,,,,,,,,,,,,,,,,,,,,,,,,,,,,,,,,,,,,,,,,,,,,,,,,,,,,,,,,,,,,,,,,,,
,,,,32151,001,2025-10-16_21h06.54.726,HW_LDT_1,2024.2.4,Win32,60.24096386,,,,,,,,,,,,,,,,,,,,,,108.572,108.7539,108.754,109.2538,109.2539,111.673,m,1,2.4006,,[],[],[],[],[],[],[],2.4006,1,111.6732,112.1717,0,0,0,4,1,1005,WORD,UN,33,abound,SQUEAK,m,,,,,,,,,,,,,,,,,,,,,,,,,,,,,,,,,,,,,,,,,,,,,,,,,,,,,,,,,,,,,
,,,,32151,001,2025-10-16_21h06.54.726,HW_LDT_1,2024.2.4,Win32,60.24096386,,,,,,,,,,,,,,,,,,,,,,112.173,112.3711,112.3711,112.8728,112.8737,115.7048,,0,,,[-0.2758333206176758],[-0.3150000254313151],[1],[0],[0],[2.8303999999910445],"[""button_left""]",2.8304,1,115.705,116.2051,0,1,1,13,1,1014,NW,UN,33,winfer,ROUPET,z,,,,,,,,,,,,,,,,,,,,,,,,,,,,,,,,,,,,,,,,,,,,,,,,,,,,,,,,,,,,,
,,,,32151,001,2025-10-16_21h06.54.726,HW_LDT_1,2024.2.4,Win32,60.24096386,,,,,,,,,,,,,,,,,,,,,,116.2063,116.4049,116.405,116.9058,116.9065,118.1742,,0,,,[0.3150000254313151],[-0.31666666666666665],[1],[0],[0],[1.267100000008952],"[""button_right""]",1.2671,1,118.1742,118.6744,0,2,2,0,1,1001,WORD,"ID",33,utopia,UTOPIA,m,,,,,,,,,,,,,,,,,,,,,,,,,,,,,,,,,,,,,,,,,,,,,,,,,,,,,,,,,,,,,
,,,,32151,001,2025-10-16_21h06.54.726,HW_LDT_1,2024.2.4,Win32,60.24096386,,,,,,,,,,,,,,,,,,,,,,118.6755,118.8738,118.8738,119.3716,119.3729,120.7573,,0,,,[-0.29249998728434246],[-0.35],[1],[0],[0],[1.3838000000119166],"[""button_left""]",1.3838,1,120.7575,121.2562,0,3,3,14,1,1015,NW,UN,16,miaber,THRALE,z,,,,,,,,,,,,,,,,,,,,,,,,,,,,,,,,,,,,,,,,,,,,,,,,,,,,,,,,,,,,,
,,,,32151,001,2025-10-16_21h06.54.726,HW_LDT_1,2024.2.4,Win32,60.24096386,,,,,,,,,,,,,,,,,,,,,,121.2573,121.4547,121.4549,121.9546,121.9556,122.9235,,0,,,[0.3308333079020182],[-0.32083333333333336],[1],[0],[0],[0.9672999999970386],"[""button_right""]",0.9673,1,122.9236,123.4236,0,4,4,3,1,1004,WORD,"ID",16,matrix,MATRIX,m,,,,,,,,,,,,,,,,,,,,,,,,,,,,,,,,,,,,,,,,,,,,,,,,,,,,,,,,,,,,,
,,,,32151,001,2025-10-16_21h06.54.726,HW_LDT_1,2024.2.4,Win32,60.24096386,,,,,,,,,,,,,,,,,,,,,,123.4244,123.6231,123.6231,124.1233,124.1242,125.2913,,0,,,[0.3541666666666667],[-0.32250003814697265],[1],[0],[0],[1.166499999999985],"[""button_right""]",1.1665,1,125.2915,125.7887,0,5,5,5,1,1006,WORD,UN,33,frenzy,OBTAIN,m,,,,,,,,,,,,,,,,,,,,,,,,,,,,,,,,,,,,,,,,,,,,,,,,,,,,,,,,,,,,,
,,,,32151,001,2025-10-16_21h06.54.726,HW_LDT_1,2024.2.4,Win32,60.24096386,,,,,,,,,,,,,,,,,,,,,,125.7898,125.9895,125.9895,126.4884,126.489,127.2662,,0,,,[0.34833335876464844],[-0.3333333333333333],[1],[0],[0],[0.7765999999940334],"[""button_right""]",0.7766,1,127.2665,127.7566,0,6,6,6,1,1007,WORD,UN,16,tropic,ZOMBIE,m,,,,,,,,,,,,,,,,,,,,,,,,,,,,,,,,,,,,,,,,,,,,,,,,,,,,,,,,,,,,,
,,,,32151,001,2025-10-16_21h06.54.726,HW_LDT_1,2024.2.4,Win32,60.24096386,,,,,,,,,,,,,,,,,,,,,,127.7576,127.9566,127.9566,128.455,128.4704,129.7411,,0,,,[-0.3091666539510091],[-0.32416667938232424],[1],[0],[0],[1.269200000002968],"[""button_left""]",1.2692,1,129.7413,130.2381,0,7,7,9,1,1010,NW,"ID",33,fariny,FARINY,z,,,,,,,,,,,,,,,,,,,,,,,,,,,,,,,,,,,,,,,,,,,,,,,,,,,,,,,,,,,,,
,,,,32151,001,2025-10-16_21h06.54.726,HW_LDT_1,2024.2.4,Win32,60.24096386,,,,,,,,,,,,,,,,,,,,,,130.2392,130.4384,130.4385,130.9381,130.9391,131.9383,,0,,,[0.2733333587646484],[-0.30166670481363933],[1],[0],[0],[0.9984000000059439],"[""button_right""]",0.9984,0,131.9393,132.4386,0,8,8,10,1,1011,NW,"ID",16,inlade,INLADE,z,,,,,,,,,,,,,,,,,,,,,,,,,,,,,,,,,,,,,,,,,,,,,,,,,,,,,,,,,,,,,
,,,,32151,001,2025-10-16_21h06.54.726,HW_LDT_1,2024.2.4,Win32,60.24096386,,,,,,,,,,,,,,,,,,,,,,132.4395,132.6409,132.641,133.1387,133.1393,134.4421,,0,,,[-0.2808333396911621],[-0.3025000254313151],[1],[0],[0],[1.302000000000021],"[""button_left""]",1.302,1,134.4428,134.9389,0,9,9,12,1,1013,NW,UN,33,adveil,SPRINY,z,,,,,,,,,,,,,,,,,,,,,,,,,,,,,,,,,,,,,,,,,,,,,,,,,,,,,,,,,,,,,
,,,,32151,001,2025-10-16_21h06.54.726,HW_LDT_1,2024.2.4,Win32,60.24096386,,,,,,,,,,,,,,,,,,,,,,134.9397,135.141,135.141,135.6384,135.6396,136.5401,,0,,,[0.3099999745686849],[-0.2758333206176758],[1],[0],[0],[0.8999000000059425],"[""button_right""]",0.8999,1,136.5403,137.0382,0,10,10,7,1,1008,WORD,UN,16,hurdle,VOLUME,m,,,,,,,,,,,,,,,,,,,,,,,,,,,,,,,,,,,,,,,,,,,,,,,,,,,,,,,,,,,,,
,,,,32151,001,2025-10-16_21h06.54.726,HW_LDT_1,2024.2.4,Win32,60.24096386,,,,,,,,,,,,,,,,,,,,,,137.0393,137.2404,137.2405,137.7386,137.7395,138.8048,,0,,,[-0.31666666666666665],[-0.31333332061767577],[1],[0],[0],[1.0645999999940159],"[""button_left""]",1.0646,1,138.805,139.3056,0,11,11,15,1,1016,NW,UN,16,mushed,WHAISE,z,,,,,,,,,,,,,,,,,,,,,,,,,,,,,,,,,,,,,,,,,,,,,,,,,,,,,,,,,,,,,
,,,,32151,001,2025-10-16_21h06.54.726,HW_LDT_1,2024.2.4,Win32,60.24096386,,,,,,,,,,,,,,,,,,,,,,139.3065,139.5052,139.5052,140.0062,140.0066,141.0218,,0,,,[0.3016666412353516],[-0.25],[1],[0],[0],[1.014599999994033],"[""button_right""]",1.0146,1,141.022,141.5246,0,12,12,2,1,1003,WORD,"ID",16,almond,ALMOND,m,,,,,,,,,,,,,,,,,,,,,,,,,,,,,,,,,,,,,,,,,,,,,,,,,,,,,,,,,,,,,
,,,,32151,001,2025-10-16_21h06.54.726,HW_LDT_1,2024.2.4,Win32,60.24096386,,,,,,,,,,,,,,,,,,,,,,141.5255,141.7225,141.7225,142.2219,142.223,143.2414,,0,,,[0.30333340962727867],[-0.31083335876464846],[1],[0],[0],[1.017700000002975],"[""button_right""]",1.0177,1,143.2415,143.7402,0,13,13,1,1,1002,WORD,"ID",33,adjust,ADJUST,m,,,,,,,,,,,,,,,,,,,,,,,,,,,,,,,,,,,,,,,,,,,,,,,,,,,,,,,,,,,,,
,,,,32151,001,2025-10-16_21h06.54.726,HW_LDT_1,2024.2.4,Win32,60.24096386,,,,,,,,,,,,,,,,,,,,,,143.741,143.9392,143.9392,144.4386,144.4394,145.4892,,0,,,[-0.21666666666666667],[-0.30833333333333335],[1],[0],[0],[1.048700000002981],"[""button_left""]",1.0487,1,145.4894,145.9902,0,14,14,8,1,1009,NW,"ID",33,aslert,ASLERT,z,,,,,,,,,,,,,,,,,,,,,,,,,,,,,,,,,,,,,,,,,,,,,,,,,,,,,,,,,,,,,
,,,,32151,001,2025-10-16_21h06.54.726,HW_LDT_1,2024.2.4,Win32,60.24096386,,,,,,,,,,,,,,,,,,,,,,145.9911,146.1883,146.1883,146.6901,146.6907,147.9229,,0,,,[-0.353333314259847],[-0.2891667048136393],[1],[0],[0],[1.2317000000029736],"[""button_left""]",1.2317,1,147.9234,148.422,0,15,15,11,1,1012,NW,"ID",16,rashet,RASHET,z,,,,,,,,,,,,,,,,,,,,,,,,,,,,,,,,,,,,,,,,,,,,,,,,,,,,,,,,,,,,,
,,,,32151,001,2025-10-16_21h06.54.726,HW_LDT_1,2024.2.4,Win32,60.24096386,,,,,,,,,,,,,,,1,end_of_practice,"You have completed the practice trials. During the experimental trials, you will not receive feedback. On some trials you will be asked to report whether the item you just saw was in cursive or print. 
Before you begin, please ensure that you are in a comfortable and quiet location and will not be disturbed for about 15 minutes, as we cannot use your data if you do not complete all the trials. 
 When you are ready to start the experimental trials, please press space or touch the button below.",,,,,,,,,,,,,,,,,,,,,,,,,,,,,,,,,,,,,,148.4255,168.707,space,20.2513,,-0.052499962,-0.2625,0,0,0,0,0,0,0,1,,,,,,,,,,,,,,,,,,,,,,,,,,,,,,,,,,,,,,,,,,,,,,
,,,,32151,001,2025-10-16_21h06.54.726,HW_LDT_1,2024.2.4,Win32,60.24096386,,,,,,,,,,,,,,,,,,,,,,168.7158,168.9061,168.9061,169.4083,,,,,,,,,,,,,,1.4471,1,,,,,,,,,,,,,,z,,,,,,,,,,,,,,,,1,0,169.4092,170.8589,,0,[-0.4183333396911621],[-0.31416670481363934],[1],[0],[0],[1.4471000000089305],"[""button_left_main""]",170.859,172.8567,172.8568,172.8586,[],[],[],[],[],[],[],,172.8587,172.8725,-0.100833321,-0.2875,0,0,0,,0,0,0,24,1,3,RL,quafidy,print,quafidy_p.png,,,
,,,,32151,001,2025-10-16_21h06.54.726,HW_LDT_1,2024.2.4,Win32,60.24096386,,,,,,,,,,,,,,,,,,,,,,172.8731,173.0725,173.0726,173.573,,,,,,,,,,,,,,1.7671,1,,,,,,,,,,,,,,z,,,,,,,,,,,,,,,,2,0,173.5736,175.3417,,0,[-0.3316666603088379],[-0.3233333587646484],[1],[0],[0],[1.7670999999940307],"[""button_left_main""]",175.3418,177.3397,177.3397,177.3399,[],[],[],[],[],[],[],,177.3399,177.34,-0.170000013,-0.331666692,0,0,0,,0,1,1,18,1,3,RL,onegator,print,onegator_p.png,,,
,,,,32151,001,2025-10-16_21h06.54.726,HW_LDT_1,2024.2.4,Win32,60.24096386,,,,,,,,,,,,,,,,,,,,,,177.3409,177.5398,177.5399,178.0396,,,,,,,,,,,,,,4.7182,1,,,,,,,,,,,,,,z,,,,,,,,,,,,,,,,3,0,178.0403,182.7591,,0,[-0.20166664123535155],[-0.2900000254313151],[1],[0],[0],[4.718199999988087],"[""button_left_main""]",182.7591,184.7589,184.7589,184.7591,[],[],[],[],[],[],[],,184.7591,184.7591,-0.052499962,-0.488333321,0,0,0,,0,2,2,34,1,3,TL,aminal,cursive,aminal_c.png,,,
,,,,32151,001,2025-10-16_21h06.54.726,HW_LDT_1,2024.2.4,Win32,60.24096386,,,,,,,,,,,,,,,,,,,,,,184.76,184.958,184.958,185.4576,,,,,,,,,,,,,,2.565,1,,,,,,,,,,,,,,z,,,,,,,,,,,,,,,,4,0,185.4581,188.0236,,0,[-0.36666666666666664],[-0.3158333460489909],[1],[0],[0],[2.5649999999999977],"[""button_left_main""]",188.0237,190.0227,190.0228,190.023,[],[],[],[],[],[],[],,190.0231,190.0231,-0.089166641,-0.353333346,0,0,0,,0,3,3,36,1,3,TL,carema,cursive,carema_c.png,,,
,,,,32151,001,2025-10-16_21h06.54.726,HW_LDT_1,2024.2.4,Win32,60.24096386,,,,,,,,,,,,,,,,,,,,,,190.0239,190.2229,190.223,190.723,,,,,,,,,,,,,,1.0176,1,,,,,,,,,,,,,,z,,,,,,,,,,,,,,,,5,0,190.7238,191.7419,,0,[-0.32083333333333336],[-0.31666666666666665],[1],[0],[0],[1.0176000000089402],"[""button_left_main""]",191.7419,193.7408,193.7409,193.7411,[],[],[],[],[],[],[],,193.7412,193.7412,-0.028333346,-0.3375,0,0,0,,0,4,4,10,1,3,RL,efibor,print,efibor_p.png,,,
,,,,32151,001,2025-10-16_21h06.54.726,HW_LDT_1,2024.2.4,Win32,60.24096386,,,,,,,,,,,,,,,,,,,,,,193.7422,193.9402,193.9403,194.441,,,,,,,,,,,,,,0.9816,1,,,,,,,,,,,,,,m,,,,,,,,,,,,,,,,6,0,194.4416,195.4242,,0,[0.25083332061767577],[-0.33250001271565754],[1],[0],[0],[0.9816000000089389],"[""button_right_main""]",195.4243,197.424,197.424,197.4243,[],[],[],[],[],[],[],,197.4244,197.4245,0.053333346,-0.303333346,0,0,0,,0,5,5,118,1,3,word,MEDICINE,print,medicine_p.png,,,
,,,,32151,001,2025-10-16_21h06.54.726,HW_LDT_1,2024.2.4,Win32,60.24096386,,,,,,,,,,,,,,,,,,,,,,197.4255,197.6235,197.6236,198.1236,,,,,,,,,,,,,,0.8173,0,,,,,,,,,,,,,,z,,,,,,,,,,,,,,,,7,0,198.1241,198.9419,,0,[0.3233333587646484],[-0.325],[1],[0],[0],[0.8173000000118691],"[""button_right_main""]",198.942,200.9403,200.9404,200.9405,[],[],[],[],[],[],[],,200.9405,200.941,0.094166692,-0.315000025,0,0,0,,0,6,6,73,1,3,TL,speficic,print,speficic_p.png,,,
,,,,32151,001,2025-10-16_21h06.54.726,HW_LDT_1,2024.2.4,Win32,60.24096386,,,,,,,,,,,,,,,,,,,,,,200.9419,201.1403,201.1403,201.64,,,,,,,,,,,,,,2.2323,1,,,,,,,,,,,,,,z,,,,,,,,,,,,,,,,8,0,201.6406,203.8733,,0,[-0.2875],[-0.29083334604899086],[1],[0],[0],[2.2322999999969966],"[""button_left_main""]",203.8735,205.8751,205.8751,205.8752,[],[],[],[],[],[],[],,205.8753,205.8754,-0.061666679,-0.299166679,0,0,0,,0,7,7,31,1,3,RL,trilude,print,trilude_p.png,,,
,,,,32151,001,2025-10-16_21h06.54.726,HW_LDT_1,2024.2.4,Win32,60.24096386,,,,,,,,,,,,,,,,,,,,,,205.8762,206.0738,206.0739,206.5738,,,,,,,,,,,,,,2.0985,1,,,,,,,,,,,,,,z,,,,,,,,,,,,,,,,9,0,206.5744,208.6735,,0,[-0.2899999936421712],[-0.3158333460489909],[1],[0],[0],[2.0985000000000014],"[""button_left_main""]",208.6735,210.6739,210.6739,210.6744,[],[],[],[],[],[],[],,210.6744,210.6744,0.036666679,-0.325,0,0,0,,0,8,8,78,1,3,TL,vecolity,cursive,vecolity_c.png,,,
,,,,32151,001,2025-10-16_21h06.54.726,HW_LDT_1,2024.2.4,Win32,60.24096386,,,,,,,,,,,,,,,,,,,,,,210.6753,210.8755,210.8755,211.3737,,,,,,,,,,,,,,1.0013,1,,,,,,,,,,,,,,m,,,,,,,,,,,,,,,,10,0,211.3742,212.376,,0,[0.32916666666666666],[-0.27250003814697266],[1],[0],[0],[1.0012999999970589],"[""button_right_main""]",212.3762,214.3743,214.3743,214.3745,[],[],[],[],[],[],[],,214.3746,214.3747,0.064166705,-0.2875,0,0,0,,0,9,9,89,1,3,word,CAPACITY,cursive,capacity_c.png,,,
,,,,32151,001,2025-10-16_21h06.54.726,HW_LDT_1,2024.2.4,Win32,60.24096386,,,,,,,,,,,,,,,,,,,,,,214.3756,214.5742,214.5742,215.0742,,,,,,,,,,,,,,3.0684,1,,,,,,,,,,,,,,z,,,,,,,,,,,,,,,,11,0,215.0746,218.1436,,0,[-0.3024999936421712],[-0.32083333333333336],[1],[0],[0],[3.0683999999910156],"[""button_left_main""]",218.1437,220.1405,220.1406,220.1407,[],[],[],[],[],[],[],,220.1408,220.1408,-0.015833346,-0.314166705,0,0,0,,0,10,10,14,1,3,RL,lofase,cursive,lofase_c.png,,,
,,,,32151,001,2025-10-16_21h06.54.726,HW_LDT_1,2024.2.4,Win32,60.24096386,,,,,,,,,,,,,,,,,,,,,,220.1416,220.3412,220.3413,220.8436,,,,,,,,,,,,,,2.4496,0,,,,,,,,,,,,,,z,,,,,,,,,,,,,,,,12,0,220.844,223.2941,,0,[0.3175000508626302],[-0.30333334604899087],[1],[0],[0],[2.4495999999940636],"[""button_right_main""]",223.2942,225.2913,225.2914,225.2917,[],[],[],[],[],[],[],,225.2918,225.2918,-0.040833346,-0.342499987,0,0,0,,0,11,11,54,1,3,TL,manire,cursive,manire_c.png,,,
,,,,32151,001,2025-10-16_21h06.54.726,HW_LDT_1,2024.2.4,Win32,60.24096386,,,,,,,,,,,,,,,,,,,,,,225.2927,225.4911,225.4912,225.9911,,,,,,,,,,,,,,4.4825,0,,,,,,,,,,,,,,m,,,,,,,,,,,,,,,,13,0,225.9915,230.4744,,0,[-0.2983333269755046],[-0.3266667048136393],[1],[0],[0],[4.482500000000016],"[""button_left_main""]",230.4744,232.4767,232.4768,232.4769,[],[],[],[],[],[],[],,232.477,232.477,-0.0375,-0.344166692,0,0,0,,0,12,12,126,1,3,word,OPTIMAL,cursive,optimal_c.png,,,
,,,,32151,001,2025-10-16_21h06.54.726,HW_LDT_1,2024.2.4,Win32,60.24096386,,,,,,,,,,,,,,,,,,,,,,232.4778,232.6747,232.6748,233.1747,,,,,,,,,,,,,,2.4655,1,,,,,,,,,,,,,,z,,,,,,,,,,,,,,,,14,0,233.1752,235.641,,0,[-0.328333314259847],[-0.29083334604899086],[1],[0],[0],[2.46550000000002],"[""button_left_main""]",235.6411,237.6413,237.6414,237.6415,[],[],[],[],[],[],[],,237.6416,237.6417,-0.098333295,-0.309166654,0,0,0,,0,13,13,77,1,3,TL,vadility,cursive,vadility_c.png,,,
,,,,32151,001,2025-10-16_21h06.54.726,HW_LDT_1,2024.2.4,Win32,60.24096386,,,,,,,,,,,,,,,,,,,,,,237.6427,237.841,237.8412,238.341,,,,,,,,,,,,,,0.9026,1,,,,,,,,,,,,,,m,,,,,,,,,,,,,,,,15,0,238.3414,239.2445,,0,[0.2925000508626302],[-0.25750001271565753],[1],[0],[0],[0.9025999999940382],"[""button_right_main""]",239.2446,241.2416,241.2417,241.2418,[],[],[],[],[],[],[],,241.2419,241.242,0.021666654,-0.270000013,0,0,0,,0,14,14,103,1,3,word,DISPUTE,print,dispute_p.png,,,
,,,,32151,001,2025-10-16_21h06.54.726,HW_LDT_1,2024.2.4,Win32,60.24096386,,,,,,,,,,,,,,,,,,,,,,241.2428,241.4414,241.4415,241.9433,,,,,,,,,,,,,,0.7972,1,,,,,,,,,,,,,,m,,,,,,,,,,,,,,,,16,0,241.9436,242.7412,,0,[0.35],[-0.3125],[1],[0],[0],[0.797200000002988],"[""button_right_main""]",242.7413,244.7419,244.742,244.7421,[],[],[],[],[],[],[],,244.7421,244.7422,0.055833371,-0.299166679,0,0,0,,0,15,15,135,1,3,word,QUALITY,print,quality_p.png,,,
,,,,32151,001,2025-10-16_21h06.54.726,HW_LDT_1,2024.2.4,Win32,60.24096386,,,,,,,,,,,,,,,,,,,,,,244.7429,244.9414,244.9414,245.4436,,,,,,,,,,,,,,0.7992,1,,,,,,,,,,,,,,m,,,,,,,,,,,,,,,,17,0,245.4438,246.2435,,0,[0.2916666666666667],[-0.3266667048136393],[1],[0],[0],[0.7992000000029407],"[""button_right_main""]",246.2436,248.2416,248.2416,248.2417,[],[],[],[],[],[],[],,248.2417,248.2419,0.035000038,-0.330833371,0,0,0,,0,16,16,112,1,3,word,LIBERAL,print,liberal_p.png,,,
,,,,32151,001,2025-10-16_21h06.54.726,HW_LDT_1,2024.2.4,Win32,60.24096386,,,,,,,,,,,,,,,,,,,,,,248.2431,248.4416,248.4417,248.9412,,,,,,,,,,,,,,2.0158,0,,,,,,,,,,,,,,m,,,,,,,,,,,,,,,,18,1,248.9416,250.9577,,0,[-0.25583330790201825],[-0.3391667048136393],[1],[0],[0],[2.015799999997],"[""button_left_main""]",250.9578,252.9604,252.9604,256.8751,[-0.41916666030883787],[-0.3383333206176758],[1],[0],[0],[3.9145000000000323],"[""button_left_probe""]",,256.8751,256.8752,-0.41916666,-0.338333321,1,0,0,,0,17,17,114,1,3,word,LOCATE,cursive,locate_c.png,,,
,,,,32151,001,2025-10-16_21h06.54.726,HW_LDT_1,2024.2.4,Win32,60.24096386,,,,,,,,,,,,,,,,,,,,,,256.8761,257.0752,257.0753,257.5773,,,,,,,,,,,,,,2.2655,1,,,,,,,,,,,,,,z,,,,,,,,,,,,,,,,19,0,257.5777,259.8434,,0,[-0.26666666666666666],[-0.343333371480306],[1],[0],[0],[2.2654999999999745],"[""button_left_main""]",259.8435,261.8421,261.8421,261.8423,[],[],[],[],[],[],[],,261.8423,261.8424,-0.009166654,-0.323333359,0,0,0,,0,18,18,37,1,3,TL,cacapity,cursive,cacapity_c.png,,,
,,,,32151,001,2025-10-16_21h06.54.726,HW_LDT_1,2024.2.4,Win32,60.24096386,,,,,,,,,,,,,,,,,,,,,,261.8434,262.0423,262.0426,262.5415,,,,,,,,,,,,,,1.1498,1,,,,,,,,,,,,,,m,,,,,,,,,,,,,,,,20,0,262.5419,263.6921,,0,[0.3316666920979818],[-0.2708333333333333],[1],[0],[0],[1.1497999999970148],"[""button_right_main""]",263.6923,265.6933,265.6934,265.6935,[],[],[],[],[],[],[],,265.6936,265.6936,0.131666692,-0.302500025,0,0,0,,0,19,19,146,1,3,word,RETIRE,print,retire_p.png,,,
,,,,32151,001,2025-10-16_21h06.54.726,HW_LDT_1,2024.2.4,Win32,60.24096386,,,,,,,,,,,,,,,,,,,,,,265.6946,265.892,265.8921,266.3927,,,,,,,,,,,,,,1.3836,1,,,,,,,,,,,,,,z,,,,,,,,,,,,,,,,21,0,266.3933,267.7775,,0,[-0.26749998728434243],[-0.28250001271565756],[1],[0],[0],[1.3835999999940896],"[""button_left_main""]",267.7776,269.7777,269.7778,269.7779,[],[],[],[],[],[],[],,269.778,269.778,-0.155833308,-0.249166679,0,0,0,,0,20,20,7,1,3,RL,cobeny,print,cobeny_p.png,,,
,,,,32151,001,2025-10-16_21h06.54.726,HW_LDT_1,2024.2.4,Win32,60.24096386,,,,,,,,,,,,,,,,,,,,,,269.7787,269.9768,269.9769,270.477,,,,,,,,,,,,,,1.715,1,,,,,,,,,,,,,,m,,,,,,,,,,,,,,,,22,0,270.4773,272.1927,,0,[0.29583333333333334],[-0.30416666666666664],[1],[0],[0],[1.7150000000000318],"[""button_right_main""]",272.1928,274.1923,274.1923,274.1924,[],[],[],[],[],[],[],,274.1924,274.1926,0.010833359,-0.308333333,0,0,0,,0,21,21,158,1,3,word,VELOCITY,cursive,velocity_c.png,,,
,,,,32151,001,2025-10-16_21h06.54.726,HW_LDT_1,2024.2.4,Win32,60.24096386,,,,,,,,,,,,,,,,,,,,,,274.1934,274.3938,274.3938,274.8923,,,,,,,,,,,,,,2.0018,1,,,,,,,,,,,,,,z,,,,,,,,,,,,,,,,23,0,274.8929,276.8951,,0,[-0.31666666666666665],[-0.3174999872843424],[1],[0],[0],[2.00179999999699],"[""button_left_main""]",276.8952,278.8923,278.8924,278.8925,[],[],[],[],[],[],[],,278.8925,278.8927,-0.297500006,-0.339166705,0,0,0,,0,22,22,15,1,3,RL,mifikary,cursive,mifikary_c.png,,,
,,,,32151,001,2025-10-16_21h06.54.726,HW_LDT_1,2024.2.4,Win32,60.24096386,,,,,,,,,,,,,,,,,,,,,,278.8936,279.0939,279.094,279.592,,,,,,,,,,,,,,1.6012,1,,,,,,,,,,,,,,m,,,,,,,,,,,,,,,,24,0,279.5925,281.1942,,0,[0.3416666666666667],[-0.2891667048136393],[1],[0],[0],[1.6012000000029616],"[""button_right_main""]",281.1943,283.1937,283.1938,283.1938,[],[],[],[],[],[],[],,283.1939,283.194,0.020000013,-0.285833359,0,0,0,,0,23,23,132,1,3,word,PROPOSAL,print,proposal_p.png,,,
,,,,32151,001,2025-10-16_21h06.54.726,HW_LDT_1,2024.2.4,Win32,60.24096386,,,,,,,,,,,,,,,,,,,,,,283.1947,283.3922,283.3923,283.8921,,,,,,,,,,,,,,1.3502,1,,,,,,,,,,,,,,z,,,,,,,,,,,,,,,,25,0,283.8924,285.243,,0,[-0.38249998092651366],[-0.2875],[1],[0],[0],[1.3501999999880923],"[""button_left_main""]",285.2431,287.2428,287.2429,287.243,[],[],[],[],[],[],[],,287.243,287.2431,0.110833359,-0.285000038,0,0,0,,0,24,24,43,1,3,TL,dedace,cursive,dedace_c.png,,,
,,,,32151,001,2025-10-16_21h06.54.726,HW_LDT_1,2024.2.4,Win32,60.24096386,,,,,,,,,,,,,,,,,,,,,,287.244,287.4448,287.4448,287.9427,,,,,,,,,,,,,,1.1846,1,,,,,,,,,,,,,,m,,,,,,,,,,,,,,,,26,1,287.943,289.1281,,0,[0.30833333333333335],[-0.2783333460489909],[1],[0],[0],[1.1845999999940204],"[""button_right_main""]",289.1281,291.126,291.126,293.3762,[-0.4475000063578288],[-0.3541666666666667],[1],[0],[0],[2.25],"[""button_left_probe""]",,293.3763,293.3764,-0.447500006,-0.354166667,1,0,0,,0,25,25,88,1,3,word,CAMERA,cursive,camera_c.png,,,
,,,,32151,001,2025-10-16_21h06.54.726,HW_LDT_1,2024.2.4,Win32,60.24096386,,,,,,,,,,,,,,,,,,,,,,293.3772,293.5763,293.5764,294.0765,,,,,,,,,,,,,,1.7668,0,,,,,,,,,,,,,,m,,,,,,,,,,,,,,,,27,0,294.0771,295.8443,,0,[-0.36666666666666664],[-0.2658333460489909],[1],[0],[0],[1.7668000000119264],"[""button_left_main""]",295.8444,297.8432,297.8432,297.8436,[],[],[],[],[],[],[],,297.8436,297.8437,-0.264999962,-0.285833359,0,0,0,,0,26,26,90,1,3,word,CAPITAL,cursive,capital_c.png,,,
,,,,32151,001,2025-10-16_21h06.54.726,HW_LDT_1,2024.2.4,Win32,60.24096386,,,,,,,,,,,,,,,,,,,,,,297.8447,298.0429,298.043,298.5428,,,,,,,,,,,,,,1.3163,1,,,,,,,,,,,,,,z,,,,,,,,,,,,,,,,28,1,298.5435,299.8603,,0,[-0.3466666539510091],[-0.2658333460489909],[1],[0],[0],[1.3162999999970566],"[""button_left_main""]",299.8604,301.8599,301.8599,304.2268,[-0.3350000063578288],[-0.32083333333333336],[1],[0],[0],[2.3665000000000305],"[""button_left_probe""]",,304.2268,304.227,-0.335000006,-0.320833333,1,0,0,,0,27,27,65,1,3,TL,resufal,print,resufal_p.png,,,
,,,,32151,001,2025-10-16_21h06.54.726,HW_LDT_1,2024.2.4,Win32,60.24096386,,,,,,,,,,,,,,,,,,,,,,304.2277,304.4265,304.4265,304.9267,,,,,,,,,,,,,,2.1323,1,,,,,,,,,,,,,,z,,,,,,,,,,,,,,,,29,0,304.9271,307.0599,,0,[-0.27833331425984703],[-0.3091666539510091],[1],[0],[0],[2.1323000000119237],"[""button_left_main""]",307.0599,309.0598,309.0598,309.0605,[],[],[],[],[],[],[],,309.0605,309.0606,-0.278333314,-0.309166654,0,0,0,,0,28,28,12,1,3,RL,formuke,cursive,formuke_c.png,,,
,,,,32151,001,2025-10-16_21h06.54.726,HW_LDT_1,2024.2.4,Win32,60.24096386,,,,,,,,,,,,,,,,,,,,,,309.0615,309.2611,309.2611,309.7624,,,,,,,,,,,,,,1.1331,1,,,,,,,,,,,,,,m,,,,,,,,,,,,,,,,30,0,309.7629,310.8964,,0,[0.218333371480306],[-0.2991666793823242],[1],[0],[0],[1.1331000000089944],"[""button_right_main""]",310.8965,312.8948,312.8949,312.8949,[],[],[],[],[],[],[],,312.895,312.895,0.090000025,-0.257500013,0,0,0,,0,29,29,139,1,3,word,REGULAR,print,regular_p.png,,,
,,,,32151,001,2025-10-16_21h06.54.726,HW_LDT_1,2024.2.4,Win32,60.24096386,,,,,,,,,,,,,,,,,,,,,,312.8959,313.0953,313.0953,313.5952,,,,,,,,,,,,,,1.7804,1,,,,,,,,,,,,,,z,,,,,,,,,,,,,,,,31,0,313.5956,315.3764,,0,[-0.3258333206176758],[-0.30333334604899087],[1],[0],[0],[1.7804000000059546],"[""button_left_main""]",315.3766,317.3779,317.3779,317.378,[],[],[],[],[],[],[],,317.3781,317.3782,0.084166654,-0.240833346,0,0,0,,0,30,30,47,1,3,TL,elarobate,print,elarobate_p.png,,,
,,,,32151,001,2025-10-16_21h06.54.726,HW_LDT_1,2024.2.4,Win32,60.24096386,,,,,,,,,,,,,,,,,,,,,,317.3788,317.5769,317.5769,318.0764,,,,,,,,,,,,,,1.0195,1,,,,,,,,,,,,,,m,,,,,,,,,,,,,,,,32,0,318.0771,319.0971,,0,[0.3575000762939453],[-0.27999998728434244],[1],[0],[0],[1.0194999999999936],"[""button_right_main""]",319.0971,321.0931,321.0931,321.0933,[],[],[],[],[],[],[],,321.0933,321.0934,0.158333333,-0.2875,0,0,0,,0,31,31,97,1,3,word,COVERAGE,print,coverage_p.png,,,
,,,,32151,001,2025-10-16_21h06.54.726,HW_LDT_1,2024.2.4,Win32,60.24096386,,,,,,,,,,,,,,,,,,,,,,321.0943,321.2934,321.2938,321.793,,,,,,,,,,,,,,1.9522,1,,,,,,,,,,,,,,z,,,,,,,,,,,,,,,,33,0,321.7935,323.7461,,0,[-0.2833333333333333],[-0.2991666793823242],[1],[0],[0],[1.9521999999880677],"[""button_left_main""]",323.7462,325.7453,325.7454,325.7456,[],[],[],[],[],[],[],,325.7456,325.7456,0.152500025,-0.310833359,0,0,0,,0,32,32,63,1,3,TL,racidal,cursive,racidal_c.png,,,
,,,,32151,001,2025-10-16_21h06.54.726,HW_LDT_1,2024.2.4,Win32,60.24096386,,,,,,,,,,,,,,,,,,,,,,325.7464,325.945,325.9451,326.4459,,,,,,,,,,,,,,1.8648,1,,,,,,,,,,,,,,z,,,,,,,,,,,,,,,,34,1,326.4464,328.3115,,0,[-0.20750001271565754],[-0.2525000254313151],[1],[0],[0],[1.8647999999969898],"[""button_left_main""]",328.3116,330.3119,330.3119,331.9438,[-0.36000000635782875],[-0.3174999872843424],[1],[0],[0],[1.6318000000118786],"[""button_left_probe""]",,331.9439,331.944,-0.360000006,-0.317499987,1,0,0,,0,33,33,13,1,3,RL,helicage,cursive,helicage_c.png,,,
,,,,32151,001,2025-10-16_21h06.54.726,HW_LDT_1,2024.2.4,Win32,60.24096386,,,,,,,,,,,,,,,,,,,,,,331.9449,332.1445,332.1445,332.6436,,,,,,,,,,,,,,1.435,1,,,,,,,,,,,,,,m,,,,,,,,,,,,,,,,35,1,332.6442,334.0795,,0,[0.3675000508626302],[-0.25750001271565753],[1],[0],[0],[1.4350000000000023],"[""button_right_main""]",334.0796,336.0774,336.0775,337.2124,[0.3441666920979818],[-0.2875],[1],[0],[0],[1.1344000000059395],"[""button_right_probe""]",,337.2125,337.2125,0.344166692,-0.2875,1,0,0,,0,34,34,113,1,3,word,LITERAL,print,literal_p.png,,,
,,,,32151,001,2025-10-16_21h06.54.726,HW_LDT_1,2024.2.4,Win32,60.24096386,,,,,,,,,,,,,,,,,,,,,,337.2133,337.4104,337.4104,337.9121,,,,,,,,,,,,,,1.6174,1,,,,,,,,,,,,,,z,,,,,,,,,,,,,,,,36,0,337.9125,339.5304,,0,[-0.33916667302449544],[-0.28583335876464844],[1],[0],[0],[1.6173999999911075],"[""button_left_main""]",339.5305,341.5304,341.5304,341.5305,[],[],[],[],[],[],[],,341.5305,341.5306,-0.3125,-0.3,0,0,0,,0,35,35,25,1,3,RL,retupar,print,retupar_p.png,,,
,,,,32151,001,2025-10-16_21h06.54.726,HW_LDT_1,2024.2.4,Win32,60.24096386,,,,,,,,,,,,,,,,,,,,,,341.5314,341.7298,341.7298,342.2272,,,,,,,,,,,,,,1.2488,1,,,,,,,,,,,,,,z,,,,,,,,,,,,,,,,37,0,342.2279,343.4771,,0,[-0.4433333396911621],[-0.30083332061767576],[1],[0],[0],[1.2487999999970043],"[""button_left_main""]",343.4772,345.4774,345.4775,345.4779,[],[],[],[],[],[],[],,345.4779,345.4781,-0.086666679,-0.279166667,0,0,0,,0,36,36,66,1,3,TL,retalive,cursive,retalive_c.png,,,
,,,,32151,001,2025-10-16_21h06.54.726,HW_LDT_1,2024.2.4,Win32,60.24096386,,,,,,,,,,,,,,,,,,,,,,345.4788,345.6777,345.6777,346.1775,,,,,,,,,,,,,,1.0017,1,,,,,,,,,,,,,,m,,,,,,,,,,,,,,,,38,0,346.1781,347.1801,,0,[0.3133333841959635],[-0.25833333333333336],[1],[0],[0],[1.001699999988091],"[""button_right_main""]",347.1801,349.1791,349.1791,349.1793,[],[],[],[],[],[],[],,349.1793,349.1793,0.264166705,-0.266666667,0,0,0,,0,37,37,94,1,3,word,CLINICAL,print,clinical_p.png,,,
,,,,32151,001,2025-10-16_21h06.54.726,HW_LDT_1,2024.2.4,Win32,60.24096386,,,,,,,,,,,,,,,,,,,,,,349.1801,349.3795,349.3796,349.8775,,,,,,,,,,,,,,1.6851,1,,,,,,,,,,,,,,m,,,,,,,,,,,,,,,,39,0,349.8782,351.5637,,0,[0.2791666666666667],[-0.2875],[1],[0],[0],[1.6851000000089584],"[""button_right_main""]",351.5638,353.561,353.561,353.5612,[],[],[],[],[],[],[],,353.5612,353.5613,0.057500013,-0.273333359,0,0,0,,0,38,38,144,1,3,word,RESIDENT,cursive,resident_c.png,,,
,,,,32151,001,2025-10-16_21h06.54.726,HW_LDT_1,2024.2.4,Win32,60.24096386,,,,,,,,,,,,,,,,,,,,,,353.5622,353.7619,353.7619,354.2614,,,,,,,,,,,,,,0.9487,1,,,,,,,,,,,,,,m,,,,,,,,,,,,,,,,40,0,354.2619,355.2112,,0,[0.41583340962727866],[-0.32916666666666666],[1],[0],[0],[0.9487000000029866],"[""button_right_main""]",355.2113,357.2109,357.2109,357.211,[],[],[],[],[],[],[],,357.2111,357.2111,0.2125,-0.306666692,0,0,0,,0,39,39,98,1,3,word,CRIMINAL,print,criminal_p.png,,,
,,,,32151,001,2025-10-16_21h06.54.726,HW_LDT_1,2024.2.4,Win32,60.24096386,,,,,,,,,,,,,,,,,,,,,,357.212,357.4137,357.4137,357.9109,,,,,,,,,,,,,,1.2988,1,,,,,,,,,,,,,,z,,,,,,,,,,,,,,,,41,0,357.9117,359.211,,0,[-0.30083332061767576],[-0.30333334604899087],[1],[0],[0],[1.2988000000119087],"[""button_left_main""]",359.2111,361.2112,361.2112,361.2114,[],[],[],[],[],[],[],,361.2115,361.2116,-0.277499994,-0.315833346,0,0,0,,0,40,40,26,1,3,RL,repifion,print,repifion_p.png,,,
,,,,32151,001,2025-10-16_21h06.54.726,HW_LDT_1,2024.2.4,Win32,60.24096386,,,,,,,,,,,,,,,,,,,,,,361.2125,361.4123,361.4124,361.9113,,,,,,,,,,,,,,1.8996,1,,,,,,,,,,,,,,m,,,,,,,,,,,,,,,,42,1,361.9117,363.812,,0,[0.30416666666666664],[-0.2733333587646484],[1],[0],[0],[1.8995999999940523],"[""button_right_main""]",363.8121,365.8112,365.8112,367.5977,[-0.425],[-0.28250001271565756],[1],[0],[0],[1.786299999997027],"[""button_left_probe""]",,367.5977,367.5978,-0.425,-0.282500013,1,0,0,,0,41,41,143,1,3,word,REMOVAL,cursive,removal_c.png,,,
,,,,32151,001,2025-10-16_21h06.54.726,HW_LDT_1,2024.2.4,Win32,60.24096386,,,,,,,,,,,,,,,,,,,,,,367.5986,367.7951,367.7952,368.2959,,,,,,,,,,,,,,1.6334,1,,,,,,,,,,,,,,z,,,,,,,,,,,,,,,,43,0,368.2963,369.93,,0,[-0.35833333333333334],[-0.2650000254313151],[1],[0],[0],[1.6333999999910702],"[""button_left_main""]",369.9302,371.9281,371.9284,371.9285,[],[],[],[],[],[],[],,371.9286,371.9286,-0.375,-0.244166692,0,0,0,,0,42,42,30,1,3,RL,strapely,print,strapely_p.png,,,
,,,,32151,001,2025-10-16_21h06.54.726,HW_LDT_1,2024.2.4,Win32,60.24096386,,,,,,,,,,,,,,,,,,,,,,371.9295,372.1295,372.1295,372.6281,,,,,,,,,,,,,,1.9825,1,,,,,,,,,,,,,,z,,,,,,,,,,,,,,,,44,0,372.6288,374.6117,,0,[-0.44166666666666665],[-0.32999998728434243],[1],[0],[0],[1.982500000000016],"[""button_left_main""]",374.612,376.6141,376.6141,376.6143,[],[],[],[],[],[],[],,376.6143,376.6143,-0.065833346,-0.294166692,0,0,0,,0,43,43,1,1,3,RL,bewoted,cursive,bewoted_c.png,,,
,,,,32151,001,2025-10-16_21h06.54.726,HW_LDT_1,2024.2.4,Win32,60.24096386,,,,,,,,,,,,,,,,,,,,,,376.6151,376.8117,376.8117,377.314,,,,,,,,,,,,,,1.2798,1,,,,,,,,,,,,,,z,,,,,,,,,,,,,,,,45,0,377.3144,378.5947,,0,[-0.325],[-0.2691666920979818],[1],[0],[0],[1.2797999999970102],"[""button_left_main""]",378.5948,380.595,380.5951,380.5952,[],[],[],[],[],[],[],,380.5956,380.5956,-0.325,-0.269166692,0,0,0,,0,44,44,56,1,3,TL,meromy,print,meromy_p.png,,,
,,,,32151,001,2025-10-16_21h06.54.726,HW_LDT_1,2024.2.4,Win32,60.24096386,,,,,,,,,,,,,,,,,,,,,,380.5964,380.7953,380.7953,381.295,,,,,,,,,,,,,,1.1356,1,,,,,,,,,,,,,,z,,,,,,,,,,,,,,,,46,0,381.2958,382.4318,,0,[-0.3941666603088379],[-0.2650000254313151],[1],[0],[0],[1.1355999999940423],"[""button_left_main""]",382.4318,384.4287,384.429,384.4291,[],[],[],[],[],[],[],,384.4291,384.4292,-0.38083334,-0.279166667,0,0,0,,0,45,45,8,1,3,RL,cocewage,print,cocewage_p.png,,,
,,,,32151,001,2025-10-16_21h06.54.726,HW_LDT_1,2024.2.4,Win32,60.24096386,,,,,,,,,,,,,,,,,,,,,,384.4301,384.6291,384.6291,385.1288,,,,,,,,,,,,,,1.8665,1,,,,,,,,,,,,,,z,,,,,,,,,,,,,,,,47,1,385.1293,386.9962,,0,[-0.3191666603088379],[-0.3275000254313151],[1],[0],[0],[1.8665000000000305],"[""button_left_main""]",386.9965,388.9954,388.9955,390.6292,[-0.3241666475931803],[-0.31416670481363934],[1],[0],[0],[1.6332000000030007],"[""button_left_probe""]",,390.6294,390.6294,-0.324166648,-0.314166705,1,0,0,,0,46,46,5,1,3,RL,capefory,cursive,capefory_c.png,,,
,,,,32151,001,2025-10-16_21h06.54.726,HW_LDT_1,2024.2.4,Win32,60.24096386,,,,,,,,,,,,,,,,,,,,,,390.6303,390.8308,390.8309,391.3288,,,,,,,,,,,,,,0.9856,1,,,,,,,,,,,,,,m,,,,,,,,,,,,,,,,48,0,391.3291,392.3151,,0,[0.2916666666666667],[-0.29833335876464845],[1],[0],[0],[0.985599999994065],"[""button_right_main""]",392.3151,394.3123,394.3123,394.3125,[],[],[],[],[],[],[],,394.3125,394.3126,0.0375,-0.238333321,0,0,0,,0,47,47,131,1,3,word,POPULAR,print,popular_p.png,,,
,,,,32151,001,2025-10-16_21h06.54.726,HW_LDT_1,2024.2.4,Win32,60.24096386,,,,,,,,,,,,,,,,,,,,,,394.3136,394.5125,394.513,395.0122,,,,,,,,,,,,,,2.8515,0,,,,,,,,,,,,,,m,,,,,,,,,,,,,,,,49,0,395.0127,397.8648,,0,[-0.35833333333333334],[-0.343333371480306],[1],[0],[0],[2.851500000000044],"[""button_left_main""]",397.8648,399.8625,399.8626,399.8631,[],[],[],[],[],[],[],,399.8631,399.8632,0.008333333,-0.396666654,0,0,0,,0,48,48,109,1,3,word,GRATEFUL,cursive,grateful_c.png,,,
,,,,32151,001,2025-10-16_21h06.54.726,HW_LDT_1,2024.2.4,Win32,60.24096386,,,,,,,,,,,,,,,,,,,,,,399.8642,400.0625,400.0626,400.5628,,,,,,,,,,,,,,1.7512,1,,,,,,,,,,,,,,z,,,,,,,,,,,,,,,,50,0,400.5632,402.3149,,0,[-0.27333332697550455],[-0.30416666666666664],[1],[0],[0],[1.7512000000029957],"[""button_left_main""]",402.3149,404.3124,404.3124,404.3125,[],[],[],[],[],[],[],,404.3125,404.3127,-0.273333327,-0.304166667,0,0,0,,0,49,49,27,1,3,RL,recile,print,recile_p.png,,,
,,,,32151,001,2025-10-16_21h06.54.726,HW_LDT_1,2024.2.4,Win32,60.24096386,,,,,,,,,,,,,,,,,,,,,,404.3138,404.5124,404.5125,405.0123,,,,,,,,,,,,,,1.7356,1,,,,,,,,,,,,,,z,,,,,,,,,,,,,,,,51,0,405.0127,406.7487,,0,[-0.32333332697550454],[-0.28583335876464844],[1],[0],[0],[1.735600000008958],"[""button_left_main""]",406.7488,408.7455,408.7456,408.746,[],[],[],[],[],[],[],,408.746,408.746,-0.073333295,-0.331666692,0,0,0,,0,50,50,35,1,3,TL,cateferia,print,cateferia_p.png,,,
,,,,32151,001,2025-10-16_21h06.54.726,HW_LDT_1,2024.2.4,Win32,60.24096386,,,,,,,,,,,,,,,,,,,,,,408.7469,408.9475,408.9476,409.4466,,,,,,,,,,,,,,1.3674,1,,,,,,,,,,,,,,m,,,,,,,,,,,,,,,,52,0,409.4471,410.815,,0,[0.3258333841959635],[-0.27250003814697266],[1],[0],[0],[1.3674000000059436],"[""button_right_main""]",410.815,412.8125,412.8125,412.813,[],[],[],[],[],[],[],,412.813,412.8132,0.069166692,-0.254166667,0,0,0,,0,51,51,130,1,3,word,POLICY,print,policy_p.png,,,
,,,,32151,001,2025-10-16_21h06.54.726,HW_LDT_1,2024.2.4,Win32,60.24096386,,,,,,,,,,,,,,,,,,,,,,412.8141,413.0128,413.0128,413.5148,,,,,,,,,,,,,,0.9331,1,,,,,,,,,,,,,,m,,,,,,,,,,,,,,,,53,0,413.5152,414.4487,,0,[0.29833335876464845],[-0.305833371480306],[1],[0],[0],[0.9330999999940559],"[""button_right_main""]",414.4489,416.4462,416.4463,416.4466,[],[],[],[],[],[],[],,416.4467,416.4467,0.227500025,-0.295833333,0,0,0,,0,52,52,124,1,3,word,NUMERICAL,print,numerical_p.png,,,
,,,,32151,001,2025-10-16_21h06.54.726,HW_LDT_1,2024.2.4,Win32,60.24096386,,,,,,,,,,,,,,,,,,,,,,416.4475,416.6484,416.6484,417.1463,,,,,,,,,,,,,,1.0493,1,,,,,,,,,,,,,,z,,,,,,,,,,,,,,,,54,1,417.1467,418.1965,,0,[-0.27833331425984703],[-0.24666665395100912],[1],[0],[0],[1.0493000000118968],"[""button_left_main""]",418.1965,420.1959,420.196,421.9478,[0.31666666666666665],[-0.29833335876464845],[1],[0],[0],[1.75180000001194],"[""button_right_probe""]",,421.9479,421.948,0.316666667,-0.298333359,1,0,0,,0,53,53,67,1,3,TL,retome,print,retome_p.png,,,
,,,,32151,001,2025-10-16_21h06.54.726,HW_LDT_1,2024.2.4,Win32,60.24096386,,,,,,,,,,,,,,,,,,,,,,421.9487,422.1464,422.1464,422.6468,,,,,,,,,,,,,,2.0842,1,,,,,,,,,,,,,,m,,,,,,,,,,,,,,,,55,0,422.6471,424.7318,,0,[0.30583330790201824],[-0.3391667048136393],[1],[0],[0],[2.0842000000029657],"[""button_right_main""]",424.7318,426.7297,426.7298,426.7298,[],[],[],[],[],[],[],,426.7298,426.7299,0.1,-0.314166705,0,0,0,,0,54,54,83,1,3,word,ANIMAL,cursive,animal_c.png,,,
,,,,32151,001,2025-10-16_21h06.54.726,HW_LDT_1,2024.2.4,Win32,60.24096386,,,,,,,,,,,,,,,,,,,,,,426.7307,426.9294,426.9295,427.4295,,,,,,,,,,,,,,1.5661,1,,,,,,,,,,,,,,z,,,,,,,,,,,,,,,,56,0,427.4299,428.9964,,0,[-0.32916666666666666],[-0.29833335876464845],[1],[0],[0],[1.5661000000089302],"[""button_left_main""]",428.9964,430.9964,430.9965,430.9966,[],[],[],[],[],[],[],,430.9966,430.9967,0.036666679,-0.346666654,0,0,0,,0,55,55,62,1,3,TL,prodive,print,prodive_p.png,,,
,,,,32151,001,2025-10-16_21h06.54.726,HW_LDT_1,2024.2.4,Win32,60.24096386,,,,,,,,,,,,,,,,,,,,,,430.9976,431.1966,431.1967,431.6965,,,,,,,,,,,,,,1.4662,1,,,,,,,,,,,,,,z,,,,,,,,,,,,,,,,57,1,431.6969,433.1633,,0,[-0.36999998092651365],[-0.3358333587646484],[1],[0],[0],[1.4662000000030275],"[""button_left_main""]",433.1634,435.1631,435.1631,436.1326,[0.25166670481363934],[-0.31166667938232423],[1],[0],[0],[0.9691999999880636],"[""button_right_probe""]",,436.1327,436.1327,0.251666705,-0.311666679,1,0,0,,0,56,56,33,1,3,TL,adsivory,print,adsivory_p.png,,,
,,,,32151,001,2025-10-16_21h06.54.726,HW_LDT_1,2024.2.4,Win32,60.24096386,,,,,,,,,,,,,,,,,,,,,,436.1337,436.3339,436.3339,436.8315,,,,,,,,,,,,,,1.2169,1,,,,,,,,,,,,,,z,,,,,,,,,,,,,,,,58,0,436.8318,438.0491,,0,[-0.38999999364217125],[-0.27999998728434244],[1],[0],[0],[1.2168999999910284],"[""button_left_main""]",438.0491,440.0474,440.0475,440.0476,[],[],[],[],[],[],[],,440.0476,440.0476,0.042499987,-0.263333321,0,0,0,,0,57,57,9,1,3,RL,docirant,print,docirant_p.png,,,
,,,,32151,001,2025-10-16_21h06.54.726,HW_LDT_1,2024.2.4,Win32,60.24096386,,,,,,,,,,,,,,,,,,,,,,440.0486,440.2468,440.2468,440.747,,,,,,,,,,,,,,1.4157,1,,,,,,,,,,,,,,z,,,,,,,,,,,,,,,,59,1,440.7475,442.1635,,0,[-0.26833333969116213],[-0.28250001271565756],[1],[0],[0],[1.4156999999880782],"[""button_left_main""]",442.1635,444.164,444.164,444.9796,[0.2950000762939453],[-0.30416666666666664],[1],[0],[0],[0.8154000000059796],"[""button_right_probe""]",,444.9797,444.9798,0.295000076,-0.304166667,1,0,0,,0,58,58,53,1,3,TL,marnigal,print,marnigal_p.png,,,
,,,,32151,001,2025-10-16_21h06.54.726,HW_LDT_1,2024.2.4,Win32,60.24096386,,,,,,,,,,,,,,,,,,,,,,444.9806,445.1812,445.1813,445.6801,,,,,,,,,,,,,,1.299,1,,,,,,,,,,,,,,z,,,,,,,,,,,,,,,,60,0,445.6804,446.9799,,0,[-0.4041666666666667],[-0.27999998728434244],[1],[0],[0],[1.2989999999999782],"[""button_left_main""]",446.9799,448.9804,448.9804,448.9805,[],[],[],[],[],[],[],,448.9806,448.9806,-0.093333308,-0.313333321,0,0,0,,0,59,59,55,1,3,TL,mecidine,print,mecidine_p.png,,,
,,,,32151,001,2025-10-16_21h06.54.726,HW_LDT_1,2024.2.4,Win32,60.24096386,,,,,,,,,,,,,,,,,,,,,,448.9815,449.1806,449.1806,449.6806,,,,,,,,,,,,,,1.0986,1,,,,,,,,,,,,,,z,,,,,,,,,,,,,,,,61,0,449.6811,450.7799,,0,[-0.26416664123535155],[-0.3150000254313151],[1],[0],[0],[1.0985999999940645],"[""button_left_main""]",450.78,452.78,452.78,452.7801,[],[],[],[],[],[],[],,452.7802,452.7803,-0.139166641,-0.297500038,0,0,0,,0,60,60,64,1,3,TL,radiply,print,radiply_p.png,,,
,,,,32151,001,2025-10-16_21h06.54.726,HW_LDT_1,2024.2.4,Win32,60.24096386,,,,,,,,,,,,,,,,,,,,,,452.781,452.9805,452.9805,453.4809,,,,,,,,,,,,,,1.3157,1,,,,,,,,,,,,,,z,,,,,,,,,,,,,,,,62,0,453.4813,454.7976,,0,[-0.29916664759318035],[-0.31166667938232423],[1],[0],[0],[1.3157000000030052],"[""button_left_main""]",454.7976,456.7974,456.7974,456.7976,[],[],[],[],[],[],[],,456.7977,456.7978,-0.095833333,-0.301666705,0,0,0,,0,61,61,19,1,3,RL,opcifal,cursive,opcifal_c.png,,,
,,,,32151,001,2025-10-16_21h06.54.726,HW_LDT_1,2024.2.4,Win32,60.24096386,,,,,,,,,,,,,,,,,,,,,,456.7988,456.9975,456.9975,457.4971,,,,,,,,,,,,,,1.3995,1,,,,,,,,,,,,,,z,,,,,,,,,,,,,,,,63,0,457.4977,458.8977,,0,[-0.29583333333333334],[-0.2941666920979818],[1],[0],[0],[1.3995000000001028],"[""button_left_main""]",458.8977,460.8975,460.8975,460.8976,[],[],[],[],[],[],[],,460.8977,460.8978,-0.029999987,-0.311666679,0,0,0,,0,62,62,21,1,3,RL,potugar,print,potugar_p.png,,,
,,,,32151,001,2025-10-16_21h06.54.726,HW_LDT_1,2024.2.4,Win32,60.24096386,,,,,,,,,,,,,,,,,,,,,,460.8988,461.0991,461.0991,461.5994,,,,,,,,,,,,,,1.3321,1,,,,,,,,,,,,,,m,,,,,,,,,,,,,,,,64,0,461.5998,462.9324,,0,[0.2974999745686849],[-0.30083332061767576],[1],[0],[0],[1.3320999999939431],"[""button_right_main""]",462.9324,464.931,464.931,464.9312,[],[],[],[],[],[],[],,464.9312,464.9312,-0.002499962,-0.292499987,0,0,0,,0,63,63,82,1,3,word,AMATEUR,print,amateur_p.png,,,
,,,,32151,001,2025-10-16_21h06.54.726,HW_LDT_1,2024.2.4,Win32,60.24096386,,,,,,,,,,,,,,,,,,,,,,464.9321,465.1308,465.1308,465.6309,,,,,,,,,,,,,,3.4489,1,,,,,,,,,,,,,,z,,,,,,,,,,,,,,,,65,1,465.6315,469.0808,,0,[-0.29416666030883787],[-0.28500003814697267],[1],[0],[0],[3.4488999999909993],"[""button_left_main""]",469.0809,471.081,471.081,472.281,[-0.3183333396911621],[-0.2833333333333333],[1],[0],[0],[1.199700000002963],"[""button_left_probe""]",,472.2811,472.2812,-0.31833334,-0.283333333,1,0,0,,0,64,64,75,1,3,TL,sloten,cursive,sloten_c.png,,,
,,,,32151,001,2025-10-16_21h06.54.726,HW_LDT_1,2024.2.4,Win32,60.24096386,,,,,,,,,,,,,,,,,,,,,,472.2822,472.4807,472.4809,472.981,,,,,,,,,,,,,,1.4994,1,,,,,,,,,,,,,,z,,,,,,,,,,,,,,,,66,0,472.9815,474.4812,,0,[-0.28666664759318033],[-0.3150000254313151],[1],[0],[0],[1.4994000000059486],"[""button_left_main""]",474.4813,476.4814,476.4814,476.4815,[],[],[],[],[],[],[],,476.4815,476.4816,-0.145000013,-0.323333359,0,0,0,,0,65,65,3,1,3,RL,bebine,cursive,bebine_c.png,,,
,,,,32151,001,2025-10-16_21h06.54.726,HW_LDT_1,2024.2.4,Win32,60.24096386,,,,,,,,,,,,,,,,,,,,,,476.4827,476.6815,476.6815,477.1812,,,,,,,,,,,,,,2.2816,0,,,,,,,,,,,,,,m,,,,,,,,,,,,,,,,67,0,477.1817,479.464,,0,[-0.3416666666666667],[-0.28500003814697267],[1],[0],[0],[2.281599999994114],"[""button_left_main""]",479.464,481.4648,481.4648,481.465,[],[],[],[],[],[],[],,481.465,481.4651,-0.325,-0.291666667,0,0,0,,0,66,66,140,1,3,word,RELATIVE,cursive,relative_c.png,,,
,,,,32151,001,2025-10-16_21h06.54.726,HW_LDT_1,2024.2.4,Win32,60.24096386,,,,,,,,,,,,,,,,,,,,,,481.4661,481.6652,481.6653,482.1641,,,,,,,,,,,,,,1.9353,1,,,,,,,,,,,,,,m,,,,,,,,,,,,,,,,68,0,482.1646,484.1003,,0,[0.29583333333333334],[-0.30333334604899087],[1],[0],[0],[1.935300000011921],"[""button_right_main""]",484.1004,486.0982,486.0982,486.0983,[],[],[],[],[],[],[],,486.0984,486.0984,-0.039166641,-0.272500038,0,0,0,,0,67,67,147,1,3,word,ROMANTIC,cursive,romantic_c.png,,,
,,,,32151,001,2025-10-16_21h06.54.726,HW_LDT_1,2024.2.4,Win32,60.24096386,,,,,,,,,,,,,,,,,,,,,,486.0994,486.2982,486.2982,486.7982,,,,,,,,,,,,,,2.2323,1,,,,,,,,,,,,,,z,,,,,,,,,,,,,,,,69,0,486.7986,489.0312,,0,[-0.3174999872843424],[-0.31166667938232423],[1],[0],[0],[2.2322999999970534],"[""button_left_main""]",489.0313,491.0316,491.0317,491.0322,[],[],[],[],[],[],[],,491.0323,491.0323,-0.30583334,-0.315833346,0,0,0,,0,68,68,57,1,3,TL,moredate,cursive,moredate_c.png,,,
,,,,32151,001,2025-10-16_21h06.54.726,HW_LDT_1,2024.2.4,Win32,60.24096386,,,,,,,,,,,,,,,,,,,,,,491.0331,491.2312,491.2312,491.7318,,,,,,,,,,,,,,1.0676,1,,,,,,,,,,,,,,m,,,,,,,,,,,,,,,,70,0,491.7323,492.8003,,0,[0.2825000762939453],[-0.330833371480306],[1],[0],[0],[1.0675999999940586],"[""button_right_main""]",492.8003,494.8008,494.8008,494.8009,[],[],[],[],[],[],[],,494.801,494.801,-0.050833321,-0.270000013,0,0,0,,0,69,69,152,1,3,word,SPECIMEN,print,specimen_p.png,,,
,,,,32151,001,2025-10-16_21h06.54.726,HW_LDT_1,2024.2.4,Win32,60.24096386,,,,,,,,,,,,,,,,,,,,,,494.8018,495,495.0001,495.4979,,,,,,,,,,,,,,1.1346,1,,,,,,,,,,,,,,z,,,,,,,,,,,,,,,,71,0,495.4982,496.6333,,0,[-0.2841666539510091],[-0.29083334604899086],[1],[0],[0],[1.134599999994066],"[""button_left_main""]",496.6333,498.6316,498.6316,498.6317,[],[],[],[],[],[],[],,498.6318,498.6318,-0.035833295,-0.310833359,0,0,0,,0,70,70,2,1,3,RL,betemit,print,betemit_p.png,,,
,,,,32151,001,2025-10-16_21h06.54.726,HW_LDT_1,2024.2.4,Win32,60.24096386,,,,,,,,,,,,,,,,,,,,,,498.6327,498.8332,498.8332,499.3318,,,,,,,,,,,,,,0.9522,1,,,,,,,,,,,,,,m,,,,,,,,,,,,,,,,72,1,499.3323,500.2851,,0,[0.2825000762939453],[-0.3125],[1],[0],[0],[0.9521999999880109],"[""button_right_main""]",500.2852,502.2818,502.2818,503.2512,[0.324166742960612],[-0.31333332061767577],[1],[0],[0],[0.9691000000088934],"[""button_right_probe""]",,503.2512,503.2514,0.324166743,-0.313333321,1,0,0,,0,71,71,137,1,3,word,RAPIDLY,print,rapidly_p.png,,,
,,,,32151,001,2025-10-16_21h06.54.726,HW_LDT_1,2024.2.4,Win32,60.24096386,,,,,,,,,,,,,,,,,,,,,,503.2522,503.4483,503.4483,503.9488,,,,,,,,,,,,,,2.3487,0,,,,,,,,,,,,,,m,,,,,,,,,,,,,,,,73,1,503.9494,506.2988,,0,[-0.3850000063578288],[-0.2941666920979818],[1],[0],[0],[2.348700000002964],"[""button_left_main""]",506.2989,508.2984,508.2985,509.3339,[-0.3366666475931803],[-0.3075000127156576],[1],[0],[0],[1.0354000000060068],"[""button_left_probe""]",,509.334,509.3341,-0.336666648,-0.307500013,1,0,0,,0,72,72,92,1,3,word,CATEGORY,cursive,category_c.png,,,
,,,,32151,001,2025-10-16_21h06.54.726,HW_LDT_1,2024.2.4,Win32,60.24096386,,,,,,,,,,,,,,,,,,,,,,509.335,509.532,509.532,510.032,,,,,,,,,,,,,,1.0822,1,,,,,,,,,,,,,,m,,,,,,,,,,,,,,,,74,0,510.0324,511.1151,,0,[0.31833330790201825],[-0.3383333206176758],[1],[0],[0],[1.082200000003013],"[""button_right_main""]",511.1151,513.1172,513.1172,513.1173,[],[],[],[],[],[],[],,513.1173,513.1174,0.052500025,-0.315000025,0,0,0,,0,73,73,134,1,3,word,QUALIFY,print,qualify_p.png,,,
,,,,32151,001,2025-10-16_21h06.54.726,HW_LDT_1,2024.2.4,Win32,60.24096386,,,,,,,,,,,,,,,,,,,,,,513.1181,513.3175,513.3176,513.8153,,,,,,,,,,,,,,2.2845,1,,,,,,,,,,,,,,z,,,,,,,,,,,,,,,,75,0,513.8159,516.1008,,0,[-0.2883333206176758],[-0.32250003814697265],[1],[0],[0],[2.28449999999998],"[""button_left_main""]",516.1008,518.0987,518.0988,518.0991,[],[],[],[],[],[],[],,518.0991,518.0992,-0.275,-0.324166679,0,0,0,,0,74,74,68,1,3,TL,revomal,cursive,revomal_c.png,,,
,,,,32151,001,2025-10-16_21h06.54.726,HW_LDT_1,2024.2.4,Win32,60.24096386,,,,,,,,,,,,,,,,,,,,,,518.1,518.2989,518.299,518.7987,,,,,,,,,,,,,,1.7188,1,,,,,,,,,,,,,,m,,,,,,,,,,,,,,,,76,0,518.7992,520.5186,,0,[0.31666666666666665],[-0.31000003814697263],[1],[0],[0],[1.7187999999970316],"[""button_right_main""]",520.5187,522.5161,522.5162,522.5163,[],[],[],[],[],[],[],,522.5164,522.5164,0.059166654,-0.238333321,0,0,0,,0,75,75,122,1,3,word,MOBILE,cursive,mobile_c.png,,,
,,,,32151,001,2025-10-16_21h06.54.726,HW_LDT_1,2024.2.4,Win32,60.24096386,,,,,,,,,,,,,,,,,,,,,,522.5174,522.7152,522.7153,523.2157,,,,,,,,,,,,,,1.502,1,,,,,,,,,,,,,,z,,,,,,,,,,,,,,,,77,0,523.2163,524.7186,,0,[-0.26999998092651367],[-0.2991666793823242],[1],[0],[0],[1.5019999999999527],"[""button_left_main""]",524.7187,526.7159,526.7159,526.7161,[],[],[],[],[],[],[],,526.7162,526.7163,0.108333333,-0.315833346,0,0,0,,0,76,76,38,1,3,TL,carnidal,print,carnidal_p.png,,,
,,,,32151,001,2025-10-16_21h06.54.726,HW_LDT_1,2024.2.4,Win32,60.24096386,,,,,,,,,,,,,,,,,,,,,,526.7171,526.9162,526.9162,527.4155,,,,,,,,,,,,,,1.4179,1,,,,,,,,,,,,,,z,,,,,,,,,,,,,,,,78,0,527.4158,528.834,,0,[-0.3991666475931803],[-0.27166665395100914],[1],[0],[0],[1.4178999999910502],"[""button_left_main""]",528.8342,530.8343,530.8343,530.8343,[],[],[],[],[],[],[],,530.8344,530.8345,0.029166667,-0.219166692,0,0,0,,0,77,77,32,1,3,TL,adacemy,print,adacemy_p.png,,,
,,,,32151,001,2025-10-16_21h06.54.726,HW_LDT_1,2024.2.4,Win32,60.24096386,,,,,,,,,,,,,,,,,,,,,,530.8354,531.0348,531.0348,531.533,,,,,,,,,,,,,,1.1675,1,,,,,,,,,,,,,,z,,,,,,,,,,,,,,,,79,0,531.5334,532.7014,,0,[-0.30499998728434247],[-0.3258333206176758],[1],[0],[0],[1.1675000000000182],"[""button_left_main""]",532.7014,534.6999,534.7,534.7001,[],[],[],[],[],[],[],,534.7001,534.7001,-0.2125,-0.315000025,0,0,0,,0,78,78,45,1,3,TL,dentisy,print,dentisy_p.png,,,
,,,,32151,001,2025-10-16_21h06.54.726,HW_LDT_1,2024.2.4,Win32,60.24096386,,,,,,,,,,,,,,,,,,,,,,534.701,534.8994,534.8994,535.3995,,,,,,,,,,,,,,2.1182,1,,,,,,,,,,,,,,m,,,,,,,,,,,,,,,,80,1,535.4001,537.5187,,0,[0.35333340962727866],[-0.29500001271565757],[1],[0],[0],[2.1182000000029575],"[""button_right_main""]",537.5188,539.5164,539.5164,541.0657,[-0.3],[-0.3233333587646484],[1],[0],[0],[1.5492000000028838],"[""button_left_probe""]",,541.0658,550.7831,-0.035833295,-0.404166667,1,0,0,,0,79,79,154,1,3,word,STORAGE,cursive,storage_c.png,break_done_button,,
,,,,32151,001,2025-10-16_21h06.54.726,HW_LDT_1,2024.2.4,Win32,60.24096386,,,,,,,,,,,,,,,,,,,,,,550.7842,550.983,550.983,551.4845,,,,,,,,,,,,,,2.1975,1,,,,,,,,,,,,,,z,,,,,,,,,,,,,,,,81,0,551.4849,553.6828,,0,[-0.3625],[-0.31000003814697263],[1],[0],[0],[2.197499999999991],"[""button_left_main""]",553.6829,555.6832,555.6833,555.6837,[],[],[],[],[],[],[],,555.6837,555.6838,-0.044166629,-0.169166692,0,0,0,,0,80,80,29,1,3,RL,selamor,cursive,selamor_c.png,,,
,,,,32151,001,2025-10-16_21h06.54.726,HW_LDT_1,2024.2.4,Win32,60.24096386,,,,,,,,,,,,,,,,,,,,,,555.6846,555.8832,555.8833,556.3834,,,,,,,,,,,,,,1.4187,1,,,,,,,,,,,,,,m,,,,,,,,,,,,,,,,82,0,556.384,557.8031,,0,[0.34083340962727865],[-0.2775000254313151],[1],[0],[0],[1.4187000000030139],"[""button_right_main""]",557.8031,559.8001,559.8001,559.8002,[],[],[],[],[],[],[],,559.8003,559.8004,-0.0875,-0.235000038,0,0,0,,0,81,81,86,1,3,word,BESIDE,cursive,beside_c.png,,,
,,,,32151,001,2025-10-16_21h06.54.726,HW_LDT_1,2024.2.4,Win32,60.24096386,,,,,,,,,,,,,,,,,,,,,,559.8013,560.0002,560.0003,560.5017,,,,,,,,,,,,,,1.0501,1,,,,,,,,,,,,,,m,,,,,,,,,,,,,,,,83,0,560.502,561.5525,,0,[0.3150000254313151],[-0.27166665395100914],[1],[0],[0],[1.0500999999940177],"[""button_right_main""]",561.5526,563.5498,563.5498,563.5501,[],[],[],[],[],[],[],,563.5501,563.5501,0.008333333,-0.196666654,0,0,0,,0,82,82,156,1,3,word,TRIBUTE,print,tribute_p.png,,,
,,,,32151,001,2025-10-16_21h06.54.726,HW_LDT_1,2024.2.4,Win32,60.24096386,,,,,,,,,,,,,,,,,,,,,,563.551,563.7502,563.7503,564.2503,,,,,,,,,,,,,,1.8158,1,,,,,,,,,,,,,,z,,,,,,,,,,,,,,,,84,0,564.2508,566.067,,0,[-0.34833332697550456],[-0.27166665395100914],[1],[0],[0],[1.8157999999970116],"[""button_left_main""]",566.0671,568.0668,568.0669,568.0674,[],[],[],[],[],[],[],,568.0675,568.0675,-0.073333295,-0.279166667,0,0,0,,0,83,83,28,1,3,RL,rovastic,cursive,rovastic_c.png,,,
,,,,32151,001,2025-10-16_21h06.54.726,HW_LDT_1,2024.2.4,Win32,60.24096386,,,,,,,,,,,,,,,,,,,,,,568.0686,568.2693,568.2694,568.7668,,,,,,,,,,,,,,1.2502,1,,,,,,,,,,,,,,z,,,,,,,,,,,,,,,,85,0,568.7673,570.0179,,0,[-0.2341666539510091],[-0.325],[1],[0],[0],[1.2502000000030193],"[""button_left_main""]",570.018,572.0174,572.0175,572.0176,[],[],[],[],[],[],[],,572.0177,572.0177,-0.009999975,-0.291666667,0,0,0,,0,84,84,0,1,3,RL,afaneur,print,afaneur_p.png,,,
,,,,32151,001,2025-10-16_21h06.54.726,HW_LDT_1,2024.2.4,Win32,60.24096386,,,,,,,,,,,,,,,,,,,,,,572.0186,572.2176,572.2176,572.719,,,,,,,,,,,,,,1.0306,1,,,,,,,,,,,,,,m,,,,,,,,,,,,,,,,86,0,572.7194,573.7504,,0,[0.3333333333333333],[-0.3150000254313151],[1],[0],[0],[1.030600000008917],"[""button_right_main""]",573.7504,575.75,575.7502,575.7505,[],[],[],[],[],[],[],,575.7506,575.7506,-0.004999987,-0.286666679,0,0,0,,0,85,85,125,1,3,word,OPERATOR,print,operator_p.png,,,
,,,,32151,001,2025-10-16_21h06.54.726,HW_LDT_1,2024.2.4,Win32,60.24096386,,,,,,,,,,,,,,,,,,,,,,575.7514,575.952,575.952,576.4504,,,,,,,,,,,,,,1.4191,1,,,,,,,,,,,,,,m,,,,,,,,,,,,,,,,87,0,576.4507,577.8702,,0,[0.3275000254313151],[-0.3258333206176758],[1],[0],[0],[1.4190999999939322],"[""button_right_main""]",577.8703,579.8672,579.8672,579.8672,[],[],[],[],[],[],[],,579.8672,579.8673,0.068333371,-0.298333359,0,0,0,,0,86,86,106,1,3,word,ELABORATE,print,elaborate_p.png,,,
,,,,32151,001,2025-10-16_21h06.54.726,HW_LDT_1,2024.2.4,Win32,60.24096386,,,,,,,,,,,,,,,,,,,,,,579.8684,580.0671,580.0672,580.5687,,,,,,,,,,,,,,1.9343,1,,,,,,,,,,,,,,z,,,,,,,,,,,,,,,,88,1,580.5691,582.5038,,0,[-0.3449999809265137],[-0.2866666793823242],[1],[0],[0],[1.934299999996938],"[""button_left_main""]",582.5039,584.5006,584.5007,585.3675,[-0.2983333269755046],[-0.3150000254313151],[1],[0],[0],[0.8666000000089298],"[""button_left_probe""]",,585.3676,585.3679,-0.298333327,-0.315000025,1,0,0,,0,87,87,6,1,3,RL,cenesony,cursive,cenesony_c.png,,,
,,,,32151,001,2025-10-16_21h06.54.726,HW_LDT_1,2024.2.4,Win32,60.24096386,,,,,,,,,,,,,,,,,,,,,,585.3688,585.5674,585.5675,586.0675,,,,,,,,,,,,,,3.251,0,,,,,,,,,,,,,,m,,,,,,,,,,,,,,,,89,0,586.0679,589.3192,,0,[-0.2791666666666667],[-0.32416667938232424],[1],[0],[0],[3.2509999999999764],"[""button_left_main""]",589.3193,591.3182,591.3182,591.3185,[],[],[],[],[],[],[],,591.3185,591.3185,-0.077499962,-0.303333346,0,0,0,,0,88,88,107,1,3,word,EVIDENT,cursive,evident_c.png,,,
,,,,32151,001,2025-10-16_21h06.54.726,HW_LDT_1,2024.2.4,Win32,60.24096386,,,,,,,,,,,,,,,,,,,,,,591.3194,591.5181,591.5181,592.0171,,,,,,,,,,,,,,1.9,1,,,,,,,,,,,,,,z,,,,,,,,,,,,,,,,90,0,592.0176,593.9179,,0,[-0.33083333969116213],[-0.2791666666666667],[1],[0],[0],[1.8999999999999773],"[""button_left_main""]",593.918,595.9175,595.9175,595.9177,[],[],[],[],[],[],[],,595.9178,595.9178,0.013333321,-0.260833359,0,0,0,,0,89,89,4,1,3,RL,cafigal,cursive,cafigal_c.png,,,
,,,,32151,001,2025-10-16_21h06.54.726,HW_LDT_1,2024.2.4,Win32,60.24096386,,,,,,,,,,,,,,,,,,,,,,595.9187,596.118,596.118,596.6201,,,,,,,,,,,,,,1.1833,1,,,,,,,,,,,,,,z,,,,,,,,,,,,,,,,91,0,596.6206,597.8042,,0,[-0.3541666666666667],[-0.31916669209798176],[1],[0],[0],[1.1832999999970752],"[""button_left_main""]",597.8043,599.801,599.8011,599.8011,[],[],[],[],[],[],[],,599.8012,599.8013,-0.084999975,-0.260000038,0,0,0,,0,90,90,60,1,3,TL,panert,print,panert_p.png,,,
,,,,32151,001,2025-10-16_21h06.54.726,HW_LDT_1,2024.2.4,Win32,60.24096386,,,,,,,,,,,,,,,,,,,,,,599.8021,600.0013,600.0013,600.5009,,,,,,,,,,,,,,1.4662,0,,,,,,,,,,,,,,m,,,,,,,,,,,,,,,,92,0,600.5015,601.9681,,0,[-0.290833314259847],[-0.2991666793823242],[1],[0],[0],[1.4661999999880209],"[""button_left_main""]",601.9681,603.9679,603.968,603.9681,[],[],[],[],[],[],[],,603.9681,603.9681,0.000833321,-0.235833359,0,0,0,,0,91,91,120,1,3,word,MILITARY,cursive,military_c.png,,,
,,,,32151,001,2025-10-16_21h06.54.726,HW_LDT_1,2024.2.4,Win32,60.24096386,,,,,,,,,,,,,,,,,,,,,,603.9692,604.1678,604.1679,604.6677,,,,,,,,,,,,,,1.7193,1,,,,,,,,,,,,,,m,,,,,,,,,,,,,,,,93,0,604.6681,606.3876,,0,[0.3458333333333333],[-0.25666669209798176],[1],[0],[0],[1.7192999999970198],"[""button_right_main""]",606.3877,608.3846,608.3846,608.3848,[],[],[],[],[],[],[],,608.3848,608.3849,-0.040833346,-0.260833359,0,0,0,,0,92,92,148,1,3,word,SALINE,cursive,saline_c.png,,,
,,,,32151,001,2025-10-16_21h06.54.726,HW_LDT_1,2024.2.4,Win32,60.24096386,,,,,,,,,,,,,,,,,,,,,,608.3857,608.5847,608.5847,609.0866,,,,,,,,,,,,,,1.7639,1,,,,,,,,,,,,,,m,,,,,,,,,,,,,,,,94,0,609.0871,610.8514,,0,[0.2891666412353516],[-0.30833333333333335],[1],[0],[0],[1.7639000000059468],"[""button_right_main""]",610.8515,612.8535,612.8535,612.8537,[],[],[],[],[],[],[],,612.8537,612.8537,-0.019166629,-0.282500013,0,0,0,,0,93,93,84,1,3,word,BELOVED,cursive,beloved_c.png,,,
,,,,32151,001,2025-10-16_21h06.54.726,HW_LDT_1,2024.2.4,Win32,60.24096386,,,,,,,,,,,,,,,,,,,,,,612.8544,613.0517,613.0517,613.5516,,,,,,,,,,,,,,1.4177,1,,,,,,,,,,,,,,m,,,,,,,,,,,,,,,,95,0,613.552,614.9702,,0,[0.2825000762939453],[-0.3150000254313151],[1],[0],[0],[1.4176999999881446],"[""button_right_main""]",614.9702,616.9705,616.9706,616.9707,[],[],[],[],[],[],[],,616.9707,616.9708,0.002500025,-0.302500025,0,0,0,,0,94,94,151,1,3,word,SPECIFIC,print,specific_p.png,,,
,,,,32151,001,2025-10-16_21h06.54.726,HW_LDT_1,2024.2.4,Win32,60.24096386,,,,,,,,,,,,,,,,,,,,,,616.9717,617.1681,617.1681,617.6681,,,,,,,,,,,,,,1.5496,1,,,,,,,,,,,,,,z,,,,,,,,,,,,,,,,96,0,617.6684,619.2186,,0,[-0.3350000063578288],[-0.32916666666666666],[1],[0],[0],[1.5495999999941432],"[""button_left_main""]",619.2187,621.2184,621.2184,621.2185,[],[],[],[],[],[],[],,621.2186,621.2187,0.075833321,-0.272500038,0,0,0,,0,95,95,59,1,3,TL,paficic,cursive,paficic_c.png,,,
,,,,32151,001,2025-10-16_21h06.54.726,HW_LDT_1,2024.2.4,Win32,60.24096386,,,,,,,,,,,,,,,,,,,,,,621.2196,621.418,621.418,621.9182,,,,,,,,,,,,,,2.0495,1,,,,,,,,,,,,,,z,,,,,,,,,,,,,,,,97,0,621.9186,623.9686,,0,[-0.35499998728434246],[-0.2966666539510091],[1],[0],[0],[2.04950000000008],"[""button_left_main""]",623.9687,625.9683,625.9684,625.9686,[],[],[],[],[],[],[],,625.9686,625.9686,-0.049166679,-0.255833371,0,0,0,,0,96,96,72,1,3,TL,senmitent,print,senmitent_p.png,,,
,,,,32151,001,2025-10-16_21h06.54.726,HW_LDT_1,2024.2.4,Win32,60.24096386,,,,,,,,,,,,,,,,,,,,,,625.9696,626.1684,626.1684,626.6688,,,,,,,,,,,,,,2.6509,1,,,,,,,,,,,,,,m,,,,,,,,,,,,,,,,98,0,626.6693,629.3206,,0,[0.3016666412353516],[-0.27999998728434244],[1],[0],[0],[2.6509000000058904],"[""button_right_main""]",629.3207,631.3188,631.3188,631.3189,[],[],[],[],[],[],[],,631.319,631.3191,-0.036666679,-0.256666692,0,0,0,,0,97,97,145,1,3,word,RESUME,cursive,resume_c.png,,,
,,,,32151,001,2025-10-16_21h06.54.726,HW_LDT_1,2024.2.4,Win32,60.24096386,,,,,,,,,,,,,,,,,,,,,,631.3202,631.5185,631.5185,632.0185,,,,,,,,,,,,,,1.3674,1,,,,,,,,,,,,,,m,,,,,,,,,,,,,,,,99,0,632.0192,633.3869,,0,[0.2700000762939453],[-0.30166670481363933],[1],[0],[0],[1.3674000000060005],"[""button_right_main""]",633.387,635.3869,635.3871,635.3871,[],[],[],[],[],[],[],,635.3872,635.3873,-0.020000013,-0.235833359,0,0,0,,0,98,98,136,1,3,word,RADICAL,cursive,radical_c.png,,,
,,,,32151,001,2025-10-16_21h06.54.726,HW_LDT_1,2024.2.4,Win32,60.24096386,,,,,,,,,,,,,,,,,,,,,,635.388,635.5858,635.5858,636.0857,,,,,,,,,,,,,,0.9658,1,,,,,,,,,,,,,,m,,,,,,,,,,,,,,,,100,0,636.0862,637.0523,,0,[0.38916664123535155],[-0.280833371480306],[1],[0],[0],[0.9657999999969888],"[""button_right_main""]",637.0523,639.054,639.054,639.0542,[],[],[],[],[],[],[],,639.0542,639.0542,0.150833321,-0.254166667,0,0,0,,0,99,99,142,1,3,word,REMOTE,print,remote_p.png,,,
,,,,32151,001,2025-10-16_21h06.54.726,HW_LDT_1,2024.2.4,Win32,60.24096386,,,,,,,,,,,,,,,,,,,,,,639.0551,639.252,639.2521,639.7526,,,,,,,,,,,,,,0.951,1,,,,,,,,,,,,,,m,,,,,,,,,,,,,,,,101,0,639.7529,640.7044,,0,[0.3700000762939453],[-0.31083335876464846],[1],[0],[0],[0.9510000000000218],"[""button_right_main""]",640.7045,642.7025,642.7025,642.7027,[],[],[],[],[],[],[],,642.7027,642.7027,0.05,-0.232500013,0,0,0,,0,100,100,96,1,3,word,CONSIDER,print,consider_p.png,,,
,,,,32151,001,2025-10-16_21h06.54.726,HW_LDT_1,2024.2.4,Win32,60.24096386,,,,,,,,,,,,,,,,,,,,,,642.7034,642.9024,642.9024,643.4034,,,,,,,,,,,,,,1.6003,1,,,,,,,,,,,,,,z,,,,,,,,,,,,,,,,102,0,643.4038,645.0044,,0,[-0.36999998092651365],[-0.29249998728434246],[1],[0],[0],[1.6003000000118845],"[""button_left_main""]",645.0044,647.0039,647.004,647.0041,[],[],[],[],[],[],[],,647.0042,647.0042,-0.120000013,-0.314166705,0,0,0,,0,101,101,76,1,3,TL,stogare,cursive,stogare_c.png,,,
,,,,32151,001,2025-10-16_21h06.54.726,HW_LDT_1,2024.2.4,Win32,60.24096386,,,,,,,,,,,,,,,,,,,,,,647.0049,647.2025,647.2028,647.7022,,,,,,,,,,,,,,2.7511,1,,,,,,,,,,,,,,m,,,,,,,,,,,,,,,,103,0,647.7027,650.4541,,0,[0.38250007629394533],[-0.2841666539510091],[1],[0],[0],[2.7510999999940395],"[""button_right_main""]",650.4541,652.4527,652.4527,652.4529,[],[],[],[],[],[],[],,652.4529,652.4531,0.0375,-0.255833371,0,0,0,,0,102,102,128,1,3,word,PACIFIC,cursive,pacific_c.png,,,
,,,,32151,001,2025-10-16_21h06.54.726,HW_LDT_1,2024.2.4,Win32,60.24096386,,,,,,,,,,,,,,,,,,,,,,652.4539,652.6523,652.6524,653.1527,,,,,,,,,,,,,,1.4655,1,,,,,,,,,,,,,,z,,,,,,,,,,,,,,,,104,1,653.1532,654.619,,0,[-0.2824999809265137],[-0.2841666539510091],[1],[0],[0],[1.46550000000002],"[""button_left_main""]",654.6192,656.6191,656.6192,657.8222,[0.3541666666666667],[-0.31416670481363934],[1],[0],[0],[1.202900000006025],"[""button_right_probe""]",,657.8223,657.8224,0.354166667,-0.314166705,1,0,0,,0,103,103,74,1,3,TL,spemicen,print,spemicen_p.png,,,
,,,,32151,001,2025-10-16_21h06.54.726,HW_LDT_1,2024.2.4,Win32,60.24096386,,,,,,,,,,,,,,,,,,,,,,657.8233,658.0191,658.0192,658.5217,,,,,,,,,,,,,,1.2637,1,,,,,,,,,,,,,,m,,,,,,,,,,,,,,,,105,0,658.522,659.7861,,0,[0.3575000762939453],[-0.28250001271565756],[1],[0],[0],[1.2636999999880345],"[""button_right_main""]",659.7861,661.7877,661.7878,661.7879,[],[],[],[],[],[],[],,661.7879,661.788,0.008333333,-0.253333346,0,0,0,,0,104,104,141,1,3,word,RELIGION,print,religion_p.png,,,
,,,,32151,001,2025-10-16_21h06.54.726,HW_LDT_1,2024.2.4,Win32,60.24096386,,,,,,,,,,,,,,,,,,,,,,661.7889,661.9867,661.9867,662.4865,,,,,,,,,,,,,,1.0323,1,,,,,,,,,,,,,,m,,,,,,,,,,,,,,,,106,0,662.4869,663.5196,,0,[0.311666742960612],[-0.25416666666666665],[1],[0],[0],[1.032299999997008],"[""button_right_main""]",663.5198,665.5193,665.5193,665.5196,[],[],[],[],[],[],[],,665.5196,665.5196,0.011666679,-0.254999987,0,0,0,,0,105,105,116,1,3,word,MARGINAL,print,marginal_p.png,,,
,,,,32151,001,2025-10-16_21h06.54.726,HW_LDT_1,2024.2.4,Win32,60.24096386,,,,,,,,,,,,,,,,,,,,,,665.5206,665.7196,665.7196,666.2191,,,,,,,,,,,,,,1.1158,1,,,,,,,,,,,,,,z,,,,,,,,,,,,,,,,107,0,666.2195,667.3358,,0,[-0.3399999936421712],[-0.325],[1],[0],[0],[1.115799999996966],"[""button_left_main""]",667.3358,669.3369,669.3369,669.337,[],[],[],[],[],[],[],,669.337,669.337,-0.054166667,-0.309166654,0,0,0,,0,106,106,23,1,3,RL,quakity,print,quakity_p.png,,,
,,,,32151,001,2025-10-16_21h06.54.726,HW_LDT_1,2024.2.4,Win32,60.24096386,,,,,,,,,,,,,,,,,,,,,,669.3378,669.5363,669.5363,670.0362,,,,,,,,,,,,,,2.0017,1,,,,,,,,,,,,,,z,,,,,,,,,,,,,,,,108,0,670.0368,672.0389,,0,[-0.3091666539510091],[-0.3091666539510091],[1],[0],[0],[2.001700000002984],"[""button_left_main""]",672.0389,674.0365,674.0365,674.0366,[],[],[],[],[],[],[],,674.0366,674.0367,-0.102499962,-0.320000013,0,0,0,,0,107,107,70,1,3,TL,remuse,cursive,remuse_c.png,,,
,,,,32151,001,2025-10-16_21h06.54.726,HW_LDT_1,2024.2.4,Win32,60.24096386,,,,,,,,,,,,,,,,,,,,,,674.0377,674.2365,674.2365,674.7365,,,,,,,,,,,,,,1.4826,1,,,,,,,,,,,,,,z,,,,,,,,,,,,,,,,109,0,674.7372,676.2202,,0,[-0.2808333396911621],[-0.33416665395100914],[1],[0],[0],[1.4826000000089152],"[""button_left_main""]",676.2202,678.2217,678.2218,678.222,[],[],[],[],[],[],[],,678.222,678.2221,-0.122499975,-0.279999987,0,0,0,,0,108,108,58,1,3,TL,nuremical,print,nuremical_p.png,,,
,,,,32151,001,2025-10-16_21h06.54.726,HW_LDT_1,2024.2.4,Win32,60.24096386,,,,,,,,,,,,,,,,,,,,,,678.2228,678.4199,678.42,678.92,,,,,,,,,,,,,,1.8992,1,,,,,,,,,,,,,,m,,,,,,,,,,,,,,,,110,0,678.9205,680.8201,,0,[0.36666666666666664],[-0.2883333206176758],[1],[0],[0],[1.8991999999880136],"[""button_right_main""]",680.8202,682.8201,682.8201,682.8203,[],[],[],[],[],[],[],,682.8203,682.8204,0.016666667,-0.254999987,0,0,0,,0,109,109,159,1,3,word,VETERAN,cursive,veteran_c.png,,,
,,,,32151,001,2025-10-16_21h06.54.726,HW_LDT_1,2024.2.4,Win32,60.24096386,,,,,,,,,,,,,,,,,,,,,,682.8214,683.0227,683.0227,683.5207,,,,,,,,,,,,,,1.4012,1,,,,,,,,,,,,,,m,,,,,,,,,,,,,,,,111,0,683.521,684.9226,,0,[0.32083333333333336],[-0.27166665395100914],[1],[0],[0],[1.40119999998808],"[""button_right_main""]",684.9227,686.9202,686.9203,686.9205,[],[],[],[],[],[],[],,686.9205,686.9206,0.031666692,-0.209166654,0,0,0,,0,110,110,138,1,3,word,REFUSAL,print,refusal_p.png,,,
,,,,32151,001,2025-10-16_21h06.54.726,HW_LDT_1,2024.2.4,Win32,60.24096386,,,,,,,,,,,,,,,,,,,,,,686.9215,687.1205,687.1206,687.6203,,,,,,,,,,,,,,2.3153,1,,,,,,,,,,,,,,z,,,,,,,,,,,,,,,,112,0,687.6209,689.9367,,0,[-0.3316666603088379],[-0.3150000254313151],[1],[0],[0],[2.3152999999970234],"[""button_left_main""]",689.9368,691.937,691.9371,691.9373,[],[],[],[],[],[],[],,691.9373,691.9373,-0.045833333,-0.296666654,0,0,0,,0,111,111,16,1,3,RL,mishafe,cursive,mishafe_c.png,,,
,,,,32151,001,2025-10-16_21h06.54.726,HW_LDT_1,2024.2.4,Win32,60.24096386,,,,,,,,,,,,,,,,,,,,,,691.9382,692.1372,692.1373,692.6371,,,,,,,,,,,,,,1.4155,1,,,,,,,,,,,,,,m,,,,,,,,,,,,,,,,113,0,692.6379,694.054,,0,[0.26666666666666666],[-0.29500001271565757],[1],[0],[0],[1.4154999999999518],"[""button_right_main""]",694.0541,696.0538,696.0539,696.054,[],[],[],[],[],[],[],,696.054,696.0541,0.009166654,-0.275,0,0,0,,0,112,112,85,1,3,word,BENEFIT,print,benefit_p.png,,,
,,,,32151,001,2025-10-16_21h06.54.726,HW_LDT_1,2024.2.4,Win32,60.24096386,,,,,,,,,,,,,,,,,,,,,,696.0553,696.2542,696.2543,696.7537,,,,,,,,,,,,,,1.3187,1,,,,,,,,,,,,,,m,,,,,,,,,,,,,,,,114,0,696.7542,698.0733,,0,[0.3],[-0.29333337148030597],[1],[0],[0],[1.3187000000029911],"[""button_right_main""]",698.0733,700.0731,700.0731,700.0732,[],[],[],[],[],[],[],,700.0732,700.0733,0.026666705,-0.279999987,0,0,0,,0,113,113,80,1,3,word,ACADEMY,print,academy_p.png,,,
,,,,32151,001,2025-10-16_21h06.54.726,HW_LDT_1,2024.2.4,Win32,60.24096386,,,,,,,,,,,,,,,,,,,,,,700.0741,700.2702,700.2702,700.7722,,,,,,,,,,,,,,1.2339,1,,,,,,,,,,,,,,m,,,,,,,,,,,,,,,,115,0,700.7725,702.0068,,0,[0.30416666666666664],[-0.31916669209798176],[1],[0],[0],[1.2338999999910811],"[""button_right_main""]",702.0068,704.0035,704.0035,704.0037,[],[],[],[],[],[],[],,704.0037,704.0037,0.049166679,-0.293333371,0,0,0,,0,114,114,150,1,3,word,SENTIMENT,print,sentiment_p.png,,,
,,,,32151,001,2025-10-16_21h06.54.726,HW_LDT_1,2024.2.4,Win32,60.24096386,,,,,,,,,,,,,,,,,,,,,,704.0047,704.2035,704.2035,704.7037,,,,,,,,,,,,,,2.6655,1,,,,,,,,,,,,,,z,,,,,,,,,,,,,,,,116,1,704.7044,707.3702,,0,[-0.315833314259847],[-0.2833333333333333],[1],[0],[0],[2.6655000000000655],"[""button_left_main""]",707.3702,709.3708,709.3708,710.4061,[-0.2791666666666667],[-0.3150000254313151],[1],[0],[0],[1.0350999999940314],"[""button_left_probe""]",,710.4061,710.4061,-0.279166667,-0.315000025,1,0,0,,0,115,115,20,1,3,RL,orimipal,cursive,orimipal_c.png,,,
,,,,32151,001,2025-10-16_21h06.54.726,HW_LDT_1,2024.2.4,Win32,60.24096386,,,,,,,,,,,,,,,,,,,,,,710.4066,710.6036,710.6036,711.1047,,,,,,,,,,,,,,1.281,1,,,,,,,,,,,,,,m,,,,,,,,,,,,,,,,117,0,711.105,712.3869,,0,[0.36833330790201824],[-0.2916666666666667],[1],[0],[0],[1.2810000000000628],"[""button_right_main""]",712.387,714.3868,714.3869,714.3871,[],[],[],[],[],[],[],,714.3871,714.3875,-0.019166629,-0.250833321,0,0,0,,0,116,116,101,1,3,word,DELICATE,print,delicate_p.png,,,
,,,,32151,001,2025-10-16_21h06.54.726,HW_LDT_1,2024.2.4,Win32,60.24096386,,,,,,,,,,,,,,,,,,,,,,714.3884,714.5886,714.5886,715.0887,,,,,,,,,,,,,,1.5322,0,,,,,,,,,,,,,,m,,,,,,,,,,,,,,,,118,0,715.0891,716.6217,,0,[-0.256666628519694],[-0.2783333460489909],[1],[0],[0],[1.5322000000029448],"[""button_left_main""]",716.6217,718.6206,718.6206,718.6207,[],[],[],[],[],[],[],,718.6207,718.6207,-0.032500013,-0.263333321,0,0,0,,0,117,117,108,1,3,word,FORTUNE,cursive,fortune_c.png,,,
,,,,32151,001,2025-10-16_21h06.54.726,HW_LDT_1,2024.2.4,Win32,60.24096386,,,,,,,,,,,,,,,,,,,,,,718.6217,718.8218,718.8218,719.3213,,,,,,,,,,,,,,1.8669,1,,,,,,,,,,,,,,z,,,,,,,,,,,,,,,,119,0,719.3215,721.1887,,0,[-0.26749998728434243],[-0.3266667048136393],[1],[0],[0],[1.8669000000060123],"[""button_left_main""]",721.1887,723.1873,723.1873,723.1874,[],[],[],[],[],[],[],,723.1874,723.1875,-0.030833308,-0.299166679,0,0,0,,0,118,118,49,1,3,TL,incidate,print,incidate_p.png,,,
,,,,32151,001,2025-10-16_21h06.54.726,HW_LDT_1,2024.2.4,Win32,60.24096386,,,,,,,,,,,,,,,,,,,,,,723.1884,723.3871,723.3872,723.8892,,,,,,,,,,,,,,1.6987,0,,,,,,,,,,,,,,m,,,,,,,,,,,,,,,,120,0,723.89,725.589,,0,[-0.26999998092651367],[-0.32166665395100913],[1],[0],[0],[1.69869999998798],"[""button_left_main""]",725.5891,727.5885,727.5886,727.5888,[],[],[],[],[],[],[],,727.5888,727.5888,-0.092499987,-0.328333346,0,0,0,,0,119,119,110,1,3,word,HERITAGE,cursive,heritage_c.png,,,
,,,,32151,001,2025-10-16_21h06.54.726,HW_LDT_1,2024.2.4,Win32,60.24096386,,,,,,,,,,,,,,,,,,,,,,727.5897,727.7875,727.7875,728.2873,,,,,,,,,,,,,,1.4847,1,,,,,,,,,,,,,,m,,,,,,,,,,,,,,,,121,0,728.2877,729.7727,,0,[0.3358333587646484],[-0.2658333460489909],[1],[0],[0],[1.4847000000029311],"[""button_right_main""]",729.7727,731.7706,731.7707,731.7707,[],[],[],[],[],[],[],,731.7708,731.7708,0.129999987,-0.251666705,0,0,0,,0,120,120,133,1,3,word,PROVIDE,print,provide_p.png,,,
,,,,32151,001,2025-10-16_21h06.54.726,HW_LDT_1,2024.2.4,Win32,60.24096386,,,,,,,,,,,,,,,,,,,,,,731.7715,731.9705,731.9705,732.4708,,,,,,,,,,,,,,1.0178,1,,,,,,,,,,,,,,m,,,,,,,,,,,,,,,,122,0,732.4711,733.4896,,0,[0.3375],[-0.30166670481363933],[1],[0],[0],[1.0177999999970098],"[""button_right_main""]",733.4896,735.4877,735.4877,735.4879,[],[],[],[],[],[],[],,735.4879,735.488,0.135000038,-0.285833359,0,0,0,,0,121,121,102,1,3,word,DENSITY,print,density_p.png,,,
,,,,32151,001,2025-10-16_21h06.54.726,HW_LDT_1,2024.2.4,Win32,60.24096386,,,,,,,,,,,,,,,,,,,,,,735.4891,735.6882,735.6882,736.1882,,,,,,,,,,,,,,1.2829,1,,,,,,,,,,,,,,m,,,,,,,,,,,,,,,,123,0,736.1885,737.4717,,0,[0.28833338419596355],[-0.3233333587646484],[1],[0],[0],[1.2828999999910593],"[""button_right_main""]",737.4718,739.471,739.4711,739.4712,[],[],[],[],[],[],[],,739.4712,739.4713,0.081666692,-0.257500013,0,0,0,,0,122,122,155,1,3,word,STRATEGY,print,strategy_p.png,,,
,,,,32151,001,2025-10-16_21h06.54.726,HW_LDT_1,2024.2.4,Win32,60.24096386,,,,,,,,,,,,,,,,,,,,,,739.4721,739.6709,739.671,740.1708,,,,,,,,,,,,,,1.2513,1,,,,,,,,,,,,,,z,,,,,,,,,,,,,,,,124,0,740.1711,741.4227,,0,[-0.49166666666666664],[-0.38333333333333336],[1],[0],[0],[1.2512999999970589],"[""button_left_main""]",741.4227,743.4208,743.4208,743.4209,[],[],[],[],[],[],[],,743.4209,743.421,-0.011666679,-0.307500013,0,0,0,,0,123,123,61,1,3,TL,pocily,print,pocily_p.png,,,
,,,,32151,001,2025-10-16_21h06.54.726,HW_LDT_1,2024.2.4,Win32,60.24096386,,,,,,,,,,,,,,,,,,,,,,743.4216,743.6221,743.6221,744.1218,,,,,,,,,,,,,,1.6326,1,,,,,,,,,,,,,,m,,,,,,,,,,,,,,,,125,0,744.1222,745.7552,,0,[0.30416666666666664],[-0.3233333587646484],[1],[0],[0],[1.6326000000090062],"[""button_right_main""]",745.7553,747.7553,747.7553,747.7554,[],[],[],[],[],[],[],,747.7554,747.7555,-0.049166679,-0.249166679,0,0,0,,0,124,124,100,1,3,word,DECADE,cursive,decade_c.png,,,
,,,,32151,001,2025-10-16_21h06.54.726,HW_LDT_1,2024.2.4,Win32,60.24096386,,,,,,,,,,,,,,,,,,,,,,747.7563,747.9563,747.9563,748.4549,,,,,,,,,,,,,,1.1188,1,,,,,,,,,,,,,,m,,,,,,,,,,,,,,,,126,0,748.4552,749.5743,,0,[0.37166671752929686],[-0.26000003814697265],[1],[0],[0],[1.1187999999970089],"[""button_right_main""]",749.5744,751.5721,751.5721,751.5725,[],[],[],[],[],[],[],,751.5725,751.5725,0.090833346,-0.240833346,0,0,0,,0,125,125,81,1,3,word,ADVISORY,print,advisory_p.png,,,
,,,,32151,001,2025-10-16_21h06.54.726,HW_LDT_1,2024.2.4,Win32,60.24096386,,,,,,,,,,,,,,,,,,,,,,751.5733,751.7719,751.7719,752.272,,,,,,,,,,,,,,1.6323,0,,,,,,,,,,,,,,m,,,,,,,,,,,,,,,,127,1,752.2727,753.9058,,0,[-0.31416667302449547],[-0.29083334604899086],[1],[0],[0],[1.632299999996917],"[""button_left_main""]",753.9059,755.9056,755.9056,756.8075,[-0.28666664759318033],[-0.3316666920979818],[1],[0],[0],[0.9014999999999418],"[""button_left_probe""]",,756.8075,756.8076,-0.286666648,-0.331666692,1,0,0,,0,126,126,99,1,3,word,DEBATE,cursive,debate_c.png,,,
,,,,32151,001,2025-10-16_21h06.54.726,HW_LDT_1,2024.2.4,Win32,60.24096386,,,,,,,,,,,,,,,,,,,,,,756.8084,757.0055,757.0056,757.5075,,,,,,,,,,,,,,1.0664,1,,,,,,,,,,,,,,m,,,,,,,,,,,,,,,,128,0,757.5079,758.5747,,0,[0.275],[-0.26166667938232424],[1],[0],[0],[1.066400000005956],"[""button_right_main""]",758.5747,760.5721,760.5721,760.5726,[],[],[],[],[],[],[],,760.5727,760.5728,-0.014166641,-0.225833321,0,0,0,,0,127,127,95,1,3,word,COMEDY,print,comedy_p.png,,,
,,,,32151,001,2025-10-16_21h06.54.726,HW_LDT_1,2024.2.4,Win32,60.24096386,,,,,,,,,,,,,,,,,,,,,,760.5735,760.7722,760.7723,761.2721,,,,,,,,,,,,,,2.5344,1,,,,,,,,,,,,,,m,,,,,,,,,,,,,,,,129,0,761.2726,763.8074,,0,[0.29833335876464845],[-0.2833333333333333],[1],[0],[0],[2.534400000005917],"[""button_right_main""]",763.8075,765.8059,765.8059,765.8061,[],[],[],[],[],[],[],,765.8061,765.8062,0,-0.245000013,0,0,0,,0,128,128,117,1,3,word,MARINE,cursive,marine_c.png,,,
,,,,32151,001,2025-10-16_21h06.54.726,HW_LDT_1,2024.2.4,Win32,60.24096386,,,,,,,,,,,,,,,,,,,,,,765.807,766.0058,766.0058,766.5057,,,,,,,,,,,,,,1.9995,1,,,,,,,,,,,,,,m,,,,,,,,,,,,,,,,130,0,766.5061,768.5061,,0,[0.30666669209798175],[-0.29500001271565757],[1],[0],[0],[1.9995000000000118],"[""button_right_main""]",768.5062,770.5059,770.5059,770.506,[],[],[],[],[],[],[],,770.5065,770.5067,0.014166705,-0.254166667,0,0,0,,0,129,129,127,1,3,word,ORIGINAL,cursive,original_c.png,,,
,,,,32151,001,2025-10-16_21h06.54.726,HW_LDT_1,2024.2.4,Win32,60.24096386,,,,,,,,,,,,,,,,,,,,,,770.5076,770.707,770.707,771.2068,,,,,,,,,,,,,,1.865,1,,,,,,,,,,,,,,z,,,,,,,,,,,,,,,,131,0,771.2072,773.0725,,0,[-0.31000000635782876],[-0.30083332061767576],[1],[0],[0],[1.865000000000009],"[""button_left_main""]",773.0727,775.0723,775.0724,775.0725,[],[],[],[],[],[],[],,775.0729,775.0729,-0.010833295,-0.249166679,0,0,0,,0,130,130,42,1,3,TL,detabe,cursive,detabe_c.png,,,
,,,,32151,001,2025-10-16_21h06.54.726,HW_LDT_1,2024.2.4,Win32,60.24096386,,,,,,,,,,,,,,,,,,,,,,775.0738,775.2727,775.2727,775.774,,,,,,,,,,,,,,1.6008,1,,,,,,,,,,,,,,z,,,,,,,,,,,,,,,,132,0,775.7743,777.3755,,0,[-0.26833333969116213],[-0.31166667938232423],[1],[0],[0],[1.6007999999969797],"[""button_left_main""]",777.3755,779.3721,779.3721,779.3723,[],[],[],[],[],[],[],,779.3723,779.3724,-0.022499975,-0.298333359,0,0,0,,0,131,131,17,1,3,RL,motide,cursive,motide_c.png,,,
,,,,32151,001,2025-10-16_21h06.54.726,HW_LDT_1,2024.2.4,Win32,60.24096386,,,,,,,,,,,,,,,,,,,,,,779.3732,779.5724,779.5724,780.0739,,,,,,,,,,,,,,1.5662,1,,,,,,,,,,,,,,z,,,,,,,,,,,,,,,,133,0,780.0743,781.6409,,0,[-0.23916664123535156],[-0.2866666793823242],[1],[0],[0],[1.5662000000030503],"[""button_left_main""]",781.6409,783.6402,783.6402,783.6403,[],[],[],[],[],[],[],,783.6403,783.6404,0.029999987,-0.280833371,0,0,0,,0,132,132,50,1,3,TL,lirebal,print,lirebal_p.png,,,
,,,,32151,001,2025-10-16_21h06.54.726,HW_LDT_1,2024.2.4,Win32,60.24096386,,,,,,,,,,,,,,,,,,,,,,783.6414,783.8395,783.8395,784.3396,,,,,,,,,,,,,,1.0681,1,,,,,,,,,,,,,,m,,,,,,,,,,,,,,,,134,1,784.3405,785.4091,,0,[0.3133333841959635],[-0.275],[1],[0],[0],[1.0680999999940468],"[""button_right_main""]",785.4091,787.4063,787.4063,788.8924,[0.3849999745686849],[-0.2741666793823242],[1],[0],[0],[1.4857999999970843],"[""button_right_probe""]",,788.8925,788.8926,0.384999975,-0.274166679,1,0,0,,0,133,133,104,1,3,word,DOMINANT,print,dominant_p.png,,,
,,,,32151,001,2025-10-16_21h06.54.726,HW_LDT_1,2024.2.4,Win32,60.24096386,,,,,,,,,,,,,,,,,,,,,,788.8933,789.0897,789.0897,789.592,,,,,,,,,,,,,,2.2319,1,,,,,,,,,,,,,,z,,,,,,,,,,,,,,,,135,0,789.5925,791.8248,,0,[-0.32999998728434243],[-0.30333334604899087],[1],[0],[0],[2.2319000000060214],"[""button_left_main""]",791.825,793.8252,793.8253,793.8253,[],[],[],[],[],[],[],,793.8254,793.8255,-0.064999962,-0.221666654,0,0,0,,0,134,134,69,1,3,TL,redisent,cursive,redisent_c.png,,,
,,,,32151,001,2025-10-16_21h06.54.726,HW_LDT_1,2024.2.4,Win32,60.24096386,,,,,,,,,,,,,,,,,,,,,,793.8263,794.0228,794.0228,794.5235,,,,,,,,,,,,,,1.9155,1,,,,,,,,,,,,,,m,,,,,,,,,,,,,,,,136,0,794.5239,796.4398,,0,[0.33833338419596354],[-0.28500003814697267],[1],[0],[0],[1.9154999999999518],"[""button_right_main""]",796.4398,798.44,798.4401,798.4403,[],[],[],[],[],[],[],,798.4403,798.4404,0.102500025,-0.276666705,0,0,0,,0,135,135,93,1,3,word,CEREMONY,cursive,ceremony_c.png,,,
,,,,32151,001,2025-10-16_21h06.54.726,HW_LDT_1,2024.2.4,Win32,60.24096386,,,,,,,,,,,,,,,,,,,,,,798.4414,798.6399,798.6399,799.1404,,,,,,,,,,,,,,1.0849,1,,,,,,,,,,,,,,m,,,,,,,,,,,,,,,,137,0,799.1408,800.226,,0,[0.336666742960612],[-0.24500001271565755],[1],[0],[0],[1.0848999999910802],"[""button_right_main""]",800.2261,802.2248,802.2248,802.2249,[],[],[],[],[],[],[],,802.2249,802.225,0.334166718,-0.242499987,0,0,0,,0,136,136,119,1,3,word,MEMORY,print,memory_p.png,,,
,,,,32151,001,2025-10-16_21h06.54.726,HW_LDT_1,2024.2.4,Win32,60.24096386,,,,,,,,,,,,,,,,,,,,,,802.2258,802.4238,802.4238,802.9235,,,,,,,,,,,,,,1.3321,1,,,,,,,,,,,,,,m,,,,,,,,,,,,,,,,138,0,802.9241,804.2569,,0,[0.3258333841959635],[-0.26666666666666666],[1],[0],[0],[1.3320999999940568],"[""button_right_main""]",804.2569,806.2565,806.2567,806.2568,[],[],[],[],[],[],[],,806.2569,806.257,0.240000025,-0.229999987,0,0,0,,0,137,137,87,1,3,word,CAFETERIA,print,cafeteria_p.png,,,
,,,,32151,001,2025-10-16_21h06.54.726,HW_LDT_1,2024.2.4,Win32,60.24096386,,,,,,,,,,,,,,,,,,,,,,806.2577,806.4581,806.4581,806.9581,,,,,,,,,,,,,,1.6813,0,,,,,,,,,,,,,,m,,,,,,,,,,,,,,,,139,1,806.9584,808.6401,,0,[-0.31666666666666665],[-0.2650000254313151],[1],[0],[0],[1.6812999999970089],"[""button_left_main""]",808.6402,810.6426,810.6427,811.6272,[-0.2916666666666667],[-0.30499998728434247],[1],[0],[0],[0.9840999999939868],"[""button_left_probe""]",,811.6272,811.6273,-0.291666667,-0.304999987,1,0,0,,0,138,138,123,1,3,word,MODERATE,cursive,moderate_c.png,,,
,,,,32151,001,2025-10-16_21h06.54.726,HW_LDT_1,2024.2.4,Win32,60.24096386,,,,,,,,,,,,,,,,,,,,,,811.6279,811.8237,811.8237,812.3249,,,,,,,,,,,,,,1.7481,0,,,,,,,,,,,,,,m,,,,,,,,,,,,,,,,140,0,812.3253,814.0738,,0,[-0.3058333396911621],[-0.2900000254313151],[1],[0],[0],[1.7480999999941105],"[""button_left_main""]",814.0738,816.0741,816.0742,816.0743,[],[],[],[],[],[],[],,816.0743,816.0744,-0.30583334,-0.286666679,0,0,0,,0,139,139,149,1,3,word,SENATOR,cursive,senator_c.png,,,
,,,,32151,001,2025-10-16_21h06.54.726,HW_LDT_1,2024.2.4,Win32,60.24096386,,,,,,,,,,,,,,,,,,,,,,816.0753,816.2739,816.2739,816.7757,,,,,,,,,,,,,,1.5655,1,,,,,,,,,,,,,,z,,,,,,,,,,,,,,,,141,0,816.7762,818.3421,,0,[-0.28583332697550456],[-0.29333337148030597],[1],[0],[0],[1.5655000000000427],"[""button_left_main""]",818.3422,820.3405,820.3405,820.3407,[],[],[],[],[],[],[],,820.3407,820.3407,-0.275,-0.290833346,0,0,0,,0,140,140,40,1,3,TL,condiser,print,condiser_p.png,,,
,,,,32151,001,2025-10-16_21h06.54.726,HW_LDT_1,2024.2.4,Win32,60.24096386,,,,,,,,,,,,,,,,,,,,,,820.3417,820.5416,820.5416,821.0407,,,,,,,,,,,,,,3.2181,1,,,,,,,,,,,,,,z,,,,,,,,,,,,,,,,142,1,821.041,824.2596,,0,[-0.29416666030883787],[-0.2783333460489909],[1],[0],[0],[3.2181000000090307],"[""button_left_main""]",824.2596,826.2567,826.2568,827.6404,[-0.290833314259847],[-0.31416670481363934],[1],[0],[0],[1.3834999999999127],"[""button_left_probe""]",,827.6405,827.6407,-0.290833314,-0.314166705,1,0,0,,0,141,141,71,1,3,TL,sanile,cursive,sanile_c.png,,,
,,,,32151,001,2025-10-16_21h06.54.726,HW_LDT_1,2024.2.4,Win32,60.24096386,,,,,,,,,,,,,,,,,,,,,,827.6415,827.8409,827.8409,828.3425,,,,,,,,,,,,,,1.9311,1,,,,,,,,,,,,,,m,,,,,,,,,,,,,,,,143,0,828.3429,830.2742,,0,[0.31416664123535154],[-0.2525000254313151],[1],[0],[0],[1.9310999999941032],"[""button_right_main""]",830.2742,832.277,832.2771,832.2772,[],[],[],[],[],[],[],,832.2773,832.2773,0.102500025,-0.2375,0,0,0,,0,142,142,157,1,3,word,VALIDITY,cursive,validity_c.png,,,
,,,,32151,001,2025-10-16_21h06.54.726,HW_LDT_1,2024.2.4,Win32,60.24096386,,,,,,,,,,,,,,,,,,,,,,832.2782,832.4755,832.4755,832.9771,,,,,,,,,,,,,,1.6813,1,,,,,,,,,,,,,,z,,,,,,,,,,,,,,,,144,1,832.9775,834.6591,,0,[-0.27833331425984703],[-0.318333371480306],[1],[0],[0],[1.6812999999970089],"[""button_left_main""]",834.6592,836.6599,836.6599,837.7273,[-0.23083330790201823],[-0.31000003814697263],[1],[0],[0],[1.0671000000089634],"[""button_left_probe""]",,837.7273,837.7274,-0.230833308,-0.310000038,1,0,0,,0,143,143,11,1,3,RL,ebiwent,cursive,ebiwent_c.png,,,
,,,,32151,001,2025-10-16_21h06.54.726,HW_LDT_1,2024.2.4,Win32,60.24096386,,,,,,,,,,,,,,,,,,,,,,837.7281,837.9249,837.925,838.4245,,,,,,,,,,,,,,1.384,1,,,,,,,,,,,,,,z,,,,,,,,,,,,,,,,145,0,838.4249,839.8093,,0,[-0.37250000635782876],[-0.2691666920979818],[1],[0],[0],[1.3840000000000146],"[""button_left_main""]",839.8094,841.8076,841.8077,841.8079,[],[],[],[],[],[],[],,841.8079,841.808,-0.096666654,-0.264166705,0,0,0,,0,144,144,41,1,3,TL,crinimal,print,crinimal_p.png,,,
,,,,32151,001,2025-10-16_21h06.54.726,HW_LDT_1,2024.2.4,Win32,60.24096386,,,,,,,,,,,,,,,,,,,,,,841.8088,842.0078,842.0078,842.5077,,,,,,,,,,,,,,1.1995,1,,,,,,,,,,,,,,m,,,,,,,,,,,,,,,,146,0,842.5081,843.708,,0,[0.32916666666666666],[-0.30833333333333335],[1],[0],[0],[1.1995000000000573],"[""button_right_main""]",843.7081,845.7079,845.708,845.7082,[],[],[],[],[],[],[],,845.7082,845.7082,0.021666654,-0.227500025,0,0,0,,0,145,145,91,1,3,word,CARDINAL,print,cardinal_p.png,,,
,,,,32151,001,2025-10-16_21h06.54.726,HW_LDT_1,2024.2.4,Win32,60.24096386,,,,,,,,,,,,,,,,,,,,,,845.7093,845.9084,845.9085,846.4082,,,,,,,,,,,,,,1.5487,1,,,,,,,,,,,,,,z,,,,,,,,,,,,,,,,147,0,846.4086,847.9579,,0,[-0.3266666730244954],[-0.3258333206176758],[1],[0],[0],[1.5487000000030093],"[""button_left_main""]",847.9579,849.9612,849.9612,849.9613,[],[],[],[],[],[],[],,849.9613,849.9615,-0.041666667,-0.169166692,0,0,0,,0,146,146,46,1,3,TL,distupe,print,distupe_p.png,,,
,,,,32151,001,2025-10-16_21h06.54.726,HW_LDT_1,2024.2.4,Win32,60.24096386,,,,,,,,,,,,,,,,,,,,,,849.9622,850.1587,850.1587,850.658,,,,,,,,,,,,,,1.6492,1,,,,,,,,,,,,,,z,,,,,,,,,,,,,,,,148,0,850.6584,852.3081,,0,[-0.28916667302449545],[-0.3174999872843424],[1],[0],[0],[1.6491999999881273],"[""button_left_main""]",852.3081,854.3079,854.308,854.3081,[],[],[],[],[],[],[],,854.3081,854.3082,0.034166654,-0.241666667,0,0,0,,0,147,147,51,1,3,TL,liretal,print,liretal_p.png,,,
,,,,32151,001,2025-10-16_21h06.54.726,HW_LDT_1,2024.2.4,Win32,60.24096386,,,,,,,,,,,,,,,,,,,,,,854.309,854.5082,854.5082,855.0094,,,,,,,,,,,,,,1.1512,1,,,,,,,,,,,,,,m,,,,,,,,,,,,,,,,149,0,855.0098,856.1614,,0,[0.311666742960612],[-0.24416669209798178],[1],[0],[0],[1.151200000002973],"[""button_right_main""]",856.1614,858.1582,858.1582,858.1583,[],[],[],[],[],[],[],,858.1583,858.1584,-0.051666641,-0.174166679,0,0,0,,0,148,148,105,1,3,word,EDITOR,print,editor_p.png,,,
,,,,32151,001,2025-10-16_21h06.54.726,HW_LDT_1,2024.2.4,Win32,60.24096386,,,,,,,,,,,,,,,,,,,,,,858.1592,858.3583,858.3584,858.8608,,,,,,,,,,,,,,1.3662,1,,,,,,,,,,,,,,z,,,,,,,,,,,,,,,,150,1,858.8612,860.2277,,0,[-0.27166665395100914],[-0.3150000254313151],[1],[0],[0],[1.3662000000030048],"[""button_left_main""]",860.2278,862.2273,862.2274,863.5776,[0.3],[-0.29249998728434246],[1],[0],[0],[1.350200000003042],"[""button_right_probe""]",,863.5777,863.5778,0.3,-0.292499987,1,0,0,,0,149,149,44,1,3,TL,decilate,print,decilate_p.png,,,
,,,,32151,001,2025-10-16_21h06.54.726,HW_LDT_1,2024.2.4,Win32,60.24096386,,,,,,,,,,,,,,,,,,,,,,863.5784,863.7747,863.7747,864.2746,,,,,,,,,,,,,,2.8162,1,,,,,,,,,,,,,,z,,,,,,,,,,,,,,,,151,0,864.275,867.0916,,0,[-0.2983333269755046],[-0.318333371480306],[1],[0],[0],[2.8161999999880436],"[""button_left_main""]",867.0916,869.0918,869.0919,869.0925,[],[],[],[],[],[],[],,869.0925,869.0925,-0.091666667,-0.217499987,0,0,0,,0,150,150,48,1,3,TL,grafetul,cursive,grafetul_c.png,,,
,,,,32151,001,2025-10-16_21h06.54.726,HW_LDT_1,2024.2.4,Win32,60.24096386,,,,,,,,,,,,,,,,,,,,,,869.0934,869.2916,869.2917,869.7935,,,,,,,,,,,,,,2.1,1,,,,,,,,,,,,,,m,,,,,,,,,,,,,,,,152,0,869.7938,871.894,,0,[0.3516666412353516],[-0.2783333460489909],[1],[0],[0],[2.1000000000000227],"[""button_right_main""]",871.8941,873.892,873.8921,873.8921,[],[],[],[],[],[],[],,873.8921,873.8924,0.022500038,-0.216666667,0,0,0,,0,151,151,153,1,3,word,STOLEN,cursive,stolen_c.png,,,
,,,,32151,001,2025-10-16_21h06.54.726,HW_LDT_1,2024.2.4,Win32,60.24096386,,,,,,,,,,,,,,,,,,,,,,873.8932,874.0922,874.0922,874.5919,,,,,,,,,,,,,,1.4346,1,,,,,,,,,,,,,,z,,,,,,,,,,,,,,,,153,0,874.5923,876.0274,,0,[-0.2966666539510091],[-0.31916669209798176],[1],[0],[0],[1.4346000000089134],"[""button_left_main""]",876.0274,878.0278,878.0279,878.028,[],[],[],[],[],[],[],,878.028,878.0281,-0.106666629,-0.296666654,0,0,0,,0,152,152,39,1,3,TL,clicinal,print,clicinal_p.png,,,
,,,,32151,001,2025-10-16_21h06.54.726,HW_LDT_1,2024.2.4,Win32,60.24096386,,,,,,,,,,,,,,,,,,,,,,878.0289,878.2251,878.2252,878.7254,,,,,,,,,,,,,,1.4822,1,,,,,,,,,,,,,,m,,,,,,,,,,,,,,,,154,0,878.7259,880.2084,,0,[0.28583335876464844],[-0.31416670481363934],[1],[0],[0],[1.4822000000029902],"[""button_right_main""]",880.2085,882.2108,882.2108,882.211,[],[],[],[],[],[],[],,882.211,882.211,0.0125,-0.257500013,0,0,0,,0,153,153,111,1,3,word,INDICATE,print,indicate_p.png,,,
,,,,32151,001,2025-10-16_21h06.54.726,HW_LDT_1,2024.2.4,Win32,60.24096386,,,,,,,,,,,,,,,,,,,,,,882.2118,882.4089,882.4089,882.9085,,,,,,,,,,,,,,1.2686,1,,,,,,,,,,,,,,z,,,,,,,,,,,,,,,,155,0,882.9091,884.1781,,0,[-0.3883333206176758],[-0.2791666666666667],[1],[0],[0],[1.2685999999940805],"[""button_left_main""]",884.1781,886.1779,886.1779,886.1781,[],[],[],[],[],[],[],,886.1782,886.1782,-0.031666629,-0.301666705,0,0,0,,0,154,154,22,1,3,RL,procogal,print,procogal_p.png,,,
,,,,32151,001,2025-10-16_21h06.54.726,HW_LDT_1,2024.2.4,Win32,60.24096386,,,,,,,,,,,,,,,,,,,,,,886.179,886.3755,886.3755,886.8759,,,,,,,,,,,,,,2.3019,0,,,,,,,,,,,,,,m,,,,,,,,,,,,,,,,156,0,886.8765,889.1787,,0,[-0.3],[-0.32083333333333336],[1],[0],[0],[2.3019000000059577],"[""button_left_main""]",889.1787,891.1777,891.1778,891.1779,[],[],[],[],[],[],[],,891.1779,891.178,-0.029999987,-0.298333359,0,0,0,,0,155,155,121,1,3,word,MISTAKE,cursive,mistake_c.png,,,
,,,,32151,001,2025-10-16_21h06.54.726,HW_LDT_1,2024.2.4,Win32,60.24096386,,,,,,,,,,,,,,,,,,,,,,891.1787,891.378,891.3781,891.8758,,,,,,,,,,,,,,2.1988,1,,,,,,,,,,,,,,z,,,,,,,,,,,,,,,,157,0,891.8763,894.0755,,0,[-0.25083332061767577],[-0.31416670481363934],[1],[0],[0],[2.19879999999705],"[""button_left_main""]",894.0757,896.0767,896.0768,896.0769,[],[],[],[],[],[],[],,896.077,896.0771,-0.045000013,-0.297500038,0,0,0,,0,156,156,52,1,3,TL,locigal,cursive,locigal_c.png,,,
,,,,32151,001,2025-10-16_21h06.54.726,HW_LDT_1,2024.2.4,Win32,60.24096386,,,,,,,,,,,,,,,,,,,,,,896.0779,896.2759,896.2759,896.776,,,,,,,,,,,,,,1.0159,1,,,,,,,,,,,,,,m,,,,,,,,,,,,,,,,158,0,896.7766,897.7928,,0,[0.2683333079020182],[-0.2875],[1],[0],[0],[1.0158999999910066],"[""button_right_main""]",897.7929,899.7939,899.7939,899.7941,[],[],[],[],[],[],[],,899.7942,899.7942,0.060833359,-0.315833346,0,0,0,,0,157,157,129,1,3,word,PARENT,print,parent_p.png,,,
,,,,32151,001,2025-10-16_21h06.54.726,HW_LDT_1,2024.2.4,Win32,60.24096386,,,,,,,,,,,,,,,,,,,,,,899.795,899.9928,899.9928,900.4925,,,,,,,,,,,,,,1.4162,1,,,,,,,,,,,,,,m,,,,,,,,,,,,,,,,159,1,900.4929,901.9095,,0,[0.2941666920979818],[-0.30166670481363933],[1],[0],[0],[1.4162000000029593],"[""button_right_main""]",901.9095,903.9093,903.9093,905.4428,[-0.36000000635782875],[-0.31000003814697263],[1],[0],[0],[1.5332000000030348],"[""button_left_probe""]",,905.4429,905.443,-0.360000006,-0.310000038,1,0,0,,0,158,158,115,1,3,word,LOGICAL,cursive,logical_c.png,,,
,,,,32151,001,2025-10-16_21h06.54.726,HW_LDT_1,2024.2.4,Win32,60.24096386,,,,,,,,,,,,,,,,,,,,,,905.4438,905.6428,905.6429,906.1442,,,,,,,,,,,,,,2.3479,1,,,,,,,,,,,,,,z,,,,,,,,,,,,,,,,160,0,906.1446,908.493,,0,[-0.29750000635782875],[-0.31666666666666665],[1],[0],[0],[2.347900000006007],"[""button_left_main""]",908.4933,910.4954,910.4954,910.4955,[],[],[],[],[],[],[],,910.4955,910.4956,0.084166654,-0.234166654,0,0,0,,0,159,159,79,1,3,TL,veretan,cursive,veretan_c.png,,,
,,,,32151,001,2025-10-16_21h06.54.726,HW_LDT_1,2024.2.4,Win32,60.24096386,,,,,,,,,,,,,,,,,,,,,,,,,,,,,,,,,,,,,,,,,,,,,,,,,,,,,,,,,,,,,,,,,,,,,,,,,,,,,,,,,,,,,,,,,,,,,,,,,,,,,,,,,,,,,,,,,,910.4996,915.4952
