counterbalance_lists.group,counterbalance_lists.remaining,get_list.started,get_list.stopped,participant,session,date,expName,psychopyVersion,OS,frameRate,Instructions.started,Instructions.stopped,key_resp.keys,instr_done_touch.x,instr_done_touch.y,instr_done_touch.leftButton,instr_done_touch.midButton,instr_done_touch.rightButton,instr_done_touch.clicked_name,start_instr.thisRepN,start_instr.thisTrialN,start_instr.thisN,start_instr.thisIndex,start_instr.ran,pageN,phase,instruct_text,has_image,instruct_image,key_resp.rt,key_resp.duration,showProgress.started,showProgress.stopped,fix.started,fix.stopped,prac.started,prac.stopped,response.keys,response.corr,response.rt,response.duration,touch_resp.x,touch_resp.y,touch_resp.leftButton,touch_resp.midButton,touch_resp.rightButton,touch_resp.time,touch_resp.clicked_name,rt,corr,feedback.started,feedback.stopped,trials.thisRepN,trials.thisTrialN,trials.thisN,trials.thisIndex,trials.ran,TrialID,StimulusType,Condition,PrimeDuration,Prime,Target,corrAns,Instructions_expt.started,Instructions_expt.stopped,key_resp_3.keys,instr_done_touch_3.x,instr_done_touch_3.y,instr_done_touch_3.leftButton,instr_done_touch_3.midButton,instr_done_touch_3.rightButton,instr_done_touch_3.clicked_name,instr_experiment.thisRepN,instr_experiment.thisTrialN,instr_experiment.thisN,instr_experiment.thisIndex,instr_experiment.ran,trialID,flag,maintask.started,maintask.stopped,key_resp_2.keys,key_resp_2.corr,key_resp_2.rt,key_resp_2.duration,targ_click.x,targ_click.y,targ_click.leftButton,targ_click.midButton,targ_click.rightButton,targ_click.time,targ_click.clicked_name,ITI.started,ITI.stopped,probe.started,probe.stopped,click_probe.x,click_probe.y,click_probe.leftButton,click_probe.midButton,click_probe.rightButton,click_probe.time,click_probe.clicked_name,key_resp_probe.keys,Break.started,Break.stopped,break_done_touch.x,break_done_touch.y,break_done_touch.leftButton,break_done_touch.midButton,break_done_touch.rightButton,break_done_keyboard.keys,list2_trials.thisRepN,list2_trials.thisTrialN,list2_trials.thisN,list2_trials.thisIndex,list2_trials.ran,list_id,item_type,string,font,stim_file,key_resp_probe.rt,key_resp_probe.duration,break_done_keyboard.rt,break_done_keyboard.duration,End.started,End.stopped
list2,,0.4319,0.432,32156,001,2025-10-16_13h45.52.667,HW_LDT_1,2024.2.4,MacIntel,60.24096386,,,,,,,,,,,,,,,,,,,,,,,,,,,,,,,,,,,,,,,,,,,,,,,,,,,,,,,,,,,,,,,,,,,,,,,,,,,,,,,,,,,,,,,,,,,,,,,,,,,,,,,,,,,,,,,,,,,,,,,
,,,,32156,001,2025-10-16_13h45.52.667,HW_LDT_1,2024.2.4,MacIntel,60.24096386,0.4525,57.5333,,0.056891135,-0.424498981,1,0,0,instr_done_button,0,0,0,0,1,1,instructions,"INSTRUCTIONS
At the start of each trial, look at the plus sign  (+) in the center of the screen.  This tells you that a trial is about to begin and where to look. Second, the plus sign will disappear and a string of letters will appear. Your task is to determine if the string of letters is a word or not. If the item is a word press the M key (on keyboard)  or touch the word button (phone/tablet).  If the item is not a word,  press the  Z key (on keyboard)  or touch the nonword button (on phone/tablet). The items will be presented for a short time. 
Press the space bar or touch  continue.",0,,,,,,,,,,,,,,,,,,,,,,,,,,,,,,,,,,,,,,,,,,,,,,,,,,,,,,,,,,,,,,,,,,,,,,,,,,,,,,,,,,,,,,,,,,,,,,,,,,,,,
,,,,32156,001,2025-10-16_13h45.52.667,HW_LDT_1,2024.2.4,MacIntel,60.24096386,57.534,67.1661,space,0.059430197,-0.391355299,0,0,0,,0,1,1,1,1,2,instructions,"If your device has a keyboard, press the 'Z' key for nonwords and the 'M' key for words.





Press the space bar or touch the button below to continue.",0,keyboard-example.gif,9.6098,,,,,,,,,,,,,,,,,,,,,,,,,,,,,,,,,,,,,,,,,,,,,,,,,,,,,,,,,,,,,,,,,,,,,,,,,,,,,,,,,,,,,,,,,,,,,,,,,,,
,,,,32156,001,2025-10-16_13h45.52.667,HW_LDT_1,2024.2.4,MacIntel,60.24096386,67.1666,72.8834,space,0.100624151,-0.424439538,0,0,0,,0,2,2,2,1,3,instructions,"If you are using a touchscreen only device, use the buttons on the screen. Do not use the mouse.





Press the space bar or touch the button below to continue.",0,touchscreen-example.gif,5.7033,,,,,,,,,,,,,,,,,,,,,,,,,,,,,,,,,,,,,,,,,,,,,,,,,,,,,,,,,,,,,,,,,,,,,,,,,,,,,,,,,,,,,,,,,,,,,,,,,,,
,,,,32156,001,2025-10-16_13h45.52.667,HW_LDT_1,2024.2.4,MacIntel,60.24096386,72.8857,94.7999,space,0.066304348,-0.329504925,0,0,0,,0,3,3,3,1,4,instructions,"It is very important that you respond as quickly and accurately as possible, as each letter string will only be on the screen for two seconds. If you do not respond within this time, the message 'Too slow!' will be displayed and the experiment will progress to the next letter string. The first 20 trials will be practice trials and you will receive feedback on your answers. 

Press the space bar or touch the button below to start the practice trials.",0,,21.8871,,,,,,,,,,,,,,,,,,,,,,,,,,,,,,,,,,,,,,,,,,,,,,,,,,,,,,,,,,,,,,,,,,,,,,,,,,,,,,,,,,,,,,,,,,,,,,,,,,,
,,,,32156,001,2025-10-16_13h45.52.667,HW_LDT_1,2024.2.4,MacIntel,60.24096386,,,,,,,,,,,,,,,,,,,,,,94.8288,95,95.0004,95.499,95.4994,109.382,z,1,13.8539,,[],[],[],[],[],[],[],13.8539,1,109.3823,109.8829,0,0,0,15,1,1016,NW,UN,16,mushed,WHAISE,z,,,,,,,,,,,,,,,,,,,,,,,,,,,,,,,,,,,,,,,,,,,,,,,,,,,,,,,,,,,,,,,,,
,,,,32156,001,2025-10-16_13h45.52.667,HW_LDT_1,2024.2.4,MacIntel,60.24096386,,,,,,,,,,,,,,,,,,,,,,109.8833,110.082,110.082,110.5817,110.5819,113.2328,m,1,2.6349,,[],[],[],[],[],[],[],2.6349,1,113.2329,113.7328,0,1,1,3,1,1004,WORD,"ID",16,matrix,MATRIX,m,,,,,,,,,,,,,,,,,,,,,,,,,,,,,,,,,,,,,,,,,,,,,,,,,,,,,,,,,,,,,,,,,
,,,,32156,001,2025-10-16_13h45.52.667,HW_LDT_1,2024.2.4,MacIntel,60.24096386,,,,,,,,,,,,,,,,,,,,,,113.7337,113.9328,113.9328,114.4316,114.432,116.8998,m,1,2.4626,,[],[],[],[],[],[],[],2.4626,1,116.9002,117.3993,0,2,2,7,1,1008,WORD,UN,16,hurdle,VOLUME,m,,,,,,,,,,,,,,,,,,,,,,,,,,,,,,,,,,,,,,,,,,,,,,,,,,,,,,,,,,,,,,,,,
,,,,32156,001,2025-10-16_13h45.52.667,HW_LDT_1,2024.2.4,MacIntel,60.24096386,,,,,,,,,,,,,,,,,,,,,,117.3997,117.5993,117.5994,118.0996,118.1005,120.183,m,1,2.0612,,[],[],[],[],[],[],[],2.0612,1,120.1831,120.6817,0,3,3,2,1,1003,WORD,"ID",16,almond,ALMOND,m,,,,,,,,,,,,,,,,,,,,,,,,,,,,,,,,,,,,,,,,,,,,,,,,,,,,,,,,,,,,,,,,,
,,,,32156,001,2025-10-16_13h45.52.667,HW_LDT_1,2024.2.4,MacIntel,60.24096386,,,,,,,,,,,,,,,,,,,,,,120.6823,120.8821,120.8822,121.3827,121.3832,122.3664,m,1,0.9645,,[],[],[],[],[],[],[],0.9645,1,122.3665,122.8656,0,4,4,1,1,1002,WORD,"ID",33,adjust,ADJUST,m,,,,,,,,,,,,,,,,,,,,,,,,,,,,,,,,,,,,,,,,,,,,,,,,,,,,,,,,,,,,,,,,,
,,,,32156,001,2025-10-16_13h45.52.667,HW_LDT_1,2024.2.4,MacIntel,60.24096386,,,,,,,,,,,,,,,,,,,,,,122.867,123.0655,123.0655,123.5661,123.5665,124.7318,z,1,1.1532,,[],[],[],[],[],[],[],1.1532,1,124.7319,125.2326,0,5,5,10,1,1011,NW,"ID",16,inlade,INLADE,z,,,,,,,,,,,,,,,,,,,,,,,,,,,,,,,,,,,,,,,,,,,,,,,,,,,,,,,,,,,,,,,,,
,,,,32156,001,2025-10-16_13h45.52.667,HW_LDT_1,2024.2.4,MacIntel,60.24096386,,,,,,,,,,,,,,,,,,,,,,125.233,125.4317,125.4318,125.9328,125.9332,127.265,z,1,1.3229,,[],[],[],[],[],[],[],1.3229,1,127.2651,127.7659,0,6,6,14,1,1015,NW,UN,16,miaber,THRALE,z,,,,,,,,,,,,,,,,,,,,,,,,,,,,,,,,,,,,,,,,,,,,,,,,,,,,,,,,,,,,,,,,,
,,,,32156,001,2025-10-16_13h45.52.667,HW_LDT_1,2024.2.4,MacIntel,60.24096386,,,,,,,,,,,,,,,,,,,,,,127.7673,127.9659,127.9659,128.465,128.4654,129.6331,m,1,1.153,,[],[],[],[],[],[],[],1.153,1,129.6332,130.133,0,7,7,0,1,1001,WORD,"ID",33,utopia,UTOPIA,m,,,,,,,,,,,,,,,,,,,,,,,,,,,,,,,,,,,,,,,,,,,,,,,,,,,,,,,,,,,,,,,,,
,,,,32156,001,2025-10-16_13h45.52.667,HW_LDT_1,2024.2.4,MacIntel,60.24096386,,,,,,,,,,,,,,,,,,,,,,130.1344,130.332,130.3321,130.8326,130.8334,132.6493,z,1,1.7946,,[],[],[],[],[],[],[],1.7946,1,132.6494,133.1492,0,8,8,13,1,1014,NW,UN,33,winfer,ROUPET,z,,,,,,,,,,,,,,,,,,,,,,,,,,,,,,,,,,,,,,,,,,,,,,,,,,,,,,,,,,,,,,,,,
,,,,32156,001,2025-10-16_13h45.52.667,HW_LDT_1,2024.2.4,MacIntel,60.24096386,,,,,,,,,,,,,,,,,,,,,,133.15,133.3492,133.3493,133.8493,133.8496,134.9163,z,1,1.06,,[],[],[],[],[],[],[],1.06,1,134.9165,135.415,0,9,9,8,1,1009,NW,"ID",33,aslert,ASLERT,z,,,,,,,,,,,,,,,,,,,,,,,,,,,,,,,,,,,,,,,,,,,,,,,,,,,,,,,,,,,,,,,,,
,,,,32156,001,2025-10-16_13h45.52.667,HW_LDT_1,2024.2.4,MacIntel,60.24096386,,,,,,,,,,,,,,,,,,,,,,135.4155,135.6163,135.6164,136.116,136.1165,140.1493,z,1,4.0265,,[],[],[],[],[],[],[],4.0265,1,140.1494,140.6493,0,10,10,9,1,1010,NW,"ID",33,fariny,FARINY,z,,,,,,,,,,,,,,,,,,,,,,,,,,,,,,,,,,,,,,,,,,,,,,,,,,,,,,,,,,,,,,,,,
,,,,32156,001,2025-10-16_13h45.52.667,HW_LDT_1,2024.2.4,MacIntel,60.24096386,,,,,,,,,,,,,,,,,,,,,,140.6496,140.8493,140.8493,141.3494,141.3497,142.983,z,1,1.6175,,[],[],[],[],[],[],[],1.6175,1,142.9831,143.4827,0,11,11,12,1,1013,NW,UN,33,adveil,SPRINY,z,,,,,,,,,,,,,,,,,,,,,,,,,,,,,,,,,,,,,,,,,,,,,,,,,,,,,,,,,,,,,,,,,
,,,,32156,001,2025-10-16_13h45.52.667,HW_LDT_1,2024.2.4,MacIntel,60.24096386,,,,,,,,,,,,,,,,,,,,,,143.4833,143.682,143.682,144.1827,144.1831,146.9334,m,0,2.7306,,[],[],[],[],[],[],[],2.7306,0,146.9343,147.4327,0,12,12,11,1,1012,NW,"ID",16,rashet,RASHET,z,,,,,,,,,,,,,,,,,,,,,,,,,,,,,,,,,,,,,,,,,,,,,,,,,,,,,,,,,,,,,,,,,
,,,,32156,001,2025-10-16_13h45.52.667,HW_LDT_1,2024.2.4,MacIntel,60.24096386,,,,,,,,,,,,,,,,,,,,,,147.4332,147.632,147.632,148.1326,148.133,151.1487,m,1,3.0047,,[],[],[],[],[],[],[],3.0047,1,151.1491,151.6488,0,13,13,5,1,1006,WORD,UN,33,frenzy,OBTAIN,m,,,,,,,,,,,,,,,,,,,,,,,,,,,,,,,,,,,,,,,,,,,,,,,,,,,,,,,,,,,,,,,,,
,,,,32156,001,2025-10-16_13h45.52.667,HW_LDT_1,2024.2.4,MacIntel,60.24096386,,,,,,,,,,,,,,,,,,,,,,151.6501,151.8496,151.8496,152.3487,152.3498,153.4984,z,0,1.128,,[],[],[],[],[],[],[],1.128,0,153.4988,153.9992,0,14,14,6,1,1007,WORD,UN,16,tropic,ZOMBIE,m,,,,,,,,,,,,,,,,,,,,,,,,,,,,,,,,,,,,,,,,,,,,,,,,,,,,,,,,,,,,,,,,,
,,,,32156,001,2025-10-16_13h45.52.667,HW_LDT_1,2024.2.4,MacIntel,60.24096386,,,,,,,,,,,,,,,,,,,,,,153.9996,154.1984,154.1984,154.6992,154.6995,156.7327,m,1,2.0274,,[],[],[],[],[],[],[],2.0274,1,156.733,157.233,0,15,15,4,1,1005,WORD,UN,33,abound,SQUEAK,m,,,,,,,,,,,,,,,,,,,,,,,,,,,,,,,,,,,,,,,,,,,,,,,,,,,,,,,,,,,,,,,,,
,,,,32156,001,2025-10-16_13h45.52.667,HW_LDT_1,2024.2.4,MacIntel,60.24096386,,,,,,,,,,,,,,,1,end_of_practice,"You have completed the practice trials. During the experimental trials, you will not receive feedback. On some trials you will be asked to report whether the item you just saw was in cursive or print. 
Before you begin, please ensure that you are in a comfortable and quiet location and will not be disturbed for about 15 minutes, as we cannot use your data if you do not complete all the trials. 
 When you are ready to start the experimental trials, please press space or touch the button below.",,,,,,,,,,,,,,,,,,,,,,,,,,,,,,,,,,,,,,157.24,158.8496,,-0.121832541,-0.412075408,1,0,0,instr_done_button_3,0,0,0,0,1,,,,,,,,,,,,,,,,,,,,,,,,,,,,,,,,,,,,,,,,,,,,,,,,,,,
,,,,32156,001,2025-10-16_13h45.52.667,HW_LDT_1,2024.2.4,MacIntel,60.24096386,,,,,,,,,,,,,,,,,,,,,,158.8562,159.0496,159.0496,159.5493,,,,,,,,,,,,,,3.1941,1,,,,,,,,,,,,,,z,,,,,,,,,,,,,,,1,0,159.5501,162.7486,z,1,3.1941,,[],[],[],[],[],[],[],162.7486,164.7484,164.7484,164.7493,[],[],[],[],[],[],[],,164.7493,164.7497,-0.12355214,-0.407171365,0,0,0,,0,0,0,48,1,2,TL,detabe,print,detabe_p.png,,,,,,
,,,,32156,001,2025-10-16_13h45.52.667,HW_LDT_1,2024.2.4,MacIntel,60.24096386,,,,,,,,,,,,,,,,,,,,,,164.7499,164.9495,164.9496,165.4494,,,,,,,,,,,,,,2.6313,1,,,,,,,,,,,,,,z,,,,,,,,,,,,,,,2,0,165.4496,168.0817,z,1,2.6313,,[],[],[],[],[],[],[],168.0817,170.0816,170.0816,170.0817,[],[],[],[],[],[],[],,170.0817,170.0817,-0.12355214,-0.407171365,0,0,0,,0,1,1,23,1,2,RL,procogal,cursive,procogal_c.png,,,,,,
,,,,32156,001,2025-10-16_13h45.52.667,HW_LDT_1,2024.2.4,MacIntel,60.24096386,,,,,,,,,,,,,,,,,,,,,,170.082,170.2829,170.283,170.7817,,,,,,,,,,,,,,7.6287,1,,,,,,,,,,,,,,z,,,,,,,,,,,,,,,3,1,170.7819,178.416,z,1,7.6287,,[],[],[],[],[],[],[],178.4161,180.4164,180.4165,185.5816,[],[],[],[],[],[],[],z,185.5817,185.5818,0.105689538,-0.073318614,0,0,0,,0,2,2,28,1,2,RL,revune,cursive,revune_c.png,5.1637,,,,,
,,,,32156,001,2025-10-16_13h45.52.667,HW_LDT_1,2024.2.4,MacIntel,60.24096386,,,,,,,,,,,,,,,,,,,,,,185.5822,185.7823,185.7824,186.2826,,,,,,,,,,,,,,1.4746,1,,,,,,,,,,,,,,m,,,,,,,,,,,,,,,4,1,186.2829,187.7654,m,1,1.4746,,[],[],[],[],[],[],[],187.7655,189.7664,189.7664,194.8826,[],[],[],[],[],[],[],z,194.8826,194.8827,0.105422045,-0.072796365,0,0,0,,0,3,3,80,1,2,word,ACADEMY,cursive,academy_c.png,5.1057,,,,,
,,,,32156,001,2025-10-16_13h45.52.667,HW_LDT_1,2024.2.4,MacIntel,60.24096386,,,,,,,,,,,,,,,,,,,,,,194.883,195.0828,195.0829,195.5826,,,,,,,,,,,,,,5.3969,1,,,,,,,,,,,,,,z,,,,,,,,,,,,,,,5,0,195.5827,200.9817,z,1,5.3969,,[],[],[],[],[],[],[],200.9817,202.9826,202.9827,202.9828,[],[],[],[],[],[],[],,202.9828,202.9828,0.105422045,-0.072796365,0,0,0,,0,4,4,10,1,2,RL,disluge,cursive,disluge_c.png,,,,,,
,,,,32156,001,2025-10-16_13h45.52.667,HW_LDT_1,2024.2.4,MacIntel,60.24096386,,,,,,,,,,,,,,,,,,,,,,202.9832,203.1829,203.1829,203.6826,,,,,,,,,,,,,,2.2038,1,,,,,,,,,,,,,,m,,,,,,,,,,,,,,,6,0,203.6828,205.8987,m,1,2.2038,,[],[],[],[],[],[],[],205.8988,207.8997,207.8999,207.9002,[],[],[],[],[],[],[],,207.9003,207.9005,0.105422045,-0.072796365,0,0,0,,0,5,5,150,1,2,word,SENTIMENT,cursive,sentiment_c.png,,,,,,
,,,,32156,001,2025-10-16_13h45.52.667,HW_LDT_1,2024.2.4,MacIntel,60.24096386,,,,,,,,,,,,,,,,,,,,,,207.9016,208.0996,208.0997,208.5998,,,,,,,,,,,,,,9.0444,1,,,,,,,,,,,,,,m,,,,,,,,,,,,,,,7,0,208.6004,217.6485,m,1,9.0444,,[],[],[],[],[],[],[],217.6486,219.6492,219.6492,219.6493,[],[],[],[],[],[],[],,219.6493,219.6493,0.105422045,-0.072796365,0,0,0,,0,6,6,134,1,2,word,QUALIFY,cursive,qualify_c.png,,,,,,
,,,,32156,001,2025-10-16_13h45.52.667,HW_LDT_1,2024.2.4,MacIntel,60.24096386,,,,,,,,,,,,,,,,,,,,,,219.6496,219.8493,219.8493,220.3493,,,,,,,,,,,,,,9.6197,1,,,,,,,,,,,,,,m,,,,,,,,,,,,,,,8,0,220.3494,229.982,m,1,9.6197,,[],[],[],[],[],[],[],229.9821,231.983,231.983,231.9834,[],[],[],[],[],[],[],,231.9834,231.9836,0.105422045,-0.072796365,0,0,0,,0,7,7,155,1,2,word,STRATEGY,cursive,strategy_c.png,,,,,,
,,,,32156,001,2025-10-16_13h45.52.667,HW_LDT_1,2024.2.4,MacIntel,60.24096386,,,,,,,,,,,,,,,,,,,,,,231.985,232.1828,232.1829,232.682,,,,,,,,,,,,,,4.0073,1,,,,,,,,,,,,,,z,,,,,,,,,,,,,,,9,1,232.6827,236.6996,z,1,4.0073,,[],[],[],[],[],[],[],236.6998,238.6996,238.6996,244.9994,[],[],[],[],[],[],[],z,244.9994,244.9995,0.105422045,-0.072796365,0,0,0,,0,8,8,17,1,2,RL,macise,cursive,macise_c.png,6.2939,0.0005,,,,
,,,,32156,001,2025-10-16_13h45.52.667,HW_LDT_1,2024.2.4,MacIntel,60.24096386,,,,,,,,,,,,,,,,,,,,,,244.9999,245.1995,245.1995,245.6983,,,,,,,,,,,,,,2.9876,1,,,,,,,,,,,,,,z,,,,,,,,,,,,,,,10,0,245.6987,248.6998,z,1,2.9876,,[],[],[],[],[],[],[],248.6999,250.6995,250.6996,250.6999,[],[],[],[],[],[],[],,250.6999,250.7001,0.105422045,-0.072796365,0,0,0,,0,9,9,51,1,2,TL,etidor,cursive,etidor_c.png,,,,,,
,,,,32156,001,2025-10-16_13h45.52.667,HW_LDT_1,2024.2.4,MacIntel,60.24096386,,,,,,,,,,,,,,,,,,,,,,250.7013,250.8983,250.8983,251.3995,,,,,,,,,,,,,,5.0024,1,,,,,,,,,,,,,,z,,,,,,,,,,,,,,,11,0,251.4,256.4159,z,1,5.0024,,[],[],[],[],[],[],[],256.416,258.4159,258.4159,258.416,[],[],[],[],[],[],[],,258.416,258.4161,0.105422045,-0.072796365,0,0,0,,0,10,10,33,1,2,RL,strapely,cursive,strapely_c.png,,,,,,
,,,,32156,001,2025-10-16_13h45.52.667,HW_LDT_1,2024.2.4,MacIntel,60.24096386,,,,,,,,,,,,,,,,,,,,,,258.4163,258.6153,258.6153,259.1159,,,,,,,,,,,,,,1.9564,1,,,,,,,,,,,,,,m,,,,,,,,,,,,,,,12,1,259.1162,261.0826,m,1,1.9564,,[],[],[],[],[],[],[],261.0826,263.0816,263.0817,264.6831,[],[],[],[],[],[],[],m,264.6832,264.6834,0.105422045,-0.072796365,0,0,0,,0,11,11,102,1,2,word,DENSITY,print,density_p.png,1.5882,,,,,
,,,,32156,001,2025-10-16_13h45.52.667,HW_LDT_1,2024.2.4,MacIntel,60.24096386,,,,,,,,,,,,,,,,,,,,,,264.6847,264.8821,264.8821,265.3829,,,,,,,,,,,,,,2.3769,1,,,,,,,,,,,,,,m,,,,,,,,,,,,,,,13,0,265.3835,267.766,m,1,2.3769,,[],[],[],[],[],[],[],267.7661,269.7651,269.7651,269.7652,[],[],[],[],[],[],[],,269.7652,269.7652,0.105422045,-0.072796365,0,0,0,,0,12,12,86,1,2,word,BESIDE,cursive,beside_c.png,,,,,,
,,,,32156,001,2025-10-16_13h45.52.667,HW_LDT_1,2024.2.4,MacIntel,60.24096386,,,,,,,,,,,,,,,,,,,,,,269.7657,269.9662,269.9663,270.4659,,,,,,,,,,,,,,6.7187,0,,,,,,,,,,,,,,m,,,,,,,,,,,,,,,14,0,270.4662,277.1993,z,0,6.7187,,[],[],[],[],[],[],[],277.1993,279.1993,279.1993,279.1993,[],[],[],[],[],[],[],,279.1993,279.1994,0.105422045,-0.072796365,0,0,0,,0,13,13,103,1,2,word,DISPUTE,cursive,dispute_c.png,,,,,,
,,,,32156,001,2025-10-16_13h45.52.667,HW_LDT_1,2024.2.4,MacIntel,60.24096386,,,,,,,,,,,,,,,,,,,,,,279.1998,279.3997,279.3998,279.8983,,,,,,,,,,,,,,1.879,1,,,,,,,,,,,,,,m,,,,,,,,,,,,,,,15,0,279.8985,281.7827,m,1,1.879,,[],[],[],[],[],[],[],281.7827,283.7826,283.7826,283.7826,[],[],[],[],[],[],[],,283.7826,283.7827,0.105422045,-0.072796365,0,0,0,,0,14,14,133,1,2,word,PROVIDE,cursive,provide_c.png,,,,,,
,,,,32156,001,2025-10-16_13h45.52.667,HW_LDT_1,2024.2.4,MacIntel,60.24096386,,,,,,,,,,,,,,,,,,,,,,283.783,283.982,283.982,284.4826,,,,,,,,,,,,,,3.0983,1,,,,,,,,,,,,,,z,,,,,,,,,,,,,,,16,0,284.4828,287.583,z,1,3.0983,,[],[],[],[],[],[],[],287.5831,289.583,289.5831,289.5833,[],[],[],[],[],[],[],,289.5834,289.5835,0.105422045,-0.072796365,0,0,0,,0,15,15,21,1,2,RL,pamest,print,pamest_p.png,,,,,,
,,,,32156,001,2025-10-16_13h45.52.667,HW_LDT_1,2024.2.4,MacIntel,60.24096386,,,,,,,,,,,,,,,,,,,,,,289.5851,289.7816,289.7816,290.2829,,,,,,,,,,,,,,3.5262,1,,,,,,,,,,,,,,m,,,,,,,,,,,,,,,17,0,290.2836,293.816,m,1,3.5262,,[],[],[],[],[],[],[],293.816,295.8159,295.8159,295.8159,[],[],[],[],[],[],[],,295.8159,295.8159,0.105422045,-0.072796365,0,0,0,,0,16,16,88,1,2,word,CAMERA,print,camera_p.png,,,,,,
,,,,32156,001,2025-10-16_13h45.52.667,HW_LDT_1,2024.2.4,MacIntel,60.24096386,,,,,,,,,,,,,,,,,,,,,,295.8162,296.0162,296.0162,296.5159,,,,,,,,,,,,,,1.5537,1,,,,,,,,,,,,,,z,,,,,,,,,,,,,,,18,0,296.5161,298.083,z,1,1.5537,,[],[],[],[],[],[],[],298.0831,300.0829,300.0829,300.0831,[],[],[],[],[],[],[],,300.0831,300.0833,0.105422045,-0.072796365,0,0,0,,0,17,17,8,1,2,RL,desifate,print,desifate_p.png,,,,,,
,,,,32156,001,2025-10-16_13h45.52.667,HW_LDT_1,2024.2.4,MacIntel,60.24096386,,,,,,,,,,,,,,,,,,,,,,300.0841,300.283,300.2831,300.7829,,,,,,,,,,,,,,3.0701,0,,,,,,,,,,,,,,m,,,,,,,,,,,,,,,19,0,300.7835,303.866,z,0,3.0701,,[],[],[],[],[],[],[],303.8661,305.8649,305.8649,305.865,[],[],[],[],[],[],[],,305.865,305.8651,0.105422045,-0.072796365,0,0,0,,0,18,18,123,1,2,word,MODERATE,cursive,moderate_c.png,,,,,,
,,,,32156,001,2025-10-16_13h45.52.667,HW_LDT_1,2024.2.4,MacIntel,60.24096386,,,,,,,,,,,,,,,,,,,,,,305.8654,306.0653,306.0653,306.5658,,,,,,,,,,,,,,6.0193,0,,,,,,,,,,,,,,m,,,,,,,,,,,,,,,20,0,306.5661,312.5993,z,0,6.0193,,[],[],[],[],[],[],[],312.5993,314.5984,314.5984,314.5984,[],[],[],[],[],[],[],,314.5984,314.5985,0.105422045,-0.072796365,0,0,0,,0,19,19,120,1,2,word,MILITARY,cursive,military_c.png,,,,,,
,,,,32156,001,2025-10-16_13h45.52.667,HW_LDT_1,2024.2.4,MacIntel,60.24096386,,,,,,,,,,,,,,,,,,,,,,314.5987,314.7994,314.7994,315.2991,,,,,,,,,,,,,,1.3567,1,,,,,,,,,,,,,,m,,,,,,,,,,,,,,,21,1,315.2994,316.6659,m,1,1.3567,,[],[],[],[],[],[],[],316.6659,318.6659,318.6659,319.9659,[],[],[],[],[],[],[],m,319.9659,319.9659,0.105422045,-0.072796365,0,0,0,,0,20,20,147,1,2,word,ROMANTIC,print,romantic_p.png,1.2925,,,,,
,,,,32156,001,2025-10-16_13h45.52.667,HW_LDT_1,2024.2.4,MacIntel,60.24096386,,,,,,,,,,,,,,,,,,,,,,319.9663,320.1661,320.1661,320.6658,,,,,,,,,,,,,,1.9594,1,,,,,,,,,,,,,,m,,,,,,,,,,,,,,,22,0,320.6661,322.6326,m,1,1.9594,,[],[],[],[],[],[],[],322.6327,324.6325,324.6325,324.6325,[],[],[],[],[],[],[],,324.6326,324.6326,0.105422045,-0.072796365,0,0,0,,0,21,21,93,1,2,word,CEREMONY,print,ceremony_p.png,,,,,,
,,,,32156,001,2025-10-16_13h45.52.667,HW_LDT_1,2024.2.4,MacIntel,60.24096386,,,,,,,,,,,,,,,,,,,,,,324.633,324.8328,324.8329,325.3326,,,,,,,,,,,,,,3.5204,0,,,,,,,,,,,,,,m,,,,,,,,,,,,,,,23,0,325.3327,328.8662,z,0,3.5204,,[],[],[],[],[],[],[],328.8663,330.8661,330.8663,330.8665,[],[],[],[],[],[],[],,330.8665,330.8666,0.105422045,-0.072796365,0,0,0,,0,22,22,126,1,2,word,OPTIMAL,cursive,optimal_c.png,,,,,,
,,,,32156,001,2025-10-16_13h45.52.667,HW_LDT_1,2024.2.4,MacIntel,60.24096386,,,,,,,,,,,,,,,,,,,,,,330.8675,331.0663,331.0664,331.5663,,,,,,,,,,,,,,1.1801,1,,,,,,,,,,,,,,z,,,,,,,,,,,,,,,24,0,331.567,332.7492,z,1,1.1801,,[],[],[],[],[],[],[],332.7493,334.7492,334.7493,334.7493,[],[],[],[],[],[],[],,334.7493,334.7493,0.105422045,-0.072796365,0,0,0,,0,23,23,41,1,2,TL,befenit,cursive,befenit_c.png,,,,,,
,,,,32156,001,2025-10-16_13h45.52.667,HW_LDT_1,2024.2.4,MacIntel,60.24096386,,,,,,,,,,,,,,,,,,,,,,334.7498,334.9495,334.9496,335.4492,,,,,,,,,,,,,,2.9893,1,,,,,,,,,,,,,,z,,,,,,,,,,,,,,,25,0,335.4495,338.4496,z,1,2.9893,,[],[],[],[],[],[],[],338.4496,340.4497,340.4497,340.4499,[],[],[],[],[],[],[],,340.45,340.4502,0.105422045,-0.072796365,0,0,0,,0,24,24,44,1,2,TL,catipal,cursive,catipal_c.png,,,,,,
,,,,32156,001,2025-10-16_13h45.52.667,HW_LDT_1,2024.2.4,MacIntel,60.24096386,,,,,,,,,,,,,,,,,,,,,,340.4517,340.6491,340.6491,341.1496,,,,,,,,,,,,,,9.225,0,,,,,,,,,,,,,,m,,,,,,,,,,,,,,,26,0,341.1503,350.383,z,0,9.225,,[],[],[],[],[],[],[],350.3831,352.383,352.3831,352.3833,[],[],[],[],[],[],[],,352.3834,352.3836,0.105422045,-0.072796365,0,0,0,,0,25,25,125,1,2,word,OPERATOR,cursive,operator_c.png,,,,,,
,,,,32156,001,2025-10-16_13h45.52.667,HW_LDT_1,2024.2.4,MacIntel,60.24096386,,,,,,,,,,,,,,,,,,,,,,352.3853,352.5825,352.5825,353.0824,,,,,,,,,,,,,,1.2534,1,,,,,,,,,,,,,,m,,,,,,,,,,,,,,,27,0,353.083,354.3487,m,1,1.2534,,[],[],[],[],[],[],[],354.3488,356.3497,356.3498,356.3503,[],[],[],[],[],[],[],,356.3504,356.3505,0.105422045,-0.072796365,0,0,0,,0,26,26,99,1,2,word,DEBATE,print,debate_p.png,,,,,,
,,,,32156,001,2025-10-16_13h45.52.667,HW_LDT_1,2024.2.4,MacIntel,60.24096386,,,,,,,,,,,,,,,,,,,,,,356.352,356.5492,356.5492,357.0496,,,,,,,,,,,,,,3.6555,1,,,,,,,,,,,,,,m,,,,,,,,,,,,,,,28,1,357.0501,360.7159,m,1,3.6555,,[],[],[],[],[],[],[],360.716,362.7159,362.716,364.066,[],[],[],[],[],[],[],m,364.066,364.0661,0.105422045,-0.072796365,0,0,0,,0,27,27,157,1,2,word,VALIDITY,print,validity_p.png,1.3478,,,,,
,,,,32156,001,2025-10-16_13h45.52.667,HW_LDT_1,2024.2.4,MacIntel,60.24096386,,,,,,,,,,,,,,,,,,,,,,364.0664,364.2662,364.2662,364.7658,,,,,,,,,,,,,,5.3471,1,,,,,,,,,,,,,,z,,,,,,,,,,,,,,,29,0,364.7661,370.1159,z,1,5.3471,,[],[],[],[],[],[],[],370.1159,372.1159,372.1159,372.116,[],[],[],[],[],[],[],,372.116,372.116,0.105422045,-0.072796365,0,0,0,,0,28,28,43,1,2,TL,carema,print,carema_p.png,,,,,,
,,,,32156,001,2025-10-16_13h45.52.667,HW_LDT_1,2024.2.4,MacIntel,60.24096386,,,,,,,,,,,,,,,,,,,,,,372.1164,372.3161,372.3162,372.8159,,,,,,,,,,,,,,3.6653,1,,,,,,,,,,,,,,m,,,,,,,,,,,,,,,30,0,372.8161,376.4826,m,1,3.6653,,[],[],[],[],[],[],[],376.4826,378.4826,378.4827,378.4829,[],[],[],[],[],[],[],,378.4829,378.4829,0.105422045,-0.072796365,0,0,0,,0,29,29,124,1,2,word,NUMERICAL,cursive,numerical_c.png,,,,,,
,,,,32156,001,2025-10-16_13h45.52.667,HW_LDT_1,2024.2.4,MacIntel,60.24096386,,,,,,,,,,,,,,,,,,,,,,378.4841,378.6828,378.6829,379.1829,,,,,,,,,,,,,,5.094,1,,,,,,,,,,,,,,z,,,,,,,,,,,,,,,31,0,379.1836,384.2825,z,1,5.094,,[],[],[],[],[],[],[],384.2825,386.2825,386.2825,386.2826,[],[],[],[],[],[],[],,386.2826,386.2826,0.105422045,-0.072796365,0,0,0,,0,30,30,72,1,2,TL,revomal,print,revomal_p.png,,,,,,
,,,,32156,001,2025-10-16_13h45.52.667,HW_LDT_1,2024.2.4,MacIntel,60.24096386,,,,,,,,,,,,,,,,,,,,,,386.283,386.4825,386.4825,386.9825,,,,,,,,,,,,,,1.6387,1,,,,,,,,,,,,,,z,,,,,,,,,,,,,,,32,0,386.9826,388.6328,z,1,1.6387,,[],[],[],[],[],[],[],388.6329,390.6329,390.6329,390.6331,[],[],[],[],[],[],[],,390.6331,390.6333,0.105422045,-0.072796365,0,0,0,,0,31,31,9,1,2,RL,denficy,print,denficy_p.png,,,,,,
,,,,32156,001,2025-10-16_13h45.52.667,HW_LDT_1,2024.2.4,MacIntel,60.24096386,,,,,,,,,,,,,,,,,,,,,,390.6349,390.8314,390.8315,391.333,,,,,,,,,,,,,,1.3182,1,,,,,,,,,,,,,,z,,,,,,,,,,,,,,,33,0,391.3336,392.6661,z,1,1.3182,,[],[],[],[],[],[],[],392.6661,394.6662,394.6664,394.6666,[],[],[],[],[],[],[],,394.6666,394.6668,0.105422045,-0.072796365,0,0,0,,0,32,32,4,1,2,RL,cenesony,print,cenesony_p.png,,,,,,
,,,,32156,001,2025-10-16_13h45.52.667,HW_LDT_1,2024.2.4,MacIntel,60.24096386,,,,,,,,,,,,,,,,,,,,,,394.6681,394.8648,394.8648,395.3662,,,,,,,,,,,,,,1.0967,1,,,,,,,,,,,,,,z,,,,,,,,,,,,,,,34,0,395.3669,396.4649,z,1,1.0967,,[],[],[],[],[],[],[],396.4649,398.4649,398.4649,398.465,[],[],[],[],[],[],[],,398.4651,398.4651,0.105422045,-0.072796365,0,0,0,,0,33,33,65,1,2,TL,polupar,cursive,polupar_c.png,,,,,,
,,,,32156,001,2025-10-16_13h45.52.667,HW_LDT_1,2024.2.4,MacIntel,60.24096386,,,,,,,,,,,,,,,,,,,,,,398.4657,398.6651,398.6652,399.1661,,,,,,,,,,,,,,1.1535,1,,,,,,,,,,,,,,z,,,,,,,,,,,,,,,35,1,399.1668,400.3325,z,1,1.1535,,[],[],[],[],[],[],[],400.3326,402.3325,402.3325,408.7495,[],[],[],[],[],[],[],m,408.7496,408.7497,0.105422045,-0.072796365,0,0,0,,0,34,34,39,1,2,TL,aminal,print,aminal_p.png,6.415,,,,,
,,,,32156,001,2025-10-16_13h45.52.667,HW_LDT_1,2024.2.4,MacIntel,60.24096386,,,,,,,,,,,,,,,,,,,,,,408.7511,408.9481,408.9481,409.4496,,,,,,,,,,,,,,4.2447,1,,,,,,,,,,,,,,z,,,,,,,,,,,,,,,36,1,409.4503,413.6992,z,1,4.2447,,[],[],[],[],[],[],[],413.6993,415.6992,415.6992,417.7159,[],[],[],[],[],[],[],z,417.7159,417.716,0.105422045,-0.072796365,0,0,0,,0,35,35,45,1,2,TL,carnidal,cursive,carnidal_c.png,2.0122,,,,,
,,,,32156,001,2025-10-16_13h45.52.667,HW_LDT_1,2024.2.4,MacIntel,60.24096386,,,,,,,,,,,,,,,,,,,,,,417.7164,417.9161,417.9161,418.4158,,,,,,,,,,,,,,2.9158,1,,,,,,,,,,,,,,z,,,,,,,,,,,,,,,37,0,418.416,421.3328,z,1,2.9158,,[],[],[],[],[],[],[],421.333,423.3327,423.3328,423.333,[],[],[],[],[],[],[],,423.333,423.3332,0.105422045,-0.072796365,0,0,0,,0,36,36,34,1,2,RL,trilude,cursive,trilude_c.png,,,,,,
,,,,32156,001,2025-10-16_13h45.52.667,HW_LDT_1,2024.2.4,MacIntel,60.24096386,,,,,,,,,,,,,,,,,,,,,,423.3347,423.5315,423.5315,424.0318,,,,,,,,,,,,,,4.1278,1,,,,,,,,,,,,,,z,,,,,,,,,,,,,,,38,0,424.0322,428.1662,z,1,4.1278,,[],[],[],[],[],[],[],428.1663,430.1662,430.1663,430.1665,[],[],[],[],[],[],[],,430.1666,430.1667,0.105422045,-0.072796365,0,0,0,,0,37,37,13,1,2,RL,helicage,print,helicage_p.png,,,,,,
,,,,32156,001,2025-10-16_13h45.52.667,HW_LDT_1,2024.2.4,MacIntel,60.24096386,,,,,,,,,,,,,,,,,,,,,,430.1683,430.3648,430.3648,430.8662,,,,,,,,,,,,,,1.5618,1,,,,,,,,,,,,,,z,,,,,,,,,,,,,,,39,0,430.8671,432.4325,z,1,1.5618,,[],[],[],[],[],[],[],432.4325,434.4316,434.4316,434.4316,[],[],[],[],[],[],[],,434.4316,434.4316,0.105422045,-0.072796365,0,0,0,,0,38,38,64,1,2,TL,paficic,print,paficic_p.png,,,,,,
,,,,32156,001,2025-10-16_13h45.52.667,HW_LDT_1,2024.2.4,MacIntel,60.24096386,,,,,,,,,,,,,,,,,,,,,,434.432,434.6328,434.6328,435.1325,,,,,,,,,,,,,,1.2852,1,,,,,,,,,,,,,,z,,,,,,,,,,,,,,,40,0,435.1328,436.4325,z,1,1.2852,,[],[],[],[],[],[],[],436.4326,438.4315,438.4316,438.4316,[],[],[],[],[],[],[],,438.4316,438.4316,0.105422045,-0.072796365,0,0,0,,0,39,39,73,1,2,TL,redisent,print,redisent_p.png,,,,,,
,,,,32156,001,2025-10-16_13h45.52.667,HW_LDT_1,2024.2.4,MacIntel,60.24096386,,,,,,,,,,,,,,,,,,,,,,438.4319,438.6318,438.6318,439.1315,,,,,,,,,,,,,,7.1435,1,,,,,,,,,,,,,,z,,,,,,,,,,,,,,,41,0,439.1316,446.2829,z,1,7.1435,,[],[],[],[],[],[],[],446.283,448.2818,448.2818,448.282,[],[],[],[],[],[],[],,448.282,448.2821,0.105422045,-0.072796365,0,0,0,,0,40,40,57,1,2,TL,meromy,cursive,meromy_c.png,,,,,,
,,,,32156,001,2025-10-16_13h45.52.667,HW_LDT_1,2024.2.4,MacIntel,60.24096386,,,,,,,,,,,,,,,,,,,,,,448.2833,448.4824,448.4825,448.9815,,,,,,,,,,,,,,0.8053,1,,,,,,,,,,,,,,z,,,,,,,,,,,,,,,42,0,448.9817,449.7991,z,1,0.8053,,[],[],[],[],[],[],[],449.7991,451.7981,451.7981,451.7982,[],[],[],[],[],[],[],,451.7982,451.7982,0.105422045,-0.072796365,0,0,0,,0,41,41,59,1,2,TL,miskate,cursive,miskate_c.png,,,,,,
,,,,32156,001,2025-10-16_13h45.52.667,HW_LDT_1,2024.2.4,MacIntel,60.24096386,,,,,,,,,,,,,,,,,,,,,,451.7985,451.9994,451.9994,452.4982,,,,,,,,,,,,,,1.4208,1,,,,,,,,,,,,,,m,,,,,,,,,,,,,,,43,0,452.4984,453.9325,m,1,1.4208,,[],[],[],[],[],[],[],453.9325,455.9314,455.9315,455.9316,[],[],[],[],[],[],[],,455.9316,455.9316,0.105422045,-0.072796365,0,0,0,,0,42,42,137,1,2,word,RAPIDLY,print,rapidly_p.png,,,,,,
,,,,32156,001,2025-10-16_13h45.52.667,HW_LDT_1,2024.2.4,MacIntel,60.24096386,,,,,,,,,,,,,,,,,,,,,,455.9322,456.1328,456.1329,456.6316,,,,,,,,,,,,,,0.8877,1,,,,,,,,,,,,,,m,,,,,,,,,,,,,,,44,0,456.6319,457.5317,m,1,0.8877,,[],[],[],[],[],[],[],457.5317,459.5325,459.5326,459.5327,[],[],[],[],[],[],[],,459.5327,459.5328,0.105422045,-0.072796365,0,0,0,,0,43,43,149,1,2,word,SENATOR,print,senator_p.png,,,,,,
,,,,32156,001,2025-10-16_13h45.52.667,HW_LDT_1,2024.2.4,MacIntel,60.24096386,,,,,,,,,,,,,,,,,,,,,,459.5338,459.7324,459.7324,460.2319,,,,,,,,,,,,,,1.8039,1,,,,,,,,,,,,,,m,,,,,,,,,,,,,,,45,0,460.2326,462.049,m,1,1.8039,,[],[],[],[],[],[],[],462.0492,464.0482,464.0483,464.0484,[],[],[],[],[],[],[],,464.0484,464.0486,0.105422045,-0.072796365,0,0,0,,0,44,44,94,1,2,word,CLINICAL,cursive,clinical_c.png,,,,,,
,,,,32156,001,2025-10-16_13h45.52.667,HW_LDT_1,2024.2.4,MacIntel,60.24096386,,,,,,,,,,,,,,,,,,,,,,464.0495,464.2493,464.2493,464.7485,,,,,,,,,,,,,,2.1025,0,,,,,,,,,,,,,,m,,,,,,,,,,,,,,,46,0,464.7491,466.8658,z,0,2.1025,,[],[],[],[],[],[],[],466.8659,468.8651,468.8652,468.8653,[],[],[],[],[],[],[],,468.8653,468.8654,0.105422045,-0.072796365,0,0,0,,0,45,45,121,1,2,word,MISTAKE,cursive,mistake_c.png,,,,,,
,,,,32156,001,2025-10-16_13h45.52.667,HW_LDT_1,2024.2.4,MacIntel,60.24096386,,,,,,,,,,,,,,,,,,,,,,468.8665,469.0657,469.0658,469.5651,,,,,,,,,,,,,,3.0705,0,,,,,,,,,,,,,,m,,,,,,,,,,,,,,,47,0,469.5659,472.6495,z,0,3.0705,,[],[],[],[],[],[],[],472.6496,474.6491,474.6492,474.6492,[],[],[],[],[],[],[],,474.6493,474.6493,0.105422045,-0.072796365,0,0,0,,0,46,46,109,1,2,word,GRATEFUL,cursive,grateful_c.png,,,,,,
,,,,32156,001,2025-10-16_13h45.52.667,HW_LDT_1,2024.2.4,MacIntel,60.24096386,,,,,,,,,,,,,,,,,,,,,,474.6499,474.8481,474.8481,475.3483,,,,,,,,,,,,,,1.7358,1,,,,,,,,,,,,,,z,,,,,,,,,,,,,,,48,0,475.3486,477.0982,z,1,1.7358,,[],[],[],[],[],[],[],477.0982,479.0992,479.0993,479.0993,[],[],[],[],[],[],[],,479.0993,479.0994,0.105422045,-0.072796365,0,0,0,,0,47,47,37,1,2,TL,adacemy,cursive,adacemy_c.png,,,,,,
,,,,32156,001,2025-10-16_13h45.52.667,HW_LDT_1,2024.2.4,MacIntel,60.24096386,,,,,,,,,,,,,,,,,,,,,,479.0997,479.2991,479.2991,479.7991,,,,,,,,,,,,,,1.2951,1,,,,,,,,,,,,,,z,,,,,,,,,,,,,,,49,0,479.7993,481.0982,z,1,1.2951,,[],[],[],[],[],[],[],481.0983,483.0981,483.0982,483.0983,[],[],[],[],[],[],[],,483.0983,483.0984,0.105422045,-0.072796365,0,0,0,,0,48,48,16,1,2,RL,losipal,print,losipal_p.png,,,,,,
,,,,32156,001,2025-10-16_13h45.52.667,HW_LDT_1,2024.2.4,MacIntel,60.24096386,,,,,,,,,,,,,,,,,,,,,,483.0988,483.2995,483.2995,483.7982,,,,,,,,,,,,,,1.0064,1,,,,,,,,,,,,,,z,,,,,,,,,,,,,,,50,0,483.7985,484.8157,z,1,1.0064,,[],[],[],[],[],[],[],484.8158,486.8163,486.8164,486.8166,[],[],[],[],[],[],[],,486.8167,486.8169,0.105422045,-0.072796365,0,0,0,,0,49,49,12,1,2,RL,gralekul,cursive,gralekul_c.png,,,,,,
,,,,32156,001,2025-10-16_13h45.52.667,HW_LDT_1,2024.2.4,MacIntel,60.24096386,,,,,,,,,,,,,,,,,,,,,,486.8186,487.0148,487.0148,487.516,,,,,,,,,,,,,,2.8944,0,,,,,,,,,,,,,,m,,,,,,,,,,,,,,,51,0,487.5164,490.4158,z,0,2.8944,,[],[],[],[],[],[],[],490.4159,492.4157,492.4157,492.4158,[],[],[],[],[],[],[],,492.4158,492.4158,0.105422045,-0.072796365,0,0,0,,0,50,50,117,1,2,word,MARINE,cursive,marine_c.png,,,,,,
,,,,32156,001,2025-10-16_13h45.52.667,HW_LDT_1,2024.2.4,MacIntel,60.24096386,,,,,,,,,,,,,,,,,,,,,,492.4161,492.6151,492.6152,493.1147,,,,,,,,,,,,,,2.0365,0,,,,,,,,,,,,,,m,,,,,,,,,,,,,,,52,0,493.115,495.1658,z,0,2.0365,,[],[],[],[],[],[],[],495.1659,497.1658,497.1659,497.1659,[],[],[],[],[],[],[],,497.166,497.166,0.105422045,-0.072796365,0,0,0,,0,51,51,111,1,2,word,INDICATE,cursive,indicate_c.png,,,,,,
,,,,32156,001,2025-10-16_13h45.52.667,HW_LDT_1,2024.2.4,MacIntel,60.24096386,,,,,,,,,,,,,,,,,,,,,,497.1665,497.366,497.366,497.8658,,,,,,,,,,,,,,0.6569,1,,,,,,,,,,,,,,z,,,,,,,,,,,,,,,53,0,497.8661,498.5324,z,1,0.6569,,[],[],[],[],[],[],[],498.5325,500.5325,500.5325,500.5325,[],[],[],[],[],[],[],,500.5326,500.5326,0.105422045,-0.072796365,0,0,0,,0,52,52,27,1,2,RL,repifion,cursive,repifion_c.png,,,,,,
,,,,32156,001,2025-10-16_13h45.52.667,HW_LDT_1,2024.2.4,MacIntel,60.24096386,,,,,,,,,,,,,,,,,,,,,,500.533,500.7319,500.7319,501.2315,,,,,,,,,,,,,,2.6389,1,,,,,,,,,,,,,,z,,,,,,,,,,,,,,,54,0,501.2317,503.8824,z,1,2.6389,,[],[],[],[],[],[],[],503.8825,505.8825,505.8825,505.8826,[],[],[],[],[],[],[],,505.8826,505.8826,0.105422045,-0.072796365,0,0,0,,0,53,53,32,1,2,RL,speniven,print,speniven_p.png,,,,,,
,,,,32156,001,2025-10-16_13h45.52.667,HW_LDT_1,2024.2.4,MacIntel,60.24096386,,,,,,,,,,,,,,,,,,,,,,505.883,506.0828,506.083,506.5825,,,,,,,,,,,,,,0.5257,0,,,,,,,,,,,,,,m,,,,,,,,,,,,,,,55,0,506.5827,507.1148,z,0,0.5257,,[],[],[],[],[],[],[],507.1148,509.1157,509.1157,509.1158,[],[],[],[],[],[],[],,509.1158,509.1158,0.105422045,-0.072796365,0,0,0,,0,54,54,112,1,2,word,LIBERAL,print,liberal_p.png,,,,,,
,,,,32156,001,2025-10-16_13h45.52.667,HW_LDT_1,2024.2.4,MacIntel,60.24096386,,,,,,,,,,,,,,,,,,,,,,509.1161,509.3161,509.3161,509.8158,,,,,,,,,,,,,,0.8416,1,,,,,,,,,,,,,,m,,,,,,,,,,,,,,,56,0,509.816,510.6662,m,1,0.8416,,[],[],[],[],[],[],[],510.6662,512.6658,512.6659,512.666,[],[],[],[],[],[],[],,512.666,512.666,0.105422045,-0.072796365,0,0,0,,0,55,55,130,1,2,word,POLICY,print,policy_p.png,,,,,,
,,,,32156,001,2025-10-16_13h45.52.667,HW_LDT_1,2024.2.4,MacIntel,60.24096386,,,,,,,,,,,,,,,,,,,,,,512.6668,512.8661,512.8662,513.3662,,,,,,,,,,,,,,0.5041,1,,,,,,,,,,,,,,m,,,,,,,,,,,,,,,57,1,513.3668,513.8824,m,1,0.5041,,[],[],[],[],[],[],[],513.8824,515.8825,515.8825,517.7991,[],[],[],[],[],[],[],m,517.7991,517.7991,0.105422045,-0.072796365,0,0,0,,0,56,56,128,1,2,word,PACIFIC,print,pacific_p.png,1.9014,,,,,
,,,,32156,001,2025-10-16_13h45.52.667,HW_LDT_1,2024.2.4,MacIntel,60.24096386,,,,,,,,,,,,,,,,,,,,,,517.7995,517.9993,517.9994,518.4991,,,,,,,,,,,,,,2.8868,1,,,,,,,,,,,,,,z,,,,,,,,,,,,,,,58,0,518.4994,521.3986,z,1,2.8868,,[],[],[],[],[],[],[],521.3987,523.3985,523.3985,523.3986,[],[],[],[],[],[],[],,523.3986,523.3987,0.105422045,-0.072796365,0,0,0,,0,57,57,56,1,2,TL,marnigal,cursive,marnigal_c.png,,,,,,
,,,,32156,001,2025-10-16_13h45.52.667,HW_LDT_1,2024.2.4,MacIntel,60.24096386,,,,,,,,,,,,,,,,,,,,,,523.3998,523.5995,523.5996,524.0994,,,,,,,,,,,,,,3.2722,1,,,,,,,,,,,,,,z,,,,,,,,,,,,,,,59,0,524.0999,527.3829,z,1,3.2722,,[],[],[],[],[],[],[],527.383,529.3827,529.3828,529.383,[],[],[],[],[],[],[],,529.3831,529.3832,0.105422045,-0.072796365,0,0,0,,0,58,58,40,1,2,TL,bevoled,cursive,bevoled_c.png,,,,,,
,,,,32156,001,2025-10-16_13h45.52.667,HW_LDT_1,2024.2.4,MacIntel,60.24096386,,,,,,,,,,,,,,,,,,,,,,529.3848,529.5829,529.5829,530.0818,,,,,,,,,,,,,,1.3206,1,,,,,,,,,,,,,,m,,,,,,,,,,,,,,,60,0,530.0822,531.4161,m,1,1.3206,,[],[],[],[],[],[],[],531.4162,533.4151,533.4151,533.4153,[],[],[],[],[],[],[],,533.4153,533.4154,0.105422045,-0.072796365,0,0,0,,0,59,59,101,1,2,word,DELICATE,print,delicate_p.png,,,,,,
,,,,32156,001,2025-10-16_13h45.52.667,HW_LDT_1,2024.2.4,MacIntel,60.24096386,,,,,,,,,,,,,,,,,,,,,,533.4165,533.6162,533.6162,534.1161,,,,,,,,,,,,,,3.0626,1,,,,,,,,,,,,,,m,,,,,,,,,,,,,,,61,0,534.1167,537.1825,m,1,3.0626,,[],[],[],[],[],[],[],537.1825,539.1825,539.1825,539.1826,[],[],[],[],[],[],[],,539.1826,539.1826,0.105422045,-0.072796365,0,0,0,,0,60,60,135,1,2,word,QUALITY,cursive,quality_c.png,,,,,,
,,,,32156,001,2025-10-16_13h45.52.667,HW_LDT_1,2024.2.4,MacIntel,60.24096386,,,,,,,,,,,,,,,,,,,,,,539.183,539.3818,539.3818,539.8824,,,,,,,,,,,,,,1.2852,1,,,,,,,,,,,,,,m,,,,,,,,,,,,,,,62,0,539.8826,541.1824,m,1,1.2852,,[],[],[],[],[],[],[],541.1824,543.1824,543.1824,543.1825,[],[],[],[],[],[],[],,543.1825,543.1825,0.105422045,-0.072796365,0,0,0,,0,61,61,114,1,2,word,LOCATE,print,locate_p.png,,,,,,
,,,,32156,001,2025-10-16_13h45.52.667,HW_LDT_1,2024.2.4,MacIntel,60.24096386,,,,,,,,,,,,,,,,,,,,,,543.1828,543.3815,543.3815,543.8825,,,,,,,,,,,,,,3.0707,1,,,,,,,,,,,,,,z,,,,,,,,,,,,,,,63,1,543.8827,546.9661,z,1,3.0707,,[],[],[],[],[],[],[],546.9661,548.966,548.966,552.5815,[],[],[],[],[],[],[],z,552.5815,552.5816,0.105422045,-0.072796365,0,0,0,,0,62,62,68,1,2,TL,quatily,cursive,quatily_c.png,3.6063,,,,,
,,,,32156,001,2025-10-16_13h45.52.667,HW_LDT_1,2024.2.4,MacIntel,60.24096386,,,,,,,,,,,,,,,,,,,,,,552.582,552.7822,552.7822,553.2824,,,,,,,,,,,,,,3.5876,1,,,,,,,,,,,,,,z,,,,,,,,,,,,,,,64,0,553.2827,556.8828,z,1,3.5876,,[],[],[],[],[],[],[],556.8829,558.8829,558.883,558.8833,[],[],[],[],[],[],[],,558.8833,558.8834,0.105422045,-0.072796365,0,0,0,,0,63,63,66,1,2,TL,prodive,cursive,prodive_c.png,,,,,,
,,,,32156,001,2025-10-16_13h45.52.667,HW_LDT_1,2024.2.4,MacIntel,60.24096386,,,,,,,,,,,,,,,,,,,,,,558.8849,559.0828,559.0828,559.5819,,,,,,,,,,,,,,10.587,0,,,,,,,,,,,,,,m,,,,,,,,,,,,,,,65,1,559.5824,570.1827,z,0,10.587,,[],[],[],[],[],[],[],570.1827,572.1826,572.1827,575.7994,[],[],[],[],[],[],[],z,575.7994,575.7995,0.105422045,-0.072796365,0,0,0,,0,64,64,105,1,2,word,EDITOR,cursive,editor_c.png,3.6042,,,,,
,,,,32156,001,2025-10-16_13h45.52.667,HW_LDT_1,2024.2.4,MacIntel,60.24096386,,,,,,,,,,,,,,,,,,,,,,575.8007,575.9991,575.9991,576.4991,,,,,,,,,,,,,,1.5788,1,,,,,,,,,,,,,,z,,,,,,,,,,,,,,,66,0,576.4994,578.0824,z,1,1.5788,,[],[],[],[],[],[],[],578.0825,580.0824,580.0824,580.0824,[],[],[],[],[],[],[],,580.0824,580.0825,0.105422045,-0.072796365,0,0,0,,0,65,65,14,1,2,RL,insibate,cursive,insibate_c.png,,,,,,
,,,,32156,001,2025-10-16_13h45.52.667,HW_LDT_1,2024.2.4,MacIntel,60.24096386,,,,,,,,,,,,,,,,,,,,,,580.0829,580.2827,580.2827,580.7815,,,,,,,,,,,,,,0.8994,0,,,,,,,,,,,,,,z,,,,,,,,,,,,,,,67,1,580.7818,581.6827,m,0,0.8994,,[],[],[],[],[],[],[],581.6827,583.6828,583.6829,587.6994,[],[],[],[],[],[],[],m,587.6995,587.6996,0.105422045,-0.072796365,0,0,0,,0,66,66,63,1,2,TL,orinigal,print,orinigal_p.png,4.0161,,,,,
,,,,32156,001,2025-10-16_13h45.52.667,HW_LDT_1,2024.2.4,MacIntel,60.24096386,,,,,,,,,,,,,,,,,,,,,,587.7009,587.8981,587.8982,588.3994,,,,,,,,,,,,,,20.5528,0,,,,,,,,,,,,,,m,,,,,,,,,,,,,,,68,0,588.3999,608.9662,z,0,20.5528,,[],[],[],[],[],[],[],608.9663,610.9661,610.9662,610.9664,[],[],[],[],[],[],[],,610.9665,610.9667,0.105422045,-0.072796365,0,0,0,,0,67,67,106,1,2,word,ELABORATE,cursive,elaborate_c.png,,,,,,
,,,,32156,001,2025-10-16_13h45.52.667,HW_LDT_1,2024.2.4,MacIntel,60.24096386,,,,,,,,,,,,,,,,,,,,,,610.9681,611.166,611.1662,611.6661,,,,,,,,,,,,,,1.0892,1,,,,,,,,,,,,,,z,,,,,,,,,,,,,,,69,0,611.6667,612.7649,z,1,1.0892,,[],[],[],[],[],[],[],612.765,614.7657,614.7657,614.7657,[],[],[],[],[],[],[],,614.7657,614.7657,0.105422045,-0.07408288,0,0,0,,0,68,68,11,1,2,RL,formuke,print,formuke_p.png,,,,,,
,,,,32156,001,2025-10-16_13h45.52.667,HW_LDT_1,2024.2.4,MacIntel,60.24096386,,,,,,,,,,,,,,,,,,,,,,614.7661,614.966,614.966,615.4648,,,,,,,,,,,,,,2.2664,1,,,,,,,,,,,,,,z,,,,,,,,,,,,,,,70,0,615.465,617.7326,z,1,2.2664,,[],[],[],[],[],[],[],617.7328,619.7319,619.7319,619.7322,[],[],[],[],[],[],[],,619.7322,619.7325,0.105422045,-0.07408288,0,0,0,,0,69,69,2,1,2,RL,casagity,print,casagity_p.png,,,,,,
,,,,32156,001,2025-10-16_13h45.52.667,HW_LDT_1,2024.2.4,MacIntel,60.24096386,,,,,,,,,,,,,,,,,,,,,,619.7336,619.9328,619.9329,620.4328,,,,,,,,,,,,,,2.5012,1,,,,,,,,,,,,,,z,,,,,,,,,,,,,,,71,0,620.4335,622.9491,z,1,2.5012,,[],[],[],[],[],[],[],622.9492,624.9491,624.9491,624.9492,[],[],[],[],[],[],[],,624.9492,624.9493,0.105422045,-0.07408288,0,0,0,,0,70,70,29,1,2,RL,samite,cursive,samite_c.png,,,,,,
,,,,32156,001,2025-10-16_13h45.52.667,HW_LDT_1,2024.2.4,MacIntel,60.24096386,,,,,,,,,,,,,,,,,,,,,,624.95,625.1495,625.1495,625.6491,,,,,,,,,,,,,,1.1517,1,,,,,,,,,,,,,,z,,,,,,,,,,,,,,,72,0,625.6494,626.8149,z,1,1.1517,0.0005,[],[],[],[],[],[],[],626.8149,628.8158,628.8158,628.8159,[],[],[],[],[],[],[],,628.8159,628.8159,0.105422045,-0.07408288,0,0,0,,0,71,71,18,1,2,RL,mesibine,print,mesibine_p.png,,,,,,
,,,,32156,001,2025-10-16_13h45.52.667,HW_LDT_1,2024.2.4,MacIntel,60.24096386,,,,,,,,,,,,,,,,,,,,,,628.8163,629.016,629.0161,629.5148,,,,,,,,,,,,,,0.8593,1,,,,,,,,,,,,,,m,,,,,,,,,,,,,,,73,0,629.5151,630.3829,m,1,0.8593,,[],[],[],[],[],[],[],630.3831,632.3827,632.3827,632.3829,[],[],[],[],[],[],[],,632.383,632.383,0.105422045,-0.073832371,0,0,0,,0,72,72,159,1,2,word,VETERAN,print,veteran_p.png,,,,,,
,,,,32156,001,2025-10-16_13h45.52.667,HW_LDT_1,2024.2.4,MacIntel,60.24096386,,,,,,,,,,,,,,,,,,,,,,632.3842,632.5826,632.5827,633.0827,,,,,,,,,,,,,,0.8023,1,,,,,,,,,,,,,,m,,,,,,,,,,,,,,,74,0,633.0832,633.8997,m,1,0.8023,,[],[],[],[],[],[],[],633.8998,635.8986,635.8988,635.899,[],[],[],[],[],[],[],,635.8991,635.8992,0.105422045,-0.073327106,0,0,0,,0,73,73,129,1,2,word,PARENT,print,parent_p.png,,,,,,
,,,,32156,001,2025-10-16_13h45.52.667,HW_LDT_1,2024.2.4,MacIntel,60.24096386,,,,,,,,,,,,,,,,,,,,,,635.9004,636.0991,636.0991,636.5986,,,,,,,,,,,,,,0.9043,1,,,,,,,,,,,,,,m,,,,,,,,,,,,,,,75,0,636.5992,637.5148,m,1,0.9043,,[],[],[],[],[],[],[],637.5148,639.5158,639.5158,639.5159,[],[],[],[],[],[],[],,639.5159,639.5159,0.105422045,-0.073327106,0,0,0,,0,74,74,89,1,2,word,CAPACITY,print,capacity_p.png,,,,,,
,,,,32156,001,2025-10-16_13h45.52.667,HW_LDT_1,2024.2.4,MacIntel,60.24096386,,,,,,,,,,,,,,,,,,,,,,639.5162,639.716,639.716,640.2148,,,,,,,,,,,,,,0.8704,0,,,,,,,,,,,,,,m,,,,,,,,,,,,,,,76,1,640.2151,641.0988,z,0,0.8704,,[],[],[],[],[],[],[],641.0988,643.0993,643.0993,645.5493,[],[],[],[],[],[],[],z,645.5493,645.5493,0.105422045,-0.073327106,0,0,0,,0,75,75,146,1,2,word,RETIRE,cursive,retire_c.png,2.4426,,,,,
,,,,32156,001,2025-10-16_13h45.52.667,HW_LDT_1,2024.2.4,MacIntel,60.24096386,,,,,,,,,,,,,,,,,,,,,,645.5496,645.7483,645.7483,646.2491,,,,,,,,,,,,,,4.071,0,,,,,,,,,,,,,,z,,,,,,,,,,,,,,,77,0,646.2493,650.3324,m,0,4.071,,[],[],[],[],[],[],[],650.3324,652.3315,652.3315,652.3316,[],[],[],[],[],[],[],,652.3316,652.3316,0.105422045,-0.073327106,0,0,0,,0,76,76,47,1,2,TL,crinimal,cursive,crinimal_c.png,,,,,,
,,,,32156,001,2025-10-16_13h45.52.667,HW_LDT_1,2024.2.4,MacIntel,60.24096386,,,,,,,,,,,,,,,,,,,,,,652.332,652.5318,652.5318,653.0324,,,,,,,,,,,,,,0.8543,1,,,,,,,,,,,,,,m,,,,,,,,,,,,,,,78,0,653.0327,653.8989,m,1,0.8543,,[],[],[],[],[],[],[],653.899,655.8984,655.8985,655.8987,[],[],[],[],[],[],[],,655.8988,655.8989,0.105137568,-0.072507643,0,0,0,,0,77,77,153,1,2,word,STOLEN,print,stolen_p.png,,,,,,
,,,,32156,001,2025-10-16_13h45.52.667,HW_LDT_1,2024.2.4,MacIntel,60.24096386,,,,,,,,,,,,,,,,,,,,,,655.9001,656.0994,656.0995,656.5993,,,,,,,,,,,,,,1.0002,1,,,,,,,,,,,,,,m,,,,,,,,,,,,,,,79,0,656.5999,657.6148,m,1,1.0002,,[],[],[],[],[],[],[],657.6149,659.6157,659.6158,659.6159,[],[],[],[],[],[],[],,659.6159,659.6159,0.105137568,-0.072507643,0,0,0,,0,78,78,148,1,2,word,SALINE,cursive,saline_c.png,,,,,,
,,,,32156,001,2025-10-16_13h45.52.667,HW_LDT_1,2024.2.4,MacIntel,60.24096386,,,,,,,,,,,,,,,,,,,,,,659.6163,659.816,659.816,660.3156,,,,,,,,,,,,,,1.0999,1,,,,,,,,,,,,,,z,,,,,,,,,,,,,,,80,1,660.3158,661.4161,z,1,1.0999,,[],[],[],[],[],[],[],661.4162,663.4151,663.4152,664.9657,[],[],[],[],[],[],[],z,664.9658,671.0491,0.11050017,-0.061442765,0,0,0,space,0,79,79,42,1,2,TL,bedise,cursive,bedise_c.png,1.5372,0.0006,6.074,,,
,,,,32156,001,2025-10-16_13h45.52.667,HW_LDT_1,2024.2.4,MacIntel,60.24096386,,,,,,,,,,,,,,,,,,,,,,671.0495,671.2493,671.2494,671.749,,,,,,,,,,,,,,1.8894,1,,,,,,,,,,,,,,m,,,,,,,,,,,,,,,81,0,671.7492,673.649,m,1,1.8894,,[],[],[],[],[],[],[],673.6491,675.6491,675.6491,675.6492,[],[],[],[],[],[],[],,675.6492,675.6492,0.111659307,-0.070991848,0,0,0,,0,80,80,81,1,2,word,ADVISORY,print,advisory_p.png,,,,,,
,,,,32156,001,2025-10-16_13h45.52.667,HW_LDT_1,2024.2.4,MacIntel,60.24096386,,,,,,,,,,,,,,,,,,,,,,675.6496,675.8486,675.8486,676.3491,,,,,,,,,,,,,,1.3462,1,,,,,,,,,,,,,,z,,,,,,,,,,,,,,,82,0,676.3493,677.699,z,1,1.3462,,[],[],[],[],[],[],[],677.699,679.699,679.699,679.6991,[],[],[],[],[],[],[],,679.6991,679.6991,0.111659307,-0.070991848,0,0,0,,0,81,81,30,1,2,RL,selamor,print,selamor_p.png,,,,,,
,,,,32156,001,2025-10-16_13h45.52.667,HW_LDT_1,2024.2.4,MacIntel,60.24096386,,,,,,,,,,,,,,,,,,,,,,679.6994,679.8994,679.8994,680.399,,,,,,,,,,,,,,0.9711,1,,,,,,,,,,,,,,z,,,,,,,,,,,,,,,83,1,680.3992,681.3819,z,1,0.9711,,[],[],[],[],[],[],[],681.382,683.382,683.3821,685.049,[],[],[],[],[],[],[],m,685.0492,685.0492,0.111659307,-0.069675611,0,0,0,,0,82,82,35,1,2,RL,vesofity,print,vesofity_p.png,1.6556,,,,,
,,,,32156,001,2025-10-16_13h45.52.667,HW_LDT_1,2024.2.4,MacIntel,60.24096386,,,,,,,,,,,,,,,,,,,,,,685.0496,685.2492,685.2493,685.7491,,,,,,,,,,,,,,0.9877,1,,,,,,,,,,,,,,z,,,,,,,,,,,,,,,84,0,685.7493,686.7495,z,1,0.9877,,[],[],[],[],[],[],[],686.7495,688.7489,688.7489,688.7492,[],[],[],[],[],[],[],,688.7494,688.7494,0.111659307,-0.069675611,0,0,0,,0,83,83,25,1,2,RL,rabigly,print,rabigly_p.png,,,,,,
,,,,32156,001,2025-10-16_13h45.52.667,HW_LDT_1,2024.2.4,MacIntel,60.24096386,,,,,,,,,,,,,,,,,,,,,,688.7509,688.9489,688.949,689.4494,,,,,,,,,,,,,,2.2633,1,,,,,,,,,,,,,,z,,,,,,,,,,,,,,,85,1,689.4499,691.7157,z,1,2.2633,,[],[],[],[],[],[],[],691.7158,693.7157,693.7157,695.3494,[],[],[],[],[],[],[],z,695.3495,695.3496,0.111659307,-0.069675611,0,0,0,,0,84,84,61,1,2,TL,nuremical,cursive,nuremical_c.png,1.6216,,,,,
,,,,32156,001,2025-10-16_13h45.52.667,HW_LDT_1,2024.2.4,MacIntel,60.24096386,,,,,,,,,,,,,,,,,,,,,,695.3509,695.549,695.549,696.0495,,,,,,,,,,,,,,1.0973,1,,,,,,,,,,,,,,z,,,,,,,,,,,,,,,86,0,696.0502,697.149,z,1,1.0973,,[],[],[],[],[],[],[],697.1491,699.149,699.1491,699.1492,[],[],[],[],[],[],[],,699.1492,699.1493,0.111659307,-0.069675611,0,0,0,,0,85,85,15,1,2,RL,linedal,print,linedal_p.png,,,,,,
,,,,32156,001,2025-10-16_13h45.52.667,HW_LDT_1,2024.2.4,MacIntel,60.24096386,,,,,,,,,,,,,,,,,,,,,,699.1498,699.3493,699.3493,699.8491,,,,,,,,,,,,,,0.9209,1,,,,,,,,,,,,,,z,,,,,,,,,,,,,,,87,0,699.8493,700.7823,z,1,0.9209,,[],[],[],[],[],[],[],700.7824,702.7826,702.7827,702.7829,[],[],[],[],[],[],[],,702.7829,702.7831,0.111659307,-0.069675611,0,0,0,,0,86,86,55,1,2,TL,lotace,print,lotace_p.png,,,,,,
,,,,32156,001,2025-10-16_13h45.52.667,HW_LDT_1,2024.2.4,MacIntel,60.24096386,,,,,,,,,,,,,,,,,,,,,,702.7845,702.9823,702.9823,703.4828,,,,,,,,,,,,,,0.8726,0,,,,,,,,,,,,,,m,,,,,,,,,,,,,,,88,0,703.4834,704.3656,z,0,0.8726,,[],[],[],[],[],[],[],704.3657,706.3657,706.3657,706.3657,[],[],[],[],[],[],[],,706.3657,706.3658,0.111659307,-0.069675611,0,0,0,,0,87,87,113,1,2,word,LITERAL,cursive,literal_c.png,,,,,,
,,,,32156,001,2025-10-16_13h45.52.667,HW_LDT_1,2024.2.4,MacIntel,60.24096386,,,,,,,,,,,,,,,,,,,,,,706.3661,706.5661,706.5661,707.0657,,,,,,,,,,,,,,0.7488,1,,,,,,,,,,,,,,m,,,,,,,,,,,,,,,89,0,707.0659,707.8158,m,1,0.7488,,[],[],[],[],[],[],[],707.8158,709.8156,709.8156,709.8157,[],[],[],[],[],[],[],,709.8157,709.8158,0.111659307,-0.069425102,0,0,0,,0,88,88,143,1,2,word,REMOVAL,print,removal_p.png,,,,,,
,,,,32156,001,2025-10-16_13h45.52.667,HW_LDT_1,2024.2.4,MacIntel,60.24096386,,,,,,,,,,,,,,,,,,,,,,709.8163,710.016,710.0161,710.5157,,,,,,,,,,,,,,0.525,1,,,,,,,,,,,,,,m,,,,,,,,,,,,,,,90,0,710.5158,711.0491,m,1,0.525,,[],[],[],[],[],[],[],711.0491,713.049,713.0491,713.0492,[],[],[],[],[],[],[],,713.0492,713.0492,0.111659307,-0.069174592,0,0,0,,0,89,89,83,1,2,word,ANIMAL,print,animal_p.png,,,,,,
,,,,32156,001,2025-10-16_13h45.52.667,HW_LDT_1,2024.2.4,MacIntel,60.24096386,,,,,,,,,,,,,,,,,,,,,,713.0495,713.2492,713.2493,713.7489,,,,,,,,,,,,,,0.4572,0,,,,,,,,,,,,,,z,,,,,,,,,,,,,,,91,0,713.7491,714.2164,m,0,0.4572,,[],[],[],[],[],[],[],714.2165,716.2151,716.2152,716.2155,[],[],[],[],[],[],[],,716.2155,716.2158,0.111659307,-0.06865659,0,0,0,,0,90,90,22,1,2,RL,posity,print,posity_p.png,,,,,,
,,,,32156,001,2025-10-16_13h45.52.667,HW_LDT_1,2024.2.4,MacIntel,60.24096386,,,,,,,,,,,,,,,,,,,,,,716.217,716.4156,716.4157,716.9157,,,,,,,,,,,,,,1.5981,1,,,,,,,,,,,,,,m,,,,,,,,,,,,,,,92,0,716.9159,718.5157,m,1,1.5981,,[],[],[],[],[],[],[],718.5158,720.5156,720.5156,720.5158,[],[],[],[],[],[],[],,720.5158,720.5158,0.110780401,-0.067217221,0,0,0,,0,91,91,119,1,2,word,MEMORY,cursive,memory_c.png,,,,,,
,,,,32156,001,2025-10-16_13h45.52.667,HW_LDT_1,2024.2.4,MacIntel,60.24096386,,,,,,,,,,,,,,,,,,,,,,720.5162,720.716,720.7161,721.2157,,,,,,,,,,,,,,1.8639,1,,,,,,,,,,,,,,z,,,,,,,,,,,,,,,93,0,721.2159,723.0824,z,1,1.8639,,[],[],[],[],[],[],[],723.0824,725.0824,725.0824,725.0824,[],[],[],[],[],[],[],,725.0825,725.0825,0.113463825,-0.071038553,0,0,0,,0,92,92,31,1,2,RL,spetisic,print,spetisic_p.png,,,,,,
,,,,32156,001,2025-10-16_13h45.52.667,HW_LDT_1,2024.2.4,MacIntel,60.24096386,,,,,,,,,,,,,,,,,,,,,,725.0829,725.2826,725.2826,725.7823,,,,,,,,,,,,,,6.1434,1,,,,,,,,,,,,,,z,,,,,,,,,,,,,,,94,1,725.7825,731.9314,z,1,6.1434,,[],[],[],[],[],[],[],731.9315,733.9325,733.9325,736.2156,[],[],[],[],[],[],[],z,736.2158,736.2159,0.113463825,-0.071038553,0,0,0,,0,93,93,67,1,2,TL,quafily,cursive,quafily_c.png,2.2741,,,,,
,,,,32156,001,2025-10-16_13h45.52.667,HW_LDT_1,2024.2.4,MacIntel,60.24096386,,,,,,,,,,,,,,,,,,,,,,736.2174,736.4157,736.4157,736.9161,,,,,,,,,,,,,,1.5021,1,,,,,,,,,,,,,,m,,,,,,,,,,,,,,,95,0,736.9167,738.4314,m,1,1.5021,,[],[],[],[],[],[],[],738.4314,740.4324,740.4324,740.4325,[],[],[],[],[],[],[],,740.4325,740.4325,0.113158118,-0.073569124,0,0,0,,0,94,94,144,1,2,word,RESIDENT,print,resident_p.png,,,,,,
,,,,32156,001,2025-10-16_13h45.52.667,HW_LDT_1,2024.2.4,MacIntel,60.24096386,,,,,,,,,,,,,,,,,,,,,,740.4328,740.6327,740.6327,741.1313,,,,,,,,,,,,,,10.6484,1,,,,,,,,,,,,,,z,,,,,,,,,,,,,,,96,0,741.1315,751.7824,z,1,10.6484,,[],[],[],[],[],[],[],751.7824,753.7823,753.7823,753.7823,[],[],[],[],[],[],[],,753.7823,753.7823,0.096688179,-0.061480978,0,0,0,,0,95,95,79,1,2,TL,vadility,print,vadility_p.png,,,,,,
,,,,32156,001,2025-10-16_13h45.52.667,HW_LDT_1,2024.2.4,MacIntel,60.24096386,,,,,,,,,,,,,,,,,,,,,,753.7827,753.9826,753.9827,754.4823,,,,,,,,,,,,,,1.1028,1,,,,,,,,,,,,,,z,,,,,,,,,,,,,,,97,0,754.4826,755.5994,z,1,1.1028,,[],[],[],[],[],[],[],755.5995,757.5984,757.5985,757.5987,[],[],[],[],[],[],[],,757.5988,757.599,0.104908288,-0.070422894,0,0,0,,0,96,96,77,1,2,TL,sloten,print,sloten_p.png,,,,,,
,,,,32156,001,2025-10-16_13h45.52.667,HW_LDT_1,2024.2.4,MacIntel,60.24096386,,,,,,,,,,,,,,,,,,,,,,757.6,757.7989,757.7989,758.2983,,,,,,,,,,,,,,1.2488,1,,,,,,,,,,,,,,z,,,,,,,,,,,,,,,98,1,758.2987,759.5493,z,1,1.2488,,[],[],[],[],[],[],[],759.5493,761.5484,761.5484,765.9648,[],[],[],[],[],[],[],z,765.9648,765.9648,0.104908288,-0.070172385,0,0,0,,0,97,97,20,1,2,RL,onegator,cursive,onegator_c.png,4.4019,,,,,
,,,,32156,001,2025-10-16_13h45.52.667,HW_LDT_1,2024.2.4,MacIntel,60.24096386,,,,,,,,,,,,,,,,,,,,,,765.9652,766.166,766.166,766.6647,,,,,,,,,,,,,,1.1813,1,,,,,,,,,,,,,,m,,,,,,,,,,,,,,,99,0,766.6649,767.8491,m,1,1.1813,,[],[],[],[],[],[],[],767.8491,769.8489,769.849,769.849,[],[],[],[],[],[],[],,769.849,769.849,0.104602582,-0.069913383,0,0,0,,0,98,98,122,1,2,word,MOBILE,print,mobile_p.png,,,,,,
,,,,32156,001,2025-10-16_13h45.52.667,HW_LDT_1,2024.2.4,MacIntel,60.24096386,,,,,,,,,,,,,,,,,,,,,,769.8493,770.049,770.049,770.5479,,,,,,,,,,,,,,1.3031,1,,,,,,,,,,,,,,z,,,,,,,,,,,,,,,100,0,770.5481,771.8656,z,1,1.3031,,[],[],[],[],[],[],[],771.8657,773.8657,773.8657,773.8658,[],[],[],[],[],[],[],,773.8658,773.8659,0.103519871,-0.065102751,0,0,0,,0,99,99,75,1,2,TL,ronamtic,print,ronamtic_p.png,,,,,,
,,,,32156,001,2025-10-16_13h45.52.667,HW_LDT_1,2024.2.4,MacIntel,60.24096386,,,,,,,,,,,,,,,,,,,,,,773.8663,774.0648,774.065,774.5657,,,,,,,,,,,,,,3.7254,1,,,,,,,,,,,,,,m,,,,,,,,,,,,,,,101,0,774.5659,778.299,m,1,3.7254,,[],[],[],[],[],[],[],778.2991,780.2993,780.2994,780.2996,[],[],[],[],[],[],[],,780.2996,780.2997,0.101261039,-0.063446841,0,0,0,,0,100,100,98,1,2,word,CRIMINAL,cursive,criminal_c.png,,,,,,
,,,,32156,001,2025-10-16_13h45.52.667,HW_LDT_1,2024.2.4,MacIntel,60.24096386,,,,,,,,,,,,,,,,,,,,,,780.3011,780.4989,780.4989,780.9993,,,,,,,,,,,,,,1.5667,1,,,,,,,,,,,,,,m,,,,,,,,,,,,,,,102,0,780.9999,782.5824,m,1,1.5667,0,[],[],[],[],[],[],[],782.5825,784.5824,784.5825,784.5825,[],[],[],[],[],[],[],,784.5825,784.5825,0.101261039,-0.063446841,0,0,0,,0,101,101,116,1,2,word,MARGINAL,cursive,marginal_c.png,,,,,,
,,,,32156,001,2025-10-16_13h45.52.667,HW_LDT_1,2024.2.4,MacIntel,60.24096386,,,,,,,,,,,,,,,,,,,,,,784.5829,784.7825,784.7826,785.2823,,,,,,,,,,,,,,0.7551,1,,,,,,,,,,,,,,m,,,,,,,,,,,,,,,103,0,785.2826,786.049,m,1,0.7551,,[],[],[],[],[],[],[],786.0491,788.048,788.048,788.048,[],[],[],[],[],[],[],,788.0481,788.0481,0.101261039,-0.063446841,0,0,0,,0,102,102,140,1,2,word,RELATIVE,print,relative_p.png,,,,,,
,,,,32156,001,2025-10-16_13h45.52.667,HW_LDT_1,2024.2.4,MacIntel,60.24096386,,,,,,,,,,,,,,,,,,,,,,788.0486,788.2493,788.2494,788.7483,,,,,,,,,,,,,,1.8226,1,,,,,,,,,,,,,,m,,,,,,,,,,,,,,,104,0,788.7487,790.5824,m,1,1.8226,,[],[],[],[],[],[],[],790.5825,792.5816,792.5816,792.5816,[],[],[],[],[],[],[],,792.5816,792.5817,0.101261039,-0.062173064,0,0,0,,0,103,103,82,1,2,word,AMATEUR,cursive,amateur_c.png,,,,,,
,,,,32156,001,2025-10-16_13h45.52.667,HW_LDT_1,2024.2.4,MacIntel,60.24096386,,,,,,,,,,,,,,,,,,,,,,792.582,792.7827,792.7827,793.2823,,,,,,,,,,,,,,2.7162,1,,,,,,,,,,,,,,z,,,,,,,,,,,,,,,105,0,793.2824,795.9989,z,1,2.7162,,[],[],[],[],[],[],[],795.999,797.999,797.999,797.9991,[],[],[],[],[],[],[],,797.9991,797.9992,0.101261039,-0.062173064,0,0,0,,0,104,104,5,1,2,RL,clisimal,cursive,clisimal_c.png,,,,,,
,,,,32156,001,2025-10-16_13h45.52.667,HW_LDT_1,2024.2.4,MacIntel,60.24096386,,,,,,,,,,,,,,,,,,,,,,797.9995,798.1994,798.1995,798.698,,,,,,,,,,,,,,2.17,1,,,,,,,,,,,,,,m,,,,,,,,,,,,,,,106,0,798.6983,800.8825,m,1,2.17,,[],[],[],[],[],[],[],800.8825,802.8816,802.8817,802.8818,[],[],[],[],[],[],[],,802.8819,802.8819,0.101261039,-0.061922554,0,0,0,,0,105,105,139,1,2,word,REGULAR,cursive,regular_c.png,,,,,,
,,,,32156,001,2025-10-16_13h45.52.667,HW_LDT_1,2024.2.4,MacIntel,60.24096386,,,,,,,,,,,,,,,,,,,,,,802.8833,803.0826,803.0826,803.5827,,,,,,,,,,,,,,0.8464,1,,,,,,,,,,,,,,m,,,,,,,,,,,,,,,107,0,803.5834,804.4326,m,1,0.8464,,[],[],[],[],[],[],[],804.4327,806.4327,806.4328,806.433,[],[],[],[],[],[],[],,806.433,806.4331,0.10101053,-0.061638077,0,0,0,,0,106,106,115,1,2,word,LOGICAL,print,logical_p.png,,,,,,
,,,,32156,001,2025-10-16_13h45.52.667,HW_LDT_1,2024.2.4,MacIntel,60.24096386,,,,,,,,,,,,,,,,,,,,,,806.4347,806.6313,806.6313,807.1316,,,,,,,,,,,,,,1.5569,0,,,,,,,,,,,,,,m,,,,,,,,,,,,,,,108,1,807.1322,808.699,z,0,1.5569,,[],[],[],[],[],[],[],808.699,810.698,810.698,816.9484,[],[],[],[],[],[],[],z,816.9485,816.9485,0.099673064,-0.060580842,0,0,0,,0,107,107,90,1,2,word,CAPITAL,cursive,capital_c.png,6.2385,,,,,
,,,,32156,001,2025-10-16_13h45.52.667,HW_LDT_1,2024.2.4,MacIntel,60.24096386,,,,,,,,,,,,,,,,,,,,,,816.9498,817.1491,817.1491,817.6483,,,,,,,,,,,,,,2.1335,1,,,,,,,,,,,,,,z,,,,,,,,,,,,,,,109,0,817.6488,819.783,z,1,2.1335,,[],[],[],[],[],[],[],819.7831,821.7813,821.7813,821.7814,[],[],[],[],[],[],[],,821.7814,821.7815,0.099673064,-0.060580842,0,0,0,,0,108,108,24,1,2,RL,rasibal,cursive,rasibal_c.png,,,,,,
,,,,32156,001,2025-10-16_13h45.52.667,HW_LDT_1,2024.2.4,MacIntel,60.24096386,,,,,,,,,,,,,,,,,,,,,,821.782,821.9823,821.9823,822.4823,,,,,,,,,,,,,,4.9293,1,,,,,,,,,,,,,,z,,,,,,,,,,,,,,,110,0,822.4826,827.4148,z,1,4.9293,,[],[],[],[],[],[],[],827.4148,829.4156,829.4156,829.4156,[],[],[],[],[],[],[],,829.4156,829.4157,0.099927819,-0.061103091,0,0,0,,0,109,109,76,1,2,TL,senmitent,cursive,senmitent_c.png,,,,,,
,,,,32156,001,2025-10-16_13h45.52.667,HW_LDT_1,2024.2.4,MacIntel,60.24096386,,,,,,,,,,,,,,,,,,,,,,829.4161,829.616,829.616,830.1146,,,,,,,,,,,,,,1.4547,1,,,,,,,,,,,,,,z,,,,,,,,,,,,,,,111,0,830.115,831.5823,z,1,1.4547,,[],[],[],[],[],[],[],831.5824,833.5817,833.5817,833.5819,[],[],[],[],[],[],[],,833.582,833.582,0.10121858,-0.062640115,0,0,0,,0,110,110,53,1,2,TL,edivent,cursive,edivent_c.png,,,,,,
,,,,32156,001,2025-10-16_13h45.52.667,HW_LDT_1,2024.2.4,MacIntel,60.24096386,,,,,,,,,,,,,,,,,,,,,,833.5831,833.7816,833.7817,834.2826,,,,,,,,,,,,,,1.1178,1,,,,,,,,,,,,,,z,,,,,,,,,,,,,,,112,0,834.2832,835.4157,z,1,1.1178,,[],[],[],[],[],[],[],835.4157,837.4158,837.4158,837.4158,[],[],[],[],[],[],[],,837.4158,837.4159,0.10121858,-0.062640115,0,0,0,,0,111,111,3,1,2,RL,capefory,print,capefory_p.png,,,,,,
,,,,32156,001,2025-10-16_13h45.52.667,HW_LDT_1,2024.2.4,MacIntel,60.24096386,,,,,,,,,,,,,,,,,,,,,,837.4162,837.6159,837.616,838.1146,,,,,,,,,,,,,,0.8719,0,,,,,,,,,,,,,,m,,,,,,,,,,,,,,,113,0,838.1148,838.9984,z,0,0.8719,,[],[],[],[],[],[],[],838.9985,840.9992,840.9992,840.9995,[],[],[],[],[],[],[],,840.9995,840.9997,0.10121858,-0.062640115,0,0,0,,0,112,112,107,1,2,word,EVIDENT,cursive,evident_c.png,,,,,,
,,,,32156,001,2025-10-16_13h45.52.667,HW_LDT_1,2024.2.4,MacIntel,60.24096386,,,,,,,,,,,,,,,,,,,,,,841.0011,841.1994,841.1995,841.6993,,,,,,,,,,,,,,1.0621,1,,,,,,,,,,,,,,z,,,,,,,,,,,,,,,114,0,841.6999,842.7647,z,1,1.0621,0.0007,[],[],[],[],[],[],[],842.7647,844.7646,844.7646,844.7647,[],[],[],[],[],[],[],,844.7647,844.7647,0.10121858,-0.062640115,0,0,0,,0,113,113,6,1,2,RL,conbicer,print,conbicer_p.png,,,,,,
,,,,32156,001,2025-10-16_13h45.52.667,HW_LDT_1,2024.2.4,MacIntel,60.24096386,,,,,,,,,,,,,,,,,,,,,,844.765,844.9659,844.966,845.4647,,,,,,,,,,,,,,1.923,1,,,,,,,,,,,,,,z,,,,,,,,,,,,,,,115,0,845.4649,847.3981,z,1,1.923,0.0007,[],[],[],[],[],[],[],847.3981,849.399,849.399,849.3992,[],[],[],[],[],[],[],,849.3992,849.3992,0.10121858,-0.062640115,0,0,0,,0,114,114,69,1,2,TL,resufal,cursive,resufal_c.png,,,,,,
,,,,32156,001,2025-10-16_13h45.52.667,HW_LDT_1,2024.2.4,MacIntel,60.24096386,,,,,,,,,,,,,,,,,,,,,,849.4,849.5987,849.5987,850.099,,,,,,,,,,,,,,2.356,1,,,,,,,,,,,,,,z,,,,,,,,,,,,,,,116,0,850.0992,852.4647,z,1,2.356,,[],[],[],[],[],[],[],852.4648,854.4652,854.4653,854.4657,[],[],[],[],[],[],[],,854.4657,854.4658,0.10121858,-0.062640115,0,0,0,,0,115,115,58,1,2,TL,mitilary,cursive,mitilary_c.png,,,,,,
,,,,32156,001,2025-10-16_13h45.52.667,HW_LDT_1,2024.2.4,MacIntel,60.24096386,,,,,,,,,,,,,,,,,,,,,,854.4675,854.6655,854.6655,855.166,,,,,,,,,,,,,,1.27,1,,,,,,,,,,,,,,z,,,,,,,,,,,,,,,117,0,855.1666,856.4483,z,1,1.27,,[],[],[],[],[],[],[],856.4485,858.4483,858.4484,858.4486,[],[],[],[],[],[],[],,858.4487,858.4487,0.10121858,-0.061875849,0,0,0,,0,116,116,26,1,2,RL,retupar,cursive,retupar_c.png,,,,,,
,,,,32156,001,2025-10-16_13h45.52.667,HW_LDT_1,2024.2.4,MacIntel,60.24096386,,,,,,,,,,,,,,,,,,,,,,858.4499,858.6479,858.6479,859.1493,,,,,,,,,,,,,,0.9812,0,,,,,,,,,,,,,,z,,,,,,,,,,,,,,,118,1,859.1501,860.1323,m,0,0.9812,,[],[],[],[],[],[],[],860.1323,862.1323,862.1324,865.1993,[],[],[],[],[],[],[],m,865.1994,865.1995,0.10121858,-0.06162534,0,0,0,,0,117,117,70,1,2,TL,retalive,print,retalive_p.png,3.0544,,,,,
,,,,32156,001,2025-10-16_13h45.52.667,HW_LDT_1,2024.2.4,MacIntel,60.24096386,,,,,,,,,,,,,,,,,,,,,,865.2011,865.3989,865.3989,865.898,,,,,,,,,,,,,,1.455,1,,,,,,,,,,,,,,z,,,,,,,,,,,,,,,119,0,865.8982,867.3656,z,1,1.455,,[],[],[],[],[],[],[],867.3657,869.3656,869.3656,869.3656,[],[],[],[],[],[],[],,869.3657,869.3657,0.10121858,-0.06162534,0,0,0,,0,118,118,52,1,2,TL,elarobate,cursive,elarobate_c.png,,,,,,
,,,,32156,001,2025-10-16_13h45.52.667,HW_LDT_1,2024.2.4,MacIntel,60.24096386,,,,,,,,,,,,,,,,,,,,,,869.3661,869.5668,869.5669,870.0656,,,,,,,,,,,,,,1.5289,1,,,,,,,,,,,,,,z,,,,,,,,,,,,,,,120,0,870.066,871.5991,z,1,1.5289,,[],[],[],[],[],[],[],871.5991,873.5989,873.599,873.5991,[],[],[],[],[],[],[],,873.5992,873.5992,0.10121858,-0.06137483,0,0,0,,0,119,119,54,1,2,TL,liretal,cursive,liretal_c.png,,,,,,
,,,,32156,001,2025-10-16_13h45.52.667,HW_LDT_1,2024.2.4,MacIntel,60.24096386,,,,,,,,,,,,,,,,,,,,,,873.6002,873.7987,873.7988,874.2993,,,,,,,,,,,,,,1.0498,1,,,,,,,,,,,,,,z,,,,,,,,,,,,,,,121,0,874.3,875.3656,z,1,1.0498,0.0092,[],[],[],[],[],[],[],875.3657,877.3647,877.3647,877.3647,[],[],[],[],[],[],[],,877.3647,877.3647,0.10121858,-0.06137483,0,0,0,,0,120,120,36,1,2,RL,vecelan,print,vecelan_p.png,,,,,,
,,,,32156,001,2025-10-16_13h45.52.667,HW_LDT_1,2024.2.4,MacIntel,60.24096386,,,,,,,,,,,,,,,,,,,,,,877.3651,877.5659,877.566,878.0656,,,,,,,,,,,,,,1.0541,1,,,,,,,,,,,,,,m,,,,,,,,,,,,,,,122,0,878.0658,879.1326,m,1,1.0541,,[],[],[],[],[],[],[],879.1328,881.1326,881.1326,881.1328,[],[],[],[],[],[],[],,881.1329,881.1329,0.10121858,-0.06137483,0,0,0,,0,121,121,100,1,2,word,DECADE,print,decade_p.png,,,,,,
,,,,32156,001,2025-10-16_13h45.52.667,HW_LDT_1,2024.2.4,MacIntel,60.24096386,,,,,,,,,,,,,,,,,,,,,,881.1341,881.3322,881.3322,881.8316,,,,,,,,,,,,,,3.5205,1,,,,,,,,,,,,,,m,,,,,,,,,,,,,,,123,0,881.832,885.3656,m,1,3.5205,0.0006,[],[],[],[],[],[],[],885.3657,887.3656,887.3656,887.3657,[],[],[],[],[],[],[],,887.3657,887.3658,0.100963825,-0.060343071,0,0,0,,0,122,122,141,1,2,word,RELIGION,cursive,religion_c.png,,,,,,
,,,,32156,001,2025-10-16_13h45.52.667,HW_LDT_1,2024.2.4,MacIntel,60.24096386,,,,,,,,,,,,,,,,,,,,,,887.3662,887.566,887.566,888.0656,,,,,,,,,,,,,,2.3161,1,,,,,,,,,,,,,,m,,,,,,,,,,,,,,,124,0,888.0658,890.3827,m,1,2.3161,,[],[],[],[],[],[],[],890.3828,892.3826,892.3826,892.3829,[],[],[],[],[],[],[],,892.3829,892.3829,0.100963825,-0.059294327,0,0,0,,0,123,123,145,1,2,word,RESUME,cursive,resume_c.png,,,,,,
,,,,32156,001,2025-10-16_13h45.52.667,HW_LDT_1,2024.2.4,MacIntel,60.24096386,,,,,,,,,,,,,,,,,,,,,,892.3843,892.5813,892.5814,893.0827,,,,,,,,,,,,,,1.2373,1,,,,,,,,,,,,,,m,,,,,,,,,,,,,,,125,0,893.0834,894.3317,m,1,1.2373,,[],[],[],[],[],[],[],894.3318,896.3325,896.3326,896.3327,[],[],[],[],[],[],[],,896.3328,896.3329,0.100445822,-0.059026834,0,0,0,,0,124,124,151,1,2,word,SPECIFIC,print,specific_p.png,,,,,,
,,,,32156,001,2025-10-16_13h45.52.667,HW_LDT_1,2024.2.4,MacIntel,60.24096386,,,,,,,,,,,,,,,,,,,,,,896.3343,896.5326,896.5327,897.0318,,,,,,,,,,,,,,1.2012,1,,,,,,,,,,,,,,z,,,,,,,,,,,,,,,126,1,897.0325,898.249,z,1,1.2012,,[],[],[],[],[],[],[],898.2491,900.2484,900.2484,901.7651,[],[],[],[],[],[],[],m,901.7652,901.7653,0.100445822,-0.058776325,0,0,0,,0,125,125,60,1,2,TL,molibe,print,molibe_p.png,1.5161,,,,,
,,,,32156,001,2025-10-16_13h45.52.667,HW_LDT_1,2024.2.4,MacIntel,60.24096386,,,,,,,,,,,,,,,,,,,,,,901.7672,901.9646,901.9646,902.4657,,,,,,,,,,,,,,0.92,1,,,,,,,,,,,,,,m,,,,,,,,,,,,,,,127,0,902.466,903.399,m,1,0.92,,[],[],[],[],[],[],[],903.3991,905.399,905.399,905.3991,[],[],[],[],[],[],[],,905.3991,905.3991,0.100445822,-0.058776325,0,0,0,,0,126,126,108,1,2,word,FORTUNE,print,fortune_p.png,,,,,,
,,,,32156,001,2025-10-16_13h45.52.667,HW_LDT_1,2024.2.4,MacIntel,60.24096386,,,,,,,,,,,,,,,,,,,,,,905.3995,905.5992,905.5992,906.098,,,,,,,,,,,,,,0.8025,1,,,,,,,,,,,,,,m,,,,,,,,,,,,,,,128,0,906.0982,906.9147,m,1,0.8025,,[],[],[],[],[],[],[],906.9147,908.9157,908.9157,908.9158,[],[],[],[],[],[],[],,908.9158,908.9159,0.100445822,-0.058776325,0,0,0,,0,127,127,158,1,2,word,VELOCITY,print,velocity_p.png,,,,,,
,,,,32156,001,2025-10-16_13h45.52.667,HW_LDT_1,2024.2.4,MacIntel,60.24096386,,,,,,,,,,,,,,,,,,,,,,908.9167,909.116,909.1161,909.6158,,,,,,,,,,,,,,2.487,1,,,,,,,,,,,,,,z,,,,,,,,,,,,,,,129,0,909.6163,912.1156,z,1,2.487,,[],[],[],[],[],[],[],912.1156,914.1147,914.1147,914.1148,[],[],[],[],[],[],[],,914.1148,914.1148,0.100445822,-0.058776325,0,0,0,,0,128,128,46,1,2,TL,codemy,cursive,codemy_c.png,,,,,,
,,,,32156,001,2025-10-16_13h45.52.667,HW_LDT_1,2024.2.4,MacIntel,60.24096386,,,,,,,,,,,,,,,,,,,,,,914.1151,914.3159,914.316,914.8156,,,,,,,,,,,,,,2.3543,1,,,,,,,,,,,,,,z,,,,,,,,,,,,,,,130,0,914.8157,917.1828,z,1,2.3543,,[],[],[],[],[],[],[],917.1829,919.1825,919.1826,919.1828,[],[],[],[],[],[],[],,919.1829,919.183,0.100445822,-0.058776325,0,0,0,,0,129,129,1,1,2,RL,caleberia,print,caleberia_p.png,,,,,,
,,,,32156,001,2025-10-16_13h45.52.667,HW_LDT_1,2024.2.4,MacIntel,60.24096386,,,,,,,,,,,,,,,,,,,,,,919.1843,919.3822,919.3823,919.8827,,,,,,,,,,,,,,1.1868,1,,,,,,,,,,,,,,z,,,,,,,,,,,,,,,131,0,919.8834,921.0823,z,1,1.1868,,[],[],[],[],[],[],[],921.0823,923.0826,923.0827,923.0829,[],[],[],[],[],[],[],,923.083,923.0831,0.100445822,-0.058776325,0,0,0,,0,130,130,78,1,2,TL,stogare,print,stogare_p.png,,,,,,
,,,,32156,001,2025-10-16_13h45.52.667,HW_LDT_1,2024.2.4,MacIntel,60.24096386,,,,,,,,,,,,,,,,,,,,,,923.0843,923.2823,923.2823,923.7825,,,,,,,,,,,,,,0.9738,1,,,,,,,,,,,,,,m,,,,,,,,,,,,,,,132,0,923.7832,924.7647,m,1,0.9738,,[],[],[],[],[],[],[],924.7647,926.7655,926.7656,926.7656,[],[],[],[],[],[],[],,926.7656,926.7656,0.100445822,-0.058776325,0,0,0,,0,131,131,87,1,2,word,CAFETERIA,print,cafeteria_p.png,,,,,,
,,,,32156,001,2025-10-16_13h45.52.667,HW_LDT_1,2024.2.4,MacIntel,60.24096386,,,,,,,,,,,,,,,,,,,,,,926.7659,926.9659,926.9659,927.4656,,,,,,,,,,,,,,1.1042,1,,,,,,,,,,,,,,m,,,,,,,,,,,,,,,133,0,927.4658,928.5817,m,1,1.1042,,[],[],[],[],[],[],[],928.5818,930.5827,930.5827,930.5829,[],[],[],[],[],[],[],,930.5829,930.5831,0.100445822,-0.058776325,0,0,0,,0,132,132,152,1,2,word,SPECIMEN,print,specimen_p.png,,,,,,
,,,,32156,001,2025-10-16_13h45.52.667,HW_LDT_1,2024.2.4,MacIntel,60.24096386,,,,,,,,,,,,,,,,,,,,,,930.5846,930.7823,930.7823,931.2814,,,,,,,,,,,,,,1.8882,1,,,,,,,,,,,,,,z,,,,,,,,,,,,,,,134,0,931.2817,933.1824,z,1,1.8882,,[],[],[],[],[],[],[],933.1825,935.1826,935.1826,935.1829,[],[],[],[],[],[],[],,935.1829,935.1831,0.100445822,-0.058776325,0,0,0,,0,133,133,62,1,2,TL,opmital,cursive,opmital_c.png,,,,,,
,,,,32156,001,2025-10-16_13h45.52.667,HW_LDT_1,2024.2.4,MacIntel,60.24096386,,,,,,,,,,,,,,,,,,,,,,935.1844,935.3813,935.3813,935.8817,,,,,,,,,,,,,,2.3472,1,,,,,,,,,,,,,,m,,,,,,,,,,,,,,,135,0,935.8824,938.2313,m,1,2.3472,,[],[],[],[],[],[],[],938.2313,940.2313,940.2313,940.2314,[],[],[],[],[],[],[],,940.2315,940.2315,0.100186821,-0.058525815,0,0,0,,0,134,134,97,1,2,word,COVERAGE,cursive,coverage_c.png,,,,,,
,,,,32156,001,2025-10-16_13h45.52.667,HW_LDT_1,2024.2.4,MacIntel,60.24096386,,,,,,,,,,,,,,,,,,,,,,940.2321,940.4317,940.4318,940.9313,,,,,,,,,,,,,,1.1825,1,,,,,,,,,,,,,,z,,,,,,,,,,,,,,,136,0,940.9317,942.1156,z,1,1.1825,,[],[],[],[],[],[],[],942.1156,944.1146,944.1147,944.1147,[],[],[],[],[],[],[],,944.1147,944.1147,0.100186821,-0.058525815,0,0,0,,0,135,135,7,1,2,RL,cocewage,cursive,cocewage_c.png,,,,,,
,,,,32156,001,2025-10-16_13h45.52.667,HW_LDT_1,2024.2.4,MacIntel,60.24096386,,,,,,,,,,,,,,,,,,,,,,944.115,944.3159,944.3159,944.8156,,,,,,,,,,,,,,0.8374,0,,,,,,,,,,,,,,m,,,,,,,,,,,,,,,137,0,944.8158,945.665,z,0,0.8374,,[],[],[],[],[],[],[],945.665,947.6648,947.6649,947.665,[],[],[],[],[],[],[],,947.665,947.6652,0.100186821,-0.058525815,0,0,0,,0,136,136,85,1,2,word,BENEFIT,cursive,benefit_c.png,,,,,,
,,,,32156,001,2025-10-16_13h45.52.667,HW_LDT_1,2024.2.4,MacIntel,60.24096386,,,,,,,,,,,,,,,,,,,,,,947.6661,947.8658,947.8658,948.3659,,,,,,,,,,,,,,1.8307,1,,,,,,,,,,,,,,m,,,,,,,,,,,,,,,138,0,948.3665,950.1979,m,1,1.8307,,[],[],[],[],[],[],[],950.198,952.1989,952.1989,952.1989,[],[],[],[],[],[],[],,952.199,952.199,0.100186821,-0.058275306,0,0,0,,0,137,137,142,1,2,word,REMOTE,cursive,remote_c.png,,,,,,
,,,,32156,001,2025-10-16_13h45.52.667,HW_LDT_1,2024.2.4,MacIntel,60.24096386,,,,,,,,,,,,,,,,,,,,,,952.1994,952.3993,952.3994,952.8989,,,,,,,,,,,,,,1.2369,1,,,,,,,,,,,,,,m,,,,,,,,,,,,,,,139,0,952.8992,954.1489,m,1,1.2369,0.0006,[],[],[],[],[],[],[],954.1489,956.149,956.149,956.1491,[],[],[],[],[],[],[],,956.1491,956.1491,0.100186821,-0.058275306,0,0,0,,0,138,138,104,1,2,word,DOMINANT,print,dominant_p.png,,,,,,
,,,,32156,001,2025-10-16_13h45.52.667,HW_LDT_1,2024.2.4,MacIntel,60.24096386,,,,,,,,,,,,,,,,,,,,,,956.1494,956.3492,956.3492,956.8489,,,,,,,,,,,,,,1.0417,1,,,,,,,,,,,,,,z,,,,,,,,,,,,,,,140,0,956.849,957.8993,z,1,1.0417,,[],[],[],[],[],[],[],957.8994,959.8993,959.8994,959.8996,[],[],[],[],[],[],[],,959.8997,959.8998,0.100186821,-0.058275306,0,0,0,,0,139,139,71,1,2,TL,retome,cursive,retome_c.png,,,,,,
,,,,32156,001,2025-10-16_13h45.52.667,HW_LDT_1,2024.2.4,MacIntel,60.24096386,,,,,,,,,,,,,,,,,,,,,,959.901,960.0989,960.0989,960.5984,,,,,,,,,,,,,,4.4219,1,,,,,,,,,,,,,,m,,,,,,,,,,,,,,,141,0,960.5989,965.0324,m,1,4.4219,,[],[],[],[],[],[],[],965.0324,967.0326,967.0326,967.0327,[],[],[],[],[],[],[],,967.0328,967.0328,0.100186821,-0.055957031,0,0,0,,0,140,140,138,1,2,word,REFUSAL,cursive,refusal_c.png,,,,,,
,,,,32156,001,2025-10-16_13h45.52.667,HW_LDT_1,2024.2.4,MacIntel,60.24096386,,,,,,,,,,,,,,,,,,,,,,967.034,967.2321,967.2322,967.7326,,,,,,,,,,,,,,1.0854,1,,,,,,,,,,,,,,m,,,,,,,,,,,,,,,142,0,967.7333,968.8322,m,1,1.0854,0.0021,[],[],[],[],[],[],[],968.8322,970.8322,970.8322,970.8322,[],[],[],[],[],[],[],,970.8322,970.8322,0.099078635,-0.053859545,0,0,0,,0,141,141,84,1,2,word,BELOVED,cursive,beloved_c.png,,,,,,
,,,,32156,001,2025-10-16_13h45.52.667,HW_LDT_1,2024.2.4,MacIntel,60.24096386,,,,,,,,,,,,,,,,,,,,,,970.8326,971.0317,971.0317,971.5322,,,,,,,,,,,,,,1.0029,1,,,,,,,,,,,,,,m,,,,,,,,,,,,,,,143,0,971.5325,972.5496,m,1,1.0029,,[],[],[],[],[],[],[],972.5497,974.5493,974.5493,974.5496,[],[],[],[],[],[],[],,974.5496,974.5497,0.098276155,-0.053040082,0,0,0,,0,142,142,118,1,2,word,MEDICINE,print,medicine_p.png,,,,,,
,,,,32156,001,2025-10-16_13h45.52.667,HW_LDT_1,2024.2.4,MacIntel,60.24096386,,,,,,,,,,,,,,,,,,,,,,974.5511,974.7488,974.7489,975.2484,,,,,,,,,,,,,,0.6539,1,,,,,,,,,,,,,,m,,,,,,,,,,,,,,,144,0,975.249,975.9162,m,1,0.6539,,[],[],[],[],[],[],[],975.9163,977.915,977.9151,977.9153,[],[],[],[],[],[],[],,977.9153,977.9154,0.098025645,-0.052789572,0,0,0,,0,143,143,127,1,2,word,ORIGINAL,print,original_p.png,,,,,,
,,,,32156,001,2025-10-16_13h45.52.667,HW_LDT_1,2024.2.4,MacIntel,60.24096386,,,,,,,,,,,,,,,,,,,,,,977.9165,978.1155,978.1155,978.6158,,,,,,,,,,,,,,0.9114,1,,,,,,,,,,,,,,m,,,,,,,,,,,,,,,145,1,978.6164,979.5314,m,1,0.9114,,[],[],[],[],[],[],[],979.5314,981.5313,981.5313,982.8814,[],[],[],[],[],[],[],z,982.8815,982.8815,0.097745414,-0.051974355,0,0,0,,0,144,144,132,1,2,word,PROPOSAL,cursive,proposal_c.png,1.339,,,,,
,,,,32156,001,2025-10-16_13h45.52.667,HW_LDT_1,2024.2.4,MacIntel,60.24096386,,,,,,,,,,,,,,,,,,,,,,982.8819,983.0825,983.0826,983.5813,,,,,,,,,,,,,,3.0417,0,,,,,,,,,,,,,,m,,,,,,,,,,,,,,,146,0,983.5816,986.6317,z,0,3.0417,,[],[],[],[],[],[],[],986.6317,988.6321,988.6321,988.6323,[],[],[],[],[],[],[],,988.6323,988.6324,0.097745414,-0.051974355,0,0,0,,0,145,145,91,1,2,word,CARDINAL,cursive,cardinal_c.png,,,,,,
,,,,32156,001,2025-10-16_13h45.52.667,HW_LDT_1,2024.2.4,MacIntel,60.24096386,,,,,,,,,,,,,,,,,,,,,,988.6335,988.8322,988.8322,989.3326,,,,,,,,,,,,,,1.3197,1,,,,,,,,,,,,,,m,,,,,,,,,,,,,,,147,0,989.3331,990.6659,m,1,1.3197,,[],[],[],[],[],[],[],990.666,992.6659,992.666,992.6662,[],[],[],[],[],[],[],,992.6662,992.6665,0.097745414,-0.051974355,0,0,0,,0,146,146,156,1,2,word,TRIBUTE,cursive,tribute_c.png,,,,,,
,,,,32156,001,2025-10-16_13h45.52.667,HW_LDT_1,2024.2.4,MacIntel,60.24096386,,,,,,,,,,,,,,,,,,,,,,992.6677,992.8655,992.8656,993.3659,,,,,,,,,,,,,,0.8668,1,,,,,,,,,,,,,,z,,,,,,,,,,,,,,,148,0,993.3665,994.2489,z,1,0.8668,,[],[],[],[],[],[],[],994.2489,996.2489,996.249,996.2491,[],[],[],[],[],[],[],,996.2491,996.2491,0.097745414,-0.051974355,0,0,0,,0,147,147,19,1,2,RL,monebate,cursive,monebate_c.png,,,,,,
,,,,32156,001,2025-10-16_13h45.52.667,HW_LDT_1,2024.2.4,MacIntel,60.24096386,,,,,,,,,,,,,,,,,,,,,,996.2499,996.4494,996.4494,996.9489,,,,,,,,,,,,,,1.2621,1,,,,,,,,,,,,,,m,,,,,,,,,,,,,,,149,0,996.9492,998.2156,m,1,1.2621,0.0014,[],[],[],[],[],[],[],998.2156,1000.2156,1000.2156,1000.2157,[],[],[],[],[],[],[],,1000.2157,1000.2157,0.097482167,-0.051460598,0,0,0,,0,148,148,131,1,2,word,POPULAR,cursive,popular_c.png,,,,,,
,,,,32156,001,2025-10-16_13h45.52.667,HW_LDT_1,2024.2.4,MacIntel,60.24096386,,,,,,,,,,,,,,,,,,,,,,1000.216,1000.4159,1000.4159,1000.9156,,,,,,,,,,,,,,0.9231,1,,,,,,,,,,,,,,m,,,,,,,,,,,,,,,150,0,1000.9157,1001.8487,m,1,0.9231,,[],[],[],[],[],[],[],1001.8489,1003.8492,1003.8493,1003.8496,[],[],[],[],[],[],[],,1003.8496,1003.8498,0.09719769,-0.050675102,0,0,0,,0,149,149,136,1,2,word,RADICAL,cursive,radical_c.png,,,,,,
,,,,32156,001,2025-10-16_13h45.52.667,HW_LDT_1,2024.2.4,MacIntel,60.24096386,,,,,,,,,,,,,,,,,,,,,,1003.851,1004.0483,1004.0484,1004.5484,,,,,,,,,,,,,,2.3373,1,,,,,,,,,,,,,,m,,,,,,,,,,,,,,,151,0,1004.5489,1006.8981,m,1,2.3373,0.0017,[],[],[],[],[],[],[],1006.8982,1008.899,1008.899,1008.899,[],[],[],[],[],[],[],,1008.899,1008.8991,0.09719769,-0.050675102,0,0,0,,0,150,150,110,1,2,word,HERITAGE,print,heritage_p.png,,,,,,
,,,,32156,001,2025-10-16_13h45.52.667,HW_LDT_1,2024.2.4,MacIntel,60.24096386,,,,,,,,,,,,,,,,,,,,,,1008.8995,1009.0992,1009.0992,1009.5989,,,,,,,,,,,,,,0.6255,1,,,,,,,,,,,,,,m,,,,,,,,,,,,,,,152,0,1009.5992,1010.2323,m,1,0.6255,,[],[],[],[],[],[],[],1010.2323,1012.2313,1012.2313,1012.2313,[],[],[],[],[],[],[],,1012.2313,1012.2314,0.09719769,-0.050675102,0,0,0,,0,151,151,92,1,2,word,CATEGORY,print,category_p.png,,,,,,
,,,,32156,001,2025-10-16_13h45.52.667,HW_LDT_1,2024.2.4,MacIntel,60.24096386,,,,,,,,,,,,,,,,,,,,,,1012.2317,1012.4316,1012.4316,1012.9322,,,,,,,,,,,,,,0.4522,1,,,,,,,,,,,,,,m,,,,,,,,,,,,,,,153,1,1012.9325,1013.399,m,1,0.4522,,[],[],[],[],[],[],[],1013.399,1015.3991,1015.3993,1017.1326,[],[],[],[],[],[],[],m,1017.1327,1017.1327,0.096913213,-0.049859885,0,0,0,,0,152,152,96,1,2,word,CONSIDER,print,consider_p.png,1.7192,,,,,
,,,,32156,001,2025-10-16_13h45.52.667,HW_LDT_1,2024.2.4,MacIntel,60.24096386,,,,,,,,,,,,,,,,,,,,,,1017.1335,1017.3326,1017.3327,1017.8325,,,,,,,,,,,,,,1.0788,0,,,,,,,,,,,,,,z,,,,,,,,,,,,,,,154,0,1017.8331,1018.9155,m,0,1.0788,0.0028,[],[],[],[],[],[],[],1018.9155,1020.9155,1020.9155,1020.9155,[],[],[],[],[],[],[],,1020.9156,1020.9156,0.096913213,-0.049605129,0,0,0,,0,153,153,50,1,2,TL,donimant,print,donimant_p.png,,,,,,
,,,,32156,001,2025-10-16_13h45.52.667,HW_LDT_1,2024.2.4,MacIntel,60.24096386,,,,,,,,,,,,,,,,,,,,,,1020.9158,1021.1159,1021.1159,1021.6147,,,,,,,,,,,,,,0.7368,0,,,,,,,,,,,,,,z,,,,,,,,,,,,,,,155,1,1021.6148,1022.3655,m,0,0.7368,,[],[],[],[],[],[],[],1022.3656,1024.3656,1024.3656,1025.6822,[],[],[],[],[],[],[],m,1025.6823,1025.6823,0.096913213,-0.049605129,0,0,0,,0,154,154,49,1,2,TL,dedace,print,dedace_p.png,1.3025,,,,,
,,,,32156,001,2025-10-16_13h45.52.667,HW_LDT_1,2024.2.4,MacIntel,60.24096386,,,,,,,,,,,,,,,,,,,,,,1025.6828,1025.8826,1025.8827,1026.3814,,,,,,,,,,,,,,0.8886,1,,,,,,,,,,,,,,m,,,,,,,,,,,,,,,156,0,1026.3817,1027.2817,m,1,0.8886,,[],[],[],[],[],[],[],1027.2817,1029.2827,1029.2827,1029.2829,[],[],[],[],[],[],[],,1029.283,1029.2831,0.096913213,-0.049605129,0,0,0,,0,155,155,154,1,2,word,STORAGE,print,storage_p.png,,,,,,
,,,,32156,001,2025-10-16_13h45.52.667,HW_LDT_1,2024.2.4,MacIntel,60.24096386,,,,,,,,,,,,,,,,,,,,,,1029.2845,1029.4813,1029.4814,1029.9826,,,,,,,,,,,,,,0.9977,1,,,,,,,,,,,,,,z,,,,,,,,,,,,,,,157,0,1029.983,1030.9813,z,1,0.9977,,[],[],[],[],[],[],[],1030.9813,1032.9821,1032.9822,1032.9822,[],[],[],[],[],[],[],,1032.9822,1032.9822,0.096913213,-0.049605129,0,0,0,,0,156,156,74,1,2,TL,rerite,cursive,rerite_c.png,,,,,,
,,,,32156,001,2025-10-16_13h45.52.667,HW_LDT_1,2024.2.4,MacIntel,60.24096386,,,,,,,,,,,,,,,,,,,,,,1032.9825,1033.1825,1033.1825,1033.6822,,,,,,,,,,,,,,1.6061,1,,,,,,,,,,,,,,z,,,,,,,,,,,,,,,158,0,1033.6823,1035.2992,z,1,1.6061,,[],[],[],[],[],[],[],1035.2992,1037.2984,1037.2984,1037.2985,[],[],[],[],[],[],[],,1037.2985,1037.2986,0.096913213,-0.049605129,0,0,0,,0,157,157,38,1,2,TL,atameur,cursive,atameur_c.png,,,,,,
,,,,32156,001,2025-10-16_13h45.52.667,HW_LDT_1,2024.2.4,MacIntel,60.24096386,,,,,,,,,,,,,,,,,,,,,,1037.2998,1037.4993,1037.4994,1037.9984,,,,,,,,,,,,,,2.0205,1,,,,,,,,,,,,,,m,,,,,,,,,,,,,,,159,0,1037.9989,1040.0324,m,1,2.0205,,[],[],[],[],[],[],[],1040.0324,1042.0325,1042.0327,1042.0328,[],[],[],[],[],[],[],,1042.0329,1042.0331,0.096913213,-0.04935462,0,0,0,,0,158,158,95,1,2,word,COMEDY,cursive,comedy_c.png,,,,,,
,,,,32156,001,2025-10-16_13h45.52.667,HW_LDT_1,2024.2.4,MacIntel,60.24096386,,,,,,,,,,,,,,,,,,,,,,1042.0344,1042.2322,1042.2323,1042.7326,,,,,,,,,,,,,,1.1527,1,,,,,,,,,,,,,,z,,,,,,,,,,,,,,,160,0,1042.7333,1043.8984,z,1,1.1527,,[],[],[],[],[],[],[],1043.8984,1045.8991,1045.8992,1045.8993,[],[],[],[],[],[],[],,1045.8994,1045.8994,0.096913213,-0.04935462,0,0,0,,0,159,159,0,1,2,RL,adnicory,print,adnicory_p.png,,,,,,
,,,,32156,001,2025-10-16_13h45.52.667,HW_LDT_1,2024.2.4,MacIntel,60.24096386,,,,,,,,,,,,,,,,,,,,,,,,,,,,,,,,,,,,,,,,,,,,,,,,,,,,,,,,,,,,,,,,,,,,,,,,,,,,,,,,,,,,,,,,,,,,,,,,,,,,,,,,,,,,,,,,,,,,,,1045.9092,1050.899
