counterbalance_lists.group,counterbalance_lists.remaining,get_list.started,get_list.stopped,participant,session,date,expName,psychopyVersion,OS,frameRate,Instructions.started,Instructions.stopped,key_resp.keys,instr_done_touch.x,instr_done_touch.y,instr_done_touch.leftButton,instr_done_touch.midButton,instr_done_touch.rightButton,instr_done_touch.clicked_name,start_instr.thisRepN,start_instr.thisTrialN,start_instr.thisN,start_instr.thisIndex,start_instr.ran,pageN,phase,instruct_text,has_image,instruct_image,key_resp.rt,key_resp.duration,showProgress.started,showProgress.stopped,fix.started,fix.stopped,prac.started,prac.stopped,response.keys,response.corr,response.rt,response.duration,touch_resp.x,touch_resp.y,touch_resp.leftButton,touch_resp.midButton,touch_resp.rightButton,touch_resp.time,touch_resp.clicked_name,rt,corr,feedback.started,feedback.stopped,trials.thisRepN,trials.thisTrialN,trials.thisN,trials.thisIndex,trials.ran,TrialID,StimulusType,Condition,PrimeDuration,Prime,Target,corrAns,Instructions_expt.started,Instructions_expt.stopped,key_resp_3.keys,instr_done_touch_3.x,instr_done_touch_3.y,instr_done_touch_3.leftButton,instr_done_touch_3.midButton,instr_done_touch_3.rightButton,instr_done_touch_3.clicked_name,instr_experiment.thisRepN,instr_experiment.thisTrialN,instr_experiment.thisN,instr_experiment.thisIndex,instr_experiment.ran,trialID,flag,maintask.started,maintask.stopped,key_resp_2.keys,key_resp_2.corr,key_resp_2.rt,key_resp_2.duration,targ_click.x,targ_click.y,targ_click.leftButton,targ_click.midButton,targ_click.rightButton,targ_click.time,targ_click.clicked_name,ITI.started,ITI.stopped,probe.started,probe.stopped,click_probe.x,click_probe.y,click_probe.leftButton,click_probe.midButton,click_probe.rightButton,click_probe.time,click_probe.clicked_name,key_resp_probe.keys,key_resp_probe.rt,key_resp_probe.duration,Break.started,Break.stopped,break_done_touch.x,break_done_touch.y,break_done_touch.leftButton,break_done_touch.midButton,break_done_touch.rightButton,break_done_keyboard.keys,list3_trials.thisRepN,list3_trials.thisTrialN,list3_trials.thisN,list3_trials.thisIndex,list3_trials.ran,list_id,item_type,string,font,stim_file,break_done_keyboard.rt,break_done_keyboard.duration,End.started,End.stopped
list3,,0.481,0.481,32152,001,2025-10-16_15h20.38.084,HW_LDT_1,2024.2.4,MacIntel,62.5,,,,,,,,,,,,,,,,,,,,,,,,,,,,,,,,,,,,,,,,,,,,,,,,,,,,,,,,,,,,,,,,,,,,,,,,,,,,,,,,,,,,,,,,,,,,,,,,,,,,,,,,,,,,,,,,,,,,,,,
,,,,32152,001,2025-10-16_15h20.38.084,HW_LDT_1,2024.2.4,MacIntel,62.5,0.496,19.19,,-0.128042328,-0.384656085,1,0,0,instr_done_button,0,0,0,0,1,1,instructions,"INSTRUCTIONS
At the start of each trial, look at the plus sign  (+) in the center of the screen.  This tells you that a trial is about to begin and where to look. Second, the plus sign will disappear and a string of letters will appear. Your task is to determine if the string of letters is a word or not. If the item is a word press the M key (on keyboard)  or touch the word button (phone/tablet).  If the item is not a word,  press the  Z key (on keyboard)  or touch the nonword button (on phone/tablet). The items will be presented for a short time. 
Press the space bar or touch  continue.",0,,,,,,,,,,,,,,,,,,,,,,,,,,,,,,,,,,,,,,,,,,,,,,,,,,,,,,,,,,,,,,,,,,,,,,,,,,,,,,,,,,,,,,,,,,,,,,,,,,,,,
,,,,32152,001,2025-10-16_15h20.38.084,HW_LDT_1,2024.2.4,MacIntel,62.5,19.191,22.965,space,-0.128042328,-0.384656085,0,0,0,,0,1,1,1,1,2,instructions,"If your device has a keyboard, press the 'Z' key for nonwords and the 'M' key for words.





Press the space bar or touch the button below to continue.",0,keyboard-example.gif,3.737,,,,,,,,,,,,,,,,,,,,,,,,,,,,,,,,,,,,,,,,,,,,,,,,,,,,,,,,,,,,,,,,,,,,,,,,,,,,,,,,,,,,,,,,,,,,,,,,,,,
,,,,32152,001,2025-10-16_15h20.38.084,HW_LDT_1,2024.2.4,MacIntel,62.5,22.966,23.918,space,-0.128042328,-0.384656085,0,0,0,,0,2,2,2,1,3,instructions,"If you are using a touchscreen only device, use the buttons on the screen. Do not use the mouse.





Press the space bar or touch the button below to continue.",0,touchscreen-example.gif,0.912,,,,,,,,,,,,,,,,,,,,,,,,,,,,,,,,,,,,,,,,,,,,,,,,,,,,,,,,,,,,,,,,,,,,,,,,,,,,,,,,,,,,,,,,,,,,,,,,,,,
,,,,32152,001,2025-10-16_15h20.38.084,HW_LDT_1,2024.2.4,MacIntel,62.5,23.92,31.321,space,-0.128042328,-0.384656085,0,0,0,,0,3,3,3,1,4,instructions,"It is very important that you respond as quickly and accurately as possible, as each letter string will only be on the screen for two seconds. If you do not respond within this time, the message 'Too slow!' will be displayed and the experiment will progress to the next letter string. The first 20 trials will be practice trials and you will receive feedback on your answers. 

Press the space bar or touch the button below to start the practice trials.",0,,7.366,,,,,,,,,,,,,,,,,,,,,,,,,,,,,,,,,,,,,,,,,,,,,,,,,,,,,,,,,,,,,,,,,,,,,,,,,,,,,,,,,,,,,,,,,,,,,,,,,,,
,,,,32152,001,2025-10-16_15h20.38.084,HW_LDT_1,2024.2.4,MacIntel,62.5,,,,,,,,,,,,,,,,,,,,,,31.341,31.513,31.513,32.013,32.014,32.864,m,1,0.833,,[],[],[],[],[],[],[],0.833,1,32.865,33.351,0,0,0,2,1,1003,WORD,"ID",16,almond,ALMOND,m,,,,,,,,,,,,,,,,,,,,,,,,,,,,,,,,,,,,,,,,,,,,,,,,,,,,,,,,,,,,,,,,,
,,,,32152,001,2025-10-16_15h20.38.084,HW_LDT_1,2024.2.4,MacIntel,62.5,,,,,,,,,,,,,,,,,,,,,,33.352,33.554,33.554,34.052,34.053,34.814,z,1,0.747,,[],[],[],[],[],[],[],0.747,1,34.814,35.302,0,1,1,8,1,1009,NW,"ID",33,aslert,ASLERT,z,,,,,,,,,,,,,,,,,,,,,,,,,,,,,,,,,,,,,,,,,,,,,,,,,,,,,,,,,,,,,,,,,
,,,,32152,001,2025-10-16_15h20.38.084,HW_LDT_1,2024.2.4,MacIntel,62.5,,,,,,,,,,,,,,,,,,,,,,35.303,35.502,35.502,36.004,36.005,36.733,z,1,0.716,,[],[],[],[],[],[],[],0.716,1,36.734,37.23,0,2,2,11,1,1012,NW,"ID",16,rashet,RASHET,z,,,,,,,,,,,,,,,,,,,,,,,,,,,,,,,,,,,,,,,,,,,,,,,,,,,,,,,,,,,,,,,,,
,,,,32152,001,2025-10-16_15h20.38.084,HW_LDT_1,2024.2.4,MacIntel,62.5,,,,,,,,,,,,,,,,,,,,,,37.231,37.423,37.423,37.923,37.923,38.776,z,1,0.839,,[],[],[],[],[],[],[],0.839,1,38.776,39.272,0,3,3,12,1,1013,NW,UN,33,adveil,SPRINY,z,,,,,,,,,,,,,,,,,,,,,,,,,,,,,,,,,,,,,,,,,,,,,,,,,,,,,,,,,,,,,,,,,
,,,,32152,001,2025-10-16_15h20.38.084,HW_LDT_1,2024.2.4,MacIntel,62.5,,,,,,,,,,,,,,,,,,,,,,39.273,39.475,39.475,39.975,39.976,40.568,m,1,0.574,,[],[],[],[],[],[],[],0.574,1,40.568,41.059,0,4,4,3,1,1004,WORD,"ID",16,matrix,MATRIX,m,,,,,,,,,,,,,,,,,,,,,,,,,,,,,,,,,,,,,,,,,,,,,,,,,,,,,,,,,,,,,,,,,
,,,,32152,001,2025-10-16_15h20.38.084,HW_LDT_1,2024.2.4,MacIntel,62.5,,,,,,,,,,,,,,,,,,,,,,41.059,41.261,41.261,41.758,41.759,42.415,z,1,0.638,,[],[],[],[],[],[],[],0.638,1,42.415,42.919,0,5,5,13,1,1014,NW,UN,33,winfer,ROUPET,z,,,,,,,,,,,,,,,,,,,,,,,,,,,,,,,,,,,,,,,,,,,,,,,,,,,,,,,,,,,,,,,,,
,,,,32152,001,2025-10-16_15h20.38.084,HW_LDT_1,2024.2.4,MacIntel,62.5,,,,,,,,,,,,,,,,,,,,,,42.92,43.122,43.122,43.613,43.614,44.179,z,1,0.556,,[],[],[],[],[],[],[],0.556,1,44.179,44.668,0,6,6,9,1,1010,NW,"ID",33,fariny,FARINY,z,,,,,,,,,,,,,,,,,,,,,,,,,,,,,,,,,,,,,,,,,,,,,,,,,,,,,,,,,,,,,,,,,
,,,,32152,001,2025-10-16_15h20.38.084,HW_LDT_1,2024.2.4,MacIntel,62.5,,,,,,,,,,,,,,,,,,,,,,44.669,44.865,44.865,45.369,45.369,45.864,z,1,0.482,,[],[],[],[],[],[],[],0.482,1,45.865,46.368,0,7,7,14,1,1015,NW,UN,16,miaber,THRALE,z,,,,,,,,,,,,,,,,,,,,,,,,,,,,,,,,,,,,,,,,,,,,,,,,,,,,,,,,,,,,,,,,,
,,,,32152,001,2025-10-16_15h20.38.084,HW_LDT_1,2024.2.4,MacIntel,62.5,,,,,,,,,,,,,,,,,,,,,,46.369,46.556,46.556,47.059,47.059,47.742,m,1,0.664,,[],[],[],[],[],[],[],0.664,1,47.742,48.242,0,8,8,7,1,1008,WORD,UN,16,hurdle,VOLUME,m,,,,,,,,,,,,,,,,,,,,,,,,,,,,,,,,,,,,,,,,,,,,,,,,,,,,,,,,,,,,,,,,,
,,,,32152,001,2025-10-16_15h20.38.084,HW_LDT_1,2024.2.4,MacIntel,62.5,,,,,,,,,,,,,,,,,,,,,,48.243,48.442,48.442,48.931,48.932,49.569,m,1,0.622,,[],[],[],[],[],[],[],0.622,1,49.569,50.067,0,9,9,0,1,1001,WORD,"ID",33,utopia,UTOPIA,m,,,,,,,,,,,,,,,,,,,,,,,,,,,,,,,,,,,,,,,,,,,,,,,,,,,,,,,,,,,,,,,,,
,,,,32152,001,2025-10-16_15h20.38.084,HW_LDT_1,2024.2.4,MacIntel,62.5,,,,,,,,,,,,,,,,,,,,,,50.067,50.263,50.263,50.761,50.761,51.359,m,1,0.588,,[],[],[],[],[],[],[],0.588,1,51.359,51.859,0,10,10,6,1,1007,WORD,UN,16,tropic,ZOMBIE,m,,,,,,,,,,,,,,,,,,,,,,,,,,,,,,,,,,,,,,,,,,,,,,,,,,,,,,,,,,,,,,,,,
,,,,32152,001,2025-10-16_15h20.38.084,HW_LDT_1,2024.2.4,MacIntel,62.5,,,,,,,,,,,,,,,,,,,,,,51.86,52.06,52.06,52.559,52.559,53.167,z,1,0.6,,[],[],[],[],[],[],[],0.6,1,53.168,53.658,0,11,11,10,1,1011,NW,"ID",16,inlade,INLADE,z,,,,,,,,,,,,,,,,,,,,,,,,,,,,,,,,,,,,,,,,,,,,,,,,,,,,,,,,,,,,,,,,,
,,,,32152,001,2025-10-16_15h20.38.084,HW_LDT_1,2024.2.4,MacIntel,62.5,,,,,,,,,,,,,,,,,,,,,,53.659,53.854,53.854,54.353,54.354,54.956,z,1,0.591,,[],[],[],[],[],[],[],0.591,1,54.956,55.449,0,12,12,15,1,1016,NW,UN,16,mushed,WHAISE,z,,,,,,,,,,,,,,,,,,,,,,,,,,,,,,,,,,,,,,,,,,,,,,,,,,,,,,,,,,,,,,,,,
,,,,32152,001,2025-10-16_15h20.38.084,HW_LDT_1,2024.2.4,MacIntel,62.5,,,,,,,,,,,,,,,,,,,,,,55.45,55.651,55.651,56.146,56.146,56.683,m,1,0.518,,[],[],[],[],[],[],[],0.518,1,56.683,57.184,0,13,13,5,1,1006,WORD,UN,33,frenzy,OBTAIN,m,,,,,,,,,,,,,,,,,,,,,,,,,,,,,,,,,,,,,,,,,,,,,,,,,,,,,,,,,,,,,,,,,
,,,,32152,001,2025-10-16_15h20.38.084,HW_LDT_1,2024.2.4,MacIntel,62.5,,,,,,,,,,,,,,,,,,,,,,57.185,57.376,57.376,57.875,57.876,58.609,m,1,0.723,,[],[],[],[],[],[],[],0.723,1,58.609,59.102,0,14,14,4,1,1005,WORD,UN,33,abound,SQUEAK,m,,,,,,,,,,,,,,,,,,,,,,,,,,,,,,,,,,,,,,,,,,,,,,,,,,,,,,,,,,,,,,,,,
,,,,32152,001,2025-10-16_15h20.38.084,HW_LDT_1,2024.2.4,MacIntel,62.5,,,,,,,,,,,,,,,,,,,,,,59.103,59.301,59.301,59.796,59.797,60.381,m,1,0.571,,[],[],[],[],[],[],[],0.571,1,60.381,60.875,0,15,15,1,1,1002,WORD,"ID",33,adjust,ADJUST,m,,,,,,,,,,,,,,,,,,,,,,,,,,,,,,,,,,,,,,,,,,,,,,,,,,,,,,,,,,,,,,,,,
,,,,32152,001,2025-10-16_15h20.38.084,HW_LDT_1,2024.2.4,MacIntel,62.5,,,,,,,,,,,,,,,1,end_of_practice,"You have completed the practice trials. During the experimental trials, you will not receive feedback. On some trials you will be asked to report whether the item you just saw was in cursive or print. 
Before you begin, please ensure that you are in a comfortable and quiet location and will not be disturbed for about 15 minutes, as we cannot use your data if you do not complete all the trials. 
 When you are ready to start the experimental trials, please press space or touch the button below.",,,,,,,,,,,,,,,,,,,,,,,,,,,,,,,,,,,,,,60.88,64.28,,-0.095238095,-0.397354497,1,0,0,instr_done_button_3,0,0,0,0,1,,,,,,,,,,,,,,,,,,,,,,,,,,,,,,,,,,,,,,,,,,,,,,,,,,,
,,,,32152,001,2025-10-16_15h20.38.084,HW_LDT_1,2024.2.4,MacIntel,62.5,,,,,,,,,,,,,,,,,,,,,,64.298,64.476,64.476,64.974,,,,,,,,,,,,,,2.046,1,,,,,,,,,,,,,,z,,,,,,,,,,,,,,,1,1,64.975,67.034,z,1,2.046,,[],[],[],[],[],[],[],67.034,69.037,69.038,72.996,[],[],[],[],[],[],[],z,3.953,,72.997,72.999,-0.095238095,-0.381481481,0,0,0,,0,0,0,11,1,3,RL,ebiwent,cursive,ebiwent_c.png,,,,
,,,,32152,001,2025-10-16_15h20.38.084,HW_LDT_1,2024.2.4,MacIntel,62.5,,,,,,,,,,,,,,,,,,,,,,73,73.201,73.201,73.688,,,,,,,,,,,,,,1.906,1,,,,,,,,,,,,,,m,,,,,,,,,,,,,,,2,0,73.688,75.598,m,1,1.906,,[],[],[],[],[],[],[],75.598,77.597,77.597,77.597,[],[],[],[],[],[],[],,,,77.597,77.598,-0.095238095,-0.381481481,0,0,0,,0,1,1,157,1,3,word,VALIDITY,cursive,validity_c.png,,,,
,,,,32152,001,2025-10-16_15h20.38.084,HW_LDT_1,2024.2.4,MacIntel,62.5,,,,,,,,,,,,,,,,,,,,,,77.598,77.792,77.792,78.288,,,,,,,,,,,,,,2.118,1,,,,,,,,,,,,,,m,,,,,,,,,,,,,,,3,0,78.288,80.416,m,1,2.118,,[],[],[],[],[],[],[],80.417,82.409,82.409,82.41,[],[],[],[],[],[],[],,,,82.41,82.41,-0.095238095,-0.381481481,0,0,0,,0,2,2,158,1,3,word,VELOCITY,cursive,velocity_c.png,,,,
,,,,32152,001,2025-10-16_15h20.38.084,HW_LDT_1,2024.2.4,MacIntel,62.5,,,,,,,,,,,,,,,,,,,,,,82.41,82.606,82.606,83.106,,,,,,,,,,,,,,1.765,1,,,,,,,,,,,,,,z,,,,,,,,,,,,,,,4,0,83.106,84.884,z,1,1.765,,[],[],[],[],[],[],[],84.884,86.884,86.884,86.884,[],[],[],[],[],[],[],,,,86.884,86.884,-0.095238095,-0.381481481,0,0,0,,0,3,3,63,1,3,TL,racidal,cursive,racidal_c.png,,,,
,,,,32152,001,2025-10-16_15h20.38.084,HW_LDT_1,2024.2.4,MacIntel,62.5,,,,,,,,,,,,,,,,,,,,,,86.885,87.086,87.086,87.588,,,,,,,,,,,,,,2.089,1,,,,,,,,,,,,,,z,,,,,,,,,,,,,,,5,0,87.588,89.678,z,1,2.089,,[],[],[],[],[],[],[],89.679,91.677,91.677,91.678,[],[],[],[],[],[],[],,,,91.678,91.678,-0.095238095,-0.381481481,0,0,0,,0,4,4,10,1,3,RL,efibor,print,efibor_p.png,,,,
,,,,32152,001,2025-10-16_15h20.38.084,HW_LDT_1,2024.2.4,MacIntel,62.5,,,,,,,,,,,,,,,,,,,,,,91.678,91.881,91.881,92.378,,,,,,,,,,,,,,0.789,1,,,,,,,,,,,,,,m,,,,,,,,,,,,,,,6,0,92.379,93.175,m,1,0.789,,[],[],[],[],[],[],[],93.175,95.172,95.172,95.172,[],[],[],[],[],[],[],,,,95.172,95.173,-0.095238095,-0.381481481,0,0,0,,0,5,5,151,1,3,word,SPECIFIC,print,specific_p.png,,,,
,,,,32152,001,2025-10-16_15h20.38.084,HW_LDT_1,2024.2.4,MacIntel,62.5,,,,,,,,,,,,,,,,,,,,,,95.173,95.375,95.375,95.87,,,,,,,,,,,,,,1.279,1,,,,,,,,,,,,,,z,,,,,,,,,,,,,,,7,0,95.871,97.16,z,1,1.279,,[],[],[],[],[],[],[],97.16,99.159,99.159,99.159,[],[],[],[],[],[],[],,,,99.159,99.159,-0.095238095,-0.381481481,0,0,0,,0,6,6,77,1,3,TL,vadility,cursive,vadility_c.png,,,,
,,,,32152,001,2025-10-16_15h20.38.084,HW_LDT_1,2024.2.4,MacIntel,62.5,,,,,,,,,,,,,,,,,,,,,,99.16,99.355,99.355,99.859,,,,,,,,,,,,,,1.046,1,,,,,,,,,,,,,,z,,,,,,,,,,,,,,,8,0,99.859,100.913,z,1,1.046,,[],[],[],[],[],[],[],100.913,102.916,102.916,102.917,[],[],[],[],[],[],[],,,,102.917,102.917,-0.095238095,-0.381481481,0,0,0,,0,7,7,50,1,3,TL,lirebal,print,lirebal_p.png,,,,
,,,,32152,001,2025-10-16_15h20.38.084,HW_LDT_1,2024.2.4,MacIntel,62.5,,,,,,,,,,,,,,,,,,,,,,102.918,103.1,103.1,103.618,,,,,,,,,,,,,,2.057,1,,,,,,,,,,,,,,m,,,,,,,,,,,,,,,9,1,103.618,105.68,m,1,2.057,,[],[],[],[],[],[],[],105.68,107.677,107.677,111.314,[],[],[],[],[],[],[],z,3.625,,111.314,111.314,-0.095238095,-0.381481481,0,0,0,,0,8,8,145,1,3,word,RESUME,cursive,resume_c.png,,,,
,,,,32152,001,2025-10-16_15h20.38.084,HW_LDT_1,2024.2.4,MacIntel,62.5,,,,,,,,,,,,,,,,,,,,,,111.315,111.511,111.511,112.01,,,,,,,,,,,,,,1.709,1,,,,,,,,,,,,,,z,,,,,,,,,,,,,,,10,0,112.01,113.73,z,1,1.709,,[],[],[],[],[],[],[],113.73,115.723,115.723,115.723,[],[],[],[],[],[],[],,,,115.723,115.723,-0.095238095,-0.381481481,0,0,0,,0,9,9,72,1,3,TL,senmitent,print,senmitent_p.png,,,,
,,,,32152,001,2025-10-16_15h20.38.084,HW_LDT_1,2024.2.4,MacIntel,62.5,,,,,,,,,,,,,,,,,,,,,,115.724,115.926,115.926,116.426,,,,,,,,,,,,,,4.371,1,,,,,,,,,,,,,,z,,,,,,,,,,,,,,,11,0,116.426,120.809,z,1,4.371,,[],[],[],[],[],[],[],120.809,122.808,122.808,122.808,[],[],[],[],[],[],[],,,,122.808,122.809,-0.095238095,-0.381481481,0,0,0,,0,10,10,71,1,3,TL,sanile,cursive,sanile_c.png,,,,
,,,,32152,001,2025-10-16_15h20.38.084,HW_LDT_1,2024.2.4,MacIntel,62.5,,,,,,,,,,,,,,,,,,,,,,122.809,123.005,123.006,123.504,,,,,,,,,,,,,,1.843,1,,,,,,,,,,,,,,m,,,,,,,,,,,,,,,12,1,123.504,125.357,m,1,1.843,,[],[],[],[],[],[],[],125.357,127.353,127.354,128.47,[],[],[],[],[],[],[],z,1.114,,128.47,128.47,-0.095238095,-0.381481481,0,0,0,,0,11,11,128,1,3,word,PACIFIC,cursive,pacific_c.png,,,,
,,,,32152,001,2025-10-16_15h20.38.084,HW_LDT_1,2024.2.4,MacIntel,62.5,,,,,,,,,,,,,,,,,,,,,,128.471,128.663,128.663,129.162,,,,,,,,,,,,,,1.536,1,,,,,,,,,,,,,,m,,,,,,,,,,,,,,,13,0,129.162,130.704,m,1,1.536,,[],[],[],[],[],[],[],130.704,132.709,132.709,132.71,[],[],[],[],[],[],[],,,,132.71,132.71,-0.095238095,-0.381481481,0,0,0,,0,12,12,86,1,3,word,BESIDE,cursive,beside_c.png,,,,
,,,,32152,001,2025-10-16_15h20.38.084,HW_LDT_1,2024.2.4,MacIntel,62.5,,,,,,,,,,,,,,,,,,,,,,132.71,132.906,132.906,133.41,,,,,,,,,,,,,,3.656,0,,,,,,,,,,,,,,m,,,,,,,,,,,,,,,14,0,133.41,137.066,z,0,3.656,,[],[],[],[],[],[],[],137.066,139.066,139.066,139.066,[],[],[],[],[],[],[],,,,139.066,139.066,-0.095238095,-0.381481481,0,0,0,,0,13,13,114,1,3,word,LOCATE,cursive,locate_c.png,,,,
,,,,32152,001,2025-10-16_15h20.38.084,HW_LDT_1,2024.2.4,MacIntel,62.5,,,,,,,,,,,,,,,,,,,,,,139.067,139.264,139.264,139.759,,,,,,,,,,,,,,1.017,1,,,,,,,,,,,,,,m,,,,,,,,,,,,,,,15,1,139.759,140.782,m,1,1.017,,[],[],[],[],[],[],[],140.782,142.789,142.789,144.384,[],[],[],[],[],[],[],m,1.592,,144.385,144.385,-0.095238095,-0.381481481,0,0,0,,0,14,14,80,1,3,word,ACADEMY,print,academy_p.png,,,,
,,,,32152,001,2025-10-16_15h20.38.084,HW_LDT_1,2024.2.4,MacIntel,62.5,,,,,,,,,,,,,,,,,,,,,,144.385,144.586,144.586,145.088,,,,,,,,,,,,,,1.321,1,,,,,,,,,,,,,,m,,,,,,,,,,,,,,,16,0,145.088,146.419,m,1,1.321,,[],[],[],[],[],[],[],146.419,148.414,148.414,148.414,[],[],[],[],[],[],[],,,,148.414,148.414,-0.095238095,-0.381481481,0,0,0,,0,15,15,129,1,3,word,PARENT,print,parent_p.png,,,,
,,,,32152,001,2025-10-16_15h20.38.084,HW_LDT_1,2024.2.4,MacIntel,62.5,,,,,,,,,,,,,,,,,,,,,,148.415,148.608,148.608,149.112,,,,,,,,,,,,,,0.913,1,,,,,,,,,,,,,,m,,,,,,,,,,,,,,,17,0,149.113,150.031,m,1,0.913,,[],[],[],[],[],[],[],150.031,152.036,152.036,152.036,[],[],[],[],[],[],[],,,,152.036,152.036,-0.095238095,-0.381481481,0,0,0,,0,16,16,96,1,3,word,CONSIDER,print,consider_p.png,,,,
,,,,32152,001,2025-10-16_15h20.38.084,HW_LDT_1,2024.2.4,MacIntel,62.5,,,,,,,,,,,,,,,,,,,,,,152.037,152.234,152.235,152.734,,,,,,,,,,,,,,0.68,1,,,,,,,,,,,,,,m,,,,,,,,,,,,,,,18,0,152.734,153.424,m,1,0.68,,[],[],[],[],[],[],[],153.424,155.434,155.434,155.434,[],[],[],[],[],[],[],,,,155.434,155.435,-0.094179894,-0.382539683,0,0,0,,0,17,17,132,1,3,word,PROPOSAL,print,proposal_p.png,,,,
,,,,32152,001,2025-10-16_15h20.38.084,HW_LDT_1,2024.2.4,MacIntel,62.5,,,,,,,,,,,,,,,,,,,,,,155.435,155.638,155.638,156.137,,,,,,,,,,,,,,0.902,1,,,,,,,,,,,,,,m,,,,,,,,,,,,,,,19,0,156.138,157.049,m,1,0.902,,[],[],[],[],[],[],[],157.049,159.042,159.042,159.043,[],[],[],[],[],[],[],,,,159.043,159.043,-0.094179894,-0.382539683,0,0,0,,0,18,18,84,1,3,word,BELOVED,cursive,beloved_c.png,,,,
,,,,32152,001,2025-10-16_15h20.38.084,HW_LDT_1,2024.2.4,MacIntel,62.5,,,,,,,,,,,,,,,,,,,,,,159.043,159.242,159.242,159.744,,,,,,,,,,,,,,0.651,1,,,,,,,,,,,,,,m,,,,,,,,,,,,,,,20,0,159.745,160.408,m,1,0.651,,[],[],[],[],[],[],[],160.408,162.404,162.405,162.405,[],[],[],[],[],[],[],,,,162.405,162.405,-0.094179894,-0.382539683,0,0,0,,0,19,19,137,1,3,word,RAPIDLY,print,rapidly_p.png,,,,
,,,,32152,001,2025-10-16_15h20.38.084,HW_LDT_1,2024.2.4,MacIntel,62.5,,,,,,,,,,,,,,,,,,,,,,162.406,162.593,162.593,163.097,,,,,,,,,,,,,,0.494,1,,,,,,,,,,,,,,m,,,,,,,,,,,,,,,21,1,163.097,163.6,m,1,0.494,,[],[],[],[],[],[],[],163.6,165.6,165.6,166.908,[],[],[],[],[],[],[],m,1.302,,166.908,166.908,-0.094179894,-0.382539683,0,0,0,,0,20,20,130,1,3,word,POLICY,print,policy_p.png,,,,
,,,,32152,001,2025-10-16_15h20.38.084,HW_LDT_1,2024.2.4,MacIntel,62.5,,,,,,,,,,,,,,,,,,,,,,166.909,167.112,167.112,167.6,,,,,,,,,,,,,,1.739,1,,,,,,,,,,,,,,m,,,,,,,,,,,,,,,22,0,167.6,169.343,m,1,1.739,,[],[],[],[],[],[],[],169.344,171.34,171.34,171.34,[],[],[],[],[],[],[],,,,171.34,171.34,-0.094179894,-0.382539683,0,0,0,,0,21,21,153,1,3,word,STOLEN,cursive,stolen_c.png,,,,
,,,,32152,001,2025-10-16_15h20.38.084,HW_LDT_1,2024.2.4,MacIntel,62.5,,,,,,,,,,,,,,,,,,,,,,171.341,171.535,171.535,172.033,,,,,,,,,,,,,,1.934,1,,,,,,,,,,,,,,z,,,,,,,,,,,,,,,23,0,172.033,173.98,z,1,1.934,,[],[],[],[],[],[],[],173.98,175.98,175.98,175.98,[],[],[],[],[],[],[],,,,175.98,175.98,-0.094179894,-0.382539683,0,0,0,,0,22,22,36,1,3,TL,carema,cursive,carema_c.png,,,,
,,,,32152,001,2025-10-16_15h20.38.084,HW_LDT_1,2024.2.4,MacIntel,62.5,,,,,,,,,,,,,,,,,,,,,,175.981,176.167,176.167,176.678,,,,,,,,,,,,,,0.633,1,,,,,,,,,,,,,,m,,,,,,,,,,,,,,,24,0,176.678,177.321,m,1,0.633,,[],[],[],[],[],[],[],177.321,179.318,179.319,179.319,[],[],[],[],[],[],[],,,,179.319,179.319,-0.094179894,-0.382539683,0,0,0,,0,23,23,113,1,3,word,LITERAL,print,literal_p.png,,,,
,,,,32152,001,2025-10-16_15h20.38.084,HW_LDT_1,2024.2.4,MacIntel,62.5,,,,,,,,,,,,,,,,,,,,,,179.319,179.521,179.521,180.021,,,,,,,,,,,,,,0.855,1,,,,,,,,,,,,,,z,,,,,,,,,,,,,,,25,0,180.021,180.88,z,1,0.855,,[],[],[],[],[],[],[],180.88,182.876,182.876,182.876,[],[],[],[],[],[],[],,,,182.876,182.876,-0.094179894,-0.382539683,0,0,0,,0,24,24,29,1,3,RL,selamor,cursive,selamor_c.png,,,,
,,,,32152,001,2025-10-16_15h20.38.084,HW_LDT_1,2024.2.4,MacIntel,62.5,,,,,,,,,,,,,,,,,,,,,,182.877,183.077,183.077,183.567,,,,,,,,,,,,,,0.608,1,,,,,,,,,,,,,,m,,,,,,,,,,,,,,,26,0,183.568,184.177,m,1,0.608,,[],[],[],[],[],[],[],184.177,186.166,186.166,186.167,[],[],[],[],[],[],[],,,,186.167,186.167,-0.094179894,-0.382539683,0,0,0,,0,25,25,152,1,3,word,SPECIMEN,print,specimen_p.png,,,,
,,,,32152,001,2025-10-16_15h20.38.084,HW_LDT_1,2024.2.4,MacIntel,62.5,,,,,,,,,,,,,,,,,,,,,,186.167,186.363,186.363,186.863,,,,,,,,,,,,,,1.212,0,,,,,,,,,,,,,,z,,,,,,,,,,,,,,,27,1,186.863,188.086,m,0,1.212,,[],[],[],[],[],[],[],188.086,190.085,190.085,192.021,[],[],[],[],[],[],[],m,1.929,,192.021,192.021,-0.094179894,-0.382539683,0,0,0,,0,26,26,9,1,3,RL,docirant,print,docirant_p.png,,,,
,,,,32152,001,2025-10-16_15h20.38.084,HW_LDT_1,2024.2.4,MacIntel,62.5,,,,,,,,,,,,,,,,,,,,,,192.022,192.221,192.221,192.718,,,,,,,,,,,,,,1.851,0,,,,,,,,,,,,,,m,,,,,,,,,,,,,,,28,0,192.719,194.574,z,0,1.851,,[],[],[],[],[],[],[],194.574,196.569,196.569,196.569,[],[],[],[],[],[],[],,,,196.569,196.569,-0.094179894,-0.382539683,0,0,0,,0,27,27,123,1,3,word,MODERATE,cursive,moderate_c.png,,,,
,,,,32152,001,2025-10-16_15h20.38.084,HW_LDT_1,2024.2.4,MacIntel,62.5,,,,,,,,,,,,,,,,,,,,,,196.57,196.765,196.765,197.263,,,,,,,,,,,,,,0.734,1,,,,,,,,,,,,,,m,,,,,,,,,,,,,,,29,0,197.264,198.008,m,1,0.734,,[],[],[],[],[],[],[],198.008,200,200.001,200.001,[],[],[],[],[],[],[],,,,200.001,200.001,-0.094179894,-0.382539683,0,0,0,,0,28,28,81,1,3,word,ADVISORY,print,advisory_p.png,,,,
,,,,32152,001,2025-10-16_15h20.38.084,HW_LDT_1,2024.2.4,MacIntel,62.5,,,,,,,,,,,,,,,,,,,,,,200.001,200.201,200.201,200.7,,,,,,,,,,,,,,1.132,1,,,,,,,,,,,,,,z,,,,,,,,,,,,,,,30,0,200.7,201.842,z,1,1.132,,[],[],[],[],[],[],[],201.842,203.833,203.833,203.833,[],[],[],[],[],[],[],,,,203.833,203.833,-0.094179894,-0.382539683,0,0,0,,0,29,29,25,1,3,RL,retupar,print,retupar_p.png,,,,
,,,,32152,001,2025-10-16_15h20.38.084,HW_LDT_1,2024.2.4,MacIntel,62.5,,,,,,,,,,,,,,,,,,,,,,203.834,204.022,204.022,204.526,,,,,,,,,,,,,,1.563,0,,,,,,,,,,,,,,m,,,,,,,,,,,,,,,31,0,204.527,206.093,z,0,1.563,,[],[],[],[],[],[],[],206.093,208.091,208.091,208.091,[],[],[],[],[],[],[],,,,208.091,208.091,-0.094179894,-0.382539683,0,0,0,,0,30,30,117,1,3,word,MARINE,cursive,marine_c.png,,,,
,,,,32152,001,2025-10-16_15h20.38.084,HW_LDT_1,2024.2.4,MacIntel,62.5,,,,,,,,,,,,,,,,,,,,,,208.092,208.285,208.285,208.786,,,,,,,,,,,,,,1.54,1,,,,,,,,,,,,,,z,,,,,,,,,,,,,,,32,0,208.787,210.337,z,1,1.54,,[],[],[],[],[],[],[],210.337,212.34,212.34,212.34,[],[],[],[],[],[],[],,,,212.34,212.34,-0.094179894,-0.382539683,0,0,0,,0,31,31,46,1,3,TL,distupe,print,distupe_p.png,,,,
,,,,32152,001,2025-10-16_15h20.38.084,HW_LDT_1,2024.2.4,MacIntel,62.5,,,,,,,,,,,,,,,,,,,,,,212.34,212.536,212.536,213.028,,,,,,,,,,,,,,1.208,1,,,,,,,,,,,,,,z,,,,,,,,,,,,,,,33,0,213.029,214.238,z,1,1.208,,[],[],[],[],[],[],[],214.238,216.238,216.238,216.238,[],[],[],[],[],[],[],,,,216.238,216.239,-0.094179894,-0.382539683,0,0,0,,0,32,32,33,1,3,TL,adsivory,print,adsivory_p.png,,,,
,,,,32152,001,2025-10-16_15h20.38.084,HW_LDT_1,2024.2.4,MacIntel,62.5,,,,,,,,,,,,,,,,,,,,,,216.239,216.44,216.44,216.931,,,,,,,,,,,,,,0.659,1,,,,,,,,,,,,,,z,,,,,,,,,,,,,,,34,0,216.931,217.596,z,1,0.659,,[],[],[],[],[],[],[],217.596,219.587,219.587,219.587,[],[],[],[],[],[],[],,,,219.587,219.587,-0.094179894,-0.382539683,0,0,0,,0,33,33,61,1,3,TL,pocily,print,pocily_p.png,,,,
,,,,32152,001,2025-10-16_15h20.38.084,HW_LDT_1,2024.2.4,MacIntel,62.5,,,,,,,,,,,,,,,,,,,,,,219.588,219.782,219.782,220.284,,,,,,,,,,,,,,1.439,1,,,,,,,,,,,,,,m,,,,,,,,,,,,,,,35,0,220.285,221.727,m,1,1.439,,[],[],[],[],[],[],[],221.727,223.728,223.728,223.728,[],[],[],[],[],[],[],,,,223.728,223.728,-0.094179894,-0.382539683,0,0,0,,0,34,34,159,1,3,word,VETERAN,cursive,veteran_c.png,,,,
,,,,32152,001,2025-10-16_15h20.38.084,HW_LDT_1,2024.2.4,MacIntel,62.5,,,,,,,,,,,,,,,,,,,,,,223.729,223.935,223.935,224.425,,,,,,,,,,,,,,0.929,1,,,,,,,,,,,,,,z,,,,,,,,,,,,,,,36,1,224.425,225.363,z,1,0.929,,[],[],[],[],[],[],[],225.363,227.362,227.362,231.122,[],[],[],[],[],[],[],z,3.757,,231.122,231.122,-0.094179894,-0.382539683,0,0,0,,0,35,35,65,1,3,TL,resufal,print,resufal_p.png,,,,
,,,,32152,001,2025-10-16_15h20.38.084,HW_LDT_1,2024.2.4,MacIntel,62.5,,,,,,,,,,,,,,,,,,,,,,231.123,231.32,231.32,231.821,,,,,,,,,,,,,,2.082,1,,,,,,,,,,,,,,z,,,,,,,,,,,,,,,37,0,231.821,233.91,z,1,2.082,,[],[],[],[],[],[],[],233.91,235.9,235.9,235.9,[],[],[],[],[],[],[],,,,235.9,235.9,-0.094179894,-0.382539683,0,0,0,,0,36,36,70,1,3,TL,remuse,cursive,remuse_c.png,,,,
,,,,32152,001,2025-10-16_15h20.38.084,HW_LDT_1,2024.2.4,MacIntel,62.5,,,,,,,,,,,,,,,,,,,,,,235.901,236.097,236.097,236.595,,,,,,,,,,,,,,1.235,1,,,,,,,,,,,,,,m,,,,,,,,,,,,,,,38,0,236.595,237.836,m,1,1.235,,[],[],[],[],[],[],[],237.836,239.833,239.833,239.834,[],[],[],[],[],[],[],,,,239.834,239.834,-0.094179894,-0.382539683,0,0,0,,0,37,37,105,1,3,word,EDITOR,print,editor_p.png,,,,
,,,,32152,001,2025-10-16_15h20.38.084,HW_LDT_1,2024.2.4,MacIntel,62.5,,,,,,,,,,,,,,,,,,,,,,239.834,240.039,240.039,240.537,,,,,,,,,,,,,,1.167,1,,,,,,,,,,,,,,z,,,,,,,,,,,,,,,39,0,240.538,241.707,z,1,1.167,,[],[],[],[],[],[],[],241.707,243.711,243.711,243.711,[],[],[],[],[],[],[],,,,243.711,243.711,-0.094179894,-0.382539683,0,0,0,,0,38,38,2,1,3,RL,betemit,print,betemit_p.png,,,,
,,,,32152,001,2025-10-16_15h20.38.084,HW_LDT_1,2024.2.4,MacIntel,62.5,,,,,,,,,,,,,,,,,,,,,,243.712,243.903,243.903,244.403,,,,,,,,,,,,,,1.532,1,,,,,,,,,,,,,,z,,,,,,,,,,,,,,,40,0,244.403,245.949,z,1,1.532,,[],[],[],[],[],[],[],245.949,247.942,247.942,247.942,[],[],[],[],[],[],[],,,,247.942,247.942,-0.094179894,-0.382539683,0,0,0,,0,39,39,66,1,3,TL,retalive,cursive,retalive_c.png,,,,
,,,,32152,001,2025-10-16_15h20.38.084,HW_LDT_1,2024.2.4,MacIntel,62.5,,,,,,,,,,,,,,,,,,,,,,247.943,248.144,248.144,248.645,,,,,,,,,,,,,,0.783,1,,,,,,,,,,,,,,m,,,,,,,,,,,,,,,41,0,248.646,249.44,m,1,0.783,,[],[],[],[],[],[],[],249.44,251.434,251.434,251.434,[],[],[],[],[],[],[],,,,251.434,251.434,-0.094179894,-0.382539683,0,0,0,,0,40,40,150,1,3,word,SENTIMENT,print,sentiment_p.png,,,,
,,,,32152,001,2025-10-16_15h20.38.084,HW_LDT_1,2024.2.4,MacIntel,62.5,,,,,,,,,,,,,,,,,,,,,,251.434,251.633,251.633,252.129,,,,,,,,,,,,,,0.842,1,,,,,,,,,,,,,,z,,,,,,,,,,,,,,,42,0,252.129,252.976,z,1,0.842,,[],[],[],[],[],[],[],252.976,254.976,254.976,254.976,[],[],[],[],[],[],[],,,,254.976,254.976,-0.094179894,-0.382539683,0,0,0,,0,41,41,55,1,3,TL,mecidine,print,mecidine_p.png,,,,
,,,,32152,001,2025-10-16_15h20.38.084,HW_LDT_1,2024.2.4,MacIntel,62.5,,,,,,,,,,,,,,,,,,,,,,254.977,255.178,255.178,255.673,,,,,,,,,,,,,,0.7,1,,,,,,,,,,,,,,m,,,,,,,,,,,,,,,43,0,255.673,256.379,m,1,0.7,,[],[],[],[],[],[],[],256.379,258.379,258.379,258.38,[],[],[],[],[],[],[],,,,258.38,258.38,-0.094179894,-0.382539683,0,0,0,,0,42,42,131,1,3,word,POPULAR,print,popular_p.png,,,,
,,,,32152,001,2025-10-16_15h20.38.084,HW_LDT_1,2024.2.4,MacIntel,62.5,,,,,,,,,,,,,,,,,,,,,,258.38,258.579,258.579,259.072,,,,,,,,,,,,,,1.407,0,,,,,,,,,,,,,,m,,,,,,,,,,,,,,,44,0,259.072,260.489,z,0,1.407,,[],[],[],[],[],[],[],260.489,262.493,262.493,262.493,[],[],[],[],[],[],[],,,,262.493,262.493,-0.094179894,-0.382539683,0,0,0,,0,43,43,120,1,3,word,MILITARY,cursive,military_c.png,,,,
,,,,32152,001,2025-10-16_15h20.38.084,HW_LDT_1,2024.2.4,MacIntel,62.5,,,,,,,,,,,,,,,,,,,,,,262.494,262.696,262.696,263.194,,,,,,,,,,,,,,1.136,1,,,,,,,,,,,,,,m,,,,,,,,,,,,,,,45,0,263.194,264.333,m,1,1.136,,[],[],[],[],[],[],[],264.333,266.326,266.326,266.326,[],[],[],[],[],[],[],,,,266.326,266.326,-0.094179894,-0.382539683,0,0,0,,0,44,44,100,1,3,word,DECADE,cursive,decade_c.png,,,,
,,,,32152,001,2025-10-16_15h20.38.084,HW_LDT_1,2024.2.4,MacIntel,62.5,,,,,,,,,,,,,,,,,,,,,,266.327,266.528,266.528,267.017,,,,,,,,,,,,,,1.935,1,,,,,,,,,,,,,,z,,,,,,,,,,,,,,,46,0,267.017,268.956,z,1,1.935,,[],[],[],[],[],[],[],268.956,270.955,270.955,270.955,[],[],[],[],[],[],[],,,,270.955,270.955,-0.094179894,-0.382539683,0,0,0,,0,45,45,79,1,3,TL,veretan,cursive,veretan_c.png,,,,
,,,,32152,001,2025-10-16_15h20.38.084,HW_LDT_1,2024.2.4,MacIntel,62.5,,,,,,,,,,,,,,,,,,,,,,270.956,271.149,271.15,271.644,,,,,,,,,,,,,,1.109,1,,,,,,,,,,,,,,z,,,,,,,,,,,,,,,47,0,271.644,272.754,z,1,1.109,,[],[],[],[],[],[],[],272.754,274.76,274.76,274.76,[],[],[],[],[],[],[],,,,274.76,274.76,-0.094179894,-0.382539683,0,0,0,,0,46,46,45,1,3,TL,dentisy,print,dentisy_p.png,,,,
,,,,32152,001,2025-10-16_15h20.38.084,HW_LDT_1,2024.2.4,MacIntel,62.5,,,,,,,,,,,,,,,,,,,,,,274.761,274.947,274.947,275.453,,,,,,,,,,,,,,0.639,0,,,,,,,,,,,,,,m,,,,,,,,,,,,,,,48,1,275.454,276.107,z,0,0.639,,[],[],[],[],[],[],[],276.107,278.1,278.1,279.505,[],[],[],[],[],[],[],z,1.395,,279.505,279.505,-0.094179894,-0.382539683,0,0,0,,0,47,47,108,1,3,word,FORTUNE,cursive,fortune_c.png,,,,
,,,,32152,001,2025-10-16_15h20.38.084,HW_LDT_1,2024.2.4,MacIntel,62.5,,,,,,,,,,,,,,,,,,,,,,279.506,279.711,279.712,280.21,,,,,,,,,,,,,,1.139,1,,,,,,,,,,,,,,z,,,,,,,,,,,,,,,49,0,280.21,281.361,z,1,1.139,,[],[],[],[],[],[],[],281.361,283.358,283.358,283.359,[],[],[],[],[],[],[],,,,283.359,283.359,-0.094179894,-0.382539683,0,0,0,,0,48,48,64,1,3,TL,radiply,print,radiply_p.png,,,,
,,,,32152,001,2025-10-16_15h20.38.084,HW_LDT_1,2024.2.4,MacIntel,62.5,,,,,,,,,,,,,,,,,,,,,,283.359,283.562,283.562,284.059,,,,,,,,,,,,,,3.052,1,,,,,,,,,,,,,,m,,,,,,,,,,,,,,,50,0,284.059,287.115,m,1,3.052,,[],[],[],[],[],[],[],287.115,289.109,289.109,289.109,[],[],[],[],[],[],[],,,,289.109,289.109,-0.094179894,-0.382539683,0,0,0,,0,49,49,127,1,3,word,ORIGINAL,cursive,original_c.png,,,,
,,,,32152,001,2025-10-16_15h20.38.084,HW_LDT_1,2024.2.4,MacIntel,62.5,,,,,,,,,,,,,,,,,,,,,,289.11,289.305,289.305,289.808,,,,,,,,,,,,,,1.05,1,,,,,,,,,,,,,,z,,,,,,,,,,,,,,,51,0,289.808,290.865,z,1,1.05,,[],[],[],[],[],[],[],290.865,292.857,292.857,292.857,[],[],[],[],[],[],[],,,,292.857,292.857,-0.094179894,-0.382539683,0,0,0,,0,50,50,15,1,3,RL,mifikary,cursive,mifikary_c.png,,,,
,,,,32152,001,2025-10-16_15h20.38.084,HW_LDT_1,2024.2.4,MacIntel,62.5,,,,,,,,,,,,,,,,,,,,,,292.858,293.047,293.047,293.569,,,,,,,,,,,,,,2.196,1,,,,,,,,,,,,,,m,,,,,,,,,,,,,,,52,1,293.569,295.778,m,1,2.196,,[],[],[],[],[],[],[],295.778,297.779,297.779,298.887,[],[],[],[],[],[],[],z,1.097,,298.887,298.888,-0.094179894,-0.382539683,0,0,0,,0,51,51,83,1,3,word,ANIMAL,cursive,animal_c.png,,,,
,,,,32152,001,2025-10-16_15h20.38.084,HW_LDT_1,2024.2.4,MacIntel,62.5,,,,,,,,,,,,,,,,,,,,,,298.888,299.088,299.088,299.579,,,,,,,,,,,,,,1.551,1,,,,,,,,,,,,,,z,,,,,,,,,,,,,,,53,1,299.579,301.136,z,1,1.551,,[],[],[],[],[],[],[],301.136,303.13,303.13,304.693,[],[],[],[],[],[],[],m,1.553,,304.693,304.694,-0.094179894,-0.382539683,0,0,0,,0,52,52,47,1,3,TL,elarobate,print,elarobate_p.png,,,,
,,,,32152,001,2025-10-16_15h20.38.084,HW_LDT_1,2024.2.4,MacIntel,62.5,,,,,,,,,,,,,,,,,,,,,,304.694,304.894,304.894,305.385,,,,,,,,,,,,,,1.027,1,,,,,,,,,,,,,,z,,,,,,,,,,,,,,,54,0,305.385,306.413,z,1,1.027,,[],[],[],[],[],[],[],306.413,308.407,308.407,308.408,[],[],[],[],[],[],[],,,,308.408,308.408,-0.094179894,-0.382539683,0,0,0,,0,53,53,78,1,3,TL,vecolity,cursive,vecolity_c.png,,,,
,,,,32152,001,2025-10-16_15h20.38.084,HW_LDT_1,2024.2.4,MacIntel,62.5,,,,,,,,,,,,,,,,,,,,,,308.408,308.606,308.606,309.1,,,,,,,,,,,,,,0.639,1,,,,,,,,,,,,,,z,,,,,,,,,,,,,,,55,0,309.1,309.75,z,1,0.639,,[],[],[],[],[],[],[],309.75,311.746,311.746,311.746,[],[],[],[],[],[],[],,,,311.746,311.746,-0.094179894,-0.382539683,0,0,0,,0,54,54,62,1,3,TL,prodive,print,prodive_p.png,,,,
,,,,32152,001,2025-10-16_15h20.38.084,HW_LDT_1,2024.2.4,MacIntel,62.5,,,,,,,,,,,,,,,,,,,,,,311.747,311.949,311.949,312.442,,,,,,,,,,,,,,2.97,1,,,,,,,,,,,,,,z,,,,,,,,,,,,,,,56,0,312.443,315.413,z,1,2.97,,[],[],[],[],[],[],[],315.413,317.413,317.413,317.413,[],[],[],[],[],[],[],,,,317.413,317.413,-0.094179894,-0.382539683,0,0,0,,0,55,55,48,1,3,TL,grafetul,cursive,grafetul_c.png,,,,
,,,,32152,001,2025-10-16_15h20.38.084,HW_LDT_1,2024.2.4,MacIntel,62.5,,,,,,,,,,,,,,,,,,,,,,317.414,317.613,317.613,318.103,,,,,,,,,,,,,,1.687,1,,,,,,,,,,,,,,m,,,,,,,,,,,,,,,57,0,318.103,319.804,m,1,1.687,,[],[],[],[],[],[],[],319.804,321.793,321.793,321.793,[],[],[],[],[],[],[],,,,321.793,321.793,-0.094179894,-0.382539683,0,0,0,,0,56,56,88,1,3,word,CAMERA,cursive,camera_c.png,,,,
,,,,32152,001,2025-10-16_15h20.38.084,HW_LDT_1,2024.2.4,MacIntel,62.5,,,,,,,,,,,,,,,,,,,,,,321.794,321.979,321.979,322.483,,,,,,,,,,,,,,1.451,1,,,,,,,,,,,,,,z,,,,,,,,,,,,,,,58,0,322.483,323.941,z,1,1.451,,[],[],[],[],[],[],[],323.941,325.94,325.94,325.94,[],[],[],[],[],[],[],,,,325.94,325.94,-0.094179894,-0.382539683,0,0,0,,0,57,57,56,1,3,TL,meromy,print,meromy_p.png,,,,
,,,,32152,001,2025-10-16_15h20.38.084,HW_LDT_1,2024.2.4,MacIntel,62.5,,,,,,,,,,,,,,,,,,,,,,325.941,326.134,326.134,326.634,,,,,,,,,,,,,,1.31,1,,,,,,,,,,,,,,m,,,,,,,,,,,,,,,59,0,326.634,327.949,m,1,1.31,,[],[],[],[],[],[],[],327.949,329.94,329.94,329.941,[],[],[],[],[],[],[],,,,329.941,329.941,-0.094179894,-0.382539683,0,0,0,,0,58,58,142,1,3,word,REMOTE,print,remote_p.png,,,,
,,,,32152,001,2025-10-16_15h20.38.084,HW_LDT_1,2024.2.4,MacIntel,62.5,,,,,,,,,,,,,,,,,,,,,,329.942,330.134,330.134,330.634,,,,,,,,,,,,,,1.17,1,,,,,,,,,,,,,,z,,,,,,,,,,,,,,,60,1,330.634,331.813,z,1,1.17,,[],[],[],[],[],[],[],331.813,333.806,333.806,336.104,[],[],[],[],[],[],[],m,2.294,,336.104,336.104,-0.094179894,-0.382539683,0,0,0,,0,59,59,43,1,3,TL,dedace,cursive,dedace_c.png,,,,
,,,,32152,001,2025-10-16_15h20.38.084,HW_LDT_1,2024.2.4,MacIntel,62.5,,,,,,,,,,,,,,,,,,,,,,336.105,336.301,336.301,336.796,,,,,,,,,,,,,,0.649,1,,,,,,,,,,,,,,z,,,,,,,,,,,,,,,61,0,336.796,337.448,z,1,0.649,,[],[],[],[],[],[],[],337.448,339.438,339.438,339.439,[],[],[],[],[],[],[],,,,339.439,339.439,-0.094179894,-0.382539683,0,0,0,,0,60,60,7,1,3,RL,cobeny,print,cobeny_p.png,,,,
,,,,32152,001,2025-10-16_15h20.38.084,HW_LDT_1,2024.2.4,MacIntel,62.5,,,,,,,,,,,,,,,,,,,,,,339.439,339.63,339.63,340.143,,,,,,,,,,,,,,2.579,0,,,,,,,,,,,,,,m,,,,,,,,,,,,,,,62,0,340.143,342.723,z,0,2.579,,[],[],[],[],[],[],[],342.724,344.725,344.725,344.725,[],[],[],[],[],[],[],,,,344.725,344.725,-0.094179894,-0.382539683,0,0,0,,0,61,61,89,1,3,word,CAPACITY,cursive,capacity_c.png,,,,
,,,,32152,001,2025-10-16_15h20.38.084,HW_LDT_1,2024.2.4,MacIntel,62.5,,,,,,,,,,,,,,,,,,,,,,344.726,344.93,344.93,345.428,,,,,,,,,,,,,,1.681,1,,,,,,,,,,,,,,m,,,,,,,,,,,,,,,63,0,345.429,347.115,m,1,1.681,,[],[],[],[],[],[],[],347.115,349.109,349.109,349.109,[],[],[],[],[],[],[],,,,349.109,349.11,-0.094179894,-0.382539683,0,0,0,,0,62,62,124,1,3,word,NUMERICAL,print,numerical_p.png,,,,
,,,,32152,001,2025-10-16_15h20.38.084,HW_LDT_1,2024.2.4,MacIntel,62.5,,,,,,,,,,,,,,,,,,,,,,349.11,349.311,349.311,349.805,,,,,,,,,,,,,,2.647,1,,,,,,,,,,,,,,m,,,,,,,,,,,,,,,64,0,349.805,352.457,m,1,2.647,,[],[],[],[],[],[],[],352.457,354.455,354.456,354.456,[],[],[],[],[],[],[],,,,354.456,354.456,-0.094179894,-0.382539683,0,0,0,,0,63,63,93,1,3,word,CEREMONY,cursive,ceremony_c.png,,,,
,,,,32152,001,2025-10-16_15h20.38.084,HW_LDT_1,2024.2.4,MacIntel,62.5,,,,,,,,,,,,,,,,,,,,,,354.456,354.656,354.656,355.149,,,,,,,,,,,,,,1.239,1,,,,,,,,,,,,,,m,,,,,,,,,,,,,,,65,0,355.15,356.396,m,1,1.239,,[],[],[],[],[],[],[],356.396,358.395,358.395,358.396,[],[],[],[],[],[],[],,,,358.396,358.396,-0.094179894,-0.382539683,0,0,0,,0,64,64,143,1,3,word,REMOVAL,cursive,removal_c.png,,,,
,,,,32152,001,2025-10-16_15h20.38.084,HW_LDT_1,2024.2.4,MacIntel,62.5,,,,,,,,,,,,,,,,,,,,,,358.396,358.597,358.597,359.095,,,,,,,,,,,,,,1.119,1,,,,,,,,,,,,,,z,,,,,,,,,,,,,,,66,0,359.096,360.225,z,1,1.119,,[],[],[],[],[],[],[],360.225,362.22,362.22,362.22,[],[],[],[],[],[],[],,,,362.22,362.22,-0.094179894,-0.382539683,0,0,0,,0,65,65,20,1,3,RL,orimipal,cursive,orimipal_c.png,,,,
,,,,32152,001,2025-10-16_15h20.38.084,HW_LDT_1,2024.2.4,MacIntel,62.5,,,,,,,,,,,,,,,,,,,,,,362.221,362.417,362.417,362.93,,,,,,,,,,,,,,1.942,1,,,,,,,,,,,,,,m,,,,,,,,,,,,,,,67,1,362.93,364.887,m,1,1.942,,[],[],[],[],[],[],[],364.887,366.888,366.888,368.611,[],[],[],[],[],[],[],m,1.719,,368.611,368.611,-0.094179894,-0.382539683,0,0,0,,0,66,66,138,1,3,word,REFUSAL,print,refusal_p.png,,,,
,,,,32152,001,2025-10-16_15h20.38.084,HW_LDT_1,2024.2.4,MacIntel,62.5,,,,,,,,,,,,,,,,,,,,,,368.612,368.805,368.805,369.312,,,,,,,,,,,,,,1.849,1,,,,,,,,,,,,,,z,,,,,,,,,,,,,,,68,0,369.312,371.175,z,1,1.849,,[],[],[],[],[],[],[],371.175,373.174,373.174,373.175,[],[],[],[],[],[],[],,,,373.175,373.175,-0.094179894,-0.382539683,0,0,0,,0,67,67,68,1,3,TL,revomal,cursive,revomal_c.png,,,,
,,,,32152,001,2025-10-16_15h20.38.084,HW_LDT_1,2024.2.4,MacIntel,62.5,,,,,,,,,,,,,,,,,,,,,,373.175,373.374,373.374,373.876,,,,,,,,,,,,,,0.868,1,,,,,,,,,,,,,,z,,,,,,,,,,,,,,,69,0,373.876,374.745,z,1,0.868,,[],[],[],[],[],[],[],374.745,376.737,376.737,376.738,[],[],[],[],[],[],[],,,,376.738,376.738,-0.094179894,-0.382539683,0,0,0,,0,68,68,39,1,3,TL,clicinal,print,clicinal_p.png,,,,
,,,,32152,001,2025-10-16_15h20.38.084,HW_LDT_1,2024.2.4,MacIntel,62.5,,,,,,,,,,,,,,,,,,,,,,376.738,376.936,376.936,377.427,,,,,,,,,,,,,,0.627,1,,,,,,,,,,,,,,z,,,,,,,,,,,,,,,70,0,377.427,378.067,z,1,0.627,,[],[],[],[],[],[],[],378.067,380.064,380.064,380.064,[],[],[],[],[],[],[],,,,380.064,380.064,-0.094179894,-0.382539683,0,0,0,,0,69,69,42,1,3,TL,detabe,cursive,detabe_c.png,,,,
,,,,32152,001,2025-10-16_15h20.38.084,HW_LDT_1,2024.2.4,MacIntel,62.5,,,,,,,,,,,,,,,,,,,,,,380.065,380.258,380.258,380.76,,,,,,,,,,,,,,0.501,1,,,,,,,,,,,,,,z,,,,,,,,,,,,,,,71,0,380.76,381.275,z,1,0.501,,[],[],[],[],[],[],[],381.275,383.266,383.266,383.266,[],[],[],[],[],[],[],,,,383.266,383.266,-0.094179894,-0.382539683,0,0,0,,0,70,70,31,1,3,RL,trilude,print,trilude_p.png,,,,
,,,,32152,001,2025-10-16_15h20.38.084,HW_LDT_1,2024.2.4,MacIntel,62.5,,,,,,,,,,,,,,,,,,,,,,383.267,383.462,383.462,383.956,,,,,,,,,,,,,,0.789,1,,,,,,,,,,,,,,m,,,,,,,,,,,,,,,72,0,383.956,384.759,m,1,0.789,,[],[],[],[],[],[],[],384.759,386.753,386.753,386.753,[],[],[],[],[],[],[],,,,386.753,386.754,-0.094179894,-0.382539683,0,0,0,,0,71,71,133,1,3,word,PROVIDE,print,provide_p.png,,,,
,,,,32152,001,2025-10-16_15h20.38.084,HW_LDT_1,2024.2.4,MacIntel,62.5,,,,,,,,,,,,,,,,,,,,,,386.754,386.96,386.96,387.463,,,,,,,,,,,,,,1.223,1,,,,,,,,,,,,,,z,,,,,,,,,,,,,,,73,0,387.463,388.694,z,1,1.223,,[],[],[],[],[],[],[],388.694,390.691,390.691,390.691,[],[],[],[],[],[],[],,,,390.691,390.691,-0.094179894,-0.382539683,0,0,0,,0,72,72,37,1,3,TL,cacapity,cursive,cacapity_c.png,,,,
,,,,32152,001,2025-10-16_15h20.38.084,HW_LDT_1,2024.2.4,MacIntel,62.5,,,,,,,,,,,,,,,,,,,,,,390.692,390.891,390.891,391.379,,,,,,,,,,,,,,0.646,1,,,,,,,,,,,,,,z,,,,,,,,,,,,,,,74,0,391.38,392.032,z,1,0.646,,[],[],[],[],[],[],[],392.032,394.033,394.033,394.033,[],[],[],[],[],[],[],,,,394.033,394.034,-0.094179894,-0.382539683,0,0,0,,0,73,73,16,1,3,RL,mishafe,cursive,mishafe_c.png,,,,
,,,,32152,001,2025-10-16_15h20.38.084,HW_LDT_1,2024.2.4,MacIntel,62.5,,,,,,,,,,,,,,,,,,,,,,394.034,394.232,394.232,394.734,,,,,,,,,,,,,,1.016,1,,,,,,,,,,,,,,m,,,,,,,,,,,,,,,75,0,394.734,395.765,m,1,1.016,,[],[],[],[],[],[],[],395.765,397.765,397.766,397.766,[],[],[],[],[],[],[],,,,397.766,397.766,-0.094179894,-0.382539683,0,0,0,,0,74,74,156,1,3,word,TRIBUTE,print,tribute_p.png,,,,
,,,,32152,001,2025-10-16_15h20.38.084,HW_LDT_1,2024.2.4,MacIntel,62.5,,,,,,,,,,,,,,,,,,,,,,397.766,397.961,397.961,398.458,,,,,,,,,,,,,,0.721,1,,,,,,,,,,,,,,z,,,,,,,,,,,,,,,76,0,398.459,399.186,z,1,0.721,,[],[],[],[],[],[],[],399.186,401.186,401.186,401.186,[],[],[],[],[],[],[],,,,401.186,401.186,-0.094179894,-0.382539683,0,0,0,,0,75,75,73,1,3,TL,speficic,print,speficic_p.png,,,,
,,,,32152,001,2025-10-16_15h20.38.084,HW_LDT_1,2024.2.4,MacIntel,62.5,,,,,,,,,,,,,,,,,,,,,,401.187,401.385,401.385,401.881,,,,,,,,,,,,,,0.722,1,,,,,,,,,,,,,,z,,,,,,,,,,,,,,,77,0,401.881,402.609,z,1,0.722,,[],[],[],[],[],[],[],402.609,404.611,404.612,404.612,[],[],[],[],[],[],[],,,,404.612,404.612,-0.094179894,-0.382539683,0,0,0,,0,76,76,58,1,3,TL,nuremical,print,nuremical_p.png,,,,
,,,,32152,001,2025-10-16_15h20.38.084,HW_LDT_1,2024.2.4,MacIntel,62.5,,,,,,,,,,,,,,,,,,,,,,404.612,404.806,404.806,405.321,,,,,,,,,,,,,,0.678,1,,,,,,,,,,,,,,m,,,,,,,,,,,,,,,78,0,405.321,406.003,m,1,0.678,,[],[],[],[],[],[],[],406.003,407.998,407.998,407.998,[],[],[],[],[],[],[],,,,407.998,407.998,-0.094179894,-0.382539683,0,0,0,,0,77,77,82,1,3,word,AMATEUR,print,amateur_p.png,,,,
,,,,32152,001,2025-10-16_15h20.38.084,HW_LDT_1,2024.2.4,MacIntel,62.5,,,,,,,,,,,,,,,,,,,,,,407.999,408.195,408.195,408.7,,,,,,,,,,,,,,0.626,1,,,,,,,,,,,,,,m,,,,,,,,,,,,,,,79,0,408.701,409.336,m,1,0.626,,[],[],[],[],[],[],[],409.336,411.336,411.336,411.336,[],[],[],[],[],[],[],,,,411.337,411.337,-0.094179894,-0.382539683,0,0,0,,0,78,78,155,1,3,word,STRATEGY,print,strategy_p.png,,,,
,,,,32152,001,2025-10-16_15h20.38.084,HW_LDT_1,2024.2.4,MacIntel,62.5,,,,,,,,,,,,,,,,,,,,,,411.337,411.54,411.54,412.039,,,,,,,,,,,,,,1.21,0,,,,,,,,,,,,,,m,,,,,,,,,,,,,,,80,0,412.04,413.252,z,0,1.21,,[],[],[],[],[],[],[],413.252,415.254,415.254,415.254,[],[],[],[],[],[],[],,,,415.254,480.541,-0.053179191,0.231791908,0,0,0,space,0,79,79,140,1,3,word,RELATIVE,cursive,relative_c.png,65.251,,,
,,,,32152,001,2025-10-16_15h20.38.084,HW_LDT_1,2024.2.4,MacIntel,62.5,,,,,,,,,,,,,,,,,,,,,,480.542,480.741,480.741,481.241,,,,,,,,,,,,,,2.427,1,,,,,,,,,,,,,,m,,,,,,,,,,,,,,,81,0,481.241,483.674,m,1,2.427,,[],[],[],[],[],[],[],483.674,485.674,485.674,485.674,[],[],[],[],[],[],[],,,,485.674,485.675,-0.053179191,0.231791908,0,0,0,,0,80,80,87,1,3,word,CAFETERIA,print,cafeteria_p.png,,,,
,,,,32152,001,2025-10-16_15h20.38.084,HW_LDT_1,2024.2.4,MacIntel,62.5,,,,,,,,,,,,,,,,,,,,,,485.676,485.874,485.874,486.373,,,,,,,,,,,,,,0.634,1,,,,,,,,,,,,,,m,,,,,,,,,,,,,,,82,0,486.374,487.008,m,1,0.634,,[],[],[],[],[],[],[],487.008,489.008,489.008,489.008,[],[],[],[],[],[],[],,,,489.008,489.008,-0.05433526,0.229479769,0,0,0,,0,81,81,141,1,3,word,RELIGION,print,religion_p.png,,,,
,,,,32152,001,2025-10-16_15h20.38.084,HW_LDT_1,2024.2.4,MacIntel,62.5,,,,,,,,,,,,,,,,,,,,,,489.009,489.207,489.207,489.707,,,,,,,,,,,,,,0.609,1,,,,,,,,,,,,,,z,,,,,,,,,,,,,,,83,1,489.707,490.324,z,1,0.609,,[],[],[],[],[],[],[],490.324,492.324,492.324,494.274,[],[],[],[],[],[],[],m,1.944,,494.274,494.274,-0.05433526,0.229479769,0,0,0,,0,82,82,41,1,3,TL,crinimal,print,crinimal_p.png,,,,
,,,,32152,001,2025-10-16_15h20.38.084,HW_LDT_1,2024.2.4,MacIntel,62.5,,,,,,,,,,,,,,,,,,,,,,494.275,494.474,494.474,494.974,,,,,,,,,,,,,,0.656,1,,,,,,,,,,,,,,z,,,,,,,,,,,,,,,84,1,494.974,495.641,z,1,0.656,,[],[],[],[],[],[],[],495.641,497.641,497.641,498.624,[],[],[],[],[],[],[],z,0.971,,498.624,498.625,-0.05433526,0.229479769,0,0,0,,0,83,83,5,1,3,RL,capefory,cursive,capefory_c.png,,,,
,,,,32152,001,2025-10-16_15h20.38.084,HW_LDT_1,2024.2.4,MacIntel,62.5,,,,,,,,,,,,,,,,,,,,,,498.625,498.824,498.824,499.324,,,,,,,,,,,,,,1.228,0,,,,,,,,,,,,,,m,,,,,,,,,,,,,,,85,0,499.325,500.558,z,0,1.228,,[],[],[],[],[],[],[],500.558,502.558,502.558,502.558,[],[],[],[],[],[],[],,,,502.558,502.558,-0.05433526,0.229479769,0,0,0,,0,84,84,99,1,3,word,DEBATE,cursive,debate_c.png,,,,
,,,,32152,001,2025-10-16_15h20.38.084,HW_LDT_1,2024.2.4,MacIntel,62.5,,,,,,,,,,,,,,,,,,,,,,502.559,502.758,502.758,503.258,,,,,,,,,,,,,,2.048,1,,,,,,,,,,,,,,m,,,,,,,,,,,,,,,86,0,503.258,505.307,m,1,2.048,,[],[],[],[],[],[],[],505.307,507.307,507.307,507.307,[],[],[],[],[],[],[],,,,507.307,507.308,-0.05433526,0.229479769,0,0,0,,0,85,85,122,1,3,word,MOBILE,cursive,mobile_c.png,,,,
,,,,32152,001,2025-10-16_15h20.38.084,HW_LDT_1,2024.2.4,MacIntel,62.5,,,,,,,,,,,,,,,,,,,,,,507.308,507.507,507.508,508.007,,,,,,,,,,,,,,1.069,1,,,,,,,,,,,,,,m,,,,,,,,,,,,,,,87,0,508.007,509.091,m,1,1.069,,[],[],[],[],[],[],[],509.091,511.091,511.091,511.091,[],[],[],[],[],[],[],,,,511.091,511.091,-0.05433526,0.229479769,0,0,0,,0,86,86,106,1,3,word,ELABORATE,print,elaborate_p.png,,,,
,,,,32152,001,2025-10-16_15h20.38.084,HW_LDT_1,2024.2.4,MacIntel,62.5,,,,,,,,,,,,,,,,,,,,,,511.092,511.291,511.291,511.791,,,,,,,,,,,,,,0.739,1,,,,,,,,,,,,,,z,,,,,,,,,,,,,,,88,0,511.791,512.541,z,1,0.739,,[],[],[],[],[],[],[],512.541,514.541,514.541,514.541,[],[],[],[],[],[],[],,,,514.541,514.541,-0.05433526,0.229479769,0,0,0,,0,87,87,32,1,3,TL,adacemy,print,adacemy_p.png,,,,
,,,,32152,001,2025-10-16_15h20.38.084,HW_LDT_1,2024.2.4,MacIntel,62.5,,,,,,,,,,,,,,,,,,,,,,514.541,514.741,514.741,515.24,,,,,,,,,,,,,,0.871,0,,,,,,,,,,,,,,m,,,,,,,,,,,,,,,89,0,515.24,516.124,z,0,0.871,,[],[],[],[],[],[],[],516.125,518.124,518.124,518.124,[],[],[],[],[],[],[],,,,518.124,518.124,-0.05433526,0.229479769,0,0,0,,0,88,88,92,1,3,word,CATEGORY,cursive,category_c.png,,,,
,,,,32152,001,2025-10-16_15h20.38.084,HW_LDT_1,2024.2.4,MacIntel,62.5,,,,,,,,,,,,,,,,,,,,,,518.125,518.324,518.324,518.824,,,,,,,,,,,,,,1.432,1,,,,,,,,,,,,,,m,,,,,,,,,,,,,,,90,0,518.824,520.257,m,1,1.432,,[],[],[],[],[],[],[],520.257,522.257,522.257,522.257,[],[],[],[],[],[],[],,,,522.257,522.258,-0.05433526,0.229479769,0,0,0,,0,89,89,147,1,3,word,ROMANTIC,cursive,romantic_c.png,,,,
,,,,32152,001,2025-10-16_15h20.38.084,HW_LDT_1,2024.2.4,MacIntel,62.5,,,,,,,,,,,,,,,,,,,,,,522.258,522.457,522.457,522.958,,,,,,,,,,,,,,0.932,1,,,,,,,,,,,,,,z,,,,,,,,,,,,,,,91,1,522.958,523.892,z,1,0.932,,[],[],[],[],[],[],[],523.892,525.891,525.891,528.174,[],[],[],[],[],[],[],z,2.277,,528.174,528.174,-0.05433526,0.229479769,0,0,0,,0,90,90,57,1,3,TL,moredate,cursive,moredate_c.png,,,,
,,,,32152,001,2025-10-16_15h20.38.084,HW_LDT_1,2024.2.4,MacIntel,62.5,,,,,,,,,,,,,,,,,,,,,,528.175,528.374,528.374,528.874,,,,,,,,,,,,,,1.294,1,,,,,,,,,,,,,,z,,,,,,,,,,,,,,,92,0,528.874,530.174,z,1,1.294,,[],[],[],[],[],[],[],530.174,532.174,532.174,532.174,[],[],[],[],[],[],[],,,,532.174,532.174,-0.05433526,0.229479769,0,0,0,,0,91,91,27,1,3,RL,recile,print,recile_p.png,,,,
,,,,32152,001,2025-10-16_15h20.38.084,HW_LDT_1,2024.2.4,MacIntel,62.5,,,,,,,,,,,,,,,,,,,,,,532.176,532.374,532.374,532.873,,,,,,,,,,,,,,0.933,1,,,,,,,,,,,,,,z,,,,,,,,,,,,,,,93,0,532.874,533.808,z,1,0.933,,[],[],[],[],[],[],[],533.808,535.807,535.807,535.807,[],[],[],[],[],[],[],,,,535.807,535.808,-0.05433526,0.229479769,0,0,0,,0,92,92,6,1,3,RL,cenesony,cursive,cenesony_c.png,,,,
,,,,32152,001,2025-10-16_15h20.38.084,HW_LDT_1,2024.2.4,MacIntel,62.5,,,,,,,,,,,,,,,,,,,,,,535.808,536.007,536.007,536.507,,,,,,,,,,,,,,3.354,1,,,,,,,,,,,,,,m,,,,,,,,,,,,,,,94,0,536.507,539.874,m,1,3.354,,[],[],[],[],[],[],[],539.874,541.874,541.874,541.874,[],[],[],[],[],[],[],,,,541.874,541.874,-0.05433526,0.229479769,0,0,0,,0,93,93,135,1,3,word,QUALITY,print,quality_p.png,,,,
,,,,32152,001,2025-10-16_15h20.38.084,HW_LDT_1,2024.2.4,MacIntel,62.5,,,,,,,,,,,,,,,,,,,,,,541.874,542.074,542.074,542.574,,,,,,,,,,,,,,0.688,1,,,,,,,,,,,,,,z,,,,,,,,,,,,,,,95,0,542.574,543.274,z,1,0.688,,[],[],[],[],[],[],[],543.274,545.274,545.274,545.274,[],[],[],[],[],[],[],,,,545.274,545.274,-0.05433526,0.229479769,0,0,0,,0,94,94,38,1,3,TL,carnidal,print,carnidal_p.png,,,,
,,,,32152,001,2025-10-16_15h20.38.084,HW_LDT_1,2024.2.4,MacIntel,62.5,,,,,,,,,,,,,,,,,,,,,,545.276,545.474,545.474,545.974,,,,,,,,,,,,,,1.093,1,,,,,,,,,,,,,,z,,,,,,,,,,,,,,,96,0,545.974,547.074,z,1,1.093,,[],[],[],[],[],[],[],547.074,549.074,549.074,549.074,[],[],[],[],[],[],[],,,,549.074,549.074,-0.05433526,0.229479769,0,0,0,,0,95,95,44,1,3,TL,decilate,print,decilate_p.png,,,,
,,,,32152,001,2025-10-16_15h20.38.084,HW_LDT_1,2024.2.4,MacIntel,62.5,,,,,,,,,,,,,,,,,,,,,,549.076,549.274,549.274,549.774,,,,,,,,,,,,,,0.737,1,,,,,,,,,,,,,,z,,,,,,,,,,,,,,,97,0,549.774,550.524,z,1,0.737,,[],[],[],[],[],[],[],550.524,552.524,552.524,552.524,[],[],[],[],[],[],[],,,,552.524,552.524,-0.05433526,0.229479769,0,0,0,,0,96,96,23,1,3,RL,quakity,print,quakity_p.png,,,,
,,,,32152,001,2025-10-16_15h20.38.084,HW_LDT_1,2024.2.4,MacIntel,62.5,,,,,,,,,,,,,,,,,,,,,,552.525,552.724,552.724,553.224,,,,,,,,,,,,,,0.595,1,,,,,,,,,,,,,,z,,,,,,,,,,,,,,,98,0,553.224,553.824,z,1,0.595,,[],[],[],[],[],[],[],553.824,555.824,555.824,555.824,[],[],[],[],[],[],[],,,,555.824,555.825,-0.05433526,0.229479769,0,0,0,,0,97,97,26,1,3,RL,repifion,print,repifion_p.png,,,,
,,,,32152,001,2025-10-16_15h20.38.084,HW_LDT_1,2024.2.4,MacIntel,62.5,,,,,,,,,,,,,,,,,,,,,,555.825,556.024,556.024,556.524,,,,,,,,,,,,,,1.61,1,,,,,,,,,,,,,,m,,,,,,,,,,,,,,,99,0,556.524,558.141,m,1,1.61,,[],[],[],[],[],[],[],558.141,560.141,560.141,560.141,[],[],[],[],[],[],[],,,,560.141,560.141,-0.05433526,0.229479769,0,0,0,,0,98,98,111,1,3,word,INDICATE,print,indicate_p.png,,,,
,,,,32152,001,2025-10-16_15h20.38.084,HW_LDT_1,2024.2.4,MacIntel,62.5,,,,,,,,,,,,,,,,,,,,,,560.142,560.34,560.34,560.84,,,,,,,,,,,,,,0.674,1,,,,,,,,,,,,,,z,,,,,,,,,,,,,,,100,0,560.84,561.524,z,1,0.674,,[],[],[],[],[],[],[],561.524,563.524,563.524,563.524,[],[],[],[],[],[],[],,,,563.524,563.524,-0.05433526,0.229479769,0,0,0,,0,99,99,60,1,3,TL,panert,print,panert_p.png,,,,
,,,,32152,001,2025-10-16_15h20.38.084,HW_LDT_1,2024.2.4,MacIntel,62.5,,,,,,,,,,,,,,,,,,,,,,563.526,563.724,563.724,564.224,,,,,,,,,,,,,,1.004,1,,,,,,,,,,,,,,z,,,,,,,,,,,,,,,101,1,564.225,565.24,z,1,1.004,,[],[],[],[],[],[],[],565.241,567.241,567.241,568.557,[],[],[],[],[],[],[],z,1.313,,568.557,568.557,-0.05433526,0.229479769,0,0,0,,0,100,100,59,1,3,TL,paficic,cursive,paficic_c.png,,,,
,,,,32152,001,2025-10-16_15h20.38.084,HW_LDT_1,2024.2.4,MacIntel,62.5,,,,,,,,,,,,,,,,,,,,,,568.558,568.757,568.757,569.256,,,,,,,,,,,,,,0.889,1,,,,,,,,,,,,,,m,,,,,,,,,,,,,,,102,0,569.257,570.157,m,1,0.889,,[],[],[],[],[],[],[],570.157,572.157,572.157,572.158,[],[],[],[],[],[],[],,,,572.158,572.158,-0.05433526,0.229479769,0,0,0,,0,101,101,116,1,3,word,MARGINAL,print,marginal_p.png,,,,
,,,,32152,001,2025-10-16_15h20.38.084,HW_LDT_1,2024.2.4,MacIntel,62.5,,,,,,,,,,,,,,,,,,,,,,572.159,572.357,572.357,572.857,,,,,,,,,,,,,,0.639,1,,,,,,,,,,,,,,z,,,,,,,,,,,,,,,103,0,572.857,573.507,z,1,0.639,,[],[],[],[],[],[],[],573.507,575.507,575.507,575.507,[],[],[],[],[],[],[],,,,575.507,575.507,-0.05433526,0.229479769,0,0,0,,0,102,102,40,1,3,TL,condiser,print,condiser_p.png,,,,
,,,,32152,001,2025-10-16_15h20.38.084,HW_LDT_1,2024.2.4,MacIntel,62.5,,,,,,,,,,,,,,,,,,,,,,575.508,575.707,575.707,576.207,,,,,,,,,,,,,,0.588,0,,,,,,,,,,,,,,m,,,,,,,,,,,,,,,104,0,576.207,576.807,z,0,0.588,,[],[],[],[],[],[],[],576.807,578.807,578.807,578.807,[],[],[],[],[],[],[],,,,578.807,578.807,-0.05433526,0.229479769,0,0,0,,0,103,103,121,1,3,word,MISTAKE,cursive,mistake_c.png,,,,
,,,,32152,001,2025-10-16_15h20.38.084,HW_LDT_1,2024.2.4,MacIntel,62.5,,,,,,,,,,,,,,,,,,,,,,578.808,579.007,579.007,579.507,,,,,,,,,,,,,,0.48,0,,,,,,,,,,,,,,m,,,,,,,,,,,,,,,105,0,579.507,579.99,z,0,0.48,,[],[],[],[],[],[],[],579.99,581.99,581.99,581.99,[],[],[],[],[],[],[],,,,581.99,581.991,-0.05433526,0.229479769,0,0,0,,0,104,104,149,1,3,word,SENATOR,cursive,senator_c.png,,,,
,,,,32152,001,2025-10-16_15h20.38.084,HW_LDT_1,2024.2.4,MacIntel,62.5,,,,,,,,,,,,,,,,,,,,,,581.991,582.191,582.191,582.69,,,,,,,,,,,,,,2.921,0,,,,,,,,,,,,,,m,,,,,,,,,,,,,,,106,0,582.691,585.624,z,0,2.921,,[],[],[],[],[],[],[],585.624,587.624,587.624,587.624,[],[],[],[],[],[],[],,,,587.624,587.624,-0.05433526,0.229479769,0,0,0,,0,105,105,154,1,3,word,STORAGE,cursive,storage_c.png,,,,
,,,,32152,001,2025-10-16_15h20.38.084,HW_LDT_1,2024.2.4,MacIntel,62.5,,,,,,,,,,,,,,,,,,,,,,587.625,587.824,587.824,588.323,,,,,,,,,,,,,,0.675,1,,,,,,,,,,,,,,z,,,,,,,,,,,,,,,107,0,588.324,589.007,z,1,0.675,,[],[],[],[],[],[],[],589.007,591.007,591.007,591.007,[],[],[],[],[],[],[],,,,591.007,591.008,-0.05433526,0.229479769,0,0,0,,0,106,106,22,1,3,RL,procogal,print,procogal_p.png,,,,
,,,,32152,001,2025-10-16_15h20.38.084,HW_LDT_1,2024.2.4,MacIntel,62.5,,,,,,,,,,,,,,,,,,,,,,591.008,591.207,591.207,591.707,,,,,,,,,,,,,,0.803,1,,,,,,,,,,,,,,m,,,,,,,,,,,,,,,108,1,591.707,592.524,m,1,0.803,,[],[],[],[],[],[],[],592.524,594.524,594.524,596.423,[],[],[],[],[],[],[],m,1.894,,596.424,596.424,-0.05433526,0.229479769,0,0,0,,0,107,107,112,1,3,word,LIBERAL,print,liberal_p.png,,,,
,,,,32152,001,2025-10-16_15h20.38.084,HW_LDT_1,2024.2.4,MacIntel,62.5,,,,,,,,,,,,,,,,,,,,,,596.424,596.624,596.624,597.124,,,,,,,,,,,,,,0.644,1,,,,,,,,,,,,,,z,,,,,,,,,,,,,,,109,1,597.124,597.774,z,1,0.644,,[],[],[],[],[],[],[],597.774,599.774,599.774,600.474,[],[],[],[],[],[],[],z,0.688,,600.474,600.474,-0.05433526,0.229479769,0,0,0,,0,108,108,19,1,3,RL,opcifal,cursive,opcifal_c.png,,,,
,,,,32152,001,2025-10-16_15h20.38.084,HW_LDT_1,2024.2.4,MacIntel,62.5,,,,,,,,,,,,,,,,,,,,,,600.475,600.674,600.674,601.174,,,,,,,,,,,,,,2.457,1,,,,,,,,,,,,,,m,,,,,,,,,,,,,,,110,0,601.174,603.639,m,1,2.457,,[],[],[],[],[],[],[],603.639,605.641,605.641,605.641,[],[],[],[],[],[],[],,,,605.641,605.641,-0.05433526,0.229479769,0,0,0,,0,109,109,119,1,3,word,MEMORY,print,memory_p.png,,,,
,,,,32152,001,2025-10-16_15h20.38.084,HW_LDT_1,2024.2.4,MacIntel,62.5,,,,,,,,,,,,,,,,,,,,,,605.642,605.84,605.84,606.34,,,,,,,,,,,,,,0.904,1,,,,,,,,,,,,,,m,,,,,,,,,,,,,,,111,0,606.341,607.257,m,1,0.904,,[],[],[],[],[],[],[],607.257,609.257,609.257,609.257,[],[],[],[],[],[],[],,,,609.257,609.257,-0.05433526,0.229479769,0,0,0,,0,110,110,118,1,3,word,MEDICINE,print,medicine_p.png,,,,
,,,,32152,001,2025-10-16_15h20.38.084,HW_LDT_1,2024.2.4,MacIntel,62.5,,,,,,,,,,,,,,,,,,,,,,609.258,609.457,609.457,609.957,,,,,,,,,,,,,,0.571,0,,,,,,,,,,,,,,m,,,,,,,,,,,,,,,112,0,609.957,610.541,z,0,0.571,,[],[],[],[],[],[],[],610.541,612.54,612.54,612.54,[],[],[],[],[],[],[],,,,612.54,612.541,-0.05433526,0.229479769,0,0,0,,0,111,111,126,1,3,word,OPTIMAL,cursive,optimal_c.png,,,,
,,,,32152,001,2025-10-16_15h20.38.084,HW_LDT_1,2024.2.4,MacIntel,62.5,,,,,,,,,,,,,,,,,,,,,,612.541,612.74,612.74,613.24,,,,,,,,,,,,,,0.921,1,,,,,,,,,,,,,,z,,,,,,,,,,,,,,,113,0,613.241,614.174,z,1,0.921,,[],[],[],[],[],[],[],614.174,616.174,616.174,616.174,[],[],[],[],[],[],[],,,,616.174,616.174,-0.05433526,0.229479769,0,0,0,,0,112,112,14,1,3,RL,lofase,cursive,lofase_c.png,,,,
,,,,32152,001,2025-10-16_15h20.38.084,HW_LDT_1,2024.2.4,MacIntel,62.5,,,,,,,,,,,,,,,,,,,,,,616.175,616.373,616.373,616.874,,,,,,,,,,,,,,0.738,1,,,,,,,,,,,,,,m,,,,,,,,,,,,,,,114,0,616.874,617.624,m,1,0.738,,[],[],[],[],[],[],[],617.624,619.624,619.624,619.624,[],[],[],[],[],[],[],,,,619.624,619.624,-0.05433526,0.229479769,0,0,0,,0,113,113,98,1,3,word,CRIMINAL,print,criminal_p.png,,,,
,,,,32152,001,2025-10-16_15h20.38.084,HW_LDT_1,2024.2.4,MacIntel,62.5,,,,,,,,,,,,,,,,,,,,,,619.625,619.824,619.824,620.323,,,,,,,,,,,,,,0.704,1,,,,,,,,,,,,,,z,,,,,,,,,,,,,,,115,0,620.324,621.041,z,1,0.704,,[],[],[],[],[],[],[],621.041,623.04,623.04,623.041,[],[],[],[],[],[],[],,,,623.041,623.041,-0.05433526,0.229479769,0,0,0,,0,114,114,4,1,3,RL,cafigal,cursive,cafigal_c.png,,,,
,,,,32152,001,2025-10-16_15h20.38.084,HW_LDT_1,2024.2.4,MacIntel,62.5,,,,,,,,,,,,,,,,,,,,,,623.041,623.24,623.24,623.74,,,,,,,,,,,,,,0.604,1,,,,,,,,,,,,,,z,,,,,,,,,,,,,,,116,0,623.741,624.357,z,1,0.604,,[],[],[],[],[],[],[],624.357,626.357,626.357,626.357,[],[],[],[],[],[],[],,,,626.357,626.357,-0.05433526,0.229479769,0,0,0,,0,115,115,52,1,3,TL,locigal,cursive,locigal_c.png,,,,
,,,,32152,001,2025-10-16_15h20.38.084,HW_LDT_1,2024.2.4,MacIntel,62.5,,,,,,,,,,,,,,,,,,,,,,626.358,626.557,626.557,627.057,,,,,,,,,,,,,,0.88,1,,,,,,,,,,,,,,z,,,,,,,,,,,,,,,117,0,627.057,627.94,z,1,0.88,,[],[],[],[],[],[],[],627.94,629.94,629.94,629.94,[],[],[],[],[],[],[],,,,629.94,629.941,-0.05433526,0.229479769,0,0,0,,0,116,116,8,1,3,RL,cocewage,print,cocewage_p.png,,,,
,,,,32152,001,2025-10-16_15h20.38.084,HW_LDT_1,2024.2.4,MacIntel,62.5,,,,,,,,,,,,,,,,,,,,,,629.942,630.139,630.139,630.64,,,,,,,,,,,,,,0.771,1,,,,,,,,,,,,,,m,,,,,,,,,,,,,,,118,0,630.641,631.424,m,1,0.771,,[],[],[],[],[],[],[],631.424,633.423,633.423,633.424,[],[],[],[],[],[],[],,,,633.424,633.424,-0.05433526,0.229479769,0,0,0,,0,117,117,136,1,3,word,RADICAL,cursive,radical_c.png,,,,
,,,,32152,001,2025-10-16_15h20.38.084,HW_LDT_1,2024.2.4,MacIntel,62.5,,,,,,,,,,,,,,,,,,,,,,633.425,633.624,633.624,634.123,,,,,,,,,,,,,,0.579,1,,,,,,,,,,,,,,z,,,,,,,,,,,,,,,119,0,634.124,634.706,z,1,0.579,,[],[],[],[],[],[],[],634.706,636.707,636.707,636.707,[],[],[],[],[],[],[],,,,636.707,636.707,-0.05433526,0.229479769,0,0,0,,0,118,118,24,1,3,RL,quafidy,print,quafidy_p.png,,,,
,,,,32152,001,2025-10-16_15h20.38.084,HW_LDT_1,2024.2.4,MacIntel,62.5,,,,,,,,,,,,,,,,,,,,,,636.708,636.906,636.906,637.405,,,,,,,,,,,,,,0.631,1,,,,,,,,,,,,,,z,,,,,,,,,,,,,,,120,0,637.405,638.039,z,1,0.631,,[],[],[],[],[],[],[],638.039,640.04,640.04,640.041,[],[],[],[],[],[],[],,,,640.041,640.041,-0.046242775,0.230635838,0,0,0,,0,119,119,67,1,3,TL,retome,print,retome_p.png,,,,
,,,,32152,001,2025-10-16_15h20.38.084,HW_LDT_1,2024.2.4,MacIntel,62.5,,,,,,,,,,,,,,,,,,,,,,640.041,640.24,640.24,640.74,,,,,,,,,,,,,,1.772,1,,,,,,,,,,,,,,m,,,,,,,,,,,,,,,121,0,640.741,642.524,m,1,1.772,,[],[],[],[],[],[],[],642.524,644.523,644.523,644.524,[],[],[],[],[],[],[],,,,644.524,644.524,-0.046242775,0.230635838,0,0,0,,0,120,120,107,1,3,word,EVIDENT,cursive,evident_c.png,,,,
,,,,32152,001,2025-10-16_15h20.38.084,HW_LDT_1,2024.2.4,MacIntel,62.5,,,,,,,,,,,,,,,,,,,,,,644.524,644.724,644.724,645.224,,,,,,,,,,,,,,0.662,1,,,,,,,,,,,,,,z,,,,,,,,,,,,,,,122,0,645.224,645.89,z,1,0.662,,[],[],[],[],[],[],[],645.89,647.89,647.89,647.891,[],[],[],[],[],[],[],,,,647.891,647.891,-0.046242775,0.230635838,0,0,0,,0,121,121,12,1,3,RL,formuke,cursive,formuke_c.png,,,,
,,,,32152,001,2025-10-16_15h20.38.084,HW_LDT_1,2024.2.4,MacIntel,62.5,,,,,,,,,,,,,,,,,,,,,,647.892,648.09,648.091,648.59,,,,,,,,,,,,,,0.709,1,,,,,,,,,,,,,,m,,,,,,,,,,,,,,,123,0,648.59,649.307,m,1,0.709,,[],[],[],[],[],[],[],649.307,651.307,651.307,651.307,[],[],[],[],[],[],[],,,,651.307,651.307,-0.046242775,0.230635838,0,0,0,,0,122,122,103,1,3,word,DISPUTE,print,dispute_p.png,,,,
,,,,32152,001,2025-10-16_15h20.38.084,HW_LDT_1,2024.2.4,MacIntel,62.5,,,,,,,,,,,,,,,,,,,,,,651.309,651.507,651.507,652.007,,,,,,,,,,,,,,0.613,1,,,,,,,,,,,,,,z,,,,,,,,,,,,,,,124,0,652.007,652.623,z,1,0.613,,[],[],[],[],[],[],[],652.624,654.624,654.624,654.624,[],[],[],[],[],[],[],,,,654.624,654.624,-0.048554913,0.229479769,0,0,0,,0,123,123,34,1,3,TL,aminal,cursive,aminal_c.png,,,,
,,,,32152,001,2025-10-16_15h20.38.084,HW_LDT_1,2024.2.4,MacIntel,62.5,,,,,,,,,,,,,,,,,,,,,,654.625,654.823,654.823,655.323,,,,,,,,,,,,,,0.643,1,,,,,,,,,,,,,,m,,,,,,,,,,,,,,,125,0,655.324,655.974,m,1,0.643,,[],[],[],[],[],[],[],655.974,657.974,657.974,657.974,[],[],[],[],[],[],[],,,,657.974,657.974,-0.048554913,0.229479769,0,0,0,,0,124,124,85,1,3,word,BENEFIT,print,benefit_p.png,,,,
,,,,32152,001,2025-10-16_15h20.38.084,HW_LDT_1,2024.2.4,MacIntel,62.5,,,,,,,,,,,,,,,,,,,,,,657.975,658.174,658.174,658.674,,,,,,,,,,,,,,0.576,1,,,,,,,,,,,,,,m,,,,,,,,,,,,,,,126,1,658.674,659.257,m,1,0.576,,[],[],[],[],[],[],[],659.257,661.257,661.257,662.723,[],[],[],[],[],[],[],m,1.461,,662.724,662.724,-0.049710983,0.230635838,0,0,0,,0,125,125,125,1,3,word,OPERATOR,print,operator_p.png,,,,
,,,,32152,001,2025-10-16_15h20.38.084,HW_LDT_1,2024.2.4,MacIntel,62.5,,,,,,,,,,,,,,,,,,,,,,662.724,662.924,662.924,663.423,,,,,,,,,,,,,,0.664,1,,,,,,,,,,,,,,z,,,,,,,,,,,,,,,127,0,663.424,664.091,z,1,0.664,,[],[],[],[],[],[],[],664.091,666.09,666.09,666.091,[],[],[],[],[],[],[],,,,666.091,666.091,-0.049710983,0.230635838,0,0,0,,0,126,126,21,1,3,RL,potugar,print,potugar_p.png,,,,
,,,,32152,001,2025-10-16_15h20.38.084,HW_LDT_1,2024.2.4,MacIntel,62.5,,,,,,,,,,,,,,,,,,,,,,666.091,666.29,666.29,666.79,,,,,,,,,,,,,,1.162,1,,,,,,,,,,,,,,m,,,,,,,,,,,,,,,128,0,666.79,667.957,m,1,1.162,,[],[],[],[],[],[],[],667.957,669.957,669.957,669.957,[],[],[],[],[],[],[],,,,669.957,669.957,-0.049710983,0.230635838,0,0,0,,0,127,127,148,1,3,word,SALINE,cursive,saline_c.png,,,,
,,,,32152,001,2025-10-16_15h20.38.084,HW_LDT_1,2024.2.4,MacIntel,62.5,,,,,,,,,,,,,,,,,,,,,,669.958,670.157,670.157,670.657,,,,,,,,,,,,,,0.943,1,,,,,,,,,,,,,,m,,,,,,,,,,,,,,,129,0,670.657,671.607,m,1,0.943,,[],[],[],[],[],[],[],671.607,673.606,673.606,673.606,[],[],[],[],[],[],[],,,,673.606,673.606,-0.049710983,0.230635838,0,0,0,,0,128,128,94,1,3,word,CLINICAL,print,clinical_p.png,,,,
,,,,32152,001,2025-10-16_15h20.38.084,HW_LDT_1,2024.2.4,MacIntel,62.5,,,,,,,,,,,,,,,,,,,,,,673.607,673.807,673.807,674.307,,,,,,,,,,,,,,0.63,1,,,,,,,,,,,,,,m,,,,,,,,,,,,,,,130,0,674.307,674.942,m,1,0.63,,[],[],[],[],[],[],[],674.942,676.94,676.94,676.94,[],[],[],[],[],[],[],,,,676.94,676.94,-0.049710983,0.230635838,0,0,0,,0,129,129,97,1,3,word,COVERAGE,print,coverage_p.png,,,,
,,,,32152,001,2025-10-16_15h20.38.084,HW_LDT_1,2024.2.4,MacIntel,62.5,,,,,,,,,,,,,,,,,,,,,,676.941,677.139,677.14,677.64,,,,,,,,,,,,,,0.537,1,,,,,,,,,,,,,,m,,,,,,,,,,,,,,,131,0,677.64,678.19,m,1,0.537,,[],[],[],[],[],[],[],678.19,680.19,680.19,680.19,[],[],[],[],[],[],[],,,,680.191,680.191,-0.049710983,0.230635838,0,0,0,,0,130,130,104,1,3,word,DOMINANT,print,dominant_p.png,,,,
,,,,32152,001,2025-10-16_15h20.38.084,HW_LDT_1,2024.2.4,MacIntel,62.5,,,,,,,,,,,,,,,,,,,,,,680.191,680.39,680.39,680.89,,,,,,,,,,,,,,1.055,1,,,,,,,,,,,,,,z,,,,,,,,,,,,,,,132,0,680.891,681.957,z,1,1.055,,[],[],[],[],[],[],[],681.957,683.957,683.957,683.957,[],[],[],[],[],[],[],,,,683.957,683.957,-0.049710983,0.230635838,0,0,0,,0,131,131,54,1,3,TL,manire,cursive,manire_c.png,,,,
,,,,32152,001,2025-10-16_15h20.38.084,HW_LDT_1,2024.2.4,MacIntel,62.5,,,,,,,,,,,,,,,,,,,,,,683.958,684.156,684.156,684.657,,,,,,,,,,,,,,0.991,1,,,,,,,,,,,,,,z,,,,,,,,,,,,,,,133,0,684.657,685.657,z,1,0.991,,[],[],[],[],[],[],[],685.657,687.657,687.657,687.657,[],[],[],[],[],[],[],,,,687.657,687.657,-0.049710983,0.230635838,0,0,0,,0,132,132,51,1,3,TL,liretal,print,liretal_p.png,,,,
,,,,32152,001,2025-10-16_15h20.38.084,HW_LDT_1,2024.2.4,MacIntel,62.5,,,,,,,,,,,,,,,,,,,,,,687.658,687.856,687.856,688.357,,,,,,,,,,,,,,1.021,1,,,,,,,,,,,,,,z,,,,,,,,,,,,,,,134,0,688.357,689.39,z,1,1.021,,[],[],[],[],[],[],[],689.39,691.389,691.39,691.39,[],[],[],[],[],[],[],,,,691.39,691.39,-0.049710983,0.230635838,0,0,0,,0,133,133,13,1,3,RL,helicage,cursive,helicage_c.png,,,,
,,,,32152,001,2025-10-16_15h20.38.084,HW_LDT_1,2024.2.4,MacIntel,62.5,,,,,,,,,,,,,,,,,,,,,,691.391,691.59,691.59,692.09,,,,,,,,,,,,,,1.731,0,,,,,,,,,,,,,,m,,,,,,,,,,,,,,,135,0,692.09,693.823,z,0,1.731,,[],[],[],[],[],[],[],693.824,695.824,695.824,695.824,[],[],[],[],[],[],[],,,,695.824,695.824,-0.049710983,0.230635838,0,0,0,,0,134,134,109,1,3,word,GRATEFUL,cursive,grateful_c.png,,,,
,,,,32152,001,2025-10-16_15h20.38.084,HW_LDT_1,2024.2.4,MacIntel,62.5,,,,,,,,,,,,,,,,,,,,,,695.825,696.023,696.024,696.523,,,,,,,,,,,,,,0.716,1,,,,,,,,,,,,,,z,,,,,,,,,,,,,,,136,1,696.524,697.241,z,1,0.716,,[],[],[],[],[],[],[],697.241,699.24,699.24,701.89,[],[],[],[],[],[],[],z,2.645,,701.89,701.89,-0.049710983,0.230635838,0,0,0,,0,135,135,28,1,3,RL,rovastic,cursive,rovastic_c.png,,,,
,,,,32152,001,2025-10-16_15h20.38.084,HW_LDT_1,2024.2.4,MacIntel,62.5,,,,,,,,,,,,,,,,,,,,,,701.891,702.09,702.09,702.59,,,,,,,,,,,,,,0.845,0,,,,,,,,,,,,,,m,,,,,,,,,,,,,,,137,1,702.591,703.44,z,0,0.845,,[],[],[],[],[],[],[],703.44,705.44,705.44,707.957,[],[],[],[],[],[],[],z,2.513,,707.957,707.957,-0.049710983,0.230635838,0,0,0,,0,136,136,90,1,3,word,CAPITAL,cursive,capital_c.png,,,,
,,,,32152,001,2025-10-16_15h20.38.084,HW_LDT_1,2024.2.4,MacIntel,62.5,,,,,,,,,,,,,,,,,,,,,,707.958,708.157,708.157,708.657,,,,,,,,,,,,,,1.357,1,,,,,,,,,,,,,,z,,,,,,,,,,,,,,,138,0,708.657,710.023,z,1,1.357,,[],[],[],[],[],[],[],710.023,712.023,712.023,712.024,[],[],[],[],[],[],[],,,,712.024,712.024,-0.049710983,0.230635838,0,0,0,,0,137,137,35,1,3,TL,cateferia,print,cateferia_p.png,,,,
,,,,32152,001,2025-10-16_15h20.38.084,HW_LDT_1,2024.2.4,MacIntel,62.5,,,,,,,,,,,,,,,,,,,,,,712.025,712.223,712.223,712.723,,,,,,,,,,,,,,0.589,1,,,,,,,,,,,,,,z,,,,,,,,,,,,,,,139,1,712.724,713.323,z,1,0.589,,[],[],[],[],[],[],[],713.323,715.323,715.323,716.741,[],[],[],[],[],[],[],m,1.417,,716.741,716.741,-0.049710983,0.230635838,0,0,0,,0,138,138,18,1,3,RL,onegator,print,onegator_p.png,,,,
,,,,32152,001,2025-10-16_15h20.38.084,HW_LDT_1,2024.2.4,MacIntel,62.5,,,,,,,,,,,,,,,,,,,,,,716.742,716.94,716.94,717.44,,,,,,,,,,,,,,0.79,1,,,,,,,,,,,,,,z,,,,,,,,,,,,,,,140,1,717.44,718.24,z,1,0.79,,[],[],[],[],[],[],[],718.24,720.239,720.239,721.34,[],[],[],[],[],[],[],m,1.093,,721.34,721.34,-0.049710983,0.230635838,0,0,0,,0,139,139,53,1,3,TL,marnigal,print,marnigal_p.png,,,,
,,,,32152,001,2025-10-16_15h20.38.084,HW_LDT_1,2024.2.4,MacIntel,62.5,,,,,,,,,,,,,,,,,,,,,,721.34,721.54,721.54,722.04,,,,,,,,,,,,,,1.244,1,,,,,,,,,,,,,,z,,,,,,,,,,,,,,,141,0,722.04,723.29,z,1,1.244,,[],[],[],[],[],[],[],723.29,725.29,725.29,725.29,[],[],[],[],[],[],[],,,,725.29,725.29,-0.049710983,0.230635838,0,0,0,,0,140,140,69,1,3,TL,redisent,cursive,redisent_c.png,,,,
,,,,32152,001,2025-10-16_15h20.38.084,HW_LDT_1,2024.2.4,MacIntel,62.5,,,,,,,,,,,,,,,,,,,,,,725.291,725.49,725.49,725.99,,,,,,,,,,,,,,0.528,1,,,,,,,,,,,,,,z,,,,,,,,,,,,,,,142,0,725.99,726.523,z,1,0.528,,[],[],[],[],[],[],[],726.523,728.523,728.523,728.523,[],[],[],[],[],[],[],,,,728.524,728.524,-0.049710983,0.230635838,0,0,0,,0,141,141,0,1,3,RL,afaneur,print,afaneur_p.png,,,,
,,,,32152,001,2025-10-16_15h20.38.084,HW_LDT_1,2024.2.4,MacIntel,62.5,,,,,,,,,,,,,,,,,,,,,,728.525,728.723,728.723,729.223,,,,,,,,,,,,,,1.41,1,,,,,,,,,,,,,,m,,,,,,,,,,,,,,,143,0,729.223,730.64,m,1,1.41,,[],[],[],[],[],[],[],730.64,732.64,732.64,732.64,[],[],[],[],[],[],[],,,,732.64,732.641,-0.049710983,0.230635838,0,0,0,,0,142,142,91,1,3,word,CARDINAL,print,cardinal_p.png,,,,
,,,,32152,001,2025-10-16_15h20.38.084,HW_LDT_1,2024.2.4,MacIntel,62.5,,,,,,,,,,,,,,,,,,,,,,732.641,732.84,732.84,733.34,,,,,,,,,,,,,,0.643,1,,,,,,,,,,,,,,m,,,,,,,,,,,,,,,144,0,733.341,733.99,m,1,0.643,,[],[],[],[],[],[],[],733.99,735.99,735.99,735.99,[],[],[],[],[],[],[],,,,735.99,735.99,-0.049710983,0.230635838,0,0,0,,0,143,143,101,1,3,word,DELICATE,print,delicate_p.png,,,,
,,,,32152,001,2025-10-16_15h20.38.084,HW_LDT_1,2024.2.4,MacIntel,62.5,,,,,,,,,,,,,,,,,,,,,,735.992,736.19,736.19,736.69,,,,,,,,,,,,,,0.538,1,,,,,,,,,,,,,,m,,,,,,,,,,,,,,,145,0,736.69,737.24,m,1,0.538,,[],[],[],[],[],[],[],737.24,739.24,739.24,739.24,[],[],[],[],[],[],[],,,,739.24,739.24,-0.049710983,0.230635838,0,0,0,,0,144,144,95,1,3,word,COMEDY,print,comedy_p.png,,,,
,,,,32152,001,2025-10-16_15h20.38.084,HW_LDT_1,2024.2.4,MacIntel,62.5,,,,,,,,,,,,,,,,,,,,,,739.241,739.44,739.44,739.94,,,,,,,,,,,,,,0.776,1,,,,,,,,,,,,,,z,,,,,,,,,,,,,,,146,0,739.94,740.723,z,1,0.776,,[],[],[],[],[],[],[],740.723,742.723,742.723,742.724,[],[],[],[],[],[],[],,,,742.724,742.724,-0.049710983,0.230635838,0,0,0,,0,145,145,49,1,3,TL,incidate,print,incidate_p.png,,,,
,,,,32152,001,2025-10-16_15h20.38.084,HW_LDT_1,2024.2.4,MacIntel,62.5,,,,,,,,,,,,,,,,,,,,,,742.724,742.923,742.923,743.423,,,,,,,,,,,,,,0.586,1,,,,,,,,,,,,,,z,,,,,,,,,,,,,,,147,0,743.424,744.023,z,1,0.586,,[],[],[],[],[],[],[],744.023,746.023,746.023,746.023,[],[],[],[],[],[],[],,,,746.023,746.024,-0.049710983,0.230635838,0,0,0,,0,146,146,76,1,3,TL,stogare,cursive,stogare_c.png,,,,
,,,,32152,001,2025-10-16_15h20.38.084,HW_LDT_1,2024.2.4,MacIntel,62.5,,,,,,,,,,,,,,,,,,,,,,746.024,746.223,746.223,746.723,,,,,,,,,,,,,,0.621,1,,,,,,,,,,,,,,m,,,,,,,,,,,,,,,148,0,746.723,747.357,m,1,0.621,,[],[],[],[],[],[],[],747.357,749.357,749.357,749.357,[],[],[],[],[],[],[],,,,749.357,749.357,-0.049710983,0.230635838,0,0,0,,0,147,147,134,1,3,word,QUALIFY,print,qualify_p.png,,,,
,,,,32152,001,2025-10-16_15h20.38.084,HW_LDT_1,2024.2.4,MacIntel,62.5,,,,,,,,,,,,,,,,,,,,,,749.358,749.556,749.556,750.057,,,,,,,,,,,,,,0.64,1,,,,,,,,,,,,,,z,,,,,,,,,,,,,,,149,0,750.057,750.707,z,1,0.64,,[],[],[],[],[],[],[],750.707,752.707,752.707,752.707,[],[],[],[],[],[],[],,,,752.707,752.707,-0.049710983,0.230635838,0,0,0,,0,148,148,30,1,3,RL,strapely,print,strapely_p.png,,,,
,,,,32152,001,2025-10-16_15h20.38.084,HW_LDT_1,2024.2.4,MacIntel,62.5,,,,,,,,,,,,,,,,,,,,,,752.708,752.906,752.906,753.406,,,,,,,,,,,,,,0.573,0,,,,,,,,,,,,,,m,,,,,,,,,,,,,,,150,0,753.406,753.99,z,0,0.573,,[],[],[],[],[],[],[],753.99,755.99,755.99,755.99,[],[],[],[],[],[],[],,,,755.99,755.99,-0.049710983,0.230635838,0,0,0,,0,149,149,110,1,3,word,HERITAGE,cursive,heritage_c.png,,,,
,,,,32152,001,2025-10-16_15h20.38.084,HW_LDT_1,2024.2.4,MacIntel,62.5,,,,,,,,,,,,,,,,,,,,,,755.991,756.19,756.19,756.69,,,,,,,,,,,,,,0.628,1,,,,,,,,,,,,,,m,,,,,,,,,,,,,,,151,0,756.69,757.323,m,1,0.628,,[],[],[],[],[],[],[],757.324,759.323,759.323,759.323,[],[],[],[],[],[],[],,,,759.323,759.324,-0.049710983,0.230635838,0,0,0,,0,150,150,102,1,3,word,DENSITY,print,density_p.png,,,,
,,,,32152,001,2025-10-16_15h20.38.084,HW_LDT_1,2024.2.4,MacIntel,62.5,,,,,,,,,,,,,,,,,,,,,,759.325,759.523,759.523,760.023,,,,,,,,,,,,,,0.591,1,,,,,,,,,,,,,,z,,,,,,,,,,,,,,,152,0,760.023,760.623,z,1,0.591,,[],[],[],[],[],[],[],760.623,762.623,762.623,762.623,[],[],[],[],[],[],[],,,,762.623,762.623,-0.049710983,0.230635838,0,0,0,,0,151,151,74,1,3,TL,spemicen,print,spemicen_p.png,,,,
,,,,32152,001,2025-10-16_15h20.38.084,HW_LDT_1,2024.2.4,MacIntel,62.5,,,,,,,,,,,,,,,,,,,,,,762.624,762.823,762.823,763.323,,,,,,,,,,,,,,0.578,1,,,,,,,,,,,,,,z,,,,,,,,,,,,,,,153,0,763.324,763.906,z,1,0.578,,[],[],[],[],[],[],[],763.906,765.906,765.906,765.907,[],[],[],[],[],[],[],,,,765.907,765.907,-0.049710983,0.230635838,0,0,0,,0,152,152,75,1,3,TL,sloten,cursive,sloten_c.png,,,,
,,,,32152,001,2025-10-16_15h20.38.084,HW_LDT_1,2024.2.4,MacIntel,62.5,,,,,,,,,,,,,,,,,,,,,,765.908,766.106,766.106,766.607,,,,,,,,,,,,,,0.597,1,,,,,,,,,,,,,,m,,,,,,,,,,,,,,,154,0,766.607,767.209,m,1,0.597,,[],[],[],[],[],[],[],767.209,769.206,769.206,769.207,[],[],[],[],[],[],[],,,,769.207,769.207,-0.049710983,0.230635838,0,0,0,,0,153,153,139,1,3,word,REGULAR,print,regular_p.png,,,,
,,,,32152,001,2025-10-16_15h20.38.084,HW_LDT_1,2024.2.4,MacIntel,62.5,,,,,,,,,,,,,,,,,,,,,,769.208,769.406,769.406,769.906,,,,,,,,,,,,,,1.605,1,,,,,,,,,,,,,,m,,,,,,,,,,,,,,,155,0,769.906,771.523,m,1,1.605,,[],[],[],[],[],[],[],771.523,773.523,773.523,773.523,[],[],[],[],[],[],[],,,,773.523,773.524,-0.049710983,0.230635838,0,0,0,,0,154,154,144,1,3,word,RESIDENT,cursive,resident_c.png,,,,
,,,,32152,001,2025-10-16_15h20.38.084,HW_LDT_1,2024.2.4,MacIntel,62.5,,,,,,,,,,,,,,,,,,,,,,773.524,773.722,773.722,774.223,,,,,,,,,,,,,,1.093,1,,,,,,,,,,,,,,z,,,,,,,,,,,,,,,156,0,774.224,775.323,z,1,1.093,,[],[],[],[],[],[],[],775.323,777.323,777.323,777.323,[],[],[],[],[],[],[],,,,777.323,777.323,-0.049710983,0.230635838,0,0,0,,0,155,155,17,1,3,RL,motide,cursive,motide_c.png,,,,
,,,,32152,001,2025-10-16_15h20.38.084,HW_LDT_1,2024.2.4,MacIntel,62.5,,,,,,,,,,,,,,,,,,,,,,777.324,777.523,777.523,778.023,,,,,,,,,,,,,,0.699,1,,,,,,,,,,,,,,m,,,,,,,,,,,,,,,157,1,778.023,778.724,m,1,0.699,,[],[],[],[],[],[],[],778.724,780.723,780.723,783.256,[],[],[],[],[],[],[],z,2.523,,783.256,783.257,-0.049710983,0.230635838,0,0,0,,0,156,156,146,1,3,word,RETIRE,print,retire_p.png,,,,
,,,,32152,001,2025-10-16_15h20.38.084,HW_LDT_1,2024.2.4,MacIntel,62.5,,,,,,,,,,,,,,,,,,,,,,783.257,783.456,783.456,783.956,,,,,,,,,,,,,,1.01,1,,,,,,,,,,,,,,m,,,,,,,,,,,,,,,158,0,783.957,784.973,m,1,1.01,,[],[],[],[],[],[],[],784.973,786.973,786.973,786.973,[],[],[],[],[],[],[],,,,786.973,786.973,-0.049710983,0.230635838,0,0,0,,0,157,157,115,1,3,word,LOGICAL,cursive,logical_c.png,,,,
,,,,32152,001,2025-10-16_15h20.38.084,HW_LDT_1,2024.2.4,MacIntel,62.5,,,,,,,,,,,,,,,,,,,,,,786.974,787.173,787.173,787.673,,,,,,,,,,,,,,1.022,1,,,,,,,,,,,,,,z,,,,,,,,,,,,,,,159,0,787.673,788.706,z,1,1.022,,[],[],[],[],[],[],[],788.706,790.707,790.707,790.707,[],[],[],[],[],[],[],,,,790.707,790.707,-0.049710983,0.230635838,0,0,0,,0,158,158,1,1,3,RL,bewoted,cursive,bewoted_c.png,,,,
,,,,32152,001,2025-10-16_15h20.38.084,HW_LDT_1,2024.2.4,MacIntel,62.5,,,,,,,,,,,,,,,,,,,,,,790.708,790.906,790.906,791.406,,,,,,,,,,,,,,0.721,1,,,,,,,,,,,,,,z,,,,,,,,,,,,,,,160,0,791.407,792.14,z,1,0.721,,[],[],[],[],[],[],[],792.14,794.14,794.14,794.14,[],[],[],[],[],[],[],,,,794.141,794.141,-0.049710983,0.230635838,0,0,0,,0,159,159,3,1,3,RL,bebine,cursive,bebine_c.png,,,,
,,,,32152,001,2025-10-16_15h20.38.084,HW_LDT_1,2024.2.4,MacIntel,62.5,,,,,,,,,,,,,,,,,,,,,,,,,,,,,,,,,,,,,,,,,,,,,,,,,,,,,,,,,,,,,,,,,,,,,,,,,,,,,,,,,,,,,,,,,,,,,,,,,,,,,,,,,,,,,,,,,,,,,,794.146,799.14
