counterbalance_lists.group,counterbalance_lists.remaining,get_list.started,get_list.stopped,participant,session,date,expName,psychopyVersion,OS,frameRate,Instructions.started,Instructions.stopped,key_resp.keys,instr_done_touch.x,instr_done_touch.y,instr_done_touch.leftButton,instr_done_touch.midButton,instr_done_touch.rightButton,instr_done_touch.clicked_name,start_instr.thisRepN,start_instr.thisTrialN,start_instr.thisN,start_instr.thisIndex,start_instr.ran,pageN,phase,instruct_text,has_image,instruct_image,showProgress.started,showProgress.stopped,fix.started,fix.stopped,prac.started,prac.stopped,response.keys,response.corr,response.rt,response.duration,touch_resp.x,touch_resp.y,touch_resp.leftButton,touch_resp.midButton,touch_resp.rightButton,touch_resp.time,touch_resp.clicked_name,rt,corr,feedback.started,feedback.stopped,trials.thisRepN,trials.thisTrialN,trials.thisN,trials.thisIndex,trials.ran,TrialID,StimulusType,Condition,PrimeDuration,Prime,Target,corrAns,Instructions_expt.started,Instructions_expt.stopped,key_resp_3.keys,instr_done_touch_3.x,instr_done_touch_3.y,instr_done_touch_3.leftButton,instr_done_touch_3.midButton,instr_done_touch_3.rightButton,instr_done_touch_3.clicked_name,instr_experiment.thisRepN,instr_experiment.thisTrialN,instr_experiment.thisN,instr_experiment.thisIndex,instr_experiment.ran,trialID,flag,maintask.started,maintask.stopped,key_resp_2.keys,key_resp_2.corr,key_resp_2.rt,key_resp_2.duration,targ_click.x,targ_click.y,targ_click.leftButton,targ_click.midButton,targ_click.rightButton,targ_click.time,targ_click.clicked_name,ITI.started,ITI.stopped,probe.started,probe.stopped,click_probe.x,click_probe.y,click_probe.leftButton,click_probe.midButton,click_probe.rightButton,click_probe.time,click_probe.clicked_name,key_resp_probe.keys,Break.started,Break.stopped,break_done_touch.x,break_done_touch.y,break_done_touch.leftButton,break_done_touch.midButton,break_done_touch.rightButton,break_done_keyboard.keys,list4_trials.thisRepN,list4_trials.thisTrialN,list4_trials.thisN,list4_trials.thisIndex,list4_trials.ran,list_id,item_type,string,font,stim_file,key_resp_probe.rt,key_resp_probe.duration,break_done_touch.clicked_name,End.started,End.stopped
list4,,0.5177,0.5179,32164,001,2025-11-20_12h00.35.945,HW_LDT_1,2024.2.4,MacIntel,59.52380952,,,,,,,,,,,,,,,,,,,,,,,,,,,,,,,,,,,,,,,,,,,,,,,,,,,,,,,,,,,,,,,,,,,,,,,,,,,,,,,,,,,,,,,,,,,,,,,,,,,,,,,,,,,,,,,,,,,,
,,,,32164,001,2025-11-20_12h00.35.945,HW_LDT_1,2024.2.4,MacIntel,59.52380952,0.5354,23.9502,,0.004639757,-0.404583333,1,0,0,instr_done_button,0,0,0,0,1,1,instructions,"INSTRUCTIONS
At the start of each trial, look at the plus sign  (+) in the center of the screen.  This tells you that a trial is about to begin and where to look. Second, the plus sign will disappear and a string of letters will appear. Your task is to determine if the string of letters is a word or not. If the item is a word press the M key (on keyboard)  or touch the word button (phone/tablet).  If the item is not a word,  press the  Z key (on keyboard)  or touch the nonword button (on phone/tablet). The items will be presented for a short time. 
Press the space bar or touch  continue.",0,,,,,,,,,,,,,,,,,,,,,,,,,,,,,,,,,,,,,,,,,,,,,,,,,,,,,,,,,,,,,,,,,,,,,,,,,,,,,,,,,,,,,,,,,,,,,,,,,,
,,,,32164,001,2025-11-20_12h00.35.945,HW_LDT_1,2024.2.4,MacIntel,59.52380952,23.9512,30.3008,,0.021458333,-0.386462674,1,0,0,instr_done_button,0,1,1,1,1,2,instructions,"If your device has a keyboard, press the 'Z' key for nonwords and the 'M' key for words.





Press the space bar or touch the button below to continue.",0,keyboard-example.gif,,,,,,,,,,,,,,,,,,,,,,,,,,,,,,,,,,,,,,,,,,,,,,,,,,,,,,,,,,,,,,,,,,,,,,,,,,,,,,,,,,,,,,,,,,,,,,,,,
,,,,32164,001,2025-11-20_12h00.35.945,HW_LDT_1,2024.2.4,MacIntel,59.52380952,30.3027,31.6341,,0.036232639,-0.394730903,1,0,0,instr_done_button,0,2,2,2,1,3,instructions,"If you are using a touchscreen only device, use the buttons on the screen. Do not use the mouse.





Press the space bar or touch the button below to continue.",0,touchscreen-example.gif,,,,,,,,,,,,,,,,,,,,,,,,,,,,,,,,,,,,,,,,,,,,,,,,,,,,,,,,,,,,,,,,,,,,,,,,,,,,,,,,,,,,,,,,,,,,,,,,,
,,,,32164,001,2025-11-20_12h00.35.945,HW_LDT_1,2024.2.4,MacIntel,59.52380952,31.636,45.1681,,0.073003472,-0.400481771,1,0,0,instr_done_button,0,3,3,3,1,4,instructions,"It is very important that you respond as quickly and accurately as possible, as each letter string will only be on the screen for two seconds. If you do not respond within this time, the message 'Too slow!' will be displayed and the experiment will progress to the next letter string. The first 20 trials will be practice trials and you will receive feedback on your answers. 

Press the space bar or touch the button below to start the practice trials.",0,,,,,,,,,,,,,,,,,,,,,,,,,,,,,,,,,,,,,,,,,,,,,,,,,,,,,,,,,,,,,,,,,,,,,,,,,,,,,,,,,,,,,,,,,,,,,,,,,,
,,,,32164,001,2025-11-20_12h00.35.945,HW_LDT_1,2024.2.4,MacIntel,59.52380952,,,,,,,,,,,,,,,,,,,,45.1999,45.368,45.3681,45.8684,45.8688,46.8855,m,1,0.9879,,[],[],[],[],[],[],[],0.9879,1,46.8859,47.3851,0,0,0,1,1,1002,WORD,"ID",33,adjust,ADJUST,m,,,,,,,,,,,,,,,,,,,,,,,,,,,,,,,,,,,,,,,,,,,,,,,,,,,,,,,,,,,,,,,,
,,,,32164,001,2025-11-20_12h00.35.945,HW_LDT_1,2024.2.4,MacIntel,59.52380952,,,,,,,,,,,,,,,,,,,,47.3866,47.584,47.584,48.0848,48.0858,48.8017,m,1,0.6949,,[],[],[],[],[],[],[],0.6949,1,48.8018,49.3018,0,1,1,0,1,1001,WORD,"ID",33,utopia,UTOPIA,m,,,,,,,,,,,,,,,,,,,,,,,,,,,,,,,,,,,,,,,,,,,,,,,,,,,,,,,,,,,,,,,,
,,,,32164,001,2025-11-20_12h00.35.945,HW_LDT_1,2024.2.4,MacIntel,59.52380952,,,,,,,,,,,,,,,,,,,,49.3032,49.5015,49.5016,50.0016,50.0025,51.0849,z,1,1.0717,,[],[],[],[],[],[],[],1.0717,1,51.085,51.5848,0,2,2,12,1,1013,NW,UN,33,adveil,SPRINY,z,,,,,,,,,,,,,,,,,,,,,,,,,,,,,,,,,,,,,,,,,,,,,,,,,,,,,,,,,,,,,,,,
,,,,32164,001,2025-11-20_12h00.35.945,HW_LDT_1,2024.2.4,MacIntel,59.52380952,,,,,,,,,,,,,,,,,,,,51.5858,51.7847,51.7848,52.2846,52.2852,53.3518,z,1,1.0482,,[],[],[],[],[],[],[],1.0482,1,53.3519,53.8518,0,3,3,8,1,1009,NW,"ID",33,aslert,ASLERT,z,,,,,,,,,,,,,,,,,,,,,,,,,,,,,,,,,,,,,,,,,,,,,,,,,,,,,,,,,,,,,,,,
,,,,32164,001,2025-11-20_12h00.35.945,HW_LDT_1,2024.2.4,MacIntel,59.52380952,,,,,,,,,,,,,,,,,,,,53.8531,54.0517,54.0517,54.5517,54.5527,55.4518,m,1,0.8778,,[],[],[],[],[],[],[],0.8778,1,55.4519,55.9517,0,4,4,5,1,1006,WORD,UN,33,frenzy,OBTAIN,m,,,,,,,,,,,,,,,,,,,,,,,,,,,,,,,,,,,,,,,,,,,,,,,,,,,,,,,,,,,,,,,,
,,,,32164,001,2025-11-20_12h00.35.945,HW_LDT_1,2024.2.4,MacIntel,59.52380952,,,,,,,,,,,,,,,,,,,,55.9528,56.1517,56.1518,56.6518,56.6529,57.402,m,1,0.729,,[],[],[],[],[],[],[],0.729,1,57.4021,57.9019,0,5,5,4,1,1005,WORD,UN,33,abound,SQUEAK,m,,,,,,,,,,,,,,,,,,,,,,,,,,,,,,,,,,,,,,,,,,,,,,,,,,,,,,,,,,,,,,,,
,,,,32164,001,2025-11-20_12h00.35.945,HW_LDT_1,2024.2.4,MacIntel,59.52380952,,,,,,,,,,,,,,,,,,,,57.9036,58.1018,58.1019,58.6019,58.6028,59.3186,m,1,0.6964,,[],[],[],[],[],[],[],0.6964,1,59.3188,59.8186,0,6,6,2,1,1003,WORD,"ID",16,almond,ALMOND,m,,,,,,,,,,,,,,,,,,,,,,,,,,,,,,,,,,,,,,,,,,,,,,,,,,,,,,,,,,,,,,,,
,,,,32164,001,2025-11-20_12h00.35.945,HW_LDT_1,2024.2.4,MacIntel,59.52380952,,,,,,,,,,,,,,,,,,,,59.82,60.0186,60.0186,60.5186,60.5197,61.4354,z,1,0.8958,,[],[],[],[],[],[],[],0.8958,1,61.4355,61.9354,0,7,7,9,1,1010,NW,"ID",33,fariny,FARINY,z,,,,,,,,,,,,,,,,,,,,,,,,,,,,,,,,,,,,,,,,,,,,,,,,,,,,,,,,,,,,,,,,
,,,,32164,001,2025-11-20_12h00.35.945,HW_LDT_1,2024.2.4,MacIntel,59.52380952,,,,,,,,,,,,,,,,,,,,61.9369,62.1353,62.1354,62.6354,62.6363,63.3521,z,1,0.696,,[],[],[],[],[],[],[],0.696,1,63.3523,63.8521,0,8,8,13,1,1014,NW,UN,33,winfer,ROUPET,z,,,,,,,,,,,,,,,,,,,,,,,,,,,,,,,,,,,,,,,,,,,,,,,,,,,,,,,,,,,,,,,,
,,,,32164,001,2025-11-20_12h00.35.945,HW_LDT_1,2024.2.4,MacIntel,59.52380952,,,,,,,,,,,,,,,,,,,,63.8536,64.052,64.052,64.5522,64.5533,65.3022,m,1,0.7283,,[],[],[],[],[],[],[],0.7283,1,65.3023,65.802,0,9,9,7,1,1008,WORD,UN,16,hurdle,VOLUME,m,,,,,,,,,,,,,,,,,,,,,,,,,,,,,,,,,,,,,,,,,,,,,,,,,,,,,,,,,,,,,,,,
,,,,32164,001,2025-11-20_12h00.35.945,HW_LDT_1,2024.2.4,MacIntel,59.52380952,,,,,,,,,,,,,,,,,,,,65.8031,66.0022,66.0022,66.5021,66.5031,67.6522,z,1,1.1303,,[],[],[],[],[],[],[],1.1303,1,67.6524,68.1522,0,10,10,15,1,1016,NW,UN,16,mushed,WHAISE,z,,,,,,,,,,,,,,,,,,,,,,,,,,,,,,,,,,,,,,,,,,,,,,,,,,,,,,,,,,,,,,,,
,,,,32164,001,2025-11-20_12h00.35.945,HW_LDT_1,2024.2.4,MacIntel,59.52380952,,,,,,,,,,,,,,,,,,,,68.1536,68.3522,68.3522,68.8522,68.8531,69.7024,z,1,0.8406,,[],[],[],[],[],[],[],0.8406,1,69.7025,70.2023,0,11,11,14,1,1015,NW,UN,16,miaber,THRALE,z,,,,,,,,,,,,,,,,,,,,,,,,,,,,,,,,,,,,,,,,,,,,,,,,,,,,,,,,,,,,,,,,
,,,,32164,001,2025-11-20_12h00.35.945,HW_LDT_1,2024.2.4,MacIntel,59.52380952,,,,,,,,,,,,,,,,,,,,70.2037,70.4023,70.4023,70.9023,70.9034,72.019,z,1,1.0957,,[],[],[],[],[],[],[],1.0957,1,72.0191,72.519,0,12,12,11,1,1012,NW,"ID",16,rashet,RASHET,z,,,,,,,,,,,,,,,,,,,,,,,,,,,,,,,,,,,,,,,,,,,,,,,,,,,,,,,,,,,,,,,,
,,,,32164,001,2025-11-20_12h00.35.945,HW_LDT_1,2024.2.4,MacIntel,59.52380952,,,,,,,,,,,,,,,,,,,,72.5204,72.7182,72.7183,73.219,73.2201,74.1357,m,1,0.8943,,[],[],[],[],[],[],[],0.8943,1,74.1359,74.6359,0,13,13,3,1,1004,WORD,"ID",16,matrix,MATRIX,m,,,,,,,,,,,,,,,,,,,,,,,,,,,,,,,,,,,,,,,,,,,,,,,,,,,,,,,,,,,,,,,,
,,,,32164,001,2025-11-20_12h00.35.945,HW_LDT_1,2024.2.4,MacIntel,59.52380952,,,,,,,,,,,,,,,,,,,,74.6374,74.8358,74.8358,75.3358,75.3366,76.3526,z,1,0.997,,[],[],[],[],[],[],[],0.997,1,76.3527,76.8526,0,14,14,10,1,1011,NW,"ID",16,inlade,INLADE,z,,,,,,,,,,,,,,,,,,,,,,,,,,,,,,,,,,,,,,,,,,,,,,,,,,,,,,,,,,,,,,,,
,,,,32164,001,2025-11-20_12h00.35.945,HW_LDT_1,2024.2.4,MacIntel,59.52380952,,,,,,,,,,,,,,,,,,,,76.8539,77.0525,77.0526,77.5525,77.5531,78.4021,m,1,0.8325,,[],[],[],[],[],[],[],0.8325,1,78.4022,78.9027,0,15,15,6,1,1007,WORD,UN,16,tropic,ZOMBIE,m,,,,,,,,,,,,,,,,,,,,,,,,,,,,,,,,,,,,,,,,,,,,,,,,,,,,,,,,,,,,,,,,
,,,,32164,001,2025-11-20_12h00.35.945,HW_LDT_1,2024.2.4,MacIntel,59.52380952,,,,,,,,,,,,,,,1,end_of_practice,"You have completed the practice trials. During the experimental trials, you will not receive feedback. On some trials you will be asked to report whether the item you just saw was in cursive or print. 
Before you begin, please ensure that you are in a comfortable and quiet location and will not be disturbed for about 15 minutes, as we cannot use your data if you do not complete all the trials. 
 When you are ready to start the experimental trials, please press space or touch the button below.",,,,,,,,,,,,,,,,,,,,,,,,,,,,,,,,,,,,78.91,89.4534,,0.09625434,-0.368077257,1,0,0,instr_done_button_3,0,0,0,0,1,,,,,,,,,,,,,,,,,,,,,,,,,,,,,,,,,,,,,,,,,,,,,,,,,,
,,,,32164,001,2025-11-20_12h00.35.945,HW_LDT_1,2024.2.4,MacIntel,59.52380952,,,,,,,,,,,,,,,,,,,,89.4732,89.6529,89.653,90.1531,,,,,,,,,,,,,,1.321,1,,,,,,,,,,,,,,m,,,,,,,,,,,,,,,1,0,90.1546,91.4869,m,1,1.321,,[],[],[],[],[],[],[],91.4873,93.4872,93.4875,93.491,[],[],[],[],[],[],[],,93.4912,93.4929,0.095143229,-0.369743924,0,0,0,,0,0,0,152,1,4,word,SPECIMEN,cursive,specimen_c.png,,,,,
,,,,32164,001,2025-11-20_12h00.35.945,HW_LDT_1,2024.2.4,MacIntel,59.52380952,,,,,,,,,,,,,,,,,,,,93.4941,93.6865,93.6865,94.1858,,,,,,,,,,,,,,0.9485,1,,,,,,,,,,,,,,m,,,,,,,,,,,,,,,2,0,94.1865,95.1366,m,1,0.9485,,[],[],[],[],[],[],[],95.1367,97.1366,97.1367,97.1371,[],[],[],[],[],[],[],,97.1372,97.1374,0.095143229,-0.369743924,0,0,0,,0,1,1,133,1,4,word,PROVIDE,cursive,provide_c.png,,,,,
,,,,32164,001,2025-11-20_12h00.35.945,HW_LDT_1,2024.2.4,MacIntel,59.52380952,,,,,,,,,,,,,,,,,,,,97.1385,97.3366,97.3366,97.8366,,,,,,,,,,,,,,0.8145,1,,,,,,,,,,,,,,m,,,,,,,,,,,,,,,3,0,97.8374,98.6532,m,1,0.8145,,[],[],[],[],[],[],[],98.6534,100.6534,100.6534,100.6538,[],[],[],[],[],[],[],,100.6538,100.654,0.095143229,-0.369743924,0,0,0,,0,2,2,84,1,4,word,BELOVED,print,beloved_p.png,,,,,
,,,,32164,001,2025-11-20_12h00.35.945,HW_LDT_1,2024.2.4,MacIntel,59.52380952,,,,,,,,,,,,,,,,,,,,100.6551,100.8534,100.8534,101.3534,,,,,,,,,,,,,,4.2708,1,,,,,,,,,,,,,,z,,,,,,,,,,,,,,,4,1,101.3541,105.6371,z,1,4.2708,,[],[],[],[],[],[],[],105.6371,107.6369,107.637,112.6699,[],[],[],[],[],[],[],z,112.67,112.6703,-0.276697049,-0.30359375,0,0,0,,0,3,3,23,1,4,RL,linefal,cursive,linefal_c.png,5.0209,,,,
,,,,32164,001,2025-11-20_12h00.35.945,HW_LDT_1,2024.2.4,MacIntel,59.52380952,,,,,,,,,,,,,,,,,,,,112.6713,112.8694,112.8696,113.3705,,,,,,,,,,,,,,1.1539,1,,,,,,,,,,,,,,m,,,,,,,,,,,,,,,5,0,113.3712,114.5374,m,1,1.1539,,[],[],[],[],[],[],[],114.5375,116.5373,116.5374,116.5378,[],[],[],[],[],[],[],,116.5379,116.538,-0.276697049,-0.30359375,0,0,0,,0,4,4,122,1,4,word,MOBILE,print,mobile_p.png,,,,,
,,,,32164,001,2025-11-20_12h00.35.945,HW_LDT_1,2024.2.4,MacIntel,59.52380952,,,,,,,,,,,,,,,,,,,,116.5392,116.7372,116.7373,117.2373,,,,,,,,,,,,,,5.9694,0,,,,,,,,,,,,,,m,,,,,,,,,,,,,,,6,0,117.238,123.2199,z,0,5.9694,,[],[],[],[],[],[],[],123.2201,125.22,125.2201,125.2205,[],[],[],[],[],[],[],,125.2206,125.2208,-0.276697049,-0.30359375,0,0,0,,0,5,5,113,1,4,word,LITERAL,cursive,literal_c.png,,,,,
,,,,32164,001,2025-11-20_12h00.35.945,HW_LDT_1,2024.2.4,MacIntel,59.52380952,,,,,,,,,,,,,,,,,,,,125.2218,125.4211,125.4211,125.921,,,,,,,,,,,,,,1.3392,1,,,,,,,,,,,,,,m,,,,,,,,,,,,,,,7,0,125.9216,127.2712,m,1,1.3392,,[],[],[],[],[],[],[],127.2712,129.2702,129.2702,129.2705,[],[],[],[],[],[],[],,129.2706,129.2708,-0.276697049,-0.30359375,0,0,0,,0,6,6,91,1,4,word,CARDINAL,cursive,cardinal_c.png,,,,,
,,,,32164,001,2025-11-20_12h00.35.945,HW_LDT_1,2024.2.4,MacIntel,59.52380952,,,,,,,,,,,,,,,,,,,,129.2718,129.471,129.4711,129.9711,,,,,,,,,,,,,,8.2375,1,,,,,,,,,,,,,,z,,,,,,,,,,,,,,,8,0,129.9716,138.2214,z,1,8.2375,,[],[],[],[],[],[],[],138.2216,140.2206,140.2207,140.2208,[],[],[],[],[],[],[],,140.2209,140.2211,-0.276697049,-0.30359375,0,0,0,,0,7,7,19,1,4,RL,elacodate,cursive,elacodate_c.png,,,,,
,,,,32164,001,2025-11-20_12h00.35.945,HW_LDT_1,2024.2.4,MacIntel,59.52380952,,,,,,,,,,,,,,,,,,,,140.2223,140.4206,140.4206,140.9216,,,,,,,,,,,,,,4.6742,1,,,,,,,,,,,,,,z,,,,,,,,,,,,,,,9,1,140.9222,145.6041,z,1,4.6742,,[],[],[],[],[],[],[],145.6042,147.6051,147.6052,149.1876,[],[],[],[],[],[],[],z,149.1877,149.188,-0.318142361,-0.323632812,0,0,0,,0,8,8,26,1,4,RL,mesibine,cursive,mesibine_c.png,1.5713,,,,
,,,,32164,001,2025-11-20_12h00.35.945,HW_LDT_1,2024.2.4,MacIntel,59.52380952,,,,,,,,,,,,,,,,,,,,149.1891,149.3875,149.3875,149.8885,,,,,,,,,,,,,,1.374,1,,,,,,,,,,,,,,z,,,,,,,,,,,,,,,10,0,149.8892,151.2712,z,1,1.374,,[],[],[],[],[],[],[],151.2713,153.2711,153.2712,153.2714,[],[],[],[],[],[],[],,153.2714,153.2717,-0.318142361,-0.323632812,0,0,0,,0,9,9,29,1,4,RL,motide,print,motide_p.png,,,,,
,,,,32164,001,2025-11-20_12h00.35.945,HW_LDT_1,2024.2.4,MacIntel,59.52380952,,,,,,,,,,,,,,,,,,,,153.2728,153.472,153.472,153.972,,,,,,,,,,,,,,1.1376,1,,,,,,,,,,,,,,m,,,,,,,,,,,,,,,11,0,153.9726,155.122,m,1,1.1376,,[],[],[],[],[],[],[],155.1221,157.122,157.1221,157.1224,[],[],[],[],[],[],[],,157.1225,157.1227,-0.318142361,-0.323632812,0,0,0,,0,10,10,118,1,4,word,MEDICINE,cursive,medicine_c.png,,,,,
,,,,32164,001,2025-11-20_12h00.35.945,HW_LDT_1,2024.2.4,MacIntel,59.52380952,,,,,,,,,,,,,,,,,,,,157.1239,157.3212,157.3212,157.8223,,,,,,,,,,,,,,1.5709,1,,,,,,,,,,,,,,z,,,,,,,,,,,,,,,12,0,157.8227,159.4046,z,1,1.5709,,[],[],[],[],[],[],[],159.4048,161.4047,161.4047,161.405,[],[],[],[],[],[],[],,161.405,161.4051,-0.318142361,-0.323632812,0,0,0,,0,11,11,57,1,4,TL,etidor,print,etidor_p.png,,,,,
,,,,32164,001,2025-11-20_12h00.35.945,HW_LDT_1,2024.2.4,MacIntel,59.52380952,,,,,,,,,,,,,,,,,,,,161.4063,161.6057,161.6057,162.1047,,,,,,,,,,,,,,4.9703,1,,,,,,,,,,,,,,z,,,,,,,,,,,,,,,13,0,162.1052,167.0882,z,1,4.9703,,[],[],[],[],[],[],[],167.0884,169.0882,169.0884,169.0886,[],[],[],[],[],[],[],,169.0886,169.0888,-0.318142361,-0.323632812,0,0,0,,0,12,12,12,1,4,RL,conbicer,cursive,conbicer_c.png,,,,,
,,,,32164,001,2025-11-20_12h00.35.945,HW_LDT_1,2024.2.4,MacIntel,59.52380952,,,,,,,,,,,,,,,,,,,,169.09,169.2893,169.2894,169.7883,,,,,,,,,,,,,,2.6712,1,,,,,,,,,,,,,,z,,,,,,,,,,,,,,,14,0,169.7886,172.4729,z,1,2.6712,,[],[],[],[],[],[],[],172.4729,174.4728,174.4728,174.4729,[],[],[],[],[],[],[],,174.4731,174.4731,-0.318142361,-0.323632812,0,0,0,,0,13,13,58,1,4,TL,edivent,print,edivent_p.png,,,,,
,,,,32164,001,2025-11-20_12h00.35.945,HW_LDT_1,2024.2.4,MacIntel,59.52380952,,,,,,,,,,,,,,,,,,,,174.4741,174.6717,174.6718,175.1718,,,,,,,,,,,,,,1.8145,1,,,,,,,,,,,,,,z,,,,,,,,,,,,,,,15,1,175.1725,176.9893,z,1,1.8145,,[],[],[],[],[],[],[],176.9894,178.9887,178.9887,182.0394,[],[],[],[],[],[],[],m,182.0395,182.0396,-0.318142361,-0.323632812,0,0,0,,0,14,14,60,1,4,TL,hetirage,print,hetirage_p.png,3.0389,,,,
,,,,32164,001,2025-11-20_12h00.35.945,HW_LDT_1,2024.2.4,MacIntel,59.52380952,,,,,,,,,,,,,,,,,,,,182.0408,182.2397,182.2398,182.7398,,,,,,,,,,,,,,1.306,1,,,,,,,,,,,,,,z,,,,,,,,,,,,,,,16,0,182.7404,184.0565,z,1,1.306,,[],[],[],[],[],[],[],184.0567,186.0556,186.0556,186.0558,[],[],[],[],[],[],[],,186.0559,186.056,-0.318142361,-0.323632812,0,0,0,,0,15,15,54,1,4,TL,codemy,print,codemy_p.png,,,,,
,,,,32164,001,2025-11-20_12h00.35.945,HW_LDT_1,2024.2.4,MacIntel,59.52380952,,,,,,,,,,,,,,,,,,,,186.0573,186.2565,186.2565,186.7563,,,,,,,,,,,,,,7.0863,1,,,,,,,,,,,,,,z,,,,,,,,,,,,,,,17,0,186.7567,193.8569,z,1,7.0863,,[],[],[],[],[],[],[],193.8569,195.8565,195.8565,195.8569,[],[],[],[],[],[],[],,195.8569,195.857,-0.318142361,-0.323632812,0,0,0,,0,16,16,4,1,4,RL,betemit,cursive,betemit_c.png,,,,,
,,,,32164,001,2025-11-20_12h00.35.945,HW_LDT_1,2024.2.4,MacIntel,59.52380952,,,,,,,,,,,,,,,,,,,,195.8583,196.0569,196.0571,196.5569,,,,,,,,,,,,,,2.27,1,,,,,,,,,,,,,,m,,,,,,,,,,,,,,,18,0,196.5575,198.8395,m,1,2.27,,[],[],[],[],[],[],[],198.8396,200.8404,200.8404,200.8406,[],[],[],[],[],[],[],,200.8407,200.8407,-0.318142361,-0.323632812,0,0,0,,0,17,17,153,1,4,word,STOLEN,cursive,stolen_c.png,,,,,
,,,,32164,001,2025-11-20_12h00.35.945,HW_LDT_1,2024.2.4,MacIntel,59.52380952,,,,,,,,,,,,,,,,,,,,200.8417,201.0404,201.0405,201.5404,,,,,,,,,,,,,,10.9206,1,,,,,,,,,,,,,,m,,,,,,,,,,,,,,,19,0,201.5411,212.4733,m,1,10.9206,,[],[],[],[],[],[],[],212.4735,214.4743,214.4744,214.4746,[],[],[],[],[],[],[],,214.4746,214.4748,-0.318142361,-0.323632812,0,0,0,,0,18,18,108,1,4,word,FORTUNE,cursive,fortune_c.png,,,,,
,,,,32164,001,2025-11-20_12h00.35.945,HW_LDT_1,2024.2.4,MacIntel,59.52380952,,,,,,,,,,,,,,,,,,,,214.476,214.6743,214.6744,215.1743,,,,,,,,,,,,,,1.0878,0,,,,,,,,,,,,,,z,,,,,,,,,,,,,,,20,0,215.1747,216.2744,m,0,1.0878,,[],[],[],[],[],[],[],216.2745,218.2743,218.2744,218.2747,[],[],[],[],[],[],[],,218.2748,218.2749,-0.318142361,-0.323632812,0,0,0,,0,19,19,70,1,4,TL,quatily,print,quatily_p.png,,,,,
,,,,32164,001,2025-11-20_12h00.35.945,HW_LDT_1,2024.2.4,MacIntel,59.52380952,,,,,,,,,,,,,,,,,,,,218.2761,218.4743,218.4744,218.9734,,,,,,,,,,,,,,10.5388,1,,,,,,,,,,,,,,z,,,,,,,,,,,,,,,21,0,218.9737,229.5248,z,1,10.5388,,[],[],[],[],[],[],[],229.5248,231.524,231.524,231.5243,[],[],[],[],[],[],[],,231.5243,231.5245,-0.318142361,-0.323632812,0,0,0,,0,20,20,45,1,4,RL,spetisic,cursive,spetisic_c.png,,,,,
,,,,32164,001,2025-11-20_12h00.35.945,HW_LDT_1,2024.2.4,MacIntel,59.52380952,,,,,,,,,,,,,,,,,,,,231.5256,231.7239,231.724,232.2236,,,,,,,,,,,,,,9.1594,1,,,,,,,,,,,,,,z,,,,,,,,,,,,,,,22,0,232.2238,241.3916,z,1,9.1594,,[],[],[],[],[],[],[],241.3917,243.392,243.3921,243.3923,[],[],[],[],[],[],[],,243.3923,243.3926,-0.318142361,-0.323632812,0,0,0,,0,21,21,41,1,4,RL,rebicent,cursive,rebicent_c.png,,,,,
,,,,32164,001,2025-11-20_12h00.35.945,HW_LDT_1,2024.2.4,MacIntel,59.52380952,,,,,,,,,,,,,,,,,,,,243.3939,243.5919,243.5919,244.0921,,,,,,,,,,,,,,1.1893,1,,,,,,,,,,,,,,m,,,,,,,,,,,,,,,23,0,244.0926,245.2922,m,1,1.1893,,[],[],[],[],[],[],[],245.2922,247.292,247.2921,247.2923,[],[],[],[],[],[],[],,247.2924,247.2925,-0.318142361,-0.323632812,0,0,0,,0,22,22,80,1,4,word,ACADEMY,print,academy_p.png,,,,,
,,,,32164,001,2025-11-20_12h00.35.945,HW_LDT_1,2024.2.4,MacIntel,59.52380952,,,,,,,,,,,,,,,,,,,,247.2937,247.4921,247.4921,247.992,,,,,,,,,,,,,,6.4036,1,,,,,,,,,,,,,,m,,,,,,,,,,,,,,,24,0,247.9926,254.4081,m,1,6.4036,,[],[],[],[],[],[],[],254.4081,256.4092,256.4093,256.4096,[],[],[],[],[],[],[],,256.4096,256.4097,-0.318142361,-0.323632812,0,0,0,,0,23,23,106,1,4,word,ELABORATE,cursive,elaborate_c.png,,,,,
,,,,32164,001,2025-11-20_12h00.35.945,HW_LDT_1,2024.2.4,MacIntel,59.52380952,,,,,,,,,,,,,,,,,,,,256.4109,256.6082,256.6083,257.1091,,,,,,,,,,,,,,1.1702,1,,,,,,,,,,,,,,m,,,,,,,,,,,,,,,25,0,257.1098,258.2925,m,1,1.1702,,[],[],[],[],[],[],[],258.2925,260.2926,260.2927,260.293,[],[],[],[],[],[],[],,260.2931,260.2931,-0.318142361,-0.323632812,0,0,0,,0,24,24,123,1,4,word,MODERATE,print,moderate_p.png,,,,,
,,,,32164,001,2025-11-20_12h00.35.945,HW_LDT_1,2024.2.4,MacIntel,59.52380952,,,,,,,,,,,,,,,,,,,,260.2942,260.4926,260.4926,260.9917,,,,,,,,,,,,,,6.1908,1,,,,,,,,,,,,,,z,,,,,,,,,,,,,,,26,0,260.9923,267.1929,z,1,6.1908,,[],[],[],[],[],[],[],267.193,269.1921,269.1921,269.1923,[],[],[],[],[],[],[],,269.1924,269.1925,-0.318142361,-0.323632812,0,0,0,,0,25,25,1,1,4,RL,afaneur,cursive,afaneur_c.png,,,,,
,,,,32164,001,2025-11-20_12h00.35.945,HW_LDT_1,2024.2.4,MacIntel,59.52380952,,,,,,,,,,,,,,,,,,,,269.1936,269.3929,269.393,269.8929,,,,,,,,,,,,,,2.3738,1,,,,,,,,,,,,,,m,,,,,,,,,,,,,,,27,1,269.8935,272.2764,m,1,2.3738,,[],[],[],[],[],[],[],272.2765,274.2764,274.2766,277.0432,[],[],[],[],[],[],[],z,277.0433,277.0433,-0.318142361,-0.323632812,0,0,0,,0,26,26,101,1,4,word,DELICATE,cursive,delicate_c.png,2.7655,,,,
,,,,32164,001,2025-11-20_12h00.35.945,HW_LDT_1,2024.2.4,MacIntel,59.52380952,,,,,,,,,,,,,,,,,,,,277.0443,277.2433,277.2433,277.7432,,,,,,,,,,,,,,1.8066,1,,,,,,,,,,,,,,m,,,,,,,,,,,,,,,28,0,277.7438,279.5601,m,1,1.8066,,[],[],[],[],[],[],[],279.5602,281.5601,281.5602,281.5604,[],[],[],[],[],[],[],,281.5604,281.5604,-0.318142361,-0.323632812,0,0,0,,0,27,27,139,1,4,word,REGULAR,cursive,regular_c.png,,,,,
,,,,32164,001,2025-11-20_12h00.35.945,HW_LDT_1,2024.2.4,MacIntel,59.52380952,,,,,,,,,,,,,,,,,,,,281.5615,281.7602,281.7602,282.2601,,,,,,,,,,,,,,1.407,1,,,,,,,,,,,,,,m,,,,,,,,,,,,,,,29,1,282.2607,283.6758,m,1,1.407,,[],[],[],[],[],[],[],283.676,285.6768,285.677,290.2271,[],[],[],[],[],[],[],z,290.2271,290.2273,-0.318142361,-0.323632812,0,0,0,,0,28,28,141,1,4,word,RELIGION,print,religion_p.png,4.538,,,,
,,,,32164,001,2025-11-20_12h00.35.945,HW_LDT_1,2024.2.4,MacIntel,59.52380952,,,,,,,,,,,,,,,,,,,,290.2286,290.4271,290.4272,290.927,,,,,,,,,,,,,,1.1533,1,,,,,,,,,,,,,,m,,,,,,,,,,,,,,,30,0,290.9278,292.0939,m,1,1.1533,,[],[],[],[],[],[],[],292.0941,294.0938,294.0939,294.0942,[],[],[],[],[],[],[],,294.0942,294.0943,-0.318142361,-0.323632812,0,0,0,,0,29,29,90,1,4,word,CAPITAL,print,capital_p.png,,,,,
,,,,32164,001,2025-11-20_12h00.35.945,HW_LDT_1,2024.2.4,MacIntel,59.52380952,,,,,,,,,,,,,,,,,,,,294.0956,294.2939,294.2939,294.7938,,,,,,,,,,,,,,9.6708,1,,,,,,,,,,,,,,z,,,,,,,,,,,,,,,31,0,294.7944,304.4776,z,1,9.6708,,[],[],[],[],[],[],[],304.4776,306.477,306.4771,306.4772,[],[],[],[],[],[],[],,306.4772,306.4774,-0.318142361,-0.323632812,0,0,0,,0,30,30,8,1,4,RL,casagity,cursive,casagity_c.png,,,,,
,,,,32164,001,2025-11-20_12h00.35.945,HW_LDT_1,2024.2.4,MacIntel,59.52380952,,,,,,,,,,,,,,,,,,,,306.4787,306.6776,306.6777,307.1776,,,,,,,,,,,,,,2.7904,1,,,,,,,,,,,,,,m,,,,,,,,,,,,,,,32,0,307.1783,309.9777,m,1,2.7904,,[],[],[],[],[],[],[],309.9778,311.9778,311.9779,311.9782,[],[],[],[],[],[],[],,311.9783,311.9784,-0.318142361,-0.323632812,0,0,0,,0,31,31,116,1,4,word,MARGINAL,cursive,marginal_c.png,,,,,
,,,,32164,001,2025-11-20_12h00.35.945,HW_LDT_1,2024.2.4,MacIntel,59.52380952,,,,,,,,,,,,,,,,,,,,311.9796,312.1778,312.1778,312.6779,,,,,,,,,,,,,,1.5143,1,,,,,,,,,,,,,,m,,,,,,,,,,,,,,,33,0,312.6784,314.1945,m,1,1.5143,,[],[],[],[],[],[],[],314.1945,316.1943,316.1943,316.1943,[],[],[],[],[],[],[],,316.1944,316.1944,-0.318142361,-0.323632812,0,0,0,,0,32,32,158,1,4,word,VELOCITY,cursive,velocity_c.png,,,,,
,,,,32164,001,2025-11-20_12h00.35.945,HW_LDT_1,2024.2.4,MacIntel,59.52380952,,,,,,,,,,,,,,,,,,,,316.1948,316.3946,316.3947,316.8947,,,,,,,,,,,,,,1.3283,1,,,,,,,,,,,,,,m,,,,,,,,,,,,,,,34,0,316.8953,318.2277,m,1,1.3283,,[],[],[],[],[],[],[],318.2278,320.2277,320.2277,320.2277,[],[],[],[],[],[],[],,320.2277,320.2278,-0.318142361,-0.323632812,0,0,0,,0,33,33,100,1,4,word,DECADE,cursive,decade_c.png,,,,,
,,,,32164,001,2025-11-20_12h00.35.945,HW_LDT_1,2024.2.4,MacIntel,59.52380952,,,,,,,,,,,,,,,,,,,,320.2281,320.4278,320.4278,320.9278,,,,,,,,,,,,,,1.7207,1,,,,,,,,,,,,,,z,,,,,,,,,,,,,,,35,0,320.928,322.6617,z,1,1.7207,,[],[],[],[],[],[],[],322.6617,324.6616,324.6617,324.6619,[],[],[],[],[],[],[],,324.662,324.6621,-0.318142361,-0.323632812,0,0,0,,0,34,34,40,1,4,RL,reconal,print,reconal_p.png,,,,,
,,,,32164,001,2025-11-20_12h00.35.945,HW_LDT_1,2024.2.4,MacIntel,59.52380952,,,,,,,,,,,,,,,,,,,,324.6632,324.8615,324.8616,325.3616,,,,,,,,,,,,,,8.2206,1,,,,,,,,,,,,,,z,,,,,,,,,,,,,,,36,0,325.3623,333.5954,z,1,8.2206,,[],[],[],[],[],[],[],333.5954,335.5953,335.5954,335.5956,[],[],[],[],[],[],[],,335.5958,335.5959,0.002078993,-0.027152778,0,0,0,,0,35,35,49,1,4,RL,vesofity,cursive,vesofity_c.png,,,,,
,,,,32164,001,2025-11-20_12h00.35.945,HW_LDT_1,2024.2.4,MacIntel,59.52380952,,,,,,,,,,,,,,,,,,,,335.5971,335.7953,335.7954,336.2953,,,,,,,,,,,,,,2.1366,1,,,,,,,,,,,,,,m,,,,,,,,,,,,,,,37,0,336.2959,338.4455,m,1,2.1366,,[],[],[],[],[],[],[],338.4457,340.4456,340.4456,340.4458,[],[],[],[],[],[],[],,340.4459,340.4459,0.002078993,-0.027152778,0,0,0,,0,36,36,89,1,4,word,CAPACITY,cursive,capacity_c.png,,,,,
,,,,32164,001,2025-11-20_12h00.35.945,HW_LDT_1,2024.2.4,MacIntel,59.52380952,,,,,,,,,,,,,,,,,,,,340.4471,340.6455,340.6456,341.1456,,,,,,,,,,,,,,0.9707,1,,,,,,,,,,,,,,m,,,,,,,,,,,,,,,38,0,341.1461,342.129,m,1,0.9707,,[],[],[],[],[],[],[],342.1291,344.129,344.1291,344.1293,[],[],[],[],[],[],[],,344.1294,344.1295,0.002078993,-0.027152778,0,0,0,,0,37,37,131,1,4,word,POPULAR,print,popular_p.png,,,,,
,,,,32164,001,2025-11-20_12h00.35.945,HW_LDT_1,2024.2.4,MacIntel,59.52380952,,,,,,,,,,,,,,,,,,,,344.1307,344.329,344.329,344.829,,,,,,,,,,,,,,10.1205,1,,,,,,,,,,,,,,z,,,,,,,,,,,,,,,39,0,344.8297,354.9628,z,1,10.1205,,[],[],[],[],[],[],[],354.963,356.9628,356.9628,356.9631,[],[],[],[],[],[],[],,356.9631,356.9632,0.010143229,-0.020950521,0,0,0,,0,38,38,24,1,4,RL,marmipal,cursive,marmipal_c.png,,,,,
,,,,32164,001,2025-11-20_12h00.35.945,HW_LDT_1,2024.2.4,MacIntel,59.52380952,,,,,,,,,,,,,,,,,,,,356.9645,357.1628,357.1629,357.6627,,,,,,,,,,,,,,1.9547,1,,,,,,,,,,,,,,m,,,,,,,,,,,,,,,40,0,357.6632,359.6297,m,1,1.9547,,[],[],[],[],[],[],[],359.6298,361.6294,361.6295,361.6297,[],[],[],[],[],[],[],,361.6297,361.6297,0.025703125,-0.022573785,0,0,0,,0,39,39,112,1,4,word,LIBERAL,cursive,liberal_c.png,,,,,
,,,,32164,001,2025-11-20_12h00.35.945,HW_LDT_1,2024.2.4,MacIntel,59.52380952,,,,,,,,,,,,,,,,,,,,361.6305,361.8298,361.8299,362.3297,,,,,,,,,,,,,,2.9205,1,,,,,,,,,,,,,,z,,,,,,,,,,,,,,,41,1,362.3303,365.2632,z,1,2.9205,,[],[],[],[],[],[],[],365.2634,367.2633,367.2633,368.7299,[],[],[],[],[],[],[],z,368.7299,368.73,0.031653646,-0.01578125,0,0,0,,0,40,40,22,1,4,RL,linedal,cursive,linedal_c.png,1.4546,,,,
,,,,32164,001,2025-11-20_12h00.35.945,HW_LDT_1,2024.2.4,MacIntel,59.52380952,,,,,,,,,,,,,,,,,,,,368.7311,368.9299,368.9299,369.4297,,,,,,,,,,,,,,4.521,1,,,,,,,,,,,,,,z,,,,,,,,,,,,,,,42,1,369.4301,373.9635,z,1,4.521,,[],[],[],[],[],[],[],373.9636,375.9636,375.9636,377.746,[],[],[],[],[],[],[],m,377.7461,377.7463,0.074097222,-0.062439236,0,0,0,,0,41,41,21,1,4,RL,insibate,print,insibate_p.png,1.7709,,,,
,,,,32164,001,2025-11-20_12h00.35.945,HW_LDT_1,2024.2.4,MacIntel,59.52380952,,,,,,,,,,,,,,,,,,,,377.7472,377.9469,377.947,378.447,,,,,,,,,,,,,,1.1203,1,,,,,,,,,,,,,,m,,,,,,,,,,,,,,,43,0,378.4474,379.5793,m,1,1.1203,,[],[],[],[],[],[],[],379.5794,381.5802,381.5804,381.5805,[],[],[],[],[],[],[],,381.5806,381.5807,0.074097222,-0.062439236,0,0,0,,0,42,42,121,1,4,word,MISTAKE,print,mistake_p.png,,,,,
,,,,32164,001,2025-11-20_12h00.35.945,HW_LDT_1,2024.2.4,MacIntel,59.52380952,,,,,,,,,,,,,,,,,,,,381.5818,381.7803,381.7804,382.2804,,,,,,,,,,,,,,1.3038,1,,,,,,,,,,,,,,m,,,,,,,,,,,,,,,44,0,382.281,383.5971,m,1,1.3038,,[],[],[],[],[],[],[],383.5972,385.596,385.5961,385.5962,[],[],[],[],[],[],[],,385.5962,385.5962,0.074097222,-0.062439236,0,0,0,,0,43,43,140,1,4,word,RELATIVE,print,relative_p.png,,,,,
,,,,32164,001,2025-11-20_12h00.35.945,HW_LDT_1,2024.2.4,MacIntel,59.52380952,,,,,,,,,,,,,,,,,,,,385.5973,385.797,385.797,386.2973,,,,,,,,,,,,,,1.5136,1,,,,,,,,,,,,,,z,,,,,,,,,,,,,,,45,0,386.2978,387.8138,z,1,1.5136,,[],[],[],[],[],[],[],387.8139,389.813,389.813,389.8133,[],[],[],[],[],[],[],,389.8133,389.8133,0.074097222,-0.062439236,0,0,0,,0,44,44,67,1,4,TL,polupar,print,polupar_p.png,,,,,
,,,,32164,001,2025-11-20_12h00.35.945,HW_LDT_1,2024.2.4,MacIntel,59.52380952,,,,,,,,,,,,,,,,,,,,389.8145,390.014,390.014,390.513,,,,,,,,,,,,,,3.4537,1,,,,,,,,,,,,,,z,,,,,,,,,,,,,,,46,0,390.5135,393.9799,z,1,3.4537,,[],[],[],[],[],[],[],393.9799,395.9808,395.9809,395.9811,[],[],[],[],[],[],[],,395.9812,395.9813,0.074097222,-0.062439236,0,0,0,,0,45,45,53,1,4,TL,cemerony,print,cemerony_p.png,,,,,
,,,,32164,001,2025-11-20_12h00.35.945,HW_LDT_1,2024.2.4,MacIntel,59.52380952,,,,,,,,,,,,,,,,,,,,395.9824,396.1808,396.1809,396.6808,,,,,,,,,,,,,,1.637,1,,,,,,,,,,,,,,z,,,,,,,,,,,,,,,47,0,396.6814,398.331,z,1,1.637,,[],[],[],[],[],[],[],398.3311,400.3311,400.3311,400.3313,[],[],[],[],[],[],[],,400.3313,400.3314,0.074097222,-0.062439236,0,0,0,,0,46,46,74,1,4,TL,rerite,print,rerite_p.png,,,,,
,,,,32164,001,2025-11-20_12h00.35.945,HW_LDT_1,2024.2.4,MacIntel,59.52380952,,,,,,,,,,,,,,,,,,,,400.3329,400.531,400.531,401.031,,,,,,,,,,,,,,4.7981,1,,,,,,,,,,,,,,z,,,,,,,,,,,,,,,48,0,401.0316,405.8311,z,1,4.7981,,[],[],[],[],[],[],[],405.8311,407.8307,407.8307,407.8309,[],[],[],[],[],[],[],,407.831,407.8311,0.074097222,-0.062439236,0,0,0,,0,47,47,14,1,4,RL,delahe,cursive,delahe_c.png,,,,,
,,,,32164,001,2025-11-20_12h00.35.945,HW_LDT_1,2024.2.4,MacIntel,59.52380952,,,,,,,,,,,,,,,,,,,,407.8323,408.0313,408.0313,408.5312,,,,,,,,,,,,,,1.7707,1,,,,,,,,,,,,,,m,,,,,,,,,,,,,,,49,0,408.5317,410.3138,m,1,1.7707,,[],[],[],[],[],[],[],410.3138,412.3148,412.315,412.3151,[],[],[],[],[],[],[],,412.3152,412.3153,0.074097222,-0.062439236,0,0,0,,0,48,48,126,1,4,word,OPTIMAL,print,optimal_p.png,,,,,
,,,,32164,001,2025-11-20_12h00.35.945,HW_LDT_1,2024.2.4,MacIntel,59.52380952,,,,,,,,,,,,,,,,,,,,412.3165,412.5148,412.5148,413.0148,,,,,,,,,,,,,,4.657,1,,,,,,,,,,,,,,z,,,,,,,,,,,,,,,50,0,413.0153,417.6817,z,1,4.657,,[],[],[],[],[],[],[],417.6818,419.6807,419.6807,419.6809,[],[],[],[],[],[],[],,419.6809,419.6811,0.074097222,-0.062439236,0,0,0,,0,49,49,33,1,4,RL,pamest,cursive,pamest_c.png,,,,,
,,,,32164,001,2025-11-20_12h00.35.945,HW_LDT_1,2024.2.4,MacIntel,59.52380952,,,,,,,,,,,,,,,,,,,,419.6824,419.8817,419.8817,420.3817,,,,,,,,,,,,,,10.0542,1,,,,,,,,,,,,,,z,,,,,,,,,,,,,,,51,0,420.3821,430.449,z,1,10.0542,,[],[],[],[],[],[],[],430.4492,432.4489,432.449,432.4492,[],[],[],[],[],[],[],,432.4493,432.4493,0.064249132,-0.047265625,0,0,0,,0,50,50,34,1,4,RL,posity,cursive,posity_c.png,,,,,
,,,,32164,001,2025-11-20_12h00.35.945,HW_LDT_1,2024.2.4,MacIntel,59.52380952,,,,,,,,,,,,,,,,,,,,432.4505,432.649,432.649,433.1489,,,,,,,,,,,,,,1.521,1,,,,,,,,,,,,,,z,,,,,,,,,,,,,,,52,0,433.1494,434.6824,z,1,1.521,,[],[],[],[],[],[],[],434.6825,436.6813,436.6814,436.6815,[],[],[],[],[],[],[],,436.6816,436.6817,0.064249132,-0.047265625,0,0,0,,0,51,51,38,1,4,RL,refakive,print,refakive_p.png,,,,,
,,,,32164,001,2025-11-20_12h00.35.945,HW_LDT_1,2024.2.4,MacIntel,59.52380952,,,,,,,,,,,,,,,,,,,,436.6827,436.8825,436.8825,437.3824,,,,,,,,,,,,,,1.4706,1,,,,,,,,,,,,,,z,,,,,,,,,,,,,,,53,0,437.383,438.8656,z,1,1.4706,,[],[],[],[],[],[],[],438.8658,440.8658,440.8658,440.866,[],[],[],[],[],[],[],,440.8661,440.8662,0.064249132,-0.047265625,0,0,0,,0,52,52,75,1,4,TL,sanile,print,sanile_p.png,,,,,
,,,,32164,001,2025-11-20_12h00.35.945,HW_LDT_1,2024.2.4,MacIntel,59.52380952,,,,,,,,,,,,,,,,,,,,440.8674,441.0659,441.0659,441.5658,,,,,,,,,,,,,,6.6359,0,,,,,,,,,,,,,,m,,,,,,,,,,,,,,,54,0,441.5663,448.2162,z,0,6.6359,,[],[],[],[],[],[],[],448.2163,450.2153,450.2153,450.2155,[],[],[],[],[],[],[],,450.2156,450.2157,0.064249132,-0.047265625,0,0,0,,0,53,53,129,1,4,word,PARENT,cursive,parent_c.png,,,,,
,,,,32164,001,2025-11-20_12h00.35.945,HW_LDT_1,2024.2.4,MacIntel,59.52380952,,,,,,,,,,,,,,,,,,,,450.2171,450.4161,450.4161,450.9156,,,,,,,,,,,,,,1.8331,1,,,,,,,,,,,,,,m,,,,,,,,,,,,,,,55,0,450.9161,452.75,m,1,1.8331,,[],[],[],[],[],[],[],452.75,454.7488,454.7488,454.7489,[],[],[],[],[],[],[],,454.749,454.7491,0.064249132,-0.047265625,0,0,0,,0,54,54,83,1,4,word,ANIMAL,cursive,animal_c.png,,,,,
,,,,32164,001,2025-11-20_12h00.35.945,HW_LDT_1,2024.2.4,MacIntel,59.52380952,,,,,,,,,,,,,,,,,,,,454.7503,454.9497,454.9497,455.4497,,,,,,,,,,,,,,1.554,1,,,,,,,,,,,,,,z,,,,,,,,,,,,,,,56,1,455.4503,457.0155,z,1,1.554,,[],[],[],[],[],[],[],457.0156,459.0166,459.0166,463.3662,[],[],[],[],[],[],[],m,463.3663,463.3664,0.064249132,-0.047265625,0,0,0,,0,55,55,27,1,4,RL,menowy,print,menowy_p.png,4.3383,,,,
,,,,32164,001,2025-11-20_12h00.35.945,HW_LDT_1,2024.2.4,MacIntel,59.52380952,,,,,,,,,,,,,,,,,,,,463.3674,463.5665,463.5665,464.0666,,,,,,,,,,,,,,1.8068,1,,,,,,,,,,,,,,z,,,,,,,,,,,,,,,57,0,464.0671,465.8834,z,1,1.8068,,[],[],[],[],[],[],[],465.8836,467.8835,467.8836,467.8838,[],[],[],[],[],[],[],,467.8838,467.8839,0.064249132,-0.047265625,0,0,0,,0,56,56,42,1,4,RL,revune,print,revune_p.png,,,,,
,,,,32164,001,2025-11-20_12h00.35.945,HW_LDT_1,2024.2.4,MacIntel,59.52380952,,,,,,,,,,,,,,,,,,,,467.8853,468.0835,468.0836,468.5835,,,,,,,,,,,,,,1.2651,1,,,,,,,,,,,,,,m,,,,,,,,,,,,,,,58,0,468.5841,469.8502,m,1,1.2651,,[],[],[],[],[],[],[],469.8503,471.8504,471.8504,471.8505,[],[],[],[],[],[],[],,471.8506,471.8507,0.064249132,-0.047265625,0,0,0,,0,57,57,119,1,4,word,MEMORY,print,memory_p.png,,,,,
,,,,32164,001,2025-11-20_12h00.35.945,HW_LDT_1,2024.2.4,MacIntel,59.52380952,,,,,,,,,,,,,,,,,,,,471.8518,472.0504,472.0504,472.5495,,,,,,,,,,,,,,2.1889,1,,,,,,,,,,,,,,z,,,,,,,,,,,,,,,59,1,472.55,474.7505,z,1,2.1889,,[],[],[],[],[],[],[],474.7506,476.7505,476.7506,478.5504,[],[],[],[],[],[],[],m,478.5505,478.5505,0.064249132,-0.047265625,0,0,0,,0,58,58,7,1,4,RL,casena,print,casena_p.png,1.7984,,,,
,,,,32164,001,2025-11-20_12h00.35.945,HW_LDT_1,2024.2.4,MacIntel,59.52380952,,,,,,,,,,,,,,,,,,,,478.5516,478.7505,478.7506,479.2505,,,,,,,,,,,,,,11.7079,1,,,,,,,,,,,,,,m,,,,,,,,,,,,,,,60,1,479.2509,490.9677,m,1,11.7079,,[],[],[],[],[],[],[],490.9678,492.9668,492.9669,497.0181,[],[],[],[],[],[],[],z,497.0181,497.0182,-0.14297309,-0.209544271,0,0,0,,0,59,59,132,1,4,word,PROPOSAL,print,proposal_p.png,4.0388,,,,
,,,,32164,001,2025-11-20_12h00.35.945,HW_LDT_1,2024.2.4,MacIntel,59.52380952,,,,,,,,,,,,,,,,,,,,497.0197,497.2179,497.218,497.7178,,,,,,,,,,,,,,1.1704,1,,,,,,,,,,,,,,m,,,,,,,,,,,,,,,61,0,497.7183,498.9014,m,1,1.1704,,[],[],[],[],[],[],[],498.9015,500.9014,500.9015,500.9018,[],[],[],[],[],[],[],,500.9019,500.9021,-0.14297309,-0.209544271,0,0,0,,0,60,60,107,1,4,word,EVIDENT,print,evident_p.png,,,,,
,,,,32164,001,2025-11-20_12h00.35.945,HW_LDT_1,2024.2.4,MacIntel,59.52380952,,,,,,,,,,,,,,,,,,,,500.9031,501.1008,501.1008,501.6013,,,,,,,,,,,,,,2.0303,1,,,,,,,,,,,,,,m,,,,,,,,,,,,,,,62,1,501.6019,503.6346,m,1,2.0303,,[],[],[],[],[],[],[],503.6347,505.6348,505.6349,507.2515,[],[],[],[],[],[],[],z,507.2516,507.2517,-0.14297309,-0.209544271,0,0,0,,0,61,61,142,1,4,word,REMOTE,cursive,remote_c.png,1.6036,,,,
,,,,32164,001,2025-11-20_12h00.35.945,HW_LDT_1,2024.2.4,MacIntel,59.52380952,,,,,,,,,,,,,,,,,,,,507.2527,507.4506,507.4506,507.9517,,,,,,,,,,,,,,10.4549,1,,,,,,,,,,,,,,z,,,,,,,,,,,,,,,63,0,507.9522,518.4188,z,1,10.4549,,[],[],[],[],[],[],[],518.4188,520.4179,520.4179,520.418,[],[],[],[],[],[],[],,520.418,520.418,-0.007947049,-0.007543403,0,0,0,,0,62,62,10,1,4,RL,carminal,cursive,carminal_c.png,,,,,
,,,,32164,001,2025-11-20_12h00.35.945,HW_LDT_1,2024.2.4,MacIntel,59.52380952,,,,,,,,,,,,,,,,,,,,520.4193,520.6187,520.6187,521.1188,,,,,,,,,,,,,,5.3541,1,,,,,,,,,,,,,,z,,,,,,,,,,,,,,,64,0,521.1194,526.4858,z,1,5.3541,,[],[],[],[],[],[],[],526.4859,528.4858,528.4858,528.486,[],[],[],[],[],[],[],,528.486,528.4862,0.025811632,-0.026588542,0,0,0,,0,63,63,35,1,4,RL,probice,cursive,probice_c.png,,,,,
,,,,32164,001,2025-11-20_12h00.35.945,HW_LDT_1,2024.2.4,MacIntel,59.52380952,,,,,,,,,,,,,,,,,,,,528.4874,528.6857,528.6859,529.1857,,,,,,,,,,,,,,1.3204,1,,,,,,,,,,,,,,m,,,,,,,,,,,,,,,65,0,529.1863,530.5193,m,1,1.3204,,[],[],[],[],[],[],[],530.5195,532.5193,532.5193,532.5196,[],[],[],[],[],[],[],,532.5197,532.5198,0.025811632,-0.026588542,0,0,0,,0,64,64,105,1,4,word,EDITOR,print,editor_p.png,,,,,
,,,,32164,001,2025-11-20_12h00.35.945,HW_LDT_1,2024.2.4,MacIntel,59.52380952,,,,,,,,,,,,,,,,,,,,532.5215,532.7192,532.7193,533.2191,,,,,,,,,,,,,,4.2068,1,,,,,,,,,,,,,,m,,,,,,,,,,,,,,,66,0,533.2198,537.4361,m,1,4.2068,,[],[],[],[],[],[],[],537.4362,539.4355,539.4356,539.4358,[],[],[],[],[],[],[],,539.4358,539.436,0.048802083,-0.320190972,0,0,0,,0,65,65,96,1,4,word,CONSIDER,cursive,consider_c.png,,,,,
,,,,32164,001,2025-11-20_12h00.35.945,HW_LDT_1,2024.2.4,MacIntel,59.52380952,,,,,,,,,,,,,,,,,,,,539.4371,539.6355,539.6356,540.1362,,,,,,,,,,,,,,10.2706,1,,,,,,,,,,,,,,z,,,,,,,,,,,,,,,67,0,540.1367,550.4199,z,1,10.2706,,[],[],[],[],[],[],[],550.42,552.4199,552.4199,552.4201,[],[],[],[],[],[],[],,552.4202,552.4204,-0.039240451,-0.09625,0,0,0,,0,66,66,13,1,4,RL,crisival,cursive,crisival_c.png,,,,,
,,,,32164,001,2025-11-20_12h00.35.945,HW_LDT_1,2024.2.4,MacIntel,59.52380952,,,,,,,,,,,,,,,,,,,,552.4216,552.62,552.6201,553.12,,,,,,,,,,,,,,1.9051,1,,,,,,,,,,,,,,m,,,,,,,,,,,,,,,68,1,553.1206,555.0367,m,1,1.9051,,[],[],[],[],[],[],[],555.0368,557.0367,557.0368,558.3036,[],[],[],[],[],[],[],z,558.3036,558.3037,-0.02108941,-0.083424479,0,0,0,,0,67,67,82,1,4,word,AMATEUR,cursive,amateur_c.png,1.2557,,,,
,,,,32164,001,2025-11-20_12h00.35.945,HW_LDT_1,2024.2.4,MacIntel,59.52380952,,,,,,,,,,,,,,,,,,,,558.305,558.5034,558.5035,559.0035,,,,,,,,,,,,,,1.3054,1,,,,,,,,,,,,,,z,,,,,,,,,,,,,,,69,0,559.0041,560.3202,z,1,1.3054,,[],[],[],[],[],[],[],560.3202,562.3204,562.3204,562.3206,[],[],[],[],[],[],[],,562.3207,562.3208,-0.02108941,-0.083424479,0,0,0,,0,68,68,5,1,4,RL,bebine,print,bebine_p.png,,,,,
,,,,32164,001,2025-11-20_12h00.35.945,HW_LDT_1,2024.2.4,MacIntel,59.52380952,,,,,,,,,,,,,,,,,,,,562.3219,562.5203,562.5203,563.0203,,,,,,,,,,,,,,1.1203,1,,,,,,,,,,,,,,m,,,,,,,,,,,,,,,70,0,563.021,564.1537,m,1,1.1203,,[],[],[],[],[],[],[],564.1538,566.1537,566.1538,566.1539,[],[],[],[],[],[],[],,566.154,566.1542,-0.02108941,-0.083424479,0,0,0,,0,69,69,117,1,4,word,MARINE,print,marine_p.png,,,,,
,,,,32164,001,2025-11-20_12h00.35.945,HW_LDT_1,2024.2.4,MacIntel,59.52380952,,,,,,,,,,,,,,,,,,,,566.1552,566.3538,566.3538,566.8538,,,,,,,,,,,,,,1.0535,1,,,,,,,,,,,,,,m,,,,,,,,,,,,,,,71,0,566.8544,567.9205,m,1,1.0535,,[],[],[],[],[],[],[],567.9205,569.9205,569.9206,569.9208,[],[],[],[],[],[],[],,569.921,569.9211,-0.02108941,-0.083424479,0,0,0,,0,70,70,88,1,4,word,CAMERA,print,camera_p.png,,,,,
,,,,32164,001,2025-11-20_12h00.35.945,HW_LDT_1,2024.2.4,MacIntel,59.52380952,,,,,,,,,,,,,,,,,,,,569.9223,570.1206,570.1206,570.6207,,,,,,,,,,,,,,1.2134,0,,,,,,,,,,,,,,z,,,,,,,,,,,,,,,72,0,570.6212,571.8372,m,0,1.2134,,[],[],[],[],[],[],[],571.8373,573.8374,573.8374,573.8377,[],[],[],[],[],[],[],,573.8377,573.8379,-0.02108941,-0.083424479,0,0,0,,0,71,71,66,1,4,TL,opmital,print,opmital_p.png,,,,,
,,,,32164,001,2025-11-20_12h00.35.945,HW_LDT_1,2024.2.4,MacIntel,59.52380952,,,,,,,,,,,,,,,,,,,,573.8389,574.0375,574.0375,574.5373,,,,,,,,,,,,,,6.0986,1,,,,,,,,,,,,,,z,,,,,,,,,,,,,,,73,1,574.5379,580.6376,z,1,6.0986,,[],[],[],[],[],[],[],580.6376,582.6377,582.6378,584.6379,[],[],[],[],[],[],[],z,584.6379,584.638,-0.019114583,-0.02000434,0,0,0,,0,72,72,2,1,4,RL,asiral,cursive,asiral_c.png,1.988,,,,
,,,,32164,001,2025-11-20_12h00.35.945,HW_LDT_1,2024.2.4,MacIntel,59.52380952,,,,,,,,,,,,,,,,,,,,584.6392,584.8378,584.8378,585.3378,,,,,,,,,,,,,,7.4901,0,,,,,,,,,,,,,,z,,,,,,,,,,,,,,,74,0,585.3383,592.8383,m,0,7.4901,,[],[],[],[],[],[],[],592.8384,594.8382,594.8382,594.8384,[],[],[],[],[],[],[],,594.8385,594.8386,-0.019114583,-0.02000434,0,0,0,,0,73,73,50,1,4,RL,vecelan,cursive,vecelan_c.png,,,,,
,,,,32164,001,2025-11-20_12h00.35.945,HW_LDT_1,2024.2.4,MacIntel,59.52380952,,,,,,,,,,,,,,,,,,,,594.8396,595.0381,595.0381,595.5382,,,,,,,,,,,,,,7.9864,1,,,,,,,,,,,,,,m,,,,,,,,,,,,,,,75,0,595.5387,603.5386,m,1,7.9864,,[],[],[],[],[],[],[],603.5387,605.5385,605.5386,605.5387,[],[],[],[],[],[],[],,605.5388,605.539,0.156640625,-0.101115451,0,0,0,,0,74,74,97,1,4,word,COVERAGE,cursive,coverage_c.png,,,,,
,,,,32164,001,2025-11-20_12h00.35.945,HW_LDT_1,2024.2.4,MacIntel,59.52380952,,,,,,,,,,,,,,,,,,,,605.5403,605.7385,605.7386,606.2385,,,,,,,,,,,,,,1.2368,1,,,,,,,,,,,,,,m,,,,,,,,,,,,,,,76,0,606.2392,607.4877,m,1,1.2368,,[],[],[],[],[],[],[],607.4877,609.4888,609.4888,609.489,[],[],[],[],[],[],[],,609.489,609.4891,0.156640625,-0.101115451,0,0,0,,0,75,75,111,1,4,word,INDICATE,print,indicate_p.png,,,,,
,,,,32164,001,2025-11-20_12h00.35.945,HW_LDT_1,2024.2.4,MacIntel,59.52380952,,,,,,,,,,,,,,,,,,,,609.4903,609.6887,609.6887,610.1887,,,,,,,,,,,,,,1.3816,1,,,,,,,,,,,,,,m,,,,,,,,,,,,,,,77,0,610.1892,611.5721,m,1,1.3816,,[],[],[],[],[],[],[],611.5721,613.5722,613.5722,613.5725,[],[],[],[],[],[],[],,613.5725,613.5728,0.156640625,-0.101115451,0,0,0,,0,76,76,146,1,4,word,RETIRE,print,retire_p.png,,,,,
,,,,32164,001,2025-11-20_12h00.35.945,HW_LDT_1,2024.2.4,MacIntel,59.52380952,,,,,,,,,,,,,,,,,,,,613.5739,613.7712,613.7712,614.2711,,,,,,,,,,,,,,1.1718,1,,,,,,,,,,,,,,m,,,,,,,,,,,,,,,78,1,614.2716,615.4557,m,1,1.1718,,[],[],[],[],[],[],[],615.4558,617.4556,617.4558,620.8558,[],[],[],[],[],[],[],m,620.8559,620.8561,0.156640625,-0.101115451,0,0,0,,0,77,77,110,1,4,word,HERITAGE,print,heritage_p.png,3.388,,,,
,,,,32164,001,2025-11-20_12h00.35.945,HW_LDT_1,2024.2.4,MacIntel,59.52380952,,,,,,,,,,,,,,,,,,,,620.8572,621.0559,621.0559,621.5559,,,,,,,,,,,,,,1.019,1,,,,,,,,,,,,,,m,,,,,,,,,,,,,,,79,0,621.5565,622.5882,m,1,1.019,,[],[],[],[],[],[],[],622.5884,624.5883,624.5883,624.5884,[],[],[],[],[],[],[],,624.5885,624.5886,0.156640625,-0.101115451,0,0,0,,0,78,78,155,1,4,word,STRATEGY,print,strategy_p.png,,,,,
,,,,32164,001,2025-11-20_12h00.35.945,HW_LDT_1,2024.2.4,MacIntel,59.52380952,,,,,,,,,,,,,,,,,,,,624.5899,624.7882,624.7883,625.2893,,,,,,,,,,,,,,1.4154,1,,,,,,,,,,,,,,m,,,,,,,,,,,,,,,80,0,625.2899,626.7062,m,1,1.4154,,[],[],[],[],[],[],[],626.7062,628.706,628.7061,628.7064,[],[],[],[],[],[],[],,628.7064,693.4922,0.024583333,-0.391080729,1,0,0,,0,79,79,144,1,4,word,RESIDENT,cursive,resident_c.png,,,break_done_button,,
,,,,32164,001,2025-11-20_12h00.35.945,HW_LDT_1,2024.2.4,MacIntel,59.52380952,,,,,,,,,,,,,,,,,,,,693.4931,693.6916,693.6917,694.1918,,,,,,,,,,,,,,3.7154,1,,,,,,,,,,,,,,m,,,,,,,,,,,,,,,81,0,694.1924,697.9085,m,1,3.7154,,[],[],[],[],[],[],[],697.9086,699.9087,699.9088,699.909,[],[],[],[],[],[],[],,699.909,699.9091,0.024027778,-0.39140191,0,0,0,,0,80,80,128,1,4,word,PACIFIC,cursive,pacific_c.png,,,,,
,,,,32164,001,2025-11-20_12h00.35.945,HW_LDT_1,2024.2.4,MacIntel,59.52380952,,,,,,,,,,,,,,,,,,,,699.9104,700.1087,700.1088,700.6085,,,,,,,,,,,,,,2.6878,1,,,,,,,,,,,,,,m,,,,,,,,,,,,,,,82,0,700.6091,703.3089,m,1,2.6878,,[],[],[],[],[],[],[],703.3089,705.3088,705.3088,705.309,[],[],[],[],[],[],[],,705.3091,705.3093,0.024027778,-0.39140191,0,0,0,,0,81,81,102,1,4,word,DENSITY,cursive,density_c.png,,,,,
,,,,32164,001,2025-11-20_12h00.35.945,HW_LDT_1,2024.2.4,MacIntel,59.52380952,,,,,,,,,,,,,,,,,,,,705.3104,705.508,705.508,706.0088,,,,,,,,,,,,,,4.0377,1,,,,,,,,,,,,,,m,,,,,,,,,,,,,,,83,0,706.0093,710.0591,m,1,4.0377,,[],[],[],[],[],[],[],710.0593,712.0582,712.0583,712.0585,[],[],[],[],[],[],[],,712.0585,712.0586,0.024027778,-0.39140191,0,0,0,,0,82,82,114,1,4,word,LOCATE,cursive,locate_c.png,,,,,
,,,,32164,001,2025-11-20_12h00.35.945,HW_LDT_1,2024.2.4,MacIntel,59.52380952,,,,,,,,,,,,,,,,,,,,712.0599,712.2588,712.2588,712.7582,,,,,,,,,,,,,,2.1368,1,,,,,,,,,,,,,,z,,,,,,,,,,,,,,,84,0,712.7587,714.9091,z,1,2.1368,,[],[],[],[],[],[],[],714.9092,716.9092,716.9094,716.9095,[],[],[],[],[],[],[],,716.9096,716.9097,0.024027778,-0.39140191,0,0,0,,0,83,83,72,1,4,TL,relugar,cursive,relugar_c.png,,,,,
,,,,32164,001,2025-11-20_12h00.35.945,HW_LDT_1,2024.2.4,MacIntel,59.52380952,,,,,,,,,,,,,,,,,,,,716.9109,717.1084,717.1084,717.6092,,,,,,,,,,,,,,1.4704,1,,,,,,,,,,,,,,m,,,,,,,,,,,,,,,85,1,717.6099,719.0918,m,1,1.4704,,[],[],[],[],[],[],[],719.0919,721.0928,721.0928,722.7253,[],[],[],[],[],[],[],m,722.7254,722.7255,0.024027778,-0.39140191,0,0,0,,0,84,84,93,1,4,word,CEREMONY,print,ceremony_p.png,1.6212,,,,
,,,,32164,001,2025-11-20_12h00.35.945,HW_LDT_1,2024.2.4,MacIntel,59.52380952,,,,,,,,,,,,,,,,,,,,722.7268,722.9262,722.9263,723.4252,,,,,,,,,,,,,,2.1716,1,,,,,,,,,,,,,,z,,,,,,,,,,,,,,,86,0,723.4259,725.6088,z,1,2.1716,,[],[],[],[],[],[],[],725.6089,727.6096,727.6096,727.6099,[],[],[],[],[],[],[],,727.6099,727.61,0.024027778,-0.39140191,0,0,0,,0,85,85,63,1,4,TL,miskate,print,miskate_p.png,,,,,
,,,,32164,001,2025-11-20_12h00.35.945,HW_LDT_1,2024.2.4,MacIntel,59.52380952,,,,,,,,,,,,,,,,,,,,727.6112,727.8087,727.8087,728.3097,,,,,,,,,,,,,,3.1534,1,,,,,,,,,,,,,,m,,,,,,,,,,,,,,,87,0,728.3102,731.4759,m,1,3.1534,,[],[],[],[],[],[],[],731.476,733.4766,733.4767,733.4768,[],[],[],[],[],[],[],,733.4768,733.477,0.024027778,-0.39140191,0,0,0,,0,86,86,104,1,4,word,DOMINANT,cursive,dominant_c.png,,,,,
,,,,32164,001,2025-11-20_12h00.35.945,HW_LDT_1,2024.2.4,MacIntel,59.52380952,,,,,,,,,,,,,,,,,,,,733.478,733.6767,733.6767,734.1765,,,,,,,,,,,,,,5.0982,1,,,,,,,,,,,,,,z,,,,,,,,,,,,,,,88,0,734.1771,739.2768,z,1,5.0982,,[],[],[],[],[],[],[],739.2769,741.2768,741.2769,741.2771,[],[],[],[],[],[],[],,741.2771,741.2773,0.024027778,-0.39140191,0,0,0,,0,87,87,46,1,4,RL,skofen,cursive,skofen_c.png,,,,,
,,,,32164,001,2025-11-20_12h00.35.945,HW_LDT_1,2024.2.4,MacIntel,59.52380952,,,,,,,,,,,,,,,,,,,,741.2784,741.4759,741.476,741.9769,,,,,,,,,,,,,,1.271,1,,,,,,,,,,,,,,m,,,,,,,,,,,,,,,89,0,741.9774,743.2603,m,1,1.271,,[],[],[],[],[],[],[],743.2603,745.2603,745.2603,745.2606,[],[],[],[],[],[],[],,745.2606,745.2607,0.024027778,-0.39140191,0,0,0,,0,88,88,94,1,4,word,CLINICAL,print,clinical_p.png,,,,,
,,,,32164,001,2025-11-20_12h00.35.945,HW_LDT_1,2024.2.4,MacIntel,59.52380952,,,,,,,,,,,,,,,,,,,,745.2619,745.4603,745.4603,745.9604,,,,,,,,,,,,,,1.4717,1,,,,,,,,,,,,,,m,,,,,,,,,,,,,,,90,0,745.961,747.4438,m,1,1.4717,,[],[],[],[],[],[],[],747.4439,749.4438,749.4438,749.4441,[],[],[],[],[],[],[],,749.4441,749.4442,0.024027778,-0.39140191,0,0,0,,0,89,89,120,1,4,word,MILITARY,print,military_p.png,,,,,
,,,,32164,001,2025-11-20_12h00.35.945,HW_LDT_1,2024.2.4,MacIntel,59.52380952,,,,,,,,,,,,,,,,,,,,749.4453,749.6438,749.6438,750.1439,,,,,,,,,,,,,,1.7869,1,,,,,,,,,,,,,,z,,,,,,,,,,,,,,,91,0,750.1443,751.944,z,1,1.7869,,[],[],[],[],[],[],[],751.944,753.944,753.9441,753.9443,[],[],[],[],[],[],[],,753.9443,753.9444,0.024027778,-0.39140191,0,0,0,,0,90,90,78,1,4,TL,stragety,print,stragety_p.png,,,,,
,,,,32164,001,2025-11-20_12h00.35.945,HW_LDT_1,2024.2.4,MacIntel,59.52380952,,,,,,,,,,,,,,,,,,,,753.9455,754.144,754.144,754.6439,,,,,,,,,,,,,,1.5046,1,,,,,,,,,,,,,,m,,,,,,,,,,,,,,,92,0,754.6446,756.1608,m,1,1.5046,,[],[],[],[],[],[],[],756.1609,758.1607,758.1608,758.1611,[],[],[],[],[],[],[],,758.1612,758.1612,0.024027778,-0.39140191,0,0,0,,0,91,91,135,1,4,word,QUALITY,print,quality_p.png,,,,,
,,,,32164,001,2025-11-20_12h00.35.945,HW_LDT_1,2024.2.4,MacIntel,59.52380952,,,,,,,,,,,,,,,,,,,,758.1623,758.3609,758.3609,758.8608,,,,,,,,,,,,,,4.8538,1,,,,,,,,,,,,,,m,,,,,,,,,,,,,,,93,1,758.8613,763.7277,m,1,4.8538,,[],[],[],[],[],[],[],763.7278,765.7277,765.7278,768.0613,[],[],[],[],[],[],[],z,768.0613,768.0615,0.024027778,-0.39140191,0,0,0,,0,92,92,138,1,4,word,REFUSAL,cursive,refusal_c.png,2.3214,,,,
,,,,32164,001,2025-11-20_12h00.35.945,HW_LDT_1,2024.2.4,MacIntel,59.52380952,,,,,,,,,,,,,,,,,,,,768.0627,768.2611,768.2612,768.7611,,,,,,,,,,,,,,2.221,1,,,,,,,,,,,,,,m,,,,,,,,,,,,,,,94,0,768.7618,770.9947,m,1,2.221,,[],[],[],[],[],[],[],770.9947,772.9947,772.9947,772.9949,[],[],[],[],[],[],[],,772.9949,772.995,0.024027778,-0.39140191,0,0,0,,0,93,93,98,1,4,word,CRIMINAL,cursive,criminal_c.png,,,,,
,,,,32164,001,2025-11-20_12h00.35.945,HW_LDT_1,2024.2.4,MacIntel,59.52380952,,,,,,,,,,,,,,,,,,,,772.9962,773.1947,773.1947,773.6947,,,,,,,,,,,,,,5.6371,1,,,,,,,,,,,,,,z,,,,,,,,,,,,,,,95,0,773.6953,779.345,z,1,5.6371,,[],[],[],[],[],[],[],779.3451,781.345,781.345,781.3453,[],[],[],[],[],[],[],,781.3454,781.3455,0.024027778,-0.39140191,0,0,0,,0,94,94,61,1,4,TL,lotace,cursive,lotace_c.png,,,,,
,,,,32164,001,2025-11-20_12h00.35.945,HW_LDT_1,2024.2.4,MacIntel,59.52380952,,,,,,,,,,,,,,,,,,,,781.3466,781.5451,781.5451,782.045,,,,,,,,,,,,,,1.4485,1,,,,,,,,,,,,,,z,,,,,,,,,,,,,,,96,0,782.0456,783.495,z,1,1.4485,,[],[],[],[],[],[],[],783.4951,785.4951,785.4951,785.4953,[],[],[],[],[],[],[],,785.4954,785.4955,0.024027778,-0.39140191,0,0,0,,0,95,95,44,1,4,RL,senvilent,print,senvilent_p.png,,,,,
,,,,32164,001,2025-11-20_12h00.35.945,HW_LDT_1,2024.2.4,MacIntel,59.52380952,,,,,,,,,,,,,,,,,,,,785.497,785.6951,785.6951,786.1951,,,,,,,,,,,,,,7.8408,1,,,,,,,,,,,,,,z,,,,,,,,,,,,,,,97,0,786.1958,794.045,z,1,7.8408,,[],[],[],[],[],[],[],794.045,796.0456,796.0456,796.0458,[],[],[],[],[],[],[],,796.0458,796.0459,0.024027778,-0.39140191,0,0,0,,0,96,96,59,1,4,TL,fornute,cursive,fornute_c.png,,,,,
,,,,32164,001,2025-11-20_12h00.35.945,HW_LDT_1,2024.2.4,MacIntel,59.52380952,,,,,,,,,,,,,,,,,,,,796.0472,796.2455,796.2455,796.7455,,,,,,,,,,,,,,1.4037,1,,,,,,,,,,,,,,z,,,,,,,,,,,,,,,98,0,796.7461,798.1623,z,1,1.4037,,[],[],[],[],[],[],[],798.1624,800.1623,800.1624,800.1625,[],[],[],[],[],[],[],,800.1626,800.1627,0.024027778,-0.39140191,0,0,0,,0,97,97,11,1,4,RL,clisimal,print,clisimal_p.png,,,,,
,,,,32164,001,2025-11-20_12h00.35.945,HW_LDT_1,2024.2.4,MacIntel,59.52380952,,,,,,,,,,,,,,,,,,,,800.1639,800.3623,800.3624,800.8623,,,,,,,,,,,,,,3.1482,1,,,,,,,,,,,,,,z,,,,,,,,,,,,,,,99,0,800.863,804.0124,z,1,3.1482,,[],[],[],[],[],[],[],804.0125,806.0126,806.0126,806.0128,[],[],[],[],[],[],[],,806.0128,806.0129,0.024027778,-0.39140191,0,0,0,,0,98,98,77,1,4,TL,spemicen,cursive,spemicen_c.png,,,,,
,,,,32164,001,2025-11-20_12h00.35.945,HW_LDT_1,2024.2.4,MacIntel,59.52380952,,,,,,,,,,,,,,,,,,,,806.0141,806.2126,806.2127,806.7126,,,,,,,,,,,,,,1.4371,1,,,,,,,,,,,,,,z,,,,,,,,,,,,,,,100,1,806.7132,808.1628,z,1,1.4371,,[],[],[],[],[],[],[],808.1629,810.1628,810.1629,811.2297,[],[],[],[],[],[],[],m,811.2297,811.2298,0.024027778,-0.39140191,0,0,0,,0,99,99,18,1,4,RL,disluge,print,disluge_p.png,1.0545,,,,
,,,,32164,001,2025-11-20_12h00.35.945,HW_LDT_1,2024.2.4,MacIntel,59.52380952,,,,,,,,,,,,,,,,,,,,811.231,811.4295,811.4296,811.9297,,,,,,,,,,,,,,3.0703,1,,,,,,,,,,,,,,m,,,,,,,,,,,,,,,101,0,811.9302,815.0129,m,1,3.0703,,[],[],[],[],[],[],[],815.013,817.0119,817.012,817.0121,[],[],[],[],[],[],[],,817.0122,817.0123,0.024027778,-0.39140191,0,0,0,,0,100,100,81,1,4,word,ADVISORY,cursive,advisory_c.png,,,,,
,,,,32164,001,2025-11-20_12h00.35.945,HW_LDT_1,2024.2.4,MacIntel,59.52380952,,,,,,,,,,,,,,,,,,,,817.0135,817.2129,817.213,817.7129,,,,,,,,,,,,,,1.6206,1,,,,,,,,,,,,,,m,,,,,,,,,,,,,,,102,0,817.7134,819.3454,m,1,1.6206,,[],[],[],[],[],[],[],819.3455,821.3464,821.3465,821.3467,[],[],[],[],[],[],[],,821.3467,821.3469,0.024027778,-0.39140191,0,0,0,,0,101,101,103,1,4,word,DISPUTE,print,dispute_p.png,,,,,
,,,,32164,001,2025-11-20_12h00.35.945,HW_LDT_1,2024.2.4,MacIntel,59.52380952,,,,,,,,,,,,,,,,,,,,821.348,821.5464,821.5465,822.0464,,,,,,,,,,,,,,2.7073,1,,,,,,,,,,,,,,z,,,,,,,,,,,,,,,103,0,822.0472,824.7622,z,1,2.7073,,[],[],[],[],[],[],[],824.7623,826.7633,826.7633,826.7635,[],[],[],[],[],[],[],,826.7636,826.7637,0.024027778,-0.39140191,0,0,0,,0,102,102,68,1,4,TL,prosopal,print,prosopal_p.png,,,,,
,,,,32164,001,2025-11-20_12h00.35.945,HW_LDT_1,2024.2.4,MacIntel,59.52380952,,,,,,,,,,,,,,,,,,,,826.765,826.9634,826.9634,827.4634,,,,,,,,,,,,,,1.1901,1,,,,,,,,,,,,,,m,,,,,,,,,,,,,,,104,0,827.4639,828.6626,m,1,1.1901,,[],[],[],[],[],[],[],828.6627,830.6634,830.6634,830.6637,[],[],[],[],[],[],[],,830.6638,830.664,0.024027778,-0.39140191,0,0,0,,0,103,103,154,1,4,word,STORAGE,print,storage_p.png,,,,,
,,,,32164,001,2025-11-20_12h00.35.945,HW_LDT_1,2024.2.4,MacIntel,59.52380952,,,,,,,,,,,,,,,,,,,,830.6651,830.8634,830.8636,831.3631,,,,,,,,,,,,,,7.2825,1,,,,,,,,,,,,,,z,,,,,,,,,,,,,,,105,0,831.3634,838.647,z,1,7.2825,,[],[],[],[],[],[],[],838.6472,840.6472,840.6473,840.6475,[],[],[],[],[],[],[],,840.6475,840.6476,0.024027778,-0.39140191,0,0,0,,0,104,104,30,1,4,RL,nunewical,cursive,nunewical_c.png,,,,,
,,,,32164,001,2025-11-20_12h00.35.945,HW_LDT_1,2024.2.4,MacIntel,59.52380952,,,,,,,,,,,,,,,,,,,,840.649,840.8472,840.8473,841.3471,,,,,,,,,,,,,,2.4537,1,,,,,,,,,,,,,,m,,,,,,,,,,,,,,,106,0,841.3478,843.813,m,1,2.4537,,[],[],[],[],[],[],[],843.813,845.814,845.814,845.8142,[],[],[],[],[],[],[],,845.8144,845.8145,0.024027778,-0.39140191,0,0,0,,0,105,105,137,1,4,word,RAPIDLY,cursive,rapidly_c.png,,,,,
,,,,32164,001,2025-11-20_12h00.35.945,HW_LDT_1,2024.2.4,MacIntel,59.52380952,,,,,,,,,,,,,,,,,,,,845.8155,846.014,846.0141,846.513,,,,,,,,,,,,,,1.4051,1,,,,,,,,,,,,,,z,,,,,,,,,,,,,,,107,0,846.5135,847.9308,z,1,1.4051,,[],[],[],[],[],[],[],847.9309,849.9299,849.93,849.9302,[],[],[],[],[],[],[],,849.9302,849.9304,0.024027778,-0.39140191,0,0,0,,0,106,106,47,1,4,RL,stopave,print,stopave_p.png,,,,,
,,,,32164,001,2025-11-20_12h00.35.945,HW_LDT_1,2024.2.4,MacIntel,59.52380952,,,,,,,,,,,,,,,,,,,,849.9316,850.131,850.131,850.6299,,,,,,,,,,,,,,2.5197,1,,,,,,,,,,,,,,z,,,,,,,,,,,,,,,108,1,850.6304,853.1643,z,1,2.5197,,[],[],[],[],[],[],[],853.1643,855.1634,855.1634,858.1812,[],[],[],[],[],[],[],m,858.1813,858.1814,0.024027778,-0.39140191,0,0,0,,0,107,107,79,1,4,TL,tritube,print,tritube_p.png,3.0058,,,,
,,,,32164,001,2025-11-20_12h00.35.945,HW_LDT_1,2024.2.4,MacIntel,59.52380952,,,,,,,,,,,,,,,,,,,,858.1826,858.3812,858.3812,858.8811,,,,,,,,,,,,,,3.9068,1,,,,,,,,,,,,,,z,,,,,,,,,,,,,,,109,0,858.8817,862.7979,z,1,3.9068,,[],[],[],[],[],[],[],862.798,864.7971,864.7971,864.7973,[],[],[],[],[],[],[],,864.7974,864.7975,0.024027778,-0.39140191,0,0,0,,0,108,108,51,1,4,TL,adsivory,cursive,adsivory_c.png,,,,,
,,,,32164,001,2025-11-20_12h00.35.945,HW_LDT_1,2024.2.4,MacIntel,59.52380952,,,,,,,,,,,,,,,,,,,,864.7987,864.998,864.998,865.4981,,,,,,,,,,,,,,1.5253,1,,,,,,,,,,,,,,z,,,,,,,,,,,,,,,110,0,865.4987,867.0314,z,1,1.5253,,[],[],[],[],[],[],[],867.0316,869.0305,869.0305,869.0307,[],[],[],[],[],[],[],,869.0307,869.0308,0.024027778,-0.39140191,0,0,0,,0,109,109,3,1,4,RL,bewoted,print,bewoted_p.png,,,,,
,,,,32164,001,2025-11-20_12h00.35.945,HW_LDT_1,2024.2.4,MacIntel,59.52380952,,,,,,,,,,,,,,,,,,,,869.0317,869.2314,869.2314,869.7316,,,,,,,,,,,,,,7.6817,1,,,,,,,,,,,,,,z,,,,,,,,,,,,,,,111,1,869.7321,877.415,z,1,7.6817,,[],[],[],[],[],[],[],877.4152,879.4151,879.4152,880.9319,[],[],[],[],[],[],[],z,880.9319,880.932,0.017990451,-0.034079861,0,0,0,,0,110,110,37,1,4,RL,renutal,cursive,renutal_c.png,1.5143,,,,
,,,,32164,001,2025-11-20_12h00.35.945,HW_LDT_1,2024.2.4,MacIntel,59.52380952,,,,,,,,,,,,,,,,,,,,880.9329,881.1315,881.1315,881.632,,,,,,,,,,,,,,1.0205,1,,,,,,,,,,,,,,m,,,,,,,,,,,,,,,112,0,881.6325,882.6653,m,1,1.0205,,[],[],[],[],[],[],[],882.6654,884.6644,884.6645,884.6645,[],[],[],[],[],[],[],,884.6646,884.6646,-0.161527778,-0.121844618,0,0,0,,0,111,111,115,1,4,word,LOGICAL,print,logical_p.png,,,,,
,,,,32164,001,2025-11-20_12h00.35.945,HW_LDT_1,2024.2.4,MacIntel,59.52380952,,,,,,,,,,,,,,,,,,,,884.6656,884.8645,884.8645,885.3655,,,,,,,,,,,,,,1.3244,1,,,,,,,,,,,,,,z,,,,,,,,,,,,,,,113,0,885.3661,886.698,z,1,1.3244,,[],[],[],[],[],[],[],886.698,888.699,888.699,888.6992,[],[],[],[],[],[],[],,888.6992,888.6994,-0.161914063,-0.119956597,0,0,0,,0,112,112,25,1,4,RL,macise,print,macise_p.png,,,,,
,,,,32164,001,2025-11-20_12h00.35.945,HW_LDT_1,2024.2.4,MacIntel,59.52380952,,,,,,,,,,,,,,,,,,,,888.7005,888.898,888.898,889.3979,,,,,,,,,,,,,,1.3877,1,,,,,,,,,,,,,,m,,,,,,,,,,,,,,,114,0,889.3985,890.7991,m,1,1.3877,,[],[],[],[],[],[],[],890.7992,892.7991,892.7992,892.7993,[],[],[],[],[],[],[],,892.7994,892.7995,-0.161914063,-0.119956597,0,0,0,,0,113,113,147,1,4,word,ROMANTIC,print,romantic_p.png,,,,,
,,,,32164,001,2025-11-20_12h00.35.945,HW_LDT_1,2024.2.4,MacIntel,59.52380952,,,,,,,,,,,,,,,,,,,,892.8006,892.9991,892.9991,893.4981,,,,,,,,,,,,,,5.4211,1,,,,,,,,,,,,,,m,,,,,,,,,,,,,,,115,0,893.4986,898.9317,m,1,5.4211,,[],[],[],[],[],[],[],898.9318,900.9328,900.9328,900.9331,[],[],[],[],[],[],[],,900.9331,900.9331,-0.161914063,-0.119956597,0,0,0,,0,114,114,151,1,4,word,SPECIFIC,cursive,specific_c.png,,,,,
,,,,32164,001,2025-11-20_12h00.35.945,HW_LDT_1,2024.2.4,MacIntel,59.52380952,,,,,,,,,,,,,,,,,,,,900.9343,901.1327,901.1327,901.6318,,,,,,,,,,,,,,6.4501,1,,,,,,,,,,,,,,z,,,,,,,,,,,,,,,116,0,901.6323,908.083,z,1,6.4501,,[],[],[],[],[],[],[],908.0831,910.083,910.0831,910.0832,[],[],[],[],[],[],[],,910.0832,910.0834,-0.161914063,-0.119956597,0,0,0,,0,115,115,56,1,4,TL,donimant,cursive,donimant_c.png,,,,,
,,,,32164,001,2025-11-20_12h00.35.945,HW_LDT_1,2024.2.4,MacIntel,59.52380952,,,,,,,,,,,,,,,,,,,,910.085,910.283,910.2831,910.7831,,,,,,,,,,,,,,5.6821,1,,,,,,,,,,,,,,z,,,,,,,,,,,,,,,117,0,910.7836,916.4665,z,1,5.6821,,[],[],[],[],[],[],[],916.4668,918.4654,918.4654,918.4656,[],[],[],[],[],[],[],,918.4656,918.4656,-0.161914063,-0.119956597,0,0,0,,0,116,116,16,1,4,RL,desifate,cursive,desifate_c.png,,,,,
,,,,32164,001,2025-11-20_12h00.35.945,HW_LDT_1,2024.2.4,MacIntel,59.52380952,,,,,,,,,,,,,,,,,,,,918.466,918.6663,918.6663,919.1663,,,,,,,,,,,,,,5.9705,1,,,,,,,,,,,,,,z,,,,,,,,,,,,,,,118,0,919.1665,925.1502,z,1,5.9705,,[],[],[],[],[],[],[],925.1503,927.1494,927.1494,927.1496,[],[],[],[],[],[],[],,927.1497,927.1498,-0.161914063,-0.119956597,0,0,0,,0,117,117,32,1,4,RL,patisic,cursive,patisic_c.png,,,,,
,,,,32164,001,2025-11-20_12h00.35.945,HW_LDT_1,2024.2.4,MacIntel,59.52380952,,,,,,,,,,,,,,,,,,,,927.151,927.3494,927.3494,927.8503,,,,,,,,,,,,,,1.0312,1,,,,,,,,,,,,,,m,,,,,,,,,,,,,,,119,0,927.8508,928.8827,m,1,1.0312,,[],[],[],[],[],[],[],928.8828,930.8838,930.8839,930.8841,[],[],[],[],[],[],[],,930.8841,930.8841,-0.161914063,-0.119956597,0,0,0,,0,118,118,143,1,4,word,REMOVAL,print,removal_p.png,,,,,
,,,,32164,001,2025-11-20_12h00.35.945,HW_LDT_1,2024.2.4,MacIntel,59.52380952,,,,,,,,,,,,,,,,,,,,930.8853,931.0837,931.0838,931.5829,,,,,,,,,,,,,,1.6216,1,,,,,,,,,,,,,,m,,,,,,,,,,,,,,,120,0,931.5834,933.2164,m,1,1.6216,,[],[],[],[],[],[],[],933.2165,935.2173,935.2173,935.2176,[],[],[],[],[],[],[],,935.2176,935.2177,-0.161914063,-0.119956597,0,0,0,,0,119,119,127,1,4,word,ORIGINAL,print,original_p.png,,,,,
,,,,32164,001,2025-11-20_12h00.35.945,HW_LDT_1,2024.2.4,MacIntel,59.52380952,,,,,,,,,,,,,,,,,,,,935.2187,935.4172,935.4172,935.9174,,,,,,,,,,,,,,4.236,1,,,,,,,,,,,,,,m,,,,,,,,,,,,,,,121,0,935.9178,940.1675,m,1,4.236,,[],[],[],[],[],[],[],940.1675,942.1675,942.1675,942.1678,[],[],[],[],[],[],[],,942.1679,942.1681,0.0375,-0.014865451,0,0,0,,0,120,120,92,1,4,word,CATEGORY,cursive,category_c.png,,,,,
,,,,32164,001,2025-11-20_12h00.35.945,HW_LDT_1,2024.2.4,MacIntel,59.52380952,,,,,,,,,,,,,,,,,,,,942.1691,942.3675,942.3675,942.8676,,,,,,,,,,,,,,4.0896,1,,,,,,,,,,,,,,m,,,,,,,,,,,,,,,122,0,942.8681,946.9678,m,1,4.0896,,[],[],[],[],[],[],[],946.9679,948.9668,948.9668,948.9669,[],[],[],[],[],[],[],,948.967,948.9671,0.042304688,-0.018068576,0,0,0,,0,121,121,124,1,4,word,NUMERICAL,cursive,numerical_c.png,,,,,
,,,,32164,001,2025-11-20_12h00.35.945,HW_LDT_1,2024.2.4,MacIntel,59.52380952,,,,,,,,,,,,,,,,,,,,948.9682,949.1669,949.1669,949.6679,,,,,,,,,,,,,,5.4817,1,,,,,,,,,,,,,,m,,,,,,,,,,,,,,,123,1,949.6685,955.1512,m,1,5.4817,,[],[],[],[],[],[],[],955.1513,957.1513,957.1514,959.1515,[],[],[],[],[],[],[],z,959.1515,959.1517,0.032630208,-0.032886285,0,0,0,,0,122,122,85,1,4,word,BENEFIT,cursive,benefit_c.png,1.988,,,,
,,,,32164,001,2025-11-20_12h00.35.945,HW_LDT_1,2024.2.4,MacIntel,59.52380952,,,,,,,,,,,,,,,,,,,,959.1528,959.3515,959.3515,959.8516,,,,,,,,,,,,,,4.5226,1,,,,,,,,,,,,,,z,,,,,,,,,,,,,,,124,0,959.8521,964.3851,z,1,4.5226,,[],[],[],[],[],[],[],964.3852,966.3851,966.3851,966.3854,[],[],[],[],[],[],[],,966.3854,966.3856,0.072838542,-0.11499566,0,0,0,,0,123,123,39,1,4,RL,relone,cursive,relone_c.png,,,,,
,,,,32164,001,2025-11-20_12h00.35.945,HW_LDT_1,2024.2.4,MacIntel,59.52380952,,,,,,,,,,,,,,,,,,,,966.3867,966.585,966.585,967.0851,,,,,,,,,,,,,,1.5707,1,,,,,,,,,,,,,,z,,,,,,,,,,,,,,,125,1,967.0856,968.6685,z,1,1.5707,,[],[],[],[],[],[],[],968.6687,970.6685,970.6686,972.2853,[],[],[],[],[],[],[],z,972.2854,972.2855,0.072838542,-0.11499566,0,0,0,,0,124,124,0,1,4,RL,abanemy,print,abanemy_p.png,1.604,,,,
,,,,32164,001,2025-11-20_12h00.35.945,HW_LDT_1,2024.2.4,MacIntel,59.52380952,,,,,,,,,,,,,,,,,,,,972.2865,972.4854,972.4854,972.9854,,,,,,,,,,,,,,1.837,1,,,,,,,,,,,,,,m,,,,,,,,,,,,,,,126,0,972.986,974.8355,m,1,1.837,,[],[],[],[],[],[],[],974.8357,976.8355,976.8355,976.8357,[],[],[],[],[],[],[],,976.8357,976.8359,0.072838542,-0.11499566,0,0,0,,0,125,125,99,1,4,word,DEBATE,cursive,debate_c.png,,,,,
,,,,32164,001,2025-11-20_12h00.35.945,HW_LDT_1,2024.2.4,MacIntel,59.52380952,,,,,,,,,,,,,,,,,,,,976.8373,977.0354,977.0355,977.5354,,,,,,,,,,,,,,6.2041,1,,,,,,,,,,,,,,z,,,,,,,,,,,,,,,127,0,977.5361,983.7526,z,1,6.2041,,[],[],[],[],[],[],[],983.7526,985.7524,985.7525,985.7529,[],[],[],[],[],[],[],,985.7529,985.7531,0.049522569,-0.019175347,0,0,0,,0,126,126,6,1,4,RL,caleberia,cursive,caleberia_c.png,,,,,
,,,,32164,001,2025-11-20_12h00.35.945,HW_LDT_1,2024.2.4,MacIntel,59.52380952,,,,,,,,,,,,,,,,,,,,985.7544,985.9524,985.9525,986.4525,,,,,,,,,,,,,,1.473,1,,,,,,,,,,,,,,z,,,,,,,,,,,,,,,128,0,986.453,987.936,z,1,1.473,,[],[],[],[],[],[],[],987.9362,989.936,989.9361,989.9362,[],[],[],[],[],[],[],,989.9363,989.9364,0.047261285,-0.033550347,0,0,0,,0,127,127,48,1,4,RL,vabifity,print,vabifity_p.png,,,,,
,,,,32164,001,2025-11-20_12h00.35.945,HW_LDT_1,2024.2.4,MacIntel,59.52380952,,,,,,,,,,,,,,,,,,,,989.9377,990.136,990.136,990.636,,,,,,,,,,,,,,1.4037,1,,,,,,,,,,,,,,z,,,,,,,,,,,,,,,129,0,990.6365,992.0528,z,1,1.4037,,[],[],[],[],[],[],[],992.0529,994.0528,994.0528,994.0531,[],[],[],[],[],[],[],,994.0532,994.0534,0.047261285,-0.033550347,0,0,0,,0,128,128,73,1,4,TL,regilion,print,regilion_p.png,,,,,
,,,,32164,001,2025-11-20_12h00.35.945,HW_LDT_1,2024.2.4,MacIntel,59.52380952,,,,,,,,,,,,,,,,,,,,994.0544,994.2528,994.2529,994.7528,,,,,,,,,,,,,,1.164,1,,,,,,,,,,,,,,m,,,,,,,,,,,,,,,130,0,994.7534,995.9194,m,1,1.164,,[],[],[],[],[],[],[],995.9194,997.9196,997.9196,997.9198,[],[],[],[],[],[],[],,997.9199,997.9199,0.047261285,-0.033550347,0,0,0,,0,129,129,136,1,4,word,RADICAL,print,radical_p.png,,,,,
,,,,32164,001,2025-11-20_12h00.35.945,HW_LDT_1,2024.2.4,MacIntel,59.52380952,,,,,,,,,,,,,,,,,,,,997.9212,998.1196,998.1197,998.6196,,,,,,,,,,,,,,1.2202,1,,,,,,,,,,,,,,m,,,,,,,,,,,,,,,131,0,998.6202,999.8531,m,1,1.2202,,[],[],[],[],[],[],[],999.8532,1001.8531,1001.8531,1001.8533,[],[],[],[],[],[],[],,1001.8533,1001.8535,0.047261285,-0.033550347,0,0,0,,0,130,130,156,1,4,word,TRIBUTE,print,tribute_p.png,,,,,
,,,,32164,001,2025-11-20_12h00.35.945,HW_LDT_1,2024.2.4,MacIntel,59.52380952,,,,,,,,,,,,,,,,,,,,1001.8546,1002.053,1002.0531,1002.5531,,,,,,,,,,,,,,1.5537,1,,,,,,,,,,,,,,z,,,,,,,,,,,,,,,132,0,1002.5537,1004.12,z,1,1.5537,,[],[],[],[],[],[],[],1004.12,1006.1199,1006.12,1006.1202,[],[],[],[],[],[],[],,1006.1203,1006.1203,0.047261285,-0.033550347,0,0,0,,0,131,131,76,1,4,TL,setanor,print,setanor_p.png,,,,,
,,,,32164,001,2025-11-20_12h00.35.945,HW_LDT_1,2024.2.4,MacIntel,59.52380952,,,,,,,,,,,,,,,,,,,,1006.1215,1006.32,1006.32,1006.8199,,,,,,,,,,,,,,6.064,1,,,,,,,,,,,,,,z,,,,,,,,,,,,,,,133,0,1006.8205,1012.8867,z,1,6.064,,[],[],[],[],[],[],[],1012.8869,1014.8869,1014.8869,1014.8871,[],[],[],[],[],[],[],,1014.8871,1014.8873,0.047261285,-0.033550347,0,0,0,,0,132,132,52,1,4,TL,cagetory,cursive,cagetory_c.png,,,,,
,,,,32164,001,2025-11-20_12h00.35.945,HW_LDT_1,2024.2.4,MacIntel,59.52380952,,,,,,,,,,,,,,,,,,,,1014.8887,1015.0868,1015.0868,1015.5869,,,,,,,,,,,,,,1.5557,1,,,,,,,,,,,,,,m,,,,,,,,,,,,,,,134,0,1015.5875,1017.1536,m,1,1.5557,,[],[],[],[],[],[],[],1017.1537,1019.1538,1019.1538,1019.1539,[],[],[],[],[],[],[],,1019.154,1019.1542,0.047261285,-0.033550347,0,0,0,,0,133,133,150,1,4,word,SENTIMENT,print,sentiment_p.png,,,,,
,,,,32164,001,2025-11-20_12h00.35.945,HW_LDT_1,2024.2.4,MacIntel,59.52380952,,,,,,,,,,,,,,,,,,,,1019.1553,1019.3536,1019.3538,1019.8537,,,,,,,,,,,,,,1.404,1,,,,,,,,,,,,,,m,,,,,,,,,,,,,,,135,0,1019.8544,1021.2705,m,1,1.404,,[],[],[],[],[],[],[],1021.2706,1023.2705,1023.2706,1023.2707,[],[],[],[],[],[],[],,1023.2708,1023.271,0.047261285,-0.033550347,0,0,0,,0,134,134,145,1,4,word,RESUME,print,resume_p.png,,,,,
,,,,32164,001,2025-11-20_12h00.35.945,HW_LDT_1,2024.2.4,MacIntel,59.52380952,,,,,,,,,,,,,,,,,,,,1023.2722,1023.4705,1023.4706,1023.9705,,,,,,,,,,,,,,4.673,1,,,,,,,,,,,,,,z,,,,,,,,,,,,,,,136,0,1023.9712,1028.6542,z,1,4.673,,[],[],[],[],[],[],[],1028.6542,1030.6541,1030.6542,1030.6545,[],[],[],[],[],[],[],,1030.6545,1030.6547,0.047261285,-0.033550347,0,0,0,,0,135,135,15,1,4,RL,debave,cursive,debave_c.png,,,,,
,,,,32164,001,2025-11-20_12h00.35.945,HW_LDT_1,2024.2.4,MacIntel,59.52380952,,,,,,,,,,,,,,,,,,,,1030.6558,1030.8541,1030.8542,1031.3541,,,,,,,,,,,,,,1.2979,1,,,,,,,,,,,,,,z,,,,,,,,,,,,,,,137,0,1031.3548,1032.6541,z,1,1.2979,,[],[],[],[],[],[],[],1032.6542,1034.6542,1034.6543,1034.6545,[],[],[],[],[],[],[],,1034.6546,1034.6547,0.047261285,-0.033550347,0,0,0,,0,136,136,43,1,4,RL,rovastic,print,rovastic_p.png,,,,,
,,,,32164,001,2025-11-20_12h00.35.945,HW_LDT_1,2024.2.4,MacIntel,59.52380952,,,,,,,,,,,,,,,,,,,,1034.6558,1034.8543,1034.8543,1035.3543,,,,,,,,,,,,,,1.5705,1,,,,,,,,,,,,,,z,,,,,,,,,,,,,,,138,0,1035.3549,1036.9377,z,1,1.5705,,[],[],[],[],[],[],[],1036.9378,1038.9376,1038.9377,1038.9378,[],[],[],[],[],[],[],,1038.9378,1038.9379,0.047261285,-0.033550347,0,0,0,,0,137,137,64,1,4,TL,moredate,print,moredate_p.png,,,,,
,,,,32164,001,2025-11-20_12h00.35.945,HW_LDT_1,2024.2.4,MacIntel,59.52380952,,,,,,,,,,,,,,,,,,,,1038.9388,1039.1378,1039.1378,1039.6378,,,,,,,,,,,,,,1.2038,1,,,,,,,,,,,,,,m,,,,,,,,,,,,,,,139,1,1039.6384,1040.8546,m,1,1.2038,,[],[],[],[],[],[],[],1040.8547,1042.8545,1042.8546,1043.7714,[],[],[],[],[],[],[],m,1043.7715,1043.7716,0.047261285,-0.033550347,0,0,0,,0,138,138,95,1,4,word,COMEDY,print,comedy_p.png,0.9065,,,,
,,,,32164,001,2025-11-20_12h00.35.945,HW_LDT_1,2024.2.4,MacIntel,59.52380952,,,,,,,,,,,,,,,,,,,,1043.7729,1043.9712,1043.9713,1044.4714,,,,,,,,,,,,,,1.6872,1,,,,,,,,,,,,,,z,,,,,,,,,,,,,,,140,0,1044.4718,1046.1715,z,1,1.6872,,[],[],[],[],[],[],[],1046.1716,1048.1714,1048.1715,1048.1717,[],[],[],[],[],[],[],,1048.1718,1048.1719,0.047261285,-0.033550347,0,0,0,,0,139,139,69,1,4,TL,quafily,print,quafily_p.png,,,,,
,,,,32164,001,2025-11-20_12h00.35.945,HW_LDT_1,2024.2.4,MacIntel,59.52380952,,,,,,,,,,,,,,,,,,,,1048.1731,1048.3714,1048.3715,1048.8714,,,,,,,,,,,,,,8.116,1,,,,,,,,,,,,,,z,,,,,,,,,,,,,,,141,1,1048.872,1056.9887,z,1,8.116,,[],[],[],[],[],[],[],1056.9887,1058.9884,1058.9885,1060.0051,[],[],[],[],[],[],[],z,1060.0051,1060.0053,0.001297743,-0.029826389,0,0,0,,0,140,140,17,1,4,RL,denficy,cursive,denficy_c.png,1.0155,,,,
,,,,32164,001,2025-11-20_12h00.35.945,HW_LDT_1,2024.2.4,MacIntel,59.52380952,,,,,,,,,,,,,,,,,,,,1060.0061,1060.2052,1060.2052,1060.7052,,,,,,,,,,,,,,1.4203,1,,,,,,,,,,,,,,m,,,,,,,,,,,,,,,142,0,1060.7058,1062.1387,m,1,1.4203,,[],[],[],[],[],[],[],1062.1388,1064.1386,1064.1387,1064.1389,[],[],[],[],[],[],[],,1064.1389,1064.139,0.045351562,-0.118546007,0,0,0,,0,141,141,130,1,4,word,POLICY,cursive,policy_c.png,,,,,
,,,,32164,001,2025-11-20_12h00.35.945,HW_LDT_1,2024.2.4,MacIntel,59.52380952,,,,,,,,,,,,,,,,,,,,1064.1401,1064.3387,1064.3388,1064.8381,,,,,,,,,,,,,,1.4748,1,,,,,,,,,,,,,,z,,,,,,,,,,,,,,,143,0,1064.8387,1066.322,z,1,1.4748,,[],[],[],[],[],[],[],1066.322,1068.3212,1068.3213,1068.3214,[],[],[],[],[],[],[],,1068.3215,1068.3215,0.045351562,-0.118546007,0,0,0,,0,142,142,20,1,4,RL,gralekul,print,gralekul_p.png,,,,,
,,,,32164,001,2025-11-20_12h00.35.945,HW_LDT_1,2024.2.4,MacIntel,59.52380952,,,,,,,,,,,,,,,,,,,,1068.3227,1068.5223,1068.5223,1069.0222,,,,,,,,,,,,,,1.4034,1,,,,,,,,,,,,,,m,,,,,,,,,,,,,,,144,0,1069.0229,1070.4391,m,1,1.4034,,[],[],[],[],[],[],[],1070.4392,1072.4389,1072.4391,1072.4393,[],[],[],[],[],[],[],,1072.4394,1072.4395,0.045351562,-0.118546007,0,0,0,,0,143,143,148,1,4,word,SALINE,print,saline_p.png,,,,,
,,,,32164,001,2025-11-20_12h00.35.945,HW_LDT_1,2024.2.4,MacIntel,59.52380952,,,,,,,,,,,,,,,,,,,,1072.4407,1072.638,1072.6381,1073.1389,,,,,,,,,,,,,,1.2205,1,,,,,,,,,,,,,,z,,,,,,,,,,,,,,,145,0,1073.1396,1074.3725,z,1,1.2205,,[],[],[],[],[],[],[],1074.3726,1076.3725,1076.3726,1076.3727,[],[],[],[],[],[],[],,1076.3727,1076.3728,0.045351562,-0.118546007,0,0,0,,0,144,144,9,1,4,RL,cafigal,print,cafigal_p.png,,,,,
,,,,32164,001,2025-11-20_12h00.35.945,HW_LDT_1,2024.2.4,MacIntel,59.52380952,,,,,,,,,,,,,,,,,,,,1076.3739,1076.5724,1076.5724,1077.0724,,,,,,,,,,,,,,1.386,1,,,,,,,,,,,,,,m,,,,,,,,,,,,,,,146,0,1077.0732,1078.4715,m,1,1.386,,[],[],[],[],[],[],[],1078.4716,1080.4725,1080.4726,1080.4727,[],[],[],[],[],[],[],,1080.4729,1080.473,0.045351562,-0.118546007,0,0,0,,0,145,145,125,1,4,word,OPERATOR,print,operator_p.png,,,,,
,,,,32164,001,2025-11-20_12h00.35.945,HW_LDT_1,2024.2.4,MacIntel,59.52380952,,,,,,,,,,,,,,,,,,,,1080.474,1080.6716,1080.6716,1081.1716,,,,,,,,,,,,,,1.3921,1,,,,,,,,,,,,,,z,,,,,,,,,,,,,,,147,0,1081.1722,1082.5728,z,1,1.3921,,[],[],[],[],[],[],[],1082.5728,1084.5727,1084.5727,1084.573,[],[],[],[],[],[],[],,1084.5731,1084.5732,0.045351562,-0.118546007,0,0,0,,0,146,146,71,1,4,TL,racidal,print,racidal_p.png,,,,,
,,,,32164,001,2025-11-20_12h00.35.945,HW_LDT_1,2024.2.4,MacIntel,59.52380952,,,,,,,,,,,,,,,,,,,,1084.5743,1084.7718,1084.7718,1085.2727,,,,,,,,,,,,,,1.5228,1,,,,,,,,,,,,,,z,,,,,,,,,,,,,,,148,0,1085.2734,1086.8062,z,1,1.5228,,[],[],[],[],[],[],[],1086.8062,1088.8062,1088.8063,1088.8064,[],[],[],[],[],[],[],,1088.8065,1088.8066,0.045351562,-0.118546007,0,0,0,,0,147,147,62,1,4,TL,locigal,print,locigal_p.png,,,,,
,,,,32164,001,2025-11-20_12h00.35.945,HW_LDT_1,2024.2.4,MacIntel,59.52380952,,,,,,,,,,,,,,,,,,,,1088.8079,1089.0063,1089.0063,1089.5062,,,,,,,,,,,,,,1.2367,1,,,,,,,,,,,,,,m,,,,,,,,,,,,,,,149,0,1089.5069,1090.7562,m,1,1.2367,,[],[],[],[],[],[],[],1090.7563,1092.7563,1092.7564,1092.7567,[],[],[],[],[],[],[],,1092.7567,1092.7568,0.045351562,-0.118546007,0,0,0,,0,148,148,134,1,4,word,QUALIFY,print,qualify_p.png,,,,,
,,,,32164,001,2025-11-20_12h00.35.945,HW_LDT_1,2024.2.4,MacIntel,59.52380952,,,,,,,,,,,,,,,,,,,,1092.7579,1092.9554,1092.9555,1093.4564,,,,,,,,,,,,,,2.854,1,,,,,,,,,,,,,,m,,,,,,,,,,,,,,,150,0,1093.457,1096.3233,m,1,2.854,,[],[],[],[],[],[],[],1096.3234,1098.3226,1098.3227,1098.3228,[],[],[],[],[],[],[],,1098.3228,1098.3229,0.045351562,-0.118546007,0,0,0,,0,149,149,86,1,4,word,BESIDE,print,beside_p.png,,,,,
,,,,32164,001,2025-11-20_12h00.35.945,HW_LDT_1,2024.2.4,MacIntel,59.52380952,,,,,,,,,,,,,,,,,,,,1098.3241,1098.5232,1098.5233,1099.0223,,,,,,,,,,,,,,2.359,1,,,,,,,,,,,,,,z,,,,,,,,,,,,,,,151,0,1099.0228,1101.3901,z,1,2.359,,[],[],[],[],[],[],[],1101.3902,1103.39,1103.3901,1103.3903,[],[],[],[],[],[],[],,1103.3904,1103.3905,0.045351562,-0.118546007,0,0,0,,0,150,150,36,1,4,RL,rabigly,cursive,rabigly_c.png,,,,,
,,,,32164,001,2025-11-20_12h00.35.945,HW_LDT_1,2024.2.4,MacIntel,59.52380952,,,,,,,,,,,,,,,,,,,,1103.3917,1103.5902,1103.5902,1104.0901,,,,,,,,,,,,,,1.637,1,,,,,,,,,,,,,,z,,,,,,,,,,,,,,,152,1,1104.0906,1105.7393,z,1,1.637,,[],[],[],[],[],[],[],1105.7393,1107.7402,1107.7403,1108.6736,[],[],[],[],[],[],[],m,1108.6736,1108.6738,-0.043767361,-0.020021701,0,0,0,,0,151,151,65,1,4,TL,orepator,print,orepator_p.png,0.9201,,,,
,,,,32164,001,2025-11-20_12h00.35.945,HW_LDT_1,2024.2.4,MacIntel,59.52380952,,,,,,,,,,,,,,,,,,,,1108.6748,1108.8736,1108.8737,1109.3736,,,,,,,,,,,,,,1.2802,1,,,,,,,,,,,,,,z,,,,,,,,,,,,,,,153,0,1109.3742,1110.6569,z,1,1.2802,,[],[],[],[],[],[],[],1110.657,1112.657,1112.6571,1112.6572,[],[],[],[],[],[],[],,1112.6573,1112.6575,-0.043767361,-0.020021701,0,0,0,,0,152,152,28,1,4,RL,mifikary,print,mifikary_p.png,,,,,
,,,,32164,001,2025-11-20_12h00.35.945,HW_LDT_1,2024.2.4,MacIntel,59.52380952,,,,,,,,,,,,,,,,,,,,1112.6586,1112.8571,1112.8571,1113.3571,,,,,,,,,,,,,,1.4035,1,,,,,,,,,,,,,,m,,,,,,,,,,,,,,,154,0,1113.3577,1114.7739,m,1,1.4035,,[],[],[],[],[],[],[],1114.774,1116.7739,1116.774,1116.7741,[],[],[],[],[],[],[],,1116.7741,1116.7743,-0.043767361,-0.020021701,0,0,0,,0,153,153,157,1,4,word,VALIDITY,print,validity_p.png,,,,,
,,,,32164,001,2025-11-20_12h00.35.945,HW_LDT_1,2024.2.4,MacIntel,59.52380952,,,,,,,,,,,,,,,,,,,,1116.7753,1116.9738,1116.9738,1117.4733,,,,,,,,,,,,,,1.6713,1,,,,,,,,,,,,,,m,,,,,,,,,,,,,,,155,0,1117.4738,1119.1564,m,1,1.6713,,[],[],[],[],[],[],[],1119.1565,1121.1574,1121.1575,1121.1577,[],[],[],[],[],[],[],,1121.1578,1121.1579,-0.043767361,-0.020021701,0,0,0,,0,154,154,159,1,4,word,VETERAN,cursive,veteran_c.png,,,,,
,,,,32164,001,2025-11-20_12h00.35.945,HW_LDT_1,2024.2.4,MacIntel,59.52380952,,,,,,,,,,,,,,,,,,,,1121.159,1121.3564,1121.3564,1121.8564,,,,,,,,,,,,,,3.6827,1,,,,,,,,,,,,,,z,,,,,,,,,,,,,,,156,0,1121.8568,1125.5409,z,1,3.6827,,[],[],[],[],[],[],[],1125.5409,1127.541,1127.5411,1127.5413,[],[],[],[],[],[],[],,1127.5413,1127.5414,-0.043767361,-0.020021701,0,0,0,,0,155,155,55,1,4,TL,corevage,cursive,corevage_c.png,,,,,
,,,,32164,001,2025-11-20_12h00.35.945,HW_LDT_1,2024.2.4,MacIntel,59.52380952,,,,,,,,,,,,,,,,,,,,1127.5427,1127.7399,1127.74,1128.241,,,,,,,,,,,,,,1.2377,1,,,,,,,,,,,,,,m,,,,,,,,,,,,,,,157,0,1128.2416,1129.491,m,1,1.2377,,[],[],[],[],[],[],[],1129.4911,1131.4902,1131.4902,1131.4904,[],[],[],[],[],[],[],,1131.4904,1131.4905,-0.043767361,-0.020021701,0,0,0,,0,156,156,149,1,4,word,SENATOR,print,senator_p.png,,,,,
,,,,32164,001,2025-11-20_12h00.35.945,HW_LDT_1,2024.2.4,MacIntel,59.52380952,,,,,,,,,,,,,,,,,,,,1131.4916,1131.69,1131.6901,1132.1908,,,,,,,,,,,,,,1.3133,1,,,,,,,,,,,,,,z,,,,,,,,,,,,,,,158,0,1132.1911,1133.5077,z,1,1.3133,,[],[],[],[],[],[],[],1133.5077,1135.5079,1135.5079,1135.5082,[],[],[],[],[],[],[],,1135.5084,1135.5085,-0.043767361,-0.020021701,0,0,0,,0,157,157,31,1,4,RL,orimipal,print,orimipal_p.png,,,,,
,,,,32164,001,2025-11-20_12h00.35.945,HW_LDT_1,2024.2.4,MacIntel,59.52380952,,,,,,,,,,,,,,,,,,,,1135.5095,1135.7079,1135.708,1136.208,,,,,,,,,,,,,,4.454,1,,,,,,,,,,,,,,m,,,,,,,,,,,,,,,159,0,1136.2085,1140.674,m,1,4.454,,[],[],[],[],[],[],[],1140.674,1142.6748,1142.6748,1142.6752,[],[],[],[],[],[],[],,1142.6752,1142.6753,0.037118056,-0.006623264,0,0,0,,0,158,158,87,1,4,word,CAFETERIA,cursive,cafeteria_c.png,,,,,
,,,,32164,001,2025-11-20_12h00.35.945,HW_LDT_1,2024.2.4,MacIntel,59.52380952,,,,,,,,,,,,,,,,,,,,1142.6764,1142.874,1142.8741,1143.3748,,,,,,,,,,,,,,1.421,1,,,,,,,,,,,,,,m,,,,,,,,,,,,,,,160,0,1143.3753,1144.8084,m,1,1.421,,[],[],[],[],[],[],[],1144.8085,1146.8083,1146.8084,1146.8086,[],[],[],[],[],[],[],,1146.8087,1146.8087,0.037118056,-0.006623264,0,0,0,,0,159,159,109,1,4,word,GRATEFUL,print,grateful_p.png,,,,,
,,,,32164,001,2025-11-20_12h00.35.945,HW_LDT_1,2024.2.4,MacIntel,59.52380952,,,,,,,,,,,,,,,,,,,,,,,,,,,,,,,,,,,,,,,,,,,,,,,,,,,,,,,,,,,,,,,,,,,,,,,,,,,,,,,,,,,,,,,,,,,,,,,,,,,,,,,,,,,,,,,,,,,1146.8094,1151.8079
