counterbalance_lists.group,counterbalance_lists.remaining,get_list.started,get_list.stopped,participant,session,date,expName,psychopyVersion,OS,frameRate,Instructions.started,Instructions.stopped,key_resp.keys,instr_done_touch.x,instr_done_touch.y,instr_done_touch.leftButton,instr_done_touch.midButton,instr_done_touch.rightButton,instr_done_touch.clicked_name,start_instr.thisRepN,start_instr.thisTrialN,start_instr.thisN,start_instr.thisIndex,start_instr.ran,pageN,phase,instruct_text,has_image,instruct_image,key_resp.rt,key_resp.duration,showProgress.started,showProgress.stopped,fix.started,fix.stopped,prac.started,prac.stopped,response.keys,response.corr,response.rt,response.duration,touch_resp.x,touch_resp.y,touch_resp.leftButton,touch_resp.midButton,touch_resp.rightButton,touch_resp.time,touch_resp.clicked_name,rt,corr,feedback.started,feedback.stopped,trials.thisRepN,trials.thisTrialN,trials.thisN,trials.thisIndex,trials.ran,TrialID,StimulusType,Condition,PrimeDuration,Prime,Target,corrAns,Instructions_expt.started,Instructions_expt.stopped,key_resp_3.keys,instr_done_touch_3.x,instr_done_touch_3.y,instr_done_touch_3.leftButton,instr_done_touch_3.midButton,instr_done_touch_3.rightButton,instr_done_touch_3.clicked_name,instr_experiment.thisRepN,instr_experiment.thisTrialN,instr_experiment.thisN,instr_experiment.thisIndex,instr_experiment.ran,trialID,flag,maintask.started,maintask.stopped,key_resp_2.keys,key_resp_2.corr,key_resp_2.rt,key_resp_2.duration,targ_click.x,targ_click.y,targ_click.leftButton,targ_click.midButton,targ_click.rightButton,targ_click.time,targ_click.clicked_name,ITI.started,ITI.stopped,probe.started,probe.stopped,click_probe.x,click_probe.y,click_probe.leftButton,click_probe.midButton,click_probe.rightButton,click_probe.time,click_probe.clicked_name,key_resp_probe.keys,Break.started,Break.stopped,break_done_touch.x,break_done_touch.y,break_done_touch.leftButton,break_done_touch.midButton,break_done_touch.rightButton,break_done_keyboard.keys,list1_trials.thisRepN,list1_trials.thisTrialN,list1_trials.thisN,list1_trials.thisIndex,list1_trials.ran,list_id,item_type,string,font,stim_file,key_resp_probe.rt,key_resp_probe.duration,break_done_keyboard.rt,break_done_keyboard.duration,End.started,End.stopped
list1,,0.4106,0.4108,32169,001,2025-10-17_00h52.48.372,HW_LDT_1,2024.2.4,Win32,120.4819277,,,,,,,,,,,,,,,,,,,,,,,,,,,,,,,,,,,,,,,,,,,,,,,,,,,,,,,,,,,,,,,,,,,,,,,,,,,,,,,,,,,,,,,,,,,,,,,,,,,,,,,,,,,,,,,,,,,,,,,
,,,,32169,001,2025-10-17_00h52.48.372,HW_LDT_1,2024.2.4,Win32,120.4819277,0.4206,37.1181,,-0.094444444,-0.392777778,1,0,0,,0,0,0,0,1,1,instructions,"INSTRUCTIONS
At the start of each trial, look at the plus sign  (+) in the center of the screen.  This tells you that a trial is about to begin and where to look. Second, the plus sign will disappear and a string of letters will appear. Your task is to determine if the string of letters is a word or not. If the item is a word press the M key (on keyboard)  or touch the word button (phone/tablet).  If the item is not a word,  press the  Z key (on keyboard)  or touch the nonword button (on phone/tablet). The items will be presented for a short time. 
Press the space bar or touch  continue.",0,,,,,,,,,,,,,,,,,,,,,,,,,,,,,,,,,,,,,,,,,,,,,,,,,,,,,,,,,,,,,,,,,,,,,,,,,,,,,,,,,,,,,,,,,,,,,,,,,,,,,
,,,,32169,001,2025-10-17_00h52.48.372,HW_LDT_1,2024.2.4,Win32,120.4819277,37.1199,42.6011,space,-0.145,-0.107222222,0,0,0,,0,1,1,1,1,2,instructions,"If your device has a keyboard, press the 'Z' key for nonwords and the 'M' key for words.





Press the space bar or touch the button below to continue.",0,keyboard-example.gif,5.4523,,,,,,,,,,,,,,,,,,,,,,,,,,,,,,,,,,,,,,,,,,,,,,,,,,,,,,,,,,,,,,,,,,,,,,,,,,,,,,,,,,,,,,,,,,,,,,,,,,,
,,,,32169,001,2025-10-17_00h52.48.372,HW_LDT_1,2024.2.4,Win32,120.4819277,42.6027,44.1177,space,-0.145,-0.107222222,0,0,0,,0,2,2,2,1,3,instructions,"If you are using a touchscreen only device, use the buttons on the screen. Do not use the mouse.





Press the space bar or touch the button below to continue.",0,touchscreen-example.gif,1.4948,,,,,,,,,,,,,,,,,,,,,,,,,,,,,,,,,,,,,,,,,,,,,,,,,,,,,,,,,,,,,,,,,,,,,,,,,,,,,,,,,,,,,,,,,,,,,,,,,,,
,,,,32169,001,2025-10-17_00h52.48.372,HW_LDT_1,2024.2.4,Win32,120.4819277,44.1194,59.4051,space,-0.145,-0.107222222,0,0,0,,0,3,3,3,1,4,instructions,"It is very important that you respond as quickly and accurately as possible, as each letter string will only be on the screen for two seconds. If you do not respond within this time, the message 'Too slow!' will be displayed and the experiment will progress to the next letter string. The first 20 trials will be practice trials and you will receive feedback on your answers. 

Press the space bar or touch the button below to start the practice trials.",0,,15.2672,,,,,,,,,,,,,,,,,,,,,,,,,,,,,,,,,,,,,,,,,,,,,,,,,,,,,,,,,,,,,,,,,,,,,,,,,,,,,,,,,,,,,,,,,,,,,,,,,,,
,,,,32169,001,2025-10-17_00h52.48.372,HW_LDT_1,2024.2.4,Win32,120.4819277,,,,,,,,,,,,,,,,,,,,,,59.4181,59.6041,59.6043,60.101,60.1011,61.9678,m,1,1.8384,,[],[],[],[],[],[],[],1.8384,1,61.9681,62.4703,0,0,0,1,1,1002,WORD,"ID",33,adjust,ADJUST,m,,,,,,,,,,,,,,,,,,,,,,,,,,,,,,,,,,,,,,,,,,,,,,,,,,,,,,,,,,,,,,,,,
,,,,32169,001,2025-10-17_00h52.48.372,HW_LDT_1,2024.2.4,Win32,120.4819277,,,,,,,,,,,,,,,,,,,,,,62.4715,62.6676,62.6676,63.1675,63.1685,64.621,m,1,1.4335,,[],[],[],[],[],[],[],1.4335,1,64.6211,65.1208,0,1,1,5,1,1006,WORD,UN,33,frenzy,OBTAIN,m,,,,,,,,,,,,,,,,,,,,,,,,,,,,,,,,,,,,,,,,,,,,,,,,,,,,,,,,,,,,,,,,,
,,,,32169,001,2025-10-17_00h52.48.372,HW_LDT_1,2024.2.4,Win32,120.4819277,,,,,,,,,,,,,,,,,,,,,,65.1219,65.3209,65.3209,65.8175,65.8188,67.0342,m,1,1.1856,,[],[],[],[],[],[],[],1.1856,1,67.0343,67.5341,0,2,2,3,1,1004,WORD,"ID",16,matrix,MATRIX,m,,,,,,,,,,,,,,,,,,,,,,,,,,,,,,,,,,,,,,,,,,,,,,,,,,,,,,,,,,,,,,,,,
,,,,32169,001,2025-10-17_00h52.48.372,HW_LDT_1,2024.2.4,Win32,120.4819277,,,,,,,,,,,,,,,,,,,,,,67.5354,67.7341,67.7342,68.2343,68.2356,70.6842,m,0,2.4172,,[],[],[],[],[],[],[],2.4172,0,70.6848,71.1842,0,3,3,10,1,1011,NW,"ID",16,inlade,INLADE,z,,,,,,,,,,,,,,,,,,,,,,,,,,,,,,,,,,,,,,,,,,,,,,,,,,,,,,,,,,,,,,,,,
,,,,32169,001,2025-10-17_00h52.48.372,HW_LDT_1,2024.2.4,Win32,120.4819277,,,,,,,,,,,,,,,,,,,,,,71.1855,71.3842,71.3843,71.8842,71.8851,72.9509,m,1,1.0438,,[],[],[],[],[],[],[],1.0438,1,72.9517,73.451,0,4,4,0,1,1001,WORD,"ID",33,utopia,UTOPIA,m,,,,,,,,,,,,,,,,,,,,,,,,,,,,,,,,,,,,,,,,,,,,,,,,,,,,,,,,,,,,,,,,,
,,,,32169,001,2025-10-17_00h52.48.372,HW_LDT_1,2024.2.4,Win32,120.4819277,,,,,,,,,,,,,,,,,,,,,,73.4519,73.6508,73.6508,74.1508,74.1518,75.0176,z,1,0.8375,,[],[],[],[],[],[],[],0.8375,1,75.0177,75.5177,0,5,5,11,1,1012,NW,"ID",16,rashet,RASHET,z,,,,,,,,,,,,,,,,,,,,,,,,,,,,,,,,,,,,,,,,,,,,,,,,,,,,,,,,,,,,,,,,,
,,,,32169,001,2025-10-17_00h52.48.372,HW_LDT_1,2024.2.4,Win32,120.4819277,,,,,,,,,,,,,,,,,,,,,,75.519,75.7175,75.7175,76.2175,76.2178,77.5711,m,1,1.3337,,[],[],[],[],[],[],[],1.3337,1,77.5711,78.0676,0,6,6,6,1,1007,WORD,UN,16,tropic,ZOMBIE,m,,,,,,,,,,,,,,,,,,,,,,,,,,,,,,,,,,,,,,,,,,,,,,,,,,,,,,,,,,,,,,,,,
,,,,32169,001,2025-10-17_00h52.48.372,HW_LDT_1,2024.2.4,Win32,120.4819277,,,,,,,,,,,,,,,,,,,,,,78.069,78.2676,78.2676,78.7676,78.7683,79.6215,z,1,0.8335,,[],[],[],[],[],[],[],0.8335,1,79.6216,80.1176,0,7,7,15,1,1016,NW,UN,16,mushed,WHAISE,z,,,,,,,,,,,,,,,,,,,,,,,,,,,,,,,,,,,,,,,,,,,,,,,,,,,,,,,,,,,,,,,,,
,,,,32169,001,2025-10-17_00h52.48.372,HW_LDT_1,2024.2.4,Win32,120.4819277,,,,,,,,,,,,,,,,,,,,,,80.1189,80.3207,80.3207,80.8175,80.8178,81.8841,m,1,1.0368,,[],[],[],[],[],[],[],1.0368,1,81.8843,82.3873,0,8,8,2,1,1003,WORD,"ID",16,almond,ALMOND,m,,,,,,,,,,,,,,,,,,,,,,,,,,,,,,,,,,,,,,,,,,,,,,,,,,,,,,,,,,,,,,,,,
,,,,32169,001,2025-10-17_00h52.48.372,HW_LDT_1,2024.2.4,Win32,120.4819277,,,,,,,,,,,,,,,,,,,,,,82.3882,82.5874,82.5874,83.0842,83.0853,84.0174,z,1,0.9063,,[],[],[],[],[],[],[],0.9063,1,84.0176,84.5175,0,9,9,9,1,1010,NW,"ID",33,fariny,FARINY,z,,,,,,,,,,,,,,,,,,,,,,,,,,,,,,,,,,,,,,,,,,,,,,,,,,,,,,,,,,,,,,,,,
,,,,32169,001,2025-10-17_00h52.48.372,HW_LDT_1,2024.2.4,Win32,120.4819277,,,,,,,,,,,,,,,,,,,,,,84.5186,84.7175,84.7175,85.2174,85.2181,86.1675,z,1,0.9251,,[],[],[],[],[],[],[],0.9251,1,86.1676,86.6675,0,10,10,14,1,1015,NW,UN,16,miaber,THRALE,z,,,,,,,,,,,,,,,,,,,,,,,,,,,,,,,,,,,,,,,,,,,,,,,,,,,,,,,,,,,,,,,,,
,,,,32169,001,2025-10-17_00h52.48.372,HW_LDT_1,2024.2.4,Win32,120.4819277,,,,,,,,,,,,,,,,,,,,,,86.6684,86.8674,86.8674,87.3675,87.3679,88.5675,z,1,1.1718,,[],[],[],[],[],[],[],1.1718,1,88.5676,89.0677,0,11,11,12,1,1013,NW,UN,33,adveil,SPRINY,z,,,,,,,,,,,,,,,,,,,,,,,,,,,,,,,,,,,,,,,,,,,,,,,,,,,,,,,,,,,,,,,,,
,,,,32169,001,2025-10-17_00h52.48.372,HW_LDT_1,2024.2.4,Win32,120.4819277,,,,,,,,,,,,,,,,,,,,,,89.0687,89.2704,89.2704,89.7677,89.7682,90.6008,z,1,0.8066,,[],[],[],[],[],[],[],0.8066,1,90.6008,91.101,0,12,12,13,1,1014,NW,UN,33,winfer,ROUPET,z,,,,,,,,,,,,,,,,,,,,,,,,,,,,,,,,,,,,,,,,,,,,,,,,,,,,,,,,,,,,,,,,,
,,,,32169,001,2025-10-17_00h52.48.372,HW_LDT_1,2024.2.4,Win32,120.4819277,,,,,,,,,,,,,,,,,,,,,,91.102,91.301,91.301,91.8008,91.8019,92.3712,m,1,0.5498,,[],[],[],[],[],[],[],0.5498,1,92.3712,92.8706,0,13,13,7,1,1008,WORD,UN,16,hurdle,VOLUME,m,,,,,,,,,,,,,,,,,,,,,,,,,,,,,,,,,,,,,,,,,,,,,,,,,,,,,,,,,,,,,,,,,
,,,,32169,001,2025-10-17_00h52.48.372,HW_LDT_1,2024.2.4,Win32,120.4819277,,,,,,,,,,,,,,,,,,,,,,92.8714,93.0705,93.0705,93.5675,93.5681,94.6381,z,1,1.0505,,[],[],[],[],[],[],[],1.0505,1,94.6381,95.1341,0,14,14,8,1,1009,NW,"ID",33,aslert,ASLERT,z,,,,,,,,,,,,,,,,,,,,,,,,,,,,,,,,,,,,,,,,,,,,,,,,,,,,,,,,,,,,,,,,,
,,,,32169,001,2025-10-17_00h52.48.372,HW_LDT_1,2024.2.4,Win32,120.4819277,,,,,,,,,,,,,,,,,,,,,,95.1353,95.3342,95.3342,95.8342,95.8354,96.5846,m,1,0.7184,,[],[],[],[],[],[],[],0.7184,1,96.5846,97.0844,0,15,15,4,1,1005,WORD,UN,33,abound,SQUEAK,m,,,,,,,,,,,,,,,,,,,,,,,,,,,,,,,,,,,,,,,,,,,,,,,,,,,,,,,,,,,,,,,,,
,,,,32169,001,2025-10-17_00h52.48.372,HW_LDT_1,2024.2.4,Win32,120.4819277,,,,,,,,,,,,,,,1,end_of_practice,"You have completed the practice trials. During the experimental trials, you will not receive feedback. On some trials you will be asked to report whether the item you just saw was in cursive or print. 
Before you begin, please ensure that you are in a comfortable and quiet location and will not be disturbed for about 15 minutes, as we cannot use your data if you do not complete all the trials. 
 When you are ready to start the experimental trials, please press space or touch the button below.",,,,,,,,,,,,,,,,,,,,,,,,,,,,,,,,,,,,,,97.0874,112.1013,,-0.142222222,-0.377777778,1,0,0,instr_done_button_3,0,0,0,0,1,,,,,,,,,,,,,,,,,,,,,,,,,,,,,,,,,,,,,,,,,,,,,,,,,,,
,,,,32169,001,2025-10-17_00h52.48.372,HW_LDT_1,2024.2.4,Win32,120.4819277,,,,,,,,,,,,,,,,,,,,,,112.1058,112.3041,112.3041,112.8041,,,,,,,,,,,,,,1.5211,0,,,,,,,,,,,,,,m,,,,,,,,,,,,,,,1,0,112.8049,114.3345,z,0,1.5211,,[],[],[],[],[],[],[],114.3347,116.3343,116.3343,116.3366,[],[],[],[],[],[],[],,116.3367,116.3383,-0.198333333,-0.200555556,0,0,0,,0,0,0,150,1,1,word,SENTIMENT,cursive,sentiment_c.png,,,,,,
,,,,32169,001,2025-10-17_00h52.48.372,HW_LDT_1,2024.2.4,Win32,120.4819277,,,,,,,,,,,,,,,,,,,,,,116.3386,116.5342,116.5343,117.0342,,,,,,,,,,,,,,1.7429,1,,,,,,,,,,,,,,m,,,,,,,,,,,,,,,2,1,117.0344,118.7842,m,1,1.7429,,[],[],[],[],[],[],[],118.7844,120.7842,120.7842,123.351,[],[],[],[],[],[],[],m,123.3511,123.3512,-0.198333333,-0.200555556,0,0,0,,0,1,1,107,1,1,word,EVIDENT,print,evident_p.png,2.5533,,,,,
,,,,32169,001,2025-10-17_00h52.48.372,HW_LDT_1,2024.2.4,Win32,120.4819277,,,,,,,,,,,,,,,,,,,,,,123.3522,123.5508,123.5508,124.0511,,,,,,,,,,,,,,1.1869,1,,,,,,,,,,,,,,m,,,,,,,,,,,,,,,3,0,124.0516,125.2508,m,1,1.1869,,[],[],[],[],[],[],[],125.2509,127.2508,127.2508,127.2509,[],[],[],[],[],[],[],,127.2509,127.251,-0.198333333,-0.200555556,0,0,0,,0,2,2,86,1,1,word,BESIDE,print,beside_p.png,,,,,,
,,,,32169,001,2025-10-17_00h52.48.372,HW_LDT_1,2024.2.4,Win32,120.4819277,,,,,,,,,,,,,,,,,,,,,,127.2519,127.4541,127.4541,127.9539,,,,,,,,,,,,,,0.9661,1,,,,,,,,,,,,,,m,,,,,,,,,,,,,,,4,0,127.9545,128.9211,m,1,0.9661,,[],[],[],[],[],[],[],128.9211,130.9211,130.9211,130.9213,[],[],[],[],[],[],[],,130.9214,130.9215,-0.198333333,-0.200555556,0,0,0,,0,3,3,139,1,1,word,REGULAR,print,regular_p.png,,,,,,
,,,,32169,001,2025-10-17_00h52.48.372,HW_LDT_1,2024.2.4,Win32,120.4819277,,,,,,,,,,,,,,,,,,,,,,130.9222,131.1176,131.1176,131.6175,,,,,,,,,,,,,,0.8424,1,,,,,,,,,,,,,,m,,,,,,,,,,,,,,,5,0,131.6178,132.4676,m,1,0.8424,,[],[],[],[],[],[],[],132.4676,134.4674,134.4674,134.4675,[],[],[],[],[],[],[],,134.4675,134.4675,-0.198333333,-0.200555556,0,0,0,,0,4,4,121,1,1,word,MISTAKE,print,mistake_p.png,,,,,,
,,,,32169,001,2025-10-17_00h52.48.372,HW_LDT_1,2024.2.4,Win32,120.4819277,,,,,,,,,,,,,,,,,,,,,,134.4679,134.6706,134.6707,135.1675,,,,,,,,,,,,,,0.8857,1,,,,,,,,,,,,,,m,,,,,,,,,,,,,,,6,0,135.168,136.0543,m,1,0.8857,,[],[],[],[],[],[],[],136.0543,138.0511,138.0511,138.0514,[],[],[],[],[],[],[],,138.0515,138.0517,-0.198333333,-0.200555556,0,0,0,,0,5,5,108,1,1,word,FORTUNE,print,fortune_p.png,,,,,,
,,,,32169,001,2025-10-17_00h52.48.372,HW_LDT_1,2024.2.4,Win32,120.4819277,,,,,,,,,,,,,,,,,,,,,,138.0525,138.2508,138.2509,138.7509,,,,,,,,,,,,,,0.9881,1,,,,,,,,,,,,,,m,,,,,,,,,,,,,,,7,0,138.7514,139.7509,m,1,0.9881,,[],[],[],[],[],[],[],139.751,141.7508,141.7509,141.751,[],[],[],[],[],[],[],,141.7511,141.7511,-0.198333333,-0.200555556,0,0,0,,0,6,6,136,1,1,word,RADICAL,print,radical_p.png,,,,,,
,,,,32169,001,2025-10-17_00h52.48.372,HW_LDT_1,2024.2.4,Win32,120.4819277,,,,,,,,,,,,,,,,,,,,,,141.7519,141.9508,141.9508,142.4508,,,,,,,,,,,,,,1.8795,1,,,,,,,,,,,,,,z,,,,,,,,,,,,,,,8,0,142.4514,144.3341,z,1,1.8795,,[],[],[],[],[],[],[],144.3343,146.3342,146.3342,146.3344,[],[],[],[],[],[],[],,146.3345,146.3345,-0.198333333,-0.200555556,0,0,0,,0,7,7,43,1,1,TL,bedise,print,bedise_p.png,,,,,,
,,,,32169,001,2025-10-17_00h52.48.372,HW_LDT_1,2024.2.4,Win32,120.4819277,,,,,,,,,,,,,,,,,,,,,,146.3351,146.5342,146.5342,147.0342,,,,,,,,,,,,,,0.8357,1,,,,,,,,,,,,,,m,,,,,,,,,,,,,,,9,0,147.0348,147.8711,m,1,0.8357,,[],[],[],[],[],[],[],147.8712,149.8675,149.8675,149.8677,[],[],[],[],[],[],[],,149.8677,149.868,-0.198333333,-0.200555556,0,0,0,,0,8,8,158,1,1,word,VELOCITY,print,velocity_p.png,,,,,,
,,,,32169,001,2025-10-17_00h52.48.372,HW_LDT_1,2024.2.4,Win32,120.4819277,,,,,,,,,,,,,,,,,,,,,,149.8689,150.0675,150.0675,150.5675,,,,,,,,,,,,,,0.9979,1,,,,,,,,,,,,,,z,,,,,,,,,,,,,,,10,0,150.5678,151.5675,z,1,0.9979,,[],[],[],[],[],[],[],151.5675,153.5675,153.5675,153.5678,[],[],[],[],[],[],[],,153.5678,153.5679,-0.198333333,-0.200555556,0,0,0,,0,9,9,18,1,1,RL,mishafe,print,mishafe_p.png,,,,,,
,,,,32169,001,2025-10-17_00h52.48.372,HW_LDT_1,2024.2.4,Win32,120.4819277,,,,,,,,,,,,,,,,,,,,,,153.5687,153.7675,153.7675,154.2675,,,,,,,,,,,,,,2.5858,1,,,,,,,,,,,,,,z,,,,,,,,,,,,,,,11,0,154.268,156.8543,z,1,2.5858,,[],[],[],[],[],[],[],156.8544,158.8509,158.8509,158.8511,[],[],[],[],[],[],[],,158.8511,158.8512,-0.198333333,-0.200555556,0,0,0,,0,10,10,31,1,1,RL,reconal,cursive,reconal_c.png,,,,,,
,,,,32169,001,2025-10-17_00h52.48.372,HW_LDT_1,2024.2.4,Win32,120.4819277,,,,,,,,,,,,,,,,,,,,,,158.8521,159.0508,159.0508,159.5509,,,,,,,,,,,,,,2.0869,1,,,,,,,,,,,,,,m,,,,,,,,,,,,,,,12,0,159.5515,161.6508,m,1,2.0869,,[],[],[],[],[],[],[],161.6508,163.654,163.6541,163.6542,[],[],[],[],[],[],[],,163.6543,163.6544,-0.198333333,-0.200555556,0,0,0,,0,11,11,88,1,1,word,CAMERA,cursive,camera_c.png,,,,,,
,,,,32169,001,2025-10-17_00h52.48.372,HW_LDT_1,2024.2.4,Win32,120.4819277,,,,,,,,,,,,,,,,,,,,,,163.6549,163.8508,163.8509,164.3508,,,,,,,,,,,,,,2.4293,1,,,,,,,,,,,,,,z,,,,,,,,,,,,,,,13,0,164.3512,166.7842,z,1,2.4293,,[],[],[],[],[],[],[],166.7842,168.7842,168.7842,168.7845,[],[],[],[],[],[],[],,168.7846,168.7846,-0.198333333,-0.200555556,0,0,0,,0,12,12,75,1,1,TL,speficic,cursive,speficic_c.png,,,,,,
,,,,32169,001,2025-10-17_00h52.48.372,HW_LDT_1,2024.2.4,Win32,120.4819277,,,,,,,,,,,,,,,,,,,,,,168.7855,168.9842,168.9842,169.4842,,,,,,,,,,,,,,3.6639,1,,,,,,,,,,,,,,m,,,,,,,,,,,,,,,14,0,169.4845,173.1507,m,1,3.6639,,[],[],[],[],[],[],[],173.1508,175.1509,175.1509,175.151,[],[],[],[],[],[],[],,175.151,175.151,-0.198333333,-0.200555556,0,0,0,,0,13,13,105,1,1,word,EDITOR,cursive,editor_c.png,,,,,,
,,,,32169,001,2025-10-17_00h52.48.372,HW_LDT_1,2024.2.4,Win32,120.4819277,,,,,,,,,,,,,,,,,,,,,,175.152,175.3536,175.3537,175.8541,,,,,,,,,,,,,,1.6826,1,,,,,,,,,,,,,,z,,,,,,,,,,,,,,,15,1,175.8545,177.5509,z,1,1.6826,,[],[],[],[],[],[],[],177.551,179.5509,179.551,182.1177,[],[],[],[],[],[],[],m,182.1177,182.1178,-0.198333333,-0.200555556,0,0,0,,0,14,14,13,1,1,RL,linefal,print,linefal_p.png,2.5532,,,,,
,,,,32169,001,2025-10-17_00h52.48.372,HW_LDT_1,2024.2.4,Win32,120.4819277,,,,,,,,,,,,,,,,,,,,,,182.1187,182.3175,182.3175,182.8176,,,,,,,,,,,,,,4.8193,0,,,,,,,,,,,,,,m,,,,,,,,,,,,,,,16,0,182.8179,187.6512,z,0,4.8193,,[],[],[],[],[],[],[],187.6512,189.6509,189.651,189.6511,[],[],[],[],[],[],[],,189.6511,189.6512,-0.198333333,-0.200555556,0,0,0,,0,15,15,125,1,1,word,OPERATOR,cursive,operator_c.png,,,,,,
,,,,32169,001,2025-10-17_00h52.48.372,HW_LDT_1,2024.2.4,Win32,120.4819277,,,,,,,,,,,,,,,,,,,,,,189.6523,189.8541,189.8541,190.3534,,,,,,,,,,,,,,4.4854,0,,,,,,,,,,,,,,z,,,,,,,,,,,,,,,17,0,190.3539,194.8508,m,0,4.4854,,[],[],[],[],[],[],[],194.8509,196.8539,196.854,196.8542,[],[],[],[],[],[],[],,196.8542,196.8543,-0.198333333,-0.200555556,0,0,0,,0,16,16,36,1,1,RL,speniven,cursive,speniven_c.png,,,,,,
,,,,32169,001,2025-10-17_00h52.48.372,HW_LDT_1,2024.2.4,Win32,120.4819277,,,,,,,,,,,,,,,,,,,,,,196.8549,197.051,197.051,197.5509,,,,,,,,,,,,,,1.795,0,,,,,,,,,,,,,,z,,,,,,,,,,,,,,,18,0,197.5514,199.3509,m,0,1.795,,[],[],[],[],[],[],[],199.351,201.3507,201.3509,201.3509,[],[],[],[],[],[],[],,201.3509,201.351,-0.198333333,-0.200555556,0,0,0,,0,17,17,71,1,1,TL,regilion,cursive,regilion_c.png,,,,,,
,,,,32169,001,2025-10-17_00h52.48.372,HW_LDT_1,2024.2.4,Win32,120.4819277,,,,,,,,,,,,,,,,,,,,,,201.3521,201.5508,201.5508,202.0509,,,,,,,,,,,,,,1.0593,1,,,,,,,,,,,,,,m,,,,,,,,,,,,,,,19,0,202.0513,203.1175,m,1,1.0593,,[],[],[],[],[],[],[],203.1176,205.1175,205.1175,205.1178,[],[],[],[],[],[],[],,205.1178,205.1179,-0.198333333,-0.200555556,0,0,0,,0,18,18,84,1,1,word,BELOVED,print,beloved_p.png,,,,,,
,,,,32169,001,2025-10-17_00h52.48.372,HW_LDT_1,2024.2.4,Win32,120.4819277,,,,,,,,,,,,,,,,,,,,,,205.119,205.3208,205.3209,205.8175,,,,,,,,,,,,,,0.8867,1,,,,,,,,,,,,,,z,,,,,,,,,,,,,,,20,0,205.818,206.7174,z,1,0.8867,,[],[],[],[],[],[],[],206.7176,208.7175,208.7175,208.7175,[],[],[],[],[],[],[],,208.7176,208.7176,-0.198333333,-0.200555556,0,0,0,,0,19,19,34,1,1,RL,samite,print,samite_p.png,,,,,,
,,,,32169,001,2025-10-17_00h52.48.372,HW_LDT_1,2024.2.4,Win32,120.4819277,,,,,,,,,,,,,,,,,,,,,,208.7187,208.9175,208.9175,209.4175,,,,,,,,,,,,,,0.7026,1,,,,,,,,,,,,,,z,,,,,,,,,,,,,,,21,0,209.4179,210.1342,z,1,0.7026,,[],[],[],[],[],[],[],210.1342,212.1342,212.1342,212.1344,[],[],[],[],[],[],[],,212.1344,212.1345,-0.198333333,-0.200555556,0,0,0,,0,20,20,55,1,1,TL,fornute,print,fornute_p.png,,,,,,
,,,,32169,001,2025-10-17_00h52.48.372,HW_LDT_1,2024.2.4,Win32,120.4819277,,,,,,,,,,,,,,,,,,,,,,212.1354,212.334,212.3341,212.8341,,,,,,,,,,,,,,4.5472,1,,,,,,,,,,,,,,z,,,,,,,,,,,,,,,22,0,212.8345,217.3841,z,1,4.5472,,[],[],[],[],[],[],[],217.3842,219.3842,219.3842,219.3843,[],[],[],[],[],[],[],,219.3844,219.3845,-0.198333333,-0.200555556,0,0,0,,0,21,21,50,1,1,TL,condiser,cursive,condiser_c.png,,,,,,
,,,,32169,001,2025-10-17_00h52.48.372,HW_LDT_1,2024.2.4,Win32,120.4819277,,,,,,,,,,,,,,,,,,,,,,219.3854,219.5841,219.5841,220.0878,,,,,,,,,,,,,,1.0029,1,,,,,,,,,,,,,,m,,,,,,,,,,,,,,,23,1,220.0882,221.101,m,1,1.0029,,[],[],[],[],[],[],[],221.101,223.1008,223.1009,226.8509,[],[],[],[],[],[],[],m,226.8509,226.851,-0.198333333,-0.200555556,0,0,0,,0,22,22,116,1,1,word,MARGINAL,print,marginal_p.png,3.7485,,,,,
,,,,32169,001,2025-10-17_00h52.48.372,HW_LDT_1,2024.2.4,Win32,120.4819277,,,,,,,,,,,,,,,,,,,,,,226.8517,227.0511,227.0512,227.5509,,,,,,,,,,,,,,5.3889,1,,,,,,,,,,,,,,z,,,,,,,,,,,,,,,24,0,227.5512,232.9509,z,1,5.3889,,[],[],[],[],[],[],[],232.9509,234.954,234.954,234.9541,[],[],[],[],[],[],[],,234.9542,234.9543,-0.198333333,-0.200555556,0,0,0,,0,23,23,5,1,1,RL,cobeny,cursive,cobeny_c.png,,,,,,
,,,,32169,001,2025-10-17_00h52.48.372,HW_LDT_1,2024.2.4,Win32,120.4819277,,,,,,,,,,,,,,,,,,,,,,234.955,235.154,235.154,235.6508,,,,,,,,,,,,,,1.2192,1,,,,,,,,,,,,,,m,,,,,,,,,,,,,,,25,1,235.6512,236.8842,m,1,1.2192,,[],[],[],[],[],[],[],236.8842,238.8841,238.8841,240.4841,[],[],[],[],[],[],[],m,240.4841,240.4842,-0.198333333,-0.200555556,0,0,0,,0,24,24,83,1,1,word,ANIMAL,print,animal_p.png,1.5955,,,,,
,,,,32169,001,2025-10-17_00h52.48.372,HW_LDT_1,2024.2.4,Win32,120.4819277,,,,,,,,,,,,,,,,,,,,,,240.485,240.6842,240.6842,241.1842,,,,,,,,,,,,,,2.356,1,,,,,,,,,,,,,,z,,,,,,,,,,,,,,,26,0,241.1846,243.5508,z,1,2.356,,[],[],[],[],[],[],[],243.5509,245.5508,245.5508,245.5509,[],[],[],[],[],[],[],,245.5509,245.551,-0.198333333,-0.200555556,0,0,0,,0,25,25,45,1,1,TL,cacapity,print,cacapity_p.png,,,,,,
,,,,32169,001,2025-10-17_00h52.48.372,HW_LDT_1,2024.2.4,Win32,120.4819277,,,,,,,,,,,,,,,,,,,,,,245.5519,245.7539,245.754,246.2508,,,,,,,,,,,,,,1.0361,1,,,,,,,,,,,,,,m,,,,,,,,,,,,,,,27,0,246.2512,247.3008,m,1,1.0361,,[],[],[],[],[],[],[],247.3009,249.3008,249.3009,249.301,[],[],[],[],[],[],[],,249.301,249.301,-0.198333333,-0.200555556,0,0,0,,0,26,26,132,1,1,word,PROPOSAL,cursive,proposal_c.png,,,,,,
,,,,32169,001,2025-10-17_00h52.48.372,HW_LDT_1,2024.2.4,Win32,120.4819277,,,,,,,,,,,,,,,,,,,,,,249.3017,249.5007,249.5008,250.0009,,,,,,,,,,,,,,0.9436,1,,,,,,,,,,,,,,m,,,,,,,,,,,,,,,28,0,250.0012,250.9508,m,1,0.9436,,[],[],[],[],[],[],[],250.9508,252.9508,252.9509,252.9512,[],[],[],[],[],[],[],,252.9512,252.9513,-0.198333333,-0.200555556,0,0,0,,0,27,27,100,1,1,word,DECADE,print,decade_p.png,,,,,,
,,,,32169,001,2025-10-17_00h52.48.372,HW_LDT_1,2024.2.4,Win32,120.4819277,,,,,,,,,,,,,,,,,,,,,,252.952,253.1508,253.1508,253.6534,,,,,,,,,,,,,,4.2357,0,,,,,,,,,,,,,,z,,,,,,,,,,,,,,,29,0,253.6538,257.9007,m,0,4.2357,,[],[],[],[],[],[],[],257.9008,259.9007,259.9008,259.9009,[],[],[],[],[],[],[],,259.901,259.9012,-0.198333333,-0.200555556,0,0,0,,0,28,28,17,1,1,RL,menowy,cursive,menowy_c.png,,,,,,
,,,,32169,001,2025-10-17_00h52.48.372,HW_LDT_1,2024.2.4,Win32,120.4819277,,,,,,,,,,,,,,,,,,,,,,259.9023,260.1046,260.1047,260.6008,,,,,,,,,,,,,,1.7952,0,,,,,,,,,,,,,,z,,,,,,,,,,,,,,,30,0,260.6012,262.4008,m,0,1.7952,,[],[],[],[],[],[],[],262.4009,264.4037,264.4037,264.4038,[],[],[],[],[],[],[],,264.4039,264.404,-0.198333333,-0.200555556,0,0,0,,0,29,29,51,1,1,TL,corevage,print,corevage_p.png,,,,,,
,,,,32169,001,2025-10-17_00h52.48.372,HW_LDT_1,2024.2.4,Win32,120.4819277,,,,,,,,,,,,,,,,,,,,,,264.4047,264.6008,264.6009,265.1042,,,,,,,,,,,,,,1.1894,1,,,,,,,,,,,,,,m,,,,,,,,,,,,,,,31,0,265.1045,266.3009,m,1,1.1894,,[],[],[],[],[],[],[],266.301,268.3009,268.301,268.3011,[],[],[],[],[],[],[],,268.3011,268.3012,-0.198333333,-0.200555556,0,0,0,,0,30,30,91,1,1,word,CARDINAL,print,cardinal_p.png,,,,,,
,,,,32169,001,2025-10-17_00h52.48.372,HW_LDT_1,2024.2.4,Win32,120.4819277,,,,,,,,,,,,,,,,,,,,,,268.3025,268.504,268.5041,269.0007,,,,,,,,,,,,,,2.4737,1,,,,,,,,,,,,,,z,,,,,,,,,,,,,,,32,0,269.0011,271.4842,z,1,2.4737,,[],[],[],[],[],[],[],271.4842,273.4868,273.4868,273.487,[],[],[],[],[],[],[],,273.487,273.487,-0.198333333,-0.200555556,0,0,0,,0,31,31,74,1,1,TL,setanor,cursive,setanor_c.png,,,,,,
,,,,32169,001,2025-10-17_00h52.48.372,HW_LDT_1,2024.2.4,Win32,120.4819277,,,,,,,,,,,,,,,,,,,,,,273.4877,273.6872,273.6873,274.1841,,,,,,,,,,,,,,1.5858,1,,,,,,,,,,,,,,m,,,,,,,,,,,,,,,33,0,274.1847,275.7711,m,1,1.5858,,[],[],[],[],[],[],[],275.7711,277.7674,277.7674,277.7675,[],[],[],[],[],[],[],,277.7675,277.7675,-0.198333333,-0.200555556,0,0,0,,0,32,32,85,1,1,word,BENEFIT,print,benefit_p.png,,,,,,
,,,,32169,001,2025-10-17_00h52.48.372,HW_LDT_1,2024.2.4,Win32,120.4819277,,,,,,,,,,,,,,,,,,,,,,277.7686,277.9704,277.9704,278.4675,,,,,,,,,,,,,,1.9132,1,,,,,,,,,,,,,,z,,,,,,,,,,,,,,,34,0,278.4678,280.3841,z,1,1.9132,,[],[],[],[],[],[],[],280.3842,282.3842,282.3842,282.3844,[],[],[],[],[],[],[],,282.3844,282.3846,-0.198333333,-0.200555556,0,0,0,,0,33,33,79,1,1,TL,veretan,print,veretan_p.png,,,,,,
,,,,32169,001,2025-10-17_00h52.48.372,HW_LDT_1,2024.2.4,Win32,120.4819277,,,,,,,,,,,,,,,,,,,,,,282.3855,282.5873,282.5873,283.0841,,,,,,,,,,,,,,1.5701,1,,,,,,,,,,,,,,m,,,,,,,,,,,,,,,35,0,283.0845,284.6674,m,1,1.5701,,[],[],[],[],[],[],[],284.6675,286.6674,286.6674,286.6675,[],[],[],[],[],[],[],,286.6676,286.6676,-0.198333333,-0.200555556,0,0,0,,0,34,34,113,1,1,word,LITERAL,print,literal_p.png,,,,,,
,,,,32169,001,2025-10-17_00h52.48.372,HW_LDT_1,2024.2.4,Win32,120.4819277,,,,,,,,,,,,,,,,,,,,,,286.6686,286.8674,286.8674,287.3674,,,,,,,,,,,,,,2.7703,0,,,,,,,,,,,,,,m,,,,,,,,,,,,,,,36,0,287.3678,290.1507,z,0,2.7703,,[],[],[],[],[],[],[],290.1508,292.1508,292.1508,292.1509,[],[],[],[],[],[],[],,292.1509,292.151,-0.198333333,-0.200555556,0,0,0,,0,35,35,103,1,1,word,DISPUTE,cursive,dispute_c.png,,,,,,
,,,,32169,001,2025-10-17_00h52.48.372,HW_LDT_1,2024.2.4,Win32,120.4819277,,,,,,,,,,,,,,,,,,,,,,292.152,292.3507,292.3508,292.8508,,,,,,,,,,,,,,4.0637,0,,,,,,,,,,,,,,m,,,,,,,,,,,,,,,37,0,292.8511,296.9173,z,0,4.0637,,[],[],[],[],[],[],[],296.9174,298.9174,298.9175,298.9176,[],[],[],[],[],[],[],,298.9176,298.9177,-0.198333333,-0.200555556,0,0,0,,0,36,36,87,1,1,word,CAFETERIA,cursive,cafeteria_c.png,,,,,,
,,,,32169,001,2025-10-17_00h52.48.372,HW_LDT_1,2024.2.4,Win32,120.4819277,,,,,,,,,,,,,,,,,,,,,,298.9186,299.1175,299.1175,299.6174,,,,,,,,,,,,,,4.9193,1,,,,,,,,,,,,,,m,,,,,,,,,,,,,,,38,1,299.6176,304.5508,m,1,4.9193,,[],[],[],[],[],[],[],304.5509,306.5507,306.5508,309.201,[],[],[],[],[],[],[],z,309.201,309.2011,-0.198333333,-0.200555556,0,0,0,,0,37,37,146,1,1,word,RETIRE,cursive,retire_c.png,2.6372,,,,,
,,,,32169,001,2025-10-17_00h52.48.372,HW_LDT_1,2024.2.4,Win32,120.4819277,,,,,,,,,,,,,,,,,,,,,,309.202,309.4008,309.4009,309.9009,,,,,,,,,,,,,,1.1856,1,,,,,,,,,,,,,,z,,,,,,,,,,,,,,,39,0,309.9013,311.0875,z,1,1.1856,,[],[],[],[],[],[],[],311.0876,313.0841,313.0841,313.0842,[],[],[],[],[],[],[],,313.0842,313.0842,-0.198333333,-0.200555556,0,0,0,,0,38,38,27,1,1,RL,rasibal,print,rasibal_p.png,,,,,,
,,,,32169,001,2025-10-17_00h52.48.372,HW_LDT_1,2024.2.4,Win32,120.4819277,,,,,,,,,,,,,,,,,,,,,,313.0851,313.2841,313.2842,313.7841,,,,,,,,,,,,,,1.6024,1,,,,,,,,,,,,,,m,,,,,,,,,,,,,,,40,0,313.7846,315.3877,m,1,1.6024,,[],[],[],[],[],[],[],315.3877,317.3843,317.3843,317.3844,[],[],[],[],[],[],[],,317.3844,317.3845,-0.198333333,-0.200555556,0,0,0,,0,39,39,157,1,1,word,VALIDITY,cursive,validity_c.png,,,,,,
,,,,32169,001,2025-10-17_00h52.48.372,HW_LDT_1,2024.2.4,Win32,120.4819277,,,,,,,,,,,,,,,,,,,,,,317.3859,317.5872,317.5873,318.0866,,,,,,,,,,,,,,1.9116,1,,,,,,,,,,,,,,m,,,,,,,,,,,,,,,41,0,318.0869,320.0008,m,1,1.9116,,[],[],[],[],[],[],[],320.0008,322.0009,322.0009,322.0011,[],[],[],[],[],[],[],,322.0011,322.0011,-0.198333333,-0.200555556,0,0,0,,0,40,40,152,1,1,word,SPECIMEN,cursive,specimen_c.png,,,,,,
,,,,32169,001,2025-10-17_00h52.48.372,HW_LDT_1,2024.2.4,Win32,120.4819277,,,,,,,,,,,,,,,,,,,,,,322.0019,322.2008,322.2009,322.7039,,,,,,,,,,,,,,1.0327,1,,,,,,,,,,,,,,z,,,,,,,,,,,,,,,42,0,322.7044,323.7374,z,1,1.0327,,[],[],[],[],[],[],[],323.7375,325.7341,325.7342,325.7343,[],[],[],[],[],[],[],,325.7343,325.7344,-0.198333333,-0.200555556,0,0,0,,0,41,41,11,1,1,RL,elacodate,print,elacodate_p.png,,,,,,
,,,,32169,001,2025-10-17_00h52.48.372,HW_LDT_1,2024.2.4,Win32,120.4819277,,,,,,,,,,,,,,,,,,,,,,325.7352,325.9341,325.9341,326.4341,,,,,,,,,,,,,,1.4329,1,,,,,,,,,,,,,,m,,,,,,,,,,,,,,,43,0,326.4343,327.8676,m,1,1.4329,,[],[],[],[],[],[],[],327.8676,329.8699,329.8699,329.87,[],[],[],[],[],[],[],,329.87,329.87,-0.198333333,-0.200555556,0,0,0,,0,42,42,97,1,1,word,COVERAGE,print,coverage_p.png,,,,,,
,,,,32169,001,2025-10-17_00h52.48.372,HW_LDT_1,2024.2.4,Win32,120.4819277,,,,,,,,,,,,,,,,,,,,,,329.8707,330.0675,330.0675,330.5675,,,,,,,,,,,,,,1.6895,1,,,,,,,,,,,,,,m,,,,,,,,,,,,,,,44,0,330.5677,332.2678,m,1,1.6895,,[],[],[],[],[],[],[],332.2678,334.2675,334.2675,334.2676,[],[],[],[],[],[],[],,334.2676,334.2678,-0.198333333,-0.200555556,0,0,0,,0,43,43,129,1,1,word,PARENT,cursive,parent_c.png,,,,,,
,,,,32169,001,2025-10-17_00h52.48.372,HW_LDT_1,2024.2.4,Win32,120.4819277,,,,,,,,,,,,,,,,,,,,,,334.2687,334.4675,334.4676,334.9674,,,,,,,,,,,,,,1.5718,0,,,,,,,,,,,,,,m,,,,,,,,,,,,,,,45,0,334.9678,336.5508,z,0,1.5718,,[],[],[],[],[],[],[],336.5508,338.5509,338.5509,338.551,[],[],[],[],[],[],[],,338.5512,338.5512,-0.198333333,-0.200555556,0,0,0,,0,44,44,149,1,1,word,SENATOR,cursive,senator_c.png,,,,,,
,,,,32169,001,2025-10-17_00h52.48.372,HW_LDT_1,2024.2.4,Win32,120.4819277,,,,,,,,,,,,,,,,,,,,,,338.5521,338.7508,338.7509,339.2511,,,,,,,,,,,,,,1.2191,0,,,,,,,,,,,,,,z,,,,,,,,,,,,,,,46,0,339.2514,340.471,m,0,1.2191,,[],[],[],[],[],[],[],340.471,342.4673,342.4674,342.4676,[],[],[],[],[],[],[],,342.4677,342.4678,-0.198333333,-0.200555556,0,0,0,,0,45,45,41,1,1,TL,bevoled,print,bevoled_p.png,,,,,,
,,,,32169,001,2025-10-17_00h52.48.372,HW_LDT_1,2024.2.4,Win32,120.4819277,,,,,,,,,,,,,,,,,,,,,,342.4687,342.6675,342.6675,343.1674,,,,,,,,,,,,,,2.2283,1,,,,,,,,,,,,,,m,,,,,,,,,,,,,,,47,1,343.1678,345.4009,m,1,2.2283,,[],[],[],[],[],[],[],345.401,347.4009,347.4009,349.3507,[],[],[],[],[],[],[],z,349.351,349.3511,-0.198333333,-0.200555556,0,0,0,,0,46,46,134,1,1,word,QUALIFY,cursive,qualify_c.png,1.9474,,,,,
,,,,32169,001,2025-10-17_00h52.48.372,HW_LDT_1,2024.2.4,Win32,120.4819277,,,,,,,,,,,,,,,,,,,,,,349.352,349.5507,349.5508,350.0508,,,,,,,,,,,,,,1.56,1,,,,,,,,,,,,,,z,,,,,,,,,,,,,,,48,0,350.0512,351.6174,z,1,1.56,,[],[],[],[],[],[],[],351.6174,353.6174,353.6175,353.6176,[],[],[],[],[],[],[],,353.6176,353.6177,-0.198333333,-0.200555556,0,0,0,,0,47,47,19,1,1,RL,monebate,print,monebate_p.png,,,,,,
,,,,32169,001,2025-10-17_00h52.48.372,HW_LDT_1,2024.2.4,Win32,120.4819277,,,,,,,,,,,,,,,,,,,,,,353.6187,353.8174,353.8174,354.3174,,,,,,,,,,,,,,3.1322,1,,,,,,,,,,,,,,z,,,,,,,,,,,,,,,49,0,354.3176,357.4509,z,1,3.1322,,[],[],[],[],[],[],[],357.4509,359.4507,359.4507,359.4509,[],[],[],[],[],[],[],,359.4509,359.451,-0.198333333,-0.200555556,0,0,0,,0,48,48,68,1,1,TL,prosopal,cursive,prosopal_c.png,,,,,,
,,,,32169,001,2025-10-17_00h52.48.372,HW_LDT_1,2024.2.4,Win32,120.4819277,,,,,,,,,,,,,,,,,,,,,,359.4522,359.6507,359.6507,360.1507,,,,,,,,,,,,,,0.9409,1,,,,,,,,,,,,,,z,,,,,,,,,,,,,,,50,0,360.1513,361.1008,z,1,0.9409,,[],[],[],[],[],[],[],361.1008,363.1007,363.1007,363.1008,[],[],[],[],[],[],[],,363.1008,363.1009,-0.198333333,-0.200555556,0,0,0,,0,49,49,32,1,1,RL,rebicent,print,rebicent_p.png,,,,,,
,,,,32169,001,2025-10-17_00h52.48.372,HW_LDT_1,2024.2.4,Win32,120.4819277,,,,,,,,,,,,,,,,,,,,,,363.1017,363.304,363.304,363.804,,,,,,,,,,,,,,0.8523,1,,,,,,,,,,,,,,m,,,,,,,,,,,,,,,51,1,363.8043,364.6675,m,1,0.8523,,[],[],[],[],[],[],[],364.6675,366.6674,366.6674,368.7377,[],[],[],[],[],[],[],z,368.7377,368.7379,-0.198333333,-0.200555556,0,0,0,,0,50,50,141,1,1,word,RELIGION,cursive,religion_c.png,2.0701,,,,,
,,,,32169,001,2025-10-17_00h52.48.372,HW_LDT_1,2024.2.4,Win32,120.4819277,,,,,,,,,,,,,,,,,,,,,,368.7384,368.937,368.937,369.4376,,,,,,,,,,,,,,3.3667,1,,,,,,,,,,,,,,z,,,,,,,,,,,,,,,52,1,369.4381,372.8176,z,1,3.3667,,[],[],[],[],[],[],[],372.8176,374.82,374.82,376.3345,[],[],[],[],[],[],[],z,376.3345,376.3345,-0.198333333,-0.200555556,0,0,0,,0,51,51,29,1,1,RL,refakive,cursive,refakive_c.png,1.5117,,,,,
,,,,32169,001,2025-10-17_00h52.48.372,HW_LDT_1,2024.2.4,Win32,120.4819277,,,,,,,,,,,,,,,,,,,,,,376.3355,376.5341,376.5342,377.034,,,,,,,,,,,,,,4.0694,1,,,,,,,,,,,,,,z,,,,,,,,,,,,,,,53,0,377.0344,381.1174,z,1,4.0694,,[],[],[],[],[],[],[],381.1177,383.1202,383.1203,383.1204,[],[],[],[],[],[],[],,383.1205,383.1206,-0.198333333,-0.200555556,0,0,0,,0,52,52,59,1,1,TL,lirebal,cursive,lirebal_c.png,,,,,,
,,,,32169,001,2025-10-17_00h52.48.372,HW_LDT_1,2024.2.4,Win32,120.4819277,,,,,,,,,,,,,,,,,,,,,,383.1214,383.3175,383.3175,383.8175,,,,,,,,,,,,,,1.9856,1,,,,,,,,,,,,,,m,,,,,,,,,,,,,,,54,0,383.8178,385.804,m,1,1.9856,,[],[],[],[],[],[],[],385.8042,387.804,387.8041,387.8042,[],[],[],[],[],[],[],,387.8042,387.8043,-0.198333333,-0.200555556,0,0,0,,0,53,53,155,1,1,word,STRATEGY,cursive,strategy_c.png,,,,,,
,,,,32169,001,2025-10-17_00h52.48.372,HW_LDT_1,2024.2.4,Win32,120.4819277,,,,,,,,,,,,,,,,,,,,,,387.8051,388.0039,388.0039,388.5009,,,,,,,,,,,,,,2.286,1,,,,,,,,,,,,,,z,,,,,,,,,,,,,,,55,0,388.501,390.7875,z,1,2.286,,[],[],[],[],[],[],[],390.7875,392.7865,392.7866,392.7866,[],[],[],[],[],[],[],,392.7866,392.7867,-0.198333333,-0.200555556,0,0,0,,0,54,54,25,1,1,RL,quakity,cursive,quakity_c.png,,,,,,
,,,,32169,001,2025-10-17_00h52.48.372,HW_LDT_1,2024.2.4,Win32,120.4819277,,,,,,,,,,,,,,,,,,,,,,392.7875,392.9842,392.9842,393.4841,,,,,,,,,,,,,,3.6029,1,,,,,,,,,,,,,,z,,,,,,,,,,,,,,,56,0,393.4845,397.0878,z,1,3.6029,,[],[],[],[],[],[],[],397.0879,399.0841,399.0841,399.0843,[],[],[],[],[],[],[],,399.0844,399.0845,-0.198333333,-0.200555556,0,0,0,,0,55,55,62,1,1,TL,mitilary,print,mitilary_p.png,,,,,,
,,,,32169,001,2025-10-17_00h52.48.372,HW_LDT_1,2024.2.4,Win32,120.4819277,,,,,,,,,,,,,,,,,,,,,,399.0855,399.284,399.284,399.7841,,,,,,,,,,,,,,4.8065,1,,,,,,,,,,,,,,z,,,,,,,,,,,,,,,57,1,399.7845,404.601,z,1,4.8065,,[],[],[],[],[],[],[],404.6011,406.6007,406.6007,407.7841,[],[],[],[],[],[],[],z,407.7841,407.7842,-0.198333333,-0.200555556,0,0,0,,0,56,56,15,1,1,RL,losipal,cursive,losipal_c.png,1.1718,,,,,
,,,,32169,001,2025-10-17_00h52.48.372,HW_LDT_1,2024.2.4,Win32,120.4819277,,,,,,,,,,,,,,,,,,,,,,407.7849,407.9841,407.9841,408.4842,,,,,,,,,,,,,,1.6755,0,,,,,,,,,,,,,,z,,,,,,,,,,,,,,,58,0,408.4844,410.1674,m,0,1.6755,,[],[],[],[],[],[],[],410.1675,412.1675,412.1676,412.1676,[],[],[],[],[],[],[],,412.1676,412.1677,-0.198333333,-0.200555556,0,0,0,,0,57,57,61,1,1,TL,mecidine,cursive,mecidine_c.png,,,,,,
,,,,32169,001,2025-10-17_00h52.48.372,HW_LDT_1,2024.2.4,Win32,120.4819277,,,,,,,,,,,,,,,,,,,,,,412.1687,412.3676,412.3677,412.8674,,,,,,,,,,,,,,3.898,0,,,,,,,,,,,,,,z,,,,,,,,,,,,,,,59,0,412.868,416.7674,m,0,3.898,,[],[],[],[],[],[],[],416.7675,418.7674,418.7674,418.7675,[],[],[],[],[],[],[],,418.7675,418.7677,-0.198333333,-0.200555556,0,0,0,,0,58,58,64,1,1,TL,orepator,cursive,orepator_c.png,,,,,,
,,,,32169,001,2025-10-17_00h52.48.372,HW_LDT_1,2024.2.4,Win32,120.4819277,,,,,,,,,,,,,,,,,,,,,,418.7686,418.9674,418.9674,419.4674,,,,,,,,,,,,,,2.1565,1,,,,,,,,,,,,,,m,,,,,,,,,,,,,,,60,0,419.4677,421.6341,m,1,2.1565,,[],[],[],[],[],[],[],421.6341,423.6341,423.6342,423.6343,[],[],[],[],[],[],[],,423.6343,423.6343,-0.198333333,-0.200555556,0,0,0,,0,59,59,117,1,1,word,MARINE,print,marine_p.png,,,,,,
,,,,32169,001,2025-10-17_00h52.48.372,HW_LDT_1,2024.2.4,Win32,120.4819277,,,,,,,,,,,,,,,,,,,,,,423.6354,423.8341,423.8341,424.334,,,,,,,,,,,,,,2.1743,1,,,,,,,,,,,,,,z,,,,,,,,,,,,,,,61,0,424.3345,426.5176,z,1,2.1743,,[],[],[],[],[],[],[],426.5177,428.5174,428.5174,428.5176,[],[],[],[],[],[],[],,428.5176,428.5177,-0.198333333,-0.200555556,0,0,0,,0,60,60,63,1,1,TL,molibe,cursive,molibe_c.png,,,,,,
,,,,32169,001,2025-10-17_00h52.48.372,HW_LDT_1,2024.2.4,Win32,120.4819277,,,,,,,,,,,,,,,,,,,,,,428.5185,428.7176,428.7176,429.2175,,,,,,,,,,,,,,0.9208,0,,,,,,,,,,,,,,m,,,,,,,,,,,,,,,62,0,429.2177,430.1507,z,0,0.9208,,[],[],[],[],[],[],[],430.1507,432.1539,432.1539,432.154,[],[],[],[],[],[],[],,432.1541,432.1541,-0.198333333,-0.200555556,0,0,0,,0,61,61,122,1,1,word,MOBILE,cursive,mobile_c.png,,,,,,
,,,,32169,001,2025-10-17_00h52.48.372,HW_LDT_1,2024.2.4,Win32,120.4819277,,,,,,,,,,,,,,,,,,,,,,432.1548,432.3509,432.3509,432.8508,,,,,,,,,,,,,,1.2409,0,,,,,,,,,,,,,,z,,,,,,,,,,,,,,,63,0,432.8515,434.1008,m,0,1.2409,,[],[],[],[],[],[],[],434.1008,436.1008,436.1008,436.101,[],[],[],[],[],[],[],,436.101,436.1011,-0.198333333,-0.200555556,0,0,0,,0,62,62,73,1,1,TL,ronamtic,cursive,ronamtic_c.png,,,,,,
,,,,32169,001,2025-10-17_00h52.48.372,HW_LDT_1,2024.2.4,Win32,120.4819277,,,,,,,,,,,,,,,,,,,,,,436.102,436.3009,436.3009,436.8038,,,,,,,,,,,,,,1.2495,1,,,,,,,,,,,,,,z,,,,,,,,,,,,,,,64,0,436.8042,438.0543,z,1,1.2495,,[],[],[],[],[],[],[],438.0543,440.0507,440.0508,440.0509,[],[],[],[],[],[],[],,440.0509,440.051,-0.198333333,-0.200555556,0,0,0,,0,63,63,21,1,1,RL,opcifal,print,opcifal_p.png,,,,,,
,,,,32169,001,2025-10-17_00h52.48.372,HW_LDT_1,2024.2.4,Win32,120.4819277,,,,,,,,,,,,,,,,,,,,,,440.0518,440.2508,440.2508,440.7509,,,,,,,,,,,,,,2.8521,1,,,,,,,,,,,,,,z,,,,,,,,,,,,,,,65,1,440.7513,443.6038,z,1,2.8521,,[],[],[],[],[],[],[],443.6038,445.6009,445.6009,446.9544,[],[],[],[],[],[],[],z,446.9544,446.9544,-0.198333333,-0.200555556,0,0,0,,0,64,64,52,1,1,TL,decilate,cursive,decilate_c.png,1.3531,,,,,
,,,,32169,001,2025-10-17_00h52.48.372,HW_LDT_1,2024.2.4,Win32,120.4819277,,,,,,,,,,,,,,,,,,,,,,446.955,447.1508,447.1509,447.6509,,,,,,,,,,,,,,5.1738,0,,,,,,,,,,,,,,m,,,,,,,,,,,,,,,66,0,447.6514,452.8341,z,0,5.1738,,[],[],[],[],[],[],[],452.8342,454.8341,454.8341,454.8342,[],[],[],[],[],[],[],,454.8342,454.8345,-0.198333333,-0.200555556,0,0,0,,0,65,65,111,1,1,word,INDICATE,cursive,indicate_c.png,,,,,,
,,,,32169,001,2025-10-17_00h52.48.372,HW_LDT_1,2024.2.4,Win32,120.4819277,,,,,,,,,,,,,,,,,,,,,,454.8354,455.0365,455.0365,455.5341,,,,,,,,,,,,,,1.9024,1,,,,,,,,,,,,,,z,,,,,,,,,,,,,,,67,0,455.5344,457.4375,z,1,1.9024,,[],[],[],[],[],[],[],457.4376,459.4341,459.4342,459.4342,[],[],[],[],[],[],[],,459.4342,459.4343,-0.198333333,-0.200555556,0,0,0,,0,66,66,40,1,1,TL,atameur,print,atameur_p.png,,,,,,
,,,,32169,001,2025-10-17_00h52.48.372,HW_LDT_1,2024.2.4,Win32,120.4819277,,,,,,,,,,,,,,,,,,,,,,459.4355,459.6373,459.6373,460.1372,,,,,,,,,,,,,,3.3942,1,,,,,,,,,,,,,,m,,,,,,,,,,,,,,,68,0,460.1375,463.5341,m,1,3.3942,,[],[],[],[],[],[],[],463.5341,465.5341,465.5341,465.5343,[],[],[],[],[],[],[],,465.5344,465.5346,-0.197777778,-0.198333333,0,0,0,,0,67,67,115,1,1,word,LOGICAL,cursive,logical_c.png,,,,,,
,,,,32169,001,2025-10-17_00h52.48.372,HW_LDT_1,2024.2.4,Win32,120.4819277,,,,,,,,,,,,,,,,,,,,,,465.5355,465.7341,465.7341,466.2371,,,,,,,,,,,,,,1.0409,1,,,,,,,,,,,,,,z,,,,,,,,,,,,,,,69,0,466.2373,467.284,z,1,1.0409,,[],[],[],[],[],[],[],467.284,469.284,469.284,469.2842,[],[],[],[],[],[],[],,469.2842,469.2843,-0.197777778,-0.198333333,0,0,0,,0,68,68,30,1,1,RL,relone,print,relone_p.png,,,,,,
,,,,32169,001,2025-10-17_00h52.48.372,HW_LDT_1,2024.2.4,Win32,120.4819277,,,,,,,,,,,,,,,,,,,,,,469.2852,469.487,469.487,469.9841,,,,,,,,,,,,,,1.546,1,,,,,,,,,,,,,,m,,,,,,,,,,,,,,,70,0,469.9845,471.5341,m,1,1.546,,[],[],[],[],[],[],[],471.5342,473.5341,473.5341,473.5342,[],[],[],[],[],[],[],,473.5342,473.5344,-0.197777778,-0.198333333,0,0,0,,0,69,69,123,1,1,word,MODERATE,print,moderate_p.png,,,,,,
,,,,32169,001,2025-10-17_00h52.48.372,HW_LDT_1,2024.2.4,Win32,120.4819277,,,,,,,,,,,,,,,,,,,,,,473.5355,473.734,473.734,474.2341,,,,,,,,,,,,,,1.0358,1,,,,,,,,,,,,,,m,,,,,,,,,,,,,,,71,0,474.2344,475.2841,m,1,1.0358,,[],[],[],[],[],[],[],475.2841,477.2841,477.2841,477.2842,[],[],[],[],[],[],[],,477.2842,477.2842,-0.197777778,-0.198333333,0,0,0,,0,70,70,114,1,1,word,LOCATE,print,locate_p.png,,,,,,
,,,,32169,001,2025-10-17_00h52.48.372,HW_LDT_1,2024.2.4,Win32,120.4819277,,,,,,,,,,,,,,,,,,,,,,477.2853,477.4841,477.4841,477.9871,,,,,,,,,,,,,,2.2193,1,,,,,,,,,,,,,,z,,,,,,,,,,,,,,,72,0,477.9874,480.2174,z,1,2.2193,,[],[],[],[],[],[],[],480.2174,482.2173,482.2174,482.2175,[],[],[],[],[],[],[],,482.2175,482.2176,-0.197777778,-0.198333333,0,0,0,,0,71,71,69,1,1,TL,radiply,cursive,radiply_c.png,,,,,,
,,,,32169,001,2025-10-17_00h52.48.372,HW_LDT_1,2024.2.4,Win32,120.4819277,,,,,,,,,,,,,,,,,,,,,,482.2182,482.4205,482.4205,482.9205,,,,,,,,,,,,,,3.4497,0,,,,,,,,,,,,,,z,,,,,,,,,,,,,,,73,0,482.9207,486.3708,m,0,3.4497,,[],[],[],[],[],[],[],486.371,488.3705,488.3705,488.3706,[],[],[],[],[],[],[],,488.3707,488.3708,-0.197777778,-0.198333333,0,0,0,,0,72,72,48,1,1,TL,cemerony,cursive,cemerony_c.png,,,,,,
,,,,32169,001,2025-10-17_00h52.48.372,HW_LDT_1,2024.2.4,Win32,120.4819277,,,,,,,,,,,,,,,,,,,,,,488.3715,488.5674,488.5674,489.0673,,,,,,,,,,,,,,1.3321,1,,,,,,,,,,,,,,m,,,,,,,,,,,,,,,74,0,489.0676,490.4008,m,1,1.3321,,[],[],[],[],[],[],[],490.4008,492.4008,492.4008,492.4009,[],[],[],[],[],[],[],,492.4009,492.401,-0.197777778,-0.198333333,0,0,0,,0,73,73,81,1,1,word,ADVISORY,cursive,advisory_c.png,,,,,,
,,,,32169,001,2025-10-17_00h52.48.372,HW_LDT_1,2024.2.4,Win32,120.4819277,,,,,,,,,,,,,,,,,,,,,,492.4019,492.6008,492.6009,493.1044,,,,,,,,,,,,,,2.0914,1,,,,,,,,,,,,,,m,,,,,,,,,,,,,,,75,0,493.1047,495.2008,m,1,2.0914,,[],[],[],[],[],[],[],495.2008,497.2007,497.2007,497.2008,[],[],[],[],[],[],[],,497.2008,497.2008,-0.197777778,-0.198333333,0,0,0,,0,74,74,82,1,1,word,AMATEUR,print,amateur_p.png,,,,,,
,,,,32169,001,2025-10-17_00h52.48.372,HW_LDT_1,2024.2.4,Win32,120.4819277,,,,,,,,,,,,,,,,,,,,,,497.2015,497.401,497.401,497.9009,,,,,,,,,,,,,,0.9358,1,,,,,,,,,,,,,,z,,,,,,,,,,,,,,,76,0,497.9013,498.8377,z,1,0.9358,,[],[],[],[],[],[],[],498.8377,500.8341,500.8341,500.8343,[],[],[],[],[],[],[],,500.8343,500.8344,-0.197777778,-0.198333333,0,0,0,,0,75,75,8,1,1,RL,debave,print,debave_p.png,,,,,,
,,,,32169,001,2025-10-17_00h52.48.372,HW_LDT_1,2024.2.4,Win32,120.4819277,,,,,,,,,,,,,,,,,,,,,,500.8353,501.0375,501.0376,501.5376,,,,,,,,,,,,,,2.6442,1,,,,,,,,,,,,,,z,,,,,,,,,,,,,,,77,0,501.538,504.1841,z,1,2.6442,,[],[],[],[],[],[],[],504.1842,506.1841,506.1842,506.1842,[],[],[],[],[],[],[],,506.1843,506.1843,-0.197777778,-0.198333333,0,0,0,,0,76,76,58,1,1,TL,incidate,cursive,incidate_c.png,,,,,,
,,,,32169,001,2025-10-17_00h52.48.372,HW_LDT_1,2024.2.4,Win32,120.4819277,,,,,,,,,,,,,,,,,,,,,,506.1851,506.3841,506.3841,506.884,,,,,,,,,,,,,,1.4206,0,,,,,,,,,,,,,,z,,,,,,,,,,,,,,,78,0,506.8843,508.3174,m,0,1.4206,,[],[],[],[],[],[],[],508.3175,510.3207,510.3207,510.3208,[],[],[],[],[],[],[],,510.3208,510.3209,-0.197777778,-0.198333333,0,0,0,,0,77,77,49,1,1,TL,clicinal,cursive,clicinal_c.png,,,,,,
,,,,32169,001,2025-10-17_00h52.48.372,HW_LDT_1,2024.2.4,Win32,120.4819277,,,,,,,,,,,,,,,,,,,,,,510.3214,510.5205,510.5206,511.0205,,,,,,,,,,,,,,1.2879,0,,,,,,,,,,,,,,m,,,,,,,,,,,,,,,79,1,511.0208,512.3175,z,0,1.2879,,[],[],[],[],[],[],[],512.3175,514.3174,514.3174,515.9507,[],[],[],[],[],[],[],m,515.9508,515.9508,-0.197777778,-0.198333333,0,0,0,,0,78,78,128,1,1,word,PACIFIC,print,pacific_p.png,1.6233,,,,,
,,,,32169,001,2025-10-17_00h52.48.372,HW_LDT_1,2024.2.4,Win32,120.4819277,,,,,,,,,,,,,,,,,,,,,,515.9516,516.1507,516.1507,516.654,,,,,,,,,,,,,,2.4185,1,,,,,,,,,,,,,,z,,,,,,,,,,,,,,,80,0,516.6543,519.0841,z,1,2.4185,,[],[],[],[],[],[],[],519.0842,521.0841,521.0841,521.0841,[],[],[],[],[],[],[],,521.0841,553.1383,-0.197777778,-0.198333333,0,0,0,space,0,79,79,26,1,1,RL,quafidy,cursive,quafidy_c.png,,,32.0337,,,
,,,,32169,001,2025-10-17_00h52.48.372,HW_LDT_1,2024.2.4,Win32,120.4819277,,,,,,,,,,,,,,,,,,,,,,553.139,553.3371,553.3371,553.8342,,,,,,,,,,,,,,2.6464,1,,,,,,,,,,,,,,z,,,,,,,,,,,,,,,81,0,553.8344,556.4842,z,1,2.6464,,[],[],[],[],[],[],[],556.4842,558.484,558.484,558.4841,[],[],[],[],[],[],[],,558.4842,558.4842,-0.197777778,-0.198333333,0,0,0,,0,80,80,39,1,1,RL,vabifity,cursive,vabifity_c.png,,,,,,
,,,,32169,001,2025-10-17_00h52.48.372,HW_LDT_1,2024.2.4,Win32,120.4819277,,,,,,,,,,,,,,,,,,,,,,558.4851,558.6841,558.6841,559.1841,,,,,,,,,,,,,,2.2728,1,,,,,,,,,,,,,,m,,,,,,,,,,,,,,,82,0,559.1845,561.4674,m,1,2.2728,,[],[],[],[],[],[],[],561.4675,563.4675,563.4675,563.4675,[],[],[],[],[],[],[],,563.4676,563.4677,-0.197777778,-0.198333333,0,0,0,,0,81,81,151,1,1,word,SPECIFIC,cursive,specific_c.png,,,,,,
,,,,32169,001,2025-10-17_00h52.48.372,HW_LDT_1,2024.2.4,Win32,120.4819277,,,,,,,,,,,,,,,,,,,,,,563.4687,563.6704,563.6705,564.1674,,,,,,,,,,,,,,1.1025,1,,,,,,,,,,,,,,m,,,,,,,,,,,,,,,83,0,564.1676,565.2705,m,1,1.1025,,[],[],[],[],[],[],[],565.2706,567.2673,567.2673,567.2674,[],[],[],[],[],[],[],,567.2675,567.2675,-0.197777778,-0.198333333,0,0,0,,0,82,82,138,1,1,word,REFUSAL,print,refusal_p.png,,,,,,
,,,,32169,001,2025-10-17_00h52.48.372,HW_LDT_1,2024.2.4,Win32,120.4819277,,,,,,,,,,,,,,,,,,,,,,567.2682,567.4673,567.4674,567.9675,,,,,,,,,,,,,,2.199,1,,,,,,,,,,,,,,z,,,,,,,,,,,,,,,84,0,567.9678,570.1675,z,1,2.199,,[],[],[],[],[],[],[],570.1676,572.1674,572.1674,572.1676,[],[],[],[],[],[],[],,572.1677,572.1677,-0.197777778,-0.198333333,0,0,0,,0,83,83,54,1,1,TL,distupe,cursive,distupe_c.png,,,,,,
,,,,32169,001,2025-10-17_00h52.48.372,HW_LDT_1,2024.2.4,Win32,120.4819277,,,,,,,,,,,,,,,,,,,,,,572.1686,572.3674,572.3674,572.8675,,,,,,,,,,,,,,4.0359,1,,,,,,,,,,,,,,z,,,,,,,,,,,,,,,85,0,572.8678,576.9043,z,1,4.0359,,[],[],[],[],[],[],[],576.9044,578.9044,578.9044,578.9045,[],[],[],[],[],[],[],,578.9045,578.9046,-0.197777778,-0.198333333,0,0,0,,0,84,84,53,1,1,TL,dentisy,cursive,dentisy_c.png,,,,,,
,,,,32169,001,2025-10-17_00h52.48.372,HW_LDT_1,2024.2.4,Win32,120.4819277,,,,,,,,,,,,,,,,,,,,,,578.9052,579.1035,579.1035,579.6038,,,,,,,,,,,,,,0.7213,1,,,,,,,,,,,,,,m,,,,,,,,,,,,,,,86,1,579.6041,580.334,m,1,0.7213,,[],[],[],[],[],[],[],580.334,582.3342,582.3343,586.051,[],[],[],[],[],[],[],m,586.051,586.0511,-0.197777778,-0.198333333,0,0,0,,0,85,85,124,1,1,word,NUMERICAL,print,numerical_p.png,3.7055,,,,,
,,,,32169,001,2025-10-17_00h52.48.372,HW_LDT_1,2024.2.4,Win32,120.4819277,,,,,,,,,,,,,,,,,,,,,,586.0521,586.2538,586.2539,586.7507,,,,,,,,,,,,,,4.8318,1,,,,,,,,,,,,,,z,,,,,,,,,,,,,,,87,0,586.7514,591.5841,z,1,4.8318,,[],[],[],[],[],[],[],591.5841,593.5841,593.5841,593.5841,[],[],[],[],[],[],[],,593.5842,593.5843,-0.197777778,-0.198333333,0,0,0,,0,86,86,72,1,1,TL,remuse,print,remuse_p.png,,,,,,
,,,,32169,001,2025-10-17_00h52.48.372,HW_LDT_1,2024.2.4,Win32,120.4819277,,,,,,,,,,,,,,,,,,,,,,593.5852,593.784,593.7841,594.2842,,,,,,,,,,,,,,6.753,1,,,,,,,,,,,,,,z,,,,,,,,,,,,,,,88,0,594.2846,601.0381,z,1,6.753,,[],[],[],[],[],[],[],601.0381,603.0342,603.0342,603.0343,[],[],[],[],[],[],[],,603.0343,603.0343,-0.197777778,-0.198333333,0,0,0,,0,87,87,76,1,1,TL,stragety,cursive,stragety_c.png,,,,,,
,,,,32169,001,2025-10-17_00h52.48.372,HW_LDT_1,2024.2.4,Win32,120.4819277,,,,,,,,,,,,,,,,,,,,,,603.0353,603.2339,603.2339,603.734,,,,,,,,,,,,,,1.3951,1,,,,,,,,,,,,,,m,,,,,,,,,,,,,,,89,1,603.7343,605.134,m,1,1.3951,,[],[],[],[],[],[],[],605.134,607.1341,607.1341,611.1007,[],[],[],[],[],[],[],m,611.1008,611.1009,-0.197777778,-0.198333333,0,0,0,,0,88,88,142,1,1,word,REMOTE,print,remote_p.png,3.9651,,,,,
,,,,32169,001,2025-10-17_00h52.48.372,HW_LDT_1,2024.2.4,Win32,120.4819277,,,,,,,,,,,,,,,,,,,,,,611.1019,611.3041,611.3041,611.8007,,,,,,,,,,,,,,1.3357,0,,,,,,,,,,,,,,z,,,,,,,,,,,,,,,90,0,611.801,613.1372,m,0,1.3357,,[],[],[],[],[],[],[],613.1372,615.1341,615.1341,615.1342,[],[],[],[],[],[],[],,615.1342,615.1343,-0.197777778,-0.198333333,0,0,0,,0,89,89,65,1,1,TL,orinigal,cursive,orinigal_c.png,,,,,,
,,,,32169,001,2025-10-17_00h52.48.372,HW_LDT_1,2024.2.4,Win32,120.4819277,,,,,,,,,,,,,,,,,,,,,,615.1352,615.3341,615.3341,615.834,,,,,,,,,,,,,,1.0696,1,,,,,,,,,,,,,,z,,,,,,,,,,,,,,,91,0,615.8343,616.9045,z,1,1.0696,,[],[],[],[],[],[],[],616.9046,618.9007,618.9007,618.9008,[],[],[],[],[],[],[],,618.9008,618.9008,-0.197777778,-0.198333333,0,0,0,,0,90,90,20,1,1,RL,nunewical,print,nunewical_p.png,,,,,,
,,,,32169,001,2025-10-17_00h52.48.372,HW_LDT_1,2024.2.4,Win32,120.4819277,,,,,,,,,,,,,,,,,,,,,,618.9018,619.1007,619.1008,619.6008,,,,,,,,,,,,,,1.2017,1,,,,,,,,,,,,,,z,,,,,,,,,,,,,,,92,1,619.6012,620.8035,z,1,1.2017,,[],[],[],[],[],[],[],620.8035,622.8008,622.8008,625.6176,[],[],[],[],[],[],[],m,625.6176,625.6177,-0.197777778,-0.198333333,0,0,0,,0,91,91,24,1,1,RL,probice,print,probice_p.png,2.8036,,,,,
,,,,32169,001,2025-10-17_00h52.48.372,HW_LDT_1,2024.2.4,Win32,120.4819277,,,,,,,,,,,,,,,,,,,,,,625.6186,625.8174,625.8174,626.3204,,,,,,,,,,,,,,0.9349,1,,,,,,,,,,,,,,m,,,,,,,,,,,,,,,93,1,626.3206,627.2675,m,1,0.9349,,[],[],[],[],[],[],[],627.2676,629.2706,629.2706,632.4174,[],[],[],[],[],[],[],m,632.4174,632.4174,-0.197777778,-0.198333333,0,0,0,,0,92,92,98,1,1,word,CRIMINAL,print,criminal_p.png,3.1436,,,,,
,,,,32169,001,2025-10-17_00h52.48.372,HW_LDT_1,2024.2.4,Win32,120.4819277,,,,,,,,,,,,,,,,,,,,,,632.4181,632.6176,632.6176,633.1174,,,,,,,,,,,,,,1.0032,0,,,,,,,,,,,,,,m,,,,,,,,,,,,,,,94,0,633.1178,634.134,z,0,1.0032,,[],[],[],[],[],[],[],634.1341,636.1341,636.1342,636.1344,[],[],[],[],[],[],[],,636.1344,636.1345,-0.197777778,-0.198333333,0,0,0,,0,93,93,148,1,1,word,SALINE,print,saline_p.png,,,,,,
,,,,32169,001,2025-10-17_00h52.48.372,HW_LDT_1,2024.2.4,Win32,120.4819277,,,,,,,,,,,,,,,,,,,,,,636.1354,636.3339,636.334,636.8341,,,,,,,,,,,,,,1.3379,0,,,,,,,,,,,,,,m,,,,,,,,,,,,,,,95,0,636.8344,638.1842,z,0,1.3379,,[],[],[],[],[],[],[],638.1843,640.184,640.184,640.1843,[],[],[],[],[],[],[],,640.1844,640.1844,-0.197777778,-0.198333333,0,0,0,,0,94,94,101,1,1,word,DELICATE,cursive,delicate_c.png,,,,,,
,,,,32169,001,2025-10-17_00h52.48.372,HW_LDT_1,2024.2.4,Win32,120.4819277,,,,,,,,,,,,,,,,,,,,,,640.1852,640.384,640.384,640.8841,,,,,,,,,,,,,,0.8978,1,,,,,,,,,,,,,,m,,,,,,,,,,,,,,,96,1,640.8843,641.784,m,1,0.8978,,[],[],[],[],[],[],[],641.784,643.7841,643.7841,644.7508,[],[],[],[],[],[],[],m,644.7509,644.7509,-0.197777778,-0.198333333,0,0,0,,0,95,95,90,1,1,word,CAPITAL,print,capital_p.png,0.9602,,,,,
,,,,32169,001,2025-10-17_00h52.48.372,HW_LDT_1,2024.2.4,Win32,120.4819277,,,,,,,,,,,,,,,,,,,,,,644.7516,644.9509,644.9509,645.4511,,,,,,,,,,,,,,1.0182,1,,,,,,,,,,,,,,m,,,,,,,,,,,,,,,97,0,645.4517,646.4705,m,1,1.0182,,[],[],[],[],[],[],[],646.4706,648.4675,648.4675,648.4677,[],[],[],[],[],[],[],,648.4677,648.4677,-0.197777778,-0.198333333,0,0,0,,0,96,96,153,1,1,word,STOLEN,print,stolen_p.png,,,,,,
,,,,32169,001,2025-10-17_00h52.48.372,HW_LDT_1,2024.2.4,Win32,120.4819277,,,,,,,,,,,,,,,,,,,,,,648.4686,648.6674,648.6674,649.1707,,,,,,,,,,,,,,1.4325,1,,,,,,,,,,,,,,m,,,,,,,,,,,,,,,98,0,649.1712,650.6041,m,1,1.4325,,[],[],[],[],[],[],[],650.6041,652.6008,652.6008,652.6009,[],[],[],[],[],[],[],,652.6009,652.6011,-0.197777778,-0.198333333,0,0,0,,0,97,97,143,1,1,word,REMOVAL,cursive,removal_c.png,,,,,,
,,,,32169,001,2025-10-17_00h52.48.372,HW_LDT_1,2024.2.4,Win32,120.4819277,,,,,,,,,,,,,,,,,,,,,,652.602,652.8007,652.8007,653.3007,,,,,,,,,,,,,,1.1799,1,,,,,,,,,,,,,,m,,,,,,,,,,,,,,,99,0,653.301,654.4841,m,1,1.1799,,[],[],[],[],[],[],[],654.4841,656.4841,656.4841,656.4842,[],[],[],[],[],[],[],,656.4842,656.4843,-0.197777778,-0.198333333,0,0,0,,0,98,98,119,1,1,word,MEMORY,cursive,memory_c.png,,,,,,
,,,,32169,001,2025-10-17_00h52.48.372,HW_LDT_1,2024.2.4,Win32,120.4819277,,,,,,,,,,,,,,,,,,,,,,656.4852,656.6841,656.6841,657.184,,,,,,,,,,,,,,1.1522,1,,,,,,,,,,,,,,z,,,,,,,,,,,,,,,100,0,657.1846,658.3374,z,1,1.1522,,[],[],[],[],[],[],[],658.3374,660.3375,660.3376,660.3376,[],[],[],[],[],[],[],,660.3377,660.3377,-0.197777778,-0.198333333,0,0,0,,0,99,99,44,1,1,TL,cateferia,cursive,cateferia_c.png,,,,,,
,,,,32169,001,2025-10-17_00h52.48.372,HW_LDT_1,2024.2.4,Win32,120.4819277,,,,,,,,,,,,,,,,,,,,,,660.3386,660.5341,660.5341,661.034,,,,,,,,,,,,,,2.006,1,,,,,,,,,,,,,,z,,,,,,,,,,,,,,,101,0,661.0344,663.0507,z,1,2.006,,[],[],[],[],[],[],[],663.0508,665.0507,665.0508,665.0509,[],[],[],[],[],[],[],,665.0509,665.051,-0.197777778,-0.198333333,0,0,0,,0,100,100,47,1,1,TL,cagetory,print,cagetory_p.png,,,,,,
,,,,32169,001,2025-10-17_00h52.48.372,HW_LDT_1,2024.2.4,Win32,120.4819277,,,,,,,,,,,,,,,,,,,,,,665.0519,665.2539,665.2539,665.7533,,,,,,,,,,,,,,1.8098,1,,,,,,,,,,,,,,z,,,,,,,,,,,,,,,102,0,665.7536,667.5673,z,1,1.8098,,[],[],[],[],[],[],[],667.5674,669.5678,669.5678,669.568,[],[],[],[],[],[],[],,669.5681,669.5682,-0.197777778,-0.198333333,0,0,0,,0,101,101,57,1,1,TL,hetirage,cursive,hetirage_c.png,,,,,,
,,,,32169,001,2025-10-17_00h52.48.372,HW_LDT_1,2024.2.4,Win32,120.4819277,,,,,,,,,,,,,,,,,,,,,,669.5691,669.7673,669.7673,670.2673,,,,,,,,,,,,,,0.9081,1,,,,,,,,,,,,,,z,,,,,,,,,,,,,,,103,0,670.2676,671.1842,z,1,0.9081,,[],[],[],[],[],[],[],671.1842,673.184,673.1841,673.1841,[],[],[],[],[],[],[],,673.1841,673.1842,-0.197777778,-0.198333333,0,0,0,,0,102,102,37,1,1,RL,skofen,print,skofen_p.png,,,,,,
,,,,32169,001,2025-10-17_00h52.48.372,HW_LDT_1,2024.2.4,Win32,120.4819277,,,,,,,,,,,,,,,,,,,,,,673.1851,673.3872,673.3872,673.8841,,,,,,,,,,,,,,1.595,1,,,,,,,,,,,,,,z,,,,,,,,,,,,,,,104,0,673.8846,675.484,z,1,1.595,,[],[],[],[],[],[],[],675.484,677.484,677.4841,677.4842,[],[],[],[],[],[],[],,677.4843,677.4844,-0.197777778,-0.198333333,0,0,0,,0,103,103,0,1,1,RL,abanemy,cursive,abanemy_c.png,,,,,,
,,,,32169,001,2025-10-17_00h52.48.372,HW_LDT_1,2024.2.4,Win32,120.4819277,,,,,,,,,,,,,,,,,,,,,,677.4854,677.6871,677.6871,678.1839,,,,,,,,,,,,,,0.8131,1,,,,,,,,,,,,,,z,,,,,,,,,,,,,,,105,0,678.1843,679.0008,z,1,0.8131,,[],[],[],[],[],[],[],679.0008,681.0007,681.0007,681.0008,[],[],[],[],[],[],[],,681.0008,681.0009,-0.197777778,-0.198333333,0,0,0,,0,104,104,7,1,1,RL,delahe,print,delahe_p.png,,,,,,
,,,,32169,001,2025-10-17_00h52.48.372,HW_LDT_1,2024.2.4,Win32,120.4819277,,,,,,,,,,,,,,,,,,,,,,681.0019,681.2009,681.2009,681.7008,,,,,,,,,,,,,,1.0736,1,,,,,,,,,,,,,,z,,,,,,,,,,,,,,,106,0,681.7013,682.7841,z,1,1.0736,,[],[],[],[],[],[],[],682.7841,684.7871,684.7871,684.7873,[],[],[],[],[],[],[],,684.7873,684.7874,-0.197777778,-0.198333333,0,0,0,,0,105,105,2,1,1,RL,asiral,print,asiral_p.png,,,,,,
,,,,32169,001,2025-10-17_00h52.48.372,HW_LDT_1,2024.2.4,Win32,120.4819277,,,,,,,,,,,,,,,,,,,,,,684.7881,684.984,684.9841,685.484,,,,,,,,,,,,,,3.4786,1,,,,,,,,,,,,,,z,,,,,,,,,,,,,,,107,1,685.4845,688.9674,z,1,3.4786,,[],[],[],[],[],[],[],688.9675,690.9673,690.9673,692.6008,[],[],[],[],[],[],[],z,692.6008,692.6008,-0.197777778,-0.198333333,0,0,0,,0,106,106,3,1,1,RL,casena,cursive,casena_c.png,1.6199,,,,,
,,,,32169,001,2025-10-17_00h52.48.372,HW_LDT_1,2024.2.4,Win32,120.4819277,,,,,,,,,,,,,,,,,,,,,,692.6021,692.8007,692.8008,693.3007,,,,,,,,,,,,,,1.476,1,,,,,,,,,,,,,,m,,,,,,,,,,,,,,,108,0,693.301,694.7842,m,1,1.476,,[],[],[],[],[],[],[],694.7843,696.7841,696.7841,696.7842,[],[],[],[],[],[],[],,696.7842,696.7843,-0.197777778,-0.198333333,0,0,0,,0,107,107,159,1,1,word,VETERAN,print,veteran_p.png,,,,,,
,,,,32169,001,2025-10-17_00h52.48.372,HW_LDT_1,2024.2.4,Win32,120.4819277,,,,,,,,,,,,,,,,,,,,,,696.785,696.984,696.9841,697.4841,,,,,,,,,,,,,,0.7895,1,,,,,,,,,,,,,,m,,,,,,,,,,,,,,,109,0,697.4844,698.2841,m,1,0.7895,,[],[],[],[],[],[],[],698.2841,700.284,700.284,700.2842,[],[],[],[],[],[],[],,700.2842,700.2842,-0.197777778,-0.198333333,0,0,0,,0,108,108,145,1,1,word,RESUME,print,resume_p.png,,,,,,
,,,,32169,001,2025-10-17_00h52.48.372,HW_LDT_1,2024.2.4,Win32,120.4819277,,,,,,,,,,,,,,,,,,,,,,700.2851,700.484,700.4841,700.984,,,,,,,,,,,,,,2.2029,1,,,,,,,,,,,,,,z,,,,,,,,,,,,,,,110,0,700.9842,703.2006,z,1,2.2029,,[],[],[],[],[],[],[],703.2007,705.2038,705.2038,705.204,[],[],[],[],[],[],[],,705.204,705.204,-0.197777778,-0.198333333,0,0,0,,0,109,109,6,1,1,RL,crisival,print,crisival_p.png,,,,,,
,,,,32169,001,2025-10-17_00h52.48.372,HW_LDT_1,2024.2.4,Win32,120.4819277,,,,,,,,,,,,,,,,,,,,,,705.2048,705.4007,705.4007,705.9006,,,,,,,,,,,,,,1.0203,1,,,,,,,,,,,,,,m,,,,,,,,,,,,,,,111,0,705.9009,706.9341,m,1,1.0203,,[],[],[],[],[],[],[],706.9341,708.9341,708.9341,708.9342,[],[],[],[],[],[],[],,708.9342,708.9342,-0.197777778,-0.198333333,0,0,0,,0,110,110,147,1,1,word,ROMANTIC,cursive,romantic_c.png,,,,,,
,,,,32169,001,2025-10-17_00h52.48.372,HW_LDT_1,2024.2.4,Win32,120.4819277,,,,,,,,,,,,,,,,,,,,,,708.9353,709.134,709.134,709.6341,,,,,,,,,,,,,,0.8897,1,,,,,,,,,,,,,,z,,,,,,,,,,,,,,,112,0,709.6343,710.5341,z,1,0.8897,,[],[],[],[],[],[],[],710.5341,712.5341,712.5341,712.5343,[],[],[],[],[],[],[],,712.5344,712.5345,-0.197777778,-0.198333333,0,0,0,,0,111,111,60,1,1,TL,manire,print,manire_p.png,,,,,,
,,,,32169,001,2025-10-17_00h52.48.372,HW_LDT_1,2024.2.4,Win32,120.4819277,,,,,,,,,,,,,,,,,,,,,,712.5356,712.7342,712.7343,713.2341,,,,,,,,,,,,,,1.7028,1,,,,,,,,,,,,,,m,,,,,,,,,,,,,,,113,0,713.2344,714.9375,m,1,1.7028,,[],[],[],[],[],[],[],714.9376,716.934,716.934,716.9341,[],[],[],[],[],[],[],,716.9341,716.9341,-0.197777778,-0.198333333,0,0,0,,0,112,112,104,1,1,word,DOMINANT,cursive,dominant_c.png,,,,,,
,,,,32169,001,2025-10-17_00h52.48.372,HW_LDT_1,2024.2.4,Win32,120.4819277,,,,,,,,,,,,,,,,,,,,,,716.9346,717.137,717.1371,717.6372,,,,,,,,,,,,,,1.0389,1,,,,,,,,,,,,,,m,,,,,,,,,,,,,,,114,0,717.6379,718.6841,m,1,1.0389,,[],[],[],[],[],[],[],718.6841,720.684,720.6841,720.6842,[],[],[],[],[],[],[],,720.6842,720.6843,-0.197777778,-0.198333333,0,0,0,,0,113,113,156,1,1,word,TRIBUTE,cursive,tribute_c.png,,,,,,
,,,,32169,001,2025-10-17_00h52.48.372,HW_LDT_1,2024.2.4,Win32,120.4819277,,,,,,,,,,,,,,,,,,,,,,720.6852,720.8841,720.8841,721.3841,,,,,,,,,,,,,,2.2821,1,,,,,,,,,,,,,,m,,,,,,,,,,,,,,,115,0,721.3844,723.6673,m,1,2.2821,,[],[],[],[],[],[],[],723.6673,725.6672,725.6673,725.6673,[],[],[],[],[],[],[],,725.6673,725.6673,-0.197777778,-0.198333333,0,0,0,,0,114,114,154,1,1,word,STORAGE,cursive,storage_c.png,,,,,,
,,,,32169,001,2025-10-17_00h52.48.372,HW_LDT_1,2024.2.4,Win32,120.4819277,,,,,,,,,,,,,,,,,,,,,,725.6679,725.8699,725.8699,726.3706,,,,,,,,,,,,,,1.452,1,,,,,,,,,,,,,,z,,,,,,,,,,,,,,,116,0,726.3711,727.8341,z,1,1.452,,[],[],[],[],[],[],[],727.8342,729.8373,729.8373,729.8373,[],[],[],[],[],[],[],,729.8374,729.8374,-0.197777778,-0.198333333,0,0,0,,0,115,115,42,1,1,TL,befenit,print,befenit_p.png,,,,,,
,,,,32169,001,2025-10-17_00h52.48.372,HW_LDT_1,2024.2.4,Win32,120.4819277,,,,,,,,,,,,,,,,,,,,,,729.8378,730.0341,730.0341,730.5374,,,,,,,,,,,,,,0.6996,1,,,,,,,,,,,,,,z,,,,,,,,,,,,,,,117,0,730.5376,731.2374,z,1,0.6996,,[],[],[],[],[],[],[],731.2375,733.234,733.234,733.2341,[],[],[],[],[],[],[],,733.2341,733.2341,-0.197777778,-0.198333333,0,0,0,,0,116,116,12,1,1,RL,ebiwent,print,ebiwent_p.png,,,,,,
,,,,32169,001,2025-10-17_00h52.48.372,HW_LDT_1,2024.2.4,Win32,120.4819277,,,,,,,,,,,,,,,,,,,,,,733.2347,733.4339,733.434,733.9339,,,,,,,,,,,,,,0.9699,1,,,,,,,,,,,,,,m,,,,,,,,,,,,,,,118,0,733.9341,734.9042,m,1,0.9699,,[],[],[],[],[],[],[],734.9042,736.9007,736.9007,736.9008,[],[],[],[],[],[],[],,736.9008,736.9008,-0.197777778,-0.198333333,0,0,0,,0,117,117,135,1,1,word,QUALITY,cursive,quality_c.png,,,,,,
,,,,32169,001,2025-10-17_00h52.48.372,HW_LDT_1,2024.2.4,Win32,120.4819277,,,,,,,,,,,,,,,,,,,,,,736.9016,737.1039,737.1039,737.6041,,,,,,,,,,,,,,1.5375,1,,,,,,,,,,,,,,m,,,,,,,,,,,,,,,119,0,737.6043,739.1506,m,1,1.5375,,[],[],[],[],[],[],[],739.1507,741.1507,741.1507,741.1507,[],[],[],[],[],[],[],,741.1507,741.1508,-0.197777778,-0.198333333,0,0,0,,0,118,118,93,1,1,word,CEREMONY,cursive,ceremony_c.png,,,,,,
,,,,32169,001,2025-10-17_00h52.48.372,HW_LDT_1,2024.2.4,Win32,120.4819277,,,,,,,,,,,,,,,,,,,,,,741.1517,741.3507,741.3507,741.854,,,,,,,,,,,,,,1.1506,0,,,,,,,,,,,,,,z,,,,,,,,,,,,,,,120,0,741.8544,743.0173,m,0,1.1506,,[],[],[],[],[],[],[],743.0173,745.0175,745.0175,745.0176,[],[],[],[],[],[],[],,745.0176,745.0176,-0.197777778,-0.198333333,0,0,0,,0,119,119,77,1,1,TL,tritube,cursive,tritube_c.png,,,,,,
,,,,32169,001,2025-10-17_00h52.48.372,HW_LDT_1,2024.2.4,Win32,120.4819277,,,,,,,,,,,,,,,,,,,,,,745.0188,745.2208,745.2208,745.7175,,,,,,,,,,,,,,2.4698,1,,,,,,,,,,,,,,z,,,,,,,,,,,,,,,121,0,745.7177,748.1879,z,1,2.4698,,[],[],[],[],[],[],[],748.1879,750.184,750.184,750.1841,[],[],[],[],[],[],[],,750.1842,750.1842,-0.197777778,-0.198333333,0,0,0,,0,120,120,1,1,1,RL,adnicory,cursive,adnicory_c.png,,,,,,
,,,,32169,001,2025-10-17_00h52.48.372,HW_LDT_1,2024.2.4,Win32,120.4819277,,,,,,,,,,,,,,,,,,,,,,750.1851,750.3842,750.3842,750.884,,,,,,,,,,,,,,1.4752,1,,,,,,,,,,,,,,z,,,,,,,,,,,,,,,122,0,750.8843,752.3675,z,1,1.4752,,[],[],[],[],[],[],[],752.3676,754.3674,754.3674,754.3675,[],[],[],[],[],[],[],,754.3675,754.3676,-0.197777778,-0.198333333,0,0,0,,0,121,121,22,1,1,RL,patisic,print,patisic_p.png,,,,,,
,,,,32169,001,2025-10-17_00h52.48.372,HW_LDT_1,2024.2.4,Win32,120.4819277,,,,,,,,,,,,,,,,,,,,,,754.3684,754.5674,754.5674,755.0675,,,,,,,,,,,,,,0.9094,0,,,,,,,,,,,,,,z,,,,,,,,,,,,,,,123,0,755.0677,755.984,m,0,0.9094,,[],[],[],[],[],[],[],755.9841,757.984,757.984,757.9841,[],[],[],[],[],[],[],,757.9841,757.9841,-0.197777778,-0.198333333,0,0,0,,0,122,122,66,1,1,TL,panert,cursive,panert_c.png,,,,,,
,,,,32169,001,2025-10-17_00h52.48.372,HW_LDT_1,2024.2.4,Win32,120.4819277,,,,,,,,,,,,,,,,,,,,,,757.9849,758.1841,758.1841,758.6842,,,,,,,,,,,,,,0.9859,1,,,,,,,,,,,,,,m,,,,,,,,,,,,,,,124,0,758.6845,759.6709,m,1,0.9859,,[],[],[],[],[],[],[],759.671,761.6674,761.6674,761.6674,[],[],[],[],[],[],[],,761.6674,761.6674,-0.197777778,-0.198333333,0,0,0,,0,123,123,144,1,1,word,RESIDENT,print,resident_p.png,,,,,,
,,,,32169,001,2025-10-17_00h52.48.372,HW_LDT_1,2024.2.4,Win32,120.4819277,,,,,,,,,,,,,,,,,,,,,,761.6679,761.8675,761.8675,762.3675,,,,,,,,,,,,,,2.5205,1,,,,,,,,,,,,,,m,,,,,,,,,,,,,,,125,0,762.3679,764.9007,m,1,2.5205,,[],[],[],[],[],[],[],764.9007,766.9008,766.9008,766.901,[],[],[],[],[],[],[],,766.901,766.901,-0.197777778,-0.198333333,0,0,0,,0,124,124,118,1,1,word,MEDICINE,cursive,medicine_c.png,,,,,,
,,,,32169,001,2025-10-17_00h52.48.372,HW_LDT_1,2024.2.4,Win32,120.4819277,,,,,,,,,,,,,,,,,,,,,,766.902,767.1007,767.1007,767.6008,,,,,,,,,,,,,,1.2106,1,,,,,,,,,,,,,,z,,,,,,,,,,,,,,,126,0,767.601,768.8178,z,1,1.2106,,[],[],[],[],[],[],[],768.8179,770.8174,770.8175,770.8175,[],[],[],[],[],[],[],,770.8175,770.8176,-0.197777778,-0.198333333,0,0,0,,0,125,125,46,1,1,TL,catipal,print,catipal_p.png,,,,,,
,,,,32169,001,2025-10-17_00h52.48.372,HW_LDT_1,2024.2.4,Win32,120.4819277,,,,,,,,,,,,,,,,,,,,,,770.8186,771.0173,771.0173,771.5173,,,,,,,,,,,,,,0.8456,1,,,,,,,,,,,,,,m,,,,,,,,,,,,,,,127,1,771.5176,772.3676,m,1,0.8456,,[],[],[],[],[],[],[],772.3676,774.3674,774.3675,776.0341,[],[],[],[],[],[],[],z,776.0341,776.0342,-0.197777778,-0.198333333,0,0,0,,0,126,126,80,1,1,word,ACADEMY,cursive,academy_c.png,1.6538,,,,,
,,,,32169,001,2025-10-17_00h52.48.372,HW_LDT_1,2024.2.4,Win32,120.4819277,,,,,,,,,,,,,,,,,,,,,,776.0348,776.234,776.2341,776.734,,,,,,,,,,,,,,1.1596,1,,,,,,,,,,,,,,z,,,,,,,,,,,,,,,128,0,776.7344,777.9008,z,1,1.1596,,[],[],[],[],[],[],[],777.9008,779.9009,779.9009,779.901,[],[],[],[],[],[],[],,779.901,779.901,-0.197777778,-0.198333333,0,0,0,,0,127,127,28,1,1,RL,renutal,print,renutal_p.png,,,,,,
,,,,32169,001,2025-10-17_00h52.48.372,HW_LDT_1,2024.2.4,Win32,120.4819277,,,,,,,,,,,,,,,,,,,,,,779.9018,780.1009,780.1009,780.6008,,,,,,,,,,,,,,1.9868,1,,,,,,,,,,,,,,m,,,,,,,,,,,,,,,129,0,780.6011,782.6009,m,1,1.9868,,[],[],[],[],[],[],[],782.6009,784.6009,784.601,784.601,[],[],[],[],[],[],[],,784.601,784.6011,-0.197777778,-0.198333333,0,0,0,,0,128,128,95,1,1,word,COMEDY,cursive,comedy_c.png,,,,,,
,,,,32169,001,2025-10-17_00h52.48.372,HW_LDT_1,2024.2.4,Win32,120.4819277,,,,,,,,,,,,,,,,,,,,,,784.6019,784.8009,784.8009,785.3008,,,,,,,,,,,,,,1.0896,1,,,,,,,,,,,,,,m,,,,,,,,,,,,,,,130,0,785.301,786.4009,m,1,1.0896,,[],[],[],[],[],[],[],786.4009,788.4008,788.4008,788.4009,[],[],[],[],[],[],[],,788.4009,788.401,-0.197777778,-0.198333333,0,0,0,,0,129,129,94,1,1,word,CLINICAL,cursive,clinical_c.png,,,,,,
,,,,32169,001,2025-10-17_00h52.48.372,HW_LDT_1,2024.2.4,Win32,120.4819277,,,,,,,,,,,,,,,,,,,,,,788.402,788.6007,788.6007,789.1007,,,,,,,,,,,,,,0.8527,1,,,,,,,,,,,,,,m,,,,,,,,,,,,,,,131,0,789.1011,789.9674,m,1,0.8527,,[],[],[],[],[],[],[],789.9674,791.9705,791.9705,791.9706,[],[],[],[],[],[],[],,791.9706,791.9708,-0.197777778,-0.198333333,0,0,0,,0,130,130,137,1,1,word,RAPIDLY,cursive,rapidly_c.png,,,,,,
,,,,32169,001,2025-10-17_00h52.48.372,HW_LDT_1,2024.2.4,Win32,120.4819277,,,,,,,,,,,,,,,,,,,,,,791.9714,792.1673,792.1673,792.6674,,,,,,,,,,,,,,0.9379,1,,,,,,,,,,,,,,z,,,,,,,,,,,,,,,132,1,792.6677,793.6174,z,1,0.9379,,[],[],[],[],[],[],[],793.6174,795.6172,795.6173,797.184,[],[],[],[],[],[],[],m,797.184,797.1841,-0.197777778,-0.198333333,0,0,0,,0,131,131,4,1,1,RL,carminal,print,carminal_p.png,1.5651,,,,,
,,,,32169,001,2025-10-17_00h52.48.372,HW_LDT_1,2024.2.4,Win32,120.4819277,,,,,,,,,,,,,,,,,,,,,,797.1845,797.384,797.384,797.887,,,,,,,,,,,,,,1.6947,1,,,,,,,,,,,,,,m,,,,,,,,,,,,,,,133,0,797.8873,799.584,m,1,1.6947,,[],[],[],[],[],[],[],799.5841,801.584,801.584,801.5841,[],[],[],[],[],[],[],,801.5842,801.5843,-0.197777778,-0.198333333,0,0,0,,0,132,132,106,1,1,word,ELABORATE,print,elaborate_p.png,,,,,,
,,,,32169,001,2025-10-17_00h52.48.372,HW_LDT_1,2024.2.4,Win32,120.4819277,,,,,,,,,,,,,,,,,,,,,,801.5851,801.7874,801.7875,802.284,,,,,,,,,,,,,,1.5106,1,,,,,,,,,,,,,,z,,,,,,,,,,,,,,,134,0,802.2844,803.8006,z,1,1.5106,,[],[],[],[],[],[],[],803.8007,805.8007,805.8007,805.8007,[],[],[],[],[],[],[],,805.8008,805.8008,-0.197777778,-0.198333333,0,0,0,,0,133,133,9,1,1,RL,docirant,cursive,docirant_c.png,,,,,,
,,,,32169,001,2025-10-17_00h52.48.372,HW_LDT_1,2024.2.4,Win32,120.4819277,,,,,,,,,,,,,,,,,,,,,,805.8019,806.0006,806.0006,806.5007,,,,,,,,,,,,,,3.0792,1,,,,,,,,,,,,,,m,,,,,,,,,,,,,,,135,0,806.5013,809.5839,m,1,3.0792,,[],[],[],[],[],[],[],809.584,811.5875,811.5875,811.5877,[],[],[],[],[],[],[],,811.5878,811.5878,-0.197777778,-0.198333333,0,0,0,,0,134,134,99,1,1,word,DEBATE,print,debate_p.png,,,,,,
,,,,32169,001,2025-10-17_00h52.48.372,HW_LDT_1,2024.2.4,Win32,120.4819277,,,,,,,,,,,,,,,,,,,,,,811.5886,811.784,811.784,812.284,,,,,,,,,,,,,,1.2029,1,,,,,,,,,,,,,,z,,,,,,,,,,,,,,,136,0,812.2843,813.5007,z,1,1.2029,,[],[],[],[],[],[],[],813.5008,815.5039,815.5039,815.504,[],[],[],[],[],[],[],,815.504,815.5041,-0.197777778,-0.198333333,0,0,0,,0,135,135,10,1,1,RL,efibor,cursive,efibor_c.png,,,,,,
,,,,32169,001,2025-10-17_00h52.48.372,HW_LDT_1,2024.2.4,Win32,120.4819277,,,,,,,,,,,,,,,,,,,,,,815.5045,815.7035,815.7035,816.2007,,,,,,,,,,,,,,0.8466,0,,,,,,,,,,,,,,m,,,,,,,,,,,,,,,137,0,816.2012,817.0507,z,0,0.8466,,[],[],[],[],[],[],[],817.0508,819.0506,819.0508,819.0511,[],[],[],[],[],[],[],,819.0511,819.0512,-0.197777778,-0.198333333,0,0,0,,0,136,136,110,1,1,word,HERITAGE,cursive,heritage_c.png,,,,,,
,,,,32169,001,2025-10-17_00h52.48.372,HW_LDT_1,2024.2.4,Win32,120.4819277,,,,,,,,,,,,,,,,,,,,,,819.052,819.2507,819.2507,819.7507,,,,,,,,,,,,,,1.6635,1,,,,,,,,,,,,,,z,,,,,,,,,,,,,,,138,0,819.751,821.4174,z,1,1.6635,,[],[],[],[],[],[],[],821.4174,823.4206,823.4206,823.4207,[],[],[],[],[],[],[],,823.4207,823.4208,-0.197777778,-0.198333333,0,0,0,,0,137,137,38,1,1,RL,stopave,cursive,stopave_c.png,,,,,,
,,,,32169,001,2025-10-17_00h52.48.372,HW_LDT_1,2024.2.4,Win32,120.4819277,,,,,,,,,,,,,,,,,,,,,,823.4216,823.6173,823.6173,824.1173,,,,,,,,,,,,,,1.9241,1,,,,,,,,,,,,,,m,,,,,,,,,,,,,,,139,1,824.1176,826.0508,m,1,1.9241,,[],[],[],[],[],[],[],826.0508,828.054,828.054,829.2508,[],[],[],[],[],[],[],m,829.2508,829.2509,-0.197777778,-0.198333333,0,0,0,,0,138,138,126,1,1,word,OPTIMAL,print,optimal_p.png,1.1912,,,,,
,,,,32169,001,2025-10-17_00h52.48.372,HW_LDT_1,2024.2.4,Win32,120.4819277,,,,,,,,,,,,,,,,,,,,,,829.2517,829.4506,829.4506,829.9509,,,,,,,,,,,,,,1.2861,1,,,,,,,,,,,,,,m,,,,,,,,,,,,,,,140,1,829.9511,831.2506,m,1,1.2861,,[],[],[],[],[],[],[],831.2507,833.2507,833.2507,837.0536,[],[],[],[],[],[],[],z,837.0536,837.0537,-0.197777778,-0.198333333,0,0,0,,0,139,139,130,1,1,word,POLICY,cursive,policy_c.png,3.8024,,,,,
,,,,32169,001,2025-10-17_00h52.48.372,HW_LDT_1,2024.2.4,Win32,120.4819277,,,,,,,,,,,,,,,,,,,,,,837.0543,837.2506,837.2506,837.7506,,,,,,,,,,,,,,2.1224,1,,,,,,,,,,,,,,m,,,,,,,,,,,,,,,141,0,837.751,839.8841,m,1,2.1224,,[],[],[],[],[],[],[],839.8841,841.884,841.884,841.8841,[],[],[],[],[],[],[],,841.8842,841.8843,-0.197777778,-0.198333333,0,0,0,,0,140,140,133,1,1,word,PROVIDE,print,provide_p.png,,,,,,
,,,,32169,001,2025-10-17_00h52.48.372,HW_LDT_1,2024.2.4,Win32,120.4819277,,,,,,,,,,,,,,,,,,,,,,841.8852,842.084,842.084,842.5873,,,,,,,,,,,,,,0.9324,1,,,,,,,,,,,,,,z,,,,,,,,,,,,,,,142,1,842.5879,843.5207,z,1,0.9324,,[],[],[],[],[],[],[],843.5207,845.5174,845.5174,846.8507,[],[],[],[],[],[],[],m,846.8507,846.8509,-0.197777778,-0.198333333,0,0,0,,0,141,141,14,1,1,RL,lofase,print,lofase_p.png,1.3252,,,,,
,,,,32169,001,2025-10-17_00h52.48.372,HW_LDT_1,2024.2.4,Win32,120.4819277,,,,,,,,,,,,,,,,,,,,,,846.8518,847.0507,847.0508,847.5533,,,,,,,,,,,,,,3.7223,0,,,,,,,,,,,,,,m,,,,,,,,,,,,,,,143,0,847.5538,851.284,z,0,3.7223,,[],[],[],[],[],[],[],851.2841,853.2872,853.2872,853.2873,[],[],[],[],[],[],[],,853.2873,853.2873,-0.197777778,-0.198333333,0,0,0,,0,142,142,140,1,1,word,RELATIVE,cursive,relative_c.png,,,,,,
,,,,32169,001,2025-10-17_00h52.48.372,HW_LDT_1,2024.2.4,Win32,120.4819277,,,,,,,,,,,,,,,,,,,,,,853.2879,853.4839,853.484,853.984,,,,,,,,,,,,,,0.7981,1,,,,,,,,,,,,,,m,,,,,,,,,,,,,,,144,0,853.9845,854.784,m,1,0.7981,,[],[],[],[],[],[],[],854.7841,856.784,856.784,856.7842,[],[],[],[],[],[],[],,856.7843,856.7843,-0.197777778,-0.198333333,0,0,0,,0,143,143,127,1,1,word,ORIGINAL,cursive,original_c.png,,,,,,
,,,,32169,001,2025-10-17_00h52.48.372,HW_LDT_1,2024.2.4,Win32,120.4819277,,,,,,,,,,,,,,,,,,,,,,856.7852,856.987,856.987,857.484,,,,,,,,,,,,,,1.2317,1,,,,,,,,,,,,,,z,,,,,,,,,,,,,,,145,0,857.4843,858.7174,z,1,1.2317,,[],[],[],[],[],[],[],858.7174,860.7172,860.7173,860.7173,[],[],[],[],[],[],[],,860.7174,860.7174,-0.197777778,-0.198333333,0,0,0,,0,144,144,78,1,1,TL,vecolity,print,vecolity_p.png,,,,,,
,,,,32169,001,2025-10-17_00h52.48.372,HW_LDT_1,2024.2.4,Win32,120.4819277,,,,,,,,,,,,,,,,,,,,,,860.7184,860.9173,860.9173,861.4173,,,,,,,,,,,,,,0.9027,1,,,,,,,,,,,,,,z,,,,,,,,,,,,,,,146,0,861.4177,862.3207,z,1,0.9027,,[],[],[],[],[],[],[],862.3209,864.3199,864.3199,864.32,[],[],[],[],[],[],[],,864.3201,864.3202,-0.197777778,-0.198333333,0,0,0,,0,145,145,16,1,1,RL,marmipal,print,marmipal_p.png,,,,,,
,,,,32169,001,2025-10-17_00h52.48.372,HW_LDT_1,2024.2.4,Win32,120.4819277,,,,,,,,,,,,,,,,,,,,,,864.3209,864.5174,864.5174,865.0173,,,,,,,,,,,,,,3.386,1,,,,,,,,,,,,,,z,,,,,,,,,,,,,,,147,0,865.0176,868.404,z,1,3.386,,[],[],[],[],[],[],[],868.404,870.4006,870.4007,870.4007,[],[],[],[],[],[],[],,870.4007,870.4008,-0.197777778,-0.198333333,0,0,0,,0,146,146,56,1,1,TL,grafetul,print,grafetul_p.png,,,,,,
,,,,32169,001,2025-10-17_00h52.48.372,HW_LDT_1,2024.2.4,Win32,120.4819277,,,,,,,,,,,,,,,,,,,,,,870.4017,870.6008,870.6008,871.1041,,,,,,,,,,,,,,0.7916,1,,,,,,,,,,,,,,m,,,,,,,,,,,,,,,148,0,871.1045,871.9006,m,1,0.7916,,[],[],[],[],[],[],[],871.9008,873.9007,873.9007,873.9008,[],[],[],[],[],[],[],,873.9009,873.9009,-0.197777778,-0.198333333,0,0,0,,0,147,147,89,1,1,word,CAPACITY,print,capacity_p.png,,,,,,
,,,,32169,001,2025-10-17_00h52.48.372,HW_LDT_1,2024.2.4,Win32,120.4819277,,,,,,,,,,,,,,,,,,,,,,873.902,874.1038,874.1038,874.6007,,,,,,,,,,,,,,0.7229,1,,,,,,,,,,,,,,m,,,,,,,,,,,,,,,149,0,874.6012,875.3341,m,1,0.7229,,[],[],[],[],[],[],[],875.3341,877.3339,877.334,877.3341,[],[],[],[],[],[],[],,877.3341,877.3341,-0.197777778,-0.198333333,0,0,0,,0,148,148,120,1,1,word,MILITARY,print,military_p.png,,,,,,
,,,,32169,001,2025-10-17_00h52.48.372,HW_LDT_1,2024.2.4,Win32,120.4819277,,,,,,,,,,,,,,,,,,,,,,877.3349,877.534,877.534,878.0341,,,,,,,,,,,,,,0.9581,1,,,,,,,,,,,,,,z,,,,,,,,,,,,,,,150,0,878.0344,879.0008,z,1,0.9581,,[],[],[],[],[],[],[],879.0009,881.0007,881.0007,881.0009,[],[],[],[],[],[],[],,881.0009,881.001,-0.197777778,-0.198333333,0,0,0,,0,149,149,35,1,1,RL,senvilent,cursive,senvilent_c.png,,,,,,
,,,,32169,001,2025-10-17_00h52.48.372,HW_LDT_1,2024.2.4,Win32,120.4819277,,,,,,,,,,,,,,,,,,,,,,881.0018,881.2007,881.2007,881.7007,,,,,,,,,,,,,,2.7571,0,,,,,,,,,,,,,,z,,,,,,,,,,,,,,,151,1,881.7011,884.4673,m,0,2.7571,,[],[],[],[],[],[],[],884.4675,886.4703,886.4704,889.001,[],[],[],[],[],[],[],z,889.001,889.0011,-0.197777778,-0.198333333,0,0,0,,0,150,150,33,1,1,RL,recile,cursive,recile_c.png,2.5301,,,,,
,,,,32169,001,2025-10-17_00h52.48.372,HW_LDT_1,2024.2.4,Win32,120.4819277,,,,,,,,,,,,,,,,,,,,,,889.002,889.2035,889.2035,889.7038,,,,,,,,,,,,,,5.1851,0,,,,,,,,,,,,,,m,,,,,,,,,,,,,,,152,0,889.7042,894.9008,z,0,5.1851,,[],[],[],[],[],[],[],894.9009,896.9038,896.9039,896.9041,[],[],[],[],[],[],[],,896.9041,896.9042,-0.197777778,-0.198333333,0,0,0,,0,151,151,102,1,1,word,DENSITY,cursive,density_c.png,,,,,,
,,,,32169,001,2025-10-17_00h52.48.372,HW_LDT_1,2024.2.4,Win32,120.4819277,,,,,,,,,,,,,,,,,,,,,,896.9049,897.1008,897.1008,897.6038,,,,,,,,,,,,,,0.8662,1,,,,,,,,,,,,,,m,,,,,,,,,,,,,,,153,1,897.6043,898.4708,m,1,0.8662,,[],[],[],[],[],[],[],898.4709,900.4674,900.4674,905.5339,[],[],[],[],[],[],[],m,905.534,905.5341,-0.197777778,-0.198333333,0,0,0,,0,152,152,109,1,1,word,GRATEFUL,print,grateful_p.png,5.0535,,,,,
,,,,32169,001,2025-10-17_00h52.48.372,HW_LDT_1,2024.2.4,Win32,120.4819277,,,,,,,,,,,,,,,,,,,,,,905.535,905.734,905.734,906.234,,,,,,,,,,,,,,2.5858,1,,,,,,,,,,,,,,m,,,,,,,,,,,,,,,154,0,906.2344,908.834,m,1,2.5858,,[],[],[],[],[],[],[],908.834,910.834,910.834,910.8341,[],[],[],[],[],[],[],,910.8341,910.8341,-0.197777778,-0.198333333,0,0,0,,0,153,153,96,1,1,word,CONSIDER,cursive,consider_c.png,,,,,,
,,,,32169,001,2025-10-17_00h52.48.372,HW_LDT_1,2024.2.4,Win32,120.4819277,,,,,,,,,,,,,,,,,,,,,,910.8351,911.0341,911.0341,911.5339,,,,,,,,,,,,,,0.9244,1,,,,,,,,,,,,,,m,,,,,,,,,,,,,,,155,0,911.5343,912.4674,m,1,0.9244,,[],[],[],[],[],[],[],912.4674,914.4673,914.4673,914.4674,[],[],[],[],[],[],[],,914.4675,914.4676,-0.197777778,-0.198333333,0,0,0,,0,154,154,131,1,1,word,POPULAR,cursive,popular_c.png,,,,,,
,,,,32169,001,2025-10-17_00h52.48.372,HW_LDT_1,2024.2.4,Win32,120.4819277,,,,,,,,,,,,,,,,,,,,,,914.4685,914.6673,914.6673,915.1674,,,,,,,,,,,,,,1.1107,1,,,,,,,,,,,,,,m,,,,,,,,,,,,,,,156,0,915.1677,916.284,m,1,1.1107,,[],[],[],[],[],[],[],916.2841,918.2866,918.2866,918.2867,[],[],[],[],[],[],[],,918.2867,918.2868,-0.197777778,-0.198333333,0,0,0,,0,155,155,112,1,1,word,LIBERAL,cursive,liberal_c.png,,,,,,
,,,,32169,001,2025-10-17_00h52.48.372,HW_LDT_1,2024.2.4,Win32,120.4819277,,,,,,,,,,,,,,,,,,,,,,918.2875,918.4839,918.4839,918.984,,,,,,,,,,,,,,1.4744,0,,,,,,,,,,,,,,z,,,,,,,,,,,,,,,157,0,918.9843,920.4673,m,0,1.4744,,[],[],[],[],[],[],[],920.4674,922.4674,922.4674,922.4675,[],[],[],[],[],[],[],,922.4676,922.4676,-0.197777778,-0.198333333,0,0,0,,0,156,156,70,1,1,TL,relugar,print,relugar_p.png,,,,,,
,,,,32169,001,2025-10-17_00h52.48.372,HW_LDT_1,2024.2.4,Win32,120.4819277,,,,,,,,,,,,,,,,,,,,,,922.4682,922.6672,922.6673,923.1673,,,,,,,,,,,,,,1.5025,0,,,,,,,,,,,,,,z,,,,,,,,,,,,,,,158,0,923.1678,924.6707,m,0,1.5025,,[],[],[],[],[],[],[],924.6708,926.6674,926.6674,926.6676,[],[],[],[],[],[],[],,926.6676,926.6676,-0.197777778,-0.198333333,0,0,0,,0,157,157,67,1,1,TL,pocily,cursive,pocily_c.png,,,,,,
,,,,32169,001,2025-10-17_00h52.48.372,HW_LDT_1,2024.2.4,Win32,120.4819277,,,,,,,,,,,,,,,,,,,,,,926.6685,926.8672,926.8673,927.3674,,,,,,,,,,,,,,1.2381,1,,,,,,,,,,,,,,z,,,,,,,,,,,,,,,159,0,927.3676,928.6172,z,1,1.2381,,[],[],[],[],[],[],[],928.6173,930.6175,930.6176,930.6176,[],[],[],[],[],[],[],,930.6177,930.6177,-0.197777778,-0.198333333,0,0,0,,0,158,158,23,1,1,RL,potugar,cursive,potugar_c.png,,,,,,
,,,,32169,001,2025-10-17_00h52.48.372,HW_LDT_1,2024.2.4,Win32,120.4819277,,,,,,,,,,,,,,,,,,,,,,930.6187,930.8174,930.8174,931.3174,,,,,,,,,,,,,,1.6654,1,,,,,,,,,,,,,,m,,,,,,,,,,,,,,,160,0,931.3176,932.9839,m,1,1.6654,,[],[],[],[],[],[],[],932.984,934.984,934.984,934.984,[],[],[],[],[],[],[],,934.984,934.9841,-0.197777778,-0.198333333,0,0,0,,0,159,159,92,1,1,word,CATEGORY,print,category_p.png,,,,,,
,,,,32169,001,2025-10-17_00h52.48.372,HW_LDT_1,2024.2.4,Win32,120.4819277,,,,,,,,,,,,,,,,,,,,,,,,,,,,,,,,,,,,,,,,,,,,,,,,,,,,,,,,,,,,,,,,,,,,,,,,,,,,,,,,,,,,,,,,,,,,,,,,,,,,,,,,,,,,,,,,,,,,,,934.9935,939.979
