counterbalance_lists.group,counterbalance_lists.remaining,get_list.started,get_list.stopped,participant,session,date,expName,psychopyVersion,OS,frameRate,Instructions.started,Instructions.stopped,key_resp.keys,instr_done_touch.x,instr_done_touch.y,instr_done_touch.leftButton,instr_done_touch.midButton,instr_done_touch.rightButton,instr_done_touch.clicked_name,start_instr.thisRepN,start_instr.thisTrialN,start_instr.thisN,start_instr.thisIndex,start_instr.ran,pageN,phase,instruct_text,has_image,instruct_image,showProgress.started,showProgress.stopped,fix.started,fix.stopped,prac.started,prac.stopped,response.keys,response.corr,touch_resp.x,touch_resp.y,touch_resp.leftButton,touch_resp.midButton,touch_resp.rightButton,touch_resp.time,touch_resp.clicked_name,rt,corr,feedback.started,feedback.stopped,trials.thisRepN,trials.thisTrialN,trials.thisN,trials.thisIndex,trials.ran,TrialID,StimulusType,Condition,PrimeDuration,Prime,Target,corrAns,response.rt,response.duration,Instructions_expt.started,Instructions_expt.stopped,key_resp_3.keys,instr_done_touch_3.x,instr_done_touch_3.y,instr_done_touch_3.leftButton,instr_done_touch_3.midButton,instr_done_touch_3.rightButton,instr_done_touch_3.clicked_name,instr_experiment.thisRepN,instr_experiment.thisTrialN,instr_experiment.thisN,instr_experiment.thisIndex,instr_experiment.ran,trialID,flag,maintask.started,maintask.stopped,key_resp_2.keys,key_resp_2.corr,key_resp_2.rt,key_resp_2.duration,targ_click.x,targ_click.y,targ_click.leftButton,targ_click.midButton,targ_click.rightButton,targ_click.time,targ_click.clicked_name,ITI.started,ITI.stopped,probe.started,probe.stopped,click_probe.x,click_probe.y,click_probe.leftButton,click_probe.midButton,click_probe.rightButton,click_probe.time,click_probe.clicked_name,key_resp_probe.keys,Break.started,Break.stopped,break_done_touch.x,break_done_touch.y,break_done_touch.leftButton,break_done_touch.midButton,break_done_touch.rightButton,break_done_keyboard.keys,list4_trials.thisRepN,list4_trials.thisTrialN,list4_trials.thisN,list4_trials.thisIndex,list4_trials.ran,list_id,item_type,string,font,stim_file,key_resp_probe.rt,key_resp_probe.duration,break_done_touch.clicked_name,End.started,End.stopped
list4,,0.4085,0.4086,32172,001,2025-12-04_13h46.31.208,HW_LDT_1,2024.2.4,MacIntel,60.24096386,,,,,,,,,,,,,,,,,,,,,,,,,,,,,,,,,,,,,,,,,,,,,,,,,,,,,,,,,,,,,,,,,,,,,,,,,,,,,,,,,,,,,,,,,,,,,,,,,,,,,,,,,,,,,,,,,,,,
,,,,32172,001,2025-12-04_13h46.31.208,HW_LDT_1,2024.2.4,MacIntel,60.24096386,0.4219,1.4009,,0.038777714,-0.380657474,1,0,0,instr_done_button,0,0,0,0,1,1,instructions,"INSTRUCTIONS
At the start of each trial, look at the plus sign  (+) in the center of the screen.  This tells you that a trial is about to begin and where to look. Second, the plus sign will disappear and a string of letters will appear. Your task is to determine if the string of letters is a word or not. If the item is a word press the M key (on keyboard)  or touch the word button (phone/tablet).  If the item is not a word,  press the  Z key (on keyboard)  or touch the nonword button (on phone/tablet). The items will be presented for a short time. 
Press the space bar or touch  continue.",0,,,,,,,,,,,,,,,,,,,,,,,,,,,,,,,,,,,,,,,,,,,,,,,,,,,,,,,,,,,,,,,,,,,,,,,,,,,,,,,,,,,,,,,,,,,,,,,,,,
,,,,32172,001,2025-12-04_13h46.31.208,HW_LDT_1,2024.2.4,MacIntel,60.24096386,1.4025,1.8832,,0.040639452,-0.380657474,1,0,0,instr_done_button,0,1,1,1,1,2,instructions,"If your device has a keyboard, press the 'Z' key for nonwords and the 'M' key for words.





Press the space bar or touch the button below to continue.",0,keyboard-example.gif,,,,,,,,,,,,,,,,,,,,,,,,,,,,,,,,,,,,,,,,,,,,,,,,,,,,,,,,,,,,,,,,,,,,,,,,,,,,,,,,,,,,,,,,,,,,,,,,,
,,,,32172,001,2025-12-04_13h46.31.208,HW_LDT_1,2024.2.4,MacIntel,60.24096386,1.8849,2.05,,0.040639452,-0.380657474,1,0,0,instr_done_button,0,2,2,2,1,3,instructions,"If you are using a touchscreen only device, use the buttons on the screen. Do not use the mouse.





Press the space bar or touch the button below to continue.",0,touchscreen-example.gif,,,,,,,,,,,,,,,,,,,,,,,,,,,,,,,,,,,,,,,,,,,,,,,,,,,,,,,,,,,,,,,,,,,,,,,,,,,,,,,,,,,,,,,,,,,,,,,,,
,,,,32172,001,2025-12-04_13h46.31.208,HW_LDT_1,2024.2.4,MacIntel,60.24096386,2.0521,2.2,,0.040639452,-0.380657474,1,0,0,instr_done_button,0,3,3,3,1,4,instructions,"It is very important that you respond as quickly and accurately as possible, as each letter string will only be on the screen for two seconds. If you do not respond within this time, the message 'Too slow!' will be displayed and the experiment will progress to the next letter string. The first 20 trials will be practice trials and you will receive feedback on your answers. 

Press the space bar or touch the button below to start the practice trials.",0,,,,,,,,,,,,,,,,,,,,,,,,,,,,,,,,,,,,,,,,,,,,,,,,,,,,,,,,,,,,,,,,,,,,,,,,,,,,,,,,,,,,,,,,,,,,,,,,,,
,,,,32172,001,2025-12-04_13h46.31.208,HW_LDT_1,2024.2.4,MacIntel,60.24096386,,,,,,,,,,,,,,,,,,,,2.2267,2.3997,2.3997,2.8998,2.9,3.8333,,0,[0.33311938928182805],[-0.2952725448857454],[1],[0],[0],[0.9306999999880787],"[""button_right""]",0.9307,1,3.8342,4.3323,0,0,0,3,1,1004,WORD,"ID",16,matrix,MATRIX,m,,,,,,,,,,,,,,,,,,,,,,,,,,,,,,,,,,,,,,,,,,,,,,,,,,,,,,,,,,,,,,,,,,
,,,,32172,001,2025-12-04_13h46.31.208,HW_LDT_1,2024.2.4,MacIntel,60.24096386,,,,,,,,,,,,,,,,,,,,4.334,4.5329,4.5329,5.0329,5.0341,6.4332,,0,[-0.51550598476605],[-0.2556022170837867],[1],[0],[0],[1.3981000000238417],"[""button_left""]",1.3981,1,6.4334,6.9328,0,1,1,15,1,1016,NW,UN,16,mushed,WHAISE,z,,,,,,,,,,,,,,,,,,,,,,,,,,,,,,,,,,,,,,,,,,,,,,,,,,,,,,,,,,,,,,,,,,
,,,,32172,001,2025-12-04_13h46.31.208,HW_LDT_1,2024.2.4,MacIntel,60.24096386,,,,,,,,,,,,,,,,,,,,6.9344,7.1328,7.1329,7.6327,7.634,8.6331,m,1,[],[],[],[],[],[],[],0.9811,1,8.6333,9.1328,0,2,2,5,1,1006,WORD,UN,33,frenzy,OBTAIN,m,0.9811,,,,,,,,,,,,,,,,,,,,,,,,,,,,,,,,,,,,,,,,,,,,,,,,,,,,,,,,,,,,,,,,,
,,,,32172,001,2025-12-04_13h46.31.208,HW_LDT_1,2024.2.4,MacIntel,60.24096386,,,,,,,,,,,,,,,,,,,,9.1348,9.3326,9.3327,9.8327,9.8337,10.5818,z,1,[],[],[],[],[],[],[],0.7348,1,10.5819,11.0826,0,3,3,9,1,1010,NW,"ID",33,fariny,FARINY,z,0.7348,,,,,,,,,,,,,,,,,,,,,,,,,,,,,,,,,,,,,,,,,,,,,,,,,,,,,,,,,,,,,,,,,
,,,,32172,001,2025-12-04_13h46.31.208,HW_LDT_1,2024.2.4,MacIntel,60.24096386,,,,,,,,,,,,,,,,,,,,11.0845,11.2825,11.2827,11.7824,11.7831,12.383,m,1,[],[],[],[],[],[],[],0.5842,1,12.3834,12.8827,0,4,4,0,1,1001,WORD,"ID",33,utopia,UTOPIA,m,0.5842,,,,,,,,,,,,,,,,,,,,,,,,,,,,,,,,,,,,,,,,,,,,,,,,,,,,,,,,,,,,,,,,,
,,,,32172,001,2025-12-04_13h46.31.208,HW_LDT_1,2024.2.4,MacIntel,60.24096386,,,,,,,,,,,,,,,,,,,,12.8841,13.0825,13.0825,13.5824,13.5836,14.1492,m,1,[],[],[],[],[],[],[],0.5559,1,14.1494,14.6493,0,5,5,4,1,1005,WORD,UN,33,abound,SQUEAK,m,0.5559,,,,,,,,,,,,,,,,,,,,,,,,,,,,,,,,,,,,,,,,,,,,,,,,,,,,,,,,,,,,,,,,,
,,,,32172,001,2025-12-04_13h46.31.208,HW_LDT_1,2024.2.4,MacIntel,60.24096386,,,,,,,,,,,,,,,,,,,,14.6507,14.8492,14.8492,15.349,15.3501,17.7648,m,1,[],[],[],[],[],[],[],2.4007,1,17.7649,18.2657,0,6,6,7,1,1008,WORD,UN,16,hurdle,VOLUME,m,2.4007,,,,,,,,,,,,,,,,,,,,,,,,,,,,,,,,,,,,,,,,,,,,,,,,,,,,,,,,,,,,,,,,,
,,,,32172,001,2025-12-04_13h46.31.208,HW_LDT_1,2024.2.4,MacIntel,60.24096386,,,,,,,,,,,,,,,,,,,,18.2674,18.4656,18.4656,18.9656,18.9666,20.9323,z,1,[],[],[],[],[],[],[],1.9511,1,20.9325,21.4323,0,7,7,8,1,1009,NW,"ID",33,aslert,ASLERT,z,1.9511,,,,,,,,,,,,,,,,,,,,,,,,,,,,,,,,,,,,,,,,,,,,,,,,,,,,,,,,,,,,,,,,,
,,,,32172,001,2025-12-04_13h46.31.208,HW_LDT_1,2024.2.4,MacIntel,60.24096386,,,,,,,,,,,,,,,,,,,,21.4341,21.6323,21.6324,22.1321,22.1333,23.0322,z,1,[],[],[],[],[],[],[],0.8797,1,23.0324,23.5319,0,8,8,13,1,1014,NW,UN,33,winfer,ROUPET,z,0.8797,,,,,,,,,,,,,,,,,,,,,,,,,,,,,,,,,,,,,,,,,,,,,,,,,,,,,,,,,,,,,,,,,
,,,,32172,001,2025-12-04_13h46.31.208,HW_LDT_1,2024.2.4,MacIntel,60.24096386,,,,,,,,,,,,,,,,,,,,23.5325,23.7318,23.7318,24.2312,24.2316,24.8321,z,1,[],[],[],[],[],[],[],0.5904,1,24.8323,25.3321,0,9,9,11,1,1012,NW,"ID",16,rashet,RASHET,z,0.5904,,,,,,,,,,,,,,,,,,,,,,,,,,,,,,,,,,,,,,,,,,,,,,,,,,,,,,,,,,,,,,,,,
,,,,32172,001,2025-12-04_13h46.31.208,HW_LDT_1,2024.2.4,MacIntel,60.24096386,,,,,,,,,,,,,,,,,,,,25.3334,25.5323,25.5324,26.032,26.033,26.632,z,1,[],[],[],[],[],[],[],0.5806,1,26.6323,27.132,0,10,10,10,1,1011,NW,"ID",16,inlade,INLADE,z,0.5806,,,,,,,,,,,,,,,,,,,,,,,,,,,,,,,,,,,,,,,,,,,,,,,,,,,,,,,,,,,,,,,,,
,,,,32172,001,2025-12-04_13h46.31.208,HW_LDT_1,2024.2.4,MacIntel,60.24096386,,,,,,,,,,,,,,,,,,,,27.134,27.332,27.332,27.832,27.8329,28.3987,m,1,[],[],[],[],[],[],[],0.5469,1,28.3989,28.8985,0,11,11,2,1,1003,WORD,"ID",16,almond,ALMOND,m,0.5469,,,,,,,,,,,,,,,,,,,,,,,,,,,,,,,,,,,,,,,,,,,,,,,,,,,,,,,,,,,,,,,,,
,,,,32172,001,2025-12-04_13h46.31.208,HW_LDT_1,2024.2.4,MacIntel,60.24096386,,,,,,,,,,,,,,,,,,,,28.9001,29.0987,29.0987,29.5986,29.5995,30.1321,m,1,[],[],[],[],[],[],[],0.5144,1,30.1322,30.6319,0,12,12,6,1,1007,WORD,UN,16,tropic,ZOMBIE,m,0.5144,,,,,,,,,,,,,,,,,,,,,,,,,,,,,,,,,,,,,,,,,,,,,,,,,,,,,,,,,,,,,,,,,
,,,,32172,001,2025-12-04_13h46.31.208,HW_LDT_1,2024.2.4,MacIntel,60.24096386,,,,,,,,,,,,,,,,,,,,30.6335,30.8318,30.8319,31.3318,31.3329,31.9481,m,1,[],[],[],[],[],[],[],0.6058,1,31.9483,32.4481,0,13,13,1,1,1002,WORD,"ID",33,adjust,ADJUST,m,0.6058,,,,,,,,,,,,,,,,,,,,,,,,,,,,,,,,,,,,,,,,,,,,,,,,,,,,,,,,,,,,,,,,,
,,,,32172,001,2025-12-04_13h46.31.208,HW_LDT_1,2024.2.4,MacIntel,60.24096386,,,,,,,,,,,,,,,,,,,,32.4487,32.6485,32.6486,33.1484,33.1493,33.7481,m,0,[],[],[],[],[],[],[],0.5793,0,33.7485,34.2483,0,14,14,12,1,1013,NW,UN,33,adveil,SPRINY,z,0.5793,,,,,,,,,,,,,,,,,,,,,,,,,,,,,,,,,,,,,,,,,,,,,,,,,,,,,,,,,,,,,,,,,
,,,,32172,001,2025-12-04_13h46.31.208,HW_LDT_1,2024.2.4,MacIntel,60.24096386,,,,,,,,,,,,,,,,,,,,34.2493,34.4483,34.4483,34.9484,34.9494,36.5982,m,0,[],[],[],[],[],[],[],1.6303,0,36.5984,37.0983,0,15,15,14,1,1015,NW,UN,16,miaber,THRALE,z,1.6303,,,,,,,,,,,,,,,,,,,,,,,,,,,,,,,,,,,,,,,,,,,,,,,,,,,,,,,,,,,,,,,,,
,,,,32172,001,2025-12-04_13h46.31.208,HW_LDT_1,2024.2.4,MacIntel,60.24096386,,,,,,,,,,,,,,,1,end_of_practice,"You have completed the practice trials. During the experimental trials, you will not receive feedback. On some trials you will be asked to report whether the item you just saw was in cursive or print. 
Before you begin, please ensure that you are in a comfortable and quiet location and will not be disturbed for about 15 minutes, as we cannot use your data if you do not complete all the trials. 
 When you are ready to start the experimental trials, please press space or touch the button below.",,,,,,,,,,,,,,,,,,,,,,,,,,,,,,,,,,,,37.1054,38.4821,,-0.003774483,-0.405242621,1,0,0,instr_done_button_3,0,0,0,0,1,,,,,,,,,,,,,,,,,,,,,,,,,,,,,,,,,,,,,,,,,,,,,,,,,,
,,,,32172,001,2025-12-04_13h46.31.208,HW_LDT_1,2024.2.4,MacIntel,60.24096386,,,,,,,,,,,,,,,,,,,,38.499,38.6815,38.6815,39.1814,,,,,,,,,,,,1.3545,0,,,,,,,,,,,,,,z,,,,,,,,,,,,,,,,,1,0,39.1824,40.5484,m,0,1.3545,,[],[],[],[],[],[],[],40.5488,42.5476,42.5477,42.5505,[],[],[],[],[],[],[],,42.5506,42.5518,-0.005104903,-0.268494117,0,0,0,,0,0,0,10,1,4,RL,carminal,cursive,carminal_c.png,,,,,
,,,,32172,001,2025-12-04_13h46.31.208,HW_LDT_1,2024.2.4,MacIntel,60.24096386,,,,,,,,,,,,,,,,,,,,42.5525,42.748,42.7481,43.2479,,,,,,,,,,,,0.7058,1,,,,,,,,,,,,,,m,,,,,,,,,,,,,,,,,2,0,43.2486,43.9647,m,1,0.7058,,[],[],[],[],[],[],[],43.9649,45.9638,45.9639,45.9641,[],[],[],[],[],[],[],,45.9642,45.9643,-0.005104903,-0.268494117,0,0,0,,0,1,1,84,1,4,word,BELOVED,print,beloved_p.png,,,,,
,,,,32172,001,2025-12-04_13h46.31.208,HW_LDT_1,2024.2.4,MacIntel,60.24096386,,,,,,,,,,,,,,,,,,,,45.9651,46.1645,46.1645,46.6644,,,,,,,,,,,,0.5231,0,,,,,,,,,,,,,,z,,,,,,,,,,,,,,,,,3,0,46.6651,47.1979,m,0,0.5231,,[],[],[],[],[],[],[],47.198,49.1977,49.1977,49.198,[],[],[],[],[],[],[],,49.1981,49.1982,-0.005104903,-0.268494117,0,0,0,,0,2,2,63,1,4,TL,miskate,print,miskate_p.png,,,,,
,,,,32172,001,2025-12-04_13h46.31.208,HW_LDT_1,2024.2.4,MacIntel,60.24096386,,,,,,,,,,,,,,,,,,,,49.1995,49.3969,49.397,49.8978,,,,,,,,,,,,0.7583,1,,,,,,,,,,,,,,z,,,,,,,,,,,,,,,,,4,0,49.8985,50.6645,z,1,0.7583,,[],[],[],[],[],[],[],50.6645,52.6642,52.6643,52.6646,[],[],[],[],[],[],[],,52.6647,52.6648,-0.005104903,-0.268494117,0,0,0,,0,3,3,18,1,4,RL,disluge,print,disluge_p.png,,,,,
,,,,32172,001,2025-12-04_13h46.31.208,HW_LDT_1,2024.2.4,MacIntel,60.24096386,,,,,,,,,,,,,,,,,,,,52.6661,52.8642,52.8642,53.3643,,,,,,,,,,,,0.7397,1,,,,,,,,,,,,,,m,,,,,,,,,,,,,,,,,5,0,53.365,54.1143,m,1,0.7397,,[],[],[],[],[],[],[],54.1145,56.1141,56.1142,56.1146,[],[],[],[],[],[],[],,56.1146,56.1147,-0.005104903,-0.268494117,0,0,0,,0,4,4,112,1,4,word,LIBERAL,cursive,liberal_c.png,,,,,
,,,,32172,001,2025-12-04_13h46.31.208,HW_LDT_1,2024.2.4,MacIntel,60.24096386,,,,,,,,,,,,,,,,,,,,56.116,56.3141,56.3141,56.8141,,,,,,,,,,,,0.6729,1,,,,,,,,,,,,,,m,,,,,,,,,,,,,,,,,6,0,56.8147,57.4976,m,1,0.6729,,[],[],[],[],[],[],[],57.4977,59.4973,59.4975,59.4979,[],[],[],[],[],[],[],,59.4979,59.4982,-0.005104903,-0.268494117,0,0,0,,0,5,5,133,1,4,word,PROVIDE,cursive,provide_c.png,,,,,
,,,,32172,001,2025-12-04_13h46.31.208,HW_LDT_1,2024.2.4,MacIntel,60.24096386,,,,,,,,,,,,,,,,,,,,59.4997,59.6973,59.6973,60.197,,,,,,,,,,,,1.0123,0,,,,,,,,,,,,,,m,,,,,,,,,,,,,,,,,7,1,60.1976,61.214,z,0,1.0123,,[],[],[],[],[],[],[],61.2142,63.2136,63.2138,66.8138,[],[],[],[],[],[],[],z,66.8139,66.8141,-0.005104903,-0.268494117,0,0,0,,0,6,6,101,1,4,word,DELICATE,cursive,delicate_c.png,3.59,,,,
,,,,32172,001,2025-12-04_13h46.31.208,HW_LDT_1,2024.2.4,MacIntel,60.24096386,,,,,,,,,,,,,,,,,,,,66.8154,67.0137,67.0138,67.5132,,,,,,,,,,,,0.8578,1,,,,,,,,,,,,,,z,,,,,,,,,,,,,,,,,8,1,67.5139,68.3799,z,1,0.8578,,[],[],[],[],[],[],[],68.38,70.3796,70.3798,71.0632,[],[],[],[],[],[],[],m,71.0633,71.0634,-0.005104903,-0.268494117,0,0,0,,0,7,7,38,1,4,RL,refakive,print,refakive_p.png,0.6775,,,,
,,,,32172,001,2025-12-04_13h46.31.208,HW_LDT_1,2024.2.4,MacIntel,60.24096386,,,,,,,,,,,,,,,,,,,,71.0647,71.2634,71.2636,71.7631,,,,,,,,,,,,0.7426,1,,,,,,,,,,,,,,m,,,,,,,,,,,,,,,,,9,0,71.7637,72.5129,m,1,0.7426,,[],[],[],[],[],[],[],72.5129,74.5134,74.5135,74.5138,[],[],[],[],[],[],[],,74.514,74.5141,-0.005104903,-0.268494117,0,0,0,,0,8,8,96,1,4,word,CONSIDER,cursive,consider_c.png,,,,,
,,,,32172,001,2025-12-04_13h46.31.208,HW_LDT_1,2024.2.4,MacIntel,60.24096386,,,,,,,,,,,,,,,,,,,,74.5154,74.7131,74.7132,75.2126,,,,,,,,,,,,1.0069,1,,,,,,,,,,,,,,z,,,,,,,,,,,,,,,,,10,0,75.2134,76.2302,z,1,1.0069,,[],[],[],[],[],[],[],76.2304,78.2298,78.23,78.2301,[],[],[],[],[],[],[],,78.2302,78.2305,-0.005104903,-0.268494117,0,0,0,,0,9,9,57,1,4,TL,etidor,print,etidor_p.png,,,,,
,,,,32172,001,2025-12-04_13h46.31.208,HW_LDT_1,2024.2.4,MacIntel,60.24096386,,,,,,,,,,,,,,,,,,,,78.2318,78.4298,78.4299,78.9298,,,,,,,,,,,,1.2917,1,,,,,,,,,,,,,,m,,,,,,,,,,,,,,,,,11,1,78.9305,80.2299,m,1,1.2917,,[],[],[],[],[],[],[],80.2299,82.2298,82.2299,83.1631,[],[],[],[],[],[],[],z,83.1633,83.1634,-0.005104903,-0.268494117,0,0,0,,0,10,10,102,1,4,word,DENSITY,cursive,density_c.png,0.9241,,,,
,,,,32172,001,2025-12-04_13h46.31.208,HW_LDT_1,2024.2.4,MacIntel,60.24096386,,,,,,,,,,,,,,,,,,,,83.1647,83.363,83.3631,83.863,,,,,,,,,,,,1.2585,1,,,,,,,,,,,,,,z,,,,,,,,,,,,,,,,,12,1,83.8638,85.1293,z,1,1.2585,,[],[],[],[],[],[],[],85.1295,87.1296,87.1298,93.2626,[],[],[],[],[],[],[],z,93.2627,93.2628,-0.005104903,-0.268494117,0,0,0,,0,11,11,46,1,4,RL,skofen,cursive,skofen_c.png,6.1252,,,,
,,,,32172,001,2025-12-04_13h46.31.208,HW_LDT_1,2024.2.4,MacIntel,60.24096386,,,,,,,,,,,,,,,,,,,,93.2639,93.4626,93.4626,93.9625,,,,,,,,,,,,0.8587,1,,,,,,,,,,,,,,m,,,,,,,,,,,,,,,,,13,0,93.9633,94.8293,m,1,0.8587,,[],[],[],[],[],[],[],94.8294,96.8291,96.8291,96.8294,[],[],[],[],[],[],[],,96.8294,96.8294,-0.005104903,-0.268494117,0,0,0,,0,12,12,80,1,4,word,ACADEMY,print,academy_p.png,,,,,
,,,,32172,001,2025-12-04_13h46.31.208,HW_LDT_1,2024.2.4,MacIntel,60.24096386,,,,,,,,,,,,,,,,,,,,96.8306,97.0292,97.0292,97.5291,,,,,,,,,,,,0.8154,1,,,,,,,,,,,,,,z,,,,,,,,,,,,,,,,,14,0,97.5297,98.3459,z,1,0.8154,,[],[],[],[],[],[],[],98.346,100.345,100.345,100.3452,[],[],[],[],[],[],[],,100.3453,100.3453,-0.005104903,-0.268494117,0,0,0,,0,13,13,9,1,4,RL,cafigal,print,cafigal_p.png,,,,,
,,,,32172,001,2025-12-04_13h46.31.208,HW_LDT_1,2024.2.4,MacIntel,60.24096386,,,,,,,,,,,,,,,,,,,,100.3467,100.5456,100.5457,101.0456,,,,,,,,,,,,1.7149,0,,,,,,,,,,,,,,m,,,,,,,,,,,,,,,,,15,0,101.0463,102.7623,z,0,1.7149,,[],[],[],[],[],[],[],102.7624,104.7622,104.7622,104.7625,[],[],[],[],[],[],[],,104.7625,104.7626,-0.005104903,-0.268494117,0,0,0,,0,14,14,106,1,4,word,ELABORATE,cursive,elaborate_c.png,,,,,
,,,,32172,001,2025-12-04_13h46.31.208,HW_LDT_1,2024.2.4,MacIntel,60.24096386,,,,,,,,,,,,,,,,,,,,104.7642,104.9621,104.9621,105.4621,,,,,,,,,,,,1.7435,1,,,,,,,,,,,,,,z,,,,,,,,,,,,,,,,,16,0,105.4625,107.2121,z,1,1.7435,,[],[],[],[],[],[],[],107.2122,109.212,109.212,109.2124,[],[],[],[],[],[],[],,109.2124,109.2125,-0.005104903,-0.268494117,0,0,0,,0,15,15,16,1,4,RL,desifate,cursive,desifate_c.png,,,,,
,,,,32172,001,2025-12-04_13h46.31.208,HW_LDT_1,2024.2.4,MacIntel,60.24096386,,,,,,,,,,,,,,,,,,,,109.214,109.412,109.4121,109.912,,,,,,,,,,,,0.7086,1,,,,,,,,,,,,,,m,,,,,,,,,,,,,,,,,17,0,109.9127,110.6286,m,1,0.7086,,[],[],[],[],[],[],[],110.6286,112.6281,112.6282,112.6284,[],[],[],[],[],[],[],,112.6285,112.6285,-0.005104903,-0.268494117,0,0,0,,0,16,16,93,1,4,word,CEREMONY,print,ceremony_p.png,,,,,
,,,,32172,001,2025-12-04_13h46.31.208,HW_LDT_1,2024.2.4,MacIntel,60.24096386,,,,,,,,,,,,,,,,,,,,112.6299,112.8278,112.8279,113.3279,,,,,,,,,,,,0.7827,0,,,,,,,,,,,,,,m,,,,,,,,,,,,,,,,,18,0,113.3283,114.1118,z,0,0.7827,,[],[],[],[],[],[],[],114.1119,116.1117,116.1118,116.1121,[],[],[],[],[],[],[],,116.1121,116.1122,-0.005104903,-0.268494117,0,0,0,,0,17,17,92,1,4,word,CATEGORY,cursive,category_c.png,,,,,
,,,,32172,001,2025-12-04_13h46.31.208,HW_LDT_1,2024.2.4,MacIntel,60.24096386,,,,,,,,,,,,,,,,,,,,116.1137,116.3113,116.3114,116.8119,,,,,,,,,,,,1.0603,1,,,,,,,,,,,,,,m,,,,,,,,,,,,,,,,,19,0,116.8125,117.8784,m,1,1.0603,,[],[],[],[],[],[],[],117.8785,119.8782,119.8783,119.8785,[],[],[],[],[],[],[],,119.8786,119.8787,-0.005104903,-0.268494117,0,0,0,,0,18,18,81,1,4,word,ADVISORY,cursive,advisory_c.png,,,,,
,,,,32172,001,2025-12-04_13h46.31.208,HW_LDT_1,2024.2.4,MacIntel,60.24096386,,,,,,,,,,,,,,,,,,,,119.8802,120.0782,120.0783,120.5773,,,,,,,,,,,,0.7274,1,,,,,,,,,,,,,,m,,,,,,,,,,,,,,,,,20,0,120.578,121.3117,m,1,0.7274,,[],[],[],[],[],[],[],121.3118,123.3115,123.3115,123.3118,[],[],[],[],[],[],[],,123.3118,123.312,-0.005104903,-0.268494117,0,0,0,,0,19,19,127,1,4,word,ORIGINAL,print,original_p.png,,,,,
,,,,32172,001,2025-12-04_13h46.31.208,HW_LDT_1,2024.2.4,MacIntel,60.24096386,,,,,,,,,,,,,,,,,,,,123.3135,123.5108,123.5108,124.0114,,,,,,,,,,,,0.9698,1,,,,,,,,,,,,,,m,,,,,,,,,,,,,,,,,21,0,124.0121,124.9947,m,1,0.9698,,[],[],[],[],[],[],[],124.9949,126.9948,126.9949,126.9952,[],[],[],[],[],[],[],,126.9953,126.9954,-0.005104903,-0.268494117,0,0,0,,0,20,20,143,1,4,word,REMOVAL,print,removal_p.png,,,,,
,,,,32172,001,2025-12-04_13h46.31.208,HW_LDT_1,2024.2.4,MacIntel,60.24096386,,,,,,,,,,,,,,,,,,,,126.9968,127.1945,127.1946,127.6947,,,,,,,,,,,,2.5875,1,,,,,,,,,,,,,,z,,,,,,,,,,,,,,,,,22,1,127.6952,130.2946,z,1,2.5875,,[],[],[],[],[],[],[],130.2947,132.2944,132.2945,133.6278,[],[],[],[],[],[],[],z,133.6279,133.628,-0.005104903,-0.268494117,0,0,0,,0,21,21,34,1,4,RL,posity,cursive,posity_c.png,1.3258,,,,
,,,,32172,001,2025-12-04_13h46.31.208,HW_LDT_1,2024.2.4,MacIntel,60.24096386,,,,,,,,,,,,,,,,,,,,133.6294,133.8275,133.8276,134.3276,,,,,,,,,,,,0.2787,1,,,,,,,,,,,,,,m,,,,,,,,,,,,,,,,,23,0,134.3282,134.611,m,1,0.2787,,[],[],[],[],[],[],[],134.6111,136.6109,136.6109,136.6113,[],[],[],[],[],[],[],,136.6113,136.6114,-0.005104903,-0.268494117,0,0,0,,0,22,22,124,1,4,word,NUMERICAL,cursive,numerical_c.png,,,,,
,,,,32172,001,2025-12-04_13h46.31.208,HW_LDT_1,2024.2.4,MacIntel,60.24096386,,,,,,,,,,,,,,,,,,,,136.6127,136.8109,136.8109,137.3109,,,,,,,,,,,,0.7798,1,,,,,,,,,,,,,,m,,,,,,,,,,,,,,,,,24,0,137.3114,138.0942,m,1,0.7798,,[],[],[],[],[],[],[],138.0942,140.094,140.0941,140.0943,[],[],[],[],[],[],[],,140.0944,140.0945,-0.005104903,-0.268494117,0,0,0,,0,23,23,95,1,4,word,COMEDY,print,comedy_p.png,,,,,
,,,,32172,001,2025-12-04_13h46.31.208,HW_LDT_1,2024.2.4,MacIntel,60.24096386,,,,,,,,,,,,,,,,,,,,140.0958,140.294,140.2941,140.7941,,,,,,,,,,,,0.7379,1,,,,,,,,,,,,,,z,,,,,,,,,,,,,,,,,25,0,140.7947,141.5438,z,1,0.7379,,[],[],[],[],[],[],[],141.5439,143.5433,143.5434,143.5437,[],[],[],[],[],[],[],,143.5438,143.5438,-0.005104903,-0.268494117,0,0,0,,0,24,24,76,1,4,TL,setanor,print,setanor_p.png,,,,,
,,,,32172,001,2025-12-04_13h46.31.208,HW_LDT_1,2024.2.4,MacIntel,60.24096386,,,,,,,,,,,,,,,,,,,,143.5452,143.744,143.744,144.2439,,,,,,,,,,,,0.7301,1,,,,,,,,,,,,,,z,,,,,,,,,,,,,,,,,26,0,144.2445,144.9773,z,1,0.7301,,[],[],[],[],[],[],[],144.9774,146.9771,146.9773,146.9775,[],[],[],[],[],[],[],,146.9775,146.9777,-0.005104903,-0.268494117,0,0,0,,0,25,25,23,1,4,RL,linefal,cursive,linefal_c.png,,,,,
,,,,32172,001,2025-12-04_13h46.31.208,HW_LDT_1,2024.2.4,MacIntel,60.24096386,,,,,,,,,,,,,,,,,,,,146.979,147.1771,147.1771,147.6771,,,,,,,,,,,,1.4305,1,,,,,,,,,,,,,,z,,,,,,,,,,,,,,,,,27,0,147.6778,149.1104,z,1,1.4305,,[],[],[],[],[],[],[],149.1106,151.1103,151.1103,151.1107,[],[],[],[],[],[],[],,151.1108,151.111,-0.005104903,-0.268494117,0,0,0,,0,26,26,41,1,4,RL,rebicent,cursive,rebicent_c.png,,,,,
,,,,32172,001,2025-12-04_13h46.31.208,HW_LDT_1,2024.2.4,MacIntel,60.24096386,,,,,,,,,,,,,,,,,,,,151.1124,151.3101,151.3102,151.8102,,,,,,,,,,,,0.6875,0,,,,,,,,,,,,,,m,,,,,,,,,,,,,,,,,28,0,151.8108,152.5104,z,0,0.6875,,[],[],[],[],[],[],[],152.5104,154.5101,154.5102,154.5104,[],[],[],[],[],[],[],,154.5105,154.5105,-0.005104903,-0.268494117,0,0,0,,0,27,27,138,1,4,word,REFUSAL,cursive,refusal_c.png,,,,,
,,,,32172,001,2025-12-04_13h46.31.208,HW_LDT_1,2024.2.4,MacIntel,60.24096386,,,,,,,,,,,,,,,,,,,,154.5118,154.7103,154.7103,155.2102,,,,,,,,,,,,0.513,1,,,,,,,,,,,,,,m,,,,,,,,,,,,,,,,,29,0,155.2108,155.7268,m,1,0.513,,[],[],[],[],[],[],[],155.7269,157.7268,157.7268,157.727,[],[],[],[],[],[],[],,157.7271,157.7272,-0.005104903,-0.268494117,0,0,0,,0,28,28,126,1,4,word,OPTIMAL,print,optimal_p.png,,,,,
,,,,32172,001,2025-12-04_13h46.31.208,HW_LDT_1,2024.2.4,MacIntel,60.24096386,,,,,,,,,,,,,,,,,,,,157.7284,157.9267,157.9267,158.4268,,,,,,,,,,,,1.0936,1,,,,,,,,,,,,,,m,,,,,,,,,,,,,,,,,30,0,158.4273,159.5267,m,1,1.0936,,[],[],[],[],[],[],[],159.5267,161.5266,161.5266,161.5269,[],[],[],[],[],[],[],,161.527,161.527,-0.005104903,-0.268494117,0,0,0,,0,29,29,152,1,4,word,SPECIMEN,cursive,specimen_c.png,,,,,
,,,,32172,001,2025-12-04_13h46.31.208,HW_LDT_1,2024.2.4,MacIntel,60.24096386,,,,,,,,,,,,,,,,,,,,161.5283,161.7266,161.7266,162.2265,,,,,,,,,,,,0.7372,1,,,,,,,,,,,,,,m,,,,,,,,,,,,,,,,,31,0,162.2271,162.9766,m,1,0.7372,,[],[],[],[],[],[],[],162.9767,164.9765,164.9765,164.9767,[],[],[],[],[],[],[],,164.9768,164.9769,-0.005104903,-0.268494117,0,0,0,,0,30,30,132,1,4,word,PROPOSAL,print,proposal_p.png,,,,,
,,,,32172,001,2025-12-04_13h46.31.208,HW_LDT_1,2024.2.4,MacIntel,60.24096386,,,,,,,,,,,,,,,,,,,,164.9783,165.1764,165.1764,165.676,,,,,,,,,,,,0.7275,1,,,,,,,,,,,,,,m,,,,,,,,,,,,,,,,,32,0,165.6766,166.409,m,1,0.7275,,[],[],[],[],[],[],[],166.4092,168.409,168.4091,168.4094,[],[],[],[],[],[],[],,168.4094,168.4095,-0.005104903,-0.268494117,0,0,0,,0,31,31,122,1,4,word,MOBILE,print,mobile_p.png,,,,,
,,,,32172,001,2025-12-04_13h46.31.208,HW_LDT_1,2024.2.4,MacIntel,60.24096386,,,,,,,,,,,,,,,,,,,,168.4107,168.6095,168.6096,169.1095,,,,,,,,,,,,0.8539,0,,,,,,,,,,,,,,m,,,,,,,,,,,,,,,,,33,0,169.1102,169.9763,z,0,0.8539,,[],[],[],[],[],[],[],169.9764,171.9758,171.9759,171.976,[],[],[],[],[],[],[],,171.976,171.9761,-0.005104903,-0.268494117,0,0,0,,0,32,32,114,1,4,word,LOCATE,cursive,locate_c.png,,,,,
,,,,32172,001,2025-12-04_13h46.31.208,HW_LDT_1,2024.2.4,MacIntel,60.24096386,,,,,,,,,,,,,,,,,,,,171.9773,172.1761,172.1761,172.6761,,,,,,,,,,,,1.1133,1,,,,,,,,,,,,,,z,,,,,,,,,,,,,,,,,34,0,172.6766,173.7928,z,1,1.1133,,[],[],[],[],[],[],[],173.7929,175.7926,175.7926,175.7928,[],[],[],[],[],[],[],,175.7929,175.793,-0.005104903,-0.268494117,0,0,0,,0,33,33,15,1,4,RL,debave,cursive,debave_c.png,,,,,
,,,,32172,001,2025-12-04_13h46.31.208,HW_LDT_1,2024.2.4,MacIntel,60.24096386,,,,,,,,,,,,,,,,,,,,175.7944,175.9927,175.9927,176.4923,,,,,,,,,,,,0.795,1,,,,,,,,,,,,,,z,,,,,,,,,,,,,,,,,35,0,176.4928,177.2925,z,1,0.795,,[],[],[],[],[],[],[],177.2927,179.2919,179.2919,179.2922,[],[],[],[],[],[],[],,179.2922,179.2923,-0.005104903,-0.268494117,0,0,0,,0,34,34,37,1,4,RL,renutal,cursive,renutal_c.png,,,,,
,,,,32172,001,2025-12-04_13h46.31.208,HW_LDT_1,2024.2.4,MacIntel,60.24096386,,,,,,,,,,,,,,,,,,,,179.2935,179.4924,179.4925,179.9924,,,,,,,,,,,,0.88,1,,,,,,,,,,,,,,m,,,,,,,,,,,,,,,,,36,0,179.993,180.8758,m,1,0.88,,[],[],[],[],[],[],[],180.8759,182.8756,182.8757,182.8759,[],[],[],[],[],[],[],,182.876,182.8761,-0.005104903,-0.268494117,0,0,0,,0,35,35,146,1,4,word,RETIRE,print,retire_p.png,,,,,
,,,,32172,001,2025-12-04_13h46.31.208,HW_LDT_1,2024.2.4,MacIntel,60.24096386,,,,,,,,,,,,,,,,,,,,182.8774,183.0757,183.0757,183.5756,,,,,,,,,,,,0.7727,1,,,,,,,,,,,,,,z,,,,,,,,,,,,,,,,,37,0,183.5761,184.3589,z,1,0.7727,,[],[],[],[],[],[],[],184.359,186.359,186.359,186.3592,[],[],[],[],[],[],[],,186.3593,186.3593,-0.005104903,-0.268494117,0,0,0,,0,36,36,13,1,4,RL,crisival,cursive,crisival_c.png,,,,,
,,,,32172,001,2025-12-04_13h46.31.208,HW_LDT_1,2024.2.4,MacIntel,60.24096386,,,,,,,,,,,,,,,,,,,,186.3604,186.5589,186.559,187.0585,,,,,,,,,,,,0.6707,1,,,,,,,,,,,,,,m,,,,,,,,,,,,,,,,,38,1,187.0591,187.7421,m,1,0.6707,,[],[],[],[],[],[],[],187.7423,189.7421,189.7421,193.2421,[],[],[],[],[],[],[],z,193.2421,193.2423,-0.005104903,-0.268494117,0,0,0,,0,37,37,119,1,4,word,MEMORY,print,memory_p.png,3.4878,,,,
,,,,32172,001,2025-12-04_13h46.31.208,HW_LDT_1,2024.2.4,MacIntel,60.24096386,,,,,,,,,,,,,,,,,,,,193.2436,193.4411,193.4412,193.9419,,,,,,,,,,,,1.204,1,,,,,,,,,,,,,,m,,,,,,,,,,,,,,,,,39,0,193.9424,195.1586,m,1,1.204,,[],[],[],[],[],[],[],195.1587,197.1585,197.1585,197.1588,[],[],[],[],[],[],[],,197.1588,197.159,-0.005104903,-0.268494117,0,0,0,,0,38,38,110,1,4,word,HERITAGE,print,heritage_p.png,,,,,
,,,,32172,001,2025-12-04_13h46.31.208,HW_LDT_1,2024.2.4,MacIntel,60.24096386,,,,,,,,,,,,,,,,,,,,197.1604,197.3585,197.3586,197.8584,,,,,,,,,,,,0.78,1,,,,,,,,,,,,,,m,,,,,,,,,,,,,,,,,40,0,197.8589,198.6416,m,1,0.78,,[],[],[],[],[],[],[],198.6418,200.6413,200.6413,200.6416,[],[],[],[],[],[],[],,200.6416,200.6418,-0.005104903,-0.268494117,0,0,0,,0,39,39,136,1,4,word,RADICAL,print,radical_p.png,,,,,
,,,,32172,001,2025-12-04_13h46.31.208,HW_LDT_1,2024.2.4,MacIntel,60.24096386,,,,,,,,,,,,,,,,,,,,200.6429,200.8417,200.8418,201.3411,,,,,,,,,,,,0.913,1,,,,,,,,,,,,,,m,,,,,,,,,,,,,,,,,41,0,201.3417,202.2583,m,1,0.913,,[],[],[],[],[],[],[],202.2584,204.2581,204.2582,204.2584,[],[],[],[],[],[],[],,204.2584,204.2585,-0.005104903,-0.268494117,0,0,0,,0,40,40,82,1,4,word,AMATEUR,cursive,amateur_c.png,,,,,
,,,,32172,001,2025-12-04_13h46.31.208,HW_LDT_1,2024.2.4,MacIntel,60.24096386,,,,,,,,,,,,,,,,,,,,204.2598,204.4582,204.4583,204.9582,,,,,,,,,,,,0.8131,1,,,,,,,,,,,,,,m,,,,,,,,,,,,,,,,,42,0,204.9589,205.7747,m,1,0.8131,,[],[],[],[],[],[],[],205.7748,207.7739,207.7739,207.7742,[],[],[],[],[],[],[],,207.7744,207.7744,-0.005104903,-0.268494117,0,0,0,,0,41,41,89,1,4,word,CAPACITY,cursive,capacity_c.png,,,,,
,,,,32172,001,2025-12-04_13h46.31.208,HW_LDT_1,2024.2.4,MacIntel,60.24096386,,,,,,,,,,,,,,,,,,,,207.7757,207.9747,207.9748,208.4743,,,,,,,,,,,,1.0961,1,,,,,,,,,,,,,,z,,,,,,,,,,,,,,,,,43,0,208.4745,209.5747,z,1,1.0961,,[],[],[],[],[],[],[],209.5748,211.5745,211.5746,211.5749,[],[],[],[],[],[],[],,211.5749,211.575,-0.005104903,-0.268494117,0,0,0,,0,42,42,36,1,4,RL,rabigly,cursive,rabigly_c.png,,,,,
,,,,32172,001,2025-12-04_13h46.31.208,HW_LDT_1,2024.2.4,MacIntel,60.24096386,,,,,,,,,,,,,,,,,,,,211.5764,211.7746,211.7746,212.2737,,,,,,,,,,,,1.0976,1,,,,,,,,,,,,,,z,,,,,,,,,,,,,,,,,44,0,212.2744,213.3745,z,1,1.0976,,[],[],[],[],[],[],[],213.3746,215.3743,215.3744,215.3746,[],[],[],[],[],[],[],,215.3747,215.3748,-0.005104903,-0.268494117,0,0,0,,0,43,43,24,1,4,RL,marmipal,cursive,marmipal_c.png,,,,,
,,,,32172,001,2025-12-04_13h46.31.208,HW_LDT_1,2024.2.4,MacIntel,60.24096386,,,,,,,,,,,,,,,,,,,,215.376,215.5744,215.5745,216.0744,,,,,,,,,,,,0.9725,1,,,,,,,,,,,,,,z,,,,,,,,,,,,,,,,,45,0,216.075,217.0575,z,1,0.9725,,[],[],[],[],[],[],[],217.0575,219.0576,219.0577,219.0579,[],[],[],[],[],[],[],,219.058,219.0583,-0.005104903,-0.268494117,0,0,0,,0,44,44,49,1,4,RL,vesofity,cursive,vesofity_c.png,,,,,
,,,,32172,001,2025-12-04_13h46.31.208,HW_LDT_1,2024.2.4,MacIntel,60.24096386,,,,,,,,,,,,,,,,,,,,219.0599,219.2576,219.2576,219.7575,,,,,,,,,,,,3.6875,1,,,,,,,,,,,,,,m,,,,,,,,,,,,,,,,,46,0,219.7581,223.4574,m,1,3.6875,,[],[],[],[],[],[],[],223.4574,225.4573,225.4575,225.4576,[],[],[],[],[],[],[],,225.4577,225.4578,-0.005104903,-0.268494117,0,0,0,,0,45,45,140,1,4,word,RELATIVE,print,relative_p.png,,,,,
,,,,32172,001,2025-12-04_13h46.31.208,HW_LDT_1,2024.2.4,MacIntel,60.24096386,,,,,,,,,,,,,,,,,,,,225.4594,225.6573,225.6573,226.1565,,,,,,,,,,,,1.6886,1,,,,,,,,,,,,,,z,,,,,,,,,,,,,,,,,47,0,226.157,227.8574,z,1,1.6886,,[],[],[],[],[],[],[],227.8575,229.8572,229.8573,229.8574,[],[],[],[],[],[],[],,229.8576,229.8577,-0.005104903,-0.268494117,0,0,0,,0,46,46,47,1,4,RL,stopave,print,stopave_p.png,,,,,
,,,,32172,001,2025-12-04_13h46.31.208,HW_LDT_1,2024.2.4,MacIntel,60.24096386,,,,,,,,,,,,,,,,,,,,229.8589,230.0572,230.0572,230.5565,,,,,,,,,,,,2.4058,0,,,,,,,,,,,,,,z,,,,,,,,,,,,,,,,,48,0,230.5572,232.9737,m,0,2.4058,,[],[],[],[],[],[],[],232.9738,234.9733,234.9733,234.9735,[],[],[],[],[],[],[],,234.9736,234.9737,-0.005104903,-0.268494117,0,0,0,,0,47,47,53,1,4,TL,cemerony,print,cemerony_p.png,,,,,
,,,,32172,001,2025-12-04_13h46.31.208,HW_LDT_1,2024.2.4,MacIntel,60.24096386,,,,,,,,,,,,,,,,,,,,234.975,235.1737,235.1738,235.6737,,,,,,,,,,,,0.6891,1,,,,,,,,,,,,,,m,,,,,,,,,,,,,,,,,49,0,235.6743,236.3733,m,1,0.6891,,[],[],[],[],[],[],[],236.3734,238.3732,238.3732,238.3735,[],[],[],[],[],[],[],,238.3735,238.3737,-0.005104903,-0.268494117,0,0,0,,0,48,48,120,1,4,word,MILITARY,print,military_p.png,,,,,
,,,,32172,001,2025-12-04_13h46.31.208,HW_LDT_1,2024.2.4,MacIntel,60.24096386,,,,,,,,,,,,,,,,,,,,238.375,238.5735,238.5735,239.0735,,,,,,,,,,,,0.9538,1,,,,,,,,,,,,,,z,,,,,,,,,,,,,,,,,50,0,239.0741,240.0402,z,1,0.9538,,[],[],[],[],[],[],[],240.0403,242.0394,242.0395,242.0397,[],[],[],[],[],[],[],,242.0397,242.0398,-0.005104903,-0.268494117,0,0,0,,0,49,49,17,1,4,RL,denficy,cursive,denficy_c.png,,,,,
,,,,32172,001,2025-12-04_13h46.31.208,HW_LDT_1,2024.2.4,MacIntel,60.24096386,,,,,,,,,,,,,,,,,,,,242.0411,242.2401,242.2401,242.7399,,,,,,,,,,,,0.621,1,,,,,,,,,,,,,,z,,,,,,,,,,,,,,,,,51,0,242.7405,243.3728,z,1,0.621,,[],[],[],[],[],[],[],243.3731,245.3727,245.3728,245.373,[],[],[],[],[],[],[],,245.373,245.3732,-0.005104903,-0.268494117,0,0,0,,0,50,50,22,1,4,RL,linedal,cursive,linedal_c.png,,,,,
,,,,32172,001,2025-12-04_13h46.31.208,HW_LDT_1,2024.2.4,MacIntel,60.24096386,,,,,,,,,,,,,,,,,,,,245.3743,245.5726,245.5727,246.0731,,,,,,,,,,,,0.999,0,,,,,,,,,,,,,,z,,,,,,,,,,,,,,,,,52,0,246.0737,247.0734,m,0,0.999,,[],[],[],[],[],[],[],247.0735,249.0731,249.0731,249.0734,[],[],[],[],[],[],[],,249.0735,249.0735,-0.005104903,-0.268494117,0,0,0,,0,51,51,33,1,4,RL,pamest,cursive,pamest_c.png,,,,,
,,,,32172,001,2025-12-04_13h46.31.208,HW_LDT_1,2024.2.4,MacIntel,60.24096386,,,,,,,,,,,,,,,,,,,,249.0749,249.273,249.273,249.773,,,,,,,,,,,,0.6385,1,,,,,,,,,,,,,,m,,,,,,,,,,,,,,,,,53,0,249.7735,250.423,m,1,0.6385,,[],[],[],[],[],[],[],250.4232,252.423,252.423,252.4232,[],[],[],[],[],[],[],,252.4233,252.4234,-0.005104903,-0.268494117,0,0,0,,0,52,52,109,1,4,word,GRATEFUL,print,grateful_p.png,,,,,
,,,,32172,001,2025-12-04_13h46.31.208,HW_LDT_1,2024.2.4,MacIntel,60.24096386,,,,,,,,,,,,,,,,,,,,252.4247,252.6227,252.6227,253.1229,,,,,,,,,,,,0.6894,1,,,,,,,,,,,,,,m,,,,,,,,,,,,,,,,,54,1,253.1235,253.8229,m,1,0.6894,,[],[],[],[],[],[],[],253.8229,255.8228,255.8229,256.3896,[],[],[],[],[],[],[],z,256.3897,256.3899,-0.005104903,-0.268494117,0,0,0,,0,53,53,118,1,4,word,MEDICINE,cursive,medicine_c.png,0.5546,,,,
,,,,32172,001,2025-12-04_13h46.31.208,HW_LDT_1,2024.2.4,MacIntel,60.24096386,,,,,,,,,,,,,,,,,,,,256.3911,256.5896,256.5897,257.0894,,,,,,,,,,,,0.6041,1,,,,,,,,,,,,,,m,,,,,,,,,,,,,,,,,55,1,257.09,257.7064,m,1,0.6041,,[],[],[],[],[],[],[],257.7064,259.706,259.7061,260.6895,[],[],[],[],[],[],[],m,260.6896,260.6898,-0.005104903,-0.268494117,0,0,0,,0,54,54,123,1,4,word,MODERATE,print,moderate_p.png,0.983,,,,
,,,,32172,001,2025-12-04_13h46.31.208,HW_LDT_1,2024.2.4,MacIntel,60.24096386,,,,,,,,,,,,,,,,,,,,260.691,260.8883,260.8883,261.3892,,,,,,,,,,,,1.2285,0,,,,,,,,,,,,,,m,,,,,,,,,,,,,,,,,56,0,261.3899,262.6218,z,0,1.2285,,[],[],[],[],[],[],[],262.6219,264.6224,264.6225,264.6227,[],[],[],[],[],[],[],,264.6228,264.6229,-0.005104903,-0.268494117,0,0,0,,0,55,55,113,1,4,word,LITERAL,cursive,literal_c.png,,,,,
,,,,32172,001,2025-12-04_13h46.31.208,HW_LDT_1,2024.2.4,MacIntel,60.24096386,,,,,,,,,,,,,,,,,,,,264.6242,264.8216,264.8217,265.3216,,,,,,,,,,,,0.4713,1,,,,,,,,,,,,,,m,,,,,,,,,,,,,,,,,57,1,265.3224,265.8051,m,1,0.4713,,[],[],[],[],[],[],[],265.8052,267.8053,267.8054,268.8724,[],[],[],[],[],[],[],m,268.8725,268.8727,-0.005104903,-0.268494117,0,0,0,,0,56,56,131,1,4,word,POPULAR,print,popular_p.png,1.0581,,,,
,,,,32172,001,2025-12-04_13h46.31.208,HW_LDT_1,2024.2.4,MacIntel,60.24096386,,,,,,,,,,,,,,,,,,,,268.874,269.0715,269.0715,269.5717,,,,,,,,,,,,1.0995,1,,,,,,,,,,,,,,z,,,,,,,,,,,,,,,,,58,0,269.5723,270.6724,z,1,1.0995,,[],[],[],[],[],[],[],270.6726,272.6719,272.672,272.6722,[],[],[],[],[],[],[],,272.6723,272.6724,-0.005104903,-0.268494117,0,0,0,,0,57,57,3,1,4,RL,bewoted,print,bewoted_p.png,,,,,
,,,,32172,001,2025-12-04_13h46.31.208,HW_LDT_1,2024.2.4,MacIntel,60.24096386,,,,,,,,,,,,,,,,,,,,272.6735,272.872,272.872,273.3721,,,,,,,,,,,,0.631,0,,,,,,,,,,,,,,z,,,,,,,,,,,,,,,,,59,1,273.3727,274.0054,m,0,0.631,,[],[],[],[],[],[],[],274.0055,276.0052,276.0054,276.8554,[],[],[],[],[],[],[],m,276.8555,276.8557,-0.005104903,-0.268494117,0,0,0,,0,58,58,60,1,4,TL,hetirage,print,hetirage_p.png,0.8407,,,,
,,,,32172,001,2025-12-04_13h46.31.208,HW_LDT_1,2024.2.4,MacIntel,60.24096386,,,,,,,,,,,,,,,,,,,,276.857,277.0553,277.0553,277.5553,,,,,,,,,,,,0.7974,0,,,,,,,,,,,,,,m,,,,,,,,,,,,,,,,,60,0,277.556,278.3551,z,0,0.7974,,[],[],[],[],[],[],[],278.3551,280.3551,280.3552,280.3554,[],[],[],[],[],[],[],,280.3555,280.3556,-0.005104903,-0.268494117,0,0,0,,0,59,59,85,1,4,word,BENEFIT,cursive,benefit_c.png,,,,,
,,,,32172,001,2025-12-04_13h46.31.208,HW_LDT_1,2024.2.4,MacIntel,60.24096386,,,,,,,,,,,,,,,,,,,,280.3568,280.5553,280.5554,281.0551,,,,,,,,,,,,0.8866,1,,,,,,,,,,,,,,z,,,,,,,,,,,,,,,,,61,0,281.0558,281.9551,z,1,0.8866,,[],[],[],[],[],[],[],281.9551,283.955,283.9551,283.9553,[],[],[],[],[],[],[],,283.9553,283.9554,-0.005104903,-0.268494117,0,0,0,,0,60,60,50,1,4,RL,vecelan,cursive,vecelan_c.png,,,,,
,,,,32172,001,2025-12-04_13h46.31.208,HW_LDT_1,2024.2.4,MacIntel,60.24096386,,,,,,,,,,,,,,,,,,,,283.9567,284.1551,284.1551,284.655,,,,,,,,,,,,0.5204,1,,,,,,,,,,,,,,m,,,,,,,,,,,,,,,,,62,0,284.6556,285.1883,m,1,0.5204,,[],[],[],[],[],[],[],285.1884,287.1882,287.1883,287.1885,[],[],[],[],[],[],[],,287.1885,287.1887,-0.005104903,-0.268494117,0,0,0,,0,61,61,115,1,4,word,LOGICAL,print,logical_p.png,,,,,
,,,,32172,001,2025-12-04_13h46.31.208,HW_LDT_1,2024.2.4,MacIntel,60.24096386,,,,,,,,,,,,,,,,,,,,287.19,287.3882,287.3882,287.8882,,,,,,,,,,,,0.5708,1,,,,,,,,,,,,,,m,,,,,,,,,,,,,,,,,63,0,287.8888,288.4716,m,1,0.5708,,[],[],[],[],[],[],[],288.4716,290.4714,290.4715,290.4717,[],[],[],[],[],[],[],,290.4718,290.4719,-0.005104903,-0.268494117,0,0,0,,0,62,62,156,1,4,word,TRIBUTE,print,tribute_p.png,,,,,
,,,,32172,001,2025-12-04_13h46.31.208,HW_LDT_1,2024.2.4,MacIntel,60.24096386,,,,,,,,,,,,,,,,,,,,290.4731,290.6714,290.6715,291.1714,,,,,,,,,,,,0.6039,1,,,,,,,,,,,,,,m,,,,,,,,,,,,,,,,,64,0,291.172,291.7881,m,1,0.6039,,[],[],[],[],[],[],[],291.7882,293.7881,293.7882,293.7883,[],[],[],[],[],[],[],,293.7885,293.7885,-0.005104903,-0.268494117,0,0,0,,0,63,63,150,1,4,word,SENTIMENT,print,sentiment_p.png,,,,,
,,,,32172,001,2025-12-04_13h46.31.208,HW_LDT_1,2024.2.4,MacIntel,60.24096386,,,,,,,,,,,,,,,,,,,,293.7897,293.9881,293.9881,294.4878,,,,,,,,,,,,0.9727,1,,,,,,,,,,,,,,z,,,,,,,,,,,,,,,,,65,0,294.4885,295.4714,z,1,0.9727,,[],[],[],[],[],[],[],295.4714,297.4703,297.4703,297.4706,[],[],[],[],[],[],[],,297.4707,297.4707,-0.005104903,-0.268494117,0,0,0,,0,64,64,6,1,4,RL,caleberia,cursive,caleberia_c.png,,,,,
,,,,32172,001,2025-12-04_13h46.31.208,HW_LDT_1,2024.2.4,MacIntel,60.24096386,,,,,,,,,,,,,,,,,,,,297.4717,297.6708,297.6708,298.1711,,,,,,,,,,,,0.7991,1,,,,,,,,,,,,,,z,,,,,,,,,,,,,,,,,66,0,298.1715,298.9713,z,1,0.7991,,[],[],[],[],[],[],[],298.9713,300.9709,300.9709,300.9712,[],[],[],[],[],[],[],,300.9712,300.9713,-0.005104903,-0.268494117,0,0,0,,0,65,65,2,1,4,RL,asiral,cursive,asiral_c.png,,,,,
,,,,32172,001,2025-12-04_13h46.31.208,HW_LDT_1,2024.2.4,MacIntel,60.24096386,,,,,,,,,,,,,,,,,,,,300.9723,301.1711,301.1711,301.671,,,,,,,,,,,,0.6637,1,,,,,,,,,,,,,,m,,,,,,,,,,,,,,,,,67,0,301.6715,302.3376,m,1,0.6637,,[],[],[],[],[],[],[],302.3377,304.3374,304.3374,304.3374,[],[],[],[],[],[],[],,304.3375,304.3376,-0.005104903,-0.268494117,0,0,0,,0,66,66,159,1,4,word,VETERAN,cursive,veteran_c.png,,,,,
,,,,32172,001,2025-12-04_13h46.31.208,HW_LDT_1,2024.2.4,MacIntel,60.24096386,,,,,,,,,,,,,,,,,,,,304.3383,304.5377,304.5377,305.0375,,,,,,,,,,,,1.6976,1,,,,,,,,,,,,,,m,,,,,,,,,,,,,,,,,68,0,305.0382,306.7378,m,1,1.6976,,[],[],[],[],[],[],[],306.7379,308.7375,308.7376,308.738,[],[],[],[],[],[],[],,308.7381,308.7383,-0.005104903,-0.268494117,0,0,0,,0,67,67,99,1,4,word,DEBATE,cursive,debate_c.png,,,,,
,,,,32172,001,2025-12-04_13h46.31.208,HW_LDT_1,2024.2.4,MacIntel,60.24096386,,,,,,,,,,,,,,,,,,,,308.7414,308.9375,308.9375,309.4375,,,,,,,,,,,,0.5373,1,,,,,,,,,,,,,,m,,,,,,,,,,,,,,,,,69,0,309.4386,309.9878,m,1,0.5373,,[],[],[],[],[],[],[],309.9881,311.987,311.987,311.9875,[],[],[],[],[],[],[],,311.9875,311.9877,-0.005104903,-0.268494117,0,0,0,,0,68,68,135,1,4,word,QUALITY,print,quality_p.png,,,,,
,,,,32172,001,2025-12-04_13h46.31.208,HW_LDT_1,2024.2.4,MacIntel,60.24096386,,,,,,,,,,,,,,,,,,,,311.99,312.1872,312.1872,312.6872,,,,,,,,,,,,0.5538,0,,,,,,,,,,,,,,z,,,,,,,,,,,,,,,,,70,0,312.688,313.2539,m,0,0.5538,,[],[],[],[],[],[],[],313.254,315.2538,315.2539,315.2541,[],[],[],[],[],[],[],,315.2541,315.2543,-0.005104903,-0.268494117,0,0,0,,0,69,69,71,1,4,TL,racidal,print,racidal_p.png,,,,,
,,,,32172,001,2025-12-04_13h46.31.208,HW_LDT_1,2024.2.4,MacIntel,60.24096386,,,,,,,,,,,,,,,,,,,,315.2556,315.4539,315.454,315.9538,,,,,,,,,,,,0.8568,1,,,,,,,,,,,,,,m,,,,,,,,,,,,,,,,,71,0,315.9545,316.8203,m,1,0.8568,,[],[],[],[],[],[],[],316.8203,318.8203,318.8204,318.8207,[],[],[],[],[],[],[],,318.8208,318.8209,-0.005104903,-0.268494117,0,0,0,,0,70,70,145,1,4,word,RESUME,print,resume_p.png,,,,,
,,,,32172,001,2025-12-04_13h46.31.208,HW_LDT_1,2024.2.4,MacIntel,60.24096386,,,,,,,,,,,,,,,,,,,,318.8223,319.0197,319.0197,319.5204,,,,,,,,,,,,0.4753,0,,,,,,,,,,,,,,z,,,,,,,,,,,,,,,,,72,1,319.5209,320.0037,m,0,0.4753,,[],[],[],[],[],[],[],320.0038,322.003,322.003,322.9871,[],[],[],[],[],[],[],m,322.9872,322.9875,-0.005104903,-0.268494117,0,0,0,,0,71,71,58,1,4,TL,edivent,print,edivent_p.png,0.9723,,,,
,,,,32172,001,2025-12-04_13h46.31.208,HW_LDT_1,2024.2.4,MacIntel,60.24096386,,,,,,,,,,,,,,,,,,,,322.9887,323.1868,323.1869,323.6867,,,,,,,,,,,,0.8545,1,,,,,,,,,,,,,,m,,,,,,,,,,,,,,,,,73,0,323.6874,324.5535,m,1,0.8545,,[],[],[],[],[],[],[],324.5536,326.5533,326.5534,326.5536,[],[],[],[],[],[],[],,326.5537,326.5538,-0.005104903,-0.268494117,0,0,0,,0,72,72,148,1,4,word,SALINE,print,saline_p.png,,,,,
,,,,32172,001,2025-12-04_13h46.31.208,HW_LDT_1,2024.2.4,MacIntel,60.24096386,,,,,,,,,,,,,,,,,,,,326.5552,326.7522,326.7522,327.2526,,,,,,,,,,,,0.5531,0,,,,,,,,,,,,,,z,,,,,,,,,,,,,,,,,74,0,327.2532,327.8191,m,0,0.5531,,[],[],[],[],[],[],[],327.8192,329.8201,329.8201,329.8203,[],[],[],[],[],[],[],,329.8204,329.8205,-0.005104903,-0.268494117,0,0,0,,0,73,73,64,1,4,TL,moredate,print,moredate_p.png,,,,,
,,,,32172,001,2025-12-04_13h46.31.208,HW_LDT_1,2024.2.4,MacIntel,60.24096386,,,,,,,,,,,,,,,,,,,,329.8218,330.0199,330.02,330.5199,,,,,,,,,,,,0.9203,1,,,,,,,,,,,,,,z,,,,,,,,,,,,,,,,,75,0,330.5205,331.4533,z,1,0.9203,,[],[],[],[],[],[],[],331.4533,333.453,333.4531,333.4534,[],[],[],[],[],[],[],,333.4534,333.4536,-0.005104903,-0.268494117,0,0,0,,0,74,74,25,1,4,RL,macise,print,macise_p.png,,,,,
,,,,32172,001,2025-12-04_13h46.31.208,HW_LDT_1,2024.2.4,MacIntel,60.24096386,,,,,,,,,,,,,,,,,,,,333.4547,333.6532,333.6533,334.1531,,,,,,,,,,,,1.2204,1,,,,,,,,,,,,,,z,,,,,,,,,,,,,,,,,76,0,334.1536,335.3863,z,1,1.2204,,[],[],[],[],[],[],[],335.3864,337.3859,337.3859,337.3861,[],[],[],[],[],[],[],,337.3862,337.3864,-0.005104903,-0.268494117,0,0,0,,0,75,75,44,1,4,RL,senvilent,print,senvilent_p.png,,,,,
,,,,32172,001,2025-12-04_13h46.31.208,HW_LDT_1,2024.2.4,MacIntel,60.24096386,,,,,,,,,,,,,,,,,,,,337.3877,337.5861,337.5863,338.086,,,,,,,,,,,,1.0207,1,,,,,,,,,,,,,,m,,,,,,,,,,,,,,,,,77,0,338.0865,339.1194,m,1,1.0207,,[],[],[],[],[],[],[],339.1195,341.1193,341.1194,341.1196,[],[],[],[],[],[],[],,341.1196,341.1198,-0.005104903,-0.268494117,0,0,0,,0,76,76,97,1,4,word,COVERAGE,cursive,coverage_c.png,,,,,
,,,,32172,001,2025-12-04_13h46.31.208,HW_LDT_1,2024.2.4,MacIntel,60.24096386,,,,,,,,,,,,,,,,,,,,341.121,341.3189,341.3189,341.8193,,,,,,,,,,,,0.7227,0,,,,,,,,,,,,,,z,,,,,,,,,,,,,,,,,78,1,341.8199,342.5526,m,0,0.7227,,[],[],[],[],[],[],[],342.5527,344.5521,344.5522,345.8025,[],[],[],[],[],[],[],z,345.8027,345.8028,-0.005104903,-0.268494117,0,0,0,,0,77,77,51,1,4,TL,adsivory,cursive,adsivory_c.png,1.2401,,,,
,,,,32172,001,2025-12-04_13h46.31.208,HW_LDT_1,2024.2.4,MacIntel,60.24096386,,,,,,,,,,,,,,,,,,,,345.8042,346.0025,346.0025,346.5025,,,,,,,,,,,,0.9709,1,,,,,,,,,,,,,,m,,,,,,,,,,,,,,,,,79,0,346.503,347.486,m,1,0.9709,,[],[],[],[],[],[],[],347.4861,349.4858,349.4858,349.486,[],[],[],[],[],[],[],,349.4861,349.4861,-0.005104903,-0.268494117,0,0,0,,0,78,78,107,1,4,word,EVIDENT,print,evident_p.png,,,,,
,,,,32172,001,2025-12-04_13h46.31.208,HW_LDT_1,2024.2.4,MacIntel,60.24096386,,,,,,,,,,,,,,,,,,,,349.4873,349.6856,349.6856,350.1856,,,,,,,,,,,,0.8034,1,,,,,,,,,,,,,,z,,,,,,,,,,,,,,,,,80,0,350.1862,351.0019,z,1,0.8034,,[],[],[],[],[],[],[],351.0019,353.0021,353.0022,353.0024,[],[],[],[],[],[],[],,353.0025,357.6352,-0.01961201,-0.388546484,1,0,0,,0,79,79,72,1,4,TL,relugar,cursive,relugar_c.png,,,break_done_button,,
,,,,32172,001,2025-12-04_13h46.31.208,HW_LDT_1,2024.2.4,MacIntel,60.24096386,,,,,,,,,,,,,,,,,,,,357.6357,357.8353,357.8353,358.3353,,,,,,,,,,,,0.8196,1,,,,,,,,,,,,,,m,,,,,,,,,,,,,,,,,81,0,358.336,359.1684,m,1,0.8196,,[],[],[],[],[],[],[],359.1686,361.1683,361.1684,361.1685,[],[],[],[],[],[],[],,361.1686,361.1686,-0.011340452,-0.388546484,0,0,0,,0,80,80,155,1,4,word,STRATEGY,print,strategy_p.png,,,,,
,,,,32172,001,2025-12-04_13h46.31.208,HW_LDT_1,2024.2.4,MacIntel,60.24096386,,,,,,,,,,,,,,,,,,,,361.1692,361.3686,361.3686,361.8685,,,,,,,,,,,,0.6536,1,,,,,,,,,,,,,,m,,,,,,,,,,,,,,,,,82,0,361.8693,362.5354,m,1,0.6536,,[],[],[],[],[],[],[],362.5354,364.535,364.5351,364.5354,[],[],[],[],[],[],[],,364.5355,364.5356,-0.011340452,-0.388546484,0,0,0,,0,81,81,94,1,4,word,CLINICAL,print,clinical_p.png,,,,,
,,,,32172,001,2025-12-04_13h46.31.208,HW_LDT_1,2024.2.4,MacIntel,60.24096386,,,,,,,,,,,,,,,,,,,,364.5368,364.735,364.735,365.235,,,,,,,,,,,,0.8241,1,,,,,,,,,,,,,,z,,,,,,,,,,,,,,,,,83,0,365.2357,366.0685,z,1,0.8241,,[],[],[],[],[],[],[],366.0686,368.0682,368.0683,368.0685,[],[],[],[],[],[],[],,368.0686,368.0686,-0.011340452,-0.388546484,0,0,0,,0,82,82,40,1,4,RL,reconal,print,reconal_p.png,,,,,
,,,,32172,001,2025-12-04_13h46.31.208,HW_LDT_1,2024.2.4,MacIntel,60.24096386,,,,,,,,,,,,,,,,,,,,368.0699,368.2682,368.2682,368.7683,,,,,,,,,,,,0.8034,1,,,,,,,,,,,,,,z,,,,,,,,,,,,,,,,,84,1,368.7688,369.5846,z,1,0.8034,,[],[],[],[],[],[],[],369.5846,371.5847,371.5848,372.5014,[],[],[],[],[],[],[],m,372.5015,372.5016,-0.011340452,-0.388546484,0,0,0,,0,83,83,65,1,4,TL,orepator,print,orepator_p.png,0.9129,,,,
,,,,32172,001,2025-12-04_13h46.31.208,HW_LDT_1,2024.2.4,MacIntel,60.24096386,,,,,,,,,,,,,,,,,,,,372.5026,372.7014,372.7015,373.2016,,,,,,,,,,,,0.6737,0,,,,,,,,,,,,,,m,,,,,,,,,,,,,,,,,85,0,373.2023,373.8841,z,0,0.6737,,[],[],[],[],[],[],[],373.8843,375.8848,375.8848,375.8849,[],[],[],[],[],[],[],,375.8849,375.8851,-0.011340452,-0.388546484,0,0,0,,0,84,84,91,1,4,word,CARDINAL,cursive,cardinal_c.png,,,,,
,,,,32172,001,2025-12-04_13h46.31.208,HW_LDT_1,2024.2.4,MacIntel,60.24096386,,,,,,,,,,,,,,,,,,,,375.886,376.0846,376.0846,376.5847,,,,,,,,,,,,0.6406,1,,,,,,,,,,,,,,m,,,,,,,,,,,,,,,,,86,0,376.5852,377.2347,m,1,0.6406,,[],[],[],[],[],[],[],377.2349,379.2347,379.2347,379.235,[],[],[],[],[],[],[],,379.235,379.2351,-0.011340452,-0.388546484,0,0,0,,0,85,85,117,1,4,word,MARINE,print,marine_p.png,,,,,
,,,,32172,001,2025-12-04_13h46.31.208,HW_LDT_1,2024.2.4,MacIntel,60.24096386,,,,,,,,,,,,,,,,,,,,379.2365,379.4346,379.4347,379.9347,,,,,,,,,,,,1.0953,1,,,,,,,,,,,,,,z,,,,,,,,,,,,,,,,,87,0,379.9353,381.0346,z,1,1.0953,,[],[],[],[],[],[],[],381.0347,383.0345,383.0345,383.0348,[],[],[],[],[],[],[],,383.0348,383.035,-0.011340452,-0.388546484,0,0,0,,0,86,86,39,1,4,RL,relone,cursive,relone_c.png,,,,,
,,,,32172,001,2025-12-04_13h46.31.208,HW_LDT_1,2024.2.4,MacIntel,60.24096386,,,,,,,,,,,,,,,,,,,,383.0361,383.2341,383.2341,383.7337,,,,,,,,,,,,2.4587,1,,,,,,,,,,,,,,z,,,,,,,,,,,,,,,,,88,1,383.7347,386.2012,z,1,2.4587,,[],[],[],[],[],[],[],386.2013,388.2008,388.2008,390.3509,[],[],[],[],[],[],[],m,390.351,390.3513,-0.011340452,-0.388546484,0,0,0,,0,87,87,62,1,4,TL,locigal,print,locigal_p.png,2.1386,,,,
,,,,32172,001,2025-12-04_13h46.31.208,HW_LDT_1,2024.2.4,MacIntel,60.24096386,,,,,,,,,,,,,,,,,,,,390.3525,390.5506,390.5506,391.0506,,,,,,,,,,,,0.6373,1,,,,,,,,,,,,,,z,,,,,,,,,,,,,,,,,89,0,391.0513,391.7008,z,1,0.6373,,[],[],[],[],[],[],[],391.7012,393.7006,393.7006,393.7012,[],[],[],[],[],[],[],,393.7013,393.7014,-0.011340452,-0.388546484,0,0,0,,0,88,88,8,1,4,RL,casagity,cursive,casagity_c.png,,,,,
,,,,32172,001,2025-12-04_13h46.31.208,HW_LDT_1,2024.2.4,MacIntel,60.24096386,,,,,,,,,,,,,,,,,,,,393.7025,393.9,393.9,394.4005,,,,,,,,,,,,1.1579,0,,,,,,,,,,,,,,z,,,,,,,,,,,,,,,,,90,0,394.4014,395.5663,m,0,1.1579,,[],[],[],[],[],[],[],395.5664,397.5672,397.5673,397.5677,[],[],[],[],[],[],[],,397.5677,397.5679,-0.011340452,-0.388546484,0,0,0,,0,89,89,66,1,4,TL,opmital,print,opmital_p.png,,,,,
,,,,32172,001,2025-12-04_13h46.31.208,HW_LDT_1,2024.2.4,MacIntel,60.24096386,,,,,,,,,,,,,,,,,,,,397.5691,397.7673,397.7673,398.267,,,,,,,,,,,,0.9216,1,,,,,,,,,,,,,,z,,,,,,,,,,,,,,,,,91,0,398.2677,399.2004,z,1,0.9216,,[],[],[],[],[],[],[],399.2004,401.2004,401.2004,401.2007,[],[],[],[],[],[],[],,401.2007,401.2009,-0.011340452,-0.388546484,0,0,0,,0,90,90,11,1,4,RL,clisimal,print,clisimal_p.png,,,,,
,,,,32172,001,2025-12-04_13h46.31.208,HW_LDT_1,2024.2.4,MacIntel,60.24096386,,,,,,,,,,,,,,,,,,,,401.2024,401.4002,401.4003,401.9003,,,,,,,,,,,,2.2053,1,,,,,,,,,,,,,,m,,,,,,,,,,,,,,,,,92,0,401.9009,404.1171,m,1,2.2053,,[],[],[],[],[],[],[],404.1172,406.1169,406.117,406.1171,[],[],[],[],[],[],[],,406.1172,406.1173,-0.011340452,-0.388546484,0,0,0,,0,91,91,130,1,4,word,POLICY,cursive,policy_c.png,,,,,
,,,,32172,001,2025-12-04_13h46.31.208,HW_LDT_1,2024.2.4,MacIntel,60.24096386,,,,,,,,,,,,,,,,,,,,406.1184,406.3168,406.3168,406.8167,,,,,,,,,,,,1.5227,0,,,,,,,,,,,,,,m,,,,,,,,,,,,,,,,,93,1,406.8177,408.3501,z,0,1.5227,,[],[],[],[],[],[],[],408.3501,410.3499,410.35,411.4002,[],[],[],[],[],[],[],z,411.4003,411.4004,-0.011340452,-0.388546484,0,0,0,,0,92,92,116,1,4,word,MARGINAL,cursive,marginal_c.png,1.0413,,,,
,,,,32172,001,2025-12-04_13h46.31.208,HW_LDT_1,2024.2.4,MacIntel,60.24096386,,,,,,,,,,,,,,,,,,,,411.4017,411.5999,411.5999,412.1,,,,,,,,,,,,0.6712,1,,,,,,,,,,,,,,z,,,,,,,,,,,,,,,,,94,0,412.1006,412.7824,z,1,0.6712,,[],[],[],[],[],[],[],412.7825,414.783,414.7832,414.7835,[],[],[],[],[],[],[],,414.7835,414.7837,-0.011340452,-0.388546484,0,0,0,,0,93,93,26,1,4,RL,mesibine,cursive,mesibine_c.png,,,,,
,,,,32172,001,2025-12-04_13h46.31.208,HW_LDT_1,2024.2.4,MacIntel,60.24096386,,,,,,,,,,,,,,,,,,,,414.7853,414.9826,414.9826,415.4821,,,,,,,,,,,,1.2753,1,,,,,,,,,,,,,,z,,,,,,,,,,,,,,,,,95,0,415.4827,416.7664,z,1,1.2753,,[],[],[],[],[],[],[],416.7666,418.7659,418.766,418.7661,[],[],[],[],[],[],[],,418.7661,418.7662,-0.011340452,-0.388546484,0,0,0,,0,94,94,67,1,4,TL,polupar,print,polupar_p.png,,,,,
,,,,32172,001,2025-12-04_13h46.31.208,HW_LDT_1,2024.2.4,MacIntel,60.24096386,,,,,,,,,,,,,,,,,,,,418.7668,418.9663,418.9663,419.4663,,,,,,,,,,,,1.3377,1,,,,,,,,,,,,,,z,,,,,,,,,,,,,,,,,96,1,419.4672,420.8162,z,1,1.3377,,[],[],[],[],[],[],[],420.8163,422.8161,422.8162,423.2661,[],[],[],[],[],[],[],z,423.2662,423.2663,-0.011340452,-0.388546484,0,0,0,,0,95,95,74,1,4,TL,rerite,print,rerite_p.png,0.4473,,,,
,,,,32172,001,2025-12-04_13h46.31.208,HW_LDT_1,2024.2.4,MacIntel,60.24096386,,,,,,,,,,,,,,,,,,,,423.2681,423.466,423.4661,423.9658,,,,,,,,,,,,0.9926,0,,,,,,,,,,,,,,m,,,,,,,,,,,,,,,,,97,0,423.9665,424.966,z,0,0.9926,,[],[],[],[],[],[],[],424.9662,426.9655,426.9655,426.9658,[],[],[],[],[],[],[],,426.9658,426.9661,-0.011340452,-0.388546484,0,0,0,,0,96,96,128,1,4,word,PACIFIC,cursive,pacific_c.png,,,,,
,,,,32172,001,2025-12-04_13h46.31.208,HW_LDT_1,2024.2.4,MacIntel,60.24096386,,,,,,,,,,,,,,,,,,,,426.9678,427.1661,427.1662,427.6659,,,,,,,,,,,,0.605,1,,,,,,,,,,,,,,z,,,,,,,,,,,,,,,,,98,1,427.6666,428.2825,z,1,0.605,,[],[],[],[],[],[],[],428.2827,430.2855,430.286,431.3319,[],[],[],[],[],[],[],z,431.332,431.3323,-0.011340452,-0.388546484,0,0,0,,0,97,97,19,1,4,RL,elacodate,cursive,elacodate_c.png,1.0417,,,,
,,,,32172,001,2025-12-04_13h46.31.208,HW_LDT_1,2024.2.4,MacIntel,60.24096386,,,,,,,,,,,,,,,,,,,,431.3348,431.5325,431.5326,432.0325,,,,,,,,,,,,2.1075,1,,,,,,,,,,,,,,z,,,,,,,,,,,,,,,,,99,1,432.0336,434.1494,z,1,2.1075,,[],[],[],[],[],[],[],434.1494,436.1481,436.1482,436.8157,[],[],[],[],[],[],[],z,436.8157,436.816,-0.011340452,-0.388546484,0,0,0,,0,98,98,35,1,4,RL,probice,cursive,probice_c.png,0.6572,,,,
,,,,32172,001,2025-12-04_13h46.31.208,HW_LDT_1,2024.2.4,MacIntel,60.24096386,,,,,,,,,,,,,,,,,,,,436.818,437.0156,437.0157,437.5154,,,,,,,,,,,,0.8057,1,,,,,,,,,,,,,,z,,,,,,,,,,,,,,,,,100,0,437.5162,438.3322,z,1,0.8057,,[],[],[],[],[],[],[],438.3324,440.3322,440.3322,440.3325,[],[],[],[],[],[],[],,440.3326,440.3327,-0.011340452,-0.388546484,0,0,0,,0,99,99,54,1,4,TL,codemy,print,codemy_p.png,,,,,
,,,,32172,001,2025-12-04_13h46.31.208,HW_LDT_1,2024.2.4,MacIntel,60.24096386,,,,,,,,,,,,,,,,,,,,440.3342,440.532,440.5321,441.032,,,,,,,,,,,,1.0395,1,,,,,,,,,,,,,,z,,,,,,,,,,,,,,,,,101,0,441.0329,442.0821,z,1,1.0395,,[],[],[],[],[],[],[],442.0823,444.0812,444.0812,444.0816,[],[],[],[],[],[],[],,444.0816,444.0818,-0.011340452,-0.388546484,0,0,0,,0,100,100,73,1,4,TL,regilion,print,regilion_p.png,,,,,
,,,,32172,001,2025-12-04_13h46.31.208,HW_LDT_1,2024.2.4,MacIntel,60.24096386,,,,,,,,,,,,,,,,,,,,444.0828,444.2819,444.2819,444.782,,,,,,,,,,,,1.9065,1,,,,,,,,,,,,,,m,,,,,,,,,,,,,,,,,102,0,444.7826,446.6986,m,1,1.9065,,[],[],[],[],[],[],[],446.6987,448.6977,448.6978,448.698,[],[],[],[],[],[],[],,448.6981,448.6981,-0.011340452,-0.388546484,0,0,0,,0,101,101,134,1,4,word,QUALIFY,print,qualify_p.png,,,,,
,,,,32172,001,2025-12-04_13h46.31.208,HW_LDT_1,2024.2.4,MacIntel,60.24096386,,,,,,,,,,,,,,,,,,,,448.6992,448.8984,448.8984,449.3983,,,,,,,,,,,,3.4118,0,,,,,,,,,,,,,,m,,,,,,,,,,,,,,,,,103,0,449.399,452.815,z,0,3.4118,,[],[],[],[],[],[],[],452.8151,454.8148,454.8149,454.8152,[],[],[],[],[],[],[],,454.8152,454.8154,-0.011340452,-0.388546484,0,0,0,,0,102,102,83,1,4,word,ANIMAL,cursive,animal_c.png,,,,,
,,,,32172,001,2025-12-04_13h46.31.208,HW_LDT_1,2024.2.4,MacIntel,60.24096386,,,,,,,,,,,,,,,,,,,,454.8169,455.014,455.0141,455.5148,,,,,,,,,,,,0.7459,1,,,,,,,,,,,,,,z,,,,,,,,,,,,,,,,,104,0,455.5156,456.2648,z,1,0.7459,,[],[],[],[],[],[],[],456.2649,458.2647,458.2648,458.2651,[],[],[],[],[],[],[],,458.2651,458.2653,-0.011340452,-0.388546484,0,0,0,,0,103,103,52,1,4,TL,cagetory,cursive,cagetory_c.png,,,,,
,,,,32172,001,2025-12-04_13h46.31.208,HW_LDT_1,2024.2.4,MacIntel,60.24096386,,,,,,,,,,,,,,,,,,,,458.2669,458.4643,458.4645,458.9646,,,,,,,,,,,,0.7066,1,,,,,,,,,,,,,,z,,,,,,,,,,,,,,,,,105,0,458.9653,459.6812,z,1,0.7066,,[],[],[],[],[],[],[],459.6813,461.6812,461.6812,461.6815,[],[],[],[],[],[],[],,461.6816,461.6817,-0.011340452,-0.388546484,0,0,0,,0,104,104,61,1,4,TL,lotace,cursive,lotace_c.png,,,,,
,,,,32172,001,2025-12-04_13h46.31.208,HW_LDT_1,2024.2.4,MacIntel,60.24096386,,,,,,,,,,,,,,,,,,,,461.6829,461.8806,461.8808,462.3806,,,,,,,,,,,,1.873,0,,,,,,,,,,,,,,m,,,,,,,,,,,,,,,,,106,0,462.3814,464.2647,z,0,1.873,,[],[],[],[],[],[],[],464.2647,466.2643,466.2644,466.2645,[],[],[],[],[],[],[],,466.2647,466.2647,-0.011340452,-0.388546484,0,0,0,,0,105,105,137,1,4,word,RAPIDLY,cursive,rapidly_c.png,,,,,
,,,,32172,001,2025-12-04_13h46.31.208,HW_LDT_1,2024.2.4,MacIntel,60.24096386,,,,,,,,,,,,,,,,,,,,466.266,466.4634,466.4635,466.9639,,,,,,,,,,,,1.4077,1,,,,,,,,,,,,,,z,,,,,,,,,,,,,,,,,107,0,466.9644,468.3812,z,1,1.4077,,[],[],[],[],[],[],[],468.3813,470.3804,470.3805,470.3806,[],[],[],[],[],[],[],,470.3807,470.3808,-0.011340452,-0.388546484,0,0,0,,0,106,106,68,1,4,TL,prosopal,print,prosopal_p.png,,,,,
,,,,32172,001,2025-12-04_13h46.31.208,HW_LDT_1,2024.2.4,MacIntel,60.24096386,,,,,,,,,,,,,,,,,,,,470.382,470.5808,470.5808,471.0808,,,,,,,,,,,,2.1401,0,,,,,,,,,,,,,,m,,,,,,,,,,,,,,,,,108,0,471.0815,473.2308,z,0,2.1401,,[],[],[],[],[],[],[],473.2309,475.2302,475.2302,475.2305,[],[],[],[],[],[],[],,475.2305,475.2306,-0.011340452,-0.388546484,0,0,0,,0,107,107,129,1,4,word,PARENT,cursive,parent_c.png,,,,,
,,,,32172,001,2025-12-04_13h46.31.208,HW_LDT_1,2024.2.4,MacIntel,60.24096386,,,,,,,,,,,,,,,,,,,,475.2323,475.4307,475.4307,475.9308,,,,,,,,,,,,0.8065,0,,,,,,,,,,,,,,m,,,,,,,,,,,,,,,,,109,1,475.9316,476.7475,z,0,0.8065,,[],[],[],[],[],[],[],476.7476,478.7472,478.7472,479.2469,[],[],[],[],[],[],[],z,479.247,479.2472,-0.011340452,-0.388546484,0,0,0,,0,108,108,153,1,4,word,STOLEN,cursive,stolen_c.png,0.4921,,,,
,,,,32172,001,2025-12-04_13h46.31.208,HW_LDT_1,2024.2.4,MacIntel,60.24096386,,,,,,,,,,,,,,,,,,,,479.2485,479.4471,479.4472,479.9472,,,,,,,,,,,,0.8736,1,,,,,,,,,,,,,,z,,,,,,,,,,,,,,,,,110,0,479.9479,480.8304,z,1,0.8736,,[],[],[],[],[],[],[],480.8306,482.8304,482.8305,482.8307,[],[],[],[],[],[],[],,482.8307,482.8309,-0.011340452,-0.388546484,0,0,0,,0,109,109,12,1,4,RL,conbicer,cursive,conbicer_c.png,,,,,
,,,,32172,001,2025-12-04_13h46.31.208,HW_LDT_1,2024.2.4,MacIntel,60.24096386,,,,,,,,,,,,,,,,,,,,482.8323,483.0303,483.0304,483.5301,,,,,,,,,,,,0.7897,1,,,,,,,,,,,,,,m,,,,,,,,,,,,,,,,,111,0,483.5308,484.3305,m,1,0.7897,,[],[],[],[],[],[],[],484.3306,486.3302,486.3303,486.3305,[],[],[],[],[],[],[],,486.3306,486.3306,-0.011340452,-0.388546484,0,0,0,,0,110,110,90,1,4,word,CAPITAL,print,capital_p.png,,,,,
,,,,32172,001,2025-12-04_13h46.31.208,HW_LDT_1,2024.2.4,MacIntel,60.24096386,,,,,,,,,,,,,,,,,,,,486.3321,486.5302,486.5302,487.0303,,,,,,,,,,,,2.5408,1,,,,,,,,,,,,,,z,,,,,,,,,,,,,,,,,112,0,487.0309,489.5804,z,1,2.5408,,[],[],[],[],[],[],[],489.5805,491.5801,491.5802,491.5805,[],[],[],[],[],[],[],,491.5806,491.5806,-0.011340452,-0.388546484,0,0,0,,0,111,111,56,1,4,TL,donimant,cursive,donimant_c.png,,,,,
,,,,32172,001,2025-12-04_13h46.31.208,HW_LDT_1,2024.2.4,MacIntel,60.24096386,,,,,,,,,,,,,,,,,,,,491.5826,491.7801,491.7802,492.2799,,,,,,,,,,,,1.144,1,,,,,,,,,,,,,,m,,,,,,,,,,,,,,,,,113,0,492.2807,493.4299,m,1,1.144,,[],[],[],[],[],[],[],493.4299,495.4299,495.43,495.4303,[],[],[],[],[],[],[],,495.4304,495.4304,-0.011340452,-0.388546484,0,0,0,,0,112,112,142,1,4,word,REMOTE,cursive,remote_c.png,,,,,
,,,,32172,001,2025-12-04_13h46.31.208,HW_LDT_1,2024.2.4,MacIntel,60.24096386,,,,,,,,,,,,,,,,,,,,495.4317,495.6298,495.6299,496.1298,,,,,,,,,,,,0.8567,1,,,,,,,,,,,,,,m,,,,,,,,,,,,,,,,,114,0,496.1305,496.9965,m,1,0.8567,,[],[],[],[],[],[],[],496.9967,498.9964,498.9964,498.9968,[],[],[],[],[],[],[],,498.9969,498.9969,-0.011340452,-0.388546484,0,0,0,,0,113,113,100,1,4,word,DECADE,cursive,decade_c.png,,,,,
,,,,32172,001,2025-12-04_13h46.31.208,HW_LDT_1,2024.2.4,MacIntel,60.24096386,,,,,,,,,,,,,,,,,,,,498.9988,499.1964,499.1964,499.6964,,,,,,,,,,,,0.6565,1,,,,,,,,,,,,,,m,,,,,,,,,,,,,,,,,115,0,499.697,500.3632,m,1,0.6565,,[],[],[],[],[],[],[],500.3634,502.363,502.3631,502.3632,[],[],[],[],[],[],[],,502.3633,502.3634,-0.011340452,-0.388546484,0,0,0,,0,114,114,121,1,4,word,MISTAKE,print,mistake_p.png,,,,,
,,,,32172,001,2025-12-04_13h46.31.208,HW_LDT_1,2024.2.4,MacIntel,60.24096386,,,,,,,,,,,,,,,,,,,,502.3646,502.5628,502.5629,503.0629,,,,,,,,,,,,1.339,1,,,,,,,,,,,,,,z,,,,,,,,,,,,,,,,,116,0,503.0636,504.4129,z,1,1.339,,[],[],[],[],[],[],[],504.413,506.4127,506.4127,506.413,[],[],[],[],[],[],[],,506.413,506.4132,-0.011340452,-0.388546484,0,0,0,,0,115,115,78,1,4,TL,stragety,print,stragety_p.png,,,,,
,,,,32172,001,2025-12-04_13h46.31.208,HW_LDT_1,2024.2.4,MacIntel,60.24096386,,,,,,,,,,,,,,,,,,,,506.4146,506.6128,506.6128,507.1127,,,,,,,,,,,,0.9287,1,,,,,,,,,,,,,,z,,,,,,,,,,,,,,,,,117,0,507.1135,508.0459,z,1,0.9287,,[],[],[],[],[],[],[],508.046,510.046,510.046,510.0463,[],[],[],[],[],[],[],,510.0463,510.0464,-0.011340452,-0.388546484,0,0,0,,0,116,116,29,1,4,RL,motide,print,motide_p.png,,,,,
,,,,32172,001,2025-12-04_13h46.31.208,HW_LDT_1,2024.2.4,MacIntel,60.24096386,,,,,,,,,,,,,,,,,,,,510.0478,510.2458,510.246,510.7459,,,,,,,,,,,,1.2558,1,,,,,,,,,,,,,,z,,,,,,,,,,,,,,,,,118,0,510.7466,512.0125,z,1,1.2558,,[],[],[],[],[],[],[],512.0126,514.0124,514.0125,514.0127,[],[],[],[],[],[],[],,514.0129,514.0129,-0.011340452,-0.388546484,0,0,0,,0,117,117,79,1,4,TL,tritube,print,tritube_p.png,,,,,
,,,,32172,001,2025-12-04_13h46.31.208,HW_LDT_1,2024.2.4,MacIntel,60.24096386,,,,,,,,,,,,,,,,,,,,514.0144,514.2124,514.2125,514.7124,,,,,,,,,,,,1.2926,1,,,,,,,,,,,,,,z,,,,,,,,,,,,,,,,,119,0,514.7131,516.0124,z,1,1.2926,,[],[],[],[],[],[],[],516.0125,518.0124,518.0124,518.0127,[],[],[],[],[],[],[],,518.0127,518.0128,-0.011340452,-0.388546484,0,0,0,,0,118,118,31,1,4,RL,orimipal,print,orimipal_p.png,,,,,
,,,,32172,001,2025-12-04_13h46.31.208,HW_LDT_1,2024.2.4,MacIntel,60.24096386,,,,,,,,,,,,,,,,,,,,518.0142,518.2123,518.2124,518.7123,,,,,,,,,,,,1.2912,1,,,,,,,,,,,,,,m,,,,,,,,,,,,,,,,,120,0,518.7129,520.0123,m,1,1.2912,,[],[],[],[],[],[],[],520.0126,522.0119,522.0119,522.0122,[],[],[],[],[],[],[],,522.0122,522.0124,-0.011340452,-0.388546484,0,0,0,,0,119,119,125,1,4,word,OPERATOR,print,operator_p.png,,,,,
,,,,32172,001,2025-12-04_13h46.31.208,HW_LDT_1,2024.2.4,MacIntel,60.24096386,,,,,,,,,,,,,,,,,,,,522.0137,522.2121,522.2121,522.712,,,,,,,,,,,,0.9913,0,,,,,,,,,,,,,,m,,,,,,,,,,,,,,,,,121,0,522.7127,523.7122,z,0,0.9913,,[],[],[],[],[],[],[],523.7123,525.7121,525.7121,525.7123,[],[],[],[],[],[],[],,525.7123,525.7125,-0.011340452,-0.388546484,0,0,0,,0,120,120,87,1,4,word,CAFETERIA,cursive,cafeteria_c.png,,,,,
,,,,32172,001,2025-12-04_13h46.31.208,HW_LDT_1,2024.2.4,MacIntel,60.24096386,,,,,,,,,,,,,,,,,,,,525.7139,525.912,525.912,526.412,,,,,,,,,,,,2.842,1,,,,,,,,,,,,,,m,,,,,,,,,,,,,,,,,122,0,526.4126,529.2619,m,1,2.842,,[],[],[],[],[],[],[],529.262,531.2617,531.2617,531.2619,[],[],[],[],[],[],[],,531.262,531.2621,-0.011340452,-0.388546484,0,0,0,,0,121,121,111,1,4,word,INDICATE,print,indicate_p.png,,,,,
,,,,32172,001,2025-12-04_13h46.31.208,HW_LDT_1,2024.2.4,MacIntel,60.24096386,,,,,,,,,,,,,,,,,,,,531.2631,531.4613,531.4613,531.9617,,,,,,,,,,,,1.0288,1,,,,,,,,,,,,,,m,,,,,,,,,,,,,,,,,123,0,531.9623,532.995,m,1,1.0288,,[],[],[],[],[],[],[],532.9951,534.9949,534.995,534.9952,[],[],[],[],[],[],[],,534.9953,534.9953,-0.011340452,-0.388546484,0,0,0,,0,122,122,139,1,4,word,REGULAR,cursive,regular_c.png,,,,,
,,,,32172,001,2025-12-04_13h46.31.208,HW_LDT_1,2024.2.4,MacIntel,60.24096386,,,,,,,,,,,,,,,,,,,,534.9966,535.1949,535.195,535.6949,,,,,,,,,,,,1.0796,0,,,,,,,,,,,,,,z,,,,,,,,,,,,,,,,,124,0,535.6957,536.7781,m,0,1.0796,,[],[],[],[],[],[],[],536.7782,538.7777,538.7777,538.7779,[],[],[],[],[],[],[],,538.7779,538.7781,-0.011340452,-0.388546484,0,0,0,,0,123,123,45,1,4,RL,spetisic,cursive,spetisic_c.png,,,,,
,,,,32172,001,2025-12-04_13h46.31.208,HW_LDT_1,2024.2.4,MacIntel,60.24096386,,,,,,,,,,,,,,,,,,,,538.7791,538.9781,538.9782,539.478,,,,,,,,,,,,0.7596,1,,,,,,,,,,,,,,z,,,,,,,,,,,,,,,,,125,0,539.4787,540.2448,z,1,0.7596,,[],[],[],[],[],[],[],540.2449,542.2448,542.2448,542.245,[],[],[],[],[],[],[],,542.2451,542.2452,-0.011340452,-0.388546484,0,0,0,,0,124,124,48,1,4,RL,vabifity,print,vabifity_p.png,,,,,
,,,,32172,001,2025-12-04_13h46.31.208,HW_LDT_1,2024.2.4,MacIntel,60.24096386,,,,,,,,,,,,,,,,,,,,542.2465,542.444,542.4441,542.9446,,,,,,,,,,,,0.909,1,,,,,,,,,,,,,,z,,,,,,,,,,,,,,,,,126,0,542.9452,543.8614,z,1,0.909,,[],[],[],[],[],[],[],543.8615,545.8612,545.8612,545.8614,[],[],[],[],[],[],[],,545.8615,545.8616,-0.011340452,-0.388546484,0,0,0,,0,125,125,4,1,4,RL,betemit,cursive,betemit_c.png,,,,,
,,,,32172,001,2025-12-04_13h46.31.208,HW_LDT_1,2024.2.4,MacIntel,60.24096386,,,,,,,,,,,,,,,,,,,,545.8629,546.0612,546.0612,546.5611,,,,,,,,,,,,0.7111,1,,,,,,,,,,,,,,m,,,,,,,,,,,,,,,,,127,0,546.5617,547.2777,m,1,0.7111,,[],[],[],[],[],[],[],547.2779,549.2776,549.2777,549.2779,[],[],[],[],[],[],[],,549.2779,549.2781,-0.011340452,-0.388546484,0,0,0,,0,126,126,154,1,4,word,STORAGE,print,storage_p.png,,,,,
,,,,32172,001,2025-12-04_13h46.31.208,HW_LDT_1,2024.2.4,MacIntel,60.24096386,,,,,,,,,,,,,,,,,,,,549.2793,549.4777,549.4777,549.9778,,,,,,,,,,,,0.859,0,,,,,,,,,,,,,,z,,,,,,,,,,,,,,,,,128,0,549.9783,550.8444,m,0,0.859,,[],[],[],[],[],[],[],550.8445,552.844,552.8441,552.8443,[],[],[],[],[],[],[],,552.8444,552.8445,-0.011340452,-0.388546484,0,0,0,,0,127,127,30,1,4,RL,nunewical,cursive,nunewical_c.png,,,,,
,,,,32172,001,2025-12-04_13h46.31.208,HW_LDT_1,2024.2.4,MacIntel,60.24096386,,,,,,,,,,,,,,,,,,,,552.8457,553.0432,553.0433,553.5443,,,,,,,,,,,,0.727,1,,,,,,,,,,,,,,m,,,,,,,,,,,,,,,,,129,0,553.5449,554.2776,m,1,0.727,,[],[],[],[],[],[],[],554.2776,556.2769,556.277,556.2771,[],[],[],[],[],[],[],,556.2771,556.2773,-0.011340452,-0.388546484,0,0,0,,0,128,128,157,1,4,word,VALIDITY,print,validity_p.png,,,,,
,,,,32172,001,2025-12-04_13h46.31.208,HW_LDT_1,2024.2.4,MacIntel,60.24096386,,,,,,,,,,,,,,,,,,,,556.2783,556.4774,556.4774,556.9773,,,,,,,,,,,,0.897,1,,,,,,,,,,,,,,z,,,,,,,,,,,,,,,,,130,0,556.978,557.8774,z,1,0.897,,[],[],[],[],[],[],[],557.8775,559.8773,559.8774,559.8775,[],[],[],[],[],[],[],,559.8777,559.8778,-0.011340452,-0.388546484,0,0,0,,0,129,129,32,1,4,RL,patisic,cursive,patisic_c.png,,,,,
,,,,32172,001,2025-12-04_13h46.31.208,HW_LDT_1,2024.2.4,MacIntel,60.24096386,,,,,,,,,,,,,,,,,,,,559.879,560.0772,560.0773,560.5772,,,,,,,,,,,,0.9102,1,,,,,,,,,,,,,,z,,,,,,,,,,,,,,,,,131,1,560.5778,561.494,z,1,0.9102,,[],[],[],[],[],[],[],561.494,563.4938,563.4939,564.5437,[],[],[],[],[],[],[],m,564.5438,564.5439,-0.011340452,-0.388546484,0,0,0,,0,130,130,42,1,4,RL,revune,print,revune_p.png,1.0423,,,,
,,,,32172,001,2025-12-04_13h46.31.208,HW_LDT_1,2024.2.4,MacIntel,60.24096386,,,,,,,,,,,,,,,,,,,,564.5453,564.7438,564.7438,565.2437,,,,,,,,,,,,0.8203,1,,,,,,,,,,,,,,m,,,,,,,,,,,,,,,,,132,1,565.2443,566.077,m,1,0.8203,,[],[],[],[],[],[],[],566.0771,568.0769,568.077,569.9768,[],[],[],[],[],[],[],m,569.9769,569.9771,-0.011340452,-0.388546484,0,0,0,,0,131,131,144,1,4,word,RESIDENT,cursive,resident_c.png,1.8948,,,,
,,,,32172,001,2025-12-04_13h46.31.208,HW_LDT_1,2024.2.4,MacIntel,60.24096386,,,,,,,,,,,,,,,,,,,,569.978,570.1769,570.1769,570.677,,,,,,,,,,,,0.9094,1,,,,,,,,,,,,,,m,,,,,,,,,,,,,,,,,133,0,570.6777,571.5935,m,1,0.9094,,[],[],[],[],[],[],[],571.5936,573.5933,573.5934,573.5936,[],[],[],[],[],[],[],,573.5937,573.5937,-0.011340452,-0.388546484,0,0,0,,0,132,132,147,1,4,word,ROMANTIC,print,romantic_p.png,,,,,
,,,,32172,001,2025-12-04_13h46.31.208,HW_LDT_1,2024.2.4,MacIntel,60.24096386,,,,,,,,,,,,,,,,,,,,573.595,573.7934,573.7935,574.2934,,,,,,,,,,,,0.7433,1,,,,,,,,,,,,,,z,,,,,,,,,,,,,,,,,134,1,574.294,575.0434,z,1,0.7433,,[],[],[],[],[],[],[],575.0435,577.0432,577.0433,578.2266,[],[],[],[],[],[],[],m,578.2267,578.2269,-0.011340452,-0.388546484,0,0,0,,0,133,133,27,1,4,RL,menowy,print,menowy_p.png,1.1716,,,,
,,,,32172,001,2025-12-04_13h46.31.208,HW_LDT_1,2024.2.4,MacIntel,60.24096386,,,,,,,,,,,,,,,,,,,,578.2282,578.4265,578.4265,578.9266,,,,,,,,,,,,0.7791,1,,,,,,,,,,,,,,m,,,,,,,,,,,,,,,,,135,0,578.9271,579.7098,m,1,0.7791,,[],[],[],[],[],[],[],579.7099,581.7098,581.7098,581.71,[],[],[],[],[],[],[],,581.7101,581.7102,-0.011340452,-0.388546484,0,0,0,,0,134,134,158,1,4,word,VELOCITY,cursive,velocity_c.png,,,,,
,,,,32172,001,2025-12-04_13h46.31.208,HW_LDT_1,2024.2.4,MacIntel,60.24096386,,,,,,,,,,,,,,,,,,,,581.7115,581.9097,581.9097,582.4098,,,,,,,,,,,,0.7538,1,,,,,,,,,,,,,,m,,,,,,,,,,,,,,,,,136,0,582.4104,583.1763,m,1,0.7538,,[],[],[],[],[],[],[],583.1764,585.1762,585.1763,585.1766,[],[],[],[],[],[],[],,585.1767,585.1768,-0.011340452,-0.388546484,0,0,0,,0,135,135,103,1,4,word,DISPUTE,print,dispute_p.png,,,,,
,,,,32172,001,2025-12-04_13h46.31.208,HW_LDT_1,2024.2.4,MacIntel,60.24096386,,,,,,,,,,,,,,,,,,,,585.178,585.3763,585.3763,585.8762,,,,,,,,,,,,1.073,1,,,,,,,,,,,,,,m,,,,,,,,,,,,,,,,,137,0,585.8767,586.9596,m,1,1.073,,[],[],[],[],[],[],[],586.9597,588.9594,588.9595,588.9596,[],[],[],[],[],[],[],,588.9598,588.9599,-0.011340452,-0.388546484,0,0,0,,0,136,136,104,1,4,word,DOMINANT,cursive,dominant_c.png,,,,,
,,,,32172,001,2025-12-04_13h46.31.208,HW_LDT_1,2024.2.4,MacIntel,60.24096386,,,,,,,,,,,,,,,,,,,,588.9611,589.1585,589.1586,589.6593,,,,,,,,,,,,0.8206,1,,,,,,,,,,,,,,z,,,,,,,,,,,,,,,,,138,0,589.66,590.4928,z,1,0.8206,,[],[],[],[],[],[],[],590.4929,592.4926,592.4927,592.4929,[],[],[],[],[],[],[],,592.493,592.4932,-0.011340452,-0.388546484,0,0,0,,0,137,137,43,1,4,RL,rovastic,print,rovastic_p.png,,,,,
,,,,32172,001,2025-12-04_13h46.31.208,HW_LDT_1,2024.2.4,MacIntel,60.24096386,,,,,,,,,,,,,,,,,,,,592.4946,592.6926,592.6926,593.1927,,,,,,,,,,,,0.5863,1,,,,,,,,,,,,,,m,,,,,,,,,,,,,,,,,139,0,593.1933,593.7927,m,1,0.5863,,[],[],[],[],[],[],[],593.7927,595.7924,595.7925,595.7928,[],[],[],[],[],[],[],,595.7928,595.7929,-0.011340452,-0.388546484,0,0,0,,0,138,138,86,1,4,word,BESIDE,print,beside_p.png,,,,,
,,,,32172,001,2025-12-04_13h46.31.208,HW_LDT_1,2024.2.4,MacIntel,60.24096386,,,,,,,,,,,,,,,,,,,,595.7942,595.9926,595.9926,596.492,,,,,,,,,,,,0.7471,0,,,,,,,,,,,,,,z,,,,,,,,,,,,,,,,,140,0,596.4926,597.2424,m,0,0.7471,,[],[],[],[],[],[],[],597.2424,599.2423,599.2424,599.2426,[],[],[],[],[],[],[],,599.2426,599.2427,-0.011340452,-0.388546484,0,0,0,,0,139,139,77,1,4,TL,spemicen,cursive,spemicen_c.png,,,,,
,,,,32172,001,2025-12-04_13h46.31.208,HW_LDT_1,2024.2.4,MacIntel,60.24096386,,,,,,,,,,,,,,,,,,,,599.244,599.4423,599.4423,599.9424,,,,,,,,,,,,0.7941,1,,,,,,,,,,,,,,z,,,,,,,,,,,,,,,,,141,1,599.9429,600.7424,z,1,0.7941,,[],[],[],[],[],[],[],600.7425,602.7423,602.7423,604.4589,[],[],[],[],[],[],[],z,604.4591,604.4592,-0.011340452,-0.388546484,0,0,0,,0,140,140,1,1,4,RL,afaneur,cursive,afaneur_c.png,1.7067,,,,
,,,,32172,001,2025-12-04_13h46.31.208,HW_LDT_1,2024.2.4,MacIntel,60.24096386,,,,,,,,,,,,,,,,,,,,604.4605,604.6588,604.6588,605.1587,,,,,,,,,,,,1.4792,1,,,,,,,,,,,,,,z,,,,,,,,,,,,,,,,,142,0,605.1595,606.642,z,1,1.4792,,[],[],[],[],[],[],[],606.6421,608.6419,608.642,608.6422,[],[],[],[],[],[],[],,608.6423,608.6424,-0.011340452,-0.388546484,0,0,0,,0,141,141,21,1,4,RL,insibate,print,insibate_p.png,,,,,
,,,,32172,001,2025-12-04_13h46.31.208,HW_LDT_1,2024.2.4,MacIntel,60.24096386,,,,,,,,,,,,,,,,,,,,608.6438,608.8421,608.8422,609.3419,,,,,,,,,,,,0.6229,1,,,,,,,,,,,,,,z,,,,,,,,,,,,,,,,,143,1,609.3426,609.9754,z,1,0.6229,,[],[],[],[],[],[],[],609.9755,611.9751,611.9752,613.4751,[],[],[],[],[],[],[],m,613.4751,613.4753,-0.011340452,-0.388546484,0,0,0,,0,142,142,75,1,4,TL,sanile,print,sanile_p.png,1.4968,,,,
,,,,32172,001,2025-12-04_13h46.31.208,HW_LDT_1,2024.2.4,MacIntel,60.24096386,,,,,,,,,,,,,,,,,,,,613.4765,613.675,613.675,614.1741,,,,,,,,,,,,0.7476,1,,,,,,,,,,,,,,z,,,,,,,,,,,,,,,,,144,0,614.1747,614.9245,z,1,0.7476,,[],[],[],[],[],[],[],614.9247,616.925,616.925,616.9251,[],[],[],[],[],[],[],,616.9252,616.9253,-0.011340452,-0.388546484,0,0,0,,0,143,143,5,1,4,RL,bebine,print,bebine_p.png,,,,,
,,,,32172,001,2025-12-04_13h46.31.208,HW_LDT_1,2024.2.4,MacIntel,60.24096386,,,,,,,,,,,,,,,,,,,,616.9265,617.125,617.1251,617.6247,,,,,,,,,,,,1.5433,0,,,,,,,,,,,,,,z,,,,,,,,,,,,,,,,,145,0,617.6253,619.1745,m,0,1.5433,,[],[],[],[],[],[],[],619.1746,621.1746,621.1747,621.1748,[],[],[],[],[],[],[],,621.1749,621.175,-0.011340452,-0.388546484,0,0,0,,0,144,144,55,1,4,TL,corevage,cursive,corevage_c.png,,,,,
,,,,32172,001,2025-12-04_13h46.31.208,HW_LDT_1,2024.2.4,MacIntel,60.24096386,,,,,,,,,,,,,,,,,,,,621.1762,621.3748,621.3749,621.8748,,,,,,,,,,,,1.4103,1,,,,,,,,,,,,,,m,,,,,,,,,,,,,,,,,146,0,621.8753,623.2911,m,1,1.4103,,[],[],[],[],[],[],[],623.2912,625.2914,625.2914,625.2917,[],[],[],[],[],[],[],,625.2918,625.292,-0.011340452,-0.388546484,0,0,0,,0,145,145,108,1,4,word,FORTUNE,cursive,fortune_c.png,,,,,
,,,,32172,001,2025-12-04_13h46.31.208,HW_LDT_1,2024.2.4,MacIntel,60.24096386,,,,,,,,,,,,,,,,,,,,625.2931,625.4915,625.4915,625.9912,,,,,,,,,,,,0.8709,1,,,,,,,,,,,,,,z,,,,,,,,,,,,,,,,,147,0,625.9918,626.8748,z,1,0.8709,,[],[],[],[],[],[],[],626.8749,628.8745,628.8745,628.8748,[],[],[],[],[],[],[],,628.8748,628.8749,-0.011340452,-0.388546484,0,0,0,,0,146,146,59,1,4,TL,fornute,cursive,fornute_c.png,,,,,
,,,,32172,001,2025-12-04_13h46.31.208,HW_LDT_1,2024.2.4,MacIntel,60.24096386,,,,,,,,,,,,,,,,,,,,628.876,629.0745,629.0746,629.5745,,,,,,,,,,,,1.36,1,,,,,,,,,,,,,,m,,,,,,,,,,,,,,,,,148,0,629.5751,630.9411,m,1,1.36,,[],[],[],[],[],[],[],630.9412,632.941,632.9411,632.9413,[],[],[],[],[],[],[],,632.9413,632.9415,-0.011340452,-0.388546484,0,0,0,,0,147,147,151,1,4,word,SPECIFIC,cursive,specific_c.png,,,,,
,,,,32172,001,2025-12-04_13h46.31.208,HW_LDT_1,2024.2.4,MacIntel,60.24096386,,,,,,,,,,,,,,,,,,,,632.9428,633.141,633.1411,633.6409,,,,,,,,,,,,1.0457,0,,,,,,,,,,,,,,z,,,,,,,,,,,,,,,,,149,0,633.6416,634.6909,m,0,1.0457,,[],[],[],[],[],[],[],634.691,636.6909,636.6909,636.6912,[],[],[],[],[],[],[],,636.6913,636.6913,-0.011340452,-0.388546484,0,0,0,,0,148,148,14,1,4,RL,delahe,cursive,delahe_c.png,,,,,
,,,,32172,001,2025-12-04_13h46.31.208,HW_LDT_1,2024.2.4,MacIntel,60.24096386,,,,,,,,,,,,,,,,,,,,636.6927,636.8908,636.8909,637.3908,,,,,,,,,,,,0.7984,1,,,,,,,,,,,,,,z,,,,,,,,,,,,,,,,,150,0,637.3915,638.1908,z,1,0.7984,,[],[],[],[],[],[],[],638.1909,640.1907,640.1908,640.1909,[],[],[],[],[],[],[],,640.191,640.1911,-0.011340452,-0.388546484,0,0,0,,0,149,149,28,1,4,RL,mifikary,print,mifikary_p.png,,,,,
,,,,32172,001,2025-12-04_13h46.31.208,HW_LDT_1,2024.2.4,MacIntel,60.24096386,,,,,,,,,,,,,,,,,,,,640.1924,640.3907,640.3907,640.8907,,,,,,,,,,,,1.0537,1,,,,,,,,,,,,,,z,,,,,,,,,,,,,,,,,151,0,640.8913,641.9574,z,1,1.0537,,[],[],[],[],[],[],[],641.9575,643.9573,643.9574,643.9576,[],[],[],[],[],[],[],,643.9576,643.9577,-0.011340452,-0.388546484,0,0,0,,0,150,150,69,1,4,TL,quafily,print,quafily_p.png,,,,,
,,,,32172,001,2025-12-04_13h46.31.208,HW_LDT_1,2024.2.4,MacIntel,60.24096386,,,,,,,,,,,,,,,,,,,,643.9589,644.1573,644.1573,644.6572,,,,,,,,,,,,0.8198,1,,,,,,,,,,,,,,m,,,,,,,,,,,,,,,,,152,0,644.6578,645.4907,m,1,0.8198,,[],[],[],[],[],[],[],645.4907,647.4897,647.4897,647.49,[],[],[],[],[],[],[],,647.49,647.4901,-0.011340452,-0.388546484,0,0,0,,0,151,151,149,1,4,word,SENATOR,print,senator_p.png,,,,,
,,,,32172,001,2025-12-04_13h46.31.208,HW_LDT_1,2024.2.4,MacIntel,60.24096386,,,,,,,,,,,,,,,,,,,,647.4912,647.6904,647.6905,648.1896,,,,,,,,,,,,0.7278,1,,,,,,,,,,,,,,z,,,,,,,,,,,,,,,,,153,0,648.1903,648.9237,z,1,0.7278,,[],[],[],[],[],[],[],648.9237,650.923,650.923,650.9232,[],[],[],[],[],[],[],,650.9232,650.9234,-0.011340452,-0.388546484,0,0,0,,0,152,152,0,1,4,RL,abanemy,print,abanemy_p.png,,,,,
,,,,32172,001,2025-12-04_13h46.31.208,HW_LDT_1,2024.2.4,MacIntel,60.24096386,,,,,,,,,,,,,,,,,,,,650.9246,651.1237,651.1238,651.6234,,,,,,,,,,,,0.6654,1,,,,,,,,,,,,,,z,,,,,,,,,,,,,,,,,154,0,651.6239,652.2899,z,1,0.6654,,[],[],[],[],[],[],[],652.2901,654.2901,654.2902,654.2903,[],[],[],[],[],[],[],,654.2905,654.2905,-0.011340452,-0.388546484,0,0,0,,0,153,153,70,1,4,TL,quatily,print,quatily_p.png,,,,,
,,,,32172,001,2025-12-04_13h46.31.208,HW_LDT_1,2024.2.4,MacIntel,60.24096386,,,,,,,,,,,,,,,,,,,,654.2917,654.4897,654.4897,654.9902,,,,,,,,,,,,0.6366,1,,,,,,,,,,,,,,z,,,,,,,,,,,,,,,,,155,0,654.9908,655.6395,z,1,0.6366,,[],[],[],[],[],[],[],655.6395,657.64,657.64,657.6403,[],[],[],[],[],[],[],,657.6404,657.6405,-0.011340452,-0.388546484,0,0,0,,0,154,154,7,1,4,RL,casena,print,casena_p.png,,,,,
,,,,32172,001,2025-12-04_13h46.31.208,HW_LDT_1,2024.2.4,MacIntel,60.24096386,,,,,,,,,,,,,,,,,,,,657.6416,657.8401,657.8401,658.3401,,,,,,,,,,,,0.8049,1,,,,,,,,,,,,,,m,,,,,,,,,,,,,,,,,156,0,658.3407,659.1568,m,1,0.8049,,[],[],[],[],[],[],[],659.1568,661.1564,661.1565,661.1567,[],[],[],[],[],[],[],,661.1568,661.1569,-0.011340452,-0.388546484,0,0,0,,0,155,155,105,1,4,word,EDITOR,print,editor_p.png,,,,,
,,,,32172,001,2025-12-04_13h46.31.208,HW_LDT_1,2024.2.4,MacIntel,60.24096386,,,,,,,,,,,,,,,,,,,,661.1578,661.3566,661.3567,661.8565,,,,,,,,,,,,0.7313,1,,,,,,,,,,,,,,z,,,,,,,,,,,,,,,,,157,0,661.8572,662.5899,z,1,0.7313,,[],[],[],[],[],[],[],662.5899,664.5898,664.5898,664.59,[],[],[],[],[],[],[],,664.5901,664.5902,-0.011340452,-0.388546484,0,0,0,,0,156,156,20,1,4,RL,gralekul,print,gralekul_p.png,,,,,
,,,,32172,001,2025-12-04_13h46.31.208,HW_LDT_1,2024.2.4,MacIntel,60.24096386,,,,,,,,,,,,,,,,,,,,664.5916,664.7898,664.7898,665.2897,,,,,,,,,,,,0.6981,1,,,,,,,,,,,,,,m,,,,,,,,,,,,,,,,,158,0,665.2902,665.9897,m,1,0.6981,,[],[],[],[],[],[],[],665.9898,667.9897,667.9897,667.9899,[],[],[],[],[],[],[],,667.99,667.9902,-0.011340452,-0.388546484,0,0,0,,0,157,157,141,1,4,word,RELIGION,print,religion_p.png,,,,,
,,,,32172,001,2025-12-04_13h46.31.208,HW_LDT_1,2024.2.4,MacIntel,60.24096386,,,,,,,,,,,,,,,,,,,,667.9914,668.1897,668.1898,668.6895,,,,,,,,,,,,0.6362,1,,,,,,,,,,,,,,m,,,,,,,,,,,,,,,,,159,0,668.6902,669.3396,m,1,0.6362,,[],[],[],[],[],[],[],669.3398,671.3395,671.3395,671.3398,[],[],[],[],[],[],[],,671.3398,671.3399,-0.011340452,-0.388546484,0,0,0,,0,158,158,88,1,4,word,CAMERA,print,camera_p.png,,,,,
,,,,32172,001,2025-12-04_13h46.31.208,HW_LDT_1,2024.2.4,MacIntel,60.24096386,,,,,,,,,,,,,,,,,,,,671.3411,671.5395,671.5396,672.0394,,,,,,,,,,,,1.7473,1,,,,,,,,,,,,,,m,,,,,,,,,,,,,,,,,160,0,672.0401,673.7888,m,1,1.7473,,[],[],[],[],[],[],[],673.7888,675.7893,675.7894,675.7895,[],[],[],[],[],[],[],,675.7896,675.7897,0.222469226,-0.260035535,0,0,0,,0,159,159,98,1,4,word,CRIMINAL,cursive,criminal_c.png,,,,,
,,,,32172,001,2025-12-04_13h46.31.208,HW_LDT_1,2024.2.4,MacIntel,60.24096386,,,,,,,,,,,,,,,,,,,,,,,,,,,,,,,,,,,,,,,,,,,,,,,,,,,,,,,,,,,,,,,,,,,,,,,,,,,,,,,,,,,,,,,,,,,,,,,,,,,,,,,,,,,,,,,,,,,675.7906,680.7899
