counterbalance_lists.group,counterbalance_lists.remaining,get_list.started,get_list.stopped,participant,session,date,expName,psychopyVersion,OS,frameRate,Instructions.started,Instructions.stopped,key_resp.keys,instr_done_touch.x,instr_done_touch.y,instr_done_touch.leftButton,instr_done_touch.midButton,instr_done_touch.rightButton,instr_done_touch.clicked_name,start_instr.thisRepN,start_instr.thisTrialN,start_instr.thisN,start_instr.thisIndex,start_instr.ran,pageN,phase,instruct_text,has_image,instruct_image,showProgress.started,showProgress.stopped,fix.started,fix.stopped,prac.started,prac.stopped,response.keys,response.corr,response.rt,response.duration,touch_resp.x,touch_resp.y,touch_resp.leftButton,touch_resp.midButton,touch_resp.rightButton,touch_resp.time,touch_resp.clicked_name,rt,corr,feedback.started,feedback.stopped,trials.thisRepN,trials.thisTrialN,trials.thisN,trials.thisIndex,trials.ran,TrialID,StimulusType,Condition,PrimeDuration,Prime,Target,corrAns,Instructions_expt.started,Instructions_expt.stopped,key_resp_3.keys,instr_done_touch_3.x,instr_done_touch_3.y,instr_done_touch_3.leftButton,instr_done_touch_3.midButton,instr_done_touch_3.rightButton,instr_done_touch_3.clicked_name,instr_experiment.thisRepN,instr_experiment.thisTrialN,instr_experiment.thisN,instr_experiment.thisIndex,instr_experiment.ran,trialID,flag,maintask.started,maintask.stopped,key_resp_2.keys,key_resp_2.corr,key_resp_2.rt,key_resp_2.duration,targ_click.x,targ_click.y,targ_click.leftButton,targ_click.midButton,targ_click.rightButton,targ_click.time,targ_click.clicked_name,ITI.started,ITI.stopped,probe.started,probe.stopped,click_probe.x,click_probe.y,click_probe.leftButton,click_probe.midButton,click_probe.rightButton,click_probe.time,click_probe.clicked_name,key_resp_probe.keys,Break.started,Break.stopped,break_done_touch.x,break_done_touch.y,break_done_touch.leftButton,break_done_touch.midButton,break_done_touch.rightButton,break_done_keyboard.keys,list4_trials.thisRepN,list4_trials.thisTrialN,list4_trials.thisN,list4_trials.thisIndex,list4_trials.ran,list_id,item_type,string,font,stim_file,key_resp_probe.rt,key_resp_probe.duration,break_done_keyboard.rt,break_done_keyboard.duration,End.started,End.stopped
list4,,0.978,0.979,32187,001,2025-11-16_13h02.06.802,HW_LDT_1,2024.2.4,MacIntel,58.82352941,,,,,,,,,,,,,,,,,,,,,,,,,,,,,,,,,,,,,,,,,,,,,,,,,,,,,,,,,,,,,,,,,,,,,,,,,,,,,,,,,,,,,,,,,,,,,,,,,,,,,,,,,,,,,,,,,,,,,
,,,,32187,001,2025-11-16_13h02.06.802,HW_LDT_1,2024.2.4,MacIntel,58.82352941,0.993,18.583,,-0.071817193,-0.427094668,1,0,0,instr_done_button,0,0,0,0,1,1,instructions,"INSTRUCTIONS
At the start of each trial, look at the plus sign  (+) in the center of the screen.  This tells you that a trial is about to begin and where to look. Second, the plus sign will disappear and a string of letters will appear. Your task is to determine if the string of letters is a word or not. If the item is a word press the M key (on keyboard)  or touch the word button (phone/tablet).  If the item is not a word,  press the  Z key (on keyboard)  or touch the nonword button (on phone/tablet). The items will be presented for a short time. 
Press the space bar or touch  continue.",0,,,,,,,,,,,,,,,,,,,,,,,,,,,,,,,,,,,,,,,,,,,,,,,,,,,,,,,,,,,,,,,,,,,,,,,,,,,,,,,,,,,,,,,,,,,,,,,,,,,
,,,,32187,001,2025-11-16_13h02.06.802,HW_LDT_1,2024.2.4,MacIntel,58.82352941,18.585,24.932,,-0.071817193,-0.427094668,1,0,0,instr_done_button,0,1,1,1,1,2,instructions,"If your device has a keyboard, press the 'Z' key for nonwords and the 'M' key for words.





Press the space bar or touch the button below to continue.",0,keyboard-example.gif,,,,,,,,,,,,,,,,,,,,,,,,,,,,,,,,,,,,,,,,,,,,,,,,,,,,,,,,,,,,,,,,,,,,,,,,,,,,,,,,,,,,,,,,,,,,,,,,,,
,,,,32187,001,2025-11-16_13h02.06.802,HW_LDT_1,2024.2.4,MacIntel,58.82352941,24.934,29.015,,-0.028291621,-0.412948857,1,0,0,instr_done_button,0,2,2,2,1,3,instructions,"If you are using a touchscreen only device, use the buttons on the screen. Do not use the mouse.





Press the space bar or touch the button below to continue.",0,touchscreen-example.gif,,,,,,,,,,,,,,,,,,,,,,,,,,,,,,,,,,,,,,,,,,,,,,,,,,,,,,,,,,,,,,,,,,,,,,,,,,,,,,,,,,,,,,,,,,,,,,,,,,
,,,,32187,001,2025-11-16_13h02.06.802,HW_LDT_1,2024.2.4,MacIntel,58.82352941,29.017,38.415,,-0.0304679,-0.411860718,1,0,0,instr_done_button,0,3,3,3,1,4,instructions,"It is very important that you respond as quickly and accurately as possible, as each letter string will only be on the screen for two seconds. If you do not respond within this time, the message 'Too slow!' will be displayed and the experiment will progress to the next letter string. The first 20 trials will be practice trials and you will receive feedback on your answers. 

Press the space bar or touch the button below to start the practice trials.",0,,,,,,,,,,,,,,,,,,,,,,,,,,,,,,,,,,,,,,,,,,,,,,,,,,,,,,,,,,,,,,,,,,,,,,,,,,,,,,,,,,,,,,,,,,,,,,,,,,,
,,,,32187,001,2025-11-16_13h02.06.802,HW_LDT_1,2024.2.4,MacIntel,58.82352941,,,,,,,,,,,,,,,,,,,,38.441,38.615,38.616,39.115,39.115,40.366,z,0,1.22,,[],[],[],[],[],[],[],1.22,0,40.367,40.865,0,0,0,0,1,1001,WORD,"ID",33,utopia,UTOPIA,m,,,,,,,,,,,,,,,,,,,,,,,,,,,,,,,,,,,,,,,,,,,,,,,,,,,,,,,,,,,,,,,,,
,,,,32187,001,2025-11-16_13h02.06.802,HW_LDT_1,2024.2.4,MacIntel,58.82352941,,,,,,,,,,,,,,,,,,,,40.866,41.065,41.065,41.564,41.565,42.532,m,1,0.946,,[],[],[],[],[],[],[],0.946,1,42.533,43.032,0,1,1,6,1,1007,WORD,UN,16,tropic,ZOMBIE,m,,,,,,,,,,,,,,,,,,,,,,,,,,,,,,,,,,,,,,,,,,,,,,,,,,,,,,,,,,,,,,,,,
,,,,32187,001,2025-11-16_13h02.06.802,HW_LDT_1,2024.2.4,MacIntel,58.82352941,,,,,,,,,,,,,,,,,,,,43.033,43.231,43.232,43.732,43.732,44.665,z,1,0.912,,[],[],[],[],[],[],[],0.912,1,44.666,45.165,0,2,2,14,1,1015,NW,UN,16,miaber,THRALE,z,,,,,,,,,,,,,,,,,,,,,,,,,,,,,,,,,,,,,,,,,,,,,,,,,,,,,,,,,,,,,,,,,
,,,,32187,001,2025-11-16_13h02.06.802,HW_LDT_1,2024.2.4,MacIntel,58.82352941,,,,,,,,,,,,,,,,,,,,45.167,45.365,45.365,45.865,45.866,47.048,m,0,1.162,,[],[],[],[],[],[],[],1.162,0,47.049,47.548,0,3,3,10,1,1011,NW,"ID",16,inlade,INLADE,z,,,,,,,,,,,,,,,,,,,,,,,,,,,,,,,,,,,,,,,,,,,,,,,,,,,,,,,,,,,,,,,,,
,,,,32187,001,2025-11-16_13h02.06.802,HW_LDT_1,2024.2.4,MacIntel,58.82352941,,,,,,,,,,,,,,,,,,,,47.549,47.748,47.748,48.248,48.249,48.981,z,1,0.712,,[],[],[],[],[],[],[],0.712,1,48.982,49.481,0,4,4,13,1,1014,NW,UN,33,winfer,ROUPET,z,,,,,,,,,,,,,,,,,,,,,,,,,,,,,,,,,,,,,,,,,,,,,,,,,,,,,,,,,,,,,,,,,
,,,,32187,001,2025-11-16_13h02.06.802,HW_LDT_1,2024.2.4,MacIntel,58.82352941,,,,,,,,,,,,,,,,,,,,49.482,49.681,49.682,50.181,50.182,50.865,m,1,0.662,,[],[],[],[],[],[],[],0.662,1,50.865,51.365,0,5,5,7,1,1008,WORD,UN,16,hurdle,VOLUME,m,,,,,,,,,,,,,,,,,,,,,,,,,,,,,,,,,,,,,,,,,,,,,,,,,,,,,,,,,,,,,,,,,
,,,,32187,001,2025-11-16_13h02.06.802,HW_LDT_1,2024.2.4,MacIntel,58.82352941,,,,,,,,,,,,,,,,,,,,51.366,51.565,51.565,52.065,52.065,52.965,z,1,0.88,,[],[],[],[],[],[],[],0.88,1,52.965,53.465,0,6,6,9,1,1010,NW,"ID",33,fariny,FARINY,z,,,,,,,,,,,,,,,,,,,,,,,,,,,,,,,,,,,,,,,,,,,,,,,,,,,,,,,,,,,,,,,,,
,,,,32187,001,2025-11-16_13h02.06.802,HW_LDT_1,2024.2.4,MacIntel,58.82352941,,,,,,,,,,,,,,,,,,,,53.466,53.664,53.664,54.165,54.165,54.998,z,1,0.814,,[],[],[],[],[],[],[],0.814,1,54.998,55.497,0,7,7,12,1,1013,NW,UN,33,adveil,SPRINY,z,,,,,,,,,,,,,,,,,,,,,,,,,,,,,,,,,,,,,,,,,,,,,,,,,,,,,,,,,,,,,,,,,
,,,,32187,001,2025-11-16_13h02.06.802,HW_LDT_1,2024.2.4,MacIntel,58.82352941,,,,,,,,,,,,,,,,,,,,55.499,55.698,55.698,56.198,56.199,56.815,m,1,0.598,,[],[],[],[],[],[],[],0.598,1,56.815,57.315,0,8,8,3,1,1004,WORD,"ID",16,matrix,MATRIX,m,,,,,,,,,,,,,,,,,,,,,,,,,,,,,,,,,,,,,,,,,,,,,,,,,,,,,,,,,,,,,,,,,
,,,,32187,001,2025-11-16_13h02.06.802,HW_LDT_1,2024.2.4,MacIntel,58.82352941,,,,,,,,,,,,,,,,,,,,57.316,57.515,57.515,58.015,58.016,58.598,m,1,0.563,,[],[],[],[],[],[],[],0.563,1,58.598,59.098,0,9,9,4,1,1005,WORD,UN,33,abound,SQUEAK,m,,,,,,,,,,,,,,,,,,,,,,,,,,,,,,,,,,,,,,,,,,,,,,,,,,,,,,,,,,,,,,,,,
,,,,32187,001,2025-11-16_13h02.06.802,HW_LDT_1,2024.2.4,MacIntel,58.82352941,,,,,,,,,,,,,,,,,,,,59.099,59.298,59.298,59.797,59.798,60.798,z,1,0.986,,[],[],[],[],[],[],[],0.986,1,60.798,61.298,0,10,10,11,1,1012,NW,"ID",16,rashet,RASHET,z,,,,,,,,,,,,,,,,,,,,,,,,,,,,,,,,,,,,,,,,,,,,,,,,,,,,,,,,,,,,,,,,,
,,,,32187,001,2025-11-16_13h02.06.802,HW_LDT_1,2024.2.4,MacIntel,58.82352941,,,,,,,,,,,,,,,,,,,,61.299,61.498,61.498,61.998,61.999,62.648,m,1,0.632,,[],[],[],[],[],[],[],0.632,1,62.648,63.148,0,11,11,5,1,1006,WORD,UN,33,frenzy,OBTAIN,m,,,,,,,,,,,,,,,,,,,,,,,,,,,,,,,,,,,,,,,,,,,,,,,,,,,,,,,,,,,,,,,,,
,,,,32187,001,2025-11-16_13h02.06.802,HW_LDT_1,2024.2.4,MacIntel,58.82352941,,,,,,,,,,,,,,,,,,,,63.149,63.348,63.348,63.848,63.849,64.568,m,1,0.704,,[],[],[],[],[],[],[],0.704,1,64.569,65.065,0,12,12,1,1,1002,WORD,"ID",33,adjust,ADJUST,m,,,,,,,,,,,,,,,,,,,,,,,,,,,,,,,,,,,,,,,,,,,,,,,,,,,,,,,,,,,,,,,,,
,,,,32187,001,2025-11-16_13h02.06.802,HW_LDT_1,2024.2.4,MacIntel,58.82352941,,,,,,,,,,,,,,,,,,,,65.066,65.265,65.265,65.765,65.765,66.331,m,1,0.548,,[],[],[],[],[],[],[],0.548,1,66.332,66.831,0,13,13,2,1,1003,WORD,"ID",16,almond,ALMOND,m,,,,,,,,,,,,,,,,,,,,,,,,,,,,,,,,,,,,,,,,,,,,,,,,,,,,,,,,,,,,,,,,,
,,,,32187,001,2025-11-16_13h02.06.802,HW_LDT_1,2024.2.4,MacIntel,58.82352941,,,,,,,,,,,,,,,,,,,,66.832,67.031,67.031,67.531,67.532,68.315,z,1,0.771,,[],[],[],[],[],[],[],0.771,1,68.315,68.815,0,14,14,15,1,1016,NW,UN,16,mushed,WHAISE,z,,,,,,,,,,,,,,,,,,,,,,,,,,,,,,,,,,,,,,,,,,,,,,,,,,,,,,,,,,,,,,,,,
,,,,32187,001,2025-11-16_13h02.06.802,HW_LDT_1,2024.2.4,MacIntel,58.82352941,,,,,,,,,,,,,,,,,,,,68.816,69.015,69.015,69.515,69.515,70.415,z,1,0.883,,[],[],[],[],[],[],[],0.883,1,70.415,70.915,0,15,15,8,1,1009,NW,"ID",33,aslert,ASLERT,z,,,,,,,,,,,,,,,,,,,,,,,,,,,,,,,,,,,,,,,,,,,,,,,,,,,,,,,,,,,,,,,,,
,,,,32187,001,2025-11-16_13h02.06.802,HW_LDT_1,2024.2.4,MacIntel,58.82352941,,,,,,,,,,,,,,,1,end_of_practice,"You have completed the practice trials. During the experimental trials, you will not receive feedback. On some trials you will be asked to report whether the item you just saw was in cursive or print. 
Before you begin, please ensure that you are in a comfortable and quiet location and will not be disturbed for about 15 minutes, as we cannot use your data if you do not complete all the trials. 
 When you are ready to start the experimental trials, please press space or touch the button below.",,,,,,,,,,,,,,,,,,,,,,,,,,,,,,,,,,,,70.923,83.233,,-0.011969532,-0.406420022,1,0,0,instr_done_button_3,0,0,0,0,1,,,,,,,,,,,,,,,,,,,,,,,,,,,,,,,,,,,,,,,,,,,,,,,,,,,
,,,,32187,001,2025-11-16_13h02.06.802,HW_LDT_1,2024.2.4,MacIntel,58.82352941,,,,,,,,,,,,,,,,,,,,83.255,83.431,83.432,83.931,,,,,,,,,,,,,,0.826,1,,,,,,,,,,,,,,m,,,,,,,,,,,,,,,1,0,83.932,84.769,m,1,0.826,,[],[],[],[],[],[],[],84.769,86.765,86.765,86.77,[],[],[],[],[],[],[],,86.77,86.773,-0.011969532,-0.406420022,0,0,0,,0,0,0,146,1,4,word,RETIRE,print,retire_p.png,,,,,,
,,,,32187,001,2025-11-16_13h02.06.802,HW_LDT_1,2024.2.4,MacIntel,58.82352941,,,,,,,,,,,,,,,,,,,,86.774,86.965,86.965,87.465,,,,,,,,,,,,,,1.396,1,,,,,,,,,,,,,,m,,,,,,,,,,,,,,,2,0,87.465,88.868,m,1,1.396,,[],[],[],[],[],[],[],88.868,90.865,90.865,90.865,[],[],[],[],[],[],[],,90.865,90.865,-0.011969532,-0.406420022,0,0,0,,0,1,1,104,1,4,word,DOMINANT,cursive,dominant_c.png,,,,,,
,,,,32187,001,2025-11-16_13h02.06.802,HW_LDT_1,2024.2.4,MacIntel,58.82352941,,,,,,,,,,,,,,,,,,,,90.866,91.065,91.065,91.565,,,,,,,,,,,,,,0.704,1,,,,,,,,,,,,,,m,,,,,,,,,,,,,,,3,0,91.565,92.281,m,1,0.704,,[],[],[],[],[],[],[],92.281,94.281,94.281,94.282,[],[],[],[],[],[],[],,94.282,94.282,-0.010881393,-0.396626768,0,0,0,,0,2,2,149,1,4,word,SENATOR,print,senator_p.png,,,,,,
,,,,32187,001,2025-11-16_13h02.06.802,HW_LDT_1,2024.2.4,MacIntel,58.82352941,,,,,,,,,,,,,,,,,,,,94.282,94.481,94.481,94.981,,,,,,,,,,,,,,1.17,1,,,,,,,,,,,,,,z,,,,,,,,,,,,,,,4,1,94.982,96.165,z,1,1.17,,[],[],[],[],[],[],[],96.165,98.165,98.165,99.615,[],[],[],[],[],[],[],z,99.615,99.615,-0.010881393,-0.396626768,0,0,0,,0,3,3,35,1,4,RL,probice,cursive,probice_c.png,1.444,,,,,
,,,,32187,001,2025-11-16_13h02.06.802,HW_LDT_1,2024.2.4,MacIntel,58.82352941,,,,,,,,,,,,,,,,,,,,99.616,99.815,99.815,100.315,,,,,,,,,,,,,,1.719,1,,,,,,,,,,,,,,m,,,,,,,,,,,,,,,5,0,100.315,102.048,m,1,1.719,,[],[],[],[],[],[],[],102.048,104.048,104.048,104.048,[],[],[],[],[],[],[],,104.048,104.048,-0.010881393,-0.396626768,0,0,0,,0,4,4,144,1,4,word,RESIDENT,cursive,resident_c.png,,,,,,
,,,,32187,001,2025-11-16_13h02.06.802,HW_LDT_1,2024.2.4,MacIntel,58.82352941,,,,,,,,,,,,,,,,,,,,104.049,104.248,104.248,104.748,,,,,,,,,,,,,,1.005,1,,,,,,,,,,,,,,z,,,,,,,,,,,,,,,6,0,104.748,105.765,z,1,1.005,,[],[],[],[],[],[],[],105.765,107.764,107.765,107.765,[],[],[],[],[],[],[],,107.765,107.766,-0.010881393,-0.396626768,0,0,0,,0,5,5,22,1,4,RL,linedal,cursive,linedal_c.png,,,,,,
,,,,32187,001,2025-11-16_13h02.06.802,HW_LDT_1,2024.2.4,MacIntel,58.82352941,,,,,,,,,,,,,,,,,,,,107.766,107.965,107.965,108.465,,,,,,,,,,,,,,0.691,1,,,,,,,,,,,,,,m,,,,,,,,,,,,,,,7,0,108.465,109.164,m,1,0.691,,[],[],[],[],[],[],[],109.165,111.164,111.164,111.165,[],[],[],[],[],[],[],,111.165,111.165,-0.010881393,-0.396626768,0,0,0,,0,6,6,120,1,4,word,MILITARY,print,military_p.png,,,,,,
,,,,32187,001,2025-11-16_13h02.06.802,HW_LDT_1,2024.2.4,MacIntel,58.82352941,,,,,,,,,,,,,,,,,,,,111.166,111.364,111.364,111.865,,,,,,,,,,,,,,0.796,1,,,,,,,,,,,,,,m,,,,,,,,,,,,,,,8,0,111.865,112.669,m,1,0.796,,[],[],[],[],[],[],[],112.669,114.665,114.665,114.665,[],[],[],[],[],[],[],,114.665,114.665,-0.010881393,-0.396626768,0,0,0,,0,7,7,98,1,4,word,CRIMINAL,cursive,criminal_c.png,,,,,,
,,,,32187,001,2025-11-16_13h02.06.802,HW_LDT_1,2024.2.4,MacIntel,58.82352941,,,,,,,,,,,,,,,,,,,,114.666,114.865,114.865,115.364,,,,,,,,,,,,,,0.962,1,,,,,,,,,,,,,,z,,,,,,,,,,,,,,,9,0,115.365,116.331,z,1,0.962,,[],[],[],[],[],[],[],116.331,118.331,118.331,118.332,[],[],[],[],[],[],[],,118.332,118.332,-0.010881393,-0.396626768,0,0,0,,0,8,8,75,1,4,TL,sanile,print,sanile_p.png,,,,,,
,,,,32187,001,2025-11-16_13h02.06.802,HW_LDT_1,2024.2.4,MacIntel,58.82352941,,,,,,,,,,,,,,,,,,,,118.332,118.531,118.531,119.031,,,,,,,,,,,,,,1.225,1,,,,,,,,,,,,,,z,,,,,,,,,,,,,,,10,0,119.031,120.265,z,1,1.225,,[],[],[],[],[],[],[],120.265,122.265,122.265,122.265,[],[],[],[],[],[],[],,122.265,122.265,-0.010881393,-0.396626768,0,0,0,,0,9,9,72,1,4,TL,relugar,cursive,relugar_c.png,,,,,,
,,,,32187,001,2025-11-16_13h02.06.802,HW_LDT_1,2024.2.4,MacIntel,58.82352941,,,,,,,,,,,,,,,,,,,,122.266,122.465,122.465,122.965,,,,,,,,,,,,,,0.773,1,,,,,,,,,,,,,,m,,,,,,,,,,,,,,,11,0,122.965,123.748,m,1,0.773,,[],[],[],[],[],[],[],123.748,125.748,125.748,125.748,[],[],[],[],[],[],[],,125.748,125.748,-0.010881393,-0.396626768,0,0,0,,0,10,10,86,1,4,word,BESIDE,print,beside_p.png,,,,,,
,,,,32187,001,2025-11-16_13h02.06.802,HW_LDT_1,2024.2.4,MacIntel,58.82352941,,,,,,,,,,,,,,,,,,,,125.749,125.948,125.948,126.448,,,,,,,,,,,,,,0.621,1,,,,,,,,,,,,,,m,,,,,,,,,,,,,,,12,0,126.448,127.081,m,1,0.621,,[],[],[],[],[],[],[],127.081,129.081,129.081,129.082,[],[],[],[],[],[],[],,129.082,129.082,-0.010881393,-0.396626768,0,0,0,,0,11,11,88,1,4,word,CAMERA,print,camera_p.png,,,,,,
,,,,32187,001,2025-11-16_13h02.06.802,HW_LDT_1,2024.2.4,MacIntel,58.82352941,,,,,,,,,,,,,,,,,,,,129.082,129.281,129.281,129.781,,,,,,,,,,,,,,0.545,1,,,,,,,,,,,,,,m,,,,,,,,,,,,,,,13,0,129.782,130.335,m,1,0.545,,[],[],[],[],[],[],[],130.335,132.331,132.331,132.331,[],[],[],[],[],[],[],,132.331,132.331,-0.010881393,-0.396626768,0,0,0,,0,12,12,122,1,4,word,MOBILE,print,mobile_p.png,,,,,,
,,,,32187,001,2025-11-16_13h02.06.802,HW_LDT_1,2024.2.4,MacIntel,58.82352941,,,,,,,,,,,,,,,,,,,,132.332,132.531,132.531,133.031,,,,,,,,,,,,,,0.932,1,,,,,,,,,,,,,,z,,,,,,,,,,,,,,,14,0,133.032,133.964,z,1,0.932,,[],[],[],[],[],[],[],133.964,135.964,135.965,135.965,[],[],[],[],[],[],[],,135.965,135.965,-0.010881393,-0.396626768,0,0,0,,0,13,13,45,1,4,RL,spetisic,cursive,spetisic_c.png,,,,,,
,,,,32187,001,2025-11-16_13h02.06.802,HW_LDT_1,2024.2.4,MacIntel,58.82352941,,,,,,,,,,,,,,,,,,,,135.966,136.165,136.165,136.664,,,,,,,,,,,,,,0.56,1,,,,,,,,,,,,,,m,,,,,,,,,,,,,,,15,0,136.665,137.234,m,1,0.56,,[],[],[],[],[],[],[],137.234,139.231,139.231,139.231,[],[],[],[],[],[],[],,139.231,139.231,-0.010881393,-0.396626768,0,0,0,,0,14,14,131,1,4,word,POPULAR,print,popular_p.png,,,,,,
,,,,32187,001,2025-11-16_13h02.06.802,HW_LDT_1,2024.2.4,MacIntel,58.82352941,,,,,,,,,,,,,,,,,,,,139.232,139.431,139.431,139.931,,,,,,,,,,,,,,0.653,1,,,,,,,,,,,,,,z,,,,,,,,,,,,,,,16,0,139.931,140.598,z,1,0.653,,[],[],[],[],[],[],[],140.598,142.598,142.598,142.598,[],[],[],[],[],[],[],,142.598,142.598,-0.010881393,-0.396626768,0,0,0,,0,15,15,38,1,4,RL,refakive,print,refakive_p.png,,,,,,
,,,,32187,001,2025-11-16_13h02.06.802,HW_LDT_1,2024.2.4,MacIntel,58.82352941,,,,,,,,,,,,,,,,,,,,142.599,142.798,142.798,143.298,,,,,,,,,,,,,,1.587,1,,,,,,,,,,,,,,z,,,,,,,,,,,,,,,17,0,143.298,144.898,z,1,1.587,,[],[],[],[],[],[],[],144.898,146.898,146.898,146.898,[],[],[],[],[],[],[],,146.898,146.898,-0.010881393,-0.396626768,0,0,0,,0,16,16,13,1,4,RL,crisival,cursive,crisival_c.png,,,,,,
,,,,32187,001,2025-11-16_13h02.06.802,HW_LDT_1,2024.2.4,MacIntel,58.82352941,,,,,,,,,,,,,,,,,,,,146.899,147.098,147.098,147.598,,,,,,,,,,,,,,0.527,1,,,,,,,,,,,,,,m,,,,,,,,,,,,,,,18,1,147.598,148.135,m,1,0.527,,[],[],[],[],[],[],[],148.135,150.131,150.131,151.585,[],[],[],[],[],[],[],m,151.585,151.585,-0.010881393,-0.396626768,0,0,0,,0,17,17,107,1,4,word,EVIDENT,print,evident_p.png,1.445,,,,,
,,,,32187,001,2025-11-16_13h02.06.802,HW_LDT_1,2024.2.4,MacIntel,58.82352941,,,,,,,,,,,,,,,,,,,,151.586,151.781,151.781,152.281,,,,,,,,,,,,,,0.77,1,,,,,,,,,,,,,,m,,,,,,,,,,,,,,,19,0,152.282,153.065,m,1,0.77,,[],[],[],[],[],[],[],153.065,155.065,155.065,155.065,[],[],[],[],[],[],[],,155.065,155.065,-0.010881393,-0.396626768,0,0,0,,0,18,18,123,1,4,word,MODERATE,print,moderate_p.png,,,,,,
,,,,32187,001,2025-11-16_13h02.06.802,HW_LDT_1,2024.2.4,MacIntel,58.82352941,,,,,,,,,,,,,,,,,,,,155.066,155.265,155.265,155.764,,,,,,,,,,,,,,1.17,0,,,,,,,,,,,,,,z,,,,,,,,,,,,,,,20,0,155.765,156.948,m,0,1.17,,[],[],[],[],[],[],[],156.948,158.948,158.948,158.948,[],[],[],[],[],[],[],,158.948,158.948,-0.010881393,-0.396626768,0,0,0,,0,19,19,58,1,4,TL,edivent,print,edivent_p.png,,,,,,
,,,,32187,001,2025-11-16_13h02.06.802,HW_LDT_1,2024.2.4,MacIntel,58.82352941,,,,,,,,,,,,,,,,,,,,158.949,159.148,159.148,159.648,,,,,,,,,,,,,,1.26,1,,,,,,,,,,,,,,z,,,,,,,,,,,,,,,21,1,159.648,160.915,z,1,1.26,,[],[],[],[],[],[],[],160.915,162.915,162.915,163.848,[],[],[],[],[],[],[],z,163.848,163.849,-0.010881393,-0.396626768,0,0,0,,0,20,20,17,1,4,RL,denficy,cursive,denficy_c.png,0.927,,,,,
,,,,32187,001,2025-11-16_13h02.06.802,HW_LDT_1,2024.2.4,MacIntel,58.82352941,,,,,,,,,,,,,,,,,,,,163.849,164.048,164.048,164.548,,,,,,,,,,,,,,0.695,1,,,,,,,,,,,,,,m,,,,,,,,,,,,,,,22,1,164.548,165.251,m,1,0.695,,[],[],[],[],[],[],[],165.251,167.247,167.247,168.318,[],[],[],[],[],[],[],m,168.318,168.318,-0.010881393,-0.396626768,0,0,0,,0,21,21,90,1,4,word,CAPITAL,print,capital_p.png,1.062,,,,,
,,,,32187,001,2025-11-16_13h02.06.802,HW_LDT_1,2024.2.4,MacIntel,58.82352941,,,,,,,,,,,,,,,,,,,,168.319,168.515,168.515,169.015,,,,,,,,,,,,,,0.904,1,,,,,,,,,,,,,,z,,,,,,,,,,,,,,,23,0,169.015,169.931,z,1,0.904,,[],[],[],[],[],[],[],169.931,171.931,171.931,171.932,[],[],[],[],[],[],[],,171.932,171.932,-0.010881393,-0.396626768,0,0,0,,0,22,22,57,1,4,TL,etidor,print,etidor_p.png,,,,,,
,,,,32187,001,2025-11-16_13h02.06.802,HW_LDT_1,2024.2.4,MacIntel,58.82352941,,,,,,,,,,,,,,,,,,,,171.932,172.131,172.131,172.631,,,,,,,,,,,,,,1.304,1,,,,,,,,,,,,,,m,,,,,,,,,,,,,,,24,0,172.631,173.948,m,1,1.304,,[],[],[],[],[],[],[],173.948,175.948,175.948,175.948,[],[],[],[],[],[],[],,175.948,175.949,-0.010881393,-0.396626768,0,0,0,,0,23,23,89,1,4,word,CAPACITY,cursive,capacity_c.png,,,,,,
,,,,32187,001,2025-11-16_13h02.06.802,HW_LDT_1,2024.2.4,MacIntel,58.82352941,,,,,,,,,,,,,,,,,,,,175.95,176.147,176.147,176.648,,,,,,,,,,,,,,0.986,1,,,,,,,,,,,,,,z,,,,,,,,,,,,,,,25,0,176.648,177.647,z,1,0.986,,[],[],[],[],[],[],[],177.647,179.648,179.648,179.648,[],[],[],[],[],[],[],,179.648,179.648,-0.010881393,-0.396626768,0,0,0,,0,24,24,79,1,4,TL,tritube,print,tritube_p.png,,,,,,
,,,,32187,001,2025-11-16_13h02.06.802,HW_LDT_1,2024.2.4,MacIntel,58.82352941,,,,,,,,,,,,,,,,,,,,179.649,179.848,179.848,180.348,,,,,,,,,,,,,,1.136,1,,,,,,,,,,,,,,m,,,,,,,,,,,,,,,26,0,180.348,181.498,m,1,1.136,,[],[],[],[],[],[],[],181.498,183.498,183.498,183.498,[],[],[],[],[],[],[],,183.498,183.498,-0.010881393,-0.396626768,0,0,0,,0,25,25,85,1,4,word,BENEFIT,cursive,benefit_c.png,,,,,,
,,,,32187,001,2025-11-16_13h02.06.802,HW_LDT_1,2024.2.4,MacIntel,58.82352941,,,,,,,,,,,,,,,,,,,,183.499,183.698,183.698,184.198,,,,,,,,,,,,,,0.907,1,,,,,,,,,,,,,,m,,,,,,,,,,,,,,,27,0,184.198,185.115,m,1,0.907,,[],[],[],[],[],[],[],185.115,187.114,187.115,187.115,[],[],[],[],[],[],[],,187.115,187.115,-0.010881393,-0.396626768,0,0,0,,0,26,26,101,1,4,word,DELICATE,cursive,delicate_c.png,,,,,,
,,,,32187,001,2025-11-16_13h02.06.802,HW_LDT_1,2024.2.4,MacIntel,58.82352941,,,,,,,,,,,,,,,,,,,,187.116,187.314,187.314,187.814,,,,,,,,,,,,,,0.828,1,,,,,,,,,,,,,,m,,,,,,,,,,,,,,,28,0,187.815,188.652,m,1,0.828,,[],[],[],[],[],[],[],188.653,190.648,190.648,190.648,[],[],[],[],[],[],[],,190.649,190.649,-0.010881393,-0.396626768,0,0,0,,0,27,27,137,1,4,word,RAPIDLY,cursive,rapidly_c.png,,,,,,
,,,,32187,001,2025-11-16_13h02.06.802,HW_LDT_1,2024.2.4,MacIntel,58.82352941,,,,,,,,,,,,,,,,,,,,190.65,190.847,190.847,191.348,,,,,,,,,,,,,,0.772,0,,,,,,,,,,,,,,z,,,,,,,,,,,,,,,29,0,191.348,192.131,m,0,0.772,,[],[],[],[],[],[],[],192.131,194.131,194.131,194.131,[],[],[],[],[],[],[],,194.131,194.132,-0.010881393,-0.396626768,0,0,0,,0,28,28,70,1,4,TL,quatily,print,quatily_p.png,,,,,,
,,,,32187,001,2025-11-16_13h02.06.802,HW_LDT_1,2024.2.4,MacIntel,58.82352941,,,,,,,,,,,,,,,,,,,,194.132,194.331,194.331,194.831,,,,,,,,,,,,,,0.677,1,,,,,,,,,,,,,,m,,,,,,,,,,,,,,,30,1,194.831,195.518,m,1,0.677,,[],[],[],[],[],[],[],195.518,197.514,197.515,199.048,[],[],[],[],[],[],[],m,199.048,199.048,-0.010881393,-0.396626768,0,0,0,,0,29,29,109,1,4,word,GRATEFUL,print,grateful_p.png,1.52,,,,,
,,,,32187,001,2025-11-16_13h02.06.802,HW_LDT_1,2024.2.4,MacIntel,58.82352941,,,,,,,,,,,,,,,,,,,,199.049,199.248,199.248,199.747,,,,,,,,,,,,,,1.461,1,,,,,,,,,,,,,,z,,,,,,,,,,,,,,,31,0,199.748,201.215,z,1,1.461,,[],[],[],[],[],[],[],201.215,203.215,203.215,203.215,[],[],[],[],[],[],[],,203.215,203.215,-0.010881393,-0.396626768,0,0,0,,0,30,30,30,1,4,RL,nunewical,cursive,nunewical_c.png,,,,,,
,,,,32187,001,2025-11-16_13h02.06.802,HW_LDT_1,2024.2.4,MacIntel,58.82352941,,,,,,,,,,,,,,,,,,,,203.216,203.414,203.415,203.914,,,,,,,,,,,,,,0.628,1,,,,,,,,,,,,,,m,,,,,,,,,,,,,,,32,0,203.915,204.552,m,1,0.628,,[],[],[],[],[],[],[],204.552,206.548,206.548,206.548,[],[],[],[],[],[],[],,206.548,206.549,-0.010881393,-0.396626768,0,0,0,,0,31,31,136,1,4,word,RADICAL,print,radical_p.png,,,,,,
,,,,32187,001,2025-11-16_13h02.06.802,HW_LDT_1,2024.2.4,MacIntel,58.82352941,,,,,,,,,,,,,,,,,,,,206.55,206.748,206.748,207.248,,,,,,,,,,,,,,1.258,1,,,,,,,,,,,,,,z,,,,,,,,,,,,,,,33,0,207.248,208.514,z,1,1.258,,[],[],[],[],[],[],[],208.514,210.514,210.514,210.515,[],[],[],[],[],[],[],,210.515,210.515,-0.010881393,-0.396626768,0,0,0,,0,32,32,3,1,4,RL,bewoted,print,bewoted_p.png,,,,,,
,,,,32187,001,2025-11-16_13h02.06.802,HW_LDT_1,2024.2.4,MacIntel,58.82352941,,,,,,,,,,,,,,,,,,,,210.516,210.714,210.714,211.214,,,,,,,,,,,,,,1.675,1,,,,,,,,,,,,,,m,,,,,,,,,,,,,,,34,0,211.215,212.897,m,1,1.675,,[],[],[],[],[],[],[],212.897,214.898,214.898,214.898,[],[],[],[],[],[],[],,214.898,214.899,-0.010881393,-0.396626768,0,0,0,,0,33,33,124,1,4,word,NUMERICAL,cursive,numerical_c.png,,,,,,
,,,,32187,001,2025-11-16_13h02.06.802,HW_LDT_1,2024.2.4,MacIntel,58.82352941,,,,,,,,,,,,,,,,,,,,214.9,215.098,215.098,215.598,,,,,,,,,,,,,,0.895,1,,,,,,,,,,,,,,z,,,,,,,,,,,,,,,35,0,215.598,216.498,z,1,0.895,,[],[],[],[],[],[],[],216.498,218.498,218.498,218.498,[],[],[],[],[],[],[],,218.498,218.498,-0.010881393,-0.396626768,0,0,0,,0,34,34,50,1,4,RL,vecelan,cursive,vecelan_c.png,,,,,,
,,,,32187,001,2025-11-16_13h02.06.802,HW_LDT_1,2024.2.4,MacIntel,58.82352941,,,,,,,,,,,,,,,,,,,,218.499,218.698,218.698,219.197,,,,,,,,,,,,,,1.603,1,,,,,,,,,,,,,,z,,,,,,,,,,,,,,,36,0,219.198,220.814,z,1,1.603,,[],[],[],[],[],[],[],220.814,222.814,222.815,222.815,[],[],[],[],[],[],[],,222.815,222.815,-0.010881393,-0.396626768,0,0,0,,0,35,35,33,1,4,RL,pamest,cursive,pamest_c.png,,,,,,
,,,,32187,001,2025-11-16_13h02.06.802,HW_LDT_1,2024.2.4,MacIntel,58.82352941,,,,,,,,,,,,,,,,,,,,222.816,223.014,223.014,223.514,,,,,,,,,,,,,,0.703,0,,,,,,,,,,,,,,z,,,,,,,,,,,,,,,37,0,223.515,224.231,m,0,0.703,,[],[],[],[],[],[],[],224.231,226.231,226.231,226.231,[],[],[],[],[],[],[],,226.231,226.231,-0.010881393,-0.396626768,0,0,0,,0,36,36,73,1,4,TL,regilion,print,regilion_p.png,,,,,,
,,,,32187,001,2025-11-16_13h02.06.802,HW_LDT_1,2024.2.4,MacIntel,58.82352941,,,,,,,,,,,,,,,,,,,,226.232,226.431,226.431,226.931,,,,,,,,,,,,,,0.772,1,,,,,,,,,,,,,,m,,,,,,,,,,,,,,,38,0,226.931,227.715,m,1,0.772,,[],[],[],[],[],[],[],227.715,229.714,229.714,229.715,[],[],[],[],[],[],[],,229.715,229.715,-0.010881393,-0.396626768,0,0,0,,0,37,37,84,1,4,word,BELOVED,print,beloved_p.png,,,,,,
,,,,32187,001,2025-11-16_13h02.06.802,HW_LDT_1,2024.2.4,MacIntel,58.82352941,,,,,,,,,,,,,,,,,,,,229.716,229.914,229.914,230.414,,,,,,,,,,,,,,1.436,1,,,,,,,,,,,,,,m,,,,,,,,,,,,,,,39,0,230.415,231.864,m,1,1.436,,[],[],[],[],[],[],[],231.864,233.864,233.864,233.864,[],[],[],[],[],[],[],,233.864,233.864,-0.010881393,-0.396626768,0,0,0,,0,38,38,156,1,4,word,TRIBUTE,print,tribute_p.png,,,,,,
,,,,32187,001,2025-11-16_13h02.06.802,HW_LDT_1,2024.2.4,MacIntel,58.82352941,,,,,,,,,,,,,,,,,,,,233.865,234.063,234.063,234.564,,,,,,,,,,,,,,2.77,0,,,,,,,,,,,,,,z,,,,,,,,,,,,,,,40,1,234.564,237.348,m,0,2.77,,[],[],[],[],[],[],[],237.348,239.348,239.348,240.348,[],[],[],[],[],[],[],z,240.348,240.348,-0.010881393,-0.396626768,0,0,0,,0,39,39,37,1,4,RL,renutal,cursive,renutal_c.png,0.987,,,,,
,,,,32187,001,2025-11-16_13h02.06.802,HW_LDT_1,2024.2.4,MacIntel,58.82352941,,,,,,,,,,,,,,,,,,,,240.349,240.548,240.548,241.047,,,,,,,,,,,,,,0.942,1,,,,,,,,,,,,,,z,,,,,,,,,,,,,,,41,0,241.047,241.998,z,1,0.942,,[],[],[],[],[],[],[],241.998,243.997,243.998,243.998,[],[],[],[],[],[],[],,243.998,243.998,-0.010881393,-0.396626768,0,0,0,,0,40,40,11,1,4,RL,clisimal,print,clisimal_p.png,,,,,,
,,,,32187,001,2025-11-16_13h02.06.802,HW_LDT_1,2024.2.4,MacIntel,58.82352941,,,,,,,,,,,,,,,,,,,,243.999,244.198,244.198,244.697,,,,,,,,,,,,,,1.587,1,,,,,,,,,,,,,,z,,,,,,,,,,,,,,,42,0,244.697,246.298,z,1,1.587,,[],[],[],[],[],[],[],246.298,248.298,248.298,248.298,[],[],[],[],[],[],[],,248.298,248.298,-0.010881393,-0.396626768,0,0,0,,0,41,41,46,1,4,RL,skofen,cursive,skofen_c.png,,,,,,
,,,,32187,001,2025-11-16_13h02.06.802,HW_LDT_1,2024.2.4,MacIntel,58.82352941,,,,,,,,,,,,,,,,,,,,248.299,248.498,248.498,248.998,,,,,,,,,,,,,,1.342,1,,,,,,,,,,,,,,m,,,,,,,,,,,,,,,43,0,248.998,250.348,m,1,1.342,,[],[],[],[],[],[],[],250.348,252.347,252.347,252.348,[],[],[],[],[],[],[],,252.348,252.348,-0.010881393,-0.396626768,0,0,0,,0,42,42,106,1,4,word,ELABORATE,cursive,elaborate_c.png,,,,,,
,,,,32187,001,2025-11-16_13h02.06.802,HW_LDT_1,2024.2.4,MacIntel,58.82352941,,,,,,,,,,,,,,,,,,,,252.348,252.548,252.548,253.047,,,,,,,,,,,,,,0.73,1,,,,,,,,,,,,,,z,,,,,,,,,,,,,,,44,0,253.048,253.781,z,1,0.73,,[],[],[],[],[],[],[],253.781,255.781,255.781,255.781,[],[],[],[],[],[],[],,255.781,255.781,-0.010881393,-0.396626768,0,0,0,,0,43,43,9,1,4,RL,cafigal,print,cafigal_p.png,,,,,,
,,,,32187,001,2025-11-16_13h02.06.802,HW_LDT_1,2024.2.4,MacIntel,58.82352941,,,,,,,,,,,,,,,,,,,,255.782,255.981,255.981,256.481,,,,,,,,,,,,,,0.508,1,,,,,,,,,,,,,,m,,,,,,,,,,,,,,,45,0,256.481,256.997,m,1,0.508,,[],[],[],[],[],[],[],256.998,258.998,258.998,258.998,[],[],[],[],[],[],[],,258.998,258.998,-0.010881393,-0.396626768,0,0,0,,0,44,44,147,1,4,word,ROMANTIC,print,romantic_p.png,,,,,,
,,,,32187,001,2025-11-16_13h02.06.802,HW_LDT_1,2024.2.4,MacIntel,58.82352941,,,,,,,,,,,,,,,,,,,,258.999,259.197,259.197,259.697,,,,,,,,,,,,,,0.678,1,,,,,,,,,,,,,,m,,,,,,,,,,,,,,,46,1,259.698,260.385,m,1,0.678,,[],[],[],[],[],[],[],260.385,262.38,262.38,263.431,[],[],[],[],[],[],[],m,263.431,263.431,-0.010881393,-0.396626768,0,0,0,,0,45,45,96,1,4,word,CONSIDER,cursive,consider_c.png,1.042,,,,,
,,,,32187,001,2025-11-16_13h02.06.802,HW_LDT_1,2024.2.4,MacIntel,58.82352941,,,,,,,,,,,,,,,,,,,,263.432,263.631,263.631,264.131,,,,,,,,,,,,,,0.87,1,,,,,,,,,,,,,,m,,,,,,,,,,,,,,,47,1,264.131,265.014,m,1,0.87,,[],[],[],[],[],[],[],265.014,267.014,267.014,267.881,[],[],[],[],[],[],[],z,267.881,267.881,-0.010881393,-0.396626768,0,0,0,,0,46,46,116,1,4,word,MARGINAL,cursive,marginal_c.png,0.86,,,,,
,,,,32187,001,2025-11-16_13h02.06.802,HW_LDT_1,2024.2.4,MacIntel,58.82352941,,,,,,,,,,,,,,,,,,,,267.882,268.081,268.081,268.58,,,,,,,,,,,,,,1.275,1,,,,,,,,,,,,,,z,,,,,,,,,,,,,,,48,0,268.58,269.864,z,1,1.275,,[],[],[],[],[],[],[],269.864,271.864,271.864,271.865,[],[],[],[],[],[],[],,271.865,271.865,-0.010881393,-0.396626768,0,0,0,,0,47,47,20,1,4,RL,gralekul,print,gralekul_p.png,,,,,,
,,,,32187,001,2025-11-16_13h02.06.802,HW_LDT_1,2024.2.4,MacIntel,58.82352941,,,,,,,,,,,,,,,,,,,,271.865,272.064,272.064,272.564,,,,,,,,,,,,,,0.804,1,,,,,,,,,,,,,,m,,,,,,,,,,,,,,,49,0,272.565,273.381,m,1,0.804,,[],[],[],[],[],[],[],273.381,275.381,275.381,275.381,[],[],[],[],[],[],[],,275.381,275.381,-0.010881393,-0.396626768,0,0,0,,0,48,48,139,1,4,word,REGULAR,cursive,regular_c.png,,,,,,
,,,,32187,001,2025-11-16_13h02.06.802,HW_LDT_1,2024.2.4,MacIntel,58.82352941,,,,,,,,,,,,,,,,,,,,275.382,275.581,275.581,276.081,,,,,,,,,,,,,,0.553,1,,,,,,,,,,,,,,m,,,,,,,,,,,,,,,50,0,276.081,276.647,m,1,0.553,,[],[],[],[],[],[],[],276.648,278.647,278.648,278.648,[],[],[],[],[],[],[],,278.648,278.648,-0.010881393,-0.396626768,0,0,0,,0,49,49,105,1,4,word,EDITOR,print,editor_p.png,,,,,,
,,,,32187,001,2025-11-16_13h02.06.802,HW_LDT_1,2024.2.4,MacIntel,58.82352941,,,,,,,,,,,,,,,,,,,,278.649,278.848,278.848,279.348,,,,,,,,,,,,,,2.046,1,,,,,,,,,,,,,,z,,,,,,,,,,,,,,,51,1,279.348,281.397,z,1,2.046,,[],[],[],[],[],[],[],281.397,283.397,283.397,284.164,[],[],[],[],[],[],[],z,284.164,284.164,-0.010881393,-0.396626768,0,0,0,,0,50,50,19,1,4,RL,elacodate,cursive,elacodate_c.png,0.756,,,,,
,,,,32187,001,2025-11-16_13h02.06.802,HW_LDT_1,2024.2.4,MacIntel,58.82352941,,,,,,,,,,,,,,,,,,,,284.165,284.364,284.364,284.864,,,,,,,,,,,,,,1.037,1,,,,,,,,,,,,,,z,,,,,,,,,,,,,,,52,1,284.864,285.914,z,1,1.037,,[],[],[],[],[],[],[],285.914,287.914,287.914,288.797,[],[],[],[],[],[],[],m,288.798,288.798,-0.010881393,-0.396626768,0,0,0,,0,51,51,29,1,4,RL,motide,print,motide_p.png,0.87,,,,,
,,,,32187,001,2025-11-16_13h02.06.802,HW_LDT_1,2024.2.4,MacIntel,58.82352941,,,,,,,,,,,,,,,,,,,,288.799,288.998,288.998,289.497,,,,,,,,,,,,,,0.889,1,,,,,,,,,,,,,,m,,,,,,,,,,,,,,,53,0,289.497,290.397,m,1,0.889,,[],[],[],[],[],[],[],290.398,292.396,292.397,292.397,[],[],[],[],[],[],[],,292.397,292.397,-0.010881393,-0.396626768,0,0,0,,0,52,52,158,1,4,word,VELOCITY,cursive,velocity_c.png,,,,,,
,,,,32187,001,2025-11-16_13h02.06.802,HW_LDT_1,2024.2.4,MacIntel,58.82352941,,,,,,,,,,,,,,,,,,,,292.398,292.598,292.598,293.097,,,,,,,,,,,,,,0.67,1,,,,,,,,,,,,,,z,,,,,,,,,,,,,,,54,0,293.098,293.781,z,1,0.67,,[],[],[],[],[],[],[],293.781,295.781,295.781,295.781,[],[],[],[],[],[],[],,295.781,295.781,-0.010881393,-0.396626768,0,0,0,,0,53,53,42,1,4,RL,revune,print,revune_p.png,,,,,,
,,,,32187,001,2025-11-16_13h02.06.802,HW_LDT_1,2024.2.4,MacIntel,58.82352941,,,,,,,,,,,,,,,,,,,,295.782,295.981,295.981,296.481,,,,,,,,,,,,,,1.37,1,,,,,,,,,,,,,,z,,,,,,,,,,,,,,,55,0,296.481,297.864,z,1,1.37,,[],[],[],[],[],[],[],297.864,299.864,299.864,299.864,[],[],[],[],[],[],[],,299.864,299.864,-0.010881393,-0.396626768,0,0,0,,0,54,54,8,1,4,RL,casagity,cursive,casagity_c.png,,,,,,
,,,,32187,001,2025-11-16_13h02.06.802,HW_LDT_1,2024.2.4,MacIntel,58.82352941,,,,,,,,,,,,,,,,,,,,299.865,300.064,300.064,300.564,,,,,,,,,,,,,,0.996,1,,,,,,,,,,,,,,z,,,,,,,,,,,,,,,56,0,300.564,301.564,z,1,0.996,,[],[],[],[],[],[],[],301.564,303.564,303.564,303.564,[],[],[],[],[],[],[],,303.564,303.564,-0.010881393,-0.396626768,0,0,0,,0,55,55,26,1,4,RL,mesibine,cursive,mesibine_c.png,,,,,,
,,,,32187,001,2025-11-16_13h02.06.802,HW_LDT_1,2024.2.4,MacIntel,58.82352941,,,,,,,,,,,,,,,,,,,,303.565,303.764,303.764,304.264,,,,,,,,,,,,,,1.041,1,,,,,,,,,,,,,,z,,,,,,,,,,,,,,,57,0,304.264,305.314,z,1,1.041,,[],[],[],[],[],[],[],305.314,307.314,307.314,307.315,[],[],[],[],[],[],[],,307.315,307.315,-0.010881393,-0.396626768,0,0,0,,0,56,56,25,1,4,RL,macise,print,macise_p.png,,,,,,
,,,,32187,001,2025-11-16_13h02.06.802,HW_LDT_1,2024.2.4,MacIntel,58.82352941,,,,,,,,,,,,,,,,,,,,307.315,307.514,307.514,308.014,,,,,,,,,,,,,,1.303,1,,,,,,,,,,,,,,m,,,,,,,,,,,,,,,58,0,308.015,309.331,m,1,1.303,,[],[],[],[],[],[],[],309.331,311.331,311.331,311.331,[],[],[],[],[],[],[],,311.331,311.331,-0.010881393,-0.396626768,0,0,0,,0,57,57,132,1,4,word,PROPOSAL,print,proposal_p.png,,,,,,
,,,,32187,001,2025-11-16_13h02.06.802,HW_LDT_1,2024.2.4,MacIntel,58.82352941,,,,,,,,,,,,,,,,,,,,311.332,311.53,311.53,312.031,,,,,,,,,,,,,,0.807,1,,,,,,,,,,,,,,z,,,,,,,,,,,,,,,59,1,312.031,312.847,z,1,0.807,,[],[],[],[],[],[],[],312.848,314.847,314.847,315.547,[],[],[],[],[],[],[],m,315.548,315.548,-0.010881393,-0.396626768,0,0,0,,0,58,58,54,1,4,TL,codemy,print,codemy_p.png,0.693,,,,,
,,,,32187,001,2025-11-16_13h02.06.802,HW_LDT_1,2024.2.4,MacIntel,58.82352941,,,,,,,,,,,,,,,,,,,,315.548,315.748,315.748,316.247,,,,,,,,,,,,,,1.51,1,,,,,,,,,,,,,,z,,,,,,,,,,,,,,,60,0,316.247,317.764,z,1,1.51,,[],[],[],[],[],[],[],317.764,319.764,319.764,319.764,[],[],[],[],[],[],[],,319.764,319.764,-0.010881393,-0.396626768,0,0,0,,0,59,59,1,1,4,RL,afaneur,cursive,afaneur_c.png,,,,,,
,,,,32187,001,2025-11-16_13h02.06.802,HW_LDT_1,2024.2.4,MacIntel,58.82352941,,,,,,,,,,,,,,,,,,,,319.765,319.964,319.964,320.464,,,,,,,,,,,,,,0.936,1,,,,,,,,,,,,,,m,,,,,,,,,,,,,,,61,0,320.465,321.414,m,1,0.936,,[],[],[],[],[],[],[],321.414,323.414,323.414,323.414,[],[],[],[],[],[],[],,323.414,323.414,-0.010881393,-0.396626768,0,0,0,,0,60,60,152,1,4,word,SPECIMEN,cursive,specimen_c.png,,,,,,
,,,,32187,001,2025-11-16_13h02.06.802,HW_LDT_1,2024.2.4,MacIntel,58.82352941,,,,,,,,,,,,,,,,,,,,323.415,323.614,323.614,324.114,,,,,,,,,,,,,,1.294,1,,,,,,,,,,,,,,m,,,,,,,,,,,,,,,62,0,324.114,325.418,m,1,1.294,,[],[],[],[],[],[],[],325.418,327.414,327.414,327.414,[],[],[],[],[],[],[],,327.414,327.414,-0.010881393,-0.396626768,0,0,0,,0,61,61,159,1,4,word,VETERAN,cursive,veteran_c.png,,,,,,
,,,,32187,001,2025-11-16_13h02.06.802,HW_LDT_1,2024.2.4,MacIntel,58.82352941,,,,,,,,,,,,,,,,,,,,327.415,327.614,327.614,328.114,,,,,,,,,,,,,,0.755,1,,,,,,,,,,,,,,m,,,,,,,,,,,,,,,63,0,328.114,328.881,m,1,0.755,,[],[],[],[],[],[],[],328.881,330.881,330.881,330.881,[],[],[],[],[],[],[],,330.881,330.881,-0.010881393,-0.396626768,0,0,0,,0,62,62,91,1,4,word,CARDINAL,cursive,cardinal_c.png,,,,,,
,,,,32187,001,2025-11-16_13h02.06.802,HW_LDT_1,2024.2.4,MacIntel,58.82352941,,,,,,,,,,,,,,,,,,,,330.882,331.081,331.081,331.58,,,,,,,,,,,,,,1.142,1,,,,,,,,,,,,,,z,,,,,,,,,,,,,,,64,0,331.581,332.731,z,1,1.142,,[],[],[],[],[],[],[],332.731,334.731,334.731,334.731,[],[],[],[],[],[],[],,334.731,334.731,-0.010881393,-0.396626768,0,0,0,,0,63,63,49,1,4,RL,vesofity,cursive,vesofity_c.png,,,,,,
,,,,32187,001,2025-11-16_13h02.06.802,HW_LDT_1,2024.2.4,MacIntel,58.82352941,,,,,,,,,,,,,,,,,,,,334.732,334.931,334.931,335.43,,,,,,,,,,,,,,1.654,1,,,,,,,,,,,,,,z,,,,,,,,,,,,,,,65,0,335.431,337.098,z,1,1.654,,[],[],[],[],[],[],[],337.098,339.097,339.098,339.098,[],[],[],[],[],[],[],,339.098,339.098,-0.010881393,-0.396626768,0,0,0,,0,64,64,71,1,4,TL,racidal,print,racidal_p.png,,,,,,
,,,,32187,001,2025-11-16_13h02.06.802,HW_LDT_1,2024.2.4,MacIntel,58.82352941,,,,,,,,,,,,,,,,,,,,339.099,339.297,339.297,339.798,,,,,,,,,,,,,,0.86,1,,,,,,,,,,,,,,m,,,,,,,,,,,,,,,66,0,339.798,340.667,m,1,0.86,,[],[],[],[],[],[],[],340.668,342.664,342.664,342.664,[],[],[],[],[],[],[],,342.665,342.665,-0.010881393,-0.396626768,0,0,0,,0,65,65,148,1,4,word,SALINE,print,saline_p.png,,,,,,
,,,,32187,001,2025-11-16_13h02.06.802,HW_LDT_1,2024.2.4,MacIntel,58.82352941,,,,,,,,,,,,,,,,,,,,342.666,342.864,342.864,343.364,,,,,,,,,,,,,,0.74,1,,,,,,,,,,,,,,m,,,,,,,,,,,,,,,67,0,343.364,344.114,m,1,0.74,,[],[],[],[],[],[],[],344.114,346.114,346.114,346.114,[],[],[],[],[],[],[],,346.114,346.114,-0.010881393,-0.396626768,0,0,0,,0,66,66,110,1,4,word,HERITAGE,print,heritage_p.png,,,,,,
,,,,32187,001,2025-11-16_13h02.06.802,HW_LDT_1,2024.2.4,MacIntel,58.82352941,,,,,,,,,,,,,,,,,,,,346.115,346.314,346.314,346.814,,,,,,,,,,,,,,0.773,1,,,,,,,,,,,,,,m,,,,,,,,,,,,,,,68,0,346.814,347.598,m,1,0.773,,[],[],[],[],[],[],[],347.598,349.596,349.596,349.597,[],[],[],[],[],[],[],,349.597,349.597,-0.010881393,-0.396626768,0,0,0,,0,67,67,118,1,4,word,MEDICINE,cursive,medicine_c.png,,,,,,
,,,,32187,001,2025-11-16_13h02.06.802,HW_LDT_1,2024.2.4,MacIntel,58.82352941,,,,,,,,,,,,,,,,,,,,349.598,349.797,349.797,350.297,,,,,,,,,,,,,,1.621,1,,,,,,,,,,,,,,z,,,,,,,,,,,,,,,69,0,350.298,351.931,z,1,1.621,,[],[],[],[],[],[],[],351.931,353.93,353.93,353.931,[],[],[],[],[],[],[],,353.931,353.931,-0.010881393,-0.396626768,0,0,0,,0,68,68,12,1,4,RL,conbicer,cursive,conbicer_c.png,,,,,,
,,,,32187,001,2025-11-16_13h02.06.802,HW_LDT_1,2024.2.4,MacIntel,58.82352941,,,,,,,,,,,,,,,,,,,,353.932,354.131,354.131,354.63,,,,,,,,,,,,,,0.771,0,,,,,,,,,,,,,,z,,,,,,,,,,,,,,,70,0,354.631,355.414,m,0,0.771,,[],[],[],[],[],[],[],355.414,357.414,357.414,357.414,[],[],[],[],[],[],[],,357.414,357.414,-0.010881393,-0.396626768,0,0,0,,0,69,69,66,1,4,TL,opmital,print,opmital_p.png,,,,,,
,,,,32187,001,2025-11-16_13h02.06.802,HW_LDT_1,2024.2.4,MacIntel,58.82352941,,,,,,,,,,,,,,,,,,,,357.415,357.614,357.614,358.114,,,,,,,,,,,,,,1.176,1,,,,,,,,,,,,,,z,,,,,,,,,,,,,,,71,0,358.114,359.297,z,1,1.176,,[],[],[],[],[],[],[],359.297,361.297,361.297,361.298,[],[],[],[],[],[],[],,361.298,361.298,-0.010881393,-0.396626768,0,0,0,,0,70,70,68,1,4,TL,prosopal,print,prosopal_p.png,,,,,,
,,,,32187,001,2025-11-16_13h02.06.802,HW_LDT_1,2024.2.4,MacIntel,58.82352941,,,,,,,,,,,,,,,,,,,,361.298,361.497,361.497,361.997,,,,,,,,,,,,,,0.703,1,,,,,,,,,,,,,,z,,,,,,,,,,,,,,,72,0,361.997,362.714,z,1,0.703,,[],[],[],[],[],[],[],362.714,364.713,364.713,364.713,[],[],[],[],[],[],[],,364.713,364.713,-0.010881393,-0.396626768,0,0,0,,0,71,71,48,1,4,RL,vabifity,print,vabifity_p.png,,,,,,
,,,,32187,001,2025-11-16_13h02.06.802,HW_LDT_1,2024.2.4,MacIntel,58.82352941,,,,,,,,,,,,,,,,,,,,364.715,364.914,364.914,365.414,,,,,,,,,,,,,,0.921,1,,,,,,,,,,,,,,m,,,,,,,,,,,,,,,73,0,365.414,366.347,m,1,0.921,,[],[],[],[],[],[],[],366.348,368.347,368.347,368.348,[],[],[],[],[],[],[],,368.348,368.348,-0.010881393,-0.396626768,0,0,0,,0,72,72,150,1,4,word,SENTIMENT,print,sentiment_p.png,,,,,,
,,,,32187,001,2025-11-16_13h02.06.802,HW_LDT_1,2024.2.4,MacIntel,58.82352941,,,,,,,,,,,,,,,,,,,,368.348,368.547,368.547,369.047,,,,,,,,,,,,,,1.355,1,,,,,,,,,,,,,,z,,,,,,,,,,,,,,,74,1,369.047,370.414,z,1,1.355,,[],[],[],[],[],[],[],370.414,372.414,372.414,373.547,[],[],[],[],[],[],[],m,373.548,373.548,-0.010881393,-0.396626768,0,0,0,,0,73,73,74,1,4,TL,rerite,print,rerite_p.png,1.121,,,,,
,,,,32187,001,2025-11-16_13h02.06.802,HW_LDT_1,2024.2.4,MacIntel,58.82352941,,,,,,,,,,,,,,,,,,,,373.548,373.747,373.747,374.247,,,,,,,,,,,,,,2.162,1,,,,,,,,,,,,,,z,,,,,,,,,,,,,,,75,0,374.247,376.414,z,1,2.162,,[],[],[],[],[],[],[],376.414,378.414,378.414,378.414,[],[],[],[],[],[],[],,378.414,378.415,-0.010881393,-0.396626768,0,0,0,,0,74,74,15,1,4,RL,debave,cursive,debave_c.png,,,,,,
,,,,32187,001,2025-11-16_13h02.06.802,HW_LDT_1,2024.2.4,MacIntel,58.82352941,,,,,,,,,,,,,,,,,,,,378.415,378.614,378.614,379.113,,,,,,,,,,,,,,2.339,1,,,,,,,,,,,,,,m,,,,,,,,,,,,,,,76,1,379.113,381.464,m,1,2.339,,[],[],[],[],[],[],[],381.464,383.464,383.464,384.414,[],[],[],[],[],[],[],z,384.414,384.414,-0.010881393,-0.396626768,0,0,0,,0,75,75,82,1,4,word,AMATEUR,cursive,amateur_c.png,0.946,,,,,
,,,,32187,001,2025-11-16_13h02.06.802,HW_LDT_1,2024.2.4,MacIntel,58.82352941,,,,,,,,,,,,,,,,,,,,384.415,384.614,384.614,385.114,,,,,,,,,,,,,,2.254,1,,,,,,,,,,,,,,z,,,,,,,,,,,,,,,77,0,385.114,387.38,z,1,2.254,,[],[],[],[],[],[],[],387.381,389.379,389.38,389.38,[],[],[],[],[],[],[],,389.38,389.38,-0.010881393,-0.396626768,0,0,0,,0,76,76,39,1,4,RL,relone,cursive,relone_c.png,,,,,,
,,,,32187,001,2025-11-16_13h02.06.802,HW_LDT_1,2024.2.4,MacIntel,58.82352941,,,,,,,,,,,,,,,,,,,,389.381,389.58,389.581,390.08,,,,,,,,,,,,,,2.021,1,,,,,,,,,,,,,,z,,,,,,,,,,,,,,,78,0,390.081,392.113,z,1,2.021,,[],[],[],[],[],[],[],392.114,394.114,394.114,394.114,[],[],[],[],[],[],[],,394.114,394.115,-0.010881393,-0.396626768,0,0,0,,0,77,77,51,1,4,TL,adsivory,cursive,adsivory_c.png,,,,,,
,,,,32187,001,2025-11-16_13h02.06.802,HW_LDT_1,2024.2.4,MacIntel,58.82352941,,,,,,,,,,,,,,,,,,,,394.115,394.314,394.314,394.814,,,,,,,,,,,,,,1.053,0,,,,,,,,,,,,,,m,,,,,,,,,,,,,,,79,0,394.814,395.881,z,0,1.053,,[],[],[],[],[],[],[],395.881,397.88,397.881,397.881,[],[],[],[],[],[],[],,397.881,397.881,-0.010881393,-0.396626768,0,0,0,,0,78,78,99,1,4,word,DEBATE,cursive,debate_c.png,,,,,,
,,,,32187,001,2025-11-16_13h02.06.802,HW_LDT_1,2024.2.4,MacIntel,58.82352941,,,,,,,,,,,,,,,,,,,,397.881,398.081,398.081,398.581,,,,,,,,,,,,,,0.991,1,,,,,,,,,,,,,,z,,,,,,,,,,,,,,,80,0,398.581,399.58,z,1,0.991,,[],[],[],[],[],[],[],399.581,401.58,401.58,401.581,[],[],[],[],[],[],[],,401.581,409.064,-0.010881393,-0.396626768,0,0,0,space,0,79,79,53,1,4,TL,cemerony,print,cemerony_p.png,,,7.453,,,
,,,,32187,001,2025-11-16_13h02.06.802,HW_LDT_1,2024.2.4,MacIntel,58.82352941,,,,,,,,,,,,,,,,,,,,409.065,409.264,409.264,409.764,,,,,,,,,,,,,,1.22,1,,,,,,,,,,,,,,m,,,,,,,,,,,,,,,81,0,409.764,410.997,m,1,1.22,,[],[],[],[],[],[],[],410.997,412.998,412.998,412.998,[],[],[],[],[],[],[],,412.998,412.998,-0.010881393,-0.396626768,0,0,0,,0,80,80,154,1,4,word,STORAGE,print,storage_p.png,,,,,,
,,,,32187,001,2025-11-16_13h02.06.802,HW_LDT_1,2024.2.4,MacIntel,58.82352941,,,,,,,,,,,,,,,,,,,,412.999,413.197,413.197,413.697,,,,,,,,,,,,,,1.603,0,,,,,,,,,,,,,,m,,,,,,,,,,,,,,,82,0,413.697,415.314,z,0,1.603,,[],[],[],[],[],[],[],415.314,417.314,417.314,417.314,[],[],[],[],[],[],[],,417.314,417.314,-0.010881393,-0.382480958,0,0,0,,0,81,81,114,1,4,word,LOCATE,cursive,locate_c.png,,,,,,
,,,,32187,001,2025-11-16_13h02.06.802,HW_LDT_1,2024.2.4,MacIntel,58.82352941,,,,,,,,,,,,,,,,,,,,417.315,417.514,417.514,418.014,,,,,,,,,,,,,,1.511,1,,,,,,,,,,,,,,z,,,,,,,,,,,,,,,83,0,418.014,419.53,z,1,1.511,,[],[],[],[],[],[],[],419.53,421.53,421.53,421.531,[],[],[],[],[],[],[],,421.531,421.531,-0.010881393,-0.382480958,0,0,0,,0,82,82,23,1,4,RL,linefal,cursive,linefal_c.png,,,,,,
,,,,32187,001,2025-11-16_13h02.06.802,HW_LDT_1,2024.2.4,MacIntel,58.82352941,,,,,,,,,,,,,,,,,,,,421.532,421.73,421.73,422.23,,,,,,,,,,,,,,0.894,1,,,,,,,,,,,,,,z,,,,,,,,,,,,,,,84,0,422.231,423.131,z,1,0.894,,[],[],[],[],[],[],[],423.131,425.13,425.13,425.131,[],[],[],[],[],[],[],,425.131,425.131,-0.010881393,-0.382480958,0,0,0,,0,83,83,4,1,4,RL,betemit,cursive,betemit_c.png,,,,,,
,,,,32187,001,2025-11-16_13h02.06.802,HW_LDT_1,2024.2.4,MacIntel,58.82352941,,,,,,,,,,,,,,,,,,,,425.132,425.33,425.33,425.83,,,,,,,,,,,,,,1.287,1,,,,,,,,,,,,,,m,,,,,,,,,,,,,,,85,1,425.831,427.131,m,1,1.287,,[],[],[],[],[],[],[],427.131,429.13,429.131,431.264,[],[],[],[],[],[],[],m,431.264,431.264,-0.010881393,-0.382480958,0,0,0,,0,84,84,145,1,4,word,RESUME,print,resume_p.png,2.121,,,,,
,,,,32187,001,2025-11-16_13h02.06.802,HW_LDT_1,2024.2.4,MacIntel,58.82352941,,,,,,,,,,,,,,,,,,,,431.265,431.464,431.464,431.964,,,,,,,,,,,,,,0.773,1,,,,,,,,,,,,,,z,,,,,,,,,,,,,,,86,1,431.964,432.747,z,1,0.773,,[],[],[],[],[],[],[],432.747,434.747,434.747,439.897,[],[],[],[],[],[],[],z,439.897,439.897,-0.010881393,-0.382480958,0,0,0,,0,85,85,31,1,4,RL,orimipal,print,orimipal_p.png,5.139,,,,,
,,,,32187,001,2025-11-16_13h02.06.802,HW_LDT_1,2024.2.4,MacIntel,58.82352941,,,,,,,,,,,,,,,,,,,,439.898,440.097,440.097,440.597,,,,,,,,,,,,,,1.003,1,,,,,,,,,,,,,,z,,,,,,,,,,,,,,,87,0,440.597,441.613,z,1,1.003,,[],[],[],[],[],[],[],441.613,443.613,443.614,443.614,[],[],[],[],[],[],[],,443.614,443.614,-0.010881393,-0.382480958,0,0,0,,0,86,86,69,1,4,TL,quafily,print,quafily_p.png,,,,,,
,,,,32187,001,2025-11-16_13h02.06.802,HW_LDT_1,2024.2.4,MacIntel,58.82352941,,,,,,,,,,,,,,,,,,,,443.615,443.814,443.814,444.314,,,,,,,,,,,,,,0.843,1,,,,,,,,,,,,,,z,,,,,,,,,,,,,,,88,0,444.314,445.164,z,1,0.843,,[],[],[],[],[],[],[],445.164,447.164,447.164,447.164,[],[],[],[],[],[],[],,447.164,447.164,-0.010881393,-0.382480958,0,0,0,,0,87,87,41,1,4,RL,rebicent,cursive,rebicent_c.png,,,,,,
,,,,32187,001,2025-11-16_13h02.06.802,HW_LDT_1,2024.2.4,MacIntel,58.82352941,,,,,,,,,,,,,,,,,,,,447.165,447.364,447.364,447.864,,,,,,,,,,,,,,2.796,1,,,,,,,,,,,,,,z,,,,,,,,,,,,,,,89,0,447.864,450.664,z,1,2.796,,[],[],[],[],[],[],[],450.664,452.664,452.664,452.664,[],[],[],[],[],[],[],,452.664,452.664,-0.010881393,-0.382480958,0,0,0,,0,88,88,55,1,4,TL,corevage,cursive,corevage_c.png,,,,,,
,,,,32187,001,2025-11-16_13h02.06.802,HW_LDT_1,2024.2.4,MacIntel,58.82352941,,,,,,,,,,,,,,,,,,,,452.665,452.864,452.864,453.363,,,,,,,,,,,,,,1.386,1,,,,,,,,,,,,,,m,,,,,,,,,,,,,,,90,0,453.363,454.763,m,1,1.386,,[],[],[],[],[],[],[],454.764,456.764,456.764,456.764,[],[],[],[],[],[],[],,456.764,456.764,-0.010881393,-0.382480958,0,0,0,,0,89,89,112,1,4,word,LIBERAL,cursive,liberal_c.png,,,,,,
,,,,32187,001,2025-11-16_13h02.06.802,HW_LDT_1,2024.2.4,MacIntel,58.82352941,,,,,,,,,,,,,,,,,,,,456.765,456.964,456.964,457.464,,,,,,,,,,,,,,0.654,1,,,,,,,,,,,,,,z,,,,,,,,,,,,,,,91,0,457.464,458.131,z,1,0.654,,[],[],[],[],[],[],[],458.131,460.13,460.131,460.131,[],[],[],[],[],[],[],,460.131,460.131,-0.010881393,-0.382480958,0,0,0,,0,90,90,5,1,4,RL,bebine,print,bebine_p.png,,,,,,
,,,,32187,001,2025-11-16_13h02.06.802,HW_LDT_1,2024.2.4,MacIntel,58.82352941,,,,,,,,,,,,,,,,,,,,460.131,460.33,460.33,460.83,,,,,,,,,,,,,,0.736,1,,,,,,,,,,,,,,m,,,,,,,,,,,,,,,92,0,460.831,461.58,m,1,0.736,,[],[],[],[],[],[],[],461.581,463.581,463.581,463.581,[],[],[],[],[],[],[],,463.581,463.581,-0.010881393,-0.382480958,0,0,0,,0,91,91,142,1,4,word,REMOTE,cursive,remote_c.png,,,,,,
,,,,32187,001,2025-11-16_13h02.06.802,HW_LDT_1,2024.2.4,MacIntel,58.82352941,,,,,,,,,,,,,,,,,,,,463.582,463.78,463.78,464.281,,,,,,,,,,,,,,0.619,1,,,,,,,,,,,,,,z,,,,,,,,,,,,,,,93,0,464.281,464.914,z,1,0.619,,[],[],[],[],[],[],[],464.914,466.914,466.914,466.914,[],[],[],[],[],[],[],,466.914,466.914,-0.010881393,-0.382480958,0,0,0,,0,92,92,18,1,4,RL,disluge,print,disluge_p.png,,,,,,
,,,,32187,001,2025-11-16_13h02.06.802,HW_LDT_1,2024.2.4,MacIntel,58.82352941,,,,,,,,,,,,,,,,,,,,466.915,467.113,467.113,467.614,,,,,,,,,,,,,,0.84,1,,,,,,,,,,,,,,z,,,,,,,,,,,,,,,94,0,467.614,468.464,z,1,0.84,,[],[],[],[],[],[],[],468.464,470.464,470.464,470.464,[],[],[],[],[],[],[],,470.464,470.464,-0.010881393,-0.382480958,0,0,0,,0,93,93,16,1,4,RL,desifate,cursive,desifate_c.png,,,,,,
,,,,32187,001,2025-11-16_13h02.06.802,HW_LDT_1,2024.2.4,MacIntel,58.82352941,,,,,,,,,,,,,,,,,,,,470.465,470.663,470.664,471.164,,,,,,,,,,,,,,0.854,1,,,,,,,,,,,,,,z,,,,,,,,,,,,,,,95,0,471.164,472.03,z,1,0.854,,[],[],[],[],[],[],[],472.03,474.03,474.03,474.03,[],[],[],[],[],[],[],,474.03,474.031,-0.010881393,-0.382480958,0,0,0,,0,94,94,76,1,4,TL,setanor,print,setanor_p.png,,,,,,
,,,,32187,001,2025-11-16_13h02.06.802,HW_LDT_1,2024.2.4,MacIntel,58.82352941,,,,,,,,,,,,,,,,,,,,474.031,474.23,474.23,474.73,,,,,,,,,,,,,,0.58,1,,,,,,,,,,,,,,m,,,,,,,,,,,,,,,96,0,474.731,475.317,m,1,0.58,,[],[],[],[],[],[],[],475.317,477.314,477.314,477.314,[],[],[],[],[],[],[],,477.314,477.314,-0.010881393,-0.382480958,0,0,0,,0,95,95,143,1,4,word,REMOVAL,print,removal_p.png,,,,,,
,,,,32187,001,2025-11-16_13h02.06.802,HW_LDT_1,2024.2.4,MacIntel,58.82352941,,,,,,,,,,,,,,,,,,,,477.315,477.513,477.514,478.014,,,,,,,,,,,,,,0.645,1,,,,,,,,,,,,,,m,,,,,,,,,,,,,,,97,0,478.014,478.667,m,1,0.645,,[],[],[],[],[],[],[],478.667,480.664,480.664,480.664,[],[],[],[],[],[],[],,480.664,480.664,-0.010881393,-0.382480958,0,0,0,,0,96,96,130,1,4,word,POLICY,cursive,policy_c.png,,,,,,
,,,,32187,001,2025-11-16_13h02.06.802,HW_LDT_1,2024.2.4,MacIntel,58.82352941,,,,,,,,,,,,,,,,,,,,480.665,480.864,480.864,481.363,,,,,,,,,,,,,,0.62,1,,,,,,,,,,,,,,z,,,,,,,,,,,,,,,98,0,481.364,481.996,z,1,0.62,,[],[],[],[],[],[],[],481.996,483.997,483.997,483.997,[],[],[],[],[],[],[],,483.997,483.997,-0.010881393,-0.382480958,0,0,0,,0,97,97,67,1,4,TL,polupar,print,polupar_p.png,,,,,,
,,,,32187,001,2025-11-16_13h02.06.802,HW_LDT_1,2024.2.4,MacIntel,58.82352941,,,,,,,,,,,,,,,,,,,,483.998,484.197,484.197,484.697,,,,,,,,,,,,,,0.758,0,,,,,,,,,,,,,,z,,,,,,,,,,,,,,,99,0,484.697,485.464,m,0,0.758,,[],[],[],[],[],[],[],485.464,487.464,487.464,487.464,[],[],[],[],[],[],[],,487.464,487.464,-0.010881393,-0.382480958,0,0,0,,0,98,98,77,1,4,TL,spemicen,cursive,spemicen_c.png,,,,,,
,,,,32187,001,2025-11-16_13h02.06.802,HW_LDT_1,2024.2.4,MacIntel,58.82352941,,,,,,,,,,,,,,,,,,,,487.465,487.663,487.663,488.163,,,,,,,,,,,,,,0.704,1,,,,,,,,,,,,,,z,,,,,,,,,,,,,,,100,1,488.164,488.88,z,1,0.704,,[],[],[],[],[],[],[],488.881,490.88,490.88,492.13,[],[],[],[],[],[],[],z,492.131,492.131,-0.010881393,-0.382480958,0,0,0,,0,99,99,65,1,4,TL,orepator,print,orepator_p.png,1.238,,,,,
,,,,32187,001,2025-11-16_13h02.06.802,HW_LDT_1,2024.2.4,MacIntel,58.82352941,,,,,,,,,,,,,,,,,,,,492.132,492.33,492.331,492.83,,,,,,,,,,,,,,1.209,1,,,,,,,,,,,,,,z,,,,,,,,,,,,,,,101,0,492.831,494.047,z,1,1.209,,[],[],[],[],[],[],[],494.047,496.047,496.047,496.047,[],[],[],[],[],[],[],,496.047,496.047,-0.010881393,-0.382480958,0,0,0,,0,100,100,60,1,4,TL,hetirage,print,hetirage_p.png,,,,,,
,,,,32187,001,2025-11-16_13h02.06.802,HW_LDT_1,2024.2.4,MacIntel,58.82352941,,,,,,,,,,,,,,,,,,,,496.048,496.247,496.247,496.747,,,,,,,,,,,,,,0.853,1,,,,,,,,,,,,,,m,,,,,,,,,,,,,,,102,0,496.747,497.614,m,1,0.853,,[],[],[],[],[],[],[],497.614,499.614,499.614,499.614,[],[],[],[],[],[],[],,499.614,499.614,-0.010881393,-0.382480958,0,0,0,,0,101,101,135,1,4,word,QUALITY,print,quality_p.png,,,,,,
,,,,32187,001,2025-11-16_13h02.06.802,HW_LDT_1,2024.2.4,MacIntel,58.82352941,,,,,,,,,,,,,,,,,,,,499.615,499.814,499.814,500.314,,,,,,,,,,,,,,1.311,1,,,,,,,,,,,,,,m,,,,,,,,,,,,,,,103,0,500.314,501.635,m,1,1.311,,[],[],[],[],[],[],[],501.635,503.63,503.63,503.631,[],[],[],[],[],[],[],,503.631,503.631,-0.010881393,-0.382480958,0,0,0,,0,102,102,126,1,4,word,OPTIMAL,print,optimal_p.png,,,,,,
,,,,32187,001,2025-11-16_13h02.06.802,HW_LDT_1,2024.2.4,MacIntel,58.82352941,,,,,,,,,,,,,,,,,,,,503.631,503.83,503.83,504.33,,,,,,,,,,,,,,0.67,1,,,,,,,,,,,,,,m,,,,,,,,,,,,,,,104,0,504.331,505.014,m,1,0.67,,[],[],[],[],[],[],[],505.014,507.014,507.014,507.014,[],[],[],[],[],[],[],,507.014,507.014,-0.010881393,-0.382480958,0,0,0,,0,103,103,80,1,4,word,ACADEMY,print,academy_p.png,,,,,,
,,,,32187,001,2025-11-16_13h02.06.802,HW_LDT_1,2024.2.4,MacIntel,58.82352941,,,,,,,,,,,,,,,,,,,,507.015,507.214,507.214,507.714,,,,,,,,,,,,,,0.829,1,,,,,,,,,,,,,,z,,,,,,,,,,,,,,,105,0,507.714,508.547,z,1,0.829,,[],[],[],[],[],[],[],508.547,510.547,510.547,510.547,[],[],[],[],[],[],[],,510.547,510.548,-0.010881393,-0.382480958,0,0,0,,0,104,104,21,1,4,RL,insibate,print,insibate_p.png,,,,,,
,,,,32187,001,2025-11-16_13h02.06.802,HW_LDT_1,2024.2.4,MacIntel,58.82352941,,,,,,,,,,,,,,,,,,,,510.548,510.747,510.747,511.247,,,,,,,,,,,,,,0.896,1,,,,,,,,,,,,,,m,,,,,,,,,,,,,,,106,0,511.247,512.15,m,1,0.896,,[],[],[],[],[],[],[],512.15,514.147,514.147,514.147,[],[],[],[],[],[],[],,514.147,514.147,-0.010881393,-0.382480958,0,0,0,,0,105,105,134,1,4,word,QUALIFY,print,qualify_p.png,,,,,,
,,,,32187,001,2025-11-16_13h02.06.802,HW_LDT_1,2024.2.4,MacIntel,58.82352941,,,,,,,,,,,,,,,,,,,,514.148,514.347,514.347,514.847,,,,,,,,,,,,,,0.789,1,,,,,,,,,,,,,,z,,,,,,,,,,,,,,,107,0,514.847,515.647,z,1,0.789,,[],[],[],[],[],[],[],515.647,517.647,517.647,517.647,[],[],[],[],[],[],[],,517.647,517.648,-0.010881393,-0.382480958,0,0,0,,0,106,106,52,1,4,TL,cagetory,cursive,cagetory_c.png,,,,,,
,,,,32187,001,2025-11-16_13h02.06.802,HW_LDT_1,2024.2.4,MacIntel,58.82352941,,,,,,,,,,,,,,,,,,,,517.648,517.847,517.847,518.347,,,,,,,,,,,,,,0.924,1,,,,,,,,,,,,,,z,,,,,,,,,,,,,,,108,1,518.347,519.28,z,1,0.924,,[],[],[],[],[],[],[],519.28,521.28,521.28,522.18,[],[],[],[],[],[],[],z,522.18,522.181,-0.010881393,-0.382480958,0,0,0,,0,107,107,10,1,4,RL,carminal,cursive,carminal_c.png,0.887,,,,,
,,,,32187,001,2025-11-16_13h02.06.802,HW_LDT_1,2024.2.4,MacIntel,58.82352941,,,,,,,,,,,,,,,,,,,,522.182,522.379,522.379,522.88,,,,,,,,,,,,,,0.758,0,,,,,,,,,,,,,,m,,,,,,,,,,,,,,,109,0,522.881,523.647,z,0,0.758,,[],[],[],[],[],[],[],523.647,525.647,525.647,525.647,[],[],[],[],[],[],[],,525.647,525.648,-0.010881393,-0.382480958,0,0,0,,0,108,108,108,1,4,word,FORTUNE,cursive,fortune_c.png,,,,,,
,,,,32187,001,2025-11-16_13h02.06.802,HW_LDT_1,2024.2.4,MacIntel,58.82352941,,,,,,,,,,,,,,,,,,,,525.649,525.846,525.846,526.347,,,,,,,,,,,,,,0.821,1,,,,,,,,,,,,,,m,,,,,,,,,,,,,,,110,0,526.347,527.18,m,1,0.821,,[],[],[],[],[],[],[],527.18,529.18,529.18,529.181,[],[],[],[],[],[],[],,529.181,529.181,-0.010881393,-0.382480958,0,0,0,,0,109,109,94,1,4,word,CLINICAL,print,clinical_p.png,,,,,,
,,,,32187,001,2025-11-16_13h02.06.802,HW_LDT_1,2024.2.4,MacIntel,58.82352941,,,,,,,,,,,,,,,,,,,,529.181,529.38,529.38,529.88,,,,,,,,,,,,,,0.954,1,,,,,,,,,,,,,,z,,,,,,,,,,,,,,,111,0,529.881,530.847,z,1,0.954,,[],[],[],[],[],[],[],530.847,532.846,532.846,532.846,[],[],[],[],[],[],[],,532.846,532.846,-0.010881393,-0.382480958,0,0,0,,0,110,110,63,1,4,TL,miskate,print,miskate_p.png,,,,,,
,,,,32187,001,2025-11-16_13h02.06.802,HW_LDT_1,2024.2.4,MacIntel,58.82352941,,,,,,,,,,,,,,,,,,,,532.846,533.046,533.046,533.547,,,,,,,,,,,,,,0.986,1,,,,,,,,,,,,,,z,,,,,,,,,,,,,,,112,0,533.547,534.547,z,1,0.986,,[],[],[],[],[],[],[],534.547,536.547,536.547,536.547,[],[],[],[],[],[],[],,536.547,536.547,-0.010881393,-0.382480958,0,0,0,,0,111,111,24,1,4,RL,marmipal,cursive,marmipal_c.png,,,,,,
,,,,32187,001,2025-11-16_13h02.06.802,HW_LDT_1,2024.2.4,MacIntel,58.82352941,,,,,,,,,,,,,,,,,,,,536.548,536.747,536.747,537.247,,,,,,,,,,,,,,1.071,1,,,,,,,,,,,,,,z,,,,,,,,,,,,,,,113,0,537.247,538.33,z,1,1.071,,[],[],[],[],[],[],[],538.33,540.33,540.33,540.33,[],[],[],[],[],[],[],,540.33,540.331,-0.010881393,-0.382480958,0,0,0,,0,112,112,78,1,4,TL,stragety,print,stragety_p.png,,,,,,
,,,,32187,001,2025-11-16_13h02.06.802,HW_LDT_1,2024.2.4,MacIntel,58.82352941,,,,,,,,,,,,,,,,,,,,540.331,540.53,540.53,541.03,,,,,,,,,,,,,,0.656,1,,,,,,,,,,,,,,z,,,,,,,,,,,,,,,114,0,541.03,541.697,z,1,0.656,,[],[],[],[],[],[],[],541.697,543.696,543.696,543.697,[],[],[],[],[],[],[],,543.697,543.697,-0.010881393,-0.382480958,0,0,0,,0,113,113,47,1,4,RL,stopave,print,stopave_p.png,,,,,,
,,,,32187,001,2025-11-16_13h02.06.802,HW_LDT_1,2024.2.4,MacIntel,58.82352941,,,,,,,,,,,,,,,,,,,,543.697,543.897,543.897,544.397,,,,,,,,,,,,,,1.013,1,,,,,,,,,,,,,,m,,,,,,,,,,,,,,,115,0,544.397,545.416,m,1,1.013,,[],[],[],[],[],[],[],545.416,547.414,547.414,547.414,[],[],[],[],[],[],[],,547.414,547.414,-0.010881393,-0.382480958,0,0,0,,0,114,114,155,1,4,word,STRATEGY,print,strategy_p.png,,,,,,
,,,,32187,001,2025-11-16_13h02.06.802,HW_LDT_1,2024.2.4,MacIntel,58.82352941,,,,,,,,,,,,,,,,,,,,547.415,547.614,547.614,548.114,,,,,,,,,,,,,,1.01,1,,,,,,,,,,,,,,m,,,,,,,,,,,,,,,116,0,548.114,549.133,m,1,1.01,,[],[],[],[],[],[],[],549.133,551.13,551.13,551.13,[],[],[],[],[],[],[],,551.13,551.13,-0.010881393,-0.382480958,0,0,0,,0,115,115,153,1,4,word,STOLEN,cursive,stolen_c.png,,,,,,
,,,,32187,001,2025-11-16_13h02.06.802,HW_LDT_1,2024.2.4,MacIntel,58.82352941,,,,,,,,,,,,,,,,,,,,551.131,551.33,551.33,551.83,,,,,,,,,,,,,,0.82,1,,,,,,,,,,,,,,z,,,,,,,,,,,,,,,117,0,551.83,552.663,z,1,0.82,,[],[],[],[],[],[],[],552.664,554.663,554.663,554.664,[],[],[],[],[],[],[],,554.664,554.664,-0.010881393,-0.382480958,0,0,0,,0,116,116,32,1,4,RL,patisic,cursive,patisic_c.png,,,,,,
,,,,32187,001,2025-11-16_13h02.06.802,HW_LDT_1,2024.2.4,MacIntel,58.82352941,,,,,,,,,,,,,,,,,,,,554.665,554.864,554.864,555.364,,,,,,,,,,,,,,1.261,1,,,,,,,,,,,,,,m,,,,,,,,,,,,,,,118,0,555.364,556.634,m,1,1.261,,[],[],[],[],[],[],[],556.634,558.63,558.63,558.63,[],[],[],[],[],[],[],,558.63,558.631,-0.010881393,-0.382480958,0,0,0,,0,117,117,111,1,4,word,INDICATE,print,indicate_p.png,,,,,,
,,,,32187,001,2025-11-16_13h02.06.802,HW_LDT_1,2024.2.4,MacIntel,58.82352941,,,,,,,,,,,,,,,,,,,,558.631,558.83,558.83,559.33,,,,,,,,,,,,,,0.897,0,,,,,,,,,,,,,,m,,,,,,,,,,,,,,,119,0,559.33,560.23,z,0,0.897,,[],[],[],[],[],[],[],560.23,562.23,562.23,562.23,[],[],[],[],[],[],[],,562.23,562.231,-0.010881393,-0.382480958,0,0,0,,0,118,118,138,1,4,word,REFUSAL,cursive,refusal_c.png,,,,,,
,,,,32187,001,2025-11-16_13h02.06.802,HW_LDT_1,2024.2.4,MacIntel,58.82352941,,,,,,,,,,,,,,,,,,,,562.231,562.43,562.43,562.929,,,,,,,,,,,,,,0.976,1,,,,,,,,,,,,,,m,,,,,,,,,,,,,,,120,0,562.929,563.913,m,1,0.976,,[],[],[],[],[],[],[],563.913,565.913,565.913,565.914,[],[],[],[],[],[],[],,565.914,565.914,-0.010881393,-0.382480958,0,0,0,,0,119,119,141,1,4,word,RELIGION,print,religion_p.png,,,,,,
,,,,32187,001,2025-11-16_13h02.06.802,HW_LDT_1,2024.2.4,MacIntel,58.82352941,,,,,,,,,,,,,,,,,,,,565.914,566.113,566.113,566.613,,,,,,,,,,,,,,1.571,1,,,,,,,,,,,,,,z,,,,,,,,,,,,,,,121,0,566.614,568.196,z,1,1.571,,[],[],[],[],[],[],[],568.196,570.197,570.197,570.197,[],[],[],[],[],[],[],,570.197,570.197,-0.010881393,-0.382480958,0,0,0,,0,120,120,62,1,4,TL,locigal,print,locigal_p.png,,,,,,
,,,,32187,001,2025-11-16_13h02.06.802,HW_LDT_1,2024.2.4,MacIntel,58.82352941,,,,,,,,,,,,,,,,,,,,570.198,570.397,570.397,570.897,,,,,,,,,,,,,,0.761,1,,,,,,,,,,,,,,z,,,,,,,,,,,,,,,122,0,570.897,571.663,z,1,0.761,,[],[],[],[],[],[],[],571.663,573.663,573.664,573.664,[],[],[],[],[],[],[],,573.664,573.664,-0.010881393,-0.382480958,0,0,0,,0,121,121,64,1,4,TL,moredate,print,moredate_p.png,,,,,,
,,,,32187,001,2025-11-16_13h02.06.802,HW_LDT_1,2024.2.4,MacIntel,58.82352941,,,,,,,,,,,,,,,,,,,,573.665,573.863,573.863,574.363,,,,,,,,,,,,,,0.991,1,,,,,,,,,,,,,,m,,,,,,,,,,,,,,,123,0,574.363,575.364,m,1,0.991,,[],[],[],[],[],[],[],575.364,577.364,577.364,577.364,[],[],[],[],[],[],[],,577.364,577.364,-0.010881393,-0.382480958,0,0,0,,0,122,122,83,1,4,word,ANIMAL,cursive,animal_c.png,,,,,,
,,,,32187,001,2025-11-16_13h02.06.802,HW_LDT_1,2024.2.4,MacIntel,58.82352941,,,,,,,,,,,,,,,,,,,,577.364,577.563,577.563,578.062,,,,,,,,,,,,,,0.722,1,,,,,,,,,,,,,,z,,,,,,,,,,,,,,,124,0,578.063,578.796,z,1,0.722,,[],[],[],[],[],[],[],578.796,580.797,580.797,580.797,[],[],[],[],[],[],[],,580.797,580.797,-0.010881393,-0.382480958,0,0,0,,0,123,123,44,1,4,RL,senvilent,print,senvilent_p.png,,,,,,
,,,,32187,001,2025-11-16_13h02.06.802,HW_LDT_1,2024.2.4,MacIntel,58.82352941,,,,,,,,,,,,,,,,,,,,580.798,580.996,580.997,581.497,,,,,,,,,,,,,,0.707,1,,,,,,,,,,,,,,m,,,,,,,,,,,,,,,125,1,581.497,582.214,m,1,0.707,,[],[],[],[],[],[],[],582.214,584.213,584.214,585.214,[],[],[],[],[],[],[],m,585.214,585.214,-0.010881393,-0.382480958,0,0,0,,0,124,124,117,1,4,word,MARINE,print,marine_p.png,0.987,,,,,
,,,,32187,001,2025-11-16_13h02.06.802,HW_LDT_1,2024.2.4,MacIntel,58.82352941,,,,,,,,,,,,,,,,,,,,585.215,585.413,585.414,585.913,,,,,,,,,,,,,,0.854,1,,,,,,,,,,,,,,m,,,,,,,,,,,,,,,126,0,585.914,586.779,m,1,0.854,,[],[],[],[],[],[],[],586.779,588.78,588.78,588.78,[],[],[],[],[],[],[],,588.78,588.78,-0.010881393,-0.382480958,0,0,0,,0,125,125,100,1,4,word,DECADE,cursive,decade_c.png,,,,,,
,,,,32187,001,2025-11-16_13h02.06.802,HW_LDT_1,2024.2.4,MacIntel,58.82352941,,,,,,,,,,,,,,,,,,,,588.781,588.98,588.98,589.48,,,,,,,,,,,,,,0.955,1,,,,,,,,,,,,,,m,,,,,,,,,,,,,,,127,0,589.48,590.447,m,1,0.955,,[],[],[],[],[],[],[],590.447,592.446,592.447,592.447,[],[],[],[],[],[],[],,592.447,592.447,-0.010881393,-0.382480958,0,0,0,,0,126,126,121,1,4,word,MISTAKE,print,mistake_p.png,,,,,,
,,,,32187,001,2025-11-16_13h02.06.802,HW_LDT_1,2024.2.4,MacIntel,58.82352941,,,,,,,,,,,,,,,,,,,,592.448,592.646,592.647,593.147,,,,,,,,,,,,,,0.89,1,,,,,,,,,,,,,,z,,,,,,,,,,,,,,,128,0,593.147,594.047,z,1,0.89,,[],[],[],[],[],[],[],594.047,596.046,596.047,596.047,[],[],[],[],[],[],[],,596.047,596.047,-0.010881393,-0.382480958,0,0,0,,0,127,127,2,1,4,RL,asiral,cursive,asiral_c.png,,,,,,
,,,,32187,001,2025-11-16_13h02.06.802,HW_LDT_1,2024.2.4,MacIntel,58.82352941,,,,,,,,,,,,,,,,,,,,596.048,596.247,596.247,596.747,,,,,,,,,,,,,,1.697,0,,,,,,,,,,,,,,m,,,,,,,,,,,,,,,129,0,596.747,598.446,z,0,1.697,,[],[],[],[],[],[],[],598.447,600.446,600.446,600.446,[],[],[],[],[],[],[],,600.446,600.446,-0.010881393,-0.382480958,0,0,0,,0,128,128,113,1,4,word,LITERAL,cursive,literal_c.png,,,,,,
,,,,32187,001,2025-11-16_13h02.06.802,HW_LDT_1,2024.2.4,MacIntel,58.82352941,,,,,,,,,,,,,,,,,,,,600.447,600.647,600.647,601.147,,,,,,,,,,,,,,1.125,0,,,,,,,,,,,,,,m,,,,,,,,,,,,,,,130,0,601.147,602.28,z,0,1.125,,[],[],[],[],[],[],[],602.28,604.28,604.28,604.28,[],[],[],[],[],[],[],,604.28,604.28,-0.010881393,-0.382480958,0,0,0,,0,129,129,92,1,4,word,CATEGORY,cursive,category_c.png,,,,,,
,,,,32187,001,2025-11-16_13h02.06.802,HW_LDT_1,2024.2.4,MacIntel,58.82352941,,,,,,,,,,,,,,,,,,,,604.281,604.48,604.48,604.98,,,,,,,,,,,,,,1.953,1,,,,,,,,,,,,,,m,,,,,,,,,,,,,,,131,1,604.98,606.947,m,1,1.953,,[],[],[],[],[],[],[],606.947,608.945,608.946,610.063,[],[],[],[],[],[],[],z,610.063,610.063,-0.010881393,-0.382480958,0,0,0,,0,130,130,97,1,4,word,COVERAGE,cursive,coverage_c.png,1.115,,,,,
,,,,32187,001,2025-11-16_13h02.06.802,HW_LDT_1,2024.2.4,MacIntel,58.82352941,,,,,,,,,,,,,,,,,,,,610.064,610.263,610.263,610.763,,,,,,,,,,,,,,2.405,1,,,,,,,,,,,,,,z,,,,,,,,,,,,,,,132,0,610.763,613.18,z,1,2.405,,[],[],[],[],[],[],[],613.18,615.18,615.18,615.18,[],[],[],[],[],[],[],,615.18,615.18,-0.010881393,-0.382480958,0,0,0,,0,131,131,56,1,4,TL,donimant,cursive,donimant_c.png,,,,,,
,,,,32187,001,2025-11-16_13h02.06.802,HW_LDT_1,2024.2.4,MacIntel,58.82352941,,,,,,,,,,,,,,,,,,,,615.181,615.38,615.38,615.88,,,,,,,,,,,,,,0.712,1,,,,,,,,,,,,,,m,,,,,,,,,,,,,,,133,0,615.88,616.6,m,1,0.712,,[],[],[],[],[],[],[],616.6,618.597,618.597,618.597,[],[],[],[],[],[],[],,618.597,618.597,-0.010881393,-0.382480958,0,0,0,,0,132,132,95,1,4,word,COMEDY,print,comedy_p.png,,,,,,
,,,,32187,001,2025-11-16_13h02.06.802,HW_LDT_1,2024.2.4,MacIntel,58.82352941,,,,,,,,,,,,,,,,,,,,618.598,618.797,618.797,619.297,,,,,,,,,,,,,,0.707,1,,,,,,,,,,,,,,z,,,,,,,,,,,,,,,134,0,619.297,620.014,z,1,0.707,,[],[],[],[],[],[],[],620.014,622.012,622.013,622.013,[],[],[],[],[],[],[],,622.013,622.013,-0.010881393,-0.382480958,0,0,0,,0,133,133,36,1,4,RL,rabigly,cursive,rabigly_c.png,,,,,,
,,,,32187,001,2025-11-16_13h02.06.802,HW_LDT_1,2024.2.4,MacIntel,58.82352941,,,,,,,,,,,,,,,,,,,,622.014,622.213,622.214,622.713,,,,,,,,,,,,,,0.72,1,,,,,,,,,,,,,,z,,,,,,,,,,,,,,,135,0,622.714,623.447,z,1,0.72,,[],[],[],[],[],[],[],623.447,625.446,625.447,625.447,[],[],[],[],[],[],[],,625.447,625.447,-0.010881393,-0.382480958,0,0,0,,0,134,134,34,1,4,RL,posity,cursive,posity_c.png,,,,,,
,,,,32187,001,2025-11-16_13h02.06.802,HW_LDT_1,2024.2.4,MacIntel,58.82352941,,,,,,,,,,,,,,,,,,,,625.448,625.646,625.647,626.147,,,,,,,,,,,,,,1.145,1,,,,,,,,,,,,,,m,,,,,,,,,,,,,,,136,0,626.147,627.3,m,1,1.145,,[],[],[],[],[],[],[],627.3,629.297,629.297,629.297,[],[],[],[],[],[],[],,629.297,629.297,-0.010881393,-0.382480958,0,0,0,,0,135,135,157,1,4,word,VALIDITY,print,validity_p.png,,,,,,
,,,,32187,001,2025-11-16_13h02.06.802,HW_LDT_1,2024.2.4,MacIntel,58.82352941,,,,,,,,,,,,,,,,,,,,629.298,629.497,629.497,629.996,,,,,,,,,,,,,,2.637,0,,,,,,,,,,,,,,m,,,,,,,,,,,,,,,137,0,629.997,632.647,z,0,2.637,,[],[],[],[],[],[],[],632.647,634.646,634.646,634.646,[],[],[],[],[],[],[],,634.646,634.646,-0.010881393,-0.382480958,0,0,0,,0,136,136,128,1,4,word,PACIFIC,cursive,pacific_c.png,,,,,,
,,,,32187,001,2025-11-16_13h02.06.802,HW_LDT_1,2024.2.4,MacIntel,58.82352941,,,,,,,,,,,,,,,,,,,,634.647,634.847,634.847,635.347,,,,,,,,,,,,,,2.023,1,,,,,,,,,,,,,,z,,,,,,,,,,,,,,,138,0,635.347,637.38,z,1,2.023,,[],[],[],[],[],[],[],637.38,639.38,639.38,639.38,[],[],[],[],[],[],[],,639.38,639.38,-0.010881393,-0.382480958,0,0,0,,0,137,137,6,1,4,RL,caleberia,cursive,caleberia_c.png,,,,,,
,,,,32187,001,2025-11-16_13h02.06.802,HW_LDT_1,2024.2.4,MacIntel,58.82352941,,,,,,,,,,,,,,,,,,,,639.381,639.58,639.58,640.08,,,,,,,,,,,,,,0.762,1,,,,,,,,,,,,,,m,,,,,,,,,,,,,,,139,0,640.08,640.851,m,1,0.762,,[],[],[],[],[],[],[],640.851,642.846,642.846,642.847,[],[],[],[],[],[],[],,642.847,642.847,-0.010881393,-0.382480958,0,0,0,,0,138,138,133,1,4,word,PROVIDE,cursive,provide_c.png,,,,,,
,,,,32187,001,2025-11-16_13h02.06.802,HW_LDT_1,2024.2.4,MacIntel,58.82352941,,,,,,,,,,,,,,,,,,,,642.848,643.046,643.047,643.547,,,,,,,,,,,,,,1.753,1,,,,,,,,,,,,,,z,,,,,,,,,,,,,,,140,0,643.547,645.313,z,1,1.753,,[],[],[],[],[],[],[],645.314,647.313,647.313,647.313,[],[],[],[],[],[],[],,647.313,647.314,-0.010881393,-0.382480958,0,0,0,,0,139,139,28,1,4,RL,mifikary,print,mifikary_p.png,,,,,,
,,,,32187,001,2025-11-16_13h02.06.802,HW_LDT_1,2024.2.4,MacIntel,58.82352941,,,,,,,,,,,,,,,,,,,,647.314,647.513,647.513,648.013,,,,,,,,,,,,,,0.654,1,,,,,,,,,,,,,,z,,,,,,,,,,,,,,,141,0,648.014,648.68,z,1,0.654,,[],[],[],[],[],[],[],648.68,650.68,650.68,650.68,[],[],[],[],[],[],[],,650.68,650.68,-0.010881393,-0.382480958,0,0,0,,0,140,140,7,1,4,RL,casena,print,casena_p.png,,,,,,
,,,,32187,001,2025-11-16_13h02.06.802,HW_LDT_1,2024.2.4,MacIntel,58.82352941,,,,,,,,,,,,,,,,,,,,650.681,650.88,650.88,651.38,,,,,,,,,,,,,,0.654,1,,,,,,,,,,,,,,m,,,,,,,,,,,,,,,142,0,651.38,652.046,m,1,0.654,,[],[],[],[],[],[],[],652.047,654.046,654.046,654.046,[],[],[],[],[],[],[],,654.046,654.046,-0.010881393,-0.382480958,0,0,0,,0,141,141,103,1,4,word,DISPUTE,print,dispute_p.png,,,,,,
,,,,32187,001,2025-11-16_13h02.06.802,HW_LDT_1,2024.2.4,MacIntel,58.82352941,,,,,,,,,,,,,,,,,,,,654.047,654.246,654.246,654.747,,,,,,,,,,,,,,0.593,1,,,,,,,,,,,,,,m,,,,,,,,,,,,,,,143,0,654.747,655.349,m,1,0.593,,[],[],[],[],[],[],[],655.349,657.346,657.347,657.347,[],[],[],[],[],[],[],,657.347,657.347,-0.010881393,-0.382480958,0,0,0,,0,142,142,93,1,4,word,CEREMONY,print,ceremony_p.png,,,,,,
,,,,32187,001,2025-11-16_13h02.06.802,HW_LDT_1,2024.2.4,MacIntel,58.82352941,,,,,,,,,,,,,,,,,,,,657.348,657.547,657.547,658.046,,,,,,,,,,,,,,1.578,0,,,,,,,,,,,,,,m,,,,,,,,,,,,,,,144,0,658.047,659.629,z,0,1.578,,[],[],[],[],[],[],[],659.63,661.629,661.63,661.63,[],[],[],[],[],[],[],,661.63,661.63,-0.010881393,-0.382480958,0,0,0,,0,143,143,87,1,4,word,CAFETERIA,cursive,cafeteria_c.png,,,,,,
,,,,32187,001,2025-11-16_13h02.06.802,HW_LDT_1,2024.2.4,MacIntel,58.82352941,,,,,,,,,,,,,,,,,,,,661.631,661.83,661.83,662.33,,,,,,,,,,,,,,0.637,1,,,,,,,,,,,,,,z,,,,,,,,,,,,,,,145,0,662.33,662.98,z,1,0.637,,[],[],[],[],[],[],[],662.98,664.98,664.98,664.98,[],[],[],[],[],[],[],,664.98,664.98,-0.010881393,-0.382480958,0,0,0,,0,144,144,0,1,4,RL,abanemy,print,abanemy_p.png,,,,,,
,,,,32187,001,2025-11-16_13h02.06.802,HW_LDT_1,2024.2.4,MacIntel,58.82352941,,,,,,,,,,,,,,,,,,,,664.981,665.18,665.18,665.68,,,,,,,,,,,,,,1.106,1,,,,,,,,,,,,,,m,,,,,,,,,,,,,,,146,0,665.68,666.796,m,1,1.106,,[],[],[],[],[],[],[],666.797,668.796,668.796,668.796,[],[],[],[],[],[],[],,668.797,668.797,-0.010881393,-0.382480958,0,0,0,,0,145,145,119,1,4,word,MEMORY,print,memory_p.png,,,,,,
,,,,32187,001,2025-11-16_13h02.06.802,HW_LDT_1,2024.2.4,MacIntel,58.82352941,,,,,,,,,,,,,,,,,,,,668.797,668.996,668.997,669.496,,,,,,,,,,,,,,0.976,1,,,,,,,,,,,,,,m,,,,,,,,,,,,,,,147,0,669.497,670.48,m,1,0.976,,[],[],[],[],[],[],[],670.48,672.48,672.48,672.48,[],[],[],[],[],[],[],,672.48,672.481,-0.010881393,-0.382480958,0,0,0,,0,146,146,125,1,4,word,OPERATOR,print,operator_p.png,,,,,,
,,,,32187,001,2025-11-16_13h02.06.802,HW_LDT_1,2024.2.4,MacIntel,58.82352941,,,,,,,,,,,,,,,,,,,,672.481,672.68,672.68,673.179,,,,,,,,,,,,,,1.021,1,,,,,,,,,,,,,,m,,,,,,,,,,,,,,,148,0,673.179,674.213,m,1,1.021,,[],[],[],[],[],[],[],674.213,676.213,676.213,676.214,[],[],[],[],[],[],[],,676.214,676.214,-0.010881393,-0.382480958,0,0,0,,0,147,147,115,1,4,word,LOGICAL,print,logical_p.png,,,,,,
,,,,32187,001,2025-11-16_13h02.06.802,HW_LDT_1,2024.2.4,MacIntel,58.82352941,,,,,,,,,,,,,,,,,,,,676.214,676.413,676.413,676.913,,,,,,,,,,,,,,0.693,1,,,,,,,,,,,,,,z,,,,,,,,,,,,,,,149,1,676.913,677.613,z,1,0.693,,[],[],[],[],[],[],[],677.613,679.613,679.613,680.93,[],[],[],[],[],[],[],m,680.93,680.93,-0.010881393,-0.382480958,0,0,0,,0,148,148,27,1,4,RL,menowy,print,menowy_p.png,1.309,,,,,
,,,,32187,001,2025-11-16_13h02.06.802,HW_LDT_1,2024.2.4,MacIntel,58.82352941,,,,,,,,,,,,,,,,,,,,680.931,681.13,681.13,681.63,,,,,,,,,,,,,,0.936,1,,,,,,,,,,,,,,m,,,,,,,,,,,,,,,150,0,681.63,682.58,m,1,0.936,,[],[],[],[],[],[],[],682.58,684.58,684.58,684.58,[],[],[],[],[],[],[],,684.58,684.58,-0.010881393,-0.382480958,0,0,0,,0,149,149,140,1,4,word,RELATIVE,print,relative_p.png,,,,,,
,,,,32187,001,2025-11-16_13h02.06.802,HW_LDT_1,2024.2.4,MacIntel,58.82352941,,,,,,,,,,,,,,,,,,,,684.581,684.78,684.78,685.28,,,,,,,,,,,,,,0.953,1,,,,,,,,,,,,,,z,,,,,,,,,,,,,,,151,0,685.28,686.246,z,1,0.953,,[],[],[],[],[],[],[],686.247,688.246,688.246,688.247,[],[],[],[],[],[],[],,688.247,688.247,-0.010881393,-0.382480958,0,0,0,,0,150,150,59,1,4,TL,fornute,cursive,fornute_c.png,,,,,,
,,,,32187,001,2025-11-16_13h02.06.802,HW_LDT_1,2024.2.4,MacIntel,58.82352941,,,,,,,,,,,,,,,,,,,,688.247,688.446,688.446,688.946,,,,,,,,,,,,,,1.341,1,,,,,,,,,,,,,,z,,,,,,,,,,,,,,,152,0,688.947,690.296,z,1,1.341,,[],[],[],[],[],[],[],690.296,692.296,692.297,692.297,[],[],[],[],[],[],[],,692.297,692.297,-0.010881393,-0.382480958,0,0,0,,0,151,151,43,1,4,RL,rovastic,print,rovastic_p.png,,,,,,
,,,,32187,001,2025-11-16_13h02.06.802,HW_LDT_1,2024.2.4,MacIntel,58.82352941,,,,,,,,,,,,,,,,,,,,692.297,692.496,692.497,692.996,,,,,,,,,,,,,,0.841,1,,,,,,,,,,,,,,m,,,,,,,,,,,,,,,153,1,692.997,693.846,m,1,0.841,,[],[],[],[],[],[],[],693.846,695.846,695.846,696.946,[],[],[],[],[],[],[],z,696.947,696.947,-0.010881393,-0.382480958,0,0,0,,0,152,152,129,1,4,word,PARENT,cursive,parent_c.png,1.088,,,,,
,,,,32187,001,2025-11-16_13h02.06.802,HW_LDT_1,2024.2.4,MacIntel,58.82352941,,,,,,,,,,,,,,,,,,,,696.947,697.146,697.146,697.646,,,,,,,,,,,,,,0.793,1,,,,,,,,,,,,,,m,,,,,,,,,,,,,,,154,0,697.647,698.446,m,1,0.793,,[],[],[],[],[],[],[],698.446,700.446,700.446,700.447,[],[],[],[],[],[],[],,700.447,700.447,-0.010881393,-0.382480958,0,0,0,,0,153,153,81,1,4,word,ADVISORY,cursive,advisory_c.png,,,,,,
,,,,32187,001,2025-11-16_13h02.06.802,HW_LDT_1,2024.2.4,MacIntel,58.82352941,,,,,,,,,,,,,,,,,,,,700.447,700.646,700.646,701.146,,,,,,,,,,,,,,1.84,1,,,,,,,,,,,,,,m,,,,,,,,,,,,,,,155,0,701.147,702.996,m,1,1.84,,[],[],[],[],[],[],[],702.997,704.996,704.996,704.997,[],[],[],[],[],[],[],,704.997,704.997,-0.010881393,-0.382480958,0,0,0,,0,154,154,127,1,4,word,ORIGINAL,print,original_p.png,,,,,,
,,,,32187,001,2025-11-16_13h02.06.802,HW_LDT_1,2024.2.4,MacIntel,58.82352941,,,,,,,,,,,,,,,,,,,,704.998,705.196,705.196,705.696,,,,,,,,,,,,,,0.687,1,,,,,,,,,,,,,,z,,,,,,,,,,,,,,,156,0,705.697,706.396,z,1,0.687,,[],[],[],[],[],[],[],706.397,708.396,708.396,708.397,[],[],[],[],[],[],[],,708.397,708.397,-0.010881393,-0.382480958,0,0,0,,0,155,155,61,1,4,TL,lotace,cursive,lotace_c.png,,,,,,
,,,,32187,001,2025-11-16_13h02.06.802,HW_LDT_1,2024.2.4,MacIntel,58.82352941,,,,,,,,,,,,,,,,,,,,708.397,708.596,708.596,709.096,,,,,,,,,,,,,,0.754,1,,,,,,,,,,,,,,z,,,,,,,,,,,,,,,157,1,709.097,709.863,z,1,0.754,,[],[],[],[],[],[],[],709.863,711.863,711.863,713.08,[],[],[],[],[],[],[],z,713.08,713.08,-0.010881393,-0.382480958,0,0,0,,0,156,156,14,1,4,RL,delahe,cursive,delahe_c.png,1.204,,,,,
,,,,32187,001,2025-11-16_13h02.06.802,HW_LDT_1,2024.2.4,MacIntel,58.82352941,,,,,,,,,,,,,,,,,,,,713.081,713.28,713.28,713.779,,,,,,,,,,,,,,0.925,1,,,,,,,,,,,,,,m,,,,,,,,,,,,,,,158,1,713.78,714.713,m,1,0.925,,[],[],[],[],[],[],[],714.713,716.713,716.713,717.58,[],[],[],[],[],[],[],z,717.58,717.58,-0.010881393,-0.382480958,0,0,0,,0,157,157,151,1,4,word,SPECIFIC,cursive,specific_c.png,0.864,,,,,
,,,,32187,001,2025-11-16_13h02.06.802,HW_LDT_1,2024.2.4,MacIntel,58.82352941,,,,,,,,,,,,,,,,,,,,717.581,717.78,717.78,718.28,,,,,,,,,,,,,,1.489,0,,,,,,,,,,,,,,m,,,,,,,,,,,,,,,159,1,718.28,719.78,z,0,1.489,,[],[],[],[],[],[],[],719.78,721.779,721.78,722.696,[],[],[],[],[],[],[],z,722.696,722.697,-0.010881393,-0.382480958,0,0,0,,0,158,158,102,1,4,word,DENSITY,cursive,density_c.png,0.912,,,,,
,,,,32187,001,2025-11-16_13h02.06.802,HW_LDT_1,2024.2.4,MacIntel,58.82352941,,,,,,,,,,,,,,,,,,,,722.698,722.896,722.896,723.396,,,,,,,,,,,,,,0.856,1,,,,,,,,,,,,,,z,,,,,,,,,,,,,,,160,0,723.397,724.263,z,1,0.856,,[],[],[],[],[],[],[],724.263,726.263,726.263,726.263,[],[],[],[],[],[],[],,726.263,726.263,-0.010881393,-0.382480958,0,0,0,,0,159,159,40,1,4,RL,reconal,print,reconal_p.png,,,,,,
,,,,32187,001,2025-11-16_13h02.06.802,HW_LDT_1,2024.2.4,MacIntel,58.82352941,,,,,,,,,,,,,,,,,,,,,,,,,,,,,,,,,,,,,,,,,,,,,,,,,,,,,,,,,,,,,,,,,,,,,,,,,,,,,,,,,,,,,,,,,,,,,,,,,,,,,,,,,,,,,,,,,,,,726.263,731.264
