counterbalance_lists.group,counterbalance_lists.remaining,get_list.started,get_list.stopped,participant,session,date,expName,psychopyVersion,OS,frameRate,Instructions.started,Instructions.stopped,key_resp.keys,instr_done_touch.x,instr_done_touch.y,instr_done_touch.leftButton,instr_done_touch.midButton,instr_done_touch.rightButton,instr_done_touch.clicked_name,start_instr.thisRepN,start_instr.thisTrialN,start_instr.thisN,start_instr.thisIndex,start_instr.ran,pageN,phase,instruct_text,has_image,instruct_image,showProgress.started,showProgress.stopped,fix.started,fix.stopped,prac.started,prac.stopped,response.keys,response.corr,response.rt,response.duration,touch_resp.x,touch_resp.y,touch_resp.leftButton,touch_resp.midButton,touch_resp.rightButton,touch_resp.time,touch_resp.clicked_name,rt,corr,feedback.started,feedback.stopped,trials.thisRepN,trials.thisTrialN,trials.thisN,trials.thisIndex,trials.ran,TrialID,StimulusType,Condition,PrimeDuration,Prime,Target,corrAns,Instructions_expt.started,Instructions_expt.stopped,key_resp_3.keys,instr_done_touch_3.x,instr_done_touch_3.y,instr_done_touch_3.leftButton,instr_done_touch_3.midButton,instr_done_touch_3.rightButton,instr_done_touch_3.clicked_name,instr_experiment.thisRepN,instr_experiment.thisTrialN,instr_experiment.thisN,instr_experiment.thisIndex,instr_experiment.ran,trialID,flag,maintask.started,maintask.stopped,key_resp_2.keys,key_resp_2.corr,key_resp_2.rt,key_resp_2.duration,targ_click.x,targ_click.y,targ_click.leftButton,targ_click.midButton,targ_click.rightButton,targ_click.time,targ_click.clicked_name,ITI.started,ITI.stopped,probe.started,probe.stopped,click_probe.x,click_probe.y,click_probe.leftButton,click_probe.midButton,click_probe.rightButton,click_probe.time,click_probe.clicked_name,key_resp_probe.keys,Break.started,Break.stopped,break_done_touch.x,break_done_touch.y,break_done_touch.leftButton,break_done_touch.midButton,break_done_touch.rightButton,break_done_keyboard.keys,list4_trials.thisRepN,list4_trials.thisTrialN,list4_trials.thisN,list4_trials.thisIndex,list4_trials.ran,list_id,item_type,string,font,stim_file,key_resp_probe.rt,key_resp_probe.duration,break_done_keyboard.rt,break_done_keyboard.duration,End.started,End.stopped
list4,,5.3837,5.3837,32184,001,2025-11-06_12h39.11.900,HW_LDT_1,2024.2.4,Win32,119.047619,,,,,,,,,,,,,,,,,,,,,,,,,,,,,,,,,,,,,,,,,,,,,,,,,,,,,,,,,,,,,,,,,,,,,,,,,,,,,,,,,,,,,,,,,,,,,,,,,,,,,,,,,,,,,,,,,,,,,
,,,,32184,001,2025-11-06_12h39.11.900,HW_LDT_1,2024.2.4,Win32,119.047619,5.3914,35.6565,,0.034444444,-0.396111111,1,0,0,instr_done_button,0,0,0,0,1,1,instructions,"INSTRUCTIONS
At the start of each trial, look at the plus sign  (+) in the center of the screen.  This tells you that a trial is about to begin and where to look. Second, the plus sign will disappear and a string of letters will appear. Your task is to determine if the string of letters is a word or not. If the item is a word press the M key (on keyboard)  or touch the word button (phone/tablet).  If the item is not a word,  press the  Z key (on keyboard)  or touch the nonword button (on phone/tablet). The items will be presented for a short time. 
Press the space bar or touch  continue.",0,,,,,,,,,,,,,,,,,,,,,,,,,,,,,,,,,,,,,,,,,,,,,,,,,,,,,,,,,,,,,,,,,,,,,,,,,,,,,,,,,,,,,,,,,,,,,,,,,,,
,,,,32184,001,2025-11-06_12h39.11.900,HW_LDT_1,2024.2.4,Win32,119.047619,35.6579,40.3311,,0.034444444,-0.396111111,1,0,0,instr_done_button,0,1,1,1,1,2,instructions,"If your device has a keyboard, press the 'Z' key for nonwords and the 'M' key for words.





Press the space bar or touch the button below to continue.",0,keyboard-example.gif,,,,,,,,,,,,,,,,,,,,,,,,,,,,,,,,,,,,,,,,,,,,,,,,,,,,,,,,,,,,,,,,,,,,,,,,,,,,,,,,,,,,,,,,,,,,,,,,,,
,,,,32184,001,2025-11-06_12h39.11.900,HW_LDT_1,2024.2.4,Win32,119.047619,40.3327,42.0647,,-0.057777778,-0.397222222,1,0,0,instr_done_button,0,2,2,2,1,3,instructions,"If you are using a touchscreen only device, use the buttons on the screen. Do not use the mouse.





Press the space bar or touch the button below to continue.",0,touchscreen-example.gif,,,,,,,,,,,,,,,,,,,,,,,,,,,,,,,,,,,,,,,,,,,,,,,,,,,,,,,,,,,,,,,,,,,,,,,,,,,,,,,,,,,,,,,,,,,,,,,,,,
,,,,32184,001,2025-11-06_12h39.11.900,HW_LDT_1,2024.2.4,Win32,119.047619,42.0665,60.6074,,-0.052222222,-0.414444444,1,0,0,instr_done_button,0,3,3,3,1,4,instructions,"It is very important that you respond as quickly and accurately as possible, as each letter string will only be on the screen for two seconds. If you do not respond within this time, the message 'Too slow!' will be displayed and the experiment will progress to the next letter string. The first 20 trials will be practice trials and you will receive feedback on your answers. 

Press the space bar or touch the button below to start the practice trials.",0,,,,,,,,,,,,,,,,,,,,,,,,,,,,,,,,,,,,,,,,,,,,,,,,,,,,,,,,,,,,,,,,,,,,,,,,,,,,,,,,,,,,,,,,,,,,,,,,,,,
,,,,32184,001,2025-11-06_12h39.11.900,HW_LDT_1,2024.2.4,Win32,119.047619,,,,,,,,,,,,,,,,,,,,60.6248,60.8078,60.808,61.3084,61.3085,62.5827,m,1,1.259,0.0029,[],[],[],[],[],[],[],1.259,1,62.583,63.0833,0,0,0,3,1,1004,WORD,"ID",16,matrix,MATRIX,m,,,,,,,,,,,,,,,,,,,,,,,,,,,,,,,,,,,,,,,,,,,,,,,,,,,,,,,,,,,,,,,,,
,,,,32184,001,2025-11-06_12h39.11.900,HW_LDT_1,2024.2.4,Win32,119.047619,,,,,,,,,,,,,,,,,,,,63.0845,63.2826,63.2826,63.7831,63.7843,64.6749,z,1,0.8758,,[],[],[],[],[],[],[],0.8758,1,64.6751,65.175,0,1,1,8,1,1009,NW,"ID",33,aslert,ASLERT,z,,,,,,,,,,,,,,,,,,,,,,,,,,,,,,,,,,,,,,,,,,,,,,,,,,,,,,,,,,,,,,,,,
,,,,32184,001,2025-11-06_12h39.11.900,HW_LDT_1,2024.2.4,Win32,119.047619,,,,,,,,,,,,,,,,,,,,65.176,65.3749,65.375,65.8747,65.876,66.8667,z,1,0.976,,[],[],[],[],[],[],[],0.976,1,66.8668,67.3665,0,2,2,9,1,1010,NW,"ID",33,fariny,FARINY,z,,,,,,,,,,,,,,,,,,,,,,,,,,,,,,,,,,,,,,,,,,,,,,,,,,,,,,,,,,,,,,,,,
,,,,32184,001,2025-11-06_12h39.11.900,HW_LDT_1,2024.2.4,Win32,119.047619,,,,,,,,,,,,,,,,,,,,67.3678,67.5661,67.5661,68.0677,68.0689,68.616,m,1,0.5381,,[],[],[],[],[],[],[],0.5381,1,68.616,69.1165,0,3,3,1,1,1002,WORD,"ID",33,adjust,ADJUST,m,,,,,,,,,,,,,,,,,,,,,,,,,,,,,,,,,,,,,,,,,,,,,,,,,,,,,,,,,,,,,,,,,
,,,,32184,001,2025-11-06_12h39.11.900,HW_LDT_1,2024.2.4,Win32,119.047619,,,,,,,,,,,,,,,,,,,,69.1176,69.3169,69.317,69.8162,69.8168,70.6084,z,1,0.774,,[],[],[],[],[],[],[],0.774,1,70.6085,71.1083,0,4,4,11,1,1012,NW,"ID",16,rashet,RASHET,z,,,,,,,,,,,,,,,,,,,,,,,,,,,,,,,,,,,,,,,,,,,,,,,,,,,,,,,,,,,,,,,,,
,,,,32184,001,2025-11-06_12h39.11.900,HW_LDT_1,2024.2.4,Win32,119.047619,,,,,,,,,,,,,,,,,,,,71.1094,71.3094,71.3094,71.8085,71.8095,72.4753,m,1,0.6514,,[],[],[],[],[],[],[],0.6514,1,72.4755,72.9752,0,5,5,0,1,1001,WORD,"ID",33,utopia,UTOPIA,m,,,,,,,,,,,,,,,,,,,,,,,,,,,,,,,,,,,,,,,,,,,,,,,,,,,,,,,,,,,,,,,,,
,,,,32184,001,2025-11-06_12h39.11.900,HW_LDT_1,2024.2.4,Win32,119.047619,,,,,,,,,,,,,,,,,,,,72.9764,73.175,73.175,73.6754,73.6761,74.2591,m,1,0.5694,,[],[],[],[],[],[],[],0.5694,1,74.2592,74.7585,0,6,6,2,1,1003,WORD,"ID",16,almond,ALMOND,m,,,,,,,,,,,,,,,,,,,,,,,,,,,,,,,,,,,,,,,,,,,,,,,,,,,,,,,,,,,,,,,,,
,,,,32184,001,2025-11-06_12h39.11.900,HW_LDT_1,2024.2.4,Win32,119.047619,,,,,,,,,,,,,,,,,,,,74.7596,74.9587,74.9588,75.4581,75.4589,76.067,m,1,0.593,,[],[],[],[],[],[],[],0.593,1,76.0671,76.5668,0,7,7,5,1,1006,WORD,UN,33,frenzy,OBTAIN,m,,,,,,,,,,,,,,,,,,,,,,,,,,,,,,,,,,,,,,,,,,,,,,,,,,,,,,,,,,,,,,,,,
,,,,32184,001,2025-11-06_12h39.11.900,HW_LDT_1,2024.2.4,Win32,119.047619,,,,,,,,,,,,,,,,,,,,76.5681,76.767,76.767,77.2677,77.2682,78.0341,z,1,0.7523,,[],[],[],[],[],[],[],0.7523,1,78.0343,78.5339,0,8,8,15,1,1016,NW,UN,16,mushed,WHAISE,z,,,,,,,,,,,,,,,,,,,,,,,,,,,,,,,,,,,,,,,,,,,,,,,,,,,,,,,,,,,,,,,,,
,,,,32184,001,2025-11-06_12h39.11.900,HW_LDT_1,2024.2.4,Win32,119.047619,,,,,,,,,,,,,,,,,,,,78.5349,78.7341,78.7341,79.2349,79.2354,80.0339,m,0,0.7828,,[],[],[],[],[],[],[],0.7828,0,80.0346,80.5334,0,9,9,12,1,1013,NW,UN,33,adveil,SPRINY,z,,,,,,,,,,,,,,,,,,,,,,,,,,,,,,,,,,,,,,,,,,,,,,,,,,,,,,,,,,,,,,,,,
,,,,32184,001,2025-11-06_12h39.11.900,HW_LDT_1,2024.2.4,Win32,119.047619,,,,,,,,,,,,,,,,,,,,80.5342,80.734,80.734,81.2341,81.2351,81.7669,m,1,0.5206,,[],[],[],[],[],[],[],0.5206,1,81.7675,82.2672,0,10,10,7,1,1008,WORD,UN,16,hurdle,VOLUME,m,,,,,,,,,,,,,,,,,,,,,,,,,,,,,,,,,,,,,,,,,,,,,,,,,,,,,,,,,,,,,,,,,
,,,,32184,001,2025-11-06_12h39.11.900,HW_LDT_1,2024.2.4,Win32,119.047619,,,,,,,,,,,,,,,,,,,,82.2684,82.4679,82.468,82.968,82.9691,83.6254,m,1,0.6428,,[],[],[],[],[],[],[],0.6428,1,83.6255,84.1256,0,11,11,4,1,1005,WORD,UN,33,abound,SQUEAK,m,,,,,,,,,,,,,,,,,,,,,,,,,,,,,,,,,,,,,,,,,,,,,,,,,,,,,,,,,,,,,,,,,
,,,,32184,001,2025-11-06_12h39.11.900,HW_LDT_1,2024.2.4,Win32,119.047619,,,,,,,,,,,,,,,,,,,,84.1265,84.3261,84.3262,84.826,84.8266,85.4424,z,1,0.6009,,[],[],[],[],[],[],[],0.6009,1,85.4425,85.9422,0,12,12,14,1,1015,NW,UN,16,miaber,THRALE,z,,,,,,,,,,,,,,,,,,,,,,,,,,,,,,,,,,,,,,,,,,,,,,,,,,,,,,,,,,,,,,,,,
,,,,32184,001,2025-11-06_12h39.11.900,HW_LDT_1,2024.2.4,Win32,119.047619,,,,,,,,,,,,,,,,,,,,85.9427,86.1431,86.1431,86.6425,86.6431,87.8853,z,1,1.226,,[],[],[],[],[],[],[],1.226,1,87.8855,88.3849,0,13,13,10,1,1011,NW,"ID",16,inlade,INLADE,z,,,,,,,,,,,,,,,,,,,,,,,,,,,,,,,,,,,,,,,,,,,,,,,,,,,,,,,,,,,,,,,,,
,,,,32184,001,2025-11-06_12h39.11.900,HW_LDT_1,2024.2.4,Win32,119.047619,,,,,,,,,,,,,,,,,,,,88.3858,88.5842,88.5843,89.0847,89.0852,89.5926,m,1,0.4953,,[],[],[],[],[],[],[],0.4953,1,89.5928,90.0929,0,14,14,6,1,1007,WORD,UN,16,tropic,ZOMBIE,m,,,,,,,,,,,,,,,,,,,,,,,,,,,,,,,,,,,,,,,,,,,,,,,,,,,,,,,,,,,,,,,,,
,,,,32184,001,2025-11-06_12h39.11.900,HW_LDT_1,2024.2.4,Win32,119.047619,,,,,,,,,,,,,,,,,,,,90.094,90.2933,90.2933,90.7931,90.7938,91.7425,z,1,0.9379,,[],[],[],[],[],[],[],0.9379,1,91.7426,92.2436,0,15,15,13,1,1014,NW,UN,33,winfer,ROUPET,z,,,,,,,,,,,,,,,,,,,,,,,,,,,,,,,,,,,,,,,,,,,,,,,,,,,,,,,,,,,,,,,,,
,,,,32184,001,2025-11-06_12h39.11.900,HW_LDT_1,2024.2.4,Win32,119.047619,,,,,,,,,,,,,,,1,end_of_practice,"You have completed the practice trials. During the experimental trials, you will not receive feedback. On some trials you will be asked to report whether the item you just saw was in cursive or print. 
Before you begin, please ensure that you are in a comfortable and quiet location and will not be disturbed for about 15 minutes, as we cannot use your data if you do not complete all the trials. 
 When you are ready to start the experimental trials, please press space or touch the button below.",,,,,,,,,,,,,,,,,,,,,,,,,,,,,,,,,,,,92.2474,109.1027,,-0.089444444,-0.405,1,0,0,instr_done_button_3,0,0,0,0,1,,,,,,,,,,,,,,,,,,,,,,,,,,,,,,,,,,,,,,,,,,,,,,,,,,,
,,,,32184,001,2025-11-06_12h39.11.900,HW_LDT_1,2024.2.4,Win32,119.047619,,,,,,,,,,,,,,,,,,,,109.1111,109.3018,109.3019,109.803,,,,,,,,,,,,,,5.1179,1,,,,,,,,,,,,,,z,,,,,,,,,,,,,,,1,0,109.8039,114.9282,z,1,5.1179,,[],[],[],[],[],[],[],114.9284,116.9276,116.9276,116.9287,[],[],[],[],[],[],[],,116.9289,116.9301,0.081666667,-0.082222222,0,0,0,,0,0,0,61,1,4,TL,lotace,cursive,lotace_c.png,,,,,,
,,,,32184,001,2025-11-06_12h39.11.900,HW_LDT_1,2024.2.4,Win32,119.047619,,,,,,,,,,,,,,,,,,,,116.9304,117.1277,117.1277,117.6276,,,,,,,,,,,,,,5.6744,1,,,,,,,,,,,,,,z,,,,,,,,,,,,,,,2,0,117.6279,123.3031,z,1,5.6744,,[],[],[],[],[],[],[],123.3032,125.3037,125.3038,125.304,[],[],[],[],[],[],[],,125.304,125.3041,0.081666667,-0.082222222,0,0,0,,0,1,1,24,1,4,RL,marmipal,cursive,marmipal_c.png,,,,,,
,,,,32184,001,2025-11-06_12h39.11.900,HW_LDT_1,2024.2.4,Win32,119.047619,,,,,,,,,,,,,,,,,,,,125.305,125.5035,125.5036,126.0037,,,,,,,,,,,,,,1.9432,1,,,,,,,,,,,,,,m,,,,,,,,,,,,,,,3,0,126.0043,127.9538,m,1,1.9432,,[],[],[],[],[],[],[],127.9538,129.9539,129.9539,129.9541,[],[],[],[],[],[],[],,129.9541,129.9542,0.081666667,-0.082222222,0,0,0,,0,2,2,140,1,4,word,RELATIVE,print,relative_p.png,,,,,,
,,,,32184,001,2025-11-06_12h39.11.900,HW_LDT_1,2024.2.4,Win32,119.047619,,,,,,,,,,,,,,,,,,,,129.9551,130.1539,130.1539,130.6537,,,,,,,,,,,,,,0.8519,1,,,,,,,,,,,,,,m,,,,,,,,,,,,,,,4,1,130.6542,131.513,m,1,0.8519,,[],[],[],[],[],[],[],131.5131,133.5125,133.5126,136.5218,[],[],[],[],[],[],[],z,136.5218,136.522,0.081666667,-0.082222222,0,0,0,,0,3,3,133,1,4,word,PROVIDE,cursive,provide_c.png,3.0026,,,,,
,,,,32184,001,2025-11-06_12h39.11.900,HW_LDT_1,2024.2.4,Win32,119.047619,,,,,,,,,,,,,,,,,,,,136.5228,136.7211,136.7212,137.2214,,,,,,,,,,,,,,1.102,1,,,,,,,,,,,,,,m,,,,,,,,,,,,,,,5,1,137.2219,138.3293,m,1,1.102,,[],[],[],[],[],[],[],138.3295,140.3296,140.3296,141.8132,[],[],[],[],[],[],[],z,141.8133,141.8134,0.081666667,-0.082222222,0,0,0,,0,4,4,104,1,4,word,DOMINANT,cursive,dominant_c.png,1.4774,,,,,
,,,,32184,001,2025-11-06_12h39.11.900,HW_LDT_1,2024.2.4,Win32,119.047619,,,,,,,,,,,,,,,,,,,,141.8143,142.0129,142.013,142.5132,,,,,,,,,,,,,,1.0972,1,,,,,,,,,,,,,,m,,,,,,,,,,,,,,,6,0,142.5136,143.6125,m,1,1.0972,,[],[],[],[],[],[],[],143.6126,145.6133,145.6134,145.6136,[],[],[],[],[],[],[],,145.6137,145.6138,0.081666667,-0.082222222,0,0,0,,0,5,5,154,1,4,word,STORAGE,print,storage_p.png,,,,,,
,,,,32184,001,2025-11-06_12h39.11.900,HW_LDT_1,2024.2.4,Win32,119.047619,,,,,,,,,,,,,,,,,,,,145.6147,145.8133,145.8134,146.3133,,,,,,,,,,,,,,0.7601,1,,,,,,,,,,,,,,m,,,,,,,,,,,,,,,7,0,146.3137,147.0801,m,1,0.7601,,[],[],[],[],[],[],[],147.0802,149.08,149.0801,149.0802,[],[],[],[],[],[],[],,149.0803,149.0803,0.081666667,-0.082222222,0,0,0,,0,6,6,135,1,4,word,QUALITY,print,quality_p.png,,,,,,
,,,,32184,001,2025-11-06_12h39.11.900,HW_LDT_1,2024.2.4,Win32,119.047619,,,,,,,,,,,,,,,,,,,,149.0811,149.2802,149.2802,149.7796,,,,,,,,,,,,,,0.6114,1,,,,,,,,,,,,,,m,,,,,,,,,,,,,,,8,0,149.7799,150.397,m,1,0.6114,,[],[],[],[],[],[],[],150.397,152.3971,152.3972,152.3972,[],[],[],[],[],[],[],,152.3973,152.3973,0.081666667,-0.082222222,0,0,0,,0,7,7,149,1,4,word,SENATOR,print,senator_p.png,,,,,,
,,,,32184,001,2025-11-06_12h39.11.900,HW_LDT_1,2024.2.4,Win32,119.047619,,,,,,,,,,,,,,,,,,,,152.3981,152.5971,152.5971,153.0965,,,,,,,,,,,,,,15.7634,0,,,,,,,,,,,,,,m,,,,,,,,,,,,,,,9,0,153.0969,168.8641,z,0,15.7634,0.0032,[],[],[],[],[],[],[],168.8643,170.865,170.865,170.8651,[],[],[],[],[],[],[],,170.8652,170.8653,0.081666667,-0.082222222,0,0,0,,0,8,8,138,1,4,word,REFUSAL,cursive,refusal_c.png,,,,,,
,,,,32184,001,2025-11-06_12h39.11.900,HW_LDT_1,2024.2.4,Win32,119.047619,,,,,,,,,,,,,,,,,,,,170.8659,171.0649,171.065,171.5653,,,,,,,,,,,,,,0.8834,1,,,,,,,,,,,,,,m,,,,,,,,,,,,,,,10,1,171.5659,172.4564,m,1,0.8834,,[],[],[],[],[],[],[],172.4564,174.4566,174.4566,175.9154,[],[],[],[],[],[],[],m,175.9155,175.9157,0.081666667,-0.082222222,0,0,0,,0,9,9,120,1,4,word,MILITARY,print,military_p.png,1.4526,,,,,
,,,,32184,001,2025-11-06_12h39.11.900,HW_LDT_1,2024.2.4,Win32,119.047619,,,,,,,,,,,,,,,,,,,,175.9164,176.1148,176.1148,176.6163,,,,,,,,,,,,,,0.6037,1,,,,,,,,,,,,,,m,,,,,,,,,,,,,,,11,0,176.6168,177.224,m,1,0.6037,,[],[],[],[],[],[],[],177.2241,179.2237,179.2238,179.2238,[],[],[],[],[],[],[],,179.2239,179.224,0.081666667,-0.082222222,0,0,0,,0,10,10,95,1,4,word,COMEDY,print,comedy_p.png,,,,,,
,,,,32184,001,2025-11-06_12h39.11.900,HW_LDT_1,2024.2.4,Win32,119.047619,,,,,,,,,,,,,,,,,,,,179.2249,179.4236,179.4237,179.9232,,,,,,,,,,,,,,2.0054,1,,,,,,,,,,,,,,z,,,,,,,,,,,,,,,12,0,179.9236,181.9316,z,1,2.0054,,[],[],[],[],[],[],[],181.9316,183.9321,183.9322,183.9323,[],[],[],[],[],[],[],,183.9323,183.9324,0.081666667,-0.082222222,0,0,0,,0,11,11,43,1,4,RL,rovastic,print,rovastic_p.png,,,,,,
,,,,32184,001,2025-11-06_12h39.11.900,HW_LDT_1,2024.2.4,Win32,119.047619,,,,,,,,,,,,,,,,,,,,183.9332,184.1324,184.1324,184.6331,,,,,,,,,,,,,,7.4515,1,,,,,,,,,,,,,,m,,,,,,,,,,,,,,,13,0,184.6337,192.0909,m,1,7.4515,0.004,[],[],[],[],[],[],[],192.0911,194.0913,194.0913,194.0914,[],[],[],[],[],[],[],,194.0915,194.0915,0.081666667,-0.082222222,0,0,0,,0,12,12,142,1,4,word,REMOTE,cursive,remote_c.png,,,,,,
,,,,32184,001,2025-11-06_12h39.11.900,HW_LDT_1,2024.2.4,Win32,119.047619,,,,,,,,,,,,,,,,,,,,194.0924,194.2913,194.2914,194.791,,,,,,,,,,,,,,6.5887,1,,,,,,,,,,,,,,z,,,,,,,,,,,,,,,14,0,194.7912,201.3827,z,1,6.5887,,[],[],[],[],[],[],[],201.3828,203.3836,203.3837,203.3838,[],[],[],[],[],[],[],,203.3838,203.384,0.081666667,-0.082222222,0,0,0,,0,13,13,26,1,4,RL,mesibine,cursive,mesibine_c.png,,,,,,
,,,,32184,001,2025-11-06_12h39.11.900,HW_LDT_1,2024.2.4,Win32,119.047619,,,,,,,,,,,,,,,,,,,,203.3847,203.5834,203.5834,204.0838,,,,,,,,,,,,,,3.6197,1,,,,,,,,,,,,,,m,,,,,,,,,,,,,,,15,0,204.0841,207.7085,m,1,3.6197,0.0037,[],[],[],[],[],[],[],207.7086,209.7091,209.7093,209.7094,[],[],[],[],[],[],[],,209.7094,209.7095,0.081666667,-0.082222222,0,0,0,,0,14,14,96,1,4,word,CONSIDER,cursive,consider_c.png,,,,,,
,,,,32184,001,2025-11-06_12h39.11.900,HW_LDT_1,2024.2.4,Win32,119.047619,,,,,,,,,,,,,,,,,,,,209.7104,209.9094,209.9094,210.4088,,,,,,,,,,,,,,6.1694,1,,,,,,,,,,,,,,z,,,,,,,,,,,,,,,16,0,210.409,216.5838,z,1,6.1694,0.0046,[],[],[],[],[],[],[],216.5839,218.5846,218.5847,218.5848,[],[],[],[],[],[],[],,218.5848,218.5849,0.081666667,-0.082222222,0,0,0,,0,15,15,4,1,4,RL,betemit,cursive,betemit_c.png,,,,,,
,,,,32184,001,2025-11-06_12h39.11.900,HW_LDT_1,2024.2.4,Win32,119.047619,,,,,,,,,,,,,,,,,,,,218.5862,218.7847,218.7848,219.2843,,,,,,,,,,,,,,0.6061,1,,,,,,,,,,,,,,m,,,,,,,,,,,,,,,17,0,219.2847,219.8923,m,1,0.6061,,[],[],[],[],[],[],[],219.8923,221.8931,221.8932,221.8933,[],[],[],[],[],[],[],,221.8933,221.8934,0.081666667,-0.082222222,0,0,0,,0,16,16,143,1,4,word,REMOVAL,print,removal_p.png,,,,,,
,,,,32184,001,2025-11-06_12h39.11.900,HW_LDT_1,2024.2.4,Win32,119.047619,,,,,,,,,,,,,,,,,,,,221.8943,222.0932,222.0932,222.5933,,,,,,,,,,,,,,1.2357,1,,,,,,,,,,,,,,m,,,,,,,,,,,,,,,18,0,222.5936,223.835,m,1,1.2357,,[],[],[],[],[],[],[],223.835,225.8351,225.8351,225.8353,[],[],[],[],[],[],[],,225.8353,225.8354,0.081666667,-0.082222222,0,0,0,,0,17,17,139,1,4,word,REGULAR,cursive,regular_c.png,,,,,,
,,,,32184,001,2025-11-06_12h39.11.900,HW_LDT_1,2024.2.4,Win32,119.047619,,,,,,,,,,,,,,,,,,,,225.8364,226.0345,226.0345,226.5351,,,,,,,,,,,,,,0.7094,1,,,,,,,,,,,,,,m,,,,,,,,,,,,,,,19,0,226.5355,227.2512,m,1,0.7094,,[],[],[],[],[],[],[],227.2514,229.2519,229.2519,229.252,[],[],[],[],[],[],[],,229.2521,229.2523,0.081666667,-0.082222222,0,0,0,,0,18,18,132,1,4,word,PROPOSAL,print,proposal_p.png,,,,,,
,,,,32184,001,2025-11-06_12h39.11.900,HW_LDT_1,2024.2.4,Win32,119.047619,,,,,,,,,,,,,,,,,,,,229.2531,229.4522,229.4522,229.9519,,,,,,,,,,,,,,0.6389,1,,,,,,,,,,,,,,m,,,,,,,,,,,,,,,20,1,229.9523,230.5934,m,1,0.6389,,[],[],[],[],[],[],[],230.5934,232.5934,232.5935,236.1934,[],[],[],[],[],[],[],z,236.1934,236.1936,0.081666667,-0.082222222,0,0,0,,0,19,19,131,1,4,word,POPULAR,print,popular_p.png,3.5991,,,,,
,,,,32184,001,2025-11-06_12h39.11.900,HW_LDT_1,2024.2.4,Win32,119.047619,,,,,,,,,,,,,,,,,,,,236.1943,236.3936,236.3937,236.894,,,,,,,,,,,,,,1.2938,0,,,,,,,,,,,,,,z,,,,,,,,,,,,,,,21,0,236.8945,238.1936,m,0,1.2938,,[],[],[],[],[],[],[],238.1937,240.1943,240.1945,240.1946,[],[],[],[],[],[],[],,240.1946,240.1947,0.081666667,-0.082222222,0,0,0,,0,20,20,77,1,4,TL,spemicen,cursive,spemicen_c.png,,,,,,
,,,,32184,001,2025-11-06_12h39.11.900,HW_LDT_1,2024.2.4,Win32,119.047619,,,,,,,,,,,,,,,,,,,,240.1957,240.3937,240.3937,240.8943,,,,,,,,,,,,,,7.761,1,,,,,,,,,,,,,,z,,,,,,,,,,,,,,,22,0,240.8946,248.6606,z,1,7.761,0.0039,[],[],[],[],[],[],[],248.6607,250.6611,250.6612,250.6613,[],[],[],[],[],[],[],,250.6613,250.6615,0.081666667,-0.082222222,0,0,0,,0,21,21,13,1,4,RL,crisival,cursive,crisival_c.png,,,,,,
,,,,32184,001,2025-11-06_12h39.11.900,HW_LDT_1,2024.2.4,Win32,119.047619,,,,,,,,,,,,,,,,,,,,250.6622,250.861,250.8611,251.3609,,,,,,,,,,,,,,1.1795,1,,,,,,,,,,,,,,m,,,,,,,,,,,,,,,23,0,251.3612,252.5444,m,1,1.1795,,[],[],[],[],[],[],[],252.5444,254.5452,254.5453,254.5454,[],[],[],[],[],[],[],,254.5454,254.5455,0.081666667,-0.082222222,0,0,0,,0,22,22,157,1,4,word,VALIDITY,print,validity_p.png,,,,,,
,,,,32184,001,2025-11-06_12h39.11.900,HW_LDT_1,2024.2.4,Win32,119.047619,,,,,,,,,,,,,,,,,,,,254.5466,254.7448,254.7449,255.2445,,,,,,,,,,,,,,2.2995,1,,,,,,,,,,,,,,m,,,,,,,,,,,,,,,24,0,255.2451,257.5453,m,1,2.2995,,[],[],[],[],[],[],[],257.5453,259.5449,259.5451,259.5452,[],[],[],[],[],[],[],,259.5453,259.5454,0.081666667,-0.082222222,0,0,0,,0,23,23,115,1,4,word,LOGICAL,print,logical_p.png,,,,,,
,,,,32184,001,2025-11-06_12h39.11.900,HW_LDT_1,2024.2.4,Win32,119.047619,,,,,,,,,,,,,,,,,,,,259.5462,259.7447,259.7448,260.245,,,,,,,,,,,,,,1.115,1,,,,,,,,,,,,,,z,,,,,,,,,,,,,,,25,0,260.246,261.3616,z,1,1.115,,[],[],[],[],[],[],[],261.3617,263.3615,263.3615,263.3616,[],[],[],[],[],[],[],,263.3616,263.3617,0.081666667,-0.082222222,0,0,0,,0,24,24,47,1,4,RL,stopave,print,stopave_p.png,,,,,,
,,,,32184,001,2025-11-06_12h39.11.900,HW_LDT_1,2024.2.4,Win32,119.047619,,,,,,,,,,,,,,,,,,,,263.3624,263.5616,263.5616,264.0616,,,,,,,,,,,,,,1.0709,1,,,,,,,,,,,,,,z,,,,,,,,,,,,,,,26,0,264.062,265.1371,z,1,1.0709,,[],[],[],[],[],[],[],265.1372,267.1369,267.1369,267.137,[],[],[],[],[],[],[],,267.137,267.1371,0.081666667,-0.082222222,0,0,0,,0,25,25,25,1,4,RL,macise,print,macise_p.png,,,,,,
,,,,32184,001,2025-11-06_12h39.11.900,HW_LDT_1,2024.2.4,Win32,119.047619,,,,,,,,,,,,,,,,,,,,267.1384,267.3373,267.3373,267.8372,,,,,,,,,,,,,,18.9876,1,,,,,,,,,,,,,,z,,,,,,,,,,,,,,,27,0,267.8377,286.8304,z,1,18.9876,,[],[],[],[],[],[],[],286.8305,288.8301,288.8301,288.8303,[],[],[],[],[],[],[],,288.8304,288.8305,0.081666667,-0.082222222,0,0,0,,0,26,26,17,1,4,RL,denficy,cursive,denficy_c.png,,,,,,
,,,,32184,001,2025-11-06_12h39.11.900,HW_LDT_1,2024.2.4,Win32,119.047619,,,,,,,,,,,,,,,,,,,,288.8316,289.0301,289.0302,289.5299,,,,,,,,,,,,,,1.5179,1,,,,,,,,,,,,,,m,,,,,,,,,,,,,,,28,0,289.5303,291.0554,m,1,1.5179,,[],[],[],[],[],[],[],291.0555,293.0554,293.0555,293.0558,[],[],[],[],[],[],[],,293.0558,293.0559,0.081666667,-0.082222222,0,0,0,,0,27,27,116,1,4,word,MARGINAL,cursive,marginal_c.png,,,,,,
,,,,32184,001,2025-11-06_12h39.11.900,HW_LDT_1,2024.2.4,Win32,119.047619,,,,,,,,,,,,,,,,,,,,293.0569,293.2552,293.2553,293.7551,,,,,,,,,,,,,,2.6228,1,,,,,,,,,,,,,,z,,,,,,,,,,,,,,,29,0,293.7556,296.3803,z,1,2.6228,,[],[],[],[],[],[],[],296.3805,298.3806,298.3806,298.3807,[],[],[],[],[],[],[],,298.3808,298.3808,0.081666667,-0.082222222,0,0,0,,0,28,28,6,1,4,RL,caleberia,cursive,caleberia_c.png,,,,,,
,,,,32184,001,2025-11-06_12h39.11.900,HW_LDT_1,2024.2.4,Win32,119.047619,,,,,,,,,,,,,,,,,,,,298.3816,298.5806,298.5806,299.0806,,,,,,,,,,,,,,1.1624,1,,,,,,,,,,,,,,z,,,,,,,,,,,,,,,30,1,299.0809,300.2473,z,1,1.1624,,[],[],[],[],[],[],[],300.2474,302.2478,302.2478,304.6977,[],[],[],[],[],[],[],z,304.6977,304.6978,0.081666667,-0.082222222,0,0,0,,0,29,29,5,1,4,RL,bebine,print,bebine_p.png,2.4474,,,,,
,,,,32184,001,2025-11-06_12h39.11.900,HW_LDT_1,2024.2.4,Win32,119.047619,,,,,,,,,,,,,,,,,,,,304.699,304.8976,304.8976,305.3978,,,,,,,,,,,,,,1.2766,1,,,,,,,,,,,,,,m,,,,,,,,,,,,,,,31,1,305.3982,306.6811,m,1,1.2766,,[],[],[],[],[],[],[],306.6812,308.6818,308.6818,309.8312,[],[],[],[],[],[],[],m,309.8313,309.8313,0.081666667,-0.082222222,0,0,0,,0,30,30,119,1,4,word,MEMORY,print,memory_p.png,1.1435,,,,,
,,,,32184,001,2025-11-06_12h39.11.900,HW_LDT_1,2024.2.4,Win32,119.047619,,,,,,,,,,,,,,,,,,,,309.8321,310.0312,310.0312,310.5312,,,,,,,,,,,,,,1.4933,1,,,,,,,,,,,,,,m,,,,,,,,,,,,,,,32,1,310.5317,312.0316,m,1,1.4933,,[],[],[],[],[],[],[],312.0317,314.0319,314.032,315.2903,[],[],[],[],[],[],[],m,315.2904,315.2905,0.081666667,-0.082222222,0,0,0,,0,31,31,125,1,4,word,OPERATOR,print,operator_p.png,1.2518,,,,,
,,,,32184,001,2025-11-06_12h39.11.900,HW_LDT_1,2024.2.4,Win32,119.047619,,,,,,,,,,,,,,,,,,,,315.2917,315.4901,315.4901,315.9912,,,,,,,,,,,,,,12.1187,1,,,,,,,,,,,,,,z,,,,,,,,,,,,,,,33,0,315.9915,328.1163,z,1,12.1187,0.0043,[],[],[],[],[],[],[],328.1164,330.1168,330.1168,330.117,[],[],[],[],[],[],[],,330.117,330.1171,0.081666667,-0.082222222,0,0,0,,0,32,32,23,1,4,RL,linefal,cursive,linefal_c.png,,,,,,
,,,,32184,001,2025-11-06_12h39.11.900,HW_LDT_1,2024.2.4,Win32,119.047619,,,,,,,,,,,,,,,,,,,,330.118,330.3167,330.3167,330.8171,,,,,,,,,,,,,,2.8851,1,,,,,,,,,,,,,,z,,,,,,,,,,,,,,,34,0,330.8175,333.708,z,1,2.8851,,[],[],[],[],[],[],[],333.7081,335.7078,335.7079,335.7079,[],[],[],[],[],[],[],,335.708,335.708,0.081666667,-0.082222222,0,0,0,,0,33,33,74,1,4,TL,rerite,print,rerite_p.png,,,,,,
,,,,32184,001,2025-11-06_12h39.11.900,HW_LDT_1,2024.2.4,Win32,119.047619,,,,,,,,,,,,,,,,,,,,335.7087,335.9079,335.9079,336.4087,,,,,,,,,,,,,,1.622,1,,,,,,,,,,,,,,z,,,,,,,,,,,,,,,35,0,336.4091,338.033,z,1,1.622,,[0.08166666666666667],[-0.08222222222222222],[1],[0],[0],[1.5239000000954093],[null],338.0331,340.0334,340.0335,340.0336,[],[],[],[],[],[],[],,340.0337,340.0338,0.081666667,-0.082222222,0,0,0,,0,34,34,42,1,4,RL,revune,print,revune_p.png,,,,,,
,,,,32184,001,2025-11-06_12h39.11.900,HW_LDT_1,2024.2.4,Win32,119.047619,,,,,,,,,,,,,,,,,,,,340.0349,340.2334,340.2334,340.7332,,,,,,,,,,,,,,1.5987,1,,,,,,,,,,,,,,m,,,,,,,,,,,,,,,36,0,340.7336,342.3334,m,1,1.5987,,[],[],[],[],[],[],[],342.3334,344.334,344.3341,344.3342,[],[],[],[],[],[],[],,344.3342,344.3342,0.081666667,-0.082222222,0,0,0,,0,35,35,129,1,4,word,PARENT,cursive,parent_c.png,,,,,,
,,,,32184,001,2025-11-06_12h39.11.900,HW_LDT_1,2024.2.4,Win32,119.047619,,,,,,,,,,,,,,,,,,,,344.335,344.5338,344.5338,345.034,,,,,,,,,,,,,,1.2506,1,,,,,,,,,,,,,,z,,,,,,,,,,,,,,,37,0,345.0343,346.2921,z,1,1.2506,,[],[],[],[],[],[],[],346.2921,348.2922,348.2922,348.2923,[],[],[],[],[],[],[],,348.2923,348.2924,0.081666667,-0.082222222,0,0,0,,0,36,36,65,1,4,TL,orepator,print,orepator_p.png,,,,,,
,,,,32184,001,2025-11-06_12h39.11.900,HW_LDT_1,2024.2.4,Win32,119.047619,,,,,,,,,,,,,,,,,,,,348.2932,348.492,348.4921,348.992,,,,,,,,,,,,,,4.441,1,,,,,,,,,,,,,,z,,,,,,,,,,,,,,,38,0,348.9924,353.4341,z,1,4.441,,[],[],[],[],[],[],[],353.4342,355.4346,355.4347,355.4348,[],[],[],[],[],[],[],,355.4348,355.4348,0.081666667,-0.082222222,0,0,0,,0,37,37,71,1,4,TL,racidal,print,racidal_p.png,,,,,,
,,,,32184,001,2025-11-06_12h39.11.900,HW_LDT_1,2024.2.4,Win32,119.047619,,,,,,,,,,,,,,,,,,,,355.4356,355.6344,355.6345,356.1342,,,,,,,,,,,,,,1.1466,1,,,,,,,,,,,,,,m,,,,,,,,,,,,,,,39,0,356.1346,357.2849,m,1,1.1466,,[],[],[],[],[],[],[],357.2849,359.285,359.285,359.2851,[],[],[],[],[],[],[],,359.2852,359.2852,0.081666667,-0.082222222,0,0,0,,0,38,38,93,1,4,word,CEREMONY,print,ceremony_p.png,,,,,,
,,,,32184,001,2025-11-06_12h39.11.900,HW_LDT_1,2024.2.4,Win32,119.047619,,,,,,,,,,,,,,,,,,,,359.2862,359.4852,359.4852,359.9852,,,,,,,,,,,,,,2.6532,1,,,,,,,,,,,,,,z,,,,,,,,,,,,,,,40,0,359.9857,362.6437,z,1,2.6532,,[],[],[],[],[],[],[],362.6438,364.6432,364.6432,364.6434,[],[],[],[],[],[],[],,364.6435,364.6436,0.081666667,-0.082222222,0,0,0,,0,39,39,59,1,4,TL,fornute,cursive,fornute_c.png,,,,,,
,,,,32184,001,2025-11-06_12h39.11.900,HW_LDT_1,2024.2.4,Win32,119.047619,,,,,,,,,,,,,,,,,,,,364.6443,364.8432,364.8433,365.3432,,,,,,,,,,,,,,2.046,1,,,,,,,,,,,,,,z,,,,,,,,,,,,,,,41,0,365.3437,367.3934,z,1,2.046,,[],[],[],[],[],[],[],367.3934,369.3936,369.3936,369.3938,[],[],[],[],[],[],[],,369.3938,369.3939,0.081666667,-0.082222222,0,0,0,,0,40,40,45,1,4,RL,spetisic,cursive,spetisic_c.png,,,,,,
,,,,32184,001,2025-11-06_12h39.11.900,HW_LDT_1,2024.2.4,Win32,119.047619,,,,,,,,,,,,,,,,,,,,369.3951,369.5937,369.5937,370.0935,,,,,,,,,,,,,,1.0638,1,,,,,,,,,,,,,,m,,,,,,,,,,,,,,,42,0,370.0941,371.1602,m,1,1.0638,,[],[],[],[],[],[],[],371.1602,373.1604,373.1605,373.1606,[],[],[],[],[],[],[],,373.1607,373.1608,0.081666667,-0.082222222,0,0,0,,0,41,41,107,1,4,word,EVIDENT,print,evident_p.png,,,,,,
,,,,32184,001,2025-11-06_12h39.11.900,HW_LDT_1,2024.2.4,Win32,119.047619,,,,,,,,,,,,,,,,,,,,373.1617,373.3604,373.3605,373.8604,,,,,,,,,,,,,,0.7975,1,,,,,,,,,,,,,,m,,,,,,,,,,,,,,,43,0,373.8608,374.6603,m,1,0.7975,,[],[],[],[],[],[],[],374.6604,376.6607,376.6607,376.6609,[],[],[],[],[],[],[],,376.6609,376.661,0.081666667,-0.082222222,0,0,0,,0,42,42,103,1,4,word,DISPUTE,print,dispute_p.png,,,,,,
,,,,32184,001,2025-11-06_12h39.11.900,HW_LDT_1,2024.2.4,Win32,119.047619,,,,,,,,,,,,,,,,,,,,376.6618,376.8606,376.8606,377.3607,,,,,,,,,,,,,,1.1264,1,,,,,,,,,,,,,,m,,,,,,,,,,,,,,,44,0,377.3614,378.4943,m,1,1.1264,,[],[],[],[],[],[],[],378.4944,380.4941,380.4942,380.4942,[],[],[],[],[],[],[],,380.4943,380.4943,0.081666667,-0.082222222,0,0,0,,0,43,43,86,1,4,word,BESIDE,print,beside_p.png,,,,,,
,,,,32184,001,2025-11-06_12h39.11.900,HW_LDT_1,2024.2.4,Win32,119.047619,,,,,,,,,,,,,,,,,,,,380.4952,380.6943,380.6943,381.1942,,,,,,,,,,,,,,0.7342,1,,,,,,,,,,,,,,m,,,,,,,,,,,,,,,45,1,381.1947,381.9362,m,1,0.7342,,[],[],[],[],[],[],[],381.9363,383.936,383.936,385.7781,[],[],[],[],[],[],[],m,385.7781,385.7782,0.081666667,-0.082222222,0,0,0,,0,44,44,122,1,4,word,MOBILE,print,mobile_p.png,1.8398,,,,,
,,,,32184,001,2025-11-06_12h39.11.900,HW_LDT_1,2024.2.4,Win32,119.047619,,,,,,,,,,,,,,,,,,,,385.779,385.9781,385.9781,386.478,,,,,,,,,,,,,,5.943,1,,,,,,,,,,,,,,z,,,,,,,,,,,,,,,46,0,386.4786,392.4281,z,1,5.943,0.0022,[],[],[],[],[],[],[],392.4282,394.4285,394.4285,394.4287,[],[],[],[],[],[],[],,394.4287,394.4288,0.081666667,-0.082222222,0,0,0,,0,45,45,15,1,4,RL,debave,cursive,debave_c.png,,,,,,
,,,,32184,001,2025-11-06_12h39.11.900,HW_LDT_1,2024.2.4,Win32,119.047619,,,,,,,,,,,,,,,,,,,,394.4299,394.6285,394.6285,395.1284,,,,,,,,,,,,,,4.9186,1,,,,,,,,,,,,,,z,,,,,,,,,,,,,,,47,0,395.1288,400.054,z,1,4.9186,,[],[],[],[],[],[],[],400.054,402.054,402.0541,402.0543,[],[],[],[],[],[],[],,402.0543,402.0544,0.081666667,-0.082222222,0,0,0,,0,46,46,49,1,4,RL,vesofity,cursive,vesofity_c.png,,,,,,
,,,,32184,001,2025-11-06_12h39.11.900,HW_LDT_1,2024.2.4,Win32,119.047619,,,,,,,,,,,,,,,,,,,,402.0555,402.254,402.254,402.7542,,,,,,,,,,,,,,0.877,1,,,,,,,,,,,,,,z,,,,,,,,,,,,,,,48,0,402.7548,403.6374,z,1,0.877,,[],[],[],[],[],[],[],403.6375,405.6372,405.6372,405.6374,[],[],[],[],[],[],[],,405.6374,405.6375,0.081666667,-0.082222222,0,0,0,,0,47,47,76,1,4,TL,setanor,print,setanor_p.png,,,,,,
,,,,32184,001,2025-11-06_12h39.11.900,HW_LDT_1,2024.2.4,Win32,119.047619,,,,,,,,,,,,,,,,,,,,405.6382,405.8374,405.8375,406.3375,,,,,,,,,,,,,,1.199,1,,,,,,,,,,,,,,m,,,,,,,,,,,,,,,49,1,406.3379,407.5375,m,1,1.199,,[],[],[],[],[],[],[],407.5376,409.5375,409.5376,410.9463,[],[],[],[],[],[],[],z,410.9463,410.9465,0.081666667,-0.082222222,0,0,0,,0,48,48,83,1,4,word,ANIMAL,cursive,animal_c.png,1.4025,,,,,
,,,,32184,001,2025-11-06_12h39.11.900,HW_LDT_1,2024.2.4,Win32,119.047619,,,,,,,,,,,,,,,,,,,,410.9475,411.1462,411.1462,411.646,,,,,,,,,,,,,,1.051,1,,,,,,,,,,,,,,m,,,,,,,,,,,,,,,50,1,411.6467,412.7047,m,1,1.051,,[],[],[],[],[],[],[],412.7048,414.7049,414.7049,416.4546,[],[],[],[],[],[],[],z,416.4546,416.4548,0.081666667,-0.082222222,0,0,0,,0,49,49,134,1,4,word,QUALIFY,print,qualify_p.png,1.7478,,,,,
,,,,32184,001,2025-11-06_12h39.11.900,HW_LDT_1,2024.2.4,Win32,119.047619,,,,,,,,,,,,,,,,,,,,416.4556,416.6555,416.6555,417.1551,,,,,,,,,,,,,,5.7296,0,,,,,,,,,,,,,,m,,,,,,,,,,,,,,,51,1,417.1555,422.8889,z,0,5.7296,0.0027,[],[],[],[],[],[],[],422.889,424.8888,424.8888,426.1228,[],[],[],[],[],[],[],z,426.123,426.123,0.1,-0.063888889,0,0,0,,0,50,50,113,1,4,word,LITERAL,cursive,literal_c.png,1.2283,,,,,
,,,,32184,001,2025-11-06_12h39.11.900,HW_LDT_1,2024.2.4,Win32,119.047619,,,,,,,,,,,,,,,,,,,,426.1238,426.3222,426.3223,426.8237,,,,,,,,,,,,,,1.2672,1,,,,,,,,,,,,,,m,,,,,,,,,,,,,,,52,0,426.8242,428.0978,m,1,1.2672,,[],[],[],[],[],[],[],428.0979,430.0977,430.0977,430.0978,[],[],[],[],[],[],[],,430.0978,430.0979,0.1,-0.063888889,0,0,0,,0,51,51,144,1,4,word,RESIDENT,cursive,resident_c.png,,,,,,
,,,,32184,001,2025-11-06_12h39.11.900,HW_LDT_1,2024.2.4,Win32,119.047619,,,,,,,,,,,,,,,,,,,,430.0987,430.2979,430.2979,430.7974,,,,,,,,,,,,,,2.4201,1,,,,,,,,,,,,,,z,,,,,,,,,,,,,,,53,0,430.7979,433.2233,z,1,2.4201,,[],[],[],[],[],[],[],433.2235,435.2238,435.2238,435.2239,[],[],[],[],[],[],[],,435.2239,435.224,0.1,-0.063888889,0,0,0,,0,52,52,32,1,4,RL,patisic,cursive,patisic_c.png,,,,,,
,,,,32184,001,2025-11-06_12h39.11.900,HW_LDT_1,2024.2.4,Win32,119.047619,,,,,,,,,,,,,,,,,,,,435.2248,435.4233,435.4234,435.9232,,,,,,,,,,,,,,1.235,1,,,,,,,,,,,,,,m,,,,,,,,,,,,,,,54,0,435.9237,437.165,m,1,1.235,,[],[],[],[],[],[],[],437.1651,439.1644,439.1645,439.1646,[],[],[],[],[],[],[],,439.1647,439.1647,0.1,-0.063888889,0,0,0,,0,53,53,84,1,4,word,BELOVED,print,beloved_p.png,,,,,,
,,,,32184,001,2025-11-06_12h39.11.900,HW_LDT_1,2024.2.4,Win32,119.047619,,,,,,,,,,,,,,,,,,,,439.1656,439.3645,439.3645,439.8645,,,,,,,,,,,,,,1.4529,1,,,,,,,,,,,,,,z,,,,,,,,,,,,,,,55,0,439.865,441.3231,z,1,1.4529,,[],[],[],[],[],[],[],441.3232,443.3231,443.3231,443.3232,[],[],[],[],[],[],[],,443.3232,443.3233,0.1,-0.063888889,0,0,0,,0,54,54,18,1,4,RL,disluge,print,disluge_p.png,,,,,,
,,,,32184,001,2025-11-06_12h39.11.900,HW_LDT_1,2024.2.4,Win32,119.047619,,,,,,,,,,,,,,,,,,,,443.3242,443.5232,443.5232,444.023,,,,,,,,,,,,,,1.3267,1,,,,,,,,,,,,,,z,,,,,,,,,,,,,,,56,0,444.0236,445.3569,z,1,1.3267,,[],[],[],[],[],[],[],445.3569,447.3568,447.3568,447.357,[],[],[],[],[],[],[],,447.357,447.3571,0.1,-0.063888889,0,0,0,,0,55,55,7,1,4,RL,casena,print,casena_p.png,,,,,,
,,,,32184,001,2025-11-06_12h39.11.900,HW_LDT_1,2024.2.4,Win32,119.047619,,,,,,,,,,,,,,,,,,,,447.3581,447.5569,447.557,448.0576,,,,,,,,,,,,,,2.3009,1,,,,,,,,,,,,,,m,,,,,,,,,,,,,,,57,0,448.0581,450.3656,m,1,2.3009,,[],[],[],[],[],[],[],450.3657,452.3652,452.3652,452.3653,[],[],[],[],[],[],[],,452.3653,452.3654,0.1,-0.063888889,0,0,0,,0,56,56,82,1,4,word,AMATEUR,cursive,amateur_c.png,,,,,,
,,,,32184,001,2025-11-06_12h39.11.900,HW_LDT_1,2024.2.4,Win32,119.047619,,,,,,,,,,,,,,,,,,,,452.3661,452.5653,452.5653,453.0654,,,,,,,,,,,,,,2.7185,1,,,,,,,,,,,,,,z,,,,,,,,,,,,,,,58,0,453.0658,455.7908,z,1,2.7185,,[],[],[],[],[],[],[],455.7909,457.7906,457.7907,457.7907,[],[],[],[],[],[],[],,457.7907,457.7909,0.1,-0.063888889,0,0,0,,0,57,57,62,1,4,TL,locigal,print,locigal_p.png,,,,,,
,,,,32184,001,2025-11-06_12h39.11.900,HW_LDT_1,2024.2.4,Win32,119.047619,,,,,,,,,,,,,,,,,,,,457.7917,457.9907,457.9907,458.4906,,,,,,,,,,,,,,2.0098,1,,,,,,,,,,,,,,m,,,,,,,,,,,,,,,59,0,458.4909,460.5077,m,1,2.0098,,[],[],[],[],[],[],[],460.5078,462.5077,462.5077,462.5078,[],[],[],[],[],[],[],,462.5078,462.508,0.1,-0.063888889,0,0,0,,0,58,58,159,1,4,word,VETERAN,cursive,veteran_c.png,,,,,,
,,,,32184,001,2025-11-06_12h39.11.900,HW_LDT_1,2024.2.4,Win32,119.047619,,,,,,,,,,,,,,,,,,,,462.5088,462.7078,462.7078,463.2081,,,,,,,,,,,,,,2.1112,1,,,,,,,,,,,,,,m,,,,,,,,,,,,,,,60,0,463.2086,465.3246,m,1,2.1112,,[],[],[],[],[],[],[],465.3246,467.3246,467.3246,467.3248,[],[],[],[],[],[],[],,467.3249,467.325,0.1,-0.063888889,0,0,0,,0,59,59,147,1,4,word,ROMANTIC,print,romantic_p.png,,,,,,
,,,,32184,001,2025-11-06_12h39.11.900,HW_LDT_1,2024.2.4,Win32,119.047619,,,,,,,,,,,,,,,,,,,,467.3261,467.5247,467.5247,468.0249,,,,,,,,,,,,,,5.8431,0,,,,,,,,,,,,,,z,,,,,,,,,,,,,,,61,0,468.0253,473.8754,m,0,5.8431,0.0015,[],[],[],[],[],[],[],473.8754,475.8753,475.8754,475.8756,[],[],[],[],[],[],[],,475.8756,475.8757,0.1,-0.063888889,0,0,0,,0,60,60,51,1,4,TL,adsivory,cursive,adsivory_c.png,,,,,,
,,,,32184,001,2025-11-06_12h39.11.900,HW_LDT_1,2024.2.4,Win32,119.047619,,,,,,,,,,,,,,,,,,,,475.8766,476.0751,476.0752,476.5752,,,,,,,,,,,,,,2.0558,1,,,,,,,,,,,,,,m,,,,,,,,,,,,,,,62,1,476.5757,478.6336,m,1,2.0558,,[],[],[],[],[],[],[],478.6337,480.6345,480.6346,483.6093,[],[],[],[],[],[],[],z,483.6094,483.6094,0.1,-0.063888889,0,0,0,,0,61,61,106,1,4,word,ELABORATE,cursive,elaborate_c.png,2.9691,,,,,
,,,,32184,001,2025-11-06_12h39.11.900,HW_LDT_1,2024.2.4,Win32,119.047619,,,,,,,,,,,,,,,,,,,,483.6103,483.8089,483.8089,484.3089,,,,,,,,,,,,,,1.1545,1,,,,,,,,,,,,,,m,,,,,,,,,,,,,,,63,0,484.3092,485.4677,m,1,1.1545,,[],[],[],[],[],[],[],485.4678,487.4675,487.4675,487.4676,[],[],[],[],[],[],[],,487.4676,487.4677,0.1,-0.063888889,0,0,0,,0,62,62,152,1,4,word,SPECIMEN,cursive,specimen_c.png,,,,,,
,,,,32184,001,2025-11-06_12h39.11.900,HW_LDT_1,2024.2.4,Win32,119.047619,,,,,,,,,,,,,,,,,,,,487.4686,487.6676,487.6676,488.1679,,,,,,,,,,,,,,0.9764,1,,,,,,,,,,,,,,m,,,,,,,,,,,,,,,64,0,488.1685,489.1513,m,1,0.9764,,[],[],[],[],[],[],[],489.1513,491.1511,491.1512,491.1512,[],[],[],[],[],[],[],,491.1513,491.1513,0.1,-0.063888889,0,0,0,,0,63,63,90,1,4,word,CAPITAL,print,capital_p.png,,,,,,
,,,,32184,001,2025-11-06_12h39.11.900,HW_LDT_1,2024.2.4,Win32,119.047619,,,,,,,,,,,,,,,,,,,,491.152,491.3513,491.3513,491.8511,,,,,,,,,,,,,,7.4853,0,,,,,,,,,,,,,,z,,,,,,,,,,,,,,,65,1,491.8515,499.3435,m,0,7.4853,0.0013,[],[],[],[],[],[],[],499.3436,501.3434,501.3435,502.9436,[],[],[],[],[],[],[],z,502.9437,502.9438,0.1,-0.063888889,0,0,0,,0,64,64,2,1,4,RL,asiral,cursive,asiral_c.png,1.5935,,,,,
,,,,32184,001,2025-11-06_12h39.11.900,HW_LDT_1,2024.2.4,Win32,119.047619,,,,,,,,,,,,,,,,,,,,502.9446,503.1437,503.1438,503.6436,,,,,,,,,,,,,,2.9857,1,,,,,,,,,,,,,,z,,,,,,,,,,,,,,,66,0,503.6441,506.6361,z,1,2.9857,,[],[],[],[],[],[],[],506.6361,508.6359,508.636,508.636,[],[],[],[],[],[],[],,508.636,508.636,0.1,-0.063888889,0,0,0,,0,65,65,46,1,4,RL,skofen,cursive,skofen_c.png,,,,,,
,,,,32184,001,2025-11-06_12h39.11.900,HW_LDT_1,2024.2.4,Win32,119.047619,,,,,,,,,,,,,,,,,,,,508.6367,508.8358,508.8358,509.3363,,,,,,,,,,,,,,0.7554,1,,,,,,,,,,,,,,m,,,,,,,,,,,,,,,67,1,509.3369,510.0941,m,1,0.7554,,[],[],[],[],[],[],[],510.0942,512.0952,512.0953,514.0114,[],[],[],[],[],[],[],z,514.0114,514.0115,0.1,-0.063888889,0,0,0,,0,66,66,156,1,4,word,TRIBUTE,print,tribute_p.png,1.9122,,,,,
,,,,32184,001,2025-11-06_12h39.11.900,HW_LDT_1,2024.2.4,Win32,119.047619,,,,,,,,,,,,,,,,,,,,514.012,514.211,514.211,514.7112,,,,,,,,,,,,,,1.1695,1,,,,,,,,,,,,,,m,,,,,,,,,,,,,,,68,0,514.7115,515.8871,m,1,1.1695,,[],[],[],[],[],[],[],515.8872,517.8862,517.8863,517.8864,[],[],[],[],[],[],[],,517.8865,517.8865,0.1,-0.063888889,0,0,0,,0,67,67,136,1,4,word,RADICAL,print,radical_p.png,,,,,,
,,,,32184,001,2025-11-06_12h39.11.900,HW_LDT_1,2024.2.4,Win32,119.047619,,,,,,,,,,,,,,,,,,,,517.8872,518.0863,518.0864,518.5862,,,,,,,,,,,,,,0.851,1,,,,,,,,,,,,,,m,,,,,,,,,,,,,,,69,0,518.5868,519.4448,m,1,0.851,,[],[],[],[],[],[],[],519.4449,521.4447,521.4447,521.4449,[],[],[],[],[],[],[],,521.4449,521.445,0.1,-0.063888889,0,0,0,,0,68,68,158,1,4,word,VELOCITY,cursive,velocity_c.png,,,,,,
,,,,32184,001,2025-11-06_12h39.11.900,HW_LDT_1,2024.2.4,Win32,119.047619,,,,,,,,,,,,,,,,,,,,521.4458,521.6446,521.6447,522.145,,,,,,,,,,,,,,0.9594,1,,,,,,,,,,,,,,z,,,,,,,,,,,,,,,70,0,522.1456,523.1118,z,1,0.9594,,[],[],[],[],[],[],[],523.112,525.1115,525.1116,525.1117,[],[],[],[],[],[],[],,525.1117,525.1117,0.1,-0.063888889,0,0,0,,0,69,69,64,1,4,TL,moredate,print,moredate_p.png,,,,,,
,,,,32184,001,2025-11-06_12h39.11.900,HW_LDT_1,2024.2.4,Win32,119.047619,,,,,,,,,,,,,,,,,,,,525.1126,525.3116,525.3116,525.8119,,,,,,,,,,,,,,1.3449,1,,,,,,,,,,,,,,z,,,,,,,,,,,,,,,71,0,525.8122,527.162,z,1,1.3449,,[],[],[],[],[],[],[],527.1621,529.162,529.162,529.162,[],[],[],[],[],[],[],,529.1621,529.1621,0.1,-0.063888889,0,0,0,,0,70,70,40,1,4,RL,reconal,print,reconal_p.png,,,,,,
,,,,32184,001,2025-11-06_12h39.11.900,HW_LDT_1,2024.2.4,Win32,119.047619,,,,,,,,,,,,,,,,,,,,529.1626,529.3625,529.3626,529.8636,,,,,,,,,,,,,,1.8834,1,,,,,,,,,,,,,,m,,,,,,,,,,,,,,,72,0,529.8641,531.754,m,1,1.8834,,[],[],[],[],[],[],[],531.7541,533.7541,533.7541,533.7543,[],[],[],[],[],[],[],,533.7543,533.7544,0.1,-0.063888889,0,0,0,,0,71,71,97,1,4,word,COVERAGE,cursive,coverage_c.png,,,,,,
,,,,32184,001,2025-11-06_12h39.11.900,HW_LDT_1,2024.2.4,Win32,119.047619,,,,,,,,,,,,,,,,,,,,533.7554,533.9538,533.9538,534.454,,,,,,,,,,,,,,2.6632,1,,,,,,,,,,,,,,m,,,,,,,,,,,,,,,73,0,534.4546,537.1209,m,1,2.6632,,[],[],[],[],[],[],[],537.121,539.1207,539.1207,539.1209,[],[],[],[],[],[],[],,539.1209,539.121,0.1,-0.063888889,0,0,0,,0,72,72,81,1,4,word,ADVISORY,cursive,advisory_c.png,,,,,,
,,,,32184,001,2025-11-06_12h39.11.900,HW_LDT_1,2024.2.4,Win32,119.047619,,,,,,,,,,,,,,,,,,,,539.1218,539.3211,539.3211,539.821,,,,,,,,,,,,,,1.5121,1,,,,,,,,,,,,,,z,,,,,,,,,,,,,,,74,0,539.8214,541.3378,z,1,1.5121,,[],[],[],[],[],[],[],541.3379,543.3379,543.3379,543.3381,[],[],[],[],[],[],[],,543.3381,543.3383,0.1,-0.063888889,0,0,0,,0,73,73,36,1,4,RL,rabigly,cursive,rabigly_c.png,,,,,,
,,,,32184,001,2025-11-06_12h39.11.900,HW_LDT_1,2024.2.4,Win32,119.047619,,,,,,,,,,,,,,,,,,,,543.3394,543.538,543.5381,544.0379,,,,,,,,,,,,,,2.4521,1,,,,,,,,,,,,,,z,,,,,,,,,,,,,,,75,0,544.0383,546.4967,z,1,2.4521,,[],[],[],[],[],[],[],546.4967,548.4964,548.4964,548.4965,[],[],[],[],[],[],[],,548.4965,548.4965,0.1,-0.063888889,0,0,0,,0,74,74,39,1,4,RL,relone,cursive,relone_c.png,,,,,,
,,,,32184,001,2025-11-06_12h39.11.900,HW_LDT_1,2024.2.4,Win32,119.047619,,,,,,,,,,,,,,,,,,,,548.4973,548.6967,548.6967,549.1968,,,,,,,,,,,,,,1.5456,1,,,,,,,,,,,,,,z,,,,,,,,,,,,,,,76,0,549.1972,550.7467,z,1,1.5456,,[],[],[],[],[],[],[],550.7468,552.7469,552.7469,552.7471,[],[],[],[],[],[],[],,552.7471,552.7471,0.1,-0.063888889,0,0,0,,0,75,75,72,1,4,TL,relugar,cursive,relugar_c.png,,,,,,
,,,,32184,001,2025-11-06_12h39.11.900,HW_LDT_1,2024.2.4,Win32,119.047619,,,,,,,,,,,,,,,,,,,,552.7478,552.9471,552.9471,553.4468,,,,,,,,,,,,,,0.9178,1,,,,,,,,,,,,,,m,,,,,,,,,,,,,,,77,0,553.4473,554.3656,m,1,0.9178,,[],[],[],[],[],[],[],554.3657,556.3638,556.3639,556.364,[],[],[],[],[],[],[],,556.364,556.3641,0.1,-0.063888889,0,0,0,,0,76,76,100,1,4,word,DECADE,cursive,decade_c.png,,,,,,
,,,,32184,001,2025-11-06_12h39.11.900,HW_LDT_1,2024.2.4,Win32,119.047619,,,,,,,,,,,,,,,,,,,,556.3651,556.5638,556.5638,557.0636,,,,,,,,,,,,,,1.0154,1,,,,,,,,,,,,,,m,,,,,,,,,,,,,,,78,0,557.0641,558.0804,m,1,1.0154,,[],[],[],[],[],[],[],558.0804,560.0804,560.0804,560.0805,[],[],[],[],[],[],[],,560.0805,560.0806,0.1,-0.063888889,0,0,0,,0,77,77,111,1,4,word,INDICATE,print,indicate_p.png,,,,,,
,,,,32184,001,2025-11-06_12h39.11.900,HW_LDT_1,2024.2.4,Win32,119.047619,,,,,,,,,,,,,,,,,,,,560.0815,560.2806,560.2806,560.7805,,,,,,,,,,,,,,1.5705,1,,,,,,,,,,,,,,z,,,,,,,,,,,,,,,79,1,560.7809,562.3563,z,1,1.5705,,[],[],[],[],[],[],[],562.3564,564.3558,564.3559,565.3894,[],[],[],[],[],[],[],z,565.3895,565.3895,0.1,-0.063888889,0,0,0,,0,78,78,8,1,4,RL,casagity,cursive,casagity_c.png,1.0277,,,,,
,,,,32184,001,2025-11-06_12h39.11.900,HW_LDT_1,2024.2.4,Win32,119.047619,,,,,,,,,,,,,,,,,,,,565.3905,565.5896,565.5896,566.0892,,,,,,,,,,,,,,0.998,1,,,,,,,,,,,,,,z,,,,,,,,,,,,,,,80,1,566.0896,567.0893,z,1,0.998,,[],[],[],[],[],[],[],567.0893,569.0894,569.0894,569.9313,[],[],[],[],[],[],[],m,569.9314,619.7847,0.1,-0.063888889,0,0,0,space,0,79,79,31,1,4,RL,orimipal,print,orimipal_p.png,0.8356,,49.8373,0.0048,,
,,,,32184,001,2025-11-06_12h39.11.900,HW_LDT_1,2024.2.4,Win32,119.047619,,,,,,,,,,,,,,,,,,,,619.7854,619.9852,619.9853,620.4846,,,,,,,,,,,,,,2.907,1,,,,,,,,,,,,,,z,,,,,,,,,,,,,,,81,0,620.4851,623.3933,z,1,2.907,,[],[],[],[],[],[],[],623.3933,625.3942,625.3942,625.3944,[],[],[],[],[],[],[],,625.3945,625.3945,0.1,-0.063888889,0,0,0,,0,80,80,19,1,4,RL,elacodate,cursive,elacodate_c.png,,,,,,
,,,,32184,001,2025-11-06_12h39.11.900,HW_LDT_1,2024.2.4,Win32,119.047619,,,,,,,,,,,,,,,,,,,,625.3955,625.5938,625.5938,626.0939,,,,,,,,,,,,,,1.755,1,,,,,,,,,,,,,,m,,,,,,,,,,,,,,,82,0,626.0943,627.8515,m,1,1.755,,[],[],[],[],[],[],[],627.8515,629.8524,629.8524,629.8526,[],[],[],[],[],[],[],,629.8526,629.8527,0.1,-0.063888889,0,0,0,,0,81,81,112,1,4,word,LIBERAL,cursive,liberal_c.png,,,,,,
,,,,32184,001,2025-11-06_12h39.11.900,HW_LDT_1,2024.2.4,Win32,119.047619,,,,,,,,,,,,,,,,,,,,629.8537,630.0524,630.0524,630.5528,,,,,,,,,,,,,,1.164,1,,,,,,,,,,,,,,z,,,,,,,,,,,,,,,83,0,630.5532,631.7186,z,1,1.164,,[],[],[],[],[],[],[],631.7187,633.7193,633.7193,633.7195,[],[],[],[],[],[],[],,633.7195,633.7196,0.1,-0.063888889,0,0,0,,0,82,82,68,1,4,TL,prosopal,print,prosopal_p.png,,,,,,
,,,,32184,001,2025-11-06_12h39.11.900,HW_LDT_1,2024.2.4,Win32,119.047619,,,,,,,,,,,,,,,,,,,,633.7205,633.9196,633.9196,634.4194,,,,,,,,,,,,,,6.1533,1,,,,,,,,,,,,,,z,,,,,,,,,,,,,,,84,1,634.4199,640.5774,z,1,6.1533,0.0031,[],[],[],[],[],[],[],640.5774,642.578,642.578,644.253,[],[],[],[],[],[],[],z,644.2531,644.2532,0.1,-0.063888889,0,0,0,,0,83,83,30,1,4,RL,nunewical,cursive,nunewical_c.png,1.6693,,,,,
,,,,32184,001,2025-11-06_12h39.11.900,HW_LDT_1,2024.2.4,Win32,119.047619,,,,,,,,,,,,,,,,,,,,644.2541,644.4534,644.4534,644.9533,,,,,,,,,,,,,,3.4922,1,,,,,,,,,,,,,,m,,,,,,,,,,,,,,,85,1,644.9538,648.4532,m,1,3.4922,,[],[],[],[],[],[],[],648.4532,650.4534,650.4534,651.7791,[],[],[],[],[],[],[],z,651.7791,651.7792,0.1,-0.063888889,0,0,0,,0,84,84,85,1,4,word,BENEFIT,cursive,benefit_c.png,1.3202,,,,,
,,,,32184,001,2025-11-06_12h39.11.900,HW_LDT_1,2024.2.4,Win32,119.047619,,,,,,,,,,,,,,,,,,,,651.7801,651.9783,651.9783,652.4785,,,,,,,,,,,,,,2.3316,0,,,,,,,,,,,,,,m,,,,,,,,,,,,,,,86,0,652.4787,654.8116,z,0,2.3316,,[],[],[],[],[],[],[],654.8116,656.8122,656.8122,656.8124,[],[],[],[],[],[],[],,656.8124,656.8125,0.1,-0.063888889,0,0,0,,0,85,85,108,1,4,word,FORTUNE,cursive,fortune_c.png,,,,,,
,,,,32184,001,2025-11-06_12h39.11.900,HW_LDT_1,2024.2.4,Win32,119.047619,,,,,,,,,,,,,,,,,,,,656.8133,657.0126,657.0126,657.5124,,,,,,,,,,,,,,0.9008,1,,,,,,,,,,,,,,m,,,,,,,,,,,,,,,87,0,657.5128,658.4203,m,1,0.9008,,[],[],[],[],[],[],[],658.4203,660.4211,660.4212,660.4214,[],[],[],[],[],[],[],,660.4214,660.4214,0.1,-0.063888889,0,0,0,,0,86,86,94,1,4,word,CLINICAL,print,clinical_p.png,,,,,,
,,,,32184,001,2025-11-06_12h39.11.900,HW_LDT_1,2024.2.4,Win32,119.047619,,,,,,,,,,,,,,,,,,,,660.4222,660.621,660.621,661.1214,,,,,,,,,,,,,,0.6683,1,,,,,,,,,,,,,,m,,,,,,,,,,,,,,,88,0,661.1219,661.7963,m,1,0.6683,,[],[],[],[],[],[],[],661.7965,663.7959,663.7959,663.796,[],[],[],[],[],[],[],,663.7961,663.7961,0.1,-0.063888889,0,0,0,,0,87,87,155,1,4,word,STRATEGY,print,strategy_p.png,,,,,,
,,,,32184,001,2025-11-06_12h39.11.900,HW_LDT_1,2024.2.4,Win32,119.047619,,,,,,,,,,,,,,,,,,,,663.7969,663.996,663.996,664.4958,,,,,,,,,,,,,,0.944,1,,,,,,,,,,,,,,z,,,,,,,,,,,,,,,89,0,664.4959,665.4463,z,1,0.944,,[],[],[],[],[],[],[],665.4464,667.4466,667.4467,667.4469,[],[],[],[],[],[],[],,667.4469,667.4469,0.1,-0.063888889,0,0,0,,0,88,88,3,1,4,RL,bewoted,print,bewoted_p.png,,,,,,
,,,,32184,001,2025-11-06_12h39.11.900,HW_LDT_1,2024.2.4,Win32,119.047619,,,,,,,,,,,,,,,,,,,,667.4479,667.6468,667.6468,668.1465,,,,,,,,,,,,,,0.6202,1,,,,,,,,,,,,,,m,,,,,,,,,,,,,,,90,0,668.1468,668.7707,m,1,0.6202,,[],[],[],[],[],[],[],668.7708,670.7719,670.7719,670.7722,[],[],[],[],[],[],[],,670.7722,670.7723,0.1,-0.063888889,0,0,0,,0,89,89,146,1,4,word,RETIRE,print,retire_p.png,,,,,,
,,,,32184,001,2025-11-06_12h39.11.900,HW_LDT_1,2024.2.4,Win32,119.047619,,,,,,,,,,,,,,,,,,,,670.773,670.9716,670.9717,671.4716,,,,,,,,,,,,,,1.0795,1,,,,,,,,,,,,,,z,,,,,,,,,,,,,,,91,0,671.472,672.5549,z,1,1.0795,,[],[],[],[],[],[],[],672.5549,674.5553,674.5553,674.5555,[],[],[],[],[],[],[],,674.5555,674.5556,0.1,-0.063888889,0,0,0,,0,90,90,70,1,4,TL,quatily,print,quatily_p.png,,,,,,
,,,,32184,001,2025-11-06_12h39.11.900,HW_LDT_1,2024.2.4,Win32,119.047619,,,,,,,,,,,,,,,,,,,,674.5563,674.7555,674.7555,675.2556,,,,,,,,,,,,,,0.7679,1,,,,,,,,,,,,,,z,,,,,,,,,,,,,,,92,0,675.2561,676.0301,z,1,0.7679,,[],[],[],[],[],[],[],676.0303,678.0305,678.0305,678.0306,[],[],[],[],[],[],[],,678.0306,678.0307,0.1,-0.063888889,0,0,0,,0,91,91,48,1,4,RL,vabifity,print,vabifity_p.png,,,,,,
,,,,32184,001,2025-11-06_12h39.11.900,HW_LDT_1,2024.2.4,Win32,119.047619,,,,,,,,,,,,,,,,,,,,678.0315,678.23,678.23,678.7304,,,,,,,,,,,,,,0.7342,1,,,,,,,,,,,,,,m,,,,,,,,,,,,,,,93,0,678.7309,679.4722,m,1,0.7342,,[],[],[],[],[],[],[],679.4722,681.4722,681.4722,681.4724,[],[],[],[],[],[],[],,681.4724,681.4725,0.1,-0.063888889,0,0,0,,0,92,92,121,1,4,word,MISTAKE,print,mistake_p.png,,,,,,
,,,,32184,001,2025-11-06_12h39.11.900,HW_LDT_1,2024.2.4,Win32,119.047619,,,,,,,,,,,,,,,,,,,,681.4734,681.6724,681.6725,682.1719,,,,,,,,,,,,,,1.4393,1,,,,,,,,,,,,,,z,,,,,,,,,,,,,,,94,0,682.1724,683.6141,z,1,1.4393,,[],[],[],[],[],[],[],683.6142,685.6139,685.6139,685.614,[],[],[],[],[],[],[],,685.614,685.614,0.1,-0.063888889,0,0,0,,0,93,93,53,1,4,TL,cemerony,print,cemerony_p.png,,,,,,
,,,,32184,001,2025-11-06_12h39.11.900,HW_LDT_1,2024.2.4,Win32,119.047619,,,,,,,,,,,,,,,,,,,,685.6146,685.8141,685.8142,686.3139,,,,,,,,,,,,,,1.8948,1,,,,,,,,,,,,,,m,,,,,,,,,,,,,,,95,0,686.3143,688.2141,m,1,1.8948,,[],[],[],[],[],[],[],688.2141,690.2148,690.2148,690.215,[],[],[],[],[],[],[],,690.215,690.215,0.1,-0.063888889,0,0,0,,0,94,94,118,1,4,word,MEDICINE,cursive,medicine_c.png,,,,,,
,,,,32184,001,2025-11-06_12h39.11.900,HW_LDT_1,2024.2.4,Win32,119.047619,,,,,,,,,,,,,,,,,,,,690.2159,690.4145,690.4145,690.9151,,,,,,,,,,,,,,0.793,1,,,,,,,,,,,,,,z,,,,,,,,,,,,,,,96,0,690.9156,691.7142,z,1,0.793,,[],[],[],[],[],[],[],691.7142,693.7143,693.7144,693.7145,[],[],[],[],[],[],[],,693.7146,693.7146,0.1,-0.063888889,0,0,0,,0,95,95,67,1,4,TL,polupar,print,polupar_p.png,,,,,,
,,,,32184,001,2025-11-06_12h39.11.900,HW_LDT_1,2024.2.4,Win32,119.047619,,,,,,,,,,,,,,,,,,,,693.7155,693.9145,693.9145,694.4148,,,,,,,,,,,,,,1.8428,1,,,,,,,,,,,,,,m,,,,,,,,,,,,,,,97,0,694.4152,696.2649,m,1,1.8428,,[],[],[],[],[],[],[],696.2651,698.265,698.2651,698.2652,[],[],[],[],[],[],[],,698.2653,698.2653,0.1,-0.063888889,0,0,0,,0,96,96,126,1,4,word,OPTIMAL,print,optimal_p.png,,,,,,
,,,,32184,001,2025-11-06_12h39.11.900,HW_LDT_1,2024.2.4,Win32,119.047619,,,,,,,,,,,,,,,,,,,,698.2663,698.465,698.4651,698.9651,,,,,,,,,,,,,,0.6804,1,,,,,,,,,,,,,,m,,,,,,,,,,,,,,,98,0,698.9657,699.6477,m,1,0.6804,,[],[],[],[],[],[],[],699.6477,701.6487,701.6487,701.6488,[],[],[],[],[],[],[],,701.6489,701.6489,0.1,-0.063888889,0,0,0,,0,97,97,105,1,4,word,EDITOR,print,editor_p.png,,,,,,
,,,,32184,001,2025-11-06_12h39.11.900,HW_LDT_1,2024.2.4,Win32,119.047619,,,,,,,,,,,,,,,,,,,,701.6498,701.8484,701.8484,702.3486,,,,,,,,,,,,,,26.2189,0,,,,,,,,,,,,,,m,,,,,,,,,,,,,,,99,0,702.3491,728.5685,z,0,26.2189,0,[],[],[],[],[],[],[],728.5686,730.5689,730.5689,730.569,[],[],[],[],[],[],[],,730.5691,730.5691,0.128333333,0.035,0,0,0,,0,98,98,101,1,4,word,DELICATE,cursive,delicate_c.png,,,,,,
,,,,32184,001,2025-11-06_12h39.11.900,HW_LDT_1,2024.2.4,Win32,119.047619,,,,,,,,,,,,,,,,,,,,730.5698,730.7683,730.7683,731.2673,,,,,,,,,,,,,,0.7597,1,,,,,,,,,,,,,,m,,,,,,,,,,,,,,,100,0,731.2677,732.0281,m,1,0.7597,,[],[],[],[],[],[],[],732.0282,734.0255,734.0255,734.0257,[],[],[],[],[],[],[],,734.0257,734.0257,0.128333333,0.035,0,0,0,,0,99,99,141,1,4,word,RELIGION,print,religion_p.png,,,,,,
,,,,32184,001,2025-11-06_12h39.11.900,HW_LDT_1,2024.2.4,Win32,119.047619,,,,,,,,,,,,,,,,,,,,734.0265,734.2268,734.2268,734.7269,,,,,,,,,,,,,,5.0248,1,,,,,,,,,,,,,,z,,,,,,,,,,,,,,,101,0,734.7273,739.7526,z,1,5.0248,9.99999E-05,[],[],[],[],[],[],[],739.7527,741.7503,741.7504,741.7506,[],[],[],[],[],[],[],,741.7506,741.7506,0.128333333,0.035,0,0,0,,0,100,100,41,1,4,RL,rebicent,cursive,rebicent_c.png,,,,,,
,,,,32184,001,2025-11-06_12h39.11.900,HW_LDT_1,2024.2.4,Win32,119.047619,,,,,,,,,,,,,,,,,,,,741.752,741.9523,741.9523,742.4506,,,,,,,,,,,,,,3.3944,1,,,,,,,,,,,,,,m,,,,,,,,,,,,,,,102,0,742.451,745.8507,m,1,3.3944,0.0024,[],[],[],[],[],[],[],745.8507,747.8507,747.8508,747.8509,[],[],[],[],[],[],[],,747.8509,747.851,0.124444444,0.048333333,0,0,0,,0,101,101,124,1,4,word,NUMERICAL,cursive,numerical_c.png,,,,,,
,,,,32184,001,2025-11-06_12h39.11.900,HW_LDT_1,2024.2.4,Win32,119.047619,,,,,,,,,,,,,,,,,,,,747.8518,748.0509,748.051,748.5508,,,,,,,,,,,,,,2.8375,1,,,,,,,,,,,,,,z,,,,,,,,,,,,,,,103,0,748.5512,751.3927,z,1,2.8375,,[],[],[],[],[],[],[],751.3928,753.3928,753.3929,753.3931,[],[],[],[],[],[],[],,753.3931,753.3931,0.124444444,0.048333333,0,0,0,,0,102,102,12,1,4,RL,conbicer,cursive,conbicer_c.png,,,,,,
,,,,32184,001,2025-11-06_12h39.11.900,HW_LDT_1,2024.2.4,Win32,119.047619,,,,,,,,,,,,,,,,,,,,753.3941,753.5929,753.593,754.093,,,,,,,,,,,,,,0.7173,1,,,,,,,,,,,,,,m,,,,,,,,,,,,,,,104,0,754.0935,754.8179,m,1,0.7173,,[],[],[],[],[],[],[],754.8179,756.8178,756.8179,756.818,[],[],[],[],[],[],[],,756.818,756.8181,0.124444444,0.048333333,0,0,0,,0,103,103,123,1,4,word,MODERATE,print,moderate_p.png,,,,,,
,,,,32184,001,2025-11-06_12h39.11.900,HW_LDT_1,2024.2.4,Win32,119.047619,,,,,,,,,,,,,,,,,,,,756.8188,757.0179,757.0179,757.5182,,,,,,,,,,,,,,0.8609,1,,,,,,,,,,,,,,z,,,,,,,,,,,,,,,105,0,757.5186,758.3858,z,1,0.8609,,[],[],[],[],[],[],[],758.3859,760.385,760.3851,760.3852,[],[],[],[],[],[],[],,760.3852,760.3853,0.124444444,0.048333333,0,0,0,,0,104,104,73,1,4,TL,regilion,print,regilion_p.png,,,,,,
,,,,32184,001,2025-11-06_12h39.11.900,HW_LDT_1,2024.2.4,Win32,119.047619,,,,,,,,,,,,,,,,,,,,760.3861,760.5851,760.5851,761.0848,,,,,,,,,,,,,,0.718,1,,,,,,,,,,,,,,z,,,,,,,,,,,,,,,106,0,761.0852,761.81,z,1,0.718,,[],[],[],[],[],[],[],761.8101,763.81,763.8102,763.8102,[],[],[],[],[],[],[],,763.8102,763.8103,0.124444444,0.048333333,0,0,0,,0,105,105,75,1,4,TL,sanile,print,sanile_p.png,,,,,,
,,,,32184,001,2025-11-06_12h39.11.900,HW_LDT_1,2024.2.4,Win32,119.047619,,,,,,,,,,,,,,,,,,,,763.811,764.0102,764.0103,764.5102,,,,,,,,,,,,,,0.8684,1,,,,,,,,,,,,,,z,,,,,,,,,,,,,,,107,0,764.5105,765.3861,z,1,0.8684,,[],[],[],[],[],[],[],765.3863,767.3854,767.3854,767.3856,[],[],[],[],[],[],[],,767.3856,767.3856,0.125555556,0.048333333,0,0,0,,0,106,106,58,1,4,TL,edivent,print,edivent_p.png,,,,,,
,,,,32184,001,2025-11-06_12h39.11.900,HW_LDT_1,2024.2.4,Win32,119.047619,,,,,,,,,,,,,,,,,,,,767.3864,767.5865,767.5866,768.0853,,,,,,,,,,,,,,2.7574,1,,,,,,,,,,,,,,z,,,,,,,,,,,,,,,108,1,768.0856,770.8439,z,1,2.7574,,[],[],[],[],[],[],[],770.844,772.8439,772.844,774.5776,[],[],[],[],[],[],[],z,774.5776,774.5777,0.131111111,0.050555556,0,0,0,,0,107,107,37,1,4,RL,renutal,cursive,renutal_c.png,1.7317,,,,,
,,,,32184,001,2025-11-06_12h39.11.900,HW_LDT_1,2024.2.4,Win32,119.047619,,,,,,,,,,,,,,,,,,,,774.5784,774.7775,774.7776,775.2778,,,,,,,,,,,,,,1.2846,1,,,,,,,,,,,,,,z,,,,,,,,,,,,,,,109,0,775.2783,776.5692,z,1,1.2846,,[],[],[],[],[],[],[],776.5692,778.5694,778.5694,778.5695,[],[],[],[],[],[],[],,778.5695,778.5696,0.217222222,0.113333333,0,0,0,,0,108,108,28,1,4,RL,mifikary,print,mifikary_p.png,,,,,,
,,,,32184,001,2025-11-06_12h39.11.900,HW_LDT_1,2024.2.4,Win32,119.047619,,,,,,,,,,,,,,,,,,,,778.5706,778.7693,778.7694,779.2695,,,,,,,,,,,,,,2.7528,0,,,,,,,,,,,,,,m,,,,,,,,,,,,,,,110,0,779.27,782.0289,z,0,2.7528,,[],[],[],[],[],[],[],782.029,784.029,784.0291,784.0294,[],[],[],[],[],[],[],,784.0294,784.0295,0.13,0.028333333,0,0,0,,0,109,109,92,1,4,word,CATEGORY,cursive,category_c.png,,,,,,
,,,,32184,001,2025-11-06_12h39.11.900,HW_LDT_1,2024.2.4,Win32,119.047619,,,,,,,,,,,,,,,,,,,,784.0308,784.2292,784.2293,784.7292,,,,,,,,,,,,,,1.5859,1,,,,,,,,,,,,,,m,,,,,,,,,,,,,,,111,0,784.7299,786.3205,m,1,1.5859,,[],[],[],[],[],[],[],786.3205,788.3205,788.3206,788.3208,[],[],[],[],[],[],[],,788.3208,788.3209,0.13,0.028333333,0,0,0,,0,110,110,137,1,4,word,RAPIDLY,cursive,rapidly_c.png,,,,,,
,,,,32184,001,2025-11-06_12h39.11.900,HW_LDT_1,2024.2.4,Win32,119.047619,,,,,,,,,,,,,,,,,,,,788.3219,788.5204,788.5205,789.0206,,,,,,,,,,,,,,0.8466,1,,,,,,,,,,,,,,z,,,,,,,,,,,,,,,112,0,789.0212,789.8702,z,1,0.8466,,[],[],[],[],[],[],[],789.8703,791.8708,791.8708,791.8709,[],[],[],[],[],[],[],,791.871,791.871,0.13,0.028333333,0,0,0,,0,111,111,38,1,4,RL,refakive,print,refakive_p.png,,,,,,
,,,,32184,001,2025-11-06_12h39.11.900,HW_LDT_1,2024.2.4,Win32,119.047619,,,,,,,,,,,,,,,,,,,,791.8719,792.071,792.071,792.5716,,,,,,,,,,,,,,2.0174,1,,,,,,,,,,,,,,z,,,,,,,,,,,,,,,113,0,792.5722,794.59,z,1,2.0174,,[],[],[],[],[],[],[],794.5901,796.588,796.588,796.5882,[],[],[],[],[],[],[],,796.5883,796.5884,0.13,0.028333333,0,0,0,,0,112,112,10,1,4,RL,carminal,cursive,carminal_c.png,,,,,,
,,,,32184,001,2025-11-06_12h39.11.900,HW_LDT_1,2024.2.4,Win32,119.047619,,,,,,,,,,,,,,,,,,,,796.5897,796.788,796.7882,797.2877,,,,,,,,,,,,,,1.9689,1,,,,,,,,,,,,,,z,,,,,,,,,,,,,,,114,0,797.2883,799.2631,z,1,1.9689,,[],[],[],[],[],[],[],799.2632,801.2626,801.2626,801.2628,[],[],[],[],[],[],[],,801.2629,801.2629,0.13,0.028333333,0,0,0,,0,113,113,78,1,4,TL,stragety,print,stragety_p.png,,,,,,
,,,,32184,001,2025-11-06_12h39.11.900,HW_LDT_1,2024.2.4,Win32,119.047619,,,,,,,,,,,,,,,,,,,,801.2638,801.4628,801.4629,801.9634,,,,,,,,,,,,,,2.7047,1,,,,,,,,,,,,,,m,,,,,,,,,,,,,,,115,0,801.9638,804.6711,m,1,2.7047,,[],[],[],[],[],[],[],804.6712,806.6723,806.6725,806.6727,[],[],[],[],[],[],[],,806.6727,806.6729,0.13,0.028333333,0,0,0,,0,114,114,98,1,4,word,CRIMINAL,cursive,criminal_c.png,,,,,,
,,,,32184,001,2025-11-06_12h39.11.900,HW_LDT_1,2024.2.4,Win32,119.047619,,,,,,,,,,,,,,,,,,,,806.6738,806.8715,806.8716,807.3721,,,,,,,,,,,,,,17.5951,1,,,,,,,,,,,,,,m,,,,,,,,,,,,,,,116,0,807.3726,824.9723,m,1,17.5951,0.0037,[0.13],[0.028888888888888888],[1],[0],[0],[13.749799999952302],[null],824.9725,826.9725,826.9726,826.9728,[],[],[],[],[],[],[],,826.9729,826.973,0.13,0.028888889,0,0,0,,0,115,115,151,1,4,word,SPECIFIC,cursive,specific_c.png,,,,,,
,,,,32184,001,2025-11-06_12h39.11.900,HW_LDT_1,2024.2.4,Win32,119.047619,,,,,,,,,,,,,,,,,,,,826.9739,827.1743,827.1743,827.6725,,,,,,,,,,,,,,1.0675,1,,,,,,,,,,,,,,m,,,,,,,,,,,,,,,117,0,827.6731,828.7415,m,1,1.0675,,[],[],[],[],[],[],[],828.7417,830.7393,830.7394,830.7394,[],[],[],[],[],[],[],,830.7395,830.7396,0.13,0.028888889,0,0,0,,0,116,116,127,1,4,word,ORIGINAL,print,original_p.png,,,,,,
,,,,32184,001,2025-11-06_12h39.11.900,HW_LDT_1,2024.2.4,Win32,119.047619,,,,,,,,,,,,,,,,,,,,830.7407,830.9395,830.9395,831.4396,,,,,,,,,,,,,,1.4097,1,,,,,,,,,,,,,,m,,,,,,,,,,,,,,,118,0,831.4402,832.8563,m,1,1.4097,,[],[],[],[],[],[],[],832.8565,834.8564,834.8564,834.8566,[],[],[],[],[],[],[],,834.8566,834.8566,0.13,0.028888889,0,0,0,,0,117,117,91,1,4,word,CARDINAL,cursive,cardinal_c.png,,,,,,
,,,,32184,001,2025-11-06_12h39.11.900,HW_LDT_1,2024.2.4,Win32,119.047619,,,,,,,,,,,,,,,,,,,,834.8577,835.0562,835.0563,835.5564,,,,,,,,,,,,,,0.8312,1,,,,,,,,,,,,,,z,,,,,,,,,,,,,,,119,0,835.557,836.3897,z,1,0.8312,,[],[],[],[],[],[],[],836.3898,838.3907,838.3908,838.391,[],[],[],[],[],[],[],,838.391,838.3912,0.13,0.028888889,0,0,0,,0,118,118,60,1,4,TL,hetirage,print,hetirage_p.png,,,,,,
,,,,32184,001,2025-11-06_12h39.11.900,HW_LDT_1,2024.2.4,Win32,119.047619,,,,,,,,,,,,,,,,,,,,838.3921,838.5899,838.59,839.0898,,,,,,,,,,,,,,1.035,1,,,,,,,,,,,,,,m,,,,,,,,,,,,,,,120,1,839.0904,840.1317,m,1,1.035,,[],[],[],[],[],[],[],840.1317,842.1318,842.1318,843.8737,[],[],[],[],[],[],[],z,843.8738,843.8739,0.13,0.028888889,0,0,0,,0,119,119,153,1,4,word,STOLEN,cursive,stolen_c.png,1.7351,,,,,
,,,,32184,001,2025-11-06_12h39.11.900,HW_LDT_1,2024.2.4,Win32,119.047619,,,,,,,,,,,,,,,,,,,,843.8749,844.0738,844.0739,844.5735,,,,,,,,,,,,,,1.2934,1,,,,,,,,,,,,,,m,,,,,,,,,,,,,,,121,0,844.5741,845.8737,m,1,1.2934,,[],[],[],[],[],[],[],845.8738,847.8739,847.8742,847.8746,[],[],[],[],[],[],[],,847.8746,847.8747,0.13,0.028888889,0,0,0,,0,120,120,110,1,4,word,HERITAGE,print,heritage_p.png,,,,,,
,,,,32184,001,2025-11-06_12h39.11.900,HW_LDT_1,2024.2.4,Win32,119.047619,,,,,,,,,,,,,,,,,,,,847.8757,848.0738,848.0738,848.5738,,,,,,,,,,,,,,0.9272,1,,,,,,,,,,,,,,z,,,,,,,,,,,,,,,122,0,848.5742,849.5077,z,1,0.9272,,[],[],[],[],[],[],[],849.5077,851.5086,851.5086,851.5089,[],[],[],[],[],[],[],,851.5089,851.509,0.13,0.028888889,0,0,0,,0,121,121,29,1,4,RL,motide,print,motide_p.png,,,,,,
,,,,32184,001,2025-11-06_12h39.11.900,HW_LDT_1,2024.2.4,Win32,119.047619,,,,,,,,,,,,,,,,,,,,851.5099,851.7077,851.7077,852.2075,,,,,,,,,,,,,,11.9113,0,,,,,,,,,,,,,,m,,,,,,,,,,,,,,,123,0,852.2078,864.1252,z,0,11.9113,,[],[],[],[],[],[],[],864.1253,866.1249,866.1249,866.1253,[],[],[],[],[],[],[],,866.1253,866.1254,0.13,0.028888889,0,0,0,,0,122,122,89,1,4,word,CAPACITY,cursive,capacity_c.png,,,,,,
,,,,32184,001,2025-11-06_12h39.11.900,HW_LDT_1,2024.2.4,Win32,119.047619,,,,,,,,,,,,,,,,,,,,866.1265,866.325,866.3251,866.8252,,,,,,,,,,,,,,0.7691,1,,,,,,,,,,,,,,m,,,,,,,,,,,,,,,124,1,866.8257,867.6001,m,1,0.7691,,[],[],[],[],[],[],[],867.6002,869.6004,869.6004,871.342,[],[],[],[],[],[],[],z,871.342,871.3421,0.13,0.028888889,0,0,0,,0,123,123,145,1,4,word,RESUME,print,resume_p.png,1.7385,,,,,
,,,,32184,001,2025-11-06_12h39.11.900,HW_LDT_1,2024.2.4,Win32,119.047619,,,,,,,,,,,,,,,,,,,,871.3431,871.5419,871.542,872.0425,,,,,,,,,,,,,,0.8921,1,,,,,,,,,,,,,,z,,,,,,,,,,,,,,,125,0,872.0433,872.936,z,1,0.8921,,[],[],[],[],[],[],[],872.9361,874.9339,874.934,874.9342,[],[],[],[],[],[],[],,874.9342,874.9343,0.13,0.028888889,0,0,0,,0,124,124,9,1,4,RL,cafigal,print,cafigal_p.png,,,,,,
,,,,32184,001,2025-11-06_12h39.11.900,HW_LDT_1,2024.2.4,Win32,119.047619,,,,,,,,,,,,,,,,,,,,874.9354,875.134,875.134,875.6357,,,,,,,,,,,,,,2.0676,1,,,,,,,,,,,,,,z,,,,,,,,,,,,,,,126,0,875.6362,877.709,z,1,2.0676,,[],[],[],[],[],[],[],877.7091,879.7091,879.7092,879.7093,[],[],[],[],[],[],[],,879.7094,879.7096,0.13,0.028888889,0,0,0,,0,125,125,50,1,4,RL,vecelan,cursive,vecelan_c.png,,,,,,
,,,,32184,001,2025-11-06_12h39.11.900,HW_LDT_1,2024.2.4,Win32,119.047619,,,,,,,,,,,,,,,,,,,,879.7105,879.9096,879.9096,880.4095,,,,,,,,,,,,,,1.5381,1,,,,,,,,,,,,,,m,,,,,,,,,,,,,,,127,0,880.4101,881.951,m,1,1.5381,,[],[],[],[],[],[],[],881.9511,883.9511,883.9512,883.9513,[],[],[],[],[],[],[],,883.9513,883.9515,0.13,0.028888889,0,0,0,,0,126,126,148,1,4,word,SALINE,print,saline_p.png,,,,,,
,,,,32184,001,2025-11-06_12h39.11.900,HW_LDT_1,2024.2.4,Win32,119.047619,,,,,,,,,,,,,,,,,,,,883.9524,884.1511,884.1511,884.6511,,,,,,,,,,,,,,2.7348,1,,,,,,,,,,,,,,z,,,,,,,,,,,,,,,128,0,884.6516,887.3874,z,1,2.7348,,[],[],[],[],[],[],[],887.3874,889.3849,889.385,889.3852,[],[],[],[],[],[],[],,889.3854,889.3857,0.13,0.028888889,0,0,0,,0,127,127,16,1,4,RL,desifate,cursive,desifate_c.png,,,,,,
,,,,32184,001,2025-11-06_12h39.11.900,HW_LDT_1,2024.2.4,Win32,119.047619,,,,,,,,,,,,,,,,,,,,889.3866,889.5848,889.5848,890.0853,,,,,,,,,,,,,,2.5674,0,,,,,,,,,,,,,,m,,,,,,,,,,,,,,,129,0,890.0859,892.6601,z,0,2.5674,,[],[],[],[],[],[],[],892.6602,894.6604,894.6605,894.6607,[],[],[],[],[],[],[],,894.6607,894.6609,0.13,0.028888889,0,0,0,,0,128,128,87,1,4,word,CAFETERIA,cursive,cafeteria_c.png,,,,,,
,,,,32184,001,2025-11-06_12h39.11.900,HW_LDT_1,2024.2.4,Win32,119.047619,,,,,,,,,,,,,,,,,,,,894.6619,894.8601,894.8601,895.3602,,,,,,,,,,,,,,0.6805,1,,,,,,,,,,,,,,m,,,,,,,,,,,,,,,130,0,895.3607,896.0435,m,1,0.6805,,[],[],[],[],[],[],[],896.0436,898.0438,898.0439,898.0441,[],[],[],[],[],[],[],,898.0441,898.0442,0.13,0.028888889,0,0,0,,0,129,129,88,1,4,word,CAMERA,print,camera_p.png,,,,,,
,,,,32184,001,2025-11-06_12h39.11.900,HW_LDT_1,2024.2.4,Win32,119.047619,,,,,,,,,,,,,,,,,,,,898.0454,898.2436,898.2436,898.7437,,,,,,,,,,,,,,1.5964,1,,,,,,,,,,,,,,z,,,,,,,,,,,,,,,131,0,898.7443,900.344,z,1,1.5964,,[],[],[],[],[],[],[],900.3441,902.3446,902.3447,902.3449,[],[],[],[],[],[],[],,902.3449,902.345,0.13,0.028888889,0,0,0,,0,130,130,1,1,4,RL,afaneur,cursive,afaneur_c.png,,,,,,
,,,,32184,001,2025-11-06_12h39.11.900,HW_LDT_1,2024.2.4,Win32,119.047619,,,,,,,,,,,,,,,,,,,,902.346,902.5446,902.5449,903.0442,,,,,,,,,,,,,,2.9886,1,,,,,,,,,,,,,,m,,,,,,,,,,,,,,,132,0,903.0446,906.0359,m,1,2.9886,,[],[],[],[],[],[],[],906.0359,908.0368,908.0368,908.037,[],[],[],[],[],[],[],,908.037,908.0375,0.13,0.028888889,0,0,0,,0,131,131,130,1,4,word,POLICY,cursive,policy_c.png,,,,,,
,,,,32184,001,2025-11-06_12h39.11.900,HW_LDT_1,2024.2.4,Win32,119.047619,,,,,,,,,,,,,,,,,,,,908.0386,908.236,908.2361,908.7359,,,,,,,,,,,,,,0.9528,1,,,,,,,,,,,,,,z,,,,,,,,,,,,,,,133,0,908.7365,909.6944,z,1,0.9528,,[],[],[],[],[],[],[],909.6945,911.6968,911.6968,911.6969,[],[],[],[],[],[],[],,911.697,911.6971,0.13,0.028888889,0,0,0,,0,132,132,69,1,4,TL,quafily,print,quafily_p.png,,,,,,
,,,,32184,001,2025-11-06_12h39.11.900,HW_LDT_1,2024.2.4,Win32,119.047619,,,,,,,,,,,,,,,,,,,,911.6981,911.8947,911.8947,912.3948,,,,,,,,,,,,,,6.6396,1,,,,,,,,,,,,,,z,,,,,,,,,,,,,,,134,1,912.3955,919.0367,z,1,6.6396,,[],[],[],[],[],[],[],919.0367,921.0367,921.0368,921.8702,[],[],[],[],[],[],[],z,921.8702,921.8703,0.13,0.028888889,0,0,0,,0,133,133,55,1,4,TL,corevage,cursive,corevage_c.png,0.831,,,,,
,,,,32184,001,2025-11-06_12h39.11.900,HW_LDT_1,2024.2.4,Win32,119.047619,,,,,,,,,,,,,,,,,,,,921.8713,922.0704,922.0706,922.5703,,,,,,,,,,,,,,0.88,1,,,,,,,,,,,,,,z,,,,,,,,,,,,,,,135,0,922.5708,923.4537,z,1,0.88,,[],[],[],[],[],[],[],923.4537,925.454,925.4541,925.4542,[],[],[],[],[],[],[],,925.4542,925.4544,0.13,0.028888889,0,0,0,,0,134,134,63,1,4,TL,miskate,print,miskate_p.png,,,,,,
,,,,32184,001,2025-11-06_12h39.11.900,HW_LDT_1,2024.2.4,Win32,119.047619,,,,,,,,,,,,,,,,,,,,925.4555,925.654,925.654,926.1539,,,,,,,,,,,,,,1.8345,1,,,,,,,,,,,,,,m,,,,,,,,,,,,,,,136,0,926.1543,927.9894,m,1,1.8345,,[],[],[],[],[],[],[],927.9895,929.9874,929.9876,929.9878,[],[],[],[],[],[],[],,929.9879,929.9881,0.13,0.028888889,0,0,0,,0,135,135,128,1,4,word,PACIFIC,cursive,pacific_c.png,,,,,,
,,,,32184,001,2025-11-06_12h39.11.900,HW_LDT_1,2024.2.4,Win32,119.047619,,,,,,,,,,,,,,,,,,,,929.989,930.1873,930.1874,930.6876,,,,,,,,,,,,,,2.2839,0,,,,,,,,,,,,,,m,,,,,,,,,,,,,,,137,1,930.6881,932.9726,z,0,2.2839,,[],[],[],[],[],[],[],932.9727,934.9709,934.9711,935.6548,[],[],[],[],[],[],[],z,935.6549,935.655,0.13,0.028888889,0,0,0,,0,136,136,102,1,4,word,DENSITY,cursive,density_c.png,0.6801,,,,,
,,,,32184,001,2025-11-06_12h39.11.900,HW_LDT_1,2024.2.4,Win32,119.047619,,,,,,,,,,,,,,,,,,,,935.6562,935.8545,935.8545,936.3545,,,,,,,,,,,,,,1.026,1,,,,,,,,,,,,,,m,,,,,,,,,,,,,,,138,0,936.3551,937.3818,m,1,1.026,,[],[],[],[],[],[],[],937.3819,939.3795,939.3795,939.3796,[],[],[],[],[],[],[],,939.3797,939.3797,0.13,0.028888889,0,0,0,,0,137,137,80,1,4,word,ACADEMY,print,academy_p.png,,,,,,
,,,,32184,001,2025-11-06_12h39.11.900,HW_LDT_1,2024.2.4,Win32,119.047619,,,,,,,,,,,,,,,,,,,,939.3805,939.5795,939.5795,940.0797,,,,,,,,,,,,,,1.5681,1,,,,,,,,,,,,,,z,,,,,,,,,,,,,,,139,0,940.0803,941.6549,z,1,1.5681,,[],[],[],[],[],[],[],941.6551,943.6548,943.6549,943.6551,[],[],[],[],[],[],[],,943.6551,943.6553,0.13,0.028888889,0,0,0,,0,138,138,44,1,4,RL,senvilent,print,senvilent_p.png,,,,,,
,,,,32184,001,2025-11-06_12h39.11.900,HW_LDT_1,2024.2.4,Win32,119.047619,,,,,,,,,,,,,,,,,,,,943.6564,943.8548,943.8549,944.3549,,,,,,,,,,,,,,1.3931,1,,,,,,,,,,,,,,z,,,,,,,,,,,,,,,140,0,944.3554,945.7552,z,1,1.3931,,[],[],[],[],[],[],[],945.7553,947.7552,947.7553,947.7555,[],[],[],[],[],[],[],,947.7555,947.7555,0.13,0.028888889,0,0,0,,0,139,139,11,1,4,RL,clisimal,print,clisimal_p.png,,,,,,
,,,,32184,001,2025-11-06_12h39.11.900,HW_LDT_1,2024.2.4,Win32,119.047619,,,,,,,,,,,,,,,,,,,,947.7566,947.9554,947.9554,948.4555,,,,,,,,,,,,,,0.7587,1,,,,,,,,,,,,,,m,,,,,,,,,,,,,,,141,0,948.4561,949.2154,m,1,0.7587,,[],[],[],[],[],[],[],949.2155,951.2138,951.2139,951.2141,[],[],[],[],[],[],[],,951.2141,951.2141,0.13,0.028888889,0,0,0,,0,140,140,117,1,4,word,MARINE,print,marine_p.png,,,,,,
,,,,32184,001,2025-11-06_12h39.11.900,HW_LDT_1,2024.2.4,Win32,119.047619,,,,,,,,,,,,,,,,,,,,951.2151,951.4138,951.4138,951.9139,,,,,,,,,,,,,,4.0822,1,,,,,,,,,,,,,,z,,,,,,,,,,,,,,,142,0,951.9145,955.9974,z,1,4.0822,,[],[],[],[],[],[],[],955.9976,957.9976,957.9976,957.9978,[],[],[],[],[],[],[],,957.9978,957.998,0.13,0.028888889,0,0,0,,0,141,141,33,1,4,RL,pamest,cursive,pamest_c.png,,,,,,
,,,,32184,001,2025-11-06_12h39.11.900,HW_LDT_1,2024.2.4,Win32,119.047619,,,,,,,,,,,,,,,,,,,,957.999,958.1981,958.1982,958.6975,,,,,,,,,,,,,,0.8009,1,,,,,,,,,,,,,,m,,,,,,,,,,,,,,,143,0,958.6985,959.5,m,1,0.8009,,[],[],[],[],[],[],[],959.5,961.498,961.498,961.4982,[],[],[],[],[],[],[],,961.4982,961.4984,0.13,0.028888889,0,0,0,,0,142,142,150,1,4,word,SENTIMENT,print,sentiment_p.png,,,,,,
,,,,32184,001,2025-11-06_12h39.11.900,HW_LDT_1,2024.2.4,Win32,119.047619,,,,,,,,,,,,,,,,,,,,961.4995,961.6976,961.6977,962.1978,,,,,,,,,,,,,,5.5348,1,,,,,,,,,,,,,,z,,,,,,,,,,,,,,,144,0,962.1982,967.7337,z,1,5.5348,,[],[],[],[],[],[],[],967.7337,969.7316,969.7316,969.7318,[],[],[],[],[],[],[],,969.7318,969.7319,0.13,0.028888889,0,0,0,,0,143,143,54,1,4,TL,codemy,print,codemy_p.png,,,,,,
,,,,32184,001,2025-11-06_12h39.11.900,HW_LDT_1,2024.2.4,Win32,119.047619,,,,,,,,,,,,,,,,,,,,969.7326,969.9317,969.9317,970.4317,,,,,,,,,,,,,,2.8343,1,,,,,,,,,,,,,,z,,,,,,,,,,,,,,,145,0,970.4323,973.2672,z,1,2.8343,,[],[],[],[],[],[],[],973.2673,975.2652,975.2652,975.2654,[],[],[],[],[],[],[],,975.2655,975.2656,0.13,0.028888889,0,0,0,,0,144,144,34,1,4,RL,posity,cursive,posity_c.png,,,,,,
,,,,32184,001,2025-11-06_12h39.11.900,HW_LDT_1,2024.2.4,Win32,119.047619,,,,,,,,,,,,,,,,,,,,975.2667,975.4652,975.4652,975.9655,,,,,,,,,,,,,,1.2425,1,,,,,,,,,,,,,,z,,,,,,,,,,,,,,,146,0,975.966,977.2093,z,1,1.2425,,[],[],[],[],[],[],[],977.2094,979.2071,979.2071,979.2073,[],[],[],[],[],[],[],,979.2074,979.2075,0.13,0.028888889,0,0,0,,0,145,145,27,1,4,RL,menowy,print,menowy_p.png,,,,,,
,,,,32184,001,2025-11-06_12h39.11.900,HW_LDT_1,2024.2.4,Win32,119.047619,,,,,,,,,,,,,,,,,,,,979.2086,979.4073,979.4073,979.9072,,,,,,,,,,,,,,1.2263,1,,,,,,,,,,,,,,z,,,,,,,,,,,,,,,147,0,979.9076,981.1345,z,1,1.2263,,[],[],[],[],[],[],[],981.1346,983.1326,983.1327,983.1328,[],[],[],[],[],[],[],,983.1329,983.133,0.13,0.028888889,0,0,0,,0,146,146,79,1,4,TL,tritube,print,tritube_p.png,,,,,,
,,,,32184,001,2025-11-06_12h39.11.900,HW_LDT_1,2024.2.4,Win32,119.047619,,,,,,,,,,,,,,,,,,,,983.1343,983.3323,983.3323,983.8324,,,,,,,,,,,,,,0.9013,1,,,,,,,,,,,,,,z,,,,,,,,,,,,,,,148,0,983.8329,984.7348,z,1,0.9013,,[],[],[],[],[],[],[],984.7348,986.7345,986.7347,986.7347,[],[],[],[],[],[],[],,986.7348,986.7348,0.13,0.028888889,0,0,0,,0,147,147,0,1,4,RL,abanemy,print,abanemy_p.png,,,,,,
,,,,32184,001,2025-11-06_12h39.11.900,HW_LDT_1,2024.2.4,Win32,119.047619,,,,,,,,,,,,,,,,,,,,986.7359,986.9326,986.9327,987.4343,,,,,,,,,,,,,,1.0788,1,,,,,,,,,,,,,,m,,,,,,,,,,,,,,,149,0,987.4347,988.5163,m,1,1.0788,,[],[],[],[],[],[],[],988.5164,990.5175,990.5176,990.5177,[],[],[],[],[],[],[],,990.5177,990.5178,0.13,0.028888889,0,0,0,,0,148,148,109,1,4,word,GRATEFUL,print,grateful_p.png,,,,,,
,,,,32184,001,2025-11-06_12h39.11.900,HW_LDT_1,2024.2.4,Win32,119.047619,,,,,,,,,,,,,,,,,,,,990.5189,990.7164,990.7165,991.2162,,,,,,,,,,,,,,1.762,1,,,,,,,,,,,,,,z,,,,,,,,,,,,,,,150,0,991.2166,992.9833,z,1,1.762,,[],[],[],[],[],[],[],992.9833,994.9832,994.9832,994.9834,[],[],[],[],[],[],[],,994.9835,994.9837,0.13,0.028888889,0,0,0,,0,149,149,22,1,4,RL,linedal,cursive,linedal_c.png,,,,,,
,,,,32184,001,2025-11-06_12h39.11.900,HW_LDT_1,2024.2.4,Win32,119.047619,,,,,,,,,,,,,,,,,,,,994.9848,995.1832,995.1832,995.6835,,,,,,,,,,,,,,1.8787,1,,,,,,,,,,,,,,z,,,,,,,,,,,,,,,151,1,995.6843,997.5667,z,1,1.8787,,[],[],[],[],[],[],[],997.5667,999.567,999.5671,1000.2587,[],[],[],[],[],[],[],z,1000.2587,1000.2589,0.13,0.028888889,0,0,0,,0,150,150,52,1,4,TL,cagetory,cursive,cagetory_c.png,0.6851,,,,,
,,,,32184,001,2025-11-06_12h39.11.900,HW_LDT_1,2024.2.4,Win32,119.047619,,,,,,,,,,,,,,,,,,,,1000.2597,1000.4587,1000.4587,1000.9585,,,,,,,,,,,,,,0.9338,1,,,,,,,,,,,,,,z,,,,,,,,,,,,,,,152,0,1000.9597,1001.894,z,1,0.9338,,[],[],[],[],[],[],[],1001.894,1003.8941,1003.8941,1003.8942,[],[],[],[],[],[],[],,1003.8942,1003.8943,0.13,0.028888889,0,0,0,,0,151,151,57,1,4,TL,etidor,print,etidor_p.png,,,,,,
,,,,32184,001,2025-11-06_12h39.11.900,HW_LDT_1,2024.2.4,Win32,119.047619,,,,,,,,,,,,,,,,,,,,1003.8954,1004.0943,1004.0945,1004.5923,,,,,,,,,,,,,,4.8262,0,,,,,,,,,,,,,,m,,,,,,,,,,,,,,,153,0,1004.5929,1009.4261,z,0,4.8262,0.0018,[],[],[],[],[],[],[],1009.4262,1011.4258,1011.4259,1011.4259,[],[],[],[],[],[],[],,1011.426,1011.4261,0.13,0.028888889,0,0,0,,0,152,152,99,1,4,word,DEBATE,cursive,debate_c.png,,,,,,
,,,,32184,001,2025-11-06_12h39.11.900,HW_LDT_1,2024.2.4,Win32,119.047619,,,,,,,,,,,,,,,,,,,,1011.4275,1011.6266,1011.6267,1012.126,,,,,,,,,,,,,,1.0595,1,,,,,,,,,,,,,,z,,,,,,,,,,,,,,,154,0,1012.1265,1013.1928,z,1,1.0595,,[],[],[],[],[],[],[],1013.1929,1015.1926,1015.1927,1015.1928,[],[],[],[],[],[],[],,1015.1929,1015.1929,0.13,0.028888889,0,0,0,,0,153,153,20,1,4,RL,gralekul,print,gralekul_p.png,,,,,,
,,,,32184,001,2025-11-06_12h39.11.900,HW_LDT_1,2024.2.4,Win32,119.047619,,,,,,,,,,,,,,,,,,,,1015.1938,1015.3929,1015.3931,1015.8927,,,,,,,,,,,,,,1.0093,1,,,,,,,,,,,,,,z,,,,,,,,,,,,,,,155,0,1015.8933,1016.9095,z,1,1.0093,,[],[],[],[],[],[],[],1016.9096,1018.9098,1018.9098,1018.9099,[],[],[],[],[],[],[],,1018.9099,1018.91,0.13,0.028888889,0,0,0,,0,154,154,66,1,4,TL,opmital,print,opmital_p.png,,,,,,
,,,,32184,001,2025-11-06_12h39.11.900,HW_LDT_1,2024.2.4,Win32,119.047619,,,,,,,,,,,,,,,,,,,,1018.9109,1019.1098,1019.1099,1019.6097,,,,,,,,,,,,,,1.185,1,,,,,,,,,,,,,,z,,,,,,,,,,,,,,,156,0,1019.6101,1020.8015,z,1,1.185,,[],[],[],[],[],[],[],1020.8016,1022.8015,1022.8016,1022.8018,[],[],[],[],[],[],[],,1022.8019,1022.802,0.13,0.028888889,0,0,0,,0,155,155,35,1,4,RL,probice,cursive,probice_c.png,,,,,,
,,,,32184,001,2025-11-06_12h39.11.900,HW_LDT_1,2024.2.4,Win32,119.047619,,,,,,,,,,,,,,,,,,,,1022.803,1023.0017,1023.0018,1023.5016,,,,,,,,,,,,,,4.7123,1,,,,,,,,,,,,,,z,,,,,,,,,,,,,,,157,0,1023.5022,1028.2186,z,1,4.7123,0.0034,[],[],[],[],[],[],[],1028.2188,1030.2188,1030.2188,1030.2189,[],[],[],[],[],[],[],,1030.2189,1030.219,0.13,0.028888889,0,0,0,,0,156,156,56,1,4,TL,donimant,cursive,donimant_c.png,,,,,,
,,,,32184,001,2025-11-06_12h39.11.900,HW_LDT_1,2024.2.4,Win32,119.047619,,,,,,,,,,,,,,,,,,,,1030.2199,1030.4215,1030.4215,1030.9188,,,,,,,,,,,,,,1.4601,1,,,,,,,,,,,,,,z,,,,,,,,,,,,,,,158,0,1030.9193,1032.3857,z,1,1.4601,,[],[],[],[],[],[],[],1032.3857,1034.3856,1034.3857,1034.386,[],[],[],[],[],[],[],,1034.386,1034.3861,0.13,0.028888889,0,0,0,,0,157,157,21,1,4,RL,insibate,print,insibate_p.png,,,,,,
,,,,32184,001,2025-11-06_12h39.11.900,HW_LDT_1,2024.2.4,Win32,119.047619,,,,,,,,,,,,,,,,,,,,1034.3873,1034.5857,1034.5857,1035.0858,,,,,,,,,,,,,,2.1844,1,,,,,,,,,,,,,,z,,,,,,,,,,,,,,,159,0,1035.0863,1037.2776,z,1,2.1844,,[],[],[],[],[],[],[],1037.2776,1039.2778,1039.2778,1039.278,[],[],[],[],[],[],[],,1039.278,1039.2781,0.13,0.028888889,0,0,0,,0,158,158,14,1,4,RL,delahe,cursive,delahe_c.png,,,,,,
,,,,32184,001,2025-11-06_12h39.11.900,HW_LDT_1,2024.2.4,Win32,119.047619,,,,,,,,,,,,,,,,,,,,1039.279,1039.4776,1039.4778,1039.9777,,,,,,,,,,,,,,4.1447,0,,,,,,,,,,,,,,m,,,,,,,,,,,,,,,160,0,1039.9783,1044.1281,z,0,4.1447,,[],[],[],[],[],[],[],1044.1281,1046.1282,1046.1283,1046.1285,[],[],[],[],[],[],[],,1046.1285,1046.1286,0.13,0.028888889,0,0,0,,0,159,159,114,1,4,word,LOCATE,cursive,locate_c.png,,,,,,
,,,,32184,001,2025-11-06_12h39.11.900,HW_LDT_1,2024.2.4,Win32,119.047619,,,,,,,,,,,,,,,,,,,,,,,,,,,,,,,,,,,,,,,,,,,,,,,,,,,,,,,,,,,,,,,,,,,,,,,,,,,,,,,,,,,,,,,,,,,,,,,,,,,,,,,,,,,,,,,,,,,,1046.1294,1051.1287
