counterbalance_lists.group,counterbalance_lists.remaining,get_list.started,get_list.stopped,participant,session,date,expName,psychopyVersion,OS,frameRate,Instructions.started,Instructions.stopped,key_resp.keys,key_resp.rt,key_resp.duration,instr_done_touch.x,instr_done_touch.y,instr_done_touch.leftButton,instr_done_touch.midButton,instr_done_touch.rightButton,start_instr.thisRepN,start_instr.thisTrialN,start_instr.thisN,start_instr.thisIndex,start_instr.ran,pageN,phase,instruct_text,has_image,instruct_image,showProgress.started,showProgress.stopped,fix.started,fix.stopped,prac.started,prac.stopped,response.keys,response.corr,response.rt,response.duration,touch_resp.x,touch_resp.y,touch_resp.leftButton,touch_resp.midButton,touch_resp.rightButton,touch_resp.time,touch_resp.clicked_name,rt,corr,feedback.started,feedback.stopped,trials.thisRepN,trials.thisTrialN,trials.thisN,trials.thisIndex,trials.ran,TrialID,StimulusType,Condition,PrimeDuration,Prime,Target,corrAns,Instructions_expt.started,Instructions_expt.stopped,key_resp_3.keys,key_resp_3.rt,key_resp_3.duration,instr_done_touch_3.x,instr_done_touch_3.y,instr_done_touch_3.leftButton,instr_done_touch_3.midButton,instr_done_touch_3.rightButton,instr_experiment.thisRepN,instr_experiment.thisTrialN,instr_experiment.thisN,instr_experiment.thisIndex,instr_experiment.ran,trialID,flag,maintask.started,maintask.stopped,key_resp_2.keys,key_resp_2.corr,key_resp_2.rt,key_resp_2.duration,targ_click.x,targ_click.y,targ_click.leftButton,targ_click.midButton,targ_click.rightButton,targ_click.time,targ_click.clicked_name,ITI.started,ITI.stopped,probe.started,probe.stopped,click_probe.x,click_probe.y,click_probe.leftButton,click_probe.midButton,click_probe.rightButton,click_probe.time,click_probe.clicked_name,key_resp_probe.keys,Break.started,Break.stopped,break_done_touch.x,break_done_touch.y,break_done_touch.leftButton,break_done_touch.midButton,break_done_touch.rightButton,break_done_keyboard.keys,list2_trials.thisRepN,list2_trials.thisTrialN,list2_trials.thisN,list2_trials.thisIndex,list2_trials.ran,list_id,item_type,string,font,stim_file,key_resp_probe.rt,key_resp_probe.duration,break_done_keyboard.rt,break_done_keyboard.duration,End.started,End.stopped
list2,,0.5164,0.5166,32185,001,2025-11-06_18h42.58.083,HW_LDT_1,2024.2.4,Win32,60.97560976,,,,,,,,,,,,,,,,,,,,,,,,,,,,,,,,,,,,,,,,,,,,,,,,,,,,,,,,,,,,,,,,,,,,,,,,,,,,,,,,,,,,,,,,,,,,,,,,,,,,,,,,,,,,,,,,,,,,,,,
,,,,32185,001,2025-11-06_18h42.58.083,HW_LDT_1,2024.2.4,Win32,60.97560976,0.5527,24.5764,space,23.9609,,0.081090104,-0.375373878,0,0,0,0,0,0,0,1,1,instructions,"INSTRUCTIONS
At the start of each trial, look at the plus sign  (+) in the center of the screen.  This tells you that a trial is about to begin and where to look. Second, the plus sign will disappear and a string of letters will appear. Your task is to determine if the string of letters is a word or not. If the item is a word press the M key (on keyboard)  or touch the word button (phone/tablet).  If the item is not a word,  press the  Z key (on keyboard)  or touch the nonword button (on phone/tablet). The items will be presented for a short time. 
Press the space bar or touch  continue.",0,,,,,,,,,,,,,,,,,,,,,,,,,,,,,,,,,,,,,,,,,,,,,,,,,,,,,,,,,,,,,,,,,,,,,,,,,,,,,,,,,,,,,,,,,,,,,,,,,,,,
,,,,32185,001,2025-11-06_18h42.58.083,HW_LDT_1,2024.2.4,Win32,60.97560976,24.5796,27.4582,space,2.8461,,0.081090104,-0.375373878,0,0,0,0,1,1,1,1,2,instructions,"If your device has a keyboard, press the 'Z' key for nonwords and the 'M' key for words.





Press the space bar or touch the button below to continue.",0,keyboard-example.gif,,,,,,,,,,,,,,,,,,,,,,,,,,,,,,,,,,,,,,,,,,,,,,,,,,,,,,,,,,,,,,,,,,,,,,,,,,,,,,,,,,,,,,,,,,,,,,,,,,,
,,,,32185,001,2025-11-06_18h42.58.083,HW_LDT_1,2024.2.4,Win32,60.97560976,27.4608,29.4251,space,1.9383,,0.081090104,-0.375373878,0,0,0,0,2,2,2,1,3,instructions,"If you are using a touchscreen only device, use the buttons on the screen. Do not use the mouse.





Press the space bar or touch the button below to continue.",0,touchscreen-example.gif,,,,,,,,,,,,,,,,,,,,,,,,,,,,,,,,,,,,,,,,,,,,,,,,,,,,,,,,,,,,,,,,,,,,,,,,,,,,,,,,,,,,,,,,,,,,,,,,,,,
,,,,32185,001,2025-11-06_18h42.58.083,HW_LDT_1,2024.2.4,Win32,60.97560976,29.4286,29.8409,space,0.3836,,0.081090104,-0.375373878,0,0,0,0,3,3,3,1,4,instructions,"It is very important that you respond as quickly and accurately as possible, as each letter string will only be on the screen for two seconds. If you do not respond within this time, the message 'Too slow!' will be displayed and the experiment will progress to the next letter string. The first 20 trials will be practice trials and you will receive feedback on your answers. 

Press the space bar or touch the button below to start the practice trials.",0,,,,,,,,,,,,,,,,,,,,,,,,,,,,,,,,,,,,,,,,,,,,,,,,,,,,,,,,,,,,,,,,,,,,,,,,,,,,,,,,,,,,,,,,,,,,,,,,,,,,
,,,,32185,001,2025-11-06_18h42.58.083,HW_LDT_1,2024.2.4,Win32,60.97560976,,,,,,,,,,,,,,,,,,,,,29.909,30.0407,30.0411,30.5407,30.5411,33.6745,m,1,3.0951,,[],[],[],[],[],[],[],3.0951,1,33.6754,34.1739,0,0,0,7,1,1008,WORD,UN,16,hurdle,VOLUME,m,,,,,,,,,,,,,,,,,,,,,,,,,,,,,,,,,,,,,,,,,,,,,,,,,,,,,,,,,,,,,,,,,,
,,,,32185,001,2025-11-06_18h42.58.083,HW_LDT_1,2024.2.4,Win32,60.97560976,,,,,,,,,,,,,,,,,,,,,34.177,34.3737,34.3738,34.8738,34.8765,36.6742,m,1,1.7744,,[],[],[],[],[],[],[],1.7744,1,36.6742,37.1741,0,1,1,6,1,1007,WORD,UN,16,tropic,ZOMBIE,m,,,,,,,,,,,,,,,,,,,,,,,,,,,,,,,,,,,,,,,,,,,,,,,,,,,,,,,,,,,,,,,,,,
,,,,32185,001,2025-11-06_18h42.58.083,HW_LDT_1,2024.2.4,Win32,60.97560976,,,,,,,,,,,,,,,,,,,,,37.1769,37.3738,37.3739,37.8739,37.8765,39.5237,m,1,1.6279,,[],[],[],[],[],[],[],1.6279,1,39.5239,40.0238,0,2,2,2,1,1003,WORD,"ID",16,almond,ALMOND,m,,,,,,,,,,,,,,,,,,,,,,,,,,,,,,,,,,,,,,,,,,,,,,,,,,,,,,,,,,,,,,,,,,
,,,,32185,001,2025-11-06_18h42.58.083,HW_LDT_1,2024.2.4,Win32,60.97560976,,,,,,,,,,,,,,,,,,,,,40.0266,40.2238,40.224,40.7243,40.7276,43.3409,m,1,2.5912,,[],[],[],[],[],[],[],2.5912,1,43.3413,43.841,0,3,3,1,1,1002,WORD,"ID",33,adjust,ADJUST,m,,,,,,,,,,,,,,,,,,,,,,,,,,,,,,,,,,,,,,,,,,,,,,,,,,,,,,,,,,,,,,,,,,
,,,,32185,001,2025-11-06_18h42.58.083,HW_LDT_1,2024.2.4,Win32,60.97560976,,,,,,,,,,,,,,,,,,,,,43.8437,44.0406,44.0408,44.5407,44.5422,46.724,m,1,2.1544,,[],[],[],[],[],[],[],2.1544,1,46.7242,47.2242,0,4,4,5,1,1006,WORD,UN,33,frenzy,OBTAIN,m,,,,,,,,,,,,,,,,,,,,,,,,,,,,,,,,,,,,,,,,,,,,,,,,,,,,,,,,,,,,,,,,,,
,,,,32185,001,2025-11-06_18h42.58.083,HW_LDT_1,2024.2.4,Win32,60.97560976,,,,,,,,,,,,,,,,,,,,,47.226,47.424,47.4241,47.924,47.9266,49.6741,m,1,1.7175,,[],[],[],[],[],[],[],1.7175,1,49.6745,50.1742,0,5,5,4,1,1005,WORD,UN,33,abound,SQUEAK,m,,,,,,,,,,,,,,,,,,,,,,,,,,,,,,,,,,,,,,,,,,,,,,,,,,,,,,,,,,,,,,,,,,
,,,,32185,001,2025-11-06_18h42.58.083,HW_LDT_1,2024.2.4,Win32,60.97560976,,,,,,,,,,,,,,,,,,,,,50.1768,50.3741,50.3742,50.874,50.8767,53.4073,z,1,2.5042,,[],[],[],[],[],[],[],2.5042,1,53.4075,53.9075,0,6,6,14,1,1015,NW,UN,16,miaber,THRALE,z,,,,,,,,,,,,,,,,,,,,,,,,,,,,,,,,,,,,,,,,,,,,,,,,,,,,,,,,,,,,,,,,,,
,,,,32185,001,2025-11-06_18h42.58.083,HW_LDT_1,2024.2.4,Win32,60.97560976,,,,,,,,,,,,,,,,,,,,,53.9097,54.1078,54.1079,54.6077,54.61,55.5411,z,1,0.9023,,[],[],[],[],[],[],[],0.9023,1,55.5413,56.0408,0,7,7,9,1,1010,NW,"ID",33,fariny,FARINY,z,,,,,,,,,,,,,,,,,,,,,,,,,,,,,,,,,,,,,,,,,,,,,,,,,,,,,,,,,,,,,,,,,,
,,,,32185,001,2025-11-06_18h42.58.083,HW_LDT_1,2024.2.4,Win32,60.97560976,,,,,,,,,,,,,,,,,,,,,56.0435,56.2408,56.2408,56.741,56.7428,57.6748,m,1,0.901,,[],[],[],[],[],[],[],0.901,1,57.675,58.1744,0,8,8,0,1,1001,WORD,"ID",33,utopia,UTOPIA,m,,,,,,,,,,,,,,,,,,,,,,,,,,,,,,,,,,,,,,,,,,,,,,,,,,,,,,,,,,,,,,,,,,
,,,,32185,001,2025-11-06_18h42.58.083,HW_LDT_1,2024.2.4,Win32,60.97560976,,,,,,,,,,,,,,,,,,,,,58.1761,58.3742,58.3743,58.8738,58.8752,59.6744,z,1,0.767,,[],[],[],[],[],[],[],0.767,1,59.6746,60.1742,0,9,9,10,1,1011,NW,"ID",16,inlade,INLADE,z,,,,,,,,,,,,,,,,,,,,,,,,,,,,,,,,,,,,,,,,,,,,,,,,,,,,,,,,,,,,,,,,,,
,,,,32185,001,2025-11-06_18h42.58.083,HW_LDT_1,2024.2.4,Win32,60.97560976,,,,,,,,,,,,,,,,,,,,,60.1763,60.3739,60.374,60.8743,60.8767,61.5745,z,0,0.6726,,[],[],[],[],[],[],[],0.6726,0,61.5763,62.0745,0,10,10,3,1,1004,WORD,"ID",16,matrix,MATRIX,m,,,,,,,,,,,,,,,,,,,,,,,,,,,,,,,,,,,,,,,,,,,,,,,,,,,,,,,,,,,,,,,,,,
,,,,32185,001,2025-11-06_18h42.58.083,HW_LDT_1,2024.2.4,Win32,60.97560976,,,,,,,,,,,,,,,,,,,,,62.0759,62.2743,62.2743,62.7742,62.7758,63.7244,z,1,0.9172,,[],[],[],[],[],[],[],0.9172,1,63.7261,64.2243,0,11,11,15,1,1016,NW,UN,16,mushed,WHAISE,z,,,,,,,,,,,,,,,,,,,,,,,,,,,,,,,,,,,,,,,,,,,,,,,,,,,,,,,,,,,,,,,,,,
,,,,32185,001,2025-11-06_18h42.58.083,HW_LDT_1,2024.2.4,Win32,60.97560976,,,,,,,,,,,,,,,,,,,,,64.2261,64.4246,64.4247,64.9242,64.9255,65.8406,z,1,0.8923,,[],[],[],[],[],[],[],0.8923,1,65.8408,66.3412,0,12,12,8,1,1009,NW,"ID",33,aslert,ASLERT,z,,,,,,,,,,,,,,,,,,,,,,,,,,,,,,,,,,,,,,,,,,,,,,,,,,,,,,,,,,,,,,,,,,
,,,,32185,001,2025-11-06_18h42.58.083,HW_LDT_1,2024.2.4,Win32,60.97560976,,,,,,,,,,,,,,,,,,,,,66.343,66.541,66.5411,67.0406,67.0424,67.8745,z,1,0.8013,,[],[],[],[],[],[],[],0.8013,1,67.8748,68.3751,0,13,13,11,1,1012,NW,"ID",16,rashet,RASHET,z,,,,,,,,,,,,,,,,,,,,,,,,,,,,,,,,,,,,,,,,,,,,,,,,,,,,,,,,,,,,,,,,,,
,,,,32185,001,2025-11-06_18h42.58.083,HW_LDT_1,2024.2.4,Win32,60.97560976,,,,,,,,,,,,,,,,,,,,,68.3767,68.5744,68.5745,69.0744,69.0761,70.0799,z,1,0.9835,,[],[],[],[],[],[],[],0.9835,1,70.08,70.5749,0,14,14,13,1,1014,NW,UN,33,winfer,ROUPET,z,,,,,,,,,,,,,,,,,,,,,,,,,,,,,,,,,,,,,,,,,,,,,,,,,,,,,,,,,,,,,,,,,,
,,,,32185,001,2025-11-06_18h42.58.083,HW_LDT_1,2024.2.4,Win32,60.97560976,,,,,,,,,,,,,,,,,,,,,70.5763,70.7743,70.7744,71.2745,71.2755,72.0746,z,1,0.7665,,[],[],[],[],[],[],[],0.7665,1,72.0749,72.5747,0,15,15,12,1,1013,NW,UN,33,adveil,SPRINY,z,,,,,,,,,,,,,,,,,,,,,,,,,,,,,,,,,,,,,,,,,,,,,,,,,,,,,,,,,,,,,,,,,,
,,,,32185,001,2025-11-06_18h42.58.083,HW_LDT_1,2024.2.4,Win32,60.97560976,,,,,,,,,,,,,,,,1,end_of_practice,"You have completed the practice trials. During the experimental trials, you will not receive feedback. On some trials you will be asked to report whether the item you just saw was in cursive or print. 
Before you begin, please ensure that you are in a comfortable and quiet location and will not be disturbed for about 15 minutes, as we cannot use your data if you do not complete all the trials. 
 When you are ready to start the experimental trials, please press space or touch the button below.",,,,,,,,,,,,,,,,,,,,,,,,,,,,,,,,,,,,72.584,82.0258,space,9.4078,,0.081090104,-0.375373878,0,0,0,0,0,0,0,1,,,,,,,,,,,,,,,,,,,,,,,,,,,,,,,,,,,,,,,,,,,,,,,,,,,
,,,,32185,001,2025-11-06_18h42.58.083,HW_LDT_1,2024.2.4,Win32,60.97560976,,,,,,,,,,,,,,,,,,,,,82.0526,82.2249,82.225,82.7249,,,,,,,,,,,,,,3.5691,0,,,,,,,,,,,,,,m,,,,,,,,,,,,,,,,1,0,82.7264,86.3117,z,0,3.5691,,[],[],[],[],[],[],[],86.3122,88.3085,88.309,88.3142,[],[],[],[],[],[],[],,88.3145,88.3212,0.081090104,-0.375373878,0,0,0,,0,0,0,113,1,2,word,LITERAL,cursive,literal_c.png,,,,,,
,,,,32185,001,2025-11-06_18h42.58.083,HW_LDT_1,2024.2.4,Win32,60.97560976,,,,,,,,,,,,,,,,,,,,,88.3224,88.5248,88.5249,89.0248,,,,,,,,,,,,,,1.7719,1,,,,,,,,,,,,,,z,,,,,,,,,,,,,,,,2,1,89.026,90.8084,z,1,1.7719,,[],[],[],[],[],[],[],90.8086,92.8083,92.8084,98.1755,[],[],[],[],[],[],[],z,98.1758,98.176,0.081090104,-0.375373878,0,0,0,,0,1,1,26,1,2,RL,retupar,cursive,retupar_c.png,5.3609,,,,,
,,,,32185,001,2025-11-06_18h42.58.083,HW_LDT_1,2024.2.4,Win32,60.97560976,,,,,,,,,,,,,,,,,,,,,98.1777,98.3748,98.3748,98.8745,,,,,,,,,,,,,,1.3877,1,,,,,,,,,,,,,,m,,,,,,,,,,,,,,,,3,0,98.8754,100.2755,m,1,1.3877,,[],[],[],[],[],[],[],100.2758,102.2754,102.2754,102.2759,[],[],[],[],[],[],[],,102.2761,102.2765,0.081090104,-0.375373878,0,0,0,,0,2,2,143,1,2,word,REMOVAL,print,removal_p.png,,,,,,
,,,,32185,001,2025-11-06_18h42.58.083,HW_LDT_1,2024.2.4,Win32,60.97560976,,,,,,,,,,,,,,,,,,,,,102.2784,102.4749,102.475,102.975,,,,,,,,,,,,,,4.7551,0,,,,,,,,,,,,,,z,,,,,,,,,,,,,,,,4,0,102.9757,107.7318,m,0,4.7551,,[],[],[],[],[],[],[],107.732,109.7254,109.7255,109.7257,[],[],[],[],[],[],[],,109.7258,109.726,0.081090104,-0.375373878,0,0,0,,0,3,3,71,1,2,TL,retome,cursive,retome_c.png,,,,,,
,,,,32185,001,2025-11-06_18h42.58.083,HW_LDT_1,2024.2.4,Win32,60.97560976,,,,,,,,,,,,,,,,,,,,,109.7275,109.9248,109.9248,110.4251,,,,,,,,,,,,,,0.8757,1,,,,,,,,,,,,,,m,,,,,,,,,,,,,,,,5,0,110.426,111.3086,m,1,0.8757,,[],[],[],[],[],[],[],111.3087,113.309,113.3091,113.3095,[],[],[],[],[],[],[],,113.3096,113.3099,0.081090104,-0.375373878,0,0,0,,0,4,4,115,1,2,word,LOGICAL,print,logical_p.png,,,,,,
,,,,32185,001,2025-11-06_18h42.58.083,HW_LDT_1,2024.2.4,Win32,60.97560976,,,,,,,,,,,,,,,,,,,,,113.3118,113.5086,113.5086,114.0085,,,,,,,,,,,,,,1.8879,1,,,,,,,,,,,,,,m,,,,,,,,,,,,,,,,6,1,114.0093,115.9085,m,1,1.8879,,[],[],[],[],[],[],[],115.9088,117.9089,117.9091,124.0117,[],[],[],[],[],[],[],z,124.0119,124.0122,0.081090104,-0.375373878,0,0,0,,0,5,5,82,1,2,word,AMATEUR,cursive,amateur_c.png,6.0969,,,,,
,,,,32185,001,2025-11-06_18h42.58.083,HW_LDT_1,2024.2.4,Win32,60.97560976,,,,,,,,,,,,,,,,,,,,,124.0139,124.2085,124.2087,124.7085,,,,,,,,,,,,,,1.0801,1,,,,,,,,,,,,,,z,,,,,,,,,,,,,,,,7,0,124.7095,125.7916,z,1,1.0801,,[],[],[],[],[],[],[],125.7918,127.7922,127.7926,127.7932,[],[],[],[],[],[],[],,127.7933,127.7937,0.081090104,-0.375373878,0,0,0,,0,6,6,43,1,2,TL,carema,print,carema_p.png,,,,,,
,,,,32185,001,2025-11-06_18h42.58.083,HW_LDT_1,2024.2.4,Win32,60.97560976,,,,,,,,,,,,,,,,,,,,,127.7953,127.9916,127.9916,128.4921,,,,,,,,,,,,,,3.4391,1,,,,,,,,,,,,,,z,,,,,,,,,,,,,,,,8,0,128.4931,131.9424,z,1,3.4391,,[],[],[],[],[],[],[],131.9426,133.9422,133.9423,133.9426,[],[],[],[],[],[],[],,133.9426,133.9429,0.081090104,-0.375373878,0,0,0,,0,7,7,19,1,2,RL,monebate,cursive,monebate_c.png,,,,,,
,,,,32185,001,2025-11-06_18h42.58.083,HW_LDT_1,2024.2.4,Win32,60.97560976,,,,,,,,,,,,,,,,,,,,,133.9445,134.1421,134.1422,134.6422,,,,,,,,,,,,,,2.122,0,,,,,,,,,,,,,,m,,,,,,,,,,,,,,,,9,0,134.643,136.7758,z,0,2.122,,[],[],[],[],[],[],[],136.7759,138.7753,138.7754,138.7757,[],[],[],[],[],[],[],,138.7758,138.776,0.081090104,-0.375373878,0,0,0,,0,8,8,123,1,2,word,MODERATE,cursive,moderate_c.png,,,,,,
,,,,32185,001,2025-11-06_18h42.58.083,HW_LDT_1,2024.2.4,Win32,60.97560976,,,,,,,,,,,,,,,,,,,,,138.7778,138.9754,138.9755,139.4758,,,,,,,,,,,,,,0.9566,1,,,,,,,,,,,,,,z,,,,,,,,,,,,,,,,10,0,139.477,140.442,z,1,0.9566,,[],[],[],[],[],[],[],140.4421,142.4424,142.4425,142.4428,[],[],[],[],[],[],[],,142.4428,142.4432,0.081090104,-0.375373878,0,0,0,,0,9,9,1,1,2,RL,caleberia,print,caleberia_p.png,,,,,,
,,,,32185,001,2025-11-06_18h42.58.083,HW_LDT_1,2024.2.4,Win32,60.97560976,,,,,,,,,,,,,,,,,,,,,142.4453,142.6423,142.6425,143.1424,,,,,,,,,,,,,,4.5131,1,,,,,,,,,,,,,,z,,,,,,,,,,,,,,,,11,1,143.1435,147.6584,z,1,4.5131,,[],[],[],[],[],[],[],147.6586,149.6589,149.659,150.7424,[],[],[],[],[],[],[],z,150.7425,150.7428,0.081090104,-0.375373878,0,0,0,,0,10,10,42,1,2,TL,bedise,cursive,bedise_c.png,1.0746,,,,,
,,,,32185,001,2025-11-06_18h42.58.083,HW_LDT_1,2024.2.4,Win32,60.97560976,,,,,,,,,,,,,,,,,,,,,150.745,150.9423,150.9425,151.4422,,,,,,,,,,,,,,0.9208,1,,,,,,,,,,,,,,z,,,,,,,,,,,,,,,,12,0,151.443,152.3755,z,1,0.9208,,[],[],[],[],[],[],[],152.3755,154.3754,154.3755,154.3757,[],[],[],[],[],[],[],,154.3757,154.3758,0.081090104,-0.375373878,0,0,0,,0,11,11,77,1,2,TL,sloten,print,sloten_p.png,,,,,,
,,,,32185,001,2025-11-06_18h42.58.083,HW_LDT_1,2024.2.4,Win32,60.97560976,,,,,,,,,,,,,,,,,,,,,154.3771,154.5759,154.576,155.0757,,,,,,,,,,,,,,1.0568,1,,,,,,,,,,,,,,m,,,,,,,,,,,,,,,,13,1,155.0763,156.1424,m,1,1.0568,,[],[],[],[],[],[],[],156.1424,158.1425,158.1427,159.1095,[],[],[],[],[],[],[],m,159.1096,159.1099,0.081090104,-0.375373878,0,0,0,,0,12,12,147,1,2,word,ROMANTIC,print,romantic_p.png,0.9563,,,,,
,,,,32185,001,2025-11-06_18h42.58.083,HW_LDT_1,2024.2.4,Win32,60.97560976,,,,,,,,,,,,,,,,,,,,,159.1118,159.3087,159.3088,159.8089,,,,,,,,,,,,,,1.594,1,,,,,,,,,,,,,,z,,,,,,,,,,,,,,,,14,0,159.8097,161.4092,z,1,1.594,,[],[],[],[],[],[],[],161.4094,163.4093,163.4093,163.4095,[],[],[],[],[],[],[],,163.4096,163.4096,0.081090104,-0.375373878,0,0,0,,0,13,13,12,1,2,RL,gralekul,cursive,gralekul_c.png,,,,,,
,,,,32185,001,2025-11-06_18h42.58.083,HW_LDT_1,2024.2.4,Win32,60.97560976,,,,,,,,,,,,,,,,,,,,,163.4111,163.6092,163.6092,164.1092,,,,,,,,,,,,,,2.8056,0,,,,,,,,,,,,,,z,,,,,,,,,,,,,,,,15,0,164.1097,166.9262,m,0,2.8056,,[],[],[],[],[],[],[],166.9263,168.926,168.9261,168.9264,[],[],[],[],[],[],[],,168.9265,168.9267,0.081090104,-0.375373878,0,0,0,,0,14,14,37,1,2,TL,adacemy,cursive,adacemy_c.png,,,,,,
,,,,32185,001,2025-11-06_18h42.58.083,HW_LDT_1,2024.2.4,Win32,60.97560976,,,,,,,,,,,,,,,,,,,,,168.9285,169.1261,169.1262,169.6262,,,,,,,,,,,,,,1.8708,1,,,,,,,,,,,,,,z,,,,,,,,,,,,,,,,16,0,169.6268,171.5093,z,1,1.8708,,[],[],[],[],[],[],[],171.5095,173.5093,173.5094,173.5098,[],[],[],[],[],[],[],,173.5098,173.51,0.081090104,-0.375373878,0,0,0,,0,15,15,70,1,2,TL,retalive,print,retalive_p.png,,,,,,
,,,,32185,001,2025-11-06_18h42.58.083,HW_LDT_1,2024.2.4,Win32,60.97560976,,,,,,,,,,,,,,,,,,,,,173.5123,173.7095,173.7097,174.2096,,,,,,,,,,,,,,0.8876,1,,,,,,,,,,,,,,z,,,,,,,,,,,,,,,,17,0,174.2104,175.1095,z,1,0.8876,,[],[],[],[],[],[],[],175.1096,177.1095,177.1096,177.1098,[],[],[],[],[],[],[],,177.1099,177.1101,0.081090104,-0.375373878,0,0,0,,0,16,16,16,1,2,RL,losipal,print,losipal_p.png,,,,,,
,,,,32185,001,2025-11-06_18h42.58.083,HW_LDT_1,2024.2.4,Win32,60.97560976,,,,,,,,,,,,,,,,,,,,,177.1118,177.3095,177.3096,177.8096,,,,,,,,,,,,,,1.9567,1,,,,,,,,,,,,,,z,,,,,,,,,,,,,,,,18,0,177.8104,179.7759,z,1,1.9567,,[],[],[],[],[],[],[],179.776,181.776,181.776,181.7762,[],[],[],[],[],[],[],,181.7764,181.7766,0.081090104,-0.375373878,0,0,0,,0,17,17,9,1,2,RL,denficy,print,denficy_p.png,,,,,,
,,,,32185,001,2025-11-06_18h42.58.083,HW_LDT_1,2024.2.4,Win32,60.97560976,,,,,,,,,,,,,,,,,,,,,181.7782,181.9761,181.9762,182.476,,,,,,,,,,,,,,3.0577,0,,,,,,,,,,,,,,m,,,,,,,,,,,,,,,,19,0,182.4767,185.5429,z,0,3.0577,,[],[],[],[],[],[],[],185.543,187.5433,187.5434,187.5436,[],[],[],[],[],[],[],,187.5437,187.5442,0.080425411,-0.378032589,0,0,0,,0,18,18,126,1,2,word,OPTIMAL,cursive,optimal_c.png,,,,,,
,,,,32185,001,2025-11-06_18h42.58.083,HW_LDT_1,2024.2.4,Win32,60.97560976,,,,,,,,,,,,,,,,,,,,,187.5455,187.7487,187.7488,188.2433,,,,,,,,,,,,,,0.6055,1,,,,,,,,,,,,,,z,,,,,,,,,,,,,,,,20,0,188.2442,188.8598,z,1,0.6055,,[],[],[],[],[],[],[],188.86,190.8595,190.8597,190.8598,[],[],[],[],[],[],[],,190.86,190.8601,-0.034562937,-0.386008661,0,0,0,,0,19,19,66,1,2,TL,prodive,cursive,prodive_c.png,,,,,,
,,,,32185,001,2025-11-06_18h42.58.083,HW_LDT_1,2024.2.4,Win32,60.97560976,,,,,,,,,,,,,,,,,,,,,190.862,191.0599,191.0599,191.5597,,,,,,,,,,,,,,1.2062,1,,,,,,,,,,,,,,m,,,,,,,,,,,,,,,,21,0,191.5605,192.7764,m,1,1.2062,,[],[],[],[],[],[],[],192.7765,194.776,194.776,194.7764,[],[],[],[],[],[],[],,194.7764,194.7765,-0.034562937,-0.386008661,0,0,0,,0,20,20,81,1,2,word,ADVISORY,print,advisory_p.png,,,,,,
,,,,32185,001,2025-11-06_18h42.58.083,HW_LDT_1,2024.2.4,Win32,60.97560976,,,,,,,,,,,,,,,,,,,,,194.7778,194.9763,194.9764,195.4759,,,,,,,,,,,,,,1.5876,0,,,,,,,,,,,,,,z,,,,,,,,,,,,,,,,22,0,195.4768,197.0764,m,0,1.5876,,[],[],[],[],[],[],[],197.0766,199.0766,199.0766,199.0767,[],[],[],[],[],[],[],,199.0768,199.077,-0.034562937,-0.386008661,0,0,0,,0,21,21,38,1,2,TL,atameur,cursive,atameur_c.png,,,,,,
,,,,32185,001,2025-11-06_18h42.58.083,HW_LDT_1,2024.2.4,Win32,60.97560976,,,,,,,,,,,,,,,,,,,,,199.0788,199.2765,199.2765,199.7766,,,,,,,,,,,,,,1.1596,1,,,,,,,,,,,,,,m,,,,,,,,,,,,,,,,23,0,199.7773,200.9432,m,1,1.1596,,[],[],[],[],[],[],[],200.9434,202.9429,202.9429,202.943,[],[],[],[],[],[],[],,202.9431,202.9432,-0.034562937,-0.386008661,0,0,0,,0,22,22,95,1,2,word,COMEDY,cursive,comedy_c.png,,,,,,
,,,,32185,001,2025-11-06_18h42.58.083,HW_LDT_1,2024.2.4,Win32,60.97560976,,,,,,,,,,,,,,,,,,,,,202.9447,203.1431,203.1433,203.6433,,,,,,,,,,,,,,5.4554,1,,,,,,,,,,,,,,m,,,,,,,,,,,,,,,,24,0,203.6442,209.1104,m,1,5.4554,,[],[],[],[],[],[],[],209.1106,211.11,211.1101,211.1103,[],[],[],[],[],[],[],,211.1105,211.1106,-0.034562937,-0.386008661,0,0,0,,0,23,23,148,1,2,word,SALINE,cursive,saline_c.png,,,,,,
,,,,32185,001,2025-11-06_18h42.58.083,HW_LDT_1,2024.2.4,Win32,60.97560976,,,,,,,,,,,,,,,,,,,,,211.1126,211.3095,211.3096,211.8102,,,,,,,,,,,,,,1.1466,1,,,,,,,,,,,,,,m,,,,,,,,,,,,,,,,25,0,211.8114,212.9597,m,1,1.1466,,[],[],[],[],[],[],[],212.9598,214.96,214.9601,214.9604,[],[],[],[],[],[],[],,214.9604,214.9606,-0.034562937,-0.386008661,0,0,0,,0,24,24,84,1,2,word,BELOVED,cursive,beloved_c.png,,,,,,
,,,,32185,001,2025-11-06_18h42.58.083,HW_LDT_1,2024.2.4,Win32,60.97560976,,,,,,,,,,,,,,,,,,,,,214.9624,215.1603,215.1604,215.6599,,,,,,,,,,,,,,1.554,1,,,,,,,,,,,,,,z,,,,,,,,,,,,,,,,26,0,215.6607,217.2268,z,1,1.554,,[],[],[],[],[],[],[],217.2269,219.2265,219.2267,219.2269,[],[],[],[],[],[],[],,219.227,219.2272,-0.034562937,-0.386008661,0,0,0,,0,25,25,0,1,2,RL,adnicory,print,adnicory_p.png,,,,,,
,,,,32185,001,2025-11-06_18h42.58.083,HW_LDT_1,2024.2.4,Win32,60.97560976,,,,,,,,,,,,,,,,,,,,,219.229,219.4268,219.427,219.9267,,,,,,,,,,,,,,1.6898,1,,,,,,,,,,,,,,z,,,,,,,,,,,,,,,,27,0,219.9274,221.6269,z,1,1.6898,,[],[],[],[],[],[],[],221.627,223.627,223.627,223.6274,[],[],[],[],[],[],[],,223.6275,223.6277,-0.034562937,-0.386008661,0,0,0,,0,26,26,74,1,2,TL,rerite,cursive,rerite_c.png,,,,,,
,,,,32185,001,2025-11-06_18h42.58.083,HW_LDT_1,2024.2.4,Win32,60.97560976,,,,,,,,,,,,,,,,,,,,,223.6293,223.8269,223.827,224.327,,,,,,,,,,,,,,0.8377,1,,,,,,,,,,,,,,z,,,,,,,,,,,,,,,,28,0,224.3276,225.1768,z,1,0.8377,,[],[],[],[],[],[],[],225.1769,227.1771,227.1772,227.1775,[],[],[],[],[],[],[],,227.1776,227.1777,-0.034562937,-0.386008661,0,0,0,,0,27,27,14,1,2,RL,insibate,cursive,insibate_c.png,,,,,,
,,,,32185,001,2025-11-06_18h42.58.083,HW_LDT_1,2024.2.4,Win32,60.97560976,,,,,,,,,,,,,,,,,,,,,227.1799,227.3766,227.3767,227.8768,,,,,,,,,,,,,,1.3647,1,,,,,,,,,,,,,,z,,,,,,,,,,,,,,,,29,0,227.8774,229.2433,z,1,1.3647,,[],[],[],[],[],[],[],229.2434,231.2438,231.2439,231.2442,[],[],[],[],[],[],[],,231.2444,231.2446,-0.034562937,-0.386008661,0,0,0,,0,28,28,50,1,2,TL,donimant,print,donimant_p.png,,,,,,
,,,,32185,001,2025-11-06_18h42.58.083,HW_LDT_1,2024.2.4,Win32,60.97560976,,,,,,,,,,,,,,,,,,,,,231.2464,231.4436,231.4436,231.9437,,,,,,,,,,,,,,1.0804,1,,,,,,,,,,,,,,z,,,,,,,,,,,,,,,,30,1,231.9444,233.0267,z,1,1.0804,,[],[],[],[],[],[],[],233.0267,235.0268,235.027,237.327,[],[],[],[],[],[],[],m,237.3272,237.3273,-0.034562937,-0.386008661,0,0,0,,0,29,29,78,1,2,TL,stogare,print,stogare_p.png,2.2889,,,,,
,,,,32185,001,2025-11-06_18h42.58.083,HW_LDT_1,2024.2.4,Win32,60.97560976,,,,,,,,,,,,,,,,,,,,,237.3294,237.5271,237.5271,238.0265,,,,,,,,,,,,,,3.8225,1,,,,,,,,,,,,,,z,,,,,,,,,,,,,,,,31,0,238.0272,241.8607,z,1,3.8225,,[],[],[],[],[],[],[],241.8607,243.86,243.8601,243.8604,[],[],[],[],[],[],[],,243.8605,243.8606,-0.034562937,-0.386008661,0,0,0,,0,30,30,33,1,2,RL,strapely,cursive,strapely_c.png,,,,,,
,,,,32185,001,2025-11-06_18h42.58.083,HW_LDT_1,2024.2.4,Win32,60.97560976,,,,,,,,,,,,,,,,,,,,,243.8626,244.061,244.0611,244.5605,,,,,,,,,,,,,,1.8201,1,,,,,,,,,,,,,,z,,,,,,,,,,,,,,,,32,1,244.5613,246.3935,z,1,1.8201,,[],[],[],[],[],[],[],246.3937,248.3936,248.3937,249.8105,[],[],[],[],[],[],[],m,249.8106,249.8109,-0.034562937,-0.386008661,0,0,0,,0,31,31,28,1,2,RL,revune,cursive,revune_c.png,1.4049,,,,,
,,,,32185,001,2025-11-06_18h42.58.083,HW_LDT_1,2024.2.4,Win32,60.97560976,,,,,,,,,,,,,,,,,,,,,249.813,250.0108,250.0109,250.5107,,,,,,,,,,,,,,3.5452,1,,,,,,,,,,,,,,z,,,,,,,,,,,,,,,,33,0,250.5116,254.0609,z,1,3.5452,,[],[],[],[],[],[],[],254.0611,256.0605,256.0606,256.0608,[],[],[],[],[],[],[],,256.0609,256.061,-0.034562937,-0.386008661,0,0,0,,0,32,32,63,1,2,TL,orinigal,print,orinigal_p.png,,,,,,
,,,,32185,001,2025-11-06_18h42.58.083,HW_LDT_1,2024.2.4,Win32,60.97560976,,,,,,,,,,,,,,,,,,,,,256.0629,256.2606,256.2607,256.7607,,,,,,,,,,,,,,0.0365,0,,,,,,,,,,,,,,m,,,,,,,,,,,,,,,,34,0,256.7619,256.8111,z,0,0.0365,,[],[],[],[],[],[],[],256.8113,258.8112,258.8113,258.8116,[],[],[],[],[],[],[],,258.8117,258.8119,-0.034562937,-0.386008661,0,0,0,,0,33,33,83,1,2,word,ANIMAL,print,animal_p.png,,,,,,
,,,,32185,001,2025-11-06_18h42.58.083,HW_LDT_1,2024.2.4,Win32,60.97560976,,,,,,,,,,,,,,,,,,,,,258.814,259.0107,259.0107,259.5106,,,,,,,,,,,,,,1.8209,1,,,,,,,,,,,,,,m,,,,,,,,,,,,,,,,35,0,259.5113,261.3437,m,1,1.8209,,[],[],[],[],[],[],[],261.3439,263.3442,263.3443,263.3445,[],[],[],[],[],[],[],,263.3446,263.3449,-0.034562937,-0.386008661,0,0,0,,0,34,34,119,1,2,word,MEMORY,cursive,memory_c.png,,,,,,
,,,,32185,001,2025-11-06_18h42.58.083,HW_LDT_1,2024.2.4,Win32,60.97560976,,,,,,,,,,,,,,,,,,,,,263.3468,263.5444,263.5444,264.0442,,,,,,,,,,,,,,1.0388,1,,,,,,,,,,,,,,m,,,,,,,,,,,,,,,,36,1,264.0448,265.0953,m,1,1.0388,,[],[],[],[],[],[],[],265.0954,267.0948,267.0949,269.1944,[],[],[],[],[],[],[],m,269.1944,269.1946,-0.034562937,-0.386008661,0,0,0,,0,35,35,137,1,2,word,RAPIDLY,print,rapidly_p.png,2.0913,,,,,
,,,,32185,001,2025-11-06_18h42.58.083,HW_LDT_1,2024.2.4,Win32,60.97560976,,,,,,,,,,,,,,,,,,,,,269.1961,269.395,269.395,269.8943,,,,,,,,,,,,,,0.8806,1,,,,,,,,,,,,,,m,,,,,,,,,,,,,,,,37,0,269.895,270.7773,m,1,0.8806,,[],[],[],[],[],[],[],270.7774,272.7776,272.7777,272.778,[],[],[],[],[],[],[],,272.778,272.7782,-0.034562937,-0.386008661,0,0,0,,0,36,36,96,1,2,word,CONSIDER,print,consider_p.png,,,,,,
,,,,32185,001,2025-11-06_18h42.58.083,HW_LDT_1,2024.2.4,Win32,60.97560976,,,,,,,,,,,,,,,,,,,,,272.7803,272.9778,272.9779,273.4776,,,,,,,,,,,,,,1.8305,1,,,,,,,,,,,,,,z,,,,,,,,,,,,,,,,38,0,273.4784,275.3106,z,1,1.8305,,[],[],[],[],[],[],[],275.3107,277.311,277.311,277.3114,[],[],[],[],[],[],[],,277.3114,277.3115,-0.034562937,-0.386008661,0,0,0,,0,37,37,59,1,2,TL,miskate,cursive,miskate_c.png,,,,,,
,,,,32185,001,2025-11-06_18h42.58.083,HW_LDT_1,2024.2.4,Win32,60.97560976,,,,,,,,,,,,,,,,,,,,,277.3128,277.5107,277.5107,278.0111,,,,,,,,,,,,,,1.0766,1,,,,,,,,,,,,,,m,,,,,,,,,,,,,,,,39,1,278.0119,279.094,m,1,1.0766,,[],[],[],[],[],[],[],279.0941,281.0942,281.0943,282.9113,[],[],[],[],[],[],[],m,282.9115,282.9117,-0.034562937,-0.386008661,0,0,0,,0,38,38,144,1,2,word,RESIDENT,print,resident_p.png,1.8112,,,,,
,,,,32185,001,2025-11-06_18h42.58.083,HW_LDT_1,2024.2.4,Win32,60.97560976,,,,,,,,,,,,,,,,,,,,,282.9133,283.1111,283.1112,283.6117,,,,,,,,,,,,,,10.8132,1,,,,,,,,,,,,,,z,,,,,,,,,,,,,,,,40,0,283.6124,294.4275,z,1,10.8132,,[],[],[],[],[],[],[],294.4276,296.4283,296.4284,296.4285,[],[],[],[],[],[],[],,296.4286,296.4287,-0.034562937,-0.386008661,0,0,0,,0,39,39,68,1,2,TL,quatily,cursive,quatily_c.png,,,,,,
,,,,32185,001,2025-11-06_18h42.58.083,HW_LDT_1,2024.2.4,Win32,60.97560976,,,,,,,,,,,,,,,,,,,,,296.43,296.6279,296.6281,297.1278,,,,,,,,,,,,,,1.7633,1,,,,,,,,,,,,,,z,,,,,,,,,,,,,,,,41,0,297.1284,298.8949,z,1,1.7633,,[],[],[],[],[],[],[],298.895,300.8947,300.8948,300.895,[],[],[],[],[],[],[],,300.8952,300.8953,-0.034562937,-0.386008661,0,0,0,,0,40,40,27,1,2,RL,repifion,cursive,repifion_c.png,,,,,,
,,,,32185,001,2025-11-06_18h42.58.083,HW_LDT_1,2024.2.4,Win32,60.97560976,,,,,,,,,,,,,,,,,,,,,300.8971,301.0949,301.095,301.5949,,,,,,,,,,,,,,2.9605,0,,,,,,,,,,,,,,z,,,,,,,,,,,,,,,,42,0,301.5956,304.5614,m,0,2.9605,,[],[],[],[],[],[],[],304.5616,306.5615,306.5616,306.5618,[],[],[],[],[],[],[],,306.5618,306.5621,-0.034562937,-0.386008661,0,0,0,,0,41,41,5,1,2,RL,clisimal,cursive,clisimal_c.png,,,,,,
,,,,32185,001,2025-11-06_18h42.58.083,HW_LDT_1,2024.2.4,Win32,60.97560976,,,,,,,,,,,,,,,,,,,,,306.5646,306.761,306.7611,307.2615,,,,,,,,,,,,,,2.4212,0,,,,,,,,,,,,,,m,,,,,,,,,,,,,,,,43,0,307.2622,309.6947,z,0,2.4212,,[],[],[],[],[],[],[],309.6948,311.6948,311.6949,311.6951,[],[],[],[],[],[],[],,311.6952,311.6954,-0.034562937,-0.386008661,0,0,0,,0,42,42,146,1,2,word,RETIRE,cursive,retire_c.png,,,,,,
,,,,32185,001,2025-11-06_18h42.58.083,HW_LDT_1,2024.2.4,Win32,60.97560976,,,,,,,,,,,,,,,,,,,,,311.6974,311.8948,311.8949,312.3948,,,,,,,,,,,,,,1.5222,1,,,,,,,,,,,,,,z,,,,,,,,,,,,,,,,44,0,312.3956,313.9279,z,1,1.5222,,[],[],[],[],[],[],[],313.928,315.9284,315.9286,315.9288,[],[],[],[],[],[],[],,315.929,315.9291,-0.034562937,-0.386008661,0,0,0,,0,43,43,8,1,2,RL,desifate,print,desifate_p.png,,,,,,
,,,,32185,001,2025-11-06_18h42.58.083,HW_LDT_1,2024.2.4,Win32,60.97560976,,,,,,,,,,,,,,,,,,,,,315.9316,316.1278,316.1279,316.6284,,,,,,,,,,,,,,1.037,1,,,,,,,,,,,,,,m,,,,,,,,,,,,,,,,45,0,316.6291,317.6782,m,1,1.037,,[],[],[],[],[],[],[],317.6783,319.6783,319.6784,319.6786,[],[],[],[],[],[],[],,319.6787,319.6788,-0.034562937,-0.386008661,0,0,0,,0,44,44,88,1,2,word,CAMERA,print,camera_p.png,,,,,,
,,,,32185,001,2025-11-06_18h42.58.083,HW_LDT_1,2024.2.4,Win32,60.97560976,,,,,,,,,,,,,,,,,,,,,319.6805,319.8784,319.8786,320.3782,,,,,,,,,,,,,,3.5044,1,,,,,,,,,,,,,,z,,,,,,,,,,,,,,,,46,0,320.379,323.8951,z,1,3.5044,,[],[],[],[],[],[],[],323.8952,325.8951,325.8952,325.8955,[],[],[],[],[],[],[],,325.8955,325.8957,-0.034562937,-0.386008661,0,0,0,,0,45,45,61,1,2,TL,nuremical,cursive,nuremical_c.png,,,,,,
,,,,32185,001,2025-11-06_18h42.58.083,HW_LDT_1,2024.2.4,Win32,60.97560976,,,,,,,,,,,,,,,,,,,,,325.8978,326.0952,326.0952,326.5947,,,,,,,,,,,,,,4.5922,0,,,,,,,,,,,,,,m,,,,,,,,,,,,,,,,47,0,326.5951,331.1952,z,0,4.5922,,[],[],[],[],[],[],[],331.1953,333.1949,333.1951,333.1952,[],[],[],[],[],[],[],,333.1954,333.1955,-0.034562937,-0.386008661,0,0,0,,0,46,46,116,1,2,word,MARGINAL,cursive,marginal_c.png,,,,,,
,,,,32185,001,2025-11-06_18h42.58.083,HW_LDT_1,2024.2.4,Win32,60.97560976,,,,,,,,,,,,,,,,,,,,,333.1974,333.3951,333.3951,333.8952,,,,,,,,,,,,,,1.4897,1,,,,,,,,,,,,,,m,,,,,,,,,,,,,,,,48,0,333.896,335.3952,m,1,1.4897,,[],[],[],[],[],[],[],335.3953,337.3951,337.3952,337.3955,[],[],[],[],[],[],[],,337.3955,337.3957,-0.034562937,-0.386008661,0,0,0,,0,47,47,136,1,2,word,RADICAL,cursive,radical_c.png,,,,,,
,,,,32185,001,2025-11-06_18h42.58.083,HW_LDT_1,2024.2.4,Win32,60.97560976,,,,,,,,,,,,,,,,,,,,,337.3976,337.5953,337.5953,338.0953,,,,,,,,,,,,,,2.4547,1,,,,,,,,,,,,,,z,,,,,,,,,,,,,,,,49,0,338.096,340.5621,z,1,2.4547,,[],[],[],[],[],[],[],340.5622,342.5621,342.5623,342.5624,[],[],[],[],[],[],[],,342.5625,342.5628,-0.034562937,-0.386008661,0,0,0,,0,48,48,76,1,2,TL,senmitent,cursive,senmitent_c.png,,,,,,
,,,,32185,001,2025-11-06_18h42.58.083,HW_LDT_1,2024.2.4,Win32,60.97560976,,,,,,,,,,,,,,,,,,,,,342.5647,342.7623,342.7623,343.2622,,,,,,,,,,,,,,1.4562,1,,,,,,,,,,,,,,z,,,,,,,,,,,,,,,,50,0,343.2628,344.729,z,1,1.4562,,[],[],[],[],[],[],[],344.7291,346.7288,346.7289,346.7291,[],[],[],[],[],[],[],,346.7291,346.7293,-0.034562937,-0.386008661,0,0,0,,0,49,49,10,1,2,RL,disluge,cursive,disluge_c.png,,,,,,
,,,,32185,001,2025-11-06_18h42.58.083,HW_LDT_1,2024.2.4,Win32,60.97560976,,,,,,,,,,,,,,,,,,,,,346.7312,346.929,346.929,347.4287,,,,,,,,,,,,,,1.8811,0,,,,,,,,,,,,,,m,,,,,,,,,,,,,,,,51,0,347.4295,349.3119,z,0,1.8811,,[],[],[],[],[],[],[],349.3119,351.3128,351.3128,351.313,[],[],[],[],[],[],[],,351.313,351.3132,-0.034562937,-0.386008661,0,0,0,,0,50,50,107,1,2,word,EVIDENT,cursive,evident_c.png,,,,,,
,,,,32185,001,2025-11-06_18h42.58.083,HW_LDT_1,2024.2.4,Win32,60.97560976,,,,,,,,,,,,,,,,,,,,,351.3152,351.5123,351.5123,352.0122,,,,,,,,,,,,,,1.4094,0,,,,,,,,,,,,,,m,,,,,,,,,,,,,,,,52,0,352.013,353.4288,z,0,1.4094,,[],[],[],[],[],[],[],353.4289,355.4291,355.4291,355.4294,[],[],[],[],[],[],[],,355.4295,355.4298,-0.034562937,-0.386008661,0,0,0,,0,51,51,139,1,2,word,REGULAR,cursive,regular_c.png,,,,,,
,,,,32185,001,2025-11-06_18h42.58.083,HW_LDT_1,2024.2.4,Win32,60.97560976,,,,,,,,,,,,,,,,,,,,,355.4316,355.629,355.6291,356.1286,,,,,,,,,,,,,,2.3641,1,,,,,,,,,,,,,,m,,,,,,,,,,,,,,,,53,0,356.1293,358.4952,m,1,2.3641,,[],[],[],[],[],[],[],358.4953,360.4955,360.4957,360.4959,[],[],[],[],[],[],[],,360.496,360.4961,-0.034562937,-0.386008661,0,0,0,,0,52,52,86,1,2,word,BESIDE,cursive,beside_c.png,,,,,,
,,,,32185,001,2025-11-06_18h42.58.083,HW_LDT_1,2024.2.4,Win32,60.97560976,,,,,,,,,,,,,,,,,,,,,360.4979,360.6961,360.6961,361.1967,,,,,,,,,,,,,,2.2198,1,,,,,,,,,,,,,,z,,,,,,,,,,,,,,,,54,0,361.1976,363.429,z,1,2.2198,,[],[],[],[],[],[],[],363.4291,365.4294,365.4294,365.4295,[],[],[],[],[],[],[],,365.4296,365.4298,-0.034562937,-0.386008661,0,0,0,,0,53,53,54,1,2,TL,liretal,cursive,liretal_c.png,,,,,,
,,,,32185,001,2025-11-06_18h42.58.083,HW_LDT_1,2024.2.4,Win32,60.97560976,,,,,,,,,,,,,,,,,,,,,365.4316,365.6289,365.629,366.1285,,,,,,,,,,,,,,1.5761,1,,,,,,,,,,,,,,z,,,,,,,,,,,,,,,,55,0,366.1291,367.7125,z,1,1.5761,,[],[],[],[],[],[],[],367.7126,369.7124,369.7125,369.7127,[],[],[],[],[],[],[],,369.7127,369.713,-0.034562937,-0.386008661,0,0,0,,0,54,54,15,1,2,RL,linedal,print,linedal_p.png,,,,,,
,,,,32185,001,2025-11-06_18h42.58.083,HW_LDT_1,2024.2.4,Win32,60.97560976,,,,,,,,,,,,,,,,,,,,,369.7145,369.9131,369.9132,370.4125,,,,,,,,,,,,,,1.6958,1,,,,,,,,,,,,,,z,,,,,,,,,,,,,,,,56,0,370.413,372.115,z,1,1.6958,,[],[],[],[],[],[],[],372.1152,374.1125,374.1126,374.1127,[],[],[],[],[],[],[],,374.1128,374.113,-0.034562937,-0.386008661,0,0,0,,0,55,55,73,1,2,TL,redisent,print,redisent_p.png,,,,,,
,,,,32185,001,2025-11-06_18h42.58.083,HW_LDT_1,2024.2.4,Win32,60.97560976,,,,,,,,,,,,,,,,,,,,,374.1149,374.3124,374.3126,374.8126,,,,,,,,,,,,,,0.8792,1,,,,,,,,,,,,,,m,,,,,,,,,,,,,,,,57,0,374.8134,375.6956,m,1,0.8792,,[],[],[],[],[],[],[],375.6956,377.6966,377.6966,377.6968,[],[],[],[],[],[],[],,377.6968,377.6969,-0.034562937,-0.386008661,0,0,0,,0,56,56,122,1,2,word,MOBILE,print,mobile_p.png,,,,,,
,,,,32185,001,2025-11-06_18h42.58.083,HW_LDT_1,2024.2.4,Win32,60.97560976,,,,,,,,,,,,,,,,,,,,,377.6983,377.896,377.896,378.396,,,,,,,,,,,,,,1.3581,0,,,,,,,,,,,,,,z,,,,,,,,,,,,,,,,58,0,378.3967,379.7626,m,0,1.3581,,[],[],[],[],[],[],[],379.7627,381.7624,381.7625,381.7627,[],[],[],[],[],[],[],,381.7627,381.7628,-0.034562937,-0.386008661,0,0,0,,0,57,57,39,1,2,TL,aminal,print,aminal_p.png,,,,,,
,,,,32185,001,2025-11-06_18h42.58.083,HW_LDT_1,2024.2.4,Win32,60.97560976,,,,,,,,,,,,,,,,,,,,,381.7649,381.9623,381.9624,382.4627,,,,,,,,,,,,,,1.7226,1,,,,,,,,,,,,,,z,,,,,,,,,,,,,,,,59,0,382.4637,384.1961,z,1,1.7226,,[],[],[],[],[],[],[],384.1962,386.196,386.1962,386.1964,[],[],[],[],[],[],[],,386.1964,386.1966,-0.034562937,-0.386008661,0,0,0,,0,58,58,31,1,2,RL,spetisic,print,spetisic_p.png,,,,,,
,,,,32185,001,2025-11-06_18h42.58.083,HW_LDT_1,2024.2.4,Win32,60.97560976,,,,,,,,,,,,,,,,,,,,,386.1986,386.3959,386.3959,386.8961,,,,,,,,,,,,,,1.1598,1,,,,,,,,,,,,,,m,,,,,,,,,,,,,,,,60,0,386.8969,388.0629,m,1,1.1598,,[],[],[],[],[],[],[],388.0629,390.0629,390.0631,390.0633,[],[],[],[],[],[],[],,390.0634,390.0637,-0.034562937,-0.386008661,0,0,0,,0,59,59,89,1,2,word,CAPACITY,print,capacity_p.png,,,,,,
,,,,32185,001,2025-11-06_18h42.58.083,HW_LDT_1,2024.2.4,Win32,60.97560976,,,,,,,,,,,,,,,,,,,,,390.0655,390.2629,390.263,390.7628,,,,,,,,,,,,,,0.6877,1,,,,,,,,,,,,,,m,,,,,,,,,,,,,,,,61,0,390.7637,391.4624,m,1,0.6877,,[],[],[],[],[],[],[],391.4626,393.4628,393.4628,393.4631,[],[],[],[],[],[],[],,393.4631,393.4634,-0.034562937,-0.386008661,0,0,0,,0,60,60,130,1,2,word,POLICY,print,policy_p.png,,,,,,
,,,,32185,001,2025-11-06_18h42.58.083,HW_LDT_1,2024.2.4,Win32,60.97560976,,,,,,,,,,,,,,,,,,,,,393.4651,393.6629,393.6629,394.1636,,,,,,,,,,,,,,1.9209,1,,,,,,,,,,,,,,m,,,,,,,,,,,,,,,,62,1,394.164,396.0962,m,1,1.9209,,[],[],[],[],[],[],[],396.0963,398.0962,398.0962,400.1297,[],[],[],[],[],[],[],z,400.1298,400.1299,-0.034562937,-0.386008661,0,0,0,,0,61,61,150,1,2,word,SENTIMENT,cursive,sentiment_c.png,2.0226,,,,,
,,,,32185,001,2025-11-06_18h42.58.083,HW_LDT_1,2024.2.4,Win32,60.97560976,,,,,,,,,,,,,,,,,,,,,400.1322,400.3295,400.3296,400.8296,,,,,,,,,,,,,,3.8565,1,,,,,,,,,,,,,,z,,,,,,,,,,,,,,,,63,0,400.8304,404.6966,z,1,3.8565,,[],[],[],[],[],[],[],404.6967,406.6964,406.6965,406.6968,[],[],[],[],[],[],[],,406.6968,406.6969,-0.034562937,-0.386008661,0,0,0,,0,62,62,62,1,2,TL,opmital,cursive,opmital_c.png,,,,,,
,,,,32185,001,2025-11-06_18h42.58.083,HW_LDT_1,2024.2.4,Win32,60.97560976,,,,,,,,,,,,,,,,,,,,,406.6986,406.8964,406.8965,407.3968,,,,,,,,,,,,,,1.5547,1,,,,,,,,,,,,,,m,,,,,,,,,,,,,,,,64,0,407.3978,408.9632,m,1,1.5547,,[],[],[],[],[],[],[],408.9632,410.9632,410.9632,410.9636,[],[],[],[],[],[],[],,410.9637,410.964,-0.034562937,-0.386008661,0,0,0,,0,63,63,151,1,2,word,SPECIFIC,print,specific_p.png,,,,,,
,,,,32185,001,2025-11-06_18h42.58.083,HW_LDT_1,2024.2.4,Win32,60.97560976,,,,,,,,,,,,,,,,,,,,,410.9661,411.1634,411.1634,411.6628,,,,,,,,,,,,,,2.1224,0,,,,,,,,,,,,,,m,,,,,,,,,,,,,,,,65,0,411.6635,413.7962,z,0,2.1224,,[],[],[],[],[],[],[],413.7963,415.7966,415.7966,415.7969,[],[],[],[],[],[],[],,415.797,415.7972,-0.034562937,-0.386008661,0,0,0,,0,64,64,91,1,2,word,CARDINAL,cursive,cardinal_c.png,,,,,,
,,,,32185,001,2025-11-06_18h42.58.083,HW_LDT_1,2024.2.4,Win32,60.97560976,,,,,,,,,,,,,,,,,,,,,415.7994,415.9965,415.9966,416.4965,,,,,,,,,,,,,,0.7964,1,,,,,,,,,,,,,,z,,,,,,,,,,,,,,,,66,0,416.4974,417.2963,z,1,0.7964,,[],[],[],[],[],[],[],417.2964,419.2966,419.2968,419.2971,[],[],[],[],[],[],[],,419.2971,419.2974,-0.034562937,-0.386008661,0,0,0,,0,65,65,3,1,2,RL,capefory,print,capefory_p.png,,,,,,
,,,,32185,001,2025-11-06_18h42.58.083,HW_LDT_1,2024.2.4,Win32,60.97560976,,,,,,,,,,,,,,,,,,,,,419.299,419.4965,419.4966,419.9964,,,,,,,,,,,,,,1.3892,1,,,,,,,,,,,,,,z,,,,,,,,,,,,,,,,67,0,419.9971,421.3968,z,1,1.3892,,[],[],[],[],[],[],[],421.3969,423.3966,423.3967,423.397,[],[],[],[],[],[],[],,423.397,423.3972,-0.034562937,-0.386008661,0,0,0,,0,66,66,49,1,2,TL,dedace,print,dedace_p.png,,,,,,
,,,,32185,001,2025-11-06_18h42.58.083,HW_LDT_1,2024.2.4,Win32,60.97560976,,,,,,,,,,,,,,,,,,,,,423.3992,423.5966,423.5966,424.0973,,,,,,,,,,,,,,5.1034,1,,,,,,,,,,,,,,m,,,,,,,,,,,,,,,,68,1,424.098,429.2134,m,1,5.1034,,[],[],[],[],[],[],[],429.2135,431.2139,431.2141,433.0971,[],[],[],[],[],[],[],m,433.0973,433.0974,-0.034562937,-0.386008661,0,0,0,,0,67,67,118,1,2,word,MEDICINE,print,medicine_p.png,1.8776,,,,,
,,,,32185,001,2025-11-06_18h42.58.083,HW_LDT_1,2024.2.4,Win32,60.97560976,,,,,,,,,,,,,,,,,,,,,433.0995,433.2967,433.2967,433.7967,,,,,,,,,,,,,,4.4046,1,,,,,,,,,,,,,,z,,,,,,,,,,,,,,,,69,0,433.7975,438.2134,z,1,4.4046,,[],[],[],[],[],[],[],438.2135,440.2138,440.2138,440.2141,[],[],[],[],[],[],[],,440.2141,440.2144,-0.034562937,-0.386008661,0,0,0,,0,68,68,29,1,2,RL,samite,cursive,samite_c.png,,,,,,
,,,,32185,001,2025-11-06_18h42.58.083,HW_LDT_1,2024.2.4,Win32,60.97560976,,,,,,,,,,,,,,,,,,,,,440.2163,440.4137,440.4137,440.9136,,,,,,,,,,,,,,2.127,1,,,,,,,,,,,,,,z,,,,,,,,,,,,,,,,70,0,440.9143,443.0468,z,1,2.127,,[],[],[],[],[],[],[],443.047,445.0475,445.0475,445.0478,[],[],[],[],[],[],[],,445.0478,445.0478,-0.034562937,-0.386008661,0,0,0,,0,69,69,40,1,2,TL,bevoled,cursive,bevoled_c.png,,,,,,
,,,,32185,001,2025-11-06_18h42.58.083,HW_LDT_1,2024.2.4,Win32,60.97560976,,,,,,,,,,,,,,,,,,,,,445.0498,445.2467,445.2468,445.7476,,,,,,,,,,,,,,2.3364,1,,,,,,,,,,,,,,z,,,,,,,,,,,,,,,,71,0,445.7484,448.0967,z,1,2.3364,,[],[],[],[],[],[],[],448.0968,450.0969,450.097,450.0972,[],[],[],[],[],[],[],,450.0972,450.0974,-0.034562937,-0.386008661,0,0,0,,0,70,70,56,1,2,TL,marnigal,cursive,marnigal_c.png,,,,,,
,,,,32185,001,2025-11-06_18h42.58.083,HW_LDT_1,2024.2.4,Win32,60.97560976,,,,,,,,,,,,,,,,,,,,,450.0994,450.2969,450.297,450.797,,,,,,,,,,,,,,1.1146,1,,,,,,,,,,,,,,z,,,,,,,,,,,,,,,,72,0,450.7975,451.9133,z,1,1.1146,,[],[],[],[],[],[],[],451.9135,453.9137,453.9137,453.9139,[],[],[],[],[],[],[],,453.914,453.9142,-0.034562937,-0.386008661,0,0,0,,0,71,71,60,1,2,TL,molibe,print,molibe_p.png,,,,,,
,,,,32185,001,2025-11-06_18h42.58.083,HW_LDT_1,2024.2.4,Win32,60.97560976,,,,,,,,,,,,,,,,,,,,,453.9167,454.1136,454.1137,454.6135,,,,,,,,,,,,,,2.054,1,,,,,,,,,,,,,,m,,,,,,,,,,,,,,,,73,0,454.614,456.6806,m,1,2.054,,[],[],[],[],[],[],[],456.6806,458.6805,458.6805,458.6808,[],[],[],[],[],[],[],,458.6808,458.681,-0.034562937,-0.386008661,0,0,0,,0,72,72,152,1,2,word,SPECIMEN,print,specimen_p.png,,,,,,
,,,,32185,001,2025-11-06_18h42.58.083,HW_LDT_1,2024.2.4,Win32,60.97560976,,,,,,,,,,,,,,,,,,,,,458.683,458.8804,458.8805,459.38,,,,,,,,,,,,,,1.2763,1,,,,,,,,,,,,,,m,,,,,,,,,,,,,,,,74,0,459.3806,460.6644,m,1,1.2763,,[],[],[],[],[],[],[],460.6646,462.6638,462.6639,462.6641,[],[],[],[],[],[],[],,462.6642,462.6644,-0.034562937,-0.386008661,0,0,0,,0,73,73,100,1,2,word,DECADE,print,decade_p.png,,,,,,
,,,,32185,001,2025-11-06_18h42.58.083,HW_LDT_1,2024.2.4,Win32,60.97560976,,,,,,,,,,,,,,,,,,,,,462.6663,462.8641,462.8642,463.3638,,,,,,,,,,,,,,0.7222,1,,,,,,,,,,,,,,z,,,,,,,,,,,,,,,,75,0,463.3646,464.0999,z,1,0.7222,,[],[],[],[],[],[],[],464.1,466.0972,466.0973,466.0975,[],[],[],[],[],[],[],,466.0975,466.0978,-0.034562937,-0.386008661,0,0,0,,0,74,74,23,1,2,RL,procogal,cursive,procogal_c.png,,,,,,
,,,,32185,001,2025-11-06_18h42.58.083,HW_LDT_1,2024.2.4,Win32,60.97560976,,,,,,,,,,,,,,,,,,,,,466.0999,466.2972,466.2973,466.7973,,,,,,,,,,,,,,1.8079,0,,,,,,,,,,,,,,m,,,,,,,,,,,,,,,,76,0,466.7979,468.614,z,0,1.8079,,[],[],[],[],[],[],[],468.6142,470.6139,470.6141,470.6143,[],[],[],[],[],[],[],,470.6143,470.6144,-0.034562937,-0.386008661,0,0,0,,0,75,75,141,1,2,word,RELIGION,cursive,religion_c.png,,,,,,
,,,,32185,001,2025-11-06_18h42.58.083,HW_LDT_1,2024.2.4,Win32,60.97560976,,,,,,,,,,,,,,,,,,,,,470.6161,470.8141,470.8141,471.3141,,,,,,,,,,,,,,1.7258,1,,,,,,,,,,,,,,m,,,,,,,,,,,,,,,,77,0,471.3147,473.0476,m,1,1.7258,,[],[],[],[],[],[],[],473.0476,475.0475,475.0475,475.0477,[],[],[],[],[],[],[],,475.0478,475.048,-0.034562937,-0.386008661,0,0,0,,0,76,76,131,1,2,word,POPULAR,cursive,popular_c.png,,,,,,
,,,,32185,001,2025-11-06_18h42.58.083,HW_LDT_1,2024.2.4,Win32,60.97560976,,,,,,,,,,,,,,,,,,,,,475.0504,475.2475,475.2475,475.7481,,,,,,,,,,,,,,0.8455,1,,,,,,,,,,,,,,z,,,,,,,,,,,,,,,,78,0,475.749,476.5971,z,1,0.8455,,[],[],[],[],[],[],[],476.5973,478.5975,478.5975,478.5977,[],[],[],[],[],[],[],,478.5978,478.598,-0.034562937,-0.386008661,0,0,0,,0,77,77,53,1,2,TL,edivent,cursive,edivent_c.png,,,,,,
,,,,32185,001,2025-11-06_18h42.58.083,HW_LDT_1,2024.2.4,Win32,60.97560976,,,,,,,,,,,,,,,,,,,,,478.5996,478.7974,478.7975,479.2975,,,,,,,,,,,,,,0.8725,1,,,,,,,,,,,,,,z,,,,,,,,,,,,,,,,79,1,479.2983,480.1811,z,1,0.8725,,[],[],[],[],[],[],[],480.1812,482.1807,482.1808,483.7473,[],[],[],[],[],[],[],z,483.7474,483.7475,-0.027916251,-0.386008661,0,0,0,,0,78,78,2,1,2,RL,casagity,print,casagity_p.png,1.5592,,,,,
,,,,32185,001,2025-11-06_18h42.58.083,HW_LDT_1,2024.2.4,Win32,60.97560976,,,,,,,,,,,,,,,,,,,,,483.7494,483.9474,483.9475,484.4474,,,,,,,,,,,,,,1.4422,1,,,,,,,,,,,,,,z,,,,,,,,,,,,,,,,80,1,484.4481,485.8975,z,1,1.4422,,[],[],[],[],[],[],[],485.8976,487.8976,487.8976,488.9809,[],[],[],[],[],[],[],z,488.9811,492.7475,-0.027916251,-0.386008661,0,0,0,space,0,79,79,52,1,2,TL,elarobate,cursive,elarobate_c.png,1.0712,,3.7352,,,
,,,,32185,001,2025-11-06_18h42.58.083,HW_LDT_1,2024.2.4,Win32,60.97560976,,,,,,,,,,,,,,,,,,,,,492.7498,492.9476,492.9477,493.4478,,,,,,,,,,,,,,1.0539,1,,,,,,,,,,,,,,m,,,,,,,,,,,,,,,,81,1,493.4484,494.5142,m,1,1.0539,,[],[],[],[],[],[],[],494.5143,496.5144,496.5145,498.4809,[],[],[],[],[],[],[],m,498.481,498.4812,-0.027916251,-0.386008661,0,0,0,,0,80,80,101,1,2,word,DELICATE,print,delicate_p.png,1.9577,,,,,
,,,,32185,001,2025-11-06_18h42.58.083,HW_LDT_1,2024.2.4,Win32,60.97560976,,,,,,,,,,,,,,,,,,,,,498.4827,498.6816,498.6816,499.1811,,,,,,,,,,,,,,0.7704,0,,,,,,,,,,,,,,m,,,,,,,,,,,,,,,,82,1,499.1818,499.9644,z,0,0.7704,,[],[],[],[],[],[],[],499.9645,501.9644,501.9645,502.7812,[],[],[],[],[],[],[],z,502.7813,502.7813,-0.027916251,-0.386008661,0,0,0,,0,81,81,142,1,2,word,REMOTE,cursive,remote_c.png,0.8131,,,,,
,,,,32185,001,2025-11-06_18h42.58.083,HW_LDT_1,2024.2.4,Win32,60.97560976,,,,,,,,,,,,,,,,,,,,,502.7833,502.9808,502.9808,503.4811,,,,,,,,,,,,,,1.2953,0,,,,,,,,,,,,,,m,,,,,,,,,,,,,,,,83,1,503.4818,504.7812,z,0,1.2953,,[],[],[],[],[],[],[],504.7814,506.7814,506.7815,507.6313,[],[],[],[],[],[],[],z,507.6314,507.6315,-0.027916251,-0.386008661,0,0,0,,0,82,82,105,1,2,word,EDITOR,cursive,editor_c.png,0.8415,,,,,
,,,,32185,001,2025-11-06_18h42.58.083,HW_LDT_1,2024.2.4,Win32,60.97560976,,,,,,,,,,,,,,,,,,,,,507.6334,507.8311,507.8312,508.3313,,,,,,,,,,,,,,0.8238,1,,,,,,,,,,,,,,z,,,,,,,,,,,,,,,,84,0,508.3321,509.1647,z,1,0.8238,,[],[],[],[],[],[],[],509.1648,511.1649,511.165,511.1652,[],[],[],[],[],[],[],,511.1653,511.1655,-0.027916251,-0.386008661,0,0,0,,0,83,83,41,1,2,TL,befenit,cursive,befenit_c.png,,,,,,
,,,,32185,001,2025-11-06_18h42.58.083,HW_LDT_1,2024.2.4,Win32,60.97560976,,,,,,,,,,,,,,,,,,,,,511.1676,511.3642,511.3642,511.8647,,,,,,,,,,,,,,0.6906,1,,,,,,,,,,,,,,z,,,,,,,,,,,,,,,,85,0,511.8653,512.5647,z,1,0.6906,,[],[],[],[],[],[],[],512.5648,514.5649,514.565,514.5654,[],[],[],[],[],[],[],,514.5654,514.5656,-0.027916251,-0.386008661,0,0,0,,0,84,84,67,1,2,TL,quafily,cursive,quafily_c.png,,,,,,
,,,,32185,001,2025-11-06_18h42.58.083,HW_LDT_1,2024.2.4,Win32,60.97560976,,,,,,,,,,,,,,,,,,,,,514.5671,514.7646,514.7647,515.2648,,,,,,,,,,,,,,0.5895,0,,,,,,,,,,,,,,m,,,,,,,,,,,,,,,,86,0,515.2651,515.8645,z,0,0.5895,,[],[],[],[],[],[],[],515.8646,517.8642,517.8643,517.8645,[],[],[],[],[],[],[],,517.8646,517.8648,-0.027916251,-0.386008661,0,0,0,,0,85,85,135,1,2,word,QUALITY,cursive,quality_c.png,,,,,,
,,,,32185,001,2025-11-06_18h42.58.083,HW_LDT_1,2024.2.4,Win32,60.97560976,,,,,,,,,,,,,,,,,,,,,517.8664,518.0646,518.0647,518.5649,,,,,,,,,,,,,,0.87,0,,,,,,,,,,,,,,m,,,,,,,,,,,,,,,,87,0,518.5655,519.4477,z,0,0.87,,[],[],[],[],[],[],[],519.4477,521.4482,521.4482,521.4484,[],[],[],[],[],[],[],,521.4485,521.4486,-0.027916251,-0.386008661,0,0,0,,0,86,86,121,1,2,word,MISTAKE,cursive,mistake_c.png,,,,,,
,,,,32185,001,2025-11-06_18h42.58.083,HW_LDT_1,2024.2.4,Win32,60.97560976,,,,,,,,,,,,,,,,,,,,,521.4504,521.6484,521.6484,522.1483,,,,,,,,,,,,,,1.0145,1,,,,,,,,,,,,,,m,,,,,,,,,,,,,,,,88,0,522.1491,523.1645,m,1,1.0145,,[],[],[],[],[],[],[],523.1645,525.1648,525.1648,525.1651,[],[],[],[],[],[],[],,525.1651,525.1652,-0.027916251,-0.386008661,0,0,0,,0,87,87,154,1,2,word,STORAGE,print,storage_p.png,,,,,,
,,,,32185,001,2025-11-06_18h42.58.083,HW_LDT_1,2024.2.4,Win32,60.97560976,,,,,,,,,,,,,,,,,,,,,525.1674,525.3651,525.3651,525.8649,,,,,,,,,,,,,,0.8306,1,,,,,,,,,,,,,,z,,,,,,,,,,,,,,,,89,0,525.8655,526.698,z,1,0.8306,,[],[],[],[],[],[],[],526.6981,528.6984,528.6985,528.6987,[],[],[],[],[],[],[],,528.6987,528.6989,-0.027916251,-0.386008661,0,0,0,,0,88,88,25,1,2,RL,rabigly,print,rabigly_p.png,,,,,,
,,,,32185,001,2025-11-06_18h42.58.083,HW_LDT_1,2024.2.4,Win32,60.97560976,,,,,,,,,,,,,,,,,,,,,528.701,528.8983,528.8983,529.3983,,,,,,,,,,,,,,0.8887,1,,,,,,,,,,,,,,z,,,,,,,,,,,,,,,,90,0,529.3991,530.2985,z,1,0.8887,,[],[],[],[],[],[],[],530.2987,532.2979,532.2979,532.2982,[],[],[],[],[],[],[],,532.2982,532.2984,-0.027916251,-0.386008661,0,0,0,,0,89,89,34,1,2,RL,trilude,cursive,trilude_c.png,,,,,,
,,,,32185,001,2025-11-06_18h42.58.083,HW_LDT_1,2024.2.4,Win32,60.97560976,,,,,,,,,,,,,,,,,,,,,532.3003,532.4981,532.4983,532.9984,,,,,,,,,,,,,,3.2371,1,,,,,,,,,,,,,,m,,,,,,,,,,,,,,,,91,0,532.9992,536.2488,m,1,3.2371,,[],[],[],[],[],[],[],536.249,538.248,538.2482,538.2483,[],[],[],[],[],[],[],,538.2484,538.2486,-0.027916251,-0.386008661,0,0,0,,0,90,90,155,1,2,word,STRATEGY,cursive,strategy_c.png,,,,,,
,,,,32185,001,2025-11-06_18h42.58.083,HW_LDT_1,2024.2.4,Win32,60.97560976,,,,,,,,,,,,,,,,,,,,,538.2507,538.4484,538.4485,538.9481,,,,,,,,,,,,,,2.0223,1,,,,,,,,,,,,,,z,,,,,,,,,,,,,,,,92,0,538.949,540.9818,z,1,2.0223,,[],[],[],[],[],[],[],540.982,542.9819,542.9819,542.9821,[],[],[],[],[],[],[],,542.9822,542.9824,-0.027916251,-0.386008661,0,0,0,,0,91,91,44,1,2,TL,catipal,cursive,catipal_c.png,,,,,,
,,,,32185,001,2025-11-06_18h42.58.083,HW_LDT_1,2024.2.4,Win32,60.97560976,,,,,,,,,,,,,,,,,,,,,542.9844,543.1814,543.1815,543.6818,,,,,,,,,,,,,,0.7089,1,,,,,,,,,,,,,,z,,,,,,,,,,,,,,,,93,0,543.6825,544.3981,z,1,0.7089,,[],[],[],[],[],[],[],544.3983,546.3986,546.3987,546.3989,[],[],[],[],[],[],[],,546.3989,546.399,-0.027916251,-0.386008661,0,0,0,,0,92,92,4,1,2,RL,cenesony,print,cenesony_p.png,,,,,,
,,,,32185,001,2025-11-06_18h42.58.083,HW_LDT_1,2024.2.4,Win32,60.97560976,,,,,,,,,,,,,,,,,,,,,546.4008,546.5986,546.5987,547.0986,,,,,,,,,,,,,,0.7234,0,,,,,,,,,,,,,,m,,,,,,,,,,,,,,,,94,0,547.0993,547.8319,z,0,0.7234,,[],[],[],[],[],[],[],547.8319,549.8322,549.8323,549.8324,[],[],[],[],[],[],[],,549.8326,549.8328,-0.027916251,-0.386008661,0,0,0,,0,93,93,103,1,2,word,DISPUTE,cursive,dispute_c.png,,,,,,
,,,,32185,001,2025-11-06_18h42.58.083,HW_LDT_1,2024.2.4,Win32,60.97560976,,,,,,,,,,,,,,,,,,,,,549.8353,550.0319,550.0319,550.5325,,,,,,,,,,,,,,0.8706,0,,,,,,,,,,,,,,m,,,,,,,,,,,,,,,,95,0,550.5331,551.4155,z,0,0.8706,,[],[],[],[],[],[],[],551.4156,553.4153,553.4154,553.4157,[],[],[],[],[],[],[],,553.4158,553.416,-0.027916251,-0.386008661,0,0,0,,0,94,94,106,1,2,word,ELABORATE,cursive,elaborate_c.png,,,,,,
,,,,32185,001,2025-11-06_18h42.58.083,HW_LDT_1,2024.2.4,Win32,60.97560976,,,,,,,,,,,,,,,,,,,,,553.418,553.6158,553.6158,554.1149,,,,,,,,,,,,,,0.6139,1,,,,,,,,,,,,,,z,,,,,,,,,,,,,,,,96,0,554.1155,554.7352,z,1,0.6139,,[],[],[],[],[],[],[],554.7352,556.7319,556.732,556.7322,[],[],[],[],[],[],[],,556.7322,556.7324,-0.027916251,-0.386008661,0,0,0,,0,95,95,58,1,2,TL,mitilary,cursive,mitilary_c.png,,,,,,
,,,,32185,001,2025-11-06_18h42.58.083,HW_LDT_1,2024.2.4,Win32,60.97560976,,,,,,,,,,,,,,,,,,,,,556.7346,556.932,556.9322,557.4317,,,,,,,,,,,,,,1.3643,1,,,,,,,,,,,,,,z,,,,,,,,,,,,,,,,97,1,557.4323,558.7985,z,1,1.3643,,[],[],[],[],[],[],[],558.7986,560.7987,560.7987,562.1321,[],[],[],[],[],[],[],m,562.1322,562.1323,-0.027916251,-0.386008661,0,0,0,,0,96,96,79,1,2,TL,vadility,print,vadility_p.png,1.3218,,,,,
,,,,32185,001,2025-11-06_18h42.58.083,HW_LDT_1,2024.2.4,Win32,60.97560976,,,,,,,,,,,,,,,,,,,,,562.1345,562.332,562.3321,562.8318,,,,,,,,,,,,,,0.9571,1,,,,,,,,,,,,,,z,,,,,,,,,,,,,,,,98,0,562.8324,563.7989,z,1,0.9571,,[],[],[],[],[],[],[],563.799,565.7989,565.799,565.7991,[],[],[],[],[],[],[],,565.7992,565.7994,-0.027916251,-0.386008661,0,0,0,,0,97,97,21,1,2,RL,pamest,print,pamest_p.png,,,,,,
,,,,32185,001,2025-11-06_18h42.58.083,HW_LDT_1,2024.2.4,Win32,60.97560976,,,,,,,,,,,,,,,,,,,,,565.8013,565.9985,565.9985,566.4991,,,,,,,,,,,,,,1.0536,1,,,,,,,,,,,,,,m,,,,,,,,,,,,,,,,99,0,566.5,567.5652,m,1,1.0536,,[],[],[],[],[],[],[],567.5653,569.566,569.566,569.5662,[],[],[],[],[],[],[],,569.5662,569.5663,-0.027916251,-0.386008661,0,0,0,,0,98,98,158,1,2,word,VELOCITY,print,velocity_p.png,,,,,,
,,,,32185,001,2025-11-06_18h42.58.083,HW_LDT_1,2024.2.4,Win32,60.97560976,,,,,,,,,,,,,,,,,,,,,569.5679,569.7654,569.7654,570.2657,,,,,,,,,,,,,,1.1095,1,,,,,,,,,,,,,,m,,,,,,,,,,,,,,,,100,0,570.2664,571.3821,m,1,1.1095,,[],[],[],[],[],[],[],571.3822,573.3824,573.3825,573.3827,[],[],[],[],[],[],[],,573.3828,573.383,-0.027916251,-0.386008661,0,0,0,,0,99,99,128,1,2,word,PACIFIC,print,pacific_p.png,,,,,,
,,,,32185,001,2025-11-06_18h42.58.083,HW_LDT_1,2024.2.4,Win32,60.97560976,,,,,,,,,,,,,,,,,,,,,573.3847,573.5823,573.5823,574.0831,,,,,,,,,,,,,,0.7588,1,,,,,,,,,,,,,,m,,,,,,,,,,,,,,,,101,1,574.0837,574.8489,m,1,0.7588,,[],[],[],[],[],[],[],574.849,576.849,576.8491,577.5821,[],[],[],[],[],[],[],m,577.5821,577.5823,-0.027916251,-0.386008661,0,0,0,,0,100,100,99,1,2,word,DEBATE,print,debate_p.png,0.7324,,,,,
,,,,32185,001,2025-11-06_18h42.58.083,HW_LDT_1,2024.2.4,Win32,60.97560976,,,,,,,,,,,,,,,,,,,,,577.584,577.7823,577.7824,578.2824,,,,,,,,,,,,,,0.6122,0,,,,,,,,,,,,,,m,,,,,,,,,,,,,,,,102,0,578.2834,578.8986,z,0,0.6122,,[],[],[],[],[],[],[],578.8988,580.8989,580.8989,580.8992,[],[],[],[],[],[],[],,580.8992,580.8994,-0.027916251,-0.386008661,0,0,0,,0,101,101,124,1,2,word,NUMERICAL,cursive,numerical_c.png,,,,,,
,,,,32185,001,2025-11-06_18h42.58.083,HW_LDT_1,2024.2.4,Win32,60.97560976,,,,,,,,,,,,,,,,,,,,,580.9015,581.0992,581.0993,581.5992,,,,,,,,,,,,,,0.6979,0,,,,,,,,,,,,,,m,,,,,,,,,,,,,,,,103,0,581.6001,582.3002,z,0,0.6979,,[],[],[],[],[],[],[],582.3002,584.2992,584.2993,584.2995,[],[],[],[],[],[],[],,584.2996,584.2998,-0.027916251,-0.386008661,0,0,0,,0,102,102,109,1,2,word,GRATEFUL,cursive,grateful_c.png,,,,,,
,,,,32185,001,2025-11-06_18h42.58.083,HW_LDT_1,2024.2.4,Win32,60.97560976,,,,,,,,,,,,,,,,,,,,,584.3018,584.4992,584.4992,584.9987,,,,,,,,,,,,,,0.857,1,,,,,,,,,,,,,,m,,,,,,,,,,,,,,,,104,0,584.9994,585.8656,m,1,0.857,,[],[],[],[],[],[],[],585.8657,587.8658,587.8658,587.866,[],[],[],[],[],[],[],,587.8661,587.8663,-0.027916251,-0.386008661,0,0,0,,0,103,103,129,1,2,word,PARENT,print,parent_p.png,,,,,,
,,,,32185,001,2025-11-06_18h42.58.083,HW_LDT_1,2024.2.4,Win32,60.97560976,,,,,,,,,,,,,,,,,,,,,587.8683,588.0658,588.0658,588.5659,,,,,,,,,,,,,,1.8627,1,,,,,,,,,,,,,,m,,,,,,,,,,,,,,,,105,0,588.5665,590.4322,m,1,1.8627,,[],[],[],[],[],[],[],590.4322,592.4324,592.4325,592.4327,[],[],[],[],[],[],[],,592.4327,592.4329,-0.027916251,-0.386008661,0,0,0,,0,104,104,94,1,2,word,CLINICAL,cursive,clinical_c.png,,,,,,
,,,,32185,001,2025-11-06_18h42.58.083,HW_LDT_1,2024.2.4,Win32,60.97560976,,,,,,,,,,,,,,,,,,,,,592.4353,592.6328,592.6328,593.1331,,,,,,,,,,,,,,1.5545,1,,,,,,,,,,,,,,m,,,,,,,,,,,,,,,,106,1,593.1338,594.6996,m,1,1.5545,,[],[],[],[],[],[],[],594.6997,596.6993,596.6994,598.2827,[],[],[],[],[],[],[],z,598.2829,598.2829,-0.027916251,-0.386008661,0,0,0,,0,105,105,127,1,2,word,ORIGINAL,print,original_p.png,1.5759,,,,,
,,,,32185,001,2025-11-06_18h42.58.083,HW_LDT_1,2024.2.4,Win32,60.97560976,,,,,,,,,,,,,,,,,,,,,598.2849,598.4826,598.4827,598.9826,,,,,,,,,,,,,,3.4439,1,,,,,,,,,,,,,,z,,,,,,,,,,,,,,,,107,0,598.9835,602.4328,z,1,3.4439,,[],[],[],[],[],[],[],602.4328,604.4324,604.4324,604.4326,[],[],[],[],[],[],[],,604.4327,604.4329,-0.027916251,-0.386008661,0,0,0,,0,106,106,57,1,2,TL,meromy,cursive,meromy_c.png,,,,,,
,,,,32185,001,2025-11-06_18h42.58.083,HW_LDT_1,2024.2.4,Win32,60.97560976,,,,,,,,,,,,,,,,,,,,,604.4353,604.6327,604.6327,605.1327,,,,,,,,,,,,,,0.9731,0,,,,,,,,,,,,,,m,,,,,,,,,,,,,,,,108,0,605.1336,606.1159,z,0,0.9731,,[],[],[],[],[],[],[],606.1159,608.1162,608.1162,608.1164,[],[],[],[],[],[],[],,608.1164,608.1166,-0.027916251,-0.386008661,0,0,0,,0,107,107,90,1,2,word,CAPITAL,cursive,capital_c.png,,,,,,
,,,,32185,001,2025-11-06_18h42.58.083,HW_LDT_1,2024.2.4,Win32,60.97560976,,,,,,,,,,,,,,,,,,,,,608.1191,608.3161,608.3162,608.8162,,,,,,,,,,,,,,1.6367,1,,,,,,,,,,,,,,z,,,,,,,,,,,,,,,,109,0,608.8171,610.4662,z,1,1.6367,,[],[],[],[],[],[],[],610.4662,612.4662,612.4663,612.4665,[],[],[],[],[],[],[],,612.4666,612.4668,-0.027916251,-0.386008661,0,0,0,,0,108,108,24,1,2,RL,rasibal,cursive,rasibal_c.png,,,,,,
,,,,32185,001,2025-11-06_18h42.58.083,HW_LDT_1,2024.2.4,Win32,60.97560976,,,,,,,,,,,,,,,,,,,,,612.4685,612.666,612.666,613.167,,,,,,,,,,,,,,0.8696,1,,,,,,,,,,,,,,z,,,,,,,,,,,,,,,,110,1,613.1677,614.0497,z,1,0.8696,,[],[],[],[],[],[],[],614.0498,616.0496,616.0497,616.7162,[],[],[],[],[],[],[],z,616.7163,616.7164,-0.027916251,-0.386008661,0,0,0,,0,109,109,35,1,2,RL,vesofity,print,vesofity_p.png,0.6565,,,,,
,,,,32185,001,2025-11-06_18h42.58.083,HW_LDT_1,2024.2.4,Win32,60.97560976,,,,,,,,,,,,,,,,,,,,,616.7189,616.9163,616.9164,617.4166,,,,,,,,,,,,,,1.0366,1,,,,,,,,,,,,,,m,,,,,,,,,,,,,,,,111,0,617.4175,618.4661,m,1,1.0366,,[],[],[],[],[],[],[],618.4663,620.4669,620.467,620.4671,[],[],[],[],[],[],[],,620.4672,620.4673,-0.027916251,-0.386008661,0,0,0,,0,110,110,114,1,2,word,LOCATE,print,locate_p.png,,,,,,
,,,,32185,001,2025-11-06_18h42.58.083,HW_LDT_1,2024.2.4,Win32,60.97560976,,,,,,,,,,,,,,,,,,,,,620.469,620.6668,620.6669,621.1663,,,,,,,,,,,,,,0.8897,0,,,,,,,,,,,,,,m,,,,,,,,,,,,,,,,112,1,621.1669,622.0665,z,0,0.8897,,[],[],[],[],[],[],[],622.0666,624.0663,624.0665,625.0828,[],[],[],[],[],[],[],z,625.0828,625.0829,-0.027916251,-0.386008661,0,0,0,,0,111,111,145,1,2,word,RESUME,cursive,resume_c.png,1.0075,,,,,
,,,,32185,001,2025-11-06_18h42.58.083,HW_LDT_1,2024.2.4,Win32,60.97560976,,,,,,,,,,,,,,,,,,,,,625.0851,625.2831,625.2831,625.7833,,,,,,,,,,,,,,2.5803,1,,,,,,,,,,,,,,m,,,,,,,,,,,,,,,,113,0,625.7842,628.3662,m,1,2.5803,,[],[],[],[],[],[],[],628.3664,630.3665,630.3665,630.3668,[],[],[],[],[],[],[],,630.3669,630.3671,-0.027916251,-0.386008661,0,0,0,,0,112,112,98,1,2,word,CRIMINAL,cursive,criminal_c.png,,,,,,
,,,,32185,001,2025-11-06_18h42.58.083,HW_LDT_1,2024.2.4,Win32,60.97560976,,,,,,,,,,,,,,,,,,,,,630.3692,630.5662,630.5662,631.0664,,,,,,,,,,,,,,0.7707,1,,,,,,,,,,,,,,z,,,,,,,,,,,,,,,,114,0,631.0672,631.8499,z,1,0.7707,,[],[],[],[],[],[],[],631.85,633.8497,633.8499,633.85,[],[],[],[],[],[],[],,633.85,633.8503,-0.027916251,-0.386008661,0,0,0,,0,113,113,7,1,2,RL,cocewage,cursive,cocewage_c.png,,,,,,
,,,,32185,001,2025-11-06_18h42.58.083,HW_LDT_1,2024.2.4,Win32,60.97560976,,,,,,,,,,,,,,,,,,,,,633.8523,634.0494,634.0494,634.5495,,,,,,,,,,,,,,2.4372,0,,,,,,,,,,,,,,m,,,,,,,,,,,,,,,,115,0,634.5503,636.9999,z,0,2.4372,,[],[],[],[],[],[],[],637.0001,638.9999,638.9999,639.0001,[],[],[],[],[],[],[],,639.0002,639.0004,-0.027916251,-0.386008661,0,0,0,,0,114,114,97,1,2,word,COVERAGE,cursive,coverage_c.png,,,,,,
,,,,32185,001,2025-11-06_18h42.58.083,HW_LDT_1,2024.2.4,Win32,60.97560976,,,,,,,,,,,,,,,,,,,,,639.0022,639.1999,639.1999,639.7006,,,,,,,,,,,,,,0.7547,1,,,,,,,,,,,,,,z,,,,,,,,,,,,,,,,116,0,639.7012,640.4667,z,1,0.7547,,[],[],[],[],[],[],[],640.4669,642.4668,642.467,642.4672,[],[],[],[],[],[],[],,642.4672,642.4674,-0.027916251,-0.386008661,0,0,0,,0,115,115,11,1,2,RL,formuke,print,formuke_p.png,,,,,,
,,,,32185,001,2025-11-06_18h42.58.083,HW_LDT_1,2024.2.4,Win32,60.97560976,,,,,,,,,,,,,,,,,,,,,642.4696,642.6675,642.6675,643.1668,,,,,,,,,,,,,,0.7872,1,,,,,,,,,,,,,,z,,,,,,,,,,,,,,,,117,0,643.1677,643.9667,z,1,0.7872,,[],[],[],[],[],[],[],643.9669,645.9666,645.9667,645.9669,[],[],[],[],[],[],[],,645.9669,645.967,-0.027916251,-0.386008661,0,0,0,,0,116,116,75,1,2,TL,ronamtic,print,ronamtic_p.png,,,,,,
,,,,32185,001,2025-11-06_18h42.58.083,HW_LDT_1,2024.2.4,Win32,60.97560976,,,,,,,,,,,,,,,,,,,,,645.9693,646.1664,646.1665,646.6668,,,,,,,,,,,,,,2.2204,1,,,,,,,,,,,,,,z,,,,,,,,,,,,,,,,118,0,646.6674,648.9001,z,1,2.2204,,[],[],[],[],[],[],[],648.9001,650.9004,650.9004,650.9007,[],[],[],[],[],[],[],,650.9007,650.9009,-0.027916251,-0.386008661,0,0,0,,0,117,117,22,1,2,RL,posity,print,posity_p.png,,,,,,
,,,,32185,001,2025-11-06_18h42.58.083,HW_LDT_1,2024.2.4,Win32,60.97560976,,,,,,,,,,,,,,,,,,,,,650.9034,651.1009,651.1009,651.6005,,,,,,,,,,,,,,1.2205,1,,,,,,,,,,,,,,m,,,,,,,,,,,,,,,,119,0,651.6011,652.8339,m,1,1.2205,,[],[],[],[],[],[],[],652.834,654.8335,654.8335,654.8337,[],[],[],[],[],[],[],,654.8338,654.834,-0.027916251,-0.386008661,0,0,0,,0,118,118,87,1,2,word,CAFETERIA,print,cafeteria_p.png,,,,,,
,,,,32185,001,2025-11-06_18h42.58.083,HW_LDT_1,2024.2.4,Win32,60.97560976,,,,,,,,,,,,,,,,,,,,,654.8361,655.0335,655.0336,655.5336,,,,,,,,,,,,,,1.1113,1,,,,,,,,,,,,,,m,,,,,,,,,,,,,,,,120,0,655.5343,656.6509,m,1,1.1113,,[],[],[],[],[],[],[],656.651,658.6504,658.6504,658.6505,[],[],[],[],[],[],[],,658.6506,658.6507,-0.027916251,-0.386008661,0,0,0,,0,119,119,133,1,2,word,PROVIDE,cursive,provide_c.png,,,,,,
,,,,32185,001,2025-11-06_18h42.58.083,HW_LDT_1,2024.2.4,Win32,60.97560976,,,,,,,,,,,,,,,,,,,,,658.6522,658.8508,658.8509,659.3502,,,,,,,,,,,,,,0.8791,1,,,,,,,,,,,,,,z,,,,,,,,,,,,,,,,121,0,659.3509,660.2342,z,1,0.8791,,[],[],[],[],[],[],[],660.2343,662.2332,662.2333,662.2335,[],[],[],[],[],[],[],,662.2336,662.2337,-0.027916251,-0.386008661,0,0,0,,0,120,120,46,1,2,TL,codemy,cursive,codemy_c.png,,,,,,
,,,,32185,001,2025-11-06_18h42.58.083,HW_LDT_1,2024.2.4,Win32,60.97560976,,,,,,,,,,,,,,,,,,,,,662.2353,662.4339,662.4339,662.9333,,,,,,,,,,,,,,0.7725,1,,,,,,,,,,,,,,z,,,,,,,,,,,,,,,,122,0,662.9342,663.7175,z,1,0.7725,,[],[],[],[],[],[],[],663.7176,665.717,665.7171,665.7172,[],[],[],[],[],[],[],,665.7173,665.7175,-0.027916251,-0.386008661,0,0,0,,0,121,121,18,1,2,RL,mesibine,print,mesibine_p.png,,,,,,
,,,,32185,001,2025-11-06_18h42.58.083,HW_LDT_1,2024.2.4,Win32,60.97560976,,,,,,,,,,,,,,,,,,,,,665.7199,665.9169,665.917,666.4168,,,,,,,,,,,,,,0.6782,1,,,,,,,,,,,,,,z,,,,,,,,,,,,,,,,123,0,666.4175,667.1004,z,1,0.6782,,[],[],[],[],[],[],[],667.1005,669.1005,669.1007,669.1009,[],[],[],[],[],[],[],,669.1009,669.1012,-0.027916251,-0.386008661,0,0,0,,0,122,122,30,1,2,RL,selamor,print,selamor_p.png,,,,,,
,,,,32185,001,2025-11-06_18h42.58.083,HW_LDT_1,2024.2.4,Win32,60.97560976,,,,,,,,,,,,,,,,,,,,,669.1028,669.3005,669.3005,669.8005,,,,,,,,,,,,,,0.948,1,,,,,,,,,,,,,,m,,,,,,,,,,,,,,,,124,0,669.8015,670.7504,m,1,0.948,,[],[],[],[],[],[],[],670.7506,672.7506,672.7507,672.7509,[],[],[],[],[],[],[],,672.7509,672.7511,-0.027916251,-0.386008661,0,0,0,,0,123,123,112,1,2,word,LIBERAL,print,liberal_p.png,,,,,,
,,,,32185,001,2025-11-06_18h42.58.083,HW_LDT_1,2024.2.4,Win32,60.97560976,,,,,,,,,,,,,,,,,,,,,672.7531,672.9501,672.9501,673.451,,,,,,,,,,,,,,0.7873,0,,,,,,,,,,,,,,m,,,,,,,,,,,,,,,,125,1,673.4516,674.2506,z,0,0.7873,,[],[],[],[],[],[],[],674.2507,676.2502,676.2502,679.0868,[],[],[],[],[],[],[],z,679.0869,679.0871,-0.027916251,-0.386008661,0,0,0,,0,124,124,117,1,2,word,MARINE,cursive,marine_c.png,2.8307,,,,,
,,,,32185,001,2025-11-06_18h42.58.083,HW_LDT_1,2024.2.4,Win32,60.97560976,,,,,,,,,,,,,,,,,,,,,679.0897,679.2841,679.2841,679.784,,,,,,,,,,,,,,1.5571,1,,,,,,,,,,,,,,z,,,,,,,,,,,,,,,,126,0,679.7846,681.351,z,1,1.5571,,[],[],[],[],[],[],[],681.3511,683.3507,683.3507,683.351,[],[],[],[],[],[],[],,683.351,683.3511,-0.027916251,-0.386008661,0,0,0,,0,125,125,48,1,2,TL,detabe,print,detabe_p.png,,,,,,
,,,,32185,001,2025-11-06_18h42.58.083,HW_LDT_1,2024.2.4,Win32,60.97560976,,,,,,,,,,,,,,,,,,,,,683.3528,683.5504,683.5505,684.0507,,,,,,,,,,,,,,0.9217,1,,,,,,,,,,,,,,m,,,,,,,,,,,,,,,,127,0,684.0513,684.984,m,1,0.9217,,[],[],[],[],[],[],[],684.9841,686.9843,686.9844,686.9847,[],[],[],[],[],[],[],,686.9847,686.9849,-0.027916251,-0.386008661,0,0,0,,0,126,126,156,1,2,word,TRIBUTE,cursive,tribute_c.png,,,,,,
,,,,32185,001,2025-11-06_18h42.58.083,HW_LDT_1,2024.2.4,Win32,60.97560976,,,,,,,,,,,,,,,,,,,,,686.9871,687.184,687.184,687.6842,,,,,,,,,,,,,,1.5874,1,,,,,,,,,,,,,,m,,,,,,,,,,,,,,,,128,0,687.6848,689.2733,m,1,1.5874,,[],[],[],[],[],[],[],689.2734,691.2677,691.2678,691.2679,[],[],[],[],[],[],[],,691.268,691.2681,-0.027916251,-0.386008661,0,0,0,,0,127,127,102,1,2,word,DENSITY,print,density_p.png,,,,,,
,,,,32185,001,2025-11-06_18h42.58.083,HW_LDT_1,2024.2.4,Win32,60.97560976,,,,,,,,,,,,,,,,,,,,,691.2695,691.4674,691.4675,691.9674,,,,,,,,,,,,,,0.6936,0,,,,,,,,,,,,,,m,,,,,,,,,,,,,,,,129,1,691.9681,692.6678,z,0,0.6936,,[],[],[],[],[],[],[],692.6679,694.6671,694.6673,695.7845,[],[],[],[],[],[],[],z,695.7846,695.7847,-0.027916251,-0.386008661,0,0,0,,0,128,128,85,1,2,word,BENEFIT,cursive,benefit_c.png,1.1078,,,,,
,,,,32185,001,2025-11-06_18h42.58.083,HW_LDT_1,2024.2.4,Win32,60.97560976,,,,,,,,,,,,,,,,,,,,,695.7864,695.9842,695.9842,696.4838,,,,,,,,,,,,,,1.2136,1,,,,,,,,,,,,,,m,,,,,,,,,,,,,,,,130,1,696.4846,697.7005,m,1,1.2136,,[],[],[],[],[],[],[],697.7007,699.701,699.701,700.9346,[],[],[],[],[],[],[],m,700.9347,700.9348,-0.027916251,-0.386008661,0,0,0,,0,129,129,153,1,2,word,STOLEN,print,stolen_p.png,1.2224,,,,,
,,,,32185,001,2025-11-06_18h42.58.083,HW_LDT_1,2024.2.4,Win32,60.97560976,,,,,,,,,,,,,,,,,,,,,700.9363,701.1343,701.1343,701.6344,,,,,,,,,,,,,,0.7703,1,,,,,,,,,,,,,,z,,,,,,,,,,,,,,,,131,0,701.6353,702.4173,z,1,0.7703,,[],[],[],[],[],[],[],702.4174,704.4178,704.4179,704.4183,[],[],[],[],[],[],[],,704.4183,704.4185,-0.027916251,-0.386008661,0,0,0,,0,130,130,51,1,2,TL,etidor,cursive,etidor_c.png,,,,,,
,,,,32185,001,2025-11-06_18h42.58.083,HW_LDT_1,2024.2.4,Win32,60.97560976,,,,,,,,,,,,,,,,,,,,,704.4207,704.6182,704.6182,705.1184,,,,,,,,,,,,,,1.1044,1,,,,,,,,,,,,,,z,,,,,,,,,,,,,,,,132,0,705.1191,706.2347,z,1,1.1044,,[],[],[],[],[],[],[],706.2347,708.2344,708.2344,708.2346,[],[],[],[],[],[],[],,708.2347,708.2348,-0.027916251,-0.386008661,0,0,0,,0,131,131,45,1,2,TL,carnidal,cursive,carnidal_c.png,,,,,,
,,,,32185,001,2025-11-06_18h42.58.083,HW_LDT_1,2024.2.4,Win32,60.97560976,,,,,,,,,,,,,,,,,,,,,708.2367,708.4345,708.4346,708.9345,,,,,,,,,,,,,,0.6553,1,,,,,,,,,,,,,,z,,,,,,,,,,,,,,,,133,0,708.9352,709.6011,z,1,0.6553,,[],[],[],[],[],[],[],709.6012,711.6011,711.6012,711.6014,[],[],[],[],[],[],[],,711.6014,711.6016,-0.027916251,-0.386008661,0,0,0,,0,132,132,32,1,2,RL,speniven,print,speniven_p.png,,,,,,
,,,,32185,001,2025-11-06_18h42.58.083,HW_LDT_1,2024.2.4,Win32,60.97560976,,,,,,,,,,,,,,,,,,,,,711.6035,711.8012,711.8012,712.3011,,,,,,,,,,,,,,0.6211,1,,,,,,,,,,,,,,z,,,,,,,,,,,,,,,,134,0,712.3019,712.9345,z,1,0.6211,,[],[],[],[],[],[],[],712.9346,714.9344,714.9345,714.9348,[],[],[],[],[],[],[],,714.9349,714.935,-0.027916251,-0.386008661,0,0,0,,0,133,133,36,1,2,RL,vecelan,print,vecelan_p.png,,,,,,
,,,,32185,001,2025-11-06_18h42.58.083,HW_LDT_1,2024.2.4,Win32,60.97560976,,,,,,,,,,,,,,,,,,,,,714.9368,715.1343,715.1343,715.6345,,,,,,,,,,,,,,0.9542,1,,,,,,,,,,,,,,m,,,,,,,,,,,,,,,,135,0,715.6352,716.5904,m,1,0.9542,,[],[],[],[],[],[],[],716.5906,718.5847,718.5847,718.585,[],[],[],[],[],[],[],,718.585,718.5852,-0.027916251,-0.386008661,0,0,0,,0,134,134,104,1,2,word,DOMINANT,print,dominant_p.png,,,,,,
,,,,32185,001,2025-11-06_18h42.58.083,HW_LDT_1,2024.2.4,Win32,60.97560976,,,,,,,,,,,,,,,,,,,,,718.5867,718.7845,718.7845,719.2843,,,,,,,,,,,,,,0.6711,1,,,,,,,,,,,,,,z,,,,,,,,,,,,,,,,136,0,719.2849,719.9677,z,1,0.6711,,[],[],[],[],[],[],[],719.9678,721.9679,721.9679,721.968,[],[],[],[],[],[],[],,721.9682,721.9683,-0.027916251,-0.386008661,0,0,0,,0,135,135,69,1,2,TL,resufal,cursive,resufal_c.png,,,,,,
,,,,32185,001,2025-11-06_18h42.58.083,HW_LDT_1,2024.2.4,Win32,60.97560976,,,,,,,,,,,,,,,,,,,,,721.97,722.1679,722.1679,722.6674,,,,,,,,,,,,,,0.6883,0,,,,,,,,,,,,,,m,,,,,,,,,,,,,,,,137,0,722.668,723.3679,z,0,0.6883,,[],[],[],[],[],[],[],723.3681,725.3681,725.3681,725.3684,[],[],[],[],[],[],[],,725.3684,725.3686,-0.027916251,-0.386008661,0,0,0,,0,136,136,111,1,2,word,INDICATE,cursive,indicate_c.png,,,,,,
,,,,32185,001,2025-11-06_18h42.58.083,HW_LDT_1,2024.2.4,Win32,60.97560976,,,,,,,,,,,,,,,,,,,,,725.3705,725.5681,725.5681,726.0678,,,,,,,,,,,,,,1.0989,1,,,,,,,,,,,,,,z,,,,,,,,,,,,,,,,138,0,726.0684,727.1681,z,1,1.0989,,[],[],[],[],[],[],[],727.1683,729.1681,729.1682,729.1684,[],[],[],[],[],[],[],,729.1685,729.1686,-0.027916251,-0.386008661,0,0,0,,0,137,137,65,1,2,TL,polupar,cursive,polupar_c.png,,,,,,
,,,,32185,001,2025-11-06_18h42.58.083,HW_LDT_1,2024.2.4,Win32,60.97560976,,,,,,,,,,,,,,,,,,,,,729.1707,729.3679,729.3679,729.868,,,,,,,,,,,,,,0.7481,0,,,,,,,,,,,,,,m,,,,,,,,,,,,,,,,139,1,729.8687,730.6177,z,0,0.7481,,[],[],[],[],[],[],[],730.6178,732.6176,732.6177,733.8018,[],[],[],[],[],[],[],z,733.8019,733.8028,-0.027916251,-0.386008661,0,0,0,,0,138,138,132,1,2,word,PROPOSAL,cursive,proposal_c.png,1.1722,,,,,
,,,,32185,001,2025-11-06_18h42.58.083,HW_LDT_1,2024.2.4,Win32,60.97560976,,,,,,,,,,,,,,,,,,,,,733.8043,734.001,734.0011,734.5016,,,,,,,,,,,,,,3.3878,1,,,,,,,,,,,,,,z,,,,,,,,,,,,,,,,140,0,734.5023,737.9021,z,1,3.3878,,[],[],[],[],[],[],[],737.9021,739.9018,739.9018,739.902,[],[],[],[],[],[],[],,739.9021,739.9023,-0.027916251,-0.386008661,0,0,0,,0,139,139,20,1,2,RL,onegator,cursive,onegator_c.png,,,,,,
,,,,32185,001,2025-11-06_18h42.58.083,HW_LDT_1,2024.2.4,Win32,60.97560976,,,,,,,,,,,,,,,,,,,,,739.9038,740.1011,740.1011,740.6017,,,,,,,,,,,,,,1.3613,1,,,,,,,,,,,,,,m,,,,,,,,,,,,,,,,141,0,740.6024,741.9693,m,1,1.3613,,[],[],[],[],[],[],[],741.9694,743.9685,743.9686,743.9688,[],[],[],[],[],[],[],,743.9689,743.9691,-0.027916251,-0.386008661,0,0,0,,0,140,140,149,1,2,word,SENATOR,print,senator_p.png,,,,,,
,,,,32185,001,2025-11-06_18h42.58.083,HW_LDT_1,2024.2.4,Win32,60.97560976,,,,,,,,,,,,,,,,,,,,,743.9711,744.168,744.1681,744.6742,,,,,,,,,,,,,,0.6965,1,,,,,,,,,,,,,,m,,,,,,,,,,,,,,,,142,0,744.6748,745.3722,m,1,0.6965,,[],[],[],[],[],[],[],745.3723,747.3681,747.3681,747.3684,[],[],[],[],[],[],[],,747.3684,747.3685,-0.027916251,-0.386008661,0,0,0,,0,141,141,108,1,2,word,FORTUNE,print,fortune_p.png,,,,,,
,,,,32185,001,2025-11-06_18h42.58.083,HW_LDT_1,2024.2.4,Win32,60.97560976,,,,,,,,,,,,,,,,,,,,,747.3701,747.5685,747.5686,748.0689,,,,,,,,,,,,,,0.904,0,,,,,,,,,,,,,,z,,,,,,,,,,,,,,,,143,0,748.0695,748.9853,m,0,0.904,,[],[],[],[],[],[],[],748.9855,750.9851,750.9852,750.9854,[],[],[],[],[],[],[],,750.9854,750.9855,-0.027916251,-0.386008661,0,0,0,,0,142,142,72,1,2,TL,revomal,print,revomal_p.png,,,,,,
,,,,32185,001,2025-11-06_18h42.58.083,HW_LDT_1,2024.2.4,Win32,60.97560976,,,,,,,,,,,,,,,,,,,,,750.9872,751.185,751.185,751.6847,,,,,,,,,,,,,,1.0547,1,,,,,,,,,,,,,,z,,,,,,,,,,,,,,,,144,0,751.6854,752.7522,z,1,1.0547,,[],[],[],[],[],[],[],752.7522,754.7511,754.7512,754.7514,[],[],[],[],[],[],[],,754.7514,754.7515,-0.027916251,-0.386008661,0,0,0,,0,143,143,55,1,2,TL,lotace,print,lotace_p.png,,,,,,
,,,,32185,001,2025-11-06_18h42.58.083,HW_LDT_1,2024.2.4,Win32,60.97560976,,,,,,,,,,,,,,,,,,,,,754.753,754.9512,754.9513,755.4514,,,,,,,,,,,,,,2.3056,1,,,,,,,,,,,,,,m,,,,,,,,,,,,,,,,145,0,755.452,757.768,m,1,2.3056,,[],[],[],[],[],[],[],757.7681,759.7685,759.7686,759.7688,[],[],[],[],[],[],[],,759.7688,759.769,-0.027916251,-0.386008661,0,0,0,,0,144,144,80,1,2,word,ACADEMY,cursive,academy_c.png,,,,,,
,,,,32185,001,2025-11-06_18h42.58.083,HW_LDT_1,2024.2.4,Win32,60.97560976,,,,,,,,,,,,,,,,,,,,,759.7708,759.9687,759.9687,760.4686,,,,,,,,,,,,,,1.1371,0,,,,,,,,,,,,,,z,,,,,,,,,,,,,,,,146,0,760.4693,761.6078,m,0,1.1371,,[],[],[],[],[],[],[],761.608,763.6018,763.6019,763.6021,[],[],[],[],[],[],[],,763.6022,763.6024,-0.027916251,-0.386008661,0,0,0,,0,145,145,47,1,2,TL,crinimal,cursive,crinimal_c.png,,,,,,
,,,,32185,001,2025-11-06_18h42.58.083,HW_LDT_1,2024.2.4,Win32,60.97560976,,,,,,,,,,,,,,,,,,,,,763.6044,763.8023,763.8023,764.3019,,,,,,,,,,,,,,1.2104,1,,,,,,,,,,,,,,z,,,,,,,,,,,,,,,,147,0,764.3026,765.5185,z,1,1.2104,,[],[],[],[],[],[],[],765.5186,767.5187,767.5187,767.519,[],[],[],[],[],[],[],,767.5191,767.5191,-0.027916251,-0.386008661,0,0,0,,0,146,146,17,1,2,RL,macise,cursive,macise_c.png,,,,,,
,,,,32185,001,2025-11-06_18h42.58.083,HW_LDT_1,2024.2.4,Win32,60.97560976,,,,,,,,,,,,,,,,,,,,,767.5212,767.7187,767.7187,768.2185,,,,,,,,,,,,,,1.0752,1,,,,,,,,,,,,,,m,,,,,,,,,,,,,,,,148,0,768.2192,769.3018,m,1,1.0752,,[],[],[],[],[],[],[],769.3019,771.3019,771.302,771.3021,[],[],[],[],[],[],[],,771.3022,771.3024,-0.027916251,-0.386008661,0,0,0,,0,147,147,140,1,2,word,RELATIVE,print,relative_p.png,,,,,,
,,,,32185,001,2025-11-06_18h42.58.083,HW_LDT_1,2024.2.4,Win32,60.97560976,,,,,,,,,,,,,,,,,,,,,771.3045,771.502,771.5021,772.002,,,,,,,,,,,,,,1.4384,0,,,,,,,,,,,,,,m,,,,,,,,,,,,,,,,149,0,772.0026,773.4522,z,0,1.4384,,[],[],[],[],[],[],[],773.4523,775.4518,775.4519,775.4521,[],[],[],[],[],[],[],,775.4522,775.4524,-0.027916251,-0.386008661,0,0,0,,0,148,148,125,1,2,word,OPERATOR,cursive,operator_c.png,,,,,,
,,,,32185,001,2025-11-06_18h42.58.083,HW_LDT_1,2024.2.4,Win32,60.97560976,,,,,,,,,,,,,,,,,,,,,775.4543,775.6409,775.6409,776.1522,,,,,,,,,,,,,,1.1561,1,,,,,,,,,,,,,,m,,,,,,,,,,,,,,,,150,0,776.1529,777.3186,m,1,1.1561,,[],[],[],[],[],[],[],777.3186,779.3186,779.3186,779.3187,[],[],[],[],[],[],[],,779.3187,779.3189,-0.027916251,-0.386008661,0,0,0,,0,149,149,157,1,2,word,VALIDITY,print,validity_p.png,,,,,,
,,,,32185,001,2025-11-06_18h42.58.083,HW_LDT_1,2024.2.4,Win32,60.97560976,,,,,,,,,,,,,,,,,,,,,779.3205,779.5191,779.5192,780.019,,,,,,,,,,,,,,0.8051,0,,,,,,,,,,,,,,m,,,,,,,,,,,,,,,,151,0,780.0197,780.8351,z,0,0.8051,,[],[],[],[],[],[],[],780.8353,782.8385,782.8385,782.8388,[],[],[],[],[],[],[],,782.8389,782.8392,-0.027916251,-0.386008661,0,0,0,,0,150,150,138,1,2,word,REFUSAL,cursive,refusal_c.png,,,,,,
,,,,32185,001,2025-11-06_18h42.58.083,HW_LDT_1,2024.2.4,Win32,60.97560976,,,,,,,,,,,,,,,,,,,,,782.8411,783.0356,783.0358,783.5354,,,,,,,,,,,,,,1.2948,1,,,,,,,,,,,,,,m,,,,,,,,,,,,,,,,152,0,783.5361,784.8359,m,1,1.2948,,[],[],[],[],[],[],[],784.8361,786.8359,786.836,786.8361,[],[],[],[],[],[],[],,786.8361,786.8365,-0.027916251,-0.386008661,0,0,0,,0,151,151,110,1,2,word,HERITAGE,print,heritage_p.png,,,,,,
,,,,32185,001,2025-11-06_18h42.58.083,HW_LDT_1,2024.2.4,Win32,60.97560976,,,,,,,,,,,,,,,,,,,,,786.838,787.0355,787.0356,787.5353,,,,,,,,,,,,,,1.6484,0,,,,,,,,,,,,,,m,,,,,,,,,,,,,,,,153,0,787.5361,789.1854,z,0,1.6484,,[],[],[],[],[],[],[],789.1854,791.1853,791.1854,791.1856,[],[],[],[],[],[],[],,791.1857,791.1858,-0.027916251,-0.386008661,0,0,0,,0,152,152,134,1,2,word,QUALIFY,cursive,qualify_c.png,,,,,,
,,,,32185,001,2025-11-06_18h42.58.083,HW_LDT_1,2024.2.4,Win32,60.97560976,,,,,,,,,,,,,,,,,,,,,791.1876,791.3857,791.3858,791.8859,,,,,,,,,,,,,,1.505,1,,,,,,,,,,,,,,z,,,,,,,,,,,,,,,,154,0,791.8866,793.4023,z,1,1.505,,[],[],[],[],[],[],[],793.4024,795.4024,795.4025,795.4027,[],[],[],[],[],[],[],,795.4028,795.4029,-0.027916251,-0.386008661,0,0,0,,0,153,153,6,1,2,RL,conbicer,print,conbicer_p.png,,,,,,
,,,,32185,001,2025-11-06_18h42.58.083,HW_LDT_1,2024.2.4,Win32,60.97560976,,,,,,,,,,,,,,,,,,,,,795.4051,795.6024,795.6024,796.1025,,,,,,,,,,,,,,0.7875,1,,,,,,,,,,,,,,m,,,,,,,,,,,,,,,,155,0,796.1033,796.8918,m,1,0.7875,,[],[],[],[],[],[],[],796.8919,798.8859,798.886,798.8861,[],[],[],[],[],[],[],,798.8862,798.8862,-0.027916251,-0.386008661,0,0,0,,0,154,154,92,1,2,word,CATEGORY,print,category_p.png,,,,,,
,,,,32185,001,2025-11-06_18h42.58.083,HW_LDT_1,2024.2.4,Win32,60.97560976,,,,,,,,,,,,,,,,,,,,,798.8878,799.0859,799.086,799.5865,,,,,,,,,,,,,,0.675,0,,,,,,,,,,,,,,m,,,,,,,,,,,,,,,,156,0,799.5871,800.2689,z,0,0.675,,[],[],[],[],[],[],[],800.269,802.2687,802.2689,802.2691,[],[],[],[],[],[],[],,802.2692,802.2693,-0.027916251,-0.386008661,0,0,0,,0,155,155,120,1,2,word,MILITARY,cursive,military_c.png,,,,,,
,,,,32185,001,2025-11-06_18h42.58.083,HW_LDT_1,2024.2.4,Win32,60.97560976,,,,,,,,,,,,,,,,,,,,,802.2712,802.4689,802.469,802.9689,,,,,,,,,,,,,,1.0878,1,,,,,,,,,,,,,,m,,,,,,,,,,,,,,,,157,0,802.9695,804.0694,m,1,1.0878,,[],[],[],[],[],[],[],804.0694,806.0693,806.0693,806.0696,[],[],[],[],[],[],[],,806.0696,806.0698,-0.027916251,-0.386008661,0,0,0,,0,156,156,93,1,2,word,CEREMONY,print,ceremony_p.png,,,,,,
,,,,32185,001,2025-11-06_18h42.58.083,HW_LDT_1,2024.2.4,Win32,60.97560976,,,,,,,,,,,,,,,,,,,,,806.0717,806.2693,806.2693,806.7691,,,,,,,,,,,,,,0.8204,1,,,,,,,,,,,,,,z,,,,,,,,,,,,,,,,158,0,806.7699,807.6026,z,1,0.8204,,[],[],[],[],[],[],[],807.6027,809.6026,809.6027,809.6029,[],[],[],[],[],[],[],,809.6029,809.6031,-0.027916251,-0.386008661,0,0,0,,0,157,157,13,1,2,RL,helicage,print,helicage_p.png,,,,,,
,,,,32185,001,2025-11-06_18h42.58.083,HW_LDT_1,2024.2.4,Win32,60.97560976,,,,,,,,,,,,,,,,,,,,,809.6046,809.8028,809.8028,810.3025,,,,,,,,,,,,,,1.1258,0,,,,,,,,,,,,,,z,,,,,,,,,,,,,,,,159,0,810.3031,811.4361,m,0,1.1258,,[],[],[],[],[],[],[],811.4363,813.4367,813.4368,813.4369,[],[],[],[],[],[],[],,813.437,813.4371,-0.027916251,-0.386008661,0,0,0,,0,158,158,64,1,2,TL,paficic,print,paficic_p.png,,,,,,
,,,,32185,001,2025-11-06_18h42.58.083,HW_LDT_1,2024.2.4,Win32,60.97560976,,,,,,,,,,,,,,,,,,,,,813.4387,813.636,813.6362,814.1361,,,,,,,,,,,,,,1.7611,1,,,,,,,,,,,,,,m,,,,,,,,,,,,,,,,160,0,814.1371,815.9029,m,1,1.7611,,[],[],[],[],[],[],[],815.9029,817.9029,817.9029,817.903,[],[],[],[],[],[],[],,817.9031,817.9032,-0.027916251,-0.386008661,0,0,0,,0,159,159,159,1,2,word,VETERAN,print,veteran_p.png,,,,,,
,,,,32185,001,2025-11-06_18h42.58.083,HW_LDT_1,2024.2.4,Win32,60.97560976,,,,,,,,,,,,,,,,,,,,,,,,,,,,,,,,,,,,,,,,,,,,,,,,,,,,,,,,,,,,,,,,,,,,,,,,,,,,,,,,,,,,,,,,,,,,,,,,,,,,,,,,,,,,,,,,,,,,,,817.9204,822.9028
