counterbalance_lists.group,counterbalance_lists.remaining,get_list.started,get_list.stopped,participant,session,date,expName,psychopyVersion,OS,frameRate,Instructions.started,Instructions.stopped,key_resp.keys,key_resp.rt,key_resp.duration,instr_done_touch.x,instr_done_touch.y,instr_done_touch.leftButton,instr_done_touch.midButton,instr_done_touch.rightButton,start_instr.thisRepN,start_instr.thisTrialN,start_instr.thisN,start_instr.thisIndex,start_instr.ran,pageN,phase,instruct_text,has_image,instruct_image,instr_done_touch.clicked_name,showProgress.started,showProgress.stopped,fix.started,fix.stopped,prac.started,prac.stopped,response.keys,response.corr,response.rt,response.duration,touch_resp.x,touch_resp.y,touch_resp.leftButton,touch_resp.midButton,touch_resp.rightButton,touch_resp.time,touch_resp.clicked_name,rt,corr,feedback.started,feedback.stopped,trials.thisRepN,trials.thisTrialN,trials.thisN,trials.thisIndex,trials.ran,TrialID,StimulusType,Condition,PrimeDuration,Prime,Target,corrAns,Instructions_expt.started,Instructions_expt.stopped,key_resp_3.keys,instr_done_touch_3.x,instr_done_touch_3.y,instr_done_touch_3.leftButton,instr_done_touch_3.midButton,instr_done_touch_3.rightButton,instr_done_touch_3.clicked_name,instr_experiment.thisRepN,instr_experiment.thisTrialN,instr_experiment.thisN,instr_experiment.thisIndex,instr_experiment.ran,trialID,flag,maintask.started,maintask.stopped,key_resp_2.keys,key_resp_2.corr,key_resp_2.rt,key_resp_2.duration,targ_click.x,targ_click.y,targ_click.leftButton,targ_click.midButton,targ_click.rightButton,targ_click.time,targ_click.clicked_name,ITI.started,ITI.stopped,probe.started,probe.stopped,click_probe.x,click_probe.y,click_probe.leftButton,click_probe.midButton,click_probe.rightButton,click_probe.time,click_probe.clicked_name,key_resp_probe.keys,Break.started,Break.stopped,break_done_touch.x,break_done_touch.y,break_done_touch.leftButton,break_done_touch.midButton,break_done_touch.rightButton,break_done_keyboard.keys,list2_trials.thisRepN,list2_trials.thisTrialN,list2_trials.thisN,list2_trials.thisIndex,list2_trials.ran,list_id,item_type,string,font,stim_file,key_resp_probe.rt,key_resp_probe.duration,break_done_keyboard.rt,break_done_keyboard.duration,End.started,End.stopped
list2,,0.5092,0.5093,32192,001,2025-10-16_15h13.05.193,HW_LDT_1,2024.2.4,MacIntel,57.14285714,,,,,,,,,,,,,,,,,,,,,,,,,,,,,,,,,,,,,,,,,,,,,,,,,,,,,,,,,,,,,,,,,,,,,,,,,,,,,,,,,,,,,,,,,,,,,,,,,,,,,,,,,,,,,,,,,,,,,,,
,,,,32192,001,2025-10-16_15h13.05.193,HW_LDT_1,2024.2.4,MacIntel,57.14285714,0.529,4.6276,space,4.0689,,0.010243811,-0.411473919,0,0,0,0,0,0,0,1,1,instructions,"INSTRUCTIONS
At the start of each trial, look at the plus sign  (+) in the center of the screen.  This tells you that a trial is about to begin and where to look. Second, the plus sign will disappear and a string of letters will appear. Your task is to determine if the string of letters is a word or not. If the item is a word press the M key (on keyboard)  or touch the word button (phone/tablet).  If the item is not a word,  press the  Z key (on keyboard)  or touch the nonword button (on phone/tablet). The items will be presented for a short time. 
Press the space bar or touch  continue.",0,,,,,,,,,,,,,,,,,,,,,,,,,,,,,,,,,,,,,,,,,,,,,,,,,,,,,,,,,,,,,,,,,,,,,,,,,,,,,,,,,,,,,,,,,,,,,,,,,,,,
,,,,32192,001,2025-10-16_15h13.05.193,HW_LDT_1,2024.2.4,MacIntel,57.14285714,4.6294,14.7769,space,10.1235,,-0.076866839,-0.058912541,0,0,0,0,1,1,1,1,2,instructions,"If your device has a keyboard, press the 'Z' key for nonwords and the 'M' key for words.





Press the space bar or touch the button below to continue.",0,keyboard-example.gif,,,,,,,,,,,,,,,,,,,,,,,,,,,,,,,,,,,,,,,,,,,,,,,,,,,,,,,,,,,,,,,,,,,,,,,,,,,,,,,,,,,,,,,,,,,,,,,,,,,
,,,,32192,001,2025-10-16_15h13.05.193,HW_LDT_1,2024.2.4,MacIntel,57.14285714,14.7788,18.11,space,3.3024,,-0.076866839,-0.058912541,0,0,0,0,2,2,2,1,3,instructions,"If you are using a touchscreen only device, use the buttons on the screen. Do not use the mouse.





Press the space bar or touch the button below to continue.",0,touchscreen-example.gif,,,,,,,,,,,,,,,,,,,,,,,,,,,,,,,,,,,,,,,,,,,,,,,,,,,,,,,,,,,,,,,,,,,,,,,,,,,,,,,,,,,,,,,,,,,,,,,,,,,
,,,,32192,001,2025-10-16_15h13.05.193,HW_LDT_1,2024.2.4,MacIntel,57.14285714,18.1119,30.5764,space,12.4366,,-0.076866839,-0.058912541,0,0,0,0,3,3,3,1,4,instructions,"It is very important that you respond as quickly and accurately as possible, as each letter string will only be on the screen for two seconds. If you do not respond within this time, the message 'Too slow!' will be displayed and the experiment will progress to the next letter string. The first 20 trials will be practice trials and you will receive feedback on your answers. 

Press the space bar or touch the button below to start the practice trials.",0,,,,,,,,,,,,,,,,,,,,,,,,,,,,,,,,,,,,,,,,,,,,,,,,,,,,,,,,,,,,,,,,,,,,,,,,,,,,,,,,,,,,,,,,,,,,,,,,,,,,
,,,,32192,001,2025-10-16_15h13.05.193,HW_LDT_1,2024.2.4,MacIntel,57.14285714,,,,,,,,,,,,,,,,,,,,,,30.6046,30.7763,30.7768,31.2763,31.2766,32.61,m,1,1.3045,,[],[],[],[],[],[],[],1.3045,1,32.6105,33.1097,0,0,0,0,1,1001,WORD,"ID",33,utopia,UTOPIA,m,,,,,,,,,,,,,,,,,,,,,,,,,,,,,,,,,,,,,,,,,,,,,,,,,,,,,,,,,,,,,,,,,
,,,,32192,001,2025-10-16_15h13.05.193,HW_LDT_1,2024.2.4,MacIntel,57.14285714,,,,,,,,,,,,,,,,,,,,,,33.1112,33.3084,33.3085,33.8093,33.8105,34.5592,z,1,0.7309,,[],[],[],[],[],[],[],0.7309,1,34.5594,35.0595,0,1,1,9,1,1010,NW,"ID",33,fariny,FARINY,z,,,,,,,,,,,,,,,,,,,,,,,,,,,,,,,,,,,,,,,,,,,,,,,,,,,,,,,,,,,,,,,,,
,,,,32192,001,2025-10-16_15h13.05.193,HW_LDT_1,2024.2.4,MacIntel,57.14285714,,,,,,,,,,,,,,,,,,,,,,35.0609,35.2594,35.2594,35.7585,35.7595,36.8261,m,0,1.0454,,[],[],[],[],[],[],[],1.0454,0,36.827,37.3262,0,2,2,8,1,1009,NW,"ID",33,aslert,ASLERT,z,,,,,,,,,,,,,,,,,,,,,,,,,,,,,,,,,,,,,,,,,,,,,,,,,,,,,,,,,,,,,,,,,
,,,,32192,001,2025-10-16_15h13.05.193,HW_LDT_1,2024.2.4,MacIntel,57.14285714,,,,,,,,,,,,,,,,,,,,,,37.3274,37.5261,37.5261,38.0249,38.0255,39.2599,z,1,1.228,,[],[],[],[],[],[],[],1.228,1,39.2608,39.7594,0,3,3,14,1,1015,NW,UN,16,miaber,THRALE,z,,,,,,,,,,,,,,,,,,,,,,,,,,,,,,,,,,,,,,,,,,,,,,,,,,,,,,,,,,,,,,,,,
,,,,32192,001,2025-10-16_15h13.05.193,HW_LDT_1,2024.2.4,MacIntel,57.14285714,,,,,,,,,,,,,,,,,,,,,,39.7608,39.9583,39.9584,40.4583,40.4593,41.1259,z,1,0.6454,,[],[],[],[],[],[],[],0.6454,1,41.1262,41.626,0,4,4,13,1,1014,NW,UN,33,winfer,ROUPET,z,,,,,,,,,,,,,,,,,,,,,,,,,,,,,,,,,,,,,,,,,,,,,,,,,,,,,,,,,,,,,,,,,
,,,,32192,001,2025-10-16_15h13.05.193,HW_LDT_1,2024.2.4,MacIntel,57.14285714,,,,,,,,,,,,,,,,,,,,,,41.6274,41.8259,41.8259,42.325,42.326,42.9922,m,1,0.6477,,[],[],[],[],[],[],[],0.6477,1,42.9924,43.4917,0,5,5,7,1,1008,WORD,UN,16,hurdle,VOLUME,m,,,,,,,,,,,,,,,,,,,,,,,,,,,,,,,,,,,,,,,,,,,,,,,,,,,,,,,,,,,,,,,,,
,,,,32192,001,2025-10-16_15h13.05.193,HW_LDT_1,2024.2.4,MacIntel,57.14285714,,,,,,,,,,,,,,,,,,,,,,43.4932,43.6925,43.6927,44.1925,44.1936,44.9592,z,1,0.7491,,[],[],[],[],[],[],[],0.7491,1,44.9593,45.4583,0,6,6,12,1,1013,NW,UN,33,adveil,SPRINY,z,,,,,,,,,,,,,,,,,,,,,,,,,,,,,,,,,,,,,,,,,,,,,,,,,,,,,,,,,,,,,,,,,
,,,,32192,001,2025-10-16_15h13.05.193,HW_LDT_1,2024.2.4,MacIntel,57.14285714,,,,,,,,,,,,,,,,,,,,,,45.4599,45.6591,45.6592,46.1592,46.16,46.9421,z,1,0.7644,,[],[],[],[],[],[],[],0.7644,1,46.9422,47.4425,0,7,7,11,1,1012,NW,"ID",16,rashet,RASHET,z,,,,,,,,,,,,,,,,,,,,,,,,,,,,,,,,,,,,,,,,,,,,,,,,,,,,,,,,,,,,,,,,,
,,,,32192,001,2025-10-16_15h13.05.193,HW_LDT_1,2024.2.4,MacIntel,57.14285714,,,,,,,,,,,,,,,,,,,,,,47.444,47.6424,47.6425,48.1425,48.1435,48.7757,m,1,0.6191,,[],[],[],[],[],[],[],0.6191,1,48.7759,49.2758,0,8,8,5,1,1006,WORD,UN,33,frenzy,OBTAIN,m,,,,,,,,,,,,,,,,,,,,,,,,,,,,,,,,,,,,,,,,,,,,,,,,,,,,,,,,,,,,,,,,,
,,,,32192,001,2025-10-16_15h13.05.193,HW_LDT_1,2024.2.4,MacIntel,57.14285714,,,,,,,,,,,,,,,,,,,,,,49.2773,49.4757,49.4758,49.9748,49.9757,50.7249,z,1,0.7288,,[],[],[],[],[],[],[],0.7288,1,50.7251,51.2248,0,9,9,15,1,1016,NW,UN,16,mushed,WHAISE,z,,,,,,,,,,,,,,,,,,,,,,,,,,,,,,,,,,,,,,,,,,,,,,,,,,,,,,,,,,,,,,,,,
,,,,32192,001,2025-10-16_15h13.05.193,HW_LDT_1,2024.2.4,MacIntel,57.14285714,,,,,,,,,,,,,,,,,,,,,,51.2264,51.4248,51.4249,51.9248,51.9258,52.6091,m,1,0.6651,,[],[],[],[],[],[],[],0.6651,1,52.6093,53.1081,0,10,10,2,1,1003,WORD,"ID",16,almond,ALMOND,m,,,,,,,,,,,,,,,,,,,,,,,,,,,,,,,,,,,,,,,,,,,,,,,,,,,,,,,,,,,,,,,,,
,,,,32192,001,2025-10-16_15h13.05.193,HW_LDT_1,2024.2.4,MacIntel,57.14285714,,,,,,,,,,,,,,,,,,,,,,53.1095,53.3091,53.3092,53.809,53.8101,54.5415,m,1,0.7125,,[],[],[],[],[],[],[],0.7125,1,54.5416,55.0425,0,11,11,4,1,1005,WORD,UN,33,abound,SQUEAK,m,,,,,,,,,,,,,,,,,,,,,,,,,,,,,,,,,,,,,,,,,,,,,,,,,,,,,,,,,,,,,,,,,
,,,,32192,001,2025-10-16_15h13.05.193,HW_LDT_1,2024.2.4,MacIntel,57.14285714,,,,,,,,,,,,,,,,,,,,,,55.0439,55.2422,55.2423,55.7423,55.7433,56.4425,m,1,0.6786,,[],[],[],[],[],[],[],0.6786,1,56.4426,56.9423,0,12,12,3,1,1004,WORD,"ID",16,matrix,MATRIX,m,,,,,,,,,,,,,,,,,,,,,,,,,,,,,,,,,,,,,,,,,,,,,,,,,,,,,,,,,,,,,,,,,
,,,,32192,001,2025-10-16_15h13.05.193,HW_LDT_1,2024.2.4,MacIntel,57.14285714,,,,,,,,,,,,,,,,,,,,,,56.9437,57.1423,57.1424,57.6414,57.6423,58.3757,z,1,0.7176,,[],[],[],[],[],[],[],0.7176,1,58.3758,58.8756,0,13,13,10,1,1011,NW,"ID",16,inlade,INLADE,z,,,,,,,,,,,,,,,,,,,,,,,,,,,,,,,,,,,,,,,,,,,,,,,,,,,,,,,,,,,,,,,,,
,,,,32192,001,2025-10-16_15h13.05.193,HW_LDT_1,2024.2.4,MacIntel,57.14285714,,,,,,,,,,,,,,,,,,,,,,58.8769,59.0746,59.0747,59.5746,59.5758,60.6423,m,1,1.0499,,[],[],[],[],[],[],[],1.0499,1,60.6423,61.1422,0,14,14,1,1,1002,WORD,"ID",33,adjust,ADJUST,m,,,,,,,,,,,,,,,,,,,,,,,,,,,,,,,,,,,,,,,,,,,,,,,,,,,,,,,,,,,,,,,,,
,,,,32192,001,2025-10-16_15h13.05.193,HW_LDT_1,2024.2.4,MacIntel,57.14285714,,,,,,,,,,,,,,,,,,,,,,61.1437,61.3412,61.3413,61.8413,61.8422,62.6256,m,1,0.7629,,[],[],[],[],[],[],[],0.7629,1,62.6259,63.1246,0,15,15,6,1,1007,WORD,UN,16,tropic,ZOMBIE,m,,,,,,,,,,,,,,,,,,,,,,,,,,,,,,,,,,,,,,,,,,,,,,,,,,,,,,,,,,,,,,,,,
,,,,32192,001,2025-10-16_15h13.05.193,HW_LDT_1,2024.2.4,MacIntel,57.14285714,,,,,,,,,,,,,,,,1,end_of_practice,"You have completed the practice trials. During the experimental trials, you will not receive feedback. On some trials you will be asked to report whether the item you just saw was in cursive or print. 
Before you begin, please ensure that you are in a comfortable and quiet location and will not be disturbed for about 15 minutes, as we cannot use your data if you do not complete all the trials. 
 When you are ready to start the experimental trials, please press space or touch the button below.",,,,,,,,,,,,,,,,,,,,,,,,,,,,,,,,,,,,,63.1305,68.8916,,-0.02484018,-0.383403326,1,0,0,instr_done_button_3,0,0,0,0,1,,,,,,,,,,,,,,,,,,,,,,,,,,,,,,,,,,,,,,,,,,,,,,,,,,,
,,,,32192,001,2025-10-16_15h13.05.193,HW_LDT_1,2024.2.4,MacIntel,57.14285714,,,,,,,,,,,,,,,,,,,,,,68.9055,69.092,69.0921,69.592,,,,,,,,,,,,,,1.9394,1,,,,,,,,,,,,,,m,,,,,,,,,,,,,,,1,0,69.5936,71.5427,m,1,1.9394,,[],[],[],[],[],[],[],71.5432,73.5422,73.5424,73.5449,[],[],[],[],[],[],[],,73.545,73.5462,0.009185426,-0.253153904,0,0,0,,0,0,0,109,1,2,word,GRATEFUL,cursive,grateful_c.png,,,,,,
,,,,32192,001,2025-10-16_15h13.05.193,HW_LDT_1,2024.2.4,MacIntel,57.14285714,,,,,,,,,,,,,,,,,,,,,,73.547,73.7419,73.7419,74.2411,,,,,,,,,,,,,,1.5649,1,,,,,,,,,,,,,,z,,,,,,,,,,,,,,,2,0,74.2415,75.8087,z,1,1.5649,,[],[],[],[],[],[],[],75.8088,77.8086,77.8087,77.8089,[],[],[],[],[],[],[],,77.809,77.8092,0.009185426,-0.253153904,0,0,0,,0,1,1,45,1,2,TL,carnidal,cursive,carnidal_c.png,,,,,,
,,,,32192,001,2025-10-16_15h13.05.193,HW_LDT_1,2024.2.4,MacIntel,57.14285714,,,,,,,,,,,,,,,,,,,,,,77.8104,78.0078,78.0079,78.5077,,,,,,,,,,,,,,0.9037,1,,,,,,,,,,,,,,z,,,,,,,,,,,,,,,3,0,78.5083,79.4246,z,1,0.9037,,[],[],[],[],[],[],[],79.4247,81.4251,81.4252,81.4255,[],[],[],[],[],[],[],,81.4256,81.4258,0.009185426,-0.253153904,0,0,0,,0,2,2,3,1,2,RL,capefory,print,capefory_p.png,,,,,,
,,,,32192,001,2025-10-16_15h13.05.193,HW_LDT_1,2024.2.4,MacIntel,57.14285714,,,,,,,,,,,,,,,,,,,,,,81.427,81.6242,81.6242,82.1251,,,,,,,,,,,,,,0.7879,1,,,,,,,,,,,,,,m,,,,,,,,,,,,,,,4,0,82.1258,82.9246,m,1,0.7879,,[],[],[],[],[],[],[],82.9247,84.9252,84.9252,84.9254,[],[],[],[],[],[],[],,84.9255,84.9256,0.009185426,-0.253153904,0,0,0,,0,3,3,95,1,2,word,COMEDY,cursive,comedy_c.png,,,,,,
,,,,32192,001,2025-10-16_15h13.05.193,HW_LDT_1,2024.2.4,MacIntel,57.14285714,,,,,,,,,,,,,,,,,,,,,,84.9265,85.1242,85.1243,85.6252,,,,,,,,,,,,,,0.9983,0,,,,,,,,,,,,,,m,,,,,,,,,,,,,,,5,0,85.6257,86.6252,z,0,0.9983,,[],[],[],[],[],[],[],86.6253,88.6241,88.6242,88.6245,[],[],[],[],[],[],[],,88.6246,88.6248,0.009185426,-0.253153904,0,0,0,,0,4,4,85,1,2,word,BENEFIT,cursive,benefit_c.png,,,,,,
,,,,32192,001,2025-10-16_15h13.05.193,HW_LDT_1,2024.2.4,MacIntel,57.14285714,,,,,,,,,,,,,,,,,,,,,,88.626,88.825,88.8251,89.3249,,,,,,,,,,,,,,1.3031,0,,,,,,,,,,,,,,m,,,,,,,,,,,,,,,6,0,89.3256,90.6418,z,0,1.3031,,[],[],[],[],[],[],[],90.6421,92.6417,92.6417,92.6422,[],[],[],[],[],[],[],,92.6424,92.6425,0.009185426,-0.253153904,0,0,0,,0,5,5,105,1,2,word,EDITOR,cursive,editor_c.png,,,,,,
,,,,32192,001,2025-10-16_15h13.05.193,HW_LDT_1,2024.2.4,MacIntel,57.14285714,,,,,,,,,,,,,,,,,,,,,,92.6437,92.8407,92.8408,93.3415,,,,,,,,,,,,,,0.823,1,,,,,,,,,,,,,,m,,,,,,,,,,,,,,,7,0,93.3421,94.1752,m,1,0.823,,[],[],[],[],[],[],[],94.1753,96.174,96.1741,96.1745,[],[],[],[],[],[],[],,96.1746,96.1747,0.009185426,-0.253153904,0,0,0,,0,6,6,108,1,2,word,FORTUNE,print,fortune_p.png,,,,,,
,,,,32192,001,2025-10-16_15h13.05.193,HW_LDT_1,2024.2.4,MacIntel,57.14285714,,,,,,,,,,,,,,,,,,,,,,96.1759,96.3741,96.3741,96.874,,,,,,,,,,,,,,0.8714,1,,,,,,,,,,,,,,z,,,,,,,,,,,,,,,8,0,96.8745,97.7576,z,1,0.8714,,[],[],[],[],[],[],[],97.7578,99.7582,99.7582,99.7585,[],[],[],[],[],[],[],,99.7586,99.7587,0.009185426,-0.253153904,0,0,0,,0,7,7,10,1,2,RL,disluge,cursive,disluge_c.png,,,,,,
,,,,32192,001,2025-10-16_15h13.05.193,HW_LDT_1,2024.2.4,MacIntel,57.14285714,,,,,,,,,,,,,,,,,,,,,,99.76,99.9581,99.9582,100.4581,,,,,,,,,,,,,,0.6307,1,,,,,,,,,,,,,,m,,,,,,,,,,,,,,,9,0,100.4588,101.0907,m,1,0.6307,,[],[],[],[],[],[],[],101.0908,103.0906,103.0906,103.0909,[],[],[],[],[],[],[],,103.091,103.0911,0.009185426,-0.253153904,0,0,0,,0,8,8,115,1,2,word,LOGICAL,print,logical_p.png,,,,,,
,,,,32192,001,2025-10-16_15h13.05.193,HW_LDT_1,2024.2.4,MacIntel,57.14285714,,,,,,,,,,,,,,,,,,,,,,103.0924,103.2914,103.2914,103.7914,,,,,,,,,,,,,,0.6897,1,,,,,,,,,,,,,,m,,,,,,,,,,,,,,,10,0,103.7921,104.4906,m,1,0.6897,,[],[],[],[],[],[],[],104.4907,106.4914,106.4914,106.4918,[],[],[],[],[],[],[],,106.492,106.4921,0.009185426,-0.253153904,0,0,0,,0,9,9,102,1,2,word,DENSITY,print,density_p.png,,,,,,
,,,,32192,001,2025-10-16_15h13.05.193,HW_LDT_1,2024.2.4,MacIntel,57.14285714,,,,,,,,,,,,,,,,,,,,,,106.4936,106.6905,106.6905,107.1915,,,,,,,,,,,,,,1.272,0,,,,,,,,,,,,,,m,,,,,,,,,,,,,,,11,0,107.192,108.4749,z,0,1.272,,[],[],[],[],[],[],[],108.4749,110.4746,110.4746,110.475,[],[],[],[],[],[],[],,110.475,110.4752,0.009185426,-0.253153904,0,0,0,,0,10,10,98,1,2,word,CRIMINAL,cursive,criminal_c.png,,,,,,
,,,,32192,001,2025-10-16_15h13.05.193,HW_LDT_1,2024.2.4,MacIntel,57.14285714,,,,,,,,,,,,,,,,,,,,,,110.4765,110.6746,110.6747,111.1746,,,,,,,,,,,,,,1.754,1,,,,,,,,,,,,,,m,,,,,,,,,,,,,,,12,0,111.1753,112.9404,m,1,1.754,,[],[],[],[],[],[],[],112.9406,114.9413,114.9413,114.9416,[],[],[],[],[],[],[],,114.9416,114.9418,0.009185426,-0.253153904,0,0,0,,0,11,11,126,1,2,word,OPTIMAL,cursive,optimal_c.png,,,,,,
,,,,32192,001,2025-10-16_15h13.05.193,HW_LDT_1,2024.2.4,MacIntel,57.14285714,,,,,,,,,,,,,,,,,,,,,,114.943,115.1412,115.1413,115.6412,,,,,,,,,,,,,,0.7044,0,,,,,,,,,,,,,,z,,,,,,,,,,,,,,,13,0,115.6418,116.3579,m,0,0.7044,,[],[],[],[],[],[],[],116.358,118.3579,118.3579,118.3581,[],[],[],[],[],[],[],,118.3582,118.3584,0.009185426,-0.253153904,0,0,0,,0,12,12,64,1,2,TL,paficic,print,paficic_p.png,,,,,,
,,,,32192,001,2025-10-16_15h13.05.193,HW_LDT_1,2024.2.4,MacIntel,57.14285714,,,,,,,,,,,,,,,,,,,,,,118.3597,118.5579,118.5579,119.0579,,,,,,,,,,,,,,2.3041,0,,,,,,,,,,,,,,m,,,,,,,,,,,,,,,14,0,119.0584,121.3745,z,0,2.3041,,[],[],[],[],[],[],[],121.3746,123.3745,123.3746,123.3748,[],[],[],[],[],[],[],,123.3748,123.3749,0.009185426,-0.253153904,0,0,0,,0,13,13,120,1,2,word,MILITARY,cursive,military_c.png,,,,,,
,,,,32192,001,2025-10-16_15h13.05.193,HW_LDT_1,2024.2.4,MacIntel,57.14285714,,,,,,,,,,,,,,,,,,,,,,123.3761,123.5745,123.5745,124.0744,,,,,,,,,,,,,,0.8738,1,,,,,,,,,,,,,,z,,,,,,,,,,,,,,,15,0,124.0749,124.9578,z,1,0.8738,,[],[],[],[],[],[],[],124.9579,126.9576,126.9577,126.958,[],[],[],[],[],[],[],,126.9581,126.9582,0.009185426,-0.253153904,0,0,0,,0,14,14,49,1,2,TL,dedace,print,dedace_p.png,,,,,,
,,,,32192,001,2025-10-16_15h13.05.193,HW_LDT_1,2024.2.4,MacIntel,57.14285714,,,,,,,,,,,,,,,,,,,,,,126.9594,127.1577,127.1578,127.6576,,,,,,,,,,,,,,1.4038,1,,,,,,,,,,,,,,m,,,,,,,,,,,,,,,16,0,127.6584,129.0744,m,1,1.4038,,[],[],[],[],[],[],[],129.0746,131.0742,131.0742,131.0744,[],[],[],[],[],[],[],,131.0746,131.0747,0.009185426,-0.253153904,0,0,0,,0,15,15,124,1,2,word,NUMERICAL,cursive,numerical_c.png,,,,,,
,,,,32192,001,2025-10-16_15h13.05.193,HW_LDT_1,2024.2.4,MacIntel,57.14285714,,,,,,,,,,,,,,,,,,,,,,131.076,131.2742,131.2743,131.7742,,,,,,,,,,,,,,1.8921,1,,,,,,,,,,,,,,z,,,,,,,,,,,,,,,17,1,131.7748,133.674,z,1,1.8921,,[],[],[],[],[],[],[],133.6742,135.6742,135.6742,138.8075,[],[],[],[],[],[],[],z,138.8077,138.8078,0.009185426,-0.253153904,0,0,0,,0,16,16,69,1,2,TL,resufal,cursive,resufal_c.png,3.1217,,,,,
,,,,32192,001,2025-10-16_15h13.05.193,HW_LDT_1,2024.2.4,MacIntel,57.14285714,,,,,,,,,,,,,,,,,,,,,,138.809,139.0075,139.0075,139.5075,,,,,,,,,,,,,,1.9567,0,,,,,,,,,,,,,,z,,,,,,,,,,,,,,,18,0,139.508,141.4741,m,0,1.9567,,[],[],[],[],[],[],[],141.4742,143.4741,143.4742,143.4743,[],[],[],[],[],[],[],,143.4744,143.4746,0.009185426,-0.253153904,0,0,0,,0,17,17,68,1,2,TL,quatily,cursive,quatily_c.png,,,,,,
,,,,32192,001,2025-10-16_15h13.05.193,HW_LDT_1,2024.2.4,MacIntel,57.14285714,,,,,,,,,,,,,,,,,,,,,,143.4757,143.674,143.674,144.174,,,,,,,,,,,,,,2.18,1,,,,,,,,,,,,,,m,,,,,,,,,,,,,,,19,0,144.1745,146.3574,m,1,2.18,,[],[],[],[],[],[],[],146.3575,148.3573,148.3573,148.3575,[],[],[],[],[],[],[],,148.3577,148.3578,0.009185426,-0.253153904,0,0,0,,0,18,18,117,1,2,word,MARINE,cursive,marine_c.png,,,,,,
,,,,32192,001,2025-10-16_15h13.05.193,HW_LDT_1,2024.2.4,MacIntel,57.14285714,,,,,,,,,,,,,,,,,,,,,,148.3591,148.5573,148.5573,149.0572,,,,,,,,,,,,,,1.904,1,,,,,,,,,,,,,,z,,,,,,,,,,,,,,,20,0,149.0578,150.9741,z,1,1.904,,[],[],[],[],[],[],[],150.9742,152.9738,152.9739,152.9742,[],[],[],[],[],[],[],,152.9743,152.9744,0.009185426,-0.253153904,0,0,0,,0,19,19,52,1,2,TL,elarobate,cursive,elarobate_c.png,,,,,,
,,,,32192,001,2025-10-16_15h13.05.193,HW_LDT_1,2024.2.4,MacIntel,57.14285714,,,,,,,,,,,,,,,,,,,,,,152.9756,153.1738,153.1739,153.6738,,,,,,,,,,,,,,1.4708,1,,,,,,,,,,,,,,z,,,,,,,,,,,,,,,21,0,153.6743,155.1572,z,1,1.4708,,[],[],[],[],[],[],[],155.1573,157.1571,157.1572,157.1575,[],[],[],[],[],[],[],,157.1575,157.1577,0.009185426,-0.253153904,0,0,0,,0,20,20,42,1,2,TL,bedise,cursive,bedise_c.png,,,,,,
,,,,32192,001,2025-10-16_15h13.05.193,HW_LDT_1,2024.2.4,MacIntel,57.14285714,,,,,,,,,,,,,,,,,,,,,,157.1588,157.3571,157.3571,157.8571,,,,,,,,,,,,,,1.2292,1,,,,,,,,,,,,,,m,,,,,,,,,,,,,,,22,0,157.8577,159.0904,m,1,1.2292,,[],[],[],[],[],[],[],159.0905,161.0904,161.0904,161.0907,[],[],[],[],[],[],[],,161.0907,161.0908,0.009185426,-0.253153904,0,0,0,,0,21,21,135,1,2,word,QUALITY,cursive,quality_c.png,,,,,,
,,,,32192,001,2025-10-16_15h13.05.193,HW_LDT_1,2024.2.4,MacIntel,57.14285714,,,,,,,,,,,,,,,,,,,,,,161.092,161.2904,161.2904,161.7904,,,,,,,,,,,,,,2.2221,1,,,,,,,,,,,,,,m,,,,,,,,,,,,,,,23,1,161.7908,164.0238,m,1,2.2221,,[],[],[],[],[],[],[],164.0239,166.0238,166.0238,168.6569,[],[],[],[],[],[],[],z,168.657,168.6572,0.009185426,-0.253153904,0,0,0,,0,22,22,150,1,2,word,SENTIMENT,cursive,sentiment_c.png,2.624,,,,,
,,,,32192,001,2025-10-16_15h13.05.193,HW_LDT_1,2024.2.4,MacIntel,57.14285714,,,,,,,,,,,,,,,,,,,,,,168.6582,168.8569,168.857,169.3569,,,,,,,,,,,,,,2.3644,1,,,,,,,,,,,,,,z,,,,,,,,,,,,,,,24,0,169.3575,171.7236,z,1,2.3644,,[],[],[],[],[],[],[],171.7237,173.7235,173.7236,173.7238,[],[],[],[],[],[],[],,173.7238,173.7239,0.009185426,-0.253153904,0,0,0,,0,23,23,66,1,2,TL,prodive,cursive,prodive_c.png,,,,,,
,,,,32192,001,2025-10-16_15h13.05.193,HW_LDT_1,2024.2.4,MacIntel,57.14285714,,,,,,,,,,,,,,,,,,,,,,173.725,173.9234,173.9235,174.4235,,,,,,,,,,,,,,1.7466,1,,,,,,,,,,,,,,m,,,,,,,,,,,,,,,25,0,174.4241,176.1733,m,1,1.7466,,[],[],[],[],[],[],[],176.1734,178.1724,178.1725,178.1727,[],[],[],[],[],[],[],,178.1729,178.173,0.009185426,-0.253153904,0,0,0,,0,24,24,134,1,2,word,QUALIFY,cursive,qualify_c.png,,,,,,
,,,,32192,001,2025-10-16_15h13.05.193,HW_LDT_1,2024.2.4,MacIntel,57.14285714,,,,,,,,,,,,,,,,,,,,,,178.1744,178.3734,178.3735,178.8734,,,,,,,,,,,,,,0.8543,1,,,,,,,,,,,,,,z,,,,,,,,,,,,,,,26,0,178.8739,179.7401,z,1,0.8543,,[],[],[],[],[],[],[],179.7403,181.74,181.7401,181.7403,[],[],[],[],[],[],[],,181.7403,181.7405,0.009185426,-0.253153904,0,0,0,,0,25,25,35,1,2,RL,vesofity,print,vesofity_p.png,,,,,,
,,,,32192,001,2025-10-16_15h13.05.193,HW_LDT_1,2024.2.4,MacIntel,57.14285714,,,,,,,,,,,,,,,,,,,,,,181.7417,181.9399,181.9401,182.439,,,,,,,,,,,,,,0.8658,1,,,,,,,,,,,,,,z,,,,,,,,,,,,,,,27,0,182.4395,183.3063,z,1,0.8658,,[],[],[],[],[],[],[],183.3063,185.3064,185.3066,185.3068,[],[],[],[],[],[],[],,185.3068,185.307,0.009185426,-0.253153904,0,0,0,,0,26,26,43,1,2,TL,carema,print,carema_p.png,,,,,,
,,,,32192,001,2025-10-16_15h13.05.193,HW_LDT_1,2024.2.4,MacIntel,57.14285714,,,,,,,,,,,,,,,,,,,,,,185.3082,185.5055,185.5056,186.0066,,,,,,,,,,,,,,1.3875,1,,,,,,,,,,,,,,z,,,,,,,,,,,,,,,28,0,186.0072,187.4057,z,1,1.3875,,[],[],[],[],[],[],[],187.4058,189.4055,189.4056,189.4059,[],[],[],[],[],[],[],,189.4059,189.406,0.009185426,-0.253153904,0,0,0,,0,27,27,67,1,2,TL,quafily,cursive,quafily_c.png,,,,,,
,,,,32192,001,2025-10-16_15h13.05.193,HW_LDT_1,2024.2.4,MacIntel,57.14285714,,,,,,,,,,,,,,,,,,,,,,189.4073,189.6066,189.6067,190.1055,,,,,,,,,,,,,,0.8823,1,,,,,,,,,,,,,,z,,,,,,,,,,,,,,,29,1,190.1061,190.9893,z,1,0.8823,,[],[],[],[],[],[],[],190.9894,192.9898,192.9899,194.2566,[],[],[],[],[],[],[],m,194.2566,194.2568,0.009185426,-0.253153904,0,0,0,,0,28,28,25,1,2,RL,rabigly,print,rabigly_p.png,1.2592,,,,,
,,,,32192,001,2025-10-16_15h13.05.193,HW_LDT_1,2024.2.4,MacIntel,57.14285714,,,,,,,,,,,,,,,,,,,,,,194.2578,194.4564,194.4565,194.9566,,,,,,,,,,,,,,1.4204,1,,,,,,,,,,,,,,m,,,,,,,,,,,,,,,30,0,194.9571,196.3899,m,1,1.4204,,[],[],[],[],[],[],[],196.3899,198.3889,198.389,198.3894,[],[],[],[],[],[],[],,198.3894,198.3895,0.009185426,-0.253153904,0,0,0,,0,29,29,140,1,2,word,RELATIVE,print,relative_p.png,,,,,,
,,,,32192,001,2025-10-16_15h13.05.193,HW_LDT_1,2024.2.4,MacIntel,57.14285714,,,,,,,,,,,,,,,,,,,,,,198.391,198.5886,198.5887,199.0901,,,,,,,,,,,,,,0.747,1,,,,,,,,,,,,,,m,,,,,,,,,,,,,,,31,1,199.0909,199.8388,m,1,0.747,,[],[],[],[],[],[],[],199.8388,201.8387,201.8388,203.3398,[],[],[],[],[],[],[],m,203.3399,203.34,0.009185426,-0.253153904,0,0,0,,0,30,30,149,1,2,word,SENATOR,print,senator_p.png,1.4934,,,,,
,,,,32192,001,2025-10-16_15h13.05.193,HW_LDT_1,2024.2.4,MacIntel,57.14285714,,,,,,,,,,,,,,,,,,,,,,203.3415,203.5396,203.5396,204.0396,,,,,,,,,,,,,,1.3859,1,,,,,,,,,,,,,,z,,,,,,,,,,,,,,,32,1,204.0404,205.4397,z,1,1.3859,,[],[],[],[],[],[],[],205.4398,207.4395,207.4396,208.973,[],[],[],[],[],[],[],m,208.9731,208.9731,0.009185426,-0.253153904,0,0,0,,0,31,31,48,1,2,TL,detabe,print,detabe_p.png,1.5225,,,,,
,,,,32192,001,2025-10-16_15h13.05.193,HW_LDT_1,2024.2.4,MacIntel,57.14285714,,,,,,,,,,,,,,,,,,,,,,208.9741,209.1719,209.172,209.6728,,,,,,,,,,,,,,2.0751,1,,,,,,,,,,,,,,z,,,,,,,,,,,,,,,33,0,209.6735,211.7564,z,1,2.0751,,[],[],[],[],[],[],[],211.7565,213.7561,213.7561,213.7563,[],[],[],[],[],[],[],,213.7563,213.7564,0.009185426,-0.253153904,0,0,0,,0,32,32,78,1,2,TL,stogare,print,stogare_p.png,,,,,,
,,,,32192,001,2025-10-16_15h13.05.193,HW_LDT_1,2024.2.4,MacIntel,57.14285714,,,,,,,,,,,,,,,,,,,,,,213.7575,213.955,213.9551,214.4553,,,,,,,,,,,,,,1.1565,1,,,,,,,,,,,,,,m,,,,,,,,,,,,,,,34,0,214.4558,215.6228,m,1,1.1565,,[],[],[],[],[],[],[],215.6229,217.6229,217.6229,217.623,[],[],[],[],[],[],[],,217.6231,217.6232,0.009185426,-0.253153904,0,0,0,,0,33,33,152,1,2,word,SPECIMEN,print,specimen_p.png,,,,,,
,,,,32192,001,2025-10-16_15h13.05.193,HW_LDT_1,2024.2.4,MacIntel,57.14285714,,,,,,,,,,,,,,,,,,,,,,217.6242,217.8222,217.8223,218.3228,,,,,,,,,,,,,,0.7388,1,,,,,,,,,,,,,,m,,,,,,,,,,,,,,,35,0,218.3232,219.0729,m,1,0.7388,,[],[],[],[],[],[],[],219.073,221.0727,221.0728,221.0729,[],[],[],[],[],[],[],,221.0731,221.0732,0.009185426,-0.253153904,0,0,0,,0,34,34,130,1,2,word,POLICY,print,policy_p.png,,,,,,
,,,,32192,001,2025-10-16_15h13.05.193,HW_LDT_1,2024.2.4,MacIntel,57.14285714,,,,,,,,,,,,,,,,,,,,,,221.0745,221.2716,221.2717,221.7727,,,,,,,,,,,,,,1.604,0,,,,,,,,,,,,,,m,,,,,,,,,,,,,,,36,0,221.7733,223.3883,z,0,1.604,,[],[],[],[],[],[],[],223.3884,225.3892,225.3893,225.3895,[],[],[],[],[],[],[],,225.3895,225.3897,0.009185426,-0.253153904,0,0,0,,0,35,35,103,1,2,word,DISPUTE,cursive,dispute_c.png,,,,,,
,,,,32192,001,2025-10-16_15h13.05.193,HW_LDT_1,2024.2.4,MacIntel,57.14285714,,,,,,,,,,,,,,,,,,,,,,225.3909,225.5893,225.5893,226.0892,,,,,,,,,,,,,,1.0376,1,,,,,,,,,,,,,,m,,,,,,,,,,,,,,,37,0,226.0896,227.1393,m,1,1.0376,,[],[],[],[],[],[],[],227.1394,229.1381,229.1382,229.1385,[],[],[],[],[],[],[],,229.1385,229.1386,0.009185426,-0.253153904,0,0,0,,0,36,36,87,1,2,word,CAFETERIA,print,cafeteria_p.png,,,,,,
,,,,32192,001,2025-10-16_15h13.05.193,HW_LDT_1,2024.2.4,MacIntel,57.14285714,,,,,,,,,,,,,,,,,,,,,,229.1398,229.3391,229.3392,229.8383,,,,,,,,,,,,,,0.9041,0,,,,,,,,,,,,,,z,,,,,,,,,,,,,,,38,0,229.8388,230.7549,m,0,0.9041,,[],[],[],[],[],[],[],230.7551,232.7558,232.7559,232.7561,[],[],[],[],[],[],[],,232.7562,232.7562,0.009185426,-0.253153904,0,0,0,,0,37,37,77,1,2,TL,sloten,print,sloten_p.png,,,,,,
,,,,32192,001,2025-10-16_15h13.05.193,HW_LDT_1,2024.2.4,MacIntel,57.14285714,,,,,,,,,,,,,,,,,,,,,,232.7575,232.9549,232.9549,233.4547,,,,,,,,,,,,,,1.054,1,,,,,,,,,,,,,,m,,,,,,,,,,,,,,,39,1,233.4553,234.5226,m,1,1.054,,[],[],[],[],[],[],[],234.5227,236.5223,236.5224,237.7381,[],[],[],[],[],[],[],m,237.7382,237.7382,0.009185426,-0.253153904,0,0,0,,0,38,38,88,1,2,word,CAMERA,print,camera_p.png,1.2098,,,,,
,,,,32192,001,2025-10-16_15h13.05.193,HW_LDT_1,2024.2.4,MacIntel,57.14285714,,,,,,,,,,,,,,,,,,,,,,237.7395,237.9391,237.9391,238.4389,,,,,,,,,,,,,,1.9375,1,,,,,,,,,,,,,,m,,,,,,,,,,,,,,,40,0,238.4396,240.3883,m,1,1.9375,,[],[],[],[],[],[],[],240.3884,242.3889,242.389,242.3892,[],[],[],[],[],[],[],,242.3893,242.3894,0.009185426,-0.253153904,0,0,0,,0,39,39,131,1,2,word,POPULAR,cursive,popular_c.png,,,,,,
,,,,32192,001,2025-10-16_15h13.05.193,HW_LDT_1,2024.2.4,MacIntel,57.14285714,,,,,,,,,,,,,,,,,,,,,,242.3907,242.5879,242.5879,243.0889,,,,,,,,,,,,,,0.9864,1,,,,,,,,,,,,,,z,,,,,,,,,,,,,,,41,0,243.0894,244.089,z,1,0.9864,,[],[],[],[],[],[],[],244.0891,246.0887,246.0888,246.089,[],[],[],[],[],[],[],,246.089,246.0891,0.009185426,-0.253153904,0,0,0,,0,40,40,63,1,2,TL,orinigal,print,orinigal_p.png,,,,,,
,,,,32192,001,2025-10-16_15h13.05.193,HW_LDT_1,2024.2.4,MacIntel,57.14285714,,,,,,,,,,,,,,,,,,,,,,246.0899,246.288,246.288,246.7878,,,,,,,,,,,,,,0.8873,1,,,,,,,,,,,,,,z,,,,,,,,,,,,,,,42,0,246.7884,247.6891,z,1,0.8873,,[],[],[],[],[],[],[],247.6892,249.6889,249.6889,249.6892,[],[],[],[],[],[],[],,249.6892,249.6894,0.009185426,-0.253153904,0,0,0,,0,41,41,41,1,2,TL,befenit,cursive,befenit_c.png,,,,,,
,,,,32192,001,2025-10-16_15h13.05.193,HW_LDT_1,2024.2.4,MacIntel,57.14285714,,,,,,,,,,,,,,,,,,,,,,249.6905,249.8888,249.8889,250.3879,,,,,,,,,,,,,,1.4546,1,,,,,,,,,,,,,,m,,,,,,,,,,,,,,,43,0,250.3885,251.8555,m,1,1.4546,,[],[],[],[],[],[],[],251.8556,253.8545,253.8546,253.8548,[],[],[],[],[],[],[],,253.8548,253.8548,0.009185426,-0.253153904,0,0,0,,0,42,42,104,1,2,word,DOMINANT,print,dominant_p.png,,,,,,
,,,,32192,001,2025-10-16_15h13.05.193,HW_LDT_1,2024.2.4,MacIntel,57.14285714,,,,,,,,,,,,,,,,,,,,,,253.856,254.0543,254.0544,254.5545,,,,,,,,,,,,,,1.555,1,,,,,,,,,,,,,,z,,,,,,,,,,,,,,,44,0,254.5551,256.1221,z,1,1.555,,[],[],[],[],[],[],[],256.1222,258.122,258.122,258.1223,[],[],[],[],[],[],[],,258.1223,258.1224,0.009185426,-0.253153904,0,0,0,,0,43,43,51,1,2,TL,etidor,cursive,etidor_c.png,,,,,,
,,,,32192,001,2025-10-16_15h13.05.193,HW_LDT_1,2024.2.4,MacIntel,57.14285714,,,,,,,,,,,,,,,,,,,,,,258.1236,258.321,258.321,258.822,,,,,,,,,,,,,,2.4322,1,,,,,,,,,,,,,,m,,,,,,,,,,,,,,,45,0,258.8226,261.2555,m,1,2.4322,,[],[],[],[],[],[],[],261.2556,263.2552,263.2553,263.2556,[],[],[],[],[],[],[],,263.2557,263.2558,0.009185426,-0.253153904,0,0,0,,0,44,44,145,1,2,word,RESUME,cursive,resume_c.png,,,,,,
,,,,32192,001,2025-10-16_15h13.05.193,HW_LDT_1,2024.2.4,MacIntel,57.14285714,,,,,,,,,,,,,,,,,,,,,,263.2569,263.4542,263.4543,263.9553,,,,,,,,,,,,,,0.9712,1,,,,,,,,,,,,,,z,,,,,,,,,,,,,,,46,0,263.9558,264.9377,z,1,0.9712,,[],[],[],[],[],[],[],264.9378,266.9385,266.9386,266.9387,[],[],[],[],[],[],[],,266.9389,266.939,0.009185426,-0.253153904,0,0,0,,0,45,45,9,1,2,RL,denficy,print,denficy_p.png,,,,,,
,,,,32192,001,2025-10-16_15h13.05.193,HW_LDT_1,2024.2.4,MacIntel,57.14285714,,,,,,,,,,,,,,,,,,,,,,266.9402,267.1385,267.1385,267.6375,,,,,,,,,,,,,,3.5901,1,,,,,,,,,,,,,,m,,,,,,,,,,,,,,,47,0,267.6381,271.2376,m,1,3.5901,,[],[],[],[],[],[],[],271.2376,273.2374,273.2375,273.2377,[],[],[],[],[],[],[],,273.2377,273.2379,0.009185426,-0.253153904,0,0,0,,0,46,46,116,1,2,word,MARGINAL,cursive,marginal_c.png,,,,,,
,,,,32192,001,2025-10-16_15h13.05.193,HW_LDT_1,2024.2.4,MacIntel,57.14285714,,,,,,,,,,,,,,,,,,,,,,273.2392,273.4374,273.4375,273.9383,,,,,,,,,,,,,,0.996,1,,,,,,,,,,,,,,m,,,,,,,,,,,,,,,48,0,273.9389,274.9382,m,1,0.996,,[],[],[],[],[],[],[],274.9383,276.9384,276.9385,276.9386,[],[],[],[],[],[],[],,276.9387,276.9387,0.009185426,-0.253153904,0,0,0,,0,47,47,82,1,2,word,AMATEUR,cursive,amateur_c.png,,,,,,
,,,,32192,001,2025-10-16_15h13.05.193,HW_LDT_1,2024.2.4,MacIntel,57.14285714,,,,,,,,,,,,,,,,,,,,,,276.94,277.1383,277.1385,277.6383,,,,,,,,,,,,,,1.2587,1,,,,,,,,,,,,,,m,,,,,,,,,,,,,,,49,0,277.6389,278.904,m,1,1.2587,,[],[],[],[],[],[],[],278.9041,280.9047,280.9047,280.9049,[],[],[],[],[],[],[],,280.905,280.9051,0.009185426,-0.253153904,0,0,0,,0,48,48,101,1,2,word,DELICATE,print,delicate_p.png,,,,,,
,,,,32192,001,2025-10-16_15h13.05.193,HW_LDT_1,2024.2.4,MacIntel,57.14285714,,,,,,,,,,,,,,,,,,,,,,280.9056,281.1048,281.1049,281.6049,,,,,,,,,,,,,,0.657,1,,,,,,,,,,,,,,m,,,,,,,,,,,,,,,50,1,281.6055,282.2716,m,1,0.657,,[],[],[],[],[],[],[],282.2717,284.2715,284.2716,284.9873,[],[],[],[],[],[],[],m,284.9874,284.9876,0.009185426,-0.253153904,0,0,0,,0,49,49,122,1,2,word,MOBILE,print,mobile_p.png,0.704,,,,,
,,,,32192,001,2025-10-16_15h13.05.193,HW_LDT_1,2024.2.4,MacIntel,57.14285714,,,,,,,,,,,,,,,,,,,,,,284.9888,285.1881,285.1882,285.6882,,,,,,,,,,,,,,1.389,1,,,,,,,,,,,,,,m,,,,,,,,,,,,,,,51,0,285.6888,287.0871,m,1,1.389,,[],[],[],[],[],[],[],287.0872,289.0871,289.0872,289.0874,[],[],[],[],[],[],[],,289.0875,289.0876,0.009185426,-0.253153904,0,0,0,,0,50,50,153,1,2,word,STOLEN,print,stolen_p.png,,,,,,
,,,,32192,001,2025-10-16_15h13.05.193,HW_LDT_1,2024.2.4,MacIntel,57.14285714,,,,,,,,,,,,,,,,,,,,,,289.0888,289.288,289.2882,289.7882,,,,,,,,,,,,,,1.0373,0,,,,,,,,,,,,,,m,,,,,,,,,,,,,,,52,0,289.7887,290.8382,z,0,1.0373,,[],[],[],[],[],[],[],290.8383,292.838,292.838,292.8383,[],[],[],[],[],[],[],,292.8383,292.8385,0.009185426,-0.253153904,0,0,0,,0,51,51,148,1,2,word,SALINE,cursive,saline_c.png,,,,,,
,,,,32192,001,2025-10-16_15h13.05.193,HW_LDT_1,2024.2.4,MacIntel,57.14285714,,,,,,,,,,,,,,,,,,,,,,292.8397,293.038,293.0381,293.538,,,,,,,,,,,,,,0.7029,1,,,,,,,,,,,,,,m,,,,,,,,,,,,,,,53,0,293.5385,294.2547,m,1,0.7029,,[],[],[],[],[],[],[],294.2549,296.2537,296.2537,296.2539,[],[],[],[],[],[],[],,296.254,296.2541,0.009185426,-0.253153904,0,0,0,,0,52,52,114,1,2,word,LOCATE,print,locate_p.png,,,,,,
,,,,32192,001,2025-10-16_15h13.05.193,HW_LDT_1,2024.2.4,MacIntel,57.14285714,,,,,,,,,,,,,,,,,,,,,,296.2553,296.4547,296.4547,296.9546,,,,,,,,,,,,,,0.8422,1,,,,,,,,,,,,,,z,,,,,,,,,,,,,,,54,0,296.9552,297.8046,z,1,0.8422,,[],[],[],[],[],[],[],297.8048,299.8036,299.8036,299.8039,[],[],[],[],[],[],[],,299.804,299.8041,0.009185426,-0.253153904,0,0,0,,0,53,53,55,1,2,TL,lotace,print,lotace_p.png,,,,,,
,,,,32192,001,2025-10-16_15h13.05.193,HW_LDT_1,2024.2.4,MacIntel,57.14285714,,,,,,,,,,,,,,,,,,,,,,299.8053,300.0036,300.0038,300.5036,,,,,,,,,,,,,,1.7909,1,,,,,,,,,,,,,,z,,,,,,,,,,,,,,,55,0,300.5042,302.3046,z,1,1.7909,,[],[],[],[],[],[],[],302.3046,304.3045,304.3045,304.3047,[],[],[],[],[],[],[],,304.3048,304.3049,0.009185426,-0.253153904,0,0,0,,0,54,54,56,1,2,TL,marnigal,cursive,marnigal_c.png,,,,,,
,,,,32192,001,2025-10-16_15h13.05.193,HW_LDT_1,2024.2.4,MacIntel,57.14285714,,,,,,,,,,,,,,,,,,,,,,304.3063,304.5044,304.5045,305.0035,,,,,,,,,,,,,,0.6833,1,,,,,,,,,,,,,,m,,,,,,,,,,,,,,,56,0,305.0041,305.6883,m,1,0.6833,,[],[],[],[],[],[],[],305.6884,307.6868,307.6869,307.6871,[],[],[],[],[],[],[],,307.6872,307.6873,0.009185426,-0.253153904,0,0,0,,0,55,55,129,1,2,word,PARENT,print,parent_p.png,,,,,,
,,,,32192,001,2025-10-16_15h13.05.193,HW_LDT_1,2024.2.4,MacIntel,57.14285714,,,,,,,,,,,,,,,,,,,,,,307.6886,307.8878,307.8879,308.3878,,,,,,,,,,,,,,1.3368,1,,,,,,,,,,,,,,z,,,,,,,,,,,,,,,57,0,308.3884,309.7368,z,1,1.3368,,[],[],[],[],[],[],[],309.7371,311.7377,311.7377,311.738,[],[],[],[],[],[],[],,311.738,311.7381,0.009185426,-0.253153904,0,0,0,,0,56,56,62,1,2,TL,opmital,cursive,opmital_c.png,,,,,,
,,,,32192,001,2025-10-16_15h13.05.193,HW_LDT_1,2024.2.4,MacIntel,57.14285714,,,,,,,,,,,,,,,,,,,,,,311.7393,311.9368,311.9368,312.4377,,,,,,,,,,,,,,2.3863,0,,,,,,,,,,,,,,m,,,,,,,,,,,,,,,58,0,312.4382,314.8378,z,0,2.3863,,[],[],[],[],[],[],[],314.8379,316.8377,316.8377,316.838,[],[],[],[],[],[],[],,316.838,316.8381,0.009185426,-0.253153904,0,0,0,,0,57,57,123,1,2,word,MODERATE,cursive,moderate_c.png,,,,,,
,,,,32192,001,2025-10-16_15h13.05.193,HW_LDT_1,2024.2.4,MacIntel,57.14285714,,,,,,,,,,,,,,,,,,,,,,316.8393,317.0369,317.0369,317.5375,,,,,,,,,,,,,,0.9362,1,,,,,,,,,,,,,,z,,,,,,,,,,,,,,,59,0,317.5382,318.4877,z,1,0.9362,,[],[],[],[],[],[],[],318.4878,320.4875,320.4876,320.4878,[],[],[],[],[],[],[],,320.4878,320.4879,0.009185426,-0.253153904,0,0,0,,0,58,58,30,1,2,RL,selamor,print,selamor_p.png,,,,,,
,,,,32192,001,2025-10-16_15h13.05.193,HW_LDT_1,2024.2.4,MacIntel,57.14285714,,,,,,,,,,,,,,,,,,,,,,320.4891,320.6866,320.6866,321.1875,,,,,,,,,,,,,,2.0864,1,,,,,,,,,,,,,,m,,,,,,,,,,,,,,,60,0,321.1881,323.2875,m,1,2.0864,,[],[],[],[],[],[],[],323.2877,325.2874,325.2875,325.2877,[],[],[],[],[],[],[],,325.2877,325.2879,0.009185426,-0.253153904,0,0,0,,0,59,59,132,1,2,word,PROPOSAL,cursive,proposal_c.png,,,,,,
,,,,32192,001,2025-10-16_15h13.05.193,HW_LDT_1,2024.2.4,MacIntel,57.14285714,,,,,,,,,,,,,,,,,,,,,,325.289,325.4876,325.4877,325.9874,,,,,,,,,,,,,,3.3655,1,,,,,,,,,,,,,,m,,,,,,,,,,,,,,,61,0,325.988,329.3545,m,1,3.3655,,[],[],[],[],[],[],[],329.3545,331.353,331.3531,331.3534,[],[],[],[],[],[],[],,331.3534,331.3535,0.009185426,-0.253153904,0,0,0,,0,60,60,146,1,2,word,RETIRE,cursive,retire_c.png,,,,,,
,,,,32192,001,2025-10-16_15h13.05.193,HW_LDT_1,2024.2.4,MacIntel,57.14285714,,,,,,,,,,,,,,,,,,,,,,331.3548,331.554,331.554,332.0541,,,,,,,,,,,,,,1.2043,1,,,,,,,,,,,,,,z,,,,,,,,,,,,,,,62,0,332.0546,333.2707,z,1,1.2043,,[],[],[],[],[],[],[],333.2709,335.2707,335.2708,335.271,[],[],[],[],[],[],[],,335.271,335.2711,0.009185426,-0.253153904,0,0,0,,0,61,61,71,1,2,TL,retome,cursive,retome_c.png,,,,,,
,,,,32192,001,2025-10-16_15h13.05.193,HW_LDT_1,2024.2.4,MacIntel,57.14285714,,,,,,,,,,,,,,,,,,,,,,335.2722,335.4706,335.4706,335.9707,,,,,,,,,,,,,,1.7756,0,,,,,,,,,,,,,,m,,,,,,,,,,,,,,,63,0,335.9713,337.7529,z,0,1.7756,,[],[],[],[],[],[],[],337.753,339.7538,339.754,339.7542,[],[],[],[],[],[],[],,339.7543,339.7544,0.009185426,-0.253153904,0,0,0,,0,62,62,93,1,2,word,CEREMONY,print,ceremony_p.png,,,,,,
,,,,32192,001,2025-10-16_15h13.05.193,HW_LDT_1,2024.2.4,MacIntel,57.14285714,,,,,,,,,,,,,,,,,,,,,,339.7556,339.9538,339.9539,340.4539,,,,,,,,,,,,,,3.3879,1,,,,,,,,,,,,,,z,,,,,,,,,,,,,,,64,0,340.4544,343.8538,z,1,3.3879,,[],[],[],[],[],[],[],343.8539,345.853,345.853,345.8531,[],[],[],[],[],[],[],,345.8532,345.8533,0.009185426,-0.253153904,0,0,0,,0,63,63,74,1,2,TL,rerite,cursive,rerite_c.png,,,,,,
,,,,32192,001,2025-10-16_15h13.05.193,HW_LDT_1,2024.2.4,MacIntel,57.14285714,,,,,,,,,,,,,,,,,,,,,,345.8542,346.0535,346.0535,346.5527,,,,,,,,,,,,,,1.9413,1,,,,,,,,,,,,,,z,,,,,,,,,,,,,,,65,0,346.5534,348.5038,z,1,1.9413,,[],[],[],[],[],[],[],348.5039,350.5027,350.5027,350.503,[],[],[],[],[],[],[],,350.5031,350.5031,0.009185426,-0.253153904,0,0,0,,0,64,64,8,1,2,RL,desifate,print,desifate_p.png,,,,,,
,,,,32192,001,2025-10-16_15h13.05.193,HW_LDT_1,2024.2.4,MacIntel,57.14285714,,,,,,,,,,,,,,,,,,,,,,350.5045,350.7028,350.7028,351.2038,,,,,,,,,,,,,,1.5972,1,,,,,,,,,,,,,,z,,,,,,,,,,,,,,,66,0,351.2043,352.8036,z,1,1.5972,,[],[],[],[],[],[],[],352.8037,354.8026,354.8026,354.8029,[],[],[],[],[],[],[],,354.8029,354.803,0.009185426,-0.253153904,0,0,0,,0,65,65,12,1,2,RL,gralekul,cursive,gralekul_c.png,,,,,,
,,,,32192,001,2025-10-16_15h13.05.193,HW_LDT_1,2024.2.4,MacIntel,57.14285714,,,,,,,,,,,,,,,,,,,,,,354.8042,355.0036,355.0036,355.5036,,,,,,,,,,,,,,1.1374,1,,,,,,,,,,,,,,m,,,,,,,,,,,,,,,67,0,355.5042,356.6536,m,1,1.1374,,[],[],[],[],[],[],[],356.6538,358.6526,358.6526,358.6528,[],[],[],[],[],[],[],,358.6529,358.653,0.009185426,-0.253153904,0,0,0,,0,66,66,119,1,2,word,MEMORY,cursive,memory_c.png,,,,,,
,,,,32192,001,2025-10-16_15h13.05.193,HW_LDT_1,2024.2.4,MacIntel,57.14285714,,,,,,,,,,,,,,,,,,,,,,358.6541,358.8535,358.8536,359.3535,,,,,,,,,,,,,,3.1041,1,,,,,,,,,,,,,,z,,,,,,,,,,,,,,,68,0,359.354,362.4702,z,1,3.1041,,[],[],[],[],[],[],[],362.4703,364.4701,364.4702,364.4703,[],[],[],[],[],[],[],,364.4704,364.4705,0.009185426,-0.253153904,0,0,0,,0,67,67,54,1,2,TL,liretal,cursive,liretal_c.png,,,,,,
,,,,32192,001,2025-10-16_15h13.05.193,HW_LDT_1,2024.2.4,MacIntel,57.14285714,,,,,,,,,,,,,,,,,,,,,,364.4718,364.6691,364.6692,365.1692,,,,,,,,,,,,,,2.9713,1,,,,,,,,,,,,,,z,,,,,,,,,,,,,,,69,0,365.1697,368.1535,z,1,2.9713,,[],[],[],[],[],[],[],368.1536,370.1524,370.1524,370.1528,[],[],[],[],[],[],[],,370.1528,370.1529,0.009185426,-0.253153904,0,0,0,,0,68,68,28,1,2,RL,revune,cursive,revune_c.png,,,,,,
,,,,32192,001,2025-10-16_15h13.05.193,HW_LDT_1,2024.2.4,MacIntel,57.14285714,,,,,,,,,,,,,,,,,,,,,,370.1541,370.3524,370.3524,370.8523,,,,,,,,,,,,,,0.9822,1,,,,,,,,,,,,,,z,,,,,,,,,,,,,,,70,0,370.8529,371.8366,z,1,0.9822,,[],[],[],[],[],[],[],371.8368,373.8366,373.8366,373.8368,[],[],[],[],[],[],[],,373.8369,373.8371,0.009185426,-0.253153904,0,0,0,,0,69,69,60,1,2,TL,molibe,print,molibe_p.png,,,,,,
,,,,32192,001,2025-10-16_15h13.05.193,HW_LDT_1,2024.2.4,MacIntel,57.14285714,,,,,,,,,,,,,,,,,,,,,,373.8382,374.0365,374.0367,374.5366,,,,,,,,,,,,,,1.0567,1,,,,,,,,,,,,,,m,,,,,,,,,,,,,,,71,0,374.5372,375.6033,m,1,1.0567,,[],[],[],[],[],[],[],375.6033,377.6032,377.6033,377.6034,[],[],[],[],[],[],[],,377.6035,377.6036,0.009185426,-0.253153904,0,0,0,,0,70,70,137,1,2,word,RAPIDLY,print,rapidly_p.png,,,,,,
,,,,32192,001,2025-10-16_15h13.05.193,HW_LDT_1,2024.2.4,MacIntel,57.14285714,,,,,,,,,,,,,,,,,,,,,,377.6047,377.8032,377.8032,378.3032,,,,,,,,,,,,,,1.5862,1,,,,,,,,,,,,,,m,,,,,,,,,,,,,,,72,0,378.3037,379.9032,m,1,1.5862,,[],[],[],[],[],[],[],379.9033,381.9032,381.9033,381.9034,[],[],[],[],[],[],[],,381.9035,381.9036,0.009185426,-0.253153904,0,0,0,,0,71,71,91,1,2,word,CARDINAL,cursive,cardinal_c.png,,,,,,
,,,,32192,001,2025-10-16_15h13.05.193,HW_LDT_1,2024.2.4,MacIntel,57.14285714,,,,,,,,,,,,,,,,,,,,,,381.9047,382.1031,382.1032,382.6021,,,,,,,,,,,,,,1.7927,1,,,,,,,,,,,,,,z,,,,,,,,,,,,,,,73,1,382.6027,384.4022,z,1,1.7927,,[],[],[],[],[],[],[],384.4022,386.4031,386.4031,387.7863,[],[],[],[],[],[],[],z,387.7863,387.7865,0.009185426,-0.253153904,0,0,0,,0,72,72,7,1,2,RL,cocewage,cursive,cocewage_c.png,1.3759,,,,,
,,,,32192,001,2025-10-16_15h13.05.193,HW_LDT_1,2024.2.4,MacIntel,57.14285714,,,,,,,,,,,,,,,,,,,,,,387.7875,387.9863,387.9863,388.4864,,,,,,,,,,,,,,0.9568,1,,,,,,,,,,,,,,z,,,,,,,,,,,,,,,74,0,388.4869,389.453,z,1,0.9568,,[],[],[],[],[],[],[],389.4531,391.453,391.4531,391.4532,[],[],[],[],[],[],[],,391.4532,391.4534,0.009185426,-0.253153904,0,0,0,,0,73,73,39,1,2,TL,aminal,print,aminal_p.png,,,,,,
,,,,32192,001,2025-10-16_15h13.05.193,HW_LDT_1,2024.2.4,MacIntel,57.14285714,,,,,,,,,,,,,,,,,,,,,,391.4546,391.652,391.652,392.1529,,,,,,,,,,,,,,0.8385,1,,,,,,,,,,,,,,z,,,,,,,,,,,,,,,75,0,392.1535,393.003,z,1,0.8385,,[],[],[],[],[],[],[],393.0032,395.0028,395.0029,395.0031,[],[],[],[],[],[],[],,395.0031,395.0033,0.009185426,-0.253153904,0,0,0,,0,74,74,15,1,2,RL,linedal,print,linedal_p.png,,,,,,
,,,,32192,001,2025-10-16_15h13.05.193,HW_LDT_1,2024.2.4,MacIntel,57.14285714,,,,,,,,,,,,,,,,,,,,,,395.0045,395.2026,395.2026,395.7028,,,,,,,,,,,,,,0.9123,1,,,,,,,,,,,,,,m,,,,,,,,,,,,,,,76,0,395.7035,396.6196,m,1,0.9123,,[],[],[],[],[],[],[],396.6196,398.6195,398.6196,398.6198,[],[],[],[],[],[],[],,398.6198,398.6199,0.009185426,-0.253153904,0,0,0,,0,75,75,112,1,2,word,LIBERAL,print,liberal_p.png,,,,,,
,,,,32192,001,2025-10-16_15h13.05.193,HW_LDT_1,2024.2.4,MacIntel,57.14285714,,,,,,,,,,,,,,,,,,,,,,398.6212,398.8186,398.8187,399.3195,,,,,,,,,,,,,,0.9585,0,,,,,,,,,,,,,,m,,,,,,,,,,,,,,,77,0,399.3202,400.2858,z,0,0.9585,,[],[],[],[],[],[],[],400.286,402.2862,402.2862,402.2863,[],[],[],[],[],[],[],,402.2864,402.2866,0.009185426,-0.253153904,0,0,0,,0,76,76,121,1,2,word,MISTAKE,cursive,mistake_c.png,,,,,,
,,,,32192,001,2025-10-16_15h13.05.193,HW_LDT_1,2024.2.4,MacIntel,57.14285714,,,,,,,,,,,,,,,,,,,,,,402.2879,402.486,402.4861,402.9861,,,,,,,,,,,,,,2.871,1,,,,,,,,,,,,,,m,,,,,,,,,,,,,,,78,0,402.9866,405.8695,m,1,2.871,,[],[],[],[],[],[],[],405.8695,407.8693,407.8694,407.8696,[],[],[],[],[],[],[],,407.8697,407.8698,0.009185426,-0.253153904,0,0,0,,0,77,77,156,1,2,word,TRIBUTE,cursive,tribute_c.png,,,,,,
,,,,32192,001,2025-10-16_15h13.05.193,HW_LDT_1,2024.2.4,MacIntel,57.14285714,,,,,,,,,,,,,,,,,,,,,,407.8711,408.0694,408.0694,408.5694,,,,,,,,,,,,,,0.8206,1,,,,,,,,,,,,,,z,,,,,,,,,,,,,,,79,0,408.57,409.4027,z,1,0.8206,,[],[],[],[],[],[],[],409.4027,411.4026,411.4026,411.4028,[],[],[],[],[],[],[],,411.4029,411.403,0.009185426,-0.253153904,0,0,0,,0,78,78,36,1,2,RL,vecelan,print,vecelan_p.png,,,,,,
,,,,32192,001,2025-10-16_15h13.05.193,HW_LDT_1,2024.2.4,MacIntel,57.14285714,,,,,,,,,,,,,,,,,,,,,,411.4042,411.6026,411.6027,412.1026,,,,,,,,,,,,,,2.3791,1,,,,,,,,,,,,,,z,,,,,,,,,,,,,,,80,0,412.1032,414.4859,z,1,2.3791,,[],[],[],[],[],[],[],414.486,416.4859,416.486,416.4863,[],[],[],[],[],[],[],,416.4863,439.3019,0.009185426,-0.253153904,0,0,0,space,0,79,79,5,1,2,RL,clisimal,cursive,clisimal_c.png,,,22.7924,,,
,,,,32192,001,2025-10-16_15h13.05.193,HW_LDT_1,2024.2.4,MacIntel,57.14285714,,,,,,,,,,,,,,,,,,,,,,439.3031,439.5021,439.5022,440.0011,,,,,,,,,,,,,,3.2402,0,,,,,,,,,,,,,,m,,,,,,,,,,,,,,,81,0,440.0017,443.2522,z,0,3.2402,,[],[],[],[],[],[],[],443.2523,445.2511,445.2512,445.2514,[],[],[],[],[],[],[],,445.2515,445.2516,0.009185426,-0.253153904,0,0,0,,0,80,80,138,1,2,word,REFUSAL,cursive,refusal_c.png,,,,,,
,,,,32192,001,2025-10-16_15h13.05.193,HW_LDT_1,2024.2.4,MacIntel,57.14285714,,,,,,,,,,,,,,,,,,,,,,445.2527,445.4521,445.4521,445.952,,,,,,,,,,,,,,1.3875,1,,,,,,,,,,,,,,z,,,,,,,,,,,,,,,82,1,445.9525,447.3521,z,1,1.3875,,[],[],[],[],[],[],[],447.3521,449.3519,449.3519,450.9686,[],[],[],[],[],[],[],z,450.9687,450.9689,0.009185426,-0.253153904,0,0,0,,0,81,81,70,1,2,TL,retalive,print,retalive_p.png,1.6041,,,,,
,,,,32192,001,2025-10-16_15h13.05.193,HW_LDT_1,2024.2.4,MacIntel,57.14285714,,,,,,,,,,,,,,,,,,,,,,450.9701,451.1685,451.1685,451.6676,,,,,,,,,,,,,,2.0208,1,,,,,,,,,,,,,,z,,,,,,,,,,,,,,,83,0,451.6681,453.7022,z,1,2.0208,,[],[],[],[],[],[],[],453.7023,455.7018,455.7018,455.702,[],[],[],[],[],[],[],,455.7021,455.7022,0.009185426,-0.253153904,0,0,0,,0,82,82,44,1,2,TL,catipal,cursive,catipal_c.png,,,,,,
,,,,32192,001,2025-10-16_15h13.05.193,HW_LDT_1,2024.2.4,MacIntel,57.14285714,,,,,,,,,,,,,,,,,,,,,,455.7034,455.9009,455.9009,456.4008,,,,,,,,,,,,,,0.854,1,,,,,,,,,,,,,,m,,,,,,,,,,,,,,,84,1,456.4015,457.2685,m,1,0.854,,[],[],[],[],[],[],[],457.2686,459.2684,459.2685,460.0842,[],[],[],[],[],[],[],m,460.0843,460.0843,0.009185426,-0.253153904,0,0,0,,0,83,83,127,1,2,word,ORIGINAL,print,original_p.png,0.8041,,,,,
,,,,32192,001,2025-10-16_15h13.05.193,HW_LDT_1,2024.2.4,MacIntel,57.14285714,,,,,,,,,,,,,,,,,,,,,,460.0855,460.285,460.2851,460.785,,,,,,,,,,,,,,2.3213,1,,,,,,,,,,,,,,z,,,,,,,,,,,,,,,85,0,460.7856,463.1183,z,1,2.3213,,[],[],[],[],[],[],[],463.1183,465.1183,465.1183,465.1186,[],[],[],[],[],[],[],,465.1186,465.1188,0.009185426,-0.253153904,0,0,0,,0,84,84,46,1,2,TL,codemy,cursive,codemy_c.png,,,,,,
,,,,32192,001,2025-10-16_15h13.05.193,HW_LDT_1,2024.2.4,MacIntel,57.14285714,,,,,,,,,,,,,,,,,,,,,,465.12,465.3184,465.3185,465.8182,,,,,,,,,,,,,,0.8034,1,,,,,,,,,,,,,,z,,,,,,,,,,,,,,,86,0,465.8188,466.6349,z,1,0.8034,,[],[],[],[],[],[],[],466.635,468.6342,468.6343,468.6345,[],[],[],[],[],[],[],,468.6346,468.6347,0.009185426,-0.253153904,0,0,0,,0,85,85,0,1,2,RL,adnicory,print,adnicory_p.png,,,,,,
,,,,32192,001,2025-10-16_15h13.05.193,HW_LDT_1,2024.2.4,MacIntel,57.14285714,,,,,,,,,,,,,,,,,,,,,,468.6359,468.834,468.834,469.3339,,,,,,,,,,,,,,1.9727,1,,,,,,,,,,,,,,m,,,,,,,,,,,,,,,87,1,469.3346,471.3183,m,1,1.9727,,[],[],[],[],[],[],[],471.3184,473.3182,473.3182,474.4848,[],[],[],[],[],[],[],m,474.4848,474.4849,0.009185426,-0.253153904,0,0,0,,0,86,86,96,1,2,word,CONSIDER,print,consider_p.png,1.1575,,,,,
,,,,32192,001,2025-10-16_15h13.05.193,HW_LDT_1,2024.2.4,MacIntel,57.14285714,,,,,,,,,,,,,,,,,,,,,,474.486,474.6847,474.6848,475.1848,,,,,,,,,,,,,,1.7231,1,,,,,,,,,,,,,,z,,,,,,,,,,,,,,,88,0,475.1853,476.9181,z,1,1.7231,,[],[],[],[],[],[],[],476.9182,478.918,478.9181,478.9183,[],[],[],[],[],[],[],,478.9183,478.9184,0.009185426,-0.253153904,0,0,0,,0,87,87,6,1,2,RL,conbicer,print,conbicer_p.png,,,,,,
,,,,32192,001,2025-10-16_15h13.05.193,HW_LDT_1,2024.2.4,MacIntel,57.14285714,,,,,,,,,,,,,,,,,,,,,,478.9196,479.118,479.1181,479.6171,,,,,,,,,,,,,,1.2885,1,,,,,,,,,,,,,,m,,,,,,,,,,,,,,,89,0,479.6177,480.918,m,1,1.2885,,[],[],[],[],[],[],[],480.9182,482.9179,482.918,482.9182,[],[],[],[],[],[],[],,482.9183,482.9184,0.009185426,-0.253153904,0,0,0,,0,88,88,136,1,2,word,RADICAL,cursive,radical_c.png,,,,,,
,,,,32192,001,2025-10-16_15h13.05.193,HW_LDT_1,2024.2.4,MacIntel,57.14285714,,,,,,,,,,,,,,,,,,,,,,482.9196,483.1179,483.118,483.618,,,,,,,,,,,,,,2.6707,1,,,,,,,,,,,,,,m,,,,,,,,,,,,,,,90,0,483.6186,486.3014,m,1,2.6707,,[],[],[],[],[],[],[],486.3015,488.3011,488.3012,488.3015,[],[],[],[],[],[],[],,488.3015,488.3016,0.009185426,-0.253153904,0,0,0,,0,89,89,86,1,2,word,BESIDE,cursive,beside_c.png,,,,,,
,,,,32192,001,2025-10-16_15h13.05.193,HW_LDT_1,2024.2.4,MacIntel,57.14285714,,,,,,,,,,,,,,,,,,,,,,488.3028,488.5012,488.5013,489.0003,,,,,,,,,,,,,,1.0374,1,,,,,,,,,,,,,,z,,,,,,,,,,,,,,,91,0,489.0009,490.0503,z,1,1.0374,,[],[],[],[],[],[],[],490.0505,492.0511,492.0512,492.0514,[],[],[],[],[],[],[],,492.0514,492.0515,0.009185426,-0.253153904,0,0,0,,0,90,90,33,1,2,RL,strapely,cursive,strapely_c.png,,,,,,
,,,,32192,001,2025-10-16_15h13.05.193,HW_LDT_1,2024.2.4,MacIntel,57.14285714,,,,,,,,,,,,,,,,,,,,,,492.0527,492.2511,492.2511,492.7511,,,,,,,,,,,,,,2.5208,1,,,,,,,,,,,,,,z,,,,,,,,,,,,,,,92,0,492.7516,495.2844,z,1,2.5208,,[],[],[],[],[],[],[],495.2846,497.2844,497.2845,497.2846,[],[],[],[],[],[],[],,497.2847,497.2848,0.009185426,-0.253153904,0,0,0,,0,91,91,19,1,2,RL,monebate,cursive,monebate_c.png,,,,,,
,,,,32192,001,2025-10-16_15h13.05.193,HW_LDT_1,2024.2.4,MacIntel,57.14285714,,,,,,,,,,,,,,,,,,,,,,497.2859,497.4835,497.4836,497.9843,,,,,,,,,,,,,,1.6041,1,,,,,,,,,,,,,,m,,,,,,,,,,,,,,,93,0,497.9849,499.601,m,1,1.6041,,[],[],[],[],[],[],[],499.6012,501.601,501.601,501.6013,[],[],[],[],[],[],[],,501.6014,501.6014,0.009185426,-0.253153904,0,0,0,,0,92,92,110,1,2,word,HERITAGE,print,heritage_p.png,,,,,,
,,,,32192,001,2025-10-16_15h13.05.193,HW_LDT_1,2024.2.4,MacIntel,57.14285714,,,,,,,,,,,,,,,,,,,,,,501.6027,501.8009,501.801,502.3001,,,,,,,,,,,,,,3.1983,1,,,,,,,,,,,,,,z,,,,,,,,,,,,,,,94,1,502.3006,505.501,z,1,3.1983,,[],[],[],[],[],[],[],505.5011,507.5009,507.5009,511.7341,[],[],[],[],[],[],[],z,511.7342,511.7343,0.009185426,-0.253153904,0,0,0,,0,93,93,76,1,2,TL,senmitent,cursive,senmitent_c.png,4.2324,,,,,
,,,,32192,001,2025-10-16_15h13.05.193,HW_LDT_1,2024.2.4,MacIntel,57.14285714,,,,,,,,,,,,,,,,,,,,,,511.7354,511.9332,511.9332,512.4341,,,,,,,,,,,,,,1.6534,1,,,,,,,,,,,,,,m,,,,,,,,,,,,,,,95,0,512.4346,514.0999,m,1,1.6534,,[],[],[],[],[],[],[],514.1,516.1008,516.1008,516.101,[],[],[],[],[],[],[],,516.1011,516.1012,0.009185426,-0.253153904,0,0,0,,0,94,94,94,1,2,word,CLINICAL,cursive,clinical_c.png,,,,,,
,,,,32192,001,2025-10-16_15h13.05.193,HW_LDT_1,2024.2.4,MacIntel,57.14285714,,,,,,,,,,,,,,,,,,,,,,516.1026,516.3007,516.3008,516.7998,,,,,,,,,,,,,,2.2407,1,,,,,,,,,,,,,,z,,,,,,,,,,,,,,,96,0,516.8003,519.0501,z,1,2.2407,,[],[],[],[],[],[],[],519.0502,521.0507,521.0507,521.0509,[],[],[],[],[],[],[],,521.0509,521.051,0.009185426,-0.253153904,0,0,0,,0,95,95,79,1,2,TL,vadility,print,vadility_p.png,,,,,,
,,,,32192,001,2025-10-16_15h13.05.193,HW_LDT_1,2024.2.4,MacIntel,57.14285714,,,,,,,,,,,,,,,,,,,,,,521.0523,521.2506,521.2506,521.7506,,,,,,,,,,,,,,2.9207,0,,,,,,,,,,,,,,m,,,,,,,,,,,,,,,97,0,521.7512,524.684,z,0,2.9207,,[],[],[],[],[],[],[],524.684,526.6839,526.684,526.6842,[],[],[],[],[],[],[],,526.6842,526.6844,0.009185426,-0.253153904,0,0,0,,0,96,96,111,1,2,word,INDICATE,cursive,indicate_c.png,,,,,,
,,,,32192,001,2025-10-16_15h13.05.193,HW_LDT_1,2024.2.4,MacIntel,57.14285714,,,,,,,,,,,,,,,,,,,,,,526.6855,526.8839,526.884,527.3829,,,,,,,,,,,,,,3.0888,1,,,,,,,,,,,,,,z,,,,,,,,,,,,,,,98,0,527.3835,530.4839,z,1,3.0888,,[],[],[],[],[],[],[],530.4839,532.4829,532.483,532.4831,[],[],[],[],[],[],[],,532.4832,532.4832,0.009185426,-0.253153904,0,0,0,,0,97,97,59,1,2,TL,miskate,cursive,miskate_c.png,,,,,,
,,,,32192,001,2025-10-16_15h13.05.193,HW_LDT_1,2024.2.4,MacIntel,57.14285714,,,,,,,,,,,,,,,,,,,,,,532.4844,532.6829,532.6829,533.1828,,,,,,,,,,,,,,2.1491,1,,,,,,,,,,,,,,z,,,,,,,,,,,,,,,99,0,533.1834,535.3338,z,1,2.1491,,[],[],[],[],[],[],[],535.3338,537.3337,537.3337,537.3339,[],[],[],[],[],[],[],,537.334,537.3341,0.009185426,-0.253153904,0,0,0,,0,98,98,58,1,2,TL,mitilary,cursive,mitilary_c.png,,,,,,
,,,,32192,001,2025-10-16_15h13.05.193,HW_LDT_1,2024.2.4,MacIntel,57.14285714,,,,,,,,,,,,,,,,,,,,,,537.3352,537.5336,537.5336,538.0328,,,,,,,,,,,,,,0.8832,1,,,,,,,,,,,,,,m,,,,,,,,,,,,,,,100,0,538.0333,538.9174,m,1,0.8832,,[],[],[],[],[],[],[],538.9175,540.917,540.917,540.9172,[],[],[],[],[],[],[],,540.9172,540.9174,0.009185426,-0.253153904,0,0,0,,0,99,99,92,1,2,word,CATEGORY,print,category_p.png,,,,,,
,,,,32192,001,2025-10-16_15h13.05.193,HW_LDT_1,2024.2.4,MacIntel,57.14285714,,,,,,,,,,,,,,,,,,,,,,540.9185,541.1161,541.1161,541.6169,,,,,,,,,,,,,,0.7543,1,,,,,,,,,,,,,,m,,,,,,,,,,,,,,,101,0,541.6174,542.3837,m,1,0.7543,,[],[],[],[],[],[],[],542.3838,544.3837,544.3837,544.3839,[],[],[],[],[],[],[],,544.384,544.384,0.009185426,-0.253153904,0,0,0,,0,100,100,143,1,2,word,REMOVAL,print,removal_p.png,,,,,,
,,,,32192,001,2025-10-16_15h13.05.193,HW_LDT_1,2024.2.4,MacIntel,57.14285714,,,,,,,,,,,,,,,,,,,,,,544.3852,544.5836,544.5837,545.0834,,,,,,,,,,,,,,0.922,1,,,,,,,,,,,,,,z,,,,,,,,,,,,,,,102,0,545.0839,546.0169,z,1,0.922,,[],[],[],[],[],[],[],546.017,548.016,548.0161,548.0162,[],[],[],[],[],[],[],,548.0163,548.0164,0.009185426,-0.253153904,0,0,0,,0,101,101,50,1,2,TL,donimant,print,donimant_p.png,,,,,,
,,,,32192,001,2025-10-16_15h13.05.193,HW_LDT_1,2024.2.4,MacIntel,57.14285714,,,,,,,,,,,,,,,,,,,,,,548.0177,548.2168,548.2169,548.7167,,,,,,,,,,,,,,0.7734,1,,,,,,,,,,,,,,z,,,,,,,,,,,,,,,103,0,548.7174,549.5002,z,1,0.7734,,[],[],[],[],[],[],[],549.5003,551.5001,551.5001,551.5004,[],[],[],[],[],[],[],,551.5004,551.5005,0.009185426,-0.253153904,0,0,0,,0,102,102,11,1,2,RL,formuke,print,formuke_p.png,,,,,,
,,,,32192,001,2025-10-16_15h13.05.193,HW_LDT_1,2024.2.4,MacIntel,57.14285714,,,,,,,,,,,,,,,,,,,,,,551.5017,551.7001,551.7001,552.2001,,,,,,,,,,,,,,1.4723,1,,,,,,,,,,,,,,m,,,,,,,,,,,,,,,104,1,552.2006,553.6834,m,1,1.4723,,[],[],[],[],[],[],[],553.6835,555.6834,555.6835,557.5158,[],[],[],[],[],[],[],m,557.5159,557.516,0.009185426,-0.253153904,0,0,0,,0,103,103,83,1,2,word,ANIMAL,print,animal_p.png,1.8213,,,,,
,,,,32192,001,2025-10-16_15h13.05.193,HW_LDT_1,2024.2.4,MacIntel,57.14285714,,,,,,,,,,,,,,,,,,,,,,557.5172,557.7166,557.7166,558.2166,,,,,,,,,,,,,,1.3215,1,,,,,,,,,,,,,,m,,,,,,,,,,,,,,,105,0,558.2171,559.5491,m,1,1.3215,,[],[],[],[],[],[],[],559.5492,561.549,561.5491,561.5492,[],[],[],[],[],[],[],,561.5493,561.5494,0.009185426,-0.253153904,0,0,0,,0,104,104,84,1,2,word,BELOVED,cursive,beloved_c.png,,,,,,
,,,,32192,001,2025-10-16_15h13.05.193,HW_LDT_1,2024.2.4,MacIntel,57.14285714,,,,,,,,,,,,,,,,,,,,,,561.5506,561.7499,561.75,562.25,,,,,,,,,,,,,,1.29,1,,,,,,,,,,,,,,z,,,,,,,,,,,,,,,106,0,562.2505,563.5499,z,1,1.29,,[],[],[],[],[],[],[],563.5499,565.5498,565.5499,565.55,[],[],[],[],[],[],[],,565.5502,565.5502,0.009185426,-0.253153904,0,0,0,,0,105,105,1,1,2,RL,caleberia,print,caleberia_p.png,,,,,,
,,,,32192,001,2025-10-16_15h13.05.193,HW_LDT_1,2024.2.4,MacIntel,57.14285714,,,,,,,,,,,,,,,,,,,,,,565.5515,565.7498,565.7498,566.2498,,,,,,,,,,,,,,1.8536,1,,,,,,,,,,,,,,m,,,,,,,,,,,,,,,107,0,566.2505,568.1165,m,1,1.8536,,[],[],[],[],[],[],[],568.1166,570.1164,570.1164,570.1166,[],[],[],[],[],[],[],,570.1167,570.1168,0.009185426,-0.253153904,0,0,0,,0,106,106,147,1,2,word,ROMANTIC,print,romantic_p.png,,,,,,
,,,,32192,001,2025-10-16_15h13.05.193,HW_LDT_1,2024.2.4,MacIntel,57.14285714,,,,,,,,,,,,,,,,,,,,,,570.118,570.3164,570.3164,570.8164,,,,,,,,,,,,,,3.0232,1,,,,,,,,,,,,,,m,,,,,,,,,,,,,,,108,1,570.817,573.8497,m,1,3.0232,,[],[],[],[],[],[],[],573.8498,575.8496,575.8497,576.7831,[],[],[],[],[],[],[],z,576.7832,576.7833,0.009185426,-0.253153904,0,0,0,,0,107,107,133,1,2,word,PROVIDE,cursive,provide_c.png,0.9218,,,,,
,,,,32192,001,2025-10-16_15h13.05.193,HW_LDT_1,2024.2.4,MacIntel,57.14285714,,,,,,,,,,,,,,,,,,,,,,576.7843,576.9829,576.983,577.483,,,,,,,,,,,,,,2.7377,1,,,,,,,,,,,,,,z,,,,,,,,,,,,,,,109,1,577.4835,580.2329,z,1,2.7377,,[],[],[],[],[],[],[],580.233,582.233,582.233,583.1825,[],[],[],[],[],[],[],z,583.1826,583.1826,0.009185426,-0.253153904,0,0,0,,0,108,108,24,1,2,RL,rasibal,cursive,rasibal_c.png,0.9358,,,,,
,,,,32192,001,2025-10-16_15h13.05.193,HW_LDT_1,2024.2.4,MacIntel,57.14285714,,,,,,,,,,,,,,,,,,,,,,583.1828,583.3827,583.3827,583.8828,,,,,,,,,,,,,,2.5252,1,,,,,,,,,,,,,,z,,,,,,,,,,,,,,,110,0,583.8834,586.4162,z,1,2.5252,,[],[],[],[],[],[],[],586.4162,588.4161,588.4162,588.4163,[],[],[],[],[],[],[],,588.4164,588.4165,0.009185426,-0.253153904,0,0,0,,0,109,109,23,1,2,RL,procogal,cursive,procogal_c.png,,,,,,
,,,,32192,001,2025-10-16_15h13.05.193,HW_LDT_1,2024.2.4,MacIntel,57.14285714,,,,,,,,,,,,,,,,,,,,,,588.4179,588.6161,588.6162,589.1161,,,,,,,,,,,,,,1.7038,1,,,,,,,,,,,,,,z,,,,,,,,,,,,,,,111,0,589.1167,590.8328,z,1,1.7038,,[],[],[],[],[],[],[],590.8329,592.8327,592.8327,592.8329,[],[],[],[],[],[],[],,592.833,592.833,0.009185426,-0.253153904,0,0,0,,0,110,110,29,1,2,RL,samite,cursive,samite_c.png,,,,,,
,,,,32192,001,2025-10-16_15h13.05.193,HW_LDT_1,2024.2.4,MacIntel,57.14285714,,,,,,,,,,,,,,,,,,,,,,592.8344,593.0326,593.0327,593.5326,,,,,,,,,,,,,,1.5793,1,,,,,,,,,,,,,,z,,,,,,,,,,,,,,,112,0,593.5332,595.116,z,1,1.5793,,[],[],[],[],[],[],[],595.1161,597.116,597.116,597.1162,[],[],[],[],[],[],[],,597.1162,597.1163,0.009185426,-0.253153904,0,0,0,,0,111,111,53,1,2,TL,edivent,cursive,edivent_c.png,,,,,,
,,,,32192,001,2025-10-16_15h13.05.193,HW_LDT_1,2024.2.4,MacIntel,57.14285714,,,,,,,,,,,,,,,,,,,,,,597.1176,597.3159,597.316,597.8159,,,,,,,,,,,,,,3.9208,0,,,,,,,,,,,,,,m,,,,,,,,,,,,,,,113,0,597.8164,601.7493,z,0,3.9208,,[],[],[],[],[],[],[],601.7493,603.7491,603.7492,603.7494,[],[],[],[],[],[],[],,603.7494,603.7495,0.009185426,-0.253153904,0,0,0,,0,112,112,125,1,2,word,OPERATOR,cursive,operator_c.png,,,,,,
,,,,32192,001,2025-10-16_15h13.05.193,HW_LDT_1,2024.2.4,MacIntel,57.14285714,,,,,,,,,,,,,,,,,,,,,,603.7508,603.9492,603.9492,604.4491,,,,,,,,,,,,,,1.0979,1,,,,,,,,,,,,,,z,,,,,,,,,,,,,,,114,1,604.4497,605.5492,z,1,1.0979,,[],[],[],[],[],[],[],605.5493,607.549,607.5491,608.6157,[],[],[],[],[],[],[],m,608.6158,608.616,0.009185426,-0.253153904,0,0,0,,0,113,113,2,1,2,RL,casagity,print,casagity_p.png,1.0574,,,,,
,,,,32192,001,2025-10-16_15h13.05.193,HW_LDT_1,2024.2.4,MacIntel,57.14285714,,,,,,,,,,,,,,,,,,,,,,608.6171,608.8158,608.8158,609.3157,,,,,,,,,,,,,,4.9306,1,,,,,,,,,,,,,,m,,,,,,,,,,,,,,,115,1,609.3164,614.2489,m,1,4.9306,,[],[],[],[],[],[],[],614.2491,616.2489,616.249,617.4989,[],[],[],[],[],[],[],z,617.499,617.4991,0.009185426,-0.253153904,0,0,0,,0,114,114,106,1,2,word,ELABORATE,cursive,elaborate_c.png,1.2482,,,,,
,,,,32192,001,2025-10-16_15h13.05.193,HW_LDT_1,2024.2.4,MacIntel,57.14285714,,,,,,,,,,,,,,,,,,,,,,617.5002,617.6989,617.6989,618.1989,,,,,,,,,,,,,,0.9708,1,,,,,,,,,,,,,,z,,,,,,,,,,,,,,,116,1,618.1994,619.1823,z,1,0.9708,,[],[],[],[],[],[],[],619.1825,621.1822,621.1822,621.9822,[],[],[],[],[],[],[],m,621.9823,621.9825,0.009185426,-0.253153904,0,0,0,,0,115,115,72,1,2,TL,revomal,print,revomal_p.png,0.7885,,,,,
,,,,32192,001,2025-10-16_15h13.05.193,HW_LDT_1,2024.2.4,MacIntel,57.14285714,,,,,,,,,,,,,,,,,,,,,,621.9838,622.1822,622.1822,622.6821,,,,,,,,,,,,,,2.0706,1,,,,,,,,,,,,,,m,,,,,,,,,,,,,,,117,0,622.6826,624.7655,m,1,2.0706,,[],[],[],[],[],[],[],624.7656,626.7654,626.7654,626.7657,[],[],[],[],[],[],[],,626.7657,626.7658,0.009185426,-0.253153904,0,0,0,,0,116,116,144,1,2,word,RESIDENT,print,resident_p.png,,,,,,
,,,,32192,001,2025-10-16_15h13.05.193,HW_LDT_1,2024.2.4,MacIntel,57.14285714,,,,,,,,,,,,,,,,,,,,,,626.767,626.9654,626.9655,627.4654,,,,,,,,,,,,,,1.0373,1,,,,,,,,,,,,,,z,,,,,,,,,,,,,,,118,1,627.4659,628.5155,z,1,1.0373,,[],[],[],[],[],[],[],628.5155,630.5153,630.5154,631.4157,[],[],[],[],[],[],[],m,631.4157,631.4159,0.009185426,-0.253153904,0,0,0,,0,117,117,73,1,2,TL,redisent,print,redisent_p.png,0.8997,,,,,
,,,,32192,001,2025-10-16_15h13.05.193,HW_LDT_1,2024.2.4,MacIntel,57.14285714,,,,,,,,,,,,,,,,,,,,,,631.417,631.6153,631.6154,632.1154,,,,,,,,,,,,,,2.2881,1,,,,,,,,,,,,,,m,,,,,,,,,,,,,,,119,1,632.1159,634.4153,m,1,2.2881,,[],[],[],[],[],[],[],634.4154,636.4152,636.4153,637.282,[],[],[],[],[],[],[],z,637.282,637.2822,0.009185426,-0.253153904,0,0,0,,0,118,118,107,1,2,word,EVIDENT,cursive,evident_c.png,0.8572,,,,,
,,,,32192,001,2025-10-16_15h13.05.193,HW_LDT_1,2024.2.4,MacIntel,57.14285714,,,,,,,,,,,,,,,,,,,,,,637.2834,637.4818,637.482,637.9818,,,,,,,,,,,,,,0.8978,1,,,,,,,,,,,,,,z,,,,,,,,,,,,,,,120,0,637.9824,638.881,z,1,0.8978,,[],[],[],[],[],[],[],638.8811,640.8818,640.8818,640.882,[],[],[],[],[],[],[],,640.8821,640.8823,0.009185426,-0.253153904,0,0,0,,0,119,119,75,1,2,TL,ronamtic,print,ronamtic_p.png,,,,,,
,,,,32192,001,2025-10-16_15h13.05.193,HW_LDT_1,2024.2.4,MacIntel,57.14285714,,,,,,,,,,,,,,,,,,,,,,640.8833,641.0819,641.0819,641.5818,,,,,,,,,,,,,,2.3372,1,,,,,,,,,,,,,,z,,,,,,,,,,,,,,,121,0,641.5824,643.9309,z,1,2.3372,,[],[],[],[],[],[],[],643.9309,645.9317,645.9318,645.932,[],[],[],[],[],[],[],,645.9321,645.9322,0.009185426,-0.253153904,0,0,0,,0,120,120,17,1,2,RL,macise,cursive,macise_c.png,,,,,,
,,,,32192,001,2025-10-16_15h13.05.193,HW_LDT_1,2024.2.4,MacIntel,57.14285714,,,,,,,,,,,,,,,,,,,,,,645.9333,646.1318,646.132,646.6317,,,,,,,,,,,,,,1.2701,1,,,,,,,,,,,,,,m,,,,,,,,,,,,,,,122,0,646.6322,647.9143,m,1,1.2701,,[],[],[],[],[],[],[],647.9144,649.915,649.9151,649.9153,[],[],[],[],[],[],[],,649.9154,649.9154,0.009185426,-0.253153904,0,0,0,,0,121,121,151,1,2,word,SPECIFIC,print,specific_p.png,,,,,,
,,,,32192,001,2025-10-16_15h13.05.193,HW_LDT_1,2024.2.4,MacIntel,57.14285714,,,,,,,,,,,,,,,,,,,,,,649.9166,650.115,650.1151,650.6149,,,,,,,,,,,,,,0.6539,1,,,,,,,,,,,,,,m,,,,,,,,,,,,,,,123,0,650.6155,651.2817,m,1,0.6539,,[],[],[],[],[],[],[],651.2818,653.2805,653.2806,653.2808,[],[],[],[],[],[],[],,653.2808,653.281,0.009185426,-0.253153904,0,0,0,,0,122,122,154,1,2,word,STORAGE,print,storage_p.png,,,,,,
,,,,32192,001,2025-10-16_15h13.05.193,HW_LDT_1,2024.2.4,MacIntel,57.14285714,,,,,,,,,,,,,,,,,,,,,,653.2823,653.4816,653.4816,653.9806,,,,,,,,,,,,,,2.0926,1,,,,,,,,,,,,,,z,,,,,,,,,,,,,,,124,0,653.9812,656.0816,z,1,2.0926,,[],[],[],[],[],[],[],656.0816,658.0806,658.0806,658.0808,[],[],[],[],[],[],[],,658.0808,658.0809,0.009185426,-0.253153904,0,0,0,,0,123,123,65,1,2,TL,polupar,cursive,polupar_c.png,,,,,,
,,,,32192,001,2025-10-16_15h13.05.193,HW_LDT_1,2024.2.4,MacIntel,57.14285714,,,,,,,,,,,,,,,,,,,,,,658.0821,658.2815,658.2815,658.7815,,,,,,,,,,,,,,0.9706,1,,,,,,,,,,,,,,z,,,,,,,,,,,,,,,125,0,658.7821,659.7648,z,1,0.9706,,[],[],[],[],[],[],[],659.7649,661.7648,661.7648,661.7651,[],[],[],[],[],[],[],,661.7651,661.7652,0.009185426,-0.253153904,0,0,0,,0,124,124,18,1,2,RL,mesibine,print,mesibine_p.png,,,,,,
,,,,32192,001,2025-10-16_15h13.05.193,HW_LDT_1,2024.2.4,MacIntel,57.14285714,,,,,,,,,,,,,,,,,,,,,,661.7665,661.9647,661.9648,662.4647,,,,,,,,,,,,,,2.4705,1,,,,,,,,,,,,,,z,,,,,,,,,,,,,,,126,0,662.4654,664.9471,z,1,2.4705,,[],[],[],[],[],[],[],664.9472,666.948,666.9481,666.9483,[],[],[],[],[],[],[],,666.9484,666.9485,0.009185426,-0.253153904,0,0,0,,0,125,125,57,1,2,TL,meromy,cursive,meromy_c.png,,,,,,
,,,,32192,001,2025-10-16_15h13.05.193,HW_LDT_1,2024.2.4,MacIntel,57.14285714,,,,,,,,,,,,,,,,,,,,,,666.9497,667.1481,667.1481,667.6479,,,,,,,,,,,,,,2.2741,1,,,,,,,,,,,,,,z,,,,,,,,,,,,,,,127,0,667.6485,669.9313,z,1,2.2741,,[],[],[],[],[],[],[],669.9313,671.9312,671.9312,671.9314,[],[],[],[],[],[],[],,671.9315,671.9316,0.009185426,-0.253153904,0,0,0,,0,126,126,27,1,2,RL,repifion,cursive,repifion_c.png,,,,,,
,,,,32192,001,2025-10-16_15h13.05.193,HW_LDT_1,2024.2.4,MacIntel,57.14285714,,,,,,,,,,,,,,,,,,,,,,671.9327,672.1312,672.1312,672.6313,,,,,,,,,,,,,,0.9038,1,,,,,,,,,,,,,,z,,,,,,,,,,,,,,,128,1,672.6319,673.5479,z,1,0.9038,,[],[],[],[],[],[],[],673.5481,675.5479,675.5479,676.3312,[],[],[],[],[],[],[],m,676.3313,676.3314,0.009185426,-0.253153904,0,0,0,,0,127,127,22,1,2,RL,posity,print,posity_p.png,0.7704,,,,,
,,,,32192,001,2025-10-16_15h13.05.193,HW_LDT_1,2024.2.4,MacIntel,57.14285714,,,,,,,,,,,,,,,,,,,,,,676.3326,676.5312,676.5312,677.0301,,,,,,,,,,,,,,2.2333,1,,,,,,,,,,,,,,z,,,,,,,,,,,,,,,129,0,677.0308,679.265,z,1,2.2333,,[],[],[],[],[],[],[],679.2652,681.2644,681.2645,681.2646,[],[],[],[],[],[],[],,681.2647,681.2648,0.009185426,-0.253153904,0,0,0,,0,128,128,37,1,2,TL,adacemy,cursive,adacemy_c.png,,,,,,
,,,,32192,001,2025-10-16_15h13.05.193,HW_LDT_1,2024.2.4,MacIntel,57.14285714,,,,,,,,,,,,,,,,,,,,,,681.266,681.4634,681.4635,681.9644,,,,,,,,,,,,,,1.4903,1,,,,,,,,,,,,,,m,,,,,,,,,,,,,,,130,0,681.9649,683.4644,m,1,1.4903,,[],[],[],[],[],[],[],683.4645,685.4643,685.4644,685.4645,[],[],[],[],[],[],[],,685.4646,685.4647,0.009185426,-0.253153904,0,0,0,,0,129,129,157,1,2,word,VALIDITY,print,validity_p.png,,,,,,
,,,,32192,001,2025-10-16_15h13.05.193,HW_LDT_1,2024.2.4,MacIntel,57.14285714,,,,,,,,,,,,,,,,,,,,,,685.4659,685.6644,685.6644,686.1644,,,,,,,,,,,,,,1.8876,1,,,,,,,,,,,,,,z,,,,,,,,,,,,,,,131,0,686.1649,688.0633,z,1,1.8876,,[],[],[],[],[],[],[],688.0634,690.0642,690.0643,690.0644,[],[],[],[],[],[],[],,690.0646,690.0647,0.009185426,-0.253153904,0,0,0,,0,130,130,40,1,2,TL,bevoled,cursive,bevoled_c.png,,,,,,
,,,,32192,001,2025-10-16_15h13.05.193,HW_LDT_1,2024.2.4,MacIntel,57.14285714,,,,,,,,,,,,,,,,,,,,,,690.0658,690.2633,690.2634,690.7643,,,,,,,,,,,,,,3.0709,1,,,,,,,,,,,,,,m,,,,,,,,,,,,,,,132,0,690.7648,693.8475,m,1,3.0709,,[],[],[],[],[],[],[],693.8477,695.8465,695.8465,695.8468,[],[],[],[],[],[],[],,695.8468,695.8469,0.009185426,-0.253153904,0,0,0,,0,131,131,97,1,2,word,COVERAGE,cursive,coverage_c.png,,,,,,
,,,,32192,001,2025-10-16_15h13.05.193,HW_LDT_1,2024.2.4,MacIntel,57.14285714,,,,,,,,,,,,,,,,,,,,,,695.8482,696.0475,696.0475,696.5464,,,,,,,,,,,,,,2.6385,1,,,,,,,,,,,,,,m,,,,,,,,,,,,,,,133,1,696.547,699.1975,m,1,2.6385,,[],[],[],[],[],[],[],699.1976,701.1964,701.1965,701.8642,[],[],[],[],[],[],[],z,701.8643,701.8646,0.009185426,-0.253153904,0,0,0,,0,132,132,80,1,2,word,ACADEMY,cursive,academy_c.png,0.6673,,,,,
,,,,32192,001,2025-10-16_15h13.05.193,HW_LDT_1,2024.2.4,MacIntel,57.14285714,,,,,,,,,,,,,,,,,,,,,,701.8656,702.0631,702.0632,702.5641,,,,,,,,,,,,,,4.2196,1,,,,,,,,,,,,,,z,,,,,,,,,,,,,,,134,0,702.5646,706.7975,z,1,4.2196,,[],[],[],[],[],[],[],706.7976,708.7964,708.7964,708.7967,[],[],[],[],[],[],[],,708.7968,708.7968,0.009185426,-0.253153904,0,0,0,,0,133,133,61,1,2,TL,nuremical,cursive,nuremical_c.png,,,,,,
,,,,32192,001,2025-10-16_15h13.05.193,HW_LDT_1,2024.2.4,MacIntel,57.14285714,,,,,,,,,,,,,,,,,,,,,,708.7982,708.9963,708.9963,709.4972,,,,,,,,,,,,,,1.3488,1,,,,,,,,,,,,,,z,,,,,,,,,,,,,,,135,0,709.4979,710.8477,z,1,1.3488,,[],[],[],[],[],[],[],710.8477,712.8473,712.8473,712.8475,[],[],[],[],[],[],[],,712.8476,712.8477,0.009185426,-0.253153904,0,0,0,,0,134,134,21,1,2,RL,pamest,print,pamest_p.png,,,,,,
,,,,32192,001,2025-10-16_15h13.05.193,HW_LDT_1,2024.2.4,MacIntel,57.14285714,,,,,,,,,,,,,,,,,,,,,,712.849,713.0462,713.0462,713.5472,,,,,,,,,,,,,,1.0214,1,,,,,,,,,,,,,,m,,,,,,,,,,,,,,,136,0,713.5478,714.5805,m,1,1.0214,,[],[],[],[],[],[],[],714.5807,716.5804,716.5805,716.5807,[],[],[],[],[],[],[],,716.5807,716.5808,0.009185426,-0.253153904,0,0,0,,0,135,135,158,1,2,word,VELOCITY,print,velocity_p.png,,,,,,
,,,,32192,001,2025-10-16_15h13.05.193,HW_LDT_1,2024.2.4,MacIntel,57.14285714,,,,,,,,,,,,,,,,,,,,,,716.582,716.7806,716.7807,717.2804,,,,,,,,,,,,,,2.1544,1,,,,,,,,,,,,,,z,,,,,,,,,,,,,,,137,0,717.2811,719.4471,z,1,2.1544,,[],[],[],[],[],[],[],719.4472,721.447,721.4471,721.4473,[],[],[],[],[],[],[],,721.4474,721.4475,0.009185426,-0.253153904,0,0,0,,0,136,136,16,1,2,RL,losipal,print,losipal_p.png,,,,,,
,,,,32192,001,2025-10-16_15h13.05.193,HW_LDT_1,2024.2.4,MacIntel,57.14285714,,,,,,,,,,,,,,,,,,,,,,721.4487,721.6461,721.6461,722.146,,,,,,,,,,,,,,3.2717,1,,,,,,,,,,,,,,m,,,,,,,,,,,,,,,138,0,722.1466,725.4304,m,1,3.2717,,[],[],[],[],[],[],[],725.4305,727.4303,727.4303,727.4305,[],[],[],[],[],[],[],,727.4306,727.4307,0.009185426,-0.253153904,0,0,0,,0,137,137,81,1,2,word,ADVISORY,print,advisory_p.png,,,,,,
,,,,32192,001,2025-10-16_15h13.05.193,HW_LDT_1,2024.2.4,MacIntel,57.14285714,,,,,,,,,,,,,,,,,,,,,,727.4319,727.6302,727.6303,728.1303,,,,,,,,,,,,,,2.054,1,,,,,,,,,,,,,,m,,,,,,,,,,,,,,,139,0,728.1307,730.1968,m,1,2.054,,[],[],[],[],[],[],[],730.1969,732.1968,732.1969,732.1971,[],[],[],[],[],[],[],,732.1971,732.1972,0.009185426,-0.253153904,0,0,0,,0,138,138,128,1,2,word,PACIFIC,print,pacific_p.png,,,,,,
,,,,32192,001,2025-10-16_15h13.05.193,HW_LDT_1,2024.2.4,MacIntel,57.14285714,,,,,,,,,,,,,,,,,,,,,,732.1984,732.3959,732.3959,732.8968,,,,,,,,,,,,,,1.0714,1,,,,,,,,,,,,,,m,,,,,,,,,,,,,,,140,0,732.8974,733.9802,m,1,1.0714,,[],[],[],[],[],[],[],733.9803,735.9803,735.9803,735.9805,[],[],[],[],[],[],[],,735.9806,735.9808,0.009185426,-0.253153904,0,0,0,,0,139,139,100,1,2,word,DECADE,print,decade_p.png,,,,,,
,,,,32192,001,2025-10-16_15h13.05.193,HW_LDT_1,2024.2.4,MacIntel,57.14285714,,,,,,,,,,,,,,,,,,,,,,735.9819,736.1803,736.1803,736.6801,,,,,,,,,,,,,,3.1863,0,,,,,,,,,,,,,,m,,,,,,,,,,,,,,,141,0,736.6809,739.8792,z,0,3.1863,,[],[],[],[],[],[],[],739.8793,741.88,741.8801,741.8802,[],[],[],[],[],[],[],,741.8803,741.8804,0.009185426,-0.253153904,0,0,0,,0,140,140,90,1,2,word,CAPITAL,cursive,capital_c.png,,,,,,
,,,,32192,001,2025-10-16_15h13.05.193,HW_LDT_1,2024.2.4,MacIntel,57.14285714,,,,,,,,,,,,,,,,,,,,,,741.8815,742.079,742.0791,742.58,,,,,,,,,,,,,,1.3373,1,,,,,,,,,,,,,,m,,,,,,,,,,,,,,,142,0,742.5805,743.93,m,1,1.3373,,[],[],[],[],[],[],[],743.9301,745.9299,745.93,745.9302,[],[],[],[],[],[],[],,745.9303,745.9303,0.009185426,-0.253153904,0,0,0,,0,141,141,159,1,2,word,VETERAN,print,veteran_p.png,,,,,,
,,,,32192,001,2025-10-16_15h13.05.193,HW_LDT_1,2024.2.4,MacIntel,57.14285714,,,,,,,,,,,,,,,,,,,,,,745.9316,746.13,746.13,746.63,,,,,,,,,,,,,,0.953,1,,,,,,,,,,,,,,z,,,,,,,,,,,,,,,143,0,746.6304,747.5966,z,1,0.953,,[],[],[],[],[],[],[],747.5968,749.5965,749.5966,749.5968,[],[],[],[],[],[],[],,749.5969,749.597,0.009185426,-0.253153904,0,0,0,,0,142,142,31,1,2,RL,spetisic,print,spetisic_p.png,,,,,,
,,,,32192,001,2025-10-16_15h13.05.193,HW_LDT_1,2024.2.4,MacIntel,57.14285714,,,,,,,,,,,,,,,,,,,,,,749.5981,749.7956,749.7956,750.2965,,,,,,,,,,,,,,1.0644,1,,,,,,,,,,,,,,z,,,,,,,,,,,,,,,144,0,750.2971,751.3623,z,1,1.0644,,[],[],[],[],[],[],[],751.3624,753.3631,753.3632,753.3634,[],[],[],[],[],[],[],,753.3634,753.3635,0.009185426,-0.253153904,0,0,0,,0,143,143,13,1,2,RL,helicage,print,helicage_p.png,,,,,,
,,,,32192,001,2025-10-16_15h13.05.193,HW_LDT_1,2024.2.4,MacIntel,57.14285714,,,,,,,,,,,,,,,,,,,,,,753.3647,753.5631,753.5631,754.0621,,,,,,,,,,,,,,1.8036,1,,,,,,,,,,,,,,m,,,,,,,,,,,,,,,145,0,754.0628,755.8798,m,1,1.8036,,[],[],[],[],[],[],[],755.8799,757.8788,757.8788,757.8791,[],[],[],[],[],[],[],,757.8791,757.8792,0.009185426,-0.253153904,0,0,0,,0,144,144,142,1,2,word,REMOTE,cursive,remote_c.png,,,,,,
,,,,32192,001,2025-10-16_15h13.05.193,HW_LDT_1,2024.2.4,MacIntel,57.14285714,,,,,,,,,,,,,,,,,,,,,,757.8803,758.0788,758.0788,758.5788,,,,,,,,,,,,,,2.2051,1,,,,,,,,,,,,,,z,,,,,,,,,,,,,,,146,0,758.5794,760.7964,z,1,2.2051,,[],[],[],[],[],[],[],760.7964,762.7953,762.7954,762.7956,[],[],[],[],[],[],[],,762.7956,762.7957,0.009185426,-0.253153904,0,0,0,,0,145,145,20,1,2,RL,onegator,cursive,onegator_c.png,,,,,,
,,,,32192,001,2025-10-16_15h13.05.193,HW_LDT_1,2024.2.4,MacIntel,57.14285714,,,,,,,,,,,,,,,,,,,,,,762.7969,762.9963,762.9963,763.4953,,,,,,,,,,,,,,1.3373,1,,,,,,,,,,,,,,z,,,,,,,,,,,,,,,147,0,763.4959,764.8454,z,1,1.3373,,[],[],[],[],[],[],[],764.8455,766.8462,766.8463,766.8465,[],[],[],[],[],[],[],,766.8466,766.8466,0.009185426,-0.253153904,0,0,0,,0,146,146,38,1,2,TL,atameur,cursive,atameur_c.png,,,,,,
,,,,32192,001,2025-10-16_15h13.05.193,HW_LDT_1,2024.2.4,MacIntel,57.14285714,,,,,,,,,,,,,,,,,,,,,,766.8479,767.0462,767.0462,767.5462,,,,,,,,,,,,,,3.2708,1,,,,,,,,,,,,,,z,,,,,,,,,,,,,,,148,1,767.5468,770.8295,z,1,3.2708,,[],[],[],[],[],[],[],770.8296,772.8294,772.8294,773.7629,[],[],[],[],[],[],[],z,773.7631,773.7632,0.009185426,-0.253153904,0,0,0,,0,147,147,47,1,2,TL,crinimal,cursive,crinimal_c.png,0.9235,,,,,
,,,,32192,001,2025-10-16_15h13.05.193,HW_LDT_1,2024.2.4,MacIntel,57.14285714,,,,,,,,,,,,,,,,,,,,,,773.7644,773.9619,773.962,774.4618,,,,,,,,,,,,,,1.9902,1,,,,,,,,,,,,,,m,,,,,,,,,,,,,,,149,0,774.4623,776.4628,m,1,1.9902,,[],[],[],[],[],[],[],776.4629,778.4619,778.462,778.4622,[],[],[],[],[],[],[],,778.4622,778.4624,0.009185426,-0.253153904,0,0,0,,0,148,148,155,1,2,word,STRATEGY,cursive,strategy_c.png,,,,,,
,,,,32192,001,2025-10-16_15h13.05.193,HW_LDT_1,2024.2.4,MacIntel,57.14285714,,,,,,,,,,,,,,,,,,,,,,778.4634,778.6627,778.6629,779.1619,,,,,,,,,,,,,,1.4374,1,,,,,,,,,,,,,,m,,,,,,,,,,,,,,,150,0,779.1625,780.6118,m,1,1.4374,,[],[],[],[],[],[],[],780.6119,782.6126,782.6127,782.6128,[],[],[],[],[],[],[],,782.6129,782.6131,0.009185426,-0.253153904,0,0,0,,0,149,149,118,1,2,word,MEDICINE,print,medicine_p.png,,,,,,
,,,,32192,001,2025-10-16_15h13.05.193,HW_LDT_1,2024.2.4,MacIntel,57.14285714,,,,,,,,,,,,,,,,,,,,,,782.6144,782.8125,782.8126,783.3125,,,,,,,,,,,,,,2.3313,1,,,,,,,,,,,,,,m,,,,,,,,,,,,,,,151,1,783.3131,785.6459,m,1,2.3313,,[],[],[],[],[],[],[],785.646,787.6449,787.645,788.6459,[],[],[],[],[],[],[],m,788.646,788.6462,0.009185426,-0.253153904,0,0,0,,0,150,150,99,1,2,word,DEBATE,print,debate_p.png,0.9897,,,,,
,,,,32192,001,2025-10-16_15h13.05.193,HW_LDT_1,2024.2.4,MacIntel,57.14285714,,,,,,,,,,,,,,,,,,,,,,788.6474,788.8453,788.8454,789.3458,,,,,,,,,,,,,,0.9978,1,,,,,,,,,,,,,,m,,,,,,,,,,,,,,,152,0,789.3463,790.3459,m,1,0.9978,,[],[],[],[],[],[],[],790.3459,792.3453,792.3454,792.3457,[],[],[],[],[],[],[],,792.3457,792.3458,0.009185426,-0.253153904,0,0,0,,0,151,151,89,1,2,word,CAPACITY,print,capacity_p.png,,,,,,
,,,,32192,001,2025-10-16_15h13.05.193,HW_LDT_1,2024.2.4,MacIntel,57.14285714,,,,,,,,,,,,,,,,,,,,,,792.347,792.5457,792.5458,793.0459,,,,,,,,,,,,,,0.8456,1,,,,,,,,,,,,,,z,,,,,,,,,,,,,,,153,0,793.0465,793.8957,z,1,0.8456,,[],[],[],[],[],[],[],793.8958,795.8952,795.8953,795.8955,[],[],[],[],[],[],[],,795.8956,795.8957,0.009185426,-0.253153904,0,0,0,,0,152,152,32,1,2,RL,speniven,print,speniven_p.png,,,,,,
,,,,32192,001,2025-10-16_15h13.05.193,HW_LDT_1,2024.2.4,MacIntel,57.14285714,,,,,,,,,,,,,,,,,,,,,,795.8969,796.0954,796.0954,796.5957,,,,,,,,,,,,,,2.6374,1,,,,,,,,,,,,,,z,,,,,,,,,,,,,,,154,0,796.5964,799.2454,z,1,2.6374,,[],[],[],[],[],[],[],799.2455,801.2456,801.2457,801.2459,[],[],[],[],[],[],[],,801.2459,801.246,0.009185426,-0.253153904,0,0,0,,0,153,153,14,1,2,RL,insibate,cursive,insibate_c.png,,,,,,
,,,,32192,001,2025-10-16_15h13.05.193,HW_LDT_1,2024.2.4,MacIntel,57.14285714,,,,,,,,,,,,,,,,,,,,,,801.2474,801.4453,801.4453,801.9453,,,,,,,,,,,,,,3.5874,0,,,,,,,,,,,,,,z,,,,,,,,,,,,,,,155,0,801.9459,805.5453,m,0,3.5874,,[],[],[],[],[],[],[],805.5455,807.5455,807.5456,807.5458,[],[],[],[],[],[],[],,807.5459,807.5459,0.009185426,-0.253153904,0,0,0,,0,154,154,34,1,2,RL,trilude,cursive,trilude_c.png,,,,,,
,,,,32192,001,2025-10-16_15h13.05.193,HW_LDT_1,2024.2.4,MacIntel,57.14285714,,,,,,,,,,,,,,,,,,,,,,807.5471,807.7455,807.7456,808.2455,,,,,,,,,,,,,,4.006,0,,,,,,,,,,,,,,m,,,,,,,,,,,,,,,156,0,808.246,812.2622,z,0,4.006,,[],[],[],[],[],[],[],812.2622,814.2621,814.2622,814.2624,[],[],[],[],[],[],[],,814.2624,814.2625,0.009185426,-0.253153904,0,0,0,,0,155,155,113,1,2,word,LITERAL,cursive,literal_c.png,,,,,,
,,,,32192,001,2025-10-16_15h13.05.193,HW_LDT_1,2024.2.4,MacIntel,57.14285714,,,,,,,,,,,,,,,,,,,,,,814.2637,814.4621,814.4621,814.9621,,,,,,,,,,,,,,2.5743,1,,,,,,,,,,,,,,z,,,,,,,,,,,,,,,157,0,814.9626,817.5454,z,1,2.5743,,[],[],[],[],[],[],[],817.5455,819.5452,819.5453,819.5455,[],[],[],[],[],[],[],,819.5456,819.5457,0.009185426,-0.253153904,0,0,0,,0,156,156,26,1,2,RL,retupar,cursive,retupar_c.png,,,,,,
,,,,32192,001,2025-10-16_15h13.05.193,HW_LDT_1,2024.2.4,MacIntel,57.14285714,,,,,,,,,,,,,,,,,,,,,,819.5468,819.7452,819.7453,820.2444,,,,,,,,,,,,,,1.0372,1,,,,,,,,,,,,,,m,,,,,,,,,,,,,,,158,0,820.2449,821.2944,m,1,1.0372,,[],[],[],[],[],[],[],821.2945,823.2942,823.2944,823.2945,[],[],[],[],[],[],[],,823.2946,823.2947,0.009185426,-0.253153904,0,0,0,,0,157,157,139,1,2,word,REGULAR,cursive,regular_c.png,,,,,,
,,,,32192,001,2025-10-16_15h13.05.193,HW_LDT_1,2024.2.4,MacIntel,57.14285714,,,,,,,,,,,,,,,,,,,,,,823.2958,823.4952,823.4953,823.9952,,,,,,,,,,,,,,0.8742,1,,,,,,,,,,,,,,z,,,,,,,,,,,,,,,159,0,823.9958,824.8785,z,1,0.8742,,[],[],[],[],[],[],[],824.8787,826.8785,826.8785,826.8786,[],[],[],[],[],[],[],,826.8787,826.8788,0.009185426,-0.253153904,0,0,0,,0,158,158,4,1,2,RL,cenesony,print,cenesony_p.png,,,,,,
,,,,32192,001,2025-10-16_15h13.05.193,HW_LDT_1,2024.2.4,MacIntel,57.14285714,,,,,,,,,,,,,,,,,,,,,,826.88,827.0776,827.0777,827.5775,,,,,,,,,,,,,,2.4386,1,,,,,,,,,,,,,,m,,,,,,,,,,,,,,,160,0,827.5783,830.0285,m,1,2.4386,,[],[],[],[],[],[],[],830.0286,832.0274,832.0275,832.0276,[],[],[],[],[],[],[],,832.0277,832.0279,0.009185426,-0.253153904,0,0,0,,0,159,159,141,1,2,word,RELIGION,cursive,religion_c.png,,,,,,
,,,,32192,001,2025-10-16_15h13.05.193,HW_LDT_1,2024.2.4,MacIntel,57.14285714,,,,,,,,,,,,,,,,,,,,,,,,,,,,,,,,,,,,,,,,,,,,,,,,,,,,,,,,,,,,,,,,,,,,,,,,,,,,,,,,,,,,,,,,,,,,,,,,,,,,,,,,,,,,,,,,,,,,,,832.0378,837.0287
