counterbalance_lists.group,counterbalance_lists.remaining,get_list.started,get_list.stopped,participant,session,date,expName,psychopyVersion,OS,frameRate,Instructions.started,Instructions.stopped,key_resp.keys,key_resp.rt,key_resp.duration,instr_done_touch.x,instr_done_touch.y,instr_done_touch.leftButton,instr_done_touch.midButton,instr_done_touch.rightButton,start_instr.thisRepN,start_instr.thisTrialN,start_instr.thisN,start_instr.thisIndex,start_instr.ran,pageN,phase,instruct_text,has_image,instruct_image,showProgress.started,showProgress.stopped,fix.started,fix.stopped,prac.started,prac.stopped,response.keys,response.corr,response.rt,response.duration,touch_resp.x,touch_resp.y,touch_resp.leftButton,touch_resp.midButton,touch_resp.rightButton,touch_resp.time,touch_resp.clicked_name,rt,corr,feedback.started,feedback.stopped,trials.thisRepN,trials.thisTrialN,trials.thisN,trials.thisIndex,trials.ran,TrialID,StimulusType,Condition,PrimeDuration,Prime,Target,corrAns,Instructions_expt.started,Instructions_expt.stopped,key_resp_3.keys,instr_done_touch_3.x,instr_done_touch_3.y,instr_done_touch_3.leftButton,instr_done_touch_3.midButton,instr_done_touch_3.rightButton,instr_done_touch_3.clicked_name,instr_experiment.thisRepN,instr_experiment.thisTrialN,instr_experiment.thisN,instr_experiment.thisIndex,instr_experiment.ran,trialID,flag,maintask.started,maintask.stopped,key_resp_2.keys,key_resp_2.corr,key_resp_2.rt,key_resp_2.duration,targ_click.x,targ_click.y,targ_click.leftButton,targ_click.midButton,targ_click.rightButton,targ_click.time,targ_click.clicked_name,ITI.started,ITI.stopped,probe.started,probe.stopped,click_probe.x,click_probe.y,click_probe.leftButton,click_probe.midButton,click_probe.rightButton,click_probe.time,click_probe.clicked_name,key_resp_probe.keys,Break.started,Break.stopped,break_done_touch.x,break_done_touch.y,break_done_touch.leftButton,break_done_touch.midButton,break_done_touch.rightButton,break_done_keyboard.keys,list3_trials.thisRepN,list3_trials.thisTrialN,list3_trials.thisN,list3_trials.thisIndex,list3_trials.ran,list_id,item_type,string,font,stim_file,key_resp_probe.rt,key_resp_probe.duration,break_done_keyboard.rt,break_done_keyboard.duration,End.started,End.stopped
list3,,6.6141,6.6142,32195,001,2025-10-16_23h07.12.602,HW_LDT_1,2024.2.4,MacIntel,60.24096386,,,,,,,,,,,,,,,,,,,,,,,,,,,,,,,,,,,,,,,,,,,,,,,,,,,,,,,,,,,,,,,,,,,,,,,,,,,,,,,,,,,,,,,,,,,,,,,,,,,,,,,,,,,,,,,,,,,,,,
,,,,32195,001,2025-10-16_23h07.12.602,HW_LDT_1,2024.2.4,MacIntel,60.24096386,6.6306,27.8728,space,21.2222,,-0.075289887,-0.247360412,0,0,0,0,0,0,0,1,1,instructions,"INSTRUCTIONS
At the start of each trial, look at the plus sign  (+) in the center of the screen.  This tells you that a trial is about to begin and where to look. Second, the plus sign will disappear and a string of letters will appear. Your task is to determine if the string of letters is a word or not. If the item is a word press the M key (on keyboard)  or touch the word button (phone/tablet).  If the item is not a word,  press the  Z key (on keyboard)  or touch the nonword button (on phone/tablet). The items will be presented for a short time. 
Press the space bar or touch  continue.",0,,,,,,,,,,,,,,,,,,,,,,,,,,,,,,,,,,,,,,,,,,,,,,,,,,,,,,,,,,,,,,,,,,,,,,,,,,,,,,,,,,,,,,,,,,,,,,,,,,,
,,,,32195,001,2025-10-16_23h07.12.602,HW_LDT_1,2024.2.4,MacIntel,60.24096386,27.8744,32.5555,space,4.6552,,-0.075289887,-0.247360412,0,0,0,0,1,1,1,1,2,instructions,"If your device has a keyboard, press the 'Z' key for nonwords and the 'M' key for words.





Press the space bar or touch the button below to continue.",0,keyboard-example.gif,,,,,,,,,,,,,,,,,,,,,,,,,,,,,,,,,,,,,,,,,,,,,,,,,,,,,,,,,,,,,,,,,,,,,,,,,,,,,,,,,,,,,,,,,,,,,,,,,,
,,,,32195,001,2025-10-16_23h07.12.602,HW_LDT_1,2024.2.4,MacIntel,60.24096386,32.5569,33.6885,space,1.1121,,-0.075289887,-0.247360412,0,0,0,0,2,2,2,1,3,instructions,"If you are using a touchscreen only device, use the buttons on the screen. Do not use the mouse.





Press the space bar or touch the button below to continue.",0,touchscreen-example.gif,,,,,,,,,,,,,,,,,,,,,,,,,,,,,,,,,,,,,,,,,,,,,,,,,,,,,,,,,,,,,,,,,,,,,,,,,,,,,,,,,,,,,,,,,,,,,,,,,,
,,,,32195,001,2025-10-16_23h07.12.602,HW_LDT_1,2024.2.4,MacIntel,60.24096386,33.6903,46.1219,space,12.4066,,-0.075289887,-0.247360412,0,0,0,0,3,3,3,1,4,instructions,"It is very important that you respond as quickly and accurately as possible, as each letter string will only be on the screen for two seconds. If you do not respond within this time, the message 'Too slow!' will be displayed and the experiment will progress to the next letter string. The first 20 trials will be practice trials and you will receive feedback on your answers. 

Press the space bar or touch the button below to start the practice trials.",0,,,,,,,,,,,,,,,,,,,,,,,,,,,,,,,,,,,,,,,,,,,,,,,,,,,,,,,,,,,,,,,,,,,,,,,,,,,,,,,,,,,,,,,,,,,,,,,,,,,
,,,,32195,001,2025-10-16_23h07.12.602,HW_LDT_1,2024.2.4,MacIntel,60.24096386,,,,,,,,,,,,,,,,,,,,,46.1497,46.3219,46.3222,46.8219,46.8224,47.7721,m,0,0.9205,,[],[],[],[],[],[],[],0.9205,0,47.7726,48.272,0,0,0,13,1,1014,NW,UN,33,winfer,ROUPET,z,,,,,,,,,,,,,,,,,,,,,,,,,,,,,,,,,,,,,,,,,,,,,,,,,,,,,,,,,,,,,,,,,
,,,,32195,001,2025-10-16_23h07.12.602,HW_LDT_1,2024.2.4,MacIntel,60.24096386,,,,,,,,,,,,,,,,,,,,,48.2734,48.4716,48.4717,48.9716,48.9726,49.7218,m,0,0.73,,[],[],[],[],[],[],[],0.73,0,49.7219,50.2218,0,1,1,11,1,1012,NW,"ID",16,rashet,RASHET,z,,,,,,,,,,,,,,,,,,,,,,,,,,,,,,,,,,,,,,,,,,,,,,,,,,,,,,,,,,,,,,,,,
,,,,32195,001,2025-10-16_23h07.12.602,HW_LDT_1,2024.2.4,MacIntel,60.24096386,,,,,,,,,,,,,,,,,,,,,50.2232,50.4216,50.4216,50.9218,50.9227,51.4048,m,1,0.4714,,[],[],[],[],[],[],[],0.4714,1,51.4056,51.9049,0,2,2,7,1,1008,WORD,UN,16,hurdle,VOLUME,m,,,,,,,,,,,,,,,,,,,,,,,,,,,,,,,,,,,,,,,,,,,,,,,,,,,,,,,,,,,,,,,,,
,,,,32195,001,2025-10-16_23h07.12.602,HW_LDT_1,2024.2.4,MacIntel,60.24096386,,,,,,,,,,,,,,,,,,,,,51.9059,52.1049,52.1049,52.6049,52.6059,53.4051,z,1,0.7799,,[],[],[],[],[],[],[],0.7799,1,53.4053,53.9051,0,3,3,12,1,1013,NW,UN,33,adveil,SPRINY,z,,,,,,,,,,,,,,,,,,,,,,,,,,,,,,,,,,,,,,,,,,,,,,,,,,,,,,,,,,,,,,,,,
,,,,32195,001,2025-10-16_23h07.12.602,HW_LDT_1,2024.2.4,MacIntel,60.24096386,,,,,,,,,,,,,,,,,,,,,53.9065,54.105,54.1051,54.605,54.6059,55.3052,m,1,0.6789,,[],[],[],[],[],[],[],0.6789,1,55.3054,55.8051,0,4,4,2,1,1003,WORD,"ID",16,almond,ALMOND,m,,,,,,,,,,,,,,,,,,,,,,,,,,,,,,,,,,,,,,,,,,,,,,,,,,,,,,,,,,,,,,,,,
,,,,32195,001,2025-10-16_23h07.12.602,HW_LDT_1,2024.2.4,MacIntel,60.24096386,,,,,,,,,,,,,,,,,,,,,55.8064,56.0051,56.0051,56.5048,56.5058,57.2718,z,1,0.7471,,[],[],[],[],[],[],[],0.7471,1,57.272,57.7717,0,5,5,15,1,1016,NW,UN,16,mushed,WHAISE,z,,,,,,,,,,,,,,,,,,,,,,,,,,,,,,,,,,,,,,,,,,,,,,,,,,,,,,,,,,,,,,,,,
,,,,32195,001,2025-10-16_23h07.12.602,HW_LDT_1,2024.2.4,MacIntel,60.24096386,,,,,,,,,,,,,,,,,,,,,57.773,57.9716,57.9716,58.4716,58.4725,59.1216,m,1,0.6401,,[],[],[],[],[],[],[],0.6401,1,59.1218,59.6216,0,6,6,5,1,1006,WORD,UN,33,frenzy,OBTAIN,m,,,,,,,,,,,,,,,,,,,,,,,,,,,,,,,,,,,,,,,,,,,,,,,,,,,,,,,,,,,,,,,,,
,,,,32195,001,2025-10-16_23h07.12.602,HW_LDT_1,2024.2.4,MacIntel,60.24096386,,,,,,,,,,,,,,,,,,,,,59.6231,59.8217,59.8218,60.3216,60.3224,61.0383,z,1,0.6981,,[],[],[],[],[],[],[],0.6981,1,61.0384,61.5383,0,7,7,14,1,1015,NW,UN,16,miaber,THRALE,z,,,,,,,,,,,,,,,,,,,,,,,,,,,,,,,,,,,,,,,,,,,,,,,,,,,,,,,,,,,,,,,,,
,,,,32195,001,2025-10-16_23h07.12.602,HW_LDT_1,2024.2.4,MacIntel,60.24096386,,,,,,,,,,,,,,,,,,,,,61.5396,61.7383,61.7384,62.2383,62.2391,62.954,z,1,0.6969,,[],[],[],[],[],[],[],0.6969,1,62.9542,63.4549,0,8,8,10,1,1011,NW,"ID",16,inlade,INLADE,z,,,,,,,,,,,,,,,,,,,,,,,,,,,,,,,,,,,,,,,,,,,,,,,,,,,,,,,,,,,,,,,,,
,,,,32195,001,2025-10-16_23h07.12.602,HW_LDT_1,2024.2.4,MacIntel,60.24096386,,,,,,,,,,,,,,,,,,,,,63.4561,63.655,63.6551,64.1549,64.1557,64.9052,z,1,0.7294,,[],[],[],[],[],[],[],0.7294,1,64.9053,65.4049,0,9,9,8,1,1009,NW,"ID",33,aslert,ASLERT,z,,,,,,,,,,,,,,,,,,,,,,,,,,,,,,,,,,,,,,,,,,,,,,,,,,,,,,,,,,,,,,,,,
,,,,32195,001,2025-10-16_23h07.12.602,HW_LDT_1,2024.2.4,MacIntel,60.24096386,,,,,,,,,,,,,,,,,,,,,65.4061,65.605,65.6051,66.1048,66.1057,66.7716,z,1,0.6456,,[],[],[],[],[],[],[],0.6456,1,66.7717,67.2717,0,10,10,9,1,1010,NW,"ID",33,fariny,FARINY,z,,,,,,,,,,,,,,,,,,,,,,,,,,,,,,,,,,,,,,,,,,,,,,,,,,,,,,,,,,,,,,,,,
,,,,32195,001,2025-10-16_23h07.12.602,HW_LDT_1,2024.2.4,MacIntel,60.24096386,,,,,,,,,,,,,,,,,,,,,67.2729,67.4706,67.4706,67.9715,67.9724,68.5881,m,1,0.6074,,[],[],[],[],[],[],[],0.6074,1,68.5883,69.0883,0,11,11,0,1,1001,WORD,"ID",33,utopia,UTOPIA,m,,,,,,,,,,,,,,,,,,,,,,,,,,,,,,,,,,,,,,,,,,,,,,,,,,,,,,,,,,,,,,,,,
,,,,32195,001,2025-10-16_23h07.12.602,HW_LDT_1,2024.2.4,MacIntel,60.24096386,,,,,,,,,,,,,,,,,,,,,69.0896,69.2882,69.2883,69.7883,69.7892,70.3385,m,1,0.5304,,[],[],[],[],[],[],[],0.5304,1,70.3385,70.8373,0,12,12,1,1,1002,WORD,"ID",33,adjust,ADJUST,m,,,,,,,,,,,,,,,,,,,,,,,,,,,,,,,,,,,,,,,,,,,,,,,,,,,,,,,,,,,,,,,,,
,,,,32195,001,2025-10-16_23h07.12.602,HW_LDT_1,2024.2.4,MacIntel,60.24096386,,,,,,,,,,,,,,,,,,,,,70.8386,71.0382,71.0383,71.5382,71.5392,72.105,m,1,0.5463,,[],[],[],[],[],[],[],0.5463,1,72.1051,72.6049,0,13,13,3,1,1004,WORD,"ID",16,matrix,MATRIX,m,,,,,,,,,,,,,,,,,,,,,,,,,,,,,,,,,,,,,,,,,,,,,,,,,,,,,,,,,,,,,,,,,
,,,,32195,001,2025-10-16_23h07.12.602,HW_LDT_1,2024.2.4,MacIntel,60.24096386,,,,,,,,,,,,,,,,,,,,,72.6061,72.8039,72.8039,73.3049,73.3059,73.9882,m,1,0.6624,,[],[],[],[],[],[],[],0.6624,1,73.9884,74.4873,0,14,14,4,1,1005,WORD,UN,33,abound,SQUEAK,m,,,,,,,,,,,,,,,,,,,,,,,,,,,,,,,,,,,,,,,,,,,,,,,,,,,,,,,,,,,,,,,,,
,,,,32195,001,2025-10-16_23h07.12.602,HW_LDT_1,2024.2.4,MacIntel,60.24096386,,,,,,,,,,,,,,,,,,,,,74.4885,74.6882,74.6883,75.1882,75.189,75.805,m,1,0.5991,,[],[],[],[],[],[],[],0.5991,1,75.8051,76.3039,0,15,15,6,1,1007,WORD,UN,16,tropic,ZOMBIE,m,,,,,,,,,,,,,,,,,,,,,,,,,,,,,,,,,,,,,,,,,,,,,,,,,,,,,,,,,,,,,,,,,
,,,,32195,001,2025-10-16_23h07.12.602,HW_LDT_1,2024.2.4,MacIntel,60.24096386,,,,,,,,,,,,,,,,1,end_of_practice,"You have completed the practice trials. During the experimental trials, you will not receive feedback. On some trials you will be asked to report whether the item you just saw was in cursive or print. 
Before you begin, please ensure that you are in a comfortable and quiet location and will not be disturbed for about 15 minutes, as we cannot use your data if you do not complete all the trials. 
 When you are ready to start the experimental trials, please press space or touch the button below.",,,,,,,,,,,,,,,,,,,,,,,,,,,,,,,,,,,,76.3093,312.0545,,-0.061386357,-0.41999626,1,0,0,,0,0,0,0,1,,,,,,,,,,,,,,,,,,,,,,,,,,,,,,,,,,,,,,,,,,,,,,,,,,,
,,,,32195,001,2025-10-16_23h07.12.602,HW_LDT_1,2024.2.4,MacIntel,60.24096386,,,,,,,,,,,,,,,,,,,,,312.0676,312.2533,312.2534,312.7543,,,,,,,,,,,,,,0.6951,1,,,,,,,,,,,,,,m,,,,,,,,,,,,,,,1,0,312.7557,313.4543,m,1,0.6951,,[],[],[],[],[],[],[],313.4544,315.4535,315.4538,315.4566,[],[],[],[],[],[],[],,315.4566,315.4579,-0.061386357,-0.41999626,0,0,0,,0,0,0,92,1,3,word,CATEGORY,cursive,category_c.png,,,,,,
,,,,32195,001,2025-10-16_23h07.12.602,HW_LDT_1,2024.2.4,MacIntel,60.24096386,,,,,,,,,,,,,,,,,,,,,315.4585,315.6542,315.6544,316.1543,,,,,,,,,,,,,,0.8056,1,,,,,,,,,,,,,,z,,,,,,,,,,,,,,,2,0,316.155,316.9711,z,1,0.8056,,[],[],[],[],[],[],[],316.9712,318.9704,318.9705,318.9707,[],[],[],[],[],[],[],,318.9708,318.9709,-0.061386357,-0.41999626,0,0,0,,0,1,1,38,1,3,TL,carnidal,print,carnidal_p.png,,,,,,
,,,,32195,001,2025-10-16_23h07.12.602,HW_LDT_1,2024.2.4,MacIntel,60.24096386,,,,,,,,,,,,,,,,,,,,,318.9718,319.1709,319.171,319.6709,,,,,,,,,,,,,,0.5708,1,,,,,,,,,,,,,,m,,,,,,,,,,,,,,,3,0,319.6715,320.2533,m,1,0.5708,,[],[],[],[],[],[],[],320.2535,322.2533,322.2534,322.2536,[],[],[],[],[],[],[],,322.2537,322.2538,-0.061386357,-0.41999626,0,0,0,,0,2,2,118,1,3,word,MEDICINE,print,medicine_p.png,,,,,,
,,,,32195,001,2025-10-16_23h07.12.602,HW_LDT_1,2024.2.4,MacIntel,60.24096386,,,,,,,,,,,,,,,,,,,,,322.2549,322.4542,322.4543,322.9542,,,,,,,,,,,,,,0.6706,0,,,,,,,,,,,,,,z,,,,,,,,,,,,,,,4,0,322.9548,323.6377,m,0,0.6706,,[],[],[],[],[],[],[],323.6378,325.6366,325.6367,325.6369,[],[],[],[],[],[],[],,325.637,325.637,-0.061386357,-0.41999626,0,0,0,,0,3,3,78,1,3,TL,vecolity,cursive,vecolity_c.png,,,,,,
,,,,32195,001,2025-10-16_23h07.12.602,HW_LDT_1,2024.2.4,MacIntel,60.24096386,,,,,,,,,,,,,,,,,,,,,325.6381,325.8375,325.8376,326.3375,,,,,,,,,,,,,,0.6865,1,,,,,,,,,,,,,,z,,,,,,,,,,,,,,,5,1,326.3381,327.0377,z,1,0.6865,,[],[],[],[],[],[],[],327.0379,329.0376,329.0377,332.5701,[],[],[],[],[],[],[],m,332.5702,332.5703,-0.061386357,-0.41999626,0,0,0,,0,4,4,31,1,3,RL,trilude,print,trilude_p.png,3.5249,,,,,
,,,,32195,001,2025-10-16_23h07.12.602,HW_LDT_1,2024.2.4,MacIntel,60.24096386,,,,,,,,,,,,,,,,,,,,,332.5714,332.7699,332.7699,333.2709,,,,,,,,,,,,,,0.8208,1,,,,,,,,,,,,,,z,,,,,,,,,,,,,,,6,0,333.2714,334.1042,z,1,0.8208,,[],[],[],[],[],[],[],334.1045,336.1042,336.1043,336.1046,[],[],[],[],[],[],[],,336.1048,336.1049,-0.061386357,-0.41999626,0,0,0,,0,5,5,64,1,3,TL,radiply,print,radiply_p.png,,,,,,
,,,,32195,001,2025-10-16_23h07.12.602,HW_LDT_1,2024.2.4,MacIntel,60.24096386,,,,,,,,,,,,,,,,,,,,,336.106,336.3033,336.3034,336.8042,,,,,,,,,,,,,,0.5559,1,,,,,,,,,,,,,,m,,,,,,,,,,,,,,,7,0,336.8047,337.3708,m,1,0.5559,,[],[],[],[],[],[],[],337.3709,339.371,339.3711,339.3712,[],[],[],[],[],[],[],,339.3713,339.3715,-0.061386357,-0.41999626,0,0,0,,0,6,6,137,1,3,word,RAPIDLY,print,rapidly_p.png,,,,,,
,,,,32195,001,2025-10-16_23h07.12.602,HW_LDT_1,2024.2.4,MacIntel,60.24096386,,,,,,,,,,,,,,,,,,,,,339.3725,339.5709,339.5709,340.07,,,,,,,,,,,,,,0.8982,1,,,,,,,,,,,,,,z,,,,,,,,,,,,,,,8,0,340.0705,340.9698,z,1,0.8982,,[],[],[],[],[],[],[],340.9699,342.9709,342.971,342.9711,[],[],[],[],[],[],[],,342.9712,342.9713,-0.061386357,-0.41999626,0,0,0,,0,7,7,3,1,3,RL,bebine,cursive,bebine_c.png,,,,,,
,,,,32195,001,2025-10-16_23h07.12.602,HW_LDT_1,2024.2.4,MacIntel,60.24096386,,,,,,,,,,,,,,,,,,,,,342.9724,343.1708,343.1709,343.6709,,,,,,,,,,,,,,0.9872,1,,,,,,,,,,,,,,z,,,,,,,,,,,,,,,9,0,343.6714,344.67,z,1,0.9872,,[],[],[],[],[],[],[],344.6702,346.6709,346.6709,346.6711,[],[],[],[],[],[],[],,346.6711,346.6713,-0.061386357,-0.41999626,0,0,0,,0,8,8,77,1,3,TL,vadility,cursive,vadility_c.png,,,,,,
,,,,32195,001,2025-10-16_23h07.12.602,HW_LDT_1,2024.2.4,MacIntel,60.24096386,,,,,,,,,,,,,,,,,,,,,346.6723,346.8701,346.8702,347.3708,,,,,,,,,,,,,,0.5069,1,,,,,,,,,,,,,,m,,,,,,,,,,,,,,,10,1,347.3713,347.8866,m,1,0.5069,,[],[],[],[],[],[],[],347.8867,349.8875,349.8875,351.2042,[],[],[],[],[],[],[],m,351.2043,351.2045,-0.061386357,-0.41999626,0,0,0,,0,9,9,80,1,3,word,ACADEMY,print,academy_p.png,1.3045,,,,,
,,,,32195,001,2025-10-16_23h07.12.602,HW_LDT_1,2024.2.4,MacIntel,60.24096386,,,,,,,,,,,,,,,,,,,,,351.2057,351.4042,351.4042,351.9042,,,,,,,,,,,,,,0.554,1,,,,,,,,,,,,,,m,,,,,,,,,,,,,,,11,1,351.9046,352.471,m,1,0.554,,[],[],[],[],[],[],[],352.471,354.4708,354.4709,355.3535,[],[],[],[],[],[],[],m,355.3536,355.3538,-0.061386357,-0.41999626,0,0,0,,0,10,10,150,1,3,word,SENTIMENT,print,sentiment_p.png,0.8821,,,,,
,,,,32195,001,2025-10-16_23h07.12.602,HW_LDT_1,2024.2.4,MacIntel,60.24096386,,,,,,,,,,,,,,,,,,,,,355.3547,355.5532,355.5533,356.0541,,,,,,,,,,,,,,0.9456,1,,,,,,,,,,,,,,z,,,,,,,,,,,,,,,12,0,356.0547,357.0035,z,1,0.9456,,[],[],[],[],[],[],[],357.0036,359.0042,359.0042,359.0044,[],[],[],[],[],[],[],,359.0044,359.0045,-0.061386357,-0.41999626,0,0,0,,0,11,11,13,1,3,RL,helicage,cursive,helicage_c.png,,,,,,
,,,,32195,001,2025-10-16_23h07.12.602,HW_LDT_1,2024.2.4,MacIntel,60.24096386,,,,,,,,,,,,,,,,,,,,,359.0056,359.2032,359.2032,359.7042,,,,,,,,,,,,,,0.8374,0,,,,,,,,,,,,,,z,,,,,,,,,,,,,,,13,0,359.7047,360.5542,m,0,0.8374,,[],[],[],[],[],[],[],360.5543,362.5541,362.5542,362.5543,[],[],[],[],[],[],[],,362.5543,362.5545,-0.061386357,-0.41999626,0,0,0,,0,12,12,28,1,3,RL,rovastic,cursive,rovastic_c.png,,,,,,
,,,,32195,001,2025-10-16_23h07.12.602,HW_LDT_1,2024.2.4,MacIntel,60.24096386,,,,,,,,,,,,,,,,,,,,,362.5555,362.7542,362.7543,363.2541,,,,,,,,,,,,,,0.6375,1,,,,,,,,,,,,,,z,,,,,,,,,,,,,,,14,0,363.2547,363.9035,z,1,0.6375,,[],[],[],[],[],[],[],363.9036,365.9042,365.9042,365.9044,[],[],[],[],[],[],[],,365.9044,365.9046,-0.061386357,-0.41999626,0,0,0,,0,13,13,51,1,3,TL,liretal,print,liretal_p.png,,,,,,
,,,,32195,001,2025-10-16_23h07.12.602,HW_LDT_1,2024.2.4,MacIntel,60.24096386,,,,,,,,,,,,,,,,,,,,,365.9056,366.1041,366.1041,366.6032,,,,,,,,,,,,,,0.7089,1,,,,,,,,,,,,,,m,,,,,,,,,,,,,,,15,0,366.6038,367.3208,m,1,0.7089,,[],[],[],[],[],[],[],367.321,369.3208,369.3209,369.321,[],[],[],[],[],[],[],,369.3211,369.3212,-0.061386357,-0.41999626,0,0,0,,0,14,14,154,1,3,word,STORAGE,cursive,storage_c.png,,,,,,
,,,,32195,001,2025-10-16_23h07.12.602,HW_LDT_1,2024.2.4,MacIntel,60.24096386,,,,,,,,,,,,,,,,,,,,,369.3222,369.5199,369.5199,370.0207,,,,,,,,,,,,,,0.5042,1,,,,,,,,,,,,,,m,,,,,,,,,,,,,,,16,0,370.0212,370.5375,m,1,0.5042,,[],[],[],[],[],[],[],370.5376,372.5374,372.5375,372.5377,[],[],[],[],[],[],[],,372.5378,372.5378,-0.061386357,-0.41999626,0,0,0,,0,15,15,135,1,3,word,QUALITY,print,quality_p.png,,,,,,
,,,,32195,001,2025-10-16_23h07.12.602,HW_LDT_1,2024.2.4,MacIntel,60.24096386,,,,,,,,,,,,,,,,,,,,,372.5388,372.7375,372.7375,373.2374,,,,,,,,,,,,,,0.581,0,,,,,,,,,,,,,,m,,,,,,,,,,,,,,,17,0,373.238,373.8197,z,0,0.581,,[],[],[],[],[],[],[],373.8198,375.8207,375.8208,375.821,[],[],[],[],[],[],[],,375.8211,375.8212,-0.061386357,-0.41999626,0,0,0,,0,16,16,143,1,3,word,REMOVAL,cursive,removal_c.png,,,,,,
,,,,32195,001,2025-10-16_23h07.12.602,HW_LDT_1,2024.2.4,MacIntel,60.24096386,,,,,,,,,,,,,,,,,,,,,375.8223,376.0207,376.0207,376.5206,,,,,,,,,,,,,,0.5897,1,,,,,,,,,,,,,,m,,,,,,,,,,,,,,,18,0,376.5211,377.1209,m,1,0.5897,,[],[],[],[],[],[],[],377.121,379.1208,379.1209,379.121,[],[],[],[],[],[],[],,379.121,379.1212,-0.061386357,-0.41999626,0,0,0,,0,17,17,88,1,3,word,CAMERA,cursive,camera_c.png,,,,,,
,,,,32195,001,2025-10-16_23h07.12.602,HW_LDT_1,2024.2.4,MacIntel,60.24096386,,,,,,,,,,,,,,,,,,,,,379.1223,379.3207,379.3207,379.8208,,,,,,,,,,,,,,0.5354,1,,,,,,,,,,,,,,m,,,,,,,,,,,,,,,19,0,379.8213,380.3698,m,1,0.5354,,[],[],[],[],[],[],[],380.3699,382.3707,382.3707,382.371,[],[],[],[],[],[],[],,382.371,382.3711,-0.061386357,-0.41999626,0,0,0,,0,18,18,131,1,3,word,POPULAR,print,popular_p.png,,,,,,
,,,,32195,001,2025-10-16_23h07.12.602,HW_LDT_1,2024.2.4,MacIntel,60.24096386,,,,,,,,,,,,,,,,,,,,,382.3723,382.5708,382.5709,383.0707,,,,,,,,,,,,,,0.5207,1,,,,,,,,,,,,,,m,,,,,,,,,,,,,,,20,0,383.0713,383.6032,m,1,0.5207,,[],[],[],[],[],[],[],383.6033,385.6041,385.6041,385.6044,[],[],[],[],[],[],[],,385.6044,385.6045,-0.061386357,-0.41999626,0,0,0,,0,19,19,85,1,3,word,BENEFIT,print,benefit_p.png,,,,,,
,,,,32195,001,2025-10-16_23h07.12.602,HW_LDT_1,2024.2.4,MacIntel,60.24096386,,,,,,,,,,,,,,,,,,,,,385.6056,385.8041,385.8041,386.3031,,,,,,,,,,,,,,0.7048,0,,,,,,,,,,,,,,m,,,,,,,,,,,,,,,21,0,386.3036,387.0201,z,0,0.7048,,[],[],[],[],[],[],[],387.0201,389.0201,389.0202,389.0203,[],[],[],[],[],[],[],,389.0203,389.0205,-0.061386357,-0.41999626,0,0,0,,0,20,20,117,1,3,word,MARINE,cursive,marine_c.png,,,,,,
,,,,32195,001,2025-10-16_23h07.12.602,HW_LDT_1,2024.2.4,MacIntel,60.24096386,,,,,,,,,,,,,,,,,,,,,389.0215,389.2206,389.2207,389.7207,,,,,,,,,,,,,,0.8374,0,,,,,,,,,,,,,,m,,,,,,,,,,,,,,,22,0,389.7212,390.5707,z,0,0.8374,,[],[],[],[],[],[],[],390.5708,392.5708,392.5708,392.571,[],[],[],[],[],[],[],,392.5711,392.5712,-0.061386357,-0.41999626,0,0,0,,0,21,21,114,1,3,word,LOCATE,cursive,locate_c.png,,,,,,
,,,,32195,001,2025-10-16_23h07.12.602,HW_LDT_1,2024.2.4,MacIntel,60.24096386,,,,,,,,,,,,,,,,,,,,,392.5722,392.7699,392.77,393.2699,,,,,,,,,,,,,,0.6639,1,,,,,,,,,,,,,,z,,,,,,,,,,,,,,,23,0,393.2704,393.9364,z,1,0.6639,,[],[],[],[],[],[],[],393.9364,395.9364,395.9365,395.9367,[],[],[],[],[],[],[],,395.9367,395.9368,-0.061386357,-0.41999626,0,0,0,,0,22,22,22,1,3,RL,procogal,print,procogal_p.png,,,,,,
,,,,32195,001,2025-10-16_23h07.12.602,HW_LDT_1,2024.2.4,MacIntel,60.24096386,,,,,,,,,,,,,,,,,,,,,395.9379,396.1373,396.1374,396.6374,,,,,,,,,,,,,,0.648,1,,,,,,,,,,,,,,z,,,,,,,,,,,,,,,24,0,396.6379,397.2866,z,1,0.648,,[],[],[],[],[],[],[],397.2867,399.2874,399.2874,399.2876,[],[],[],[],[],[],[],,399.2876,399.2878,-0.061386357,-0.41999626,0,0,0,,0,23,23,79,1,3,TL,veretan,cursive,veretan_c.png,,,,,,
,,,,32195,001,2025-10-16_23h07.12.602,HW_LDT_1,2024.2.4,MacIntel,60.24096386,,,,,,,,,,,,,,,,,,,,,399.2888,399.4874,399.4875,399.9873,,,,,,,,,,,,,,1.0214,1,,,,,,,,,,,,,,z,,,,,,,,,,,,,,,25,0,399.9878,401.0207,z,1,1.0214,,[],[],[],[],[],[],[],401.0209,403.0201,403.0201,403.0203,[],[],[],[],[],[],[],,403.0203,403.0204,-0.061386357,-0.41999626,0,0,0,,0,24,24,17,1,3,RL,motide,cursive,motide_c.png,,,,,,
,,,,32195,001,2025-10-16_23h07.12.602,HW_LDT_1,2024.2.4,MacIntel,60.24096386,,,,,,,,,,,,,,,,,,,,,403.0215,403.2198,403.2198,403.7198,,,,,,,,,,,,,,0.5545,1,,,,,,,,,,,,,,m,,,,,,,,,,,,,,,26,0,403.7202,404.2874,m,1,0.5545,,[],[],[],[],[],[],[],404.2874,406.2864,406.2864,406.2866,[],[],[],[],[],[],[],,406.2867,406.2868,-0.061386357,-0.41999626,0,0,0,,0,25,25,134,1,3,word,QUALIFY,print,qualify_p.png,,,,,,
,,,,32195,001,2025-10-16_23h07.12.602,HW_LDT_1,2024.2.4,MacIntel,60.24096386,,,,,,,,,,,,,,,,,,,,,406.2878,406.4866,406.4867,406.9864,,,,,,,,,,,,,,0.9575,0,,,,,,,,,,,,,,m,,,,,,,,,,,,,,,27,0,406.9869,407.9534,z,0,0.9575,,[],[],[],[],[],[],[],407.9535,409.9541,409.9542,409.9545,[],[],[],[],[],[],[],,409.9545,409.9546,-0.061386357,-0.41999626,0,0,0,,0,26,26,120,1,3,word,MILITARY,cursive,military_c.png,,,,,,
,,,,32195,001,2025-10-16_23h07.12.602,HW_LDT_1,2024.2.4,MacIntel,60.24096386,,,,,,,,,,,,,,,,,,,,,409.9556,410.154,410.1541,410.654,,,,,,,,,,,,,,0.8809,0,,,,,,,,,,,,,,z,,,,,,,,,,,,,,,28,0,410.6546,411.5363,m,0,0.8809,,[],[],[],[],[],[],[],411.5363,413.5373,413.5374,413.5376,[],[],[],[],[],[],[],,413.5377,413.5378,-0.061386357,-0.41999626,0,0,0,,0,27,27,11,1,3,RL,ebiwent,cursive,ebiwent_c.png,,,,,,
,,,,32195,001,2025-10-16_23h07.12.602,HW_LDT_1,2024.2.4,MacIntel,60.24096386,,,,,,,,,,,,,,,,,,,,,413.5387,413.7364,413.7365,414.2373,,,,,,,,,,,,,,0.6544,1,,,,,,,,,,,,,,z,,,,,,,,,,,,,,,29,0,414.2378,414.9031,z,1,0.6544,,[],[],[],[],[],[],[],414.9033,416.904,416.9041,416.9042,[],[],[],[],[],[],[],,416.9044,416.9044,-0.061386357,-0.41999626,0,0,0,,0,28,28,19,1,3,RL,opcifal,cursive,opcifal_c.png,,,,,,
,,,,32195,001,2025-10-16_23h07.12.602,HW_LDT_1,2024.2.4,MacIntel,60.24096386,,,,,,,,,,,,,,,,,,,,,416.9057,417.1039,417.1039,417.6039,,,,,,,,,,,,,,0.5059,1,,,,,,,,,,,,,,m,,,,,,,,,,,,,,,30,1,417.6046,418.1198,m,1,0.5059,,[],[],[],[],[],[],[],418.1199,420.1197,420.1198,422.3707,[],[],[],[],[],[],[],z,422.3708,422.3709,-0.061386357,-0.41999626,0,0,0,,0,29,29,82,1,3,word,AMATEUR,print,amateur_p.png,2.2423,,,,,
,,,,32195,001,2025-10-16_23h07.12.602,HW_LDT_1,2024.2.4,MacIntel,60.24096386,,,,,,,,,,,,,,,,,,,,,422.3722,422.5697,422.5697,423.0706,,,,,,,,,,,,,,0.6741,1,,,,,,,,,,,,,,z,,,,,,,,,,,,,,,31,1,423.0711,423.7531,z,1,0.6741,,[],[],[],[],[],[],[],423.7532,425.753,425.7531,426.7872,[],[],[],[],[],[],[],m,426.7873,426.7873,-0.061386357,-0.41999626,0,0,0,,0,30,30,45,1,3,TL,dentisy,print,dentisy_p.png,1.0329,,,,,
,,,,32195,001,2025-10-16_23h07.12.602,HW_LDT_1,2024.2.4,MacIntel,60.24096386,,,,,,,,,,,,,,,,,,,,,426.7882,426.9872,426.9873,427.4863,,,,,,,,,,,,,,0.8986,1,,,,,,,,,,,,,,z,,,,,,,,,,,,,,,32,0,427.4867,428.3862,z,1,0.8986,,[],[],[],[],[],[],[],428.3863,430.3873,430.3874,430.3876,[],[],[],[],[],[],[],,430.3876,430.3877,-0.061386357,-0.41999626,0,0,0,,0,31,31,58,1,3,TL,nuremical,print,nuremical_p.png,,,,,,
,,,,32195,001,2025-10-16_23h07.12.602,HW_LDT_1,2024.2.4,MacIntel,60.24096386,,,,,,,,,,,,,,,,,,,,,430.3888,430.5872,430.5873,431.0873,,,,,,,,,,,,,,0.5864,1,,,,,,,,,,,,,,m,,,,,,,,,,,,,,,33,0,431.0878,431.6864,m,1,0.5864,,[],[],[],[],[],[],[],431.6864,433.6872,433.6872,433.6874,[],[],[],[],[],[],[],,433.6875,433.6875,-0.061386357,-0.41999626,0,0,0,,0,32,32,102,1,3,word,DENSITY,print,density_p.png,,,,,,
,,,,32195,001,2025-10-16_23h07.12.602,HW_LDT_1,2024.2.4,MacIntel,60.24096386,,,,,,,,,,,,,,,,,,,,,433.6886,433.8873,433.8874,434.3863,,,,,,,,,,,,,,0.7595,1,,,,,,,,,,,,,,z,,,,,,,,,,,,,,,34,0,434.3868,435.154,z,1,0.7595,,[],[],[],[],[],[],[],435.1541,437.1539,437.154,437.1542,[],[],[],[],[],[],[],,437.1542,437.1542,-0.061386357,-0.41999626,0,0,0,,0,33,33,55,1,3,TL,mecidine,print,mecidine_p.png,,,,,,
,,,,32195,001,2025-10-16_23h07.12.602,HW_LDT_1,2024.2.4,MacIntel,60.24096386,,,,,,,,,,,,,,,,,,,,,437.1554,437.3531,437.3531,437.8539,,,,,,,,,,,,,,0.7206,1,,,,,,,,,,,,,,m,,,,,,,,,,,,,,,35,0,437.8545,438.5874,m,1,0.7206,,[],[],[],[],[],[],[],438.5874,440.5872,440.5873,440.5875,[],[],[],[],[],[],[],,440.5875,440.5875,-0.061386357,-0.41999626,0,0,0,,0,34,34,153,1,3,word,STOLEN,cursive,stolen_c.png,,,,,,
,,,,32195,001,2025-10-16_23h07.12.602,HW_LDT_1,2024.2.4,MacIntel,60.24096386,,,,,,,,,,,,,,,,,,,,,440.5887,440.7863,440.7864,441.2872,,,,,,,,,,,,,,0.6144,1,,,,,,,,,,,,,,m,,,,,,,,,,,,,,,36,0,441.2877,441.9038,m,1,0.6144,,[],[],[],[],[],[],[],441.9039,443.903,443.9031,443.9032,[],[],[],[],[],[],[],,443.9033,443.9033,-0.061386357,-0.41999626,0,0,0,,0,35,35,132,1,3,word,PROPOSAL,print,proposal_p.png,,,,,,
,,,,32195,001,2025-10-16_23h07.12.602,HW_LDT_1,2024.2.4,MacIntel,60.24096386,,,,,,,,,,,,,,,,,,,,,443.9044,444.1039,444.104,444.6039,,,,,,,,,,,,,,0.8075,1,,,,,,,,,,,,,,z,,,,,,,,,,,,,,,37,0,444.6044,445.4196,z,1,0.8075,,[],[],[],[],[],[],[],445.4198,447.4205,447.4205,447.4208,[],[],[],[],[],[],[],,447.4208,447.4209,-0.061386357,-0.41999626,0,0,0,,0,36,36,33,1,3,TL,adsivory,print,adsivory_p.png,,,,,,
,,,,32195,001,2025-10-16_23h07.12.602,HW_LDT_1,2024.2.4,MacIntel,60.24096386,,,,,,,,,,,,,,,,,,,,,447.4219,447.6205,447.6206,448.1205,,,,,,,,,,,,,,0.6041,1,,,,,,,,,,,,,,z,,,,,,,,,,,,,,,38,0,448.121,448.7372,z,1,0.6041,,[],[],[],[],[],[],[],448.7373,450.7372,450.7373,450.7375,[],[],[],[],[],[],[],,450.7375,450.7376,-0.061386357,-0.41999626,0,0,0,,0,37,37,24,1,3,RL,quafidy,print,quafidy_p.png,,,,,,
,,,,32195,001,2025-10-16_23h07.12.602,HW_LDT_1,2024.2.4,MacIntel,60.24096386,,,,,,,,,,,,,,,,,,,,,450.7387,450.9372,450.9372,451.4372,,,,,,,,,,,,,,0.5032,1,,,,,,,,,,,,,,m,,,,,,,,,,,,,,,39,0,451.4377,451.953,m,1,0.5032,,[],[],[],[],[],[],[],451.9531,453.9538,453.9539,453.9541,[],[],[],[],[],[],[],,453.9541,453.9542,-0.061386357,-0.41999626,0,0,0,,0,38,38,139,1,3,word,REGULAR,print,regular_p.png,,,,,,
,,,,32195,001,2025-10-16_23h07.12.602,HW_LDT_1,2024.2.4,MacIntel,60.24096386,,,,,,,,,,,,,,,,,,,,,453.9553,454.154,454.154,454.6539,,,,,,,,,,,,,,0.6209,1,,,,,,,,,,,,,,z,,,,,,,,,,,,,,,40,1,454.6543,455.2863,z,1,0.6209,,[],[],[],[],[],[],[],455.2864,457.2872,457.2872,458.1206,[],[],[],[],[],[],[],m,458.1207,458.1208,-0.061386357,-0.41999626,0,0,0,,0,39,39,61,1,3,TL,pocily,print,pocily_p.png,0.8207,,,,,
,,,,32195,001,2025-10-16_23h07.12.602,HW_LDT_1,2024.2.4,MacIntel,60.24096386,,,,,,,,,,,,,,,,,,,,,458.1219,458.3205,458.3206,458.8196,,,,,,,,,,,,,,0.9979,0,,,,,,,,,,,,,,m,,,,,,,,,,,,,,,41,0,458.8202,459.8204,z,0,0.9979,,[],[],[],[],[],[],[],459.8205,461.8205,461.8205,461.8208,[],[],[],[],[],[],[],,461.8208,461.8209,-0.061386357,-0.41999626,0,0,0,,0,40,40,126,1,3,word,OPTIMAL,cursive,optimal_c.png,,,,,,
,,,,32195,001,2025-10-16_23h07.12.602,HW_LDT_1,2024.2.4,MacIntel,60.24096386,,,,,,,,,,,,,,,,,,,,,461.822,462.0195,462.0196,462.5205,,,,,,,,,,,,,,0.6583,1,,,,,,,,,,,,,,m,,,,,,,,,,,,,,,42,0,462.5211,463.1871,m,1,0.6583,,[],[],[],[],[],[],[],463.1872,465.1872,465.1872,465.1874,[],[],[],[],[],[],[],,465.1875,465.1875,-0.061386357,-0.41999626,0,0,0,,0,41,41,159,1,3,word,VETERAN,cursive,veteran_c.png,,,,,,
,,,,32195,001,2025-10-16_23h07.12.602,HW_LDT_1,2024.2.4,MacIntel,60.24096386,,,,,,,,,,,,,,,,,,,,,465.1886,465.3872,465.3872,465.8871,,,,,,,,,,,,,,0.6705,0,,,,,,,,,,,,,,m,,,,,,,,,,,,,,,43,0,465.8877,466.5701,z,0,0.6705,,[],[],[],[],[],[],[],466.5702,468.5706,468.5707,468.5708,[],[],[],[],[],[],[],,468.571,468.571,-0.061386357,-0.41999626,0,0,0,,0,42,42,121,1,3,word,MISTAKE,cursive,mistake_c.png,,,,,,
,,,,32195,001,2025-10-16_23h07.12.602,HW_LDT_1,2024.2.4,MacIntel,60.24096386,,,,,,,,,,,,,,,,,,,,,468.5721,468.7705,468.7705,469.2701,,,,,,,,,,,,,,0.5561,1,,,,,,,,,,,,,,m,,,,,,,,,,,,,,,44,0,469.2707,469.8373,m,1,0.5561,,[],[],[],[],[],[],[],469.8373,471.8361,471.8363,471.8364,[],[],[],[],[],[],[],,471.8364,471.8366,-0.061386357,-0.41999626,0,0,0,,0,43,43,129,1,3,word,PARENT,print,parent_p.png,,,,,,
,,,,32195,001,2025-10-16_23h07.12.602,HW_LDT_1,2024.2.4,MacIntel,60.24096386,,,,,,,,,,,,,,,,,,,,,471.8376,472.0372,472.0372,472.5362,,,,,,,,,,,,,,0.6246,0,,,,,,,,,,,,,,m,,,,,,,,,,,,,,,45,0,472.5367,473.1706,z,0,0.6246,,[],[],[],[],[],[],[],473.1707,475.1696,475.1696,475.1698,[],[],[],[],[],[],[],,475.1699,475.1699,-0.061386357,-0.41999626,0,0,0,,0,44,44,93,1,3,word,CEREMONY,cursive,ceremony_c.png,,,,,,
,,,,32195,001,2025-10-16_23h07.12.602,HW_LDT_1,2024.2.4,MacIntel,60.24096386,,,,,,,,,,,,,,,,,,,,,475.171,475.3705,475.3705,475.8705,,,,,,,,,,,,,,0.5573,1,,,,,,,,,,,,,,m,,,,,,,,,,,,,,,46,0,475.8709,476.4369,m,1,0.5573,,[],[],[],[],[],[],[],476.437,478.4372,478.4372,478.4374,[],[],[],[],[],[],[],,478.4375,478.4375,-0.061386357,-0.41999626,0,0,0,,0,45,45,94,1,3,word,CLINICAL,print,clinical_p.png,,,,,,
,,,,32195,001,2025-10-16_23h07.12.602,HW_LDT_1,2024.2.4,MacIntel,60.24096386,,,,,,,,,,,,,,,,,,,,,478.4387,478.6372,478.6372,479.1372,,,,,,,,,,,,,,0.7374,1,,,,,,,,,,,,,,z,,,,,,,,,,,,,,,47,1,479.1376,479.8872,z,1,0.7374,,[],[],[],[],[],[],[],479.8873,481.8872,481.8872,482.7705,[],[],[],[],[],[],[],m,482.7706,482.7706,-0.061386357,-0.41999626,0,0,0,,0,46,46,53,1,3,TL,marnigal,print,marnigal_p.png,0.8795,,,,,
,,,,32195,001,2025-10-16_23h07.12.602,HW_LDT_1,2024.2.4,MacIntel,60.24096386,,,,,,,,,,,,,,,,,,,,,482.7716,482.9695,482.9695,483.47,,,,,,,,,,,,,,0.5713,1,,,,,,,,,,,,,,m,,,,,,,,,,,,,,,48,1,483.4705,484.053,m,1,0.5713,,[],[],[],[],[],[],[],484.0531,486.0538,486.0539,486.7695,[],[],[],[],[],[],[],m,486.7695,486.7697,-0.061386357,-0.41999626,0,0,0,,0,47,47,141,1,3,word,RELIGION,print,religion_p.png,0.7134,,,,,
,,,,32195,001,2025-10-16_23h07.12.602,HW_LDT_1,2024.2.4,MacIntel,60.24096386,,,,,,,,,,,,,,,,,,,,,486.7706,486.9704,486.9706,487.4703,,,,,,,,,,,,,,1.241,0,,,,,,,,,,,,,,m,,,,,,,,,,,,,,,49,0,487.4708,488.7196,z,0,1.241,,[],[],[],[],[],[],[],488.7197,490.7205,490.7205,490.7208,[],[],[],[],[],[],[],,490.7208,490.7209,-0.061386357,-0.41999626,0,0,0,,0,48,48,140,1,3,word,RELATIVE,cursive,relative_c.png,,,,,,
,,,,32195,001,2025-10-16_23h07.12.602,HW_LDT_1,2024.2.4,MacIntel,60.24096386,,,,,,,,,,,,,,,,,,,,,490.722,490.9204,490.9205,491.4199,,,,,,,,,,,,,,0.5382,1,,,,,,,,,,,,,,m,,,,,,,,,,,,,,,50,0,491.4204,491.9705,m,1,0.5382,,[],[],[],[],[],[],[],491.9706,493.9705,493.9705,493.9706,[],[],[],[],[],[],[],,493.9707,493.9707,-0.061386357,-0.41999626,0,0,0,,0,49,49,142,1,3,word,REMOTE,print,remote_p.png,,,,,,
,,,,32195,001,2025-10-16_23h07.12.602,HW_LDT_1,2024.2.4,MacIntel,60.24096386,,,,,,,,,,,,,,,,,,,,,493.9719,494.1705,494.1705,494.6704,,,,,,,,,,,,,,0.7201,1,,,,,,,,,,,,,,z,,,,,,,,,,,,,,,51,0,494.6709,495.404,z,1,0.7201,,[],[],[],[],[],[],[],495.4041,497.4038,497.4039,497.404,[],[],[],[],[],[],[],,497.4041,497.4041,-0.061386357,-0.41999626,0,0,0,,0,50,50,29,1,3,RL,selamor,cursive,selamor_c.png,,,,,,
,,,,32195,001,2025-10-16_23h07.12.602,HW_LDT_1,2024.2.4,MacIntel,60.24096386,,,,,,,,,,,,,,,,,,,,,497.4051,497.6036,497.6036,498.1037,,,,,,,,,,,,,,0.5893,1,,,,,,,,,,,,,,z,,,,,,,,,,,,,,,52,1,498.1043,498.7039,z,1,0.5893,,[],[],[],[],[],[],[],498.7039,500.7038,500.7039,501.4701,[],[],[],[],[],[],[],m,501.4701,501.4702,-0.061386357,-0.41999626,0,0,0,,0,51,51,2,1,3,RL,betemit,print,betemit_p.png,0.7535,,,,,
,,,,32195,001,2025-10-16_23h07.12.602,HW_LDT_1,2024.2.4,MacIntel,60.24096386,,,,,,,,,,,,,,,,,,,,,501.4712,501.6703,501.6704,502.1705,,,,,,,,,,,,,,0.6308,1,,,,,,,,,,,,,,z,,,,,,,,,,,,,,,53,0,502.1709,502.8027,z,1,0.6308,,[],[],[],[],[],[],[],502.8028,504.8037,504.8038,504.804,[],[],[],[],[],[],[],,504.8041,504.8041,-0.061386357,-0.41999626,0,0,0,,0,52,52,21,1,3,RL,potugar,print,potugar_p.png,,,,,,
,,,,32195,001,2025-10-16_23h07.12.602,HW_LDT_1,2024.2.4,MacIntel,60.24096386,,,,,,,,,,,,,,,,,,,,,504.8054,505.0037,505.0038,505.5037,,,,,,,,,,,,,,0.5138,1,,,,,,,,,,,,,,m,,,,,,,,,,,,,,,54,0,505.5043,506.0204,m,1,0.5138,,[],[],[],[],[],[],[],506.0205,508.0195,508.0196,508.0198,[],[],[],[],[],[],[],,508.0198,508.0199,-0.061386357,-0.41999626,0,0,0,,0,53,53,95,1,3,word,COMEDY,print,comedy_p.png,,,,,,
,,,,32195,001,2025-10-16_23h07.12.602,HW_LDT_1,2024.2.4,MacIntel,60.24096386,,,,,,,,,,,,,,,,,,,,,508.021,508.2204,508.2204,508.7204,,,,,,,,,,,,,,0.8868,1,,,,,,,,,,,,,,z,,,,,,,,,,,,,,,55,0,508.7208,509.6204,z,1,0.8868,,[],[],[],[],[],[],[],509.6206,511.6204,511.6204,511.6207,[],[],[],[],[],[],[],,511.6207,511.6209,-0.061386357,-0.41999626,0,0,0,,0,54,54,76,1,3,TL,stogare,cursive,stogare_c.png,,,,,,
,,,,32195,001,2025-10-16_23h07.12.602,HW_LDT_1,2024.2.4,MacIntel,60.24096386,,,,,,,,,,,,,,,,,,,,,511.6218,511.8203,511.8204,512.3195,,,,,,,,,,,,,,0.5549,1,,,,,,,,,,,,,,z,,,,,,,,,,,,,,,56,0,512.3198,512.8871,z,1,0.5549,,[],[],[],[],[],[],[],512.8872,514.8871,514.8872,514.8873,[],[],[],[],[],[],[],,514.8874,514.8874,-0.061386357,-0.41999626,0,0,0,,0,55,55,15,1,3,RL,mifikary,cursive,mifikary_c.png,,,,,,
,,,,32195,001,2025-10-16_23h07.12.602,HW_LDT_1,2024.2.4,MacIntel,60.24096386,,,,,,,,,,,,,,,,,,,,,514.8885,515.0871,515.0872,515.5871,,,,,,,,,,,,,,0.8873,1,,,,,,,,,,,,,,m,,,,,,,,,,,,,,,57,0,515.5875,516.4872,m,1,0.8873,,[],[],[],[],[],[],[],516.4873,518.4871,518.4871,518.4872,[],[],[],[],[],[],[],,518.4874,518.4874,-0.061386357,-0.41999626,0,0,0,,0,56,56,100,1,3,word,DECADE,cursive,decade_c.png,,,,,,
,,,,32195,001,2025-10-16_23h07.12.602,HW_LDT_1,2024.2.4,MacIntel,60.24096386,,,,,,,,,,,,,,,,,,,,,518.4885,518.6862,518.6862,519.1861,,,,,,,,,,,,,,0.6412,0,,,,,,,,,,,,,,m,,,,,,,,,,,,,,,58,0,519.1866,519.8371,z,0,0.6412,,[],[],[],[],[],[],[],519.8372,521.8362,521.8362,521.8364,[],[],[],[],[],[],[],,521.8365,521.8365,-0.061386357,-0.41999626,0,0,0,,0,57,57,108,1,3,word,FORTUNE,cursive,fortune_c.png,,,,,,
,,,,32195,001,2025-10-16_23h07.12.602,HW_LDT_1,2024.2.4,MacIntel,60.24096386,,,,,,,,,,,,,,,,,,,,,521.8378,522.037,522.037,522.5371,,,,,,,,,,,,,,0.6376,1,,,,,,,,,,,,,,z,,,,,,,,,,,,,,,59,0,522.5376,523.1872,z,1,0.6376,,[],[],[],[],[],[],[],523.1872,525.187,525.1871,525.1872,[],[],[],[],[],[],[],,525.1872,525.1874,-0.061386357,-0.41999626,0,0,0,,0,58,58,41,1,3,TL,crinimal,print,crinimal_p.png,,,,,,
,,,,32195,001,2025-10-16_23h07.12.602,HW_LDT_1,2024.2.4,MacIntel,60.24096386,,,,,,,,,,,,,,,,,,,,,525.1884,525.387,525.3871,525.8871,,,,,,,,,,,,,,0.6209,1,,,,,,,,,,,,,,z,,,,,,,,,,,,,,,60,0,525.8875,526.5204,z,1,0.6209,,[],[],[],[],[],[],[],526.5205,528.5203,528.5204,528.5205,[],[],[],[],[],[],[],,528.5205,528.5207,-0.061386357,-0.41999626,0,0,0,,0,59,59,59,1,3,TL,paficic,cursive,paficic_c.png,,,,,,
,,,,32195,001,2025-10-16_23h07.12.602,HW_LDT_1,2024.2.4,MacIntel,60.24096386,,,,,,,,,,,,,,,,,,,,,528.5217,528.7204,528.7204,529.2194,,,,,,,,,,,,,,0.5709,0,,,,,,,,,,,,,,m,,,,,,,,,,,,,,,61,0,529.2199,529.8037,z,0,0.5709,,[],[],[],[],[],[],[],529.8038,531.8036,531.8036,531.8039,[],[],[],[],[],[],[],,531.804,531.804,-0.061386357,-0.41999626,0,0,0,,0,60,60,109,1,3,word,GRATEFUL,cursive,grateful_c.png,,,,,,
,,,,32195,001,2025-10-16_23h07.12.602,HW_LDT_1,2024.2.4,MacIntel,60.24096386,,,,,,,,,,,,,,,,,,,,,531.805,532.0036,532.0037,532.5037,,,,,,,,,,,,,,0.6222,1,,,,,,,,,,,,,,z,,,,,,,,,,,,,,,62,0,532.5042,533.1371,z,1,0.6222,,[],[],[],[],[],[],[],533.1372,535.1369,535.137,535.1372,[],[],[],[],[],[],[],,535.1373,535.1373,-0.061386357,-0.41999626,0,0,0,,0,61,61,4,1,3,RL,cafigal,cursive,cafigal_c.png,,,,,,
,,,,32195,001,2025-10-16_23h07.12.602,HW_LDT_1,2024.2.4,MacIntel,60.24096386,,,,,,,,,,,,,,,,,,,,,535.1384,535.337,535.337,535.8361,,,,,,,,,,,,,,0.5249,1,,,,,,,,,,,,,,m,,,,,,,,,,,,,,,63,0,535.8366,536.3704,m,1,0.5249,,[],[],[],[],[],[],[],536.3705,538.3703,538.3704,538.3706,[],[],[],[],[],[],[],,538.3706,538.3707,-0.061386357,-0.41999626,0,0,0,,0,62,62,103,1,3,word,DISPUTE,print,dispute_p.png,,,,,,
,,,,32195,001,2025-10-16_23h07.12.602,HW_LDT_1,2024.2.4,MacIntel,60.24096386,,,,,,,,,,,,,,,,,,,,,538.3717,538.5694,538.5694,539.0702,,,,,,,,,,,,,,0.5867,1,,,,,,,,,,,,,,z,,,,,,,,,,,,,,,64,0,539.0707,539.6699,z,1,0.5867,,[],[],[],[],[],[],[],539.67,541.6703,541.6703,541.6705,[],[],[],[],[],[],[],,541.6705,541.6706,-0.061386357,-0.41999626,0,0,0,,0,63,63,8,1,3,RL,cocewage,print,cocewage_p.png,,,,,,
,,,,32195,001,2025-10-16_23h07.12.602,HW_LDT_1,2024.2.4,MacIntel,60.24096386,,,,,,,,,,,,,,,,,,,,,541.6716,541.8703,541.8703,542.3703,,,,,,,,,,,,,,0.6253,1,,,,,,,,,,,,,,z,,,,,,,,,,,,,,,65,0,542.3708,543.0037,z,1,0.6253,,[],[],[],[],[],[],[],543.0037,545.0037,545.0037,545.0039,[],[],[],[],[],[],[],,545.0039,545.004,-0.061386357,-0.41999626,0,0,0,,0,64,64,73,1,3,TL,speficic,print,speficic_p.png,,,,,,
,,,,32195,001,2025-10-16_23h07.12.602,HW_LDT_1,2024.2.4,MacIntel,60.24096386,,,,,,,,,,,,,,,,,,,,,545.005,545.2036,545.2036,545.7027,,,,,,,,,,,,,,0.7717,1,,,,,,,,,,,,,,z,,,,,,,,,,,,,,,66,0,545.7032,546.487,z,1,0.7717,,[],[],[],[],[],[],[],546.4872,548.4869,548.487,548.4871,[],[],[],[],[],[],[],,548.4871,548.4873,-0.061386357,-0.41999626,0,0,0,,0,65,65,30,1,3,RL,strapely,print,strapely_p.png,,,,,,
,,,,32195,001,2025-10-16_23h07.12.602,HW_LDT_1,2024.2.4,MacIntel,60.24096386,,,,,,,,,,,,,,,,,,,,,548.4883,548.687,548.687,549.1869,,,,,,,,,,,,,,0.5878,1,,,,,,,,,,,,,,m,,,,,,,,,,,,,,,67,0,549.1874,549.7871,m,1,0.5878,,[],[],[],[],[],[],[],549.7872,551.787,551.787,551.7872,[],[],[],[],[],[],[],,551.7873,551.7873,-0.061386357,-0.41999626,0,0,0,,0,66,66,156,1,3,word,TRIBUTE,print,tribute_p.png,,,,,,
,,,,32195,001,2025-10-16_23h07.12.602,HW_LDT_1,2024.2.4,MacIntel,60.24096386,,,,,,,,,,,,,,,,,,,,,551.7884,551.987,551.987,552.4861,,,,,,,,,,,,,,1.0149,0,,,,,,,,,,,,,,m,,,,,,,,,,,,,,,68,0,552.4866,553.503,z,0,1.0149,,[],[],[],[],[],[],[],553.5031,555.5037,555.5037,555.5038,[],[],[],[],[],[],[],,555.5039,555.5039,-0.061386357,-0.41999626,0,0,0,,0,67,67,110,1,3,word,HERITAGE,cursive,heritage_c.png,,,,,,
,,,,32195,001,2025-10-16_23h07.12.602,HW_LDT_1,2024.2.4,MacIntel,60.24096386,,,,,,,,,,,,,,,,,,,,,555.505,555.7037,555.7037,556.2036,,,,,,,,,,,,,,1.0373,1,,,,,,,,,,,,,,z,,,,,,,,,,,,,,,69,0,556.2041,557.2537,z,1,1.0373,,[],[],[],[],[],[],[],557.2538,559.2536,559.2536,559.2538,[],[],[],[],[],[],[],,559.2539,559.2539,-0.061386357,-0.41999626,0,0,0,,0,68,68,68,1,3,TL,revomal,cursive,revomal_c.png,,,,,,
,,,,32195,001,2025-10-16_23h07.12.602,HW_LDT_1,2024.2.4,MacIntel,60.24096386,,,,,,,,,,,,,,,,,,,,,559.255,559.4527,559.4528,559.9527,,,,,,,,,,,,,,0.5542,1,,,,,,,,,,,,,,z,,,,,,,,,,,,,,,70,0,559.9531,560.5194,z,1,0.5542,,[],[],[],[],[],[],[],560.5195,562.5193,562.5194,562.5196,[],[],[],[],[],[],[],,562.5197,562.5197,-0.061386357,-0.41999626,0,0,0,,0,69,69,7,1,3,RL,cobeny,print,cobeny_p.png,,,,,,
,,,,32195,001,2025-10-16_23h07.12.602,HW_LDT_1,2024.2.4,MacIntel,60.24096386,,,,,,,,,,,,,,,,,,,,,562.5208,562.7203,562.7203,563.2201,,,,,,,,,,,,,,0.6212,1,,,,,,,,,,,,,,z,,,,,,,,,,,,,,,71,0,563.2203,563.8528,z,1,0.6212,,[],[],[],[],[],[],[],563.8529,565.8536,565.8536,565.8538,[],[],[],[],[],[],[],,565.8539,565.854,-0.061386357,-0.41999626,0,0,0,,0,70,70,40,1,3,TL,condiser,print,condiser_p.png,,,,,,
,,,,32195,001,2025-10-16_23h07.12.602,HW_LDT_1,2024.2.4,MacIntel,60.24096386,,,,,,,,,,,,,,,,,,,,,565.855,566.0537,566.0537,566.5526,,,,,,,,,,,,,,0.5247,1,,,,,,,,,,,,,,m,,,,,,,,,,,,,,,72,0,566.5532,567.087,m,1,0.5247,,[],[],[],[],[],[],[],567.0871,569.087,569.0871,569.0872,[],[],[],[],[],[],[],,569.0872,569.0873,-0.061386357,-0.41999626,0,0,0,,0,71,71,138,1,3,word,REFUSAL,print,refusal_p.png,,,,,,
,,,,32195,001,2025-10-16_23h07.12.602,HW_LDT_1,2024.2.4,MacIntel,60.24096386,,,,,,,,,,,,,,,,,,,,,569.0884,569.287,569.287,569.786,,,,,,,,,,,,,,0.599,1,,,,,,,,,,,,,,z,,,,,,,,,,,,,,,73,0,569.7865,570.3867,z,1,0.599,,[],[],[],[],[],[],[],570.3867,572.386,572.3861,572.3862,[],[],[],[],[],[],[],,572.3863,572.3864,-0.061386357,-0.41999626,0,0,0,,0,72,72,67,1,3,TL,retome,print,retome_p.png,,,,,,
,,,,32195,001,2025-10-16_23h07.12.602,HW_LDT_1,2024.2.4,MacIntel,60.24096386,,,,,,,,,,,,,,,,,,,,,572.3874,572.587,572.587,573.0868,,,,,,,,,,,,,,0.6374,1,,,,,,,,,,,,,,z,,,,,,,,,,,,,,,74,0,573.0873,573.7369,z,1,0.6374,,[],[],[],[],[],[],[],573.737,575.7369,575.7369,575.7371,[],[],[],[],[],[],[],,575.7371,575.7372,-0.061386357,-0.41999626,0,0,0,,0,73,73,65,1,3,TL,resufal,print,resufal_p.png,,,,,,
,,,,32195,001,2025-10-16_23h07.12.602,HW_LDT_1,2024.2.4,MacIntel,60.24096386,,,,,,,,,,,,,,,,,,,,,575.7383,575.937,575.937,576.4369,,,,,,,,,,,,,,0.753,1,,,,,,,,,,,,,,m,,,,,,,,,,,,,,,75,0,576.4375,577.2036,m,1,0.753,,[],[],[],[],[],[],[],577.2037,579.2035,579.2036,579.2037,[],[],[],[],[],[],[],,579.2038,579.2039,-0.061386357,-0.41999626,0,0,0,,0,74,74,158,1,3,word,VELOCITY,cursive,velocity_c.png,,,,,,
,,,,32195,001,2025-10-16_23h07.12.602,HW_LDT_1,2024.2.4,MacIntel,60.24096386,,,,,,,,,,,,,,,,,,,,,579.2049,579.4036,579.4037,579.9035,,,,,,,,,,,,,,1.3246,1,,,,,,,,,,,,,,z,,,,,,,,,,,,,,,76,0,579.9041,581.2369,z,1,1.3246,,[],[],[],[],[],[],[],581.237,583.2368,583.2369,583.237,[],[],[],[],[],[],[],,583.237,583.2371,-0.061386357,-0.41999626,0,0,0,,0,75,75,20,1,3,RL,orimipal,cursive,orimipal_c.png,,,,,,
,,,,32195,001,2025-10-16_23h07.12.602,HW_LDT_1,2024.2.4,MacIntel,60.24096386,,,,,,,,,,,,,,,,,,,,,583.2382,583.4369,583.4369,583.9368,,,,,,,,,,,,,,0.6408,1,,,,,,,,,,,,,,z,,,,,,,,,,,,,,,77,0,583.9373,584.5869,z,1,0.6408,,[],[],[],[],[],[],[],584.587,586.5868,586.5869,586.5871,[],[],[],[],[],[],[],,586.5871,586.5872,-0.061386357,-0.41999626,0,0,0,,0,76,76,18,1,3,RL,onegator,print,onegator_p.png,,,,,,
,,,,32195,001,2025-10-16_23h07.12.602,HW_LDT_1,2024.2.4,MacIntel,60.24096386,,,,,,,,,,,,,,,,,,,,,586.5881,586.7868,586.7868,587.286,,,,,,,,,,,,,,0.5874,1,,,,,,,,,,,,,,m,,,,,,,,,,,,,,,78,0,587.2865,587.886,m,1,0.5874,,[],[],[],[],[],[],[],587.886,589.8869,589.8869,589.8871,[],[],[],[],[],[],[],,589.8871,589.8872,-0.061386357,-0.41999626,0,0,0,,0,77,77,124,1,3,word,NUMERICAL,print,numerical_p.png,,,,,,
,,,,32195,001,2025-10-16_23h07.12.602,HW_LDT_1,2024.2.4,MacIntel,60.24096386,,,,,,,,,,,,,,,,,,,,,589.8882,590.0868,590.0869,590.5868,,,,,,,,,,,,,,0.5732,1,,,,,,,,,,,,,,z,,,,,,,,,,,,,,,79,1,590.5873,591.1703,z,1,0.5732,,[],[],[],[],[],[],[],591.1705,593.1701,593.1702,594.02,[],[],[],[],[],[],[],m,594.02,594.0201,-0.061386357,-0.41999626,0,0,0,,0,78,78,9,1,3,RL,docirant,print,docirant_p.png,0.8468,,,,,
,,,,32195,001,2025-10-16_23h07.12.602,HW_LDT_1,2024.2.4,MacIntel,60.24096386,,,,,,,,,,,,,,,,,,,,,594.0211,594.2201,594.2201,594.7202,,,,,,,,,,,,,,0.9385,0,,,,,,,,,,,,,,m,,,,,,,,,,,,,,,80,0,594.7207,595.6703,z,0,0.9385,,[],[],[],[],[],[],[],595.6704,597.6702,597.6702,597.6703,[],[],[],[],[],[],[],,597.6704,645.837,-0.061386357,-0.41999626,0,0,0,space,0,79,79,149,1,3,word,SENATOR,cursive,senator_c.png,,,48.1395,,,
,,,,32195,001,2025-10-16_23h07.12.602,HW_LDT_1,2024.2.4,MacIntel,60.24096386,,,,,,,,,,,,,,,,,,,,,645.838,646.0357,646.0359,646.5367,,,,,,,,,,,,,,0.8707,1,,,,,,,,,,,,,,z,,,,,,,,,,,,,,,81,1,646.5373,647.4202,z,1,0.8707,,[],[],[],[],[],[],[],647.4203,649.4201,649.4201,650.2868,[],[],[],[],[],[],[],m,650.2868,650.287,-0.061386357,-0.41999626,0,0,0,,0,80,80,49,1,3,TL,incidate,print,incidate_p.png,0.8546,,,,,
,,,,32195,001,2025-10-16_23h07.12.602,HW_LDT_1,2024.2.4,MacIntel,60.24096386,,,,,,,,,,,,,,,,,,,,,650.288,650.4867,650.4867,650.9857,,,,,,,,,,,,,,1.4311,1,,,,,,,,,,,,,,z,,,,,,,,,,,,,,,82,0,650.9862,652.4199,z,1,1.4311,,[],[],[],[],[],[],[],652.42,654.42,654.4201,654.4202,[],[],[],[],[],[],[],,654.4203,654.4203,-0.061386357,-0.41999626,0,0,0,,0,81,81,48,1,3,TL,grafetul,cursive,grafetul_c.png,,,,,,
,,,,32195,001,2025-10-16_23h07.12.602,HW_LDT_1,2024.2.4,MacIntel,60.24096386,,,,,,,,,,,,,,,,,,,,,654.4214,654.62,654.62,655.12,,,,,,,,,,,,,,0.6197,1,,,,,,,,,,,,,,z,,,,,,,,,,,,,,,83,0,655.1205,655.7525,z,1,0.6197,,[],[],[],[],[],[],[],655.7525,657.7533,657.7534,657.7535,[],[],[],[],[],[],[],,657.7536,657.7537,-0.061386357,-0.41999626,0,0,0,,0,82,82,10,1,3,RL,efibor,print,efibor_p.png,,,,,,
,,,,32195,001,2025-10-16_23h07.12.602,HW_LDT_1,2024.2.4,MacIntel,60.24096386,,,,,,,,,,,,,,,,,,,,,657.7547,657.9533,657.9533,658.4533,,,,,,,,,,,,,,0.5532,1,,,,,,,,,,,,,,m,,,,,,,,,,,,,,,84,0,658.4538,659.0192,m,1,0.5532,,[],[],[],[],[],[],[],659.0192,661.02,661.0201,661.0203,[],[],[],[],[],[],[],,661.0203,661.0204,-0.061386357,-0.41999626,0,0,0,,0,83,83,104,1,3,word,DOMINANT,print,dominant_p.png,,,,,,
,,,,32195,001,2025-10-16_23h07.12.602,HW_LDT_1,2024.2.4,MacIntel,60.24096386,,,,,,,,,,,,,,,,,,,,,661.0214,661.2199,661.22,661.72,,,,,,,,,,,,,,0.5874,1,,,,,,,,,,,,,,z,,,,,,,,,,,,,,,85,0,661.7205,662.32,z,1,0.5874,,[],[],[],[],[],[],[],662.3202,664.3201,664.3201,664.3202,[],[],[],[],[],[],[],,664.3204,664.3204,-0.061386357,-0.41999626,0,0,0,,0,84,84,42,1,3,TL,detabe,cursive,detabe_c.png,,,,,,
,,,,32195,001,2025-10-16_23h07.12.602,HW_LDT_1,2024.2.4,MacIntel,60.24096386,,,,,,,,,,,,,,,,,,,,,664.3215,664.5199,664.52,665.02,,,,,,,,,,,,,,0.6538,1,,,,,,,,,,,,,,z,,,,,,,,,,,,,,,86,0,665.0205,665.6868,z,1,0.6538,,[],[],[],[],[],[],[],665.6868,667.6866,667.6867,667.6869,[],[],[],[],[],[],[],,667.6869,667.687,-0.061386357,-0.41999626,0,0,0,,0,85,85,44,1,3,TL,decilate,print,decilate_p.png,,,,,,
,,,,32195,001,2025-10-16_23h07.12.602,HW_LDT_1,2024.2.4,MacIntel,60.24096386,,,,,,,,,,,,,,,,,,,,,667.6881,667.8866,667.8866,668.3866,,,,,,,,,,,,,,0.5211,1,,,,,,,,,,,,,,m,,,,,,,,,,,,,,,87,0,668.3871,668.9191,m,1,0.5211,,[],[],[],[],[],[],[],668.9192,670.92,670.92,670.9201,[],[],[],[],[],[],[],,670.9201,670.9203,-0.061386357,-0.41999626,0,0,0,,0,86,86,101,1,3,word,DELICATE,print,delicate_p.png,,,,,,
,,,,32195,001,2025-10-16_23h07.12.602,HW_LDT_1,2024.2.4,MacIntel,60.24096386,,,,,,,,,,,,,,,,,,,,,670.9213,671.1199,671.12,671.6199,,,,,,,,,,,,,,0.5869,1,,,,,,,,,,,,,,m,,,,,,,,,,,,,,,88,0,671.6205,672.2191,m,1,0.5869,,[],[],[],[],[],[],[],672.2192,674.2191,674.2191,674.2193,[],[],[],[],[],[],[],,674.2193,674.2194,-0.061386357,-0.41999626,0,0,0,,0,87,87,155,1,3,word,STRATEGY,print,strategy_p.png,,,,,,
,,,,32195,001,2025-10-16_23h07.12.602,HW_LDT_1,2024.2.4,MacIntel,60.24096386,,,,,,,,,,,,,,,,,,,,,674.2205,674.4199,674.42,674.9191,,,,,,,,,,,,,,0.538,1,,,,,,,,,,,,,,m,,,,,,,,,,,,,,,89,0,674.9197,675.4699,m,1,0.538,,[],[],[],[],[],[],[],675.4699,677.47,677.47,677.4702,[],[],[],[],[],[],[],,677.4702,677.4703,-0.061386357,-0.41999626,0,0,0,,0,88,88,125,1,3,word,OPERATOR,print,operator_p.png,,,,,,
,,,,32195,001,2025-10-16_23h07.12.602,HW_LDT_1,2024.2.4,MacIntel,60.24096386,,,,,,,,,,,,,,,,,,,,,677.4713,677.67,677.67,678.169,,,,,,,,,,,,,,0.4884,1,,,,,,,,,,,,,,m,,,,,,,,,,,,,,,90,0,678.1695,678.6691,m,1,0.4884,,[],[],[],[],[],[],[],678.6692,680.6699,680.6701,680.6702,[],[],[],[],[],[],[],,680.6703,680.6703,-0.061386357,-0.41999626,0,0,0,,0,89,89,119,1,3,word,MEMORY,print,memory_p.png,,,,,,
,,,,32195,001,2025-10-16_23h07.12.602,HW_LDT_1,2024.2.4,MacIntel,60.24096386,,,,,,,,,,,,,,,,,,,,,680.6713,680.87,680.87,681.369,,,,,,,,,,,,,,0.689,1,,,,,,,,,,,,,,m,,,,,,,,,,,,,,,91,0,681.3695,682.0691,m,1,0.689,,[],[],[],[],[],[],[],682.0692,684.07,684.07,684.0701,[],[],[],[],[],[],[],,684.0702,684.0703,-0.061386357,-0.41999626,0,0,0,,0,90,90,147,1,3,word,ROMANTIC,cursive,romantic_c.png,,,,,,
,,,,32195,001,2025-10-16_23h07.12.602,HW_LDT_1,2024.2.4,MacIntel,60.24096386,,,,,,,,,,,,,,,,,,,,,684.0714,684.2699,684.2699,684.77,,,,,,,,,,,,,,0.72,1,,,,,,,,,,,,,,z,,,,,,,,,,,,,,,92,0,684.7704,685.5033,z,1,0.72,,[],[],[],[],[],[],[],685.5035,687.5034,687.5034,687.5036,[],[],[],[],[],[],[],,687.5036,687.5037,-0.061386357,-0.41999626,0,0,0,,0,91,91,27,1,3,RL,recile,print,recile_p.png,,,,,,
,,,,32195,001,2025-10-16_23h07.12.602,HW_LDT_1,2024.2.4,MacIntel,60.24096386,,,,,,,,,,,,,,,,,,,,,687.5047,687.7032,687.7033,688.2033,,,,,,,,,,,,,,0.9375,1,,,,,,,,,,,,,,z,,,,,,,,,,,,,,,93,0,688.2037,689.1534,z,1,0.9375,,[],[],[],[],[],[],[],689.1534,691.1533,691.1533,691.1535,[],[],[],[],[],[],[],,691.1536,691.1536,-0.061386357,-0.41999626,0,0,0,,0,92,92,14,1,3,RL,lofase,cursive,lofase_c.png,,,,,,
,,,,32195,001,2025-10-16_23h07.12.602,HW_LDT_1,2024.2.4,MacIntel,60.24096386,,,,,,,,,,,,,,,,,,,,,691.1546,691.3532,691.3533,691.8533,,,,,,,,,,,,,,0.7295,1,,,,,,,,,,,,,,z,,,,,,,,,,,,,,,94,1,691.8537,692.5856,z,1,0.7295,,[],[],[],[],[],[],[],692.5857,694.5866,694.5866,695.82,[],[],[],[],[],[],[],z,695.8201,695.8203,-0.061386357,-0.41999626,0,0,0,,0,93,93,36,1,3,TL,carema,cursive,carema_c.png,1.2238,,,,,
,,,,32195,001,2025-10-16_23h07.12.602,HW_LDT_1,2024.2.4,MacIntel,60.24096386,,,,,,,,,,,,,,,,,,,,,695.8214,696.019,696.019,696.5199,,,,,,,,,,,,,,0.5742,1,,,,,,,,,,,,,,m,,,,,,,,,,,,,,,95,0,696.5204,697.1024,m,1,0.5742,,[],[],[],[],[],[],[],697.1025,699.1032,699.1032,699.1035,[],[],[],[],[],[],[],,699.1035,699.1036,-0.061386357,-0.41999626,0,0,0,,0,94,94,111,1,3,word,INDICATE,print,indicate_p.png,,,,,,
,,,,32195,001,2025-10-16_23h07.12.602,HW_LDT_1,2024.2.4,MacIntel,60.24096386,,,,,,,,,,,,,,,,,,,,,699.1046,699.3033,699.3033,699.8033,,,,,,,,,,,,,,0.6879,1,,,,,,,,,,,,,,z,,,,,,,,,,,,,,,96,0,699.8039,700.5034,z,1,0.6879,,[],[],[],[],[],[],[],700.5034,702.5023,702.5023,702.5025,[],[],[],[],[],[],[],,702.5026,702.5027,-0.061386357,-0.41999626,0,0,0,,0,95,95,71,1,3,TL,sanile,cursive,sanile_c.png,,,,,,
,,,,32195,001,2025-10-16_23h07.12.602,HW_LDT_1,2024.2.4,MacIntel,60.24096386,,,,,,,,,,,,,,,,,,,,,702.5038,702.7023,702.7023,703.2032,,,,,,,,,,,,,,0.5707,1,,,,,,,,,,,,,,m,,,,,,,,,,,,,,,97,0,703.2037,703.7864,m,1,0.5707,,[],[],[],[],[],[],[],703.7865,705.7864,705.7865,705.7866,[],[],[],[],[],[],[],,705.7866,705.7866,-0.061386357,-0.41999626,0,0,0,,0,96,96,157,1,3,word,VALIDITY,cursive,validity_c.png,,,,,,
,,,,32195,001,2025-10-16_23h07.12.602,HW_LDT_1,2024.2.4,MacIntel,60.24096386,,,,,,,,,,,,,,,,,,,,,705.7874,705.9865,705.9865,706.4864,,,,,,,,,,,,,,0.5379,1,,,,,,,,,,,,,,m,,,,,,,,,,,,,,,98,0,706.4868,707.0366,m,1,0.5379,,[],[],[],[],[],[],[],707.0368,709.0365,709.0366,709.0367,[],[],[],[],[],[],[],,709.0368,709.0369,-0.061386357,-0.41999626,0,0,0,,0,97,97,113,1,3,word,LITERAL,print,literal_p.png,,,,,,
,,,,32195,001,2025-10-16_23h07.12.602,HW_LDT_1,2024.2.4,MacIntel,60.24096386,,,,,,,,,,,,,,,,,,,,,709.0379,709.2356,709.2357,709.7356,,,,,,,,,,,,,,0.8719,1,,,,,,,,,,,,,,z,,,,,,,,,,,,,,,99,0,709.736,710.6199,z,1,0.8719,,[],[],[],[],[],[],[],710.62,712.6199,712.6199,712.6201,[],[],[],[],[],[],[],,712.6201,712.6202,-0.061386357,-0.41999626,0,0,0,,0,98,98,12,1,3,RL,formuke,cursive,formuke_c.png,,,,,,
,,,,32195,001,2025-10-16_23h07.12.602,HW_LDT_1,2024.2.4,MacIntel,60.24096386,,,,,,,,,,,,,,,,,,,,,712.6213,712.819,712.819,713.3198,,,,,,,,,,,,,,0.7051,1,,,,,,,,,,,,,,z,,,,,,,,,,,,,,,100,0,713.3204,714.0359,z,1,0.7051,,[],[],[],[],[],[],[],714.036,716.0356,716.0357,716.0358,[],[],[],[],[],[],[],,716.0359,716.036,-0.061386357,-0.41999626,0,0,0,,0,99,99,66,1,3,TL,retalive,cursive,retalive_c.png,,,,,,
,,,,32195,001,2025-10-16_23h07.12.602,HW_LDT_1,2024.2.4,MacIntel,60.24096386,,,,,,,,,,,,,,,,,,,,,716.0371,716.2356,716.2356,716.7365,,,,,,,,,,,,,,0.7217,1,,,,,,,,,,,,,,z,,,,,,,,,,,,,,,101,0,716.737,717.47,z,1,0.7217,,[],[],[],[],[],[],[],717.4701,719.4689,719.469,719.4692,[],[],[],[],[],[],[],,719.4692,719.4693,-0.061386357,-0.41999626,0,0,0,,0,100,100,52,1,3,TL,locigal,cursive,locigal_c.png,,,,,,
,,,,32195,001,2025-10-16_23h07.12.602,HW_LDT_1,2024.2.4,MacIntel,60.24096386,,,,,,,,,,,,,,,,,,,,,719.4703,719.6699,719.6699,720.1698,,,,,,,,,,,,,,0.7539,1,,,,,,,,,,,,,,z,,,,,,,,,,,,,,,102,1,720.1703,720.9366,z,1,0.7539,,[],[],[],[],[],[],[],720.9367,722.9365,722.9366,723.8366,[],[],[],[],[],[],[],z,723.8367,723.8368,-0.061386357,-0.41999626,0,0,0,,0,101,101,57,1,3,TL,moredate,cursive,moredate_c.png,0.8881,,,,,
,,,,32195,001,2025-10-16_23h07.12.602,HW_LDT_1,2024.2.4,MacIntel,60.24096386,,,,,,,,,,,,,,,,,,,,,723.8379,724.0366,724.0366,724.5356,,,,,,,,,,,,,,0.5548,1,,,,,,,,,,,,,,m,,,,,,,,,,,,,,,103,0,724.5361,725.1032,m,1,0.5548,,[],[],[],[],[],[],[],725.1032,727.1031,727.1032,727.1033,[],[],[],[],[],[],[],,727.1034,727.1035,-0.061386357,-0.41999626,0,0,0,,0,102,102,112,1,3,word,LIBERAL,print,liberal_p.png,,,,,,
,,,,32195,001,2025-10-16_23h07.12.602,HW_LDT_1,2024.2.4,MacIntel,60.24096386,,,,,,,,,,,,,,,,,,,,,727.1045,727.3031,727.3031,727.8032,,,,,,,,,,,,,,0.6226,1,,,,,,,,,,,,,,z,,,,,,,,,,,,,,,104,0,727.8036,728.4366,z,1,0.6226,,[],[],[],[],[],[],[],728.4366,730.4365,730.4366,730.4368,[],[],[],[],[],[],[],,730.4368,730.4369,-0.061386357,-0.41999626,0,0,0,,0,103,103,72,1,3,TL,senmitent,print,senmitent_p.png,,,,,,
,,,,32195,001,2025-10-16_23h07.12.602,HW_LDT_1,2024.2.4,MacIntel,60.24096386,,,,,,,,,,,,,,,,,,,,,730.4379,730.6365,730.6366,731.1365,,,,,,,,,,,,,,0.554,1,,,,,,,,,,,,,,z,,,,,,,,,,,,,,,105,0,731.137,731.7033,z,1,0.554,,[],[],[],[],[],[],[],731.7034,733.7032,733.7032,733.7034,[],[],[],[],[],[],[],,733.7034,733.7036,-0.061386357,-0.41999626,0,0,0,,0,104,104,23,1,3,RL,quakity,print,quakity_p.png,,,,,,
,,,,32195,001,2025-10-16_23h07.12.602,HW_LDT_1,2024.2.4,MacIntel,60.24096386,,,,,,,,,,,,,,,,,,,,,733.7046,733.9032,733.9032,734.4031,,,,,,,,,,,,,,0.8366,1,,,,,,,,,,,,,,z,,,,,,,,,,,,,,,106,0,734.4036,735.2533,z,1,0.8366,,[],[],[],[],[],[],[],735.2535,737.2532,737.2532,737.2534,[],[],[],[],[],[],[],,737.2534,737.2535,-0.061386357,-0.41999626,0,0,0,,0,105,105,39,1,3,TL,clicinal,print,clicinal_p.png,,,,,,
,,,,32195,001,2025-10-16_23h07.12.602,HW_LDT_1,2024.2.4,MacIntel,60.24096386,,,,,,,,,,,,,,,,,,,,,737.2545,737.4531,737.4531,737.9532,,,,,,,,,,,,,,0.6199,1,,,,,,,,,,,,,,m,,,,,,,,,,,,,,,107,0,737.9537,738.5866,m,1,0.6199,,[],[],[],[],[],[],[],738.5866,740.5864,740.5866,740.5867,[],[],[],[],[],[],[],,740.5867,740.5868,-0.061386357,-0.41999626,0,0,0,,0,106,106,151,1,3,word,SPECIFIC,print,specific_p.png,,,,,,
,,,,32195,001,2025-10-16_23h07.12.602,HW_LDT_1,2024.2.4,MacIntel,60.24096386,,,,,,,,,,,,,,,,,,,,,740.5879,740.7865,740.7865,741.2864,,,,,,,,,,,,,,0.9538,1,,,,,,,,,,,,,,z,,,,,,,,,,,,,,,108,0,741.2869,742.2532,z,1,0.9538,,[],[],[],[],[],[],[],742.2533,744.2522,744.2522,744.2524,[],[],[],[],[],[],[],,744.2525,744.2526,-0.061386357,-0.41999626,0,0,0,,0,107,107,69,1,3,TL,redisent,cursive,redisent_c.png,,,,,,
,,,,32195,001,2025-10-16_23h07.12.602,HW_LDT_1,2024.2.4,MacIntel,60.24096386,,,,,,,,,,,,,,,,,,,,,744.2536,744.4522,744.4523,744.9522,,,,,,,,,,,,,,0.6049,1,,,,,,,,,,,,,,z,,,,,,,,,,,,,,,109,0,744.9527,745.5698,z,1,0.6049,,[],[],[],[],[],[],[],745.5699,747.5689,747.5689,747.5691,[],[],[],[],[],[],[],,747.5691,747.5692,-0.061386357,-0.41999626,0,0,0,,0,108,108,63,1,3,TL,racidal,cursive,racidal_c.png,,,,,,
,,,,32195,001,2025-10-16_23h07.12.602,HW_LDT_1,2024.2.4,MacIntel,60.24096386,,,,,,,,,,,,,,,,,,,,,747.5703,747.7688,747.7689,748.2698,,,,,,,,,,,,,,0.6373,1,,,,,,,,,,,,,,m,,,,,,,,,,,,,,,110,0,748.2704,748.9198,m,1,0.6373,,[],[],[],[],[],[],[],748.9199,750.9197,750.9197,750.92,[],[],[],[],[],[],[],,750.92,750.9201,-0.061386357,-0.41999626,0,0,0,,0,109,109,146,1,3,word,RETIRE,print,retire_p.png,,,,,,
,,,,32195,001,2025-10-16_23h07.12.602,HW_LDT_1,2024.2.4,MacIntel,60.24096386,,,,,,,,,,,,,,,,,,,,,750.921,751.1198,751.1198,751.619,,,,,,,,,,,,,,0.4883,1,,,,,,,,,,,,,,z,,,,,,,,,,,,,,,111,1,751.6194,752.1199,z,1,0.4883,,[],[],[],[],[],[],[],752.1199,754.1198,754.1198,755.0032,[],[],[],[],[],[],[],m,755.0032,755.0033,-0.061386357,-0.41999626,0,0,0,,0,110,110,25,1,3,RL,retupar,print,retupar_p.png,0.8731,,,,,
,,,,32195,001,2025-10-16_23h07.12.602,HW_LDT_1,2024.2.4,MacIntel,60.24096386,,,,,,,,,,,,,,,,,,,,,755.0044,755.2022,755.2022,755.703,,,,,,,,,,,,,,0.5375,1,,,,,,,,,,,,,,m,,,,,,,,,,,,,,,112,0,755.7035,756.2531,m,1,0.5375,,[],[],[],[],[],[],[],756.2533,758.2531,758.2531,758.2533,[],[],[],[],[],[],[],,758.2534,758.2535,-0.061386357,-0.41999626,0,0,0,,0,111,111,130,1,3,word,POLICY,print,policy_p.png,,,,,,
,,,,32195,001,2025-10-16_23h07.12.602,HW_LDT_1,2024.2.4,MacIntel,60.24096386,,,,,,,,,,,,,,,,,,,,,758.2546,758.453,758.4531,758.953,,,,,,,,,,,,,,0.5374,1,,,,,,,,,,,,,,z,,,,,,,,,,,,,,,113,0,758.9535,759.5025,z,1,0.5374,,[],[],[],[],[],[],[],759.5026,761.5032,761.5032,761.5034,[],[],[],[],[],[],[],,761.5035,761.5036,-0.061386357,-0.41999626,0,0,0,,0,112,112,60,1,3,TL,panert,print,panert_p.png,,,,,,
,,,,32195,001,2025-10-16_23h07.12.602,HW_LDT_1,2024.2.4,MacIntel,60.24096386,,,,,,,,,,,,,,,,,,,,,761.5046,761.703,761.7031,762.2022,,,,,,,,,,,,,,0.6424,1,,,,,,,,,,,,,,m,,,,,,,,,,,,,,,114,0,762.2027,762.8531,m,1,0.6424,,[],[],[],[],[],[],[],762.8532,764.8531,764.8531,764.8533,[],[],[],[],[],[],[],,764.8534,764.8534,-0.061386357,-0.41999626,0,0,0,,0,113,113,136,1,3,word,RADICAL,cursive,radical_c.png,,,,,,
,,,,32195,001,2025-10-16_23h07.12.602,HW_LDT_1,2024.2.4,MacIntel,60.24096386,,,,,,,,,,,,,,,,,,,,,764.8545,765.053,765.0531,765.5531,,,,,,,,,,,,,,0.8407,1,,,,,,,,,,,,,,m,,,,,,,,,,,,,,,115,1,765.5536,766.4032,m,1,0.8407,,[],[],[],[],[],[],[],766.4032,768.403,768.403,769.1865,[],[],[],[],[],[],[],z,769.1866,769.1867,-0.061386357,-0.41999626,0,0,0,,0,114,114,83,1,3,word,ANIMAL,cursive,animal_c.png,0.7715,,,,,
,,,,32195,001,2025-10-16_23h07.12.602,HW_LDT_1,2024.2.4,MacIntel,60.24096386,,,,,,,,,,,,,,,,,,,,,769.1881,769.3854,769.3854,769.8863,,,,,,,,,,,,,,0.8033,1,,,,,,,,,,,,,,z,,,,,,,,,,,,,,,116,0,769.8869,770.7023,z,1,0.8033,,[],[],[],[],[],[],[],770.7023,772.7029,772.703,772.7031,[],[],[],[],[],[],[],,772.7032,772.7033,-0.061386357,-0.41999626,0,0,0,,0,115,115,37,1,3,TL,cacapity,cursive,cacapity_c.png,,,,,,
,,,,32195,001,2025-10-16_23h07.12.602,HW_LDT_1,2024.2.4,MacIntel,60.24096386,,,,,,,,,,,,,,,,,,,,,772.7044,772.9022,772.9022,773.4027,,,,,,,,,,,,,,0.9377,0,,,,,,,,,,,,,,z,,,,,,,,,,,,,,,117,0,773.4032,774.3532,m,0,0.9377,,[],[],[],[],[],[],[],774.3533,776.3531,776.3531,776.3533,[],[],[],[],[],[],[],,776.3533,776.3534,-0.061386357,-0.41999626,0,0,0,,0,116,116,16,1,3,RL,mishafe,cursive,mishafe_c.png,,,,,,
,,,,32195,001,2025-10-16_23h07.12.602,HW_LDT_1,2024.2.4,MacIntel,60.24096386,,,,,,,,,,,,,,,,,,,,,776.3545,776.553,776.553,777.0531,,,,,,,,,,,,,,0.5863,1,,,,,,,,,,,,,,m,,,,,,,,,,,,,,,118,1,777.0536,777.6531,m,1,0.5863,,[],[],[],[],[],[],[],777.6532,779.653,779.6531,780.6199,[],[],[],[],[],[],[],m,780.62,780.6201,-0.061386357,-0.41999626,0,0,0,,0,117,117,105,1,3,word,EDITOR,print,editor_p.png,0.9549,,,,,
,,,,32195,001,2025-10-16_23h07.12.602,HW_LDT_1,2024.2.4,MacIntel,60.24096386,,,,,,,,,,,,,,,,,,,,,780.6212,780.8187,780.8188,781.3197,,,,,,,,,,,,,,0.6982,1,,,,,,,,,,,,,,z,,,,,,,,,,,,,,,119,0,781.3203,782.0196,z,1,0.6982,,[],[],[],[],[],[],[],782.0198,784.0197,784.0198,784.0199,[],[],[],[],[],[],[],,784.02,784.02,-0.061386357,-0.41999626,0,0,0,,0,118,118,75,1,3,TL,sloten,cursive,sloten_c.png,,,,,,
,,,,32195,001,2025-10-16_23h07.12.602,HW_LDT_1,2024.2.4,MacIntel,60.24096386,,,,,,,,,,,,,,,,,,,,,784.0211,784.2196,784.2197,784.7197,,,,,,,,,,,,,,0.7871,1,,,,,,,,,,,,,,m,,,,,,,,,,,,,,,120,0,784.7202,785.5189,m,1,0.7871,,[],[],[],[],[],[],[],785.519,787.5196,787.5197,787.5199,[],[],[],[],[],[],[],,787.52,787.52,-0.061386357,-0.41999626,0,0,0,,0,119,119,122,1,3,word,MOBILE,cursive,mobile_c.png,,,,,,
,,,,32195,001,2025-10-16_23h07.12.602,HW_LDT_1,2024.2.4,MacIntel,60.24096386,,,,,,,,,,,,,,,,,,,,,787.5211,787.7188,787.7188,788.2196,,,,,,,,,,,,,,0.7874,1,,,,,,,,,,,,,,z,,,,,,,,,,,,,,,121,0,788.2203,789.0198,z,1,0.7874,,[],[],[],[],[],[],[],789.0199,791.0197,791.0197,791.0199,[],[],[],[],[],[],[],,791.02,791.02,-0.061386357,-0.41999626,0,0,0,,0,120,120,35,1,3,TL,cateferia,print,cateferia_p.png,,,,,,
,,,,32195,001,2025-10-16_23h07.12.602,HW_LDT_1,2024.2.4,MacIntel,60.24096386,,,,,,,,,,,,,,,,,,,,,791.0213,791.2187,791.2188,791.7197,,,,,,,,,,,,,,0.631,0,,,,,,,,,,,,,,m,,,,,,,,,,,,,,,122,0,791.7202,792.3529,z,0,0.631,,[],[],[],[],[],[],[],792.353,794.3529,794.353,794.3531,[],[],[],[],[],[],[],,794.3532,794.3533,-0.061386357,-0.41999626,0,0,0,,0,121,121,90,1,3,word,CAPITAL,cursive,capital_c.png,,,,,,
,,,,32195,001,2025-10-16_23h07.12.602,HW_LDT_1,2024.2.4,MacIntel,60.24096386,,,,,,,,,,,,,,,,,,,,,794.3543,794.553,794.553,795.0529,,,,,,,,,,,,,,0.7376,1,,,,,,,,,,,,,,m,,,,,,,,,,,,,,,123,1,795.0534,795.8021,m,1,0.7376,,[],[],[],[],[],[],[],795.8022,797.803,797.803,798.4029,[],[],[],[],[],[],[],z,798.403,798.403,-0.061386357,-0.41999626,0,0,0,,0,122,122,84,1,3,word,BELOVED,cursive,beloved_c.png,0.5982,,,,,
,,,,32195,001,2025-10-16_23h07.12.602,HW_LDT_1,2024.2.4,MacIntel,60.24096386,,,,,,,,,,,,,,,,,,,,,798.4039,798.603,798.603,799.1029,,,,,,,,,,,,,,0.5706,1,,,,,,,,,,,,,,m,,,,,,,,,,,,,,,124,0,799.1033,799.6864,m,1,0.5706,,[],[],[],[],[],[],[],799.6865,801.6863,801.6864,801.6865,[],[],[],[],[],[],[],,801.6865,801.6867,-0.061386357,-0.41999626,0,0,0,,0,123,123,116,1,3,word,MARGINAL,print,marginal_p.png,,,,,,
,,,,32195,001,2025-10-16_23h07.12.602,HW_LDT_1,2024.2.4,MacIntel,60.24096386,,,,,,,,,,,,,,,,,,,,,801.6876,801.8855,801.8855,802.3862,,,,,,,,,,,,,,0.7699,0,,,,,,,,,,,,,,m,,,,,,,,,,,,,,,125,1,802.3868,803.1697,z,0,0.7699,,[],[],[],[],[],[],[],803.1698,805.1696,805.1697,806.353,[],[],[],[],[],[],[],z,806.3532,806.3533,-0.061386357,-0.41999626,0,0,0,,0,124,124,128,1,3,word,PACIFIC,cursive,pacific_c.png,1.1705,,,,,
,,,,32195,001,2025-10-16_23h07.12.602,HW_LDT_1,2024.2.4,MacIntel,60.24096386,,,,,,,,,,,,,,,,,,,,,806.3544,806.5529,806.5529,807.0529,,,,,,,,,,,,,,0.7037,0,,,,,,,,,,,,,,m,,,,,,,,,,,,,,,126,0,807.0534,807.7697,z,0,0.7037,,[],[],[],[],[],[],[],807.7698,809.7686,809.7687,809.7689,[],[],[],[],[],[],[],,809.7689,809.769,-0.061386357,-0.41999626,0,0,0,,0,125,125,89,1,3,word,CAPACITY,cursive,capacity_c.png,,,,,,
,,,,32195,001,2025-10-16_23h07.12.602,HW_LDT_1,2024.2.4,MacIntel,60.24096386,,,,,,,,,,,,,,,,,,,,,809.7703,809.9695,809.9695,810.4696,,,,,,,,,,,,,,0.5041,1,,,,,,,,,,,,,,z,,,,,,,,,,,,,,,127,0,810.4701,810.9864,z,1,0.5041,,[],[],[],[],[],[],[],810.9864,812.9864,812.9864,812.9866,[],[],[],[],[],[],[],,812.9866,812.9867,-0.061386357,-0.41999626,0,0,0,,0,126,126,5,1,3,RL,capefory,cursive,capefory_c.png,,,,,,
,,,,32195,001,2025-10-16_23h07.12.602,HW_LDT_1,2024.2.4,MacIntel,60.24096386,,,,,,,,,,,,,,,,,,,,,812.9877,813.1853,813.1854,813.6862,,,,,,,,,,,,,,0.5208,1,,,,,,,,,,,,,,z,,,,,,,,,,,,,,,128,0,813.6868,814.2197,z,1,0.5208,,[],[],[],[],[],[],[],814.2198,816.2196,816.2196,816.2199,[],[],[],[],[],[],[],,816.2199,816.22,-0.061386357,-0.41999626,0,0,0,,0,127,127,1,1,3,RL,bewoted,cursive,bewoted_c.png,,,,,,
,,,,32195,001,2025-10-16_23h07.12.602,HW_LDT_1,2024.2.4,MacIntel,60.24096386,,,,,,,,,,,,,,,,,,,,,816.2211,816.4187,816.4187,816.9196,,,,,,,,,,,,,,0.7399,1,,,,,,,,,,,,,,z,,,,,,,,,,,,,,,129,0,816.9201,817.6696,z,1,0.7399,,[],[],[],[],[],[],[],817.6696,819.6688,819.6688,819.669,[],[],[],[],[],[],[],,819.669,819.6691,-0.061386357,-0.41999626,0,0,0,,0,128,128,54,1,3,TL,manire,cursive,manire_c.png,,,,,,
,,,,32195,001,2025-10-16_23h07.12.602,HW_LDT_1,2024.2.4,MacIntel,60.24096386,,,,,,,,,,,,,,,,,,,,,819.6702,819.8696,819.8697,820.3696,,,,,,,,,,,,,,0.5912,1,,,,,,,,,,,,,,z,,,,,,,,,,,,,,,130,0,820.3701,820.9696,z,1,0.5912,,[],[],[],[],[],[],[],820.9697,822.9687,822.9687,822.9689,[],[],[],[],[],[],[],,822.9689,822.9689,-0.061386357,-0.41999626,0,0,0,,0,129,129,0,1,3,RL,afaneur,print,afaneur_p.png,,,,,,
,,,,32195,001,2025-10-16_23h07.12.602,HW_LDT_1,2024.2.4,MacIntel,60.24096386,,,,,,,,,,,,,,,,,,,,,822.9699,823.1696,823.1696,823.6696,,,,,,,,,,,,,,0.6479,1,,,,,,,,,,,,,,z,,,,,,,,,,,,,,,131,0,823.6701,824.3196,z,1,0.6479,,[],[],[],[],[],[],[],824.3197,826.3195,826.3196,826.3198,[],[],[],[],[],[],[],,826.3198,826.3199,-0.061386357,-0.41999626,0,0,0,,0,130,130,47,1,3,TL,elarobate,print,elarobate_p.png,,,,,,
,,,,32195,001,2025-10-16_23h07.12.602,HW_LDT_1,2024.2.4,MacIntel,60.24096386,,,,,,,,,,,,,,,,,,,,,826.3209,826.5195,826.5196,827.0196,,,,,,,,,,,,,,0.6809,1,,,,,,,,,,,,,,m,,,,,,,,,,,,,,,132,0,827.0201,827.7028,m,1,0.6809,,[],[],[],[],[],[],[],827.7029,829.7029,829.7031,829.7031,[],[],[],[],[],[],[],,829.7032,829.7034,-0.061386357,-0.41999626,0,0,0,,0,131,131,115,1,3,word,LOGICAL,cursive,logical_c.png,,,,,,
,,,,32195,001,2025-10-16_23h07.12.602,HW_LDT_1,2024.2.4,MacIntel,60.24096386,,,,,,,,,,,,,,,,,,,,,829.7043,829.9029,829.903,830.4029,,,,,,,,,,,,,,0.7305,0,,,,,,,,,,,,,,m,,,,,,,,,,,,,,,133,0,830.4035,831.1352,z,0,0.7305,,[],[],[],[],[],[],[],831.1353,833.1362,833.1362,833.1364,[],[],[],[],[],[],[],,833.1365,833.1366,-0.061386357,-0.41999626,0,0,0,,0,132,132,148,1,3,word,SALINE,cursive,saline_c.png,,,,,,
,,,,32195,001,2025-10-16_23h07.12.602,HW_LDT_1,2024.2.4,MacIntel,60.24096386,,,,,,,,,,,,,,,,,,,,,833.1377,833.3361,833.3362,833.8363,,,,,,,,,,,,,,0.6076,1,,,,,,,,,,,,,,z,,,,,,,,,,,,,,,134,0,833.8367,834.453,z,1,0.6076,,[],[],[],[],[],[],[],834.4531,836.4529,836.453,836.4532,[],[],[],[],[],[],[],,836.4532,836.4533,-0.061386357,-0.41999626,0,0,0,,0,133,133,32,1,3,TL,adacemy,print,adacemy_p.png,,,,,,
,,,,32195,001,2025-10-16_23h07.12.602,HW_LDT_1,2024.2.4,MacIntel,60.24096386,,,,,,,,,,,,,,,,,,,,,836.4543,836.6529,836.6529,837.1529,,,,,,,,,,,,,,0.5715,1,,,,,,,,,,,,,,z,,,,,,,,,,,,,,,135,0,837.1533,837.7363,z,1,0.5715,,[],[],[],[],[],[],[],837.7364,839.7362,839.7362,839.7364,[],[],[],[],[],[],[],,839.7365,839.7365,-0.061386357,-0.41999626,0,0,0,,0,134,134,62,1,3,TL,prodive,print,prodive_p.png,,,,,,
,,,,32195,001,2025-10-16_23h07.12.602,HW_LDT_1,2024.2.4,MacIntel,60.24096386,,,,,,,,,,,,,,,,,,,,,839.7376,839.9361,839.9362,840.4362,,,,,,,,,,,,,,0.6209,1,,,,,,,,,,,,,,z,,,,,,,,,,,,,,,136,1,840.4368,841.0696,z,1,0.6209,,[],[],[],[],[],[],[],841.0697,843.0686,843.0686,843.9687,[],[],[],[],[],[],[],z,843.9688,843.9689,-0.061386357,-0.41999626,0,0,0,,0,135,135,46,1,3,TL,distupe,print,distupe_p.png,0.8923,,,,,
,,,,32195,001,2025-10-16_23h07.12.602,HW_LDT_1,2024.2.4,MacIntel,60.24096386,,,,,,,,,,,,,,,,,,,,,843.97,844.1696,844.1696,844.6695,,,,,,,,,,,,,,0.6043,1,,,,,,,,,,,,,,z,,,,,,,,,,,,,,,137,0,844.67,845.2854,z,1,0.6043,,[],[],[],[],[],[],[],845.2855,847.2862,847.2862,847.2864,[],[],[],[],[],[],[],,847.2864,847.2865,-0.061386357,-0.41999626,0,0,0,,0,136,136,50,1,3,TL,lirebal,print,lirebal_p.png,,,,,,
,,,,32195,001,2025-10-16_23h07.12.602,HW_LDT_1,2024.2.4,MacIntel,60.24096386,,,,,,,,,,,,,,,,,,,,,847.2876,847.4853,847.4853,847.9862,,,,,,,,,,,,,,0.5376,0,,,,,,,,,,,,,,m,,,,,,,,,,,,,,,138,0,847.9866,848.5354,z,0,0.5376,,[],[],[],[],[],[],[],848.5355,850.5362,850.5362,850.5364,[],[],[],[],[],[],[],,850.5364,850.5365,-0.061386357,-0.41999626,0,0,0,,0,137,137,152,1,3,word,SPECIMEN,print,specimen_p.png,,,,,,
,,,,32195,001,2025-10-16_23h07.12.602,HW_LDT_1,2024.2.4,MacIntel,60.24096386,,,,,,,,,,,,,,,,,,,,,850.5375,850.7362,850.7363,851.2361,,,,,,,,,,,,,,0.5214,1,,,,,,,,,,,,,,m,,,,,,,,,,,,,,,139,1,851.2366,851.7696,m,1,0.5214,,[],[],[],[],[],[],[],851.7697,853.7694,853.7695,854.6023,[],[],[],[],[],[],[],m,854.6024,854.6025,-0.061386357,-0.41999626,0,0,0,,0,138,138,81,1,3,word,ADVISORY,print,advisory_p.png,0.8233,,,,,
,,,,32195,001,2025-10-16_23h07.12.602,HW_LDT_1,2024.2.4,MacIntel,60.24096386,,,,,,,,,,,,,,,,,,,,,854.6034,854.8029,854.803,855.3028,,,,,,,,,,,,,,0.7541,1,,,,,,,,,,,,,,m,,,,,,,,,,,,,,,140,1,855.3033,856.0696,m,1,0.7541,,[],[],[],[],[],[],[],856.0697,858.0696,858.0696,858.6862,[],[],[],[],[],[],[],z,858.6863,858.6864,-0.061386357,-0.41999626,0,0,0,,0,139,139,145,1,3,word,RESUME,cursive,resume_c.png,0.6048,,,,,
,,,,32195,001,2025-10-16_23h07.12.602,HW_LDT_1,2024.2.4,MacIntel,60.24096386,,,,,,,,,,,,,,,,,,,,,858.6875,858.8852,858.8853,859.3862,,,,,,,,,,,,,,0.7698,1,,,,,,,,,,,,,,m,,,,,,,,,,,,,,,141,0,859.3867,860.1687,m,1,0.7698,,[],[],[],[],[],[],[],860.1687,862.1695,862.1695,862.1696,[],[],[],[],[],[],[],,862.1697,862.1698,-0.061386357,-0.41999626,0,0,0,,0,140,140,91,1,3,word,CARDINAL,print,cardinal_p.png,,,,,,
,,,,32195,001,2025-10-16_23h07.12.602,HW_LDT_1,2024.2.4,MacIntel,60.24096386,,,,,,,,,,,,,,,,,,,,,862.1709,862.3686,862.3686,862.8695,,,,,,,,,,,,,,0.9035,1,,,,,,,,,,,,,,m,,,,,,,,,,,,,,,142,0,862.87,863.7855,m,1,0.9035,,[],[],[],[],[],[],[],863.7856,865.7862,865.7863,865.7865,[],[],[],[],[],[],[],,865.7865,865.7866,-0.061386357,-0.41999626,0,0,0,,0,141,141,127,1,3,word,ORIGINAL,cursive,original_c.png,,,,,,
,,,,32195,001,2025-10-16_23h07.12.602,HW_LDT_1,2024.2.4,MacIntel,60.24096386,,,,,,,,,,,,,,,,,,,,,865.7876,865.9861,865.9862,866.4861,,,,,,,,,,,,,,0.638,1,,,,,,,,,,,,,,m,,,,,,,,,,,,,,,143,0,866.4866,867.1362,m,1,0.638,,[],[],[],[],[],[],[],867.1363,869.1362,869.1362,869.1364,[],[],[],[],[],[],[],,869.1365,869.1365,-0.061386357,-0.41999626,0,0,0,,0,142,142,97,1,3,word,COVERAGE,print,coverage_p.png,,,,,,
,,,,32195,001,2025-10-16_23h07.12.602,HW_LDT_1,2024.2.4,MacIntel,60.24096386,,,,,,,,,,,,,,,,,,,,,869.1377,869.3361,869.3361,869.8362,,,,,,,,,,,,,,0.6375,0,,,,,,,,,,,,,,m,,,,,,,,,,,,,,,144,0,869.8366,870.4853,z,0,0.6375,,[],[],[],[],[],[],[],870.4854,872.4862,872.4862,872.4864,[],[],[],[],[],[],[],,872.4864,872.4865,-0.061386357,-0.41999626,0,0,0,,0,143,143,123,1,3,word,MODERATE,cursive,moderate_c.png,,,,,,
,,,,32195,001,2025-10-16_23h07.12.602,HW_LDT_1,2024.2.4,MacIntel,60.24096386,,,,,,,,,,,,,,,,,,,,,872.4876,872.6852,872.6852,873.1862,,,,,,,,,,,,,,0.554,1,,,,,,,,,,,,,,z,,,,,,,,,,,,,,,145,0,873.1867,873.7528,z,1,0.554,,[],[],[],[],[],[],[],873.7529,875.7528,875.7528,875.753,[],[],[],[],[],[],[],,875.753,875.7531,-0.061386357,-0.41999626,0,0,0,,0,144,144,26,1,3,RL,repifion,print,repifion_p.png,,,,,,
,,,,32195,001,2025-10-16_23h07.12.602,HW_LDT_1,2024.2.4,MacIntel,60.24096386,,,,,,,,,,,,,,,,,,,,,875.7542,875.9528,875.9528,876.4528,,,,,,,,,,,,,,0.6721,1,,,,,,,,,,,,,,m,,,,,,,,,,,,,,,146,0,876.4533,877.1362,m,1,0.6721,,[],[],[],[],[],[],[],877.1362,879.1352,879.1353,879.1355,[],[],[],[],[],[],[],,879.1355,879.1357,-0.061386357,-0.41999626,0,0,0,,0,145,145,144,1,3,word,RESIDENT,cursive,resident_c.png,,,,,,
,,,,32195,001,2025-10-16_23h07.12.602,HW_LDT_1,2024.2.4,MacIntel,60.24096386,,,,,,,,,,,,,,,,,,,,,879.1367,879.3352,879.3352,879.8352,,,,,,,,,,,,,,0.7093,1,,,,,,,,,,,,,,z,,,,,,,,,,,,,,,147,0,879.8357,880.5528,z,1,0.7093,,[],[],[],[],[],[],[],880.5528,882.5526,882.5526,882.5527,[],[],[],[],[],[],[],,882.5527,882.5528,-0.113927333,-0.399130339,0,0,0,,0,146,146,56,1,3,TL,meromy,print,meromy_p.png,,,,,,
,,,,32195,001,2025-10-16_23h07.12.602,HW_LDT_1,2024.2.4,MacIntel,60.24096386,,,,,,,,,,,,,,,,,,,,,882.5534,882.7526,882.7527,883.2527,,,,,,,,,,,,,,0.8542,1,,,,,,,,,,,,,,z,,,,,,,,,,,,,,,148,0,883.2532,884.1195,z,1,0.8542,,[],[],[],[],[],[],[],884.1195,886.1194,886.1195,886.1197,[],[],[],[],[],[],[],,886.1197,886.1198,-0.110199606,-0.397336609,0,0,0,,0,147,147,34,1,3,TL,aminal,cursive,aminal_c.png,,,,,,
,,,,32195,001,2025-10-16_23h07.12.602,HW_LDT_1,2024.2.4,MacIntel,60.24096386,,,,,,,,,,,,,,,,,,,,,886.1208,886.3194,886.3195,886.8185,,,,,,,,,,,,,,0.5712,1,,,,,,,,,,,,,,z,,,,,,,,,,,,,,,149,0,886.819,887.4028,z,1,0.5712,,[],[],[],[],[],[],[],887.4028,889.4028,889.4028,889.4031,[],[],[],[],[],[],[],,889.4031,889.4032,-0.110199606,-0.397336609,0,0,0,,0,148,148,43,1,3,TL,dedace,cursive,dedace_c.png,,,,,,
,,,,32195,001,2025-10-16_23h07.12.602,HW_LDT_1,2024.2.4,MacIntel,60.24096386,,,,,,,,,,,,,,,,,,,,,889.4043,889.6027,889.6028,890.1018,,,,,,,,,,,,,,0.6307,1,,,,,,,,,,,,,,m,,,,,,,,,,,,,,,150,0,890.1024,890.736,m,1,0.6307,,[],[],[],[],[],[],[],890.7361,892.7361,892.7361,892.7363,[],[],[],[],[],[],[],,892.7363,892.7364,-0.110199606,-0.397336609,0,0,0,,0,149,149,133,1,3,word,PROVIDE,print,provide_p.png,,,,,,
,,,,32195,001,2025-10-16_23h07.12.602,HW_LDT_1,2024.2.4,MacIntel,60.24096386,,,,,,,,,,,,,,,,,,,,,892.7373,892.9361,892.9361,893.436,,,,,,,,,,,,,,0.7199,1,,,,,,,,,,,,,,m,,,,,,,,,,,,,,,151,0,893.4366,894.1685,m,1,0.7199,,[],[],[],[],[],[],[],894.1686,896.1694,896.1695,896.1696,[],[],[],[],[],[],[],,896.1697,896.1698,-0.110199606,-0.397336609,0,0,0,,0,150,150,107,1,3,word,EVIDENT,cursive,evident_c.png,,,,,,
,,,,32195,001,2025-10-16_23h07.12.602,HW_LDT_1,2024.2.4,MacIntel,60.24096386,,,,,,,,,,,,,,,,,,,,,896.1707,896.3693,896.3694,896.8694,,,,,,,,,,,,,,0.5206,1,,,,,,,,,,,,,,m,,,,,,,,,,,,,,,152,0,896.8699,897.4022,m,1,0.5206,,[],[],[],[],[],[],[],897.4023,899.4028,899.4028,899.403,[],[],[],[],[],[],[],,899.403,899.4031,-0.110199606,-0.397336609,0,0,0,,0,151,151,98,1,3,word,CRIMINAL,print,criminal_p.png,,,,,,
,,,,32195,001,2025-10-16_23h07.12.602,HW_LDT_1,2024.2.4,MacIntel,60.24096386,,,,,,,,,,,,,,,,,,,,,899.4041,899.6027,899.6028,900.1027,,,,,,,,,,,,,,0.6865,1,,,,,,,,,,,,,,z,,,,,,,,,,,,,,,153,1,900.1032,900.8028,z,1,0.6865,,[],[],[],[],[],[],[],900.8029,902.8026,902.8027,904.0859,[],[],[],[],[],[],[],z,904.0861,904.0862,-0.110199606,-0.397336609,0,0,0,,0,152,152,74,1,3,TL,spemicen,print,spemicen_p.png,1.282,,,,,
,,,,32195,001,2025-10-16_23h07.12.602,HW_LDT_1,2024.2.4,MacIntel,60.24096386,,,,,,,,,,,,,,,,,,,,,904.087,904.285,904.2851,904.786,,,,,,,,,,,,,,0.5365,1,,,,,,,,,,,,,,m,,,,,,,,,,,,,,,154,1,904.7865,905.3362,m,1,0.5365,,[],[],[],[],[],[],[],905.3362,907.3361,907.3361,908.0526,[],[],[],[],[],[],[],m,908.0526,908.0528,-0.110199606,-0.397336609,0,0,0,,0,153,153,106,1,3,word,ELABORATE,print,elaborate_p.png,0.7046,,,,,
,,,,32195,001,2025-10-16_23h07.12.602,HW_LDT_1,2024.2.4,MacIntel,60.24096386,,,,,,,,,,,,,,,,,,,,,908.0537,908.2527,908.2528,908.7528,,,,,,,,,,,,,,1.054,1,,,,,,,,,,,,,,z,,,,,,,,,,,,,,,155,0,908.7532,909.8194,z,1,1.054,,[],[],[],[],[],[],[],909.8194,911.8193,911.8193,911.8195,[],[],[],[],[],[],[],,911.8195,911.8196,-0.110199606,-0.397336609,0,0,0,,0,154,154,6,1,3,RL,cenesony,cursive,cenesony_c.png,,,,,,
,,,,32195,001,2025-10-16_23h07.12.602,HW_LDT_1,2024.2.4,MacIntel,60.24096386,,,,,,,,,,,,,,,,,,,,,911.8207,912.0185,912.0185,912.5193,,,,,,,,,,,,,,0.5875,0,,,,,,,,,,,,,,m,,,,,,,,,,,,,,,156,1,912.52,913.1185,z,0,0.5875,,[],[],[],[],[],[],[],913.1185,915.1194,915.1194,916.0357,[],[],[],[],[],[],[],z,916.0358,916.0358,-0.110199606,-0.397336609,0,0,0,,0,155,155,99,1,3,word,DEBATE,cursive,debate_c.png,0.909,,,,,
,,,,32195,001,2025-10-16_23h07.12.602,HW_LDT_1,2024.2.4,MacIntel,60.24096386,,,,,,,,,,,,,,,,,,,,,916.0367,916.236,916.2361,916.7351,,,,,,,,,,,,,,0.9877,1,,,,,,,,,,,,,,z,,,,,,,,,,,,,,,157,0,916.7356,917.7361,z,1,0.9877,,[],[],[],[],[],[],[],917.7362,919.7361,919.7362,919.7363,[],[],[],[],[],[],[],,919.7364,919.7364,-0.110199606,-0.397336609,0,0,0,,0,156,156,70,1,3,TL,remuse,cursive,remuse_c.png,,,,,,
,,,,32195,001,2025-10-16_23h07.12.602,HW_LDT_1,2024.2.4,MacIntel,60.24096386,,,,,,,,,,,,,,,,,,,,,919.7374,919.9351,919.9352,920.436,,,,,,,,,,,,,,0.5375,1,,,,,,,,,,,,,,m,,,,,,,,,,,,,,,158,0,920.4364,920.9861,m,1,0.5375,,[],[],[],[],[],[],[],920.9862,922.986,922.986,922.9862,[],[],[],[],[],[],[],,922.9862,922.9863,-0.110199606,-0.397336609,0,0,0,,0,157,157,96,1,3,word,CONSIDER,print,consider_p.png,,,,,,
,,,,32195,001,2025-10-16_23h07.12.602,HW_LDT_1,2024.2.4,MacIntel,60.24096386,,,,,,,,,,,,,,,,,,,,,922.9873,923.1857,923.1858,923.686,,,,,,,,,,,,,,0.7372,1,,,,,,,,,,,,,,m,,,,,,,,,,,,,,,159,0,923.6865,924.4352,m,1,0.7372,,[],[],[],[],[],[],[],924.4352,926.436,926.436,926.4362,[],[],[],[],[],[],[],,926.4362,926.4363,-0.110199606,-0.397336609,0,0,0,,0,158,158,86,1,3,word,BESIDE,cursive,beside_c.png,,,,,,
,,,,32195,001,2025-10-16_23h07.12.602,HW_LDT_1,2024.2.4,MacIntel,60.24096386,,,,,,,,,,,,,,,,,,,,,926.4373,926.6359,926.636,927.1352,,,,,,,,,,,,,,1.0882,1,,,,,,,,,,,,,,m,,,,,,,,,,,,,,,160,0,927.1357,928.2352,m,1,1.0882,,[],[],[],[],[],[],[],928.2352,930.2359,930.236,930.2362,[],[],[],[],[],[],[],,930.2362,930.2363,-0.110199606,-0.397336609,0,0,0,,0,159,159,87,1,3,word,CAFETERIA,print,cafeteria_p.png,,,,,,
,,,,32195,001,2025-10-16_23h07.12.602,HW_LDT_1,2024.2.4,MacIntel,60.24096386,,,,,,,,,,,,,,,,,,,,,,,,,,,,,,,,,,,,,,,,,,,,,,,,,,,,,,,,,,,,,,,,,,,,,,,,,,,,,,,,,,,,,,,,,,,,,,,,,,,,,,,,,,,,,,,,,,,,,930.2422,935.2354
