counterbalance_lists.group,counterbalance_lists.remaining,get_list.started,get_list.stopped,participant,session,date,expName,psychopyVersion,OS,frameRate,Instructions.started,Instructions.stopped,key_resp.keys,instr_done_touch.x,instr_done_touch.y,instr_done_touch.leftButton,instr_done_touch.midButton,instr_done_touch.rightButton,instr_done_touch.clicked_name,start_instr.thisRepN,start_instr.thisTrialN,start_instr.thisN,start_instr.thisIndex,start_instr.ran,pageN,phase,instruct_text,has_image,instruct_image,key_resp.rt,key_resp.duration,showProgress.started,showProgress.stopped,fix.started,fix.stopped,prac.started,prac.stopped,response.keys,response.corr,response.rt,response.duration,touch_resp.x,touch_resp.y,touch_resp.leftButton,touch_resp.midButton,touch_resp.rightButton,touch_resp.time,touch_resp.clicked_name,rt,corr,feedback.started,feedback.stopped,trials.thisRepN,trials.thisTrialN,trials.thisN,trials.thisIndex,trials.ran,TrialID,StimulusType,Condition,PrimeDuration,Prime,Target,corrAns,Instructions_expt.started,Instructions_expt.stopped,key_resp_3.keys,key_resp_3.rt,key_resp_3.duration,instr_done_touch_3.x,instr_done_touch_3.y,instr_done_touch_3.leftButton,instr_done_touch_3.midButton,instr_done_touch_3.rightButton,instr_experiment.thisRepN,instr_experiment.thisTrialN,instr_experiment.thisN,instr_experiment.thisIndex,instr_experiment.ran,trialID,flag,maintask.started,maintask.stopped,key_resp_2.keys,key_resp_2.corr,key_resp_2.rt,key_resp_2.duration,targ_click.x,targ_click.y,targ_click.leftButton,targ_click.midButton,targ_click.rightButton,targ_click.time,targ_click.clicked_name,ITI.started,ITI.stopped,probe.started,probe.stopped,click_probe.x,click_probe.y,click_probe.leftButton,click_probe.midButton,click_probe.rightButton,click_probe.time,click_probe.clicked_name,key_resp_probe.keys,Break.started,Break.stopped,break_done_touch.x,break_done_touch.y,break_done_touch.leftButton,break_done_touch.midButton,break_done_touch.rightButton,break_done_keyboard.keys,list4_trials.thisRepN,list4_trials.thisTrialN,list4_trials.thisN,list4_trials.thisIndex,list4_trials.ran,list_id,item_type,string,font,stim_file,key_resp_probe.rt,key_resp_probe.duration,break_done_keyboard.rt,break_done_keyboard.duration,End.started,End.stopped
list4,,0.4191,0.4193,32200,001,2025-10-18_16h24.27.861,HW_LDT_1,2024.2.4,MacIntel,59.88023952,,,,,,,,,,,,,,,,,,,,,,,,,,,,,,,,,,,,,,,,,,,,,,,,,,,,,,,,,,,,,,,,,,,,,,,,,,,,,,,,,,,,,,,,,,,,,,,,,,,,,,,,,,,,,,,,,,,,,,,,
,,,,32200,001,2025-10-18_16h24.27.861,HW_LDT_1,2024.2.4,MacIntel,59.88023952,0.4396,19.3893,,0.004033628,-0.40581267,1,0,0,instr_done_button,0,0,0,0,1,1,instructions,"INSTRUCTIONS
At the start of each trial, look at the plus sign  (+) in the center of the screen.  This tells you that a trial is about to begin and where to look. Second, the plus sign will disappear and a string of letters will appear. Your task is to determine if the string of letters is a word or not. If the item is a word press the M key (on keyboard)  or touch the word button (phone/tablet).  If the item is not a word,  press the  Z key (on keyboard)  or touch the nonword button (on phone/tablet). The items will be presented for a short time. 
Press the space bar or touch  continue.",0,,,,,,,,,,,,,,,,,,,,,,,,,,,,,,,,,,,,,,,,,,,,,,,,,,,,,,,,,,,,,,,,,,,,,,,,,,,,,,,,,,,,,,,,,,,,,,,,,,,,,,
,,,,32200,001,2025-10-18_16h24.27.861,HW_LDT_1,2024.2.4,MacIntel,59.88023952,19.391,22.8892,space,-0.006419837,-0.355731997,0,0,0,,0,1,1,1,1,2,instructions,"If your device has a keyboard, press the 'Z' key for nonwords and the 'M' key for words.





Press the space bar or touch the button below to continue.",0,keyboard-example.gif,3.4691,,,,,,,,,,,,,,,,,,,,,,,,,,,,,,,,,,,,,,,,,,,,,,,,,,,,,,,,,,,,,,,,,,,,,,,,,,,,,,,,,,,,,,,,,,,,,,,,,,,,
,,,,32200,001,2025-10-18_16h24.27.861,HW_LDT_1,2024.2.4,MacIntel,59.88023952,22.8912,29.3058,space,-0.006419837,-0.355731997,0,0,0,,0,2,2,2,1,3,instructions,"If you are using a touchscreen only device, use the buttons on the screen. Do not use the mouse.





Press the space bar or touch the button below to continue.",0,touchscreen-example.gif,6.3859,,,,,,,,,,,,,,,,,,,,,,,,,,,,,,,,,,,,,,,,,,,,,,,,,,,,,,,,,,,,,,,,,,,,,,,,,,,,,,,,,,,,,,,,,,,,,,,,,,,,
,,,,32200,001,2025-10-18_16h24.27.861,HW_LDT_1,2024.2.4,MacIntel,59.88023952,29.3085,34.2887,space,-0.006419837,-0.355731997,0,0,0,,0,3,3,3,1,4,instructions,"It is very important that you respond as quickly and accurately as possible, as each letter string will only be on the screen for two seconds. If you do not respond within this time, the message 'Too slow!' will be displayed and the experiment will progress to the next letter string. The first 20 trials will be practice trials and you will receive feedback on your answers. 

Press the space bar or touch the button below to start the practice trials.",0,,4.9632,,,,,,,,,,,,,,,,,,,,,,,,,,,,,,,,,,,,,,,,,,,,,,,,,,,,,,,,,,,,,,,,,,,,,,,,,,,,,,,,,,,,,,,,,,,,,,,,,,,,
,,,,32200,001,2025-10-18_16h24.27.861,HW_LDT_1,2024.2.4,MacIntel,59.88023952,,,,,,,,,,,,,,,,,,,,,,34.3178,34.4886,34.4889,34.9889,34.9893,36.9224,m,1,1.9027,,[],[],[],[],[],[],[],1.9027,1,36.9229,37.4222,0,0,0,7,1,1008,WORD,UN,16,hurdle,VOLUME,m,,,,,,,,,,,,,,,,,,,,,,,,,,,,,,,,,,,,,,,,,,,,,,,,,,,,,,,,,,,,,,,,,,
,,,,32200,001,2025-10-18_16h24.27.861,HW_LDT_1,2024.2.4,MacIntel,59.88023952,,,,,,,,,,,,,,,,,,,,,,37.4237,37.6219,37.622,38.1218,38.1231,39.522,z,1,1.3785,,[],[],[],[],[],[],[],1.3785,1,39.5221,40.0221,0,1,1,13,1,1014,NW,UN,33,winfer,ROUPET,z,,,,,,,,,,,,,,,,,,,,,,,,,,,,,,,,,,,,,,,,,,,,,,,,,,,,,,,,,,,,,,,,,,
,,,,32200,001,2025-10-18_16h24.27.861,HW_LDT_1,2024.2.4,MacIntel,59.88023952,,,,,,,,,,,,,,,,,,,,,,40.0235,40.2219,40.222,40.7207,40.7212,41.7219,z,1,0.9955,,[],[],[],[],[],[],[],0.9955,1,41.7221,42.2219,0,2,2,8,1,1009,NW,"ID",33,aslert,ASLERT,z,,,,,,,,,,,,,,,,,,,,,,,,,,,,,,,,,,,,,,,,,,,,,,,,,,,,,,,,,,,,,,,,,,
,,,,32200,001,2025-10-18_16h24.27.861,HW_LDT_1,2024.2.4,MacIntel,59.88023952,,,,,,,,,,,,,,,,,,,,,,42.2236,42.4219,42.4219,42.9218,42.9229,43.7388,m,1,0.806,,[],[],[],[],[],[],[],0.806,1,43.739,44.2387,0,3,3,5,1,1006,WORD,UN,33,frenzy,OBTAIN,m,,,,,,,,,,,,,,,,,,,,,,,,,,,,,,,,,,,,,,,,,,,,,,,,,,,,,,,,,,,,,,,,,,
,,,,32200,001,2025-10-18_16h24.27.861,HW_LDT_1,2024.2.4,MacIntel,59.88023952,,,,,,,,,,,,,,,,,,,,,,44.2402,44.4384,44.4386,44.9384,44.9396,45.8708,z,1,0.9057,,[],[],[],[],[],[],[],0.9057,1,45.871,46.3719,0,4,4,14,1,1015,NW,UN,16,miaber,THRALE,z,,,,,,,,,,,,,,,,,,,,,,,,,,,,,,,,,,,,,,,,,,,,,,,,,,,,,,,,,,,,,,,,,,
,,,,32200,001,2025-10-18_16h24.27.861,HW_LDT_1,2024.2.4,MacIntel,59.88023952,,,,,,,,,,,,,,,,,,,,,,46.3731,46.5718,46.572,47.0719,47.073,47.8554,m,1,0.7724,,[],[],[],[],[],[],[],0.7724,1,47.8556,48.3553,0,5,5,0,1,1001,WORD,"ID",33,utopia,UTOPIA,m,,,,,,,,,,,,,,,,,,,,,,,,,,,,,,,,,,,,,,,,,,,,,,,,,,,,,,,,,,,,,,,,,,
,,,,32200,001,2025-10-18_16h24.27.861,HW_LDT_1,2024.2.4,MacIntel,59.88023952,,,,,,,,,,,,,,,,,,,,,,48.3573,48.5552,48.5553,49.0551,49.0562,49.672,z,1,0.5958,,[],[],[],[],[],[],[],0.5958,1,49.6721,50.1719,0,6,6,11,1,1012,NW,"ID",16,rashet,RASHET,z,,,,,,,,,,,,,,,,,,,,,,,,,,,,,,,,,,,,,,,,,,,,,,,,,,,,,,,,,,,,,,,,,,
,,,,32200,001,2025-10-18_16h24.27.861,HW_LDT_1,2024.2.4,MacIntel,59.88023952,,,,,,,,,,,,,,,,,,,,,,50.1734,50.3718,50.3719,50.8718,50.8728,51.7384,z,1,0.8458,,[],[],[],[],[],[],[],0.8458,1,51.7385,52.2387,0,7,7,15,1,1016,NW,UN,16,mushed,WHAISE,z,,,,,,,,,,,,,,,,,,,,,,,,,,,,,,,,,,,,,,,,,,,,,,,,,,,,,,,,,,,,,,,,,,
,,,,32200,001,2025-10-18_16h24.27.861,HW_LDT_1,2024.2.4,MacIntel,59.88023952,,,,,,,,,,,,,,,,,,,,,,52.2403,52.4384,52.4385,52.9385,52.9396,53.7385,z,1,0.7778,,[],[],[],[],[],[],[],0.7778,1,53.7387,54.2381,0,8,8,10,1,1011,NW,"ID",16,inlade,INLADE,z,,,,,,,,,,,,,,,,,,,,,,,,,,,,,,,,,,,,,,,,,,,,,,,,,,,,,,,,,,,,,,,,,,
,,,,32200,001,2025-10-18_16h24.27.861,HW_LDT_1,2024.2.4,MacIntel,59.88023952,,,,,,,,,,,,,,,,,,,,,,54.2387,54.4384,54.4385,54.9384,54.9395,55.5551,m,1,0.6004,,[],[],[],[],[],[],[],0.6004,1,55.5552,56.0551,0,9,9,1,1,1002,WORD,"ID",33,adjust,ADJUST,m,,,,,,,,,,,,,,,,,,,,,,,,,,,,,,,,,,,,,,,,,,,,,,,,,,,,,,,,,,,,,,,,,,
,,,,32200,001,2025-10-18_16h24.27.861,HW_LDT_1,2024.2.4,MacIntel,59.88023952,,,,,,,,,,,,,,,,,,,,,,56.0566,56.255,56.2551,56.7551,56.7559,57.4885,m,1,0.7125,,[],[],[],[],[],[],[],0.7125,1,57.4887,57.9883,0,10,10,3,1,1004,WORD,"ID",16,matrix,MATRIX,m,,,,,,,,,,,,,,,,,,,,,,,,,,,,,,,,,,,,,,,,,,,,,,,,,,,,,,,,,,,,,,,,,,
,,,,32200,001,2025-10-18_16h24.27.861,HW_LDT_1,2024.2.4,MacIntel,59.88023952,,,,,,,,,,,,,,,,,,,,,,57.9898,58.1884,58.1885,58.6884,58.6894,59.6883,z,1,0.9897,,[],[],[],[],[],[],[],0.9897,1,59.6886,60.1885,0,11,11,9,1,1010,NW,"ID",33,fariny,FARINY,z,,,,,,,,,,,,,,,,,,,,,,,,,,,,,,,,,,,,,,,,,,,,,,,,,,,,,,,,,,,,,,,,,,
,,,,32200,001,2025-10-18_16h24.27.861,HW_LDT_1,2024.2.4,MacIntel,59.88023952,,,,,,,,,,,,,,,,,,,,,,60.1901,60.3884,60.3885,60.8884,60.8894,61.8053,z,1,0.9073,,[],[],[],[],[],[],[],0.9073,1,61.8055,62.3051,0,12,12,12,1,1013,NW,UN,33,adveil,SPRINY,z,,,,,,,,,,,,,,,,,,,,,,,,,,,,,,,,,,,,,,,,,,,,,,,,,,,,,,,,,,,,,,,,,,
,,,,32200,001,2025-10-18_16h24.27.861,HW_LDT_1,2024.2.4,MacIntel,59.88023952,,,,,,,,,,,,,,,,,,,,,,62.3066,62.505,62.5051,63.0051,63.0061,63.638,m,1,0.6103,,[],[],[],[],[],[],[],0.6103,1,63.6381,64.1384,0,13,13,4,1,1005,WORD,UN,33,abound,SQUEAK,m,,,,,,,,,,,,,,,,,,,,,,,,,,,,,,,,,,,,,,,,,,,,,,,,,,,,,,,,,,,,,,,,,,
,,,,32200,001,2025-10-18_16h24.27.861,HW_LDT_1,2024.2.4,MacIntel,59.88023952,,,,,,,,,,,,,,,,,,,,,,64.1399,64.3384,64.3384,64.8374,64.8384,65.455,m,1,0.5956,,[],[],[],[],[],[],[],0.5956,1,65.4551,65.9552,0,14,14,6,1,1007,WORD,UN,16,tropic,ZOMBIE,m,,,,,,,,,,,,,,,,,,,,,,,,,,,,,,,,,,,,,,,,,,,,,,,,,,,,,,,,,,,,,,,,,,
,,,,32200,001,2025-10-18_16h24.27.861,HW_LDT_1,2024.2.4,MacIntel,59.88023952,,,,,,,,,,,,,,,,,,,,,,65.9568,66.155,66.1551,66.655,66.6559,67.2549,m,1,0.5831,,[],[],[],[],[],[],[],0.5831,1,67.2551,67.755,0,15,15,2,1,1003,WORD,"ID",16,almond,ALMOND,m,,,,,,,,,,,,,,,,,,,,,,,,,,,,,,,,,,,,,,,,,,,,,,,,,,,,,,,,,,,,,,,,,,
,,,,32200,001,2025-10-18_16h24.27.861,HW_LDT_1,2024.2.4,MacIntel,59.88023952,,,,,,,,,,,,,,,1,end_of_practice,"You have completed the practice trials. During the experimental trials, you will not receive feedback. On some trials you will be asked to report whether the item you just saw was in cursive or print. 
Before you begin, please ensure that you are in a comfortable and quiet location and will not be disturbed for about 15 minutes, as we cannot use your data if you do not complete all the trials. 
 When you are ready to start the experimental trials, please press space or touch the button below.",,,,,,,,,,,,,,,,,,,,,,,,,,,,,,,,,,,,,,67.7614,72.2211,space,4.4378,,0.00089589,-0.355731997,0,0,0,0,0,0,0,1,,,,,,,,,,,,,,,,,,,,,,,,,,,,,,,,,,,,,,,,,,,,,,,,,,,
,,,,32200,001,2025-10-18_16h24.27.861,HW_LDT_1,2024.2.4,MacIntel,59.88023952,,,,,,,,,,,,,,,,,,,,,,72.2418,72.4216,72.4217,72.9215,,,,,,,,,,,,,,1.0942,1,,,,,,,,,,,,,,z,,,,,,,,,,,,,,,,1,0,72.9233,74.0217,z,1,1.0942,,[],[],[],[],[],[],[],74.0218,76.022,76.0223,76.0257,[],[],[],[],[],[],[],,76.0258,76.0275,0.00089589,-0.355731997,0,0,0,,0,0,0,75,1,4,TL,sanile,print,sanile_p.png,,,,,,
,,,,32200,001,2025-10-18_16h24.27.861,HW_LDT_1,2024.2.4,MacIntel,59.88023952,,,,,,,,,,,,,,,,,,,,,,76.0284,76.2215,76.2216,76.7215,,,,,,,,,,,,,,4.0183,1,,,,,,,,,,,,,,z,,,,,,,,,,,,,,,,2,0,76.7222,80.7549,z,1,4.0183,,[],[],[],[],[],[],[],80.755,82.7548,82.7549,82.7554,[],[],[],[],[],[],[],,82.7554,82.7555,0.00089589,-0.355731997,0,0,0,,0,1,1,1,1,4,RL,afaneur,cursive,afaneur_c.png,,,,,,
,,,,32200,001,2025-10-18_16h24.27.861,HW_LDT_1,2024.2.4,MacIntel,59.88023952,,,,,,,,,,,,,,,,,,,,,,82.7567,82.9549,82.955,83.4549,,,,,,,,,,,,,,1.2509,1,,,,,,,,,,,,,,m,,,,,,,,,,,,,,,,3,0,83.4556,84.7213,m,1,1.2509,,[],[],[],[],[],[],[],84.7214,86.7215,86.7216,86.7219,[],[],[],[],[],[],[],,86.722,86.7221,0.00089589,-0.355731997,0,0,0,,0,2,2,153,1,4,word,STOLEN,cursive,stolen_c.png,,,,,,
,,,,32200,001,2025-10-18_16h24.27.861,HW_LDT_1,2024.2.4,MacIntel,59.88023952,,,,,,,,,,,,,,,,,,,,,,86.7237,86.9214,86.9215,87.4215,,,,,,,,,,,,,,1.6123,1,,,,,,,,,,,,,,z,,,,,,,,,,,,,,,,4,0,87.4222,89.0381,z,1,1.6123,,[],[],[],[],[],[],[],89.0382,91.0382,91.0383,91.0386,[],[],[],[],[],[],[],,91.0387,91.0389,0.00089589,-0.355731997,0,0,0,,0,3,3,70,1,4,TL,quatily,print,quatily_p.png,,,,,,
,,,,32200,001,2025-10-18_16h24.27.861,HW_LDT_1,2024.2.4,MacIntel,59.88023952,,,,,,,,,,,,,,,,,,,,,,91.0404,91.2382,91.2383,91.7381,,,,,,,,,,,,,,2.0642,1,,,,,,,,,,,,,,z,,,,,,,,,,,,,,,,5,0,91.739,93.8048,z,1,2.0642,,[],[],[],[],[],[],[],93.8049,95.8048,95.8049,95.8053,[],[],[],[],[],[],[],,95.8054,95.8055,0.00089589,-0.355731997,0,0,0,,0,4,4,72,1,4,TL,relugar,cursive,relugar_c.png,,,,,,
,,,,32200,001,2025-10-18_16h24.27.861,HW_LDT_1,2024.2.4,MacIntel,59.88023952,,,,,,,,,,,,,,,,,,,,,,95.807,96.0048,96.0049,96.5048,,,,,,,,,,,,,,0.8525,1,,,,,,,,,,,,,,m,,,,,,,,,,,,,,,,6,0,96.5057,97.3715,m,1,0.8525,,[],[],[],[],[],[],[],97.3717,99.3717,99.3718,99.3721,[],[],[],[],[],[],[],,99.3721,99.3724,0.00089589,-0.355731997,0,0,0,,0,5,5,88,1,4,word,CAMERA,print,camera_p.png,,,,,,
,,,,32200,001,2025-10-18_16h24.27.861,HW_LDT_1,2024.2.4,MacIntel,59.88023952,,,,,,,,,,,,,,,,,,,,,,99.3741,99.5714,99.5715,100.0715,,,,,,,,,,,,,,1.9072,1,,,,,,,,,,,,,,z,,,,,,,,,,,,,,,,7,0,100.0721,101.9881,z,1,1.9072,,[],[],[],[],[],[],[],101.9882,103.9881,103.9882,103.9885,[],[],[],[],[],[],[],,103.9887,103.9888,0.00089589,-0.355731997,0,0,0,,0,6,6,11,1,4,RL,clisimal,print,clisimal_p.png,,,,,,
,,,,32200,001,2025-10-18_16h24.27.861,HW_LDT_1,2024.2.4,MacIntel,59.88023952,,,,,,,,,,,,,,,,,,,,,,103.9905,104.1877,104.1878,104.688,,,,,,,,,,,,,,3.7307,1,,,,,,,,,,,,,,z,,,,,,,,,,,,,,,,8,0,104.6888,108.4211,z,1,3.7307,,[],[],[],[],[],[],[],108.4212,110.4214,110.4214,110.4219,[],[],[],[],[],[],[],,110.4219,110.422,0.00089589,-0.355731997,0,0,0,,0,7,7,8,1,4,RL,casagity,cursive,casagity_c.png,,,,,,
,,,,32200,001,2025-10-18_16h24.27.861,HW_LDT_1,2024.2.4,MacIntel,59.88023952,,,,,,,,,,,,,,,,,,,,,,110.4236,110.6213,110.6214,111.1213,,,,,,,,,,,,,,1.1407,1,,,,,,,,,,,,,,z,,,,,,,,,,,,,,,,9,1,111.1219,112.2713,z,1,1.1407,,[],[],[],[],[],[],[],112.2714,114.2713,114.2713,118.0881,[],[],[],[],[],[],[],m,118.0882,118.0884,0.00089589,-0.355731997,0,0,0,,0,8,8,57,1,4,TL,etidor,print,etidor_p.png,3.8068,,,,,
,,,,32200,001,2025-10-18_16h24.27.861,HW_LDT_1,2024.2.4,MacIntel,59.88023952,,,,,,,,,,,,,,,,,,,,,,118.0899,118.2877,118.2879,118.7879,,,,,,,,,,,,,,5.0691,0,,,,,,,,,,,,,,z,,,,,,,,,,,,,,,,10,0,118.7886,123.8714,m,0,5.0691,,[],[],[],[],[],[],[],123.8716,125.8708,125.8709,125.8713,[],[],[],[],[],[],[],,125.8714,125.8716,0.00089589,-0.355731997,0,0,0,,0,9,9,59,1,4,TL,fornute,cursive,fornute_c.png,,,,,,
,,,,32200,001,2025-10-18_16h24.27.861,HW_LDT_1,2024.2.4,MacIntel,59.88023952,,,,,,,,,,,,,,,,,,,,,,125.8727,126.0713,126.0713,126.5708,,,,,,,,,,,,,,1.9031,1,,,,,,,,,,,,,,z,,,,,,,,,,,,,,,,11,0,126.5715,128.4879,z,1,1.9031,,[],[],[],[],[],[],[],128.4882,130.4873,130.4874,130.4876,[],[],[],[],[],[],[],,130.4877,130.4879,0.00089589,-0.355731997,0,0,0,,0,10,10,52,1,4,TL,cagetory,cursive,cagetory_c.png,,,,,,
,,,,32200,001,2025-10-18_16h24.27.861,HW_LDT_1,2024.2.4,MacIntel,59.88023952,,,,,,,,,,,,,,,,,,,,,,130.4892,130.6878,130.688,131.1878,,,,,,,,,,,,,,3.4366,1,,,,,,,,,,,,,,z,,,,,,,,,,,,,,,,12,0,131.1885,134.6379,z,1,3.4366,,[],[],[],[],[],[],[],134.638,136.6378,136.6379,136.6381,[],[],[],[],[],[],[],,136.6382,136.6383,0.00089589,-0.355731997,0,0,0,,0,11,11,14,1,4,RL,delahe,cursive,delahe_c.png,,,,,,
,,,,32200,001,2025-10-18_16h24.27.861,HW_LDT_1,2024.2.4,MacIntel,59.88023952,,,,,,,,,,,,,,,,,,,,,,136.6399,136.8378,136.8378,137.3377,,,,,,,,,,,,,,1.953,1,,,,,,,,,,,,,,z,,,,,,,,,,,,,,,,13,0,137.3386,139.3045,z,1,1.953,,[],[],[],[],[],[],[],139.3047,141.3043,141.3044,141.3046,[],[],[],[],[],[],[],,141.3048,141.305,0.00089589,-0.355731997,0,0,0,,0,12,12,53,1,4,TL,cemerony,print,cemerony_p.png,,,,,,
,,,,32200,001,2025-10-18_16h24.27.861,HW_LDT_1,2024.2.4,MacIntel,59.88023952,,,,,,,,,,,,,,,,,,,,,,141.3064,141.5045,141.5045,142.0034,,,,,,,,,,,,,,1.504,1,,,,,,,,,,,,,,z,,,,,,,,,,,,,,,,14,0,142.004,143.5212,z,1,1.504,,[],[],[],[],[],[],[],143.5212,145.5212,145.5213,145.5214,[],[],[],[],[],[],[],,145.5215,145.5217,0.00089589,-0.355731997,0,0,0,,0,13,13,74,1,4,TL,rerite,print,rerite_p.png,,,,,,
,,,,32200,001,2025-10-18_16h24.27.861,HW_LDT_1,2024.2.4,MacIntel,59.88023952,,,,,,,,,,,,,,,,,,,,,,145.5234,145.7211,145.7212,146.2212,,,,,,,,,,,,,,4.592,0,,,,,,,,,,,,,,m,,,,,,,,,,,,,,,,15,0,146.222,150.821,z,0,4.592,,[],[],[],[],[],[],[],150.8212,152.821,152.8211,152.8213,[],[],[],[],[],[],[],,152.8214,152.8215,0.00089589,-0.355731997,0,0,0,,0,14,14,138,1,4,word,REFUSAL,cursive,refusal_c.png,,,,,,
,,,,32200,001,2025-10-18_16h24.27.861,HW_LDT_1,2024.2.4,MacIntel,59.88023952,,,,,,,,,,,,,,,,,,,,,,152.8231,153.0211,153.0211,153.521,,,,,,,,,,,,,,0.8819,1,,,,,,,,,,,,,,m,,,,,,,,,,,,,,,,16,0,153.5217,154.4048,m,1,0.8819,,[],[],[],[],[],[],[],154.4049,156.4043,156.4044,156.4046,[],[],[],[],[],[],[],,156.4047,156.4047,0.00089589,-0.355731997,0,0,0,,0,15,15,117,1,4,word,MARINE,print,marine_p.png,,,,,,
,,,,32200,001,2025-10-18_16h24.27.861,HW_LDT_1,2024.2.4,MacIntel,59.88023952,,,,,,,,,,,,,,,,,,,,,,156.406,156.6045,156.6045,157.1044,,,,,,,,,,,,,,0.7711,1,,,,,,,,,,,,,,m,,,,,,,,,,,,,,,,17,1,157.105,157.8877,m,1,0.7711,,[],[],[],[],[],[],[],157.8878,159.8877,159.8877,161.2213,[],[],[],[],[],[],[],m,161.2215,161.2216,0.00089589,-0.355731997,0,0,0,,0,16,16,154,1,4,word,STORAGE,print,storage_p.png,1.3329,,,,,
,,,,32200,001,2025-10-18_16h24.27.861,HW_LDT_1,2024.2.4,MacIntel,59.88023952,,,,,,,,,,,,,,,,,,,,,,161.2229,161.4209,161.421,161.9209,,,,,,,,,,,,,,0.9033,1,,,,,,,,,,,,,,m,,,,,,,,,,,,,,,,18,0,161.9216,162.8377,m,1,0.9033,,[],[],[],[],[],[],[],162.8379,164.8377,164.8378,164.8381,[],[],[],[],[],[],[],,164.8381,164.8383,0.00089589,-0.355731997,0,0,0,,0,17,17,129,1,4,word,PARENT,cursive,parent_c.png,,,,,,
,,,,32200,001,2025-10-18_16h24.27.861,HW_LDT_1,2024.2.4,MacIntel,59.88023952,,,,,,,,,,,,,,,,,,,,,,164.8399,165.0376,165.0377,165.5375,,,,,,,,,,,,,,0.8705,1,,,,,,,,,,,,,,m,,,,,,,,,,,,,,,,19,0,165.538,166.4209,m,1,0.8705,,[],[],[],[],[],[],[],166.421,168.4209,168.421,168.4213,[],[],[],[],[],[],[],,168.4213,168.4215,0.00089589,-0.355731997,0,0,0,,0,18,18,118,1,4,word,MEDICINE,cursive,medicine_c.png,,,,,,
,,,,32200,001,2025-10-18_16h24.27.861,HW_LDT_1,2024.2.4,MacIntel,59.88023952,,,,,,,,,,,,,,,,,,,,,,168.4231,168.6209,168.6209,169.121,,,,,,,,,,,,,,0.6366,1,,,,,,,,,,,,,,m,,,,,,,,,,,,,,,,20,0,169.1216,169.7711,m,1,0.6366,,[],[],[],[],[],[],[],169.7711,171.7708,171.771,171.7711,[],[],[],[],[],[],[],,171.7712,171.7713,0.00089589,-0.355731997,0,0,0,,0,19,19,140,1,4,word,RELATIVE,print,relative_p.png,,,,,,
,,,,32200,001,2025-10-18_16h24.27.861,HW_LDT_1,2024.2.4,MacIntel,59.88023952,,,,,,,,,,,,,,,,,,,,,,171.7731,171.9709,171.971,172.4708,,,,,,,,,,,,,,1.0612,1,,,,,,,,,,,,,,z,,,,,,,,,,,,,,,,21,0,172.4716,173.5366,z,1,1.0612,,[],[],[],[],[],[],[],173.5367,175.5375,175.5375,175.5376,[],[],[],[],[],[],[],,175.5376,175.5378,0.00089589,-0.355731997,0,0,0,,0,20,20,20,1,4,RL,gralekul,print,gralekul_p.png,,,,,,
,,,,32200,001,2025-10-18_16h24.27.861,HW_LDT_1,2024.2.4,MacIntel,59.88023952,,,,,,,,,,,,,,,,,,,,,,175.539,175.7373,175.7373,176.2374,,,,,,,,,,,,,,1.1373,1,,,,,,,,,,,,,,m,,,,,,,,,,,,,,,,22,0,176.2378,177.3874,m,1,1.1373,,[],[],[],[],[],[],[],177.3876,179.3875,179.3876,179.3877,[],[],[],[],[],[],[],,179.3877,179.3879,-0.015170686,-0.359710428,0,0,0,,0,21,21,137,1,4,word,RAPIDLY,cursive,rapidly_c.png,,,,,,
,,,,32200,001,2025-10-18_16h24.27.861,HW_LDT_1,2024.2.4,MacIntel,59.88023952,,,,,,,,,,,,,,,,,,,,,,179.3893,179.5874,179.5875,180.0875,,,,,,,,,,,,,,1.1887,1,,,,,,,,,,,,,,m,,,,,,,,,,,,,,,,23,0,180.0882,181.2875,m,1,1.1887,,[],[],[],[],[],[],[],181.2875,183.2875,183.2876,183.2878,[],[],[],[],[],[],[],,183.2879,183.288,-0.015170686,-0.359710428,0,0,0,,0,22,22,91,1,4,word,CARDINAL,cursive,cardinal_c.png,,,,,,
,,,,32200,001,2025-10-18_16h24.27.861,HW_LDT_1,2024.2.4,MacIntel,59.88023952,,,,,,,,,,,,,,,,,,,,,,183.2896,183.4875,183.4875,183.9873,,,,,,,,,,,,,,0.8656,1,,,,,,,,,,,,,,z,,,,,,,,,,,,,,,,24,0,183.9878,184.8546,z,1,0.8656,,[],[],[],[],[],[],[],184.8547,186.8541,186.8542,186.8544,[],[],[],[],[],[],[],,186.8545,186.8546,-0.015170686,-0.359710428,0,0,0,,0,23,23,54,1,4,TL,codemy,print,codemy_p.png,,,,,,
,,,,32200,001,2025-10-18_16h24.27.861,HW_LDT_1,2024.2.4,MacIntel,59.88023952,,,,,,,,,,,,,,,,,,,,,,186.856,187.0542,187.0542,187.5539,,,,,,,,,,,,,,0.7547,1,,,,,,,,,,,,,,m,,,,,,,,,,,,,,,,25,0,187.5545,188.3208,m,1,0.7547,,[],[],[],[],[],[],[],188.3209,190.3203,190.3204,190.3205,[],[],[],[],[],[],[],,190.3207,190.3209,-0.015170686,-0.359710428,0,0,0,,0,24,24,95,1,4,word,COMEDY,print,comedy_p.png,,,,,,
,,,,32200,001,2025-10-18_16h24.27.861,HW_LDT_1,2024.2.4,MacIntel,59.88023952,,,,,,,,,,,,,,,,,,,,,,190.322,190.5208,190.5209,191.0208,,,,,,,,,,,,,,3.3698,0,,,,,,,,,,,,,,m,,,,,,,,,,,,,,,,26,1,191.0213,194.4033,z,0,3.3698,,[],[],[],[],[],[],[],194.4033,196.4041,196.4042,197.704,[],[],[],[],[],[],[],z,197.7041,197.7042,-0.015170686,-0.359710428,0,0,0,,0,25,25,114,1,4,word,LOCATE,cursive,locate_c.png,1.293,,,,,
,,,,32200,001,2025-10-18_16h24.27.861,HW_LDT_1,2024.2.4,MacIntel,59.88023952,,,,,,,,,,,,,,,,,,,,,,197.7055,197.9041,197.9042,198.4041,,,,,,,,,,,,,,0.9699,1,,,,,,,,,,,,,,m,,,,,,,,,,,,,,,,27,0,198.4049,199.3873,m,1,0.9699,,[],[],[],[],[],[],[],199.3874,201.3872,201.3874,201.3877,[],[],[],[],[],[],[],,201.3878,201.388,-0.015170686,-0.359710428,0,0,0,,0,26,26,111,1,4,word,INDICATE,print,indicate_p.png,,,,,,
,,,,32200,001,2025-10-18_16h24.27.861,HW_LDT_1,2024.2.4,MacIntel,59.88023952,,,,,,,,,,,,,,,,,,,,,,201.3903,201.587,201.5871,202.0875,,,,,,,,,,,,,,0.7353,1,,,,,,,,,,,,,,m,,,,,,,,,,,,,,,,28,0,202.0885,202.8375,m,1,0.7353,,[],[],[],[],[],[],[],202.8377,204.8371,204.8371,204.8372,[],[],[],[],[],[],[],,204.8372,204.8372,-0.015170686,-0.359710428,0,0,0,,0,27,27,130,1,4,word,POLICY,cursive,policy_c.png,,,,,,
,,,,32200,001,2025-10-18_16h24.27.861,HW_LDT_1,2024.2.4,MacIntel,59.88023952,,,,,,,,,,,,,,,,,,,,,,204.8379,205.0373,205.0375,205.5373,,,,,,,,,,,,,,0.7701,0,,,,,,,,,,,,,,m,,,,,,,,,,,,,,,,29,0,205.538,206.3201,z,0,0.7701,,[],[],[],[],[],[],[],206.3202,208.3206,208.3206,208.3208,[],[],[],[],[],[],[],,208.3209,208.3211,-0.015170686,-0.359710428,0,0,0,,0,28,28,99,1,4,word,DEBATE,cursive,debate_c.png,,,,,,
,,,,32200,001,2025-10-18_16h24.27.861,HW_LDT_1,2024.2.4,MacIntel,59.88023952,,,,,,,,,,,,,,,,,,,,,,208.3226,208.5207,208.5208,209.0207,,,,,,,,,,,,,,1.9191,1,,,,,,,,,,,,,,z,,,,,,,,,,,,,,,,30,0,209.0213,210.9539,z,1,1.9191,,[],[],[],[],[],[],[],210.954,212.9539,212.9541,212.9542,[],[],[],[],[],[],[],,212.9543,212.9544,-0.015170686,-0.359710428,0,0,0,,0,29,29,10,1,4,RL,carminal,cursive,carminal_c.png,,,,,,
,,,,32200,001,2025-10-18_16h24.27.861,HW_LDT_1,2024.2.4,MacIntel,59.88023952,,,,,,,,,,,,,,,,,,,,,,212.956,213.154,213.154,213.6541,,,,,,,,,,,,,,1.0069,1,,,,,,,,,,,,,,m,,,,,,,,,,,,,,,,31,1,213.6547,214.6705,m,1,1.0069,,[],[],[],[],[],[],[],214.6707,216.6705,216.6707,217.7373,[],[],[],[],[],[],[],m,217.7374,217.7375,-0.015170686,-0.359710428,0,0,0,,0,30,30,141,1,4,word,RELIGION,print,religion_p.png,1.0535,,,,,
,,,,32200,001,2025-10-18_16h24.27.861,HW_LDT_1,2024.2.4,MacIntel,59.88023952,,,,,,,,,,,,,,,,,,,,,,217.7388,217.9373,217.9373,218.4373,,,,,,,,,,,,,,2.1132,1,,,,,,,,,,,,,,m,,,,,,,,,,,,,,,,32,0,218.4379,220.5535,m,1,2.1132,,[],[],[],[],[],[],[],220.5536,222.554,222.554,222.5542,[],[],[],[],[],[],[],,222.5543,222.5545,-0.015170686,-0.359710428,0,0,0,,0,31,31,150,1,4,word,SENTIMENT,print,sentiment_p.png,,,,,,
,,,,32200,001,2025-10-18_16h24.27.861,HW_LDT_1,2024.2.4,MacIntel,59.88023952,,,,,,,,,,,,,,,,,,,,,,222.5561,222.7537,222.7537,223.2538,,,,,,,,,,,,,,1.8055,1,,,,,,,,,,,,,,z,,,,,,,,,,,,,,,,33,0,223.2544,225.0707,z,1,1.8055,,[],[],[],[],[],[],[],225.0707,227.0705,227.0706,227.0707,[],[],[],[],[],[],[],,227.0707,227.0708,-0.015170686,-0.359710428,0,0,0,,0,32,32,56,1,4,TL,donimant,cursive,donimant_c.png,,,,,,
,,,,32200,001,2025-10-18_16h24.27.861,HW_LDT_1,2024.2.4,MacIntel,59.88023952,,,,,,,,,,,,,,,,,,,,,,227.0721,227.2705,227.2706,227.7704,,,,,,,,,,,,,,0.8542,1,,,,,,,,,,,,,,z,,,,,,,,,,,,,,,,34,0,227.7711,228.637,z,1,0.8542,,[],[],[],[],[],[],[],228.6371,230.6371,230.6372,230.6375,[],[],[],[],[],[],[],,230.6377,230.6377,-0.015170686,-0.359710428,0,0,0,,0,33,33,43,1,4,RL,rovastic,print,rovastic_p.png,,,,,,
,,,,32200,001,2025-10-18_16h24.27.861,HW_LDT_1,2024.2.4,MacIntel,59.88023952,,,,,,,,,,,,,,,,,,,,,,230.6394,230.8371,230.8372,231.3372,,,,,,,,,,,,,,1.2317,1,,,,,,,,,,,,,,z,,,,,,,,,,,,,,,,35,0,231.338,232.571,z,1,1.2317,,[],[],[],[],[],[],[],232.5711,234.5704,234.5705,234.5707,[],[],[],[],[],[],[],,234.5708,234.5709,-0.015170686,-0.359710428,0,0,0,,0,34,34,61,1,4,TL,lotace,cursive,lotace_c.png,,,,,,
,,,,32200,001,2025-10-18_16h24.27.861,HW_LDT_1,2024.2.4,MacIntel,59.88023952,,,,,,,,,,,,,,,,,,,,,,234.5723,234.7705,234.7705,235.2701,,,,,,,,,,,,,,1.149,1,,,,,,,,,,,,,,z,,,,,,,,,,,,,,,,36,0,235.2706,236.4206,z,1,1.149,,[],[],[],[],[],[],[],236.4207,238.4204,238.4205,238.4207,[],[],[],[],[],[],[],,238.4207,238.4209,-0.015170686,-0.359710428,0,0,0,,0,35,35,33,1,4,RL,pamest,cursive,pamest_c.png,,,,,,
,,,,32200,001,2025-10-18_16h24.27.861,HW_LDT_1,2024.2.4,MacIntel,59.88023952,,,,,,,,,,,,,,,,,,,,,,238.4225,238.6204,238.6205,239.1205,,,,,,,,,,,,,,0.854,1,,,,,,,,,,,,,,m,,,,,,,,,,,,,,,,37,0,239.1212,239.987,m,1,0.854,,[],[],[],[],[],[],[],239.9871,241.9871,241.9872,241.9873,[],[],[],[],[],[],[],,241.9874,241.9876,-0.015170686,-0.359710428,0,0,0,,0,36,36,158,1,4,word,VELOCITY,cursive,velocity_c.png,,,,,,
,,,,32200,001,2025-10-18_16h24.27.861,HW_LDT_1,2024.2.4,MacIntel,59.88023952,,,,,,,,,,,,,,,,,,,,,,241.9891,242.187,242.1872,242.687,,,,,,,,,,,,,,0.7697,1,,,,,,,,,,,,,,m,,,,,,,,,,,,,,,,38,0,242.6877,243.4703,m,1,0.7697,,[],[],[],[],[],[],[],243.4704,245.4703,245.4704,245.4707,[],[],[],[],[],[],[],,245.4707,245.4709,-0.015170686,-0.359710428,0,0,0,,0,37,37,103,1,4,word,DISPUTE,print,dispute_p.png,,,,,,
,,,,32200,001,2025-10-18_16h24.27.861,HW_LDT_1,2024.2.4,MacIntel,59.88023952,,,,,,,,,,,,,,,,,,,,,,245.4723,245.6703,245.6704,246.1697,,,,,,,,,,,,,,0.9206,1,,,,,,,,,,,,,,z,,,,,,,,,,,,,,,,39,0,246.1704,247.1037,z,1,0.9206,,[],[],[],[],[],[],[],247.1037,249.1037,249.1037,249.104,[],[],[],[],[],[],[],,249.104,249.1041,-0.015170686,-0.359710428,0,0,0,,0,38,38,25,1,4,RL,macise,print,macise_p.png,,,,,,
,,,,32200,001,2025-10-18_16h24.27.861,HW_LDT_1,2024.2.4,MacIntel,59.88023952,,,,,,,,,,,,,,,,,,,,,,249.1058,249.3036,249.3037,249.8035,,,,,,,,,,,,,,1.398,1,,,,,,,,,,,,,,m,,,,,,,,,,,,,,,,40,0,249.8042,251.2038,m,1,1.398,,[],[],[],[],[],[],[],251.2038,253.2035,253.2036,253.204,[],[],[],[],[],[],[],,253.204,253.2041,-0.015170686,-0.359710428,0,0,0,,0,39,39,98,1,4,word,CRIMINAL,cursive,criminal_c.png,,,,,,
,,,,32200,001,2025-10-18_16h24.27.861,HW_LDT_1,2024.2.4,MacIntel,59.88023952,,,,,,,,,,,,,,,,,,,,,,253.2055,253.4028,253.4029,253.9035,,,,,,,,,,,,,,0.7815,1,,,,,,,,,,,,,,m,,,,,,,,,,,,,,,,41,0,253.9042,254.6867,m,1,0.7815,,[],[],[],[],[],[],[],254.6868,256.6869,256.687,256.6872,[],[],[],[],[],[],[],,256.6874,256.6874,-0.015170686,-0.359710428,0,0,0,,0,40,40,152,1,4,word,SPECIMEN,cursive,specimen_c.png,,,,,,
,,,,32200,001,2025-10-18_16h24.27.861,HW_LDT_1,2024.2.4,MacIntel,59.88023952,,,,,,,,,,,,,,,,,,,,,,256.689,256.8869,256.887,257.3868,,,,,,,,,,,,,,0.7201,1,,,,,,,,,,,,,,z,,,,,,,,,,,,,,,,42,0,257.3873,258.1203,z,1,0.7201,,[],[],[],[],[],[],[],258.1203,260.1202,260.1203,260.1205,[],[],[],[],[],[],[],,260.1206,260.1207,-0.015170686,-0.359710428,0,0,0,,0,41,41,47,1,4,RL,stopave,print,stopave_p.png,,,,,,
,,,,32200,001,2025-10-18_16h24.27.861,HW_LDT_1,2024.2.4,MacIntel,59.88023952,,,,,,,,,,,,,,,,,,,,,,260.1224,260.3203,260.3203,260.8203,,,,,,,,,,,,,,0.8146,1,,,,,,,,,,,,,,z,,,,,,,,,,,,,,,,43,0,260.8209,261.6368,z,1,0.8146,,[],[],[],[],[],[],[],261.6369,263.6369,263.637,263.6373,[],[],[],[],[],[],[],,263.6373,263.6373,-0.015170686,-0.359710428,0,0,0,,0,42,42,36,1,4,RL,rabigly,cursive,rabigly_c.png,,,,,,
,,,,32200,001,2025-10-18_16h24.27.861,HW_LDT_1,2024.2.4,MacIntel,59.88023952,,,,,,,,,,,,,,,,,,,,,,263.6388,263.8367,263.8368,264.3369,,,,,,,,,,,,,,1.2043,1,,,,,,,,,,,,,,z,,,,,,,,,,,,,,,,44,1,264.3375,265.5535,z,1,1.2043,,[],[],[],[],[],[],[],265.5536,267.5535,267.5536,271.9699,[],[],[],[],[],[],[],z,271.9699,271.97,-0.015170686,-0.359710428,0,0,0,,0,43,43,45,1,4,RL,spetisic,cursive,spetisic_c.png,4.4147,,,,,
,,,,32200,001,2025-10-18_16h24.27.861,HW_LDT_1,2024.2.4,MacIntel,59.88023952,,,,,,,,,,,,,,,,,,,,,,271.9712,272.1691,272.1691,272.67,,,,,,,,,,,,,,0.7033,1,,,,,,,,,,,,,,m,,,,,,,,,,,,,,,,45,0,272.6705,273.3868,m,1,0.7033,,[],[],[],[],[],[],[],273.3869,275.3867,275.3867,275.3869,[],[],[],[],[],[],[],,275.387,275.3872,-0.015170686,-0.359710428,0,0,0,,0,44,44,107,1,4,word,EVIDENT,print,evident_p.png,,,,,,
,,,,32200,001,2025-10-18_16h24.27.861,HW_LDT_1,2024.2.4,MacIntel,59.88023952,,,,,,,,,,,,,,,,,,,,,,275.3886,275.5867,275.5867,276.0867,,,,,,,,,,,,,,1.103,1,,,,,,,,,,,,,,z,,,,,,,,,,,,,,,,46,0,276.0873,277.2024,z,1,1.103,,[],[],[],[],[],[],[],277.2025,279.2034,279.2034,279.2036,[],[],[],[],[],[],[],,279.2036,279.2037,-0.015170686,-0.359710428,0,0,0,,0,45,45,41,1,4,RL,rebicent,cursive,rebicent_c.png,,,,,,
,,,,32200,001,2025-10-18_16h24.27.861,HW_LDT_1,2024.2.4,MacIntel,59.88023952,,,,,,,,,,,,,,,,,,,,,,279.2052,279.4033,279.4033,279.9023,,,,,,,,,,,,,,0.8908,1,,,,,,,,,,,,,,z,,,,,,,,,,,,,,,,47,0,279.9028,280.8034,z,1,0.8908,,[],[],[],[],[],[],[],280.8034,282.8035,282.8036,282.8036,[],[],[],[],[],[],[],,282.8037,282.8037,0.01955248,-0.363761039,0,0,0,,0,46,46,12,1,4,RL,conbicer,cursive,conbicer_c.png,,,,,,
,,,,32200,001,2025-10-18_16h24.27.861,HW_LDT_1,2024.2.4,MacIntel,59.88023952,,,,,,,,,,,,,,,,,,,,,,282.8051,283.0036,283.0036,283.5035,,,,,,,,,,,,,,0.5819,1,,,,,,,,,,,,,,m,,,,,,,,,,,,,,,,48,0,283.5041,284.0869,m,1,0.5819,,[],[],[],[],[],[],[],284.087,286.0866,286.0867,286.087,[],[],[],[],[],[],[],,286.087,286.0871,0.024991508,-0.360810122,0,0,0,,0,47,47,127,1,4,word,ORIGINAL,print,original_p.png,,,,,,
,,,,32200,001,2025-10-18_16h24.27.861,HW_LDT_1,2024.2.4,MacIntel,59.88023952,,,,,,,,,,,,,,,,,,,,,,286.0887,286.2856,286.2856,286.7866,,,,,,,,,,,,,,0.7534,1,,,,,,,,,,,,,,z,,,,,,,,,,,,,,,,49,0,286.7872,287.5535,z,1,0.7534,,[],[],[],[],[],[],[],287.5536,289.5523,289.5523,289.5524,[],[],[],[],[],[],[],,289.5525,289.5525,0.025242018,-0.360810122,0,0,0,,0,48,48,29,1,4,RL,motide,print,motide_p.png,,,,,,
,,,,32200,001,2025-10-18_16h24.27.861,HW_LDT_1,2024.2.4,MacIntel,59.88023952,,,,,,,,,,,,,,,,,,,,,,289.5537,289.753,289.7531,290.2532,,,,,,,,,,,,,,1.8523,1,,,,,,,,,,,,,,z,,,,,,,,,,,,,,,,50,0,290.2537,292.1197,z,1,1.8523,,[],[],[],[],[],[],[],292.1198,294.1189,294.1189,294.119,[],[],[],[],[],[],[],,294.1191,294.1192,0.025747283,-0.360810122,0,0,0,,0,49,49,23,1,4,RL,linefal,cursive,linefal_c.png,,,,,,
,,,,32200,001,2025-10-18_16h24.27.861,HW_LDT_1,2024.2.4,MacIntel,59.88023952,,,,,,,,,,,,,,,,,,,,,,294.1204,294.3188,294.3189,294.8198,,,,,,,,,,,,,,1.3697,1,,,,,,,,,,,,,,z,,,,,,,,,,,,,,,,51,0,294.8202,296.2022,z,1,1.3697,,[],[],[],[],[],[],[],296.2023,298.2022,298.2022,298.2023,[],[],[],[],[],[],[],,298.2024,298.2025,0.026252548,-0.360810122,0,0,0,,0,50,50,68,1,4,TL,prosopal,print,prosopal_p.png,,,,,,
,,,,32200,001,2025-10-18_16h24.27.861,HW_LDT_1,2024.2.4,MacIntel,59.88023952,,,,,,,,,,,,,,,,,,,,,,298.2035,298.4022,298.4023,298.9023,,,,,,,,,,,,,,0.8201,1,,,,,,,,,,,,,,m,,,,,,,,,,,,,,,,52,0,298.9028,299.7356,m,1,0.8201,,[],[],[],[],[],[],[],299.7357,301.7366,301.7367,301.7367,[],[],[],[],[],[],[],,301.7368,301.7369,0.026252548,-0.360810122,0,0,0,,0,51,51,131,1,4,word,POPULAR,print,popular_p.png,,,,,,
,,,,32200,001,2025-10-18_16h24.27.861,HW_LDT_1,2024.2.4,MacIntel,59.88023952,,,,,,,,,,,,,,,,,,,,,,301.7381,301.9366,301.9366,302.4365,,,,,,,,,,,,,,1.8974,1,,,,,,,,,,,,,,z,,,,,,,,,,,,,,,,53,0,302.4371,304.3356,z,1,1.8974,,[],[],[],[],[],[],[],304.3357,306.3366,306.3366,306.3368,[],[],[],[],[],[],[],,306.3368,306.3369,0.026252548,-0.360810122,0,0,0,,0,52,52,19,1,4,RL,elacodate,cursive,elacodate_c.png,,,,,,
,,,,32200,001,2025-10-18_16h24.27.861,HW_LDT_1,2024.2.4,MacIntel,59.88023952,,,,,,,,,,,,,,,,,,,,,,306.3382,306.5364,306.5365,307.0365,,,,,,,,,,,,,,1.5137,1,,,,,,,,,,,,,,z,,,,,,,,,,,,,,,,54,0,307.0371,308.5531,z,1,1.5137,,[],[],[],[],[],[],[],308.5531,310.553,310.5531,310.5533,[],[],[],[],[],[],[],,310.5533,310.5535,0.026252548,-0.360810122,0,0,0,,0,53,53,26,1,4,RL,mesibine,cursive,mesibine_c.png,,,,,,
,,,,32200,001,2025-10-18_16h24.27.861,HW_LDT_1,2024.2.4,MacIntel,59.88023952,,,,,,,,,,,,,,,,,,,,,,310.5547,310.7524,310.7524,311.2522,,,,,,,,,,,,,,1.3315,1,,,,,,,,,,,,,,z,,,,,,,,,,,,,,,,55,0,311.2527,312.5856,z,1,1.3315,,[],[],[],[],[],[],[],312.5857,314.5855,314.5856,314.5858,[],[],[],[],[],[],[],,314.5859,314.5861,0.026252548,-0.360810122,0,0,0,,0,54,54,4,1,4,RL,betemit,cursive,betemit_c.png,,,,,,
,,,,32200,001,2025-10-18_16h24.27.861,HW_LDT_1,2024.2.4,MacIntel,59.88023952,,,,,,,,,,,,,,,,,,,,,,314.5873,314.7862,314.7862,315.2858,,,,,,,,,,,,,,1.019,1,,,,,,,,,,,,,,m,,,,,,,,,,,,,,,,56,0,315.2864,316.3188,m,1,1.019,,[],[],[],[],[],[],[],316.3189,318.3197,318.3197,318.3199,[],[],[],[],[],[],[],,318.3199,318.32,0.026252548,-0.360810122,0,0,0,,0,55,55,109,1,4,word,GRATEFUL,print,grateful_p.png,,,,,,
,,,,32200,001,2025-10-18_16h24.27.861,HW_LDT_1,2024.2.4,MacIntel,59.88023952,,,,,,,,,,,,,,,,,,,,,,318.3214,318.5198,318.5198,319.0197,,,,,,,,,,,,,,1.0977,0,,,,,,,,,,,,,,m,,,,,,,,,,,,,,,,57,0,319.0203,320.1197,z,0,1.0977,,[],[],[],[],[],[],[],320.1197,322.1187,322.1189,322.119,[],[],[],[],[],[],[],,322.1192,322.1193,0.026252548,-0.360810122,0,0,0,,0,56,56,92,1,4,word,CATEGORY,cursive,category_c.png,,,,,,
,,,,32200,001,2025-10-18_16h24.27.861,HW_LDT_1,2024.2.4,MacIntel,59.88023952,,,,,,,,,,,,,,,,,,,,,,322.1204,322.3188,322.3188,322.8196,,,,,,,,,,,,,,0.9984,1,,,,,,,,,,,,,,z,,,,,,,,,,,,,,,,58,0,322.8203,323.82,z,1,0.9984,,[],[],[],[],[],[],[],323.82,325.8197,325.8197,325.8198,[],[],[],[],[],[],[],,325.8198,325.8199,0.026252548,-0.360810122,0,0,0,,0,57,57,66,1,4,TL,opmital,print,opmital_p.png,,,,,,
,,,,32200,001,2025-10-18_16h24.27.861,HW_LDT_1,2024.2.4,MacIntel,59.88023952,,,,,,,,,,,,,,,,,,,,,,325.8212,326.0197,326.0198,326.5197,,,,,,,,,,,,,,0.8643,1,,,,,,,,,,,,,,m,,,,,,,,,,,,,,,,59,0,326.5201,327.3864,m,1,0.8643,,[],[],[],[],[],[],[],327.3864,329.3863,329.3864,329.3867,[],[],[],[],[],[],[],,329.3868,329.3869,0.026252548,-0.360810122,0,0,0,,0,58,58,100,1,4,word,DECADE,cursive,decade_c.png,,,,,,
,,,,32200,001,2025-10-18_16h24.27.861,HW_LDT_1,2024.2.4,MacIntel,59.88023952,,,,,,,,,,,,,,,,,,,,,,329.3883,329.5864,329.5865,330.0864,,,,,,,,,,,,,,1.0979,1,,,,,,,,,,,,,,m,,,,,,,,,,,,,,,,60,0,330.0869,331.1862,m,1,1.0979,,[],[],[],[],[],[],[],331.1863,333.1852,333.1853,333.1855,[],[],[],[],[],[],[],,333.1855,333.1857,0.026252548,-0.360810122,0,0,0,,0,59,59,156,1,4,word,TRIBUTE,print,tribute_p.png,,,,,,
,,,,32200,001,2025-10-18_16h24.27.861,HW_LDT_1,2024.2.4,MacIntel,59.88023952,,,,,,,,,,,,,,,,,,,,,,333.1868,333.3865,333.3865,333.8863,,,,,,,,,,,,,,4.6864,0,,,,,,,,,,,,,,m,,,,,,,,,,,,,,,,61,0,333.887,338.5863,z,0,4.6864,,[],[],[],[],[],[],[],338.5864,340.5861,340.5862,340.5864,[],[],[],[],[],[],[],,340.5864,340.5864,0.026252548,-0.360810122,0,0,0,,0,60,60,83,1,4,word,ANIMAL,cursive,animal_c.png,,,,,,
,,,,32200,001,2025-10-18_16h24.27.861,HW_LDT_1,2024.2.4,MacIntel,59.88023952,,,,,,,,,,,,,,,,,,,,,,340.5872,340.7862,340.7862,341.2849,,,,,,,,,,,,,,1.5555,1,,,,,,,,,,,,,,z,,,,,,,,,,,,,,,,62,0,341.2852,342.853,z,1,1.5555,,[],[],[],[],[],[],[],342.8531,344.8528,344.8529,344.853,[],[],[],[],[],[],[],,344.853,344.8532,0.026252548,-0.360810122,0,0,0,,0,61,61,24,1,4,RL,marmipal,cursive,marmipal_c.png,,,,,,
,,,,32200,001,2025-10-18_16h24.27.861,HW_LDT_1,2024.2.4,MacIntel,59.88023952,,,,,,,,,,,,,,,,,,,,,,344.8544,345.0529,345.053,345.5529,,,,,,,,,,,,,,1.6534,1,,,,,,,,,,,,,,m,,,,,,,,,,,,,,,,63,0,345.5535,347.2195,m,1,1.6534,,[],[],[],[],[],[],[],347.2196,349.2194,349.2195,349.2197,[],[],[],[],[],[],[],,349.2197,349.2198,0.026252548,-0.360810122,0,0,0,,0,62,62,94,1,4,word,CLINICAL,print,clinical_p.png,,,,,,
,,,,32200,001,2025-10-18_16h24.27.861,HW_LDT_1,2024.2.4,MacIntel,59.88023952,,,,,,,,,,,,,,,,,,,,,,349.2209,349.4194,349.4195,349.9184,,,,,,,,,,,,,,1.5421,1,,,,,,,,,,,,,,z,,,,,,,,,,,,,,,,64,0,349.919,351.4685,z,1,1.5421,,[],[],[],[],[],[],[],351.4686,353.4694,353.4694,353.4695,[],[],[],[],[],[],[],,353.4696,353.4698,0.026252548,-0.360810122,0,0,0,,0,63,63,35,1,4,RL,probice,cursive,probice_c.png,,,,,,
,,,,32200,001,2025-10-18_16h24.27.861,HW_LDT_1,2024.2.4,MacIntel,59.88023952,,,,,,,,,,,,,,,,,,,,,,353.4711,353.6695,353.6696,354.1694,,,,,,,,,,,,,,0.6869,0,,,,,,,,,,,,,,z,,,,,,,,,,,,,,,,65,0,354.1701,354.8695,m,0,0.6869,,[],[],[],[],[],[],[],354.8695,356.8694,356.8694,356.8696,[],[],[],[],[],[],[],,356.8696,356.8697,0.026252548,-0.360810122,0,0,0,,0,64,64,77,1,4,TL,spemicen,cursive,spemicen_c.png,,,,,,
,,,,32200,001,2025-10-18_16h24.27.861,HW_LDT_1,2024.2.4,MacIntel,59.88023952,,,,,,,,,,,,,,,,,,,,,,356.871,357.0689,357.0689,357.5694,,,,,,,,,,,,,,2.1379,1,,,,,,,,,,,,,,m,,,,,,,,,,,,,,,,66,1,357.5698,359.7195,m,1,2.1379,,[],[],[],[],[],[],[],359.7197,361.7194,361.7194,362.9693,[],[],[],[],[],[],[],m,362.9694,362.9695,0.026252548,-0.360810122,0,0,0,,0,65,65,157,1,4,word,VALIDITY,print,validity_p.png,1.2478,,,,,
,,,,32200,001,2025-10-18_16h24.27.861,HW_LDT_1,2024.2.4,MacIntel,59.88023952,,,,,,,,,,,,,,,,,,,,,,362.9707,363.1694,363.1694,363.6694,,,,,,,,,,,,,,1.8033,1,,,,,,,,,,,,,,z,,,,,,,,,,,,,,,,67,0,363.67,365.485,z,1,1.8033,,[],[],[],[],[],[],[],365.4852,367.4862,367.4862,367.4864,[],[],[],[],[],[],[],,367.4866,367.4867,0.026252548,-0.360810122,0,0,0,,0,66,66,18,1,4,RL,disluge,print,disluge_p.png,,,,,,
,,,,32200,001,2025-10-18_16h24.27.861,HW_LDT_1,2024.2.4,MacIntel,59.88023952,,,,,,,,,,,,,,,,,,,,,,367.4883,367.6861,367.6861,368.1863,,,,,,,,,,,,,,1.4211,1,,,,,,,,,,,,,,z,,,,,,,,,,,,,,,,68,0,368.187,369.6195,z,1,1.4211,,[],[],[],[],[],[],[],369.6196,371.6193,371.6194,371.6196,[],[],[],[],[],[],[],,371.6196,371.6197,0.026252548,-0.360810122,0,0,0,,0,67,67,48,1,4,RL,vabifity,print,vabifity_p.png,,,,,,
,,,,32200,001,2025-10-18_16h24.27.861,HW_LDT_1,2024.2.4,MacIntel,59.88023952,,,,,,,,,,,,,,,,,,,,,,371.6211,371.8192,371.8192,372.3194,,,,,,,,,,,,,,1.9469,1,,,,,,,,,,,,,,z,,,,,,,,,,,,,,,,69,1,372.32,374.2682,z,1,1.9469,,[],[],[],[],[],[],[],374.2683,376.2688,376.2689,379.3694,[],[],[],[],[],[],[],z,379.3695,379.3696,0.03203125,-0.360555367,0,0,0,,0,68,68,9,1,4,RL,cafigal,print,cafigal_p.png,3.0872,,,,,
,,,,32200,001,2025-10-18_16h24.27.861,HW_LDT_1,2024.2.4,MacIntel,59.88023952,,,,,,,,,,,,,,,,,,,,,,379.371,379.5693,379.5693,380.0694,,,,,,,,,,,,,,2.0472,0,,,,,,,,,,,,,,m,,,,,,,,,,,,,,,,70,0,380.0698,382.1187,z,0,2.0472,,[],[],[],[],[],[],[],382.1188,384.1188,384.1188,384.119,[],[],[],[],[],[],[],,384.119,384.1191,0.03203125,-0.360555367,0,0,0,,0,69,69,113,1,4,word,LITERAL,cursive,literal_c.png,,,,,,
,,,,32200,001,2025-10-18_16h24.27.861,HW_LDT_1,2024.2.4,MacIntel,59.88023952,,,,,,,,,,,,,,,,,,,,,,384.1203,384.3182,384.3182,384.8192,,,,,,,,,,,,,,0.8978,1,,,,,,,,,,,,,,m,,,,,,,,,,,,,,,,71,0,384.8197,385.7193,m,1,0.8978,,[],[],[],[],[],[],[],385.7193,387.7185,387.7185,387.7186,[],[],[],[],[],[],[],,387.7187,387.7188,0.03203125,-0.360555367,0,0,0,,0,70,70,115,1,4,word,LOGICAL,print,logical_p.png,,,,,,
,,,,32200,001,2025-10-18_16h24.27.861,HW_LDT_1,2024.2.4,MacIntel,59.88023952,,,,,,,,,,,,,,,,,,,,,,387.72,387.9193,387.9194,388.4182,,,,,,,,,,,,,,2.1663,1,,,,,,,,,,,,,,m,,,,,,,,,,,,,,,,72,0,388.4185,390.5861,m,1,2.1663,,[],[],[],[],[],[],[],390.5861,392.5859,392.5859,392.586,[],[],[],[],[],[],[],,392.5861,392.5862,0.03203125,-0.360555367,0,0,0,,0,71,71,97,1,4,word,COVERAGE,cursive,coverage_c.png,,,,,,
,,,,32200,001,2025-10-18_16h24.27.861,HW_LDT_1,2024.2.4,MacIntel,59.88023952,,,,,,,,,,,,,,,,,,,,,,392.5874,392.7859,392.7861,393.2859,,,,,,,,,,,,,,1.0198,1,,,,,,,,,,,,,,z,,,,,,,,,,,,,,,,73,0,393.2865,394.3194,z,1,1.0198,,[],[],[],[],[],[],[],394.3194,396.3191,396.3192,396.3194,[],[],[],[],[],[],[],,396.3194,396.3195,0.03203125,-0.360555367,0,0,0,,0,72,72,42,1,4,RL,revune,print,revune_p.png,,,,,,
,,,,32200,001,2025-10-18_16h24.27.861,HW_LDT_1,2024.2.4,MacIntel,59.88023952,,,,,,,,,,,,,,,,,,,,,,396.3208,396.5182,396.5182,397.0192,,,,,,,,,,,,,,0.8058,1,,,,,,,,,,,,,,z,,,,,,,,,,,,,,,,74,0,397.0198,397.8359,z,1,0.8058,,[],[],[],[],[],[],[],397.8359,399.8358,399.8358,399.8359,[],[],[],[],[],[],[],,399.836,399.836,0.03203125,-0.360555367,0,0,0,,0,73,73,31,1,4,RL,orimipal,print,orimipal_p.png,,,,,,
,,,,32200,001,2025-10-18_16h24.27.861,HW_LDT_1,2024.2.4,MacIntel,59.88023952,,,,,,,,,,,,,,,,,,,,,,399.8371,400.0358,400.0359,400.5358,,,,,,,,,,,,,,0.8871,1,,,,,,,,,,,,,,z,,,,,,,,,,,,,,,,75,0,400.5364,401.4359,z,1,0.8871,,[],[],[],[],[],[],[],401.436,403.4358,403.4359,403.4362,[],[],[],[],[],[],[],,403.4362,403.4364,0.03203125,-0.360555367,0,0,0,,0,74,74,63,1,4,TL,miskate,print,miskate_p.png,,,,,,
,,,,32200,001,2025-10-18_16h24.27.861,HW_LDT_1,2024.2.4,MacIntel,59.88023952,,,,,,,,,,,,,,,,,,,,,,403.4383,403.635,403.6351,404.1359,,,,,,,,,,,,,,1.7971,1,,,,,,,,,,,,,,z,,,,,,,,,,,,,,,,76,0,404.1366,405.9348,z,1,1.7971,,[],[],[],[],[],[],[],405.9348,407.9358,407.9358,407.936,[],[],[],[],[],[],[],,407.936,407.9361,0.03203125,-0.360555367,0,0,0,,0,75,75,37,1,4,RL,renutal,cursive,renutal_c.png,,,,,,
,,,,32200,001,2025-10-18_16h24.27.861,HW_LDT_1,2024.2.4,MacIntel,59.88023952,,,,,,,,,,,,,,,,,,,,,,407.9373,408.1358,408.1358,408.6357,,,,,,,,,,,,,,0.8674,1,,,,,,,,,,,,,,m,,,,,,,,,,,,,,,,77,0,408.6363,409.5187,m,1,0.8674,,[],[],[],[],[],[],[],409.5188,411.5191,411.5191,411.5193,[],[],[],[],[],[],[],,411.5194,411.5196,0.03203125,-0.360555367,0,0,0,,0,76,76,123,1,4,word,MODERATE,print,moderate_p.png,,,,,,
,,,,32200,001,2025-10-18_16h24.27.861,HW_LDT_1,2024.2.4,MacIntel,59.88023952,,,,,,,,,,,,,,,,,,,,,,411.521,411.719,411.7191,412.2182,,,,,,,,,,,,,,0.8881,1,,,,,,,,,,,,,,z,,,,,,,,,,,,,,,,78,0,412.2187,413.1191,z,1,0.8881,,[],[],[],[],[],[],[],413.1192,415.1192,415.1193,415.1195,[],[],[],[],[],[],[],,415.1195,415.1196,0.03203125,-0.360555367,0,0,0,,0,77,77,40,1,4,RL,reconal,print,reconal_p.png,,,,,,
,,,,32200,001,2025-10-18_16h24.27.861,HW_LDT_1,2024.2.4,MacIntel,59.88023952,,,,,,,,,,,,,,,,,,,,,,415.1211,415.3192,415.3193,415.819,,,,,,,,,,,,,,1.1215,1,,,,,,,,,,,,,,m,,,,,,,,,,,,,,,,79,0,415.8196,416.9524,m,1,1.1215,,[],[],[],[],[],[],[],416.9525,418.9514,418.9514,418.9516,[],[],[],[],[],[],[],,418.9516,418.9517,0.03203125,-0.360555367,0,0,0,,0,78,78,120,1,4,word,MILITARY,print,military_p.png,,,,,,
,,,,32200,001,2025-10-18_16h24.27.861,HW_LDT_1,2024.2.4,MacIntel,59.88023952,,,,,,,,,,,,,,,,,,,,,,418.9529,419.1523,419.1524,419.6523,,,,,,,,,,,,,,3.1139,1,,,,,,,,,,,,,,m,,,,,,,,,,,,,,,,80,1,419.6531,422.7689,m,1,3.1139,,[],[],[],[],[],[],[],422.769,424.769,424.769,426.2847,[],[],[],[],[],[],[],m,426.2848,452.2513,0.03203125,-0.360555367,0,0,0,space,0,79,79,89,1,4,word,CAPACITY,cursive,capacity_c.png,1.5081,,25.9442,,,
,,,,32200,001,2025-10-18_16h24.27.861,HW_LDT_1,2024.2.4,MacIntel,59.88023952,,,,,,,,,,,,,,,,,,,,,,452.2526,452.4514,452.4514,452.9522,,,,,,,,,,,,,,2.1907,1,,,,,,,,,,,,,,m,,,,,,,,,,,,,,,,81,0,452.9527,455.1521,m,1,2.1907,,[],[],[],[],[],[],[],455.1522,457.152,457.152,457.1522,[],[],[],[],[],[],[],,457.1523,457.1524,0.03203125,-0.360555367,0,0,0,,0,80,80,149,1,4,word,SENATOR,print,senator_p.png,,,,,,
,,,,32200,001,2025-10-18_16h24.27.861,HW_LDT_1,2024.2.4,MacIntel,59.88023952,,,,,,,,,,,,,,,,,,,,,,457.1537,457.352,457.352,457.852,,,,,,,,,,,,,,1.9857,1,,,,,,,,,,,,,,z,,,,,,,,,,,,,,,,82,0,457.8526,459.8521,z,1,1.9857,,[],[],[],[],[],[],[],459.8522,461.852,461.852,461.8522,[],[],[],[],[],[],[],,461.8522,461.8523,0.03203125,-0.360555367,0,0,0,,0,81,81,51,1,4,TL,adsivory,cursive,adsivory_c.png,,,,,,
,,,,32200,001,2025-10-18_16h24.27.861,HW_LDT_1,2024.2.4,MacIntel,59.88023952,,,,,,,,,,,,,,,,,,,,,,461.8537,462.0521,462.0521,462.5525,,,,,,,,,,,,,,1.4008,1,,,,,,,,,,,,,,m,,,,,,,,,,,,,,,,83,0,462.5542,463.9685,m,1,1.4008,,[],[],[],[],[],[],[],463.9686,465.9687,465.9688,465.969,[],[],[],[],[],[],[],,465.9691,465.9692,0.031525985,-0.362627378,0,0,0,,0,82,82,84,1,4,word,BELOVED,print,beloved_p.png,,,,,,
,,,,32200,001,2025-10-18_16h24.27.861,HW_LDT_1,2024.2.4,MacIntel,59.88023952,,,,,,,,,,,,,,,,,,,,,,465.9708,466.1686,466.1686,466.6687,,,,,,,,,,,,,,0.8144,1,,,,,,,,,,,,,,m,,,,,,,,,,,,,,,,84,0,466.6692,467.485,m,1,0.8144,,[],[],[],[],[],[],[],467.485,469.4854,469.4855,469.4857,[],[],[],[],[],[],[],,469.4857,469.4858,0.031525985,-0.362627378,0,0,0,,0,83,83,122,1,4,word,MOBILE,print,mobile_p.png,,,,,,
,,,,32200,001,2025-10-18_16h24.27.861,HW_LDT_1,2024.2.4,MacIntel,59.88023952,,,,,,,,,,,,,,,,,,,,,,469.4875,469.685,469.685,470.1852,,,,,,,,,,,,,,1.4194,1,,,,,,,,,,,,,,z,,,,,,,,,,,,,,,,85,0,470.1858,471.6186,z,1,1.4194,,[],[],[],[],[],[],[],471.6188,473.6187,473.6187,473.6189,[],[],[],[],[],[],[],,473.6189,473.6191,0.031525985,-0.362627378,0,0,0,,0,84,84,6,1,4,RL,caleberia,cursive,caleberia_c.png,,,,,,
,,,,32200,001,2025-10-18_16h24.27.861,HW_LDT_1,2024.2.4,MacIntel,59.88023952,,,,,,,,,,,,,,,,,,,,,,473.6207,473.8186,473.8186,474.3185,,,,,,,,,,,,,,1.2219,1,,,,,,,,,,,,,,z,,,,,,,,,,,,,,,,86,0,474.3191,475.552,z,1,1.2219,,[],[],[],[],[],[],[],475.5521,477.5512,477.5512,477.5513,[],[],[],[],[],[],[],,477.5514,477.5515,0.031525985,-0.362627378,0,0,0,,0,85,85,22,1,4,RL,linedal,cursive,linedal_c.png,,,,,,
,,,,32200,001,2025-10-18_16h24.27.861,HW_LDT_1,2024.2.4,MacIntel,59.88023952,,,,,,,,,,,,,,,,,,,,,,477.5529,477.7519,477.752,478.2509,,,,,,,,,,,,,,0.8537,1,,,,,,,,,,,,,,m,,,,,,,,,,,,,,,,87,0,478.2514,479.1185,m,1,0.8537,,[],[],[],[],[],[],[],479.1186,481.1182,481.1182,481.1183,[],[],[],[],[],[],[],,481.1183,481.1183,0.031525985,-0.362627378,0,0,0,,0,86,86,143,1,4,word,REMOVAL,print,removal_p.png,,,,,,
,,,,32200,001,2025-10-18_16h24.27.861,HW_LDT_1,2024.2.4,MacIntel,59.88023952,,,,,,,,,,,,,,,,,,,,,,481.1189,481.3186,481.3186,481.8187,,,,,,,,,,,,,,0.7477,0,,,,,,,,,,,,,,z,,,,,,,,,,,,,,,,88,0,481.8192,482.5685,m,0,0.7477,,[],[],[],[],[],[],[],482.5686,484.5686,484.5687,484.569,[],[],[],[],[],[],[],,484.569,484.5691,0.031525985,-0.362627378,0,0,0,,0,87,87,60,1,4,TL,hetirage,print,hetirage_p.png,,,,,,
,,,,32200,001,2025-10-18_16h24.27.861,HW_LDT_1,2024.2.4,MacIntel,59.88023952,,,,,,,,,,,,,,,,,,,,,,484.5708,484.7679,484.7679,485.2686,,,,,,,,,,,,,,0.8541,1,,,,,,,,,,,,,,m,,,,,,,,,,,,,,,,89,1,485.2691,486.1342,m,1,0.8541,,[],[],[],[],[],[],[],486.1343,488.1351,488.1351,492.0686,[],[],[],[],[],[],[],m,492.0687,492.069,0.031525985,-0.362627378,0,0,0,,0,88,88,132,1,4,word,PROPOSAL,print,proposal_p.png,3.9205,,,,,
,,,,32200,001,2025-10-18_16h24.27.861,HW_LDT_1,2024.2.4,MacIntel,59.88023952,,,,,,,,,,,,,,,,,,,,,,492.0705,492.2674,492.2674,492.7685,,,,,,,,,,,,,,1.8314,1,,,,,,,,,,,,,,z,,,,,,,,,,,,,,,,90,0,492.7692,494.6017,z,1,1.8314,,[],[],[],[],[],[],[],494.6017,496.6013,496.6013,496.6015,[],[],[],[],[],[],[],,496.6015,496.6017,0.031525985,-0.362627378,0,0,0,,0,89,89,32,1,4,RL,patisic,cursive,patisic_c.png,,,,,,
,,,,32200,001,2025-10-18_16h24.27.861,HW_LDT_1,2024.2.4,MacIntel,59.88023952,,,,,,,,,,,,,,,,,,,,,,496.6029,496.8018,496.8018,497.3018,,,,,,,,,,,,,,1.2214,1,,,,,,,,,,,,,,m,,,,,,,,,,,,,,,,91,0,497.3023,498.5351,m,1,1.2214,,[],[],[],[],[],[],[],498.5351,500.5351,500.5352,500.5354,[],[],[],[],[],[],[],,500.5355,500.5356,0.031525985,-0.362627378,0,0,0,,0,90,90,146,1,4,word,RETIRE,print,retire_p.png,,,,,,
,,,,32200,001,2025-10-18_16h24.27.861,HW_LDT_1,2024.2.4,MacIntel,59.88023952,,,,,,,,,,,,,,,,,,,,,,500.5371,500.7351,500.7352,501.2342,,,,,,,,,,,,,,1.8982,1,,,,,,,,,,,,,,m,,,,,,,,,,,,,,,,92,0,501.2348,503.1349,m,1,1.8982,,[],[],[],[],[],[],[],503.135,505.134,505.134,505.1342,[],[],[],[],[],[],[],,505.1342,505.1343,0.031525985,-0.362627378,0,0,0,,0,91,91,155,1,4,word,STRATEGY,print,strategy_p.png,,,,,,
,,,,32200,001,2025-10-18_16h24.27.861,HW_LDT_1,2024.2.4,MacIntel,59.88023952,,,,,,,,,,,,,,,,,,,,,,505.1355,505.3351,505.3351,505.835,,,,,,,,,,,,,,1.0628,1,,,,,,,,,,,,,,z,,,,,,,,,,,,,,,,93,0,505.8356,506.9017,z,1,1.0628,,[],[],[],[],[],[],[],506.9018,508.9017,508.9018,508.9019,[],[],[],[],[],[],[],,508.9019,508.9021,0.031525985,-0.362627378,0,0,0,,0,92,92,64,1,4,TL,moredate,print,moredate_p.png,,,,,,
,,,,32200,001,2025-10-18_16h24.27.861,HW_LDT_1,2024.2.4,MacIntel,59.88023952,,,,,,,,,,,,,,,,,,,,,,508.9035,509.1016,509.1016,509.6017,,,,,,,,,,,,,,7.4035,0,,,,,,,,,,,,,,m,,,,,,,,,,,,,,,,94,0,509.6024,517.0178,z,0,7.4035,,[],[],[],[],[],[],[],517.0178,519.0182,519.0183,519.0185,[],[],[],[],[],[],[],,519.0185,519.0186,0.031525985,-0.362627378,0,0,0,,0,93,93,142,1,4,word,REMOTE,cursive,remote_c.png,,,,,,
,,,,32200,001,2025-10-18_16h24.27.861,HW_LDT_1,2024.2.4,MacIntel,59.88023952,,,,,,,,,,,,,,,,,,,,,,519.0203,519.2172,519.2172,519.7176,,,,,,,,,,,,,,2.037,1,,,,,,,,,,,,,,m,,,,,,,,,,,,,,,,95,0,519.7182,521.7684,m,1,2.037,,[],[],[],[],[],[],[],521.7686,523.7673,523.7674,523.7676,[],[],[],[],[],[],[],,523.7677,523.7679,0.031525985,-0.362627378,0,0,0,,0,94,94,112,1,4,word,LIBERAL,cursive,liberal_c.png,,,,,,
,,,,32200,001,2025-10-18_16h24.27.861,HW_LDT_1,2024.2.4,MacIntel,59.88023952,,,,,,,,,,,,,,,,,,,,,,523.7697,523.9683,523.9684,524.4683,,,,,,,,,,,,,,1.0977,1,,,,,,,,,,,,,,m,,,,,,,,,,,,,,,,96,1,524.4688,525.5682,m,1,1.0977,,[],[],[],[],[],[],[],525.5683,527.5682,527.5683,531.6681,[],[],[],[],[],[],[],m,531.6681,531.6682,0.031525985,-0.362627378,0,0,0,,0,95,95,90,1,4,word,CAPITAL,print,capital_p.png,4.0875,,,,,
,,,,32200,001,2025-10-18_16h24.27.861,HW_LDT_1,2024.2.4,MacIntel,59.88023952,,,,,,,,,,,,,,,,,,,,,,531.6695,531.8681,531.8681,532.3681,,,,,,,,,,,,,,1.9214,1,,,,,,,,,,,,,,z,,,,,,,,,,,,,,,,97,0,532.3687,534.3016,z,1,1.9214,,[],[],[],[],[],[],[],534.3017,536.3009,536.301,536.3012,[],[],[],[],[],[],[],,536.3013,536.3013,0.031525985,-0.362627378,0,0,0,,0,96,96,16,1,4,RL,desifate,cursive,desifate_c.png,,,,,,
,,,,32200,001,2025-10-18_16h24.27.861,HW_LDT_1,2024.2.4,MacIntel,59.88023952,,,,,,,,,,,,,,,,,,,,,,536.3027,536.5015,536.5015,537.0015,,,,,,,,,,,,,,4.3307,0,,,,,,,,,,,,,,m,,,,,,,,,,,,,,,,98,1,537.0023,541.334,z,0,4.3307,,[],[],[],[],[],[],[],541.334,543.3347,543.3348,544.5843,[],[],[],[],[],[],[],z,544.5843,544.5844,0.031525985,-0.362627378,0,0,0,,0,97,97,108,1,4,word,FORTUNE,cursive,fortune_c.png,1.2488,,,,,
,,,,32200,001,2025-10-18_16h24.27.861,HW_LDT_1,2024.2.4,MacIntel,59.88023952,,,,,,,,,,,,,,,,,,,,,,544.5854,544.7843,544.7844,545.2849,,,,,,,,,,,,,,1.2463,1,,,,,,,,,,,,,,z,,,,,,,,,,,,,,,,99,0,545.2856,546.5347,z,1,1.2463,,[],[],[],[],[],[],[],546.5348,548.5348,548.5348,548.535,[],[],[],[],[],[],[],,548.5351,548.5352,0.031525985,-0.362627378,0,0,0,,0,98,98,3,1,4,RL,bewoted,print,bewoted_p.png,,,,,,
,,,,32200,001,2025-10-18_16h24.27.861,HW_LDT_1,2024.2.4,MacIntel,59.88023952,,,,,,,,,,,,,,,,,,,,,,548.5367,548.7336,548.7337,549.2346,,,,,,,,,,,,,,4.4868,0,,,,,,,,,,,,,,m,,,,,,,,,,,,,,,,100,0,549.2353,553.7343,z,0,4.4868,,[],[],[],[],[],[],[],553.7345,555.7347,555.7348,555.7349,[],[],[],[],[],[],[],,555.7349,555.7352,0.031525985,-0.362627378,0,0,0,,0,99,99,106,1,4,word,ELABORATE,cursive,elaborate_c.png,,,,,,
,,,,32200,001,2025-10-18_16h24.27.861,HW_LDT_1,2024.2.4,MacIntel,59.88023952,,,,,,,,,,,,,,,,,,,,,,555.7365,555.9336,555.9337,556.4346,,,,,,,,,,,,,,1.4308,1,,,,,,,,,,,,,,m,,,,,,,,,,,,,,,,101,0,556.4354,557.8679,m,1,1.4308,,[],[],[],[],[],[],[],557.8681,559.868,559.868,559.8682,[],[],[],[],[],[],[],,559.8682,559.8683,0.031525985,-0.362627378,0,0,0,,0,100,100,136,1,4,word,RADICAL,print,radical_p.png,,,,,,
,,,,32200,001,2025-10-18_16h24.27.861,HW_LDT_1,2024.2.4,MacIntel,59.88023952,,,,,,,,,,,,,,,,,,,,,,559.8696,560.0679,560.068,560.5681,,,,,,,,,,,,,,0.9323,1,,,,,,,,,,,,,,m,,,,,,,,,,,,,,,,102,1,560.5686,561.5021,m,1,0.9323,,[],[],[],[],[],[],[],561.5022,563.5013,563.5013,564.8845,[],[],[],[],[],[],[],m,564.8846,564.8846,0.031525985,-0.362627378,0,0,0,,0,101,101,147,1,4,word,ROMANTIC,print,romantic_p.png,1.3821,,,,,
,,,,32200,001,2025-10-18_16h24.27.861,HW_LDT_1,2024.2.4,MacIntel,59.88023952,,,,,,,,,,,,,,,,,,,,,,564.8858,565.0837,565.0837,565.5845,,,,,,,,,,,,,,1.7491,1,,,,,,,,,,,,,,m,,,,,,,,,,,,,,,,103,0,565.585,567.3351,m,1,1.7491,,[],[],[],[],[],[],[],567.3352,569.3336,569.3337,569.3338,[],[],[],[],[],[],[],,569.3339,569.3339,0.031525985,-0.362627378,0,0,0,,0,102,102,96,1,4,word,CONSIDER,cursive,consider_c.png,,,,,,
,,,,32200,001,2025-10-18_16h24.27.861,HW_LDT_1,2024.2.4,MacIntel,59.88023952,,,,,,,,,,,,,,,,,,,,,,569.3351,569.5346,569.5346,570.0345,,,,,,,,,,,,,,2.1976,1,,,,,,,,,,,,,,m,,,,,,,,,,,,,,,,104,0,570.0352,572.2346,m,1,2.1976,,[],[],[],[],[],[],[],572.2347,574.2345,574.2346,574.2348,[],[],[],[],[],[],[],,574.2348,574.2348,0.031525985,-0.362627378,0,0,0,,0,103,103,126,1,4,word,OPTIMAL,print,optimal_p.png,,,,,,
,,,,32200,001,2025-10-18_16h24.27.861,HW_LDT_1,2024.2.4,MacIntel,59.88023952,,,,,,,,,,,,,,,,,,,,,,574.2361,574.4336,574.4336,574.9344,,,,,,,,,,,,,,1.0719,1,,,,,,,,,,,,,,z,,,,,,,,,,,,,,,,105,0,574.9351,576.0178,z,1,1.0719,,[],[],[],[],[],[],[],576.018,578.0178,578.0179,578.018,[],[],[],[],[],[],[],,578.0181,578.0183,0.031525985,-0.362627378,0,0,0,,0,104,104,76,1,4,TL,setanor,print,setanor_p.png,,,,,,
,,,,32200,001,2025-10-18_16h24.27.861,HW_LDT_1,2024.2.4,MacIntel,59.88023952,,,,,,,,,,,,,,,,,,,,,,578.0197,578.218,578.218,578.7178,,,,,,,,,,,,,,1.187,0,,,,,,,,,,,,,,m,,,,,,,,,,,,,,,,106,1,578.7184,579.9179,z,0,1.187,,[],[],[],[],[],[],[],579.918,581.9177,581.9178,582.6679,[],[],[],[],[],[],[],z,582.6679,582.6681,0.031525985,-0.362627378,0,0,0,,0,105,105,87,1,4,word,CAFETERIA,cursive,cafeteria_c.png,0.7374,,,,,
,,,,32200,001,2025-10-18_16h24.27.861,HW_LDT_1,2024.2.4,MacIntel,59.88023952,,,,,,,,,,,,,,,,,,,,,,582.6694,582.8678,582.8678,583.3679,,,,,,,,,,,,,,2.1481,1,,,,,,,,,,,,,,z,,,,,,,,,,,,,,,,107,0,583.3686,585.5177,z,1,2.1481,,[],[],[],[],[],[],[],585.5179,587.5178,587.5179,587.518,[],[],[],[],[],[],[],,587.518,587.5181,0.031525985,-0.362627378,0,0,0,,0,106,106,30,1,4,RL,nunewical,cursive,nunewical_c.png,,,,,,
,,,,32200,001,2025-10-18_16h24.27.861,HW_LDT_1,2024.2.4,MacIntel,59.88023952,,,,,,,,,,,,,,,,,,,,,,587.5195,587.7177,587.7177,588.2177,,,,,,,,,,,,,,1.3975,0,,,,,,,,,,,,,,m,,,,,,,,,,,,,,,,108,1,588.2184,589.6177,z,0,1.3975,,[],[],[],[],[],[],[],589.6178,591.6176,591.6177,592.6179,[],[],[],[],[],[],[],z,592.6181,592.6182,0.031525985,-0.362627378,0,0,0,,0,107,107,85,1,4,word,BENEFIT,cursive,benefit_c.png,0.9872,,,,,
,,,,32200,001,2025-10-18_16h24.27.861,HW_LDT_1,2024.2.4,MacIntel,59.88023952,,,,,,,,,,,,,,,,,,,,,,592.6198,592.8178,592.8178,593.3178,,,,,,,,,,,,,,1.932,1,,,,,,,,,,,,,,z,,,,,,,,,,,,,,,,109,0,593.3184,595.2515,z,1,1.932,,[],[],[],[],[],[],[],595.2515,597.2503,597.2503,597.2505,[],[],[],[],[],[],[],,597.2506,597.2507,0.031525985,-0.362627378,0,0,0,,0,108,108,5,1,4,RL,bebine,print,bebine_p.png,,,,,,
,,,,32200,001,2025-10-18_16h24.27.861,HW_LDT_1,2024.2.4,MacIntel,59.88023952,,,,,,,,,,,,,,,,,,,,,,597.2519,597.451,597.4511,597.9509,,,,,,,,,,,,,,0.9478,1,,,,,,,,,,,,,,z,,,,,,,,,,,,,,,,110,0,597.9514,598.901,z,1,0.9478,,[],[],[],[],[],[],[],598.901,600.9001,600.9001,600.9003,[],[],[],[],[],[],[],,600.9004,600.9005,0.031525985,-0.362627378,0,0,0,,0,109,109,49,1,4,RL,vesofity,cursive,vesofity_c.png,,,,,,
,,,,32200,001,2025-10-18_16h24.27.861,HW_LDT_1,2024.2.4,MacIntel,59.88023952,,,,,,,,,,,,,,,,,,,,,,600.9016,601.101,601.1011,601.601,,,,,,,,,,,,,,1.2699,1,,,,,,,,,,,,,,m,,,,,,,,,,,,,,,,111,0,601.6015,602.8844,m,1,1.2699,,[],[],[],[],[],[],[],602.8844,604.8843,604.8843,604.8844,[],[],[],[],[],[],[],,604.8845,604.8847,0.031525985,-0.362627378,0,0,0,,0,110,110,81,1,4,word,ADVISORY,cursive,advisory_c.png,,,,,,
,,,,32200,001,2025-10-18_16h24.27.861,HW_LDT_1,2024.2.4,MacIntel,59.88023952,,,,,,,,,,,,,,,,,,,,,,604.8861,605.0844,605.0845,605.5844,,,,,,,,,,,,,,1.3752,1,,,,,,,,,,,,,,m,,,,,,,,,,,,,,,,112,0,605.585,606.9676,m,1,1.3752,,[],[],[],[],[],[],[],606.9677,608.9677,608.9678,608.9679,[],[],[],[],[],[],[],,608.968,608.9681,0.031525985,-0.362627378,0,0,0,,0,111,111,135,1,4,word,QUALITY,print,quality_p.png,,,,,,
,,,,32200,001,2025-10-18_16h24.27.861,HW_LDT_1,2024.2.4,MacIntel,59.88023952,,,,,,,,,,,,,,,,,,,,,,608.9696,609.1677,609.1678,609.6676,,,,,,,,,,,,,,0.6974,1,,,,,,,,,,,,,,z,,,,,,,,,,,,,,,,113,0,609.6681,610.3675,z,1,0.6974,,[],[],[],[],[],[],[],610.3676,612.3676,612.3676,612.3678,[],[],[],[],[],[],[],,612.3679,612.3681,0.031525985,-0.362627378,0,0,0,,0,112,112,21,1,4,RL,insibate,print,insibate_p.png,,,,,,
,,,,32200,001,2025-10-18_16h24.27.861,HW_LDT_1,2024.2.4,MacIntel,59.88023952,,,,,,,,,,,,,,,,,,,,,,612.3694,612.5675,612.5676,613.0676,,,,,,,,,,,,,,1.3361,1,,,,,,,,,,,,,,z,,,,,,,,,,,,,,,,114,0,613.0683,614.4176,z,1,1.3361,,[],[],[],[],[],[],[],614.4176,616.4165,616.4165,616.4166,[],[],[],[],[],[],[],,616.4167,616.4168,0.031525985,-0.362627378,0,0,0,,0,113,113,28,1,4,RL,mifikary,print,mifikary_p.png,,,,,,
,,,,32200,001,2025-10-18_16h24.27.861,HW_LDT_1,2024.2.4,MacIntel,59.88023952,,,,,,,,,,,,,,,,,,,,,,616.418,616.6177,616.6177,617.1175,,,,,,,,,,,,,,2.4649,1,,,,,,,,,,,,,,m,,,,,,,,,,,,,,,,115,0,617.1181,619.5843,m,1,2.4649,,[],[],[],[],[],[],[],619.5844,621.5843,621.5843,621.5846,[],[],[],[],[],[],[],,621.5846,621.5847,0.031525985,-0.362627378,0,0,0,,0,114,114,133,1,4,word,PROVIDE,cursive,provide_c.png,,,,,,
,,,,32200,001,2025-10-18_16h24.27.861,HW_LDT_1,2024.2.4,MacIntel,59.88023952,,,,,,,,,,,,,,,,,,,,,,621.5864,621.7831,621.7831,622.2841,,,,,,,,,,,,,,1.0197,1,,,,,,,,,,,,,,z,,,,,,,,,,,,,,,,116,0,622.2847,623.3173,z,1,1.0197,,[],[],[],[],[],[],[],623.3173,625.3174,625.3175,625.3176,[],[],[],[],[],[],[],,625.3176,625.3178,0.031525985,-0.362627378,0,0,0,,0,115,115,65,1,4,TL,orepator,print,orepator_p.png,,,,,,
,,,,32200,001,2025-10-18_16h24.27.861,HW_LDT_1,2024.2.4,MacIntel,59.88023952,,,,,,,,,,,,,,,,,,,,,,625.3195,625.5169,625.5169,626.0175,,,,,,,,,,,,,,0.8282,1,,,,,,,,,,,,,,z,,,,,,,,,,,,,,,,117,1,626.018,626.8508,z,1,0.8282,,[],[],[],[],[],[],[],626.8508,628.8503,628.8503,629.4012,[],[],[],[],[],[],[],m,629.4013,629.4015,0.04986413,-0.346106488,0,0,0,,0,116,116,0,1,4,RL,abanemy,print,abanemy_p.png,0.5371,,,,,
,,,,32200,001,2025-10-18_16h24.27.861,HW_LDT_1,2024.2.4,MacIntel,59.88023952,,,,,,,,,,,,,,,,,,,,,,629.4027,629.6005,629.6007,630.1007,,,,,,,,,,,,,,2.7033,1,,,,,,,,,,,,,,m,,,,,,,,,,,,,,,,118,0,630.1012,632.8175,m,1,2.7033,,[],[],[],[],[],[],[],632.8177,634.8168,634.8169,634.8171,[],[],[],[],[],[],[],,634.8171,634.8173,0.049528702,-0.349138077,0,0,0,,0,117,117,104,1,4,word,DOMINANT,cursive,dominant_c.png,,,,,,
,,,,32200,001,2025-10-18_16h24.27.861,HW_LDT_1,2024.2.4,MacIntel,59.88023952,,,,,,,,,,,,,,,,,,,,,,634.8183,635.0174,635.0174,635.5173,,,,,,,,,,,,,,0.7302,1,,,,,,,,,,,,,,z,,,,,,,,,,,,,,,,119,0,635.518,636.2507,z,1,0.7302,,[],[],[],[],[],[],[],636.2507,638.2511,638.2514,638.2517,[],[],[],[],[],[],[],,638.2518,638.252,0.049528702,-0.349138077,0,0,0,,0,118,118,44,1,4,RL,senvilent,print,senvilent_p.png,,,,,,
,,,,32200,001,2025-10-18_16h24.27.861,HW_LDT_1,2024.2.4,MacIntel,59.88023952,,,,,,,,,,,,,,,,,,,,,,638.2544,638.4497,638.4497,638.9506,,,,,,,,,,,,,,1.4141,0,,,,,,,,,,,,,,m,,,,,,,,,,,,,,,,120,0,638.9514,640.3673,z,0,1.4141,,[],[],[],[],[],[],[],640.3674,642.3674,642.3677,642.3679,[],[],[],[],[],[],[],,642.368,642.3682,0.049528702,-0.349138077,0,0,0,,0,119,119,144,1,4,word,RESIDENT,cursive,resident_c.png,,,,,,
,,,,32200,001,2025-10-18_16h24.27.861,HW_LDT_1,2024.2.4,MacIntel,59.88023952,,,,,,,,,,,,,,,,,,,,,,642.3697,642.5665,642.5665,643.0673,,,,,,,,,,,,,,1.2652,1,,,,,,,,,,,,,,m,,,,,,,,,,,,,,,,121,0,643.068,644.3341,m,1,1.2652,,[],[],[],[],[],[],[],644.3341,646.334,646.3341,646.3342,[],[],[],[],[],[],[],,646.3343,646.3344,0.050280231,-0.349138077,0,0,0,,0,120,120,86,1,4,word,BESIDE,print,beside_p.png,,,,,,
,,,,32200,001,2025-10-18_16h24.27.861,HW_LDT_1,2024.2.4,MacIntel,59.88023952,,,,,,,,,,,,,,,,,,,,,,646.3357,646.5339,646.5341,647.0341,,,,,,,,,,,,,,1.4861,1,,,,,,,,,,,,,,m,,,,,,,,,,,,,,,,122,0,647.0349,648.534,m,1,1.4861,,[],[],[],[],[],[],[],648.5342,650.5339,650.534,650.5341,[],[],[],[],[],[],[],,650.5341,650.5342,0.050280231,-0.349138077,0,0,0,,0,121,121,145,1,4,word,RESUME,print,resume_p.png,,,,,,
,,,,32200,001,2025-10-18_16h24.27.861,HW_LDT_1,2024.2.4,MacIntel,59.88023952,,,,,,,,,,,,,,,,,,,,,,650.5356,650.734,650.734,651.234,,,,,,,,,,,,,,1.6476,1,,,,,,,,,,,,,,m,,,,,,,,,,,,,,,,123,0,651.2347,652.8839,m,1,1.6476,,[],[],[],[],[],[],[],652.8841,654.8839,654.884,654.8841,[],[],[],[],[],[],[],,654.8842,654.8843,0.050280231,-0.349138077,0,0,0,,0,122,122,82,1,4,word,AMATEUR,cursive,amateur_c.png,,,,,,
,,,,32200,001,2025-10-18_16h24.27.861,HW_LDT_1,2024.2.4,MacIntel,59.88023952,,,,,,,,,,,,,,,,,,,,,,654.8855,655.0829,655.0829,655.5832,,,,,,,,,,,,,,1.2579,1,,,,,,,,,,,,,,m,,,,,,,,,,,,,,,,124,0,655.5838,656.8505,m,1,1.2579,,[],[],[],[],[],[],[],656.8507,658.8506,658.8506,658.8508,[],[],[],[],[],[],[],,658.8509,658.8509,0.050280231,-0.349138077,0,0,0,,0,123,123,124,1,4,word,NUMERICAL,cursive,numerical_c.png,,,,,,
,,,,32200,001,2025-10-18_16h24.27.861,HW_LDT_1,2024.2.4,MacIntel,59.88023952,,,,,,,,,,,,,,,,,,,,,,658.8524,659.0505,659.0506,659.5506,,,,,,,,,,,,,,0.9729,1,,,,,,,,,,,,,,z,,,,,,,,,,,,,,,,125,0,659.5513,660.533,z,1,0.9729,,[],[],[],[],[],[],[],660.533,662.533,662.533,662.5332,[],[],[],[],[],[],[],,662.5333,662.5335,0.050280231,-0.349138077,0,0,0,,0,124,124,79,1,4,TL,tritube,print,tritube_p.png,,,,,,
,,,,32200,001,2025-10-18_16h24.27.861,HW_LDT_1,2024.2.4,MacIntel,59.88023952,,,,,,,,,,,,,,,,,,,,,,662.5348,662.734,662.7341,663.2338,,,,,,,,,,,,,,0.9468,1,,,,,,,,,,,,,,z,,,,,,,,,,,,,,,,126,1,663.2344,664.1834,z,1,0.9468,,[],[],[],[],[],[],[],664.1834,666.1837,666.1839,667.6172,[],[],[],[],[],[],[],z,667.6173,667.6174,0.050280231,-0.349138077,0,0,0,,0,125,125,50,1,4,RL,vecelan,cursive,vecelan_c.png,1.4245,,,,,
,,,,32200,001,2025-10-18_16h24.27.861,HW_LDT_1,2024.2.4,MacIntel,59.88023952,,,,,,,,,,,,,,,,,,,,,,667.6189,667.8171,667.8171,668.317,,,,,,,,,,,,,,2.5691,1,,,,,,,,,,,,,,m,,,,,,,,,,,,,,,,127,0,668.3175,670.9005,m,1,2.5691,,[],[],[],[],[],[],[],670.9006,672.9003,672.9004,672.9006,[],[],[],[],[],[],[],,672.9006,672.9008,0.050280231,-0.349138077,0,0,0,,0,126,126,116,1,4,word,MARGINAL,cursive,marginal_c.png,,,,,,
,,,,32200,001,2025-10-18_16h24.27.861,HW_LDT_1,2024.2.4,MacIntel,59.88023952,,,,,,,,,,,,,,,,,,,,,,672.9021,673.0999,673.0999,673.6005,,,,,,,,,,,,,,2.9865,0,,,,,,,,,,,,,,m,,,,,,,,,,,,,,,,128,0,673.6012,676.6004,z,0,2.9865,,[],[],[],[],[],[],[],676.6004,678.6003,678.6003,678.6005,[],[],[],[],[],[],[],,678.6006,678.6006,0.050280231,-0.349138077,0,0,0,,0,127,127,101,1,4,word,DELICATE,cursive,delicate_c.png,,,,,,
,,,,32200,001,2025-10-18_16h24.27.861,HW_LDT_1,2024.2.4,MacIntel,59.88023952,,,,,,,,,,,,,,,,,,,,,,678.6021,678.8003,678.8004,679.3004,,,,,,,,,,,,,,2.8979,0,,,,,,,,,,,,,,z,,,,,,,,,,,,,,,,129,0,679.3009,682.2003,m,0,2.8979,,[],[],[],[],[],[],[],682.2003,684.2003,684.2004,684.2004,[],[],[],[],[],[],[],,684.2005,684.2006,0.050029721,-0.349138077,0,0,0,,0,128,128,78,1,4,TL,stragety,print,stragety_p.png,,,,,,
,,,,32200,001,2025-10-18_16h24.27.861,HW_LDT_1,2024.2.4,MacIntel,59.88023952,,,,,,,,,,,,,,,,,,,,,,684.2018,684.4003,684.4003,684.9003,,,,,,,,,,,,,,1.5619,1,,,,,,,,,,,,,,z,,,,,,,,,,,,,,,,130,0,684.9009,686.467,z,1,1.5619,,[],[],[],[],[],[],[],686.4671,688.467,688.4671,688.4673,[],[],[],[],[],[],[],,688.4674,688.4674,0.050029721,-0.349138077,0,0,0,,0,129,129,39,1,4,RL,relone,cursive,relone_c.png,,,,,,
,,,,32200,001,2025-10-18_16h24.27.861,HW_LDT_1,2024.2.4,MacIntel,59.88023952,,,,,,,,,,,,,,,,,,,,,,688.4687,688.6669,688.667,689.167,,,,,,,,,,,,,,0.9474,1,,,,,,,,,,,,,,m,,,,,,,,,,,,,,,,131,0,689.1679,690.1168,m,1,0.9474,,[],[],[],[],[],[],[],690.1169,692.1169,692.117,692.1171,[],[],[],[],[],[],[],,692.1171,692.1172,0.050029721,-0.349138077,0,0,0,,0,130,130,119,1,4,word,MEMORY,print,memory_p.png,,,,,,
,,,,32200,001,2025-10-18_16h24.27.861,HW_LDT_1,2024.2.4,MacIntel,59.88023952,,,,,,,,,,,,,,,,,,,,,,692.1186,692.3168,692.3168,692.8169,,,,,,,,,,,,,,1.2215,1,,,,,,,,,,,,,,z,,,,,,,,,,,,,,,,132,0,692.8174,694.0503,z,1,1.2215,,[],[],[],[],[],[],[],694.0504,696.0498,696.0498,696.0499,[],[],[],[],[],[],[],,696.05,696.0501,0.050029721,-0.349138077,0,0,0,,0,131,131,69,1,4,TL,quafily,print,quafily_p.png,,,,,,
,,,,32200,001,2025-10-18_16h24.27.861,HW_LDT_1,2024.2.4,MacIntel,59.88023952,,,,,,,,,,,,,,,,,,,,,,696.0515,696.2502,696.2503,696.7503,,,,,,,,,,,,,,1.3646,1,,,,,,,,,,,,,,z,,,,,,,,,,,,,,,,133,0,696.7509,698.1169,z,1,1.3646,,[],[],[],[],[],[],[],698.1169,700.1169,700.117,700.1171,[],[],[],[],[],[],[],,700.1173,700.1173,0.050029721,-0.349138077,0,0,0,,0,132,132,34,1,4,RL,posity,cursive,posity_c.png,,,,,,
,,,,32200,001,2025-10-18_16h24.27.861,HW_LDT_1,2024.2.4,MacIntel,59.88023952,,,,,,,,,,,,,,,,,,,,,,700.1186,700.3169,700.3169,700.8169,,,,,,,,,,,,,,1.3045,1,,,,,,,,,,,,,,z,,,,,,,,,,,,,,,,134,1,700.8177,702.1331,z,1,1.3045,,[],[],[],[],[],[],[],702.1332,704.1336,704.1336,704.7006,[],[],[],[],[],[],[],m,704.7007,704.7009,0.050029721,-0.349138077,0,0,0,,0,133,133,62,1,4,TL,locigal,print,locigal_p.png,0.5664,,,,,
,,,,32200,001,2025-10-18_16h24.27.861,HW_LDT_1,2024.2.4,MacIntel,59.88023952,,,,,,,,,,,,,,,,,,,,,,704.7026,704.9003,704.9003,705.4001,,,,,,,,,,,,,,2.0806,1,,,,,,,,,,,,,,z,,,,,,,,,,,,,,,,135,0,705.4007,707.4834,z,1,2.0806,,[],[],[],[],[],[],[],707.4835,709.4834,709.4835,709.4836,[],[],[],[],[],[],[],,709.4836,709.4838,0.050029721,-0.349138077,0,0,0,,0,134,134,2,1,4,RL,asiral,cursive,asiral_c.png,,,,,,
,,,,32200,001,2025-10-18_16h24.27.861,HW_LDT_1,2024.2.4,MacIntel,59.88023952,,,,,,,,,,,,,,,,,,,,,,709.4851,709.6833,709.6834,710.1833,,,,,,,,,,,,,,1.614,1,,,,,,,,,,,,,,z,,,,,,,,,,,,,,,,136,0,710.1839,711.8001,z,1,1.614,,[],[],[],[],[],[],[],711.8002,713.8,713.8001,713.8002,[],[],[],[],[],[],[],,713.8002,713.8004,0.050029721,-0.349138077,0,0,0,,0,135,135,13,1,4,RL,crisival,cursive,crisival_c.png,,,,,,
,,,,32200,001,2025-10-18_16h24.27.861,HW_LDT_1,2024.2.4,MacIntel,59.88023952,,,,,,,,,,,,,,,,,,,,,,713.8017,714.0001,714.0001,714.5001,,,,,,,,,,,,,,4.2703,1,,,,,,,,,,,,,,m,,,,,,,,,,,,,,,,137,0,714.5005,718.7835,m,1,4.2703,,[],[],[],[],[],[],[],718.7836,720.7833,720.7833,720.7835,[],[],[],[],[],[],[],,720.7836,720.7837,0.050029721,-0.348887568,0,0,0,,0,136,136,93,1,4,word,CEREMONY,print,ceremony_p.png,,,,,,
,,,,32200,001,2025-10-18_16h24.27.861,HW_LDT_1,2024.2.4,MacIntel,59.88023952,,,,,,,,,,,,,,,,,,,,,,720.7849,720.9833,720.9833,721.4834,,,,,,,,,,,,,,1.7133,1,,,,,,,,,,,,,,m,,,,,,,,,,,,,,,,138,0,721.4838,723.2,m,1,1.7133,,[],[],[],[],[],[],[],723.2001,725.1999,725.2,725.2001,[],[],[],[],[],[],[],,725.2001,725.2002,0.050029721,-0.348887568,0,0,0,,0,137,137,125,1,4,word,OPERATOR,print,operator_p.png,,,,,,
,,,,32200,001,2025-10-18_16h24.27.861,HW_LDT_1,2024.2.4,MacIntel,59.88023952,,,,,,,,,,,,,,,,,,,,,,725.2014,725.4,725.4001,725.8999,,,,,,,,,,,,,,0.9135,1,,,,,,,,,,,,,,z,,,,,,,,,,,,,,,,139,0,725.9004,726.8166,z,1,0.9135,,[],[],[],[],[],[],[],726.8167,728.8166,728.8166,728.8168,[],[],[],[],[],[],[],,728.8168,728.8168,0.050029721,-0.348887568,0,0,0,,0,138,138,38,1,4,RL,refakive,print,refakive_p.png,,,,,,
,,,,32200,001,2025-10-18_16h24.27.861,HW_LDT_1,2024.2.4,MacIntel,59.88023952,,,,,,,,,,,,,,,,,,,,,,728.818,729.0167,729.0167,729.5168,,,,,,,,,,,,,,1.1299,0,,,,,,,,,,,,,,m,,,,,,,,,,,,,,,,140,0,729.5174,730.6499,z,0,1.1299,,[],[],[],[],[],[],[],730.65,732.65,732.65,732.6503,[],[],[],[],[],[],[],,732.6503,732.6504,0.050029721,-0.348887568,0,0,0,,0,139,139,134,1,4,word,QUALIFY,print,qualify_p.png,,,,,,
,,,,32200,001,2025-10-18_16h24.27.861,HW_LDT_1,2024.2.4,MacIntel,59.88023952,,,,,,,,,,,,,,,,,,,,,,732.6516,732.8499,732.85,733.35,,,,,,,,,,,,,,1.5973,1,,,,,,,,,,,,,,z,,,,,,,,,,,,,,,,141,0,733.3505,734.9498,z,1,1.5973,,[],[],[],[],[],[],[],734.9499,736.9499,736.9499,736.9501,[],[],[],[],[],[],[],,736.9502,736.9502,0.050029721,-0.348887568,0,0,0,,0,140,140,55,1,4,TL,corevage,cursive,corevage_c.png,,,,,,
,,,,32200,001,2025-10-18_16h24.27.861,HW_LDT_1,2024.2.4,MacIntel,59.88023952,,,,,,,,,,,,,,,,,,,,,,736.9514,737.1496,737.1497,737.65,,,,,,,,,,,,,,1.0975,1,,,,,,,,,,,,,,z,,,,,,,,,,,,,,,,142,1,737.6505,738.75,z,1,1.0975,,[],[],[],[],[],[],[],738.7501,740.7499,740.7499,742.3666,[],[],[],[],[],[],[],z,742.3666,742.3668,0.050029721,-0.348887568,0,0,0,,0,141,141,15,1,4,RL,debave,cursive,debave_c.png,1.6144,,,,,
,,,,32200,001,2025-10-18_16h24.27.861,HW_LDT_1,2024.2.4,MacIntel,59.88023952,,,,,,,,,,,,,,,,,,,,,,742.3681,742.5665,742.5665,743.0665,,,,,,,,,,,,,,2.432,0,,,,,,,,,,,,,,m,,,,,,,,,,,,,,,,143,1,743.0669,745.4998,z,0,2.432,,[],[],[],[],[],[],[],745.5,747.4999,747.5,748.7833,[],[],[],[],[],[],[],z,748.7834,748.7835,0.050029721,-0.348887568,0,0,0,,0,142,142,102,1,4,word,DENSITY,cursive,density_c.png,1.2706,,,,,
,,,,32200,001,2025-10-18_16h24.27.861,HW_LDT_1,2024.2.4,MacIntel,59.88023952,,,,,,,,,,,,,,,,,,,,,,748.785,748.9831,748.9832,749.4831,,,,,,,,,,,,,,2.6202,0,,,,,,,,,,,,,,m,,,,,,,,,,,,,,,,144,0,749.4836,752.1166,z,0,2.6202,,[],[],[],[],[],[],[],752.1167,754.1159,754.116,754.1162,[],[],[],[],[],[],[],,754.1162,754.1163,0.050029721,-0.348887568,0,0,0,,0,143,143,128,1,4,word,PACIFIC,cursive,pacific_c.png,,,,,,
,,,,32200,001,2025-10-18_16h24.27.861,HW_LDT_1,2024.2.4,MacIntel,59.88023952,,,,,,,,,,,,,,,,,,,,,,754.1185,754.3166,754.3167,754.8165,,,,,,,,,,,,,,0.9142,1,,,,,,,,,,,,,,m,,,,,,,,,,,,,,,,145,0,754.8173,755.7329,m,1,0.9142,,[],[],[],[],[],[],[],755.7329,757.733,757.7331,757.7332,[],[],[],[],[],[],[],,757.7332,757.7333,0.050029721,-0.348887568,0,0,0,,0,144,144,105,1,4,word,EDITOR,print,editor_p.png,,,,,,
,,,,32200,001,2025-10-18_16h24.27.861,HW_LDT_1,2024.2.4,MacIntel,59.88023952,,,,,,,,,,,,,,,,,,,,,,757.7346,757.9326,757.9326,758.433,,,,,,,,,,,,,,0.8299,1,,,,,,,,,,,,,,z,,,,,,,,,,,,,,,,146,1,758.4337,759.2665,z,1,0.8299,,[],[],[],[],[],[],[],759.2665,761.2663,761.2664,764.8164,[],[],[],[],[],[],[],m,764.8164,764.8165,0.0541143,-0.352203635,0,0,0,,0,145,145,67,1,4,TL,polupar,print,polupar_p.png,3.5482,,,,,
,,,,32200,001,2025-10-18_16h24.27.861,HW_LDT_1,2024.2.4,MacIntel,59.88023952,,,,,,,,,,,,,,,,,,,,,,764.8182,765.0163,765.0164,765.5163,,,,,,,,,,,,,,3.4364,1,,,,,,,,,,,,,,m,,,,,,,,,,,,,,,,147,1,765.5169,768.9664,m,1,3.4364,,[],[],[],[],[],[],[],768.9665,770.9654,770.9655,771.8498,[],[],[],[],[],[],[],z,771.8499,771.8499,0.0541143,-0.352203635,0,0,0,,0,146,146,151,1,4,word,SPECIFIC,cursive,specific_c.png,0.8751,,,,,
,,,,32200,001,2025-10-18_16h24.27.861,HW_LDT_1,2024.2.4,MacIntel,59.88023952,,,,,,,,,,,,,,,,,,,,,,771.8513,772.0496,772.0497,772.5496,,,,,,,,,,,,,,1.0432,1,,,,,,,,,,,,,,m,,,,,,,,,,,,,,,,148,0,772.5502,773.5994,m,1,1.0432,,[],[],[],[],[],[],[],773.5994,775.5996,775.5996,775.5997,[],[],[],[],[],[],[],,775.5998,775.5998,0.0541143,-0.352203635,0,0,0,,0,147,147,121,1,4,word,MISTAKE,print,mistake_p.png,,,,,,
,,,,32200,001,2025-10-18_16h24.27.861,HW_LDT_1,2024.2.4,MacIntel,59.88023952,,,,,,,,,,,,,,,,,,,,,,775.6012,775.7986,775.7986,776.2996,,,,,,,,,,,,,,1.031,0,,,,,,,,,,,,,,m,,,,,,,,,,,,,,,,149,0,776.3001,777.3331,z,0,1.031,,[],[],[],[],[],[],[],777.3331,779.3328,779.3329,779.3331,[],[],[],[],[],[],[],,779.3331,779.3331,0.0541143,-0.352203635,0,0,0,,0,148,148,139,1,4,word,REGULAR,cursive,regular_c.png,,,,,,
,,,,32200,001,2025-10-18_16h24.27.861,HW_LDT_1,2024.2.4,MacIntel,59.88023952,,,,,,,,,,,,,,,,,,,,,,779.3343,779.5329,779.533,780.033,,,,,,,,,,,,,,1.0781,1,,,,,,,,,,,,,,z,,,,,,,,,,,,,,,,150,0,780.0337,781.1158,z,1,1.0781,,[],[],[],[],[],[],[],781.1158,783.1158,783.1159,783.1161,[],[],[],[],[],[],[],,783.1161,783.1162,0.0541143,-0.352203635,0,0,0,,0,149,149,73,1,4,TL,regilion,print,regilion_p.png,,,,,,
,,,,32200,001,2025-10-18_16h24.27.861,HW_LDT_1,2024.2.4,MacIntel,59.88023952,,,,,,,,,,,,,,,,,,,,,,783.1173,783.3162,783.3162,783.8162,,,,,,,,,,,,,,1.529,1,,,,,,,,,,,,,,z,,,,,,,,,,,,,,,,151,0,783.8168,785.3491,z,1,1.529,,[],[],[],[],[],[],[],785.3492,787.3494,787.3495,787.3496,[],[],[],[],[],[],[],,787.3497,787.3498,0.0541143,-0.352203635,0,0,0,,0,150,150,58,1,4,TL,edivent,print,edivent_p.png,,,,,,
,,,,32200,001,2025-10-18_16h24.27.861,HW_LDT_1,2024.2.4,MacIntel,59.88023952,,,,,,,,,,,,,,,,,,,,,,787.351,787.5495,787.5495,788.0495,,,,,,,,,,,,,,1.0799,1,,,,,,,,,,,,,,m,,,,,,,,,,,,,,,,152,0,788.0501,789.1327,m,1,1.0799,,[],[],[],[],[],[],[],789.1328,791.1328,791.1328,791.1329,[],[],[],[],[],[],[],,791.133,791.1331,0.0541143,-0.352203635,0,0,0,,0,151,151,148,1,4,word,SALINE,print,saline_p.png,,,,,,
,,,,32200,001,2025-10-18_16h24.27.861,HW_LDT_1,2024.2.4,MacIntel,59.88023952,,,,,,,,,,,,,,,,,,,,,,791.1345,791.3329,791.3329,791.833,,,,,,,,,,,,,,1.0639,1,,,,,,,,,,,,,,m,,,,,,,,,,,,,,,,153,1,791.8335,792.8994,m,1,1.0639,,[],[],[],[],[],[],[],792.8995,794.8995,794.8995,795.7328,[],[],[],[],[],[],[],m,795.7329,795.733,0.0541143,-0.352203635,0,0,0,,0,152,152,110,1,4,word,HERITAGE,print,heritage_p.png,0.832,,,,,
,,,,32200,001,2025-10-18_16h24.27.861,HW_LDT_1,2024.2.4,MacIntel,59.88023952,,,,,,,,,,,,,,,,,,,,,,795.7341,795.9326,795.9326,796.4328,,,,,,,,,,,,,,1.6872,1,,,,,,,,,,,,,,z,,,,,,,,,,,,,,,,154,1,796.4334,798.1329,z,1,1.6872,,[],[],[],[],[],[],[],798.133,800.1328,800.1328,801.1662,[],[],[],[],[],[],[],m,801.1663,801.1665,0.0541143,-0.352203635,0,0,0,,0,153,153,7,1,4,RL,casena,print,casena_p.png,1.0207,,,,,
,,,,32200,001,2025-10-18_16h24.27.861,HW_LDT_1,2024.2.4,MacIntel,59.88023952,,,,,,,,,,,,,,,,,,,,,,801.168,801.3661,801.3662,801.8661,,,,,,,,,,,,,,1.0532,1,,,,,,,,,,,,,,z,,,,,,,,,,,,,,,,155,1,801.8665,802.9329,z,1,1.0532,,[],[],[],[],[],[],[],802.933,804.9327,804.9328,806.1668,[],[],[],[],[],[],[],z,806.1669,806.1669,0.0541143,-0.352203635,0,0,0,,0,154,154,46,1,4,RL,skofen,cursive,skofen_c.png,1.2331,,,,,
,,,,32200,001,2025-10-18_16h24.27.861,HW_LDT_1,2024.2.4,MacIntel,59.88023952,,,,,,,,,,,,,,,,,,,,,,806.1684,806.3661,806.3661,806.866,,,,,,,,,,,,,,0.8029,1,,,,,,,,,,,,,,m,,,,,,,,,,,,,,,,156,0,806.8668,807.6828,m,1,0.8029,,[],[],[],[],[],[],[],807.6829,809.6827,809.6827,809.6829,[],[],[],[],[],[],[],,809.6829,809.6829,0.0541143,-0.352203635,0,0,0,,0,155,155,80,1,4,word,ACADEMY,print,academy_p.png,,,,,,
,,,,32200,001,2025-10-18_16h24.27.861,HW_LDT_1,2024.2.4,MacIntel,59.88023952,,,,,,,,,,,,,,,,,,,,,,809.6841,809.8827,809.8827,810.3827,,,,,,,,,,,,,,1.174,1,,,,,,,,,,,,,,z,,,,,,,,,,,,,,,,157,0,810.3833,811.566,z,1,1.174,,[],[],[],[],[],[],[],811.5662,813.566,813.566,813.5661,[],[],[],[],[],[],[],,813.5661,813.5662,0.0541143,-0.352203635,0,0,0,,0,156,156,17,1,4,RL,denficy,cursive,denficy_c.png,,,,,,
,,,,32200,001,2025-10-18_16h24.27.861,HW_LDT_1,2024.2.4,MacIntel,59.88023952,,,,,,,,,,,,,,,,,,,,,,813.5674,813.766,813.766,814.2659,,,,,,,,,,,,,,0.7369,1,,,,,,,,,,,,,,z,,,,,,,,,,,,,,,,158,0,814.2663,815.0161,z,1,0.7369,,[],[],[],[],[],[],[],815.0163,817.016,817.0161,817.0161,[],[],[],[],[],[],[],,817.0161,817.0162,0.0541143,-0.352203635,0,0,0,,0,157,157,27,1,4,RL,menowy,print,menowy_p.png,,,,,,
,,,,32200,001,2025-10-18_16h24.27.861,HW_LDT_1,2024.2.4,MacIntel,59.88023952,,,,,,,,,,,,,,,,,,,,,,817.0175,817.2159,817.216,817.7156,,,,,,,,,,,,,,1.3699,1,,,,,,,,,,,,,,z,,,,,,,,,,,,,,,,159,0,817.716,819.0993,z,1,1.3699,,[],[],[],[],[],[],[],819.0994,821.0993,821.0994,821.0995,[],[],[],[],[],[],[],,821.0997,821.0997,0.0541143,-0.352203635,0,0,0,,0,158,158,71,1,4,TL,racidal,print,racidal_p.png,,,,,,
,,,,32200,001,2025-10-18_16h24.27.861,HW_LDT_1,2024.2.4,MacIntel,59.88023952,,,,,,,,,,,,,,,,,,,,,,821.1011,821.2993,821.2993,821.7993,,,,,,,,,,,,,,1.9195,1,,,,,,,,,,,,,,m,,,,,,,,,,,,,,,,160,0,821.8,823.7317,m,1,1.9195,,[],[],[],[],[],[],[],823.7318,825.7328,825.7329,825.733,[],[],[],[],[],[],[],,825.733,825.7332,0.043410326,-0.338344939,0,0,0,,0,159,159,159,1,4,word,VETERAN,cursive,veteran_c.png,,,,,,
,,,,32200,001,2025-10-18_16h24.27.861,HW_LDT_1,2024.2.4,MacIntel,59.88023952,,,,,,,,,,,,,,,,,,,,,,,,,,,,,,,,,,,,,,,,,,,,,,,,,,,,,,,,,,,,,,,,,,,,,,,,,,,,,,,,,,,,,,,,,,,,,,,,,,,,,,,,,,,,,,,,,,,,,,,825.7346,830.733
