counterbalance_lists.group,counterbalance_lists.remaining,get_list.started,get_list.stopped,participant,session,date,expName,psychopyVersion,OS,frameRate,Instructions.started,Instructions.stopped,key_resp.keys,key_resp.rt,key_resp.duration,instr_done_touch.x,instr_done_touch.y,instr_done_touch.leftButton,instr_done_touch.midButton,instr_done_touch.rightButton,start_instr.thisRepN,start_instr.thisTrialN,start_instr.thisN,start_instr.thisIndex,start_instr.ran,pageN,phase,instruct_text,has_image,instruct_image,showProgress.started,showProgress.stopped,fix.started,fix.stopped,prac.started,prac.stopped,response.keys,response.corr,response.rt,response.duration,touch_resp.x,touch_resp.y,touch_resp.leftButton,touch_resp.midButton,touch_resp.rightButton,touch_resp.time,touch_resp.clicked_name,rt,corr,feedback.started,feedback.stopped,trials.thisRepN,trials.thisTrialN,trials.thisN,trials.thisIndex,trials.ran,TrialID,StimulusType,Condition,PrimeDuration,Prime,Target,corrAns,Instructions_expt.started,Instructions_expt.stopped,key_resp_3.keys,instr_done_touch_3.x,instr_done_touch_3.y,instr_done_touch_3.leftButton,instr_done_touch_3.midButton,instr_done_touch_3.rightButton,instr_done_touch_3.clicked_name,instr_experiment.thisRepN,instr_experiment.thisTrialN,instr_experiment.thisN,instr_experiment.thisIndex,instr_experiment.ran,trialID,flag,maintask.started,maintask.stopped,key_resp_2.keys,key_resp_2.corr,key_resp_2.rt,key_resp_2.duration,targ_click.x,targ_click.y,targ_click.leftButton,targ_click.midButton,targ_click.rightButton,targ_click.time,targ_click.clicked_name,ITI.started,ITI.stopped,probe.started,probe.stopped,click_probe.x,click_probe.y,click_probe.leftButton,click_probe.midButton,click_probe.rightButton,click_probe.time,click_probe.clicked_name,key_resp_probe.keys,Break.started,Break.stopped,break_done_touch.x,break_done_touch.y,break_done_touch.leftButton,break_done_touch.midButton,break_done_touch.rightButton,break_done_keyboard.keys,list4_trials.thisRepN,list4_trials.thisTrialN,list4_trials.thisN,list4_trials.thisIndex,list4_trials.ran,list_id,item_type,string,font,stim_file,key_resp_probe.rt,key_resp_probe.duration,break_done_keyboard.rt,break_done_keyboard.duration,End.started,End.stopped
list4,,0.4078,0.4078,32207,001,2025-10-16_01h41.47.115,HW_LDT_1,2024.2.4,MacIntel,63.69426752,,,,,,,,,,,,,,,,,,,,,,,,,,,,,,,,,,,,,,,,,,,,,,,,,,,,,,,,,,,,,,,,,,,,,,,,,,,,,,,,,,,,,,,,,,,,,,,,,,,,,,,,,,,,,,,,,,,,,,
,,,,32207,001,2025-10-16_01h41.47.115,HW_LDT_1,2024.2.4,MacIntel,63.69426752,0.4246,20.5285,space,20.0753,,-0.023548014,-0.434014554,0,0,0,0,0,0,0,1,1,instructions,"INSTRUCTIONS
At the start of each trial, look at the plus sign  (+) in the center of the screen.  This tells you that a trial is about to begin and where to look. Second, the plus sign will disappear and a string of letters will appear. Your task is to determine if the string of letters is a word or not. If the item is a word press the M key (on keyboard)  or touch the word button (phone/tablet).  If the item is not a word,  press the  Z key (on keyboard)  or touch the nonword button (on phone/tablet). The items will be presented for a short time. 
Press the space bar or touch  continue.",0,,,,,,,,,,,,,,,,,,,,,,,,,,,,,,,,,,,,,,,,,,,,,,,,,,,,,,,,,,,,,,,,,,,,,,,,,,,,,,,,,,,,,,,,,,,,,,,,,,,
,,,,32207,001,2025-10-16_01h41.47.115,HW_LDT_1,2024.2.4,MacIntel,63.69426752,20.5304,26.9779,space,6.4175,,-0.003430189,-0.253642716,0,0,0,0,1,1,1,1,2,instructions,"If your device has a keyboard, press the 'Z' key for nonwords and the 'M' key for words.





Press the space bar or touch the button below to continue.",0,keyboard-example.gif,,,,,,,,,,,,,,,,,,,,,,,,,,,,,,,,,,,,,,,,,,,,,,,,,,,,,,,,,,,,,,,,,,,,,,,,,,,,,,,,,,,,,,,,,,,,,,,,,,
,,,,32207,001,2025-10-16_01h41.47.115,HW_LDT_1,2024.2.4,MacIntel,63.69426752,26.9799,31.4111,space,4.4007,,-0.003430189,-0.253642716,0,0,0,0,2,2,2,1,3,instructions,"If you are using a touchscreen only device, use the buttons on the screen. Do not use the mouse.





Press the space bar or touch the button below to continue.",0,touchscreen-example.gif,,,,,,,,,,,,,,,,,,,,,,,,,,,,,,,,,,,,,,,,,,,,,,,,,,,,,,,,,,,,,,,,,,,,,,,,,,,,,,,,,,,,,,,,,,,,,,,,,,
,,,,32207,001,2025-10-16_01h41.47.115,HW_LDT_1,2024.2.4,MacIntel,63.69426752,31.4134,40.0107,space,8.5747,,-0.003430189,-0.253642716,0,0,0,0,3,3,3,1,4,instructions,"It is very important that you respond as quickly and accurately as possible, as each letter string will only be on the screen for two seconds. If you do not respond within this time, the message 'Too slow!' will be displayed and the experiment will progress to the next letter string. The first 20 trials will be practice trials and you will receive feedback on your answers. 

Press the space bar or touch the button below to start the practice trials.",0,,,,,,,,,,,,,,,,,,,,,,,,,,,,,,,,,,,,,,,,,,,,,,,,,,,,,,,,,,,,,,,,,,,,,,,,,,,,,,,,,,,,,,,,,,,,,,,,,,,
,,,,32207,001,2025-10-16_01h41.47.115,HW_LDT_1,2024.2.4,MacIntel,63.69426752,,,,,,,,,,,,,,,,,,,,,40.0335,40.2112,40.2114,40.7111,40.7114,41.995,m,1,1.2644,,[],[],[],[],[],[],[],1.2644,1,41.9953,42.4947,0,0,0,4,1,1005,WORD,UN,33,abound,SQUEAK,m,,,,,,,,,,,,,,,,,,,,,,,,,,,,,,,,,,,,,,,,,,,,,,,,,,,,,,,,,,,,,,,,,
,,,,32207,001,2025-10-16_01h41.47.115,HW_LDT_1,2024.2.4,MacIntel,63.69426752,,,,,,,,,,,,,,,,,,,,,42.4961,42.6934,42.6935,43.1944,43.1955,44.1113,m,1,0.9063,,[],[],[],[],[],[],[],0.9063,1,44.1114,44.6112,0,1,1,3,1,1004,WORD,"ID",16,matrix,MATRIX,m,,,,,,,,,,,,,,,,,,,,,,,,,,,,,,,,,,,,,,,,,,,,,,,,,,,,,,,,,,,,,,,,,
,,,,32207,001,2025-10-16_01h41.47.115,HW_LDT_1,2024.2.4,MacIntel,63.69426752,,,,,,,,,,,,,,,,,,,,,44.6126,44.811,44.811,45.311,45.3121,46.2611,z,1,0.9278,,[],[],[],[],[],[],[],0.9278,1,46.2613,46.761,0,2,2,9,1,1010,NW,"ID",33,fariny,FARINY,z,,,,,,,,,,,,,,,,,,,,,,,,,,,,,,,,,,,,,,,,,,,,,,,,,,,,,,,,,,,,,,,,,
,,,,32207,001,2025-10-16_01h41.47.115,HW_LDT_1,2024.2.4,MacIntel,63.69426752,,,,,,,,,,,,,,,,,,,,,46.7623,46.9605,46.9606,47.4609,47.4618,48.5935,z,1,1.1126,,[],[],[],[],[],[],[],1.1126,1,48.5936,49.0944,0,3,3,12,1,1013,NW,UN,33,adveil,SPRINY,z,,,,,,,,,,,,,,,,,,,,,,,,,,,,,,,,,,,,,,,,,,,,,,,,,,,,,,,,,,,,,,,,,
,,,,32207,001,2025-10-16_01h41.47.115,HW_LDT_1,2024.2.4,MacIntel,63.69426752,,,,,,,,,,,,,,,,,,,,,49.0956,49.2934,49.2934,49.7944,49.7953,50.6444,z,1,0.8244,,[],[],[],[],[],[],[],0.8244,1,50.6446,51.1444,0,4,4,8,1,1009,NW,"ID",33,aslert,ASLERT,z,,,,,,,,,,,,,,,,,,,,,,,,,,,,,,,,,,,,,,,,,,,,,,,,,,,,,,,,,,,,,,,,,
,,,,32207,001,2025-10-16_01h41.47.115,HW_LDT_1,2024.2.4,MacIntel,63.69426752,,,,,,,,,,,,,,,,,,,,,51.1456,51.3442,51.3442,51.8434,51.8445,52.4944,m,1,0.6298,,[],[],[],[],[],[],[],0.6298,1,52.4947,52.9944,0,5,5,5,1,1006,WORD,UN,33,frenzy,OBTAIN,m,,,,,,,,,,,,,,,,,,,,,,,,,,,,,,,,,,,,,,,,,,,,,,,,,,,,,,,,,,,,,,,,,
,,,,32207,001,2025-10-16_01h41.47.115,HW_LDT_1,2024.2.4,MacIntel,63.69426752,,,,,,,,,,,,,,,,,,,,,52.9957,53.1934,53.1934,53.6943,53.6952,54.3778,m,1,0.6638,,[],[],[],[],[],[],[],0.6638,1,54.3779,54.8777,0,6,6,1,1,1002,WORD,"ID",33,adjust,ADJUST,m,,,,,,,,,,,,,,,,,,,,,,,,,,,,,,,,,,,,,,,,,,,,,,,,,,,,,,,,,,,,,,,,,
,,,,32207,001,2025-10-16_01h41.47.115,HW_LDT_1,2024.2.4,MacIntel,63.69426752,,,,,,,,,,,,,,,,,,,,,54.879,55.0777,55.0777,55.5777,55.5785,56.2775,z,1,0.6901,,[],[],[],[],[],[],[],0.6901,1,56.2777,56.7768,0,7,7,13,1,1014,NW,UN,33,winfer,ROUPET,z,,,,,,,,,,,,,,,,,,,,,,,,,,,,,,,,,,,,,,,,,,,,,,,,,,,,,,,,,,,,,,,,,
,,,,32207,001,2025-10-16_01h41.47.115,HW_LDT_1,2024.2.4,MacIntel,63.69426752,,,,,,,,,,,,,,,,,,,,,56.778,56.9777,56.9778,57.4777,57.4786,58.2944,z,1,0.7955,,[],[],[],[],[],[],[],0.7955,1,58.2946,58.7944,0,8,8,14,1,1015,NW,UN,16,miaber,THRALE,z,,,,,,,,,,,,,,,,,,,,,,,,,,,,,,,,,,,,,,,,,,,,,,,,,,,,,,,,,,,,,,,,,
,,,,32207,001,2025-10-16_01h41.47.115,HW_LDT_1,2024.2.4,MacIntel,63.69426752,,,,,,,,,,,,,,,,,,,,,58.7956,58.9943,58.9944,59.4943,59.4951,60.1935,z,1,0.6792,,[],[],[],[],[],[],[],0.6792,1,60.1935,60.6943,0,9,9,11,1,1012,NW,"ID",16,rashet,RASHET,z,,,,,,,,,,,,,,,,,,,,,,,,,,,,,,,,,,,,,,,,,,,,,,,,,,,,,,,,,,,,,,,,,
,,,,32207,001,2025-10-16_01h41.47.115,HW_LDT_1,2024.2.4,MacIntel,63.69426752,,,,,,,,,,,,,,,,,,,,,60.6956,60.8944,60.8944,61.3944,61.3953,62.0944,m,1,0.6803,,[],[],[],[],[],[],[],0.6803,1,62.0946,62.5944,0,10,10,0,1,1001,WORD,"ID",33,utopia,UTOPIA,m,,,,,,,,,,,,,,,,,,,,,,,,,,,,,,,,,,,,,,,,,,,,,,,,,,,,,,,,,,,,,,,,,
,,,,32207,001,2025-10-16_01h41.47.115,HW_LDT_1,2024.2.4,MacIntel,63.69426752,,,,,,,,,,,,,,,,,,,,,62.5957,62.7943,62.7944,63.2943,63.2952,63.7945,m,1,0.4822,,[],[],[],[],[],[],[],0.4822,1,63.7946,64.2934,0,11,11,7,1,1008,WORD,UN,16,hurdle,VOLUME,m,,,,,,,,,,,,,,,,,,,,,,,,,,,,,,,,,,,,,,,,,,,,,,,,,,,,,,,,,,,,,,,,,
,,,,32207,001,2025-10-16_01h41.47.115,HW_LDT_1,2024.2.4,MacIntel,63.69426752,,,,,,,,,,,,,,,,,,,,,64.2947,64.4943,64.4943,64.9943,64.9953,65.6111,m,1,0.5967,,[],[],[],[],[],[],[],0.5967,1,65.6112,66.1111,0,12,12,2,1,1003,WORD,"ID",16,almond,ALMOND,m,,,,,,,,,,,,,,,,,,,,,,,,,,,,,,,,,,,,,,,,,,,,,,,,,,,,,,,,,,,,,,,,,
,,,,32207,001,2025-10-16_01h41.47.115,HW_LDT_1,2024.2.4,MacIntel,63.69426752,,,,,,,,,,,,,,,,,,,,,66.1123,66.3109,66.3109,66.811,66.8118,67.6278,z,1,0.7952,,[],[],[],[],[],[],[],0.7952,1,67.6279,68.1268,0,13,13,10,1,1011,NW,"ID",16,inlade,INLADE,z,,,,,,,,,,,,,,,,,,,,,,,,,,,,,,,,,,,,,,,,,,,,,,,,,,,,,,,,,,,,,,,,,
,,,,32207,001,2025-10-16_01h41.47.115,HW_LDT_1,2024.2.4,MacIntel,63.69426752,,,,,,,,,,,,,,,,,,,,,68.1276,68.3276,68.3277,68.8273,68.8274,69.6277,z,1,0.7935,,[],[],[],[],[],[],[],0.7935,1,69.6277,70.1278,0,14,14,15,1,1016,NW,UN,16,mushed,WHAISE,z,,,,,,,,,,,,,,,,,,,,,,,,,,,,,,,,,,,,,,,,,,,,,,,,,,,,,,,,,,,,,,,,,
,,,,32207,001,2025-10-16_01h41.47.115,HW_LDT_1,2024.2.4,MacIntel,63.69426752,,,,,,,,,,,,,,,,,,,,,70.129,70.3277,70.3277,70.8274,70.8282,71.4111,m,1,0.5622,,[],[],[],[],[],[],[],0.5622,1,71.4113,71.911,0,15,15,6,1,1007,WORD,UN,16,tropic,ZOMBIE,m,,,,,,,,,,,,,,,,,,,,,,,,,,,,,,,,,,,,,,,,,,,,,,,,,,,,,,,,,,,,,,,,,
,,,,32207,001,2025-10-16_01h41.47.115,HW_LDT_1,2024.2.4,MacIntel,63.69426752,,,,,,,,,,,,,,,,1,end_of_practice,"You have completed the practice trials. During the experimental trials, you will not receive feedback. On some trials you will be asked to report whether the item you just saw was in cursive or print. 
Before you begin, please ensure that you are in a comfortable and quiet location and will not be disturbed for about 15 minutes, as we cannot use your data if you do not complete all the trials. 
 When you are ready to start the experimental trials, please press space or touch the button below.",,,,,,,,,,,,,,,,,,,,,,,,,,,,,,,,,,,,71.9167,73.6278,,0.011880271,-0.400112214,1,0,0,instr_done_button_3,0,0,0,0,1,,,,,,,,,,,,,,,,,,,,,,,,,,,,,,,,,,,,,,,,,,,,,,,,,,,
,,,,32207,001,2025-10-16_01h41.47.115,HW_LDT_1,2024.2.4,MacIntel,63.69426752,,,,,,,,,,,,,,,,,,,,,73.6422,73.8275,73.8275,74.3268,,,,,,,,,,,,,,2.7038,0,,,,,,,,,,,,,,m,,,,,,,,,,,,,,,1,0,74.328,77.0439,z,0,2.7038,,[],[],[],[],[],[],[],77.0442,79.0446,79.0448,79.0473,[],[],[],[],[],[],[],,79.0474,79.0485,0.011880271,-0.400112214,0,0,0,,0,0,0,139,1,4,word,REGULAR,cursive,regular_c.png,,,,,,
,,,,32207,001,2025-10-16_01h41.47.115,HW_LDT_1,2024.2.4,MacIntel,63.69426752,,,,,,,,,,,,,,,,,,,,,79.0491,79.2445,79.2446,79.7434,,,,,,,,,,,,,,1.2999,1,,,,,,,,,,,,,,z,,,,,,,,,,,,,,,2,0,79.7439,81.0447,z,1,1.2999,,[],[],[],[],[],[],[],81.0448,83.0444,83.0444,83.0447,[],[],[],[],[],[],[],,83.0447,83.0448,0.011880271,-0.400112214,0,0,0,,0,1,1,25,1,4,RL,macise,print,macise_p.png,,,,,,
,,,,32207,001,2025-10-16_01h41.47.115,HW_LDT_1,2024.2.4,MacIntel,63.69426752,,,,,,,,,,,,,,,,,,,,,83.0459,83.2444,83.2445,83.7444,,,,,,,,,,,,,,1.6154,1,,,,,,,,,,,,,,z,,,,,,,,,,,,,,,3,0,83.7449,85.3611,z,1,1.6154,,[],[],[],[],[],[],[],85.3612,87.3611,87.3612,87.3614,[],[],[],[],[],[],[],,87.3614,87.3616,0.011880271,-0.400112214,0,0,0,,0,2,2,48,1,4,RL,vabifity,print,vabifity_p.png,,,,,,
,,,,32207,001,2025-10-16_01h41.47.115,HW_LDT_1,2024.2.4,MacIntel,63.69426752,,,,,,,,,,,,,,,,,,,,,87.3627,87.561,87.561,88.0611,,,,,,,,,,,,,,2.1709,1,,,,,,,,,,,,,,z,,,,,,,,,,,,,,,4,0,88.0616,90.2445,z,1,2.1709,,[],[],[],[],[],[],[],90.2446,92.2438,92.2439,92.2441,[],[],[],[],[],[],[],,92.2442,92.2443,0.011880271,-0.400112214,0,0,0,,0,3,3,49,1,4,RL,vesofity,cursive,vesofity_c.png,,,,,,
,,,,32207,001,2025-10-16_01h41.47.115,HW_LDT_1,2024.2.4,MacIntel,63.69426752,,,,,,,,,,,,,,,,,,,,,92.2455,92.4445,92.4445,92.9443,,,,,,,,,,,,,,0.7911,1,,,,,,,,,,,,,,m,,,,,,,,,,,,,,,5,0,92.9449,93.7444,m,1,0.7911,,[],[],[],[],[],[],[],93.7446,95.7445,95.7446,95.7448,[],[],[],[],[],[],[],,95.7448,95.7449,0.011880271,-0.400112214,0,0,0,,0,4,4,132,1,4,word,PROPOSAL,print,proposal_p.png,,,,,,
,,,,32207,001,2025-10-16_01h41.47.115,HW_LDT_1,2024.2.4,MacIntel,63.69426752,,,,,,,,,,,,,,,,,,,,,95.7461,95.9434,95.9435,96.4444,,,,,,,,,,,,,,2.9741,0,,,,,,,,,,,,,,z,,,,,,,,,,,,,,,6,0,96.4449,99.4279,m,0,2.9741,,[],[],[],[],[],[],[],99.428,101.4278,101.4278,101.4281,[],[],[],[],[],[],[],,101.4282,101.4284,0.011880271,-0.400112214,0,0,0,,0,5,5,15,1,4,RL,debave,cursive,debave_c.png,,,,,,
,,,,32207,001,2025-10-16_01h41.47.115,HW_LDT_1,2024.2.4,MacIntel,63.69426752,,,,,,,,,,,,,,,,,,,,,101.4296,101.6277,101.6278,102.1269,,,,,,,,,,,,,,0.7079,1,,,,,,,,,,,,,,m,,,,,,,,,,,,,,,7,0,102.1274,102.8436,m,1,0.7079,,[],[],[],[],[],[],[],102.8437,104.8444,104.8445,104.8447,[],[],[],[],[],[],[],,104.8449,104.8449,0.011880271,-0.400112214,0,0,0,,0,6,6,135,1,4,word,QUALITY,print,quality_p.png,,,,,,
,,,,32207,001,2025-10-16_01h41.47.115,HW_LDT_1,2024.2.4,MacIntel,63.69426752,,,,,,,,,,,,,,,,,,,,,104.846,105.0444,105.0444,105.5445,,,,,,,,,,,,,,0.6214,1,,,,,,,,,,,,,,m,,,,,,,,,,,,,,,8,0,105.5449,106.1778,m,1,0.6214,,[],[],[],[],[],[],[],106.178,108.1778,108.1779,108.1781,[],[],[],[],[],[],[],,108.1781,108.1782,0.011880271,-0.400112214,0,0,0,,0,7,7,103,1,4,word,DISPUTE,print,dispute_p.png,,,,,,
,,,,32207,001,2025-10-16_01h41.47.115,HW_LDT_1,2024.2.4,MacIntel,63.69426752,,,,,,,,,,,,,,,,,,,,,108.1794,108.3778,108.3778,108.8777,,,,,,,,,,,,,,0.7744,0,,,,,,,,,,,,,,m,,,,,,,,,,,,,,,9,1,108.8783,109.6612,z,0,0.7744,,[],[],[],[],[],[],[],109.6613,111.6611,111.6612,114.3446,[],[],[],[],[],[],[],z,114.3447,114.3449,0.011880271,-0.400112214,0,0,0,,0,8,8,159,1,4,word,VETERAN,cursive,veteran_c.png,2.6721,,,,,
,,,,32207,001,2025-10-16_01h41.47.115,HW_LDT_1,2024.2.4,MacIntel,63.69426752,,,,,,,,,,,,,,,,,,,,,114.3462,114.5444,114.5445,115.0443,,,,,,,,,,,,,,5.2041,1,,,,,,,,,,,,,,z,,,,,,,,,,,,,,,10,0,115.045,120.2603,z,1,5.2041,,[],[],[],[],[],[],[],120.2603,122.2602,122.2602,122.2605,[],[],[],[],[],[],[],,122.2606,122.2607,0.011880271,-0.400112214,0,0,0,,0,9,9,59,1,4,TL,fornute,cursive,fornute_c.png,,,,,,
,,,,32207,001,2025-10-16_01h41.47.115,HW_LDT_1,2024.2.4,MacIntel,63.69426752,,,,,,,,,,,,,,,,,,,,,122.2619,122.4611,122.4611,122.9611,,,,,,,,,,,,,,2.2046,0,,,,,,,,,,,,,,z,,,,,,,,,,,,,,,11,0,122.9617,125.1779,m,0,2.2046,,[],[],[],[],[],[],[],125.178,127.1777,127.1778,127.1779,[],[],[],[],[],[],[],,127.178,127.1782,0.011880271,-0.400112214,0,0,0,,0,10,10,42,1,4,RL,revune,print,revune_p.png,,,,,,
,,,,32207,001,2025-10-16_01h41.47.115,HW_LDT_1,2024.2.4,MacIntel,63.69426752,,,,,,,,,,,,,,,,,,,,,127.1793,127.3769,127.3769,127.8764,,,,,,,,,,,,,,2.5401,0,,,,,,,,,,,,,,z,,,,,,,,,,,,,,,12,0,127.8766,130.427,m,0,2.5401,,[],[],[],[],[],[],[],130.4271,132.4277,132.4278,132.428,[],[],[],[],[],[],[],,132.4281,132.4282,0.011880271,-0.400112214,0,0,0,,0,11,11,30,1,4,RL,nunewical,cursive,nunewical_c.png,,,,,,
,,,,32207,001,2025-10-16_01h41.47.115,HW_LDT_1,2024.2.4,MacIntel,63.69426752,,,,,,,,,,,,,,,,,,,,,132.4294,132.6277,132.6278,133.1278,,,,,,,,,,,,,,3.1982,1,,,,,,,,,,,,,,z,,,,,,,,,,,,,,,13,0,133.1283,136.3278,z,1,3.1982,,[],[],[],[],[],[],[],136.3278,138.3278,138.3279,138.328,[],[],[],[],[],[],[],,138.3281,138.3283,0.011880271,-0.400112214,0,0,0,,0,12,12,19,1,4,RL,elacodate,cursive,elacodate_c.png,,,,,,
,,,,32207,001,2025-10-16_01h41.47.115,HW_LDT_1,2024.2.4,MacIntel,63.69426752,,,,,,,,,,,,,,,,,,,,,138.3294,138.5279,138.5279,139.0278,,,,,,,,,,,,,,3.3045,0,,,,,,,,,,,,,,m,,,,,,,,,,,,,,,14,0,139.0283,142.3446,z,0,3.3045,,[],[],[],[],[],[],[],142.3447,144.3444,144.3445,144.3447,[],[],[],[],[],[],[],,144.3448,144.3449,0.011880271,-0.400112214,0,0,0,,0,13,13,99,1,4,word,DEBATE,cursive,debate_c.png,,,,,,
,,,,32207,001,2025-10-16_01h41.47.115,HW_LDT_1,2024.2.4,MacIntel,63.69426752,,,,,,,,,,,,,,,,,,,,,144.346,144.5444,144.5445,145.0445,,,,,,,,,,,,,,1.3158,1,,,,,,,,,,,,,,z,,,,,,,,,,,,,,,15,0,145.045,146.3616,z,1,1.3158,,[],[],[],[],[],[],[],146.3617,148.3604,148.3604,148.3606,[],[],[],[],[],[],[],,148.3606,148.3607,0.011880271,-0.400112214,0,0,0,,0,14,14,63,1,4,TL,miskate,print,miskate_p.png,,,,,,
,,,,32207,001,2025-10-16_01h41.47.115,HW_LDT_1,2024.2.4,MacIntel,63.69426752,,,,,,,,,,,,,,,,,,,,,148.3619,148.5603,148.5604,149.0612,,,,,,,,,,,,,,5.199,1,,,,,,,,,,,,,,m,,,,,,,,,,,,,,,16,1,149.0617,154.2614,m,1,5.199,,[],[],[],[],[],[],[],154.2614,156.2613,156.2613,159.028,[],[],[],[],[],[],[],z,159.0281,159.0282,0.011880271,-0.400112214,0,0,0,,0,15,15,113,1,4,word,LITERAL,cursive,literal_c.png,2.7555,,,,,
,,,,32207,001,2025-10-16_01h41.47.115,HW_LDT_1,2024.2.4,MacIntel,63.69426752,,,,,,,,,,,,,,,,,,,,,159.0294,159.227,159.227,159.7279,,,,,,,,,,,,,,1.8731,1,,,,,,,,,,,,,,z,,,,,,,,,,,,,,,17,0,159.7284,161.6113,z,1,1.8731,,[],[],[],[],[],[],[],161.6114,163.6112,163.6113,163.6115,[],[],[],[],[],[],[],,163.6115,163.6116,0.011880271,-0.400112214,0,0,0,,0,16,16,32,1,4,RL,patisic,cursive,patisic_c.png,,,,,,
,,,,32207,001,2025-10-16_01h41.47.115,HW_LDT_1,2024.2.4,MacIntel,63.69426752,,,,,,,,,,,,,,,,,,,,,163.6127,163.8111,163.8112,164.3112,,,,,,,,,,,,,,0.9889,1,,,,,,,,,,,,,,m,,,,,,,,,,,,,,,18,0,164.3117,165.3113,m,1,0.9889,,[],[],[],[],[],[],[],165.3114,167.3103,167.3104,167.3105,[],[],[],[],[],[],[],,167.3106,167.3107,0.011880271,-0.400112214,0,0,0,,0,17,17,91,1,4,word,CARDINAL,cursive,cardinal_c.png,,,,,,
,,,,32207,001,2025-10-16_01h41.47.115,HW_LDT_1,2024.2.4,MacIntel,63.69426752,,,,,,,,,,,,,,,,,,,,,167.3118,167.5107,167.5108,168.0113,,,,,,,,,,,,,,1.7379,1,,,,,,,,,,,,,,z,,,,,,,,,,,,,,,19,0,168.0118,169.7613,z,1,1.7379,,[],[],[],[],[],[],[],169.7614,171.7612,171.7613,171.7615,[],[],[],[],[],[],[],,171.7615,171.7616,0.011880271,-0.400112214,0,0,0,,0,18,18,52,1,4,TL,cagetory,cursive,cagetory_c.png,,,,,,
,,,,32207,001,2025-10-16_01h41.47.115,HW_LDT_1,2024.2.4,MacIntel,63.69426752,,,,,,,,,,,,,,,,,,,,,171.763,171.9611,171.9612,172.4612,,,,,,,,,,,,,,0.9981,1,,,,,,,,,,,,,,z,,,,,,,,,,,,,,,20,0,172.4617,173.4611,z,1,0.9981,,[],[],[],[],[],[],[],173.4612,175.4613,175.4614,175.4616,[],[],[],[],[],[],[],,175.4616,175.4617,0.011880271,-0.400112214,0,0,0,,0,19,19,46,1,4,RL,skofen,cursive,skofen_c.png,,,,,,
,,,,32207,001,2025-10-16_01h41.47.115,HW_LDT_1,2024.2.4,MacIntel,63.69426752,,,,,,,,,,,,,,,,,,,,,175.4629,175.6607,175.6607,176.1613,,,,,,,,,,,,,,0.9154,1,,,,,,,,,,,,,,m,,,,,,,,,,,,,,,21,0,176.1618,177.078,m,1,0.9154,,[],[],[],[],[],[],[],177.0781,179.0779,179.0779,179.0781,[],[],[],[],[],[],[],,179.0782,179.0782,0.011880271,-0.400112214,0,0,0,,0,20,20,118,1,4,word,MEDICINE,cursive,medicine_c.png,,,,,,
,,,,32207,001,2025-10-16_01h41.47.115,HW_LDT_1,2024.2.4,MacIntel,63.69426752,,,,,,,,,,,,,,,,,,,,,179.0794,179.2779,179.2779,179.7779,,,,,,,,,,,,,,0.7714,1,,,,,,,,,,,,,,m,,,,,,,,,,,,,,,22,0,179.7785,180.5613,m,1,0.7714,,[],[],[],[],[],[],[],180.5614,182.5613,182.5613,182.5615,[],[],[],[],[],[],[],,182.5616,182.5618,0.011880271,-0.400112214,0,0,0,,0,21,21,157,1,4,word,VALIDITY,print,validity_p.png,,,,,,
,,,,32207,001,2025-10-16_01h41.47.115,HW_LDT_1,2024.2.4,MacIntel,63.69426752,,,,,,,,,,,,,,,,,,,,,182.5629,182.7612,182.7613,183.2613,,,,,,,,,,,,,,0.6549,1,,,,,,,,,,,,,,m,,,,,,,,,,,,,,,23,0,183.2617,183.9281,m,1,0.6549,,[],[],[],[],[],[],[],183.9282,185.9279,185.9279,185.9281,[],[],[],[],[],[],[],,185.9282,185.9283,0.011880271,-0.400112214,0,0,0,,0,22,22,81,1,4,word,ADVISORY,cursive,advisory_c.png,,,,,,
,,,,32207,001,2025-10-16_01h41.47.115,HW_LDT_1,2024.2.4,MacIntel,63.69426752,,,,,,,,,,,,,,,,,,,,,185.9294,186.1269,186.127,186.627,,,,,,,,,,,,,,0.8577,1,,,,,,,,,,,,,,z,,,,,,,,,,,,,,,24,1,186.6275,187.4946,z,1,0.8577,,[],[],[],[],[],[],[],187.4948,189.4946,189.4946,191.2114,[],[],[],[],[],[],[],z,191.2114,191.2116,0.011880271,-0.400112214,0,0,0,,0,23,23,67,1,4,TL,polupar,print,polupar_p.png,1.7056,,,,,
,,,,32207,001,2025-10-16_01h41.47.115,HW_LDT_1,2024.2.4,MacIntel,63.69426752,,,,,,,,,,,,,,,,,,,,,191.2128,191.4114,191.4115,191.9113,,,,,,,,,,,,,,1.5716,1,,,,,,,,,,,,,,z,,,,,,,,,,,,,,,25,0,191.9117,193.4947,z,1,1.5716,,[],[],[],[],[],[],[],193.4948,195.4946,195.4946,195.4948,[],[],[],[],[],[],[],,195.4948,195.4949,0.011880271,-0.400112214,0,0,0,,0,24,24,17,1,4,RL,denficy,cursive,denficy_c.png,,,,,,
,,,,32207,001,2025-10-16_01h41.47.115,HW_LDT_1,2024.2.4,MacIntel,63.69426752,,,,,,,,,,,,,,,,,,,,,195.4962,195.6946,195.6946,196.1946,,,,,,,,,,,,,,0.955,1,,,,,,,,,,,,,,z,,,,,,,,,,,,,,,26,0,196.1951,197.1614,z,1,0.955,,[],[],[],[],[],[],[],197.1615,199.1612,199.1614,199.1615,[],[],[],[],[],[],[],,199.1616,199.1616,0.011880271,-0.400112214,0,0,0,,0,25,25,65,1,4,TL,orepator,print,orepator_p.png,,,,,,
,,,,32207,001,2025-10-16_01h41.47.115,HW_LDT_1,2024.2.4,MacIntel,63.69426752,,,,,,,,,,,,,,,,,,,,,199.1628,199.3604,199.3604,199.8613,,,,,,,,,,,,,,1.038,1,,,,,,,,,,,,,,z,,,,,,,,,,,,,,,27,0,199.8617,200.9114,z,1,1.038,,[],[],[],[],[],[],[],200.9115,202.9112,202.9114,202.9116,[],[],[],[],[],[],[],,202.9116,202.9117,0.011880271,-0.400112214,0,0,0,,0,26,26,4,1,4,RL,betemit,cursive,betemit_c.png,,,,,,
,,,,32207,001,2025-10-16_01h41.47.115,HW_LDT_1,2024.2.4,MacIntel,63.69426752,,,,,,,,,,,,,,,,,,,,,202.9128,203.1104,203.1105,203.6113,,,,,,,,,,,,,,0.7871,1,,,,,,,,,,,,,,m,,,,,,,,,,,,,,,28,0,203.6118,204.4113,m,1,0.7871,,[],[],[],[],[],[],[],204.4114,206.4113,206.4113,206.4115,[],[],[],[],[],[],[],,206.4116,206.4117,0.011880271,-0.400112214,0,0,0,,0,27,27,96,1,4,word,CONSIDER,cursive,consider_c.png,,,,,,
,,,,32207,001,2025-10-16_01h41.47.115,HW_LDT_1,2024.2.4,MacIntel,63.69426752,,,,,,,,,,,,,,,,,,,,,206.4128,206.6114,206.6114,207.1113,,,,,,,,,,,,,,0.9046,1,,,,,,,,,,,,,,m,,,,,,,,,,,,,,,29,1,207.1119,208.0271,m,1,0.9046,,[],[],[],[],[],[],[],208.0273,210.0279,210.028,211.2947,[],[],[],[],[],[],[],z,211.2948,211.2949,0.011880271,-0.400112214,0,0,0,,0,28,28,137,1,4,word,RAPIDLY,cursive,rapidly_c.png,1.255,,,,,
,,,,32207,001,2025-10-16_01h41.47.115,HW_LDT_1,2024.2.4,MacIntel,63.69426752,,,,,,,,,,,,,,,,,,,,,211.296,211.4946,211.4947,211.9946,,,,,,,,,,,,,,1.3147,0,,,,,,,,,,,,,,z,,,,,,,,,,,,,,,30,0,211.9951,213.3112,m,0,1.3147,,[],[],[],[],[],[],[],213.3113,215.3104,215.3105,215.3107,[],[],[],[],[],[],[],,215.3107,215.3108,0.011880271,-0.400112214,0,0,0,,0,29,29,10,1,4,RL,carminal,cursive,carminal_c.png,,,,,,
,,,,32207,001,2025-10-16_01h41.47.115,HW_LDT_1,2024.2.4,MacIntel,63.69426752,,,,,,,,,,,,,,,,,,,,,215.312,215.5113,215.5113,216.0113,,,,,,,,,,,,,,0.9134,1,,,,,,,,,,,,,,m,,,,,,,,,,,,,,,31,0,216.0117,216.9279,m,1,0.9134,,[],[],[],[],[],[],[],216.928,218.9279,218.928,218.9281,[],[],[],[],[],[],[],,218.9282,218.9283,0.011880271,-0.400112214,0,0,0,,0,30,30,104,1,4,word,DOMINANT,cursive,dominant_c.png,,,,,,
,,,,32207,001,2025-10-16_01h41.47.115,HW_LDT_1,2024.2.4,MacIntel,63.69426752,,,,,,,,,,,,,,,,,,,,,218.9296,219.128,219.1281,219.6271,,,,,,,,,,,,,,2.616,1,,,,,,,,,,,,,,z,,,,,,,,,,,,,,,32,0,219.6276,222.2447,z,1,2.616,,[],[],[],[],[],[],[],222.2448,224.2447,224.2447,224.2449,[],[],[],[],[],[],[],,224.245,224.2451,0.011880271,-0.400112214,0,0,0,,0,31,31,77,1,4,TL,spemicen,cursive,spemicen_c.png,,,,,,
,,,,32207,001,2025-10-16_01h41.47.115,HW_LDT_1,2024.2.4,MacIntel,63.69426752,,,,,,,,,,,,,,,,,,,,,224.2461,224.4446,224.4446,224.9447,,,,,,,,,,,,,,0.698,1,,,,,,,,,,,,,,m,,,,,,,,,,,,,,,33,1,224.9452,225.6446,m,1,0.698,,[],[],[],[],[],[],[],225.6447,227.6446,227.6447,231.5281,[],[],[],[],[],[],[],z,231.5282,231.5283,0.011880271,-0.400112214,0,0,0,,0,32,32,156,1,4,word,TRIBUTE,print,tribute_p.png,3.8715,,,,,
,,,,32207,001,2025-10-16_01h41.47.115,HW_LDT_1,2024.2.4,MacIntel,63.69426752,,,,,,,,,,,,,,,,,,,,,231.5294,231.728,231.7281,232.228,,,,,,,,,,,,,,1.1783,1,,,,,,,,,,,,,,z,,,,,,,,,,,,,,,34,0,232.2285,233.4109,z,1,1.1783,,[],[],[],[],[],[],[],233.4109,235.4114,235.4114,235.4116,[],[],[],[],[],[],[],,235.4117,235.4118,0.011880271,-0.400112214,0,0,0,,0,33,33,38,1,4,RL,refakive,print,refakive_p.png,,,,,,
,,,,32207,001,2025-10-16_01h41.47.115,HW_LDT_1,2024.2.4,MacIntel,63.69426752,,,,,,,,,,,,,,,,,,,,,235.4129,235.6114,235.6115,236.1111,,,,,,,,,,,,,,0.7494,1,,,,,,,,,,,,,,m,,,,,,,,,,,,,,,35,0,236.1116,236.8618,m,1,0.7494,,[],[],[],[],[],[],[],236.8619,238.8614,238.8614,238.8616,[],[],[],[],[],[],[],,238.8616,238.8617,0.011880271,-0.400112214,0,0,0,,0,34,34,109,1,4,word,GRATEFUL,print,grateful_p.png,,,,,,
,,,,32207,001,2025-10-16_01h41.47.115,HW_LDT_1,2024.2.4,MacIntel,63.69426752,,,,,,,,,,,,,,,,,,,,,238.8629,239.0613,239.0614,239.5613,,,,,,,,,,,,,,1.1148,1,,,,,,,,,,,,,,z,,,,,,,,,,,,,,,36,1,239.5619,240.678,z,1,1.1148,,[],[],[],[],[],[],[],240.678,242.6772,242.6773,245.2281,[],[],[],[],[],[],[],z,245.2281,245.2284,0.011880271,-0.400112214,0,0,0,,0,35,35,35,1,4,RL,probice,cursive,probice_c.png,2.5397,,,,,
,,,,32207,001,2025-10-16_01h41.47.115,HW_LDT_1,2024.2.4,MacIntel,63.69426752,,,,,,,,,,,,,,,,,,,,,245.2295,245.428,245.4281,245.928,,,,,,,,,,,,,,0.705,1,,,,,,,,,,,,,,m,,,,,,,,,,,,,,,37,0,245.9285,246.6448,m,1,0.705,,[],[],[],[],[],[],[],246.6449,248.6447,248.6448,248.6449,[],[],[],[],[],[],[],,248.645,248.6451,0.011880271,-0.400112214,0,0,0,,0,36,36,95,1,4,word,COMEDY,print,comedy_p.png,,,,,,
,,,,32207,001,2025-10-16_01h41.47.115,HW_LDT_1,2024.2.4,MacIntel,63.69426752,,,,,,,,,,,,,,,,,,,,,248.6462,248.8447,248.8447,249.3447,,,,,,,,,,,,,,1.9147,0,,,,,,,,,,,,,,z,,,,,,,,,,,,,,,38,0,249.3452,251.2609,m,0,1.9147,,[],[],[],[],[],[],[],251.261,253.2614,253.2614,253.2616,[],[],[],[],[],[],[],,253.2616,253.2618,0.011880271,-0.400112214,0,0,0,,0,37,37,2,1,4,RL,asiral,cursive,asiral_c.png,,,,,,
,,,,32207,001,2025-10-16_01h41.47.115,HW_LDT_1,2024.2.4,MacIntel,63.69426752,,,,,,,,,,,,,,,,,,,,,253.2628,253.4614,253.4615,253.9614,,,,,,,,,,,,,,1.0549,1,,,,,,,,,,,,,,z,,,,,,,,,,,,,,,39,0,253.962,255.0281,z,1,1.0549,,[],[],[],[],[],[],[],255.0282,257.0281,257.0282,257.0283,[],[],[],[],[],[],[],,257.0284,257.0285,0.011880271,-0.400112214,0,0,0,,0,38,38,75,1,4,TL,sanile,print,sanile_p.png,,,,,,
,,,,32207,001,2025-10-16_01h41.47.115,HW_LDT_1,2024.2.4,MacIntel,63.69426752,,,,,,,,,,,,,,,,,,,,,257.0296,257.2272,257.2272,257.7282,,,,,,,,,,,,,,1.0201,1,,,,,,,,,,,,,,z,,,,,,,,,,,,,,,40,0,257.7287,258.7606,z,1,1.0201,,[],[],[],[],[],[],[],258.7606,260.7606,260.7606,260.7608,[],[],[],[],[],[],[],,260.7608,260.7609,0.011880271,-0.400112214,0,0,0,,0,39,39,0,1,4,RL,abanemy,print,abanemy_p.png,,,,,,
,,,,32207,001,2025-10-16_01h41.47.115,HW_LDT_1,2024.2.4,MacIntel,63.69426752,,,,,,,,,,,,,,,,,,,,,260.7621,260.9614,260.9614,261.4614,,,,,,,,,,,,,,0.7565,1,,,,,,,,,,,,,,z,,,,,,,,,,,,,,,41,0,261.4619,262.2278,z,1,0.7565,,[],[],[],[],[],[],[],262.2279,264.2281,264.2282,264.2283,[],[],[],[],[],[],[],,264.2284,264.2285,0.011880271,-0.400112214,0,0,0,,0,40,40,1,1,4,RL,afaneur,cursive,afaneur_c.png,,,,,,
,,,,32207,001,2025-10-16_01h41.47.115,HW_LDT_1,2024.2.4,MacIntel,63.69426752,,,,,,,,,,,,,,,,,,,,,264.2296,264.4281,264.4282,264.9282,,,,,,,,,,,,,,1.2248,0,,,,,,,,,,,,,,m,,,,,,,,,,,,,,,42,0,264.9286,266.1613,z,0,1.2248,,[],[],[],[],[],[],[],266.1613,268.1614,268.1615,268.1617,[],[],[],[],[],[],[],,268.1618,268.1618,0.011880271,-0.400112214,0,0,0,,0,41,41,114,1,4,word,LOCATE,cursive,locate_c.png,,,,,,
,,,,32207,001,2025-10-16_01h41.47.115,HW_LDT_1,2024.2.4,MacIntel,63.69426752,,,,,,,,,,,,,,,,,,,,,268.1629,268.3614,268.3615,268.8614,,,,,,,,,,,,,,1.1373,1,,,,,,,,,,,,,,z,,,,,,,,,,,,,,,43,0,268.8619,270.0115,z,1,1.1373,,[],[],[],[],[],[],[],270.0117,272.0114,272.0115,272.0116,[],[],[],[],[],[],[],,272.0117,272.0117,0.011880271,-0.400112214,0,0,0,,0,42,42,76,1,4,TL,setanor,print,setanor_p.png,,,,,,
,,,,32207,001,2025-10-16_01h41.47.115,HW_LDT_1,2024.2.4,MacIntel,63.69426752,,,,,,,,,,,,,,,,,,,,,272.0129,272.2114,272.2115,272.7114,,,,,,,,,,,,,,1.4643,0,,,,,,,,,,,,,,z,,,,,,,,,,,,,,,44,0,272.712,274.178,m,0,1.4643,,[],[],[],[],[],[],[],274.178,276.1781,276.1781,276.1783,[],[],[],[],[],[],[],,276.1783,276.1784,0.011880271,-0.400112214,0,0,0,,0,43,43,56,1,4,TL,donimant,cursive,donimant_c.png,,,,,,
,,,,32207,001,2025-10-16_01h41.47.115,HW_LDT_1,2024.2.4,MacIntel,63.69426752,,,,,,,,,,,,,,,,,,,,,276.1796,276.3781,276.3782,276.8781,,,,,,,,,,,,,,1.1714,1,,,,,,,,,,,,,,z,,,,,,,,,,,,,,,45,0,276.8787,278.0616,z,1,1.1714,,[],[],[],[],[],[],[],278.0617,280.0615,280.0615,280.0617,[],[],[],[],[],[],[],,280.0618,280.0618,0.011880271,-0.400112214,0,0,0,,0,44,44,24,1,4,RL,marmipal,cursive,marmipal_c.png,,,,,,
,,,,32207,001,2025-10-16_01h41.47.115,HW_LDT_1,2024.2.4,MacIntel,63.69426752,,,,,,,,,,,,,,,,,,,,,280.0632,280.2613,280.2614,280.7614,,,,,,,,,,,,,,1.0539,1,,,,,,,,,,,,,,z,,,,,,,,,,,,,,,46,0,280.762,281.8282,z,1,1.0539,,[],[],[],[],[],[],[],281.8283,283.8281,283.8282,283.8284,[],[],[],[],[],[],[],,283.8284,283.8284,0.011880271,-0.400112214,0,0,0,,0,45,45,50,1,4,RL,vecelan,cursive,vecelan_c.png,,,,,,
,,,,32207,001,2025-10-16_01h41.47.115,HW_LDT_1,2024.2.4,MacIntel,63.69426752,,,,,,,,,,,,,,,,,,,,,283.8296,284.0282,284.0282,284.528,,,,,,,,,,,,,,0.804,1,,,,,,,,,,,,,,z,,,,,,,,,,,,,,,47,0,284.5285,285.345,z,1,0.804,,[],[],[],[],[],[],[],285.345,287.3438,287.3439,287.344,[],[],[],[],[],[],[],,287.3441,287.3441,0.011880271,-0.400112214,0,0,0,,0,46,46,28,1,4,RL,mifikary,print,mifikary_p.png,,,,,,
,,,,32207,001,2025-10-16_01h41.47.115,HW_LDT_1,2024.2.4,MacIntel,63.69426752,,,,,,,,,,,,,,,,,,,,,287.345,287.5448,287.5448,288.0447,,,,,,,,,,,,,,0.6883,1,,,,,,,,,,,,,,m,,,,,,,,,,,,,,,48,0,288.0453,288.7449,m,1,0.6883,,[],[],[],[],[],[],[],288.745,290.7448,290.7449,290.7451,[],[],[],[],[],[],[],,290.7451,290.7452,0.011880271,-0.400112214,0,0,0,,0,47,47,143,1,4,word,REMOVAL,print,removal_p.png,,,,,,
,,,,32207,001,2025-10-16_01h41.47.115,HW_LDT_1,2024.2.4,MacIntel,63.69426752,,,,,,,,,,,,,,,,,,,,,290.7463,290.9448,290.9449,291.4449,,,,,,,,,,,,,,1.8876,1,,,,,,,,,,,,,,z,,,,,,,,,,,,,,,49,0,291.4454,293.3448,z,1,1.8876,,[],[],[],[],[],[],[],293.345,295.3448,295.3449,295.345,[],[],[],[],[],[],[],,295.345,295.3451,0.011880271,-0.400112214,0,0,0,,0,48,48,72,1,4,TL,relugar,cursive,relugar_c.png,,,,,,
,,,,32207,001,2025-10-16_01h41.47.115,HW_LDT_1,2024.2.4,MacIntel,63.69426752,,,,,,,,,,,,,,,,,,,,,295.3462,295.5439,295.544,296.0449,,,,,,,,,,,,,,2.1977,0,,,,,,,,,,,,,,m,,,,,,,,,,,,,,,50,1,296.0454,298.2448,z,0,2.1977,,[],[],[],[],[],[],[],298.2448,300.2449,300.245,301.7773,[],[],[],[],[],[],[],z,301.7774,301.7775,0.011880271,-0.400112214,0,0,0,,0,49,49,142,1,4,word,REMOTE,cursive,remote_c.png,1.5226,,,,,
,,,,32207,001,2025-10-16_01h41.47.115,HW_LDT_1,2024.2.4,MacIntel,63.69426752,,,,,,,,,,,,,,,,,,,,,301.7786,301.9774,301.9774,302.4781,,,,,,,,,,,,,,1.0872,1,,,,,,,,,,,,,,m,,,,,,,,,,,,,,,51,0,302.4787,303.5783,m,1,1.0872,,[],[],[],[],[],[],[],303.5784,305.5782,305.5782,305.5784,[],[],[],[],[],[],[],,305.5784,305.5785,0.011880271,-0.400112214,0,0,0,,0,50,50,119,1,4,word,MEMORY,print,memory_p.png,,,,,,
,,,,32207,001,2025-10-16_01h41.47.115,HW_LDT_1,2024.2.4,MacIntel,63.69426752,,,,,,,,,,,,,,,,,,,,,305.5798,305.7776,305.7776,306.2781,,,,,,,,,,,,,,0.6737,1,,,,,,,,,,,,,,m,,,,,,,,,,,,,,,52,0,306.2787,306.9615,m,1,0.6737,,[],[],[],[],[],[],[],306.9615,308.9616,308.9617,308.9619,[],[],[],[],[],[],[],,308.9619,308.9619,0.011880271,-0.400112214,0,0,0,,0,51,51,155,1,4,word,STRATEGY,print,strategy_p.png,,,,,,
,,,,32207,001,2025-10-16_01h41.47.115,HW_LDT_1,2024.2.4,MacIntel,63.69426752,,,,,,,,,,,,,,,,,,,,,308.9631,309.1611,309.1611,309.6616,,,,,,,,,,,,,,1.5206,1,,,,,,,,,,,,,,z,,,,,,,,,,,,,,,53,0,309.6622,311.195,z,1,1.5206,,[],[],[],[],[],[],[],311.195,313.1949,313.1949,313.1951,[],[],[],[],[],[],[],,313.1951,313.1952,0.011880271,-0.400112214,0,0,0,,0,52,52,16,1,4,RL,desifate,cursive,desifate_c.png,,,,,,
,,,,32207,001,2025-10-16_01h41.47.115,HW_LDT_1,2024.2.4,MacIntel,63.69426752,,,,,,,,,,,,,,,,,,,,,313.1963,313.3938,313.3938,313.8949,,,,,,,,,,,,,,0.6213,1,,,,,,,,,,,,,,m,,,,,,,,,,,,,,,54,0,313.8954,314.5281,m,1,0.6213,,[],[],[],[],[],[],[],314.5282,316.5281,316.5281,316.5282,[],[],[],[],[],[],[],,316.5283,316.5284,0.011880271,-0.400112214,0,0,0,,0,53,53,141,1,4,word,RELIGION,print,religion_p.png,,,,,,
,,,,32207,001,2025-10-16_01h41.47.115,HW_LDT_1,2024.2.4,MacIntel,63.69426752,,,,,,,,,,,,,,,,,,,,,316.5295,316.7282,316.7283,317.2281,,,,,,,,,,,,,,0.7407,1,,,,,,,,,,,,,,m,,,,,,,,,,,,,,,55,0,317.2287,317.9783,m,1,0.7407,,[],[],[],[],[],[],[],317.9784,319.9779,319.978,319.9781,[],[],[],[],[],[],[],,319.9781,319.9782,0.011880271,-0.400112214,0,0,0,,0,54,54,146,1,4,word,RETIRE,print,retire_p.png,,,,,,
,,,,32207,001,2025-10-16_01h41.47.115,HW_LDT_1,2024.2.4,MacIntel,63.69426752,,,,,,,,,,,,,,,,,,,,,319.9793,320.1782,320.1782,320.6783,,,,,,,,,,,,,,0.6045,1,,,,,,,,,,,,,,m,,,,,,,,,,,,,,,56,0,320.6788,321.295,m,1,0.6045,,[],[],[],[],[],[],[],321.2951,323.2948,323.2949,323.2951,[],[],[],[],[],[],[],,323.2951,323.2952,0.011880271,-0.400112214,0,0,0,,0,55,55,115,1,4,word,LOGICAL,print,logical_p.png,,,,,,
,,,,32207,001,2025-10-16_01h41.47.115,HW_LDT_1,2024.2.4,MacIntel,63.69426752,,,,,,,,,,,,,,,,,,,,,323.2963,323.4948,323.495,323.9949,,,,,,,,,,,,,,0.8383,1,,,,,,,,,,,,,,z,,,,,,,,,,,,,,,57,1,323.9954,324.8449,z,1,0.8383,,[],[],[],[],[],[],[],324.8449,326.8449,326.845,328.1783,[],[],[],[],[],[],[],z,328.1784,328.1785,0.011880271,-0.400112214,0,0,0,,0,56,56,20,1,4,RL,gralekul,print,gralekul_p.png,1.3224,,,,,
,,,,32207,001,2025-10-16_01h41.47.115,HW_LDT_1,2024.2.4,MacIntel,63.69426752,,,,,,,,,,,,,,,,,,,,,328.1797,328.3782,328.3782,328.8773,,,,,,,,,,,,,,0.6723,1,,,,,,,,,,,,,,m,,,,,,,,,,,,,,,58,0,328.8777,329.5616,m,1,0.6723,,[],[],[],[],[],[],[],329.5617,331.561,331.5611,331.5612,[],[],[],[],[],[],[],,331.5612,331.5614,0.011880271,-0.400112214,0,0,0,,0,57,57,154,1,4,word,STORAGE,print,storage_p.png,,,,,,
,,,,32207,001,2025-10-16_01h41.47.115,HW_LDT_1,2024.2.4,MacIntel,63.69426752,,,,,,,,,,,,,,,,,,,,,331.5624,331.7616,331.7616,332.261,,,,,,,,,,,,,,0.8558,0,,,,,,,,,,,,,,m,,,,,,,,,,,,,,,59,0,332.2615,333.1284,z,0,0.8558,,[],[],[],[],[],[],[],333.1285,335.1283,335.1283,335.1285,[],[],[],[],[],[],[],,335.1285,335.1286,0.011880271,-0.400112214,0,0,0,,0,58,58,108,1,4,word,FORTUNE,cursive,fortune_c.png,,,,,,
,,,,32207,001,2025-10-16_01h41.47.115,HW_LDT_1,2024.2.4,MacIntel,63.69426752,,,,,,,,,,,,,,,,,,,,,335.1297,335.3282,335.3282,335.8282,,,,,,,,,,,,,,0.8547,1,,,,,,,,,,,,,,m,,,,,,,,,,,,,,,60,0,335.8287,336.695,m,1,0.8547,,[],[],[],[],[],[],[],336.6951,338.695,338.695,338.6952,[],[],[],[],[],[],[],,338.6952,338.6953,0.011880271,-0.400112214,0,0,0,,0,59,59,152,1,4,word,SPECIMEN,cursive,specimen_c.png,,,,,,
,,,,32207,001,2025-10-16_01h41.47.115,HW_LDT_1,2024.2.4,MacIntel,63.69426752,,,,,,,,,,,,,,,,,,,,,338.6965,338.8949,338.895,339.395,,,,,,,,,,,,,,1.2826,1,,,,,,,,,,,,,,z,,,,,,,,,,,,,,,61,0,339.3954,340.6786,z,1,1.2826,,[],[],[],[],[],[],[],340.6787,342.6782,342.6782,342.6784,[],[],[],[],[],[],[],,342.6784,342.6785,0.011880271,-0.400112214,0,0,0,,0,60,60,27,1,4,RL,menowy,print,menowy_p.png,,,,,,
,,,,32207,001,2025-10-16_01h41.47.115,HW_LDT_1,2024.2.4,MacIntel,63.69426752,,,,,,,,,,,,,,,,,,,,,342.6797,342.8783,342.8783,343.3783,,,,,,,,,,,,,,0.7546,0,,,,,,,,,,,,,,m,,,,,,,,,,,,,,,62,1,343.3787,344.145,z,0,0.7546,,[],[],[],[],[],[],[],344.1451,346.1449,346.1449,347.5283,[],[],[],[],[],[],[],z,347.5284,347.5286,0.011880271,-0.400112214,0,0,0,,0,61,61,128,1,4,word,PACIFIC,cursive,pacific_c.png,1.3721,,,,,
,,,,32207,001,2025-10-16_01h41.47.115,HW_LDT_1,2024.2.4,MacIntel,63.69426752,,,,,,,,,,,,,,,,,,,,,347.5297,347.7282,347.7283,348.2283,,,,,,,,,,,,,,1.7658,1,,,,,,,,,,,,,,z,,,,,,,,,,,,,,,63,0,348.2287,349.9953,z,1,1.7658,,[],[],[],[],[],[],[],349.9954,351.995,351.9951,351.9952,[],[],[],[],[],[],[],,351.9952,351.9953,0.011880271,-0.400112214,0,0,0,,0,62,62,36,1,4,RL,rabigly,cursive,rabigly_c.png,,,,,,
,,,,32207,001,2025-10-16_01h41.47.115,HW_LDT_1,2024.2.4,MacIntel,63.69426752,,,,,,,,,,,,,,,,,,,,,351.9965,352.1949,352.195,352.6949,,,,,,,,,,,,,,0.9074,1,,,,,,,,,,,,,,z,,,,,,,,,,,,,,,64,0,352.6954,353.6117,z,1,0.9074,,[],[],[],[],[],[],[],353.6118,355.6117,355.6117,355.6119,[],[],[],[],[],[],[],,355.6119,355.612,0.011880271,-0.400112214,0,0,0,,0,63,63,31,1,4,RL,orimipal,print,orimipal_p.png,,,,,,
,,,,32207,001,2025-10-16_01h41.47.115,HW_LDT_1,2024.2.4,MacIntel,63.69426752,,,,,,,,,,,,,,,,,,,,,355.613,355.8116,355.8116,356.3117,,,,,,,,,,,,,,0.6813,1,,,,,,,,,,,,,,m,,,,,,,,,,,,,,,65,1,356.3122,356.9948,m,1,0.6813,,[],[],[],[],[],[],[],356.9949,358.9949,358.995,360.0116,[],[],[],[],[],[],[],m,360.0117,360.0118,0.011880271,-0.400112214,0,0,0,,0,64,64,123,1,4,word,MODERATE,print,moderate_p.png,1.0054,,,,,
,,,,32207,001,2025-10-16_01h41.47.115,HW_LDT_1,2024.2.4,MacIntel,63.69426752,,,,,,,,,,,,,,,,,,,,,360.0128,360.2116,360.2117,360.7117,,,,,,,,,,,,,,1.8214,0,,,,,,,,,,,,,,z,,,,,,,,,,,,,,,66,0,360.7122,362.545,m,0,1.8214,,[],[],[],[],[],[],[],362.5451,364.545,364.545,364.5452,[],[],[],[],[],[],[],,364.5453,364.5454,0.011880271,-0.400112214,0,0,0,,0,65,65,6,1,4,RL,caleberia,cursive,caleberia_c.png,,,,,,
,,,,32207,001,2025-10-16_01h41.47.115,HW_LDT_1,2024.2.4,MacIntel,63.69426752,,,,,,,,,,,,,,,,,,,,,364.5465,364.745,364.7451,365.245,,,,,,,,,,,,,,0.8489,1,,,,,,,,,,,,,,m,,,,,,,,,,,,,,,67,0,365.2455,366.0951,m,1,0.8489,,[],[],[],[],[],[],[],366.0951,368.0948,368.0949,368.0951,[],[],[],[],[],[],[],,368.0951,368.0952,0.011880271,-0.400112214,0,0,0,,0,66,66,83,1,4,word,ANIMAL,cursive,animal_c.png,,,,,,
,,,,32207,001,2025-10-16_01h41.47.115,HW_LDT_1,2024.2.4,MacIntel,63.69426752,,,,,,,,,,,,,,,,,,,,,368.0963,368.295,368.295,368.795,,,,,,,,,,,,,,1.6157,0,,,,,,,,,,,,,,m,,,,,,,,,,,,,,,68,0,368.7956,370.4119,z,0,1.6157,,[],[],[],[],[],[],[],370.412,372.4116,372.4117,372.4118,[],[],[],[],[],[],[],,372.4119,372.412,0.011880271,-0.400112214,0,0,0,,0,67,67,106,1,4,word,ELABORATE,cursive,elaborate_c.png,,,,,,
,,,,32207,001,2025-10-16_01h41.47.115,HW_LDT_1,2024.2.4,MacIntel,63.69426752,,,,,,,,,,,,,,,,,,,,,372.4131,372.6116,372.6116,373.1116,,,,,,,,,,,,,,1.5308,0,,,,,,,,,,,,,,z,,,,,,,,,,,,,,,69,0,373.1121,374.6444,m,0,1.5308,,[],[],[],[],[],[],[],374.6444,376.645,376.645,376.6452,[],[],[],[],[],[],[],,376.6452,376.6452,0.011880271,-0.400112214,0,0,0,,0,68,68,37,1,4,RL,renutal,cursive,renutal_c.png,,,,,,
,,,,32207,001,2025-10-16_01h41.47.115,HW_LDT_1,2024.2.4,MacIntel,63.69426752,,,,,,,,,,,,,,,,,,,,,376.6464,376.8449,376.845,377.345,,,,,,,,,,,,,,1.8882,1,,,,,,,,,,,,,,z,,,,,,,,,,,,,,,70,0,377.3456,379.2452,z,1,1.8882,,[],[],[],[],[],[],[],379.2452,381.245,381.245,381.2452,[],[],[],[],[],[],[],,381.2453,381.2453,0.011880271,-0.400112214,0,0,0,,0,69,69,71,1,4,TL,racidal,print,racidal_p.png,,,,,,
,,,,32207,001,2025-10-16_01h41.47.115,HW_LDT_1,2024.2.4,MacIntel,63.69426752,,,,,,,,,,,,,,,,,,,,,381.2464,381.445,381.4452,381.9447,,,,,,,,,,,,,,0.7326,1,,,,,,,,,,,,,,m,,,,,,,,,,,,,,,71,0,381.9452,382.6785,m,1,0.7326,,[],[],[],[],[],[],[],382.6785,384.6773,384.6774,384.6776,[],[],[],[],[],[],[],,384.6776,384.6776,0.011880271,-0.400112214,0,0,0,,0,70,70,131,1,4,word,POPULAR,print,popular_p.png,,,,,,
,,,,32207,001,2025-10-16_01h41.47.115,HW_LDT_1,2024.2.4,MacIntel,63.69426752,,,,,,,,,,,,,,,,,,,,,384.6788,384.8784,384.8784,385.3784,,,,,,,,,,,,,,0.9548,1,,,,,,,,,,,,,,z,,,,,,,,,,,,,,,72,0,385.3788,386.3451,z,1,0.9548,,[],[],[],[],[],[],[],386.3452,388.3449,388.345,388.3451,[],[],[],[],[],[],[],,388.3452,388.3452,0.011880271,-0.400112214,0,0,0,,0,71,71,21,1,4,RL,insibate,print,insibate_p.png,,,,,,
,,,,32207,001,2025-10-16_01h41.47.115,HW_LDT_1,2024.2.4,MacIntel,63.69426752,,,,,,,,,,,,,,,,,,,,,388.3465,388.545,388.545,389.0451,,,,,,,,,,,,,,1.9715,1,,,,,,,,,,,,,,z,,,,,,,,,,,,,,,73,0,389.0456,391.0284,z,1,1.9715,,[],[],[],[],[],[],[],391.0285,393.0283,393.0284,393.0286,[],[],[],[],[],[],[],,393.0286,393.0287,0.011880271,-0.400112214,0,0,0,,0,72,72,78,1,4,TL,stragety,print,stragety_p.png,,,,,,
,,,,32207,001,2025-10-16_01h41.47.115,HW_LDT_1,2024.2.4,MacIntel,63.69426752,,,,,,,,,,,,,,,,,,,,,393.0298,393.2275,393.2275,393.7284,,,,,,,,,,,,,,1.2383,1,,,,,,,,,,,,,,m,,,,,,,,,,,,,,,74,0,393.7289,394.9785,m,1,1.2383,,[],[],[],[],[],[],[],394.9786,396.9784,396.9784,396.9786,[],[],[],[],[],[],[],,396.9787,396.9788,0.011880271,-0.400112214,0,0,0,,0,73,73,102,1,4,word,DENSITY,cursive,density_c.png,,,,,,
,,,,32207,001,2025-10-16_01h41.47.115,HW_LDT_1,2024.2.4,MacIntel,63.69426752,,,,,,,,,,,,,,,,,,,,,396.9799,397.178,397.1781,397.6784,,,,,,,,,,,,,,0.8205,1,,,,,,,,,,,,,,m,,,,,,,,,,,,,,,75,1,397.6789,398.5118,m,1,0.8205,,[],[],[],[],[],[],[],398.5118,400.5117,400.5117,401.2621,[],[],[],[],[],[],[],m,401.2623,401.2624,0.011880271,-0.400112214,0,0,0,,0,74,74,80,1,4,word,ACADEMY,print,academy_p.png,0.75,,,,,
,,,,32207,001,2025-10-16_01h41.47.115,HW_LDT_1,2024.2.4,MacIntel,63.69426752,,,,,,,,,,,,,,,,,,,,,401.2634,401.4608,401.4608,401.9617,,,,,,,,,,,,,,0.979,1,,,,,,,,,,,,,,z,,,,,,,,,,,,,,,76,0,401.9623,402.944,z,1,0.979,,[],[],[],[],[],[],[],402.944,404.945,404.945,404.9452,[],[],[],[],[],[],[],,404.9453,404.9453,0.011880271,-0.400112214,0,0,0,,0,75,75,69,1,4,TL,quafily,print,quafily_p.png,,,,,,
,,,,32207,001,2025-10-16_01h41.47.115,HW_LDT_1,2024.2.4,MacIntel,63.69426752,,,,,,,,,,,,,,,,,,,,,404.9465,405.145,405.145,405.6441,,,,,,,,,,,,,,0.8747,1,,,,,,,,,,,,,,z,,,,,,,,,,,,,,,77,0,405.6446,406.5283,z,1,0.8747,,[],[],[],[],[],[],[],406.5284,408.5284,408.5285,408.5286,[],[],[],[],[],[],[],,408.5287,408.5287,0.011880271,-0.400112214,0,0,0,,0,76,76,33,1,4,RL,pamest,cursive,pamest_c.png,,,,,,
,,,,32207,001,2025-10-16_01h41.47.115,HW_LDT_1,2024.2.4,MacIntel,63.69426752,,,,,,,,,,,,,,,,,,,,,408.5299,408.7284,408.7284,409.2283,,,,,,,,,,,,,,0.8716,1,,,,,,,,,,,,,,m,,,,,,,,,,,,,,,78,1,409.2289,410.1108,m,1,0.8716,,[],[],[],[],[],[],[],410.1109,412.1116,412.1117,413.5452,[],[],[],[],[],[],[],z,413.5453,413.5454,0.011880271,-0.400112214,0,0,0,,0,77,77,112,1,4,word,LIBERAL,cursive,liberal_c.png,1.4331,,,,,
,,,,32207,001,2025-10-16_01h41.47.115,HW_LDT_1,2024.2.4,MacIntel,63.69426752,,,,,,,,,,,,,,,,,,,,,413.5463,413.7451,413.7451,414.2451,,,,,,,,,,,,,,1.0547,1,,,,,,,,,,,,,,z,,,,,,,,,,,,,,,79,0,414.2456,415.3118,z,1,1.0547,,[],[],[],[],[],[],[],415.3119,417.3118,417.3118,417.3119,[],[],[],[],[],[],[],,417.312,417.3121,0.011880271,-0.400112214,0,0,0,,0,78,78,3,1,4,RL,bewoted,print,bewoted_p.png,,,,,,
,,,,32207,001,2025-10-16_01h41.47.115,HW_LDT_1,2024.2.4,MacIntel,63.69426752,,,,,,,,,,,,,,,,,,,,,417.3132,417.5107,417.5108,418.0118,,,,,,,,,,,,,,1.3549,1,,,,,,,,,,,,,,z,,,,,,,,,,,,,,,80,0,418.0122,419.3785,z,1,1.3549,,[],[],[],[],[],[],[],419.3785,421.3785,421.3785,421.3787,[],[],[],[],[],[],[],,421.3787,424.3954,0.011880271,-0.400112214,0,0,0,space,0,79,79,66,1,4,TL,opmital,print,opmital_p.png,,,2.9854,,,
,,,,32207,001,2025-10-16_01h41.47.115,HW_LDT_1,2024.2.4,MacIntel,63.69426752,,,,,,,,,,,,,,,,,,,,,424.3967,424.5945,424.5946,425.0952,,,,,,,,,,,,,,2.0047,0,,,,,,,,,,,,,,m,,,,,,,,,,,,,,,81,1,425.0957,427.1119,z,0,2.0047,,[],[],[],[],[],[],[],427.112,429.1119,429.112,430.4447,[],[],[],[],[],[],[],z,430.4447,430.4449,0.011880271,-0.400112214,0,0,0,,0,80,80,144,1,4,word,RESIDENT,cursive,resident_c.png,1.3211,,,,,
,,,,32207,001,2025-10-16_01h41.47.115,HW_LDT_1,2024.2.4,MacIntel,63.69426752,,,,,,,,,,,,,,,,,,,,,430.4459,430.6451,430.6452,431.145,,,,,,,,,,,,,,0.8726,1,,,,,,,,,,,,,,m,,,,,,,,,,,,,,,82,0,431.1456,432.0276,m,1,0.8726,,[],[],[],[],[],[],[],432.0276,434.0285,434.0286,434.0287,[],[],[],[],[],[],[],,434.0288,434.0288,0.011880271,-0.400112214,0,0,0,,0,81,81,126,1,4,word,OPTIMAL,print,optimal_p.png,,,,,,
,,,,32207,001,2025-10-16_01h41.47.115,HW_LDT_1,2024.2.4,MacIntel,63.69426752,,,,,,,,,,,,,,,,,,,,,434.0299,434.2284,434.2285,434.7284,,,,,,,,,,,,,,0.7382,1,,,,,,,,,,,,,,z,,,,,,,,,,,,,,,83,0,434.729,435.4775,z,1,0.7382,,[],[],[],[],[],[],[],435.4776,437.4784,437.4785,437.4786,[],[],[],[],[],[],[],,437.4787,437.4788,0.011880271,-0.400112214,0,0,0,,0,82,82,45,1,4,RL,spetisic,cursive,spetisic_c.png,,,,,,
,,,,32207,001,2025-10-16_01h41.47.115,HW_LDT_1,2024.2.4,MacIntel,63.69426752,,,,,,,,,,,,,,,,,,,,,437.4799,437.6784,437.6785,438.1784,,,,,,,,,,,,,,0.5882,1,,,,,,,,,,,,,,m,,,,,,,,,,,,,,,84,1,438.179,438.7785,m,1,0.5882,,[],[],[],[],[],[],[],438.7785,440.7784,440.7785,441.8619,[],[],[],[],[],[],[],z,441.862,441.8621,0.011880271,-0.400112214,0,0,0,,0,83,83,127,1,4,word,ORIGINAL,print,original_p.png,1.0716,,,,,
,,,,32207,001,2025-10-16_01h41.47.115,HW_LDT_1,2024.2.4,MacIntel,63.69426752,,,,,,,,,,,,,,,,,,,,,441.8632,442.0618,442.062,442.5618,,,,,,,,,,,,,,0.8544,1,,,,,,,,,,,,,,z,,,,,,,,,,,,,,,85,0,442.5623,443.4276,z,1,0.8544,,[],[],[],[],[],[],[],443.4278,445.4286,445.4286,445.4288,[],[],[],[],[],[],[],,445.4288,445.4288,0.011880271,-0.400112214,0,0,0,,0,84,84,47,1,4,RL,stopave,print,stopave_p.png,,,,,,
,,,,32207,001,2025-10-16_01h41.47.115,HW_LDT_1,2024.2.4,MacIntel,63.69426752,,,,,,,,,,,,,,,,,,,,,445.4299,445.6285,445.6285,446.1275,,,,,,,,,,,,,,1.0741,1,,,,,,,,,,,,,,z,,,,,,,,,,,,,,,86,0,446.128,447.2118,z,1,1.0741,,[],[],[],[],[],[],[],447.2118,449.2118,449.2118,449.212,[],[],[],[],[],[],[],,449.212,449.2121,0.011880271,-0.400112214,0,0,0,,0,85,85,29,1,4,RL,motide,print,motide_p.png,,,,,,
,,,,32207,001,2025-10-16_01h41.47.115,HW_LDT_1,2024.2.4,MacIntel,63.69426752,,,,,,,,,,,,,,,,,,,,,449.2132,449.4119,449.4119,449.9119,,,,,,,,,,,,,,0.7057,1,,,,,,,,,,,,,,z,,,,,,,,,,,,,,,87,0,449.9124,450.6284,z,1,0.7057,,[],[],[],[],[],[],[],450.6285,452.6286,452.6286,452.6288,[],[],[],[],[],[],[],,452.6288,452.6288,0.011880271,-0.400112214,0,0,0,,0,86,86,8,1,4,RL,casagity,cursive,casagity_c.png,,,,,,
,,,,32207,001,2025-10-16_01h41.47.115,HW_LDT_1,2024.2.4,MacIntel,63.69426752,,,,,,,,,,,,,,,,,,,,,452.63,452.8284,452.8285,453.3285,,,,,,,,,,,,,,1.0045,1,,,,,,,,,,,,,,z,,,,,,,,,,,,,,,88,0,453.329,454.3451,z,1,1.0045,,[],[],[],[],[],[],[],454.3452,456.3451,456.3451,456.3453,[],[],[],[],[],[],[],,456.3453,456.3454,0.011880271,-0.400112214,0,0,0,,0,87,87,60,1,4,TL,hetirage,print,hetirage_p.png,,,,,,
,,,,32207,001,2025-10-16_01h41.47.115,HW_LDT_1,2024.2.4,MacIntel,63.69426752,,,,,,,,,,,,,,,,,,,,,456.3465,456.5451,456.5452,457.0451,,,,,,,,,,,,,,0.7379,1,,,,,,,,,,,,,,m,,,,,,,,,,,,,,,89,0,457.0457,457.7951,m,1,0.7379,,[],[],[],[],[],[],[],457.7953,459.7952,459.7953,459.7954,[],[],[],[],[],[],[],,459.7954,459.7955,0.011880271,-0.400112214,0,0,0,,0,88,88,84,1,4,word,BELOVED,print,beloved_p.png,,,,,,
,,,,32207,001,2025-10-16_01h41.47.115,HW_LDT_1,2024.2.4,MacIntel,63.69426752,,,,,,,,,,,,,,,,,,,,,459.7965,459.9953,459.9953,460.4951,,,,,,,,,,,,,,1.038,1,,,,,,,,,,,,,,z,,,,,,,,,,,,,,,90,1,460.4956,461.5453,z,1,1.038,,[],[],[],[],[],[],[],461.5453,463.5452,463.5453,465.0619,[],[],[],[],[],[],[],z,465.0619,465.062,0.011880271,-0.400112214,0,0,0,,0,89,89,73,1,4,TL,regilion,print,regilion_p.png,1.5043,,,,,
,,,,32207,001,2025-10-16_01h41.47.115,HW_LDT_1,2024.2.4,MacIntel,63.69426752,,,,,,,,,,,,,,,,,,,,,465.063,465.2619,465.2619,465.7619,,,,,,,,,,,,,,1.4405,1,,,,,,,,,,,,,,z,,,,,,,,,,,,,,,91,0,465.7624,467.212,z,1,1.4405,,[],[],[],[],[],[],[],467.2121,469.2118,469.212,469.212,[],[],[],[],[],[],[],,469.2121,469.2122,0.011880271,-0.400112214,0,0,0,,0,90,90,13,1,4,RL,crisival,cursive,crisival_c.png,,,,,,
,,,,32207,001,2025-10-16_01h41.47.115,HW_LDT_1,2024.2.4,MacIntel,63.69426752,,,,,,,,,,,,,,,,,,,,,469.2133,469.4119,469.4119,469.911,,,,,,,,,,,,,,0.7,1,,,,,,,,,,,,,,m,,,,,,,,,,,,,,,92,0,469.9114,470.6122,m,1,0.7,,[],[],[],[],[],[],[],470.6123,472.6118,472.6119,472.6121,[],[],[],[],[],[],[],,472.6121,472.6121,0.011880271,-0.400112214,0,0,0,,0,91,91,116,1,4,word,MARGINAL,cursive,marginal_c.png,,,,,,
,,,,32207,001,2025-10-16_01h41.47.115,HW_LDT_1,2024.2.4,MacIntel,63.69426752,,,,,,,,,,,,,,,,,,,,,472.6132,472.8119,472.8119,473.3114,,,,,,,,,,,,,,0.6829,1,,,,,,,,,,,,,,m,,,,,,,,,,,,,,,93,0,473.3119,473.9956,m,1,0.6829,,[],[],[],[],[],[],[],473.9956,475.9948,475.9949,475.995,[],[],[],[],[],[],[],,475.995,475.9951,0.011880271,-0.400112214,0,0,0,,0,92,92,145,1,4,word,RESUME,print,resume_p.png,,,,,,
,,,,32207,001,2025-10-16_01h41.47.115,HW_LDT_1,2024.2.4,MacIntel,63.69426752,,,,,,,,,,,,,,,,,,,,,475.9962,476.1952,476.1952,476.6952,,,,,,,,,,,,,,0.7157,1,,,,,,,,,,,,,,m,,,,,,,,,,,,,,,94,0,476.6957,477.4121,m,1,0.7157,,[],[],[],[],[],[],[],477.4121,479.4118,479.4119,479.412,[],[],[],[],[],[],[],,479.4121,479.4121,0.011880271,-0.400112214,0,0,0,,0,93,93,140,1,4,word,RELATIVE,print,relative_p.png,,,,,,
,,,,32207,001,2025-10-16_01h41.47.115,HW_LDT_1,2024.2.4,MacIntel,63.69426752,,,,,,,,,,,,,,,,,,,,,479.4132,479.6109,479.6111,480.1119,,,,,,,,,,,,,,1.3881,1,,,,,,,,,,,,,,m,,,,,,,,,,,,,,,95,0,480.1124,481.5121,m,1,1.3881,,[],[],[],[],[],[],[],481.5122,483.5119,483.512,483.5121,[],[],[],[],[],[],[],,483.5121,483.5122,0.011880271,-0.400112214,0,0,0,,0,94,94,97,1,4,word,COVERAGE,cursive,coverage_c.png,,,,,,
,,,,32207,001,2025-10-16_01h41.47.115,HW_LDT_1,2024.2.4,MacIntel,63.69426752,,,,,,,,,,,,,,,,,,,,,483.5134,483.712,483.712,484.2119,,,,,,,,,,,,,,1.0379,1,,,,,,,,,,,,,,z,,,,,,,,,,,,,,,96,0,484.2124,485.2619,z,1,1.0379,,[],[],[],[],[],[],[],485.262,487.2619,487.262,487.2621,[],[],[],[],[],[],[],,487.2621,487.2622,0.011880271,-0.400112214,0,0,0,,0,95,95,12,1,4,RL,conbicer,cursive,conbicer_c.png,,,,,,
,,,,32207,001,2025-10-16_01h41.47.115,HW_LDT_1,2024.2.4,MacIntel,63.69426752,,,,,,,,,,,,,,,,,,,,,487.2633,487.4619,487.462,487.9618,,,,,,,,,,,,,,0.6252,1,,,,,,,,,,,,,,m,,,,,,,,,,,,,,,97,1,487.9623,488.5952,m,1,0.6252,,[],[],[],[],[],[],[],488.5954,490.5943,490.5943,491.8278,[],[],[],[],[],[],[],z,491.8278,491.828,0.011880271,-0.400112214,0,0,0,,0,96,96,134,1,4,word,QUALIFY,print,qualify_p.png,1.2228,,,,,
,,,,32207,001,2025-10-16_01h41.47.115,HW_LDT_1,2024.2.4,MacIntel,63.69426752,,,,,,,,,,,,,,,,,,,,,491.8291,492.0285,492.0286,492.5286,,,,,,,,,,,,,,0.6982,1,,,,,,,,,,,,,,m,,,,,,,,,,,,,,,98,1,492.529,493.228,m,1,0.6982,,[],[],[],[],[],[],[],493.2281,495.2285,495.2286,496.4619,[],[],[],[],[],[],[],z,496.4619,496.462,0.011880271,-0.400112214,0,0,0,,0,97,97,107,1,4,word,EVIDENT,print,evident_p.png,1.2222,,,,,
,,,,32207,001,2025-10-16_01h41.47.115,HW_LDT_1,2024.2.4,MacIntel,63.69426752,,,,,,,,,,,,,,,,,,,,,496.4629,496.6619,496.6619,497.1619,,,,,,,,,,,,,,0.9378,1,,,,,,,,,,,,,,m,,,,,,,,,,,,,,,99,0,497.1624,498.112,m,1,0.9378,,[],[],[],[],[],[],[],498.1121,500.1109,500.1109,500.1111,[],[],[],[],[],[],[],,500.1112,500.1113,0.011880271,-0.400112214,0,0,0,,0,98,98,124,1,4,word,NUMERICAL,cursive,numerical_c.png,,,,,,
,,,,32207,001,2025-10-16_01h41.47.115,HW_LDT_1,2024.2.4,MacIntel,63.69426752,,,,,,,,,,,,,,,,,,,,,500.1123,500.3119,500.312,500.8119,,,,,,,,,,,,,,0.7256,1,,,,,,,,,,,,,,m,,,,,,,,,,,,,,,100,0,500.8124,501.5452,m,1,0.7256,,[],[],[],[],[],[],[],501.5452,503.5453,503.5454,503.5455,[],[],[],[],[],[],[],,503.5455,503.5457,0.011880271,-0.400112214,0,0,0,,0,99,99,98,1,4,word,CRIMINAL,cursive,criminal_c.png,,,,,,
,,,,32207,001,2025-10-16_01h41.47.115,HW_LDT_1,2024.2.4,MacIntel,63.69426752,,,,,,,,,,,,,,,,,,,,,503.5467,503.7452,503.7453,504.2453,,,,,,,,,,,,,,0.6204,0,,,,,,,,,,,,,,z,,,,,,,,,,,,,,,101,0,504.2457,504.8788,m,0,0.6204,,[],[],[],[],[],[],[],504.8789,506.8777,506.8778,506.8779,[],[],[],[],[],[],[],,506.8779,506.878,0.011880271,-0.400112214,0,0,0,,0,100,100,53,1,4,TL,cemerony,print,cemerony_p.png,,,,,,
,,,,32207,001,2025-10-16_01h41.47.115,HW_LDT_1,2024.2.4,MacIntel,63.69426752,,,,,,,,,,,,,,,,,,,,,506.8792,507.0778,507.0778,507.5776,,,,,,,,,,,,,,0.9385,1,,,,,,,,,,,,,,z,,,,,,,,,,,,,,,102,0,507.5782,508.5287,z,1,0.9385,,[],[],[],[],[],[],[],508.5288,510.5286,510.5286,510.5287,[],[],[],[],[],[],[],,510.5288,510.5289,0.011880271,-0.400112214,0,0,0,,0,101,101,58,1,4,TL,edivent,print,edivent_p.png,,,,,,
,,,,32207,001,2025-10-16_01h41.47.115,HW_LDT_1,2024.2.4,MacIntel,63.69426752,,,,,,,,,,,,,,,,,,,,,510.53,510.7286,510.7286,511.2276,,,,,,,,,,,,,,0.8058,1,,,,,,,,,,,,,,z,,,,,,,,,,,,,,,103,1,511.2281,512.0454,z,1,0.8058,,[],[],[],[],[],[],[],512.0454,514.0443,514.0443,517.8452,[],[],[],[],[],[],[],z,517.8452,517.8454,0.011880271,-0.400112214,0,0,0,,0,102,102,18,1,4,RL,disluge,print,disluge_p.png,3.7995,,,,,
,,,,32207,001,2025-10-16_01h41.47.115,HW_LDT_1,2024.2.4,MacIntel,63.69426752,,,,,,,,,,,,,,,,,,,,,517.8463,518.0447,518.0447,518.5453,,,,,,,,,,,,,,0.6382,1,,,,,,,,,,,,,,m,,,,,,,,,,,,,,,104,1,518.5458,519.1954,m,1,0.6382,,[],[],[],[],[],[],[],519.1955,521.1953,521.1954,523.0122,[],[],[],[],[],[],[],m,523.0123,523.0124,0.011880271,-0.400112214,0,0,0,,0,103,103,93,1,4,word,CEREMONY,print,ceremony_p.png,1.8046,,,,,
,,,,32207,001,2025-10-16_01h41.47.115,HW_LDT_1,2024.2.4,MacIntel,63.69426752,,,,,,,,,,,,,,,,,,,,,523.0137,523.212,523.212,523.7115,,,,,,,,,,,,,,0.8565,1,,,,,,,,,,,,,,z,,,,,,,,,,,,,,,105,0,523.712,524.5788,z,1,0.8565,,[],[],[],[],[],[],[],524.5788,526.5786,526.5787,526.5788,[],[],[],[],[],[],[],,526.5789,526.5789,0.011880271,-0.400112214,0,0,0,,0,104,104,9,1,4,RL,cafigal,print,cafigal_p.png,,,,,,
,,,,32207,001,2025-10-16_01h41.47.115,HW_LDT_1,2024.2.4,MacIntel,63.69426752,,,,,,,,,,,,,,,,,,,,,526.5801,526.7786,526.7787,527.2786,,,,,,,,,,,,,,0.8385,1,,,,,,,,,,,,,,z,,,,,,,,,,,,,,,106,0,527.2791,528.1287,z,1,0.8385,,[],[],[],[],[],[],[],528.1288,530.1287,530.1287,530.1289,[],[],[],[],[],[],[],,530.1289,530.1289,0.011880271,-0.400112214,0,0,0,,0,105,105,62,1,4,TL,locigal,print,locigal_p.png,,,,,,
,,,,32207,001,2025-10-16_01h41.47.115,HW_LDT_1,2024.2.4,MacIntel,63.69426752,,,,,,,,,,,,,,,,,,,,,530.1301,530.3286,530.3287,530.8287,,,,,,,,,,,,,,0.7379,1,,,,,,,,,,,,,,m,,,,,,,,,,,,,,,107,1,530.8292,531.5784,m,1,0.7379,,[],[],[],[],[],[],[],531.5785,533.5787,533.5787,534.8121,[],[],[],[],[],[],[],m,534.8121,534.8122,0.011880271,-0.400112214,0,0,0,,0,106,106,125,1,4,word,OPERATOR,print,operator_p.png,1.2221,,,,,
,,,,32207,001,2025-10-16_01h41.47.115,HW_LDT_1,2024.2.4,MacIntel,63.69426752,,,,,,,,,,,,,,,,,,,,,534.8133,535.0111,535.0112,535.5111,,,,,,,,,,,,,,0.989,1,,,,,,,,,,,,,,m,,,,,,,,,,,,,,,108,0,535.5116,536.5121,m,1,0.989,,[],[],[],[],[],[],[],536.5122,538.5119,538.512,538.5122,[],[],[],[],[],[],[],,538.5122,538.5123,0.011880271,-0.400112214,0,0,0,,0,107,107,82,1,4,word,AMATEUR,cursive,amateur_c.png,,,,,,
,,,,32207,001,2025-10-16_01h41.47.115,HW_LDT_1,2024.2.4,MacIntel,63.69426752,,,,,,,,,,,,,,,,,,,,,538.5134,538.7119,538.7119,539.2114,,,,,,,,,,,,,,0.8328,1,,,,,,,,,,,,,,z,,,,,,,,,,,,,,,109,0,539.2119,540.0456,z,1,0.8328,,[],[],[],[],[],[],[],540.0456,542.0453,542.0454,542.0455,[],[],[],[],[],[],[],,542.0456,542.0457,0.011880271,-0.400112214,0,0,0,,0,108,108,44,1,4,RL,senvilent,print,senvilent_p.png,,,,,,
,,,,32207,001,2025-10-16_01h41.47.115,HW_LDT_1,2024.2.4,MacIntel,63.69426752,,,,,,,,,,,,,,,,,,,,,542.0467,542.2445,542.2445,542.7453,,,,,,,,,,,,,,0.8206,0,,,,,,,,,,,,,,m,,,,,,,,,,,,,,,110,0,542.7459,543.5787,z,0,0.8206,,[],[],[],[],[],[],[],543.5788,545.5786,545.5787,545.5789,[],[],[],[],[],[],[],,545.5789,545.579,0.011880271,-0.400112214,0,0,0,,0,109,109,92,1,4,word,CATEGORY,cursive,category_c.png,,,,,,
,,,,32207,001,2025-10-16_01h41.47.115,HW_LDT_1,2024.2.4,MacIntel,63.69426752,,,,,,,,,,,,,,,,,,,,,545.5801,545.7784,545.7784,546.2778,,,,,,,,,,,,,,0.7892,1,,,,,,,,,,,,,,z,,,,,,,,,,,,,,,111,0,546.2783,547.0788,z,1,0.7892,,[],[],[],[],[],[],[],547.0789,549.0784,549.0784,549.0785,[],[],[],[],[],[],[],,549.0785,549.0785,0.011880271,-0.400112214,0,0,0,,0,110,110,43,1,4,RL,rovastic,print,rovastic_p.png,,,,,,
,,,,32207,001,2025-10-16_01h41.47.115,HW_LDT_1,2024.2.4,MacIntel,63.69426752,,,,,,,,,,,,,,,,,,,,,549.0791,549.2774,549.2774,549.7783,,,,,,,,,,,,,,1.3386,1,,,,,,,,,,,,,,z,,,,,,,,,,,,,,,112,0,549.7786,551.1284,z,1,1.3386,,[],[],[],[],[],[],[],551.1285,553.1287,553.1287,553.1288,[],[],[],[],[],[],[],,553.1289,553.129,0.011880271,-0.400112214,0,0,0,,0,111,111,55,1,4,TL,corevage,cursive,corevage_c.png,,,,,,
,,,,32207,001,2025-10-16_01h41.47.115,HW_LDT_1,2024.2.4,MacIntel,63.69426752,,,,,,,,,,,,,,,,,,,,,553.1302,553.3288,553.3288,553.8287,,,,,,,,,,,,,,0.732,1,,,,,,,,,,,,,,z,,,,,,,,,,,,,,,113,0,553.8291,554.5618,z,1,0.732,,[],[],[],[],[],[],[],554.562,556.5611,556.5611,556.5613,[],[],[],[],[],[],[],,556.5613,556.5614,0.011880271,-0.400112214,0,0,0,,0,112,112,7,1,4,RL,casena,print,casena_p.png,,,,,,
,,,,32207,001,2025-10-16_01h41.47.115,HW_LDT_1,2024.2.4,MacIntel,63.69426752,,,,,,,,,,,,,,,,,,,,,556.5625,556.7611,556.7611,557.2621,,,,,,,,,,,,,,0.615,1,,,,,,,,,,,,,,m,,,,,,,,,,,,,,,114,0,557.2626,557.8786,m,1,0.615,,[],[],[],[],[],[],[],557.8787,559.8787,559.8787,559.8789,[],[],[],[],[],[],[],,559.8789,559.8791,0.011880271,-0.400112214,0,0,0,,0,113,113,122,1,4,word,MOBILE,print,mobile_p.png,,,,,,
,,,,32207,001,2025-10-16_01h41.47.115,HW_LDT_1,2024.2.4,MacIntel,63.69426752,,,,,,,,,,,,,,,,,,,,,559.8802,560.0778,560.0778,560.5778,,,,,,,,,,,,,,0.7995,1,,,,,,,,,,,,,,z,,,,,,,,,,,,,,,115,0,560.5783,561.3787,z,1,0.7995,,[],[],[],[],[],[],[],561.3788,563.3787,563.3787,563.3789,[],[],[],[],[],[],[],,563.379,563.379,0.011880271,-0.400112214,0,0,0,,0,114,114,79,1,4,TL,tritube,print,tritube_p.png,,,,,,
,,,,32207,001,2025-10-16_01h41.47.115,HW_LDT_1,2024.2.4,MacIntel,63.69426752,,,,,,,,,,,,,,,,,,,,,563.3802,563.5787,563.5787,564.0777,,,,,,,,,,,,,,0.6058,1,,,,,,,,,,,,,,m,,,,,,,,,,,,,,,116,0,564.0784,564.6954,m,1,0.6058,,[],[],[],[],[],[],[],564.6955,566.6955,566.6955,566.6956,[],[],[],[],[],[],[],,566.6956,566.6958,0.011880271,-0.400112214,0,0,0,,0,115,115,88,1,4,word,CAMERA,print,camera_p.png,,,,,,
,,,,32207,001,2025-10-16_01h41.47.115,HW_LDT_1,2024.2.4,MacIntel,63.69426752,,,,,,,,,,,,,,,,,,,,,566.6975,566.8955,566.8955,567.3954,,,,,,,,,,,,,,0.8049,0,,,,,,,,,,,,,,m,,,,,,,,,,,,,,,117,0,567.3959,568.2112,z,0,0.8049,,[],[],[],[],[],[],[],568.2113,570.212,570.2121,570.2122,[],[],[],[],[],[],[],,570.2122,570.2123,0.011880271,-0.400112214,0,0,0,,0,116,116,153,1,4,word,STOLEN,cursive,stolen_c.png,,,,,,
,,,,32207,001,2025-10-16_01h41.47.115,HW_LDT_1,2024.2.4,MacIntel,63.69426752,,,,,,,,,,,,,,,,,,,,,570.2135,570.4121,570.4121,570.912,,,,,,,,,,,,,,0.6075,1,,,,,,,,,,,,,,m,,,,,,,,,,,,,,,118,0,570.9124,571.5287,m,1,0.6075,,[],[],[],[],[],[],[],571.5288,573.5287,573.5288,573.529,[],[],[],[],[],[],[],,573.529,573.5292,0.011880271,-0.400112214,0,0,0,,0,117,117,149,1,4,word,SENATOR,print,senator_p.png,,,,,,
,,,,32207,001,2025-10-16_01h41.47.115,HW_LDT_1,2024.2.4,MacIntel,63.69426752,,,,,,,,,,,,,,,,,,,,,573.5303,573.7287,573.7287,574.2279,,,,,,,,,,,,,,0.9861,0,,,,,,,,,,,,,,m,,,,,,,,,,,,,,,119,0,574.2284,575.2285,z,0,0.9861,,[],[],[],[],[],[],[],575.2285,577.2284,577.2284,577.2285,[],[],[],[],[],[],[],,577.2285,577.2285,0.011880271,-0.400112214,0,0,0,,0,118,118,151,1,4,word,SPECIFIC,cursive,specific_c.png,,,,,,
,,,,32207,001,2025-10-16_01h41.47.115,HW_LDT_1,2024.2.4,MacIntel,63.69426752,,,,,,,,,,,,,,,,,,,,,577.229,577.4283,577.4284,577.9283,,,,,,,,,,,,,,0.8559,1,,,,,,,,,,,,,,m,,,,,,,,,,,,,,,120,0,577.9286,578.7954,m,1,0.8559,,[],[],[],[],[],[],[],578.7955,580.7955,580.7955,580.7957,[],[],[],[],[],[],[],,580.7957,580.7958,0.011880271,-0.400112214,0,0,0,,0,119,119,130,1,4,word,POLICY,cursive,policy_c.png,,,,,,
,,,,32207,001,2025-10-16_01h41.47.115,HW_LDT_1,2024.2.4,MacIntel,63.69426752,,,,,,,,,,,,,,,,,,,,,580.797,580.9954,580.9954,581.4954,,,,,,,,,,,,,,0.9379,1,,,,,,,,,,,,,,z,,,,,,,,,,,,,,,121,0,581.496,582.4455,z,1,0.9379,,[],[],[],[],[],[],[],582.4456,584.4454,584.4454,584.4456,[],[],[],[],[],[],[],,584.4456,584.4457,0.011880271,-0.400112214,0,0,0,,0,120,120,11,1,4,RL,clisimal,print,clisimal_p.png,,,,,,
,,,,32207,001,2025-10-16_01h41.47.115,HW_LDT_1,2024.2.4,MacIntel,63.69426752,,,,,,,,,,,,,,,,,,,,,584.4469,584.6454,584.6454,585.1455,,,,,,,,,,,,,,1.2546,1,,,,,,,,,,,,,,m,,,,,,,,,,,,,,,122,0,585.146,586.4122,m,1,1.2546,,[],[],[],[],[],[],[],586.4123,588.4121,588.4121,588.4122,[],[],[],[],[],[],[],,588.4124,588.4124,0.011880271,-0.400112214,0,0,0,,0,121,121,89,1,4,word,CAPACITY,cursive,capacity_c.png,,,,,,
,,,,32207,001,2025-10-16_01h41.47.115,HW_LDT_1,2024.2.4,MacIntel,63.69426752,,,,,,,,,,,,,,,,,,,,,588.4135,588.6121,588.6121,589.1115,,,,,,,,,,,,,,0.7885,1,,,,,,,,,,,,,,z,,,,,,,,,,,,,,,123,0,589.1119,589.9122,z,1,0.7885,,[],[],[],[],[],[],[],589.9122,591.9121,591.9121,591.9123,[],[],[],[],[],[],[],,591.9123,591.9124,0.011880271,-0.400112214,0,0,0,,0,122,122,68,1,4,TL,prosopal,print,prosopal_p.png,,,,,,
,,,,32207,001,2025-10-16_01h41.47.115,HW_LDT_1,2024.2.4,MacIntel,63.69426752,,,,,,,,,,,,,,,,,,,,,591.9135,592.1121,592.1121,592.6122,,,,,,,,,,,,,,1.2916,1,,,,,,,,,,,,,,z,,,,,,,,,,,,,,,124,0,592.6126,593.9121,z,1,1.2916,,[],[],[],[],[],[],[],593.9122,595.9121,595.9121,595.9123,[],[],[],[],[],[],[],,595.9123,595.9123,0.011880271,-0.400112214,0,0,0,,0,123,123,39,1,4,RL,relone,cursive,relone_c.png,,,,,,
,,,,32207,001,2025-10-16_01h41.47.115,HW_LDT_1,2024.2.4,MacIntel,63.69426752,,,,,,,,,,,,,,,,,,,,,595.9133,596.1119,596.1119,596.6122,,,,,,,,,,,,,,0.7881,0,,,,,,,,,,,,,,m,,,,,,,,,,,,,,,125,0,596.6127,597.4122,z,0,0.7881,,[],[],[],[],[],[],[],597.4123,599.4112,599.4112,599.4115,[],[],[],[],[],[],[],,599.4115,599.4116,0.011880271,-0.400112214,0,0,0,,0,124,124,85,1,4,word,BENEFIT,cursive,benefit_c.png,,,,,,
,,,,32207,001,2025-10-16_01h41.47.115,HW_LDT_1,2024.2.4,MacIntel,63.69426752,,,,,,,,,,,,,,,,,,,,,599.4128,599.6113,599.6114,600.1117,,,,,,,,,,,,,,0.9883,1,,,,,,,,,,,,,,m,,,,,,,,,,,,,,,126,0,600.1121,601.1122,m,1,0.9883,,[],[],[],[],[],[],[],601.1123,603.1122,603.1122,603.1123,[],[],[],[],[],[],[],,603.1124,603.1124,0.011880271,-0.400112214,0,0,0,,0,125,125,133,1,4,word,PROVIDE,cursive,provide_c.png,,,,,,
,,,,32207,001,2025-10-16_01h41.47.115,HW_LDT_1,2024.2.4,MacIntel,63.69426752,,,,,,,,,,,,,,,,,,,,,603.1136,603.3122,603.3122,603.8122,,,,,,,,,,,,,,0.8882,1,,,,,,,,,,,,,,z,,,,,,,,,,,,,,,127,1,603.8126,604.7112,z,1,0.8882,,[],[],[],[],[],[],[],604.7114,606.7121,606.7121,607.8284,[],[],[],[],[],[],[],z,607.8285,607.8285,0.011880271,-0.400112214,0,0,0,,0,126,126,41,1,4,RL,rebicent,cursive,rebicent_c.png,1.1131,,,,,
,,,,32207,001,2025-10-16_01h41.47.115,HW_LDT_1,2024.2.4,MacIntel,63.69426752,,,,,,,,,,,,,,,,,,,,,607.8289,608.0287,608.0288,608.5288,,,,,,,,,,,,,,1.8539,1,,,,,,,,,,,,,,z,,,,,,,,,,,,,,,128,0,608.5293,610.3956,z,1,1.8539,,[],[],[],[],[],[],[],610.3957,612.3955,612.3956,612.3957,[],[],[],[],[],[],[],,612.3957,612.3958,0.011880271,-0.400112214,0,0,0,,0,127,127,70,1,4,TL,quatily,print,quatily_p.png,,,,,,
,,,,32207,001,2025-10-16_01h41.47.115,HW_LDT_1,2024.2.4,MacIntel,63.69426752,,,,,,,,,,,,,,,,,,,,,612.397,612.5955,612.5955,613.0955,,,,,,,,,,,,,,0.7051,1,,,,,,,,,,,,,,m,,,,,,,,,,,,,,,129,0,613.0959,613.8123,m,1,0.7051,,[],[],[],[],[],[],[],613.8124,615.8122,615.8122,615.8123,[],[],[],[],[],[],[],,615.8123,615.8124,0.011880271,-0.400112214,0,0,0,,0,128,128,111,1,4,word,INDICATE,print,indicate_p.png,,,,,,
,,,,32207,001,2025-10-16_01h41.47.115,HW_LDT_1,2024.2.4,MacIntel,63.69426752,,,,,,,,,,,,,,,,,,,,,615.8135,616.0113,616.0114,616.5122,,,,,,,,,,,,,,0.7876,1,,,,,,,,,,,,,,m,,,,,,,,,,,,,,,130,0,616.5126,617.3118,m,1,0.7876,,[],[],[],[],[],[],[],617.3118,619.3119,619.312,619.3121,[],[],[],[],[],[],[],,619.3122,619.3123,0.011880271,-0.400112214,0,0,0,,0,129,129,94,1,4,word,CLINICAL,print,clinical_p.png,,,,,,
,,,,32207,001,2025-10-16_01h41.47.115,HW_LDT_1,2024.2.4,MacIntel,63.69426752,,,,,,,,,,,,,,,,,,,,,619.3135,619.5122,619.5122,620.0113,,,,,,,,,,,,,,0.9555,1,,,,,,,,,,,,,,z,,,,,,,,,,,,,,,131,0,620.0119,620.9781,z,1,0.9555,,[],[],[],[],[],[],[],620.9782,622.9789,622.9789,622.9791,[],[],[],[],[],[],[],,622.9792,622.9792,0.011880271,-0.400112214,0,0,0,,0,130,130,54,1,4,TL,codemy,print,codemy_p.png,,,,,,
,,,,32207,001,2025-10-16_01h41.47.115,HW_LDT_1,2024.2.4,MacIntel,63.69426752,,,,,,,,,,,,,,,,,,,,,622.9803,623.1788,623.1789,623.6779,,,,,,,,,,,,,,0.9223,1,,,,,,,,,,,,,,m,,,,,,,,,,,,,,,132,0,623.6786,624.6123,m,1,0.9223,,[],[],[],[],[],[],[],624.6123,626.6122,626.6122,626.6123,[],[],[],[],[],[],[],,626.6124,626.6125,0.011880271,-0.400112214,0,0,0,,0,131,131,158,1,4,word,VELOCITY,cursive,velocity_c.png,,,,,,
,,,,32207,001,2025-10-16_01h41.47.115,HW_LDT_1,2024.2.4,MacIntel,63.69426752,,,,,,,,,,,,,,,,,,,,,626.6136,626.8123,626.8123,627.3119,,,,,,,,,,,,,,0.6542,1,,,,,,,,,,,,,,m,,,,,,,,,,,,,,,133,0,627.3124,627.9791,m,1,0.6542,,[],[],[],[],[],[],[],627.9791,629.9789,629.9789,629.9791,[],[],[],[],[],[],[],,629.9791,629.9791,0.011880271,-0.400112214,0,0,0,,0,132,132,120,1,4,word,MILITARY,print,military_p.png,,,,,,
,,,,32207,001,2025-10-16_01h41.47.115,HW_LDT_1,2024.2.4,MacIntel,63.69426752,,,,,,,,,,,,,,,,,,,,,629.9803,630.1789,630.1789,630.6789,,,,,,,,,,,,,,0.7714,1,,,,,,,,,,,,,,z,,,,,,,,,,,,,,,134,0,630.6795,631.4624,z,1,0.7714,,[],[],[],[],[],[],[],631.4625,633.4613,633.4614,633.4615,[],[],[],[],[],[],[],,633.4616,633.4617,0.011880271,-0.400112214,0,0,0,,0,133,133,57,1,4,TL,etidor,print,etidor_p.png,,,,,,
,,,,32207,001,2025-10-16_01h41.47.115,HW_LDT_1,2024.2.4,MacIntel,63.69426752,,,,,,,,,,,,,,,,,,,,,633.4628,633.6622,633.6623,634.1613,,,,,,,,,,,,,,0.8554,0,,,,,,,,,,,,,,m,,,,,,,,,,,,,,,135,0,634.1618,635.0289,z,0,0.8554,,[],[],[],[],[],[],[],635.029,637.029,637.029,637.0292,[],[],[],[],[],[],[],,637.0292,637.0294,0.011880271,-0.400112214,0,0,0,,0,134,134,129,1,4,word,PARENT,cursive,parent_c.png,,,,,,
,,,,32207,001,2025-10-16_01h41.47.115,HW_LDT_1,2024.2.4,MacIntel,63.69426752,,,,,,,,,,,,,,,,,,,,,637.0305,637.2289,637.2289,637.7289,,,,,,,,,,,,,,0.671,1,,,,,,,,,,,,,,m,,,,,,,,,,,,,,,136,0,637.7294,638.4122,m,1,0.671,,[],[],[],[],[],[],[],638.4124,640.4123,640.4123,640.4125,[],[],[],[],[],[],[],,640.4125,640.4126,0.011880271,-0.400112214,0,0,0,,0,135,135,100,1,4,word,DECADE,cursive,decade_c.png,,,,,,
,,,,32207,001,2025-10-16_01h41.47.115,HW_LDT_1,2024.2.4,MacIntel,63.69426752,,,,,,,,,,,,,,,,,,,,,640.4137,640.6122,640.6123,641.1122,,,,,,,,,,,,,,1.2713,1,,,,,,,,,,,,,,m,,,,,,,,,,,,,,,137,0,641.1127,642.3956,m,1,1.2713,,[],[],[],[],[],[],[],642.3957,644.3947,644.3948,644.3949,[],[],[],[],[],[],[],,644.395,644.3951,0.011880271,-0.400112214,0,0,0,,0,136,136,148,1,4,word,SALINE,print,saline_p.png,,,,,,
,,,,32207,001,2025-10-16_01h41.47.115,HW_LDT_1,2024.2.4,MacIntel,63.69426752,,,,,,,,,,,,,,,,,,,,,644.3962,644.5956,644.5956,645.0955,,,,,,,,,,,,,,1.0907,1,,,,,,,,,,,,,,z,,,,,,,,,,,,,,,138,0,645.0961,646.1955,z,1,1.0907,,[],[],[],[],[],[],[],646.1956,648.1956,648.1957,648.1959,[],[],[],[],[],[],[],,648.1959,648.196,0.011880271,-0.400112214,0,0,0,,0,137,137,74,1,4,TL,rerite,print,rerite_p.png,,,,,,
,,,,32207,001,2025-10-16_01h41.47.115,HW_LDT_1,2024.2.4,MacIntel,63.69426752,,,,,,,,,,,,,,,,,,,,,648.1972,648.3954,648.3954,648.8956,,,,,,,,,,,,,,0.6546,1,,,,,,,,,,,,,,m,,,,,,,,,,,,,,,139,0,648.8961,649.5615,m,1,0.6546,,[],[],[],[],[],[],[],649.5616,651.5614,651.5615,651.5616,[],[],[],[],[],[],[],,651.5617,651.5617,0.011880271,-0.400112214,0,0,0,,0,138,138,110,1,4,word,HERITAGE,print,heritage_p.png,,,,,,
,,,,32207,001,2025-10-16_01h41.47.115,HW_LDT_1,2024.2.4,MacIntel,63.69426752,,,,,,,,,,,,,,,,,,,,,651.5628,651.7622,651.7623,652.2621,,,,,,,,,,,,,,0.5298,1,,,,,,,,,,,,,,m,,,,,,,,,,,,,,,140,0,652.2626,652.7946,m,1,0.5298,,[],[],[],[],[],[],[],652.7947,654.7955,654.7955,654.7957,[],[],[],[],[],[],[],,654.7957,654.7957,0.011880271,-0.400112214,0,0,0,,0,139,139,90,1,4,word,CAPITAL,print,capital_p.png,,,,,,
,,,,32207,001,2025-10-16_01h41.47.115,HW_LDT_1,2024.2.4,MacIntel,63.69426752,,,,,,,,,,,,,,,,,,,,,654.7966,654.9956,654.9956,655.4955,,,,,,,,,,,,,,0.9216,1,,,,,,,,,,,,,,z,,,,,,,,,,,,,,,141,0,655.496,656.4291,z,1,0.9216,,[],[],[],[],[],[],[],656.4291,658.4289,658.429,658.4292,[],[],[],[],[],[],[],,658.4292,658.4293,0.011880271,-0.400112214,0,0,0,,0,140,140,61,1,4,TL,lotace,cursive,lotace_c.png,,,,,,
,,,,32207,001,2025-10-16_01h41.47.115,HW_LDT_1,2024.2.4,MacIntel,63.69426752,,,,,,,,,,,,,,,,,,,,,658.4305,658.6289,658.6289,659.128,,,,,,,,,,,,,,1.0391,1,,,,,,,,,,,,,,z,,,,,,,,,,,,,,,142,0,659.1286,660.1791,z,1,1.0391,,[],[],[],[],[],[],[],660.1792,662.1789,662.179,662.1791,[],[],[],[],[],[],[],,662.1792,662.1793,0.011880271,-0.400112214,0,0,0,,0,141,141,22,1,4,RL,linedal,cursive,linedal_c.png,,,,,,
,,,,32207,001,2025-10-16_01h41.47.115,HW_LDT_1,2024.2.4,MacIntel,63.69426752,,,,,,,,,,,,,,,,,,,,,662.1804,662.379,662.379,662.8791,,,,,,,,,,,,,,1.94,0,,,,,,,,,,,,,,m,,,,,,,,,,,,,,,143,0,662.8796,664.8281,z,0,1.94,,[],[],[],[],[],[],[],664.8282,666.8289,666.829,666.8292,[],[],[],[],[],[],[],,666.8292,666.8293,0.011880271,-0.400112214,0,0,0,,0,142,142,101,1,4,word,DELICATE,cursive,delicate_c.png,,,,,,
,,,,32207,001,2025-10-16_01h41.47.115,HW_LDT_1,2024.2.4,MacIntel,63.69426752,,,,,,,,,,,,,,,,,,,,,666.8304,667.029,667.029,667.5289,,,,,,,,,,,,,,0.8654,1,,,,,,,,,,,,,,m,,,,,,,,,,,,,,,144,0,667.5295,668.3956,m,1,0.8654,,[],[],[],[],[],[],[],668.3956,670.3956,670.3956,670.3958,[],[],[],[],[],[],[],,670.3958,670.396,0.011880271,-0.400112214,0,0,0,,0,143,143,150,1,4,word,SENTIMENT,print,sentiment_p.png,,,,,,
,,,,32207,001,2025-10-16_01h41.47.115,HW_LDT_1,2024.2.4,MacIntel,63.69426752,,,,,,,,,,,,,,,,,,,,,670.3971,670.5956,670.5957,671.0957,,,,,,,,,,,,,,0.7216,1,,,,,,,,,,,,,,z,,,,,,,,,,,,,,,145,0,671.0961,671.8291,z,1,0.7216,,[],[],[],[],[],[],[],671.8291,673.829,673.829,673.8292,[],[],[],[],[],[],[],,673.8292,673.8293,0.011880271,-0.400112214,0,0,0,,0,144,144,5,1,4,RL,bebine,print,bebine_p.png,,,,,,
,,,,32207,001,2025-10-16_01h41.47.115,HW_LDT_1,2024.2.4,MacIntel,63.69426752,,,,,,,,,,,,,,,,,,,,,673.8304,674.029,674.029,674.5289,,,,,,,,,,,,,,0.7326,0,,,,,,,,,,,,,,z,,,,,,,,,,,,,,,146,1,674.5294,675.2626,m,0,0.7326,,[],[],[],[],[],[],[],675.2627,677.2618,677.2618,678.4455,[],[],[],[],[],[],[],z,678.4456,678.4457,0.011880271,-0.400112214,0,0,0,,0,145,145,51,1,4,TL,adsivory,cursive,adsivory_c.png,1.1756,,,,,
,,,,32207,001,2025-10-16_01h41.47.115,HW_LDT_1,2024.2.4,MacIntel,63.69426752,,,,,,,,,,,,,,,,,,,,,678.4466,678.6455,678.6456,679.1447,,,,,,,,,,,,,,0.8152,1,,,,,,,,,,,,,,m,,,,,,,,,,,,,,,147,1,679.1453,679.9622,m,1,0.8152,,[],[],[],[],[],[],[],679.9623,681.9623,681.9623,683.212,[],[],[],[],[],[],[],z,683.212,683.2121,0.011880271,-0.400112214,0,0,0,,0,146,146,117,1,4,word,MARINE,print,marine_p.png,1.2422,,,,,
,,,,32207,001,2025-10-16_01h41.47.115,HW_LDT_1,2024.2.4,MacIntel,63.69426752,,,,,,,,,,,,,,,,,,,,,683.2132,683.4123,683.4123,683.9114,,,,,,,,,,,,,,0.8229,1,,,,,,,,,,,,,,m,,,,,,,,,,,,,,,148,1,683.9119,684.7448,m,1,0.8229,,[],[],[],[],[],[],[],684.7448,686.7456,686.7457,689.5457,[],[],[],[],[],[],[],m,689.5457,689.5458,0.011880271,-0.400112214,0,0,0,,0,147,147,121,1,4,word,MISTAKE,print,mistake_p.png,2.7887,,,,,
,,,,32207,001,2025-10-16_01h41.47.115,HW_LDT_1,2024.2.4,MacIntel,63.69426752,,,,,,,,,,,,,,,,,,,,,689.5469,689.7457,689.7457,690.2457,,,,,,,,,,,,,,0.7216,1,,,,,,,,,,,,,,m,,,,,,,,,,,,,,,149,0,690.2461,690.9791,m,1,0.7216,,[],[],[],[],[],[],[],690.9791,692.979,692.9791,692.9793,[],[],[],[],[],[],[],,692.9793,692.9794,0.011880271,-0.400112214,0,0,0,,0,148,148,136,1,4,word,RADICAL,print,radical_p.png,,,,,,
,,,,32207,001,2025-10-16_01h41.47.115,HW_LDT_1,2024.2.4,MacIntel,63.69426752,,,,,,,,,,,,,,,,,,,,,692.9806,693.179,693.179,693.679,,,,,,,,,,,,,,0.9881,1,,,,,,,,,,,,,,z,,,,,,,,,,,,,,,150,0,693.6795,694.6792,z,1,0.9881,,[],[],[],[],[],[],[],694.6792,696.6781,696.6781,696.6783,[],[],[],[],[],[],[],,696.6784,696.6785,0.011880271,-0.400112214,0,0,0,,0,149,149,14,1,4,RL,delahe,cursive,delahe_c.png,,,,,,
,,,,32207,001,2025-10-16_01h41.47.115,HW_LDT_1,2024.2.4,MacIntel,63.69426752,,,,,,,,,,,,,,,,,,,,,696.6796,696.8781,696.8782,697.379,,,,,,,,,,,,,,0.998,1,,,,,,,,,,,,,,z,,,,,,,,,,,,,,,151,0,697.3795,698.379,z,1,0.998,,[],[],[],[],[],[],[],698.3791,700.3782,700.3783,700.3784,[],[],[],[],[],[],[],,700.3784,700.3786,0.011880271,-0.400112214,0,0,0,,0,150,150,40,1,4,RL,reconal,print,reconal_p.png,,,,,,
,,,,32207,001,2025-10-16_01h41.47.115,HW_LDT_1,2024.2.4,MacIntel,63.69426752,,,,,,,,,,,,,,,,,,,,,700.3797,700.5789,700.579,701.0782,,,,,,,,,,,,,,0.6234,1,,,,,,,,,,,,,,m,,,,,,,,,,,,,,,152,0,701.0788,701.7123,m,1,0.6234,,[],[],[],[],[],[],[],701.7125,703.7124,703.7125,703.7125,[],[],[],[],[],[],[],,703.7126,703.7127,0.011880271,-0.400112214,0,0,0,,0,151,151,105,1,4,word,EDITOR,print,editor_p.png,,,,,,
,,,,32207,001,2025-10-16_01h41.47.115,HW_LDT_1,2024.2.4,MacIntel,63.69426752,,,,,,,,,,,,,,,,,,,,,703.7139,703.9123,703.9124,704.4123,,,,,,,,,,,,,,0.9813,0,,,,,,,,,,,,,,m,,,,,,,,,,,,,,,153,0,704.4128,705.3956,z,0,0.9813,,[],[],[],[],[],[],[],705.3957,707.3957,707.3957,707.3958,[],[],[],[],[],[],[],,707.3958,707.3959,0.011880271,-0.400112214,0,0,0,,0,152,152,138,1,4,word,REFUSAL,cursive,refusal_c.png,,,,,,
,,,,32207,001,2025-10-16_01h41.47.115,HW_LDT_1,2024.2.4,MacIntel,63.69426752,,,,,,,,,,,,,,,,,,,,,707.3968,707.5947,707.5948,708.0956,,,,,,,,,,,,,,0.8659,0,,,,,,,,,,,,,,m,,,,,,,,,,,,,,,154,0,708.0961,708.9627,z,0,0.8659,,[],[],[],[],[],[],[],708.9628,710.9623,710.9623,710.9626,[],[],[],[],[],[],[],,710.9626,710.9626,0.011880271,-0.400112214,0,0,0,,0,153,153,87,1,4,word,CAFETERIA,cursive,cafeteria_c.png,,,,,,
,,,,32207,001,2025-10-16_01h41.47.115,HW_LDT_1,2024.2.4,MacIntel,63.69426752,,,,,,,,,,,,,,,,,,,,,710.9637,711.1623,711.1624,711.6623,,,,,,,,,,,,,,2.8631,1,,,,,,,,,,,,,,z,,,,,,,,,,,,,,,155,0,711.6629,714.5287,z,1,2.8631,,[],[],[],[],[],[],[],714.5287,716.529,716.5291,716.5292,[],[],[],[],[],[],[],,716.5293,716.5294,0.011880271,-0.400112214,0,0,0,,0,154,154,23,1,4,RL,linefal,cursive,linefal_c.png,,,,,,
,,,,32207,001,2025-10-16_01h41.47.115,HW_LDT_1,2024.2.4,MacIntel,63.69426752,,,,,,,,,,,,,,,,,,,,,716.5307,716.729,716.729,717.2291,,,,,,,,,,,,,,0.6547,1,,,,,,,,,,,,,,m,,,,,,,,,,,,,,,156,0,717.2296,717.8957,m,1,0.6547,,[],[],[],[],[],[],[],717.8958,719.8957,719.8958,719.8959,[],[],[],[],[],[],[],,719.896,719.8961,0.011880271,-0.400112214,0,0,0,,0,155,155,147,1,4,word,ROMANTIC,print,romantic_p.png,,,,,,
,,,,32207,001,2025-10-16_01h41.47.115,HW_LDT_1,2024.2.4,MacIntel,63.69426752,,,,,,,,,,,,,,,,,,,,,719.8972,720.0949,720.095,720.5957,,,,,,,,,,,,,,1.2214,1,,,,,,,,,,,,,,z,,,,,,,,,,,,,,,157,0,720.5963,721.8284,z,1,1.2214,,[],[],[],[],[],[],[],721.8284,723.8291,723.8292,723.8294,[],[],[],[],[],[],[],,723.8294,723.8294,0.011880271,-0.400112214,0,0,0,,0,156,156,34,1,4,RL,posity,cursive,posity_c.png,,,,,,
,,,,32207,001,2025-10-16_01h41.47.115,HW_LDT_1,2024.2.4,MacIntel,63.69426752,,,,,,,,,,,,,,,,,,,,,723.8306,724.0291,724.0291,724.529,,,,,,,,,,,,,,1.8222,1,,,,,,,,,,,,,,z,,,,,,,,,,,,,,,158,0,724.5296,726.3625,z,1,1.8222,,[],[],[],[],[],[],[],726.3625,728.3624,728.3624,728.3626,[],[],[],[],[],[],[],,728.3626,728.3627,0.011880271,-0.400112214,0,0,0,,0,157,157,26,1,4,RL,mesibine,cursive,mesibine_c.png,,,,,,
,,,,32207,001,2025-10-16_01h41.47.115,HW_LDT_1,2024.2.4,MacIntel,63.69426752,,,,,,,,,,,,,,,,,,,,,728.3638,728.5624,728.5625,729.0625,,,,,,,,,,,,,,0.9215,1,,,,,,,,,,,,,,z,,,,,,,,,,,,,,,159,0,729.0629,729.9957,z,1,0.9215,,[],[],[],[],[],[],[],729.9958,731.9957,731.9957,731.9959,[],[],[],[],[],[],[],,731.9959,731.996,0.011880271,-0.400112214,0,0,0,,0,158,158,64,1,4,TL,moredate,print,moredate_p.png,,,,,,
,,,,32207,001,2025-10-16_01h41.47.115,HW_LDT_1,2024.2.4,MacIntel,63.69426752,,,,,,,,,,,,,,,,,,,,,731.9971,732.1958,732.1959,732.6957,,,,,,,,,,,,,,0.6492,1,,,,,,,,,,,,,,m,,,,,,,,,,,,,,,160,0,732.6962,733.3461,m,1,0.6492,,[],[],[],[],[],[],[],733.3461,735.3457,735.3457,735.346,[],[],[],[],[],[],[],,735.346,735.346,0.011880271,-0.400112214,0,0,0,,0,159,159,86,1,4,word,BESIDE,print,beside_p.png,,,,,,
,,,,32207,001,2025-10-16_01h41.47.115,HW_LDT_1,2024.2.4,MacIntel,63.69426752,,,,,,,,,,,,,,,,,,,,,,,,,,,,,,,,,,,,,,,,,,,,,,,,,,,,,,,,,,,,,,,,,,,,,,,,,,,,,,,,,,,,,,,,,,,,,,,,,,,,,,,,,,,,,,,,,,,,,735.3466,740.3452
