counterbalance_lists.group,counterbalance_lists.remaining,get_list.started,get_list.stopped,participant,session,date,expName,psychopyVersion,OS,frameRate,Instructions.started,Instructions.stopped,key_resp.keys,instr_done_touch.x,instr_done_touch.y,instr_done_touch.leftButton,instr_done_touch.midButton,instr_done_touch.rightButton,instr_done_touch.clicked_name,start_instr.thisRepN,start_instr.thisTrialN,start_instr.thisN,start_instr.thisIndex,start_instr.ran,pageN,phase,instruct_text,has_image,instruct_image,key_resp.rt,key_resp.duration,showProgress.started,showProgress.stopped,fix.started,fix.stopped,prac.started,prac.stopped,response.keys,response.corr,response.rt,response.duration,touch_resp.x,touch_resp.y,touch_resp.leftButton,touch_resp.midButton,touch_resp.rightButton,touch_resp.time,touch_resp.clicked_name,rt,corr,feedback.started,feedback.stopped,trials.thisRepN,trials.thisTrialN,trials.thisN,trials.thisIndex,trials.ran,TrialID,StimulusType,Condition,PrimeDuration,Prime,Target,corrAns,Instructions_expt.started,Instructions_expt.stopped,key_resp_3.keys,instr_done_touch_3.x,instr_done_touch_3.y,instr_done_touch_3.leftButton,instr_done_touch_3.midButton,instr_done_touch_3.rightButton,instr_done_touch_3.clicked_name,instr_experiment.thisRepN,instr_experiment.thisTrialN,instr_experiment.thisN,instr_experiment.thisIndex,instr_experiment.ran,trialID,flag,maintask.started,maintask.stopped,key_resp_2.keys,key_resp_2.corr,key_resp_2.rt,key_resp_2.duration,targ_click.x,targ_click.y,targ_click.leftButton,targ_click.midButton,targ_click.rightButton,targ_click.time,targ_click.clicked_name,ITI.started,ITI.stopped,probe.started,probe.stopped,click_probe.x,click_probe.y,click_probe.leftButton,click_probe.midButton,click_probe.rightButton,click_probe.time,click_probe.clicked_name,key_resp_probe.keys,Break.started,Break.stopped,break_done_touch.x,break_done_touch.y,break_done_touch.leftButton,break_done_touch.midButton,break_done_touch.rightButton,break_done_keyboard.keys,list4_trials.thisRepN,list4_trials.thisTrialN,list4_trials.thisN,list4_trials.thisIndex,list4_trials.ran,list_id,item_type,string,font,stim_file,key_resp_probe.rt,key_resp_probe.duration,break_done_touch.clicked_name,End.started,End.stopped
list4,,0.4387,0.4388,32201,001,2025-10-17_11h24.39.546,HW_LDT_1,2024.2.4,MacIntel,131.5789474,,,,,,,,,,,,,,,,,,,,,,,,,,,,,,,,,,,,,,,,,,,,,,,,,,,,,,,,,,,,,,,,,,,,,,,,,,,,,,,,,,,,,,,,,,,,,,,,,,,,,,,,,,,,,,,,,,,,,,
,,,,32201,001,2025-10-17_11h24.39.546,HW_LDT_1,2024.2.4,MacIntel,131.5789474,0.4505,25.2033,,-0.081163194,-0.407940642,1,0,0,instr_done_button,0,0,0,0,1,1,instructions,"INSTRUCTIONS
At the start of each trial, look at the plus sign  (+) in the center of the screen.  This tells you that a trial is about to begin and where to look. Second, the plus sign will disappear and a string of letters will appear. Your task is to determine if the string of letters is a word or not. If the item is a word press the M key (on keyboard)  or touch the word button (phone/tablet).  If the item is not a word,  press the  Z key (on keyboard)  or touch the nonword button (on phone/tablet). The items will be presented for a short time. 
Press the space bar or touch  continue.",0,,,,,,,,,,,,,,,,,,,,,,,,,,,,,,,,,,,,,,,,,,,,,,,,,,,,,,,,,,,,,,,,,,,,,,,,,,,,,,,,,,,,,,,,,,,,,,,,,,,,
,,,,32201,001,2025-10-17_11h24.39.546,HW_LDT_1,2024.2.4,MacIntel,131.5789474,25.2043,29.7204,space,-0.021217758,-0.407717427,0,0,0,,0,1,1,1,1,2,instructions,"If your device has a keyboard, press the 'Z' key for nonwords and the 'M' key for words.





Press the space bar or touch the button below to continue.",0,keyboard-example.gif,4.4962,,,,,,,,,,,,,,,,,,,,,,,,,,,,,,,,,,,,,,,,,,,,,,,,,,,,,,,,,,,,,,,,,,,,,,,,,,,,,,,,,,,,,,,,,,,,,,,,,,
,,,,32201,001,2025-10-17_11h24.39.546,HW_LDT_1,2024.2.4,MacIntel,131.5789474,29.7222,36.037,space,-0.021217758,-0.407717427,0,0,0,,0,2,2,2,1,3,instructions,"If you are using a touchscreen only device, use the buttons on the screen. Do not use the mouse.





Press the space bar or touch the button below to continue.",0,touchscreen-example.gif,6.2945,,,,,,,,,,,,,,,,,,,,,,,,,,,,,,,,,,,,,,,,,,,,,,,,,,,,,,,,,,,,,,,,,,,,,,,,,,,,,,,,,,,,,,,,,,,,,,,,,,
,,,,32201,001,2025-10-17_11h24.39.546,HW_LDT_1,2024.2.4,MacIntel,131.5789474,36.0388,52.6701,space,-0.021217758,-0.407717427,0,0,0,,0,3,3,3,1,4,instructions,"It is very important that you respond as quickly and accurately as possible, as each letter string will only be on the screen for two seconds. If you do not respond within this time, the message 'Too slow!' will be displayed and the experiment will progress to the next letter string. The first 20 trials will be practice trials and you will receive feedback on your answers. 

Press the space bar or touch the button below to start the practice trials.",0,,16.6124,,,,,,,,,,,,,,,,,,,,,,,,,,,,,,,,,,,,,,,,,,,,,,,,,,,,,,,,,,,,,,,,,,,,,,,,,,,,,,,,,,,,,,,,,,,,,,,,,,
,,,,32201,001,2025-10-17_11h24.39.546,HW_LDT_1,2024.2.4,MacIntel,131.5789474,,,,,,,,,,,,,,,,,,,,,,52.696,52.8693,52.8694,53.37,53.3705,54.878,m,1,1.4895,,[],[],[],[],[],[],[],1.4895,1,54.8782,55.3784,0,0,0,6,1,1007,WORD,UN,16,tropic,ZOMBIE,m,,,,,,,,,,,,,,,,,,,,,,,,,,,,,,,,,,,,,,,,,,,,,,,,,,,,,,,,,,,,,,,,
,,,,32201,001,2025-10-17_11h24.39.546,HW_LDT_1,2024.2.4,MacIntel,131.5789474,,,,,,,,,,,,,,,,,,,,,,55.3802,55.5776,55.5776,56.0779,56.0794,57.194,m,1,1.1038,,[],[],[],[],[],[],[],1.1038,1,57.1942,57.6944,0,1,1,3,1,1004,WORD,"ID",16,matrix,MATRIX,m,,,,,,,,,,,,,,,,,,,,,,,,,,,,,,,,,,,,,,,,,,,,,,,,,,,,,,,,,,,,,,,,
,,,,32201,001,2025-10-17_11h24.39.546,HW_LDT_1,2024.2.4,MacIntel,131.5789474,,,,,,,,,,,,,,,,,,,,,,57.6954,57.8945,57.8945,58.3945,58.3961,59.4112,m,1,1.0017,,[],[],[],[],[],[],[],1.0017,1,59.4115,59.9112,0,2,2,4,1,1005,WORD,UN,33,abound,SQUEAK,m,,,,,,,,,,,,,,,,,,,,,,,,,,,,,,,,,,,,,,,,,,,,,,,,,,,,,,,,,,,,,,,,
,,,,32201,001,2025-10-17_11h24.39.546,HW_LDT_1,2024.2.4,MacIntel,131.5789474,,,,,,,,,,,,,,,,,,,,,,59.9128,60.1111,60.1112,60.6107,60.6111,61.3611,m,1,0.7427,,[],[],[],[],[],[],[],0.7427,1,61.3613,61.8613,0,3,3,0,1,1001,WORD,"ID",33,utopia,UTOPIA,m,,,,,,,,,,,,,,,,,,,,,,,,,,,,,,,,,,,,,,,,,,,,,,,,,,,,,,,,,,,,,,,,
,,,,32201,001,2025-10-17_11h24.39.546,HW_LDT_1,2024.2.4,MacIntel,131.5789474,,,,,,,,,,,,,,,,,,,,,,61.8628,62.0612,62.0613,62.5611,62.5623,63.2613,z,1,0.6892,,[],[],[],[],[],[],[],0.6892,1,63.2614,63.7612,0,4,4,15,1,1016,NW,UN,16,mushed,WHAISE,z,,,,,,,,,,,,,,,,,,,,,,,,,,,,,,,,,,,,,,,,,,,,,,,,,,,,,,,,,,,,,,,,
,,,,32201,001,2025-10-17_11h24.39.546,HW_LDT_1,2024.2.4,MacIntel,131.5789474,,,,,,,,,,,,,,,,,,,,,,63.7629,63.9614,63.9614,64.4611,64.4624,65.0445,z,1,0.5711,,[],[],[],[],[],[],[],0.5711,1,65.0446,65.5445,0,5,5,13,1,1014,NW,UN,33,winfer,ROUPET,z,,,,,,,,,,,,,,,,,,,,,,,,,,,,,,,,,,,,,,,,,,,,,,,,,,,,,,,,,,,,,,,,
,,,,32201,001,2025-10-17_11h24.39.546,HW_LDT_1,2024.2.4,MacIntel,131.5789474,,,,,,,,,,,,,,,,,,,,,,65.5459,65.7438,65.7439,66.2454,66.2466,67.1029,z,1,0.8463,,[],[],[],[],[],[],[],0.8463,1,67.103,67.6018,0,6,6,14,1,1015,NW,UN,16,miaber,THRALE,z,,,,,,,,,,,,,,,,,,,,,,,,,,,,,,,,,,,,,,,,,,,,,,,,,,,,,,,,,,,,,,,,
,,,,32201,001,2025-10-17_11h24.39.546,HW_LDT_1,2024.2.4,MacIntel,131.5789474,,,,,,,,,,,,,,,,,,,,,,67.6035,67.8027,67.8028,68.3029,68.3039,69.3019,z,1,0.986,,[],[],[],[],[],[],[],0.986,1,69.302,69.8026,0,7,7,8,1,1009,NW,"ID",33,aslert,ASLERT,z,,,,,,,,,,,,,,,,,,,,,,,,,,,,,,,,,,,,,,,,,,,,,,,,,,,,,,,,,,,,,,,,
,,,,32201,001,2025-10-17_11h24.39.546,HW_LDT_1,2024.2.4,MacIntel,131.5789474,,,,,,,,,,,,,,,,,,,,,,69.8043,70.002,70.0021,70.5028,70.5039,71.1028,m,1,0.5863,,[],[],[],[],[],[],[],0.5863,1,71.103,71.602,0,8,8,2,1,1003,WORD,"ID",16,almond,ALMOND,m,,,,,,,,,,,,,,,,,,,,,,,,,,,,,,,,,,,,,,,,,,,,,,,,,,,,,,,,,,,,,,,,
,,,,32201,001,2025-10-17_11h24.39.546,HW_LDT_1,2024.2.4,MacIntel,131.5789474,,,,,,,,,,,,,,,,,,,,,,71.6036,71.8025,71.8025,72.3027,72.3037,73.1352,z,1,0.8192,,[],[],[],[],[],[],[],0.8192,1,73.1353,73.6362,0,9,9,10,1,1011,NW,"ID",16,inlade,INLADE,z,,,,,,,,,,,,,,,,,,,,,,,,,,,,,,,,,,,,,,,,,,,,,,,,,,,,,,,,,,,,,,,,
,,,,32201,001,2025-10-17_11h24.39.546,HW_LDT_1,2024.2.4,MacIntel,131.5789474,,,,,,,,,,,,,,,,,,,,,,73.6376,73.8361,73.8362,74.3363,74.3375,75.0606,z,1,0.7105,,[],[],[],[],[],[],[],0.7105,1,75.0607,75.5613,0,10,10,11,1,1012,NW,"ID",16,rashet,RASHET,z,,,,,,,,,,,,,,,,,,,,,,,,,,,,,,,,,,,,,,,,,,,,,,,,,,,,,,,,,,,,,,,,
,,,,32201,001,2025-10-17_11h24.39.546,HW_LDT_1,2024.2.4,MacIntel,131.5789474,,,,,,,,,,,,,,,,,,,,,,75.5632,75.7607,75.7607,76.2611,76.2621,77.111,z,1,0.8361,,[],[],[],[],[],[],[],0.8361,1,77.1111,77.6108,0,11,11,9,1,1010,NW,"ID",33,fariny,FARINY,z,,,,,,,,,,,,,,,,,,,,,,,,,,,,,,,,,,,,,,,,,,,,,,,,,,,,,,,,,,,,,,,,
,,,,32201,001,2025-10-17_11h24.39.546,HW_LDT_1,2024.2.4,MacIntel,131.5789474,,,,,,,,,,,,,,,,,,,,,,77.6117,77.811,77.8111,78.3109,78.3123,79.1527,m,1,0.8274,,[],[],[],[],[],[],[],0.8274,1,79.1529,79.6521,0,12,12,7,1,1008,WORD,UN,16,hurdle,VOLUME,m,,,,,,,,,,,,,,,,,,,,,,,,,,,,,,,,,,,,,,,,,,,,,,,,,,,,,,,,,,,,,,,,
,,,,32201,001,2025-10-17_11h24.39.546,HW_LDT_1,2024.2.4,MacIntel,131.5789474,,,,,,,,,,,,,,,,,,,,,,79.6536,79.8525,79.8525,80.3526,80.3538,80.9611,m,1,0.5939,,[],[],[],[],[],[],[],0.5939,1,80.9613,81.461,0,13,13,1,1,1002,WORD,"ID",33,adjust,ADJUST,m,,,,,,,,,,,,,,,,,,,,,,,,,,,,,,,,,,,,,,,,,,,,,,,,,,,,,,,,,,,,,,,,
,,,,32201,001,2025-10-17_11h24.39.546,HW_LDT_1,2024.2.4,MacIntel,131.5789474,,,,,,,,,,,,,,,,,,,,,,81.4627,81.661,81.6611,82.1609,82.1621,82.9027,z,1,0.7283,,[],[],[],[],[],[],[],0.7283,1,82.9029,83.4025,0,14,14,12,1,1013,NW,UN,33,adveil,SPRINY,z,,,,,,,,,,,,,,,,,,,,,,,,,,,,,,,,,,,,,,,,,,,,,,,,,,,,,,,,,,,,,,,,
,,,,32201,001,2025-10-17_11h24.39.546,HW_LDT_1,2024.2.4,MacIntel,131.5789474,,,,,,,,,,,,,,,,,,,,,,83.4038,83.6027,83.6028,84.1026,84.1038,84.6445,m,1,0.5275,,[],[],[],[],[],[],[],0.5275,1,84.6447,85.1445,0,15,15,5,1,1006,WORD,UN,33,frenzy,OBTAIN,m,,,,,,,,,,,,,,,,,,,,,,,,,,,,,,,,,,,,,,,,,,,,,,,,,,,,,,,,,,,,,,,,
,,,,32201,001,2025-10-17_11h24.39.546,HW_LDT_1,2024.2.4,MacIntel,131.5789474,,,,,,,,,,,,,,,1,end_of_practice,"You have completed the practice trials. During the experimental trials, you will not receive feedback. On some trials you will be asked to report whether the item you just saw was in cursive or print. 
Before you begin, please ensure that you are in a comfortable and quiet location and will not be disturbed for about 15 minutes, as we cannot use your data if you do not complete all the trials. 
 When you are ready to start the experimental trials, please press space or touch the button below.",,,,,,,,,,,,,,,,,,,,,,,,,,,,,,,,,,,,,,85.1512,104.4358,,0.079340278,-0.402104001,1,0,0,instr_done_button_3,0,0,0,0,1,,,,,,,,,,,,,,,,,,,,,,,,,,,,,,,,,,,,,,,,,,,,,,,,,,
,,,,32201,001,2025-10-17_11h24.39.546,HW_LDT_1,2024.2.4,MacIntel,131.5789474,,,,,,,,,,,,,,,,,,,,,,104.4506,104.6358,104.6358,105.1361,,,,,,,,,,,,,,1.502,1,,,,,,,,,,,,,,m,,,,,,,,,,,,,,,1,0,105.1373,106.6446,m,1,1.502,,[],[],[],[],[],[],[],106.6448,108.6444,108.6447,108.6477,[],[],[],[],[],[],[],,108.6478,108.6495,0.079340278,-0.402104001,0,0,0,,0,0,0,116,1,4,word,MARGINAL,cursive,marginal_c.png,,,,,
,,,,32201,001,2025-10-17_11h24.39.546,HW_LDT_1,2024.2.4,MacIntel,131.5789474,,,,,,,,,,,,,,,,,,,,,,108.6506,108.8437,108.8439,109.3439,,,,,,,,,,,,,,2.0685,1,,,,,,,,,,,,,,z,,,,,,,,,,,,,,,2,1,109.3446,111.4193,z,1,2.0685,,[],[],[],[],[],[],[],111.4194,113.4191,113.4192,116.8943,[],[],[],[],[],[],[],m,116.8944,116.8946,0.079340278,-0.402104001,0,0,0,,0,1,1,67,1,4,TL,polupar,print,polupar_p.png,3.4702,,,,
,,,,32201,001,2025-10-17_11h24.39.546,HW_LDT_1,2024.2.4,MacIntel,131.5789474,,,,,,,,,,,,,,,,,,,,,,116.8959,117.0941,117.0943,117.594,,,,,,,,,,,,,,3.5781,1,,,,,,,,,,,,,,m,,,,,,,,,,,,,,,3,0,117.5948,121.1771,m,1,3.5781,,[],[],[],[],[],[],[],121.1772,123.1774,123.1775,123.1777,[],[],[],[],[],[],[],,123.1778,123.1778,0.079340278,-0.402104001,0,0,0,,0,2,2,96,1,4,word,CONSIDER,cursive,consider_c.png,,,,,
,,,,32201,001,2025-10-17_11h24.39.546,HW_LDT_1,2024.2.4,MacIntel,131.5789474,,,,,,,,,,,,,,,,,,,,,,123.1787,123.3776,123.3776,123.8769,,,,,,,,,,,,,,0.9119,1,,,,,,,,,,,,,,z,,,,,,,,,,,,,,,4,0,123.8776,124.7935,z,1,0.9119,,[],[],[],[],[],[],[],124.7936,126.7939,126.794,126.7941,[],[],[],[],[],[],[],,126.7942,126.7943,0.079340278,-0.402104001,0,0,0,,0,3,3,73,1,4,TL,regilion,print,regilion_p.png,,,,,
,,,,32201,001,2025-10-17_11h24.39.546,HW_LDT_1,2024.2.4,MacIntel,131.5789474,,,,,,,,,,,,,,,,,,,,,,126.7955,126.9939,126.994,127.4941,,,,,,,,,,,,,,7.4437,1,,,,,,,,,,,,,,z,,,,,,,,,,,,,,,5,1,127.4948,134.9438,z,1,7.4437,,[],[],[],[],[],[],[],134.9439,136.9437,136.9438,141.3108,[],[],[],[],[],[],[],z,141.3109,141.3111,0.079340278,-0.402104001,0,0,0,,0,4,4,52,1,4,TL,cagetory,cursive,cagetory_c.png,4.3604,,,,
,,,,32201,001,2025-10-17_11h24.39.546,HW_LDT_1,2024.2.4,MacIntel,131.5789474,,,,,,,,,,,,,,,,,,,,,,141.3123,141.5102,141.5102,142.0104,,,,,,,,,,,,,,1.0774,1,,,,,,,,,,,,,,m,,,,,,,,,,,,,,,6,0,142.0111,143.094,m,1,1.0774,,[],[],[],[],[],[],[],143.0941,145.094,145.0941,145.0945,[],[],[],[],[],[],[],,145.0947,145.0948,0.079340278,-0.402104001,0,0,0,,0,5,5,122,1,4,word,MOBILE,print,mobile_p.png,,,,,
,,,,32201,001,2025-10-17_11h24.39.546,HW_LDT_1,2024.2.4,MacIntel,131.5789474,,,,,,,,,,,,,,,,,,,,,,145.0958,145.2939,145.294,145.7938,,,,,,,,,,,,,,1.8109,1,,,,,,,,,,,,,,m,,,,,,,,,,,,,,,7,0,145.7944,147.6103,m,1,1.8109,,[],[],[],[],[],[],[],147.6104,149.6105,149.6107,149.6108,[],[],[],[],[],[],[],,149.6109,149.611,0.079340278,-0.402104001,0,0,0,,0,6,6,130,1,4,word,POLICY,cursive,policy_c.png,,,,,
,,,,32201,001,2025-10-17_11h24.39.546,HW_LDT_1,2024.2.4,MacIntel,131.5789474,,,,,,,,,,,,,,,,,,,,,,149.6122,149.8107,149.8108,150.3103,,,,,,,,,,,,,,3.6977,1,,,,,,,,,,,,,,z,,,,,,,,,,,,,,,8,0,150.3108,154.0144,z,1,3.6977,,[],[],[],[],[],[],[],154.0145,156.0144,156.0145,156.0146,[],[],[],[],[],[],[],,156.0147,156.0148,0.079340278,-0.402104001,0,0,0,,0,7,7,39,1,4,RL,relone,cursive,relone_c.png,,,,,
,,,,32201,001,2025-10-17_11h24.39.546,HW_LDT_1,2024.2.4,MacIntel,131.5789474,,,,,,,,,,,,,,,,,,,,,,156.0161,156.2147,156.2148,156.7146,,,,,,,,,,,,,,5.7477,1,,,,,,,,,,,,,,z,,,,,,,,,,,,,,,9,0,156.7153,162.4682,z,1,5.7477,,[],[],[],[],[],[],[],162.4683,164.4688,164.4688,164.4692,[],[],[],[],[],[],[],,164.4692,164.4694,0.079340278,-0.402104001,0,0,0,,0,8,8,32,1,4,RL,patisic,cursive,patisic_c.png,,,,,
,,,,32201,001,2025-10-17_11h24.39.546,HW_LDT_1,2024.2.4,MacIntel,131.5789474,,,,,,,,,,,,,,,,,,,,,,164.4712,164.6688,164.6689,165.1687,,,,,,,,,,,,,,1.4021,1,,,,,,,,,,,,,,m,,,,,,,,,,,,,,,10,0,165.1694,166.5772,m,1,1.4021,,[],[],[],[],[],[],[],166.5773,168.5769,168.577,168.5771,[],[],[],[],[],[],[],,168.5772,168.5773,0.079340278,-0.402104001,0,0,0,,0,9,9,144,1,4,word,RESIDENT,cursive,resident_c.png,,,,,
,,,,32201,001,2025-10-17_11h24.39.546,HW_LDT_1,2024.2.4,MacIntel,131.5789474,,,,,,,,,,,,,,,,,,,,,,168.5781,168.7768,168.7768,169.2771,,,,,,,,,,,,,,1.2111,1,,,,,,,,,,,,,,z,,,,,,,,,,,,,,,11,1,169.2777,170.4927,z,1,1.2111,,[],[],[],[],[],[],[],170.4928,172.4932,172.4933,174.7271,[],[],[],[],[],[],[],z,174.7273,174.7275,0.079340278,-0.402104001,0,0,0,,0,10,10,9,1,4,RL,cafigal,print,cafigal_p.png,2.2295,,,,
,,,,32201,001,2025-10-17_11h24.39.546,HW_LDT_1,2024.2.4,MacIntel,131.5789474,,,,,,,,,,,,,,,,,,,,,,174.729,174.9268,174.927,175.4271,,,,,,,,,,,,,,1.0028,1,,,,,,,,,,,,,,m,,,,,,,,,,,,,,,12,0,175.4279,176.4354,m,1,1.0028,,[],[],[],[],[],[],[],176.4355,178.4353,178.4354,178.4355,[],[],[],[],[],[],[],,178.4356,178.4357,0.079340278,-0.402104001,0,0,0,,0,11,11,123,1,4,word,MODERATE,print,moderate_p.png,,,,,
,,,,32201,001,2025-10-17_11h24.39.546,HW_LDT_1,2024.2.4,MacIntel,131.5789474,,,,,,,,,,,,,,,,,,,,,,178.4368,178.6354,178.6355,179.1355,,,,,,,,,,,,,,0.7682,1,,,,,,,,,,,,,,m,,,,,,,,,,,,,,,13,0,179.1361,179.9101,m,1,0.7682,,[],[],[],[],[],[],[],179.9102,181.9103,181.9104,181.9107,[],[],[],[],[],[],[],,181.9107,181.9109,0.079340278,-0.402104001,0,0,0,,0,12,12,143,1,4,word,REMOVAL,print,removal_p.png,,,,,
,,,,32201,001,2025-10-17_11h24.39.546,HW_LDT_1,2024.2.4,MacIntel,131.5789474,,,,,,,,,,,,,,,,,,,,,,181.9119,182.1096,182.1097,182.6103,,,,,,,,,,,,,,3.0183,1,,,,,,,,,,,,,,m,,,,,,,,,,,,,,,14,0,182.611,185.6353,m,1,3.0183,,[],[],[],[],[],[],[],185.6353,187.6353,187.6354,187.6357,[],[],[],[],[],[],[],,187.6358,187.6359,0.079340278,-0.402104001,0,0,0,,0,13,13,106,1,4,word,ELABORATE,cursive,elaborate_c.png,,,,,
,,,,32201,001,2025-10-17_11h24.39.546,HW_LDT_1,2024.2.4,MacIntel,131.5789474,,,,,,,,,,,,,,,,,,,,,,187.6367,187.8353,187.8353,188.3351,,,,,,,,,,,,,,1.4197,1,,,,,,,,,,,,,,z,,,,,,,,,,,,,,,15,1,188.3356,189.76,z,1,1.4197,,[],[],[],[],[],[],[],189.76,191.7598,191.7599,197.4519,[],[],[],[],[],[],[],m,197.452,197.4522,0.079340278,-0.402104001,0,0,0,,0,14,14,74,1,4,TL,rerite,print,rerite_p.png,5.6873,,,,
,,,,32201,001,2025-10-17_11h24.39.546,HW_LDT_1,2024.2.4,MacIntel,131.5789474,,,,,,,,,,,,,,,,,,,,,,197.4535,197.6518,197.6519,198.1519,,,,,,,,,,,,,,1.4434,1,,,,,,,,,,,,,,m,,,,,,,,,,,,,,,16,1,198.1527,199.602,m,1,1.4434,,[],[],[],[],[],[],[],199.6022,201.6015,201.6016,203.3436,[],[],[],[],[],[],[],m,203.3436,203.3439,0.079340278,-0.402104001,0,0,0,,0,15,15,149,1,4,word,SENATOR,print,senator_p.png,1.7358,,,,
,,,,32201,001,2025-10-17_11h24.39.546,HW_LDT_1,2024.2.4,MacIntel,131.5789474,,,,,,,,,,,,,,,,,,,,,,203.3452,203.5434,203.5434,204.0434,,,,,,,,,,,,,,6.3716,1,,,,,,,,,,,,,,z,,,,,,,,,,,,,,,17,0,204.044,210.4185,z,1,6.3716,,[],[],[],[],[],[],[],210.4186,212.4184,212.4184,212.4186,[],[],[],[],[],[],[],,212.4188,212.4189,0.079340278,-0.402104001,0,0,0,,0,16,16,10,1,4,RL,carminal,cursive,carminal_c.png,,,,,
,,,,32201,001,2025-10-17_11h24.39.546,HW_LDT_1,2024.2.4,MacIntel,131.5789474,,,,,,,,,,,,,,,,,,,,,,212.4198,212.6184,212.6184,213.1185,,,,,,,,,,,,,,1.6439,1,,,,,,,,,,,,,,z,,,,,,,,,,,,,,,18,0,213.1192,214.7684,z,1,1.6439,,[],[],[],[],[],[],[],214.7685,216.7684,216.7685,216.7687,[],[],[],[],[],[],[],,216.7687,216.7688,0.079340278,-0.402104001,0,0,0,,0,17,17,76,1,4,TL,setanor,print,setanor_p.png,,,,,
,,,,32201,001,2025-10-17_11h24.39.546,HW_LDT_1,2024.2.4,MacIntel,131.5789474,,,,,,,,,,,,,,,,,,,,,,216.77,216.9683,216.9684,217.4683,,,,,,,,,,,,,,1.388,1,,,,,,,,,,,,,,m,,,,,,,,,,,,,,,19,0,217.469,218.8601,m,1,1.388,,[],[],[],[],[],[],[],218.8603,220.86,220.86,220.8602,[],[],[],[],[],[],[],,220.8603,220.8605,0.079340278,-0.402104001,0,0,0,,0,18,18,109,1,4,word,GRATEFUL,print,grateful_p.png,,,,,
,,,,32201,001,2025-10-17_11h24.39.546,HW_LDT_1,2024.2.4,MacIntel,131.5789474,,,,,,,,,,,,,,,,,,,,,,220.8619,221.06,221.06,221.56,,,,,,,,,,,,,,1.6193,1,,,,,,,,,,,,,,m,,,,,,,,,,,,,,,20,0,221.5609,223.185,m,1,1.6193,,[],[],[],[],[],[],[],223.1852,225.185,225.1851,225.1853,[],[],[],[],[],[],[],,225.1853,225.1854,0.079340278,-0.402104001,0,0,0,,0,19,19,112,1,4,word,LIBERAL,cursive,liberal_c.png,,,,,
,,,,32201,001,2025-10-17_11h24.39.546,HW_LDT_1,2024.2.4,MacIntel,131.5789474,,,,,,,,,,,,,,,,,,,,,,225.1863,225.3848,225.385,225.8849,,,,,,,,,,,,,,1.5691,1,,,,,,,,,,,,,,m,,,,,,,,,,,,,,,21,0,225.8857,227.4599,m,1,1.5691,,[],[],[],[],[],[],[],227.46,229.4594,229.4594,229.4597,[],[],[],[],[],[],[],,229.4598,229.4598,0.079340278,-0.402104001,0,0,0,,0,20,20,120,1,4,word,MILITARY,print,military_p.png,,,,,
,,,,32201,001,2025-10-17_11h24.39.546,HW_LDT_1,2024.2.4,MacIntel,131.5789474,,,,,,,,,,,,,,,,,,,,,,229.4612,229.659,229.659,230.1596,,,,,,,,,,,,,,2.2779,1,,,,,,,,,,,,,,z,,,,,,,,,,,,,,,22,0,230.1604,232.4434,z,1,2.2779,,[],[],[],[],[],[],[],232.4435,234.4434,234.4435,234.4437,[],[],[],[],[],[],[],,234.4438,234.4439,0.079340278,-0.402104001,0,0,0,,0,21,21,70,1,4,TL,quatily,print,quatily_p.png,,,,,
,,,,32201,001,2025-10-17_11h24.39.546,HW_LDT_1,2024.2.4,MacIntel,131.5789474,,,,,,,,,,,,,,,,,,,,,,234.4455,234.6433,234.6434,235.1432,,,,,,,,,,,,,,1.6176,1,,,,,,,,,,,,,,m,,,,,,,,,,,,,,,23,0,235.1437,236.7686,m,1,1.6176,,[],[],[],[],[],[],[],236.7687,238.7683,238.7684,238.7687,[],[],[],[],[],[],[],,238.7687,238.7688,0.079340278,-0.402104001,0,0,0,,0,22,22,159,1,4,word,VETERAN,cursive,veteran_c.png,,,,,
,,,,32201,001,2025-10-17_11h24.39.546,HW_LDT_1,2024.2.4,MacIntel,131.5789474,,,,,,,,,,,,,,,,,,,,,,238.7703,238.9678,238.9679,239.4683,,,,,,,,,,,,,,5.2612,1,,,,,,,,,,,,,,z,,,,,,,,,,,,,,,24,0,239.4688,244.7351,z,1,5.2612,,[],[],[],[],[],[],[],244.7352,246.7349,246.735,246.7353,[],[],[],[],[],[],[],,246.7353,246.7354,0.079340278,-0.402104001,0,0,0,,0,23,23,19,1,4,RL,elacodate,cursive,elacodate_c.png,,,,,
,,,,32201,001,2025-10-17_11h24.39.546,HW_LDT_1,2024.2.4,MacIntel,131.5789474,,,,,,,,,,,,,,,,,,,,,,246.737,246.9347,246.9348,247.4348,,,,,,,,,,,,,,6.3441,1,,,,,,,,,,,,,,z,,,,,,,,,,,,,,,25,0,247.4356,253.7849,z,1,6.3441,,[],[],[],[],[],[],[],253.7851,255.7846,255.7847,255.7849,[],[],[],[],[],[],[],,255.7849,255.785,0.079340278,-0.402104001,0,0,0,,0,24,24,8,1,4,RL,casagity,cursive,casagity_c.png,,,,,
,,,,32201,001,2025-10-17_11h24.39.546,HW_LDT_1,2024.2.4,MacIntel,131.5789474,,,,,,,,,,,,,,,,,,,,,,255.7863,255.9847,255.9847,256.4841,,,,,,,,,,,,,,3.0948,1,,,,,,,,,,,,,,z,,,,,,,,,,,,,,,26,0,256.4848,259.5849,z,1,3.0948,,[],[],[],[],[],[],[],259.585,261.5841,261.5841,261.5844,[],[],[],[],[],[],[],,261.5845,261.5845,0.079340278,-0.402104001,0,0,0,,0,25,25,2,1,4,RL,asiral,cursive,asiral_c.png,,,,,
,,,,32201,001,2025-10-17_11h24.39.546,HW_LDT_1,2024.2.4,MacIntel,131.5789474,,,,,,,,,,,,,,,,,,,,,,261.5859,261.7847,261.7847,262.2848,,,,,,,,,,,,,,2.0628,1,,,,,,,,,,,,,,m,,,,,,,,,,,,,,,27,0,262.2854,264.3514,m,1,2.0628,,[],[],[],[],[],[],[],264.3515,266.3513,266.3514,266.3517,[],[],[],[],[],[],[],,266.3518,266.3518,0.079340278,-0.402104001,0,0,0,,0,26,26,139,1,4,word,REGULAR,cursive,regular_c.png,,,,,
,,,,32201,001,2025-10-17_11h24.39.546,HW_LDT_1,2024.2.4,MacIntel,131.5789474,,,,,,,,,,,,,,,,,,,,,,266.3535,266.5506,266.5506,267.0513,,,,,,,,,,,,,,1.2042,1,,,,,,,,,,,,,,m,,,,,,,,,,,,,,,28,0,267.052,268.2597,m,1,1.2042,,[],[],[],[],[],[],[],268.2598,270.259,270.259,270.2592,[],[],[],[],[],[],[],,270.2593,270.2594,0.079340278,-0.402104001,0,0,0,,0,27,27,134,1,4,word,QUALIFY,print,qualify_p.png,,,,,
,,,,32201,001,2025-10-17_11h24.39.546,HW_LDT_1,2024.2.4,MacIntel,131.5789474,,,,,,,,,,,,,,,,,,,,,,270.2605,270.4598,270.4599,270.9589,,,,,,,,,,,,,,1.4611,1,,,,,,,,,,,,,,m,,,,,,,,,,,,,,,29,0,270.9597,272.4255,m,1,1.4611,,[],[],[],[],[],[],[],272.4256,274.4263,274.4265,274.4266,[],[],[],[],[],[],[],,274.4266,274.4268,0.079340278,-0.402104001,0,0,0,,0,28,28,147,1,4,word,ROMANTIC,print,romantic_p.png,,,,,
,,,,32201,001,2025-10-17_11h24.39.546,HW_LDT_1,2024.2.4,MacIntel,131.5789474,,,,,,,,,,,,,,,,,,,,,,274.4283,274.626,274.6261,275.1263,,,,,,,,,,,,,,2.6199,1,,,,,,,,,,,,,,m,,,,,,,,,,,,,,,30,0,275.1267,277.7513,m,1,2.6199,,[],[],[],[],[],[],[],277.7514,279.7508,279.7509,279.7511,[],[],[],[],[],[],[],,279.7511,279.7511,0.079340278,-0.402104001,0,0,0,,0,29,29,97,1,4,word,COVERAGE,cursive,coverage_c.png,,,,,
,,,,32201,001,2025-10-17_11h24.39.546,HW_LDT_1,2024.2.4,MacIntel,131.5789474,,,,,,,,,,,,,,,,,,,,,,279.7519,279.9512,279.9513,280.4513,,,,,,,,,,,,,,5.8766,1,,,,,,,,,,,,,,z,,,,,,,,,,,,,,,31,0,280.4519,286.3339,z,1,5.8766,,[],[],[],[],[],[],[],286.334,288.3345,288.3345,288.3348,[],[],[],[],[],[],[],,288.3348,288.3349,0.079340278,-0.402104001,0,0,0,,0,30,30,24,1,4,RL,marmipal,cursive,marmipal_c.png,,,,,
,,,,32201,001,2025-10-17_11h24.39.546,HW_LDT_1,2024.2.4,MacIntel,131.5789474,,,,,,,,,,,,,,,,,,,,,,288.3363,288.5345,288.5346,289.0345,,,,,,,,,,,,,,1.1776,1,,,,,,,,,,,,,,m,,,,,,,,,,,,,,,32,0,289.0351,290.2179,m,1,1.1776,,[],[],[],[],[],[],[],290.218,292.2179,292.218,292.2183,[],[],[],[],[],[],[],,292.2185,292.2185,0.079340278,-0.402104001,0,0,0,,0,31,31,154,1,4,word,STORAGE,print,storage_p.png,,,,,
,,,,32201,001,2025-10-17_11h24.39.546,HW_LDT_1,2024.2.4,MacIntel,131.5789474,,,,,,,,,,,,,,,,,,,,,,292.2195,292.4177,292.4178,292.918,,,,,,,,,,,,,,1.9719,0,,,,,,,,,,,,,,m,,,,,,,,,,,,,,,33,0,292.9184,294.8929,z,0,1.9719,,[],[],[],[],[],[],[],294.893,296.8928,296.893,296.8933,[],[],[],[],[],[],[],,296.8934,296.8936,0.079340278,-0.402104001,0,0,0,,0,32,32,92,1,4,word,CATEGORY,cursive,category_c.png,,,,,
,,,,32201,001,2025-10-17_11h24.39.546,HW_LDT_1,2024.2.4,MacIntel,131.5789474,,,,,,,,,,,,,,,,,,,,,,296.8951,297.0926,297.0927,297.5926,,,,,,,,,,,,,,1.587,1,,,,,,,,,,,,,,z,,,,,,,,,,,,,,,34,1,297.5933,299.1845,z,1,1.587,,[],[],[],[],[],[],[],299.1846,301.1841,301.1843,304.051,[],[],[],[],[],[],[],z,304.0511,304.0512,0.079340278,-0.402104001,0,0,0,,0,33,33,4,1,4,RL,betemit,cursive,betemit_c.png,2.8619,,,,
,,,,32201,001,2025-10-17_11h24.39.546,HW_LDT_1,2024.2.4,MacIntel,131.5789474,,,,,,,,,,,,,,,,,,,,,,304.0521,304.2509,304.2511,304.7501,,,,,,,,,,,,,,2.1783,1,,,,,,,,,,,,,,z,,,,,,,,,,,,,,,35,1,304.7508,306.9344,z,1,2.1783,,[],[],[],[],[],[],[],306.9346,308.9342,308.9344,311.9177,[],[],[],[],[],[],[],m,311.9179,311.9181,0.079340278,-0.402104001,0,0,0,,0,34,34,18,1,4,RL,disluge,print,disluge_p.png,2.9771,,,,
,,,,32201,001,2025-10-17_11h24.39.546,HW_LDT_1,2024.2.4,MacIntel,131.5789474,,,,,,,,,,,,,,,,,,,,,,311.919,312.1177,312.1178,312.6177,,,,,,,,,,,,,,2.9941,1,,,,,,,,,,,,,,z,,,,,,,,,,,,,,,36,0,312.6185,315.6177,z,1,2.9941,,[],[],[],[],[],[],[],315.6178,317.6178,317.6179,317.6182,[],[],[],[],[],[],[],,317.6182,317.6183,0.079340278,-0.402104001,0,0,0,,0,35,35,7,1,4,RL,casena,print,casena_p.png,,,,,
,,,,32201,001,2025-10-17_11h24.39.546,HW_LDT_1,2024.2.4,MacIntel,131.5789474,,,,,,,,,,,,,,,,,,,,,,317.6193,317.8177,317.8177,318.3177,,,,,,,,,,,,,,1.0644,1,,,,,,,,,,,,,,m,,,,,,,,,,,,,,,37,0,318.3183,319.3842,m,1,1.0644,,[],[],[],[],[],[],[],319.3844,321.3844,321.3845,321.3847,[],[],[],[],[],[],[],,321.3847,321.3849,0.079340278,-0.402104001,0,0,0,,0,36,36,119,1,4,word,MEMORY,print,memory_p.png,,,,,
,,,,32201,001,2025-10-17_11h24.39.546,HW_LDT_1,2024.2.4,MacIntel,131.5789474,,,,,,,,,,,,,,,,,,,,,,321.3864,321.584,321.584,322.0841,,,,,,,,,,,,,,1.2701,1,,,,,,,,,,,,,,m,,,,,,,,,,,,,,,38,0,322.0846,323.3593,m,1,1.2701,,[],[],[],[],[],[],[],323.3594,325.3588,325.3589,325.359,[],[],[],[],[],[],[],,325.359,325.3592,0.079340278,-0.402104001,0,0,0,,0,37,37,110,1,4,word,HERITAGE,print,heritage_p.png,,,,,
,,,,32201,001,2025-10-17_11h24.39.546,HW_LDT_1,2024.2.4,MacIntel,131.5789474,,,,,,,,,,,,,,,,,,,,,,325.3606,325.5593,325.5594,326.0593,,,,,,,,,,,,,,3.6181,0,,,,,,,,,,,,,,m,,,,,,,,,,,,,,,39,0,326.0603,329.6844,z,0,3.6181,,[],[],[],[],[],[],[],329.6846,331.6841,331.6842,331.6843,[],[],[],[],[],[],[],,331.6844,331.6845,0.079340278,-0.402104001,0,0,0,,0,38,38,101,1,4,word,DELICATE,cursive,delicate_c.png,,,,,
,,,,32201,001,2025-10-17_11h24.39.546,HW_LDT_1,2024.2.4,MacIntel,131.5789474,,,,,,,,,,,,,,,,,,,,,,331.6859,331.8842,331.8843,332.3842,,,,,,,,,,,,,,3.4406,1,,,,,,,,,,,,,,z,,,,,,,,,,,,,,,40,0,332.3849,335.8265,z,1,3.4406,,[],[],[],[],[],[],[],335.8266,337.8258,337.8258,337.8262,[],[],[],[],[],[],[],,337.8262,337.8264,0.079340278,-0.402104001,0,0,0,,0,39,39,14,1,4,RL,delahe,cursive,delahe_c.png,,,,,
,,,,32201,001,2025-10-17_11h24.39.546,HW_LDT_1,2024.2.4,MacIntel,131.5789474,,,,,,,,,,,,,,,,,,,,,,337.8279,338.0258,338.0259,338.5257,,,,,,,,,,,,,,2.3037,1,,,,,,,,,,,,,,m,,,,,,,,,,,,,,,41,0,338.5263,340.8341,m,1,2.3037,,[],[],[],[],[],[],[],340.8344,342.8341,342.8342,342.8345,[],[],[],[],[],[],[],,342.8345,342.8347,0.079340278,-0.402104001,0,0,0,,0,40,40,82,1,4,word,AMATEUR,cursive,amateur_c.png,,,,,
,,,,32201,001,2025-10-17_11h24.39.546,HW_LDT_1,2024.2.4,MacIntel,131.5789474,,,,,,,,,,,,,,,,,,,,,,342.8362,343.0341,343.0342,343.5343,,,,,,,,,,,,,,0.8875,1,,,,,,,,,,,,,,m,,,,,,,,,,,,,,,42,0,343.5348,344.4258,m,1,0.8875,,[],[],[],[],[],[],[],344.4259,346.4257,346.4257,346.426,[],[],[],[],[],[],[],,346.426,346.4261,0.079340278,-0.402104001,0,0,0,,0,41,41,127,1,4,word,ORIGINAL,print,original_p.png,,,,,
,,,,32201,001,2025-10-17_11h24.39.546,HW_LDT_1,2024.2.4,MacIntel,131.5789474,,,,,,,,,,,,,,,,,,,,,,346.4275,346.6258,346.626,347.1259,,,,,,,,,,,,,,4.8026,1,,,,,,,,,,,,,,z,,,,,,,,,,,,,,,43,0,347.1262,351.9331,z,1,4.8026,,[],[],[],[],[],[],[],351.9331,353.9339,353.934,353.9342,[],[],[],[],[],[],[],,353.9342,353.9343,0.079340278,-0.402104001,0,0,0,,0,42,42,22,1,4,RL,linedal,cursive,linedal_c.png,,,,,
,,,,32201,001,2025-10-17_11h24.39.546,HW_LDT_1,2024.2.4,MacIntel,131.5789474,,,,,,,,,,,,,,,,,,,,,,353.9357,354.1341,354.1341,354.634,,,,,,,,,,,,,,1.6854,1,,,,,,,,,,,,,,z,,,,,,,,,,,,,,,44,0,354.6346,356.3257,z,1,1.6854,,[],[],[],[],[],[],[],356.3258,358.3257,358.3258,358.326,[],[],[],[],[],[],[],,358.326,358.3262,0.079340278,-0.402104001,0,0,0,,0,43,43,40,1,4,RL,reconal,print,reconal_p.png,,,,,
,,,,32201,001,2025-10-17_11h24.39.546,HW_LDT_1,2024.2.4,MacIntel,131.5789474,,,,,,,,,,,,,,,,,,,,,,358.3278,358.5258,358.5258,359.0256,,,,,,,,,,,,,,1.0273,1,,,,,,,,,,,,,,m,,,,,,,,,,,,,,,45,0,359.0262,360.0591,m,1,1.0273,,[],[],[],[],[],[],[],360.0593,362.0591,362.0592,362.0594,[],[],[],[],[],[],[],,362.0595,362.0597,0.079340278,-0.402104001,0,0,0,,0,44,44,95,1,4,word,COMEDY,print,comedy_p.png,,,,,
,,,,32201,001,2025-10-17_11h24.39.546,HW_LDT_1,2024.2.4,MacIntel,131.5789474,,,,,,,,,,,,,,,,,,,,,,362.0612,362.259,362.2591,362.758,,,,,,,,,,,,,,1.7951,1,,,,,,,,,,,,,,m,,,,,,,,,,,,,,,46,0,362.7586,364.559,m,1,1.7951,,[],[],[],[],[],[],[],364.5592,366.5582,366.5582,366.5584,[],[],[],[],[],[],[],,366.5584,366.5584,0.079340278,-0.402104001,0,0,0,,0,45,45,141,1,4,word,RELIGION,print,religion_p.png,,,,,
,,,,32201,001,2025-10-17_11h24.39.546,HW_LDT_1,2024.2.4,MacIntel,131.5789474,,,,,,,,,,,,,,,,,,,,,,366.5598,366.7581,366.7582,367.259,,,,,,,,,,,,,,3.1447,1,,,,,,,,,,,,,,z,,,,,,,,,,,,,,,47,0,367.2595,370.4091,z,1,3.1447,,[],[],[],[],[],[],[],370.4092,372.4088,372.4089,372.4091,[],[],[],[],[],[],[],,372.4092,372.4093,0.079340278,-0.402104001,0,0,0,,0,46,46,42,1,4,RL,revune,print,revune_p.png,,,,,
,,,,32201,001,2025-10-17_11h24.39.546,HW_LDT_1,2024.2.4,MacIntel,131.5789474,,,,,,,,,,,,,,,,,,,,,,372.4102,372.6086,372.6087,373.1082,,,,,,,,,,,,,,1.2497,1,,,,,,,,,,,,,,z,,,,,,,,,,,,,,,48,0,373.1089,374.3595,z,1,1.2497,,[],[],[],[],[],[],[],374.3597,376.3589,376.359,376.3592,[],[],[],[],[],[],[],,376.3593,376.3595,0.079340278,-0.402104001,0,0,0,,0,47,47,75,1,4,TL,sanile,print,sanile_p.png,,,,,
,,,,32201,001,2025-10-17_11h24.39.546,HW_LDT_1,2024.2.4,MacIntel,131.5789474,,,,,,,,,,,,,,,,,,,,,,376.361,376.5588,376.5589,377.059,,,,,,,,,,,,,,1.3231,1,,,,,,,,,,,,,,z,,,,,,,,,,,,,,,49,0,377.0599,378.3842,z,1,1.3231,,[],[],[],[],[],[],[],378.3843,380.3838,380.3838,380.3839,[],[],[],[],[],[],[],,380.384,380.3841,0.079340278,-0.402104001,0,0,0,,0,48,48,59,1,4,TL,fornute,cursive,fornute_c.png,,,,,
,,,,32201,001,2025-10-17_11h24.39.546,HW_LDT_1,2024.2.4,MacIntel,131.5789474,,,,,,,,,,,,,,,,,,,,,,380.3853,380.5839,380.584,381.0838,,,,,,,,,,,,,,2.7693,1,,,,,,,,,,,,,,z,,,,,,,,,,,,,,,50,0,381.0845,383.8589,z,1,2.7693,,[],[],[],[],[],[],[],383.8591,385.8588,385.8589,385.8591,[],[],[],[],[],[],[],,385.8591,385.8594,0.079340278,-0.402104001,0,0,0,,0,49,49,23,1,4,RL,linefal,cursive,linefal_c.png,,,,,
,,,,32201,001,2025-10-17_11h24.39.546,HW_LDT_1,2024.2.4,MacIntel,131.5789474,,,,,,,,,,,,,,,,,,,,,,385.8604,386.059,386.0591,386.5588,,,,,,,,,,,,,,2.5954,1,,,,,,,,,,,,,,m,,,,,,,,,,,,,,,51,0,386.5594,389.1591,m,1,2.5954,,[],[],[],[],[],[],[],389.1593,391.1586,391.1586,391.1588,[],[],[],[],[],[],[],,391.1589,391.159,0.079340278,-0.402104001,0,0,0,,0,50,50,98,1,4,word,CRIMINAL,cursive,criminal_c.png,,,,,
,,,,32201,001,2025-10-17_11h24.39.546,HW_LDT_1,2024.2.4,MacIntel,131.5789474,,,,,,,,,,,,,,,,,,,,,,391.1606,391.3587,391.3588,391.8589,,,,,,,,,,,,,,1.4274,1,,,,,,,,,,,,,,z,,,,,,,,,,,,,,,52,0,391.8592,393.2923,z,1,1.4274,,[],[],[],[],[],[],[],393.2924,395.2923,395.2924,395.2926,[],[],[],[],[],[],[],,395.2927,395.2928,0.079340278,-0.402104001,0,0,0,,0,51,51,63,1,4,TL,miskate,print,miskate_p.png,,,,,
,,,,32201,001,2025-10-17_11h24.39.546,HW_LDT_1,2024.2.4,MacIntel,131.5789474,,,,,,,,,,,,,,,,,,,,,,395.2944,395.4922,395.4923,395.9921,,,,,,,,,,,,,,2.1127,0,,,,,,,,,,,,,,m,,,,,,,,,,,,,,,53,1,395.9925,398.1077,z,0,2.1127,,[],[],[],[],[],[],[],398.1077,400.1086,400.1087,401.6413,[],[],[],[],[],[],[],z,401.6413,401.6414,0.079340278,-0.402104001,0,0,0,,0,52,52,113,1,4,word,LITERAL,cursive,literal_c.png,1.5295,,,,
,,,,32201,001,2025-10-17_11h24.39.546,HW_LDT_1,2024.2.4,MacIntel,131.5789474,,,,,,,,,,,,,,,,,,,,,,401.642,401.8421,401.8421,402.3421,,,,,,,,,,,,,,2.0489,1,,,,,,,,,,,,,,m,,,,,,,,,,,,,,,54,0,402.3428,404.3927,m,1,2.0489,,[],[],[],[],[],[],[],404.3929,406.3921,406.3922,406.3924,[],[],[],[],[],[],[],,406.3924,406.3926,0.079340278,-0.402104001,0,0,0,,0,53,53,89,1,4,word,CAPACITY,cursive,capacity_c.png,,,,,
,,,,32201,001,2025-10-17_11h24.39.546,HW_LDT_1,2024.2.4,MacIntel,131.5789474,,,,,,,,,,,,,,,,,,,,,,406.3942,406.5923,406.5923,407.092,,,,,,,,,,,,,,4.5618,1,,,,,,,,,,,,,,z,,,,,,,,,,,,,,,55,1,407.0925,411.6585,z,1,4.5618,,[],[],[],[],[],[],[],411.6586,413.6582,413.6583,415.1169,[],[],[],[],[],[],[],z,415.1169,415.117,0.079340278,-0.402104001,0,0,0,,0,54,54,13,1,4,RL,crisival,cursive,crisival_c.png,1.4552,,,,
,,,,32201,001,2025-10-17_11h24.39.546,HW_LDT_1,2024.2.4,MacIntel,131.5789474,,,,,,,,,,,,,,,,,,,,,,415.1177,415.3171,415.3172,415.8171,,,,,,,,,,,,,,2.4687,1,,,,,,,,,,,,,,m,,,,,,,,,,,,,,,56,0,415.8178,418.2921,m,1,2.4687,,[],[],[],[],[],[],[],418.2922,420.2921,420.2921,420.2923,[],[],[],[],[],[],[],,420.2923,420.2923,0.079340278,-0.402104001,0,0,0,,0,55,55,140,1,4,word,RELATIVE,print,relative_p.png,,,,,
,,,,32201,001,2025-10-17_11h24.39.546,HW_LDT_1,2024.2.4,MacIntel,131.5789474,,,,,,,,,,,,,,,,,,,,,,420.2932,420.492,420.492,420.9916,,,,,,,,,,,,,,1.863,1,,,,,,,,,,,,,,z,,,,,,,,,,,,,,,57,1,420.9918,422.8578,z,1,1.863,,[],[],[],[],[],[],[],422.8579,424.8586,424.8587,429.0586,[],[],[],[],[],[],[],m,429.0586,429.0587,0.079340278,-0.402104001,0,0,0,,0,56,56,5,1,4,RL,bebine,print,bebine_p.png,4.1946,,,,
,,,,32201,001,2025-10-17_11h24.39.546,HW_LDT_1,2024.2.4,MacIntel,131.5789474,,,,,,,,,,,,,,,,,,,,,,429.0595,429.2589,429.2589,429.7587,,,,,,,,,,,,,,1.9763,1,,,,,,,,,,,,,,m,,,,,,,,,,,,,,,58,0,429.7591,431.7415,m,1,1.9763,,[],[],[],[],[],[],[],431.7416,433.7419,433.742,433.7421,[],[],[],[],[],[],[],,433.7422,433.7423,0.079340278,-0.402104001,0,0,0,,0,57,57,142,1,4,word,REMOTE,cursive,remote_c.png,,,,,
,,,,32201,001,2025-10-17_11h24.39.546,HW_LDT_1,2024.2.4,MacIntel,131.5789474,,,,,,,,,,,,,,,,,,,,,,433.7432,433.9419,433.942,434.4419,,,,,,,,,,,,,,3.1561,1,,,,,,,,,,,,,,z,,,,,,,,,,,,,,,59,0,434.4426,437.6,z,1,3.1561,,[],[],[],[],[],[],[],437.6,439.6003,439.6003,439.6004,[],[],[],[],[],[],[],,439.6004,439.6006,0.079340278,-0.402104001,0,0,0,,0,58,58,36,1,4,RL,rabigly,cursive,rabigly_c.png,,,,,
,,,,32201,001,2025-10-17_11h24.39.546,HW_LDT_1,2024.2.4,MacIntel,131.5789474,,,,,,,,,,,,,,,,,,,,,,439.6019,439.8,439.8002,440.2997,,,,,,,,,,,,,,1.5028,1,,,,,,,,,,,,,,z,,,,,,,,,,,,,,,60,1,440.3001,441.8087,z,1,1.5028,,[],[],[],[],[],[],[],441.8088,443.8083,443.8083,447.2503,[],[],[],[],[],[],[],m,447.2505,447.2506,0.079340278,-0.402104001,0,0,0,,0,59,59,69,1,4,TL,quafily,print,quafily_p.png,3.4378,,,,
,,,,32201,001,2025-10-17_11h24.39.546,HW_LDT_1,2024.2.4,MacIntel,131.5789474,,,,,,,,,,,,,,,,,,,,,,447.2518,447.4502,447.4503,447.9501,,,,,,,,,,,,,,1.3701,1,,,,,,,,,,,,,,z,,,,,,,,,,,,,,,61,0,447.9505,449.3252,z,1,1.3701,,[],[],[],[],[],[],[],449.3254,451.3251,451.3252,451.3253,[],[],[],[],[],[],[],,451.3254,451.3255,0.079340278,-0.402104001,0,0,0,,0,60,60,47,1,4,RL,stopave,print,stopave_p.png,,,,,
,,,,32201,001,2025-10-17_11h24.39.546,HW_LDT_1,2024.2.4,MacIntel,131.5789474,,,,,,,,,,,,,,,,,,,,,,451.3268,451.5251,451.5252,452.0252,,,,,,,,,,,,,,5.9615,0,,,,,,,,,,,,,,m,,,,,,,,,,,,,,,62,0,452.0257,457.9919,z,0,5.9615,,[],[],[],[],[],[],[],457.992,459.9917,459.9918,459.9919,[],[],[],[],[],[],[],,459.992,459.9921,0.079340278,-0.402104001,0,0,0,,0,61,61,102,1,4,word,DENSITY,cursive,density_c.png,,,,,
,,,,32201,001,2025-10-17_11h24.39.546,HW_LDT_1,2024.2.4,MacIntel,131.5789474,,,,,,,,,,,,,,,,,,,,,,459.9928,460.1917,460.1917,460.6918,,,,,,,,,,,,,,2.6271,1,,,,,,,,,,,,,,z,,,,,,,,,,,,,,,63,0,460.6924,463.325,z,1,2.6271,,[],[],[],[],[],[],[],463.3251,465.325,465.3251,465.3252,[],[],[],[],[],[],[],,465.3253,465.3253,0.079340278,-0.402104001,0,0,0,,0,62,62,62,1,4,TL,locigal,print,locigal_p.png,,,,,
,,,,32201,001,2025-10-17_11h24.39.546,HW_LDT_1,2024.2.4,MacIntel,131.5789474,,,,,,,,,,,,,,,,,,,,,,465.3261,465.5251,465.5252,466.025,,,,,,,,,,,,,,0.9235,1,,,,,,,,,,,,,,z,,,,,,,,,,,,,,,64,0,466.0258,466.9505,z,1,0.9235,,[],[],[],[],[],[],[],466.9506,468.9499,468.9499,468.9501,[],[],[],[],[],[],[],,468.9501,468.9502,0.079340278,-0.402104001,0,0,0,,0,63,63,57,1,4,TL,etidor,print,etidor_p.png,,,,,
,,,,32201,001,2025-10-17_11h24.39.546,HW_LDT_1,2024.2.4,MacIntel,131.5789474,,,,,,,,,,,,,,,,,,,,,,468.951,469.15,469.1501,469.6499,,,,,,,,,,,,,,1.0431,1,,,,,,,,,,,,,,z,,,,,,,,,,,,,,,65,0,469.6506,470.7,z,1,1.0431,,[],[],[],[],[],[],[],470.7,472.6999,472.7,472.7002,[],[],[],[],[],[],[],,472.7002,472.7003,0.079340278,-0.402104001,0,0,0,,0,64,64,65,1,4,TL,orepator,print,orepator_p.png,,,,,
,,,,32201,001,2025-10-17_11h24.39.546,HW_LDT_1,2024.2.4,MacIntel,131.5789474,,,,,,,,,,,,,,,,,,,,,,472.701,472.8999,472.9,473.3999,,,,,,,,,,,,,,2.5803,1,,,,,,,,,,,,,,z,,,,,,,,,,,,,,,66,1,473.4005,475.9833,z,1,2.5803,,[],[],[],[],[],[],[],475.9834,477.9832,477.9833,479.3917,[],[],[],[],[],[],[],z,479.3918,479.3918,0.079340278,-0.402104001,0,0,0,,0,65,65,1,1,4,RL,afaneur,cursive,afaneur_c.png,1.4032,,,,
,,,,32201,001,2025-10-17_11h24.39.546,HW_LDT_1,2024.2.4,MacIntel,131.5789474,,,,,,,,,,,,,,,,,,,,,,479.3931,479.5915,479.5915,480.0916,,,,,,,,,,,,,,1.9773,1,,,,,,,,,,,,,,m,,,,,,,,,,,,,,,67,0,480.0923,482.0747,m,1,1.9773,,[],[],[],[],[],[],[],482.0748,484.0751,484.0751,484.0753,[],[],[],[],[],[],[],,484.0753,484.0754,0.079340278,-0.402104001,0,0,0,,0,66,66,125,1,4,word,OPERATOR,print,operator_p.png,,,,,
,,,,32201,001,2025-10-17_11h24.39.546,HW_LDT_1,2024.2.4,MacIntel,131.5789474,,,,,,,,,,,,,,,,,,,,,,484.0767,484.2742,484.2743,484.7746,,,,,,,,,,,,,,2.6649,1,,,,,,,,,,,,,,z,,,,,,,,,,,,,,,68,0,484.7752,487.4413,z,1,2.6649,,[],[],[],[],[],[],[],487.4415,489.4415,489.4415,489.4417,[],[],[],[],[],[],[],,489.4417,489.4418,0.079340278,-0.402104001,0,0,0,,0,67,67,61,1,4,TL,lotace,cursive,lotace_c.png,,,,,
,,,,32201,001,2025-10-17_11h24.39.546,HW_LDT_1,2024.2.4,MacIntel,131.5789474,,,,,,,,,,,,,,,,,,,,,,489.443,489.6414,489.6416,490.1409,,,,,,,,,,,,,,2.1545,1,,,,,,,,,,,,,,m,,,,,,,,,,,,,,,69,0,490.1411,492.2997,m,1,2.1545,,[],[],[],[],[],[],[],492.2999,494.2996,494.2997,494.2999,[],[],[],[],[],[],[],,494.2999,494.3001,0.079340278,-0.402104001,0,0,0,,0,68,68,100,1,4,word,DECADE,cursive,decade_c.png,,,,,
,,,,32201,001,2025-10-17_11h24.39.546,HW_LDT_1,2024.2.4,MacIntel,131.5789474,,,,,,,,,,,,,,,,,,,,,,494.3011,494.4994,494.4996,494.9997,,,,,,,,,,,,,,2.3272,1,,,,,,,,,,,,,,z,,,,,,,,,,,,,,,70,1,495.0003,497.332,z,1,2.3272,,[],[],[],[],[],[],[],497.3321,499.3329,499.3331,500.7418,[],[],[],[],[],[],[],z,500.7419,500.7421,0.079340278,-0.402104001,0,0,0,,0,69,69,72,1,4,TL,relugar,cursive,relugar_c.png,1.4079,,,,
,,,,32201,001,2025-10-17_11h24.39.546,HW_LDT_1,2024.2.4,MacIntel,131.5789474,,,,,,,,,,,,,,,,,,,,,,500.7433,500.9411,500.9412,501.4415,,,,,,,,,,,,,,5.1642,1,,,,,,,,,,,,,,z,,,,,,,,,,,,,,,71,0,501.4423,506.6077,z,1,5.1642,,[],[],[],[],[],[],[],506.6078,508.6081,508.6082,508.6086,[],[],[],[],[],[],[],,508.6087,508.6088,0.079340278,-0.402104001,0,0,0,,0,70,70,30,1,4,RL,nunewical,cursive,nunewical_c.png,,,,,
,,,,32201,001,2025-10-17_11h24.39.546,HW_LDT_1,2024.2.4,MacIntel,131.5789474,,,,,,,,,,,,,,,,,,,,,,508.6099,508.8079,508.8079,509.308,,,,,,,,,,,,,,1.6109,1,,,,,,,,,,,,,,m,,,,,,,,,,,,,,,72,0,509.3087,510.9234,m,1,1.6109,,[],[],[],[],[],[],[],510.9235,512.9246,512.9247,512.925,[],[],[],[],[],[],[],,512.9251,512.9251,0.079340278,-0.402104001,0,0,0,,0,71,71,129,1,4,word,PARENT,cursive,parent_c.png,,,,,
,,,,32201,001,2025-10-17_11h24.39.546,HW_LDT_1,2024.2.4,MacIntel,131.5789474,,,,,,,,,,,,,,,,,,,,,,512.9268,513.1246,513.1246,513.6247,,,,,,,,,,,,,,0.9608,1,,,,,,,,,,,,,,m,,,,,,,,,,,,,,,73,0,513.6254,514.5913,m,1,0.9608,,[],[],[],[],[],[],[],514.5914,516.5911,516.5911,516.5912,[],[],[],[],[],[],[],,516.5912,516.5913,0.079340278,-0.402104001,0,0,0,,0,72,72,83,1,4,word,ANIMAL,cursive,animal_c.png,,,,,
,,,,32201,001,2025-10-17_11h24.39.546,HW_LDT_1,2024.2.4,MacIntel,131.5789474,,,,,,,,,,,,,,,,,,,,,,516.5924,516.7912,516.7913,517.2915,,,,,,,,,,,,,,1.0186,1,,,,,,,,,,,,,,z,,,,,,,,,,,,,,,74,0,517.2922,518.3163,z,1,1.0186,,[],[],[],[],[],[],[],518.3164,520.3162,520.3163,520.3164,[],[],[],[],[],[],[],,520.3165,520.3166,0.079340278,-0.402104001,0,0,0,,0,73,73,11,1,4,RL,clisimal,print,clisimal_p.png,,,,,
,,,,32201,001,2025-10-17_11h24.39.546,HW_LDT_1,2024.2.4,MacIntel,131.5789474,,,,,,,,,,,,,,,,,,,,,,520.3176,520.5153,520.5153,521.0162,,,,,,,,,,,,,,1.5596,1,,,,,,,,,,,,,,m,,,,,,,,,,,,,,,75,0,521.0169,522.5817,m,1,1.5596,,[],[],[],[],[],[],[],522.5818,524.5829,524.5829,524.5831,[],[],[],[],[],[],[],,524.5831,524.5832,0.079340278,-0.402104001,0,0,0,,0,74,74,107,1,4,word,EVIDENT,print,evident_p.png,,,,,
,,,,32201,001,2025-10-17_11h24.39.546,HW_LDT_1,2024.2.4,MacIntel,131.5789474,,,,,,,,,,,,,,,,,,,,,,524.5844,524.7828,524.7829,525.2828,,,,,,,,,,,,,,1.9367,1,,,,,,,,,,,,,,z,,,,,,,,,,,,,,,76,0,525.2835,527.2248,z,1,1.9367,,[],[],[],[],[],[],[],527.225,529.2246,529.2246,529.2248,[],[],[],[],[],[],[],,529.2249,529.225,0.079340278,-0.402104001,0,0,0,,0,75,75,16,1,4,RL,desifate,cursive,desifate_c.png,,,,,
,,,,32201,001,2025-10-17_11h24.39.546,HW_LDT_1,2024.2.4,MacIntel,131.5789474,,,,,,,,,,,,,,,,,,,,,,529.2262,529.4245,529.4246,529.9245,,,,,,,,,,,,,,2.5535,1,,,,,,,,,,,,,,z,,,,,,,,,,,,,,,77,0,529.9252,532.4823,z,1,2.5535,,[],[],[],[],[],[],[],532.4825,534.4828,534.4829,534.4831,[],[],[],[],[],[],[],,534.4831,534.4833,0.079340278,-0.402104001,0,0,0,,0,76,76,34,1,4,RL,posity,cursive,posity_c.png,,,,,
,,,,32201,001,2025-10-17_11h24.39.546,HW_LDT_1,2024.2.4,MacIntel,131.5789474,,,,,,,,,,,,,,,,,,,,,,534.4848,534.683,534.6831,535.1829,,,,,,,,,,,,,,2.5023,1,,,,,,,,,,,,,,z,,,,,,,,,,,,,,,78,0,535.1837,537.6912,z,1,2.5023,,[],[],[],[],[],[],[],537.6913,539.6911,539.6911,539.6914,[],[],[],[],[],[],[],,539.6914,539.6915,0.079340278,-0.402104001,0,0,0,,0,77,77,60,1,4,TL,hetirage,print,hetirage_p.png,,,,,
,,,,32201,001,2025-10-17_11h24.39.546,HW_LDT_1,2024.2.4,MacIntel,131.5789474,,,,,,,,,,,,,,,,,,,,,,539.6928,539.891,539.891,540.3911,,,,,,,,,,,,,,1.1286,0,,,,,,,,,,,,,,m,,,,,,,,,,,,,,,79,0,540.3919,541.5244,z,0,1.1286,,[],[],[],[],[],[],[],541.5245,543.5242,543.5242,543.5243,[],[],[],[],[],[],[],,543.5243,543.5244,0.079340278,-0.402104001,0,0,0,,0,78,78,87,1,4,word,CAFETERIA,cursive,cafeteria_c.png,,,,,
,,,,32201,001,2025-10-17_11h24.39.546,HW_LDT_1,2024.2.4,MacIntel,131.5789474,,,,,,,,,,,,,,,,,,,,,,543.525,543.7243,543.7244,544.2238,,,,,,,,,,,,,,1.5448,1,,,,,,,,,,,,,,z,,,,,,,,,,,,,,,80,1,544.2246,545.7745,z,1,1.5448,,[],[],[],[],[],[],[],545.7745,547.7743,547.7743,550.166,[],[],[],[],[],[],[],z,550.1661,711.5642,0.008271329,-0.380770503,1,0,0,,0,79,79,71,1,4,TL,racidal,print,racidal_p.png,2.3906,,break_done_button,,
,,,,32201,001,2025-10-17_11h24.39.546,HW_LDT_1,2024.2.4,MacIntel,131.5789474,,,,,,,,,,,,,,,,,,,,,,711.565,711.7648,711.7649,712.264,,,,,,,,,,,,,,5.6449,1,,,,,,,,,,,,,,z,,,,,,,,,,,,,,,81,0,712.2646,717.915,z,1,5.6449,,[],[],[],[],[],[],[],717.9152,719.9147,719.9148,719.915,[],[],[],[],[],[],[],,719.915,719.9151,0.008271329,-0.380770503,0,0,0,,0,80,80,27,1,4,RL,menowy,print,menowy_p.png,,,,,
,,,,32201,001,2025-10-17_11h24.39.546,HW_LDT_1,2024.2.4,MacIntel,131.5789474,,,,,,,,,,,,,,,,,,,,,,719.9164,720.1148,720.1148,720.6145,,,,,,,,,,,,,,1.6805,1,,,,,,,,,,,,,,m,,,,,,,,,,,,,,,82,0,720.6147,722.2974,m,1,1.6805,,[],[],[],[],[],[],[],722.2975,724.298,724.2981,724.2982,[],[],[],[],[],[],[],,724.2982,724.2984,0.008271329,-0.380770503,0,0,0,,0,81,81,81,1,4,word,ADVISORY,cursive,advisory_c.png,,,,,
,,,,32201,001,2025-10-17_11h24.39.546,HW_LDT_1,2024.2.4,MacIntel,131.5789474,,,,,,,,,,,,,,,,,,,,,,724.2996,724.4979,724.4979,724.9973,,,,,,,,,,,,,,1.5368,1,,,,,,,,,,,,,,z,,,,,,,,,,,,,,,83,0,724.998,726.5397,z,1,1.5368,,[],[],[],[],[],[],[],726.5399,728.5389,728.539,728.5393,[],[],[],[],[],[],[],,728.5394,728.5394,0.008271329,-0.380770503,0,0,0,,0,82,82,6,1,4,RL,caleberia,cursive,caleberia_c.png,,,,,
,,,,32201,001,2025-10-17_11h24.39.546,HW_LDT_1,2024.2.4,MacIntel,131.5789474,,,,,,,,,,,,,,,,,,,,,,728.541,728.7398,728.7399,729.2397,,,,,,,,,,,,,,1.8517,1,,,,,,,,,,,,,,z,,,,,,,,,,,,,,,84,0,729.2404,731.0982,z,1,1.8517,,[],[],[],[],[],[],[],731.0983,733.0979,733.0979,733.0981,[],[],[],[],[],[],[],,733.0981,733.0982,0.008271329,-0.380770503,0,0,0,,0,83,83,0,1,4,RL,abanemy,print,abanemy_p.png,,,,,
,,,,32201,001,2025-10-17_11h24.39.546,HW_LDT_1,2024.2.4,MacIntel,131.5789474,,,,,,,,,,,,,,,,,,,,,,733.0993,733.2981,733.2981,733.7972,,,,,,,,,,,,,,0.8455,1,,,,,,,,,,,,,,z,,,,,,,,,,,,,,,85,0,733.7978,734.6482,z,1,0.8455,,[],[],[],[],[],[],[],734.6482,736.6479,736.648,736.6482,[],[],[],[],[],[],[],,736.6482,736.6483,0.008271329,-0.380770503,0,0,0,,0,84,84,20,1,4,RL,gralekul,print,gralekul_p.png,,,,,
,,,,32201,001,2025-10-17_11h24.39.546,HW_LDT_1,2024.2.4,MacIntel,131.5789474,,,,,,,,,,,,,,,,,,,,,,736.6497,736.848,736.8481,737.3477,,,,,,,,,,,,,,1.0613,1,,,,,,,,,,,,,,m,,,,,,,,,,,,,,,86,0,737.3483,738.4148,m,1,1.0613,,[],[],[],[],[],[],[],738.415,740.4147,740.4148,740.4153,[],[],[],[],[],[],[],,740.4154,740.4155,0.008271329,-0.380770503,0,0,0,,0,85,85,94,1,4,word,CLINICAL,print,clinical_p.png,,,,,
,,,,32201,001,2025-10-17_11h24.39.546,HW_LDT_1,2024.2.4,MacIntel,131.5789474,,,,,,,,,,,,,,,,,,,,,,740.4168,740.6147,740.6147,741.1147,,,,,,,,,,,,,,3.6438,1,,,,,,,,,,,,,,z,,,,,,,,,,,,,,,87,0,741.1154,744.7645,z,1,3.6438,,[],[],[],[],[],[],[],744.7645,746.7646,746.7648,746.765,[],[],[],[],[],[],[],,746.7651,746.7652,0.008271329,-0.380770503,0,0,0,,0,86,86,77,1,4,TL,spemicen,cursive,spemicen_c.png,,,,,
,,,,32201,001,2025-10-17_11h24.39.546,HW_LDT_1,2024.2.4,MacIntel,131.5789474,,,,,,,,,,,,,,,,,,,,,,746.7662,746.9645,746.9645,747.4647,,,,,,,,,,,,,,1.5112,0,,,,,,,,,,,,,,m,,,,,,,,,,,,,,,88,0,747.4653,748.981,z,0,1.5112,,[],[],[],[],[],[],[],748.9811,750.981,750.981,750.9811,[],[],[],[],[],[],[],,750.9811,750.9811,0.008271329,-0.380770503,0,0,0,,0,87,87,114,1,4,word,LOCATE,cursive,locate_c.png,,,,,
,,,,32201,001,2025-10-17_11h24.39.546,HW_LDT_1,2024.2.4,MacIntel,131.5789474,,,,,,,,,,,,,,,,,,,,,,750.9819,751.1814,751.1814,751.6813,,,,,,,,,,,,,,3.6438,1,,,,,,,,,,,,,,m,,,,,,,,,,,,,,,89,0,751.6822,755.3313,m,1,3.6438,,[],[],[],[],[],[],[],755.3314,757.3313,757.3313,757.3316,[],[],[],[],[],[],[],,757.3317,757.3318,0.008271329,-0.380770503,0,0,0,,0,88,88,151,1,4,word,SPECIFIC,cursive,specific_c.png,,,,,
,,,,32201,001,2025-10-17_11h24.39.546,HW_LDT_1,2024.2.4,MacIntel,131.5789474,,,,,,,,,,,,,,,,,,,,,,757.3333,757.5309,757.531,758.0311,,,,,,,,,,,,,,1.8026,1,,,,,,,,,,,,,,z,,,,,,,,,,,,,,,90,0,758.0318,759.8393,z,1,1.8026,,[],[],[],[],[],[],[],759.8394,761.8394,761.8394,761.8396,[],[],[],[],[],[],[],,761.8397,761.8397,0.008271329,-0.380770503,0,0,0,,0,89,89,53,1,4,TL,cemerony,print,cemerony_p.png,,,,,
,,,,32201,001,2025-10-17_11h24.39.546,HW_LDT_1,2024.2.4,MacIntel,131.5789474,,,,,,,,,,,,,,,,,,,,,,761.8411,762.0393,762.0394,762.5395,,,,,,,,,,,,,,3.2771,1,,,,,,,,,,,,,,z,,,,,,,,,,,,,,,91,0,762.54,765.823,z,1,3.2771,,[],[],[],[],[],[],[],765.8231,767.8226,767.8227,767.8229,[],[],[],[],[],[],[],,767.8229,767.8231,0.008271329,-0.380770503,0,0,0,,0,90,90,35,1,4,RL,probice,cursive,probice_c.png,,,,,
,,,,32201,001,2025-10-17_11h24.39.546,HW_LDT_1,2024.2.4,MacIntel,131.5789474,,,,,,,,,,,,,,,,,,,,,,767.8243,768.0229,768.023,768.5227,,,,,,,,,,,,,,1.5944,1,,,,,,,,,,,,,,m,,,,,,,,,,,,,,,92,0,768.5232,770.123,m,1,1.5944,,[],[],[],[],[],[],[],770.1231,772.1228,772.1229,772.123,[],[],[],[],[],[],[],,772.1231,772.1231,0.008271329,-0.380770503,0,0,0,,0,91,91,153,1,4,word,STOLEN,cursive,stolen_c.png,,,,,
,,,,32201,001,2025-10-17_11h24.39.546,HW_LDT_1,2024.2.4,MacIntel,131.5789474,,,,,,,,,,,,,,,,,,,,,,772.1243,772.3229,772.323,772.822,,,,,,,,,,,,,,1.6559,1,,,,,,,,,,,,,,m,,,,,,,,,,,,,,,93,0,772.8227,774.481,m,1,1.6559,,[],[],[],[],[],[],[],774.4811,776.4811,776.4811,776.4814,[],[],[],[],[],[],[],,776.4814,776.4816,0.008271329,-0.380770503,0,0,0,,0,92,92,135,1,4,word,QUALITY,print,quality_p.png,,,,,
,,,,32201,001,2025-10-17_11h24.39.546,HW_LDT_1,2024.2.4,MacIntel,131.5789474,,,,,,,,,,,,,,,,,,,,,,776.4831,776.6811,776.6812,777.1812,,,,,,,,,,,,,,3.2446,1,,,,,,,,,,,,,,z,,,,,,,,,,,,,,,94,0,777.1819,780.4311,z,1,3.2446,,[],[],[],[],[],[],[],780.4312,782.4309,782.431,782.4312,[],[],[],[],[],[],[],,782.4313,782.4314,0.008271329,-0.380770503,0,0,0,,0,93,93,55,1,4,TL,corevage,cursive,corevage_c.png,,,,,
,,,,32201,001,2025-10-17_11h24.39.546,HW_LDT_1,2024.2.4,MacIntel,131.5789474,,,,,,,,,,,,,,,,,,,,,,782.4326,782.6311,782.6312,783.1307,,,,,,,,,,,,,,1.1356,1,,,,,,,,,,,,,,z,,,,,,,,,,,,,,,95,0,783.1314,784.273,z,1,1.1356,,[],[],[],[],[],[],[],784.2731,786.2721,786.2721,786.2723,[],[],[],[],[],[],[],,786.2723,786.2724,0.008271329,-0.380770503,0,0,0,,0,94,94,64,1,4,TL,moredate,print,moredate_p.png,,,,,
,,,,32201,001,2025-10-17_11h24.39.546,HW_LDT_1,2024.2.4,MacIntel,131.5789474,,,,,,,,,,,,,,,,,,,,,,786.2736,786.4728,786.4729,786.9723,,,,,,,,,,,,,,1.6569,1,,,,,,,,,,,,,,z,,,,,,,,,,,,,,,96,1,786.9725,788.6309,z,1,1.6569,,[],[],[],[],[],[],[],788.631,790.6308,790.6308,791.789,[],[],[],[],[],[],[],m,791.7891,791.7891,0.008271329,-0.380770503,0,0,0,,0,95,95,79,1,4,TL,tritube,print,tritube_p.png,1.1518,,,,
,,,,32201,001,2025-10-17_11h24.39.546,HW_LDT_1,2024.2.4,MacIntel,131.5789474,,,,,,,,,,,,,,,,,,,,,,791.7901,791.9892,791.9892,792.4894,,,,,,,,,,,,,,3.111,1,,,,,,,,,,,,,,z,,,,,,,,,,,,,,,97,0,792.49,795.6062,z,1,3.111,,[],[],[],[],[],[],[],795.6063,797.6059,797.606,797.6063,[],[],[],[],[],[],[],,797.6064,797.6065,0.008271329,-0.380770503,0,0,0,,0,96,96,56,1,4,TL,donimant,cursive,donimant_c.png,,,,,
,,,,32201,001,2025-10-17_11h24.39.546,HW_LDT_1,2024.2.4,MacIntel,131.5789474,,,,,,,,,,,,,,,,,,,,,,797.6084,797.8061,797.8061,798.3059,,,,,,,,,,,,,,1.6714,1,,,,,,,,,,,,,,m,,,,,,,,,,,,,,,98,0,798.3067,799.9807,m,1,1.6714,,[],[],[],[],[],[],[],799.9809,801.981,801.981,801.9812,[],[],[],[],[],[],[],,801.9813,801.9814,0.008271329,-0.380770503,0,0,0,,0,97,97,91,1,4,word,CARDINAL,cursive,cardinal_c.png,,,,,
,,,,32201,001,2025-10-17_11h24.39.546,HW_LDT_1,2024.2.4,MacIntel,131.5789474,,,,,,,,,,,,,,,,,,,,,,801.9827,802.181,802.181,802.6808,,,,,,,,,,,,,,0.9882,1,,,,,,,,,,,,,,z,,,,,,,,,,,,,,,99,1,802.6812,803.6724,z,1,0.9882,,[],[],[],[],[],[],[],803.6725,805.6727,805.6728,807.7717,[],[],[],[],[],[],[],z,807.7718,807.7719,0.008271329,-0.380770503,0,0,0,,0,98,98,68,1,4,TL,prosopal,print,prosopal_p.png,2.0942,,,,
,,,,32201,001,2025-10-17_11h24.39.546,HW_LDT_1,2024.2.4,MacIntel,131.5789474,,,,,,,,,,,,,,,,,,,,,,807.7731,807.9722,807.9722,808.4723,,,,,,,,,,,,,,2.0438,1,,,,,,,,,,,,,,m,,,,,,,,,,,,,,,100,0,808.4729,810.5226,m,1,2.0438,,[],[],[],[],[],[],[],810.5227,812.5224,812.5225,812.5226,[],[],[],[],[],[],[],,812.5227,812.5228,0.008271329,-0.380770503,0,0,0,,0,99,99,88,1,4,word,CAMERA,print,camera_p.png,,,,,
,,,,32201,001,2025-10-17_11h24.39.546,HW_LDT_1,2024.2.4,MacIntel,131.5789474,,,,,,,,,,,,,,,,,,,,,,812.5241,812.7223,812.7224,813.222,,,,,,,,,,,,,,0.8285,1,,,,,,,,,,,,,,z,,,,,,,,,,,,,,,101,0,813.2226,814.0553,z,1,0.8285,,[],[],[],[],[],[],[],814.0554,816.0552,816.0554,816.0557,[],[],[],[],[],[],[],,816.0557,816.0559,0.008271329,-0.380770503,0,0,0,,0,100,100,44,1,4,RL,senvilent,print,senvilent_p.png,,,,,
,,,,32201,001,2025-10-17_11h24.39.546,HW_LDT_1,2024.2.4,MacIntel,131.5789474,,,,,,,,,,,,,,,,,,,,,,816.0573,816.2559,816.2559,816.7557,,,,,,,,,,,,,,0.704,0,,,,,,,,,,,,,,m,,,,,,,,,,,,,,,102,0,816.7565,817.4642,z,0,0.704,,[],[],[],[],[],[],[],817.4643,819.464,819.4641,819.4643,[],[],[],[],[],[],[],,819.4643,819.4644,0.008271329,-0.380770503,0,0,0,,0,101,101,108,1,4,word,FORTUNE,cursive,fortune_c.png,,,,,
,,,,32201,001,2025-10-17_11h24.39.546,HW_LDT_1,2024.2.4,MacIntel,131.5789474,,,,,,,,,,,,,,,,,,,,,,819.4656,819.6641,819.6641,820.1643,,,,,,,,,,,,,,4.8191,1,,,,,,,,,,,,,,z,,,,,,,,,,,,,,,103,0,820.165,824.9891,z,1,4.8191,,[],[],[],[],[],[],[],824.9892,826.989,826.9891,826.9893,[],[],[],[],[],[],[],,826.9893,826.9895,0.008271329,-0.380770503,0,0,0,,0,102,102,33,1,4,RL,pamest,cursive,pamest_c.png,,,,,
,,,,32201,001,2025-10-17_11h24.39.546,HW_LDT_1,2024.2.4,MacIntel,131.5789474,,,,,,,,,,,,,,,,,,,,,,826.9909,827.1891,827.1892,827.6891,,,,,,,,,,,,,,3.7646,1,,,,,,,,,,,,,,z,,,,,,,,,,,,,,,104,0,827.6899,831.4557,z,1,3.7646,,[],[],[],[],[],[],[],831.4559,833.4558,833.4558,833.4561,[],[],[],[],[],[],[],,833.4562,833.4564,0.008271329,-0.380770503,0,0,0,,0,103,103,45,1,4,RL,spetisic,cursive,spetisic_c.png,,,,,
,,,,32201,001,2025-10-17_11h24.39.546,HW_LDT_1,2024.2.4,MacIntel,131.5789474,,,,,,,,,,,,,,,,,,,,,,833.4577,833.6557,833.6558,834.1556,,,,,,,,,,,,,,3.1857,1,,,,,,,,,,,,,,z,,,,,,,,,,,,,,,105,0,834.1562,837.3475,z,1,3.1857,,[],[],[],[],[],[],[],837.3477,839.3473,839.3473,839.3475,[],[],[],[],[],[],[],,839.3476,839.3477,0.008271329,-0.380770503,0,0,0,,0,104,104,15,1,4,RL,debave,cursive,debave_c.png,,,,,
,,,,32201,001,2025-10-17_11h24.39.546,HW_LDT_1,2024.2.4,MacIntel,131.5789474,,,,,,,,,,,,,,,,,,,,,,839.3487,839.5473,839.5473,840.0473,,,,,,,,,,,,,,1.6445,1,,,,,,,,,,,,,,m,,,,,,,,,,,,,,,106,0,840.0479,841.6972,m,1,1.6445,,[],[],[],[],[],[],[],841.6974,843.693,843.693,843.6932,[],[],[],[],[],[],[],,843.6933,843.6933,0.008271329,-0.380770503,0,0,0,,0,105,105,121,1,4,word,MISTAKE,print,mistake_p.png,,,,,
,,,,32201,001,2025-10-17_11h24.39.546,HW_LDT_1,2024.2.4,MacIntel,131.5789474,,,,,,,,,,,,,,,,,,,,,,843.6947,843.8931,843.8932,844.3932,,,,,,,,,,,,,,2.3501,1,,,,,,,,,,,,,,z,,,,,,,,,,,,,,,107,0,844.394,846.7512,z,1,2.3501,,[],[],[],[],[],[],[],846.7513,848.7513,848.7514,848.7516,[],[],[],[],[],[],[],,848.7516,848.7518,0.008271329,-0.380770503,0,0,0,,0,106,106,58,1,4,TL,edivent,print,edivent_p.png,,,,,
,,,,32201,001,2025-10-17_11h24.39.546,HW_LDT_1,2024.2.4,MacIntel,131.5789474,,,,,,,,,,,,,,,,,,,,,,848.7534,848.9514,848.9515,849.4513,,,,,,,,,,,,,,1.1431,1,,,,,,,,,,,,,,m,,,,,,,,,,,,,,,108,0,849.452,850.6011,m,1,1.1431,,[],[],[],[],[],[],[],850.6012,852.6007,852.6007,852.601,[],[],[],[],[],[],[],,852.601,852.6011,0.008271329,-0.380770503,0,0,0,,0,107,107,80,1,4,word,ACADEMY,print,academy_p.png,,,,,
,,,,32201,001,2025-10-17_11h24.39.546,HW_LDT_1,2024.2.4,MacIntel,131.5789474,,,,,,,,,,,,,,,,,,,,,,852.6023,852.8014,852.8015,853.3004,,,,,,,,,,,,,,1.2649,1,,,,,,,,,,,,,,m,,,,,,,,,,,,,,,109,0,853.301,854.5678,m,1,1.2649,,[],[],[],[],[],[],[],854.5678,856.5676,856.5676,856.5677,[],[],[],[],[],[],[],,856.5677,856.5678,0.008271329,-0.380770503,0,0,0,,0,108,108,111,1,4,word,INDICATE,print,indicate_p.png,,,,,
,,,,32201,001,2025-10-17_11h24.39.546,HW_LDT_1,2024.2.4,MacIntel,131.5789474,,,,,,,,,,,,,,,,,,,,,,856.5688,856.768,856.7681,857.2679,,,,,,,,,,,,,,1.1307,1,,,,,,,,,,,,,,m,,,,,,,,,,,,,,,110,0,857.2684,858.4013,m,1,1.1307,,[],[],[],[],[],[],[],858.4014,860.4014,860.4015,860.4017,[],[],[],[],[],[],[],,860.4018,860.4019,0.008271329,-0.380770503,0,0,0,,0,109,109,148,1,4,word,SALINE,print,saline_p.png,,,,,
,,,,32201,001,2025-10-17_11h24.39.546,HW_LDT_1,2024.2.4,MacIntel,131.5789474,,,,,,,,,,,,,,,,,,,,,,860.4036,860.601,860.6011,861.1012,,,,,,,,,,,,,,2.5712,1,,,,,,,,,,,,,,z,,,,,,,,,,,,,,,111,0,861.1019,863.6765,z,1,2.5712,,[],[],[],[],[],[],[],863.6765,865.6764,865.6764,865.6766,[],[],[],[],[],[],[],,865.6767,865.6768,0.008271329,-0.380770503,0,0,0,,0,110,110,50,1,4,RL,vecelan,cursive,vecelan_c.png,,,,,
,,,,32201,001,2025-10-17_11h24.39.546,HW_LDT_1,2024.2.4,MacIntel,131.5789474,,,,,,,,,,,,,,,,,,,,,,865.6782,865.8762,865.8763,866.3762,,,,,,,,,,,,,,1.9445,1,,,,,,,,,,,,,,z,,,,,,,,,,,,,,,112,1,866.3768,868.3264,z,1,1.9445,,[],[],[],[],[],[],[],868.3265,870.3264,870.3264,871.2513,[],[],[],[],[],[],[],m,871.2515,871.2515,0.008271329,-0.380770503,0,0,0,,0,111,111,21,1,4,RL,insibate,print,insibate_p.png,0.9197,,,,
,,,,32201,001,2025-10-17_11h24.39.546,HW_LDT_1,2024.2.4,MacIntel,131.5789474,,,,,,,,,,,,,,,,,,,,,,871.2529,871.4514,871.4515,871.9512,,,,,,,,,,,,,,3.3538,1,,,,,,,,,,,,,,m,,,,,,,,,,,,,,,113,0,871.9517,875.3097,m,1,3.3538,,[],[],[],[],[],[],[],875.3098,877.3096,877.3097,877.3098,[],[],[],[],[],[],[],,877.3098,877.31,0.008271329,-0.380770503,0,0,0,,0,112,112,133,1,4,word,PROVIDE,cursive,provide_c.png,,,,,
,,,,32201,001,2025-10-17_11h24.39.546,HW_LDT_1,2024.2.4,MacIntel,131.5789474,,,,,,,,,,,,,,,,,,,,,,877.3113,877.5092,877.5092,878.0098,,,,,,,,,,,,,,1.3597,1,,,,,,,,,,,,,,m,,,,,,,,,,,,,,,114,0,878.0106,879.3761,m,1,1.3597,,[],[],[],[],[],[],[],879.3761,881.3721,881.3721,881.3724,[],[],[],[],[],[],[],,881.3724,881.3725,0.008271329,-0.380770503,0,0,0,,0,113,113,131,1,4,word,POPULAR,print,popular_p.png,,,,,
,,,,32201,001,2025-10-17_11h24.39.546,HW_LDT_1,2024.2.4,MacIntel,131.5789474,,,,,,,,,,,,,,,,,,,,,,881.3739,881.5722,881.5723,882.0719,,,,,,,,,,,,,,0.9362,1,,,,,,,,,,,,,,m,,,,,,,,,,,,,,,115,0,882.0726,883.0138,m,1,0.9362,,[],[],[],[],[],[],[],883.014,885.0135,885.0137,885.0137,[],[],[],[],[],[],[],,885.0138,885.0139,0.008271329,-0.380770503,0,0,0,,0,114,114,115,1,4,word,LOGICAL,print,logical_p.png,,,,,
,,,,32201,001,2025-10-17_11h24.39.546,HW_LDT_1,2024.2.4,MacIntel,131.5789474,,,,,,,,,,,,,,,,,,,,,,885.0151,885.2135,885.2136,885.7138,,,,,,,,,,,,,,1.8981,1,,,,,,,,,,,,,,z,,,,,,,,,,,,,,,116,0,885.7145,887.6131,z,1,1.8981,,[],[],[],[],[],[],[],887.6132,889.6095,889.6096,889.6098,[],[],[],[],[],[],[],,889.6099,889.61,0.008271329,-0.380770503,0,0,0,,0,115,115,41,1,4,RL,rebicent,cursive,rebicent_c.png,,,,,
,,,,32201,001,2025-10-17_11h24.39.546,HW_LDT_1,2024.2.4,MacIntel,131.5789474,,,,,,,,,,,,,,,,,,,,,,889.6122,889.8094,889.8094,890.3095,,,,,,,,,,,,,,4.7771,1,,,,,,,,,,,,,,z,,,,,,,,,,,,,,,117,0,890.3103,895.0928,z,1,4.7771,,[],[],[],[],[],[],[],895.0929,897.0885,897.0885,897.0886,[],[],[],[],[],[],[],,897.0886,897.0887,0.008271329,-0.380770503,0,0,0,,0,116,116,49,1,4,RL,vesofity,cursive,vesofity_c.png,,,,,
,,,,32201,001,2025-10-17_11h24.39.546,HW_LDT_1,2024.2.4,MacIntel,131.5789474,,,,,,,,,,,,,,,,,,,,,,897.0897,897.2886,897.2886,897.7885,,,,,,,,,,,,,,0.8024,1,,,,,,,,,,,,,,z,,,,,,,,,,,,,,,118,0,897.7893,898.5968,z,1,0.8024,,[],[],[],[],[],[],[],898.5969,900.5965,900.5965,900.5966,[],[],[],[],[],[],[],,900.5966,900.5967,0.008271329,-0.380770503,0,0,0,,0,117,117,31,1,4,RL,orimipal,print,orimipal_p.png,,,,,
,,,,32201,001,2025-10-17_11h24.39.546,HW_LDT_1,2024.2.4,MacIntel,131.5789474,,,,,,,,,,,,,,,,,,,,,,900.5971,900.7965,900.7965,901.2969,,,,,,,,,,,,,,2.1017,1,,,,,,,,,,,,,,m,,,,,,,,,,,,,,,119,0,901.2977,903.4053,m,1,2.1017,,[],[],[],[],[],[],[],903.4054,905.4052,905.4052,905.4054,[],[],[],[],[],[],[],,905.4055,905.4055,0.008271329,-0.380770503,0,0,0,,0,118,118,103,1,4,word,DISPUTE,print,dispute_p.png,,,,,
,,,,32201,001,2025-10-17_11h24.39.546,HW_LDT_1,2024.2.4,MacIntel,131.5789474,,,,,,,,,,,,,,,,,,,,,,905.4068,905.6053,905.6054,906.1051,,,,,,,,,,,,,,2.2107,0,,,,,,,,,,,,,,m,,,,,,,,,,,,,,,120,0,906.1058,908.3209,z,0,2.2107,,[],[],[],[],[],[],[],908.321,910.3217,910.3218,910.322,[],[],[],[],[],[],[],,910.322,910.3222,0.008271329,-0.380770503,0,0,0,,0,119,119,99,1,4,word,DEBATE,cursive,debate_c.png,,,,,
,,,,32201,001,2025-10-17_11h24.39.546,HW_LDT_1,2024.2.4,MacIntel,131.5789474,,,,,,,,,,,,,,,,,,,,,,910.3235,910.5219,910.5219,911.0218,,,,,,,,,,,,,,3.2944,1,,,,,,,,,,,,,,m,,,,,,,,,,,,,,,121,0,911.0225,914.3218,m,1,3.2944,,[],[],[],[],[],[],[],914.3219,916.3217,916.3218,916.322,[],[],[],[],[],[],[],,916.3221,916.3222,0.008271329,-0.380770503,0,0,0,,0,120,120,124,1,4,word,NUMERICAL,cursive,numerical_c.png,,,,,
,,,,32201,001,2025-10-17_11h24.39.546,HW_LDT_1,2024.2.4,MacIntel,131.5789474,,,,,,,,,,,,,,,,,,,,,,916.3237,916.5218,916.5218,917.0217,,,,,,,,,,,,,,1.2357,1,,,,,,,,,,,,,,z,,,,,,,,,,,,,,,122,1,917.0224,918.2625,z,1,1.2357,,[],[],[],[],[],[],[],918.2626,920.2625,920.2626,921.3047,[],[],[],[],[],[],[],m,921.3047,921.3048,0.133015046,-0.380770503,0,0,0,,0,121,121,48,1,4,RL,vabifity,print,vabifity_p.png,1.0378,,,,
,,,,32201,001,2025-10-17_11h24.39.546,HW_LDT_1,2024.2.4,MacIntel,131.5789474,,,,,,,,,,,,,,,,,,,,,,921.3058,921.5048,921.5048,922.0049,,,,,,,,,,,,,,1.7105,1,,,,,,,,,,,,,,m,,,,,,,,,,,,,,,123,0,922.0052,923.7211,m,1,1.7105,,[],[],[],[],[],[],[],923.7211,925.7217,925.7218,925.722,[],[],[],[],[],[],[],,925.722,925.722,0.133015046,-0.380770503,0,0,0,,0,122,122,126,1,4,word,OPTIMAL,print,optimal_p.png,,,,,
,,,,32201,001,2025-10-17_11h24.39.546,HW_LDT_1,2024.2.4,MacIntel,131.5789474,,,,,,,,,,,,,,,,,,,,,,925.7233,925.9216,925.9217,926.4215,,,,,,,,,,,,,,1.0895,1,,,,,,,,,,,,,,z,,,,,,,,,,,,,,,124,0,926.4222,927.5134,z,1,1.0895,,[],[],[],[],[],[],[],927.5135,929.5132,929.5133,929.5136,[],[],[],[],[],[],[],,929.5136,929.5138,0.133015046,-0.380770503,0,0,0,,0,123,123,25,1,4,RL,macise,print,macise_p.png,,,,,
,,,,32201,001,2025-10-17_11h24.39.546,HW_LDT_1,2024.2.4,MacIntel,131.5789474,,,,,,,,,,,,,,,,,,,,,,929.515,929.7122,929.7122,930.2132,,,,,,,,,,,,,,1.4606,1,,,,,,,,,,,,,,m,,,,,,,,,,,,,,,125,1,930.2138,931.68,m,1,1.4606,,[],[],[],[],[],[],[],931.6801,933.6802,933.6802,935.4217,[],[],[],[],[],[],[],m,935.4217,935.4219,0.133015046,-0.380770503,0,0,0,,0,124,124,93,1,4,word,CEREMONY,print,ceremony_p.png,1.7368,,,,
,,,,32201,001,2025-10-17_11h24.39.546,HW_LDT_1,2024.2.4,MacIntel,131.5789474,,,,,,,,,,,,,,,,,,,,,,935.4232,935.6215,935.6215,936.1217,,,,,,,,,,,,,,2.9693,1,,,,,,,,,,,,,,m,,,,,,,,,,,,,,,126,0,936.1223,939.0965,m,1,2.9693,,[],[],[],[],[],[],[],939.0967,941.0966,941.0966,941.0968,[],[],[],[],[],[],[],,941.0968,941.0969,0.133015046,-0.380770503,0,0,0,,0,125,125,158,1,4,word,VELOCITY,cursive,velocity_c.png,,,,,
,,,,32201,001,2025-10-17_11h24.39.546,HW_LDT_1,2024.2.4,MacIntel,131.5789474,,,,,,,,,,,,,,,,,,,,,,941.0982,941.296,941.296,941.7965,,,,,,,,,,,,,,2.6312,1,,,,,,,,,,,,,,m,,,,,,,,,,,,,,,127,0,941.7971,944.4301,m,1,2.6312,,[],[],[],[],[],[],[],944.4302,946.4292,946.4294,946.4297,[],[],[],[],[],[],[],,946.4297,946.4298,0.133015046,-0.380770503,0,0,0,,0,126,126,152,1,4,word,SPECIMEN,cursive,specimen_c.png,,,,,
,,,,32201,001,2025-10-17_11h24.39.546,HW_LDT_1,2024.2.4,MacIntel,131.5789474,,,,,,,,,,,,,,,,,,,,,,946.4311,946.6298,946.6298,947.1295,,,,,,,,,,,,,,1.6692,1,,,,,,,,,,,,,,z,,,,,,,,,,,,,,,128,0,947.1301,948.8047,z,1,1.6692,,[],[],[],[],[],[],[],948.8049,950.8048,950.8049,950.8051,[],[],[],[],[],[],[],,950.8051,950.8052,0.12202381,-0.380770503,0,0,0,,0,127,127,43,1,4,RL,rovastic,print,rovastic_p.png,,,,,
,,,,32201,001,2025-10-17_11h24.39.546,HW_LDT_1,2024.2.4,MacIntel,131.5789474,,,,,,,,,,,,,,,,,,,,,,950.8061,951.004,951.0041,951.504,,,,,,,,,,,,,,2.4148,1,,,,,,,,,,,,,,m,,,,,,,,,,,,,,,129,1,951.5044,953.9216,m,1,2.4148,,[],[],[],[],[],[],[],953.9216,955.9215,955.9216,957.8965,[],[],[],[],[],[],[],m,957.8966,957.8968,0.12202381,-0.380770503,0,0,0,,0,128,128,155,1,4,word,STRATEGY,print,strategy_p.png,1.9709,,,,
,,,,32201,001,2025-10-17_11h24.39.546,HW_LDT_1,2024.2.4,MacIntel,131.5789474,,,,,,,,,,,,,,,,,,,,,,957.8981,958.0967,958.0968,958.5964,,,,,,,,,,,,,,2.29,1,,,,,,,,,,,,,,z,,,,,,,,,,,,,,,130,0,958.5972,960.8879,z,1,2.29,,[],[],[],[],[],[],[],960.888,962.888,962.8882,962.8883,[],[],[],[],[],[],[],,962.8885,962.8886,0.12202381,-0.380770503,0,0,0,,0,129,129,78,1,4,TL,stragety,print,stragety_p.png,,,,,
,,,,32201,001,2025-10-17_11h24.39.546,HW_LDT_1,2024.2.4,MacIntel,131.5789474,,,,,,,,,,,,,,,,,,,,,,962.8903,963.0881,963.0881,963.5881,,,,,,,,,,,,,,1.7111,1,,,,,,,,,,,,,,m,,,,,,,,,,,,,,,131,0,963.5889,965.3039,m,1,1.7111,,[],[],[],[],[],[],[],965.304,967.3043,967.3043,967.3045,[],[],[],[],[],[],[],,967.3045,967.3046,0.12202381,-0.380770503,0,0,0,,0,130,130,86,1,4,word,BESIDE,print,beside_p.png,,,,,
,,,,32201,001,2025-10-17_11h24.39.546,HW_LDT_1,2024.2.4,MacIntel,131.5789474,,,,,,,,,,,,,,,,,,,,,,967.306,967.5049,967.505,968.0046,,,,,,,,,,,,,,4.412,1,,,,,,,,,,,,,,m,,,,,,,,,,,,,,,132,0,968.0052,972.4214,m,1,4.412,,[],[],[],[],[],[],[],972.4215,974.4213,974.4214,974.4217,[],[],[],[],[],[],[],,974.4217,974.4218,0.12202381,-0.380770503,0,0,0,,0,131,131,128,1,4,word,PACIFIC,cursive,pacific_c.png,,,,,
,,,,32201,001,2025-10-17_11h24.39.546,HW_LDT_1,2024.2.4,MacIntel,131.5789474,,,,,,,,,,,,,,,,,,,,,,974.4234,974.6209,974.6209,975.1212,,,,,,,,,,,,,,2.9273,1,,,,,,,,,,,,,,m,,,,,,,,,,,,,,,133,0,975.122,978.0539,m,1,2.9273,,[],[],[],[],[],[],[],978.054,980.0548,980.055,980.0551,[],[],[],[],[],[],[],,980.0552,980.0554,0.12202381,-0.380770503,0,0,0,,0,132,132,157,1,4,word,VALIDITY,print,validity_p.png,,,,,
,,,,32201,001,2025-10-17_11h24.39.546,HW_LDT_1,2024.2.4,MacIntel,131.5789474,,,,,,,,,,,,,,,,,,,,,,980.0564,980.2546,980.2548,980.7548,,,,,,,,,,,,,,5.1308,1,,,,,,,,,,,,,,z,,,,,,,,,,,,,,,134,1,980.7554,985.8879,z,1,5.1308,,[],[],[],[],[],[],[],985.8881,987.8878,987.8879,989.1463,[],[],[],[],[],[],[],z,989.1464,989.1465,0.12202381,-0.380770503,0,0,0,,0,133,133,51,1,4,TL,adsivory,cursive,adsivory_c.png,1.2532,,,,
,,,,32201,001,2025-10-17_11h24.39.546,HW_LDT_1,2024.2.4,MacIntel,131.5789474,,,,,,,,,,,,,,,,,,,,,,989.1478,989.3461,989.3461,989.8458,,,,,,,,,,,,,,1.8966,1,,,,,,,,,,,,,,z,,,,,,,,,,,,,,,135,0,989.8461,991.7463,z,1,1.8966,,[],[],[],[],[],[],[],991.7464,993.7453,993.7454,993.7457,[],[],[],[],[],[],[],,993.7457,993.7457,0.12202381,-0.380770503,0,0,0,,0,134,134,3,1,4,RL,bewoted,print,bewoted_p.png,,,,,
,,,,32201,001,2025-10-17_11h24.39.546,HW_LDT_1,2024.2.4,MacIntel,131.5789474,,,,,,,,,,,,,,,,,,,,,,993.7472,993.9463,993.9463,994.4453,,,,,,,,,,,,,,1.129,1,,,,,,,,,,,,,,m,,,,,,,,,,,,,,,136,0,994.4459,995.5795,m,1,1.129,,[],[],[],[],[],[],[],995.5796,997.5796,997.5797,997.5799,[],[],[],[],[],[],[],,997.58,997.5801,0.12202381,-0.380770503,0,0,0,,0,135,135,105,1,4,word,EDITOR,print,editor_p.png,,,,,
,,,,32201,001,2025-10-17_11h24.39.546,HW_LDT_1,2024.2.4,MacIntel,131.5789474,,,,,,,,,,,,,,,,,,,,,,997.5809,997.7796,997.7796,998.2747,,,,,,,,,,,,,,1.0286,1,,,,,,,,,,,,,,m,,,,,,,,,,,,,,,137,0,998.2753,999.3087,m,1,1.0286,,[],[],[],[],[],[],[],999.3088,1001.3077,1001.3077,1001.308,[],[],[],[],[],[],[],,1001.308,1001.308,0.12202381,-0.380770503,0,0,0,,0,136,136,145,1,4,word,RESUME,print,resume_p.png,,,,,
,,,,32201,001,2025-10-17_11h24.39.546,HW_LDT_1,2024.2.4,MacIntel,131.5789474,,,,,,,,,,,,,,,,,,,,,,1001.3094,1001.509,1001.5091,1002.0087,,,,,,,,,,,,,,1.2019,1,,,,,,,,,,,,,,z,,,,,,,,,,,,,,,138,0,1002.0094,1003.2166,z,1,1.2019,,[],[],[],[],[],[],[],1003.2167,1005.2161,1005.2162,1005.2165,[],[],[],[],[],[],[],,1005.2165,1005.2166,0.12202381,-0.380770503,0,0,0,,0,137,137,38,1,4,RL,refakive,print,refakive_p.png,,,,,
,,,,32201,001,2025-10-17_11h24.39.546,HW_LDT_1,2024.2.4,MacIntel,131.5789474,,,,,,,,,,,,,,,,,,,,,,1005.2183,1005.417,1005.4171,1005.9169,,,,,,,,,,,,,,2.1526,1,,,,,,,,,,,,,,z,,,,,,,,,,,,,,,139,0,1005.9174,1008.0753,z,1,2.1526,,[],[],[],[],[],[],[],1008.0754,1010.075,1010.075,1010.0752,[],[],[],[],[],[],[],,1010.0752,1010.0753,0.12202381,-0.380770503,0,0,0,,0,138,138,66,1,4,TL,opmital,print,opmital_p.png,,,,,
,,,,32201,001,2025-10-17_11h24.39.546,HW_LDT_1,2024.2.4,MacIntel,131.5789474,,,,,,,,,,,,,,,,,,,,,,1010.0761,1010.2753,1010.2754,1010.7753,,,,,,,,,,,,,,3.8938,1,,,,,,,,,,,,,,z,,,,,,,,,,,,,,,140,0,1010.776,1014.675,z,1,3.8938,,[],[],[],[],[],[],[],1014.6752,1016.6751,1016.6752,1016.6755,[],[],[],[],[],[],[],,1016.6755,1016.6756,0.12202381,-0.380770503,0,0,0,,0,139,139,17,1,4,RL,denficy,cursive,denficy_c.png,,,,,
,,,,32201,001,2025-10-17_11h24.39.546,HW_LDT_1,2024.2.4,MacIntel,131.5789474,,,,,,,,,,,,,,,,,,,,,,1016.6771,1016.8753,1016.8754,1017.3752,,,,,,,,,,,,,,2.1522,1,,,,,,,,,,,,,,m,,,,,,,,,,,,,,,141,0,1017.3759,1019.5336,m,1,2.1522,,[],[],[],[],[],[],[],1019.5337,1021.5332,1021.5333,1021.5334,[],[],[],[],[],[],[],,1021.5334,1021.5334,0.12202381,-0.380770503,0,0,0,,0,140,140,104,1,4,word,DOMINANT,cursive,dominant_c.png,,,,,
,,,,32201,001,2025-10-17_11h24.39.546,HW_LDT_1,2024.2.4,MacIntel,131.5789474,,,,,,,,,,,,,,,,,,,,,,1021.5342,1021.7336,1021.7337,1022.2337,,,,,,,,,,,,,,1.1275,1,,,,,,,,,,,,,,m,,,,,,,,,,,,,,,142,0,1022.2344,1023.3669,m,1,1.1275,,[],[],[],[],[],[],[],1023.3669,1025.3667,1025.3668,1025.3669,[],[],[],[],[],[],[],,1025.367,1025.367,0.12202381,-0.380770503,0,0,0,,0,141,141,90,1,4,word,CAPITAL,print,capital_p.png,,,,,
,,,,32201,001,2025-10-17_11h24.39.546,HW_LDT_1,2024.2.4,MacIntel,131.5789474,,,,,,,,,,,,,,,,,,,,,,1025.3683,1025.5669,1025.567,1026.0667,,,,,,,,,,,,,,4.4612,0,,,,,,,,,,,,,,m,,,,,,,,,,,,,,,143,0,1026.0671,1030.5334,z,0,4.4612,,[],[],[],[],[],[],[],1030.5335,1032.5334,1032.5335,1032.5337,[],[],[],[],[],[],[],,1032.5337,1032.5339,0.12202381,-0.380770503,0,0,0,,0,142,142,138,1,4,word,REFUSAL,cursive,refusal_c.png,,,,,
,,,,32201,001,2025-10-17_11h24.39.546,HW_LDT_1,2024.2.4,MacIntel,131.5789474,,,,,,,,,,,,,,,,,,,,,,1032.5352,1032.7335,1032.7335,1033.2334,,,,,,,,,,,,,,1.9031,1,,,,,,,,,,,,,,m,,,,,,,,,,,,,,,144,1,1033.2339,1035.1418,m,1,1.9031,,[],[],[],[],[],[],[],1035.1418,1037.1411,1037.1411,1037.6674,[],[],[],[],[],[],[],z,1037.6675,1037.6676,0.12202381,-0.380770503,0,0,0,,0,143,143,137,1,4,word,RAPIDLY,cursive,rapidly_c.png,0.5252,,,,
,,,,32201,001,2025-10-17_11h24.39.546,HW_LDT_1,2024.2.4,MacIntel,131.5789474,,,,,,,,,,,,,,,,,,,,,,1037.6689,1037.8666,1037.8666,1038.3659,,,,,,,,,,,,,,2.8703,1,,,,,,,,,,,,,,m,,,,,,,,,,,,,,,145,0,1038.3667,1041.2418,m,1,2.8703,,[],[],[],[],[],[],[],1041.2419,1043.2407,1043.2408,1043.2408,[],[],[],[],[],[],[],,1043.2409,1043.241,0.12202381,-0.380770503,0,0,0,,0,144,144,84,1,4,word,BELOVED,print,beloved_p.png,,,,,
,,,,32201,001,2025-10-17_11h24.39.546,HW_LDT_1,2024.2.4,MacIntel,131.5789474,,,,,,,,,,,,,,,,,,,,,,1043.2423,1043.4415,1043.4416,1043.9415,,,,,,,,,,,,,,1.5525,1,,,,,,,,,,,,,,m,,,,,,,,,,,,,,,146,0,1043.942,1045.4998,m,1,1.5525,,[],[],[],[],[],[],[],1045.4998,1047.4999,1047.4999,1047.5001,[],[],[],[],[],[],[],,1047.5001,1047.5002,0.12202381,-0.380770503,0,0,0,,0,145,145,118,1,4,word,MEDICINE,cursive,medicine_c.png,,,,,
,,,,32201,001,2025-10-17_11h24.39.546,HW_LDT_1,2024.2.4,MacIntel,131.5789474,,,,,,,,,,,,,,,,,,,,,,1047.501,1047.699,1047.6991,1048.1999,,,,,,,,,,,,,,2.9397,1,,,,,,,,,,,,,,z,,,,,,,,,,,,,,,147,0,1048.2003,1051.1413,z,1,2.9397,,[],[],[],[],[],[],[],1051.1414,1053.1412,1053.1413,1053.1413,[],[],[],[],[],[],[],,1053.1413,1053.1414,0.12202381,-0.380770503,0,0,0,,0,146,146,46,1,4,RL,skofen,cursive,skofen_c.png,,,,,
,,,,32201,001,2025-10-17_11h24.39.546,HW_LDT_1,2024.2.4,MacIntel,131.5789474,,,,,,,,,,,,,,,,,,,,,,1053.142,1053.3404,1053.3405,1053.8415,,,,,,,,,,,,,,2.4117,1,,,,,,,,,,,,,,m,,,,,,,,,,,,,,,148,0,1053.8422,1056.2583,m,1,2.4117,,[],[],[],[],[],[],[],1056.2584,1058.2581,1058.2583,1058.2584,[],[],[],[],[],[],[],,1058.2585,1058.2586,0.12202381,-0.380770503,0,0,0,,0,147,147,136,1,4,word,RADICAL,print,radical_p.png,,,,,
,,,,32201,001,2025-10-17_11h24.39.546,HW_LDT_1,2024.2.4,MacIntel,131.5789474,,,,,,,,,,,,,,,,,,,,,,1058.2596,1058.4582,1058.4583,1058.9583,,,,,,,,,,,,,,1.2531,1,,,,,,,,,,,,,,z,,,,,,,,,,,,,,,149,0,1058.9589,1060.2167,z,1,1.2531,,[],[],[],[],[],[],[],1060.2168,1062.2158,1062.2158,1062.216,[],[],[],[],[],[],[],,1062.2161,1062.2163,0.12202381,-0.380770503,0,0,0,,0,148,148,29,1,4,RL,motide,print,motide_p.png,,,,,
,,,,32201,001,2025-10-17_11h24.39.546,HW_LDT_1,2024.2.4,MacIntel,131.5789474,,,,,,,,,,,,,,,,,,,,,,1062.2177,1062.4165,1062.4166,1062.9165,,,,,,,,,,,,,,0.9355,1,,,,,,,,,,,,,,m,,,,,,,,,,,,,,,150,1,1062.917,1063.8584,m,1,0.9355,,[],[],[],[],[],[],[],1063.8585,1065.8581,1065.8583,1068.1412,[],[],[],[],[],[],[],m,1068.1413,1068.1414,0.12202381,-0.380770503,0,0,0,,0,149,149,146,1,4,word,RETIRE,print,retire_p.png,2.279,,,,
,,,,32201,001,2025-10-17_11h24.39.546,HW_LDT_1,2024.2.4,MacIntel,131.5789474,,,,,,,,,,,,,,,,,,,,,,1068.1425,1068.3417,1068.3418,1068.8412,,,,,,,,,,,,,,1.2887,1,,,,,,,,,,,,,,z,,,,,,,,,,,,,,,151,0,1068.8415,1070.1332,z,1,1.2887,,[],[],[],[],[],[],[],1070.1333,1072.1333,1072.1334,1072.1335,[],[],[],[],[],[],[],,1072.1336,1072.1337,0.12202381,-0.380770503,0,0,0,,0,150,150,54,1,4,TL,codemy,print,codemy_p.png,,,,,
,,,,32201,001,2025-10-17_11h24.39.546,HW_LDT_1,2024.2.4,MacIntel,131.5789474,,,,,,,,,,,,,,,,,,,,,,1072.135,1072.3331,1072.3331,1072.8322,,,,,,,,,,,,,,10.8855,1,,,,,,,,,,,,,,z,,,,,,,,,,,,,,,152,0,1072.8329,1083.7249,z,1,10.8855,,[],[],[],[],[],[],[],1083.725,1085.7243,1085.7244,1085.7245,[],[],[],[],[],[],[],,1085.7246,1085.7247,0.12202381,-0.380770503,0,0,0,,0,151,151,37,1,4,RL,renutal,cursive,renutal_c.png,,,,,
,,,,32201,001,2025-10-17_11h24.39.546,HW_LDT_1,2024.2.4,MacIntel,131.5789474,,,,,,,,,,,,,,,,,,,,,,1085.726,1085.9248,1085.9248,1086.4247,,,,,,,,,,,,,,1.5231,1,,,,,,,,,,,,,,m,,,,,,,,,,,,,,,153,1,1086.4254,1087.9499,m,1,1.5231,,[],[],[],[],[],[],[],1087.9499,1089.9498,1089.9499,1093.2833,[],[],[],[],[],[],[],m,1093.2833,1093.2834,0.12202381,-0.380770503,0,0,0,,0,152,152,150,1,4,word,SENTIMENT,print,sentiment_p.png,3.3296,,,,
,,,,32201,001,2025-10-17_11h24.39.546,HW_LDT_1,2024.2.4,MacIntel,131.5789474,,,,,,,,,,,,,,,,,,,,,,1093.2848,1093.483,1093.4831,1093.9831,,,,,,,,,,,,,,1.9885,1,,,,,,,,,,,,,,z,,,,,,,,,,,,,,,154,0,1093.9836,1095.9748,z,1,1.9885,,[],[],[],[],[],[],[],1095.9749,1097.9747,1097.9747,1097.975,[],[],[],[],[],[],[],,1097.9751,1097.9752,0.12202381,-0.380770503,0,0,0,,0,153,153,12,1,4,RL,conbicer,cursive,conbicer_c.png,,,,,
,,,,32201,001,2025-10-17_11h24.39.546,HW_LDT_1,2024.2.4,MacIntel,131.5789474,,,,,,,,,,,,,,,,,,,,,,1097.9767,1098.1738,1098.1738,1098.6738,,,,,,,,,,,,,,1.8945,1,,,,,,,,,,,,,,m,,,,,,,,,,,,,,,155,0,1098.6745,1100.5745,m,1,1.8945,,[],[],[],[],[],[],[],1100.5745,1102.5748,1102.5749,1102.575,[],[],[],[],[],[],[],,1102.575,1102.5751,0.12202381,-0.380770503,0,0,0,,0,154,154,132,1,4,word,PROPOSAL,print,proposal_p.png,,,,,
,,,,32201,001,2025-10-17_11h24.39.546,HW_LDT_1,2024.2.4,MacIntel,131.5789474,,,,,,,,,,,,,,,,,,,,,,1102.5759,1102.7745,1102.7746,1103.2737,,,,,,,,,,,,,,3.5364,1,,,,,,,,,,,,,,z,,,,,,,,,,,,,,,156,0,1103.2743,1106.8165,z,1,3.5364,,[],[],[],[],[],[],[],1106.8166,1108.8162,1108.8163,1108.8164,[],[],[],[],[],[],[],,1108.8165,1108.8165,0.12202381,-0.380770503,0,0,0,,0,155,155,26,1,4,RL,mesibine,cursive,mesibine_c.png,,,,,
,,,,32201,001,2025-10-17_11h24.39.546,HW_LDT_1,2024.2.4,MacIntel,131.5789474,,,,,,,,,,,,,,,,,,,,,,1108.8173,1109.0163,1109.0163,1109.5153,,,,,,,,,,,,,,3.8042,1,,,,,,,,,,,,,,m,,,,,,,,,,,,,,,157,0,1109.5158,1113.3248,m,1,3.8042,,[],[],[],[],[],[],[],1113.3249,1115.3245,1115.3246,1115.3247,[],[],[],[],[],[],[],,1115.3248,1115.3249,0.12202381,-0.380770503,0,0,0,,0,156,156,117,1,4,word,MARINE,print,marine_p.png,,,,,
,,,,32201,001,2025-10-17_11h24.39.546,HW_LDT_1,2024.2.4,MacIntel,131.5789474,,,,,,,,,,,,,,,,,,,,,,1115.3265,1115.5247,1115.5248,1116.0237,,,,,,,,,,,,,,1.3036,1,,,,,,,,,,,,,,z,,,,,,,,,,,,,,,158,0,1116.0244,1117.333,z,1,1.3036,,[],[],[],[],[],[],[],1117.3332,1119.3328,1119.3329,1119.3332,[],[],[],[],[],[],[],,1119.3333,1119.3334,0.12202381,-0.380770503,0,0,0,,0,157,157,28,1,4,RL,mifikary,print,mifikary_p.png,,,,,
,,,,32201,001,2025-10-17_11h24.39.546,HW_LDT_1,2024.2.4,MacIntel,131.5789474,,,,,,,,,,,,,,,,,,,,,,1119.335,1119.5328,1119.5328,1120.0329,,,,,,,,,,,,,,1.5513,1,,,,,,,,,,,,,,m,,,,,,,,,,,,,,,159,0,1120.0335,1121.5909,m,1,1.5513,,[],[],[],[],[],[],[],1121.5909,1123.5912,1123.5913,1123.5915,[],[],[],[],[],[],[],,1123.5916,1123.5916,0.12202381,-0.380770503,0,0,0,,0,158,158,156,1,4,word,TRIBUTE,print,tribute_p.png,,,,,
,,,,32201,001,2025-10-17_11h24.39.546,HW_LDT_1,2024.2.4,MacIntel,131.5789474,,,,,,,,,,,,,,,,,,,,,,1123.5929,1123.791,1123.7912,1124.2911,,,,,,,,,,,,,,3.853,0,,,,,,,,,,,,,,m,,,,,,,,,,,,,,,160,0,1124.2921,1128.1495,z,0,3.853,,[],[],[],[],[],[],[],1128.1496,1130.1494,1130.1494,1130.1496,[],[],[],[],[],[],[],,1130.1497,1130.1499,0.12202381,-0.380770503,0,0,0,,0,159,159,85,1,4,word,BENEFIT,cursive,benefit_c.png,,,,,
,,,,32201,001,2025-10-17_11h24.39.546,HW_LDT_1,2024.2.4,MacIntel,131.5789474,,,,,,,,,,,,,,,,,,,,,,,,,,,,,,,,,,,,,,,,,,,,,,,,,,,,,,,,,,,,,,,,,,,,,,,,,,,,,,,,,,,,,,,,,,,,,,,,,,,,,,,,,,,,,,,,,,,,,1130.1508,1135.1492
