counterbalance_lists.group,counterbalance_lists.remaining,get_list.started,get_list.stopped,participant,session,date,expName,psychopyVersion,OS,frameRate,Instructions.started,Instructions.stopped,key_resp.keys,key_resp.rt,key_resp.duration,instr_done_touch.x,instr_done_touch.y,instr_done_touch.leftButton,instr_done_touch.midButton,instr_done_touch.rightButton,start_instr.thisRepN,start_instr.thisTrialN,start_instr.thisN,start_instr.thisIndex,start_instr.ran,pageN,phase,instruct_text,has_image,instruct_image,showProgress.started,showProgress.stopped,fix.started,fix.stopped,prac.started,prac.stopped,response.keys,response.corr,response.rt,response.duration,touch_resp.x,touch_resp.y,touch_resp.leftButton,touch_resp.midButton,touch_resp.rightButton,touch_resp.time,touch_resp.clicked_name,rt,corr,feedback.started,feedback.stopped,trials.thisRepN,trials.thisTrialN,trials.thisN,trials.thisIndex,trials.ran,TrialID,StimulusType,Condition,PrimeDuration,Prime,Target,corrAns,Instructions_expt.started,Instructions_expt.stopped,key_resp_3.keys,key_resp_3.rt,key_resp_3.duration,instr_done_touch_3.x,instr_done_touch_3.y,instr_done_touch_3.leftButton,instr_done_touch_3.midButton,instr_done_touch_3.rightButton,instr_experiment.thisRepN,instr_experiment.thisTrialN,instr_experiment.thisN,instr_experiment.thisIndex,instr_experiment.ran,trialID,flag,maintask.started,maintask.stopped,key_resp_2.keys,key_resp_2.corr,key_resp_2.rt,key_resp_2.duration,targ_click.x,targ_click.y,targ_click.leftButton,targ_click.midButton,targ_click.rightButton,targ_click.time,targ_click.clicked_name,ITI.started,ITI.stopped,probe.started,probe.stopped,click_probe.x,click_probe.y,click_probe.leftButton,click_probe.midButton,click_probe.rightButton,click_probe.time,click_probe.clicked_name,key_resp_probe.keys,Break.started,Break.stopped,break_done_touch.x,break_done_touch.y,break_done_touch.leftButton,break_done_touch.midButton,break_done_touch.rightButton,break_done_keyboard.keys,list3_trials.thisRepN,list3_trials.thisTrialN,list3_trials.thisN,list3_trials.thisIndex,list3_trials.ran,list_id,item_type,string,font,stim_file,key_resp_probe.rt,key_resp_probe.duration,break_done_keyboard.rt,break_done_keyboard.duration,End.started,End.stopped
list3,,0.5748,0.575,32229,001,2025-10-21_11h29.28.628,HW_LDT_1,2024.2.4,Win32,59.52380952,,,,,,,,,,,,,,,,,,,,,,,,,,,,,,,,,,,,,,,,,,,,,,,,,,,,,,,,,,,,,,,,,,,,,,,,,,,,,,,,,,,,,,,,,,,,,,,,,,,,,,,,,,,,,,,,,,,,,,,
,,,,32229,001,2025-10-21_11h29.28.628,HW_LDT_1,2024.2.4,Win32,59.52380952,0.6064,51.6713,space,51.0152,,-0.008333282,-0.211666718,0,0,0,0,0,0,0,1,1,instructions,"INSTRUCTIONS
At the start of each trial, look at the plus sign  (+) in the center of the screen.  This tells you that a trial is about to begin and where to look. Second, the plus sign will disappear and a string of letters will appear. Your task is to determine if the string of letters is a word or not. If the item is a word press the M key (on keyboard)  or touch the word button (phone/tablet).  If the item is not a word,  press the  Z key (on keyboard)  or touch the nonword button (on phone/tablet). The items will be presented for a short time. 
Press the space bar or touch  continue.",0,,,,,,,,,,,,,,,,,,,,,,,,,,,,,,,,,,,,,,,,,,,,,,,,,,,,,,,,,,,,,,,,,,,,,,,,,,,,,,,,,,,,,,,,,,,,,,,,,,,,
,,,,32229,001,2025-10-21_11h29.28.628,HW_LDT_1,2024.2.4,Win32,59.52380952,51.6747,55.4786,space,3.7735,,-0.008333282,-0.211666718,0,0,0,0,1,1,1,1,2,instructions,"If your device has a keyboard, press the 'Z' key for nonwords and the 'M' key for words.





Press the space bar or touch the button below to continue.",0,keyboard-example.gif,,,,,,,,,,,,,,,,,,,,,,,,,,,,,,,,,,,,,,,,,,,,,,,,,,,,,,,,,,,,,,,,,,,,,,,,,,,,,,,,,,,,,,,,,,,,,,,,,,,
,,,,32229,001,2025-10-21_11h29.28.628,HW_LDT_1,2024.2.4,Win32,59.52380952,55.482,57.2118,space,1.7136,,-0.008333282,-0.211666718,0,0,0,0,2,2,2,1,3,instructions,"If you are using a touchscreen only device, use the buttons on the screen. Do not use the mouse.





Press the space bar or touch the button below to continue.",0,touchscreen-example.gif,,,,,,,,,,,,,,,,,,,,,,,,,,,,,,,,,,,,,,,,,,,,,,,,,,,,,,,,,,,,,,,,,,,,,,,,,,,,,,,,,,,,,,,,,,,,,,,,,,,
,,,,32229,001,2025-10-21_11h29.28.628,HW_LDT_1,2024.2.4,Win32,59.52380952,57.2147,72.6628,space,15.4146,,-0.008333282,-0.211666718,0,0,0,0,3,3,3,1,4,instructions,"It is very important that you respond as quickly and accurately as possible, as each letter string will only be on the screen for two seconds. If you do not respond within this time, the message 'Too slow!' will be displayed and the experiment will progress to the next letter string. The first 20 trials will be practice trials and you will receive feedback on your answers. 

Press the space bar or touch the button below to start the practice trials.",0,,,,,,,,,,,,,,,,,,,,,,,,,,,,,,,,,,,,,,,,,,,,,,,,,,,,,,,,,,,,,,,,,,,,,,,,,,,,,,,,,,,,,,,,,,,,,,,,,,,,
,,,,32229,001,2025-10-21_11h29.28.628,HW_LDT_1,2024.2.4,Win32,59.52380952,,,,,,,,,,,,,,,,,,,,,72.6996,72.8619,72.8621,73.3618,73.3623,74.9464,z,1,1.5608,,[],[],[],[],[],[],[],1.5608,1,74.9467,75.4456,0,0,0,15,1,1016,NW,UN,16,mushed,WHAISE,z,,,,,,,,,,,,,,,,,,,,,,,,,,,,,,,,,,,,,,,,,,,,,,,,,,,,,,,,,,,,,,,,,,
,,,,32229,001,2025-10-21_11h29.28.628,HW_LDT_1,2024.2.4,Win32,59.52380952,,,,,,,,,,,,,,,,,,,,,75.4482,75.6458,75.6459,76.1504,76.1532,76.9954,z,1,0.8178,,[],[],[],[],[],[],[],0.8178,1,76.9955,77.4987,0,1,1,9,1,1010,NW,"ID",33,fariny,FARINY,z,,,,,,,,,,,,,,,,,,,,,,,,,,,,,,,,,,,,,,,,,,,,,,,,,,,,,,,,,,,,,,,,,,
,,,,32229,001,2025-10-21_11h29.28.628,HW_LDT_1,2024.2.4,Win32,59.52380952,,,,,,,,,,,,,,,,,,,,,77.5006,77.695,77.6951,78.1951,78.197,78.9613,m,1,0.7406,,[],[],[],[],[],[],[],0.7406,1,78.9614,79.4616,0,2,2,3,1,1004,WORD,"ID",16,matrix,MATRIX,m,,,,,,,,,,,,,,,,,,,,,,,,,,,,,,,,,,,,,,,,,,,,,,,,,,,,,,,,,,,,,,,,,,
,,,,32229,001,2025-10-21_11h29.28.628,HW_LDT_1,2024.2.4,Win32,59.52380952,,,,,,,,,,,,,,,,,,,,,79.4638,79.6681,79.6681,80.1621,80.1652,80.8615,z,0,0.6688,,[],[],[],[],[],[],[],0.6688,0,80.8628,81.3656,0,3,3,0,1,1001,WORD,"ID",33,utopia,UTOPIA,m,,,,,,,,,,,,,,,,,,,,,,,,,,,,,,,,,,,,,,,,,,,,,,,,,,,,,,,,,,,,,,,,,,
,,,,32229,001,2025-10-21_11h29.28.628,HW_LDT_1,2024.2.4,Win32,59.52380952,,,,,,,,,,,,,,,,,,,,,81.3674,81.5617,81.5618,82.0625,82.0647,82.9118,m,1,0.8226,,[],[],[],[],[],[],[],0.8226,1,82.9128,83.4153,0,4,4,2,1,1003,WORD,"ID",16,almond,ALMOND,m,,,,,,,,,,,,,,,,,,,,,,,,,,,,,,,,,,,,,,,,,,,,,,,,,,,,,,,,,,,,,,,,,,
,,,,32229,001,2025-10-21_11h29.28.628,HW_LDT_1,2024.2.4,Win32,59.52380952,,,,,,,,,,,,,,,,,,,,,83.4167,83.6112,83.6113,84.1114,84.1141,84.6627,m,1,0.5273,,[],[],[],[],[],[],[],0.5273,1,84.6629,85.1666,0,5,5,7,1,1008,WORD,UN,16,hurdle,VOLUME,m,,,,,,,,,,,,,,,,,,,,,,,,,,,,,,,,,,,,,,,,,,,,,,,,,,,,,,,,,,,,,,,,,,
,,,,32229,001,2025-10-21_11h29.28.628,HW_LDT_1,2024.2.4,Win32,59.52380952,,,,,,,,,,,,,,,,,,,,,85.1689,85.3619,85.362,85.8625,85.8638,86.545,z,1,0.6506,,[],[],[],[],[],[],[],0.6506,1,86.5453,87.0501,0,6,6,12,1,1013,NW,UN,33,adveil,SPRINY,z,,,,,,,,,,,,,,,,,,,,,,,,,,,,,,,,,,,,,,,,,,,,,,,,,,,,,,,,,,,,,,,,,,
,,,,32229,001,2025-10-21_11h29.28.628,HW_LDT_1,2024.2.4,Win32,59.52380952,,,,,,,,,,,,,,,,,,,,,87.0527,87.2455,87.2456,87.745,87.7477,88.3785,m,1,0.6037,,[],[],[],[],[],[],[],0.6037,1,88.3788,88.8781,0,7,7,6,1,1007,WORD,UN,16,tropic,ZOMBIE,m,,,,,,,,,,,,,,,,,,,,,,,,,,,,,,,,,,,,,,,,,,,,,,,,,,,,,,,,,,,,,,,,,,
,,,,32229,001,2025-10-21_11h29.28.628,HW_LDT_1,2024.2.4,Win32,59.52380952,,,,,,,,,,,,,,,,,,,,,88.8802,89.0781,89.0782,89.5777,89.5795,90.1608,m,1,0.5498,,[],[],[],[],[],[],[],0.5498,1,90.1609,90.662,0,8,8,4,1,1005,WORD,UN,33,abound,SQUEAK,m,,,,,,,,,,,,,,,,,,,,,,,,,,,,,,,,,,,,,,,,,,,,,,,,,,,,,,,,,,,,,,,,,,
,,,,32229,001,2025-10-21_11h29.28.628,HW_LDT_1,2024.2.4,Win32,59.52380952,,,,,,,,,,,,,,,,,,,,,90.6642,90.8617,90.8618,91.3616,91.3626,91.9786,m,1,0.5845,,[],[],[],[],[],[],[],0.5845,1,91.9788,92.478,0,9,9,5,1,1006,WORD,UN,33,frenzy,OBTAIN,m,,,,,,,,,,,,,,,,,,,,,,,,,,,,,,,,,,,,,,,,,,,,,,,,,,,,,,,,,,,,,,,,,,
,,,,32229,001,2025-10-21_11h29.28.628,HW_LDT_1,2024.2.4,Win32,59.52380952,,,,,,,,,,,,,,,,,,,,,92.4799,92.6779,92.6781,93.1822,93.1832,93.9949,m,0,0.7836,,[],[],[],[],[],[],[],0.7836,0,93.9962,94.5007,0,10,10,14,1,1015,NW,UN,16,miaber,THRALE,z,,,,,,,,,,,,,,,,,,,,,,,,,,,,,,,,,,,,,,,,,,,,,,,,,,,,,,,,,,,,,,,,,,
,,,,32229,001,2025-10-21_11h29.28.628,HW_LDT_1,2024.2.4,Win32,59.52380952,,,,,,,,,,,,,,,,,,,,,94.5025,94.6987,94.6987,95.195,95.1962,95.9612,z,1,0.7343,,[],[],[],[],[],[],[],0.7343,1,95.9624,96.467,0,11,11,13,1,1014,NW,UN,33,winfer,ROUPET,z,,,,,,,,,,,,,,,,,,,,,,,,,,,,,,,,,,,,,,,,,,,,,,,,,,,,,,,,,,,,,,,,,,
,,,,32229,001,2025-10-21_11h29.28.628,HW_LDT_1,2024.2.4,Win32,59.52380952,,,,,,,,,,,,,,,,,,,,,96.4684,96.6613,96.6613,97.1618,97.1627,98.1113,z,1,0.9167,,[],[],[],[],[],[],[],0.9167,1,98.1114,98.6166,0,12,12,8,1,1009,NW,"ID",33,aslert,ASLERT,z,,,,,,,,,,,,,,,,,,,,,,,,,,,,,,,,,,,,,,,,,,,,,,,,,,,,,,,,,,,,,,,,,,
,,,,32229,001,2025-10-21_11h29.28.628,HW_LDT_1,2024.2.4,Win32,59.52380952,,,,,,,,,,,,,,,,,,,,,98.6183,98.8121,98.8122,99.3154,99.3165,100.2028,z,1,0.8697,,[],[],[],[],[],[],[],0.8697,1,100.2031,100.6949,0,13,13,11,1,1012,NW,"ID",16,rashet,RASHET,z,,,,,,,,,,,,,,,,,,,,,,,,,,,,,,,,,,,,,,,,,,,,,,,,,,,,,,,,,,,,,,,,,,
,,,,32229,001,2025-10-21_11h29.28.628,HW_LDT_1,2024.2.4,Win32,59.52380952,,,,,,,,,,,,,,,,,,,,,100.6965,100.8829,100.883,101.3835,101.3848,102.161,z,1,0.7544,,[],[],[],[],[],[],[],0.7544,1,102.1613,102.6616,0,14,14,10,1,1011,NW,"ID",16,inlade,INLADE,z,,,,,,,,,,,,,,,,,,,,,,,,,,,,,,,,,,,,,,,,,,,,,,,,,,,,,,,,,,,,,,,,,,
,,,,32229,001,2025-10-21_11h29.28.628,HW_LDT_1,2024.2.4,Win32,59.52380952,,,,,,,,,,,,,,,,,,,,,102.6629,102.8615,102.8616,103.3618,103.3639,104.0837,m,1,0.7,,[],[],[],[],[],[],[],0.7,1,104.0838,104.5814,0,15,15,1,1,1002,WORD,"ID",33,adjust,ADJUST,m,,,,,,,,,,,,,,,,,,,,,,,,,,,,,,,,,,,,,,,,,,,,,,,,,,,,,,,,,,,,,,,,,,
,,,,32229,001,2025-10-21_11h29.28.628,HW_LDT_1,2024.2.4,Win32,59.52380952,,,,,,,,,,,,,,,,1,end_of_practice,"You have completed the practice trials. During the experimental trials, you will not receive feedback. On some trials you will be asked to report whether the item you just saw was in cursive or print. 
Before you begin, please ensure that you are in a comfortable and quiet location and will not be disturbed for about 15 minutes, as we cannot use your data if you do not complete all the trials. 
 When you are ready to start the experimental trials, please press space or touch the button below.",,,,,,,,,,,,,,,,,,,,,,,,,,,,,,,,,,,,104.5899,106.8956,space,2.2839,,-0.008333282,-0.211666718,0,0,0,0,0,0,0,1,,,,,,,,,,,,,,,,,,,,,,,,,,,,,,,,,,,,,,,,,,,,,,,,,,,
,,,,32229,001,2025-10-21_11h29.28.628,HW_LDT_1,2024.2.4,Win32,59.52380952,,,,,,,,,,,,,,,,,,,,,106.917,107.0947,107.0947,107.5939,,,,,,,,,,,,,,0.8429,1,,,,,,,,,,,,,,m,,,,,,,,,,,,,,,,1,0,107.5951,108.446,m,1,0.8429,,[],[],[],[],[],[],[],108.4464,110.4444,110.4447,110.4494,[],[],[],[],[],[],[],,110.4495,110.4555,-0.008333282,-0.211666718,0,0,0,,0,0,0,151,1,3,word,SPECIFIC,print,specific_p.png,,,,,,
,,,,32229,001,2025-10-21_11h29.28.628,HW_LDT_1,2024.2.4,Win32,59.52380952,,,,,,,,,,,,,,,,,,,,,110.4572,110.6446,110.6446,111.1505,,,,,,,,,,,,,,0.7661,1,,,,,,,,,,,,,,z,,,,,,,,,,,,,,,,2,0,111.1511,111.9276,z,1,0.7661,,[],[],[],[],[],[],[],111.9277,113.928,113.9281,113.9282,[],[],[],[],[],[],[],,113.9283,113.9284,-0.008333282,-0.211666718,0,0,0,,0,1,1,41,1,3,TL,crinimal,print,crinimal_p.png,,,,,,
,,,,32229,001,2025-10-21_11h29.28.628,HW_LDT_1,2024.2.4,Win32,59.52380952,,,,,,,,,,,,,,,,,,,,,113.9308,114.1272,114.1273,114.627,,,,,,,,,,,,,,1.2542,1,,,,,,,,,,,,,,z,,,,,,,,,,,,,,,,3,0,114.6277,115.8946,z,1,1.2542,,[],[],[],[],[],[],[],115.8947,117.9011,117.9012,117.9014,[],[],[],[],[],[],[],,117.9015,117.9017,-0.008333282,-0.211666718,0,0,0,,0,2,2,12,1,3,RL,formuke,cursive,formuke_c.png,,,,,,
,,,,32229,001,2025-10-21_11h29.28.628,HW_LDT_1,2024.2.4,Win32,59.52380952,,,,,,,,,,,,,,,,,,,,,117.9029,118.0944,118.0944,118.5944,,,,,,,,,,,,,,1.4735,1,,,,,,,,,,,,,,z,,,,,,,,,,,,,,,,4,0,118.595,120.0774,z,1,1.4735,,[],[],[],[],[],[],[],120.0776,122.0776,122.0777,122.078,[],[],[],[],[],[],[],,122.078,122.0782,-0.008333282,-0.211666718,0,0,0,,0,3,3,48,1,3,TL,grafetul,cursive,grafetul_c.png,,,,,,
,,,,32229,001,2025-10-21_11h29.28.628,HW_LDT_1,2024.2.4,Win32,59.52380952,,,,,,,,,,,,,,,,,,,,,122.0799,122.2777,122.2778,122.7782,,,,,,,,,,,,,,0.8696,0,,,,,,,,,,,,,,z,,,,,,,,,,,,,,,,5,0,122.7788,123.6502,m,0,0.8696,,[],[],[],[],[],[],[],123.6504,125.6445,125.6446,125.6449,[],[],[],[],[],[],[],,125.6449,125.6451,-0.008333282,-0.211666718,0,0,0,,0,4,4,69,1,3,TL,redisent,cursive,redisent_c.png,,,,,,
,,,,32229,001,2025-10-21_11h29.28.628,HW_LDT_1,2024.2.4,Win32,59.52380952,,,,,,,,,,,,,,,,,,,,,125.6468,125.8444,125.8444,126.3444,,,,,,,,,,,,,,0.8045,1,,,,,,,,,,,,,,m,,,,,,,,,,,,,,,,6,0,126.3451,127.1612,m,1,0.8045,,[],[],[],[],[],[],[],127.1613,129.1609,129.161,129.1613,[],[],[],[],[],[],[],,129.1615,129.1615,-0.008333282,-0.211666718,0,0,0,,0,5,5,116,1,3,word,MARGINAL,print,marginal_p.png,,,,,,
,,,,32229,001,2025-10-21_11h29.28.628,HW_LDT_1,2024.2.4,Win32,59.52380952,,,,,,,,,,,,,,,,,,,,,129.1637,129.3494,129.3494,129.8611,,,,,,,,,,,,,,0.6452,1,,,,,,,,,,,,,,m,,,,,,,,,,,,,,,,7,0,129.8619,130.5119,m,1,0.6452,,[],[],[],[],[],[],[],130.512,132.5109,132.511,132.5112,[],[],[],[],[],[],[],,132.5113,132.5114,-0.008333282,-0.211666718,0,0,0,,0,6,6,81,1,3,word,ADVISORY,print,advisory_p.png,,,,,,
,,,,32229,001,2025-10-21_11h29.28.628,HW_LDT_1,2024.2.4,Win32,59.52380952,,,,,,,,,,,,,,,,,,,,,132.5132,132.7152,132.7154,133.2146,,,,,,,,,,,,,,0.758,1,,,,,,,,,,,,,,m,,,,,,,,,,,,,,,,8,0,133.2153,133.9773,m,1,0.758,,[],[],[],[],[],[],[],133.9775,135.9778,135.9779,135.9781,[],[],[],[],[],[],[],,135.9781,135.9782,-0.008333282,-0.211666718,0,0,0,,0,7,7,157,1,3,word,VALIDITY,cursive,validity_c.png,,,,,,
,,,,32229,001,2025-10-21_11h29.28.628,HW_LDT_1,2024.2.4,Win32,59.52380952,,,,,,,,,,,,,,,,,,,,,135.9799,136.1775,136.1776,136.6775,,,,,,,,,,,,,,1.4047,1,,,,,,,,,,,,,,z,,,,,,,,,,,,,,,,9,0,136.6785,138.0948,z,1,1.4047,,[],[],[],[],[],[],[],138.095,140.0996,140.0996,140.0998,[],[],[],[],[],[],[],,140.0998,140.0999,-0.008333282,-0.211666718,0,0,0,,0,8,8,76,1,3,TL,stogare,cursive,stogare_c.png,,,,,,
,,,,32229,001,2025-10-21_11h29.28.628,HW_LDT_1,2024.2.4,Win32,59.52380952,,,,,,,,,,,,,,,,,,,,,140.1018,140.2941,140.2942,140.7942,,,,,,,,,,,,,,0.6729,1,,,,,,,,,,,,,,m,,,,,,,,,,,,,,,,10,0,140.7948,141.4775,m,1,0.6729,,[],[],[],[],[],[],[],141.4777,143.4775,143.4776,143.4782,[],[],[],[],[],[],[],,143.4784,143.4795,-0.008333282,-0.211666718,0,0,0,,0,9,9,131,1,3,word,POPULAR,print,popular_p.png,,,,,,
,,,,32229,001,2025-10-21_11h29.28.628,HW_LDT_1,2024.2.4,Win32,59.52380952,,,,,,,,,,,,,,,,,,,,,143.481,143.6778,143.6778,144.1782,,,,,,,,,,,,,,1.0178,0,,,,,,,,,,,,,,z,,,,,,,,,,,,,,,,11,0,144.1789,145.1987,m,0,1.0178,,[],[],[],[],[],[],[],145.1991,147.1937,147.1937,147.1939,[],[],[],[],[],[],[],,147.194,147.1941,-0.008333282,-0.211666718,0,0,0,,0,10,10,77,1,3,TL,vadility,cursive,vadility_c.png,,,,,,
,,,,32229,001,2025-10-21_11h29.28.628,HW_LDT_1,2024.2.4,Win32,59.52380952,,,,,,,,,,,,,,,,,,,,,147.1957,147.3825,147.3825,147.8953,,,,,,,,,,,,,,1.1705,1,,,,,,,,,,,,,,z,,,,,,,,,,,,,,,,12,0,147.896,149.0772,z,1,1.1705,,[],[],[],[],[],[],[],149.0773,151.0771,151.0771,151.0773,[],[],[],[],[],[],[],,151.0773,151.0774,-0.008333282,-0.211666718,0,0,0,,0,11,11,44,1,3,TL,decilate,print,decilate_p.png,,,,,,
,,,,32229,001,2025-10-21_11h29.28.628,HW_LDT_1,2024.2.4,Win32,59.52380952,,,,,,,,,,,,,,,,,,,,,151.0785,151.2778,151.2779,151.7783,,,,,,,,,,,,,,0.737,1,,,,,,,,,,,,,,m,,,,,,,,,,,,,,,,13,0,151.7788,152.5172,m,1,0.737,,[],[],[],[],[],[],[],152.5173,154.5111,154.5112,154.5114,[],[],[],[],[],[],[],,154.5114,154.5117,-0.008333282,-0.211666718,0,0,0,,0,12,12,137,1,3,word,RAPIDLY,print,rapidly_p.png,,,,,,
,,,,32229,001,2025-10-21_11h29.28.628,HW_LDT_1,2024.2.4,Win32,59.52380952,,,,,,,,,,,,,,,,,,,,,154.5132,154.7114,154.7115,155.211,,,,,,,,,,,,,,0.9083,1,,,,,,,,,,,,,,z,,,,,,,,,,,,,,,,14,1,155.2118,156.1279,z,1,0.9083,,[],[],[],[],[],[],[],156.128,158.1273,158.1274,165.4108,[],[],[],[],[],[],[],m,165.4109,165.4111,-0.008333282,-0.211666718,0,0,0,,0,13,13,23,1,3,RL,quakity,print,quakity_p.png,7.2771,,,,,
,,,,32229,001,2025-10-21_11h29.28.628,HW_LDT_1,2024.2.4,Win32,59.52380952,,,,,,,,,,,,,,,,,,,,,165.413,165.6109,165.611,166.1163,,,,,,,,,,,,,,0.9488,1,,,,,,,,,,,,,,z,,,,,,,,,,,,,,,,15,1,166.1169,167.0671,z,1,0.9488,,[],[],[],[],[],[],[],167.0671,169.06,169.06,174.1277,[],[],[],[],[],[],[],m,174.1279,174.1281,-0.008333282,-0.211666718,0,0,0,,0,14,14,18,1,3,RL,onegator,print,onegator_p.png,5.062,,,,,
,,,,32229,001,2025-10-21_11h29.28.628,HW_LDT_1,2024.2.4,Win32,59.52380952,,,,,,,,,,,,,,,,,,,,,174.1299,174.3333,174.3333,174.8274,,,,,,,,,,,,,,0.987,1,,,,,,,,,,,,,,z,,,,,,,,,,,,,,,,16,0,174.8281,175.817,z,1,0.987,,[],[],[],[],[],[],[],175.8171,177.8107,177.8108,177.8111,[],[],[],[],[],[],[],,177.8112,177.8113,-0.008333282,-0.211666718,0,0,0,,0,15,15,32,1,3,TL,adacemy,print,adacemy_p.png,,,,,,
,,,,32229,001,2025-10-21_11h29.28.628,HW_LDT_1,2024.2.4,Win32,59.52380952,,,,,,,,,,,,,,,,,,,,,177.8126,178.0109,178.011,178.5111,,,,,,,,,,,,,,1.6155,1,,,,,,,,,,,,,,z,,,,,,,,,,,,,,,,17,0,178.5122,180.1296,z,1,1.6155,,[],[],[],[],[],[],[],180.1297,182.1265,182.1267,182.1269,[],[],[],[],[],[],[],,182.1269,182.1271,-0.008333282,-0.211666718,0,0,0,,0,16,16,15,1,3,RL,mifikary,cursive,mifikary_c.png,,,,,,
,,,,32229,001,2025-10-21_11h29.28.628,HW_LDT_1,2024.2.4,Win32,59.52380952,,,,,,,,,,,,,,,,,,,,,182.1291,182.3274,182.3275,182.8273,,,,,,,,,,,,,,1.4529,1,,,,,,,,,,,,,,z,,,,,,,,,,,,,,,,18,0,182.8279,184.2819,z,1,1.4529,,[],[],[],[],[],[],[],184.282,186.2765,186.2766,186.2767,[],[],[],[],[],[],[],,186.2768,186.2769,-0.008333282,-0.211666718,0,0,0,,0,17,17,16,1,3,RL,mishafe,cursive,mishafe_c.png,,,,,,
,,,,32229,001,2025-10-21_11h29.28.628,HW_LDT_1,2024.2.4,Win32,59.52380952,,,,,,,,,,,,,,,,,,,,,186.2784,186.477,186.4772,186.9826,,,,,,,,,,,,,,2.1313,1,,,,,,,,,,,,,,z,,,,,,,,,,,,,,,,19,0,186.9832,189.1155,z,1,2.1313,,[],[],[],[],[],[],[],189.1156,191.1155,191.1156,191.1161,[],[],[],[],[],[],[],,191.1162,191.1163,-0.008333282,-0.211666718,0,0,0,,0,18,18,38,1,3,TL,carnidal,print,carnidal_p.png,,,,,,
,,,,32229,001,2025-10-21_11h29.28.628,HW_LDT_1,2024.2.4,Win32,59.52380952,,,,,,,,,,,,,,,,,,,,,191.1175,191.3099,191.31,191.8096,,,,,,,,,,,,,,1.3205,1,,,,,,,,,,,,,,z,,,,,,,,,,,,,,,,20,0,191.8101,193.1316,z,1,1.3205,,[],[],[],[],[],[],[],193.1317,195.1282,195.1284,195.1285,[],[],[],[],[],[],[],,195.1286,195.1287,-0.008333282,-0.211666718,0,0,0,,0,19,19,33,1,3,TL,adsivory,print,adsivory_p.png,,,,,,
,,,,32229,001,2025-10-21_11h29.28.628,HW_LDT_1,2024.2.4,Win32,59.52380952,,,,,,,,,,,,,,,,,,,,,195.13,195.3304,195.3306,195.8275,,,,,,,,,,,,,,1.5853,0,,,,,,,,,,,,,,m,,,,,,,,,,,,,,,,21,0,195.8281,197.4145,z,0,1.5853,,[],[],[],[],[],[],[],197.4146,199.4113,199.4113,199.4115,[],[],[],[],[],[],[],,199.4115,199.4117,-0.008333282,-0.211666718,0,0,0,,0,20,20,108,1,3,word,FORTUNE,cursive,fortune_c.png,,,,,,
,,,,32229,001,2025-10-21_11h29.28.628,HW_LDT_1,2024.2.4,Win32,59.52380952,,,,,,,,,,,,,,,,,,,,,199.4129,199.6105,199.6107,200.1094,,,,,,,,,,,,,,1.3434,1,,,,,,,,,,,,,,z,,,,,,,,,,,,,,,,22,0,200.1102,201.46,z,1,1.3434,,[],[],[],[],[],[],[],201.46,203.4604,203.4604,203.4608,[],[],[],[],[],[],[],,203.4609,203.461,-0.008333282,-0.211666718,0,0,0,,0,21,21,65,1,3,TL,resufal,print,resufal_p.png,,,,,,
,,,,32229,001,2025-10-21_11h29.28.628,HW_LDT_1,2024.2.4,Win32,59.52380952,,,,,,,,,,,,,,,,,,,,,203.4635,203.6604,203.6606,204.1602,,,,,,,,,,,,,,2.7868,1,,,,,,,,,,,,,,z,,,,,,,,,,,,,,,,23,0,204.1612,206.9493,z,1,2.7868,,[],[],[],[],[],[],[],206.9493,208.9434,208.9435,208.9437,[],[],[],[],[],[],[],,208.9438,208.9438,-0.008333282,-0.211666718,0,0,0,,0,22,22,68,1,3,TL,revomal,cursive,revomal_c.png,,,,,,
,,,,32229,001,2025-10-21_11h29.28.628,HW_LDT_1,2024.2.4,Win32,59.52380952,,,,,,,,,,,,,,,,,,,,,208.9459,209.1433,209.1434,209.6436,,,,,,,,,,,,,,1.4147,1,,,,,,,,,,,,,,m,,,,,,,,,,,,,,,,24,0,209.6442,211.0602,m,1,1.4147,,[],[],[],[],[],[],[],211.0602,213.06,213.0601,213.0603,[],[],[],[],[],[],[],,213.0603,213.0604,-0.008333282,-0.211666718,0,0,0,,0,23,23,134,1,3,word,QUALIFY,print,qualify_p.png,,,,,,
,,,,32229,001,2025-10-21_11h29.28.628,HW_LDT_1,2024.2.4,Win32,59.52380952,,,,,,,,,,,,,,,,,,,,,213.0623,213.2599,213.2599,213.7602,,,,,,,,,,,,,,1.8458,1,,,,,,,,,,,,,,z,,,,,,,,,,,,,,,,25,0,213.7609,215.6093,z,1,1.8458,,[],[],[],[],[],[],[],215.6094,217.6141,217.6142,217.6143,[],[],[],[],[],[],[],,217.6144,217.6144,-0.008333282,-0.211666718,0,0,0,,0,24,24,19,1,3,RL,opcifal,cursive,opcifal_c.png,,,,,,
,,,,32229,001,2025-10-21_11h29.28.628,HW_LDT_1,2024.2.4,Win32,59.52380952,,,,,,,,,,,,,,,,,,,,,217.6161,217.8105,217.8106,218.3095,,,,,,,,,,,,,,1.0706,1,,,,,,,,,,,,,,m,,,,,,,,,,,,,,,,26,0,218.3104,219.3827,m,1,1.0706,,[],[],[],[],[],[],[],219.3828,221.382,221.3821,221.3822,[],[],[],[],[],[],[],,221.3822,221.3823,-0.008333282,-0.211666718,0,0,0,,0,25,25,133,1,3,word,PROVIDE,print,provide_p.png,,,,,,
,,,,32229,001,2025-10-21_11h29.28.628,HW_LDT_1,2024.2.4,Win32,59.52380952,,,,,,,,,,,,,,,,,,,,,221.3837,221.5767,221.5767,222.0815,,,,,,,,,,,,,,1.6352,1,,,,,,,,,,,,,,z,,,,,,,,,,,,,,,,27,0,222.082,223.727,z,1,1.6352,,[],[],[],[],[],[],[],223.7272,225.7259,225.726,225.7262,[],[],[],[],[],[],[],,225.7263,225.7264,-0.008333282,-0.211666718,0,0,0,,0,26,26,37,1,3,TL,cacapity,cursive,cacapity_c.png,,,,,,
,,,,32229,001,2025-10-21_11h29.28.628,HW_LDT_1,2024.2.4,Win32,59.52380952,,,,,,,,,,,,,,,,,,,,,225.7278,225.9265,225.9265,226.4269,,,,,,,,,,,,,,0.9348,1,,,,,,,,,,,,,,m,,,,,,,,,,,,,,,,28,1,226.4275,227.364,m,1,0.9348,,[],[],[],[],[],[],[],227.364,229.3597,229.3597,231.0927,[],[],[],[],[],[],[],m,231.0928,231.0929,-0.008333282,-0.211666718,0,0,0,,0,27,27,129,1,3,word,PARENT,print,parent_p.png,1.7252,,,,,
,,,,32229,001,2025-10-21_11h29.28.628,HW_LDT_1,2024.2.4,Win32,59.52380952,,,,,,,,,,,,,,,,,,,,,231.0942,231.2983,231.2983,231.7929,,,,,,,,,,,,,,0.9614,1,,,,,,,,,,,,,,m,,,,,,,,,,,,,,,,29,0,231.7937,232.7599,m,1,0.9614,,[],[],[],[],[],[],[],232.76,234.7594,234.7596,234.7599,[],[],[],[],[],[],[],,234.76,234.7601,-0.008333282,-0.211666718,0,0,0,,0,28,28,94,1,3,word,CLINICAL,print,clinical_p.png,,,,,,
,,,,32229,001,2025-10-21_11h29.28.628,HW_LDT_1,2024.2.4,Win32,59.52380952,,,,,,,,,,,,,,,,,,,,,234.7614,234.9593,234.9594,235.4592,,,,,,,,,,,,,,1.3709,1,,,,,,,,,,,,,,z,,,,,,,,,,,,,,,,30,0,235.4598,236.832,z,1,1.3709,,[],[],[],[],[],[],[],236.832,238.8262,238.8263,238.8265,[],[],[],[],[],[],[],,238.8265,238.8267,-0.008333282,-0.211666718,0,0,0,,0,29,29,58,1,3,TL,nuremical,print,nuremical_p.png,,,,,,
,,,,32229,001,2025-10-21_11h29.28.628,HW_LDT_1,2024.2.4,Win32,59.52380952,,,,,,,,,,,,,,,,,,,,,238.8288,239.0269,239.0269,239.5263,,,,,,,,,,,,,,1.0229,0,,,,,,,,,,,,,,m,,,,,,,,,,,,,,,,31,0,239.5269,240.5594,z,0,1.0229,,[],[],[],[],[],[],[],240.5595,242.5657,242.5658,242.5659,[],[],[],[],[],[],[],,242.566,242.5661,-0.008333282,-0.211666718,0,0,0,,0,30,30,110,1,3,word,HERITAGE,cursive,heritage_c.png,,,,,,
,,,,32229,001,2025-10-21_11h29.28.628,HW_LDT_1,2024.2.4,Win32,59.52380952,,,,,,,,,,,,,,,,,,,,,242.5692,242.7653,242.7653,243.2597,,,,,,,,,,,,,,1.7532,1,,,,,,,,,,,,,,z,,,,,,,,,,,,,,,,32,0,243.2606,245.0153,z,1,1.7532,,[],[],[],[],[],[],[],245.0154,247.0101,247.0101,247.0103,[],[],[],[],[],[],[],,247.0103,247.0104,-0.008333282,-0.211666718,0,0,0,,0,31,31,66,1,3,TL,retalive,cursive,retalive_c.png,,,,,,
,,,,32229,001,2025-10-21_11h29.28.628,HW_LDT_1,2024.2.4,Win32,59.52380952,,,,,,,,,,,,,,,,,,,,,247.0121,247.2092,247.2093,247.7089,,,,,,,,,,,,,,0.9557,1,,,,,,,,,,,,,,m,,,,,,,,,,,,,,,,33,0,247.7096,248.6762,m,1,0.9557,,[],[],[],[],[],[],[],248.6763,250.6759,250.676,250.6761,[],[],[],[],[],[],[],,250.6761,250.6763,-0.008333282,-0.211666718,0,0,0,,0,32,32,106,1,3,word,ELABORATE,print,elaborate_p.png,,,,,,
,,,,32229,001,2025-10-21_11h29.28.628,HW_LDT_1,2024.2.4,Win32,59.52380952,,,,,,,,,,,,,,,,,,,,,250.6783,250.8814,250.8815,251.3764,,,,,,,,,,,,,,3.0277,0,,,,,,,,,,,,,,m,,,,,,,,,,,,,,,,34,1,251.377,254.4096,z,0,3.0277,,[],[],[],[],[],[],[],254.4097,256.409,256.4091,257.7156,[],[],[],[],[],[],[],z,257.7156,257.7157,-0.008333282,-0.211666718,0,0,0,,0,33,33,121,1,3,word,MISTAKE,cursive,mistake_c.png,1.3052,,,,,
,,,,32229,001,2025-10-21_11h29.28.628,HW_LDT_1,2024.2.4,Win32,59.52380952,,,,,,,,,,,,,,,,,,,,,257.7173,257.9098,257.9099,258.4093,,,,,,,,,,,,,,0.9873,1,,,,,,,,,,,,,,m,,,,,,,,,,,,,,,,35,0,258.4099,259.4094,m,1,0.9873,,[],[],[],[],[],[],[],259.4096,261.4095,261.4095,261.4097,[],[],[],[],[],[],[],,261.4097,261.4099,-0.008333282,-0.211666718,0,0,0,,0,34,34,82,1,3,word,AMATEUR,print,amateur_p.png,,,,,,
,,,,32229,001,2025-10-21_11h29.28.628,HW_LDT_1,2024.2.4,Win32,59.52380952,,,,,,,,,,,,,,,,,,,,,261.4121,261.6095,261.6095,262.1095,,,,,,,,,,,,,,1.4351,1,,,,,,,,,,,,,,z,,,,,,,,,,,,,,,,36,1,262.1103,263.5471,z,1,1.4351,,[],[],[],[],[],[],[],263.5471,265.5424,265.5425,266.7097,[],[],[],[],[],[],[],m,266.7098,266.7101,-0.008333282,-0.211666718,0,0,0,,0,35,35,27,1,3,RL,recile,print,recile_p.png,1.1551,,,,,
,,,,32229,001,2025-10-21_11h29.28.628,HW_LDT_1,2024.2.4,Win32,59.52380952,,,,,,,,,,,,,,,,,,,,,266.7119,266.9098,266.91,267.4132,,,,,,,,,,,,,,3.7991,0,,,,,,,,,,,,,,m,,,,,,,,,,,,,,,,37,0,267.4145,271.2259,z,0,3.7991,,[],[],[],[],[],[],[],271.2259,273.2147,273.2148,273.2149,[],[],[],[],[],[],[],,273.2149,273.215,-0.008333282,-0.211666718,0,0,0,,0,36,36,117,1,3,word,MARINE,cursive,marine_c.png,,,,,,
,,,,32229,001,2025-10-21_11h29.28.628,HW_LDT_1,2024.2.4,Win32,59.52380952,,,,,,,,,,,,,,,,,,,,,273.2164,273.4093,273.4094,273.9084,,,,,,,,,,,,,,1.204,1,,,,,,,,,,,,,,z,,,,,,,,,,,,,,,,38,0,273.909,275.1147,z,1,1.204,,[],[],[],[],[],[],[],275.1148,277.1093,277.1094,277.1097,[],[],[],[],[],[],[],,277.1097,277.11,-0.008333282,-0.211666718,0,0,0,,0,37,37,50,1,3,TL,lirebal,print,lirebal_p.png,,,,,,
,,,,32229,001,2025-10-21_11h29.28.628,HW_LDT_1,2024.2.4,Win32,59.52380952,,,,,,,,,,,,,,,,,,,,,277.1113,277.3092,277.3092,277.8085,,,,,,,,,,,,,,3.9643,1,,,,,,,,,,,,,,m,,,,,,,,,,,,,,,,39,0,277.8089,281.7754,m,1,3.9643,,[],[],[],[],[],[],[],281.7754,283.7757,283.7758,283.7759,[],[],[],[],[],[],[],,283.7759,283.776,-0.008333282,-0.211666718,0,0,0,,0,38,38,159,1,3,word,VETERAN,cursive,veteran_c.png,,,,,,
,,,,32229,001,2025-10-21_11h29.28.628,HW_LDT_1,2024.2.4,Win32,59.52380952,,,,,,,,,,,,,,,,,,,,,283.7776,283.9643,283.9644,284.4651,,,,,,,,,,,,,,0.813,1,,,,,,,,,,,,,,z,,,,,,,,,,,,,,,,40,0,284.4657,285.28,z,1,0.813,,[],[],[],[],[],[],[],285.2801,287.2754,287.2755,287.2757,[],[],[],[],[],[],[],,287.2757,287.2757,-0.008333282,-0.211666718,0,0,0,,0,39,39,10,1,3,RL,efibor,print,efibor_p.png,,,,,,
,,,,32229,001,2025-10-21_11h29.28.628,HW_LDT_1,2024.2.4,Win32,59.52380952,,,,,,,,,,,,,,,,,,,,,287.2773,287.4763,287.4764,287.9643,,,,,,,,,,,,,,0.7875,1,,,,,,,,,,,,,,m,,,,,,,,,,,,,,,,41,0,287.9652,288.76,m,1,0.7875,,[],[],[],[],[],[],[],288.7602,290.7586,290.7588,290.7592,[],[],[],[],[],[],[],,290.7592,290.7595,-0.008333282,-0.211666718,0,0,0,,0,40,40,132,1,3,word,PROPOSAL,print,proposal_p.png,,,,,,
,,,,32229,001,2025-10-21_11h29.28.628,HW_LDT_1,2024.2.4,Win32,59.52380952,,,,,,,,,,,,,,,,,,,,,290.7614,290.9593,290.9594,291.4588,,,,,,,,,,,,,,0.8474,0,,,,,,,,,,,,,,z,,,,,,,,,,,,,,,,42,0,291.4594,292.309,m,0,0.8474,,[],[],[],[],[],[],[],292.3093,294.2988,294.2989,294.2991,[],[],[],[],[],[],[],,294.2992,294.2994,-0.008333282,-0.211666718,0,0,0,,0,41,41,53,1,3,TL,marnigal,print,marnigal_p.png,,,,,,
,,,,32229,001,2025-10-21_11h29.28.628,HW_LDT_1,2024.2.4,Win32,59.52380952,,,,,,,,,,,,,,,,,,,,,294.3004,294.4916,294.4917,294.9969,,,,,,,,,,,,,,1.8001,1,,,,,,,,,,,,,,z,,,,,,,,,,,,,,,,43,0,294.9975,296.7987,z,1,1.8001,,[],[],[],[],[],[],[],296.7988,298.7926,298.7926,298.7927,[],[],[],[],[],[],[],,298.7929,298.7931,-0.008333282,-0.211666718,0,0,0,,0,42,42,39,1,3,TL,clicinal,print,clicinal_p.png,,,,,,
,,,,32229,001,2025-10-21_11h29.28.628,HW_LDT_1,2024.2.4,Win32,59.52380952,,,,,,,,,,,,,,,,,,,,,298.7948,298.9981,298.9981,299.4808,,,,,,,,,,,,,,0.9159,1,,,,,,,,,,,,,,m,,,,,,,,,,,,,,,,44,0,299.4816,300.3994,m,1,0.9159,,[],[],[],[],[],[],[],300.3995,302.3921,302.3921,302.3923,[],[],[],[],[],[],[],,302.3923,302.3924,-0.008333282,-0.211666718,0,0,0,,0,43,43,96,1,3,word,CONSIDER,print,consider_p.png,,,,,,
,,,,32229,001,2025-10-21_11h29.28.628,HW_LDT_1,2024.2.4,Win32,59.52380952,,,,,,,,,,,,,,,,,,,,,302.3937,302.5809,302.5809,303.0931,,,,,,,,,,,,,,0.8588,1,,,,,,,,,,,,,,m,,,,,,,,,,,,,,,,45,0,303.0936,303.9585,m,1,0.8588,,[],[],[],[],[],[],[],303.9586,305.9582,305.9584,305.9585,[],[],[],[],[],[],[],,305.9586,305.9586,-0.008333282,-0.211666718,0,0,0,,0,44,44,125,1,3,word,OPERATOR,print,operator_p.png,,,,,,
,,,,32229,001,2025-10-21_11h29.28.628,HW_LDT_1,2024.2.4,Win32,59.52380952,,,,,,,,,,,,,,,,,,,,,305.9598,306.1587,306.1587,306.6586,,,,,,,,,,,,,,0.7043,1,,,,,,,,,,,,,,m,,,,,,,,,,,,,,,,46,0,306.6596,307.3652,m,1,0.7043,,[],[],[],[],[],[],[],307.3652,309.3619,309.3619,309.3621,[],[],[],[],[],[],[],,309.3621,309.3621,-0.008333282,-0.211666718,0,0,0,,0,45,45,103,1,3,word,DISPUTE,print,dispute_p.png,,,,,,
,,,,32229,001,2025-10-21_11h29.28.628,HW_LDT_1,2024.2.4,Win32,59.52380952,,,,,,,,,,,,,,,,,,,,,309.3633,309.5583,309.5583,310.0591,,,,,,,,,,,,,,0.9127,0,,,,,,,,,,,,,,z,,,,,,,,,,,,,,,,47,0,310.0597,310.9749,m,0,0.9127,,[],[],[],[],[],[],[],310.975,312.9753,312.9753,312.9754,[],[],[],[],[],[],[],,312.9754,312.9755,-0.008333282,-0.211666718,0,0,0,,0,46,46,54,1,3,TL,manire,cursive,manire_c.png,,,,,,
,,,,32229,001,2025-10-21_11h29.28.628,HW_LDT_1,2024.2.4,Win32,59.52380952,,,,,,,,,,,,,,,,,,,,,312.977,313.1754,313.1754,313.6756,,,,,,,,,,,,,,1.526,1,,,,,,,,,,,,,,m,,,,,,,,,,,,,,,,48,0,313.6765,315.2091,m,1,1.526,,[],[],[],[],[],[],[],315.2092,317.1976,317.1977,317.1979,[],[],[],[],[],[],[],,317.1979,317.198,-0.008333282,-0.211666718,0,0,0,,0,47,47,89,1,3,word,CAPACITY,cursive,capacity_c.png,,,,,,
,,,,32229,001,2025-10-21_11h29.28.628,HW_LDT_1,2024.2.4,Win32,59.52380952,,,,,,,,,,,,,,,,,,,,,317.1998,317.3924,317.3925,317.892,,,,,,,,,,,,,,1.4358,1,,,,,,,,,,,,,,z,,,,,,,,,,,,,,,,49,0,317.8931,319.3302,z,1,1.4358,,[],[],[],[],[],[],[],319.3303,321.3261,321.3262,321.3264,[],[],[],[],[],[],[],,321.3265,321.3266,-0.008333282,-0.211666718,0,0,0,,0,48,48,63,1,3,TL,racidal,cursive,racidal_c.png,,,,,,
,,,,32229,001,2025-10-21_11h29.28.628,HW_LDT_1,2024.2.4,Win32,59.52380952,,,,,,,,,,,,,,,,,,,,,321.3282,321.5254,321.5254,322.0288,,,,,,,,,,,,,,0.9006,1,,,,,,,,,,,,,,z,,,,,,,,,,,,,,,,50,0,322.0295,322.9311,z,1,0.9006,,[],[],[],[],[],[],[],322.9312,324.9246,324.9246,324.9247,[],[],[],[],[],[],[],,324.9248,324.9249,-0.008333282,-0.211666718,0,0,0,,0,49,49,51,1,3,TL,liretal,print,liretal_p.png,,,,,,
,,,,32229,001,2025-10-21_11h29.28.628,HW_LDT_1,2024.2.4,Win32,59.52380952,,,,,,,,,,,,,,,,,,,,,324.9267,325.1284,325.1285,325.6258,,,,,,,,,,,,,,0.9538,1,,,,,,,,,,,,,,m,,,,,,,,,,,,,,,,51,0,325.6265,326.5814,m,1,0.9538,,[],[],[],[],[],[],[],326.5815,328.5746,328.5747,328.5749,[],[],[],[],[],[],[],,328.5749,328.5751,-0.008333282,-0.211666718,0,0,0,,0,50,50,138,1,3,word,REFUSAL,print,refusal_p.png,,,,,,
,,,,32229,001,2025-10-21_11h29.28.628,HW_LDT_1,2024.2.4,Win32,59.52380952,,,,,,,,,,,,,,,,,,,,,328.5771,328.7755,328.7756,329.2752,,,,,,,,,,,,,,1.3569,1,,,,,,,,,,,,,,m,,,,,,,,,,,,,,,,52,0,329.2758,330.641,m,1,1.3569,,[],[],[],[],[],[],[],330.641,332.6419,332.642,332.6422,[],[],[],[],[],[],[],,332.6423,332.6424,-0.008333282,-0.211666718,0,0,0,,0,51,51,93,1,3,word,CEREMONY,cursive,ceremony_c.png,,,,,,
,,,,32229,001,2025-10-21_11h29.28.628,HW_LDT_1,2024.2.4,Win32,59.52380952,,,,,,,,,,,,,,,,,,,,,332.6451,332.8301,332.8302,333.3467,,,,,,,,,,,,,,1.1829,1,,,,,,,,,,,,,,z,,,,,,,,,,,,,,,,53,0,333.3471,334.5314,z,1,1.1829,,[],[],[],[],[],[],[],334.5315,336.526,336.5261,336.5265,[],[],[],[],[],[],[],,336.5268,336.5269,-0.008333282,-0.211666718,0,0,0,,0,52,52,42,1,3,TL,detabe,cursive,detabe_c.png,,,,,,
,,,,32229,001,2025-10-21_11h29.28.628,HW_LDT_1,2024.2.4,Win32,59.52380952,,,,,,,,,,,,,,,,,,,,,336.5284,336.7259,336.7259,337.2251,,,,,,,,,,,,,,1.621,0,,,,,,,,,,,,,,m,,,,,,,,,,,,,,,,54,0,337.2256,338.8479,z,0,1.621,,[],[],[],[],[],[],[],338.848,340.842,340.842,340.8422,[],[],[],[],[],[],[],,340.8422,340.8423,-0.008333282,-0.211666718,0,0,0,,0,53,53,99,1,3,word,DEBATE,cursive,debate_c.png,,,,,,
,,,,32229,001,2025-10-21_11h29.28.628,HW_LDT_1,2024.2.4,Win32,59.52380952,,,,,,,,,,,,,,,,,,,,,340.8439,341.0421,341.0425,341.5424,,,,,,,,,,,,,,1.1688,1,,,,,,,,,,,,,,z,,,,,,,,,,,,,,,,55,0,341.5434,342.7135,z,1,1.1688,,[],[],[],[],[],[],[],342.7136,344.7082,344.7084,344.7085,[],[],[],[],[],[],[],,344.7087,344.7089,-0.008333282,-0.211666718,0,0,0,,0,54,54,4,1,3,RL,cafigal,cursive,cafigal_c.png,,,,,,
,,,,32229,001,2025-10-21_11h29.28.628,HW_LDT_1,2024.2.4,Win32,59.52380952,,,,,,,,,,,,,,,,,,,,,344.711,344.9086,344.9087,345.408,,,,,,,,,,,,,,1.9757,1,,,,,,,,,,,,,,z,,,,,,,,,,,,,,,,56,0,345.4087,347.393,z,1,1.9757,,[],[],[],[],[],[],[],347.3932,349.3916,349.3917,349.3922,[],[],[],[],[],[],[],,349.3923,349.3927,-0.008333282,-0.211666718,0,0,0,,0,55,55,59,1,3,TL,paficic,cursive,paficic_c.png,,,,,,
,,,,32229,001,2025-10-21_11h29.28.628,HW_LDT_1,2024.2.4,Win32,59.52380952,,,,,,,,,,,,,,,,,,,,,349.3943,349.591,349.591,350.092,,,,,,,,,,,,,,0.9031,1,,,,,,,,,,,,,,m,,,,,,,,,,,,,,,,57,1,350.0935,351.0082,m,1,0.9031,,[],[],[],[],[],[],[],351.0083,353.0138,353.0138,353.7085,[],[],[],[],[],[],[],m,353.7087,353.7089,-0.008333282,-0.211666718,0,0,0,,0,56,56,141,1,3,word,RELIGION,print,religion_p.png,0.6868,,,,,
,,,,32229,001,2025-10-21_11h29.28.628,HW_LDT_1,2024.2.4,Win32,59.52380952,,,,,,,,,,,,,,,,,,,,,353.7108,353.9077,353.9077,354.4085,,,,,,,,,,,,,,2.7025,1,,,,,,,,,,,,,,z,,,,,,,,,,,,,,,,58,1,354.4092,357.1131,z,1,2.7025,,[],[],[],[],[],[],[],357.1131,359.1081,359.1082,360.3256,[],[],[],[],[],[],[],z,360.3257,360.3257,-0.008333282,-0.211666718,0,0,0,,0,57,57,70,1,3,TL,remuse,cursive,remuse_c.png,1.2073,,,,,
,,,,32229,001,2025-10-21_11h29.28.628,HW_LDT_1,2024.2.4,Win32,59.52380952,,,,,,,,,,,,,,,,,,,,,360.3279,360.5243,360.5243,361.024,,,,,,,,,,,,,,1.5873,0,,,,,,,,,,,,,,m,,,,,,,,,,,,,,,,59,0,361.0246,362.613,z,0,1.5873,,[],[],[],[],[],[],[],362.6132,364.6076,364.6076,364.6079,[],[],[],[],[],[],[],,364.6079,364.608,-0.008333282,-0.211666718,0,0,0,,0,58,58,126,1,3,word,OPTIMAL,cursive,optimal_c.png,,,,,,
,,,,32229,001,2025-10-21_11h29.28.628,HW_LDT_1,2024.2.4,Win32,59.52380952,,,,,,,,,,,,,,,,,,,,,364.6103,364.8082,364.8082,365.308,,,,,,,,,,,,,,1.4525,1,,,,,,,,,,,,,,z,,,,,,,,,,,,,,,,60,1,365.3087,366.7624,z,1,1.4525,,[],[],[],[],[],[],[],366.7625,368.7579,368.7579,369.8968,[],[],[],[],[],[],[],z,369.8969,369.897,-0.008333282,-0.211666718,0,0,0,,0,59,59,1,1,3,RL,bewoted,cursive,bewoted_c.png,1.138,,,,,
,,,,32229,001,2025-10-21_11h29.28.628,HW_LDT_1,2024.2.4,Win32,59.52380952,,,,,,,,,,,,,,,,,,,,,369.8984,370.0921,370.0925,370.5911,,,,,,,,,,,,,,0.97,1,,,,,,,,,,,,,,m,,,,,,,,,,,,,,,,61,0,370.5917,371.5628,m,1,0.97,,[],[],[],[],[],[],[],371.5628,373.5585,373.5585,373.5587,[],[],[],[],[],[],[],,373.5594,373.5595,-0.008333282,-0.211666718,0,0,0,,0,60,60,102,1,3,word,DENSITY,print,density_p.png,,,,,,
,,,,32229,001,2025-10-21_11h29.28.628,HW_LDT_1,2024.2.4,Win32,59.52380952,,,,,,,,,,,,,,,,,,,,,373.561,373.7581,373.7581,374.2591,,,,,,,,,,,,,,0.9886,1,,,,,,,,,,,,,,m,,,,,,,,,,,,,,,,62,0,374.2597,375.2584,m,1,0.9886,,[],[],[],[],[],[],[],375.2584,377.2576,377.2577,377.2578,[],[],[],[],[],[],[],,377.2578,377.2578,-0.008333282,-0.211666718,0,0,0,,0,61,61,84,1,3,word,BELOVED,cursive,beloved_c.png,,,,,,
,,,,32229,001,2025-10-21_11h29.28.628,HW_LDT_1,2024.2.4,Win32,59.52380952,,,,,,,,,,,,,,,,,,,,,377.2591,377.4582,377.4583,377.9578,,,,,,,,,,,,,,0.611,1,,,,,,,,,,,,,,m,,,,,,,,,,,,,,,,63,0,377.9587,378.5747,m,1,0.611,,[],[],[],[],[],[],[],378.5748,380.5746,380.5746,380.5747,[],[],[],[],[],[],[],,380.5748,380.5749,-0.008333282,-0.211666718,0,0,0,,0,62,62,135,1,3,word,QUALITY,print,quality_p.png,,,,,,
,,,,32229,001,2025-10-21_11h29.28.628,HW_LDT_1,2024.2.4,Win32,59.52380952,,,,,,,,,,,,,,,,,,,,,380.5764,380.7752,380.7752,381.2746,,,,,,,,,,,,,,0.8703,0,,,,,,,,,,,,,,z,,,,,,,,,,,,,,,,64,0,381.2752,382.1472,m,0,0.8703,,[],[],[],[],[],[],[],382.1473,384.1413,384.1413,384.1417,[],[],[],[],[],[],[],,384.1417,384.1418,-0.008333282,-0.211666718,0,0,0,,0,63,63,78,1,3,TL,vecolity,cursive,vecolity_c.png,,,,,,
,,,,32229,001,2025-10-21_11h29.28.628,HW_LDT_1,2024.2.4,Win32,59.52380952,,,,,,,,,,,,,,,,,,,,,384.144,384.3449,384.3449,384.8472,,,,,,,,,,,,,,0.6122,1,,,,,,,,,,,,,,m,,,,,,,,,,,,,,,,65,0,384.848,385.4617,m,1,0.6122,,[],[],[],[],[],[],[],385.4617,387.4577,387.4577,387.4579,[],[],[],[],[],[],[],,387.458,387.4581,-0.008333282,-0.211666718,0,0,0,,0,64,64,98,1,3,word,CRIMINAL,print,criminal_p.png,,,,,,
,,,,32229,001,2025-10-21_11h29.28.628,HW_LDT_1,2024.2.4,Win32,59.52380952,,,,,,,,,,,,,,,,,,,,,387.4603,387.6624,387.6624,388.1633,,,,,,,,,,,,,,1.2468,1,,,,,,,,,,,,,,z,,,,,,,,,,,,,,,,66,0,388.1639,389.4124,z,1,1.2468,,[],[],[],[],[],[],[],389.4126,391.4086,391.4087,391.409,[],[],[],[],[],[],[],,391.4091,391.4092,-0.008333282,-0.211666718,0,0,0,,0,65,65,49,1,3,TL,incidate,print,incidate_p.png,,,,,,
,,,,32229,001,2025-10-21_11h29.28.628,HW_LDT_1,2024.2.4,Win32,59.52380952,,,,,,,,,,,,,,,,,,,,,391.411,391.6077,391.6077,392.1127,,,,,,,,,,,,,,1.0167,1,,,,,,,,,,,,,,z,,,,,,,,,,,,,,,,67,0,392.1133,393.1411,z,1,1.0167,,[],[],[],[],[],[],[],393.1413,395.1451,395.1452,395.1453,[],[],[],[],[],[],[],,395.1454,395.1454,-0.008333282,-0.211666718,0,0,0,,0,66,66,29,1,3,RL,selamor,cursive,selamor_c.png,,,,,,
,,,,32229,001,2025-10-21_11h29.28.628,HW_LDT_1,2024.2.4,Win32,59.52380952,,,,,,,,,,,,,,,,,,,,,395.1468,395.3415,395.3415,395.8404,,,,,,,,,,,,,,0.7665,1,,,,,,,,,,,,,,m,,,,,,,,,,,,,,,,68,0,395.8408,396.6085,m,1,0.7665,,[],[],[],[],[],[],[],396.6086,398.6139,398.6139,398.6141,[],[],[],[],[],[],[],,398.6141,398.6142,-0.008333282,-0.211666718,0,0,0,,0,67,67,152,1,3,word,SPECIMEN,print,specimen_p.png,,,,,,
,,,,32229,001,2025-10-21_11h29.28.628,HW_LDT_1,2024.2.4,Win32,59.52380952,,,,,,,,,,,,,,,,,,,,,398.616,398.8073,398.8073,399.3072,,,,,,,,,,,,,,0.8251,1,,,,,,,,,,,,,,z,,,,,,,,,,,,,,,,69,0,399.308,400.1407,z,1,0.8251,,[],[],[],[],[],[],[],400.1408,402.1445,402.1445,402.1447,[],[],[],[],[],[],[],,402.1447,402.1448,-0.008333282,-0.211666718,0,0,0,,0,68,68,75,1,3,TL,sloten,cursive,sloten_c.png,,,,,,
,,,,32229,001,2025-10-21_11h29.28.628,HW_LDT_1,2024.2.4,Win32,59.52380952,,,,,,,,,,,,,,,,,,,,,402.1467,402.3407,402.3407,402.8418,,,,,,,,,,,,,,0.935,1,,,,,,,,,,,,,,m,,,,,,,,,,,,,,,,70,0,402.8427,403.7802,m,1,0.935,,[],[],[],[],[],[],[],403.7802,405.7747,405.7747,405.7748,[],[],[],[],[],[],[],,405.7749,405.7749,-0.008333282,-0.211666718,0,0,0,,0,69,69,111,1,3,word,INDICATE,print,indicate_p.png,,,,,,
,,,,32229,001,2025-10-21_11h29.28.628,HW_LDT_1,2024.2.4,Win32,59.52380952,,,,,,,,,,,,,,,,,,,,,405.7767,405.9806,405.9807,406.4786,,,,,,,,,,,,,,1.3087,1,,,,,,,,,,,,,,m,,,,,,,,,,,,,,,,71,1,406.4794,407.7907,m,1,1.3087,,[],[],[],[],[],[],[],407.7907,409.791,409.7913,410.4072,[],[],[],[],[],[],[],z,410.4074,410.4076,-0.008333282,-0.211666718,0,0,0,,0,70,70,143,1,3,word,REMOVAL,cursive,removal_c.png,0.6087,,,,,
,,,,32229,001,2025-10-21_11h29.28.628,HW_LDT_1,2024.2.4,Win32,59.52380952,,,,,,,,,,,,,,,,,,,,,410.4098,410.6081,410.6081,411.1134,,,,,,,,,,,,,,1.013,1,,,,,,,,,,,,,,m,,,,,,,,,,,,,,,,72,0,411.1143,412.1288,m,1,1.013,,[],[],[],[],[],[],[],412.1289,414.1241,414.1244,414.1247,[],[],[],[],[],[],[],,414.1248,414.1248,-0.008333282,-0.211666718,0,0,0,,0,71,71,91,1,3,word,CARDINAL,print,cardinal_p.png,,,,,,
,,,,32229,001,2025-10-21_11h29.28.628,HW_LDT_1,2024.2.4,Win32,59.52380952,,,,,,,,,,,,,,,,,,,,,414.1266,414.3234,414.3234,414.8239,,,,,,,,,,,,,,1.6046,1,,,,,,,,,,,,,,m,,,,,,,,,,,,,,,,73,0,414.8248,416.4401,m,1,1.6046,,[],[],[],[],[],[],[],416.4402,418.4406,418.4406,418.4408,[],[],[],[],[],[],[],,418.4408,418.441,-0.008333282,-0.211666718,0,0,0,,0,72,72,128,1,3,word,PACIFIC,cursive,pacific_c.png,,,,,,
,,,,32229,001,2025-10-21_11h29.28.628,HW_LDT_1,2024.2.4,Win32,59.52380952,,,,,,,,,,,,,,,,,,,,,418.4429,418.6409,418.641,419.1403,,,,,,,,,,,,,,1.1412,1,,,,,,,,,,,,,,z,,,,,,,,,,,,,,,,74,0,419.1414,420.2903,z,1,1.1412,,[],[],[],[],[],[],[],420.2904,422.2795,422.2795,422.2796,[],[],[],[],[],[],[],,422.2796,422.2798,-0.008333282,-0.211666718,0,0,0,,0,73,73,3,1,3,RL,bebine,cursive,bebine_c.png,,,,,,
,,,,32229,001,2025-10-21_11h29.28.628,HW_LDT_1,2024.2.4,Win32,59.52380952,,,,,,,,,,,,,,,,,,,,,422.2812,422.4735,422.4736,422.9785,,,,,,,,,,,,,,1.3163,1,,,,,,,,,,,,,,z,,,,,,,,,,,,,,,,75,0,422.9794,424.2971,z,1,1.3163,,[],[],[],[],[],[],[],424.2971,426.295,426.2951,426.2952,[],[],[],[],[],[],[],,426.2952,426.2952,-0.008333282,-0.211666718,0,0,0,,0,74,74,28,1,3,RL,rovastic,cursive,rovastic_c.png,,,,,,
,,,,32229,001,2025-10-21_11h29.28.628,HW_LDT_1,2024.2.4,Win32,59.52380952,,,,,,,,,,,,,,,,,,,,,426.2964,426.4903,426.4904,426.9917,,,,,,,,,,,,,,1.3747,1,,,,,,,,,,,,,,z,,,,,,,,,,,,,,,,76,1,426.9931,428.3742,z,1,1.3747,,[],[],[],[],[],[],[],428.3743,430.3737,430.3737,431.9567,[],[],[],[],[],[],[],m,431.9568,431.957,-0.008333282,-0.211666718,0,0,0,,0,75,75,64,1,3,TL,radiply,print,radiply_p.png,1.5779,,,,,
,,,,32229,001,2025-10-21_11h29.28.628,HW_LDT_1,2024.2.4,Win32,59.52380952,,,,,,,,,,,,,,,,,,,,,431.9587,432.1583,432.1583,432.6572,,,,,,,,,,,,,,1.5063,1,,,,,,,,,,,,,,m,,,,,,,,,,,,,,,,77,1,432.6576,434.1745,m,1,1.5063,,[],[],[],[],[],[],[],434.1745,436.1745,436.1745,438.9736,[],[],[],[],[],[],[],z,438.9737,438.9738,-0.008333282,-0.211666718,0,0,0,,0,76,76,158,1,3,word,VELOCITY,cursive,velocity_c.png,2.7943,,,,,
,,,,32229,001,2025-10-21_11h29.28.628,HW_LDT_1,2024.2.4,Win32,59.52380952,,,,,,,,,,,,,,,,,,,,,438.9753,439.1747,439.1747,439.6744,,,,,,,,,,,,,,3.204,1,,,,,,,,,,,,,,m,,,,,,,,,,,,,,,,78,0,439.675,442.8908,m,1,3.204,,[],[],[],[],[],[],[],442.8909,444.8915,444.8916,444.8917,[],[],[],[],[],[],[],,444.8918,444.8919,-0.008333282,-0.211666718,0,0,0,,0,77,77,155,1,3,word,STRATEGY,print,strategy_p.png,,,,,,
,,,,32229,001,2025-10-21_11h29.28.628,HW_LDT_1,2024.2.4,Win32,59.52380952,,,,,,,,,,,,,,,,,,,,,444.8936,445.0902,445.0902,445.5915,,,,,,,,,,,,,,1.321,1,,,,,,,,,,,,,,z,,,,,,,,,,,,,,,,79,1,445.592,446.9238,z,1,1.321,,[],[],[],[],[],[],[],446.924,448.9244,448.9244,450.1404,[],[],[],[],[],[],[],m,450.1404,450.1405,-0.008333282,-0.211666718,0,0,0,,0,78,78,73,1,3,TL,speficic,print,speficic_p.png,1.2138,,,,,
,,,,32229,001,2025-10-21_11h29.28.628,HW_LDT_1,2024.2.4,Win32,59.52380952,,,,,,,,,,,,,,,,,,,,,450.1423,450.3412,450.3413,450.8403,,,,,,,,,,,,,,1.6645,1,,,,,,,,,,,,,,z,,,,,,,,,,,,,,,,80,0,450.8408,452.5097,z,1,1.6645,,[],[],[],[],[],[],[],452.5097,454.5067,454.5069,454.5071,[],[],[],[],[],[],[],,454.5071,469.4748,-0.008333282,-0.211666718,0,0,0,space,0,79,79,74,1,3,TL,spemicen,print,spemicen_p.png,,,14.9395,,,
,,,,32229,001,2025-10-21_11h29.28.628,HW_LDT_1,2024.2.4,Win32,59.52380952,,,,,,,,,,,,,,,,,,,,,469.476,469.6746,469.6746,470.1745,,,,,,,,,,,,,,2.0401,0,,,,,,,,,,,,,,m,,,,,,,,,,,,,,,,81,1,470.1749,472.2246,z,0,2.0401,,[],[],[],[],[],[],[],472.2246,474.223,474.223,475.6079,[],[],[],[],[],[],[],z,475.608,475.6082,-0.008333282,-0.211666718,0,0,0,,0,80,80,149,1,3,word,SENATOR,cursive,senator_c.png,1.3753,,,,,
,,,,32229,001,2025-10-21_11h29.28.628,HW_LDT_1,2024.2.4,Win32,59.52380952,,,,,,,,,,,,,,,,,,,,,475.6096,475.8071,475.8075,476.3074,,,,,,,,,,,,,,0.8898,1,,,,,,,,,,,,,,z,,,,,,,,,,,,,,,,82,0,476.308,477.2087,z,1,0.8898,,[],[],[],[],[],[],[],477.2089,479.2068,479.2068,479.2068,[],[],[],[],[],[],[],,479.2069,479.207,-0.008333282,-0.211666718,0,0,0,,0,81,81,21,1,3,RL,potugar,print,potugar_p.png,,,,,,
,,,,32229,001,2025-10-21_11h29.28.628,HW_LDT_1,2024.2.4,Win32,59.52380952,,,,,,,,,,,,,,,,,,,,,479.2093,479.407,479.407,479.9081,,,,,,,,,,,,,,0.82,1,,,,,,,,,,,,,,z,,,,,,,,,,,,,,,,83,0,479.9087,480.7402,z,1,0.82,,[],[],[],[],[],[],[],480.7404,482.7406,482.7406,482.7409,[],[],[],[],[],[],[],,482.741,482.7411,-0.008333282,-0.211666718,0,0,0,,0,82,82,46,1,3,TL,distupe,print,distupe_p.png,,,,,,
,,,,32229,001,2025-10-21_11h29.28.628,HW_LDT_1,2024.2.4,Win32,59.52380952,,,,,,,,,,,,,,,,,,,,,482.7432,482.9398,482.9401,483.4397,,,,,,,,,,,,,,0.7732,1,,,,,,,,,,,,,,z,,,,,,,,,,,,,,,,84,0,483.4402,484.2242,z,1,0.7732,,[],[],[],[],[],[],[],484.2243,486.2235,486.2235,486.2237,[],[],[],[],[],[],[],,486.2238,486.224,-0.008333282,-0.211666718,0,0,0,,0,83,83,31,1,3,RL,trilude,print,trilude_p.png,,,,,,
,,,,32229,001,2025-10-21_11h29.28.628,HW_LDT_1,2024.2.4,Win32,59.52380952,,,,,,,,,,,,,,,,,,,,,486.2253,486.4243,486.4243,486.9233,,,,,,,,,,,,,,1.1727,1,,,,,,,,,,,,,,m,,,,,,,,,,,,,,,,85,0,486.9244,488.1087,m,1,1.1727,,[],[],[],[],[],[],[],488.1087,490.1067,490.1067,490.1069,[],[],[],[],[],[],[],,490.1069,490.107,-0.008333282,-0.211666718,0,0,0,,0,84,84,154,1,3,word,STORAGE,cursive,storage_c.png,,,,,,
,,,,32229,001,2025-10-21_11h29.28.628,HW_LDT_1,2024.2.4,Win32,59.52380952,,,,,,,,,,,,,,,,,,,,,490.1089,490.3072,490.3073,490.8067,,,,,,,,,,,,,,1.4085,1,,,,,,,,,,,,,,m,,,,,,,,,,,,,,,,86,0,490.8072,492.2232,m,1,1.4085,,[],[],[],[],[],[],[],492.2232,494.2243,494.2244,494.2245,[],[],[],[],[],[],[],,494.2245,494.2246,-0.008333282,-0.211666718,0,0,0,,0,85,85,150,1,3,word,SENTIMENT,print,sentiment_p.png,,,,,,
,,,,32229,001,2025-10-21_11h29.28.628,HW_LDT_1,2024.2.4,Win32,59.52380952,,,,,,,,,,,,,,,,,,,,,494.2258,494.425,494.425,494.9229,,,,,,,,,,,,,,0.839,1,,,,,,,,,,,,,,m,,,,,,,,,,,,,,,,87,0,494.9234,495.7731,m,1,0.839,,[],[],[],[],[],[],[],495.7731,497.7744,497.7745,497.7746,[],[],[],[],[],[],[],,497.7748,497.775,-0.008333282,-0.211666718,0,0,0,,0,86,86,139,1,3,word,REGULAR,print,regular_p.png,,,,,,
,,,,32229,001,2025-10-21_11h29.28.628,HW_LDT_1,2024.2.4,Win32,59.52380952,,,,,,,,,,,,,,,,,,,,,497.7762,497.9733,497.9733,498.4732,,,,,,,,,,,,,,0.6775,1,,,,,,,,,,,,,,m,,,,,,,,,,,,,,,,88,0,498.4741,499.1566,m,1,0.6775,,[],[],[],[],[],[],[],499.1567,501.1568,501.1569,501.157,[],[],[],[],[],[],[],,501.1571,501.1571,-0.008333282,-0.211666718,0,0,0,,0,87,87,124,1,3,word,NUMERICAL,print,numerical_p.png,,,,,,
,,,,32229,001,2025-10-21_11h29.28.628,HW_LDT_1,2024.2.4,Win32,59.52380952,,,,,,,,,,,,,,,,,,,,,501.1584,501.3561,501.3562,501.8568,,,,,,,,,,,,,,0.7549,1,,,,,,,,,,,,,,m,,,,,,,,,,,,,,,,89,0,501.8575,502.624,m,1,0.7549,,[],[],[],[],[],[],[],502.624,504.623,504.6232,504.6237,[],[],[],[],[],[],[],,504.6237,504.6238,-0.008333282,-0.211666718,0,0,0,,0,88,88,101,1,3,word,DELICATE,print,delicate_p.png,,,,,,
,,,,32229,001,2025-10-21_11h29.28.628,HW_LDT_1,2024.2.4,Win32,59.52380952,,,,,,,,,,,,,,,,,,,,,504.625,504.8232,504.8235,505.3233,,,,,,,,,,,,,,1.9742,1,,,,,,,,,,,,,,z,,,,,,,,,,,,,,,,90,1,505.3243,507.3069,z,1,1.9742,,[],[],[],[],[],[],[],507.3071,509.3063,509.3064,510.3738,[],[],[],[],[],[],[],z,510.3738,510.3739,-0.008333282,-0.211666718,0,0,0,,0,89,89,36,1,3,TL,carema,cursive,carema_c.png,1.0562,,,,,
,,,,32229,001,2025-10-21_11h29.28.628,HW_LDT_1,2024.2.4,Win32,59.52380952,,,,,,,,,,,,,,,,,,,,,510.3754,510.5732,510.5733,511.0736,,,,,,,,,,,,,,1.1367,1,,,,,,,,,,,,,,m,,,,,,,,,,,,,,,,91,1,511.0744,512.2239,m,1,1.1367,,[],[],[],[],[],[],[],512.224,514.2235,514.2235,515.1236,[],[],[],[],[],[],[],z,515.1237,515.1238,-0.008333282,-0.211666718,0,0,0,,0,90,90,83,1,3,word,ANIMAL,cursive,animal_c.png,0.8971,,,,,
,,,,32229,001,2025-10-21_11h29.28.628,HW_LDT_1,2024.2.4,Win32,59.52380952,,,,,,,,,,,,,,,,,,,,,515.1256,515.3225,515.3225,515.8232,,,,,,,,,,,,,,1.5543,0,,,,,,,,,,,,,,m,,,,,,,,,,,,,,,,92,0,515.824,517.3896,z,0,1.5543,,[],[],[],[],[],[],[],517.3897,519.3892,519.3894,519.3895,[],[],[],[],[],[],[],,519.3895,519.3897,-0.008333282,-0.211666718,0,0,0,,0,91,91,88,1,3,word,CAMERA,cursive,camera_c.png,,,,,,
,,,,32229,001,2025-10-21_11h29.28.628,HW_LDT_1,2024.2.4,Win32,59.52380952,,,,,,,,,,,,,,,,,,,,,519.3914,519.5894,519.5895,520.0897,,,,,,,,,,,,,,0.9532,1,,,,,,,,,,,,,,z,,,,,,,,,,,,,,,,93,0,520.0902,521.0568,z,1,0.9532,,[],[],[],[],[],[],[],521.0569,523.0573,523.0574,523.0576,[],[],[],[],[],[],[],,523.0576,523.0577,-0.008333282,-0.211666718,0,0,0,,0,92,92,9,1,3,RL,docirant,print,docirant_p.png,,,,,,
,,,,32229,001,2025-10-21_11h29.28.628,HW_LDT_1,2024.2.4,Win32,59.52380952,,,,,,,,,,,,,,,,,,,,,523.0592,523.2569,523.257,523.757,,,,,,,,,,,,,,0.787,1,,,,,,,,,,,,,,z,,,,,,,,,,,,,,,,94,0,523.7576,524.5557,z,1,0.787,,[],[],[],[],[],[],[],524.5558,526.5569,526.5569,526.557,[],[],[],[],[],[],[],,526.557,526.5574,-0.008333282,-0.211666718,0,0,0,,0,93,93,40,1,3,TL,condiser,print,condiser_p.png,,,,,,
,,,,32229,001,2025-10-21_11h29.28.628,HW_LDT_1,2024.2.4,Win32,59.52380952,,,,,,,,,,,,,,,,,,,,,526.5589,526.7564,526.7564,527.2567,,,,,,,,,,,,,,0.8783,1,,,,,,,,,,,,,,m,,,,,,,,,,,,,,,,95,1,527.2575,528.1394,m,1,0.8783,,[],[],[],[],[],[],[],528.1394,530.14,530.14,531.24,[],[],[],[],[],[],[],m,531.2401,531.2404,-0.008333282,-0.211666718,0,0,0,,0,94,94,97,1,3,word,COVERAGE,print,coverage_p.png,1.0894,,,,,
,,,,32229,001,2025-10-21_11h29.28.628,HW_LDT_1,2024.2.4,Win32,59.52380952,,,,,,,,,,,,,,,,,,,,,531.2419,531.44,531.4401,531.939,,,,,,,,,,,,,,0.9882,1,,,,,,,,,,,,,,z,,,,,,,,,,,,,,,,96,0,531.9398,532.9394,z,1,0.9882,,[],[],[],[],[],[],[],532.9395,534.9402,534.9402,534.9403,[],[],[],[],[],[],[],,534.9403,534.9404,-0.008333282,-0.211666718,0,0,0,,0,95,95,57,1,3,TL,moredate,cursive,moredate_c.png,,,,,,
,,,,32229,001,2025-10-21_11h29.28.628,HW_LDT_1,2024.2.4,Win32,59.52380952,,,,,,,,,,,,,,,,,,,,,534.9416,535.1405,535.1406,535.6404,,,,,,,,,,,,,,0.7541,1,,,,,,,,,,,,,,z,,,,,,,,,,,,,,,,97,0,535.6411,536.4064,z,1,0.7541,,[],[],[],[],[],[],[],536.4064,538.4073,538.4074,538.4076,[],[],[],[],[],[],[],,538.4076,538.4078,-0.008333282,-0.211666718,0,0,0,,0,96,96,62,1,3,TL,prodive,print,prodive_p.png,,,,,,
,,,,32229,001,2025-10-21_11h29.28.628,HW_LDT_1,2024.2.4,Win32,59.52380952,,,,,,,,,,,,,,,,,,,,,538.4091,538.6063,538.6064,539.1068,,,,,,,,,,,,,,0.9735,1,,,,,,,,,,,,,,m,,,,,,,,,,,,,,,,98,0,539.1073,540.0904,m,1,0.9735,,[],[],[],[],[],[],[],540.0904,542.0892,542.0893,542.0894,[],[],[],[],[],[],[],,542.0894,542.0895,-0.008333282,-0.211666718,0,0,0,,0,97,97,100,1,3,word,DECADE,cursive,decade_c.png,,,,,,
,,,,32229,001,2025-10-21_11h29.28.628,HW_LDT_1,2024.2.4,Win32,59.52380952,,,,,,,,,,,,,,,,,,,,,542.0908,542.29,542.2901,542.7895,,,,,,,,,,,,,,1.2543,0,,,,,,,,,,,,,,m,,,,,,,,,,,,,,,,99,1,542.7906,544.057,z,0,1.2543,,[],[],[],[],[],[],[],544.0571,546.0567,546.0567,547.2063,[],[],[],[],[],[],[],z,547.2065,547.2067,-0.008333282,-0.211666718,0,0,0,,0,98,98,92,1,3,word,CATEGORY,cursive,category_c.png,1.1375,,,,,
,,,,32229,001,2025-10-21_11h29.28.628,HW_LDT_1,2024.2.4,Win32,59.52380952,,,,,,,,,,,,,,,,,,,,,547.2082,547.4076,547.4077,547.907,,,,,,,,,,,,,,0.954,1,,,,,,,,,,,,,,m,,,,,,,,,,,,,,,,100,0,547.9075,548.8739,m,1,0.954,,[],[],[],[],[],[],[],548.874,550.8729,550.873,550.8732,[],[],[],[],[],[],[],,550.8733,550.8733,-0.008333282,-0.211666718,0,0,0,,0,99,99,87,1,3,word,CAFETERIA,print,cafeteria_p.png,,,,,,
,,,,32229,001,2025-10-21_11h29.28.628,HW_LDT_1,2024.2.4,Win32,59.52380952,,,,,,,,,,,,,,,,,,,,,550.8748,551.0734,551.0735,551.5725,,,,,,,,,,,,,,0.7424,1,,,,,,,,,,,,,,m,,,,,,,,,,,,,,,,101,0,551.5729,552.3234,m,1,0.7424,,[],[],[],[],[],[],[],552.3235,554.3228,554.3229,554.3231,[],[],[],[],[],[],[],,554.3232,554.3232,-0.008333282,-0.211666718,0,0,0,,0,100,100,118,1,3,word,MEDICINE,print,medicine_p.png,,,,,,
,,,,32229,001,2025-10-21_11h29.28.628,HW_LDT_1,2024.2.4,Win32,59.52380952,,,,,,,,,,,,,,,,,,,,,554.3249,554.5232,554.5233,555.0233,,,,,,,,,,,,,,0.9547,1,,,,,,,,,,,,,,z,,,,,,,,,,,,,,,,102,0,555.0238,555.9887,z,1,0.9547,,[],[],[],[],[],[],[],555.9889,557.9894,557.9895,557.9896,[],[],[],[],[],[],[],,557.9897,557.9897,-0.008333282,-0.211666718,0,0,0,,0,101,101,11,1,3,RL,ebiwent,cursive,ebiwent_c.png,,,,,,
,,,,32229,001,2025-10-21_11h29.28.628,HW_LDT_1,2024.2.4,Win32,59.52380952,,,,,,,,,,,,,,,,,,,,,557.991,558.1893,558.1893,558.6892,,,,,,,,,,,,,,1.1587,1,,,,,,,,,,,,,,z,,,,,,,,,,,,,,,,103,0,558.6897,559.8561,z,1,1.1587,,[],[],[],[],[],[],[],559.8562,561.8558,561.8566,561.8568,[],[],[],[],[],[],[],,561.8569,561.8571,-0.008333282,-0.211666718,0,0,0,,0,102,102,72,1,3,TL,senmitent,print,senmitent_p.png,,,,,,
,,,,32229,001,2025-10-21_11h29.28.628,HW_LDT_1,2024.2.4,Win32,59.52380952,,,,,,,,,,,,,,,,,,,,,561.8581,562.0559,562.0559,562.5554,,,,,,,,,,,,,,0.9077,1,,,,,,,,,,,,,,m,,,,,,,,,,,,,,,,104,0,562.5558,563.4726,m,1,0.9077,,[],[],[],[],[],[],[],563.4729,565.4737,565.4737,565.4739,[],[],[],[],[],[],[],,565.4739,565.4739,-0.008333282,-0.211666718,0,0,0,,0,103,103,112,1,3,word,LIBERAL,print,liberal_p.png,,,,,,
,,,,32229,001,2025-10-21_11h29.28.628,HW_LDT_1,2024.2.4,Win32,59.52380952,,,,,,,,,,,,,,,,,,,,,565.4751,565.6733,565.6733,566.1734,,,,,,,,,,,,,,0.6628,0,,,,,,,,,,,,,,m,,,,,,,,,,,,,,,,105,0,566.174,566.8397,z,0,0.6628,,[],[],[],[],[],[],[],566.8398,568.8401,568.8402,568.8403,[],[],[],[],[],[],[],,568.8404,568.8404,-0.008333282,-0.211666718,0,0,0,,0,104,104,120,1,3,word,MILITARY,cursive,military_c.png,,,,,,
,,,,32229,001,2025-10-21_11h29.28.628,HW_LDT_1,2024.2.4,Win32,59.52380952,,,,,,,,,,,,,,,,,,,,,568.8421,569.0401,569.0402,569.54,,,,,,,,,,,,,,1.044,1,,,,,,,,,,,,,,m,,,,,,,,,,,,,,,,106,0,569.5407,570.5899,m,1,1.044,,[],[],[],[],[],[],[],570.59,572.5889,572.589,572.5891,[],[],[],[],[],[],[],,572.5891,572.5892,-0.008333282,-0.211666718,0,0,0,,0,105,105,86,1,3,word,BESIDE,cursive,beside_c.png,,,,,,
,,,,32229,001,2025-10-21_11h29.28.628,HW_LDT_1,2024.2.4,Win32,59.52380952,,,,,,,,,,,,,,,,,,,,,572.5906,572.7891,572.7892,573.2907,,,,,,,,,,,,,,0.6725,0,,,,,,,,,,,,,,m,,,,,,,,,,,,,,,,107,0,573.2912,573.9723,z,0,0.6725,,[],[],[],[],[],[],[],573.9724,575.9721,575.9722,575.9726,[],[],[],[],[],[],[],,575.9726,575.9727,-0.008333282,-0.211666718,0,0,0,,0,106,106,122,1,3,word,MOBILE,cursive,mobile_c.png,,,,,,
,,,,32229,001,2025-10-21_11h29.28.628,HW_LDT_1,2024.2.4,Win32,59.52380952,,,,,,,,,,,,,,,,,,,,,575.9744,576.1726,576.1726,576.6722,,,,,,,,,,,,,,0.6751,1,,,,,,,,,,,,,,z,,,,,,,,,,,,,,,,108,0,576.6728,577.3549,z,1,0.6751,,[],[],[],[],[],[],[],577.355,579.3567,579.3569,579.3571,[],[],[],[],[],[],[],,579.3572,579.3573,-0.008333282,-0.211666718,0,0,0,,0,107,107,26,1,3,RL,repifion,print,repifion_p.png,,,,,,
,,,,32229,001,2025-10-21_11h29.28.628,HW_LDT_1,2024.2.4,Win32,59.52380952,,,,,,,,,,,,,,,,,,,,,579.3594,579.5551,579.5559,580.0575,,,,,,,,,,,,,,0.5877,1,,,,,,,,,,,,,,z,,,,,,,,,,,,,,,,109,1,580.0581,580.6563,z,1,0.5877,,[],[],[],[],[],[],[],580.6564,582.6565,582.6565,583.4394,[],[],[],[],[],[],[],m,583.4395,583.4396,-0.008333282,-0.211666718,0,0,0,,0,108,108,7,1,3,RL,cobeny,print,cobeny_p.png,0.7781,,,,,
,,,,32229,001,2025-10-21_11h29.28.628,HW_LDT_1,2024.2.4,Win32,59.52380952,,,,,,,,,,,,,,,,,,,,,583.4412,583.6404,583.6404,584.141,,,,,,,,,,,,,,1.2712,1,,,,,,,,,,,,,,z,,,,,,,,,,,,,,,,110,0,584.1415,585.4237,z,1,1.2712,,[],[],[],[],[],[],[],585.4237,587.4223,587.4225,587.4226,[],[],[],[],[],[],[],,587.4226,587.4227,-0.008333282,-0.211666718,0,0,0,,0,109,109,55,1,3,TL,mecidine,print,mecidine_p.png,,,,,,
,,,,32229,001,2025-10-21_11h29.28.628,HW_LDT_1,2024.2.4,Win32,59.52380952,,,,,,,,,,,,,,,,,,,,,587.4239,587.6217,587.6217,588.122,,,,,,,,,,,,,,1.2506,1,,,,,,,,,,,,,,m,,,,,,,,,,,,,,,,111,0,588.1224,589.3738,m,1,1.2506,,[],[],[],[],[],[],[],589.3739,591.3725,591.3725,591.3726,[],[],[],[],[],[],[],,591.3726,591.3728,-0.008333282,-0.211666718,0,0,0,,0,110,110,95,1,3,word,COMEDY,print,comedy_p.png,,,,,,
,,,,32229,001,2025-10-21_11h29.28.628,HW_LDT_1,2024.2.4,Win32,59.52380952,,,,,,,,,,,,,,,,,,,,,591.3748,591.5717,591.5718,592.073,,,,,,,,,,,,,,1.0439,1,,,,,,,,,,,,,,z,,,,,,,,,,,,,,,,112,0,592.0736,593.1227,z,1,1.0439,,[],[],[],[],[],[],[],593.1228,595.1235,595.1236,595.124,[],[],[],[],[],[],[],,595.1241,595.1243,-0.008333282,-0.211666718,0,0,0,,0,111,111,20,1,3,RL,orimipal,cursive,orimipal_c.png,,,,,,
,,,,32229,001,2025-10-21_11h29.28.628,HW_LDT_1,2024.2.4,Win32,59.52380952,,,,,,,,,,,,,,,,,,,,,595.1256,595.3226,595.3227,595.8218,,,,,,,,,,,,,,0.7748,0,,,,,,,,,,,,,,m,,,,,,,,,,,,,,,,113,0,595.8226,596.606,z,0,0.7748,,[],[],[],[],[],[],[],596.606,598.6066,598.6066,598.6068,[],[],[],[],[],[],[],,598.6068,598.6069,-0.008333282,-0.211666718,0,0,0,,0,112,112,90,1,3,word,CAPITAL,cursive,capital_c.png,,,,,,
,,,,32229,001,2025-10-21_11h29.28.628,HW_LDT_1,2024.2.4,Win32,59.52380952,,,,,,,,,,,,,,,,,,,,,598.608,598.8052,598.8053,599.3051,,,,,,,,,,,,,,1.2717,1,,,,,,,,,,,,,,z,,,,,,,,,,,,,,,,114,1,599.306,600.5886,z,1,1.2717,,[],[],[],[],[],[],[],600.5887,602.5886,602.5886,603.6225,[],[],[],[],[],[],[],z,603.6227,603.623,-0.008333282,-0.211666718,0,0,0,,0,113,113,5,1,3,RL,capefory,cursive,capefory_c.png,1.0223,,,,,
,,,,32229,001,2025-10-21_11h29.28.628,HW_LDT_1,2024.2.4,Win32,59.52380952,,,,,,,,,,,,,,,,,,,,,603.6246,603.822,603.822,604.3215,,,,,,,,,,,,,,0.9924,1,,,,,,,,,,,,,,m,,,,,,,,,,,,,,,,115,0,604.322,605.3224,m,1,0.9924,,[],[],[],[],[],[],[],605.3225,607.322,607.3221,607.3222,[],[],[],[],[],[],[],,607.3223,607.3223,-0.008333282,-0.211666718,0,0,0,,0,114,114,148,1,3,word,SALINE,cursive,saline_c.png,,,,,,
,,,,32229,001,2025-10-21_11h29.28.628,HW_LDT_1,2024.2.4,Win32,59.52380952,,,,,,,,,,,,,,,,,,,,,607.3239,607.5215,607.5215,608.0223,,,,,,,,,,,,,,0.6577,1,,,,,,,,,,,,,,z,,,,,,,,,,,,,,,,116,0,608.0229,608.6892,z,1,0.6577,,[],[],[],[],[],[],[],608.6893,610.6878,610.6878,610.6883,[],[],[],[],[],[],[],,610.6884,610.6884,-0.008333282,-0.211666718,0,0,0,,0,115,115,24,1,3,RL,quafidy,print,quafidy_p.png,,,,,,
,,,,32229,001,2025-10-21_11h29.28.628,HW_LDT_1,2024.2.4,Win32,59.52380952,,,,,,,,,,,,,,,,,,,,,610.6902,610.8878,610.8879,611.389,,,,,,,,,,,,,,0.8236,0,,,,,,,,,,,,,,z,,,,,,,,,,,,,,,,117,0,611.3907,612.2218,m,0,0.8236,,[],[],[],[],[],[],[],612.2219,614.2222,614.2222,614.2223,[],[],[],[],[],[],[],,614.2223,614.2224,-0.008333282,-0.211666718,0,0,0,,0,116,116,45,1,3,TL,dentisy,print,dentisy_p.png,,,,,,
,,,,32229,001,2025-10-21_11h29.28.628,HW_LDT_1,2024.2.4,Win32,59.52380952,,,,,,,,,,,,,,,,,,,,,614.224,614.4222,614.4223,614.9229,,,,,,,,,,,,,,1.8127,1,,,,,,,,,,,,,,z,,,,,,,,,,,,,,,,118,0,614.9235,616.738,z,1,1.8127,,[],[],[],[],[],[],[],616.7381,618.739,618.7391,618.7399,[],[],[],[],[],[],[],,618.74,618.7401,-0.008333282,-0.211666718,0,0,0,,0,117,117,52,1,3,TL,locigal,cursive,locigal_c.png,,,,,,
,,,,32229,001,2025-10-21_11h29.28.628,HW_LDT_1,2024.2.4,Win32,59.52380952,,,,,,,,,,,,,,,,,,,,,618.7423,618.9386,618.9387,619.4386,,,,,,,,,,,,,,0.912,0,,,,,,,,,,,,,,m,,,,,,,,,,,,,,,,119,0,619.439,620.3568,z,0,0.912,,[],[],[],[],[],[],[],620.3569,622.3552,622.3553,622.3555,[],[],[],[],[],[],[],,622.3559,622.3565,-0.008333282,-0.211666718,0,0,0,,0,118,118,114,1,3,word,LOCATE,cursive,locate_c.png,,,,,,
,,,,32229,001,2025-10-21_11h29.28.628,HW_LDT_1,2024.2.4,Win32,59.52380952,,,,,,,,,,,,,,,,,,,,,622.3585,622.5545,622.5545,623.0553,,,,,,,,,,,,,,1.1397,1,,,,,,,,,,,,,,m,,,,,,,,,,,,,,,,120,0,623.0564,624.2056,m,1,1.1397,,[],[],[],[],[],[],[],624.2056,626.2064,626.2064,626.2065,[],[],[],[],[],[],[],,626.2066,626.2066,-0.008333282,-0.211666718,0,0,0,,0,119,119,153,1,3,word,STOLEN,cursive,stolen_c.png,,,,,,
,,,,32229,001,2025-10-21_11h29.28.628,HW_LDT_1,2024.2.4,Win32,59.52380952,,,,,,,,,,,,,,,,,,,,,626.2078,626.4049,626.4049,626.9058,,,,,,,,,,,,,,0.7215,1,,,,,,,,,,,,,,z,,,,,,,,,,,,,,,,121,0,626.9065,627.638,z,1,0.7215,,[],[],[],[],[],[],[],627.6381,629.6381,629.6381,629.6386,[],[],[],[],[],[],[],,629.6388,629.6391,-0.008333282,-0.211666718,0,0,0,,0,120,120,56,1,3,TL,meromy,print,meromy_p.png,,,,,,
,,,,32229,001,2025-10-21_11h29.28.628,HW_LDT_1,2024.2.4,Win32,59.52380952,,,,,,,,,,,,,,,,,,,,,629.6408,629.8394,629.8394,630.3384,,,,,,,,,,,,,,0.9953,1,,,,,,,,,,,,,,z,,,,,,,,,,,,,,,,122,0,630.3391,631.3378,z,1,0.9953,,[],[],[],[],[],[],[],631.3378,633.339,633.339,633.3392,[],[],[],[],[],[],[],,633.3392,633.3395,-0.008333282,-0.211666718,0,0,0,,0,121,121,60,1,3,TL,panert,print,panert_p.png,,,,,,
,,,,32229,001,2025-10-21_11h29.28.628,HW_LDT_1,2024.2.4,Win32,59.52380952,,,,,,,,,,,,,,,,,,,,,633.3411,633.5392,633.5392,634.0384,,,,,,,,,,,,,,1.4586,0,,,,,,,,,,,,,,z,,,,,,,,,,,,,,,,123,0,634.0391,635.5054,m,0,1.4586,,[],[],[],[],[],[],[],635.5055,637.5057,637.5057,637.506,[],[],[],[],[],[],[],,637.5061,637.5061,-0.008333282,-0.211666718,0,0,0,,0,122,122,35,1,3,TL,cateferia,print,cateferia_p.png,,,,,,
,,,,32229,001,2025-10-21_11h29.28.628,HW_LDT_1,2024.2.4,Win32,59.52380952,,,,,,,,,,,,,,,,,,,,,637.5072,637.7047,637.7047,638.205,,,,,,,,,,,,,,1.1629,1,,,,,,,,,,,,,,m,,,,,,,,,,,,,,,,124,0,638.2055,639.3724,m,1,1.1629,,[],[],[],[],[],[],[],639.3726,641.3713,641.3713,641.3715,[],[],[],[],[],[],[],,641.3715,641.3715,-0.008333282,-0.211666718,0,0,0,,0,123,123,147,1,3,word,ROMANTIC,cursive,romantic_c.png,,,,,,
,,,,32229,001,2025-10-21_11h29.28.628,HW_LDT_1,2024.2.4,Win32,59.52380952,,,,,,,,,,,,,,,,,,,,,641.3729,641.5716,641.5717,642.0715,,,,,,,,,,,,,,1.9716,1,,,,,,,,,,,,,,m,,,,,,,,,,,,,,,,125,0,642.0721,644.0547,m,1,1.9716,,[],[],[],[],[],[],[],644.0549,646.0546,646.0547,646.0548,[],[],[],[],[],[],[],,646.0549,646.0549,-0.008333282,-0.211666718,0,0,0,,0,124,124,107,1,3,word,EVIDENT,cursive,evident_c.png,,,,,,
,,,,32229,001,2025-10-21_11h29.28.628,HW_LDT_1,2024.2.4,Win32,59.52380952,,,,,,,,,,,,,,,,,,,,,646.0567,646.2549,646.255,646.7559,,,,,,,,,,,,,,0.7562,1,,,,,,,,,,,,,,m,,,,,,,,,,,,,,,,126,0,646.7565,647.5217,m,1,0.7562,,[],[],[],[],[],[],[],647.5218,649.5221,649.5222,649.5223,[],[],[],[],[],[],[],,649.5223,649.5226,-0.008333282,-0.211666718,0,0,0,,0,125,125,119,1,3,word,MEMORY,print,memory_p.png,,,,,,
,,,,32229,001,2025-10-21_11h29.28.628,HW_LDT_1,2024.2.4,Win32,59.52380952,,,,,,,,,,,,,,,,,,,,,649.5241,649.7218,649.722,650.2208,,,,,,,,,,,,,,2.0754,0,,,,,,,,,,,,,,m,,,,,,,,,,,,,,,,127,0,650.2215,652.3043,z,0,2.0754,,[],[],[],[],[],[],[],652.3044,654.3045,654.3046,654.3049,[],[],[],[],[],[],[],,654.3052,654.3053,-0.008333282,-0.211666718,0,0,0,,0,126,126,109,1,3,word,GRATEFUL,cursive,grateful_c.png,,,,,,
,,,,32229,001,2025-10-21_11h29.28.628,HW_LDT_1,2024.2.4,Win32,59.52380952,,,,,,,,,,,,,,,,,,,,,654.3066,654.5076,654.5076,655.005,,,,,,,,,,,,,,0.8623,1,,,,,,,,,,,,,,m,,,,,,,,,,,,,,,,128,1,655.0054,655.8713,m,1,0.8623,,[],[],[],[],[],[],[],655.8714,657.8728,657.8729,658.8386,[],[],[],[],[],[],[],z,658.8387,658.8388,-0.008333282,-0.211666718,0,0,0,,0,127,127,136,1,3,word,RADICAL,cursive,radical_c.png,0.9605,,,,,
,,,,32229,001,2025-10-21_11h29.28.628,HW_LDT_1,2024.2.4,Win32,59.52380952,,,,,,,,,,,,,,,,,,,,,658.8405,659.0384,659.0385,659.5382,,,,,,,,,,,,,,0.7954,1,,,,,,,,,,,,,,m,,,,,,,,,,,,,,,,129,0,659.5386,660.3375,m,1,0.7954,,[],[],[],[],[],[],[],660.3377,662.3377,662.3379,662.338,[],[],[],[],[],[],[],,662.3381,662.3382,-0.008333282,-0.211666718,0,0,0,,0,128,128,156,1,3,word,TRIBUTE,print,tribute_p.png,,,,,,
,,,,32229,001,2025-10-21_11h29.28.628,HW_LDT_1,2024.2.4,Win32,59.52380952,,,,,,,,,,,,,,,,,,,,,662.3397,662.539,662.539,663.0382,,,,,,,,,,,,,,0.7248,1,,,,,,,,,,,,,,m,,,,,,,,,,,,,,,,130,0,663.0387,663.772,m,1,0.7248,,[],[],[],[],[],[],[],663.7721,665.7713,665.7714,665.7715,[],[],[],[],[],[],[],,665.7716,665.7716,-0.008333282,-0.211666718,0,0,0,,0,129,129,80,1,3,word,ACADEMY,print,academy_p.png,,,,,,
,,,,32229,001,2025-10-21_11h29.28.628,HW_LDT_1,2024.2.4,Win32,59.52380952,,,,,,,,,,,,,,,,,,,,,665.7732,665.9719,665.9719,666.4717,,,,,,,,,,,,,,0.727,1,,,,,,,,,,,,,,z,,,,,,,,,,,,,,,,131,0,666.4724,667.2041,z,1,0.727,,[],[],[],[],[],[],[],667.2042,669.2046,669.2047,669.2048,[],[],[],[],[],[],[],,669.2048,669.2049,-0.008333282,-0.211666718,0,0,0,,0,130,130,30,1,3,RL,strapely,print,strapely_p.png,,,,,,
,,,,32229,001,2025-10-21_11h29.28.628,HW_LDT_1,2024.2.4,Win32,59.52380952,,,,,,,,,,,,,,,,,,,,,669.2064,669.4049,669.4049,669.9048,,,,,,,,,,,,,,0.7875,1,,,,,,,,,,,,,,z,,,,,,,,,,,,,,,,132,0,669.9056,670.7052,z,1,0.7875,,[],[],[],[],[],[],[],670.7053,672.7056,672.7057,672.7058,[],[],[],[],[],[],[],,672.7058,672.706,-0.008333282,-0.211666718,0,0,0,,0,131,131,79,1,3,TL,veretan,cursive,veretan_c.png,,,,,,
,,,,32229,001,2025-10-21_11h29.28.628,HW_LDT_1,2024.2.4,Win32,59.52380952,,,,,,,,,,,,,,,,,,,,,672.707,672.9043,672.9044,673.4054,,,,,,,,,,,,,,0.7093,1,,,,,,,,,,,,,,z,,,,,,,,,,,,,,,,133,0,673.4061,674.121,z,1,0.7093,,[],[],[],[],[],[],[],674.1211,676.1206,676.1207,676.121,[],[],[],[],[],[],[],,676.121,676.1212,-0.008333282,-0.211666718,0,0,0,,0,132,132,22,1,3,RL,procogal,print,procogal_p.png,,,,,,
,,,,32229,001,2025-10-21_11h29.28.628,HW_LDT_1,2024.2.4,Win32,59.52380952,,,,,,,,,,,,,,,,,,,,,676.1227,676.3216,676.3216,676.8214,,,,,,,,,,,,,,0.7547,1,,,,,,,,,,,,,,m,,,,,,,,,,,,,,,,134,0,676.8218,677.5888,m,1,0.7547,,[],[],[],[],[],[],[],677.5891,679.5887,679.5887,679.5888,[],[],[],[],[],[],[],,679.5888,679.589,-0.008333282,-0.211666718,0,0,0,,0,133,133,115,1,3,word,LOGICAL,cursive,logical_c.png,,,,,,
,,,,32229,001,2025-10-21_11h29.28.628,HW_LDT_1,2024.2.4,Win32,59.52380952,,,,,,,,,,,,,,,,,,,,,679.5901,679.7884,679.7884,680.2871,,,,,,,,,,,,,,0.8236,1,,,,,,,,,,,,,,z,,,,,,,,,,,,,,,,135,0,680.2875,681.1208,z,1,0.8236,,[],[],[],[],[],[],[],681.1209,683.1217,683.1217,683.1219,[],[],[],[],[],[],[],,683.122,683.122,-0.008333282,-0.211666718,0,0,0,,0,134,134,67,1,3,TL,retome,print,retome_p.png,,,,,,
,,,,32229,001,2025-10-21_11h29.28.628,HW_LDT_1,2024.2.4,Win32,59.52380952,,,,,,,,,,,,,,,,,,,,,683.1235,683.3209,683.3209,683.8213,,,,,,,,,,,,,,1.0387,1,,,,,,,,,,,,,,m,,,,,,,,,,,,,,,,136,0,683.8218,684.8712,m,1,1.0387,,[],[],[],[],[],[],[],684.8713,686.8719,686.872,686.8721,[],[],[],[],[],[],[],,686.8722,686.8722,-0.008333282,-0.211666718,0,0,0,,0,135,135,113,1,3,word,LITERAL,print,literal_p.png,,,,,,
,,,,32229,001,2025-10-21_11h29.28.628,HW_LDT_1,2024.2.4,Win32,59.52380952,,,,,,,,,,,,,,,,,,,,,686.8734,687.0713,687.0714,687.5712,,,,,,,,,,,,,,0.8711,1,,,,,,,,,,,,,,z,,,,,,,,,,,,,,,,137,0,687.5718,688.4549,z,1,0.8711,,[],[],[],[],[],[],[],688.4549,690.4556,690.4556,690.4557,[],[],[],[],[],[],[],,690.4557,690.4558,-0.008333282,-0.211666718,0,0,0,,0,136,136,71,1,3,TL,sanile,cursive,sanile_c.png,,,,,,
,,,,32229,001,2025-10-21_11h29.28.628,HW_LDT_1,2024.2.4,Win32,59.52380952,,,,,,,,,,,,,,,,,,,,,690.4571,690.6562,690.6562,691.1551,,,,,,,,,,,,,,0.6394,1,,,,,,,,,,,,,,z,,,,,,,,,,,,,,,,138,0,691.1557,691.8055,z,1,0.6394,,[],[],[],[],[],[],[],691.8066,693.8053,693.8054,693.8056,[],[],[],[],[],[],[],,693.8056,693.8056,-0.008333282,-0.211666718,0,0,0,,0,137,137,8,1,3,RL,cocewage,print,cocewage_p.png,,,,,,
,,,,32229,001,2025-10-21_11h29.28.628,HW_LDT_1,2024.2.4,Win32,59.52380952,,,,,,,,,,,,,,,,,,,,,693.8071,694.0047,694.0047,694.504,,,,,,,,,,,,,,0.6652,1,,,,,,,,,,,,,,z,,,,,,,,,,,,,,,,139,0,694.5049,695.1713,z,1,0.6652,,[],[],[],[],[],[],[],695.1715,697.1711,697.1712,697.1712,[],[],[],[],[],[],[],,697.1712,697.1714,-0.008333282,-0.211666718,0,0,0,,0,138,138,25,1,3,RL,retupar,print,retupar_p.png,,,,,,
,,,,32229,001,2025-10-21_11h29.28.628,HW_LDT_1,2024.2.4,Win32,59.52380952,,,,,,,,,,,,,,,,,,,,,697.1725,697.371,697.3711,697.8715,,,,,,,,,,,,,,0.7413,1,,,,,,,,,,,,,,z,,,,,,,,,,,,,,,,140,0,697.8724,698.6204,z,1,0.7413,,[],[],[],[],[],[],[],698.6205,700.6212,700.6212,700.6213,[],[],[],[],[],[],[],,700.6214,700.6215,-0.008333282,-0.211666718,0,0,0,,0,139,139,14,1,3,RL,lofase,cursive,lofase_c.png,,,,,,
,,,,32229,001,2025-10-21_11h29.28.628,HW_LDT_1,2024.2.4,Win32,59.52380952,,,,,,,,,,,,,,,,,,,,,700.6228,700.8208,700.8209,701.3203,,,,,,,,,,,,,,0.6817,0,,,,,,,,,,,,,,m,,,,,,,,,,,,,,,,141,0,701.3211,702.0046,z,0,0.6817,,[],[],[],[],[],[],[],702.0048,704.0043,704.0044,704.0045,[],[],[],[],[],[],[],,704.0045,704.0046,-0.008333282,-0.211666718,0,0,0,,0,140,140,140,1,3,word,RELATIVE,cursive,relative_c.png,,,,,,
,,,,32229,001,2025-10-21_11h29.28.628,HW_LDT_1,2024.2.4,Win32,59.52380952,,,,,,,,,,,,,,,,,,,,,704.0058,704.2043,704.2044,704.7041,,,,,,,,,,,,,,0.6402,1,,,,,,,,,,,,,,z,,,,,,,,,,,,,,,,142,0,704.7049,705.3548,z,1,0.6402,,[],[],[],[],[],[],[],705.3549,707.3548,707.3549,707.355,[],[],[],[],[],[],[],,707.3551,707.3552,-0.008333282,-0.211666718,0,0,0,,0,141,141,61,1,3,TL,pocily,print,pocily_p.png,,,,,,
,,,,32229,001,2025-10-21_11h29.28.628,HW_LDT_1,2024.2.4,Win32,59.52380952,,,,,,,,,,,,,,,,,,,,,707.3563,707.5547,707.5548,708.0541,,,,,,,,,,,,,,0.6885,1,,,,,,,,,,,,,,z,,,,,,,,,,,,,,,,143,0,708.0546,708.7545,z,1,0.6885,,[],[],[],[],[],[],[],708.7545,710.7547,710.7548,710.7551,[],[],[],[],[],[],[],,710.7551,710.7553,-0.008333282,-0.211666718,0,0,0,,0,142,142,17,1,3,RL,motide,cursive,motide_c.png,,,,,,
,,,,32229,001,2025-10-21_11h29.28.628,HW_LDT_1,2024.2.4,Win32,59.52380952,,,,,,,,,,,,,,,,,,,,,710.7562,710.9549,710.9549,711.455,,,,,,,,,,,,,,0.7541,1,,,,,,,,,,,,,,m,,,,,,,,,,,,,,,,144,1,711.4555,712.2205,m,1,0.7541,,[],[],[],[],[],[],[],712.2206,714.2229,714.2229,715.2202,[],[],[],[],[],[],[],m,715.2202,715.2212,-0.008333282,-0.211666718,0,0,0,,0,143,143,142,1,3,word,REMOTE,print,remote_p.png,0.9947,,,,,
,,,,32229,001,2025-10-21_11h29.28.628,HW_LDT_1,2024.2.4,Win32,59.52380952,,,,,,,,,,,,,,,,,,,,,715.2223,715.4206,715.4207,715.9215,,,,,,,,,,,,,,0.896,1,,,,,,,,,,,,,,m,,,,,,,,,,,,,,,,145,0,715.9223,716.8203,m,1,0.896,,[],[],[],[],[],[],[],716.8204,718.8216,718.8216,718.8218,[],[],[],[],[],[],[],,718.822,718.8221,-0.008333282,-0.211666718,0,0,0,,0,144,144,105,1,3,word,EDITOR,print,editor_p.png,,,,,,
,,,,32229,001,2025-10-21_11h29.28.628,HW_LDT_1,2024.2.4,Win32,59.52380952,,,,,,,,,,,,,,,,,,,,,718.8234,719.0217,719.0217,719.5207,,,,,,,,,,,,,,0.7273,0,,,,,,,,,,,,,,m,,,,,,,,,,,,,,,,146,0,719.5216,720.2534,z,0,0.7273,,[],[],[],[],[],[],[],720.2534,722.2546,722.2548,722.2551,[],[],[],[],[],[],[],,722.2552,722.2553,-0.008333282,-0.211666718,0,0,0,,0,145,145,123,1,3,word,MODERATE,cursive,moderate_c.png,,,,,,
,,,,32229,001,2025-10-21_11h29.28.628,HW_LDT_1,2024.2.4,Win32,59.52380952,,,,,,,,,,,,,,,,,,,,,722.2577,722.4544,722.4545,722.9546,,,,,,,,,,,,,,0.6574,1,,,,,,,,,,,,,,m,,,,,,,,,,,,,,,,147,1,722.9552,723.6206,m,1,0.6574,,[],[],[],[],[],[],[],723.6207,725.6205,725.6205,726.7042,[],[],[],[],[],[],[],m,726.7046,726.7048,-0.008333282,-0.211666718,0,0,0,,0,146,146,130,1,3,word,POLICY,print,policy_p.png,1.0733,,,,,
,,,,32229,001,2025-10-21_11h29.28.628,HW_LDT_1,2024.2.4,Win32,59.52380952,,,,,,,,,,,,,,,,,,,,,726.7058,726.9046,726.9047,727.4035,,,,,,,,,,,,,,0.7214,1,,,,,,,,,,,,,,m,,,,,,,,,,,,,,,,148,1,727.4041,728.1376,m,1,0.7214,,[],[],[],[],[],[],[],728.1378,730.1374,730.1374,730.8374,[],[],[],[],[],[],[],m,730.8375,730.8377,-0.008333282,-0.211666718,0,0,0,,0,147,147,146,1,3,word,RETIRE,print,retire_p.png,0.6877,,,,,
,,,,32229,001,2025-10-21_11h29.28.628,HW_LDT_1,2024.2.4,Win32,59.52380952,,,,,,,,,,,,,,,,,,,,,730.8391,731.0366,731.0367,731.54,,,,,,,,,,,,,,1.8193,1,,,,,,,,,,,,,,z,,,,,,,,,,,,,,,,149,0,731.5407,733.3702,z,1,1.8193,,[],[],[],[],[],[],[],733.3703,735.3705,735.3705,735.3707,[],[],[],[],[],[],[],,735.3707,735.3708,-0.008333282,-0.211666718,0,0,0,,0,148,148,34,1,3,TL,aminal,cursive,aminal_c.png,,,,,,
,,,,32229,001,2025-10-21_11h29.28.628,HW_LDT_1,2024.2.4,Win32,59.52380952,,,,,,,,,,,,,,,,,,,,,735.3727,735.5704,735.5705,736.0705,,,,,,,,,,,,,,1.1047,1,,,,,,,,,,,,,,m,,,,,,,,,,,,,,,,150,1,736.0721,737.1878,m,1,1.1047,,[],[],[],[],[],[],[],737.1879,739.1871,739.1872,739.9206,[],[],[],[],[],[],[],z,739.9207,739.921,-0.008333282,-0.211666718,0,0,0,,0,149,149,144,1,3,word,RESIDENT,cursive,resident_c.png,0.7231,,,,,
,,,,32229,001,2025-10-21_11h29.28.628,HW_LDT_1,2024.2.4,Win32,59.52380952,,,,,,,,,,,,,,,,,,,,,739.9221,740.1205,740.1206,740.6209,,,,,,,,,,,,,,0.78,1,,,,,,,,,,,,,,z,,,,,,,,,,,,,,,,151,0,740.6218,741.4035,z,1,0.78,,[],[],[],[],[],[],[],741.4036,743.4038,743.404,743.4044,[],[],[],[],[],[],[],,743.4044,743.4048,-0.008333282,-0.211666718,0,0,0,,0,150,150,2,1,3,RL,betemit,print,betemit_p.png,,,,,,
,,,,32229,001,2025-10-21_11h29.28.628,HW_LDT_1,2024.2.4,Win32,59.52380952,,,,,,,,,,,,,,,,,,,,,743.4063,743.6048,743.6048,744.1039,,,,,,,,,,,,,,0.7916,1,,,,,,,,,,,,,,m,,,,,,,,,,,,,,,,152,0,744.1048,744.9039,m,1,0.7916,,[],[],[],[],[],[],[],744.9042,746.9036,746.9037,746.904,[],[],[],[],[],[],[],,746.9044,746.9048,-0.008333282,-0.211666718,0,0,0,,0,151,151,145,1,3,word,RESUME,cursive,resume_c.png,,,,,,
,,,,32229,001,2025-10-21_11h29.28.628,HW_LDT_1,2024.2.4,Win32,59.52380952,,,,,,,,,,,,,,,,,,,,,746.9058,747.1046,747.1046,747.6043,,,,,,,,,,,,,,0.9744,1,,,,,,,,,,,,,,z,,,,,,,,,,,,,,,,153,0,747.6051,748.588,z,1,0.9744,,[],[],[],[],[],[],[],748.5881,750.5874,750.5875,750.5879,[],[],[],[],[],[],[],,750.5881,750.5883,-0.008333282,-0.211666718,0,0,0,,0,152,152,13,1,3,RL,helicage,cursive,helicage_c.png,,,,,,
,,,,32229,001,2025-10-21_11h29.28.628,HW_LDT_1,2024.2.4,Win32,59.52380952,,,,,,,,,,,,,,,,,,,,,750.5896,750.7865,750.7866,751.2874,,,,,,,,,,,,,,0.923,0,,,,,,,,,,,,,,z,,,,,,,,,,,,,,,,154,0,751.2881,752.2207,m,0,0.923,,[],[],[],[],[],[],[],752.2208,754.2206,754.2207,754.221,[],[],[],[],[],[],[],,754.221,754.2211,-0.008333282,-0.211666718,0,0,0,,0,153,153,6,1,3,RL,cenesony,cursive,cenesony_c.png,,,,,,
,,,,32229,001,2025-10-21_11h29.28.628,HW_LDT_1,2024.2.4,Win32,59.52380952,,,,,,,,,,,,,,,,,,,,,754.2225,754.4206,754.4206,754.9208,,,,,,,,,,,,,,1.1212,1,,,,,,,,,,,,,,m,,,,,,,,,,,,,,,,155,0,754.9214,756.0541,m,1,1.1212,,[],[],[],[],[],[],[],756.0541,758.0532,758.0532,758.0535,[],[],[],[],[],[],[],,758.0536,758.0537,-0.008333282,-0.211666718,0,0,0,,0,154,154,85,1,3,word,BENEFIT,print,benefit_p.png,,,,,,
,,,,32229,001,2025-10-21_11h29.28.628,HW_LDT_1,2024.2.4,Win32,59.52380952,,,,,,,,,,,,,,,,,,,,,758.0557,758.2545,758.2545,758.7547,,,,,,,,,,,,,,0.8715,1,,,,,,,,,,,,,,m,,,,,,,,,,,,,,,,156,0,758.7553,759.637,m,1,0.8715,,[],[],[],[],[],[],[],759.6371,761.638,761.6381,761.6382,[],[],[],[],[],[],[],,761.6383,761.6387,-0.008333282,-0.211666718,0,0,0,,0,155,155,104,1,3,word,DOMINANT,print,dominant_p.png,,,,,,
,,,,32229,001,2025-10-21_11h29.28.628,HW_LDT_1,2024.2.4,Win32,59.52380952,,,,,,,,,,,,,,,,,,,,,761.6403,761.8366,761.8367,762.338,,,,,,,,,,,,,,0.8435,1,,,,,,,,,,,,,,z,,,,,,,,,,,,,,,,157,0,762.3384,763.1875,z,1,0.8435,,[],[],[],[],[],[],[],763.1876,765.1872,765.1872,765.1874,[],[],[],[],[],[],[],,765.1874,765.1875,-0.008333282,-0.211666718,0,0,0,,0,156,156,0,1,3,RL,afaneur,print,afaneur_p.png,,,,,,
,,,,32229,001,2025-10-21_11h29.28.628,HW_LDT_1,2024.2.4,Win32,59.52380952,,,,,,,,,,,,,,,,,,,,,765.1891,765.3879,765.3879,765.8875,,,,,,,,,,,,,,1.5047,1,,,,,,,,,,,,,,z,,,,,,,,,,,,,,,,158,0,765.888,767.4033,z,1,1.5047,,[],[],[],[],[],[],[],767.4035,769.4033,769.4033,769.4035,[],[],[],[],[],[],[],,769.4036,769.4037,-0.008333282,-0.211666718,0,0,0,,0,157,157,47,1,3,TL,elarobate,print,elarobate_p.png,,,,,,
,,,,32229,001,2025-10-21_11h29.28.628,HW_LDT_1,2024.2.4,Win32,59.52380952,,,,,,,,,,,,,,,,,,,,,769.4051,769.6039,769.6039,770.1038,,,,,,,,,,,,,,1.4057,1,,,,,,,,,,,,,,z,,,,,,,,,,,,,,,,159,0,770.1043,771.5206,z,1,1.4057,,[],[],[],[],[],[],[],771.5207,773.5213,773.5213,773.5218,[],[],[],[],[],[],[],,773.5219,773.522,-0.008333282,-0.211666718,0,0,0,,0,158,158,43,1,3,TL,dedace,cursive,dedace_c.png,,,,,,
,,,,32229,001,2025-10-21_11h29.28.628,HW_LDT_1,2024.2.4,Win32,59.52380952,,,,,,,,,,,,,,,,,,,,,773.5236,773.7204,773.7205,774.2203,,,,,,,,,,,,,,1.3878,0,,,,,,,,,,,,,,m,,,,,,,,,,,,,,,,160,0,774.2211,775.6196,z,0,1.3878,,[],[],[],[],[],[],[],775.6197,777.6215,777.6216,777.6218,[],[],[],[],[],[],[],,777.6219,777.6222,-0.008333282,-0.211666718,0,0,0,,0,159,159,127,1,3,word,ORIGINAL,cursive,original_c.png,,,,,,
,,,,32229,001,2025-10-21_11h29.28.628,HW_LDT_1,2024.2.4,Win32,59.52380952,,,,,,,,,,,,,,,,,,,,,,,,,,,,,,,,,,,,,,,,,,,,,,,,,,,,,,,,,,,,,,,,,,,,,,,,,,,,,,,,,,,,,,,,,,,,,,,,,,,,,,,,,,,,,,,,,,,,,,777.631,782.62
