counterbalance_lists.group,counterbalance_lists.remaining,get_list.started,get_list.stopped,participant,session,date,expName,psychopyVersion,OS,frameRate,Instructions.started,Instructions.stopped,key_resp.keys,key_resp.rt,key_resp.duration,instr_done_touch.x,instr_done_touch.y,instr_done_touch.leftButton,instr_done_touch.midButton,instr_done_touch.rightButton,start_instr.thisRepN,start_instr.thisTrialN,start_instr.thisN,start_instr.thisIndex,start_instr.ran,pageN,phase,instruct_text,has_image,instruct_image,showProgress.started,showProgress.stopped,fix.started,fix.stopped,prac.started,prac.stopped,response.keys,response.corr,response.rt,response.duration,touch_resp.x,touch_resp.y,touch_resp.leftButton,touch_resp.midButton,touch_resp.rightButton,touch_resp.time,touch_resp.clicked_name,rt,corr,feedback.started,feedback.stopped,trials.thisRepN,trials.thisTrialN,trials.thisN,trials.thisIndex,trials.ran,TrialID,StimulusType,Condition,PrimeDuration,Prime,Target,corrAns,Instructions_expt.started,Instructions_expt.stopped,key_resp_3.keys,key_resp_3.rt,key_resp_3.duration,instr_done_touch_3.x,instr_done_touch_3.y,instr_done_touch_3.leftButton,instr_done_touch_3.midButton,instr_done_touch_3.rightButton,instr_experiment.thisRepN,instr_experiment.thisTrialN,instr_experiment.thisN,instr_experiment.thisIndex,instr_experiment.ran,trialID,flag,maintask.started,maintask.stopped,key_resp_2.keys,key_resp_2.corr,key_resp_2.rt,key_resp_2.duration,targ_click.x,targ_click.y,targ_click.leftButton,targ_click.midButton,targ_click.rightButton,targ_click.time,targ_click.clicked_name,ITI.started,ITI.stopped,probe.started,probe.stopped,click_probe.x,click_probe.y,click_probe.leftButton,click_probe.midButton,click_probe.rightButton,click_probe.time,click_probe.clicked_name,key_resp_probe.keys,Break.started,Break.stopped,break_done_touch.x,break_done_touch.y,break_done_touch.leftButton,break_done_touch.midButton,break_done_touch.rightButton,break_done_keyboard.keys,list1_trials.thisRepN,list1_trials.thisTrialN,list1_trials.thisN,list1_trials.thisIndex,list1_trials.ran,list_id,item_type,string,font,stim_file,key_resp_probe.rt,key_resp_probe.duration,break_done_keyboard.rt,break_done_keyboard.duration,End.started,End.stopped
list1,,0.435,0.4351,32224,001,2025-10-19_15h39.38.265,HW_LDT_1,2024.2.4,MacIntel,120.4819277,,,,,,,,,,,,,,,,,,,,,,,,,,,,,,,,,,,,,,,,,,,,,,,,,,,,,,,,,,,,,,,,,,,,,,,,,,,,,,,,,,,,,,,,,,,,,,,,,,,,,,,,,,,,,,,,,,,,,,,
,,,,32224,001,2025-10-19_15h39.38.265,HW_LDT_1,2024.2.4,MacIntel,120.4819277,0.4508,7.4909,space,7.0186,,-0.084093915,-0.342712467,0,0,0,0,0,0,0,1,1,instructions,"INSTRUCTIONS
At the start of each trial, look at the plus sign  (+) in the center of the screen.  This tells you that a trial is about to begin and where to look. Second, the plus sign will disappear and a string of letters will appear. Your task is to determine if the string of letters is a word or not. If the item is a word press the M key (on keyboard)  or touch the word button (phone/tablet).  If the item is not a word,  press the  Z key (on keyboard)  or touch the nonword button (on phone/tablet). The items will be presented for a short time. 
Press the space bar or touch  continue.",0,,,,,,,,,,,,,,,,,,,,,,,,,,,,,,,,,,,,,,,,,,,,,,,,,,,,,,,,,,,,,,,,,,,,,,,,,,,,,,,,,,,,,,,,,,,,,,,,,,,,
,,,,32224,001,2025-10-19_15h39.38.265,HW_LDT_1,2024.2.4,MacIntel,120.4819277,7.4941,16.8406,space,9.3353,,-0.084093915,-0.342712467,0,0,0,0,1,1,1,1,2,instructions,"If your device has a keyboard, press the 'Z' key for nonwords and the 'M' key for words.





Press the space bar or touch the button below to continue.",0,keyboard-example.gif,,,,,,,,,,,,,,,,,,,,,,,,,,,,,,,,,,,,,,,,,,,,,,,,,,,,,,,,,,,,,,,,,,,,,,,,,,,,,,,,,,,,,,,,,,,,,,,,,,,
,,,,32224,001,2025-10-19_15h39.38.265,HW_LDT_1,2024.2.4,MacIntel,120.4819277,16.8417,21.6133,space,4.758,,-0.084093915,-0.342712467,0,0,0,0,2,2,2,1,3,instructions,"If you are using a touchscreen only device, use the buttons on the screen. Do not use the mouse.





Press the space bar or touch the button below to continue.",0,touchscreen-example.gif,,,,,,,,,,,,,,,,,,,,,,,,,,,,,,,,,,,,,,,,,,,,,,,,,,,,,,,,,,,,,,,,,,,,,,,,,,,,,,,,,,,,,,,,,,,,,,,,,,,
,,,,32224,001,2025-10-19_15h39.38.265,HW_LDT_1,2024.2.4,MacIntel,120.4819277,21.6148,31.5891,space,9.9602,,-0.084093915,-0.342712467,0,0,0,0,3,3,3,1,4,instructions,"It is very important that you respond as quickly and accurately as possible, as each letter string will only be on the screen for two seconds. If you do not respond within this time, the message 'Too slow!' will be displayed and the experiment will progress to the next letter string. The first 20 trials will be practice trials and you will receive feedback on your answers. 

Press the space bar or touch the button below to start the practice trials.",0,,,,,,,,,,,,,,,,,,,,,,,,,,,,,,,,,,,,,,,,,,,,,,,,,,,,,,,,,,,,,,,,,,,,,,,,,,,,,,,,,,,,,,,,,,,,,,,,,,,,
,,,,32224,001,2025-10-19_15h39.38.265,HW_LDT_1,2024.2.4,MacIntel,120.4819277,,,,,,,,,,,,,,,,,,,,,31.6057,31.788,31.7883,32.2898,32.2902,33.5384,m,1,1.2341,,[],[],[],[],[],[],[],1.2341,1,33.5386,34.039,0,0,0,5,1,1006,WORD,UN,33,frenzy,OBTAIN,m,,,,,,,,,,,,,,,,,,,,,,,,,,,,,,,,,,,,,,,,,,,,,,,,,,,,,,,,,,,,,,,,,,
,,,,32224,001,2025-10-19_15h39.38.265,HW_LDT_1,2024.2.4,MacIntel,120.4819277,,,,,,,,,,,,,,,,,,,,,34.04,34.2379,34.2379,34.7387,34.7404,35.488,m,1,0.738,,[],[],[],[],[],[],[],0.738,1,35.4881,35.9878,0,1,1,3,1,1004,WORD,"ID",16,matrix,MATRIX,m,,,,,,,,,,,,,,,,,,,,,,,,,,,,,,,,,,,,,,,,,,,,,,,,,,,,,,,,,,,,,,,,,,
,,,,32224,001,2025-10-19_15h39.38.265,HW_LDT_1,2024.2.4,MacIntel,120.4819277,,,,,,,,,,,,,,,,,,,,,35.9885,36.1821,36.1822,36.6905,36.6921,37.5803,z,1,0.877,,[],[],[],[],[],[],[],0.877,1,37.5804,38.0804,0,2,2,8,1,1009,NW,"ID",33,aslert,ASLERT,z,,,,,,,,,,,,,,,,,,,,,,,,,,,,,,,,,,,,,,,,,,,,,,,,,,,,,,,,,,,,,,,,,,
,,,,32224,001,2025-10-19_15h39.38.265,HW_LDT_1,2024.2.4,MacIntel,120.4819277,,,,,,,,,,,,,,,,,,,,,38.0816,38.2804,38.2805,38.781,38.7825,39.4484,z,1,0.6521,,[],[],[],[],[],[],[],0.6521,1,39.4486,39.9472,0,3,3,13,1,1014,NW,UN,33,winfer,ROUPET,z,,,,,,,,,,,,,,,,,,,,,,,,,,,,,,,,,,,,,,,,,,,,,,,,,,,,,,,,,,,,,,,,,,
,,,,32224,001,2025-10-19_15h39.38.265,HW_LDT_1,2024.2.4,MacIntel,120.4819277,,,,,,,,,,,,,,,,,,,,,39.9492,40.1473,40.1475,40.647,40.6485,41.2215,m,1,0.5629,,[],[],[],[],[],[],[],0.5629,1,41.2216,41.7221,0,4,4,1,1,1002,WORD,"ID",33,adjust,ADJUST,m,,,,,,,,,,,,,,,,,,,,,,,,,,,,,,,,,,,,,,,,,,,,,,,,,,,,,,,,,,,,,,,,,,
,,,,32224,001,2025-10-19_15h39.38.265,HW_LDT_1,2024.2.4,MacIntel,120.4819277,,,,,,,,,,,,,,,,,,,,,41.7233,41.9227,41.9229,42.4224,42.4241,43.0972,z,1,0.6593,,[],[],[],[],[],[],[],0.6593,1,43.0973,43.5974,0,5,5,15,1,1016,NW,UN,16,mushed,WHAISE,z,,,,,,,,,,,,,,,,,,,,,,,,,,,,,,,,,,,,,,,,,,,,,,,,,,,,,,,,,,,,,,,,,,
,,,,32224,001,2025-10-19_15h39.38.265,HW_LDT_1,2024.2.4,MacIntel,120.4819277,,,,,,,,,,,,,,,,,,,,,43.6003,43.7966,43.7968,44.2967,44.2979,44.8131,m,1,0.5069,,[],[],[],[],[],[],[],0.5069,1,44.8132,45.3136,0,6,6,4,1,1005,WORD,UN,33,abound,SQUEAK,m,,,,,,,,,,,,,,,,,,,,,,,,,,,,,,,,,,,,,,,,,,,,,,,,,,,,,,,,,,,,,,,,,,
,,,,32224,001,2025-10-19_15h39.38.265,HW_LDT_1,2024.2.4,MacIntel,120.4819277,,,,,,,,,,,,,,,,,,,,,45.3147,45.5137,45.5138,46.0138,46.0142,46.5393,m,1,0.5141,,[],[],[],[],[],[],[],0.5141,1,46.5395,47.0392,0,7,7,2,1,1003,WORD,"ID",16,almond,ALMOND,m,,,,,,,,,,,,,,,,,,,,,,,,,,,,,,,,,,,,,,,,,,,,,,,,,,,,,,,,,,,,,,,,,,
,,,,32224,001,2025-10-19_15h39.38.265,HW_LDT_1,2024.2.4,MacIntel,120.4819277,,,,,,,,,,,,,,,,,,,,,47.0411,47.2388,47.2388,47.7386,47.74,48.4303,z,1,0.6802,,[],[],[],[],[],[],[],0.6802,1,48.4305,48.932,0,8,8,10,1,1011,NW,"ID",16,inlade,INLADE,z,,,,,,,,,,,,,,,,,,,,,,,,,,,,,,,,,,,,,,,,,,,,,,,,,,,,,,,,,,,,,,,,,,
,,,,32224,001,2025-10-19_15h39.38.265,HW_LDT_1,2024.2.4,MacIntel,120.4819277,,,,,,,,,,,,,,,,,,,,,48.9338,49.1299,49.13,49.6308,49.6322,50.4054,m,1,0.7606,,[],[],[],[],[],[],[],0.7606,1,50.4056,50.9059,0,9,9,7,1,1008,WORD,UN,16,hurdle,VOLUME,m,,,,,,,,,,,,,,,,,,,,,,,,,,,,,,,,,,,,,,,,,,,,,,,,,,,,,,,,,,,,,,,,,,
,,,,32224,001,2025-10-19_15h39.38.265,HW_LDT_1,2024.2.4,MacIntel,120.4819277,,,,,,,,,,,,,,,,,,,,,50.9083,51.1056,51.1057,51.6054,51.6068,52.3804,z,1,0.7634,,[],[],[],[],[],[],[],0.7634,1,52.3805,52.882,0,10,10,11,1,1012,NW,"ID",16,rashet,RASHET,z,,,,,,,,,,,,,,,,,,,,,,,,,,,,,,,,,,,,,,,,,,,,,,,,,,,,,,,,,,,,,,,,,,
,,,,32224,001,2025-10-19_15h39.38.265,HW_LDT_1,2024.2.4,MacIntel,120.4819277,,,,,,,,,,,,,,,,,,,,,52.8834,53.0813,53.0813,53.5795,53.5801,54.322,m,0,0.7327,,[],[],[],[],[],[],[],0.7327,0,54.3229,54.822,0,11,11,14,1,1015,NW,UN,16,miaber,THRALE,z,,,,,,,,,,,,,,,,,,,,,,,,,,,,,,,,,,,,,,,,,,,,,,,,,,,,,,,,,,,,,,,,,,
,,,,32224,001,2025-10-19_15h39.38.265,HW_LDT_1,2024.2.4,MacIntel,120.4819277,,,,,,,,,,,,,,,,,,,,,54.8228,55.0225,55.0226,55.5231,55.5242,56.1545,m,1,0.6187,,[],[],[],[],[],[],[],0.6187,1,56.155,56.6544,0,12,12,6,1,1007,WORD,UN,16,tropic,ZOMBIE,m,,,,,,,,,,,,,,,,,,,,,,,,,,,,,,,,,,,,,,,,,,,,,,,,,,,,,,,,,,,,,,,,,,
,,,,32224,001,2025-10-19_15h39.38.265,HW_LDT_1,2024.2.4,MacIntel,120.4819277,,,,,,,,,,,,,,,,,,,,,56.6556,56.8558,56.8559,57.3545,57.3551,57.9713,m,1,0.607,,[],[],[],[],[],[],[],0.607,1,57.9715,58.4727,0,13,13,0,1,1001,WORD,"ID",33,utopia,UTOPIA,m,,,,,,,,,,,,,,,,,,,,,,,,,,,,,,,,,,,,,,,,,,,,,,,,,,,,,,,,,,,,,,,,,,
,,,,32224,001,2025-10-19_15h39.38.265,HW_LDT_1,2024.2.4,MacIntel,120.4819277,,,,,,,,,,,,,,,,,,,,,58.4745,58.6713,58.6714,59.1719,59.1725,59.8472,z,1,0.6671,,[],[],[],[],[],[],[],0.6671,1,59.8473,60.3461,0,14,14,9,1,1010,NW,"ID",33,fariny,FARINY,z,,,,,,,,,,,,,,,,,,,,,,,,,,,,,,,,,,,,,,,,,,,,,,,,,,,,,,,,,,,,,,,,,,
,,,,32224,001,2025-10-19_15h39.38.265,HW_LDT_1,2024.2.4,MacIntel,120.4819277,,,,,,,,,,,,,,,,,,,,,60.3469,60.5475,60.5477,61.0465,61.047,61.6306,z,1,0.5734,,[],[],[],[],[],[],[],0.5734,1,61.6307,62.1303,0,15,15,12,1,1013,NW,UN,33,adveil,SPRINY,z,,,,,,,,,,,,,,,,,,,,,,,,,,,,,,,,,,,,,,,,,,,,,,,,,,,,,,,,,,,,,,,,,,
,,,,32224,001,2025-10-19_15h39.38.265,HW_LDT_1,2024.2.4,MacIntel,120.4819277,,,,,,,,,,,,,,,,1,end_of_practice,"You have completed the practice trials. During the experimental trials, you will not receive feedback. On some trials you will be asked to report whether the item you just saw was in cursive or print. 
Before you begin, please ensure that you are in a comfortable and quiet location and will not be disturbed for about 15 minutes, as we cannot use your data if you do not complete all the trials. 
 When you are ready to start the experimental trials, please press space or touch the button below.",,,,,,,,,,,,,,,,,,,,,,,,,,,,,,,,,,,,62.1354,75.0638,space,12.9141,,-0.084093915,-0.342712467,0,0,0,0,0,0,0,1,,,,,,,,,,,,,,,,,,,,,,,,,,,,,,,,,,,,,,,,,,,,,,,,,,,
,,,,32224,001,2025-10-19_15h39.38.265,HW_LDT_1,2024.2.4,MacIntel,120.4819277,,,,,,,,,,,,,,,,,,,,,75.0677,75.2642,75.2642,75.7637,,,,,,,,,,,,,,0.5755,1,,,,,,,,,,,,,,m,,,,,,,,,,,,,,,,1,0,75.7659,76.3476,m,1,0.5755,,[],[],[],[],[],[],[],76.3478,78.3472,78.3473,78.3492,[],[],[],[],[],[],[],,78.3492,78.3501,-0.084093915,-0.342712467,0,0,0,,0,0,0,107,1,1,word,EVIDENT,print,evident_p.png,,,,,,
,,,,32224,001,2025-10-19_15h39.38.265,HW_LDT_1,2024.2.4,MacIntel,120.4819277,,,,,,,,,,,,,,,,,,,,,78.3507,78.5468,78.5469,79.0469,,,,,,,,,,,,,,0.5176,1,,,,,,,,,,,,,,m,,,,,,,,,,,,,,,,2,0,79.0478,79.5722,m,1,0.5176,,[],[],[],[],[],[],[],79.5724,81.5716,81.5717,81.572,[],[],[],[],[],[],[],,81.5721,81.5722,-0.084093915,-0.342712467,0,0,0,,0,1,1,158,1,1,word,VELOCITY,print,velocity_p.png,,,,,,
,,,,32224,001,2025-10-19_15h39.38.265,HW_LDT_1,2024.2.4,MacIntel,120.4819277,,,,,,,,,,,,,,,,,,,,,81.5739,81.771,81.771,82.2724,,,,,,,,,,,,,,1.2191,0,,,,,,,,,,,,,,z,,,,,,,,,,,,,,,,3,0,82.2731,83.4975,m,0,1.2191,,[],[],[],[],[],[],[],83.4976,85.4974,85.4975,85.4978,[],[],[],[],[],[],[],,85.498,85.4981,-0.084093915,-0.342712467,0,0,0,,0,2,2,65,1,1,TL,orinigal,cursive,orinigal_c.png,,,,,,
,,,,32224,001,2025-10-19_15h39.38.265,HW_LDT_1,2024.2.4,MacIntel,120.4819277,,,,,,,,,,,,,,,,,,,,,85.4998,85.6985,85.6985,86.1967,,,,,,,,,,,,,,1.0369,1,,,,,,,,,,,,,,z,,,,,,,,,,,,,,,,4,0,86.1969,87.2393,z,1,1.0369,,[],[],[],[],[],[],[],87.2394,89.2386,89.2387,89.2389,[],[],[],[],[],[],[],,89.239,89.2391,-0.084093915,-0.342712467,0,0,0,,0,3,3,53,1,1,TL,dentisy,cursive,dentisy_c.png,,,,,,
,,,,32224,001,2025-10-19_15h39.38.265,HW_LDT_1,2024.2.4,MacIntel,120.4819277,,,,,,,,,,,,,,,,,,,,,89.24,89.4385,89.4386,89.9384,,,,,,,,,,,,,,0.6204,1,,,,,,,,,,,,,,z,,,,,,,,,,,,,,,,5,0,89.9388,90.5636,z,1,0.6204,,[],[],[],[],[],[],[],90.5636,92.5637,92.5638,92.5641,[],[],[],[],[],[],[],,92.5641,92.5642,-0.084093915,-0.342712467,0,0,0,,0,4,4,27,1,1,RL,rasibal,print,rasibal_p.png,,,,,,
,,,,32224,001,2025-10-19_15h39.38.265,HW_LDT_1,2024.2.4,MacIntel,120.4819277,,,,,,,,,,,,,,,,,,,,,92.5652,92.7636,92.7636,93.2643,,,,,,,,,,,,,,0.6227,1,,,,,,,,,,,,,,m,,,,,,,,,,,,,,,,6,0,93.2651,93.8888,m,1,0.6227,,[],[],[],[],[],[],[],93.8889,95.8881,95.8882,95.8885,[],[],[],[],[],[],[],,95.8885,95.8886,-0.084093915,-0.342712467,0,0,0,,0,5,5,157,1,1,word,VALIDITY,cursive,validity_c.png,,,,,,
,,,,32224,001,2025-10-19_15h39.38.265,HW_LDT_1,2024.2.4,MacIntel,120.4819277,,,,,,,,,,,,,,,,,,,,,95.8896,96.0889,96.089,96.5875,,,,,,,,,,,,,,0.8789,1,,,,,,,,,,,,,,z,,,,,,,,,,,,,,,,7,0,96.5878,97.4719,z,1,0.8789,,[],[],[],[],[],[],[],97.472,99.4722,99.4722,99.4725,[],[],[],[],[],[],[],,99.4725,99.4726,-0.084093915,-0.342712467,0,0,0,,0,6,6,2,1,1,RL,asiral,print,asiral_p.png,,,,,,
,,,,32224,001,2025-10-19_15h39.38.265,HW_LDT_1,2024.2.4,MacIntel,120.4819277,,,,,,,,,,,,,,,,,,,,,99.4741,99.6729,99.6731,100.1724,,,,,,,,,,,,,,0.5665,1,,,,,,,,,,,,,,m,,,,,,,,,,,,,,,,8,1,100.1739,100.7471,m,1,0.5665,,[],[],[],[],[],[],[],100.7472,102.7473,102.7473,105.1133,[],[],[],[],[],[],[],m,105.1134,105.1135,-0.084093915,-0.342712467,0,0,0,,0,7,7,120,1,1,word,MILITARY,print,military_p.png,2.3655,,,,,
,,,,32224,001,2025-10-19_15h39.38.265,HW_LDT_1,2024.2.4,MacIntel,120.4819277,,,,,,,,,,,,,,,,,,,,,105.1145,105.3134,105.3134,105.8133,,,,,,,,,,,,,,0.7139,1,,,,,,,,,,,,,,m,,,,,,,,,,,,,,,,9,0,105.814,106.5303,m,1,0.7139,,[],[],[],[],[],[],[],106.5304,108.5302,108.5302,108.5304,[],[],[],[],[],[],[],,108.5304,108.5305,-0.084093915,-0.342712467,0,0,0,,0,8,8,133,1,1,word,PROVIDE,print,provide_p.png,,,,,,
,,,,32224,001,2025-10-19_15h39.38.265,HW_LDT_1,2024.2.4,MacIntel,120.4819277,,,,,,,,,,,,,,,,,,,,,108.5315,108.7303,108.7304,109.2292,,,,,,,,,,,,,,0.9306,1,,,,,,,,,,,,,,m,,,,,,,,,,,,,,,,10,0,109.2297,110.1641,m,1,0.9306,,[],[],[],[],[],[],[],110.1643,112.1635,112.1636,112.1638,[],[],[],[],[],[],[],,112.164,112.1643,-0.084093915,-0.342712467,0,0,0,,0,9,9,127,1,1,word,ORIGINAL,cursive,original_c.png,,,,,,
,,,,32224,001,2025-10-19_15h39.38.265,HW_LDT_1,2024.2.4,MacIntel,120.4819277,,,,,,,,,,,,,,,,,,,,,112.166,112.3632,112.3633,112.8639,,,,,,,,,,,,,,0.6821,1,,,,,,,,,,,,,,m,,,,,,,,,,,,,,,,11,0,112.8648,113.5479,m,1,0.6821,,[],[],[],[],[],[],[],113.5479,115.5473,115.5474,115.5476,[],[],[],[],[],[],[],,115.5477,115.5478,-0.084093915,-0.342712467,0,0,0,,0,10,10,80,1,1,word,ACADEMY,cursive,academy_c.png,,,,,,
,,,,32224,001,2025-10-19_15h39.38.265,HW_LDT_1,2024.2.4,MacIntel,120.4819277,,,,,,,,,,,,,,,,,,,,,115.5498,115.7474,115.7475,116.2466,,,,,,,,,,,,,,2.0026,1,,,,,,,,,,,,,,z,,,,,,,,,,,,,,,,12,0,116.2471,118.2557,z,1,2.0026,,[],[],[],[],[],[],[],118.2558,120.2551,120.2551,120.2551,[],[],[],[],[],[],[],,120.2552,120.2553,-0.084093915,-0.342712467,0,0,0,,0,11,11,9,1,1,RL,docirant,cursive,docirant_c.png,,,,,,
,,,,32224,001,2025-10-19_15h39.38.265,HW_LDT_1,2024.2.4,MacIntel,120.4819277,,,,,,,,,,,,,,,,,,,,,120.2561,120.4554,120.4556,120.955,,,,,,,,,,,,,,2.2543,1,,,,,,,,,,,,,,z,,,,,,,,,,,,,,,,13,0,120.9555,123.2135,z,1,2.2543,,[],[],[],[],[],[],[],123.2135,125.2129,125.213,125.2132,[],[],[],[],[],[],[],,125.2133,125.2134,-0.084093915,-0.342712467,0,0,0,,0,12,12,75,1,1,TL,speficic,cursive,speficic_c.png,,,,,,
,,,,32224,001,2025-10-19_15h39.38.265,HW_LDT_1,2024.2.4,MacIntel,120.4819277,,,,,,,,,,,,,,,,,,,,,125.2151,125.4141,125.4142,125.9138,,,,,,,,,,,,,,1.2297,1,,,,,,,,,,,,,,m,,,,,,,,,,,,,,,,14,0,125.9146,127.1468,m,1,1.2297,,[],[],[],[],[],[],[],127.1469,129.1466,129.1467,129.1468,[],[],[],[],[],[],[],,129.1468,129.1468,-0.084093915,-0.342712467,0,0,0,,0,13,13,135,1,1,word,QUALITY,cursive,quality_c.png,,,,,,
,,,,32224,001,2025-10-19_15h39.38.265,HW_LDT_1,2024.2.4,MacIntel,120.4819277,,,,,,,,,,,,,,,,,,,,,129.1477,129.3469,129.3469,129.8482,,,,,,,,,,,,,,0.5194,1,,,,,,,,,,,,,,m,,,,,,,,,,,,,,,,15,0,129.8488,130.3717,m,1,0.5194,,[],[],[],[],[],[],[],130.3718,132.3718,132.3718,132.3719,[],[],[],[],[],[],[],,132.372,132.372,-0.084093915,-0.342712467,0,0,0,,0,14,14,90,1,1,word,CAPITAL,print,capital_p.png,,,,,,
,,,,32224,001,2025-10-19_15h39.38.265,HW_LDT_1,2024.2.4,MacIntel,120.4819277,,,,,,,,,,,,,,,,,,,,,132.3729,132.5717,132.5717,133.0723,,,,,,,,,,,,,,0.88,0,,,,,,,,,,,,,,z,,,,,,,,,,,,,,,,16,1,133.073,133.9549,m,0,0.88,,[],[],[],[],[],[],[],133.955,135.9551,135.9552,137.2631,[],[],[],[],[],[],[],z,137.2631,137.2633,-0.084093915,-0.342712467,0,0,0,,0,15,15,78,1,1,TL,vecolity,print,vecolity_p.png,1.3043,,,,,
,,,,32224,001,2025-10-19_15h39.38.265,HW_LDT_1,2024.2.4,MacIntel,120.4819277,,,,,,,,,,,,,,,,,,,,,137.264,137.4632,137.4632,137.9637,,,,,,,,,,,,,,0.9653,1,,,,,,,,,,,,,,z,,,,,,,,,,,,,,,,17,0,137.9642,138.9302,z,1,0.9653,,[],[],[],[],[],[],[],138.9303,140.9299,140.9299,140.93,[],[],[],[],[],[],[],,140.9301,140.9301,-0.084093915,-0.342712467,0,0,0,,0,16,16,38,1,1,RL,stopave,cursive,stopave_c.png,,,,,,
,,,,32224,001,2025-10-19_15h39.38.265,HW_LDT_1,2024.2.4,MacIntel,120.4819277,,,,,,,,,,,,,,,,,,,,,140.9309,141.1292,141.1293,141.6298,,,,,,,,,,,,,,0.7179,1,,,,,,,,,,,,,,m,,,,,,,,,,,,,,,,18,0,141.6302,142.3555,m,1,0.7179,,[],[],[],[],[],[],[],142.3555,144.3554,144.3556,144.3557,[],[],[],[],[],[],[],,144.3558,144.356,-0.084093915,-0.342712467,0,0,0,,0,17,17,96,1,1,word,CONSIDER,cursive,consider_c.png,,,,,,
,,,,32224,001,2025-10-19_15h39.38.265,HW_LDT_1,2024.2.4,MacIntel,120.4819277,,,,,,,,,,,,,,,,,,,,,144.3578,144.5556,144.5557,145.0549,,,,,,,,,,,,,,0.735,1,,,,,,,,,,,,,,z,,,,,,,,,,,,,,,,19,0,145.0553,145.7967,z,1,0.735,,[],[],[],[],[],[],[],145.7967,147.7972,147.7973,147.7976,[],[],[],[],[],[],[],,147.7977,147.7979,-0.084093915,-0.342712467,0,0,0,,0,18,18,22,1,1,RL,patisic,print,patisic_p.png,,,,,,
,,,,32224,001,2025-10-19_15h39.38.265,HW_LDT_1,2024.2.4,MacIntel,120.4819277,,,,,,,,,,,,,,,,,,,,,147.7997,147.9972,147.9973,148.4966,,,,,,,,,,,,,,0.863,1,,,,,,,,,,,,,,m,,,,,,,,,,,,,,,,20,0,148.4975,149.3633,m,1,0.863,,[],[],[],[],[],[],[],149.3634,151.3623,151.3624,151.3625,[],[],[],[],[],[],[],,151.3625,151.3626,-0.084093915,-0.342712467,0,0,0,,0,19,19,92,1,1,word,CATEGORY,print,category_p.png,,,,,,
,,,,32224,001,2025-10-19_15h39.38.265,HW_LDT_1,2024.2.4,MacIntel,120.4819277,,,,,,,,,,,,,,,,,,,,,151.3636,151.5634,151.5634,152.0571,,,,,,,,,,,,,,0.6321,1,,,,,,,,,,,,,,m,,,,,,,,,,,,,,,,21,0,152.0581,152.697,m,1,0.6321,,[],[],[],[],[],[],[],152.6971,154.6971,154.6972,154.6975,[],[],[],[],[],[],[],,154.6976,154.6977,-0.084093915,-0.342712467,0,0,0,,0,20,20,109,1,1,word,GRATEFUL,print,grateful_p.png,,,,,,
,,,,32224,001,2025-10-19_15h39.38.265,HW_LDT_1,2024.2.4,MacIntel,120.4819277,,,,,,,,,,,,,,,,,,,,,154.6995,154.8968,154.8969,155.3965,,,,,,,,,,,,,,0.6992,1,,,,,,,,,,,,,,z,,,,,,,,,,,,,,,,22,0,155.397,156.0967,z,1,0.6992,,[],[],[],[],[],[],[],156.0969,158.0972,158.0973,158.0975,[],[],[],[],[],[],[],,158.0976,158.0977,-0.084093915,-0.342712467,0,0,0,,0,21,21,37,1,1,RL,skofen,print,skofen_p.png,,,,,,
,,,,32224,001,2025-10-19_15h39.38.265,HW_LDT_1,2024.2.4,MacIntel,120.4819277,,,,,,,,,,,,,,,,,,,,,158.0996,158.2975,158.2976,158.7965,,,,,,,,,,,,,,1.0207,1,,,,,,,,,,,,,,z,,,,,,,,,,,,,,,,23,0,158.7968,159.821,z,1,1.0207,,[],[],[],[],[],[],[],159.8211,161.822,161.8221,161.8223,[],[],[],[],[],[],[],,161.8225,161.8226,-0.084093915,-0.342712467,0,0,0,,0,22,22,28,1,1,RL,renutal,print,renutal_p.png,,,,,,
,,,,32224,001,2025-10-19_15h39.38.265,HW_LDT_1,2024.2.4,MacIntel,120.4819277,,,,,,,,,,,,,,,,,,,,,161.8244,162.0215,162.0215,162.5216,,,,,,,,,,,,,,0.6941,1,,,,,,,,,,,,,,z,,,,,,,,,,,,,,,,24,0,162.522,163.2215,z,1,0.6941,,[],[],[],[],[],[],[],163.2216,165.2215,165.2215,165.2216,[],[],[],[],[],[],[],,165.2217,165.2218,-0.084093915,-0.342712467,0,0,0,,0,23,23,17,1,1,RL,menowy,cursive,menowy_c.png,,,,,,
,,,,32224,001,2025-10-19_15h39.38.265,HW_LDT_1,2024.2.4,MacIntel,120.4819277,,,,,,,,,,,,,,,,,,,,,165.2226,165.4233,165.4234,165.9215,,,,,,,,,,,,,,1.5107,1,,,,,,,,,,,,,,z,,,,,,,,,,,,,,,,25,0,165.9218,167.4382,z,1,1.5107,,[],[],[],[],[],[],[],167.4383,169.4382,169.4382,169.4384,[],[],[],[],[],[],[],,169.4384,169.4384,-0.084093915,-0.342712467,0,0,0,,0,24,24,33,1,1,RL,recile,cursive,recile_c.png,,,,,,
,,,,32224,001,2025-10-19_15h39.38.265,HW_LDT_1,2024.2.4,MacIntel,120.4819277,,,,,,,,,,,,,,,,,,,,,169.4393,169.6393,169.6393,170.1387,,,,,,,,,,,,,,0.5817,1,,,,,,,,,,,,,,z,,,,,,,,,,,,,,,,26,0,170.1394,170.7217,z,1,0.5817,,[],[],[],[],[],[],[],170.7218,172.7214,172.7215,172.7216,[],[],[],[],[],[],[],,172.7217,172.7217,-0.084093915,-0.342712467,0,0,0,,0,25,25,5,1,1,RL,cobeny,cursive,cobeny_c.png,,,,,,
,,,,32224,001,2025-10-19_15h39.38.265,HW_LDT_1,2024.2.4,MacIntel,120.4819277,,,,,,,,,,,,,,,,,,,,,172.7225,172.922,172.922,173.4213,,,,,,,,,,,,,,0.5109,1,,,,,,,,,,,,,,m,,,,,,,,,,,,,,,,27,0,173.4216,173.9389,m,1,0.5109,,[],[],[],[],[],[],[],173.939,175.938,175.938,175.9381,[],[],[],[],[],[],[],,175.9381,175.9382,-0.084093915,-0.342712467,0,0,0,,0,26,26,145,1,1,word,RESUME,print,resume_p.png,,,,,,
,,,,32224,001,2025-10-19_15h39.38.265,HW_LDT_1,2024.2.4,MacIntel,120.4819277,,,,,,,,,,,,,,,,,,,,,175.9385,176.1387,176.1387,176.638,,,,,,,,,,,,,,0.5233,1,,,,,,,,,,,,,,m,,,,,,,,,,,,,,,,28,0,176.6387,177.1631,m,1,0.5233,,[],[],[],[],[],[],[],177.1631,179.1637,179.1638,179.1639,[],[],[],[],[],[],[],,179.1641,179.1641,-0.084093915,-0.342712467,0,0,0,,0,27,27,106,1,1,word,ELABORATE,print,elaborate_p.png,,,,,,
,,,,32224,001,2025-10-19_15h39.38.265,HW_LDT_1,2024.2.4,MacIntel,120.4819277,,,,,,,,,,,,,,,,,,,,,179.1658,179.3624,179.3624,179.8627,,,,,,,,,,,,,,0.7017,0,,,,,,,,,,,,,,z,,,,,,,,,,,,,,,,29,1,179.863,180.5711,m,0,0.7017,,[],[],[],[],[],[],[],180.5712,182.5706,182.5707,183.3715,[],[],[],[],[],[],[],z,183.3716,183.3716,-0.084093915,-0.342712467,0,0,0,,0,28,28,61,1,1,TL,mecidine,cursive,mecidine_c.png,0.7959,,,,,
,,,,32224,001,2025-10-19_15h39.38.265,HW_LDT_1,2024.2.4,MacIntel,120.4819277,,,,,,,,,,,,,,,,,,,,,183.3724,183.5714,183.5714,184.0713,,,,,,,,,,,,,,1.1879,1,,,,,,,,,,,,,,m,,,,,,,,,,,,,,,,30,0,184.0717,185.2632,m,1,1.1879,,[],[],[],[],[],[],[],185.2632,187.263,187.2631,187.2632,[],[],[],[],[],[],[],,187.2632,187.2632,-0.084093915,-0.342712467,0,0,0,,0,29,29,136,1,1,word,RADICAL,print,radical_p.png,,,,,,
,,,,32224,001,2025-10-19_15h39.38.265,HW_LDT_1,2024.2.4,MacIntel,120.4819277,,,,,,,,,,,,,,,,,,,,,187.264,187.4633,187.4633,187.9629,,,,,,,,,,,,,,0.7925,1,,,,,,,,,,,,,,m,,,,,,,,,,,,,,,,31,0,187.9633,188.7561,m,1,0.7925,,[],[],[],[],[],[],[],188.7562,190.7546,190.7547,190.7548,[],[],[],[],[],[],[],,190.7548,190.7549,-0.084093915,-0.342712467,0,0,0,,0,30,30,131,1,1,word,POPULAR,cursive,popular_c.png,,,,,,
,,,,32224,001,2025-10-19_15h39.38.265,HW_LDT_1,2024.2.4,MacIntel,120.4819277,,,,,,,,,,,,,,,,,,,,,190.7557,190.9547,190.9548,191.4548,,,,,,,,,,,,,,0.5931,1,,,,,,,,,,,,,,m,,,,,,,,,,,,,,,,32,0,191.4554,192.0543,m,1,0.5931,,[],[],[],[],[],[],[],192.0544,194.0552,194.0552,194.0554,[],[],[],[],[],[],[],,194.0555,194.0556,-0.084093915,-0.342712467,0,0,0,,0,31,31,99,1,1,word,DEBATE,print,debate_p.png,,,,,,
,,,,32224,001,2025-10-19_15h39.38.265,HW_LDT_1,2024.2.4,MacIntel,120.4819277,,,,,,,,,,,,,,,,,,,,,194.0573,194.2551,194.2552,194.7538,,,,,,,,,,,,,,0.753,1,,,,,,,,,,,,,,z,,,,,,,,,,,,,,,,33,0,194.7542,195.5131,z,1,0.753,,[],[],[],[],[],[],[],195.5133,197.5134,197.5135,197.5139,[],[],[],[],[],[],[],,197.514,197.5142,-0.084093915,-0.342712467,0,0,0,,0,32,32,35,1,1,RL,senvilent,cursive,senvilent_c.png,,,,,,
,,,,32224,001,2025-10-19_15h39.38.265,HW_LDT_1,2024.2.4,MacIntel,120.4819277,,,,,,,,,,,,,,,,,,,,,197.5163,197.7127,197.7127,198.2135,,,,,,,,,,,,,,1.336,1,,,,,,,,,,,,,,z,,,,,,,,,,,,,,,,34,0,198.2145,199.5557,z,1,1.336,,[],[],[],[],[],[],[],199.5558,201.5552,201.5553,201.5557,[],[],[],[],[],[],[],,201.5558,201.5559,-0.084093915,-0.342712467,0,0,0,,0,33,33,79,1,1,TL,veretan,print,veretan_p.png,,,,,,
,,,,32224,001,2025-10-19_15h39.38.265,HW_LDT_1,2024.2.4,MacIntel,120.4819277,,,,,,,,,,,,,,,,,,,,,201.5578,201.7547,201.7548,202.2545,,,,,,,,,,,,,,0.6228,1,,,,,,,,,,,,,,m,,,,,,,,,,,,,,,,35,0,202.2549,202.8798,m,1,0.6228,,[],[],[],[],[],[],[],202.8799,204.8793,204.8794,204.8797,[],[],[],[],[],[],[],,204.8798,204.8799,-0.084093915,-0.342712467,0,0,0,,0,34,34,122,1,1,word,MOBILE,cursive,mobile_c.png,,,,,,
,,,,32224,001,2025-10-19_15h39.38.265,HW_LDT_1,2024.2.4,MacIntel,120.4819277,,,,,,,,,,,,,,,,,,,,,204.8818,205.0795,205.0796,205.5797,,,,,,,,,,,,,,1.0188,1,,,,,,,,,,,,,,m,,,,,,,,,,,,,,,,36,0,205.5802,206.6042,m,1,1.0188,,[],[],[],[],[],[],[],206.6043,208.6047,208.6048,208.6049,[],[],[],[],[],[],[],,208.605,208.605,-0.084093915,-0.342712467,0,0,0,,0,35,35,93,1,1,word,CEREMONY,cursive,ceremony_c.png,,,,,,
,,,,32224,001,2025-10-19_15h39.38.265,HW_LDT_1,2024.2.4,MacIntel,120.4819277,,,,,,,,,,,,,,,,,,,,,208.606,208.8045,208.8045,209.305,,,,,,,,,,,,,,0.4679,1,,,,,,,,,,,,,,m,,,,,,,,,,,,,,,,37,0,209.306,209.7797,m,1,0.4679,,[],[],[],[],[],[],[],209.7798,211.7796,211.7796,211.7798,[],[],[],[],[],[],[],,211.7798,211.7798,-0.084093915,-0.342712467,0,0,0,,0,36,36,95,1,1,word,COMEDY,cursive,comedy_c.png,,,,,,
,,,,32224,001,2025-10-19_15h39.38.265,HW_LDT_1,2024.2.4,MacIntel,120.4819277,,,,,,,,,,,,,,,,,,,,,211.7808,211.979,211.9791,212.4801,,,,,,,,,,,,,,0.7369,1,,,,,,,,,,,,,,z,,,,,,,,,,,,,,,,38,0,212.4805,213.2206,z,1,0.7369,,[],[],[],[],[],[],[],213.2206,215.2211,215.2212,215.2214,[],[],[],[],[],[],[],,215.2214,215.2215,-0.084093915,-0.342712467,0,0,0,,0,37,37,26,1,1,RL,quafidy,cursive,quafidy_c.png,,,,,,
,,,,32224,001,2025-10-19_15h39.38.265,HW_LDT_1,2024.2.4,MacIntel,120.4819277,,,,,,,,,,,,,,,,,,,,,215.2223,215.4217,215.4219,215.9207,,,,,,,,,,,,,,0.9435,1,,,,,,,,,,,,,,z,,,,,,,,,,,,,,,,39,0,215.9211,216.8715,z,1,0.9435,,[],[],[],[],[],[],[],216.8716,218.8725,218.8725,218.8727,[],[],[],[],[],[],[],,218.8727,218.8728,-0.084093915,-0.342712467,0,0,0,,0,38,38,54,1,1,TL,distupe,cursive,distupe_c.png,,,,,,
,,,,32224,001,2025-10-19_15h39.38.265,HW_LDT_1,2024.2.4,MacIntel,120.4819277,,,,,,,,,,,,,,,,,,,,,218.874,219.0706,219.0707,219.5719,,,,,,,,,,,,,,0.7525,1,,,,,,,,,,,,,,z,,,,,,,,,,,,,,,,40,1,219.5728,220.33,z,1,0.7525,,[],[],[],[],[],[],[],220.3301,222.3296,222.3297,223.3879,[],[],[],[],[],[],[],m,223.388,223.388,-0.084093915,-0.342712467,0,0,0,,0,39,39,6,1,1,RL,crisival,print,crisival_p.png,1.0553,,,,,
,,,,32224,001,2025-10-19_15h39.38.265,HW_LDT_1,2024.2.4,MacIntel,120.4819277,,,,,,,,,,,,,,,,,,,,,223.3888,223.5885,223.5887,224.0887,,,,,,,,,,,,,,1.2914,0,,,,,,,,,,,,,,m,,,,,,,,,,,,,,,,41,0,224.0895,225.3879,z,0,1.2914,,[],[],[],[],[],[],[],225.388,227.3884,227.3885,227.3888,[],[],[],[],[],[],[],,227.3889,227.3889,-0.084093915,-0.342712467,0,0,0,,0,40,40,146,1,1,word,RETIRE,cursive,retire_c.png,,,,,,
,,,,32224,001,2025-10-19_15h39.38.265,HW_LDT_1,2024.2.4,MacIntel,120.4819277,,,,,,,,,,,,,,,,,,,,,227.3907,227.5883,227.5884,228.0878,,,,,,,,,,,,,,1.5209,1,,,,,,,,,,,,,,z,,,,,,,,,,,,,,,,42,0,228.0884,229.6129,z,1,1.5209,,[],[],[],[],[],[],[],229.6129,231.6124,231.6124,231.6126,[],[],[],[],[],[],[],,231.6126,231.6128,-0.084093915,-0.342712467,0,0,0,,0,41,41,1,1,1,RL,adnicory,cursive,adnicory_c.png,,,,,,
,,,,32224,001,2025-10-19_15h39.38.265,HW_LDT_1,2024.2.4,MacIntel,120.4819277,,,,,,,,,,,,,,,,,,,,,231.6139,231.8118,231.8118,232.312,,,,,,,,,,,,,,0.5228,1,,,,,,,,,,,,,,m,,,,,,,,,,,,,,,,43,0,232.3123,232.8382,m,1,0.5228,,[],[],[],[],[],[],[],232.8382,234.8383,234.8385,234.8388,[],[],[],[],[],[],[],,234.8389,234.8389,-0.084093915,-0.342712467,0,0,0,,0,42,42,144,1,1,word,RESIDENT,print,resident_p.png,,,,,,
,,,,32224,001,2025-10-19_15h39.38.265,HW_LDT_1,2024.2.4,MacIntel,120.4819277,,,,,,,,,,,,,,,,,,,,,234.8414,235.0378,235.0378,235.5376,,,,,,,,,,,,,,0.9411,0,,,,,,,,,,,,,,m,,,,,,,,,,,,,,,,44,0,235.5384,236.48,z,0,0.9411,,[],[],[],[],[],[],[],236.4801,238.4794,238.4795,238.4796,[],[],[],[],[],[],[],,238.4796,238.4796,-0.084093915,-0.342712467,0,0,0,,0,43,43,87,1,1,word,CAFETERIA,cursive,cafeteria_c.png,,,,,,
,,,,32224,001,2025-10-19_15h39.38.265,HW_LDT_1,2024.2.4,MacIntel,120.4819277,,,,,,,,,,,,,,,,,,,,,238.4804,238.6806,238.6806,239.1823,,,,,,,,,,,,,,0.8998,1,,,,,,,,,,,,,,z,,,,,,,,,,,,,,,,45,0,239.1834,240.088,z,1,0.8998,,[],[],[],[],[],[],[],240.0881,242.0881,242.0883,242.0885,[],[],[],[],[],[],[],,242.0885,242.0887,-0.084093915,-0.342712467,0,0,0,,0,44,44,12,1,1,RL,ebiwent,print,ebiwent_p.png,,,,,,
,,,,32224,001,2025-10-19_15h39.38.265,HW_LDT_1,2024.2.4,MacIntel,120.4819277,,,,,,,,,,,,,,,,,,,,,242.0905,242.2882,242.2883,242.7882,,,,,,,,,,,,,,0.7815,1,,,,,,,,,,,,,,z,,,,,,,,,,,,,,,,46,0,242.7892,243.5716,z,1,0.7815,,[],[],[],[],[],[],[],243.5717,245.5715,245.5716,245.5719,[],[],[],[],[],[],[],,245.572,245.5721,-0.084093915,-0.342712467,0,0,0,,0,45,45,46,1,1,TL,catipal,print,catipal_p.png,,,,,,
,,,,32224,001,2025-10-19_15h39.38.265,HW_LDT_1,2024.2.4,MacIntel,120.4819277,,,,,,,,,,,,,,,,,,,,,245.574,245.7716,245.7717,246.2713,,,,,,,,,,,,,,0.912,1,,,,,,,,,,,,,,z,,,,,,,,,,,,,,,,47,0,246.2718,247.1878,z,1,0.912,,[],[],[],[],[],[],[],247.1878,249.1888,249.1888,249.1888,[],[],[],[],[],[],[],,249.1889,249.1889,-0.084093915,-0.342712467,0,0,0,,0,46,46,71,1,1,TL,regilion,cursive,regilion_c.png,,,,,,
,,,,32224,001,2025-10-19_15h39.38.265,HW_LDT_1,2024.2.4,MacIntel,120.4819277,,,,,,,,,,,,,,,,,,,,,249.1895,249.3895,249.3895,249.8881,,,,,,,,,,,,,,0.6211,1,,,,,,,,,,,,,,m,,,,,,,,,,,,,,,,48,0,249.8886,250.5129,m,1,0.6211,,[],[],[],[],[],[],[],250.5129,252.5132,252.5133,252.5135,[],[],[],[],[],[],[],,252.5135,252.5136,-0.084093915,-0.342712467,0,0,0,,0,47,47,124,1,1,word,NUMERICAL,print,numerical_p.png,,,,,,
,,,,32224,001,2025-10-19_15h39.38.265,HW_LDT_1,2024.2.4,MacIntel,120.4819277,,,,,,,,,,,,,,,,,,,,,252.5153,252.7131,252.7132,253.2125,,,,,,,,,,,,,,1.0314,0,,,,,,,,,,,,,,z,,,,,,,,,,,,,,,,49,0,253.2128,254.2462,m,0,1.0314,,[],[],[],[],[],[],[],254.2464,256.2463,256.2464,256.2466,[],[],[],[],[],[],[],,256.2467,256.2467,-0.084093915,-0.342712467,0,0,0,,0,48,48,48,1,1,TL,cemerony,cursive,cemerony_c.png,,,,,,
,,,,32224,001,2025-10-19_15h39.38.265,HW_LDT_1,2024.2.4,MacIntel,120.4819277,,,,,,,,,,,,,,,,,,,,,256.2485,256.446,256.4461,256.9465,,,,,,,,,,,,,,0.7139,1,,,,,,,,,,,,,,m,,,,,,,,,,,,,,,,50,0,256.9473,257.6627,m,1,0.7139,,[],[],[],[],[],[],[],257.6628,259.6627,259.6628,259.6629,[],[],[],[],[],[],[],,259.6629,259.6629,-0.084093915,-0.342712467,0,0,0,,0,49,49,132,1,1,word,PROPOSAL,cursive,proposal_c.png,,,,,,
,,,,32224,001,2025-10-19_15h39.38.265,HW_LDT_1,2024.2.4,MacIntel,120.4819277,,,,,,,,,,,,,,,,,,,,,259.6638,259.8642,259.8643,260.3629,,,,,,,,,,,,,,1.0125,0,,,,,,,,,,,,,,m,,,,,,,,,,,,,,,,51,0,260.3634,261.3784,z,0,1.0125,,[],[],[],[],[],[],[],261.3784,263.3792,263.3794,263.3796,[],[],[],[],[],[],[],,263.3797,263.3798,-0.084093915,-0.342712467,0,0,0,,0,50,50,155,1,1,word,STRATEGY,cursive,strategy_c.png,,,,,,
,,,,32224,001,2025-10-19_15h39.38.265,HW_LDT_1,2024.2.4,MacIntel,120.4819277,,,,,,,,,,,,,,,,,,,,,263.3815,263.579,263.5791,264.0793,,,,,,,,,,,,,,0.6878,1,,,,,,,,,,,,,,m,,,,,,,,,,,,,,,,52,0,264.0797,264.7702,m,1,0.6878,,[],[],[],[],[],[],[],264.7703,266.7711,266.7711,266.7714,[],[],[],[],[],[],[],,266.7715,266.7716,-0.084093915,-0.342712467,0,0,0,,0,51,51,152,1,1,word,SPECIMEN,cursive,specimen_c.png,,,,,,
,,,,32224,001,2025-10-19_15h39.38.265,HW_LDT_1,2024.2.4,MacIntel,120.4819277,,,,,,,,,,,,,,,,,,,,,266.7734,266.9715,266.9716,267.4709,,,,,,,,,,,,,,0.5661,0,,,,,,,,,,,,,,z,,,,,,,,,,,,,,,,53,0,267.4713,268.0379,m,0,0.5661,,[],[],[],[],[],[],[],268.0379,270.038,270.0381,270.0383,[],[],[],[],[],[],[],,270.0384,270.0385,-0.084093915,-0.342712467,0,0,0,,0,52,52,8,1,1,RL,debave,print,debave_p.png,,,,,,
,,,,32224,001,2025-10-19_15h39.38.265,HW_LDT_1,2024.2.4,MacIntel,120.4819277,,,,,,,,,,,,,,,,,,,,,270.0402,270.2385,270.2386,270.7383,,,,,,,,,,,,,,0.6426,1,,,,,,,,,,,,,,m,,,,,,,,,,,,,,,,54,0,270.7391,271.3877,m,1,0.6426,,[],[],[],[],[],[],[],271.3878,273.388,273.3882,273.3883,[],[],[],[],[],[],[],,273.3884,273.3887,-0.084093915,-0.342712467,0,0,0,,0,53,53,142,1,1,word,REMOTE,print,remote_p.png,,,,,,
,,,,32224,001,2025-10-19_15h39.38.265,HW_LDT_1,2024.2.4,MacIntel,120.4819277,,,,,,,,,,,,,,,,,,,,,273.3903,273.5874,273.5875,274.0866,,,,,,,,,,,,,,0.8517,1,,,,,,,,,,,,,,z,,,,,,,,,,,,,,,,55,0,274.087,274.939,z,1,0.8517,,[],[],[],[],[],[],[],274.939,276.9379,276.9379,276.938,[],[],[],[],[],[],[],,276.9381,276.9381,-0.084093915,-0.342712467,0,0,0,,0,54,54,7,1,1,RL,delahe,print,delahe_p.png,,,,,,
,,,,32224,001,2025-10-19_15h39.38.265,HW_LDT_1,2024.2.4,MacIntel,120.4819277,,,,,,,,,,,,,,,,,,,,,276.9396,277.1381,277.1382,277.6375,,,,,,,,,,,,,,0.5503,1,,,,,,,,,,,,,,m,,,,,,,,,,,,,,,,56,0,277.6378,278.1884,m,1,0.5503,,[],[],[],[],[],[],[],278.1885,280.1875,280.1875,280.1876,[],[],[],[],[],[],[],,280.1877,280.1877,-0.084093915,-0.342712467,0,0,0,,0,55,55,114,1,1,word,LOCATE,print,locate_p.png,,,,,,
,,,,32224,001,2025-10-19_15h39.38.265,HW_LDT_1,2024.2.4,MacIntel,120.4819277,,,,,,,,,,,,,,,,,,,,,280.1885,280.387,280.3871,280.8892,,,,,,,,,,,,,,0.5606,1,,,,,,,,,,,,,,m,,,,,,,,,,,,,,,,57,0,280.8901,281.4544,m,1,0.5606,,[],[],[],[],[],[],[],281.4544,283.4542,283.4542,283.4543,[],[],[],[],[],[],[],,283.4544,283.4544,-0.084093915,-0.342712467,0,0,0,,0,56,56,141,1,1,word,RELIGION,cursive,religion_c.png,,,,,,
,,,,32224,001,2025-10-19_15h39.38.265,HW_LDT_1,2024.2.4,MacIntel,120.4819277,,,,,,,,,,,,,,,,,,,,,283.455,283.6538,283.6538,284.1544,,,,,,,,,,,,,,0.6873,1,,,,,,,,,,,,,,z,,,,,,,,,,,,,,,,58,0,284.1548,284.846,z,1,0.6873,,[],[],[],[],[],[],[],284.846,286.8466,286.8467,286.8469,[],[],[],[],[],[],[],,286.8469,286.847,-0.084093915,-0.342712467,0,0,0,,0,57,57,32,1,1,RL,rebicent,print,rebicent_p.png,,,,,,
,,,,32224,001,2025-10-19_15h39.38.265,HW_LDT_1,2024.2.4,MacIntel,120.4819277,,,,,,,,,,,,,,,,,,,,,286.8482,287.0465,287.0467,287.546,,,,,,,,,,,,,,0.4991,1,,,,,,,,,,,,,,m,,,,,,,,,,,,,,,,59,0,287.5463,288.046,m,1,0.4991,,[],[],[],[],[],[],[],288.0461,290.046,290.0461,290.0462,[],[],[],[],[],[],[],,290.0462,290.0463,-0.084093915,-0.342712467,0,0,0,,0,58,58,156,1,1,word,TRIBUTE,cursive,tribute_c.png,,,,,,
,,,,32224,001,2025-10-19_15h39.38.265,HW_LDT_1,2024.2.4,MacIntel,120.4819277,,,,,,,,,,,,,,,,,,,,,290.047,290.2458,290.2458,290.7458,,,,,,,,,,,,,,0.5898,0,,,,,,,,,,,,,,z,,,,,,,,,,,,,,,,60,0,290.7463,291.3376,m,0,0.5898,,[],[],[],[],[],[],[],291.3377,293.3379,293.3381,293.3382,[],[],[],[],[],[],[],,293.3382,293.3383,-0.084093915,-0.342712467,0,0,0,,0,59,59,31,1,1,RL,reconal,cursive,reconal_c.png,,,,,,
,,,,32224,001,2025-10-19_15h39.38.265,HW_LDT_1,2024.2.4,MacIntel,120.4819277,,,,,,,,,,,,,,,,,,,,,293.34,293.5367,293.5367,294.0376,,,,,,,,,,,,,,0.5217,1,,,,,,,,,,,,,,z,,,,,,,,,,,,,,,,61,0,294.0381,294.5622,z,1,0.5217,,[],[],[],[],[],[],[],294.5622,296.5627,296.5629,296.563,[],[],[],[],[],[],[],,296.563,296.5632,-0.084093915,-0.342712467,0,0,0,,0,60,60,21,1,1,RL,opcifal,print,opcifal_p.png,,,,,,
,,,,32224,001,2025-10-19_15h39.38.265,HW_LDT_1,2024.2.4,MacIntel,120.4819277,,,,,,,,,,,,,,,,,,,,,296.5647,296.7623,296.7623,297.2632,,,,,,,,,,,,,,0.9638,1,,,,,,,,,,,,,,z,,,,,,,,,,,,,,,,62,0,297.2641,298.2293,z,1,0.9638,,[],[],[],[],[],[],[],298.2293,300.2292,300.2292,300.2294,[],[],[],[],[],[],[],,300.2295,300.2295,-0.084093915,-0.342712467,0,0,0,,0,61,61,11,1,1,RL,elacodate,print,elacodate_p.png,,,,,,
,,,,32224,001,2025-10-19_15h39.38.265,HW_LDT_1,2024.2.4,MacIntel,120.4819277,,,,,,,,,,,,,,,,,,,,,300.2305,300.4298,300.4299,300.9297,,,,,,,,,,,,,,0.659,1,,,,,,,,,,,,,,m,,,,,,,,,,,,,,,,63,1,300.9313,301.5953,m,1,0.659,,[],[],[],[],[],[],[],301.5953,303.5963,303.5964,305.3542,[],[],[],[],[],[],[],z,305.3543,305.3544,-0.084093915,-0.342712467,0,0,0,,0,62,62,94,1,1,word,CLINICAL,cursive,clinical_c.png,1.754,,,,,
,,,,32224,001,2025-10-19_15h39.38.265,HW_LDT_1,2024.2.4,MacIntel,120.4819277,,,,,,,,,,,,,,,,,,,,,305.3552,305.555,305.5551,306.0546,,,,,,,,,,,,,,0.6385,1,,,,,,,,,,,,,,m,,,,,,,,,,,,,,,,64,0,306.0552,306.6958,m,1,0.6385,,[],[],[],[],[],[],[],306.6958,308.6967,308.6969,308.6971,[],[],[],[],[],[],[],,308.6972,308.6974,-0.084093915,-0.342712467,0,0,0,,0,63,63,115,1,1,word,LOGICAL,cursive,logical_c.png,,,,,,
,,,,32224,001,2025-10-19_15h39.38.265,HW_LDT_1,2024.2.4,MacIntel,120.4819277,,,,,,,,,,,,,,,,,,,,,308.6996,308.8953,308.8954,309.3958,,,,,,,,,,,,,,0.7168,1,,,,,,,,,,,,,,z,,,,,,,,,,,,,,,,65,0,309.3961,310.1135,z,1,0.7168,,[],[],[],[],[],[],[],310.1135,312.1129,312.113,312.1132,[],[],[],[],[],[],[],,312.1132,312.1132,-0.084093915,-0.342712467,0,0,0,,0,64,64,10,1,1,RL,efibor,cursive,efibor_c.png,,,,,,
,,,,32224,001,2025-10-19_15h39.38.265,HW_LDT_1,2024.2.4,MacIntel,120.4819277,,,,,,,,,,,,,,,,,,,,,312.1144,312.3124,312.3125,312.8124,,,,,,,,,,,,,,0.6377,1,,,,,,,,,,,,,,m,,,,,,,,,,,,,,,,66,1,312.8128,313.4541,m,1,0.6377,,[],[],[],[],[],[],[],313.4542,315.4533,315.4533,316.629,[],[],[],[],[],[],[],z,316.629,316.6291,-0.084093915,-0.342712467,0,0,0,,0,65,65,83,1,1,word,ANIMAL,print,animal_p.png,1.1754,,,,,
,,,,32224,001,2025-10-19_15h39.38.265,HW_LDT_1,2024.2.4,MacIntel,120.4819277,,,,,,,,,,,,,,,,,,,,,316.6299,316.8295,316.8296,317.3286,,,,,,,,,,,,,,0.8625,1,,,,,,,,,,,,,,z,,,,,,,,,,,,,,,,67,0,317.3294,318.1958,z,1,0.8625,,[],[],[],[],[],[],[],318.1958,320.1952,320.1952,320.1953,[],[],[],[],[],[],[],,320.1953,320.1954,-0.084093915,-0.342712467,0,0,0,,0,66,66,42,1,1,TL,befenit,print,befenit_p.png,,,,,,
,,,,32224,001,2025-10-19_15h39.38.265,HW_LDT_1,2024.2.4,MacIntel,120.4819277,,,,,,,,,,,,,,,,,,,,,320.1958,320.3957,320.3957,320.8962,,,,,,,,,,,,,,0.881,1,,,,,,,,,,,,,,z,,,,,,,,,,,,,,,,68,0,320.8973,321.7791,z,1,0.881,,[],[],[],[],[],[],[],321.7791,323.7781,323.7782,323.7783,[],[],[],[],[],[],[],,323.7783,323.7784,-0.084093915,-0.342712467,0,0,0,,0,67,67,40,1,1,TL,atameur,print,atameur_p.png,,,,,,
,,,,32224,001,2025-10-19_15h39.38.265,HW_LDT_1,2024.2.4,MacIntel,120.4819277,,,,,,,,,,,,,,,,,,,,,323.7795,323.9802,323.9803,324.4791,,,,,,,,,,,,,,0.7665,1,,,,,,,,,,,,,,m,,,,,,,,,,,,,,,,69,0,324.48,325.2473,m,1,0.7665,,[],[],[],[],[],[],[],325.2473,327.2457,327.2457,327.246,[],[],[],[],[],[],[],,327.2461,327.2462,-0.084093915,-0.342712467,0,0,0,,0,68,68,143,1,1,word,REMOVAL,cursive,removal_c.png,,,,,,
,,,,32224,001,2025-10-19_15h39.38.265,HW_LDT_1,2024.2.4,MacIntel,120.4819277,,,,,,,,,,,,,,,,,,,,,327.2478,327.4449,327.4449,327.9448,,,,,,,,,,,,,,0.7462,1,,,,,,,,,,,,,,m,,,,,,,,,,,,,,,,70,0,327.9451,328.6952,m,1,0.7462,,[],[],[],[],[],[],[],328.6952,330.6956,330.6957,330.6958,[],[],[],[],[],[],[],,330.6958,330.6958,-0.084093915,-0.342712467,0,0,0,,0,69,69,138,1,1,word,REFUSAL,print,refusal_p.png,,,,,,
,,,,32224,001,2025-10-19_15h39.38.265,HW_LDT_1,2024.2.4,MacIntel,120.4819277,,,,,,,,,,,,,,,,,,,,,330.6966,330.8951,330.8952,331.3957,,,,,,,,,,,,,,0.7618,1,,,,,,,,,,,,,,z,,,,,,,,,,,,,,,,71,0,331.3963,332.1624,z,1,0.7618,,[],[],[],[],[],[],[],332.1625,334.1626,334.1626,334.1627,[],[],[],[],[],[],[],,334.1627,334.1628,-0.084093915,-0.342712467,0,0,0,,0,70,70,59,1,1,TL,lirebal,cursive,lirebal_c.png,,,,,,
,,,,32224,001,2025-10-19_15h39.38.265,HW_LDT_1,2024.2.4,MacIntel,120.4819277,,,,,,,,,,,,,,,,,,,,,334.1645,334.3624,334.3624,334.8631,,,,,,,,,,,,,,0.5357,1,,,,,,,,,,,,,,m,,,,,,,,,,,,,,,,72,0,334.8638,335.4031,m,1,0.5357,,[],[],[],[],[],[],[],335.4031,337.4036,337.4038,337.4038,[],[],[],[],[],[],[],,337.4039,337.404,-0.084093915,-0.342712467,0,0,0,,0,71,71,112,1,1,word,LIBERAL,cursive,liberal_c.png,,,,,,
,,,,32224,001,2025-10-19_15h39.38.265,HW_LDT_1,2024.2.4,MacIntel,120.4819277,,,,,,,,,,,,,,,,,,,,,337.4054,337.6057,337.6058,338.1051,,,,,,,,,,,,,,0.7474,1,,,,,,,,,,,,,,z,,,,,,,,,,,,,,,,73,0,338.106,338.854,z,1,0.7474,,[],[],[],[],[],[],[],338.8541,340.8545,340.8548,340.855,[],[],[],[],[],[],[],,340.8552,340.8554,-0.084093915,-0.342712467,0,0,0,,0,72,72,74,1,1,TL,setanor,cursive,setanor_c.png,,,,,,
,,,,32224,001,2025-10-19_15h39.38.265,HW_LDT_1,2024.2.4,MacIntel,120.4819277,,,,,,,,,,,,,,,,,,,,,340.858,341.0538,341.0539,341.5539,,,,,,,,,,,,,,0.8416,1,,,,,,,,,,,,,,z,,,,,,,,,,,,,,,,74,0,341.5543,342.3963,z,1,0.8416,,[],[],[],[],[],[],[],342.3964,344.3957,344.3958,344.3959,[],[],[],[],[],[],[],,344.3959,344.396,-0.084093915,-0.342712467,0,0,0,,0,73,73,47,1,1,TL,cagetory,print,cagetory_p.png,,,,,,
,,,,32224,001,2025-10-19_15h39.38.265,HW_LDT_1,2024.2.4,MacIntel,120.4819277,,,,,,,,,,,,,,,,,,,,,344.3969,344.5955,344.5955,345.0955,,,,,,,,,,,,,,0.7666,1,,,,,,,,,,,,,,m,,,,,,,,,,,,,,,,75,1,345.0958,345.8628,m,1,0.7666,,[],[],[],[],[],[],[],345.8628,347.8613,347.8613,349.0283,[],[],[],[],[],[],[],m,349.0284,349.0284,-0.084093915,-0.342712467,0,0,0,,0,74,74,91,1,1,word,CARDINAL,print,cardinal_p.png,1.1621,,,,,
,,,,32224,001,2025-10-19_15h39.38.265,HW_LDT_1,2024.2.4,MacIntel,120.4819277,,,,,,,,,,,,,,,,,,,,,349.0292,349.2302,349.2303,349.7295,,,,,,,,,,,,,,0.7451,1,,,,,,,,,,,,,,z,,,,,,,,,,,,,,,,76,0,349.7304,350.4789,z,1,0.7451,,[],[],[],[],[],[],[],350.479,352.4787,352.4788,352.4788,[],[],[],[],[],[],[],,352.4788,352.479,-0.084093915,-0.342712467,0,0,0,,0,75,75,0,1,1,RL,abanemy,cursive,abanemy_c.png,,,,,,
,,,,32224,001,2025-10-19_15h39.38.265,HW_LDT_1,2024.2.4,MacIntel,120.4819277,,,,,,,,,,,,,,,,,,,,,352.4796,352.6793,352.6794,353.1801,,,,,,,,,,,,,,0.5577,1,,,,,,,,,,,,,,m,,,,,,,,,,,,,,,,77,1,353.181,353.7452,m,1,0.5577,,[],[],[],[],[],[],[],353.7452,355.7456,355.7456,356.3539,[],[],[],[],[],[],[],z,356.3539,356.354,-0.084093915,-0.342712467,0,0,0,,0,76,76,84,1,1,word,BELOVED,print,beloved_p.png,0.602,,,,,
,,,,32224,001,2025-10-19_15h39.38.265,HW_LDT_1,2024.2.4,MacIntel,120.4819277,,,,,,,,,,,,,,,,,,,,,356.3547,356.5545,356.5546,357.0539,,,,,,,,,,,,,,0.7849,0,,,,,,,,,,,,,,m,,,,,,,,,,,,,,,,78,0,357.0544,357.846,z,0,0.7849,,[],[],[],[],[],[],[],357.8462,359.8455,359.8455,359.8457,[],[],[],[],[],[],[],,359.8457,359.8458,-0.084093915,-0.342712467,0,0,0,,0,77,77,150,1,1,word,SENTIMENT,cursive,sentiment_c.png,,,,,,
,,,,32224,001,2025-10-19_15h39.38.265,HW_LDT_1,2024.2.4,MacIntel,120.4819277,,,,,,,,,,,,,,,,,,,,,359.8467,360.0455,360.0455,360.5456,,,,,,,,,,,,,,0.5431,0,,,,,,,,,,,,,,z,,,,,,,,,,,,,,,,79,0,360.5461,361.0949,m,0,0.5431,,[],[],[],[],[],[],[],361.095,363.0962,363.0962,363.0963,[],[],[],[],[],[],[],,363.0963,363.0964,-0.084093915,-0.342712467,0,0,0,,0,78,78,62,1,1,TL,mitilary,print,mitilary_p.png,,,,,,
,,,,32224,001,2025-10-19_15h39.38.265,HW_LDT_1,2024.2.4,MacIntel,120.4819277,,,,,,,,,,,,,,,,,,,,,363.0979,363.2955,363.2955,363.7965,,,,,,,,,,,,,,0.785,0,,,,,,,,,,,,,,z,,,,,,,,,,,,,,,,80,0,363.7974,364.5872,m,0,0.785,,[],[],[],[],[],[],[],364.5873,366.5879,366.588,366.5883,[],[],[],[],[],[],[],,366.5883,371.8541,-0.084093915,-0.342712467,0,0,0,space,0,79,79,50,1,1,TL,condiser,cursive,condiser_c.png,,,5.2487,,,
,,,,32224,001,2025-10-19_15h39.38.265,HW_LDT_1,2024.2.4,MacIntel,120.4819277,,,,,,,,,,,,,,,,,,,,,371.8549,372.0541,372.0542,372.5529,,,,,,,,,,,,,,0.5495,1,,,,,,,,,,,,,,m,,,,,,,,,,,,,,,,81,0,372.5534,373.1039,m,1,0.5495,,[],[],[],[],[],[],[],373.104,375.1042,375.1044,375.1045,[],[],[],[],[],[],[],,375.1045,375.1046,-0.084093915,-0.342712467,0,0,0,,0,80,80,98,1,1,word,CRIMINAL,print,criminal_p.png,,,,,,
,,,,32224,001,2025-10-19_15h39.38.265,HW_LDT_1,2024.2.4,MacIntel,120.4819277,,,,,,,,,,,,,,,,,,,,,375.1059,375.3037,375.3038,375.8043,,,,,,,,,,,,,,0.7537,1,,,,,,,,,,,,,,m,,,,,,,,,,,,,,,,82,1,375.805,376.5621,m,1,0.7537,,[],[],[],[],[],[],[],376.5621,378.5618,378.562,379.5788,[],[],[],[],[],[],[],m,379.5788,379.5788,-0.084093915,-0.342712467,0,0,0,,0,81,81,82,1,1,word,AMATEUR,print,amateur_p.png,1.016,,,,,
,,,,32224,001,2025-10-19_15h39.38.265,HW_LDT_1,2024.2.4,MacIntel,120.4819277,,,,,,,,,,,,,,,,,,,,,379.5796,379.7786,379.7786,380.2788,,,,,,,,,,,,,,0.9693,0,,,,,,,,,,,,,,z,,,,,,,,,,,,,,,,83,0,380.2793,381.2537,m,0,0.9693,,[],[],[],[],[],[],[],381.2538,383.2542,383.2544,383.2545,[],[],[],[],[],[],[],,383.2546,383.2547,-0.084093915,-0.342712467,0,0,0,,0,82,82,66,1,1,TL,panert,cursive,panert_c.png,,,,,,
,,,,32224,001,2025-10-19_15h39.38.265,HW_LDT_1,2024.2.4,MacIntel,120.4819277,,,,,,,,,,,,,,,,,,,,,383.2562,383.4528,383.4529,383.9533,,,,,,,,,,,,,,0.8619,0,,,,,,,,,,,,,,z,,,,,,,,,,,,,,,,84,0,383.9542,384.8203,m,0,0.8619,,[],[],[],[],[],[],[],384.8204,386.8206,386.8207,386.8208,[],[],[],[],[],[],[],,386.8208,386.8209,-0.084093915,-0.342712467,0,0,0,,0,83,83,56,1,1,TL,grafetul,print,grafetul_p.png,,,,,,
,,,,32224,001,2025-10-19_15h39.38.265,HW_LDT_1,2024.2.4,MacIntel,120.4819277,,,,,,,,,,,,,,,,,,,,,386.8222,387.0222,387.0223,387.5209,,,,,,,,,,,,,,0.5309,1,,,,,,,,,,,,,,m,,,,,,,,,,,,,,,,85,0,387.5225,388.0543,m,1,0.5309,,[],[],[],[],[],[],[],388.0543,390.0536,390.0536,390.0537,[],[],[],[],[],[],[],,390.0537,390.0538,-0.084093915,-0.342712467,0,0,0,,0,84,84,121,1,1,word,MISTAKE,print,mistake_p.png,,,,,,
,,,,32224,001,2025-10-19_15h39.38.265,HW_LDT_1,2024.2.4,MacIntel,120.4819277,,,,,,,,,,,,,,,,,,,,,390.0546,390.2543,390.2544,390.7527,,,,,,,,,,,,,,0.5977,1,,,,,,,,,,,,,,m,,,,,,,,,,,,,,,,86,0,390.7531,391.3538,m,1,0.5977,,[],[],[],[],[],[],[],391.3539,393.3541,393.3544,393.3546,[],[],[],[],[],[],[],,393.3546,393.3548,-0.084093915,-0.342712467,0,0,0,,0,85,85,153,1,1,word,STOLEN,print,stolen_p.png,,,,,,
,,,,32224,001,2025-10-19_15h39.38.265,HW_LDT_1,2024.2.4,MacIntel,120.4819277,,,,,,,,,,,,,,,,,,,,,393.3565,393.5537,393.5537,394.0541,,,,,,,,,,,,,,1.0481,0,,,,,,,,,,,,,,m,,,,,,,,,,,,,,,,87,0,394.0548,395.1039,z,0,1.0481,,[],[],[],[],[],[],[],395.104,397.104,397.104,397.1043,[],[],[],[],[],[],[],,397.1043,397.1043,-0.084093915,-0.342712467,0,0,0,,0,86,86,111,1,1,word,INDICATE,cursive,indicate_c.png,,,,,,
,,,,32224,001,2025-10-19_15h39.38.265,HW_LDT_1,2024.2.4,MacIntel,120.4819277,,,,,,,,,,,,,,,,,,,,,397.1061,397.3044,397.3045,397.8037,,,,,,,,,,,,,,0.5768,1,,,,,,,,,,,,,,m,,,,,,,,,,,,,,,,88,0,397.804,398.3862,m,1,0.5768,,[],[],[],[],[],[],[],398.3863,400.3869,400.3869,400.387,[],[],[],[],[],[],[],,400.387,400.3871,-0.084093915,-0.342712467,0,0,0,,0,87,87,130,1,1,word,POLICY,cursive,policy_c.png,,,,,,
,,,,32224,001,2025-10-19_15h39.38.265,HW_LDT_1,2024.2.4,MacIntel,120.4819277,,,,,,,,,,,,,,,,,,,,,400.3874,400.587,400.587,401.0871,,,,,,,,,,,,,,0.6749,1,,,,,,,,,,,,,,z,,,,,,,,,,,,,,,,89,0,401.0875,401.7629,z,1,0.6749,,[],[],[],[],[],[],[],401.7629,403.7624,403.7628,403.7631,[],[],[],[],[],[],[],,403.7632,403.7633,-0.084093915,-0.342712467,0,0,0,,0,88,88,3,1,1,RL,casena,cursive,casena_c.png,,,,,,
,,,,32224,001,2025-10-19_15h39.38.265,HW_LDT_1,2024.2.4,MacIntel,120.4819277,,,,,,,,,,,,,,,,,,,,,403.7649,403.963,403.9632,404.4616,,,,,,,,,,,,,,0.5928,0,,,,,,,,,,,,,,z,,,,,,,,,,,,,,,,90,0,404.4622,405.0555,m,0,0.5928,,[],[],[],[],[],[],[],405.0555,407.0527,407.0527,407.0529,[],[],[],[],[],[],[],,407.0529,407.053,-0.084093915,-0.342712467,0,0,0,,0,89,89,77,1,1,TL,tritube,cursive,tritube_c.png,,,,,,
,,,,32224,001,2025-10-19_15h39.38.265,HW_LDT_1,2024.2.4,MacIntel,120.4819277,,,,,,,,,,,,,,,,,,,,,407.0539,407.2532,407.2532,407.7544,,,,,,,,,,,,,,0.5347,1,,,,,,,,,,,,,,m,,,,,,,,,,,,,,,,91,0,407.7551,408.2954,m,1,0.5347,,[],[],[],[],[],[],[],408.2954,410.2965,410.2966,410.2968,[],[],[],[],[],[],[],,410.2969,410.297,-0.084093915,-0.342712467,0,0,0,,0,90,90,139,1,1,word,REGULAR,print,regular_p.png,,,,,,
,,,,32224,001,2025-10-19_15h39.38.265,HW_LDT_1,2024.2.4,MacIntel,120.4819277,,,,,,,,,,,,,,,,,,,,,410.299,410.4953,410.4953,410.9959,,,,,,,,,,,,,,0.7372,1,,,,,,,,,,,,,,m,,,,,,,,,,,,,,,,92,0,410.9968,411.737,m,1,0.7372,,[],[],[],[],[],[],[],411.7371,413.737,413.737,413.7372,[],[],[],[],[],[],[],,413.7372,413.7373,-0.084093915,-0.342712467,0,0,0,,0,91,91,137,1,1,word,RAPIDLY,cursive,rapidly_c.png,,,,,,
,,,,32224,001,2025-10-19_15h39.38.265,HW_LDT_1,2024.2.4,MacIntel,120.4819277,,,,,,,,,,,,,,,,,,,,,413.7381,413.9369,413.9369,414.4374,,,,,,,,,,,,,,0.717,1,,,,,,,,,,,,,,z,,,,,,,,,,,,,,,,93,0,414.4388,415.1613,z,1,0.717,,[],[],[],[],[],[],[],415.1614,417.1618,417.1618,417.162,[],[],[],[],[],[],[],,417.162,417.162,-0.084093915,-0.342712467,0,0,0,,0,92,92,36,1,1,RL,speniven,cursive,speniven_c.png,,,,,,
,,,,32224,001,2025-10-19_15h39.38.265,HW_LDT_1,2024.2.4,MacIntel,120.4819277,,,,,,,,,,,,,,,,,,,,,417.1629,417.362,417.362,417.8625,,,,,,,,,,,,,,1.8352,1,,,,,,,,,,,,,,z,,,,,,,,,,,,,,,,94,1,417.8632,419.7033,z,1,1.8352,,[],[],[],[],[],[],[],419.7034,421.7041,421.7042,422.9278,[],[],[],[],[],[],[],z,422.9279,422.9279,-0.084093915,-0.342712467,0,0,0,,0,93,93,58,1,1,TL,incidate,cursive,incidate_c.png,1.2173,,,,,
,,,,32224,001,2025-10-19_15h39.38.265,HW_LDT_1,2024.2.4,MacIntel,120.4819277,,,,,,,,,,,,,,,,,,,,,422.9288,423.1289,423.1289,423.6284,,,,,,,,,,,,,,0.7623,1,,,,,,,,,,,,,,z,,,,,,,,,,,,,,,,95,0,423.6287,424.3944,z,1,0.7623,,[],[],[],[],[],[],[],424.3944,426.3957,426.3958,426.3961,[],[],[],[],[],[],[],,426.3961,426.3963,-0.084093915,-0.342712467,0,0,0,,0,94,94,13,1,1,RL,linefal,print,linefal_p.png,,,,,,
,,,,32224,001,2025-10-19_15h39.38.265,HW_LDT_1,2024.2.4,MacIntel,120.4819277,,,,,,,,,,,,,,,,,,,,,426.398,426.5951,426.5955,427.0942,,,,,,,,,,,,,,0.8303,1,,,,,,,,,,,,,,z,,,,,,,,,,,,,,,,96,1,427.0948,427.9278,z,1,0.8303,,[],[],[],[],[],[],[],427.9278,429.9289,429.929,431.2035,[],[],[],[],[],[],[],m,431.2036,431.2037,-0.084093915,-0.342712467,0,0,0,,0,95,95,14,1,1,RL,lofase,print,lofase_p.png,1.2695,,,,,
,,,,32224,001,2025-10-19_15h39.38.265,HW_LDT_1,2024.2.4,MacIntel,120.4819277,,,,,,,,,,,,,,,,,,,,,431.2044,431.4041,431.4042,431.9038,,,,,,,,,,,,,,0.7691,0,,,,,,,,,,,,,,z,,,,,,,,,,,,,,,,97,1,431.9047,432.6787,m,0,0.7691,,[],[],[],[],[],[],[],432.6787,434.6787,434.6787,435.5957,[],[],[],[],[],[],[],z,435.5958,435.5958,-0.084093915,-0.342712467,0,0,0,,0,96,96,49,1,1,TL,clicinal,cursive,clicinal_c.png,0.9105,,,,,
,,,,32224,001,2025-10-19_15h39.38.265,HW_LDT_1,2024.2.4,MacIntel,120.4819277,,,,,,,,,,,,,,,,,,,,,435.5979,435.7954,435.7954,436.2942,,,,,,,,,,,,,,0.8335,1,,,,,,,,,,,,,,z,,,,,,,,,,,,,,,,98,0,436.2946,437.1287,z,1,0.8335,,[],[],[],[],[],[],[],437.1288,439.129,439.1292,439.1295,[],[],[],[],[],[],[],,439.1295,439.1296,-0.084093915,-0.342712467,0,0,0,,0,97,97,19,1,1,RL,monebate,print,monebate_p.png,,,,,,
,,,,32224,001,2025-10-19_15h39.38.265,HW_LDT_1,2024.2.4,MacIntel,120.4819277,,,,,,,,,,,,,,,,,,,,,439.1315,439.329,439.3291,439.8284,,,,,,,,,,,,,,0.9916,1,,,,,,,,,,,,,,z,,,,,,,,,,,,,,,,99,1,439.8288,440.8209,z,1,0.9916,,[],[],[],[],[],[],[],440.821,442.8204,442.8205,443.7285,[],[],[],[],[],[],[],m,443.7286,443.7286,-0.084093915,-0.342712467,0,0,0,,0,98,98,72,1,1,TL,remuse,print,remuse_p.png,0.9039,,,,,
,,,,32224,001,2025-10-19_15h39.38.265,HW_LDT_1,2024.2.4,MacIntel,120.4819277,,,,,,,,,,,,,,,,,,,,,443.7293,443.9284,443.9284,444.4299,,,,,,,,,,,,,,0.7669,1,,,,,,,,,,,,,,m,,,,,,,,,,,,,,,,100,0,444.4306,445.2026,m,1,0.7669,,[],[],[],[],[],[],[],445.2026,447.2032,447.2033,447.2034,[],[],[],[],[],[],[],,447.2034,447.2035,-0.084093915,-0.342712467,0,0,0,,0,99,99,126,1,1,word,OPTIMAL,print,optimal_p.png,,,,,,
,,,,32224,001,2025-10-19_15h39.38.265,HW_LDT_1,2024.2.4,MacIntel,120.4819277,,,,,,,,,,,,,,,,,,,,,447.2042,447.4036,447.4037,447.9046,,,,,,,,,,,,,,0.6203,1,,,,,,,,,,,,,,z,,,,,,,,,,,,,,,,101,0,447.9053,448.5286,z,1,0.6203,,[],[],[],[],[],[],[],448.5286,450.5279,450.528,450.5282,[],[],[],[],[],[],[],,450.5283,450.5284,-0.084093915,-0.342712467,0,0,0,,0,100,100,15,1,1,RL,losipal,cursive,losipal_c.png,,,,,,
,,,,32224,001,2025-10-19_15h39.38.265,HW_LDT_1,2024.2.4,MacIntel,120.4819277,,,,,,,,,,,,,,,,,,,,,450.5293,450.7276,450.7276,451.2287,,,,,,,,,,,,,,0.6359,1,,,,,,,,,,,,,,z,,,,,,,,,,,,,,,,102,0,451.2296,451.8703,z,1,0.6359,,[],[],[],[],[],[],[],451.8703,453.8703,453.8703,453.8704,[],[],[],[],[],[],[],,453.8704,453.8705,-0.084093915,-0.342712467,0,0,0,,0,101,101,63,1,1,TL,molibe,cursive,molibe_c.png,,,,,,
,,,,32224,001,2025-10-19_15h39.38.265,HW_LDT_1,2024.2.4,MacIntel,120.4819277,,,,,,,,,,,,,,,,,,,,,453.8715,454.0695,454.0696,454.57,,,,,,,,,,,,,,0.5608,0,,,,,,,,,,,,,,m,,,,,,,,,,,,,,,,103,0,454.5703,455.1372,z,0,0.5608,,[],[],[],[],[],[],[],455.1373,457.1372,457.1372,457.1375,[],[],[],[],[],[],[],,457.1375,457.1375,-0.084093915,-0.342712467,0,0,0,,0,102,102,117,1,1,word,MARINE,print,marine_p.png,,,,,,
,,,,32224,001,2025-10-19_15h39.38.265,HW_LDT_1,2024.2.4,MacIntel,120.4819277,,,,,,,,,,,,,,,,,,,,,457.1387,457.336,457.3361,457.8364,,,,,,,,,,,,,,1.2882,1,,,,,,,,,,,,,,z,,,,,,,,,,,,,,,,104,0,457.8368,459.1286,z,1,1.2882,,[],[],[],[],[],[],[],459.1286,461.1286,461.1286,461.1288,[],[],[],[],[],[],[],,461.1288,461.129,-0.084093915,-0.342712467,0,0,0,,0,103,103,69,1,1,TL,radiply,cursive,radiply_c.png,,,,,,
,,,,32224,001,2025-10-19_15h39.38.265,HW_LDT_1,2024.2.4,MacIntel,120.4819277,,,,,,,,,,,,,,,,,,,,,461.1299,461.3284,461.3285,461.8289,,,,,,,,,,,,,,0.887,1,,,,,,,,,,,,,,m,,,,,,,,,,,,,,,,105,0,461.8298,462.7199,m,1,0.887,,[],[],[],[],[],[],[],462.7199,464.72,464.72,464.7201,[],[],[],[],[],[],[],,464.7201,464.7202,-0.084093915,-0.342712467,0,0,0,,0,104,104,128,1,1,word,PACIFIC,print,pacific_p.png,,,,,,
,,,,32224,001,2025-10-19_15h39.38.265,HW_LDT_1,2024.2.4,MacIntel,120.4819277,,,,,,,,,,,,,,,,,,,,,464.7211,464.9208,464.9209,465.42,,,,,,,,,,,,,,0.8455,0,,,,,,,,,,,,,,m,,,,,,,,,,,,,,,,106,1,465.4205,466.2702,z,0,0.8455,,[],[],[],[],[],[],[],466.2703,468.2699,468.27,469.42,[],[],[],[],[],[],[],z,469.42,469.4201,-0.084093915,-0.342712467,0,0,0,,0,105,105,134,1,1,word,QUALIFY,cursive,qualify_c.png,1.1442,,,,,
,,,,32224,001,2025-10-19_15h39.38.265,HW_LDT_1,2024.2.4,MacIntel,120.4819277,,,,,,,,,,,,,,,,,,,,,469.4208,469.6191,469.6192,470.1199,,,,,,,,,,,,,,0.8001,1,,,,,,,,,,,,,,z,,,,,,,,,,,,,,,,107,0,470.1203,470.9208,z,1,0.8001,,[],[],[],[],[],[],[],470.9209,472.92,472.92,472.9202,[],[],[],[],[],[],[],,472.9202,472.9202,-0.084093915,-0.342712467,0,0,0,,0,106,106,25,1,1,RL,quakity,cursive,quakity_c.png,,,,,,
,,,,32224,001,2025-10-19_15h39.38.265,HW_LDT_1,2024.2.4,MacIntel,120.4819277,,,,,,,,,,,,,,,,,,,,,472.9213,473.1199,473.12,473.6198,,,,,,,,,,,,,,0.6205,0,,,,,,,,,,,,,,m,,,,,,,,,,,,,,,,108,0,473.6201,474.2451,z,0,0.6205,,[],[],[],[],[],[],[],474.2452,476.2452,476.2456,476.246,[],[],[],[],[],[],[],,476.246,476.2461,-0.084093915,-0.342712467,0,0,0,,0,107,107,105,1,1,word,EDITOR,cursive,editor_c.png,,,,,,
,,,,32224,001,2025-10-19_15h39.38.265,HW_LDT_1,2024.2.4,MacIntel,120.4819277,,,,,,,,,,,,,,,,,,,,,476.248,476.4455,476.4456,476.9454,,,,,,,,,,,,,,1.3068,1,,,,,,,,,,,,,,m,,,,,,,,,,,,,,,,109,0,476.9463,478.2541,m,1,1.3068,,[],[],[],[],[],[],[],478.2541,480.2536,480.2536,480.2538,[],[],[],[],[],[],[],,480.2538,480.2539,-0.084093915,-0.342712467,0,0,0,,0,108,108,88,1,1,word,CAMERA,cursive,camera_c.png,,,,,,
,,,,32224,001,2025-10-19_15h39.38.265,HW_LDT_1,2024.2.4,MacIntel,120.4819277,,,,,,,,,,,,,,,,,,,,,480.2552,480.4532,480.4532,480.9532,,,,,,,,,,,,,,0.9874,1,,,,,,,,,,,,,,m,,,,,,,,,,,,,,,,110,0,480.9537,481.9444,m,1,0.9874,,[],[],[],[],[],[],[],481.9445,483.9455,483.9456,483.9459,[],[],[],[],[],[],[],,483.9459,483.946,-0.084093915,-0.342712467,0,0,0,,0,109,109,147,1,1,word,ROMANTIC,cursive,romantic_c.png,,,,,,
,,,,32224,001,2025-10-19_15h39.38.265,HW_LDT_1,2024.2.4,MacIntel,120.4819277,,,,,,,,,,,,,,,,,,,,,483.9481,484.1454,484.1455,484.645,,,,,,,,,,,,,,0.6233,1,,,,,,,,,,,,,,z,,,,,,,,,,,,,,,,111,0,484.6456,485.2699,z,1,0.6233,,[],[],[],[],[],[],[],485.27,487.2698,487.2698,487.2699,[],[],[],[],[],[],[],,487.2699,487.2699,-0.084093915,-0.342712467,0,0,0,,0,110,110,68,1,1,TL,prosopal,cursive,prosopal_c.png,,,,,,
,,,,32224,001,2025-10-19_15h39.38.265,HW_LDT_1,2024.2.4,MacIntel,120.4819277,,,,,,,,,,,,,,,,,,,,,487.2708,487.4702,487.4702,487.9699,,,,,,,,,,,,,,0.5309,1,,,,,,,,,,,,,,m,,,,,,,,,,,,,,,,112,0,487.9703,488.5029,m,1,0.5309,,[],[],[],[],[],[],[],488.503,490.5032,490.5033,490.5034,[],[],[],[],[],[],[],,490.5034,490.5035,-0.084093915,-0.342712467,0,0,0,,0,111,111,123,1,1,word,MODERATE,print,moderate_p.png,,,,,,
,,,,32224,001,2025-10-19_15h39.38.265,HW_LDT_1,2024.2.4,MacIntel,120.4819277,,,,,,,,,,,,,,,,,,,,,490.5044,490.7023,490.7024,491.2024,,,,,,,,,,,,,,0.9669,0,,,,,,,,,,,,,,z,,,,,,,,,,,,,,,,113,0,491.2028,492.1701,m,0,0.9669,,[],[],[],[],[],[],[],492.1702,494.1693,494.1696,494.1698,[],[],[],[],[],[],[],,494.1699,494.17,-0.084093915,-0.342712467,0,0,0,,0,112,112,67,1,1,TL,pocily,cursive,pocily_c.png,,,,,,
,,,,32224,001,2025-10-19_15h39.38.265,HW_LDT_1,2024.2.4,MacIntel,120.4819277,,,,,,,,,,,,,,,,,,,,,494.1717,494.3706,494.3707,494.8703,,,,,,,,,,,,,,0.7439,1,,,,,,,,,,,,,,z,,,,,,,,,,,,,,,,114,1,494.871,495.6199,z,1,0.7439,,[],[],[],[],[],[],[],495.62,497.6201,497.6201,498.6952,[],[],[],[],[],[],[],z,498.6953,498.6954,-0.084093915,-0.342712467,0,0,0,,0,113,113,23,1,1,RL,potugar,cursive,potugar_c.png,1.0703,,,,,
,,,,32224,001,2025-10-19_15h39.38.265,HW_LDT_1,2024.2.4,MacIntel,120.4819277,,,,,,,,,,,,,,,,,,,,,498.6971,498.8952,498.8953,499.3954,,,,,,,,,,,,,,1.2317,1,,,,,,,,,,,,,,m,,,,,,,,,,,,,,,,115,0,499.3961,500.6285,m,1,1.2317,,[],[],[],[],[],[],[],500.6285,502.6285,502.6285,502.6287,[],[],[],[],[],[],[],,502.6287,502.6288,-0.084093915,-0.342712467,0,0,0,,0,114,114,118,1,1,word,MEDICINE,cursive,medicine_c.png,,,,,,
,,,,32224,001,2025-10-19_15h39.38.265,HW_LDT_1,2024.2.4,MacIntel,120.4819277,,,,,,,,,,,,,,,,,,,,,502.6299,502.8281,502.8282,503.3282,,,,,,,,,,,,,,0.6457,1,,,,,,,,,,,,,,z,,,,,,,,,,,,,,,,116,0,503.3287,503.9783,z,1,0.6457,,[],[],[],[],[],[],[],503.9784,505.9782,505.9782,505.9787,[],[],[],[],[],[],[],,505.9788,505.9791,-0.084093915,-0.342712467,0,0,0,,0,115,115,18,1,1,RL,mishafe,print,mishafe_p.png,,,,,,
,,,,32224,001,2025-10-19_15h39.38.265,HW_LDT_1,2024.2.4,MacIntel,120.4819277,,,,,,,,,,,,,,,,,,,,,505.9808,506.1792,506.1792,506.6781,,,,,,,,,,,,,,0.7441,0,,,,,,,,,,,,,,m,,,,,,,,,,,,,,,,117,1,506.6785,507.4272,z,0,0.7441,,[],[],[],[],[],[],[],507.4273,509.4287,509.4289,510.5285,[],[],[],[],[],[],[],z,510.5285,510.5287,-0.084093915,-0.342712467,0,0,0,,0,116,116,140,1,1,word,RELATIVE,cursive,relative_c.png,1.0942,,,,,
,,,,32224,001,2025-10-19_15h39.38.265,HW_LDT_1,2024.2.4,MacIntel,120.4819277,,,,,,,,,,,,,,,,,,,,,510.5302,510.7281,510.7282,511.2281,,,,,,,,,,,,,,0.6359,1,,,,,,,,,,,,,,m,,,,,,,,,,,,,,,,118,1,511.2284,511.8697,m,1,0.6359,,[],[],[],[],[],[],[],511.8697,513.8707,513.8708,514.753,[],[],[],[],[],[],[],z,514.753,514.753,-0.084093915,-0.342712467,0,0,0,,0,117,117,89,1,1,word,CAPACITY,print,capacity_p.png,0.8757,,,,,
,,,,32224,001,2025-10-19_15h39.38.265,HW_LDT_1,2024.2.4,MacIntel,120.4819277,,,,,,,,,,,,,,,,,,,,,514.7536,514.9524,514.9524,515.4521,,,,,,,,,,,,,,0.9498,0,,,,,,,,,,,,,,m,,,,,,,,,,,,,,,,119,0,515.4525,516.403,z,0,0.9498,,[],[],[],[],[],[],[],516.403,518.4024,518.4024,518.4026,[],[],[],[],[],[],[],,518.4026,518.4026,-0.084093915,-0.342712467,0,0,0,,0,118,118,149,1,1,word,SENATOR,cursive,senator_c.png,,,,,,
,,,,32224,001,2025-10-19_15h39.38.265,HW_LDT_1,2024.2.4,MacIntel,120.4819277,,,,,,,,,,,,,,,,,,,,,518.4036,518.6027,518.6029,519.1023,,,,,,,,,,,,,,0.605,0,,,,,,,,,,,,,,z,,,,,,,,,,,,,,,,120,0,519.1028,519.7109,m,0,0.605,,[],[],[],[],[],[],[],519.7109,521.7121,521.7122,521.7124,[],[],[],[],[],[],[],,521.7125,521.7126,-0.084093915,-0.342712467,0,0,0,,0,119,119,73,1,1,TL,ronamtic,cursive,ronamtic_c.png,,,,,,
,,,,32224,001,2025-10-19_15h39.38.265,HW_LDT_1,2024.2.4,MacIntel,120.4819277,,,,,,,,,,,,,,,,,,,,,521.7143,521.9126,521.9127,522.4114,,,,,,,,,,,,,,0.7006,1,,,,,,,,,,,,,,z,,,,,,,,,,,,,,,,121,0,522.4118,523.1128,z,1,0.7006,,[],[],[],[],[],[],[],523.1129,525.1131,525.1133,525.1135,[],[],[],[],[],[],[],,525.1136,525.1137,-0.084093915,-0.342712467,0,0,0,,0,120,120,64,1,1,TL,orepator,cursive,orepator_c.png,,,,,,
,,,,32224,001,2025-10-19_15h39.38.265,HW_LDT_1,2024.2.4,MacIntel,120.4819277,,,,,,,,,,,,,,,,,,,,,525.1156,525.312,525.312,525.8114,,,,,,,,,,,,,,0.5612,1,,,,,,,,,,,,,,m,,,,,,,,,,,,,,,,122,0,525.8118,526.3782,m,1,0.5612,,[],[],[],[],[],[],[],526.3783,528.3771,528.3772,528.3773,[],[],[],[],[],[],[],,528.3774,528.3774,-0.084093915,-0.342712467,0,0,0,,0,121,121,116,1,1,word,MARGINAL,print,marginal_p.png,,,,,,
,,,,32224,001,2025-10-19_15h39.38.265,HW_LDT_1,2024.2.4,MacIntel,120.4819277,,,,,,,,,,,,,,,,,,,,,528.3784,528.5781,528.5781,529.0789,,,,,,,,,,,,,,0.8842,1,,,,,,,,,,,,,,z,,,,,,,,,,,,,,,,123,0,529.08,529.9698,z,1,0.8842,,[],[],[],[],[],[],[],529.9698,531.9716,531.9717,531.972,[],[],[],[],[],[],[],,531.9721,531.9721,-0.084093915,-0.342712467,0,0,0,,0,122,122,39,1,1,RL,vabifity,cursive,vabifity_c.png,,,,,,
,,,,32224,001,2025-10-19_15h39.38.265,HW_LDT_1,2024.2.4,MacIntel,120.4819277,,,,,,,,,,,,,,,,,,,,,531.9738,532.1698,532.1698,532.6707,,,,,,,,,,,,,,0.5586,1,,,,,,,,,,,,,,m,,,,,,,,,,,,,,,,124,0,532.6715,533.2356,m,1,0.5586,,[],[],[],[],[],[],[],533.2356,535.237,535.2372,535.2374,[],[],[],[],[],[],[],,535.2375,535.2375,-0.084093915,-0.342712467,0,0,0,,0,123,123,154,1,1,word,STORAGE,cursive,storage_c.png,,,,,,
,,,,32224,001,2025-10-19_15h39.38.265,HW_LDT_1,2024.2.4,MacIntel,120.4819277,,,,,,,,,,,,,,,,,,,,,535.2393,535.436,535.436,535.9369,,,,,,,,,,,,,,0.8035,1,,,,,,,,,,,,,,m,,,,,,,,,,,,,,,,125,0,535.9377,536.7447,m,1,0.8035,,[],[],[],[],[],[],[],536.7447,538.7447,538.7448,538.745,[],[],[],[],[],[],[],,538.745,538.745,-0.084093915,-0.342712467,0,0,0,,0,124,124,85,1,1,word,BENEFIT,print,benefit_p.png,,,,,,
,,,,32224,001,2025-10-19_15h39.38.265,HW_LDT_1,2024.2.4,MacIntel,120.4819277,,,,,,,,,,,,,,,,,,,,,538.7457,538.9445,538.9445,539.4447,,,,,,,,,,,,,,0.5676,1,,,,,,,,,,,,,,m,,,,,,,,,,,,,,,,126,0,539.4451,540.0131,m,1,0.5676,,[],[],[],[],[],[],[],540.0131,542.0114,542.0114,542.0115,[],[],[],[],[],[],[],,542.0115,542.0115,-0.084093915,-0.342712467,0,0,0,,0,125,125,113,1,1,word,LITERAL,print,literal_p.png,,,,,,
,,,,32224,001,2025-10-19_15h39.38.265,HW_LDT_1,2024.2.4,MacIntel,120.4819277,,,,,,,,,,,,,,,,,,,,,542.0124,542.2118,542.2119,542.7111,,,,,,,,,,,,,,0.7155,1,,,,,,,,,,,,,,z,,,,,,,,,,,,,,,,127,0,542.712,543.4279,z,1,0.7155,,[],[],[],[],[],[],[],543.428,545.428,545.428,545.4282,[],[],[],[],[],[],[],,545.4282,545.4284,-0.084093915,-0.342712467,0,0,0,,0,126,126,70,1,1,TL,relugar,print,relugar_p.png,,,,,,
,,,,32224,001,2025-10-19_15h39.38.265,HW_LDT_1,2024.2.4,MacIntel,120.4819277,,,,,,,,,,,,,,,,,,,,,545.4292,545.6278,545.6279,546.1281,,,,,,,,,,,,,,0.6047,1,,,,,,,,,,,,,,z,,,,,,,,,,,,,,,,128,0,546.1287,546.7364,z,1,0.6047,,[],[],[],[],[],[],[],546.7364,548.7368,548.737,548.7372,[],[],[],[],[],[],[],,548.7373,548.7374,-0.084093915,-0.342712467,0,0,0,,0,127,127,57,1,1,TL,hetirage,cursive,hetirage_c.png,,,,,,
,,,,32224,001,2025-10-19_15h39.38.265,HW_LDT_1,2024.2.4,MacIntel,120.4819277,,,,,,,,,,,,,,,,,,,,,548.7397,548.9364,548.9364,549.4362,,,,,,,,,,,,,,0.6191,1,,,,,,,,,,,,,,z,,,,,,,,,,,,,,,,129,0,549.4366,550.0604,z,1,0.6191,,[],[],[],[],[],[],[],550.0604,552.0616,552.0616,552.0618,[],[],[],[],[],[],[],,552.0619,552.062,-0.084093915,-0.342712467,0,0,0,,0,128,128,34,1,1,RL,samite,print,samite_p.png,,,,,,
,,,,32224,001,2025-10-19_15h39.38.265,HW_LDT_1,2024.2.4,MacIntel,120.4819277,,,,,,,,,,,,,,,,,,,,,552.0633,552.2608,552.2609,552.7613,,,,,,,,,,,,,,1.4858,1,,,,,,,,,,,,,,z,,,,,,,,,,,,,,,,130,0,552.7619,554.2529,z,1,1.4858,,[],[],[],[],[],[],[],554.253,556.253,556.253,556.2531,[],[],[],[],[],[],[],,556.2531,556.2531,-0.084093915,-0.342712467,0,0,0,,0,129,129,55,1,1,TL,fornute,print,fornute_p.png,,,,,,
,,,,32224,001,2025-10-19_15h39.38.265,HW_LDT_1,2024.2.4,MacIntel,120.4819277,,,,,,,,,,,,,,,,,,,,,556.2542,556.4529,556.453,556.9535,,,,,,,,,,,,,,0.8775,1,,,,,,,,,,,,,,m,,,,,,,,,,,,,,,,131,1,556.9544,557.8361,m,1,0.8775,,[],[],[],[],[],[],[],557.8362,559.8362,559.8363,560.4779,[],[],[],[],[],[],[],z,560.478,560.478,-0.084093915,-0.342712467,0,0,0,,0,130,130,104,1,1,word,DOMINANT,cursive,dominant_c.png,0.6349,,,,,
,,,,32224,001,2025-10-19_15h39.38.265,HW_LDT_1,2024.2.4,MacIntel,120.4819277,,,,,,,,,,,,,,,,,,,,,560.4785,560.6769,560.6769,561.1785,,,,,,,,,,,,,,1.1261,1,,,,,,,,,,,,,,z,,,,,,,,,,,,,,,,132,0,561.1791,562.3113,z,1,1.1261,,[],[],[],[],[],[],[],562.3114,564.3129,564.313,564.3132,[],[],[],[],[],[],[],,564.3132,564.3134,-0.084093915,-0.342712467,0,0,0,,0,131,131,45,1,1,TL,cacapity,print,cacapity_p.png,,,,,,
,,,,32224,001,2025-10-19_15h39.38.265,HW_LDT_1,2024.2.4,MacIntel,120.4819277,,,,,,,,,,,,,,,,,,,,,564.3155,564.5108,564.5108,565.0112,,,,,,,,,,,,,,0.9486,0,,,,,,,,,,,,,,z,,,,,,,,,,,,,,,,133,0,565.0116,565.9612,m,0,0.9486,,[],[],[],[],[],[],[],565.9612,567.9612,567.9612,567.9614,[],[],[],[],[],[],[],,567.9614,567.9615,-0.084093915,-0.342712467,0,0,0,,0,132,132,60,1,1,TL,manire,print,manire_p.png,,,,,,
,,,,32224,001,2025-10-19_15h39.38.265,HW_LDT_1,2024.2.4,MacIntel,120.4819277,,,,,,,,,,,,,,,,,,,,,567.9623,568.1617,568.1617,568.6611,,,,,,,,,,,,,,0.569,0,,,,,,,,,,,,,,m,,,,,,,,,,,,,,,,134,1,568.6615,569.2362,z,0,0.569,,[],[],[],[],[],[],[],569.2363,571.236,571.2361,572.177,[],[],[],[],[],[],[],z,572.1771,572.1772,-0.084093915,-0.342712467,0,0,0,,0,133,133,148,1,1,word,SALINE,print,saline_p.png,0.9378,,,,,
,,,,32224,001,2025-10-19_15h39.38.265,HW_LDT_1,2024.2.4,MacIntel,120.4819277,,,,,,,,,,,,,,,,,,,,,572.178,572.3786,572.3787,572.8785,,,,,,,,,,,,,,1.0171,1,,,,,,,,,,,,,,z,,,,,,,,,,,,,,,,135,0,572.8794,573.9022,z,1,1.0171,,[],[],[],[],[],[],[],573.9022,575.9028,575.9028,575.9029,[],[],[],[],[],[],[],,575.9029,575.9031,-0.084093915,-0.342712467,0,0,0,,0,134,134,16,1,1,RL,marmipal,print,marmipal_p.png,,,,,,
,,,,32224,001,2025-10-19_15h39.38.265,HW_LDT_1,2024.2.4,MacIntel,120.4819277,,,,,,,,,,,,,,,,,,,,,575.9041,576.1027,576.1027,576.6031,,,,,,,,,,,,,,0.8187,0,,,,,,,,,,,,,,m,,,,,,,,,,,,,,,,136,0,576.6035,577.4279,z,0,0.8187,,[],[],[],[],[],[],[],577.428,579.4282,579.4283,579.4286,[],[],[],[],[],[],[],,579.4286,579.4287,-0.084093915,-0.342712467,0,0,0,,0,135,135,103,1,1,word,DISPUTE,cursive,dispute_c.png,,,,,,
,,,,32224,001,2025-10-19_15h39.38.265,HW_LDT_1,2024.2.4,MacIntel,120.4819277,,,,,,,,,,,,,,,,,,,,,579.4303,579.6298,579.6299,580.1281,,,,,,,,,,,,,,0.8255,0,,,,,,,,,,,,,,m,,,,,,,,,,,,,,,,137,0,580.1294,580.9612,z,0,0.8255,,[],[],[],[],[],[],[],580.9614,582.9614,582.9614,582.9617,[],[],[],[],[],[],[],,582.9617,582.9617,-0.084093915,-0.342712467,0,0,0,,0,136,136,102,1,1,word,DENSITY,cursive,density_c.png,,,,,,
,,,,32224,001,2025-10-19_15h39.38.265,HW_LDT_1,2024.2.4,MacIntel,120.4819277,,,,,,,,,,,,,,,,,,,,,582.9639,583.1613,583.1614,583.6611,,,,,,,,,,,,,,0.8782,0,,,,,,,,,,,,,,m,,,,,,,,,,,,,,,,138,0,583.6615,584.5447,z,0,0.8782,,[],[],[],[],[],[],[],584.5448,586.5454,586.5455,586.5458,[],[],[],[],[],[],[],,586.5458,586.546,-0.084093915,-0.342712467,0,0,0,,0,137,137,125,1,1,word,OPERATOR,cursive,operator_c.png,,,,,,
,,,,32224,001,2025-10-19_15h39.38.265,HW_LDT_1,2024.2.4,MacIntel,120.4819277,,,,,,,,,,,,,,,,,,,,,586.5479,586.745,586.7454,587.2438,,,,,,,,,,,,,,0.5463,1,,,,,,,,,,,,,,m,,,,,,,,,,,,,,,,139,0,587.2448,587.7939,m,1,0.5463,,[],[],[],[],[],[],[],587.794,589.7953,589.7954,589.7956,[],[],[],[],[],[],[],,589.7956,589.7957,-0.084093915,-0.342712467,0,0,0,,0,138,138,86,1,1,word,BESIDE,print,beside_p.png,,,,,,
,,,,32224,001,2025-10-19_15h39.38.265,HW_LDT_1,2024.2.4,MacIntel,120.4819277,,,,,,,,,,,,,,,,,,,,,589.7973,589.9949,589.9952,590.4949,,,,,,,,,,,,,,0.8958,0,,,,,,,,,,,,,,m,,,,,,,,,,,,,,,,140,1,590.4956,591.3942,z,0,0.8958,,[],[],[],[],[],[],[],591.3942,593.3943,593.3943,594.2028,[],[],[],[],[],[],[],z,594.2028,594.2028,-0.084093915,-0.342712467,0,0,0,,0,139,139,101,1,1,word,DELICATE,cursive,delicate_c.png,0.8024,,,,,
,,,,32224,001,2025-10-19_15h39.38.265,HW_LDT_1,2024.2.4,MacIntel,120.4819277,,,,,,,,,,,,,,,,,,,,,594.2035,594.4033,594.4034,594.9032,,,,,,,,,,,,,,0.6929,1,,,,,,,,,,,,,,m,,,,,,,,,,,,,,,,141,0,594.9041,595.6018,m,1,0.6929,,[],[],[],[],[],[],[],595.6019,597.6032,597.6032,597.6034,[],[],[],[],[],[],[],,597.6034,597.6035,-0.084093915,-0.342712467,0,0,0,,0,140,140,100,1,1,word,DECADE,print,decade_p.png,,,,,,
,,,,32224,001,2025-10-19_15h39.38.265,HW_LDT_1,2024.2.4,MacIntel,120.4819277,,,,,,,,,,,,,,,,,,,,,597.6047,597.8017,597.8019,598.3031,,,,,,,,,,,,,,0.5865,1,,,,,,,,,,,,,,z,,,,,,,,,,,,,,,,142,0,598.3039,598.8954,z,1,0.5865,,[],[],[],[],[],[],[],598.8956,600.8943,600.8944,600.8946,[],[],[],[],[],[],[],,600.8946,600.8948,-0.084093915,-0.342712467,0,0,0,,0,141,141,43,1,1,TL,bedise,print,bedise_p.png,,,,,,
,,,,32224,001,2025-10-19_15h39.38.265,HW_LDT_1,2024.2.4,MacIntel,120.4819277,,,,,,,,,,,,,,,,,,,,,600.8956,601.0942,601.0943,601.5935,,,,,,,,,,,,,,0.6706,1,,,,,,,,,,,,,,z,,,,,,,,,,,,,,,,143,1,601.5937,602.269,z,1,0.6706,,[],[],[],[],[],[],[],602.269,604.2697,604.2698,605.1379,[],[],[],[],[],[],[],z,605.138,605.1381,-0.084093915,-0.342712467,0,0,0,,0,142,142,30,1,1,RL,relone,print,relone_p.png,0.8675,,,,,
,,,,32224,001,2025-10-19_15h39.38.265,HW_LDT_1,2024.2.4,MacIntel,120.4819277,,,,,,,,,,,,,,,,,,,,,605.1398,605.3368,605.3368,605.8365,,,,,,,,,,,,,,2.2759,1,,,,,,,,,,,,,,m,,,,,,,,,,,,,,,,144,0,605.8373,608.119,m,1,2.2759,,[],[],[],[],[],[],[],608.119,610.1198,610.1198,610.12,[],[],[],[],[],[],[],,610.1201,610.1201,-0.084093915,-0.342712467,0,0,0,,0,143,143,81,1,1,word,ADVISORY,cursive,advisory_c.png,,,,,,
,,,,32224,001,2025-10-19_15h39.38.265,HW_LDT_1,2024.2.4,MacIntel,120.4819277,,,,,,,,,,,,,,,,,,,,,610.1215,610.3195,610.3196,610.8193,,,,,,,,,,,,,,0.7341,1,,,,,,,,,,,,,,m,,,,,,,,,,,,,,,,145,0,610.8197,611.5607,m,1,0.7341,,[],[],[],[],[],[],[],611.5608,613.5604,613.5605,613.5605,[],[],[],[],[],[],[],,613.5606,613.5606,-0.084093915,-0.342712467,0,0,0,,0,144,144,108,1,1,word,FORTUNE,print,fortune_p.png,,,,,,
,,,,32224,001,2025-10-19_15h39.38.265,HW_LDT_1,2024.2.4,MacIntel,120.4819277,,,,,,,,,,,,,,,,,,,,,613.5614,613.7605,613.7607,614.2609,,,,,,,,,,,,,,0.7664,1,,,,,,,,,,,,,,z,,,,,,,,,,,,,,,,146,1,614.2616,615.0285,z,1,0.7664,,[],[],[],[],[],[],[],615.0285,617.0275,617.0275,618.2449,[],[],[],[],[],[],[],z,618.2451,618.2452,-0.084093915,-0.342712467,0,0,0,,0,145,145,29,1,1,RL,refakive,cursive,refakive_c.png,1.2109,,,,,
,,,,32224,001,2025-10-19_15h39.38.265,HW_LDT_1,2024.2.4,MacIntel,120.4819277,,,,,,,,,,,,,,,,,,,,,618.2469,618.4442,618.4442,618.945,,,,,,,,,,,,,,0.6591,1,,,,,,,,,,,,,,z,,,,,,,,,,,,,,,,147,0,618.9457,619.6105,z,1,0.6591,,[],[],[],[],[],[],[],619.6106,621.61,621.61,621.6102,[],[],[],[],[],[],[],,621.6102,621.6102,-0.084093915,-0.342712467,0,0,0,,0,146,146,20,1,1,RL,nunewical,print,nunewical_p.png,,,,,,
,,,,32224,001,2025-10-19_15h39.38.265,HW_LDT_1,2024.2.4,MacIntel,120.4819277,,,,,,,,,,,,,,,,,,,,,621.6111,621.8099,621.81,622.3115,,,,,,,,,,,,,,0.869,0,,,,,,,,,,,,,,z,,,,,,,,,,,,,,,,148,1,622.3123,623.1859,m,0,0.869,,[],[],[],[],[],[],[],623.186,625.1857,625.1857,625.8767,[],[],[],[],[],[],[],z,625.8768,625.8769,-0.084093915,-0.342712467,0,0,0,,0,147,147,76,1,1,TL,stragety,cursive,stragety_c.png,0.6894,,,,,
,,,,32224,001,2025-10-19_15h39.38.265,HW_LDT_1,2024.2.4,MacIntel,120.4819277,,,,,,,,,,,,,,,,,,,,,625.8776,626.077,626.0771,626.5765,,,,,,,,,,,,,,1.0712,1,,,,,,,,,,,,,,z,,,,,,,,,,,,,,,,149,0,626.577,627.6525,z,1,1.0712,,[],[],[],[],[],[],[],627.6525,629.6526,629.6526,629.6528,[],[],[],[],[],[],[],,629.6528,629.6529,-0.084093915,-0.342712467,0,0,0,,0,148,148,24,1,1,RL,probice,print,probice_p.png,,,,,,
,,,,32224,001,2025-10-19_15h39.38.265,HW_LDT_1,2024.2.4,MacIntel,120.4819277,,,,,,,,,,,,,,,,,,,,,629.6536,629.8532,629.8533,630.3531,,,,,,,,,,,,,,0.6368,1,,,,,,,,,,,,,,m,,,,,,,,,,,,,,,,150,1,630.3537,630.9943,m,1,0.6368,,[],[],[],[],[],[],[],630.9943,632.9941,632.9942,633.635,[],[],[],[],[],[],[],z,633.635,633.6351,-0.084093915,-0.342712467,0,0,0,,0,149,149,159,1,1,word,VETERAN,print,veteran_p.png,0.6376,,,,,
,,,,32224,001,2025-10-19_15h39.38.265,HW_LDT_1,2024.2.4,MacIntel,120.4819277,,,,,,,,,,,,,,,,,,,,,633.6359,633.8364,633.8369,634.3354,,,,,,,,,,,,,,0.8121,1,,,,,,,,,,,,,,z,,,,,,,,,,,,,,,,151,0,634.3361,635.1517,z,1,0.8121,,[],[],[],[],[],[],[],635.1518,637.152,637.152,637.1523,[],[],[],[],[],[],[],,637.1524,637.1524,-0.084093915,-0.342712467,0,0,0,,0,150,150,41,1,1,TL,bevoled,print,bevoled_p.png,,,,,,
,,,,32224,001,2025-10-19_15h39.38.265,HW_LDT_1,2024.2.4,MacIntel,120.4819277,,,,,,,,,,,,,,,,,,,,,637.1539,637.3526,637.3527,637.8524,,,,,,,,,,,,,,0.819,1,,,,,,,,,,,,,,m,,,,,,,,,,,,,,,,152,0,637.8529,638.6775,m,1,0.819,,[],[],[],[],[],[],[],638.6777,640.6774,640.6775,640.6777,[],[],[],[],[],[],[],,640.6777,640.6777,-0.084093915,-0.342712467,0,0,0,,0,151,151,129,1,1,word,PARENT,cursive,parent_c.png,,,,,,
,,,,32224,001,2025-10-19_15h39.38.265,HW_LDT_1,2024.2.4,MacIntel,120.4819277,,,,,,,,,,,,,,,,,,,,,640.6785,640.8777,640.8778,641.3775,,,,,,,,,,,,,,0.6578,0,,,,,,,,,,,,,,m,,,,,,,,,,,,,,,,153,0,641.3779,642.0361,z,0,0.6578,,[],[],[],[],[],[],[],642.0361,644.0362,644.0362,644.0365,[],[],[],[],[],[],[],,644.0365,644.0366,-0.084093915,-0.342712467,0,0,0,,0,152,152,119,1,1,word,MEMORY,cursive,memory_c.png,,,,,,
,,,,32224,001,2025-10-19_15h39.38.265,HW_LDT_1,2024.2.4,MacIntel,120.4819277,,,,,,,,,,,,,,,,,,,,,644.0382,644.2361,644.2361,644.7362,,,,,,,,,,,,,,0.6131,1,,,,,,,,,,,,,,m,,,,,,,,,,,,,,,,154,0,644.7367,645.3527,m,1,0.6131,,[],[],[],[],[],[],[],645.3527,647.3522,647.3523,647.3525,[],[],[],[],[],[],[],,647.3526,647.3527,-0.084093915,-0.342712467,0,0,0,,0,153,153,97,1,1,word,COVERAGE,print,coverage_p.png,,,,,,
,,,,32224,001,2025-10-19_15h39.38.265,HW_LDT_1,2024.2.4,MacIntel,120.4819277,,,,,,,,,,,,,,,,,,,,,647.3544,647.552,647.5521,648.0517,,,,,,,,,,,,,,0.6197,0,,,,,,,,,,,,,,m,,,,,,,,,,,,,,,,155,0,648.0521,648.6771,z,0,0.6197,,[],[],[],[],[],[],[],648.6772,650.6775,650.6775,650.6778,[],[],[],[],[],[],[],,650.6778,650.6779,-0.084093915,-0.342712467,0,0,0,,0,154,154,151,1,1,word,SPECIFIC,cursive,specific_c.png,,,,,,
,,,,32224,001,2025-10-19_15h39.38.265,HW_LDT_1,2024.2.4,MacIntel,120.4819277,,,,,,,,,,,,,,,,,,,,,650.6786,650.8782,650.8782,651.3765,,,,,,,,,,,,,,1.1313,1,,,,,,,,,,,,,,z,,,,,,,,,,,,,,,,156,0,651.3769,652.5109,z,1,1.1313,,[],[],[],[],[],[],[],652.5109,654.5108,654.5108,654.5109,[],[],[],[],[],[],[],,654.5109,654.5109,-0.084093915,-0.342712467,0,0,0,,0,155,155,51,1,1,TL,corevage,print,corevage_p.png,,,,,,
,,,,32224,001,2025-10-19_15h39.38.265,HW_LDT_1,2024.2.4,MacIntel,120.4819277,,,,,,,,,,,,,,,,,,,,,654.5114,654.7113,654.7114,655.2112,,,,,,,,,,,,,,0.7263,0,,,,,,,,,,,,,,m,,,,,,,,,,,,,,,,157,0,655.2121,655.9434,z,0,0.7263,,[],[],[],[],[],[],[],655.9436,657.9448,657.9448,657.9451,[],[],[],[],[],[],[],,657.9451,657.9452,-0.084093915,-0.342712467,0,0,0,,0,156,156,110,1,1,word,HERITAGE,cursive,heritage_c.png,,,,,,
,,,,32224,001,2025-10-19_15h39.38.265,HW_LDT_1,2024.2.4,MacIntel,120.4819277,,,,,,,,,,,,,,,,,,,,,657.9471,658.1445,658.1445,658.6431,,,,,,,,,,,,,,1.2895,1,,,,,,,,,,,,,,z,,,,,,,,,,,,,,,,158,0,658.6435,659.9359,z,1,1.2895,,[],[],[],[],[],[],[],659.9359,661.9363,661.9364,661.9366,[],[],[],[],[],[],[],,661.9366,661.9367,-0.084093915,-0.342712467,0,0,0,,0,157,157,4,1,1,RL,carminal,print,carminal_p.png,,,,,,
,,,,32224,001,2025-10-19_15h39.38.265,HW_LDT_1,2024.2.4,MacIntel,120.4819277,,,,,,,,,,,,,,,,,,,,,661.9385,662.1347,662.1348,662.6356,,,,,,,,,,,,,,0.748,1,,,,,,,,,,,,,,z,,,,,,,,,,,,,,,,159,0,662.6364,663.3855,z,1,0.748,,[],[],[],[],[],[],[],663.3856,665.3856,665.3857,665.3857,[],[],[],[],[],[],[],,665.3857,665.3859,-0.084093915,-0.342712467,0,0,0,,0,158,158,52,1,1,TL,decilate,cursive,decilate_c.png,,,,,,
,,,,32224,001,2025-10-19_15h39.38.265,HW_LDT_1,2024.2.4,MacIntel,120.4819277,,,,,,,,,,,,,,,,,,,,,665.3866,665.5861,665.5863,666.0858,,,,,,,,,,,,,,0.7945,1,,,,,,,,,,,,,,z,,,,,,,,,,,,,,,,160,0,666.0865,666.8859,z,1,0.7945,,[],[],[],[],[],[],[],666.8861,668.8865,668.887,668.8874,[],[],[],[],[],[],[],,668.8875,668.8876,-0.084093915,-0.342712467,0,0,0,,0,159,159,44,1,1,TL,cateferia,cursive,cateferia_c.png,,,,,,
,,,,32224,001,2025-10-19_15h39.38.265,HW_LDT_1,2024.2.4,MacIntel,120.4819277,,,,,,,,,,,,,,,,,,,,,,,,,,,,,,,,,,,,,,,,,,,,,,,,,,,,,,,,,,,,,,,,,,,,,,,,,,,,,,,,,,,,,,,,,,,,,,,,,,,,,,,,,,,,,,,,,,,,,,668.8995,673.8859
