counterbalance_lists.group,counterbalance_lists.remaining,get_list.started,get_list.stopped,participant,session,date,expName,psychopyVersion,OS,frameRate,Instructions.started,Instructions.stopped,key_resp.keys,instr_done_touch.x,instr_done_touch.y,instr_done_touch.leftButton,instr_done_touch.midButton,instr_done_touch.rightButton,instr_done_touch.clicked_name,start_instr.thisRepN,start_instr.thisTrialN,start_instr.thisN,start_instr.thisIndex,start_instr.ran,pageN,phase,instruct_text,has_image,instruct_image,key_resp.rt,key_resp.duration,showProgress.started,showProgress.stopped,fix.started,fix.stopped,prac.started,prac.stopped,response.keys,response.corr,response.rt,response.duration,touch_resp.x,touch_resp.y,touch_resp.leftButton,touch_resp.midButton,touch_resp.rightButton,touch_resp.time,touch_resp.clicked_name,rt,corr,feedback.started,feedback.stopped,trials.thisRepN,trials.thisTrialN,trials.thisN,trials.thisIndex,trials.ran,TrialID,StimulusType,Condition,PrimeDuration,Prime,Target,corrAns,Instructions_expt.started,Instructions_expt.stopped,key_resp_3.keys,key_resp_3.rt,key_resp_3.duration,instr_done_touch_3.x,instr_done_touch_3.y,instr_done_touch_3.leftButton,instr_done_touch_3.midButton,instr_done_touch_3.rightButton,instr_experiment.thisRepN,instr_experiment.thisTrialN,instr_experiment.thisN,instr_experiment.thisIndex,instr_experiment.ran,trialID,flag,maintask.started,maintask.stopped,key_resp_2.keys,key_resp_2.corr,key_resp_2.rt,key_resp_2.duration,targ_click.x,targ_click.y,targ_click.leftButton,targ_click.midButton,targ_click.rightButton,targ_click.time,targ_click.clicked_name,ITI.started,ITI.stopped,probe.started,probe.stopped,click_probe.x,click_probe.y,click_probe.leftButton,click_probe.midButton,click_probe.rightButton,click_probe.time,click_probe.clicked_name,key_resp_probe.keys,Break.started,Break.stopped,break_done_touch.x,break_done_touch.y,break_done_touch.leftButton,break_done_touch.midButton,break_done_touch.rightButton,break_done_keyboard.keys,list1_trials.thisRepN,list1_trials.thisTrialN,list1_trials.thisN,list1_trials.thisIndex,list1_trials.ran,list_id,item_type,string,font,stim_file,key_resp_probe.rt,key_resp_probe.duration,break_done_keyboard.rt,break_done_keyboard.duration,End.started,End.stopped
list1,,0.9074,0.9076,32240,001,2025-10-15_20h54.16.241,HW_LDT_1,2024.2.4,Win32,59.88023952,,,,,,,,,,,,,,,,,,,,,,,,,,,,,,,,,,,,,,,,,,,,,,,,,,,,,,,,,,,,,,,,,,,,,,,,,,,,,,,,,,,,,,,,,,,,,,,,,,,,,,,,,,,,,,,,,,,,,,,,
,,,,32240,001,2025-10-15_20h54.16.241,HW_LDT_1,2024.2.4,Win32,59.88023952,0.9307,45.4855,,0.058333362,-0.387962977,1,0,0,instr_done_button,0,0,0,0,1,1,instructions,"INSTRUCTIONS
At the start of each trial, look at the plus sign  (+) in the center of the screen.  This tells you that a trial is about to begin and where to look. Second, the plus sign will disappear and a string of letters will appear. Your task is to determine if the string of letters is a word or not. If the item is a word press the M key (on keyboard)  or touch the word button (phone/tablet).  If the item is not a word,  press the  Z key (on keyboard)  or touch the nonword button (on phone/tablet). The items will be presented for a short time. 
Press the space bar or touch  continue.",0,,,,,,,,,,,,,,,,,,,,,,,,,,,,,,,,,,,,,,,,,,,,,,,,,,,,,,,,,,,,,,,,,,,,,,,,,,,,,,,,,,,,,,,,,,,,,,,,,,,,,,
,,,,32240,001,2025-10-15_20h54.16.241,HW_LDT_1,2024.2.4,Win32,59.88023952,45.4876,53.9745,space,0.887963048,-0.160185213,0,0,0,,0,1,1,1,1,2,instructions,"If your device has a keyboard, press the 'Z' key for nonwords and the 'M' key for words.





Press the space bar or touch the button below to continue.",0,keyboard-example.gif,8.4672,,,,,,,,,,,,,,,,,,,,,,,,,,,,,,,,,,,,,,,,,,,,,,,,,,,,,,,,,,,,,,,,,,,,,,,,,,,,,,,,,,,,,,,,,,,,,,,,,,,,
,,,,32240,001,2025-10-15_20h54.16.241,HW_LDT_1,2024.2.4,Win32,59.88023952,53.9766,56.0683,space,0.887963048,-0.160185213,0,0,0,,0,2,2,2,1,3,instructions,"If you are using a touchscreen only device, use the buttons on the screen. Do not use the mouse.





Press the space bar or touch the button below to continue.",0,touchscreen-example.gif,2.0684,,,,,,,,,,,,,,,,,,,,,,,,,,,,,,,,,,,,,,,,,,,,,,,,,,,,,,,,,,,,,,,,,,,,,,,,,,,,,,,,,,,,,,,,,,,,,,,,,,,,
,,,,32240,001,2025-10-15_20h54.16.241,HW_LDT_1,2024.2.4,Win32,59.88023952,56.0714,62.8888,space,0.887963048,-0.160185213,0,0,0,,0,3,3,3,1,4,instructions,"It is very important that you respond as quickly and accurately as possible, as each letter string will only be on the screen for two seconds. If you do not respond within this time, the message 'Too slow!' will be displayed and the experiment will progress to the next letter string. The first 20 trials will be practice trials and you will receive feedback on your answers. 

Press the space bar or touch the button below to start the practice trials.",0,,6.7989,,,,,,,,,,,,,,,,,,,,,,,,,,,,,,,,,,,,,,,,,,,,,,,,,,,,,,,,,,,,,,,,,,,,,,,,,,,,,,,,,,,,,,,,,,,,,,,,,,,,
,,,,32240,001,2025-10-15_20h54.16.241,HW_LDT_1,2024.2.4,Win32,59.88023952,,,,,,,,,,,,,,,,,,,,,,62.9179,63.0837,63.0841,63.5836,63.5841,66.3011,m,1,2.6903,,[],[],[],[],[],[],[],2.6903,1,66.3016,66.8006,0,0,0,5,1,1006,WORD,UN,33,frenzy,OBTAIN,m,,,,,,,,,,,,,,,,,,,,,,,,,,,,,,,,,,,,,,,,,,,,,,,,,,,,,,,,,,,,,,,,,,
,,,,32240,001,2025-10-15_20h54.16.241,HW_LDT_1,2024.2.4,Win32,59.88023952,,,,,,,,,,,,,,,,,,,,,,66.8033,67.0002,67.0003,67.5001,67.5031,68.6496,m,1,1.134,,[],[],[],[],[],[],[],1.134,1,68.6497,69.1504,0,1,1,7,1,1008,WORD,UN,16,hurdle,VOLUME,m,,,,,,,,,,,,,,,,,,,,,,,,,,,,,,,,,,,,,,,,,,,,,,,,,,,,,,,,,,,,,,,,,,
,,,,32240,001,2025-10-15_20h54.16.241,HW_LDT_1,2024.2.4,Win32,59.88023952,,,,,,,,,,,,,,,,,,,,,,69.1533,69.3499,69.35,69.8503,69.8532,70.9999,z,1,1.1344,,[],[],[],[],[],[],[],1.1344,1,71.0003,71.5003,0,2,2,11,1,1012,NW,"ID",16,rashet,RASHET,z,,,,,,,,,,,,,,,,,,,,,,,,,,,,,,,,,,,,,,,,,,,,,,,,,,,,,,,,,,,,,,,,,,
,,,,32240,001,2025-10-15_20h54.16.241,HW_LDT_1,2024.2.4,Win32,59.88023952,,,,,,,,,,,,,,,,,,,,,,71.503,71.7001,71.7002,72.2,72.2015,73.6334,z,1,1.4103,,[],[],[],[],[],[],[],1.4103,1,73.6335,74.1334,0,3,3,13,1,1014,NW,UN,33,winfer,ROUPET,z,,,,,,,,,,,,,,,,,,,,,,,,,,,,,,,,,,,,,,,,,,,,,,,,,,,,,,,,,,,,,,,,,,
,,,,32240,001,2025-10-15_20h54.16.241,HW_LDT_1,2024.2.4,Win32,59.88023952,,,,,,,,,,,,,,,,,,,,,,74.1355,74.333,74.333,74.8335,74.8352,75.5504,m,1,0.7004,,[],[],[],[],[],[],[],0.7004,1,75.5507,76.0503,0,4,4,3,1,1004,WORD,"ID",16,matrix,MATRIX,m,,,,,,,,,,,,,,,,,,,,,,,,,,,,,,,,,,,,,,,,,,,,,,,,,,,,,,,,,,,,,,,,,,
,,,,32240,001,2025-10-15_20h54.16.241,HW_LDT_1,2024.2.4,Win32,59.88023952,,,,,,,,,,,,,,,,,,,,,,76.0524,76.2502,76.2504,76.7504,76.7513,77.8672,z,1,1.0953,,[],[],[],[],[],[],[],1.0953,1,77.8675,78.3672,0,5,5,14,1,1015,NW,UN,16,miaber,THRALE,z,,,,,,,,,,,,,,,,,,,,,,,,,,,,,,,,,,,,,,,,,,,,,,,,,,,,,,,,,,,,,,,,,,
,,,,32240,001,2025-10-15_20h54.16.241,HW_LDT_1,2024.2.4,Win32,59.88023952,,,,,,,,,,,,,,,,,,,,,,78.3695,78.567,78.5672,79.067,79.0694,80.7007,m,1,1.6126,,[],[],[],[],[],[],[],1.6126,1,80.7009,81.2005,0,6,6,4,1,1005,WORD,UN,33,abound,SQUEAK,m,,,,,,,,,,,,,,,,,,,,,,,,,,,,,,,,,,,,,,,,,,,,,,,,,,,,,,,,,,,,,,,,,,
,,,,32240,001,2025-10-15_20h54.16.241,HW_LDT_1,2024.2.4,Win32,59.88023952,,,,,,,,,,,,,,,,,,,,,,81.2032,81.4005,81.4006,81.9005,81.9016,82.7669,z,1,0.847,,[],[],[],[],[],[],[],0.847,1,82.767,83.2668,0,7,7,8,1,1009,NW,"ID",33,aslert,ASLERT,z,,,,,,,,,,,,,,,,,,,,,,,,,,,,,,,,,,,,,,,,,,,,,,,,,,,,,,,,,,,,,,,,,,
,,,,32240,001,2025-10-15_20h54.16.241,HW_LDT_1,2024.2.4,Win32,59.88023952,,,,,,,,,,,,,,,,,,,,,,83.2688,83.4671,83.4672,83.9673,83.9688,85.917,z,1,1.9291,,[],[],[],[],[],[],[],1.9291,1,85.9171,86.4172,0,8,8,12,1,1013,NW,UN,33,adveil,SPRINY,z,,,,,,,,,,,,,,,,,,,,,,,,,,,,,,,,,,,,,,,,,,,,,,,,,,,,,,,,,,,,,,,,,,
,,,,32240,001,2025-10-15_20h54.16.241,HW_LDT_1,2024.2.4,Win32,59.88023952,,,,,,,,,,,,,,,,,,,,,,86.4189,86.617,86.617,87.1171,87.1181,87.834,m,1,0.6948,,[],[],[],[],[],[],[],0.6948,1,87.8342,88.334,0,9,9,0,1,1001,WORD,"ID",33,utopia,UTOPIA,m,,,,,,,,,,,,,,,,,,,,,,,,,,,,,,,,,,,,,,,,,,,,,,,,,,,,,,,,,,,,,,,,,,
,,,,32240,001,2025-10-15_20h54.16.241,HW_LDT_1,2024.2.4,Win32,59.88023952,,,,,,,,,,,,,,,,,,,,,,88.3355,88.5339,88.534,89.0338,89.0354,89.6336,m,1,0.5861,,[],[],[],[],[],[],[],0.5861,1,89.6339,90.1341,0,10,10,2,1,1003,WORD,"ID",16,almond,ALMOND,m,,,,,,,,,,,,,,,,,,,,,,,,,,,,,,,,,,,,,,,,,,,,,,,,,,,,,,,,,,,,,,,,,,
,,,,32240,001,2025-10-15_20h54.16.241,HW_LDT_1,2024.2.4,Win32,59.88023952,,,,,,,,,,,,,,,,,,,,,,90.1354,90.334,90.3341,90.8338,90.8349,91.8504,z,1,1.004,,[],[],[],[],[],[],[],1.004,1,91.8506,92.3507,0,11,11,15,1,1016,NW,UN,16,mushed,WHAISE,z,,,,,,,,,,,,,,,,,,,,,,,,,,,,,,,,,,,,,,,,,,,,,,,,,,,,,,,,,,,,,,,,,,
,,,,32240,001,2025-10-15_20h54.16.241,HW_LDT_1,2024.2.4,Win32,59.88023952,,,,,,,,,,,,,,,,,,,,,,92.3524,92.5504,92.5505,93.0505,93.0517,93.884,z,1,0.8131,,[],[],[],[],[],[],[],0.8131,1,93.8841,94.3841,0,12,12,10,1,1011,NW,"ID",16,inlade,INLADE,z,,,,,,,,,,,,,,,,,,,,,,,,,,,,,,,,,,,,,,,,,,,,,,,,,,,,,,,,,,,,,,,,,,
,,,,32240,001,2025-10-15_20h54.16.241,HW_LDT_1,2024.2.4,Win32,59.88023952,,,,,,,,,,,,,,,,,,,,,,94.3858,94.584,94.5841,95.0839,95.0856,95.7176,m,1,0.6125,,[],[],[],[],[],[],[],0.6125,1,95.7179,96.2175,0,13,13,1,1,1002,WORD,"ID",33,adjust,ADJUST,m,,,,,,,,,,,,,,,,,,,,,,,,,,,,,,,,,,,,,,,,,,,,,,,,,,,,,,,,,,,,,,,,,,
,,,,32240,001,2025-10-15_20h54.16.241,HW_LDT_1,2024.2.4,Win32,59.88023952,,,,,,,,,,,,,,,,,,,,,,96.219,96.4171,96.4172,96.9171,96.9188,97.6005,z,1,0.6671,,[],[],[],[],[],[],[],0.6671,1,97.6007,98.1012,0,14,14,9,1,1010,NW,"ID",33,fariny,FARINY,z,,,,,,,,,,,,,,,,,,,,,,,,,,,,,,,,,,,,,,,,,,,,,,,,,,,,,,,,,,,,,,,,,,
,,,,32240,001,2025-10-15_20h54.16.241,HW_LDT_1,2024.2.4,Win32,59.88023952,,,,,,,,,,,,,,,,,,,,,,98.1027,98.3003,98.3004,98.8006,98.8015,99.4343,m,1,0.614,,[],[],[],[],[],[],[],0.614,1,99.4346,99.9342,0,15,15,6,1,1007,WORD,UN,16,tropic,ZOMBIE,m,,,,,,,,,,,,,,,,,,,,,,,,,,,,,,,,,,,,,,,,,,,,,,,,,,,,,,,,,,,,,,,,,,
,,,,32240,001,2025-10-15_20h54.16.241,HW_LDT_1,2024.2.4,Win32,59.88023952,,,,,,,,,,,,,,,1,end_of_practice,"You have completed the practice trials. During the experimental trials, you will not receive feedback. On some trials you will be asked to report whether the item you just saw was in cursive or print. 
Before you begin, please ensure that you are in a comfortable and quiet location and will not be disturbed for about 15 minutes, as we cannot use your data if you do not complete all the trials. 
 When you are ready to start the experimental trials, please press space or touch the button below.",,,,,,,,,,,,,,,,,,,,,,,,,,,,,,,,,,,,,,99.9431,118.4187,space,18.4538,,0.887963048,-0.160185213,0,0,0,0,0,0,0,1,,,,,,,,,,,,,,,,,,,,,,,,,,,,,,,,,,,,,,,,,,,,,,,,,,,
,,,,32240,001,2025-10-15_20h54.16.241,HW_LDT_1,2024.2.4,Win32,59.88023952,,,,,,,,,,,,,,,,,,,,,,118.4317,118.6172,118.6172,119.1175,,,,,,,,,,,,,,1.4288,1,,,,,,,,,,,,,,m,,,,,,,,,,,,,,,,1,0,119.1187,120.5521,m,1,1.4288,,[],[],[],[],[],[],[],120.5525,122.5516,122.5519,122.5573,[],[],[],[],[],[],[],,122.5577,122.5622,0.887963048,-0.160185213,0,0,0,,0,0,0,122,1,1,word,MOBILE,cursive,mobile_c.png,,,,,,
,,,,32240,001,2025-10-15_20h54.16.241,HW_LDT_1,2024.2.4,Win32,59.88023952,,,,,,,,,,,,,,,,,,,,,,122.5628,122.751,122.7511,123.2513,,,,,,,,,,,,,,0.9904,1,,,,,,,,,,,,,,m,,,,,,,,,,,,,,,,2,1,123.2521,124.2514,m,1,0.9904,,[],[],[],[],[],[],[],124.2516,126.2511,126.2512,134.4684,[],[],[],[],[],[],[],m,134.4686,134.4687,0.887963048,-0.160185213,0,0,0,,0,1,1,82,1,1,word,AMATEUR,print,amateur_p.png,8.2112,,,,,
,,,,32240,001,2025-10-15_20h54.16.241,HW_LDT_1,2024.2.4,Win32,59.88023952,,,,,,,,,,,,,,,,,,,,,,134.4698,134.6682,134.6682,135.168,,,,,,,,,,,,,,1.4807,1,,,,,,,,,,,,,,m,,,,,,,,,,,,,,,,3,0,135.1688,136.6513,m,1,1.4807,,[],[],[],[],[],[],[],136.6515,138.6515,138.6517,138.6522,[],[],[],[],[],[],[],,138.6522,138.6525,0.887963048,-0.160185213,0,0,0,,0,2,2,145,1,1,word,RESUME,print,resume_p.png,,,,,,
,,,,32240,001,2025-10-15_20h54.16.241,HW_LDT_1,2024.2.4,Win32,59.88023952,,,,,,,,,,,,,,,,,,,,,,138.6544,138.8515,138.8516,139.3514,,,,,,,,,,,,,,1.3706,1,,,,,,,,,,,,,,z,,,,,,,,,,,,,,,,4,0,139.3523,140.7348,z,1,1.3706,,[],[],[],[],[],[],[],140.7348,142.735,142.7352,142.7354,[],[],[],[],[],[],[],,142.7354,142.7356,0.887963048,-0.160185213,0,0,0,,0,3,3,61,1,1,TL,mecidine,cursive,mecidine_c.png,,,,,,
,,,,32240,001,2025-10-15_20h54.16.241,HW_LDT_1,2024.2.4,Win32,59.88023952,,,,,,,,,,,,,,,,,,,,,,142.7376,142.9348,142.9349,143.4349,,,,,,,,,,,,,,1.4787,1,,,,,,,,,,,,,,z,,,,,,,,,,,,,,,,5,0,143.4357,144.9185,z,1,1.4787,,[],[],[],[],[],[],[],144.9187,146.9183,146.9185,146.9188,[],[],[],[],[],[],[],,146.9189,146.9191,0.887963048,-0.160185213,0,0,0,,0,4,4,44,1,1,TL,cateferia,cursive,cateferia_c.png,,,,,,
,,,,32240,001,2025-10-15_20h54.16.241,HW_LDT_1,2024.2.4,Win32,59.88023952,,,,,,,,,,,,,,,,,,,,,,146.9209,147.1184,147.1184,147.6181,,,,,,,,,,,,,,0.9274,1,,,,,,,,,,,,,,z,,,,,,,,,,,,,,,,6,0,147.619,148.5519,z,1,0.9274,,[],[],[],[],[],[],[],148.5521,150.5518,150.5519,150.5526,[],[],[],[],[],[],[],,150.5527,150.5529,0.887963048,-0.160185213,0,0,0,,0,5,5,7,1,1,RL,delahe,print,delahe_p.png,,,,,,
,,,,32240,001,2025-10-15_20h54.16.241,HW_LDT_1,2024.2.4,Win32,59.88023952,,,,,,,,,,,,,,,,,,,,,,150.555,150.7517,150.7518,151.2515,,,,,,,,,,,,,,1.6558,1,,,,,,,,,,,,,,z,,,,,,,,,,,,,,,,7,0,151.2524,152.9186,z,1,1.6558,,[],[],[],[],[],[],[],152.9188,154.9185,154.9187,154.919,[],[],[],[],[],[],[],,154.9191,154.9193,0.887963048,-0.160185213,0,0,0,,0,6,6,77,1,1,TL,tritube,cursive,tritube_c.png,,,,,,
,,,,32240,001,2025-10-15_20h54.16.241,HW_LDT_1,2024.2.4,Win32,59.88023952,,,,,,,,,,,,,,,,,,,,,,154.9203,155.1185,155.1185,155.6181,,,,,,,,,,,,,,1.7446,1,,,,,,,,,,,,,,z,,,,,,,,,,,,,,,,8,0,155.6187,157.3686,z,1,1.7446,,[],[],[],[],[],[],[],157.3689,159.3685,159.3686,159.369,[],[],[],[],[],[],[],,159.3691,159.3692,0.887963048,-0.160185213,0,0,0,,0,7,7,4,1,1,RL,carminal,print,carminal_p.png,,,,,,
,,,,32240,001,2025-10-15_20h54.16.241,HW_LDT_1,2024.2.4,Win32,59.88023952,,,,,,,,,,,,,,,,,,,,,,159.3708,159.5682,159.5683,160.0685,,,,,,,,,,,,,,1.0141,1,,,,,,,,,,,,,,m,,,,,,,,,,,,,,,,9,1,160.0689,161.0851,m,1,1.0141,,[],[],[],[],[],[],[],161.0853,163.0852,163.0853,165.7852,[],[],[],[],[],[],[],z,165.7855,165.7856,0.887963048,-0.160185213,0,0,0,,0,8,8,132,1,1,word,PROPOSAL,cursive,proposal_c.png,2.691,,,,,
,,,,32240,001,2025-10-15_20h54.16.241,HW_LDT_1,2024.2.4,Win32,59.88023952,,,,,,,,,,,,,,,,,,,,,,165.7869,165.9854,165.9855,166.4852,,,,,,,,,,,,,,10.873,0,,,,,,,,,,,,,,m,,,,,,,,,,,,,,,,10,0,166.4858,177.369,z,0,10.873,,[],[],[],[],[],[],[],177.3692,179.3689,179.3691,179.3694,[],[],[],[],[],[],[],,179.3694,179.3696,0.887963048,-0.160185213,0,0,0,,0,9,9,151,1,1,word,SPECIFIC,cursive,specific_c.png,,,,,,
,,,,32240,001,2025-10-15_20h54.16.241,HW_LDT_1,2024.2.4,Win32,59.88023952,,,,,,,,,,,,,,,,,,,,,,179.3712,179.569,179.5691,180.069,,,,,,,,,,,,,,0.9142,1,,,,,,,,,,,,,,m,,,,,,,,,,,,,,,,11,0,180.0696,180.9853,m,1,0.9142,,[],[],[],[],[],[],[],180.9854,182.9857,182.9858,182.9861,[],[],[],[],[],[],[],,182.9862,182.9863,0.887963048,-0.160185213,0,0,0,,0,10,10,158,1,1,word,VELOCITY,print,velocity_p.png,,,,,,
,,,,32240,001,2025-10-15_20h54.16.241,HW_LDT_1,2024.2.4,Win32,59.88023952,,,,,,,,,,,,,,,,,,,,,,182.9879,183.1856,183.1857,183.6855,,,,,,,,,,,,,,1.6397,0,,,,,,,,,,,,,,z,,,,,,,,,,,,,,,,12,0,183.6864,185.3358,m,0,1.6397,,[],[],[],[],[],[],[],185.336,187.3357,187.3358,187.3363,[],[],[],[],[],[],[],,187.3363,187.3365,0.887963048,-0.160185213,0,0,0,,0,11,11,65,1,1,TL,orinigal,cursive,orinigal_c.png,,,,,,
,,,,32240,001,2025-10-15_20h54.16.241,HW_LDT_1,2024.2.4,Win32,59.88023952,,,,,,,,,,,,,,,,,,,,,,187.3381,187.5358,187.536,188.0353,,,,,,,,,,,,,,1.275,1,,,,,,,,,,,,,,z,,,,,,,,,,,,,,,,13,0,188.0356,189.319,z,1,1.275,,[],[],[],[],[],[],[],189.3191,191.3192,191.3193,191.3196,[],[],[],[],[],[],[],,191.3198,191.3199,0.887963048,-0.160185213,0,0,0,,0,12,12,39,1,1,RL,vabifity,cursive,vabifity_c.png,,,,,,
,,,,32240,001,2025-10-15_20h54.16.241,HW_LDT_1,2024.2.4,Win32,59.88023952,,,,,,,,,,,,,,,,,,,,,,191.3219,191.5194,191.5194,192.0192,,,,,,,,,,,,,,4.2158,0,,,,,,,,,,,,,,m,,,,,,,,,,,,,,,,14,0,192.02,196.237,z,0,4.2158,,[],[],[],[],[],[],[],196.237,198.236,198.236,198.2365,[],[],[],[],[],[],[],,198.2365,198.2367,0.887963048,-0.160185213,0,0,0,,0,13,13,103,1,1,word,DISPUTE,cursive,dispute_c.png,,,,,,
,,,,32240,001,2025-10-15_20h54.16.241,HW_LDT_1,2024.2.4,Win32,59.88023952,,,,,,,,,,,,,,,,,,,,,,198.2381,198.4361,198.4361,198.9361,,,,,,,,,,,,,,1.7201,1,,,,,,,,,,,,,,z,,,,,,,,,,,,,,,,15,0,198.9367,200.6695,z,1,1.7201,,[],[],[],[],[],[],[],200.6697,202.6694,202.6695,202.6698,[],[],[],[],[],[],[],,202.6698,202.67,0.887963048,-0.160185213,0,0,0,,0,14,14,68,1,1,TL,prosopal,cursive,prosopal_c.png,,,,,,
,,,,32240,001,2025-10-15_20h54.16.241,HW_LDT_1,2024.2.4,Win32,59.88023952,,,,,,,,,,,,,,,,,,,,,,202.6714,202.8694,202.8695,203.3694,,,,,,,,,,,,,,1.307,1,,,,,,,,,,,,,,m,,,,,,,,,,,,,,,,16,0,203.3701,204.6862,m,1,1.307,,[],[],[],[],[],[],[],204.6863,206.6862,206.6864,206.6867,[],[],[],[],[],[],[],,206.6868,206.6869,0.887963048,-0.160185213,0,0,0,,0,15,15,109,1,1,word,GRATEFUL,print,grateful_p.png,,,,,,
,,,,32240,001,2025-10-15_20h54.16.241,HW_LDT_1,2024.2.4,Win32,59.88023952,,,,,,,,,,,,,,,,,,,,,,206.689,206.8862,206.8862,207.3861,,,,,,,,,,,,,,1.5067,1,,,,,,,,,,,,,,m,,,,,,,,,,,,,,,,17,0,207.3869,208.9027,m,1,1.5067,,[],[],[],[],[],[],[],208.903,210.9028,210.9029,210.9033,[],[],[],[],[],[],[],,210.9033,210.9034,0.887963048,-0.160185213,0,0,0,,0,16,16,135,1,1,word,QUALITY,cursive,quality_c.png,,,,,,
,,,,32240,001,2025-10-15_20h54.16.241,HW_LDT_1,2024.2.4,Win32,59.88023952,,,,,,,,,,,,,,,,,,,,,,210.9051,211.1025,211.1026,211.6027,,,,,,,,,,,,,,2.8452,0,,,,,,,,,,,,,,z,,,,,,,,,,,,,,,,18,0,211.6035,214.4531,m,0,2.8452,,[],[],[],[],[],[],[],214.4534,216.453,216.4531,216.4535,[],[],[],[],[],[],[],,216.4536,216.4537,0.887963048,-0.160185213,0,0,0,,0,17,17,69,1,1,TL,radiply,cursive,radiply_c.png,,,,,,
,,,,32240,001,2025-10-15_20h54.16.241,HW_LDT_1,2024.2.4,Win32,59.88023952,,,,,,,,,,,,,,,,,,,,,,216.455,216.6528,216.6529,217.153,,,,,,,,,,,,,,0.7065,1,,,,,,,,,,,,,,m,,,,,,,,,,,,,,,,19,0,217.1537,217.8699,m,1,0.7065,,[],[],[],[],[],[],[],217.87,219.8698,219.8698,219.8703,[],[],[],[],[],[],[],,219.8704,219.8707,0.887963048,-0.160185213,0,0,0,,0,18,18,116,1,1,word,MARGINAL,print,marginal_p.png,,,,,,
,,,,32240,001,2025-10-15_20h54.16.241,HW_LDT_1,2024.2.4,Win32,59.88023952,,,,,,,,,,,,,,,,,,,,,,219.8725,220.0699,220.0699,220.5697,,,,,,,,,,,,,,0.9735,1,,,,,,,,,,,,,,m,,,,,,,,,,,,,,,,20,0,220.5703,221.5534,m,1,0.9735,,[],[],[],[],[],[],[],221.5535,223.5531,223.5531,223.5535,[],[],[],[],[],[],[],,223.5536,223.5537,0.887963048,-0.160185213,0,0,0,,0,19,19,112,1,1,word,LIBERAL,cursive,liberal_c.png,,,,,,
,,,,32240,001,2025-10-15_20h54.16.241,HW_LDT_1,2024.2.4,Win32,59.88023952,,,,,,,,,,,,,,,,,,,,,,223.5549,223.7533,223.7533,224.2532,,,,,,,,,,,,,,0.9243,1,,,,,,,,,,,,,,m,,,,,,,,,,,,,,,,21,1,224.254,225.1866,m,1,0.9243,,[],[],[],[],[],[],[],225.1867,227.1866,227.1867,228.8701,[],[],[],[],[],[],[],z,228.8702,228.8703,0.887963048,-0.160185213,0,0,0,,0,20,20,147,1,1,word,ROMANTIC,cursive,romantic_c.png,1.6826,,,,,
,,,,32240,001,2025-10-15_20h54.16.241,HW_LDT_1,2024.2.4,Win32,59.88023952,,,,,,,,,,,,,,,,,,,,,,228.8716,229.0697,229.0699,229.5697,,,,,,,,,,,,,,1.1732,1,,,,,,,,,,,,,,z,,,,,,,,,,,,,,,,22,0,229.5705,230.7536,z,1,1.1732,,[],[],[],[],[],[],[],230.7536,232.753,232.7532,232.7536,[],[],[],[],[],[],[],,232.7537,232.7539,0.887963048,-0.160185213,0,0,0,,0,21,21,17,1,1,RL,menowy,cursive,menowy_c.png,,,,,,
,,,,32240,001,2025-10-15_20h54.16.241,HW_LDT_1,2024.2.4,Win32,59.88023952,,,,,,,,,,,,,,,,,,,,,,232.7559,232.9533,232.9534,233.4531,,,,,,,,,,,,,,1.4041,1,,,,,,,,,,,,,,m,,,,,,,,,,,,,,,,23,0,233.4539,234.8701,m,1,1.4041,,[],[],[],[],[],[],[],234.8703,236.8702,236.8703,236.8706,[],[],[],[],[],[],[],,236.8707,236.871,0.887963048,-0.160185213,0,0,0,,0,22,22,141,1,1,word,RELIGION,cursive,religion_c.png,,,,,,
,,,,32240,001,2025-10-15_20h54.16.241,HW_LDT_1,2024.2.4,Win32,59.88023952,,,,,,,,,,,,,,,,,,,,,,236.8725,237.0702,237.0702,237.5702,,,,,,,,,,,,,,0.6641,1,,,,,,,,,,,,,,m,,,,,,,,,,,,,,,,24,0,237.5709,238.2366,m,1,0.6641,,[],[],[],[],[],[],[],238.2366,240.2367,240.2368,240.2371,[],[],[],[],[],[],[],,240.2373,240.2374,0.887963048,-0.160185213,0,0,0,,0,23,23,91,1,1,word,CARDINAL,print,cardinal_p.png,,,,,,
,,,,32240,001,2025-10-15_20h54.16.241,HW_LDT_1,2024.2.4,Win32,59.88023952,,,,,,,,,,,,,,,,,,,,,,240.2394,240.4368,240.4369,240.9369,,,,,,,,,,,,,,1.1569,1,,,,,,,,,,,,,,z,,,,,,,,,,,,,,,,25,1,240.9376,242.1035,z,1,1.1569,,[],[],[],[],[],[],[],242.1036,244.1032,244.1033,247.7534,[],[],[],[],[],[],[],m,247.7536,247.7538,0.887963048,-0.160185213,0,0,0,,0,24,24,41,1,1,TL,bevoled,print,bevoled_p.png,3.6473,,,,,
,,,,32240,001,2025-10-15_20h54.16.241,HW_LDT_1,2024.2.4,Win32,59.88023952,,,,,,,,,,,,,,,,,,,,,,247.755,247.9537,247.9538,248.4536,,,,,,,,,,,,,,1.4057,1,,,,,,,,,,,,,,z,,,,,,,,,,,,,,,,26,1,248.4545,249.8706,z,1,1.4057,,[],[],[],[],[],[],[],249.8707,251.8703,251.8704,254.0369,[],[],[],[],[],[],[],m,254.037,254.0371,0.887963048,-0.160185213,0,0,0,,0,25,25,11,1,1,RL,elacodate,print,elacodate_p.png,2.1584,,,,,
,,,,32240,001,2025-10-15_20h54.16.241,HW_LDT_1,2024.2.4,Win32,59.88023952,,,,,,,,,,,,,,,,,,,,,,254.0381,254.2371,254.2371,254.737,,,,,,,,,,,,,,0.9066,1,,,,,,,,,,,,,,m,,,,,,,,,,,,,,,,27,0,254.7376,255.6539,m,1,0.9066,,[],[],[],[],[],[],[],255.6541,257.6536,257.6537,257.6542,[],[],[],[],[],[],[],,257.6542,257.6545,0.887963048,-0.160185213,0,0,0,,0,26,26,126,1,1,word,OPTIMAL,print,optimal_p.png,,,,,,
,,,,32240,001,2025-10-15_20h54.16.241,HW_LDT_1,2024.2.4,Win32,59.88023952,,,,,,,,,,,,,,,,,,,,,,257.6564,257.8536,257.8536,258.3534,,,,,,,,,,,,,,0.7296,1,,,,,,,,,,,,,,m,,,,,,,,,,,,,,,,28,1,258.3538,259.087,m,1,0.7296,,[],[],[],[],[],[],[],259.0871,261.087,261.0871,263.087,[],[],[],[],[],[],[],m,263.087,263.0871,0.887963048,-0.160185213,0,0,0,,0,27,27,124,1,1,word,NUMERICAL,print,numerical_p.png,1.9913,,,,,
,,,,32240,001,2025-10-15_20h54.16.241,HW_LDT_1,2024.2.4,Win32,59.88023952,,,,,,,,,,,,,,,,,,,,,,263.0879,263.2867,263.2867,263.7867,,,,,,,,,,,,,,1.7383,1,,,,,,,,,,,,,,z,,,,,,,,,,,,,,,,29,0,263.7871,265.537,z,1,1.7383,,[],[],[],[],[],[],[],265.5372,267.5368,267.5368,267.5369,[],[],[],[],[],[],[],,267.5369,267.537,0.887963048,-0.160185213,0,0,0,,0,28,28,73,1,1,TL,ronamtic,cursive,ronamtic_c.png,,,,,,
,,,,32240,001,2025-10-15_20h54.16.241,HW_LDT_1,2024.2.4,Win32,59.88023952,,,,,,,,,,,,,,,,,,,,,,267.5376,267.7375,267.7376,268.2371,,,,,,,,,,,,,,0.7914,1,,,,,,,,,,,,,,m,,,,,,,,,,,,,,,,30,0,268.2377,269.0374,m,1,0.7914,,[],[],[],[],[],[],[],269.0376,271.0369,271.0369,271.037,[],[],[],[],[],[],[],,271.037,271.0371,0.887963048,-0.160185213,0,0,0,,0,29,29,115,1,1,word,LOGICAL,cursive,logical_c.png,,,,,,
,,,,32240,001,2025-10-15_20h54.16.241,HW_LDT_1,2024.2.4,Win32,59.88023952,,,,,,,,,,,,,,,,,,,,,,271.038,271.2371,271.2373,271.7371,,,,,,,,,,,,,,0.9476,1,,,,,,,,,,,,,,m,,,,,,,,,,,,,,,,31,0,271.7376,272.6871,m,1,0.9476,,[],[],[],[],[],[],[],272.6872,274.6874,274.6874,274.6878,[],[],[],[],[],[],[],,274.688,274.688,0.887963048,-0.160185213,0,0,0,,0,30,30,152,1,1,word,SPECIMEN,cursive,specimen_c.png,,,,,,
,,,,32240,001,2025-10-15_20h54.16.241,HW_LDT_1,2024.2.4,Win32,59.88023952,,,,,,,,,,,,,,,,,,,,,,274.6902,274.8873,274.8873,275.3873,,,,,,,,,,,,,,0.9456,1,,,,,,,,,,,,,,z,,,,,,,,,,,,,,,,32,0,275.3881,276.3375,z,1,0.9456,,[],[],[],[],[],[],[],276.3377,278.3375,278.3375,278.3379,[],[],[],[],[],[],[],,278.338,278.338,0.887963048,-0.160185213,0,0,0,,0,31,31,3,1,1,RL,casena,cursive,casena_c.png,,,,,,
,,,,32240,001,2025-10-15_20h54.16.241,HW_LDT_1,2024.2.4,Win32,59.88023952,,,,,,,,,,,,,,,,,,,,,,278.3394,278.5378,278.5379,279.0376,,,,,,,,,,,,,,0.898,1,,,,,,,,,,,,,,m,,,,,,,,,,,,,,,,33,0,279.0384,279.9376,m,1,0.898,,[],[],[],[],[],[],[],279.9377,281.9373,281.9375,281.9377,[],[],[],[],[],[],[],,281.9378,281.9379,0.887963048,-0.160185213,0,0,0,,0,32,32,159,1,1,word,VETERAN,print,veteran_p.png,,,,,,
,,,,32240,001,2025-10-15_20h54.16.241,HW_LDT_1,2024.2.4,Win32,59.88023952,,,,,,,,,,,,,,,,,,,,,,281.9397,282.1373,282.1374,282.6374,,,,,,,,,,,,,,1.2941,1,,,,,,,,,,,,,,m,,,,,,,,,,,,,,,,34,0,282.6378,283.9373,m,1,1.2941,,[],[],[],[],[],[],[],283.9373,285.938,285.9381,285.9384,[],[],[],[],[],[],[],,285.9385,285.9385,0.887963048,-0.160185213,0,0,0,,0,33,33,81,1,1,word,ADVISORY,cursive,advisory_c.png,,,,,,
,,,,32240,001,2025-10-15_20h54.16.241,HW_LDT_1,2024.2.4,Win32,59.88023952,,,,,,,,,,,,,,,,,,,,,,285.9398,286.1375,286.1375,286.6374,,,,,,,,,,,,,,0.9293,1,,,,,,,,,,,,,,m,,,,,,,,,,,,,,,,35,0,286.6376,287.5713,m,1,0.9293,,[],[],[],[],[],[],[],287.5714,289.5707,289.5708,289.5709,[],[],[],[],[],[],[],,289.571,289.5711,0.887963048,-0.160185213,0,0,0,,0,34,34,137,1,1,word,RAPIDLY,cursive,rapidly_c.png,,,,,,
,,,,32240,001,2025-10-15_20h54.16.241,HW_LDT_1,2024.2.4,Win32,59.88023952,,,,,,,,,,,,,,,,,,,,,,289.5726,289.7707,289.7707,290.2708,,,,,,,,,,,,,,1.1214,1,,,,,,,,,,,,,,z,,,,,,,,,,,,,,,,36,0,290.2713,291.4045,z,1,1.1214,,[],[],[],[],[],[],[],291.4047,293.4044,293.4045,293.4046,[],[],[],[],[],[],[],,293.4048,293.4049,0.887963048,-0.160185213,0,0,0,,0,35,35,62,1,1,TL,mitilary,print,mitilary_p.png,,,,,,
,,,,32240,001,2025-10-15_20h54.16.241,HW_LDT_1,2024.2.4,Win32,59.88023952,,,,,,,,,,,,,,,,,,,,,,293.406,293.6045,293.6045,294.1046,,,,,,,,,,,,,,0.7894,0,,,,,,,,,,,,,,m,,,,,,,,,,,,,,,,37,0,294.1053,294.9046,z,0,0.7894,,[],[],[],[],[],[],[],294.9048,296.9045,296.9046,296.9049,[],[],[],[],[],[],[],,296.905,296.9052,0.887963048,-0.160185213,0,0,0,,0,36,36,146,1,1,word,RETIRE,cursive,retire_c.png,,,,,,
,,,,32240,001,2025-10-15_20h54.16.241,HW_LDT_1,2024.2.4,Win32,59.88023952,,,,,,,,,,,,,,,,,,,,,,296.9073,297.1046,297.1046,297.6043,,,,,,,,,,,,,,0.9058,1,,,,,,,,,,,,,,m,,,,,,,,,,,,,,,,38,0,297.605,298.5209,m,1,0.9058,,[],[],[],[],[],[],[],298.521,300.5214,300.5214,300.5217,[],[],[],[],[],[],[],,300.5219,300.522,0.887963048,-0.160185213,0,0,0,,0,37,37,138,1,1,word,REFUSAL,print,refusal_p.png,,,,,,
,,,,32240,001,2025-10-15_20h54.16.241,HW_LDT_1,2024.2.4,Win32,59.88023952,,,,,,,,,,,,,,,,,,,,,,300.5234,300.7211,300.7212,301.2212,,,,,,,,,,,,,,1.1059,1,,,,,,,,,,,,,,m,,,,,,,,,,,,,,,,39,0,301.2219,302.3381,m,1,1.1059,,[],[],[],[],[],[],[],302.3382,304.338,304.3381,304.3384,[],[],[],[],[],[],[],,304.3385,304.3386,0.887963048,-0.160185213,0,0,0,,0,38,38,92,1,1,word,CATEGORY,print,category_p.png,,,,,,
,,,,32240,001,2025-10-15_20h54.16.241,HW_LDT_1,2024.2.4,Win32,59.88023952,,,,,,,,,,,,,,,,,,,,,,304.34,304.5378,304.5379,305.0381,,,,,,,,,,,,,,0.6887,1,,,,,,,,,,,,,,z,,,,,,,,,,,,,,,,40,0,305.0387,305.7381,z,1,0.6887,,[],[],[],[],[],[],[],305.7383,307.7379,307.7381,307.7383,[],[],[],[],[],[],[],,307.7383,307.7385,0.887963048,-0.160185213,0,0,0,,0,39,39,12,1,1,RL,ebiwent,print,ebiwent_p.png,,,,,,
,,,,32240,001,2025-10-15_20h54.16.241,HW_LDT_1,2024.2.4,Win32,59.88023952,,,,,,,,,,,,,,,,,,,,,,307.7395,307.9379,307.9379,308.4381,,,,,,,,,,,,,,0.804,1,,,,,,,,,,,,,,z,,,,,,,,,,,,,,,,41,1,308.4391,309.2549,z,1,0.804,,[],[],[],[],[],[],[],309.255,311.2548,311.2549,313.3046,[],[],[],[],[],[],[],m,313.3046,313.3048,0.887963048,-0.160185213,0,0,0,,0,40,40,22,1,1,RL,patisic,print,patisic_p.png,2.048,,,,,
,,,,32240,001,2025-10-15_20h54.16.241,HW_LDT_1,2024.2.4,Win32,59.88023952,,,,,,,,,,,,,,,,,,,,,,313.3066,313.5049,313.505,314.0049,,,,,,,,,,,,,,1.0219,1,,,,,,,,,,,,,,z,,,,,,,,,,,,,,,,42,1,314.0057,315.0385,z,1,1.0219,,[],[],[],[],[],[],[],315.0386,317.0383,317.0383,318.2052,[],[],[],[],[],[],[],z,318.2053,318.2055,0.887963048,-0.160185213,0,0,0,,0,41,41,57,1,1,TL,hetirage,cursive,hetirage_c.png,1.155,,,,,
,,,,32240,001,2025-10-15_20h54.16.241,HW_LDT_1,2024.2.4,Win32,59.88023952,,,,,,,,,,,,,,,,,,,,,,318.2069,318.405,318.405,318.9048,,,,,,,,,,,,,,1.5924,1,,,,,,,,,,,,,,m,,,,,,,,,,,,,,,,43,0,318.9055,320.5052,m,1,1.5924,,[],[],[],[],[],[],[],320.5053,322.5051,322.5052,322.5056,[],[],[],[],[],[],[],,322.5057,322.5058,0.887963048,-0.160185213,0,0,0,,0,42,42,93,1,1,word,CEREMONY,cursive,ceremony_c.png,,,,,,
,,,,32240,001,2025-10-15_20h54.16.241,HW_LDT_1,2024.2.4,Win32,59.88023952,,,,,,,,,,,,,,,,,,,,,,322.5079,322.7051,322.7052,323.2051,,,,,,,,,,,,,,1.241,1,,,,,,,,,,,,,,z,,,,,,,,,,,,,,,,44,0,323.2061,324.4553,z,1,1.241,,[],[],[],[],[],[],[],324.4554,326.455,326.4551,326.4554,[],[],[],[],[],[],[],,326.4555,326.4556,0.887963048,-0.160185213,0,0,0,,0,43,43,45,1,1,TL,cacapity,print,cacapity_p.png,,,,,,
,,,,32240,001,2025-10-15_20h54.16.241,HW_LDT_1,2024.2.4,Win32,59.88023952,,,,,,,,,,,,,,,,,,,,,,326.4569,326.6551,326.6551,327.1551,,,,,,,,,,,,,,1.2878,1,,,,,,,,,,,,,,z,,,,,,,,,,,,,,,,45,0,327.1558,328.4553,z,1,1.2878,,[],[],[],[],[],[],[],328.4554,330.4554,330.4555,330.4559,[],[],[],[],[],[],[],,330.456,330.4562,0.887963048,-0.160185213,0,0,0,,0,44,44,40,1,1,TL,atameur,print,atameur_p.png,,,,,,
,,,,32240,001,2025-10-15_20h54.16.241,HW_LDT_1,2024.2.4,Win32,59.88023952,,,,,,,,,,,,,,,,,,,,,,330.4577,330.6552,330.6552,331.1552,,,,,,,,,,,,,,0.7951,1,,,,,,,,,,,,,,m,,,,,,,,,,,,,,,,46,0,331.1559,331.9554,m,1,0.7951,,[],[],[],[],[],[],[],331.9555,333.9552,333.9552,333.9555,[],[],[],[],[],[],[],,333.9556,333.9559,0.887963048,-0.160185213,0,0,0,,0,45,45,139,1,1,word,REGULAR,print,regular_p.png,,,,,,
,,,,32240,001,2025-10-15_20h54.16.241,HW_LDT_1,2024.2.4,Win32,59.88023952,,,,,,,,,,,,,,,,,,,,,,333.9578,334.1554,334.1554,334.655,,,,,,,,,,,,,,0.691,1,,,,,,,,,,,,,,m,,,,,,,,,,,,,,,,47,0,334.6556,335.3555,m,1,0.691,,[],[],[],[],[],[],[],335.3556,337.3552,337.3553,337.3556,[],[],[],[],[],[],[],,337.3558,337.3559,0.887963048,-0.160185213,0,0,0,,0,46,46,117,1,1,word,MARINE,print,marine_p.png,,,,,,
,,,,32240,001,2025-10-15_20h54.16.241,HW_LDT_1,2024.2.4,Win32,59.88023952,,,,,,,,,,,,,,,,,,,,,,337.3576,337.555,337.5551,338.0554,,,,,,,,,,,,,,0.8784,1,,,,,,,,,,,,,,m,,,,,,,,,,,,,,,,48,0,338.0562,338.9388,m,1,0.8784,,[],[],[],[],[],[],[],338.939,340.9388,340.9389,340.9393,[],[],[],[],[],[],[],,340.9394,340.9395,0.887963048,-0.160185213,0,0,0,,0,47,47,108,1,1,word,FORTUNE,print,fortune_p.png,,,,,,
,,,,32240,001,2025-10-15_20h54.16.241,HW_LDT_1,2024.2.4,Win32,59.88023952,,,,,,,,,,,,,,,,,,,,,,340.9407,341.1388,341.1388,341.6387,,,,,,,,,,,,,,1.506,1,,,,,,,,,,,,,,m,,,,,,,,,,,,,,,,49,0,341.6395,343.1553,m,1,1.506,,[],[],[],[],[],[],[],343.1553,345.1556,345.1559,345.1562,[],[],[],[],[],[],[],,345.1562,345.1563,0.887963048,-0.160185213,0,0,0,,0,48,48,134,1,1,word,QUALIFY,cursive,qualify_c.png,,,,,,
,,,,32240,001,2025-10-15_20h54.16.241,HW_LDT_1,2024.2.4,Win32,59.88023952,,,,,,,,,,,,,,,,,,,,,,345.1579,345.3556,345.3556,345.8556,,,,,,,,,,,,,,1.0801,1,,,,,,,,,,,,,,m,,,,,,,,,,,,,,,,50,0,345.8564,346.9386,m,1,1.0801,,[],[],[],[],[],[],[],346.9389,348.9387,348.9388,348.9391,[],[],[],[],[],[],[],,348.9392,348.9393,0.887963048,-0.160185213,0,0,0,,0,49,49,142,1,1,word,REMOTE,print,remote_p.png,,,,,,
,,,,32240,001,2025-10-15_20h54.16.241,HW_LDT_1,2024.2.4,Win32,59.88023952,,,,,,,,,,,,,,,,,,,,,,348.9404,349.1389,349.139,349.6387,,,,,,,,,,,,,,1.4381,1,,,,,,,,,,,,,,z,,,,,,,,,,,,,,,,51,0,349.6392,351.0891,z,1,1.4381,,[],[],[],[],[],[],[],351.0892,353.0886,353.0887,353.0888,[],[],[],[],[],[],[],,353.0888,353.0889,0.887963048,-0.160185213,0,0,0,,0,50,50,38,1,1,RL,stopave,cursive,stopave_c.png,,,,,,
,,,,32240,001,2025-10-15_20h54.16.241,HW_LDT_1,2024.2.4,Win32,59.88023952,,,,,,,,,,,,,,,,,,,,,,353.0898,353.289,353.289,353.789,,,,,,,,,,,,,,0.7452,1,,,,,,,,,,,,,,m,,,,,,,,,,,,,,,,52,1,353.7897,354.5392,m,1,0.7452,,[],[],[],[],[],[],[],354.5393,356.5397,356.5398,357.7724,[],[],[],[],[],[],[],m,357.7726,357.7727,0.887963048,-0.160185213,0,0,0,,0,51,51,106,1,1,word,ELABORATE,print,elaborate_p.png,1.2263,,,,,
,,,,32240,001,2025-10-15_20h54.16.241,HW_LDT_1,2024.2.4,Win32,59.88023952,,,,,,,,,,,,,,,,,,,,,,357.7739,357.9734,357.9734,358.4721,,,,,,,,,,,,,,1.406,1,,,,,,,,,,,,,,z,,,,,,,,,,,,,,,,53,0,358.4728,359.8892,z,1,1.406,,[],[],[],[],[],[],[],359.8893,361.889,361.8891,361.8894,[],[],[],[],[],[],[],,361.8894,361.8895,0.887963048,-0.160185213,0,0,0,,0,52,52,20,1,1,RL,nunewical,print,nunewical_p.png,,,,,,
,,,,32240,001,2025-10-15_20h54.16.241,HW_LDT_1,2024.2.4,Win32,59.88023952,,,,,,,,,,,,,,,,,,,,,,361.8907,362.0892,362.0892,362.5892,,,,,,,,,,,,,,1.1104,1,,,,,,,,,,,,,,z,,,,,,,,,,,,,,,,54,0,362.5898,363.7061,z,1,1.1104,,[],[],[],[],[],[],[],363.7063,365.706,365.706,365.7064,[],[],[],[],[],[],[],,365.7064,365.7066,0.887963048,-0.160185213,0,0,0,,0,53,53,76,1,1,TL,stragety,cursive,stragety_c.png,,,,,,
,,,,32240,001,2025-10-15_20h54.16.241,HW_LDT_1,2024.2.4,Win32,59.88023952,,,,,,,,,,,,,,,,,,,,,,365.7081,365.9058,365.9059,366.4059,,,,,,,,,,,,,,1.9114,1,,,,,,,,,,,,,,z,,,,,,,,,,,,,,,,55,1,366.4065,368.3226,z,1,1.9114,,[],[],[],[],[],[],[],368.3227,370.3226,370.3227,373.1228,[],[],[],[],[],[],[],z,373.1229,373.1231,0.887963048,-0.160185213,0,0,0,,0,54,54,26,1,1,RL,quafidy,cursive,quafidy_c.png,2.793,,,,,
,,,,32240,001,2025-10-15_20h54.16.241,HW_LDT_1,2024.2.4,Win32,59.88023952,,,,,,,,,,,,,,,,,,,,,,373.1242,373.3228,373.3228,373.8227,,,,,,,,,,,,,,1.9728,1,,,,,,,,,,,,,,z,,,,,,,,,,,,,,,,56,1,373.8232,375.8059,z,1,1.9728,,[],[],[],[],[],[],[],375.806,377.8062,377.8062,379.3396,[],[],[],[],[],[],[],z,379.3398,379.34,0.887963048,-0.160185213,0,0,0,,0,55,55,31,1,1,RL,reconal,cursive,reconal_c.png,1.5248,,,,,
,,,,32240,001,2025-10-15_20h54.16.241,HW_LDT_1,2024.2.4,Win32,59.88023952,,,,,,,,,,,,,,,,,,,,,,379.3416,379.5395,379.5395,380.0392,,,,,,,,,,,,,,1.2467,1,,,,,,,,,,,,,,m,,,,,,,,,,,,,,,,57,0,380.04,381.2892,m,1,1.2467,,[],[],[],[],[],[],[],381.2894,383.2897,383.2898,383.2901,[],[],[],[],[],[],[],,383.2901,383.2903,0.887963048,-0.160185213,0,0,0,,0,56,56,100,1,1,word,DECADE,print,decade_p.png,,,,,,
,,,,32240,001,2025-10-15_20h54.16.241,HW_LDT_1,2024.2.4,Win32,59.88023952,,,,,,,,,,,,,,,,,,,,,,383.2921,383.4896,383.4897,383.9896,,,,,,,,,,,,,,1.7274,1,,,,,,,,,,,,,,z,,,,,,,,,,,,,,,,58,0,383.9903,385.7231,z,1,1.7274,,[],[],[],[],[],[],[],385.7232,387.7231,387.7232,387.7235,[],[],[],[],[],[],[],,387.7237,387.7237,0.887963048,-0.160185213,0,0,0,,0,57,57,10,1,1,RL,efibor,cursive,efibor_c.png,,,,,,
,,,,32240,001,2025-10-15_20h54.16.241,HW_LDT_1,2024.2.4,Win32,59.88023952,,,,,,,,,,,,,,,,,,,,,,387.7259,387.9233,387.9234,388.4229,,,,,,,,,,,,,,0.6949,1,,,,,,,,,,,,,,m,,,,,,,,,,,,,,,,59,0,388.4239,389.1232,m,1,0.6949,,[],[],[],[],[],[],[],389.1233,391.1229,391.1229,391.1232,[],[],[],[],[],[],[],,391.1233,391.1234,0.887963048,-0.160185213,0,0,0,,0,58,58,121,1,1,word,MISTAKE,print,mistake_p.png,,,,,,
,,,,32240,001,2025-10-15_20h54.16.241,HW_LDT_1,2024.2.4,Win32,59.88023952,,,,,,,,,,,,,,,,,,,,,,391.1247,391.3229,391.3229,391.8232,,,,,,,,,,,,,,0.8486,0,,,,,,,,,,,,,,z,,,,,,,,,,,,,,,,60,0,391.8238,392.6734,m,0,0.8486,,[],[],[],[],[],[],[],392.6736,394.6731,394.6732,394.6735,[],[],[],[],[],[],[],,394.6736,394.6737,0.887963048,-0.160185213,0,0,0,,0,59,59,56,1,1,TL,grafetul,print,grafetul_p.png,,,,,,
,,,,32240,001,2025-10-15_20h54.16.241,HW_LDT_1,2024.2.4,Win32,59.88023952,,,,,,,,,,,,,,,,,,,,,,394.6748,394.8732,394.8732,395.3732,,,,,,,,,,,,,,1.8614,1,,,,,,,,,,,,,,z,,,,,,,,,,,,,,,,61,0,395.3739,397.24,z,1,1.8614,,[],[],[],[],[],[],[],397.2401,399.24,399.24,399.2403,[],[],[],[],[],[],[],,399.2403,399.2404,0.887963048,-0.160185213,0,0,0,,0,60,60,49,1,1,TL,clicinal,cursive,clicinal_c.png,,,,,,
,,,,32240,001,2025-10-15_20h54.16.241,HW_LDT_1,2024.2.4,Win32,59.88023952,,,,,,,,,,,,,,,,,,,,,,399.2418,399.4399,399.44,399.9397,,,,,,,,,,,,,,1.8545,1,,,,,,,,,,,,,,z,,,,,,,,,,,,,,,,62,0,399.9405,401.8067,z,1,1.8545,,[],[],[],[],[],[],[],401.8069,403.8067,403.8068,403.8071,[],[],[],[],[],[],[],,403.8072,403.8073,0.887963048,-0.160185213,0,0,0,,0,61,61,1,1,1,RL,adnicory,cursive,adnicory_c.png,,,,,,
,,,,32240,001,2025-10-15_20h54.16.241,HW_LDT_1,2024.2.4,Win32,59.88023952,,,,,,,,,,,,,,,,,,,,,,403.8086,404.0067,404.0067,404.5066,,,,,,,,,,,,,,2.731,1,,,,,,,,,,,,,,m,,,,,,,,,,,,,,,,63,0,404.5073,407.2398,m,1,2.731,,[],[],[],[],[],[],[],407.2399,409.2401,409.2401,409.2404,[],[],[],[],[],[],[],,409.2404,409.2406,0.887963048,-0.160185213,0,0,0,,0,62,62,127,1,1,word,ORIGINAL,cursive,original_c.png,,,,,,
,,,,32240,001,2025-10-15_20h54.16.241,HW_LDT_1,2024.2.4,Win32,59.88023952,,,,,,,,,,,,,,,,,,,,,,409.2419,409.4402,409.4404,409.9402,,,,,,,,,,,,,,2.394,1,,,,,,,,,,,,,,z,,,,,,,,,,,,,,,,64,0,409.9408,412.3403,z,1,2.394,,[],[],[],[],[],[],[],412.3403,414.3401,414.3401,414.3405,[],[],[],[],[],[],[],,414.3406,414.3407,0.887963048,-0.160185213,0,0,0,,0,63,63,58,1,1,TL,incidate,cursive,incidate_c.png,,,,,,
,,,,32240,001,2025-10-15_20h54.16.241,HW_LDT_1,2024.2.4,Win32,59.88023952,,,,,,,,,,,,,,,,,,,,,,414.342,414.5399,414.5401,415.0403,,,,,,,,,,,,,,1.0705,1,,,,,,,,,,,,,,m,,,,,,,,,,,,,,,,65,0,415.0409,416.1236,m,1,1.0705,,[],[],[],[],[],[],[],416.1237,418.1237,418.1237,418.1241,[],[],[],[],[],[],[],,418.1241,418.1242,0.887963048,-0.160185213,0,0,0,,0,64,64,136,1,1,word,RADICAL,print,radical_p.png,,,,,,
,,,,32240,001,2025-10-15_20h54.16.241,HW_LDT_1,2024.2.4,Win32,59.88023952,,,,,,,,,,,,,,,,,,,,,,418.1257,418.3235,418.3235,418.8236,,,,,,,,,,,,,,7.1594,0,,,,,,,,,,,,,,m,,,,,,,,,,,,,,,,66,0,418.8244,425.9903,z,0,7.1594,,[],[],[],[],[],[],[],425.9904,427.9906,427.9907,427.9908,[],[],[],[],[],[],[],,427.9908,427.991,0.887963048,-0.160185213,0,0,0,,0,65,65,129,1,1,word,PARENT,cursive,parent_c.png,,,,,,
,,,,32240,001,2025-10-15_20h54.16.241,HW_LDT_1,2024.2.4,Win32,59.88023952,,,,,,,,,,,,,,,,,,,,,,427.992,428.1904,428.1905,428.69,,,,,,,,,,,,,,1.1406,1,,,,,,,,,,,,,,z,,,,,,,,,,,,,,,,67,0,428.6904,429.8403,z,1,1.1406,,[],[],[],[],[],[],[],429.8404,431.8403,431.8403,431.8407,[],[],[],[],[],[],[],,431.8407,431.8409,0.887963048,-0.160185213,0,0,0,,0,66,66,74,1,1,TL,setanor,cursive,setanor_c.png,,,,,,
,,,,32240,001,2025-10-15_20h54.16.241,HW_LDT_1,2024.2.4,Win32,59.88023952,,,,,,,,,,,,,,,,,,,,,,431.8423,432.0403,432.0403,432.5404,,,,,,,,,,,,,,1.121,1,,,,,,,,,,,,,,z,,,,,,,,,,,,,,,,68,0,432.5412,433.6742,z,1,1.121,,[],[],[],[],[],[],[],433.6743,435.6739,435.6739,435.6743,[],[],[],[],[],[],[],,435.6743,435.6745,0.887963048,-0.160185213,0,0,0,,0,67,67,16,1,1,RL,marmipal,print,marmipal_p.png,,,,,,
,,,,32240,001,2025-10-15_20h54.16.241,HW_LDT_1,2024.2.4,Win32,59.88023952,,,,,,,,,,,,,,,,,,,,,,435.6757,435.874,435.8741,436.374,,,,,,,,,,,,,,0.7278,1,,,,,,,,,,,,,,m,,,,,,,,,,,,,,,,69,0,436.3748,437.1073,m,1,0.7278,,[],[],[],[],[],[],[],437.1075,439.1072,439.1073,439.1076,[],[],[],[],[],[],[],,439.1076,439.1078,0.887963048,-0.160185213,0,0,0,,0,68,68,85,1,1,word,BENEFIT,print,benefit_p.png,,,,,,
,,,,32240,001,2025-10-15_20h54.16.241,HW_LDT_1,2024.2.4,Win32,59.88023952,,,,,,,,,,,,,,,,,,,,,,439.1091,439.3071,439.3072,439.8073,,,,,,,,,,,,,,1.708,1,,,,,,,,,,,,,,z,,,,,,,,,,,,,,,,70,0,439.8081,441.5241,z,1,1.708,,[],[],[],[],[],[],[],441.5243,443.524,443.524,443.5243,[],[],[],[],[],[],[],,443.5243,443.5245,0.887963048,-0.160185213,0,0,0,,0,69,69,46,1,1,TL,catipal,print,catipal_p.png,,,,,,
,,,,32240,001,2025-10-15_20h54.16.241,HW_LDT_1,2024.2.4,Win32,59.88023952,,,,,,,,,,,,,,,,,,,,,,443.5258,443.7241,443.7242,444.2241,,,,,,,,,,,,,,0.8934,1,,,,,,,,,,,,,,z,,,,,,,,,,,,,,,,71,0,444.2247,445.124,z,1,0.8934,,[],[],[],[],[],[],[],445.1241,447.1242,447.1243,447.1246,[],[],[],[],[],[],[],,447.1247,447.1248,0.887963048,-0.160185213,0,0,0,,0,70,70,2,1,1,RL,asiral,print,asiral_p.png,,,,,,
,,,,32240,001,2025-10-15_20h54.16.241,HW_LDT_1,2024.2.4,Win32,59.88023952,,,,,,,,,,,,,,,,,,,,,,447.1263,447.3242,447.3243,447.8242,,,,,,,,,,,,,,2.1939,1,,,,,,,,,,,,,,m,,,,,,,,,,,,,,,,72,0,447.8249,450.0242,m,1,2.1939,,[],[],[],[],[],[],[],450.0243,452.024,452.0241,452.0244,[],[],[],[],[],[],[],,452.0244,452.0247,0.887963048,-0.160185213,0,0,0,,0,71,71,155,1,1,word,STRATEGY,cursive,strategy_c.png,,,,,,
,,,,32240,001,2025-10-15_20h54.16.241,HW_LDT_1,2024.2.4,Win32,59.88023952,,,,,,,,,,,,,,,,,,,,,,452.0258,452.2239,452.2241,452.7241,,,,,,,,,,,,,,5.5742,1,,,,,,,,,,,,,,z,,,,,,,,,,,,,,,,73,1,452.7248,458.3079,z,1,5.5742,,[],[],[],[],[],[],[],458.3079,460.3078,460.3078,462.4746,[],[],[],[],[],[],[],z,462.4747,462.4749,0.887963048,-0.160185213,0,0,0,,0,72,72,48,1,1,TL,cemerony,cursive,cemerony_c.png,2.163,,,,,
,,,,32240,001,2025-10-15_20h54.16.241,HW_LDT_1,2024.2.4,Win32,59.88023952,,,,,,,,,,,,,,,,,,,,,,462.4761,462.6744,462.6744,463.1749,,,,,,,,,,,,,,1.6423,1,,,,,,,,,,,,,,m,,,,,,,,,,,,,,,,74,0,463.1777,464.8246,m,1,1.6423,,[],[],[],[],[],[],[],464.8248,466.8246,466.8246,466.825,[],[],[],[],[],[],[],,466.825,466.8253,0.887963048,-0.160185213,0,0,0,,0,73,73,120,1,1,word,MILITARY,print,military_p.png,,,,,,
,,,,32240,001,2025-10-15_20h54.16.241,HW_LDT_1,2024.2.4,Win32,59.88023952,,,,,,,,,,,,,,,,,,,,,,466.8271,467.0246,467.0247,467.5248,,,,,,,,,,,,,,1.4228,1,,,,,,,,,,,,,,m,,,,,,,,,,,,,,,,75,1,467.5255,468.9578,m,1,1.4228,,[],[],[],[],[],[],[],468.9578,470.958,470.958,472.5915,[],[],[],[],[],[],[],z,472.5916,472.5918,0.887963048,-0.160185213,0,0,0,,0,74,74,104,1,1,word,DOMINANT,cursive,dominant_c.png,1.6291,,,,,
,,,,32240,001,2025-10-15_20h54.16.241,HW_LDT_1,2024.2.4,Win32,59.88023952,,,,,,,,,,,,,,,,,,,,,,472.5933,472.7913,472.7913,473.2914,,,,,,,,,,,,,,1.0226,1,,,,,,,,,,,,,,z,,,,,,,,,,,,,,,,76,0,473.2921,474.3248,z,1,1.0226,,[],[],[],[],[],[],[],474.325,476.3251,476.3252,476.3253,[],[],[],[],[],[],[],,476.3253,476.3254,0.887963048,-0.160185213,0,0,0,,0,75,75,29,1,1,RL,refakive,cursive,refakive_c.png,,,,,,
,,,,32240,001,2025-10-15_20h54.16.241,HW_LDT_1,2024.2.4,Win32,59.88023952,,,,,,,,,,,,,,,,,,,,,,476.3265,476.5256,476.5256,477.0248,,,,,,,,,,,,,,1.0573,1,,,,,,,,,,,,,,z,,,,,,,,,,,,,,,,77,0,477.0255,478.0917,z,1,1.0573,,[],[],[],[],[],[],[],478.0918,480.0915,480.0916,480.0919,[],[],[],[],[],[],[],,480.0919,480.0922,0.887963048,-0.160185213,0,0,0,,0,76,76,78,1,1,TL,vecolity,print,vecolity_p.png,,,,,,
,,,,32240,001,2025-10-15_20h54.16.241,HW_LDT_1,2024.2.4,Win32,59.88023952,,,,,,,,,,,,,,,,,,,,,,480.0945,480.2912,480.2913,480.7916,,,,,,,,,,,,,,0.8222,1,,,,,,,,,,,,,,m,,,,,,,,,,,,,,,,78,0,480.7925,481.6251,m,1,0.8222,,[],[],[],[],[],[],[],481.6253,483.6245,483.6246,483.6247,[],[],[],[],[],[],[],,483.6247,483.6248,0.887963048,-0.160185213,0,0,0,,0,77,77,144,1,1,word,RESIDENT,print,resident_p.png,,,,,,
,,,,32240,001,2025-10-15_20h54.16.241,HW_LDT_1,2024.2.4,Win32,59.88023952,,,,,,,,,,,,,,,,,,,,,,483.6254,483.8249,483.825,484.3249,,,,,,,,,,,,,,1.0746,1,,,,,,,,,,,,,,m,,,,,,,,,,,,,,,,79,0,484.3256,485.4083,m,1,1.0746,,[],[],[],[],[],[],[],485.4084,487.4083,487.4084,487.4087,[],[],[],[],[],[],[],,487.4088,487.4089,0.887963048,-0.160185213,0,0,0,,0,78,78,143,1,1,word,REMOVAL,cursive,removal_c.png,,,,,,
,,,,32240,001,2025-10-15_20h54.16.241,HW_LDT_1,2024.2.4,Win32,59.88023952,,,,,,,,,,,,,,,,,,,,,,487.4103,487.6085,487.6085,488.1085,,,,,,,,,,,,,,1.3449,1,,,,,,,,,,,,,,z,,,,,,,,,,,,,,,,80,0,488.109,489.4583,z,1,1.3449,,[],[],[],[],[],[],[],489.4585,491.4584,491.4585,491.4589,[],[],[],[],[],[],[],,491.4589,628.345,0.887963048,-0.160185213,0,0,0,space,0,79,79,5,1,1,RL,cobeny,cursive,cobeny_c.png,,,136.8607,,,
,,,,32240,001,2025-10-15_20h54.16.241,HW_LDT_1,2024.2.4,Win32,59.88023952,,,,,,,,,,,,,,,,,,,,,,628.3469,628.5444,628.5446,629.0445,,,,,,,,,,,,,,2.1614,1,,,,,,,,,,,,,,z,,,,,,,,,,,,,,,,81,0,629.045,631.2112,z,1,2.1614,,[],[],[],[],[],[],[],631.2114,633.211,633.2111,633.2113,[],[],[],[],[],[],[],,633.2114,633.2114,0.887963048,-0.160185213,0,0,0,,0,80,80,25,1,1,RL,quakity,cursive,quakity_c.png,,,,,,
,,,,32240,001,2025-10-15_20h54.16.241,HW_LDT_1,2024.2.4,Win32,59.88023952,,,,,,,,,,,,,,,,,,,,,,633.2128,633.411,633.411,633.9112,,,,,,,,,,,,,,0.7714,1,,,,,,,,,,,,,,m,,,,,,,,,,,,,,,,82,1,633.9117,634.6947,m,1,0.7714,,[],[],[],[],[],[],[],634.6949,636.6946,636.6947,638.3944,[],[],[],[],[],[],[],m,638.3945,638.3948,0.887963048,-0.160185213,0,0,0,,0,81,81,114,1,1,word,LOCATE,print,locate_p.png,1.69,,,,,
,,,,32240,001,2025-10-15_20h54.16.241,HW_LDT_1,2024.2.4,Win32,59.88023952,,,,,,,,,,,,,,,,,,,,,,638.3958,638.5947,638.5949,639.0949,,,,,,,,,,,,,,3.4393,1,,,,,,,,,,,,,,z,,,,,,,,,,,,,,,,83,0,639.0956,642.5445,z,1,3.4393,,[],[],[],[],[],[],[],642.5447,644.5447,644.5448,644.5451,[],[],[],[],[],[],[],,644.5452,644.5453,0.887963048,-0.160185213,0,0,0,,0,82,82,75,1,1,TL,speficic,cursive,speficic_c.png,,,,,,
,,,,32240,001,2025-10-15_20h54.16.241,HW_LDT_1,2024.2.4,Win32,59.88023952,,,,,,,,,,,,,,,,,,,,,,644.5466,644.7448,644.7449,645.2448,,,,,,,,,,,,,,1.1074,1,,,,,,,,,,,,,,m,,,,,,,,,,,,,,,,84,1,645.2454,646.3615,m,1,1.1074,,[],[],[],[],[],[],[],646.3617,648.3612,648.3614,650.3949,[],[],[],[],[],[],[],m,650.395,650.3954,0.887963048,-0.160185213,0,0,0,,0,83,83,86,1,1,word,BESIDE,print,beside_p.png,2.0244,,,,,
,,,,32240,001,2025-10-15_20h54.16.241,HW_LDT_1,2024.2.4,Win32,59.88023952,,,,,,,,,,,,,,,,,,,,,,650.3966,650.5957,650.5957,651.0948,,,,,,,,,,,,,,1.9147,1,,,,,,,,,,,,,,m,,,,,,,,,,,,,,,,85,1,651.0958,653.0122,m,1,1.9147,,[],[],[],[],[],[],[],653.0123,655.0115,655.0116,655.9617,[],[],[],[],[],[],[],m,655.9618,655.9621,0.887963048,-0.160185213,0,0,0,,0,84,84,148,1,1,word,SALINE,print,saline_p.png,0.9461,,,,,
,,,,32240,001,2025-10-15_20h54.16.241,HW_LDT_1,2024.2.4,Win32,59.88023952,,,,,,,,,,,,,,,,,,,,,,655.9632,656.1616,656.1616,656.6617,,,,,,,,,,,,,,2.7145,1,,,,,,,,,,,,,,m,,,,,,,,,,,,,,,,86,0,656.6621,659.3786,m,1,2.7145,,[],[],[],[],[],[],[],659.3788,661.3779,661.3779,661.378,[],[],[],[],[],[],[],,661.378,661.3781,0.887963048,-0.160185213,0,0,0,,0,85,85,95,1,1,word,COMEDY,cursive,comedy_c.png,,,,,,
,,,,32240,001,2025-10-15_20h54.16.241,HW_LDT_1,2024.2.4,Win32,59.88023952,,,,,,,,,,,,,,,,,,,,,,661.3787,661.5783,661.5784,662.0782,,,,,,,,,,,,,,1.021,1,,,,,,,,,,,,,,z,,,,,,,,,,,,,,,,87,0,662.0788,663.112,z,1,1.021,,[],[],[],[],[],[],[],663.1122,665.1118,665.1119,665.1123,[],[],[],[],[],[],[],,665.1123,665.1126,0.887963048,-0.160185213,0,0,0,,0,86,86,43,1,1,TL,bedise,print,bedise_p.png,,,,,,
,,,,32240,001,2025-10-15_20h54.16.241,HW_LDT_1,2024.2.4,Win32,59.88023952,,,,,,,,,,,,,,,,,,,,,,665.1145,665.3118,665.3118,665.8112,,,,,,,,,,,,,,0.7587,1,,,,,,,,,,,,,,z,,,,,,,,,,,,,,,,88,0,665.8116,666.5785,z,1,0.7587,,[],[],[],[],[],[],[],666.5787,668.5783,668.5784,668.5788,[],[],[],[],[],[],[],,668.5789,668.579,0.887963048,-0.160185213,0,0,0,,0,87,87,33,1,1,RL,recile,cursive,recile_c.png,,,,,,
,,,,32240,001,2025-10-15_20h54.16.241,HW_LDT_1,2024.2.4,Win32,59.88023952,,,,,,,,,,,,,,,,,,,,,,668.5803,668.7783,668.7783,669.2783,,,,,,,,,,,,,,0.7611,0,,,,,,,,,,,,,,m,,,,,,,,,,,,,,,,89,0,669.279,670.0449,z,0,0.7611,,[],[],[],[],[],[],[],670.045,672.0451,672.0452,672.0456,[],[],[],[],[],[],[],,672.0456,672.0459,0.887963048,-0.160185213,0,0,0,,0,88,88,125,1,1,word,OPERATOR,cursive,operator_c.png,,,,,,
,,,,32240,001,2025-10-15_20h54.16.241,HW_LDT_1,2024.2.4,Win32,59.88023952,,,,,,,,,,,,,,,,,,,,,,672.0471,672.2453,672.2454,672.7453,,,,,,,,,,,,,,1.671,1,,,,,,,,,,,,,,z,,,,,,,,,,,,,,,,90,0,672.746,674.429,z,1,1.671,,[],[],[],[],[],[],[],674.4291,676.4168,676.4168,676.417,[],[],[],[],[],[],[],,676.4171,676.4172,0.887963048,-0.160185213,0,0,0,,0,89,89,63,1,1,TL,molibe,cursive,molibe_c.png,,,,,,
,,,,32240,001,2025-10-15_20h54.16.241,HW_LDT_1,2024.2.4,Win32,59.88023952,,,,,,,,,,,,,,,,,,,,,,676.4187,676.6166,676.6166,677.1147,,,,,,,,,,,,,,3.2015,1,,,,,,,,,,,,,,m,,,,,,,,,,,,,,,,91,0,677.1151,680.3174,m,1,3.2015,,[],[],[],[],[],[],[],680.3176,682.3126,682.3128,682.3133,[],[],[],[],[],[],[],,682.3133,682.3136,0.887963048,-0.160185213,0,0,0,,0,90,90,119,1,1,word,MEMORY,cursive,memory_c.png,,,,,,
,,,,32240,001,2025-10-15_20h54.16.241,HW_LDT_1,2024.2.4,Win32,59.88023952,,,,,,,,,,,,,,,,,,,,,,682.3152,682.5127,682.5129,683.0127,,,,,,,,,,,,,,1.6966,1,,,,,,,,,,,,,,m,,,,,,,,,,,,,,,,92,0,683.0139,684.7126,m,1,1.6966,,[],[],[],[],[],[],[],684.7129,686.7133,686.7136,686.7141,[],[],[],[],[],[],[],,686.7141,686.7141,0.887963048,-0.160185213,0,0,0,,0,91,91,88,1,1,word,CAMERA,cursive,camera_c.png,,,,,,
,,,,32240,001,2025-10-15_20h54.16.241,HW_LDT_1,2024.2.4,Win32,59.88023952,,,,,,,,,,,,,,,,,,,,,,686.7156,686.9128,686.913,687.4125,,,,,,,,,,,,,,0.9799,1,,,,,,,,,,,,,,z,,,,,,,,,,,,,,,,93,0,687.4138,688.3962,z,1,0.9799,,[],[],[],[],[],[],[],688.3966,690.401,690.401,690.4013,[],[],[],[],[],[],[],,690.4014,690.4015,0.887963048,-0.160185213,0,0,0,,0,92,92,13,1,1,RL,linefal,print,linefal_p.png,,,,,,
,,,,32240,001,2025-10-15_20h54.16.241,HW_LDT_1,2024.2.4,Win32,59.88023952,,,,,,,,,,,,,,,,,,,,,,690.4032,690.5957,690.5958,691.0987,,,,,,,,,,,,,,1.1169,1,,,,,,,,,,,,,,z,,,,,,,,,,,,,,,,94,0,691.0995,692.2177,z,1,1.1169,,[],[],[],[],[],[],[],692.2178,694.2176,694.2176,694.2178,[],[],[],[],[],[],[],,694.2179,694.218,0.887963048,-0.160185213,0,0,0,,0,93,93,19,1,1,RL,monebate,print,monebate_p.png,,,,,,
,,,,32240,001,2025-10-15_20h54.16.241,HW_LDT_1,2024.2.4,Win32,59.88023952,,,,,,,,,,,,,,,,,,,,,,694.2195,694.4133,694.4135,694.9132,,,,,,,,,,,,,,0.9102,1,,,,,,,,,,,,,,z,,,,,,,,,,,,,,,,95,0,694.9146,695.8299,z,1,0.9102,,[],[],[],[],[],[],[],695.8301,697.8299,697.83,697.8303,[],[],[],[],[],[],[],,697.8304,697.8306,0.887963048,-0.160185213,0,0,0,,0,94,94,79,1,1,TL,veretan,print,veretan_p.png,,,,,,
,,,,32240,001,2025-10-15_20h54.16.241,HW_LDT_1,2024.2.4,Win32,59.88023952,,,,,,,,,,,,,,,,,,,,,,697.8318,698.0293,698.0295,698.5296,,,,,,,,,,,,,,0.8212,1,,,,,,,,,,,,,,m,,,,,,,,,,,,,,,,96,0,698.5313,699.3636,m,1,0.8212,,[],[],[],[],[],[],[],699.3638,701.3631,701.3633,701.3637,[],[],[],[],[],[],[],,701.3638,701.3639,0.887963048,-0.160185213,0,0,0,,0,95,95,90,1,1,word,CAPITAL,print,capital_p.png,,,,,,
,,,,32240,001,2025-10-15_20h54.16.241,HW_LDT_1,2024.2.4,Win32,59.88023952,,,,,,,,,,,,,,,,,,,,,,701.3655,701.5633,701.5633,702.0632,,,,,,,,,,,,,,1.9217,1,,,,,,,,,,,,,,z,,,,,,,,,,,,,,,,97,0,702.0645,703.9969,z,1,1.9217,,[],[],[],[],[],[],[],703.9971,705.9965,705.9968,705.9973,[],[],[],[],[],[],[],,705.9973,705.9979,0.887963048,-0.160185213,0,0,0,,0,96,96,71,1,1,TL,regilion,cursive,regilion_c.png,,,,,,
,,,,32240,001,2025-10-15_20h54.16.241,HW_LDT_1,2024.2.4,Win32,59.88023952,,,,,,,,,,,,,,,,,,,,,,705.9992,706.1962,706.1963,706.6963,,,,,,,,,,,,,,0.9925,1,,,,,,,,,,,,,,z,,,,,,,,,,,,,,,,98,0,706.6973,707.697,z,1,0.9925,,[],[],[],[],[],[],[],707.6973,709.6965,709.6967,709.6971,[],[],[],[],[],[],[],,709.6971,709.6972,0.887963048,-0.160185213,0,0,0,,0,97,97,8,1,1,RL,debave,print,debave_p.png,,,,,,
,,,,32240,001,2025-10-15_20h54.16.241,HW_LDT_1,2024.2.4,Win32,59.88023952,,,,,,,,,,,,,,,,,,,,,,709.6988,709.8968,709.897,710.3967,,,,,,,,,,,,,,0.7364,1,,,,,,,,,,,,,,z,,,,,,,,,,,,,,,,99,0,710.398,711.1351,z,1,0.7364,,[],[],[],[],[],[],[],711.1353,713.1294,713.1295,713.1297,[],[],[],[],[],[],[],,713.1298,713.13,0.887963048,-0.160185213,0,0,0,,0,98,98,60,1,1,TL,manire,print,manire_p.png,,,,,,
,,,,32240,001,2025-10-15_20h54.16.241,HW_LDT_1,2024.2.4,Win32,59.88023952,,,,,,,,,,,,,,,,,,,,,,713.1318,713.3297,713.3298,713.8297,,,,,,,,,,,,,,1.2609,1,,,,,,,,,,,,,,z,,,,,,,,,,,,,,,,100,0,713.831,715.0971,z,1,1.2609,,[],[],[],[],[],[],[],715.0973,717.0969,717.0972,717.098,[],[],[],[],[],[],[],,717.098,717.0984,0.887963048,-0.160185213,0,0,0,,0,99,99,53,1,1,TL,dentisy,cursive,dentisy_c.png,,,,,,
,,,,32240,001,2025-10-15_20h54.16.241,HW_LDT_1,2024.2.4,Win32,59.88023952,,,,,,,,,,,,,,,,,,,,,,717.0998,717.297,717.297,717.7969,,,,,,,,,,,,,,1.0254,0,,,,,,,,,,,,,,m,,,,,,,,,,,,,,,,101,0,717.7985,718.8304,z,0,1.0254,,[],[],[],[],[],[],[],718.8306,720.8341,720.8341,720.8342,[],[],[],[],[],[],[],,720.8343,720.8344,0.887963048,-0.160185213,0,0,0,,0,100,100,87,1,1,word,CAFETERIA,cursive,cafeteria_c.png,,,,,,
,,,,32240,001,2025-10-15_20h54.16.241,HW_LDT_1,2024.2.4,Win32,59.88023952,,,,,,,,,,,,,,,,,,,,,,720.836,721.0303,721.0306,721.53,,,,,,,,,,,,,,1.0272,1,,,,,,,,,,,,,,m,,,,,,,,,,,,,,,,102,0,721.5312,722.5634,m,1,1.0272,,[],[],[],[],[],[],[],722.5635,724.5635,724.5636,724.5639,[],[],[],[],[],[],[],,724.5639,724.5641,0.887963048,-0.160185213,0,0,0,,0,101,101,130,1,1,word,POLICY,cursive,policy_c.png,,,,,,
,,,,32240,001,2025-10-15_20h54.16.241,HW_LDT_1,2024.2.4,Win32,59.88023952,,,,,,,,,,,,,,,,,,,,,,724.5656,724.7635,724.7637,725.2638,,,,,,,,,,,,,,1.674,0,,,,,,,,,,,,,,m,,,,,,,,,,,,,,,,103,0,725.2651,726.9474,z,0,1.674,,[],[],[],[],[],[],[],726.9477,728.9472,728.9474,728.9478,[],[],[],[],[],[],[],,728.9478,728.9481,0.887963048,-0.160185213,0,0,0,,0,102,102,102,1,1,word,DENSITY,cursive,density_c.png,,,,,,
,,,,32240,001,2025-10-15_20h54.16.241,HW_LDT_1,2024.2.4,Win32,59.88023952,,,,,,,,,,,,,,,,,,,,,,728.9495,729.1508,729.1509,729.6515,,,,,,,,,,,,,,1.0531,1,,,,,,,,,,,,,,m,,,,,,,,,,,,,,,,104,0,729.6519,730.7143,m,1,1.0531,,[],[],[],[],[],[],[],730.7144,732.7135,732.7137,732.7142,[],[],[],[],[],[],[],,732.7143,732.7145,0.887963048,-0.160185213,0,0,0,,0,103,103,157,1,1,word,VALIDITY,cursive,validity_c.png,,,,,,
,,,,32240,001,2025-10-15_20h54.16.241,HW_LDT_1,2024.2.4,Win32,59.88023952,,,,,,,,,,,,,,,,,,,,,,732.7163,732.9141,732.9145,733.4139,,,,,,,,,,,,,,1.5687,1,,,,,,,,,,,,,,z,,,,,,,,,,,,,,,,105,1,733.4153,734.9851,z,1,1.5687,,[],[],[],[],[],[],[],734.9853,736.9808,736.9811,739.5644,[],[],[],[],[],[],[],z,739.5646,739.5651,0.887963048,-0.160185213,0,0,0,,0,104,104,54,1,1,TL,distupe,cursive,distupe_c.png,2.578,,,,,
,,,,32240,001,2025-10-15_20h54.16.241,HW_LDT_1,2024.2.4,Win32,59.88023952,,,,,,,,,,,,,,,,,,,,,,739.5665,739.764,739.7641,740.264,,,,,,,,,,,,,,1.3057,1,,,,,,,,,,,,,,m,,,,,,,,,,,,,,,,106,0,740.2653,741.5811,m,1,1.3057,,[],[],[],[],[],[],[],741.5813,743.581,743.5811,743.5815,[],[],[],[],[],[],[],,743.5816,743.5818,0.887963048,-0.160185213,0,0,0,,0,105,105,84,1,1,word,BELOVED,print,beloved_p.png,,,,,,
,,,,32240,001,2025-10-15_20h54.16.241,HW_LDT_1,2024.2.4,Win32,59.88023952,,,,,,,,,,,,,,,,,,,,,,743.5832,743.7858,743.7858,744.2807,,,,,,,,,,,,,,0.7714,1,,,,,,,,,,,,,,z,,,,,,,,,,,,,,,,107,0,744.282,745.0644,z,1,0.7714,,[],[],[],[],[],[],[],745.0646,747.0689,747.0689,747.069,[],[],[],[],[],[],[],,747.069,747.0692,0.887963048,-0.160185213,0,0,0,,0,106,106,23,1,1,RL,potugar,cursive,potugar_c.png,,,,,,
,,,,32240,001,2025-10-15_20h54.16.241,HW_LDT_1,2024.2.4,Win32,59.88023952,,,,,,,,,,,,,,,,,,,,,,747.0707,747.2687,747.2688,747.7664,,,,,,,,,,,,,,0.8737,1,,,,,,,,,,,,,,m,,,,,,,,,,,,,,,,108,0,747.7671,748.6473,m,1,0.8737,,[],[],[],[],[],[],[],748.6475,750.6357,750.6357,750.6359,[],[],[],[],[],[],[],,750.636,750.6361,0.887963048,-0.160185213,0,0,0,,0,107,107,83,1,1,word,ANIMAL,print,animal_p.png,,,,,,
,,,,32240,001,2025-10-15_20h54.16.241,HW_LDT_1,2024.2.4,Win32,59.88023952,,,,,,,,,,,,,,,,,,,,,,750.6376,750.831,750.8312,751.3307,,,,,,,,,,,,,,0.9044,1,,,,,,,,,,,,,,z,,,,,,,,,,,,,,,,109,0,751.3321,752.248,z,1,0.9044,,[],[],[],[],[],[],[],752.2482,754.2473,754.2474,754.2478,[],[],[],[],[],[],[],,754.2479,754.2481,0.887963048,-0.160185213,0,0,0,,0,108,108,28,1,1,RL,renutal,print,renutal_p.png,,,,,,
,,,,32240,001,2025-10-15_20h54.16.241,HW_LDT_1,2024.2.4,Win32,59.88023952,,,,,,,,,,,,,,,,,,,,,,754.2498,754.4475,754.4476,754.9508,,,,,,,,,,,,,,0.7891,1,,,,,,,,,,,,,,m,,,,,,,,,,,,,,,,110,1,754.9513,755.7485,m,1,0.7891,,[],[],[],[],[],[],[],755.7486,757.7514,757.7515,760.5982,[],[],[],[],[],[],[],m,760.5984,760.5986,0.887963048,-0.160185213,0,0,0,,0,109,109,123,1,1,word,MODERATE,print,moderate_p.png,2.8384,,,,,
,,,,32240,001,2025-10-15_20h54.16.241,HW_LDT_1,2024.2.4,Win32,59.88023952,,,,,,,,,,,,,,,,,,,,,,760.5998,760.7978,760.7983,761.2975,,,,,,,,,,,,,,0.8541,1,,,,,,,,,,,,,,z,,,,,,,,,,,,,,,,111,0,761.2989,762.1645,z,1,0.8541,,[],[],[],[],[],[],[],762.1647,764.1647,764.1649,764.1652,[],[],[],[],[],[],[],,764.1653,764.1654,0.887963048,-0.160185213,0,0,0,,0,110,110,24,1,1,RL,probice,print,probice_p.png,,,,,,
,,,,32240,001,2025-10-15_20h54.16.241,HW_LDT_1,2024.2.4,Win32,59.88023952,,,,,,,,,,,,,,,,,,,,,,764.167,764.3638,764.364,764.8647,,,,,,,,,,,,,,1.6746,1,,,,,,,,,,,,,,m,,,,,,,,,,,,,,,,112,1,764.8658,766.5483,m,1,1.6746,,[],[],[],[],[],[],[],766.5485,768.5477,768.5479,769.8642,[],[],[],[],[],[],[],z,769.8644,769.8646,0.887963048,-0.160185213,0,0,0,,0,111,111,150,1,1,word,SENTIMENT,cursive,sentiment_c.png,1.3057,,,,,
,,,,32240,001,2025-10-15_20h54.16.241,HW_LDT_1,2024.2.4,Win32,59.88023952,,,,,,,,,,,,,,,,,,,,,,769.8665,770.0643,770.0644,770.5644,,,,,,,,,,,,,,1.7864,0,,,,,,,,,,,,,,m,,,,,,,,,,,,,,,,113,0,770.5655,772.353,z,0,1.7864,,[],[],[],[],[],[],[],772.3531,774.3484,774.3485,774.3488,[],[],[],[],[],[],[],,774.3488,774.3489,0.887963048,-0.160185213,0,0,0,,0,112,112,111,1,1,word,INDICATE,cursive,indicate_c.png,,,,,,
,,,,32240,001,2025-10-15_20h54.16.241,HW_LDT_1,2024.2.4,Win32,59.88023952,,,,,,,,,,,,,,,,,,,,,,774.3501,774.5479,774.5481,775.0477,,,,,,,,,,,,,,1.0207,1,,,,,,,,,,,,,,z,,,,,,,,,,,,,,,,114,0,775.0492,776.0818,z,1,1.0207,,[],[],[],[],[],[],[],776.0819,778.0818,778.082,778.0824,[],[],[],[],[],[],[],,778.0824,778.0825,0.887963048,-0.160185213,0,0,0,,0,113,113,34,1,1,RL,samite,print,samite_p.png,,,,,,
,,,,32240,001,2025-10-15_20h54.16.241,HW_LDT_1,2024.2.4,Win32,59.88023952,,,,,,,,,,,,,,,,,,,,,,778.0841,778.2814,778.2815,778.7818,,,,,,,,,,,,,,1.0526,1,,,,,,,,,,,,,,m,,,,,,,,,,,,,,,,115,0,778.7829,779.8365,m,1,1.0526,,[],[],[],[],[],[],[],779.8366,781.8364,781.8364,781.8366,[],[],[],[],[],[],[],,781.8366,781.8367,0.887963048,-0.160185213,0,0,0,,0,114,114,107,1,1,word,EVIDENT,print,evident_p.png,,,,,,
,,,,32240,001,2025-10-15_20h54.16.241,HW_LDT_1,2024.2.4,Win32,59.88023952,,,,,,,,,,,,,,,,,,,,,,781.8382,782.0351,782.0352,782.5315,,,,,,,,,,,,,,0.8684,0,,,,,,,,,,,,,,m,,,,,,,,,,,,,,,,116,0,782.5329,783.4023,z,0,0.8684,,[],[],[],[],[],[],[],783.4026,785.402,785.4021,785.4023,[],[],[],[],[],[],[],,785.4023,785.4024,0.887963048,-0.160185213,0,0,0,,0,115,115,105,1,1,word,EDITOR,cursive,editor_c.png,,,,,,
,,,,32240,001,2025-10-15_20h54.16.241,HW_LDT_1,2024.2.4,Win32,59.88023952,,,,,,,,,,,,,,,,,,,,,,785.4052,785.5992,785.5993,786.0984,,,,,,,,,,,,,,0.968,1,,,,,,,,,,,,,,m,,,,,,,,,,,,,,,,117,0,786.0997,787.069,m,1,0.968,,[],[],[],[],[],[],[],787.069,789.0651,789.0653,789.0662,[],[],[],[],[],[],[],,789.0662,789.0663,0.887963048,-0.160185213,0,0,0,,0,116,116,96,1,1,word,CONSIDER,cursive,consider_c.png,,,,,,
,,,,32240,001,2025-10-15_20h54.16.241,HW_LDT_1,2024.2.4,Win32,59.88023952,,,,,,,,,,,,,,,,,,,,,,789.0678,789.2651,789.2653,789.765,,,,,,,,,,,,,,1.4518,1,,,,,,,,,,,,,,m,,,,,,,,,,,,,,,,118,0,789.766,791.2186,m,1,1.4518,,[],[],[],[],[],[],[],791.2187,793.2186,793.2186,793.2188,[],[],[],[],[],[],[],,793.2189,793.2189,0.887963048,-0.160185213,0,0,0,,0,117,117,94,1,1,word,CLINICAL,cursive,clinical_c.png,,,,,,
,,,,32240,001,2025-10-15_20h54.16.241,HW_LDT_1,2024.2.4,Win32,59.88023952,,,,,,,,,,,,,,,,,,,,,,793.2204,793.4197,793.4198,793.9147,,,,,,,,,,,,,,0.8782,1,,,,,,,,,,,,,,m,,,,,,,,,,,,,,,,119,0,793.9161,794.7986,m,1,0.8782,,[],[],[],[],[],[],[],794.7988,796.8018,796.8018,796.8019,[],[],[],[],[],[],[],,796.8019,796.8021,0.887963048,-0.160185213,0,0,0,,0,118,118,98,1,1,word,CRIMINAL,print,criminal_p.png,,,,,,
,,,,32240,001,2025-10-15_20h54.16.241,HW_LDT_1,2024.2.4,Win32,59.88023952,,,,,,,,,,,,,,,,,,,,,,796.8033,796.9986,796.9987,797.4981,,,,,,,,,,,,,,1.2916,0,,,,,,,,,,,,,,m,,,,,,,,,,,,,,,,120,0,797.4992,798.7983,z,0,1.2916,,[],[],[],[],[],[],[],798.7985,800.8017,800.8018,800.802,[],[],[],[],[],[],[],,800.802,800.8023,0.887963048,-0.160185213,0,0,0,,0,119,119,140,1,1,word,RELATIVE,cursive,relative_c.png,,,,,,
,,,,32240,001,2025-10-15_20h54.16.241,HW_LDT_1,2024.2.4,Win32,59.88023952,,,,,,,,,,,,,,,,,,,,,,800.8037,800.9986,800.9989,801.4988,,,,,,,,,,,,,,1.4686,1,,,,,,,,,,,,,,m,,,,,,,,,,,,,,,,121,0,801.5001,802.9698,m,1,1.4686,,[],[],[],[],[],[],[],802.9699,804.9702,804.9702,804.9705,[],[],[],[],[],[],[],,804.9706,804.9708,0.887963048,-0.160185213,0,0,0,,0,120,120,153,1,1,word,STOLEN,print,stolen_p.png,,,,,,
,,,,32240,001,2025-10-15_20h54.16.241,HW_LDT_1,2024.2.4,Win32,59.88023952,,,,,,,,,,,,,,,,,,,,,,804.9721,805.1655,805.1656,805.6656,,,,,,,,,,,,,,1.9685,1,,,,,,,,,,,,,,m,,,,,,,,,,,,,,,,122,0,805.6668,807.6366,m,1,1.9685,,[],[],[],[],[],[],[],807.6367,809.632,809.6321,809.6327,[],[],[],[],[],[],[],,809.633,809.6333,0.887963048,-0.160185213,0,0,0,,0,121,121,118,1,1,word,MEDICINE,cursive,medicine_c.png,,,,,,
,,,,32240,001,2025-10-15_20h54.16.241,HW_LDT_1,2024.2.4,Win32,59.88023952,,,,,,,,,,,,,,,,,,,,,,809.6346,809.836,809.836,810.3362,,,,,,,,,,,,,,1.166,1,,,,,,,,,,,,,,z,,,,,,,,,,,,,,,,123,1,810.3369,811.5039,z,1,1.166,,[],[],[],[],[],[],[],811.504,813.4985,813.4988,815.3029,[],[],[],[],[],[],[],z,815.303,815.3033,0.887963048,-0.160185213,0,0,0,,0,122,122,72,1,1,TL,remuse,print,remuse_p.png,1.803,,,,,
,,,,32240,001,2025-10-15_20h54.16.241,HW_LDT_1,2024.2.4,Win32,59.88023952,,,,,,,,,,,,,,,,,,,,,,815.3043,815.4988,815.499,815.9988,,,,,,,,,,,,,,1.8689,1,,,,,,,,,,,,,,z,,,,,,,,,,,,,,,,124,0,816.0002,817.87,z,1,1.8689,,[],[],[],[],[],[],[],817.8701,819.8696,819.8696,819.8699,[],[],[],[],[],[],[],,819.8699,819.8701,0.887963048,-0.160185213,0,0,0,,0,123,123,9,1,1,RL,docirant,cursive,docirant_c.png,,,,,,
,,,,32240,001,2025-10-15_20h54.16.241,HW_LDT_1,2024.2.4,Win32,59.88023952,,,,,,,,,,,,,,,,,,,,,,819.8718,820.0657,820.066,820.57,,,,,,,,,,,,,,1.0818,0,,,,,,,,,,,,,,m,,,,,,,,,,,,,,,,125,0,820.5706,821.6534,z,0,1.0818,,[],[],[],[],[],[],[],821.6534,823.6488,823.6489,823.6493,[],[],[],[],[],[],[],,823.6494,823.6496,0.887963048,-0.160185213,0,0,0,,0,124,124,149,1,1,word,SENATOR,cursive,senator_c.png,,,,,,
,,,,32240,001,2025-10-15_20h54.16.241,HW_LDT_1,2024.2.4,Win32,59.88023952,,,,,,,,,,,,,,,,,,,,,,823.651,823.8498,823.8499,824.3491,,,,,,,,,,,,,,0.7861,1,,,,,,,,,,,,,,z,,,,,,,,,,,,,,,,126,1,824.3505,825.1375,z,1,0.7861,,[],[],[],[],[],[],[],825.1376,827.1328,827.1329,828.9209,[],[],[],[],[],[],[],z,828.921,828.9211,0.887963048,-0.160185213,0,0,0,,0,125,125,32,1,1,RL,rebicent,print,rebicent_p.png,1.7871,,,,,
,,,,32240,001,2025-10-15_20h54.16.241,HW_LDT_1,2024.2.4,Win32,59.88023952,,,,,,,,,,,,,,,,,,,,,,828.9224,829.1211,829.1211,829.6154,,,,,,,,,,,,,,0.9231,1,,,,,,,,,,,,,,m,,,,,,,,,,,,,,,,127,0,829.6167,830.5498,m,1,0.9231,,[],[],[],[],[],[],[],830.55,832.5495,832.5497,832.5501,[],[],[],[],[],[],[],,832.5502,832.5503,0.887963048,-0.160185213,0,0,0,,0,126,126,154,1,1,word,STORAGE,cursive,storage_c.png,,,,,,
,,,,32240,001,2025-10-15_20h54.16.241,HW_LDT_1,2024.2.4,Win32,59.88023952,,,,,,,,,,,,,,,,,,,,,,832.5515,832.7495,832.7497,833.2497,,,,,,,,,,,,,,0.8803,1,,,,,,,,,,,,,,m,,,,,,,,,,,,,,,,128,0,833.2508,834.1323,m,1,0.8803,,[],[],[],[],[],[],[],834.1326,836.1325,836.1327,836.1331,[],[],[],[],[],[],[],,836.1332,836.1335,0.887963048,-0.160185213,0,0,0,,0,127,127,99,1,1,word,DEBATE,print,debate_p.png,,,,,,
,,,,32240,001,2025-10-15_20h54.16.241,HW_LDT_1,2024.2.4,Win32,59.88023952,,,,,,,,,,,,,,,,,,,,,,836.135,836.3359,836.3359,836.8327,,,,,,,,,,,,,,2.22,1,,,,,,,,,,,,,,z,,,,,,,,,,,,,,,,129,0,836.8339,839.0544,z,1,2.22,,[],[],[],[],[],[],[],839.0545,841.0496,841.0498,841.0503,[],[],[],[],[],[],[],,841.0504,841.0507,0.887963048,-0.160185213,0,0,0,,0,128,128,36,1,1,RL,speniven,cursive,speniven_c.png,,,,,,
,,,,32240,001,2025-10-15_20h54.16.241,HW_LDT_1,2024.2.4,Win32,59.88023952,,,,,,,,,,,,,,,,,,,,,,841.052,841.2493,841.2494,841.7534,,,,,,,,,,,,,,1.1104,1,,,,,,,,,,,,,,m,,,,,,,,,,,,,,,,130,0,841.7538,842.8662,m,1,1.1104,,[],[],[],[],[],[],[],842.8664,844.8541,844.8541,844.8543,[],[],[],[],[],[],[],,844.8543,844.8546,0.887963048,-0.160185213,0,0,0,,0,129,129,131,1,1,word,POPULAR,cursive,popular_c.png,,,,,,
,,,,32240,001,2025-10-15_20h54.16.241,HW_LDT_1,2024.2.4,Win32,59.88023952,,,,,,,,,,,,,,,,,,,,,,844.8559,845.0518,845.0518,845.5517,,,,,,,,,,,,,,0.7244,1,,,,,,,,,,,,,,m,,,,,,,,,,,,,,,,131,0,845.5522,846.2832,m,1,0.7244,,[],[],[],[],[],[],[],846.2834,848.2851,848.2852,848.2854,[],[],[],[],[],[],[],,848.2855,848.2855,0.887963048,-0.160185213,0,0,0,,0,130,130,113,1,1,word,LITERAL,print,literal_p.png,,,,,,
,,,,32240,001,2025-10-15_20h54.16.241,HW_LDT_1,2024.2.4,Win32,59.88023952,,,,,,,,,,,,,,,,,,,,,,848.2869,848.4831,848.4833,848.9827,,,,,,,,,,,,,,0.8148,1,,,,,,,,,,,,,,z,,,,,,,,,,,,,,,,132,0,848.9842,849.8004,z,1,0.8148,,[],[],[],[],[],[],[],849.8005,851.7996,851.7998,851.8004,[],[],[],[],[],[],[],,851.8005,851.8005,0.887963048,-0.160185213,0,0,0,,0,131,131,70,1,1,TL,relugar,print,relugar_p.png,,,,,,
,,,,32240,001,2025-10-15_20h54.16.241,HW_LDT_1,2024.2.4,Win32,59.88023952,,,,,,,,,,,,,,,,,,,,,,851.8019,851.9996,851.9999,852.4996,,,,,,,,,,,,,,1.353,1,,,,,,,,,,,,,,z,,,,,,,,,,,,,,,,133,0,852.501,853.8553,z,1,1.353,,[],[],[],[],[],[],[],853.8555,855.8519,855.852,855.8522,[],[],[],[],[],[],[],,855.8522,855.8523,0.887963048,-0.160185213,0,0,0,,0,132,132,35,1,1,RL,senvilent,cursive,senvilent_c.png,,,,,,
,,,,32240,001,2025-10-15_20h54.16.241,HW_LDT_1,2024.2.4,Win32,59.88023952,,,,,,,,,,,,,,,,,,,,,,855.8537,856.0539,856.0539,856.5495,,,,,,,,,,,,,,1.6146,1,,,,,,,,,,,,,,z,,,,,,,,,,,,,,,,134,1,856.5509,858.1669,z,1,1.6146,,[],[],[],[],[],[],[],858.167,860.1666,860.1668,861.2661,[],[],[],[],[],[],[],z,861.2663,861.2666,0.887963048,-0.160185213,0,0,0,,0,133,133,59,1,1,TL,lirebal,cursive,lirebal_c.png,1.0975,,,,,
,,,,32240,001,2025-10-15_20h54.16.241,HW_LDT_1,2024.2.4,Win32,59.88023952,,,,,,,,,,,,,,,,,,,,,,861.2681,861.4712,861.4713,861.9657,,,,,,,,,,,,,,0.9042,1,,,,,,,,,,,,,,z,,,,,,,,,,,,,,,,135,0,861.9667,862.8825,z,1,0.9042,,[],[],[],[],[],[],[],862.8828,864.8833,864.8835,864.8838,[],[],[],[],[],[],[],,864.8842,864.8845,0.887963048,-0.160185213,0,0,0,,0,134,134,42,1,1,TL,befenit,print,befenit_p.png,,,,,,
,,,,32240,001,2025-10-15_20h54.16.241,HW_LDT_1,2024.2.4,Win32,59.88023952,,,,,,,,,,,,,,,,,,,,,,864.8859,865.0833,865.0835,865.5836,,,,,,,,,,,,,,1.0277,1,,,,,,,,,,,,,,z,,,,,,,,,,,,,,,,136,0,865.5847,866.6168,z,1,1.0277,,[],[],[],[],[],[],[],866.617,868.6168,868.6169,868.6173,[],[],[],[],[],[],[],,868.6174,868.6176,0.887963048,-0.160185213,0,0,0,,0,135,135,47,1,1,TL,cagetory,print,cagetory_p.png,,,,,,
,,,,32240,001,2025-10-15_20h54.16.241,HW_LDT_1,2024.2.4,Win32,59.88023952,,,,,,,,,,,,,,,,,,,,,,868.6189,868.821,868.8212,869.3164,,,,,,,,,,,,,,0.9684,1,,,,,,,,,,,,,,z,,,,,,,,,,,,,,,,137,0,869.3178,870.2871,z,1,0.9684,,[],[],[],[],[],[],[],870.2873,872.2835,872.2836,872.2839,[],[],[],[],[],[],[],,872.284,872.2842,0.887963048,-0.160185213,0,0,0,,0,136,136,6,1,1,RL,crisival,print,crisival_p.png,,,,,,
,,,,32240,001,2025-10-15_20h54.16.241,HW_LDT_1,2024.2.4,Win32,59.88023952,,,,,,,,,,,,,,,,,,,,,,872.2855,872.4834,872.4836,872.9834,,,,,,,,,,,,,,1.0872,1,,,,,,,,,,,,,,m,,,,,,,,,,,,,,,,138,0,872.9844,874.0834,m,1,1.0872,,[],[],[],[],[],[],[],874.0836,876.0881,876.0882,876.0884,[],[],[],[],[],[],[],,876.0884,876.0885,0.887963048,-0.160185213,0,0,0,,0,137,137,156,1,1,word,TRIBUTE,cursive,tribute_c.png,,,,,,
,,,,32240,001,2025-10-15_20h54.16.241,HW_LDT_1,2024.2.4,Win32,59.88023952,,,,,,,,,,,,,,,,,,,,,,876.0901,876.2882,876.2883,876.7878,,,,,,,,,,,,,,0.9592,1,,,,,,,,,,,,,,z,,,,,,,,,,,,,,,,139,0,876.7882,877.7496,z,1,0.9592,,[],[],[],[],[],[],[],877.7499,879.7497,879.7499,879.7503,[],[],[],[],[],[],[],,879.7503,879.7505,0.887963048,-0.160185213,0,0,0,,0,138,138,37,1,1,RL,skofen,print,skofen_p.png,,,,,,
,,,,32240,001,2025-10-15_20h54.16.241,HW_LDT_1,2024.2.4,Win32,59.88023952,,,,,,,,,,,,,,,,,,,,,,879.7522,879.9503,879.9504,880.4497,,,,,,,,,,,,,,1.4533,1,,,,,,,,,,,,,,z,,,,,,,,,,,,,,,,140,0,880.4509,881.9053,z,1,1.4533,,[],[],[],[],[],[],[],881.9054,883.8998,883.8999,883.9002,[],[],[],[],[],[],[],,883.9003,883.9005,0.887963048,-0.160185213,0,0,0,,0,139,139,50,1,1,TL,condiser,cursive,condiser_c.png,,,,,,
,,,,32240,001,2025-10-15_20h54.16.241,HW_LDT_1,2024.2.4,Win32,59.88023952,,,,,,,,,,,,,,,,,,,,,,883.9025,884.1051,884.1052,884.5995,,,,,,,,,,,,,,1.7366,1,,,,,,,,,,,,,,z,,,,,,,,,,,,,,,,141,0,884.601,886.3387,z,1,1.7366,,[],[],[],[],[],[],[],886.3389,888.3337,888.3341,888.3345,[],[],[],[],[],[],[],,888.3346,888.3347,0.887963048,-0.160185213,0,0,0,,0,140,140,18,1,1,RL,mishafe,print,mishafe_p.png,,,,,,
,,,,32240,001,2025-10-15_20h54.16.241,HW_LDT_1,2024.2.4,Win32,59.88023952,,,,,,,,,,,,,,,,,,,,,,888.3359,888.5338,888.534,889.0383,,,,,,,,,,,,,,1.698,1,,,,,,,,,,,,,,z,,,,,,,,,,,,,,,,142,1,889.0389,890.7382,z,1,1.698,,[],[],[],[],[],[],[],890.7383,892.7337,892.7338,894.4,[],[],[],[],[],[],[],z,894.4001,894.4005,0.887963048,-0.160185213,0,0,0,,0,141,141,14,1,1,RL,lofase,print,lofase_p.png,1.6575,,,,,
,,,,32240,001,2025-10-15_20h54.16.241,HW_LDT_1,2024.2.4,Win32,59.88023952,,,,,,,,,,,,,,,,,,,,,,894.4019,894.6001,894.6004,895.1006,,,,,,,,,,,,,,1.8497,0,,,,,,,,,,,,,,m,,,,,,,,,,,,,,,,143,0,895.1021,896.9529,z,0,1.8497,,[],[],[],[],[],[],[],896.953,898.9527,898.9527,898.9529,[],[],[],[],[],[],[],,898.953,898.9532,0.887963048,-0.160185213,0,0,0,,0,142,142,101,1,1,word,DELICATE,cursive,delicate_c.png,,,,,,
,,,,32240,001,2025-10-15_20h54.16.241,HW_LDT_1,2024.2.4,Win32,59.88023952,,,,,,,,,,,,,,,,,,,,,,898.9545,899.1504,899.1505,899.6506,,,,,,,,,,,,,,0.8222,1,,,,,,,,,,,,,,m,,,,,,,,,,,,,,,,144,0,899.6522,900.4839,m,1,0.8222,,[],[],[],[],[],[],[],900.4842,902.4839,902.4841,902.4847,[],[],[],[],[],[],[],,902.4849,902.4852,0.887963048,-0.160185213,0,0,0,,0,143,143,133,1,1,word,PROVIDE,print,provide_p.png,,,,,,
,,,,32240,001,2025-10-15_20h54.16.241,HW_LDT_1,2024.2.4,Win32,59.88023952,,,,,,,,,,,,,,,,,,,,,,902.4864,902.6839,902.684,903.184,,,,,,,,,,,,,,0.8503,1,,,,,,,,,,,,,,m,,,,,,,,,,,,,,,,145,0,903.1853,904.0364,m,1,0.8503,,[],[],[],[],[],[],[],904.0365,906.0328,906.033,906.0334,[],[],[],[],[],[],[],,906.0334,906.0337,0.887963048,-0.160185213,0,0,0,,0,144,144,80,1,1,word,ACADEMY,cursive,academy_c.png,,,,,,
,,,,32240,001,2025-10-15_20h54.16.241,HW_LDT_1,2024.2.4,Win32,59.88023952,,,,,,,,,,,,,,,,,,,,,,906.0353,906.2336,906.2338,906.7364,,,,,,,,,,,,,,0.8179,1,,,,,,,,,,,,,,z,,,,,,,,,,,,,,,,146,0,906.7369,907.556,z,1,0.8179,,[],[],[],[],[],[],[],907.5562,909.5546,909.5546,909.5548,[],[],[],[],[],[],[],,909.5549,909.555,0.887963048,-0.160185213,0,0,0,,0,145,145,51,1,1,TL,corevage,print,corevage_p.png,,,,,,
,,,,32240,001,2025-10-15_20h54.16.241,HW_LDT_1,2024.2.4,Win32,59.88023952,,,,,,,,,,,,,,,,,,,,,,909.5566,909.7527,909.7527,910.2556,,,,,,,,,,,,,,1.8457,1,,,,,,,,,,,,,,m,,,,,,,,,,,,,,,,147,0,910.2563,912.1033,m,1,1.8457,,[],[],[],[],[],[],[],912.1033,914.1006,914.1007,914.101,[],[],[],[],[],[],[],,914.1011,914.1012,0.887963048,-0.160185213,0,0,0,,0,146,146,97,1,1,word,COVERAGE,print,coverage_p.png,,,,,,
,,,,32240,001,2025-10-15_20h54.16.241,HW_LDT_1,2024.2.4,Win32,59.88023952,,,,,,,,,,,,,,,,,,,,,,914.1028,914.3028,914.3028,914.7995,,,,,,,,,,,,,,1.0776,1,,,,,,,,,,,,,,z,,,,,,,,,,,,,,,,148,0,914.8003,915.8837,z,1,1.0776,,[],[],[],[],[],[],[],915.8838,917.8864,917.8864,917.8867,[],[],[],[],[],[],[],,917.8868,917.8868,0.887963048,-0.160185213,0,0,0,,0,147,147,52,1,1,TL,decilate,cursive,decilate_c.png,,,,,,
,,,,32240,001,2025-10-15_20h54.16.241,HW_LDT_1,2024.2.4,Win32,59.88023952,,,,,,,,,,,,,,,,,,,,,,917.8883,918.0841,918.0843,918.584,,,,,,,,,,,,,,2.222,1,,,,,,,,,,,,,,z,,,,,,,,,,,,,,,,149,0,918.5854,920.817,z,1,2.222,,[],[],[],[],[],[],[],920.8171,922.8172,922.8175,922.818,[],[],[],[],[],[],[],,922.8181,922.8183,0.887963048,-0.160185213,0,0,0,,0,148,148,55,1,1,TL,fornute,print,fornute_p.png,,,,,,
,,,,32240,001,2025-10-15_20h54.16.241,HW_LDT_1,2024.2.4,Win32,59.88023952,,,,,,,,,,,,,,,,,,,,,,922.8197,923.0174,923.0176,923.5176,,,,,,,,,,,,,,0.9683,1,,,,,,,,,,,,,,z,,,,,,,,,,,,,,,,150,1,923.5193,924.4886,z,1,0.9683,,[],[],[],[],[],[],[],924.4886,926.4837,926.4838,932.1676,[],[],[],[],[],[],[],z,932.1678,932.1681,0.887963048,-0.160185213,0,0,0,,0,149,149,21,1,1,RL,opcifal,print,opcifal_p.png,5.6731,,,,,
,,,,32240,001,2025-10-15_20h54.16.241,HW_LDT_1,2024.2.4,Win32,59.88023952,,,,,,,,,,,,,,,,,,,,,,932.1697,932.3674,932.3676,932.8673,,,,,,,,,,,,,,3.6366,1,,,,,,,,,,,,,,m,,,,,,,,,,,,,,,,151,0,932.8682,936.5063,m,1,3.6366,,[],[],[],[],[],[],[],936.5064,938.5012,938.5013,938.5015,[],[],[],[],[],[],[],,938.5015,938.5018,0.887963048,-0.160185213,0,0,0,,0,150,150,89,1,1,word,CAPACITY,print,capacity_p.png,,,,,,
,,,,32240,001,2025-10-15_20h54.16.241,HW_LDT_1,2024.2.4,Win32,59.88023952,,,,,,,,,,,,,,,,,,,,,,938.5035,938.7013,938.7014,939.2013,,,,,,,,,,,,,,1.1706,0,,,,,,,,,,,,,,z,,,,,,,,,,,,,,,,152,0,939.2026,940.3848,m,0,1.1706,,[],[],[],[],[],[],[],940.3851,942.3878,942.388,942.3882,[],[],[],[],[],[],[],,942.3883,942.3884,0.887963048,-0.160185213,0,0,0,,0,151,151,66,1,1,TL,panert,cursive,panert_c.png,,,,,,
,,,,32240,001,2025-10-15_20h54.16.241,HW_LDT_1,2024.2.4,Win32,59.88023952,,,,,,,,,,,,,,,,,,,,,,942.3898,942.5889,942.589,943.0848,,,,,,,,,,,,,,1.2504,1,,,,,,,,,,,,,,z,,,,,,,,,,,,,,,,153,0,943.086,944.3375,z,1,1.2504,,[],[],[],[],[],[],[],944.3376,946.3345,946.3345,946.3349,[],[],[],[],[],[],[],,946.335,946.3351,0.887963048,-0.160185213,0,0,0,,0,152,152,67,1,1,TL,pocily,cursive,pocily_c.png,,,,,,
,,,,32240,001,2025-10-15_20h54.16.241,HW_LDT_1,2024.2.4,Win32,59.88023952,,,,,,,,,,,,,,,,,,,,,,946.3372,946.5355,946.5356,947.0349,,,,,,,,,,,,,,1.5417,1,,,,,,,,,,,,,,z,,,,,,,,,,,,,,,,154,0,947.0362,948.5852,z,1,1.5417,,[],[],[],[],[],[],[],948.5854,950.5844,950.5845,950.585,[],[],[],[],[],[],[],,950.5851,950.5852,0.887963048,-0.160185213,0,0,0,,0,153,153,0,1,1,RL,abanemy,cursive,abanemy_c.png,,,,,,
,,,,32240,001,2025-10-15_20h54.16.241,HW_LDT_1,2024.2.4,Win32,59.88023952,,,,,,,,,,,,,,,,,,,,,,950.5871,950.785,950.7851,951.2849,,,,,,,,,,,,,,0.9885,1,,,,,,,,,,,,,,z,,,,,,,,,,,,,,,,155,0,951.2861,952.2851,z,1,0.9885,,[],[],[],[],[],[],[],952.2854,954.2849,954.285,954.2853,[],[],[],[],[],[],[],,954.2855,954.2858,0.887963048,-0.160185213,0,0,0,,0,154,154,15,1,1,RL,losipal,cursive,losipal_c.png,,,,,,
,,,,32240,001,2025-10-15_20h54.16.241,HW_LDT_1,2024.2.4,Win32,59.88023952,,,,,,,,,,,,,,,,,,,,,,954.2869,954.4849,954.485,954.9852,,,,,,,,,,,,,,1.8524,1,,,,,,,,,,,,,,z,,,,,,,,,,,,,,,,156,0,954.9866,956.84,z,1,1.8524,,[],[],[],[],[],[],[],956.8402,958.835,958.8352,958.8356,[],[],[],[],[],[],[],,958.836,958.8363,0.887963048,-0.160185213,0,0,0,,0,155,155,64,1,1,TL,orepator,cursive,orepator_c.png,,,,,,
,,,,32240,001,2025-10-15_20h54.16.241,HW_LDT_1,2024.2.4,Win32,59.88023952,,,,,,,,,,,,,,,,,,,,,,958.8378,959.0349,959.0351,959.5346,,,,,,,,,,,,,,2.4019,1,,,,,,,,,,,,,,z,,,,,,,,,,,,,,,,157,0,959.536,961.9386,z,1,2.4019,,[],[],[],[],[],[],[],961.9387,963.9356,963.9357,963.9361,[],[],[],[],[],[],[],,963.9362,963.9363,0.887963048,-0.160185213,0,0,0,,0,156,156,27,1,1,RL,rasibal,print,rasibal_p.png,,,,,,
,,,,32240,001,2025-10-15_20h54.16.241,HW_LDT_1,2024.2.4,Win32,59.88023952,,,,,,,,,,,,,,,,,,,,,,963.9376,964.1352,964.1355,964.6347,,,,,,,,,,,,,,2.7133,0,,,,,,,,,,,,,,m,,,,,,,,,,,,,,,,158,0,964.6361,967.3514,z,0,2.7133,,[],[],[],[],[],[],[],967.3517,969.3521,969.3522,969.3527,[],[],[],[],[],[],[],,969.3531,969.3532,0.887963048,-0.160185213,0,0,0,,0,157,157,110,1,1,word,HERITAGE,cursive,heritage_c.png,,,,,,
,,,,32240,001,2025-10-15_20h54.16.241,HW_LDT_1,2024.2.4,Win32,59.88023952,,,,,,,,,,,,,,,,,,,,,,969.3546,969.5562,969.5562,970.0569,,,,,,,,,,,,,,1.2067,1,,,,,,,,,,,,,,z,,,,,,,,,,,,,,,,159,0,970.0576,971.2685,z,1,1.2067,,[],[],[],[],[],[],[],971.2687,973.2683,973.2686,973.2691,[],[],[],[],[],[],[],,973.2692,973.2695,0.887963048,-0.160185213,0,0,0,,0,158,158,30,1,1,RL,relone,print,relone_p.png,,,,,,
,,,,32240,001,2025-10-15_20h54.16.241,HW_LDT_1,2024.2.4,Win32,59.88023952,,,,,,,,,,,,,,,,,,,,,,973.2711,973.4682,973.4685,973.9724,,,,,,,,,,,,,,1.1236,1,,,,,,,,,,,,,,m,,,,,,,,,,,,,,,,160,0,973.9732,975.1016,m,1,1.1236,,[],[],[],[],[],[],[],975.1017,977.1019,977.1021,977.1024,[],[],[],[],[],[],[],,977.1026,977.1027,0.887963048,-0.160185213,0,0,0,,0,159,159,128,1,1,word,PACIFIC,print,pacific_p.png,,,,,,
,,,,32240,001,2025-10-15_20h54.16.241,HW_LDT_1,2024.2.4,Win32,59.88023952,,,,,,,,,,,,,,,,,,,,,,,,,,,,,,,,,,,,,,,,,,,,,,,,,,,,,,,,,,,,,,,,,,,,,,,,,,,,,,,,,,,,,,,,,,,,,,,,,,,,,,,,,,,,,,,,,,,,,,,977.1199,982.1027
