counterbalance_lists.group,counterbalance_lists.remaining,get_list.started,get_list.stopped,participant,session,date,expName,psychopyVersion,OS,frameRate,Instructions.started,Instructions.stopped,key_resp.keys,instr_done_touch.x,instr_done_touch.y,instr_done_touch.leftButton,instr_done_touch.midButton,instr_done_touch.rightButton,instr_done_touch.clicked_name,start_instr.thisRepN,start_instr.thisTrialN,start_instr.thisN,start_instr.thisIndex,start_instr.ran,pageN,phase,instruct_text,has_image,instruct_image,key_resp.rt,key_resp.duration,showProgress.started,showProgress.stopped,fix.started,fix.stopped,prac.started,prac.stopped,response.keys,response.corr,response.rt,response.duration,touch_resp.x,touch_resp.y,touch_resp.leftButton,touch_resp.midButton,touch_resp.rightButton,touch_resp.time,touch_resp.clicked_name,rt,corr,feedback.started,feedback.stopped,trials.thisRepN,trials.thisTrialN,trials.thisN,trials.thisIndex,trials.ran,TrialID,StimulusType,Condition,PrimeDuration,Prime,Target,corrAns,Instructions_expt.started,Instructions_expt.stopped,key_resp_3.keys,key_resp_3.rt,key_resp_3.duration,instr_done_touch_3.x,instr_done_touch_3.y,instr_done_touch_3.leftButton,instr_done_touch_3.midButton,instr_done_touch_3.rightButton,instr_experiment.thisRepN,instr_experiment.thisTrialN,instr_experiment.thisN,instr_experiment.thisIndex,instr_experiment.ran,trialID,flag,maintask.started,maintask.stopped,key_resp_2.keys,key_resp_2.corr,key_resp_2.rt,key_resp_2.duration,targ_click.x,targ_click.y,targ_click.leftButton,targ_click.midButton,targ_click.rightButton,targ_click.time,targ_click.clicked_name,ITI.started,ITI.stopped,probe.started,probe.stopped,click_probe.x,click_probe.y,click_probe.leftButton,click_probe.midButton,click_probe.rightButton,click_probe.time,click_probe.clicked_name,key_resp_probe.keys,Break.started,Break.stopped,break_done_touch.x,break_done_touch.y,break_done_touch.leftButton,break_done_touch.midButton,break_done_touch.rightButton,break_done_keyboard.keys,list1_trials.thisRepN,list1_trials.thisTrialN,list1_trials.thisN,list1_trials.thisIndex,list1_trials.ran,list_id,item_type,string,font,stim_file,key_resp_probe.rt,key_resp_probe.duration,break_done_keyboard.rt,break_done_keyboard.duration,End.started,End.stopped
list1,,0.4961,0.4963,32258,001,2025-11-09_15h41.26.109,HW_LDT_1,2024.2.4,Win32,59.52380952,,,,,,,,,,,,,,,,,,,,,,,,,,,,,,,,,,,,,,,,,,,,,,,,,,,,,,,,,,,,,,,,,,,,,,,,,,,,,,,,,,,,,,,,,,,,,,,,,,,,,,,,,,,,,,,,,,,,,,,,
,,,,32258,001,2025-11-09_15h41.26.109,HW_LDT_1,2024.2.4,Win32,59.52380952,0.5388,2.2569,,-0.071296268,-0.380555556,1,0,0,instr_done_button,0,0,0,0,1,1,instructions,"INSTRUCTIONS
At the start of each trial, look at the plus sign  (+) in the center of the screen.  This tells you that a trial is about to begin and where to look. Second, the plus sign will disappear and a string of letters will appear. Your task is to determine if the string of letters is a word or not. If the item is a word press the M key (on keyboard)  or touch the word button (phone/tablet).  If the item is not a word,  press the  Z key (on keyboard)  or touch the nonword button (on phone/tablet). The items will be presented for a short time. 
Press the space bar or touch  continue.",0,,,,,,,,,,,,,,,,,,,,,,,,,,,,,,,,,,,,,,,,,,,,,,,,,,,,,,,,,,,,,,,,,,,,,,,,,,,,,,,,,,,,,,,,,,,,,,,,,,,,,,
,,,,32258,001,2025-11-09_15h41.26.109,HW_LDT_1,2024.2.4,Win32,59.52380952,2.2585,13.7023,space,-0.028703647,-0.390740797,0,0,0,,0,1,1,1,1,2,instructions,"If your device has a keyboard, press the 'Z' key for nonwords and the 'M' key for words.





Press the space bar or touch the button below to continue.",0,keyboard-example.gif,11.4296,,,,,,,,,,,,,,,,,,,,,,,,,,,,,,,,,,,,,,,,,,,,,,,,,,,,,,,,,,,,,,,,,,,,,,,,,,,,,,,,,,,,,,,,,,,,,,,,,,,,
,,,,32258,001,2025-11-09_15h41.26.109,HW_LDT_1,2024.2.4,Win32,59.52380952,13.7031,15.885,space,-0.028703647,-0.390740797,0,0,0,,0,2,2,2,1,3,instructions,"If you are using a touchscreen only device, use the buttons on the screen. Do not use the mouse.





Press the space bar or touch the button below to continue.",0,touchscreen-example.gif,2.1664,,,,,,,,,,,,,,,,,,,,,,,,,,,,,,,,,,,,,,,,,,,,,,,,,,,,,,,,,,,,,,,,,,,,,,,,,,,,,,,,,,,,,,,,,,,,,,,,,,,,
,,,,32258,001,2025-11-09_15h41.26.109,HW_LDT_1,2024.2.4,Win32,59.52380952,15.8866,17.6004,space,-0.028703647,-0.390740797,0,0,0,,0,3,3,3,1,4,instructions,"It is very important that you respond as quickly and accurately as possible, as each letter string will only be on the screen for two seconds. If you do not respond within this time, the message 'Too slow!' will be displayed and the experiment will progress to the next letter string. The first 20 trials will be practice trials and you will receive feedback on your answers. 

Press the space bar or touch the button below to start the practice trials.",0,,1.6994,,,,,,,,,,,,,,,,,,,,,,,,,,,,,,,,,,,,,,,,,,,,,,,,,,,,,,,,,,,,,,,,,,,,,,,,,,,,,,,,,,,,,,,,,,,,,,,,,,,,
,,,,32258,001,2025-11-09_15h41.26.109,HW_LDT_1,2024.2.4,Win32,59.52380952,,,,,,,,,,,,,,,,,,,,,,17.6252,17.7971,17.7973,18.2992,18.2993,20.3796,z,1,2.0549,,[],[],[],[],[],[],[],2.0549,1,20.3799,20.8831,0,0,0,11,1,1012,NW,"ID",16,rashet,RASHET,z,,,,,,,,,,,,,,,,,,,,,,,,,,,,,,,,,,,,,,,,,,,,,,,,,,,,,,,,,,,,,,,,,,
,,,,32258,001,2025-11-09_15h41.26.109,HW_LDT_1,2024.2.4,Win32,59.52380952,,,,,,,,,,,,,,,,,,,,,,20.8842,21.079,21.0791,21.5791,21.5806,22.6989,z,1,1.1001,,[],[],[],[],[],[],[],1.1001,1,22.699,23.1986,0,1,1,12,1,1013,NW,UN,33,adveil,SPRINY,z,,,,,,,,,,,,,,,,,,,,,,,,,,,,,,,,,,,,,,,,,,,,,,,,,,,,,,,,,,,,,,,,,,
,,,,32258,001,2025-11-09_15h41.26.109,HW_LDT_1,2024.2.4,Win32,59.52380952,,,,,,,,,,,,,,,,,,,,,,23.2,23.3963,23.3963,23.895,23.896,24.5977,m,1,0.6831,,[],[],[],[],[],[],[],0.6831,1,24.5978,25.0946,0,2,2,3,1,1004,WORD,"ID",16,matrix,MATRIX,m,,,,,,,,,,,,,,,,,,,,,,,,,,,,,,,,,,,,,,,,,,,,,,,,,,,,,,,,,,,,,,,,,,
,,,,32258,001,2025-11-09_15h41.26.109,HW_LDT_1,2024.2.4,Win32,59.52380952,,,,,,,,,,,,,,,,,,,,,,25.096,25.2945,25.2945,25.7945,25.7958,26.5437,m,1,0.7282,,[],[],[],[],[],[],[],0.7282,1,26.5438,27.045,0,3,3,4,1,1005,WORD,UN,33,abound,SQUEAK,m,,,,,,,,,,,,,,,,,,,,,,,,,,,,,,,,,,,,,,,,,,,,,,,,,,,,,,,,,,,,,,,,,,
,,,,32258,001,2025-11-09_15h41.26.109,HW_LDT_1,2024.2.4,Win32,59.52380952,,,,,,,,,,,,,,,,,,,,,,27.0461,27.2436,27.2437,27.7432,27.7444,28.6763,z,1,0.9118,,[],[],[],[],[],[],[],0.9118,1,28.6765,29.1761,0,4,4,10,1,1011,NW,"ID",16,inlade,INLADE,z,,,,,,,,,,,,,,,,,,,,,,,,,,,,,,,,,,,,,,,,,,,,,,,,,,,,,,,,,,,,,,,,,,
,,,,32258,001,2025-11-09_15h41.26.109,HW_LDT_1,2024.2.4,Win32,59.52380952,,,,,,,,,,,,,,,,,,,,,,29.1771,29.376,29.3761,29.8759,29.8769,30.6769,z,1,0.7811,,[],[],[],[],[],[],[],0.7811,1,30.677,31.1782,0,5,5,9,1,1010,NW,"ID",33,fariny,FARINY,z,,,,,,,,,,,,,,,,,,,,,,,,,,,,,,,,,,,,,,,,,,,,,,,,,,,,,,,,,,,,,,,,,,
,,,,32258,001,2025-11-09_15h41.26.109,HW_LDT_1,2024.2.4,Win32,59.52380952,,,,,,,,,,,,,,,,,,,,,,31.1793,31.3753,31.3754,31.8786,31.8797,32.6756,z,1,0.7691,,[],[],[],[],[],[],[],0.7691,1,32.6759,33.178,0,6,6,14,1,1015,NW,UN,16,miaber,THRALE,z,,,,,,,,,,,,,,,,,,,,,,,,,,,,,,,,,,,,,,,,,,,,,,,,,,,,,,,,,,,,,,,,,,
,,,,32258,001,2025-11-09_15h41.26.109,HW_LDT_1,2024.2.4,Win32,59.52380952,,,,,,,,,,,,,,,,,,,,,,33.1791,33.3774,33.3775,33.877,33.8781,34.4909,m,1,0.5875,,[],[],[],[],[],[],[],0.5875,1,34.4911,34.9933,0,7,7,6,1,1007,WORD,UN,16,tropic,ZOMBIE,m,,,,,,,,,,,,,,,,,,,,,,,,,,,,,,,,,,,,,,,,,,,,,,,,,,,,,,,,,,,,,,,,,,
,,,,32258,001,2025-11-09_15h41.26.109,HW_LDT_1,2024.2.4,Win32,59.52380952,,,,,,,,,,,,,,,,,,,,,,34.9947,35.1909,35.191,35.6908,35.6925,36.2906,m,1,0.5728,,[],[],[],[],[],[],[],0.5728,1,36.2907,36.7904,0,8,8,1,1,1002,WORD,"ID",33,adjust,ADJUST,m,,,,,,,,,,,,,,,,,,,,,,,,,,,,,,,,,,,,,,,,,,,,,,,,,,,,,,,,,,,,,,,,,,
,,,,32258,001,2025-11-09_15h41.26.109,HW_LDT_1,2024.2.4,Win32,59.52380952,,,,,,,,,,,,,,,,,,,,,,36.7914,36.9905,36.9906,37.4903,37.4913,38.8062,m,1,1.2924,,[],[],[],[],[],[],[],1.2924,1,38.8063,39.3062,0,9,9,0,1,1001,WORD,"ID",33,utopia,UTOPIA,m,,,,,,,,,,,,,,,,,,,,,,,,,,,,,,,,,,,,,,,,,,,,,,,,,,,,,,,,,,,,,,,,,,
,,,,32258,001,2025-11-09_15h41.26.109,HW_LDT_1,2024.2.4,Win32,59.52380952,,,,,,,,,,,,,,,,,,,,,,39.3071,39.5065,39.5065,40.0061,40.0068,40.6559,m,1,0.6171,,[],[],[],[],[],[],[],0.6171,1,40.656,41.1557,0,10,10,5,1,1006,WORD,UN,33,frenzy,OBTAIN,m,,,,,,,,,,,,,,,,,,,,,,,,,,,,,,,,,,,,,,,,,,,,,,,,,,,,,,,,,,,,,,,,,,
,,,,32258,001,2025-11-09_15h41.26.109,HW_LDT_1,2024.2.4,Win32,59.52380952,,,,,,,,,,,,,,,,,,,,,,41.1567,41.3552,41.3554,41.857,41.8576,42.5215,z,1,0.6428,,[],[],[],[],[],[],[],0.6428,1,42.5217,43.0262,0,11,11,15,1,1016,NW,UN,16,mushed,WHAISE,z,,,,,,,,,,,,,,,,,,,,,,,,,,,,,,,,,,,,,,,,,,,,,,,,,,,,,,,,,,,,,,,,,,
,,,,32258,001,2025-11-09_15h41.26.109,HW_LDT_1,2024.2.4,Win32,59.52380952,,,,,,,,,,,,,,,,,,,,,,43.0285,43.2219,43.2219,43.7217,43.7234,44.2878,m,1,0.5437,,[],[],[],[],[],[],[],0.5437,1,44.288,44.7888,0,12,12,7,1,1008,WORD,UN,16,hurdle,VOLUME,m,,,,,,,,,,,,,,,,,,,,,,,,,,,,,,,,,,,,,,,,,,,,,,,,,,,,,,,,,,,,,,,,,,
,,,,32258,001,2025-11-09_15h41.26.109,HW_LDT_1,2024.2.4,Win32,59.52380952,,,,,,,,,,,,,,,,,,,,,,44.7894,44.9878,44.9879,45.4873,45.4883,46.121,z,1,0.6124,,[],[],[],[],[],[],[],0.6124,1,46.1215,46.6243,0,13,13,13,1,1014,NW,UN,33,winfer,ROUPET,z,,,,,,,,,,,,,,,,,,,,,,,,,,,,,,,,,,,,,,,,,,,,,,,,,,,,,,,,,,,,,,,,,,
,,,,32258,001,2025-11-09_15h41.26.109,HW_LDT_1,2024.2.4,Win32,59.52380952,,,,,,,,,,,,,,,,,,,,,,46.6256,46.8206,46.8206,47.3205,47.3215,47.8705,m,1,0.5177,,[],[],[],[],[],[],[],0.5177,1,47.8706,48.3704,0,14,14,2,1,1003,WORD,"ID",16,almond,ALMOND,m,,,,,,,,,,,,,,,,,,,,,,,,,,,,,,,,,,,,,,,,,,,,,,,,,,,,,,,,,,,,,,,,,,
,,,,32258,001,2025-11-09_15h41.26.109,HW_LDT_1,2024.2.4,Win32,59.52380952,,,,,,,,,,,,,,,,,,,,,,48.3724,48.57,48.57,49.0702,49.0714,49.9025,z,1,0.8017,,[],[],[],[],[],[],[],0.8017,1,49.9026,50.403,0,15,15,8,1,1009,NW,"ID",33,aslert,ASLERT,z,,,,,,,,,,,,,,,,,,,,,,,,,,,,,,,,,,,,,,,,,,,,,,,,,,,,,,,,,,,,,,,,,,
,,,,32258,001,2025-11-09_15h41.26.109,HW_LDT_1,2024.2.4,Win32,59.52380952,,,,,,,,,,,,,,,1,end_of_practice,"You have completed the practice trials. During the experimental trials, you will not receive feedback. On some trials you will be asked to report whether the item you just saw was in cursive or print. 
Before you begin, please ensure that you are in a comfortable and quiet location and will not be disturbed for about 15 minutes, as we cannot use your data if you do not complete all the trials. 
 When you are ready to start the experimental trials, please press space or touch the button below.",,,,,,,,,,,,,,,,,,,,,,,,,,,,,,,,,,,,,,50.4068,54.9678,space,4.5406,,0.042592621,-0.335185242,0,0,0,0,0,0,0,1,,,,,,,,,,,,,,,,,,,,,,,,,,,,,,,,,,,,,,,,,,,,,,,,,,,
,,,,32258,001,2025-11-09_15h41.26.109,HW_LDT_1,2024.2.4,Win32,59.52380952,,,,,,,,,,,,,,,,,,,,,,54.9725,55.1673,55.1673,55.6672,,,,,,,,,,,,,,4.8663,1,,,,,,,,,,,,,,z,,,,,,,,,,,,,,,,1,0,55.6678,60.5358,z,1,4.8663,,[],[],[],[],[],[],[],60.536,62.5323,62.5326,62.5347,[],[],[],[],[],[],[],,62.5347,62.5364,0.042592621,-0.335185242,0,0,0,,0,0,0,57,1,1,TL,hetirage,cursive,hetirage_c.png,,,,,,
,,,,32258,001,2025-11-09_15h41.26.109,HW_LDT_1,2024.2.4,Win32,59.52380952,,,,,,,,,,,,,,,,,,,,,,62.5368,62.7316,62.7317,63.2316,,,,,,,,,,,,,,1.2017,1,,,,,,,,,,,,,,m,,,,,,,,,,,,,,,,2,0,63.2323,64.4478,m,1,1.2017,,[],[],[],[],[],[],[],64.4479,66.4471,66.4473,66.4475,[],[],[],[],[],[],[],,66.4476,66.4477,0.042592621,-0.335185242,0,0,0,,0,1,1,104,1,1,word,DOMINANT,cursive,dominant_c.png,,,,,,
,,,,32258,001,2025-11-09_15h41.26.109,HW_LDT_1,2024.2.4,Win32,59.52380952,,,,,,,,,,,,,,,,,,,,,,66.4487,66.6468,66.6469,67.1476,,,,,,,,,,,,,,0.6303,1,,,,,,,,,,,,,,m,,,,,,,,,,,,,,,,3,1,67.1483,67.7797,m,1,0.6303,,[],[],[],[],[],[],[],67.7797,69.779,69.7792,73.6278,[],[],[],[],[],[],[],z,73.6279,73.6279,0.042592621,-0.335185242,0,0,0,,0,2,2,131,1,1,word,POPULAR,cursive,popular_c.png,3.8427,,,,,
,,,,32258,001,2025-11-09_15h41.26.109,HW_LDT_1,2024.2.4,Win32,59.52380952,,,,,,,,,,,,,,,,,,,,,,73.6288,73.8277,73.8278,74.3279,,,,,,,,,,,,,,2.9704,1,,,,,,,,,,,,,,z,,,,,,,,,,,,,,,,4,0,74.3282,77.3107,z,1,2.9704,,[],[],[],[],[],[],[],77.311,79.3092,79.3093,79.3095,[],[],[],[],[],[],[],,79.3096,79.3097,0.042592621,-0.335185242,0,0,0,,0,3,3,69,1,1,TL,radiply,cursive,radiply_c.png,,,,,,
,,,,32258,001,2025-11-09_15h41.26.109,HW_LDT_1,2024.2.4,Win32,59.52380952,,,,,,,,,,,,,,,,,,,,,,79.3106,79.5091,79.5091,80.0112,,,,,,,,,,,,,,3.1164,1,,,,,,,,,,,,,,z,,,,,,,,,,,,,,,,5,0,80.0116,83.1413,z,1,3.1164,,[],[],[],[],[],[],[],83.1413,85.1407,85.1408,85.141,[],[],[],[],[],[],[],,85.1411,85.1411,0.042592621,-0.335185242,0,0,0,,0,4,4,31,1,1,RL,reconal,cursive,reconal_c.png,,,,,,
,,,,32258,001,2025-11-09_15h41.26.109,HW_LDT_1,2024.2.4,Win32,59.52380952,,,,,,,,,,,,,,,,,,,,,,85.1419,85.3407,85.3407,85.8403,,,,,,,,,,,,,,2.5271,1,,,,,,,,,,,,,,m,,,,,,,,,,,,,,,,6,0,85.8409,88.3728,m,1,2.5271,,[],[],[],[],[],[],[],88.373,90.3724,90.3725,90.373,[],[],[],[],[],[],[],,90.3731,90.3732,0.042592621,-0.335185242,0,0,0,,0,5,5,151,1,1,word,SPECIFIC,cursive,specific_c.png,,,,,,
,,,,32258,001,2025-11-09_15h41.26.109,HW_LDT_1,2024.2.4,Win32,59.52380952,,,,,,,,,,,,,,,,,,,,,,90.374,90.5751,90.5751,91.0721,,,,,,,,,,,,,,2.1383,1,,,,,,,,,,,,,,z,,,,,,,,,,,,,,,,7,0,91.0726,93.2213,z,1,2.1383,,[],[],[],[],[],[],[],93.2215,95.2205,95.2205,95.2207,[],[],[],[],[],[],[],,95.2207,95.2208,0.042592621,-0.335185242,0,0,0,,0,6,6,36,1,1,RL,speniven,cursive,speniven_c.png,,,,,,
,,,,32258,001,2025-11-09_15h41.26.109,HW_LDT_1,2024.2.4,Win32,59.52380952,,,,,,,,,,,,,,,,,,,,,,95.2215,95.4201,95.4201,95.92,,,,,,,,,,,,,,0.9904,1,,,,,,,,,,,,,,z,,,,,,,,,,,,,,,,8,0,95.9205,96.9202,z,1,0.9904,,[],[],[],[],[],[],[],96.9204,98.9189,98.919,98.9191,[],[],[],[],[],[],[],,98.9191,98.9192,0.042592621,-0.335185242,0,0,0,,0,7,7,26,1,1,RL,quafidy,cursive,quafidy_c.png,,,,,,
,,,,32258,001,2025-11-09_15h41.26.109,HW_LDT_1,2024.2.4,Win32,59.52380952,,,,,,,,,,,,,,,,,,,,,,98.9201,99.119,99.119,99.6189,,,,,,,,,,,,,,0.9401,1,,,,,,,,,,,,,,m,,,,,,,,,,,,,,,,9,0,99.6195,100.5687,m,1,0.9401,,[],[],[],[],[],[],[],100.5688,102.5683,102.5683,102.5685,[],[],[],[],[],[],[],,102.5688,102.5691,0.042592621,-0.335185242,0,0,0,,0,8,8,112,1,1,word,LIBERAL,cursive,liberal_c.png,,,,,,
,,,,32258,001,2025-11-09_15h41.26.109,HW_LDT_1,2024.2.4,Win32,59.52380952,,,,,,,,,,,,,,,,,,,,,,102.5707,102.7684,102.7685,103.2678,,,,,,,,,,,,,,0.7035,1,,,,,,,,,,,,,,z,,,,,,,,,,,,,,,,10,0,103.2684,103.985,z,1,0.7035,,[],[],[],[],[],[],[],103.9851,105.9882,105.9883,105.9885,[],[],[],[],[],[],[],,105.9886,105.9892,0.042592621,-0.335185242,0,0,0,,0,9,9,20,1,1,RL,nunewical,print,nunewical_p.png,,,,,,
,,,,32258,001,2025-11-09_15h41.26.109,HW_LDT_1,2024.2.4,Win32,59.52380952,,,,,,,,,,,,,,,,,,,,,,105.9905,106.1867,106.1867,106.6845,,,,,,,,,,,,,,1.9499,1,,,,,,,,,,,,,,z,,,,,,,,,,,,,,,,11,0,106.6854,108.6367,z,1,1.9499,,[],[],[],[],[],[],[],108.6367,110.633,110.6332,110.6335,[],[],[],[],[],[],[],,110.6337,110.6339,0.042592621,-0.335185242,0,0,0,,0,10,10,1,1,1,RL,adnicory,cursive,adnicory_c.png,,,,,,
,,,,32258,001,2025-11-09_15h41.26.109,HW_LDT_1,2024.2.4,Win32,59.52380952,,,,,,,,,,,,,,,,,,,,,,110.6355,110.8323,110.8324,111.3317,,,,,,,,,,,,,,2.2509,1,,,,,,,,,,,,,,m,,,,,,,,,,,,,,,,12,0,111.3328,113.5852,m,1,2.2509,,[],[],[],[],[],[],[],113.5852,115.5804,115.5805,115.5807,[],[],[],[],[],[],[],,115.5807,115.5808,0.042592621,-0.335185242,0,0,0,,0,11,11,88,1,1,word,CAMERA,cursive,camera_c.png,,,,,,
,,,,32258,001,2025-11-09_15h41.26.109,HW_LDT_1,2024.2.4,Win32,59.52380952,,,,,,,,,,,,,,,,,,,,,,115.582,115.7801,115.7802,116.2808,,,,,,,,,,,,,,4.0032,0,,,,,,,,,,,,,,z,,,,,,,,,,,,,,,,13,0,116.2815,120.2955,m,0,4.0032,,[],[],[],[],[],[],[],120.2956,122.2949,122.295,122.2955,[],[],[],[],[],[],[],,122.2955,122.296,0.042592621,-0.335185242,0,0,0,,0,12,12,73,1,1,TL,ronamtic,cursive,ronamtic_c.png,,,,,,
,,,,32258,001,2025-11-09_15h41.26.109,HW_LDT_1,2024.2.4,Win32,59.52380952,,,,,,,,,,,,,,,,,,,,,,122.2976,122.4955,122.4955,122.9948,,,,,,,,,,,,,,0.7102,1,,,,,,,,,,,,,,z,,,,,,,,,,,,,,,,14,0,122.9959,123.711,z,1,0.7102,,[],[],[],[],[],[],[],123.7111,125.7102,125.7102,125.7106,[],[],[],[],[],[],[],,125.7107,125.711,0.042592621,-0.335185242,0,0,0,,0,13,13,21,1,1,RL,opcifal,print,opcifal_p.png,,,,,,
,,,,32258,001,2025-11-09_15h41.26.109,HW_LDT_1,2024.2.4,Win32,59.52380952,,,,,,,,,,,,,,,,,,,,,,125.7124,125.9106,125.9107,126.4101,,,,,,,,,,,,,,2.3359,1,,,,,,,,,,,,,,z,,,,,,,,,,,,,,,,15,0,126.4116,128.7596,z,1,2.3359,,[],[],[],[],[],[],[],128.7598,130.7593,130.7594,130.7596,[],[],[],[],[],[],[],,130.7597,130.7597,0.042592621,-0.335185242,0,0,0,,0,14,14,70,1,1,TL,relugar,print,relugar_p.png,,,,,,
,,,,32258,001,2025-11-09_15h41.26.109,HW_LDT_1,2024.2.4,Win32,59.52380952,,,,,,,,,,,,,,,,,,,,,,130.7612,130.9583,130.9583,131.4582,,,,,,,,,,,,,,5.697,1,,,,,,,,,,,,,,m,,,,,,,,,,,,,,,,16,0,131.459,137.1575,m,1,5.697,,[],[],[],[],[],[],[],137.1576,139.1557,139.1557,139.1559,[],[],[],[],[],[],[],,139.156,139.1562,0.042592621,-0.335185242,0,0,0,,0,15,15,94,1,1,word,CLINICAL,cursive,clinical_c.png,,,,,,
,,,,32258,001,2025-11-09_15h41.26.109,HW_LDT_1,2024.2.4,Win32,59.52380952,,,,,,,,,,,,,,,,,,,,,,139.1576,139.3558,139.3559,139.8555,,,,,,,,,,,,,,0.5794,1,,,,,,,,,,,,,,m,,,,,,,,,,,,,,,,17,1,139.8564,140.4383,m,1,0.5794,,[],[],[],[],[],[],[],140.4384,142.4377,142.4377,144.2592,[],[],[],[],[],[],[],m,144.2594,144.2595,0.042592621,-0.335185242,0,0,0,,0,16,16,90,1,1,word,CAPITAL,print,capital_p.png,1.82,,,,,
,,,,32258,001,2025-11-09_15h41.26.109,HW_LDT_1,2024.2.4,Win32,59.52380952,,,,,,,,,,,,,,,,,,,,,,144.2612,144.4544,144.4545,144.9536,,,,,,,,,,,,,,1.5195,1,,,,,,,,,,,,,,m,,,,,,,,,,,,,,,,18,0,144.9542,146.4865,m,1,1.5195,,[],[],[],[],[],[],[],146.4866,148.4857,148.4858,148.4861,[],[],[],[],[],[],[],,148.4861,148.4861,0.042592621,-0.335185242,0,0,0,,0,17,17,83,1,1,word,ANIMAL,print,animal_p.png,,,,,,
,,,,32258,001,2025-11-09_15h41.26.109,HW_LDT_1,2024.2.4,Win32,59.52380952,,,,,,,,,,,,,,,,,,,,,,148.4869,148.6855,148.6855,149.1857,,,,,,,,,,,,,,0.9642,1,,,,,,,,,,,,,,m,,,,,,,,,,,,,,,,19,0,149.1862,150.1512,m,1,0.9642,,[],[],[],[],[],[],[],150.1513,152.151,152.151,152.1513,[],[],[],[],[],[],[],,152.1514,152.1516,0.042592621,-0.335185242,0,0,0,,0,18,18,124,1,1,word,NUMERICAL,print,numerical_p.png,,,,,,
,,,,32258,001,2025-11-09_15h41.26.109,HW_LDT_1,2024.2.4,Win32,59.52380952,,,,,,,,,,,,,,,,,,,,,,152.1525,152.3509,152.3509,152.8508,,,,,,,,,,,,,,3.0568,1,,,,,,,,,,,,,,z,,,,,,,,,,,,,,,,20,0,152.8514,155.9165,z,1,3.0568,,[],[],[],[],[],[],[],155.9167,157.9156,157.9158,157.9159,[],[],[],[],[],[],[],,157.916,157.916,0.042592621,-0.335185242,0,0,0,,0,19,19,75,1,1,TL,speficic,cursive,speficic_c.png,,,,,,
,,,,32258,001,2025-11-09_15h41.26.109,HW_LDT_1,2024.2.4,Win32,59.52380952,,,,,,,,,,,,,,,,,,,,,,157.9168,158.1154,158.1155,158.6152,,,,,,,,,,,,,,0.7862,1,,,,,,,,,,,,,,z,,,,,,,,,,,,,,,,21,0,158.6156,159.4153,z,1,0.7862,,[],[],[],[],[],[],[],159.4154,161.4142,161.4142,161.4143,[],[],[],[],[],[],[],,161.4144,161.4145,0.042592621,-0.335185242,0,0,0,,0,20,20,32,1,1,RL,rebicent,print,rebicent_p.png,,,,,,
,,,,32258,001,2025-11-09_15h41.26.109,HW_LDT_1,2024.2.4,Win32,59.52380952,,,,,,,,,,,,,,,,,,,,,,161.4154,161.6143,161.6144,162.1143,,,,,,,,,,,,,,0.7188,1,,,,,,,,,,,,,,z,,,,,,,,,,,,,,,,22,0,162.115,162.8474,z,1,0.7188,,[],[],[],[],[],[],[],162.8475,164.8465,164.8465,164.8466,[],[],[],[],[],[],[],,164.8466,164.8466,0.042592621,-0.335185242,0,0,0,,0,21,21,18,1,1,RL,mishafe,print,mishafe_p.png,,,,,,
,,,,32258,001,2025-11-09_15h41.26.109,HW_LDT_1,2024.2.4,Win32,59.52380952,,,,,,,,,,,,,,,,,,,,,,164.8475,165.0467,165.0468,165.5467,,,,,,,,,,,,,,0.652,1,,,,,,,,,,,,,,z,,,,,,,,,,,,,,,,23,0,165.5471,166.2126,z,1,0.652,,[],[],[],[],[],[],[],166.2127,168.2124,168.2127,168.2128,[],[],[],[],[],[],[],,168.2129,168.2129,0.042592621,-0.335185242,0,0,0,,0,22,22,12,1,1,RL,ebiwent,print,ebiwent_p.png,,,,,,
,,,,32258,001,2025-11-09_15h41.26.109,HW_LDT_1,2024.2.4,Win32,59.52380952,,,,,,,,,,,,,,,,,,,,,,168.2135,168.4119,168.4119,168.912,,,,,,,,,,,,,,1.7354,0,,,,,,,,,,,,,,m,,,,,,,,,,,,,,,,24,0,168.9126,170.6487,z,0,1.7354,,[],[],[],[],[],[],[],170.6488,172.6441,172.6441,172.6443,[],[],[],[],[],[],[],,172.6444,172.6445,0.042592621,-0.335185242,0,0,0,,0,23,23,146,1,1,word,RETIRE,cursive,retire_c.png,,,,,,
,,,,32258,001,2025-11-09_15h41.26.109,HW_LDT_1,2024.2.4,Win32,59.52380952,,,,,,,,,,,,,,,,,,,,,,172.6454,172.8437,172.8437,173.3443,,,,,,,,,,,,,,0.5507,1,,,,,,,,,,,,,,m,,,,,,,,,,,,,,,,25,0,173.3449,173.8963,m,1,0.5507,,[],[],[],[],[],[],[],173.8964,175.8928,175.8929,175.893,[],[],[],[],[],[],[],,175.8931,175.8932,0.042592621,-0.335185242,0,0,0,,0,24,24,153,1,1,word,STOLEN,print,stolen_p.png,,,,,,
,,,,32258,001,2025-11-09_15h41.26.109,HW_LDT_1,2024.2.4,Win32,59.52380952,,,,,,,,,,,,,,,,,,,,,,175.894,176.0947,176.0948,176.5928,,,,,,,,,,,,,,0.5105,1,,,,,,,,,,,,,,m,,,,,,,,,,,,,,,,26,0,176.5932,177.1093,m,1,0.5105,,[],[],[],[],[],[],[],177.1094,179.1087,179.1088,179.109,[],[],[],[],[],[],[],,179.1091,179.1091,0.042592621,-0.335185242,0,0,0,,0,25,25,99,1,1,word,DEBATE,print,debate_p.png,,,,,,
,,,,32258,001,2025-11-09_15h41.26.109,HW_LDT_1,2024.2.4,Win32,59.52380952,,,,,,,,,,,,,,,,,,,,,,179.1101,179.3084,179.3085,179.8088,,,,,,,,,,,,,,0.6344,0,,,,,,,,,,,,,,z,,,,,,,,,,,,,,,,27,0,179.8094,180.4446,m,0,0.6344,,[],[],[],[],[],[],[],180.4446,182.4406,182.4407,182.4409,[],[],[],[],[],[],[],,182.4409,182.441,0.042592621,-0.335185242,0,0,0,,0,26,26,64,1,1,TL,orepator,cursive,orepator_c.png,,,,,,
,,,,32258,001,2025-11-09_15h41.26.109,HW_LDT_1,2024.2.4,Win32,59.52380952,,,,,,,,,,,,,,,,,,,,,,182.4419,182.6408,182.6409,183.1404,,,,,,,,,,,,,,1.0684,1,,,,,,,,,,,,,,z,,,,,,,,,,,,,,,,28,0,183.1409,184.2103,z,1,1.0684,,[],[],[],[],[],[],[],184.2118,186.2062,186.2062,186.2064,[],[],[],[],[],[],[],,186.2064,186.2065,0.042592621,-0.335185242,0,0,0,,0,27,27,23,1,1,RL,potugar,cursive,potugar_c.png,,,,,,
,,,,32258,001,2025-11-09_15h41.26.109,HW_LDT_1,2024.2.4,Win32,59.52380952,,,,,,,,,,,,,,,,,,,,,,186.2073,186.4063,186.4063,186.906,,,,,,,,,,,,,,0.6623,1,,,,,,,,,,,,,,z,,,,,,,,,,,,,,,,29,0,186.9065,187.5724,z,1,0.6623,,[],[],[],[],[],[],[],187.5724,189.5719,189.5719,189.5722,[],[],[],[],[],[],[],,189.5722,189.5724,0.042592621,-0.335185242,0,0,0,,0,28,28,0,1,1,RL,abanemy,cursive,abanemy_c.png,,,,,,
,,,,32258,001,2025-11-09_15h41.26.109,HW_LDT_1,2024.2.4,Win32,59.52380952,,,,,,,,,,,,,,,,,,,,,,189.5733,189.7719,189.7719,190.2713,,,,,,,,,,,,,,8.4536,0,,,,,,,,,,,,,,m,,,,,,,,,,,,,,,,30,0,190.2717,198.7355,z,0,8.4536,,[],[],[],[],[],[],[],198.7355,200.7347,200.7348,200.735,[],[],[],[],[],[],[],,200.7351,200.7352,0.042592621,-0.335185242,0,0,0,,0,29,29,125,1,1,word,OPERATOR,cursive,operator_c.png,,,,,,
,,,,32258,001,2025-11-09_15h41.26.109,HW_LDT_1,2024.2.4,Win32,59.52380952,,,,,,,,,,,,,,,,,,,,,,200.7364,200.936,200.936,201.4338,,,,,,,,,,,,,,0.7773,1,,,,,,,,,,,,,,z,,,,,,,,,,,,,,,,31,0,201.4343,202.2173,z,1,0.7773,,[],[],[],[],[],[],[],202.2174,204.2169,204.217,204.2171,[],[],[],[],[],[],[],,204.2171,204.2172,0.042592621,-0.335185242,0,0,0,,0,30,30,13,1,1,RL,linefal,print,linefal_p.png,,,,,,
,,,,32258,001,2025-11-09_15h41.26.109,HW_LDT_1,2024.2.4,Win32,59.52380952,,,,,,,,,,,,,,,,,,,,,,204.2182,204.418,204.4181,204.9163,,,,,,,,,,,,,,0.6191,1,,,,,,,,,,,,,,m,,,,,,,,,,,,,,,,32,0,204.9168,205.5366,m,1,0.6191,,[],[],[],[],[],[],[],205.5367,207.5323,207.5324,207.5326,[],[],[],[],[],[],[],,207.5326,207.5327,0.042592621,-0.335185242,0,0,0,,0,31,31,100,1,1,word,DECADE,print,decade_p.png,,,,,,
,,,,32258,001,2025-11-09_15h41.26.109,HW_LDT_1,2024.2.4,Win32,59.52380952,,,,,,,,,,,,,,,,,,,,,,207.5335,207.7324,207.7324,208.2318,,,,,,,,,,,,,,0.6142,1,,,,,,,,,,,,,,m,,,,,,,,,,,,,,,,33,0,208.2324,208.8484,m,1,0.6142,,[],[],[],[],[],[],[],208.8484,210.8479,210.848,210.8484,[],[],[],[],[],[],[],,210.8484,210.8486,0.042592621,-0.335185242,0,0,0,,0,32,32,109,1,1,word,GRATEFUL,print,grateful_p.png,,,,,,
,,,,32258,001,2025-11-09_15h41.26.109,HW_LDT_1,2024.2.4,Win32,59.52380952,,,,,,,,,,,,,,,,,,,,,,210.8501,211.0482,211.0483,211.5482,,,,,,,,,,,,,,0.6081,0,,,,,,,,,,,,,,m,,,,,,,,,,,,,,,,34,0,211.549,212.1647,z,0,0.6081,,[],[],[],[],[],[],[],212.1648,214.164,214.164,214.1645,[],[],[],[],[],[],[],,214.1645,214.1646,0.042592621,-0.335185242,0,0,0,,0,33,33,135,1,1,word,QUALITY,cursive,quality_c.png,,,,,,
,,,,32258,001,2025-11-09_15h41.26.109,HW_LDT_1,2024.2.4,Win32,59.52380952,,,,,,,,,,,,,,,,,,,,,,214.1664,214.3637,214.3639,214.8634,,,,,,,,,,,,,,0.635,1,,,,,,,,,,,,,,m,,,,,,,,,,,,,,,,35,0,214.8643,215.5003,m,1,0.635,,[],[],[],[],[],[],[],215.5004,217.4959,217.4961,217.4964,[],[],[],[],[],[],[],,217.4965,217.4966,0.042592621,-0.335185242,0,0,0,,0,34,34,84,1,1,word,BELOVED,print,beloved_p.png,,,,,,
,,,,32258,001,2025-11-09_15h41.26.109,HW_LDT_1,2024.2.4,Win32,59.52380952,,,,,,,,,,,,,,,,,,,,,,217.498,217.6956,217.6957,218.1954,,,,,,,,,,,,,,0.9743,1,,,,,,,,,,,,,,z,,,,,,,,,,,,,,,,36,0,218.196,219.1785,z,1,0.9743,,[],[],[],[],[],[],[],219.1786,221.1778,221.1779,221.1782,[],[],[],[],[],[],[],,221.1782,221.1784,0.042592621,-0.335185242,0,0,0,,0,35,35,42,1,1,TL,befenit,print,befenit_p.png,,,,,,
,,,,32258,001,2025-11-09_15h41.26.109,HW_LDT_1,2024.2.4,Win32,59.52380952,,,,,,,,,,,,,,,,,,,,,,221.1795,221.3778,221.3779,221.8783,,,,,,,,,,,,,,0.7583,1,,,,,,,,,,,,,,m,,,,,,,,,,,,,,,,37,0,221.879,222.6442,m,1,0.7583,,[],[],[],[],[],[],[],222.6446,224.6434,224.6435,224.6441,[],[],[],[],[],[],[],,224.6442,224.6444,0.042592621,-0.335185242,0,0,0,,0,36,36,113,1,1,word,LITERAL,print,literal_p.png,,,,,,
,,,,32258,001,2025-11-09_15h41.26.109,HW_LDT_1,2024.2.4,Win32,59.52380952,,,,,,,,,,,,,,,,,,,,,,224.6464,224.8465,224.8466,225.343,,,,,,,,,,,,,,1.689,1,,,,,,,,,,,,,,m,,,,,,,,,,,,,,,,38,0,225.3437,227.0427,m,1,1.689,,[],[],[],[],[],[],[],227.0429,229.0419,229.0419,229.0424,[],[],[],[],[],[],[],,229.0426,229.0428,0.042592621,-0.335185242,0,0,0,,0,37,37,143,1,1,word,REMOVAL,cursive,removal_c.png,,,,,,
,,,,32258,001,2025-11-09_15h41.26.109,HW_LDT_1,2024.2.4,Win32,59.52380952,,,,,,,,,,,,,,,,,,,,,,229.0445,229.2426,229.2427,229.7422,,,,,,,,,,,,,,1.4356,1,,,,,,,,,,,,,,m,,,,,,,,,,,,,,,,39,0,229.743,231.1919,m,1,1.4356,,[],[],[],[],[],[],[],231.192,233.1907,233.1908,233.1912,[],[],[],[],[],[],[],,233.1915,233.1917,0.042592621,-0.335185242,0,0,0,,0,38,38,80,1,1,word,ACADEMY,cursive,academy_c.png,,,,,,
,,,,32258,001,2025-11-09_15h41.26.109,HW_LDT_1,2024.2.4,Win32,59.52380952,,,,,,,,,,,,,,,,,,,,,,233.1933,233.3904,233.3904,233.8901,,,,,,,,,,,,,,1.1364,1,,,,,,,,,,,,,,z,,,,,,,,,,,,,,,,40,1,233.8907,235.0397,z,1,1.1364,,[],[],[],[],[],[],[],235.0398,237.039,237.039,244.6362,[],[],[],[],[],[],[],m,244.6363,244.6363,0.042592621,-0.335185242,0,0,0,,0,39,39,47,1,1,TL,cagetory,print,cagetory_p.png,7.5843,,,,,
,,,,32258,001,2025-11-09_15h41.26.109,HW_LDT_1,2024.2.4,Win32,59.52380952,,,,,,,,,,,,,,,,,,,,,,244.6373,244.8362,244.8363,245.3389,,,,,,,,,,,,,,0.7264,1,,,,,,,,,,,,,,m,,,,,,,,,,,,,,,,41,0,245.3392,246.069,m,1,0.7264,,[],[],[],[],[],[],[],246.0691,248.0681,248.0682,248.0683,[],[],[],[],[],[],[],,248.0683,248.0683,0.042592621,-0.335185242,0,0,0,,0,40,40,144,1,1,word,RESIDENT,print,resident_p.png,,,,,,
,,,,32258,001,2025-11-09_15h41.26.109,HW_LDT_1,2024.2.4,Win32,59.52380952,,,,,,,,,,,,,,,,,,,,,,248.069,248.2683,248.2685,248.7681,,,,,,,,,,,,,,0.7193,1,,,,,,,,,,,,,,z,,,,,,,,,,,,,,,,42,0,248.7686,249.5014,z,1,0.7193,,[],[],[],[],[],[],[],249.5015,251.5007,251.5008,251.5012,[],[],[],[],[],[],[],,251.5012,251.5017,0.042592621,-0.335185242,0,0,0,,0,41,41,6,1,1,RL,crisival,print,crisival_p.png,,,,,,
,,,,32258,001,2025-11-09_15h41.26.109,HW_LDT_1,2024.2.4,Win32,59.52380952,,,,,,,,,,,,,,,,,,,,,,251.5028,251.7033,251.7034,252.2004,,,,,,,,,,,,,,8.917,1,,,,,,,,,,,,,,z,,,,,,,,,,,,,,,,43,0,252.2009,261.131,z,1,8.917,,[],[],[],[],[],[],[],261.1311,263.13,263.1301,263.1302,[],[],[],[],[],[],[],,263.1302,263.1303,0.042592621,-0.335185242,0,0,0,,0,42,42,39,1,1,RL,vabifity,cursive,vabifity_c.png,,,,,,
,,,,32258,001,2025-11-09_15h41.26.109,HW_LDT_1,2024.2.4,Win32,59.52380952,,,,,,,,,,,,,,,,,,,,,,263.1312,263.3313,263.3313,263.8296,,,,,,,,,,,,,,3.3235,1,,,,,,,,,,,,,,m,,,,,,,,,,,,,,,,44,0,263.8302,267.162,m,1,3.3235,,[],[],[],[],[],[],[],267.1621,269.163,269.163,269.1632,[],[],[],[],[],[],[],,269.1632,269.1632,0.042592621,-0.335185242,0,0,0,,0,43,43,149,1,1,word,SENATOR,cursive,senator_c.png,,,,,,
,,,,32258,001,2025-11-09_15h41.26.109,HW_LDT_1,2024.2.4,Win32,59.52380952,,,,,,,,,,,,,,,,,,,,,,269.1642,269.3636,269.3637,269.861,,,,,,,,,,,,,,1.1027,1,,,,,,,,,,,,,,z,,,,,,,,,,,,,,,,45,1,269.8614,270.9647,z,1,1.1027,,[],[],[],[],[],[],[],270.9647,272.9601,272.9603,275.2623,[],[],[],[],[],[],[],z,275.2624,275.2624,0.042592621,-0.335185242,0,0,0,,0,44,44,60,1,1,TL,manire,print,manire_p.png,2.3014,,,,,
,,,,32258,001,2025-11-09_15h41.26.109,HW_LDT_1,2024.2.4,Win32,59.52380952,,,,,,,,,,,,,,,,,,,,,,275.2631,275.4608,275.4608,275.9592,,,,,,,,,,,,,,0.6832,1,,,,,,,,,,,,,,m,,,,,,,,,,,,,,,,46,0,275.9598,276.6438,m,1,0.6832,,[],[],[],[],[],[],[],276.6439,278.6412,278.6413,278.6414,[],[],[],[],[],[],[],,278.6415,278.6415,0.042592621,-0.335185242,0,0,0,,0,45,45,91,1,1,word,CARDINAL,print,cardinal_p.png,,,,,,
,,,,32258,001,2025-11-09_15h41.26.109,HW_LDT_1,2024.2.4,Win32,59.52380952,,,,,,,,,,,,,,,,,,,,,,278.6424,278.8415,278.8415,279.3419,,,,,,,,,,,,,,0.784,1,,,,,,,,,,,,,,m,,,,,,,,,,,,,,,,47,0,279.3427,280.1272,m,1,0.784,,[],[],[],[],[],[],[],280.1273,282.1252,282.1253,282.1254,[],[],[],[],[],[],[],,282.1255,282.1256,0.042592621,-0.335185242,0,0,0,,0,46,46,85,1,1,word,BENEFIT,print,benefit_p.png,,,,,,
,,,,32258,001,2025-11-09_15h41.26.109,HW_LDT_1,2024.2.4,Win32,59.52380952,,,,,,,,,,,,,,,,,,,,,,282.1265,282.3235,282.3236,282.8232,,,,,,,,,,,,,,2.8712,1,,,,,,,,,,,,,,z,,,,,,,,,,,,,,,,48,1,282.8239,285.7057,z,1,2.8712,,[],[],[],[],[],[],[],285.7058,287.705,287.7051,289.904,[],[],[],[],[],[],[],m,289.9041,289.9042,0.042592621,-0.335185242,0,0,0,,0,47,47,76,1,1,TL,stragety,cursive,stragety_c.png,2.1962,,,,,
,,,,32258,001,2025-11-09_15h41.26.109,HW_LDT_1,2024.2.4,Win32,59.52380952,,,,,,,,,,,,,,,,,,,,,,289.9049,290.1068,290.1068,290.6072,,,,,,,,,,,,,,2.6366,1,,,,,,,,,,,,,,z,,,,,,,,,,,,,,,,49,0,290.6076,293.2533,z,1,2.6366,,[],[],[],[],[],[],[],293.2534,295.2529,295.2531,295.2533,[],[],[],[],[],[],[],,295.2534,295.2535,0.042592621,-0.335185242,0,0,0,,0,48,48,65,1,1,TL,orinigal,cursive,orinigal_c.png,,,,,,
,,,,32258,001,2025-11-09_15h41.26.109,HW_LDT_1,2024.2.4,Win32,59.52380952,,,,,,,,,,,,,,,,,,,,,,295.2548,295.4524,295.4524,295.952,,,,,,,,,,,,,,1.19,1,,,,,,,,,,,,,,z,,,,,,,,,,,,,,,,50,0,295.9525,297.1516,z,1,1.19,,[],[],[],[],[],[],[],297.1517,299.1513,299.1513,299.1517,[],[],[],[],[],[],[],,299.1517,299.1517,0.042592621,-0.335185242,0,0,0,,0,49,49,55,1,1,TL,fornute,print,fornute_p.png,,,,,,
,,,,32258,001,2025-11-09_15h41.26.109,HW_LDT_1,2024.2.4,Win32,59.52380952,,,,,,,,,,,,,,,,,,,,,,299.1527,299.3526,299.3527,299.8513,,,,,,,,,,,,,,4.1445,1,,,,,,,,,,,,,,z,,,,,,,,,,,,,,,,51,0,299.8521,303.9998,z,1,4.1445,,[],[],[],[],[],[],[],303.9999,306.0012,306.0014,306.0016,[],[],[],[],[],[],[],,306.0017,306.0018,0.042592621,-0.335185242,0,0,0,,0,50,50,16,1,1,RL,marmipal,print,marmipal_p.png,,,,,,
,,,,32258,001,2025-11-09_15h41.26.109,HW_LDT_1,2024.2.4,Win32,59.52380952,,,,,,,,,,,,,,,,,,,,,,306.0036,306.1989,306.1989,306.6988,,,,,,,,,,,,,,2.6026,1,,,,,,,,,,,,,,m,,,,,,,,,,,,,,,,52,0,306.6998,309.3146,m,1,2.6026,,[],[],[],[],[],[],[],309.3147,311.3139,311.314,311.3144,[],[],[],[],[],[],[],,311.3145,311.3146,0.042592621,-0.335185242,0,0,0,,0,51,51,137,1,1,word,RAPIDLY,cursive,rapidly_c.png,,,,,,
,,,,32258,001,2025-11-09_15h41.26.109,HW_LDT_1,2024.2.4,Win32,59.52380952,,,,,,,,,,,,,,,,,,,,,,311.3164,311.5144,311.5145,312.0141,,,,,,,,,,,,,,0.6774,1,,,,,,,,,,,,,,m,,,,,,,,,,,,,,,,53,1,312.0149,312.6971,m,1,0.6774,,[],[],[],[],[],[],[],312.6973,314.6962,314.6963,316.7785,[],[],[],[],[],[],[],m,316.7786,316.7788,0.042592621,-0.335185242,0,0,0,,0,52,52,145,1,1,word,RESUME,print,resume_p.png,2.0802,,,,,
,,,,32258,001,2025-11-09_15h41.26.109,HW_LDT_1,2024.2.4,Win32,59.52380952,,,,,,,,,,,,,,,,,,,,,,316.7804,316.9787,316.9787,317.4783,,,,,,,,,,,,,,2.8053,1,,,,,,,,,,,,,,m,,,,,,,,,,,,,,,,54,0,317.479,320.2944,m,1,2.8053,,[],[],[],[],[],[],[],320.2946,322.2936,322.2938,322.2941,[],[],[],[],[],[],[],,322.2942,322.2943,0.042592621,-0.335185242,0,0,0,,0,53,53,159,1,1,word,VETERAN,print,veteran_p.png,,,,,,
,,,,32258,001,2025-11-09_15h41.26.109,HW_LDT_1,2024.2.4,Win32,59.52380952,,,,,,,,,,,,,,,,,,,,,,322.2961,322.4933,322.4934,322.9931,,,,,,,,,,,,,,1.0087,1,,,,,,,,,,,,,,z,,,,,,,,,,,,,,,,55,1,322.9942,324.0098,z,1,1.0087,,[],[],[],[],[],[],[],324.0099,326.0087,326.0089,327.9294,[],[],[],[],[],[],[],z,327.9294,327.9295,0.042592621,-0.335185242,0,0,0,,0,54,54,17,1,1,RL,menowy,cursive,menowy_c.png,1.9196,,,,,
,,,,32258,001,2025-11-09_15h41.26.109,HW_LDT_1,2024.2.4,Win32,59.52380952,,,,,,,,,,,,,,,,,,,,,,327.9311,328.1286,328.1288,328.6258,,,,,,,,,,,,,,2.4678,1,,,,,,,,,,,,,,z,,,,,,,,,,,,,,,,56,0,328.6272,331.1074,z,1,2.4678,,[],[],[],[],[],[],[],331.1075,333.1072,333.1074,333.1078,[],[],[],[],[],[],[],,333.108,333.1082,0.042592621,-0.335185242,0,0,0,,0,55,55,15,1,1,RL,losipal,cursive,losipal_c.png,,,,,,
,,,,32258,001,2025-11-09_15h41.26.109,HW_LDT_1,2024.2.4,Win32,59.52380952,,,,,,,,,,,,,,,,,,,,,,333.1096,333.3066,333.3066,333.8062,,,,,,,,,,,,,,0.9609,1,,,,,,,,,,,,,,z,,,,,,,,,,,,,,,,57,0,333.8072,334.773,z,1,0.9609,,[],[],[],[],[],[],[],334.7732,336.7752,336.7753,336.7757,[],[],[],[],[],[],[],,336.7758,336.776,0.042592621,-0.335185242,0,0,0,,0,56,56,45,1,1,TL,cacapity,print,cacapity_p.png,,,,,,
,,,,32258,001,2025-11-09_15h41.26.109,HW_LDT_1,2024.2.4,Win32,59.52380952,,,,,,,,,,,,,,,,,,,,,,336.7775,336.972,336.9722,337.4717,,,,,,,,,,,,,,0.674,1,,,,,,,,,,,,,,z,,,,,,,,,,,,,,,,58,0,337.4727,338.1548,z,1,0.674,,[],[],[],[],[],[],[],338.1548,340.1541,340.1542,340.1544,[],[],[],[],[],[],[],,340.1544,340.1545,0.042592621,-0.335185242,0,0,0,,0,57,57,34,1,1,RL,samite,print,samite_p.png,,,,,,
,,,,32258,001,2025-11-09_15h41.26.109,HW_LDT_1,2024.2.4,Win32,59.52380952,,,,,,,,,,,,,,,,,,,,,,340.156,340.354,340.354,340.8541,,,,,,,,,,,,,,0.7481,1,,,,,,,,,,,,,,z,,,,,,,,,,,,,,,,59,1,340.8552,341.6046,z,1,0.7481,,[],[],[],[],[],[],[],341.6046,343.6068,343.6069,345.1688,[],[],[],[],[],[],[],m,345.1689,345.169,0.042592621,-0.335185242,0,0,0,,0,58,58,28,1,1,RL,renutal,print,renutal_p.png,1.5592,,,,,
,,,,32258,001,2025-11-09_15h41.26.109,HW_LDT_1,2024.2.4,Win32,59.52380952,,,,,,,,,,,,,,,,,,,,,,345.1709,345.3691,345.3692,345.8688,,,,,,,,,,,,,,1.0362,1,,,,,,,,,,,,,,z,,,,,,,,,,,,,,,,60,0,345.8699,346.9185,z,1,1.0362,,[],[],[],[],[],[],[],346.9186,348.9181,348.9182,348.9185,[],[],[],[],[],[],[],,348.9185,348.9187,0.042592621,-0.335185242,0,0,0,,0,59,59,40,1,1,TL,atameur,print,atameur_p.png,,,,,,
,,,,32258,001,2025-11-09_15h41.26.109,HW_LDT_1,2024.2.4,Win32,59.52380952,,,,,,,,,,,,,,,,,,,,,,348.9199,349.1209,349.1209,349.6177,,,,,,,,,,,,,,0.6038,1,,,,,,,,,,,,,,z,,,,,,,,,,,,,,,,61,1,349.6187,350.2345,z,1,0.6038,,[],[],[],[],[],[],[],350.2346,352.2334,352.2334,353.4873,[],[],[],[],[],[],[],z,353.4874,353.4875,0.042592621,-0.335185242,0,0,0,,0,60,60,29,1,1,RL,refakive,cursive,refakive_c.png,1.2531,,,,,
,,,,32258,001,2025-11-09_15h41.26.109,HW_LDT_1,2024.2.4,Win32,59.52380952,,,,,,,,,,,,,,,,,,,,,,353.4905,353.6829,353.683,354.1826,,,,,,,,,,,,,,0.6693,1,,,,,,,,,,,,,,z,,,,,,,,,,,,,,,,62,0,354.1831,354.8535,z,1,0.6693,,[],[],[],[],[],[],[],354.8535,356.8484,356.8485,356.8491,[],[],[],[],[],[],[],,356.8492,356.8494,0.042592621,-0.335185242,0,0,0,,0,61,61,2,1,1,RL,asiral,print,asiral_p.png,,,,,,
,,,,32258,001,2025-11-09_15h41.26.109,HW_LDT_1,2024.2.4,Win32,59.52380952,,,,,,,,,,,,,,,,,,,,,,356.8507,357.0483,357.0484,357.5518,,,,,,,,,,,,,,1.1157,0,,,,,,,,,,,,,,m,,,,,,,,,,,,,,,,63,0,357.5524,358.6694,z,0,1.1157,,[],[],[],[],[],[],[],358.6695,360.6638,360.6638,360.664,[],[],[],[],[],[],[],,360.664,360.6641,0.042592621,-0.335185242,0,0,0,,0,62,62,122,1,1,word,MOBILE,cursive,mobile_c.png,,,,,,
,,,,32258,001,2025-11-09_15h41.26.109,HW_LDT_1,2024.2.4,Win32,59.52380952,,,,,,,,,,,,,,,,,,,,,,360.6655,360.8634,360.8635,361.3638,,,,,,,,,,,,,,2.8064,1,,,,,,,,,,,,,,m,,,,,,,,,,,,,,,,64,1,361.3645,364.1797,m,1,2.8064,,[],[],[],[],[],[],[],364.1801,366.1787,366.1789,367.8481,[],[],[],[],[],[],[],z,367.8481,367.8483,0.042592621,-0.335185242,0,0,0,,0,63,63,102,1,1,word,DENSITY,cursive,density_c.png,1.6685,,,,,
,,,,32258,001,2025-11-09_15h41.26.109,HW_LDT_1,2024.2.4,Win32,59.52380952,,,,,,,,,,,,,,,,,,,,,,367.8494,368.0471,368.0471,368.5441,,,,,,,,,,,,,,0.8448,1,,,,,,,,,,,,,,z,,,,,,,,,,,,,,,,65,0,368.5448,369.3946,z,1,0.8448,,[],[],[],[],[],[],[],369.3947,371.3937,371.3937,371.3939,[],[],[],[],[],[],[],,371.3941,371.3943,0.042592621,-0.335185242,0,0,0,,0,64,64,78,1,1,TL,vecolity,print,vecolity_p.png,,,,,,
,,,,32258,001,2025-11-09_15h41.26.109,HW_LDT_1,2024.2.4,Win32,59.52380952,,,,,,,,,,,,,,,,,,,,,,371.3958,371.5943,371.5945,372.0939,,,,,,,,,,,,,,3.0883,1,,,,,,,,,,,,,,z,,,,,,,,,,,,,,,,66,1,372.0948,375.1921,z,1,3.0883,,[],[],[],[],[],[],[],375.1922,377.1913,377.1913,378.8909,[],[],[],[],[],[],[],z,378.8911,378.8912,0.042592621,-0.335185242,0,0,0,,0,65,65,33,1,1,RL,recile,cursive,recile_c.png,1.6948,,,,,
,,,,32258,001,2025-11-09_15h41.26.109,HW_LDT_1,2024.2.4,Win32,59.52380952,,,,,,,,,,,,,,,,,,,,,,378.8927,379.0911,379.0912,379.5906,,,,,,,,,,,,,,1.4121,1,,,,,,,,,,,,,,m,,,,,,,,,,,,,,,,67,0,379.5912,381.0066,m,1,1.4121,,[],[],[],[],[],[],[],381.0066,383.0061,383.0063,383.0065,[],[],[],[],[],[],[],,383.0066,383.0067,0.042592621,-0.335185242,0,0,0,,0,66,66,154,1,1,word,STORAGE,cursive,storage_c.png,,,,,,
,,,,32258,001,2025-11-09_15h41.26.109,HW_LDT_1,2024.2.4,Win32,59.52380952,,,,,,,,,,,,,,,,,,,,,,383.008,383.2062,383.2063,383.706,,,,,,,,,,,,,,0.7732,1,,,,,,,,,,,,,,m,,,,,,,,,,,,,,,,68,0,383.7066,384.4889,m,1,0.7732,,[],[],[],[],[],[],[],384.4891,386.4883,386.4884,386.4886,[],[],[],[],[],[],[],,386.4886,386.4888,0.042592621,-0.335185242,0,0,0,,0,67,67,142,1,1,word,REMOTE,print,remote_p.png,,,,,,
,,,,32258,001,2025-11-09_15h41.26.109,HW_LDT_1,2024.2.4,Win32,59.52380952,,,,,,,,,,,,,,,,,,,,,,386.4901,386.6881,386.6881,387.1879,,,,,,,,,,,,,,0.6484,1,,,,,,,,,,,,,,m,,,,,,,,,,,,,,,,69,0,387.1886,387.8378,m,1,0.6484,,[],[],[],[],[],[],[],387.8379,389.8369,389.8369,389.8371,[],[],[],[],[],[],[],,389.8371,389.8372,0.042592621,-0.335185242,0,0,0,,0,68,68,128,1,1,word,PACIFIC,print,pacific_p.png,,,,,,
,,,,32258,001,2025-11-09_15h41.26.109,HW_LDT_1,2024.2.4,Win32,59.52380952,,,,,,,,,,,,,,,,,,,,,,389.8383,390.0367,390.0367,390.5372,,,,,,,,,,,,,,1.0222,1,,,,,,,,,,,,,,m,,,,,,,,,,,,,,,,70,0,390.538,391.5695,m,1,1.0222,,[],[],[],[],[],[],[],391.5696,393.5687,393.5688,393.5689,[],[],[],[],[],[],[],,393.5689,393.569,0.042592621,-0.335185242,0,0,0,,0,69,69,81,1,1,word,ADVISORY,cursive,advisory_c.png,,,,,,
,,,,32258,001,2025-11-09_15h41.26.109,HW_LDT_1,2024.2.4,Win32,59.52380952,,,,,,,,,,,,,,,,,,,,,,393.5698,393.7685,393.7686,394.2688,,,,,,,,,,,,,,1.0242,1,,,,,,,,,,,,,,z,,,,,,,,,,,,,,,,71,0,394.2691,395.3018,z,1,1.0242,,[],[],[],[],[],[],[],395.3019,397.3013,397.3013,397.3014,[],[],[],[],[],[],[],,397.3014,397.3015,0.042592621,-0.335185242,0,0,0,,0,70,70,44,1,1,TL,cateferia,cursive,cateferia_c.png,,,,,,
,,,,32258,001,2025-11-09_15h41.26.109,HW_LDT_1,2024.2.4,Win32,59.52380952,,,,,,,,,,,,,,,,,,,,,,397.3024,397.5007,397.5007,398.0008,,,,,,,,,,,,,,0.7758,1,,,,,,,,,,,,,,z,,,,,,,,,,,,,,,,72,0,398.0012,398.7837,z,1,0.7758,,[],[],[],[],[],[],[],398.7838,400.783,400.7831,400.7832,[],[],[],[],[],[],[],,400.7832,400.7832,0.042592621,-0.335185242,0,0,0,,0,71,71,30,1,1,RL,relone,print,relone_p.png,,,,,,
,,,,32258,001,2025-11-09_15h41.26.109,HW_LDT_1,2024.2.4,Win32,59.52380952,,,,,,,,,,,,,,,,,,,,,,400.784,400.983,400.983,401.483,,,,,,,,,,,,,,0.6739,1,,,,,,,,,,,,,,m,,,,,,,,,,,,,,,,73,0,401.4834,402.1659,m,1,0.6739,,[],[],[],[],[],[],[],402.166,404.1655,404.1656,404.1657,[],[],[],[],[],[],[],,404.1658,404.1658,0.042592621,-0.335185242,0,0,0,,0,72,72,108,1,1,word,FORTUNE,print,fortune_p.png,,,,,,
,,,,32258,001,2025-11-09_15h41.26.109,HW_LDT_1,2024.2.4,Win32,59.52380952,,,,,,,,,,,,,,,,,,,,,,404.1666,404.3653,404.3654,404.8679,,,,,,,,,,,,,,1.2791,1,,,,,,,,,,,,,,m,,,,,,,,,,,,,,,,74,0,404.8682,406.148,m,1,1.2791,,[],[],[],[],[],[],[],406.1481,408.147,408.147,408.1472,[],[],[],[],[],[],[],,408.1473,408.1473,0.042592621,-0.335185242,0,0,0,,0,73,73,130,1,1,word,POLICY,cursive,policy_c.png,,,,,,
,,,,32258,001,2025-11-09_15h41.26.109,HW_LDT_1,2024.2.4,Win32,59.52380952,,,,,,,,,,,,,,,,,,,,,,408.1482,408.3473,408.3474,408.8471,,,,,,,,,,,,,,1.9246,1,,,,,,,,,,,,,,z,,,,,,,,,,,,,,,,75,0,408.8474,410.7795,z,1,1.9246,,[],[],[],[],[],[],[],410.7795,412.7787,412.7787,412.7789,[],[],[],[],[],[],[],,412.7789,412.7789,0.042592621,-0.335185242,0,0,0,,0,74,74,72,1,1,TL,remuse,print,remuse_p.png,,,,,,
,,,,32258,001,2025-11-09_15h41.26.109,HW_LDT_1,2024.2.4,Win32,59.52380952,,,,,,,,,,,,,,,,,,,,,,412.7798,412.9787,412.9788,413.4784,,,,,,,,,,,,,,1.3456,1,,,,,,,,,,,,,,z,,,,,,,,,,,,,,,,76,0,413.4788,414.828,z,1,1.3456,,[],[],[],[],[],[],[],414.8281,416.8275,416.8276,416.8278,[],[],[],[],[],[],[],,416.8278,416.8279,0.042592621,-0.335185242,0,0,0,,0,75,75,59,1,1,TL,lirebal,cursive,lirebal_c.png,,,,,,
,,,,32258,001,2025-11-09_15h41.26.109,HW_LDT_1,2024.2.4,Win32,59.52380952,,,,,,,,,,,,,,,,,,,,,,416.8287,417.0278,417.0279,417.5273,,,,,,,,,,,,,,2.154,1,,,,,,,,,,,,,,z,,,,,,,,,,,,,,,,77,0,417.5278,419.6936,z,1,2.154,,[],[],[],[],[],[],[],419.6936,421.6929,421.6929,421.6931,[],[],[],[],[],[],[],,421.6932,421.6933,0.042592621,-0.335185242,0,0,0,,0,76,76,53,1,1,TL,dentisy,cursive,dentisy_c.png,,,,,,
,,,,32258,001,2025-11-09_15h41.26.109,HW_LDT_1,2024.2.4,Win32,59.52380952,,,,,,,,,,,,,,,,,,,,,,421.6943,421.8928,421.8928,422.3925,,,,,,,,,,,,,,0.9834,1,,,,,,,,,,,,,,m,,,,,,,,,,,,,,,,78,1,422.3933,423.3773,m,1,0.9834,,[],[],[],[],[],[],[],423.3773,425.3748,425.3749,426.7409,[],[],[],[],[],[],[],m,426.741,426.7411,0.042592621,-0.335185242,0,0,0,,0,77,77,158,1,1,word,VELOCITY,print,velocity_p.png,1.3598,,,,,
,,,,32258,001,2025-11-09_15h41.26.109,HW_LDT_1,2024.2.4,Win32,59.52380952,,,,,,,,,,,,,,,,,,,,,,426.7418,426.9425,426.9425,427.4409,,,,,,,,,,,,,,2.8064,0,,,,,,,,,,,,,,z,,,,,,,,,,,,,,,,79,0,427.4415,430.2565,m,0,2.8064,,[],[],[],[],[],[],[],430.2565,432.2559,432.256,432.2563,[],[],[],[],[],[],[],,432.2563,432.2564,0.042592621,-0.335185242,0,0,0,,0,78,78,66,1,1,TL,panert,cursive,panert_c.png,,,,,,
,,,,32258,001,2025-11-09_15h41.26.109,HW_LDT_1,2024.2.4,Win32,59.52380952,,,,,,,,,,,,,,,,,,,,,,432.2573,432.4559,432.4559,432.9558,,,,,,,,,,,,,,0.7284,1,,,,,,,,,,,,,,m,,,,,,,,,,,,,,,,80,0,432.9564,433.6888,m,1,0.7284,,[],[],[],[],[],[],[],433.6889,435.6879,435.6881,435.6882,[],[],[],[],[],[],[],,435.6882,569.5458,0.042592621,-0.335185242,0,0,0,space,0,79,79,92,1,1,word,CATEGORY,print,category_p.png,,,133.8363,,,
,,,,32258,001,2025-11-09_15h41.26.109,HW_LDT_1,2024.2.4,Win32,59.52380952,,,,,,,,,,,,,,,,,,,,,,569.5464,569.7423,569.7423,570.2422,,,,,,,,,,,,,,3.0012,1,,,,,,,,,,,,,,m,,,,,,,,,,,,,,,,81,0,570.2428,573.2579,m,1,3.0012,,[],[],[],[],[],[],[],573.258,575.257,575.2571,575.2573,[],[],[],[],[],[],[],,575.2573,575.2576,0.042592621,-0.335185242,0,0,0,,0,80,80,155,1,1,word,STRATEGY,cursive,strategy_c.png,,,,,,
,,,,32258,001,2025-11-09_15h41.26.109,HW_LDT_1,2024.2.4,Win32,59.52380952,,,,,,,,,,,,,,,,,,,,,,575.2582,575.4572,575.4573,575.9572,,,,,,,,,,,,,,1.0514,1,,,,,,,,,,,,,,m,,,,,,,,,,,,,,,,82,0,575.9583,577.0235,m,1,1.0514,,[],[],[],[],[],[],[],577.0235,579.023,579.023,579.0233,[],[],[],[],[],[],[],,579.0234,579.0234,0.042592621,-0.335185242,0,0,0,,0,81,81,96,1,1,word,CONSIDER,cursive,consider_c.png,,,,,,
,,,,32258,001,2025-11-09_15h41.26.109,HW_LDT_1,2024.2.4,Win32,59.52380952,,,,,,,,,,,,,,,,,,,,,,579.0244,579.2223,579.2224,579.7222,,,,,,,,,,,,,,6.0532,1,,,,,,,,,,,,,,m,,,,,,,,,,,,,,,,83,0,579.7228,585.7867,m,1,6.0532,,[],[],[],[],[],[],[],585.7869,587.7871,587.7871,587.7876,[],[],[],[],[],[],[],,587.7877,587.7878,0.042592621,-0.335185242,0,0,0,,0,82,82,111,1,1,word,INDICATE,cursive,indicate_c.png,,,,,,
,,,,32258,001,2025-11-09_15h41.26.109,HW_LDT_1,2024.2.4,Win32,59.52380952,,,,,,,,,,,,,,,,,,,,,,587.7894,587.9864,587.9864,588.4861,,,,,,,,,,,,,,2.0855,1,,,,,,,,,,,,,,z,,,,,,,,,,,,,,,,84,0,588.4866,590.5863,z,1,2.0855,,[],[],[],[],[],[],[],590.5864,592.5845,592.5846,592.5848,[],[],[],[],[],[],[],,592.5849,592.5849,0.042592621,-0.335185242,0,0,0,,0,83,83,35,1,1,RL,senvilent,cursive,senvilent_c.png,,,,,,
,,,,32258,001,2025-11-09_15h41.26.109,HW_LDT_1,2024.2.4,Win32,59.52380952,,,,,,,,,,,,,,,,,,,,,,592.5857,592.7867,592.7867,593.2843,,,,,,,,,,,,,,0.8793,1,,,,,,,,,,,,,,m,,,,,,,,,,,,,,,,85,0,593.285,594.167,m,1,0.8793,,[],[],[],[],[],[],[],594.167,596.1667,596.1668,596.1671,[],[],[],[],[],[],[],,596.1671,596.1672,0.042592621,-0.335185242,0,0,0,,0,84,84,114,1,1,word,LOCATE,print,locate_p.png,,,,,,
,,,,32258,001,2025-11-09_15h41.26.109,HW_LDT_1,2024.2.4,Win32,59.52380952,,,,,,,,,,,,,,,,,,,,,,596.1681,596.3666,596.3666,596.8664,,,,,,,,,,,,,,3.6443,1,,,,,,,,,,,,,,m,,,,,,,,,,,,,,,,86,0,596.8669,600.5152,m,1,3.6443,,[],[],[],[],[],[],[],600.5153,602.5149,602.515,602.5151,[],[],[],[],[],[],[],,602.5151,602.5153,0.042592621,-0.335185242,0,0,0,,0,85,85,105,1,1,word,EDITOR,cursive,editor_c.png,,,,,,
,,,,32258,001,2025-11-09_15h41.26.109,HW_LDT_1,2024.2.4,Win32,59.52380952,,,,,,,,,,,,,,,,,,,,,,602.5163,602.7143,602.7144,603.2147,,,,,,,,,,,,,,1.2027,1,,,,,,,,,,,,,,z,,,,,,,,,,,,,,,,87,0,603.2155,604.4305,z,1,1.2027,,[],[],[],[],[],[],[],604.4306,606.4298,606.4298,606.43,[],[],[],[],[],[],[],,606.4301,606.4301,0.042592621,-0.335185242,0,0,0,,0,86,86,22,1,1,RL,patisic,print,patisic_p.png,,,,,,
,,,,32258,001,2025-11-09_15h41.26.109,HW_LDT_1,2024.2.4,Win32,59.52380952,,,,,,,,,,,,,,,,,,,,,,606.431,606.6296,606.6297,607.1296,,,,,,,,,,,,,,1.6028,1,,,,,,,,,,,,,,m,,,,,,,,,,,,,,,,88,0,607.1302,608.7343,m,1,1.6028,,[],[],[],[],[],[],[],608.7344,610.7286,610.7286,610.7288,[],[],[],[],[],[],[],,610.7289,610.7289,0.042592621,-0.335185242,0,0,0,,0,87,87,133,1,1,word,PROVIDE,print,provide_p.png,,,,,,
,,,,32258,001,2025-11-09_15h41.26.109,HW_LDT_1,2024.2.4,Win32,59.52380952,,,,,,,,,,,,,,,,,,,,,,610.7303,610.9284,610.9286,611.4325,,,,,,,,,,,,,,2.6643,1,,,,,,,,,,,,,,z,,,,,,,,,,,,,,,,89,1,611.4333,614.0988,z,1,2.6643,,[],[],[],[],[],[],[],614.099,616.0934,616.0934,619.2923,[],[],[],[],[],[],[],m,619.2925,619.2928,0.042592621,-0.335185242,0,0,0,,0,88,88,46,1,1,TL,catipal,print,catipal_p.png,3.1931,,,,,
,,,,32258,001,2025-11-09_15h41.26.109,HW_LDT_1,2024.2.4,Win32,59.52380952,,,,,,,,,,,,,,,,,,,,,,619.2941,619.493,619.4931,619.9923,,,,,,,,,,,,,,1.9283,0,,,,,,,,,,,,,,m,,,,,,,,,,,,,,,,90,0,619.9933,621.9247,z,0,1.9283,,[],[],[],[],[],[],[],621.9248,623.9244,623.9244,623.925,[],[],[],[],[],[],[],,623.9251,623.9252,0.042592621,-0.335185242,0,0,0,,0,89,89,87,1,1,word,CAFETERIA,cursive,cafeteria_c.png,,,,,,
,,,,32258,001,2025-11-09_15h41.26.109,HW_LDT_1,2024.2.4,Win32,59.52380952,,,,,,,,,,,,,,,,,,,,,,623.9268,624.1241,624.1241,624.6239,,,,,,,,,,,,,,1.1095,1,,,,,,,,,,,,,,z,,,,,,,,,,,,,,,,91,1,624.6248,625.7411,z,1,1.1095,,[],[],[],[],[],[],[],625.7413,627.7395,627.7395,628.9438,[],[],[],[],[],[],[],m,628.9439,628.9441,0.042592621,-0.335185242,0,0,0,,0,90,90,56,1,1,TL,grafetul,print,grafetul_p.png,1.2032,,,,,
,,,,32258,001,2025-11-09_15h41.26.109,HW_LDT_1,2024.2.4,Win32,59.52380952,,,,,,,,,,,,,,,,,,,,,,628.9459,629.139,629.1391,629.6392,,,,,,,,,,,,,,1.2523,1,,,,,,,,,,,,,,z,,,,,,,,,,,,,,,,92,0,629.6403,630.9054,z,1,1.2523,,[],[],[],[],[],[],[],630.9055,632.9052,632.9054,632.9059,[],[],[],[],[],[],[],,632.906,632.9062,0.042592621,-0.335185242,0,0,0,,0,91,91,71,1,1,TL,regilion,cursive,regilion_c.png,,,,,,
,,,,32258,001,2025-11-09_15h41.26.109,HW_LDT_1,2024.2.4,Win32,59.52380952,,,,,,,,,,,,,,,,,,,,,,632.9075,633.1046,633.1047,633.6042,,,,,,,,,,,,,,2.1515,1,,,,,,,,,,,,,,m,,,,,,,,,,,,,,,,93,0,633.605,635.7576,m,1,2.1515,,[],[],[],[],[],[],[],635.7577,637.7529,637.753,637.7533,[],[],[],[],[],[],[],,637.7533,637.7535,0.042592621,-0.335185242,0,0,0,,0,92,92,152,1,1,word,SPECIMEN,cursive,specimen_c.png,,,,,,
,,,,32258,001,2025-11-09_15h41.26.109,HW_LDT_1,2024.2.4,Win32,59.52380952,,,,,,,,,,,,,,,,,,,,,,637.7549,637.9532,637.9532,638.4523,,,,,,,,,,,,,,1.5524,1,,,,,,,,,,,,,,m,,,,,,,,,,,,,,,,94,0,638.453,640.0066,m,1,1.5524,,[],[],[],[],[],[],[],640.0067,642.0013,642.0014,642.0015,[],[],[],[],[],[],[],,642.0016,642.0017,0.042592621,-0.335185242,0,0,0,,0,93,93,106,1,1,word,ELABORATE,print,elaborate_p.png,,,,,,
,,,,32258,001,2025-11-09_15h41.26.109,HW_LDT_1,2024.2.4,Win32,59.52380952,,,,,,,,,,,,,,,,,,,,,,642.0029,642.2016,642.2019,642.701,,,,,,,,,,,,,,2.0865,1,,,,,,,,,,,,,,m,,,,,,,,,,,,,,,,95,0,642.7016,644.8003,m,1,2.0865,,[],[],[],[],[],[],[],644.8004,646.7999,646.7999,646.8001,[],[],[],[],[],[],[],,646.8001,646.8002,0.042592621,-0.335185242,0,0,0,,0,94,94,118,1,1,word,MEDICINE,cursive,medicine_c.png,,,,,,
,,,,32258,001,2025-11-09_15h41.26.109,HW_LDT_1,2024.2.4,Win32,59.52380952,,,,,,,,,,,,,,,,,,,,,,646.8016,647.0002,647.0004,647.4994,,,,,,,,,,,,,,0.6538,1,,,,,,,,,,,,,,z,,,,,,,,,,,,,,,,96,0,647.5001,648.166,z,1,0.6538,,[],[],[],[],[],[],[],648.1661,650.1647,650.1648,650.1649,[],[],[],[],[],[],[],,650.1649,650.165,0.042592621,-0.335185242,0,0,0,,0,95,95,14,1,1,RL,lofase,print,lofase_p.png,,,,,,
,,,,32258,001,2025-11-09_15h41.26.109,HW_LDT_1,2024.2.4,Win32,59.52380952,,,,,,,,,,,,,,,,,,,,,,650.166,650.3647,650.3647,650.8645,,,,,,,,,,,,,,0.8635,1,,,,,,,,,,,,,,z,,,,,,,,,,,,,,,,97,0,650.8649,651.7312,z,1,0.8635,,[],[],[],[],[],[],[],651.7313,653.7304,653.7304,653.7306,[],[],[],[],[],[],[],,653.7306,653.7307,0.042592621,-0.335185242,0,0,0,,0,96,96,27,1,1,RL,rasibal,print,rasibal_p.png,,,,,,
,,,,32258,001,2025-11-09_15h41.26.109,HW_LDT_1,2024.2.4,Win32,59.52380952,,,,,,,,,,,,,,,,,,,,,,653.7317,653.9304,653.9305,654.4302,,,,,,,,,,,,,,1.7355,1,,,,,,,,,,,,,,m,,,,,,,,,,,,,,,,98,0,654.4307,656.167,m,1,1.7355,,[],[],[],[],[],[],[],656.1671,658.1645,658.1645,658.1647,[],[],[],[],[],[],[],,658.1647,658.1649,0.042592621,-0.335185242,0,0,0,,0,97,97,156,1,1,word,TRIBUTE,cursive,tribute_c.png,,,,,,
,,,,32258,001,2025-11-09_15h41.26.109,HW_LDT_1,2024.2.4,Win32,59.52380952,,,,,,,,,,,,,,,,,,,,,,658.1657,658.3621,658.3622,658.8645,,,,,,,,,,,,,,0.6336,1,,,,,,,,,,,,,,z,,,,,,,,,,,,,,,,99,0,658.8648,659.512,z,1,0.6336,,[],[],[],[],[],[],[],659.5121,661.5136,661.5137,661.5139,[],[],[],[],[],[],[],,661.5139,661.5139,0.042592621,-0.335185242,0,0,0,,0,98,98,68,1,1,TL,prosopal,cursive,prosopal_c.png,,,,,,
,,,,32258,001,2025-11-09_15h41.26.109,HW_LDT_1,2024.2.4,Win32,59.52380952,,,,,,,,,,,,,,,,,,,,,,661.5147,661.7111,661.7111,662.211,,,,,,,,,,,,,,2.3465,1,,,,,,,,,,,,,,z,,,,,,,,,,,,,,,,100,0,662.2116,664.5598,z,1,2.3465,,[],[],[],[],[],[],[],664.5599,666.5595,666.5597,666.5598,[],[],[],[],[],[],[],,666.5598,666.56,0.042592621,-0.335185242,0,0,0,,0,99,99,63,1,1,TL,molibe,cursive,molibe_c.png,,,,,,
,,,,32258,001,2025-11-09_15h41.26.109,HW_LDT_1,2024.2.4,Win32,59.52380952,,,,,,,,,,,,,,,,,,,,,,666.5608,666.7596,666.7597,667.2606,,,,,,,,,,,,,,4.0194,1,,,,,,,,,,,,,,z,,,,,,,,,,,,,,,,101,0,667.2609,671.2911,z,1,4.0194,,[],[],[],[],[],[],[],671.2911,673.2905,673.2905,673.2908,[],[],[],[],[],[],[],,673.2908,673.2909,0.042592621,-0.335185242,0,0,0,,0,100,100,7,1,1,RL,delahe,print,delahe_p.png,,,,,,
,,,,32258,001,2025-11-09_15h41.26.109,HW_LDT_1,2024.2.4,Win32,59.52380952,,,,,,,,,,,,,,,,,,,,,,673.2916,673.4928,673.4928,673.9907,,,,,,,,,,,,,,1.0297,1,,,,,,,,,,,,,,m,,,,,,,,,,,,,,,,102,0,673.9913,675.0232,m,1,1.0297,,[],[],[],[],[],[],[],675.0232,677.0225,677.0225,677.0228,[],[],[],[],[],[],[],,677.0228,677.0228,0.042592621,-0.335185242,0,0,0,,0,101,101,89,1,1,word,CAPACITY,print,capacity_p.png,,,,,,
,,,,32258,001,2025-11-09_15h41.26.109,HW_LDT_1,2024.2.4,Win32,59.52380952,,,,,,,,,,,,,,,,,,,,,,677.0238,677.2226,677.2226,677.7223,,,,,,,,,,,,,,3.3864,1,,,,,,,,,,,,,,z,,,,,,,,,,,,,,,,103,0,677.7228,681.1213,z,1,3.3864,,[],[],[],[],[],[],[],681.1215,683.1204,683.1205,683.1206,[],[],[],[],[],[],[],,683.1206,683.1208,0.042592621,-0.335185242,0,0,0,,0,102,102,3,1,1,RL,casena,cursive,casena_c.png,,,,,,
,,,,32258,001,2025-11-09_15h41.26.109,HW_LDT_1,2024.2.4,Win32,59.52380952,,,,,,,,,,,,,,,,,,,,,,683.1216,683.3205,683.3206,683.82,,,,,,,,,,,,,,2.9653,1,,,,,,,,,,,,,,m,,,,,,,,,,,,,,,,104,0,683.8205,686.7871,m,1,2.9653,,[],[],[],[],[],[],[],686.7872,688.7851,688.7852,688.7853,[],[],[],[],[],[],[],,688.7854,688.7854,0.042592621,-0.335185242,0,0,0,,0,103,103,134,1,1,word,QUALIFY,cursive,qualify_c.png,,,,,,
,,,,32258,001,2025-11-09_15h41.26.109,HW_LDT_1,2024.2.4,Win32,59.52380952,,,,,,,,,,,,,,,,,,,,,,688.7863,688.9852,688.9852,689.4865,,,,,,,,,,,,,,1.0934,1,,,,,,,,,,,,,,m,,,,,,,,,,,,,,,,105,0,689.4868,690.5844,m,1,1.0934,,[],[],[],[],[],[],[],690.5845,692.5864,692.5865,692.5866,[],[],[],[],[],[],[],,692.5867,692.5868,0.042592621,-0.335185242,0,0,0,,0,104,104,126,1,1,word,OPTIMAL,print,optimal_p.png,,,,,,
,,,,32258,001,2025-11-09_15h41.26.109,HW_LDT_1,2024.2.4,Win32,59.52380952,,,,,,,,,,,,,,,,,,,,,,692.5876,692.7837,692.7837,693.2835,,,,,,,,,,,,,,0.9107,1,,,,,,,,,,,,,,m,,,,,,,,,,,,,,,,106,0,693.2839,694.2001,m,1,0.9107,,[],[],[],[],[],[],[],694.2001,696.1993,696.1993,696.1995,[],[],[],[],[],[],[],,696.1996,696.1996,0.042592621,-0.335185242,0,0,0,,0,105,105,139,1,1,word,REGULAR,print,regular_p.png,,,,,,
,,,,32258,001,2025-11-09_15h41.26.109,HW_LDT_1,2024.2.4,Win32,59.52380952,,,,,,,,,,,,,,,,,,,,,,696.2008,696.3992,696.3993,696.8989,,,,,,,,,,,,,,2.0888,1,,,,,,,,,,,,,,m,,,,,,,,,,,,,,,,107,0,696.8995,698.9982,m,1,2.0888,,[],[],[],[],[],[],[],698.9983,700.9979,700.9979,700.998,[],[],[],[],[],[],[],,700.998,700.9982,0.042592621,-0.335185242,0,0,0,,0,106,106,136,1,1,word,RADICAL,print,radical_p.png,,,,,,
,,,,32258,001,2025-11-09_15h41.26.109,HW_LDT_1,2024.2.4,Win32,59.52380952,,,,,,,,,,,,,,,,,,,,,,700.9991,701.1979,701.1979,701.6974,,,,,,,,,,,,,,3.1185,1,,,,,,,,,,,,,,z,,,,,,,,,,,,,,,,108,0,701.6979,704.8177,z,1,3.1185,,[],[],[],[],[],[],[],704.8177,706.8123,706.8124,706.8126,[],[],[],[],[],[],[],,706.8126,706.8127,0.042592621,-0.335185242,0,0,0,,0,107,107,10,1,1,RL,efibor,cursive,efibor_c.png,,,,,,
,,,,32258,001,2025-11-09_15h41.26.109,HW_LDT_1,2024.2.4,Win32,59.52380952,,,,,,,,,,,,,,,,,,,,,,706.8137,707.0156,707.0157,707.5138,,,,,,,,,,,,,,0.9229,1,,,,,,,,,,,,,,m,,,,,,,,,,,,,,,,109,1,707.5143,708.4451,m,1,0.9229,,[],[],[],[],[],[],[],708.4452,710.4445,710.4446,712.1274,[],[],[],[],[],[],[],m,712.1274,712.1276,0.042592621,-0.335185242,0,0,0,,0,108,108,97,1,1,word,COVERAGE,print,coverage_p.png,1.6696,,,,,
,,,,32258,001,2025-11-09_15h41.26.109,HW_LDT_1,2024.2.4,Win32,59.52380952,,,,,,,,,,,,,,,,,,,,,,712.1282,712.3304,712.3304,712.8266,,,,,,,,,,,,,,4.0562,1,,,,,,,,,,,,,,z,,,,,,,,,,,,,,,,110,1,712.827,716.8925,z,1,4.0562,,[],[],[],[],[],[],[],716.8926,718.8923,718.8925,720.3412,[],[],[],[],[],[],[],z,720.3412,720.3414,0.042592621,-0.335185242,0,0,0,,0,109,109,38,1,1,RL,stopave,cursive,stopave_c.png,1.435,,,,,
,,,,32258,001,2025-11-09_15h41.26.109,HW_LDT_1,2024.2.4,Win32,59.52380952,,,,,,,,,,,,,,,,,,,,,,720.3422,720.5411,720.5412,721.0409,,,,,,,,,,,,,,2.4409,1,,,,,,,,,,,,,,m,,,,,,,,,,,,,,,,111,0,721.0415,723.4899,m,1,2.4409,,[],[],[],[],[],[],[],723.4901,725.4898,725.4899,725.49,[],[],[],[],[],[],[],,725.49,725.4901,0.042592621,-0.335185242,0,0,0,,0,110,110,101,1,1,word,DELICATE,cursive,delicate_c.png,,,,,,
,,,,32258,001,2025-11-09_15h41.26.109,HW_LDT_1,2024.2.4,Win32,59.52380952,,,,,,,,,,,,,,,,,,,,,,725.4908,725.69,725.69,726.1896,,,,,,,,,,,,,,0.9209,1,,,,,,,,,,,,,,m,,,,,,,,,,,,,,,,112,0,726.1902,727.1222,m,1,0.9209,,[],[],[],[],[],[],[],727.1223,729.1217,729.1217,729.1219,[],[],[],[],[],[],[],,729.1219,729.122,0.042592621,-0.335185242,0,0,0,,0,111,111,147,1,1,word,ROMANTIC,cursive,romantic_c.png,,,,,,
,,,,32258,001,2025-11-09_15h41.26.109,HW_LDT_1,2024.2.4,Win32,59.52380952,,,,,,,,,,,,,,,,,,,,,,729.1229,729.3214,729.3215,729.8213,,,,,,,,,,,,,,14.9485,1,,,,,,,,,,,,,,m,,,,,,,,,,,,,,,,113,0,729.8217,744.7828,m,1,14.9485,,[],[],[],[],[],[],[],744.7829,746.7819,746.782,746.7821,[],[],[],[],[],[],[],,746.7821,746.7822,0.042592621,-0.335185242,0,0,0,,0,112,112,132,1,1,word,PROPOSAL,cursive,proposal_c.png,,,,,,
,,,,32258,001,2025-11-09_15h41.26.109,HW_LDT_1,2024.2.4,Win32,59.52380952,,,,,,,,,,,,,,,,,,,,,,746.7832,746.9822,746.9822,747.4819,,,,,,,,,,,,,,3.4689,1,,,,,,,,,,,,,,z,,,,,,,,,,,,,,,,114,0,747.4825,750.9642,z,1,3.4689,,[],[],[],[],[],[],[],750.9644,752.9633,752.9634,752.9636,[],[],[],[],[],[],[],,752.9636,752.9637,0.042592621,-0.335185242,0,0,0,,0,113,113,52,1,1,TL,decilate,cursive,decilate_c.png,,,,,,
,,,,32258,001,2025-11-09_15h41.26.109,HW_LDT_1,2024.2.4,Win32,59.52380952,,,,,,,,,,,,,,,,,,,,,,752.9648,753.1633,753.1634,753.6631,,,,,,,,,,,,,,0.7773,1,,,,,,,,,,,,,,z,,,,,,,,,,,,,,,,115,0,753.6636,754.4461,z,1,0.7773,,[],[],[],[],[],[],[],754.4462,756.4462,756.4463,756.4465,[],[],[],[],[],[],[],,756.4466,756.4466,0.042592621,-0.335185242,0,0,0,,0,114,114,51,1,1,TL,corevage,print,corevage_p.png,,,,,,
,,,,32258,001,2025-11-09_15h41.26.109,HW_LDT_1,2024.2.4,Win32,59.52380952,,,,,,,,,,,,,,,,,,,,,,756.4483,756.6457,756.6457,757.1461,,,,,,,,,,,,,,1.0448,1,,,,,,,,,,,,,,m,,,,,,,,,,,,,,,,116,0,757.147,758.195,m,1,1.0448,,[],[],[],[],[],[],[],758.1951,760.1948,760.1949,760.1951,[],[],[],[],[],[],[],,760.1951,760.1952,0.042592621,-0.335185242,0,0,0,,0,115,115,116,1,1,word,MARGINAL,print,marginal_p.png,,,,,,
,,,,32258,001,2025-11-09_15h41.26.109,HW_LDT_1,2024.2.4,Win32,59.52380952,,,,,,,,,,,,,,,,,,,,,,760.1975,760.3946,760.3947,760.8977,,,,,,,,,,,,,,1.1492,1,,,,,,,,,,,,,,m,,,,,,,,,,,,,,,,117,0,760.8985,762.0608,m,1,1.1492,,[],[],[],[],[],[],[],762.0609,764.0598,764.0598,764.06,[],[],[],[],[],[],[],,764.06,764.0601,0.042592621,-0.335185242,0,0,0,,0,116,116,86,1,1,word,BESIDE,print,beside_p.png,,,,,,
,,,,32258,001,2025-11-09_15h41.26.109,HW_LDT_1,2024.2.4,Win32,59.52380952,,,,,,,,,,,,,,,,,,,,,,764.0614,764.26,764.26,764.7615,,,,,,,,,,,,,,8.5649,1,,,,,,,,,,,,,,z,,,,,,,,,,,,,,,,118,0,764.7623,773.3403,z,1,8.5649,,[],[],[],[],[],[],[],773.3404,775.3393,775.3393,775.3396,[],[],[],[],[],[],[],,775.3396,775.3398,0.042592621,-0.335185242,0,0,0,,0,117,117,25,1,1,RL,quakity,cursive,quakity_c.png,,,,,,
,,,,32258,001,2025-11-09_15h41.26.109,HW_LDT_1,2024.2.4,Win32,59.52380952,,,,,,,,,,,,,,,,,,,,,,775.3412,775.5393,775.5393,776.0389,,,,,,,,,,,,,,0.905,1,,,,,,,,,,,,,,m,,,,,,,,,,,,,,,,119,0,776.0403,776.9556,m,1,0.905,,[],[],[],[],[],[],[],776.9557,778.9551,778.9551,778.9553,[],[],[],[],[],[],[],,778.9554,778.9555,0.042592621,-0.335185242,0,0,0,,0,118,118,123,1,1,word,MODERATE,print,moderate_p.png,,,,,,
,,,,32258,001,2025-11-09_15h41.26.109,HW_LDT_1,2024.2.4,Win32,59.52380952,,,,,,,,,,,,,,,,,,,,,,778.9566,779.1555,779.1557,779.6547,,,,,,,,,,,,,,2.6838,1,,,,,,,,,,,,,,m,,,,,,,,,,,,,,,,120,0,779.6556,782.3407,m,1,2.6838,,[],[],[],[],[],[],[],782.3407,784.3369,784.3369,784.3371,[],[],[],[],[],[],[],,784.3371,784.3372,0.042592621,-0.335185242,0,0,0,,0,119,119,115,1,1,word,LOGICAL,cursive,logical_c.png,,,,,,
,,,,32258,001,2025-11-09_15h41.26.109,HW_LDT_1,2024.2.4,Win32,59.52380952,,,,,,,,,,,,,,,,,,,,,,784.3386,784.536,784.536,785.0366,,,,,,,,,,,,,,0.7099,1,,,,,,,,,,,,,,z,,,,,,,,,,,,,,,,121,0,785.0377,785.7523,z,1,0.7099,,[],[],[],[],[],[],[],785.7524,787.7517,787.7517,787.7519,[],[],[],[],[],[],[],,787.7519,787.7521,0.042592621,-0.335185242,0,0,0,,0,120,120,54,1,1,TL,distupe,cursive,distupe_c.png,,,,,,
,,,,32258,001,2025-11-09_15h41.26.109,HW_LDT_1,2024.2.4,Win32,59.52380952,,,,,,,,,,,,,,,,,,,,,,787.7531,787.9525,787.9525,788.4536,,,,,,,,,,,,,,1.3682,1,,,,,,,,,,,,,,z,,,,,,,,,,,,,,,,122,1,788.4543,789.8348,z,1,1.3682,,[],[],[],[],[],[],[],789.8349,791.8341,791.8342,793.437,[],[],[],[],[],[],[],m,793.437,793.4374,0.042592621,-0.335185242,0,0,0,,0,121,121,62,1,1,TL,mitilary,print,mitilary_p.png,1.602,,,,,
,,,,32258,001,2025-11-09_15h41.26.109,HW_LDT_1,2024.2.4,Win32,59.52380952,,,,,,,,,,,,,,,,,,,,,,793.4388,793.6337,793.6338,794.1334,,,,,,,,,,,,,,1.0344,1,,,,,,,,,,,,,,m,,,,,,,,,,,,,,,,123,0,794.1343,795.1702,m,1,1.0344,,[],[],[],[],[],[],[],795.1704,797.1686,797.1688,797.169,[],[],[],[],[],[],[],,797.169,797.1691,0.042592621,-0.335185242,0,0,0,,0,122,122,129,1,1,word,PARENT,cursive,parent_c.png,,,,,,
,,,,32258,001,2025-11-09_15h41.26.109,HW_LDT_1,2024.2.4,Win32,59.52380952,,,,,,,,,,,,,,,,,,,,,,797.1709,797.3655,797.3656,797.8647,,,,,,,,,,,,,,0.7939,1,,,,,,,,,,,,,,z,,,,,,,,,,,,,,,,124,0,797.8652,798.6644,z,1,0.7939,,[],[],[],[],[],[],[],798.6646,800.6641,800.6642,800.6643,[],[],[],[],[],[],[],,800.6644,800.6646,0.042592621,-0.335185242,0,0,0,,0,123,123,24,1,1,RL,probice,print,probice_p.png,,,,,,
,,,,32258,001,2025-11-09_15h41.26.109,HW_LDT_1,2024.2.4,Win32,59.52380952,,,,,,,,,,,,,,,,,,,,,,800.6662,800.8641,800.8642,801.3648,,,,,,,,,,,,,,0.9263,1,,,,,,,,,,,,,,z,,,,,,,,,,,,,,,,125,1,801.3655,802.2969,z,1,0.9263,,[],[],[],[],[],[],[],802.2971,804.296,804.2961,805.5672,[],[],[],[],[],[],[],m,805.5673,805.5674,0.042592621,-0.335185242,0,0,0,,0,124,124,37,1,1,RL,skofen,print,skofen_p.png,1.2696,,,,,
,,,,32258,001,2025-11-09_15h41.26.109,HW_LDT_1,2024.2.4,Win32,59.52380952,,,,,,,,,,,,,,,,,,,,,,805.569,805.7623,805.7623,806.2627,,,,,,,,,,,,,,1.0846,1,,,,,,,,,,,,,,z,,,,,,,,,,,,,,,,126,0,806.2637,807.3616,z,1,1.0846,,[],[],[],[],[],[],[],807.3616,809.3623,809.3624,809.3626,[],[],[],[],[],[],[],,809.3626,809.3628,0.042592621,-0.335185242,0,0,0,,0,125,125,74,1,1,TL,setanor,cursive,setanor_c.png,,,,,,
,,,,32258,001,2025-11-09_15h41.26.109,HW_LDT_1,2024.2.4,Win32,59.52380952,,,,,,,,,,,,,,,,,,,,,,809.3635,809.561,809.5611,810.0608,,,,,,,,,,,,,,4.7363,1,,,,,,,,,,,,,,z,,,,,,,,,,,,,,,,127,1,810.0615,814.8091,z,1,4.7363,,[],[],[],[],[],[],[],814.8092,816.8087,816.8087,818.9577,[],[],[],[],[],[],[],z,818.9577,818.9579,0.042592621,-0.335185242,0,0,0,,0,126,126,9,1,1,RL,docirant,cursive,docirant_c.png,2.1446,,,,,
,,,,32258,001,2025-11-09_15h41.26.109,HW_LDT_1,2024.2.4,Win32,59.52380952,,,,,,,,,,,,,,,,,,,,,,818.9594,819.1577,819.1578,819.6576,,,,,,,,,,,,,,1.1345,1,,,,,,,,,,,,,,z,,,,,,,,,,,,,,,,128,0,819.6587,820.794,z,1,1.1345,,[],[],[],[],[],[],[],820.7941,822.7902,822.7902,822.7904,[],[],[],[],[],[],[],,822.7907,822.7909,0.042592621,-0.335185242,0,0,0,,0,127,127,8,1,1,RL,debave,print,debave_p.png,,,,,,
,,,,32258,001,2025-11-09_15h41.26.109,HW_LDT_1,2024.2.4,Win32,59.52380952,,,,,,,,,,,,,,,,,,,,,,822.7922,822.9895,822.9896,823.4897,,,,,,,,,,,,,,1.0076,1,,,,,,,,,,,,,,m,,,,,,,,,,,,,,,,129,0,823.4903,824.5061,m,1,1.0076,,[],[],[],[],[],[],[],824.5063,826.5056,826.5056,826.506,[],[],[],[],[],[],[],,826.5061,826.5063,0.042592621,-0.335185242,0,0,0,,0,128,128,117,1,1,word,MARINE,print,marine_p.png,,,,,,
,,,,32258,001,2025-11-09_15h41.26.109,HW_LDT_1,2024.2.4,Win32,59.52380952,,,,,,,,,,,,,,,,,,,,,,826.5079,826.7054,826.7055,827.2059,,,,,,,,,,,,,,2.6468,1,,,,,,,,,,,,,,z,,,,,,,,,,,,,,,,130,1,827.207,829.8558,z,1,2.6468,,[],[],[],[],[],[],[],829.8558,831.8534,831.8534,833.7027,[],[],[],[],[],[],[],m,833.7028,833.7029,0.042592621,-0.335185242,0,0,0,,0,129,129,4,1,1,RL,carminal,print,carminal_p.png,1.848,,,,,
,,,,32258,001,2025-11-09_15h41.26.109,HW_LDT_1,2024.2.4,Win32,59.52380952,,,,,,,,,,,,,,,,,,,,,,833.7043,833.9029,833.9029,834.4029,,,,,,,,,,,,,,1.5868,1,,,,,,,,,,,,,,m,,,,,,,,,,,,,,,,131,0,834.4035,836.0017,m,1,1.5868,,[],[],[],[],[],[],[],836.0019,838.0011,838.0011,838.0014,[],[],[],[],[],[],[],,838.0015,838.0015,0.042592621,-0.335185242,0,0,0,,0,130,130,121,1,1,word,MISTAKE,print,mistake_p.png,,,,,,
,,,,32258,001,2025-11-09_15h41.26.109,HW_LDT_1,2024.2.4,Win32,59.52380952,,,,,,,,,,,,,,,,,,,,,,838.0024,838.2011,838.2011,838.7009,,,,,,,,,,,,,,9.6157,1,,,,,,,,,,,,,,z,,,,,,,,,,,,,,,,132,0,838.7015,848.3177,z,1,9.6157,,[],[],[],[],[],[],[],848.3177,850.3136,850.3136,850.3138,[],[],[],[],[],[],[],,850.3139,850.314,0.042592621,-0.335185242,0,0,0,,0,131,131,67,1,1,TL,pocily,cursive,pocily_c.png,,,,,,
,,,,32258,001,2025-11-09_15h41.26.109,HW_LDT_1,2024.2.4,Win32,59.52380952,,,,,,,,,,,,,,,,,,,,,,850.3148,850.515,850.5151,851.0135,,,,,,,,,,,,,,1.1187,1,,,,,,,,,,,,,,z,,,,,,,,,,,,,,,,133,0,851.014,852.1464,z,1,1.1187,,[],[],[],[],[],[],[],852.1465,854.1459,854.1459,854.146,[],[],[],[],[],[],[],,854.146,854.1462,0.042592621,-0.335185242,0,0,0,,0,132,132,11,1,1,RL,elacodate,print,elacodate_p.png,,,,,,
,,,,32258,001,2025-11-09_15h41.26.109,HW_LDT_1,2024.2.4,Win32,59.52380952,,,,,,,,,,,,,,,,,,,,,,854.1471,854.3456,854.3459,854.8455,,,,,,,,,,,,,,0.7794,1,,,,,,,,,,,,,,z,,,,,,,,,,,,,,,,134,0,854.8463,855.6286,z,1,0.7794,,[],[],[],[],[],[],[],855.6286,857.6278,857.6279,857.628,[],[],[],[],[],[],[],,857.628,857.6281,0.042592621,-0.335185242,0,0,0,,0,133,133,43,1,1,TL,bedise,print,bedise_p.png,,,,,,
,,,,32258,001,2025-11-09_15h41.26.109,HW_LDT_1,2024.2.4,Win32,59.52380952,,,,,,,,,,,,,,,,,,,,,,857.6291,857.8276,857.8277,858.3277,,,,,,,,,,,,,,1.2022,1,,,,,,,,,,,,,,m,,,,,,,,,,,,,,,,135,0,858.3282,859.5311,m,1,1.2022,,[],[],[],[],[],[],[],859.5311,861.529,861.5291,861.5291,[],[],[],[],[],[],[],,861.5291,861.5291,0.042592621,-0.335185242,0,0,0,,0,134,134,93,1,1,word,CEREMONY,cursive,ceremony_c.png,,,,,,
,,,,32258,001,2025-11-09_15h41.26.109,HW_LDT_1,2024.2.4,Win32,59.52380952,,,,,,,,,,,,,,,,,,,,,,861.5297,861.7287,861.7288,862.2262,,,,,,,,,,,,,,1.0172,1,,,,,,,,,,,,,,z,,,,,,,,,,,,,,,,136,1,862.2266,863.2446,z,1,1.0172,,[],[],[],[],[],[],[],863.2447,865.2417,865.2419,869.2247,[],[],[],[],[],[],[],m,869.2249,869.2252,0.042592621,-0.335185242,0,0,0,,0,135,135,19,1,1,RL,monebate,print,monebate_p.png,3.9696,,,,,
,,,,32258,001,2025-11-09_15h41.26.109,HW_LDT_1,2024.2.4,Win32,59.52380952,,,,,,,,,,,,,,,,,,,,,,869.226,869.4239,869.4239,869.9262,,,,,,,,,,,,,,0.8113,0,,,,,,,,,,,,,,m,,,,,,,,,,,,,,,,137,0,869.9266,870.7399,z,0,0.8113,,[],[],[],[],[],[],[],870.74,872.7393,872.7394,872.7396,[],[],[],[],[],[],[],,872.7396,872.7399,0.042592621,-0.335185242,0,0,0,,0,136,136,103,1,1,word,DISPUTE,cursive,dispute_c.png,,,,,,
,,,,32258,001,2025-11-09_15h41.26.109,HW_LDT_1,2024.2.4,Win32,59.52380952,,,,,,,,,,,,,,,,,,,,,,872.7407,872.939,872.9391,873.4389,,,,,,,,,,,,,,1.1384,1,,,,,,,,,,,,,,m,,,,,,,,,,,,,,,,138,0,873.4395,874.5884,m,1,1.1384,,[],[],[],[],[],[],[],874.5885,876.5877,876.5877,876.5881,[],[],[],[],[],[],[],,876.5881,876.5882,0.042592621,-0.335185242,0,0,0,,0,137,137,157,1,1,word,VALIDITY,cursive,validity_c.png,,,,,,
,,,,32258,001,2025-11-09_15h41.26.109,HW_LDT_1,2024.2.4,Win32,59.52380952,,,,,,,,,,,,,,,,,,,,,,876.5889,876.7876,876.7876,877.288,,,,,,,,,,,,,,1.6191,1,,,,,,,,,,,,,,z,,,,,,,,,,,,,,,,139,0,877.2886,878.9208,z,1,1.6191,,[],[],[],[],[],[],[],878.9208,880.9197,880.9198,880.92,[],[],[],[],[],[],[],,880.92,880.92,0.042592621,-0.335185242,0,0,0,,0,138,138,61,1,1,TL,mecidine,cursive,mecidine_c.png,,,,,,
,,,,32258,001,2025-11-09_15h41.26.109,HW_LDT_1,2024.2.4,Win32,59.52380952,,,,,,,,,,,,,,,,,,,,,,880.9207,881.1198,881.1198,881.6195,,,,,,,,,,,,,,2.5192,1,,,,,,,,,,,,,,z,,,,,,,,,,,,,,,,140,0,881.62,884.1523,z,1,2.5192,,[],[],[],[],[],[],[],884.1524,886.1513,886.1514,886.1515,[],[],[],[],[],[],[],,886.1516,886.1517,0.042592621,-0.335185242,0,0,0,,0,139,139,48,1,1,TL,cemerony,cursive,cemerony_c.png,,,,,,
,,,,32258,001,2025-11-09_15h41.26.109,HW_LDT_1,2024.2.4,Win32,59.52380952,,,,,,,,,,,,,,,,,,,,,,886.1524,886.3512,886.3513,886.8511,,,,,,,,,,,,,,3.8014,1,,,,,,,,,,,,,,m,,,,,,,,,,,,,,,,141,0,886.8516,890.6666,m,1,3.8014,,[],[],[],[],[],[],[],890.6667,892.6683,892.6683,892.6685,[],[],[],[],[],[],[],,892.6686,892.6688,0.042592621,-0.335185242,0,0,0,,0,140,140,141,1,1,word,RELIGION,cursive,religion_c.png,,,,,,
,,,,32258,001,2025-11-09_15h41.26.109,HW_LDT_1,2024.2.4,Win32,59.52380952,,,,,,,,,,,,,,,,,,,,,,892.6695,892.8652,892.8652,893.3657,,,,,,,,,,,,,,1.6854,1,,,,,,,,,,,,,,m,,,,,,,,,,,,,,,,142,0,893.366,895.0651,m,1,1.6854,,[],[],[],[],[],[],[],895.0652,897.0643,897.0643,897.0644,[],[],[],[],[],[],[],,897.0645,897.0647,0.042592621,-0.335185242,0,0,0,,0,141,141,95,1,1,word,COMEDY,cursive,comedy_c.png,,,,,,
,,,,32258,001,2025-11-09_15h41.26.109,HW_LDT_1,2024.2.4,Win32,59.52380952,,,,,,,,,,,,,,,,,,,,,,897.0658,897.2644,897.2644,897.764,,,,,,,,,,,,,,1.3678,1,,,,,,,,,,,,,,z,,,,,,,,,,,,,,,,143,0,897.7645,899.1332,z,1,1.3678,,[],[],[],[],[],[],[],899.1332,901.1295,901.1295,901.1297,[],[],[],[],[],[],[],,901.1297,901.1298,0.042592621,-0.335185242,0,0,0,,0,142,142,49,1,1,TL,clicinal,cursive,clicinal_c.png,,,,,,
,,,,32258,001,2025-11-09_15h41.26.109,HW_LDT_1,2024.2.4,Win32,59.52380952,,,,,,,,,,,,,,,,,,,,,,901.1306,901.3297,901.3297,901.8295,,,,,,,,,,,,,,3.4023,1,,,,,,,,,,,,,,z,,,,,,,,,,,,,,,,144,0,901.8301,905.245,z,1,3.4023,,[],[],[],[],[],[],[],905.2451,907.2443,907.2444,907.2449,[],[],[],[],[],[],[],,907.245,907.2451,0.042592621,-0.335185242,0,0,0,,0,143,143,58,1,1,TL,incidate,cursive,incidate_c.png,,,,,,
,,,,32258,001,2025-11-09_15h41.26.109,HW_LDT_1,2024.2.4,Win32,59.52380952,,,,,,,,,,,,,,,,,,,,,,907.2459,907.4446,907.4447,907.9441,,,,,,,,,,,,,,1.0135,1,,,,,,,,,,,,,,z,,,,,,,,,,,,,,,,145,0,907.9446,908.9602,z,1,1.0135,,[],[],[],[],[],[],[],908.9603,910.9599,910.9599,910.9602,[],[],[],[],[],[],[],,910.9602,910.9603,0.042592621,-0.335185242,0,0,0,,0,144,144,41,1,1,TL,bevoled,print,bevoled_p.png,,,,,,
,,,,32258,001,2025-11-09_15h41.26.109,HW_LDT_1,2024.2.4,Win32,59.52380952,,,,,,,,,,,,,,,,,,,,,,910.961,911.1594,911.1595,911.6595,,,,,,,,,,,,,,0.8878,1,,,,,,,,,,,,,,m,,,,,,,,,,,,,,,,146,0,911.66,912.5593,m,1,0.8878,,[],[],[],[],[],[],[],912.5594,914.5587,914.5588,914.5589,[],[],[],[],[],[],[],,914.559,914.5591,0.042592621,-0.335185242,0,0,0,,0,145,145,120,1,1,word,MILITARY,print,military_p.png,,,,,,
,,,,32258,001,2025-11-09_15h41.26.109,HW_LDT_1,2024.2.4,Win32,59.52380952,,,,,,,,,,,,,,,,,,,,,,914.5607,914.7585,914.7585,915.2583,,,,,,,,,,,,,,1.4141,1,,,,,,,,,,,,,,z,,,,,,,,,,,,,,,,147,1,915.2593,916.6744,z,1,1.4141,,[],[],[],[],[],[],[],916.6745,918.6738,918.6738,920.2399,[],[],[],[],[],[],[],z,920.24,920.2402,0.042592621,-0.335185242,0,0,0,,0,146,146,77,1,1,TL,tritube,cursive,tritube_c.png,1.5577,,,,,
,,,,32258,001,2025-11-09_15h41.26.109,HW_LDT_1,2024.2.4,Win32,59.52380952,,,,,,,,,,,,,,,,,,,,,,920.2412,920.4398,920.4399,920.9397,,,,,,,,,,,,,,1.9228,1,,,,,,,,,,,,,,z,,,,,,,,,,,,,,,,148,0,920.9403,922.8725,z,1,1.9228,,[],[],[],[],[],[],[],922.8726,924.8717,924.8717,924.8719,[],[],[],[],[],[],[],,924.872,924.8721,0.042592621,-0.335185242,0,0,0,,0,147,147,50,1,1,TL,condiser,cursive,condiser_c.png,,,,,,
,,,,32258,001,2025-11-09_15h41.26.109,HW_LDT_1,2024.2.4,Win32,59.52380952,,,,,,,,,,,,,,,,,,,,,,924.8733,925.0716,925.0717,925.5717,,,,,,,,,,,,,,0.6845,1,,,,,,,,,,,,,,z,,,,,,,,,,,,,,,,149,0,925.5728,926.2584,z,1,0.6845,,[],[],[],[],[],[],[],926.2585,928.2542,928.2543,928.255,[],[],[],[],[],[],[],,928.255,928.2553,0.042592621,-0.335185242,0,0,0,,0,148,148,79,1,1,TL,veretan,print,veretan_p.png,,,,,,
,,,,32258,001,2025-11-09_15h41.26.109,HW_LDT_1,2024.2.4,Win32,59.52380952,,,,,,,,,,,,,,,,,,,,,,928.2569,928.4542,928.4542,928.9541,,,,,,,,,,,,,,2.9005,1,,,,,,,,,,,,,,m,,,,,,,,,,,,,,,,150,0,928.9557,931.8575,m,1,2.9005,,[],[],[],[],[],[],[],931.8576,933.8525,933.8526,933.8529,[],[],[],[],[],[],[],,933.853,933.8533,0.042592621,-0.335185242,0,0,0,,0,149,149,119,1,1,word,MEMORY,cursive,memory_c.png,,,,,,
,,,,32258,001,2025-11-09_15h41.26.109,HW_LDT_1,2024.2.4,Win32,59.52380952,,,,,,,,,,,,,,,,,,,,,,933.8545,934.052,934.052,934.5521,,,,,,,,,,,,,,2.1288,1,,,,,,,,,,,,,,m,,,,,,,,,,,,,,,,151,1,934.5532,936.6842,m,1,2.1288,,[],[],[],[],[],[],[],936.6843,938.6837,938.6839,939.9001,[],[],[],[],[],[],[],z,939.9001,939.9004,0.042592621,-0.335185242,0,0,0,,0,150,150,110,1,1,word,HERITAGE,cursive,heritage_c.png,1.2044,,,,,
,,,,32258,001,2025-11-09_15h41.26.109,HW_LDT_1,2024.2.4,Win32,59.52380952,,,,,,,,,,,,,,,,,,,,,,939.9021,940.0999,940.0999,940.5999,,,,,,,,,,,,,,1.1186,0,,,,,,,,,,,,,,m,,,,,,,,,,,,,,,,152,1,940.6005,941.7205,z,0,1.1186,,[],[],[],[],[],[],[],941.7207,943.7185,943.7185,945.6818,[],[],[],[],[],[],[],z,945.6824,945.6825,0.042592621,-0.335185242,0,0,0,,0,151,151,148,1,1,word,SALINE,print,saline_p.png,1.9547,,,,,
,,,,32258,001,2025-11-09_15h41.26.109,HW_LDT_1,2024.2.4,Win32,59.52380952,,,,,,,,,,,,,,,,,,,,,,945.6835,945.8849,945.8849,946.3813,,,,,,,,,,,,,,3.694,1,,,,,,,,,,,,,,m,,,,,,,,,,,,,,,,153,0,946.3818,950.08,m,1,3.694,,[],[],[],[],[],[],[],950.0803,952.08,952.0801,952.0803,[],[],[],[],[],[],[],,952.0805,952.0807,0.042592621,-0.335185242,0,0,0,,0,152,152,150,1,1,word,SENTIMENT,cursive,sentiment_c.png,,,,,,
,,,,32258,001,2025-11-09_15h41.26.109,HW_LDT_1,2024.2.4,Win32,59.52380952,,,,,,,,,,,,,,,,,,,,,,952.0819,952.2792,952.2793,952.7823,,,,,,,,,,,,,,2.0019,1,,,,,,,,,,,,,,z,,,,,,,,,,,,,,,,154,0,952.7826,954.7952,z,1,2.0019,,[],[],[],[],[],[],[],954.7954,956.7941,956.7942,956.7943,[],[],[],[],[],[],[],,956.7944,956.7945,0.042592621,-0.335185242,0,0,0,,0,153,153,5,1,1,RL,cobeny,cursive,cobeny_c.png,,,,,,
,,,,32258,001,2025-11-09_15h41.26.109,HW_LDT_1,2024.2.4,Win32,59.52380952,,,,,,,,,,,,,,,,,,,,,,956.7957,956.9942,956.9942,957.4942,,,,,,,,,,,,,,2.8122,1,,,,,,,,,,,,,,m,,,,,,,,,,,,,,,,155,0,957.4948,960.3095,m,1,2.8122,,[],[],[],[],[],[],[],960.3096,962.3088,962.3088,962.3091,[],[],[],[],[],[],[],,962.3092,962.3093,0.042592621,-0.335185242,0,0,0,,0,154,154,140,1,1,word,RELATIVE,cursive,relative_c.png,,,,,,
,,,,32258,001,2025-11-09_15h41.26.109,HW_LDT_1,2024.2.4,Win32,59.52380952,,,,,,,,,,,,,,,,,,,,,,962.3105,962.5087,962.5087,963.0092,,,,,,,,,,,,,,0.7041,1,,,,,,,,,,,,,,m,,,,,,,,,,,,,,,,156,0,963.0099,963.7255,m,1,0.7041,,[],[],[],[],[],[],[],963.7256,965.7248,965.7249,965.7253,[],[],[],[],[],[],[],,965.7253,965.7255,0.042592621,-0.335185242,0,0,0,,0,155,155,82,1,1,word,AMATEUR,print,amateur_p.png,,,,,,
,,,,32258,001,2025-11-09_15h41.26.109,HW_LDT_1,2024.2.4,Win32,59.52380952,,,,,,,,,,,,,,,,,,,,,,965.7269,965.9244,965.9244,966.4246,,,,,,,,,,,,,,0.9588,1,,,,,,,,,,,,,,m,,,,,,,,,,,,,,,,157,0,966.4255,967.3908,m,1,0.9588,,[],[],[],[],[],[],[],967.391,969.3901,969.3901,969.3905,[],[],[],[],[],[],[],,969.3906,969.3909,0.042592621,-0.335185242,0,0,0,,0,156,156,138,1,1,word,REFUSAL,print,refusal_p.png,,,,,,
,,,,32258,001,2025-11-09_15h41.26.109,HW_LDT_1,2024.2.4,Win32,59.52380952,,,,,,,,,,,,,,,,,,,,,,969.3922,969.5899,969.59,970.0898,,,,,,,,,,,,,,0.7356,1,,,,,,,,,,,,,,m,,,,,,,,,,,,,,,,158,0,970.0904,970.8273,m,1,0.7356,,[],[],[],[],[],[],[],970.8273,972.8226,972.8226,972.8229,[],[],[],[],[],[],[],,972.823,972.8231,0.042592621,-0.335185242,0,0,0,,0,157,157,107,1,1,word,EVIDENT,print,evident_p.png,,,,,,
,,,,32258,001,2025-11-09_15h41.26.109,HW_LDT_1,2024.2.4,Win32,59.52380952,,,,,,,,,,,,,,,,,,,,,,972.8246,973.0226,973.0227,973.5218,,,,,,,,,,,,,,1.2687,1,,,,,,,,,,,,,,m,,,,,,,,,,,,,,,,159,0,973.5226,974.7924,m,1,1.2687,,[],[],[],[],[],[],[],974.7925,976.7875,976.7877,976.7882,[],[],[],[],[],[],[],,976.7883,976.7884,0.042592621,-0.335185242,0,0,0,,0,158,158,98,1,1,word,CRIMINAL,print,criminal_p.png,,,,,,
,,,,32258,001,2025-11-09_15h41.26.109,HW_LDT_1,2024.2.4,Win32,59.52380952,,,,,,,,,,,,,,,,,,,,,,976.7898,976.99,976.9902,977.4878,,,,,,,,,,,,,,1.9618,1,,,,,,,,,,,,,,m,,,,,,,,,,,,,,,,160,0,977.4889,979.453,m,1,1.9618,,[],[],[],[],[],[],[],979.4531,981.4524,981.4524,981.4526,[],[],[],[],[],[],[],,981.4527,981.4528,0.042592621,-0.335185242,0,0,0,,0,159,159,127,1,1,word,ORIGINAL,cursive,original_c.png,,,,,,
,,,,32258,001,2025-11-09_15h41.26.109,HW_LDT_1,2024.2.4,Win32,59.52380952,,,,,,,,,,,,,,,,,,,,,,,,,,,,,,,,,,,,,,,,,,,,,,,,,,,,,,,,,,,,,,,,,,,,,,,,,,,,,,,,,,,,,,,,,,,,,,,,,,,,,,,,,,,,,,,,,,,,,,,981.4769,986.4508
