counterbalance_lists.group,counterbalance_lists.remaining,get_list.started,get_list.stopped,participant,session,date,expName,psychopyVersion,OS,frameRate,Instructions.started,Instructions.stopped,key_resp.keys,key_resp.rt,key_resp.duration,instr_done_touch.x,instr_done_touch.y,instr_done_touch.leftButton,instr_done_touch.midButton,instr_done_touch.rightButton,start_instr.thisRepN,start_instr.thisTrialN,start_instr.thisN,start_instr.thisIndex,start_instr.ran,pageN,phase,instruct_text,has_image,instruct_image,showProgress.started,showProgress.stopped,fix.started,fix.stopped,prac.started,prac.stopped,response.keys,response.corr,response.rt,response.duration,touch_resp.x,touch_resp.y,touch_resp.leftButton,touch_resp.midButton,touch_resp.rightButton,touch_resp.time,touch_resp.clicked_name,rt,corr,feedback.started,feedback.stopped,trials.thisRepN,trials.thisTrialN,trials.thisN,trials.thisIndex,trials.ran,TrialID,StimulusType,Condition,PrimeDuration,Prime,Target,corrAns,Instructions_expt.started,Instructions_expt.stopped,key_resp_3.keys,key_resp_3.rt,key_resp_3.duration,instr_done_touch_3.x,instr_done_touch_3.y,instr_done_touch_3.leftButton,instr_done_touch_3.midButton,instr_done_touch_3.rightButton,instr_experiment.thisRepN,instr_experiment.thisTrialN,instr_experiment.thisN,instr_experiment.thisIndex,instr_experiment.ran,trialID,flag,maintask.started,maintask.stopped,key_resp_2.keys,key_resp_2.corr,key_resp_2.rt,key_resp_2.duration,targ_click.x,targ_click.y,targ_click.leftButton,targ_click.midButton,targ_click.rightButton,targ_click.time,targ_click.clicked_name,ITI.started,ITI.stopped,probe.started,probe.stopped,click_probe.x,click_probe.y,click_probe.leftButton,click_probe.midButton,click_probe.rightButton,click_probe.time,click_probe.clicked_name,key_resp_probe.keys,Break.started,Break.stopped,break_done_touch.x,break_done_touch.y,break_done_touch.leftButton,break_done_touch.midButton,break_done_touch.rightButton,break_done_keyboard.keys,list3_trials.thisRepN,list3_trials.thisTrialN,list3_trials.thisN,list3_trials.thisIndex,list3_trials.ran,list_id,item_type,string,font,stim_file,key_resp_probe.rt,key_resp_probe.duration,break_done_keyboard.rt,break_done_keyboard.duration,End.started,End.stopped
list3,,0.4112,0.4114,32253,001,2025-10-18_12h55.04.713,HW_LDT_1,2024.2.4,MacIntel,59.88023952,,,,,,,,,,,,,,,,,,,,,,,,,,,,,,,,,,,,,,,,,,,,,,,,,,,,,,,,,,,,,,,,,,,,,,,,,,,,,,,,,,,,,,,,,,,,,,,,,,,,,,,,,,,,,,,,,,,,,,,
,,,,32253,001,2025-10-18_12h55.04.713,HW_LDT_1,2024.2.4,MacIntel,59.88023952,0.4314,18.5357,space,18.0661,,-0.154185424,-0.367651573,0,0,0,0,0,0,0,1,1,instructions,"INSTRUCTIONS
At the start of each trial, look at the plus sign  (+) in the center of the screen.  This tells you that a trial is about to begin and where to look. Second, the plus sign will disappear and a string of letters will appear. Your task is to determine if the string of letters is a word or not. If the item is a word press the M key (on keyboard)  or touch the word button (phone/tablet).  If the item is not a word,  press the  Z key (on keyboard)  or touch the nonword button (on phone/tablet). The items will be presented for a short time. 
Press the space bar or touch  continue.",0,,,,,,,,,,,,,,,,,,,,,,,,,,,,,,,,,,,,,,,,,,,,,,,,,,,,,,,,,,,,,,,,,,,,,,,,,,,,,,,,,,,,,,,,,,,,,,,,,,,,
,,,,32253,001,2025-10-18_12h55.04.713,HW_LDT_1,2024.2.4,MacIntel,59.88023952,18.5469,25.7784,space,7.1995,,-0.154185424,-0.367651573,0,0,0,0,1,1,1,1,2,instructions,"If your device has a keyboard, press the 'Z' key for nonwords and the 'M' key for words.





Press the space bar or touch the button below to continue.",0,keyboard-example.gif,,,,,,,,,,,,,,,,,,,,,,,,,,,,,,,,,,,,,,,,,,,,,,,,,,,,,,,,,,,,,,,,,,,,,,,,,,,,,,,,,,,,,,,,,,,,,,,,,,,
,,,,32253,001,2025-10-18_12h55.04.713,HW_LDT_1,2024.2.4,MacIntel,59.88023952,25.7795,31.7286,space,5.9253,,-0.154185424,-0.367651573,0,0,0,0,2,2,2,1,3,instructions,"If you are using a touchscreen only device, use the buttons on the screen. Do not use the mouse.





Press the space bar or touch the button below to continue.",0,touchscreen-example.gif,,,,,,,,,,,,,,,,,,,,,,,,,,,,,,,,,,,,,,,,,,,,,,,,,,,,,,,,,,,,,,,,,,,,,,,,,,,,,,,,,,,,,,,,,,,,,,,,,,,
,,,,32253,001,2025-10-18_12h55.04.713,HW_LDT_1,2024.2.4,MacIntel,59.88023952,31.7302,42.479,space,10.7298,,-0.154185424,-0.367651573,0,0,0,0,3,3,3,1,4,instructions,"It is very important that you respond as quickly and accurately as possible, as each letter string will only be on the screen for two seconds. If you do not respond within this time, the message 'Too slow!' will be displayed and the experiment will progress to the next letter string. The first 20 trials will be practice trials and you will receive feedback on your answers. 

Press the space bar or touch the button below to start the practice trials.",0,,,,,,,,,,,,,,,,,,,,,,,,,,,,,,,,,,,,,,,,,,,,,,,,,,,,,,,,,,,,,,,,,,,,,,,,,,,,,,,,,,,,,,,,,,,,,,,,,,,,
,,,,32253,001,2025-10-18_12h55.04.713,HW_LDT_1,2024.2.4,MacIntel,59.88023952,,,,,,,,,,,,,,,,,,,,,42.5048,42.6787,42.6789,43.179,43.1793,48.9953,m,1,5.7843,,[],[],[],[],[],[],[],5.7843,1,48.9955,49.4957,0,0,0,6,1,1007,WORD,UN,16,tropic,ZOMBIE,m,,,,,,,,,,,,,,,,,,,,,,,,,,,,,,,,,,,,,,,,,,,,,,,,,,,,,,,,,,,,,,,,,,
,,,,32253,001,2025-10-18_12h55.04.713,HW_LDT_1,2024.2.4,MacIntel,59.88023952,,,,,,,,,,,,,,,,,,,,,49.4973,49.6945,49.6946,50.1953,50.1965,51.8286,m,1,1.612,,[],[],[],[],[],[],[],1.612,1,51.8288,52.3284,0,1,1,2,1,1003,WORD,"ID",16,almond,ALMOND,m,,,,,,,,,,,,,,,,,,,,,,,,,,,,,,,,,,,,,,,,,,,,,,,,,,,,,,,,,,,,,,,,,,
,,,,32253,001,2025-10-18_12h55.04.713,HW_LDT_1,2024.2.4,MacIntel,59.88023952,,,,,,,,,,,,,,,,,,,,,52.3291,52.5286,52.5286,53.0285,53.0291,54.2115,z,1,1.1635,,[],[],[],[],[],[],[],1.1635,1,54.2118,54.7115,0,2,2,11,1,1012,NW,"ID",16,rashet,RASHET,z,,,,,,,,,,,,,,,,,,,,,,,,,,,,,,,,,,,,,,,,,,,,,,,,,,,,,,,,,,,,,,,,,,
,,,,32253,001,2025-10-18_12h55.04.713,HW_LDT_1,2024.2.4,MacIntel,59.88023952,,,,,,,,,,,,,,,,,,,,,54.713,54.9121,54.9122,55.4122,55.4132,56.1113,m,1,0.6803,,[],[],[],[],[],[],[],0.6803,1,56.1114,56.6122,0,3,3,5,1,1006,WORD,UN,33,frenzy,OBTAIN,m,,,,,,,,,,,,,,,,,,,,,,,,,,,,,,,,,,,,,,,,,,,,,,,,,,,,,,,,,,,,,,,,,,
,,,,32253,001,2025-10-18_12h55.04.713,HW_LDT_1,2024.2.4,MacIntel,59.88023952,,,,,,,,,,,,,,,,,,,,,56.6142,56.8121,56.8121,57.3121,57.3132,58.1955,m,1,0.8615,,[],[],[],[],[],[],[],0.8615,1,58.1957,58.6953,0,4,4,1,1,1002,WORD,"ID",33,adjust,ADJUST,m,,,,,,,,,,,,,,,,,,,,,,,,,,,,,,,,,,,,,,,,,,,,,,,,,,,,,,,,,,,,,,,,,,
,,,,32253,001,2025-10-18_12h55.04.713,HW_LDT_1,2024.2.4,MacIntel,59.88023952,,,,,,,,,,,,,,,,,,,,,58.6967,58.8954,58.8955,59.3954,59.3963,60.1622,z,1,0.743,,[],[],[],[],[],[],[],0.743,1,60.1623,60.6612,0,5,5,8,1,1009,NW,"ID",33,aslert,ASLERT,z,,,,,,,,,,,,,,,,,,,,,,,,,,,,,,,,,,,,,,,,,,,,,,,,,,,,,,,,,,,,,,,,,,
,,,,32253,001,2025-10-18_12h55.04.713,HW_LDT_1,2024.2.4,MacIntel,59.88023952,,,,,,,,,,,,,,,,,,,,,60.6629,60.862,60.8621,61.3621,61.363,62.062,m,1,0.6784,,[],[],[],[],[],[],[],0.6784,1,62.0622,62.5612,0,6,6,7,1,1008,WORD,UN,16,hurdle,VOLUME,m,,,,,,,,,,,,,,,,,,,,,,,,,,,,,,,,,,,,,,,,,,,,,,,,,,,,,,,,,,,,,,,,,,
,,,,32253,001,2025-10-18_12h55.04.713,HW_LDT_1,2024.2.4,MacIntel,59.88023952,,,,,,,,,,,,,,,,,,,,,62.5626,62.7621,62.7622,63.262,63.2628,64.179,z,1,0.9065,,[],[],[],[],[],[],[],0.9065,1,64.1791,64.6778,0,7,7,14,1,1015,NW,UN,16,miaber,THRALE,z,,,,,,,,,,,,,,,,,,,,,,,,,,,,,,,,,,,,,,,,,,,,,,,,,,,,,,,,,,,,,,,,,,
,,,,32253,001,2025-10-18_12h55.04.713,HW_LDT_1,2024.2.4,MacIntel,59.88023952,,,,,,,,,,,,,,,,,,,,,64.6795,64.8779,64.8779,65.3789,65.3798,66.2778,z,1,0.8774,,[],[],[],[],[],[],[],0.8774,1,66.2779,66.7788,0,8,8,9,1,1010,NW,"ID",33,fariny,FARINY,z,,,,,,,,,,,,,,,,,,,,,,,,,,,,,,,,,,,,,,,,,,,,,,,,,,,,,,,,,,,,,,,,,,
,,,,32253,001,2025-10-18_12h55.04.713,HW_LDT_1,2024.2.4,MacIntel,59.88023952,,,,,,,,,,,,,,,,,,,,,66.7802,66.9776,66.9776,67.4782,67.4792,68.6446,z,1,1.1462,,[],[],[],[],[],[],[],1.1462,1,68.6447,69.1455,0,9,9,12,1,1013,NW,UN,33,adveil,SPRINY,z,,,,,,,,,,,,,,,,,,,,,,,,,,,,,,,,,,,,,,,,,,,,,,,,,,,,,,,,,,,,,,,,,,
,,,,32253,001,2025-10-18_12h55.04.713,HW_LDT_1,2024.2.4,MacIntel,59.88023952,,,,,,,,,,,,,,,,,,,,,69.1466,69.3449,69.3449,69.8455,69.8464,70.5284,m,1,0.6591,,[],[],[],[],[],[],[],0.6591,1,70.5285,71.0279,0,10,10,4,1,1005,WORD,UN,33,abound,SQUEAK,m,,,,,,,,,,,,,,,,,,,,,,,,,,,,,,,,,,,,,,,,,,,,,,,,,,,,,,,,,,,,,,,,,,
,,,,32253,001,2025-10-18_12h55.04.713,HW_LDT_1,2024.2.4,MacIntel,59.88023952,,,,,,,,,,,,,,,,,,,,,71.0292,71.2284,71.2284,71.7277,71.7286,72.4444,m,1,0.6946,,[],[],[],[],[],[],[],0.6946,1,72.4445,72.9444,0,11,11,0,1,1001,WORD,"ID",33,utopia,UTOPIA,m,,,,,,,,,,,,,,,,,,,,,,,,,,,,,,,,,,,,,,,,,,,,,,,,,,,,,,,,,,,,,,,,,,
,,,,32253,001,2025-10-18_12h55.04.713,HW_LDT_1,2024.2.4,MacIntel,59.88023952,,,,,,,,,,,,,,,,,,,,,72.9457,73.145,73.1451,73.6454,73.6466,74.5444,z,1,0.8763,,[],[],[],[],[],[],[],0.8763,1,74.5445,75.0444,0,12,12,10,1,1011,NW,"ID",16,inlade,INLADE,z,,,,,,,,,,,,,,,,,,,,,,,,,,,,,,,,,,,,,,,,,,,,,,,,,,,,,,,,,,,,,,,,,,
,,,,32253,001,2025-10-18_12h55.04.713,HW_LDT_1,2024.2.4,MacIntel,59.88023952,,,,,,,,,,,,,,,,,,,,,75.0455,75.2444,75.2445,75.7445,75.7455,76.512,z,1,0.7453,,[],[],[],[],[],[],[],0.7453,1,76.5121,77.0112,0,13,13,13,1,1014,NW,UN,33,winfer,ROUPET,z,,,,,,,,,,,,,,,,,,,,,,,,,,,,,,,,,,,,,,,,,,,,,,,,,,,,,,,,,,,,,,,,,,
,,,,32253,001,2025-10-18_12h55.04.713,HW_LDT_1,2024.2.4,MacIntel,59.88023952,,,,,,,,,,,,,,,,,,,,,77.0125,77.211,77.211,77.7122,77.7129,78.4618,m,1,0.732,,[],[],[],[],[],[],[],0.732,1,78.4618,78.9611,0,14,14,3,1,1004,WORD,"ID",16,matrix,MATRIX,m,,,,,,,,,,,,,,,,,,,,,,,,,,,,,,,,,,,,,,,,,,,,,,,,,,,,,,,,,,,,,,,,,,
,,,,32253,001,2025-10-18_12h55.04.713,HW_LDT_1,2024.2.4,MacIntel,59.88023952,,,,,,,,,,,,,,,,,,,,,78.9625,79.1619,79.1619,79.6622,79.6632,80.6779,z,1,0.9894,,[],[],[],[],[],[],[],0.9894,1,80.6781,81.1788,0,15,15,15,1,1016,NW,UN,16,mushed,WHAISE,z,,,,,,,,,,,,,,,,,,,,,,,,,,,,,,,,,,,,,,,,,,,,,,,,,,,,,,,,,,,,,,,,,,
,,,,32253,001,2025-10-18_12h55.04.713,HW_LDT_1,2024.2.4,MacIntel,59.88023952,,,,,,,,,,,,,,,,1,end_of_practice,"You have completed the practice trials. During the experimental trials, you will not receive feedback. On some trials you will be asked to report whether the item you just saw was in cursive or print. 
Before you begin, please ensure that you are in a comfortable and quiet location and will not be disturbed for about 15 minutes, as we cannot use your data if you do not complete all the trials. 
 When you are ready to start the experimental trials, please press space or touch the button below.",,,,,,,,,,,,,,,,,,,,,,,,,,,,,,,,,,,,81.1871,92.7202,space,11.4959,,-0.138779671,-0.384771106,0,0,0,0,0,0,0,1,,,,,,,,,,,,,,,,,,,,,,,,,,,,,,,,,,,,,,,,,,,,,,,,,,,
,,,,32253,001,2025-10-18_12h55.04.713,HW_LDT_1,2024.2.4,MacIntel,59.88023952,,,,,,,,,,,,,,,,,,,,,92.7301,92.9123,92.9124,93.4115,,,,,,,,,,,,,,2.2177,0,,,,,,,,,,,,,,z,,,,,,,,,,,,,,,,1,0,93.4135,95.6458,m,0,2.2177,,[],[],[],[],[],[],[],95.6461,97.6458,97.646,97.6493,[],[],[],[],[],[],[],,97.6495,97.6512,-0.138779671,-0.384771106,0,0,0,,0,0,0,79,1,3,TL,veretan,cursive,veretan_c.png,,,,,,
,,,,32253,001,2025-10-18_12h55.04.713,HW_LDT_1,2024.2.4,MacIntel,59.88023952,,,,,,,,,,,,,,,,,,,,,97.6521,97.8455,97.8456,98.3455,,,,,,,,,,,,,,1.173,1,,,,,,,,,,,,,,m,,,,,,,,,,,,,,,,2,0,98.346,99.5289,m,1,1.173,,[],[],[],[],[],[],[],99.529,101.5289,101.529,101.5292,[],[],[],[],[],[],[],,101.5293,101.5294,-0.138779671,-0.384771106,0,0,0,,0,1,1,113,1,3,word,LITERAL,print,literal_p.png,,,,,,
,,,,32253,001,2025-10-18_12h55.04.713,HW_LDT_1,2024.2.4,MacIntel,59.88023952,,,,,,,,,,,,,,,,,,,,,101.5307,101.7281,101.7282,102.2288,,,,,,,,,,,,,,3.2048,0,,,,,,,,,,,,,,m,,,,,,,,,,,,,,,,3,0,102.2293,105.4451,z,0,3.2048,,[],[],[],[],[],[],[],105.4452,107.4457,107.4457,107.4461,[],[],[],[],[],[],[],,107.4461,107.4461,-0.138779671,-0.384771106,0,0,0,,0,2,2,149,1,3,word,SENATOR,cursive,senator_c.png,,,,,,
,,,,32253,001,2025-10-18_12h55.04.713,HW_LDT_1,2024.2.4,MacIntel,59.88023952,,,,,,,,,,,,,,,,,,,,,107.4473,107.6447,107.6448,108.145,,,,,,,,,,,,,,2.2546,1,,,,,,,,,,,,,,z,,,,,,,,,,,,,,,,4,0,108.1457,110.4123,z,1,2.2546,,[],[],[],[],[],[],[],110.4124,112.412,112.4121,112.4124,[],[],[],[],[],[],[],,112.4126,112.4127,-0.138779671,-0.384771106,0,0,0,,0,3,3,51,1,3,TL,liretal,print,liretal_p.png,,,,,,
,,,,32253,001,2025-10-18_12h55.04.713,HW_LDT_1,2024.2.4,MacIntel,59.88023952,,,,,,,,,,,,,,,,,,,,,112.4142,112.6123,112.6126,113.1113,,,,,,,,,,,,,,0.986,1,,,,,,,,,,,,,,m,,,,,,,,,,,,,,,,5,0,113.1121,114.1114,m,1,0.986,,[],[],[],[],[],[],[],114.1115,116.1123,116.1124,116.1126,[],[],[],[],[],[],[],,116.1127,116.1129,-0.138779671,-0.384771106,0,0,0,,0,4,4,127,1,3,word,ORIGINAL,cursive,original_c.png,,,,,,
,,,,32253,001,2025-10-18_12h55.04.713,HW_LDT_1,2024.2.4,MacIntel,59.88023952,,,,,,,,,,,,,,,,,,,,,116.1144,116.3121,116.3122,116.8123,,,,,,,,,,,,,,1.2855,1,,,,,,,,,,,,,,m,,,,,,,,,,,,,,,,6,0,116.8131,118.112,m,1,1.2855,,[],[],[],[],[],[],[],118.1121,120.1123,120.1124,120.1128,[],[],[],[],[],[],[],,120.1129,120.113,-0.138779671,-0.384771106,0,0,0,,0,5,5,143,1,3,word,REMOVAL,cursive,removal_c.png,,,,,,
,,,,32253,001,2025-10-18_12h55.04.713,HW_LDT_1,2024.2.4,MacIntel,59.88023952,,,,,,,,,,,,,,,,,,,,,120.1143,120.3113,120.3113,120.8119,,,,,,,,,,,,,,3.0896,1,,,,,,,,,,,,,,z,,,,,,,,,,,,,,,,7,1,120.8125,123.9111,z,1,3.0896,,[],[],[],[],[],[],[],123.9112,125.9114,125.9115,133.7292,[],[],[],[],[],[],[],m,133.7293,133.7296,-0.138779671,-0.384771106,0,0,0,,0,6,6,11,1,3,RL,ebiwent,cursive,ebiwent_c.png,7.8112,,,,,
,,,,32253,001,2025-10-18_12h55.04.713,HW_LDT_1,2024.2.4,MacIntel,59.88023952,,,,,,,,,,,,,,,,,,,,,133.7315,133.9281,133.9282,134.429,,,,,,,,,,,,,,10.4268,1,,,,,,,,,,,,,,z,,,,,,,,,,,,,,,,8,0,134.4299,144.8626,z,1,10.4268,,[],[],[],[],[],[],[],144.863,146.8625,146.8626,146.8631,[],[],[],[],[],[],[],,146.8632,146.8633,-0.137694399,-0.384994007,0,0,0,,0,7,7,59,1,3,TL,paficic,cursive,paficic_c.png,,,,,,
,,,,32253,001,2025-10-18_12h55.04.713,HW_LDT_1,2024.2.4,MacIntel,59.88023952,,,,,,,,,,,,,,,,,,,,,146.8661,147.0623,147.0624,147.5625,,,,,,,,,,,,,,1.8021,1,,,,,,,,,,,,,,m,,,,,,,,,,,,,,,,9,0,147.5633,149.3781,m,1,1.8021,,[],[],[],[],[],[],[],149.3783,151.3793,151.3794,151.3796,[],[],[],[],[],[],[],,151.3796,151.3797,-0.137694399,-0.384994007,0,0,0,,0,8,8,122,1,3,word,MOBILE,cursive,mobile_c.png,,,,,,
,,,,32253,001,2025-10-18_12h55.04.713,HW_LDT_1,2024.2.4,MacIntel,59.88023952,,,,,,,,,,,,,,,,,,,,,151.381,151.5792,151.5793,152.0791,,,,,,,,,,,,,,0.9358,1,,,,,,,,,,,,,,m,,,,,,,,,,,,,,,,10,0,152.0797,153.0289,m,1,0.9358,,[],[],[],[],[],[],[],153.029,155.0282,155.0282,155.0285,[],[],[],[],[],[],[],,155.0287,155.029,-0.137694399,-0.384994007,0,0,0,,0,9,9,156,1,3,word,TRIBUTE,print,tribute_p.png,,,,,,
,,,,32253,001,2025-10-18_12h55.04.713,HW_LDT_1,2024.2.4,MacIntel,59.88023952,,,,,,,,,,,,,,,,,,,,,155.0302,155.2292,155.2292,155.7288,,,,,,,,,,,,,,0.7727,1,,,,,,,,,,,,,,m,,,,,,,,,,,,,,,,11,0,155.7292,156.5123,m,1,0.7727,,[],[],[],[],[],[],[],156.5124,158.5116,158.5116,158.5119,[],[],[],[],[],[],[],,158.5122,158.5124,-0.137694399,-0.384994007,0,0,0,,0,10,10,152,1,3,word,SPECIMEN,print,specimen_p.png,,,,,,
,,,,32253,001,2025-10-18_12h55.04.713,HW_LDT_1,2024.2.4,MacIntel,59.88023952,,,,,,,,,,,,,,,,,,,,,158.5154,158.7125,158.7126,159.2116,,,,,,,,,,,,,,1.9221,1,,,,,,,,,,,,,,z,,,,,,,,,,,,,,,,12,0,159.2121,161.1456,z,1,1.9221,,[],[],[],[],[],[],[],161.1457,163.146,163.146,163.1462,[],[],[],[],[],[],[],,163.1463,163.1464,-0.137694399,-0.384994007,0,0,0,,0,11,11,9,1,3,RL,docirant,print,docirant_p.png,,,,,,
,,,,32253,001,2025-10-18_12h55.04.713,HW_LDT_1,2024.2.4,MacIntel,59.88023952,,,,,,,,,,,,,,,,,,,,,163.1478,163.346,163.3461,163.8459,,,,,,,,,,,,,,0.7896,1,,,,,,,,,,,,,,m,,,,,,,,,,,,,,,,13,0,163.8467,164.645,m,1,0.7896,,[],[],[],[],[],[],[],164.645,166.6458,166.6459,166.6462,[],[],[],[],[],[],[],,166.6463,166.6464,-0.137694399,-0.384778414,0,0,0,,0,12,12,124,1,3,word,NUMERICAL,print,numerical_p.png,,,,,,
,,,,32253,001,2025-10-18_12h55.04.713,HW_LDT_1,2024.2.4,MacIntel,59.88023952,,,,,,,,,,,,,,,,,,,,,166.6484,166.8454,166.8454,167.3452,,,,,,,,,,,,,,3.77,1,,,,,,,,,,,,,,z,,,,,,,,,,,,,,,,14,0,167.3458,171.1293,z,1,3.77,,[],[],[],[],[],[],[],171.1293,173.1293,173.1294,173.1296,[],[],[],[],[],[],[],,173.1296,173.1297,-0.137694399,-0.384778414,0,0,0,,0,13,13,29,1,3,RL,selamor,cursive,selamor_c.png,,,,,,
,,,,32253,001,2025-10-18_12h55.04.713,HW_LDT_1,2024.2.4,MacIntel,59.88023952,,,,,,,,,,,,,,,,,,,,,173.1311,173.3284,173.3285,173.8293,,,,,,,,,,,,,,3.2531,1,,,,,,,,,,,,,,m,,,,,,,,,,,,,,,,15,1,173.83,177.0959,m,1,3.2531,,[],[],[],[],[],[],[],177.096,179.0958,179.0959,180.9963,[],[],[],[],[],[],[],z,180.9963,180.9965,-0.137694399,-0.384778414,0,0,0,,0,14,14,121,1,3,word,MISTAKE,cursive,mistake_c.png,1.887,,,,,
,,,,32253,001,2025-10-18_12h55.04.713,HW_LDT_1,2024.2.4,MacIntel,59.88023952,,,,,,,,,,,,,,,,,,,,,180.9986,181.1949,181.1949,181.6959,,,,,,,,,,,,,,4.198,1,,,,,,,,,,,,,,z,,,,,,,,,,,,,,,,16,1,181.6964,185.896,z,1,4.198,,[],[],[],[],[],[],[],185.8962,187.895,187.8952,194.3114,[],[],[],[],[],[],[],z,194.3115,194.3116,-0.138125585,-0.384778414,0,0,0,,0,15,15,4,1,3,RL,cafigal,cursive,cafigal_c.png,6.404,,,,,
,,,,32253,001,2025-10-18_12h55.04.713,HW_LDT_1,2024.2.4,MacIntel,59.88023952,,,,,,,,,,,,,,,,,,,,,194.3127,194.5122,194.5123,195.0126,,,,,,,,,,,,,,1.4705,1,,,,,,,,,,,,,,m,,,,,,,,,,,,,,,,17,0,195.0133,196.4963,m,1,1.4705,,[],[],[],[],[],[],[],196.4964,198.4954,198.4954,198.4956,[],[],[],[],[],[],[],,198.4957,198.4958,-0.138344832,-0.384778414,0,0,0,,0,16,16,115,1,3,word,LOGICAL,cursive,logical_c.png,,,,,,
,,,,32253,001,2025-10-18_12h55.04.713,HW_LDT_1,2024.2.4,MacIntel,59.88023952,,,,,,,,,,,,,,,,,,,,,198.4968,198.6958,198.696,199.1959,,,,,,,,,,,,,,1.5864,1,,,,,,,,,,,,,,m,,,,,,,,,,,,,,,,18,0,199.1974,200.7951,m,1,1.5864,,[],[],[],[],[],[],[],200.7952,202.7953,202.7954,202.7957,[],[],[],[],[],[],[],,202.7958,202.796,-0.138560424,-0.384778414,0,0,0,,0,17,17,83,1,3,word,ANIMAL,cursive,animal_c.png,,,,,,
,,,,32253,001,2025-10-18_12h55.04.713,HW_LDT_1,2024.2.4,MacIntel,59.88023952,,,,,,,,,,,,,,,,,,,,,202.798,202.9956,202.9956,203.4953,,,,,,,,,,,,,,1.9809,1,,,,,,,,,,,,,,z,,,,,,,,,,,,,,,,19,0,203.4961,205.4783,z,1,1.9809,,[],[],[],[],[],[],[],205.4784,207.4795,207.4795,207.4796,[],[],[],[],[],[],[],,207.4798,207.4799,-0.138560424,-0.384778414,0,0,0,,0,18,18,25,1,3,RL,retupar,print,retupar_p.png,,,,,,
,,,,32253,001,2025-10-18_12h55.04.713,HW_LDT_1,2024.2.4,MacIntel,59.88023952,,,,,,,,,,,,,,,,,,,,,207.4813,207.6794,207.6794,208.1792,,,,,,,,,,,,,,2.4718,1,,,,,,,,,,,,,,z,,,,,,,,,,,,,,,,20,0,208.1799,210.6628,z,1,2.4718,,[],[],[],[],[],[],[],210.6628,212.6623,212.6624,212.6625,[],[],[],[],[],[],[],,212.6626,212.6626,-0.138560424,-0.384778414,0,0,0,,0,19,19,75,1,3,TL,sloten,cursive,sloten_c.png,,,,,,
,,,,32253,001,2025-10-18_12h55.04.713,HW_LDT_1,2024.2.4,MacIntel,59.88023952,,,,,,,,,,,,,,,,,,,,,212.6638,212.8617,212.8618,213.3621,,,,,,,,,,,,,,4.77,1,,,,,,,,,,,,,,z,,,,,,,,,,,,,,,,21,1,213.3627,218.1452,z,1,4.77,,[],[],[],[],[],[],[],218.1452,220.1462,220.1462,222.2293,[],[],[],[],[],[],[],z,222.2294,222.2296,-0.138344832,-0.384778414,0,0,0,,0,20,20,5,1,3,RL,capefory,cursive,capefory_c.png,2.0711,,,,,
,,,,32253,001,2025-10-18_12h55.04.713,HW_LDT_1,2024.2.4,MacIntel,59.88023952,,,,,,,,,,,,,,,,,,,,,222.2309,222.4287,222.4287,222.9294,,,,,,,,,,,,,,1.2551,1,,,,,,,,,,,,,,z,,,,,,,,,,,,,,,,22,0,222.9301,224.195,z,1,1.2551,,[],[],[],[],[],[],[],224.1951,226.1954,226.1955,226.1956,[],[],[],[],[],[],[],,226.1957,226.1958,-0.138344832,-0.384778414,0,0,0,,0,21,21,31,1,3,RL,trilude,print,trilude_p.png,,,,,,
,,,,32253,001,2025-10-18_12h55.04.713,HW_LDT_1,2024.2.4,MacIntel,59.88023952,,,,,,,,,,,,,,,,,,,,,226.1967,226.3951,226.3951,226.8952,,,,,,,,,,,,,,1.1143,1,,,,,,,,,,,,,,m,,,,,,,,,,,,,,,,23,0,226.8956,228.0125,m,1,1.1143,,[],[],[],[],[],[],[],228.0125,230.0119,230.0119,230.0121,[],[],[],[],[],[],[],,230.0121,230.0122,-0.138344832,-0.384778414,0,0,0,,0,22,22,118,1,3,word,MEDICINE,print,medicine_p.png,,,,,,
,,,,32253,001,2025-10-18_12h55.04.713,HW_LDT_1,2024.2.4,MacIntel,59.88023952,,,,,,,,,,,,,,,,,,,,,230.0135,230.2118,230.2119,230.7129,,,,,,,,,,,,,,0.8906,1,,,,,,,,,,,,,,m,,,,,,,,,,,,,,,,24,0,230.7134,231.6126,m,1,0.8906,,[],[],[],[],[],[],[],231.6126,233.6127,233.6128,233.6131,[],[],[],[],[],[],[],,233.6132,233.6132,-0.138344832,-0.384778414,0,0,0,,0,23,23,86,1,3,word,BESIDE,cursive,beside_c.png,,,,,,
,,,,32253,001,2025-10-18_12h55.04.713,HW_LDT_1,2024.2.4,MacIntel,59.88023952,,,,,,,,,,,,,,,,,,,,,233.6145,233.8126,233.8127,234.3119,,,,,,,,,,,,,,6.6714,1,,,,,,,,,,,,,,m,,,,,,,,,,,,,,,,25,0,234.3126,240.9962,m,1,6.6714,,[],[],[],[],[],[],[],240.9962,242.9961,242.9963,242.9965,[],[],[],[],[],[],[],,242.9966,242.9967,-0.138344832,-0.384778414,0,0,0,,0,24,24,128,1,3,word,PACIFIC,cursive,pacific_c.png,,,,,,
,,,,32253,001,2025-10-18_12h55.04.713,HW_LDT_1,2024.2.4,MacIntel,59.88023952,,,,,,,,,,,,,,,,,,,,,242.9984,243.1963,243.1964,243.695,,,,,,,,,,,,,,2.5887,1,,,,,,,,,,,,,,m,,,,,,,,,,,,,,,,26,1,243.6953,246.2949,m,1,2.5887,,[],[],[],[],[],[],[],246.2949,248.2962,248.2963,249.6462,[],[],[],[],[],[],[],m,249.6462,249.6464,-0.138344832,-0.384778414,0,0,0,,0,25,25,116,1,3,word,MARGINAL,print,marginal_p.png,1.3486,,,,,
,,,,32253,001,2025-10-18_12h55.04.713,HW_LDT_1,2024.2.4,MacIntel,59.88023952,,,,,,,,,,,,,,,,,,,,,249.6477,249.8459,249.8459,250.3454,,,,,,,,,,,,,,5.439,0,,,,,,,,,,,,,,m,,,,,,,,,,,,,,,,27,0,250.3462,255.7952,z,0,5.439,,[],[],[],[],[],[],[],255.7953,257.7963,257.7963,257.7967,[],[],[],[],[],[],[],,257.7967,257.7969,-0.137906338,-0.384778414,0,0,0,,0,26,26,99,1,3,word,DEBATE,cursive,debate_c.png,,,,,,
,,,,32253,001,2025-10-18_12h55.04.713,HW_LDT_1,2024.2.4,MacIntel,59.88023952,,,,,,,,,,,,,,,,,,,,,257.7985,257.9962,257.9962,258.4963,,,,,,,,,,,,,,4.1541,1,,,,,,,,,,,,,,z,,,,,,,,,,,,,,,,28,0,258.4969,262.663,z,1,4.1541,,[],[],[],[],[],[],[],262.6633,264.663,264.6632,264.6637,[],[],[],[],[],[],[],,264.6638,264.6641,-0.135465388,-0.385516546,0,0,0,,0,27,27,14,1,3,RL,lofase,cursive,lofase_c.png,,,,,,
,,,,32253,001,2025-10-18_12h55.04.713,HW_LDT_1,2024.2.4,MacIntel,59.88023952,,,,,,,,,,,,,,,,,,,,,264.6672,264.8618,264.8618,265.3625,,,,,,,,,,,,,,1.7201,1,,,,,,,,,,,,,,z,,,,,,,,,,,,,,,,29,0,265.3632,267.0962,z,1,1.7201,,[],[],[],[],[],[],[],267.0963,269.0962,269.0963,269.0965,[],[],[],[],[],[],[],,269.0965,269.0965,-0.135465388,-0.385516546,0,0,0,,0,28,28,56,1,3,TL,meromy,print,meromy_p.png,,,,,,
,,,,32253,001,2025-10-18_12h55.04.713,HW_LDT_1,2024.2.4,MacIntel,59.88023952,,,,,,,,,,,,,,,,,,,,,269.0976,269.2963,269.2963,269.7954,,,,,,,,,,,,,,2.2957,1,,,,,,,,,,,,,,z,,,,,,,,,,,,,,,,30,1,269.7961,272.0959,z,1,2.2957,,[],[],[],[],[],[],[],272.096,274.0965,274.0966,275.2125,[],[],[],[],[],[],[],m,275.2125,275.2126,-0.135680981,-0.385516546,0,0,0,,0,29,29,53,1,3,TL,marnigal,print,marnigal_p.png,1.1051,,,,,
,,,,32253,001,2025-10-18_12h55.04.713,HW_LDT_1,2024.2.4,MacIntel,59.88023952,,,,,,,,,,,,,,,,,,,,,275.2136,275.413,275.4131,275.913,,,,,,,,,,,,,,1.1478,1,,,,,,,,,,,,,,m,,,,,,,,,,,,,,,,31,0,275.9134,277.0621,m,1,1.1478,,[],[],[],[],[],[],[],277.0622,279.063,279.063,279.0632,[],[],[],[],[],[],[],,279.0633,279.0633,-0.135900228,-0.385516546,0,0,0,,0,30,30,94,1,3,word,CLINICAL,print,clinical_p.png,,,,,,
,,,,32253,001,2025-10-18_12h55.04.713,HW_LDT_1,2024.2.4,MacIntel,59.88023952,,,,,,,,,,,,,,,,,,,,,279.065,279.2631,279.2631,279.763,,,,,,,,,,,,,,2.6529,1,,,,,,,,,,,,,,z,,,,,,,,,,,,,,,,32,0,279.7637,282.4297,z,1,2.6529,,[],[],[],[],[],[],[],282.4298,284.4298,284.4299,284.43,[],[],[],[],[],[],[],,284.4301,284.4301,-0.136788178,-0.385516546,0,0,0,,0,31,31,19,1,3,RL,opcifal,cursive,opcifal_c.png,,,,,,
,,,,32253,001,2025-10-18_12h55.04.713,HW_LDT_1,2024.2.4,MacIntel,59.88023952,,,,,,,,,,,,,,,,,,,,,284.4316,284.6296,284.6296,285.1295,,,,,,,,,,,,,,3.6299,1,,,,,,,,,,,,,,z,,,,,,,,,,,,,,,,33,0,285.13,288.7627,z,1,3.6299,,[],[],[],[],[],[],[],288.7628,290.7632,290.7633,290.7636,[],[],[],[],[],[],[],,290.7636,290.7637,-0.131701649,-0.386919726,0,0,0,,0,32,32,7,1,3,RL,cobeny,print,cobeny_p.png,,,,,,
,,,,32253,001,2025-10-18_12h55.04.713,HW_LDT_1,2024.2.4,MacIntel,59.88023952,,,,,,,,,,,,,,,,,,,,,290.7652,290.9631,290.9631,291.4631,,,,,,,,,,,,,,1.6204,1,,,,,,,,,,,,,,m,,,,,,,,,,,,,,,,34,0,291.4635,293.0965,m,1,1.6204,,[],[],[],[],[],[],[],293.0966,295.0958,295.0958,295.096,[],[],[],[],[],[],[],,295.096,295.0963,-0.133086559,-0.386674901,0,0,0,,0,33,33,106,1,3,word,ELABORATE,print,elaborate_p.png,,,,,,
,,,,32253,001,2025-10-18_12h55.04.713,HW_LDT_1,2024.2.4,MacIntel,59.88023952,,,,,,,,,,,,,,,,,,,,,295.0974,295.2963,295.2963,295.7964,,,,,,,,,,,,,,0.7366,1,,,,,,,,,,,,,,m,,,,,,,,,,,,,,,,35,0,295.797,296.5463,m,1,0.7366,,[],[],[],[],[],[],[],296.5463,298.5464,298.5465,298.5467,[],[],[],[],[],[],[],,298.5467,298.5468,-0.133302152,-0.386674901,0,0,0,,0,34,34,141,1,3,word,RELIGION,print,religion_p.png,,,,,,
,,,,32253,001,2025-10-18_12h55.04.713,HW_LDT_1,2024.2.4,MacIntel,59.88023952,,,,,,,,,,,,,,,,,,,,,298.5481,298.7456,298.7457,299.2462,,,,,,,,,,,,,,0.7025,1,,,,,,,,,,,,,,m,,,,,,,,,,,,,,,,36,0,299.2469,299.9632,m,1,0.7025,,[],[],[],[],[],[],[],299.9632,301.963,301.9631,301.9632,[],[],[],[],[],[],[],,301.9633,301.9633,-0.133517744,-0.386674901,0,0,0,,0,35,35,112,1,3,word,LIBERAL,print,liberal_p.png,,,,,,
,,,,32253,001,2025-10-18_12h55.04.713,HW_LDT_1,2024.2.4,MacIntel,59.88023952,,,,,,,,,,,,,,,,,,,,,301.9644,302.1621,302.1622,302.6631,,,,,,,,,,,,,,1.0369,1,,,,,,,,,,,,,,z,,,,,,,,,,,,,,,,37,0,302.6636,303.7122,z,1,1.0369,,[],[],[],[],[],[],[],303.7123,305.7131,305.7132,305.7134,[],[],[],[],[],[],[],,305.7135,305.7135,-0.133733337,-0.386674901,0,0,0,,0,36,36,67,1,3,TL,retome,print,retome_p.png,,,,,,
,,,,32253,001,2025-10-18_12h55.04.713,HW_LDT_1,2024.2.4,MacIntel,59.88023952,,,,,,,,,,,,,,,,,,,,,305.7149,305.9122,305.9122,306.4131,,,,,,,,,,,,,,1.0026,1,,,,,,,,,,,,,,m,,,,,,,,,,,,,,,,38,0,306.4136,307.4297,m,1,1.0026,,[],[],[],[],[],[],[],307.4298,309.4298,309.4299,309.43,[],[],[],[],[],[],[],,309.43,309.43,-0.133733337,-0.386674901,0,0,0,,0,37,37,145,1,3,word,RESUME,cursive,resume_c.png,,,,,,
,,,,32253,001,2025-10-18_12h55.04.713,HW_LDT_1,2024.2.4,MacIntel,59.88023952,,,,,,,,,,,,,,,,,,,,,309.4314,309.6297,309.6299,310.1293,,,,,,,,,,,,,,1.0545,1,,,,,,,,,,,,,,m,,,,,,,,,,,,,,,,39,0,310.1299,311.1964,m,1,1.0545,,[],[],[],[],[],[],[],311.1965,313.196,313.1961,313.1964,[],[],[],[],[],[],[],,313.1964,313.1965,-0.13394893,-0.386674901,0,0,0,,0,38,38,91,1,3,word,CARDINAL,print,cardinal_p.png,,,,,,
,,,,32253,001,2025-10-18_12h55.04.713,HW_LDT_1,2024.2.4,MacIntel,59.88023952,,,,,,,,,,,,,,,,,,,,,313.1982,313.3954,313.3954,313.8955,,,,,,,,,,,,,,0.9197,1,,,,,,,,,,,,,,z,,,,,,,,,,,,,,,,40,0,313.8961,314.8293,z,1,0.9197,,[],[],[],[],[],[],[],314.8295,316.8299,316.8299,316.8301,[],[],[],[],[],[],[],,316.8302,316.8303,-0.13394893,-0.386674901,0,0,0,,0,39,39,24,1,3,RL,quafidy,print,quafidy_p.png,,,,,,
,,,,32253,001,2025-10-18_12h55.04.713,HW_LDT_1,2024.2.4,MacIntel,59.88023952,,,,,,,,,,,,,,,,,,,,,316.8313,317.0288,317.0288,317.5293,,,,,,,,,,,,,,0.6556,0,,,,,,,,,,,,,,z,,,,,,,,,,,,,,,,41,0,317.5298,318.1966,m,0,0.6556,,[],[],[],[],[],[],[],318.1966,320.1963,320.1966,320.1969,[],[],[],[],[],[],[],,320.197,320.1972,-0.13394893,-0.386674901,0,0,0,,0,40,40,35,1,3,TL,cateferia,print,cateferia_p.png,,,,,,
,,,,32253,001,2025-10-18_12h55.04.713,HW_LDT_1,2024.2.4,MacIntel,59.88023952,,,,,,,,,,,,,,,,,,,,,320.2,320.3963,320.3964,320.8964,,,,,,,,,,,,,,1.9873,1,,,,,,,,,,,,,,z,,,,,,,,,,,,,,,,42,1,320.8972,322.8955,z,1,1.9873,,[],[],[],[],[],[],[],322.8957,324.8955,324.8956,326.7131,[],[],[],[],[],[],[],m,326.7132,326.7133,-0.135775988,-0.384398386,0,0,0,,0,41,41,27,1,3,RL,recile,print,recile_p.png,1.8163,,,,,
,,,,32253,001,2025-10-18_12h55.04.713,HW_LDT_1,2024.2.4,MacIntel,59.88023952,,,,,,,,,,,,,,,,,,,,,326.7143,326.9133,326.9133,327.413,,,,,,,,,,,,,,2.125,1,,,,,,,,,,,,,,z,,,,,,,,,,,,,,,,43,0,327.4135,329.5461,z,1,2.125,,[],[],[],[],[],[],[],329.5462,331.5465,331.5467,331.5469,[],[],[],[],[],[],[],,331.547,331.5472,-0.136214482,-0.384398386,0,0,0,,0,42,42,38,1,3,TL,carnidal,print,carnidal_p.png,,,,,,
,,,,32253,001,2025-10-18_12h55.04.713,HW_LDT_1,2024.2.4,MacIntel,59.88023952,,,,,,,,,,,,,,,,,,,,,331.5489,331.7464,331.7465,332.2465,,,,,,,,,,,,,,2.4037,1,,,,,,,,,,,,,,z,,,,,,,,,,,,,,,,44,0,332.2471,334.6625,z,1,2.4037,,[],[],[],[],[],[],[],334.6626,336.6631,336.6631,336.6634,[],[],[],[],[],[],[],,336.6634,336.6635,-0.136214482,-0.384398386,0,0,0,,0,43,43,3,1,3,RL,bebine,cursive,bebine_c.png,,,,,,
,,,,32253,001,2025-10-18_12h55.04.713,HW_LDT_1,2024.2.4,MacIntel,59.88023952,,,,,,,,,,,,,,,,,,,,,336.6645,336.8628,336.8629,337.3633,,,,,,,,,,,,,,1.7032,1,,,,,,,,,,,,,,z,,,,,,,,,,,,,,,,45,0,337.3637,339.0791,z,1,1.7032,,[],[],[],[],[],[],[],339.0792,341.0788,341.0789,341.079,[],[],[],[],[],[],[],,341.0792,341.0793,-0.136214482,-0.384398386,0,0,0,,0,44,44,58,1,3,TL,nuremical,print,nuremical_p.png,,,,,,
,,,,32253,001,2025-10-18_12h55.04.713,HW_LDT_1,2024.2.4,MacIntel,59.88023952,,,,,,,,,,,,,,,,,,,,,341.0805,341.2789,341.2789,341.7788,,,,,,,,,,,,,,1.1204,1,,,,,,,,,,,,,,m,,,,,,,,,,,,,,,,46,0,341.7794,342.9133,m,1,1.1204,,[],[],[],[],[],[],[],342.9133,344.9131,344.9131,344.9133,[],[],[],[],[],[],[],,344.9134,344.9135,-0.135560395,-0.38440204,0,0,0,,0,45,45,134,1,3,word,QUALIFY,print,qualify_p.png,,,,,,
,,,,32253,001,2025-10-18_12h55.04.713,HW_LDT_1,2024.2.4,MacIntel,59.88023952,,,,,,,,,,,,,,,,,,,,,344.9146,345.1134,345.1134,345.6119,,,,,,,,,,,,,,0.8239,1,,,,,,,,,,,,,,m,,,,,,,,,,,,,,,,47,0,345.6123,346.4456,m,1,0.8239,,[],[],[],[],[],[],[],346.4456,348.4455,348.4456,348.4457,[],[],[],[],[],[],[],,348.4458,348.446,-0.136006197,-0.38440204,0,0,0,,0,46,46,82,1,3,word,AMATEUR,print,amateur_p.png,,,,,,
,,,,32253,001,2025-10-18_12h55.04.713,HW_LDT_1,2024.2.4,MacIntel,59.88023952,,,,,,,,,,,,,,,,,,,,,348.4471,348.6466,348.6466,349.1453,,,,,,,,,,,,,,2.0038,1,,,,,,,,,,,,,,m,,,,,,,,,,,,,,,,48,0,349.1457,351.1622,m,1,2.0038,,[],[],[],[],[],[],[],351.1623,353.1625,353.1626,353.1628,[],[],[],[],[],[],[],,353.1629,353.163,-0.136462962,-0.384405695,0,0,0,,0,47,47,153,1,3,word,STOLEN,cursive,stolen_c.png,,,,,,
,,,,32253,001,2025-10-18_12h55.04.713,HW_LDT_1,2024.2.4,MacIntel,59.88023952,,,,,,,,,,,,,,,,,,,,,353.1644,353.3633,353.3634,353.8631,,,,,,,,,,,,,,1.6063,1,,,,,,,,,,,,,,m,,,,,,,,,,,,,,,,49,0,353.8639,355.4789,m,1,1.6063,,[],[],[],[],[],[],[],355.479,357.4797,357.4797,357.4799,[],[],[],[],[],[],[],,357.4799,357.4801,-0.136462962,-0.384405695,0,0,0,,0,48,48,148,1,3,word,SALINE,cursive,saline_c.png,,,,,,
,,,,32253,001,2025-10-18_12h55.04.713,HW_LDT_1,2024.2.4,MacIntel,59.88023952,,,,,,,,,,,,,,,,,,,,,357.4812,357.68,357.68,358.1799,,,,,,,,,,,,,,1.0558,1,,,,,,,,,,,,,,z,,,,,,,,,,,,,,,,50,0,358.1806,359.2468,z,1,1.0558,,[],[],[],[],[],[],[],359.2469,361.2465,361.2466,361.2468,[],[],[],[],[],[],[],,361.2468,361.247,-0.136462962,-0.384405695,0,0,0,,0,49,49,64,1,3,TL,radiply,print,radiply_p.png,,,,,,
,,,,32253,001,2025-10-18_12h55.04.713,HW_LDT_1,2024.2.4,MacIntel,59.88023952,,,,,,,,,,,,,,,,,,,,,361.2487,361.4456,361.4456,361.9456,,,,,,,,,,,,,,3.2554,1,,,,,,,,,,,,,,z,,,,,,,,,,,,,,,,51,0,361.9461,365.2133,z,1,3.2554,,[],[],[],[],[],[],[],365.2134,367.2132,367.2132,367.2135,[],[],[],[],[],[],[],,367.2136,367.2136,-0.136682209,-0.384405695,0,0,0,,0,50,50,6,1,3,RL,cenesony,cursive,cenesony_c.png,,,,,,
,,,,32253,001,2025-10-18_12h55.04.713,HW_LDT_1,2024.2.4,MacIntel,59.88023952,,,,,,,,,,,,,,,,,,,,,367.215,367.4123,367.4123,367.9123,,,,,,,,,,,,,,2.2281,1,,,,,,,,,,,,,,m,,,,,,,,,,,,,,,,52,0,367.9128,370.1465,m,1,2.2281,,[],[],[],[],[],[],[],370.1465,372.1463,372.1464,372.1465,[],[],[],[],[],[],[],,372.1465,372.1466,-0.135366727,-0.38440204,0,0,0,,0,51,51,135,1,3,word,QUALITY,print,quality_p.png,,,,,,
,,,,32253,001,2025-10-18_12h55.04.713,HW_LDT_1,2024.2.4,MacIntel,59.88023952,,,,,,,,,,,,,,,,,,,,,372.1479,372.3456,372.3457,372.8468,,,,,,,,,,,,,,1.2475,1,,,,,,,,,,,,,,z,,,,,,,,,,,,,,,,53,0,372.8474,374.0967,z,1,1.2475,,[],[],[],[],[],[],[],374.0968,376.0967,376.0968,376.0969,[],[],[],[],[],[],[],,376.0969,376.0972,-0.135366727,-0.38440204,0,0,0,,0,52,52,60,1,3,TL,panert,print,panert_p.png,,,,,,
,,,,32253,001,2025-10-18_12h55.04.713,HW_LDT_1,2024.2.4,MacIntel,59.88023952,,,,,,,,,,,,,,,,,,,,,376.0984,376.2957,376.2957,376.7964,,,,,,,,,,,,,,2.4676,1,,,,,,,,,,,,,,z,,,,,,,,,,,,,,,,54,0,376.7969,379.279,z,1,2.4676,,[],[],[],[],[],[],[],379.2791,381.28,381.2802,381.2804,[],[],[],[],[],[],[],,381.2805,381.2806,-0.135366727,-0.38440204,0,0,0,,0,53,53,22,1,3,RL,procogal,print,procogal_p.png,,,,,,
,,,,32253,001,2025-10-18_12h55.04.713,HW_LDT_1,2024.2.4,MacIntel,59.88023952,,,,,,,,,,,,,,,,,,,,,381.2833,381.479,381.4791,381.98,,,,,,,,,,,,,,0.6145,1,,,,,,,,,,,,,,m,,,,,,,,,,,,,,,,55,0,381.9808,382.5962,m,1,0.6145,,[],[],[],[],[],[],[],382.5963,384.5958,384.5959,384.596,[],[],[],[],[],[],[],,384.5961,384.5962,-0.135366727,-0.38440204,0,0,0,,0,54,54,85,1,3,word,BENEFIT,print,benefit_p.png,,,,,,
,,,,32253,001,2025-10-18_12h55.04.713,HW_LDT_1,2024.2.4,MacIntel,59.88023952,,,,,,,,,,,,,,,,,,,,,384.5978,384.7961,384.7962,385.2957,,,,,,,,,,,,,,3.2211,1,,,,,,,,,,,,,,z,,,,,,,,,,,,,,,,56,0,385.2964,388.5295,z,1,3.2211,,[],[],[],[],[],[],[],388.5296,390.5294,390.5295,390.5296,[],[],[],[],[],[],[],,390.5297,390.5298,-0.135366727,-0.38440204,0,0,0,,0,55,55,78,1,3,TL,vecolity,cursive,vecolity_c.png,,,,,,
,,,,32253,001,2025-10-18_12h55.04.713,HW_LDT_1,2024.2.4,MacIntel,59.88023952,,,,,,,,,,,,,,,,,,,,,390.531,390.7292,390.7292,391.2291,,,,,,,,,,,,,,1.4909,1,,,,,,,,,,,,,,m,,,,,,,,,,,,,,,,57,0,391.2295,392.73,m,1,1.4909,,[],[],[],[],[],[],[],392.7301,394.7302,394.7302,394.7303,[],[],[],[],[],[],[],,394.7304,394.7305,-0.134719949,-0.384833226,0,0,0,,0,56,56,87,1,3,word,CAFETERIA,print,cafeteria_p.png,,,,,,
,,,,32253,001,2025-10-18_12h55.04.713,HW_LDT_1,2024.2.4,MacIntel,59.88023952,,,,,,,,,,,,,,,,,,,,,394.7317,394.9297,394.9297,395.4299,,,,,,,,,,,,,,3.437,1,,,,,,,,,,,,,,z,,,,,,,,,,,,,,,,58,0,395.4303,398.8797,z,1,3.437,,[],[],[],[],[],[],[],398.8799,400.8794,400.8795,400.8799,[],[],[],[],[],[],[],,400.88,400.8802,-0.135615207,-0.384127982,0,0,0,,0,57,57,37,1,3,TL,cacapity,cursive,cacapity_c.png,,,,,,
,,,,32253,001,2025-10-18_12h55.04.713,HW_LDT_1,2024.2.4,MacIntel,59.88023952,,,,,,,,,,,,,,,,,,,,,400.8827,401.0792,401.0793,401.5803,,,,,,,,,,,,,,4.0576,0,,,,,,,,,,,,,,z,,,,,,,,,,,,,,,,59,0,401.5813,405.6459,m,0,4.0576,,[],[],[],[],[],[],[],405.646,407.6458,407.6458,407.646,[],[],[],[],[],[],[],,407.646,407.6461,-0.133378888,-0.384811301,0,0,0,,0,58,58,54,1,3,TL,manire,cursive,manire_c.png,,,,,,
,,,,32253,001,2025-10-18_12h55.04.713,HW_LDT_1,2024.2.4,MacIntel,59.88023952,,,,,,,,,,,,,,,,,,,,,407.6474,407.8468,407.8469,408.3468,,,,,,,,,,,,,,1.1055,1,,,,,,,,,,,,,,m,,,,,,,,,,,,,,,,60,0,408.3473,409.4633,m,1,1.1055,,[],[],[],[],[],[],[],409.4634,411.4636,411.4637,411.4639,[],[],[],[],[],[],[],,411.4639,411.4641,-0.133378888,-0.384811301,0,0,0,,0,59,59,137,1,3,word,RAPIDLY,print,rapidly_p.png,,,,,,
,,,,32253,001,2025-10-18_12h55.04.713,HW_LDT_1,2024.2.4,MacIntel,59.88023952,,,,,,,,,,,,,,,,,,,,,411.4656,411.6635,411.6635,412.1631,,,,,,,,,,,,,,1.2706,1,,,,,,,,,,,,,,m,,,,,,,,,,,,,,,,61,1,412.1635,413.4468,m,1,1.2706,,[],[],[],[],[],[],[],413.4469,415.4461,415.4462,416.5458,[],[],[],[],[],[],[],z,416.546,416.546,-0.132918469,-0.383174257,0,0,0,,0,60,60,144,1,3,word,RESIDENT,cursive,resident_c.png,1.0871,,,,,
,,,,32253,001,2025-10-18_12h55.04.713,HW_LDT_1,2024.2.4,MacIntel,59.88023952,,,,,,,,,,,,,,,,,,,,,416.5474,416.7458,416.746,417.2469,,,,,,,,,,,,,,2.9654,1,,,,,,,,,,,,,,z,,,,,,,,,,,,,,,,62,0,417.2475,420.2138,z,1,2.9654,,[],[],[],[],[],[],[],420.2138,422.2136,422.2137,422.2139,[],[],[],[],[],[],[],,422.214,422.2142,-0.132918469,-0.382958665,0,0,0,,0,61,61,66,1,3,TL,retalive,cursive,retalive_c.png,,,,,,
,,,,32253,001,2025-10-18_12h55.04.713,HW_LDT_1,2024.2.4,MacIntel,59.88023952,,,,,,,,,,,,,,,,,,,,,422.2155,422.4124,422.4124,422.9133,,,,,,,,,,,,,,5.4867,1,,,,,,,,,,,,,,z,,,,,,,,,,,,,,,,63,0,422.9139,428.4127,z,1,5.4867,,[],[],[],[],[],[],[],428.4127,430.4127,430.4128,430.4128,[],[],[],[],[],[],[],,430.4128,430.4129,-0.132684606,-0.383419083,0,0,0,,0,62,62,28,1,3,RL,rovastic,cursive,rovastic_c.png,,,,,,
,,,,32253,001,2025-10-18_12h55.04.713,HW_LDT_1,2024.2.4,MacIntel,59.88023952,,,,,,,,,,,,,,,,,,,,,430.4137,430.6124,430.6125,431.1136,,,,,,,,,,,,,,3.9864,1,,,,,,,,,,,,,,z,,,,,,,,,,,,,,,,64,0,431.114,435.1145,z,1,3.9864,,[],[],[],[],[],[],[],435.1145,437.1136,437.1136,437.1138,[],[],[],[],[],[],[],,437.1139,437.1141,-0.133784495,-0.383415429,0,0,0,,0,63,63,48,1,3,TL,grafetul,cursive,grafetul_c.png,,,,,,
,,,,32253,001,2025-10-18_12h55.04.713,HW_LDT_1,2024.2.4,MacIntel,59.88023952,,,,,,,,,,,,,,,,,,,,,437.1157,437.3137,437.3138,437.8128,,,,,,,,,,,,,,0.7794,1,,,,,,,,,,,,,,m,,,,,,,,,,,,,,,,65,0,437.8137,438.5961,m,1,0.7794,,[],[],[],[],[],[],[],438.5961,440.5972,440.5973,440.5979,[],[],[],[],[],[],[],,440.5979,440.5983,-0.134946504,-0.383170603,0,0,0,,0,64,64,147,1,3,word,ROMANTIC,cursive,romantic_c.png,,,,,,
,,,,32253,001,2025-10-18_12h55.04.713,HW_LDT_1,2024.2.4,MacIntel,59.88023952,,,,,,,,,,,,,,,,,,,,,440.6014,440.797,440.797,441.297,,,,,,,,,,,,,,3.3687,0,,,,,,,,,,,,,,z,,,,,,,,,,,,,,,,66,1,441.2978,444.6794,m,0,3.3687,,[],[],[],[],[],[],[],444.6795,446.6792,446.6793,447.9463,[],[],[],[],[],[],[],m,447.9464,447.9465,-0.132366698,-0.340874211,0,0,0,,0,65,65,62,1,3,TL,prodive,print,prodive_p.png,1.2551,,,,,
,,,,32253,001,2025-10-18_12h55.04.713,HW_LDT_1,2024.2.4,MacIntel,59.88023952,,,,,,,,,,,,,,,,,,,,,447.9476,448.147,448.147,448.647,,,,,,,,,,,,,,1.3088,1,,,,,,,,,,,,,,m,,,,,,,,,,,,,,,,67,0,448.6476,449.9627,m,1,1.3088,,[],[],[],[],[],[],[],449.9628,451.9636,451.9636,451.9638,[],[],[],[],[],[],[],,451.9639,451.9639,-0.133912389,-0.340874211,0,0,0,,0,66,66,107,1,3,word,EVIDENT,cursive,evident_c.png,,,,,,
,,,,32253,001,2025-10-18_12h55.04.713,HW_LDT_1,2024.2.4,MacIntel,59.88023952,,,,,,,,,,,,,,,,,,,,,451.965,452.1636,452.1637,452.663,,,,,,,,,,,,,,0.7398,1,,,,,,,,,,,,,,m,,,,,,,,,,,,,,,,68,1,452.6636,453.4131,m,1,0.7398,,[],[],[],[],[],[],[],453.4132,455.4138,455.4138,456.5298,[],[],[],[],[],[],[],m,456.5298,456.53,-0.134127982,-0.340874211,0,0,0,,0,67,67,102,1,3,word,DENSITY,print,density_p.png,1.1032,,,,,
,,,,32253,001,2025-10-18_12h55.04.713,HW_LDT_1,2024.2.4,MacIntel,59.88023952,,,,,,,,,,,,,,,,,,,,,456.5311,456.7301,456.7301,457.2304,,,,,,,,,,,,,,1.82,1,,,,,,,,,,,,,,z,,,,,,,,,,,,,,,,69,0,457.2309,459.0633,z,1,1.82,,[],[],[],[],[],[],[],459.0635,461.0637,461.0638,461.064,[],[],[],[],[],[],[],,461.064,461.0642,-0.134127982,-0.340874211,0,0,0,,0,68,68,49,1,3,TL,incidate,print,incidate_p.png,,,,,,
,,,,32253,001,2025-10-18_12h55.04.713,HW_LDT_1,2024.2.4,MacIntel,59.88023952,,,,,,,,,,,,,,,,,,,,,461.067,461.2636,461.2636,461.7627,,,,,,,,,,,,,,7.6236,1,,,,,,,,,,,,,,m,,,,,,,,,,,,,,,,70,0,461.7633,469.3961,m,1,7.6236,,[],[],[],[],[],[],[],469.3962,471.3969,471.397,471.3972,[],[],[],[],[],[],[],,471.3973,471.3974,-0.132019557,-0.340874211,0,0,0,,0,69,69,110,1,3,word,HERITAGE,cursive,heritage_c.png,,,,,,
,,,,32253,001,2025-10-18_12h55.04.713,HW_LDT_1,2024.2.4,MacIntel,59.88023952,,,,,,,,,,,,,,,,,,,,,471.399,471.5959,471.596,472.096,,,,,,,,,,,,,,1.0143,1,,,,,,,,,,,,,,m,,,,,,,,,,,,,,,,71,0,472.0972,473.1128,m,1,1.0143,,[],[],[],[],[],[],[],473.1129,475.1129,475.1129,475.1129,[],[],[],[],[],[],[],,475.1129,475.1131,-0.132677298,-0.340874211,0,0,0,,0,70,70,98,1,3,word,CRIMINAL,print,criminal_p.png,,,,,,
,,,,32253,001,2025-10-18_12h55.04.713,HW_LDT_1,2024.2.4,MacIntel,59.88023952,,,,,,,,,,,,,,,,,,,,,475.1138,475.3137,475.3137,475.8128,,,,,,,,,,,,,,1.9166,1,,,,,,,,,,,,,,z,,,,,,,,,,,,,,,,72,0,475.8132,477.7307,z,1,1.9166,,[],[],[],[],[],[],[],477.7309,479.7305,479.7305,479.7307,[],[],[],[],[],[],[],,479.7307,479.7308,-0.132677298,-0.340874211,0,0,0,,0,71,71,45,1,3,TL,dentisy,print,dentisy_p.png,,,,,,
,,,,32253,001,2025-10-18_12h55.04.713,HW_LDT_1,2024.2.4,MacIntel,59.88023952,,,,,,,,,,,,,,,,,,,,,479.7319,479.9304,479.9304,480.4295,,,,,,,,,,,,,,1.6052,1,,,,,,,,,,,,,,z,,,,,,,,,,,,,,,,73,0,480.4301,482.0471,z,1,1.6052,,[],[],[],[],[],[],[],482.0472,484.0468,484.0468,484.0471,[],[],[],[],[],[],[],,484.0471,484.0473,-0.132677298,-0.340874211,0,0,0,,0,72,72,33,1,3,TL,adsivory,print,adsivory_p.png,,,,,,
,,,,32253,001,2025-10-18_12h55.04.713,HW_LDT_1,2024.2.4,MacIntel,59.88023952,,,,,,,,,,,,,,,,,,,,,484.0485,484.2464,484.2464,484.7472,,,,,,,,,,,,,,2.4319,1,,,,,,,,,,,,,,z,,,,,,,,,,,,,,,,74,0,484.7478,487.1805,z,1,2.4319,,[],[],[],[],[],[],[],487.1805,489.1805,489.1805,489.1807,[],[],[],[],[],[],[],,489.1809,489.1809,-0.132677298,-0.340874211,0,0,0,,0,73,73,43,1,3,TL,dedace,cursive,dedace_c.png,,,,,,
,,,,32253,001,2025-10-18_12h55.04.713,HW_LDT_1,2024.2.4,MacIntel,59.88023952,,,,,,,,,,,,,,,,,,,,,489.1823,489.3805,489.3805,489.8806,,,,,,,,,,,,,,3.3529,1,,,,,,,,,,,,,,m,,,,,,,,,,,,,,,,75,0,489.8812,493.2473,m,1,3.3529,,[],[],[],[],[],[],[],493.2474,495.2463,495.2463,495.2465,[],[],[],[],[],[],[],,495.2466,495.2466,-0.132677298,-0.340874211,0,0,0,,0,74,74,101,1,3,word,DELICATE,print,delicate_p.png,,,,,,
,,,,32253,001,2025-10-18_12h55.04.713,HW_LDT_1,2024.2.4,MacIntel,59.88023952,,,,,,,,,,,,,,,,,,,,,495.2478,495.4472,495.4472,495.9472,,,,,,,,,,,,,,1.7899,1,,,,,,,,,,,,,,m,,,,,,,,,,,,,,,,76,0,495.9489,497.7466,m,1,1.7899,,[],[],[],[],[],[],[],497.7466,499.7474,499.7478,499.7482,[],[],[],[],[],[],[],,499.7483,499.7484,-0.132892891,-0.340874211,0,0,0,,0,75,75,81,1,3,word,ADVISORY,print,advisory_p.png,,,,,,
,,,,32253,001,2025-10-18_12h55.04.713,HW_LDT_1,2024.2.4,MacIntel,59.88023952,,,,,,,,,,,,,,,,,,,,,499.7515,499.9468,499.9469,500.4472,,,,,,,,,,,,,,2.14,1,,,,,,,,,,,,,,m,,,,,,,,,,,,,,,,77,0,500.448,502.5973,m,1,2.14,,[],[],[],[],[],[],[],502.5974,504.597,504.597,504.5971,[],[],[],[],[],[],[],,504.5972,504.5972,-0.133108483,-0.340644001,0,0,0,,0,76,76,117,1,3,word,MARINE,cursive,marine_c.png,,,,,,
,,,,32253,001,2025-10-18_12h55.04.713,HW_LDT_1,2024.2.4,MacIntel,59.88023952,,,,,,,,,,,,,,,,,,,,,504.5979,504.7972,504.7974,505.2974,,,,,,,,,,,,,,1.103,1,,,,,,,,,,,,,,m,,,,,,,,,,,,,,,,78,0,505.2981,506.4139,m,1,1.103,,[],[],[],[],[],[],[],506.414,508.4138,508.4138,508.414,[],[],[],[],[],[],[],,508.4141,508.4142,-0.133108483,-0.340644001,0,0,0,,0,77,77,119,1,3,word,MEMORY,print,memory_p.png,,,,,,
,,,,32253,001,2025-10-18_12h55.04.713,HW_LDT_1,2024.2.4,MacIntel,59.88023952,,,,,,,,,,,,,,,,,,,,,508.4155,508.6138,508.6138,509.1138,,,,,,,,,,,,,,1.1698,1,,,,,,,,,,,,,,m,,,,,,,,,,,,,,,,79,0,509.1145,510.2972,m,1,1.1698,,[],[],[],[],[],[],[],510.2973,512.2966,512.2966,512.2967,[],[],[],[],[],[],[],,512.2968,512.2969,-0.133108483,-0.340644001,0,0,0,,0,78,78,159,1,3,word,VETERAN,cursive,veteran_c.png,,,,,,
,,,,32253,001,2025-10-18_12h55.04.713,HW_LDT_1,2024.2.4,MacIntel,59.88023952,,,,,,,,,,,,,,,,,,,,,512.2979,512.4973,512.4973,512.9972,,,,,,,,,,,,,,1.4698,1,,,,,,,,,,,,,,z,,,,,,,,,,,,,,,,80,0,512.9978,514.4807,z,1,1.4698,,[],[],[],[],[],[],[],514.4808,516.4803,516.4804,516.4806,[],[],[],[],[],[],[],,516.4806,615.4516,-0.130996404,-0.340644001,0,0,0,space,0,79,79,10,1,3,RL,efibor,print,efibor_p.png,,,98.9262,,,
,,,,32253,001,2025-10-18_12h55.04.713,HW_LDT_1,2024.2.4,MacIntel,59.88023952,,,,,,,,,,,,,,,,,,,,,615.4566,615.6475,615.6475,616.1468,,,,,,,,,,,,,,1.7863,1,,,,,,,,,,,,,,m,,,,,,,,,,,,,,,,81,1,616.1476,617.9478,m,1,1.7863,,[],[],[],[],[],[],[],617.9479,619.9471,619.9474,620.831,[],[],[],[],[],[],[],m,620.8315,620.8322,-0.130996404,-0.340644001,0,0,0,,0,80,80,103,1,3,word,DISPUTE,print,dispute_p.png,0.8703,,,,,
,,,,32253,001,2025-10-18_12h55.04.713,HW_LDT_1,2024.2.4,MacIntel,59.88023952,,,,,,,,,,,,,,,,,,,,,620.8395,621.0299,621.0301,621.5306,,,,,,,,,,,,,,1.0981,1,,,,,,,,,,,,,,m,,,,,,,,,,,,,,,,82,0,621.5384,622.6476,m,1,1.0981,,[],[],[],[],[],[],[],622.6478,624.6476,624.6476,624.6477,[],[],[],[],[],[],[],,624.6477,624.6477,-0.130996404,-0.340644001,0,0,0,,0,81,81,100,1,3,word,DECADE,cursive,decade_c.png,,,,,,
,,,,32253,001,2025-10-18_12h55.04.713,HW_LDT_1,2024.2.4,MacIntel,59.88023952,,,,,,,,,,,,,,,,,,,,,624.6485,624.8468,624.8468,625.3471,,,,,,,,,,,,,,1.4701,1,,,,,,,,,,,,,,m,,,,,,,,,,,,,,,,83,0,625.3477,626.8301,m,1,1.4701,,[],[],[],[],[],[],[],626.8302,628.8306,628.8306,628.8308,[],[],[],[],[],[],[],,628.8309,628.831,-0.130996404,-0.340644001,0,0,0,,0,82,82,151,1,3,word,SPECIFIC,print,specific_p.png,,,,,,
,,,,32253,001,2025-10-18_12h55.04.713,HW_LDT_1,2024.2.4,MacIntel,59.88023952,,,,,,,,,,,,,,,,,,,,,628.8322,629.0311,629.0312,629.531,,,,,,,,,,,,,,0.7703,1,,,,,,,,,,,,,,m,,,,,,,,,,,,,,,,84,0,629.5314,630.3144,m,1,0.7703,,[],[],[],[],[],[],[],630.3145,632.3145,632.3146,632.3148,[],[],[],[],[],[],[],,632.3148,632.3149,-0.130996404,-0.340644001,0,0,0,,0,83,83,80,1,3,word,ACADEMY,print,academy_p.png,,,,,,
,,,,32253,001,2025-10-18_12h55.04.713,HW_LDT_1,2024.2.4,MacIntel,59.88023952,,,,,,,,,,,,,,,,,,,,,632.3161,632.5143,632.5144,633.0142,,,,,,,,,,,,,,0.954,1,,,,,,,,,,,,,,m,,,,,,,,,,,,,,,,85,0,633.015,633.9811,m,1,0.954,,[],[],[],[],[],[],[],633.9811,635.9801,635.9802,635.9804,[],[],[],[],[],[],[],,635.9804,635.9806,-0.130996404,-0.340644001,0,0,0,,0,84,84,93,1,3,word,CEREMONY,cursive,ceremony_c.png,,,,,,
,,,,32253,001,2025-10-18_12h55.04.713,HW_LDT_1,2024.2.4,MacIntel,59.88023952,,,,,,,,,,,,,,,,,,,,,635.9822,636.1808,636.1808,636.6799,,,,,,,,,,,,,,0.9886,1,,,,,,,,,,,,,,z,,,,,,,,,,,,,,,,86,0,636.68,637.6811,z,1,0.9886,,[],[],[],[],[],[],[],637.6812,639.681,639.6811,639.6812,[],[],[],[],[],[],[],,639.6813,639.6814,-0.130996404,-0.340644001,0,0,0,,0,85,85,61,1,3,TL,pocily,print,pocily_p.png,,,,,,
,,,,32253,001,2025-10-18_12h55.04.713,HW_LDT_1,2024.2.4,MacIntel,59.88023952,,,,,,,,,,,,,,,,,,,,,639.6823,639.8803,639.8803,640.3809,,,,,,,,,,,,,,2.1487,1,,,,,,,,,,,,,,z,,,,,,,,,,,,,,,,87,0,640.3816,642.5311,z,1,2.1487,,[],[],[],[],[],[],[],642.5311,644.5311,644.5312,644.5312,[],[],[],[],[],[],[],,644.5313,644.5314,-0.130996404,-0.340644001,0,0,0,,0,86,86,36,1,3,TL,carema,cursive,carema_c.png,,,,,,
,,,,32253,001,2025-10-18_12h55.04.713,HW_LDT_1,2024.2.4,MacIntel,59.88023952,,,,,,,,,,,,,,,,,,,,,644.5329,644.7302,644.7302,645.2312,,,,,,,,,,,,,,0.8404,0,,,,,,,,,,,,,,z,,,,,,,,,,,,,,,,88,0,645.2319,646.0803,m,0,0.8404,,[],[],[],[],[],[],[],646.0803,648.0802,648.0802,648.0803,[],[],[],[],[],[],[],,648.0804,648.0805,-0.130996404,-0.340644001,0,0,0,,0,87,87,77,1,3,TL,vadility,cursive,vadility_c.png,,,,,,
,,,,32253,001,2025-10-18_12h55.04.713,HW_LDT_1,2024.2.4,MacIntel,59.88023952,,,,,,,,,,,,,,,,,,,,,648.0819,648.2811,648.2811,648.7801,,,,,,,,,,,,,,0.8533,1,,,,,,,,,,,,,,z,,,,,,,,,,,,,,,,89,0,648.7806,649.6479,z,1,0.8533,,[],[],[],[],[],[],[],649.648,651.6469,651.6469,651.6471,[],[],[],[],[],[],[],,651.6472,651.6474,-0.130996404,-0.340644001,0,0,0,,0,88,88,65,1,3,TL,resufal,print,resufal_p.png,,,,,,
,,,,32253,001,2025-10-18_12h55.04.713,HW_LDT_1,2024.2.4,MacIntel,59.88023952,,,,,,,,,,,,,,,,,,,,,651.6487,651.8475,651.8475,652.348,,,,,,,,,,,,,,2.9903,0,,,,,,,,,,,,,,m,,,,,,,,,,,,,,,,90,0,652.3487,655.3471,z,0,2.9903,,[],[],[],[],[],[],[],655.3472,657.348,657.348,657.3482,[],[],[],[],[],[],[],,657.3482,657.3483,-0.130996404,-0.340644001,0,0,0,,0,89,89,140,1,3,word,RELATIVE,cursive,relative_c.png,,,,,,
,,,,32253,001,2025-10-18_12h55.04.713,HW_LDT_1,2024.2.4,MacIntel,59.88023952,,,,,,,,,,,,,,,,,,,,,657.3498,657.5466,657.5466,658.0472,,,,,,,,,,,,,,1.0981,1,,,,,,,,,,,,,,m,,,,,,,,,,,,,,,,91,0,658.0479,659.1478,m,1,1.0981,,[],[],[],[],[],[],[],659.1478,661.1469,661.147,661.1471,[],[],[],[],[],[],[],,661.1471,661.1472,-0.130996404,-0.340644001,0,0,0,,0,90,90,96,1,3,word,CONSIDER,print,consider_p.png,,,,,,
,,,,32253,001,2025-10-18_12h55.04.713,HW_LDT_1,2024.2.4,MacIntel,59.88023952,,,,,,,,,,,,,,,,,,,,,661.1486,661.3469,661.3469,661.8479,,,,,,,,,,,,,,1.3193,1,,,,,,,,,,,,,,z,,,,,,,,,,,,,,,,92,0,661.8486,663.1803,z,1,1.3193,,[],[],[],[],[],[],[],663.1804,665.1813,665.1813,665.1815,[],[],[],[],[],[],[],,665.1816,665.1816,-0.130996404,-0.340644001,0,0,0,,0,91,91,44,1,3,TL,decilate,print,decilate_p.png,,,,,,
,,,,32253,001,2025-10-18_12h55.04.713,HW_LDT_1,2024.2.4,MacIntel,59.88023952,,,,,,,,,,,,,,,,,,,,,665.1827,665.3809,665.3809,665.8803,,,,,,,,,,,,,,2.9542,1,,,,,,,,,,,,,,z,,,,,,,,,,,,,,,,93,1,665.8809,668.8471,z,1,2.9542,,[],[],[],[],[],[],[],668.8472,670.8485,670.8489,696.1266,[],[],[],[],[],[],[],z,696.127,696.1272,-0.130996404,-0.340644001,0,0,0,,0,92,92,40,1,3,TL,condiser,print,condiser_p.png,25.2723,,,,,
,,,,32253,001,2025-10-18_12h55.04.713,HW_LDT_1,2024.2.4,MacIntel,59.88023952,,,,,,,,,,,,,,,,,,,,,696.1286,696.3257,696.3257,696.8256,,,,,,,,,,,,,,3.5704,1,,,,,,,,,,,,,,z,,,,,,,,,,,,,,,,94,1,696.8259,700.4095,z,1,3.5704,,[],[],[],[],[],[],[],700.4097,702.4093,702.4094,703.6427,[],[],[],[],[],[],[],z,703.6428,703.643,-0.130996404,-0.340644001,0,0,0,,0,93,93,57,1,3,TL,moredate,cursive,moredate_c.png,1.2216,,,,,
,,,,32253,001,2025-10-18_12h55.04.713,HW_LDT_1,2024.2.4,MacIntel,59.88023952,,,,,,,,,,,,,,,,,,,,,703.6462,703.8424,703.8425,704.3428,,,,,,,,,,,,,,0.9738,1,,,,,,,,,,,,,,m,,,,,,,,,,,,,,,,95,0,704.3434,705.3259,m,1,0.9738,,[],[],[],[],[],[],[],705.326,707.3261,707.3262,707.3264,[],[],[],[],[],[],[],,707.3264,707.3265,-0.130996404,-0.340644001,0,0,0,,0,94,94,158,1,3,word,VELOCITY,cursive,velocity_c.png,,,,,,
,,,,32253,001,2025-10-18_12h55.04.713,HW_LDT_1,2024.2.4,MacIntel,59.88023952,,,,,,,,,,,,,,,,,,,,,707.3277,707.526,707.526,708.0261,,,,,,,,,,,,,,1.9197,1,,,,,,,,,,,,,,z,,,,,,,,,,,,,,,,96,0,708.0268,709.9636,z,1,1.9197,,[],[],[],[],[],[],[],709.9637,711.9588,711.9588,711.959,[],[],[],[],[],[],[],,711.959,711.9592,-0.130996404,-0.340644001,0,0,0,,0,95,95,39,1,3,TL,clicinal,print,clicinal_p.png,,,,,,
,,,,32253,001,2025-10-18_12h55.04.713,HW_LDT_1,2024.2.4,MacIntel,59.88023952,,,,,,,,,,,,,,,,,,,,,711.9604,712.1594,712.1595,712.6591,,,,,,,,,,,,,,0.8558,0,,,,,,,,,,,,,,m,,,,,,,,,,,,,,,,97,0,712.6594,713.526,z,0,0.8558,,[],[],[],[],[],[],[],713.526,715.5253,715.5254,715.5256,[],[],[],[],[],[],[],,715.5256,715.5258,-0.130996404,-0.340644001,0,0,0,,0,96,96,88,1,3,word,CAMERA,cursive,camera_c.png,,,,,,
,,,,32253,001,2025-10-18_12h55.04.713,HW_LDT_1,2024.2.4,MacIntel,59.88023952,,,,,,,,,,,,,,,,,,,,,715.5275,715.7262,715.7262,716.2262,,,,,,,,,,,,,,0.8358,1,,,,,,,,,,,,,,z,,,,,,,,,,,,,,,,98,0,716.2269,717.0758,z,1,0.8358,,[],[],[],[],[],[],[],717.0758,719.0762,719.0762,719.0764,[],[],[],[],[],[],[],,719.0765,719.0765,-0.130996404,-0.340644001,0,0,0,,0,97,97,21,1,3,RL,potugar,print,potugar_p.png,,,,,,
,,,,32253,001,2025-10-18_12h55.04.713,HW_LDT_1,2024.2.4,MacIntel,59.88023952,,,,,,,,,,,,,,,,,,,,,719.0778,719.2762,719.2763,719.7761,,,,,,,,,,,,,,0.9719,1,,,,,,,,,,,,,,m,,,,,,,,,,,,,,,,99,1,719.7768,720.7594,m,1,0.9719,,[],[],[],[],[],[],[],720.7595,722.7595,722.7596,723.8425,[],[],[],[],[],[],[],m,723.8425,723.8427,-0.130996404,-0.340644001,0,0,0,,0,98,98,138,1,3,word,REFUSAL,print,refusal_p.png,1.0716,,,,,
,,,,32253,001,2025-10-18_12h55.04.713,HW_LDT_1,2024.2.4,MacIntel,59.88023952,,,,,,,,,,,,,,,,,,,,,723.8435,724.0424,724.0424,724.5418,,,,,,,,,,,,,,0.9413,0,,,,,,,,,,,,,,m,,,,,,,,,,,,,,,,100,1,724.5423,725.4918,z,0,0.9413,,[],[],[],[],[],[],[],725.4919,727.4922,727.4923,729.976,[],[],[],[],[],[],[],z,729.9761,729.9762,-0.130996404,-0.340644001,0,0,0,,0,99,99,108,1,3,word,FORTUNE,cursive,fortune_c.png,2.473,,,,,
,,,,32253,001,2025-10-18_12h55.04.713,HW_LDT_1,2024.2.4,MacIntel,59.88023952,,,,,,,,,,,,,,,,,,,,,729.9775,730.1758,730.1759,730.6752,,,,,,,,,,,,,,3.171,1,,,,,,,,,,,,,,z,,,,,,,,,,,,,,,,101,1,730.6757,733.8589,z,1,3.171,,[],[],[],[],[],[],[],733.8589,735.859,735.859,737.1762,[],[],[],[],[],[],[],z,737.1762,737.1763,-0.130996404,-0.340644001,0,0,0,,0,100,100,76,1,3,TL,stogare,cursive,stogare_c.png,1.3053,,,,,
,,,,32253,001,2025-10-18_12h55.04.713,HW_LDT_1,2024.2.4,MacIntel,59.88023952,,,,,,,,,,,,,,,,,,,,,737.1778,737.3761,737.3762,737.8762,,,,,,,,,,,,,,1.297,1,,,,,,,,,,,,,,z,,,,,,,,,,,,,,,,102,0,737.8781,739.1761,z,1,1.297,,[],[],[],[],[],[],[],739.1764,741.1758,741.176,741.1762,[],[],[],[],[],[],[],,741.1763,741.1764,-0.130996404,-0.340644001,0,0,0,,0,101,101,74,1,3,TL,spemicen,print,spemicen_p.png,,,,,,
,,,,32253,001,2025-10-18_12h55.04.713,HW_LDT_1,2024.2.4,MacIntel,59.88023952,,,,,,,,,,,,,,,,,,,,,741.1795,741.376,741.3761,741.876,,,,,,,,,,,,,,0.8973,1,,,,,,,,,,,,,,m,,,,,,,,,,,,,,,,103,0,741.8768,742.7763,m,1,0.8973,,[],[],[],[],[],[],[],742.7764,744.7753,744.7755,744.7756,[],[],[],[],[],[],[],,744.7757,744.7759,-0.130996404,-0.340644001,0,0,0,,0,102,102,97,1,3,word,COVERAGE,print,coverage_p.png,,,,,,
,,,,32253,001,2025-10-18_12h55.04.713,HW_LDT_1,2024.2.4,MacIntel,59.88023952,,,,,,,,,,,,,,,,,,,,,744.7772,744.9753,744.9754,745.4762,,,,,,,,,,,,,,0.9869,1,,,,,,,,,,,,,,m,,,,,,,,,,,,,,,,104,0,745.4768,746.4762,m,1,0.9869,,[],[],[],[],[],[],[],746.4762,748.4754,748.4755,748.4757,[],[],[],[],[],[],[],,748.4757,748.4758,-0.130996404,-0.340644001,0,0,0,,0,103,103,104,1,3,word,DOMINANT,print,dominant_p.png,,,,,,
,,,,32253,001,2025-10-18_12h55.04.713,HW_LDT_1,2024.2.4,MacIntel,59.88023952,,,,,,,,,,,,,,,,,,,,,748.477,748.6758,748.6758,749.1759,,,,,,,,,,,,,,0.9078,1,,,,,,,,,,,,,,z,,,,,,,,,,,,,,,,105,0,749.1767,750.0928,z,1,0.9078,,[],[],[],[],[],[],[],750.0929,752.092,752.0922,752.0934,[],[],[],[],[],[],[],,752.0935,752.0936,-0.130996404,-0.340644001,0,0,0,,0,104,104,0,1,3,RL,afaneur,print,afaneur_p.png,,,,,,
,,,,32253,001,2025-10-18_12h55.04.713,HW_LDT_1,2024.2.4,MacIntel,59.88023952,,,,,,,,,,,,,,,,,,,,,752.0952,752.2927,752.2927,752.7924,,,,,,,,,,,,,,1.5382,1,,,,,,,,,,,,,,z,,,,,,,,,,,,,,,,106,0,752.7931,754.3425,z,1,1.5382,,[],[],[],[],[],[],[],754.3426,756.3426,756.3426,756.3428,[],[],[],[],[],[],[],,756.3428,756.3428,-0.130996404,-0.340644001,0,0,0,,0,105,105,12,1,3,RL,formuke,cursive,formuke_c.png,,,,,,
,,,,32253,001,2025-10-18_12h55.04.713,HW_LDT_1,2024.2.4,MacIntel,59.88023952,,,,,,,,,,,,,,,,,,,,,756.3438,756.543,756.5431,757.0426,,,,,,,,,,,,,,0.9399,1,,,,,,,,,,,,,,z,,,,,,,,,,,,,,,,107,0,757.043,757.992,z,1,0.9399,,[],[],[],[],[],[],[],757.9921,759.9925,759.9926,759.9927,[],[],[],[],[],[],[],,759.9927,759.9928,-0.131226614,-0.338499035,0,0,0,,0,106,106,41,1,3,TL,crinimal,print,crinimal_p.png,,,,,,
,,,,32253,001,2025-10-18_12h55.04.713,HW_LDT_1,2024.2.4,MacIntel,59.88023952,,,,,,,,,,,,,,,,,,,,,759.9936,760.1929,760.1929,760.6929,,,,,,,,,,,,,,1.2703,1,,,,,,,,,,,,,,z,,,,,,,,,,,,,,,,108,0,760.6934,761.9763,z,1,1.2703,,[],[],[],[],[],[],[],761.9764,763.9755,763.9756,763.9757,[],[],[],[],[],[],[],,763.9757,763.9761,-0.131226614,-0.338499035,0,0,0,,0,107,107,71,1,3,TL,sanile,cursive,sanile_c.png,,,,,,
,,,,32253,001,2025-10-18_12h55.04.713,HW_LDT_1,2024.2.4,MacIntel,59.88023952,,,,,,,,,,,,,,,,,,,,,763.9772,764.1763,764.1763,764.6763,,,,,,,,,,,,,,1.5784,1,,,,,,,,,,,,,,z,,,,,,,,,,,,,,,,109,0,764.6766,766.2594,z,1,1.5784,,[],[],[],[],[],[],[],766.2594,768.2594,768.2597,768.2601,[],[],[],[],[],[],[],,768.2602,768.2604,-0.131442207,-0.338499035,0,0,0,,0,108,108,17,1,3,RL,motide,cursive,motide_c.png,,,,,,
,,,,32253,001,2025-10-18_12h55.04.713,HW_LDT_1,2024.2.4,MacIntel,59.88023952,,,,,,,,,,,,,,,,,,,,,768.2632,768.4596,768.4597,768.9596,,,,,,,,,,,,,,3.2043,1,,,,,,,,,,,,,,z,,,,,,,,,,,,,,,,110,0,768.9602,772.1759,z,1,3.2043,,[],[],[],[],[],[],[],772.1759,774.1753,774.1753,774.1755,[],[],[],[],[],[],[],,774.1755,774.1757,-0.131442207,-0.338499035,0,0,0,,0,109,109,2,1,3,RL,betemit,print,betemit_p.png,,,,,,
,,,,32253,001,2025-10-18_12h55.04.713,HW_LDT_1,2024.2.4,MacIntel,59.88023952,,,,,,,,,,,,,,,,,,,,,774.1768,774.3754,774.3755,774.8638,,,,,,,,,,,,,,1.3986,1,,,,,,,,,,,,,,z,,,,,,,,,,,,,,,,111,0,774.8642,776.2763,z,1,1.3986,,[],[],[],[],[],[],[],776.2763,778.2764,778.2764,778.2767,[],[],[],[],[],[],[],,778.2767,778.2768,-0.131442207,-0.338499035,0,0,0,,0,110,110,69,1,3,TL,redisent,cursive,redisent_c.png,,,,,,
,,,,32253,001,2025-10-18_12h55.04.713,HW_LDT_1,2024.2.4,MacIntel,59.88023952,,,,,,,,,,,,,,,,,,,,,778.2782,778.4753,778.4753,778.9753,,,,,,,,,,,,,,1.2214,1,,,,,,,,,,,,,,z,,,,,,,,,,,,,,,,112,0,778.9758,780.2092,z,1,1.2214,,[],[],[],[],[],[],[],780.2092,782.2088,782.2088,782.2089,[],[],[],[],[],[],[],,782.209,782.209,-0.131442207,-0.338499035,0,0,0,,0,111,111,55,1,3,TL,mecidine,print,mecidine_p.png,,,,,,
,,,,32253,001,2025-10-18_12h55.04.713,HW_LDT_1,2024.2.4,MacIntel,59.88023952,,,,,,,,,,,,,,,,,,,,,782.2101,782.4088,782.4088,782.9094,,,,,,,,,,,,,,1.6204,1,,,,,,,,,,,,,,m,,,,,,,,,,,,,,,,113,0,782.9097,784.5431,m,1,1.6204,,[],[],[],[],[],[],[],784.5431,786.5432,786.5432,786.5434,[],[],[],[],[],[],[],,786.5434,786.5435,-0.131442207,-0.338499035,0,0,0,,0,112,112,84,1,3,word,BELOVED,cursive,beloved_c.png,,,,,,
,,,,32253,001,2025-10-18_12h55.04.713,HW_LDT_1,2024.2.4,MacIntel,59.88023952,,,,,,,,,,,,,,,,,,,,,786.545,786.7419,786.742,787.2429,,,,,,,,,,,,,,3.6043,1,,,,,,,,,,,,,,z,,,,,,,,,,,,,,,,114,0,787.2435,790.86,z,1,3.6043,,[],[],[],[],[],[],[],790.8601,792.8598,792.8599,792.8602,[],[],[],[],[],[],[],,792.8602,792.8603,-0.131442207,-0.338499035,0,0,0,,0,113,113,63,1,3,TL,racidal,cursive,racidal_c.png,,,,,,
,,,,32253,001,2025-10-18_12h55.04.713,HW_LDT_1,2024.2.4,MacIntel,59.88023952,,,,,,,,,,,,,,,,,,,,,792.8616,793.0587,793.0588,793.5595,,,,,,,,,,,,,,3.0572,0,,,,,,,,,,,,,,m,,,,,,,,,,,,,,,,115,0,793.56,796.6255,z,0,3.0572,,[],[],[],[],[],[],[],796.6255,798.6252,798.6253,798.6253,[],[],[],[],[],[],[],,798.6255,798.6255,-0.131442207,-0.338499035,0,0,0,,0,114,114,120,1,3,word,MILITARY,cursive,military_c.png,,,,,,
,,,,32253,001,2025-10-18_12h55.04.713,HW_LDT_1,2024.2.4,MacIntel,59.88023952,,,,,,,,,,,,,,,,,,,,,798.6261,798.8264,798.8266,799.3263,,,,,,,,,,,,,,1.937,1,,,,,,,,,,,,,,z,,,,,,,,,,,,,,,,116,0,799.3274,801.2764,z,1,1.937,,[],[],[],[],[],[],[],801.2765,803.2761,803.2762,803.2764,[],[],[],[],[],[],[],,803.2764,803.2764,-0.131442207,-0.338499035,0,0,0,,0,115,115,68,1,3,TL,revomal,cursive,revomal_c.png,,,,,,
,,,,32253,001,2025-10-18_12h55.04.713,HW_LDT_1,2024.2.4,MacIntel,59.88023952,,,,,,,,,,,,,,,,,,,,,803.2781,803.4756,803.4756,803.9764,,,,,,,,,,,,,,1.9235,1,,,,,,,,,,,,,,z,,,,,,,,,,,,,,,,117,0,803.977,805.9094,z,1,1.9235,,[],[],[],[],[],[],[],805.9095,807.9087,807.9088,807.9089,[],[],[],[],[],[],[],,807.9089,807.909,-0.131442207,-0.338499035,0,0,0,,0,116,116,47,1,3,TL,elarobate,print,elarobate_p.png,,,,,,
,,,,32253,001,2025-10-18_12h55.04.713,HW_LDT_1,2024.2.4,MacIntel,59.88023952,,,,,,,,,,,,,,,,,,,,,807.9101,808.1095,808.1097,808.6099,,,,,,,,,,,,,,1.5402,1,,,,,,,,,,,,,,z,,,,,,,,,,,,,,,,118,0,808.6105,810.1598,z,1,1.5402,,[],[],[],[],[],[],[],810.1598,812.1597,812.1597,812.1599,[],[],[],[],[],[],[],,812.1599,812.1599,-0.131442207,-0.338499035,0,0,0,,0,117,117,73,1,3,TL,speficic,print,speficic_p.png,,,,,,
,,,,32253,001,2025-10-18_12h55.04.713,HW_LDT_1,2024.2.4,MacIntel,59.88023952,,,,,,,,,,,,,,,,,,,,,812.1612,812.3597,812.3597,812.859,,,,,,,,,,,,,,1.2885,1,,,,,,,,,,,,,,z,,,,,,,,,,,,,,,,119,0,812.8596,814.1592,z,1,1.2885,,[],[],[],[],[],[],[],814.1594,816.1598,816.1599,816.1601,[],[],[],[],[],[],[],,816.1602,816.1602,-0.131442207,-0.338499035,0,0,0,,0,118,118,34,1,3,TL,aminal,cursive,aminal_c.png,,,,,,
,,,,32253,001,2025-10-18_12h55.04.713,HW_LDT_1,2024.2.4,MacIntel,59.88023952,,,,,,,,,,,,,,,,,,,,,816.1612,816.3599,816.3599,816.8588,,,,,,,,,,,,,,0.8885,1,,,,,,,,,,,,,,m,,,,,,,,,,,,,,,,120,0,816.8595,817.7599,m,1,0.8885,,[],[],[],[],[],[],[],817.76,819.7599,819.76,819.7602,[],[],[],[],[],[],[],,819.7603,819.7603,-0.131442207,-0.338499035,0,0,0,,0,119,119,95,1,3,word,COMEDY,print,comedy_p.png,,,,,,
,,,,32253,001,2025-10-18_12h55.04.713,HW_LDT_1,2024.2.4,MacIntel,59.88023952,,,,,,,,,,,,,,,,,,,,,819.7617,819.9599,819.9599,820.4599,,,,,,,,,,,,,,1.1692,0,,,,,,,,,,,,,,m,,,,,,,,,,,,,,,,121,0,820.4605,821.6424,z,0,1.1692,,[],[],[],[],[],[],[],821.6425,823.6422,823.6423,823.6424,[],[],[],[],[],[],[],,823.6425,823.6425,-0.131442207,-0.338499035,0,0,0,,0,120,120,123,1,3,word,MODERATE,cursive,moderate_c.png,,,,,,
,,,,32253,001,2025-10-18_12h55.04.713,HW_LDT_1,2024.2.4,MacIntel,59.88023952,,,,,,,,,,,,,,,,,,,,,823.6436,823.843,823.8431,824.3432,,,,,,,,,,,,,,0.8194,1,,,,,,,,,,,,,,m,,,,,,,,,,,,,,,,122,0,824.3437,825.1756,m,1,0.8194,,[],[],[],[],[],[],[],825.1756,827.1756,827.1756,827.1758,[],[],[],[],[],[],[],,827.1758,827.176,-0.131442207,-0.338499035,0,0,0,,0,121,121,130,1,3,word,POLICY,print,policy_p.png,,,,,,
,,,,32253,001,2025-10-18_12h55.04.713,HW_LDT_1,2024.2.4,MacIntel,59.88023952,,,,,,,,,,,,,,,,,,,,,827.1773,827.3757,827.3757,827.8766,,,,,,,,,,,,,,1.0791,1,,,,,,,,,,,,,,z,,,,,,,,,,,,,,,,123,0,827.8771,828.9597,z,1,1.0791,,[],[],[],[],[],[],[],828.9597,830.9589,830.9589,830.9591,[],[],[],[],[],[],[],,830.9591,830.9592,-0.131442207,-0.338499035,0,0,0,,0,122,122,32,1,3,TL,adacemy,print,adacemy_p.png,,,,,,
,,,,32253,001,2025-10-18_12h55.04.713,HW_LDT_1,2024.2.4,MacIntel,59.88023952,,,,,,,,,,,,,,,,,,,,,830.9605,831.1589,831.159,831.6596,,,,,,,,,,,,,,2.3877,1,,,,,,,,,,,,,,m,,,,,,,,,,,,,,,,124,0,831.6599,834.0591,m,1,2.3877,,[],[],[],[],[],[],[],834.0592,836.0595,836.0596,836.0599,[],[],[],[],[],[],[],,836.0599,836.06,-0.131442207,-0.338499035,0,0,0,,0,123,123,111,1,3,word,INDICATE,print,indicate_p.png,,,,,,
,,,,32253,001,2025-10-18_12h55.04.713,HW_LDT_1,2024.2.4,MacIntel,59.88023952,,,,,,,,,,,,,,,,,,,,,836.0614,836.259,836.259,836.7591,,,,,,,,,,,,,,2.4253,1,,,,,,,,,,,,,,z,,,,,,,,,,,,,,,,125,0,836.7599,839.1933,z,1,2.4253,,[],[],[],[],[],[],[],839.1934,841.1935,841.1936,841.1939,[],[],[],[],[],[],[],,841.1939,841.1941,-0.131442207,-0.338499035,0,0,0,,0,124,124,15,1,3,RL,mifikary,cursive,mifikary_c.png,,,,,,
,,,,32253,001,2025-10-18_12h55.04.713,HW_LDT_1,2024.2.4,MacIntel,59.88023952,,,,,,,,,,,,,,,,,,,,,841.1965,841.3934,841.3934,841.8931,,,,,,,,,,,,,,2.3196,1,,,,,,,,,,,,,,m,,,,,,,,,,,,,,,,126,1,841.8939,844.2258,m,1,2.3196,,[],[],[],[],[],[],[],844.2259,846.2257,846.2257,849.0928,[],[],[],[],[],[],[],m,849.093,849.0931,-0.131442207,-0.338499035,0,0,0,,0,125,125,105,1,3,word,EDITOR,print,editor_p.png,2.8666,,,,,
,,,,32253,001,2025-10-18_12h55.04.713,HW_LDT_1,2024.2.4,MacIntel,59.88023952,,,,,,,,,,,,,,,,,,,,,849.0941,849.2923,849.2924,849.7926,,,,,,,,,,,,,,1.488,0,,,,,,,,,,,,,,m,,,,,,,,,,,,,,,,127,0,849.7932,851.2934,z,0,1.488,,[],[],[],[],[],[],[],851.2935,853.2934,853.2934,853.2937,[],[],[],[],[],[],[],,853.2937,853.2939,-0.131442207,-0.338499035,0,0,0,,0,126,126,114,1,3,word,LOCATE,cursive,locate_c.png,,,,,,
,,,,32253,001,2025-10-18_12h55.04.713,HW_LDT_1,2024.2.4,MacIntel,59.88023952,,,,,,,,,,,,,,,,,,,,,853.2959,853.4923,853.4924,853.9931,,,,,,,,,,,,,,4.3864,1,,,,,,,,,,,,,,z,,,,,,,,,,,,,,,,128,1,853.9936,858.3934,z,1,4.3864,,[],[],[],[],[],[],[],858.3935,860.3937,860.394,864.7268,[],[],[],[],[],[],[],z,864.7269,864.727,-0.131442207,-0.338499035,0,0,0,,0,127,127,72,1,3,TL,senmitent,print,senmitent_p.png,4.3201,,,,,
,,,,32253,001,2025-10-18_12h55.04.713,HW_LDT_1,2024.2.4,MacIntel,59.88023952,,,,,,,,,,,,,,,,,,,,,864.7293,864.9267,864.9268,865.4257,,,,,,,,,,,,,,4.2994,1,,,,,,,,,,,,,,z,,,,,,,,,,,,,,,,129,0,865.4264,869.7266,z,1,4.2994,,[],[],[],[],[],[],[],869.7267,871.7259,871.7259,871.7261,[],[],[],[],[],[],[],,871.7262,871.7262,-0.131442207,-0.338499035,0,0,0,,0,128,128,20,1,3,RL,orimipal,cursive,orimipal_c.png,,,,,,
,,,,32253,001,2025-10-18_12h55.04.713,HW_LDT_1,2024.2.4,MacIntel,59.88023952,,,,,,,,,,,,,,,,,,,,,871.7273,871.9266,871.9267,872.4255,,,,,,,,,,,,,,1.322,1,,,,,,,,,,,,,,m,,,,,,,,,,,,,,,,130,0,872.4257,873.7595,m,1,1.322,,[],[],[],[],[],[],[],873.7595,875.7602,875.7602,875.7605,[],[],[],[],[],[],[],,875.7605,875.7606,-0.131442207,-0.338499035,0,0,0,,0,129,129,125,1,3,word,OPERATOR,print,operator_p.png,,,,,,
,,,,32253,001,2025-10-18_12h55.04.713,HW_LDT_1,2024.2.4,MacIntel,59.88023952,,,,,,,,,,,,,,,,,,,,,875.7617,875.9598,875.9598,876.4591,,,,,,,,,,,,,,1.1548,1,,,,,,,,,,,,,,m,,,,,,,,,,,,,,,,131,0,876.4597,877.6258,m,1,1.1548,,[],[],[],[],[],[],[],877.6259,879.6268,879.6268,879.6271,[],[],[],[],[],[],[],,879.6271,879.6273,-0.131442207,-0.338499035,0,0,0,,0,130,130,155,1,3,word,STRATEGY,print,strategy_p.png,,,,,,
,,,,32253,001,2025-10-18_12h55.04.713,HW_LDT_1,2024.2.4,MacIntel,59.88023952,,,,,,,,,,,,,,,,,,,,,879.6294,879.8268,879.8269,880.3265,,,,,,,,,,,,,,2.7344,0,,,,,,,,,,,,,,m,,,,,,,,,,,,,,,,132,0,880.327,883.0765,z,0,2.7344,,[],[],[],[],[],[],[],883.0766,885.0759,885.076,885.0761,[],[],[],[],[],[],[],,885.0761,885.0762,-0.131442207,-0.338499035,0,0,0,,0,131,131,109,1,3,word,GRATEFUL,cursive,grateful_c.png,,,,,,
,,,,32253,001,2025-10-18_12h55.04.713,HW_LDT_1,2024.2.4,MacIntel,59.88023952,,,,,,,,,,,,,,,,,,,,,885.0785,885.2763,885.2763,885.7768,,,,,,,,,,,,,,2.1142,1,,,,,,,,,,,,,,z,,,,,,,,,,,,,,,,133,0,885.7774,887.8925,z,1,2.1142,,[],[],[],[],[],[],[],887.8926,889.8926,889.8926,889.8929,[],[],[],[],[],[],[],,889.8929,889.893,-0.131442207,-0.338499035,0,0,0,,0,132,132,50,1,3,TL,lirebal,print,lirebal_p.png,,,,,,
,,,,32253,001,2025-10-18_12h55.04.713,HW_LDT_1,2024.2.4,MacIntel,59.88023952,,,,,,,,,,,,,,,,,,,,,889.894,890.0931,890.0931,890.5934,,,,,,,,,,,,,,1.9197,1,,,,,,,,,,,,,,z,,,,,,,,,,,,,,,,134,0,890.594,892.5259,z,1,1.9197,,[],[],[],[],[],[],[],892.5259,894.5264,894.5264,894.5264,[],[],[],[],[],[],[],,894.5264,894.5266,-0.131442207,-0.338499035,0,0,0,,0,133,133,70,1,3,TL,remuse,cursive,remuse_c.png,,,,,,
,,,,32253,001,2025-10-18_12h55.04.713,HW_LDT_1,2024.2.4,MacIntel,59.88023952,,,,,,,,,,,,,,,,,,,,,894.5269,894.7258,894.7258,895.2268,,,,,,,,,,,,,,15.5242,1,,,,,,,,,,,,,,z,,,,,,,,,,,,,,,,135,0,895.2273,910.7602,z,1,15.5242,,[],[],[],[],[],[],[],910.7603,912.7605,912.7605,912.7608,[],[],[],[],[],[],[],,912.7609,912.7611,0.045102754,-0.466893709,0,0,0,,0,134,134,1,1,3,RL,bewoted,cursive,bewoted_c.png,,,,,,
,,,,32253,001,2025-10-18_12h55.04.713,HW_LDT_1,2024.2.4,MacIntel,59.88023952,,,,,,,,,,,,,,,,,,,,,912.7639,912.9603,912.9604,913.4604,,,,,,,,,,,,,,4.5517,1,,,,,,,,,,,,,,m,,,,,,,,,,,,,,,,136,0,913.4614,918.0269,m,1,4.5517,,[],[],[],[],[],[],[],918.0269,920.0273,920.0275,920.0281,[],[],[],[],[],[],[],,920.0281,920.0283,0.045102754,-0.466893709,0,0,0,,0,135,135,150,1,3,word,SENTIMENT,print,sentiment_p.png,,,,,,
,,,,32253,001,2025-10-18_12h55.04.713,HW_LDT_1,2024.2.4,MacIntel,59.88023952,,,,,,,,,,,,,,,,,,,,,920.0312,920.2269,920.227,920.7266,,,,,,,,,,,,,,1.0042,1,,,,,,,,,,,,,,m,,,,,,,,,,,,,,,,137,0,920.7269,921.7431,m,1,1.0042,,[],[],[],[],[],[],[],921.7432,923.7437,923.7438,923.7439,[],[],[],[],[],[],[],,923.744,923.7441,0.045102754,-0.466893709,0,0,0,,0,136,136,136,1,3,word,RADICAL,cursive,radical_c.png,,,,,,
,,,,32253,001,2025-10-18_12h55.04.713,HW_LDT_1,2024.2.4,MacIntel,59.88023952,,,,,,,,,,,,,,,,,,,,,923.7455,923.943,923.943,924.4438,,,,,,,,,,,,,,2.3154,1,,,,,,,,,,,,,,z,,,,,,,,,,,,,,,,138,0,924.4445,926.7608,z,1,2.3154,,[],[],[],[],[],[],[],926.7608,928.7602,928.7603,928.7603,[],[],[],[],[],[],[],,928.7604,928.7605,0.045102754,-0.466893709,0,0,0,,0,137,137,42,1,3,TL,detabe,cursive,detabe_c.png,,,,,,
,,,,32253,001,2025-10-18_12h55.04.713,HW_LDT_1,2024.2.4,MacIntel,59.88023952,,,,,,,,,,,,,,,,,,,,,928.7621,928.9604,928.9605,929.4595,,,,,,,,,,,,,,1.688,1,,,,,,,,,,,,,,m,,,,,,,,,,,,,,,,139,0,929.4601,931.1602,m,1,1.688,,[],[],[],[],[],[],[],931.1603,933.1601,933.1601,933.1602,[],[],[],[],[],[],[],,933.1603,933.1604,0.045102754,-0.466893709,0,0,0,,0,138,138,89,1,3,word,CAPACITY,cursive,capacity_c.png,,,,,,
,,,,32253,001,2025-10-18_12h55.04.713,HW_LDT_1,2024.2.4,MacIntel,59.88023952,,,,,,,,,,,,,,,,,,,,,933.1617,933.3604,933.3604,933.8598,,,,,,,,,,,,,,1.207,1,,,,,,,,,,,,,,z,,,,,,,,,,,,,,,,140,0,933.8603,935.077,z,1,1.207,,[],[],[],[],[],[],[],935.0771,937.0771,937.0772,937.0774,[],[],[],[],[],[],[],,937.0774,937.0775,0.045102754,-0.466893709,0,0,0,,0,139,139,8,1,3,RL,cocewage,print,cocewage_p.png,,,,,,
,,,,32253,001,2025-10-18_12h55.04.713,HW_LDT_1,2024.2.4,MacIntel,59.88023952,,,,,,,,,,,,,,,,,,,,,937.0789,937.2767,937.2767,937.7762,,,,,,,,,,,,,,1.0217,1,,,,,,,,,,,,,,m,,,,,,,,,,,,,,,,141,1,937.7767,938.8097,m,1,1.0217,,[],[],[],[],[],[],[],938.8098,940.8104,940.8105,942.1432,[],[],[],[],[],[],[],m,942.1434,942.1434,0.045102754,-0.466893709,0,0,0,,0,140,140,139,1,3,word,REGULAR,print,regular_p.png,1.3217,,,,,
,,,,32253,001,2025-10-18_12h55.04.713,HW_LDT_1,2024.2.4,MacIntel,59.88023952,,,,,,,,,,,,,,,,,,,,,942.1444,942.3429,942.3431,942.8437,,,,,,,,,,,,,,1.3205,1,,,,,,,,,,,,,,z,,,,,,,,,,,,,,,,142,0,942.8442,944.177,z,1,1.3205,,[],[],[],[],[],[],[],944.1771,946.1763,946.1763,946.1764,[],[],[],[],[],[],[],,946.1764,946.1765,0.045102754,-0.466893709,0,0,0,,0,141,141,46,1,3,TL,distupe,print,distupe_p.png,,,,,,
,,,,32253,001,2025-10-18_12h55.04.713,HW_LDT_1,2024.2.4,MacIntel,59.88023952,,,,,,,,,,,,,,,,,,,,,946.1775,946.3765,946.3766,946.8763,,,,,,,,,,,,,,3.1332,1,,,,,,,,,,,,,,m,,,,,,,,,,,,,,,,143,0,946.8768,950.0106,m,1,3.1332,,[],[],[],[],[],[],[],950.0107,952.0103,952.0104,952.0105,[],[],[],[],[],[],[],,952.0105,952.0107,0.045102754,-0.466893709,0,0,0,,0,142,142,92,1,3,word,CATEGORY,cursive,category_c.png,,,,,,
,,,,32253,001,2025-10-18_12h55.04.713,HW_LDT_1,2024.2.4,MacIntel,59.88023952,,,,,,,,,,,,,,,,,,,,,952.0121,952.2102,952.2103,952.7096,,,,,,,,,,,,,,0.8413,1,,,,,,,,,,,,,,z,,,,,,,,,,,,,,,,144,0,952.7104,953.5601,z,1,0.8413,,[],[],[],[],[],[],[],953.5601,955.5601,955.5603,955.5604,[],[],[],[],[],[],[],,955.5606,955.5608,0.045102754,-0.466893709,0,0,0,,0,143,143,30,1,3,RL,strapely,print,strapely_p.png,,,,,,
,,,,32253,001,2025-10-18_12h55.04.713,HW_LDT_1,2024.2.4,MacIntel,59.88023952,,,,,,,,,,,,,,,,,,,,,955.5619,955.7601,955.7601,956.2598,,,,,,,,,,,,,,1.1542,1,,,,,,,,,,,,,,m,,,,,,,,,,,,,,,,145,0,956.2609,957.4265,m,1,1.1542,,[],[],[],[],[],[],[],957.4266,959.4272,959.4273,959.4275,[],[],[],[],[],[],[],,959.4275,959.4277,0.045102754,-0.466893709,0,0,0,,0,144,144,131,1,3,word,POPULAR,print,popular_p.png,,,,,,
,,,,32253,001,2025-10-18_12h55.04.713,HW_LDT_1,2024.2.4,MacIntel,59.88023952,,,,,,,,,,,,,,,,,,,,,959.429,959.6268,959.6269,960.1264,,,,,,,,,,,,,,5.8206,1,,,,,,,,,,,,,,z,,,,,,,,,,,,,,,,146,1,960.127,965.9607,z,1,5.8206,,[],[],[],[],[],[],[],965.9607,967.9605,967.9606,974.3767,[],[],[],[],[],[],[],z,974.3768,974.377,0.045102754,-0.466893709,0,0,0,,0,145,145,26,1,3,RL,repifion,print,repifion_p.png,6.4091,,,,,
,,,,32253,001,2025-10-18_12h55.04.713,HW_LDT_1,2024.2.4,MacIntel,59.88023952,,,,,,,,,,,,,,,,,,,,,974.3797,974.5773,974.5774,975.0771,,,,,,,,,,,,,,2.9368,1,,,,,,,,,,,,,,z,,,,,,,,,,,,,,,,147,0,975.0778,978.0262,z,1,2.9368,,[],[],[],[],[],[],[],978.0263,980.0278,980.0282,980.0286,[],[],[],[],[],[],[],,980.0288,980.029,0.045102754,-0.466893709,0,0,0,,0,146,146,13,1,3,RL,helicage,cursive,helicage_c.png,,,,,,
,,,,32253,001,2025-10-18_12h55.04.713,HW_LDT_1,2024.2.4,MacIntel,59.88023952,,,,,,,,,,,,,,,,,,,,,980.0323,980.2271,980.2271,980.7266,,,,,,,,,,,,,,1.2099,1,,,,,,,,,,,,,,m,,,,,,,,,,,,,,,,148,0,980.7271,981.9437,m,1,1.2099,,[],[],[],[],[],[],[],981.9438,983.944,983.944,983.9442,[],[],[],[],[],[],[],,983.9442,983.9443,0.045102754,-0.466893709,0,0,0,,0,147,147,146,1,3,word,RETIRE,print,retire_p.png,,,,,,
,,,,32253,001,2025-10-18_12h55.04.713,HW_LDT_1,2024.2.4,MacIntel,59.88023952,,,,,,,,,,,,,,,,,,,,,983.946,984.1438,984.1439,984.6439,,,,,,,,,,,,,,0.7866,1,,,,,,,,,,,,,,m,,,,,,,,,,,,,,,,149,0,984.6444,985.4439,m,1,0.7866,,[],[],[],[],[],[],[],985.444,987.4433,987.4434,987.4436,[],[],[],[],[],[],[],,987.4437,987.4438,0.045102754,-0.466893709,0,0,0,,0,148,148,129,1,3,word,PARENT,print,parent_p.png,,,,,,
,,,,32253,001,2025-10-18_12h55.04.713,HW_LDT_1,2024.2.4,MacIntel,59.88023952,,,,,,,,,,,,,,,,,,,,,987.4453,987.6439,987.6439,988.144,,,,,,,,,,,,,,0.8362,1,,,,,,,,,,,,,,m,,,,,,,,,,,,,,,,150,0,988.1444,988.9938,m,1,0.8362,,[],[],[],[],[],[],[],988.994,990.9939,990.9939,990.9941,[],[],[],[],[],[],[],,990.9942,990.9943,0.045102754,-0.466893709,0,0,0,,0,149,149,142,1,3,word,REMOTE,print,remote_p.png,,,,,,
,,,,32253,001,2025-10-18_12h55.04.713,HW_LDT_1,2024.2.4,MacIntel,59.88023952,,,,,,,,,,,,,,,,,,,,,990.9958,991.1929,991.193,991.6934,,,,,,,,,,,,,,0.9023,1,,,,,,,,,,,,,,z,,,,,,,,,,,,,,,,151,0,991.6939,992.6102,z,1,0.9023,,[],[],[],[],[],[],[],992.6103,994.6106,994.6106,994.6108,[],[],[],[],[],[],[],,994.6108,994.6109,0.045102754,-0.466893709,0,0,0,,0,150,150,23,1,3,RL,quakity,print,quakity_p.png,,,,,,
,,,,32253,001,2025-10-18_12h55.04.713,HW_LDT_1,2024.2.4,MacIntel,59.88023952,,,,,,,,,,,,,,,,,,,,,994.6118,994.8095,994.8096,995.3107,,,,,,,,,,,,,,1.0851,1,,,,,,,,,,,,,,m,,,,,,,,,,,,,,,,152,1,995.3112,996.4104,m,1,1.0851,,[],[],[],[],[],[],[],996.4104,998.4096,998.4096,1005.6274,[],[],[],[],[],[],[],z,1005.6277,1005.6279,0.045102754,-0.466893709,0,0,0,,0,151,151,154,1,3,word,STORAGE,cursive,storage_c.png,7.2062,,,,,
,,,,32253,001,2025-10-18_12h55.04.713,HW_LDT_1,2024.2.4,MacIntel,59.88023952,,,,,,,,,,,,,,,,,,,,,1005.6306,1005.8272,1005.8273,1006.3273,,,,,,,,,,,,,,4.5376,1,,,,,,,,,,,,,,m,,,,,,,,,,,,,,,,153,1,1006.3281,1010.8766,m,1,4.5376,,[],[],[],[],[],[],[],1010.8767,1012.8773,1012.8773,1015.4105,[],[],[],[],[],[],[],z,1015.4106,1015.4107,0.045102754,-0.466893709,0,0,0,,0,152,152,157,1,3,word,VALIDITY,cursive,validity_c.png,2.5319,,,,,
,,,,32253,001,2025-10-18_12h55.04.713,HW_LDT_1,2024.2.4,MacIntel,59.88023952,,,,,,,,,,,,,,,,,,,,,1015.4117,1015.6107,1015.6107,1016.1106,,,,,,,,,,,,,,0.9695,1,,,,,,,,,,,,,,m,,,,,,,,,,,,,,,,154,0,1016.1112,1017.0938,m,1,0.9695,,[],[],[],[],[],[],[],1017.0939,1019.0939,1019.094,1019.0942,[],[],[],[],[],[],[],,1019.0942,1019.0943,0.045102754,-0.466893709,0,0,0,,0,153,153,133,1,3,word,PROVIDE,print,provide_p.png,,,,,,
,,,,32253,001,2025-10-18_12h55.04.713,HW_LDT_1,2024.2.4,MacIntel,59.88023952,,,,,,,,,,,,,,,,,,,,,1019.0954,1019.2936,1019.2936,1019.7939,,,,,,,,,,,,,,1.0028,0,,,,,,,,,,,,,,m,,,,,,,,,,,,,,,,155,1,1019.7949,1020.8103,z,0,1.0028,,[],[],[],[],[],[],[],1020.8103,1022.8099,1022.8099,1024.5098,[],[],[],[],[],[],[],z,1024.5098,1024.5099,0.045102754,-0.466893709,0,0,0,,0,154,154,126,1,3,word,OPTIMAL,cursive,optimal_c.png,1.6882,,,,,
,,,,32253,001,2025-10-18_12h55.04.713,HW_LDT_1,2024.2.4,MacIntel,59.88023952,,,,,,,,,,,,,,,,,,,,,1024.5108,1024.7106,1024.7107,1025.2106,,,,,,,,,,,,,,1.821,0,,,,,,,,,,,,,,m,,,,,,,,,,,,,,,,156,0,1025.2112,1027.0441,z,0,1.821,,[],[],[],[],[],[],[],1027.0441,1029.044,1029.044,1029.0443,[],[],[],[],[],[],[],,1029.0443,1029.0445,0.045102754,-0.466893709,0,0,0,,0,155,155,90,1,3,word,CAPITAL,cursive,capital_c.png,,,,,,
,,,,32253,001,2025-10-18_12h55.04.713,HW_LDT_1,2024.2.4,MacIntel,59.88023952,,,,,,,,,,,,,,,,,,,,,1029.0458,1029.2428,1029.2428,1029.743,,,,,,,,,,,,,,1.0942,1,,,,,,,,,,,,,,m,,,,,,,,,,,,,,,,157,0,1029.7435,1030.8433,m,1,1.0942,,[],[],[],[],[],[],[],1030.8436,1032.844,1032.8442,1032.8446,[],[],[],[],[],[],[],,1032.8447,1032.845,0.045102754,-0.466893709,0,0,0,,0,156,156,132,1,3,word,PROPOSAL,print,proposal_p.png,,,,,,
,,,,32253,001,2025-10-18_12h55.04.713,HW_LDT_1,2024.2.4,MacIntel,59.88023952,,,,,,,,,,,,,,,,,,,,,1032.8478,1033.044,1033.0442,1033.5435,,,,,,,,,,,,,,1.7477,1,,,,,,,,,,,,,,z,,,,,,,,,,,,,,,,158,0,1033.5443,1035.2939,z,1,1.7477,,[],[],[],[],[],[],[],1035.294,1037.2941,1037.2942,1037.2944,[],[],[],[],[],[],[],,1037.2945,1037.2945,0.045102754,-0.466893709,0,0,0,,0,157,157,52,1,3,TL,locigal,cursive,locigal_c.png,,,,,,
,,,,32253,001,2025-10-18_12h55.04.713,HW_LDT_1,2024.2.4,MacIntel,59.88023952,,,,,,,,,,,,,,,,,,,,,1037.2955,1037.4939,1037.4939,1037.9939,,,,,,,,,,,,,,1.5032,1,,,,,,,,,,,,,,z,,,,,,,,,,,,,,,,159,0,1037.9944,1039.5107,z,1,1.5032,,[],[],[],[],[],[],[],1039.511,1041.5106,1041.5106,1041.5109,[],[],[],[],[],[],[],,1041.511,1041.5111,0.045102754,-0.466893709,0,0,0,,0,158,158,16,1,3,RL,mishafe,cursive,mishafe_c.png,,,,,,
,,,,32253,001,2025-10-18_12h55.04.713,HW_LDT_1,2024.2.4,MacIntel,59.88023952,,,,,,,,,,,,,,,,,,,,,1041.513,1041.7098,1041.7099,1042.2103,,,,,,,,,,,,,,0.9069,1,,,,,,,,,,,,,,z,,,,,,,,,,,,,,,,160,0,1042.2111,1043.1266,z,1,0.9069,,[],[],[],[],[],[],[],1043.1266,1045.1263,1045.1264,1045.1265,[],[],[],[],[],[],[],,1045.1266,1045.1269,0.045102754,-0.466893709,0,0,0,,0,159,159,18,1,3,RL,onegator,print,onegator_p.png,,,,,,
,,,,32253,001,2025-10-18_12h55.04.713,HW_LDT_1,2024.2.4,MacIntel,59.88023952,,,,,,,,,,,,,,,,,,,,,,,,,,,,,,,,,,,,,,,,,,,,,,,,,,,,,,,,,,,,,,,,,,,,,,,,,,,,,,,,,,,,,,,,,,,,,,,,,,,,,,,,,,,,,,,,,,,,,,1045.1378,1050.1278
