counterbalance_lists.group,counterbalance_lists.remaining,get_list.started,get_list.stopped,participant,session,date,expName,psychopyVersion,OS,frameRate,Instructions.started,Instructions.stopped,key_resp.keys,key_resp.rt,key_resp.duration,instr_done_touch.x,instr_done_touch.y,instr_done_touch.leftButton,instr_done_touch.midButton,instr_done_touch.rightButton,start_instr.thisRepN,start_instr.thisTrialN,start_instr.thisN,start_instr.thisIndex,start_instr.ran,pageN,phase,instruct_text,has_image,instruct_image,showProgress.started,showProgress.stopped,fix.started,fix.stopped,prac.started,prac.stopped,response.keys,response.corr,response.rt,response.duration,touch_resp.x,touch_resp.y,touch_resp.leftButton,touch_resp.midButton,touch_resp.rightButton,touch_resp.time,touch_resp.clicked_name,rt,corr,feedback.started,feedback.stopped,trials.thisRepN,trials.thisTrialN,trials.thisN,trials.thisIndex,trials.ran,TrialID,StimulusType,Condition,PrimeDuration,Prime,Target,corrAns,Instructions_expt.started,Instructions_expt.stopped,key_resp_3.keys,key_resp_3.rt,key_resp_3.duration,instr_done_touch_3.x,instr_done_touch_3.y,instr_done_touch_3.leftButton,instr_done_touch_3.midButton,instr_done_touch_3.rightButton,instr_experiment.thisRepN,instr_experiment.thisTrialN,instr_experiment.thisN,instr_experiment.thisIndex,instr_experiment.ran,trialID,flag,maintask.started,maintask.stopped,key_resp_2.keys,key_resp_2.corr,key_resp_2.rt,key_resp_2.duration,targ_click.x,targ_click.y,targ_click.leftButton,targ_click.midButton,targ_click.rightButton,targ_click.time,targ_click.clicked_name,ITI.started,ITI.stopped,probe.started,probe.stopped,click_probe.x,click_probe.y,click_probe.leftButton,click_probe.midButton,click_probe.rightButton,click_probe.time,click_probe.clicked_name,key_resp_probe.keys,Break.started,Break.stopped,break_done_touch.x,break_done_touch.y,break_done_touch.leftButton,break_done_touch.midButton,break_done_touch.rightButton,break_done_keyboard.keys,list2_trials.thisRepN,list2_trials.thisTrialN,list2_trials.thisN,list2_trials.thisIndex,list2_trials.ran,list_id,item_type,string,font,stim_file,key_resp_probe.rt,key_resp_probe.duration,break_done_keyboard.rt,break_done_keyboard.duration,End.started,End.stopped
list2,,10.478,10.479,32270,001,2025-10-28_11h00.45.796,HW_LDT_1,2024.2.4,MacIntel,58.82352941,,,,,,,,,,,,,,,,,,,,,,,,,,,,,,,,,,,,,,,,,,,,,,,,,,,,,,,,,,,,,,,,,,,,,,,,,,,,,,,,,,,,,,,,,,,,,,,,,,,,,,,,,,,,,,,,,,,,,,,
,,,,32270,001,2025-10-28_11h00.45.796,HW_LDT_1,2024.2.4,MacIntel,58.82352941,10.498,63.371,space,52.843,,-0.146829811,-0.090656285,0,0,0,0,0,0,0,1,1,instructions,"INSTRUCTIONS
At the start of each trial, look at the plus sign  (+) in the center of the screen.  This tells you that a trial is about to begin and where to look. Second, the plus sign will disappear and a string of letters will appear. Your task is to determine if the string of letters is a word or not. If the item is a word press the M key (on keyboard)  or touch the word button (phone/tablet).  If the item is not a word,  press the  Z key (on keyboard)  or touch the nonword button (on phone/tablet). The items will be presented for a short time. 
Press the space bar or touch  continue.",0,,,,,,,,,,,,,,,,,,,,,,,,,,,,,,,,,,,,,,,,,,,,,,,,,,,,,,,,,,,,,,,,,,,,,,,,,,,,,,,,,,,,,,,,,,,,,,,,,,,,
,,,,32270,001,2025-10-28_11h00.45.796,HW_LDT_1,2024.2.4,MacIntel,58.82352941,63.373,67.784,space,4.374,,-0.146829811,-0.090656285,0,0,0,0,1,1,1,1,2,instructions,"If your device has a keyboard, press the 'Z' key for nonwords and the 'M' key for words.





Press the space bar or touch the button below to continue.",0,keyboard-example.gif,,,,,,,,,,,,,,,,,,,,,,,,,,,,,,,,,,,,,,,,,,,,,,,,,,,,,,,,,,,,,,,,,,,,,,,,,,,,,,,,,,,,,,,,,,,,,,,,,,,
,,,,32270,001,2025-10-28_11h00.45.796,HW_LDT_1,2024.2.4,MacIntel,58.82352941,67.786,69.901,space,2.08,,-0.146829811,-0.090656285,0,0,0,0,2,2,2,1,3,instructions,"If you are using a touchscreen only device, use the buttons on the screen. Do not use the mouse.





Press the space bar or touch the button below to continue.",0,touchscreen-example.gif,,,,,,,,,,,,,,,,,,,,,,,,,,,,,,,,,,,,,,,,,,,,,,,,,,,,,,,,,,,,,,,,,,,,,,,,,,,,,,,,,,,,,,,,,,,,,,,,,,,
,,,,32270,001,2025-10-28_11h00.45.796,HW_LDT_1,2024.2.4,MacIntel,58.82352941,69.902,72.734,space,2.808,,-0.146829811,-0.090656285,0,0,0,0,3,3,3,1,4,instructions,"It is very important that you respond as quickly and accurately as possible, as each letter string will only be on the screen for two seconds. If you do not respond within this time, the message 'Too slow!' will be displayed and the experiment will progress to the next letter string. The first 20 trials will be practice trials and you will receive feedback on your answers. 

Press the space bar or touch the button below to start the practice trials.",0,,,,,,,,,,,,,,,,,,,,,,,,,,,,,,,,,,,,,,,,,,,,,,,,,,,,,,,,,,,,,,,,,,,,,,,,,,,,,,,,,,,,,,,,,,,,,,,,,,,,
,,,,32270,001,2025-10-28_11h00.45.796,HW_LDT_1,2024.2.4,MacIntel,58.82352941,,,,,,,,,,,,,,,,,,,,,72.757,72.934,72.934,73.434,73.434,74.501,z,1,1.032,,[],[],[],[],[],[],[],1.032,1,74.502,75.002,0,0,0,15,1,1016,NW,UN,16,mushed,WHAISE,z,,,,,,,,,,,,,,,,,,,,,,,,,,,,,,,,,,,,,,,,,,,,,,,,,,,,,,,,,,,,,,,,,,
,,,,32270,001,2025-10-28_11h00.45.796,HW_LDT_1,2024.2.4,MacIntel,58.82352941,,,,,,,,,,,,,,,,,,,,,75.004,75.201,75.201,75.7,75.701,76.486,z,1,0.77,,[],[],[],[],[],[],[],0.77,1,76.486,76.984,0,1,1,9,1,1010,NW,"ID",33,fariny,FARINY,z,,,,,,,,,,,,,,,,,,,,,,,,,,,,,,,,,,,,,,,,,,,,,,,,,,,,,,,,,,,,,,,,,,
,,,,32270,001,2025-10-28_11h00.45.796,HW_LDT_1,2024.2.4,MacIntel,58.82352941,,,,,,,,,,,,,,,,,,,,,76.985,77.183,77.183,77.684,77.685,78.534,m,1,0.829,,[],[],[],[],[],[],[],0.829,1,78.535,79.034,0,2,2,4,1,1005,WORD,UN,33,abound,SQUEAK,m,,,,,,,,,,,,,,,,,,,,,,,,,,,,,,,,,,,,,,,,,,,,,,,,,,,,,,,,,,,,,,,,,,
,,,,32270,001,2025-10-28_11h00.45.796,HW_LDT_1,2024.2.4,MacIntel,58.82352941,,,,,,,,,,,,,,,,,,,,,79.035,79.234,79.234,79.734,79.735,80.451,z,1,0.694,,[],[],[],[],[],[],[],0.694,1,80.451,80.951,0,3,3,13,1,1014,NW,UN,33,winfer,ROUPET,z,,,,,,,,,,,,,,,,,,,,,,,,,,,,,,,,,,,,,,,,,,,,,,,,,,,,,,,,,,,,,,,,,,
,,,,32270,001,2025-10-28_11h00.45.796,HW_LDT_1,2024.2.4,MacIntel,58.82352941,,,,,,,,,,,,,,,,,,,,,80.952,81.15,81.151,81.65,81.652,82.384,z,1,0.716,,[],[],[],[],[],[],[],0.716,1,82.384,82.883,0,4,4,11,1,1012,NW,"ID",16,rashet,RASHET,z,,,,,,,,,,,,,,,,,,,,,,,,,,,,,,,,,,,,,,,,,,,,,,,,,,,,,,,,,,,,,,,,,,
,,,,32270,001,2025-10-28_11h00.45.796,HW_LDT_1,2024.2.4,MacIntel,58.82352941,,,,,,,,,,,,,,,,,,,,,82.885,83.083,83.083,83.584,83.585,84.317,z,1,0.712,,[],[],[],[],[],[],[],0.712,1,84.318,84.817,0,5,5,8,1,1009,NW,"ID",33,aslert,ASLERT,z,,,,,,,,,,,,,,,,,,,,,,,,,,,,,,,,,,,,,,,,,,,,,,,,,,,,,,,,,,,,,,,,,,
,,,,32270,001,2025-10-28_11h00.45.796,HW_LDT_1,2024.2.4,MacIntel,58.82352941,,,,,,,,,,,,,,,,,,,,,84.818,85.017,85.017,85.517,85.518,86.301,z,1,0.763,,[],[],[],[],[],[],[],0.763,1,86.301,86.801,0,6,6,12,1,1013,NW,UN,33,adveil,SPRINY,z,,,,,,,,,,,,,,,,,,,,,,,,,,,,,,,,,,,,,,,,,,,,,,,,,,,,,,,,,,,,,,,,,,
,,,,32270,001,2025-10-28_11h00.45.796,HW_LDT_1,2024.2.4,MacIntel,58.82352941,,,,,,,,,,,,,,,,,,,,,86.802,87.001,87.001,87.5,87.501,88.167,m,1,0.642,,[],[],[],[],[],[],[],0.642,1,88.168,88.667,0,7,7,6,1,1007,WORD,UN,16,tropic,ZOMBIE,m,,,,,,,,,,,,,,,,,,,,,,,,,,,,,,,,,,,,,,,,,,,,,,,,,,,,,,,,,,,,,,,,,,
,,,,32270,001,2025-10-28_11h00.45.796,HW_LDT_1,2024.2.4,MacIntel,58.82352941,,,,,,,,,,,,,,,,,,,,,88.668,88.867,88.867,89.367,89.368,90.536,z,1,1.16,,[],[],[],[],[],[],[],1.16,1,90.536,91.034,0,8,8,10,1,1011,NW,"ID",16,inlade,INLADE,z,,,,,,,,,,,,,,,,,,,,,,,,,,,,,,,,,,,,,,,,,,,,,,,,,,,,,,,,,,,,,,,,,,
,,,,32270,001,2025-10-28_11h00.45.796,HW_LDT_1,2024.2.4,MacIntel,58.82352941,,,,,,,,,,,,,,,,,,,,,91.035,91.234,91.234,91.733,91.735,92.367,m,1,0.612,,[],[],[],[],[],[],[],0.612,1,92.367,92.867,0,9,9,1,1,1002,WORD,"ID",33,adjust,ADJUST,m,,,,,,,,,,,,,,,,,,,,,,,,,,,,,,,,,,,,,,,,,,,,,,,,,,,,,,,,,,,,,,,,,,
,,,,32270,001,2025-10-28_11h00.45.796,HW_LDT_1,2024.2.4,MacIntel,58.82352941,,,,,,,,,,,,,,,,,,,,,92.869,93.067,93.067,93.566,93.566,94.134,m,1,0.552,,[],[],[],[],[],[],[],0.552,1,94.134,94.633,0,10,10,5,1,1006,WORD,UN,33,frenzy,OBTAIN,m,,,,,,,,,,,,,,,,,,,,,,,,,,,,,,,,,,,,,,,,,,,,,,,,,,,,,,,,,,,,,,,,,,
,,,,32270,001,2025-10-28_11h00.45.796,HW_LDT_1,2024.2.4,MacIntel,58.82352941,,,,,,,,,,,,,,,,,,,,,94.635,94.834,94.834,95.334,95.335,96.017,m,1,0.66,,[],[],[],[],[],[],[],0.66,1,96.018,96.517,0,11,11,3,1,1004,WORD,"ID",16,matrix,MATRIX,m,,,,,,,,,,,,,,,,,,,,,,,,,,,,,,,,,,,,,,,,,,,,,,,,,,,,,,,,,,,,,,,,,,
,,,,32270,001,2025-10-28_11h00.45.796,HW_LDT_1,2024.2.4,MacIntel,58.82352941,,,,,,,,,,,,,,,,,,,,,96.518,96.717,96.717,97.217,97.218,97.9,z,1,0.674,,[],[],[],[],[],[],[],0.674,1,97.9,98.4,0,12,12,14,1,1015,NW,UN,16,miaber,THRALE,z,,,,,,,,,,,,,,,,,,,,,,,,,,,,,,,,,,,,,,,,,,,,,,,,,,,,,,,,,,,,,,,,,,
,,,,32270,001,2025-10-28_11h00.45.796,HW_LDT_1,2024.2.4,MacIntel,58.82352941,,,,,,,,,,,,,,,,,,,,,98.402,98.6,98.6,99.1,99.101,99.866,m,1,0.754,,[],[],[],[],[],[],[],0.754,1,99.867,100.367,0,13,13,0,1,1001,WORD,"ID",33,utopia,UTOPIA,m,,,,,,,,,,,,,,,,,,,,,,,,,,,,,,,,,,,,,,,,,,,,,,,,,,,,,,,,,,,,,,,,,,
,,,,32270,001,2025-10-28_11h00.45.796,HW_LDT_1,2024.2.4,MacIntel,58.82352941,,,,,,,,,,,,,,,,,,,,,100.368,100.567,100.567,101.067,101.068,101.7,m,1,0.621,,[],[],[],[],[],[],[],0.621,1,101.701,102.2,0,14,14,2,1,1003,WORD,"ID",16,almond,ALMOND,m,,,,,,,,,,,,,,,,,,,,,,,,,,,,,,,,,,,,,,,,,,,,,,,,,,,,,,,,,,,,,,,,,,
,,,,32270,001,2025-10-28_11h00.45.796,HW_LDT_1,2024.2.4,MacIntel,58.82352941,,,,,,,,,,,,,,,,,,,,,102.202,102.4,102.4,102.9,102.901,103.651,m,1,0.739,,[],[],[],[],[],[],[],0.739,1,103.652,104.15,0,15,15,7,1,1008,WORD,UN,16,hurdle,VOLUME,m,,,,,,,,,,,,,,,,,,,,,,,,,,,,,,,,,,,,,,,,,,,,,,,,,,,,,,,,,,,,,,,,,,
,,,,32270,001,2025-10-28_11h00.45.796,HW_LDT_1,2024.2.4,MacIntel,58.82352941,,,,,,,,,,,,,,,,1,end_of_practice,"You have completed the practice trials. During the experimental trials, you will not receive feedback. On some trials you will be asked to report whether the item you just saw was in cursive or print. 
Before you begin, please ensure that you are in a comfortable and quiet location and will not be disturbed for about 15 minutes, as we cannot use your data if you do not complete all the trials. 
 When you are ready to start the experimental trials, please press space or touch the button below.",,,,,,,,,,,,,,,,,,,,,,,,,,,,,,,,,,,,104.158,119.685,space,15.488,,-0.146829811,-0.090656285,0,0,0,0,0,0,0,1,,,,,,,,,,,,,,,,,,,,,,,,,,,,,,,,,,,,,,,,,,,,,,,,,,,
,,,,32270,001,2025-10-28_11h00.45.796,HW_LDT_1,2024.2.4,MacIntel,58.82352941,,,,,,,,,,,,,,,,,,,,,119.698,119.884,119.884,120.388,,,,,,,,,,,,,,1.218,1,,,,,,,,,,,,,,m,,,,,,,,,,,,,,,,1,0,120.389,121.617,m,1,1.218,,[],[],[],[],[],[],[],121.617,123.618,123.618,123.624,[],[],[],[],[],[],[],,123.625,123.628,-0.146829811,-0.090656285,0,0,0,,0,0,0,111,1,2,word,INDICATE,cursive,indicate_c.png,,,,,,
,,,,32270,001,2025-10-28_11h00.45.796,HW_LDT_1,2024.2.4,MacIntel,58.82352941,,,,,,,,,,,,,,,,,,,,,123.629,123.833,123.834,124.317,,,,,,,,,,,,,,0.674,0,,,,,,,,,,,,,,z,,,,,,,,,,,,,,,,2,1,124.317,125.003,m,0,0.674,,[],[],[],[],[],[],[],125.003,127,127,129.6,[],[],[],[],[],[],[],z,129.601,129.601,-0.146829811,-0.090656285,0,0,0,,0,1,1,57,1,2,TL,meromy,cursive,meromy_c.png,2.595,,,,,
,,,,32270,001,2025-10-28_11h00.45.796,HW_LDT_1,2024.2.4,MacIntel,58.82352941,,,,,,,,,,,,,,,,,,,,,129.602,129.8,129.8,130.3,,,,,,,,,,,,,,0.837,1,,,,,,,,,,,,,,m,,,,,,,,,,,,,,,,3,0,130.301,131.15,m,1,0.837,,[],[],[],[],[],[],[],131.151,133.15,133.15,133.151,[],[],[],[],[],[],[],,133.151,133.151,-0.146829811,-0.090656285,0,0,0,,0,2,2,128,1,2,word,PACIFIC,print,pacific_p.png,,,,,,
,,,,32270,001,2025-10-28_11h00.45.796,HW_LDT_1,2024.2.4,MacIntel,58.82352941,,,,,,,,,,,,,,,,,,,,,133.152,133.35,133.35,133.85,,,,,,,,,,,,,,0.825,1,,,,,,,,,,,,,,z,,,,,,,,,,,,,,,,4,0,133.851,134.684,z,1,0.825,,[],[],[],[],[],[],[],134.684,136.683,136.683,136.684,[],[],[],[],[],[],[],,136.684,136.685,-0.146829811,-0.090656285,0,0,0,,0,3,3,39,1,2,TL,aminal,print,aminal_p.png,,,,,,
,,,,32270,001,2025-10-28_11h00.45.796,HW_LDT_1,2024.2.4,MacIntel,58.82352941,,,,,,,,,,,,,,,,,,,,,136.685,136.883,136.883,137.383,,,,,,,,,,,,,,0.905,1,,,,,,,,,,,,,,z,,,,,,,,,,,,,,,,5,0,137.384,138.3,z,1,0.905,,[],[],[],[],[],[],[],138.3,140.3,140.3,140.3,[],[],[],[],[],[],[],,140.3,140.301,-0.146829811,-0.090656285,0,0,0,,0,4,4,52,1,2,TL,elarobate,cursive,elarobate_c.png,,,,,,
,,,,32270,001,2025-10-28_11h00.45.796,HW_LDT_1,2024.2.4,MacIntel,58.82352941,,,,,,,,,,,,,,,,,,,,,140.301,140.5,140.5,141,,,,,,,,,,,,,,1.178,1,,,,,,,,,,,,,,z,,,,,,,,,,,,,,,,6,0,141.001,142.183,z,1,1.178,,[],[],[],[],[],[],[],142.183,144.184,144.184,144.184,[],[],[],[],[],[],[],,144.184,144.184,-0.146829811,-0.090656285,0,0,0,,0,5,5,34,1,2,RL,trilude,cursive,trilude_c.png,,,,,,
,,,,32270,001,2025-10-28_11h00.45.796,HW_LDT_1,2024.2.4,MacIntel,58.82352941,,,,,,,,,,,,,,,,,,,,,144.186,144.383,144.384,144.883,,,,,,,,,,,,,,0.653,1,,,,,,,,,,,,,,m,,,,,,,,,,,,,,,,7,1,144.884,145.55,m,1,0.653,,[],[],[],[],[],[],[],145.55,147.55,147.55,148.667,[],[],[],[],[],[],[],z,148.667,148.667,-0.146829811,-0.090656285,0,0,0,,0,6,6,134,1,2,word,QUALIFY,cursive,qualify_c.png,1.104,,,,,
,,,,32270,001,2025-10-28_11h00.45.796,HW_LDT_1,2024.2.4,MacIntel,58.82352941,,,,,,,,,,,,,,,,,,,,,148.669,148.867,148.867,149.366,,,,,,,,,,,,,,0.652,1,,,,,,,,,,,,,,m,,,,,,,,,,,,,,,,8,0,149.367,150.033,m,1,0.652,,[],[],[],[],[],[],[],150.034,152.033,152.033,152.034,[],[],[],[],[],[],[],,152.034,152.034,-0.146829811,-0.090656285,0,0,0,,0,7,7,99,1,2,word,DEBATE,print,debate_p.png,,,,,,
,,,,32270,001,2025-10-28_11h00.45.796,HW_LDT_1,2024.2.4,MacIntel,58.82352941,,,,,,,,,,,,,,,,,,,,,152.035,152.233,152.233,152.732,,,,,,,,,,,,,,0.721,1,,,,,,,,,,,,,,m,,,,,,,,,,,,,,,,9,0,152.733,153.467,m,1,0.721,,[],[],[],[],[],[],[],153.467,155.467,155.467,155.467,[],[],[],[],[],[],[],,155.467,155.467,-0.146829811,-0.090656285,0,0,0,,0,8,8,136,1,2,word,RADICAL,cursive,radical_c.png,,,,,,
,,,,32270,001,2025-10-28_11h00.45.796,HW_LDT_1,2024.2.4,MacIntel,58.82352941,,,,,,,,,,,,,,,,,,,,,155.468,155.667,155.667,156.166,,,,,,,,,,,,,,0.936,1,,,,,,,,,,,,,,z,,,,,,,,,,,,,,,,10,0,156.167,157.117,z,1,0.936,,[],[],[],[],[],[],[],157.117,159.117,159.117,159.117,[],[],[],[],[],[],[],,159.118,159.118,-0.146829811,-0.090656285,0,0,0,,0,9,9,60,1,2,TL,molibe,print,molibe_p.png,,,,,,
,,,,32270,001,2025-10-28_11h00.45.796,HW_LDT_1,2024.2.4,MacIntel,58.82352941,,,,,,,,,,,,,,,,,,,,,159.118,159.316,159.317,159.817,,,,,,,,,,,,,,1.077,1,,,,,,,,,,,,,,m,,,,,,,,,,,,,,,,11,0,159.817,160.9,m,1,1.077,,[],[],[],[],[],[],[],160.9,162.9,162.9,162.9,[],[],[],[],[],[],[],,162.9,162.9,-0.146829811,-0.090656285,0,0,0,,0,10,10,139,1,2,word,REGULAR,cursive,regular_c.png,,,,,,
,,,,32270,001,2025-10-28_11h00.45.796,HW_LDT_1,2024.2.4,MacIntel,58.82352941,,,,,,,,,,,,,,,,,,,,,162.901,163.1,163.1,163.599,,,,,,,,,,,,,,1.424,1,,,,,,,,,,,,,,z,,,,,,,,,,,,,,,,12,0,163.599,165.033,z,1,1.424,,[],[],[],[],[],[],[],165.033,167.033,167.034,167.034,[],[],[],[],[],[],[],,167.034,167.035,-0.146829811,-0.090656285,0,0,0,,0,11,11,19,1,2,RL,monebate,cursive,monebate_c.png,,,,,,
,,,,32270,001,2025-10-28_11h00.45.796,HW_LDT_1,2024.2.4,MacIntel,58.82352941,,,,,,,,,,,,,,,,,,,,,167.036,167.233,167.233,167.733,,,,,,,,,,,,,,1.074,0,,,,,,,,,,,,,,z,,,,,,,,,,,,,,,,13,0,167.734,168.817,m,0,1.074,,[],[],[],[],[],[],[],168.817,170.816,170.817,170.817,[],[],[],[],[],[],[],,170.817,170.817,-0.146829811,-0.090656285,0,0,0,,0,12,12,56,1,2,TL,marnigal,cursive,marnigal_c.png,,,,,,
,,,,32270,001,2025-10-28_11h00.45.796,HW_LDT_1,2024.2.4,MacIntel,58.82352941,,,,,,,,,,,,,,,,,,,,,170.818,171.017,171.017,171.516,,,,,,,,,,,,,,0.606,1,,,,,,,,,,,,,,m,,,,,,,,,,,,,,,,14,0,171.517,172.134,m,1,0.606,,[],[],[],[],[],[],[],172.134,174.133,174.133,174.134,[],[],[],[],[],[],[],,174.134,174.134,-0.146829811,-0.090656285,0,0,0,,0,13,13,149,1,2,word,SENATOR,print,senator_p.png,,,,,,
,,,,32270,001,2025-10-28_11h00.45.796,HW_LDT_1,2024.2.4,MacIntel,58.82352941,,,,,,,,,,,,,,,,,,,,,174.135,174.333,174.333,174.833,,,,,,,,,,,,,,0.553,1,,,,,,,,,,,,,,m,,,,,,,,,,,,,,,,15,0,174.834,175.4,m,1,0.553,,[],[],[],[],[],[],[],175.4,177.4,177.4,177.4,[],[],[],[],[],[],[],,177.401,177.401,-0.146829811,-0.090656285,0,0,0,,0,14,14,88,1,2,word,CAMERA,print,camera_p.png,,,,,,
,,,,32270,001,2025-10-28_11h00.45.796,HW_LDT_1,2024.2.4,MacIntel,58.82352941,,,,,,,,,,,,,,,,,,,,,177.402,177.6,177.6,178.1,,,,,,,,,,,,,,1.42,0,,,,,,,,,,,,,,z,,,,,,,,,,,,,,,,16,0,178.1,179.532,m,0,1.42,,[],[],[],[],[],[],[],179.532,181.533,181.533,181.534,[],[],[],[],[],[],[],,181.534,181.534,-0.146829811,-0.090656285,0,0,0,,0,15,15,53,1,2,TL,edivent,cursive,edivent_c.png,,,,,,
,,,,32270,001,2025-10-28_11h00.45.796,HW_LDT_1,2024.2.4,MacIntel,58.82352941,,,,,,,,,,,,,,,,,,,,,181.535,181.733,181.733,182.234,,,,,,,,,,,,,,0.536,0,,,,,,,,,,,,,,z,,,,,,,,,,,,,,,,17,0,182.234,182.783,m,0,0.536,,[],[],[],[],[],[],[],182.784,184.783,184.783,184.784,[],[],[],[],[],[],[],,184.784,184.784,-0.146829811,-0.090656285,0,0,0,,0,16,16,64,1,2,TL,paficic,print,paficic_p.png,,,,,,
,,,,32270,001,2025-10-28_11h00.45.796,HW_LDT_1,2024.2.4,MacIntel,58.82352941,,,,,,,,,,,,,,,,,,,,,184.785,184.983,184.983,185.483,,,,,,,,,,,,,,2.02,1,,,,,,,,,,,,,,z,,,,,,,,,,,,,,,,18,0,185.484,187.517,z,1,2.02,,[],[],[],[],[],[],[],187.517,189.516,189.516,189.517,[],[],[],[],[],[],[],,189.517,189.517,-0.146829811,-0.090656285,0,0,0,,0,17,17,68,1,2,TL,quatily,cursive,quatily_c.png,,,,,,
,,,,32270,001,2025-10-28_11h00.45.796,HW_LDT_1,2024.2.4,MacIntel,58.82352941,,,,,,,,,,,,,,,,,,,,,189.518,189.716,189.717,190.216,,,,,,,,,,,,,,0.702,1,,,,,,,,,,,,,,z,,,,,,,,,,,,,,,,19,0,190.217,190.934,z,1,0.702,,[],[],[],[],[],[],[],190.934,192.933,192.933,192.934,[],[],[],[],[],[],[],,192.934,192.934,-0.146829811,-0.090656285,0,0,0,,0,18,18,25,1,2,RL,rabigly,print,rabigly_p.png,,,,,,
,,,,32270,001,2025-10-28_11h00.45.796,HW_LDT_1,2024.2.4,MacIntel,58.82352941,,,,,,,,,,,,,,,,,,,,,192.935,193.133,193.133,193.633,,,,,,,,,,,,,,0.523,1,,,,,,,,,,,,,,m,,,,,,,,,,,,,,,,20,0,193.634,194.167,m,1,0.523,,[],[],[],[],[],[],[],194.167,196.167,196.167,196.167,[],[],[],[],[],[],[],,196.167,196.168,-0.146829811,-0.090656285,0,0,0,,0,19,19,127,1,2,word,ORIGINAL,print,original_p.png,,,,,,
,,,,32270,001,2025-10-28_11h00.45.796,HW_LDT_1,2024.2.4,MacIntel,58.82352941,,,,,,,,,,,,,,,,,,,,,196.169,196.369,196.369,196.867,,,,,,,,,,,,,,1.003,0,,,,,,,,,,,,,,m,,,,,,,,,,,,,,,,21,0,196.867,197.884,z,0,1.003,,[],[],[],[],[],[],[],197.884,199.885,199.885,199.885,[],[],[],[],[],[],[],,199.885,199.885,-0.146829811,-0.090656285,0,0,0,,0,20,20,126,1,2,word,OPTIMAL,cursive,optimal_c.png,,,,,,
,,,,32270,001,2025-10-28_11h00.45.796,HW_LDT_1,2024.2.4,MacIntel,58.82352941,,,,,,,,,,,,,,,,,,,,,199.886,200.083,200.083,200.583,,,,,,,,,,,,,,1.076,1,,,,,,,,,,,,,,z,,,,,,,,,,,,,,,,22,0,200.584,201.666,z,1,1.076,,[],[],[],[],[],[],[],201.667,203.666,203.666,203.667,[],[],[],[],[],[],[],,203.667,203.667,-0.146829811,-0.090656285,0,0,0,,0,21,21,40,1,2,TL,bevoled,cursive,bevoled_c.png,,,,,,
,,,,32270,001,2025-10-28_11h00.45.796,HW_LDT_1,2024.2.4,MacIntel,58.82352941,,,,,,,,,,,,,,,,,,,,,203.668,203.866,203.866,204.366,,,,,,,,,,,,,,0.81,1,,,,,,,,,,,,,,z,,,,,,,,,,,,,,,,23,0,204.367,205.183,z,1,0.81,,[],[],[],[],[],[],[],205.183,207.183,207.184,207.184,[],[],[],[],[],[],[],,207.184,207.185,-0.146829811,-0.090656285,0,0,0,,0,22,22,16,1,2,RL,losipal,print,losipal_p.png,,,,,,
,,,,32270,001,2025-10-28_11h00.45.796,HW_LDT_1,2024.2.4,MacIntel,58.82352941,,,,,,,,,,,,,,,,,,,,,207.186,207.383,207.383,207.882,,,,,,,,,,,,,,0.73,1,,,,,,,,,,,,,,z,,,,,,,,,,,,,,,,24,0,207.883,208.618,z,1,0.73,,[],[],[],[],[],[],[],208.618,210.616,210.616,210.617,[],[],[],[],[],[],[],,210.617,210.618,-0.146829811,-0.090656285,0,0,0,,0,23,23,77,1,2,TL,sloten,print,sloten_p.png,,,,,,
,,,,32270,001,2025-10-28_11h00.45.796,HW_LDT_1,2024.2.4,MacIntel,58.82352941,,,,,,,,,,,,,,,,,,,,,210.618,210.816,210.816,211.316,,,,,,,,,,,,,,0.743,1,,,,,,,,,,,,,,z,,,,,,,,,,,,,,,,25,0,211.317,212.066,z,1,0.743,,[],[],[],[],[],[],[],212.067,214.066,214.066,214.067,[],[],[],[],[],[],[],,214.067,214.067,-0.146829811,-0.090656285,0,0,0,,0,24,24,29,1,2,RL,samite,cursive,samite_c.png,,,,,,
,,,,32270,001,2025-10-28_11h00.45.796,HW_LDT_1,2024.2.4,MacIntel,58.82352941,,,,,,,,,,,,,,,,,,,,,214.068,214.266,214.266,214.766,,,,,,,,,,,,,,0.746,1,,,,,,,,,,,,,,z,,,,,,,,,,,,,,,,26,1,214.767,215.518,z,1,0.746,,[],[],[],[],[],[],[],215.518,217.516,217.516,218.933,[],[],[],[],[],[],[],m,218.933,218.934,-0.146829811,-0.090656285,0,0,0,,0,25,25,49,1,2,TL,dedace,print,dedace_p.png,1.41,,,,,
,,,,32270,001,2025-10-28_11h00.45.796,HW_LDT_1,2024.2.4,MacIntel,58.82352941,,,,,,,,,,,,,,,,,,,,,218.935,219.133,219.133,219.633,,,,,,,,,,,,,,2.148,0,,,,,,,,,,,,,,m,,,,,,,,,,,,,,,,27,0,219.634,221.785,z,0,2.148,,[],[],[],[],[],[],[],221.785,223.783,223.783,223.783,[],[],[],[],[],[],[],,223.784,223.784,-0.146829811,-0.090656285,0,0,0,,0,26,26,109,1,2,word,GRATEFUL,cursive,grateful_c.png,,,,,,
,,,,32270,001,2025-10-28_11h00.45.796,HW_LDT_1,2024.2.4,MacIntel,58.82352941,,,,,,,,,,,,,,,,,,,,,223.785,223.982,223.982,224.483,,,,,,,,,,,,,,0.937,1,,,,,,,,,,,,,,z,,,,,,,,,,,,,,,,28,0,224.483,225.433,z,1,0.937,,[],[],[],[],[],[],[],225.434,227.433,227.433,227.433,[],[],[],[],[],[],[],,227.434,227.434,-0.146829811,-0.090656285,0,0,0,,0,27,27,69,1,2,TL,resufal,cursive,resufal_c.png,,,,,,
,,,,32270,001,2025-10-28_11h00.45.796,HW_LDT_1,2024.2.4,MacIntel,58.82352941,,,,,,,,,,,,,,,,,,,,,227.435,227.633,227.633,228.133,,,,,,,,,,,,,,0.641,1,,,,,,,,,,,,,,m,,,,,,,,,,,,,,,,29,0,228.133,228.783,m,1,0.641,,[],[],[],[],[],[],[],228.784,230.783,230.783,230.783,[],[],[],[],[],[],[],,230.783,230.784,-0.146829811,-0.090656285,0,0,0,,0,28,28,100,1,2,word,DECADE,print,decade_p.png,,,,,,
,,,,32270,001,2025-10-28_11h00.45.796,HW_LDT_1,2024.2.4,MacIntel,58.82352941,,,,,,,,,,,,,,,,,,,,,230.784,230.983,230.983,231.483,,,,,,,,,,,,,,0.77,0,,,,,,,,,,,,,,m,,,,,,,,,,,,,,,,30,0,231.484,232.266,z,0,0.77,,[],[],[],[],[],[],[],232.267,234.266,234.266,234.267,[],[],[],[],[],[],[],,234.267,234.267,-0.146829811,-0.090656285,0,0,0,,0,29,29,120,1,2,word,MILITARY,cursive,military_c.png,,,,,,
,,,,32270,001,2025-10-28_11h00.45.796,HW_LDT_1,2024.2.4,MacIntel,58.82352941,,,,,,,,,,,,,,,,,,,,,234.268,234.466,234.466,234.966,,,,,,,,,,,,,,1.062,1,,,,,,,,,,,,,,m,,,,,,,,,,,,,,,,31,0,234.966,236.033,m,1,1.062,,[],[],[],[],[],[],[],236.033,238.033,238.033,238.034,[],[],[],[],[],[],[],,238.034,238.034,-0.146829811,-0.090656285,0,0,0,,0,30,30,91,1,2,word,CARDINAL,cursive,cardinal_c.png,,,,,,
,,,,32270,001,2025-10-28_11h00.45.796,HW_LDT_1,2024.2.4,MacIntel,58.82352941,,,,,,,,,,,,,,,,,,,,,238.035,238.233,238.233,238.733,,,,,,,,,,,,,,0.792,0,,,,,,,,,,,,,,m,,,,,,,,,,,,,,,,32,0,238.733,239.533,z,0,0.792,,[],[],[],[],[],[],[],239.533,241.533,241.533,241.533,[],[],[],[],[],[],[],,241.534,241.534,-0.146829811,-0.090656285,0,0,0,,0,31,31,117,1,2,word,MARINE,cursive,marine_c.png,,,,,,
,,,,32270,001,2025-10-28_11h00.45.796,HW_LDT_1,2024.2.4,MacIntel,58.82352941,,,,,,,,,,,,,,,,,,,,,241.535,241.733,241.733,242.233,,,,,,,,,,,,,,0.687,1,,,,,,,,,,,,,,m,,,,,,,,,,,,,,,,33,1,242.234,242.933,m,1,0.687,,[],[],[],[],[],[],[],242.933,244.933,244.933,245.966,[],[],[],[],[],[],[],z,245.967,245.967,-0.146829811,-0.090656285,0,0,0,,0,32,32,141,1,2,word,RELIGION,cursive,religion_c.png,1.02,,,,,
,,,,32270,001,2025-10-28_11h00.45.796,HW_LDT_1,2024.2.4,MacIntel,58.82352941,,,,,,,,,,,,,,,,,,,,,245.968,246.166,246.166,246.666,,,,,,,,,,,,,,1.38,1,,,,,,,,,,,,,,m,,,,,,,,,,,,,,,,34,1,246.666,248.051,m,1,1.38,,[],[],[],[],[],[],[],248.051,250.05,250.05,252.215,[],[],[],[],[],[],[],z,252.215,252.216,-0.146829811,-0.090656285,0,0,0,,0,33,33,112,1,2,word,LIBERAL,print,liberal_p.png,2.154,,,,,
,,,,32270,001,2025-10-28_11h00.45.796,HW_LDT_1,2024.2.4,MacIntel,58.82352941,,,,,,,,,,,,,,,,,,,,,252.217,252.416,252.416,252.916,,,,,,,,,,,,,,0.66,1,,,,,,,,,,,,,,m,,,,,,,,,,,,,,,,35,0,252.917,253.585,m,1,0.66,,[],[],[],[],[],[],[],253.585,255.583,255.584,255.584,[],[],[],[],[],[],[],,255.585,255.585,-0.146829811,-0.090656285,0,0,0,,0,34,34,93,1,2,word,CEREMONY,print,ceremony_p.png,,,,,,
,,,,32270,001,2025-10-28_11h00.45.796,HW_LDT_1,2024.2.4,MacIntel,58.82352941,,,,,,,,,,,,,,,,,,,,,255.587,255.783,255.783,256.283,,,,,,,,,,,,,,0.728,1,,,,,,,,,,,,,,m,,,,,,,,,,,,,,,,36,0,256.284,257.017,m,1,0.728,,[],[],[],[],[],[],[],257.017,259.016,259.016,259.017,[],[],[],[],[],[],[],,259.017,259.017,-0.146829811,-0.090656285,0,0,0,,0,35,35,86,1,2,word,BESIDE,cursive,beside_c.png,,,,,,
,,,,32270,001,2025-10-28_11h00.45.796,HW_LDT_1,2024.2.4,MacIntel,58.82352941,,,,,,,,,,,,,,,,,,,,,259.018,259.216,259.216,259.716,,,,,,,,,,,,,,1.446,0,,,,,,,,,,,,,,m,,,,,,,,,,,,,,,,37,0,259.717,261.167,z,0,1.446,,[],[],[],[],[],[],[],261.167,263.166,263.166,263.167,[],[],[],[],[],[],[],,263.167,263.167,-0.146829811,-0.090656285,0,0,0,,0,36,36,103,1,2,word,DISPUTE,cursive,dispute_c.png,,,,,,
,,,,32270,001,2025-10-28_11h00.45.796,HW_LDT_1,2024.2.4,MacIntel,58.82352941,,,,,,,,,,,,,,,,,,,,,263.168,263.367,263.367,263.866,,,,,,,,,,,,,,0.57,1,,,,,,,,,,,,,,m,,,,,,,,,,,,,,,,38,0,263.867,264.449,m,1,0.57,,[],[],[],[],[],[],[],264.45,266.449,266.449,266.45,[],[],[],[],[],[],[],,266.45,266.45,-0.146829811,-0.090656285,0,0,0,,0,37,37,137,1,2,word,RAPIDLY,print,rapidly_p.png,,,,,,
,,,,32270,001,2025-10-28_11h00.45.796,HW_LDT_1,2024.2.4,MacIntel,58.82352941,,,,,,,,,,,,,,,,,,,,,266.451,266.652,266.652,267.149,,,,,,,,,,,,,,0.911,1,,,,,,,,,,,,,,z,,,,,,,,,,,,,,,,39,0,267.149,268.066,z,1,0.911,,[],[],[],[],[],[],[],268.066,270.066,270.066,270.067,[],[],[],[],[],[],[],,270.067,270.067,-0.146829811,-0.090656285,0,0,0,,0,38,38,38,1,2,TL,atameur,cursive,atameur_c.png,,,,,,
,,,,32270,001,2025-10-28_11h00.45.796,HW_LDT_1,2024.2.4,MacIntel,58.82352941,,,,,,,,,,,,,,,,,,,,,270.068,270.266,270.266,270.766,,,,,,,,,,,,,,0.543,1,,,,,,,,,,,,,,m,,,,,,,,,,,,,,,,40,1,270.766,271.316,m,1,0.543,,[],[],[],[],[],[],[],271.316,273.316,273.316,274.916,[],[],[],[],[],[],[],z,274.916,274.917,-0.146829811,-0.090656285,0,0,0,,0,39,39,89,1,2,word,CAPACITY,print,capacity_p.png,1.594,,,,,
,,,,32270,001,2025-10-28_11h00.45.796,HW_LDT_1,2024.2.4,MacIntel,58.82352941,,,,,,,,,,,,,,,,,,,,,274.917,275.116,275.116,275.616,,,,,,,,,,,,,,0.703,1,,,,,,,,,,,,,,m,,,,,,,,,,,,,,,,41,0,275.617,276.333,m,1,0.703,,[],[],[],[],[],[],[],276.333,278.333,278.333,278.333,[],[],[],[],[],[],[],,278.333,278.334,-0.146829811,-0.090656285,0,0,0,,0,40,40,115,1,2,word,LOGICAL,print,logical_p.png,,,,,,
,,,,32270,001,2025-10-28_11h00.45.796,HW_LDT_1,2024.2.4,MacIntel,58.82352941,,,,,,,,,,,,,,,,,,,,,278.335,278.532,278.532,279.033,,,,,,,,,,,,,,0.646,1,,,,,,,,,,,,,,m,,,,,,,,,,,,,,,,42,0,279.033,279.684,m,1,0.646,,[],[],[],[],[],[],[],279.684,281.683,281.683,281.684,[],[],[],[],[],[],[],,281.684,281.684,-0.146829811,-0.090656285,0,0,0,,0,41,41,151,1,2,word,SPECIFIC,print,specific_p.png,,,,,,
,,,,32270,001,2025-10-28_11h00.45.796,HW_LDT_1,2024.2.4,MacIntel,58.82352941,,,,,,,,,,,,,,,,,,,,,281.685,281.883,281.883,282.383,,,,,,,,,,,,,,0.685,1,,,,,,,,,,,,,,z,,,,,,,,,,,,,,,,43,0,282.384,283.083,z,1,0.685,,[],[],[],[],[],[],[],283.084,285.083,285.083,285.083,[],[],[],[],[],[],[],,285.083,285.083,-0.146829811,-0.090656285,0,0,0,,0,42,42,30,1,2,RL,selamor,print,selamor_p.png,,,,,,
,,,,32270,001,2025-10-28_11h00.45.796,HW_LDT_1,2024.2.4,MacIntel,58.82352941,,,,,,,,,,,,,,,,,,,,,285.084,285.283,285.283,285.783,,,,,,,,,,,,,,0.62,1,,,,,,,,,,,,,,m,,,,,,,,,,,,,,,,44,1,285.783,286.416,m,1,0.62,,[],[],[],[],[],[],[],286.416,288.416,288.416,289.683,[],[],[],[],[],[],[],m,289.683,289.683,-0.146829811,-0.090656285,0,0,0,,0,43,43,83,1,2,word,ANIMAL,print,animal_p.png,1.257,,,,,
,,,,32270,001,2025-10-28_11h00.45.796,HW_LDT_1,2024.2.4,MacIntel,58.82352941,,,,,,,,,,,,,,,,,,,,,289.685,289.884,289.884,290.383,,,,,,,,,,,,,,0.925,0,,,,,,,,,,,,,,m,,,,,,,,,,,,,,,,45,0,290.383,291.316,z,0,0.925,,[],[],[],[],[],[],[],291.316,293.316,293.316,293.316,[],[],[],[],[],[],[],,293.317,293.317,-0.146829811,-0.090656285,0,0,0,,0,44,44,123,1,2,word,MODERATE,cursive,moderate_c.png,,,,,,
,,,,32270,001,2025-10-28_11h00.45.796,HW_LDT_1,2024.2.4,MacIntel,58.82352941,,,,,,,,,,,,,,,,,,,,,293.318,293.516,293.516,294.016,,,,,,,,,,,,,,1.243,0,,,,,,,,,,,,,,m,,,,,,,,,,,,,,,,46,0,294.017,295.266,z,0,1.243,,[],[],[],[],[],[],[],295.266,297.266,297.266,297.266,[],[],[],[],[],[],[],,297.266,297.267,-0.146829811,-0.090656285,0,0,0,,0,45,45,106,1,2,word,ELABORATE,cursive,elaborate_c.png,,,,,,
,,,,32270,001,2025-10-28_11h00.45.796,HW_LDT_1,2024.2.4,MacIntel,58.82352941,,,,,,,,,,,,,,,,,,,,,297.268,297.466,297.466,297.966,,,,,,,,,,,,,,1.022,1,,,,,,,,,,,,,,z,,,,,,,,,,,,,,,,47,0,297.966,299,z,1,1.022,,[],[],[],[],[],[],[],299,300.999,300.999,301,[],[],[],[],[],[],[],,301,301,-0.146829811,-0.090656285,0,0,0,,0,46,46,79,1,2,TL,vadility,print,vadility_p.png,,,,,,
,,,,32270,001,2025-10-28_11h00.45.796,HW_LDT_1,2024.2.4,MacIntel,58.82352941,,,,,,,,,,,,,,,,,,,,,301.001,301.199,301.199,301.699,,,,,,,,,,,,,,1.102,1,,,,,,,,,,,,,,z,,,,,,,,,,,,,,,,48,0,301.7,302.816,z,1,1.102,,[],[],[],[],[],[],[],302.817,304.816,304.816,304.817,[],[],[],[],[],[],[],,304.817,304.817,-0.146829811,-0.090656285,0,0,0,,0,47,47,14,1,2,RL,insibate,cursive,insibate_c.png,,,,,,
,,,,32270,001,2025-10-28_11h00.45.796,HW_LDT_1,2024.2.4,MacIntel,58.82352941,,,,,,,,,,,,,,,,,,,,,304.818,305.018,305.018,305.516,,,,,,,,,,,,,,0.605,1,,,,,,,,,,,,,,m,,,,,,,,,,,,,,,,49,0,305.516,306.133,m,1,0.605,,[],[],[],[],[],[],[],306.133,308.132,308.132,308.133,[],[],[],[],[],[],[],,308.133,308.133,-0.146829811,-0.090656285,0,0,0,,0,48,48,92,1,2,word,CATEGORY,print,category_p.png,,,,,,
,,,,32270,001,2025-10-28_11h00.45.796,HW_LDT_1,2024.2.4,MacIntel,58.82352941,,,,,,,,,,,,,,,,,,,,,308.134,308.333,308.333,308.832,,,,,,,,,,,,,,0.737,1,,,,,,,,,,,,,,z,,,,,,,,,,,,,,,,50,0,308.833,309.583,z,1,0.737,,[],[],[],[],[],[],[],309.583,311.582,311.582,311.582,[],[],[],[],[],[],[],,311.583,311.583,-0.146829811,-0.090656285,0,0,0,,0,49,49,2,1,2,RL,casagity,print,casagity_p.png,,,,,,
,,,,32270,001,2025-10-28_11h00.45.796,HW_LDT_1,2024.2.4,MacIntel,58.82352941,,,,,,,,,,,,,,,,,,,,,311.584,311.783,311.783,312.282,,,,,,,,,,,,,,0.655,1,,,,,,,,,,,,,,m,,,,,,,,,,,,,,,,51,0,312.283,312.949,m,1,0.655,,[],[],[],[],[],[],[],312.95,314.949,314.949,314.949,[],[],[],[],[],[],[],,314.949,314.949,-0.146829811,-0.090656285,0,0,0,,0,50,50,122,1,2,word,MOBILE,print,mobile_p.png,,,,,,
,,,,32270,001,2025-10-28_11h00.45.796,HW_LDT_1,2024.2.4,MacIntel,58.82352941,,,,,,,,,,,,,,,,,,,,,314.95,315.149,315.15,315.649,,,,,,,,,,,,,,0.694,1,,,,,,,,,,,,,,z,,,,,,,,,,,,,,,,52,0,315.65,316.35,z,1,0.694,,[],[],[],[],[],[],[],316.35,318.349,318.349,318.35,[],[],[],[],[],[],[],,318.35,318.35,-0.146829811,-0.090656285,0,0,0,,0,51,51,15,1,2,RL,linedal,print,linedal_p.png,,,,,,
,,,,32270,001,2025-10-28_11h00.45.796,HW_LDT_1,2024.2.4,MacIntel,58.82352941,,,,,,,,,,,,,,,,,,,,,318.351,318.549,318.549,319.048,,,,,,,,,,,,,,0.829,0,,,,,,,,,,,,,,m,,,,,,,,,,,,,,,,53,0,319.049,319.883,z,0,0.829,,[],[],[],[],[],[],[],319.883,321.883,321.883,321.883,[],[],[],[],[],[],[],,321.883,321.883,-0.146829811,-0.090656285,0,0,0,,0,52,52,85,1,2,word,BENEFIT,cursive,benefit_c.png,,,,,,
,,,,32270,001,2025-10-28_11h00.45.796,HW_LDT_1,2024.2.4,MacIntel,58.82352941,,,,,,,,,,,,,,,,,,,,,321.884,322.081,322.081,322.583,,,,,,,,,,,,,,0.907,1,,,,,,,,,,,,,,z,,,,,,,,,,,,,,,,54,0,322.583,323.499,z,1,0.907,,[],[],[],[],[],[],[],323.499,325.499,325.499,325.5,[],[],[],[],[],[],[],,325.5,325.5,-0.146829811,-0.090656285,0,0,0,,0,53,53,75,1,2,TL,ronamtic,print,ronamtic_p.png,,,,,,
,,,,32270,001,2025-10-28_11h00.45.796,HW_LDT_1,2024.2.4,MacIntel,58.82352941,,,,,,,,,,,,,,,,,,,,,325.501,325.699,325.699,326.199,,,,,,,,,,,,,,0.858,1,,,,,,,,,,,,,,z,,,,,,,,,,,,,,,,55,0,326.2,327.058,z,1,0.858,,[],[],[],[],[],[],[],327.059,329.049,329.049,329.05,[],[],[],[],[],[],[],,329.05,329.05,-0.146829811,-0.090656285,0,0,0,,0,54,54,44,1,2,TL,catipal,cursive,catipal_c.png,,,,,,
,,,,32270,001,2025-10-28_11h00.45.796,HW_LDT_1,2024.2.4,MacIntel,58.82352941,,,,,,,,,,,,,,,,,,,,,329.051,329.249,329.249,329.749,,,,,,,,,,,,,,1.739,1,,,,,,,,,,,,,,z,,,,,,,,,,,,,,,,56,0,329.75,331.499,z,1,1.739,,[],[],[],[],[],[],[],331.499,333.499,333.499,333.5,[],[],[],[],[],[],[],,333.5,333.5,-0.146829811,-0.090656285,0,0,0,,0,55,55,12,1,2,RL,gralekul,cursive,gralekul_c.png,,,,,,
,,,,32270,001,2025-10-28_11h00.45.796,HW_LDT_1,2024.2.4,MacIntel,58.82352941,,,,,,,,,,,,,,,,,,,,,333.5,333.699,333.699,334.199,,,,,,,,,,,,,,0.703,1,,,,,,,,,,,,,,z,,,,,,,,,,,,,,,,57,0,334.199,334.916,z,1,0.703,,[],[],[],[],[],[],[],334.916,336.917,336.917,336.918,[],[],[],[],[],[],[],,336.918,336.918,-0.146829811,-0.090656285,0,0,0,,0,56,56,0,1,2,RL,adnicory,print,adnicory_p.png,,,,,,
,,,,32270,001,2025-10-28_11h00.45.796,HW_LDT_1,2024.2.4,MacIntel,58.82352941,,,,,,,,,,,,,,,,,,,,,336.919,337.115,337.115,337.616,,,,,,,,,,,,,,0.519,1,,,,,,,,,,,,,,m,,,,,,,,,,,,,,,,58,0,337.616,338.149,m,1,0.519,,[],[],[],[],[],[],[],338.149,340.149,340.149,340.149,[],[],[],[],[],[],[],,340.15,340.15,-0.146829811,-0.090656285,0,0,0,,0,57,57,147,1,2,word,ROMANTIC,print,romantic_p.png,,,,,,
,,,,32270,001,2025-10-28_11h00.45.796,HW_LDT_1,2024.2.4,MacIntel,58.82352941,,,,,,,,,,,,,,,,,,,,,340.151,340.349,340.349,340.848,,,,,,,,,,,,,,1.136,1,,,,,,,,,,,,,,z,,,,,,,,,,,,,,,,59,0,340.849,342,z,1,1.136,,[],[],[],[],[],[],[],342,343.999,343.999,344,[],[],[],[],[],[],[],,344,344,-0.146829811,-0.090656285,0,0,0,,0,58,58,5,1,2,RL,clisimal,cursive,clisimal_c.png,,,,,,
,,,,32270,001,2025-10-28_11h00.45.796,HW_LDT_1,2024.2.4,MacIntel,58.82352941,,,,,,,,,,,,,,,,,,,,,344.001,344.199,344.199,344.699,,,,,,,,,,,,,,0.637,1,,,,,,,,,,,,,,m,,,,,,,,,,,,,,,,60,0,344.7,345.349,m,1,0.637,,[],[],[],[],[],[],[],345.349,347.349,347.349,347.349,[],[],[],[],[],[],[],,347.349,347.35,-0.146829811,-0.090656285,0,0,0,,0,59,59,129,1,2,word,PARENT,print,parent_p.png,,,,,,
,,,,32270,001,2025-10-28_11h00.45.796,HW_LDT_1,2024.2.4,MacIntel,58.82352941,,,,,,,,,,,,,,,,,,,,,347.351,347.549,347.549,348.05,,,,,,,,,,,,,,0.736,1,,,,,,,,,,,,,,m,,,,,,,,,,,,,,,,61,0,348.051,348.799,m,1,0.736,,[],[],[],[],[],[],[],348.8,350.799,350.799,350.799,[],[],[],[],[],[],[],,350.799,350.8,-0.146829811,-0.090656285,0,0,0,,0,60,60,131,1,2,word,POPULAR,cursive,popular_c.png,,,,,,
,,,,32270,001,2025-10-28_11h00.45.796,HW_LDT_1,2024.2.4,MacIntel,58.82352941,,,,,,,,,,,,,,,,,,,,,350.801,350.999,350.999,351.499,,,,,,,,,,,,,,0.67,1,,,,,,,,,,,,,,m,,,,,,,,,,,,,,,,62,0,351.5,352.182,m,1,0.67,,[],[],[],[],[],[],[],352.183,354.182,354.182,354.183,[],[],[],[],[],[],[],,354.183,354.183,-0.146829811,-0.090656285,0,0,0,,0,61,61,80,1,2,word,ACADEMY,cursive,academy_c.png,,,,,,
,,,,32270,001,2025-10-28_11h00.45.796,HW_LDT_1,2024.2.4,MacIntel,58.82352941,,,,,,,,,,,,,,,,,,,,,354.184,354.382,354.383,354.882,,,,,,,,,,,,,,0.653,1,,,,,,,,,,,,,,z,,,,,,,,,,,,,,,,63,1,354.883,355.549,z,1,0.653,,[],[],[],[],[],[],[],355.55,357.549,357.549,358.883,[],[],[],[],[],[],[],z,358.884,358.885,-0.146829811,-0.090656285,0,0,0,,0,62,62,21,1,2,RL,pamest,print,pamest_p.png,1.322,,,,,
,,,,32270,001,2025-10-28_11h00.45.796,HW_LDT_1,2024.2.4,MacIntel,58.82352941,,,,,,,,,,,,,,,,,,,,,358.886,359.082,359.082,359.582,,,,,,,,,,,,,,1.118,0,,,,,,,,,,,,,,m,,,,,,,,,,,,,,,,64,0,359.583,360.716,z,0,1.118,,[],[],[],[],[],[],[],360.716,362.717,362.717,362.717,[],[],[],[],[],[],[],,362.717,362.718,-0.146829811,-0.090656285,0,0,0,,0,63,63,105,1,2,word,EDITOR,cursive,editor_c.png,,,,,,
,,,,32270,001,2025-10-28_11h00.45.796,HW_LDT_1,2024.2.4,MacIntel,58.82352941,,,,,,,,,,,,,,,,,,,,,362.719,362.916,362.916,363.416,,,,,,,,,,,,,,1.575,1,,,,,,,,,,,,,,z,,,,,,,,,,,,,,,,65,0,363.416,364.999,z,1,1.575,,[],[],[],[],[],[],[],364.999,366.999,366.999,367,[],[],[],[],[],[],[],,367,367,-0.146829811,-0.090656285,0,0,0,,0,64,64,58,1,2,TL,mitilary,cursive,mitilary_c.png,,,,,,
,,,,32270,001,2025-10-28_11h00.45.796,HW_LDT_1,2024.2.4,MacIntel,58.82352941,,,,,,,,,,,,,,,,,,,,,367.001,367.199,367.199,367.699,,,,,,,,,,,,,,0.806,1,,,,,,,,,,,,,,m,,,,,,,,,,,,,,,,66,0,367.699,368.516,m,1,0.806,,[],[],[],[],[],[],[],368.516,370.516,370.516,370.516,[],[],[],[],[],[],[],,370.516,370.516,-0.146829811,-0.090656285,0,0,0,,0,65,65,159,1,2,word,VETERAN,print,veteran_p.png,,,,,,
,,,,32270,001,2025-10-28_11h00.45.796,HW_LDT_1,2024.2.4,MacIntel,58.82352941,,,,,,,,,,,,,,,,,,,,,370.517,370.715,370.715,371.216,,,,,,,,,,,,,,1.035,1,,,,,,,,,,,,,,z,,,,,,,,,,,,,,,,67,1,371.216,372.265,z,1,1.035,,[],[],[],[],[],[],[],372.265,374.266,374.266,375.333,[],[],[],[],[],[],[],z,375.333,375.333,-0.146829811,-0.090656285,0,0,0,,0,66,66,10,1,2,RL,disluge,cursive,disluge_c.png,1.063,,,,,
,,,,32270,001,2025-10-28_11h00.45.796,HW_LDT_1,2024.2.4,MacIntel,58.82352941,,,,,,,,,,,,,,,,,,,,,375.334,375.532,375.532,376.032,,,,,,,,,,,,,,0.691,1,,,,,,,,,,,,,,z,,,,,,,,,,,,,,,,68,0,376.033,376.732,z,1,0.691,,[],[],[],[],[],[],[],376.733,378.731,378.731,378.732,[],[],[],[],[],[],[],,378.732,378.732,-0.146829811,-0.090656285,0,0,0,,0,67,67,4,1,2,RL,cenesony,print,cenesony_p.png,,,,,,
,,,,32270,001,2025-10-28_11h00.45.796,HW_LDT_1,2024.2.4,MacIntel,58.82352941,,,,,,,,,,,,,,,,,,,,,378.733,378.932,378.932,379.432,,,,,,,,,,,,,,0.603,1,,,,,,,,,,,,,,m,,,,,,,,,,,,,,,,69,0,379.433,380.049,m,1,0.603,,[],[],[],[],[],[],[],380.049,382.049,382.049,382.05,[],[],[],[],[],[],[],,382.05,382.05,-0.146829811,-0.090656285,0,0,0,,0,68,68,96,1,2,word,CONSIDER,print,consider_p.png,,,,,,
,,,,32270,001,2025-10-28_11h00.45.796,HW_LDT_1,2024.2.4,MacIntel,58.82352941,,,,,,,,,,,,,,,,,,,,,382.051,382.251,382.251,382.749,,,,,,,,,,,,,,0.9,1,,,,,,,,,,,,,,m,,,,,,,,,,,,,,,,70,0,382.75,383.65,m,1,0.9,,[],[],[],[],[],[],[],383.65,385.649,385.649,385.649,[],[],[],[],[],[],[],,385.65,385.65,-0.146829811,-0.090656285,0,0,0,,0,69,69,143,1,2,word,REMOVAL,print,removal_p.png,,,,,,
,,,,32270,001,2025-10-28_11h00.45.796,HW_LDT_1,2024.2.4,MacIntel,58.82352941,,,,,,,,,,,,,,,,,,,,,385.651,385.85,385.85,386.349,,,,,,,,,,,,,,1.609,0,,,,,,,,,,,,,,m,,,,,,,,,,,,,,,,71,0,386.35,387.966,z,0,1.609,,[],[],[],[],[],[],[],387.966,389.966,389.966,389.966,[],[],[],[],[],[],[],,389.967,389.967,-0.146829811,-0.090656285,0,0,0,,0,70,70,138,1,2,word,REFUSAL,cursive,refusal_c.png,,,,,,
,,,,32270,001,2025-10-28_11h00.45.796,HW_LDT_1,2024.2.4,MacIntel,58.82352941,,,,,,,,,,,,,,,,,,,,,389.968,390.166,390.166,390.666,,,,,,,,,,,,,,1.037,1,,,,,,,,,,,,,,m,,,,,,,,,,,,,,,,72,0,390.666,391.716,m,1,1.037,,[],[],[],[],[],[],[],391.716,393.715,393.715,393.716,[],[],[],[],[],[],[],,393.716,393.716,-0.146829811,-0.090656285,0,0,0,,0,71,71,110,1,2,word,HERITAGE,print,heritage_p.png,,,,,,
,,,,32270,001,2025-10-28_11h00.45.796,HW_LDT_1,2024.2.4,MacIntel,58.82352941,,,,,,,,,,,,,,,,,,,,,393.717,393.915,393.916,394.415,,,,,,,,,,,,,,0.586,1,,,,,,,,,,,,,,m,,,,,,,,,,,,,,,,73,0,394.416,395.016,m,1,0.586,,[],[],[],[],[],[],[],395.016,397.016,397.016,397.016,[],[],[],[],[],[],[],,397.016,397.017,-0.146829811,-0.090656285,0,0,0,,0,72,72,102,1,2,word,DENSITY,print,density_p.png,,,,,,
,,,,32270,001,2025-10-28_11h00.45.796,HW_LDT_1,2024.2.4,MacIntel,58.82352941,,,,,,,,,,,,,,,,,,,,,397.018,397.215,397.216,397.715,,,,,,,,,,,,,,1.369,1,,,,,,,,,,,,,,m,,,,,,,,,,,,,,,,74,0,397.716,399.099,m,1,1.369,,[],[],[],[],[],[],[],399.099,401.099,401.099,401.099,[],[],[],[],[],[],[],,401.099,401.099,-0.146829811,-0.090656285,0,0,0,,0,73,73,145,1,2,word,RESUME,cursive,resume_c.png,,,,,,
,,,,32270,001,2025-10-28_11h00.45.796,HW_LDT_1,2024.2.4,MacIntel,58.82352941,,,,,,,,,,,,,,,,,,,,,401.1,401.299,401.299,401.799,,,,,,,,,,,,,,1.157,1,,,,,,,,,,,,,,z,,,,,,,,,,,,,,,,75,0,401.799,402.968,z,1,1.157,,[],[],[],[],[],[],[],402.968,404.965,404.965,404.966,[],[],[],[],[],[],[],,404.966,404.966,-0.146829811,-0.090656285,0,0,0,,0,74,74,66,1,2,TL,prodive,cursive,prodive_c.png,,,,,,
,,,,32270,001,2025-10-28_11h00.45.796,HW_LDT_1,2024.2.4,MacIntel,58.82352941,,,,,,,,,,,,,,,,,,,,,404.967,405.165,405.166,405.666,,,,,,,,,,,,,,0.511,1,,,,,,,,,,,,,,m,,,,,,,,,,,,,,,,76,1,405.666,406.187,m,1,0.511,,[],[],[],[],[],[],[],406.188,408.182,408.182,409.499,[],[],[],[],[],[],[],z,409.499,409.499,-0.146829811,-0.090656285,0,0,0,,0,75,75,114,1,2,word,LOCATE,print,locate_p.png,1.311,,,,,
,,,,32270,001,2025-10-28_11h00.45.796,HW_LDT_1,2024.2.4,MacIntel,58.82352941,,,,,,,,,,,,,,,,,,,,,409.5,409.698,409.698,410.199,,,,,,,,,,,,,,2.525,0,,,,,,,,,,,,,,m,,,,,,,,,,,,,,,,77,0,410.199,412.732,z,0,2.525,,[],[],[],[],[],[],[],412.732,414.732,414.732,414.733,[],[],[],[],[],[],[],,414.733,414.733,-0.146829811,-0.090656285,0,0,0,,0,76,76,125,1,2,word,OPERATOR,cursive,operator_c.png,,,,,,
,,,,32270,001,2025-10-28_11h00.45.796,HW_LDT_1,2024.2.4,MacIntel,58.82352941,,,,,,,,,,,,,,,,,,,,,414.734,414.933,414.934,415.432,,,,,,,,,,,,,,0.557,1,,,,,,,,,,,,,,m,,,,,,,,,,,,,,,,78,0,415.433,415.999,m,1,0.557,,[],[],[],[],[],[],[],415.999,417.999,417.999,417.999,[],[],[],[],[],[],[],,418,418,-0.146829811,-0.090656285,0,0,0,,0,77,77,144,1,2,word,RESIDENT,print,resident_p.png,,,,,,
,,,,32270,001,2025-10-28_11h00.45.796,HW_LDT_1,2024.2.4,MacIntel,58.82352941,,,,,,,,,,,,,,,,,,,,,418,418.199,418.199,418.699,,,,,,,,,,,,,,1.222,1,,,,,,,,,,,,,,z,,,,,,,,,,,,,,,,79,1,418.699,419.932,z,1,1.222,,[],[],[],[],[],[],[],419.932,421.932,421.932,422.566,[],[],[],[],[],[],[],z,422.566,422.566,-0.146829811,-0.090656285,0,0,0,,0,78,78,20,1,2,RL,onegator,cursive,onegator_c.png,0.627,,,,,
,,,,32270,001,2025-10-28_11h00.45.796,HW_LDT_1,2024.2.4,MacIntel,58.82352941,,,,,,,,,,,,,,,,,,,,,422.567,422.766,422.766,423.265,,,,,,,,,,,,,,1.103,0,,,,,,,,,,,,,,z,,,,,,,,,,,,,,,,80,1,423.265,424.382,m,0,1.103,,[],[],[],[],[],[],[],424.383,426.382,426.382,431.482,[],[],[],[],[],[],[],z,431.482,443.216,-0.146829811,-0.090656285,0,0,0,space,0,79,79,63,1,2,TL,orinigal,print,orinigal_p.png,5.087,,11.708,,,
,,,,32270,001,2025-10-28_11h00.45.796,HW_LDT_1,2024.2.4,MacIntel,58.82352941,,,,,,,,,,,,,,,,,,,,,443.217,443.415,443.415,443.915,,,,,,,,,,,,,,1.593,1,,,,,,,,,,,,,,z,,,,,,,,,,,,,,,,81,0,443.916,445.515,z,1,1.593,,[],[],[],[],[],[],[],445.515,447.515,447.516,447.516,[],[],[],[],[],[],[],,447.516,447.516,-0.146829811,-0.090656285,0,0,0,,0,80,80,41,1,2,TL,befenit,cursive,befenit_c.png,,,,,,
,,,,32270,001,2025-10-28_11h00.45.796,HW_LDT_1,2024.2.4,MacIntel,58.82352941,,,,,,,,,,,,,,,,,,,,,447.517,447.715,447.715,448.215,,,,,,,,,,,,,,1.54,1,,,,,,,,,,,,,,z,,,,,,,,,,,,,,,,82,1,448.216,449.765,z,1,1.54,,[],[],[],[],[],[],[],449.765,451.765,451.765,454.682,[],[],[],[],[],[],[],m,454.683,454.683,-0.146829811,-0.090656285,0,0,0,,0,81,81,50,1,2,TL,donimant,print,donimant_p.png,2.91,,,,,
,,,,32270,001,2025-10-28_11h00.45.796,HW_LDT_1,2024.2.4,MacIntel,58.82352941,,,,,,,,,,,,,,,,,,,,,454.684,454.882,454.882,455.382,,,,,,,,,,,,,,1.286,0,,,,,,,,,,,,,,m,,,,,,,,,,,,,,,,83,0,455.383,456.682,z,0,1.286,,[],[],[],[],[],[],[],456.682,458.682,458.682,458.682,[],[],[],[],[],[],[],,458.682,458.682,-0.146829811,-0.090656285,0,0,0,,0,82,82,142,1,2,word,REMOTE,cursive,remote_c.png,,,,,,
,,,,32270,001,2025-10-28_11h00.45.796,HW_LDT_1,2024.2.4,MacIntel,58.82352941,,,,,,,,,,,,,,,,,,,,,458.683,458.883,458.883,459.382,,,,,,,,,,,,,,2.057,1,,,,,,,,,,,,,,z,,,,,,,,,,,,,,,,84,0,459.383,461.449,z,1,2.057,,[],[],[],[],[],[],[],461.449,463.449,463.449,463.449,[],[],[],[],[],[],[],,463.449,463.449,-0.146829811,-0.090656285,0,0,0,,0,83,83,45,1,2,TL,carnidal,cursive,carnidal_c.png,,,,,,
,,,,32270,001,2025-10-28_11h00.45.796,HW_LDT_1,2024.2.4,MacIntel,58.82352941,,,,,,,,,,,,,,,,,,,,,463.45,463.649,463.649,464.149,,,,,,,,,,,,,,0.958,1,,,,,,,,,,,,,,z,,,,,,,,,,,,,,,,85,0,464.149,465.115,z,1,0.958,,[],[],[],[],[],[],[],465.115,467.115,467.115,467.116,[],[],[],[],[],[],[],,467.116,467.116,-0.146829811,-0.090656285,0,0,0,,0,84,84,22,1,2,RL,posity,print,posity_p.png,,,,,,
,,,,32270,001,2025-10-28_11h00.45.796,HW_LDT_1,2024.2.4,MacIntel,58.82352941,,,,,,,,,,,,,,,,,,,,,467.117,467.315,467.315,467.815,,,,,,,,,,,,,,1.938,1,,,,,,,,,,,,,,m,,,,,,,,,,,,,,,,86,0,467.816,469.766,m,1,1.938,,[],[],[],[],[],[],[],469.766,471.765,471.765,471.767,[],[],[],[],[],[],[],,471.767,471.767,-0.146829811,-0.090656285,0,0,0,,0,85,85,155,1,2,word,STRATEGY,cursive,strategy_c.png,,,,,,
,,,,32270,001,2025-10-28_11h00.45.796,HW_LDT_1,2024.2.4,MacIntel,58.82352941,,,,,,,,,,,,,,,,,,,,,471.769,471.965,471.965,472.465,,,,,,,,,,,,,,1.035,1,,,,,,,,,,,,,,z,,,,,,,,,,,,,,,,87,0,472.466,473.516,z,1,1.035,,[],[],[],[],[],[],[],473.516,475.515,475.515,475.516,[],[],[],[],[],[],[],,475.517,475.517,-0.146829811,-0.090656285,0,0,0,,0,86,86,72,1,2,TL,revomal,print,revomal_p.png,,,,,,
,,,,32270,001,2025-10-28_11h00.45.796,HW_LDT_1,2024.2.4,MacIntel,58.82352941,,,,,,,,,,,,,,,,,,,,,475.518,475.715,475.715,476.218,,,,,,,,,,,,,,1.018,1,,,,,,,,,,,,,,z,,,,,,,,,,,,,,,,88,0,476.218,477.249,z,1,1.018,,[],[],[],[],[],[],[],477.249,479.249,479.249,479.249,[],[],[],[],[],[],[],,479.249,479.249,-0.146829811,-0.090656285,0,0,0,,0,87,87,54,1,2,TL,liretal,cursive,liretal_c.png,,,,,,
,,,,32270,001,2025-10-28_11h00.45.796,HW_LDT_1,2024.2.4,MacIntel,58.82352941,,,,,,,,,,,,,,,,,,,,,479.251,479.448,479.448,479.948,,,,,,,,,,,,,,1.152,1,,,,,,,,,,,,,,m,,,,,,,,,,,,,,,,89,0,479.949,481.116,m,1,1.152,,[],[],[],[],[],[],[],481.116,483.116,483.116,483.116,[],[],[],[],[],[],[],,483.116,483.116,-0.146829811,-0.090656285,0,0,0,,0,88,88,98,1,2,word,CRIMINAL,cursive,criminal_c.png,,,,,,
,,,,32270,001,2025-10-28_11h00.45.796,HW_LDT_1,2024.2.4,MacIntel,58.82352941,,,,,,,,,,,,,,,,,,,,,483.117,483.315,483.315,483.815,,,,,,,,,,,,,,1.485,1,,,,,,,,,,,,,,m,,,,,,,,,,,,,,,,90,0,483.816,485.316,m,1,1.485,,[],[],[],[],[],[],[],485.316,487.315,487.316,487.316,[],[],[],[],[],[],[],,487.316,487.317,-0.146829811,-0.090656285,0,0,0,,0,89,89,84,1,2,word,BELOVED,cursive,beloved_c.png,,,,,,
,,,,32270,001,2025-10-28_11h00.45.796,HW_LDT_1,2024.2.4,MacIntel,58.82352941,,,,,,,,,,,,,,,,,,,,,487.317,487.515,487.515,488.015,,,,,,,,,,,,,,1.387,1,,,,,,,,,,,,,,m,,,,,,,,,,,,,,,,91,0,488.016,489.415,m,1,1.387,,[],[],[],[],[],[],[],489.415,491.415,491.415,491.415,[],[],[],[],[],[],[],,491.415,491.416,-0.146829811,-0.090656285,0,0,0,,0,90,90,152,1,2,word,SPECIMEN,print,specimen_p.png,,,,,,
,,,,32270,001,2025-10-28_11h00.45.796,HW_LDT_1,2024.2.4,MacIntel,58.82352941,,,,,,,,,,,,,,,,,,,,,491.416,491.615,491.615,492.115,,,,,,,,,,,,,,1.354,0,,,,,,,,,,,,,,m,,,,,,,,,,,,,,,,92,0,492.116,493.482,z,0,1.354,,[],[],[],[],[],[],[],493.482,495.482,495.482,495.482,[],[],[],[],[],[],[],,495.482,495.483,-0.146829811,-0.090656285,0,0,0,,0,91,91,113,1,2,word,LITERAL,cursive,literal_c.png,,,,,,
,,,,32270,001,2025-10-28_11h00.45.796,HW_LDT_1,2024.2.4,MacIntel,58.82352941,,,,,,,,,,,,,,,,,,,,,495.483,495.682,495.682,496.182,,,,,,,,,,,,,,2.455,1,,,,,,,,,,,,,,z,,,,,,,,,,,,,,,,93,1,496.183,498.649,z,1,2.455,,[],[],[],[],[],[],[],498.649,500.649,500.649,502.032,[],[],[],[],[],[],[],z,502.033,502.033,-0.146829811,-0.090656285,0,0,0,,0,92,92,62,1,2,TL,opmital,cursive,opmital_c.png,1.375,,,,,
,,,,32270,001,2025-10-28_11h00.45.796,HW_LDT_1,2024.2.4,MacIntel,58.82352941,,,,,,,,,,,,,,,,,,,,,502.034,502.232,502.232,502.732,,,,,,,,,,,,,,1.569,1,,,,,,,,,,,,,,m,,,,,,,,,,,,,,,,94,0,502.733,504.315,m,1,1.569,,[],[],[],[],[],[],[],504.315,506.315,506.315,506.315,[],[],[],[],[],[],[],,506.315,506.316,-0.146829811,-0.090656285,0,0,0,,0,93,93,95,1,2,word,COMEDY,cursive,comedy_c.png,,,,,,
,,,,32270,001,2025-10-28_11h00.45.796,HW_LDT_1,2024.2.4,MacIntel,58.82352941,,,,,,,,,,,,,,,,,,,,,506.317,506.515,506.515,507.015,,,,,,,,,,,,,,1.589,1,,,,,,,,,,,,,,m,,,,,,,,,,,,,,,,95,0,507.015,508.615,m,1,1.589,,[],[],[],[],[],[],[],508.615,510.615,510.615,510.616,[],[],[],[],[],[],[],,510.616,510.616,-0.146829811,-0.090656285,0,0,0,,0,94,94,157,1,2,word,VALIDITY,print,validity_p.png,,,,,,
,,,,32270,001,2025-10-28_11h00.45.796,HW_LDT_1,2024.2.4,MacIntel,58.82352941,,,,,,,,,,,,,,,,,,,,,510.617,510.815,510.815,511.315,,,,,,,,,,,,,,2.294,1,,,,,,,,,,,,,,m,,,,,,,,,,,,,,,,96,0,511.315,513.615,m,1,2.294,,[],[],[],[],[],[],[],513.616,515.615,515.615,515.616,[],[],[],[],[],[],[],,515.616,515.616,-0.146829811,-0.090656285,0,0,0,,0,95,95,124,1,2,word,NUMERICAL,cursive,numerical_c.png,,,,,,
,,,,32270,001,2025-10-28_11h00.45.796,HW_LDT_1,2024.2.4,MacIntel,58.82352941,,,,,,,,,,,,,,,,,,,,,515.617,515.815,515.815,516.315,,,,,,,,,,,,,,1.646,1,,,,,,,,,,,,,,z,,,,,,,,,,,,,,,,97,0,516.316,517.967,z,1,1.646,,[],[],[],[],[],[],[],517.967,519.966,519.966,519.966,[],[],[],[],[],[],[],,519.966,519.966,-0.146829811,-0.090656285,0,0,0,,0,96,96,3,1,2,RL,capefory,print,capefory_p.png,,,,,,
,,,,32270,001,2025-10-28_11h00.45.796,HW_LDT_1,2024.2.4,MacIntel,58.82352941,,,,,,,,,,,,,,,,,,,,,519.967,520.166,520.166,520.665,,,,,,,,,,,,,,1.163,1,,,,,,,,,,,,,,m,,,,,,,,,,,,,,,,98,0,520.665,521.833,m,1,1.163,,[],[],[],[],[],[],[],521.833,523.832,523.832,523.832,[],[],[],[],[],[],[],,523.832,523.833,-0.146829811,-0.090656285,0,0,0,,0,97,97,101,1,2,word,DELICATE,print,delicate_p.png,,,,,,
,,,,32270,001,2025-10-28_11h00.45.796,HW_LDT_1,2024.2.4,MacIntel,58.82352941,,,,,,,,,,,,,,,,,,,,,523.833,524.031,524.031,524.532,,,,,,,,,,,,,,3.94,1,,,,,,,,,,,,,,z,,,,,,,,,,,,,,,,99,0,524.532,528.482,z,1,3.94,,[],[],[],[],[],[],[],528.482,530.485,530.485,530.485,[],[],[],[],[],[],[],,530.485,530.485,-0.146829811,-0.090656285,0,0,0,,0,98,98,67,1,2,TL,quafily,cursive,quafily_c.png,,,,,,
,,,,32270,001,2025-10-28_11h00.45.796,HW_LDT_1,2024.2.4,MacIntel,58.82352941,,,,,,,,,,,,,,,,,,,,,530.486,530.682,530.682,531.182,,,,,,,,,,,,,,1.253,1,,,,,,,,,,,,,,z,,,,,,,,,,,,,,,,100,0,531.182,532.449,z,1,1.253,,[],[],[],[],[],[],[],532.449,534.448,534.448,534.449,[],[],[],[],[],[],[],,534.449,534.449,-0.146829811,-0.090656285,0,0,0,,0,99,99,26,1,2,RL,retupar,cursive,retupar_c.png,,,,,,
,,,,32270,001,2025-10-28_11h00.45.796,HW_LDT_1,2024.2.4,MacIntel,58.82352941,,,,,,,,,,,,,,,,,,,,,534.45,534.648,534.648,535.148,,,,,,,,,,,,,,1.241,1,,,,,,,,,,,,,,z,,,,,,,,,,,,,,,,101,0,535.149,536.399,z,1,1.241,,[],[],[],[],[],[],[],536.399,538.398,538.399,538.399,[],[],[],[],[],[],[],,538.399,538.399,-0.146829811,-0.090656285,0,0,0,,0,100,100,32,1,2,RL,speniven,print,speniven_p.png,,,,,,
,,,,32270,001,2025-10-28_11h00.45.796,HW_LDT_1,2024.2.4,MacIntel,58.82352941,,,,,,,,,,,,,,,,,,,,,538.4,538.598,538.598,539.098,,,,,,,,,,,,,,1.243,1,,,,,,,,,,,,,,m,,,,,,,,,,,,,,,,102,0,539.099,540.348,m,1,1.243,,[],[],[],[],[],[],[],540.348,542.348,542.348,542.349,[],[],[],[],[],[],[],,542.349,542.349,-0.146829811,-0.090656285,0,0,0,,0,101,101,158,1,2,word,VELOCITY,print,velocity_p.png,,,,,,
,,,,32270,001,2025-10-28_11h00.45.796,HW_LDT_1,2024.2.4,MacIntel,58.82352941,,,,,,,,,,,,,,,,,,,,,542.35,542.548,542.548,543.048,,,,,,,,,,,,,,0.903,1,,,,,,,,,,,,,,z,,,,,,,,,,,,,,,,103,0,543.049,543.965,z,1,0.903,,[],[],[],[],[],[],[],543.965,545.964,545.964,545.964,[],[],[],[],[],[],[],,545.964,545.965,-0.146829811,-0.090656285,0,0,0,,0,102,102,8,1,2,RL,desifate,print,desifate_p.png,,,,,,
,,,,32270,001,2025-10-28_11h00.45.796,HW_LDT_1,2024.2.4,MacIntel,58.82352941,,,,,,,,,,,,,,,,,,,,,545.966,546.165,546.165,546.665,,,,,,,,,,,,,,1.177,1,,,,,,,,,,,,,,m,,,,,,,,,,,,,,,,104,0,546.665,547.848,m,1,1.177,,[],[],[],[],[],[],[],547.848,549.848,549.848,549.849,[],[],[],[],[],[],[],,549.849,549.849,-0.146829811,-0.090656285,0,0,0,,0,103,103,104,1,2,word,DOMINANT,print,dominant_p.png,,,,,,
,,,,32270,001,2025-10-28_11h00.45.796,HW_LDT_1,2024.2.4,MacIntel,58.82352941,,,,,,,,,,,,,,,,,,,,,549.85,550.048,550.049,550.548,,,,,,,,,,,,,,1.171,1,,,,,,,,,,,,,,z,,,,,,,,,,,,,,,,105,0,550.549,551.732,z,1,1.171,,[],[],[],[],[],[],[],551.732,553.731,553.731,553.732,[],[],[],[],[],[],[],,553.732,553.732,-0.146829811,-0.090656285,0,0,0,,0,104,104,43,1,2,TL,carema,print,carema_p.png,,,,,,
,,,,32270,001,2025-10-28_11h00.45.796,HW_LDT_1,2024.2.4,MacIntel,58.82352941,,,,,,,,,,,,,,,,,,,,,553.733,553.931,553.931,554.431,,,,,,,,,,,,,,1.312,1,,,,,,,,,,,,,,m,,,,,,,,,,,,,,,,106,0,554.432,555.749,m,1,1.312,,[],[],[],[],[],[],[],555.749,557.748,557.748,557.749,[],[],[],[],[],[],[],,557.749,557.749,-0.146829811,-0.090656285,0,0,0,,0,105,105,82,1,2,word,AMATEUR,cursive,amateur_c.png,,,,,,
,,,,32270,001,2025-10-28_11h00.45.796,HW_LDT_1,2024.2.4,MacIntel,58.82352941,,,,,,,,,,,,,,,,,,,,,557.75,557.948,557.948,558.448,,,,,,,,,,,,,,2.012,1,,,,,,,,,,,,,,z,,,,,,,,,,,,,,,,107,1,558.449,560.466,z,1,2.012,,[],[],[],[],[],[],[],560.466,562.465,562.465,563.882,[],[],[],[],[],[],[],z,563.882,563.882,-0.146829811,-0.090656285,0,0,0,,0,106,106,65,1,2,TL,polupar,cursive,polupar_c.png,1.405,,,,,
,,,,32270,001,2025-10-28_11h00.45.796,HW_LDT_1,2024.2.4,MacIntel,58.82352941,,,,,,,,,,,,,,,,,,,,,563.883,564.082,564.082,564.581,,,,,,,,,,,,,,1.588,1,,,,,,,,,,,,,,z,,,,,,,,,,,,,,,,108,0,564.581,566.182,z,1,1.588,,[],[],[],[],[],[],[],566.182,568.181,568.181,568.182,[],[],[],[],[],[],[],,568.182,568.182,-0.146829811,-0.090656285,0,0,0,,0,107,107,76,1,2,TL,senmitent,cursive,senmitent_c.png,,,,,,
,,,,32270,001,2025-10-28_11h00.45.796,HW_LDT_1,2024.2.4,MacIntel,58.82352941,,,,,,,,,,,,,,,,,,,,,568.183,568.381,568.381,568.881,,,,,,,,,,,,,,1.094,1,,,,,,,,,,,,,,z,,,,,,,,,,,,,,,,109,0,568.882,569.982,z,1,1.094,,[],[],[],[],[],[],[],569.982,571.981,571.981,571.982,[],[],[],[],[],[],[],,571.982,571.982,-0.146829811,-0.090656285,0,0,0,,0,108,108,73,1,2,TL,redisent,print,redisent_p.png,,,,,,
,,,,32270,001,2025-10-28_11h00.45.796,HW_LDT_1,2024.2.4,MacIntel,58.82352941,,,,,,,,,,,,,,,,,,,,,571.983,572.18,572.181,572.681,,,,,,,,,,,,,,1.245,1,,,,,,,,,,,,,,m,,,,,,,,,,,,,,,,110,0,572.682,573.932,m,1,1.245,,[],[],[],[],[],[],[],573.932,575.931,575.931,575.932,[],[],[],[],[],[],[],,575.932,575.932,-0.146829811,-0.090656285,0,0,0,,0,109,109,87,1,2,word,CAFETERIA,print,cafeteria_p.png,,,,,,
,,,,32270,001,2025-10-28_11h00.45.796,HW_LDT_1,2024.2.4,MacIntel,58.82352941,,,,,,,,,,,,,,,,,,,,,575.933,576.131,576.131,576.632,,,,,,,,,,,,,,0.993,1,,,,,,,,,,,,,,z,,,,,,,,,,,,,,,,111,0,576.632,577.631,z,1,0.993,,[],[],[],[],[],[],[],577.632,579.631,579.631,579.632,[],[],[],[],[],[],[],,579.632,579.633,-0.146829811,-0.090656285,0,0,0,,0,110,110,71,1,2,TL,retome,cursive,retome_c.png,,,,,,
,,,,32270,001,2025-10-28_11h00.45.796,HW_LDT_1,2024.2.4,MacIntel,58.82352941,,,,,,,,,,,,,,,,,,,,,579.633,579.831,579.831,580.331,,,,,,,,,,,,,,1.51,1,,,,,,,,,,,,,,z,,,,,,,,,,,,,,,,112,0,580.332,581.85,z,1,1.51,,[],[],[],[],[],[],[],581.85,583.848,583.848,583.849,[],[],[],[],[],[],[],,583.849,583.849,-0.146829811,-0.090656285,0,0,0,,0,111,111,46,1,2,TL,codemy,cursive,codemy_c.png,,,,,,
,,,,32270,001,2025-10-28_11h00.45.796,HW_LDT_1,2024.2.4,MacIntel,58.82352941,,,,,,,,,,,,,,,,,,,,,583.85,584.047,584.047,584.548,,,,,,,,,,,,,,1.187,1,,,,,,,,,,,,,,z,,,,,,,,,,,,,,,,113,0,584.549,585.748,z,1,1.187,,[],[],[],[],[],[],[],585.748,587.748,587.748,587.749,[],[],[],[],[],[],[],,587.749,587.749,-0.146829811,-0.090656285,0,0,0,,0,112,112,42,1,2,TL,bedise,cursive,bedise_c.png,,,,,,
,,,,32270,001,2025-10-28_11h00.45.796,HW_LDT_1,2024.2.4,MacIntel,58.82352941,,,,,,,,,,,,,,,,,,,,,587.75,587.948,587.948,588.448,,,,,,,,,,,,,,0.777,1,,,,,,,,,,,,,,z,,,,,,,,,,,,,,,,114,0,588.449,589.231,z,1,0.777,,[],[],[],[],[],[],[],589.231,591.231,591.231,591.232,[],[],[],[],[],[],[],,591.232,591.232,-0.146829811,-0.090656285,0,0,0,,0,113,113,18,1,2,RL,mesibine,print,mesibine_p.png,,,,,,
,,,,32270,001,2025-10-28_11h00.45.796,HW_LDT_1,2024.2.4,MacIntel,58.82352941,,,,,,,,,,,,,,,,,,,,,591.233,591.431,591.432,591.931,,,,,,,,,,,,,,1.126,0,,,,,,,,,,,,,,z,,,,,,,,,,,,,,,,115,0,591.932,593.065,m,0,1.126,,[],[],[],[],[],[],[],593.065,595.065,595.065,595.065,[],[],[],[],[],[],[],,595.066,595.066,-0.146829811,-0.090656285,0,0,0,,0,114,114,47,1,2,TL,crinimal,cursive,crinimal_c.png,,,,,,
,,,,32270,001,2025-10-28_11h00.45.796,HW_LDT_1,2024.2.4,MacIntel,58.82352941,,,,,,,,,,,,,,,,,,,,,595.067,595.265,595.265,595.764,,,,,,,,,,,,,,1.72,1,,,,,,,,,,,,,,z,,,,,,,,,,,,,,,,116,0,595.765,597.498,z,1,1.72,,[],[],[],[],[],[],[],597.498,599.498,599.498,599.499,[],[],[],[],[],[],[],,599.499,599.499,-0.146829811,-0.090656285,0,0,0,,0,115,115,28,1,2,RL,revune,cursive,revune_c.png,,,,,,
,,,,32270,001,2025-10-28_11h00.45.796,HW_LDT_1,2024.2.4,MacIntel,58.82352941,,,,,,,,,,,,,,,,,,,,,599.5,599.698,599.698,600.198,,,,,,,,,,,,,,0.78,1,,,,,,,,,,,,,,m,,,,,,,,,,,,,,,,117,0,600.198,600.983,m,1,0.78,,[],[],[],[],[],[],[],600.983,602.981,602.982,602.982,[],[],[],[],[],[],[],,602.982,602.983,-0.146829811,-0.090656285,0,0,0,,0,116,116,153,1,2,word,STOLEN,print,stolen_p.png,,,,,,
,,,,32270,001,2025-10-28_11h00.45.796,HW_LDT_1,2024.2.4,MacIntel,58.82352941,,,,,,,,,,,,,,,,,,,,,602.984,603.181,603.181,603.681,,,,,,,,,,,,,,1.04,1,,,,,,,,,,,,,,m,,,,,,,,,,,,,,,,118,1,603.682,604.732,m,1,1.04,,[],[],[],[],[],[],[],604.732,606.731,606.731,607.982,[],[],[],[],[],[],[],z,607.982,607.982,-0.146829811,-0.090656285,0,0,0,,0,117,117,94,1,2,word,CLINICAL,cursive,clinical_c.png,1.238,,,,,
,,,,32270,001,2025-10-28_11h00.45.796,HW_LDT_1,2024.2.4,MacIntel,58.82352941,,,,,,,,,,,,,,,,,,,,,607.983,608.181,608.181,608.681,,,,,,,,,,,,,,1.38,1,,,,,,,,,,,,,,m,,,,,,,,,,,,,,,,119,0,608.682,610.07,m,1,1.38,,[],[],[],[],[],[],[],610.071,612.065,612.065,612.065,[],[],[],[],[],[],[],,612.065,612.066,-0.146829811,-0.090656285,0,0,0,,0,118,118,148,1,2,word,SALINE,cursive,saline_c.png,,,,,,
,,,,32270,001,2025-10-28_11h00.45.796,HW_LDT_1,2024.2.4,MacIntel,58.82352941,,,,,,,,,,,,,,,,,,,,,612.066,612.264,612.265,612.764,,,,,,,,,,,,,,0.839,1,,,,,,,,,,,,,,m,,,,,,,,,,,,,,,,120,1,612.765,613.615,m,1,0.839,,[],[],[],[],[],[],[],613.615,615.615,615.615,617.033,[],[],[],[],[],[],[],z,617.033,617.033,-0.146829811,-0.090656285,0,0,0,,0,119,119,118,1,2,word,MEDICINE,print,medicine_p.png,1.414,,,,,
,,,,32270,001,2025-10-28_11h00.45.796,HW_LDT_1,2024.2.4,MacIntel,58.82352941,,,,,,,,,,,,,,,,,,,,,617.034,617.231,617.231,617.731,,,,,,,,,,,,,,1.76,1,,,,,,,,,,,,,,z,,,,,,,,,,,,,,,,121,1,617.732,619.498,z,1,1.76,,[],[],[],[],[],[],[],619.498,621.498,621.498,622.748,[],[],[],[],[],[],[],z,622.748,622.748,-0.146829811,-0.090656285,0,0,0,,0,120,120,27,1,2,RL,repifion,cursive,repifion_c.png,1.237,,,,,
,,,,32270,001,2025-10-28_11h00.45.796,HW_LDT_1,2024.2.4,MacIntel,58.82352941,,,,,,,,,,,,,,,,,,,,,622.749,622.95,622.95,623.448,,,,,,,,,,,,,,0.92,0,,,,,,,,,,,,,,m,,,,,,,,,,,,,,,,122,0,623.448,624.381,z,0,0.92,,[],[],[],[],[],[],[],624.382,626.381,626.381,626.382,[],[],[],[],[],[],[],,626.382,626.382,-0.146829811,-0.090656285,0,0,0,,0,121,121,146,1,2,word,RETIRE,cursive,retire_c.png,,,,,,
,,,,32270,001,2025-10-28_11h00.45.796,HW_LDT_1,2024.2.4,MacIntel,58.82352941,,,,,,,,,,,,,,,,,,,,,626.383,626.581,626.582,627.081,,,,,,,,,,,,,,0.722,1,,,,,,,,,,,,,,z,,,,,,,,,,,,,,,,123,0,627.082,627.814,z,1,0.722,,[],[],[],[],[],[],[],627.815,629.813,629.813,629.814,[],[],[],[],[],[],[],,629.814,629.814,-0.146829811,-0.090656285,0,0,0,,0,122,122,55,1,2,TL,lotace,print,lotace_p.png,,,,,,
,,,,32270,001,2025-10-28_11h00.45.796,HW_LDT_1,2024.2.4,MacIntel,58.82352941,,,,,,,,,,,,,,,,,,,,,629.816,630.014,630.014,630.515,,,,,,,,,,,,,,1.304,1,,,,,,,,,,,,,,z,,,,,,,,,,,,,,,,124,0,630.515,631.832,z,1,1.304,,[],[],[],[],[],[],[],631.832,633.831,633.831,633.832,[],[],[],[],[],[],[],,633.833,633.833,-0.146829811,-0.090656285,0,0,0,,0,123,123,36,1,2,RL,vecelan,print,vecelan_p.png,,,,,,
,,,,32270,001,2025-10-28_11h00.45.796,HW_LDT_1,2024.2.4,MacIntel,58.82352941,,,,,,,,,,,,,,,,,,,,,633.834,634.031,634.031,634.531,,,,,,,,,,,,,,1.325,1,,,,,,,,,,,,,,m,,,,,,,,,,,,,,,,125,0,634.532,635.865,m,1,1.325,,[],[],[],[],[],[],[],635.865,637.864,637.865,637.865,[],[],[],[],[],[],[],,637.865,637.866,-0.146829811,-0.090656285,0,0,0,,0,124,124,97,1,2,word,COVERAGE,cursive,coverage_c.png,,,,,,
,,,,32270,001,2025-10-28_11h00.45.796,HW_LDT_1,2024.2.4,MacIntel,58.82352941,,,,,,,,,,,,,,,,,,,,,637.867,638.064,638.065,638.565,,,,,,,,,,,,,,0.872,1,,,,,,,,,,,,,,z,,,,,,,,,,,,,,,,126,1,638.565,639.449,z,1,0.872,,[],[],[],[],[],[],[],639.449,641.448,641.448,642.381,[],[],[],[],[],[],[],z,642.381,642.382,-0.146829811,-0.090656285,0,0,0,,0,125,125,51,1,2,TL,etidor,cursive,etidor_c.png,0.921,,,,,
,,,,32270,001,2025-10-28_11h00.45.796,HW_LDT_1,2024.2.4,MacIntel,58.82352941,,,,,,,,,,,,,,,,,,,,,642.383,642.581,642.581,643.081,,,,,,,,,,,,,,2.337,1,,,,,,,,,,,,,,m,,,,,,,,,,,,,,,,127,0,643.082,645.432,m,1,2.337,,[],[],[],[],[],[],[],645.432,647.431,647.431,647.432,[],[],[],[],[],[],[],,647.432,647.432,-0.146829811,-0.090656285,0,0,0,,0,126,126,119,1,2,word,MEMORY,cursive,memory_c.png,,,,,,
,,,,32270,001,2025-10-28_11h00.45.796,HW_LDT_1,2024.2.4,MacIntel,58.82352941,,,,,,,,,,,,,,,,,,,,,647.433,647.631,647.631,648.131,,,,,,,,,,,,,,0.786,1,,,,,,,,,,,,,,z,,,,,,,,,,,,,,,,128,0,648.132,648.931,z,1,0.786,,[],[],[],[],[],[],[],648.931,650.931,650.931,650.931,[],[],[],[],[],[],[],,650.931,650.932,-0.146829811,-0.090656285,0,0,0,,0,127,127,35,1,2,RL,vesofity,print,vesofity_p.png,,,,,,
,,,,32270,001,2025-10-28_11h00.45.796,HW_LDT_1,2024.2.4,MacIntel,58.82352941,,,,,,,,,,,,,,,,,,,,,650.932,651.131,651.131,651.631,,,,,,,,,,,,,,1.18,1,,,,,,,,,,,,,,m,,,,,,,,,,,,,,,,129,0,651.632,652.816,m,1,1.18,,[],[],[],[],[],[],[],652.816,654.814,654.815,654.815,[],[],[],[],[],[],[],,654.815,654.815,-0.146829811,-0.090656285,0,0,0,,0,128,128,130,1,2,word,POLICY,print,policy_p.png,,,,,,
,,,,32270,001,2025-10-28_11h00.45.796,HW_LDT_1,2024.2.4,MacIntel,58.82352941,,,,,,,,,,,,,,,,,,,,,654.816,655.014,655.015,655.514,,,,,,,,,,,,,,0.755,1,,,,,,,,,,,,,,m,,,,,,,,,,,,,,,,130,1,655.515,656.282,m,1,0.755,,[],[],[],[],[],[],[],656.282,658.281,658.281,659.981,[],[],[],[],[],[],[],z,659.982,659.982,-0.146829811,-0.090656285,0,0,0,,0,129,129,140,1,2,word,RELATIVE,print,relative_p.png,1.695,,,,,
,,,,32270,001,2025-10-28_11h00.45.796,HW_LDT_1,2024.2.4,MacIntel,58.82352941,,,,,,,,,,,,,,,,,,,,,659.983,660.181,660.181,660.68,,,,,,,,,,,,,,0.863,1,,,,,,,,,,,,,,z,,,,,,,,,,,,,,,,131,0,660.681,661.548,z,1,0.863,,[],[],[],[],[],[],[],661.548,663.548,663.548,663.549,[],[],[],[],[],[],[],,663.549,663.549,-0.146829811,-0.090656285,0,0,0,,0,130,130,70,1,2,TL,retalive,print,retalive_p.png,,,,,,
,,,,32270,001,2025-10-28_11h00.45.796,HW_LDT_1,2024.2.4,MacIntel,58.82352941,,,,,,,,,,,,,,,,,,,,,663.551,663.748,663.748,664.248,,,,,,,,,,,,,,0.739,1,,,,,,,,,,,,,,z,,,,,,,,,,,,,,,,132,1,664.249,664.997,z,1,0.739,,[],[],[],[],[],[],[],664.998,666.998,666.998,667.998,[],[],[],[],[],[],[],m,667.998,667.998,-0.146829811,-0.090656285,0,0,0,,0,131,131,11,1,2,RL,formuke,print,formuke_p.png,0.99,,,,,
,,,,32270,001,2025-10-28_11h00.45.796,HW_LDT_1,2024.2.4,MacIntel,58.82352941,,,,,,,,,,,,,,,,,,,,,667.999,668.198,668.198,668.697,,,,,,,,,,,,,,1.57,1,,,,,,,,,,,,,,m,,,,,,,,,,,,,,,,133,0,668.698,670.28,m,1,1.57,,[],[],[],[],[],[],[],670.28,672.281,672.281,672.281,[],[],[],[],[],[],[],,672.281,672.281,-0.146829811,-0.090656285,0,0,0,,0,132,132,133,1,2,word,PROVIDE,cursive,provide_c.png,,,,,,
,,,,32270,001,2025-10-28_11h00.45.796,HW_LDT_1,2024.2.4,MacIntel,58.82352941,,,,,,,,,,,,,,,,,,,,,672.282,672.481,672.481,672.981,,,,,,,,,,,,,,1.57,1,,,,,,,,,,,,,,m,,,,,,,,,,,,,,,,134,0,672.982,674.567,m,1,1.57,,[],[],[],[],[],[],[],674.567,676.564,676.565,676.565,[],[],[],[],[],[],[],,676.565,676.565,-0.146829811,-0.090656285,0,0,0,,0,133,133,135,1,2,word,QUALITY,cursive,quality_c.png,,,,,,
,,,,32270,001,2025-10-28_11h00.45.796,HW_LDT_1,2024.2.4,MacIntel,58.82352941,,,,,,,,,,,,,,,,,,,,,676.566,676.765,676.765,677.265,,,,,,,,,,,,,,0.96,1,,,,,,,,,,,,,,m,,,,,,,,,,,,,,,,135,0,677.265,678.231,m,1,0.96,,[],[],[],[],[],[],[],678.231,680.231,680.231,680.231,[],[],[],[],[],[],[],,680.231,680.232,-0.146829811,-0.090656285,0,0,0,,0,134,134,107,1,2,word,EVIDENT,cursive,evident_c.png,,,,,,
,,,,32270,001,2025-10-28_11h00.45.796,HW_LDT_1,2024.2.4,MacIntel,58.82352941,,,,,,,,,,,,,,,,,,,,,680.233,680.431,680.431,680.931,,,,,,,,,,,,,,1.07,1,,,,,,,,,,,,,,z,,,,,,,,,,,,,,,,136,1,680.931,682.015,z,1,1.07,,[],[],[],[],[],[],[],682.015,684.014,684.014,685.013,[],[],[],[],[],[],[],z,685.013,685.014,-0.146829811,-0.090656285,0,0,0,,0,135,135,7,1,2,RL,cocewage,cursive,cocewage_c.png,0.991,,,,,
,,,,32270,001,2025-10-28_11h00.45.796,HW_LDT_1,2024.2.4,MacIntel,58.82352941,,,,,,,,,,,,,,,,,,,,,685.015,685.214,685.214,685.713,,,,,,,,,,,,,,1.755,1,,,,,,,,,,,,,,z,,,,,,,,,,,,,,,,137,1,685.714,687.483,z,1,1.755,,[],[],[],[],[],[],[],687.483,689.481,689.481,691.881,[],[],[],[],[],[],[],m,691.881,691.881,-0.146829811,-0.090656285,0,0,0,,0,136,136,48,1,2,TL,detabe,print,detabe_p.png,2.39,,,,,
,,,,32270,001,2025-10-28_11h00.45.796,HW_LDT_1,2024.2.4,MacIntel,58.82352941,,,,,,,,,,,,,,,,,,,,,691.882,692.081,692.081,692.58,,,,,,,,,,,,,,0.958,1,,,,,,,,,,,,,,m,,,,,,,,,,,,,,,,138,0,692.581,693.548,m,1,0.958,,[],[],[],[],[],[],[],693.548,695.548,695.548,695.548,[],[],[],[],[],[],[],,695.548,695.548,-0.146829811,-0.090656285,0,0,0,,0,137,137,81,1,2,word,ADVISORY,print,advisory_p.png,,,,,,
,,,,32270,001,2025-10-28_11h00.45.796,HW_LDT_1,2024.2.4,MacIntel,58.82352941,,,,,,,,,,,,,,,,,,,,,695.549,695.747,695.748,696.247,,,,,,,,,,,,,,1.39,1,,,,,,,,,,,,,,m,,,,,,,,,,,,,,,,139,0,696.248,697.648,m,1,1.39,,[],[],[],[],[],[],[],697.648,699.647,699.647,699.648,[],[],[],[],[],[],[],,699.648,699.648,-0.146829811,-0.090656285,0,0,0,,0,138,138,150,1,2,word,SENTIMENT,cursive,sentiment_c.png,,,,,,
,,,,32270,001,2025-10-28_11h00.45.796,HW_LDT_1,2024.2.4,MacIntel,58.82352941,,,,,,,,,,,,,,,,,,,,,699.649,699.847,699.848,700.347,,,,,,,,,,,,,,1.089,1,,,,,,,,,,,,,,m,,,,,,,,,,,,,,,,140,0,700.348,701.448,m,1,1.089,,[],[],[],[],[],[],[],701.448,703.447,703.447,703.448,[],[],[],[],[],[],[],,703.448,703.448,-0.146829811,-0.090656285,0,0,0,,0,139,139,108,1,2,word,FORTUNE,print,fortune_p.png,,,,,,
,,,,32270,001,2025-10-28_11h00.45.796,HW_LDT_1,2024.2.4,MacIntel,58.82352941,,,,,,,,,,,,,,,,,,,,,703.449,703.648,703.648,704.147,,,,,,,,,,,,,,2.07,1,,,,,,,,,,,,,,z,,,,,,,,,,,,,,,,141,0,704.148,706.231,z,1,2.07,,[],[],[],[],[],[],[],706.231,708.231,708.231,708.231,[],[],[],[],[],[],[],,708.231,708.232,-0.146829811,-0.090656285,0,0,0,,0,140,140,37,1,2,TL,adacemy,cursive,adacemy_c.png,,,,,,
,,,,32270,001,2025-10-28_11h00.45.796,HW_LDT_1,2024.2.4,MacIntel,58.82352941,,,,,,,,,,,,,,,,,,,,,708.233,708.431,708.431,708.931,,,,,,,,,,,,,,1.093,1,,,,,,,,,,,,,,m,,,,,,,,,,,,,,,,142,0,708.931,710.031,m,1,1.093,,[],[],[],[],[],[],[],710.031,712.031,712.031,712.031,[],[],[],[],[],[],[],,712.031,712.032,-0.146829811,-0.090656285,0,0,0,,0,141,141,132,1,2,word,PROPOSAL,cursive,proposal_c.png,,,,,,
,,,,32270,001,2025-10-28_11h00.45.796,HW_LDT_1,2024.2.4,MacIntel,58.82352941,,,,,,,,,,,,,,,,,,,,,712.033,712.231,712.231,712.731,,,,,,,,,,,,,,3.036,1,,,,,,,,,,,,,,z,,,,,,,,,,,,,,,,143,0,712.731,715.781,z,1,3.036,,[],[],[],[],[],[],[],715.781,717.781,717.781,717.781,[],[],[],[],[],[],[],,717.781,717.782,-0.146829811,-0.090656285,0,0,0,,0,142,142,61,1,2,TL,nuremical,cursive,nuremical_c.png,,,,,,
,,,,32270,001,2025-10-28_11h00.45.796,HW_LDT_1,2024.2.4,MacIntel,58.82352941,,,,,,,,,,,,,,,,,,,,,717.783,717.981,717.981,718.481,,,,,,,,,,,,,,1.574,1,,,,,,,,,,,,,,z,,,,,,,,,,,,,,,,144,0,718.481,720.064,z,1,1.574,,[],[],[],[],[],[],[],720.064,722.064,722.064,722.064,[],[],[],[],[],[],[],,722.065,722.065,-0.146829811,-0.090656285,0,0,0,,0,143,143,78,1,2,TL,stogare,print,stogare_p.png,,,,,,
,,,,32270,001,2025-10-28_11h00.45.796,HW_LDT_1,2024.2.4,MacIntel,58.82352941,,,,,,,,,,,,,,,,,,,,,722.066,722.264,722.264,722.764,,,,,,,,,,,,,,1.67,1,,,,,,,,,,,,,,z,,,,,,,,,,,,,,,,145,1,722.765,724.447,z,1,1.67,,[],[],[],[],[],[],[],724.448,726.447,726.447,727.381,[],[],[],[],[],[],[],m,727.381,727.381,-0.146829811,-0.090656285,0,0,0,,0,144,144,13,1,2,RL,helicage,print,helicage_p.png,0.92,,,,,
,,,,32270,001,2025-10-28_11h00.45.796,HW_LDT_1,2024.2.4,MacIntel,58.82352941,,,,,,,,,,,,,,,,,,,,,727.382,727.581,727.581,728.08,,,,,,,,,,,,,,2.49,1,,,,,,,,,,,,,,z,,,,,,,,,,,,,,,,146,0,728.08,730.581,z,1,2.49,,[],[],[],[],[],[],[],730.581,732.581,732.581,732.581,[],[],[],[],[],[],[],,732.581,732.582,-0.146829811,-0.090656285,0,0,0,,0,145,145,24,1,2,RL,rasibal,cursive,rasibal_c.png,,,,,,
,,,,32270,001,2025-10-28_11h00.45.796,HW_LDT_1,2024.2.4,MacIntel,58.82352941,,,,,,,,,,,,,,,,,,,,,732.583,732.781,732.781,733.28,,,,,,,,,,,,,,0.911,1,,,,,,,,,,,,,,z,,,,,,,,,,,,,,,,147,0,733.281,734.197,z,1,0.911,,[],[],[],[],[],[],[],734.198,736.197,736.197,736.198,[],[],[],[],[],[],[],,736.198,736.198,-0.146829811,-0.090656285,0,0,0,,0,146,146,31,1,2,RL,spetisic,print,spetisic_p.png,,,,,,
,,,,32270,001,2025-10-28_11h00.45.796,HW_LDT_1,2024.2.4,MacIntel,58.82352941,,,,,,,,,,,,,,,,,,,,,736.199,736.397,736.397,736.897,,,,,,,,,,,,,,1.02,0,,,,,,,,,,,,,,m,,,,,,,,,,,,,,,,148,0,736.898,737.931,z,0,1.02,,[],[],[],[],[],[],[],737.931,739.93,739.93,739.93,[],[],[],[],[],[],[],,739.93,739.93,-0.146829811,-0.090656285,0,0,0,,0,147,147,90,1,2,word,CAPITAL,cursive,capital_c.png,,,,,,
,,,,32270,001,2025-10-28_11h00.45.796,HW_LDT_1,2024.2.4,MacIntel,58.82352941,,,,,,,,,,,,,,,,,,,,,739.932,740.131,740.131,740.631,,,,,,,,,,,,,,1.053,1,,,,,,,,,,,,,,z,,,,,,,,,,,,,,,,149,0,740.631,741.697,z,1,1.053,,[],[],[],[],[],[],[],741.697,743.697,743.697,743.698,[],[],[],[],[],[],[],,743.698,743.698,-0.146829811,-0.090656285,0,0,0,,0,148,148,17,1,2,RL,macise,cursive,macise_c.png,,,,,,
,,,,32270,001,2025-10-28_11h00.45.796,HW_LDT_1,2024.2.4,MacIntel,58.82352941,,,,,,,,,,,,,,,,,,,,,743.699,743.897,743.897,744.398,,,,,,,,,,,,,,0.703,1,,,,,,,,,,,,,,m,,,,,,,,,,,,,,,,150,0,744.398,745.114,m,1,0.703,,[],[],[],[],[],[],[],745.114,747.114,747.114,747.115,[],[],[],[],[],[],[],,747.115,747.115,-0.146829811,-0.090656285,0,0,0,,0,149,149,154,1,2,word,STORAGE,print,storage_p.png,,,,,,
,,,,32270,001,2025-10-28_11h00.45.796,HW_LDT_1,2024.2.4,MacIntel,58.82352941,,,,,,,,,,,,,,,,,,,,,747.116,747.314,747.314,747.814,,,,,,,,,,,,,,2.725,0,,,,,,,,,,,,,,m,,,,,,,,,,,,,,,,151,0,747.815,750.547,z,0,2.725,,[],[],[],[],[],[],[],750.547,752.547,752.547,752.548,[],[],[],[],[],[],[],,752.548,752.548,-0.146829811,-0.090656285,0,0,0,,0,150,150,121,1,2,word,MISTAKE,cursive,mistake_c.png,,,,,,
,,,,32270,001,2025-10-28_11h00.45.796,HW_LDT_1,2024.2.4,MacIntel,58.82352941,,,,,,,,,,,,,,,,,,,,,752.549,752.747,752.747,753.247,,,,,,,,,,,,,,0.942,1,,,,,,,,,,,,,,z,,,,,,,,,,,,,,,,152,0,753.248,754.197,z,1,0.942,,[],[],[],[],[],[],[],754.198,756.197,756.197,756.198,[],[],[],[],[],[],[],,756.198,756.198,-0.146829811,-0.090656285,0,0,0,,0,151,151,6,1,2,RL,conbicer,print,conbicer_p.png,,,,,,
,,,,32270,001,2025-10-28_11h00.45.796,HW_LDT_1,2024.2.4,MacIntel,58.82352941,,,,,,,,,,,,,,,,,,,,,756.199,756.397,756.397,756.897,,,,,,,,,,,,,,1.343,1,,,,,,,,,,,,,,z,,,,,,,,,,,,,,,,153,0,756.898,758.247,z,1,1.343,,[],[],[],[],[],[],[],758.247,760.247,760.247,760.248,[],[],[],[],[],[],[],,760.248,760.248,-0.146829811,-0.090656285,0,0,0,,0,152,152,33,1,2,RL,strapely,cursive,strapely_c.png,,,,,,
,,,,32270,001,2025-10-28_11h00.45.796,HW_LDT_1,2024.2.4,MacIntel,58.82352941,,,,,,,,,,,,,,,,,,,,,760.249,760.447,760.447,760.948,,,,,,,,,,,,,,0.874,1,,,,,,,,,,,,,,z,,,,,,,,,,,,,,,,154,0,760.948,761.831,z,1,0.874,,[],[],[],[],[],[],[],761.831,763.831,763.831,763.831,[],[],[],[],[],[],[],,763.831,763.831,-0.146829811,-0.090656285,0,0,0,,0,153,153,23,1,2,RL,procogal,cursive,procogal_c.png,,,,,,
,,,,32270,001,2025-10-28_11h00.45.796,HW_LDT_1,2024.2.4,MacIntel,58.82352941,,,,,,,,,,,,,,,,,,,,,763.832,764.03,764.03,764.53,,,,,,,,,,,,,,1.109,1,,,,,,,,,,,,,,z,,,,,,,,,,,,,,,,155,0,764.531,765.647,z,1,1.109,,[],[],[],[],[],[],[],765.648,767.647,767.647,767.648,[],[],[],[],[],[],[],,767.648,767.648,-0.146829811,-0.090656285,0,0,0,,0,154,154,1,1,2,RL,caleberia,print,caleberia_p.png,,,,,,
,,,,32270,001,2025-10-28_11h00.45.796,HW_LDT_1,2024.2.4,MacIntel,58.82352941,,,,,,,,,,,,,,,,,,,,,767.648,767.847,767.847,768.347,,,,,,,,,,,,,,1.273,1,,,,,,,,,,,,,,m,,,,,,,,,,,,,,,,156,0,768.348,769.631,m,1,1.273,,[],[],[],[],[],[],[],769.631,771.63,771.63,771.631,[],[],[],[],[],[],[],,771.631,771.632,-0.146829811,-0.090656285,0,0,0,,0,155,155,116,1,2,word,MARGINAL,cursive,marginal_c.png,,,,,,
,,,,32270,001,2025-10-28_11h00.45.796,HW_LDT_1,2024.2.4,MacIntel,58.82352941,,,,,,,,,,,,,,,,,,,,,771.633,771.83,771.83,772.331,,,,,,,,,,,,,,1.352,1,,,,,,,,,,,,,,z,,,,,,,,,,,,,,,,157,0,772.331,773.696,z,1,1.352,,[],[],[],[],[],[],[],773.696,775.697,775.697,775.698,[],[],[],[],[],[],[],,775.698,775.698,-0.146829811,-0.090656285,0,0,0,,0,156,156,59,1,2,TL,miskate,cursive,miskate_c.png,,,,,,
,,,,32270,001,2025-10-28_11h00.45.796,HW_LDT_1,2024.2.4,MacIntel,58.82352941,,,,,,,,,,,,,,,,,,,,,775.699,775.897,775.897,776.397,,,,,,,,,,,,,,1.053,1,,,,,,,,,,,,,,m,,,,,,,,,,,,,,,,158,0,776.398,777.464,m,1,1.053,,[],[],[],[],[],[],[],777.464,779.464,779.464,779.464,[],[],[],[],[],[],[],,779.464,779.465,-0.146829811,-0.090656285,0,0,0,,0,157,157,156,1,2,word,TRIBUTE,cursive,tribute_c.png,,,,,,
,,,,32270,001,2025-10-28_11h00.45.796,HW_LDT_1,2024.2.4,MacIntel,58.82352941,,,,,,,,,,,,,,,,,,,,,779.465,779.664,779.664,780.164,,,,,,,,,,,,,,1.279,1,,,,,,,,,,,,,,z,,,,,,,,,,,,,,,,159,0,780.164,781.448,z,1,1.279,,[],[],[],[],[],[],[],781.448,783.447,783.447,783.448,[],[],[],[],[],[],[],,783.448,783.448,-0.146829811,-0.090656285,0,0,0,,0,158,158,74,1,2,TL,rerite,cursive,rerite_c.png,,,,,,
,,,,32270,001,2025-10-28_11h00.45.796,HW_LDT_1,2024.2.4,MacIntel,58.82352941,,,,,,,,,,,,,,,,,,,,,783.449,783.647,783.647,784.147,,,,,,,,,,,,,,0.987,1,,,,,,,,,,,,,,z,,,,,,,,,,,,,,,,160,0,784.148,785.147,z,1,0.987,,[],[],[],[],[],[],[],785.147,787.147,787.147,787.148,[],[],[],[],[],[],[],,787.148,787.148,-0.146829811,-0.090656285,0,0,0,,0,159,159,9,1,2,RL,denficy,print,denficy_p.png,,,,,,
,,,,32270,001,2025-10-28_11h00.45.796,HW_LDT_1,2024.2.4,MacIntel,58.82352941,,,,,,,,,,,,,,,,,,,,,,,,,,,,,,,,,,,,,,,,,,,,,,,,,,,,,,,,,,,,,,,,,,,,,,,,,,,,,,,,,,,,,,,,,,,,,,,,,,,,,,,,,,,,,,,,,,,,,,787.158,792.148
