counterbalance_lists.group,counterbalance_lists.remaining,get_list.started,get_list.stopped,participant,session,date,expName,psychopyVersion,OS,frameRate,Instructions.started,Instructions.stopped,key_resp.keys,key_resp.rt,key_resp.duration,instr_done_touch.x,instr_done_touch.y,instr_done_touch.leftButton,instr_done_touch.midButton,instr_done_touch.rightButton,start_instr.thisRepN,start_instr.thisTrialN,start_instr.thisN,start_instr.thisIndex,start_instr.ran,pageN,phase,instruct_text,has_image,instruct_image,showProgress.started,showProgress.stopped,fix.started,fix.stopped,prac.started,prac.stopped,response.keys,response.corr,response.rt,response.duration,touch_resp.x,touch_resp.y,touch_resp.leftButton,touch_resp.midButton,touch_resp.rightButton,touch_resp.time,touch_resp.clicked_name,rt,corr,feedback.started,feedback.stopped,trials.thisRepN,trials.thisTrialN,trials.thisN,trials.thisIndex,trials.ran,TrialID,StimulusType,Condition,PrimeDuration,Prime,Target,corrAns,Instructions_expt.started,Instructions_expt.stopped,key_resp_3.keys,key_resp_3.rt,key_resp_3.duration,instr_done_touch_3.x,instr_done_touch_3.y,instr_done_touch_3.leftButton,instr_done_touch_3.midButton,instr_done_touch_3.rightButton,instr_experiment.thisRepN,instr_experiment.thisTrialN,instr_experiment.thisN,instr_experiment.thisIndex,instr_experiment.ran,trialID,flag,maintask.started,maintask.stopped,key_resp_2.keys,key_resp_2.corr,key_resp_2.rt,key_resp_2.duration,targ_click.x,targ_click.y,targ_click.leftButton,targ_click.midButton,targ_click.rightButton,targ_click.time,targ_click.clicked_name,ITI.started,ITI.stopped,probe.started,probe.stopped,click_probe.x,click_probe.y,click_probe.leftButton,click_probe.midButton,click_probe.rightButton,click_probe.time,click_probe.clicked_name,key_resp_probe.keys,key_resp_probe.rt,key_resp_probe.duration,Break.started,Break.stopped,break_done_touch.x,break_done_touch.y,break_done_touch.leftButton,break_done_touch.midButton,break_done_touch.rightButton,break_done_keyboard.keys,list4_trials.thisRepN,list4_trials.thisTrialN,list4_trials.thisN,list4_trials.thisIndex,list4_trials.ran,list_id,item_type,string,font,stim_file,break_done_keyboard.rt,break_done_keyboard.duration,End.started,End.stopped
list4,,0.4967,0.4967,32271,001,2025-10-19_16h54.22.032,HW_LDT_1,2024.2.4,MacIntel,59.88023952,,,,,,,,,,,,,,,,,,,,,,,,,,,,,,,,,,,,,,,,,,,,,,,,,,,,,,,,,,,,,,,,,,,,,,,,,,,,,,,,,,,,,,,,,,,,,,,,,,,,,,,,,,,,,,,,,,,,,,,
,,,,32271,001,2025-10-19_16h54.22.032,HW_LDT_1,2024.2.4,MacIntel,59.88023952,0.5114,2.8587,space,2.3126,,0.049861111,-0.444900174,0,0,0,0,0,0,0,1,1,instructions,"INSTRUCTIONS
At the start of each trial, look at the plus sign  (+) in the center of the screen.  This tells you that a trial is about to begin and where to look. Second, the plus sign will disappear and a string of letters will appear. Your task is to determine if the string of letters is a word or not. If the item is a word press the M key (on keyboard)  or touch the word button (phone/tablet).  If the item is not a word,  press the  Z key (on keyboard)  or touch the nonword button (on phone/tablet). The items will be presented for a short time. 
Press the space bar or touch  continue.",0,,,,,,,,,,,,,,,,,,,,,,,,,,,,,,,,,,,,,,,,,,,,,,,,,,,,,,,,,,,,,,,,,,,,,,,,,,,,,,,,,,,,,,,,,,,,,,,,,,,,
,,,,32271,001,2025-10-19_16h54.22.032,HW_LDT_1,2024.2.4,MacIntel,59.88023952,2.8607,10.5412,space,7.6597,,0.049861111,-0.444900174,0,0,0,0,1,1,1,1,2,instructions,"If your device has a keyboard, press the 'Z' key for nonwords and the 'M' key for words.





Press the space bar or touch the button below to continue.",0,keyboard-example.gif,,,,,,,,,,,,,,,,,,,,,,,,,,,,,,,,,,,,,,,,,,,,,,,,,,,,,,,,,,,,,,,,,,,,,,,,,,,,,,,,,,,,,,,,,,,,,,,,,,,
,,,,32271,001,2025-10-19_16h54.22.032,HW_LDT_1,2024.2.4,MacIntel,59.88023952,10.5433,20.6904,space,10.1228,,0.049861111,-0.444900174,0,0,0,0,2,2,2,1,3,instructions,"If you are using a touchscreen only device, use the buttons on the screen. Do not use the mouse.





Press the space bar or touch the button below to continue.",0,touchscreen-example.gif,,,,,,,,,,,,,,,,,,,,,,,,,,,,,,,,,,,,,,,,,,,,,,,,,,,,,,,,,,,,,,,,,,,,,,,,,,,,,,,,,,,,,,,,,,,,,,,,,,,
,,,,32271,001,2025-10-19_16h54.22.032,HW_LDT_1,2024.2.4,MacIntel,59.88023952,20.6924,29.0412,space,8.3238,,0.049861111,-0.444900174,0,0,0,0,3,3,3,1,4,instructions,"It is very important that you respond as quickly and accurately as possible, as each letter string will only be on the screen for two seconds. If you do not respond within this time, the message 'Too slow!' will be displayed and the experiment will progress to the next letter string. The first 20 trials will be practice trials and you will receive feedback on your answers. 

Press the space bar or touch the button below to start the practice trials.",0,,,,,,,,,,,,,,,,,,,,,,,,,,,,,,,,,,,,,,,,,,,,,,,,,,,,,,,,,,,,,,,,,,,,,,,,,,,,,,,,,,,,,,,,,,,,,,,,,,,,
,,,,32271,001,2025-10-19_16h54.22.032,HW_LDT_1,2024.2.4,MacIntel,59.88023952,,,,,,,,,,,,,,,,,,,,,29.0698,29.241,29.2413,29.741,29.7412,34.5245,m,1,4.7553,,[],[],[],[],[],[],[],4.7553,1,34.5249,35.0245,0,0,0,6,1,1007,WORD,UN,16,tropic,ZOMBIE,m,,,,,,,,,,,,,,,,,,,,,,,,,,,,,,,,,,,,,,,,,,,,,,,,,,,,,,,,,,,,,,,,,,
,,,,32271,001,2025-10-19_16h54.22.032,HW_LDT_1,2024.2.4,MacIntel,59.88023952,,,,,,,,,,,,,,,,,,,,,35.0256,35.2237,35.2238,35.7238,35.7247,36.9899,z,1,1.2454,,[],[],[],[],[],[],[],1.2454,1,36.9899,37.4911,0,1,1,15,1,1016,NW,UN,16,mushed,WHAISE,z,,,,,,,,,,,,,,,,,,,,,,,,,,,,,,,,,,,,,,,,,,,,,,,,,,,,,,,,,,,,,,,,,,
,,,,32271,001,2025-10-19_16h54.22.032,HW_LDT_1,2024.2.4,MacIntel,59.88023952,,,,,,,,,,,,,,,,,,,,,37.4925,37.6902,37.6903,38.1907,38.1911,39.0743,z,1,0.8665,,[],[],[],[],[],[],[],0.8665,1,39.0744,39.5744,0,2,2,14,1,1015,NW,UN,16,miaber,THRALE,z,,,,,,,,,,,,,,,,,,,,,,,,,,,,,,,,,,,,,,,,,,,,,,,,,,,,,,,,,,,,,,,,,,
,,,,32271,001,2025-10-19_16h54.22.032,HW_LDT_1,2024.2.4,MacIntel,59.88023952,,,,,,,,,,,,,,,,,,,,,39.5756,39.7744,39.7744,40.2746,40.2761,41.1569,m,1,0.861,,[],[],[],[],[],[],[],0.861,1,41.1571,41.6577,0,3,3,7,1,1008,WORD,UN,16,hurdle,VOLUME,m,,,,,,,,,,,,,,,,,,,,,,,,,,,,,,,,,,,,,,,,,,,,,,,,,,,,,,,,,,,,,,,,,,
,,,,32271,001,2025-10-19_16h54.22.032,HW_LDT_1,2024.2.4,MacIntel,59.88023952,,,,,,,,,,,,,,,,,,,,,41.6591,41.8577,41.8579,42.3576,42.3585,43.7578,m,1,1.3787,,[],[],[],[],[],[],[],1.3787,1,43.7579,44.2577,0,4,4,1,1,1002,WORD,"ID",33,adjust,ADJUST,m,,,,,,,,,,,,,,,,,,,,,,,,,,,,,,,,,,,,,,,,,,,,,,,,,,,,,,,,,,,,,,,,,,
,,,,32271,001,2025-10-19_16h54.22.032,HW_LDT_1,2024.2.4,MacIntel,59.88023952,,,,,,,,,,,,,,,,,,,,,44.2589,44.4567,44.4568,44.9578,44.9589,45.8577,m,1,0.877,,[],[],[],[],[],[],[],0.877,1,45.8579,46.3578,0,5,5,5,1,1006,WORD,UN,33,frenzy,OBTAIN,m,,,,,,,,,,,,,,,,,,,,,,,,,,,,,,,,,,,,,,,,,,,,,,,,,,,,,,,,,,,,,,,,,,
,,,,32271,001,2025-10-19_16h54.22.032,HW_LDT_1,2024.2.4,MacIntel,59.88023952,,,,,,,,,,,,,,,,,,,,,46.3591,46.5577,46.5578,47.0576,47.0585,47.9747,z,1,0.8957,,[],[],[],[],[],[],[],0.8957,1,47.9749,48.4743,0,6,6,10,1,1011,NW,"ID",16,inlade,INLADE,z,,,,,,,,,,,,,,,,,,,,,,,,,,,,,,,,,,,,,,,,,,,,,,,,,,,,,,,,,,,,,,,,,,
,,,,32271,001,2025-10-19_16h54.22.032,HW_LDT_1,2024.2.4,MacIntel,59.88023952,,,,,,,,,,,,,,,,,,,,,48.4757,48.6744,48.6745,49.1744,49.1752,50.0239,z,1,0.8309,,[],[],[],[],[],[],[],0.8309,1,50.024,50.5244,0,7,7,8,1,1009,NW,"ID",33,aslert,ASLERT,z,,,,,,,,,,,,,,,,,,,,,,,,,,,,,,,,,,,,,,,,,,,,,,,,,,,,,,,,,,,,,,,,,,
,,,,32271,001,2025-10-19_16h54.22.032,HW_LDT_1,2024.2.4,MacIntel,59.88023952,,,,,,,,,,,,,,,,,,,,,50.5257,50.7241,50.7242,51.2233,51.2242,51.9911,m,1,0.7458,,[],[],[],[],[],[],[],0.7458,1,51.9911,52.4911,0,8,8,3,1,1004,WORD,"ID",16,matrix,MATRIX,m,,,,,,,,,,,,,,,,,,,,,,,,,,,,,,,,,,,,,,,,,,,,,,,,,,,,,,,,,,,,,,,,,,
,,,,32271,001,2025-10-19_16h54.22.032,HW_LDT_1,2024.2.4,MacIntel,59.88023952,,,,,,,,,,,,,,,,,,,,,52.4921,52.6909,52.6909,53.1909,53.1916,53.9748,m,1,0.7629,,[],[],[],[],[],[],[],0.7629,1,53.9749,54.4744,0,9,9,2,1,1003,WORD,"ID",16,almond,ALMOND,m,,,,,,,,,,,,,,,,,,,,,,,,,,,,,,,,,,,,,,,,,,,,,,,,,,,,,,,,,,,,,,,,,,
,,,,32271,001,2025-10-19_16h54.22.032,HW_LDT_1,2024.2.4,MacIntel,59.88023952,,,,,,,,,,,,,,,,,,,,,54.4757,54.6745,54.6745,55.1744,55.1752,57.691,z,1,2.4948,,[],[],[],[],[],[],[],2.4948,1,57.6911,58.191,0,10,10,13,1,1014,NW,UN,33,winfer,ROUPET,z,,,,,,,,,,,,,,,,,,,,,,,,,,,,,,,,,,,,,,,,,,,,,,,,,,,,,,,,,,,,,,,,,,
,,,,32271,001,2025-10-19_16h54.22.032,HW_LDT_1,2024.2.4,MacIntel,59.88023952,,,,,,,,,,,,,,,,,,,,,58.1921,58.3911,58.3912,58.89,58.8908,61.9411,z,1,3.03,,[],[],[],[],[],[],[],3.03,1,61.9411,62.4411,0,11,11,11,1,1012,NW,"ID",16,rashet,RASHET,z,,,,,,,,,,,,,,,,,,,,,,,,,,,,,,,,,,,,,,,,,,,,,,,,,,,,,,,,,,,,,,,,,,
,,,,32271,001,2025-10-19_16h54.22.032,HW_LDT_1,2024.2.4,MacIntel,59.88023952,,,,,,,,,,,,,,,,,,,,,62.4423,62.6409,62.641,63.1411,63.1418,63.9578,m,1,0.7953,,[],[],[],[],[],[],[],0.7953,1,63.9578,64.4578,0,12,12,0,1,1001,WORD,"ID",33,utopia,UTOPIA,m,,,,,,,,,,,,,,,,,,,,,,,,,,,,,,,,,,,,,,,,,,,,,,,,,,,,,,,,,,,,,,,,,,
,,,,32271,001,2025-10-19_16h54.22.032,HW_LDT_1,2024.2.4,MacIntel,59.88023952,,,,,,,,,,,,,,,,,,,,,64.4589,64.6577,64.6577,65.1576,65.1585,65.9411,z,1,0.7611,,[],[],[],[],[],[],[],0.7611,1,65.9411,66.4412,0,13,13,12,1,1013,NW,UN,33,adveil,SPRINY,z,,,,,,,,,,,,,,,,,,,,,,,,,,,,,,,,,,,,,,,,,,,,,,,,,,,,,,,,,,,,,,,,,,
,,,,32271,001,2025-10-19_16h54.22.032,HW_LDT_1,2024.2.4,MacIntel,59.88023952,,,,,,,,,,,,,,,,,,,,,66.4423,66.641,66.6411,67.1407,67.141,67.9911,m,1,0.8373,,[],[],[],[],[],[],[],0.8373,1,67.9912,68.491,0,14,14,4,1,1005,WORD,UN,33,abound,SQUEAK,m,,,,,,,,,,,,,,,,,,,,,,,,,,,,,,,,,,,,,,,,,,,,,,,,,,,,,,,,,,,,,,,,,,
,,,,32271,001,2025-10-19_16h54.22.032,HW_LDT_1,2024.2.4,MacIntel,59.88023952,,,,,,,,,,,,,,,,,,,,,68.4922,68.691,68.6911,69.1905,69.1913,70.3405,z,1,1.1292,,[],[],[],[],[],[],[],1.1292,1,70.3405,70.841,0,15,15,9,1,1010,NW,"ID",33,fariny,FARINY,z,,,,,,,,,,,,,,,,,,,,,,,,,,,,,,,,,,,,,,,,,,,,,,,,,,,,,,,,,,,,,,,,,,
,,,,32271,001,2025-10-19_16h54.22.032,HW_LDT_1,2024.2.4,MacIntel,59.88023952,,,,,,,,,,,,,,,,1,end_of_practice,"You have completed the practice trials. During the experimental trials, you will not receive feedback. On some trials you will be asked to report whether the item you just saw was in cursive or print. 
Before you begin, please ensure that you are in a comfortable and quiet location and will not be disturbed for about 15 minutes, as we cannot use your data if you do not complete all the trials. 
 When you are ready to start the experimental trials, please press space or touch the button below.",,,,,,,,,,,,,,,,,,,,,,,,,,,,,,,,,,,,70.8487,97.8419,space,26.9644,,0.040507812,-0.453229167,0,0,0,0,0,0,0,1,,,,,,,,,,,,,,,,,,,,,,,,,,,,,,,,,,,,,,,,,,,,,,,,,,,
,,,,32271,001,2025-10-19_16h54.22.032,HW_LDT_1,2024.2.4,MacIntel,59.88023952,,,,,,,,,,,,,,,,,,,,,97.8617,98.0412,98.0414,98.5412,,,,,,,,,,,,,,2.2005,1,,,,,,,,,,,,,,m,,,,,,,,,,,,,,,,1,1,98.5425,100.7584,m,1,2.2005,,[],[],[],[],[],[],[],100.7586,102.7582,102.7585,107.8583,[],[],[],[],[],[],[],z,5.0853,,107.8585,107.8619,0.040507812,-0.453229167,0,0,0,,0,0,0,82,1,4,word,AMATEUR,cursive,amateur_c.png,,,,
,,,,32271,001,2025-10-19_16h54.22.032,HW_LDT_1,2024.2.4,MacIntel,59.88023952,,,,,,,,,,,,,,,,,,,,,107.863,108.0579,108.058,108.5579,,,,,,,,,,,,,,2.491,1,,,,,,,,,,,,,,m,,,,,,,,,,,,,,,,2,0,108.5584,111.0579,m,1,2.491,,[],[],[],[],[],[],[],111.058,113.0569,113.057,113.0572,[],[],[],[],[],[],[],,,,113.0573,113.0573,0.040507812,-0.453229167,0,0,0,,0,1,1,125,1,4,word,OPERATOR,print,operator_p.png,,,,
,,,,32271,001,2025-10-19_16h54.22.032,HW_LDT_1,2024.2.4,MacIntel,59.88023952,,,,,,,,,,,,,,,,,,,,,113.0584,113.2579,113.258,113.7579,,,,,,,,,,,,,,0.9859,1,,,,,,,,,,,,,,z,,,,,,,,,,,,,,,,3,0,113.7585,114.7572,z,1,0.9859,,[],[],[],[],[],[],[],114.7573,116.758,116.7581,116.7583,[],[],[],[],[],[],[],,,,116.7583,116.7585,0.040507812,-0.453229167,0,0,0,,0,2,2,70,1,4,TL,quatily,print,quatily_p.png,,,,
,,,,32271,001,2025-10-19_16h54.22.032,HW_LDT_1,2024.2.4,MacIntel,59.88023952,,,,,,,,,,,,,,,,,,,,,116.7597,116.9577,116.9577,117.4577,,,,,,,,,,,,,,2.4246,1,,,,,,,,,,,,,,z,,,,,,,,,,,,,,,,4,0,117.4582,119.8913,z,1,2.4246,,[],[],[],[],[],[],[],119.8913,121.8913,121.8914,121.8916,[],[],[],[],[],[],[],,,,121.8917,121.8918,0.040507812,-0.453229167,0,0,0,,0,3,3,42,1,4,RL,revune,print,revune_p.png,,,,
,,,,32271,001,2025-10-19_16h54.22.032,HW_LDT_1,2024.2.4,MacIntel,59.88023952,,,,,,,,,,,,,,,,,,,,,121.8931,122.0903,122.0904,122.5913,,,,,,,,,,,,,,7.8528,1,,,,,,,,,,,,,,z,,,,,,,,,,,,,,,,5,0,122.5918,130.458,z,1,7.8528,,[],[],[],[],[],[],[],130.458,132.458,132.458,132.4582,[],[],[],[],[],[],[],,,,132.4583,132.4584,0.040507812,-0.453229167,0,0,0,,0,4,4,55,1,4,TL,corevage,cursive,corevage_c.png,,,,
,,,,32271,001,2025-10-19_16h54.22.032,HW_LDT_1,2024.2.4,MacIntel,59.88023952,,,,,,,,,,,,,,,,,,,,,132.4595,132.6579,132.658,133.1579,,,,,,,,,,,,,,7.7363,1,,,,,,,,,,,,,,z,,,,,,,,,,,,,,,,6,0,133.1583,140.907,z,1,7.7363,,[],[],[],[],[],[],[],140.9071,142.9082,142.9083,142.9087,[],[],[],[],[],[],[],,,,142.9087,142.9089,0.040507812,-0.453229167,0,0,0,,0,5,5,72,1,4,TL,relugar,cursive,relugar_c.png,,,,
,,,,32271,001,2025-10-19_16h54.22.032,HW_LDT_1,2024.2.4,MacIntel,59.88023952,,,,,,,,,,,,,,,,,,,,,142.9103,143.1077,143.1077,143.6081,,,,,,,,,,,,,,5.3875,1,,,,,,,,,,,,,,z,,,,,,,,,,,,,,,,7,0,143.609,149.0082,z,1,5.3875,,[],[],[],[],[],[],[],149.0083,151.0079,151.008,151.0083,[],[],[],[],[],[],[],,,,151.0083,151.0085,0.040507812,-0.453229167,0,0,0,,0,6,6,41,1,4,RL,rebicent,cursive,rebicent_c.png,,,,
,,,,32271,001,2025-10-19_16h54.22.032,HW_LDT_1,2024.2.4,MacIntel,59.88023952,,,,,,,,,,,,,,,,,,,,,151.0101,151.208,151.2081,151.7081,,,,,,,,,,,,,,4.3693,1,,,,,,,,,,,,,,z,,,,,,,,,,,,,,,,8,1,151.7086,156.0914,z,1,4.3693,,[],[],[],[],[],[],[],156.0916,158.0904,158.0905,159.9238,[],[],[],[],[],[],[],z,1.8211,,159.9239,159.924,0.040507812,-0.453229167,0,0,0,,0,7,7,19,1,4,RL,elacodate,cursive,elacodate_c.png,,,,
,,,,32271,001,2025-10-19_16h54.22.032,HW_LDT_1,2024.2.4,MacIntel,59.88023952,,,,,,,,,,,,,,,,,,,,,159.925,160.1245,160.1245,160.6246,,,,,,,,,,,,,,1.003,1,,,,,,,,,,,,,,m,,,,,,,,,,,,,,,,9,0,160.6251,161.6405,m,1,1.003,,[],[],[],[],[],[],[],161.6405,163.6412,163.6412,163.6414,[],[],[],[],[],[],[],,,,163.6414,163.6414,0.040507812,-0.453229167,0,0,0,,0,8,8,93,1,4,word,CEREMONY,print,ceremony_p.png,,,,
,,,,32271,001,2025-10-19_16h54.22.032,HW_LDT_1,2024.2.4,MacIntel,59.88023952,,,,,,,,,,,,,,,,,,,,,163.6421,163.8414,163.8415,164.3411,,,,,,,,,,,,,,1.0195,1,,,,,,,,,,,,,,m,,,,,,,,,,,,,,,,10,0,164.3413,165.3738,m,1,1.0195,,[],[],[],[],[],[],[],165.3739,167.3744,167.3745,167.3748,[],[],[],[],[],[],[],,,,167.3748,167.375,0.040507812,-0.453229167,0,0,0,,0,9,9,135,1,4,word,QUALITY,print,quality_p.png,,,,
,,,,32271,001,2025-10-19_16h54.22.032,HW_LDT_1,2024.2.4,MacIntel,59.88023952,,,,,,,,,,,,,,,,,,,,,167.3766,167.5748,167.5749,168.0749,,,,,,,,,,,,,,0.6188,1,,,,,,,,,,,,,,m,,,,,,,,,,,,,,,,11,0,168.0755,168.7077,m,1,0.6188,,[],[],[],[],[],[],[],168.7077,170.7071,170.7071,170.7073,[],[],[],[],[],[],[],,,,170.7073,170.7074,0.040507812,-0.453229167,0,0,0,,0,10,10,154,1,4,word,STORAGE,print,storage_p.png,,,,
,,,,32271,001,2025-10-19_16h54.22.032,HW_LDT_1,2024.2.4,MacIntel,59.88023952,,,,,,,,,,,,,,,,,,,,,170.7085,170.9081,170.9081,171.408,,,,,,,,,,,,,,1.1319,1,,,,,,,,,,,,,,m,,,,,,,,,,,,,,,,12,0,171.4087,172.5414,m,1,1.1319,,[],[],[],[],[],[],[],172.5415,174.541,174.5411,174.5412,[],[],[],[],[],[],[],,,,174.5412,174.5413,0.040507812,-0.453229167,0,0,0,,0,11,11,123,1,4,word,MODERATE,print,moderate_p.png,,,,
,,,,32271,001,2025-10-19_16h54.22.032,HW_LDT_1,2024.2.4,MacIntel,59.88023952,,,,,,,,,,,,,,,,,,,,,174.5425,174.7408,174.7408,175.2415,,,,,,,,,,,,,,0.5526,1,,,,,,,,,,,,,,m,,,,,,,,,,,,,,,,13,0,175.2421,175.8081,m,1,0.5526,,[],[],[],[],[],[],[],175.8082,177.8081,177.8081,177.8083,[],[],[],[],[],[],[],,,,177.8083,177.8085,0.040507812,-0.453229167,0,0,0,,0,12,12,147,1,4,word,ROMANTIC,print,romantic_p.png,,,,
,,,,32271,001,2025-10-19_16h54.22.032,HW_LDT_1,2024.2.4,MacIntel,59.88023952,,,,,,,,,,,,,,,,,,,,,177.8096,178.0076,178.0076,178.5077,,,,,,,,,,,,,,5.4211,0,,,,,,,,,,,,,,m,,,,,,,,,,,,,,,,14,1,178.5082,183.9415,z,0,5.4211,,[],[],[],[],[],[],[],183.9417,185.9415,185.9416,187.0081,[],[],[],[],[],[],[],z,1.0526,,187.0082,187.0082,0.040507812,-0.453229167,0,0,0,,0,13,13,99,1,4,word,DEBATE,cursive,debate_c.png,,,,
,,,,32271,001,2025-10-19_16h54.22.032,HW_LDT_1,2024.2.4,MacIntel,59.88023952,,,,,,,,,,,,,,,,,,,,,187.0091,187.2079,187.2079,187.7081,,,,,,,,,,,,,,2.0815,1,,,,,,,,,,,,,,z,,,,,,,,,,,,,,,,15,0,187.7086,189.7918,z,1,2.0815,,[],[],[],[],[],[],[],189.7918,191.7914,191.7914,191.7917,[],[],[],[],[],[],[],,,,191.7918,191.7919,0.040507812,-0.453229167,0,0,0,,0,14,14,31,1,4,RL,orimipal,print,orimipal_p.png,,,,
,,,,32271,001,2025-10-19_16h54.22.032,HW_LDT_1,2024.2.4,MacIntel,59.88023952,,,,,,,,,,,,,,,,,,,,,191.793,191.9915,191.9915,192.4915,,,,,,,,,,,,,,0.8031,1,,,,,,,,,,,,,,z,,,,,,,,,,,,,,,,16,0,192.4919,193.3082,z,1,0.8031,,[],[],[],[],[],[],[],193.3083,195.3073,195.3074,195.3075,[],[],[],[],[],[],[],,,,195.3075,195.3077,0.040507812,-0.453229167,0,0,0,,0,15,15,5,1,4,RL,bebine,print,bebine_p.png,,,,
,,,,32271,001,2025-10-19_16h54.22.032,HW_LDT_1,2024.2.4,MacIntel,59.88023952,,,,,,,,,,,,,,,,,,,,,195.3087,195.5071,195.5071,196.0078,,,,,,,,,,,,,,1.0191,1,,,,,,,,,,,,,,m,,,,,,,,,,,,,,,,17,0,196.0083,197.0405,m,1,1.0191,,[],[],[],[],[],[],[],197.0405,199.0414,199.0414,199.0416,[],[],[],[],[],[],[],,,,199.0416,199.0416,0.040507812,-0.453229167,0,0,0,,0,16,16,148,1,4,word,SALINE,print,saline_p.png,,,,
,,,,32271,001,2025-10-19_16h54.22.032,HW_LDT_1,2024.2.4,MacIntel,59.88023952,,,,,,,,,,,,,,,,,,,,,199.0425,199.2416,199.2417,199.7413,,,,,,,,,,,,,,1.0205,1,,,,,,,,,,,,,,m,,,,,,,,,,,,,,,,18,0,199.7414,200.7745,m,1,1.0205,,[],[],[],[],[],[],[],200.7746,202.7749,202.7749,202.7751,[],[],[],[],[],[],[],,,,202.7751,202.7752,0.040507812,-0.453229167,0,0,0,,0,17,17,90,1,4,word,CAPITAL,print,capital_p.png,,,,
,,,,32271,001,2025-10-19_16h54.22.032,HW_LDT_1,2024.2.4,MacIntel,59.88023952,,,,,,,,,,,,,,,,,,,,,202.7763,202.9749,202.975,203.4749,,,,,,,,,,,,,,1.0189,1,,,,,,,,,,,,,,m,,,,,,,,,,,,,,,,19,0,203.4754,204.5074,m,1,1.0189,,[],[],[],[],[],[],[],204.5074,206.5074,206.5075,206.5077,[],[],[],[],[],[],[],,,,206.5078,206.508,0.040507812,-0.453229167,0,0,0,,0,18,18,129,1,4,word,PARENT,cursive,parent_c.png,,,,
,,,,32271,001,2025-10-19_16h54.22.032,HW_LDT_1,2024.2.4,MacIntel,59.88023952,,,,,,,,,,,,,,,,,,,,,206.5092,206.7082,206.7083,207.2074,,,,,,,,,,,,,,9.6321,0,,,,,,,,,,,,,,m,,,,,,,,,,,,,,,,20,0,207.2078,216.8409,z,0,9.6321,,[],[],[],[],[],[],[],216.8409,218.8409,218.8409,218.8411,[],[],[],[],[],[],[],,,,218.8412,218.8412,0.040507812,-0.453229167,0,0,0,,0,19,19,139,1,4,word,REGULAR,cursive,regular_c.png,,,,
,,,,32271,001,2025-10-19_16h54.22.032,HW_LDT_1,2024.2.4,MacIntel,59.88023952,,,,,,,,,,,,,,,,,,,,,218.8424,219.0415,219.0416,219.5408,,,,,,,,,,,,,,0.8817,1,,,,,,,,,,,,,,m,,,,,,,,,,,,,,,,21,0,219.5412,220.4248,m,1,0.8817,,[],[],[],[],[],[],[],220.4249,222.4241,222.4241,222.4242,[],[],[],[],[],[],[],,,,222.4242,222.4244,0.040507812,-0.453229167,0,0,0,,0,20,20,141,1,4,word,RELIGION,print,religion_p.png,,,,
,,,,32271,001,2025-10-19_16h54.22.032,HW_LDT_1,2024.2.4,MacIntel,59.88023952,,,,,,,,,,,,,,,,,,,,,222.4253,222.6251,222.6251,223.1247,,,,,,,,,,,,,,0.9533,1,,,,,,,,,,,,,,z,,,,,,,,,,,,,,,,22,0,223.125,224.0916,z,1,0.9533,,[],[],[],[],[],[],[],224.0917,226.0916,226.0917,226.0918,[],[],[],[],[],[],[],,,,226.0919,226.092,0.040507812,-0.453229167,0,0,0,,0,21,21,65,1,4,TL,orepator,print,orepator_p.png,,,,
,,,,32271,001,2025-10-19_16h54.22.032,HW_LDT_1,2024.2.4,MacIntel,59.88023952,,,,,,,,,,,,,,,,,,,,,226.0931,226.2909,226.291,226.7917,,,,,,,,,,,,,,1.1359,1,,,,,,,,,,,,,,z,,,,,,,,,,,,,,,,23,0,226.7921,227.9408,z,1,1.1359,,[],[],[],[],[],[],[],227.9409,229.9415,229.9416,229.9416,[],[],[],[],[],[],[],,,,229.9416,229.9416,0.040507812,-0.453229167,0,0,0,,0,22,22,75,1,4,TL,sanile,print,sanile_p.png,,,,
,,,,32271,001,2025-10-19_16h54.22.032,HW_LDT_1,2024.2.4,MacIntel,59.88023952,,,,,,,,,,,,,,,,,,,,,229.9423,230.1416,230.1416,230.6417,,,,,,,,,,,,,,1.4407,1,,,,,,,,,,,,,,m,,,,,,,,,,,,,,,,24,0,230.6421,232.0916,m,1,1.4407,,[],[],[],[],[],[],[],232.0918,234.0917,234.0917,234.0919,[],[],[],[],[],[],[],,,,234.0919,234.092,0.040507812,-0.453229167,0,0,0,,0,23,23,137,1,4,word,RAPIDLY,cursive,rapidly_c.png,,,,
,,,,32271,001,2025-10-19_16h54.22.032,HW_LDT_1,2024.2.4,MacIntel,59.88023952,,,,,,,,,,,,,,,,,,,,,234.093,234.2914,234.2915,234.791,,,,,,,,,,,,,,2.9711,1,,,,,,,,,,,,,,m,,,,,,,,,,,,,,,,25,0,234.7915,237.7747,m,1,2.9711,,[],[],[],[],[],[],[],237.7747,239.7749,239.7749,239.7751,[],[],[],[],[],[],[],,,,239.7751,239.7752,0.040507812,-0.453229167,0,0,0,,0,24,24,89,1,4,word,CAPACITY,cursive,capacity_c.png,,,,
,,,,32271,001,2025-10-19_16h54.22.032,HW_LDT_1,2024.2.4,MacIntel,59.88023952,,,,,,,,,,,,,,,,,,,,,239.7759,239.975,239.9751,240.4741,,,,,,,,,,,,,,1.9055,1,,,,,,,,,,,,,,z,,,,,,,,,,,,,,,,26,0,240.4746,242.3916,z,1,1.9055,,[],[],[],[],[],[],[],242.3918,244.3917,244.3917,244.3918,[],[],[],[],[],[],[],,,,244.392,244.392,0.040507812,-0.453229167,0,0,0,,0,25,25,60,1,4,TL,hetirage,print,hetirage_p.png,,,,
,,,,32271,001,2025-10-19_16h54.22.032,HW_LDT_1,2024.2.4,MacIntel,59.88023952,,,,,,,,,,,,,,,,,,,,,244.393,244.5917,244.5917,245.0915,,,,,,,,,,,,,,1.3088,1,,,,,,,,,,,,,,z,,,,,,,,,,,,,,,,27,0,245.0917,246.4084,z,1,1.3088,,[],[],[],[],[],[],[],246.4085,248.4076,248.4077,248.4079,[],[],[],[],[],[],[],,,,248.408,248.408,0.040507812,-0.453229167,0,0,0,,0,26,26,79,1,4,TL,tritube,print,tritube_p.png,,,,
,,,,32271,001,2025-10-19_16h54.22.032,HW_LDT_1,2024.2.4,MacIntel,59.88023952,,,,,,,,,,,,,,,,,,,,,248.4091,248.6084,248.6084,249.1085,,,,,,,,,,,,,,5.1521,1,,,,,,,,,,,,,,z,,,,,,,,,,,,,,,,28,1,249.1088,254.2752,z,1,5.1521,,[],[],[],[],[],[],[],254.2753,256.2751,256.2751,257.3252,[],[],[],[],[],[],[],z,1.0376,,257.3253,257.3254,0.040507812,-0.453229167,0,0,0,,0,27,27,51,1,4,TL,adsivory,cursive,adsivory_c.png,,,,
,,,,32271,001,2025-10-19_16h54.22.032,HW_LDT_1,2024.2.4,MacIntel,59.88023952,,,,,,,,,,,,,,,,,,,,,257.3265,257.5251,257.5251,258.0251,,,,,,,,,,,,,,1.7524,1,,,,,,,,,,,,,,m,,,,,,,,,,,,,,,,29,1,258.0255,259.7917,m,1,1.7524,,[],[],[],[],[],[],[],259.7917,261.7917,261.7918,265.2254,[],[],[],[],[],[],[],z,3.4208,,265.2254,265.2256,0.040507812,-0.453229167,0,0,0,,0,28,28,134,1,4,word,QUALIFY,print,qualify_p.png,,,,
,,,,32271,001,2025-10-19_16h54.22.032,HW_LDT_1,2024.2.4,MacIntel,59.88023952,,,,,,,,,,,,,,,,,,,,,265.2269,265.4244,265.4244,265.9251,,,,,,,,,,,,,,0.9237,1,,,,,,,,,,,,,,m,,,,,,,,,,,,,,,,30,0,265.9254,266.8576,m,1,0.9237,,[],[],[],[],[],[],[],266.8576,268.8582,268.8583,268.8584,[],[],[],[],[],[],[],,,,268.8584,268.8586,0.040507812,-0.453229167,0,0,0,,0,29,29,145,1,4,word,RESUME,print,resume_p.png,,,,
,,,,32271,001,2025-10-19_16h54.22.032,HW_LDT_1,2024.2.4,MacIntel,59.88023952,,,,,,,,,,,,,,,,,,,,,268.8596,269.0579,269.0579,269.5583,,,,,,,,,,,,,,2.1883,1,,,,,,,,,,,,,,m,,,,,,,,,,,,,,,,31,0,269.5586,271.7581,m,1,2.1883,,[],[],[],[],[],[],[],271.7582,273.7585,273.7586,273.7587,[],[],[],[],[],[],[],,,,273.7587,273.7588,0.040507812,-0.453229167,0,0,0,,0,30,30,118,1,4,word,MEDICINE,cursive,medicine_c.png,,,,
,,,,32271,001,2025-10-19_16h54.22.032,HW_LDT_1,2024.2.4,MacIntel,59.88023952,,,,,,,,,,,,,,,,,,,,,273.7602,273.9586,273.9587,274.4585,,,,,,,,,,,,,,1.3479,1,,,,,,,,,,,,,,z,,,,,,,,,,,,,,,,32,1,274.4591,275.8085,z,1,1.3479,,[],[],[],[],[],[],[],275.8086,277.8079,277.808,278.9577,[],[],[],[],[],[],[],m,1.1415,,278.9578,278.9579,0.040507812,-0.453229167,0,0,0,,0,31,31,20,1,4,RL,gralekul,print,gralekul_p.png,,,,
,,,,32271,001,2025-10-19_16h54.22.032,HW_LDT_1,2024.2.4,MacIntel,59.88023952,,,,,,,,,,,,,,,,,,,,,278.959,279.1585,279.1586,279.6585,,,,,,,,,,,,,,7.6203,1,,,,,,,,,,,,,,z,,,,,,,,,,,,,,,,33,0,279.6589,287.292,z,1,7.6203,,[],[],[],[],[],[],[],287.2922,289.2919,289.2919,289.2921,[],[],[],[],[],[],[],,,,289.2922,289.2922,0.040507812,-0.453229167,0,0,0,,0,32,32,33,1,4,RL,pamest,cursive,pamest_c.png,,,,
,,,,32271,001,2025-10-19_16h54.22.032,HW_LDT_1,2024.2.4,MacIntel,59.88023952,,,,,,,,,,,,,,,,,,,,,289.2934,289.4919,289.4919,289.9919,,,,,,,,,,,,,,4.3915,1,,,,,,,,,,,,,,m,,,,,,,,,,,,,,,,34,1,289.9923,294.3918,m,1,4.3915,,[],[],[],[],[],[],[],294.3919,296.3919,296.392,297.042,[],[],[],[],[],[],[],z,0.6492,,297.042,297.0421,0.040507812,-0.453229167,0,0,0,,0,33,33,133,1,4,word,PROVIDE,cursive,provide_c.png,,,,
,,,,32271,001,2025-10-19_16h54.22.032,HW_LDT_1,2024.2.4,MacIntel,59.88023952,,,,,,,,,,,,,,,,,,,,,297.0431,297.2419,297.2419,297.7418,,,,,,,,,,,,,,1.4226,1,,,,,,,,,,,,,,m,,,,,,,,,,,,,,,,35,1,297.7422,299.1744,m,1,1.4226,,[],[],[],[],[],[],[],299.1745,301.1751,301.1751,304.5752,[],[],[],[],[],[],[],m,3.3888,,304.5753,304.5754,0.040507812,-0.453229167,0,0,0,,0,34,34,156,1,4,word,TRIBUTE,print,tribute_p.png,,,,
,,,,32271,001,2025-10-19_16h54.22.032,HW_LDT_1,2024.2.4,MacIntel,59.88023952,,,,,,,,,,,,,,,,,,,,,304.5765,304.7753,304.7754,305.2752,,,,,,,,,,,,,,1.458,1,,,,,,,,,,,,,,z,,,,,,,,,,,,,,,,36,0,305.2757,306.742,z,1,1.458,,[],[],[],[],[],[],[],306.7421,308.742,308.7421,308.7422,[],[],[],[],[],[],[],,,,308.7422,308.7423,0.040507812,-0.453229167,0,0,0,,0,35,35,69,1,4,TL,quafily,print,quafily_p.png,,,,
,,,,32271,001,2025-10-19_16h54.22.032,HW_LDT_1,2024.2.4,MacIntel,59.88023952,,,,,,,,,,,,,,,,,,,,,308.7435,308.9419,308.942,309.442,,,,,,,,,,,,,,0.9698,1,,,,,,,,,,,,,,m,,,,,,,,,,,,,,,,37,0,309.4424,310.4253,m,1,0.9698,,[],[],[],[],[],[],[],310.4255,312.4254,312.4254,312.4255,[],[],[],[],[],[],[],,,,312.4255,312.4255,0.040507812,-0.453229167,0,0,0,,0,36,36,112,1,4,word,LIBERAL,cursive,liberal_c.png,,,,
,,,,32271,001,2025-10-19_16h54.22.032,HW_LDT_1,2024.2.4,MacIntel,59.88023952,,,,,,,,,,,,,,,,,,,,,312.4265,312.6253,312.6253,313.1253,,,,,,,,,,,,,,4.4531,1,,,,,,,,,,,,,,z,,,,,,,,,,,,,,,,38,0,313.126,317.5922,z,1,4.4531,,[],[],[],[],[],[],[],317.5923,319.5921,319.5922,319.5924,[],[],[],[],[],[],[],,,,319.5924,319.5926,0.040507812,-0.453229167,0,0,0,,0,37,37,49,1,4,RL,vesofity,cursive,vesofity_c.png,,,,
,,,,32271,001,2025-10-19_16h54.22.032,HW_LDT_1,2024.2.4,MacIntel,59.88023952,,,,,,,,,,,,,,,,,,,,,319.594,319.7921,319.7921,320.2921,,,,,,,,,,,,,,1.8202,1,,,,,,,,,,,,,,m,,,,,,,,,,,,,,,,39,0,320.2925,322.1254,m,1,1.8202,,[],[],[],[],[],[],[],322.1254,324.1254,324.1254,324.1256,[],[],[],[],[],[],[],,,,324.1256,324.1257,0.040507812,-0.453229167,0,0,0,,0,38,38,157,1,4,word,VALIDITY,print,validity_p.png,,,,
,,,,32271,001,2025-10-19_16h54.22.032,HW_LDT_1,2024.2.4,MacIntel,59.88023952,,,,,,,,,,,,,,,,,,,,,324.1267,324.3254,324.3254,324.8254,,,,,,,,,,,,,,1.9194,0,,,,,,,,,,,,,,m,,,,,,,,,,,,,,,,40,0,324.8258,326.7585,z,0,1.9194,,[],[],[],[],[],[],[],326.7586,328.7589,328.7589,328.7591,[],[],[],[],[],[],[],,,,328.7592,328.7593,0.040507812,-0.453229167,0,0,0,,0,39,39,92,1,4,word,CATEGORY,cursive,category_c.png,,,,
,,,,32271,001,2025-10-19_16h54.22.032,HW_LDT_1,2024.2.4,MacIntel,59.88023952,,,,,,,,,,,,,,,,,,,,,328.7605,328.9588,328.9589,329.4588,,,,,,,,,,,,,,2.5368,1,,,,,,,,,,,,,,z,,,,,,,,,,,,,,,,41,0,329.4592,332.0088,z,1,2.5368,,[],[],[],[],[],[],[],332.0088,334.0088,334.0088,334.009,[],[],[],[],[],[],[],,,,334.009,334.0092,0.040507812,-0.453229167,0,0,0,,0,40,40,3,1,4,RL,bewoted,print,bewoted_p.png,,,,
,,,,32271,001,2025-10-19_16h54.22.032,HW_LDT_1,2024.2.4,MacIntel,59.88023952,,,,,,,,,,,,,,,,,,,,,334.0102,334.2088,334.2089,334.7083,,,,,,,,,,,,,,3.2906,1,,,,,,,,,,,,,,z,,,,,,,,,,,,,,,,42,0,334.7087,338.0089,z,1,3.2906,,[],[],[],[],[],[],[],338.009,340.0089,340.009,340.0091,[],[],[],[],[],[],[],,,,340.0092,340.0092,0.040507812,-0.453229167,0,0,0,,0,41,41,32,1,4,RL,patisic,cursive,patisic_c.png,,,,
,,,,32271,001,2025-10-19_16h54.22.032,HW_LDT_1,2024.2.4,MacIntel,59.88023952,,,,,,,,,,,,,,,,,,,,,340.0106,340.2088,340.2088,340.7085,,,,,,,,,,,,,,3.8035,1,,,,,,,,,,,,,,z,,,,,,,,,,,,,,,,43,1,340.7089,344.5253,z,1,3.8035,,[],[],[],[],[],[],[],344.5254,346.5242,346.5242,347.2921,[],[],[],[],[],[],[],z,0.7671,,347.2922,347.2923,0.037747396,-0.452673611,0,0,0,,0,42,42,30,1,4,RL,nunewical,cursive,nunewical_c.png,,,,
,,,,32271,001,2025-10-19_16h54.22.032,HW_LDT_1,2024.2.4,MacIntel,59.88023952,,,,,,,,,,,,,,,,,,,,,347.2937,347.4921,347.4921,347.9922,,,,,,,,,,,,,,0.9364,1,,,,,,,,,,,,,,z,,,,,,,,,,,,,,,,44,0,347.9928,348.9423,z,1,0.9364,,[],[],[],[],[],[],[],348.9423,350.9421,350.9421,350.9423,[],[],[],[],[],[],[],,,,350.9423,350.9423,0.037747396,-0.452673611,0,0,0,,0,43,43,67,1,4,TL,polupar,print,polupar_p.png,,,,
,,,,32271,001,2025-10-19_16h54.22.032,HW_LDT_1,2024.2.4,MacIntel,59.88023952,,,,,,,,,,,,,,,,,,,,,350.9433,351.1419,351.1419,351.6421,,,,,,,,,,,,,,1.6201,1,,,,,,,,,,,,,,m,,,,,,,,,,,,,,,,45,0,351.6424,353.2747,m,1,1.6201,,[],[],[],[],[],[],[],353.2748,355.2756,355.2756,355.2757,[],[],[],[],[],[],[],,,,355.2758,355.2758,0.037747396,-0.452673611,0,0,0,,0,44,44,103,1,4,word,DISPUTE,print,dispute_p.png,,,,
,,,,32271,001,2025-10-19_16h54.22.032,HW_LDT_1,2024.2.4,MacIntel,59.88023952,,,,,,,,,,,,,,,,,,,,,355.2769,355.4755,355.4755,355.9755,,,,,,,,,,,,,,1.0553,1,,,,,,,,,,,,,,m,,,,,,,,,,,,,,,,46,0,355.9761,357.0422,m,1,1.0553,,[],[],[],[],[],[],[],357.0422,359.0413,359.0413,359.0415,[],[],[],[],[],[],[],,,,359.0415,359.0415,0.037747396,-0.452673611,0,0,0,,0,45,45,95,1,4,word,COMEDY,print,comedy_p.png,,,,
,,,,32271,001,2025-10-19_16h54.22.032,HW_LDT_1,2024.2.4,MacIntel,59.88023952,,,,,,,,,,,,,,,,,,,,,359.0427,359.2422,359.2423,359.7413,,,,,,,,,,,,,,2.6881,1,,,,,,,,,,,,,,m,,,,,,,,,,,,,,,,47,0,359.7418,362.4418,m,1,2.6881,,[],[],[],[],[],[],[],362.4419,364.4423,364.4423,364.4424,[],[],[],[],[],[],[],,,,364.4425,364.4425,0.037747396,-0.452673611,0,0,0,,0,46,46,96,1,4,word,CONSIDER,cursive,consider_c.png,,,,
,,,,32271,001,2025-10-19_16h54.22.032,HW_LDT_1,2024.2.4,MacIntel,59.88023952,,,,,,,,,,,,,,,,,,,,,364.4436,364.6412,364.6413,365.1421,,,,,,,,,,,,,,2.6517,0,,,,,,,,,,,,,,z,,,,,,,,,,,,,,,,48,1,365.1426,367.808,m,0,2.6517,,[],[],[],[],[],[],[],367.808,369.808,369.8081,378.9756,[],[],[],[],[],[],[],z,9.155,,378.9757,378.9758,0.037747396,-0.452673611,0,0,0,,0,47,47,39,1,4,RL,relone,cursive,relone_c.png,,,,
,,,,32271,001,2025-10-19_16h54.22.032,HW_LDT_1,2024.2.4,MacIntel,59.88023952,,,,,,,,,,,,,,,,,,,,,378.9768,379.1756,379.1757,379.6756,,,,,,,,,,,,,,1.1155,1,,,,,,,,,,,,,,m,,,,,,,,,,,,,,,,49,0,379.676,380.7922,m,1,1.1155,,[],[],[],[],[],[],[],380.7923,382.7913,382.7913,382.7915,[],[],[],[],[],[],[],,,,382.7915,382.7916,0.037747396,-0.452673611,0,0,0,,0,48,48,88,1,4,word,CAMERA,print,camera_p.png,,,,
,,,,32271,001,2025-10-19_16h54.22.032,HW_LDT_1,2024.2.4,MacIntel,59.88023952,,,,,,,,,,,,,,,,,,,,,382.7927,382.9924,382.9924,383.4922,,,,,,,,,,,,,,4.0371,0,,,,,,,,,,,,,,m,,,,,,,,,,,,,,,,50,0,383.4925,387.5423,z,0,4.0371,,[],[],[],[],[],[],[],387.5424,389.5421,389.5421,389.5422,[],[],[],[],[],[],[],,,,389.5422,389.5423,0.037747396,-0.452673611,0,0,0,,0,49,49,87,1,4,word,CAFETERIA,cursive,cafeteria_c.png,,,,
,,,,32271,001,2025-10-19_16h54.22.032,HW_LDT_1,2024.2.4,MacIntel,59.88023952,,,,,,,,,,,,,,,,,,,,,389.543,389.7424,389.7424,390.2423,,,,,,,,,,,,,,2.42,1,,,,,,,,,,,,,,z,,,,,,,,,,,,,,,,51,0,390.2426,392.6756,z,1,2.42,,[],[],[],[],[],[],[],392.6757,394.6757,394.6757,394.6758,[],[],[],[],[],[],[],,,,394.6759,394.676,0.037747396,-0.452673611,0,0,0,,0,50,50,1,1,4,RL,afaneur,cursive,afaneur_c.png,,,,
,,,,32271,001,2025-10-19_16h54.22.032,HW_LDT_1,2024.2.4,MacIntel,59.88023952,,,,,,,,,,,,,,,,,,,,,394.6769,394.8749,394.875,395.3757,,,,,,,,,,,,,,1.9818,1,,,,,,,,,,,,,,m,,,,,,,,,,,,,,,,52,1,395.3762,397.3588,m,1,1.9818,,[],[],[],[],[],[],[],397.3589,399.3586,399.3586,402.9425,[],[],[],[],[],[],[],z,3.5713,,402.9425,402.9427,0.037747396,-0.452673611,0,0,0,,0,51,51,121,1,4,word,MISTAKE,print,mistake_p.png,,,,
,,,,32271,001,2025-10-19_16h54.22.032,HW_LDT_1,2024.2.4,MacIntel,59.88023952,,,,,,,,,,,,,,,,,,,,,402.9438,403.1423,403.1424,403.6425,,,,,,,,,,,,,,1.0863,1,,,,,,,,,,,,,,z,,,,,,,,,,,,,,,,53,0,403.643,404.7414,z,1,1.0863,,[],[],[],[],[],[],[],404.7415,406.7425,406.7425,406.7427,[],[],[],[],[],[],[],,,,406.7427,406.7428,0.037747396,-0.452673611,0,0,0,,0,52,52,44,1,4,RL,senvilent,print,senvilent_p.png,,,,
,,,,32271,001,2025-10-19_16h54.22.032,HW_LDT_1,2024.2.4,MacIntel,59.88023952,,,,,,,,,,,,,,,,,,,,,406.744,406.9424,406.9425,407.4424,,,,,,,,,,,,,,2.1233,1,,,,,,,,,,,,,,m,,,,,,,,,,,,,,,,54,0,407.4428,409.5758,m,1,2.1233,,[],[],[],[],[],[],[],409.5759,411.5758,411.5758,411.576,[],[],[],[],[],[],[],,,,411.576,411.5761,0.037747396,-0.452673611,0,0,0,,0,53,53,85,1,4,word,BENEFIT,cursive,benefit_c.png,,,,
,,,,32271,001,2025-10-19_16h54.22.032,HW_LDT_1,2024.2.4,MacIntel,59.88023952,,,,,,,,,,,,,,,,,,,,,411.5775,411.7749,411.7749,412.2754,,,,,,,,,,,,,,1.6584,1,,,,,,,,,,,,,,m,,,,,,,,,,,,,,,,55,0,412.2759,413.9424,m,1,1.6584,,[],[],[],[],[],[],[],413.9425,415.9415,415.9415,415.9418,[],[],[],[],[],[],[],,,,415.9419,415.9419,0.037747396,-0.452673611,0,0,0,,0,54,54,143,1,4,word,REMOVAL,print,removal_p.png,,,,
,,,,32271,001,2025-10-19_16h54.22.032,HW_LDT_1,2024.2.4,MacIntel,59.88023952,,,,,,,,,,,,,,,,,,,,,415.9429,416.1422,416.1422,416.6412,,,,,,,,,,,,,,0.7836,1,,,,,,,,,,,,,,z,,,,,,,,,,,,,,,,56,0,416.6416,417.4259,z,1,0.7836,,[],[],[],[],[],[],[],417.4259,419.4258,419.4258,419.4258,[],[],[],[],[],[],[],,,,419.4259,419.4259,0.037747396,-0.452673611,0,0,0,,0,55,55,11,1,4,RL,clisimal,print,clisimal_p.png,,,,
,,,,32271,001,2025-10-19_16h54.22.032,HW_LDT_1,2024.2.4,MacIntel,59.88023952,,,,,,,,,,,,,,,,,,,,,419.4269,419.6258,419.6258,420.1254,,,,,,,,,,,,,,1.0151,1,,,,,,,,,,,,,,m,,,,,,,,,,,,,,,,57,0,420.1258,421.1415,m,1,1.0151,,[],[],[],[],[],[],[],421.1416,423.1424,423.1425,423.1427,[],[],[],[],[],[],[],,,,423.1427,423.1427,0.037747396,-0.452673611,0,0,0,,0,56,56,152,1,4,word,SPECIMEN,cursive,specimen_c.png,,,,
,,,,32271,001,2025-10-19_16h54.22.032,HW_LDT_1,2024.2.4,MacIntel,59.88023952,,,,,,,,,,,,,,,,,,,,,423.1439,423.3425,423.3426,423.8416,,,,,,,,,,,,,,0.6902,1,,,,,,,,,,,,,,z,,,,,,,,,,,,,,,,58,0,423.8419,424.5415,z,1,0.6902,,[],[],[],[],[],[],[],424.5416,426.5425,426.5425,426.5427,[],[],[],[],[],[],[],,,,426.5427,426.5428,0.037747396,-0.452673611,0,0,0,,0,57,57,43,1,4,RL,rovastic,print,rovastic_p.png,,,,
,,,,32271,001,2025-10-19_16h54.22.032,HW_LDT_1,2024.2.4,MacIntel,59.88023952,,,,,,,,,,,,,,,,,,,,,426.5438,426.7425,426.7426,427.2426,,,,,,,,,,,,,,5.9979,1,,,,,,,,,,,,,,m,,,,,,,,,,,,,,,,59,0,427.2431,433.2422,m,1,5.9979,,[],[],[],[],[],[],[],433.2423,435.2426,435.2426,435.2428,[],[],[],[],[],[],[],,,,435.2429,435.2429,0.037747396,-0.452673611,0,0,0,,0,58,58,144,1,4,word,RESIDENT,cursive,resident_c.png,,,,
,,,,32271,001,2025-10-19_16h54.22.032,HW_LDT_1,2024.2.4,MacIntel,59.88023952,,,,,,,,,,,,,,,,,,,,,435.244,435.4414,435.4414,435.9425,,,,,,,,,,,,,,6.3689,1,,,,,,,,,,,,,,z,,,,,,,,,,,,,,,,60,0,435.943,442.3254,z,1,6.3689,,[],[],[],[],[],[],[],442.3254,444.3259,444.3259,444.3261,[],[],[],[],[],[],[],,,,444.3261,444.3262,0.043376736,-0.456766493,0,0,0,,0,59,59,16,1,4,RL,desifate,cursive,desifate_c.png,,,,
,,,,32271,001,2025-10-19_16h54.22.032,HW_LDT_1,2024.2.4,MacIntel,59.88023952,,,,,,,,,,,,,,,,,,,,,444.3273,444.5258,444.5258,445.0254,,,,,,,,,,,,,,5.4033,1,,,,,,,,,,,,,,z,,,,,,,,,,,,,,,,61,0,445.0259,450.4423,z,1,5.4033,,[],[],[],[],[],[],[],450.4424,452.4425,452.4426,452.4427,[],[],[],[],[],[],[],,,,452.4427,452.4428,0.043376736,-0.456766493,0,0,0,,0,60,60,24,1,4,RL,marmipal,cursive,marmipal_c.png,,,,
,,,,32271,001,2025-10-19_16h54.22.032,HW_LDT_1,2024.2.4,MacIntel,59.88023952,,,,,,,,,,,,,,,,,,,,,452.4439,452.6425,452.6426,453.1425,,,,,,,,,,,,,,1.452,1,,,,,,,,,,,,,,z,,,,,,,,,,,,,,,,62,0,453.143,454.6083,z,1,1.452,,[],[],[],[],[],[],[],454.6084,456.6093,456.6093,456.6094,[],[],[],[],[],[],[],,,,456.6094,456.6096,0.043376736,-0.456766493,0,0,0,,0,61,61,38,1,4,RL,refakive,print,refakive_p.png,,,,
,,,,32271,001,2025-10-19_16h54.22.032,HW_LDT_1,2024.2.4,MacIntel,59.88023952,,,,,,,,,,,,,,,,,,,,,456.6106,456.8092,456.8093,457.3083,,,,,,,,,,,,,,0.7537,1,,,,,,,,,,,,,,m,,,,,,,,,,,,,,,,63,0,457.3087,458.0758,m,1,0.7537,,[],[],[],[],[],[],[],458.0758,460.0759,460.0759,460.076,[],[],[],[],[],[],[],,,,460.0761,460.0762,0.043376736,-0.456766493,0,0,0,,0,62,62,140,1,4,word,RELATIVE,print,relative_p.png,,,,
,,,,32271,001,2025-10-19_16h54.22.032,HW_LDT_1,2024.2.4,MacIntel,59.88023952,,,,,,,,,,,,,,,,,,,,,460.0775,460.276,460.2761,460.7751,,,,,,,,,,,,,,5.4375,1,,,,,,,,,,,,,,z,,,,,,,,,,,,,,,,64,0,460.7756,466.2258,z,1,5.4375,,[],[],[],[],[],[],[],466.2259,468.226,468.226,468.2262,[],[],[],[],[],[],[],,,,468.2263,468.2264,0.043376736,-0.456766493,0,0,0,,0,63,63,15,1,4,RL,debave,cursive,debave_c.png,,,,
,,,,32271,001,2025-10-19_16h54.22.032,HW_LDT_1,2024.2.4,MacIntel,59.88023952,,,,,,,,,,,,,,,,,,,,,468.2275,468.426,468.4261,468.9248,,,,,,,,,,,,,,1.5758,1,,,,,,,,,,,,,,z,,,,,,,,,,,,,,,,65,1,468.9249,470.5088,z,1,1.5758,,[],[],[],[],[],[],[],470.5088,472.5084,472.5084,474.0925,[],[],[],[],[],[],[],z,1.5753,,474.0925,474.0926,0.043376736,-0.456766493,0,0,0,,0,64,64,18,1,4,RL,disluge,print,disluge_p.png,,,,
,,,,32271,001,2025-10-19_16h54.22.032,HW_LDT_1,2024.2.4,MacIntel,59.88023952,,,,,,,,,,,,,,,,,,,,,474.0934,474.2927,474.2927,474.7926,,,,,,,,,,,,,,0.8692,0,,,,,,,,,,,,,,z,,,,,,,,,,,,,,,,66,0,474.7931,475.6759,m,0,0.8692,,[],[],[],[],[],[],[],475.6759,477.6757,477.6757,477.6759,[],[],[],[],[],[],[],,,,477.6759,477.6759,0.043376736,-0.456766493,0,0,0,,0,65,65,68,1,4,TL,prosopal,print,prosopal_p.png,,,,
,,,,32271,001,2025-10-19_16h54.22.032,HW_LDT_1,2024.2.4,MacIntel,59.88023952,,,,,,,,,,,,,,,,,,,,,477.6763,477.8757,477.8757,478.3755,,,,,,,,,,,,,,2.2697,1,,,,,,,,,,,,,,m,,,,,,,,,,,,,,,,67,0,478.3759,480.6592,m,1,2.2697,,[],[],[],[],[],[],[],480.6592,482.6591,482.6592,482.6592,[],[],[],[],[],[],[],,,,482.6592,482.6592,0.043376736,-0.456766493,0,0,0,,0,66,66,80,1,4,word,ACADEMY,print,academy_p.png,,,,
,,,,32271,001,2025-10-19_16h54.22.032,HW_LDT_1,2024.2.4,MacIntel,59.88023952,,,,,,,,,,,,,,,,,,,,,482.6595,482.859,482.859,483.3592,,,,,,,,,,,,,,5.9196,1,,,,,,,,,,,,,,z,,,,,,,,,,,,,,,,68,0,483.3596,489.2927,z,1,5.9196,,[],[],[],[],[],[],[],489.2928,491.292,491.2921,491.2922,[],[],[],[],[],[],[],,,,491.2922,491.2923,0.043376736,-0.456766493,0,0,0,,0,67,67,17,1,4,RL,denficy,cursive,denficy_c.png,,,,
,,,,32271,001,2025-10-19_16h54.22.032,HW_LDT_1,2024.2.4,MacIntel,59.88023952,,,,,,,,,,,,,,,,,,,,,491.2933,491.4927,491.4927,491.9928,,,,,,,,,,,,,,2.164,1,,,,,,,,,,,,,,z,,,,,,,,,,,,,,,,69,0,491.9932,494.1591,z,1,2.164,,[],[],[],[],[],[],[],494.1591,496.1592,496.1593,496.1593,[],[],[],[],[],[],[],,,,496.1594,496.1594,0.043376736,-0.456766493,0,0,0,,0,68,68,25,1,4,RL,macise,print,macise_p.png,,,,
,,,,32271,001,2025-10-19_16h54.22.032,HW_LDT_1,2024.2.4,MacIntel,59.88023952,,,,,,,,,,,,,,,,,,,,,496.1603,496.3595,496.3595,496.8591,,,,,,,,,,,,,,0.6058,1,,,,,,,,,,,,,,m,,,,,,,,,,,,,,,,70,0,496.8593,497.4761,m,1,0.6058,,[],[],[],[],[],[],[],497.4761,499.4762,499.4762,499.4763,[],[],[],[],[],[],[],,,,499.4764,499.4765,0.043376736,-0.456766493,0,0,0,,0,69,69,120,1,4,word,MILITARY,print,military_p.png,,,,
,,,,32271,001,2025-10-19_16h54.22.032,HW_LDT_1,2024.2.4,MacIntel,59.88023952,,,,,,,,,,,,,,,,,,,,,499.4777,499.6759,499.6759,500.1758,,,,,,,,,,,,,,1.1198,1,,,,,,,,,,,,,,m,,,,,,,,,,,,,,,,71,0,500.1762,501.3095,m,1,1.1198,,[],[],[],[],[],[],[],501.3096,503.3094,503.3094,503.3095,[],[],[],[],[],[],[],,,,503.3095,503.3097,0.043376736,-0.456766493,0,0,0,,0,70,70,158,1,4,word,VELOCITY,cursive,velocity_c.png,,,,
,,,,32271,001,2025-10-19_16h54.22.032,HW_LDT_1,2024.2.4,MacIntel,59.88023952,,,,,,,,,,,,,,,,,,,,,503.3105,503.5094,503.5095,504.0092,,,,,,,,,,,,,,0.7369,1,,,,,,,,,,,,,,m,,,,,,,,,,,,,,,,72,0,504.0095,504.7594,m,1,0.7369,,[],[],[],[],[],[],[],504.7595,506.7594,506.7596,506.7596,[],[],[],[],[],[],[],,,,506.7596,506.7598,0.043376736,-0.456766493,0,0,0,,0,71,71,86,1,4,word,BESIDE,print,beside_p.png,,,,
,,,,32271,001,2025-10-19_16h54.22.032,HW_LDT_1,2024.2.4,MacIntel,59.88023952,,,,,,,,,,,,,,,,,,,,,506.761,506.9594,506.9594,507.4588,,,,,,,,,,,,,,0.5865,1,,,,,,,,,,,,,,m,,,,,,,,,,,,,,,,73,0,507.4592,508.0594,m,1,0.5865,,[],[],[],[],[],[],[],508.0595,510.0594,510.0595,510.0597,[],[],[],[],[],[],[],,,,510.0597,510.0598,0.043376736,-0.456766493,0,0,0,,0,72,72,115,1,4,word,LOGICAL,print,logical_p.png,,,,
,,,,32271,001,2025-10-19_16h54.22.032,HW_LDT_1,2024.2.4,MacIntel,59.88023952,,,,,,,,,,,,,,,,,,,,,510.0608,510.2595,510.2596,510.7595,,,,,,,,,,,,,,4.1693,1,,,,,,,,,,,,,,z,,,,,,,,,,,,,,,,74,0,510.7599,514.9428,z,1,4.1693,,[],[],[],[],[],[],[],514.9429,516.9428,516.9428,516.9429,[],[],[],[],[],[],[],,,,516.943,516.943,0.043376736,-0.456766493,0,0,0,,0,73,73,34,1,4,RL,posity,cursive,posity_c.png,,,,
,,,,32271,001,2025-10-19_16h54.22.032,HW_LDT_1,2024.2.4,MacIntel,59.88023952,,,,,,,,,,,,,,,,,,,,,516.9442,517.143,517.143,517.6426,,,,,,,,,,,,,,0.8729,1,,,,,,,,,,,,,,z,,,,,,,,,,,,,,,,75,1,517.6432,518.5263,z,1,0.8729,,[],[],[],[],[],[],[],518.5263,520.5261,520.5261,521.9761,[],[],[],[],[],[],[],z,1.4371,,521.9762,521.9763,0.043376736,-0.456766493,0,0,0,,0,74,74,40,1,4,RL,reconal,print,reconal_p.png,,,,
,,,,32271,001,2025-10-19_16h54.22.032,HW_LDT_1,2024.2.4,MacIntel,59.88023952,,,,,,,,,,,,,,,,,,,,,521.9773,522.1762,522.1762,522.6759,,,,,,,,,,,,,,0.8809,1,,,,,,,,,,,,,,m,,,,,,,,,,,,,,,,76,0,522.6762,523.5594,m,1,0.8809,,[],[],[],[],[],[],[],523.5594,525.5595,525.5595,525.5596,[],[],[],[],[],[],[],,,,525.5596,525.5597,0.043376736,-0.456766493,0,0,0,,0,75,75,110,1,4,word,HERITAGE,print,heritage_p.png,,,,
,,,,32271,001,2025-10-19_16h54.22.032,HW_LDT_1,2024.2.4,MacIntel,59.88023952,,,,,,,,,,,,,,,,,,,,,525.5611,525.7593,525.7593,526.2595,,,,,,,,,,,,,,6.1532,1,,,,,,,,,,,,,,z,,,,,,,,,,,,,,,,77,0,526.2599,532.4263,z,1,6.1532,,[],[],[],[],[],[],[],532.4264,534.4262,534.4263,534.4265,[],[],[],[],[],[],[],,,,534.4265,534.4265,0.043376736,-0.456766493,0,0,0,,0,76,76,59,1,4,TL,fornute,cursive,fornute_c.png,,,,
,,,,32271,001,2025-10-19_16h54.22.032,HW_LDT_1,2024.2.4,MacIntel,59.88023952,,,,,,,,,,,,,,,,,,,,,534.4277,534.6262,534.6263,535.1263,,,,,,,,,,,,,,2.4917,0,,,,,,,,,,,,,,m,,,,,,,,,,,,,,,,78,0,535.1267,537.6262,z,0,2.4917,,[],[],[],[],[],[],[],537.6264,539.6262,539.6263,539.6264,[],[],[],[],[],[],[],,,,539.6264,539.6265,0.043376736,-0.456766493,0,0,0,,0,77,77,114,1,4,word,LOCATE,cursive,locate_c.png,,,,
,,,,32271,001,2025-10-19_16h54.22.032,HW_LDT_1,2024.2.4,MacIntel,59.88023952,,,,,,,,,,,,,,,,,,,,,539.6276,539.8263,539.8263,540.3262,,,,,,,,,,,,,,0.969,0,,,,,,,,,,,,,,z,,,,,,,,,,,,,,,,79,0,540.3266,541.3095,m,0,0.969,,[],[],[],[],[],[],[],541.3096,543.3096,543.3097,543.3098,[],[],[],[],[],[],[],,,,543.31,543.31,0.043376736,-0.456766493,0,0,0,,0,78,78,77,1,4,TL,spemicen,cursive,spemicen_c.png,,,,
,,,,32271,001,2025-10-19_16h54.22.032,HW_LDT_1,2024.2.4,MacIntel,59.88023952,,,,,,,,,,,,,,,,,,,,,543.311,543.5099,543.5099,544.0096,,,,,,,,,,,,,,0.8364,1,,,,,,,,,,,,,,z,,,,,,,,,,,,,,,,80,0,544.01,544.8596,z,1,0.8364,,[],[],[],[],[],[],[],544.8597,546.8595,546.8597,546.8598,[],[],[],[],[],[],[],,,,546.8598,604.0775,0.043376736,-0.456766493,0,0,0,space,0,79,79,27,1,4,RL,menowy,print,menowy_p.png,57.1891,,,
,,,,32271,001,2025-10-19_16h54.22.032,HW_LDT_1,2024.2.4,MacIntel,59.88023952,,,,,,,,,,,,,,,,,,,,,604.0795,604.2765,604.2766,604.7765,,,,,,,,,,,,,,5.2468,1,,,,,,,,,,,,,,z,,,,,,,,,,,,,,,,81,0,604.777,610.0263,z,1,5.2468,,[],[],[],[],[],[],[],610.0263,612.0264,612.0266,612.0268,[],[],[],[],[],[],[],,,,612.0268,612.0268,0.043376736,-0.456766493,0,0,0,,0,80,80,4,1,4,RL,betemit,cursive,betemit_c.png,,,,
,,,,32271,001,2025-10-19_16h54.22.032,HW_LDT_1,2024.2.4,MacIntel,59.88023952,,,,,,,,,,,,,,,,,,,,,612.0279,612.2265,612.2265,612.7257,,,,,,,,,,,,,,0.6241,1,,,,,,,,,,,,,,m,,,,,,,,,,,,,,,,82,0,612.7263,613.359,m,1,0.6241,,[],[],[],[],[],[],[],613.3591,615.3599,615.36,615.3601,[],[],[],[],[],[],[],,,,615.3601,615.3603,0.043376736,-0.456766493,0,0,0,,0,81,81,105,1,4,word,EDITOR,print,editor_p.png,,,,
,,,,32271,001,2025-10-19_16h54.22.032,HW_LDT_1,2024.2.4,MacIntel,59.88023952,,,,,,,,,,,,,,,,,,,,,615.3615,615.5589,615.5589,616.0599,,,,,,,,,,,,,,0.5818,1,,,,,,,,,,,,,,m,,,,,,,,,,,,,,,,83,0,616.0603,616.6433,m,1,0.5818,,[],[],[],[],[],[],[],616.6433,618.6432,618.6432,618.6434,[],[],[],[],[],[],[],,,,618.6434,618.6434,0.043376736,-0.456766493,0,0,0,,0,82,82,149,1,4,word,SENATOR,print,senator_p.png,,,,
,,,,32271,001,2025-10-19_16h54.22.032,HW_LDT_1,2024.2.4,MacIntel,59.88023952,,,,,,,,,,,,,,,,,,,,,618.6445,618.8423,618.8424,619.3432,,,,,,,,,,,,,,5.8752,1,,,,,,,,,,,,,,z,,,,,,,,,,,,,,,,84,0,619.3436,625.2261,z,1,5.8752,,[],[],[],[],[],[],[],625.2262,627.2266,627.2266,627.2267,[],[],[],[],[],[],[],,,,627.2268,627.2269,0.043376736,-0.456766493,0,0,0,,0,83,83,23,1,4,RL,linefal,cursive,linefal_c.png,,,,
,,,,32271,001,2025-10-19_16h54.22.032,HW_LDT_1,2024.2.4,MacIntel,59.88023952,,,,,,,,,,,,,,,,,,,,,627.2285,627.4264,627.4264,627.9265,,,,,,,,,,,,,,2.2853,1,,,,,,,,,,,,,,z,,,,,,,,,,,,,,,,85,0,627.927,630.2264,z,1,2.2853,,[],[],[],[],[],[],[],630.2265,632.2256,632.2257,632.2259,[],[],[],[],[],[],[],,,,632.2259,632.226,0.043376736,-0.456766493,0,0,0,,0,84,84,61,1,4,TL,lotace,cursive,lotace_c.png,,,,
,,,,32271,001,2025-10-19_16h54.22.032,HW_LDT_1,2024.2.4,MacIntel,59.88023952,,,,,,,,,,,,,,,,,,,,,632.227,632.4265,632.4266,632.9266,,,,,,,,,,,,,,0.7723,1,,,,,,,,,,,,,,m,,,,,,,,,,,,,,,,86,0,632.9271,633.7094,m,1,0.7723,,[],[],[],[],[],[],[],633.7095,635.7099,635.71,635.71,[],[],[],[],[],[],[],,,,635.71,635.7101,0.043376736,-0.456766493,0,0,0,,0,85,85,159,1,4,word,VETERAN,cursive,veteran_c.png,,,,
,,,,32271,001,2025-10-19_16h54.22.032,HW_LDT_1,2024.2.4,MacIntel,59.88023952,,,,,,,,,,,,,,,,,,,,,635.7112,635.9099,635.9099,636.41,,,,,,,,,,,,,,0.957,1,,,,,,,,,,,,,,m,,,,,,,,,,,,,,,,87,0,636.4105,637.3758,m,1,0.957,,[],[],[],[],[],[],[],637.3758,639.3767,639.3767,639.3769,[],[],[],[],[],[],[],,,,639.3769,639.377,0.043376736,-0.456766493,0,0,0,,0,86,86,102,1,4,word,DENSITY,cursive,density_c.png,,,,
,,,,32271,001,2025-10-19_16h54.22.032,HW_LDT_1,2024.2.4,MacIntel,59.88023952,,,,,,,,,,,,,,,,,,,,,639.378,639.5766,639.5767,640.0758,,,,,,,,,,,,,,1.059,1,,,,,,,,,,,,,,m,,,,,,,,,,,,,,,,88,0,640.0762,641.1434,m,1,1.059,,[],[],[],[],[],[],[],641.1434,643.1425,643.1425,643.1427,[],[],[],[],[],[],[],,,,643.1428,643.1429,0.043376736,-0.456766493,0,0,0,,0,87,87,132,1,4,word,PROPOSAL,print,proposal_p.png,,,,
,,,,32271,001,2025-10-19_16h54.22.032,HW_LDT_1,2024.2.4,MacIntel,59.88023952,,,,,,,,,,,,,,,,,,,,,643.1443,643.3454,643.3461,643.8432,,,,,,,,,,,,,,1.8015,1,,,,,,,,,,,,,,z,,,,,,,,,,,,,,,,89,0,643.8437,645.6597,z,1,1.8015,,[],[],[],[],[],[],[],645.6597,647.6594,647.6594,647.6596,[],[],[],[],[],[],[],,,,647.6597,647.6598,0.043376736,-0.456766493,0,0,0,,0,88,88,6,1,4,RL,caleberia,cursive,caleberia_c.png,,,,
,,,,32271,001,2025-10-19_16h54.22.032,HW_LDT_1,2024.2.4,MacIntel,59.88023952,,,,,,,,,,,,,,,,,,,,,647.6613,647.86,647.8601,648.3602,,,,,,,,,,,,,,1.9152,1,,,,,,,,,,,,,,m,,,,,,,,,,,,,,,,90,0,648.361,650.277,m,1,1.9152,,[],[],[],[],[],[],[],650.2771,652.2758,652.2758,652.276,[],[],[],[],[],[],[],,,,652.276,652.2761,0.043376736,-0.456766493,0,0,0,,0,89,89,142,1,4,word,REMOTE,cursive,remote_c.png,,,,
,,,,32271,001,2025-10-19_16h54.22.032,HW_LDT_1,2024.2.4,MacIntel,59.88023952,,,,,,,,,,,,,,,,,,,,,652.2773,652.4757,652.4758,652.9766,,,,,,,,,,,,,,4.3862,0,,,,,,,,,,,,,,m,,,,,,,,,,,,,,,,91,0,652.9771,657.3767,z,0,4.3862,,[],[],[],[],[],[],[],657.3769,659.3766,659.3767,659.3769,[],[],[],[],[],[],[],,,,659.3769,659.377,0.043376736,-0.456766493,0,0,0,,0,90,90,101,1,4,word,DELICATE,cursive,delicate_c.png,,,,
,,,,32271,001,2025-10-19_16h54.22.032,HW_LDT_1,2024.2.4,MacIntel,59.88023952,,,,,,,,,,,,,,,,,,,,,659.378,659.5768,659.5768,660.0767,,,,,,,,,,,,,,1.0719,1,,,,,,,,,,,,,,m,,,,,,,,,,,,,,,,92,1,660.0771,661.1592,m,1,1.0719,,[],[],[],[],[],[],[],661.1593,663.1593,663.1593,664.7601,[],[],[],[],[],[],[],z,1.5876,,664.7601,664.7601,0.043376736,-0.456766493,0,0,0,,0,91,91,151,1,4,word,SPECIFIC,cursive,specific_c.png,,,,
,,,,32271,001,2025-10-19_16h54.22.032,HW_LDT_1,2024.2.4,MacIntel,59.88023952,,,,,,,,,,,,,,,,,,,,,664.7611,664.9601,664.9601,665.4594,,,,,,,,,,,,,,1.2388,1,,,,,,,,,,,,,,z,,,,,,,,,,,,,,,,93,0,665.4599,666.7092,z,1,1.2388,,[],[],[],[],[],[],[],666.7092,668.7091,668.7092,668.7093,[],[],[],[],[],[],[],,,,668.7093,668.7094,0.043376736,-0.456766493,0,0,0,,0,92,92,57,1,4,TL,etidor,print,etidor_p.png,,,,
,,,,32271,001,2025-10-19_16h54.22.032,HW_LDT_1,2024.2.4,MacIntel,59.88023952,,,,,,,,,,,,,,,,,,,,,668.7106,668.91,668.9101,669.4091,,,,,,,,,,,,,,4.9153,0,,,,,,,,,,,,,,m,,,,,,,,,,,,,,,,94,0,669.4097,674.3268,z,0,4.9153,,[],[],[],[],[],[],[],674.3269,676.3269,676.3269,676.3271,[],[],[],[],[],[],[],,,,676.3271,676.3271,0.043376736,-0.456766493,0,0,0,,0,93,93,116,1,4,word,MARGINAL,cursive,marginal_c.png,,,,
,,,,32271,001,2025-10-19_16h54.22.032,HW_LDT_1,2024.2.4,MacIntel,59.88023952,,,,,,,,,,,,,,,,,,,,,676.3285,676.5267,676.5267,677.0267,,,,,,,,,,,,,,0.8802,1,,,,,,,,,,,,,,m,,,,,,,,,,,,,,,,95,0,677.0271,677.91,m,1,0.8802,,[],[],[],[],[],[],[],677.91,679.9101,679.9102,679.9103,[],[],[],[],[],[],[],,,,679.9103,679.9104,0.043376736,-0.456766493,0,0,0,,0,94,94,106,1,4,word,ELABORATE,cursive,elaborate_c.png,,,,
,,,,32271,001,2025-10-19_16h54.22.032,HW_LDT_1,2024.2.4,MacIntel,59.88023952,,,,,,,,,,,,,,,,,,,,,679.9115,680.1092,680.1093,680.6102,,,,,,,,,,,,,,1.1693,1,,,,,,,,,,,,,,z,,,,,,,,,,,,,,,,96,0,680.6107,681.7927,z,1,1.1693,,[],[],[],[],[],[],[],681.7928,683.7936,683.7936,683.7938,[],[],[],[],[],[],[],,,,683.7938,683.7939,0.043376736,-0.456766493,0,0,0,,0,95,95,21,1,4,RL,insibate,print,insibate_p.png,,,,
,,,,32271,001,2025-10-19_16h54.22.032,HW_LDT_1,2024.2.4,MacIntel,59.88023952,,,,,,,,,,,,,,,,,,,,,683.7951,683.9935,683.9935,684.4935,,,,,,,,,,,,,,5.5364,1,,,,,,,,,,,,,,z,,,,,,,,,,,,,,,,97,0,684.4942,690.0435,z,1,5.5364,,[],[],[],[],[],[],[],690.0436,692.0435,692.0435,692.0437,[],[],[],[],[],[],[],,,,692.0437,692.0437,0.043376736,-0.456766493,0,0,0,,0,96,96,2,1,4,RL,asiral,cursive,asiral_c.png,,,,
,,,,32271,001,2025-10-19_16h54.22.032,HW_LDT_1,2024.2.4,MacIntel,59.88023952,,,,,,,,,,,,,,,,,,,,,692.0449,692.2435,692.2435,692.7435,,,,,,,,,,,,,,0.9558,1,,,,,,,,,,,,,,m,,,,,,,,,,,,,,,,98,0,692.7441,693.7102,m,1,0.9558,,[],[],[],[],[],[],[],693.7102,695.7103,695.7104,695.7105,[],[],[],[],[],[],[],,,,695.7106,695.7106,0.043376736,-0.456766493,0,0,0,,0,97,97,131,1,4,word,POPULAR,print,popular_p.png,,,,
,,,,32271,001,2025-10-19_16h54.22.032,HW_LDT_1,2024.2.4,MacIntel,59.88023952,,,,,,,,,,,,,,,,,,,,,695.7118,695.9099,695.9099,696.4101,,,,,,,,,,,,,,1.0692,1,,,,,,,,,,,,,,z,,,,,,,,,,,,,,,,99,0,696.4106,697.4937,z,1,1.0692,,[],[],[],[],[],[],[],697.4938,699.493,699.493,699.4932,[],[],[],[],[],[],[],,,,699.4932,699.4933,0.043376736,-0.456766493,0,0,0,,0,98,98,47,1,4,RL,stopave,print,stopave_p.png,,,,
,,,,32271,001,2025-10-19_16h54.22.032,HW_LDT_1,2024.2.4,MacIntel,59.88023952,,,,,,,,,,,,,,,,,,,,,699.4941,699.6931,699.6931,700.1935,,,,,,,,,,,,,,2.1398,1,,,,,,,,,,,,,,m,,,,,,,,,,,,,,,,100,0,700.194,702.3432,m,1,2.1398,,[],[],[],[],[],[],[],702.3433,704.3436,704.3436,704.3438,[],[],[],[],[],[],[],,,,704.3438,704.344,0.043376736,-0.456766493,0,0,0,,0,99,99,155,1,4,word,STRATEGY,print,strategy_p.png,,,,
,,,,32271,001,2025-10-19_16h54.22.032,HW_LDT_1,2024.2.4,MacIntel,59.88023952,,,,,,,,,,,,,,,,,,,,,704.3451,704.5427,704.5427,705.0435,,,,,,,,,,,,,,1.6856,0,,,,,,,,,,,,,,m,,,,,,,,,,,,,,,,101,0,705.0439,706.7437,z,0,1.6856,,[],[],[],[],[],[],[],706.7438,708.7436,708.7436,708.7437,[],[],[],[],[],[],[],,,,708.7438,708.744,0.043376736,-0.456766493,0,0,0,,0,100,100,108,1,4,word,FORTUNE,cursive,fortune_c.png,,,,
,,,,32271,001,2025-10-19_16h54.22.032,HW_LDT_1,2024.2.4,MacIntel,59.88023952,,,,,,,,,,,,,,,,,,,,,708.745,708.9436,708.9436,709.4436,,,,,,,,,,,,,,1.3198,1,,,,,,,,,,,,,,m,,,,,,,,,,,,,,,,102,0,709.4441,710.7766,m,1,1.3198,,[],[],[],[],[],[],[],710.7767,712.777,712.777,712.7771,[],[],[],[],[],[],[],,,,712.7773,712.7773,0.043376736,-0.456766493,0,0,0,,0,101,101,104,1,4,word,DOMINANT,cursive,dominant_c.png,,,,
,,,,32271,001,2025-10-19_16h54.22.032,HW_LDT_1,2024.2.4,MacIntel,59.88023952,,,,,,,,,,,,,,,,,,,,,712.7787,712.9769,712.977,713.4769,,,,,,,,,,,,,,1.0689,1,,,,,,,,,,,,,,m,,,,,,,,,,,,,,,,103,0,713.4775,714.5603,m,1,1.0689,,[],[],[],[],[],[],[],714.5604,716.5603,716.5603,716.5605,[],[],[],[],[],[],[],,,,716.5606,716.5606,0.043376736,-0.456766493,0,0,0,,0,102,102,100,1,4,word,DECADE,cursive,decade_c.png,,,,
,,,,32271,001,2025-10-19_16h54.22.032,HW_LDT_1,2024.2.4,MacIntel,59.88023952,,,,,,,,,,,,,,,,,,,,,716.5619,716.7604,716.7604,717.2603,,,,,,,,,,,,,,1.3082,1,,,,,,,,,,,,,,m,,,,,,,,,,,,,,,,104,0,717.2607,718.5759,m,1,1.3082,,[],[],[],[],[],[],[],718.5759,720.5769,720.577,720.5771,[],[],[],[],[],[],[],,,,720.5772,720.5772,0.043376736,-0.456766493,0,0,0,,0,103,103,98,1,4,word,CRIMINAL,cursive,criminal_c.png,,,,
,,,,32271,001,2025-10-19_16h54.22.032,HW_LDT_1,2024.2.4,MacIntel,59.88023952,,,,,,,,,,,,,,,,,,,,,720.5782,720.7769,720.7769,721.2766,,,,,,,,,,,,,,0.8367,1,,,,,,,,,,,,,,m,,,,,,,,,,,,,,,,105,0,721.2768,722.1265,m,1,0.8367,,[],[],[],[],[],[],[],722.1266,724.1269,724.1269,724.1271,[],[],[],[],[],[],[],,,,724.1271,724.1272,0.043376736,-0.456766493,0,0,0,,0,104,104,128,1,4,word,PACIFIC,cursive,pacific_c.png,,,,
,,,,32271,001,2025-10-19_16h54.22.032,HW_LDT_1,2024.2.4,MacIntel,59.88023952,,,,,,,,,,,,,,,,,,,,,724.1283,724.3269,724.3269,724.8269,,,,,,,,,,,,,,0.9046,1,,,,,,,,,,,,,,m,,,,,,,,,,,,,,,,106,0,724.8274,725.7437,m,1,0.9046,,[],[],[],[],[],[],[],725.7437,727.7437,727.7438,727.7439,[],[],[],[],[],[],[],,,,727.744,727.7441,0.043376736,-0.456766493,0,0,0,,0,105,105,97,1,4,word,COVERAGE,cursive,coverage_c.png,,,,
,,,,32271,001,2025-10-19_16h54.22.032,HW_LDT_1,2024.2.4,MacIntel,59.88023952,,,,,,,,,,,,,,,,,,,,,727.7454,727.9436,727.9436,728.4437,,,,,,,,,,,,,,1.7553,1,,,,,,,,,,,,,,z,,,,,,,,,,,,,,,,107,0,728.444,730.2104,z,1,1.7553,,[],[],[],[],[],[],[],730.2106,732.2105,732.2105,732.2107,[],[],[],[],[],[],[],,,,732.2108,732.2108,0.043376736,-0.456766493,0,0,0,,0,106,106,73,1,4,TL,regilion,print,regilion_p.png,,,,
,,,,32271,001,2025-10-19_16h54.22.032,HW_LDT_1,2024.2.4,MacIntel,59.88023952,,,,,,,,,,,,,,,,,,,,,732.2124,732.4103,732.4104,732.9102,,,,,,,,,,,,,,2.2736,1,,,,,,,,,,,,,,z,,,,,,,,,,,,,,,,108,1,732.9106,735.1936,z,1,2.2736,,[],[],[],[],[],[],[],735.1937,737.1937,737.1937,738.7437,[],[],[],[],[],[],[],z,1.5377,,738.7437,738.7439,0.043376736,-0.456766493,0,0,0,,0,107,107,66,1,4,TL,opmital,print,opmital_p.png,,,,
,,,,32271,001,2025-10-19_16h54.22.032,HW_LDT_1,2024.2.4,MacIntel,59.88023952,,,,,,,,,,,,,,,,,,,,,738.7448,738.9435,738.9436,739.4437,,,,,,,,,,,,,,10.0371,1,,,,,,,,,,,,,,z,,,,,,,,,,,,,,,,109,0,739.4442,749.4938,z,1,10.0371,,[],[],[],[],[],[],[],749.4939,751.4935,751.4936,751.4937,[],[],[],[],[],[],[],,,,751.4938,751.4938,0.043376736,-0.456766493,0,0,0,,0,108,108,37,1,4,RL,renutal,cursive,renutal_c.png,,,,
,,,,32271,001,2025-10-19_16h54.22.032,HW_LDT_1,2024.2.4,MacIntel,59.88023952,,,,,,,,,,,,,,,,,,,,,751.4952,751.6938,751.6938,752.1938,,,,,,,,,,,,,,3.302,1,,,,,,,,,,,,,,z,,,,,,,,,,,,,,,,110,1,752.1943,755.5103,z,1,3.302,,[],[],[],[],[],[],[],755.5104,757.5102,757.5102,758.4936,[],[],[],[],[],[],[],z,0.9745,,758.4937,758.4938,0.043376736,-0.456766493,0,0,0,,0,109,109,35,1,4,RL,probice,cursive,probice_c.png,,,,
,,,,32271,001,2025-10-19_16h54.22.032,HW_LDT_1,2024.2.4,MacIntel,59.88023952,,,,,,,,,,,,,,,,,,,,,758.495,758.6937,758.6937,759.1937,,,,,,,,,,,,,,1.3251,1,,,,,,,,,,,,,,z,,,,,,,,,,,,,,,,111,0,759.1941,760.5271,z,1,1.3251,,[],[],[],[],[],[],[],760.5271,762.5264,762.5264,762.5265,[],[],[],[],[],[],[],,,,762.5266,762.5267,0.043376736,-0.456766493,0,0,0,,0,110,110,26,1,4,RL,mesibine,cursive,mesibine_c.png,,,,
,,,,32271,001,2025-10-19_16h54.22.032,HW_LDT_1,2024.2.4,MacIntel,59.88023952,,,,,,,,,,,,,,,,,,,,,762.5279,762.7272,762.7272,763.2268,,,,,,,,,,,,,,2.2314,1,,,,,,,,,,,,,,z,,,,,,,,,,,,,,,,112,0,763.2272,765.4603,z,1,2.2314,,[],[],[],[],[],[],[],765.4604,767.4605,767.4605,767.4606,[],[],[],[],[],[],[],,,,767.4606,767.4608,0.043376736,-0.456766493,0,0,0,,0,111,111,36,1,4,RL,rabigly,cursive,rabigly_c.png,,,,
,,,,32271,001,2025-10-19_16h54.22.032,HW_LDT_1,2024.2.4,MacIntel,59.88023952,,,,,,,,,,,,,,,,,,,,,767.4618,767.6605,767.6606,768.1604,,,,,,,,,,,,,,1.0321,1,,,,,,,,,,,,,,m,,,,,,,,,,,,,,,,113,1,768.161,769.1937,m,1,1.0321,,[],[],[],[],[],[],[],769.1937,771.1933,771.1933,772.0436,[],[],[],[],[],[],[],z,0.8376,,772.0437,772.0438,0.043376736,-0.456766493,0,0,0,,0,112,112,83,1,4,word,ANIMAL,cursive,animal_c.png,,,,
,,,,32271,001,2025-10-19_16h54.22.032,HW_LDT_1,2024.2.4,MacIntel,59.88023952,,,,,,,,,,,,,,,,,,,,,772.0448,772.2437,772.2438,772.7438,,,,,,,,,,,,,,6.2871,1,,,,,,,,,,,,,,z,,,,,,,,,,,,,,,,114,0,772.7442,779.0438,z,1,6.2871,,[],[],[],[],[],[],[],779.0439,781.0438,781.0438,781.044,[],[],[],[],[],[],[],,,,781.0441,781.0441,0.043376736,-0.456766493,0,0,0,,0,113,113,13,1,4,RL,crisival,cursive,crisival_c.png,,,,
,,,,32271,001,2025-10-19_16h54.22.032,HW_LDT_1,2024.2.4,MacIntel,59.88023952,,,,,,,,,,,,,,,,,,,,,781.0451,781.2432,781.2432,781.7435,,,,,,,,,,,,,,6.1208,1,,,,,,,,,,,,,,z,,,,,,,,,,,,,,,,115,0,781.7438,787.8771,z,1,6.1208,,[],[],[],[],[],[],[],787.8772,789.8762,789.8763,789.8764,[],[],[],[],[],[],[],,,,789.8765,789.8767,0.043376736,-0.456766493,0,0,0,,0,114,114,10,1,4,RL,carminal,cursive,carminal_c.png,,,,
,,,,32271,001,2025-10-19_16h54.22.032,HW_LDT_1,2024.2.4,MacIntel,59.88023952,,,,,,,,,,,,,,,,,,,,,789.8778,790.0759,790.0759,790.5762,,,,,,,,,,,,,,0.7202,1,,,,,,,,,,,,,,m,,,,,,,,,,,,,,,,116,0,790.5765,791.3105,m,1,0.7202,,[],[],[],[],[],[],[],791.3106,793.3096,793.3097,793.3098,[],[],[],[],[],[],[],,,,793.3099,793.3099,0.043376736,-0.456766493,0,0,0,,0,115,115,136,1,4,word,RADICAL,print,radical_p.png,,,,
,,,,32271,001,2025-10-19_16h54.22.032,HW_LDT_1,2024.2.4,MacIntel,59.88023952,,,,,,,,,,,,,,,,,,,,,793.3112,793.5105,793.5106,794.0105,,,,,,,,,,,,,,3.0379,1,,,,,,,,,,,,,,m,,,,,,,,,,,,,,,,117,1,794.011,797.0605,m,1,3.0379,,[],[],[],[],[],[],[],797.0606,799.0596,799.0596,800.7266,[],[],[],[],[],[],[],z,1.657,,800.7267,800.7269,0.043376736,-0.456766493,0,0,0,,0,116,116,81,1,4,word,ADVISORY,cursive,advisory_c.png,,,,
,,,,32271,001,2025-10-19_16h54.22.032,HW_LDT_1,2024.2.4,MacIntel,59.88023952,,,,,,,,,,,,,,,,,,,,,800.728,800.9272,800.9272,801.4263,,,,,,,,,,,,,,0.9033,1,,,,,,,,,,,,,,z,,,,,,,,,,,,,,,,118,0,801.4266,802.3439,z,1,0.9033,,[],[],[],[],[],[],[],802.3439,804.343,804.343,804.3432,[],[],[],[],[],[],[],,,,804.3432,804.3434,0.043376736,-0.456766493,0,0,0,,0,117,117,54,1,4,TL,codemy,print,codemy_p.png,,,,
,,,,32271,001,2025-10-19_16h54.22.032,HW_LDT_1,2024.2.4,MacIntel,59.88023952,,,,,,,,,,,,,,,,,,,,,804.3445,804.543,804.5431,805.0439,,,,,,,,,,,,,,2.0201,1,,,,,,,,,,,,,,z,,,,,,,,,,,,,,,,119,0,805.0443,807.0773,z,1,2.0201,,[],[],[],[],[],[],[],807.0774,809.0763,809.0764,809.0765,[],[],[],[],[],[],[],,,,809.0765,809.0766,0.043376736,-0.456766493,0,0,0,,0,118,118,45,1,4,RL,spetisic,cursive,spetisic_c.png,,,,
,,,,32271,001,2025-10-19_16h54.22.032,HW_LDT_1,2024.2.4,MacIntel,59.88023952,,,,,,,,,,,,,,,,,,,,,809.0775,809.2772,809.2772,809.7773,,,,,,,,,,,,,,0.7649,1,,,,,,,,,,,,,,m,,,,,,,,,,,,,,,,120,0,809.7778,810.5439,m,1,0.7649,,[],[],[],[],[],[],[],810.544,812.5429,812.5429,812.5431,[],[],[],[],[],[],[],,,,812.5432,812.5432,0.043376736,-0.456766493,0,0,0,,0,119,119,146,1,4,word,RETIRE,print,retire_p.png,,,,
,,,,32271,001,2025-10-19_16h54.22.032,HW_LDT_1,2024.2.4,MacIntel,59.88023952,,,,,,,,,,,,,,,,,,,,,812.5441,812.744,812.744,813.2438,,,,,,,,,,,,,,2.8864,1,,,,,,,,,,,,,,m,,,,,,,,,,,,,,,,121,0,813.2444,816.144,m,1,2.8864,,[],[],[],[],[],[],[],816.144,818.1436,818.1437,818.1438,[],[],[],[],[],[],[],,,,818.1438,818.1438,0.043376736,-0.456766493,0,0,0,,0,120,120,91,1,4,word,CARDINAL,cursive,cardinal_c.png,,,,
,,,,32271,001,2025-10-19_16h54.22.032,HW_LDT_1,2024.2.4,MacIntel,59.88023952,,,,,,,,,,,,,,,,,,,,,818.1448,818.3439,818.344,818.8439,,,,,,,,,,,,,,1.3871,1,,,,,,,,,,,,,,z,,,,,,,,,,,,,,,,122,0,818.8444,820.243,z,1,1.3871,,[],[],[],[],[],[],[],820.2432,822.244,822.244,822.2442,[],[],[],[],[],[],[],,,,822.2443,822.2444,0.043376736,-0.456766493,0,0,0,,0,121,121,8,1,4,RL,casagity,cursive,casagity_c.png,,,,
,,,,32271,001,2025-10-19_16h54.22.032,HW_LDT_1,2024.2.4,MacIntel,59.88023952,,,,,,,,,,,,,,,,,,,,,822.2457,822.4439,822.444,822.9439,,,,,,,,,,,,,,1.0191,1,,,,,,,,,,,,,,m,,,,,,,,,,,,,,,,123,0,822.9444,823.9764,m,1,1.0191,,[],[],[],[],[],[],[],823.9766,825.9772,825.9773,825.9774,[],[],[],[],[],[],[],,,,825.9775,825.9776,0.043376736,-0.456766493,0,0,0,,0,122,122,94,1,4,word,CLINICAL,print,clinical_p.png,,,,
,,,,32271,001,2025-10-19_16h54.22.032,HW_LDT_1,2024.2.4,MacIntel,59.88023952,,,,,,,,,,,,,,,,,,,,,825.9785,826.1773,826.1774,826.6773,,,,,,,,,,,,,,0.72,1,,,,,,,,,,,,,,z,,,,,,,,,,,,,,,,124,0,826.6777,827.4103,z,1,0.72,,[],[],[],[],[],[],[],827.4103,829.4098,829.4098,829.4099,[],[],[],[],[],[],[],,,,829.41,829.41,0.043376736,-0.456766493,0,0,0,,0,123,123,9,1,4,RL,cafigal,print,cafigal_p.png,,,,
,,,,32271,001,2025-10-19_16h54.22.032,HW_LDT_1,2024.2.4,MacIntel,59.88023952,,,,,,,,,,,,,,,,,,,,,829.4111,829.6108,829.6108,830.1107,,,,,,,,,,,,,,1.0531,1,,,,,,,,,,,,,,m,,,,,,,,,,,,,,,,125,0,830.1113,831.1768,m,1,1.0531,,[],[],[],[],[],[],[],831.1769,833.1771,833.1772,833.1773,[],[],[],[],[],[],[],,,,833.1773,833.1774,0.043376736,-0.456766493,0,0,0,,0,124,124,84,1,4,word,BELOVED,print,beloved_p.png,,,,
,,,,32271,001,2025-10-19_16h54.22.032,HW_LDT_1,2024.2.4,MacIntel,59.88023952,,,,,,,,,,,,,,,,,,,,,833.1785,833.3773,833.3773,833.8773,,,,,,,,,,,,,,0.685,1,,,,,,,,,,,,,,m,,,,,,,,,,,,,,,,126,0,833.8777,834.5774,m,1,0.685,,[],[],[],[],[],[],[],834.5775,836.5774,836.5774,836.5775,[],[],[],[],[],[],[],,,,836.5775,836.5776,0.043376736,-0.456766493,0,0,0,,0,125,125,107,1,4,word,EVIDENT,print,evident_p.png,,,,
,,,,32271,001,2025-10-19_16h54.22.032,HW_LDT_1,2024.2.4,MacIntel,59.88023952,,,,,,,,,,,,,,,,,,,,,836.5786,836.7765,836.7766,837.277,,,,,,,,,,,,,,0.5647,1,,,,,,,,,,,,,,m,,,,,,,,,,,,,,,,127,0,837.2774,837.844,m,1,0.5647,,[],[],[],[],[],[],[],837.8441,839.8432,839.8432,839.8433,[],[],[],[],[],[],[],,,,839.8433,839.8435,0.043376736,-0.456766493,0,0,0,,0,126,126,150,1,4,word,SENTIMENT,print,sentiment_p.png,,,,
,,,,32271,001,2025-10-19_16h54.22.032,HW_LDT_1,2024.2.4,MacIntel,59.88023952,,,,,,,,,,,,,,,,,,,,,839.8444,840.043,840.0431,840.544,,,,,,,,,,,,,,0.4695,1,,,,,,,,,,,,,,m,,,,,,,,,,,,,,,,128,0,840.5444,841.0264,m,1,0.4695,,[],[],[],[],[],[],[],841.0265,843.0274,843.0275,843.0276,[],[],[],[],[],[],[],,,,843.0277,843.0279,0.043376736,-0.456766493,0,0,0,,0,127,127,122,1,4,word,MOBILE,print,mobile_p.png,,,,
,,,,32271,001,2025-10-19_16h54.22.032,HW_LDT_1,2024.2.4,MacIntel,59.88023952,,,,,,,,,,,,,,,,,,,,,843.0293,843.2275,843.2276,843.7271,,,,,,,,,,,,,,0.4748,0,,,,,,,,,,,,,,z,,,,,,,,,,,,,,,,129,0,843.7276,844.2099,m,0,0.4748,,[],[],[],[],[],[],[],844.2099,846.2098,846.2099,846.21,[],[],[],[],[],[],[],,,,846.2101,846.2101,0.043376736,-0.456766493,0,0,0,,0,128,128,62,1,4,TL,locigal,print,locigal_p.png,,,,
,,,,32271,001,2025-10-19_16h54.22.032,HW_LDT_1,2024.2.4,MacIntel,59.88023952,,,,,,,,,,,,,,,,,,,,,846.2111,846.4103,846.4103,846.9107,,,,,,,,,,,,,,0.9686,1,,,,,,,,,,,,,,z,,,,,,,,,,,,,,,,130,1,846.9112,847.8941,z,1,0.9686,,[],[],[],[],[],[],[],847.8941,849.894,849.894,852.56,[],[],[],[],[],[],[],z,2.6522,,852.56,852.5601,0.043376736,-0.456766493,0,0,0,,0,129,129,76,1,4,TL,setanor,print,setanor_p.png,,,,
,,,,32271,001,2025-10-19_16h54.22.032,HW_LDT_1,2024.2.4,MacIntel,59.88023952,,,,,,,,,,,,,,,,,,,,,852.5607,852.7608,852.7608,853.2607,,,,,,,,,,,,,,2.303,1,,,,,,,,,,,,,,z,,,,,,,,,,,,,,,,131,0,853.261,855.5775,z,1,2.303,,[],[],[],[],[],[],[],855.5776,857.5775,857.5775,857.5777,[],[],[],[],[],[],[],,,,857.5777,857.5778,0.043376736,-0.456766493,0,0,0,,0,130,130,71,1,4,TL,racidal,print,racidal_p.png,,,,
,,,,32271,001,2025-10-19_16h54.22.032,HW_LDT_1,2024.2.4,MacIntel,59.88023952,,,,,,,,,,,,,,,,,,,,,857.5788,857.7771,857.7771,858.2775,,,,,,,,,,,,,,0.9192,1,,,,,,,,,,,,,,m,,,,,,,,,,,,,,,,132,0,858.2781,859.2108,m,1,0.9192,,[],[],[],[],[],[],[],859.2109,861.2104,861.2105,861.2106,[],[],[],[],[],[],[],,,,861.2107,861.2107,0.043376736,-0.456766493,0,0,0,,0,131,131,130,1,4,word,POLICY,cursive,policy_c.png,,,,
,,,,32271,001,2025-10-19_16h54.22.032,HW_LDT_1,2024.2.4,MacIntel,59.88023952,,,,,,,,,,,,,,,,,,,,,861.2118,861.4098,861.4099,861.9107,,,,,,,,,,,,,,1.2863,1,,,,,,,,,,,,,,z,,,,,,,,,,,,,,,,133,0,861.9111,863.2099,z,1,1.2863,,[],[],[],[],[],[],[],863.21,865.2102,865.2103,865.2104,[],[],[],[],[],[],[],,,,865.2104,865.2104,0.043376736,-0.456766493,0,0,0,,0,132,132,64,1,4,TL,moredate,print,moredate_p.png,,,,
,,,,32271,001,2025-10-19_16h54.22.032,HW_LDT_1,2024.2.4,MacIntel,59.88023952,,,,,,,,,,,,,,,,,,,,,865.2115,865.41,865.41,865.9107,,,,,,,,,,,,,,2.3201,1,,,,,,,,,,,,,,z,,,,,,,,,,,,,,,,134,0,865.9111,868.2442,z,1,2.3201,,[],[],[],[],[],[],[],868.2443,870.2442,870.2443,870.2444,[],[],[],[],[],[],[],,,,870.2444,870.2445,0.043376736,-0.456766493,0,0,0,,0,133,133,12,1,4,RL,conbicer,cursive,conbicer_c.png,,,,
,,,,32271,001,2025-10-19_16h54.22.032,HW_LDT_1,2024.2.4,MacIntel,59.88023952,,,,,,,,,,,,,,,,,,,,,870.2455,870.4441,870.4441,870.944,,,,,,,,,,,,,,1.8532,1,,,,,,,,,,,,,,z,,,,,,,,,,,,,,,,135,0,870.9444,872.8108,z,1,1.8532,,[],[],[],[],[],[],[],872.8109,874.8108,874.8109,874.811,[],[],[],[],[],[],[],,,,874.811,874.8111,0.043376736,-0.456766493,0,0,0,,0,134,134,14,1,4,RL,delahe,cursive,delahe_c.png,,,,
,,,,32271,001,2025-10-19_16h54.22.032,HW_LDT_1,2024.2.4,MacIntel,59.88023952,,,,,,,,,,,,,,,,,,,,,874.812,875.0108,875.0108,875.5099,,,,,,,,,,,,,,0.903,1,,,,,,,,,,,,,,z,,,,,,,,,,,,,,,,136,1,875.5104,876.4276,z,1,0.903,,[],[],[],[],[],[],[],876.4277,878.4275,878.4276,879.6933,[],[],[],[],[],[],[],z,1.2528,,879.6934,879.6935,0.043376736,-0.456766493,0,0,0,,0,135,135,52,1,4,TL,cagetory,cursive,cagetory_c.png,,,,
,,,,32271,001,2025-10-19_16h54.22.032,HW_LDT_1,2024.2.4,MacIntel,59.88023952,,,,,,,,,,,,,,,,,,,,,879.6945,879.8941,879.8942,880.3941,,,,,,,,,,,,,,0.8689,1,,,,,,,,,,,,,,m,,,,,,,,,,,,,,,,137,0,880.3945,881.2776,m,1,0.8689,,[],[],[],[],[],[],[],881.2776,883.2775,883.2776,883.2777,[],[],[],[],[],[],[],,,,883.2777,883.2778,0.043376736,-0.456766493,0,0,0,,0,136,136,109,1,4,word,GRATEFUL,print,grateful_p.png,,,,
,,,,32271,001,2025-10-19_16h54.22.032,HW_LDT_1,2024.2.4,MacIntel,59.88023952,,,,,,,,,,,,,,,,,,,,,883.2788,883.4775,883.4775,883.9774,,,,,,,,,,,,,,0.8366,1,,,,,,,,,,,,,,z,,,,,,,,,,,,,,,,138,1,883.9777,884.8276,z,1,0.8366,,[],[],[],[],[],[],[],884.8276,886.8276,886.8276,888.0942,[],[],[],[],[],[],[],z,1.2545,,888.0943,888.0944,0.043376736,-0.456766493,0,0,0,,0,137,137,28,1,4,RL,mifikary,print,mifikary_p.png,,,,
,,,,32271,001,2025-10-19_16h54.22.032,HW_LDT_1,2024.2.4,MacIntel,59.88023952,,,,,,,,,,,,,,,,,,,,,888.0954,888.2942,888.2942,888.794,,,,,,,,,,,,,,2.2037,1,,,,,,,,,,,,,,z,,,,,,,,,,,,,,,,139,0,888.7945,891.0108,z,1,2.2037,,[],[],[],[],[],[],[],891.0109,893.0109,893.011,893.0111,[],[],[],[],[],[],[],,,,893.0112,893.0112,0.043376736,-0.456766493,0,0,0,,0,138,138,46,1,4,RL,skofen,cursive,skofen_c.png,,,,
,,,,32271,001,2025-10-19_16h54.22.032,HW_LDT_1,2024.2.4,MacIntel,59.88023952,,,,,,,,,,,,,,,,,,,,,893.0125,893.2109,893.2109,893.7102,,,,,,,,,,,,,,0.9889,1,,,,,,,,,,,,,,m,,,,,,,,,,,,,,,,140,0,893.7106,894.7107,m,1,0.9889,,[],[],[],[],[],[],[],894.7107,896.711,896.711,896.7111,[],[],[],[],[],[],[],,,,896.7111,896.7112,0.043376736,-0.456766493,0,0,0,,0,139,139,111,1,4,word,INDICATE,print,indicate_p.png,,,,
,,,,32271,001,2025-10-19_16h54.22.032,HW_LDT_1,2024.2.4,MacIntel,59.88023952,,,,,,,,,,,,,,,,,,,,,896.7123,896.9107,896.9108,897.4106,,,,,,,,,,,,,,0.6558,0,,,,,,,,,,,,,,z,,,,,,,,,,,,,,,,141,1,897.411,898.0774,m,0,0.6558,,[],[],[],[],[],[],[],898.0774,900.0777,900.0777,901.3277,[],[],[],[],[],[],[],m,1.2369,,901.3278,901.3279,0.043376736,-0.456766493,0,0,0,,0,140,140,53,1,4,TL,cemerony,print,cemerony_p.png,,,,
,,,,32271,001,2025-10-19_16h54.22.032,HW_LDT_1,2024.2.4,MacIntel,59.88023952,,,,,,,,,,,,,,,,,,,,,901.3289,901.5273,901.5274,902.0276,,,,,,,,,,,,,,3.3558,1,,,,,,,,,,,,,,m,,,,,,,,,,,,,,,,142,0,902.0281,905.3941,m,1,3.3558,,[],[],[],[],[],[],[],905.3941,907.3943,907.3944,907.3945,[],[],[],[],[],[],[],,,,907.3945,907.3946,0.043376736,-0.456766493,0,0,0,,0,141,141,138,1,4,word,REFUSAL,cursive,refusal_c.png,,,,
,,,,32271,001,2025-10-19_16h54.22.032,HW_LDT_1,2024.2.4,MacIntel,59.88023952,,,,,,,,,,,,,,,,,,,,,907.3959,907.5943,907.5943,908.0942,,,,,,,,,,,,,,0.9033,1,,,,,,,,,,,,,,z,,,,,,,,,,,,,,,,143,0,908.0946,909.0103,z,1,0.9033,,[],[],[],[],[],[],[],909.0103,911.0109,911.011,911.0111,[],[],[],[],[],[],[],,,,911.0111,911.0112,0.043376736,-0.456766493,0,0,0,,0,142,142,63,1,4,TL,miskate,print,miskate_p.png,,,,
,,,,32271,001,2025-10-19_16h54.22.032,HW_LDT_1,2024.2.4,MacIntel,59.88023952,,,,,,,,,,,,,,,,,,,,,911.0123,911.2109,911.211,911.71,,,,,,,,,,,,,,3.8893,1,,,,,,,,,,,,,,z,,,,,,,,,,,,,,,,144,1,911.7104,915.611,z,1,3.8893,,[],[],[],[],[],[],[],915.611,917.611,917.611,918.8109,[],[],[],[],[],[],[],z,1.1873,,918.8109,918.811,0.043376736,-0.456766493,0,0,0,,0,143,143,22,1,4,RL,linedal,cursive,linedal_c.png,,,,
,,,,32271,001,2025-10-19_16h54.22.032,HW_LDT_1,2024.2.4,MacIntel,59.88023952,,,,,,,,,,,,,,,,,,,,,918.8122,919.0109,919.0109,919.511,,,,,,,,,,,,,,2.1987,1,,,,,,,,,,,,,,m,,,,,,,,,,,,,,,,145,0,919.5115,921.711,m,1,2.1987,,[],[],[],[],[],[],[],921.711,923.711,923.711,923.7111,[],[],[],[],[],[],[],,,,923.7112,923.7113,0.043376736,-0.456766493,0,0,0,,0,144,144,124,1,4,word,NUMERICAL,cursive,numerical_c.png,,,,
,,,,32271,001,2025-10-19_16h54.22.032,HW_LDT_1,2024.2.4,MacIntel,59.88023952,,,,,,,,,,,,,,,,,,,,,923.7123,923.9109,923.911,924.411,,,,,,,,,,,,,,2.2099,1,,,,,,,,,,,,,,z,,,,,,,,,,,,,,,,146,0,924.4205,926.6445,z,1,2.2099,,[],[],[],[],[],[],[],926.6445,928.6444,928.6444,928.6446,[],[],[],[],[],[],[],,,,928.6446,928.6448,0.043376736,-0.456766493,0,0,0,,0,145,145,29,1,4,RL,motide,print,motide_p.png,,,,
,,,,32271,001,2025-10-19_16h54.22.032,HW_LDT_1,2024.2.4,MacIntel,59.88023952,,,,,,,,,,,,,,,,,,,,,928.6461,928.8445,928.8445,929.3443,,,,,,,,,,,,,,6.8822,1,,,,,,,,,,,,,,z,,,,,,,,,,,,,,,,147,0,929.3449,936.2279,z,1,6.8822,,[],[],[],[],[],[],[],936.228,938.2275,938.2275,938.2276,[],[],[],[],[],[],[],,,,938.2276,938.2277,0.043376736,-0.456766493,0,0,0,,0,146,146,50,1,4,RL,vecelan,cursive,vecelan_c.png,,,,
,,,,32271,001,2025-10-19_16h54.22.032,HW_LDT_1,2024.2.4,MacIntel,59.88023952,,,,,,,,,,,,,,,,,,,,,938.2285,938.4277,938.4278,938.9277,,,,,,,,,,,,,,1.9527,1,,,,,,,,,,,,,,m,,,,,,,,,,,,,,,,148,0,938.9282,940.8944,m,1,1.9527,,[],[],[],[],[],[],[],940.8945,942.8943,942.8944,942.8945,[],[],[],[],[],[],[],,,,942.8945,942.8947,0.043376736,-0.456766493,0,0,0,,0,147,147,127,1,4,word,ORIGINAL,print,original_p.png,,,,
,,,,32271,001,2025-10-19_16h54.22.032,HW_LDT_1,2024.2.4,MacIntel,59.88023952,,,,,,,,,,,,,,,,,,,,,942.8957,943.0943,943.0943,943.5944,,,,,,,,,,,,,,3.153,1,,,,,,,,,,,,,,m,,,,,,,,,,,,,,,,149,0,943.5949,946.7609,m,1,3.153,,[],[],[],[],[],[],[],946.761,948.761,948.761,948.7612,[],[],[],[],[],[],[],,,,948.7612,948.7612,0.043376736,-0.456766493,0,0,0,,0,148,148,126,1,4,word,OPTIMAL,print,optimal_p.png,,,,
,,,,32271,001,2025-10-19_16h54.22.032,HW_LDT_1,2024.2.4,MacIntel,59.88023952,,,,,,,,,,,,,,,,,,,,,948.7621,948.9611,948.9612,949.4612,,,,,,,,,,,,,,2.8545,1,,,,,,,,,,,,,,z,,,,,,,,,,,,,,,,150,0,949.4617,952.3278,z,1,2.8545,,[],[],[],[],[],[],[],952.3279,954.3277,954.3277,954.3278,[],[],[],[],[],[],[],,,,954.3279,954.328,0.043376736,-0.456766493,0,0,0,,0,149,149,7,1,4,RL,casena,print,casena_p.png,,,,
,,,,32271,001,2025-10-19_16h54.22.032,HW_LDT_1,2024.2.4,MacIntel,59.88023952,,,,,,,,,,,,,,,,,,,,,954.3288,954.5277,954.5277,955.0277,,,,,,,,,,,,,,1.6652,1,,,,,,,,,,,,,,z,,,,,,,,,,,,,,,,151,1,955.0282,956.6945,z,1,1.6652,,[],[],[],[],[],[],[],956.6945,958.694,958.694,963.3445,[],[],[],[],[],[],[],m,4.6388,,963.3446,963.3447,0.043376736,-0.456766493,0,0,0,,0,150,150,0,1,4,RL,abanemy,print,abanemy_p.png,,,,
,,,,32271,001,2025-10-19_16h54.22.032,HW_LDT_1,2024.2.4,MacIntel,59.88023952,,,,,,,,,,,,,,,,,,,,,963.3458,963.5445,963.5446,964.0445,,,,,,,,,,,,,,1.6859,1,,,,,,,,,,,,,,z,,,,,,,,,,,,,,,,152,0,964.045,965.7436,z,1,1.6859,,[],[],[],[],[],[],[],965.7437,967.7445,967.7445,967.7447,[],[],[],[],[],[],[],,,,967.7447,967.7448,0.043376736,-0.456766493,0,0,0,,0,151,151,74,1,4,TL,rerite,print,rerite_p.png,,,,
,,,,32271,001,2025-10-19_16h54.22.032,HW_LDT_1,2024.2.4,MacIntel,59.88023952,,,,,,,,,,,,,,,,,,,,,967.7459,967.9445,967.9445,968.4444,,,,,,,,,,,,,,1.9853,1,,,,,,,,,,,,,,z,,,,,,,,,,,,,,,,153,0,968.4448,970.4445,z,1,1.9853,,[],[],[],[],[],[],[],970.4446,972.4444,972.4444,972.4446,[],[],[],[],[],[],[],,,,972.4447,972.4447,0.043376736,-0.456766493,0,0,0,,0,152,152,78,1,4,TL,stragety,print,stragety_p.png,,,,
,,,,32271,001,2025-10-19_16h54.22.032,HW_LDT_1,2024.2.4,MacIntel,59.88023952,,,,,,,,,,,,,,,,,,,,,972.4457,972.6446,972.6446,973.1446,,,,,,,,,,,,,,1.9202,1,,,,,,,,,,,,,,m,,,,,,,,,,,,,,,,154,0,973.145,975.0778,m,1,1.9202,,[],[],[],[],[],[],[],975.078,977.0781,977.0782,977.0785,[],[],[],[],[],[],[],,,,977.0785,977.0786,0.043376736,-0.456766493,0,0,0,,0,153,153,117,1,4,word,MARINE,print,marine_p.png,,,,
,,,,32271,001,2025-10-19_16h54.22.032,HW_LDT_1,2024.2.4,MacIntel,59.88023952,,,,,,,,,,,,,,,,,,,,,977.0801,977.2779,977.2781,977.7779,,,,,,,,,,,,,,1.1379,1,,,,,,,,,,,,,,z,,,,,,,,,,,,,,,,155,0,977.7784,978.9277,z,1,1.1379,,[],[],[],[],[],[],[],978.9277,980.9278,980.9279,980.9281,[],[],[],[],[],[],[],,,,980.9281,980.9282,0.043376736,-0.456766493,0,0,0,,0,154,154,48,1,4,RL,vabifity,print,vabifity_p.png,,,,
,,,,32271,001,2025-10-19_16h54.22.032,HW_LDT_1,2024.2.4,MacIntel,59.88023952,,,,,,,,,,,,,,,,,,,,,980.9291,981.1278,981.1279,981.6281,,,,,,,,,,,,,,1.2684,1,,,,,,,,,,,,,,z,,,,,,,,,,,,,,,,156,0,981.6286,982.9111,z,1,1.2684,,[],[],[],[],[],[],[],982.9111,984.911,984.911,984.9111,[],[],[],[],[],[],[],,,,984.9111,984.9111,0.043376736,-0.456766493,0,0,0,,0,155,155,58,1,4,TL,edivent,print,edivent_p.png,,,,
,,,,32271,001,2025-10-19_16h54.22.032,HW_LDT_1,2024.2.4,MacIntel,59.88023952,,,,,,,,,,,,,,,,,,,,,984.9118,985.1112,985.1112,985.6112,,,,,,,,,,,,,,4.0531,1,,,,,,,,,,,,,,z,,,,,,,,,,,,,,,,157,0,985.6116,989.6777,z,1,4.0531,,[],[],[],[],[],[],[],989.6778,991.6778,991.6778,991.6779,[],[],[],[],[],[],[],,,,991.678,991.678,0.043376736,-0.456766493,0,0,0,,0,156,156,56,1,4,TL,donimant,cursive,donimant_c.png,,,,
,,,,32271,001,2025-10-19_16h54.22.032,HW_LDT_1,2024.2.4,MacIntel,59.88023952,,,,,,,,,,,,,,,,,,,,,991.679,991.878,991.878,992.3779,,,,,,,,,,,,,,0.771,1,,,,,,,,,,,,,,m,,,,,,,,,,,,,,,,158,0,992.3784,993.1613,m,1,0.771,,[],[],[],[],[],[],[],993.1613,995.1612,995.1613,995.1615,[],[],[],[],[],[],[],,,,995.1615,995.1616,0.043376736,-0.456766493,0,0,0,,0,157,157,119,1,4,word,MEMORY,print,memory_p.png,,,,
,,,,32271,001,2025-10-19_16h54.22.032,HW_LDT_1,2024.2.4,MacIntel,59.88023952,,,,,,,,,,,,,,,,,,,,,995.1628,995.3614,995.3614,995.8613,,,,,,,,,,,,,,1.2857,0,,,,,,,,,,,,,,m,,,,,,,,,,,,,,,,159,0,995.8619,997.1613,z,0,1.2857,,[],[],[],[],[],[],[],997.1614,999.161,999.161,999.1612,[],[],[],[],[],[],[],,,,999.1613,999.1613,0.043376736,-0.456766493,0,0,0,,0,158,158,113,1,4,word,LITERAL,cursive,literal_c.png,,,,
,,,,32271,001,2025-10-19_16h54.22.032,HW_LDT_1,2024.2.4,MacIntel,59.88023952,,,,,,,,,,,,,,,,,,,,,999.1628,999.3613,999.3613,999.8602,,,,,,,,,,,,,,0.9367,1,,,,,,,,,,,,,,m,,,,,,,,,,,,,,,,160,0,999.8606,1000.8109,m,1,0.9367,,[],[],[],[],[],[],[],1000.811,1002.8114,1002.8114,1002.8116,[],[],[],[],[],[],[],,,,1002.8117,1002.8117,0.043376736,-0.456766493,0,0,0,,0,159,159,153,1,4,word,STOLEN,cursive,stolen_c.png,,,,
,,,,32271,001,2025-10-19_16h54.22.032,HW_LDT_1,2024.2.4,MacIntel,59.88023952,,,,,,,,,,,,,,,,,,,,,,,,,,,,,,,,,,,,,,,,,,,,,,,,,,,,,,,,,,,,,,,,,,,,,,,,,,,,,,,,,,,,,,,,,,,,,,,,,,,,,,,,,,,,,,,,,,,,,,1002.8126,1007.8108
