counterbalance_lists.group,counterbalance_lists.remaining,get_list.started,get_list.stopped,participant,session,date,expName,psychopyVersion,OS,frameRate,Instructions.started,Instructions.stopped,key_resp.keys,key_resp.rt,key_resp.duration,instr_done_touch.x,instr_done_touch.y,instr_done_touch.leftButton,instr_done_touch.midButton,instr_done_touch.rightButton,start_instr.thisRepN,start_instr.thisTrialN,start_instr.thisN,start_instr.thisIndex,start_instr.ran,pageN,phase,instruct_text,has_image,instruct_image,showProgress.started,showProgress.stopped,fix.started,fix.stopped,prac.started,prac.stopped,response.keys,response.corr,touch_resp.x,touch_resp.y,touch_resp.leftButton,touch_resp.midButton,touch_resp.rightButton,touch_resp.time,touch_resp.clicked_name,rt,corr,feedback.started,feedback.stopped,trials.thisRepN,trials.thisTrialN,trials.thisN,trials.thisIndex,trials.ran,TrialID,StimulusType,Condition,PrimeDuration,Prime,Target,corrAns,Instructions_expt.started,Instructions_expt.stopped,key_resp_3.keys,instr_done_touch_3.x,instr_done_touch_3.y,instr_done_touch_3.leftButton,instr_done_touch_3.midButton,instr_done_touch_3.rightButton,instr_done_touch_3.clicked_name,instr_experiment.thisRepN,instr_experiment.thisTrialN,instr_experiment.thisN,instr_experiment.thisIndex,instr_experiment.ran,trialID,flag,maintask.started,maintask.stopped,key_resp_2.keys,key_resp_2.corr,targ_click.x,targ_click.y,targ_click.leftButton,targ_click.midButton,targ_click.rightButton,targ_click.time,targ_click.clicked_name,ITI.started,ITI.stopped,probe.started,probe.stopped,click_probe.x,click_probe.y,click_probe.leftButton,click_probe.midButton,click_probe.rightButton,click_probe.time,click_probe.clicked_name,key_resp_probe.keys,Break.started,Break.stopped,break_done_touch.x,break_done_touch.y,break_done_touch.leftButton,break_done_touch.midButton,break_done_touch.rightButton,break_done_keyboard.keys,list2_trials.thisRepN,list2_trials.thisTrialN,list2_trials.thisN,list2_trials.thisIndex,list2_trials.ran,list_id,item_type,string,font,stim_file,break_done_touch.clicked_name,End.started,End.stopped
list2,,5.301,5.301,32282,001,2025-12-02_21h23.16.809,HW_LDT_1,2024.2.4,MacIntel,40,,,,,,,,,,,,,,,,,,,,,,,,,,,,,,,,,,,,,,,,,,,,,,,,,,,,,,,,,,,,,,,,,,,,,,,,,,,,,,,,,,,,,,,,,,,,,,,,,,,,,,,,,,,,,,,
,,,,32282,001,2025-12-02_21h23.16.809,HW_LDT_1,2024.2.4,MacIntel,40,5.319,40.216,space,34.865,,0.00972973,-0.418918919,0,0,0,0,0,0,0,1,1,instructions,"INSTRUCTIONS
At the start of each trial, look at the plus sign  (+) in the center of the screen.  This tells you that a trial is about to begin and where to look. Second, the plus sign will disappear and a string of letters will appear. Your task is to determine if the string of letters is a word or not. If the item is a word press the M key (on keyboard)  or touch the word button (phone/tablet).  If the item is not a word,  press the  Z key (on keyboard)  or touch the nonword button (on phone/tablet). The items will be presented for a short time. 
Press the space bar or touch  continue.",0,,,,,,,,,,,,,,,,,,,,,,,,,,,,,,,,,,,,,,,,,,,,,,,,,,,,,,,,,,,,,,,,,,,,,,,,,,,,,,,,,,,,,,,,,,,,
,,,,32282,001,2025-12-02_21h23.16.809,HW_LDT_1,2024.2.4,MacIntel,40,40.22,48.278,space,8.03,,-0.744864865,0.501081081,0,0,0,0,1,1,1,1,2,instructions,"If your device has a keyboard, press the 'Z' key for nonwords and the 'M' key for words.





Press the space bar or touch the button below to continue.",0,keyboard-example.gif,,,,,,,,,,,,,,,,,,,,,,,,,,,,,,,,,,,,,,,,,,,,,,,,,,,,,,,,,,,,,,,,,,,,,,,,,,,,,,,,,,,,,,,,,,,
,,,,32282,001,2025-12-02_21h23.16.809,HW_LDT_1,2024.2.4,MacIntel,40,48.279,50.16,space,1.853,,-0.744864865,0.501081081,0,0,0,0,2,2,2,1,3,instructions,"If you are using a touchscreen only device, use the buttons on the screen. Do not use the mouse.





Press the space bar or touch the button below to continue.",0,touchscreen-example.gif,,,,,,,,,,,,,,,,,,,,,,,,,,,,,,,,,,,,,,,,,,,,,,,,,,,,,,,,,,,,,,,,,,,,,,,,,,,,,,,,,,,,,,,,,,,
,,,,32282,001,2025-12-02_21h23.16.809,HW_LDT_1,2024.2.4,MacIntel,40,50.161,53.91,space,3.721,,-0.744864865,0.501081081,0,0,0,0,3,3,3,1,4,instructions,"It is very important that you respond as quickly and accurately as possible, as each letter string will only be on the screen for two seconds. If you do not respond within this time, the message 'Too slow!' will be displayed and the experiment will progress to the next letter string. The first 20 trials will be practice trials and you will receive feedback on your answers. 

Press the space bar or touch the button below to start the practice trials.",0,,,,,,,,,,,,,,,,,,,,,,,,,,,,,,,,,,,,,,,,,,,,,,,,,,,,,,,,,,,,,,,,,,,,,,,,,,,,,,,,,,,,,,,,,,,,
,,,,32282,001,2025-12-02_21h23.16.809,HW_LDT_1,2024.2.4,MacIntel,40,,,,,,,,,,,,,,,,,,,,,53.93,54.104,54.104,54.604,54.605,58.698,,0,[-0.4702702702702703],[-0.29243243243243244],[1],[0],[0],[4.088999999999999],"[""button_left""]",4.089,1,58.699,59.205,0,0,0,15,1,1016,NW,UN,16,mushed,WHAISE,z,,,,,,,,,,,,,,,,,,,,,,,,,,,,,,,,,,,,,,,,,,,,,,,,,,,,,,,,,,,,
,,,,32282,001,2025-12-02_21h23.16.809,HW_LDT_1,2024.2.4,MacIntel,40,,,,,,,,,,,,,,,,,,,,,59.207,59.404,59.404,59.904,59.904,61.378,,0,[-0.46378378378378377],[-0.3075675675675676],[1],[0],[0],[1.4719999999999942],"[""button_left""]",1.472,1,61.378,61.871,0,1,1,14,1,1015,NW,UN,16,miaber,THRALE,z,,,,,,,,,,,,,,,,,,,,,,,,,,,,,,,,,,,,,,,,,,,,,,,,,,,,,,,,,,,,
,,,,32282,001,2025-12-02_21h23.16.809,HW_LDT_1,2024.2.4,MacIntel,40,,,,,,,,,,,,,,,,,,,,,61.874,62.071,62.071,62.571,62.571,63.544,,0,[0.5102702702702703],[-0.2891891891891892],[1],[0],[0],[0.9709999999999894],"[""button_right""]",0.971,1,63.544,64.037,0,2,2,3,1,1004,WORD,"ID",16,matrix,MATRIX,m,,,,,,,,,,,,,,,,,,,,,,,,,,,,,,,,,,,,,,,,,,,,,,,,,,,,,,,,,,,,
,,,,32282,001,2025-12-02_21h23.16.809,HW_LDT_1,2024.2.4,MacIntel,40,,,,,,,,,,,,,,,,,,,,,64.039,64.237,64.237,64.737,64.739,65.761,,0,[0.518918918918919],[-0.2913513513513514],[1],[0],[0],[1.0210000000000008],"[""button_right""]",1.021,1,65.761,66.254,0,3,3,1,1,1002,WORD,"ID",33,adjust,ADJUST,m,,,,,,,,,,,,,,,,,,,,,,,,,,,,,,,,,,,,,,,,,,,,,,,,,,,,,,,,,,,,
,,,,32282,001,2025-12-02_21h23.16.809,HW_LDT_1,2024.2.4,MacIntel,40,,,,,,,,,,,,,,,,,,,,,66.255,66.454,66.454,66.954,66.955,68.228,,0,[0.5221621621621622],[-0.28594594594594597],[1],[0],[0],[1.2710000000000008],"[""button_right""]",1.271,0,68.228,68.721,0,4,4,10,1,1011,NW,"ID",16,inlade,INLADE,z,,,,,,,,,,,,,,,,,,,,,,,,,,,,,,,,,,,,,,,,,,,,,,,,,,,,,,,,,,,,
,,,,32282,001,2025-12-02_21h23.16.809,HW_LDT_1,2024.2.4,MacIntel,40,,,,,,,,,,,,,,,,,,,,,68.722,68.921,68.921,69.422,69.423,70.178,,0,[0.52],[-0.2827027027027027],[1],[0],[0],[0.7530000000000001],"[""button_right""]",0.753,1,70.178,70.671,0,5,5,5,1,1006,WORD,UN,33,frenzy,OBTAIN,m,,,,,,,,,,,,,,,,,,,,,,,,,,,,,,,,,,,,,,,,,,,,,,,,,,,,,,,,,,,,
,,,,32282,001,2025-12-02_21h23.16.809,HW_LDT_1,2024.2.4,MacIntel,40,,,,,,,,,,,,,,,,,,,,,70.672,70.871,70.871,71.371,71.371,72.244,,0,[0.5156756756756756],[-0.28162162162162163],[1],[0],[0],[0.8709999999999951],"[""button_right""]",0.871,1,72.244,72.738,0,6,6,4,1,1005,WORD,UN,33,abound,SQUEAK,m,,,,,,,,,,,,,,,,,,,,,,,,,,,,,,,,,,,,,,,,,,,,,,,,,,,,,,,,,,,,
,,,,32282,001,2025-12-02_21h23.16.809,HW_LDT_1,2024.2.4,MacIntel,40,,,,,,,,,,,,,,,,,,,,,72.739,72.937,72.937,73.437,73.438,74.11,,0,[0.52],[-0.2664864864864865],[1],[0],[0],[0.6700000000000017],"[""button_right""]",0.67,1,74.111,74.604,0,7,7,6,1,1007,WORD,UN,16,tropic,ZOMBIE,m,,,,,,,,,,,,,,,,,,,,,,,,,,,,,,,,,,,,,,,,,,,,,,,,,,,,,,,,,,,,
,,,,32282,001,2025-12-02_21h23.16.809,HW_LDT_1,2024.2.4,MacIntel,40,,,,,,,,,,,,,,,,,,,,,74.606,74.804,74.804,75.304,75.305,76.11,,0,[-0.47243243243243244],[-0.3075675675675676],[1],[0],[0],[0.804000000000002],"[""button_left""]",0.804,1,76.111,76.604,0,8,8,13,1,1014,NW,UN,33,winfer,ROUPET,z,,,,,,,,,,,,,,,,,,,,,,,,,,,,,,,,,,,,,,,,,,,,,,,,,,,,,,,,,,,,
,,,,32282,001,2025-12-02_21h23.16.809,HW_LDT_1,2024.2.4,MacIntel,40,,,,,,,,,,,,,,,,,,,,,76.605,76.804,76.804,77.304,77.305,77.944,,0,[0.5243243243243243],[-0.26],[1],[0],[0],[0.6380000000000052],"[""button_right""]",0.638,1,77.944,78.438,0,9,9,7,1,1008,WORD,UN,16,hurdle,VOLUME,m,,,,,,,,,,,,,,,,,,,,,,,,,,,,,,,,,,,,,,,,,,,,,,,,,,,,,,,,,,,,
,,,,32282,001,2025-12-02_21h23.16.809,HW_LDT_1,2024.2.4,MacIntel,40,,,,,,,,,,,,,,,,,,,,,78.439,78.637,78.638,79.137,79.138,79.728,,0,[0.5221621621621622],[-0.2556756756756757],[1],[0],[0],[0.5879999999999939],"[""button_right""]",0.588,1,79.728,80.221,0,10,10,2,1,1003,WORD,"ID",16,almond,ALMOND,m,,,,,,,,,,,,,,,,,,,,,,,,,,,,,,,,,,,,,,,,,,,,,,,,,,,,,,,,,,,,
,,,,32282,001,2025-12-02_21h23.16.809,HW_LDT_1,2024.2.4,MacIntel,40,,,,,,,,,,,,,,,,,,,,,80.222,80.421,80.421,80.921,80.921,82.161,,0,[-0.48324324324324325],[-0.29027027027027025],[1],[0],[0],[1.2379999999999995],"[""button_left""]",1.238,1,82.161,82.654,0,11,11,12,1,1013,NW,UN,33,adveil,SPRINY,z,,,,,,,,,,,,,,,,,,,,,,,,,,,,,,,,,,,,,,,,,,,,,,,,,,,,,,,,,,,,
,,,,32282,001,2025-12-02_21h23.16.809,HW_LDT_1,2024.2.4,MacIntel,40,,,,,,,,,,,,,,,,,,,,,82.655,82.854,82.854,83.354,83.355,84.378,,0,[-0.4789189189189189],[-0.28594594594594597],[1],[0],[0],[1.0220000000000056],"[""button_left""]",1.022,1,84.378,84.871,0,12,12,8,1,1009,NW,"ID",33,aslert,ASLERT,z,,,,,,,,,,,,,,,,,,,,,,,,,,,,,,,,,,,,,,,,,,,,,,,,,,,,,,,,,,,,
,,,,32282,001,2025-12-02_21h23.16.809,HW_LDT_1,2024.2.4,MacIntel,40,,,,,,,,,,,,,,,,,,,,,84.872,85.071,85.071,85.571,85.571,86.445,,0,[-0.4864864864864865],[-0.2935135135135135],[1],[0],[0],[0.8719999999999999],"[""button_left""]",0.872,1,86.445,86.938,0,13,13,9,1,1010,NW,"ID",33,fariny,FARINY,z,,,,,,,,,,,,,,,,,,,,,,,,,,,,,,,,,,,,,,,,,,,,,,,,,,,,,,,,,,,,
,,,,32282,001,2025-12-02_21h23.16.809,HW_LDT_1,2024.2.4,MacIntel,40,,,,,,,,,,,,,,,,,,,,,86.939,87.138,87.138,87.637,87.638,88.46,,0,[-0.4854054054054054],[-0.26972972972972975],[1],[0],[0],[0.820999999999998],"[""button_left""]",0.821,1,88.46,88.954,0,14,14,11,1,1012,NW,"ID",16,rashet,RASHET,z,,,,,,,,,,,,,,,,,,,,,,,,,,,,,,,,,,,,,,,,,,,,,,,,,,,,,,,,,,,,
,,,,32282,001,2025-12-02_21h23.16.809,HW_LDT_1,2024.2.4,MacIntel,40,,,,,,,,,,,,,,,,,,,,,88.955,89.154,89.154,89.654,89.655,90.311,,0,[0.5156756756756756],[-0.2654054054054054],[1],[0],[0],[0.6549999999999869],"[""button_right""]",0.655,1,90.311,90.804,0,15,15,0,1,1001,WORD,"ID",33,utopia,UTOPIA,m,,,,,,,,,,,,,,,,,,,,,,,,,,,,,,,,,,,,,,,,,,,,,,,,,,,,,,,,,,,,
,,,,32282,001,2025-12-02_21h23.16.809,HW_LDT_1,2024.2.4,MacIntel,40,,,,,,,,,,,,,,,,1,end_of_practice,"You have completed the practice trials. During the experimental trials, you will not receive feedback. On some trials you will be asked to report whether the item you just saw was in cursive or print. 
Before you begin, please ensure that you are in a comfortable and quiet location and will not be disturbed for about 15 minutes, as we cannot use your data if you do not complete all the trials. 
 When you are ready to start the experimental trials, please press space or touch the button below.",,,,,,,,,,,,,,,,,,,,,,,,,,,,,,,,,,90.812,92.228,,0.151351351,-0.408108108,1,0,0,instr_done_button_3,0,0,0,0,1,,,,,,,,,,,,,,,,,,,,,,,,,,,,,,,,,,,,,,,,,,,,,,
,,,,32282,001,2025-12-02_21h23.16.809,HW_LDT_1,2024.2.4,MacIntel,40,,,,,,,,,,,,,,,,,,,,,92.242,92.421,92.421,92.921,,,,,,,,,,,,3.583,0,,,,,,,,,,,,,,z,,,,,,,,,,,,,,,1,0,92.922,96.511,,0,[0.4810810810810811],[-0.27945945945945944],[1],[0],[0],[3.5829999999999984],"[""button_right_main""]",96.512,98.504,98.505,98.51,[],[],[],[],[],[],[],,98.51,98.512,0.481081081,-0.279459459,0,0,0,,0,0,0,69,1,2,TL,resufal,cursive,resufal_c.png,,,
,,,,32282,001,2025-12-02_21h23.16.809,HW_LDT_1,2024.2.4,MacIntel,40,,,,,,,,,,,,,,,,,,,,,98.513,98.704,98.704,99.204,,,,,,,,,,,,1.405,1,,,,,,,,,,,,,,z,,,,,,,,,,,,,,,2,0,99.204,100.611,,0,[-0.4735135135135135],[-0.32054054054054054],[1],[0],[0],[1.4050000000000011],"[""button_left_main""]",100.611,102.604,102.604,102.604,[],[],[],[],[],[],[],,102.604,102.605,-0.473513514,-0.320540541,0,0,0,,0,1,1,6,1,2,RL,conbicer,print,conbicer_p.png,,,
,,,,32282,001,2025-12-02_21h23.16.809,HW_LDT_1,2024.2.4,MacIntel,40,,,,,,,,,,,,,,,,,,,,,102.605,102.804,102.804,103.304,,,,,,,,,,,,0.671,1,,,,,,,,,,,,,,m,,,,,,,,,,,,,,,3,0,103.305,103.977,,0,[0.5178378378378379],[-0.3291891891891892],[1],[0],[0],[0.6710000000000065],"[""button_right_main""]",103.977,105.971,105.971,105.971,[],[],[],[],[],[],[],,105.971,105.971,0.517837838,-0.329189189,0,0,0,,0,2,2,140,1,2,word,RELATIVE,print,relative_p.png,,,
,,,,32282,001,2025-12-02_21h23.16.809,HW_LDT_1,2024.2.4,MacIntel,40,,,,,,,,,,,,,,,,,,,,,105.972,106.171,106.172,106.671,,,,,,,,,,,,2.354,0,,,,,,,,,,,,,,z,,,,,,,,,,,,,,,4,0,106.672,109.028,,0,[0.47135135135135137],[-0.3054054054054054],[1],[0],[0],[2.353999999999999],"[""button_right_main""]",109.028,111.021,111.021,111.022,[],[],[],[],[],[],[],,111.022,111.022,0.471351351,-0.305405405,0,0,0,,0,3,3,34,1,2,RL,trilude,cursive,trilude_c.png,,,
,,,,32282,001,2025-12-02_21h23.16.809,HW_LDT_1,2024.2.4,MacIntel,40,,,,,,,,,,,,,,,,,,,,,111.023,111.221,111.221,111.721,,,,,,,,,,,,0.721,0,,,,,,,,,,,,,,z,,,,,,,,,,,,,,,5,0,111.721,112.443,,0,[0.5070270270270271],[-0.327027027027027],[1],[0],[0],[0.7210000000000036],"[""button_right_main""]",112.443,114.438,114.438,114.438,[],[],[],[],[],[],[],,114.438,114.438,0.507027027,-0.327027027,0,0,0,,0,4,4,68,1,2,TL,quatily,cursive,quatily_c.png,,,
,,,,32282,001,2025-12-02_21h23.16.809,HW_LDT_1,2024.2.4,MacIntel,40,,,,,,,,,,,,,,,,,,,,,114.439,114.638,114.638,115.138,,,,,,,,,,,,2.238,0,,,,,,,,,,,,,,z,,,,,,,,,,,,,,,6,0,115.138,117.377,,0,[0.4972972972972973],[-0.34216216216216216],[1],[0],[0],[2.2379999999999995],"[""button_right_main""]",117.377,119.371,119.371,119.371,[],[],[],[],[],[],[],,119.371,119.371,0.497297297,-0.342162162,0,0,0,,0,5,5,18,1,2,RL,mesibine,print,mesibine_p.png,,,
,,,,32282,001,2025-12-02_21h23.16.809,HW_LDT_1,2024.2.4,MacIntel,40,,,,,,,,,,,,,,,,,,,,,119.372,119.571,119.571,120.071,,,,,,,,,,,,0.822,1,,,,,,,,,,,,,,z,,,,,,,,,,,,,,,7,1,120.071,120.894,,0,[-0.4648648648648649],[-0.3183783783783784],[1],[0],[0],[0.8220000000000027],"[""button_left_main""]",120.895,122.888,122.888,127.678,[0.5437837837837838],[-0.3043243243243243],[1],[0],[0],[4.790000000000006],"[""button_right_probe""]",,127.679,127.679,0.543783784,-0.304324324,1,0,0,,0,6,6,43,1,2,TL,carema,print,carema_p.png,,,
,,,,32282,001,2025-12-02_21h23.16.809,HW_LDT_1,2024.2.4,MacIntel,40,,,,,,,,,,,,,,,,,,,,,127.68,127.871,127.871,128.371,,,,,,,,,,,,5.205,1,,,,,,,,,,,,,,z,,,,,,,,,,,,,,,8,0,128.371,133.578,,0,[-0.44216216216216214],[-0.27297297297297296],[1],[0],[0],[5.204999999999984],"[""button_left_main""]",133.578,135.571,135.571,135.572,[],[],[],[],[],[],[],,135.572,135.572,-0.442162162,-0.272972973,0,0,0,,0,7,7,20,1,2,RL,onegator,cursive,onegator_c.png,,,
,,,,32282,001,2025-12-02_21h23.16.809,HW_LDT_1,2024.2.4,MacIntel,40,,,,,,,,,,,,,,,,,,,,,135.573,135.771,135.771,136.271,,,,,,,,,,,,1.389,1,,,,,,,,,,,,,,z,,,,,,,,,,,,,,,9,0,136.272,137.662,,0,[-0.4821621621621622],[-0.312972972972973],[1],[0],[0],[1.3889999999999816],"[""button_left_main""]",137.662,139.655,139.655,139.655,[],[],[],[],[],[],[],,139.655,139.655,-0.482162162,-0.312972973,0,0,0,,0,8,8,0,1,2,RL,adnicory,print,adnicory_p.png,,,
,,,,32282,001,2025-12-02_21h23.16.809,HW_LDT_1,2024.2.4,MacIntel,40,,,,,,,,,,,,,,,,,,,,,139.656,139.854,139.854,140.355,,,,,,,,,,,,0.756,1,,,,,,,,,,,,,,m,,,,,,,,,,,,,,,10,0,140.355,141.111,,0,[0.5286486486486487],[-0.3227027027027027],[1],[0],[0],[0.7560000000000002],"[""button_right_main""]",141.111,143.104,143.105,143.105,[],[],[],[],[],[],[],,143.105,143.105,0.528648649,-0.322702703,0,0,0,,0,9,9,128,1,2,word,PACIFIC,print,pacific_p.png,,,
,,,,32282,001,2025-12-02_21h23.16.809,HW_LDT_1,2024.2.4,MacIntel,40,,,,,,,,,,,,,,,,,,,,,143.106,143.304,143.304,143.804,,,,,,,,,,,,3.039,0,,,,,,,,,,,,,,m,,,,,,,,,,,,,,,11,1,143.805,146.845,,0,[-0.4627027027027027],[-0.33783783783783783],[1],[0],[0],[3.0390000000000157],"[""button_left_main""]",146.845,148.838,148.838,150.496,[-0.4702702702702703],[-0.3],[1],[0],[0],[1.6569999999999823],"[""button_left_probe""]",,150.496,150.496,-0.47027027,-0.3,1,0,0,,0,10,10,120,1,2,word,MILITARY,cursive,military_c.png,,,
,,,,32282,001,2025-12-02_21h23.16.809,HW_LDT_1,2024.2.4,MacIntel,40,,,,,,,,,,,,,,,,,,,,,150.497,150.688,150.688,151.188,,,,,,,,,,,,4.989,0,,,,,,,,,,,,,,z,,,,,,,,,,,,,,,12,0,151.188,156.178,,0,[0.5113513513513513],[-0.34540540540540543],[1],[0],[0],[4.989000000000004],"[""button_right_main""]",156.179,158.171,158.171,158.172,[],[],[],[],[],[],[],,158.172,158.172,0.511351351,-0.345405405,0,0,0,,0,11,11,45,1,2,TL,carnidal,cursive,carnidal_c.png,,,
,,,,32282,001,2025-12-02_21h23.16.809,HW_LDT_1,2024.2.4,MacIntel,40,,,,,,,,,,,,,,,,,,,,,158.173,158.371,158.371,158.871,,,,,,,,,,,,2.038,0,,,,,,,,,,,,,,z,,,,,,,,,,,,,,,13,0,158.872,160.911,,0,[0.5124324324324324],[-0.3302702702702703],[1],[0],[0],[2.0379999999999825],"[""button_right_main""]",160.911,162.905,162.905,162.905,[],[],[],[],[],[],[],,162.905,162.906,0.512432432,-0.33027027,0,0,0,,0,12,12,67,1,2,TL,quafily,cursive,quafily_c.png,,,
,,,,32282,001,2025-12-02_21h23.16.809,HW_LDT_1,2024.2.4,MacIntel,40,,,,,,,,,,,,,,,,,,,,,162.907,163.105,163.105,163.605,,,,,,,,,,,,0.772,1,,,,,,,,,,,,,,m,,,,,,,,,,,,,,,14,0,163.605,164.378,,0,[0.5124324324324324],[-0.33783783783783783],[1],[0],[0],[0.7719999999999914],"[""button_right_main""]",164.378,166.371,166.371,166.372,[],[],[],[],[],[],[],,166.372,166.372,0.512432432,-0.337837838,0,0,0,,0,13,13,127,1,2,word,ORIGINAL,print,original_p.png,,,
,,,,32282,001,2025-12-02_21h23.16.809,HW_LDT_1,2024.2.4,MacIntel,40,,,,,,,,,,,,,,,,,,,,,166.373,166.571,166.571,167.071,,,,,,,,,,,,0.922,1,,,,,,,,,,,,,,z,,,,,,,,,,,,,,,15,0,167.072,167.995,,0,[-0.4627027027027027],[-0.30108108108108106],[1],[0],[0],[0.921999999999997],"[""button_left_main""]",167.996,169.988,169.988,169.989,[],[],[],[],[],[],[],,169.989,169.989,-0.462702703,-0.301081081,0,0,0,,0,14,14,30,1,2,RL,selamor,print,selamor_p.png,,,
,,,,32282,001,2025-12-02_21h23.16.809,HW_LDT_1,2024.2.4,MacIntel,40,,,,,,,,,,,,,,,,,,,,,169.99,170.188,170.188,170.688,,,,,,,,,,,,1.29,1,,,,,,,,,,,,,,m,,,,,,,,,,,,,,,16,0,170.688,171.979,,0,[0.5232432432432432],[-0.34216216216216216],[1],[0],[0],[1.289999999999992],"[""button_right_main""]",171.979,173.971,173.971,173.972,[],[],[],[],[],[],[],,173.972,173.972,0.523243243,-0.342162162,0,0,0,,0,15,15,107,1,2,word,EVIDENT,cursive,evident_c.png,,,
,,,,32282,001,2025-12-02_21h23.16.809,HW_LDT_1,2024.2.4,MacIntel,40,,,,,,,,,,,,,,,,,,,,,173.973,174.172,174.172,174.671,,,,,,,,,,,,3.522,1,,,,,,,,,,,,,,z,,,,,,,,,,,,,,,17,0,174.672,178.195,,0,[-0.46054054054054056],[-0.30108108108108106],[1],[0],[0],[3.52200000000002],"[""button_left_main""]",178.196,180.188,180.188,180.188,[],[],[],[],[],[],[],,180.188,180.189,-0.460540541,-0.301081081,0,0,0,,0,16,16,72,1,2,TL,revomal,print,revomal_p.png,,,
,,,,32282,001,2025-12-02_21h23.16.809,HW_LDT_1,2024.2.4,MacIntel,40,,,,,,,,,,,,,,,,,,,,,180.19,180.388,180.388,180.888,,,,,,,,,,,,1.039,1,,,,,,,,,,,,,,z,,,,,,,,,,,,,,,18,0,180.889,181.928,,0,[-0.4681081081081081],[-0.2945945945945946],[1],[0],[0],[1.0390000000000157],"[""button_left_main""]",181.928,183.921,183.922,183.922,[],[],[],[],[],[],[],,183.922,183.922,-0.468108108,-0.294594595,0,0,0,,0,17,17,73,1,2,TL,redisent,print,redisent_p.png,,,
,,,,32282,001,2025-12-02_21h23.16.809,HW_LDT_1,2024.2.4,MacIntel,40,,,,,,,,,,,,,,,,,,,,,183.923,184.122,184.122,184.622,,,,,,,,,,,,0.706,1,,,,,,,,,,,,,,z,,,,,,,,,,,,,,,19,0,184.622,185.328,,0,[-0.4627027027027027],[-0.3162162162162162],[1],[0],[0],[0.7059999999999889],"[""button_left_main""]",185.328,187.321,187.322,187.322,[],[],[],[],[],[],[],,187.322,187.322,-0.462702703,-0.316216216,0,0,0,,0,18,18,60,1,2,TL,molibe,print,molibe_p.png,,,
,,,,32282,001,2025-12-02_21h23.16.809,HW_LDT_1,2024.2.4,MacIntel,40,,,,,,,,,,,,,,,,,,,,,187.323,187.521,187.521,188.022,,,,,,,,,,,,2.121,1,,,,,,,,,,,,,,m,,,,,,,,,,,,,,,20,0,188.022,190.144,,0,[0.5124324324324324],[-0.3248648648648649],[1],[0],[0],[2.120999999999981],"[""button_right_main""]",190.144,192.138,192.138,192.139,[],[],[],[],[],[],[],,192.139,192.139,0.512432432,-0.324864865,0,0,0,,0,19,19,87,1,2,word,CAFETERIA,print,cafeteria_p.png,,,
,,,,32282,001,2025-12-02_21h23.16.809,HW_LDT_1,2024.2.4,MacIntel,40,,,,,,,,,,,,,,,,,,,,,192.14,192.338,192.338,192.838,,,,,,,,,,,,0.639,1,,,,,,,,,,,,,,m,,,,,,,,,,,,,,,21,0,192.839,193.478,,0,[0.5286486486486487],[-0.31513513513513514],[1],[0],[0],[0.6389999999999816],"[""button_right_main""]",193.478,195.472,195.472,195.472,[],[],[],[],[],[],[],,195.472,195.472,0.528648649,-0.315135135,0,0,0,,0,20,20,130,1,2,word,POLICY,print,policy_p.png,,,
,,,,32282,001,2025-12-02_21h23.16.809,HW_LDT_1,2024.2.4,MacIntel,40,,,,,,,,,,,,,,,,,,,,,195.473,195.672,195.672,196.172,,,,,,,,,,,,0.556,1,,,,,,,,,,,,,,m,,,,,,,,,,,,,,,22,0,196.172,196.729,,0,[0.5351351351351351],[-0.3302702702702703],[1],[0],[0],[0.5559999999999832],"[""button_right_main""]",196.729,198.722,198.722,198.722,[],[],[],[],[],[],[],,198.722,198.722,0.535135135,-0.33027027,0,0,0,,0,21,21,88,1,2,word,CAMERA,print,camera_p.png,,,
,,,,32282,001,2025-12-02_21h23.16.809,HW_LDT_1,2024.2.4,MacIntel,40,,,,,,,,,,,,,,,,,,,,,198.724,198.922,198.922,199.422,,,,,,,,,,,,1.205,1,,,,,,,,,,,,,,z,,,,,,,,,,,,,,,23,1,199.422,200.628,,0,[-0.46918918918918917],[-0.30324324324324325],[1],[0],[0],[1.204999999999984],"[""button_left_main""]",200.628,202.622,202.622,204.062,[0.532972972972973],[-0.34],[1],[0],[0],[1.4399999999999977],"[""button_right_probe""]",,204.062,204.062,0.532972973,-0.34,1,0,0,,0,22,22,3,1,2,RL,capefory,print,capefory_p.png,,,
,,,,32282,001,2025-12-02_21h23.16.809,HW_LDT_1,2024.2.4,MacIntel,40,,,,,,,,,,,,,,,,,,,,,204.063,204.255,204.255,204.755,,,,,,,,,,,,3.388,1,,,,,,,,,,,,,,z,,,,,,,,,,,,,,,24,0,204.755,208.145,,0,[-0.4681081081081081],[-0.3227027027027027],[1],[0],[0],[3.387999999999977],"[""button_left_main""]",208.145,210.138,210.139,210.139,[],[],[],[],[],[],[],,210.139,210.139,-0.468108108,-0.322702703,0,0,0,,0,23,23,76,1,2,TL,senmitent,cursive,senmitent_c.png,,,
,,,,32282,001,2025-12-02_21h23.16.809,HW_LDT_1,2024.2.4,MacIntel,40,,,,,,,,,,,,,,,,,,,,,210.14,210.338,210.339,210.838,,,,,,,,,,,,1.09,1,,,,,,,,,,,,,,z,,,,,,,,,,,,,,,25,0,210.839,211.929,,0,[-0.4756756756756757],[-0.3021621621621622],[1],[0],[0],[1.0900000000000034],"[""button_left_main""]",211.929,213.922,213.922,213.922,[],[],[],[],[],[],[],,213.922,213.922,-0.475675676,-0.302162162,0,0,0,,0,24,24,25,1,2,RL,rabigly,print,rabigly_p.png,,,
,,,,32282,001,2025-12-02_21h23.16.809,HW_LDT_1,2024.2.4,MacIntel,40,,,,,,,,,,,,,,,,,,,,,213.923,214.122,214.122,214.622,,,,,,,,,,,,0.789,1,,,,,,,,,,,,,,z,,,,,,,,,,,,,,,26,0,214.622,215.412,,0,[-0.4681081081081081],[-0.2945945945945946],[1],[0],[0],[0.7889999999999873],"[""button_left_main""]",215.412,217.405,217.405,217.406,[],[],[],[],[],[],[],,217.406,217.406,-0.468108108,-0.294594595,0,0,0,,0,25,25,4,1,2,RL,cenesony,print,cenesony_p.png,,,
,,,,32282,001,2025-12-02_21h23.16.809,HW_LDT_1,2024.2.4,MacIntel,40,,,,,,,,,,,,,,,,,,,,,217.408,217.605,217.605,218.105,,,,,,,,,,,,2.855,1,,,,,,,,,,,,,,z,,,,,,,,,,,,,,,27,0,218.106,220.962,,0,[-0.4745945945945946],[-0.31405405405405407],[1],[0],[0],[2.8549999999999898],"[""button_left_main""]",220.962,222.955,222.955,222.956,[],[],[],[],[],[],[],,222.956,222.956,-0.474594595,-0.314054054,0,0,0,,0,26,26,38,1,2,TL,atameur,cursive,atameur_c.png,,,
,,,,32282,001,2025-12-02_21h23.16.809,HW_LDT_1,2024.2.4,MacIntel,40,,,,,,,,,,,,,,,,,,,,,222.957,223.155,223.155,223.655,,,,,,,,,,,,2.388,1,,,,,,,,,,,,,,m,,,,,,,,,,,,,,,28,0,223.656,226.046,,0,[0.5405405405405406],[-0.31945945945945947],[1],[0],[0],[2.3880000000000052],"[""button_right_main""]",226.046,228.038,228.038,228.039,[],[],[],[],[],[],[],,228.039,228.039,0.540540541,-0.319459459,0,0,0,,0,27,27,103,1,2,word,DISPUTE,cursive,dispute_c.png,,,
,,,,32282,001,2025-12-02_21h23.16.809,HW_LDT_1,2024.2.4,MacIntel,40,,,,,,,,,,,,,,,,,,,,,228.04,228.238,228.238,228.738,,,,,,,,,,,,0.773,1,,,,,,,,,,,,,,z,,,,,,,,,,,,,,,29,0,228.739,229.512,,0,[-0.4702702702702703],[-0.2881081081081081],[1],[0],[0],[0.7730000000000246],"[""button_left_main""]",229.512,231.505,231.505,231.505,[],[],[],[],[],[],[],,231.505,231.506,-0.47027027,-0.288108108,0,0,0,,0,28,28,9,1,2,RL,denficy,print,denficy_p.png,,,
,,,,32282,001,2025-12-02_21h23.16.809,HW_LDT_1,2024.2.4,MacIntel,40,,,,,,,,,,,,,,,,,,,,,231.507,231.705,231.705,232.205,,,,,,,,,,,,1.104,1,,,,,,,,,,,,,,m,,,,,,,,,,,,,,,30,0,232.206,233.311,,0,[0.5362162162162162],[-0.3281081081081081],[1],[0],[0],[1.103999999999985],"[""button_right_main""]",233.311,235.305,235.306,235.306,[],[],[],[],[],[],[],,235.306,235.307,0.536216216,-0.328108108,0,0,0,,0,29,29,150,1,2,word,SENTIMENT,cursive,sentiment_c.png,,,
,,,,32282,001,2025-12-02_21h23.16.809,HW_LDT_1,2024.2.4,MacIntel,40,,,,,,,,,,,,,,,,,,,,,235.308,235.505,235.505,236.005,,,,,,,,,,,,0.671,1,,,,,,,,,,,,,,m,,,,,,,,,,,,,,,31,0,236.006,236.677,,0,[0.5297297297297298],[-0.3356756756756757],[1],[0],[0],[0.6709999999999923],"[""button_right_main""]",236.677,238.672,238.672,238.672,[],[],[],[],[],[],[],,238.672,238.672,0.52972973,-0.335675676,0,0,0,,0,30,30,93,1,2,word,CEREMONY,print,ceremony_p.png,,,
,,,,32282,001,2025-12-02_21h23.16.809,HW_LDT_1,2024.2.4,MacIntel,40,,,,,,,,,,,,,,,,,,,,,238.674,238.872,238.872,239.372,,,,,,,,,,,,0.754,1,,,,,,,,,,,,,,m,,,,,,,,,,,,,,,32,0,239.372,240.127,,0,[0.5351351351351351],[-0.3335135135135135],[1],[0],[0],[0.7539999999999907],"[""button_right_main""]",240.128,242.122,242.122,242.122,[],[],[],[],[],[],[],,242.122,242.123,0.535135135,-0.333513514,0,0,0,,0,31,31,102,1,2,word,DENSITY,print,density_p.png,,,
,,,,32282,001,2025-12-02_21h23.16.809,HW_LDT_1,2024.2.4,MacIntel,40,,,,,,,,,,,,,,,,,,,,,242.124,242.322,242.322,242.822,,,,,,,,,,,,0.833,1,,,,,,,,,,,,,,z,,,,,,,,,,,,,,,33,0,242.827,243.661,,0,[-0.4735135135135135],[-0.2945945945945946],[1],[0],[0],[0.8329999999999984],"[""button_left_main""]",243.661,245.655,245.655,245.656,[],[],[],[],[],[],[],,245.656,245.656,-0.473513514,-0.294594595,0,0,0,,0,32,32,48,1,2,TL,detabe,print,detabe_p.png,,,
,,,,32282,001,2025-12-02_21h23.16.809,HW_LDT_1,2024.2.4,MacIntel,40,,,,,,,,,,,,,,,,,,,,,245.657,245.855,245.856,246.355,,,,,,,,,,,,0.689,1,,,,,,,,,,,,,,m,,,,,,,,,,,,,,,34,1,246.356,247.046,,0,[0.534054054054054],[-0.34216216216216216],[1],[0],[0],[0.688999999999993],"[""button_right_main""]",247.046,249.039,249.039,250.429,[-0.4735135135135135],[-0.3227027027027027],[1],[0],[0],[1.38900000000001],"[""button_left_probe""]",,250.429,250.429,-0.473513514,-0.322702703,1,0,0,,0,33,33,112,1,2,word,LIBERAL,print,liberal_p.png,,,
,,,,32282,001,2025-12-02_21h23.16.809,HW_LDT_1,2024.2.4,MacIntel,40,,,,,,,,,,,,,,,,,,,,,250.43,250.622,250.622,251.122,,,,,,,,,,,,4.272,1,,,,,,,,,,,,,,m,,,,,,,,,,,,,,,35,0,251.122,255.395,,0,[0.46054054054054056],[-0.27297297297297296],[1],[0],[0],[4.271999999999963],"[""button_right_main""]",255.396,257.389,257.389,257.389,[],[],[],[],[],[],[],,257.389,257.389,0.460540541,-0.272972973,0,0,0,,0,34,34,157,1,2,word,VALIDITY,print,validity_p.png,,,
,,,,32282,001,2025-12-02_21h23.16.809,HW_LDT_1,2024.2.4,MacIntel,40,,,,,,,,,,,,,,,,,,,,,257.39,257.593,257.593,258.089,,,,,,,,,,,,3.605,1,,,,,,,,,,,,,,z,,,,,,,,,,,,,,,36,0,258.089,261.696,,0,[-0.22702702702702704],[-0.2935135135135135],[1],[0],[0],[3.605000000000018],"[""button_left_main""]",261.696,263.689,263.689,263.689,[],[],[],[],[],[],[],,263.689,263.69,-0.227027027,-0.293513514,0,0,0,,0,35,35,1,1,2,RL,caleberia,print,caleberia_p.png,,,
,,,,32282,001,2025-12-02_21h23.16.809,HW_LDT_1,2024.2.4,MacIntel,40,,,,,,,,,,,,,,,,,,,,,263.691,263.889,263.889,264.389,,,,,,,,,,,,1.455,1,,,,,,,,,,,,,,z,,,,,,,,,,,,,,,37,0,264.389,265.846,,0,[-0.4681081081081081],[-0.3043243243243243],[1],[0],[0],[1.454999999999984],"[""button_left_main""]",265.846,267.839,267.839,267.839,[],[],[],[],[],[],[],,267.839,267.839,-0.468108108,-0.304324324,0,0,0,,0,36,36,16,1,2,RL,losipal,print,losipal_p.png,,,
,,,,32282,001,2025-12-02_21h23.16.809,HW_LDT_1,2024.2.4,MacIntel,40,,,,,,,,,,,,,,,,,,,,,267.84,268.039,268.039,268.539,,,,,,,,,,,,1.439,1,,,,,,,,,,,,,,z,,,,,,,,,,,,,,,38,1,268.539,269.979,,0,[-0.44972972972972974],[-0.31945945945945947],[1],[0],[0],[1.4390000000000214],"[""button_left_main""]",269.979,271.972,271.972,273.545,[-0.45297297297297295],[-0.2686486486486486],[1],[0],[0],[1.573000000000036],"[""button_left_probe""]",,273.546,273.546,-0.452972973,-0.268648649,1,0,0,,0,37,37,59,1,2,TL,miskate,cursive,miskate_c.png,,,
,,,,32282,001,2025-12-02_21h23.16.809,HW_LDT_1,2024.2.4,MacIntel,40,,,,,,,,,,,,,,,,,,,,,273.546,273.739,273.739,274.239,,,,,,,,,,,,1.539,1,,,,,,,,,,,,,,m,,,,,,,,,,,,,,,39,0,274.239,275.779,,0,[0.492972972972973],[-0.25675675675675674],[1],[0],[0],[1.5389999999999873],"[""button_right_main""]",275.779,277.772,277.772,277.772,[],[],[],[],[],[],[],,277.772,277.773,0.492972973,-0.256756757,0,0,0,,0,38,38,100,1,2,word,DECADE,print,decade_p.png,,,
,,,,32282,001,2025-12-02_21h23.16.809,HW_LDT_1,2024.2.4,MacIntel,40,,,,,,,,,,,,,,,,,,,,,277.773,277.972,277.972,278.472,,,,,,,,,,,,0.956,1,,,,,,,,,,,,,,m,,,,,,,,,,,,,,,40,0,278.472,279.429,,0,[0.4918918918918919],[-0.27297297297297296],[1],[0],[0],[0.9559999999999036],"[""button_right_main""]",279.429,281.422,281.422,281.423,[],[],[],[],[],[],[],,281.423,281.423,0.491891892,-0.272972973,0,0,0,,0,39,39,152,1,2,word,SPECIMEN,print,specimen_p.png,,,
,,,,32282,001,2025-12-02_21h23.16.809,HW_LDT_1,2024.2.4,MacIntel,40,,,,,,,,,,,,,,,,,,,,,281.424,281.622,281.622,282.122,,,,,,,,,,,,3.605,0,,,,,,,,,,,,,,m,,,,,,,,,,,,,,,41,0,282.123,285.728,,0,[-0.44216216216216214],[-0.2664864864864865],[1],[0],[0],[3.605000000000018],"[""button_left_main""]",285.728,287.722,287.722,287.723,[],[],[],[],[],[],[],,287.723,287.723,-0.442162162,-0.266486486,0,0,0,,0,40,40,125,1,2,word,OPERATOR,cursive,operator_c.png,,,
,,,,32282,001,2025-12-02_21h23.16.809,HW_LDT_1,2024.2.4,MacIntel,40,,,,,,,,,,,,,,,,,,,,,287.724,287.922,287.922,288.422,,,,,,,,,,,,0.922,1,,,,,,,,,,,,,,m,,,,,,,,,,,,,,,42,0,288.423,289.345,,0,[0.5102702702702703],[-0.2967567567567568],[1],[0],[0],[0.9219999999999686],"[""button_right_main""]",289.345,291.339,291.339,291.339,[],[],[],[],[],[],[],,291.339,291.339,0.51027027,-0.296756757,0,0,0,,0,41,41,110,1,2,word,HERITAGE,print,heritage_p.png,,,
,,,,32282,001,2025-12-02_21h23.16.809,HW_LDT_1,2024.2.4,MacIntel,40,,,,,,,,,,,,,,,,,,,,,291.34,291.539,291.539,292.039,,,,,,,,,,,,0.805,1,,,,,,,,,,,,,,m,,,,,,,,,,,,,,,43,0,292.039,292.845,,0,[0.45837837837837836],[-0.30648648648648646],[1],[0],[0],[0.8050000000000068],"[""button_right_main""]",292.846,294.839,294.839,294.839,[],[],[],[],[],[],[],,294.839,294.839,0.458378378,-0.306486486,0,0,0,,0,42,42,98,1,2,word,CRIMINAL,cursive,criminal_c.png,,,
,,,,32282,001,2025-12-02_21h23.16.809,HW_LDT_1,2024.2.4,MacIntel,40,,,,,,,,,,,,,,,,,,,,,294.84,295.039,295.039,295.539,,,,,,,,,,,,1.122,1,,,,,,,,,,,,,,z,,,,,,,,,,,,,,,44,0,295.539,296.662,,0,[-0.412972972972973],[-0.30108108108108106],[1],[0],[0],[1.122000000000014],"[""button_left_main""]",296.662,298.656,298.656,298.656,[],[],[],[],[],[],[],,298.656,298.656,-0.412972973,-0.301081081,0,0,0,,0,43,43,10,1,2,RL,disluge,cursive,disluge_c.png,,,
,,,,32282,001,2025-12-02_21h23.16.809,HW_LDT_1,2024.2.4,MacIntel,40,,,,,,,,,,,,,,,,,,,,,298.657,298.861,298.861,299.356,,,,,,,,,,,,0.973,1,,,,,,,,,,,,,,z,,,,,,,,,,,,,,,45,1,299.356,300.33,,0,[-0.4064864864864865],[-0.2945945945945946],[1],[0],[0],[0.9730000000000132],"[""button_left_main""]",300.33,302.322,302.322,303.562,[-0.41621621621621624],[-0.2989189189189189],[1],[0],[0],[1.2390000000000327],"[""button_left_probe""]",,303.562,303.563,-0.416216216,-0.298918919,1,0,0,,0,44,44,23,1,2,RL,procogal,cursive,procogal_c.png,,,
,,,,32282,001,2025-12-02_21h23.16.809,HW_LDT_1,2024.2.4,MacIntel,40,,,,,,,,,,,,,,,,,,,,,303.563,303.756,303.756,304.256,,,,,,,,,,,,0.806,1,,,,,,,,,,,,,,m,,,,,,,,,,,,,,,46,0,304.256,305.062,,0,[0.46918918918918917],[-0.2708108108108108],[1],[0],[0],[0.80600000000004],"[""button_right_main""]",305.062,307.056,307.056,307.056,[],[],[],[],[],[],[],,307.056,307.056,0.469189189,-0.270810811,0,0,0,,0,45,45,104,1,2,word,DOMINANT,print,dominant_p.png,,,
,,,,32282,001,2025-12-02_21h23.16.809,HW_LDT_1,2024.2.4,MacIntel,40,,,,,,,,,,,,,,,,,,,,,307.058,307.256,307.256,307.756,,,,,,,,,,,,3.69,1,,,,,,,,,,,,,,z,,,,,,,,,,,,,,,47,1,307.756,311.446,,0,[-0.40864864864864864],[-0.312972972972973],[1],[0],[0],[3.6899999999999977],"[""button_left_main""]",311.446,313.439,313.439,315.063,[-0.412972972972973],[-0.29027027027027025],[1],[0],[0],[1.6240000000000236],"[""button_left_probe""]",,315.063,315.063,-0.412972973,-0.29027027,1,0,0,,0,46,46,40,1,2,TL,bevoled,cursive,bevoled_c.png,,,
,,,,32282,001,2025-12-02_21h23.16.809,HW_LDT_1,2024.2.4,MacIntel,40,,,,,,,,,,,,,,,,,,,,,315.064,315.256,315.256,315.756,,,,,,,,,,,,3.689,1,,,,,,,,,,,,,,m,,,,,,,,,,,,,,,48,1,315.756,319.446,,0,[0.4572972972972973],[-0.33135135135135135],[1],[0],[0],[3.6889999999999645],"[""button_right_main""]",319.446,321.439,321.439,323.529,[0.47243243243243244],[-0.25027027027027027],[1],[0],[0],[2.090000000000032],"[""button_right_probe""]",,323.529,323.529,0.472432432,-0.25027027,1,0,0,,0,47,47,99,1,2,word,DEBATE,print,debate_p.png,,,
,,,,32282,001,2025-12-02_21h23.16.809,HW_LDT_1,2024.2.4,MacIntel,40,,,,,,,,,,,,,,,,,,,,,323.53,323.723,323.723,324.223,,,,,,,,,,,,4.472,1,,,,,,,,,,,,,,m,,,,,,,,,,,,,,,49,0,324.223,328.696,,0,[0.45837837837837836],[-0.32054054054054054],[1],[0],[0],[4.47199999999998],"[""button_right_main""]",328.696,330.689,330.689,330.69,[],[],[],[],[],[],[],,330.69,330.69,0.458378378,-0.320540541,0,0,0,,0,48,48,129,1,2,word,PARENT,print,parent_p.png,,,
,,,,32282,001,2025-12-02_21h23.16.809,HW_LDT_1,2024.2.4,MacIntel,40,,,,,,,,,,,,,,,,,,,,,330.691,330.889,330.889,331.389,,,,,,,,,,,,1.389,1,,,,,,,,,,,,,,z,,,,,,,,,,,,,,,50,0,331.39,332.78,,0,[-0.4281081081081081],[-0.3248648648648649],[1],[0],[0],[1.38900000000001],"[""button_left_main""]",332.78,334.773,334.773,334.773,[],[],[],[],[],[],[],,334.773,334.773,-0.428108108,-0.324864865,0,0,0,,0,49,49,70,1,2,TL,retalive,print,retalive_p.png,,,
,,,,32282,001,2025-12-02_21h23.16.809,HW_LDT_1,2024.2.4,MacIntel,40,,,,,,,,,,,,,,,,,,,,,334.774,334.973,334.973,335.473,,,,,,,,,,,,2.839,1,,,,,,,,,,,,,,m,,,,,,,,,,,,,,,51,0,335.473,338.312,,0,[0.4594594594594595],[-0.28594594594594597],[1],[0],[0],[2.838999999999942],"[""button_right_main""]",338.312,340.306,340.306,340.306,[],[],[],[],[],[],[],,340.306,340.306,0.459459459,-0.285945946,0,0,0,,0,50,50,139,1,2,word,REGULAR,cursive,regular_c.png,,,
,,,,32282,001,2025-12-02_21h23.16.809,HW_LDT_1,2024.2.4,MacIntel,40,,,,,,,,,,,,,,,,,,,,,340.307,340.506,340.506,341.006,,,,,,,,,,,,1.556,1,,,,,,,,,,,,,,m,,,,,,,,,,,,,,,52,0,341.006,342.563,,0,[0.4702702702702703],[-0.26216216216216215],[1],[0],[0],[1.5559999999999832],"[""button_right_main""]",342.563,344.556,344.556,344.556,[],[],[],[],[],[],[],,344.556,344.556,0.47027027,-0.262162162,0,0,0,,0,51,51,116,1,2,word,MARGINAL,cursive,marginal_c.png,,,
,,,,32282,001,2025-12-02_21h23.16.809,HW_LDT_1,2024.2.4,MacIntel,40,,,,,,,,,,,,,,,,,,,,,344.557,344.756,344.756,345.256,,,,,,,,,,,,2.24,1,,,,,,,,,,,,,,z,,,,,,,,,,,,,,,53,0,345.256,347.497,,0,[-0.4345945945945946],[-0.29567567567567565],[1],[0],[0],[2.240000000000009],"[""button_left_main""]",347.497,349.49,349.49,349.49,[],[],[],[],[],[],[],,349.49,349.49,-0.434594595,-0.295675676,0,0,0,,0,52,52,19,1,2,RL,monebate,cursive,monebate_c.png,,,
,,,,32282,001,2025-12-02_21h23.16.809,HW_LDT_1,2024.2.4,MacIntel,40,,,,,,,,,,,,,,,,,,,,,349.491,349.689,349.689,350.189,,,,,,,,,,,,0.856,1,,,,,,,,,,,,,,m,,,,,,,,,,,,,,,54,1,350.19,351.046,,0,[0.4702702702702703],[-0.2718918918918919],[1],[0],[0],[0.8559999999999945],"[""button_right_main""]",351.046,353.039,353.039,354.263,[-0.44],[-0.3248648648648649],[1],[0],[0],[1.2220000000000368],"[""button_left_probe""]",,354.263,354.263,-0.44,-0.324864865,1,0,0,,0,53,53,82,1,2,word,AMATEUR,cursive,amateur_c.png,,,
,,,,32282,001,2025-12-02_21h23.16.809,HW_LDT_1,2024.2.4,MacIntel,40,,,,,,,,,,,,,,,,,,,,,354.263,354.456,354.456,354.956,,,,,,,,,,,,4.322,1,,,,,,,,,,,,,,z,,,,,,,,,,,,,,,55,0,354.956,359.28,,0,[-0.43891891891891893],[-0.327027027027027],[1],[0],[0],[4.322000000000003],"[""button_left_main""]",359.28,361.273,361.273,361.273,[],[],[],[],[],[],[],,361.273,361.273,-0.438918919,-0.327027027,0,0,0,,0,54,54,33,1,2,RL,strapely,cursive,strapely_c.png,,,
,,,,32282,001,2025-12-02_21h23.16.809,HW_LDT_1,2024.2.4,MacIntel,40,,,,,,,,,,,,,,,,,,,,,361.274,361.473,361.473,361.973,,,,,,,,,,,,8.522,1,,,,,,,,,,,,,,z,,,,,,,,,,,,,,,56,0,361.973,370.496,,0,[-0.47783783783783784],[-0.29027027027027025],[1],[0],[0],[8.521999999999991],"[""button_left_main""]",370.496,372.49,372.49,372.49,[],[],[],[],[],[],[],,372.49,372.49,-0.477837838,-0.29027027,0,0,0,,0,55,55,74,1,2,TL,rerite,cursive,rerite_c.png,,,
,,,,32282,001,2025-12-02_21h23.16.809,HW_LDT_1,2024.2.4,MacIntel,40,,,,,,,,,,,,,,,,,,,,,372.491,372.69,372.69,373.19,,,,,,,,,,,,1.007,1,,,,,,,,,,,,,,m,,,,,,,,,,,,,,,57,0,373.19,374.197,,0,[0.46054054054054056],[-0.28162162162162163],[1],[0],[0],[1.007000000000005],"[""button_right_main""]",374.197,376.19,376.19,376.191,[],[],[],[],[],[],[],,376.191,376.191,0.460540541,-0.281621622,0,0,0,,0,56,56,101,1,2,word,DELICATE,print,delicate_p.png,,,
,,,,32282,001,2025-12-02_21h23.16.809,HW_LDT_1,2024.2.4,MacIntel,40,,,,,,,,,,,,,,,,,,,,,376.193,376.39,376.39,376.89,,,,,,,,,,,,1.77,1,,,,,,,,,,,,,,z,,,,,,,,,,,,,,,58,0,376.89,378.662,,0,[-0.47135135135135137],[-0.2989189189189189],[1],[0],[0],[1.7699999999999818],"[""button_left_main""]",378.662,380.656,380.656,380.657,[],[],[],[],[],[],[],,380.657,380.657,-0.471351351,-0.298918919,0,0,0,,0,57,57,36,1,2,RL,vecelan,print,vecelan_p.png,,,
,,,,32282,001,2025-12-02_21h23.16.809,HW_LDT_1,2024.2.4,MacIntel,40,,,,,,,,,,,,,,,,,,,,,380.658,380.856,380.856,381.356,,,,,,,,,,,,16.022,1,,,,,,,,,,,,,,z,,,,,,,,,,,,,,,59,0,381.357,397.38,,0,[-0.4745945945945946],[-0.30108108108108106],[1],[0],[0],[16.02199999999999],"[""button_left_main""]",397.38,399.373,399.373,399.373,[],[],[],[],[],[],[],,399.373,399.374,-0.474594595,-0.301081081,0,0,0,,0,58,58,49,1,2,TL,dedace,print,dedace_p.png,,,
,,,,32282,001,2025-12-02_21h23.16.809,HW_LDT_1,2024.2.4,MacIntel,40,,,,,,,,,,,,,,,,,,,,,399.375,399.573,399.573,400.073,,,,,,,,,,,,1.939,1,,,,,,,,,,,,,,m,,,,,,,,,,,,,,,60,0,400.074,402.013,,0,[0.4843243243243243],[-0.29027027027027025],[1],[0],[0],[1.9390000000000214],"[""button_right_main""]",402.013,404.007,404.007,404.007,[],[],[],[],[],[],[],,404.007,404.007,0.484324324,-0.29027027,0,0,0,,0,59,59,156,1,2,word,TRIBUTE,cursive,tribute_c.png,,,
,,,,32282,001,2025-12-02_21h23.16.809,HW_LDT_1,2024.2.4,MacIntel,40,,,,,,,,,,,,,,,,,,,,,404.008,404.207,404.207,404.706,,,,,,,,,,,,0.789,1,,,,,,,,,,,,,,z,,,,,,,,,,,,,,,61,0,404.707,405.497,,0,[-0.4562162162162162],[-0.30648648648648646],[1],[0],[0],[0.7889999999999873],"[""button_left_main""]",405.497,407.49,407.49,407.49,[],[],[],[],[],[],[],,407.49,407.491,-0.456216216,-0.306486486,0,0,0,,0,60,60,2,1,2,RL,casagity,print,casagity_p.png,,,
,,,,32282,001,2025-12-02_21h23.16.809,HW_LDT_1,2024.2.4,MacIntel,40,,,,,,,,,,,,,,,,,,,,,407.492,407.69,407.694,408.19,,,,,,,,,,,,1.756,1,,,,,,,,,,,,,,z,,,,,,,,,,,,,,,62,0,408.19,409.947,,0,[-0.4648648648648649],[-0.3345945945945946],[1],[0],[0],[1.7560000000000286],"[""button_left_main""]",409.947,411.94,411.94,411.941,[],[],[],[],[],[],[],,411.941,411.941,-0.464864865,-0.334594595,0,0,0,,0,61,61,17,1,2,RL,macise,cursive,macise_c.png,,,
,,,,32282,001,2025-12-02_21h23.16.809,HW_LDT_1,2024.2.4,MacIntel,40,,,,,,,,,,,,,,,,,,,,,411.942,412.14,412.14,412.64,,,,,,,,,,,,0.705,1,,,,,,,,,,,,,,z,,,,,,,,,,,,,,,63,0,412.64,413.346,,0,[-0.4681081081081081],[-0.2718918918918919],[1],[0],[0],[0.7049999999999841],"[""button_left_main""]",413.346,415.34,415.34,415.34,[],[],[],[],[],[],[],,415.34,415.341,-0.468108108,-0.271891892,0,0,0,,0,62,62,77,1,2,TL,sloten,print,sloten_p.png,,,
,,,,32282,001,2025-12-02_21h23.16.809,HW_LDT_1,2024.2.4,MacIntel,40,,,,,,,,,,,,,,,,,,,,,415.342,415.54,415.54,416.04,,,,,,,,,,,,0.689,1,,,,,,,,,,,,,,m,,,,,,,,,,,,,,,64,0,416.04,416.73,,0,[0.46378378378378377],[-0.26972972972972975],[1],[0],[0],[0.6890000000000214],"[""button_right_main""]",416.73,418.723,418.723,418.724,[],[],[],[],[],[],[],,418.724,418.724,0.463783784,-0.26972973,0,0,0,,0,63,63,114,1,2,word,LOCATE,print,locate_p.png,,,
,,,,32282,001,2025-12-02_21h23.16.809,HW_LDT_1,2024.2.4,MacIntel,40,,,,,,,,,,,,,,,,,,,,,418.725,418.923,418.923,419.423,,,,,,,,,,,,1.444,1,,,,,,,,,,,,,,z,,,,,,,,,,,,,,,65,0,419.424,420.868,,0,[-0.4789189189189189],[-0.3108108108108108],[1],[0],[0],[1.4440000000000168],"[""button_left_main""]",420.868,422.857,422.857,422.857,[],[],[],[],[],[],[],,422.857,422.857,-0.478918919,-0.310810811,0,0,0,,0,64,64,24,1,2,RL,rasibal,cursive,rasibal_c.png,,,
,,,,32282,001,2025-12-02_21h23.16.809,HW_LDT_1,2024.2.4,MacIntel,40,,,,,,,,,,,,,,,,,,,,,422.858,423.057,423.057,423.557,,,,,,,,,,,,0.854,1,,,,,,,,,,,,,,m,,,,,,,,,,,,,,,66,0,423.557,424.413,,0,[0.4681081081081081],[-0.2891891891891892],[1],[0],[0],[0.853999999999985],"[""button_right_main""]",424.413,426.407,426.407,426.407,[],[],[],[],[],[],[],,426.407,426.407,0.468108108,-0.289189189,0,0,0,,0,65,65,133,1,2,word,PROVIDE,cursive,provide_c.png,,,
,,,,32282,001,2025-12-02_21h23.16.809,HW_LDT_1,2024.2.4,MacIntel,40,,,,,,,,,,,,,,,,,,,,,426.408,426.607,426.607,427.107,,,,,,,,,,,,0.771,1,,,,,,,,,,,,,,z,,,,,,,,,,,,,,,67,0,427.107,427.879,,0,[-0.48324324324324325],[-0.30324324324324325],[1],[0],[0],[0.771000000000015],"[""button_left_main""]",427.88,429.873,429.874,429.874,[],[],[],[],[],[],[],,429.874,429.874,-0.483243243,-0.303243243,0,0,0,,0,66,66,78,1,2,TL,stogare,print,stogare_p.png,,,
,,,,32282,001,2025-12-02_21h23.16.809,HW_LDT_1,2024.2.4,MacIntel,40,,,,,,,,,,,,,,,,,,,,,429.875,430.074,430.074,430.573,,,,,,,,,,,,1.138,0,,,,,,,,,,,,,,z,,,,,,,,,,,,,,,68,0,430.574,431.712,,0,[0.46054054054054056],[-0.31513513513513514],[1],[0],[0],[1.1380000000000337],"[""button_right_main""]",431.712,433.707,433.707,433.707,[],[],[],[],[],[],[],,433.707,433.707,0.460540541,-0.315135135,0,0,0,,0,67,67,50,1,2,TL,donimant,print,donimant_p.png,,,
,,,,32282,001,2025-12-02_21h23.16.809,HW_LDT_1,2024.2.4,MacIntel,40,,,,,,,,,,,,,,,,,,,,,433.708,433.907,433.907,434.407,,,,,,,,,,,,2.539,1,,,,,,,,,,,,,,z,,,,,,,,,,,,,,,69,0,434.407,436.947,,0,[-0.49945945945945946],[-0.29243243243243244],[1],[0],[0],[2.5389999999999873],"[""button_left_main""]",436.947,438.94,438.94,438.94,[],[],[],[],[],[],[],,438.94,438.941,-0.499459459,-0.292432432,0,0,0,,0,68,68,46,1,2,TL,codemy,cursive,codemy_c.png,,,
,,,,32282,001,2025-12-02_21h23.16.809,HW_LDT_1,2024.2.4,MacIntel,40,,,,,,,,,,,,,,,,,,,,,438.942,439.14,439.14,439.64,,,,,,,,,,,,6.272,1,,,,,,,,,,,,,,m,,,,,,,,,,,,,,,70,1,439.64,445.913,,0,[0.4821621621621622],[-0.3227027027027027],[1],[0],[0],[6.271999999999991],"[""button_right_main""]",445.913,447.907,447.907,449.497,[0.4843243243243243],[-0.28162162162162163],[1],[0],[0],[1.5889999999999986],"[""button_right_probe""]",,449.497,449.497,0.484324324,-0.281621622,1,0,0,,0,69,69,89,1,2,word,CAPACITY,print,capacity_p.png,,,
,,,,32282,001,2025-12-02_21h23.16.809,HW_LDT_1,2024.2.4,MacIntel,40,,,,,,,,,,,,,,,,,,,,,449.498,449.69,449.69,450.19,,,,,,,,,,,,1.123,1,,,,,,,,,,,,,,m,,,,,,,,,,,,,,,71,0,450.191,451.314,,0,[0.47783783783783784],[-0.28702702702702704],[1],[0],[0],[1.1230000000000473],"[""button_right_main""]",451.314,453.315,453.315,453.315,[],[],[],[],[],[],[],,453.316,453.316,0.477837838,-0.287027027,0,0,0,,0,70,70,153,1,2,word,STOLEN,print,stolen_p.png,,,
,,,,32282,001,2025-12-02_21h23.16.809,HW_LDT_1,2024.2.4,MacIntel,40,,,,,,,,,,,,,,,,,,,,,453.316,453.515,453.515,454.015,,,,,,,,,,,,1.105,1,,,,,,,,,,,,,,m,,,,,,,,,,,,,,,72,0,454.015,455.121,,0,[0.4821621621621622],[-0.2881081081081081],[1],[0],[0],[1.1049999999999613],"[""button_right_main""]",455.121,457.115,457.115,457.115,[],[],[],[],[],[],[],,457.116,457.116,0.482162162,-0.288108108,0,0,0,,0,71,71,141,1,2,word,RELIGION,cursive,religion_c.png,,,
,,,,32282,001,2025-12-02_21h23.16.809,HW_LDT_1,2024.2.4,MacIntel,40,,,,,,,,,,,,,,,,,,,,,457.116,457.315,457.315,457.815,,,,,,,,,,,,1.956,1,,,,,,,,,,,,,,z,,,,,,,,,,,,,,,73,0,457.816,459.773,,0,[-0.5027027027027027],[-0.29783783783783785],[1],[0],[0],[1.9560000000000173],"[""button_left_main""]",459.773,461.765,461.765,461.766,[],[],[],[],[],[],[],,461.766,461.766,-0.502702703,-0.297837838,0,0,0,,0,72,72,64,1,2,TL,paficic,print,paficic_p.png,,,
,,,,32282,001,2025-12-02_21h23.16.809,HW_LDT_1,2024.2.4,MacIntel,40,,,,,,,,,,,,,,,,,,,,,461.767,461.965,461.965,462.465,,,,,,,,,,,,3.772,1,,,,,,,,,,,,,,z,,,,,,,,,,,,,,,74,0,462.466,466.239,,0,[-0.4908108108108108],[-0.2989189189189189],[1],[0],[0],[3.7719999999999914],"[""button_left_main""]",466.239,468.232,468.232,468.232,[],[],[],[],[],[],[],,468.232,468.233,-0.490810811,-0.298918919,0,0,0,,0,73,73,28,1,2,RL,revune,cursive,revune_c.png,,,
,,,,32282,001,2025-12-02_21h23.16.809,HW_LDT_1,2024.2.4,MacIntel,40,,,,,,,,,,,,,,,,,,,,,468.234,468.432,468.432,468.932,,,,,,,,,,,,1.238,1,,,,,,,,,,,,,,m,,,,,,,,,,,,,,,75,0,468.932,470.171,,0,[0.4789189189189189],[-0.3183783783783784],[1],[0],[0],[1.2379999999999995],"[""button_right_main""]",470.171,472.165,472.166,472.166,[],[],[],[],[],[],[],,472.166,472.166,0.478918919,-0.318378378,0,0,0,,0,74,74,81,1,2,word,ADVISORY,print,advisory_p.png,,,
,,,,32282,001,2025-12-02_21h23.16.809,HW_LDT_1,2024.2.4,MacIntel,40,,,,,,,,,,,,,,,,,,,,,472.167,472.365,472.365,472.865,,,,,,,,,,,,1.169,1,,,,,,,,,,,,,,m,,,,,,,,,,,,,,,76,0,472.869,474.039,,0,[0.4648648648648649],[-0.30864864864864866],[1],[0],[0],[1.1689999999999827],"[""button_right_main""]",474.039,476.032,476.032,476.032,[],[],[],[],[],[],[],,476.033,476.033,0.464864865,-0.308648649,0,0,0,,0,75,75,143,1,2,word,REMOVAL,print,removal_p.png,,,
,,,,32282,001,2025-12-02_21h23.16.809,HW_LDT_1,2024.2.4,MacIntel,40,,,,,,,,,,,,,,,,,,,,,476.034,476.232,476.232,476.732,,,,,,,,,,,,2.039,1,,,,,,,,,,,,,,z,,,,,,,,,,,,,,,77,0,476.733,478.772,,0,[-0.45297297297297295],[-0.3227027027027027],[1],[0],[0],[2.0389999999999873],"[""button_left_main""]",478.773,480.766,480.766,480.766,[],[],[],[],[],[],[],,480.766,480.766,-0.452972973,-0.322702703,0,0,0,,0,76,76,14,1,2,RL,insibate,cursive,insibate_c.png,,,
,,,,32282,001,2025-12-02_21h23.16.809,HW_LDT_1,2024.2.4,MacIntel,40,,,,,,,,,,,,,,,,,,,,,480.767,480.965,480.966,481.465,,,,,,,,,,,,0.755,1,,,,,,,,,,,,,,m,,,,,,,,,,,,,,,78,0,481.466,482.221,,0,[0.4486486486486487],[-0.34324324324324323],[1],[0],[0],[0.7549999999999955],"[""button_right_main""]",482.222,484.216,484.216,484.216,[],[],[],[],[],[],[],,484.216,484.217,0.448648649,-0.343243243,0,0,0,,0,77,77,144,1,2,word,RESIDENT,print,resident_p.png,,,
,,,,32282,001,2025-12-02_21h23.16.809,HW_LDT_1,2024.2.4,MacIntel,40,,,,,,,,,,,,,,,,,,,,,484.219,484.416,484.416,484.916,,,,,,,,,,,,1.037,1,,,,,,,,,,,,,,m,,,,,,,,,,,,,,,79,0,484.916,485.955,,0,[0.4821621621621622],[-0.31945945945945947],[1],[0],[0],[1.0370000000000346],"[""button_right_main""]",485.955,487.949,487.949,487.95,[],[],[],[],[],[],[],,487.95,487.95,0.482162162,-0.319459459,0,0,0,,0,78,78,94,1,2,word,CLINICAL,cursive,clinical_c.png,,,
,,,,32282,001,2025-12-02_21h23.16.809,HW_LDT_1,2024.2.4,MacIntel,40,,,,,,,,,,,,,,,,,,,,,487.952,488.149,488.149,488.649,,,,,,,,,,,,1.822,0,,,,,,,,,,,,,,m,,,,,,,,,,,,,,,80,0,488.649,490.472,,0,[-0.40864864864864864],[-0.32594594594594595],[1],[0],[0],[1.8220000000000027],"[""button_left_main""]",490.472,492.465,492.466,492.466,[],[],[],[],[],[],[],,492.466,493.272,0.078918919,-0.437297297,1,0,0,,0,79,79,117,1,2,word,MARINE,cursive,marine_c.png,break_done_button,,
,,,,32282,001,2025-12-02_21h23.16.809,HW_LDT_1,2024.2.4,MacIntel,40,,,,,,,,,,,,,,,,,,,,,493.273,493.466,493.466,493.966,,,,,,,,,,,,2.921,1,,,,,,,,,,,,,,m,,,,,,,,,,,,,,,81,0,493.966,496.888,,0,[0.48324324324324325],[-0.30648648648648646],[1],[0],[0],[2.9209999999999923],"[""button_right_main""]",496.888,498.882,498.882,498.883,[],[],[],[],[],[],[],,498.883,498.883,0.483243243,-0.306486486,0,0,0,,0,80,80,146,1,2,word,RETIRE,cursive,retire_c.png,,,
,,,,32282,001,2025-12-02_21h23.16.809,HW_LDT_1,2024.2.4,MacIntel,40,,,,,,,,,,,,,,,,,,,,,498.883,499.082,499.082,499.582,,,,,,,,,,,,9.023,1,,,,,,,,,,,,,,z,,,,,,,,,,,,,,,82,0,499.583,508.606,,0,[-0.4572972972972973],[-0.27297297297297296],[1],[0],[0],[9.023000000000081],"[""button_left_main""]",508.606,510.599,510.599,510.599,[],[],[],[],[],[],[],,510.599,510.6,-0.457297297,-0.272972973,0,0,0,,0,81,81,12,1,2,RL,gralekul,cursive,gralekul_c.png,,,
,,,,32282,001,2025-12-02_21h23.16.809,HW_LDT_1,2024.2.4,MacIntel,40,,,,,,,,,,,,,,,,,,,,,510.601,510.799,510.799,511.299,,,,,,,,,,,,1.606,0,,,,,,,,,,,,,,m,,,,,,,,,,,,,,,83,0,511.299,512.906,,0,[-0.4843243243243243],[-0.3227027027027027],[1],[0],[0],[1.6059999999999945],"[""button_left_main""]",512.906,514.899,514.899,514.899,[],[],[],[],[],[],[],,514.899,514.9,-0.484324324,-0.322702703,0,0,0,,0,82,82,90,1,2,word,CAPITAL,cursive,capital_c.png,,,
,,,,32282,001,2025-12-02_21h23.16.809,HW_LDT_1,2024.2.4,MacIntel,40,,,,,,,,,,,,,,,,,,,,,514.901,515.099,515.099,515.599,,,,,,,,,,,,3.239,1,,,,,,,,,,,,,,m,,,,,,,,,,,,,,,84,1,515.599,518.84,,0,[0.4735135135135135],[-0.3335135135135135],[1],[0],[0],[3.238999999999919],"[""button_right_main""]",518.84,520.832,520.833,522.139,[-0.5135135135135135],[-0.26432432432432434],[1],[0],[0],[1.30600000000004],"[""button_left_probe""]",,522.139,522.139,-0.513513514,-0.264324324,1,0,0,,0,83,83,119,1,2,word,MEMORY,cursive,memory_c.png,,,
,,,,32282,001,2025-12-02_21h23.16.809,HW_LDT_1,2024.2.4,MacIntel,40,,,,,,,,,,,,,,,,,,,,,522.14,522.332,522.332,522.833,,,,,,,,,,,,1.688,1,,,,,,,,,,,,,,m,,,,,,,,,,,,,,,85,1,522.833,524.522,,0,[0.4810810810810811],[-0.33675675675675676],[1],[0],[0],[1.6880000000001019],"[""button_right_main""]",524.522,526.516,526.516,531.039,[-0.49513513513513513],[-0.32054054054054054],[1],[0],[0],[4.523000000000025],"[""button_left_probe""]",,531.039,531.039,-0.495135135,-0.320540541,1,0,0,,0,84,84,91,1,2,word,CARDINAL,cursive,cardinal_c.png,,,
,,,,32282,001,2025-12-02_21h23.16.809,HW_LDT_1,2024.2.4,MacIntel,40,,,,,,,,,,,,,,,,,,,,,531.04,531.233,531.233,531.732,,,,,,,,,,,,0.972,1,,,,,,,,,,,,,,m,,,,,,,,,,,,,,,86,0,531.733,532.706,,0,[0.49405405405405406],[-0.3335135135135135],[1],[0],[0],[0.97199999999998],"[""button_right_main""]",532.706,534.699,534.699,534.7,[],[],[],[],[],[],[],,534.7,534.7,0.494054054,-0.333513514,0,0,0,,0,85,85,118,1,2,word,MEDICINE,print,medicine_p.png,,,
,,,,32282,001,2025-12-02_21h23.16.809,HW_LDT_1,2024.2.4,MacIntel,40,,,,,,,,,,,,,,,,,,,,,534.701,534.899,534.899,535.399,,,,,,,,,,,,3.428,1,,,,,,,,,,,,,,z,,,,,,,,,,,,,,,87,1,535.4,538.828,,0,[-0.5048648648648648],[-0.30648648648648646],[1],[0],[0],[3.4279999999999973],"[""button_left_main""]",538.828,540.816,540.816,541.906,[-0.5048648648648648],[-0.31513513513513514],[1],[0],[0],[1.0899999999999181],"[""button_left_probe""]",,541.906,541.907,-0.504864865,-0.315135135,1,0,0,,0,86,86,58,1,2,TL,mitilary,cursive,mitilary_c.png,,,
,,,,32282,001,2025-12-02_21h23.16.809,HW_LDT_1,2024.2.4,MacIntel,40,,,,,,,,,,,,,,,,,,,,,541.907,542.099,542.099,542.599,,,,,,,,,,,,1.123,1,,,,,,,,,,,,,,z,,,,,,,,,,,,,,,88,1,542.599,543.723,,0,[-0.5124324324324324],[-0.327027027027027],[1],[0],[0],[1.1229999999999336],"[""button_left_main""]",543.723,545.716,545.716,548.707,[-0.4962162162162162],[-0.3410810810810811],[1],[0],[0],[2.990000000000009],"[""button_left_probe""]",,548.707,548.707,-0.496216216,-0.341081081,1,0,0,,0,87,87,26,1,2,RL,retupar,cursive,retupar_c.png,,,
,,,,32282,001,2025-12-02_21h23.16.809,HW_LDT_1,2024.2.4,MacIntel,40,,,,,,,,,,,,,,,,,,,,,548.707,548.899,548.899,549.399,,,,,,,,,,,,1.438,1,,,,,,,,,,,,,,z,,,,,,,,,,,,,,,89,1,549.4,550.838,,0,[-0.5016216216216216],[-0.3183783783783784],[1],[0],[0],[1.4379999999999882],"[""button_left_main""]",550.838,552.833,552.833,562.706,[-0.48],[-0.31189189189189187],[1],[0],[0],[9.871999999999957],"[""button_left_probe""]",,562.706,562.706,-0.48,-0.311891892,1,0,0,,0,88,88,57,1,2,TL,meromy,cursive,meromy_c.png,,,
,,,,32282,001,2025-12-02_21h23.16.809,HW_LDT_1,2024.2.4,MacIntel,40,,,,,,,,,,,,,,,,,,,,,562.707,562.899,562.899,563.399,,,,,,,,,,,,1.073,1,,,,,,,,,,,,,,z,,,,,,,,,,,,,,,90,0,563.4,564.473,,0,[-0.4897297297297297],[-0.3108108108108108],[1],[0],[0],[1.072999999999979],"[""button_left_main""]",564.473,566.466,566.466,566.466,[],[],[],[],[],[],[],,566.467,566.467,-0.48972973,-0.310810811,0,0,0,,0,89,89,27,1,2,RL,repifion,cursive,repifion_c.png,,,
,,,,32282,001,2025-12-02_21h23.16.809,HW_LDT_1,2024.2.4,MacIntel,40,,,,,,,,,,,,,,,,,,,,,566.468,566.666,566.666,567.166,,,,,,,,,,,,0.806,1,,,,,,,,,,,,,,m,,,,,,,,,,,,,,,91,0,567.166,567.973,,0,[0.4756756756756757],[-0.30648648648648646],[1],[0],[0],[0.8059999999999263],"[""button_right_main""]",567.973,569.966,569.966,569.966,[],[],[],[],[],[],[],,569.967,569.967,0.475675676,-0.306486486,0,0,0,,0,90,90,137,1,2,word,RAPIDLY,print,rapidly_p.png,,,
,,,,32282,001,2025-12-02_21h23.16.809,HW_LDT_1,2024.2.4,MacIntel,40,,,,,,,,,,,,,,,,,,,,,569.968,570.166,570.171,570.666,,,,,,,,,,,,0.871,1,,,,,,,,,,,,,,z,,,,,,,,,,,,,,,92,0,570.666,571.538,,0,[-0.4854054054054054],[-0.2989189189189189],[1],[0],[0],[0.8709999999999809],"[""button_left_main""]",571.539,573.533,573.533,573.533,[],[],[],[],[],[],[],,573.533,573.533,-0.485405405,-0.298918919,0,0,0,,0,91,91,21,1,2,RL,pamest,print,pamest_p.png,,,
,,,,32282,001,2025-12-02_21h23.16.809,HW_LDT_1,2024.2.4,MacIntel,40,,,,,,,,,,,,,,,,,,,,,573.534,573.733,573.733,574.233,,,,,,,,,,,,0.986,1,,,,,,,,,,,,,,m,,,,,,,,,,,,,,,93,0,574.234,575.223,,0,[0.4843243243243243],[-0.3043243243243243],[1],[0],[0],[0.98599999999999],"[""button_right_main""]",575.223,577.216,577.217,577.217,[],[],[],[],[],[],[],,577.217,577.217,0.487567568,-0.317297297,0,0,0,,0,92,92,148,1,2,word,SALINE,cursive,saline_c.png,,,
,,,,32282,001,2025-12-02_21h23.16.809,HW_LDT_1,2024.2.4,MacIntel,40,,,,,,,,,,,,,,,,,,,,,577.219,577.416,577.416,577.916,,,,,,,,,,,,0.756,1,,,,,,,,,,,,,,m,,,,,,,,,,,,,,,94,0,577.917,578.673,,0,[0.4745945945945946],[-0.3335135135135135],[1],[0],[0],[0.7559999999999718],"[""button_right_main""]",578.673,580.666,580.666,580.667,[],[],[],[],[],[],[],,580.667,580.667,0.474594595,-0.333513514,0,0,0,,0,93,93,96,1,2,word,CONSIDER,print,consider_p.png,,,
,,,,32282,001,2025-12-02_21h23.16.809,HW_LDT_1,2024.2.4,MacIntel,40,,,,,,,,,,,,,,,,,,,,,580.668,580.866,580.866,581.366,,,,,,,,,,,,1.322,0,,,,,,,,,,,,,,m,,,,,,,,,,,,,,,95,1,581.367,582.689,,0,[-0.49513513513513513],[-0.2945945945945946],[1],[0],[0],[1.3220000000000027],"[""button_left_main""]",582.689,584.683,584.683,585.673,[-0.4918918918918919],[-0.30864864864864866],[1],[0],[0],[0.9900000000000091],"[""button_left_probe""]",,585.673,585.673,-0.491891892,-0.308648649,1,0,0,,0,94,94,109,1,2,word,GRATEFUL,cursive,grateful_c.png,,,
,,,,32282,001,2025-12-02_21h23.16.809,HW_LDT_1,2024.2.4,MacIntel,40,,,,,,,,,,,,,,,,,,,,,585.674,585.866,585.866,586.366,,,,,,,,,,,,0.973,1,,,,,,,,,,,,,,m,,,,,,,,,,,,,,,96,0,586.367,587.34,,0,[0.4681081081081081],[-0.34216216216216216],[1],[0],[0],[0.97300000000007],"[""button_right_main""]",587.34,589.333,589.333,589.333,[],[],[],[],[],[],[],,589.333,589.333,0.468108108,-0.342162162,0,0,0,,0,95,95,95,1,2,word,COMEDY,cursive,comedy_c.png,,,
,,,,32282,001,2025-12-02_21h23.16.809,HW_LDT_1,2024.2.4,MacIntel,40,,,,,,,,,,,,,,,,,,,,,589.334,589.533,589.533,590.033,,,,,,,,,,,,0.738,1,,,,,,,,,,,,,,z,,,,,,,,,,,,,,,97,0,590.033,590.772,,0,[-0.48864864864864865],[-0.30324324324324325],[1],[0],[0],[0.7380000000000564],"[""button_left_main""]",590.772,592.766,592.766,592.767,[],[],[],[],[],[],[],,592.767,592.767,-0.488648649,-0.303243243,0,0,0,,0,96,96,65,1,2,TL,polupar,cursive,polupar_c.png,,,
,,,,32282,001,2025-12-02_21h23.16.809,HW_LDT_1,2024.2.4,MacIntel,40,,,,,,,,,,,,,,,,,,,,,592.767,592.966,592.966,593.466,,,,,,,,,,,,1.856,1,,,,,,,,,,,,,,m,,,,,,,,,,,,,,,98,0,593.467,595.323,,0,[0.48864864864864865],[-0.34],[1],[0],[0],[1.8559999999999945],"[""button_right_main""]",595.323,597.316,597.316,597.317,[],[],[],[],[],[],[],,597.317,597.317,0.488648649,-0.34,0,0,0,,0,97,97,124,1,2,word,NUMERICAL,cursive,numerical_c.png,,,
,,,,32282,001,2025-12-02_21h23.16.809,HW_LDT_1,2024.2.4,MacIntel,40,,,,,,,,,,,,,,,,,,,,,597.317,597.516,597.516,598.016,,,,,,,,,,,,0.872,1,,,,,,,,,,,,,,z,,,,,,,,,,,,,,,99,1,598.017,598.889,,0,[-0.5102702702702703],[-0.31513513513513514],[1],[0],[0],[0.8719999999999573],"[""button_left_main""]",598.889,600.883,600.883,602.774,[0.5048648648648648],[-0.3183783783783784],[1],[0],[0],[1.8909999999999627],"[""button_right_probe""]",,602.774,602.774,0.504864865,-0.318378378,1,0,0,,0,98,98,11,1,2,RL,formuke,print,formuke_p.png,,,
,,,,32282,001,2025-12-02_21h23.16.809,HW_LDT_1,2024.2.4,MacIntel,40,,,,,,,,,,,,,,,,,,,,,602.775,602.967,602.967,603.466,,,,,,,,,,,,1.323,1,,,,,,,,,,,,,,z,,,,,,,,,,,,,,,100,0,603.467,604.79,,0,[-0.5048648648648648],[-0.31189189189189187],[1],[0],[0],[1.322999999999979],"[""button_left_main""]",604.79,606.783,606.783,606.783,[],[],[],[],[],[],[],,606.783,606.784,-0.504864865,-0.311891892,0,0,0,,0,99,99,32,1,2,RL,speniven,print,speniven_p.png,,,
,,,,32282,001,2025-12-02_21h23.16.809,HW_LDT_1,2024.2.4,MacIntel,40,,,,,,,,,,,,,,,,,,,,,606.784,606.983,606.983,607.483,,,,,,,,,,,,0.855,0,,,,,,,,,,,,,,m,,,,,,,,,,,,,,,101,0,607.484,608.339,,0,[-0.49945945945945946],[-0.3172972972972973],[1],[0],[0],[0.8549999999999045],"[""button_left_main""]",608.339,610.333,610.333,610.334,[],[],[],[],[],[],[],,610.334,610.334,-0.499459459,-0.317297297,0,0,0,,0,100,100,121,1,2,word,MISTAKE,cursive,mistake_c.png,,,
,,,,32282,001,2025-12-02_21h23.16.809,HW_LDT_1,2024.2.4,MacIntel,40,,,,,,,,,,,,,,,,,,,,,610.335,610.533,610.533,611.033,,,,,,,,,,,,0.888,1,,,,,,,,,,,,,,m,,,,,,,,,,,,,,,102,0,611.034,611.922,,0,[0.5016216216216216],[-0.3389189189189189],[1],[0],[0],[0.8880000000000337],"[""button_right_main""]",611.922,613.916,613.916,613.917,[],[],[],[],[],[],[],,613.917,613.917,0.501621622,-0.338918919,0,0,0,,0,101,101,159,1,2,word,VETERAN,print,veteran_p.png,,,
,,,,32282,001,2025-12-02_21h23.16.809,HW_LDT_1,2024.2.4,MacIntel,40,,,,,,,,,,,,,,,,,,,,,613.917,614.116,614.116,614.616,,,,,,,,,,,,3.139,1,,,,,,,,,,,,,,m,,,,,,,,,,,,,,,103,0,614.617,617.756,,0,[0.5070270270270271],[-0.327027027027027],[1],[0],[0],[3.13900000000001],"[""button_right_main""]",617.756,619.75,619.75,619.75,[],[],[],[],[],[],[],,619.75,619.75,0.507027027,-0.327027027,0,0,0,,0,102,102,138,1,2,word,REFUSAL,cursive,refusal_c.png,,,
,,,,32282,001,2025-12-02_21h23.16.809,HW_LDT_1,2024.2.4,MacIntel,40,,,,,,,,,,,,,,,,,,,,,619.751,619.95,619.95,620.45,,,,,,,,,,,,1.855,0,,,,,,,,,,,,,,m,,,,,,,,,,,,,,,104,0,620.45,622.306,,0,[-0.4572972972972973],[-0.3345945945945946],[1],[0],[0],[1.8549999999999045],"[""button_left_main""]",622.306,624.3,624.3,624.3,[],[],[],[],[],[],[],,624.3,624.3,-0.457297297,-0.334594595,0,0,0,,0,103,103,151,1,2,word,SPECIFIC,print,specific_p.png,,,
,,,,32282,001,2025-12-02_21h23.16.809,HW_LDT_1,2024.2.4,MacIntel,40,,,,,,,,,,,,,,,,,,,,,624.301,624.5,624.5,625,,,,,,,,,,,,1.19,1,,,,,,,,,,,,,,m,,,,,,,,,,,,,,,105,0,625,626.19,,0,[0.49405405405405406],[-0.25027027027027027],[1],[0],[0],[1.1899999999999409],"[""button_right_main""]",626.19,628.183,628.183,628.183,[],[],[],[],[],[],[],,628.183,628.184,0.490810811,-0.253513514,0,0,0,,0,104,104,135,1,2,word,QUALITY,cursive,quality_c.png,,,
,,,,32282,001,2025-12-02_21h23.16.809,HW_LDT_1,2024.2.4,MacIntel,40,,,,,,,,,,,,,,,,,,,,,628.184,628.383,628.383,628.883,,,,,,,,,,,,2.337,1,,,,,,,,,,,,,,z,,,,,,,,,,,,,,,106,0,628.883,631.222,,0,[-0.48324324324324325],[-0.30648648648648646],[1],[0],[0],[2.336999999999989],"[""button_left_main""]",631.222,633.217,633.217,633.217,[],[],[],[],[],[],[],,633.217,633.217,-0.483243243,-0.306486486,0,0,0,,0,105,105,52,1,2,TL,elarobate,cursive,elarobate_c.png,,,
,,,,32282,001,2025-12-02_21h23.16.809,HW_LDT_1,2024.2.4,MacIntel,40,,,,,,,,,,,,,,,,,,,,,633.218,633.417,633.417,633.917,,,,,,,,,,,,0.806,1,,,,,,,,,,,,,,z,,,,,,,,,,,,,,,107,0,633.917,634.723,,0,[-0.49405405405405406],[-0.312972972972973],[1],[0],[0],[0.8059999999999263],"[""button_left_main""]",634.724,636.717,636.717,636.717,[],[],[],[],[],[],[],,636.717,636.717,-0.494054054,-0.312972973,0,0,0,,0,106,106,8,1,2,RL,desifate,print,desifate_p.png,,,
,,,,32282,001,2025-12-02_21h23.16.809,HW_LDT_1,2024.2.4,MacIntel,40,,,,,,,,,,,,,,,,,,,,,636.718,636.917,636.917,637.417,,,,,,,,,,,,0.887,0,,,,,,,,,,,,,,m,,,,,,,,,,,,,,,108,0,637.417,638.306,,0,[-0.47243243243243244],[-0.3324324324324324],[1],[0],[0],[0.8869999999999436],"[""button_left_main""]",638.306,640.3,640.3,640.3,[],[],[],[],[],[],[],,640.3,640.3,-0.472432432,-0.332432432,0,0,0,,0,107,107,105,1,2,word,EDITOR,cursive,editor_c.png,,,
,,,,32282,001,2025-12-02_21h23.16.809,HW_LDT_1,2024.2.4,MacIntel,40,,,,,,,,,,,,,,,,,,,,,640.301,640.5,640.5,641,,,,,,,,,,,,0.989,1,,,,,,,,,,,,,,m,,,,,,,,,,,,,,,109,0,641,641.99,,0,[0.4572972972972973],[-0.327027027027027],[1],[0],[0],[0.9890000000000327],"[""button_right_main""]",641.99,643.983,643.983,643.984,[],[],[],[],[],[],[],,643.984,643.984,0.457297297,-0.327027027,0,0,0,,0,108,108,136,1,2,word,RADICAL,cursive,radical_c.png,,,
,,,,32282,001,2025-12-02_21h23.16.809,HW_LDT_1,2024.2.4,MacIntel,40,,,,,,,,,,,,,,,,,,,,,643.984,644.183,644.183,644.683,,,,,,,,,,,,6.006,0,,,,,,,,,,,,,,z,,,,,,,,,,,,,,,110,0,644.684,650.69,,0,[0.46054054054054056],[-0.34],[1],[0],[0],[6.005999999999972],"[""button_right_main""]",650.69,652.684,652.684,652.684,[],[],[],[],[],[],[],,652.684,652.684,0.460540541,-0.34,0,0,0,,0,109,109,47,1,2,TL,crinimal,cursive,crinimal_c.png,,,
,,,,32282,001,2025-12-02_21h23.16.809,HW_LDT_1,2024.2.4,MacIntel,40,,,,,,,,,,,,,,,,,,,,,652.685,652.883,652.884,653.384,,,,,,,,,,,,20.688,1,,,,,,,,,,,,,,m,,,,,,,,,,,,,,,111,1,653.384,674.073,,0,[0.45837837837837836],[-0.30108108108108106],[1],[0],[0],[20.687999999999988],"[""button_right_main""]",674.073,676.067,676.067,678.19,[0.4572972972972973],[-0.26216216216216215],[1],[0],[0],[2.1230000000000473],"[""button_right_probe""]",,678.19,678.191,0.457297297,-0.262162162,1,0,0,,0,110,110,122,1,2,word,MOBILE,print,mobile_p.png,,,
,,,,32282,001,2025-12-02_21h23.16.809,HW_LDT_1,2024.2.4,MacIntel,40,,,,,,,,,,,,,,,,,,,,,678.191,678.384,678.384,678.884,,,,,,,,,,,,2.156,1,,,,,,,,,,,,,,m,,,,,,,,,,,,,,,112,0,678.884,681.041,,0,[0.46702702702702703],[-0.3162162162162162],[1],[0],[0],[2.1560000000000628],"[""button_right_main""]",681.041,683.034,683.034,683.034,[],[],[],[],[],[],[],,683.034,683.034,0.467027027,-0.316216216,0,0,0,,0,111,111,155,1,2,word,STRATEGY,cursive,strategy_c.png,,,
,,,,32282,001,2025-12-02_21h23.16.809,HW_LDT_1,2024.2.4,MacIntel,40,,,,,,,,,,,,,,,,,,,,,683.035,683.234,683.234,683.734,,,,,,,,,,,,0.755,1,,,,,,,,,,,,,,z,,,,,,,,,,,,,,,113,0,683.734,684.49,,0,[-0.4810810810810811],[-0.29783783783783785],[1],[0],[0],[0.7549999999999955],"[""button_left_main""]",684.49,686.484,686.484,686.484,[],[],[],[],[],[],[],,686.484,686.484,-0.481081081,-0.297837838,0,0,0,,0,112,112,75,1,2,TL,ronamtic,print,ronamtic_p.png,,,
,,,,32282,001,2025-12-02_21h23.16.809,HW_LDT_1,2024.2.4,MacIntel,40,,,,,,,,,,,,,,,,,,,,,686.485,686.684,686.684,687.184,,,,,,,,,,,,0.754,1,,,,,,,,,,,,,,z,,,,,,,,,,,,,,,114,0,687.184,687.939,,0,[-0.4854054054054054],[-0.30648648648648646],[1],[0],[0],[0.7540000000000191],"[""button_left_main""]",687.939,689.934,689.934,689.934,[],[],[],[],[],[],[],,689.934,689.934,-0.485405405,-0.306486486,0,0,0,,0,113,113,42,1,2,TL,bedise,cursive,bedise_c.png,,,
,,,,32282,001,2025-12-02_21h23.16.809,HW_LDT_1,2024.2.4,MacIntel,40,,,,,,,,,,,,,,,,,,,,,689.935,690.134,690.134,690.634,,,,,,,,,,,,1.506,1,,,,,,,,,,,,,,z,,,,,,,,,,,,,,,115,0,690.634,692.141,,0,[-0.4843243243243243],[-0.3043243243243243],[1],[0],[0],[1.5059999999999718],"[""button_left_main""]",692.141,694.13,694.13,694.13,[],[],[],[],[],[],[],,694.13,694.13,-0.484324324,-0.304324324,0,0,0,,0,114,114,62,1,2,TL,opmital,cursive,opmital_c.png,,,
,,,,32282,001,2025-12-02_21h23.16.809,HW_LDT_1,2024.2.4,MacIntel,40,,,,,,,,,,,,,,,,,,,,,694.131,694.33,694.33,694.83,,,,,,,,,,,,5.523,0,,,,,,,,,,,,,,z,,,,,,,,,,,,,,,116,0,694.83,700.353,,0,[0.4572972972972973],[-0.29243243243243244],[1],[0],[0],[5.523000000000025],"[""button_right_main""]",700.353,702.346,702.346,702.347,[],[],[],[],[],[],[],,702.347,702.347,0.457297297,-0.292432432,0,0,0,,0,115,115,61,1,2,TL,nuremical,cursive,nuremical_c.png,,,
,,,,32282,001,2025-12-02_21h23.16.809,HW_LDT_1,2024.2.4,MacIntel,40,,,,,,,,,,,,,,,,,,,,,702.348,702.546,702.546,703.046,,,,,,,,,,,,0.921,1,,,,,,,,,,,,,,z,,,,,,,,,,,,,,,117,0,703.047,703.968,,0,[-0.49945945945945946],[-0.31513513513513514],[1],[0],[0],[0.9209999999999354],"[""button_left_main""]",703.969,705.963,705.963,705.963,[],[],[],[],[],[],[],,705.963,705.963,-0.499459459,-0.315135135,0,0,0,,0,116,116,22,1,2,RL,posity,print,posity_p.png,,,
,,,,32282,001,2025-12-02_21h23.16.809,HW_LDT_1,2024.2.4,MacIntel,40,,,,,,,,,,,,,,,,,,,,,705.964,706.163,706.163,706.663,,,,,,,,,,,,0.839,1,,,,,,,,,,,,,,z,,,,,,,,,,,,,,,118,0,706.663,707.503,,0,[-0.52],[-0.3172972972972973],[1],[0],[0],[0.8390000000001692],"[""button_left_main""]",707.503,709.496,709.496,709.497,[],[],[],[],[],[],[],,709.497,709.497,-0.52,-0.317297297,0,0,0,,0,117,117,29,1,2,RL,samite,cursive,samite_c.png,,,
,,,,32282,001,2025-12-02_21h23.16.809,HW_LDT_1,2024.2.4,MacIntel,40,,,,,,,,,,,,,,,,,,,,,709.497,709.696,709.697,710.196,,,,,,,,,,,,1.007,1,,,,,,,,,,,,,,m,,,,,,,,,,,,,,,119,1,710.197,711.204,,0,[0.46594594594594596],[-0.35621621621621624],[1],[0],[0],[1.0069999999999482],"[""button_right_main""]",711.204,713.197,713.197,714.537,[-0.5556756756756757],[-0.30864864864864866],[1],[0],[0],[1.3400000000000318],"[""button_left_probe""]",,714.537,714.537,-0.555675676,-0.308648649,1,0,0,,0,118,118,154,1,2,word,STORAGE,print,storage_p.png,,,
,,,,32282,001,2025-12-02_21h23.16.809,HW_LDT_1,2024.2.4,MacIntel,40,,,,,,,,,,,,,,,,,,,,,714.538,714.73,714.73,715.23,,,,,,,,,,,,1.755,1,,,,,,,,,,,,,,m,,,,,,,,,,,,,,,120,0,715.23,716.986,,0,[0.4789189189189189],[-0.3183783783783784],[1],[0],[0],[1.7549999999999955],"[""button_right_main""]",716.986,718.98,718.98,718.98,[],[],[],[],[],[],[],,718.98,718.98,0.478918919,-0.318378378,0,0,0,,0,119,119,86,1,2,word,BESIDE,cursive,beside_c.png,,,
,,,,32282,001,2025-12-02_21h23.16.809,HW_LDT_1,2024.2.4,MacIntel,40,,,,,,,,,,,,,,,,,,,,,718.981,719.18,719.18,719.68,,,,,,,,,,,,0.889,1,,,,,,,,,,,,,,m,,,,,,,,,,,,,,,121,0,719.68,720.569,,0,[0.48324324324324325],[-0.327027027027027],[1],[0],[0],[0.88900000000001],"[""button_right_main""]",720.569,722.563,722.563,722.563,[],[],[],[],[],[],[],,722.563,722.563,0.483243243,-0.327027027,0,0,0,,0,120,120,92,1,2,word,CATEGORY,print,category_p.png,,,
,,,,32282,001,2025-12-02_21h23.16.809,HW_LDT_1,2024.2.4,MacIntel,40,,,,,,,,,,,,,,,,,,,,,722.564,722.763,722.763,723.263,,,,,,,,,,,,1.156,1,,,,,,,,,,,,,,m,,,,,,,,,,,,,,,122,0,723.264,724.42,,0,[0.47783783783783784],[-0.32594594594594595],[1],[0],[0],[1.155999999999949],"[""button_right_main""]",724.421,726.413,726.413,726.414,[],[],[],[],[],[],[],,726.414,726.414,0.477837838,-0.325945946,0,0,0,,0,121,121,85,1,2,word,BENEFIT,cursive,benefit_c.png,,,
,,,,32282,001,2025-12-02_21h23.16.809,HW_LDT_1,2024.2.4,MacIntel,40,,,,,,,,,,,,,,,,,,,,,726.415,726.613,726.613,727.113,,,,,,,,,,,,0.722,1,,,,,,,,,,,,,,m,,,,,,,,,,,,,,,123,0,727.114,727.836,,0,[0.4821621621621622],[-0.3291891891891892],[1],[0],[0],[0.72199999999998],"[""button_right_main""]",727.836,729.83,729.83,729.83,[],[],[],[],[],[],[],,729.83,729.83,0.482162162,-0.329189189,0,0,0,,0,122,122,158,1,2,word,VELOCITY,print,velocity_p.png,,,
,,,,32282,001,2025-12-02_21h23.16.809,HW_LDT_1,2024.2.4,MacIntel,40,,,,,,,,,,,,,,,,,,,,,729.831,730.03,730.03,730.53,,,,,,,,,,,,2.172,1,,,,,,,,,,,,,,z,,,,,,,,,,,,,,,124,0,730.53,732.703,,0,[-0.5556756756756757],[-0.3075675675675676],[1],[0],[0],[2.1720000000000255],"[""button_left_main""]",732.703,734.697,734.697,734.697,[],[],[],[],[],[],[],,734.697,734.697,-0.555675676,-0.307567568,0,0,0,,0,123,123,41,1,2,TL,befenit,cursive,befenit_c.png,,,
,,,,32282,001,2025-12-02_21h23.16.809,HW_LDT_1,2024.2.4,MacIntel,40,,,,,,,,,,,,,,,,,,,,,734.698,734.897,734.897,735.396,,,,,,,,,,,,2.355,1,,,,,,,,,,,,,,z,,,,,,,,,,,,,,,125,0,735.397,737.752,,0,[-0.5643243243243243],[-0.3216216216216216],[1],[0],[0],[2.3549999999999045],"[""button_left_main""]",737.752,739.747,739.747,739.747,[],[],[],[],[],[],[],,739.747,739.747,-0.564324324,-0.321621622,0,0,0,,0,124,124,53,1,2,TL,edivent,cursive,edivent_c.png,,,
,,,,32282,001,2025-12-02_21h23.16.809,HW_LDT_1,2024.2.4,MacIntel,40,,,,,,,,,,,,,,,,,,,,,739.748,739.947,739.947,740.447,,,,,,,,,,,,1.238,1,,,,,,,,,,,,,,m,,,,,,,,,,,,,,,126,1,740.447,741.686,,0,[0.4810810810810811],[-0.3345945945945946],[1],[0],[0],[1.2380000000000564],"[""button_right_main""]",741.686,743.68,743.68,745.27,[-0.5459459459459459],[-0.3054054054054054],[1],[0],[0],[1.5900000000000318],"[""button_left_probe""]",,745.27,745.27,-0.545945946,-0.305405405,1,0,0,,0,125,125,134,1,2,word,QUALIFY,cursive,qualify_c.png,,,
,,,,32282,001,2025-12-02_21h23.16.809,HW_LDT_1,2024.2.4,MacIntel,40,,,,,,,,,,,,,,,,,,,,,745.271,745.463,745.464,745.963,,,,,,,,,,,,1.039,1,,,,,,,,,,,,,,z,,,,,,,,,,,,,,,127,0,745.964,747.003,,0,[-0.547027027027027],[-0.31189189189189187],[1],[0],[0],[1.039000000000101],"[""button_left_main""]",747.004,748.997,748.997,748.997,[],[],[],[],[],[],[],,748.997,748.997,-0.547027027,-0.311891892,0,0,0,,0,126,126,35,1,2,RL,vesofity,print,vesofity_p.png,,,
,,,,32282,001,2025-12-02_21h23.16.809,HW_LDT_1,2024.2.4,MacIntel,40,,,,,,,,,,,,,,,,,,,,,748.999,749.197,749.197,749.697,,,,,,,,,,,,0.821,1,,,,,,,,,,,,,,z,,,,,,,,,,,,,,,128,1,749.697,750.519,,0,[-0.5372972972972972],[-0.33783783783783783],[1],[0],[0],[0.8210000000000264],"[""button_left_main""]",750.519,752.513,752.513,754.137,[0.4972972972972973],[-0.34],[1],[0],[0],[1.6219999999999573],"[""button_right_probe""]",,754.137,754.137,0.497297297,-0.34,1,0,0,,0,127,127,39,1,2,TL,aminal,print,aminal_p.png,,,
,,,,32282,001,2025-12-02_21h23.16.809,HW_LDT_1,2024.2.4,MacIntel,40,,,,,,,,,,,,,,,,,,,,,754.138,754.33,754.33,754.83,,,,,,,,,,,,1.621,1,,,,,,,,,,,,,,m,,,,,,,,,,,,,,,129,0,754.831,756.454,,0,[0.4962162162162162],[-0.3248648648648649],[1],[0],[0],[1.620999999999981],"[""button_right_main""]",756.454,758.447,758.447,758.447,[],[],[],[],[],[],[],,758.447,758.447,0.496216216,-0.324864865,0,0,0,,0,128,128,131,1,2,word,POPULAR,cursive,popular_c.png,,,
,,,,32282,001,2025-12-02_21h23.16.809,HW_LDT_1,2024.2.4,MacIntel,40,,,,,,,,,,,,,,,,,,,,,758.448,758.647,758.647,759.147,,,,,,,,,,,,0.989,1,,,,,,,,,,,,,,m,,,,,,,,,,,,,,,130,0,759.147,760.137,,0,[0.5005405405405405],[-0.3356756756756757],[1],[0],[0],[0.988999999999919],"[""button_right_main""]",760.137,762.13,762.13,762.131,[],[],[],[],[],[],[],,762.131,762.131,0.500540541,-0.335675676,0,0,0,,0,129,129,108,1,2,word,FORTUNE,print,fortune_p.png,,,
,,,,32282,001,2025-12-02_21h23.16.809,HW_LDT_1,2024.2.4,MacIntel,40,,,,,,,,,,,,,,,,,,,,,762.132,762.33,762.33,762.83,,,,,,,,,,,,2.739,1,,,,,,,,,,,,,,z,,,,,,,,,,,,,,,131,0,762.83,765.57,,0,[-0.5578378378378378],[-0.3043243243243243],[1],[0],[0],[2.7390000000000327],"[""button_left_main""]",765.57,767.564,767.564,767.564,[],[],[],[],[],[],[],,767.564,767.564,-0.557837838,-0.304324324,0,0,0,,0,130,130,66,1,2,TL,prodive,cursive,prodive_c.png,,,
,,,,32282,001,2025-12-02_21h23.16.809,HW_LDT_1,2024.2.4,MacIntel,40,,,,,,,,,,,,,,,,,,,,,767.565,767.763,767.764,768.263,,,,,,,,,,,,3.221,1,,,,,,,,,,,,,,m,,,,,,,,,,,,,,,132,0,768.264,771.486,,0,[0.5005405405405405],[-0.33675675675675676],[1],[0],[0],[3.2210000000000036],"[""button_right_main""]",771.486,773.48,773.48,773.48,[],[],[],[],[],[],[],,773.48,773.48,0.500540541,-0.336756757,0,0,0,,0,131,131,80,1,2,word,ACADEMY,cursive,academy_c.png,,,
,,,,32282,001,2025-12-02_21h23.16.809,HW_LDT_1,2024.2.4,MacIntel,40,,,,,,,,,,,,,,,,,,,,,773.481,773.68,773.68,774.18,,,,,,,,,,,,0.889,1,,,,,,,,,,,,,,z,,,,,,,,,,,,,,,133,0,774.181,775.07,,0,[-0.5643243243243243],[-0.3227027027027027],[1],[0],[0],[0.88900000000001],"[""button_left_main""]",775.07,777.064,777.064,777.064,[],[],[],[],[],[],[],,777.064,777.064,-0.564324324,-0.322702703,0,0,0,,0,132,132,15,1,2,RL,linedal,print,linedal_p.png,,,
,,,,32282,001,2025-12-02_21h23.16.809,HW_LDT_1,2024.2.4,MacIntel,40,,,,,,,,,,,,,,,,,,,,,777.065,777.264,777.264,777.763,,,,,,,,,,,,1.056,1,,,,,,,,,,,,,,z,,,,,,,,,,,,,,,134,0,777.764,778.82,,0,[-0.5513513513513514],[-0.3356756756756757],[1],[0],[0],[1.05600000000004],"[""button_left_main""]",778.82,780.814,780.814,780.814,[],[],[],[],[],[],[],,780.814,780.814,-0.551351351,-0.335675676,0,0,0,,0,133,133,55,1,2,TL,lotace,print,lotace_p.png,,,
,,,,32282,001,2025-12-02_21h23.16.809,HW_LDT_1,2024.2.4,MacIntel,40,,,,,,,,,,,,,,,,,,,,,780.816,781.013,781.014,781.513,,,,,,,,,,,,1.14,1,,,,,,,,,,,,,,z,,,,,,,,,,,,,,,135,1,781.514,782.654,,0,[-0.5556756756756757],[-0.3248648648648649],[1],[0],[0],[1.1399999999999864],"[""button_left_main""]",782.654,784.647,784.647,785.854,[0.52],[-0.28486486486486484],[1],[0],[0],[1.2059999999999036],"[""button_right_probe""]",,785.854,785.854,0.52,-0.284864865,1,0,0,,0,134,134,31,1,2,RL,spetisic,print,spetisic_p.png,,,
,,,,32282,001,2025-12-02_21h23.16.809,HW_LDT_1,2024.2.4,MacIntel,40,,,,,,,,,,,,,,,,,,,,,785.854,786.047,786.047,786.547,,,,,,,,,,,,1.955,1,,,,,,,,,,,,,,m,,,,,,,,,,,,,,,136,0,786.547,788.503,,0,[0.4962162162162162],[-0.34540540540540543],[1],[0],[0],[1.9550000000001546],"[""button_right_main""]",788.503,790.497,790.497,790.497,[],[],[],[],[],[],[],,790.497,790.497,0.496216216,-0.345405405,0,0,0,,0,135,135,132,1,2,word,PROPOSAL,cursive,proposal_c.png,,,
,,,,32282,001,2025-12-02_21h23.16.809,HW_LDT_1,2024.2.4,MacIntel,40,,,,,,,,,,,,,,,,,,,,,790.498,790.697,790.697,791.197,,,,,,,,,,,,2.556,1,,,,,,,,,,,,,,z,,,,,,,,,,,,,,,137,0,791.197,793.754,,0,[-0.5556756756756757],[-0.30324324324324325],[1],[0],[0],[2.55600000000004],"[""button_left_main""]",793.754,795.747,795.747,795.747,[],[],[],[],[],[],[],,795.747,795.747,-0.555675676,-0.303243243,0,0,0,,0,136,136,56,1,2,TL,marnigal,cursive,marnigal_c.png,,,
,,,,32282,001,2025-12-02_21h23.16.809,HW_LDT_1,2024.2.4,MacIntel,40,,,,,,,,,,,,,,,,,,,,,795.748,795.947,795.947,796.447,,,,,,,,,,,,1.904,1,,,,,,,,,,,,,,z,,,,,,,,,,,,,,,138,1,796.447,798.353,,0,[-0.5610810810810811],[-0.2967567567567568],[1],[0],[0],[1.9039999999999964],"[""button_left_main""]",798.353,800.347,800.347,801.37,[-0.5524324324324325],[-0.3075675675675676],[1],[0],[0],[1.0230000000000246],"[""button_left_probe""]",,801.37,801.37,-0.552432432,-0.307567568,1,0,0,,0,137,137,51,1,2,TL,etidor,cursive,etidor_c.png,,,
,,,,32282,001,2025-12-02_21h23.16.809,HW_LDT_1,2024.2.4,MacIntel,40,,,,,,,,,,,,,,,,,,,,,801.371,801.564,801.564,802.064,,,,,,,,,,,,0.955,1,,,,,,,,,,,,,,m,,,,,,,,,,,,,,,139,0,802.064,803.02,,0,[0.4962162162162162],[-0.3302702702702703],[1],[0],[0],[0.9549999999999272],"[""button_right_main""]",803.021,805.014,805.014,805.014,[],[],[],[],[],[],[],,805.014,805.014,0.496216216,-0.33027027,0,0,0,,0,138,138,149,1,2,word,SENATOR,print,senator_p.png,,,
,,,,32282,001,2025-12-02_21h23.16.809,HW_LDT_1,2024.2.4,MacIntel,40,,,,,,,,,,,,,,,,,,,,,805.015,805.214,805.214,805.714,,,,,,,,,,,,0.954,1,,,,,,,,,,,,,,m,,,,,,,,,,,,,,,140,0,805.714,806.669,,0,[0.5070270270270271],[-0.3248648648648649],[1],[0],[0],[0.9539999999999509],"[""button_right_main""]",806.669,808.664,808.664,808.664,[],[],[],[],[],[],[],,808.664,808.664,0.507027027,-0.324864865,0,0,0,,0,139,139,106,1,2,word,ELABORATE,cursive,elaborate_c.png,,,
,,,,32282,001,2025-12-02_21h23.16.809,HW_LDT_1,2024.2.4,MacIntel,40,,,,,,,,,,,,,,,,,,,,,808.666,808.864,808.864,809.364,,,,,,,,,,,,0.721,1,,,,,,,,,,,,,,m,,,,,,,,,,,,,,,141,0,809.364,810.086,,0,[0.505945945945946],[-0.3356756756756757],[1],[0],[0],[0.7210000000000036],"[""button_right_main""]",810.087,812.08,812.081,812.081,[],[],[],[],[],[],[],,812.081,812.081,0.505945946,-0.335675676,0,0,0,,0,140,140,83,1,2,word,ANIMAL,print,animal_p.png,,,
,,,,32282,001,2025-12-02_21h23.16.809,HW_LDT_1,2024.2.4,MacIntel,40,,,,,,,,,,,,,,,,,,,,,812.082,812.28,812.281,812.781,,,,,,,,,,,,0.922,1,,,,,,,,,,,,,,m,,,,,,,,,,,,,,,142,0,812.781,813.704,,0,[0.5091891891891892],[-0.32594594594594595],[1],[0],[0],[0.9219999999999118],"[""button_right_main""]",813.704,815.697,815.697,815.698,[],[],[],[],[],[],[],,815.698,815.698,0.509189189,-0.325945946,0,0,0,,0,141,141,84,1,2,word,BELOVED,cursive,beloved_c.png,,,
,,,,32282,001,2025-12-02_21h23.16.809,HW_LDT_1,2024.2.4,MacIntel,40,,,,,,,,,,,,,,,,,,,,,815.699,815.897,815.897,816.397,,,,,,,,,,,,0.806,1,,,,,,,,,,,,,,m,,,,,,,,,,,,,,,143,0,816.398,817.204,,0,[0.5102702702702703],[-0.3302702702702703],[1],[0],[0],[0.8059999999999263],"[""button_right_main""]",817.204,819.197,819.197,819.198,[],[],[],[],[],[],[],,819.198,819.198,0.51027027,-0.33027027,0,0,0,,0,142,142,142,1,2,word,REMOTE,cursive,remote_c.png,,,
,,,,32282,001,2025-12-02_21h23.16.809,HW_LDT_1,2024.2.4,MacIntel,40,,,,,,,,,,,,,,,,,,,,,819.2,819.397,819.398,819.897,,,,,,,,,,,,1.022,0,,,,,,,,,,,,,,m,,,,,,,,,,,,,,,144,0,819.897,820.92,,0,[-0.5556756756756757],[-0.3183783783783784],[1],[0],[0],[1.0219999999999345],"[""button_left_main""]",820.92,822.914,822.914,822.914,[],[],[],[],[],[],[],,822.914,822.914,-0.555675676,-0.318378378,0,0,0,,0,143,143,113,1,2,word,LITERAL,cursive,literal_c.png,,,
,,,,32282,001,2025-12-02_21h23.16.809,HW_LDT_1,2024.2.4,MacIntel,40,,,,,,,,,,,,,,,,,,,,,822.916,823.114,823.114,823.614,,,,,,,,,,,,0.822,1,,,,,,,,,,,,,,m,,,,,,,,,,,,,,,145,1,823.614,824.437,,0,[0.5221621621621622],[-0.32054054054054054],[1],[0],[0],[0.8220000000000027],"[""button_right_main""]",824.437,826.43,826.431,828.187,[0.5048648648648648],[-0.34864864864864864],[1],[0],[0],[1.7559999999999718],"[""button_right_probe""]",,828.187,828.187,0.504864865,-0.348648649,1,0,0,,0,144,144,115,1,2,word,LOGICAL,print,logical_p.png,,,
,,,,32282,001,2025-12-02_21h23.16.809,HW_LDT_1,2024.2.4,MacIntel,40,,,,,,,,,,,,,,,,,,,,,828.188,828.381,828.381,828.881,,,,,,,,,,,,1.206,1,,,,,,,,,,,,,,z,,,,,,,,,,,,,,,146,0,828.881,830.087,,0,[-0.5481081081081081],[-0.31189189189189187],[1],[0],[0],[1.2060000000000173],"[""button_left_main""]",830.088,832.081,832.081,832.081,[],[],[],[],[],[],[],,832.081,832.081,-0.548108108,-0.311891892,0,0,0,,0,145,145,44,1,2,TL,catipal,cursive,catipal_c.png,,,
,,,,32282,001,2025-12-02_21h23.16.809,HW_LDT_1,2024.2.4,MacIntel,40,,,,,,,,,,,,,,,,,,,,,832.082,832.281,832.281,832.781,,,,,,,,,,,,2.606,1,,,,,,,,,,,,,,z,,,,,,,,,,,,,,,147,0,832.781,835.387,,0,[-0.5772972972972973],[-0.3356756756756757],[1],[0],[0],[2.6060000000001082],"[""button_left_main""]",835.387,837.381,837.381,837.381,[],[],[],[],[],[],[],,837.381,837.382,-0.577297297,-0.335675676,0,0,0,,0,146,146,71,1,2,TL,retome,cursive,retome_c.png,,,
,,,,32282,001,2025-12-02_21h23.16.809,HW_LDT_1,2024.2.4,MacIntel,40,,,,,,,,,,,,,,,,,,,,,837.383,837.581,837.581,838.081,,,,,,,,,,,,1.656,0,,,,,,,,,,,,,,m,,,,,,,,,,,,,,,148,0,838.081,839.737,,0,[-0.5610810810810811],[-0.3075675675675676],[1],[0],[0],[1.655999999999949],"[""button_left_main""]",839.738,841.731,841.731,841.731,[],[],[],[],[],[],[],,841.731,841.731,-0.561081081,-0.307567568,0,0,0,,0,147,147,111,1,2,word,INDICATE,cursive,indicate_c.png,,,
,,,,32282,001,2025-12-02_21h23.16.809,HW_LDT_1,2024.2.4,MacIntel,40,,,,,,,,,,,,,,,,,,,,,841.732,841.931,841.931,842.431,,,,,,,,,,,,1.621,1,,,,,,,,,,,,,,z,,,,,,,,,,,,,,,149,0,842.431,844.054,,0,[-0.5621621621621622],[-0.3021621621621622],[1],[0],[0],[1.620999999999981],"[""button_left_main""]",844.054,846.047,846.047,846.048,[],[],[],[],[],[],[],,846.048,846.048,-0.562162162,-0.302162162,0,0,0,,0,148,148,79,1,2,TL,vadility,print,vadility_p.png,,,
,,,,32282,001,2025-12-02_21h23.16.809,HW_LDT_1,2024.2.4,MacIntel,40,,,,,,,,,,,,,,,,,,,,,846.049,846.247,846.247,846.747,,,,,,,,,,,,0.773,1,,,,,,,,,,,,,,m,,,,,,,,,,,,,,,150,0,846.748,847.521,,0,[0.5124324324324324],[-0.3356756756756757],[1],[0],[0],[0.7729999999999109],"[""button_right_main""]",847.521,849.515,849.515,849.515,[],[],[],[],[],[],[],,849.515,849.516,0.512432432,-0.335675676,0,0,0,,0,149,149,145,1,2,word,RESUME,cursive,resume_c.png,,,
,,,,32282,001,2025-12-02_21h23.16.809,HW_LDT_1,2024.2.4,MacIntel,40,,,,,,,,,,,,,,,,,,,,,849.517,849.714,849.714,850.214,,,,,,,,,,,,3.155,1,,,,,,,,,,,,,,z,,,,,,,,,,,,,,,151,0,850.215,853.371,,0,[-0.5556756756756757],[-0.2935135135135135],[1],[0],[0],[3.1549999999999727],"[""button_left_main""]",853.371,855.364,855.364,855.365,[],[],[],[],[],[],[],,855.365,855.365,-0.555675676,-0.293513514,0,0,0,,0,150,150,54,1,2,TL,liretal,cursive,liretal_c.png,,,
,,,,32282,001,2025-12-02_21h23.16.809,HW_LDT_1,2024.2.4,MacIntel,40,,,,,,,,,,,,,,,,,,,,,855.366,855.564,855.564,856.064,,,,,,,,,,,,1.537,1,,,,,,,,,,,,,,z,,,,,,,,,,,,,,,152,0,856.065,857.603,,0,[-0.5632432432432433],[-0.3108108108108108],[1],[0],[0],[1.5369999999999209],"[""button_left_main""]",857.603,859.598,859.598,859.598,[],[],[],[],[],[],[],,859.598,859.598,-0.563243243,-0.310810811,0,0,0,,0,151,151,63,1,2,TL,orinigal,print,orinigal_p.png,,,
,,,,32282,001,2025-12-02_21h23.16.809,HW_LDT_1,2024.2.4,MacIntel,40,,,,,,,,,,,,,,,,,,,,,859.599,859.798,859.798,860.297,,,,,,,,,,,,1.357,0,,,,,,,,,,,,,,m,,,,,,,,,,,,,,,153,0,860.298,861.655,,0,[-0.5502702702702703],[-0.30648648648648646],[1],[0],[0],[1.356999999999971],"[""button_left_main""]",861.655,863.647,863.648,863.648,[],[],[],[],[],[],[],,863.648,863.648,-0.55027027,-0.306486486,0,0,0,,0,152,152,97,1,2,word,COVERAGE,cursive,coverage_c.png,,,
,,,,32282,001,2025-12-02_21h23.16.809,HW_LDT_1,2024.2.4,MacIntel,40,,,,,,,,,,,,,,,,,,,,,863.649,863.847,863.848,864.348,,,,,,,,,,,,0.79,1,,,,,,,,,,,,,,z,,,,,,,,,,,,,,,154,0,864.348,865.138,,0,[-0.5675675675675675],[-0.3162162162162162],[1],[0],[0],[0.7900000000000773],"[""button_left_main""]",865.138,867.131,867.131,867.131,[],[],[],[],[],[],[],,867.131,867.131,-0.567567568,-0.316216216,0,0,0,,0,153,153,13,1,2,RL,helicage,print,helicage_p.png,,,
,,,,32282,001,2025-12-02_21h23.16.809,HW_LDT_1,2024.2.4,MacIntel,40,,,,,,,,,,,,,,,,,,,,,867.132,867.331,867.331,867.831,,,,,,,,,,,,1.739,1,,,,,,,,,,,,,,z,,,,,,,,,,,,,,,155,0,867.831,869.571,,0,[-0.5686486486486486],[-0.30324324324324325],[1],[0],[0],[1.7390000000000327],"[""button_left_main""]",869.571,871.564,871.564,871.564,[],[],[],[],[],[],[],,871.565,871.565,-0.568648649,-0.303243243,0,0,0,,0,154,154,7,1,2,RL,cocewage,cursive,cocewage_c.png,,,
,,,,32282,001,2025-12-02_21h23.16.809,HW_LDT_1,2024.2.4,MacIntel,40,,,,,,,,,,,,,,,,,,,,,871.565,871.764,871.764,872.264,,,,,,,,,,,,0.821,1,,,,,,,,,,,,,,m,,,,,,,,,,,,,,,156,0,872.265,873.087,,0,[0.518918918918919],[-0.3443243243243243],[1],[0],[0],[0.8210000000000264],"[""button_right_main""]",873.087,875.081,875.081,875.081,[],[],[],[],[],[],[],,875.081,875.081,0.518918919,-0.344324324,0,0,0,,0,155,155,147,1,2,word,ROMANTIC,print,romantic_p.png,,,
,,,,32282,001,2025-12-02_21h23.16.809,HW_LDT_1,2024.2.4,MacIntel,40,,,,,,,,,,,,,,,,,,,,,875.082,875.282,875.282,875.781,,,,,,,,,,,,2.049,1,,,,,,,,,,,,,,z,,,,,,,,,,,,,,,157,0,875.787,877.838,,0,[-0.5437837837837838],[-0.30972972972972973],[1],[0],[0],[2.048999999999978],"[""button_left_main""]",877.838,879.831,879.831,879.831,[],[],[],[],[],[],[],,879.831,879.831,-0.543783784,-0.30972973,0,0,0,,0,156,156,37,1,2,TL,adacemy,cursive,adacemy_c.png,,,
,,,,32282,001,2025-12-02_21h23.16.809,HW_LDT_1,2024.2.4,MacIntel,40,,,,,,,,,,,,,,,,,,,,,879.834,880.031,880.031,880.531,,,,,,,,,,,,1.323,1,,,,,,,,,,,,,,z,,,,,,,,,,,,,,,158,0,880.532,881.855,,0,[-0.5243243243243243],[-0.2935135135135135],[1],[0],[0],[1.322999999999979],"[""button_left_main""]",881.855,883.848,883.848,883.848,[],[],[],[],[],[],[],,883.848,883.848,-0.524324324,-0.293513514,0,0,0,,0,157,157,5,1,2,RL,clisimal,cursive,clisimal_c.png,,,
,,,,32282,001,2025-12-02_21h23.16.809,HW_LDT_1,2024.2.4,MacIntel,40,,,,,,,,,,,,,,,,,,,,,883.849,884.048,884.048,884.548,,,,,,,,,,,,1.272,0,,,,,,,,,,,,,,m,,,,,,,,,,,,,,,159,0,884.548,885.821,,0,[-0.5254054054054054],[-0.2772972972972973],[1],[0],[0],[1.2720000000000482],"[""button_left_main""]",885.821,887.814,887.814,887.815,[],[],[],[],[],[],[],,887.815,887.815,-0.525405405,-0.277297297,0,0,0,,0,158,158,123,1,2,word,MODERATE,cursive,moderate_c.png,,,
,,,,32282,001,2025-12-02_21h23.16.809,HW_LDT_1,2024.2.4,MacIntel,40,,,,,,,,,,,,,,,,,,,,,887.815,888.014,888.019,888.514,,,,,,,,,,,,1.056,0,,,,,,,,,,,,,,m,,,,,,,,,,,,,,,160,0,888.515,889.571,,0,[-0.5362162162162162],[-0.29243243243243244],[1],[0],[0],[1.05600000000004],"[""button_left_main""]",889.571,891.564,891.565,891.565,[],[],[],[],[],[],[],,891.565,891.565,-0.536216216,-0.292432432,0,0,0,,0,159,159,126,1,2,word,OPTIMAL,cursive,optimal_c.png,,,
,,,,32282,001,2025-12-02_21h23.16.809,HW_LDT_1,2024.2.4,MacIntel,40,,,,,,,,,,,,,,,,,,,,,,,,,,,,,,,,,,,,,,,,,,,,,,,,,,,,,,,,,,,,,,,,,,,,,,,,,,,,,,,,,,,,,,,,,,,,,,,,,,,,,,,,,,,,,,891.578,896.565
