counterbalance_lists.group,counterbalance_lists.remaining,get_list.started,get_list.stopped,participant,session,date,expName,psychopyVersion,OS,frameRate,Instructions.started,Instructions.stopped,key_resp.keys,instr_done_touch.x,instr_done_touch.y,instr_done_touch.leftButton,instr_done_touch.midButton,instr_done_touch.rightButton,instr_done_touch.clicked_name,start_instr.thisRepN,start_instr.thisTrialN,start_instr.thisN,start_instr.thisIndex,start_instr.ran,pageN,phase,instruct_text,has_image,instruct_image,key_resp.rt,key_resp.duration,showProgress.started,showProgress.stopped,fix.started,fix.stopped,prac.started,prac.stopped,response.keys,response.corr,response.rt,response.duration,touch_resp.x,touch_resp.y,touch_resp.leftButton,touch_resp.midButton,touch_resp.rightButton,touch_resp.time,touch_resp.clicked_name,rt,corr,feedback.started,feedback.stopped,trials.thisRepN,trials.thisTrialN,trials.thisN,trials.thisIndex,trials.ran,TrialID,StimulusType,Condition,PrimeDuration,Prime,Target,corrAns,Instructions_expt.started,Instructions_expt.stopped,key_resp_3.keys,instr_done_touch_3.x,instr_done_touch_3.y,instr_done_touch_3.leftButton,instr_done_touch_3.midButton,instr_done_touch_3.rightButton,instr_done_touch_3.clicked_name,instr_experiment.thisRepN,instr_experiment.thisTrialN,instr_experiment.thisN,instr_experiment.thisIndex,instr_experiment.ran,trialID,flag,maintask.started,maintask.stopped,key_resp_2.keys,key_resp_2.corr,key_resp_2.rt,key_resp_2.duration,targ_click.x,targ_click.y,targ_click.leftButton,targ_click.midButton,targ_click.rightButton,targ_click.time,targ_click.clicked_name,ITI.started,ITI.stopped,probe.started,probe.stopped,click_probe.x,click_probe.y,click_probe.leftButton,click_probe.midButton,click_probe.rightButton,click_probe.time,click_probe.clicked_name,key_resp_probe.keys,Break.started,Break.stopped,break_done_touch.x,break_done_touch.y,break_done_touch.leftButton,break_done_touch.midButton,break_done_touch.rightButton,break_done_keyboard.keys,list2_trials.thisRepN,list2_trials.thisTrialN,list2_trials.thisN,list2_trials.thisIndex,list2_trials.ran,list_id,item_type,string,font,stim_file,key_resp_probe.rt,key_resp_probe.duration,break_done_keyboard.rt,break_done_keyboard.duration,End.started,End.stopped
list2,,4.365,4.366,32297,001,2025-11-09_11h07.04.644,HW_LDT_1,2024.2.4,MacIntel,58.82352941,,,,,,,,,,,,,,,,,,,,,,,,,,,,,,,,,,,,,,,,,,,,,,,,,,,,,,,,,,,,,,,,,,,,,,,,,,,,,,,,,,,,,,,,,,,,,,,,,,,,,,,,,,,,,,,,,,,,,,,
,,,,32297,001,2025-11-09_11h07.04.644,HW_LDT_1,2024.2.4,MacIntel,58.82352941,4.388,36.208,,-0.166304348,-0.385869565,1,0,0,instr_done_button,0,0,0,0,1,1,instructions,"INSTRUCTIONS
At the start of each trial, look at the plus sign  (+) in the center of the screen.  This tells you that a trial is about to begin and where to look. Second, the plus sign will disappear and a string of letters will appear. Your task is to determine if the string of letters is a word or not. If the item is a word press the M key (on keyboard)  or touch the word button (phone/tablet).  If the item is not a word,  press the  Z key (on keyboard)  or touch the nonword button (on phone/tablet). The items will be presented for a short time. 
Press the space bar or touch  continue.",0,,,,,,,,,,,,,,,,,,,,,,,,,,,,,,,,,,,,,,,,,,,,,,,,,,,,,,,,,,,,,,,,,,,,,,,,,,,,,,,,,,,,,,,,,,,,,,,,,,,,,
,,,,32297,001,2025-11-09_11h07.04.644,HW_LDT_1,2024.2.4,MacIntel,58.82352941,36.211,38.984,space,-0.157608696,-0.383695652,0,0,0,,0,1,1,1,1,2,instructions,"If your device has a keyboard, press the 'Z' key for nonwords and the 'M' key for words.





Press the space bar or touch the button below to continue.",0,keyboard-example.gif,2.744,,,,,,,,,,,,,,,,,,,,,,,,,,,,,,,,,,,,,,,,,,,,,,,,,,,,,,,,,,,,,,,,,,,,,,,,,,,,,,,,,,,,,,,,,,,,,,,,,,,
,,,,32297,001,2025-11-09_11h07.04.644,HW_LDT_1,2024.2.4,MacIntel,58.82352941,38.986,40.134,space,-0.157608696,-0.383695652,0,0,0,,0,2,2,2,1,3,instructions,"If you are using a touchscreen only device, use the buttons on the screen. Do not use the mouse.





Press the space bar or touch the button below to continue.",0,touchscreen-example.gif,1.122,,,,,,,,,,,,,,,,,,,,,,,,,,,,,,,,,,,,,,,,,,,,,,,,,,,,,,,,,,,,,,,,,,,,,,,,,,,,,,,,,,,,,,,,,,,,,,,,,,,
,,,,32297,001,2025-11-09_11h07.04.644,HW_LDT_1,2024.2.4,MacIntel,58.82352941,40.137,49.501,space,-0.157608696,-0.383695652,0,0,0,,0,3,3,3,1,4,instructions,"It is very important that you respond as quickly and accurately as possible, as each letter string will only be on the screen for two seconds. If you do not respond within this time, the message 'Too slow!' will be displayed and the experiment will progress to the next letter string. The first 20 trials will be practice trials and you will receive feedback on your answers. 

Press the space bar or touch the button below to start the practice trials.",0,,9.331,,,,,,,,,,,,,,,,,,,,,,,,,,,,,,,,,,,,,,,,,,,,,,,,,,,,,,,,,,,,,,,,,,,,,,,,,,,,,,,,,,,,,,,,,,,,,,,,,,,
,,,,32297,001,2025-11-09_11h07.04.644,HW_LDT_1,2024.2.4,MacIntel,58.82352941,,,,,,,,,,,,,,,,,,,,,,49.529,49.702,49.703,50.202,50.203,51.752,z,1,1.522,,[],[],[],[],[],[],[],1.522,1,51.753,52.252,0,0,0,15,1,1016,NW,UN,16,mushed,WHAISE,z,,,,,,,,,,,,,,,,,,,,,,,,,,,,,,,,,,,,,,,,,,,,,,,,,,,,,,,,,,,,,,,,,
,,,,32297,001,2025-11-09_11h07.04.644,HW_LDT_1,2024.2.4,MacIntel,58.82352941,,,,,,,,,,,,,,,,,,,,,,52.254,52.451,52.451,52.951,52.953,53.867,z,1,0.904,,[],[],[],[],[],[],[],0.904,1,53.868,54.368,0,1,1,12,1,1013,NW,UN,33,adveil,SPRINY,z,,,,,,,,,,,,,,,,,,,,,,,,,,,,,,,,,,,,,,,,,,,,,,,,,,,,,,,,,,,,,,,,,
,,,,32297,001,2025-11-09_11h07.04.644,HW_LDT_1,2024.2.4,MacIntel,58.82352941,,,,,,,,,,,,,,,,,,,,,,54.369,54.567,54.567,55.067,55.069,55.888,m,1,0.805,,[],[],[],[],[],[],[],0.805,1,55.889,56.384,0,2,2,3,1,1004,WORD,"ID",16,matrix,MATRIX,m,,,,,,,,,,,,,,,,,,,,,,,,,,,,,,,,,,,,,,,,,,,,,,,,,,,,,,,,,,,,,,,,,
,,,,32297,001,2025-11-09_11h07.04.644,HW_LDT_1,2024.2.4,MacIntel,58.82352941,,,,,,,,,,,,,,,,,,,,,,56.386,56.584,56.584,57.067,57.068,57.684,m,1,0.595,,[],[],[],[],[],[],[],0.595,1,57.684,58.184,0,3,3,6,1,1007,WORD,UN,16,tropic,ZOMBIE,m,,,,,,,,,,,,,,,,,,,,,,,,,,,,,,,,,,,,,,,,,,,,,,,,,,,,,,,,,,,,,,,,,
,,,,32297,001,2025-11-09_11h07.04.644,HW_LDT_1,2024.2.4,MacIntel,58.82352941,,,,,,,,,,,,,,,,,,,,,,58.186,58.384,58.384,58.884,58.886,59.434,m,1,0.53,,[],[],[],[],[],[],[],0.53,1,59.434,59.933,0,4,4,5,1,1006,WORD,UN,33,frenzy,OBTAIN,m,,,,,,,,,,,,,,,,,,,,,,,,,,,,,,,,,,,,,,,,,,,,,,,,,,,,,,,,,,,,,,,,,
,,,,32297,001,2025-11-09_11h07.04.644,HW_LDT_1,2024.2.4,MacIntel,58.82352941,,,,,,,,,,,,,,,,,,,,,,59.935,60.134,60.134,60.634,60.635,61.367,z,1,0.714,,[],[],[],[],[],[],[],0.714,1,61.368,61.867,0,5,5,9,1,1010,NW,"ID",33,fariny,FARINY,z,,,,,,,,,,,,,,,,,,,,,,,,,,,,,,,,,,,,,,,,,,,,,,,,,,,,,,,,,,,,,,,,,
,,,,32297,001,2025-11-09_11h07.04.644,HW_LDT_1,2024.2.4,MacIntel,58.82352941,,,,,,,,,,,,,,,,,,,,,,61.869,62.067,62.067,62.567,62.568,63.167,m,1,0.581,,[],[],[],[],[],[],[],0.581,1,63.167,63.667,0,6,6,4,1,1005,WORD,UN,33,abound,SQUEAK,m,,,,,,,,,,,,,,,,,,,,,,,,,,,,,,,,,,,,,,,,,,,,,,,,,,,,,,,,,,,,,,,,,
,,,,32297,001,2025-11-09_11h07.04.644,HW_LDT_1,2024.2.4,MacIntel,58.82352941,,,,,,,,,,,,,,,,,,,,,,63.669,63.867,63.867,64.367,64.368,65.034,m,1,0.647,,[],[],[],[],[],[],[],0.647,1,65.034,65.534,0,7,7,0,1,1001,WORD,"ID",33,utopia,UTOPIA,m,,,,,,,,,,,,,,,,,,,,,,,,,,,,,,,,,,,,,,,,,,,,,,,,,,,,,,,,,,,,,,,,,
,,,,32297,001,2025-11-09_11h07.04.644,HW_LDT_1,2024.2.4,MacIntel,58.82352941,,,,,,,,,,,,,,,,,,,,,,65.536,65.734,65.734,66.233,66.235,66.751,m,1,0.5,,[],[],[],[],[],[],[],0.5,1,66.751,67.25,0,8,8,7,1,1008,WORD,UN,16,hurdle,VOLUME,m,,,,,,,,,,,,,,,,,,,,,,,,,,,,,,,,,,,,,,,,,,,,,,,,,,,,,,,,,,,,,,,,,
,,,,32297,001,2025-11-09_11h07.04.644,HW_LDT_1,2024.2.4,MacIntel,58.82352941,,,,,,,,,,,,,,,,,,,,,,67.252,67.45,67.451,67.95,67.951,68.534,m,1,0.563,,[],[],[],[],[],[],[],0.563,1,68.534,69.044,0,9,9,1,1,1002,WORD,"ID",33,adjust,ADJUST,m,,,,,,,,,,,,,,,,,,,,,,,,,,,,,,,,,,,,,,,,,,,,,,,,,,,,,,,,,,,,,,,,,
,,,,32297,001,2025-11-09_11h07.04.644,HW_LDT_1,2024.2.4,MacIntel,58.82352941,,,,,,,,,,,,,,,,,,,,,,69.046,69.234,69.234,69.734,69.735,70.734,z,1,0.979,,[],[],[],[],[],[],[],0.979,1,70.734,71.234,0,10,10,14,1,1015,NW,UN,16,miaber,THRALE,z,,,,,,,,,,,,,,,,,,,,,,,,,,,,,,,,,,,,,,,,,,,,,,,,,,,,,,,,,,,,,,,,,
,,,,32297,001,2025-11-09_11h07.04.644,HW_LDT_1,2024.2.4,MacIntel,58.82352941,,,,,,,,,,,,,,,,,,,,,,71.236,71.434,71.434,71.934,71.935,72.867,z,1,0.915,,[],[],[],[],[],[],[],0.915,1,72.867,73.367,0,11,11,11,1,1012,NW,"ID",16,rashet,RASHET,z,,,,,,,,,,,,,,,,,,,,,,,,,,,,,,,,,,,,,,,,,,,,,,,,,,,,,,,,,,,,,,,,,
,,,,32297,001,2025-11-09_11h07.04.644,HW_LDT_1,2024.2.4,MacIntel,58.82352941,,,,,,,,,,,,,,,,,,,,,,73.369,73.567,73.567,74.067,74.068,74.918,z,1,0.839,,[],[],[],[],[],[],[],0.839,1,74.918,75.417,0,12,12,13,1,1014,NW,UN,33,winfer,ROUPET,z,,,,,,,,,,,,,,,,,,,,,,,,,,,,,,,,,,,,,,,,,,,,,,,,,,,,,,,,,,,,,,,,,
,,,,32297,001,2025-11-09_11h07.04.644,HW_LDT_1,2024.2.4,MacIntel,58.82352941,,,,,,,,,,,,,,,,,,,,,,75.419,75.617,75.617,76.117,76.118,76.717,m,1,0.58,,[],[],[],[],[],[],[],0.58,1,76.717,77.217,0,13,13,2,1,1003,WORD,"ID",16,almond,ALMOND,m,,,,,,,,,,,,,,,,,,,,,,,,,,,,,,,,,,,,,,,,,,,,,,,,,,,,,,,,,,,,,,,,,
,,,,32297,001,2025-11-09_11h07.04.644,HW_LDT_1,2024.2.4,MacIntel,58.82352941,,,,,,,,,,,,,,,,,,,,,,77.219,77.417,77.417,77.917,77.918,78.7,z,1,0.766,,[],[],[],[],[],[],[],0.766,1,78.7,79.2,0,14,14,8,1,1009,NW,"ID",33,aslert,ASLERT,z,,,,,,,,,,,,,,,,,,,,,,,,,,,,,,,,,,,,,,,,,,,,,,,,,,,,,,,,,,,,,,,,,
,,,,32297,001,2025-11-09_11h07.04.644,HW_LDT_1,2024.2.4,MacIntel,58.82352941,,,,,,,,,,,,,,,,,,,,,,79.202,79.4,79.4,79.9,79.901,80.733,z,1,0.821,,[],[],[],[],[],[],[],0.821,1,80.733,81.234,0,15,15,10,1,1011,NW,"ID",16,inlade,INLADE,z,,,,,,,,,,,,,,,,,,,,,,,,,,,,,,,,,,,,,,,,,,,,,,,,,,,,,,,,,,,,,,,,,
,,,,32297,001,2025-11-09_11h07.04.644,HW_LDT_1,2024.2.4,MacIntel,58.82352941,,,,,,,,,,,,,,,1,end_of_practice,"You have completed the practice trials. During the experimental trials, you will not receive feedback. On some trials you will be asked to report whether the item you just saw was in cursive or print. 
Before you begin, please ensure that you are in a comfortable and quiet location and will not be disturbed for about 15 minutes, as we cannot use your data if you do not complete all the trials. 
 When you are ready to start the experimental trials, please press space or touch the button below.",,,,,,,,,,,,,,,,,,,,,,,,,,,,,,,,,,,,,,81.243,154.601,,-0.036956522,-0.390217391,1,0,0,instr_done_button_3,0,0,0,0,1,,,,,,,,,,,,,,,,,,,,,,,,,,,,,,,,,,,,,,,,,,,,,,,,,,,
,,,,32297,001,2025-11-09_11h07.04.644,HW_LDT_1,2024.2.4,MacIntel,58.82352941,,,,,,,,,,,,,,,,,,,,,,154.619,154.799,154.8,155.3,,,,,,,,,,,,,,0.87,1,,,,,,,,,,,,,,m,,,,,,,,,,,,,,,1,0,155.302,156.184,m,1,0.87,,[],[],[],[],[],[],[],156.184,158.184,158.185,158.193,[],[],[],[],[],[],[],,158.193,158.197,-0.036956522,-0.390217391,0,0,0,,0,0,0,104,1,2,word,DOMINANT,print,dominant_p.png,,,,,,
,,,,32297,001,2025-11-09_11h07.04.644,HW_LDT_1,2024.2.4,MacIntel,58.82352941,,,,,,,,,,,,,,,,,,,,,,158.198,158.399,158.4,158.899,,,,,,,,,,,,,,0.923,1,,,,,,,,,,,,,,z,,,,,,,,,,,,,,,2,0,158.9,159.833,z,1,0.923,,[],[],[],[],[],[],[],159.833,161.833,161.833,161.834,[],[],[],[],[],[],[],,161.834,161.834,-0.036956522,-0.390217391,0,0,0,,0,1,1,11,1,2,RL,formuke,print,formuke_p.png,,,,,,
,,,,32297,001,2025-11-09_11h07.04.644,HW_LDT_1,2024.2.4,MacIntel,58.82352941,,,,,,,,,,,,,,,,,,,,,,161.836,162.032,162.032,162.533,,,,,,,,,,,,,,1.721,1,,,,,,,,,,,,,,m,,,,,,,,,,,,,,,3,0,162.533,164.266,m,1,1.721,,[],[],[],[],[],[],[],164.266,166.266,166.266,166.267,[],[],[],[],[],[],[],,166.267,166.267,-0.036956522,-0.390217391,0,0,0,,0,2,2,109,1,2,word,GRATEFUL,cursive,grateful_c.png,,,,,,
,,,,32297,001,2025-11-09_11h07.04.644,HW_LDT_1,2024.2.4,MacIntel,58.82352941,,,,,,,,,,,,,,,,,,,,,,166.269,166.466,166.466,166.966,,,,,,,,,,,,,,1.122,1,,,,,,,,,,,,,,m,,,,,,,,,,,,,,,4,0,166.966,168.099,m,1,1.122,,[],[],[],[],[],[],[],168.099,170.099,170.099,170.1,[],[],[],[],[],[],[],,170.1,170.1,-0.036956522,-0.390217391,0,0,0,,0,3,3,139,1,2,word,REGULAR,cursive,regular_c.png,,,,,,
,,,,32297,001,2025-11-09_11h07.04.644,HW_LDT_1,2024.2.4,MacIntel,58.82352941,,,,,,,,,,,,,,,,,,,,,,170.101,170.299,170.299,170.799,,,,,,,,,,,,,,1.571,1,,,,,,,,,,,,,,z,,,,,,,,,,,,,,,5,0,170.8,172.383,z,1,1.571,,[],[],[],[],[],[],[],172.383,174.382,174.383,174.383,[],[],[],[],[],[],[],,174.383,174.383,-0.036956522,-0.390217391,0,0,0,,0,4,4,70,1,2,TL,retalive,print,retalive_p.png,,,,,,
,,,,32297,001,2025-11-09_11h07.04.644,HW_LDT_1,2024.2.4,MacIntel,58.82352941,,,,,,,,,,,,,,,,,,,,,,174.385,174.583,174.583,175.082,,,,,,,,,,,,,,1.922,0,,,,,,,,,,,,,,m,,,,,,,,,,,,,,,6,0,175.083,177.016,z,0,1.922,,[],[],[],[],[],[],[],177.016,179.016,179.016,179.016,[],[],[],[],[],[],[],,179.017,179.017,-0.036956522,-0.390217391,0,0,0,,0,5,5,121,1,2,word,MISTAKE,cursive,mistake_c.png,,,,,,
,,,,32297,001,2025-11-09_11h07.04.644,HW_LDT_1,2024.2.4,MacIntel,58.82352941,,,,,,,,,,,,,,,,,,,,,,179.018,179.216,179.216,179.716,,,,,,,,,,,,,,0.957,1,,,,,,,,,,,,,,m,,,,,,,,,,,,,,,7,0,179.717,180.683,m,1,0.957,,[],[],[],[],[],[],[],180.683,182.682,182.683,182.683,[],[],[],[],[],[],[],,182.683,182.683,-0.036956522,-0.390217391,0,0,0,,0,6,6,82,1,2,word,AMATEUR,cursive,amateur_c.png,,,,,,
,,,,32297,001,2025-11-09_11h07.04.644,HW_LDT_1,2024.2.4,MacIntel,58.82352941,,,,,,,,,,,,,,,,,,,,,,182.685,182.883,182.883,183.382,,,,,,,,,,,,,,0.704,1,,,,,,,,,,,,,,m,,,,,,,,,,,,,,,8,0,183.383,184.099,m,1,0.704,,[],[],[],[],[],[],[],184.099,186.099,186.099,186.099,[],[],[],[],[],[],[],,186.099,186.099,-0.036956522,-0.390217391,0,0,0,,0,7,7,112,1,2,word,LIBERAL,print,liberal_p.png,,,,,,
,,,,32297,001,2025-11-09_11h07.04.644,HW_LDT_1,2024.2.4,MacIntel,58.82352941,,,,,,,,,,,,,,,,,,,,,,186.1,186.299,186.299,186.799,,,,,,,,,,,,,,0.679,1,,,,,,,,,,,,,,m,,,,,,,,,,,,,,,9,0,186.8,187.483,m,1,0.679,,[],[],[],[],[],[],[],187.483,189.482,189.482,189.483,[],[],[],[],[],[],[],,189.483,189.483,-0.036956522,-0.390217391,0,0,0,,0,8,8,137,1,2,word,RAPIDLY,print,rapidly_p.png,,,,,,
,,,,32297,001,2025-11-09_11h07.04.644,HW_LDT_1,2024.2.4,MacIntel,58.82352941,,,,,,,,,,,,,,,,,,,,,,189.485,189.682,189.683,190.182,,,,,,,,,,,,,,0.703,1,,,,,,,,,,,,,,m,,,,,,,,,,,,,,,10,0,190.183,190.899,m,1,0.703,,[],[],[],[],[],[],[],190.899,192.899,192.899,192.899,[],[],[],[],[],[],[],,192.9,192.9,-0.036956522,-0.390217391,0,0,0,,0,9,9,86,1,2,word,BESIDE,cursive,beside_c.png,,,,,,
,,,,32297,001,2025-11-09_11h07.04.644,HW_LDT_1,2024.2.4,MacIntel,58.82352941,,,,,,,,,,,,,,,,,,,,,,192.901,193.099,193.099,193.599,,,,,,,,,,,,,,1.192,1,,,,,,,,,,,,,,z,,,,,,,,,,,,,,,11,1,193.6,194.799,z,1,1.192,,[],[],[],[],[],[],[],194.799,196.799,196.799,199.499,[],[],[],[],[],[],[],m,199.499,199.499,-0.036956522,-0.390217391,0,0,0,,0,10,10,31,1,2,RL,spetisic,print,spetisic_p.png,2.696,,,,,
,,,,32297,001,2025-11-09_11h07.04.644,HW_LDT_1,2024.2.4,MacIntel,58.82352941,,,,,,,,,,,,,,,,,,,,,,199.5,199.699,199.699,200.199,,,,,,,,,,,,,,1.188,1,,,,,,,,,,,,,,m,,,,,,,,,,,,,,,12,0,200.199,201.398,m,1,1.188,,[],[],[],[],[],[],[],201.398,203.399,203.399,203.399,[],[],[],[],[],[],[],,203.4,203.4,-0.036956522,-0.390217391,0,0,0,,0,11,11,151,1,2,word,SPECIFIC,print,specific_p.png,,,,,,
,,,,32297,001,2025-11-09_11h07.04.644,HW_LDT_1,2024.2.4,MacIntel,58.82352941,,,,,,,,,,,,,,,,,,,,,,203.401,203.599,203.599,204.099,,,,,,,,,,,,,,2.205,0,,,,,,,,,,,,,,m,,,,,,,,,,,,,,,13,0,204.099,206.316,z,0,2.205,,[],[],[],[],[],[],[],206.316,208.315,208.316,208.316,[],[],[],[],[],[],[],,208.316,208.317,-0.036956522,-0.390217391,0,0,0,,0,12,12,105,1,2,word,EDITOR,cursive,editor_c.png,,,,,,
,,,,32297,001,2025-11-09_11h07.04.644,HW_LDT_1,2024.2.4,MacIntel,58.82352941,,,,,,,,,,,,,,,,,,,,,,208.318,208.515,208.516,209.015,,,,,,,,,,,,,,2.059,1,,,,,,,,,,,,,,m,,,,,,,,,,,,,,,14,0,209.016,211.082,m,1,2.059,,[],[],[],[],[],[],[],211.082,213.082,213.082,213.083,[],[],[],[],[],[],[],,213.083,213.083,-0.036956522,-0.390217391,0,0,0,,0,13,13,150,1,2,word,SENTIMENT,cursive,sentiment_c.png,,,,,,
,,,,32297,001,2025-11-09_11h07.04.644,HW_LDT_1,2024.2.4,MacIntel,58.82352941,,,,,,,,,,,,,,,,,,,,,,213.085,213.282,213.282,213.782,,,,,,,,,,,,,,0.854,1,,,,,,,,,,,,,,z,,,,,,,,,,,,,,,15,1,213.783,214.649,z,1,0.854,,[],[],[],[],[],[],[],214.649,216.649,216.649,219.816,[],[],[],[],[],[],[],m,219.816,219.816,-0.036956522,-0.390217391,0,0,0,,0,14,14,60,1,2,TL,molibe,print,molibe_p.png,3.163,,,,,
,,,,32297,001,2025-11-09_11h07.04.644,HW_LDT_1,2024.2.4,MacIntel,58.82352941,,,,,,,,,,,,,,,,,,,,,,219.817,220.016,220.016,220.515,,,,,,,,,,,,,,2.191,0,,,,,,,,,,,,,,m,,,,,,,,,,,,,,,16,0,220.516,222.716,z,0,2.191,,[],[],[],[],[],[],[],222.716,224.716,224.716,224.717,[],[],[],[],[],[],[],,224.717,224.718,-0.036956522,-0.390217391,0,0,0,,0,15,15,126,1,2,word,OPTIMAL,cursive,optimal_c.png,,,,,,
,,,,32297,001,2025-11-09_11h07.04.644,HW_LDT_1,2024.2.4,MacIntel,58.82352941,,,,,,,,,,,,,,,,,,,,,,224.719,224.915,224.916,225.415,,,,,,,,,,,,,,1.323,0,,,,,,,,,,,,,,m,,,,,,,,,,,,,,,17,0,225.416,226.749,z,0,1.323,,[],[],[],[],[],[],[],226.749,228.749,228.749,228.75,[],[],[],[],[],[],[],,228.75,228.75,-0.036956522,-0.390217391,0,0,0,,0,16,16,120,1,2,word,MILITARY,cursive,military_c.png,,,,,,
,,,,32297,001,2025-11-09_11h07.04.644,HW_LDT_1,2024.2.4,MacIntel,58.82352941,,,,,,,,,,,,,,,,,,,,,,228.752,228.949,228.949,229.448,,,,,,,,,,,,,,1.719,1,,,,,,,,,,,,,,m,,,,,,,,,,,,,,,18,1,229.449,231.182,m,1,1.719,,[],[],[],[],[],[],[],231.182,233.182,233.182,234.749,[],[],[],[],[],[],[],z,234.749,234.749,-0.036956522,-0.390217391,0,0,0,,0,17,17,148,1,2,word,SALINE,cursive,saline_c.png,1.556,,,,,
,,,,32297,001,2025-11-09_11h07.04.644,HW_LDT_1,2024.2.4,MacIntel,58.82352941,,,,,,,,,,,,,,,,,,,,,,234.751,234.949,234.949,235.449,,,,,,,,,,,,,,1.571,1,,,,,,,,,,,,,,m,,,,,,,,,,,,,,,19,0,235.449,237.032,m,1,1.571,,[],[],[],[],[],[],[],237.032,239.032,239.032,239.033,[],[],[],[],[],[],[],,239.033,239.033,-0.036956522,-0.390217391,0,0,0,,0,18,18,132,1,2,word,PROPOSAL,cursive,proposal_c.png,,,,,,
,,,,32297,001,2025-11-09_11h07.04.644,HW_LDT_1,2024.2.4,MacIntel,58.82352941,,,,,,,,,,,,,,,,,,,,,,239.034,239.232,239.232,239.732,,,,,,,,,,,,,,1.036,1,,,,,,,,,,,,,,z,,,,,,,,,,,,,,,20,0,239.732,240.782,z,1,1.036,,[],[],[],[],[],[],[],240.782,242.782,242.782,242.782,[],[],[],[],[],[],[],,242.782,242.783,-0.036956522,-0.390217391,0,0,0,,0,19,19,64,1,2,TL,paficic,print,paficic_p.png,,,,,,
,,,,32297,001,2025-11-09_11h07.04.644,HW_LDT_1,2024.2.4,MacIntel,58.82352941,,,,,,,,,,,,,,,,,,,,,,242.784,242.982,242.982,243.482,,,,,,,,,,,,,,2.839,1,,,,,,,,,,,,,,m,,,,,,,,,,,,,,,21,0,243.482,246.332,m,1,2.839,,[],[],[],[],[],[],[],246.332,248.332,248.332,248.332,[],[],[],[],[],[],[],,248.332,248.333,-0.036956522,-0.390217391,0,0,0,,0,20,20,98,1,2,word,CRIMINAL,cursive,criminal_c.png,,,,,,
,,,,32297,001,2025-11-09_11h07.04.644,HW_LDT_1,2024.2.4,MacIntel,58.82352941,,,,,,,,,,,,,,,,,,,,,,248.334,248.532,248.532,249.032,,,,,,,,,,,,,,0.958,1,,,,,,,,,,,,,,z,,,,,,,,,,,,,,,22,0,249.032,249.998,z,1,0.958,,[],[],[],[],[],[],[],249.999,251.998,251.998,251.999,[],[],[],[],[],[],[],,251.999,251.999,-0.036956522,-0.390217391,0,0,0,,0,21,21,18,1,2,RL,mesibine,print,mesibine_p.png,,,,,,
,,,,32297,001,2025-11-09_11h07.04.644,HW_LDT_1,2024.2.4,MacIntel,58.82352941,,,,,,,,,,,,,,,,,,,,,,252.001,252.202,252.204,252.698,,,,,,,,,,,,,,2.202,1,,,,,,,,,,,,,,m,,,,,,,,,,,,,,,23,0,252.699,254.914,m,1,2.202,,[],[],[],[],[],[],[],254.914,256.915,256.915,256.916,[],[],[],[],[],[],[],,256.916,256.916,-0.036956522,-0.390217391,0,0,0,,0,22,22,91,1,2,word,CARDINAL,cursive,cardinal_c.png,,,,,,
,,,,32297,001,2025-11-09_11h07.04.644,HW_LDT_1,2024.2.4,MacIntel,58.82352941,,,,,,,,,,,,,,,,,,,,,,256.918,257.115,257.115,257.615,,,,,,,,,,,,,,0.939,1,,,,,,,,,,,,,,m,,,,,,,,,,,,,,,24,0,257.615,258.565,m,1,0.939,,[],[],[],[],[],[],[],258.565,260.565,260.565,260.566,[],[],[],[],[],[],[],,260.566,260.566,-0.036956522,-0.390217391,0,0,0,,0,23,23,144,1,2,word,RESIDENT,print,resident_p.png,,,,,,
,,,,32297,001,2025-11-09_11h07.04.644,HW_LDT_1,2024.2.4,MacIntel,58.82352941,,,,,,,,,,,,,,,,,,,,,,260.567,260.765,260.765,261.265,,,,,,,,,,,,,,1.375,1,,,,,,,,,,,,,,m,,,,,,,,,,,,,,,25,0,261.265,262.648,m,1,1.375,,[],[],[],[],[],[],[],262.648,264.648,264.648,264.649,[],[],[],[],[],[],[],,264.649,264.649,-0.036956522,-0.390217391,0,0,0,,0,24,24,122,1,2,word,MOBILE,print,mobile_p.png,,,,,,
,,,,32297,001,2025-11-09_11h07.04.644,HW_LDT_1,2024.2.4,MacIntel,58.82352941,,,,,,,,,,,,,,,,,,,,,,264.65,264.848,264.848,265.348,,,,,,,,,,,,,,3.137,1,,,,,,,,,,,,,,z,,,,,,,,,,,,,,,26,0,265.349,268.498,z,1,3.137,,[],[],[],[],[],[],[],268.498,270.498,270.498,270.499,[],[],[],[],[],[],[],,270.499,270.499,-0.036956522,-0.390217391,0,0,0,,0,25,25,57,1,2,TL,meromy,cursive,meromy_c.png,,,,,,
,,,,32297,001,2025-11-09_11h07.04.644,HW_LDT_1,2024.2.4,MacIntel,58.82352941,,,,,,,,,,,,,,,,,,,,,,270.5,270.698,270.698,271.198,,,,,,,,,,,,,,0.754,1,,,,,,,,,,,,,,m,,,,,,,,,,,,,,,27,0,271.199,271.965,m,1,0.754,,[],[],[],[],[],[],[],271.965,273.965,273.965,273.965,[],[],[],[],[],[],[],,273.965,273.966,-0.036956522,-0.390217391,0,0,0,,0,26,26,81,1,2,word,ADVISORY,print,advisory_p.png,,,,,,
,,,,32297,001,2025-11-09_11h07.04.644,HW_LDT_1,2024.2.4,MacIntel,58.82352941,,,,,,,,,,,,,,,,,,,,,,273.967,274.165,274.165,274.665,,,,,,,,,,,,,,2.726,0,,,,,,,,,,,,,,m,,,,,,,,,,,,,,,28,0,274.665,277.397,z,0,2.726,,[],[],[],[],[],[],[],277.397,279.398,279.398,279.399,[],[],[],[],[],[],[],,279.399,279.399,-0.036956522,-0.390217391,0,0,0,,0,27,27,111,1,2,word,INDICATE,cursive,indicate_c.png,,,,,,
,,,,32297,001,2025-11-09_11h07.04.644,HW_LDT_1,2024.2.4,MacIntel,58.82352941,,,,,,,,,,,,,,,,,,,,,,279.4,279.598,279.598,280.098,,,,,,,,,,,,,,4.277,1,,,,,,,,,,,,,,m,,,,,,,,,,,,,,,29,0,280.099,284.381,m,1,4.277,,[],[],[],[],[],[],[],284.381,286.381,286.381,286.382,[],[],[],[],[],[],[],,286.382,286.382,-0.036956522,-0.390217391,0,0,0,,0,28,28,107,1,2,word,EVIDENT,cursive,evident_c.png,,,,,,
,,,,32297,001,2025-11-09_11h07.04.644,HW_LDT_1,2024.2.4,MacIntel,58.82352941,,,,,,,,,,,,,,,,,,,,,,286.384,286.581,286.581,287.081,,,,,,,,,,,,,,0.91,1,,,,,,,,,,,,,,z,,,,,,,,,,,,,,,30,0,287.082,287.998,z,1,0.91,,[],[],[],[],[],[],[],287.999,289.998,289.998,289.999,[],[],[],[],[],[],[],,289.999,290,-0.036956522,-0.390217391,0,0,0,,0,29,29,78,1,2,TL,stogare,print,stogare_p.png,,,,,,
,,,,32297,001,2025-11-09_11h07.04.644,HW_LDT_1,2024.2.4,MacIntel,58.82352941,,,,,,,,,,,,,,,,,,,,,,290.001,290.198,290.198,290.698,,,,,,,,,,,,,,1.172,1,,,,,,,,,,,,,,m,,,,,,,,,,,,,,,31,0,290.698,291.881,m,1,1.172,,[],[],[],[],[],[],[],291.881,293.881,293.881,293.882,[],[],[],[],[],[],[],,293.882,293.882,-0.036956522,-0.390217391,0,0,0,,0,30,30,157,1,2,word,VALIDITY,print,validity_p.png,,,,,,
,,,,32297,001,2025-11-09_11h07.04.644,HW_LDT_1,2024.2.4,MacIntel,58.82352941,,,,,,,,,,,,,,,,,,,,,,293.883,294.081,294.081,294.581,,,,,,,,,,,,,,1.021,1,,,,,,,,,,,,,,z,,,,,,,,,,,,,,,32,0,294.582,295.615,z,1,1.021,,[],[],[],[],[],[],[],295.615,297.614,297.615,297.615,[],[],[],[],[],[],[],,297.615,297.616,-0.036956522,-0.390217391,0,0,0,,0,31,31,75,1,2,TL,ronamtic,print,ronamtic_p.png,,,,,,
,,,,32297,001,2025-11-09_11h07.04.644,HW_LDT_1,2024.2.4,MacIntel,58.82352941,,,,,,,,,,,,,,,,,,,,,,297.617,297.814,297.815,298.314,,,,,,,,,,,,,,0.637,1,,,,,,,,,,,,,,m,,,,,,,,,,,,,,,33,1,298.315,298.965,m,1,0.637,,[],[],[],[],[],[],[],298.965,300.964,300.965,302.231,[],[],[],[],[],[],[],m,302.231,302.232,-0.036956522,-0.390217391,0,0,0,,0,32,32,129,1,2,word,PARENT,print,parent_p.png,1.258,,,,,
,,,,32297,001,2025-11-09_11h07.04.644,HW_LDT_1,2024.2.4,MacIntel,58.82352941,,,,,,,,,,,,,,,,,,,,,,302.233,302.431,302.431,302.931,,,,,,,,,,,,,,0.72,1,,,,,,,,,,,,,,m,,,,,,,,,,,,,,,34,0,302.932,303.664,m,1,0.72,,[],[],[],[],[],[],[],303.665,305.664,305.665,305.665,[],[],[],[],[],[],[],,305.665,305.665,-0.036956522,-0.390217391,0,0,0,,0,33,33,101,1,2,word,DELICATE,print,delicate_p.png,,,,,,
,,,,32297,001,2025-11-09_11h07.04.644,HW_LDT_1,2024.2.4,MacIntel,58.82352941,,,,,,,,,,,,,,,,,,,,,,305.667,305.864,305.864,306.364,,,,,,,,,,,,,,2.771,0,,,,,,,,,,,,,,m,,,,,,,,,,,,,,,35,0,306.365,309.165,z,0,2.771,,[],[],[],[],[],[],[],309.165,311.164,311.164,311.165,[],[],[],[],[],[],[],,311.165,311.165,-0.036956522,-0.390217391,0,0,0,,0,34,34,134,1,2,word,QUALIFY,cursive,qualify_c.png,,,,,,
,,,,32297,001,2025-11-09_11h07.04.644,HW_LDT_1,2024.2.4,MacIntel,58.82352941,,,,,,,,,,,,,,,,,,,,,,311.167,311.364,311.364,311.864,,,,,,,,,,,,,,0.821,1,,,,,,,,,,,,,,z,,,,,,,,,,,,,,,36,0,311.865,312.698,z,1,0.821,,[],[],[],[],[],[],[],312.698,314.698,314.698,314.698,[],[],[],[],[],[],[],,314.698,314.699,-0.036956522,-0.390217391,0,0,0,,0,35,35,39,1,2,TL,aminal,print,aminal_p.png,,,,,,
,,,,32297,001,2025-11-09_11h07.04.644,HW_LDT_1,2024.2.4,MacIntel,58.82352941,,,,,,,,,,,,,,,,,,,,,,314.7,314.897,314.897,315.397,,,,,,,,,,,,,,0.791,1,,,,,,,,,,,,,,z,,,,,,,,,,,,,,,37,0,315.397,316.197,z,1,0.791,,[],[],[],[],[],[],[],316.197,318.181,318.181,318.182,[],[],[],[],[],[],[],,318.182,318.182,-0.036956522,-0.390217391,0,0,0,,0,36,36,49,1,2,TL,dedace,print,dedace_p.png,,,,,,
,,,,32297,001,2025-11-09_11h07.04.644,HW_LDT_1,2024.2.4,MacIntel,58.82352941,,,,,,,,,,,,,,,,,,,,,,318.183,318.381,318.381,318.881,,,,,,,,,,,,,,0.687,1,,,,,,,,,,,,,,m,,,,,,,,,,,,,,,38,0,318.882,319.581,m,1,0.687,,[],[],[],[],[],[],[],319.581,321.58,321.58,321.581,[],[],[],[],[],[],[],,321.582,321.582,-0.036956522,-0.390217391,0,0,0,,0,37,37,100,1,2,word,DECADE,print,decade_p.png,,,,,,
,,,,32297,001,2025-11-09_11h07.04.644,HW_LDT_1,2024.2.4,MacIntel,58.82352941,,,,,,,,,,,,,,,,,,,,,,321.583,321.781,321.781,322.281,,,,,,,,,,,,,,2.305,1,,,,,,,,,,,,,,z,,,,,,,,,,,,,,,39,1,322.282,324.597,z,1,2.305,,[],[],[],[],[],[],[],324.597,326.598,326.598,327.831,[],[],[],[],[],[],[],z,327.831,327.831,-0.036956522,-0.390217391,0,0,0,,0,38,38,10,1,2,RL,disluge,cursive,disluge_c.png,1.23,,,,,
,,,,32297,001,2025-11-09_11h07.04.644,HW_LDT_1,2024.2.4,MacIntel,58.82352941,,,,,,,,,,,,,,,,,,,,,,327.833,328.03,328.03,328.531,,,,,,,,,,,,,,0.787,1,,,,,,,,,,,,,,z,,,,,,,,,,,,,,,40,0,328.531,329.331,z,1,0.787,,[],[],[],[],[],[],[],329.331,331.331,331.331,331.332,[],[],[],[],[],[],[],,331.332,331.332,-0.036956522,-0.390217391,0,0,0,,0,39,39,77,1,2,TL,sloten,print,sloten_p.png,,,,,,
,,,,32297,001,2025-11-09_11h07.04.644,HW_LDT_1,2024.2.4,MacIntel,58.82352941,,,,,,,,,,,,,,,,,,,,,,331.333,331.531,331.531,332.031,,,,,,,,,,,,,,1.12,1,,,,,,,,,,,,,,z,,,,,,,,,,,,,,,41,0,332.031,333.164,z,1,1.12,,[],[],[],[],[],[],[],333.165,335.165,335.165,335.166,[],[],[],[],[],[],[],,335.166,335.167,-0.036956522,-0.390217391,0,0,0,,0,40,40,63,1,2,TL,orinigal,print,orinigal_p.png,,,,,,
,,,,32297,001,2025-11-09_11h07.04.644,HW_LDT_1,2024.2.4,MacIntel,58.82352941,,,,,,,,,,,,,,,,,,,,,,335.168,335.364,335.364,335.864,,,,,,,,,,,,,,0.754,1,,,,,,,,,,,,,,z,,,,,,,,,,,,,,,42,0,335.865,336.631,z,1,0.754,,[],[],[],[],[],[],[],336.631,338.631,338.631,338.632,[],[],[],[],[],[],[],,338.632,338.633,-0.036956522,-0.390217391,0,0,0,,0,41,41,25,1,2,RL,rabigly,print,rabigly_p.png,,,,,,
,,,,32297,001,2025-11-09_11h07.04.644,HW_LDT_1,2024.2.4,MacIntel,58.82352941,,,,,,,,,,,,,,,,,,,,,,338.634,338.831,338.831,339.331,,,,,,,,,,,,,,3.454,1,,,,,,,,,,,,,,m,,,,,,,,,,,,,,,43,0,339.331,342.798,m,1,3.454,,[],[],[],[],[],[],[],342.798,344.797,344.798,344.798,[],[],[],[],[],[],[],,344.798,344.799,-0.036956522,-0.390217391,0,0,0,,0,42,42,124,1,2,word,NUMERICAL,cursive,numerical_c.png,,,,,,
,,,,32297,001,2025-11-09_11h07.04.644,HW_LDT_1,2024.2.4,MacIntel,58.82352941,,,,,,,,,,,,,,,,,,,,,,344.801,344.997,344.998,345.497,,,,,,,,,,,,,,0.805,1,,,,,,,,,,,,,,z,,,,,,,,,,,,,,,44,0,345.498,346.314,z,1,0.805,,[],[],[],[],[],[],[],346.314,348.314,348.314,348.315,[],[],[],[],[],[],[],,348.315,348.315,-0.036956522,-0.390217391,0,0,0,,0,43,43,35,1,2,RL,vesofity,print,vesofity_p.png,,,,,,
,,,,32297,001,2025-11-09_11h07.04.644,HW_LDT_1,2024.2.4,MacIntel,58.82352941,,,,,,,,,,,,,,,,,,,,,,348.316,348.514,348.514,349.013,,,,,,,,,,,,,,0.854,1,,,,,,,,,,,,,,m,,,,,,,,,,,,,,,45,0,349.014,349.881,m,1,0.854,,[],[],[],[],[],[],[],349.881,351.881,351.881,351.881,[],[],[],[],[],[],[],,351.881,351.882,-0.036956522,-0.390217391,0,0,0,,0,44,44,128,1,2,word,PACIFIC,print,pacific_p.png,,,,,,
,,,,32297,001,2025-11-09_11h07.04.644,HW_LDT_1,2024.2.4,MacIntel,58.82352941,,,,,,,,,,,,,,,,,,,,,,351.883,352.081,352.081,352.581,,,,,,,,,,,,,,3.344,0,,,,,,,,,,,,,,m,,,,,,,,,,,,,,,46,0,352.581,355.93,z,0,3.344,,[],[],[],[],[],[],[],355.931,357.93,357.931,357.931,[],[],[],[],[],[],[],,357.931,357.931,-0.036956522,-0.390217391,0,0,0,,0,45,45,125,1,2,word,OPERATOR,cursive,operator_c.png,,,,,,
,,,,32297,001,2025-11-09_11h07.04.644,HW_LDT_1,2024.2.4,MacIntel,58.82352941,,,,,,,,,,,,,,,,,,,,,,357.933,358.131,358.131,358.63,,,,,,,,,,,,,,2.539,1,,,,,,,,,,,,,,z,,,,,,,,,,,,,,,47,0,358.631,361.18,z,1,2.539,,[],[],[],[],[],[],[],361.181,363.18,363.181,363.181,[],[],[],[],[],[],[],,363.181,363.181,-0.036956522,-0.390217391,0,0,0,,0,46,46,68,1,2,TL,quatily,cursive,quatily_c.png,,,,,,
,,,,32297,001,2025-11-09_11h07.04.644,HW_LDT_1,2024.2.4,MacIntel,58.82352941,,,,,,,,,,,,,,,,,,,,,,363.183,363.38,363.38,363.88,,,,,,,,,,,,,,2.571,1,,,,,,,,,,,,,,z,,,,,,,,,,,,,,,48,0,363.881,366.464,z,1,2.571,,[],[],[],[],[],[],[],366.464,368.464,368.464,368.465,[],[],[],[],[],[],[],,368.465,368.466,-0.036956522,-0.390217391,0,0,0,,0,47,47,20,1,2,RL,onegator,cursive,onegator_c.png,,,,,,
,,,,32297,001,2025-11-09_11h07.04.644,HW_LDT_1,2024.2.4,MacIntel,58.82352941,,,,,,,,,,,,,,,,,,,,,,368.467,368.663,368.663,369.164,,,,,,,,,,,,,,0.888,1,,,,,,,,,,,,,,m,,,,,,,,,,,,,,,49,0,369.165,370.064,m,1,0.888,,[],[],[],[],[],[],[],370.064,372.064,372.064,372.064,[],[],[],[],[],[],[],,372.064,372.065,-0.036956522,-0.390217391,0,0,0,,0,48,48,153,1,2,word,STOLEN,print,stolen_p.png,,,,,,
,,,,32297,001,2025-11-09_11h07.04.644,HW_LDT_1,2024.2.4,MacIntel,58.82352941,,,,,,,,,,,,,,,,,,,,,,372.066,372.264,372.264,372.764,,,,,,,,,,,,,,2.054,1,,,,,,,,,,,,,,z,,,,,,,,,,,,,,,50,0,372.764,374.829,z,1,2.054,,[],[],[],[],[],[],[],374.83,376.83,376.83,376.831,[],[],[],[],[],[],[],,376.831,376.831,-0.036956522,-0.390217391,0,0,0,,0,49,49,46,1,2,TL,codemy,cursive,codemy_c.png,,,,,,
,,,,32297,001,2025-11-09_11h07.04.644,HW_LDT_1,2024.2.4,MacIntel,58.82352941,,,,,,,,,,,,,,,,,,,,,,376.832,377.03,377.03,377.53,,,,,,,,,,,,,,0.654,1,,,,,,,,,,,,,,m,,,,,,,,,,,,,,,51,0,377.531,378.197,m,1,0.654,,[],[],[],[],[],[],[],378.197,380.197,380.197,380.197,[],[],[],[],[],[],[],,380.198,380.198,-0.036956522,-0.390217391,0,0,0,,0,50,50,130,1,2,word,POLICY,print,policy_p.png,,,,,,
,,,,32297,001,2025-11-09_11h07.04.644,HW_LDT_1,2024.2.4,MacIntel,58.82352941,,,,,,,,,,,,,,,,,,,,,,380.199,380.397,380.397,380.897,,,,,,,,,,,,,,0.97,1,,,,,,,,,,,,,,m,,,,,,,,,,,,,,,52,1,380.898,381.88,m,1,0.97,,[],[],[],[],[],[],[],381.881,383.88,383.88,384.897,[],[],[],[],[],[],[],m,384.897,384.897,-0.036956522,-0.390217391,0,0,0,,0,51,51,152,1,2,word,SPECIMEN,print,specimen_p.png,1.009,,,,,
,,,,32297,001,2025-11-09_11h07.04.644,HW_LDT_1,2024.2.4,MacIntel,58.82352941,,,,,,,,,,,,,,,,,,,,,,384.899,385.097,385.097,385.597,,,,,,,,,,,,,,1.608,1,,,,,,,,,,,,,,z,,,,,,,,,,,,,,,53,0,385.597,387.213,z,1,1.608,,[],[],[],[],[],[],[],387.214,389.213,389.214,389.214,[],[],[],[],[],[],[],,389.214,389.214,-0.036956522,-0.390217391,0,0,0,,0,52,52,62,1,2,TL,opmital,cursive,opmital_c.png,,,,,,
,,,,32297,001,2025-11-09_11h07.04.644,HW_LDT_1,2024.2.4,MacIntel,58.82352941,,,,,,,,,,,,,,,,,,,,,,389.216,389.413,389.414,389.913,,,,,,,,,,,,,,1.737,1,,,,,,,,,,,,,,z,,,,,,,,,,,,,,,54,0,389.914,391.663,z,1,1.737,,[],[],[],[],[],[],[],391.664,393.664,393.664,393.664,[],[],[],[],[],[],[],,393.664,393.665,-0.036956522,-0.390217391,0,0,0,,0,53,53,53,1,2,TL,edivent,cursive,edivent_c.png,,,,,,
,,,,32297,001,2025-11-09_11h07.04.644,HW_LDT_1,2024.2.4,MacIntel,58.82352941,,,,,,,,,,,,,,,,,,,,,,393.666,393.863,393.863,394.363,,,,,,,,,,,,,,3.221,1,,,,,,,,,,,,,,z,,,,,,,,,,,,,,,55,0,394.364,397.597,z,1,3.221,,[],[],[],[],[],[],[],397.597,399.597,399.597,399.597,[],[],[],[],[],[],[],,399.597,399.598,-0.036956522,-0.390217391,0,0,0,,0,54,54,66,1,2,TL,prodive,cursive,prodive_c.png,,,,,,
,,,,32297,001,2025-11-09_11h07.04.644,HW_LDT_1,2024.2.4,MacIntel,58.82352941,,,,,,,,,,,,,,,,,,,,,,399.599,399.797,399.797,400.297,,,,,,,,,,,,,,1.926,0,,,,,,,,,,,,,,m,,,,,,,,,,,,,,,56,0,400.297,402.24,z,0,1.926,,[],[],[],[],[],[],[],402.24,404.23,404.23,404.231,[],[],[],[],[],[],[],,404.231,404.231,-0.036956522,-0.390217391,0,0,0,,0,55,55,123,1,2,word,MODERATE,cursive,moderate_c.png,,,,,,
,,,,32297,001,2025-11-09_11h07.04.644,HW_LDT_1,2024.2.4,MacIntel,58.82352941,,,,,,,,,,,,,,,,,,,,,,404.232,404.43,404.43,404.93,,,,,,,,,,,,,,0.827,1,,,,,,,,,,,,,,z,,,,,,,,,,,,,,,57,0,404.931,405.763,z,1,0.827,,[],[],[],[],[],[],[],405.763,407.763,407.763,407.764,[],[],[],[],[],[],[],,407.764,407.764,-0.036956522,-0.390217391,0,0,0,,0,56,56,15,1,2,RL,linedal,print,linedal_p.png,,,,,,
,,,,32297,001,2025-11-09_11h07.04.644,HW_LDT_1,2024.2.4,MacIntel,58.82352941,,,,,,,,,,,,,,,,,,,,,,407.766,407.963,407.963,408.463,,,,,,,,,,,,,,0.672,1,,,,,,,,,,,,,,m,,,,,,,,,,,,,,,58,0,408.464,409.147,m,1,0.672,,[],[],[],[],[],[],[],409.147,411.147,411.147,411.147,[],[],[],[],[],[],[],,411.147,411.147,-0.036956522,-0.390217391,0,0,0,,0,57,57,140,1,2,word,RELATIVE,print,relative_p.png,,,,,,
,,,,32297,001,2025-11-09_11h07.04.644,HW_LDT_1,2024.2.4,MacIntel,58.82352941,,,,,,,,,,,,,,,,,,,,,,411.149,411.346,411.347,411.846,,,,,,,,,,,,,,3.771,0,,,,,,,,,,,,,,m,,,,,,,,,,,,,,,59,0,411.847,415.63,z,0,3.771,,[],[],[],[],[],[],[],415.63,417.63,417.63,417.631,[],[],[],[],[],[],[],,417.631,417.631,-0.036956522,-0.390217391,0,0,0,,0,58,58,106,1,2,word,ELABORATE,cursive,elaborate_c.png,,,,,,
,,,,32297,001,2025-11-09_11h07.04.644,HW_LDT_1,2024.2.4,MacIntel,58.82352941,,,,,,,,,,,,,,,,,,,,,,417.632,417.83,417.83,418.33,,,,,,,,,,,,,,3.654,1,,,,,,,,,,,,,,z,,,,,,,,,,,,,,,60,0,418.33,421.997,z,1,3.654,,[],[],[],[],[],[],[],421.997,423.996,423.997,423.997,[],[],[],[],[],[],[],,423.997,423.997,-0.036956522,-0.390217391,0,0,0,,0,59,59,65,1,2,TL,polupar,cursive,polupar_c.png,,,,,,
,,,,32297,001,2025-11-09_11h07.04.644,HW_LDT_1,2024.2.4,MacIntel,58.82352941,,,,,,,,,,,,,,,,,,,,,,423.999,424.196,424.196,424.696,,,,,,,,,,,,,,0.741,1,,,,,,,,,,,,,,m,,,,,,,,,,,,,,,61,0,424.697,425.446,m,1,0.741,,[],[],[],[],[],[],[],425.447,427.446,427.446,427.447,[],[],[],[],[],[],[],,427.447,427.448,-0.036956522,-0.390217391,0,0,0,,0,60,60,147,1,2,word,ROMANTIC,print,romantic_p.png,,,,,,
,,,,32297,001,2025-11-09_11h07.04.644,HW_LDT_1,2024.2.4,MacIntel,58.82352941,,,,,,,,,,,,,,,,,,,,,,427.449,427.646,427.646,428.146,,,,,,,,,,,,,,1.186,1,,,,,,,,,,,,,,z,,,,,,,,,,,,,,,62,0,428.147,429.347,z,1,1.186,,[],[],[],[],[],[],[],429.347,431.346,431.346,431.347,[],[],[],[],[],[],[],,431.347,431.348,-0.036956522,-0.390217391,0,0,0,,0,61,61,73,1,2,TL,redisent,print,redisent_p.png,,,,,,
,,,,32297,001,2025-11-09_11h07.04.644,HW_LDT_1,2024.2.4,MacIntel,58.82352941,,,,,,,,,,,,,,,,,,,,,,431.349,431.546,431.546,432.046,,,,,,,,,,,,,,2.571,1,,,,,,,,,,,,,,z,,,,,,,,,,,,,,,63,0,432.047,434.63,z,1,2.571,,[],[],[],[],[],[],[],434.63,436.63,436.63,436.63,[],[],[],[],[],[],[],,436.63,436.631,-0.036956522,-0.390217391,0,0,0,,0,62,62,59,1,2,TL,miskate,cursive,miskate_c.png,,,,,,
,,,,32297,001,2025-11-09_11h07.04.644,HW_LDT_1,2024.2.4,MacIntel,58.82352941,,,,,,,,,,,,,,,,,,,,,,436.632,436.83,436.83,437.33,,,,,,,,,,,,,,1.413,1,,,,,,,,,,,,,,z,,,,,,,,,,,,,,,64,0,437.33,438.747,z,1,1.413,,[],[],[],[],[],[],[],438.747,440.746,440.746,440.747,[],[],[],[],[],[],[],,440.747,440.748,-0.036956522,-0.390217391,0,0,0,,0,63,63,29,1,2,RL,samite,cursive,samite_c.png,,,,,,
,,,,32297,001,2025-11-09_11h07.04.644,HW_LDT_1,2024.2.4,MacIntel,58.82352941,,,,,,,,,,,,,,,,,,,,,,440.749,440.946,440.946,441.446,,,,,,,,,,,,,,0.707,1,,,,,,,,,,,,,,m,,,,,,,,,,,,,,,65,0,441.447,442.163,m,1,0.707,,[],[],[],[],[],[],[],442.163,444.163,444.163,444.163,[],[],[],[],[],[],[],,444.163,444.164,-0.036956522,-0.390217391,0,0,0,,0,64,64,110,1,2,word,HERITAGE,print,heritage_p.png,,,,,,
,,,,32297,001,2025-11-09_11h07.04.644,HW_LDT_1,2024.2.4,MacIntel,58.82352941,,,,,,,,,,,,,,,,,,,,,,444.165,444.363,444.363,444.863,,,,,,,,,,,,,,0.927,1,,,,,,,,,,,,,,m,,,,,,,,,,,,,,,66,0,444.863,445.796,m,1,0.927,,[],[],[],[],[],[],[],445.796,447.796,447.796,447.797,[],[],[],[],[],[],[],,447.797,447.797,-0.036956522,-0.390217391,0,0,0,,0,65,65,89,1,2,word,CAPACITY,print,capacity_p.png,,,,,,
,,,,32297,001,2025-11-09_11h07.04.644,HW_LDT_1,2024.2.4,MacIntel,58.82352941,,,,,,,,,,,,,,,,,,,,,,447.798,447.996,447.996,448.496,,,,,,,,,,,,,,2.787,1,,,,,,,,,,,,,,z,,,,,,,,,,,,,,,67,0,448.497,451.297,z,1,2.787,,[],[],[],[],[],[],[],451.297,453.296,453.296,453.297,[],[],[],[],[],[],[],,453.297,453.298,-0.036956522,-0.390217391,0,0,0,,0,66,66,42,1,2,TL,bedise,cursive,bedise_c.png,,,,,,
,,,,32297,001,2025-11-09_11h07.04.644,HW_LDT_1,2024.2.4,MacIntel,58.82352941,,,,,,,,,,,,,,,,,,,,,,453.299,453.496,453.496,453.996,,,,,,,,,,,,,,0.827,1,,,,,,,,,,,,,,z,,,,,,,,,,,,,,,68,0,453.996,454.829,z,1,0.827,,[],[],[],[],[],[],[],454.83,456.83,456.83,456.831,[],[],[],[],[],[],[],,456.831,456.832,-0.036956522,-0.390217391,0,0,0,,0,67,67,36,1,2,RL,vecelan,print,vecelan_p.png,,,,,,
,,,,32297,001,2025-11-09_11h07.04.644,HW_LDT_1,2024.2.4,MacIntel,58.82352941,,,,,,,,,,,,,,,,,,,,,,456.833,457.029,457.03,457.53,,,,,,,,,,,,,,0.687,1,,,,,,,,,,,,,,m,,,,,,,,,,,,,,,69,0,457.53,458.229,m,1,0.687,,[],[],[],[],[],[],[],458.23,460.229,460.229,460.23,[],[],[],[],[],[],[],,460.23,460.23,-0.036956522,-0.390217391,0,0,0,,0,68,68,143,1,2,word,REMOVAL,print,removal_p.png,,,,,,
,,,,32297,001,2025-11-09_11h07.04.644,HW_LDT_1,2024.2.4,MacIntel,58.82352941,,,,,,,,,,,,,,,,,,,,,,460.232,460.429,460.429,460.929,,,,,,,,,,,,,,1.271,1,,,,,,,,,,,,,,z,,,,,,,,,,,,,,,70,0,460.93,462.213,z,1,1.271,,[],[],[],[],[],[],[],462.213,464.213,464.213,464.213,[],[],[],[],[],[],[],,464.214,464.214,-0.036956522,-0.390217391,0,0,0,,0,69,69,58,1,2,TL,mitilary,cursive,mitilary_c.png,,,,,,
,,,,32297,001,2025-11-09_11h07.04.644,HW_LDT_1,2024.2.4,MacIntel,58.82352941,,,,,,,,,,,,,,,,,,,,,,464.215,464.413,464.413,464.913,,,,,,,,,,,,,,0.661,1,,,,,,,,,,,,,,z,,,,,,,,,,,,,,,71,1,464.913,465.579,z,1,0.661,,[],[],[],[],[],[],[],465.579,467.579,467.579,469.112,[],[],[],[],[],[],[],z,469.112,469.113,-0.036956522,-0.390217391,0,0,0,,0,70,70,55,1,2,TL,lotace,print,lotace_p.png,1.522,,,,,
,,,,32297,001,2025-11-09_11h07.04.644,HW_LDT_1,2024.2.4,MacIntel,58.82352941,,,,,,,,,,,,,,,,,,,,,,469.114,469.313,469.313,469.813,,,,,,,,,,,,,,2.093,0,,,,,,,,,,,,,,m,,,,,,,,,,,,,,,72,0,469.813,471.913,z,0,2.093,,[],[],[],[],[],[],[],471.913,473.912,473.913,473.913,[],[],[],[],[],[],[],,473.913,473.913,-0.036956522,-0.390217391,0,0,0,,0,71,71,113,1,2,word,LITERAL,cursive,literal_c.png,,,,,,
,,,,32297,001,2025-11-09_11h07.04.644,HW_LDT_1,2024.2.4,MacIntel,58.82352941,,,,,,,,,,,,,,,,,,,,,,473.915,474.113,474.113,474.613,,,,,,,,,,,,,,1.14,1,,,,,,,,,,,,,,m,,,,,,,,,,,,,,,73,0,474.613,475.763,m,1,1.14,,[],[],[],[],[],[],[],475.763,477.762,477.762,477.763,[],[],[],[],[],[],[],,477.763,477.763,-0.036956522,-0.390217391,0,0,0,,0,72,72,95,1,2,word,COMEDY,cursive,comedy_c.png,,,,,,
,,,,32297,001,2025-11-09_11h07.04.644,HW_LDT_1,2024.2.4,MacIntel,58.82352941,,,,,,,,,,,,,,,,,,,,,,477.764,477.962,477.962,478.462,,,,,,,,,,,,,,2.66,1,,,,,,,,,,,,,,z,,,,,,,,,,,,,,,74,0,478.463,481.129,z,1,2.66,,[],[],[],[],[],[],[],481.13,483.129,483.129,483.13,[],[],[],[],[],[],[],,483.131,483.131,-0.036956522,-0.390217391,0,0,0,,0,73,73,67,1,2,TL,quafily,cursive,quafily_c.png,,,,,,
,,,,32297,001,2025-11-09_11h07.04.644,HW_LDT_1,2024.2.4,MacIntel,58.82352941,,,,,,,,,,,,,,,,,,,,,,483.133,483.329,483.329,483.829,,,,,,,,,,,,,,2.745,1,,,,,,,,,,,,,,z,,,,,,,,,,,,,,,75,0,483.831,486.58,z,1,2.745,,[],[],[],[],[],[],[],486.58,488.579,488.579,488.579,[],[],[],[],[],[],[],,488.579,488.58,-0.036956522,-0.390217391,0,0,0,,0,74,74,52,1,2,TL,elarobate,cursive,elarobate_c.png,,,,,,
,,,,32297,001,2025-11-09_11h07.04.644,HW_LDT_1,2024.2.4,MacIntel,58.82352941,,,,,,,,,,,,,,,,,,,,,,488.581,488.779,488.779,489.279,,,,,,,,,,,,,,1.069,1,,,,,,,,,,,,,,m,,,,,,,,,,,,,,,76,0,489.28,490.362,m,1,1.069,,[],[],[],[],[],[],[],490.362,492.362,492.362,492.363,[],[],[],[],[],[],[],,492.363,492.363,-0.036956522,-0.390217391,0,0,0,,0,75,75,136,1,2,word,RADICAL,cursive,radical_c.png,,,,,,
,,,,32297,001,2025-11-09_11h07.04.644,HW_LDT_1,2024.2.4,MacIntel,58.82352941,,,,,,,,,,,,,,,,,,,,,,492.365,492.562,492.562,493.062,,,,,,,,,,,,,,0.76,1,,,,,,,,,,,,,,z,,,,,,,,,,,,,,,77,0,493.063,493.829,z,1,0.76,,[],[],[],[],[],[],[],493.829,495.829,495.829,495.83,[],[],[],[],[],[],[],,495.83,495.83,-0.036956522,-0.390217391,0,0,0,,0,76,76,43,1,2,TL,carema,print,carema_p.png,,,,,,
,,,,32297,001,2025-11-09_11h07.04.644,HW_LDT_1,2024.2.4,MacIntel,58.82352941,,,,,,,,,,,,,,,,,,,,,,495.831,496.029,496.029,496.529,,,,,,,,,,,,,,2.406,1,,,,,,,,,,,,,,z,,,,,,,,,,,,,,,78,1,496.529,498.945,z,1,2.406,,[],[],[],[],[],[],[],498.945,500.946,500.946,502.112,[],[],[],[],[],[],[],z,502.112,502.112,-0.036956522,-0.390217391,0,0,0,,0,77,77,56,1,2,TL,marnigal,cursive,marnigal_c.png,1.156,,,,,
,,,,32297,001,2025-11-09_11h07.04.644,HW_LDT_1,2024.2.4,MacIntel,58.82352941,,,,,,,,,,,,,,,,,,,,,,502.114,502.312,502.312,502.812,,,,,,,,,,,,,,2.158,1,,,,,,,,,,,,,,z,,,,,,,,,,,,,,,79,1,502.813,504.979,z,1,2.158,,[],[],[],[],[],[],[],504.979,506.979,506.979,508.296,[],[],[],[],[],[],[],z,508.296,508.296,-0.036956522,-0.390217391,0,0,0,,0,78,78,17,1,2,RL,macise,cursive,macise_c.png,1.311,,,,,
,,,,32297,001,2025-11-09_11h07.04.644,HW_LDT_1,2024.2.4,MacIntel,58.82352941,,,,,,,,,,,,,,,,,,,,,,508.297,508.495,508.495,508.995,,,,,,,,,,,,,,1.021,1,,,,,,,,,,,,,,m,,,,,,,,,,,,,,,80,0,508.996,510.029,m,1,1.021,,[],[],[],[],[],[],[],510.029,512.029,512.029,512.029,[],[],[],[],[],[],[],,512.029,516.345,-0.036956522,-0.390217391,0,0,0,space,0,79,79,118,1,2,word,MEDICINE,print,medicine_p.png,,,4.284,,,
,,,,32297,001,2025-11-09_11h07.04.644,HW_LDT_1,2024.2.4,MacIntel,58.82352941,,,,,,,,,,,,,,,,,,,,,,516.346,516.545,516.545,517.045,,,,,,,,,,,,,,0.787,1,,,,,,,,,,,,,,z,,,,,,,,,,,,,,,81,0,517.046,517.845,z,1,0.787,,[],[],[],[],[],[],[],517.846,519.846,519.846,519.846,[],[],[],[],[],[],[],,519.846,519.847,-0.036956522,-0.390217391,0,0,0,,0,80,80,1,1,2,RL,caleberia,print,caleberia_p.png,,,,,,
,,,,32297,001,2025-11-09_11h07.04.644,HW_LDT_1,2024.2.4,MacIntel,58.82352941,,,,,,,,,,,,,,,,,,,,,,519.848,520.045,520.045,520.545,,,,,,,,,,,,,,2.008,0,,,,,,,,,,,,,,m,,,,,,,,,,,,,,,82,0,520.546,522.562,z,0,2.008,,[],[],[],[],[],[],[],522.562,524.562,524.562,524.563,[],[],[],[],[],[],[],,524.563,524.563,-0.036956522,-0.390217391,0,0,0,,0,81,81,103,1,2,word,DISPUTE,cursive,dispute_c.png,,,,,,
,,,,32297,001,2025-11-09_11h07.04.644,HW_LDT_1,2024.2.4,MacIntel,58.82352941,,,,,,,,,,,,,,,,,,,,,,524.564,524.762,524.762,525.261,,,,,,,,,,,,,,0.722,1,,,,,,,,,,,,,,z,,,,,,,,,,,,,,,83,0,525.262,525.995,z,1,0.722,,[],[],[],[],[],[],[],525.996,527.995,527.995,527.996,[],[],[],[],[],[],[],,527.996,527.996,-0.036956522,-0.390217391,0,0,0,,0,82,82,0,1,2,RL,adnicory,print,adnicory_p.png,,,,,,
,,,,32297,001,2025-11-09_11h07.04.644,HW_LDT_1,2024.2.4,MacIntel,58.82352941,,,,,,,,,,,,,,,,,,,,,,527.997,528.195,528.195,528.695,,,,,,,,,,,,,,1.523,1,,,,,,,,,,,,,,m,,,,,,,,,,,,,,,84,0,528.696,530.229,m,1,1.523,,[],[],[],[],[],[],[],530.229,532.228,532.228,532.229,[],[],[],[],[],[],[],,532.229,532.229,-0.036956522,-0.390217391,0,0,0,,0,83,83,146,1,2,word,RETIRE,cursive,retire_c.png,,,,,,
,,,,32297,001,2025-11-09_11h07.04.644,HW_LDT_1,2024.2.4,MacIntel,58.82352941,,,,,,,,,,,,,,,,,,,,,,532.23,532.429,532.429,532.928,,,,,,,,,,,,,,3.772,1,,,,,,,,,,,,,,m,,,,,,,,,,,,,,,85,0,532.929,536.712,m,1,3.772,,[],[],[],[],[],[],[],536.712,538.712,538.712,538.712,[],[],[],[],[],[],[],,538.712,538.713,-0.036956522,-0.390217391,0,0,0,,0,84,84,85,1,2,word,BENEFIT,cursive,benefit_c.png,,,,,,
,,,,32297,001,2025-11-09_11h07.04.644,HW_LDT_1,2024.2.4,MacIntel,58.82352941,,,,,,,,,,,,,,,,,,,,,,538.714,538.912,538.912,539.412,,,,,,,,,,,,,,0.805,1,,,,,,,,,,,,,,z,,,,,,,,,,,,,,,86,0,539.412,540.228,z,1,0.805,,[],[],[],[],[],[],[],540.228,542.228,542.228,542.229,[],[],[],[],[],[],[],,542.229,542.229,-0.036956522,-0.390217391,0,0,0,,0,85,85,3,1,2,RL,capefory,print,capefory_p.png,,,,,,
,,,,32297,001,2025-11-09_11h07.04.644,HW_LDT_1,2024.2.4,MacIntel,58.82352941,,,,,,,,,,,,,,,,,,,,,,542.231,542.428,542.428,542.928,,,,,,,,,,,,,,0.687,1,,,,,,,,,,,,,,z,,,,,,,,,,,,,,,87,0,542.929,543.629,z,1,0.687,,[],[],[],[],[],[],[],543.629,545.628,545.628,545.629,[],[],[],[],[],[],[],,545.629,545.629,-0.036956522,-0.390217391,0,0,0,,0,86,86,4,1,2,RL,cenesony,print,cenesony_p.png,,,,,,
,,,,32297,001,2025-11-09_11h07.04.644,HW_LDT_1,2024.2.4,MacIntel,58.82352941,,,,,,,,,,,,,,,,,,,,,,545.631,545.829,545.829,546.343,,,,,,,,,,,,,,1.872,0,,,,,,,,,,,,,,m,,,,,,,,,,,,,,,88,0,546.344,548.228,z,0,1.872,,[],[],[],[],[],[],[],548.229,550.228,550.228,550.229,[],[],[],[],[],[],[],,550.229,550.229,-0.036956522,-0.390217391,0,0,0,,0,87,87,90,1,2,word,CAPITAL,cursive,capital_c.png,,,,,,
,,,,32297,001,2025-11-09_11h07.04.644,HW_LDT_1,2024.2.4,MacIntel,58.82352941,,,,,,,,,,,,,,,,,,,,,,550.231,550.428,550.428,550.928,,,,,,,,,,,,,,3.209,0,,,,,,,,,,,,,,m,,,,,,,,,,,,,,,89,0,550.929,554.145,z,0,3.209,,[],[],[],[],[],[],[],554.145,556.145,556.145,556.146,[],[],[],[],[],[],[],,556.146,556.146,-0.036956522,-0.390217391,0,0,0,,0,88,88,117,1,2,word,MARINE,cursive,marine_c.png,,,,,,
,,,,32297,001,2025-11-09_11h07.04.644,HW_LDT_1,2024.2.4,MacIntel,58.82352941,,,,,,,,,,,,,,,,,,,,,,556.148,556.345,556.345,556.845,,,,,,,,,,,,,,2.958,1,,,,,,,,,,,,,,z,,,,,,,,,,,,,,,90,0,556.845,559.811,z,1,2.958,,[],[],[],[],[],[],[],559.812,561.812,561.812,561.812,[],[],[],[],[],[],[],,561.812,561.812,-0.036956522,-0.390217391,0,0,0,,0,89,89,7,1,2,RL,cocewage,cursive,cocewage_c.png,,,,,,
,,,,32297,001,2025-11-09_11h07.04.644,HW_LDT_1,2024.2.4,MacIntel,58.82352941,,,,,,,,,,,,,,,,,,,,,,561.814,562.011,562.012,562.511,,,,,,,,,,,,,,1.939,1,,,,,,,,,,,,,,z,,,,,,,,,,,,,,,91,0,562.512,564.462,z,1,1.939,,[],[],[],[],[],[],[],564.462,566.461,566.462,566.462,[],[],[],[],[],[],[],,566.462,566.463,-0.036956522,-0.390217391,0,0,0,,0,90,90,71,1,2,TL,retome,cursive,retome_c.png,,,,,,
,,,,32297,001,2025-11-09_11h07.04.644,HW_LDT_1,2024.2.4,MacIntel,58.82352941,,,,,,,,,,,,,,,,,,,,,,566.464,566.661,566.661,567.161,,,,,,,,,,,,,,3.021,1,,,,,,,,,,,,,,z,,,,,,,,,,,,,,,92,0,567.162,570.195,z,1,3.021,,[],[],[],[],[],[],[],570.195,572.195,572.195,572.195,[],[],[],[],[],[],[],,572.195,572.195,-0.036956522,-0.390217391,0,0,0,,0,91,91,34,1,2,RL,trilude,cursive,trilude_c.png,,,,,,
,,,,32297,001,2025-11-09_11h07.04.644,HW_LDT_1,2024.2.4,MacIntel,58.82352941,,,,,,,,,,,,,,,,,,,,,,572.197,572.395,572.395,572.895,,,,,,,,,,,,,,0.671,1,,,,,,,,,,,,,,m,,,,,,,,,,,,,,,93,1,572.895,573.578,m,1,0.671,,[],[],[],[],[],[],[],573.578,575.577,575.578,577.161,[],[],[],[],[],[],[],m,577.162,577.162,-0.036956522,-0.390217391,0,0,0,,0,92,92,154,1,2,word,STORAGE,print,storage_p.png,1.573,,,,,
,,,,32297,001,2025-11-09_11h07.04.644,HW_LDT_1,2024.2.4,MacIntel,58.82352941,,,,,,,,,,,,,,,,,,,,,,577.163,577.361,577.361,577.861,,,,,,,,,,,,,,1.004,1,,,,,,,,,,,,,,m,,,,,,,,,,,,,,,94,0,577.862,578.878,m,1,1.004,,[],[],[],[],[],[],[],578.878,580.878,580.878,580.879,[],[],[],[],[],[],[],,580.879,580.879,-0.036956522,-0.390217391,0,0,0,,0,93,93,99,1,2,word,DEBATE,print,debate_p.png,,,,,,
,,,,32297,001,2025-11-09_11h07.04.644,HW_LDT_1,2024.2.4,MacIntel,58.82352941,,,,,,,,,,,,,,,,,,,,,,580.88,581.078,581.078,581.578,,,,,,,,,,,,,,0.927,1,,,,,,,,,,,,,,z,,,,,,,,,,,,,,,95,0,581.578,582.511,z,1,0.927,,[],[],[],[],[],[],[],582.511,584.511,584.511,584.512,[],[],[],[],[],[],[],,584.512,584.512,-0.036956522,-0.390217391,0,0,0,,0,94,94,44,1,2,TL,catipal,cursive,catipal_c.png,,,,,,
,,,,32297,001,2025-11-09_11h07.04.644,HW_LDT_1,2024.2.4,MacIntel,58.82352941,,,,,,,,,,,,,,,,,,,,,,584.513,584.711,584.711,585.211,,,,,,,,,,,,,,1.005,1,,,,,,,,,,,,,,z,,,,,,,,,,,,,,,96,0,585.212,586.228,z,1,1.005,,[],[],[],[],[],[],[],586.228,588.228,588.228,588.229,[],[],[],[],[],[],[],,588.229,588.229,-0.036956522,-0.390217391,0,0,0,,0,95,95,45,1,2,TL,carnidal,cursive,carnidal_c.png,,,,,,
,,,,32297,001,2025-11-09_11h07.04.644,HW_LDT_1,2024.2.4,MacIntel,58.82352941,,,,,,,,,,,,,,,,,,,,,,588.23,588.428,588.428,588.928,,,,,,,,,,,,,,1.628,1,,,,,,,,,,,,,,z,,,,,,,,,,,,,,,97,1,588.928,590.561,z,1,1.628,,[],[],[],[],[],[],[],590.561,592.561,592.561,593.878,[],[],[],[],[],[],[],z,593.878,593.878,-0.036956522,-0.390217391,0,0,0,,0,96,96,38,1,2,TL,atameur,cursive,atameur_c.png,1.305,,,,,
,,,,32297,001,2025-11-09_11h07.04.644,HW_LDT_1,2024.2.4,MacIntel,58.82352941,,,,,,,,,,,,,,,,,,,,,,593.88,594.078,594.078,594.578,,,,,,,,,,,,,,0.724,1,,,,,,,,,,,,,,z,,,,,,,,,,,,,,,98,0,594.578,595.311,z,1,0.724,,[],[],[],[],[],[],[],595.311,597.301,597.301,597.302,[],[],[],[],[],[],[],,597.302,597.302,-0.036956522,-0.390217391,0,0,0,,0,97,97,13,1,2,RL,helicage,print,helicage_p.png,,,,,,
,,,,32297,001,2025-11-09_11h07.04.644,HW_LDT_1,2024.2.4,MacIntel,58.82352941,,,,,,,,,,,,,,,,,,,,,,597.304,597.494,597.494,597.994,,,,,,,,,,,,,,2.724,1,,,,,,,,,,,,,,m,,,,,,,,,,,,,,,99,1,597.995,600.728,m,1,2.724,,[],[],[],[],[],[],[],600.728,602.728,602.728,603.878,[],[],[],[],[],[],[],z,603.878,603.878,-0.036956522,-0.390217391,0,0,0,,0,98,98,145,1,2,word,RESUME,cursive,resume_c.png,1.147,,,,,
,,,,32297,001,2025-11-09_11h07.04.644,HW_LDT_1,2024.2.4,MacIntel,58.82352941,,,,,,,,,,,,,,,,,,,,,,603.879,604.077,604.077,604.578,,,,,,,,,,,,,,2.975,1,,,,,,,,,,,,,,m,,,,,,,,,,,,,,,100,1,604.578,607.561,m,1,2.975,,[],[],[],[],[],[],[],607.561,609.561,609.561,610.761,[],[],[],[],[],[],[],z,610.761,610.761,-0.036956522,-0.390217391,0,0,0,,0,99,99,142,1,2,word,REMOTE,cursive,remote_c.png,1.197,,,,,
,,,,32297,001,2025-11-09_11h07.04.644,HW_LDT_1,2024.2.4,MacIntel,58.82352941,,,,,,,,,,,,,,,,,,,,,,610.763,610.961,610.961,611.461,,,,,,,,,,,,,,1.108,1,,,,,,,,,,,,,,z,,,,,,,,,,,,,,,101,0,611.461,612.578,z,1,1.108,,[],[],[],[],[],[],[],612.578,614.578,614.578,614.578,[],[],[],[],[],[],[],,614.578,614.578,-0.036956522,-0.390217391,0,0,0,,0,100,100,79,1,2,TL,vadility,print,vadility_p.png,,,,,,
,,,,32297,001,2025-11-09_11h07.04.644,HW_LDT_1,2024.2.4,MacIntel,58.82352941,,,,,,,,,,,,,,,,,,,,,,614.58,614.778,614.778,615.278,,,,,,,,,,,,,,0.855,1,,,,,,,,,,,,,,m,,,,,,,,,,,,,,,102,0,615.278,616.144,m,1,0.855,,[],[],[],[],[],[],[],616.144,618.144,618.144,618.145,[],[],[],[],[],[],[],,618.145,618.145,-0.036956522,-0.390217391,0,0,0,,0,101,101,159,1,2,word,VETERAN,print,veteran_p.png,,,,,,
,,,,32297,001,2025-11-09_11h07.04.644,HW_LDT_1,2024.2.4,MacIntel,58.82352941,,,,,,,,,,,,,,,,,,,,,,618.146,618.344,618.344,618.844,,,,,,,,,,,,,,2.021,1,,,,,,,,,,,,,,m,,,,,,,,,,,,,,,103,0,618.845,620.877,m,1,2.021,,[],[],[],[],[],[],[],620.878,622.878,622.878,622.878,[],[],[],[],[],[],[],,622.878,622.879,-0.036956522,-0.390217391,0,0,0,,0,102,102,94,1,2,word,CLINICAL,cursive,clinical_c.png,,,,,,
,,,,32297,001,2025-11-09_11h07.04.644,HW_LDT_1,2024.2.4,MacIntel,58.82352941,,,,,,,,,,,,,,,,,,,,,,622.88,623.078,623.078,623.577,,,,,,,,,,,,,,1.324,1,,,,,,,,,,,,,,z,,,,,,,,,,,,,,,104,0,623.578,624.911,z,1,1.324,,[],[],[],[],[],[],[],624.911,626.911,626.911,626.911,[],[],[],[],[],[],[],,626.911,626.912,-0.036956522,-0.390217391,0,0,0,,0,103,103,51,1,2,TL,etidor,cursive,etidor_c.png,,,,,,
,,,,32297,001,2025-11-09_11h07.04.644,HW_LDT_1,2024.2.4,MacIntel,58.82352941,,,,,,,,,,,,,,,,,,,,,,626.913,627.111,627.111,627.611,,,,,,,,,,,,,,1.705,1,,,,,,,,,,,,,,z,,,,,,,,,,,,,,,105,0,627.611,629.327,z,1,1.705,,[],[],[],[],[],[],[],629.327,631.328,631.328,631.328,[],[],[],[],[],[],[],,631.329,631.329,-0.036956522,-0.390217391,0,0,0,,0,104,104,40,1,2,TL,bevoled,cursive,bevoled_c.png,,,,,,
,,,,32297,001,2025-11-09_11h07.04.644,HW_LDT_1,2024.2.4,MacIntel,58.82352941,,,,,,,,,,,,,,,,,,,,,,631.33,631.527,631.528,632.028,,,,,,,,,,,,,,1.854,1,,,,,,,,,,,,,,z,,,,,,,,,,,,,,,106,0,632.029,633.894,z,1,1.854,,[],[],[],[],[],[],[],633.895,635.894,635.894,635.896,[],[],[],[],[],[],[],,635.896,635.897,-0.036956522,-0.390217391,0,0,0,,0,105,105,69,1,2,TL,resufal,cursive,resufal_c.png,,,,,,
,,,,32297,001,2025-11-09_11h07.04.644,HW_LDT_1,2024.2.4,MacIntel,58.82352941,,,,,,,,,,,,,,,,,,,,,,635.898,636.094,636.094,636.594,,,,,,,,,,,,,,0.959,1,,,,,,,,,,,,,,m,,,,,,,,,,,,,,,107,1,636.595,637.561,m,1,0.959,,[],[],[],[],[],[],[],637.561,639.561,639.561,640.477,[],[],[],[],[],[],[],m,640.478,640.478,-0.036956522,-0.390217391,0,0,0,,0,106,106,83,1,2,word,ANIMAL,print,animal_p.png,0.906,,,,,
,,,,32297,001,2025-11-09_11h07.04.644,HW_LDT_1,2024.2.4,MacIntel,58.82352941,,,,,,,,,,,,,,,,,,,,,,640.48,640.677,640.677,641.177,,,,,,,,,,,,,,0.89,1,,,,,,,,,,,,,,z,,,,,,,,,,,,,,,108,0,641.178,642.077,z,1,0.89,,[],[],[],[],[],[],[],642.078,644.077,644.077,644.078,[],[],[],[],[],[],[],,644.078,644.078,-0.036956522,-0.390217391,0,0,0,,0,107,107,72,1,2,TL,revomal,print,revomal_p.png,,,,,,
,,,,32297,001,2025-11-09_11h07.04.644,HW_LDT_1,2024.2.4,MacIntel,58.82352941,,,,,,,,,,,,,,,,,,,,,,644.08,644.277,644.277,644.777,,,,,,,,,,,,,,1.307,1,,,,,,,,,,,,,,z,,,,,,,,,,,,,,,109,1,644.778,646.094,z,1,1.307,,[],[],[],[],[],[],[],646.094,648.094,648.094,649.277,[],[],[],[],[],[],[],z,649.277,649.277,-0.036956522,-0.390217391,0,0,0,,0,108,108,23,1,2,RL,procogal,cursive,procogal_c.png,1.169,,,,,
,,,,32297,001,2025-11-09_11h07.04.644,HW_LDT_1,2024.2.4,MacIntel,58.82352941,,,,,,,,,,,,,,,,,,,,,,649.278,649.477,649.477,649.977,,,,,,,,,,,,,,0.791,1,,,,,,,,,,,,,,z,,,,,,,,,,,,,,,110,0,649.978,650.777,z,1,0.791,,[],[],[],[],[],[],[],650.777,652.777,652.777,652.778,[],[],[],[],[],[],[],,652.778,652.778,-0.036956522,-0.390217391,0,0,0,,0,109,109,30,1,2,RL,selamor,print,selamor_p.png,,,,,,
,,,,32297,001,2025-11-09_11h07.04.644,HW_LDT_1,2024.2.4,MacIntel,58.82352941,,,,,,,,,,,,,,,,,,,,,,652.779,652.977,652.977,653.477,,,,,,,,,,,,,,0.892,1,,,,,,,,,,,,,,z,,,,,,,,,,,,,,,111,0,653.478,654.372,z,1,0.892,,[],[],[],[],[],[],[],654.372,656.361,656.361,656.361,[],[],[],[],[],[],[],,656.361,656.362,-0.036956522,-0.390217391,0,0,0,,0,110,110,32,1,2,RL,speniven,print,speniven_p.png,,,,,,
,,,,32297,001,2025-11-09_11h07.04.644,HW_LDT_1,2024.2.4,MacIntel,58.82352941,,,,,,,,,,,,,,,,,,,,,,656.363,656.56,656.561,657.061,,,,,,,,,,,,,,0.992,1,,,,,,,,,,,,,,m,,,,,,,,,,,,,,,112,1,657.061,658.06,m,1,0.992,,[],[],[],[],[],[],[],658.061,660.06,660.06,661.194,[],[],[],[],[],[],[],m,661.194,661.194,-0.036956522,-0.390217391,0,0,0,,0,111,111,88,1,2,word,CAMERA,print,camera_p.png,1.127,,,,,
,,,,32297,001,2025-11-09_11h07.04.644,HW_LDT_1,2024.2.4,MacIntel,58.82352941,,,,,,,,,,,,,,,,,,,,,,661.195,661.394,661.394,661.894,,,,,,,,,,,,,,1.236,1,,,,,,,,,,,,,,m,,,,,,,,,,,,,,,113,0,661.895,663.144,m,1,1.236,,[],[],[],[],[],[],[],663.144,665.144,665.144,665.145,[],[],[],[],[],[],[],,665.145,665.146,-0.036956522,-0.390217391,0,0,0,,0,112,112,149,1,2,word,SENATOR,print,senator_p.png,,,,,,
,,,,32297,001,2025-11-09_11h07.04.644,HW_LDT_1,2024.2.4,MacIntel,58.82352941,,,,,,,,,,,,,,,,,,,,,,665.147,665.344,665.344,665.844,,,,,,,,,,,,,,0.892,1,,,,,,,,,,,,,,z,,,,,,,,,,,,,,,114,0,665.844,666.744,z,1,0.892,,[],[],[],[],[],[],[],666.744,668.744,668.744,668.744,[],[],[],[],[],[],[],,668.744,668.745,-0.036956522,-0.390217391,0,0,0,,0,113,113,50,1,2,TL,donimant,print,donimant_p.png,,,,,,
,,,,32297,001,2025-11-09_11h07.04.644,HW_LDT_1,2024.2.4,MacIntel,58.82352941,,,,,,,,,,,,,,,,,,,,,,668.746,668.944,668.944,669.444,,,,,,,,,,,,,,0.888,1,,,,,,,,,,,,,,m,,,,,,,,,,,,,,,115,0,669.444,670.344,m,1,0.888,,[],[],[],[],[],[],[],670.344,672.343,672.344,672.344,[],[],[],[],[],[],[],,672.344,672.344,-0.036956522,-0.390217391,0,0,0,,0,114,114,96,1,2,word,CONSIDER,print,consider_p.png,,,,,,
,,,,32297,001,2025-11-09_11h07.04.644,HW_LDT_1,2024.2.4,MacIntel,58.82352941,,,,,,,,,,,,,,,,,,,,,,672.346,672.543,672.544,673.044,,,,,,,,,,,,,,2.339,1,,,,,,,,,,,,,,z,,,,,,,,,,,,,,,116,0,673.044,675.394,z,1,2.339,,[],[],[],[],[],[],[],675.394,677.394,677.394,677.394,[],[],[],[],[],[],[],,677.394,677.395,-0.036956522,-0.390217391,0,0,0,,0,115,115,47,1,2,TL,crinimal,cursive,crinimal_c.png,,,,,,
,,,,32297,001,2025-11-09_11h07.04.644,HW_LDT_1,2024.2.4,MacIntel,58.82352941,,,,,,,,,,,,,,,,,,,,,,677.396,677.594,677.594,678.093,,,,,,,,,,,,,,2.52,1,,,,,,,,,,,,,,z,,,,,,,,,,,,,,,117,0,678.094,680.627,z,1,2.52,,[],[],[],[],[],[],[],680.627,682.627,682.627,682.627,[],[],[],[],[],[],[],,682.627,682.627,-0.036956522,-0.390217391,0,0,0,,0,116,116,27,1,2,RL,repifion,cursive,repifion_c.png,,,,,,
,,,,32297,001,2025-11-09_11h07.04.644,HW_LDT_1,2024.2.4,MacIntel,58.82352941,,,,,,,,,,,,,,,,,,,,,,682.629,682.827,682.827,683.327,,,,,,,,,,,,,,3.074,1,,,,,,,,,,,,,,m,,,,,,,,,,,,,,,118,0,683.327,686.41,m,1,3.074,,[],[],[],[],[],[],[],686.41,688.41,688.41,688.41,[],[],[],[],[],[],[],,688.41,688.41,-0.036956522,-0.390217391,0,0,0,,0,117,117,138,1,2,word,REFUSAL,cursive,refusal_c.png,,,,,,
,,,,32297,001,2025-11-09_11h07.04.644,HW_LDT_1,2024.2.4,MacIntel,58.82352941,,,,,,,,,,,,,,,,,,,,,,688.412,688.61,688.61,689.11,,,,,,,,,,,,,,1.687,1,,,,,,,,,,,,,,z,,,,,,,,,,,,,,,119,0,689.111,690.81,z,1,1.687,,[],[],[],[],[],[],[],690.81,692.81,692.81,692.811,[],[],[],[],[],[],[],,692.811,692.811,-0.036956522,-0.390217391,0,0,0,,0,118,118,24,1,2,RL,rasibal,cursive,rasibal_c.png,,,,,,
,,,,32297,001,2025-11-09_11h07.04.644,HW_LDT_1,2024.2.4,MacIntel,58.82352941,,,,,,,,,,,,,,,,,,,,,,692.812,693.01,693.01,693.51,,,,,,,,,,,,,,1.021,1,,,,,,,,,,,,,,m,,,,,,,,,,,,,,,120,0,693.51,694.543,m,1,1.021,,[],[],[],[],[],[],[],694.543,696.543,696.543,696.544,[],[],[],[],[],[],[],,696.544,696.544,-0.036956522,-0.390217391,0,0,0,,0,119,119,92,1,2,word,CATEGORY,print,category_p.png,,,,,,
,,,,32297,001,2025-11-09_11h07.04.644,HW_LDT_1,2024.2.4,MacIntel,58.82352941,,,,,,,,,,,,,,,,,,,,,,696.545,696.743,696.743,697.243,,,,,,,,,,,,,,0.912,1,,,,,,,,,,,,,,z,,,,,,,,,,,,,,,121,1,697.244,698.16,z,1,0.912,,[],[],[],[],[],[],[],698.16,700.161,700.161,703.393,[],[],[],[],[],[],[],m,703.393,703.394,-0.036956522,-0.390217391,0,0,0,,0,120,120,6,1,2,RL,conbicer,print,conbicer_p.png,3.221,,,,,
,,,,32297,001,2025-11-09_11h07.04.644,HW_LDT_1,2024.2.4,MacIntel,58.82352941,,,,,,,,,,,,,,,,,,,,,,703.395,703.593,703.593,704.093,,,,,,,,,,,,,,2.171,1,,,,,,,,,,,,,,z,,,,,,,,,,,,,,,122,0,704.094,706.276,z,1,2.171,,[],[],[],[],[],[],[],706.277,708.276,708.276,708.277,[],[],[],[],[],[],[],,708.277,708.277,-0.036956522,-0.390217391,0,0,0,,0,121,121,54,1,2,TL,liretal,cursive,liretal_c.png,,,,,,
,,,,32297,001,2025-11-09_11h07.04.644,HW_LDT_1,2024.2.4,MacIntel,58.82352941,,,,,,,,,,,,,,,,,,,,,,708.278,708.476,708.477,708.976,,,,,,,,,,,,,,0.874,1,,,,,,,,,,,,,,m,,,,,,,,,,,,,,,123,1,708.977,709.86,m,1,0.874,,[],[],[],[],[],[],[],709.86,711.86,711.86,713.31,[],[],[],[],[],[],[],m,713.31,713.31,0.339130435,-0.320652174,0,0,0,,0,122,122,108,1,2,word,FORTUNE,print,fortune_p.png,1.441,,,,,
,,,,32297,001,2025-11-09_11h07.04.644,HW_LDT_1,2024.2.4,MacIntel,58.82352941,,,,,,,,,,,,,,,,,,,,,,713.311,713.51,713.51,714.01,,,,,,,,,,,,,,0.993,1,,,,,,,,,,,,,,m,,,,,,,,,,,,,,,124,0,714.01,715.01,m,1,0.993,,[],[],[],[],[],[],[],715.01,717.01,717.01,717.01,[],[],[],[],[],[],[],,717.01,717.01,0.339130435,-0.320652174,0,0,0,,0,123,123,115,1,2,word,LOGICAL,print,logical_p.png,,,,,,
,,,,32297,001,2025-11-09_11h07.04.644,HW_LDT_1,2024.2.4,MacIntel,58.82352941,,,,,,,,,,,,,,,,,,,,,,717.012,717.21,717.21,717.71,,,,,,,,,,,,,,2.596,1,,,,,,,,,,,,,,z,,,,,,,,,,,,,,,125,0,717.71,720.31,z,1,2.596,,[],[],[],[],[],[],[],720.31,722.31,722.31,722.31,[],[],[],[],[],[],[],,722.31,722.31,0.339130435,-0.320652174,0,0,0,,0,124,124,5,1,2,RL,clisimal,cursive,clisimal_c.png,,,,,,
,,,,32297,001,2025-11-09_11h07.04.644,HW_LDT_1,2024.2.4,MacIntel,58.82352941,,,,,,,,,,,,,,,,,,,,,,722.311,722.51,722.51,723.01,,,,,,,,,,,,,,1.396,1,,,,,,,,,,,,,,m,,,,,,,,,,,,,,,126,0,723.01,724.41,m,1,1.396,,[],[],[],[],[],[],[],724.41,726.41,726.41,726.41,[],[],[],[],[],[],[],,726.41,726.41,0.339130435,-0.320652174,0,0,0,,0,125,125,156,1,2,word,TRIBUTE,cursive,tribute_c.png,,,,,,
,,,,32297,001,2025-11-09_11h07.04.644,HW_LDT_1,2024.2.4,MacIntel,58.82352941,,,,,,,,,,,,,,,,,,,,,,726.412,726.61,726.61,727.11,,,,,,,,,,,,,,2.163,1,,,,,,,,,,,,,,m,,,,,,,,,,,,,,,127,1,727.11,729.276,m,1,2.163,,[],[],[],[],[],[],[],729.277,731.276,731.276,732.726,[],[],[],[],[],[],[],z,732.726,732.727,0.339130435,-0.320652174,0,0,0,,0,126,126,141,1,2,word,RELIGION,cursive,religion_c.png,1.439,,,,,
,,,,32297,001,2025-11-09_11h07.04.644,HW_LDT_1,2024.2.4,MacIntel,58.82352941,,,,,,,,,,,,,,,,,,,,,,732.728,732.926,732.926,733.426,,,,,,,,,,,,,,1.489,1,,,,,,,,,,,,,,z,,,,,,,,,,,,,,,128,0,733.427,734.926,z,1,1.489,,[],[],[],[],[],[],[],734.926,736.926,736.926,736.927,[],[],[],[],[],[],[],,736.927,736.927,0.339130435,-0.320652174,0,0,0,,0,127,127,33,1,2,RL,strapely,cursive,strapely_c.png,,,,,,
,,,,32297,001,2025-11-09_11h07.04.644,HW_LDT_1,2024.2.4,MacIntel,58.82352941,,,,,,,,,,,,,,,,,,,,,,736.928,737.126,737.126,737.626,,,,,,,,,,,,,,4.746,1,,,,,,,,,,,,,,m,,,,,,,,,,,,,,,129,0,737.627,742.376,m,1,4.746,,[],[],[],[],[],[],[],742.376,744.359,744.359,744.36,[],[],[],[],[],[],[],,744.36,744.36,0.339130435,-0.320652174,0,0,0,,0,128,128,135,1,2,word,QUALITY,cursive,quality_c.png,,,,,,
,,,,32297,001,2025-11-09_11h07.04.644,HW_LDT_1,2024.2.4,MacIntel,58.82352941,,,,,,,,,,,,,,,,,,,,,,744.361,744.559,744.559,745.059,,,,,,,,,,,,,,1.241,1,,,,,,,,,,,,,,m,,,,,,,,,,,,,,,130,1,745.06,746.309,m,1,1.241,,[],[],[],[],[],[],[],746.31,748.309,748.309,750.059,[],[],[],[],[],[],[],z,750.06,750.06,0.339130435,-0.320652174,0,0,0,,0,129,129,80,1,2,word,ACADEMY,cursive,academy_c.png,1.741,,,,,
,,,,32297,001,2025-11-09_11h07.04.644,HW_LDT_1,2024.2.4,MacIntel,58.82352941,,,,,,,,,,,,,,,,,,,,,,750.061,750.259,750.26,750.759,,,,,,,,,,,,,,1.365,1,,,,,,,,,,,,,,z,,,,,,,,,,,,,,,131,0,750.759,752.126,z,1,1.365,,[],[],[],[],[],[],[],752.126,754.126,754.126,754.128,[],[],[],[],[],[],[],,754.128,754.128,0.339130435,-0.320652174,0,0,0,,0,130,130,12,1,2,RL,gralekul,cursive,gralekul_c.png,,,,,,
,,,,32297,001,2025-11-09_11h07.04.644,HW_LDT_1,2024.2.4,MacIntel,58.82352941,,,,,,,,,,,,,,,,,,,,,,754.13,754.326,754.326,754.825,,,,,,,,,,,,,,0.973,1,,,,,,,,,,,,,,m,,,,,,,,,,,,,,,132,0,754.825,755.809,m,1,0.973,,[],[],[],[],[],[],[],755.81,757.809,757.81,757.81,[],[],[],[],[],[],[],,757.81,757.811,0.339130435,-0.320652174,0,0,0,,0,131,131,127,1,2,word,ORIGINAL,print,original_p.png,,,,,,
,,,,32297,001,2025-11-09_11h07.04.644,HW_LDT_1,2024.2.4,MacIntel,58.82352941,,,,,,,,,,,,,,,,,,,,,,757.812,758.009,758.009,758.509,,,,,,,,,,,,,,1.687,1,,,,,,,,,,,,,,z,,,,,,,,,,,,,,,133,0,758.51,760.209,z,1,1.687,,[],[],[],[],[],[],[],760.209,762.209,762.209,762.21,[],[],[],[],[],[],[],,762.21,762.211,0.339130435,-0.320652174,0,0,0,,0,132,132,74,1,2,TL,rerite,cursive,rerite_c.png,,,,,,
,,,,32297,001,2025-11-09_11h07.04.644,HW_LDT_1,2024.2.4,MacIntel,58.82352941,,,,,,,,,,,,,,,,,,,,,,762.212,762.392,762.393,762.909,,,,,,,,,,,,,,2.354,1,,,,,,,,,,,,,,z,,,,,,,,,,,,,,,134,0,762.91,765.276,z,1,2.354,,[],[],[],[],[],[],[],765.276,767.276,767.276,767.277,[],[],[],[],[],[],[],,767.277,767.277,0.339130435,-0.320652174,0,0,0,,0,133,133,26,1,2,RL,retupar,cursive,retupar_c.png,,,,,,
,,,,32297,001,2025-11-09_11h07.04.644,HW_LDT_1,2024.2.4,MacIntel,58.82352941,,,,,,,,,,,,,,,,,,,,,,767.279,767.476,767.476,767.976,,,,,,,,,,,,,,1.134,1,,,,,,,,,,,,,,m,,,,,,,,,,,,,,,135,1,767.976,769.126,m,1,1.134,,[],[],[],[],[],[],[],769.126,771.126,771.126,772.159,[],[],[],[],[],[],[],m,772.159,772.16,0.339130435,-0.320652174,0,0,0,,0,134,134,158,1,2,word,VELOCITY,print,velocity_p.png,1.023,,,,,
,,,,32297,001,2025-11-09_11h07.04.644,HW_LDT_1,2024.2.4,MacIntel,58.82352941,,,,,,,,,,,,,,,,,,,,,,772.161,772.359,772.359,772.859,,,,,,,,,,,,,,0.787,1,,,,,,,,,,,,,,z,,,,,,,,,,,,,,,136,0,772.86,773.659,z,1,0.787,,[],[],[],[],[],[],[],773.659,775.659,775.659,775.66,[],[],[],[],[],[],[],,775.66,775.66,0.339130435,-0.320652174,0,0,0,,0,135,135,9,1,2,RL,denficy,print,denficy_p.png,,,,,,
,,,,32297,001,2025-11-09_11h07.04.644,HW_LDT_1,2024.2.4,MacIntel,58.82352941,,,,,,,,,,,,,,,,,,,,,,775.661,775.859,775.859,776.359,,,,,,,,,,,,,,2.44,1,,,,,,,,,,,,,,z,,,,,,,,,,,,,,,137,0,776.359,778.809,z,1,2.44,,[],[],[],[],[],[],[],778.809,780.809,780.809,780.81,[],[],[],[],[],[],[],,780.81,780.81,0.339130435,-0.320652174,0,0,0,,0,136,136,76,1,2,TL,senmitent,cursive,senmitent_c.png,,,,,,
,,,,32297,001,2025-11-09_11h07.04.644,HW_LDT_1,2024.2.4,MacIntel,58.82352941,,,,,,,,,,,,,,,,,,,,,,780.811,781.009,781.009,781.509,,,,,,,,,,,,,,1.71,1,,,,,,,,,,,,,,m,,,,,,,,,,,,,,,138,0,781.509,783.225,m,1,1.71,,[],[],[],[],[],[],[],783.225,785.226,785.226,785.227,[],[],[],[],[],[],[],,785.227,785.228,0.339130435,-0.320652174,0,0,0,,0,137,137,84,1,2,word,BELOVED,cursive,beloved_c.png,,,,,,
,,,,32297,001,2025-11-09_11h07.04.644,HW_LDT_1,2024.2.4,MacIntel,58.82352941,,,,,,,,,,,,,,,,,,,,,,785.23,785.426,785.426,785.926,,,,,,,,,,,,,,1.771,1,,,,,,,,,,,,,,m,,,,,,,,,,,,,,,139,0,785.927,787.709,m,1,1.771,,[],[],[],[],[],[],[],787.709,789.709,789.709,789.709,[],[],[],[],[],[],[],,789.709,789.71,0.339130435,-0.320652174,0,0,0,,0,138,138,119,1,2,word,MEMORY,cursive,memory_c.png,,,,,,
,,,,32297,001,2025-11-09_11h07.04.644,HW_LDT_1,2024.2.4,MacIntel,58.82352941,,,,,,,,,,,,,,,,,,,,,,789.711,789.909,789.909,790.409,,,,,,,,,,,,,,1.871,1,,,,,,,,,,,,,,z,,,,,,,,,,,,,,,140,0,790.409,792.292,z,1,1.871,,[],[],[],[],[],[],[],792.292,794.292,794.292,794.293,[],[],[],[],[],[],[],,794.293,794.293,0.339130435,-0.320652174,0,0,0,,0,139,139,14,1,2,RL,insibate,cursive,insibate_c.png,,,,,,
,,,,32297,001,2025-11-09_11h07.04.644,HW_LDT_1,2024.2.4,MacIntel,58.82352941,,,,,,,,,,,,,,,,,,,,,,794.295,794.492,794.492,794.992,,,,,,,,,,,,,,0.89,1,,,,,,,,,,,,,,m,,,,,,,,,,,,,,,141,0,794.993,795.892,m,1,0.89,,[],[],[],[],[],[],[],795.892,797.892,797.892,797.893,[],[],[],[],[],[],[],,797.893,797.893,0.339130435,-0.320652174,0,0,0,,0,140,140,102,1,2,word,DENSITY,print,density_p.png,,,,,,
,,,,32297,001,2025-11-09_11h07.04.644,HW_LDT_1,2024.2.4,MacIntel,58.82352941,,,,,,,,,,,,,,,,,,,,,,797.894,798.092,798.092,798.592,,,,,,,,,,,,,,2.643,1,,,,,,,,,,,,,,m,,,,,,,,,,,,,,,142,1,798.593,801.242,m,1,2.643,,[],[],[],[],[],[],[],801.242,803.242,803.242,804.175,[],[],[],[],[],[],[],m,804.176,804.176,0.339130435,-0.320652174,0,0,0,,0,141,141,87,1,2,word,CAFETERIA,print,cafeteria_p.png,0.927,,,,,
,,,,32297,001,2025-11-09_11h07.04.644,HW_LDT_1,2024.2.4,MacIntel,58.82352941,,,,,,,,,,,,,,,,,,,,,,804.177,804.375,804.375,804.875,,,,,,,,,,,,,,1.653,1,,,,,,,,,,,,,,z,,,,,,,,,,,,,,,143,0,804.876,806.542,z,1,1.653,,[],[],[],[],[],[],[],806.542,808.542,808.542,808.543,[],[],[],[],[],[],[],,808.543,808.543,0.339130435,-0.320652174,0,0,0,,0,142,142,19,1,2,RL,monebate,cursive,monebate_c.png,,,,,,
,,,,32297,001,2025-11-09_11h07.04.644,HW_LDT_1,2024.2.4,MacIntel,58.82352941,,,,,,,,,,,,,,,,,,,,,,808.544,808.742,808.742,809.242,,,,,,,,,,,,,,0.673,1,,,,,,,,,,,,,,z,,,,,,,,,,,,,,,144,0,809.243,809.925,z,1,0.673,,[],[],[],[],[],[],[],809.925,811.925,811.925,811.926,[],[],[],[],[],[],[],,811.926,811.926,0.339130435,-0.320652174,0,0,0,,0,143,143,2,1,2,RL,casagity,print,casagity_p.png,,,,,,
,,,,32297,001,2025-11-09_11h07.04.644,HW_LDT_1,2024.2.4,MacIntel,58.82352941,,,,,,,,,,,,,,,,,,,,,,811.927,812.125,812.125,812.625,,,,,,,,,,,,,,0.803,1,,,,,,,,,,,,,,z,,,,,,,,,,,,,,,145,0,812.626,813.442,z,1,0.803,,[],[],[],[],[],[],[],813.442,815.442,815.442,815.442,[],[],[],[],[],[],[],,815.442,815.443,0.339130435,-0.320652174,0,0,0,,0,144,144,16,1,2,RL,losipal,print,losipal_p.png,,,,,,
,,,,32297,001,2025-11-09_11h07.04.644,HW_LDT_1,2024.2.4,MacIntel,58.82352941,,,,,,,,,,,,,,,,,,,,,,815.444,815.642,815.642,816.142,,,,,,,,,,,,,,1.309,1,,,,,,,,,,,,,,m,,,,,,,,,,,,,,,146,0,816.142,817.459,m,1,1.309,,[],[],[],[],[],[],[],817.459,819.447,819.447,819.448,[],[],[],[],[],[],[],,819.448,819.448,0.339130435,-0.320652174,0,0,0,,0,145,145,131,1,2,word,POPULAR,cursive,popular_c.png,,,,,,
,,,,32297,001,2025-11-09_11h07.04.644,HW_LDT_1,2024.2.4,MacIntel,58.82352941,,,,,,,,,,,,,,,,,,,,,,819.449,819.642,819.642,820.142,,,,,,,,,,,,,,0.811,1,,,,,,,,,,,,,,z,,,,,,,,,,,,,,,147,1,820.143,820.959,z,1,0.811,,[],[],[],[],[],[],[],820.959,822.958,822.959,824.392,[],[],[],[],[],[],[],z,824.392,824.392,0.339130435,-0.320652174,0,0,0,,0,146,146,21,1,2,RL,pamest,print,pamest_p.png,1.422,,,,,
,,,,32297,001,2025-11-09_11h07.04.644,HW_LDT_1,2024.2.4,MacIntel,58.82352941,,,,,,,,,,,,,,,,,,,,,,824.394,824.592,824.592,825.092,,,,,,,,,,,,,,3.013,1,,,,,,,,,,,,,,m,,,,,,,,,,,,,,,148,0,825.092,828.108,m,1,3.013,,[],[],[],[],[],[],[],828.109,830.108,830.108,830.109,[],[],[],[],[],[],[],,830.109,830.109,0.339130435,-0.320652174,0,0,0,,0,147,147,133,1,2,word,PROVIDE,cursive,provide_c.png,,,,,,
,,,,32297,001,2025-11-09_11h07.04.644,HW_LDT_1,2024.2.4,MacIntel,58.82352941,,,,,,,,,,,,,,,,,,,,,,830.111,830.308,830.308,830.808,,,,,,,,,,,,,,1.655,1,,,,,,,,,,,,,,m,,,,,,,,,,,,,,,149,0,830.809,832.475,m,1,1.655,,[],[],[],[],[],[],[],832.475,834.475,834.475,834.476,[],[],[],[],[],[],[],,834.476,834.476,0.339130435,-0.320652174,0,0,0,,0,148,148,97,1,2,word,COVERAGE,cursive,coverage_c.png,,,,,,
,,,,32297,001,2025-11-09_11h07.04.644,HW_LDT_1,2024.2.4,MacIntel,58.82352941,,,,,,,,,,,,,,,,,,,,,,834.477,834.675,834.675,835.175,,,,,,,,,,,,,,1.653,1,,,,,,,,,,,,,,m,,,,,,,,,,,,,,,150,0,835.176,836.842,m,1,1.653,,[],[],[],[],[],[],[],836.842,838.842,838.842,838.842,[],[],[],[],[],[],[],,838.842,838.843,0.339130435,-0.320652174,0,0,0,,0,149,149,116,1,2,word,MARGINAL,cursive,marginal_c.png,,,,,,
,,,,32297,001,2025-11-09_11h07.04.644,HW_LDT_1,2024.2.4,MacIntel,58.82352941,,,,,,,,,,,,,,,,,,,,,,838.844,839.041,839.041,839.542,,,,,,,,,,,,,,1.257,1,,,,,,,,,,,,,,z,,,,,,,,,,,,,,,151,0,839.542,840.808,z,1,1.257,,[],[],[],[],[],[],[],840.808,842.808,842.808,842.809,[],[],[],[],[],[],[],,842.809,842.809,0.339130435,-0.320652174,0,0,0,,0,150,150,48,1,2,TL,detabe,print,detabe_p.png,,,,,,
,,,,32297,001,2025-11-09_11h07.04.644,HW_LDT_1,2024.2.4,MacIntel,58.82352941,,,,,,,,,,,,,,,,,,,,,,842.81,843.007,843.007,843.505,,,,,,,,,,,,,,1.729,1,,,,,,,,,,,,,,m,,,,,,,,,,,,,,,152,0,843.506,845.242,m,1,1.729,,[],[],[],[],[],[],[],845.242,847.242,847.242,847.242,[],[],[],[],[],[],[],,847.242,847.243,0.339130435,-0.320652174,0,0,0,,0,151,151,155,1,2,word,STRATEGY,cursive,strategy_c.png,,,,,,
,,,,32297,001,2025-11-09_11h07.04.644,HW_LDT_1,2024.2.4,MacIntel,58.82352941,,,,,,,,,,,,,,,,,,,,,,847.244,847.442,847.442,847.941,,,,,,,,,,,,,,1.924,1,,,,,,,,,,,,,,z,,,,,,,,,,,,,,,153,0,847.942,849.875,z,1,1.924,,[],[],[],[],[],[],[],849.875,851.875,851.875,851.875,[],[],[],[],[],[],[],,851.875,851.876,0.339130435,-0.320652174,0,0,0,,0,152,152,61,1,2,TL,nuremical,cursive,nuremical_c.png,,,,,,
,,,,32297,001,2025-11-09_11h07.04.644,HW_LDT_1,2024.2.4,MacIntel,58.82352941,,,,,,,,,,,,,,,,,,,,,,851.877,852.075,852.075,852.575,,,,,,,,,,,,,,1.257,1,,,,,,,,,,,,,,m,,,,,,,,,,,,,,,154,0,852.575,853.841,m,1,1.257,,[],[],[],[],[],[],[],853.842,855.841,855.842,855.842,[],[],[],[],[],[],[],,855.842,855.842,0.339130435,-0.320652174,0,0,0,,0,153,153,93,1,2,word,CEREMONY,print,ceremony_p.png,,,,,,
,,,,32297,001,2025-11-09_11h07.04.644,HW_LDT_1,2024.2.4,MacIntel,58.82352941,,,,,,,,,,,,,,,,,,,,,,855.844,856.041,856.041,856.541,,,,,,,,,,,,,,2.269,1,,,,,,,,,,,,,,z,,,,,,,,,,,,,,,155,0,856.542,858.825,z,1,2.269,,[],[],[],[],[],[],[],858.825,860.825,860.825,860.825,[],[],[],[],[],[],[],,860.825,860.826,0.339130435,-0.320652174,0,0,0,,0,154,154,41,1,2,TL,befenit,cursive,befenit_c.png,,,,,,
,,,,32297,001,2025-11-09_11h07.04.644,HW_LDT_1,2024.2.4,MacIntel,58.82352941,,,,,,,,,,,,,,,,,,,,,,860.827,861.025,861.025,861.508,,,,,,,,,,,,,,0.845,1,,,,,,,,,,,,,,z,,,,,,,,,,,,,,,156,1,861.508,862.358,z,1,0.845,,[],[],[],[],[],[],[],862.358,864.358,864.358,865.391,[],[],[],[],[],[],[],m,865.392,865.392,0.339130435,-0.320652174,0,0,0,,0,155,155,22,1,2,RL,posity,print,posity_p.png,1.023,,,,,
,,,,32297,001,2025-11-09_11h07.04.644,HW_LDT_1,2024.2.4,MacIntel,58.82352941,,,,,,,,,,,,,,,,,,,,,,865.393,865.591,865.591,866.091,,,,,,,,,,,,,,1.778,1,,,,,,,,,,,,,,z,,,,,,,,,,,,,,,157,0,866.092,867.875,z,1,1.778,,[],[],[],[],[],[],[],867.875,869.875,869.875,869.875,[],[],[],[],[],[],[],,869.875,869.875,0.339130435,-0.320652174,0,0,0,,0,156,156,28,1,2,RL,revune,cursive,revune_c.png,,,,,,
,,,,32297,001,2025-11-09_11h07.04.644,HW_LDT_1,2024.2.4,MacIntel,58.82352941,,,,,,,,,,,,,,,,,,,,,,869.877,870.075,870.075,870.575,,,,,,,,,,,,,,0.722,1,,,,,,,,,,,,,,z,,,,,,,,,,,,,,,158,0,870.575,871.308,z,1,0.722,,[],[],[],[],[],[],[],871.308,873.308,873.308,873.309,[],[],[],[],[],[],[],,873.309,873.31,0.339130435,-0.320652174,0,0,0,,0,157,157,8,1,2,RL,desifate,print,desifate_p.png,,,,,,
,,,,32297,001,2025-11-09_11h07.04.644,HW_LDT_1,2024.2.4,MacIntel,58.82352941,,,,,,,,,,,,,,,,,,,,,,873.312,873.505,873.505,874.008,,,,,,,,,,,,,,1.01,1,,,,,,,,,,,,,,z,,,,,,,,,,,,,,,159,0,874.008,875.025,z,1,1.01,,[],[],[],[],[],[],[],875.025,877.025,877.025,877.025,[],[],[],[],[],[],[],,877.025,877.026,0.339130435,-0.320652174,0,0,0,,0,158,158,37,1,2,TL,adacemy,cursive,adacemy_c.png,,,,,,
,,,,32297,001,2025-11-09_11h07.04.644,HW_LDT_1,2024.2.4,MacIntel,58.82352941,,,,,,,,,,,,,,,,,,,,,,877.027,877.225,877.225,877.725,,,,,,,,,,,,,,1.855,1,,,,,,,,,,,,,,m,,,,,,,,,,,,,,,160,0,877.725,879.591,m,1,1.855,,[],[],[],[],[],[],[],879.591,881.591,881.591,881.592,[],[],[],[],[],[],[],,881.592,881.593,0.339130435,-0.320652174,0,0,0,,0,159,159,114,1,2,word,LOCATE,print,locate_p.png,,,,,,
,,,,32297,001,2025-11-09_11h07.04.644,HW_LDT_1,2024.2.4,MacIntel,58.82352941,,,,,,,,,,,,,,,,,,,,,,,,,,,,,,,,,,,,,,,,,,,,,,,,,,,,,,,,,,,,,,,,,,,,,,,,,,,,,,,,,,,,,,,,,,,,,,,,,,,,,,,,,,,,,,,,,,,,,,881.604,886.592
