counterbalance_lists.group,counterbalance_lists.remaining,get_list.started,get_list.stopped,participant,session,date,expName,psychopyVersion,OS,frameRate,Instructions.started,Instructions.stopped,key_resp.keys,key_resp.rt,key_resp.duration,instr_done_touch.x,instr_done_touch.y,instr_done_touch.leftButton,instr_done_touch.midButton,instr_done_touch.rightButton,start_instr.thisRepN,start_instr.thisTrialN,start_instr.thisN,start_instr.thisIndex,start_instr.ran,pageN,phase,instruct_text,has_image,instruct_image,showProgress.started,showProgress.stopped,fix.started,fix.stopped,prac.started,prac.stopped,response.keys,response.corr,response.rt,response.duration,touch_resp.x,touch_resp.y,touch_resp.leftButton,touch_resp.midButton,touch_resp.rightButton,touch_resp.time,touch_resp.clicked_name,rt,corr,feedback.started,feedback.stopped,trials.thisRepN,trials.thisTrialN,trials.thisN,trials.thisIndex,trials.ran,TrialID,StimulusType,Condition,PrimeDuration,Prime,Target,corrAns,Instructions_expt.started,Instructions_expt.stopped,key_resp_3.keys,key_resp_3.rt,key_resp_3.duration,instr_done_touch_3.x,instr_done_touch_3.y,instr_done_touch_3.leftButton,instr_done_touch_3.midButton,instr_done_touch_3.rightButton,instr_experiment.thisRepN,instr_experiment.thisTrialN,instr_experiment.thisN,instr_experiment.thisIndex,instr_experiment.ran,trialID,flag,maintask.started,maintask.stopped,key_resp_2.keys,key_resp_2.corr,key_resp_2.rt,key_resp_2.duration,targ_click.x,targ_click.y,targ_click.leftButton,targ_click.midButton,targ_click.rightButton,targ_click.time,targ_click.clicked_name,ITI.started,ITI.stopped,probe.started,probe.stopped,click_probe.x,click_probe.y,click_probe.leftButton,click_probe.midButton,click_probe.rightButton,click_probe.time,click_probe.clicked_name,key_resp_probe.keys,key_resp_probe.rt,key_resp_probe.duration,Break.started,Break.stopped,break_done_touch.x,break_done_touch.y,break_done_touch.leftButton,break_done_touch.midButton,break_done_touch.rightButton,break_done_keyboard.keys,list2_trials.thisRepN,list2_trials.thisTrialN,list2_trials.thisN,list2_trials.thisIndex,list2_trials.ran,list_id,item_type,string,font,stim_file,break_done_keyboard.rt,break_done_keyboard.duration,End.started,End.stopped
list2,,0.5278,0.528,32294,001,2025-12-02_10h53.13.794,HW_LDT_1,2024.2.4,MacIntel,60.24096386,,,,,,,,,,,,,,,,,,,,,,,,,,,,,,,,,,,,,,,,,,,,,,,,,,,,,,,,,,,,,,,,,,,,,,,,,,,,,,,,,,,,,,,,,,,,,,,,,,,,,,,,,,,,,,,,,,,,,,,
,,,,32294,001,2025-12-02_10h53.13.794,HW_LDT_1,2024.2.4,MacIntel,60.24096386,0.5442,32.2177,space,31.6415,,-0.038043002,-0.409922387,0,0,0,0,0,0,0,1,1,instructions,"INSTRUCTIONS
At the start of each trial, look at the plus sign  (+) in the center of the screen.  This tells you that a trial is about to begin and where to look. Second, the plus sign will disappear and a string of letters will appear. Your task is to determine if the string of letters is a word or not. If the item is a word press the M key (on keyboard)  or touch the word button (phone/tablet).  If the item is not a word,  press the  Z key (on keyboard)  or touch the nonword button (on phone/tablet). The items will be presented for a short time. 
Press the space bar or touch  continue.",0,,,,,,,,,,,,,,,,,,,,,,,,,,,,,,,,,,,,,,,,,,,,,,,,,,,,,,,,,,,,,,,,,,,,,,,,,,,,,,,,,,,,,,,,,,,,,,,,,,,,
,,,,32294,001,2025-12-02_10h53.13.794,HW_LDT_1,2024.2.4,MacIntel,60.24096386,32.2195,36.4502,space,4.2051,,-0.038043002,-0.409922387,0,0,0,0,1,1,1,1,2,instructions,"If your device has a keyboard, press the 'Z' key for nonwords and the 'M' key for words.





Press the space bar or touch the button below to continue.",0,keyboard-example.gif,,,,,,,,,,,,,,,,,,,,,,,,,,,,,,,,,,,,,,,,,,,,,,,,,,,,,,,,,,,,,,,,,,,,,,,,,,,,,,,,,,,,,,,,,,,,,,,,,,,
,,,,32294,001,2025-12-02_10h53.13.794,HW_LDT_1,2024.2.4,MacIntel,60.24096386,36.4515,38.7503,space,2.2667,,-0.038043002,-0.409922387,0,0,0,0,2,2,2,1,3,instructions,"If you are using a touchscreen only device, use the buttons on the screen. Do not use the mouse.





Press the space bar or touch the button below to continue.",0,touchscreen-example.gif,,,,,,,,,,,,,,,,,,,,,,,,,,,,,,,,,,,,,,,,,,,,,,,,,,,,,,,,,,,,,,,,,,,,,,,,,,,,,,,,,,,,,,,,,,,,,,,,,,,
,,,,32294,001,2025-12-02_10h53.13.794,HW_LDT_1,2024.2.4,MacIntel,60.24096386,38.7526,42.8169,space,4.0348,,-0.038043002,-0.409922387,0,0,0,0,3,3,3,1,4,instructions,"It is very important that you respond as quickly and accurately as possible, as each letter string will only be on the screen for two seconds. If you do not respond within this time, the message 'Too slow!' will be displayed and the experiment will progress to the next letter string. The first 20 trials will be practice trials and you will receive feedback on your answers. 

Press the space bar or touch the button below to start the practice trials.",0,,,,,,,,,,,,,,,,,,,,,,,,,,,,,,,,,,,,,,,,,,,,,,,,,,,,,,,,,,,,,,,,,,,,,,,,,,,,,,,,,,,,,,,,,,,,,,,,,,,,
,,,,32294,001,2025-12-02_10h53.13.794,HW_LDT_1,2024.2.4,MacIntel,60.24096386,,,,,,,,,,,,,,,,,,,,,42.8412,43.0167,43.017,43.5161,43.5163,46.0004,m,1,2.4568,,[],[],[],[],[],[],[],2.4568,1,46.0009,46.5003,0,0,0,3,1,1004,WORD,"ID",16,matrix,MATRIX,m,,,,,,,,,,,,,,,,,,,,,,,,,,,,,,,,,,,,,,,,,,,,,,,,,,,,,,,,,,,,,,,,,,
,,,,32294,001,2025-12-02_10h53.13.794,HW_LDT_1,2024.2.4,MacIntel,60.24096386,,,,,,,,,,,,,,,,,,,,,46.5017,46.6998,46.6999,47.1999,47.2008,47.8666,m,1,0.6425,,[],[],[],[],[],[],[],0.6425,1,47.8668,48.3667,0,1,1,5,1,1006,WORD,UN,33,frenzy,OBTAIN,m,,,,,,,,,,,,,,,,,,,,,,,,,,,,,,,,,,,,,,,,,,,,,,,,,,,,,,,,,,,,,,,,,,
,,,,32294,001,2025-12-02_10h53.13.794,HW_LDT_1,2024.2.4,MacIntel,60.24096386,,,,,,,,,,,,,,,,,,,,,48.3679,48.5663,48.5663,49.066,49.0669,50.2666,z,1,1.1796,,[],[],[],[],[],[],[],1.1796,1,50.2667,50.7665,0,2,2,9,1,1010,NW,"ID",33,fariny,FARINY,z,,,,,,,,,,,,,,,,,,,,,,,,,,,,,,,,,,,,,,,,,,,,,,,,,,,,,,,,,,,,,,,,,,
,,,,32294,001,2025-12-02_10h53.13.794,HW_LDT_1,2024.2.4,MacIntel,60.24096386,,,,,,,,,,,,,,,,,,,,,50.7679,50.9664,50.9666,51.4665,51.4675,52.2999,m,0,0.8078,,[],[],[],[],[],[],[],0.8078,0,52.3009,52.7999,0,3,3,14,1,1015,NW,UN,16,miaber,THRALE,z,,,,,,,,,,,,,,,,,,,,,,,,,,,,,,,,,,,,,,,,,,,,,,,,,,,,,,,,,,,,,,,,,,
,,,,32294,001,2025-12-02_10h53.13.794,HW_LDT_1,2024.2.4,MacIntel,60.24096386,,,,,,,,,,,,,,,,,,,,,52.8012,52.9989,52.999,53.4997,53.5007,54.4156,z,1,0.8954,,[],[],[],[],[],[],[],0.8954,1,54.4164,54.9167,0,4,4,13,1,1014,NW,UN,33,winfer,ROUPET,z,,,,,,,,,,,,,,,,,,,,,,,,,,,,,,,,,,,,,,,,,,,,,,,,,,,,,,,,,,,,,,,,,,
,,,,32294,001,2025-12-02_10h53.13.794,HW_LDT_1,2024.2.4,MacIntel,60.24096386,,,,,,,,,,,,,,,,,,,,,54.9178,55.1155,55.1156,55.6164,55.6174,56.3999,m,1,0.7632,,[],[],[],[],[],[],[],0.7632,1,56.4001,56.8998,0,5,5,1,1,1002,WORD,"ID",33,adjust,ADJUST,m,,,,,,,,,,,,,,,,,,,,,,,,,,,,,,,,,,,,,,,,,,,,,,,,,,,,,,,,,,,,,,,,,,
,,,,32294,001,2025-12-02_10h53.13.794,HW_LDT_1,2024.2.4,MacIntel,60.24096386,,,,,,,,,,,,,,,,,,,,,56.9011,57.0991,57.0993,57.5998,57.6005,58.8159,m,0,1.2058,,[],[],[],[],[],[],[],1.2058,0,58.8166,59.3166,0,6,6,10,1,1011,NW,"ID",16,inlade,INLADE,z,,,,,,,,,,,,,,,,,,,,,,,,,,,,,,,,,,,,,,,,,,,,,,,,,,,,,,,,,,,,,,,,,,
,,,,32294,001,2025-12-02_10h53.13.794,HW_LDT_1,2024.2.4,MacIntel,60.24096386,,,,,,,,,,,,,,,,,,,,,59.3178,59.5156,59.5157,60.0165,60.0172,60.8658,z,1,0.8402,,[],[],[],[],[],[],[],0.8402,1,60.8666,61.3664,0,7,7,8,1,1009,NW,"ID",33,aslert,ASLERT,z,,,,,,,,,,,,,,,,,,,,,,,,,,,,,,,,,,,,,,,,,,,,,,,,,,,,,,,,,,,,,,,,,,
,,,,32294,001,2025-12-02_10h53.13.794,HW_LDT_1,2024.2.4,MacIntel,60.24096386,,,,,,,,,,,,,,,,,,,,,61.3679,61.5664,61.5664,62.0664,62.0672,62.7665,z,1,0.6799,,[],[],[],[],[],[],[],0.6799,1,62.7666,63.2665,0,8,8,12,1,1013,NW,UN,33,adveil,SPRINY,z,,,,,,,,,,,,,,,,,,,,,,,,,,,,,,,,,,,,,,,,,,,,,,,,,,,,,,,,,,,,,,,,,,
,,,,32294,001,2025-12-02_10h53.13.794,HW_LDT_1,2024.2.4,MacIntel,60.24096386,,,,,,,,,,,,,,,,,,,,,63.2678,63.4664,63.4664,63.9664,63.9673,64.8824,m,1,0.8965,,[],[],[],[],[],[],[],0.8965,1,64.8825,65.3823,0,9,9,4,1,1005,WORD,UN,33,abound,SQUEAK,m,,,,,,,,,,,,,,,,,,,,,,,,,,,,,,,,,,,,,,,,,,,,,,,,,,,,,,,,,,,,,,,,,,
,,,,32294,001,2025-12-02_10h53.13.794,HW_LDT_1,2024.2.4,MacIntel,60.24096386,,,,,,,,,,,,,,,,,,,,,65.3835,65.5821,65.5821,66.083,66.0839,66.7498,m,1,0.6454,,[],[],[],[],[],[],[],0.6454,1,66.75,67.2498,0,10,10,7,1,1008,WORD,UN,16,hurdle,VOLUME,m,,,,,,,,,,,,,,,,,,,,,,,,,,,,,,,,,,,,,,,,,,,,,,,,,,,,,,,,,,,,,,,,,,
,,,,32294,001,2025-12-02_10h53.13.794,HW_LDT_1,2024.2.4,MacIntel,60.24096386,,,,,,,,,,,,,,,,,,,,,67.2511,67.4498,67.4498,67.9497,67.9505,68.5997,z,0,0.6326,,[],[],[],[],[],[],[],0.6326,0,68.6004,69.0989,0,11,11,0,1,1001,WORD,"ID",33,utopia,UTOPIA,m,,,,,,,,,,,,,,,,,,,,,,,,,,,,,,,,,,,,,,,,,,,,,,,,,,,,,,,,,,,,,,,,,,
,,,,32294,001,2025-12-02_10h53.13.794,HW_LDT_1,2024.2.4,MacIntel,60.24096386,,,,,,,,,,,,,,,,,,,,,69.1002,69.2997,69.2998,69.7988,69.7996,70.5331,z,0,0.716,,[],[],[],[],[],[],[],0.716,0,70.5332,71.0322,0,12,12,6,1,1007,WORD,UN,16,tropic,ZOMBIE,m,,,,,,,,,,,,,,,,,,,,,,,,,,,,,,,,,,,,,,,,,,,,,,,,,,,,,,,,,,,,,,,,,,
,,,,32294,001,2025-12-02_10h53.13.794,HW_LDT_1,2024.2.4,MacIntel,60.24096386,,,,,,,,,,,,,,,,,,,,,71.0334,71.2331,71.2331,71.733,71.7338,72.9655,z,1,1.2074,,[],[],[],[],[],[],[],1.2074,1,72.9663,73.4663,0,13,13,11,1,1012,NW,"ID",16,rashet,RASHET,z,,,,,,,,,,,,,,,,,,,,,,,,,,,,,,,,,,,,,,,,,,,,,,,,,,,,,,,,,,,,,,,,,,
,,,,32294,001,2025-12-02_10h53.13.794,HW_LDT_1,2024.2.4,MacIntel,60.24096386,,,,,,,,,,,,,,,,,,,,,73.4676,73.6664,73.6664,74.1664,74.1673,74.7997,m,1,0.6128,,[],[],[],[],[],[],[],0.6128,1,74.7998,75.2997,0,14,14,2,1,1003,WORD,"ID",16,almond,ALMOND,m,,,,,,,,,,,,,,,,,,,,,,,,,,,,,,,,,,,,,,,,,,,,,,,,,,,,,,,,,,,,,,,,,,
,,,,32294,001,2025-12-02_10h53.13.794,HW_LDT_1,2024.2.4,MacIntel,60.24096386,,,,,,,,,,,,,,,,,,,,,75.3008,75.4996,75.4996,75.9997,76.0004,76.8164,z,1,0.7963,,[],[],[],[],[],[],[],0.7963,1,76.8165,77.3164,0,15,15,15,1,1016,NW,UN,16,mushed,WHAISE,z,,,,,,,,,,,,,,,,,,,,,,,,,,,,,,,,,,,,,,,,,,,,,,,,,,,,,,,,,,,,,,,,,,
,,,,32294,001,2025-12-02_10h53.13.794,HW_LDT_1,2024.2.4,MacIntel,60.24096386,,,,,,,,,,,,,,,,1,end_of_practice,"You have completed the practice trials. During the experimental trials, you will not receive feedback. On some trials you will be asked to report whether the item you just saw was in cursive or print. 
Before you begin, please ensure that you are in a comfortable and quiet location and will not be disturbed for about 15 minutes, as we cannot use your data if you do not complete all the trials. 
 When you are ready to start the experimental trials, please press space or touch the button below.",,,,,,,,,,,,,,,,,,,,,,,,,,,,,,,,,,,,77.3221,78.9994,space,1.6474,,-0.038043002,-0.409922387,0,0,0,0,0,0,0,1,,,,,,,,,,,,,,,,,,,,,,,,,,,,,,,,,,,,,,,,,,,,,,,,,,,
,,,,32294,001,2025-12-02_10h53.13.794,HW_LDT_1,2024.2.4,MacIntel,60.24096386,,,,,,,,,,,,,,,,,,,,,79.0119,79.1997,79.1997,79.699,,,,,,,,,,,,,,1.7895,1,,,,,,,,,,,,,,z,,,,,,,,,,,,,,,,1,1,79.7004,81.5001,z,1,1.7895,,[],[],[],[],[],[],[],81.5003,83.5,83.5002,87.0502,[],[],[],[],[],[],[],m,3.5355,,87.0505,87.0533,-0.038043002,-0.409922387,0,0,0,,0,0,0,73,1,2,TL,redisent,print,redisent_p.png,,,,
,,,,32294,001,2025-12-02_10h53.13.794,HW_LDT_1,2024.2.4,MacIntel,60.24096386,,,,,,,,,,,,,,,,,,,,,87.054,87.2488,87.2488,87.7488,,,,,,,,,,,,,,1.3415,1,,,,,,,,,,,,,,z,,,,,,,,,,,,,,,,2,0,87.7494,89.0997,z,1,1.3415,,[],[],[],[],[],[],[],89.0998,91.0997,91.0997,91.1,[],[],[],[],[],[],[],,,,91.1,91.1001,-0.038043002,-0.409922387,0,0,0,,0,1,1,48,1,2,TL,detabe,print,detabe_p.png,,,,
,,,,32294,001,2025-12-02_10h53.13.794,HW_LDT_1,2024.2.4,MacIntel,60.24096386,,,,,,,,,,,,,,,,,,,,,91.1012,91.2987,91.2987,91.7987,,,,,,,,,,,,,,4.3055,0,,,,,,,,,,,,,,z,,,,,,,,,,,,,,,,3,0,91.7992,96.1155,m,0,4.3055,,[],[],[],[],[],[],[],96.1155,98.1163,98.1163,98.1164,[],[],[],[],[],[],[],,,,98.1165,98.1167,-0.038043002,-0.409922387,0,0,0,,0,2,2,61,1,2,TL,nuremical,cursive,nuremical_c.png,,,,
,,,,32294,001,2025-12-02_10h53.13.794,HW_LDT_1,2024.2.4,MacIntel,60.24096386,,,,,,,,,,,,,,,,,,,,,98.1177,98.3161,98.3162,98.8161,,,,,,,,,,,,,,2.6574,1,,,,,,,,,,,,,,z,,,,,,,,,,,,,,,,4,1,98.8167,101.483,z,1,2.6574,,[],[],[],[],[],[],[],101.483,103.4828,103.4829,104.8996,[],[],[],[],[],[],[],z,1.4058,,104.8997,104.8999,-0.038043002,-0.409922387,0,0,0,,0,3,3,20,1,2,RL,onegator,cursive,onegator_c.png,,,,
,,,,32294,001,2025-12-02_10h53.13.794,HW_LDT_1,2024.2.4,MacIntel,60.24096386,,,,,,,,,,,,,,,,,,,,,104.9011,105.0995,105.0996,105.5987,,,,,,,,,,,,,,2.0222,1,,,,,,,,,,,,,,z,,,,,,,,,,,,,,,,5,1,105.5992,107.6329,z,1,2.0222,,[],[],[],[],[],[],[],107.633,109.6328,109.6329,110.5986,[],[],[],[],[],[],[],m,0.9553,,110.5987,110.5988,-0.038043002,-0.409922387,0,0,0,,0,4,4,39,1,2,TL,aminal,print,aminal_p.png,,,,
,,,,32294,001,2025-12-02_10h53.13.794,HW_LDT_1,2024.2.4,MacIntel,60.24096386,,,,,,,,,,,,,,,,,,,,,110.5998,110.7995,110.7995,111.2994,,,,,,,,,,,,,,1.6063,1,,,,,,,,,,,,,,m,,,,,,,,,,,,,,,,6,0,111.3001,112.9158,m,1,1.6063,,[],[],[],[],[],[],[],112.9159,114.9161,114.9162,114.9164,[],[],[],[],[],[],[],,,,114.9165,114.9167,-0.038043002,-0.409922387,0,0,0,,0,5,5,148,1,2,word,SALINE,cursive,saline_c.png,,,,
,,,,32294,001,2025-12-02_10h53.13.794,HW_LDT_1,2024.2.4,MacIntel,60.24096386,,,,,,,,,,,,,,,,,,,,,114.9177,115.1153,115.1153,115.616,,,,,,,,,,,,,,1.7749,1,,,,,,,,,,,,,,z,,,,,,,,,,,,,,,,7,0,115.6166,117.3995,z,1,1.7749,,[],[],[],[],[],[],[],117.3996,119.3994,119.3995,119.3998,[],[],[],[],[],[],[],,,,119.3998,119.3999,-0.038043002,-0.409922387,0,0,0,,0,6,6,0,1,2,RL,adnicory,print,adnicory_p.png,,,,
,,,,32294,001,2025-12-02_10h53.13.794,HW_LDT_1,2024.2.4,MacIntel,60.24096386,,,,,,,,,,,,,,,,,,,,,119.4009,119.5994,119.5994,120.0991,,,,,,,,,,,,,,5.1385,1,,,,,,,,,,,,,,z,,,,,,,,,,,,,,,,8,0,120.0996,125.2494,z,1,5.1385,,[],[],[],[],[],[],[],125.2496,127.2485,127.2486,127.2488,[],[],[],[],[],[],[],,,,127.2489,127.249,-0.038043002,-0.409922387,0,0,0,,0,7,7,19,1,2,RL,monebate,cursive,monebate_c.png,,,,
,,,,32294,001,2025-12-02_10h53.13.794,HW_LDT_1,2024.2.4,MacIntel,60.24096386,,,,,,,,,,,,,,,,,,,,,127.25,127.4486,127.4486,127.9493,,,,,,,,,,,,,,1.6208,1,,,,,,,,,,,,,,m,,,,,,,,,,,,,,,,9,0,127.9499,129.5829,m,1,1.6208,,[],[],[],[],[],[],[],129.5829,131.5827,131.5828,131.583,[],[],[],[],[],[],[],,,,131.583,131.5831,-0.038043002,-0.409922387,0,0,0,,0,8,8,137,1,2,word,RAPIDLY,print,rapidly_p.png,,,,
,,,,32294,001,2025-12-02_10h53.13.794,HW_LDT_1,2024.2.4,MacIntel,60.24096386,,,,,,,,,,,,,,,,,,,,,131.5841,131.7828,131.7828,132.2828,,,,,,,,,,,,,,6.2879,1,,,,,,,,,,,,,,m,,,,,,,,,,,,,,,,10,0,132.2833,138.5827,m,1,6.2879,,[],[],[],[],[],[],[],138.5829,140.5826,140.5827,140.5829,[],[],[],[],[],[],[],,,,140.5829,140.5831,-0.038043002,-0.409922387,0,0,0,,0,9,9,106,1,2,word,ELABORATE,cursive,elaborate_c.png,,,,
,,,,32294,001,2025-12-02_10h53.13.794,HW_LDT_1,2024.2.4,MacIntel,60.24096386,,,,,,,,,,,,,,,,,,,,,140.5841,140.7827,140.7828,141.2826,,,,,,,,,,,,,,3.5382,0,,,,,,,,,,,,,,z,,,,,,,,,,,,,,,,11,0,141.2831,144.8327,m,0,3.5382,,[],[],[],[],[],[],[],144.8329,146.8326,146.8327,146.8328,[],[],[],[],[],[],[],,,,146.8329,146.833,-0.038043002,-0.409922387,0,0,0,,0,10,10,45,1,2,TL,carnidal,cursive,carnidal_c.png,,,,
,,,,32294,001,2025-12-02_10h53.13.794,HW_LDT_1,2024.2.4,MacIntel,60.24096386,,,,,,,,,,,,,,,,,,,,,146.8342,147.0325,147.0327,147.5326,,,,,,,,,,,,,,2.0463,0,,,,,,,,,,,,,,z,,,,,,,,,,,,,,,,12,0,147.5331,149.5825,m,0,2.0463,,[],[],[],[],[],[],[],149.5826,151.5825,151.5827,151.5828,[],[],[],[],[],[],[],,,,151.5829,151.583,-0.038043002,-0.409922387,0,0,0,,0,11,11,47,1,2,TL,crinimal,cursive,crinimal_c.png,,,,
,,,,32294,001,2025-12-02_10h53.13.794,HW_LDT_1,2024.2.4,MacIntel,60.24096386,,,,,,,,,,,,,,,,,,,,,151.584,151.7826,151.7826,152.2826,,,,,,,,,,,,,,1.4404,1,,,,,,,,,,,,,,m,,,,,,,,,,,,,,,,13,0,152.2831,153.7326,m,1,1.4404,,[],[],[],[],[],[],[],153.7327,155.7326,155.7326,155.7327,[],[],[],[],[],[],[],,,,155.7328,155.733,-0.038043002,-0.409922387,0,0,0,,0,12,12,109,1,2,word,GRATEFUL,cursive,grateful_c.png,,,,
,,,,32294,001,2025-12-02_10h53.13.794,HW_LDT_1,2024.2.4,MacIntel,60.24096386,,,,,,,,,,,,,,,,,,,,,155.7341,155.9328,155.9328,156.4325,,,,,,,,,,,,,,2.3217,0,,,,,,,,,,,,,,z,,,,,,,,,,,,,,,,14,0,156.4331,158.7654,m,0,2.3217,,[],[],[],[],[],[],[],158.7655,160.7659,160.7659,160.7661,[],[],[],[],[],[],[],,,,160.7662,160.7662,-0.038043002,-0.409922387,0,0,0,,0,13,13,57,1,2,TL,meromy,cursive,meromy_c.png,,,,
,,,,32294,001,2025-12-02_10h53.13.794,HW_LDT_1,2024.2.4,MacIntel,60.24096386,,,,,,,,,,,,,,,,,,,,,160.7671,160.9658,160.9659,161.466,,,,,,,,,,,,,,2.038,1,,,,,,,,,,,,,,m,,,,,,,,,,,,,,,,15,0,161.4664,163.5159,m,1,2.038,,[],[],[],[],[],[],[],163.516,165.5158,165.5159,165.5161,[],[],[],[],[],[],[],,,,165.5161,165.5163,-0.038043002,-0.409922387,0,0,0,,0,14,14,159,1,2,word,VETERAN,print,veteran_p.png,,,,
,,,,32294,001,2025-12-02_10h53.13.794,HW_LDT_1,2024.2.4,MacIntel,60.24096386,,,,,,,,,,,,,,,,,,,,,165.5172,165.7159,165.7159,166.2158,,,,,,,,,,,,,,0.972,1,,,,,,,,,,,,,,m,,,,,,,,,,,,,,,,16,0,166.2163,167.1992,m,1,0.972,,[],[],[],[],[],[],[],167.1993,169.1992,169.1992,169.1994,[],[],[],[],[],[],[],,,,169.1994,169.1995,-0.038043002,-0.409922387,0,0,0,,0,15,15,153,1,2,word,STOLEN,print,stolen_p.png,,,,
,,,,32294,001,2025-12-02_10h53.13.794,HW_LDT_1,2024.2.4,MacIntel,60.24096386,,,,,,,,,,,,,,,,,,,,,169.2006,169.399,169.3991,169.8991,,,,,,,,,,,,,,0.7709,1,,,,,,,,,,,,,,m,,,,,,,,,,,,,,,,17,0,169.8996,170.6826,m,1,0.7709,,[],[],[],[],[],[],[],170.6826,172.6824,172.6825,172.6827,[],[],[],[],[],[],[],,,,172.6827,172.6829,-0.038043002,-0.409922387,0,0,0,,0,16,16,101,1,2,word,DELICATE,print,delicate_p.png,,,,
,,,,32294,001,2025-12-02_10h53.13.794,HW_LDT_1,2024.2.4,MacIntel,60.24096386,,,,,,,,,,,,,,,,,,,,,172.6839,172.8824,172.8825,173.3824,,,,,,,,,,,,,,1.155,0,,,,,,,,,,,,,,m,,,,,,,,,,,,,,,,18,0,173.3829,174.5492,z,0,1.155,,[],[],[],[],[],[],[],174.5492,176.5491,176.5492,176.5494,[],[],[],[],[],[],[],,,,176.5494,176.5495,-0.038043002,-0.409922387,0,0,0,,0,17,17,105,1,2,word,EDITOR,cursive,editor_c.png,,,,
,,,,32294,001,2025-12-02_10h53.13.794,HW_LDT_1,2024.2.4,MacIntel,60.24096386,,,,,,,,,,,,,,,,,,,,,176.5507,176.749,176.7491,177.249,,,,,,,,,,,,,,1.0471,1,,,,,,,,,,,,,,m,,,,,,,,,,,,,,,,19,0,177.2496,178.299,m,1,1.0471,,[],[],[],[],[],[],[],178.2991,180.299,180.2991,180.2993,[],[],[],[],[],[],[],,,,180.2993,180.2995,-0.038043002,-0.409922387,0,0,0,,0,18,18,80,1,2,word,ACADEMY,cursive,academy_c.png,,,,
,,,,32294,001,2025-12-02_10h53.13.794,HW_LDT_1,2024.2.4,MacIntel,60.24096386,,,,,,,,,,,,,,,,,,,,,180.3006,180.4991,180.4991,180.9991,,,,,,,,,,,,,,5.8378,0,,,,,,,,,,,,,,m,,,,,,,,,,,,,,,,20,0,180.9995,186.8491,z,0,5.8378,,[],[],[],[],[],[],[],186.8491,188.8491,188.8491,188.8492,[],[],[],[],[],[],[],,,,188.8493,188.8494,-0.038043002,-0.409922387,0,0,0,,0,19,19,117,1,2,word,MARINE,cursive,marine_c.png,,,,
,,,,32294,001,2025-12-02_10h53.13.794,HW_LDT_1,2024.2.4,MacIntel,60.24096386,,,,,,,,,,,,,,,,,,,,,188.8505,189.049,189.049,189.5491,,,,,,,,,,,,,,1.0716,1,,,,,,,,,,,,,,m,,,,,,,,,,,,,,,,21,0,189.5495,190.6325,m,1,1.0716,,[],[],[],[],[],[],[],190.6325,192.6323,192.6324,192.6326,[],[],[],[],[],[],[],,,,192.6326,192.6327,-0.038043002,-0.409922387,0,0,0,,0,20,20,129,1,2,word,PARENT,print,parent_p.png,,,,
,,,,32294,001,2025-12-02_10h53.13.794,HW_LDT_1,2024.2.4,MacIntel,60.24096386,,,,,,,,,,,,,,,,,,,,,192.6338,192.8323,192.8324,193.3323,,,,,,,,,,,,,,1.7818,1,,,,,,,,,,,,,,z,,,,,,,,,,,,,,,,22,0,193.3328,195.1156,z,1,1.7818,,[],[],[],[],[],[],[],195.1158,197.1156,197.1157,197.1159,[],[],[],[],[],[],[],,,,197.1159,197.116,-0.038043002,-0.409922387,0,0,0,,0,21,21,67,1,2,TL,quafily,cursive,quafily_c.png,,,,
,,,,32294,001,2025-12-02_10h53.13.794,HW_LDT_1,2024.2.4,MacIntel,60.24096386,,,,,,,,,,,,,,,,,,,,,197.1171,197.3156,197.3156,197.8157,,,,,,,,,,,,,,1.0085,1,,,,,,,,,,,,,,z,,,,,,,,,,,,,,,,23,0,197.8161,198.8323,z,1,1.0085,,[],[],[],[],[],[],[],198.8324,200.8322,200.8323,200.8325,[],[],[],[],[],[],[],,,,200.8326,200.8326,-0.038043002,-0.409922387,0,0,0,,0,22,22,54,1,2,TL,liretal,cursive,liretal_c.png,,,,
,,,,32294,001,2025-12-02_10h53.13.794,HW_LDT_1,2024.2.4,MacIntel,60.24096386,,,,,,,,,,,,,,,,,,,,,200.8338,201.0323,201.0324,201.5323,,,,,,,,,,,,,,4.9821,1,,,,,,,,,,,,,,m,,,,,,,,,,,,,,,,24,0,201.5328,206.5155,m,1,4.9821,,[],[],[],[],[],[],[],206.5156,208.5156,208.5157,208.5159,[],[],[],[],[],[],[],,,,208.5159,208.5161,-0.038043002,-0.409922387,0,0,0,,0,23,23,128,1,2,word,PACIFIC,print,pacific_p.png,,,,
,,,,32294,001,2025-12-02_10h53.13.794,HW_LDT_1,2024.2.4,MacIntel,60.24096386,,,,,,,,,,,,,,,,,,,,,208.5171,208.7156,208.7156,209.2155,,,,,,,,,,,,,,1.0875,1,,,,,,,,,,,,,,m,,,,,,,,,,,,,,,,25,0,209.2161,210.3156,m,1,1.0875,,[],[],[],[],[],[],[],210.3158,212.3155,212.3156,212.3158,[],[],[],[],[],[],[],,,,212.3159,212.3159,-0.038043002,-0.409922387,0,0,0,,0,24,24,96,1,2,word,CONSIDER,print,consider_p.png,,,,
,,,,32294,001,2025-12-02_10h53.13.794,HW_LDT_1,2024.2.4,MacIntel,60.24096386,,,,,,,,,,,,,,,,,,,,,212.3169,212.5146,212.5146,213.0155,,,,,,,,,,,,,,1.0717,1,,,,,,,,,,,,,,m,,,,,,,,,,,,,,,,26,0,213.0161,214.099,m,1,1.0717,,[],[],[],[],[],[],[],214.099,216.0988,216.0989,216.0992,[],[],[],[],[],[],[],,,,216.0992,216.0993,-0.038043002,-0.409922387,0,0,0,,0,25,25,82,1,2,word,AMATEUR,cursive,amateur_c.png,,,,
,,,,32294,001,2025-12-02_10h53.13.794,HW_LDT_1,2024.2.4,MacIntel,60.24096386,,,,,,,,,,,,,,,,,,,,,216.1003,216.2988,216.2988,216.7987,,,,,,,,,,,,,,0.9724,1,,,,,,,,,,,,,,z,,,,,,,,,,,,,,,,27,0,216.7993,217.7823,z,1,0.9724,,[],[],[],[],[],[],[],217.7823,219.782,219.7821,219.7823,[],[],[],[],[],[],[],,,,219.7823,219.7824,-0.038043002,-0.409922387,0,0,0,,0,26,26,43,1,2,TL,carema,print,carema_p.png,,,,
,,,,32294,001,2025-12-02_10h53.13.794,HW_LDT_1,2024.2.4,MacIntel,60.24096386,,,,,,,,,,,,,,,,,,,,,219.7835,219.9821,219.9822,220.4813,,,,,,,,,,,,,,0.942,1,,,,,,,,,,,,,,z,,,,,,,,,,,,,,,,28,1,220.4817,221.4321,z,1,0.942,,[],[],[],[],[],[],[],221.4323,223.4322,223.4322,225.999,[],[],[],[],[],[],[],m,2.5546,,225.9991,225.9993,-0.038043002,-0.409922387,0,0,0,,0,27,27,55,1,2,TL,lotace,print,lotace_p.png,,,,
,,,,32294,001,2025-12-02_10h53.13.794,HW_LDT_1,2024.2.4,MacIntel,60.24096386,,,,,,,,,,,,,,,,,,,,,226.0003,226.1989,226.1989,226.6978,,,,,,,,,,,,,,1.2217,1,,,,,,,,,,,,,,m,,,,,,,,,,,,,,,,29,1,226.6983,227.9322,m,1,1.2217,,[],[],[],[],[],[],[],227.9323,229.9312,229.9313,231.465,[],[],[],[],[],[],[],m,1.5232,,231.4651,231.4652,-0.038043002,-0.409922387,0,0,0,,0,28,28,100,1,2,word,DECADE,print,decade_p.png,,,,
,,,,32294,001,2025-12-02_10h53.13.794,HW_LDT_1,2024.2.4,MacIntel,60.24096386,,,,,,,,,,,,,,,,,,,,,231.4663,231.6654,231.6654,232.1653,,,,,,,,,,,,,,3.5574,1,,,,,,,,,,,,,,m,,,,,,,,,,,,,,,,30,0,232.1659,235.7318,m,1,3.5574,,[],[],[],[],[],[],[],235.7319,237.7321,237.7321,237.7323,[],[],[],[],[],[],[],,,,237.7323,237.7325,-0.038043002,-0.409922387,0,0,0,,0,29,29,125,1,2,word,OPERATOR,cursive,operator_c.png,,,,
,,,,32294,001,2025-12-02_10h53.13.794,HW_LDT_1,2024.2.4,MacIntel,60.24096386,,,,,,,,,,,,,,,,,,,,,237.7336,237.932,237.9321,238.432,,,,,,,,,,,,,,1.7551,1,,,,,,,,,,,,,,m,,,,,,,,,,,,,,,,31,0,238.4325,240.1988,m,1,1.7551,,[],[],[],[],[],[],[],240.1989,242.1987,242.1987,242.1989,[],[],[],[],[],[],[],,,,242.1989,242.1991,-0.038043002,-0.409922387,0,0,0,,0,30,30,157,1,2,word,VALIDITY,print,validity_p.png,,,,
,,,,32294,001,2025-12-02_10h53.13.794,HW_LDT_1,2024.2.4,MacIntel,60.24096386,,,,,,,,,,,,,,,,,,,,,242.2002,242.3986,242.3987,242.8978,,,,,,,,,,,,,,1.6047,0,,,,,,,,,,,,,,m,,,,,,,,,,,,,,,,32,0,242.8982,244.5155,z,0,1.6047,,[],[],[],[],[],[],[],244.5155,246.5154,246.5154,246.5156,[],[],[],[],[],[],[],,,,246.5156,246.5158,-0.038043002,-0.409922387,0,0,0,,0,31,31,90,1,2,word,CAPITAL,cursive,capital_c.png,,,,
,,,,32294,001,2025-12-02_10h53.13.794,HW_LDT_1,2024.2.4,MacIntel,60.24096386,,,,,,,,,,,,,,,,,,,,,246.517,246.7153,246.7154,247.2153,,,,,,,,,,,,,,2.8731,1,,,,,,,,,,,,,,z,,,,,,,,,,,,,,,,33,0,247.2159,250.0988,z,1,2.8731,,[],[],[],[],[],[],[],250.0989,252.0987,252.0988,252.0989,[],[],[],[],[],[],[],,,,252.099,252.0991,-0.038043002,-0.409922387,0,0,0,,0,32,32,62,1,2,TL,opmital,cursive,opmital_c.png,,,,
,,,,32294,001,2025-12-02_10h53.13.794,HW_LDT_1,2024.2.4,MacIntel,60.24096386,,,,,,,,,,,,,,,,,,,,,252.1003,252.2987,252.2987,252.7986,,,,,,,,,,,,,,0.8713,1,,,,,,,,,,,,,,m,,,,,,,,,,,,,,,,34,0,252.7992,253.6821,m,1,0.8713,,[],[],[],[],[],[],[],253.6822,255.6819,255.682,255.6822,[],[],[],[],[],[],[],,,,255.6822,255.6823,-0.038043002,-0.409922387,0,0,0,,0,33,33,89,1,2,word,CAPACITY,print,capacity_p.png,,,,
,,,,32294,001,2025-12-02_10h53.13.794,HW_LDT_1,2024.2.4,MacIntel,60.24096386,,,,,,,,,,,,,,,,,,,,,255.6834,255.882,255.882,256.382,,,,,,,,,,,,,,4.1549,1,,,,,,,,,,,,,,z,,,,,,,,,,,,,,,,35,0,256.3825,260.5479,z,1,4.1549,,[],[],[],[],[],[],[],260.548,262.5478,262.5478,262.548,[],[],[],[],[],[],[],,,,262.5481,262.5481,-0.038043002,-0.409922387,0,0,0,,0,34,34,40,1,2,TL,bevoled,cursive,bevoled_c.png,,,,
,,,,32294,001,2025-12-02_10h53.13.794,HW_LDT_1,2024.2.4,MacIntel,60.24096386,,,,,,,,,,,,,,,,,,,,,262.5493,262.7477,262.7477,263.2486,,,,,,,,,,,,,,4.4733,1,,,,,,,,,,,,,,z,,,,,,,,,,,,,,,,36,1,263.249,267.731,z,1,4.4733,,[],[],[],[],[],[],[],267.7312,269.7312,269.7314,271.2487,[],[],[],[],[],[],[],z,1.5074,,271.2488,271.2489,-0.038043002,-0.409922387,0,0,0,,0,35,35,46,1,2,TL,codemy,cursive,codemy_c.png,,,,
,,,,32294,001,2025-12-02_10h53.13.794,HW_LDT_1,2024.2.4,MacIntel,60.24096386,,,,,,,,,,,,,,,,,,,,,271.2497,271.4485,271.4486,271.9476,,,,,,,,,,,,,,2.5078,0,,,,,,,,,,,,,,z,,,,,,,,,,,,,,,,37,0,271.948,274.4652,m,0,2.5078,,[],[],[],[],[],[],[],274.4654,276.4652,276.4652,276.4654,[],[],[],[],[],[],[],,,,276.4654,276.4655,-0.038043002,-0.409922387,0,0,0,,0,36,36,34,1,2,RL,trilude,cursive,trilude_c.png,,,,
,,,,32294,001,2025-12-02_10h53.13.794,HW_LDT_1,2024.2.4,MacIntel,60.24096386,,,,,,,,,,,,,,,,,,,,,276.4666,276.6652,276.6653,277.1651,,,,,,,,,,,,,,3.3041,1,,,,,,,,,,,,,,z,,,,,,,,,,,,,,,,38,0,277.1656,280.4821,z,1,3.3041,,[],[],[],[],[],[],[],280.4821,282.4818,282.4819,282.482,[],[],[],[],[],[],[],,,,282.482,282.4821,-0.038043002,-0.409922387,0,0,0,,0,37,37,71,1,2,TL,retome,cursive,retome_c.png,,,,
,,,,32294,001,2025-12-02_10h53.13.794,HW_LDT_1,2024.2.4,MacIntel,60.24096386,,,,,,,,,,,,,,,,,,,,,282.4832,282.6812,282.6812,283.1809,,,,,,,,,,,,,,3.4827,1,,,,,,,,,,,,,,m,,,,,,,,,,,,,,,,39,0,283.1814,286.6651,m,1,3.4827,,[],[],[],[],[],[],[],286.6651,288.6649,288.665,288.6653,[],[],[],[],[],[],[],,,,288.6653,288.6653,-0.038043002,-0.409922387,0,0,0,,0,38,38,98,1,2,word,CRIMINAL,cursive,criminal_c.png,,,,
,,,,32294,001,2025-12-02_10h53.13.794,HW_LDT_1,2024.2.4,MacIntel,60.24096386,,,,,,,,,,,,,,,,,,,,,288.6665,288.8646,288.8647,289.3642,,,,,,,,,,,,,,1.9731,1,,,,,,,,,,,,,,m,,,,,,,,,,,,,,,,40,0,289.3647,291.3483,m,1,1.9731,,[],[],[],[],[],[],[],291.3485,293.3484,293.3484,293.3487,[],[],[],[],[],[],[],,,,293.3487,293.3488,-0.038043002,-0.409922387,0,0,0,,0,39,39,116,1,2,word,MARGINAL,cursive,marginal_c.png,,,,
,,,,32294,001,2025-12-02_10h53.13.794,HW_LDT_1,2024.2.4,MacIntel,60.24096386,,,,,,,,,,,,,,,,,,,,,293.3498,293.5477,293.5477,294.0484,,,,,,,,,,,,,,1.7391,0,,,,,,,,,,,,,,z,,,,,,,,,,,,,,,,41,0,294.049,295.7985,m,0,1.7391,,[],[],[],[],[],[],[],295.7986,297.7983,297.7984,297.7985,[],[],[],[],[],[],[],,,,297.7986,297.7987,-0.038043002,-0.409922387,0,0,0,,0,40,40,69,1,2,TL,resufal,cursive,resufal_c.png,,,,
,,,,32294,001,2025-12-02_10h53.13.794,HW_LDT_1,2024.2.4,MacIntel,60.24096386,,,,,,,,,,,,,,,,,,,,,297.7997,297.9984,297.9985,298.4983,,,,,,,,,,,,,,0.6154,1,,,,,,,,,,,,,,m,,,,,,,,,,,,,,,,42,0,298.4988,299.115,m,1,0.6154,,[],[],[],[],[],[],[],299.115,301.1149,301.1151,301.1152,[],[],[],[],[],[],[],,,,301.1153,301.1153,-0.038043002,-0.409922387,0,0,0,,0,41,41,110,1,2,word,HERITAGE,print,heritage_p.png,,,,
,,,,32294,001,2025-12-02_10h53.13.794,HW_LDT_1,2024.2.4,MacIntel,60.24096386,,,,,,,,,,,,,,,,,,,,,301.1164,301.315,301.3151,301.815,,,,,,,,,,,,,,1.3481,1,,,,,,,,,,,,,,z,,,,,,,,,,,,,,,,43,1,301.8155,303.1647,z,1,1.3481,,[],[],[],[],[],[],[],303.1647,305.165,305.165,306.4651,[],[],[],[],[],[],[],z,1.2995,,306.4652,306.4653,-0.038043002,-0.409922387,0,0,0,,0,42,42,58,1,2,TL,mitilary,cursive,mitilary_c.png,,,,
,,,,32294,001,2025-12-02_10h53.13.794,HW_LDT_1,2024.2.4,MacIntel,60.24096386,,,,,,,,,,,,,,,,,,,,,306.4662,306.6648,306.665,307.165,,,,,,,,,,,,,,1.8714,1,,,,,,,,,,,,,,z,,,,,,,,,,,,,,,,44,0,307.1656,309.0484,z,1,1.8714,,[],[],[],[],[],[],[],309.0484,311.0474,311.0475,311.0476,[],[],[],[],[],[],[],,,,311.0477,311.0478,-0.038043002,-0.409922387,0,0,0,,0,43,43,44,1,2,TL,catipal,cursive,catipal_c.png,,,,
,,,,32294,001,2025-12-02_10h53.13.794,HW_LDT_1,2024.2.4,MacIntel,60.24096386,,,,,,,,,,,,,,,,,,,,,311.0489,311.2483,311.2483,311.7482,,,,,,,,,,,,,,4.7718,1,,,,,,,,,,,,,,m,,,,,,,,,,,,,,,,45,0,311.7488,316.5317,m,1,4.7718,,[],[],[],[],[],[],[],316.5317,318.5315,318.5316,318.5318,[],[],[],[],[],[],[],,,,318.5318,318.5319,-0.038043002,-0.409922387,0,0,0,,0,44,44,141,1,2,word,RELIGION,cursive,religion_c.png,,,,
,,,,32294,001,2025-12-02_10h53.13.794,HW_LDT_1,2024.2.4,MacIntel,60.24096386,,,,,,,,,,,,,,,,,,,,,318.533,318.7316,318.7317,319.2315,,,,,,,,,,,,,,3.4877,1,,,,,,,,,,,,,,z,,,,,,,,,,,,,,,,46,0,319.2321,322.7307,z,1,3.4877,,[],[],[],[],[],[],[],322.7307,324.7316,324.7316,324.7318,[],[],[],[],[],[],[],,,,324.7318,324.7319,-0.038043002,-0.409922387,0,0,0,,0,45,45,17,1,2,RL,macise,cursive,macise_c.png,,,,
,,,,32294,001,2025-12-02_10h53.13.794,HW_LDT_1,2024.2.4,MacIntel,60.24096386,,,,,,,,,,,,,,,,,,,,,324.7331,324.9315,324.9315,325.4315,,,,,,,,,,,,,,1.5217,1,,,,,,,,,,,,,,m,,,,,,,,,,,,,,,,47,0,325.432,326.965,m,1,1.5217,,[],[],[],[],[],[],[],326.965,328.9648,328.9648,328.965,[],[],[],[],[],[],[],,,,328.9651,328.9652,-0.038043002,-0.409922387,0,0,0,,0,46,46,112,1,2,word,LIBERAL,print,liberal_p.png,,,,
,,,,32294,001,2025-12-02_10h53.13.794,HW_LDT_1,2024.2.4,MacIntel,60.24096386,,,,,,,,,,,,,,,,,,,,,328.9663,329.1648,329.1649,329.664,,,,,,,,,,,,,,5.9997,1,,,,,,,,,,,,,,z,,,,,,,,,,,,,,,,48,1,329.6645,335.6651,z,1,5.9997,,[],[],[],[],[],[],[],335.6652,337.6648,337.665,338.7315,[],[],[],[],[],[],[],z,1.064,,338.7315,338.7317,-0.038043002,-0.409922387,0,0,0,,0,47,47,14,1,2,RL,insibate,cursive,insibate_c.png,,,,
,,,,32294,001,2025-12-02_10h53.13.794,HW_LDT_1,2024.2.4,MacIntel,60.24096386,,,,,,,,,,,,,,,,,,,,,338.7326,338.9308,338.9308,339.4306,,,,,,,,,,,,,,1.6218,1,,,,,,,,,,,,,,z,,,,,,,,,,,,,,,,49,0,339.4311,341.0644,z,1,1.6218,,[],[],[],[],[],[],[],341.0646,343.0648,343.0648,343.065,[],[],[],[],[],[],[],,,,343.0651,343.0651,-0.038043002,-0.409922387,0,0,0,,0,48,48,11,1,2,RL,formuke,print,formuke_p.png,,,,
,,,,32294,001,2025-12-02_10h53.13.794,HW_LDT_1,2024.2.4,MacIntel,60.24096386,,,,,,,,,,,,,,,,,,,,,343.0662,343.2647,343.2648,343.7648,,,,,,,,,,,,,,1.6313,1,,,,,,,,,,,,,,z,,,,,,,,,,,,,,,,50,0,343.7653,345.3974,z,1,1.6313,,[],[],[],[],[],[],[],345.3974,347.3972,347.3974,347.3975,[],[],[],[],[],[],[],,,,347.3975,347.3976,-0.038043002,-0.409922387,0,0,0,,0,49,49,70,1,2,TL,retalive,print,retalive_p.png,,,,
,,,,32294,001,2025-12-02_10h53.13.794,HW_LDT_1,2024.2.4,MacIntel,60.24096386,,,,,,,,,,,,,,,,,,,,,347.3986,347.5981,347.5981,348.098,,,,,,,,,,,,,,4.0923,1,,,,,,,,,,,,,,z,,,,,,,,,,,,,,,,51,0,348.0986,352.198,z,1,4.0923,,[],[],[],[],[],[],[],352.1981,354.198,354.1981,354.1982,[],[],[],[],[],[],[],,,,354.1983,354.1984,-0.038043002,-0.409922387,0,0,0,,0,50,50,76,1,2,TL,senmitent,cursive,senmitent_c.png,,,,
,,,,32294,001,2025-12-02_10h53.13.794,HW_LDT_1,2024.2.4,MacIntel,60.24096386,,,,,,,,,,,,,,,,,,,,,354.1994,354.3981,354.3981,354.898,,,,,,,,,,,,,,1.1904,1,,,,,,,,,,,,,,m,,,,,,,,,,,,,,,,52,0,354.8986,356.0981,m,1,1.1904,,[],[],[],[],[],[],[],356.0982,358.098,358.0981,358.0982,[],[],[],[],[],[],[],,,,358.0982,358.0984,-0.038043002,-0.409922387,0,0,0,,0,51,51,115,1,2,word,LOGICAL,print,logical_p.png,,,,
,,,,32294,001,2025-12-02_10h53.13.794,HW_LDT_1,2024.2.4,MacIntel,60.24096386,,,,,,,,,,,,,,,,,,,,,358.0994,358.2975,358.2976,358.798,,,,,,,,,,,,,,0.8719,1,,,,,,,,,,,,,,m,,,,,,,,,,,,,,,,53,0,358.7985,359.6814,m,1,0.8719,,[],[],[],[],[],[],[],359.6816,361.6813,361.6813,361.6815,[],[],[],[],[],[],[],,,,361.6816,361.6817,-0.038043002,-0.409922387,0,0,0,,0,52,52,88,1,2,word,CAMERA,print,camera_p.png,,,,
,,,,32294,001,2025-12-02_10h53.13.794,HW_LDT_1,2024.2.4,MacIntel,60.24096386,,,,,,,,,,,,,,,,,,,,,361.6827,361.8813,361.8813,362.3813,,,,,,,,,,,,,,1.9217,0,,,,,,,,,,,,,,m,,,,,,,,,,,,,,,,54,0,362.3818,364.3147,z,0,1.9217,,[],[],[],[],[],[],[],364.3147,366.3146,366.3146,366.3148,[],[],[],[],[],[],[],,,,366.3148,366.3149,-0.038043002,-0.409922387,0,0,0,,0,53,53,146,1,2,word,RETIRE,cursive,retire_c.png,,,,
,,,,32294,001,2025-12-02_10h53.13.794,HW_LDT_1,2024.2.4,MacIntel,60.24096386,,,,,,,,,,,,,,,,,,,,,366.3159,366.5138,366.5139,367.0146,,,,,,,,,,,,,,0.9887,1,,,,,,,,,,,,,,z,,,,,,,,,,,,,,,,55,0,367.0151,368.0147,z,1,0.9887,,[],[],[],[],[],[],[],368.0148,370.0146,370.0146,370.0149,[],[],[],[],[],[],[],,,,370.0149,370.015,-0.038043002,-0.409922387,0,0,0,,0,54,54,30,1,2,RL,selamor,print,selamor_p.png,,,,
,,,,32294,001,2025-12-02_10h53.13.794,HW_LDT_1,2024.2.4,MacIntel,60.24096386,,,,,,,,,,,,,,,,,,,,,370.0161,370.2138,370.2139,370.7146,,,,,,,,,,,,,,0.4551,1,,,,,,,,,,,,,,m,,,,,,,,,,,,,,,,56,0,370.7151,371.1814,m,1,0.4551,,[],[],[],[],[],[],[],371.1814,373.1814,373.1814,373.1815,[],[],[],[],[],[],[],,,,373.1816,373.1817,-0.038043002,-0.409922387,0,0,0,,0,55,55,83,1,2,word,ANIMAL,print,animal_p.png,,,,
,,,,32294,001,2025-12-02_10h53.13.794,HW_LDT_1,2024.2.4,MacIntel,60.24096386,,,,,,,,,,,,,,,,,,,,,373.1827,373.3813,373.3814,373.8813,,,,,,,,,,,,,,0.8547,1,,,,,,,,,,,,,,z,,,,,,,,,,,,,,,,57,1,373.8818,374.748,z,1,0.8547,,[],[],[],[],[],[],[],374.7481,376.748,376.748,378.1638,[],[],[],[],[],[],[],m,1.4058,,378.164,378.1641,-0.038043002,-0.409922387,0,0,0,,0,56,56,18,1,2,RL,mesibine,print,mesibine_p.png,,,,
,,,,32294,001,2025-12-02_10h53.13.794,HW_LDT_1,2024.2.4,MacIntel,60.24096386,,,,,,,,,,,,,,,,,,,,,378.1651,378.3646,378.3646,378.8646,,,,,,,,,,,,,,0.9385,1,,,,,,,,,,,,,,m,,,,,,,,,,,,,,,,58,1,378.865,379.8147,m,1,0.9385,,[],[],[],[],[],[],[],379.8147,381.8146,381.8146,382.9478,[],[],[],[],[],[],[],m,1.1312,,382.9479,382.9481,-0.038043002,-0.409922387,0,0,0,,0,57,57,127,1,2,word,ORIGINAL,print,original_p.png,,,,
,,,,32294,001,2025-12-02_10h53.13.794,HW_LDT_1,2024.2.4,MacIntel,60.24096386,,,,,,,,,,,,,,,,,,,,,382.9489,383.1479,383.148,383.6477,,,,,,,,,,,,,,0.8053,1,,,,,,,,,,,,,,m,,,,,,,,,,,,,,,,59,0,383.6482,384.4647,m,1,0.8053,,[],[],[],[],[],[],[],384.4647,386.4637,386.4637,386.4639,[],[],[],[],[],[],[],,,,386.4639,386.4641,-0.038043002,-0.409922387,0,0,0,,0,58,58,152,1,2,word,SPECIMEN,print,specimen_p.png,,,,
,,,,32294,001,2025-12-02_10h53.13.794,HW_LDT_1,2024.2.4,MacIntel,60.24096386,,,,,,,,,,,,,,,,,,,,,386.465,386.6645,386.6646,387.1645,,,,,,,,,,,,,,0.9383,1,,,,,,,,,,,,,,z,,,,,,,,,,,,,,,,60,1,387.165,388.1146,z,1,0.9383,,[],[],[],[],[],[],[],388.1147,390.1146,390.1146,391.1803,[],[],[],[],[],[],[],m,1.059,,391.1804,391.1805,-0.038043002,-0.409922387,0,0,0,,0,59,59,13,1,2,RL,helicage,print,helicage_p.png,,,,
,,,,32294,001,2025-12-02_10h53.13.794,HW_LDT_1,2024.2.4,MacIntel,60.24096386,,,,,,,,,,,,,,,,,,,,,391.1814,391.3811,391.3812,391.8812,,,,,,,,,,,,,,0.7208,1,,,,,,,,,,,,,,m,,,,,,,,,,,,,,,,61,0,391.8817,392.6146,m,1,0.7208,,[],[],[],[],[],[],[],392.6147,394.6145,394.6145,394.6147,[],[],[],[],[],[],[],,,,394.6148,394.6148,-0.038043002,-0.409922387,0,0,0,,0,60,60,144,1,2,word,RESIDENT,print,resident_p.png,,,,
,,,,32294,001,2025-12-02_10h53.13.794,HW_LDT_1,2024.2.4,MacIntel,60.24096386,,,,,,,,,,,,,,,,,,,,,394.6159,394.8144,394.8145,395.3138,,,,,,,,,,,,,,1.2224,1,,,,,,,,,,,,,,z,,,,,,,,,,,,,,,,62,0,395.3143,396.5478,z,1,1.2224,,[],[],[],[],[],[],[],396.5479,398.5477,398.5478,398.5479,[],[],[],[],[],[],[],,,,398.548,398.5481,-0.038043002,-0.409922387,0,0,0,,0,61,61,1,1,2,RL,caleberia,print,caleberia_p.png,,,,
,,,,32294,001,2025-12-02_10h53.13.794,HW_LDT_1,2024.2.4,MacIntel,60.24096386,,,,,,,,,,,,,,,,,,,,,398.5492,398.7478,398.7478,399.2477,,,,,,,,,,,,,,1.0068,1,,,,,,,,,,,,,,z,,,,,,,,,,,,,,,,63,1,399.2482,400.2645,z,1,1.0068,,[],[],[],[],[],[],[],400.2645,402.2645,402.2645,403.7977,[],[],[],[],[],[],[],m,1.5325,,403.7978,403.7979,-0.038043002,-0.409922387,0,0,0,,0,62,62,72,1,2,TL,revomal,print,revomal_p.png,,,,
,,,,32294,001,2025-12-02_10h53.13.794,HW_LDT_1,2024.2.4,MacIntel,60.24096386,,,,,,,,,,,,,,,,,,,,,403.7988,403.9977,403.9978,404.4977,,,,,,,,,,,,,,1.3055,1,,,,,,,,,,,,,,m,,,,,,,,,,,,,,,,64,0,404.4982,405.8146,m,1,1.3055,,[],[],[],[],[],[],[],405.8146,407.8144,407.8144,407.8147,[],[],[],[],[],[],[],,,,407.8147,407.8148,-0.038043002,-0.409922387,0,0,0,,0,63,63,107,1,2,word,EVIDENT,cursive,evident_c.png,,,,
,,,,32294,001,2025-12-02_10h53.13.794,HW_LDT_1,2024.2.4,MacIntel,60.24096386,,,,,,,,,,,,,,,,,,,,,407.8158,408.0138,408.0138,408.5144,,,,,,,,,,,,,,2.6213,1,,,,,,,,,,,,,,z,,,,,,,,,,,,,,,,65,1,408.5149,411.1478,z,1,2.6213,,[],[],[],[],[],[],[],411.1479,413.1477,413.1478,419.2977,[],[],[],[],[],[],[],z,6.1487,,419.2978,419.298,-0.038043002,-0.409922387,0,0,0,,0,64,64,59,1,2,TL,miskate,cursive,miskate_c.png,,,,
,,,,32294,001,2025-12-02_10h53.13.794,HW_LDT_1,2024.2.4,MacIntel,60.24096386,,,,,,,,,,,,,,,,,,,,,419.2989,419.4977,419.4977,419.9976,,,,,,,,,,,,,,1.0482,1,,,,,,,,,,,,,,m,,,,,,,,,,,,,,,,66,0,419.9982,421.0476,m,1,1.0482,,[],[],[],[],[],[],[],421.0477,423.0476,423.0477,423.0479,[],[],[],[],[],[],[],,,,423.0479,423.048,-0.038043002,-0.409922387,0,0,0,,0,65,65,104,1,2,word,DOMINANT,print,dominant_p.png,,,,
,,,,32294,001,2025-12-02_10h53.13.794,HW_LDT_1,2024.2.4,MacIntel,60.24096386,,,,,,,,,,,,,,,,,,,,,423.049,423.2477,423.2477,423.7477,,,,,,,,,,,,,,0.8216,1,,,,,,,,,,,,,,z,,,,,,,,,,,,,,,,67,1,423.7483,424.5811,z,1,0.8216,,[],[],[],[],[],[],[],424.5812,426.581,426.5811,427.9976,[],[],[],[],[],[],[],m,1.4161,,427.9976,427.9978,-0.038043002,-0.409922387,0,0,0,,0,66,66,49,1,2,TL,dedace,print,dedace_p.png,,,,
,,,,32294,001,2025-12-02_10h53.13.794,HW_LDT_1,2024.2.4,MacIntel,60.24096386,,,,,,,,,,,,,,,,,,,,,427.9987,428.1976,428.1977,428.6976,,,,,,,,,,,,,,1.3325,0,,,,,,,,,,,,,,m,,,,,,,,,,,,,,,,68,0,428.6982,430.0315,z,0,1.3325,,[],[],[],[],[],[],[],430.0315,432.0309,432.031,432.0311,[],[],[],[],[],[],[],,,,432.0311,432.0313,-0.038043002,-0.409922387,0,0,0,,0,67,67,103,1,2,word,DISPUTE,cursive,dispute_c.png,,,,
,,,,32294,001,2025-12-02_10h53.13.794,HW_LDT_1,2024.2.4,MacIntel,60.24096386,,,,,,,,,,,,,,,,,,,,,432.0323,432.231,432.2311,432.7309,,,,,,,,,,,,,,1.2992,0,,,,,,,,,,,,,,z,,,,,,,,,,,,,,,,69,0,432.7314,434.0315,m,0,1.2992,,[],[],[],[],[],[],[],434.0315,436.0309,436.0309,436.0312,[],[],[],[],[],[],[],,,,436.0312,436.0313,-0.038043002,-0.409922387,0,0,0,,0,68,68,79,1,2,TL,vadility,print,vadility_p.png,,,,
,,,,32294,001,2025-12-02_10h53.13.794,HW_LDT_1,2024.2.4,MacIntel,60.24096386,,,,,,,,,,,,,,,,,,,,,436.0323,436.2309,436.231,436.7309,,,,,,,,,,,,,,1.6716,0,,,,,,,,,,,,,,m,,,,,,,,,,,,,,,,70,1,436.7314,438.4143,z,0,1.6716,,[],[],[],[],[],[],[],438.4144,440.4142,440.4142,441.6145,[],[],[],[],[],[],[],m,1.1997,,441.6146,441.6147,-0.038043002,-0.409922387,0,0,0,,0,69,69,138,1,2,word,REFUSAL,cursive,refusal_c.png,,,,
,,,,32294,001,2025-12-02_10h53.13.794,HW_LDT_1,2024.2.4,MacIntel,60.24096386,,,,,,,,,,,,,,,,,,,,,441.6155,441.8142,441.8142,442.3142,,,,,,,,,,,,,,0.822,1,,,,,,,,,,,,,,m,,,,,,,,,,,,,,,,71,0,442.3147,443.1476,m,1,0.822,,[],[],[],[],[],[],[],443.1477,445.1475,445.1475,445.1477,[],[],[],[],[],[],[],,,,445.1478,445.1478,-0.038043002,-0.409922387,0,0,0,,0,70,70,118,1,2,word,MEDICINE,print,medicine_p.png,,,,
,,,,32294,001,2025-12-02_10h53.13.794,HW_LDT_1,2024.2.4,MacIntel,60.24096386,,,,,,,,,,,,,,,,,,,,,445.1489,445.3469,445.3469,445.8476,,,,,,,,,,,,,,1.2388,1,,,,,,,,,,,,,,z,,,,,,,,,,,,,,,,72,1,445.8481,447.0969,z,1,1.2388,,[],[],[],[],[],[],[],447.097,449.0975,449.0976,451.6314,[],[],[],[],[],[],[],m,2.5222,,451.6314,451.6315,-0.038043002,-0.409922387,0,0,0,,0,71,71,2,1,2,RL,casagity,print,casagity_p.png,,,,
,,,,32294,001,2025-12-02_10h53.13.794,HW_LDT_1,2024.2.4,MacIntel,60.24096386,,,,,,,,,,,,,,,,,,,,,451.6319,451.8308,451.8309,452.3308,,,,,,,,,,,,,,0.7321,0,,,,,,,,,,,,,,z,,,,,,,,,,,,,,,,73,0,452.3314,453.0642,m,0,0.7321,,[],[],[],[],[],[],[],453.0643,455.0642,455.0642,455.0643,[],[],[],[],[],[],[],,,,455.0644,455.0646,-0.038043002,-0.409922387,0,0,0,,0,72,72,3,1,2,RL,capefory,print,capefory_p.png,,,,
,,,,32294,001,2025-12-02_10h53.13.794,HW_LDT_1,2024.2.4,MacIntel,60.24096386,,,,,,,,,,,,,,,,,,,,,455.0655,455.2641,455.2641,455.7642,,,,,,,,,,,,,,2.7549,1,,,,,,,,,,,,,,z,,,,,,,,,,,,,,,,74,0,455.7647,458.5309,z,1,2.7549,,[],[],[],[],[],[],[],458.5309,460.5308,460.5308,460.531,[],[],[],[],[],[],[],,,,460.531,460.5312,-0.038043002,-0.409922387,0,0,0,,0,73,73,33,1,2,RL,strapely,cursive,strapely_c.png,,,,
,,,,32294,001,2025-12-02_10h53.13.794,HW_LDT_1,2024.2.4,MacIntel,60.24096386,,,,,,,,,,,,,,,,,,,,,460.5322,460.7307,460.7308,461.2308,,,,,,,,,,,,,,0.7048,0,,,,,,,,,,,,,,z,,,,,,,,,,,,,,,,75,0,461.2313,461.9476,m,0,0.7048,,[],[],[],[],[],[],[],461.9476,463.9474,463.9475,463.9476,[],[],[],[],[],[],[],,,,463.9477,463.9478,-0.038043002,-0.409922387,0,0,0,,0,74,74,64,1,2,TL,paficic,print,paficic_p.png,,,,
,,,,32294,001,2025-12-02_10h53.13.794,HW_LDT_1,2024.2.4,MacIntel,60.24096386,,,,,,,,,,,,,,,,,,,,,463.9489,464.1474,464.1475,464.6465,,,,,,,,,,,,,,1.0327,1,,,,,,,,,,,,,,m,,,,,,,,,,,,,,,,76,0,464.6471,465.6807,m,1,1.0327,,[],[],[],[],[],[],[],465.6808,467.6797,467.6798,467.68,[],[],[],[],[],[],[],,,,467.68,467.6801,-0.038043002,-0.409922387,0,0,0,,0,75,75,132,1,2,word,PROPOSAL,cursive,proposal_c.png,,,,
,,,,32294,001,2025-12-02_10h53.13.794,HW_LDT_1,2024.2.4,MacIntel,60.24096386,,,,,,,,,,,,,,,,,,,,,467.6811,467.8808,467.8808,468.3807,,,,,,,,,,,,,,0.9382,1,,,,,,,,,,,,,,m,,,,,,,,,,,,,,,,77,0,468.3812,469.3308,m,1,0.9382,,[],[],[],[],[],[],[],469.331,471.3307,471.3307,471.3309,[],[],[],[],[],[],[],,,,471.331,471.3311,-0.038043002,-0.409922387,0,0,0,,0,76,76,102,1,2,word,DENSITY,print,density_p.png,,,,
,,,,32294,001,2025-12-02_10h53.13.794,HW_LDT_1,2024.2.4,MacIntel,60.24096386,,,,,,,,,,,,,,,,,,,,,471.3322,471.5307,471.5308,472.0307,,,,,,,,,,,,,,1.7153,1,,,,,,,,,,,,,,z,,,,,,,,,,,,,,,,78,0,472.0312,473.7473,z,1,1.7153,,[],[],[],[],[],[],[],473.7473,475.7464,475.7465,475.7467,[],[],[],[],[],[],[],,,,475.7467,475.7469,-0.038043002,-0.409922387,0,0,0,,0,77,77,7,1,2,RL,cocewage,cursive,cocewage_c.png,,,,
,,,,32294,001,2025-12-02_10h53.13.794,HW_LDT_1,2024.2.4,MacIntel,60.24096386,,,,,,,,,,,,,,,,,,,,,475.7479,475.9474,475.9474,476.4474,,,,,,,,,,,,,,2.3384,1,,,,,,,,,,,,,,m,,,,,,,,,,,,,,,,79,0,476.4479,478.7975,m,1,2.3384,,[],[],[],[],[],[],[],478.7976,480.7973,480.7973,480.7976,[],[],[],[],[],[],[],,,,480.7976,480.7977,-0.038043002,-0.409922387,0,0,0,,0,78,78,154,1,2,word,STORAGE,print,storage_p.png,,,,
,,,,32294,001,2025-12-02_10h53.13.794,HW_LDT_1,2024.2.4,MacIntel,60.24096386,,,,,,,,,,,,,,,,,,,,,480.7988,480.9973,480.9974,481.4973,,,,,,,,,,,,,,1.3382,1,,,,,,,,,,,,,,z,,,,,,,,,,,,,,,,80,0,481.4978,482.8473,z,1,1.3382,,[],[],[],[],[],[],[],482.8474,484.8474,484.8474,484.8476,[],[],[],[],[],[],[],,,,484.8476,604.2129,-0.038043002,-0.409922387,0,0,0,space,0,79,79,31,1,2,RL,spetisic,print,spetisic_p.png,119.3317,,,
,,,,32294,001,2025-12-02_10h53.13.794,HW_LDT_1,2024.2.4,MacIntel,60.24096386,,,,,,,,,,,,,,,,,,,,,604.2141,604.4125,604.4125,604.9134,,,,,,,,,,,,,,2.3548,1,,,,,,,,,,,,,,z,,,,,,,,,,,,,,,,81,0,604.9139,607.2801,z,1,2.3548,,[],[],[],[],[],[],[],607.2801,609.2794,609.2794,609.2796,[],[],[],[],[],[],[],,,,609.2796,609.2797,-0.038043002,-0.409922387,0,0,0,,0,80,80,60,1,2,TL,molibe,print,molibe_p.png,,,,
,,,,32294,001,2025-12-02_10h53.13.794,HW_LDT_1,2024.2.4,MacIntel,60.24096386,,,,,,,,,,,,,,,,,,,,,609.2809,609.4791,609.4792,609.9791,,,,,,,,,,,,,,1.4245,1,,,,,,,,,,,,,,m,,,,,,,,,,,,,,,,82,0,609.9796,611.4132,m,1,1.4245,,[],[],[],[],[],[],[],611.4133,613.4133,613.4134,613.4136,[],[],[],[],[],[],[],,,,613.4137,613.4137,-0.038043002,-0.409922387,0,0,0,,0,81,81,136,1,2,word,RADICAL,cursive,radical_c.png,,,,
,,,,32294,001,2025-12-02_10h53.13.794,HW_LDT_1,2024.2.4,MacIntel,60.24096386,,,,,,,,,,,,,,,,,,,,,613.4147,613.6134,613.6134,614.1125,,,,,,,,,,,,,,0.6724,1,,,,,,,,,,,,,,m,,,,,,,,,,,,,,,,83,0,614.113,614.7967,m,1,0.6724,,[],[],[],[],[],[],[],614.7968,616.7965,616.7965,616.7967,[],[],[],[],[],[],[],,,,616.7968,616.7968,-0.038043002,-0.409922387,0,0,0,,0,82,82,93,1,2,word,CEREMONY,print,ceremony_p.png,,,,
,,,,32294,001,2025-12-02_10h53.13.794,HW_LDT_1,2024.2.4,MacIntel,60.24096386,,,,,,,,,,,,,,,,,,,,,616.7978,616.9965,616.9966,617.4964,,,,,,,,,,,,,,0.8052,1,,,,,,,,,,,,,,m,,,,,,,,,,,,,,,,84,0,617.497,618.3134,m,1,0.8052,,[],[],[],[],[],[],[],618.3134,620.3132,620.3133,620.3134,[],[],[],[],[],[],[],,,,620.3134,620.3136,-0.038043002,-0.409922387,0,0,0,,0,83,83,81,1,2,word,ADVISORY,print,advisory_p.png,,,,
,,,,32294,001,2025-12-02_10h53.13.794,HW_LDT_1,2024.2.4,MacIntel,60.24096386,,,,,,,,,,,,,,,,,,,,,620.3146,620.5123,620.5124,621.0133,,,,,,,,,,,,,,0.7388,1,,,,,,,,,,,,,,z,,,,,,,,,,,,,,,,85,0,621.0137,621.7633,z,1,0.7388,,[],[],[],[],[],[],[],621.7634,623.7631,623.7632,623.7634,[],[],[],[],[],[],[],,,,623.7634,623.7635,-0.038043002,-0.409922387,0,0,0,,0,84,84,36,1,2,RL,vecelan,print,vecelan_p.png,,,,
,,,,32294,001,2025-12-02_10h53.13.794,HW_LDT_1,2024.2.4,MacIntel,60.24096386,,,,,,,,,,,,,,,,,,,,,623.7646,623.9631,623.9632,624.4631,,,,,,,,,,,,,,0.9381,1,,,,,,,,,,,,,,m,,,,,,,,,,,,,,,,86,0,624.4636,625.4132,m,1,0.9381,,[],[],[],[],[],[],[],625.4133,627.4132,627.4132,627.4134,[],[],[],[],[],[],[],,,,627.4134,627.4134,-0.038043002,-0.409922387,0,0,0,,0,85,85,119,1,2,word,MEMORY,cursive,memory_c.png,,,,
,,,,32294,001,2025-12-02_10h53.13.794,HW_LDT_1,2024.2.4,MacIntel,60.24096386,,,,,,,,,,,,,,,,,,,,,627.4145,627.6131,627.6132,628.1132,,,,,,,,,,,,,,0.6414,1,,,,,,,,,,,,,,m,,,,,,,,,,,,,,,,87,0,628.1137,628.7633,m,1,0.6414,,[],[],[],[],[],[],[],628.7633,630.7623,630.7624,630.7625,[],[],[],[],[],[],[],,,,630.7626,630.7626,-0.038043002,-0.409922387,0,0,0,,0,86,86,147,1,2,word,ROMANTIC,print,romantic_p.png,,,,
,,,,32294,001,2025-12-02_10h53.13.794,HW_LDT_1,2024.2.4,MacIntel,60.24096386,,,,,,,,,,,,,,,,,,,,,630.7636,630.9631,630.9631,631.463,,,,,,,,,,,,,,0.871,1,,,,,,,,,,,,,,m,,,,,,,,,,,,,,,,88,0,631.4635,632.3466,m,1,0.871,,[],[],[],[],[],[],[],632.3467,634.3465,634.3465,634.3466,[],[],[],[],[],[],[],,,,634.3466,634.3467,-0.038043002,-0.409922387,0,0,0,,0,87,87,133,1,2,word,PROVIDE,cursive,provide_c.png,,,,
,,,,32294,001,2025-12-02_10h53.13.794,HW_LDT_1,2024.2.4,MacIntel,60.24096386,,,,,,,,,,,,,,,,,,,,,634.3478,634.5465,634.5465,635.0464,,,,,,,,,,,,,,4.1542,1,,,,,,,,,,,,,,z,,,,,,,,,,,,,,,,89,0,635.0469,639.2131,z,1,4.1542,,[],[],[],[],[],[],[],639.2132,641.2123,641.2123,641.2125,[],[],[],[],[],[],[],,,,641.2125,641.2126,-0.038043002,-0.409922387,0,0,0,,0,88,88,56,1,2,TL,marnigal,cursive,marnigal_c.png,,,,
,,,,32294,001,2025-12-02_10h53.13.794,HW_LDT_1,2024.2.4,MacIntel,60.24096386,,,,,,,,,,,,,,,,,,,,,641.2136,641.4131,641.4132,641.9131,,,,,,,,,,,,,,1.7544,1,,,,,,,,,,,,,,z,,,,,,,,,,,,,,,,90,1,641.9136,643.679,z,1,1.7544,,[],[],[],[],[],[],[],643.6791,645.679,645.6791,646.9965,[],[],[],[],[],[],[],z,1.3068,,646.9966,646.9967,-0.038043002,-0.409922387,0,0,0,,0,89,89,38,1,2,TL,atameur,cursive,atameur_c.png,,,,
,,,,32294,001,2025-12-02_10h53.13.794,HW_LDT_1,2024.2.4,MacIntel,60.24096386,,,,,,,,,,,,,,,,,,,,,646.9978,647.1965,647.1965,647.6964,,,,,,,,,,,,,,1.1399,1,,,,,,,,,,,,,,z,,,,,,,,,,,,,,,,91,0,647.6969,648.8464,z,1,1.1399,,[],[],[],[],[],[],[],648.8465,650.8464,650.8464,650.8466,[],[],[],[],[],[],[],,,,650.8466,650.8467,-0.038043002,-0.409922387,0,0,0,,0,90,90,9,1,2,RL,denficy,print,denficy_p.png,,,,
,,,,32294,001,2025-12-02_10h53.13.794,HW_LDT_1,2024.2.4,MacIntel,60.24096386,,,,,,,,,,,,,,,,,,,,,650.8478,651.046,651.046,651.5464,,,,,,,,,,,,,,0.9092,1,,,,,,,,,,,,,,m,,,,,,,,,,,,,,,,92,0,651.5468,652.4631,m,1,0.9092,,[],[],[],[],[],[],[],652.4632,654.4627,654.4628,654.4629,[],[],[],[],[],[],[],,,,654.463,654.463,-0.038043002,-0.409922387,0,0,0,,0,91,91,143,1,2,word,REMOVAL,print,removal_p.png,,,,
,,,,32294,001,2025-12-02_10h53.13.794,HW_LDT_1,2024.2.4,MacIntel,60.24096386,,,,,,,,,,,,,,,,,,,,,654.4641,654.6631,654.6631,655.163,,,,,,,,,,,,,,1.1313,1,,,,,,,,,,,,,,m,,,,,,,,,,,,,,,,93,0,655.1635,656.2963,m,1,1.1313,,[],[],[],[],[],[],[],656.2963,658.2963,658.2964,658.2965,[],[],[],[],[],[],[],,,,658.2966,658.2967,-0.038043002,-0.409922387,0,0,0,,0,92,92,151,1,2,word,SPECIFIC,print,specific_p.png,,,,
,,,,32294,001,2025-12-02_10h53.13.794,HW_LDT_1,2024.2.4,MacIntel,60.24096386,,,,,,,,,,,,,,,,,,,,,658.2977,658.4963,658.4964,658.9963,,,,,,,,,,,,,,0.7913,1,,,,,,,,,,,,,,z,,,,,,,,,,,,,,,,94,0,658.9968,659.7964,z,1,0.7913,,[],[],[],[],[],[],[],659.7965,661.7963,661.7964,661.7965,[],[],[],[],[],[],[],,,,661.7965,661.7966,-0.038043002,-0.409922387,0,0,0,,0,93,93,15,1,2,RL,linedal,print,linedal_p.png,,,,
,,,,32294,001,2025-12-02_10h53.13.794,HW_LDT_1,2024.2.4,MacIntel,60.24096386,,,,,,,,,,,,,,,,,,,,,661.7977,661.9962,661.9963,662.4963,,,,,,,,,,,,,,2.4551,0,,,,,,,,,,,,,,m,,,,,,,,,,,,,,,,95,0,662.4969,664.9631,z,0,2.4551,,[],[],[],[],[],[],[],664.9632,666.963,666.963,666.9632,[],[],[],[],[],[],[],,,,666.9632,666.9633,-0.038043002,-0.409922387,0,0,0,,0,94,94,126,1,2,word,OPTIMAL,cursive,optimal_c.png,,,,
,,,,32294,001,2025-12-02_10h53.13.794,HW_LDT_1,2024.2.4,MacIntel,60.24096386,,,,,,,,,,,,,,,,,,,,,666.9644,667.163,667.1631,667.6629,,,,,,,,,,,,,,1.1718,1,,,,,,,,,,,,,,z,,,,,,,,,,,,,,,,96,0,667.6634,668.8464,z,1,1.1718,,[],[],[],[],[],[],[],668.8465,670.8463,670.8464,670.8465,[],[],[],[],[],[],[],,,,670.8465,670.8466,-0.038043002,-0.409922387,0,0,0,,0,95,95,42,1,2,TL,bedise,cursive,bedise_c.png,,,,
,,,,32294,001,2025-12-02_10h53.13.794,HW_LDT_1,2024.2.4,MacIntel,60.24096386,,,,,,,,,,,,,,,,,,,,,670.8477,671.0454,671.0454,671.5463,,,,,,,,,,,,,,1.5383,1,,,,,,,,,,,,,,z,,,,,,,,,,,,,,,,97,0,671.5468,673.0961,z,1,1.5383,,[],[],[],[],[],[],[],673.0963,675.0962,675.0962,675.0963,[],[],[],[],[],[],[],,,,675.0964,675.0965,-0.038043002,-0.409922387,0,0,0,,0,96,96,53,1,2,TL,edivent,cursive,edivent_c.png,,,,
,,,,32294,001,2025-12-02_10h53.13.794,HW_LDT_1,2024.2.4,MacIntel,60.24096386,,,,,,,,,,,,,,,,,,,,,675.0976,675.2963,675.2964,675.7962,,,,,,,,,,,,,,0.6383,1,,,,,,,,,,,,,,m,,,,,,,,,,,,,,,,98,0,675.7966,676.4462,m,1,0.6383,,[],[],[],[],[],[],[],676.4463,678.4463,678.4463,678.4464,[],[],[],[],[],[],[],,,,678.4465,678.4466,-0.038043002,-0.409922387,0,0,0,,0,97,97,114,1,2,word,LOCATE,print,locate_p.png,,,,
,,,,32294,001,2025-12-02_10h53.13.794,HW_LDT_1,2024.2.4,MacIntel,60.24096386,,,,,,,,,,,,,,,,,,,,,678.4478,678.6462,678.6462,679.1461,,,,,,,,,,,,,,1.6552,1,,,,,,,,,,,,,,m,,,,,,,,,,,,,,,,99,0,679.1465,680.8126,m,1,1.6552,,[],[],[],[],[],[],[],680.8127,682.8129,682.813,682.8132,[],[],[],[],[],[],[],,,,682.8133,682.8134,-0.038043002,-0.409922387,0,0,0,,0,98,98,140,1,2,word,RELATIVE,print,relative_p.png,,,,
,,,,32294,001,2025-12-02_10h53.13.794,HW_LDT_1,2024.2.4,MacIntel,60.24096386,,,,,,,,,,,,,,,,,,,,,682.8145,683.0124,683.0126,683.5129,,,,,,,,,,,,,,5.4045,0,,,,,,,,,,,,,,m,,,,,,,,,,,,,,,,100,0,683.5135,688.9295,z,0,5.4045,,[],[],[],[],[],[],[],688.9297,690.9295,690.9296,690.9298,[],[],[],[],[],[],[],,,,690.9298,690.9298,-0.038043002,-0.409922387,0,0,0,,0,99,99,120,1,2,word,MILITARY,cursive,military_c.png,,,,
,,,,32294,001,2025-12-02_10h53.13.794,HW_LDT_1,2024.2.4,MacIntel,60.24096386,,,,,,,,,,,,,,,,,,,,,690.9309,691.1295,691.1295,691.6295,,,,,,,,,,,,,,1.6386,1,,,,,,,,,,,,,,m,,,,,,,,,,,,,,,,101,1,691.63,693.2796,m,1,1.6386,,[],[],[],[],[],[],[],693.2796,695.2795,695.2795,696.4294,[],[],[],[],[],[],[],z,1.139,,696.4295,696.4296,-0.038043002,-0.409922387,0,0,0,,0,100,100,155,1,2,word,STRATEGY,cursive,strategy_c.png,,,,
,,,,32294,001,2025-12-02_10h53.13.794,HW_LDT_1,2024.2.4,MacIntel,60.24096386,,,,,,,,,,,,,,,,,,,,,696.4305,696.6294,696.6294,697.1294,,,,,,,,,,,,,,0.9734,1,,,,,,,,,,,,,,z,,,,,,,,,,,,,,,,102,0,697.1299,698.1128,z,1,0.9734,,[],[],[],[],[],[],[],698.113,700.1128,700.1128,700.113,[],[],[],[],[],[],[],,,,700.1131,700.1132,-0.038043002,-0.409922387,0,0,0,,0,101,101,21,1,2,RL,pamest,print,pamest_p.png,,,,
,,,,32294,001,2025-12-02_10h53.13.794,HW_LDT_1,2024.2.4,MacIntel,60.24096386,,,,,,,,,,,,,,,,,,,,,700.1142,700.3126,700.3127,700.8128,,,,,,,,,,,,,,1.205,0,,,,,,,,,,,,,,z,,,,,,,,,,,,,,,,103,0,700.8132,702.0296,m,0,1.205,,[],[],[],[],[],[],[],702.0297,704.0286,704.0286,704.0287,[],[],[],[],[],[],[],,,,704.0288,704.0289,-0.038043002,-0.409922387,0,0,0,,0,102,102,8,1,2,RL,desifate,print,desifate_p.png,,,,
,,,,32294,001,2025-12-02_10h53.13.794,HW_LDT_1,2024.2.4,MacIntel,60.24096386,,,,,,,,,,,,,,,,,,,,,704.0299,704.2294,704.2294,704.7294,,,,,,,,,,,,,,1.1991,1,,,,,,,,,,,,,,m,,,,,,,,,,,,,,,,104,0,704.7299,705.9296,m,1,1.1991,,[],[],[],[],[],[],[],705.9298,707.9294,707.9294,707.9296,[],[],[],[],[],[],[],,,,707.9296,707.9297,-0.038043002,-0.409922387,0,0,0,,0,103,103,86,1,2,word,BESIDE,cursive,beside_c.png,,,,
,,,,32294,001,2025-12-02_10h53.13.794,HW_LDT_1,2024.2.4,MacIntel,60.24096386,,,,,,,,,,,,,,,,,,,,,707.9307,708.1293,708.1294,708.6294,,,,,,,,,,,,,,1.0325,1,,,,,,,,,,,,,,m,,,,,,,,,,,,,,,,105,0,708.6299,709.6629,m,1,1.0325,,[],[],[],[],[],[],[],709.663,711.6627,711.6627,711.6629,[],[],[],[],[],[],[],,,,711.663,711.6631,-0.038043002,-0.409922387,0,0,0,,0,104,104,158,1,2,word,VELOCITY,print,velocity_p.png,,,,
,,,,32294,001,2025-12-02_10h53.13.794,HW_LDT_1,2024.2.4,MacIntel,60.24096386,,,,,,,,,,,,,,,,,,,,,711.6641,711.8627,711.8628,712.3627,,,,,,,,,,,,,,0.7051,0,,,,,,,,,,,,,,z,,,,,,,,,,,,,,,,106,0,712.3632,713.0795,m,0,0.7051,,[],[],[],[],[],[],[],713.0796,715.0794,715.0794,715.0796,[],[],[],[],[],[],[],,,,715.0796,715.0797,-0.038043002,-0.409922387,0,0,0,,0,105,105,37,1,2,TL,adacemy,cursive,adacemy_c.png,,,,
,,,,32294,001,2025-12-02_10h53.13.794,HW_LDT_1,2024.2.4,MacIntel,60.24096386,,,,,,,,,,,,,,,,,,,,,715.0808,715.2793,715.2793,715.7793,,,,,,,,,,,,,,0.6588,0,,,,,,,,,,,,,,z,,,,,,,,,,,,,,,,107,0,715.7798,716.4461,m,0,0.6588,,[],[],[],[],[],[],[],716.4462,718.446,718.446,718.4463,[],[],[],[],[],[],[],,,,718.4463,718.4463,-0.038043002,-0.409922387,0,0,0,,0,106,106,50,1,2,TL,donimant,print,donimant_p.png,,,,
,,,,32294,001,2025-12-02_10h53.13.794,HW_LDT_1,2024.2.4,MacIntel,60.24096386,,,,,,,,,,,,,,,,,,,,,718.4474,718.646,718.646,719.1449,,,,,,,,,,,,,,0.6059,1,,,,,,,,,,,,,,m,,,,,,,,,,,,,,,,108,0,719.1454,719.7628,m,1,0.6059,,[],[],[],[],[],[],[],719.7629,721.7626,721.7627,721.7628,[],[],[],[],[],[],[],,,,721.7629,721.763,-0.038043002,-0.409922387,0,0,0,,0,107,107,92,1,2,word,CATEGORY,print,category_p.png,,,,
,,,,32294,001,2025-12-02_10h53.13.794,HW_LDT_1,2024.2.4,MacIntel,60.24096386,,,,,,,,,,,,,,,,,,,,,721.7645,721.9626,721.9627,722.4617,,,,,,,,,,,,,,0.889,1,,,,,,,,,,,,,,z,,,,,,,,,,,,,,,,109,0,722.4622,723.3617,z,1,0.889,,[],[],[],[],[],[],[],723.3617,725.3626,725.3627,725.3628,[],[],[],[],[],[],[],,,,725.3629,725.363,-0.038043002,-0.409922387,0,0,0,,0,108,108,4,1,2,RL,cenesony,print,cenesony_p.png,,,,
,,,,32294,001,2025-12-02_10h53.13.794,HW_LDT_1,2024.2.4,MacIntel,60.24096386,,,,,,,,,,,,,,,,,,,,,725.3641,725.5616,725.5616,726.0626,,,,,,,,,,,,,,1.7416,0,,,,,,,,,,,,,,m,,,,,,,,,,,,,,,,110,0,726.0631,727.8123,z,0,1.7416,,[],[],[],[],[],[],[],727.8124,729.8126,729.8126,729.8129,[],[],[],[],[],[],[],,,,729.8129,729.813,-0.038043002,-0.409922387,0,0,0,,0,109,109,113,1,2,word,LITERAL,cursive,literal_c.png,,,,
,,,,32294,001,2025-12-02_10h53.13.794,HW_LDT_1,2024.2.4,MacIntel,60.24096386,,,,,,,,,,,,,,,,,,,,,729.8139,730.0125,730.0126,730.5126,,,,,,,,,,,,,,0.6567,0,,,,,,,,,,,,,,z,,,,,,,,,,,,,,,,111,0,730.5131,731.1794,m,0,0.6567,,[],[],[],[],[],[],[],731.1795,733.1793,733.1793,733.1795,[],[],[],[],[],[],[],,,,733.1795,733.1796,-0.038043002,-0.409922387,0,0,0,,0,110,110,78,1,2,TL,stogare,print,stogare_p.png,,,,
,,,,32294,001,2025-12-02_10h53.13.794,HW_LDT_1,2024.2.4,MacIntel,60.24096386,,,,,,,,,,,,,,,,,,,,,733.1806,733.3791,733.3792,733.8793,,,,,,,,,,,,,,0.7155,0,,,,,,,,,,,,,,m,,,,,,,,,,,,,,,,112,0,733.8798,734.5963,z,0,0.7155,,[],[],[],[],[],[],[],734.5964,736.5958,736.5959,736.596,[],[],[],[],[],[],[],,,,736.5961,736.5962,-0.038043002,-0.409922387,0,0,0,,0,111,111,84,1,2,word,BELOVED,cursive,beloved_c.png,,,,
,,,,32294,001,2025-12-02_10h53.13.794,HW_LDT_1,2024.2.4,MacIntel,60.24096386,,,,,,,,,,,,,,,,,,,,,736.5973,736.7949,736.7949,737.2959,,,,,,,,,,,,,,1.9061,1,,,,,,,,,,,,,,z,,,,,,,,,,,,,,,,113,0,737.2963,739.2126,z,1,1.9061,,[],[],[],[],[],[],[],739.2127,741.2125,741.2125,741.2127,[],[],[],[],[],[],[],,,,741.2127,741.2128,-0.038043002,-0.409922387,0,0,0,,0,112,112,24,1,2,RL,rasibal,cursive,rasibal_c.png,,,,
,,,,32294,001,2025-12-02_10h53.13.794,HW_LDT_1,2024.2.4,MacIntel,60.24096386,,,,,,,,,,,,,,,,,,,,,741.2139,741.4126,741.4126,741.9121,,,,,,,,,,,,,,0.8061,1,,,,,,,,,,,,,,m,,,,,,,,,,,,,,,,114,0,741.9125,742.7282,m,1,0.8061,,[],[],[],[],[],[],[],742.7283,744.7292,744.7292,744.7294,[],[],[],[],[],[],[],,,,744.7295,744.7295,-0.038043002,-0.409922387,0,0,0,,0,113,113,95,1,2,word,COMEDY,cursive,comedy_c.png,,,,
,,,,32294,001,2025-12-02_10h53.13.794,HW_LDT_1,2024.2.4,MacIntel,60.24096386,,,,,,,,,,,,,,,,,,,,,744.7305,744.9292,744.9292,745.4282,,,,,,,,,,,,,,1.1396,0,,,,,,,,,,,,,,z,,,,,,,,,,,,,,,,115,0,745.4287,746.5792,m,0,1.1396,,[],[],[],[],[],[],[],746.5793,748.5792,748.5792,748.5794,[],[],[],[],[],[],[],,,,748.5795,748.5795,-0.038043002,-0.409922387,0,0,0,,0,114,114,68,1,2,TL,quatily,cursive,quatily_c.png,,,,
,,,,32294,001,2025-12-02_10h53.13.794,HW_LDT_1,2024.2.4,MacIntel,60.24096386,,,,,,,,,,,,,,,,,,,,,748.5806,748.7792,748.7793,749.2792,,,,,,,,,,,,,,1.0718,1,,,,,,,,,,,,,,m,,,,,,,,,,,,,,,,116,1,749.2797,750.3626,m,1,1.0718,,[],[],[],[],[],[],[],750.3627,752.3624,752.3625,753.3459,[],[],[],[],[],[],[],z,0.9725,,753.346,753.346,-0.038043002,-0.409922387,0,0,0,,0,115,115,150,1,2,word,SENTIMENT,cursive,sentiment_c.png,,,,
,,,,32294,001,2025-12-02_10h53.13.794,HW_LDT_1,2024.2.4,MacIntel,60.24096386,,,,,,,,,,,,,,,,,,,,,753.3471,753.5458,753.5459,754.0457,,,,,,,,,,,,,,0.7208,1,,,,,,,,,,,,,,m,,,,,,,,,,,,,,,,117,0,754.0463,754.7782,m,1,0.7208,,[],[],[],[],[],[],[],754.7783,756.7781,756.7782,756.7783,[],[],[],[],[],[],[],,,,756.7784,756.7785,-0.038043002,-0.409922387,0,0,0,,0,116,116,130,1,2,word,POLICY,print,policy_p.png,,,,
,,,,32294,001,2025-12-02_10h53.13.794,HW_LDT_1,2024.2.4,MacIntel,60.24096386,,,,,,,,,,,,,,,,,,,,,756.7795,756.9792,756.9793,757.4782,,,,,,,,,,,,,,2.0058,1,,,,,,,,,,,,,,z,,,,,,,,,,,,,,,,118,0,757.4787,759.4959,z,1,2.0058,,[],[],[],[],[],[],[],759.4959,761.4958,761.4958,761.4959,[],[],[],[],[],[],[],,,,761.496,761.4961,-0.038043002,-0.409922387,0,0,0,,0,117,117,5,1,2,RL,clisimal,cursive,clisimal_c.png,,,,
,,,,32294,001,2025-12-02_10h53.13.794,HW_LDT_1,2024.2.4,MacIntel,60.24096386,,,,,,,,,,,,,,,,,,,,,761.4972,761.6958,761.6959,762.1958,,,,,,,,,,,,,,2.5715,1,,,,,,,,,,,,,,m,,,,,,,,,,,,,,,,119,0,762.1964,764.7792,m,1,2.5715,,[],[],[],[],[],[],[],764.7792,766.7781,766.7781,766.7783,[],[],[],[],[],[],[],,,,766.7784,766.7784,-0.038043002,-0.409922387,0,0,0,,0,118,118,139,1,2,word,REGULAR,cursive,regular_c.png,,,,
,,,,32294,001,2025-12-02_10h53.13.794,HW_LDT_1,2024.2.4,MacIntel,60.24096386,,,,,,,,,,,,,,,,,,,,,766.7795,766.979,766.9792,767.479,,,,,,,,,,,,,,0.8892,1,,,,,,,,,,,,,,z,,,,,,,,,,,,,,,,120,0,767.4797,768.3792,z,1,0.8892,,[],[],[],[],[],[],[],768.3792,770.379,770.379,770.3793,[],[],[],[],[],[],[],,,,770.3793,770.3795,-0.038043002,-0.409922387,0,0,0,,0,119,119,32,1,2,RL,speniven,print,speniven_p.png,,,,
,,,,32294,001,2025-12-02_10h53.13.794,HW_LDT_1,2024.2.4,MacIntel,60.24096386,,,,,,,,,,,,,,,,,,,,,770.3806,770.5787,770.5788,771.079,,,,,,,,,,,,,,4.3387,0,,,,,,,,,,,,,,m,,,,,,,,,,,,,,,,121,0,771.0795,775.4291,z,0,4.3387,,[],[],[],[],[],[],[],775.4292,777.429,777.429,777.4291,[],[],[],[],[],[],[],,,,777.4292,777.4293,-0.038043002,-0.409922387,0,0,0,,0,120,120,123,1,2,word,MODERATE,cursive,moderate_c.png,,,,
,,,,32294,001,2025-12-02_10h53.13.794,HW_LDT_1,2024.2.4,MacIntel,60.24096386,,,,,,,,,,,,,,,,,,,,,777.4301,777.628,777.6281,778.1279,,,,,,,,,,,,,,2.4993,1,,,,,,,,,,,,,,z,,,,,,,,,,,,,,,,122,0,778.1287,780.6289,z,1,2.4993,,[],[],[],[],[],[],[],780.629,782.6285,782.6285,782.6288,[],[],[],[],[],[],[],,,,782.6288,782.6289,-0.038043002,-0.409922387,0,0,0,,0,121,121,74,1,2,TL,rerite,cursive,rerite_c.png,,,,
,,,,32294,001,2025-12-02_10h53.13.794,HW_LDT_1,2024.2.4,MacIntel,60.24096386,,,,,,,,,,,,,,,,,,,,,782.6299,782.8281,782.8281,783.3289,,,,,,,,,,,,,,0.8992,0,,,,,,,,,,,,,,m,,,,,,,,,,,,,,,,123,1,783.3295,784.2293,z,0,0.8992,,[],[],[],[],[],[],[],784.2294,786.2287,786.2288,788.4124,[],[],[],[],[],[],[],m,2.1726,,788.4125,788.4125,-0.038043002,-0.409922387,0,0,0,,0,122,122,108,1,2,word,FORTUNE,print,fortune_p.png,,,,
,,,,32294,001,2025-12-02_10h53.13.794,HW_LDT_1,2024.2.4,MacIntel,60.24096386,,,,,,,,,,,,,,,,,,,,,788.4136,788.6122,788.6122,789.1122,,,,,,,,,,,,,,1.0384,1,,,,,,,,,,,,,,m,,,,,,,,,,,,,,,,124,0,789.1127,790.1623,m,1,1.0384,,[],[],[],[],[],[],[],790.1624,792.1622,792.1623,792.1625,[],[],[],[],[],[],[],,,,792.1625,792.1626,-0.038043002,-0.409922387,0,0,0,,0,123,123,122,1,2,word,MOBILE,print,mobile_p.png,,,,
,,,,32294,001,2025-12-02_10h53.13.794,HW_LDT_1,2024.2.4,MacIntel,60.24096386,,,,,,,,,,,,,,,,,,,,,792.1637,792.3622,792.3622,792.8622,,,,,,,,,,,,,,1.2303,0,,,,,,,,,,,,,,m,,,,,,,,,,,,,,,,125,0,792.8628,794.0952,z,0,1.2303,,[],[],[],[],[],[],[],794.0952,796.0956,796.0956,796.0958,[],[],[],[],[],[],[],,,,796.0958,796.0959,-0.038043002,-0.409922387,0,0,0,,0,124,124,97,1,2,word,COVERAGE,cursive,coverage_c.png,,,,
,,,,32294,001,2025-12-02_10h53.13.794,HW_LDT_1,2024.2.4,MacIntel,60.24096386,,,,,,,,,,,,,,,,,,,,,796.097,796.2955,796.2956,796.7946,,,,,,,,,,,,,,0.6391,1,,,,,,,,,,,,,,m,,,,,,,,,,,,,,,,126,0,796.7951,797.4455,m,1,0.6391,,[],[],[],[],[],[],[],797.4457,799.4456,799.4456,799.4458,[],[],[],[],[],[],[],,,,799.4458,799.4459,-0.038043002,-0.409922387,0,0,0,,0,125,125,87,1,2,word,CAFETERIA,print,cafeteria_p.png,,,,
,,,,32294,001,2025-12-02_10h53.13.794,HW_LDT_1,2024.2.4,MacIntel,60.24096386,,,,,,,,,,,,,,,,,,,,,799.447,799.6455,799.6456,800.1455,,,,,,,,,,,,,,1.1973,0,,,,,,,,,,,,,,m,,,,,,,,,,,,,,,,127,0,800.146,801.3454,z,0,1.1973,,[],[],[],[],[],[],[],801.3455,803.3455,803.3456,803.3458,[],[],[],[],[],[],[],,,,803.3458,803.3459,-0.038043002,-0.409922387,0,0,0,,0,126,126,142,1,2,word,REMOTE,cursive,remote_c.png,,,,
,,,,32294,001,2025-12-02_10h53.13.794,HW_LDT_1,2024.2.4,MacIntel,60.24096386,,,,,,,,,,,,,,,,,,,,,803.347,803.5454,803.5455,804.0456,,,,,,,,,,,,,,1.0657,0,,,,,,,,,,,,,,z,,,,,,,,,,,,,,,,128,0,804.046,805.1127,m,0,1.0657,,[],[],[],[],[],[],[],805.1127,807.1122,807.1122,807.1124,[],[],[],[],[],[],[],,,,807.1124,807.1125,-0.038043002,-0.409922387,0,0,0,,0,127,127,65,1,2,TL,polupar,cursive,polupar_c.png,,,,
,,,,32294,001,2025-12-02_10h53.13.794,HW_LDT_1,2024.2.4,MacIntel,60.24096386,,,,,,,,,,,,,,,,,,,,,807.1136,807.3123,807.3124,807.8122,,,,,,,,,,,,,,1.1082,1,,,,,,,,,,,,,,z,,,,,,,,,,,,,,,,129,1,807.8127,808.9288,z,1,1.1082,,[],[],[],[],[],[],[],808.9289,810.928,810.9281,811.8789,[],[],[],[],[],[],[],z,0.9398,,811.879,811.8791,-0.038043002,-0.409922387,0,0,0,,0,128,128,10,1,2,RL,disluge,cursive,disluge_c.png,,,,
,,,,32294,001,2025-12-02_10h53.13.794,HW_LDT_1,2024.2.4,MacIntel,60.24096386,,,,,,,,,,,,,,,,,,,,,811.8801,812.0788,812.0788,812.5788,,,,,,,,,,,,,,1.7718,1,,,,,,,,,,,,,,z,,,,,,,,,,,,,,,,130,0,812.5793,814.3612,z,1,1.7718,,[],[],[],[],[],[],[],814.3613,816.3612,816.3613,816.3615,[],[],[],[],[],[],[],,,,816.3615,816.3617,-0.038043002,-0.409922387,0,0,0,,0,129,129,35,1,2,RL,vesofity,print,vesofity_p.png,,,,
,,,,32294,001,2025-12-02_10h53.13.794,HW_LDT_1,2024.2.4,MacIntel,60.24096386,,,,,,,,,,,,,,,,,,,,,816.3628,816.5621,816.5621,817.062,,,,,,,,,,,,,,0.7709,1,,,,,,,,,,,,,,z,,,,,,,,,,,,,,,,131,0,817.0626,817.8456,z,1,0.7709,,[],[],[],[],[],[],[],817.8456,819.8445,819.8445,819.8447,[],[],[],[],[],[],[],,,,819.8447,819.8448,-0.038043002,-0.409922387,0,0,0,,0,130,130,41,1,2,TL,befenit,cursive,befenit_c.png,,,,
,,,,32294,001,2025-12-02_10h53.13.794,HW_LDT_1,2024.2.4,MacIntel,60.24096386,,,,,,,,,,,,,,,,,,,,,819.846,820.0455,820.0455,820.5454,,,,,,,,,,,,,,1.5719,1,,,,,,,,,,,,,,m,,,,,,,,,,,,,,,,132,0,820.5459,822.1289,m,1,1.5719,,[],[],[],[],[],[],[],822.129,824.1287,824.1287,824.1289,[],[],[],[],[],[],[],,,,824.1289,824.129,-0.038043002,-0.409922387,0,0,0,,0,131,131,91,1,2,word,CARDINAL,cursive,cardinal_c.png,,,,
,,,,32294,001,2025-12-02_10h53.13.794,HW_LDT_1,2024.2.4,MacIntel,60.24096386,,,,,,,,,,,,,,,,,,,,,824.1301,824.3287,824.3287,824.8278,,,,,,,,,,,,,,0.7759,1,,,,,,,,,,,,,,z,,,,,,,,,,,,,,,,133,1,824.8283,825.6113,z,1,0.7759,,[],[],[],[],[],[],[],825.6114,827.612,827.6121,828.9111,[],[],[],[],[],[],[],m,1.2889,,828.9112,828.9113,-0.038043002,-0.409922387,0,0,0,,0,132,132,16,1,2,RL,losipal,print,losipal_p.png,,,,
,,,,32294,001,2025-12-02_10h53.13.794,HW_LDT_1,2024.2.4,MacIntel,60.24096386,,,,,,,,,,,,,,,,,,,,,828.9122,829.112,829.112,829.612,,,,,,,,,,,,,,1.7382,1,,,,,,,,,,,,,,z,,,,,,,,,,,,,,,,134,0,829.6125,831.3621,z,1,1.7382,,[],[],[],[],[],[],[],831.3622,833.3619,833.362,833.3622,[],[],[],[],[],[],[],,,,833.3623,833.3623,-0.038043002,-0.409922387,0,0,0,,0,133,133,12,1,2,RL,gralekul,cursive,gralekul_c.png,,,,
,,,,32294,001,2025-12-02_10h53.13.794,HW_LDT_1,2024.2.4,MacIntel,60.24096386,,,,,,,,,,,,,,,,,,,,,833.3634,833.5621,833.5621,834.062,,,,,,,,,,,,,,1.1549,1,,,,,,,,,,,,,,m,,,,,,,,,,,,,,,,135,0,834.0625,835.2287,m,1,1.1549,,[],[],[],[],[],[],[],835.2288,837.2278,837.2279,837.228,[],[],[],[],[],[],[],,,,837.2281,837.2281,-0.038043002,-0.409922387,0,0,0,,0,134,134,94,1,2,word,CLINICAL,cursive,clinical_c.png,,,,
,,,,32294,001,2025-12-02_10h53.13.794,HW_LDT_1,2024.2.4,MacIntel,60.24096386,,,,,,,,,,,,,,,,,,,,,837.2292,837.4286,837.4286,837.9286,,,,,,,,,,,,,,0.9488,1,,,,,,,,,,,,,,m,,,,,,,,,,,,,,,,136,0,837.9291,838.8786,m,1,0.9488,,[],[],[],[],[],[],[],838.8787,840.8786,840.8787,840.8789,[],[],[],[],[],[],[],,,,840.8789,840.879,-0.038043002,-0.409922387,0,0,0,,0,135,135,156,1,2,word,TRIBUTE,cursive,tribute_c.png,,,,
,,,,32294,001,2025-12-02_10h53.13.794,HW_LDT_1,2024.2.4,MacIntel,60.24096386,,,,,,,,,,,,,,,,,,,,,840.88,841.0787,841.0787,841.5786,,,,,,,,,,,,,,0.9885,1,,,,,,,,,,,,,,z,,,,,,,,,,,,,,,,137,0,841.5791,842.5787,z,1,0.9885,,[],[],[],[],[],[],[],842.5788,844.5786,844.5787,844.5788,[],[],[],[],[],[],[],,,,844.5789,844.579,-0.038043002,-0.409922387,0,0,0,,0,136,136,23,1,2,RL,procogal,cursive,procogal_c.png,,,,
,,,,32294,001,2025-12-02_10h53.13.794,HW_LDT_1,2024.2.4,MacIntel,60.24096386,,,,,,,,,,,,,,,,,,,,,844.5799,844.7787,844.7787,845.2786,,,,,,,,,,,,,,1.3558,1,,,,,,,,,,,,,,m,,,,,,,,,,,,,,,,138,0,845.2791,846.6453,m,1,1.3558,,[],[],[],[],[],[],[],846.6454,848.6452,848.6453,848.6454,[],[],[],[],[],[],[],,,,848.6455,848.6456,-0.038043002,-0.409922387,0,0,0,,0,137,137,131,1,2,word,POPULAR,cursive,popular_c.png,,,,
,,,,32294,001,2025-12-02_10h53.13.794,HW_LDT_1,2024.2.4,MacIntel,60.24096386,,,,,,,,,,,,,,,,,,,,,848.6466,848.845,848.845,849.3444,,,,,,,,,,,,,,0.806,1,,,,,,,,,,,,,,z,,,,,,,,,,,,,,,,139,0,849.3449,850.1611,z,1,0.806,,[],[],[],[],[],[],[],850.1612,852.1611,852.1612,852.1613,[],[],[],[],[],[],[],,,,852.1614,852.1615,-0.038043002,-0.409922387,0,0,0,,0,138,138,77,1,2,TL,sloten,print,sloten_p.png,,,,
,,,,32294,001,2025-12-02_10h53.13.794,HW_LDT_1,2024.2.4,MacIntel,60.24096386,,,,,,,,,,,,,,,,,,,,,852.1626,852.3619,852.362,852.8611,,,,,,,,,,,,,,1.2242,1,,,,,,,,,,,,,,z,,,,,,,,,,,,,,,,140,0,852.8617,854.0952,z,1,1.2242,,[],[],[],[],[],[],[],854.0953,856.0952,856.0952,856.0954,[],[],[],[],[],[],[],,,,856.0954,856.0955,-0.038043002,-0.409922387,0,0,0,,0,139,139,26,1,2,RL,retupar,cursive,retupar_c.png,,,,
,,,,32294,001,2025-12-02_10h53.13.794,HW_LDT_1,2024.2.4,MacIntel,60.24096386,,,,,,,,,,,,,,,,,,,,,856.0966,856.2952,856.2953,856.7943,,,,,,,,,,,,,,2.4665,0,,,,,,,,,,,,,,m,,,,,,,,,,,,,,,,141,0,856.7949,859.2621,z,0,2.4665,,[],[],[],[],[],[],[],859.2622,861.2619,861.2619,861.2621,[],[],[],[],[],[],[],,,,861.2621,861.2622,-0.038043002,-0.409922387,0,0,0,,0,140,140,111,1,2,word,INDICATE,cursive,indicate_c.png,,,,
,,,,32294,001,2025-12-02_10h53.13.794,HW_LDT_1,2024.2.4,MacIntel,60.24096386,,,,,,,,,,,,,,,,,,,,,861.2632,861.4618,861.4618,861.9619,,,,,,,,,,,,,,1.0649,1,,,,,,,,,,,,,,m,,,,,,,,,,,,,,,,142,0,861.9624,863.0284,m,1,1.0649,,[],[],[],[],[],[],[],863.0286,865.0285,865.0285,865.0287,[],[],[],[],[],[],[],,,,865.0288,865.0288,-0.038043002,-0.409922387,0,0,0,,0,141,141,99,1,2,word,DEBATE,print,debate_p.png,,,,
,,,,32294,001,2025-12-02_10h53.13.794,HW_LDT_1,2024.2.4,MacIntel,60.24096386,,,,,,,,,,,,,,,,,,,,,865.0298,865.2285,865.2285,865.7285,,,,,,,,,,,,,,1.1555,1,,,,,,,,,,,,,,m,,,,,,,,,,,,,,,,143,0,865.729,866.8954,m,1,1.1555,,[],[],[],[],[],[],[],866.8954,868.8943,868.8944,868.8946,[],[],[],[],[],[],[],,,,868.8946,868.8946,-0.038043002,-0.409922387,0,0,0,,0,142,142,145,1,2,word,RESUME,cursive,resume_c.png,,,,
,,,,32294,001,2025-12-02_10h53.13.794,HW_LDT_1,2024.2.4,MacIntel,60.24096386,,,,,,,,,,,,,,,,,,,,,868.8957,869.0943,869.0943,869.5942,,,,,,,,,,,,,,1.2166,1,,,,,,,,,,,,,,z,,,,,,,,,,,,,,,,144,0,869.5948,870.8121,z,1,1.2166,,[],[],[],[],[],[],[],870.8122,872.8118,872.8118,872.8119,[],[],[],[],[],[],[],,,,872.812,872.8121,-0.038043002,-0.409922387,0,0,0,,0,143,143,27,1,2,RL,repifion,cursive,repifion_c.png,,,,
,,,,32294,001,2025-12-02_10h53.13.794,HW_LDT_1,2024.2.4,MacIntel,60.24096386,,,,,,,,,,,,,,,,,,,,,872.8131,873.0109,873.0109,873.5118,,,,,,,,,,,,,,0.7252,1,,,,,,,,,,,,,,z,,,,,,,,,,,,,,,,145,0,873.5122,874.2451,z,1,0.7252,,[],[],[],[],[],[],[],874.2452,876.2452,876.2452,876.2453,[],[],[],[],[],[],[],,,,876.2454,876.2455,-0.038043002,-0.409922387,0,0,0,,0,144,144,6,1,2,RL,conbicer,print,conbicer_p.png,,,,
,,,,32294,001,2025-12-02_10h53.13.794,HW_LDT_1,2024.2.4,MacIntel,60.24096386,,,,,,,,,,,,,,,,,,,,,876.2465,876.4452,876.4452,876.9442,,,,,,,,,,,,,,1.0716,1,,,,,,,,,,,,,,z,,,,,,,,,,,,,,,,146,0,876.9447,878.0277,z,1,1.0716,,[],[],[],[],[],[],[],878.0278,880.0284,880.0284,880.0287,[],[],[],[],[],[],[],,,,880.0287,880.0288,-0.038043002,-0.409922387,0,0,0,,0,145,145,28,1,2,RL,revune,cursive,revune_c.png,,,,
,,,,32294,001,2025-12-02_10h53.13.794,HW_LDT_1,2024.2.4,MacIntel,60.24096386,,,,,,,,,,,,,,,,,,,,,880.0298,880.2284,880.2284,880.7283,,,,,,,,,,,,,,1.0383,1,,,,,,,,,,,,,,z,,,,,,,,,,,,,,,,147,0,880.7288,881.7784,z,1,1.0383,,[],[],[],[],[],[],[],881.7785,883.7785,883.7785,883.7787,[],[],[],[],[],[],[],,,,883.7788,883.7788,-0.038043002,-0.409922387,0,0,0,,0,146,146,66,1,2,TL,prodive,cursive,prodive_c.png,,,,
,,,,32294,001,2025-12-02_10h53.13.794,HW_LDT_1,2024.2.4,MacIntel,60.24096386,,,,,,,,,,,,,,,,,,,,,883.7798,883.9783,883.9784,884.4785,,,,,,,,,,,,,,2.8216,1,,,,,,,,,,,,,,z,,,,,,,,,,,,,,,,148,1,884.4789,887.3117,z,1,2.8216,,[],[],[],[],[],[],[],887.3119,889.3117,889.3118,890.1784,[],[],[],[],[],[],[],z,0.8585,,890.1784,890.1786,-0.038043002,-0.409922387,0,0,0,,0,147,147,29,1,2,RL,samite,cursive,samite_c.png,,,,
,,,,32294,001,2025-12-02_10h53.13.794,HW_LDT_1,2024.2.4,MacIntel,60.24096386,,,,,,,,,,,,,,,,,,,,,890.1795,890.3781,890.3781,890.8783,,,,,,,,,,,,,,1.6549,1,,,,,,,,,,,,,,m,,,,,,,,,,,,,,,,149,0,890.8789,892.5442,m,1,1.6549,,[],[],[],[],[],[],[],892.5443,894.5449,894.545,894.5451,[],[],[],[],[],[],[],,,,894.5452,894.5453,-0.038043002,-0.409922387,0,0,0,,0,148,148,134,1,2,word,QUALIFY,cursive,qualify_c.png,,,,
,,,,32294,001,2025-12-02_10h53.13.794,HW_LDT_1,2024.2.4,MacIntel,60.24096386,,,,,,,,,,,,,,,,,,,,,894.5463,894.7446,894.7447,895.245,,,,,,,,,,,,,,2.4544,0,,,,,,,,,,,,,,m,,,,,,,,,,,,,,,,150,0,895.2454,897.7117,z,0,2.4544,,[],[],[],[],[],[],[],897.7118,899.7116,899.7117,899.7118,[],[],[],[],[],[],[],,,,899.7119,899.712,-0.038043002,-0.409922387,0,0,0,,0,149,149,121,1,2,word,MISTAKE,cursive,mistake_c.png,,,,
,,,,32294,001,2025-12-02_10h53.13.794,HW_LDT_1,2024.2.4,MacIntel,60.24096386,,,,,,,,,,,,,,,,,,,,,899.7131,899.9117,899.9117,900.4108,,,,,,,,,,,,,,1.1059,1,,,,,,,,,,,,,,z,,,,,,,,,,,,,,,,151,0,900.4113,901.5283,z,1,1.1059,,[],[],[],[],[],[],[],901.5285,903.5284,903.5284,903.5286,[],[],[],[],[],[],[],,,,903.5286,903.5287,-0.038043002,-0.409922387,0,0,0,,0,150,150,51,1,2,TL,etidor,cursive,etidor_c.png,,,,
,,,,32294,001,2025-12-02_10h53.13.794,HW_LDT_1,2024.2.4,MacIntel,60.24096386,,,,,,,,,,,,,,,,,,,,,903.5298,903.7275,903.7275,904.2282,,,,,,,,,,,,,,1.171,1,,,,,,,,,,,,,,m,,,,,,,,,,,,,,,,152,0,904.2287,905.4117,m,1,1.171,,[],[],[],[],[],[],[],905.4117,907.4116,907.4116,907.4118,[],[],[],[],[],[],[],,,,907.4119,907.412,-0.038043002,-0.409922387,0,0,0,,0,151,151,85,1,2,word,BENEFIT,cursive,benefit_c.png,,,,
,,,,32294,001,2025-12-02_10h53.13.794,HW_LDT_1,2024.2.4,MacIntel,60.24096386,,,,,,,,,,,,,,,,,,,,,907.413,907.6116,907.6116,908.1116,,,,,,,,,,,,,,0.8718,1,,,,,,,,,,,,,,z,,,,,,,,,,,,,,,,153,1,908.112,908.995,z,1,0.8718,,[],[],[],[],[],[],[],908.9951,910.994,910.9941,912.3781,[],[],[],[],[],[],[],m,1.3833,,912.3782,912.3783,-0.038043002,-0.409922387,0,0,0,,0,152,152,22,1,2,RL,posity,print,posity_p.png,,,,
,,,,32294,001,2025-12-02_10h53.13.794,HW_LDT_1,2024.2.4,MacIntel,60.24096386,,,,,,,,,,,,,,,,,,,,,912.3792,912.5782,912.5782,913.0783,,,,,,,,,,,,,,0.7406,1,,,,,,,,,,,,,,z,,,,,,,,,,,,,,,,154,0,913.0788,913.8282,z,1,0.7406,,[],[],[],[],[],[],[],913.8283,915.8282,915.8283,915.8284,[],[],[],[],[],[],[],,,,915.8284,915.8285,-0.038043002,-0.409922387,0,0,0,,0,153,153,25,1,2,RL,rabigly,print,rabigly_p.png,,,,
,,,,32294,001,2025-12-02_10h53.13.794,HW_LDT_1,2024.2.4,MacIntel,60.24096386,,,,,,,,,,,,,,,,,,,,,915.8296,916.0282,916.0282,916.5282,,,,,,,,,,,,,,1.372,1,,,,,,,,,,,,,,m,,,,,,,,,,,,,,,,155,0,916.5287,917.9116,m,1,1.372,,[],[],[],[],[],[],[],917.9117,919.9114,919.9115,919.9117,[],[],[],[],[],[],[],,,,919.9118,919.9119,-0.038043002,-0.409922387,0,0,0,,0,154,154,124,1,2,word,NUMERICAL,cursive,numerical_c.png,,,,
,,,,32294,001,2025-12-02_10h53.13.794,HW_LDT_1,2024.2.4,MacIntel,60.24096386,,,,,,,,,,,,,,,,,,,,,919.9129,920.1115,920.1116,920.6115,,,,,,,,,,,,,,0.8717,1,,,,,,,,,,,,,,z,,,,,,,,,,,,,,,,156,0,920.612,921.4949,z,1,0.8717,,[],[],[],[],[],[],[],921.495,923.4948,923.4949,923.4951,[],[],[],[],[],[],[],,,,923.4952,923.4953,-0.038043002,-0.409922387,0,0,0,,0,155,155,63,1,2,TL,orinigal,print,orinigal_p.png,,,,
,,,,32294,001,2025-12-02_10h53.13.794,HW_LDT_1,2024.2.4,MacIntel,60.24096386,,,,,,,,,,,,,,,,,,,,,923.4963,923.6948,923.6949,924.1948,,,,,,,,,,,,,,0.8716,1,,,,,,,,,,,,,,m,,,,,,,,,,,,,,,,157,0,924.1953,925.0783,m,1,0.8716,,[],[],[],[],[],[],[],925.0783,927.0781,927.0782,927.0783,[],[],[],[],[],[],[],,,,927.0784,927.0784,-0.038043002,-0.409922387,0,0,0,,0,156,156,149,1,2,word,SENATOR,print,senator_p.png,,,,
,,,,32294,001,2025-12-02_10h53.13.794,HW_LDT_1,2024.2.4,MacIntel,60.24096386,,,,,,,,,,,,,,,,,,,,,927.0796,927.2781,927.2782,927.7781,,,,,,,,,,,,,,0.7048,1,,,,,,,,,,,,,,m,,,,,,,,,,,,,,,,158,0,927.7786,928.4949,m,1,0.7048,,[],[],[],[],[],[],[],928.495,930.4947,930.4948,930.495,[],[],[],[],[],[],[],,,,930.495,930.4951,-0.038043002,-0.409922387,0,0,0,,0,157,157,135,1,2,word,QUALITY,cursive,quality_c.png,,,,
,,,,32294,001,2025-12-02_10h53.13.794,HW_LDT_1,2024.2.4,MacIntel,60.24096386,,,,,,,,,,,,,,,,,,,,,930.4962,930.6947,930.6948,931.1948,,,,,,,,,,,,,,1.8905,1,,,,,,,,,,,,,,z,,,,,,,,,,,,,,,,159,0,931.1952,933.0948,z,1,1.8905,,[],[],[],[],[],[],[],933.095,935.0947,935.0948,935.095,[],[],[],[],[],[],[],,,,935.095,935.0951,-0.038043002,-0.409922387,0,0,0,,0,158,158,52,1,2,TL,elarobate,cursive,elarobate_c.png,,,,
,,,,32294,001,2025-12-02_10h53.13.794,HW_LDT_1,2024.2.4,MacIntel,60.24096386,,,,,,,,,,,,,,,,,,,,,935.0962,935.2948,935.2949,935.7948,,,,,,,,,,,,,,1.0482,1,,,,,,,,,,,,,,z,,,,,,,,,,,,,,,,160,0,935.7953,936.8447,z,1,1.0482,,[],[],[],[],[],[],[],936.8447,938.8448,938.8448,938.8451,[],[],[],[],[],[],[],,,,938.8452,938.8453,-0.038043002,-0.409922387,0,0,0,,0,159,159,75,1,2,TL,ronamtic,print,ronamtic_p.png,,,,
,,,,32294,001,2025-12-02_10h53.13.794,HW_LDT_1,2024.2.4,MacIntel,60.24096386,,,,,,,,,,,,,,,,,,,,,,,,,,,,,,,,,,,,,,,,,,,,,,,,,,,,,,,,,,,,,,,,,,,,,,,,,,,,,,,,,,,,,,,,,,,,,,,,,,,,,,,,,,,,,,,,,,,,,,938.8535,943.845
