counterbalance_lists.group,counterbalance_lists.remaining,get_list.started,get_list.stopped,participant,session,date,expName,psychopyVersion,OS,frameRate,Instructions.started,Instructions.stopped,key_resp.keys,instr_done_touch.x,instr_done_touch.y,instr_done_touch.leftButton,instr_done_touch.midButton,instr_done_touch.rightButton,instr_done_touch.clicked_name,start_instr.thisRepN,start_instr.thisTrialN,start_instr.thisN,start_instr.thisIndex,start_instr.ran,pageN,phase,instruct_text,has_image,instruct_image,showProgress.started,showProgress.stopped,fix.started,fix.stopped,prac.started,prac.stopped,response.keys,response.corr,response.rt,response.duration,touch_resp.x,touch_resp.y,touch_resp.leftButton,touch_resp.midButton,touch_resp.rightButton,touch_resp.time,touch_resp.clicked_name,rt,corr,feedback.started,feedback.stopped,trials.thisRepN,trials.thisTrialN,trials.thisN,trials.thisIndex,trials.ran,TrialID,StimulusType,Condition,PrimeDuration,Prime,Target,corrAns,Instructions_expt.started,Instructions_expt.stopped,key_resp_3.keys,instr_done_touch_3.x,instr_done_touch_3.y,instr_done_touch_3.leftButton,instr_done_touch_3.midButton,instr_done_touch_3.rightButton,instr_done_touch_3.clicked_name,instr_experiment.thisRepN,instr_experiment.thisTrialN,instr_experiment.thisN,instr_experiment.thisIndex,instr_experiment.ran,trialID,flag,maintask.started,maintask.stopped,key_resp_2.keys,key_resp_2.corr,key_resp_2.rt,key_resp_2.duration,targ_click.x,targ_click.y,targ_click.leftButton,targ_click.midButton,targ_click.rightButton,targ_click.time,targ_click.clicked_name,ITI.started,ITI.stopped,probe.started,probe.stopped,click_probe.x,click_probe.y,click_probe.leftButton,click_probe.midButton,click_probe.rightButton,click_probe.time,click_probe.clicked_name,key_resp_probe.keys,Break.started,Break.stopped,break_done_touch.x,break_done_touch.y,break_done_touch.leftButton,break_done_touch.midButton,break_done_touch.rightButton,break_done_keyboard.keys,list2_trials.thisRepN,list2_trials.thisTrialN,list2_trials.thisN,list2_trials.thisIndex,list2_trials.ran,list_id,item_type,string,font,stim_file,key_resp_probe.rt,key_resp_probe.duration,break_done_touch.clicked_name,End.started,End.stopped
list2,,4.9285,4.9286,32301,001,2025-11-06_23h34.05.006,HW_LDT_1,2024.2.4,MacIntel,59.88023952,,,,,,,,,,,,,,,,,,,,,,,,,,,,,,,,,,,,,,,,,,,,,,,,,,,,,,,,,,,,,,,,,,,,,,,,,,,,,,,,,,,,,,,,,,,,,,,,,,,,,,,,,,,,,,,,,,,,
,,,,32301,001,2025-11-06_23h34.05.006,HW_LDT_1,2024.2.4,MacIntel,59.88023952,4.9445,28.3892,,0.059331754,-0.390248947,1,0,0,instr_done_button,0,0,0,0,1,1,instructions,"INSTRUCTIONS
At the start of each trial, look at the plus sign  (+) in the center of the screen.  This tells you that a trial is about to begin and where to look. Second, the plus sign will disappear and a string of letters will appear. Your task is to determine if the string of letters is a word or not. If the item is a word press the M key (on keyboard)  or touch the word button (phone/tablet).  If the item is not a word,  press the  Z key (on keyboard)  or touch the nonword button (on phone/tablet). The items will be presented for a short time. 
Press the space bar or touch  continue.",0,,,,,,,,,,,,,,,,,,,,,,,,,,,,,,,,,,,,,,,,,,,,,,,,,,,,,,,,,,,,,,,,,,,,,,,,,,,,,,,,,,,,,,,,,,,,,,,,,,
,,,,32301,001,2025-11-06_23h34.05.006,HW_LDT_1,2024.2.4,MacIntel,59.88023952,28.3909,36.4208,,0.059167231,-0.420004137,1,0,0,instr_done_button,0,1,1,1,1,2,instructions,"If your device has a keyboard, press the 'Z' key for nonwords and the 'M' key for words.





Press the space bar or touch the button below to continue.",0,keyboard-example.gif,,,,,,,,,,,,,,,,,,,,,,,,,,,,,,,,,,,,,,,,,,,,,,,,,,,,,,,,,,,,,,,,,,,,,,,,,,,,,,,,,,,,,,,,,,,,,,,,,
,,,,32301,001,2025-11-06_23h34.05.006,HW_LDT_1,2024.2.4,MacIntel,59.88023952,36.4222,42.9209,,0.066284033,-0.40497142,1,0,0,instr_done_button,0,2,2,2,1,3,instructions,"If you are using a touchscreen only device, use the buttons on the screen. Do not use the mouse.





Press the space bar or touch the button below to continue.",0,touchscreen-example.gif,,,,,,,,,,,,,,,,,,,,,,,,,,,,,,,,,,,,,,,,,,,,,,,,,,,,,,,,,,,,,,,,,,,,,,,,,,,,,,,,,,,,,,,,,,,,,,,,,
,,,,32301,001,2025-11-06_23h34.05.006,HW_LDT_1,2024.2.4,MacIntel,59.88023952,42.9227,52.055,,0.066284033,-0.40497142,1,0,0,instr_done_button,0,3,3,3,1,4,instructions,"It is very important that you respond as quickly and accurately as possible, as each letter string will only be on the screen for two seconds. If you do not respond within this time, the message 'Too slow!' will be displayed and the experiment will progress to the next letter string. The first 20 trials will be practice trials and you will receive feedback on your answers. 

Press the space bar or touch the button below to start the practice trials.",0,,,,,,,,,,,,,,,,,,,,,,,,,,,,,,,,,,,,,,,,,,,,,,,,,,,,,,,,,,,,,,,,,,,,,,,,,,,,,,,,,,,,,,,,,,,,,,,,,,
,,,,32301,001,2025-11-06_23h34.05.006,HW_LDT_1,2024.2.4,MacIntel,59.88023952,,,,,,,,,,,,,,,,,,,,52.0786,52.2554,52.2557,52.7542,52.7546,55.6214,m,1,2.8384,,[],[],[],[],[],[],[],2.8384,1,55.6219,56.122,0,0,0,4,1,1005,WORD,UN,33,abound,SQUEAK,m,,,,,,,,,,,,,,,,,,,,,,,,,,,,,,,,,,,,,,,,,,,,,,,,,,,,,,,,,,,,,,,,
,,,,32301,001,2025-11-06_23h34.05.006,HW_LDT_1,2024.2.4,MacIntel,59.88023952,,,,,,,,,,,,,,,,,,,,56.1234,56.3207,56.3208,56.8209,56.8218,58.1386,z,1,1.2961,,[],[],[],[],[],[],[],1.2961,1,58.1387,58.6384,0,1,1,9,1,1010,NW,"ID",33,fariny,FARINY,z,,,,,,,,,,,,,,,,,,,,,,,,,,,,,,,,,,,,,,,,,,,,,,,,,,,,,,,,,,,,,,,,
,,,,32301,001,2025-11-06_23h34.05.006,HW_LDT_1,2024.2.4,MacIntel,59.88023952,,,,,,,,,,,,,,,,,,,,58.6398,58.8384,58.8385,59.3384,59.3396,60.4218,z,1,1.0618,,[],[],[],[],[],[],[],1.0618,1,60.4221,60.9217,0,2,2,13,1,1014,NW,UN,33,winfer,ROUPET,z,,,,,,,,,,,,,,,,,,,,,,,,,,,,,,,,,,,,,,,,,,,,,,,,,,,,,,,,,,,,,,,,
,,,,32301,001,2025-11-06_23h34.05.006,HW_LDT_1,2024.2.4,MacIntel,59.88023952,,,,,,,,,,,,,,,,,,,,60.923,61.1217,61.1218,61.6208,61.6217,62.3719,z,1,0.7288,,[],[],[],[],[],[],[],0.7288,1,62.3721,62.8709,0,3,3,8,1,1009,NW,"ID",33,aslert,ASLERT,z,,,,,,,,,,,,,,,,,,,,,,,,,,,,,,,,,,,,,,,,,,,,,,,,,,,,,,,,,,,,,,,,
,,,,32301,001,2025-11-06_23h34.05.006,HW_LDT_1,2024.2.4,MacIntel,59.88023952,,,,,,,,,,,,,,,,,,,,62.8722,63.0718,63.0718,63.5708,63.5717,64.1552,z,1,0.5667,,[],[],[],[],[],[],[],0.5667,1,64.1553,64.6552,0,4,4,11,1,1012,NW,"ID",16,rashet,RASHET,z,,,,,,,,,,,,,,,,,,,,,,,,,,,,,,,,,,,,,,,,,,,,,,,,,,,,,,,,,,,,,,,,
,,,,32301,001,2025-11-06_23h34.05.006,HW_LDT_1,2024.2.4,MacIntel,59.88023952,,,,,,,,,,,,,,,,,,,,64.6564,64.8541,64.8542,65.3541,65.3551,65.9552,m,1,0.5901,,[],[],[],[],[],[],[],0.5901,1,65.9554,66.4542,0,5,5,6,1,1007,WORD,UN,16,tropic,ZOMBIE,m,,,,,,,,,,,,,,,,,,,,,,,,,,,,,,,,,,,,,,,,,,,,,,,,,,,,,,,,,,,,,,,,
,,,,32301,001,2025-11-06_23h34.05.006,HW_LDT_1,2024.2.4,MacIntel,59.88023952,,,,,,,,,,,,,,,,,,,,66.4554,66.6541,66.6542,67.1551,67.1561,68.0885,m,1,0.9132,,[],[],[],[],[],[],[],0.9132,1,68.0887,68.5876,0,6,6,3,1,1004,WORD,"ID",16,matrix,MATRIX,m,,,,,,,,,,,,,,,,,,,,,,,,,,,,,,,,,,,,,,,,,,,,,,,,,,,,,,,,,,,,,,,,
,,,,32301,001,2025-11-06_23h34.05.006,HW_LDT_1,2024.2.4,MacIntel,59.88023952,,,,,,,,,,,,,,,,,,,,68.5889,68.7875,68.7875,69.2875,69.2885,69.9718,m,1,0.6624,,[],[],[],[],[],[],[],0.6624,1,69.972,70.4717,0,7,7,7,1,1008,WORD,UN,16,hurdle,VOLUME,m,,,,,,,,,,,,,,,,,,,,,,,,,,,,,,,,,,,,,,,,,,,,,,,,,,,,,,,,,,,,,,,,
,,,,32301,001,2025-11-06_23h34.05.006,HW_LDT_1,2024.2.4,MacIntel,59.88023952,,,,,,,,,,,,,,,,,,,,70.473,70.6717,70.6717,71.1717,71.1726,72.1219,z,1,0.9337,,[],[],[],[],[],[],[],0.9337,1,72.122,72.6208,0,8,8,15,1,1016,NW,UN,16,mushed,WHAISE,z,,,,,,,,,,,,,,,,,,,,,,,,,,,,,,,,,,,,,,,,,,,,,,,,,,,,,,,,,,,,,,,,
,,,,32301,001,2025-11-06_23h34.05.006,HW_LDT_1,2024.2.4,MacIntel,59.88023952,,,,,,,,,,,,,,,,,,,,72.6221,72.8218,72.8218,73.3218,73.3227,73.9718,m,1,0.63,,[],[],[],[],[],[],[],0.63,1,73.9721,74.4718,0,9,9,1,1,1002,WORD,"ID",33,adjust,ADJUST,m,,,,,,,,,,,,,,,,,,,,,,,,,,,,,,,,,,,,,,,,,,,,,,,,,,,,,,,,,,,,,,,,
,,,,32301,001,2025-11-06_23h34.05.006,HW_LDT_1,2024.2.4,MacIntel,59.88023952,,,,,,,,,,,,,,,,,,,,74.4731,74.6718,74.6718,75.1717,75.1725,76.1552,m,1,0.9623,,[],[],[],[],[],[],[],0.9623,1,76.1553,76.6551,0,10,10,0,1,1001,WORD,"ID",33,utopia,UTOPIA,m,,,,,,,,,,,,,,,,,,,,,,,,,,,,,,,,,,,,,,,,,,,,,,,,,,,,,,,,,,,,,,,,
,,,,32301,001,2025-11-06_23h34.05.006,HW_LDT_1,2024.2.4,MacIntel,59.88023952,,,,,,,,,,,,,,,,,,,,76.6563,76.8541,76.8541,77.3551,77.3559,78.2384,z,1,0.8718,,[],[],[],[],[],[],[],0.8718,1,78.2385,78.7375,0,11,11,10,1,1011,NW,"ID",16,inlade,INLADE,z,,,,,,,,,,,,,,,,,,,,,,,,,,,,,,,,,,,,,,,,,,,,,,,,,,,,,,,,,,,,,,,,
,,,,32301,001,2025-11-06_23h34.05.006,HW_LDT_1,2024.2.4,MacIntel,59.88023952,,,,,,,,,,,,,,,,,,,,78.7389,78.9384,78.9384,79.4384,79.4392,80.4052,m,1,0.9448,,[],[],[],[],[],[],[],0.9448,1,80.4054,80.9052,0,12,12,2,1,1003,WORD,"ID",16,almond,ALMOND,m,,,,,,,,,,,,,,,,,,,,,,,,,,,,,,,,,,,,,,,,,,,,,,,,,,,,,,,,,,,,,,,,
,,,,32301,001,2025-11-06_23h34.05.006,HW_LDT_1,2024.2.4,MacIntel,59.88023952,,,,,,,,,,,,,,,,,,,,80.9064,81.1049,81.105,81.6041,81.605,82.4376,z,1,0.8149,,[],[],[],[],[],[],[],0.8149,1,82.4378,82.9376,0,13,13,14,1,1015,NW,UN,16,miaber,THRALE,z,,,,,,,,,,,,,,,,,,,,,,,,,,,,,,,,,,,,,,,,,,,,,,,,,,,,,,,,,,,,,,,,
,,,,32301,001,2025-11-06_23h34.05.006,HW_LDT_1,2024.2.4,MacIntel,59.88023952,,,,,,,,,,,,,,,,,,,,82.9388,83.1384,83.1384,83.6384,83.6392,84.5384,z,1,0.8876,,[],[],[],[],[],[],[],0.8876,1,84.5385,85.0376,0,14,14,12,1,1013,NW,UN,33,adveil,SPRINY,z,,,,,,,,,,,,,,,,,,,,,,,,,,,,,,,,,,,,,,,,,,,,,,,,,,,,,,,,,,,,,,,,
,,,,32301,001,2025-11-06_23h34.05.006,HW_LDT_1,2024.2.4,MacIntel,59.88023952,,,,,,,,,,,,,,,,,,,,85.0388,85.2384,85.2385,85.7384,85.7392,86.4208,m,1,0.6667,,[],[],[],[],[],[],[],0.6667,1,86.421,86.9218,0,15,15,5,1,1006,WORD,UN,33,frenzy,OBTAIN,m,,,,,,,,,,,,,,,,,,,,,,,,,,,,,,,,,,,,,,,,,,,,,,,,,,,,,,,,,,,,,,,,
,,,,32301,001,2025-11-06_23h34.05.006,HW_LDT_1,2024.2.4,MacIntel,59.88023952,,,,,,,,,,,,,,,1,end_of_practice,"You have completed the practice trials. During the experimental trials, you will not receive feedback. On some trials you will be asked to report whether the item you just saw was in cursive or print. 
Before you begin, please ensure that you are in a comfortable and quiet location and will not be disturbed for about 15 minutes, as we cannot use your data if you do not complete all the trials. 
 When you are ready to start the experimental trials, please press space or touch the button below.",,,,,,,,,,,,,,,,,,,,,,,,,,,,,,,,,,,,86.9273,101.5556,,0.042738418,-0.407472172,1,0,0,instr_done_button_3,0,0,0,0,1,,,,,,,,,,,,,,,,,,,,,,,,,,,,,,,,,,,,,,,,,,,,,,,,,,
,,,,32301,001,2025-11-06_23h34.05.006,HW_LDT_1,2024.2.4,MacIntel,59.88023952,,,,,,,,,,,,,,,,,,,,101.5675,101.7551,101.7552,102.2552,,,,,,,,,,,,,,1.8383,0,,,,,,,,,,,,,,z,,,,,,,,,,,,,,,1,0,102.2566,104.1047,m,0,1.8383,,[],[],[],[],[],[],[],104.1051,106.1045,106.1046,106.1075,[],[],[],[],[],[],[],,106.1076,106.1086,0.042587996,-0.407472172,0,0,0,,0,0,0,79,1,2,TL,vadility,print,vadility_p.png,,,,,
,,,,32301,001,2025-11-06_23h34.05.006,HW_LDT_1,2024.2.4,MacIntel,59.88023952,,,,,,,,,,,,,,,,,,,,106.1092,106.3051,106.3052,106.8052,,,,,,,,,,,,,,3.4357,0,,,,,,,,,,,,,,m,,,,,,,,,,,,,,,2,0,106.8058,110.2552,z,0,3.4357,,[],[],[],[],[],[],[],110.2554,112.2552,112.2552,112.2555,[],[],[],[],[],[],[],,112.2555,112.2557,0.042587996,-0.407472172,0,0,0,,0,1,1,125,1,2,word,OPERATOR,cursive,operator_c.png,,,,,
,,,,32301,001,2025-11-06_23h34.05.006,HW_LDT_1,2024.2.4,MacIntel,59.88023952,,,,,,,,,,,,,,,,,,,,112.2568,112.4542,112.4544,112.9551,,,,,,,,,,,,,,1.1372,1,,,,,,,,,,,,,,m,,,,,,,,,,,,,,,3,1,112.9557,114.1045,m,1,1.1372,,[],[],[],[],[],[],[],114.1045,116.1052,116.1052,118.8054,[],[],[],[],[],[],[],m,118.8054,118.8057,0.306469051,-0.367055881,0,0,0,,0,2,2,118,1,2,word,MEDICINE,print,medicine_p.png,2.6906,,,,
,,,,32301,001,2025-11-06_23h34.05.006,HW_LDT_1,2024.2.4,MacIntel,59.88023952,,,,,,,,,,,,,,,,,,,,118.807,119.0043,119.0043,119.5052,,,,,,,,,,,,,,2.1527,1,,,,,,,,,,,,,,m,,,,,,,,,,,,,,,4,0,119.5058,121.6719,m,1,2.1527,,[],[],[],[],[],[],[],121.672,123.6718,123.6719,123.6722,[],[],[],[],[],[],[],,123.6722,123.6722,-0.065461417,-0.295540012,0,0,0,,0,3,3,145,1,2,word,RESUME,cursive,resume_c.png,,,,,
,,,,32301,001,2025-11-06_23h34.05.006,HW_LDT_1,2024.2.4,MacIntel,59.88023952,,,,,,,,,,,,,,,,,,,,123.6734,123.8709,123.8709,124.3718,,,,,,,,,,,,,,4.2702,1,,,,,,,,,,,,,,z,,,,,,,,,,,,,,,5,0,124.3723,128.6544,z,1,4.2702,,[],[],[],[],[],[],[],128.6545,130.6551,130.6551,130.6554,[],[],[],[],[],[],[],,130.6554,130.6556,-0.065461417,-0.295540012,0,0,0,,0,4,4,62,1,2,TL,opmital,cursive,opmital_c.png,,,,,
,,,,32301,001,2025-11-06_23h34.05.006,HW_LDT_1,2024.2.4,MacIntel,59.88023952,,,,,,,,,,,,,,,,,,,,130.6566,130.8551,130.8552,131.3551,,,,,,,,,,,,,,4.1115,1,,,,,,,,,,,,,,z,,,,,,,,,,,,,,,6,0,131.3557,135.4718,z,1,4.1115,,[],[],[],[],[],[],[],135.472,137.471,137.4711,137.4715,[],[],[],[],[],[],[],,137.4715,137.4716,-0.065461417,-0.295540012,0,0,0,,0,5,5,56,1,2,TL,marnigal,cursive,marnigal_c.png,,,,,
,,,,32301,001,2025-11-06_23h34.05.006,HW_LDT_1,2024.2.4,MacIntel,59.88023952,,,,,,,,,,,,,,,,,,,,137.4727,137.6718,137.6718,138.1718,,,,,,,,,,,,,,1.6464,1,,,,,,,,,,,,,,z,,,,,,,,,,,,,,,7,0,138.1723,139.8217,z,1,1.6464,,[],[],[],[],[],[],[],139.8218,141.8208,141.821,141.8212,[],[],[],[],[],[],[],,141.8212,141.8214,-0.065461417,-0.295540012,0,0,0,,0,6,6,22,1,2,RL,posity,print,posity_p.png,,,,,
,,,,32301,001,2025-11-06_23h34.05.006,HW_LDT_1,2024.2.4,MacIntel,59.88023952,,,,,,,,,,,,,,,,,,,,141.8224,142.0218,142.0218,142.5218,,,,,,,,,,,,,,1.9292,1,,,,,,,,,,,,,,m,,,,,,,,,,,,,,,8,0,142.5224,144.4552,m,1,1.9292,,[],[],[],[],[],[],[],144.4552,146.4552,146.4553,146.4555,[],[],[],[],[],[],[],,146.4555,146.4556,-0.065461417,-0.295540012,0,0,0,,0,7,7,116,1,2,word,MARGINAL,cursive,marginal_c.png,,,,,
,,,,32301,001,2025-11-06_23h34.05.006,HW_LDT_1,2024.2.4,MacIntel,59.88023952,,,,,,,,,,,,,,,,,,,,146.4568,146.6551,146.6552,147.1551,,,,,,,,,,,,,,1.5886,1,,,,,,,,,,,,,,m,,,,,,,,,,,,,,,9,0,147.1556,148.7552,m,1,1.5886,,[],[],[],[],[],[],[],148.7554,150.7551,150.7552,150.7554,[],[],[],[],[],[],[],,150.7554,150.7556,-0.065461417,-0.295540012,0,0,0,,0,8,8,155,1,2,word,STRATEGY,cursive,strategy_c.png,,,,,
,,,,32301,001,2025-11-06_23h34.05.006,HW_LDT_1,2024.2.4,MacIntel,59.88023952,,,,,,,,,,,,,,,,,,,,150.7568,150.9551,150.9552,151.4552,,,,,,,,,,,,,,1.5729,1,,,,,,,,,,,,,,z,,,,,,,,,,,,,,,10,1,151.4557,153.0385,z,1,1.5729,,[],[],[],[],[],[],[],153.0386,155.0385,155.0385,157.7718,[],[],[],[],[],[],[],z,157.7718,157.7719,-0.20255622,-0.33743231,0,0,0,,0,9,9,24,1,2,RL,rasibal,cursive,rasibal_c.png,2.7301,,,,
,,,,32301,001,2025-11-06_23h34.05.006,HW_LDT_1,2024.2.4,MacIntel,59.88023952,,,,,,,,,,,,,,,,,,,,157.7728,157.9719,157.9719,158.4719,,,,,,,,,,,,,,3.9203,0,,,,,,,,,,,,,,m,,,,,,,,,,,,,,,11,0,158.4724,162.4052,z,0,3.9203,,[],[],[],[],[],[],[],162.4053,164.4051,164.4052,164.4053,[],[],[],[],[],[],[],,164.4054,164.4057,-0.000874323,-0.281090177,0,0,0,,0,10,10,120,1,2,word,MILITARY,cursive,military_c.png,,,,,
,,,,32301,001,2025-11-06_23h34.05.006,HW_LDT_1,2024.2.4,MacIntel,59.88023952,,,,,,,,,,,,,,,,,,,,164.4068,164.6052,164.6052,165.1052,,,,,,,,,,,,,,0.9992,1,,,,,,,,,,,,,,m,,,,,,,,,,,,,,,12,0,165.1057,166.1059,m,1,0.9992,,[],[],[],[],[],[],[],166.106,168.1052,168.1052,168.1054,[],[],[],[],[],[],[],,168.1055,168.1056,-0.000874323,-0.281090177,0,0,0,,0,11,11,153,1,2,word,STOLEN,print,stolen_p.png,,,,,
,,,,32301,001,2025-11-06_23h34.05.006,HW_LDT_1,2024.2.4,MacIntel,59.88023952,,,,,,,,,,,,,,,,,,,,168.1067,168.3052,168.3052,168.8052,,,,,,,,,,,,,,2.3293,1,,,,,,,,,,,,,,z,,,,,,,,,,,,,,,13,1,168.8057,171.1384,z,1,2.3293,,[],[],[],[],[],[],[],171.1385,173.1385,173.1386,175.3053,[],[],[],[],[],[],[],m,175.3054,175.3055,-0.000874323,-0.281090177,0,0,0,,0,12,12,70,1,2,TL,retalive,print,retalive_p.png,2.1564,,,,
,,,,32301,001,2025-11-06_23h34.05.006,HW_LDT_1,2024.2.4,MacIntel,59.88023952,,,,,,,,,,,,,,,,,,,,175.3067,175.5052,175.5053,176.0052,,,,,,,,,,,,,,1.6794,1,,,,,,,,,,,,,,m,,,,,,,,,,,,,,,14,1,176.0058,177.6885,m,1,1.6794,,[],[],[],[],[],[],[],177.6886,179.6886,179.6886,181.5887,[],[],[],[],[],[],[],m,181.5888,181.5888,-0.000874323,-0.281090177,0,0,0,,0,13,13,149,1,2,word,SENATOR,print,senator_p.png,1.8881,,,,
,,,,32301,001,2025-11-06_23h34.05.006,HW_LDT_1,2024.2.4,MacIntel,59.88023952,,,,,,,,,,,,,,,,,,,,181.5897,181.7885,181.7886,182.2886,,,,,,,,,,,,,,1.3974,1,,,,,,,,,,,,,,m,,,,,,,,,,,,,,,15,0,182.289,183.6884,m,1,1.3974,,[],[],[],[],[],[],[],183.6885,185.6885,185.6886,185.6888,[],[],[],[],[],[],[],,185.6889,185.689,-0.000874323,-0.281090177,0,0,0,,0,14,14,114,1,2,word,LOCATE,print,locate_p.png,,,,,
,,,,32301,001,2025-11-06_23h34.05.006,HW_LDT_1,2024.2.4,MacIntel,59.88023952,,,,,,,,,,,,,,,,,,,,185.6901,185.8885,185.8885,186.3885,,,,,,,,,,,,,,1.8704,1,,,,,,,,,,,,,,z,,,,,,,,,,,,,,,16,1,186.389,188.2718,z,1,1.8704,,[],[],[],[],[],[],[],188.272,190.272,190.272,192.0388,[],[],[],[],[],[],[],m,192.0389,192.0391,-0.000874323,-0.281090177,0,0,0,,0,15,15,63,1,2,TL,orinigal,print,orinigal_p.png,1.7659,,,,
,,,,32301,001,2025-11-06_23h34.05.006,HW_LDT_1,2024.2.4,MacIntel,59.88023952,,,,,,,,,,,,,,,,,,,,192.0402,192.2385,192.2386,192.7385,,,,,,,,,,,,,,4.4312,1,,,,,,,,,,,,,,z,,,,,,,,,,,,,,,17,0,192.7391,197.1719,z,1,4.4312,,[],[],[],[],[],[],[],197.172,199.1719,199.172,199.1722,[],[],[],[],[],[],[],,199.1722,199.1724,-0.000874323,-0.281090177,0,0,0,,0,16,16,67,1,2,TL,quafily,cursive,quafily_c.png,,,,,
,,,,32301,001,2025-11-06_23h34.05.006,HW_LDT_1,2024.2.4,MacIntel,59.88023952,,,,,,,,,,,,,,,,,,,,199.1735,199.3719,199.3719,199.8719,,,,,,,,,,,,,,4.6207,1,,,,,,,,,,,,,,m,,,,,,,,,,,,,,,18,0,199.8724,204.5053,m,1,4.6207,,[],[],[],[],[],[],[],204.5054,206.5052,206.5053,206.5054,[],[],[],[],[],[],[],,206.5055,206.5056,-0.000874323,-0.281090177,0,0,0,,0,17,17,97,1,2,word,COVERAGE,cursive,coverage_c.png,,,,,
,,,,32301,001,2025-11-06_23h34.05.006,HW_LDT_1,2024.2.4,MacIntel,59.88023952,,,,,,,,,,,,,,,,,,,,206.5067,206.7052,206.7053,207.2052,,,,,,,,,,,,,,1.396,1,,,,,,,,,,,,,,m,,,,,,,,,,,,,,,19,0,207.2058,208.6051,m,1,1.396,,[],[],[],[],[],[],[],208.6052,210.6053,210.6053,210.6055,[],[],[],[],[],[],[],,210.6056,210.6058,-0.000874323,-0.281090177,0,0,0,,0,18,18,100,1,2,word,DECADE,print,decade_p.png,,,,,
,,,,32301,001,2025-11-06_23h34.05.006,HW_LDT_1,2024.2.4,MacIntel,59.88023952,,,,,,,,,,,,,,,,,,,,210.6069,210.8052,210.8052,211.3052,,,,,,,,,,,,,,5.1962,0,,,,,,,,,,,,,,m,,,,,,,,,,,,,,,20,0,211.3057,216.5053,z,0,5.1962,,[],[],[],[],[],[],[],216.5054,218.5052,218.5053,218.5055,[],[],[],[],[],[],[],,218.5056,218.5057,-0.000874323,-0.281090177,0,0,0,,0,19,19,124,1,2,word,NUMERICAL,cursive,numerical_c.png,,,,,
,,,,32301,001,2025-11-06_23h34.05.006,HW_LDT_1,2024.2.4,MacIntel,59.88023952,,,,,,,,,,,,,,,,,,,,218.5069,218.7052,218.7054,219.2052,,,,,,,,,,,,,,1.846,1,,,,,,,,,,,,,,z,,,,,,,,,,,,,,,21,0,219.2057,221.0549,z,1,1.846,,[],[],[],[],[],[],[],221.0549,223.0553,223.0554,223.0555,[],[],[],[],[],[],[],,223.0556,223.0558,-0.000874323,-0.281090177,0,0,0,,0,20,20,78,1,2,TL,stogare,print,stogare_p.png,,,,,
,,,,32301,001,2025-11-06_23h34.05.006,HW_LDT_1,2024.2.4,MacIntel,59.88023952,,,,,,,,,,,,,,,,,,,,223.057,223.2552,223.2553,223.7552,,,,,,,,,,,,,,1.6961,1,,,,,,,,,,,,,,z,,,,,,,,,,,,,,,22,0,223.7557,225.4552,z,1,1.6961,,[],[],[],[],[],[],[],225.4553,227.4552,227.4552,227.4555,[],[],[],[],[],[],[],,227.4555,227.4556,-0.000874323,-0.281090177,0,0,0,,0,21,21,15,1,2,RL,linedal,print,linedal_p.png,,,,,
,,,,32301,001,2025-11-06_23h34.05.006,HW_LDT_1,2024.2.4,MacIntel,59.88023952,,,,,,,,,,,,,,,,,,,,227.4567,227.6552,227.6553,228.1552,,,,,,,,,,,,,,1.4538,1,,,,,,,,,,,,,,m,,,,,,,,,,,,,,,23,0,228.1557,229.622,m,1,1.4538,,[],[],[],[],[],[],[],229.6221,231.622,231.622,231.6222,[],[],[],[],[],[],[],,231.6222,231.6223,-0.000874323,-0.281090177,0,0,0,,0,22,22,101,1,2,word,DELICATE,print,delicate_p.png,,,,,
,,,,32301,001,2025-11-06_23h34.05.006,HW_LDT_1,2024.2.4,MacIntel,59.88023952,,,,,,,,,,,,,,,,,,,,231.6234,231.822,231.822,232.3219,,,,,,,,,,,,,,0.9371,1,,,,,,,,,,,,,,m,,,,,,,,,,,,,,,24,1,232.3224,233.2719,m,1,0.9371,,[],[],[],[],[],[],[],233.272,235.272,235.2721,236.9718,[],[],[],[],[],[],[],m,236.9719,236.972,-0.000874323,-0.281090177,0,0,0,,0,23,23,137,1,2,word,RAPIDLY,print,rapidly_p.png,1.698,,,,
,,,,32301,001,2025-11-06_23h34.05.006,HW_LDT_1,2024.2.4,MacIntel,59.88023952,,,,,,,,,,,,,,,,,,,,236.9728,237.1719,237.172,237.6719,,,,,,,,,,,,,,1.9127,1,,,,,,,,,,,,,,z,,,,,,,,,,,,,,,25,0,237.6725,239.5885,z,1,1.9127,,[],[],[],[],[],[],[],239.5885,241.5886,241.5886,241.5888,[],[],[],[],[],[],[],,241.5888,241.5889,-0.000874323,-0.281090177,0,0,0,,0,24,24,50,1,2,TL,donimant,print,donimant_p.png,,,,,
,,,,32301,001,2025-11-06_23h34.05.006,HW_LDT_1,2024.2.4,MacIntel,59.88023952,,,,,,,,,,,,,,,,,,,,241.59,241.7886,241.7887,242.2886,,,,,,,,,,,,,,1.5477,1,,,,,,,,,,,,,,m,,,,,,,,,,,,,,,26,1,242.2891,243.8385,m,1,1.5477,,[],[],[],[],[],[],[],243.8386,245.8386,245.8386,247.7052,[],[],[],[],[],[],[],m,247.7053,247.7053,-0.000874323,-0.281090177,0,0,0,,0,25,25,110,1,2,word,HERITAGE,print,heritage_p.png,1.8636,,,,
,,,,32301,001,2025-11-06_23h34.05.006,HW_LDT_1,2024.2.4,MacIntel,59.88023952,,,,,,,,,,,,,,,,,,,,247.7063,247.9052,247.9053,248.4052,,,,,,,,,,,,,,1.3914,1,,,,,,,,,,,,,,m,,,,,,,,,,,,,,,27,0,248.4058,249.8053,m,1,1.3914,,[],[],[],[],[],[],[],249.8053,251.8044,251.8044,251.8047,[],[],[],[],[],[],[],,251.8047,251.8048,-0.000874323,-0.281090177,0,0,0,,0,26,26,122,1,2,word,MOBILE,print,mobile_p.png,,,,,
,,,,32301,001,2025-11-06_23h34.05.006,HW_LDT_1,2024.2.4,MacIntel,59.88023952,,,,,,,,,,,,,,,,,,,,251.8059,252.0053,252.0053,252.5053,,,,,,,,,,,,,,1.6055,1,,,,,,,,,,,,,,m,,,,,,,,,,,,,,,28,0,252.5058,254.1219,m,1,1.6055,,[],[],[],[],[],[],[],254.122,256.1219,256.122,256.1221,[],[],[],[],[],[],[],,256.1222,256.1223,-0.000874323,-0.281090177,0,0,0,,0,27,27,96,1,2,word,CONSIDER,print,consider_p.png,,,,,
,,,,32301,001,2025-11-06_23h34.05.006,HW_LDT_1,2024.2.4,MacIntel,59.88023952,,,,,,,,,,,,,,,,,,,,256.1234,256.3221,256.3222,256.8219,,,,,,,,,,,,,,1.4708,1,,,,,,,,,,,,,,z,,,,,,,,,,,,,,,29,0,256.8224,258.3054,z,1,1.4708,,[],[],[],[],[],[],[],258.3055,260.3043,260.3043,260.3045,[],[],[],[],[],[],[],,260.3046,260.3047,-0.000874323,-0.281090177,0,0,0,,0,28,28,27,1,2,RL,repifion,cursive,repifion_c.png,,,,,
,,,,32301,001,2025-11-06_23h34.05.006,HW_LDT_1,2024.2.4,MacIntel,59.88023952,,,,,,,,,,,,,,,,,,,,260.3057,260.5043,260.5044,261.0043,,,,,,,,,,,,,,2.455,1,,,,,,,,,,,,,,z,,,,,,,,,,,,,,,30,1,261.0049,263.4711,z,1,2.455,,[],[],[],[],[],[],[],263.4712,265.472,265.472,267.5054,[],[],[],[],[],[],[],z,267.5055,267.5056,-0.000874323,-0.281090177,0,0,0,,0,29,29,10,1,2,RL,disluge,cursive,disluge_c.png,2.0214,,,,
,,,,32301,001,2025-11-06_23h34.05.006,HW_LDT_1,2024.2.4,MacIntel,59.88023952,,,,,,,,,,,,,,,,,,,,267.5069,267.7053,267.7054,268.2053,,,,,,,,,,,,,,1.6373,1,,,,,,,,,,,,,,m,,,,,,,,,,,,,,,31,0,268.2057,269.8545,m,1,1.6373,,[],[],[],[],[],[],[],269.8546,271.8555,271.8556,271.8557,[],[],[],[],[],[],[],,271.8558,271.8558,-0.000874323,-0.281090177,0,0,0,,0,30,30,127,1,2,word,ORIGINAL,print,original_p.png,,,,,
,,,,32301,001,2025-11-06_23h34.05.006,HW_LDT_1,2024.2.4,MacIntel,59.88023952,,,,,,,,,,,,,,,,,,,,271.857,272.0553,272.0553,272.5554,,,,,,,,,,,,,,2.4224,1,,,,,,,,,,,,,,m,,,,,,,,,,,,,,,32,0,272.5559,274.9888,m,1,2.4224,,[],[],[],[],[],[],[],274.9889,276.9877,276.9877,276.9879,[],[],[],[],[],[],[],,276.988,276.9881,-0.000874323,-0.281090177,0,0,0,,0,31,31,80,1,2,word,ACADEMY,cursive,academy_c.png,,,,,
,,,,32301,001,2025-11-06_23h34.05.006,HW_LDT_1,2024.2.4,MacIntel,59.88023952,,,,,,,,,,,,,,,,,,,,276.9892,277.1887,277.1887,277.6886,,,,,,,,,,,,,,1.3872,1,,,,,,,,,,,,,,z,,,,,,,,,,,,,,,33,0,277.6892,279.0887,z,1,1.3872,,[],[],[],[],[],[],[],279.0888,281.0882,281.0882,281.0883,[],[],[],[],[],[],[],,281.0884,281.0884,-0.000874323,-0.281090177,0,0,0,,0,32,32,43,1,2,TL,carema,print,carema_p.png,,,,,
,,,,32301,001,2025-11-06_23h34.05.006,HW_LDT_1,2024.2.4,MacIntel,59.88023952,,,,,,,,,,,,,,,,,,,,281.0887,281.2887,281.2887,281.7877,,,,,,,,,,,,,,3.3059,0,,,,,,,,,,,,,,m,,,,,,,,,,,,,,,34,0,281.7882,285.1053,z,0,3.3059,,[],[],[],[],[],[],[],285.1055,287.1052,287.1054,287.1056,[],[],[],[],[],[],[],,287.1056,287.1056,-0.000874323,-0.281090177,0,0,0,,0,33,33,135,1,2,word,QUALITY,cursive,quality_c.png,,,,,
,,,,32301,001,2025-11-06_23h34.05.006,HW_LDT_1,2024.2.4,MacIntel,59.88023952,,,,,,,,,,,,,,,,,,,,287.1068,287.3053,287.3055,287.8052,,,,,,,,,,,,,,1.3874,1,,,,,,,,,,,,,,m,,,,,,,,,,,,,,,35,0,287.8057,289.2053,m,1,1.3874,,[],[],[],[],[],[],[],289.2054,291.2053,291.2054,291.2056,[],[],[],[],[],[],[],,291.2056,291.2057,-0.000874323,-0.281090177,0,0,0,,0,34,34,130,1,2,word,POLICY,print,policy_p.png,,,,,
,,,,32301,001,2025-11-06_23h34.05.006,HW_LDT_1,2024.2.4,MacIntel,59.88023952,,,,,,,,,,,,,,,,,,,,291.2067,291.4044,291.4044,291.9045,,,,,,,,,,,,,,1.2802,1,,,,,,,,,,,,,,z,,,,,,,,,,,,,,,36,0,291.905,293.1886,z,1,1.2802,,[],[],[],[],[],[],[],293.1886,295.1887,295.1888,295.189,[],[],[],[],[],[],[],,295.189,295.189,-0.000874323,-0.281090177,0,0,0,,0,35,35,9,1,2,RL,denficy,print,denficy_p.png,,,,,
,,,,32301,001,2025-11-06_23h34.05.006,HW_LDT_1,2024.2.4,MacIntel,59.88023952,,,,,,,,,,,,,,,,,,,,295.1902,295.3878,295.3878,295.8886,,,,,,,,,,,,,,1.1867,1,,,,,,,,,,,,,,m,,,,,,,,,,,,,,,37,0,295.8892,297.0889,m,1,1.1867,,[],[],[],[],[],[],[],297.0889,299.0877,299.0877,299.0879,[],[],[],[],[],[],[],,299.088,299.0881,-0.000874323,-0.281090177,0,0,0,,0,36,36,83,1,2,word,ANIMAL,print,animal_p.png,,,,,
,,,,32301,001,2025-11-06_23h34.05.006,HW_LDT_1,2024.2.4,MacIntel,59.88023952,,,,,,,,,,,,,,,,,,,,299.0893,299.2877,299.2878,299.7876,,,,,,,,,,,,,,2.4554,1,,,,,,,,,,,,,,z,,,,,,,,,,,,,,,38,0,299.788,302.2555,z,1,2.4554,,[],[],[],[],[],[],[],302.2555,304.2553,304.2553,304.2556,[],[],[],[],[],[],[],,304.2556,304.2556,-0.000874323,-0.281090177,0,0,0,,0,37,37,34,1,2,RL,trilude,cursive,trilude_c.png,,,,,
,,,,32301,001,2025-11-06_23h34.05.006,HW_LDT_1,2024.2.4,MacIntel,59.88023952,,,,,,,,,,,,,,,,,,,,304.2567,304.4544,304.4544,304.9555,,,,,,,,,,,,,,0.9863,1,,,,,,,,,,,,,,z,,,,,,,,,,,,,,,39,0,304.956,305.9546,z,1,0.9863,,[],[],[],[],[],[],[],305.9546,307.9553,307.9553,307.9555,[],[],[],[],[],[],[],,307.9555,307.9556,-0.000874323,-0.281090177,0,0,0,,0,38,38,55,1,2,TL,lotace,print,lotace_p.png,,,,,
,,,,32301,001,2025-11-06_23h34.05.006,HW_LDT_1,2024.2.4,MacIntel,59.88023952,,,,,,,,,,,,,,,,,,,,307.9567,308.1553,308.1553,308.6553,,,,,,,,,,,,,,1.7372,1,,,,,,,,,,,,,,m,,,,,,,,,,,,,,,40,0,308.6558,310.4054,m,1,1.7372,,[],[],[],[],[],[],[],310.4055,312.4054,312.4054,312.4056,[],[],[],[],[],[],[],,312.4057,312.4058,-0.000874323,-0.281090177,0,0,0,,0,39,39,144,1,2,word,RESIDENT,print,resident_p.png,,,,,
,,,,32301,001,2025-11-06_23h34.05.006,HW_LDT_1,2024.2.4,MacIntel,59.88023952,,,,,,,,,,,,,,,,,,,,312.4068,312.6053,312.6053,313.1054,,,,,,,,,,,,,,0.9293,1,,,,,,,,,,,,,,z,,,,,,,,,,,,,,,41,1,313.106,314.0384,z,1,0.9293,,[],[],[],[],[],[],[],314.0385,316.0387,316.0387,318.0711,[],[],[],[],[],[],[],m,318.0711,318.0712,-0.000874323,-0.281090177,0,0,0,,0,40,40,21,1,2,RL,pamest,print,pamest_p.png,2.03,,,,
,,,,32301,001,2025-11-06_23h34.05.006,HW_LDT_1,2024.2.4,MacIntel,59.88023952,,,,,,,,,,,,,,,,,,,,318.072,318.272,318.2721,318.7721,,,,,,,,,,,,,,4.8206,0,,,,,,,,,,,,,,m,,,,,,,,,,,,,,,42,0,318.7726,323.6045,z,0,4.8206,,[],[],[],[],[],[],[],323.6046,325.6054,325.6055,325.6057,[],[],[],[],[],[],[],,325.6057,325.6058,-0.000874323,-0.281090177,0,0,0,,0,41,41,109,1,2,word,GRATEFUL,cursive,grateful_c.png,,,,,
,,,,32301,001,2025-11-06_23h34.05.006,HW_LDT_1,2024.2.4,MacIntel,59.88023952,,,,,,,,,,,,,,,,,,,,325.6069,325.8045,325.8045,326.3054,,,,,,,,,,,,,,1.5811,1,,,,,,,,,,,,,,m,,,,,,,,,,,,,,,43,0,326.3059,327.8886,m,1,1.5811,,[],[],[],[],[],[],[],327.8887,329.8887,329.8888,329.8889,[],[],[],[],[],[],[],,329.889,329.889,-0.000874323,-0.281090177,0,0,0,,0,42,42,136,1,2,word,RADICAL,cursive,radical_c.png,,,,,
,,,,32301,001,2025-11-06_23h34.05.006,HW_LDT_1,2024.2.4,MacIntel,59.88023952,,,,,,,,,,,,,,,,,,,,329.8902,330.0878,330.0879,330.5877,,,,,,,,,,,,,,1.6207,1,,,,,,,,,,,,,,z,,,,,,,,,,,,,,,44,0,330.5884,332.2222,z,1,1.6207,,[],[],[],[],[],[],[],332.2223,334.2221,334.2221,334.2223,[],[],[],[],[],[],[],,334.2223,334.2225,-0.000874323,-0.281090177,0,0,0,,0,43,43,36,1,2,RL,vecelan,print,vecelan_p.png,,,,,
,,,,32301,001,2025-11-06_23h34.05.006,HW_LDT_1,2024.2.4,MacIntel,59.88023952,,,,,,,,,,,,,,,,,,,,334.2236,334.422,334.4221,334.9221,,,,,,,,,,,,,,1.6794,1,,,,,,,,,,,,,,m,,,,,,,,,,,,,,,45,1,334.9225,336.6053,m,1,1.6794,,[],[],[],[],[],[],[],336.6054,338.6056,338.6056,340.572,[],[],[],[],[],[],[],m,340.5722,340.5723,-0.000874323,-0.281090177,0,0,0,,0,44,44,112,1,2,word,LIBERAL,print,liberal_p.png,1.9581,,,,
,,,,32301,001,2025-11-06_23h34.05.006,HW_LDT_1,2024.2.4,MacIntel,59.88023952,,,,,,,,,,,,,,,,,,,,340.5731,340.772,340.7721,341.2712,,,,,,,,,,,,,,2.3961,1,,,,,,,,,,,,,,m,,,,,,,,,,,,,,,46,0,341.2718,343.6719,m,1,2.3961,,[],[],[],[],[],[],[],343.672,345.6712,345.6712,345.6714,[],[],[],[],[],[],[],,345.6715,345.6716,-0.000874323,-0.281090177,0,0,0,,0,45,45,129,1,2,word,PARENT,print,parent_p.png,,,,,
,,,,32301,001,2025-11-06_23h34.05.006,HW_LDT_1,2024.2.4,MacIntel,59.88023952,,,,,,,,,,,,,,,,,,,,345.6727,345.8721,345.8721,346.372,,,,,,,,,,,,,,1.4036,1,,,,,,,,,,,,,,m,,,,,,,,,,,,,,,47,1,346.3725,347.7879,m,1,1.4036,,[],[],[],[],[],[],[],347.7879,349.7877,349.7878,351.6053,[],[],[],[],[],[],[],m,351.6054,351.6054,-0.000874323,-0.281090177,0,0,0,,0,46,46,88,1,2,word,CAMERA,print,camera_p.png,1.8149,,,,
,,,,32301,001,2025-11-06_23h34.05.006,HW_LDT_1,2024.2.4,MacIntel,59.88023952,,,,,,,,,,,,,,,,,,,,351.6064,351.8054,351.8055,352.3054,,,,,,,,,,,,,,4.446,1,,,,,,,,,,,,,,z,,,,,,,,,,,,,,,48,0,352.306,356.7552,z,1,4.446,,[],[],[],[],[],[],[],356.7554,358.7554,358.7555,358.7556,[],[],[],[],[],[],[],,358.7556,358.7557,-0.000874323,-0.281090177,0,0,0,,0,47,47,76,1,2,TL,senmitent,cursive,senmitent_c.png,,,,,
,,,,32301,001,2025-11-06_23h34.05.006,HW_LDT_1,2024.2.4,MacIntel,59.88023952,,,,,,,,,,,,,,,,,,,,358.7568,358.9555,358.9556,359.4555,,,,,,,,,,,,,,3.4703,1,,,,,,,,,,,,,,z,,,,,,,,,,,,,,,49,0,359.4561,362.9389,z,1,3.4703,,[],[],[],[],[],[],[],362.939,364.9388,364.9388,364.939,[],[],[],[],[],[],[],,364.939,364.9391,-0.000874323,-0.281090177,0,0,0,,0,48,48,71,1,2,TL,retome,cursive,retome_c.png,,,,,
,,,,32301,001,2025-11-06_23h34.05.006,HW_LDT_1,2024.2.4,MacIntel,59.88023952,,,,,,,,,,,,,,,,,,,,364.9403,365.1387,365.1388,365.6388,,,,,,,,,,,,,,1.5961,1,,,,,,,,,,,,,,m,,,,,,,,,,,,,,,50,1,365.6394,367.2379,m,1,1.5961,,[],[],[],[],[],[],[],367.238,369.2387,369.2387,371.0556,[],[],[],[],[],[],[],m,371.0557,371.0558,-0.000874323,-0.281090177,0,0,0,,0,49,49,102,1,2,word,DENSITY,print,density_p.png,1.8046,,,,
,,,,32301,001,2025-11-06_23h34.05.006,HW_LDT_1,2024.2.4,MacIntel,59.88023952,,,,,,,,,,,,,,,,,,,,371.0569,371.2554,371.2555,371.7555,,,,,,,,,,,,,,3.5037,1,,,,,,,,,,,,,,m,,,,,,,,,,,,,,,51,0,371.756,375.2723,m,1,3.5037,,[],[],[],[],[],[],[],375.2723,377.2721,377.2721,377.2723,[],[],[],[],[],[],[],,377.2723,377.2724,-0.000874323,-0.281090177,0,0,0,,0,50,50,85,1,2,word,BENEFIT,cursive,benefit_c.png,,,,,
,,,,32301,001,2025-11-06_23h34.05.006,HW_LDT_1,2024.2.4,MacIntel,59.88023952,,,,,,,,,,,,,,,,,,,,377.2735,377.4721,377.4722,377.9722,,,,,,,,,,,,,,3.3477,0,,,,,,,,,,,,,,m,,,,,,,,,,,,,,,52,1,377.9726,381.3261,z,0,3.3477,,[],[],[],[],[],[],[],381.3262,383.3221,383.3223,385.0887,[],[],[],[],[],[],[],z,385.0888,385.0888,-0.000874323,-0.281090177,0,0,0,,0,51,51,134,1,2,word,QUALIFY,cursive,qualify_c.png,1.7634,,,,
,,,,32301,001,2025-11-06_23h34.05.006,HW_LDT_1,2024.2.4,MacIntel,59.88023952,,,,,,,,,,,,,,,,,,,,385.0897,385.2886,385.2887,385.7888,,,,,,,,,,,,,,1.5706,1,,,,,,,,,,,,,,z,,,,,,,,,,,,,,,53,0,385.7893,387.3722,z,1,1.5706,,[],[],[],[],[],[],[],387.3723,389.3721,389.3721,389.3723,[],[],[],[],[],[],[],,389.3724,389.3725,-0.000874323,-0.281090177,0,0,0,,0,52,52,49,1,2,TL,dedace,print,dedace_p.png,,,,,
,,,,32301,001,2025-11-06_23h34.05.006,HW_LDT_1,2024.2.4,MacIntel,59.88023952,,,,,,,,,,,,,,,,,,,,389.3735,389.5721,389.5721,390.0721,,,,,,,,,,,,,,1.8872,1,,,,,,,,,,,,,,z,,,,,,,,,,,,,,,54,0,390.0726,391.9722,z,1,1.8872,,[],[],[],[],[],[],[],391.9724,393.9722,393.9723,393.9724,[],[],[],[],[],[],[],,393.9724,393.9725,-0.000874323,-0.281090177,0,0,0,,0,53,53,77,1,2,TL,sloten,print,sloten_p.png,,,,,
,,,,32301,001,2025-11-06_23h34.05.006,HW_LDT_1,2024.2.4,MacIntel,59.88023952,,,,,,,,,,,,,,,,,,,,393.9736,394.1722,394.1722,394.6722,,,,,,,,,,,,,,1.9901,1,,,,,,,,,,,,,,m,,,,,,,,,,,,,,,55,0,394.6727,396.6722,m,1,1.9901,,[],[],[],[],[],[],[],396.6723,398.6721,398.6722,398.6723,[],[],[],[],[],[],[],,398.6723,398.6725,-0.000874323,-0.281090177,0,0,0,,0,54,54,151,1,2,word,SPECIFIC,print,specific_p.png,,,,,
,,,,32301,001,2025-11-06_23h34.05.006,HW_LDT_1,2024.2.4,MacIntel,59.88023952,,,,,,,,,,,,,,,,,,,,398.6735,398.8721,398.8722,399.3721,,,,,,,,,,,,,,1.6294,1,,,,,,,,,,,,,,z,,,,,,,,,,,,,,,56,0,399.3726,401.0048,z,1,1.6294,,[],[],[],[],[],[],[],401.0048,403.0055,403.0055,403.0056,[],[],[],[],[],[],[],,403.0057,403.0058,-0.000874323,-0.281090177,0,0,0,,0,55,55,32,1,2,RL,speniven,print,speniven_p.png,,,,,
,,,,32301,001,2025-11-06_23h34.05.006,HW_LDT_1,2024.2.4,MacIntel,59.88023952,,,,,,,,,,,,,,,,,,,,403.0069,403.2054,403.2055,403.7055,,,,,,,,,,,,,,1.4539,1,,,,,,,,,,,,,,z,,,,,,,,,,,,,,,57,0,403.706,405.1722,z,1,1.4539,,[],[],[],[],[],[],[],405.1723,407.1722,407.1722,407.1724,[],[],[],[],[],[],[],,407.1724,407.1725,-0.000874323,-0.281090177,0,0,0,,0,56,56,30,1,2,RL,selamor,print,selamor_p.png,,,,,
,,,,32301,001,2025-11-06_23h34.05.006,HW_LDT_1,2024.2.4,MacIntel,59.88023952,,,,,,,,,,,,,,,,,,,,407.1737,407.3721,407.3722,407.8722,,,,,,,,,,,,,,1.7056,1,,,,,,,,,,,,,,m,,,,,,,,,,,,,,,58,0,407.8727,409.5889,m,1,1.7056,,[],[],[],[],[],[],[],409.589,411.5888,411.5889,411.589,[],[],[],[],[],[],[],,411.5891,411.5891,-0.000874323,-0.281090177,0,0,0,,0,57,57,148,1,2,word,SALINE,cursive,saline_c.png,,,,,
,,,,32301,001,2025-11-06_23h34.05.006,HW_LDT_1,2024.2.4,MacIntel,59.88023952,,,,,,,,,,,,,,,,,,,,411.59,411.7888,411.7889,412.2889,,,,,,,,,,,,,,2.0208,1,,,,,,,,,,,,,,z,,,,,,,,,,,,,,,59,0,412.2893,414.3223,z,1,2.0208,,[],[],[],[],[],[],[],414.3224,416.3222,416.3222,416.3224,[],[],[],[],[],[],[],,416.3224,416.3225,-0.000874323,-0.281090177,0,0,0,,0,58,58,1,1,2,RL,caleberia,print,caleberia_p.png,,,,,
,,,,32301,001,2025-11-06_23h34.05.006,HW_LDT_1,2024.2.4,MacIntel,59.88023952,,,,,,,,,,,,,,,,,,,,416.3236,416.5221,416.5222,417.0218,,,,,,,,,,,,,,1.362,1,,,,,,,,,,,,,,m,,,,,,,,,,,,,,,60,0,417.0221,418.3887,m,1,1.362,,[],[],[],[],[],[],[],418.3888,420.3883,420.3884,420.3884,[],[],[],[],[],[],[],,420.3885,420.3886,-0.000874323,-0.281090177,0,0,0,,0,59,59,143,1,2,word,REMOVAL,print,removal_p.png,,,,,
,,,,32301,001,2025-11-06_23h34.05.006,HW_LDT_1,2024.2.4,MacIntel,59.88023952,,,,,,,,,,,,,,,,,,,,420.3898,420.5889,420.5889,421.0889,,,,,,,,,,,,,,3.2303,0,,,,,,,,,,,,,,m,,,,,,,,,,,,,,,61,0,421.0895,424.3222,z,0,3.2303,,[],[],[],[],[],[],[],424.3222,426.3222,426.3223,426.3224,[],[],[],[],[],[],[],,426.3224,426.3225,-0.000874323,-0.281090177,0,0,0,,0,60,60,103,1,2,word,DISPUTE,cursive,dispute_c.png,,,,,
,,,,32301,001,2025-11-06_23h34.05.006,HW_LDT_1,2024.2.4,MacIntel,59.88023952,,,,,,,,,,,,,,,,,,,,426.3237,426.5222,426.5223,427.0222,,,,,,,,,,,,,,2.2541,1,,,,,,,,,,,,,,z,,,,,,,,,,,,,,,62,0,427.0228,429.289,z,1,2.2541,,[],[],[],[],[],[],[],429.2891,431.2889,431.2889,431.2891,[],[],[],[],[],[],[],,431.2891,431.2893,-0.000874323,-0.281090177,0,0,0,,0,61,61,59,1,2,TL,miskate,cursive,miskate_c.png,,,,,
,,,,32301,001,2025-11-06_23h34.05.006,HW_LDT_1,2024.2.4,MacIntel,59.88023952,,,,,,,,,,,,,,,,,,,,431.2903,431.4889,431.4889,431.9878,,,,,,,,,,,,,,2.1384,1,,,,,,,,,,,,,,z,,,,,,,,,,,,,,,63,0,431.9882,434.1389,z,1,2.1384,,[],[],[],[],[],[],[],434.1389,436.1388,436.1388,436.139,[],[],[],[],[],[],[],,436.1391,436.1391,-0.000874323,-0.281090177,0,0,0,,0,62,62,14,1,2,RL,insibate,cursive,insibate_c.png,,,,,
,,,,32301,001,2025-11-06_23h34.05.006,HW_LDT_1,2024.2.4,MacIntel,59.88023952,,,,,,,,,,,,,,,,,,,,436.1402,436.3389,436.3389,436.8388,,,,,,,,,,,,,,2.3631,0,,,,,,,,,,,,,,m,,,,,,,,,,,,,,,64,0,436.8393,439.2055,z,0,2.3631,,[],[],[],[],[],[],[],439.2055,441.2055,441.2056,441.2058,[],[],[],[],[],[],[],,441.2058,441.206,-0.000874323,-0.281090177,0,0,0,,0,63,63,111,1,2,word,INDICATE,cursive,indicate_c.png,,,,,
,,,,32301,001,2025-11-06_23h34.05.006,HW_LDT_1,2024.2.4,MacIntel,59.88023952,,,,,,,,,,,,,,,,,,,,441.207,441.4055,441.4056,441.9056,,,,,,,,,,,,,,2.5702,1,,,,,,,,,,,,,,z,,,,,,,,,,,,,,,65,0,441.9062,444.4889,z,1,2.5702,,[],[],[],[],[],[],[],444.489,446.4888,446.4888,446.489,[],[],[],[],[],[],[],,446.4891,446.4892,-0.000874323,-0.281090177,0,0,0,,0,64,64,7,1,2,RL,cocewage,cursive,cocewage_c.png,,,,,
,,,,32301,001,2025-11-06_23h34.05.006,HW_LDT_1,2024.2.4,MacIntel,59.88023952,,,,,,,,,,,,,,,,,,,,446.4903,446.6889,446.6889,447.1889,,,,,,,,,,,,,,1.1877,1,,,,,,,,,,,,,,z,,,,,,,,,,,,,,,66,0,447.1895,448.3889,z,1,1.1877,,[],[],[],[],[],[],[],448.389,450.389,450.389,450.3892,[],[],[],[],[],[],[],,450.3892,450.3893,-0.000874323,-0.281090177,0,0,0,,0,65,65,0,1,2,RL,adnicory,print,adnicory_p.png,,,,,
,,,,32301,001,2025-11-06_23h34.05.006,HW_LDT_1,2024.2.4,MacIntel,59.88023952,,,,,,,,,,,,,,,,,,,,450.3904,450.5889,450.5889,451.0889,,,,,,,,,,,,,,2.1887,0,,,,,,,,,,,,,,z,,,,,,,,,,,,,,,67,0,451.0894,453.2889,m,0,2.1887,,[],[],[],[],[],[],[],453.289,455.2878,455.288,455.2881,[],[],[],[],[],[],[],,455.2881,455.2882,-0.000874323,-0.281090177,0,0,0,,0,66,66,47,1,2,TL,crinimal,cursive,crinimal_c.png,,,,,
,,,,32301,001,2025-11-06_23h34.05.006,HW_LDT_1,2024.2.4,MacIntel,59.88023952,,,,,,,,,,,,,,,,,,,,455.2893,455.4888,455.4889,455.9889,,,,,,,,,,,,,,4.0472,1,,,,,,,,,,,,,,z,,,,,,,,,,,,,,,68,0,455.9895,460.0388,z,1,4.0472,,[],[],[],[],[],[],[],460.0389,462.0389,462.0389,462.0391,[],[],[],[],[],[],[],,462.0391,462.0392,-0.000874323,-0.281090177,0,0,0,,0,67,67,41,1,2,TL,befenit,cursive,befenit_c.png,,,,,
,,,,32301,001,2025-11-06_23h34.05.006,HW_LDT_1,2024.2.4,MacIntel,59.88023952,,,,,,,,,,,,,,,,,,,,462.0404,462.2379,462.2379,462.7379,,,,,,,,,,,,,,1.4963,1,,,,,,,,,,,,,,m,,,,,,,,,,,,,,,69,0,462.7384,464.2389,m,1,1.4963,,[],[],[],[],[],[],[],464.2389,466.2386,466.2386,466.2388,[],[],[],[],[],[],[],,466.2389,466.2389,-0.000874323,-0.281090177,0,0,0,,0,68,68,93,1,2,word,CEREMONY,print,ceremony_p.png,,,,,
,,,,32301,001,2025-11-06_23h34.05.006,HW_LDT_1,2024.2.4,MacIntel,59.88023952,,,,,,,,,,,,,,,,,,,,466.24,466.4389,466.4389,466.9388,,,,,,,,,,,,,,1.2725,1,,,,,,,,,,,,,,z,,,,,,,,,,,,,,,70,0,466.9394,468.2223,z,1,1.2725,,[],[],[],[],[],[],[],468.2223,470.2222,470.2222,470.2224,[],[],[],[],[],[],[],,470.2225,470.2226,-0.000874323,-0.281090177,0,0,0,,0,69,69,13,1,2,RL,helicage,print,helicage_p.png,,,,,
,,,,32301,001,2025-11-06_23h34.05.006,HW_LDT_1,2024.2.4,MacIntel,59.88023952,,,,,,,,,,,,,,,,,,,,470.2236,470.4222,470.4222,470.9222,,,,,,,,,,,,,,3.3298,1,,,,,,,,,,,,,,m,,,,,,,,,,,,,,,71,0,470.9227,474.2554,m,1,3.3298,,[],[],[],[],[],[],[],474.2555,476.2555,476.2555,476.2557,[],[],[],[],[],[],[],,476.2558,476.2559,-0.000874323,-0.281090177,0,0,0,,0,70,70,157,1,2,word,VALIDITY,print,validity_p.png,,,,,
,,,,32301,001,2025-11-06_23h34.05.006,HW_LDT_1,2024.2.4,MacIntel,59.88023952,,,,,,,,,,,,,,,,,,,,476.2569,476.4555,476.4556,476.9556,,,,,,,,,,,,,,2.6293,1,,,,,,,,,,,,,,z,,,,,,,,,,,,,,,72,0,476.9561,479.5879,z,1,2.6293,,[],[],[],[],[],[],[],479.5879,481.589,481.589,481.5891,[],[],[],[],[],[],[],,481.5892,481.5893,-0.000874323,-0.281090177,0,0,0,,0,71,71,54,1,2,TL,liretal,cursive,liretal_c.png,,,,,
,,,,32301,001,2025-11-06_23h34.05.006,HW_LDT_1,2024.2.4,MacIntel,59.88023952,,,,,,,,,,,,,,,,,,,,481.5904,481.7888,481.7889,482.2889,,,,,,,,,,,,,,1.6909,1,,,,,,,,,,,,,,z,,,,,,,,,,,,,,,73,1,482.2895,483.9889,z,1,1.6909,,[],[],[],[],[],[],[],483.989,485.989,485.989,488.1723,[],[],[],[],[],[],[],z,488.1724,488.1726,-0.000874323,-0.281090177,0,0,0,,0,72,72,26,1,2,RL,retupar,cursive,retupar_c.png,2.1701,,,,
,,,,32301,001,2025-11-06_23h34.05.006,HW_LDT_1,2024.2.4,MacIntel,59.88023952,,,,,,,,,,,,,,,,,,,,488.1737,488.3722,488.3722,488.8724,,,,,,,,,,,,,,2.4957,0,,,,,,,,,,,,,,m,,,,,,,,,,,,,,,74,0,488.873,491.3722,z,0,2.4957,,[],[],[],[],[],[],[],491.3723,493.3723,493.3723,493.3725,[],[],[],[],[],[],[],,493.3725,493.3726,-0.000874323,-0.281090177,0,0,0,,0,73,73,123,1,2,word,MODERATE,cursive,moderate_c.png,,,,,
,,,,32301,001,2025-11-06_23h34.05.006,HW_LDT_1,2024.2.4,MacIntel,59.88023952,,,,,,,,,,,,,,,,,,,,493.3737,493.5722,493.5723,494.0722,,,,,,,,,,,,,,1.6045,1,,,,,,,,,,,,,,m,,,,,,,,,,,,,,,75,1,494.0727,495.689,m,1,1.6045,,[],[],[],[],[],[],[],495.6891,497.6889,497.6889,499.8055,[],[],[],[],[],[],[],m,499.8055,499.8056,-0.000874323,-0.281090177,0,0,0,,0,74,74,152,1,2,word,SPECIMEN,print,specimen_p.png,2.1138,,,,
,,,,32301,001,2025-11-06_23h34.05.006,HW_LDT_1,2024.2.4,MacIntel,59.88023952,,,,,,,,,,,,,,,,,,,,499.8064,500.0047,500.0048,500.5056,,,,,,,,,,,,,,4.4732,1,,,,,,,,,,,,,,z,,,,,,,,,,,,,,,76,1,500.5061,504.9881,z,1,4.4732,,[],[],[],[],[],[],[],504.9881,506.9885,506.9886,508.8222,[],[],[],[],[],[],[],z,508.8222,508.8223,-0.000874323,-0.281090177,0,0,0,,0,75,75,68,1,2,TL,quatily,cursive,quatily_c.png,1.8304,,,,
,,,,32301,001,2025-11-06_23h34.05.006,HW_LDT_1,2024.2.4,MacIntel,59.88023952,,,,,,,,,,,,,,,,,,,,508.8232,509.0224,509.0224,509.5213,,,,,,,,,,,,,,1.8321,1,,,,,,,,,,,,,,m,,,,,,,,,,,,,,,77,0,509.5217,511.3554,m,1,1.8321,,[],[],[],[],[],[],[],511.3554,513.3556,513.3557,513.3558,[],[],[],[],[],[],[],,513.3558,513.3559,-0.000874323,-0.281090177,0,0,0,,0,76,76,89,1,2,word,CAPACITY,print,capacity_p.png,,,,,
,,,,32301,001,2025-11-06_23h34.05.006,HW_LDT_1,2024.2.4,MacIntel,59.88023952,,,,,,,,,,,,,,,,,,,,513.357,513.5555,513.5556,514.0556,,,,,,,,,,,,,,1.9483,1,,,,,,,,,,,,,,z,,,,,,,,,,,,,,,78,0,514.0561,516.0056,z,1,1.9483,,[],[],[],[],[],[],[],516.0056,518.0046,518.0047,518.0048,[],[],[],[],[],[],[],,518.0049,518.005,-0.000874323,-0.281090177,0,0,0,,0,77,77,25,1,2,RL,rabigly,print,rabigly_p.png,,,,,
,,,,32301,001,2025-11-06_23h34.05.006,HW_LDT_1,2024.2.4,MacIntel,59.88023952,,,,,,,,,,,,,,,,,,,,518.0058,518.2048,518.2048,518.7056,,,,,,,,,,,,,,2.2391,1,,,,,,,,,,,,,,z,,,,,,,,,,,,,,,79,1,518.7061,520.9556,z,1,2.2391,,[],[],[],[],[],[],[],520.9557,522.9556,522.9556,524.9048,[],[],[],[],[],[],[],z,524.9049,524.905,-0.000874323,-0.281090177,0,0,0,,0,78,78,37,1,2,TL,adacemy,cursive,adacemy_c.png,1.9415,,,,
,,,,32301,001,2025-11-06_23h34.05.006,HW_LDT_1,2024.2.4,MacIntel,59.88023952,,,,,,,,,,,,,,,,,,,,524.9059,525.1057,525.1057,525.6056,,,,,,,,,,,,,,3.2626,1,,,,,,,,,,,,,,z,,,,,,,,,,,,,,,80,0,525.6063,528.8722,z,1,3.2626,,[],[],[],[],[],[],[],528.8723,530.8724,530.8724,530.8725,[],[],[],[],[],[],[],,530.8726,563.0893,0.036025872,-0.39815076,1,0,0,,0,79,79,44,1,2,TL,catipal,cursive,catipal_c.png,,,break_done_button,,
,,,,32301,001,2025-11-06_23h34.05.006,HW_LDT_1,2024.2.4,MacIntel,59.88023952,,,,,,,,,,,,,,,,,,,,563.0902,563.2891,563.2892,563.789,,,,,,,,,,,,,,2.2041,1,,,,,,,,,,,,,,m,,,,,,,,,,,,,,,81,0,563.7895,566.0049,m,1,2.2041,,[],[],[],[],[],[],[],566.005,568.0057,568.0058,568.0059,[],[],[],[],[],[],[],,568.0059,568.006,0.036025872,-0.39829648,0,0,0,,0,80,80,107,1,2,word,EVIDENT,cursive,evident_c.png,,,,,
,,,,32301,001,2025-11-06_23h34.05.006,HW_LDT_1,2024.2.4,MacIntel,59.88023952,,,,,,,,,,,,,,,,,,,,568.0071,568.2057,568.2058,568.7057,,,,,,,,,,,,,,2.1293,1,,,,,,,,,,,,,,m,,,,,,,,,,,,,,,82,0,568.7062,570.8389,m,1,2.1293,,[],[],[],[],[],[],[],570.839,572.839,572.8391,572.8393,[],[],[],[],[],[],[],,572.8393,572.8394,0.036025872,-0.39829648,0,0,0,,0,81,81,86,1,2,word,BESIDE,cursive,beside_c.png,,,,,
,,,,32301,001,2025-11-06_23h34.05.006,HW_LDT_1,2024.2.4,MacIntel,59.88023952,,,,,,,,,,,,,,,,,,,,572.8405,573.039,573.0391,573.539,,,,,,,,,,,,,,2.508,1,,,,,,,,,,,,,,z,,,,,,,,,,,,,,,83,0,573.5395,576.0557,z,1,2.508,,[],[],[],[],[],[],[],576.0558,578.0556,578.0556,578.0558,[],[],[],[],[],[],[],,578.0559,578.056,0.036025872,-0.39829648,0,0,0,,0,82,82,29,1,2,RL,samite,cursive,samite_c.png,,,,,
,,,,32301,001,2025-11-06_23h34.05.006,HW_LDT_1,2024.2.4,MacIntel,59.88023952,,,,,,,,,,,,,,,,,,,,578.057,578.2557,578.2557,578.7556,,,,,,,,,,,,,,3.904,1,,,,,,,,,,,,,,z,,,,,,,,,,,,,,,84,0,578.7562,582.6725,z,1,3.904,,[],[],[],[],[],[],[],582.6726,584.6724,584.6724,584.6727,[],[],[],[],[],[],[],,584.6727,584.6728,0.036025872,-0.39829648,0,0,0,,0,83,83,28,1,2,RL,revune,cursive,revune_c.png,,,,,
,,,,32301,001,2025-11-06_23h34.05.006,HW_LDT_1,2024.2.4,MacIntel,59.88023952,,,,,,,,,,,,,,,,,,,,584.6739,584.8723,584.8724,585.3723,,,,,,,,,,,,,,3.9797,0,,,,,,,,,,,,,,m,,,,,,,,,,,,,,,85,0,585.3729,589.3557,z,0,3.9797,,[],[],[],[],[],[],[],589.3557,591.3557,591.3557,591.3558,[],[],[],[],[],[],[],,591.3559,591.3559,0.036025872,-0.39829648,0,0,0,,0,84,84,126,1,2,word,OPTIMAL,cursive,optimal_c.png,,,,,
,,,,32301,001,2025-11-06_23h34.05.006,HW_LDT_1,2024.2.4,MacIntel,59.88023952,,,,,,,,,,,,,,,,,,,,591.3567,591.5557,591.5557,592.0557,,,,,,,,,,,,,,1.5204,1,,,,,,,,,,,,,,z,,,,,,,,,,,,,,,86,0,592.0561,593.5891,z,1,1.5204,,[],[],[],[],[],[],[],593.5892,595.589,595.5891,595.5892,[],[],[],[],[],[],[],,595.5892,595.5894,0.036025872,-0.39829648,0,0,0,,0,85,85,4,1,2,RL,cenesony,print,cenesony_p.png,,,,,
,,,,32301,001,2025-11-06_23h34.05.006,HW_LDT_1,2024.2.4,MacIntel,59.88023952,,,,,,,,,,,,,,,,,,,,595.5905,595.789,595.7891,596.289,,,,,,,,,,,,,,2.1901,1,,,,,,,,,,,,,,m,,,,,,,,,,,,,,,87,0,596.2895,598.4891,m,1,2.1901,,[],[],[],[],[],[],[],598.4891,600.489,600.4891,600.4893,[],[],[],[],[],[],[],,600.4893,600.4894,0.036025872,-0.39829648,0,0,0,,0,86,86,150,1,2,word,SENTIMENT,cursive,sentiment_c.png,,,,,
,,,,32301,001,2025-11-06_23h34.05.006,HW_LDT_1,2024.2.4,MacIntel,59.88023952,,,,,,,,,,,,,,,,,,,,600.4905,600.689,600.6892,601.1891,,,,,,,,,,,,,,1.7811,1,,,,,,,,,,,,,,z,,,,,,,,,,,,,,,88,0,601.1896,602.9723,z,1,1.7811,,[],[],[],[],[],[],[],602.9724,604.9724,604.9724,604.9726,[],[],[],[],[],[],[],,604.9727,604.9727,0.036025872,-0.39829648,0,0,0,,0,87,87,69,1,2,TL,resufal,cursive,resufal_c.png,,,,,
,,,,32301,001,2025-11-06_23h34.05.006,HW_LDT_1,2024.2.4,MacIntel,59.88023952,,,,,,,,,,,,,,,,,,,,604.9737,605.1724,605.1724,605.6724,,,,,,,,,,,,,,1.8872,1,,,,,,,,,,,,,,z,,,,,,,,,,,,,,,89,0,605.6729,607.5725,z,1,1.8872,,[],[],[],[],[],[],[],607.5727,609.5724,609.5724,609.5726,[],[],[],[],[],[],[],,609.5726,609.5728,0.036025872,-0.39829648,0,0,0,,0,88,88,72,1,2,TL,revomal,print,revomal_p.png,,,,,
,,,,32301,001,2025-11-06_23h34.05.006,HW_LDT_1,2024.2.4,MacIntel,59.88023952,,,,,,,,,,,,,,,,,,,,609.5738,609.7724,609.7725,610.2724,,,,,,,,,,,,,,1.7128,1,,,,,,,,,,,,,,z,,,,,,,,,,,,,,,90,0,610.2729,611.9891,z,1,1.7128,,[],[],[],[],[],[],[],611.9891,613.9891,613.9891,613.9893,[],[],[],[],[],[],[],,613.9893,613.9894,0.036025872,-0.39829648,0,0,0,,0,89,89,12,1,2,RL,gralekul,cursive,gralekul_c.png,,,,,
,,,,32301,001,2025-11-06_23h34.05.006,HW_LDT_1,2024.2.4,MacIntel,59.88023952,,,,,,,,,,,,,,,,,,,,613.9904,614.1891,614.1891,614.6891,,,,,,,,,,,,,,1.4041,1,,,,,,,,,,,,,,z,,,,,,,,,,,,,,,91,0,614.6895,616.1058,z,1,1.4041,,[],[],[],[],[],[],[],616.1059,618.1057,618.1058,618.1059,[],[],[],[],[],[],[],,618.106,618.1061,0.015991652,-0.350716381,0,0,0,,0,90,90,3,1,2,RL,capefory,print,capefory_p.png,,,,,
,,,,32301,001,2025-11-06_23h34.05.006,HW_LDT_1,2024.2.4,MacIntel,59.88023952,,,,,,,,,,,,,,,,,,,,618.1072,618.3057,618.3057,618.8058,,,,,,,,,,,,,,2.3541,1,,,,,,,,,,,,,,z,,,,,,,,,,,,,,,92,0,618.8063,621.1725,z,1,2.3541,,[],[],[],[],[],[],[],621.1726,623.1724,623.1724,623.1726,[],[],[],[],[],[],[],,623.1727,623.1728,0.015991652,-0.350716381,0,0,0,,0,91,91,20,1,2,RL,onegator,cursive,onegator_c.png,,,,,
,,,,32301,001,2025-11-06_23h34.05.006,HW_LDT_1,2024.2.4,MacIntel,59.88023952,,,,,,,,,,,,,,,,,,,,623.1738,623.3724,623.3724,623.8724,,,,,,,,,,,,,,3.3133,1,,,,,,,,,,,,,,z,,,,,,,,,,,,,,,93,0,623.8729,627.189,z,1,3.3133,,[],[],[],[],[],[],[],627.1891,629.1891,629.1891,629.1892,[],[],[],[],[],[],[],,629.1893,629.1894,0.015991652,-0.350716381,0,0,0,,0,92,92,52,1,2,TL,elarobate,cursive,elarobate_c.png,,,,,
,,,,32301,001,2025-11-06_23h34.05.006,HW_LDT_1,2024.2.4,MacIntel,59.88023952,,,,,,,,,,,,,,,,,,,,629.1905,629.3891,629.3891,629.8891,,,,,,,,,,,,,,2.3536,1,,,,,,,,,,,,,,m,,,,,,,,,,,,,,,94,0,629.8896,632.2558,m,1,2.3536,,[],[],[],[],[],[],[],632.2559,634.2557,634.2558,634.2559,[],[],[],[],[],[],[],,634.256,634.2561,0.015991652,-0.350716381,0,0,0,,0,93,93,132,1,2,word,PROPOSAL,cursive,proposal_c.png,,,,,
,,,,32301,001,2025-11-06_23h34.05.006,HW_LDT_1,2024.2.4,MacIntel,59.88023952,,,,,,,,,,,,,,,,,,,,634.2572,634.4558,634.4558,634.9558,,,,,,,,,,,,,,2.0301,1,,,,,,,,,,,,,,m,,,,,,,,,,,,,,,95,0,634.9564,636.9892,m,1,2.0301,,[],[],[],[],[],[],[],636.9892,638.9891,638.9891,638.9893,[],[],[],[],[],[],[],,638.9893,638.9895,0.015991652,-0.350716381,0,0,0,,0,94,94,139,1,2,word,REGULAR,cursive,regular_c.png,,,,,
,,,,32301,001,2025-11-06_23h34.05.006,HW_LDT_1,2024.2.4,MacIntel,59.88023952,,,,,,,,,,,,,,,,,,,,638.9905,639.1891,639.1891,639.6891,,,,,,,,,,,,,,2.7979,1,,,,,,,,,,,,,,z,,,,,,,,,,,,,,,96,0,639.6895,642.489,z,1,2.7979,,[],[],[],[],[],[],[],642.4891,644.4891,644.4892,644.4893,[],[],[],[],[],[],[],,644.4894,644.4894,0.015991652,-0.350716381,0,0,0,,0,95,95,40,1,2,TL,bevoled,cursive,bevoled_c.png,,,,,
,,,,32301,001,2025-11-06_23h34.05.006,HW_LDT_1,2024.2.4,MacIntel,59.88023952,,,,,,,,,,,,,,,,,,,,644.4906,644.6892,644.6892,645.1891,,,,,,,,,,,,,,3.2047,1,,,,,,,,,,,,,,z,,,,,,,,,,,,,,,97,0,645.1896,648.406,z,1,3.2047,,[],[],[],[],[],[],[],648.406,650.4058,650.4058,650.4059,[],[],[],[],[],[],[],,650.406,650.4061,0.015991652,-0.350716381,0,0,0,,0,96,96,33,1,2,RL,strapely,cursive,strapely_c.png,,,,,
,,,,32301,001,2025-11-06_23h34.05.006,HW_LDT_1,2024.2.4,MacIntel,59.88023952,,,,,,,,,,,,,,,,,,,,650.4072,650.6058,650.6058,651.1059,,,,,,,,,,,,,,2.4706,1,,,,,,,,,,,,,,z,,,,,,,,,,,,,,,98,1,651.1063,653.5892,z,1,2.4706,,[],[],[],[],[],[],[],653.5892,655.5891,655.5892,657.2557,[],[],[],[],[],[],[],z,657.2557,657.2558,0.015991652,-0.350716381,0,0,0,,0,97,97,66,1,2,TL,prodive,cursive,prodive_c.png,1.6647,,,,
,,,,32301,001,2025-11-06_23h34.05.006,HW_LDT_1,2024.2.4,MacIntel,59.88023952,,,,,,,,,,,,,,,,,,,,657.2566,657.4558,657.4559,657.9558,,,,,,,,,,,,,,1.5957,1,,,,,,,,,,,,,,z,,,,,,,,,,,,,,,99,0,657.9563,659.5558,z,1,1.5957,,[],[],[],[],[],[],[],659.5558,661.5558,661.5558,661.556,[],[],[],[],[],[],[],,661.5561,661.5561,0.015991652,-0.350716381,0,0,0,,0,98,98,2,1,2,RL,casagity,print,casagity_p.png,,,,,
,,,,32301,001,2025-11-06_23h34.05.006,HW_LDT_1,2024.2.4,MacIntel,59.88023952,,,,,,,,,,,,,,,,,,,,661.5572,661.7558,661.7559,662.2548,,,,,,,,,,,,,,3.4823,1,,,,,,,,,,,,,,m,,,,,,,,,,,,,,,100,0,662.2553,665.7392,m,1,3.4823,,[],[],[],[],[],[],[],665.7392,667.7391,667.7392,667.7393,[],[],[],[],[],[],[],,667.7394,667.7395,0.015991652,-0.350716381,0,0,0,,0,99,99,119,1,2,word,MEMORY,cursive,memory_c.png,,,,,
,,,,32301,001,2025-11-06_23h34.05.006,HW_LDT_1,2024.2.4,MacIntel,59.88023952,,,,,,,,,,,,,,,,,,,,667.7405,667.9391,667.9391,668.4392,,,,,,,,,,,,,,2.6374,0,,,,,,,,,,,,,,m,,,,,,,,,,,,,,,101,0,668.4397,671.0893,z,0,2.6374,,[],[],[],[],[],[],[],671.0894,673.0892,673.0892,673.0893,[],[],[],[],[],[],[],,673.0894,673.0894,0.015991652,-0.350716381,0,0,0,,0,100,100,121,1,2,word,MISTAKE,cursive,mistake_c.png,,,,,
,,,,32301,001,2025-11-06_23h34.05.006,HW_LDT_1,2024.2.4,MacIntel,59.88023952,,,,,,,,,,,,,,,,,,,,673.0906,673.2881,673.2881,673.7881,,,,,,,,,,,,,,1.3796,1,,,,,,,,,,,,,,z,,,,,,,,,,,,,,,102,0,673.7887,675.1724,z,1,1.3796,,[],[],[],[],[],[],[],675.1725,677.1725,677.1725,677.1727,[],[],[],[],[],[],[],,677.1727,677.1728,0.015991652,-0.350716381,0,0,0,,0,101,101,75,1,2,TL,ronamtic,print,ronamtic_p.png,,,,,
,,,,32301,001,2025-11-06_23h34.05.006,HW_LDT_1,2024.2.4,MacIntel,59.88023952,,,,,,,,,,,,,,,,,,,,677.174,677.3724,677.3724,677.8724,,,,,,,,,,,,,,1.4131,1,,,,,,,,,,,,,,z,,,,,,,,,,,,,,,103,0,677.873,679.2891,z,1,1.4131,,[],[],[],[],[],[],[],679.2892,681.2882,681.2882,681.2884,[],[],[],[],[],[],[],,681.2885,681.2886,0.015991652,-0.350716381,0,0,0,,0,102,102,11,1,2,RL,formuke,print,formuke_p.png,,,,,
,,,,32301,001,2025-11-06_23h34.05.006,HW_LDT_1,2024.2.4,MacIntel,59.88023952,,,,,,,,,,,,,,,,,,,,681.2896,681.4891,681.4892,681.9892,,,,,,,,,,,,,,1.4873,1,,,,,,,,,,,,,,z,,,,,,,,,,,,,,,104,0,681.9897,683.4883,z,1,1.4873,,[],[],[],[],[],[],[],683.4884,685.4883,685.4883,685.4885,[],[],[],[],[],[],[],,685.4886,685.4886,0.015991652,-0.350716381,0,0,0,,0,103,103,65,1,2,TL,polupar,cursive,polupar_c.png,,,,,
,,,,32301,001,2025-11-06_23h34.05.006,HW_LDT_1,2024.2.4,MacIntel,59.88023952,,,,,,,,,,,,,,,,,,,,685.4897,685.6891,685.6893,686.1892,,,,,,,,,,,,,,1.3031,1,,,,,,,,,,,,,,z,,,,,,,,,,,,,,,105,0,686.1897,687.5058,z,1,1.3031,,[],[],[],[],[],[],[],687.5059,689.5059,689.5059,689.5061,[],[],[],[],[],[],[],,689.5061,689.5062,0.015991652,-0.350716381,0,0,0,,0,104,104,53,1,2,TL,edivent,cursive,edivent_c.png,,,,,
,,,,32301,001,2025-11-06_23h34.05.006,HW_LDT_1,2024.2.4,MacIntel,59.88023952,,,,,,,,,,,,,,,,,,,,689.5073,689.7049,689.705,690.2059,,,,,,,,,,,,,,2.0807,1,,,,,,,,,,,,,,m,,,,,,,,,,,,,,,106,0,690.2063,692.2892,m,1,2.0807,,[],[],[],[],[],[],[],692.2892,694.2892,694.2893,694.2895,[],[],[],[],[],[],[],,694.2895,694.2895,0.015991652,-0.350716381,0,0,0,,0,105,105,94,1,2,word,CLINICAL,cursive,clinical_c.png,,,,,
,,,,32301,001,2025-11-06_23h34.05.006,HW_LDT_1,2024.2.4,MacIntel,59.88023952,,,,,,,,,,,,,,,,,,,,694.2906,694.4882,694.4883,694.9883,,,,,,,,,,,,,,0.9803,1,,,,,,,,,,,,,,m,,,,,,,,,,,,,,,107,0,694.9887,695.9724,m,1,0.9803,,[],[],[],[],[],[],[],695.9725,697.9725,697.9726,697.9727,[],[],[],[],[],[],[],,697.9727,697.9728,0.015991652,-0.350716381,0,0,0,,0,106,106,99,1,2,word,DEBATE,print,debate_p.png,,,,,
,,,,32301,001,2025-11-06_23h34.05.006,HW_LDT_1,2024.2.4,MacIntel,59.88023952,,,,,,,,,,,,,,,,,,,,697.9739,698.1726,698.1726,698.6725,,,,,,,,,,,,,,1.0791,1,,,,,,,,,,,,,,m,,,,,,,,,,,,,,,108,0,698.673,699.7558,m,1,1.0791,,[],[],[],[],[],[],[],699.7558,701.7549,701.755,701.7552,[],[],[],[],[],[],[],,701.7552,701.7553,0.015991652,-0.350716381,0,0,0,,0,107,107,140,1,2,word,RELATIVE,print,relative_p.png,,,,,
,,,,32301,001,2025-11-06_23h34.05.006,HW_LDT_1,2024.2.4,MacIntel,59.88023952,,,,,,,,,,,,,,,,,,,,701.7563,701.9559,701.956,702.455,,,,,,,,,,,,,,1.7884,0,,,,,,,,,,,,,,m,,,,,,,,,,,,,,,109,0,702.4554,704.255,z,0,1.7884,,[],[],[],[],[],[],[],704.2551,706.2558,706.2558,706.256,[],[],[],[],[],[],[],,706.2561,706.2561,0.015991652,-0.350716381,0,0,0,,0,108,108,105,1,2,word,EDITOR,cursive,editor_c.png,,,,,
,,,,32301,001,2025-11-06_23h34.05.006,HW_LDT_1,2024.2.4,MacIntel,59.88023952,,,,,,,,,,,,,,,,,,,,706.2573,706.455,706.455,706.9559,,,,,,,,,,,,,,2.0792,1,,,,,,,,,,,,,,z,,,,,,,,,,,,,,,110,0,706.9565,709.0391,z,1,2.0792,,[],[],[],[],[],[],[],709.0392,711.0383,711.0383,711.0385,[],[],[],[],[],[],[],,711.0385,711.0386,0.015991652,-0.350716381,0,0,0,,0,109,109,45,1,2,TL,carnidal,cursive,carnidal_c.png,,,,,
,,,,32301,001,2025-11-06_23h34.05.006,HW_LDT_1,2024.2.4,MacIntel,59.88023952,,,,,,,,,,,,,,,,,,,,711.0398,711.2382,711.2382,711.7382,,,,,,,,,,,,,,1.4311,1,,,,,,,,,,,,,,z,,,,,,,,,,,,,,,111,0,711.7388,713.1724,z,1,1.4311,,[],[],[],[],[],[],[],713.1726,715.1725,715.1725,715.1726,[],[],[],[],[],[],[],,715.1728,715.1729,0.015991652,-0.350716381,0,0,0,,0,110,110,38,1,2,TL,atameur,cursive,atameur_c.png,,,,,
,,,,32301,001,2025-11-06_23h34.05.006,HW_LDT_1,2024.2.4,MacIntel,59.88023952,,,,,,,,,,,,,,,,,,,,715.174,715.3716,715.3717,715.8726,,,,,,,,,,,,,,1.1631,1,,,,,,,,,,,,,,z,,,,,,,,,,,,,,,112,0,715.8731,717.0382,z,1,1.1631,,[],[],[],[],[],[],[],717.0383,719.0383,719.0383,719.0385,[],[],[],[],[],[],[],,719.0385,719.0386,0.015991652,-0.350716381,0,0,0,,0,111,111,8,1,2,RL,desifate,print,desifate_p.png,,,,,
,,,,32301,001,2025-11-06_23h34.05.006,HW_LDT_1,2024.2.4,MacIntel,59.88023952,,,,,,,,,,,,,,,,,,,,719.0395,719.2392,719.2392,719.7391,,,,,,,,,,,,,,1.0626,1,,,,,,,,,,,,,,m,,,,,,,,,,,,,,,113,0,719.7397,720.8058,m,1,1.0626,,[],[],[],[],[],[],[],720.8059,722.8059,722.8059,722.806,[],[],[],[],[],[],[],,722.8061,722.8061,0.015991652,-0.350716381,0,0,0,,0,112,112,92,1,2,word,CATEGORY,print,category_p.png,,,,,
,,,,32301,001,2025-11-06_23h34.05.006,HW_LDT_1,2024.2.4,MacIntel,59.88023952,,,,,,,,,,,,,,,,,,,,722.8076,723.0058,723.0058,723.5058,,,,,,,,,,,,,,3.4198,0,,,,,,,,,,,,,,m,,,,,,,,,,,,,,,114,0,723.5062,726.9384,z,0,3.4198,,[],[],[],[],[],[],[],726.9385,728.9393,728.9393,728.9395,[],[],[],[],[],[],[],,728.9396,728.9396,0.015991652,-0.350716381,0,0,0,,0,113,113,91,1,2,word,CARDINAL,cursive,cardinal_c.png,,,,,
,,,,32301,001,2025-11-06_23h34.05.006,HW_LDT_1,2024.2.4,MacIntel,59.88023952,,,,,,,,,,,,,,,,,,,,728.9408,729.1383,729.1384,729.6392,,,,,,,,,,,,,,0.9542,1,,,,,,,,,,,,,,z,,,,,,,,,,,,,,,115,0,729.6397,730.606,z,1,0.9542,,[],[],[],[],[],[],[],730.6061,732.6059,732.606,732.6061,[],[],[],[],[],[],[],,732.6062,732.6062,0.015991652,-0.350716381,0,0,0,,0,114,114,6,1,2,RL,conbicer,print,conbicer_p.png,,,,,
,,,,32301,001,2025-11-06_23h34.05.006,HW_LDT_1,2024.2.4,MacIntel,59.88023952,,,,,,,,,,,,,,,,,,,,732.6073,732.805,732.8051,733.3059,,,,,,,,,,,,,,0.9038,0,,,,,,,,,,,,,,m,,,,,,,,,,,,,,,116,0,733.3064,734.2217,z,0,0.9038,,[],[],[],[],[],[],[],734.2218,736.2217,736.2217,736.2219,[],[],[],[],[],[],[],,736.2219,736.222,0.015991652,-0.350716381,0,0,0,,0,115,115,146,1,2,word,RETIRE,cursive,retire_c.png,,,,,
,,,,32301,001,2025-11-06_23h34.05.006,HW_LDT_1,2024.2.4,MacIntel,59.88023952,,,,,,,,,,,,,,,,,,,,736.2231,736.4217,736.4217,736.9226,,,,,,,,,,,,,,0.7864,1,,,,,,,,,,,,,,z,,,,,,,,,,,,,,,117,0,736.9231,737.7227,z,1,0.7864,,[],[],[],[],[],[],[],737.7227,739.7226,739.7226,739.7228,[],[],[],[],[],[],[],,739.7228,739.7229,0.015991652,-0.350716381,0,0,0,,0,116,116,5,1,2,RL,clisimal,cursive,clisimal_c.png,,,,,
,,,,32301,001,2025-11-06_23h34.05.006,HW_LDT_1,2024.2.4,MacIntel,59.88023952,,,,,,,,,,,,,,,,,,,,739.7239,739.9225,739.9226,740.4225,,,,,,,,,,,,,,1.6871,0,,,,,,,,,,,,,,m,,,,,,,,,,,,,,,118,0,740.423,742.1225,z,0,1.6871,,[],[],[],[],[],[],[],742.1227,744.1225,744.1226,744.1227,[],[],[],[],[],[],[],,744.1228,744.123,0.015991652,-0.350716381,0,0,0,,0,117,117,141,1,2,word,RELIGION,cursive,religion_c.png,,,,,
,,,,32301,001,2025-11-06_23h34.05.006,HW_LDT_1,2024.2.4,MacIntel,59.88023952,,,,,,,,,,,,,,,,,,,,744.124,744.3226,744.3226,744.8225,,,,,,,,,,,,,,0.8554,1,,,,,,,,,,,,,,m,,,,,,,,,,,,,,,119,0,744.823,745.6885,m,1,0.8554,,[],[],[],[],[],[],[],745.6885,747.6892,747.6893,747.6894,[],[],[],[],[],[],[],,747.6895,747.6896,0.015991652,-0.350716381,0,0,0,,0,118,118,115,1,2,word,LOGICAL,print,logical_p.png,,,,,
,,,,32301,001,2025-11-06_23h34.05.006,HW_LDT_1,2024.2.4,MacIntel,59.88023952,,,,,,,,,,,,,,,,,,,,747.6907,747.8883,747.8884,748.3892,,,,,,,,,,,,,,1.4377,0,,,,,,,,,,,,,,m,,,,,,,,,,,,,,,120,1,748.3897,749.8387,z,0,1.4377,,[],[],[],[],[],[],[],749.8388,751.8393,751.8393,753.7893,[],[],[],[],[],[],[],z,753.7893,753.7894,0.015991652,-0.350716381,0,0,0,,0,119,119,90,1,2,word,CAPITAL,cursive,capital_c.png,1.9371,,,,
,,,,32301,001,2025-11-06_23h34.05.006,HW_LDT_1,2024.2.4,MacIntel,59.88023952,,,,,,,,,,,,,,,,,,,,753.7903,753.9893,753.9893,754.4883,,,,,,,,,,,,,,2.2384,1,,,,,,,,,,,,,,m,,,,,,,,,,,,,,,121,0,754.4888,756.7394,m,1,2.2384,,[],[],[],[],[],[],[],756.7394,758.7384,758.7384,758.7386,[],[],[],[],[],[],[],,758.7387,758.7387,0.015991652,-0.350716381,0,0,0,,0,120,120,142,1,2,word,REMOTE,cursive,remote_c.png,,,,,
,,,,32301,001,2025-11-06_23h34.05.006,HW_LDT_1,2024.2.4,MacIntel,59.88023952,,,,,,,,,,,,,,,,,,,,758.7397,758.9384,758.9384,759.4393,,,,,,,,,,,,,,0.8908,1,,,,,,,,,,,,,,z,,,,,,,,,,,,,,,122,0,759.4397,760.3393,z,1,0.8908,,[],[],[],[],[],[],[],760.3394,762.3392,762.3392,762.3395,[],[],[],[],[],[],[],,762.3395,762.3396,0.015991652,-0.350716381,0,0,0,,0,121,121,35,1,2,RL,vesofity,print,vesofity_p.png,,,,,
,,,,32301,001,2025-11-06_23h34.05.006,HW_LDT_1,2024.2.4,MacIntel,59.88023952,,,,,,,,,,,,,,,,,,,,762.3407,762.5393,762.5394,763.0392,,,,,,,,,,,,,,2.5241,1,,,,,,,,,,,,,,m,,,,,,,,,,,,,,,123,0,763.0397,765.5717,m,1,2.5241,,[],[],[],[],[],[],[],765.5717,767.5716,767.5717,767.5718,[],[],[],[],[],[],[],,767.5718,767.5719,0.015991652,-0.350716381,0,0,0,,0,122,122,98,1,2,word,CRIMINAL,cursive,criminal_c.png,,,,,
,,,,32301,001,2025-11-06_23h34.05.006,HW_LDT_1,2024.2.4,MacIntel,59.88023952,,,,,,,,,,,,,,,,,,,,767.573,767.7725,767.7726,768.2726,,,,,,,,,,,,,,1.0794,1,,,,,,,,,,,,,,z,,,,,,,,,,,,,,,124,0,768.2731,769.3559,z,1,1.0794,,[],[],[],[],[],[],[],769.356,771.3561,771.3561,771.3562,[],[],[],[],[],[],[],,771.3562,771.3563,0.015991652,-0.350716381,0,0,0,,0,123,123,48,1,2,TL,detabe,print,detabe_p.png,,,,,
,,,,32301,001,2025-11-06_23h34.05.006,HW_LDT_1,2024.2.4,MacIntel,59.88023952,,,,,,,,,,,,,,,,,,,,771.3574,771.556,771.5561,772.0559,,,,,,,,,,,,,,1.6206,1,,,,,,,,,,,,,,z,,,,,,,,,,,,,,,125,0,772.0564,773.6894,z,1,1.6206,,[],[],[],[],[],[],[],773.6895,775.6893,775.6893,775.6895,[],[],[],[],[],[],[],,775.6896,775.6897,0.015991652,-0.350716381,0,0,0,,0,124,124,31,1,2,RL,spetisic,print,spetisic_p.png,,,,,
,,,,32301,001,2025-11-06_23h34.05.006,HW_LDT_1,2024.2.4,MacIntel,59.88023952,,,,,,,,,,,,,,,,,,,,775.6907,775.8892,775.8892,776.3893,,,,,,,,,,,,,,1.4657,1,,,,,,,,,,,,,,z,,,,,,,,,,,,,,,126,0,776.3898,777.8565,z,1,1.4657,,[],[],[],[],[],[],[],777.8565,779.856,779.856,779.8562,[],[],[],[],[],[],[],,779.8563,779.8563,0.023146059,-0.348032303,0,0,0,,0,125,125,73,1,2,TL,redisent,print,redisent_p.png,,,,,
,,,,32301,001,2025-11-06_23h34.05.006,HW_LDT_1,2024.2.4,MacIntel,59.88023952,,,,,,,,,,,,,,,,,,,,779.8573,780.0559,780.0559,780.5559,,,,,,,,,,,,,,1.2958,1,,,,,,,,,,,,,,z,,,,,,,,,,,,,,,127,0,780.5564,781.8559,z,1,1.2958,,[],[],[],[],[],[],[],781.856,783.856,783.856,783.8561,[],[],[],[],[],[],[],,783.8561,783.8562,0.023146059,-0.348309642,0,0,0,,0,126,126,51,1,2,TL,etidor,cursive,etidor_c.png,,,,,
,,,,32301,001,2025-11-06_23h34.05.006,HW_LDT_1,2024.2.4,MacIntel,59.88023952,,,,,,,,,,,,,,,,,,,,783.8573,784.056,784.056,784.556,,,,,,,,,,,,,,1.3379,1,,,,,,,,,,,,,,z,,,,,,,,,,,,,,,128,0,784.5564,785.9061,z,1,1.3379,,[],[],[],[],[],[],[],785.9062,787.9054,787.9054,787.9056,[],[],[],[],[],[],[],,787.9056,787.9058,0.023146059,-0.348309642,0,0,0,,0,127,127,57,1,2,TL,meromy,cursive,meromy_c.png,,,,,
,,,,32301,001,2025-11-06_23h34.05.006,HW_LDT_1,2024.2.4,MacIntel,59.88023952,,,,,,,,,,,,,,,,,,,,787.9068,788.106,788.106,788.6059,,,,,,,,,,,,,,1.2039,1,,,,,,,,,,,,,,m,,,,,,,,,,,,,,,129,1,788.6064,789.8228,m,1,1.2039,,[],[],[],[],[],[],[],789.8229,791.8226,791.8227,793.1061,[],[],[],[],[],[],[],z,793.1061,793.1062,0.023146059,-0.348309642,0,0,0,,0,128,128,82,1,2,word,AMATEUR,cursive,amateur_c.png,1.2712,,,,
,,,,32301,001,2025-11-06_23h34.05.006,HW_LDT_1,2024.2.4,MacIntel,59.88023952,,,,,,,,,,,,,,,,,,,,793.1073,793.3059,793.306,793.8059,,,,,,,,,,,,,,1.0539,1,,,,,,,,,,,,,,z,,,,,,,,,,,,,,,130,0,793.8065,794.8726,z,1,1.0539,,[],[],[],[],[],[],[],794.8727,796.8727,796.8727,796.873,[],[],[],[],[],[],[],,796.873,796.8731,0.023146059,-0.348309642,0,0,0,,0,129,129,60,1,2,TL,molibe,print,molibe_p.png,,,,,
,,,,32301,001,2025-11-06_23h34.05.006,HW_LDT_1,2024.2.4,MacIntel,59.88023952,,,,,,,,,,,,,,,,,,,,796.8743,797.0727,797.0727,797.5727,,,,,,,,,,,,,,1.6206,1,,,,,,,,,,,,,,m,,,,,,,,,,,,,,,131,0,797.5733,799.2061,m,1,1.6206,,[],[],[],[],[],[],[],799.2062,801.206,801.206,801.2062,[],[],[],[],[],[],[],,801.2063,801.2063,0.023146059,-0.348309642,0,0,0,,0,130,130,147,1,2,word,ROMANTIC,print,romantic_p.png,,,,,
,,,,32301,001,2025-11-06_23h34.05.006,HW_LDT_1,2024.2.4,MacIntel,59.88023952,,,,,,,,,,,,,,,,,,,,801.2075,801.406,801.406,801.9059,,,,,,,,,,,,,,1.7978,1,,,,,,,,,,,,,,m,,,,,,,,,,,,,,,132,0,801.9065,803.706,m,1,1.7978,,[],[],[],[],[],[],[],803.706,805.7059,805.706,805.7061,[],[],[],[],[],[],[],,805.7062,805.7063,0.023146059,-0.348309642,0,0,0,,0,131,131,131,1,2,word,POPULAR,cursive,popular_c.png,,,,,
,,,,32301,001,2025-11-06_23h34.05.006,HW_LDT_1,2024.2.4,MacIntel,59.88023952,,,,,,,,,,,,,,,,,,,,805.7073,805.9059,805.906,806.4059,,,,,,,,,,,,,,2.3541,1,,,,,,,,,,,,,,m,,,,,,,,,,,,,,,133,0,806.4065,808.7727,m,1,2.3541,,[],[],[],[],[],[],[],808.7728,810.7727,810.7727,810.7729,[],[],[],[],[],[],[],,810.7729,810.773,0.023146059,-0.348309642,0,0,0,,0,132,132,117,1,2,word,MARINE,cursive,marine_c.png,,,,,
,,,,32301,001,2025-11-06_23h34.05.006,HW_LDT_1,2024.2.4,MacIntel,59.88023952,,,,,,,,,,,,,,,,,,,,810.7741,810.9726,810.9726,811.4725,,,,,,,,,,,,,,1.6877,1,,,,,,,,,,,,,,z,,,,,,,,,,,,,,,134,0,811.4729,813.1727,z,1,1.6877,,[],[],[],[],[],[],[],813.1728,815.1726,815.1727,815.1729,[],[],[],[],[],[],[],,815.1729,815.173,0.023146059,-0.348309642,0,0,0,,0,133,133,42,1,2,TL,bedise,cursive,bedise_c.png,,,,,
,,,,32301,001,2025-11-06_23h34.05.006,HW_LDT_1,2024.2.4,MacIntel,59.88023952,,,,,,,,,,,,,,,,,,,,815.174,815.3727,815.3727,815.8727,,,,,,,,,,,,,,1.3129,1,,,,,,,,,,,,,,m,,,,,,,,,,,,,,,135,0,815.8732,817.1893,m,1,1.3129,,[],[],[],[],[],[],[],817.1893,819.1894,819.1894,819.1896,[],[],[],[],[],[],[],,819.1897,819.1899,0.023146059,-0.348309642,0,0,0,,0,134,134,104,1,2,word,DOMINANT,print,dominant_p.png,,,,,
,,,,32301,001,2025-11-06_23h34.05.006,HW_LDT_1,2024.2.4,MacIntel,59.88023952,,,,,,,,,,,,,,,,,,,,819.1909,819.3893,819.3894,819.8894,,,,,,,,,,,,,,2.237,1,,,,,,,,,,,,,,z,,,,,,,,,,,,,,,136,0,819.8899,822.1394,z,1,2.237,,[],[],[],[],[],[],[],822.1395,824.1392,824.1393,824.1394,[],[],[],[],[],[],[],,824.1395,824.1396,0.023146059,-0.347134477,0,0,0,,0,135,135,19,1,2,RL,monebate,cursive,monebate_c.png,,,,,
,,,,32301,001,2025-11-06_23h34.05.006,HW_LDT_1,2024.2.4,MacIntel,59.88023952,,,,,,,,,,,,,,,,,,,,824.1406,824.3394,824.3394,824.8394,,,,,,,,,,,,,,1.7126,1,,,,,,,,,,,,,,z,,,,,,,,,,,,,,,137,0,824.8398,826.5559,z,1,1.7126,,[],[],[],[],[],[],[],826.556,828.556,828.5561,828.5562,[],[],[],[],[],[],[],,828.5563,828.5563,0.023146059,-0.347134477,0,0,0,,0,136,136,74,1,2,TL,rerite,cursive,rerite_c.png,,,,,
,,,,32301,001,2025-11-06_23h34.05.006,HW_LDT_1,2024.2.4,MacIntel,59.88023952,,,,,,,,,,,,,,,,,,,,828.5573,828.756,828.756,829.2558,,,,,,,,,,,,,,1.2899,1,,,,,,,,,,,,,,z,,,,,,,,,,,,,,,138,1,829.2563,830.5561,z,1,1.2899,,[],[],[],[],[],[],[],830.5561,832.556,832.556,833.9894,[],[],[],[],[],[],[],m,833.9894,833.9895,0.023146059,-0.347134477,0,0,0,,0,137,137,39,1,2,TL,aminal,print,aminal_p.png,1.4319,,,,
,,,,32301,001,2025-11-06_23h34.05.006,HW_LDT_1,2024.2.4,MacIntel,59.88023952,,,,,,,,,,,,,,,,,,,,833.9905,834.1894,834.1894,834.6894,,,,,,,,,,,,,,1.6217,1,,,,,,,,,,,,,,z,,,,,,,,,,,,,,,139,0,834.6898,836.3227,z,1,1.6217,,[],[],[],[],[],[],[],836.3228,838.3228,838.3228,838.3229,[],[],[],[],[],[],[],,838.323,838.323,0.023146059,-0.347134477,0,0,0,,0,138,138,46,1,2,TL,codemy,cursive,codemy_c.png,,,,,
,,,,32301,001,2025-11-06_23h34.05.006,HW_LDT_1,2024.2.4,MacIntel,59.88023952,,,,,,,,,,,,,,,,,,,,838.324,838.5227,838.5228,839.0227,,,,,,,,,,,,,,1.2156,1,,,,,,,,,,,,,,m,,,,,,,,,,,,,,,140,0,839.0231,840.2397,m,1,1.2156,,[],[],[],[],[],[],[],840.2398,842.2394,842.2394,842.2396,[],[],[],[],[],[],[],,842.2397,842.2397,0.023146059,-0.347134477,0,0,0,,0,139,139,159,1,2,word,VETERAN,print,veteran_p.png,,,,,
,,,,32301,001,2025-11-06_23h34.05.006,HW_LDT_1,2024.2.4,MacIntel,59.88023952,,,,,,,,,,,,,,,,,,,,842.2408,842.4394,842.4394,842.9394,,,,,,,,,,,,,,1.354,1,,,,,,,,,,,,,,m,,,,,,,,,,,,,,,141,0,842.9398,844.3064,m,1,1.354,,[],[],[],[],[],[],[],844.3065,846.3059,846.306,846.3062,[],[],[],[],[],[],[],,846.3063,846.3063,0.023146059,-0.347134477,0,0,0,,0,140,140,108,1,2,word,FORTUNE,print,fortune_p.png,,,,,
,,,,32301,001,2025-11-06_23h34.05.006,HW_LDT_1,2024.2.4,MacIntel,59.88023952,,,,,,,,,,,,,,,,,,,,846.3073,846.506,846.5061,847.0061,,,,,,,,,,,,,,0.8224,1,,,,,,,,,,,,,,z,,,,,,,,,,,,,,,142,0,847.0066,847.8396,z,1,0.8224,,[],[],[],[],[],[],[],847.8397,849.8393,849.8394,849.8396,[],[],[],[],[],[],[],,849.8396,849.8397,0.023146059,-0.347134477,0,0,0,,0,141,141,16,1,2,RL,losipal,print,losipal_p.png,,,,,
,,,,32301,001,2025-11-06_23h34.05.006,HW_LDT_1,2024.2.4,MacIntel,59.88023952,,,,,,,,,,,,,,,,,,,,849.8408,850.0393,850.0394,850.5394,,,,,,,,,,,,,,0.7874,0,,,,,,,,,,,,,,m,,,,,,,,,,,,,,,143,0,850.5398,851.3394,z,0,0.7874,,[],[],[],[],[],[],[],851.3395,853.3394,853.3394,853.3397,[],[],[],[],[],[],[],,853.3397,853.3397,0.023146059,-0.347134477,0,0,0,,0,142,142,113,1,2,word,LITERAL,cursive,literal_c.png,,,,,
,,,,32301,001,2025-11-06_23h34.05.006,HW_LDT_1,2024.2.4,MacIntel,59.88023952,,,,,,,,,,,,,,,,,,,,853.3408,853.5394,853.5395,854.0393,,,,,,,,,,,,,,0.9962,1,,,,,,,,,,,,,,z,,,,,,,,,,,,,,,144,0,854.04,855.0392,z,1,0.9962,,[],[],[],[],[],[],[],855.0394,857.0393,857.0394,857.0395,[],[],[],[],[],[],[],,857.0396,857.0397,0.023146059,-0.347134477,0,0,0,,0,143,143,23,1,2,RL,procogal,cursive,procogal_c.png,,,,,
,,,,32301,001,2025-11-06_23h34.05.006,HW_LDT_1,2024.2.4,MacIntel,59.88023952,,,,,,,,,,,,,,,,,,,,857.0407,857.2394,857.2394,857.7393,,,,,,,,,,,,,,1.4972,1,,,,,,,,,,,,,,m,,,,,,,,,,,,,,,145,0,857.7399,859.2392,m,1,1.4972,,[],[],[],[],[],[],[],859.2393,861.2394,861.2394,861.2396,[],[],[],[],[],[],[],,861.2396,861.2397,0.023146059,-0.347134477,0,0,0,,0,144,144,128,1,2,word,PACIFIC,print,pacific_p.png,,,,,
,,,,32301,001,2025-11-06_23h34.05.006,HW_LDT_1,2024.2.4,MacIntel,59.88023952,,,,,,,,,,,,,,,,,,,,861.2408,861.4393,861.4394,861.9394,,,,,,,,,,,,,,1.296,1,,,,,,,,,,,,,,m,,,,,,,,,,,,,,,146,0,861.9399,863.2393,m,1,1.296,,[],[],[],[],[],[],[],863.2394,865.2394,865.2395,865.2396,[],[],[],[],[],[],[],,865.2396,865.2398,0.023146059,-0.347134477,0,0,0,,0,145,145,154,1,2,word,STORAGE,print,storage_p.png,,,,,
,,,,32301,001,2025-11-06_23h34.05.006,HW_LDT_1,2024.2.4,MacIntel,59.88023952,,,,,,,,,,,,,,,,,,,,865.2409,865.4394,865.4394,865.9393,,,,,,,,,,,,,,0.9633,1,,,,,,,,,,,,,,z,,,,,,,,,,,,,,,147,1,865.9398,866.9059,z,1,0.9633,,[],[],[],[],[],[],[],866.906,868.9051,868.9052,871.6227,[],[],[],[],[],[],[],m,871.6227,871.6228,0.023146059,-0.347134477,0,0,0,,0,146,146,18,1,2,RL,mesibine,print,mesibine_p.png,2.7142,,,,
,,,,32301,001,2025-11-06_23h34.05.006,HW_LDT_1,2024.2.4,MacIntel,59.88023952,,,,,,,,,,,,,,,,,,,,871.6237,871.8217,871.8218,872.3223,,,,,,,,,,,,,,1.7067,1,,,,,,,,,,,,,,m,,,,,,,,,,,,,,,148,0,872.3229,874.0386,m,1,1.7067,,[],[],[],[],[],[],[],874.0386,876.0394,876.0394,876.0396,[],[],[],[],[],[],[],,876.0397,876.0397,0.023146059,-0.347134477,0,0,0,,0,147,147,158,1,2,word,VELOCITY,print,velocity_p.png,,,,,
,,,,32301,001,2025-11-06_23h34.05.006,HW_LDT_1,2024.2.4,MacIntel,59.88023952,,,,,,,,,,,,,,,,,,,,876.0409,876.2394,876.2394,876.7384,,,,,,,,,,,,,,1.7999,1,,,,,,,,,,,,,,m,,,,,,,,,,,,,,,149,0,876.739,878.5398,m,1,1.7999,,[],[],[],[],[],[],[],878.5399,880.5395,880.5395,880.5398,[],[],[],[],[],[],[],,880.5398,880.5399,0.023146059,-0.347134477,0,0,0,,0,148,148,95,1,2,word,COMEDY,cursive,comedy_c.png,,,,,
,,,,32301,001,2025-11-06_23h34.05.006,HW_LDT_1,2024.2.4,MacIntel,59.88023952,,,,,,,,,,,,,,,,,,,,880.5411,880.7394,880.7395,881.2384,,,,,,,,,,,,,,1.2138,0,,,,,,,,,,,,,,m,,,,,,,,,,,,,,,150,0,881.2389,882.4551,z,0,1.2138,,[],[],[],[],[],[],[],882.4552,884.456,884.4561,884.4563,[],[],[],[],[],[],[],,884.4563,884.4564,0.023146059,-0.347134477,0,0,0,,0,149,149,138,1,2,word,REFUSAL,cursive,refusal_c.png,,,,,
,,,,32301,001,2025-11-06_23h34.05.006,HW_LDT_1,2024.2.4,MacIntel,59.88023952,,,,,,,,,,,,,,,,,,,,884.4574,884.6551,884.6552,885.1562,,,,,,,,,,,,,,1.2294,1,,,,,,,,,,,,,,z,,,,,,,,,,,,,,,151,0,885.1567,886.3883,z,1,1.2294,,[],[],[],[],[],[],[],886.3884,888.3894,888.3895,888.3897,[],[],[],[],[],[],[],,888.3897,888.3898,0.023146059,-0.347134477,0,0,0,,0,150,150,64,1,2,TL,paficic,print,paficic_p.png,,,,,
,,,,32301,001,2025-11-06_23h34.05.006,HW_LDT_1,2024.2.4,MacIntel,59.88023952,,,,,,,,,,,,,,,,,,,,888.3908,888.5894,888.5894,889.0894,,,,,,,,,,,,,,1.4373,1,,,,,,,,,,,,,,m,,,,,,,,,,,,,,,152,0,889.0899,890.5386,m,1,1.4373,,[],[],[],[],[],[],[],890.5387,892.5394,892.5394,892.5397,[],[],[],[],[],[],[],,892.5397,892.5398,0.023146059,-0.347134477,1,0,0,,0,151,151,81,1,2,word,ADVISORY,print,advisory_p.png,,,,,
,,,,32301,001,2025-11-06_23h34.05.006,HW_LDT_1,2024.2.4,MacIntel,59.88023952,,,,,,,,,,,,,,,,,,,,892.5408,892.7384,892.7385,893.2393,,,,,,,,,,,,,,1.1034,1,,,,,,,,,,,,,,m,,,,,,,,,,,,,,,153,0,893.2398,894.3552,m,1,1.1034,,[],[],[],[],[],[],[],894.3553,896.3561,896.3561,896.3564,[],[],[],[],[],[],[],,896.3564,896.3565,0.023146059,-0.347134477,1,0,0,,0,152,152,87,1,2,word,CAFETERIA,print,cafeteria_p.png,,,,,
,,,,32301,001,2025-11-06_23h34.05.006,HW_LDT_1,2024.2.4,MacIntel,59.88023952,,,,,,,,,,,,,,,,,,,,896.3575,896.5562,896.5562,897.0559,,,,,,,,,,,,,,4.0075,1,,,,,,,,,,,,,,m,,,,,,,,,,,,,,,154,0,897.0564,901.0728,m,1,4.0075,,"[0.023146058965102287,0.023146058965102287,0.023146058965102287]","[-0.347134476534296,-0.347134476534296,-0.347134476534296]","[1,1,1]","[0,0,0]","[0,0,0]","[0.13310000002388733,0.4991000000238728,1.2494000000953065]","[null,null,null]",901.073,903.0727,903.0728,903.073,[],[],[],[],[],[],[],,903.073,903.0731,0.023146059,-0.347134477,0,0,0,,0,153,153,133,1,2,word,PROVIDE,cursive,provide_c.png,,,,,
,,,,32301,001,2025-11-06_23h34.05.006,HW_LDT_1,2024.2.4,MacIntel,59.88023952,,,,,,,,,,,,,,,,,,,,903.0742,903.2728,903.2728,903.7727,,,,,,,,,,,,,,2.436,1,,,,,,,,,,,,,,m,,,,,,,,,,,,,,,155,1,903.7732,906.2218,m,1,2.436,,[0.023146058965102287],[-0.347134476534296],[1],[0],[0],[1.5824000000953902],[null],906.2219,908.2228,908.2228,910.4228,[0.023146058965102287],[-0.347134476534296],[1],[0],[0],[2.133299999952328],[null],z,910.4229,910.423,0.023146059,-0.347134477,1,0,0,,0,154,154,156,1,2,word,TRIBUTE,cursive,tribute_c.png,2.191,,,,
,,,,32301,001,2025-11-06_23h34.05.006,HW_LDT_1,2024.2.4,MacIntel,59.88023952,,,,,,,,,,,,,,,,,,,,910.424,910.6227,910.6227,911.1228,,,,,,,,,,,,,,1.4322,0,,,,,,,,,,,,,,m,,,,,,,,,,,,,,,156,0,911.1233,912.5563,z,0,1.4322,,[],[],[],[],[],[],[],912.5565,914.5562,914.5562,914.5564,[],[],[],[],[],[],[],,914.5565,914.5566,0.023146059,-0.347134477,0,0,0,,0,155,155,106,1,2,word,ELABORATE,cursive,elaborate_c.png,,,,,
,,,,32301,001,2025-11-06_23h34.05.006,HW_LDT_1,2024.2.4,MacIntel,59.88023952,,,,,,,,,,,,,,,,,,,,914.5575,914.7561,914.7562,915.2552,,,,,,,,,,,,,,1.647,1,,,,,,,,,,,,,,z,,,,,,,,,,,,,,,157,0,915.2557,916.906,z,1,1.647,,[],[],[],[],[],[],[],916.9061,918.9061,918.9061,918.9063,[],[],[],[],[],[],[],,918.9063,918.9065,0.023146059,-0.347134477,0,0,0,,0,156,156,58,1,2,TL,mitilary,cursive,mitilary_c.png,,,,,
,,,,32301,001,2025-11-06_23h34.05.006,HW_LDT_1,2024.2.4,MacIntel,59.88023952,,,,,,,,,,,,,,,,,,,,918.9076,919.1061,919.1061,919.6061,,,,,,,,,,,,,,2.1308,1,,,,,,,,,,,,,,m,,,,,,,,,,,,,,,158,1,919.6066,921.7394,m,1,2.1308,,[],[],[],[],[],[],[],921.7394,923.7395,923.7395,925.4219,[],[],[],[],[],[],[],z,925.4221,925.4222,0.023146059,-0.347134477,0,0,0,,0,157,157,84,1,2,word,BELOVED,cursive,beloved_c.png,1.6714,,,,
,,,,32301,001,2025-11-06_23h34.05.006,HW_LDT_1,2024.2.4,MacIntel,59.88023952,,,,,,,,,,,,,,,,,,,,925.4232,925.6223,925.6223,926.1227,,,,,,,,,,,,,,2.5875,1,,,,,,,,,,,,,,z,,,,,,,,,,,,,,,159,0,926.1233,928.7228,z,1,2.5875,,[],[],[],[],[],[],[],928.7229,930.7228,930.7228,930.723,[],[],[],[],[],[],[],,930.7231,930.7232,0.023146059,-0.347134477,0,0,0,,0,158,158,61,1,2,TL,nuremical,cursive,nuremical_c.png,,,,,
,,,,32301,001,2025-11-06_23h34.05.006,HW_LDT_1,2024.2.4,MacIntel,59.88023952,,,,,,,,,,,,,,,,,,,,930.7243,930.9227,930.9228,931.4218,,,,,,,,,,,,,,3.5812,0,,,,,,,,,,,,,,z,,,,,,,,,,,,,,,160,0,931.4224,935.006,m,0,3.5812,,[],[],[],[],[],[],[],935.0062,937.0062,937.0062,937.0064,[],[],[],[],[],[],[],,937.0064,937.0066,0.035019931,-0.38572691,0,0,0,,0,159,159,17,1,2,RL,macise,cursive,macise_c.png,,,,,
,,,,32301,001,2025-11-06_23h34.05.006,HW_LDT_1,2024.2.4,MacIntel,59.88023952,,,,,,,,,,,,,,,,,,,,,,,,,,,,,,,,,,,,,,,,,,,,,,,,,,,,,,,,,,,,,,,,,,,,,,,,,,,,,,,,,,,,,,,,,,,,,,,,,,,,,,,,,,,,,,,,,,,937.0154,942.0055
