counterbalance_lists.group,counterbalance_lists.remaining,get_list.started,get_list.stopped,participant,session,date,expName,psychopyVersion,OS,frameRate,Instructions.started,Instructions.stopped,key_resp.keys,key_resp.rt,key_resp.duration,instr_done_touch.x,instr_done_touch.y,instr_done_touch.leftButton,instr_done_touch.midButton,instr_done_touch.rightButton,start_instr.thisRepN,start_instr.thisTrialN,start_instr.thisN,start_instr.thisIndex,start_instr.ran,pageN,phase,instruct_text,has_image,instruct_image,showProgress.started,showProgress.stopped,fix.started,fix.stopped,prac.started,prac.stopped,response.keys,response.corr,response.rt,response.duration,touch_resp.x,touch_resp.y,touch_resp.leftButton,touch_resp.midButton,touch_resp.rightButton,touch_resp.time,touch_resp.clicked_name,rt,corr,feedback.started,feedback.stopped,trials.thisRepN,trials.thisTrialN,trials.thisN,trials.thisIndex,trials.ran,TrialID,StimulusType,Condition,PrimeDuration,Prime,Target,corrAns,Instructions_expt.started,Instructions_expt.stopped,key_resp_3.keys,key_resp_3.rt,key_resp_3.duration,instr_done_touch_3.x,instr_done_touch_3.y,instr_done_touch_3.leftButton,instr_done_touch_3.midButton,instr_done_touch_3.rightButton,instr_experiment.thisRepN,instr_experiment.thisTrialN,instr_experiment.thisN,instr_experiment.thisIndex,instr_experiment.ran,trialID,flag,maintask.started,maintask.stopped,key_resp_2.keys,key_resp_2.corr,key_resp_2.rt,key_resp_2.duration,targ_click.x,targ_click.y,targ_click.leftButton,targ_click.midButton,targ_click.rightButton,targ_click.time,targ_click.clicked_name,ITI.started,ITI.stopped,probe.started,probe.stopped,click_probe.x,click_probe.y,click_probe.leftButton,click_probe.midButton,click_probe.rightButton,click_probe.time,click_probe.clicked_name,key_resp_probe.keys,key_resp_probe.rt,key_resp_probe.duration,Break.started,Break.stopped,break_done_touch.x,break_done_touch.y,break_done_touch.leftButton,break_done_touch.midButton,break_done_touch.rightButton,break_done_keyboard.keys,list3_trials.thisRepN,list3_trials.thisTrialN,list3_trials.thisN,list3_trials.thisIndex,list3_trials.ran,list_id,item_type,string,font,stim_file,break_done_keyboard.rt,break_done_keyboard.duration,End.started,End.stopped
list3,,0.4024,0.4025,32310,001,2025-12-04_20h32.56.606,HW_LDT_1,2024.2.4,MacIntel,56.81818182,,,,,,,,,,,,,,,,,,,,,,,,,,,,,,,,,,,,,,,,,,,,,,,,,,,,,,,,,,,,,,,,,,,,,,,,,,,,,,,,,,,,,,,,,,,,,,,,,,,,,,,,,,,,,,,,,,,,,,,
,,,,32310,001,2025-12-04_20h32.56.606,HW_LDT_1,2024.2.4,MacIntel,56.81818182,0.4203,2.6247,space,2.174,,-0.11984809,-0.408363715,0,0,0,0,0,0,0,1,1,instructions,"INSTRUCTIONS
At the start of each trial, look at the plus sign  (+) in the center of the screen.  This tells you that a trial is about to begin and where to look. Second, the plus sign will disappear and a string of letters will appear. Your task is to determine if the string of letters is a word or not. If the item is a word press the M key (on keyboard)  or touch the word button (phone/tablet).  If the item is not a word,  press the  Z key (on keyboard)  or touch the nonword button (on phone/tablet). The items will be presented for a short time. 
Press the space bar or touch  continue.",0,,,,,,,,,,,,,,,,,,,,,,,,,,,,,,,,,,,,,,,,,,,,,,,,,,,,,,,,,,,,,,,,,,,,,,,,,,,,,,,,,,,,,,,,,,,,,,,,,,,,
,,,,32310,001,2025-12-04_20h32.56.606,HW_LDT_1,2024.2.4,MacIntel,56.81818182,2.627,3.3568,space,0.7081,,-0.11984809,-0.408363715,0,0,0,0,1,1,1,1,2,instructions,"If your device has a keyboard, press the 'Z' key for nonwords and the 'M' key for words.





Press the space bar or touch the button below to continue.",0,keyboard-example.gif,,,,,,,,,,,,,,,,,,,,,,,,,,,,,,,,,,,,,,,,,,,,,,,,,,,,,,,,,,,,,,,,,,,,,,,,,,,,,,,,,,,,,,,,,,,,,,,,,,,
,,,,32310,001,2025-12-04_20h32.56.606,HW_LDT_1,2024.2.4,MacIntel,56.81818182,3.3583,8.9241,space,5.5491,,-0.11984809,-0.408363715,0,0,0,0,2,2,2,1,3,instructions,"If you are using a touchscreen only device, use the buttons on the screen. Do not use the mouse.





Press the space bar or touch the button below to continue.",0,touchscreen-example.gif,,,,,,,,,,,,,,,,,,,,,,,,,,,,,,,,,,,,,,,,,,,,,,,,,,,,,,,,,,,,,,,,,,,,,,,,,,,,,,,,,,,,,,,,,,,,,,,,,,,
,,,,32310,001,2025-12-04_20h32.56.606,HW_LDT_1,2024.2.4,MacIntel,56.81818182,8.9258,17.2408,space,8.2997,,-0.11984809,-0.408363715,0,0,0,0,3,3,3,1,4,instructions,"It is very important that you respond as quickly and accurately as possible, as each letter string will only be on the screen for two seconds. If you do not respond within this time, the message 'Too slow!' will be displayed and the experiment will progress to the next letter string. The first 20 trials will be practice trials and you will receive feedback on your answers. 

Press the space bar or touch the button below to start the practice trials.",0,,,,,,,,,,,,,,,,,,,,,,,,,,,,,,,,,,,,,,,,,,,,,,,,,,,,,,,,,,,,,,,,,,,,,,,,,,,,,,,,,,,,,,,,,,,,,,,,,,,,
,,,,32310,001,2025-12-04_20h32.56.606,HW_LDT_1,2024.2.4,MacIntel,56.81818182,,,,,,,,,,,,,,,,,,,,,17.2646,17.4402,17.4403,17.9409,17.9414,20.3246,z,1,2.3546,,[],[],[],[],[],[],[],2.3546,1,20.325,20.8244,0,0,0,14,1,1015,NW,UN,16,miaber,THRALE,z,,,,,,,,,,,,,,,,,,,,,,,,,,,,,,,,,,,,,,,,,,,,,,,,,,,,,,,,,,,,,,,,,,
,,,,32310,001,2025-12-04_20h32.56.606,HW_LDT_1,2024.2.4,MacIntel,56.81818182,,,,,,,,,,,,,,,,,,,,,20.8257,21.023,21.0231,21.5239,21.5248,22.4573,z,1,0.9217,,[],[],[],[],[],[],[],0.9217,1,22.4574,22.9566,0,1,1,11,1,1012,NW,"ID",16,rashet,RASHET,z,,,,,,,,,,,,,,,,,,,,,,,,,,,,,,,,,,,,,,,,,,,,,,,,,,,,,,,,,,,,,,,,,,
,,,,32310,001,2025-12-04_20h32.56.606,HW_LDT_1,2024.2.4,MacIntel,56.81818182,,,,,,,,,,,,,,,,,,,,,22.958,23.1565,23.1565,23.6574,23.6583,24.6741,m,0,0.9944,,[],[],[],[],[],[],[],0.9944,0,24.6749,25.1731,0,2,2,10,1,1011,NW,"ID",16,inlade,INLADE,z,,,,,,,,,,,,,,,,,,,,,,,,,,,,,,,,,,,,,,,,,,,,,,,,,,,,,,,,,,,,,,,,,,
,,,,32310,001,2025-12-04_20h32.56.606,HW_LDT_1,2024.2.4,MacIntel,56.81818182,,,,,,,,,,,,,,,,,,,,,25.1742,25.3733,25.3733,25.8745,25.876,26.7741,z,1,0.886,,[],[],[],[],[],[],[],0.886,1,26.7749,27.2731,0,3,3,9,1,1010,NW,"ID",33,fariny,FARINY,z,,,,,,,,,,,,,,,,,,,,,,,,,,,,,,,,,,,,,,,,,,,,,,,,,,,,,,,,,,,,,,,,,,
,,,,32310,001,2025-12-04_20h32.56.606,HW_LDT_1,2024.2.4,MacIntel,56.81818182,,,,,,,,,,,,,,,,,,,,,27.2744,27.4742,27.4743,27.9741,27.9753,28.6075,m,1,0.6114,,[],[],[],[],[],[],[],0.6114,1,28.6077,29.1073,0,4,4,0,1,1001,WORD,"ID",33,utopia,UTOPIA,m,,,,,,,,,,,,,,,,,,,,,,,,,,,,,,,,,,,,,,,,,,,,,,,,,,,,,,,,,,,,,,,,,,
,,,,32310,001,2025-12-04_20h32.56.606,HW_LDT_1,2024.2.4,MacIntel,56.81818182,,,,,,,,,,,,,,,,,,,,,29.1086,29.3075,29.3076,29.8074,29.8085,30.5576,z,1,0.7285,,[],[],[],[],[],[],[],0.7285,1,30.5577,31.0567,0,5,5,12,1,1013,NW,UN,33,adveil,SPRINY,z,,,,,,,,,,,,,,,,,,,,,,,,,,,,,,,,,,,,,,,,,,,,,,,,,,,,,,,,,,,,,,,,,,
,,,,32310,001,2025-12-04_20h32.56.606,HW_LDT_1,2024.2.4,MacIntel,56.81818182,,,,,,,,,,,,,,,,,,,,,31.0581,31.2575,31.2576,31.7575,31.7586,32.4077,z,1,0.6395,,[],[],[],[],[],[],[],0.6395,1,32.4079,32.9077,0,6,6,15,1,1016,NW,UN,16,mushed,WHAISE,z,,,,,,,,,,,,,,,,,,,,,,,,,,,,,,,,,,,,,,,,,,,,,,,,,,,,,,,,,,,,,,,,,,
,,,,32310,001,2025-12-04_20h32.56.606,HW_LDT_1,2024.2.4,MacIntel,56.81818182,,,,,,,,,,,,,,,,,,,,,32.9093,33.1075,33.1076,33.6076,33.6087,34.2742,m,1,0.6435,,[],[],[],[],[],[],[],0.6435,1,34.2743,34.7744,0,7,7,5,1,1006,WORD,UN,33,frenzy,OBTAIN,m,,,,,,,,,,,,,,,,,,,,,,,,,,,,,,,,,,,,,,,,,,,,,,,,,,,,,,,,,,,,,,,,,,
,,,,32310,001,2025-12-04_20h32.56.606,HW_LDT_1,2024.2.4,MacIntel,56.81818182,,,,,,,,,,,,,,,,,,,,,34.7756,34.9736,34.9737,35.4742,35.4748,36.1076,z,1,0.6158,,[],[],[],[],[],[],[],0.6158,1,36.1077,36.6078,0,8,8,8,1,1009,NW,"ID",33,aslert,ASLERT,z,,,,,,,,,,,,,,,,,,,,,,,,,,,,,,,,,,,,,,,,,,,,,,,,,,,,,,,,,,,,,,,,,,
,,,,32310,001,2025-12-04_20h32.56.606,HW_LDT_1,2024.2.4,MacIntel,56.81818182,,,,,,,,,,,,,,,,,,,,,36.6094,36.8076,36.8077,37.3066,37.3075,37.9909,m,1,0.674,,[],[],[],[],[],[],[],0.674,1,37.991,38.491,0,9,9,3,1,1004,WORD,"ID",16,matrix,MATRIX,m,,,,,,,,,,,,,,,,,,,,,,,,,,,,,,,,,,,,,,,,,,,,,,,,,,,,,,,,,,,,,,,,,,
,,,,32310,001,2025-12-04_20h32.56.606,HW_LDT_1,2024.2.4,MacIntel,56.81818182,,,,,,,,,,,,,,,,,,,,,38.4923,38.691,38.6911,39.191,39.1922,39.8243,m,1,0.6129,,[],[],[],[],[],[],[],0.6129,1,39.8245,40.3244,0,10,10,2,1,1003,WORD,"ID",16,almond,ALMOND,m,,,,,,,,,,,,,,,,,,,,,,,,,,,,,,,,,,,,,,,,,,,,,,,,,,,,,,,,,,,,,,,,,,
,,,,32310,001,2025-12-04_20h32.56.606,HW_LDT_1,2024.2.4,MacIntel,56.81818182,,,,,,,,,,,,,,,,,,,,,40.3256,40.524,40.5241,41.0245,41.0255,41.6577,z,1,0.6122,,[],[],[],[],[],[],[],0.6122,1,41.6578,42.1579,0,11,11,13,1,1014,NW,UN,33,winfer,ROUPET,z,,,,,,,,,,,,,,,,,,,,,,,,,,,,,,,,,,,,,,,,,,,,,,,,,,,,,,,,,,,,,,,,,,
,,,,32310,001,2025-12-04_20h32.56.606,HW_LDT_1,2024.2.4,MacIntel,56.81818182,,,,,,,,,,,,,,,,,,,,,42.1591,42.3578,42.358,42.8576,42.8585,43.8741,m,1,1.0066,,[],[],[],[],[],[],[],1.0066,1,43.8742,44.3744,0,12,12,1,1,1002,WORD,"ID",33,adjust,ADJUST,m,,,,,,,,,,,,,,,,,,,,,,,,,,,,,,,,,,,,,,,,,,,,,,,,,,,,,,,,,,,,,,,,,,
,,,,32310,001,2025-12-04_20h32.56.606,HW_LDT_1,2024.2.4,MacIntel,56.81818182,,,,,,,,,,,,,,,,,,,,,44.3755,44.5744,44.5744,45.0745,45.0755,45.7744,m,1,0.6768,,[],[],[],[],[],[],[],0.6768,1,45.7746,46.2746,0,13,13,6,1,1007,WORD,UN,16,tropic,ZOMBIE,m,,,,,,,,,,,,,,,,,,,,,,,,,,,,,,,,,,,,,,,,,,,,,,,,,,,,,,,,,,,,,,,,,,
,,,,32310,001,2025-12-04_20h32.56.606,HW_LDT_1,2024.2.4,MacIntel,56.81818182,,,,,,,,,,,,,,,,,,,,,46.276,46.4745,46.4745,46.9746,46.9757,47.7412,m,1,0.7493,,[],[],[],[],[],[],[],0.7493,1,47.7413,48.2415,0,14,14,4,1,1005,WORD,UN,33,abound,SQUEAK,m,,,,,,,,,,,,,,,,,,,,,,,,,,,,,,,,,,,,,,,,,,,,,,,,,,,,,,,,,,,,,,,,,,
,,,,32310,001,2025-12-04_20h32.56.606,HW_LDT_1,2024.2.4,MacIntel,56.81818182,,,,,,,,,,,,,,,,,,,,,48.2429,48.4412,48.4413,48.9413,48.9424,49.908,m,1,0.9446,,[],[],[],[],[],[],[],0.9446,1,49.9081,50.4079,0,15,15,7,1,1008,WORD,UN,16,hurdle,VOLUME,m,,,,,,,,,,,,,,,,,,,,,,,,,,,,,,,,,,,,,,,,,,,,,,,,,,,,,,,,,,,,,,,,,,
,,,,32310,001,2025-12-04_20h32.56.606,HW_LDT_1,2024.2.4,MacIntel,56.81818182,,,,,,,,,,,,,,,,1,end_of_practice,"You have completed the practice trials. During the experimental trials, you will not receive feedback. On some trials you will be asked to report whether the item you just saw was in cursive or print. 
Before you begin, please ensure that you are in a comfortable and quiet location and will not be disturbed for about 15 minutes, as we cannot use your data if you do not complete all the trials. 
 When you are ready to start the experimental trials, please press space or touch the button below.",,,,,,,,,,,,,,,,,,,,,,,,,,,,,,,,,,,,50.4154,51.5589,space,1.1276,,-0.000290799,-0.253385417,0,0,0,0,0,0,0,1,,,,,,,,,,,,,,,,,,,,,,,,,,,,,,,,,,,,,,,,,,,,,,,,,,,
,,,,32310,001,2025-12-04_20h32.56.606,HW_LDT_1,2024.2.4,MacIntel,56.81818182,,,,,,,,,,,,,,,,,,,,,51.5761,51.7578,51.7579,52.258,,,,,,,,,,,,,,2.0835,1,,,,,,,,,,,,,,z,,,,,,,,,,,,,,,,1,1,52.2599,54.3581,z,1,2.0835,,[],[],[],[],[],[],[],54.3583,56.3584,56.3586,59.6417,[],[],[],[],[],[],[],z,3.2796,,59.642,59.6446,-0.000290799,-0.253385417,0,0,0,,0,0,0,66,1,3,TL,retalive,cursive,retalive_c.png,,,,
,,,,32310,001,2025-12-04_20h32.56.606,HW_LDT_1,2024.2.4,MacIntel,56.81818182,,,,,,,,,,,,,,,,,,,,,59.6454,59.8415,59.8416,60.3415,,,,,,,,,,,,,,2.1191,1,,,,,,,,,,,,,,z,,,,,,,,,,,,,,,,2,0,60.3423,62.475,z,1,2.1191,,[],[],[],[],[],[],[],62.4751,64.4749,64.475,64.4754,[],[],[],[],[],[],[],,,,64.4755,64.4756,-0.000290799,-0.253385417,0,0,0,,0,1,1,48,1,3,TL,grafetul,cursive,grafetul_c.png,,,,
,,,,32310,001,2025-12-04_20h32.56.606,HW_LDT_1,2024.2.4,MacIntel,56.81818182,,,,,,,,,,,,,,,,,,,,,64.4771,64.6749,64.675,65.175,,,,,,,,,,,,,,1.9703,0,,,,,,,,,,,,,,z,,,,,,,,,,,,,,,,3,0,65.1757,67.1583,m,0,1.9703,,[],[],[],[],[],[],[],67.1584,69.1581,69.1581,69.1584,[],[],[],[],[],[],[],,,,69.1584,69.1587,-0.000290799,-0.253385417,0,0,0,,0,2,2,78,1,3,TL,vecolity,cursive,vecolity_c.png,,,,
,,,,32310,001,2025-12-04_20h32.56.606,HW_LDT_1,2024.2.4,MacIntel,56.81818182,,,,,,,,,,,,,,,,,,,,,69.1599,69.3584,69.3584,69.8577,,,,,,,,,,,,,,1.4866,1,,,,,,,,,,,,,,m,,,,,,,,,,,,,,,,4,0,69.8584,71.3583,m,1,1.4866,,[],[],[],[],[],[],[],71.3583,73.3586,73.3587,73.359,[],[],[],[],[],[],[],,,,73.3591,73.3592,-0.000290799,-0.253385417,0,0,0,,0,3,3,124,1,3,word,NUMERICAL,print,numerical_p.png,,,,
,,,,32310,001,2025-12-04_20h32.56.606,HW_LDT_1,2024.2.4,MacIntel,56.81818182,,,,,,,,,,,,,,,,,,,,,73.3604,73.5585,73.5585,74.0584,,,,,,,,,,,,,,0.7657,1,,,,,,,,,,,,,,m,,,,,,,,,,,,,,,,5,0,74.059,74.8258,m,1,0.7657,,[],[],[],[],[],[],[],74.8258,76.8253,76.8253,76.8255,[],[],[],[],[],[],[],,,,76.8256,76.8256,-0.000290799,-0.253385417,0,0,0,,0,4,4,89,1,3,word,CAPACITY,cursive,capacity_c.png,,,,
,,,,32310,001,2025-12-04_20h32.56.606,HW_LDT_1,2024.2.4,MacIntel,56.81818182,,,,,,,,,,,,,,,,,,,,,76.8267,77.0252,77.0252,77.5252,,,,,,,,,,,,,,1.9027,1,,,,,,,,,,,,,,z,,,,,,,,,,,,,,,,6,0,77.5259,79.442,z,1,1.9027,,[],[],[],[],[],[],[],79.4422,81.4421,81.4421,81.4425,[],[],[],[],[],[],[],,,,81.4425,81.4429,-0.000290799,-0.253385417,0,0,0,,0,5,5,63,1,3,TL,racidal,cursive,racidal_c.png,,,,
,,,,32310,001,2025-12-04_20h32.56.606,HW_LDT_1,2024.2.4,MacIntel,56.81818182,,,,,,,,,,,,,,,,,,,,,81.444,81.642,81.6421,82.1411,,,,,,,,,,,,,,0.8498,1,,,,,,,,,,,,,,m,,,,,,,,,,,,,,,,7,0,82.1416,82.9921,m,1,0.8498,,[],[],[],[],[],[],[],82.9922,84.9922,84.9923,84.9925,[],[],[],[],[],[],[],,,,84.9925,84.9927,-0.000290799,-0.253385417,0,0,0,,0,6,6,116,1,3,word,MARGINAL,print,marginal_p.png,,,,
,,,,32310,001,2025-12-04_20h32.56.606,HW_LDT_1,2024.2.4,MacIntel,56.81818182,,,,,,,,,,,,,,,,,,,,,84.9939,85.192,85.192,85.6921,,,,,,,,,,,,,,0.6036,1,,,,,,,,,,,,,,m,,,,,,,,,,,,,,,,8,0,85.6928,86.3088,m,1,0.6036,,[],[],[],[],[],[],[],86.3089,88.3089,88.3089,88.3092,[],[],[],[],[],[],[],,,,88.3092,88.3094,-0.000290799,-0.253385417,0,0,0,,0,7,7,151,1,3,word,SPECIFIC,print,specific_p.png,,,,
,,,,32310,001,2025-12-04_20h32.56.606,HW_LDT_1,2024.2.4,MacIntel,56.81818182,,,,,,,,,,,,,,,,,,,,,88.3106,88.5087,88.5088,89.0088,,,,,,,,,,,,,,0.8646,0,,,,,,,,,,,,,,z,,,,,,,,,,,,,,,,9,0,89.0094,89.8755,m,0,0.8646,,[],[],[],[],[],[],[],89.8757,91.8756,91.8756,91.8757,[],[],[],[],[],[],[],,,,91.8758,91.8759,-0.000290799,-0.253385417,0,0,0,,0,8,8,41,1,3,TL,crinimal,print,crinimal_p.png,,,,
,,,,32310,001,2025-12-04_20h32.56.606,HW_LDT_1,2024.2.4,MacIntel,56.81818182,,,,,,,,,,,,,,,,,,,,,91.8769,92.0756,92.0756,92.5757,,,,,,,,,,,,,,0.9536,1,,,,,,,,,,,,,,z,,,,,,,,,,,,,,,,10,0,92.5763,93.5425,z,1,0.9536,,[],[],[],[],[],[],[],93.5426,95.5424,95.5425,95.5427,[],[],[],[],[],[],[],,,,95.5427,95.5429,-0.000290799,-0.253385417,0,0,0,,0,9,9,26,1,3,RL,repifion,print,repifion_p.png,,,,
,,,,32310,001,2025-12-04_20h32.56.606,HW_LDT_1,2024.2.4,MacIntel,56.81818182,,,,,,,,,,,,,,,,,,,,,95.5441,95.7423,95.7424,96.2424,,,,,,,,,,,,,,0.9722,1,,,,,,,,,,,,,,z,,,,,,,,,,,,,,,,11,0,96.2429,97.2256,z,1,0.9722,,[],[],[],[],[],[],[],97.2257,99.2257,99.2258,99.2259,[],[],[],[],[],[],[],,,,99.2259,99.226,-0.000290799,-0.253385417,0,0,0,,0,10,10,68,1,3,TL,revomal,cursive,revomal_c.png,,,,
,,,,32310,001,2025-12-04_20h32.56.606,HW_LDT_1,2024.2.4,MacIntel,56.81818182,,,,,,,,,,,,,,,,,,,,,99.227,99.4258,99.4258,99.9258,,,,,,,,,,,,,,0.8371,1,,,,,,,,,,,,,,m,,,,,,,,,,,,,,,,12,0,99.9264,100.7759,m,1,0.8371,,[],[],[],[],[],[],[],100.7759,102.7758,102.7759,102.7762,[],[],[],[],[],[],[],,,,102.7762,102.7764,-0.000290799,-0.253385417,0,0,0,,0,11,11,147,1,3,word,ROMANTIC,cursive,romantic_c.png,,,,
,,,,32310,001,2025-12-04_20h32.56.606,HW_LDT_1,2024.2.4,MacIntel,56.81818182,,,,,,,,,,,,,,,,,,,,,102.7776,102.9759,102.976,103.4758,,,,,,,,,,,,,,1.2152,1,,,,,,,,,,,,,,z,,,,,,,,,,,,,,,,13,0,103.4763,104.6925,z,1,1.2152,,[],[],[],[],[],[],[],104.6925,106.6927,106.6927,106.6929,[],[],[],[],[],[],[],,,,106.693,106.6932,-0.000290799,-0.253385417,0,0,0,,0,12,12,67,1,3,TL,retome,print,retome_p.png,,,,
,,,,32310,001,2025-12-04_20h32.56.606,HW_LDT_1,2024.2.4,MacIntel,56.81818182,,,,,,,,,,,,,,,,,,,,,106.6942,106.8926,106.8926,107.3926,,,,,,,,,,,,,,0.6197,1,,,,,,,,,,,,,,m,,,,,,,,,,,,,,,,14,1,107.393,108.026,m,1,0.6197,,[],[],[],[],[],[],[],108.026,110.0259,110.0259,113.4262,[],[],[],[],[],[],[],m,3.3917,,113.4262,113.4264,-0.000290799,-0.253385417,0,0,0,,0,13,13,132,1,3,word,PROPOSAL,print,proposal_p.png,,,,
,,,,32310,001,2025-12-04_20h32.56.606,HW_LDT_1,2024.2.4,MacIntel,56.81818182,,,,,,,,,,,,,,,,,,,,,113.4273,113.6259,113.626,114.126,,,,,,,,,,,,,,1.1535,1,,,,,,,,,,,,,,z,,,,,,,,,,,,,,,,15,1,114.1266,115.2927,z,1,1.1535,,[],[],[],[],[],[],[],115.2928,117.2928,117.2929,118.9425,[],[],[],[],[],[],[],m,1.6367,,118.9426,118.9427,-0.000290799,-0.253385417,0,0,0,,0,14,14,55,1,3,TL,mecidine,print,mecidine_p.png,,,,
,,,,32310,001,2025-12-04_20h32.56.606,HW_LDT_1,2024.2.4,MacIntel,56.81818182,,,,,,,,,,,,,,,,,,,,,118.9434,119.1429,119.1429,119.6429,,,,,,,,,,,,,,1.6531,1,,,,,,,,,,,,,,m,,,,,,,,,,,,,,,,16,0,119.6433,121.3096,m,1,1.6531,,[],[],[],[],[],[],[],121.3098,123.3097,123.3098,123.31,[],[],[],[],[],[],[],,,,123.31,123.3101,-0.000290799,-0.253385417,0,0,0,,0,15,15,113,1,3,word,LITERAL,print,literal_p.png,,,,
,,,,32310,001,2025-12-04_20h32.56.606,HW_LDT_1,2024.2.4,MacIntel,56.81818182,,,,,,,,,,,,,,,,,,,,,123.3114,123.5096,123.5097,124.0095,,,,,,,,,,,,,,4.5489,0,,,,,,,,,,,,,,m,,,,,,,,,,,,,,,,17,0,124.0099,128.5597,z,0,4.5489,,[],[],[],[],[],[],[],128.5598,130.5598,130.5599,130.5601,[],[],[],[],[],[],[],,,,130.5602,130.5603,-0.000290799,-0.253632813,0,0,0,,0,16,16,110,1,3,word,HERITAGE,cursive,heritage_c.png,,,,
,,,,32310,001,2025-12-04_20h32.56.606,HW_LDT_1,2024.2.4,MacIntel,56.81818182,,,,,,,,,,,,,,,,,,,,,130.5615,130.7595,130.7595,131.2595,,,,,,,,,,,,,,1.1206,1,,,,,,,,,,,,,,z,,,,,,,,,,,,,,,,18,0,131.26,132.3931,z,1,1.1206,,[],[],[],[],[],[],[],132.3932,134.3931,134.3931,134.3932,[],[],[],[],[],[],[],,,,134.3932,134.3933,-0.000290799,-0.253632813,0,0,0,,0,17,17,16,1,3,RL,mishafe,cursive,mishafe_c.png,,,,
,,,,32310,001,2025-12-04_20h32.56.606,HW_LDT_1,2024.2.4,MacIntel,56.81818182,,,,,,,,,,,,,,,,,,,,,134.3942,134.5932,134.5933,135.0933,,,,,,,,,,,,,,2.8442,1,,,,,,,,,,,,,,z,,,,,,,,,,,,,,,,19,0,135.0938,137.9431,z,1,2.8442,,[],[],[],[],[],[],[],137.9431,139.9434,139.9434,139.9436,[],[],[],[],[],[],[],,,,139.9436,139.9437,-0.000290799,-0.253632813,0,0,0,,0,18,18,34,1,3,TL,aminal,cursive,aminal_c.png,,,,
,,,,32310,001,2025-12-04_20h32.56.606,HW_LDT_1,2024.2.4,MacIntel,56.81818182,,,,,,,,,,,,,,,,,,,,,139.9446,140.1435,140.1435,140.6434,,,,,,,,,,,,,,0.9143,1,,,,,,,,,,,,,,m,,,,,,,,,,,,,,,,20,0,140.6442,141.5601,m,1,0.9143,,[],[],[],[],[],[],[],141.5602,143.5602,143.5603,143.5605,[],[],[],[],[],[],[],,,,143.5605,143.5606,-0.000290799,-0.253632813,0,0,0,,0,19,19,96,1,3,word,CONSIDER,print,consider_p.png,,,,
,,,,32310,001,2025-12-04_20h32.56.606,HW_LDT_1,2024.2.4,MacIntel,56.81818182,,,,,,,,,,,,,,,,,,,,,143.5619,143.7602,143.7603,144.2602,,,,,,,,,,,,,,0.7698,1,,,,,,,,,,,,,,z,,,,,,,,,,,,,,,,21,0,144.2608,145.0434,z,1,0.7698,,[],[],[],[],[],[],[],145.0435,147.0426,147.0427,147.0429,[],[],[],[],[],[],[],,,,147.0429,147.043,-0.000290799,-0.253632813,0,0,0,,0,20,20,42,1,3,TL,detabe,cursive,detabe_c.png,,,,
,,,,32310,001,2025-12-04_20h32.56.606,HW_LDT_1,2024.2.4,MacIntel,56.81818182,,,,,,,,,,,,,,,,,,,,,147.044,147.2435,147.2435,147.7424,,,,,,,,,,,,,,0.9036,0,,,,,,,,,,,,,,m,,,,,,,,,,,,,,,,22,0,147.7427,148.6599,z,0,0.9036,,[],[],[],[],[],[],[],148.66,150.6603,150.6603,150.6605,[],[],[],[],[],[],[],,,,150.6606,150.6608,-0.000290799,-0.253632813,0,0,0,,0,21,21,117,1,3,word,MARINE,cursive,marine_c.png,,,,
,,,,32310,001,2025-12-04_20h32.56.606,HW_LDT_1,2024.2.4,MacIntel,56.81818182,,,,,,,,,,,,,,,,,,,,,150.6621,150.8603,150.8603,151.3603,,,,,,,,,,,,,,1.1063,0,,,,,,,,,,,,,,z,,,,,,,,,,,,,,,,23,0,151.3608,152.4769,m,0,1.1063,,[],[],[],[],[],[],[],152.477,154.477,154.4771,154.4772,[],[],[],[],[],[],[],,,,154.4772,154.4773,-0.000290799,-0.253632813,0,0,0,,0,22,22,31,1,3,RL,trilude,print,trilude_p.png,,,,
,,,,32310,001,2025-12-04_20h32.56.606,HW_LDT_1,2024.2.4,MacIntel,56.81818182,,,,,,,,,,,,,,,,,,,,,154.4784,154.677,154.6771,155.1771,,,,,,,,,,,,,,0.8538,1,,,,,,,,,,,,,,z,,,,,,,,,,,,,,,,24,0,155.1776,156.0438,z,1,0.8538,,[],[],[],[],[],[],[],156.0439,158.0428,158.0428,158.043,[],[],[],[],[],[],[],,,,158.0431,158.0431,-0.000290799,-0.253632813,0,0,0,,0,23,23,30,1,3,RL,strapely,print,strapely_p.png,,,,
,,,,32310,001,2025-12-04_20h32.56.606,HW_LDT_1,2024.2.4,MacIntel,56.81818182,,,,,,,,,,,,,,,,,,,,,158.044,158.2429,158.2429,158.7435,,,,,,,,,,,,,,1.6328,1,,,,,,,,,,,,,,z,,,,,,,,,,,,,,,,25,0,158.7438,160.3771,z,1,1.6328,,[],[],[],[],[],[],[],160.3772,162.3772,162.3772,162.3775,[],[],[],[],[],[],[],,,,162.3776,162.3777,-0.000290799,-0.253632813,0,0,0,,0,24,24,20,1,3,RL,orimipal,cursive,orimipal_c.png,,,,
,,,,32310,001,2025-12-04_20h32.56.606,HW_LDT_1,2024.2.4,MacIntel,56.81818182,,,,,,,,,,,,,,,,,,,,,162.3788,162.5773,162.5773,163.0772,,,,,,,,,,,,,,0.5533,1,,,,,,,,,,,,,,m,,,,,,,,,,,,,,,,26,0,163.0777,163.6441,m,1,0.5533,,[],[],[],[],[],[],[],163.6442,165.644,165.6441,165.6443,[],[],[],[],[],[],[],,,,165.6444,165.6445,-0.000290799,-0.253632813,0,0,0,,0,25,25,139,1,3,word,REGULAR,print,regular_p.png,,,,
,,,,32310,001,2025-12-04_20h32.56.606,HW_LDT_1,2024.2.4,MacIntel,56.81818182,,,,,,,,,,,,,,,,,,,,,165.6458,165.8439,165.844,166.344,,,,,,,,,,,,,,0.5711,0,,,,,,,,,,,,,,m,,,,,,,,,,,,,,,,27,0,166.3446,166.9274,z,0,0.5711,,[],[],[],[],[],[],[],166.9274,168.9273,168.9274,168.9277,[],[],[],[],[],[],[],,,,168.9278,168.9279,-0.000868056,-0.254986979,0,0,0,,0,26,26,99,1,3,word,DEBATE,cursive,debate_c.png,,,,
,,,,32310,001,2025-12-04_20h32.56.606,HW_LDT_1,2024.2.4,MacIntel,56.81818182,,,,,,,,,,,,,,,,,,,,,168.9292,169.1272,169.1272,169.6274,,,,,,,,,,,,,,0.903,1,,,,,,,,,,,,,,m,,,,,,,,,,,,,,,,28,0,169.628,170.5441,m,1,0.903,,[],[],[],[],[],[],[],170.5442,172.5443,172.5443,172.5446,[],[],[],[],[],[],[],,,,172.5446,172.5447,-0.000868056,-0.254986979,0,0,0,,0,27,27,157,1,3,word,VALIDITY,cursive,validity_c.png,,,,
,,,,32310,001,2025-12-04_20h32.56.606,HW_LDT_1,2024.2.4,MacIntel,56.81818182,,,,,,,,,,,,,,,,,,,,,172.546,172.7441,172.7443,173.2439,,,,,,,,,,,,,,0.6705,1,,,,,,,,,,,,,,z,,,,,,,,,,,,,,,,29,1,173.2443,173.9275,z,1,0.6705,,[],[],[],[],[],[],[],173.9276,175.9275,175.9275,177.3112,[],[],[],[],[],[],[],m,1.3831,,177.3115,177.3117,-0.000868056,-0.254986979,0,0,0,,0,28,28,7,1,3,RL,cobeny,print,cobeny_p.png,,,,
,,,,32310,001,2025-12-04_20h32.56.606,HW_LDT_1,2024.2.4,MacIntel,56.81818182,,,,,,,,,,,,,,,,,,,,,177.3125,177.5109,177.5109,178.011,,,,,,,,,,,,,,0.9805,1,,,,,,,,,,,,,,m,,,,,,,,,,,,,,,,30,0,178.0116,178.9943,m,1,0.9805,,[],[],[],[],[],[],[],178.9944,180.9944,180.9945,180.9947,[],[],[],[],[],[],[],,,,180.9947,180.9949,-0.000868056,-0.254986979,0,0,0,,0,29,29,107,1,3,word,EVIDENT,cursive,evident_c.png,,,,
,,,,32310,001,2025-12-04_20h32.56.606,HW_LDT_1,2024.2.4,MacIntel,56.81818182,,,,,,,,,,,,,,,,,,,,,180.9961,181.1942,181.1943,181.6944,,,,,,,,,,,,,,0.6148,1,,,,,,,,,,,,,,m,,,,,,,,,,,,,,,,31,0,181.695,182.3107,m,1,0.6148,,[],[],[],[],[],[],[],182.3107,184.3112,184.3112,184.3115,[],[],[],[],[],[],[],,,,184.3116,184.3117,-0.000868056,-0.254986979,0,0,0,,0,30,30,111,1,3,word,INDICATE,print,indicate_p.png,,,,
,,,,32310,001,2025-12-04_20h32.56.606,HW_LDT_1,2024.2.4,MacIntel,56.81818182,,,,,,,,,,,,,,,,,,,,,184.3128,184.5111,184.5111,185.0103,,,,,,,,,,,,,,0.8702,0,,,,,,,,,,,,,,m,,,,,,,,,,,,,,,,32,0,185.0108,185.894,z,0,0.8702,,[],[],[],[],[],[],[],185.8941,187.8944,187.8945,187.8946,[],[],[],[],[],[],[],,,,187.8947,187.8949,-0.000868056,-0.254986979,0,0,0,,0,31,31,108,1,3,word,FORTUNE,cursive,fortune_c.png,,,,
,,,,32310,001,2025-12-04_20h32.56.606,HW_LDT_1,2024.2.4,MacIntel,56.81818182,,,,,,,,,,,,,,,,,,,,,187.896,188.0945,188.0946,188.5935,,,,,,,,,,,,,,0.8544,1,,,,,,,,,,,,,,z,,,,,,,,,,,,,,,,33,0,188.5941,189.4611,z,1,0.8544,,[],[],[],[],[],[],[],189.4612,191.4613,191.4614,191.4616,[],[],[],[],[],[],[],,,,191.4616,191.4617,-0.000868056,-0.254986979,0,0,0,,0,32,32,46,1,3,TL,distupe,print,distupe_p.png,,,,
,,,,32310,001,2025-12-04_20h32.56.606,HW_LDT_1,2024.2.4,MacIntel,56.81818182,,,,,,,,,,,,,,,,,,,,,191.4627,191.6613,191.6613,192.1612,,,,,,,,,,,,,,1.3152,1,,,,,,,,,,,,,,m,,,,,,,,,,,,,,,,34,1,192.1616,193.4775,m,1,1.3152,,[],[],[],[],[],[],[],193.4776,195.478,195.4781,200.6771,[],[],[],[],[],[],[],m,5.1872,,200.6772,200.6773,-0.000868056,-0.254986979,0,0,0,,0,33,33,136,1,3,word,RADICAL,cursive,radical_c.png,,,,
,,,,32310,001,2025-12-04_20h32.56.606,HW_LDT_1,2024.2.4,MacIntel,56.81818182,,,,,,,,,,,,,,,,,,,,,200.6783,200.878,200.8781,201.3781,,,,,,,,,,,,,,0.9217,1,,,,,,,,,,,,,,m,,,,,,,,,,,,,,,,35,1,201.3786,202.3115,m,1,0.9217,,[],[],[],[],[],[],[],202.3116,204.3115,204.3116,205.1114,[],[],[],[],[],[],[],m,0.7985,,205.1115,205.1116,-0.000868056,-0.254986979,0,0,0,,0,34,34,87,1,3,word,CAFETERIA,print,cafeteria_p.png,,,,
,,,,32310,001,2025-12-04_20h32.56.606,HW_LDT_1,2024.2.4,MacIntel,56.81818182,,,,,,,,,,,,,,,,,,,,,205.1125,205.3109,205.3109,205.8115,,,,,,,,,,,,,,1.0692,1,,,,,,,,,,,,,,z,,,,,,,,,,,,,,,,36,0,205.812,206.8939,z,1,1.0692,,[],[],[],[],[],[],[],206.894,208.8943,208.8943,208.8945,[],[],[],[],[],[],[],,,,208.8946,208.8946,-0.000868056,-0.254986979,0,0,0,,0,35,35,49,1,3,TL,incidate,print,incidate_p.png,,,,
,,,,32310,001,2025-12-04_20h32.56.606,HW_LDT_1,2024.2.4,MacIntel,56.81818182,,,,,,,,,,,,,,,,,,,,,208.8959,209.0948,209.0949,209.5946,,,,,,,,,,,,,,0.7724,1,,,,,,,,,,,,,,z,,,,,,,,,,,,,,,,37,0,209.595,210.3774,z,1,0.7724,,[],[],[],[],[],[],[],210.3775,212.3783,212.3783,212.3784,[],[],[],[],[],[],[],,,,212.3784,212.3785,-0.000868056,-0.254986979,0,0,0,,0,36,36,8,1,3,RL,cocewage,print,cocewage_p.png,,,,
,,,,32310,001,2025-12-04_20h32.56.606,HW_LDT_1,2024.2.4,MacIntel,56.81818182,,,,,,,,,,,,,,,,,,,,,212.3793,212.5783,212.5784,213.0774,,,,,,,,,,,,,,1.3,1,,,,,,,,,,,,,,z,,,,,,,,,,,,,,,,38,1,213.0779,214.3784,z,1,1.3,,[],[],[],[],[],[],[],214.3785,216.3784,216.3784,217.5607,[],[],[],[],[],[],[],z,1.182,,217.5608,217.5608,-0.000868056,-0.254986979,0,0,0,,0,37,37,28,1,3,RL,rovastic,cursive,rovastic_c.png,,,,
,,,,32310,001,2025-12-04_20h32.56.606,HW_LDT_1,2024.2.4,MacIntel,56.81818182,,,,,,,,,,,,,,,,,,,,,217.5616,217.7617,217.7618,218.2618,,,,,,,,,,,,,,0.8203,1,,,,,,,,,,,,,,m,,,,,,,,,,,,,,,,39,1,218.2623,219.0952,m,1,0.8203,,[],[],[],[],[],[],[],219.0954,221.0952,221.0953,221.6786,[],[],[],[],[],[],[],z,0.5704,,221.6787,221.6788,-0.000868056,-0.254986979,0,0,0,,0,38,38,158,1,3,word,VELOCITY,cursive,velocity_c.png,,,,
,,,,32310,001,2025-12-04_20h32.56.606,HW_LDT_1,2024.2.4,MacIntel,56.81818182,,,,,,,,,,,,,,,,,,,,,221.6797,221.8779,221.878,222.3777,,,,,,,,,,,,,,0.8993,1,,,,,,,,,,,,,,z,,,,,,,,,,,,,,,,40,0,222.378,223.278,z,1,0.8993,,[],[],[],[],[],[],[],223.2781,225.2784,225.2785,225.2785,[],[],[],[],[],[],[],,,,225.2786,225.2786,-0.000868056,-0.254986979,0,0,0,,0,39,39,1,1,3,RL,bewoted,cursive,bewoted_c.png,,,,
,,,,32310,001,2025-12-04_20h32.56.606,HW_LDT_1,2024.2.4,MacIntel,56.81818182,,,,,,,,,,,,,,,,,,,,,225.279,225.4786,225.4787,225.9786,,,,,,,,,,,,,,0.6477,0,,,,,,,,,,,,,,m,,,,,,,,,,,,,,,,41,0,225.9793,226.6287,z,0,0.6477,,[],[],[],[],[],[],[],226.6288,228.6288,228.6289,228.6289,[],[],[],[],[],[],[],,,,228.629,228.629,-0.000868056,-0.254986979,0,0,0,,0,40,40,121,1,3,word,MISTAKE,cursive,mistake_c.png,,,,
,,,,32310,001,2025-12-04_20h32.56.606,HW_LDT_1,2024.2.4,MacIntel,56.81818182,,,,,,,,,,,,,,,,,,,,,228.63,228.8287,228.8287,229.3278,,,,,,,,,,,,,,0.6711,1,,,,,,,,,,,,,,z,,,,,,,,,,,,,,,,42,0,229.3282,230.0121,z,1,0.6711,,[],[],[],[],[],[],[],230.0122,232.0121,232.0121,232.0124,[],[],[],[],[],[],[],,,,232.0125,232.0126,-0.000868056,-0.254986979,0,0,0,,0,41,41,57,1,3,TL,moredate,cursive,moredate_c.png,,,,
,,,,32310,001,2025-12-04_20h32.56.606,HW_LDT_1,2024.2.4,MacIntel,56.81818182,,,,,,,,,,,,,,,,,,,,,232.0135,232.2112,232.2112,232.7122,,,,,,,,,,,,,,0.5864,1,,,,,,,,,,,,,,z,,,,,,,,,,,,,,,,43,0,232.7127,233.3123,z,1,0.5864,,[],[],[],[],[],[],[],233.3123,235.3122,235.3123,235.3124,[],[],[],[],[],[],[],,,,235.3125,235.3126,-0.000868056,-0.254986979,0,0,0,,0,42,42,76,1,3,TL,stogare,cursive,stogare_c.png,,,,
,,,,32310,001,2025-12-04_20h32.56.606,HW_LDT_1,2024.2.4,MacIntel,56.81818182,,,,,,,,,,,,,,,,,,,,,235.3135,235.5123,235.5123,236.0122,,,,,,,,,,,,,,0.7359,1,,,,,,,,,,,,,,m,,,,,,,,,,,,,,,,44,0,236.0127,236.7621,m,1,0.7359,,[],[],[],[],[],[],[],236.7623,238.7623,238.7624,238.7625,[],[],[],[],[],[],[],,,,238.7626,238.7626,-0.000868056,-0.254986979,0,0,0,,0,43,43,155,1,3,word,STRATEGY,print,strategy_p.png,,,,
,,,,32310,001,2025-12-04_20h32.56.606,HW_LDT_1,2024.2.4,MacIntel,56.81818182,,,,,,,,,,,,,,,,,,,,,238.7636,238.9622,238.9623,239.4615,,,,,,,,,,,,,,1.0728,1,,,,,,,,,,,,,,m,,,,,,,,,,,,,,,,45,0,239.4618,240.5457,m,1,1.0728,,[],[],[],[],[],[],[],240.5457,242.5458,242.5459,242.546,[],[],[],[],[],[],[],,,,242.546,242.5461,-0.000868056,-0.254986979,0,0,0,,0,44,44,129,1,3,word,PARENT,print,parent_p.png,,,,
,,,,32310,001,2025-12-04_20h32.56.606,HW_LDT_1,2024.2.4,MacIntel,56.81818182,,,,,,,,,,,,,,,,,,,,,242.5471,242.7456,242.7457,243.2458,,,,,,,,,,,,,,0.8025,1,,,,,,,,,,,,,,z,,,,,,,,,,,,,,,,46,0,243.2463,244.0624,z,1,0.8025,,[],[],[],[],[],[],[],244.0625,246.0625,246.0625,246.0627,[],[],[],[],[],[],[],,,,246.0628,246.0629,-0.000868056,-0.254986979,0,0,0,,0,45,45,69,1,3,TL,redisent,cursive,redisent_c.png,,,,
,,,,32310,001,2025-12-04_20h32.56.606,HW_LDT_1,2024.2.4,MacIntel,56.81818182,,,,,,,,,,,,,,,,,,,,,246.0642,246.2625,246.2625,246.7624,,,,,,,,,,,,,,0.87,1,,,,,,,,,,,,,,z,,,,,,,,,,,,,,,,47,0,246.7629,247.645,z,1,0.87,,[],[],[],[],[],[],[],247.6451,249.6449,249.645,249.6452,[],[],[],[],[],[],[],,,,249.6452,249.6453,-0.000868056,-0.254986979,0,0,0,,0,46,46,36,1,3,TL,carema,cursive,carema_c.png,,,,
,,,,32310,001,2025-12-04_20h32.56.606,HW_LDT_1,2024.2.4,MacIntel,56.81818182,,,,,,,,,,,,,,,,,,,,,249.6465,249.8452,249.8452,250.345,,,,,,,,,,,,,,0.6716,1,,,,,,,,,,,,,,m,,,,,,,,,,,,,,,,48,0,250.3454,251.0292,m,1,0.6716,,[],[],[],[],[],[],[],251.0293,253.0293,253.0293,253.0296,[],[],[],[],[],[],[],,,,253.0296,253.0297,-0.000868056,-0.254986979,0,0,0,,0,47,47,118,1,3,word,MEDICINE,print,medicine_p.png,,,,
,,,,32310,001,2025-12-04_20h32.56.606,HW_LDT_1,2024.2.4,MacIntel,56.81818182,,,,,,,,,,,,,,,,,,,,,253.0308,253.2293,253.2293,253.7284,,,,,,,,,,,,,,0.787,1,,,,,,,,,,,,,,z,,,,,,,,,,,,,,,,49,1,253.7288,254.5292,z,1,0.787,,[],[],[],[],[],[],[],254.5293,256.5293,256.5294,257.6618,[],[],[],[],[],[],[],z,1.1217,,257.6619,257.662,-0.000868056,-0.254986979,0,0,0,,0,48,48,11,1,3,RL,ebiwent,cursive,ebiwent_c.png,,,,
,,,,32310,001,2025-12-04_20h32.56.606,HW_LDT_1,2024.2.4,MacIntel,56.81818182,,,,,,,,,,,,,,,,,,,,,257.6629,257.8618,257.8619,258.3627,,,,,,,,,,,,,,1.07,1,,,,,,,,,,,,,,m,,,,,,,,,,,,,,,,50,1,258.3632,259.4452,m,1,1.07,,[],[],[],[],[],[],[],259.4453,261.4462,261.4463,262.4629,[],[],[],[],[],[],[],m,1.003,,262.463,262.463,-0.000868056,-0.254986979,0,0,0,,0,49,49,103,1,3,word,DISPUTE,print,dispute_p.png,,,,
,,,,32310,001,2025-12-04_20h32.56.606,HW_LDT_1,2024.2.4,MacIntel,56.81818182,,,,,,,,,,,,,,,,,,,,,262.4639,262.6628,262.6628,263.1629,,,,,,,,,,,,,,2.238,1,,,,,,,,,,,,,,z,,,,,,,,,,,,,,,,51,0,263.1634,265.4125,z,1,2.238,,[],[],[],[],[],[],[],265.4127,267.413,267.4131,267.4132,[],[],[],[],[],[],[],,,,267.4133,267.4134,-0.000868056,-0.254986979,0,0,0,,0,50,50,43,1,3,TL,dedace,cursive,dedace_c.png,,,,
,,,,32310,001,2025-12-04_20h32.56.606,HW_LDT_1,2024.2.4,MacIntel,56.81818182,,,,,,,,,,,,,,,,,,,,,267.4146,267.6129,267.6129,268.1131,,,,,,,,,,,,,,1.0701,1,,,,,,,,,,,,,,z,,,,,,,,,,,,,,,,52,1,268.1137,269.1963,z,1,1.0701,,[],[],[],[],[],[],[],269.1964,271.1961,271.1961,272.2964,[],[],[],[],[],[],[],m,1.0906,,272.2965,272.2966,-0.000868056,-0.254986979,0,0,0,,0,51,51,50,1,3,TL,lirebal,print,lirebal_p.png,,,,
,,,,32310,001,2025-12-04_20h32.56.606,HW_LDT_1,2024.2.4,MacIntel,56.81818182,,,,,,,,,,,,,,,,,,,,,272.2976,272.4963,272.4964,272.9964,,,,,,,,,,,,,,0.6732,1,,,,,,,,,,,,,,z,,,,,,,,,,,,,,,,53,0,272.9967,273.6799,z,1,0.6732,,[],[],[],[],[],[],[],273.6799,275.6798,275.6799,275.6801,[],[],[],[],[],[],[],,,,275.6801,275.6803,-0.000868056,-0.254986979,0,0,0,,0,52,52,60,1,3,TL,panert,print,panert_p.png,,,,
,,,,32310,001,2025-12-04_20h32.56.606,HW_LDT_1,2024.2.4,MacIntel,56.81818182,,,,,,,,,,,,,,,,,,,,,275.6817,275.8797,275.8797,276.3799,,,,,,,,,,,,,,0.6192,1,,,,,,,,,,,,,,z,,,,,,,,,,,,,,,,54,0,276.3804,277.0132,z,1,0.6192,,[],[],[],[],[],[],[],277.0133,279.0132,279.0132,279.0134,[],[],[],[],[],[],[],,,,279.0135,279.0136,-0.000868056,-0.254986979,0,0,0,,0,53,53,13,1,3,RL,helicage,cursive,helicage_c.png,,,,
,,,,32310,001,2025-12-04_20h32.56.606,HW_LDT_1,2024.2.4,MacIntel,56.81818182,,,,,,,,,,,,,,,,,,,,,279.0147,279.2123,279.2123,279.7133,,,,,,,,,,,,,,0.7488,1,,,,,,,,,,,,,,z,,,,,,,,,,,,,,,,55,0,279.7137,280.4635,z,1,0.7488,,[],[],[],[],[],[],[],280.4635,282.4633,282.4633,282.4635,[],[],[],[],[],[],[],,,,282.4636,282.4637,-0.000868056,-0.254986979,0,0,0,,0,54,54,64,1,3,TL,radiply,print,radiply_p.png,,,,
,,,,32310,001,2025-12-04_20h32.56.606,HW_LDT_1,2024.2.4,MacIntel,56.81818182,,,,,,,,,,,,,,,,,,,,,282.4648,282.6634,282.6635,283.1633,,,,,,,,,,,,,,0.9819,1,,,,,,,,,,,,,,z,,,,,,,,,,,,,,,,56,0,283.1639,284.1466,z,1,0.9819,,[],[],[],[],[],[],[],284.1467,286.1468,286.1469,286.1469,[],[],[],[],[],[],[],,,,286.147,286.1471,-0.000868056,-0.254986979,0,0,0,,0,55,55,74,1,3,TL,spemicen,print,spemicen_p.png,,,,
,,,,32310,001,2025-12-04_20h32.56.606,HW_LDT_1,2024.2.4,MacIntel,56.81818182,,,,,,,,,,,,,,,,,,,,,286.1483,286.3461,286.3461,286.8468,,,,,,,,,,,,,,1.1154,1,,,,,,,,,,,,,,m,,,,,,,,,,,,,,,,57,1,286.8474,287.9637,m,1,1.1154,,[],[],[],[],[],[],[],287.9638,289.9633,289.9633,290.8971,[],[],[],[],[],[],[],m,0.9207,,290.8971,290.8974,-0.000868056,-0.254986979,0,0,0,,0,56,56,101,1,3,word,DELICATE,print,delicate_p.png,,,,
,,,,32310,001,2025-12-04_20h32.56.606,HW_LDT_1,2024.2.4,MacIntel,56.81818182,,,,,,,,,,,,,,,,,,,,,290.8989,291.0967,291.0967,291.5962,,,,,,,,,,,,,,1.2052,1,,,,,,,,,,,,,,m,,,,,,,,,,,,,,,,58,0,291.5968,292.8134,m,1,1.2052,,[],[],[],[],[],[],[],292.8134,294.8137,294.8137,294.8139,[],[],[],[],[],[],[],,,,294.814,294.814,-0.000868056,-0.254986979,0,0,0,,0,57,57,133,1,3,word,PROVIDE,print,provide_p.png,,,,
,,,,32310,001,2025-12-04_20h32.56.606,HW_LDT_1,2024.2.4,MacIntel,56.81818182,,,,,,,,,,,,,,,,,,,,,294.8154,295.0137,295.0138,295.5135,,,,,,,,,,,,,,0.8201,1,,,,,,,,,,,,,,m,,,,,,,,,,,,,,,,59,0,295.5141,296.3469,m,1,0.8201,,[],[],[],[],[],[],[],296.347,298.3469,298.347,298.3471,[],[],[],[],[],[],[],,,,298.3472,298.3473,-0.000868056,-0.254986979,0,0,0,,0,58,58,137,1,3,word,RAPIDLY,print,rapidly_p.png,,,,
,,,,32310,001,2025-12-04_20h32.56.606,HW_LDT_1,2024.2.4,MacIntel,56.81818182,,,,,,,,,,,,,,,,,,,,,298.3482,298.547,298.547,299.0471,,,,,,,,,,,,,,0.5894,1,,,,,,,,,,,,,,m,,,,,,,,,,,,,,,,60,1,299.0478,299.647,m,1,0.5894,,[],[],[],[],[],[],[],299.6471,301.6472,301.6472,302.3637,[],[],[],[],[],[],[],m,0.7044,,302.3639,302.364,-0.000868056,-0.254986979,0,0,0,,0,59,59,91,1,3,word,CARDINAL,print,cardinal_p.png,,,,
,,,,32310,001,2025-12-04_20h32.56.606,HW_LDT_1,2024.2.4,MacIntel,56.81818182,,,,,,,,,,,,,,,,,,,,,302.365,302.5635,302.5636,303.0637,,,,,,,,,,,,,,1.7709,1,,,,,,,,,,,,,,z,,,,,,,,,,,,,,,,61,0,303.0643,304.8471,z,1,1.7709,,[],[],[],[],[],[],[],304.8472,306.8472,306.8473,306.8474,[],[],[],[],[],[],[],,,,306.8474,306.8475,-0.000868056,-0.254986979,0,0,0,,0,60,60,62,1,3,TL,prodive,print,prodive_p.png,,,,
,,,,32310,001,2025-12-04_20h32.56.606,HW_LDT_1,2024.2.4,MacIntel,56.81818182,,,,,,,,,,,,,,,,,,,,,306.8485,307.0472,307.0472,307.5472,,,,,,,,,,,,,,0.9035,1,,,,,,,,,,,,,,z,,,,,,,,,,,,,,,,62,0,307.5478,308.4639,z,1,0.9035,,[],[],[],[],[],[],[],308.464,310.4638,310.4639,310.464,[],[],[],[],[],[],[],,,,310.464,310.4642,-0.000868056,-0.254986979,0,0,0,,0,61,61,40,1,3,TL,condiser,print,condiser_p.png,,,,
,,,,32310,001,2025-12-04_20h32.56.606,HW_LDT_1,2024.2.4,MacIntel,56.81818182,,,,,,,,,,,,,,,,,,,,,310.4655,310.6638,310.6639,311.1641,,,,,,,,,,,,,,0.8397,1,,,,,,,,,,,,,,z,,,,,,,,,,,,,,,,63,0,311.1649,312.014,z,1,0.8397,,[],[],[],[],[],[],[],312.0141,314.0141,314.0142,314.0146,[],[],[],[],[],[],[],,,,314.0146,314.0147,-0.000868056,-0.254986979,0,0,0,,0,62,62,14,1,3,RL,lofase,cursive,lofase_c.png,,,,
,,,,32310,001,2025-12-04_20h32.56.606,HW_LDT_1,2024.2.4,MacIntel,56.81818182,,,,,,,,,,,,,,,,,,,,,314.0162,314.2141,314.2141,314.714,,,,,,,,,,,,,,0.5697,0,,,,,,,,,,,,,,m,,,,,,,,,,,,,,,,64,1,314.7146,315.2967,z,0,0.5697,,[],[],[],[],[],[],[],315.2968,317.2974,317.2974,318.2976,[],[],[],[],[],[],[],z,0.9996,,318.2977,318.298,-0.000868056,-0.254986979,0,0,0,,0,63,63,149,1,3,word,SENATOR,cursive,senator_c.png,,,,
,,,,32310,001,2025-12-04_20h32.56.606,HW_LDT_1,2024.2.4,MacIntel,56.81818182,,,,,,,,,,,,,,,,,,,,,318.2991,318.4975,318.4975,318.9975,,,,,,,,,,,,,,1.0797,0,,,,,,,,,,,,,,m,,,,,,,,,,,,,,,,65,0,318.998,320.0806,z,0,1.0797,,[],[],[],[],[],[],[],320.0807,322.081,322.081,322.0811,[],[],[],[],[],[],[],,,,322.0812,322.0812,-0.000868056,-0.254986979,0,0,0,,0,64,64,123,1,3,word,MODERATE,cursive,moderate_c.png,,,,
,,,,32310,001,2025-12-04_20h32.56.606,HW_LDT_1,2024.2.4,MacIntel,56.81818182,,,,,,,,,,,,,,,,,,,,,322.0821,322.2808,322.2808,322.7809,,,,,,,,,,,,,,0.7237,1,,,,,,,,,,,,,,z,,,,,,,,,,,,,,,,66,0,322.7815,323.5142,z,1,0.7237,,[],[],[],[],[],[],[],323.5143,325.5143,325.5143,325.5145,[],[],[],[],[],[],[],,,,325.5148,325.5149,-0.000868056,-0.254986979,0,0,0,,0,65,65,29,1,3,RL,selamor,cursive,selamor_c.png,,,,
,,,,32310,001,2025-12-04_20h32.56.606,HW_LDT_1,2024.2.4,MacIntel,56.81818182,,,,,,,,,,,,,,,,,,,,,325.5159,325.7144,325.7144,326.2144,,,,,,,,,,,,,,2.049,1,,,,,,,,,,,,,,z,,,,,,,,,,,,,,,,67,0,326.215,328.2645,z,1,2.049,,[],[],[],[],[],[],[],328.2646,330.2638,330.2638,330.2639,[],[],[],[],[],[],[],,,,330.264,330.2641,-0.000868056,-0.254986979,0,0,0,,0,66,66,47,1,3,TL,elarobate,print,elarobate_p.png,,,,
,,,,32310,001,2025-12-04_20h32.56.606,HW_LDT_1,2024.2.4,MacIntel,56.81818182,,,,,,,,,,,,,,,,,,,,,330.265,330.4638,330.4639,330.9645,,,,,,,,,,,,,,0.8479,1,,,,,,,,,,,,,,z,,,,,,,,,,,,,,,,68,0,330.9648,331.8145,z,1,0.8479,,[],[],[],[],[],[],[],331.8146,333.8146,333.8146,333.8148,[],[],[],[],[],[],[],,,,333.8149,333.8149,-0.000868056,-0.254986979,0,0,0,,0,67,67,65,1,3,TL,resufal,print,resufal_p.png,,,,
,,,,32310,001,2025-12-04_20h32.56.606,HW_LDT_1,2024.2.4,MacIntel,56.81818182,,,,,,,,,,,,,,,,,,,,,333.8161,334.0146,334.0146,334.5143,,,,,,,,,,,,,,1.0074,0,,,,,,,,,,,,,,m,,,,,,,,,,,,,,,,69,1,334.5146,335.5311,z,0,1.0074,,[],[],[],[],[],[],[],335.5312,337.5311,337.5312,339.1813,[],[],[],[],[],[],[],m,1.649,,339.1813,339.1814,-0.000868056,-0.254986979,0,0,0,,0,68,68,90,1,3,word,CAPITAL,cursive,capital_c.png,,,,
,,,,32310,001,2025-12-04_20h32.56.606,HW_LDT_1,2024.2.4,MacIntel,56.81818182,,,,,,,,,,,,,,,,,,,,,339.1824,339.3812,339.3813,339.8812,,,,,,,,,,,,,,0.6827,1,,,,,,,,,,,,,,z,,,,,,,,,,,,,,,,70,0,339.8816,340.5649,z,1,0.6827,,[],[],[],[],[],[],[],340.565,342.5643,342.5643,342.5644,[],[],[],[],[],[],[],,,,342.5644,342.5645,-0.000868056,-0.254986979,0,0,0,,0,69,69,22,1,3,RL,procogal,print,procogal_p.png,,,,
,,,,32310,001,2025-12-04_20h32.56.606,HW_LDT_1,2024.2.4,MacIntel,56.81818182,,,,,,,,,,,,,,,,,,,,,342.5654,342.7647,342.7647,343.2647,,,,,,,,,,,,,,0.5653,0,,,,,,,,,,,,,,m,,,,,,,,,,,,,,,,71,0,343.2653,343.8314,z,0,0.5653,,[],[],[],[],[],[],[],343.8316,345.8309,345.8309,345.8311,[],[],[],[],[],[],[],,,,345.8312,345.8312,-0.000868056,-0.254986979,0,0,0,,0,70,70,114,1,3,word,LOCATE,cursive,locate_c.png,,,,
,,,,32310,001,2025-12-04_20h32.56.606,HW_LDT_1,2024.2.4,MacIntel,56.81818182,,,,,,,,,,,,,,,,,,,,,345.8323,346.0315,346.0315,346.5316,,,,,,,,,,,,,,0.8035,1,,,,,,,,,,,,,,z,,,,,,,,,,,,,,,,72,0,346.532,347.3479,z,1,0.8035,,[],[],[],[],[],[],[],347.348,349.3483,349.3483,349.3485,[],[],[],[],[],[],[],,,,349.3486,349.3487,-0.000868056,-0.254986979,0,0,0,,0,71,71,45,1,3,TL,dentisy,print,dentisy_p.png,,,,
,,,,32310,001,2025-12-04_20h32.56.606,HW_LDT_1,2024.2.4,MacIntel,56.81818182,,,,,,,,,,,,,,,,,,,,,349.3498,349.5482,349.5482,350.0482,,,,,,,,,,,,,,1.1205,1,,,,,,,,,,,,,,z,,,,,,,,,,,,,,,,73,0,350.0487,351.1816,z,1,1.1205,,[],[],[],[],[],[],[],351.1817,353.1815,353.1816,353.1817,[],[],[],[],[],[],[],,,,353.1818,353.1818,-0.000868056,-0.254986979,0,0,0,,0,72,72,18,1,3,RL,onegator,print,onegator_p.png,,,,
,,,,32310,001,2025-12-04_20h32.56.606,HW_LDT_1,2024.2.4,MacIntel,56.81818182,,,,,,,,,,,,,,,,,,,,,353.1831,353.3816,353.3817,353.8814,,,,,,,,,,,,,,4.1326,0,,,,,,,,,,,,,,m,,,,,,,,,,,,,,,,74,0,353.8817,358.015,z,0,4.1326,,[],[],[],[],[],[],[],358.0151,360.0151,360.0151,360.0153,[],[],[],[],[],[],[],,,,360.0153,360.0153,-0.000868056,-0.254986979,0,0,0,,0,73,73,126,1,3,word,OPTIMAL,cursive,optimal_c.png,,,,
,,,,32310,001,2025-12-04_20h32.56.606,HW_LDT_1,2024.2.4,MacIntel,56.81818182,,,,,,,,,,,,,,,,,,,,,360.0165,360.2151,360.2152,360.7151,,,,,,,,,,,,,,0.8528,0,,,,,,,,,,,,,,m,,,,,,,,,,,,,,,,75,0,360.7156,361.5819,z,0,0.8528,,[],[],[],[],[],[],[],361.582,363.5812,363.5812,363.5814,[],[],[],[],[],[],[],,,,363.5814,363.5814,-0.000868056,-0.254986979,0,0,0,,0,74,74,140,1,3,word,RELATIVE,cursive,relative_c.png,,,,
,,,,32310,001,2025-12-04_20h32.56.606,HW_LDT_1,2024.2.4,MacIntel,56.81818182,,,,,,,,,,,,,,,,,,,,,363.5825,363.7818,363.7819,364.2819,,,,,,,,,,,,,,1.015,1,,,,,,,,,,,,,,z,,,,,,,,,,,,,,,,76,0,364.2824,365.2985,z,1,1.015,,[],[],[],[],[],[],[],365.2986,367.2986,367.2988,367.2989,[],[],[],[],[],[],[],,,,367.299,367.2991,-0.000868056,-0.254986979,0,0,0,,0,75,75,2,1,3,RL,betemit,print,betemit_p.png,,,,
,,,,32310,001,2025-12-04_20h32.56.606,HW_LDT_1,2024.2.4,MacIntel,56.81818182,,,,,,,,,,,,,,,,,,,,,367.3002,367.4986,367.4986,367.9984,,,,,,,,,,,,,,0.9651,1,,,,,,,,,,,,,,m,,,,,,,,,,,,,,,,77,1,367.9988,368.9652,m,1,0.9651,,[],[],[],[],[],[],[],368.9652,370.9654,370.9655,371.8155,[],[],[],[],[],[],[],m,0.8427,,371.8155,371.8156,-0.000868056,-0.254986979,0,0,0,,0,76,76,104,1,3,word,DOMINANT,print,dominant_p.png,,,,
,,,,32310,001,2025-12-04_20h32.56.606,HW_LDT_1,2024.2.4,MacIntel,56.81818182,,,,,,,,,,,,,,,,,,,,,371.8166,372.0153,372.0153,372.5155,,,,,,,,,,,,,,0.9484,1,,,,,,,,,,,,,,m,,,,,,,,,,,,,,,,78,0,372.5161,373.4653,m,1,0.9484,,[],[],[],[],[],[],[],373.4654,375.4655,375.4655,375.4656,[],[],[],[],[],[],[],,,,375.4657,375.4657,-0.000868056,-0.254986979,0,0,0,,0,77,77,98,1,3,word,CRIMINAL,print,criminal_p.png,,,,
,,,,32310,001,2025-12-04_20h32.56.606,HW_LDT_1,2024.2.4,MacIntel,56.81818182,,,,,,,,,,,,,,,,,,,,,375.4668,375.6655,375.6656,376.1654,,,,,,,,,,,,,,0.8543,1,,,,,,,,,,,,,,m,,,,,,,,,,,,,,,,79,0,376.1658,377.0322,m,1,0.8543,,[],[],[],[],[],[],[],377.0323,379.0322,379.0323,379.0324,[],[],[],[],[],[],[],,,,379.0325,379.0326,-0.000868056,-0.254986979,0,0,0,,0,78,78,85,1,3,word,BENEFIT,print,benefit_p.png,,,,
,,,,32310,001,2025-12-04_20h32.56.606,HW_LDT_1,2024.2.4,MacIntel,56.81818182,,,,,,,,,,,,,,,,,,,,,379.0338,379.2321,379.2321,379.7322,,,,,,,,,,,,,,1.7871,1,,,,,,,,,,,,,,z,,,,,,,,,,,,,,,,80,0,379.7327,381.5323,z,1,1.7871,,[],[],[],[],[],[],[],381.5324,383.5324,383.5325,383.5326,[],[],[],[],[],[],[],,,,383.5326,467.2182,-0.000868056,-0.254986979,0,0,0,space,0,79,79,5,1,3,RL,capefory,cursive,capefory_c.png,83.6579,,,
,,,,32310,001,2025-12-04_20h32.56.606,HW_LDT_1,2024.2.4,MacIntel,56.81818182,,,,,,,,,,,,,,,,,,,,,467.2205,467.4175,467.4176,467.9177,,,,,,,,,,,,,,1.4524,1,,,,,,,,,,,,,,m,,,,,,,,,,,,,,,,81,0,467.9186,469.3844,m,1,1.4524,,[],[],[],[],[],[],[],469.3845,471.3844,471.3844,471.3847,[],[],[],[],[],[],[],,,,471.3848,471.3848,-0.000868056,-0.254986979,0,0,0,,0,80,80,153,1,3,word,STOLEN,cursive,stolen_c.png,,,,
,,,,32310,001,2025-12-04_20h32.56.606,HW_LDT_1,2024.2.4,MacIntel,56.81818182,,,,,,,,,,,,,,,,,,,,,471.3859,471.5843,471.5844,472.0843,,,,,,,,,,,,,,0.8481,1,,,,,,,,,,,,,,z,,,,,,,,,,,,,,,,82,0,472.0851,472.9344,z,1,0.8481,,[],[],[],[],[],[],[],472.9345,474.9344,474.9345,474.9347,[],[],[],[],[],[],[],,,,474.9347,474.9349,-0.000868056,-0.254986979,0,0,0,,0,81,81,52,1,3,TL,locigal,cursive,locigal_c.png,,,,
,,,,32310,001,2025-12-04_20h32.56.606,HW_LDT_1,2024.2.4,MacIntel,56.81818182,,,,,,,,,,,,,,,,,,,,,474.9362,475.1343,475.1344,475.6344,,,,,,,,,,,,,,1.4079,1,,,,,,,,,,,,,,z,,,,,,,,,,,,,,,,83,0,475.635,477.0511,z,1,1.4079,,[],[],[],[],[],[],[],477.0512,479.051,479.0511,479.0513,[],[],[],[],[],[],[],,,,479.0513,479.0513,-0.000868056,-0.254986979,0,0,0,,0,82,82,72,1,3,TL,senmitent,print,senmitent_p.png,,,,
,,,,32310,001,2025-12-04_20h32.56.606,HW_LDT_1,2024.2.4,MacIntel,56.81818182,,,,,,,,,,,,,,,,,,,,,479.0525,479.2512,479.2512,479.7511,,,,,,,,,,,,,,2.7243,1,,,,,,,,,,,,,,z,,,,,,,,,,,,,,,,84,0,479.7517,482.4844,z,1,2.7243,,[],[],[],[],[],[],[],482.4846,484.4845,484.4846,484.4848,[],[],[],[],[],[],[],,,,484.4848,484.485,-0.000868056,-0.254986979,0,0,0,,0,83,83,6,1,3,RL,cenesony,cursive,cenesony_c.png,,,,
,,,,32310,001,2025-12-04_20h32.56.606,HW_LDT_1,2024.2.4,MacIntel,56.81818182,,,,,,,,,,,,,,,,,,,,,484.4863,484.6846,484.6846,485.1847,,,,,,,,,,,,,,0.6611,1,,,,,,,,,,,,,,z,,,,,,,,,,,,,,,,85,1,485.1853,485.851,z,1,0.6611,,[],[],[],[],[],[],[],485.851,487.8513,487.8514,488.8348,[],[],[],[],[],[],[],m,0.983,,488.8349,488.835,-0.000868056,-0.254986979,0,0,0,,0,84,84,24,1,3,RL,quafidy,print,quafidy_p.png,,,,
,,,,32310,001,2025-12-04_20h32.56.606,HW_LDT_1,2024.2.4,MacIntel,56.81818182,,,,,,,,,,,,,,,,,,,,,488.8362,489.0347,489.0347,489.5348,,,,,,,,,,,,,,1.4696,1,,,,,,,,,,,,,,z,,,,,,,,,,,,,,,,86,0,489.5354,491.0181,z,1,1.4696,,[],[],[],[],[],[],[],491.0182,493.0181,493.0182,493.0183,[],[],[],[],[],[],[],,,,493.0184,493.0187,-0.000868056,-0.254986979,0,0,0,,0,85,85,21,1,3,RL,potugar,print,potugar_p.png,,,,
,,,,32310,001,2025-12-04_20h32.56.606,HW_LDT_1,2024.2.4,MacIntel,56.81818182,,,,,,,,,,,,,,,,,,,,,493.0199,493.2182,493.2182,493.7181,,,,,,,,,,,,,,0.686,1,,,,,,,,,,,,,,m,,,,,,,,,,,,,,,,87,0,493.7188,494.4181,m,1,0.686,,[],[],[],[],[],[],[],494.4182,496.4182,496.4182,496.4184,[],[],[],[],[],[],[],,,,496.4184,496.4185,-0.000868056,-0.254986979,0,0,0,,0,86,86,130,1,3,word,POLICY,print,policy_p.png,,,,
,,,,32310,001,2025-12-04_20h32.56.606,HW_LDT_1,2024.2.4,MacIntel,56.81818182,,,,,,,,,,,,,,,,,,,,,496.4196,496.6175,496.6175,497.1182,,,,,,,,,,,,,,0.7633,1,,,,,,,,,,,,,,m,,,,,,,,,,,,,,,,88,0,497.1187,497.8848,m,1,0.7633,,[],[],[],[],[],[],[],497.8849,499.885,499.885,499.8851,[],[],[],[],[],[],[],,,,499.8851,499.8852,-0.000868056,-0.254986979,0,0,0,,0,87,87,84,1,3,word,BELOVED,cursive,beloved_c.png,,,,
,,,,32310,001,2025-12-04_20h32.56.606,HW_LDT_1,2024.2.4,MacIntel,56.81818182,,,,,,,,,,,,,,,,,,,,,499.886,500.0851,500.0851,500.585,,,,,,,,,,,,,,0.5658,1,,,,,,,,,,,,,,m,,,,,,,,,,,,,,,,89,0,500.5853,501.1519,m,1,0.5658,,[],[],[],[],[],[],[],501.152,503.1517,503.1517,503.1519,[],[],[],[],[],[],[],,,,503.152,503.1521,-0.000868056,-0.254986979,0,0,0,,0,88,88,119,1,3,word,MEMORY,print,memory_p.png,,,,
,,,,32310,001,2025-12-04_20h32.56.606,HW_LDT_1,2024.2.4,MacIntel,56.81818182,,,,,,,,,,,,,,,,,,,,,503.1533,503.3517,503.3518,503.8507,,,,,,,,,,,,,,0.721,1,,,,,,,,,,,,,,z,,,,,,,,,,,,,,,,90,0,503.8511,504.5849,z,1,0.721,,[],[],[],[],[],[],[],504.585,506.5847,506.5848,506.5849,[],[],[],[],[],[],[],,,,506.5849,506.5851,-0.000868056,-0.254986979,0,0,0,,0,89,89,19,1,3,RL,opcifal,cursive,opcifal_c.png,,,,
,,,,32310,001,2025-12-04_20h32.56.606,HW_LDT_1,2024.2.4,MacIntel,56.81818182,,,,,,,,,,,,,,,,,,,,,506.5859,506.7849,506.785,507.285,,,,,,,,,,,,,,1.1208,1,,,,,,,,,,,,,,m,,,,,,,,,,,,,,,,91,0,507.2856,508.4177,m,1,1.1208,,[],[],[],[],[],[],[],508.4178,510.418,510.418,510.4182,[],[],[],[],[],[],[],,,,510.4182,510.4182,-0.000868056,-0.254986979,0,0,0,,0,90,90,141,1,3,word,RELIGION,print,religion_p.png,,,,
,,,,32310,001,2025-12-04_20h32.56.606,HW_LDT_1,2024.2.4,MacIntel,56.81818182,,,,,,,,,,,,,,,,,,,,,510.4191,510.6185,510.6186,511.1179,,,,,,,,,,,,,,0.6151,1,,,,,,,,,,,,,,z,,,,,,,,,,,,,,,,92,0,511.1184,511.7352,z,1,0.6151,,[],[],[],[],[],[],[],511.7352,513.7354,513.7354,513.7357,[],[],[],[],[],[],[],,,,513.7357,513.7358,-0.000868056,-0.254986979,0,0,0,,0,91,91,25,1,3,RL,retupar,print,retupar_p.png,,,,
,,,,32310,001,2025-12-04_20h32.56.606,HW_LDT_1,2024.2.4,MacIntel,56.81818182,,,,,,,,,,,,,,,,,,,,,513.7369,513.9354,513.9354,514.4353,,,,,,,,,,,,,,0.7371,1,,,,,,,,,,,,,,m,,,,,,,,,,,,,,,,93,0,514.4358,515.1844,m,1,0.7371,,[],[],[],[],[],[],[],515.1845,517.1854,517.1855,517.1856,[],[],[],[],[],[],[],,,,517.1856,517.1858,-0.000868056,-0.254986979,0,0,0,,0,92,92,134,1,3,word,QUALIFY,print,qualify_p.png,,,,
,,,,32310,001,2025-12-04_20h32.56.606,HW_LDT_1,2024.2.4,MacIntel,56.81818182,,,,,,,,,,,,,,,,,,,,,517.1869,517.3853,517.3854,517.8852,,,,,,,,,,,,,,0.6045,1,,,,,,,,,,,,,,m,,,,,,,,,,,,,,,,94,0,517.8856,518.502,m,1,0.6045,,[],[],[],[],[],[],[],518.5021,520.5016,520.5016,520.5017,[],[],[],[],[],[],[],,,,520.5018,520.5018,-0.000868056,-0.254986979,0,0,0,,0,93,93,82,1,3,word,AMATEUR,print,amateur_p.png,,,,
,,,,32310,001,2025-12-04_20h32.56.606,HW_LDT_1,2024.2.4,MacIntel,56.81818182,,,,,,,,,,,,,,,,,,,,,520.5027,520.702,520.702,521.2022,,,,,,,,,,,,,,0.6205,1,,,,,,,,,,,,,,z,,,,,,,,,,,,,,,,95,0,521.2027,521.8355,z,1,0.6205,,[],[],[],[],[],[],[],521.8355,523.8354,523.8354,523.8356,[],[],[],[],[],[],[],,,,523.8356,523.8358,-0.000868056,-0.254986979,0,0,0,,0,94,94,0,1,3,RL,afaneur,print,afaneur_p.png,,,,
,,,,32310,001,2025-12-04_20h32.56.606,HW_LDT_1,2024.2.4,MacIntel,56.81818182,,,,,,,,,,,,,,,,,,,,,523.8369,524.0356,524.0357,524.5356,,,,,,,,,,,,,,1.9533,1,,,,,,,,,,,,,,z,,,,,,,,,,,,,,,,96,0,524.5361,526.5022,z,1,1.9533,,[],[],[],[],[],[],[],526.5023,528.5023,528.5023,528.5025,[],[],[],[],[],[],[],,,,528.5025,528.5026,-0.000868056,-0.254986979,0,0,0,,0,95,95,59,1,3,TL,paficic,cursive,paficic_c.png,,,,
,,,,32310,001,2025-12-04_20h32.56.606,HW_LDT_1,2024.2.4,MacIntel,56.81818182,,,,,,,,,,,,,,,,,,,,,528.5036,528.7022,528.7023,529.2024,,,,,,,,,,,,,,0.8473,1,,,,,,,,,,,,,,m,,,,,,,,,,,,,,,,97,0,529.2028,530.0521,m,1,0.8473,,[],[],[],[],[],[],[],530.0522,532.052,532.0522,532.0524,[],[],[],[],[],[],[],,,,532.0525,532.0526,-0.000868056,-0.254986979,0,0,0,,0,96,96,143,1,3,word,REMOVAL,cursive,removal_c.png,,,,
,,,,32310,001,2025-12-04_20h32.56.606,HW_LDT_1,2024.2.4,MacIntel,56.81818182,,,,,,,,,,,,,,,,,,,,,532.054,532.2522,532.2523,532.7523,,,,,,,,,,,,,,0.5704,1,,,,,,,,,,,,,,m,,,,,,,,,,,,,,,,98,0,532.7528,533.3358,m,1,0.5704,,[],[],[],[],[],[],[],533.3358,535.3358,535.3358,535.3361,[],[],[],[],[],[],[],,,,535.3362,535.3363,-0.000868056,-0.254986979,0,0,0,,0,97,97,102,1,3,word,DENSITY,print,density_p.png,,,,
,,,,32310,001,2025-12-04_20h32.56.606,HW_LDT_1,2024.2.4,MacIntel,56.81818182,,,,,,,,,,,,,,,,,,,,,535.3376,535.5357,535.5357,536.0358,,,,,,,,,,,,,,0.5206,1,,,,,,,,,,,,,,m,,,,,,,,,,,,,,,,99,0,536.0362,536.5691,m,1,0.5206,,[],[],[],[],[],[],[],536.5692,538.5691,538.5692,538.5694,[],[],[],[],[],[],[],,,,538.5694,538.5695,-0.000868056,-0.254986979,0,0,0,,0,98,98,80,1,3,word,ACADEMY,print,academy_p.png,,,,
,,,,32310,001,2025-12-04_20h32.56.606,HW_LDT_1,2024.2.4,MacIntel,56.81818182,,,,,,,,,,,,,,,,,,,,,538.5708,538.7691,538.7692,539.2693,,,,,,,,,,,,,,0.6861,0,,,,,,,,,,,,,,m,,,,,,,,,,,,,,,,100,0,539.2697,539.9692,z,0,0.6861,,[],[],[],[],[],[],[],539.9692,541.9691,541.9692,541.9694,[],[],[],[],[],[],[],,,,541.9694,541.9695,-0.000868056,-0.254986979,0,0,0,,0,99,99,92,1,3,word,CATEGORY,cursive,category_c.png,,,,
,,,,32310,001,2025-12-04_20h32.56.606,HW_LDT_1,2024.2.4,MacIntel,56.81818182,,,,,,,,,,,,,,,,,,,,,541.9705,542.1692,542.1693,542.6693,,,,,,,,,,,,,,0.537,1,,,,,,,,,,,,,,m,,,,,,,,,,,,,,,,101,0,542.6699,543.2193,m,1,0.537,,[],[],[],[],[],[],[],543.2194,545.2194,545.2194,545.2195,[],[],[],[],[],[],[],,,,545.2196,545.2197,-0.000868056,-0.254986979,0,0,0,,0,100,100,81,1,3,word,ADVISORY,print,advisory_p.png,,,,
,,,,32310,001,2025-12-04_20h32.56.606,HW_LDT_1,2024.2.4,MacIntel,56.81818182,,,,,,,,,,,,,,,,,,,,,545.2207,545.4194,545.4194,545.9194,,,,,,,,,,,,,,1.3201,1,,,,,,,,,,,,,,m,,,,,,,,,,,,,,,,102,0,545.9201,547.2523,m,1,1.3201,,[],[],[],[],[],[],[],547.2524,549.2527,549.2528,549.253,[],[],[],[],[],[],[],,,,549.253,549.2531,-0.000868056,-0.254986979,0,0,0,,0,101,101,93,1,3,word,CEREMONY,cursive,ceremony_c.png,,,,
,,,,32310,001,2025-12-04_20h32.56.606,HW_LDT_1,2024.2.4,MacIntel,56.81818182,,,,,,,,,,,,,,,,,,,,,549.2545,549.4528,549.4528,549.9528,,,,,,,,,,,,,,0.5867,1,,,,,,,,,,,,,,m,,,,,,,,,,,,,,,,103,0,549.9534,550.5522,m,1,0.5867,,[],[],[],[],[],[],[],550.5522,552.5531,552.5531,552.5535,[],[],[],[],[],[],[],,,,552.5536,552.5538,-0.000868056,-0.254986979,0,0,0,,0,102,102,150,1,3,word,SENTIMENT,print,sentiment_p.png,,,,
,,,,32310,001,2025-12-04_20h32.56.606,HW_LDT_1,2024.2.4,MacIntel,56.81818182,,,,,,,,,,,,,,,,,,,,,552.5558,552.7526,552.7526,553.2527,,,,,,,,,,,,,,0.7239,1,,,,,,,,,,,,,,m,,,,,,,,,,,,,,,,104,1,553.2534,553.986,m,1,0.7239,,[],[],[],[],[],[],[],553.9861,555.9865,555.9867,558.0859,[],[],[],[],[],[],[],m,2.0858,,558.086,558.086,-0.000868056,-0.254986979,0,0,0,,0,103,103,86,1,3,word,BESIDE,cursive,beside_c.png,,,,
,,,,32310,001,2025-12-04_20h32.56.606,HW_LDT_1,2024.2.4,MacIntel,56.81818182,,,,,,,,,,,,,,,,,,,,,558.0887,558.2862,558.2863,558.7863,,,,,,,,,,,,,,1.0152,1,,,,,,,,,,,,,,z,,,,,,,,,,,,,,,,105,0,558.7873,559.8037,z,1,1.0152,,[],[],[],[],[],[],[],559.8037,561.8031,561.8031,561.8034,[],[],[],[],[],[],[],,,,561.8034,561.8035,-0.000868056,-0.254986979,0,0,0,,0,104,104,73,1,3,TL,speficic,print,speficic_p.png,,,,
,,,,32310,001,2025-12-04_20h32.56.606,HW_LDT_1,2024.2.4,MacIntel,56.81818182,,,,,,,,,,,,,,,,,,,,,561.8047,562.003,562.0031,562.5023,,,,,,,,,,,,,,3.9213,1,,,,,,,,,,,,,,m,,,,,,,,,,,,,,,,106,0,562.5029,566.4361,m,1,3.9213,,[],[],[],[],[],[],[],566.4362,568.4365,568.4366,568.4368,[],[],[],[],[],[],[],,,,568.4369,568.437,-0.000868056,-0.254986979,0,0,0,,0,105,105,120,1,3,word,MILITARY,cursive,military_c.png,,,,
,,,,32310,001,2025-12-04_20h32.56.606,HW_LDT_1,2024.2.4,MacIntel,56.81818182,,,,,,,,,,,,,,,,,,,,,568.4382,568.6364,568.6365,569.1365,,,,,,,,,,,,,,0.8042,1,,,,,,,,,,,,,,z,,,,,,,,,,,,,,,,107,0,569.1371,569.9532,z,1,0.8042,,[],[],[],[],[],[],[],569.9532,571.9532,571.9533,571.9535,[],[],[],[],[],[],[],,,,571.9535,571.9535,-0.000868056,-0.254986979,0,0,0,,0,106,106,56,1,3,TL,meromy,print,meromy_p.png,,,,
,,,,32310,001,2025-12-04_20h32.56.606,HW_LDT_1,2024.2.4,MacIntel,56.81818182,,,,,,,,,,,,,,,,,,,,,571.9584,572.1532,572.1532,572.6533,,,,,,,,,,,,,,0.7703,1,,,,,,,,,,,,,,z,,,,,,,,,,,,,,,,108,0,572.6538,573.4366,z,1,0.7703,,[],[],[],[],[],[],[],573.4366,575.4366,575.4367,575.4368,[],[],[],[],[],[],[],,,,575.4368,575.4369,-0.000868056,-0.254986979,0,0,0,,0,107,107,39,1,3,TL,clicinal,print,clicinal_p.png,,,,
,,,,32310,001,2025-12-04_20h32.56.606,HW_LDT_1,2024.2.4,MacIntel,56.81818182,,,,,,,,,,,,,,,,,,,,,575.438,575.6368,575.6368,576.1367,,,,,,,,,,,,,,0.7156,1,,,,,,,,,,,,,,m,,,,,,,,,,,,,,,,109,0,576.1374,576.8539,m,1,0.7156,,[],[],[],[],[],[],[],576.8541,578.8534,578.8534,578.8538,[],[],[],[],[],[],[],,,,578.8538,578.8538,-0.000868056,-0.254986979,0,0,0,,0,108,108,106,1,3,word,ELABORATE,print,elaborate_p.png,,,,
,,,,32310,001,2025-12-04_20h32.56.606,HW_LDT_1,2024.2.4,MacIntel,56.81818182,,,,,,,,,,,,,,,,,,,,,578.8549,579.0528,579.0528,579.5533,,,,,,,,,,,,,,2.2866,1,,,,,,,,,,,,,,m,,,,,,,,,,,,,,,,110,1,579.5539,581.8535,m,1,2.2866,,[],[],[],[],[],[],[],581.8535,583.8535,583.8535,584.9535,[],[],[],[],[],[],[],z,1.0994,,584.9537,584.9539,-0.000868056,-0.254986979,0,0,0,,0,109,109,122,1,3,word,MOBILE,cursive,mobile_c.png,,,,
,,,,32310,001,2025-12-04_20h32.56.606,HW_LDT_1,2024.2.4,MacIntel,56.81818182,,,,,,,,,,,,,,,,,,,,,584.9549,585.1525,585.1526,585.6535,,,,,,,,,,,,,,0.72,1,,,,,,,,,,,,,,m,,,,,,,,,,,,,,,,111,0,585.6541,586.3869,m,1,0.72,,[],[],[],[],[],[],[],586.387,588.387,588.387,588.3871,[],[],[],[],[],[],[],,,,588.3871,588.3872,-0.000868056,-0.254986979,0,0,0,,0,110,110,146,1,3,word,RETIRE,print,retire_p.png,,,,
,,,,32310,001,2025-12-04_20h32.56.606,HW_LDT_1,2024.2.4,MacIntel,56.81818182,,,,,,,,,,,,,,,,,,,,,588.3881,588.5869,588.5869,589.0869,,,,,,,,,,,,,,0.7492,1,,,,,,,,,,,,,,z,,,,,,,,,,,,,,,,112,0,589.0873,589.8372,z,1,0.7492,,[],[],[],[],[],[],[],589.8373,591.8371,591.8371,591.8373,[],[],[],[],[],[],[],,,,591.8374,591.8374,-0.000868056,-0.254986979,0,0,0,,0,111,111,10,1,3,RL,efibor,print,efibor_p.png,,,,
,,,,32310,001,2025-12-04_20h32.56.606,HW_LDT_1,2024.2.4,MacIntel,56.81818182,,,,,,,,,,,,,,,,,,,,,591.8385,592.037,592.037,592.537,,,,,,,,,,,,,,0.9657,1,,,,,,,,,,,,,,z,,,,,,,,,,,,,,,,113,1,592.5375,593.504,z,1,0.9657,,[],[],[],[],[],[],[],593.5041,595.5038,595.5038,597.2372,[],[],[],[],[],[],[],m,1.723,,597.2375,597.2377,-0.000868056,-0.254986979,0,0,0,,0,112,112,38,1,3,TL,carnidal,print,carnidal_p.png,,,,
,,,,32310,001,2025-12-04_20h32.56.606,HW_LDT_1,2024.2.4,MacIntel,56.81818182,,,,,,,,,,,,,,,,,,,,,597.2402,597.437,597.4371,597.937,,,,,,,,,,,,,,2.0317,1,,,,,,,,,,,,,,z,,,,,,,,,,,,,,,,114,0,597.9375,599.9706,z,1,2.0317,,[],[],[],[],[],[],[],599.9707,601.9706,601.9707,601.9709,[],[],[],[],[],[],[],,,,601.9709,601.971,-0.000868056,-0.254986979,0,0,0,,0,113,113,12,1,3,RL,formuke,cursive,formuke_c.png,,,,
,,,,32310,001,2025-12-04_20h32.56.606,HW_LDT_1,2024.2.4,MacIntel,56.81818182,,,,,,,,,,,,,,,,,,,,,601.9723,602.1705,602.1705,602.6705,,,,,,,,,,,,,,1.3541,1,,,,,,,,,,,,,,z,,,,,,,,,,,,,,,,115,0,602.671,604.0372,z,1,1.3541,,[],[],[],[],[],[],[],604.0373,606.0366,606.0366,606.0369,[],[],[],[],[],[],[],,,,606.0369,606.037,-0.000868056,-0.254986979,0,0,0,,0,114,114,37,1,3,TL,cacapity,cursive,cacapity_c.png,,,,
,,,,32310,001,2025-12-04_20h32.56.606,HW_LDT_1,2024.2.4,MacIntel,56.81818182,,,,,,,,,,,,,,,,,,,,,606.0382,606.2373,606.2373,606.7371,,,,,,,,,,,,,,8.9428,1,,,,,,,,,,,,,,m,,,,,,,,,,,,,,,,116,0,606.7378,615.6876,m,1,8.9428,,[],[],[],[],[],[],[],615.6877,617.6876,617.6878,617.6882,[],[],[],[],[],[],[],,,,617.6883,617.6886,-0.000868056,-0.254986979,0,0,0,,0,115,115,127,1,3,word,ORIGINAL,cursive,original_c.png,,,,
,,,,32310,001,2025-12-04_20h32.56.606,HW_LDT_1,2024.2.4,MacIntel,56.81818182,,,,,,,,,,,,,,,,,,,,,617.6916,617.8874,617.8874,618.3866,,,,,,,,,,,,,,0.9535,1,,,,,,,,,,,,,,m,,,,,,,,,,,,,,,,117,0,618.3872,619.3543,m,1,0.9535,,[],[],[],[],[],[],[],619.3544,621.3544,621.3544,621.3548,[],[],[],[],[],[],[],,,,621.3549,621.3549,-0.000868056,-0.254986979,0,0,0,,0,116,116,156,1,3,word,TRIBUTE,print,tribute_p.png,,,,
,,,,32310,001,2025-12-04_20h32.56.606,HW_LDT_1,2024.2.4,MacIntel,56.81818182,,,,,,,,,,,,,,,,,,,,,621.3562,621.5543,621.5543,622.0544,,,,,,,,,,,,,,0.715,1,,,,,,,,,,,,,,z,,,,,,,,,,,,,,,,118,0,622.0549,622.7706,z,1,0.715,,[],[],[],[],[],[],[],622.7707,624.771,624.771,624.7712,[],[],[],[],[],[],[],,,,624.7712,624.7713,-0.000868056,-0.254986979,0,0,0,,0,117,117,44,1,3,TL,decilate,print,decilate_p.png,,,,
,,,,32310,001,2025-12-04_20h32.56.606,HW_LDT_1,2024.2.4,MacIntel,56.81818182,,,,,,,,,,,,,,,,,,,,,624.7723,624.9711,624.9712,625.4711,,,,,,,,,,,,,,0.637,1,,,,,,,,,,,,,,z,,,,,,,,,,,,,,,,119,0,625.4717,626.1211,z,1,0.637,,[],[],[],[],[],[],[],626.1212,628.1211,628.1213,628.1214,[],[],[],[],[],[],[],,,,628.1214,628.1215,-0.000868056,-0.254986979,0,0,0,,0,118,118,32,1,3,TL,adacemy,print,adacemy_p.png,,,,
,,,,32310,001,2025-12-04_20h32.56.606,HW_LDT_1,2024.2.4,MacIntel,56.81818182,,,,,,,,,,,,,,,,,,,,,628.1228,628.3211,628.3211,628.8211,,,,,,,,,,,,,,0.5541,1,,,,,,,,,,,,,,z,,,,,,,,,,,,,,,,120,1,628.8218,629.3879,z,1,0.5541,,[],[],[],[],[],[],[],629.388,631.388,631.388,633.7714,[],[],[],[],[],[],[],m,2.3703,,633.7714,633.7715,-0.000868056,-0.254986979,0,0,0,,0,119,119,23,1,3,RL,quakity,print,quakity_p.png,,,,
,,,,32310,001,2025-12-04_20h32.56.606,HW_LDT_1,2024.2.4,MacIntel,56.81818182,,,,,,,,,,,,,,,,,,,,,633.7726,633.9704,633.9705,634.4713,,,,,,,,,,,,,,1.5235,1,,,,,,,,,,,,,,m,,,,,,,,,,,,,,,,121,0,634.4717,636.0048,m,1,1.5235,,[],[],[],[],[],[],[],636.0049,638.0047,638.0048,638.0049,[],[],[],[],[],[],[],,,,638.005,638.0051,-0.000868056,-0.254986979,0,0,0,,0,120,120,159,1,3,word,VETERAN,cursive,veteran_c.png,,,,
,,,,32310,001,2025-12-04_20h32.56.606,HW_LDT_1,2024.2.4,MacIntel,56.81818182,,,,,,,,,,,,,,,,,,,,,638.0065,638.2044,638.2044,638.7047,,,,,,,,,,,,,,0.726,1,,,,,,,,,,,,,,m,,,,,,,,,,,,,,,,122,0,638.7055,639.4379,m,1,0.726,,[],[],[],[],[],[],[],639.438,641.4381,641.4382,641.4384,[],[],[],[],[],[],[],,,,641.4385,641.4386,-0.000868056,-0.254986979,0,0,0,,0,121,121,97,1,3,word,COVERAGE,print,coverage_p.png,,,,
,,,,32310,001,2025-12-04_20h32.56.606,HW_LDT_1,2024.2.4,MacIntel,56.81818182,,,,,,,,,,,,,,,,,,,,,641.4399,641.638,641.6381,642.1381,,,,,,,,,,,,,,1.2642,0,,,,,,,,,,,,,,m,,,,,,,,,,,,,,,,123,0,642.1388,643.4048,z,0,1.2642,,[],[],[],[],[],[],[],643.4048,645.4041,645.4042,645.4044,[],[],[],[],[],[],[],,,,645.4044,645.4044,-0.000868056,-0.254986979,0,0,0,,0,122,122,109,1,3,word,GRATEFUL,cursive,grateful_c.png,,,,
,,,,32310,001,2025-12-04_20h32.56.606,HW_LDT_1,2024.2.4,MacIntel,56.81818182,,,,,,,,,,,,,,,,,,,,,645.4055,645.6048,645.6048,646.1043,,,,,,,,,,,,,,0.5481,1,,,,,,,,,,,,,,m,,,,,,,,,,,,,,,,124,1,646.1047,646.6545,m,1,0.5481,,[],[],[],[],[],[],[],646.6546,648.6544,648.6544,649.405,[],[],[],[],[],[],[],m,0.7494,,649.4051,649.4051,-0.000868056,-0.254986979,0,0,0,,0,123,123,95,1,3,word,COMEDY,print,comedy_p.png,,,,
,,,,32310,001,2025-12-04_20h32.56.606,HW_LDT_1,2024.2.4,MacIntel,56.81818182,,,,,,,,,,,,,,,,,,,,,649.4062,649.6049,649.6049,650.105,,,,,,,,,,,,,,1.0711,1,,,,,,,,,,,,,,m,,,,,,,,,,,,,,,,125,0,650.1055,651.188,m,1,1.0711,,[],[],[],[],[],[],[],651.188,653.1884,653.1884,653.1886,[],[],[],[],[],[],[],,,,653.1886,653.1887,-0.000868056,-0.254986979,0,0,0,,0,124,124,142,1,3,word,REMOTE,print,remote_p.png,,,,
,,,,32310,001,2025-12-04_20h32.56.606,HW_LDT_1,2024.2.4,MacIntel,56.81818182,,,,,,,,,,,,,,,,,,,,,653.1897,653.3884,653.3884,653.8883,,,,,,,,,,,,,,0.7959,0,,,,,,,,,,,,,,m,,,,,,,,,,,,,,,,126,0,653.8887,654.6883,z,0,0.7959,,[],[],[],[],[],[],[],654.6885,656.6884,656.6885,656.6886,[],[],[],[],[],[],[],,,,656.6886,656.6887,-0.000868056,-0.254986979,0,0,0,,0,125,125,154,1,3,word,STORAGE,cursive,storage_c.png,,,,
,,,,32310,001,2025-12-04_20h32.56.606,HW_LDT_1,2024.2.4,MacIntel,56.81818182,,,,,,,,,,,,,,,,,,,,,656.6898,656.8883,656.8883,657.3875,,,,,,,,,,,,,,0.6377,1,,,,,,,,,,,,,,z,,,,,,,,,,,,,,,,127,0,657.388,658.0385,z,1,0.6377,,[],[],[],[],[],[],[],658.0387,660.0384,660.0385,660.0386,[],[],[],[],[],[],[],,,,660.0387,660.0388,-0.000868056,-0.254986979,0,0,0,,0,126,126,9,1,3,RL,docirant,print,docirant_p.png,,,,
,,,,32310,001,2025-12-04_20h32.56.606,HW_LDT_1,2024.2.4,MacIntel,56.81818182,,,,,,,,,,,,,,,,,,,,,660.0397,660.2385,660.2386,660.7385,,,,,,,,,,,,,,0.715,0,,,,,,,,,,,,,,z,,,,,,,,,,,,,,,,128,0,660.7393,661.4553,m,0,0.715,,[],[],[],[],[],[],[],661.4555,663.4552,663.4553,663.4554,[],[],[],[],[],[],[],,,,663.4555,663.4555,-0.000868056,-0.254986979,0,0,0,,0,127,127,54,1,3,TL,manire,cursive,manire_c.png,,,,
,,,,32310,001,2025-12-04_20h32.56.606,HW_LDT_1,2024.2.4,MacIntel,56.81818182,,,,,,,,,,,,,,,,,,,,,663.4567,663.6543,663.6544,664.1552,,,,,,,,,,,,,,1.47,1,,,,,,,,,,,,,,z,,,,,,,,,,,,,,,,129,0,664.1557,665.6387,z,1,1.47,,[],[],[],[],[],[],[],665.6388,667.6387,667.6388,667.639,[],[],[],[],[],[],[],,,,667.639,667.6392,-0.000868056,-0.254986979,0,0,0,,0,128,128,75,1,3,TL,sloten,cursive,sloten_c.png,,,,
,,,,32310,001,2025-12-04_20h32.56.606,HW_LDT_1,2024.2.4,MacIntel,56.81818182,,,,,,,,,,,,,,,,,,,,,667.6404,667.8387,667.8388,668.3388,,,,,,,,,,,,,,0.6627,1,,,,,,,,,,,,,,m,,,,,,,,,,,,,,,,130,0,668.3395,669.0053,m,1,0.6627,,[],[],[],[],[],[],[],669.0054,671.0055,671.0055,671.0057,[],[],[],[],[],[],[],,,,671.0057,671.006,-0.000868056,-0.254986979,0,0,0,,0,129,129,152,1,3,word,SPECIMEN,print,specimen_p.png,,,,
,,,,32310,001,2025-12-04_20h32.56.606,HW_LDT_1,2024.2.4,MacIntel,56.81818182,,,,,,,,,,,,,,,,,,,,,671.0072,671.2055,671.2055,671.7054,,,,,,,,,,,,,,0.8694,1,,,,,,,,,,,,,,z,,,,,,,,,,,,,,,,131,0,671.7061,672.5885,z,1,0.8694,,[],[],[],[],[],[],[],672.5885,674.5881,674.5882,674.5884,[],[],[],[],[],[],[],,,,674.5885,674.5887,-0.000868056,-0.254986979,0,0,0,,0,130,130,53,1,3,TL,marnigal,print,marnigal_p.png,,,,
,,,,32310,001,2025-12-04_20h32.56.606,HW_LDT_1,2024.2.4,MacIntel,56.81818182,,,,,,,,,,,,,,,,,,,,,674.59,674.7888,674.7889,675.289,,,,,,,,,,,,,,0.6532,1,,,,,,,,,,,,,,m,,,,,,,,,,,,,,,,132,0,675.2895,675.9555,m,1,0.6532,,[],[],[],[],[],[],[],675.9556,677.9556,677.9557,677.9559,[],[],[],[],[],[],[],,,,677.9559,677.956,-0.000868056,-0.254986979,0,0,0,,0,131,131,83,1,3,word,ANIMAL,cursive,animal_c.png,,,,
,,,,32310,001,2025-12-04_20h32.56.606,HW_LDT_1,2024.2.4,MacIntel,56.81818182,,,,,,,,,,,,,,,,,,,,,677.9572,678.1556,678.1556,678.6556,,,,,,,,,,,,,,0.6317,1,,,,,,,,,,,,,,m,,,,,,,,,,,,,,,,133,0,678.6561,679.2889,m,1,0.6317,,[],[],[],[],[],[],[],679.2889,681.2889,681.289,681.2891,[],[],[],[],[],[],[],,,,681.2892,681.2894,-0.000868056,-0.254986979,0,0,0,,0,132,132,105,1,3,word,EDITOR,print,editor_p.png,,,,
,,,,32310,001,2025-12-04_20h32.56.606,HW_LDT_1,2024.2.4,MacIntel,56.81818182,,,,,,,,,,,,,,,,,,,,,681.2903,681.4882,681.4883,681.9891,,,,,,,,,,,,,,0.6405,1,,,,,,,,,,,,,,z,,,,,,,,,,,,,,,,134,0,681.9896,682.639,z,1,0.6405,,[],[],[],[],[],[],[],682.639,684.6391,684.6392,684.6394,[],[],[],[],[],[],[],,,,684.6394,684.6395,-0.000868056,-0.254986979,0,0,0,,0,133,133,61,1,3,TL,pocily,print,pocily_p.png,,,,
,,,,32310,001,2025-12-04_20h32.56.606,HW_LDT_1,2024.2.4,MacIntel,56.81818182,,,,,,,,,,,,,,,,,,,,,684.6408,684.839,684.8391,685.339,,,,,,,,,,,,,,0.5315,0,,,,,,,,,,,,,,z,,,,,,,,,,,,,,,,135,0,685.3396,685.8723,m,0,0.5315,,[],[],[],[],[],[],[],685.8723,687.8725,687.8725,687.8726,[],[],[],[],[],[],[],,,,687.8726,687.8727,-0.000868056,-0.254986979,0,0,0,,0,134,134,35,1,3,TL,cateferia,print,cateferia_p.png,,,,
,,,,32310,001,2025-12-04_20h32.56.606,HW_LDT_1,2024.2.4,MacIntel,56.81818182,,,,,,,,,,,,,,,,,,,,,687.8735,688.0724,688.0724,688.5726,,,,,,,,,,,,,,0.9392,1,,,,,,,,,,,,,,z,,,,,,,,,,,,,,,,136,0,688.5731,689.5225,z,1,0.9392,,[],[],[],[],[],[],[],689.5226,691.5225,691.5225,691.5227,[],[],[],[],[],[],[],,,,691.5227,691.5229,-0.000868056,-0.254986979,0,0,0,,0,135,135,27,1,3,RL,recile,print,recile_p.png,,,,
,,,,32310,001,2025-12-04_20h32.56.606,HW_LDT_1,2024.2.4,MacIntel,56.81818182,,,,,,,,,,,,,,,,,,,,,691.5237,691.7225,691.7225,692.2227,,,,,,,,,,,,,,0.8386,1,,,,,,,,,,,,,,z,,,,,,,,,,,,,,,,137,0,692.2232,693.0726,z,1,0.8386,,[],[],[],[],[],[],[],693.0727,695.0726,695.0727,695.0728,[],[],[],[],[],[],[],,,,695.0728,695.0729,-0.000868056,-0.254986979,0,0,0,,0,136,136,3,1,3,RL,bebine,cursive,bebine_c.png,,,,
,,,,32310,001,2025-12-04_20h32.56.606,HW_LDT_1,2024.2.4,MacIntel,56.81818182,,,,,,,,,,,,,,,,,,,,,695.074,695.2727,695.2727,695.772,,,,,,,,,,,,,,0.7829,1,,,,,,,,,,,,,,z,,,,,,,,,,,,,,,,138,0,695.7724,696.556,z,1,0.7829,,[],[],[],[],[],[],[],696.556,698.5561,698.5561,698.5563,[],[],[],[],[],[],[],,,,698.5563,698.5563,-0.000868056,-0.254986979,0,0,0,,0,137,137,51,1,3,TL,liretal,print,liretal_p.png,,,,
,,,,32310,001,2025-12-04_20h32.56.606,HW_LDT_1,2024.2.4,MacIntel,56.81818182,,,,,,,,,,,,,,,,,,,,,698.5573,698.7561,698.7561,699.2561,,,,,,,,,,,,,,0.8822,0,,,,,,,,,,,,,,m,,,,,,,,,,,,,,,,139,0,699.2566,700.1395,z,0,0.8822,,[],[],[],[],[],[],[],700.1395,702.1395,702.1395,702.1398,[],[],[],[],[],[],[],,,,702.1399,702.14,-0.000868056,-0.254986979,0,0,0,,0,138,138,148,1,3,word,SALINE,cursive,saline_c.png,,,,
,,,,32310,001,2025-12-04_20h32.56.606,HW_LDT_1,2024.2.4,MacIntel,56.81818182,,,,,,,,,,,,,,,,,,,,,702.1411,702.3395,702.3396,702.8395,,,,,,,,,,,,,,0.8874,1,,,,,,,,,,,,,,m,,,,,,,,,,,,,,,,140,0,702.8403,703.7396,m,1,0.8874,,[],[],[],[],[],[],[],703.7397,705.7396,705.7397,705.7399,[],[],[],[],[],[],[],,,,705.7399,705.7401,-0.000868056,-0.254986979,0,0,0,,0,139,139,115,1,3,word,LOGICAL,cursive,logical_c.png,,,,
,,,,32310,001,2025-12-04_20h32.56.606,HW_LDT_1,2024.2.4,MacIntel,56.81818182,,,,,,,,,,,,,,,,,,,,,705.7411,705.9396,705.9396,706.4396,,,,,,,,,,,,,,1.0883,1,,,,,,,,,,,,,,z,,,,,,,,,,,,,,,,141,0,706.4401,707.5396,z,1,1.0883,,[],[],[],[],[],[],[],707.5397,709.5396,709.5397,709.5399,[],[],[],[],[],[],[],,,,709.54,709.54,-0.000868056,-0.254986979,0,0,0,,0,140,140,79,1,3,TL,veretan,cursive,veretan_c.png,,,,
,,,,32310,001,2025-12-04_20h32.56.606,HW_LDT_1,2024.2.4,MacIntel,56.81818182,,,,,,,,,,,,,,,,,,,,,709.5411,709.7397,709.7398,710.2394,,,,,,,,,,,,,,2.2557,1,,,,,,,,,,,,,,z,,,,,,,,,,,,,,,,142,0,710.2398,712.5064,z,1,2.2557,,[],[],[],[],[],[],[],712.5065,714.5064,714.5065,714.5067,[],[],[],[],[],[],[],,,,714.5067,714.5068,-0.000868056,-0.254986979,0,0,0,,0,141,141,70,1,3,TL,remuse,cursive,remuse_c.png,,,,
,,,,32310,001,2025-12-04_20h32.56.606,HW_LDT_1,2024.2.4,MacIntel,56.81818182,,,,,,,,,,,,,,,,,,,,,714.508,714.7063,714.7064,715.206,,,,,,,,,,,,,,0.6873,1,,,,,,,,,,,,,,m,,,,,,,,,,,,,,,,143,0,715.2064,715.9064,m,1,0.6873,,[],[],[],[],[],[],[],715.9066,717.9064,717.9064,717.9065,[],[],[],[],[],[],[],,,,717.9066,717.9066,-0.000868056,-0.254986979,0,0,0,,0,142,142,112,1,3,word,LIBERAL,print,liberal_p.png,,,,
,,,,32310,001,2025-12-04_20h32.56.606,HW_LDT_1,2024.2.4,MacIntel,56.81818182,,,,,,,,,,,,,,,,,,,,,717.9076,718.1066,718.1066,718.6067,,,,,,,,,,,,,,0.9364,1,,,,,,,,,,,,,,z,,,,,,,,,,,,,,,,144,0,718.6072,719.5565,z,1,0.9364,,[],[],[],[],[],[],[],719.5566,721.5562,721.5563,721.5564,[],[],[],[],[],[],[],,,,721.5565,721.5565,-0.000868056,-0.254986979,0,0,0,,0,143,143,15,1,3,RL,mifikary,cursive,mifikary_c.png,,,,
,,,,32310,001,2025-12-04_20h32.56.606,HW_LDT_1,2024.2.4,MacIntel,56.81818182,,,,,,,,,,,,,,,,,,,,,721.5577,721.7566,721.7566,722.2567,,,,,,,,,,,,,,0.6989,1,,,,,,,,,,,,,,m,,,,,,,,,,,,,,,,145,0,722.2572,722.9568,m,1,0.6989,,[],[],[],[],[],[],[],722.9569,724.9567,724.9568,724.957,[],[],[],[],[],[],[],,,,724.957,724.9572,-0.000868056,-0.254986979,0,0,0,,0,144,144,131,1,3,word,POPULAR,print,popular_p.png,,,,
,,,,32310,001,2025-12-04_20h32.56.606,HW_LDT_1,2024.2.4,MacIntel,56.81818182,,,,,,,,,,,,,,,,,,,,,724.9583,725.1565,725.1565,725.6567,,,,,,,,,,,,,,0.6898,0,,,,,,,,,,,,,,m,,,,,,,,,,,,,,,,146,0,725.6572,726.3568,z,0,0.6898,,[],[],[],[],[],[],[],726.3568,728.3567,728.3568,728.3569,[],[],[],[],[],[],[],,,,728.357,728.357,-0.000868056,-0.254986979,0,0,0,,0,145,145,145,1,3,word,RESUME,cursive,resume_c.png,,,,
,,,,32310,001,2025-12-04_20h32.56.606,HW_LDT_1,2024.2.4,MacIntel,56.81818182,,,,,,,,,,,,,,,,,,,,,728.358,728.5567,728.5568,729.0568,,,,,,,,,,,,,,0.9553,1,,,,,,,,,,,,,,z,,,,,,,,,,,,,,,,147,0,729.0574,730.0225,z,1,0.9553,,[],[],[],[],[],[],[],730.0227,732.0235,732.0235,732.0236,[],[],[],[],[],[],[],,,,732.0237,732.0238,-0.000868056,-0.254986979,0,0,0,,0,146,146,58,1,3,TL,nuremical,print,nuremical_p.png,,,,
,,,,32310,001,2025-12-04_20h32.56.606,HW_LDT_1,2024.2.4,MacIntel,56.81818182,,,,,,,,,,,,,,,,,,,,,732.0248,732.2235,732.2235,732.7235,,,,,,,,,,,,,,0.8152,1,,,,,,,,,,,,,,m,,,,,,,,,,,,,,,,148,0,732.7242,733.5402,m,1,0.8152,,[],[],[],[],[],[],[],733.5403,735.5399,735.5399,735.54,[],[],[],[],[],[],[],,,,735.54,735.5401,-0.000868056,-0.254986979,0,0,0,,0,147,147,144,1,3,word,RESIDENT,cursive,resident_c.png,,,,
,,,,32310,001,2025-12-04_20h32.56.606,HW_LDT_1,2024.2.4,MacIntel,56.81818182,,,,,,,,,,,,,,,,,,,,,735.5408,735.7403,735.7403,736.2402,,,,,,,,,,,,,,0.921,1,,,,,,,,,,,,,,z,,,,,,,,,,,,,,,,149,0,736.2408,737.1736,z,1,0.921,,[],[],[],[],[],[],[],737.1737,739.1737,739.1739,739.1742,[],[],[],[],[],[],[],,,,739.1742,739.1743,-0.000868056,-0.254986979,0,0,0,,0,148,148,17,1,3,RL,motide,cursive,motide_c.png,,,,
,,,,32310,001,2025-12-04_20h32.56.606,HW_LDT_1,2024.2.4,MacIntel,56.81818182,,,,,,,,,,,,,,,,,,,,,739.1753,739.3736,739.3736,739.8736,,,,,,,,,,,,,,0.562,1,,,,,,,,,,,,,,m,,,,,,,,,,,,,,,,150,0,739.8743,740.4402,m,1,0.562,,[],[],[],[],[],[],[],740.4402,742.4404,742.4405,742.4406,[],[],[],[],[],[],[],,,,742.4406,742.4408,-0.000868056,-0.254986979,0,0,0,,0,149,149,125,1,3,word,OPERATOR,print,operator_p.png,,,,
,,,,32310,001,2025-12-04_20h32.56.606,HW_LDT_1,2024.2.4,MacIntel,56.81818182,,,,,,,,,,,,,,,,,,,,,742.442,742.6403,742.6404,743.1404,,,,,,,,,,,,,,0.7317,1,,,,,,,,,,,,,,m,,,,,,,,,,,,,,,,151,0,743.1408,743.8738,m,1,0.7317,,[],[],[],[],[],[],[],743.8739,745.8739,745.8739,745.8741,[],[],[],[],[],[],[],,,,745.8741,745.8742,-0.000868056,-0.254986979,0,0,0,,0,150,150,94,1,3,word,CLINICAL,print,clinical_p.png,,,,
,,,,32310,001,2025-12-04_20h32.56.606,HW_LDT_1,2024.2.4,MacIntel,56.81818182,,,,,,,,,,,,,,,,,,,,,745.8752,746.0738,746.0739,746.5737,,,,,,,,,,,,,,0.7875,1,,,,,,,,,,,,,,m,,,,,,,,,,,,,,,,152,0,746.5741,747.374,m,1,0.7875,,[],[],[],[],[],[],[],747.3742,749.3737,749.3738,749.3739,[],[],[],[],[],[],[],,,,749.3739,749.374,-0.000868056,-0.254986979,0,0,0,,0,151,151,88,1,3,word,CAMERA,cursive,camera_c.png,,,,
,,,,32310,001,2025-12-04_20h32.56.606,HW_LDT_1,2024.2.4,MacIntel,56.81818182,,,,,,,,,,,,,,,,,,,,,749.375,749.5733,749.5733,750.0735,,,,,,,,,,,,,,0.7233,1,,,,,,,,,,,,,,m,,,,,,,,,,,,,,,,153,1,750.0739,750.8069,m,1,0.7233,,[],[],[],[],[],[],[],750.807,752.8074,752.8074,754.4739,[],[],[],[],[],[],[],m,1.6659,,754.4739,754.4741,-0.000868056,-0.254986979,0,0,0,,0,152,152,138,1,3,word,REFUSAL,print,refusal_p.png,,,,
,,,,32310,001,2025-12-04_20h32.56.606,HW_LDT_1,2024.2.4,MacIntel,56.81818182,,,,,,,,,,,,,,,,,,,,,754.4753,754.6739,754.674,755.1739,,,,,,,,,,,,,,1.7651,1,,,,,,,,,,,,,,z,,,,,,,,,,,,,,,,154,0,755.1745,756.9406,z,1,1.7651,,[],[],[],[],[],[],[],756.9406,758.9406,758.9407,758.9408,[],[],[],[],[],[],[],,,,758.9409,758.9409,-0.000868056,-0.254986979,0,0,0,,0,153,153,71,1,3,TL,sanile,cursive,sanile_c.png,,,,
,,,,32310,001,2025-12-04_20h32.56.606,HW_LDT_1,2024.2.4,MacIntel,56.81818182,,,,,,,,,,,,,,,,,,,,,758.942,759.1407,759.1408,759.6407,,,,,,,,,,,,,,1.5701,1,,,,,,,,,,,,,,m,,,,,,,,,,,,,,,,155,1,759.6413,761.2243,m,1,1.5701,,[],[],[],[],[],[],[],761.2244,763.2241,763.2241,764.0742,[],[],[],[],[],[],[],z,0.8491,,764.0742,764.0743,-0.000868056,-0.254986979,0,0,0,,0,154,154,128,1,3,word,PACIFIC,cursive,pacific_c.png,,,,
,,,,32310,001,2025-12-04_20h32.56.606,HW_LDT_1,2024.2.4,MacIntel,56.81818182,,,,,,,,,,,,,,,,,,,,,764.0755,764.2742,764.2742,764.7742,,,,,,,,,,,,,,1.0152,1,,,,,,,,,,,,,,z,,,,,,,,,,,,,,,,156,0,764.7748,765.7908,z,1,1.0152,,[],[],[],[],[],[],[],765.7908,767.7904,767.7904,767.7906,[],[],[],[],[],[],[],,,,767.7906,767.7908,-0.000868056,-0.254986979,0,0,0,,0,155,155,33,1,3,TL,adsivory,print,adsivory_p.png,,,,
,,,,32310,001,2025-12-04_20h32.56.606,HW_LDT_1,2024.2.4,MacIntel,56.81818182,,,,,,,,,,,,,,,,,,,,,767.7917,767.991,767.991,768.4903,,,,,,,,,,,,,,1.7426,1,,,,,,,,,,,,,,z,,,,,,,,,,,,,,,,157,0,768.4907,770.241,z,1,1.7426,,[],[],[],[],[],[],[],770.2411,772.2411,772.2412,772.2414,[],[],[],[],[],[],[],,,,772.2414,772.2415,-0.000868056,-0.254986979,0,0,0,,0,156,156,77,1,3,TL,vadility,cursive,vadility_c.png,,,,
,,,,32310,001,2025-12-04_20h32.56.606,HW_LDT_1,2024.2.4,MacIntel,56.81818182,,,,,,,,,,,,,,,,,,,,,772.2426,772.4411,772.4412,772.941,,,,,,,,,,,,,,0.6488,1,,,,,,,,,,,,,,m,,,,,,,,,,,,,,,,158,0,772.9414,773.5909,m,1,0.6488,,[],[],[],[],[],[],[],773.5909,775.591,775.591,775.5912,[],[],[],[],[],[],[],,,,775.5912,775.5913,-0.000868056,-0.254986979,0,0,0,,0,157,157,100,1,3,word,DECADE,cursive,decade_c.png,,,,
,,,,32310,001,2025-12-04_20h32.56.606,HW_LDT_1,2024.2.4,MacIntel,56.81818182,,,,,,,,,,,,,,,,,,,,,775.5923,775.7913,775.7913,776.2912,,,,,,,,,,,,,,0.991,1,,,,,,,,,,,,,,m,,,,,,,,,,,,,,,,159,0,776.2916,777.2912,m,1,0.991,,[],[],[],[],[],[],[],777.2913,779.2911,779.2911,779.2913,[],[],[],[],[],[],[],,,,779.2913,779.2915,-0.000868056,-0.254986979,0,0,0,,0,158,158,135,1,3,word,QUALITY,print,quality_p.png,,,,
,,,,32310,001,2025-12-04_20h32.56.606,HW_LDT_1,2024.2.4,MacIntel,56.81818182,,,,,,,,,,,,,,,,,,,,,779.2928,779.4913,779.4913,779.9912,,,,,,,,,,,,,,2.0866,1,,,,,,,,,,,,,,z,,,,,,,,,,,,,,,,160,0,779.9918,782.0913,z,1,2.0866,,[],[],[],[],[],[],[],782.0914,784.0913,784.0913,784.0914,[],[],[],[],[],[],[],,,,784.0914,784.0915,-0.000868056,-0.254986979,0,0,0,,0,159,159,4,1,3,RL,cafigal,cursive,cafigal_c.png,,,,
,,,,32310,001,2025-12-04_20h32.56.606,HW_LDT_1,2024.2.4,MacIntel,56.81818182,,,,,,,,,,,,,,,,,,,,,,,,,,,,,,,,,,,,,,,,,,,,,,,,,,,,,,,,,,,,,,,,,,,,,,,,,,,,,,,,,,,,,,,,,,,,,,,,,,,,,,,,,,,,,,,,,,,,,,784.0976,789.0913
