counterbalance_lists.group,counterbalance_lists.remaining,get_list.started,get_list.stopped,participant,session,date,expName,psychopyVersion,OS,frameRate,Instructions.started,Instructions.stopped,key_resp.keys,instr_done_touch.x,instr_done_touch.y,instr_done_touch.leftButton,instr_done_touch.midButton,instr_done_touch.rightButton,instr_done_touch.clicked_name,start_instr.thisRepN,start_instr.thisTrialN,start_instr.thisN,start_instr.thisIndex,start_instr.ran,pageN,phase,instruct_text,has_image,instruct_image,key_resp.rt,key_resp.duration,showProgress.started,showProgress.stopped,fix.started,fix.stopped,prac.started,prac.stopped,response.keys,response.corr,response.rt,response.duration,touch_resp.x,touch_resp.y,touch_resp.leftButton,touch_resp.midButton,touch_resp.rightButton,touch_resp.time,touch_resp.clicked_name,rt,corr,feedback.started,feedback.stopped,trials.thisRepN,trials.thisTrialN,trials.thisN,trials.thisIndex,trials.ran,TrialID,StimulusType,Condition,PrimeDuration,Prime,Target,corrAns,Instructions_expt.started,Instructions_expt.stopped,key_resp_3.keys,key_resp_3.rt,key_resp_3.duration,instr_done_touch_3.x,instr_done_touch_3.y,instr_done_touch_3.leftButton,instr_done_touch_3.midButton,instr_done_touch_3.rightButton,instr_experiment.thisRepN,instr_experiment.thisTrialN,instr_experiment.thisN,instr_experiment.thisIndex,instr_experiment.ran,trialID,flag,maintask.started,maintask.stopped,key_resp_2.keys,key_resp_2.corr,key_resp_2.rt,key_resp_2.duration,targ_click.x,targ_click.y,targ_click.leftButton,targ_click.midButton,targ_click.rightButton,targ_click.time,targ_click.clicked_name,ITI.started,ITI.stopped,probe.started,probe.stopped,click_probe.x,click_probe.y,click_probe.leftButton,click_probe.midButton,click_probe.rightButton,click_probe.time,click_probe.clicked_name,key_resp_probe.keys,Break.started,Break.stopped,break_done_touch.x,break_done_touch.y,break_done_touch.leftButton,break_done_touch.midButton,break_done_touch.rightButton,break_done_keyboard.keys,list2_trials.thisRepN,list2_trials.thisTrialN,list2_trials.thisN,list2_trials.thisIndex,list2_trials.ran,list_id,item_type,string,font,stim_file,key_resp_probe.rt,key_resp_probe.duration,break_done_keyboard.rt,break_done_keyboard.duration,End.started,End.stopped
list2,,0.464,0.465,32322,001,2025-12-02_17h27.00.954,HW_LDT_1,2024.2.4,MacIntel,58.82352941,,,,,,,,,,,,,,,,,,,,,,,,,,,,,,,,,,,,,,,,,,,,,,,,,,,,,,,,,,,,,,,,,,,,,,,,,,,,,,,,,,,,,,,,,,,,,,,,,,,,,,,,,,,,,,,,,,,,,,,,
,,,,32322,001,2025-12-02_17h27.00.954,HW_LDT_1,2024.2.4,MacIntel,58.82352941,0.482,12.137,,-0.021111111,-0.423333333,1,0,0,instr_done_button,0,0,0,0,1,1,instructions,"INSTRUCTIONS
At the start of each trial, look at the plus sign  (+) in the center of the screen.  This tells you that a trial is about to begin and where to look. Second, the plus sign will disappear and a string of letters will appear. Your task is to determine if the string of letters is a word or not. If the item is a word press the M key (on keyboard)  or touch the word button (phone/tablet).  If the item is not a word,  press the  Z key (on keyboard)  or touch the nonword button (on phone/tablet). The items will be presented for a short time. 
Press the space bar or touch  continue.",0,,,,,,,,,,,,,,,,,,,,,,,,,,,,,,,,,,,,,,,,,,,,,,,,,,,,,,,,,,,,,,,,,,,,,,,,,,,,,,,,,,,,,,,,,,,,,,,,,,,,,,
,,,,32322,001,2025-12-02_17h27.00.954,HW_LDT_1,2024.2.4,MacIntel,58.82352941,12.138,36.772,space,-0.034444444,-0.382222222,0,0,0,,0,1,1,1,1,2,instructions,"If your device has a keyboard, press the 'Z' key for nonwords and the 'M' key for words.





Press the space bar or touch the button below to continue.",0,keyboard-example.gif,24.596,,,,,,,,,,,,,,,,,,,,,,,,,,,,,,,,,,,,,,,,,,,,,,,,,,,,,,,,,,,,,,,,,,,,,,,,,,,,,,,,,,,,,,,,,,,,,,,,,,,,
,,,,32322,001,2025-12-02_17h27.00.954,HW_LDT_1,2024.2.4,MacIntel,58.82352941,36.773,41.305,space,-0.034444444,-0.382222222,0,0,0,,0,2,2,2,1,3,instructions,"If you are using a touchscreen only device, use the buttons on the screen. Do not use the mouse.





Press the space bar or touch the button below to continue.",0,touchscreen-example.gif,4.509,,,,,,,,,,,,,,,,,,,,,,,,,,,,,,,,,,,,,,,,,,,,,,,,,,,,,,,,,,,,,,,,,,,,,,,,,,,,,,,,,,,,,,,,,,,,,,,,,,,,
,,,,32322,001,2025-12-02_17h27.00.954,HW_LDT_1,2024.2.4,MacIntel,58.82352941,41.308,44.655,space,-0.034444444,-0.382222222,0,0,0,,0,3,3,3,1,4,instructions,"It is very important that you respond as quickly and accurately as possible, as each letter string will only be on the screen for two seconds. If you do not respond within this time, the message 'Too slow!' will be displayed and the experiment will progress to the next letter string. The first 20 trials will be practice trials and you will receive feedback on your answers. 

Press the space bar or touch the button below to start the practice trials.",0,,3.321,,,,,,,,,,,,,,,,,,,,,,,,,,,,,,,,,,,,,,,,,,,,,,,,,,,,,,,,,,,,,,,,,,,,,,,,,,,,,,,,,,,,,,,,,,,,,,,,,,,,
,,,,32322,001,2025-12-02_17h27.00.954,HW_LDT_1,2024.2.4,MacIntel,58.82352941,,,,,,,,,,,,,,,,,,,,,,44.672,44.855,44.856,45.355,45.356,49.456,m,0,4.08,,[],[],[],[],[],[],[],4.08,0,49.457,49.956,0,0,0,13,1,1014,NW,UN,33,winfer,ROUPET,z,,,,,,,,,,,,,,,,,,,,,,,,,,,,,,,,,,,,,,,,,,,,,,,,,,,,,,,,,,,,,,,,,,
,,,,32322,001,2025-12-02_17h27.00.954,HW_LDT_1,2024.2.4,MacIntel,58.82352941,,,,,,,,,,,,,,,,,,,,,,49.958,50.155,50.155,50.655,50.656,51.838,m,1,1.164,,[],[],[],[],[],[],[],1.164,1,51.84,52.339,0,1,1,2,1,1003,WORD,"ID",16,almond,ALMOND,m,,,,,,,,,,,,,,,,,,,,,,,,,,,,,,,,,,,,,,,,,,,,,,,,,,,,,,,,,,,,,,,,,,
,,,,32322,001,2025-12-02_17h27.00.954,HW_LDT_1,2024.2.4,MacIntel,58.82352941,,,,,,,,,,,,,,,,,,,,,,52.34,52.538,52.538,53.038,53.039,55.405,m,1,2.348,,[],[],[],[],[],[],[],2.348,1,55.406,55.905,0,2,2,0,1,1001,WORD,"ID",33,utopia,UTOPIA,m,,,,,,,,,,,,,,,,,,,,,,,,,,,,,,,,,,,,,,,,,,,,,,,,,,,,,,,,,,,,,,,,,,
,,,,32322,001,2025-12-02_17h27.00.954,HW_LDT_1,2024.2.4,MacIntel,58.82352941,,,,,,,,,,,,,,,,,,,,,,55.907,56.105,56.105,56.605,56.606,57.388,m,1,0.761,,[],[],[],[],[],[],[],0.761,1,57.389,57.889,0,3,3,3,1,1004,WORD,"ID",16,matrix,MATRIX,m,,,,,,,,,,,,,,,,,,,,,,,,,,,,,,,,,,,,,,,,,,,,,,,,,,,,,,,,,,,,,,,,,,
,,,,32322,001,2025-12-02_17h27.00.954,HW_LDT_1,2024.2.4,MacIntel,58.82352941,,,,,,,,,,,,,,,,,,,,,,57.89,58.088,58.088,58.588,58.589,59.486,z,1,0.884,,[],[],[],[],[],[],[],0.884,1,59.486,60.005,0,4,4,12,1,1013,NW,UN,33,adveil,SPRINY,z,,,,,,,,,,,,,,,,,,,,,,,,,,,,,,,,,,,,,,,,,,,,,,,,,,,,,,,,,,,,,,,,,,
,,,,32322,001,2025-12-02_17h27.00.954,HW_LDT_1,2024.2.4,MacIntel,58.82352941,,,,,,,,,,,,,,,,,,,,,,60.006,60.205,60.205,60.705,60.706,61.472,m,1,0.749,,[],[],[],[],[],[],[],0.749,1,61.472,61.972,0,5,5,7,1,1008,WORD,UN,16,hurdle,VOLUME,m,,,,,,,,,,,,,,,,,,,,,,,,,,,,,,,,,,,,,,,,,,,,,,,,,,,,,,,,,,,,,,,,,,
,,,,32322,001,2025-12-02_17h27.00.954,HW_LDT_1,2024.2.4,MacIntel,58.82352941,,,,,,,,,,,,,,,,,,,,,,61.974,62.172,62.172,62.672,62.673,63.989,z,1,1.3,,[],[],[],[],[],[],[],1.3,1,63.99,64.489,0,6,6,10,1,1011,NW,"ID",16,inlade,INLADE,z,,,,,,,,,,,,,,,,,,,,,,,,,,,,,,,,,,,,,,,,,,,,,,,,,,,,,,,,,,,,,,,,,,
,,,,32322,001,2025-12-02_17h27.00.954,HW_LDT_1,2024.2.4,MacIntel,58.82352941,,,,,,,,,,,,,,,,,,,,,,64.492,64.689,64.689,65.188,65.188,66.122,m,1,0.919,,[],[],[],[],[],[],[],0.919,1,66.123,66.622,0,7,7,1,1,1002,WORD,"ID",33,adjust,ADJUST,m,,,,,,,,,,,,,,,,,,,,,,,,,,,,,,,,,,,,,,,,,,,,,,,,,,,,,,,,,,,,,,,,,,
,,,,32322,001,2025-12-02_17h27.00.954,HW_LDT_1,2024.2.4,MacIntel,58.82352941,,,,,,,,,,,,,,,,,,,,,,66.624,66.822,66.822,67.322,67.323,68.255,z,1,0.915,,[],[],[],[],[],[],[],0.915,1,68.256,68.756,0,8,8,8,1,1009,NW,"ID",33,aslert,ASLERT,z,,,,,,,,,,,,,,,,,,,,,,,,,,,,,,,,,,,,,,,,,,,,,,,,,,,,,,,,,,,,,,,,,,
,,,,32322,001,2025-12-02_17h27.00.954,HW_LDT_1,2024.2.4,MacIntel,58.82352941,,,,,,,,,,,,,,,,,,,,,,68.757,68.955,68.955,69.455,69.456,70.439,m,1,0.971,,[],[],[],[],[],[],[],0.971,1,70.439,70.938,0,9,9,6,1,1007,WORD,UN,16,tropic,ZOMBIE,m,,,,,,,,,,,,,,,,,,,,,,,,,,,,,,,,,,,,,,,,,,,,,,,,,,,,,,,,,,,,,,,,,,
,,,,32322,001,2025-12-02_17h27.00.954,HW_LDT_1,2024.2.4,MacIntel,58.82352941,,,,,,,,,,,,,,,,,,,,,,70.94,71.138,71.138,71.639,71.64,73.272,m,1,1.615,,[],[],[],[],[],[],[],1.615,1,73.273,73.772,0,10,10,5,1,1006,WORD,UN,33,frenzy,OBTAIN,m,,,,,,,,,,,,,,,,,,,,,,,,,,,,,,,,,,,,,,,,,,,,,,,,,,,,,,,,,,,,,,,,,,
,,,,32322,001,2025-12-02_17h27.00.954,HW_LDT_1,2024.2.4,MacIntel,58.82352941,,,,,,,,,,,,,,,,,,,,,,73.774,73.972,73.972,74.472,74.473,76.122,z,1,1.631,,[],[],[],[],[],[],[],1.631,1,76.123,76.623,0,11,11,14,1,1015,NW,UN,16,miaber,THRALE,z,,,,,,,,,,,,,,,,,,,,,,,,,,,,,,,,,,,,,,,,,,,,,,,,,,,,,,,,,,,,,,,,,,
,,,,32322,001,2025-12-02_17h27.00.954,HW_LDT_1,2024.2.4,MacIntel,58.82352941,,,,,,,,,,,,,,,,,,,,,,76.625,76.823,76.823,77.322,77.324,78.471,z,1,1.131,,[],[],[],[],[],[],[],1.131,1,78.471,78.972,0,12,12,9,1,1010,NW,"ID",33,fariny,FARINY,z,,,,,,,,,,,,,,,,,,,,,,,,,,,,,,,,,,,,,,,,,,,,,,,,,,,,,,,,,,,,,,,,,,
,,,,32322,001,2025-12-02_17h27.00.954,HW_LDT_1,2024.2.4,MacIntel,58.82352941,,,,,,,,,,,,,,,,,,,,,,78.974,79.172,79.172,79.672,79.673,81.94,z,1,2.249,,[],[],[],[],[],[],[],2.249,1,81.94,82.439,0,13,13,11,1,1012,NW,"ID",16,rashet,RASHET,z,,,,,,,,,,,,,,,,,,,,,,,,,,,,,,,,,,,,,,,,,,,,,,,,,,,,,,,,,,,,,,,,,,
,,,,32322,001,2025-12-02_17h27.00.954,HW_LDT_1,2024.2.4,MacIntel,58.82352941,,,,,,,,,,,,,,,,,,,,,,82.44,82.639,82.639,83.139,83.141,84.156,z,1,0.997,,[],[],[],[],[],[],[],0.997,1,84.156,84.656,0,14,14,15,1,1016,NW,UN,16,mushed,WHAISE,z,,,,,,,,,,,,,,,,,,,,,,,,,,,,,,,,,,,,,,,,,,,,,,,,,,,,,,,,,,,,,,,,,,
,,,,32322,001,2025-12-02_17h27.00.954,HW_LDT_1,2024.2.4,MacIntel,58.82352941,,,,,,,,,,,,,,,,,,,,,,84.658,84.856,84.856,85.355,85.356,86.573,m,1,1.201,,[],[],[],[],[],[],[],1.201,1,86.573,87.073,0,15,15,4,1,1005,WORD,UN,33,abound,SQUEAK,m,,,,,,,,,,,,,,,,,,,,,,,,,,,,,,,,,,,,,,,,,,,,,,,,,,,,,,,,,,,,,,,,,,
,,,,32322,001,2025-12-02_17h27.00.954,HW_LDT_1,2024.2.4,MacIntel,58.82352941,,,,,,,,,,,,,,,1,end_of_practice,"You have completed the practice trials. During the experimental trials, you will not receive feedback. On some trials you will be asked to report whether the item you just saw was in cursive or print. 
Before you begin, please ensure that you are in a comfortable and quiet location and will not be disturbed for about 15 minutes, as we cannot use your data if you do not complete all the trials. 
 When you are ready to start the experimental trials, please press space or touch the button below.",,,,,,,,,,,,,,,,,,,,,,,,,,,,,,,,,,,,,,87.082,91.874,space,4.77,,-0.034444444,-0.382222222,0,0,0,0,0,0,0,1,,,,,,,,,,,,,,,,,,,,,,,,,,,,,,,,,,,,,,,,,,,,,,,,,,,
,,,,32322,001,2025-12-02_17h27.00.954,HW_LDT_1,2024.2.4,MacIntel,58.82352941,,,,,,,,,,,,,,,,,,,,,,91.886,92.073,92.073,92.573,,,,,,,,,,,,,,1.906,1,,,,,,,,,,,,,,z,,,,,,,,,,,,,,,,1,0,92.575,94.49,z,1,1.906,,[],[],[],[],[],[],[],94.491,96.49,96.49,96.496,[],[],[],[],[],[],[],,96.497,96.498,-0.034444444,-0.382222222,0,0,0,,0,0,0,23,1,2,RL,procogal,cursive,procogal_c.png,,,,,,
,,,,32322,001,2025-12-02_17h27.00.954,HW_LDT_1,2024.2.4,MacIntel,58.82352941,,,,,,,,,,,,,,,,,,,,,,96.499,96.689,96.689,97.19,,,,,,,,,,,,,,2.595,0,,,,,,,,,,,,,,z,,,,,,,,,,,,,,,,2,0,97.191,99.791,m,0,2.595,,[],[],[],[],[],[],[],99.792,101.79,101.79,101.791,[],[],[],[],[],[],[],,101.791,101.791,-0.034444444,-0.382222222,0,0,0,,0,1,1,47,1,2,TL,crinimal,cursive,crinimal_c.png,,,,,,
,,,,32322,001,2025-12-02_17h27.00.954,HW_LDT_1,2024.2.4,MacIntel,58.82352941,,,,,,,,,,,,,,,,,,,,,,101.793,101.99,101.99,102.49,,,,,,,,,,,,,,1.655,0,,,,,,,,,,,,,,z,,,,,,,,,,,,,,,,3,0,102.49,104.157,m,0,1.655,,[],[],[],[],[],[],[],104.157,106.157,106.157,106.158,[],[],[],[],[],[],[],,106.158,106.159,-0.034444444,-0.382222222,0,0,0,,0,2,2,66,1,2,TL,prodive,cursive,prodive_c.png,,,,,,
,,,,32322,001,2025-12-02_17h27.00.954,HW_LDT_1,2024.2.4,MacIntel,58.82352941,,,,,,,,,,,,,,,,,,,,,,106.16,106.357,106.357,106.856,,,,,,,,,,,,,,4.429,0,,,,,,,,,,,,,,m,,,,,,,,,,,,,,,,4,0,106.856,111.29,z,0,4.429,,[],[],[],[],[],[],[],111.29,113.29,113.29,113.29,[],[],[],[],[],[],[],,113.29,113.291,-0.034444444,-0.382222222,0,0,0,,0,3,3,91,1,2,word,CARDINAL,cursive,cardinal_c.png,,,,,,
,,,,32322,001,2025-12-02_17h27.00.954,HW_LDT_1,2024.2.4,MacIntel,58.82352941,,,,,,,,,,,,,,,,,,,,,,113.292,113.49,113.49,113.99,,,,,,,,,,,,,,0.921,1,,,,,,,,,,,,,,m,,,,,,,,,,,,,,,,5,0,113.991,114.924,m,1,0.921,,[],[],[],[],[],[],[],114.924,116.924,116.924,116.924,[],[],[],[],[],[],[],,116.924,116.924,-0.034444444,-0.382222222,0,0,0,,0,4,4,119,1,2,word,MEMORY,cursive,memory_c.png,,,,,,
,,,,32322,001,2025-12-02_17h27.00.954,HW_LDT_1,2024.2.4,MacIntel,58.82352941,,,,,,,,,,,,,,,,,,,,,,116.925,117.124,117.124,117.623,,,,,,,,,,,,,,2.807,1,,,,,,,,,,,,,,m,,,,,,,,,,,,,,,,6,1,117.623,120.44,m,1,2.807,,[],[],[],[],[],[],[],120.441,122.441,122.441,126.574,[],[],[],[],[],[],[],m,126.574,126.575,-0.034444444,-0.382222222,0,0,0,,0,5,5,144,1,2,word,RESIDENT,print,resident_p.png,4.121,,,,,
,,,,32322,001,2025-12-02_17h27.00.954,HW_LDT_1,2024.2.4,MacIntel,58.82352941,,,,,,,,,,,,,,,,,,,,,,126.576,126.774,126.774,127.274,,,,,,,,,,,,,,2.688,1,,,,,,,,,,,,,,z,,,,,,,,,,,,,,,,7,1,127.275,129.974,z,1,2.688,,[],[],[],[],[],[],[],129.974,131.974,131.974,138.358,[],[],[],[],[],[],[],m,138.358,138.358,-0.034444444,-0.382222222,0,0,0,,0,6,6,35,1,2,RL,vesofity,print,vesofity_p.png,6.372,,,,,
,,,,32322,001,2025-12-02_17h27.00.954,HW_LDT_1,2024.2.4,MacIntel,58.82352941,,,,,,,,,,,,,,,,,,,,,,138.36,138.558,138.558,139.058,,,,,,,,,,,,,,2.628,1,,,,,,,,,,,,,,m,,,,,,,,,,,,,,,,8,0,139.058,141.691,m,1,2.628,,[],[],[],[],[],[],[],141.691,143.691,143.691,143.692,[],[],[],[],[],[],[],,143.692,143.692,-0.034444444,-0.382222222,0,0,0,,0,7,7,151,1,2,word,SPECIFIC,print,specific_p.png,,,,,,
,,,,32322,001,2025-12-02_17h27.00.954,HW_LDT_1,2024.2.4,MacIntel,58.82352941,,,,,,,,,,,,,,,,,,,,,,143.693,143.891,143.891,144.391,,,,,,,,,,,,,,3.979,1,,,,,,,,,,,,,,z,,,,,,,,,,,,,,,,9,0,144.392,148.375,z,1,3.979,,[],[],[],[],[],[],[],148.375,150.375,150.375,150.375,[],[],[],[],[],[],[],,150.375,150.375,-0.034444444,-0.382222222,0,0,0,,0,8,8,61,1,2,TL,nuremical,cursive,nuremical_c.png,,,,,,
,,,,32322,001,2025-12-02_17h27.00.954,HW_LDT_1,2024.2.4,MacIntel,58.82352941,,,,,,,,,,,,,,,,,,,,,,150.377,150.575,150.575,151.075,,,,,,,,,,,,,,3.647,1,,,,,,,,,,,,,,z,,,,,,,,,,,,,,,,10,1,151.075,154.726,z,1,3.647,,[],[],[],[],[],[],[],154.726,156.725,156.725,163.492,[],[],[],[],[],[],[],m,163.493,163.493,-0.034444444,-0.382222222,0,0,0,,0,9,9,32,1,2,RL,speniven,print,speniven_p.png,6.755,,,,,
,,,,32322,001,2025-12-02_17h27.00.954,HW_LDT_1,2024.2.4,MacIntel,58.82352941,,,,,,,,,,,,,,,,,,,,,,163.494,163.692,163.692,164.192,,,,,,,,,,,,,,3.009,1,,,,,,,,,,,,,,m,,,,,,,,,,,,,,,,11,0,164.192,167.208,m,1,3.009,,[],[],[],[],[],[],[],167.208,169.209,169.209,169.209,[],[],[],[],[],[],[],,169.21,169.21,-0.034444444,-0.382222222,0,0,0,,0,10,10,124,1,2,word,NUMERICAL,cursive,numerical_c.png,,,,,,
,,,,32322,001,2025-12-02_17h27.00.954,HW_LDT_1,2024.2.4,MacIntel,58.82352941,,,,,,,,,,,,,,,,,,,,,,169.211,169.409,169.409,169.909,,,,,,,,,,,,,,3.688,1,,,,,,,,,,,,,,z,,,,,,,,,,,,,,,,12,0,169.909,173.609,z,1,3.688,,[],[],[],[],[],[],[],173.609,175.609,175.61,175.611,[],[],[],[],[],[],[],,175.611,175.612,-0.034444444,-0.382222222,0,0,0,,0,11,11,19,1,2,RL,monebate,cursive,monebate_c.png,,,,,,
,,,,32322,001,2025-12-02_17h27.00.954,HW_LDT_1,2024.2.4,MacIntel,58.82352941,,,,,,,,,,,,,,,,,,,,,,175.614,175.809,175.809,176.309,,,,,,,,,,,,,,1.321,1,,,,,,,,,,,,,,m,,,,,,,,,,,,,,,,13,0,176.31,177.643,m,1,1.321,,[],[],[],[],[],[],[],177.643,179.642,179.642,179.643,[],[],[],[],[],[],[],,179.643,179.643,-0.034444444,-0.382222222,0,0,0,,0,12,12,145,1,2,word,RESUME,cursive,resume_c.png,,,,,,
,,,,32322,001,2025-12-02_17h27.00.954,HW_LDT_1,2024.2.4,MacIntel,58.82352941,,,,,,,,,,,,,,,,,,,,,,179.644,179.842,179.843,180.343,,,,,,,,,,,,,,11.808,1,,,,,,,,,,,,,,z,,,,,,,,,,,,,,,,14,0,180.343,192.16,z,1,11.808,,[],[],[],[],[],[],[],192.16,194.159,194.159,194.16,[],[],[],[],[],[],[],,194.16,194.16,-0.012222222,-0.367777778,0,0,0,,0,13,13,13,1,2,RL,helicage,print,helicage_p.png,,,,,,
,,,,32322,001,2025-12-02_17h27.00.954,HW_LDT_1,2024.2.4,MacIntel,58.82352941,,,,,,,,,,,,,,,,,,,,,,194.161,194.359,194.359,194.861,,,,,,,,,,,,,,3.457,1,,,,,,,,,,,,,,m,,,,,,,,,,,,,,,,15,0,194.862,198.326,m,1,3.457,,[],[],[],[],[],[],[],198.326,200.326,200.327,200.327,[],[],[],[],[],[],[],,200.327,200.328,0.107777778,0.148888889,0,0,0,,0,14,14,83,1,2,word,ANIMAL,print,animal_p.png,,,,,,
,,,,32322,001,2025-12-02_17h27.00.954,HW_LDT_1,2024.2.4,MacIntel,58.82352941,,,,,,,,,,,,,,,,,,,,,,200.33,200.527,200.527,201.026,,,,,,,,,,,,,,8.111,1,,,,,,,,,,,,,,z,,,,,,,,,,,,,,,,16,0,201.027,209.143,z,1,8.111,,[],[],[],[],[],[],[],209.143,211.143,211.144,211.144,[],[],[],[],[],[],[],,211.144,211.145,0.107777778,0.148888889,0,0,0,,0,15,15,18,1,2,RL,mesibine,print,mesibine_p.png,,,,,,
,,,,32322,001,2025-12-02_17h27.00.954,HW_LDT_1,2024.2.4,MacIntel,58.82352941,,,,,,,,,,,,,,,,,,,,,,211.146,211.344,211.344,211.843,,,,,,,,,,,,,,1.577,1,,,,,,,,,,,,,,m,,,,,,,,,,,,,,,,17,0,211.843,213.427,m,1,1.577,,[],[],[],[],[],[],[],213.427,215.427,215.427,215.428,[],[],[],[],[],[],[],,215.428,215.428,0.107777778,0.148888889,0,0,0,,0,16,16,158,1,2,word,VELOCITY,print,velocity_p.png,,,,,,
,,,,32322,001,2025-12-02_17h27.00.954,HW_LDT_1,2024.2.4,MacIntel,58.82352941,,,,,,,,,,,,,,,,,,,,,,215.43,215.627,215.627,216.127,,,,,,,,,,,,,,1.988,1,,,,,,,,,,,,,,z,,,,,,,,,,,,,,,,18,0,216.128,218.127,z,1,1.988,,[],[],[],[],[],[],[],218.127,220.127,220.127,220.128,[],[],[],[],[],[],[],,220.128,220.129,0.107777778,0.148888889,0,0,0,,0,17,17,6,1,2,RL,conbicer,print,conbicer_p.png,,,,,,
,,,,32322,001,2025-12-02_17h27.00.954,HW_LDT_1,2024.2.4,MacIntel,58.82352941,,,,,,,,,,,,,,,,,,,,,,220.13,220.327,220.327,220.827,,,,,,,,,,,,,,14.722,1,,,,,,,,,,,,,,z,,,,,,,,,,,,,,,,19,0,220.828,235.561,z,1,14.722,,[],[],[],[],[],[],[],235.561,237.561,237.561,237.562,[],[],[],[],[],[],[],,237.562,237.563,0.107777778,0.148888889,0,0,0,,0,18,18,44,1,2,TL,catipal,cursive,catipal_c.png,,,,,,
,,,,32322,001,2025-12-02_17h27.00.954,HW_LDT_1,2024.2.4,MacIntel,58.82352941,,,,,,,,,,,,,,,,,,,,,,237.564,237.761,237.761,238.261,,,,,,,,,,,,,,2.376,1,,,,,,,,,,,,,,m,,,,,,,,,,,,,,,,20,1,238.262,240.644,m,1,2.376,,[],[],[],[],[],[],[],240.644,242.645,242.645,254.862,[],[],[],[],[],[],[],z,254.862,254.863,0.107777778,0.148888889,0,0,0,,0,19,19,127,1,2,word,ORIGINAL,print,original_p.png,12.206,,,,,
,,,,32322,001,2025-12-02_17h27.00.954,HW_LDT_1,2024.2.4,MacIntel,58.82352941,,,,,,,,,,,,,,,,,,,,,,254.864,255.062,255.062,255.562,,,,,,,,,,,,,,5.943,1,,,,,,,,,,,,,,m,,,,,,,,,,,,,,,,21,0,255.562,261.512,m,1,5.943,,[],[],[],[],[],[],[],261.512,263.511,263.511,263.512,[],[],[],[],[],[],[],,263.512,263.512,0.107777778,0.148888889,0,0,0,,0,20,20,132,1,2,word,PROPOSAL,cursive,proposal_c.png,,,,,,
,,,,32322,001,2025-12-02_17h27.00.954,HW_LDT_1,2024.2.4,MacIntel,58.82352941,,,,,,,,,,,,,,,,,,,,,,263.514,263.712,263.712,264.212,,,,,,,,,,,,,,2.144,1,,,,,,,,,,,,,,z,,,,,,,,,,,,,,,,22,0,264.213,266.362,z,1,2.144,,[],[],[],[],[],[],[],266.362,268.362,268.362,268.363,[],[],[],[],[],[],[],,268.363,268.364,0.107777778,0.148888889,0,0,0,,0,21,21,16,1,2,RL,losipal,print,losipal_p.png,,,,,,
,,,,32322,001,2025-12-02_17h27.00.954,HW_LDT_1,2024.2.4,MacIntel,58.82352941,,,,,,,,,,,,,,,,,,,,,,268.365,268.562,268.562,269.062,,,,,,,,,,,,,,1.038,1,,,,,,,,,,,,,,z,,,,,,,,,,,,,,,,23,0,269.063,270.112,z,1,1.038,,[],[],[],[],[],[],[],270.112,272.113,272.113,272.114,[],[],[],[],[],[],[],,272.115,272.115,0.107777778,0.148888889,0,0,0,,0,22,22,58,1,2,TL,mitilary,cursive,mitilary_c.png,,,,,,
,,,,32322,001,2025-12-02_17h27.00.954,HW_LDT_1,2024.2.4,MacIntel,58.82352941,,,,,,,,,,,,,,,,,,,,,,272.117,272.312,272.312,272.813,,,,,,,,,,,,,,0.911,1,,,,,,,,,,,,,,z,,,,,,,,,,,,,,,,24,0,272.814,273.729,z,1,0.911,,[],[],[],[],[],[],[],273.73,275.729,275.729,275.73,[],[],[],[],[],[],[],,275.73,275.731,0.107777778,0.148888889,0,0,0,,0,23,23,41,1,2,TL,befenit,cursive,befenit_c.png,,,,,,
,,,,32322,001,2025-12-02_17h27.00.954,HW_LDT_1,2024.2.4,MacIntel,58.82352941,,,,,,,,,,,,,,,,,,,,,,275.733,275.929,275.929,276.429,,,,,,,,,,,,,,1.392,1,,,,,,,,,,,,,,m,,,,,,,,,,,,,,,,25,0,276.43,277.829,m,1,1.392,,[],[],[],[],[],[],[],277.829,279.829,279.829,279.83,[],[],[],[],[],[],[],,279.83,279.83,0.107777778,0.148888889,0,0,0,,0,24,24,156,1,2,word,TRIBUTE,cursive,tribute_c.png,,,,,,
,,,,32322,001,2025-12-02_17h27.00.954,HW_LDT_1,2024.2.4,MacIntel,58.82352941,,,,,,,,,,,,,,,,,,,,,,279.832,280.029,280.029,280.529,,,,,,,,,,,,,,1.123,1,,,,,,,,,,,,,,m,,,,,,,,,,,,,,,,26,1,280.53,281.662,m,1,1.123,,[],[],[],[],[],[],[],281.663,283.663,283.663,286.231,[],[],[],[],[],[],[],z,286.231,286.231,0.107777778,0.148888889,0,0,0,,0,25,25,87,1,2,word,CAFETERIA,print,cafeteria_p.png,2.564,,,,,
,,,,32322,001,2025-12-02_17h27.00.954,HW_LDT_1,2024.2.4,MacIntel,58.82352941,,,,,,,,,,,,,,,,,,,,,,286.232,286.429,286.429,286.929,,,,,,,,,,,,,,0.923,0,,,,,,,,,,,,,,z,,,,,,,,,,,,,,,,27,0,286.931,287.863,m,0,0.923,,[],[],[],[],[],[],[],287.863,289.863,289.863,289.864,[],[],[],[],[],[],[],,289.864,289.864,0.107777778,0.148888889,0,0,0,,0,26,26,57,1,2,TL,meromy,cursive,meromy_c.png,,,,,,
,,,,32322,001,2025-12-02_17h27.00.954,HW_LDT_1,2024.2.4,MacIntel,58.82352941,,,,,,,,,,,,,,,,,,,,,,289.865,290.062,290.063,290.563,,,,,,,,,,,,,,1.97,1,,,,,,,,,,,,,,m,,,,,,,,,,,,,,,,28,0,290.564,292.546,m,1,1.97,,[],[],[],[],[],[],[],292.546,294.546,294.547,294.547,[],[],[],[],[],[],[],,294.547,294.547,0.107777778,0.148888889,0,0,0,,0,27,27,109,1,2,word,GRATEFUL,cursive,grateful_c.png,,,,,,
,,,,32322,001,2025-12-02_17h27.00.954,HW_LDT_1,2024.2.4,MacIntel,58.82352941,,,,,,,,,,,,,,,,,,,,,,294.548,294.746,294.746,295.245,,,,,,,,,,,,,,1.497,0,,,,,,,,,,,,,,m,,,,,,,,,,,,,,,,29,0,295.246,296.747,z,0,1.497,,[],[],[],[],[],[],[],296.747,298.747,298.747,298.747,[],[],[],[],[],[],[],,298.748,298.748,0.107777778,0.148888889,0,0,0,,0,28,28,126,1,2,word,OPTIMAL,cursive,optimal_c.png,,,,,,
,,,,32322,001,2025-12-02_17h27.00.954,HW_LDT_1,2024.2.4,MacIntel,58.82352941,,,,,,,,,,,,,,,,,,,,,,298.749,298.947,298.947,299.446,,,,,,,,,,,,,,3.322,1,,,,,,,,,,,,,,z,,,,,,,,,,,,,,,,30,0,299.447,302.78,z,1,3.322,,[],[],[],[],[],[],[],302.78,304.78,304.78,304.781,[],[],[],[],[],[],[],,304.781,304.782,0.107777778,0.148888889,0,0,0,,0,29,29,25,1,2,RL,rabigly,print,rabigly_p.png,,,,,,
,,,,32322,001,2025-12-02_17h27.00.954,HW_LDT_1,2024.2.4,MacIntel,58.82352941,,,,,,,,,,,,,,,,,,,,,,304.783,304.98,304.98,305.48,,,,,,,,,,,,,,0.772,1,,,,,,,,,,,,,,z,,,,,,,,,,,,,,,,31,0,305.48,306.264,z,1,0.772,,[],[],[],[],[],[],[],306.264,308.264,308.264,308.264,[],[],[],[],[],[],[],,308.264,308.264,0.107777778,0.148888889,0,0,0,,0,30,30,55,1,2,TL,lotace,print,lotace_p.png,,,,,,
,,,,32322,001,2025-12-02_17h27.00.954,HW_LDT_1,2024.2.4,MacIntel,58.82352941,,,,,,,,,,,,,,,,,,,,,,308.266,308.463,308.464,308.963,,,,,,,,,,,,,,1.005,0,,,,,,,,,,,,,,z,,,,,,,,,,,,,,,,32,0,308.963,309.979,m,0,1.005,,[],[],[],[],[],[],[],309.98,311.981,311.981,311.982,[],[],[],[],[],[],[],,311.982,311.982,0.107777778,0.148888889,0,0,0,,0,31,31,68,1,2,TL,quatily,cursive,quatily_c.png,,,,,,
,,,,32322,001,2025-12-02_17h27.00.954,HW_LDT_1,2024.2.4,MacIntel,58.82352941,,,,,,,,,,,,,,,,,,,,,,311.983,312.18,312.18,312.68,,,,,,,,,,,,,,1.905,1,,,,,,,,,,,,,,m,,,,,,,,,,,,,,,,33,0,312.681,314.597,m,1,1.905,,[],[],[],[],[],[],[],314.598,316.597,316.597,316.598,[],[],[],[],[],[],[],,316.598,316.598,0.107777778,0.148888889,0,0,0,,0,32,32,152,1,2,word,SPECIMEN,print,specimen_p.png,,,,,,
,,,,32322,001,2025-12-02_17h27.00.954,HW_LDT_1,2024.2.4,MacIntel,58.82352941,,,,,,,,,,,,,,,,,,,,,,316.599,316.797,316.797,317.297,,,,,,,,,,,,,,4.488,0,,,,,,,,,,,,,,z,,,,,,,,,,,,,,,,34,1,317.298,321.797,m,0,4.488,,[],[],[],[],[],[],[],321.798,323.797,323.798,328.564,[],[],[],[],[],[],[],z,328.564,328.565,0.107777778,0.148888889,0,0,0,,0,33,33,40,1,2,TL,bevoled,cursive,bevoled_c.png,4.758,,,,,
,,,,32322,001,2025-12-02_17h27.00.954,HW_LDT_1,2024.2.4,MacIntel,58.82352941,,,,,,,,,,,,,,,,,,,,,,328.566,328.763,328.763,329.264,,,,,,,,,,,,,,1.809,0,,,,,,,,,,,,,,m,,,,,,,,,,,,,,,,35,0,329.265,331.081,z,0,1.809,,[],[],[],[],[],[],[],331.081,333.081,333.081,333.081,[],[],[],[],[],[],[],,333.082,333.082,0.107777778,0.148888889,0,0,0,,0,34,34,146,1,2,word,RETIRE,cursive,retire_c.png,,,,,,
,,,,32322,001,2025-12-02_17h27.00.954,HW_LDT_1,2024.2.4,MacIntel,58.82352941,,,,,,,,,,,,,,,,,,,,,,333.083,333.281,333.281,333.781,,,,,,,,,,,,,,9.704,1,,,,,,,,,,,,,,z,,,,,,,,,,,,,,,,36,0,333.782,343.498,z,1,9.704,,[],[],[],[],[],[],[],343.499,345.498,345.498,345.499,[],[],[],[],[],[],[],,345.499,345.499,0.107777778,0.148888889,0,0,0,,0,35,35,74,1,2,TL,rerite,cursive,rerite_c.png,,,,,,
,,,,32322,001,2025-12-02_17h27.00.954,HW_LDT_1,2024.2.4,MacIntel,58.82352941,,,,,,,,,,,,,,,,,,,,,,345.501,345.698,345.698,346.198,,,,,,,,,,,,,,1.905,1,,,,,,,,,,,,,,m,,,,,,,,,,,,,,,,37,0,346.199,348.115,m,1,1.905,,[],[],[],[],[],[],[],348.115,350.115,350.115,350.116,[],[],[],[],[],[],[],,350.116,350.116,0.107777778,0.148888889,0,0,0,,0,36,36,82,1,2,word,AMATEUR,cursive,amateur_c.png,,,,,,
,,,,32322,001,2025-12-02_17h27.00.954,HW_LDT_1,2024.2.4,MacIntel,58.82352941,,,,,,,,,,,,,,,,,,,,,,350.117,350.315,350.315,350.815,,,,,,,,,,,,,,1.855,1,,,,,,,,,,,,,,m,,,,,,,,,,,,,,,,38,0,350.816,352.682,m,1,1.855,,[],[],[],[],[],[],[],352.682,354.682,354.682,354.682,[],[],[],[],[],[],[],,354.682,354.683,0.107777778,0.148888889,0,0,0,,0,37,37,108,1,2,word,FORTUNE,print,fortune_p.png,,,,,,
,,,,32322,001,2025-12-02_17h27.00.954,HW_LDT_1,2024.2.4,MacIntel,58.82352941,,,,,,,,,,,,,,,,,,,,,,354.683,354.882,354.882,355.382,,,,,,,,,,,,,,0.912,1,,,,,,,,,,,,,,m,,,,,,,,,,,,,,,,39,0,355.383,356.299,m,1,0.912,,[],[],[],[],[],[],[],356.299,358.299,358.299,358.299,[],[],[],[],[],[],[],,358.299,358.299,0.107777778,0.148888889,0,0,0,,0,38,38,131,1,2,word,POPULAR,cursive,popular_c.png,,,,,,
,,,,32322,001,2025-12-02_17h27.00.954,HW_LDT_1,2024.2.4,MacIntel,58.82352941,,,,,,,,,,,,,,,,,,,,,,358.301,358.498,358.498,358.999,,,,,,,,,,,,,,1.404,1,,,,,,,,,,,,,,m,,,,,,,,,,,,,,,,40,1,359,360.415,m,1,1.404,,[],[],[],[],[],[],[],360.415,362.416,362.416,363.699,[],[],[],[],[],[],[],z,363.699,363.7,0.107777778,0.148888889,0,0,0,,0,39,39,80,1,2,word,ACADEMY,cursive,academy_c.png,1.272,,,,,
,,,,32322,001,2025-12-02_17h27.00.954,HW_LDT_1,2024.2.4,MacIntel,58.82352941,,,,,,,,,,,,,,,,,,,,,,363.702,363.899,363.899,364.399,,,,,,,,,,,,,,3.353,0,,,,,,,,,,,,,,z,,,,,,,,,,,,,,,,41,1,364.4,367.765,m,0,3.353,,[],[],[],[],[],[],[],367.766,369.766,369.766,371.732,[],[],[],[],[],[],[],z,371.732,371.733,0.107777778,0.148888889,0,0,0,,0,40,40,27,1,2,RL,repifion,cursive,repifion_c.png,1.959,,,,,
,,,,32322,001,2025-12-02_17h27.00.954,HW_LDT_1,2024.2.4,MacIntel,58.82352941,,,,,,,,,,,,,,,,,,,,,,371.734,371.933,371.933,372.432,,,,,,,,,,,,,,1.825,1,,,,,,,,,,,,,,z,,,,,,,,,,,,,,,,42,0,372.433,374.266,z,1,1.825,,[],[],[],[],[],[],[],374.266,376.265,376.265,376.266,[],[],[],[],[],[],[],,376.266,376.267,0.107777778,0.148888889,0,0,0,,0,41,41,38,1,2,TL,atameur,cursive,atameur_c.png,,,,,,
,,,,32322,001,2025-12-02_17h27.00.954,HW_LDT_1,2024.2.4,MacIntel,58.82352941,,,,,,,,,,,,,,,,,,,,,,376.269,376.466,376.466,376.965,,,,,,,,,,,,,,0.725,1,,,,,,,,,,,,,,m,,,,,,,,,,,,,,,,43,0,376.966,377.699,m,1,0.725,,[],[],[],[],[],[],[],377.699,379.699,379.699,379.7,[],[],[],[],[],[],[],,379.7,379.7,0.107777778,0.148888889,0,0,0,,0,42,42,157,1,2,word,VALIDITY,print,validity_p.png,,,,,,
,,,,32322,001,2025-12-02_17h27.00.954,HW_LDT_1,2024.2.4,MacIntel,58.82352941,,,,,,,,,,,,,,,,,,,,,,379.701,379.899,379.899,380.399,,,,,,,,,,,,,,2.607,1,,,,,,,,,,,,,,z,,,,,,,,,,,,,,,,44,0,380.4,383.016,z,1,2.607,,[],[],[],[],[],[],[],383.016,385.016,385.016,385.017,[],[],[],[],[],[],[],,385.017,385.017,0.107777778,0.148888889,0,0,0,,0,43,43,31,1,2,RL,spetisic,print,spetisic_p.png,,,,,,
,,,,32322,001,2025-12-02_17h27.00.954,HW_LDT_1,2024.2.4,MacIntel,58.82352941,,,,,,,,,,,,,,,,,,,,,,385.019,385.216,385.216,385.716,,,,,,,,,,,,,,1.362,1,,,,,,,,,,,,,,m,,,,,,,,,,,,,,,,45,1,385.717,387.083,m,1,1.362,,[],[],[],[],[],[],[],387.083,389.082,389.082,391.5,[],[],[],[],[],[],[],z,391.5,391.5,0.107777778,0.148888889,0,0,0,,0,44,44,137,1,2,word,RAPIDLY,print,rapidly_p.png,2.409,,,,,
,,,,32322,001,2025-12-02_17h27.00.954,HW_LDT_1,2024.2.4,MacIntel,58.82352941,,,,,,,,,,,,,,,,,,,,,,391.501,391.7,391.7,392.2,,,,,,,,,,,,,,1.306,0,,,,,,,,,,,,,,m,,,,,,,,,,,,,,,,46,0,392.2,393.517,z,0,1.306,,[],[],[],[],[],[],[],393.517,395.516,395.516,395.517,[],[],[],[],[],[],[],,395.517,395.517,0.107777778,0.148888889,0,0,0,,0,45,45,85,1,2,word,BENEFIT,cursive,benefit_c.png,,,,,,
,,,,32322,001,2025-12-02_17h27.00.954,HW_LDT_1,2024.2.4,MacIntel,58.82352941,,,,,,,,,,,,,,,,,,,,,,395.518,395.717,395.717,396.217,,,,,,,,,,,,,,2.191,0,,,,,,,,,,,,,,m,,,,,,,,,,,,,,,,47,0,396.217,398.417,z,0,2.191,,[],[],[],[],[],[],[],398.417,400.417,400.417,400.417,[],[],[],[],[],[],[],,400.418,400.418,0.107777778,0.148888889,0,0,0,,0,46,46,90,1,2,word,CAPITAL,cursive,capital_c.png,,,,,,
,,,,32322,001,2025-12-02_17h27.00.954,HW_LDT_1,2024.2.4,MacIntel,58.82352941,,,,,,,,,,,,,,,,,,,,,,400.42,400.617,400.617,401.117,,,,,,,,,,,,,,6.175,1,,,,,,,,,,,,,,z,,,,,,,,,,,,,,,,48,0,401.118,407.3,z,1,6.175,,[],[],[],[],[],[],[],407.301,409.3,409.301,409.301,[],[],[],[],[],[],[],,409.301,409.302,0.107777778,0.148888889,0,0,0,,0,47,47,15,1,2,RL,linedal,print,linedal_p.png,,,,,,
,,,,32322,001,2025-12-02_17h27.00.954,HW_LDT_1,2024.2.4,MacIntel,58.82352941,,,,,,,,,,,,,,,,,,,,,,409.303,409.5,409.501,410,,,,,,,,,,,,,,2.309,1,,,,,,,,,,,,,,z,,,,,,,,,,,,,,,,49,0,410.001,412.317,z,1,2.309,,[],[],[],[],[],[],[],412.317,414.317,414.317,414.318,[],[],[],[],[],[],[],,414.318,414.318,0.107777778,0.148888889,0,0,0,,0,48,48,7,1,2,RL,cocewage,cursive,cocewage_c.png,,,,,,
,,,,32322,001,2025-12-02_17h27.00.954,HW_LDT_1,2024.2.4,MacIntel,58.82352941,,,,,,,,,,,,,,,,,,,,,,414.319,414.517,414.517,415.017,,,,,,,,,,,,,,1.773,1,,,,,,,,,,,,,,m,,,,,,,,,,,,,,,,50,0,415.018,416.801,m,1,1.773,,[],[],[],[],[],[],[],416.801,418.801,418.801,418.801,[],[],[],[],[],[],[],,418.801,418.802,0.107777778,0.148888889,0,0,0,,0,49,49,154,1,2,word,STORAGE,print,storage_p.png,,,,,,
,,,,32322,001,2025-12-02_17h27.00.954,HW_LDT_1,2024.2.4,MacIntel,58.82352941,,,,,,,,,,,,,,,,,,,,,,418.803,419.001,419.001,419.501,,,,,,,,,,,,,,2.305,1,,,,,,,,,,,,,,z,,,,,,,,,,,,,,,,51,0,419.501,421.818,z,1,2.305,,[],[],[],[],[],[],[],421.818,423.818,423.818,423.818,[],[],[],[],[],[],[],,423.818,423.819,0.107777778,0.148888889,0,0,0,,0,50,50,72,1,2,TL,revomal,print,revomal_p.png,,,,,,
,,,,32322,001,2025-12-02_17h27.00.954,HW_LDT_1,2024.2.4,MacIntel,58.82352941,,,,,,,,,,,,,,,,,,,,,,423.82,424.017,424.018,424.518,,,,,,,,,,,,,,18.409,1,,,,,,,,,,,,,,z,,,,,,,,,,,,,,,,52,0,424.518,442.935,z,1,18.409,,[],[],[],[],[],[],[],442.935,444.935,444.935,444.936,[],[],[],[],[],[],[],,444.936,444.937,0.107777778,0.148888889,0,0,0,,0,51,51,26,1,2,RL,retupar,cursive,retupar_c.png,,,,,,
,,,,32322,001,2025-12-02_17h27.00.954,HW_LDT_1,2024.2.4,MacIntel,58.82352941,,,,,,,,,,,,,,,,,,,,,,444.938,445.135,445.135,445.635,,,,,,,,,,,,,,2.105,1,,,,,,,,,,,,,,z,,,,,,,,,,,,,,,,53,0,445.635,447.752,z,1,2.105,,[],[],[],[],[],[],[],447.752,449.752,449.752,449.753,[],[],[],[],[],[],[],,449.753,449.754,0.107777778,0.148888889,0,0,0,,0,52,52,69,1,2,TL,resufal,cursive,resufal_c.png,,,,,,
,,,,32322,001,2025-12-02_17h27.00.954,HW_LDT_1,2024.2.4,MacIntel,58.82352941,,,,,,,,,,,,,,,,,,,,,,449.755,449.952,449.952,450.452,,,,,,,,,,,,,,2.191,1,,,,,,,,,,,,,,m,,,,,,,,,,,,,,,,54,1,450.452,452.652,m,1,2.191,,[],[],[],[],[],[],[],452.652,454.652,454.652,458.518,[],[],[],[],[],[],[],z,458.518,458.518,0.107777778,0.148888889,0,0,0,,0,53,53,110,1,2,word,HERITAGE,print,heritage_p.png,3.855,,,,,
,,,,32322,001,2025-12-02_17h27.00.954,HW_LDT_1,2024.2.4,MacIntel,58.82352941,,,,,,,,,,,,,,,,,,,,,,458.52,458.719,458.719,459.219,,,,,,,,,,,,,,8.854,0,,,,,,,,,,,,,,m,,,,,,,,,,,,,,,,55,0,459.219,468.086,z,0,8.854,,[],[],[],[],[],[],[],468.086,470.086,470.086,470.087,[],[],[],[],[],[],[],,470.087,470.087,0.107777778,0.148888889,0,0,0,,0,54,54,86,1,2,word,BESIDE,cursive,beside_c.png,,,,,,
,,,,32322,001,2025-12-02_17h27.00.954,HW_LDT_1,2024.2.4,MacIntel,58.82352941,,,,,,,,,,,,,,,,,,,,,,470.088,470.286,470.286,470.786,,,,,,,,,,,,,,2.42,1,,,,,,,,,,,,,,m,,,,,,,,,,,,,,,,56,1,470.787,473.219,m,1,2.42,,[],[],[],[],[],[],[],473.219,475.219,475.219,476.304,[],[],[],[],[],[],[],z,476.304,476.304,0.107777778,0.148888889,0,0,0,,0,55,55,96,1,2,word,CONSIDER,print,consider_p.png,1.081,,,,,
,,,,32322,001,2025-12-02_17h27.00.954,HW_LDT_1,2024.2.4,MacIntel,58.82352941,,,,,,,,,,,,,,,,,,,,,,476.305,476.503,476.503,477.003,,,,,,,,,,,,,,1.105,1,,,,,,,,,,,,,,z,,,,,,,,,,,,,,,,57,0,477.003,478.119,z,1,1.105,,[],[],[],[],[],[],[],478.12,480.12,480.12,480.12,[],[],[],[],[],[],[],,480.12,480.121,0.107777778,0.148888889,0,0,0,,0,56,56,77,1,2,TL,sloten,print,sloten_p.png,,,,,,
,,,,32322,001,2025-12-02_17h27.00.954,HW_LDT_1,2024.2.4,MacIntel,58.82352941,,,,,,,,,,,,,,,,,,,,,,480.122,480.319,480.319,480.819,,,,,,,,,,,,,,1.244,1,,,,,,,,,,,,,,z,,,,,,,,,,,,,,,,58,0,480.82,482.07,z,1,1.244,,[],[],[],[],[],[],[],482.07,484.07,484.07,484.07,[],[],[],[],[],[],[],,484.07,484.071,0.107777778,0.148888889,0,0,0,,0,57,57,4,1,2,RL,cenesony,print,cenesony_p.png,,,,,,
,,,,32322,001,2025-12-02_17h27.00.954,HW_LDT_1,2024.2.4,MacIntel,58.82352941,,,,,,,,,,,,,,,,,,,,,,484.072,484.27,484.27,484.77,,,,,,,,,,,,,,0.988,1,,,,,,,,,,,,,,m,,,,,,,,,,,,,,,,59,0,484.77,485.77,m,1,0.988,,[],[],[],[],[],[],[],485.77,487.769,487.769,487.77,[],[],[],[],[],[],[],,487.77,487.77,0.107777778,0.148888889,0,0,0,,0,58,58,130,1,2,word,POLICY,print,policy_p.png,,,,,,
,,,,32322,001,2025-12-02_17h27.00.954,HW_LDT_1,2024.2.4,MacIntel,58.82352941,,,,,,,,,,,,,,,,,,,,,,487.772,487.97,487.97,488.469,,,,,,,,,,,,,,1.66,0,,,,,,,,,,,,,,z,,,,,,,,,,,,,,,,60,1,488.47,490.136,m,0,1.66,,[],[],[],[],[],[],[],490.137,492.136,492.137,493.236,[],[],[],[],[],[],[],z,493.236,493.236,0.107777778,0.148888889,0,0,0,,0,59,59,76,1,2,TL,senmitent,cursive,senmitent_c.png,1.092,,,,,
,,,,32322,001,2025-12-02_17h27.00.954,HW_LDT_1,2024.2.4,MacIntel,58.82352941,,,,,,,,,,,,,,,,,,,,,,493.237,493.436,493.436,493.936,,,,,,,,,,,,,,0.71,1,,,,,,,,,,,,,,z,,,,,,,,,,,,,,,,61,0,493.936,494.653,z,1,0.71,,[],[],[],[],[],[],[],494.653,496.653,496.653,496.654,[],[],[],[],[],[],[],,496.654,496.654,0.107777778,0.148888889,0,0,0,,0,60,60,24,1,2,RL,rasibal,cursive,rasibal_c.png,,,,,,
,,,,32322,001,2025-12-02_17h27.00.954,HW_LDT_1,2024.2.4,MacIntel,58.82352941,,,,,,,,,,,,,,,,,,,,,,496.655,496.853,496.853,497.353,,,,,,,,,,,,,,0.84,1,,,,,,,,,,,,,,z,,,,,,,,,,,,,,,,62,0,497.354,498.203,z,1,0.84,,[],[],[],[],[],[],[],498.203,500.203,500.203,500.204,[],[],[],[],[],[],[],,500.204,500.204,0.107777778,0.148888889,0,0,0,,0,61,61,59,1,2,TL,miskate,cursive,miskate_c.png,,,,,,
,,,,32322,001,2025-12-02_17h27.00.954,HW_LDT_1,2024.2.4,MacIntel,58.82352941,,,,,,,,,,,,,,,,,,,,,,500.205,500.403,500.403,500.903,,,,,,,,,,,,,,2.623,1,,,,,,,,,,,,,,m,,,,,,,,,,,,,,,,63,0,500.904,503.537,m,1,2.623,,[],[],[],[],[],[],[],503.537,505.537,505.537,505.537,[],[],[],[],[],[],[],,505.537,505.538,0.107777778,0.148888889,0,0,0,,0,62,62,147,1,2,word,ROMANTIC,print,romantic_p.png,,,,,,
,,,,32322,001,2025-12-02_17h27.00.954,HW_LDT_1,2024.2.4,MacIntel,58.82352941,,,,,,,,,,,,,,,,,,,,,,505.538,505.737,505.737,506.237,,,,,,,,,,,,,,1.94,1,,,,,,,,,,,,,,z,,,,,,,,,,,,,,,,64,0,506.238,508.187,z,1,1.94,,[],[],[],[],[],[],[],508.187,510.187,510.187,510.188,[],[],[],[],[],[],[],,510.188,510.188,0.107777778,0.148888889,0,0,0,,0,63,63,28,1,2,RL,revune,cursive,revune_c.png,,,,,,
,,,,32322,001,2025-12-02_17h27.00.954,HW_LDT_1,2024.2.4,MacIntel,58.82352941,,,,,,,,,,,,,,,,,,,,,,510.189,510.386,510.386,510.886,,,,,,,,,,,,,,0.83,1,,,,,,,,,,,,,,m,,,,,,,,,,,,,,,,65,0,510.887,511.722,m,1,0.83,,[],[],[],[],[],[],[],511.722,513.721,513.721,513.721,[],[],[],[],[],[],[],,513.721,513.721,0.107777778,0.148888889,0,0,0,,0,64,64,92,1,2,word,CATEGORY,print,category_p.png,,,,,,
,,,,32322,001,2025-12-02_17h27.00.954,HW_LDT_1,2024.2.4,MacIntel,58.82352941,,,,,,,,,,,,,,,,,,,,,,513.723,513.921,513.921,514.42,,,,,,,,,,,,,,1.426,1,,,,,,,,,,,,,,z,,,,,,,,,,,,,,,,66,0,514.421,515.854,z,1,1.426,,[],[],[],[],[],[],[],515.854,517.854,517.854,517.854,[],[],[],[],[],[],[],,517.854,517.855,0.107777778,0.148888889,0,0,0,,0,65,65,70,1,2,TL,retalive,print,retalive_p.png,,,,,,
,,,,32322,001,2025-12-02_17h27.00.954,HW_LDT_1,2024.2.4,MacIntel,58.82352941,,,,,,,,,,,,,,,,,,,,,,517.856,518.054,518.054,518.554,,,,,,,,,,,,,,0.922,1,,,,,,,,,,,,,,z,,,,,,,,,,,,,,,,67,0,518.554,519.487,z,1,0.922,,[],[],[],[],[],[],[],519.488,521.487,521.488,521.488,[],[],[],[],[],[],[],,521.488,521.488,0.107777778,0.148888889,0,0,0,,0,66,66,11,1,2,RL,formuke,print,formuke_p.png,,,,,,
,,,,32322,001,2025-12-02_17h27.00.954,HW_LDT_1,2024.2.4,MacIntel,58.82352941,,,,,,,,,,,,,,,,,,,,,,521.489,521.687,521.687,522.187,,,,,,,,,,,,,,0.987,1,,,,,,,,,,,,,,m,,,,,,,,,,,,,,,,68,0,522.188,523.188,m,1,0.987,,[],[],[],[],[],[],[],523.188,525.187,525.187,525.187,[],[],[],[],[],[],[],,525.188,525.188,0.107777778,0.148888889,0,0,0,,0,67,67,95,1,2,word,COMEDY,cursive,comedy_c.png,,,,,,
,,,,32322,001,2025-12-02_17h27.00.954,HW_LDT_1,2024.2.4,MacIntel,58.82352941,,,,,,,,,,,,,,,,,,,,,,525.189,525.388,525.388,525.888,,,,,,,,,,,,,,1.709,1,,,,,,,,,,,,,,z,,,,,,,,,,,,,,,,69,1,525.888,527.604,z,1,1.709,,[],[],[],[],[],[],[],527.604,529.604,529.605,531.321,[],[],[],[],[],[],[],z,531.321,531.321,0.107777778,0.148888889,0,0,0,,0,68,68,50,1,2,TL,donimant,print,donimant_p.png,1.708,,,,,
,,,,32322,001,2025-12-02_17h27.00.954,HW_LDT_1,2024.2.4,MacIntel,58.82352941,,,,,,,,,,,,,,,,,,,,,,531.322,531.521,531.521,532.021,,,,,,,,,,,,,,5.721,1,,,,,,,,,,,,,,m,,,,,,,,,,,,,,,,70,1,532.022,537.755,m,1,5.721,,[],[],[],[],[],[],[],537.755,539.755,539.755,545.405,[],[],[],[],[],[],[],z,545.405,545.406,0.107777778,0.148888889,0,0,0,,0,69,69,115,1,2,word,LOGICAL,print,logical_p.png,5.639,,,,,
,,,,32322,001,2025-12-02_17h27.00.954,HW_LDT_1,2024.2.4,MacIntel,58.82352941,,,,,,,,,,,,,,,,,,,,,,545.407,545.605,545.605,546.105,,,,,,,,,,,,,,8.006,1,,,,,,,,,,,,,,z,,,,,,,,,,,,,,,,71,0,546.106,554.122,z,1,8.006,,[],[],[],[],[],[],[],554.123,556.123,556.123,556.124,[],[],[],[],[],[],[],,556.124,556.125,0.107777778,0.148888889,0,0,0,,0,70,70,56,1,2,TL,marnigal,cursive,marnigal_c.png,,,,,,
,,,,32322,001,2025-12-02_17h27.00.954,HW_LDT_1,2024.2.4,MacIntel,58.82352941,,,,,,,,,,,,,,,,,,,,,,556.127,556.322,556.322,556.822,,,,,,,,,,,,,,1.47,1,,,,,,,,,,,,,,z,,,,,,,,,,,,,,,,72,1,556.823,558.306,z,1,1.47,,[],[],[],[],[],[],[],558.306,560.305,560.306,562.756,[],[],[],[],[],[],[],m,562.756,562.756,0.107777778,0.148888889,0,0,0,,0,71,71,17,1,2,RL,macise,cursive,macise_c.png,2.438,,,,,
,,,,32322,001,2025-12-02_17h27.00.954,HW_LDT_1,2024.2.4,MacIntel,58.82352941,,,,,,,,,,,,,,,,,,,,,,562.758,562.956,562.956,563.456,,,,,,,,,,,,,,0.954,1,,,,,,,,,,,,,,m,,,,,,,,,,,,,,,,73,0,563.456,564.422,m,1,0.954,,[],[],[],[],[],[],[],564.422,566.422,566.423,566.423,[],[],[],[],[],[],[],,566.423,566.424,0.107777778,0.148888889,0,0,0,,0,72,72,81,1,2,word,ADVISORY,print,advisory_p.png,,,,,,
,,,,32322,001,2025-12-02_17h27.00.954,HW_LDT_1,2024.2.4,MacIntel,58.82352941,,,,,,,,,,,,,,,,,,,,,,566.425,566.622,566.622,567.123,,,,,,,,,,,,,,6.142,0,,,,,,,,,,,,,,m,,,,,,,,,,,,,,,,74,1,567.123,573.273,z,0,6.142,,[],[],[],[],[],[],[],573.273,575.273,575.273,576.573,[],[],[],[],[],[],[],z,576.573,576.573,0.107777778,0.148888889,0,0,0,,0,73,73,123,1,2,word,MODERATE,cursive,moderate_c.png,1.29,,,,,
,,,,32322,001,2025-12-02_17h27.00.954,HW_LDT_1,2024.2.4,MacIntel,58.82352941,,,,,,,,,,,,,,,,,,,,,,576.574,576.773,576.773,577.273,,,,,,,,,,,,,,0.854,0,,,,,,,,,,,,,,z,,,,,,,,,,,,,,,,75,0,577.273,578.139,m,0,0.854,,[],[],[],[],[],[],[],578.14,580.14,580.14,580.14,[],[],[],[],[],[],[],,580.14,580.14,0.107777778,0.148888889,0,0,0,,0,74,74,3,1,2,RL,capefory,print,capefory_p.png,,,,,,
,,,,32322,001,2025-12-02_17h27.00.954,HW_LDT_1,2024.2.4,MacIntel,58.82352941,,,,,,,,,,,,,,,,,,,,,,580.142,580.339,580.339,580.84,,,,,,,,,,,,,,2.289,1,,,,,,,,,,,,,,z,,,,,,,,,,,,,,,,76,0,580.84,583.14,z,1,2.289,,[],[],[],[],[],[],[],583.14,585.14,585.14,585.14,[],[],[],[],[],[],[],,585.14,585.14,0.107777778,0.148888889,0,0,0,,0,75,75,53,1,2,TL,edivent,cursive,edivent_c.png,,,,,,
,,,,32322,001,2025-12-02_17h27.00.954,HW_LDT_1,2024.2.4,MacIntel,58.82352941,,,,,,,,,,,,,,,,,,,,,,585.142,585.339,585.34,585.84,,,,,,,,,,,,,,2.072,1,,,,,,,,,,,,,,m,,,,,,,,,,,,,,,,77,0,585.841,587.923,m,1,2.072,,[],[],[],[],[],[],[],587.923,589.923,589.923,589.924,[],[],[],[],[],[],[],,589.924,589.924,0.107777778,0.148888889,0,0,0,,0,76,76,148,1,2,word,SALINE,cursive,saline_c.png,,,,,,
,,,,32322,001,2025-12-02_17h27.00.954,HW_LDT_1,2024.2.4,MacIntel,58.82352941,,,,,,,,,,,,,,,,,,,,,,589.925,590.123,590.123,590.623,,,,,,,,,,,,,,0.972,1,,,,,,,,,,,,,,m,,,,,,,,,,,,,,,,78,0,590.624,591.606,m,1,0.972,,[],[],[],[],[],[],[],591.606,593.607,593.607,593.608,[],[],[],[],[],[],[],,593.608,593.609,0.107777778,0.148888889,0,0,0,,0,77,77,98,1,2,word,CRIMINAL,cursive,criminal_c.png,,,,,,
,,,,32322,001,2025-12-02_17h27.00.954,HW_LDT_1,2024.2.4,MacIntel,58.82352941,,,,,,,,,,,,,,,,,,,,,,593.61,593.807,593.807,594.306,,,,,,,,,,,,,,0.955,1,,,,,,,,,,,,,,m,,,,,,,,,,,,,,,,79,0,594.307,595.274,m,1,0.955,,[],[],[],[],[],[],[],595.274,597.273,597.274,597.274,[],[],[],[],[],[],[],,597.274,597.274,0.107777778,0.148888889,0,0,0,,0,78,78,118,1,2,word,MEDICINE,print,medicine_p.png,,,,,,
,,,,32322,001,2025-12-02_17h27.00.954,HW_LDT_1,2024.2.4,MacIntel,58.82352941,,,,,,,,,,,,,,,,,,,,,,597.275,597.473,597.474,597.973,,,,,,,,,,,,,,4.955,0,,,,,,,,,,,,,,z,,,,,,,,,,,,,,,,80,0,597.974,602.94,m,0,4.955,,[],[],[],[],[],[],[],602.94,604.94,604.94,604.941,[],[],[],[],[],[],[],,604.941,749.696,0.107777778,0.148888889,0,0,0,space,0,79,79,37,1,2,TL,adacemy,cursive,adacemy_c.png,,,144.726,,,
,,,,32322,001,2025-12-02_17h27.00.954,HW_LDT_1,2024.2.4,MacIntel,58.82352941,,,,,,,,,,,,,,,,,,,,,,749.698,749.895,749.895,750.395,,,,,,,,,,,,,,2.627,0,,,,,,,,,,,,,,m,,,,,,,,,,,,,,,,81,0,750.396,753.029,z,0,2.627,,[],[],[],[],[],[],[],753.029,755.029,755.029,755.03,[],[],[],[],[],[],[],,755.031,755.031,0.107777778,0.148888889,0,0,0,,0,80,80,138,1,2,word,REFUSAL,cursive,refusal_c.png,,,,,,
,,,,32322,001,2025-12-02_17h27.00.954,HW_LDT_1,2024.2.4,MacIntel,58.82352941,,,,,,,,,,,,,,,,,,,,,,755.032,755.228,755.229,755.729,,,,,,,,,,,,,,6.521,1,,,,,,,,,,,,,,m,,,,,,,,,,,,,,,,82,0,755.73,762.263,m,1,6.521,,[],[],[],[],[],[],[],762.263,764.262,764.263,764.263,[],[],[],[],[],[],[],,764.263,764.264,0.107777778,0.148888889,0,0,0,,0,81,81,102,1,2,word,DENSITY,print,density_p.png,,,,,,
,,,,32322,001,2025-12-02_17h27.00.954,HW_LDT_1,2024.2.4,MacIntel,58.82352941,,,,,,,,,,,,,,,,,,,,,,764.265,764.462,764.463,764.963,,,,,,,,,,,,,,1.791,0,,,,,,,,,,,,,,m,,,,,,,,,,,,,,,,83,0,764.963,766.763,z,0,1.791,,[],[],[],[],[],[],[],766.763,768.762,768.762,768.762,[],[],[],[],[],[],[],,768.763,768.763,0.107777778,0.148888889,0,0,0,,0,82,82,117,1,2,word,MARINE,cursive,marine_c.png,,,,,,
,,,,32322,001,2025-12-02_17h27.00.954,HW_LDT_1,2024.2.4,MacIntel,58.82352941,,,,,,,,,,,,,,,,,,,,,,768.764,768.963,768.963,769.463,,,,,,,,,,,,,,5.137,1,,,,,,,,,,,,,,m,,,,,,,,,,,,,,,,84,0,769.464,774.613,m,1,5.137,,[],[],[],[],[],[],[],774.613,776.613,776.613,776.614,[],[],[],[],[],[],[],,776.614,776.615,0.107777778,0.148888889,0,0,0,,0,83,83,140,1,2,word,RELATIVE,print,relative_p.png,,,,,,
,,,,32322,001,2025-12-02_17h27.00.954,HW_LDT_1,2024.2.4,MacIntel,58.82352941,,,,,,,,,,,,,,,,,,,,,,776.616,776.813,776.813,777.313,,,,,,,,,,,,,,1.258,0,,,,,,,,,,,,,,m,,,,,,,,,,,,,,,,85,0,777.314,778.58,z,0,1.258,,[],[],[],[],[],[],[],778.58,780.58,780.58,780.581,[],[],[],[],[],[],[],,780.581,780.581,0.107777778,0.148888889,0,0,0,,0,84,84,120,1,2,word,MILITARY,cursive,military_c.png,,,,,,
,,,,32322,001,2025-12-02_17h27.00.954,HW_LDT_1,2024.2.4,MacIntel,58.82352941,,,,,,,,,,,,,,,,,,,,,,780.582,780.78,780.78,781.28,,,,,,,,,,,,,,1.206,1,,,,,,,,,,,,,,z,,,,,,,,,,,,,,,,86,0,781.28,782.496,z,1,1.206,,[],[],[],[],[],[],[],782.496,784.496,784.496,784.497,[],[],[],[],[],[],[],,784.497,784.497,0.107777778,0.148888889,0,0,0,,0,85,85,9,1,2,RL,denficy,print,denficy_p.png,,,,,,
,,,,32322,001,2025-12-02_17h27.00.954,HW_LDT_1,2024.2.4,MacIntel,58.82352941,,,,,,,,,,,,,,,,,,,,,,784.498,784.696,784.697,785.197,,,,,,,,,,,,,,5.271,1,,,,,,,,,,,,,,z,,,,,,,,,,,,,,,,87,0,785.197,790.48,z,1,5.271,,[],[],[],[],[],[],[],790.48,792.48,792.48,792.481,[],[],[],[],[],[],[],,792.481,792.481,0.107777778,0.148888889,0,0,0,,0,86,86,20,1,2,RL,onegator,cursive,onegator_c.png,,,,,,
,,,,32322,001,2025-12-02_17h27.00.954,HW_LDT_1,2024.2.4,MacIntel,58.82352941,,,,,,,,,,,,,,,,,,,,,,792.484,792.679,792.68,793.18,,,,,,,,,,,,,,4.655,1,,,,,,,,,,,,,,m,,,,,,,,,,,,,,,,88,0,793.181,797.847,m,1,4.655,,[],[],[],[],[],[],[],797.847,799.847,799.847,799.848,[],[],[],[],[],[],[],,799.848,799.848,0.107777778,0.148888889,0,0,0,,0,87,87,155,1,2,word,STRATEGY,cursive,strategy_c.png,,,,,,
,,,,32322,001,2025-12-02_17h27.00.954,HW_LDT_1,2024.2.4,MacIntel,58.82352941,,,,,,,,,,,,,,,,,,,,,,799.849,800.047,800.047,800.547,,,,,,,,,,,,,,6.155,1,,,,,,,,,,,,,,z,,,,,,,,,,,,,,,,89,0,800.547,806.714,z,1,6.155,,[],[],[],[],[],[],[],806.714,808.714,808.714,808.715,[],[],[],[],[],[],[],,808.715,808.715,0.107777778,0.148888889,0,0,0,,0,88,88,29,1,2,RL,samite,cursive,samite_c.png,,,,,,
,,,,32322,001,2025-12-02_17h27.00.954,HW_LDT_1,2024.2.4,MacIntel,58.82352941,,,,,,,,,,,,,,,,,,,,,,808.716,808.913,808.913,809.413,,,,,,,,,,,,,,2.215,1,,,,,,,,,,,,,,m,,,,,,,,,,,,,,,,90,0,809.414,811.632,m,1,2.215,,[],[],[],[],[],[],[],811.632,813.631,813.631,813.631,[],[],[],[],[],[],[],,813.631,813.631,0.107777778,0.148888889,0,0,0,,0,89,89,89,1,2,word,CAPACITY,print,capacity_p.png,,,,,,
,,,,32322,001,2025-12-02_17h27.00.954,HW_LDT_1,2024.2.4,MacIntel,58.82352941,,,,,,,,,,,,,,,,,,,,,,813.633,813.831,813.831,814.331,,,,,,,,,,,,,,9.339,1,,,,,,,,,,,,,,m,,,,,,,,,,,,,,,,91,0,814.331,823.681,m,1,9.339,,[],[],[],[],[],[],[],823.681,825.681,825.682,825.682,[],[],[],[],[],[],[],,825.683,825.683,0.107777778,0.148888889,0,0,0,,0,90,90,112,1,2,word,LIBERAL,print,liberal_p.png,,,,,,
,,,,32322,001,2025-12-02_17h27.00.954,HW_LDT_1,2024.2.4,MacIntel,58.82352941,,,,,,,,,,,,,,,,,,,,,,825.684,825.881,825.881,826.381,,,,,,,,,,,,,,11.14,1,,,,,,,,,,,,,,m,,,,,,,,,,,,,,,,92,1,826.382,837.532,m,1,11.14,,[],[],[],[],[],[],[],837.532,839.532,839.532,845.999,[],[],[],[],[],[],[],m,845.999,845.999,0.107777778,0.148888889,0,0,0,,0,91,91,143,1,2,word,REMOVAL,print,removal_p.png,6.456,,,,,
,,,,32322,001,2025-12-02_17h27.00.954,HW_LDT_1,2024.2.4,MacIntel,58.82352941,,,,,,,,,,,,,,,,,,,,,,846,846.199,846.199,846.699,,,,,,,,,,,,,,5.994,1,,,,,,,,,,,,,,z,,,,,,,,,,,,,,,,93,0,846.699,852.698,z,1,5.994,,[],[],[],[],[],[],[],852.699,854.699,854.699,854.7,[],[],[],[],[],[],[],,854.7,854.7,0.107777778,0.148888889,0,0,0,,0,92,92,21,1,2,RL,pamest,print,pamest_p.png,,,,,,
,,,,32322,001,2025-12-02_17h27.00.954,HW_LDT_1,2024.2.4,MacIntel,58.82352941,,,,,,,,,,,,,,,,,,,,,,854.701,854.899,854.899,855.399,,,,,,,,,,,,,,1.722,1,,,,,,,,,,,,,,z,,,,,,,,,,,,,,,,94,0,855.399,857.132,z,1,1.722,,[],[],[],[],[],[],[],857.132,859.132,859.132,859.133,[],[],[],[],[],[],[],,859.133,859.133,0.107777778,0.148888889,0,0,0,,0,93,93,33,1,2,RL,strapely,cursive,strapely_c.png,,,,,,
,,,,32322,001,2025-12-02_17h27.00.954,HW_LDT_1,2024.2.4,MacIntel,58.82352941,,,,,,,,,,,,,,,,,,,,,,859.134,859.332,859.333,859.832,,,,,,,,,,,,,,2.239,1,,,,,,,,,,,,,,z,,,,,,,,,,,,,,,,95,0,859.833,862.082,z,1,2.239,,[],[],[],[],[],[],[],862.083,864.082,864.083,864.083,[],[],[],[],[],[],[],,864.083,864.083,0.107777778,0.148888889,0,0,0,,0,94,94,48,1,2,TL,detabe,print,detabe_p.png,,,,,,
,,,,32322,001,2025-12-02_17h27.00.954,HW_LDT_1,2024.2.4,MacIntel,58.82352941,,,,,,,,,,,,,,,,,,,,,,864.084,864.283,864.283,864.783,,,,,,,,,,,,,,7.822,1,,,,,,,,,,,,,,m,,,,,,,,,,,,,,,,96,0,864.783,872.616,m,1,7.822,,[],[],[],[],[],[],[],872.616,874.616,874.616,874.617,[],[],[],[],[],[],[],,874.617,874.617,0.107777778,0.148888889,0,0,0,,0,95,95,141,1,2,word,RELIGION,cursive,religion_c.png,,,,,,
,,,,32322,001,2025-12-02_17h27.00.954,HW_LDT_1,2024.2.4,MacIntel,58.82352941,,,,,,,,,,,,,,,,,,,,,,874.618,874.816,874.816,875.316,,,,,,,,,,,,,,6.055,1,,,,,,,,,,,,,,m,,,,,,,,,,,,,,,,97,0,875.317,881.383,m,1,6.055,,[],[],[],[],[],[],[],881.383,883.383,883.383,883.383,[],[],[],[],[],[],[],,883.383,883.384,0.107777778,0.148888889,0,0,0,,0,96,96,136,1,2,word,RADICAL,cursive,radical_c.png,,,,,,
,,,,32322,001,2025-12-02_17h27.00.954,HW_LDT_1,2024.2.4,MacIntel,58.82352941,,,,,,,,,,,,,,,,,,,,,,883.385,883.583,883.583,884.083,,,,,,,,,,,,,,1.624,1,,,,,,,,,,,,,,m,,,,,,,,,,,,,,,,98,0,884.084,885.717,m,1,1.624,,[],[],[],[],[],[],[],885.717,887.716,887.716,887.716,[],[],[],[],[],[],[],,887.717,887.717,0.107777778,0.148888889,0,0,0,,0,97,97,159,1,2,word,VETERAN,print,veteran_p.png,,,,,,
,,,,32322,001,2025-12-02_17h27.00.954,HW_LDT_1,2024.2.4,MacIntel,58.82352941,,,,,,,,,,,,,,,,,,,,,,887.718,887.916,887.916,888.417,,,,,,,,,,,,,,1.772,1,,,,,,,,,,,,,,z,,,,,,,,,,,,,,,,99,0,888.417,890.2,z,1,1.772,,[],[],[],[],[],[],[],890.2,892.2,892.2,892.201,[],[],[],[],[],[],[],,892.201,892.201,0.107777778,0.148888889,0,0,0,,0,98,98,46,1,2,TL,codemy,cursive,codemy_c.png,,,,,,
,,,,32322,001,2025-12-02_17h27.00.954,HW_LDT_1,2024.2.4,MacIntel,58.82352941,,,,,,,,,,,,,,,,,,,,,,892.202,892.4,892.4,892.9,,,,,,,,,,,,,,2.822,1,,,,,,,,,,,,,,m,,,,,,,,,,,,,,,,100,0,892.901,895.734,m,1,2.822,,[],[],[],[],[],[],[],895.734,897.734,897.734,897.734,[],[],[],[],[],[],[],,897.734,897.735,0.107777778,0.148888889,0,0,0,,0,99,99,93,1,2,word,CEREMONY,print,ceremony_p.png,,,,,,
,,,,32322,001,2025-12-02_17h27.00.954,HW_LDT_1,2024.2.4,MacIntel,58.82352941,,,,,,,,,,,,,,,,,,,,,,897.736,897.934,897.934,898.434,,,,,,,,,,,,,,5.426,1,,,,,,,,,,,,,,z,,,,,,,,,,,,,,,,101,0,898.434,903.867,z,1,5.426,,[],[],[],[],[],[],[],903.867,905.867,905.867,905.868,[],[],[],[],[],[],[],,905.868,905.868,0.107777778,0.148888889,0,0,0,,0,100,100,71,1,2,TL,retome,cursive,retome_c.png,,,,,,
,,,,32322,001,2025-12-02_17h27.00.954,HW_LDT_1,2024.2.4,MacIntel,58.82352941,,,,,,,,,,,,,,,,,,,,,,905.869,906.067,906.067,906.567,,,,,,,,,,,,,,2.392,1,,,,,,,,,,,,,,z,,,,,,,,,,,,,,,,102,0,906.568,908.967,z,1,2.392,,[],[],[],[],[],[],[],908.967,910.968,910.968,910.968,[],[],[],[],[],[],[],,910.968,910.969,0.107777778,0.148888889,0,0,0,,0,101,101,54,1,2,TL,liretal,cursive,liretal_c.png,,,,,,
,,,,32322,001,2025-12-02_17h27.00.954,HW_LDT_1,2024.2.4,MacIntel,58.82352941,,,,,,,,,,,,,,,,,,,,,,910.97,911.167,911.168,911.667,,,,,,,,,,,,,,5.137,1,,,,,,,,,,,,,,m,,,,,,,,,,,,,,,,103,0,911.668,916.817,m,1,5.137,,[],[],[],[],[],[],[],916.817,918.818,918.818,918.818,[],[],[],[],[],[],[],,918.818,918.818,0.107777778,0.148888889,0,0,0,,0,102,102,94,1,2,word,CLINICAL,cursive,clinical_c.png,,,,,,
,,,,32322,001,2025-12-02_17h27.00.954,HW_LDT_1,2024.2.4,MacIntel,58.82352941,,,,,,,,,,,,,,,,,,,,,,918.82,919.018,919.018,919.518,,,,,,,,,,,,,,2.19,1,,,,,,,,,,,,,,z,,,,,,,,,,,,,,,,104,0,919.518,921.718,z,1,2.19,,[],[],[],[],[],[],[],921.718,923.718,923.718,923.718,[],[],[],[],[],[],[],,923.718,923.719,0.107777778,0.148888889,0,0,0,,0,103,103,51,1,2,TL,etidor,cursive,etidor_c.png,,,,,,
,,,,32322,001,2025-12-02_17h27.00.954,HW_LDT_1,2024.2.4,MacIntel,58.82352941,,,,,,,,,,,,,,,,,,,,,,923.72,923.918,923.918,924.418,,,,,,,,,,,,,,1.455,1,,,,,,,,,,,,,,m,,,,,,,,,,,,,,,,105,0,924.418,925.885,m,1,1.455,,[],[],[],[],[],[],[],925.885,927.885,927.885,927.885,[],[],[],[],[],[],[],,927.885,927.885,0.107777778,0.148888889,0,0,0,,0,104,104,107,1,2,word,EVIDENT,cursive,evident_c.png,,,,,,
,,,,32322,001,2025-12-02_17h27.00.954,HW_LDT_1,2024.2.4,MacIntel,58.82352941,,,,,,,,,,,,,,,,,,,,,,927.886,928.084,928.084,928.585,,,,,,,,,,,,,,3.075,1,,,,,,,,,,,,,,m,,,,,,,,,,,,,,,,106,0,928.585,931.668,m,1,3.075,,[],[],[],[],[],[],[],931.668,933.668,933.668,933.669,[],[],[],[],[],[],[],,933.669,933.669,0.107777778,0.148888889,0,0,0,,0,105,105,104,1,2,word,DOMINANT,print,dominant_p.png,,,,,,
,,,,32322,001,2025-12-02_17h27.00.954,HW_LDT_1,2024.2.4,MacIntel,58.82352941,,,,,,,,,,,,,,,,,,,,,,933.67,933.868,933.868,934.368,,,,,,,,,,,,,,3.205,1,,,,,,,,,,,,,,z,,,,,,,,,,,,,,,,107,0,934.369,937.584,z,1,3.205,,[],[],[],[],[],[],[],937.584,939.585,939.585,939.586,[],[],[],[],[],[],[],,939.586,939.586,0.107777778,0.148888889,0,0,0,,0,106,106,52,1,2,TL,elarobate,cursive,elarobate_c.png,,,,,,
,,,,32322,001,2025-12-02_17h27.00.954,HW_LDT_1,2024.2.4,MacIntel,58.82352941,,,,,,,,,,,,,,,,,,,,,,939.587,939.785,939.785,940.285,,,,,,,,,,,,,,4.242,1,,,,,,,,,,,,,,z,,,,,,,,,,,,,,,,108,0,940.286,944.536,z,1,4.242,,[],[],[],[],[],[],[],944.536,946.535,946.536,946.537,[],[],[],[],[],[],[],,946.537,946.537,0.107777778,0.148888889,0,0,0,,0,107,107,62,1,2,TL,opmital,cursive,opmital_c.png,,,,,,
,,,,32322,001,2025-12-02_17h27.00.954,HW_LDT_1,2024.2.4,MacIntel,58.82352941,,,,,,,,,,,,,,,,,,,,,,946.539,946.735,946.735,947.235,,,,,,,,,,,,,,7.775,1,,,,,,,,,,,,,,z,,,,,,,,,,,,,,,,109,0,947.236,955.019,z,1,7.775,,[],[],[],[],[],[],[],955.019,957.02,957.02,957.02,[],[],[],[],[],[],[],,957.02,957.021,0.107777778,0.148888889,0,0,0,,0,108,108,60,1,2,TL,molibe,print,molibe_p.png,,,,,,
,,,,32322,001,2025-12-02_17h27.00.954,HW_LDT_1,2024.2.4,MacIntel,58.82352941,,,,,,,,,,,,,,,,,,,,,,957.022,957.219,957.219,957.719,,,,,,,,,,,,,,1.396,1,,,,,,,,,,,,,,z,,,,,,,,,,,,,,,,110,0,957.72,959.119,z,1,1.396,,[],[],[],[],[],[],[],959.119,961.119,961.119,961.12,[],[],[],[],[],[],[],,961.12,961.12,0.107777778,0.148888889,0,0,0,,0,109,109,2,1,2,RL,casagity,print,casagity_p.png,,,,,,
,,,,32322,001,2025-12-02_17h27.00.954,HW_LDT_1,2024.2.4,MacIntel,58.82352941,,,,,,,,,,,,,,,,,,,,,,961.122,961.318,961.319,961.819,,,,,,,,,,,,,,3.321,0,,,,,,,,,,,,,,m,,,,,,,,,,,,,,,,111,0,961.82,965.152,z,0,3.321,,[],[],[],[],[],[],[],965.153,967.153,967.153,967.153,[],[],[],[],[],[],[],,967.153,967.154,0.102222222,0.156666667,0,0,0,,0,110,110,103,1,2,word,DISPUTE,cursive,dispute_c.png,,,,,,
,,,,32322,001,2025-12-02_17h27.00.954,HW_LDT_1,2024.2.4,MacIntel,58.82352941,,,,,,,,,,,,,,,,,,,,,,967.155,967.353,967.353,967.853,,,,,,,,,,,,,,3.922,1,,,,,,,,,,,,,,z,,,,,,,,,,,,,,,,112,0,967.853,971.786,z,1,3.922,,[],[],[],[],[],[],[],971.786,973.786,973.786,973.787,[],[],[],[],[],[],[],,973.787,973.787,0.102222222,0.156666667,0,0,0,,0,111,111,8,1,2,RL,desifate,print,desifate_p.png,,,,,,
,,,,32322,001,2025-12-02_17h27.00.954,HW_LDT_1,2024.2.4,MacIntel,58.82352941,,,,,,,,,,,,,,,,,,,,,,973.788,973.986,973.986,974.486,,,,,,,,,,,,,,4.763,1,,,,,,,,,,,,,,m,,,,,,,,,,,,,,,,113,0,974.487,979.254,m,1,4.763,,[],[],[],[],[],[],[],979.254,981.253,981.253,981.253,[],[],[],[],[],[],[],,981.253,981.254,0.102222222,0.156666667,0,0,0,,0,112,112,149,1,2,word,SENATOR,print,senator_p.png,,,,,,
,,,,32322,001,2025-12-02_17h27.00.954,HW_LDT_1,2024.2.4,MacIntel,58.82352941,,,,,,,,,,,,,,,,,,,,,,981.255,981.453,981.453,981.953,,,,,,,,,,,,,,6.638,1,,,,,,,,,,,,,,z,,,,,,,,,,,,,,,,114,1,981.954,988.604,z,1,6.638,,[],[],[],[],[],[],[],988.604,990.603,990.604,995.02,[],[],[],[],[],[],[],z,995.02,995.021,0.102222222,0.156666667,0,0,0,,0,113,113,65,1,2,TL,polupar,cursive,polupar_c.png,4.405,,,,,
,,,,32322,001,2025-12-02_17h27.00.954,HW_LDT_1,2024.2.4,MacIntel,58.82352941,,,,,,,,,,,,,,,,,,,,,,995.022,995.22,995.221,995.72,,,,,,,,,,,,,,1.82,1,,,,,,,,,,,,,,z,,,,,,,,,,,,,,,,115,0,995.721,997.553,z,1,1.82,,[],[],[],[],[],[],[],997.554,999.554,999.554,999.555,[],[],[],[],[],[],[],,999.556,999.556,0.102222222,0.156666667,0,0,0,,0,114,114,14,1,2,RL,insibate,cursive,insibate_c.png,,,,,,
,,,,32322,001,2025-12-02_17h27.00.954,HW_LDT_1,2024.2.4,MacIntel,58.82352941,,,,,,,,,,,,,,,,,,,,,,999.558,999.754,999.754,1000.254,,,,,,,,,,,,,,8.955,1,,,,,,,,,,,,,,z,,,,,,,,,,,,,,,,116,0,1000.254,1009.221,z,1,8.955,,[],[],[],[],[],[],[],1009.221,1011.221,1011.221,1011.221,[],[],[],[],[],[],[],,1011.221,1011.221,0.102222222,0.156666667,0,0,0,,0,115,115,30,1,2,RL,selamor,print,selamor_p.png,,,,,,
,,,,32322,001,2025-12-02_17h27.00.954,HW_LDT_1,2024.2.4,MacIntel,58.82352941,,,,,,,,,,,,,,,,,,,,,,1011.222,1011.421,1011.421,1011.921,,,,,,,,,,,,,,5.51,1,,,,,,,,,,,,,,z,,,,,,,,,,,,,,,,117,0,1011.921,1017.438,z,1,5.51,,[],[],[],[],[],[],[],1017.438,1019.438,1019.438,1019.44,[],[],[],[],[],[],[],,1019.44,1019.441,0.102222222,0.156666667,0,0,0,,0,116,116,43,1,2,TL,carema,print,carema_p.png,,,,,,
,,,,32322,001,2025-12-02_17h27.00.954,HW_LDT_1,2024.2.4,MacIntel,58.82352941,,,,,,,,,,,,,,,,,,,,,,1019.442,1019.638,1019.638,1020.138,,,,,,,,,,,,,,9.911,0,,,,,,,,,,,,,,m,,,,,,,,,,,,,,,,118,1,1020.139,1030.056,z,0,9.911,,[],[],[],[],[],[],[],1030.056,1032.055,1032.055,1034.638,[],[],[],[],[],[],[],m,1034.639,1034.639,0.102222222,0.156666667,0,0,0,,0,117,117,125,1,2,word,OPERATOR,cursive,operator_c.png,2.573,,,,,
,,,,32322,001,2025-12-02_17h27.00.954,HW_LDT_1,2024.2.4,MacIntel,58.82352941,,,,,,,,,,,,,,,,,,,,,,1034.641,1034.838,1034.839,1035.338,,,,,,,,,,,,,,1.64,1,,,,,,,,,,,,,,z,,,,,,,,,,,,,,,,119,0,1035.339,1036.989,z,1,1.64,,[],[],[],[],[],[],[],1036.989,1038.989,1038.989,1038.989,[],[],[],[],[],[],[],,1038.989,1038.989,0.102222222,0.156666667,0,0,0,,0,118,118,1,1,2,RL,caleberia,print,caleberia_p.png,,,,,,
,,,,32322,001,2025-12-02_17h27.00.954,HW_LDT_1,2024.2.4,MacIntel,58.82352941,,,,,,,,,,,,,,,,,,,,,,1038.991,1039.188,1039.188,1039.688,,,,,,,,,,,,,,2.58,1,,,,,,,,,,,,,,z,,,,,,,,,,,,,,,,120,0,1039.689,1042.273,z,1,2.58,,[],[],[],[],[],[],[],1042.273,1044.272,1044.272,1044.273,[],[],[],[],[],[],[],,1044.273,1044.273,0.102222222,0.156666667,0,0,0,,0,119,119,5,1,2,RL,clisimal,cursive,clisimal_c.png,,,,,,
,,,,32322,001,2025-12-02_17h27.00.954,HW_LDT_1,2024.2.4,MacIntel,58.82352941,,,,,,,,,,,,,,,,,,,,,,1044.274,1044.472,1044.472,1044.972,,,,,,,,,,,,,,4.87,1,,,,,,,,,,,,,,z,,,,,,,,,,,,,,,,121,0,1044.973,1049.856,z,1,4.87,,[],[],[],[],[],[],[],1049.856,1051.856,1051.856,1051.856,[],[],[],[],[],[],[],,1051.856,1051.857,0.102222222,0.156666667,0,0,0,,0,120,120,22,1,2,RL,posity,print,posity_p.png,,,,,,
,,,,32322,001,2025-12-02_17h27.00.954,HW_LDT_1,2024.2.4,MacIntel,58.82352941,,,,,,,,,,,,,,,,,,,,,,1051.858,1052.056,1052.056,1052.557,,,,,,,,,,,,,,1.41,1,,,,,,,,,,,,,,z,,,,,,,,,,,,,,,,122,0,1052.557,1053.973,z,1,1.41,,[],[],[],[],[],[],[],1053.973,1055.972,1055.972,1055.972,[],[],[],[],[],[],[],,1055.973,1055.973,0.102222222,0.156666667,0,0,0,,0,121,121,36,1,2,RL,vecelan,print,vecelan_p.png,,,,,,
,,,,32322,001,2025-12-02_17h27.00.954,HW_LDT_1,2024.2.4,MacIntel,58.82352941,,,,,,,,,,,,,,,,,,,,,,1055.974,1056.172,1056.172,1056.671,,,,,,,,,,,,,,1.94,0,,,,,,,,,,,,,,z,,,,,,,,,,,,,,,,123,0,1056.672,1058.622,m,0,1.94,,[],[],[],[],[],[],[],1058.622,1060.623,1060.623,1060.623,[],[],[],[],[],[],[],,1060.623,1060.623,0.102222222,0.156666667,0,0,0,,0,122,122,67,1,2,TL,quafily,cursive,quafily_c.png,,,,,,
,,,,32322,001,2025-12-02_17h27.00.954,HW_LDT_1,2024.2.4,MacIntel,58.82352941,,,,,,,,,,,,,,,,,,,,,,1060.625,1060.822,1060.822,1061.323,,,,,,,,,,,,,,2.105,0,,,,,,,,,,,,,,m,,,,,,,,,,,,,,,,124,0,1061.323,1063.439,z,0,2.105,,[],[],[],[],[],[],[],1063.439,1065.44,1065.44,1065.44,[],[],[],[],[],[],[],,1065.441,1065.441,0.102222222,0.156666667,0,0,0,,0,123,123,105,1,2,word,EDITOR,cursive,editor_c.png,,,,,,
,,,,32322,001,2025-12-02_17h27.00.954,HW_LDT_1,2024.2.4,MacIntel,58.82352941,,,,,,,,,,,,,,,,,,,,,,1065.443,1065.639,1065.639,1066.139,,,,,,,,,,,,,,4.226,1,,,,,,,,,,,,,,z,,,,,,,,,,,,,,,,125,0,1066.14,1070.372,z,1,4.226,,[],[],[],[],[],[],[],1070.372,1072.373,1072.373,1072.373,[],[],[],[],[],[],[],,1072.374,1072.374,0.102222222,0.156666667,0,0,0,,0,124,124,63,1,2,TL,orinigal,print,orinigal_p.png,,,,,,
,,,,32322,001,2025-12-02_17h27.00.954,HW_LDT_1,2024.2.4,MacIntel,58.82352941,,,,,,,,,,,,,,,,,,,,,,1072.375,1072.573,1072.573,1073.073,,,,,,,,,,,,,,2.423,1,,,,,,,,,,,,,,m,,,,,,,,,,,,,,,,126,1,1073.073,1075.506,m,1,2.423,,[],[],[],[],[],[],[],1075.507,1077.507,1077.507,1080.273,[],[],[],[],[],[],[],z,1080.273,1080.274,0.102222222,0.156666667,0,0,0,,0,125,125,97,1,2,word,COVERAGE,cursive,coverage_c.png,2.756,,,,,
,,,,32322,001,2025-12-02_17h27.00.954,HW_LDT_1,2024.2.4,MacIntel,58.82352941,,,,,,,,,,,,,,,,,,,,,,1080.275,1080.473,1080.473,1080.973,,,,,,,,,,,,,,3.39,1,,,,,,,,,,,,,,m,,,,,,,,,,,,,,,,127,0,1080.973,1084.373,m,1,3.39,,[],[],[],[],[],[],[],1084.374,1086.373,1086.373,1086.374,[],[],[],[],[],[],[],,1086.374,1086.374,0.102222222,0.156666667,0,0,0,,0,126,126,142,1,2,word,REMOTE,cursive,remote_c.png,,,,,,
,,,,32322,001,2025-12-02_17h27.00.954,HW_LDT_1,2024.2.4,MacIntel,58.82352941,,,,,,,,,,,,,,,,,,,,,,1086.375,1086.573,1086.574,1087.073,,,,,,,,,,,,,,2.176,0,,,,,,,,,,,,,,z,,,,,,,,,,,,,,,,128,0,1087.074,1089.256,m,0,2.176,,[],[],[],[],[],[],[],1089.257,1091.257,1091.257,1091.258,[],[],[],[],[],[],[],,1091.258,1091.258,0.102222222,0.156666667,0,0,0,,0,127,127,34,1,2,RL,trilude,cursive,trilude_c.png,,,,,,
,,,,32322,001,2025-12-02_17h27.00.954,HW_LDT_1,2024.2.4,MacIntel,58.82352941,,,,,,,,,,,,,,,,,,,,,,1091.259,1091.457,1091.457,1091.957,,,,,,,,,,,,,,12.012,1,,,,,,,,,,,,,,z,,,,,,,,,,,,,,,,129,0,1091.957,1103.974,z,1,12.012,,[],[],[],[],[],[],[],1103.974,1105.974,1105.974,1105.975,[],[],[],[],[],[],[],,1105.975,1105.975,0.102222222,0.156666667,0,0,0,,0,128,128,73,1,2,TL,redisent,print,redisent_p.png,,,,,,
,,,,32322,001,2025-12-02_17h27.00.954,HW_LDT_1,2024.2.4,MacIntel,58.82352941,,,,,,,,,,,,,,,,,,,,,,1105.976,1106.174,1106.174,1106.674,,,,,,,,,,,,,,1.03,1,,,,,,,,,,,,,,m,,,,,,,,,,,,,,,,130,0,1106.675,1107.709,m,1,1.03,,[],[],[],[],[],[],[],1107.709,1109.707,1109.707,1109.707,[],[],[],[],[],[],[],,1109.707,1109.708,0.102222222,0.156666667,0,0,0,,0,129,129,153,1,2,word,STOLEN,print,stolen_p.png,,,,,,
,,,,32322,001,2025-12-02_17h27.00.954,HW_LDT_1,2024.2.4,MacIntel,58.82352941,,,,,,,,,,,,,,,,,,,,,,1109.709,1109.908,1109.908,1110.408,,,,,,,,,,,,,,13.372,1,,,,,,,,,,,,,,z,,,,,,,,,,,,,,,,131,1,1110.408,1123.791,z,1,13.372,,[],[],[],[],[],[],[],1123.792,1125.791,1125.791,1132.658,[],[],[],[],[],[],[],m,1132.658,1132.659,0.102222222,0.156666667,0,0,0,,0,130,130,42,1,2,TL,bedise,cursive,bedise_c.png,6.855,,,,,
,,,,32322,001,2025-12-02_17h27.00.954,HW_LDT_1,2024.2.4,MacIntel,58.82352941,,,,,,,,,,,,,,,,,,,,,,1132.659,1132.858,1132.858,1133.359,,,,,,,,,,,,,,8.739,0,,,,,,,,,,,,,,m,,,,,,,,,,,,,,,,132,0,1133.359,1142.109,z,0,8.739,,[],[],[],[],[],[],[],1142.109,1144.109,1144.109,1144.11,[],[],[],[],[],[],[],,1144.111,1144.111,0.102222222,0.156666667,0,0,0,,0,131,131,113,1,2,word,LITERAL,cursive,literal_c.png,,,,,,
,,,,32322,001,2025-12-02_17h27.00.954,HW_LDT_1,2024.2.4,MacIntel,58.82352941,,,,,,,,,,,,,,,,,,,,,,1144.113,1144.309,1144.309,1144.809,,,,,,,,,,,,,,17.322,0,,,,,,,,,,,,,,m,,,,,,,,,,,,,,,,133,0,1144.81,1162.143,z,0,17.322,,[],[],[],[],[],[],[],1162.143,1164.142,1164.142,1164.143,[],[],[],[],[],[],[],,1164.143,1164.143,0.102222222,0.156666667,0,0,0,,0,132,132,116,1,2,word,MARGINAL,cursive,marginal_c.png,,,,,,
,,,,32322,001,2025-12-02_17h27.00.954,HW_LDT_1,2024.2.4,MacIntel,58.82352941,,,,,,,,,,,,,,,,,,,,,,1164.145,1164.342,1164.342,1164.843,,,,,,,,,,,,,,1.854,1,,,,,,,,,,,,,,m,,,,,,,,,,,,,,,,134,0,1164.844,1166.709,m,1,1.854,,[],[],[],[],[],[],[],1166.71,1168.71,1168.71,1168.71,[],[],[],[],[],[],[],,1168.71,1168.711,0.102222222,0.156666667,0,0,0,,0,133,133,129,1,2,word,PARENT,print,parent_p.png,,,,,,
,,,,32322,001,2025-12-02_17h27.00.954,HW_LDT_1,2024.2.4,MacIntel,58.82352941,,,,,,,,,,,,,,,,,,,,,,1168.712,1168.91,1168.91,1169.41,,,,,,,,,,,,,,22.707,0,,,,,,,,,,,,,,m,,,,,,,,,,,,,,,,135,0,1169.41,1192.126,z,0,22.707,,[],[],[],[],[],[],[],1192.126,1194.127,1194.127,1194.128,[],[],[],[],[],[],[],,1194.128,1194.128,0.102222222,0.156666667,0,0,0,,0,134,134,100,1,2,word,DECADE,print,decade_p.png,,,,,,
,,,,32322,001,2025-12-02_17h27.00.954,HW_LDT_1,2024.2.4,MacIntel,58.82352941,,,,,,,,,,,,,,,,,,,,,,1194.129,1194.327,1194.327,1194.827,,,,,,,,,,,,,,1.691,1,,,,,,,,,,,,,,m,,,,,,,,,,,,,,,,136,1,1194.828,1196.527,m,1,1.691,,[],[],[],[],[],[],[],1196.527,1198.527,1198.527,1214.761,[],[],[],[],[],[],[],z,1214.761,1214.762,0.102222222,0.156666667,0,0,0,,0,135,135,134,1,2,word,QUALIFY,cursive,qualify_c.png,16.225,,,,,
,,,,32322,001,2025-12-02_17h27.00.954,HW_LDT_1,2024.2.4,MacIntel,58.82352941,,,,,,,,,,,,,,,,,,,,,,1214.763,1214.961,1214.961,1215.461,,,,,,,,,,,,,,7.371,0,,,,,,,,,,,,,,m,,,,,,,,,,,,,,,,137,0,1215.462,1222.845,z,0,7.371,,[],[],[],[],[],[],[],1222.845,1224.845,1224.845,1224.845,[],[],[],[],[],[],[],,1224.845,1224.845,0.102222222,0.156666667,0,0,0,,0,136,136,121,1,2,word,MISTAKE,cursive,mistake_c.png,,,,,,
,,,,32322,001,2025-12-02_17h27.00.954,HW_LDT_1,2024.2.4,MacIntel,58.82352941,,,,,,,,,,,,,,,,,,,,,,1224.846,1225.045,1225.045,1225.545,,,,,,,,,,,,,,5.005,1,,,,,,,,,,,,,,m,,,,,,,,,,,,,,,,138,0,1225.545,1230.562,m,1,5.005,,[],[],[],[],[],[],[],1230.562,1232.562,1232.562,1232.562,[],[],[],[],[],[],[],,1232.562,1232.563,0.102222222,0.156666667,0,0,0,,0,137,137,99,1,2,word,DEBATE,print,debate_p.png,,,,,,
,,,,32322,001,2025-12-02_17h27.00.954,HW_LDT_1,2024.2.4,MacIntel,58.82352941,,,,,,,,,,,,,,,,,,,,,,1232.564,1232.761,1232.761,1233.262,,,,,,,,,,,,,,1.889,1,,,,,,,,,,,,,,z,,,,,,,,,,,,,,,,139,0,1233.262,1235.162,z,1,1.889,,[],[],[],[],[],[],[],1235.162,1237.162,1237.162,1237.163,[],[],[],[],[],[],[],,1237.163,1237.164,0.102222222,0.156666667,0,0,0,,0,138,138,78,1,2,TL,stogare,print,stogare_p.png,,,,,,
,,,,32322,001,2025-12-02_17h27.00.954,HW_LDT_1,2024.2.4,MacIntel,58.82352941,,,,,,,,,,,,,,,,,,,,,,1237.166,1237.362,1237.362,1237.862,,,,,,,,,,,,,,7.604,1,,,,,,,,,,,,,,m,,,,,,,,,,,,,,,,140,0,1237.863,1245.479,m,1,7.604,,[],[],[],[],[],[],[],1245.48,1247.479,1247.48,1247.481,[],[],[],[],[],[],[],,1247.481,1247.481,0.102222222,0.156666667,0,0,0,,0,139,139,88,1,2,word,CAMERA,print,camera_p.png,,,,,,
,,,,32322,001,2025-12-02_17h27.00.954,HW_LDT_1,2024.2.4,MacIntel,58.82352941,,,,,,,,,,,,,,,,,,,,,,1247.483,1247.679,1247.679,1248.179,,,,,,,,,,,,,,16.103,1,,,,,,,,,,,,,,m,,,,,,,,,,,,,,,,141,0,1248.18,1264.296,m,1,16.103,,[],[],[],[],[],[],[],1264.297,1266.296,1266.296,1266.297,[],[],[],[],[],[],[],,1266.298,1266.298,0.102222222,0.156666667,0,0,0,,0,140,140,128,1,2,word,PACIFIC,print,pacific_p.png,,,,,,
,,,,32322,001,2025-12-02_17h27.00.954,HW_LDT_1,2024.2.4,MacIntel,58.82352941,,,,,,,,,,,,,,,,,,,,,,1266.3,1266.497,1266.497,1266.996,,,,,,,,,,,,,,1.189,0,,,,,,,,,,,,,,m,,,,,,,,,,,,,,,,142,0,1266.997,1268.196,z,0,1.189,,[],[],[],[],[],[],[],1268.196,1270.196,1270.196,1270.197,[],[],[],[],[],[],[],,1270.197,1270.198,-0.154444444,0.327777778,0,0,0,,0,141,141,106,1,2,word,ELABORATE,cursive,elaborate_c.png,,,,,,
,,,,32322,001,2025-12-02_17h27.00.954,HW_LDT_1,2024.2.4,MacIntel,58.82352941,,,,,,,,,,,,,,,,,,,,,,1270.199,1270.396,1270.396,1270.896,,,,,,,,,,,,,,1.572,1,,,,,,,,,,,,,,z,,,,,,,,,,,,,,,,143,0,1270.897,1272.48,z,1,1.572,,[],[],[],[],[],[],[],1272.48,1274.48,1274.48,1274.481,[],[],[],[],[],[],[],,1274.481,1274.481,-0.154444444,0.327777778,0,0,0,,0,142,142,79,1,2,TL,vadility,print,vadility_p.png,,,,,,
,,,,32322,001,2025-12-02_17h27.00.954,HW_LDT_1,2024.2.4,MacIntel,58.82352941,,,,,,,,,,,,,,,,,,,,,,1274.482,1274.68,1274.68,1275.18,,,,,,,,,,,,,,3.409,1,,,,,,,,,,,,,,m,,,,,,,,,,,,,,,,144,0,1275.181,1278.597,m,1,3.409,,[],[],[],[],[],[],[],1278.597,1280.597,1280.597,1280.597,[],[],[],[],[],[],[],,1280.597,1280.598,-0.154444444,0.327777778,0,0,0,,0,143,143,150,1,2,word,SENTIMENT,cursive,sentiment_c.png,,,,,,
,,,,32322,001,2025-12-02_17h27.00.954,HW_LDT_1,2024.2.4,MacIntel,58.82352941,,,,,,,,,,,,,,,,,,,,,,1280.599,1280.797,1280.797,1281.297,,,,,,,,,,,,,,2.673,0,,,,,,,,,,,,,,z,,,,,,,,,,,,,,,,145,0,1281.297,1283.98,m,0,2.673,,[],[],[],[],[],[],[],1283.98,1285.98,1285.98,1285.981,[],[],[],[],[],[],[],,1285.981,1285.981,-0.154444444,0.327777778,0,0,0,,0,144,144,45,1,2,TL,carnidal,cursive,carnidal_c.png,,,,,,
,,,,32322,001,2025-12-02_17h27.00.954,HW_LDT_1,2024.2.4,MacIntel,58.82352941,,,,,,,,,,,,,,,,,,,,,,1285.982,1286.18,1286.18,1286.68,,,,,,,,,,,,,,1.828,0,,,,,,,,,,,,,,m,,,,,,,,,,,,,,,,146,0,1286.681,1288.514,z,0,1.828,,[],[],[],[],[],[],[],1288.514,1290.513,1290.513,1290.513,[],[],[],[],[],[],[],,1290.513,1290.514,-0.154444444,0.327777778,0,0,0,,0,145,145,101,1,2,word,DELICATE,print,delicate_p.png,,,,,,
,,,,32322,001,2025-12-02_17h27.00.954,HW_LDT_1,2024.2.4,MacIntel,58.82352941,,,,,,,,,,,,,,,,,,,,,,1290.515,1290.714,1290.714,1291.214,,,,,,,,,,,,,,7.805,0,,,,,,,,,,,,,,z,,,,,,,,,,,,,,,,147,0,1291.214,1299.031,m,0,7.805,,[],[],[],[],[],[],[],1299.031,1301.031,1301.031,1301.032,[],[],[],[],[],[],[],,1301.032,1301.032,-0.154444444,0.327777778,0,0,0,,0,146,146,64,1,2,TL,paficic,print,paficic_p.png,,,,,,
,,,,32322,001,2025-12-02_17h27.00.954,HW_LDT_1,2024.2.4,MacIntel,58.82352941,,,,,,,,,,,,,,,,,,,,,,1301.034,1301.231,1301.231,1301.731,,,,,,,,,,,,,,1.671,0,,,,,,,,,,,,,,m,,,,,,,,,,,,,,,,148,0,1301.732,1303.414,z,0,1.671,,[],[],[],[],[],[],[],1303.414,1305.414,1305.414,1305.415,[],[],[],[],[],[],[],,1305.415,1305.415,-0.154444444,0.327777778,0,0,0,,0,147,147,133,1,2,word,PROVIDE,cursive,provide_c.png,,,,,,
,,,,32322,001,2025-12-02_17h27.00.954,HW_LDT_1,2024.2.4,MacIntel,58.82352941,,,,,,,,,,,,,,,,,,,,,,1305.417,1305.614,1305.614,1306.114,,,,,,,,,,,,,,1.439,1,,,,,,,,,,,,,,z,,,,,,,,,,,,,,,,149,0,1306.115,1307.564,z,1,1.439,,[],[],[],[],[],[],[],1307.564,1309.564,1309.564,1309.564,[],[],[],[],[],[],[],,1309.565,1309.565,-0.154444444,0.327777778,0,0,0,,0,148,148,10,1,2,RL,disluge,cursive,disluge_c.png,,,,,,
,,,,32322,001,2025-12-02_17h27.00.954,HW_LDT_1,2024.2.4,MacIntel,58.82352941,,,,,,,,,,,,,,,,,,,,,,1309.566,1309.764,1309.764,1310.264,,,,,,,,,,,,,,1.354,1,,,,,,,,,,,,,,z,,,,,,,,,,,,,,,,150,1,1310.265,1311.631,z,1,1.354,,[],[],[],[],[],[],[],1311.631,1313.631,1313.631,1323.115,[],[],[],[],[],[],[],z,1323.115,1323.115,-0.154444444,0.327777778,0,0,0,,0,149,149,12,1,2,RL,gralekul,cursive,gralekul_c.png,9.477,,,,,
,,,,32322,001,2025-12-02_17h27.00.954,HW_LDT_1,2024.2.4,MacIntel,58.82352941,,,,,,,,,,,,,,,,,,,,,,1323.115,1323.315,1323.315,1323.815,,,,,,,,,,,,,,3.939,1,,,,,,,,,,,,,,m,,,,,,,,,,,,,,,,151,0,1323.815,1327.765,m,1,3.939,,[],[],[],[],[],[],[],1327.765,1329.765,1329.765,1329.766,[],[],[],[],[],[],[],,1329.766,1329.766,-0.154444444,0.327777778,0,0,0,,0,150,150,122,1,2,word,MOBILE,print,mobile_p.png,,,,,,
,,,,32322,001,2025-12-02_17h27.00.954,HW_LDT_1,2024.2.4,MacIntel,58.82352941,,,,,,,,,,,,,,,,,,,,,,1329.767,1329.965,1329.965,1330.465,,,,,,,,,,,,,,2.256,1,,,,,,,,,,,,,,m,,,,,,,,,,,,,,,,152,0,1330.465,1332.731,m,1,2.256,,[],[],[],[],[],[],[],1332.731,1334.732,1334.732,1334.733,[],[],[],[],[],[],[],,1334.733,1334.733,-0.095555556,-0.102222222,0,0,0,,0,151,151,84,1,2,word,BELOVED,cursive,beloved_c.png,,,,,,
,,,,32322,001,2025-12-02_17h27.00.954,HW_LDT_1,2024.2.4,MacIntel,58.82352941,,,,,,,,,,,,,,,,,,,,,,1334.734,1334.932,1334.932,1335.432,,,,,,,,,,,,,,1.805,1,,,,,,,,,,,,,,m,,,,,,,,,,,,,,,,153,0,1335.433,1337.249,m,1,1.805,,[],[],[],[],[],[],[],1337.249,1339.248,1339.249,1339.249,[],[],[],[],[],[],[],,1339.249,1339.249,-0.095555556,-0.102222222,0,0,0,,0,152,152,139,1,2,word,REGULAR,cursive,regular_c.png,,,,,,
,,,,32322,001,2025-12-02_17h27.00.954,HW_LDT_1,2024.2.4,MacIntel,58.82352941,,,,,,,,,,,,,,,,,,,,,,1339.249,1339.449,1339.449,1339.948,,,,,,,,,,,,,,2.045,0,,,,,,,,,,,,,,m,,,,,,,,,,,,,,,,154,1,1339.948,1341.998,z,0,2.045,,[],[],[],[],[],[],[],1341.999,1343.999,1343.999,1346.315,[],[],[],[],[],[],[],m,1346.315,1346.316,-0.095555556,-0.102222222,0,0,0,,0,153,153,111,1,2,word,INDICATE,cursive,indicate_c.png,2.312,,,,,
,,,,32322,001,2025-12-02_17h27.00.954,HW_LDT_1,2024.2.4,MacIntel,58.82352941,,,,,,,,,,,,,,,,,,,,,,1346.317,1346.516,1346.516,1347.016,,,,,,,,,,,,,,3.739,1,,,,,,,,,,,,,,z,,,,,,,,,,,,,,,,155,0,1347.016,1350.766,z,1,3.739,,[],[],[],[],[],[],[],1350.766,1352.766,1352.766,1352.766,[],[],[],[],[],[],[],,1352.767,1352.767,-0.095555556,-0.102222222,0,0,0,,0,154,154,49,1,2,TL,dedace,print,dedace_p.png,,,,,,
,,,,32322,001,2025-12-02_17h27.00.954,HW_LDT_1,2024.2.4,MacIntel,58.82352941,,,,,,,,,,,,,,,,,,,,,,1352.768,1352.966,1352.966,1353.465,,,,,,,,,,,,,,4.14,1,,,,,,,,,,,,,,z,,,,,,,,,,,,,,,,156,0,1353.465,1357.616,z,1,4.14,,[],[],[],[],[],[],[],1357.616,1359.616,1359.616,1359.617,[],[],[],[],[],[],[],,1359.617,1359.617,-0.095555556,-0.102222222,0,0,0,,0,155,155,39,1,2,TL,aminal,print,aminal_p.png,,,,,,
,,,,32322,001,2025-12-02_17h27.00.954,HW_LDT_1,2024.2.4,MacIntel,58.82352941,,,,,,,,,,,,,,,,,,,,,,1359.618,1359.816,1359.816,1360.316,,,,,,,,,,,,,,1.005,1,,,,,,,,,,,,,,z,,,,,,,,,,,,,,,,157,0,1360.316,1361.333,z,1,1.005,,[],[],[],[],[],[],[],1361.333,1363.332,1363.332,1363.333,[],[],[],[],[],[],[],,1363.333,1363.333,-0.095555556,-0.102222222,0,0,0,,0,156,156,0,1,2,RL,adnicory,print,adnicory_p.png,,,,,,
,,,,32322,001,2025-12-02_17h27.00.954,HW_LDT_1,2024.2.4,MacIntel,58.82352941,,,,,,,,,,,,,,,,,,,,,,1363.335,1363.533,1363.533,1364.033,,,,,,,,,,,,,,1.505,1,,,,,,,,,,,,,,m,,,,,,,,,,,,,,,,158,0,1364.033,1365.549,m,1,1.505,,[],[],[],[],[],[],[],1365.549,1367.55,1367.55,1367.55,[],[],[],[],[],[],[],,1367.55,1367.55,-0.095555556,-0.102222222,0,0,0,,0,157,157,135,1,2,word,QUALITY,cursive,quality_c.png,,,,,,
,,,,32322,001,2025-12-02_17h27.00.954,HW_LDT_1,2024.2.4,MacIntel,58.82352941,,,,,,,,,,,,,,,,,,,,,,1367.551,1367.75,1367.75,1368.249,,,,,,,,,,,,,,6.33,1,,,,,,,,,,,,,,m,,,,,,,,,,,,,,,,159,0,1368.249,1374.583,m,1,6.33,,[],[],[],[],[],[],[],1374.583,1376.584,1376.584,1376.585,[],[],[],[],[],[],[],,1376.585,1376.586,-0.095555556,-0.102222222,0,0,0,,0,158,158,114,1,2,word,LOCATE,print,locate_p.png,,,,,,
,,,,32322,001,2025-12-02_17h27.00.954,HW_LDT_1,2024.2.4,MacIntel,58.82352941,,,,,,,,,,,,,,,,,,,,,,1376.587,1376.783,1376.783,1377.283,,,,,,,,,,,,,,1.724,1,,,,,,,,,,,,,,z,,,,,,,,,,,,,,,,160,0,1377.285,1379.017,z,1,1.724,,[],[],[],[],[],[],[],1379.017,1381.017,1381.017,1381.018,[],[],[],[],[],[],[],,1381.018,1381.018,-0.095555556,-0.102222222,0,0,0,,0,159,159,75,1,2,TL,ronamtic,print,ronamtic_p.png,,,,,,
,,,,32322,001,2025-12-02_17h27.00.954,HW_LDT_1,2024.2.4,MacIntel,58.82352941,,,,,,,,,,,,,,,,,,,,,,,,,,,,,,,,,,,,,,,,,,,,,,,,,,,,,,,,,,,,,,,,,,,,,,,,,,,,,,,,,,,,,,,,,,,,,,,,,,,,,,,,,,,,,,,,,,,,,,,1381.027,1386.017
