counterbalance_lists.group,counterbalance_lists.remaining,get_list.started,get_list.stopped,participant,session,date,expName,psychopyVersion,OS,frameRate,Instructions.started,Instructions.stopped,key_resp.keys,instr_done_touch.x,instr_done_touch.y,instr_done_touch.leftButton,instr_done_touch.midButton,instr_done_touch.rightButton,instr_done_touch.clicked_name,start_instr.thisRepN,start_instr.thisTrialN,start_instr.thisN,start_instr.thisIndex,start_instr.ran,pageN,phase,instruct_text,has_image,instruct_image,showProgress.started,showProgress.stopped,fix.started,fix.stopped,prac.started,prac.stopped,response.keys,response.corr,touch_resp.x,touch_resp.y,touch_resp.leftButton,touch_resp.midButton,touch_resp.rightButton,touch_resp.time,touch_resp.clicked_name,rt,corr,feedback.started,feedback.stopped,trials.thisRepN,trials.thisTrialN,trials.thisN,trials.thisIndex,trials.ran,TrialID,StimulusType,Condition,PrimeDuration,Prime,Target,corrAns,response.rt,response.duration,Instructions_expt.started,Instructions_expt.stopped,key_resp_3.keys,instr_done_touch_3.x,instr_done_touch_3.y,instr_done_touch_3.leftButton,instr_done_touch_3.midButton,instr_done_touch_3.rightButton,instr_done_touch_3.clicked_name,instr_experiment.thisRepN,instr_experiment.thisTrialN,instr_experiment.thisN,instr_experiment.thisIndex,instr_experiment.ran,trialID,flag,maintask.started,maintask.stopped,key_resp_2.keys,key_resp_2.corr,key_resp_2.rt,key_resp_2.duration,targ_click.x,targ_click.y,targ_click.leftButton,targ_click.midButton,targ_click.rightButton,targ_click.time,targ_click.clicked_name,ITI.started,ITI.stopped,probe.started,probe.stopped,click_probe.x,click_probe.y,click_probe.leftButton,click_probe.midButton,click_probe.rightButton,click_probe.time,click_probe.clicked_name,key_resp_probe.keys,Break.started,Break.stopped,break_done_touch.x,break_done_touch.y,break_done_touch.leftButton,break_done_touch.midButton,break_done_touch.rightButton,break_done_keyboard.keys,list2_trials.thisRepN,list2_trials.thisTrialN,list2_trials.thisN,list2_trials.thisIndex,list2_trials.ran,list_id,item_type,string,font,stim_file,break_done_touch.clicked_name,key_resp_probe.rt,key_resp_probe.duration,End.started,End.stopped
list2,,0.6781,0.6784,32333,001,2025-11-10_20h48.49.675,HW_LDT_1,2024.2.4,Win32,59.88023952,,,,,,,,,,,,,,,,,,,,,,,,,,,,,,,,,,,,,,,,,,,,,,,,,,,,,,,,,,,,,,,,,,,,,,,,,,,,,,,,,,,,,,,,,,,,,,,,,,,,,,,,,,,,,,,,,,,,
,,,,32333,001,2025-11-10_20h48.49.675,HW_LDT_1,2024.2.4,Win32,59.88023952,0.7081,27.6686,,-0.089814758,-0.378703732,1,0,0,instr_done_button,0,0,0,0,1,1,instructions,"INSTRUCTIONS
At the start of each trial, look at the plus sign  (+) in the center of the screen.  This tells you that a trial is about to begin and where to look. Second, the plus sign will disappear and a string of letters will appear. Your task is to determine if the string of letters is a word or not. If the item is a word press the M key (on keyboard)  or touch the word button (phone/tablet).  If the item is not a word,  press the  Z key (on keyboard)  or touch the nonword button (on phone/tablet). The items will be presented for a short time. 
Press the space bar or touch  continue.",0,,,,,,,,,,,,,,,,,,,,,,,,,,,,,,,,,,,,,,,,,,,,,,,,,,,,,,,,,,,,,,,,,,,,,,,,,,,,,,,,,,,,,,,,,,,,,,,,,,
,,,,32333,001,2025-11-10_20h48.49.675,HW_LDT_1,2024.2.4,Win32,59.88023952,27.6714,31.6927,,-0.112036981,-0.410185242,1,0,0,instr_done_button,0,1,1,1,1,2,instructions,"If your device has a keyboard, press the 'Z' key for nonwords and the 'M' key for words.





Press the space bar or touch the button below to continue.",0,keyboard-example.gif,,,,,,,,,,,,,,,,,,,,,,,,,,,,,,,,,,,,,,,,,,,,,,,,,,,,,,,,,,,,,,,,,,,,,,,,,,,,,,,,,,,,,,,,,,,,,,,,,
,,,,32333,001,2025-11-10_20h48.49.675,HW_LDT_1,2024.2.4,Win32,59.88023952,31.6959,35.1428,,-0.091666667,-0.384259288,1,0,0,instr_done_button,0,2,2,2,1,3,instructions,"If you are using a touchscreen only device, use the buttons on the screen. Do not use the mouse.





Press the space bar or touch the button below to continue.",0,touchscreen-example.gif,,,,,,,,,,,,,,,,,,,,,,,,,,,,,,,,,,,,,,,,,,,,,,,,,,,,,,,,,,,,,,,,,,,,,,,,,,,,,,,,,,,,,,,,,,,,,,,,,
,,,,32333,001,2025-11-10_20h48.49.675,HW_LDT_1,2024.2.4,Win32,59.88023952,35.1475,40.2821,,-0.091666667,-0.384259288,1,0,0,instr_done_button,0,3,3,3,1,4,instructions,"It is very important that you respond as quickly and accurately as possible, as each letter string will only be on the screen for two seconds. If you do not respond within this time, the message 'Too slow!' will be displayed and the experiment will progress to the next letter string. The first 20 trials will be practice trials and you will receive feedback on your answers. 

Press the space bar or touch the button below to start the practice trials.",0,,,,,,,,,,,,,,,,,,,,,,,,,,,,,,,,,,,,,,,,,,,,,,,,,,,,,,,,,,,,,,,,,,,,,,,,,,,,,,,,,,,,,,,,,,,,,,,,,,
,,,,32333,001,2025-11-10_20h48.49.675,HW_LDT_1,2024.2.4,Win32,59.88023952,,,,,,,,,,,,,,,,,,,,40.3445,40.4763,40.4765,40.9761,40.9764,42.9101,,0,[-0.3],[-0.2990741305881076],[1],[0],[0],[1.927700000003],"[""button_left""]",1.9277,1,42.9106,43.4096,0,0,0,8,1,1009,NW,"ID",33,aslert,ASLERT,z,,,,,,,,,,,,,,,,,,,,,,,,,,,,,,,,,,,,,,,,,,,,,,,,,,,,,,,,,,,,,,,,,,
,,,,32333,001,2025-11-10_20h48.49.675,HW_LDT_1,2024.2.4,Win32,59.88023952,,,,,,,,,,,,,,,,,,,,43.4115,43.6096,43.6096,44.1095,44.1116,45.5651,,0,[0.4018519083658854],[-0.3268519083658854],[1],[0],[0],[1.4525000000000148],"[""button_right""]",1.4525,1,45.5653,46.0644,0,1,1,5,1,1006,WORD,UN,33,frenzy,OBTAIN,m,,,,,,,,,,,,,,,,,,,,,,,,,,,,,,,,,,,,,,,,,,,,,,,,,,,,,,,,,,,,,,,,,,
,,,,32333,001,2025-11-10_20h48.49.675,HW_LDT_1,2024.2.4,Win32,59.88023952,,,,,,,,,,,,,,,,,,,,46.0664,46.2427,46.2428,46.7638,46.766,48.5762,,0,[-0.2787036895751953],[-0.2629630194769965],[1],[0],[0],[1.80920000000296],"[""button_left""]",1.8092,1,48.5764,49.0803,0,2,2,12,1,1013,NW,UN,33,adveil,SPRINY,z,,,,,,,,,,,,,,,,,,,,,,,,,,,,,,,,,,,,,,,,,,,,,,,,,,,,,,,,,,,,,,,,,,
,,,,32333,001,2025-11-10_20h48.49.675,HW_LDT_1,2024.2.4,Win32,59.88023952,,,,,,,,,,,,,,,,,,,,49.0825,49.276,49.276,49.7797,49.7816,50.8989,m,1,[],[],[],[],[],[],[],1.1012,1,50.899,51.3926,0,3,3,3,1,1004,WORD,"ID",16,matrix,MATRIX,m,1.1012,,,,,,,,,,,,,,,,,,,,,,,,,,,,,,,,,,,,,,,,,,,,,,,,,,,,,,,,,,,,,,,,,
,,,,32333,001,2025-11-10_20h48.49.675,HW_LDT_1,2024.2.4,Win32,59.88023952,,,,,,,,,,,,,,,,,,,,51.3945,51.5926,51.5927,52.0924,52.0935,52.9265,m,1,[],[],[],[],[],[],[],0.8074,1,52.9267,53.4308,0,4,4,6,1,1007,WORD,UN,16,tropic,ZOMBIE,m,0.8074,,,,,,,,,,,,,,,,,,,,,,,,,,,,,,,,,,,,,,,,,,,,,,,,,,,,,,,,,,,,,,,,,
,,,,32333,001,2025-11-10_20h48.49.675,HW_LDT_1,2024.2.4,Win32,59.88023952,,,,,,,,,,,,,,,,,,,,53.4326,53.626,53.6261,54.1305,54.1324,54.8818,z,1,[],[],[],[],[],[],[],0.7341,1,54.8821,55.381,0,5,5,10,1,1011,NW,"ID",16,inlade,INLADE,z,0.7341,,,,,,,,,,,,,,,,,,,,,,,,,,,,,,,,,,,,,,,,,,,,,,,,,,,,,,,,,,,,,,,,,
,,,,32333,001,2025-11-10_20h48.49.675,HW_LDT_1,2024.2.4,Win32,59.88023952,,,,,,,,,,,,,,,,,,,,55.3829,55.5805,55.5805,56.076,56.077,56.626,m,1,[],[],[],[],[],[],[],0.5272,1,56.6262,57.1308,0,6,6,2,1,1003,WORD,"ID",16,almond,ALMOND,m,0.5272,,,,,,,,,,,,,,,,,,,,,,,,,,,,,,,,,,,,,,,,,,,,,,,,,,,,,,,,,,,,,,,,,
,,,,32333,001,2025-11-10_20h48.49.675,HW_LDT_1,2024.2.4,Win32,59.88023952,,,,,,,,,,,,,,,,,,,,57.133,57.3307,57.3308,57.8292,57.8309,58.9592,z,1,[],[],[],[],[],[],[],1.1055,1,58.9595,59.4476,0,7,7,9,1,1010,NW,"ID",33,fariny,FARINY,z,1.1055,,,,,,,,,,,,,,,,,,,,,,,,,,,,,,,,,,,,,,,,,,,,,,,,,,,,,,,,,,,,,,,,,
,,,,32333,001,2025-11-10_20h48.49.675,HW_LDT_1,2024.2.4,Win32,59.88023952,,,,,,,,,,,,,,,,,,,,59.4498,59.6425,59.6426,60.1427,60.1444,61.0928,z,1,[],[],[],[],[],[],[],0.9191,1,61.093,61.5978,0,8,8,15,1,1016,NW,UN,16,mushed,WHAISE,z,0.9191,,,,,,,,,,,,,,,,,,,,,,,,,,,,,,,,,,,,,,,,,,,,,,,,,,,,,,,,,,,,,,,,,
,,,,32333,001,2025-11-10_20h48.49.675,HW_LDT_1,2024.2.4,Win32,59.88023952,,,,,,,,,,,,,,,,,,,,61.5994,61.7925,61.7926,62.2972,62.2983,63.032,z,1,[],[],[],[],[],[],[],0.7178,1,63.0321,63.5259,0,9,9,14,1,1015,NW,UN,16,miaber,THRALE,z,0.7178,,,,,,,,,,,,,,,,,,,,,,,,,,,,,,,,,,,,,,,,,,,,,,,,,,,,,,,,,,,,,,,,,
,,,,32333,001,2025-11-10_20h48.49.675,HW_LDT_1,2024.2.4,Win32,59.88023952,,,,,,,,,,,,,,,,,,,,63.5273,63.714,63.714,64.2138,64.2157,65.0594,m,1,[],[],[],[],[],[],[],0.8244,1,65.0597,65.5474,0,10,10,0,1,1001,WORD,"ID",33,utopia,UTOPIA,m,0.8244,,,,,,,,,,,,,,,,,,,,,,,,,,,,,,,,,,,,,,,,,,,,,,,,,,,,,,,,,,,,,,,,,
,,,,32333,001,2025-11-10_20h48.49.675,HW_LDT_1,2024.2.4,Win32,59.88023952,,,,,,,,,,,,,,,,,,,,65.5492,65.7476,65.7476,66.2471,66.2485,67.3265,m,1,[],[],[],[],[],[],[],1.0592,1,67.3266,67.8261,0,11,11,1,1,1002,WORD,"ID",33,adjust,ADJUST,m,1.0592,,,,,,,,,,,,,,,,,,,,,,,,,,,,,,,,,,,,,,,,,,,,,,,,,,,,,,,,,,,,,,,,,
,,,,32333,001,2025-11-10_20h48.49.675,HW_LDT_1,2024.2.4,Win32,59.88023952,,,,,,,,,,,,,,,,,,,,67.8275,68.0261,68.0262,68.5308,68.5326,69.265,m,1,[],[],[],[],[],[],[],0.7172,1,69.2652,69.7594,0,12,12,7,1,1008,WORD,UN,16,hurdle,VOLUME,m,0.7172,,,,,,,,,,,,,,,,,,,,,,,,,,,,,,,,,,,,,,,,,,,,,,,,,,,,,,,,,,,,,,,,,
,,,,32333,001,2025-11-10_20h48.49.675,HW_LDT_1,2024.2.4,Win32,59.88023952,,,,,,,,,,,,,,,,,,,,69.7607,69.9638,69.9638,70.4472,70.4482,71.1927,z,1,[],[],[],[],[],[],[],0.7244,1,71.1929,71.6809,0,13,13,13,1,1014,NW,UN,33,winfer,ROUPET,z,0.7244,,,,,,,,,,,,,,,,,,,,,,,,,,,,,,,,,,,,,,,,,,,,,,,,,,,,,,,,,,,,,,,,,
,,,,32333,001,2025-11-10_20h48.49.675,HW_LDT_1,2024.2.4,Win32,59.88023952,,,,,,,,,,,,,,,,,,,,71.6826,71.876,71.876,72.3758,72.3769,73.3597,z,1,[],[],[],[],[],[],[],0.9555,1,73.36,73.8595,0,14,14,11,1,1012,NW,"ID",16,rashet,RASHET,z,0.9555,,,,,,,,,,,,,,,,,,,,,,,,,,,,,,,,,,,,,,,,,,,,,,,,,,,,,,,,,,,,,,,,,
,,,,32333,001,2025-11-10_20h48.49.675,HW_LDT_1,2024.2.4,Win32,59.88023952,,,,,,,,,,,,,,,,,,,,73.861,74.0474,74.0475,74.5473,74.5493,75.2803,m,1,[],[],[],[],[],[],[],0.7162,1,75.2805,75.7804,0,15,15,4,1,1005,WORD,UN,33,abound,SQUEAK,m,0.7162,,,,,,,,,,,,,,,,,,,,,,,,,,,,,,,,,,,,,,,,,,,,,,,,,,,,,,,,,,,,,,,,,
,,,,32333,001,2025-11-10_20h48.49.675,HW_LDT_1,2024.2.4,Win32,59.88023952,,,,,,,,,,,,,,,1,end_of_practice,"You have completed the practice trials. During the experimental trials, you will not receive feedback. On some trials you will be asked to report whether the item you just saw was in cursive or print. 
Before you begin, please ensure that you are in a comfortable and quiet location and will not be disturbed for about 15 minutes, as we cannot use your data if you do not complete all the trials. 
 When you are ready to start the experimental trials, please press space or touch the button below.",,,,,,,,,,,,,,,,,,,,,,,,,,,,,,,,,,,,75.7879,80.1764,,-0.097222222,-0.399074131,1,0,0,instr_done_button_3,0,0,0,0,1,,,,,,,,,,,,,,,,,,,,,,,,,,,,,,,,,,,,,,,,,,,,,,,,,,
,,,,32333,001,2025-11-10_20h48.49.675,HW_LDT_1,2024.2.4,Win32,59.88023952,,,,,,,,,,,,,,,,,,,,80.1924,80.3646,80.3647,80.8762,,,,,,,,,,,,0.7852,1,,,,,,,,,,,,,,z,,,,,,,,,,,,,,,,,1,0,80.8772,81.6653,z,1,0.7852,,[],[],[],[],[],[],[],81.6657,83.6646,83.665,83.6687,[],[],[],[],[],[],[],,83.6689,83.6749,-0.105555556,-0.249074131,0,0,0,,0,0,0,8,1,2,RL,desifate,print,desifate_p.png,,,,,
,,,,32333,001,2025-11-10_20h48.49.675,HW_LDT_1,2024.2.4,Win32,59.88023952,,,,,,,,,,,,,,,,,,,,83.6765,83.8643,83.8643,84.3639,,,,,,,,,,,,2.3056,1,,,,,,,,,,,,,,z,,,,,,,,,,,,,,,,,2,0,84.3649,86.6765,z,1,2.3056,,[],[],[],[],[],[],[],86.6768,88.6797,88.6798,88.6801,[],[],[],[],[],[],[],,88.6802,88.6804,-0.105555556,-0.249074131,0,0,0,,0,1,1,12,1,2,RL,gralekul,cursive,gralekul_c.png,,,,,
,,,,32333,001,2025-11-10_20h48.49.675,HW_LDT_1,2024.2.4,Win32,59.88023952,,,,,,,,,,,,,,,,,,,,88.6816,88.8762,88.8762,89.3809,,,,,,,,,,,,1.2243,1,,,,,,,,,,,,,,z,,,,,,,,,,,,,,,,,3,0,89.3817,90.6095,z,1,1.2243,,[],[],[],[],[],[],[],90.6097,92.6095,92.6095,92.6099,[],[],[],[],[],[],[],,92.61,92.6101,-0.105555556,-0.249074131,0,0,0,,0,2,2,4,1,2,RL,cenesony,print,cenesony_p.png,,,,,
,,,,32333,001,2025-11-10_20h48.49.675,HW_LDT_1,2024.2.4,Win32,59.88023952,,,,,,,,,,,,,,,,,,,,92.6113,92.8096,92.8097,93.3093,,,,,,,,,,,,0.8946,1,,,,,,,,,,,,,,m,,,,,,,,,,,,,,,,,4,0,93.3102,94.2097,m,1,0.8946,,[],[],[],[],[],[],[],94.2098,96.1978,96.1978,96.1982,[],[],[],[],[],[],[],,96.1983,96.1986,-0.105555556,-0.249074131,0,0,0,,0,3,3,99,1,2,word,DEBATE,print,debate_p.png,,,,,
,,,,32333,001,2025-11-10_20h48.49.675,HW_LDT_1,2024.2.4,Win32,59.88023952,,,,,,,,,,,,,,,,,,,,96.1999,96.3976,96.3977,96.8928,,,,,,,,,,,,1.7537,1,,,,,,,,,,,,,,m,,,,,,,,,,,,,,,,,5,0,96.8936,98.6483,m,1,1.7537,,[],[],[],[],[],[],[],98.6484,100.6431,100.6433,100.6437,[],[],[],[],[],[],[],,100.6437,100.6439,-0.105555556,-0.249074131,0,0,0,,0,4,4,82,1,2,word,AMATEUR,cursive,amateur_c.png,,,,,
,,,,32333,001,2025-11-10_20h48.49.675,HW_LDT_1,2024.2.4,Win32,59.88023952,,,,,,,,,,,,,,,,,,,,100.6451,100.8473,100.8474,101.3479,,,,,,,,,,,,1.0154,1,,,,,,,,,,,,,,m,,,,,,,,,,,,,,,,,6,0,101.3486,102.3654,m,1,1.0154,,[],[],[],[],[],[],[],102.3656,104.3597,104.3598,104.3602,[],[],[],[],[],[],[],,104.3603,104.3605,-0.105555556,-0.249074131,0,0,0,,0,5,5,86,1,2,word,BESIDE,cursive,beside_c.png,,,,,
,,,,32333,001,2025-11-10_20h48.49.675,HW_LDT_1,2024.2.4,Win32,59.88023952,,,,,,,,,,,,,,,,,,,,104.3616,104.5597,104.5597,105.0596,,,,,,,,,,,,0.8036,1,,,,,,,,,,,,,,m,,,,,,,,,,,,,,,,,7,0,105.0603,105.8651,m,1,0.8036,,[],[],[],[],[],[],[],105.8652,107.8598,107.8599,107.8603,[],[],[],[],[],[],[],,107.8603,107.8604,-0.105555556,-0.249074131,0,0,0,,0,6,6,114,1,2,word,LOCATE,print,locate_p.png,,,,,
,,,,32333,001,2025-11-10_20h48.49.675,HW_LDT_1,2024.2.4,Win32,59.88023952,,,,,,,,,,,,,,,,,,,,107.8615,108.0643,108.0643,108.5595,,,,,,,,,,,,0.8101,1,,,,,,,,,,,,,,m,,,,,,,,,,,,,,,,,8,0,108.5601,109.3765,m,1,0.8101,,[],[],[],[],[],[],[],109.3766,111.3644,111.3646,111.3648,[],[],[],[],[],[],[],,111.365,111.3653,-0.105555556,-0.249074131,0,0,0,,0,7,7,154,1,2,word,STORAGE,print,storage_p.png,,,,,
,,,,32333,001,2025-11-10_20h48.49.675,HW_LDT_1,2024.2.4,Win32,59.88023952,,,,,,,,,,,,,,,,,,,,111.3667,111.5643,111.5643,112.0596,,,,,,,,,,,,0.6603,1,,,,,,,,,,,,,,m,,,,,,,,,,,,,,,,,9,0,112.0603,112.7265,m,1,0.6603,,[],[],[],[],[],[],[],112.7267,114.7307,114.7309,114.7311,[],[],[],[],[],[],[],,114.7313,114.7314,-0.105555556,-0.249074131,0,0,0,,0,8,8,108,1,2,word,FORTUNE,print,fortune_p.png,,,,,
,,,,32333,001,2025-11-10_20h48.49.675,HW_LDT_1,2024.2.4,Win32,59.88023952,,,,,,,,,,,,,,,,,,,,114.7328,114.9264,114.9264,115.4268,,,,,,,,,,,,2.1229,1,,,,,,,,,,,,,,z,,,,,,,,,,,,,,,,,10,0,115.4275,117.56,z,1,2.1229,,[],[],[],[],[],[],[],117.5601,119.56,119.56,119.5603,[],[],[],[],[],[],[],,119.5603,119.5604,-0.105555556,-0.249074131,0,0,0,,0,9,9,45,1,2,TL,carnidal,cursive,carnidal_c.png,,,,,
,,,,32333,001,2025-11-10_20h48.49.675,HW_LDT_1,2024.2.4,Win32,59.88023952,,,,,,,,,,,,,,,,,,,,119.5619,119.7597,119.7598,120.2599,,,,,,,,,,,,0.873,1,,,,,,,,,,,,,,z,,,,,,,,,,,,,,,,,11,0,120.2606,121.1434,z,1,0.873,,[],[],[],[],[],[],[],121.1435,123.143,123.1431,123.1433,[],[],[],[],[],[],[],,123.1434,123.1437,-0.105555556,-0.249074131,0,0,0,,0,10,10,78,1,2,TL,stogare,print,stogare_p.png,,,,,
,,,,32333,001,2025-11-10_20h48.49.675,HW_LDT_1,2024.2.4,Win32,59.88023952,,,,,,,,,,,,,,,,,,,,123.1448,123.343,123.3431,123.8476,,,,,,,,,,,,1.1487,1,,,,,,,,,,,,,,m,,,,,,,,,,,,,,,,,12,0,123.8482,124.9977,m,1,1.1487,,[],[],[],[],[],[],[],124.9978,126.9974,126.9975,126.9978,[],[],[],[],[],[],[],,126.9978,126.998,-0.105555556,-0.249074131,0,0,0,,0,11,11,129,1,2,word,PARENT,print,parent_p.png,,,,,
,,,,32333,001,2025-11-10_20h48.49.675,HW_LDT_1,2024.2.4,Win32,59.88023952,,,,,,,,,,,,,,,,,,,,126.9995,127.1965,127.1966,127.6931,,,,,,,,,,,,2.054,0,,,,,,,,,,,,,,m,,,,,,,,,,,,,,,,,13,0,127.6938,129.7488,z,0,2.054,,[],[],[],[],[],[],[],129.749,131.7434,131.7434,131.7437,[],[],[],[],[],[],[],,131.7437,131.7439,-0.105555556,-0.249074131,0,0,0,,0,12,12,90,1,2,word,CAPITAL,cursive,capital_c.png,,,,,
,,,,32333,001,2025-11-10_20h48.49.675,HW_LDT_1,2024.2.4,Win32,59.88023952,,,,,,,,,,,,,,,,,,,,131.7452,131.9484,131.9485,132.4436,,,,,,,,,,,,0.7531,1,,,,,,,,,,,,,,m,,,,,,,,,,,,,,,,,14,0,132.4442,133.1985,m,1,0.7531,,[],[],[],[],[],[],[],133.1985,135.1981,135.1982,135.1985,[],[],[],[],[],[],[],,135.1986,135.1988,-0.105555556,-0.249074131,0,0,0,,0,13,13,130,1,2,word,POLICY,print,policy_p.png,,,,,
,,,,32333,001,2025-11-10_20h48.49.675,HW_LDT_1,2024.2.4,Win32,59.88023952,,,,,,,,,,,,,,,,,,,,135.2002,135.3934,135.3935,135.893,,,,,,,,,,,,0.8086,1,,,,,,,,,,,,,,z,,,,,,,,,,,,,,,,,15,0,135.8938,136.71,z,1,0.8086,,[],[],[],[],[],[],[],136.7101,138.7141,138.7142,138.7145,[],[],[],[],[],[],[],,138.7146,138.7148,-0.105555556,-0.249074131,0,0,0,,0,14,14,18,1,2,RL,mesibine,print,mesibine_p.png,,,,,
,,,,32333,001,2025-11-10_20h48.49.675,HW_LDT_1,2024.2.4,Win32,59.88023952,,,,,,,,,,,,,,,,,,,,138.7161,138.9099,138.91,139.4143,,,,,,,,,,,,0.8161,1,,,,,,,,,,,,,,z,,,,,,,,,,,,,,,,,16,0,139.4148,140.2321,z,1,0.8161,,[],[],[],[],[],[],[],140.2322,142.2266,142.2266,142.2269,[],[],[],[],[],[],[],,142.227,142.2271,-0.105555556,-0.249074131,0,0,0,,0,15,15,9,1,2,RL,denficy,print,denficy_p.png,,,,,
,,,,32333,001,2025-11-10_20h48.49.675,HW_LDT_1,2024.2.4,Win32,59.88023952,,,,,,,,,,,,,,,,,,,,142.2284,142.4266,142.4267,142.9266,,,,,,,,,,,,1.1603,0,,,,,,,,,,,,,,m,,,,,,,,,,,,,,,,,17,0,142.9273,144.0935,z,0,1.1603,,[],[],[],[],[],[],[],144.0935,146.098,146.0981,146.0984,[],[],[],[],[],[],[],,146.0986,146.0986,-0.105555556,-0.249074131,0,0,0,,0,16,16,106,1,2,word,ELABORATE,cursive,elaborate_c.png,,,,,
,,,,32333,001,2025-11-10_20h48.49.675,HW_LDT_1,2024.2.4,Win32,59.88023952,,,,,,,,,,,,,,,,,,,,146.1,146.2931,146.2932,146.7979,,,,,,,,,,,,0.649,0,,,,,,,,,,,,,,z,,,,,,,,,,,,,,,,,18,0,146.7987,147.4489,m,0,0.649,,[],[],[],[],[],[],[],147.4489,149.4477,149.4477,149.448,[],[],[],[],[],[],[],,149.4481,149.4483,-0.105555556,-0.249074131,0,0,0,,0,17,17,70,1,2,TL,retalive,print,retalive_p.png,,,,,
,,,,32333,001,2025-11-10_20h48.49.675,HW_LDT_1,2024.2.4,Win32,59.88023952,,,,,,,,,,,,,,,,,,,,149.4498,149.6436,149.6437,150.1433,,,,,,,,,,,,2.3036,1,,,,,,,,,,,,,,z,,,,,,,,,,,,,,,,,19,0,150.1439,152.4486,z,1,2.3036,,[],[],[],[],[],[],[],152.4488,154.4439,154.444,154.4443,[],[],[],[],[],[],[],,154.4444,154.4446,-0.105555556,-0.249074131,0,0,0,,0,18,18,40,1,2,TL,bevoled,cursive,bevoled_c.png,,,,,
,,,,32333,001,2025-11-10_20h48.49.675,HW_LDT_1,2024.2.4,Win32,59.88023952,,,,,,,,,,,,,,,,,,,,154.4457,154.6433,154.6433,155.1476,,,,,,,,,,,,0.6996,1,,,,,,,,,,,,,,z,,,,,,,,,,,,,,,,,20,0,155.1483,155.849,z,1,0.6996,,[],[],[],[],[],[],[],155.8491,157.8438,157.8438,157.8441,[],[],[],[],[],[],[],,157.8441,157.8441,-0.105555556,-0.249074131,0,0,0,,0,19,19,25,1,2,RL,rabigly,print,rabigly_p.png,,,,,
,,,,32333,001,2025-11-10_20h48.49.675,HW_LDT_1,2024.2.4,Win32,59.88023952,,,,,,,,,,,,,,,,,,,,157.8454,158.0433,158.0433,158.5432,,,,,,,,,,,,1.0541,1,,,,,,,,,,,,,,m,,,,,,,,,,,,,,,,,21,1,158.5438,159.5991,m,1,1.0541,,[],[],[],[],[],[],[],159.5992,161.5983,161.5983,164.9493,[0.425],[-0.29629635281032984],[1],[0],[0],[3.3507000000029734],"[""button_right_probe""]",,164.9494,164.9496,0.425,-0.296296353,1,0,0,,0,20,20,112,1,2,word,LIBERAL,print,liberal_p.png,,,,,
,,,,32333,001,2025-11-10_20h48.49.675,HW_LDT_1,2024.2.4,Win32,59.88023952,,,,,,,,,,,,,,,,,,,,164.951,165.1437,165.1437,165.6438,,,,,,,,,,,,1.5199,1,,,,,,,,,,,,,,z,,,,,,,,,,,,,,,,,22,0,165.6445,167.1651,z,1,1.5199,,[],[],[],[],[],[],[],167.1653,169.1649,169.165,169.1651,[],[],[],[],[],[],[],,169.1653,169.1655,0.13148151,-0.139814843,0,0,0,,0,21,21,30,1,2,RL,selamor,print,selamor_p.png,,,,,
,,,,32333,001,2025-11-10_20h48.49.675,HW_LDT_1,2024.2.4,Win32,59.88023952,,,,,,,,,,,,,,,,,,,,169.1672,169.3649,169.3649,169.8604,,,,,,,,,,,,1.9215,1,,,,,,,,,,,,,,z,,,,,,,,,,,,,,,,,23,0,169.8612,171.7939,z,1,1.9215,,[],[],[],[],[],[],[],171.794,173.7816,173.7816,173.782,[],[],[],[],[],[],[],,173.782,173.7821,0.130555556,-0.137037065,0,0,0,,0,22,22,58,1,2,TL,mitilary,cursive,mitilary_c.png,,,,,
,,,,32333,001,2025-11-10_20h48.49.675,HW_LDT_1,2024.2.4,Win32,59.88023952,,,,,,,,,,,,,,,,,,,,173.784,173.9812,173.9812,174.4769,,,,,,,,,,,,1.6199,1,,,,,,,,,,,,,,m,,,,,,,,,,,,,,,,,24,0,174.4775,176.0984,m,1,1.6199,,[],[],[],[],[],[],[],176.0985,178.0979,178.0981,178.0983,[],[],[],[],[],[],[],,178.0984,178.0986,0.126851908,-0.132407422,0,0,0,,0,23,23,117,1,2,word,MARINE,cursive,marine_c.png,,,,,
,,,,32333,001,2025-11-10_20h48.49.675,HW_LDT_1,2024.2.4,Win32,59.88023952,,,,,,,,,,,,,,,,,,,,178.0999,178.2966,178.2967,178.7938,,,,,,,,,,,,0.7533,1,,,,,,,,,,,,,,m,,,,,,,,,,,,,,,,,25,1,178.7945,179.5487,m,1,0.7533,,[],[],[],[],[],[],[],179.5489,181.5436,181.5437,183.6489,[0.2768519083658854],[-0.31018524169921874],[1],[0],[0],[2.1048999999985085],"[""button_right_probe""]",,183.649,183.6491,0.276851908,-0.310185242,1,0,0,,0,24,24,128,1,2,word,PACIFIC,print,pacific_p.png,,,,,
,,,,32333,001,2025-11-10_20h48.49.675,HW_LDT_1,2024.2.4,Win32,59.88023952,,,,,,,,,,,,,,,,,,,,183.6503,183.8439,183.8439,184.3482,,,,,,,,,,,,2.4667,1,,,,,,,,,,,,,,z,,,,,,,,,,,,,,,,,26,0,184.3489,186.8164,,0,,,[-0.41851849026150173],[-0.2685185750325521],[1],[0],[0],[2.466700000002959],"[""button_left_main""]",186.8165,188.8136,188.8137,188.814,[],[],[],[],[],[],[],,188.8142,188.8142,-0.239814801,-0.160185199,0,0,0,,0,25,25,5,1,2,RL,clisimal,cursive,clisimal_c.png,,,,,
,,,,32333,001,2025-11-10_20h48.49.675,HW_LDT_1,2024.2.4,Win32,59.88023952,,,,,,,,,,,,,,,,,,,,188.8157,189.0104,189.0104,189.5104,,,,,,,,,,,,1.1033,1,,,,,,,,,,,,,,z,,,,,,,,,,,,,,,,,27,0,189.5111,190.6154,z,1,1.1033,,[],[],[],[],[],[],[],190.6157,192.6144,192.6144,192.6146,[],[],[],[],[],[],[],,192.6148,192.6149,-0.239814801,-0.160185199,0,0,0,,0,26,26,11,1,2,RL,formuke,print,formuke_p.png,,,,,
,,,,32333,001,2025-11-10_20h48.49.675,HW_LDT_1,2024.2.4,Win32,59.88023952,,,,,,,,,,,,,,,,,,,,192.6165,192.8148,192.8148,193.3102,,,,,,,,,,,,1.0708,1,,,,,,,,,,,,,,m,,,,,,,,,,,,,,,,,28,0,193.3109,194.3829,m,1,1.0708,,[],[],[],[],[],[],[],194.3829,196.3772,196.3772,196.3775,[],[],[],[],[],[],[],,196.3775,196.3776,-0.239814801,-0.160185199,0,0,0,,0,27,27,116,1,2,word,MARGINAL,cursive,marginal_c.png,,,,,
,,,,32333,001,2025-11-10_20h48.49.675,HW_LDT_1,2024.2.4,Win32,59.88023952,,,,,,,,,,,,,,,,,,,,196.3787,196.5816,196.5816,197.0771,,,,,,,,,,,,0.9875,1,,,,,,,,,,,,,,m,,,,,,,,,,,,,,,,,29,0,197.0775,198.0661,m,1,0.9875,,[],[],[],[],[],[],[],198.0662,200.0639,200.0639,200.0642,[],[],[],[],[],[],[],,200.0642,200.0643,-0.239814801,-0.160185199,0,0,0,,0,28,28,159,1,2,word,VETERAN,print,veteran_p.png,,,,,
,,,,32333,001,2025-11-10_20h48.49.675,HW_LDT_1,2024.2.4,Win32,59.88023952,,,,,,,,,,,,,,,,,,,,200.066,200.2604,200.2605,200.7649,,,,,,,,,,,,0.7661,1,,,,,,,,,,,,,,m,,,,,,,,,,,,,,,,,30,0,200.7655,201.5327,m,1,0.7661,,[],[],[],[],[],[],[],201.5328,203.5318,203.5318,203.5322,[],[],[],[],[],[],[],,203.5323,203.5324,-0.239814801,-0.160185199,0,0,0,,0,29,29,140,1,2,word,RELATIVE,print,relative_p.png,,,,,
,,,,32333,001,2025-11-10_20h48.49.675,HW_LDT_1,2024.2.4,Win32,59.88023952,,,,,,,,,,,,,,,,,,,,203.5339,203.7274,203.7274,204.2272,,,,,,,,,,,,3.055,1,,,,,,,,,,,,,,m,,,,,,,,,,,,,,,,,31,0,204.2279,207.294,m,1,3.055,,[],[],[],[],[],[],[],207.294,209.2973,209.2974,209.2977,[],[],[],[],[],[],[],,209.2977,209.298,-0.239814801,-0.160185199,0,0,0,,0,30,30,150,1,2,word,SENTIMENT,cursive,sentiment_c.png,,,,,
,,,,32333,001,2025-11-10_20h48.49.675,HW_LDT_1,2024.2.4,Win32,59.88023952,,,,,,,,,,,,,,,,,,,,209.2995,209.4971,209.4971,209.9988,,,,,,,,,,,,1.0487,1,,,,,,,,,,,,,,m,,,,,,,,,,,,,,,,,32,0,209.9996,211.0493,m,1,1.0487,,[],[],[],[],[],[],[],211.0495,213.0437,213.0438,213.0441,[],[],[],[],[],[],[],,213.0442,213.0444,-0.239814801,-0.160185199,0,0,0,,0,31,31,104,1,2,word,DOMINANT,print,dominant_p.png,,,,,
,,,,32333,001,2025-11-10_20h48.49.675,HW_LDT_1,2024.2.4,Win32,59.88023952,,,,,,,,,,,,,,,,,,,,213.0455,213.2441,213.2442,213.7439,,,,,,,,,,,,0.746,1,,,,,,,,,,,,,,z,,,,,,,,,,,,,,,,,33,0,213.7446,214.494,z,1,0.746,,[],[],[],[],[],[],[],214.4942,216.4941,216.4941,216.4944,[],[],[],[],[],[],[],,216.4944,216.4944,-0.239814801,-0.160185199,0,0,0,,0,32,32,6,1,2,RL,conbicer,print,conbicer_p.png,,,,,
,,,,32333,001,2025-11-10_20h48.49.675,HW_LDT_1,2024.2.4,Win32,59.88023952,,,,,,,,,,,,,,,,,,,,216.4957,216.6982,216.6983,217.198,,,,,,,,,,,,1.8843,1,,,,,,,,,,,,,,z,,,,,,,,,,,,,,,,,34,0,217.1985,219.0942,z,1,1.8843,,[],[],[],[],[],[],[],219.0944,221.0943,221.0943,221.0948,[],[],[],[],[],[],[],,221.0948,221.0949,-0.249074046,-0.145370399,0,0,0,,0,33,33,19,1,2,RL,monebate,cursive,monebate_c.png,,,,,
,,,,32333,001,2025-11-10_20h48.49.675,HW_LDT_1,2024.2.4,Win32,59.88023952,,,,,,,,,,,,,,,,,,,,221.0967,221.294,221.2941,221.7984,,,,,,,,,,,,0.6418,1,,,,,,,,,,,,,,m,,,,,,,,,,,,,,,,,35,0,221.799,222.4444,m,1,0.6418,,[],[],[],[],[],[],[],222.4445,224.4472,224.4472,224.4476,[],[],[],[],[],[],[],,224.4477,224.448,-0.260185157,-0.139814843,0,0,0,,0,34,34,157,1,2,word,VALIDITY,print,validity_p.png,,,,,
,,,,32333,001,2025-11-10_20h48.49.675,HW_LDT_1,2024.2.4,Win32,59.88023952,,,,,,,,,,,,,,,,,,,,224.4494,224.6486,224.6487,225.1486,,,,,,,,,,,,0.9929,0,,,,,,,,,,,,,,z,,,,,,,,,,,,,,,,,36,0,225.1492,226.1441,m,0,0.9929,,[],[],[],[],[],[],[],226.1442,228.1441,228.1441,228.1443,[],[],[],[],[],[],[],,228.1443,228.1444,-0.260185157,-0.139814843,0,0,0,,0,35,35,64,1,2,TL,paficic,print,paficic_p.png,,,,,
,,,,32333,001,2025-11-10_20h48.49.675,HW_LDT_1,2024.2.4,Win32,59.88023952,,,,,,,,,,,,,,,,,,,,228.1456,228.3441,228.3441,228.8439,,,,,,,,,,,,1.287,1,,,,,,,,,,,,,,z,,,,,,,,,,,,,,,,,37,1,228.8446,230.1324,z,1,1.287,,[],[],[],[],[],[],[],230.1324,232.1274,232.1275,233.9166,[-0.3759259117974175],[-0.309259287516276],[1],[0],[0],[1.788699999995515],"[""button_left_probe""]",,233.9166,233.9169,-0.375925912,-0.309259288,1,0,0,,0,36,36,24,1,2,RL,rasibal,cursive,rasibal_c.png,,,,,
,,,,32333,001,2025-11-10_20h48.49.675,HW_LDT_1,2024.2.4,Win32,59.88023952,,,,,,,,,,,,,,,,,,,,233.9181,234.1152,234.1153,234.6153,,,,,,,,,,,,1.4315,0,,,,,,,,,,,,,,m,,,,,,,,,,,,,,,,,38,0,234.6159,236.0484,z,0,1.4315,,[],[],[],[],[],[],[],236.0485,238.044,238.0441,238.0443,[],[],[],[],[],[],[],,238.0444,238.0445,-0.375925912,-0.309259288,0,0,0,,0,37,37,146,1,2,word,RETIRE,cursive,retire_c.png,,,,,
,,,,32333,001,2025-11-10_20h48.49.675,HW_LDT_1,2024.2.4,Win32,59.88023952,,,,,,,,,,,,,,,,,,,,238.0457,238.2481,238.2482,238.7443,,,,,,,,,,,,1.07,1,,,,,,,,,,,,,,z,,,,,,,,,,,,,,,,,39,0,238.7448,239.8158,z,1,1.07,,[],[],[],[],[],[],[],239.8159,241.8107,241.8108,241.8112,[],[],[],[],[],[],[],,241.8112,241.8113,-0.375925912,-0.309259288,0,0,0,,0,38,38,29,1,2,RL,samite,cursive,samite_c.png,,,,,
,,,,32333,001,2025-11-10_20h48.49.675,HW_LDT_1,2024.2.4,Win32,59.88023952,,,,,,,,,,,,,,,,,,,,241.8126,242.0145,242.0146,242.5109,,,,,,,,,,,,0.5868,1,,,,,,,,,,,,,,m,,,,,,,,,,,,,,,,,40,1,242.5114,243.0992,m,1,0.5868,,[],[],[],[],[],[],[],243.0994,245.0986,245.0986,246.4489,[0.46018524169921876],[-0.375],[1],[0],[0],[1.3501000000014756],"[""button_right_probe""]",,246.449,246.4491,0.460185242,-0.375,1,0,0,,0,39,39,115,1,2,word,LOGICAL,print,logical_p.png,,,,,
,,,,32333,001,2025-11-10_20h48.49.675,HW_LDT_1,2024.2.4,Win32,59.88023952,,,,,,,,,,,,,,,,,,,,246.4504,246.6441,246.6442,247.1441,,,,,,,,,,,,2.9738,1,,,,,,,,,,,,,,z,,,,,,,,,,,,,,,,,41,0,247.1448,250.1279,z,1,2.9738,,[],[],[],[],[],[],[],250.128,252.1278,252.1279,252.1283,[],[],[],[],[],[],[],,252.1283,252.1285,0.128703732,-0.111111111,0,0,0,,0,40,40,62,1,2,TL,opmital,cursive,opmital_c.png,,,,,
,,,,32333,001,2025-11-10_20h48.49.675,HW_LDT_1,2024.2.4,Win32,59.88023952,,,,,,,,,,,,,,,,,,,,252.1297,252.3315,252.3315,252.8278,,,,,,,,,,,,2.9403,1,,,,,,,,,,,,,,z,,,,,,,,,,,,,,,,,42,0,252.8283,255.7776,z,1,2.9403,,[],[],[],[],[],[],[],255.7778,257.7816,257.7817,257.7819,[],[],[],[],[],[],[],,257.7821,257.7822,0.128703732,-0.111111111,0,0,0,,0,41,41,42,1,2,TL,bedise,cursive,bedise_c.png,,,,,
,,,,32333,001,2025-11-10_20h48.49.675,HW_LDT_1,2024.2.4,Win32,59.88023952,,,,,,,,,,,,,,,,,,,,257.7838,257.9777,257.9778,258.4819,,,,,,,,,,,,0.7856,1,,,,,,,,,,,,,,m,,,,,,,,,,,,,,,,,43,0,258.4825,259.2776,m,1,0.7856,,[],[],[],[],[],[],[],259.2777,261.282,261.2821,261.2823,[],[],[],[],[],[],[],,261.2823,261.2826,0.128703732,-0.111111111,0,0,0,,0,42,42,122,1,2,word,MOBILE,print,mobile_p.png,,,,,
,,,,32333,001,2025-11-10_20h48.49.675,HW_LDT_1,2024.2.4,Win32,59.88023952,,,,,,,,,,,,,,,,,,,,261.2843,261.4776,261.4776,261.9775,,,,,,,,,,,,0.6032,1,,,,,,,,,,,,,,m,,,,,,,,,,,,,,,,,44,0,261.9781,262.5824,m,1,0.6032,,[],[],[],[],[],[],[],262.5826,264.5778,264.5779,264.5781,[],[],[],[],[],[],[],,264.5782,264.5782,0.128703732,-0.111111111,0,0,0,,0,43,43,118,1,2,word,MEDICINE,print,medicine_p.png,,,,,
,,,,32333,001,2025-11-10_20h48.49.675,HW_LDT_1,2024.2.4,Win32,59.88023952,,,,,,,,,,,,,,,,,,,,264.5794,264.7812,264.7813,265.2822,,,,,,,,,,,,0.699,1,,,,,,,,,,,,,,z,,,,,,,,,,,,,,,,,45,0,265.2827,265.9828,z,1,0.699,,[],[],[],[],[],[],[],265.983,267.9775,267.9776,267.9779,[],[],[],[],[],[],[],,267.978,267.9782,0.128703732,-0.111111111,0,0,0,,0,44,44,32,1,2,RL,speniven,print,speniven_p.png,,,,,
,,,,32333,001,2025-11-10_20h48.49.675,HW_LDT_1,2024.2.4,Win32,59.88023952,,,,,,,,,,,,,,,,,,,,267.9794,268.178,268.1781,268.6819,,,,,,,,,,,,2.8666,1,,,,,,,,,,,,,,z,,,,,,,,,,,,,,,,,46,0,268.6826,271.5503,z,1,2.8666,,[],[],[],[],[],[],[],271.5505,273.5443,273.5443,273.5446,[],[],[],[],[],[],[],,273.5448,273.5448,0.128703732,-0.111111111,0,0,0,,0,45,45,67,1,2,TL,quafily,cursive,quafily_c.png,,,,,
,,,,32333,001,2025-11-10_20h48.49.675,HW_LDT_1,2024.2.4,Win32,59.88023952,,,,,,,,,,,,,,,,,,,,273.5468,273.7477,273.7477,274.2447,,,,,,,,,,,,3.6705,1,,,,,,,,,,,,,,z,,,,,,,,,,,,,,,,,47,0,274.2451,277.9166,z,1,3.6705,,[],[],[],[],[],[],[],277.9167,279.9113,279.9113,279.9115,[],[],[],[],[],[],[],,279.9115,279.9116,0.128703732,-0.111111111,0,0,0,,0,46,46,41,1,2,TL,befenit,cursive,befenit_c.png,,,,,
,,,,32333,001,2025-11-10_20h48.49.675,HW_LDT_1,2024.2.4,Win32,59.88023952,,,,,,,,,,,,,,,,,,,,279.9126,280.1113,280.1114,280.6114,,,,,,,,,,,,0.5819,1,,,,,,,,,,,,,,m,,,,,,,,,,,,,,,,,48,0,280.6118,281.1947,m,1,0.5819,,[],[],[],[],[],[],[],281.1948,283.1947,283.1948,283.195,[],[],[],[],[],[],[],,283.195,283.1951,0.128703732,-0.111111111,0,0,0,,0,47,47,100,1,2,word,DECADE,print,decade_p.png,,,,,
,,,,32333,001,2025-11-10_20h48.49.675,HW_LDT_1,2024.2.4,Win32,59.88023952,,,,,,,,,,,,,,,,,,,,283.197,283.399,283.3991,283.8945,,,,,,,,,,,,2.0024,0,,,,,,,,,,,,,,z,,,,,,,,,,,,,,,,,49,0,283.8951,285.8987,m,0,2.0024,,[],[],[],[],[],[],[],285.8988,287.8949,287.8949,287.8952,[],[],[],[],[],[],[],,287.8953,287.8953,0.128703732,-0.111111111,0,0,0,,0,48,48,76,1,2,TL,senmitent,cursive,senmitent_c.png,,,,,
,,,,32333,001,2025-11-10_20h48.49.675,HW_LDT_1,2024.2.4,Win32,59.88023952,,,,,,,,,,,,,,,,,,,,287.8967,288.0948,288.0948,288.599,,,,,,,,,,,,0.999,1,,,,,,,,,,,,,,m,,,,,,,,,,,,,,,,,50,0,288.5998,289.5999,m,1,0.999,,[],[],[],[],[],[],[],289.6001,291.5945,291.5945,291.5948,[],[],[],[],[],[],[],,291.5948,291.595,0.128703732,-0.111111111,0,0,0,,0,49,49,81,1,2,word,ADVISORY,print,advisory_p.png,,,,,
,,,,32333,001,2025-11-10_20h48.49.675,HW_LDT_1,2024.2.4,Win32,59.88023952,,,,,,,,,,,,,,,,,,,,291.5964,291.7989,291.7991,292.2946,,,,,,,,,,,,2.1033,1,,,,,,,,,,,,,,z,,,,,,,,,,,,,,,,,51,0,292.2952,294.3995,z,1,2.1033,,[],[],[],[],[],[],[],294.3995,296.3949,296.395,296.3953,[],[],[],[],[],[],[],,296.3953,296.3955,0.128703732,-0.111111111,0,0,0,,0,50,50,72,1,2,TL,revomal,print,revomal_p.png,,,,,
,,,,32333,001,2025-11-10_20h48.49.675,HW_LDT_1,2024.2.4,Win32,59.88023952,,,,,,,,,,,,,,,,,,,,296.3967,296.5988,296.5988,297.0951,,,,,,,,,,,,1.154,1,,,,,,,,,,,,,,m,,,,,,,,,,,,,,,,,52,1,297.0958,298.2507,m,1,1.154,,[],[],[],[],[],[],[],298.2508,300.2449,300.2449,301.5284,[-0.325],[-0.2620370652940538],[1],[0],[0],[1.283200000002978],"[""button_left_probe""]",,301.5284,301.5286,-0.325,-0.262037065,1,0,0,,0,51,51,139,1,2,word,REGULAR,cursive,regular_c.png,,,,,
,,,,32333,001,2025-11-10_20h48.49.675,HW_LDT_1,2024.2.4,Win32,59.88023952,,,,,,,,,,,,,,,,,,,,301.5297,301.7284,301.7284,302.2164,,,,,,,,,,,,2.718,0,,,,,,,,,,,,,,m,,,,,,,,,,,,,,,,,53,0,302.2171,304.945,z,0,2.718,,[],[],[],[],[],[],[],304.9451,306.9494,306.9495,306.9498,[],[],[],[],[],[],[],,306.9498,306.95,-0.091666667,-0.126851866,0,0,0,,0,52,52,109,1,2,word,GRATEFUL,cursive,grateful_c.png,,,,,
,,,,32333,001,2025-11-10_20h48.49.675,HW_LDT_1,2024.2.4,Win32,59.88023952,,,,,,,,,,,,,,,,,,,,306.9514,307.1491,307.1491,307.6498,,,,,,,,,,,,1.7318,1,,,,,,,,,,,,,,z,,,,,,,,,,,,,,,,,54,0,307.6505,309.3835,z,1,1.7318,,[],[],[],[],[],[],[],309.3837,311.3781,311.3781,311.3784,[],[],[],[],[],[],[],,311.3784,311.3787,-0.091666667,-0.126851866,0,0,0,,0,53,53,26,1,2,RL,retupar,cursive,retupar_c.png,,,,,
,,,,32333,001,2025-11-10_20h48.49.675,HW_LDT_1,2024.2.4,Win32,59.88023952,,,,,,,,,,,,,,,,,,,,311.3799,311.578,311.5781,312.0783,,,,,,,,,,,,1.1374,1,,,,,,,,,,,,,,z,,,,,,,,,,,,,,,,,55,0,312.0787,313.2172,z,1,1.1374,,[],[],[],[],[],[],[],313.2173,315.2162,315.2163,315.2166,[],[],[],[],[],[],[],,315.2166,315.2167,-0.091666667,-0.126851866,0,0,0,,0,54,54,77,1,2,TL,sloten,print,sloten_p.png,,,,,
,,,,32333,001,2025-11-10_20h48.49.675,HW_LDT_1,2024.2.4,Win32,59.88023952,,,,,,,,,,,,,,,,,,,,315.2182,315.416,315.4161,315.9115,,,,,,,,,,,,0.6364,1,,,,,,,,,,,,,,m,,,,,,,,,,,,,,,,,56,1,315.912,316.5496,m,1,0.6364,,[],[],[],[],[],[],[],316.5497,318.549,318.5491,320.433,[0.2518519083658854],[-0.29814817640516494],[1],[0],[0],[1.8836999999955424],"[""button_right_probe""]",,320.4331,320.4333,0.251851908,-0.298148176,1,0,0,,0,55,55,147,1,2,word,ROMANTIC,print,romantic_p.png,,,,,
,,,,32333,001,2025-11-10_20h48.49.675,HW_LDT_1,2024.2.4,Win32,59.88023952,,,,,,,,,,,,,,,,,,,,320.4346,320.6285,320.6285,321.1326,,,,,,,,,,,,1.3526,1,,,,,,,,,,,,,,z,,,,,,,,,,,,,,,,,57,0,321.1333,322.4952,z,1,1.3526,,[],[],[],[],[],[],[],322.4954,324.4996,324.4997,324.5,[],[],[],[],[],[],[],,324.5,324.5001,0.251851908,-0.298148176,0,0,0,,0,56,56,75,1,2,TL,ronamtic,print,ronamtic_p.png,,,,,
,,,,32333,001,2025-11-10_20h48.49.675,HW_LDT_1,2024.2.4,Win32,59.88023952,,,,,,,,,,,,,,,,,,,,324.5017,324.6998,324.6999,325.1948,,,,,,,,,,,,0.8539,1,,,,,,,,,,,,,,z,,,,,,,,,,,,,,,,,58,0,325.1955,326.0505,z,1,0.8539,,[],[],[],[],[],[],[],326.0506,328.0492,328.0493,328.0496,[],[],[],[],[],[],[],,328.0497,328.0499,0.251851908,-0.298148176,0,0,0,,0,57,57,1,1,2,RL,caleberia,print,caleberia_p.png,,,,,
,,,,32333,001,2025-11-10_20h48.49.675,HW_LDT_1,2024.2.4,Win32,59.88023952,,,,,,,,,,,,,,,,,,,,328.0514,328.2494,328.2495,328.7448,,,,,,,,,,,,1.3248,0,,,,,,,,,,,,,,z,,,,,,,,,,,,,,,,,59,0,328.7454,330.0783,m,0,1.3248,,[],[],[],[],[],[],[],330.0785,332.0785,332.0786,332.0788,[],[],[],[],[],[],[],,332.0788,332.0789,0.251851908,-0.298148176,0,0,0,,0,58,58,56,1,2,TL,marnigal,cursive,marnigal_c.png,,,,,
,,,,32333,001,2025-11-10_20h48.49.675,HW_LDT_1,2024.2.4,Win32,59.88023952,,,,,,,,,,,,,,,,,,,,332.0803,332.2782,332.2782,332.7783,,,,,,,,,,,,0.7943,1,,,,,,,,,,,,,,z,,,,,,,,,,,,,,,,,60,1,332.7789,333.5785,z,1,0.7943,,[],[],[],[],[],[],[],333.5786,335.5784,335.5785,337.7009,[0.3611111111111111],[-0.2990741305881076],[1],[0],[0],[2.122100000001467],"[""button_right_probe""]",,337.7009,337.701,0.361111111,-0.299074131,1,0,0,,0,59,59,36,1,2,RL,vecelan,print,vecelan_p.png,,,,,
,,,,32333,001,2025-11-10_20h48.49.675,HW_LDT_1,2024.2.4,Win32,59.88023952,,,,,,,,,,,,,,,,,,,,337.7021,337.8949,337.895,338.3996,,,,,,,,,,,,2.6151,1,,,,,,,,,,,,,,m,,,,,,,,,,,,,,,,,61,0,338.4006,341.017,m,1,2.6151,,[],[],[],[],[],[],[],341.0173,343.0119,343.012,343.0123,[],[],[],[],[],[],[],,343.0124,343.0124,0.361111111,-0.299074131,0,0,0,,0,60,60,135,1,2,word,QUALITY,cursive,quality_c.png,,,,,
,,,,32333,001,2025-11-10_20h48.49.675,HW_LDT_1,2024.2.4,Win32,59.88023952,,,,,,,,,,,,,,,,,,,,343.0135,343.2116,343.2117,343.7118,,,,,,,,,,,,1.8647,0,,,,,,,,,,,,,,z,,,,,,,,,,,,,,,,,62,0,343.7123,345.5784,m,0,1.8647,,[],[],[],[],[],[],[],345.5785,347.5783,347.5784,347.5785,[],[],[],[],[],[],[],,347.5786,347.5786,0.361111111,-0.299074131,0,0,0,,0,61,61,74,1,2,TL,rerite,cursive,rerite_c.png,,,,,
,,,,32333,001,2025-11-10_20h48.49.675,HW_LDT_1,2024.2.4,Win32,59.88023952,,,,,,,,,,,,,,,,,,,,347.5798,347.7667,347.7667,348.2784,,,,,,,,,,,,1.275,0,,,,,,,,,,,,,,m,,,,,,,,,,,,,,,,,63,0,348.279,349.5619,z,0,1.275,,[],[],[],[],[],[],[],349.562,351.5666,351.5666,351.567,[],[],[],[],[],[],[],,351.567,351.5671,0.361111111,-0.299074131,0,0,0,,0,62,62,123,1,2,word,MODERATE,cursive,moderate_c.png,,,,,
,,,,32333,001,2025-11-10_20h48.49.675,HW_LDT_1,2024.2.4,Win32,59.88023952,,,,,,,,,,,,,,,,,,,,351.5687,351.7666,351.7666,352.2617,,,,,,,,,,,,1.1034,1,,,,,,,,,,,,,,z,,,,,,,,,,,,,,,,,64,0,352.2624,353.3671,z,1,1.1034,,[],[],[],[],[],[],[],353.3671,355.3618,355.3619,355.3621,[],[],[],[],[],[],[],,355.3622,355.3623,0.361111111,-0.299074131,0,0,0,,0,63,63,48,1,2,TL,detabe,print,detabe_p.png,,,,,
,,,,32333,001,2025-11-10_20h48.49.675,HW_LDT_1,2024.2.4,Win32,59.88023952,,,,,,,,,,,,,,,,,,,,355.3634,355.5617,355.5618,356.0666,,,,,,,,,,,,1.6212,1,,,,,,,,,,,,,,m,,,,,,,,,,,,,,,,,65,0,356.0672,357.6954,m,1,1.6212,,[],[],[],[],[],[],[],357.6956,359.6952,359.6953,359.6955,[],[],[],[],[],[],[],,359.6956,359.6957,0.361111111,-0.299074131,0,0,0,,0,64,64,151,1,2,word,SPECIFIC,print,specific_p.png,,,,,
,,,,32333,001,2025-11-10_20h48.49.675,HW_LDT_1,2024.2.4,Win32,59.88023952,,,,,,,,,,,,,,,,,,,,359.697,359.8954,359.8955,360.3995,,,,,,,,,,,,1.2163,1,,,,,,,,,,,,,,m,,,,,,,,,,,,,,,,,66,0,360.4001,361.6178,m,1,1.2163,,[],[],[],[],[],[],[],361.6178,363.6165,363.6165,363.617,[],[],[],[],[],[],[],,363.617,363.6172,0.358333333,-0.315740797,0,0,0,,0,65,65,95,1,2,word,COMEDY,cursive,comedy_c.png,,,,,
,,,,32333,001,2025-11-10_20h48.49.675,HW_LDT_1,2024.2.4,Win32,59.88023952,,,,,,,,,,,,,,,,,,,,363.6187,363.8118,363.8119,364.3121,,,,,,,,,,,,1.3041,1,,,,,,,,,,,,,,z,,,,,,,,,,,,,,,,,67,0,364.3127,365.6289,z,1,1.3041,,[],[],[],[],[],[],[],365.629,367.6328,367.6329,367.6331,[],[],[],[],[],[],[],,367.6331,367.6332,0.358333333,-0.315740797,0,0,0,,0,66,66,44,1,2,TL,catipal,cursive,catipal_c.png,,,,,
,,,,32333,001,2025-11-10_20h48.49.675,HW_LDT_1,2024.2.4,Win32,59.88023952,,,,,,,,,,,,,,,,,,,,367.6348,367.8286,367.8286,368.3288,,,,,,,,,,,,1.3203,1,,,,,,,,,,,,,,z,,,,,,,,,,,,,,,,,68,1,368.3293,369.6506,z,1,1.3203,,[],[],[],[],[],[],[],369.6507,371.6492,371.6492,377.2622,[0.2953703986273872],[-0.3768519083658854],[1],[0],[0],[5.612600000001464],"[""button_right_probe""]",,377.2623,377.2625,0.295370399,-0.376851908,1,0,0,,0,67,67,73,1,2,TL,redisent,print,redisent_p.png,,,,,
,,,,32333,001,2025-11-10_20h48.49.675,HW_LDT_1,2024.2.4,Win32,59.88023952,,,,,,,,,,,,,,,,,,,,377.2638,377.462,377.4621,377.9665,,,,,,,,,,,,1.7494,1,,,,,,,,,,,,,,z,,,,,,,,,,,,,,,,,69,0,377.967,379.7287,z,1,1.7494,,[],[],[],[],[],[],[],379.7289,381.7286,381.7287,381.729,[],[],[],[],[],[],[],,381.729,381.7292,0.295370399,-0.376851908,0,0,0,,0,68,68,33,1,2,RL,strapely,cursive,strapely_c.png,,,,,
,,,,32333,001,2025-11-10_20h48.49.675,HW_LDT_1,2024.2.4,Win32,59.88023952,,,,,,,,,,,,,,,,,,,,381.7304,381.9333,381.9334,382.4332,,,,,,,,,,,,2.0994,1,,,,,,,,,,,,,,m,,,,,,,,,,,,,,,,,70,0,382.4337,384.5344,m,1,2.0994,,[],[],[],[],[],[],[],384.5345,386.5331,386.5331,386.5335,[],[],[],[],[],[],[],,386.5335,386.5337,0.295370399,-0.376851908,0,0,0,,0,69,69,137,1,2,word,RAPIDLY,print,rapidly_p.png,,,,,
,,,,32333,001,2025-11-10_20h48.49.675,HW_LDT_1,2024.2.4,Win32,59.88023952,,,,,,,,,,,,,,,,,,,,386.5352,386.7321,386.7322,387.232,,,,,,,,,,,,1.5222,1,,,,,,,,,,,,,,m,,,,,,,,,,,,,,,,,71,1,387.2326,388.7622,m,1,1.5222,,[],[],[],[],[],[],[],388.7624,390.7622,390.7623,391.9835,[0.2953703986273872],[-0.3768519083658854],[1],[0],[0],[1.2210000000000036],"[""button_right_probe""]",,391.9835,391.9836,0.295370399,-0.376851908,1,0,0,,0,70,70,127,1,2,word,ORIGINAL,print,original_p.png,,,,,
,,,,32333,001,2025-11-10_20h48.49.675,HW_LDT_1,2024.2.4,Win32,59.88023952,,,,,,,,,,,,,,,,,,,,391.9849,392.1791,392.1792,392.6791,,,,,,,,,,,,1.7871,1,,,,,,,,,,,,,,z,,,,,,,,,,,,,,,,,72,0,392.6795,394.4678,z,1,1.7871,,[],[],[],[],[],[],[],394.4679,396.4621,396.4622,396.4624,[],[],[],[],[],[],[],,396.4624,396.4626,0.295370399,-0.376851908,0,0,0,,0,71,71,63,1,2,TL,orinigal,print,orinigal_p.png,,,,,
,,,,32333,001,2025-11-10_20h48.49.675,HW_LDT_1,2024.2.4,Win32,59.88023952,,,,,,,,,,,,,,,,,,,,396.464,396.6622,396.6622,397.1663,,,,,,,,,,,,2.0659,1,,,,,,,,,,,,,,m,,,,,,,,,,,,,,,,,73,0,397.167,399.2338,m,1,2.0659,,[],[],[],[],[],[],[],399.2338,401.2334,401.2334,401.2337,[],[],[],[],[],[],[],,401.2338,401.2339,0.295370399,-0.376851908,0,0,0,,0,72,72,141,1,2,word,RELIGION,cursive,religion_c.png,,,,,
,,,,32333,001,2025-11-10_20h48.49.675,HW_LDT_1,2024.2.4,Win32,59.88023952,,,,,,,,,,,,,,,,,,,,401.2355,401.4332,401.4332,401.9288,,,,,,,,,,,,0.7916,1,,,,,,,,,,,,,,z,,,,,,,,,,,,,,,,,74,0,401.9295,402.729,z,1,0.7916,,[],[],[],[],[],[],[],402.7291,404.7291,404.7292,404.7294,[],[],[],[],[],[],[],,404.7294,404.7295,0.295370399,-0.376851908,0,0,0,,0,73,73,59,1,2,TL,miskate,cursive,miskate_c.png,,,,,
,,,,32333,001,2025-11-10_20h48.49.675,HW_LDT_1,2024.2.4,Win32,59.88023952,,,,,,,,,,,,,,,,,,,,404.7307,404.9334,404.9334,405.433,,,,,,,,,,,,2.7992,1,,,,,,,,,,,,,,z,,,,,,,,,,,,,,,,,75,0,405.4337,408.2341,z,1,2.7992,,[],[],[],[],[],[],[],408.2341,410.2289,410.229,410.2291,[],[],[],[],[],[],[],,410.2292,410.2294,0.295370399,-0.376851908,0,0,0,,0,74,74,65,1,2,TL,polupar,cursive,polupar_c.png,,,,,
,,,,32333,001,2025-11-10_20h48.49.675,HW_LDT_1,2024.2.4,Win32,59.88023952,,,,,,,,,,,,,,,,,,,,410.2305,410.4333,410.4334,410.9172,,,,,,,,,,,,1.7821,1,,,,,,,,,,,,,,m,,,,,,,,,,,,,,,,,76,0,410.918,412.7126,m,1,1.7821,,[],[],[],[],[],[],[],412.7126,414.7123,414.7124,414.7125,[],[],[],[],[],[],[],,414.7126,414.7128,0.295370399,-0.376851908,0,0,0,,0,75,75,148,1,2,word,SALINE,cursive,saline_c.png,,,,,
,,,,32333,001,2025-11-10_20h48.49.675,HW_LDT_1,2024.2.4,Win32,59.88023952,,,,,,,,,,,,,,,,,,,,414.7141,414.9122,414.9122,415.4159,,,,,,,,,,,,2.5518,1,,,,,,,,,,,,,,z,,,,,,,,,,,,,,,,,77,0,415.4165,417.9794,z,1,2.5518,,[],[],[],[],[],[],[],417.9794,419.9831,419.9831,419.9833,[],[],[],[],[],[],[],,419.9833,419.9835,0.295370399,-0.376851908,0,0,0,,0,76,76,20,1,2,RL,onegator,cursive,onegator_c.png,,,,,
,,,,32333,001,2025-11-10_20h48.49.675,HW_LDT_1,2024.2.4,Win32,59.88023952,,,,,,,,,,,,,,,,,,,,419.9848,420.179,420.1791,420.6794,,,,,,,,,,,,2.5286,1,,,,,,,,,,,,,,z,,,,,,,,,,,,,,,,,78,0,420.68,423.2128,z,1,2.5286,,[],[],[],[],[],[],[],423.2129,425.2124,425.2125,425.2126,[],[],[],[],[],[],[],,425.2126,425.2127,0.295370399,-0.376851908,0,0,0,,0,77,77,52,1,2,TL,elarobate,cursive,elarobate_c.png,,,,,
,,,,32333,001,2025-11-10_20h48.49.675,HW_LDT_1,2024.2.4,Win32,59.88023952,,,,,,,,,,,,,,,,,,,,425.2138,425.4171,425.4172,425.9016,,,,,,,,,,,,0.915,1,,,,,,,,,,,,,,z,,,,,,,,,,,,,,,,,79,0,425.9022,426.8181,z,1,0.915,,[],[],[],[],[],[],[],426.8183,428.8124,428.8124,428.8126,[],[],[],[],[],[],[],,428.8126,428.8128,0.368518575,-0.052777778,0,0,0,,0,78,78,60,1,2,TL,molibe,print,molibe_p.png,,,,,
,,,,32333,001,2025-11-10_20h48.49.675,HW_LDT_1,2024.2.4,Win32,59.88023952,,,,,,,,,,,,,,,,,,,,428.814,429.0173,429.0173,429.5124,,,,,,,,,,,,1.5035,1,,,,,,,,,,,,,,z,,,,,,,,,,,,,,,,,80,0,429.5129,431.0175,z,1,1.5035,,[],[],[],[],[],[],[],431.0176,433.0124,433.0124,433.0126,[],[],[],[],[],[],[],,433.0127,545.1844,0.085185242,-0.376851908,1,0,0,,0,79,79,51,1,2,TL,etidor,cursive,etidor_c.png,,,,,
,,,,32333,001,2025-11-10_20h48.49.675,HW_LDT_1,2024.2.4,Win32,59.88023952,,,,,,,,,,,,,,,,,,,,545.1858,545.3803,545.3804,545.8844,,,,,,,,,,,,1.1882,1,,,,,,,,,,,,,,z,,,,,,,,,,,,,,,,,81,0,545.8851,547.0803,z,1,1.1882,,[],[],[],[],[],[],[],547.0804,549.0845,549.0845,549.0847,[],[],[],[],[],[],[],,549.0848,549.085,0.085185242,-0.376851908,0,0,0,,0,80,80,35,1,2,RL,vesofity,print,vesofity_p.png,,,,,
,,,,32333,001,2025-11-10_20h48.49.675,HW_LDT_1,2024.2.4,Win32,59.88023952,,,,,,,,,,,,,,,,,,,,549.0866,549.2802,549.2803,549.7801,,,,,,,,,,,,2.008,1,,,,,,,,,,,,,,m,,,,,,,,,,,,,,,,,82,0,549.7807,551.797,m,1,2.008,,[],[],[],[],[],[],[],551.7972,553.7847,553.7848,553.7851,[],[],[],[],[],[],[],,553.7852,553.7853,0.085185242,-0.376851908,0,0,0,,0,81,81,133,1,2,word,PROVIDE,cursive,provide_c.png,,,,,
,,,,32333,001,2025-11-10_20h48.49.675,HW_LDT_1,2024.2.4,Win32,59.88023952,,,,,,,,,,,,,,,,,,,,553.787,553.9849,553.9849,554.4801,,,,,,,,,,,,2.0083,1,,,,,,,,,,,,,,z,,,,,,,,,,,,,,,,,83,1,554.4808,556.4972,z,1,2.0083,,[],[],[],[],[],[],[],556.4975,558.4971,558.4971,560.3634,[-0.3064814673529731],[-0.2990741305881076],[1],[0],[0],[1.866100000001552],"[""button_left_probe""]",,560.3635,560.3637,-0.306481467,-0.299074131,1,0,0,,0,82,82,53,1,2,TL,edivent,cursive,edivent_c.png,,,,,
,,,,32333,001,2025-11-10_20h48.49.675,HW_LDT_1,2024.2.4,Win32,59.88023952,,,,,,,,,,,,,,,,,,,,560.3645,560.5637,560.5637,561.0672,,,,,,,,,,,,1.4464,1,,,,,,,,,,,,,,m,,,,,,,,,,,,,,,,,84,0,561.0678,562.5148,,0,,,[0.425],[-0.2814815097384983],[1],[0],[0],[1.4463999999985617],"[""button_right_main""]",562.5148,564.5184,564.5184,564.5188,[],[],[],[],[],[],[],,564.5189,564.519,0.425,-0.28148151,0,0,0,,0,83,83,94,1,2,word,CLINICAL,cursive,clinical_c.png,,,,,
,,,,32333,001,2025-11-10_20h48.49.675,HW_LDT_1,2024.2.4,Win32,59.88023952,,,,,,,,,,,,,,,,,,,,564.5205,564.718,564.718,565.2182,,,,,,,,,,,,1.122,1,,,,,,,,,,,,,,m,,,,,,,,,,,,,,,,,85,0,565.2193,566.3474,m,1,1.122,,[],[],[],[],[],[],[],566.3474,568.3351,568.3352,568.3354,[],[],[],[],[],[],[],,568.3356,568.3357,0.425,-0.28148151,0,0,0,,0,84,84,88,1,2,word,CAMERA,print,camera_p.png,,,,,
,,,,32333,001,2025-11-10_20h48.49.675,HW_LDT_1,2024.2.4,Win32,59.88023952,,,,,,,,,,,,,,,,,,,,568.3371,568.5304,568.5305,569.0306,,,,,,,,,,,,2.0705,1,,,,,,,,,,,,,,z,,,,,,,,,,,,,,,,,86,0,569.0311,571.1028,z,1,2.0705,,[],[],[],[],[],[],[],571.103,573.1016,573.1017,573.1019,[],[],[],[],[],[],[],,573.102,573.1021,0.425,-0.28148151,0,0,0,,0,85,85,37,1,2,TL,adacemy,cursive,adacemy_c.png,,,,,
,,,,32333,001,2025-11-10_20h48.49.675,HW_LDT_1,2024.2.4,Win32,59.88023952,,,,,,,,,,,,,,,,,,,,573.1037,573.297,573.2971,573.8014,,,,,,,,,,,,1.4041,1,,,,,,,,,,,,,,z,,,,,,,,,,,,,,,,,87,0,573.8021,575.2138,z,1,1.4041,,[],[],[],[],[],[],[],575.214,577.2184,577.2184,577.2187,[],[],[],[],[],[],[],,577.2187,577.2188,0.425,-0.28148151,0,0,0,,0,86,86,15,1,2,RL,linedal,print,linedal_p.png,,,,,
,,,,32333,001,2025-11-10_20h48.49.675,HW_LDT_1,2024.2.4,Win32,59.88023952,,,,,,,,,,,,,,,,,,,,577.2204,577.4138,577.4139,577.9186,,,,,,,,,,,,1.0153,1,,,,,,,,,,,,,,z,,,,,,,,,,,,,,,,,88,0,577.9193,578.9355,z,1,1.0153,,[],[],[],[],[],[],[],578.9356,580.9303,580.9304,580.9306,[],[],[],[],[],[],[],,580.9306,580.9307,0.425,-0.28148151,0,0,0,,0,87,87,22,1,2,RL,posity,print,posity_p.png,,,,,
,,,,32333,001,2025-11-10_20h48.49.675,HW_LDT_1,2024.2.4,Win32,59.88023952,,,,,,,,,,,,,,,,,,,,580.9317,581.1307,581.1308,581.6354,,,,,,,,,,,,1.4653,1,,,,,,,,,,,,,,m,,,,,,,,,,,,,,,,,89,0,581.6363,583.1026,m,1,1.4653,,[],[],[],[],[],[],[],583.1027,585.1012,585.1013,585.1016,[],[],[],[],[],[],[],,585.1016,585.1017,0.425,-0.28148151,0,0,0,,0,88,88,89,1,2,word,CAPACITY,print,capacity_p.png,,,,,
,,,,32333,001,2025-11-10_20h48.49.675,HW_LDT_1,2024.2.4,Win32,59.88023952,,,,,,,,,,,,,,,,,,,,585.1033,585.2973,585.2974,585.7972,,,,,,,,,,,,1.0155,1,,,,,,,,,,,,,,z,,,,,,,,,,,,,,,,,90,0,585.7979,586.8142,z,1,1.0155,,[],[],[],[],[],[],[],586.8143,588.818,588.818,588.8183,[],[],[],[],[],[],[],,588.8184,588.8185,0.425,-0.28148151,0,0,0,,0,89,89,71,1,2,TL,retome,cursive,retome_c.png,,,,,
,,,,32333,001,2025-11-10_20h48.49.675,HW_LDT_1,2024.2.4,Win32,59.88023952,,,,,,,,,,,,,,,,,,,,588.8201,589.0138,589.0139,589.5138,,,,,,,,,,,,2.6636,1,,,,,,,,,,,,,,z,,,,,,,,,,,,,,,,,91,0,589.5145,592.1805,z,1,2.6636,,[],[],[],[],[],[],[],592.1806,594.1805,594.1806,594.1808,[],[],[],[],[],[],[],,594.1809,594.1809,0.425,-0.28148151,0,0,0,,0,90,90,49,1,2,TL,dedace,print,dedace_p.png,,,,,
,,,,32333,001,2025-11-10_20h48.49.675,HW_LDT_1,2024.2.4,Win32,59.88023952,,,,,,,,,,,,,,,,,,,,594.1823,594.3809,594.381,594.8841,,,,,,,,,,,,0.9166,1,,,,,,,,,,,,,,m,,,,,,,,,,,,,,,,,92,0,594.8848,595.8025,m,1,0.9166,,[],[],[],[],[],[],[],595.8026,597.8012,597.8012,597.8016,[],[],[],[],[],[],[],,597.8016,597.8018,0.425,-0.28148151,0,0,0,,0,91,91,102,1,2,word,DENSITY,print,density_p.png,,,,,
,,,,32333,001,2025-11-10_20h48.49.675,HW_LDT_1,2024.2.4,Win32,59.88023952,,,,,,,,,,,,,,,,,,,,597.8032,597.9971,597.9972,598.4973,,,,,,,,,,,,0.7371,1,,,,,,,,,,,,,,m,,,,,,,,,,,,,,,,,93,0,598.498,599.2356,m,1,0.7371,,[],[],[],[],[],[],[],599.2357,601.2309,601.2309,601.231,[],[],[],[],[],[],[],,601.231,601.2311,0.425,-0.28148151,0,0,0,,0,92,92,144,1,2,word,RESIDENT,print,resident_p.png,,,,,
,,,,32333,001,2025-11-10_20h48.49.675,HW_LDT_1,2024.2.4,Win32,59.88023952,,,,,,,,,,,,,,,,,,,,601.2328,601.4355,601.4356,601.9306,,,,,,,,,,,,2.8248,1,,,,,,,,,,,,,,z,,,,,,,,,,,,,,,,,94,0,601.9312,604.7643,z,1,2.8248,,[],[],[],[],[],[],[],604.7645,606.7641,606.7642,606.7644,[],[],[],[],[],[],[],,606.7645,606.7646,0.425,-0.28148151,0,0,0,,0,93,93,28,1,2,RL,revune,cursive,revune_c.png,,,,,
,,,,32333,001,2025-11-10_20h48.49.675,HW_LDT_1,2024.2.4,Win32,59.88023952,,,,,,,,,,,,,,,,,,,,606.766,606.964,606.964,607.4641,,,,,,,,,,,,1.8872,1,,,,,,,,,,,,,,z,,,,,,,,,,,,,,,,,95,0,607.4646,609.3528,z,1,1.8872,,[],[],[],[],[],[],[],609.353,611.3516,611.3517,611.3519,[],[],[],[],[],[],[],,611.3519,611.3521,0.425,-0.28148151,0,0,0,,0,94,94,57,1,2,TL,meromy,cursive,meromy_c.png,,,,,
,,,,32333,001,2025-11-10_20h48.49.675,HW_LDT_1,2024.2.4,Win32,59.88023952,,,,,,,,,,,,,,,,,,,,611.354,611.5474,611.5474,612.0474,,,,,,,,,,,,1.7785,1,,,,,,,,,,,,,,z,,,,,,,,,,,,,,,,,96,0,612.0478,613.8308,z,1,1.7785,,[],[],[],[],[],[],[],613.8309,615.8187,615.8188,615.8191,[],[],[],[],[],[],[],,615.8191,615.8193,0.425,-0.28148151,0,0,0,,0,95,95,66,1,2,TL,prodive,cursive,prodive_c.png,,,,,
,,,,32333,001,2025-11-10_20h48.49.675,HW_LDT_1,2024.2.4,Win32,59.88023952,,,,,,,,,,,,,,,,,,,,615.8207,616.0186,616.0186,616.5189,,,,,,,,,,,,1.0317,1,,,,,,,,,,,,,,m,,,,,,,,,,,,,,,,,97,0,616.5196,617.5526,m,1,1.0317,,[],[],[],[],[],[],[],617.5527,619.5475,619.5475,619.5477,[],[],[],[],[],[],[],,619.5477,619.5479,0.425,-0.28148151,0,0,0,,0,96,96,101,1,2,word,DELICATE,print,delicate_p.png,,,,,
,,,,32333,001,2025-11-10_20h48.49.675,HW_LDT_1,2024.2.4,Win32,59.88023952,,,,,,,,,,,,,,,,,,,,619.5491,619.7355,619.7355,620.2516,,,,,,,,,,,,2.2562,1,,,,,,,,,,,,,,z,,,,,,,,,,,,,,,,,98,0,620.2524,622.5145,z,1,2.2562,,[],[],[],[],[],[],[],622.5146,624.5183,624.5183,624.5185,[],[],[],[],[],[],[],,624.5186,624.5187,0.425,-0.28148151,0,0,0,,0,97,97,14,1,2,RL,insibate,cursive,insibate_c.png,,,,,
,,,,32333,001,2025-11-10_20h48.49.675,HW_LDT_1,2024.2.4,Win32,59.88023952,,,,,,,,,,,,,,,,,,,,624.5203,624.7184,624.7185,625.2191,,,,,,,,,,,,0.9822,1,,,,,,,,,,,,,,m,,,,,,,,,,,,,,,,,99,0,625.2198,626.2031,m,1,0.9822,,[],[],[],[],[],[],[],626.2032,628.1976,628.1976,628.1979,[],[],[],[],[],[],[],,628.1979,628.1981,0.425,-0.28148151,0,0,0,,0,98,98,132,1,2,word,PROPOSAL,cursive,proposal_c.png,,,,,
,,,,32333,001,2025-11-10_20h48.49.675,HW_LDT_1,2024.2.4,Win32,59.88023952,,,,,,,,,,,,,,,,,,,,628.1994,628.3978,628.3979,628.9021,,,,,,,,,,,,2.5336,1,,,,,,,,,,,,,,m,,,,,,,,,,,,,,,,,100,0,628.9027,631.4478,m,1,2.5336,,[],[],[],[],[],[],[],631.448,633.4478,633.4478,633.4481,[],[],[],[],[],[],[],,633.4481,633.4482,0.425,-0.28148151,0,0,0,,0,99,99,155,1,2,word,STRATEGY,cursive,strategy_c.png,,,,,
,,,,32333,001,2025-11-10_20h48.49.675,HW_LDT_1,2024.2.4,Win32,59.88023952,,,,,,,,,,,,,,,,,,,,633.4495,633.6479,633.6479,634.1521,,,,,,,,,,,,1.7824,0,,,,,,,,,,,,,,m,,,,,,,,,,,,,,,,,101,0,634.1531,635.9366,z,0,1.7824,,[],[],[],[],[],[],[],635.9367,637.931,637.931,637.9312,[],[],[],[],[],[],[],,637.9312,637.9313,0.425,-0.28148151,0,0,0,,0,100,100,85,1,2,word,BENEFIT,cursive,benefit_c.png,,,,,
,,,,32333,001,2025-11-10_20h48.49.675,HW_LDT_1,2024.2.4,Win32,59.88023952,,,,,,,,,,,,,,,,,,,,637.9325,638.1311,638.1312,638.6311,,,,,,,,,,,,1.603,1,,,,,,,,,,,,,,z,,,,,,,,,,,,,,,,,102,0,638.6319,640.2361,z,1,1.603,,[],[],[],[],[],[],[],640.2363,642.2358,642.2359,642.2361,[],[],[],[],[],[],[],,642.2362,642.2362,0.425,-0.28148151,0,0,0,,0,101,101,27,1,2,RL,repifion,cursive,repifion_c.png,,,,,
,,,,32333,001,2025-11-10_20h48.49.675,HW_LDT_1,2024.2.4,Win32,59.88023952,,,,,,,,,,,,,,,,,,,,642.2379,642.4312,642.4312,642.931,,,,,,,,,,,,1.5709,1,,,,,,,,,,,,,,z,,,,,,,,,,,,,,,,,103,0,642.9317,644.5036,z,1,1.5709,,[],[],[],[],[],[],[],644.5037,646.4978,646.4981,646.4982,[],[],[],[],[],[],[],,646.4983,646.4984,0.425,-0.28148151,0,0,0,,0,102,102,17,1,2,RL,macise,cursive,macise_c.png,,,,,
,,,,32333,001,2025-11-10_20h48.49.675,HW_LDT_1,2024.2.4,Win32,59.88023952,,,,,,,,,,,,,,,,,,,,646.4997,646.7026,646.7026,647.1976,,,,,,,,,,,,5.0533,0,,,,,,,,,,,,,,m,,,,,,,,,,,,,,,,,104,0,647.1982,652.2524,z,0,5.0533,,[],[],[],[],[],[],[],652.2524,654.2478,654.2479,654.248,[],[],[],[],[],[],[],,654.2482,654.2482,0.425,-0.28148151,0,0,0,,0,103,103,121,1,2,word,MISTAKE,cursive,mistake_c.png,,,,,
,,,,32333,001,2025-11-10_20h48.49.675,HW_LDT_1,2024.2.4,Win32,59.88023952,,,,,,,,,,,,,,,,,,,,654.2496,654.4479,654.448,654.9477,,,,,,,,,,,,1.4701,1,,,,,,,,,,,,,,m,,,,,,,,,,,,,,,,,105,0,654.9484,656.4194,m,1,1.4701,,[],[],[],[],[],[],[],656.4196,658.4146,658.4147,658.4149,[],[],[],[],[],[],[],,658.415,658.4151,0.425,-0.28148151,0,0,0,,0,104,104,107,1,2,word,EVIDENT,cursive,evident_c.png,,,,,
,,,,32333,001,2025-11-10_20h48.49.675,HW_LDT_1,2024.2.4,Win32,59.88023952,,,,,,,,,,,,,,,,,,,,658.4162,658.6187,658.6187,659.1143,,,,,,,,,,,,1.4706,1,,,,,,,,,,,,,,z,,,,,,,,,,,,,,,,,106,0,659.115,660.5866,z,1,1.4706,,[],[],[],[],[],[],[],660.5867,662.5858,662.5858,662.5861,[],[],[],[],[],[],[],,662.5861,662.5863,0.425,-0.28148151,0,0,0,,0,105,105,50,1,2,TL,donimant,print,donimant_p.png,,,,,
,,,,32333,001,2025-11-10_20h48.49.675,HW_LDT_1,2024.2.4,Win32,59.88023952,,,,,,,,,,,,,,,,,,,,662.5877,662.7857,662.7858,663.2855,,,,,,,,,,,,1.3046,1,,,,,,,,,,,,,,z,,,,,,,,,,,,,,,,,107,0,663.286,664.598,z,1,1.3046,,[],[],[],[],[],[],[],664.5981,666.5983,666.5984,666.5986,[],[],[],[],[],[],[],,666.5986,666.5988,0.425,-0.28148151,0,0,0,,0,106,106,46,1,2,TL,codemy,cursive,codemy_c.png,,,,,
,,,,32333,001,2025-11-10_20h48.49.675,HW_LDT_1,2024.2.4,Win32,59.88023952,,,,,,,,,,,,,,,,,,,,666.6,666.8021,666.8021,667.298,,,,,,,,,,,,0.7913,1,,,,,,,,,,,,,,z,,,,,,,,,,,,,,,,,108,0,667.2985,668.0979,z,1,0.7913,,[],[],[],[],[],[],[],668.0981,670.098,670.098,670.0981,[],[],[],[],[],[],[],,670.0981,670.0983,0.425,-0.28148151,0,0,0,,0,107,107,0,1,2,RL,adnicory,print,adnicory_p.png,,,,,
,,,,32333,001,2025-11-10_20h48.49.675,HW_LDT_1,2024.2.4,Win32,59.88023952,,,,,,,,,,,,,,,,,,,,670.0993,670.2859,670.286,670.7979,,,,,,,,,,,,1.0224,1,,,,,,,,,,,,,,m,,,,,,,,,,,,,,,,,109,1,670.7987,671.8316,m,1,1.0224,,[],[],[],[],[],[],[],671.8316,673.8314,673.8315,675.6983,[-0.23796293470594618],[-0.31574079725477433],[1],[0],[0],[1.866700000002993],"[""button_left_probe""]",,675.6984,675.6985,-0.237962935,-0.315740797,1,0,0,,0,108,108,156,1,2,word,TRIBUTE,cursive,tribute_c.png,,,,,
,,,,32333,001,2025-11-10_20h48.49.675,HW_LDT_1,2024.2.4,Win32,59.88023952,,,,,,,,,,,,,,,,,,,,675.6997,675.8983,675.8983,676.4025,,,,,,,,,,,,2.6162,1,,,,,,,,,,,,,,m,,,,,,,,,,,,,,,,,110,0,676.4032,679.0203,m,1,2.6162,,[],[],[],[],[],[],[],679.0204,681.0193,681.0194,681.0196,[],[],[],[],[],[],[],,681.0196,681.0197,-0.237962935,-0.315740797,0,0,0,,0,109,109,87,1,2,word,CAFETERIA,print,cafeteria_p.png,,,,,
,,,,32333,001,2025-11-10_20h48.49.675,HW_LDT_1,2024.2.4,Win32,59.88023952,,,,,,,,,,,,,,,,,,,,681.0213,681.2145,681.2146,681.7193,,,,,,,,,,,,0.9154,0,,,,,,,,,,,,,,z,,,,,,,,,,,,,,,,,111,0,681.7201,682.6365,m,0,0.9154,,[],[],[],[],[],[],[],682.6366,684.6313,684.6314,684.6315,[],[],[],[],[],[],[],,684.6316,684.6316,-0.237962935,-0.315740797,0,0,0,,0,110,110,79,1,2,TL,vadility,print,vadility_p.png,,,,,
,,,,32333,001,2025-11-10_20h48.49.675,HW_LDT_1,2024.2.4,Win32,59.88023952,,,,,,,,,,,,,,,,,,,,684.6329,684.8316,684.8317,685.3314,,,,,,,,,,,,2.3541,1,,,,,,,,,,,,,,z,,,,,,,,,,,,,,,,,112,1,685.332,687.6869,z,1,2.3541,,[],[],[],[],[],[],[],687.6871,689.6866,689.6867,690.5372,[-0.23796293470594618],[-0.31574079725477433],[1],[0],[0],[0.8503999999985581],"[""button_left_probe""]",,690.5373,690.5376,-0.237962935,-0.315740797,1,0,0,,0,111,111,68,1,2,TL,quatily,cursive,quatily_c.png,,,,,
,,,,32333,001,2025-11-10_20h48.49.675,HW_LDT_1,2024.2.4,Win32,59.88023952,,,,,,,,,,,,,,,,,,,,690.5389,690.7316,690.7317,691.2314,,,,,,,,,,,,2.4978,0,,,,,,,,,,,,,,m,,,,,,,,,,,,,,,,,113,0,691.2321,693.7316,z,0,2.4978,,[],[],[],[],[],[],[],693.7317,695.7314,695.7316,695.7318,[],[],[],[],[],[],[],,695.7319,695.7319,-0.237962935,-0.315740797,0,0,0,,0,112,112,126,1,2,word,OPTIMAL,cursive,optimal_c.png,,,,,
,,,,32333,001,2025-11-10_20h48.49.675,HW_LDT_1,2024.2.4,Win32,59.88023952,,,,,,,,,,,,,,,,,,,,695.733,695.9361,695.9361,696.4198,,,,,,,,,,,,1.2593,1,,,,,,,,,,,,,,z,,,,,,,,,,,,,,,,,114,0,696.4204,697.6814,z,1,1.2593,,[],[],[],[],[],[],[],697.6816,699.6695,699.6695,699.6697,[],[],[],[],[],[],[],,699.6698,699.67,-0.237962935,-0.315740797,0,0,0,,0,113,113,23,1,2,RL,procogal,cursive,procogal_c.png,,,,,
,,,,32333,001,2025-11-10_20h48.49.675,HW_LDT_1,2024.2.4,Win32,59.88023952,,,,,,,,,,,,,,,,,,,,699.6715,699.8696,699.8697,700.365,,,,,,,,,,,,1.2287,1,,,,,,,,,,,,,,z,,,,,,,,,,,,,,,,,115,0,700.3654,701.5982,z,1,1.2287,,[],[],[],[],[],[],[],701.5983,703.6026,703.6027,703.603,[],[],[],[],[],[],[],,703.603,703.6031,-0.237962935,-0.315740797,0,0,0,,0,114,114,16,1,2,RL,losipal,print,losipal_p.png,,,,,
,,,,32333,001,2025-11-10_20h48.49.675,HW_LDT_1,2024.2.4,Win32,59.88023952,,,,,,,,,,,,,,,,,,,,703.6046,703.7983,703.7983,704.3029,,,,,,,,,,,,0.9319,1,,,,,,,,,,,,,,m,,,,,,,,,,,,,,,,,116,0,704.3042,705.2373,m,1,0.9319,,[],[],[],[],[],[],[],705.2374,707.2362,707.2363,707.2364,[],[],[],[],[],[],[],,707.2366,707.2366,-0.237962935,-0.315740797,0,0,0,,0,115,115,84,1,2,word,BELOVED,cursive,beloved_c.png,,,,,
,,,,32333,001,2025-11-10_20h48.49.675,HW_LDT_1,2024.2.4,Win32,59.88023952,,,,,,,,,,,,,,,,,,,,707.2383,707.436,707.4362,707.9319,,,,,,,,,,,,0.7787,1,,,,,,,,,,,,,,m,,,,,,,,,,,,,,,,,117,0,707.9324,708.7149,m,1,0.7787,,[],[],[],[],[],[],[],708.715,710.7148,710.7148,710.715,[],[],[],[],[],[],[],,710.715,710.715,-0.237962935,-0.315740797,0,0,0,,0,116,116,136,1,2,word,RADICAL,cursive,radical_c.png,,,,,
,,,,32333,001,2025-11-10_20h48.49.675,HW_LDT_1,2024.2.4,Win32,59.88023952,,,,,,,,,,,,,,,,,,,,710.716,710.9148,710.9151,711.4151,,,,,,,,,,,,1.1035,1,,,,,,,,,,,,,,m,,,,,,,,,,,,,,,,,118,0,711.4156,712.5201,m,1,1.1035,,[],[],[],[],[],[],[],712.5202,714.5148,714.5149,714.5153,[],[],[],[],[],[],[],,714.5153,714.5154,-0.237962935,-0.315740797,0,0,0,,0,117,117,142,1,2,word,REMOTE,cursive,remote_c.png,,,,,
,,,,32333,001,2025-11-10_20h48.49.675,HW_LDT_1,2024.2.4,Win32,59.88023952,,,,,,,,,,,,,,,,,,,,714.5166,714.7149,714.715,715.2196,,,,,,,,,,,,1.9348,1,,,,,,,,,,,,,,z,,,,,,,,,,,,,,,,,119,0,715.2202,717.1653,z,1,1.9348,,[],[],[],[],[],[],[],717.1654,719.1651,719.1652,719.1654,[],[],[],[],[],[],[],,719.1654,719.1655,-0.237962935,-0.315740797,0,0,0,,0,118,118,7,1,2,RL,cocewage,cursive,cocewage_c.png,,,,,
,,,,32333,001,2025-11-10_20h48.49.675,HW_LDT_1,2024.2.4,Win32,59.88023952,,,,,,,,,,,,,,,,,,,,719.1668,719.365,719.3651,719.87,,,,,,,,,,,,1.4894,1,,,,,,,,,,,,,,m,,,,,,,,,,,,,,,,,120,0,719.8706,721.3651,m,1,1.4894,,[],[],[],[],[],[],[],721.3653,723.3653,723.3654,723.3656,[],[],[],[],[],[],[],,723.3656,723.3658,-0.237962935,-0.315740797,0,0,0,,0,119,119,124,1,2,word,NUMERICAL,cursive,numerical_c.png,,,,,
,,,,32333,001,2025-11-10_20h48.49.675,HW_LDT_1,2024.2.4,Win32,59.88023952,,,,,,,,,,,,,,,,,,,,723.367,723.5699,723.57,724.065,,,,,,,,,,,,0.6562,1,,,,,,,,,,,,,,m,,,,,,,,,,,,,,,,,121,1,724.0657,724.732,m,1,0.6562,,[],[],[],[],[],[],[],724.7321,726.7362,726.7362,727.9819,[0.5009259541829427],[-0.3129630194769965],[1],[0],[0],[1.2454000000059295],"[""button_right_probe""]",,727.9819,727.982,0.500925954,-0.312963019,1,0,0,,0,120,120,153,1,2,word,STOLEN,print,stolen_p.png,,,,,
,,,,32333,001,2025-11-10_20h48.49.675,HW_LDT_1,2024.2.4,Win32,59.88023952,,,,,,,,,,,,,,,,,,,,727.9833,728.1817,728.1817,728.6817,,,,,,,,,,,,0.7701,1,,,,,,,,,,,,,,z,,,,,,,,,,,,,,,,,122,0,728.6824,729.4535,z,1,0.7701,,[],[],[],[],[],[],[],729.4537,731.4484,731.4484,731.4485,[],[],[],[],[],[],[],,731.4486,731.4486,0.500925954,-0.312963019,0,0,0,,0,121,121,21,1,2,RL,pamest,print,pamest_p.png,,,,,
,,,,32333,001,2025-11-10_20h48.49.675,HW_LDT_1,2024.2.4,Win32,59.88023952,,,,,,,,,,,,,,,,,,,,731.4498,731.6486,731.6487,732.1485,,,,,,,,,,,,0.6265,1,,,,,,,,,,,,,,m,,,,,,,,,,,,,,,,,123,0,732.1493,732.7817,m,1,0.6265,,[],[],[],[],[],[],[],732.7818,734.7699,734.77,734.7702,[],[],[],[],[],[],[],,734.7703,734.7705,0.500925954,-0.312963019,0,0,0,,0,122,122,92,1,2,word,CATEGORY,print,category_p.png,,,,,
,,,,32333,001,2025-11-10_20h48.49.675,HW_LDT_1,2024.2.4,Win32,59.88023952,,,,,,,,,,,,,,,,,,,,734.7719,734.9652,734.9652,735.4651,,,,,,,,,,,,0.9203,1,,,,,,,,,,,,,,z,,,,,,,,,,,,,,,,,124,0,735.4658,736.3871,z,1,0.9203,,[],[],[],[],[],[],[],736.3872,738.382,738.3822,738.3822,[],[],[],[],[],[],[],,738.3823,738.3824,0.500925954,-0.312963019,0,0,0,,0,123,123,31,1,2,RL,spetisic,print,spetisic_p.png,,,,,
,,,,32333,001,2025-11-10_20h48.49.675,HW_LDT_1,2024.2.4,Win32,59.88023952,,,,,,,,,,,,,,,,,,,,738.3835,738.5865,738.5865,739.086,,,,,,,,,,,,0.7069,1,,,,,,,,,,,,,,m,,,,,,,,,,,,,,,,,125,1,739.0868,739.7985,m,1,0.7069,,[],[],[],[],[],[],[],739.7986,741.7984,741.7985,743.1377,[0.5027777777777778],[-0.3138888888888889],[1],[0],[0],[1.338899999998489],"[""button_right_probe""]",,743.1377,743.1378,0.502777778,-0.313888889,1,0,0,,0,124,124,152,1,2,word,SPECIMEN,print,specimen_p.png,,,,,
,,,,32333,001,2025-11-10_20h48.49.675,HW_LDT_1,2024.2.4,Win32,59.88023952,,,,,,,,,,,,,,,,,,,,743.139,743.3318,743.3319,743.8368,,,,,,,,,,,,1.1262,0,,,,,,,,,,,,,,z,,,,,,,,,,,,,,,,,126,0,743.8375,744.9652,m,0,1.1262,,[],[],[],[],[],[],[],744.9654,746.9651,746.9652,746.9653,[],[],[],[],[],[],[],,746.9654,746.9654,0.502777778,-0.313888889,0,0,0,,0,125,125,47,1,2,TL,crinimal,cursive,crinimal_c.png,,,,,
,,,,32333,001,2025-11-10_20h48.49.675,HW_LDT_1,2024.2.4,Win32,59.88023952,,,,,,,,,,,,,,,,,,,,746.9667,747.1655,747.1655,747.6652,,,,,,,,,,,,0.8459,1,,,,,,,,,,,,,,m,,,,,,,,,,,,,,,,,127,0,747.666,748.5153,m,1,0.8459,,[],[],[],[],[],[],[],748.5154,750.5185,750.5185,750.5187,[],[],[],[],[],[],[],,750.5188,750.5189,0.502777778,-0.313888889,0,0,0,,0,126,126,131,1,2,word,POPULAR,cursive,popular_c.png,,,,,
,,,,32333,001,2025-11-10_20h48.49.675,HW_LDT_1,2024.2.4,Win32,59.88023952,,,,,,,,,,,,,,,,,,,,750.5206,750.7185,750.7186,751.2153,,,,,,,,,,,,3.9205,0,,,,,,,,,,,,,,m,,,,,,,,,,,,,,,,,128,0,751.2159,755.1372,z,0,3.9205,,[],[],[],[],[],[],[],755.1374,757.1319,757.132,757.1323,[],[],[],[],[],[],[],,757.1324,757.1325,0.502777778,-0.313888889,0,0,0,,0,127,127,111,1,2,word,INDICATE,cursive,indicate_c.png,,,,,
,,,,32333,001,2025-11-10_20h48.49.675,HW_LDT_1,2024.2.4,Win32,59.88023952,,,,,,,,,,,,,,,,,,,,757.1337,757.332,757.3321,757.832,,,,,,,,,,,,1.0875,1,,,,,,,,,,,,,,m,,,,,,,,,,,,,,,,,129,1,757.8325,758.9213,m,1,1.0875,,[],[],[],[],[],[],[],758.9213,760.9199,760.9199,762.1655,[-0.25277777777777777],[-0.3472222222222222],[1],[0],[0],[1.2453999999984262],"[""button_left_probe""]",,762.1656,762.1657,-0.252777778,-0.347222222,1,0,0,,0,128,128,119,1,2,word,MEMORY,cursive,memory_c.png,,,,,
,,,,32333,001,2025-11-10_20h48.49.675,HW_LDT_1,2024.2.4,Win32,59.88023952,,,,,,,,,,,,,,,,,,,,762.1671,762.3654,762.3654,762.8534,,,,,,,,,,,,0.9159,1,,,,,,,,,,,,,,z,,,,,,,,,,,,,,,,,130,0,762.854,763.7709,z,1,0.9159,,[],[],[],[],[],[],[],763.771,765.7654,765.7654,765.7657,[],[],[],[],[],[],[],,765.7658,765.7659,-0.252777778,-0.347222222,0,0,0,,0,129,129,10,1,2,RL,disluge,cursive,disluge_c.png,,,,,
,,,,32333,001,2025-11-10_20h48.49.675,HW_LDT_1,2024.2.4,Win32,59.88023952,,,,,,,,,,,,,,,,,,,,765.767,765.9701,765.9702,766.4657,,,,,,,,,,,,0.5929,1,,,,,,,,,,,,,,m,,,,,,,,,,,,,,,,,131,0,766.4663,767.0658,m,1,0.5929,,[],[],[],[],[],[],[],767.0659,769.0657,769.0657,769.0661,[],[],[],[],[],[],[],,769.0661,769.0663,-0.252777778,-0.347222222,0,0,0,,0,130,130,83,1,2,word,ANIMAL,print,animal_p.png,,,,,
,,,,32333,001,2025-11-10_20h48.49.675,HW_LDT_1,2024.2.4,Win32,59.88023952,,,,,,,,,,,,,,,,,,,,769.0675,769.2656,769.2656,769.7696,,,,,,,,,,,,0.9904,1,,,,,,,,,,,,,,m,,,,,,,,,,,,,,,,,132,0,769.7703,770.7655,m,1,0.9904,,[],[],[],[],[],[],[],770.7657,772.7535,772.7535,772.7539,[],[],[],[],[],[],[],,772.7539,772.754,-0.252777778,-0.347222222,0,0,0,,0,131,131,98,1,2,word,CRIMINAL,cursive,criminal_c.png,,,,,
,,,,32333,001,2025-11-10_20h48.49.675,HW_LDT_1,2024.2.4,Win32,59.88023952,,,,,,,,,,,,,,,,,,,,772.7556,772.9487,772.9488,773.4488,,,,,,,,,,,,0.7535,1,,,,,,,,,,,,,,m,,,,,,,,,,,,,,,,,133,0,773.4495,774.2039,m,1,0.7535,,[],[],[],[],[],[],[],774.204,776.2029,776.203,776.2033,[],[],[],[],[],[],[],,776.2034,776.2035,-0.252777778,-0.347222222,0,0,0,,0,132,132,158,1,2,word,VELOCITY,print,velocity_p.png,,,,,
,,,,32333,001,2025-11-10_20h48.49.675,HW_LDT_1,2024.2.4,Win32,59.88023952,,,,,,,,,,,,,,,,,,,,776.2049,776.4039,776.404,776.9035,,,,,,,,,,,,1.637,1,,,,,,,,,,,,,,m,,,,,,,,,,,,,,,,,134,1,776.9039,778.5489,m,1,1.637,,[],[],[],[],[],[],[],778.5491,780.5489,780.549,781.4876,[-0.25277777777777777],[-0.3472222222222222],[1],[0],[0],[0.9383999999985235],"[""button_left_probe""]",,781.4877,781.4877,-0.252777778,-0.347222222,1,0,0,,0,133,133,91,1,2,word,CARDINAL,cursive,cardinal_c.png,,,,,
,,,,32333,001,2025-11-10_20h48.49.675,HW_LDT_1,2024.2.4,Win32,59.88023952,,,,,,,,,,,,,,,,,,,,781.4892,781.6822,781.6822,782.1865,,,,,,,,,,,,2.6159,0,,,,,,,,,,,,,,m,,,,,,,,,,,,,,,,,135,0,782.1871,784.8042,z,0,2.6159,,[],[],[],[],[],[],[],784.8043,786.8041,786.8042,786.8045,[],[],[],[],[],[],[],,786.8045,786.8046,-0.252777778,-0.347222222,0,0,0,,0,134,134,125,1,2,word,OPERATOR,cursive,operator_c.png,,,,,
,,,,32333,001,2025-11-10_20h48.49.675,HW_LDT_1,2024.2.4,Win32,59.88023952,,,,,,,,,,,,,,,,,,,,786.8062,786.9989,786.999,787.5038,,,,,,,,,,,,0.7349,1,,,,,,,,,,,,,,m,,,,,,,,,,,,,,,,,136,1,787.5045,788.2403,m,1,0.7349,,[],[],[],[],[],[],[],788.2404,790.2325,790.2325,791.453,[],[],[],[],[],[],[],m,791.4532,791.4534,-0.252777778,-0.347222222,0,0,0,,0,135,135,93,1,2,word,CEREMONY,print,ceremony_p.png,,1.2198,,,
,,,,32333,001,2025-11-10_20h48.49.675,HW_LDT_1,2024.2.4,Win32,59.88023952,,,,,,,,,,,,,,,,,,,,791.4548,791.6492,791.6492,792.1493,,,,,,,,,,,,0.7532,1,,,,,,,,,,,,,,m,,,,,,,,,,,,,,,,,137,0,792.1497,792.9037,m,1,0.7532,,[],[],[],[],[],[],[],792.9039,794.9038,794.9039,794.9041,[],[],[],[],[],[],[],,794.9042,794.9043,-0.252777778,-0.347222222,0,0,0,,0,136,136,143,1,2,word,REMOVAL,print,removal_p.png,,,,,
,,,,32333,001,2025-11-10_20h48.49.675,HW_LDT_1,2024.2.4,Win32,59.88023952,,,,,,,,,,,,,,,,,,,,794.9059,795.0991,795.0991,795.5991,,,,,,,,,,,,1.2705,1,,,,,,,,,,,,,,z,,,,,,,,,,,,,,,,,138,0,795.5998,796.8715,z,1,1.2705,,[],[],[],[],[],[],[],796.8717,798.8656,798.8657,798.8659,[],[],[],[],[],[],[],,798.8659,798.8659,-0.252777778,-0.347222222,0,0,0,,0,137,137,39,1,2,TL,aminal,print,aminal_p.png,,,,,
,,,,32333,001,2025-11-10_20h48.49.675,HW_LDT_1,2024.2.4,Win32,59.88023952,,,,,,,,,,,,,,,,,,,,798.867,799.0661,799.0661,799.5701,,,,,,,,,,,,3.199,0,,,,,,,,,,,,,,m,,,,,,,,,,,,,,,,,139,1,799.5708,802.7708,z,0,3.199,,[],[],[],[],[],[],[],802.771,804.766,804.7661,805.8049,[],[],[],[],[],[],[],z,805.8049,805.8051,-0.252777778,-0.347222222,0,0,0,,0,138,138,103,1,2,word,DISPUTE,cursive,dispute_c.png,,1.0379,,,
,,,,32333,001,2025-11-10_20h48.49.675,HW_LDT_1,2024.2.4,Win32,59.88023952,,,,,,,,,,,,,,,,,,,,805.8063,805.9991,805.9992,806.5038,,,,,,,,,,,,1.2205,1,,,,,,,,,,,,,,m,,,,,,,,,,,,,,,,,140,1,806.5044,807.7327,m,1,1.2205,,[],[],[],[],[],[],[],807.7327,809.7327,809.7327,812.8051,[],[],[],[],[],[],[],z,812.8053,812.8055,-0.237962935,-0.353703732,0,0,0,,0,139,139,97,1,2,word,COVERAGE,cursive,coverage_c.png,,3.0717,,,
,,,,32333,001,2025-11-10_20h48.49.675,HW_LDT_1,2024.2.4,Win32,59.88023952,,,,,,,,,,,,,,,,,,,,812.8068,812.9992,812.9992,813.4991,,,,,,,,,,,,3.0204,1,,,,,,,,,,,,,,z,,,,,,,,,,,,,,,,,141,1,813.4998,816.5211,z,1,3.0204,,[],[],[],[],[],[],[],816.5212,818.5159,818.5159,819.3716,[],[],[],[],[],[],[],z,819.3718,819.3719,-0.237962935,-0.353703732,0,0,0,,0,140,140,61,1,2,TL,nuremical,cursive,nuremical_c.png,,0.8549,,,
,,,,32333,001,2025-11-10_20h48.49.675,HW_LDT_1,2024.2.4,Win32,59.88023952,,,,,,,,,,,,,,,,,,,,819.3732,819.5658,819.5658,820.0659,,,,,,,,,,,,0.9193,1,,,,,,,,,,,,,,z,,,,,,,,,,,,,,,,,142,0,820.0666,820.987,z,1,0.9193,,[],[],[],[],[],[],[],820.9871,822.9865,822.9865,822.9868,[],[],[],[],[],[],[],,822.9869,822.9871,-0.237962935,-0.353703732,0,0,0,,0,141,141,3,1,2,RL,capefory,print,capefory_p.png,,,,,
,,,,32333,001,2025-11-10_20h48.49.675,HW_LDT_1,2024.2.4,Win32,59.88023952,,,,,,,,,,,,,,,,,,,,822.9886,823.1826,823.1828,823.6873,,,,,,,,,,,,1.7891,0,,,,,,,,,,,,,,m,,,,,,,,,,,,,,,,,143,0,823.688,825.4828,z,0,1.7891,,[],[],[],[],[],[],[],825.4829,827.4868,827.4869,827.487,[],[],[],[],[],[],[],,827.487,827.4871,-0.235185157,-0.354629686,0,0,0,,0,142,142,138,1,2,word,REFUSAL,cursive,refusal_c.png,,,,,
,,,,32333,001,2025-11-10_20h48.49.675,HW_LDT_1,2024.2.4,Win32,59.88023952,,,,,,,,,,,,,,,,,,,,827.4883,827.6826,827.6827,828.1827,,,,,,,,,,,,0.8038,1,,,,,,,,,,,,,,z,,,,,,,,,,,,,,,,,144,0,828.1833,828.9883,z,1,0.8038,,[],[],[],[],[],[],[],828.9885,830.9827,830.9827,830.983,[],[],[],[],[],[],[],,830.983,830.9831,-0.237037023,-0.359259288,0,0,0,,0,143,143,55,1,2,TL,lotace,print,lotace_p.png,,,,,
,,,,32333,001,2025-11-10_20h48.49.675,HW_LDT_1,2024.2.4,Win32,59.88023952,,,,,,,,,,,,,,,,,,,,830.9845,831.1827,831.1827,831.6829,,,,,,,,,,,,1.8368,1,,,,,,,,,,,,,,z,,,,,,,,,,,,,,,,,145,0,831.6833,833.5212,z,1,1.8368,,[],[],[],[],[],[],[],833.5213,835.5205,835.5206,835.5208,[],[],[],[],[],[],[],,835.5208,835.521,-0.237037023,-0.359259288,0,0,0,,0,144,144,38,1,2,TL,atameur,cursive,atameur_c.png,,,,,
,,,,32333,001,2025-11-10_20h48.49.675,HW_LDT_1,2024.2.4,Win32,59.88023952,,,,,,,,,,,,,,,,,,,,835.5228,835.716,835.7161,836.2163,,,,,,,,,,,,0.7535,1,,,,,,,,,,,,,,m,,,,,,,,,,,,,,,,,146,0,836.2167,836.9714,m,1,0.7535,,[],[],[],[],[],[],[],836.9715,838.9659,838.966,838.9663,[],[],[],[],[],[],[],,838.9663,838.9664,-0.315740712,-0.311111111,0,0,0,,0,145,145,96,1,2,word,CONSIDER,print,consider_p.png,,,,,
,,,,32333,001,2025-11-10_20h48.49.675,HW_LDT_1,2024.2.4,Win32,59.88023952,,,,,,,,,,,,,,,,,,,,838.9678,839.1707,839.1708,839.6703,,,,,,,,,,,,1.4987,0,,,,,,,,,,,,,,m,,,,,,,,,,,,,,,,,147,0,839.6709,841.1704,z,0,1.4987,,[],[],[],[],[],[],[],841.1706,843.1664,843.1664,843.1667,[],[],[],[],[],[],[],,843.1668,843.167,-0.315740712,-0.311111111,0,0,0,,0,146,146,120,1,2,word,MILITARY,cursive,military_c.png,,,,,
,,,,32333,001,2025-11-10_20h48.49.675,HW_LDT_1,2024.2.4,Win32,59.88023952,,,,,,,,,,,,,,,,,,,,843.1685,843.3664,843.3664,843.8704,,,,,,,,,,,,0.773,1,,,,,,,,,,,,,,z,,,,,,,,,,,,,,,,,148,0,843.871,844.6497,z,1,0.773,,[],[],[],[],[],[],[],844.6498,846.6541,846.6541,846.6542,[],[],[],[],[],[],[],,846.6543,846.6544,-0.315740712,-0.311111111,0,0,0,,0,147,147,13,1,2,RL,helicage,print,helicage_p.png,,,,,
,,,,32333,001,2025-11-10_20h48.49.675,HW_LDT_1,2024.2.4,Win32,59.88023952,,,,,,,,,,,,,,,,,,,,846.656,846.8497,846.8498,847.3545,,,,,,,,,,,,0.8804,1,,,,,,,,,,,,,,z,,,,,,,,,,,,,,,,,149,1,847.3552,848.2366,z,1,0.8804,,[],[],[],[],[],[],[],848.2368,850.2372,850.2373,851.5666,[],[],[],[],[],[],[],z,851.5666,851.5669,-0.315740712,-0.311111111,0,0,0,,0,148,148,69,1,2,TL,resufal,cursive,resufal_c.png,,1.3215,,,
,,,,32333,001,2025-11-10_20h48.49.675,HW_LDT_1,2024.2.4,Win32,59.88023952,,,,,,,,,,,,,,,,,,,,851.5682,851.7665,851.7665,852.2662,,,,,,,,,,,,1.2035,1,,,,,,,,,,,,,,z,,,,,,,,,,,,,,,,,150,0,852.2668,853.4714,z,1,1.2035,,[],[],[],[],[],[],[],853.4715,855.4705,855.4705,855.4708,[],[],[],[],[],[],[],,855.4708,855.471,-0.315740712,-0.311111111,0,0,0,,0,149,149,2,1,2,RL,casagity,print,casagity_p.png,,,,,
,,,,32333,001,2025-11-10_20h48.49.675,HW_LDT_1,2024.2.4,Win32,59.88023952,,,,,,,,,,,,,,,,,,,,855.4725,855.6663,855.6663,856.1665,,,,,,,,,,,,1.1145,1,,,,,,,,,,,,,,z,,,,,,,,,,,,,,,,,151,0,856.1669,857.283,z,1,1.1145,,[],[],[],[],[],[],[],857.283,859.2829,859.2829,859.2832,[],[],[],[],[],[],[],,859.2832,859.2834,-0.315740712,-0.311111111,0,0,0,,0,150,150,43,1,2,TL,carema,print,carema_p.png,,,,,
,,,,32333,001,2025-11-10_20h48.49.675,HW_LDT_1,2024.2.4,Win32,59.88023952,,,,,,,,,,,,,,,,,,,,859.2846,859.4832,859.4832,859.9829,,,,,,,,,,,,1.5026,1,,,,,,,,,,,,,,m,,,,,,,,,,,,,,,,,152,0,859.9835,861.4873,m,1,1.5026,,[],[],[],[],[],[],[],861.4875,863.4829,863.483,863.4833,[],[],[],[],[],[],[],,863.4834,863.4834,-0.315740712,-0.311111111,0,0,0,,0,151,151,80,1,2,word,ACADEMY,cursive,academy_c.png,,,,,
,,,,32333,001,2025-11-10_20h48.49.675,HW_LDT_1,2024.2.4,Win32,59.88023952,,,,,,,,,,,,,,,,,,,,863.4849,863.6716,863.6717,864.1873,,,,,,,,,,,,2.1853,1,,,,,,,,,,,,,,z,,,,,,,,,,,,,,,,,153,1,864.1879,866.383,z,1,2.1853,,[],[],[],[],[],[],[],866.3831,868.383,868.3831,869.6057,[],[],[],[],[],[],[],z,869.6057,869.6058,-0.315740712,-0.311111111,0,0,0,,0,152,152,34,1,2,RL,trilude,cursive,trilude_c.png,,1.2218,,,
,,,,32333,001,2025-11-10_20h48.49.675,HW_LDT_1,2024.2.4,Win32,59.88023952,,,,,,,,,,,,,,,,,,,,869.6071,869.8042,869.8043,870.2998,,,,,,,,,,,,2.6454,0,,,,,,,,,,,,,,m,,,,,,,,,,,,,,,,,154,1,870.3003,872.9499,z,0,2.6454,,[],[],[],[],[],[],[],872.95,874.9539,874.954,875.7833,[],[],[],[],[],[],[],z,875.7833,875.7834,-0.315740712,-0.311111111,0,0,0,,0,153,153,134,1,2,word,QUALIFY,cursive,qualify_c.png,,0.8235,,,
,,,,32333,001,2025-11-10_20h48.49.675,HW_LDT_1,2024.2.4,Win32,59.88023952,,,,,,,,,,,,,,,,,,,,875.7847,875.9713,875.9713,876.4877,,,,,,,,,,,,1.5022,1,,,,,,,,,,,,,,m,,,,,,,,,,,,,,,,,155,0,876.4884,877.9998,m,1,1.5022,,[],[],[],[],[],[],[],877.9999,879.9998,879.9998,880,[],[],[],[],[],[],[],,880.0001,880.0002,-0.315740712,-0.311111111,0,0,0,,0,154,154,110,1,2,word,HERITAGE,print,heritage_p.png,,,,,
,,,,32333,001,2025-11-10_20h48.49.675,HW_LDT_1,2024.2.4,Win32,59.88023952,,,,,,,,,,,,,,,,,,,,880.0014,880.1997,880.1999,880.7,,,,,,,,,,,,1.9815,1,,,,,,,,,,,,,,z,,,,,,,,,,,,,,,,,156,0,880.7004,882.6832,z,1,1.9815,,[],[],[],[],[],[],[],882.6833,884.6833,884.6834,884.6836,[],[],[],[],[],[],[],,884.6837,884.6838,-0.315740712,-0.311111111,0,0,0,,0,155,155,54,1,2,TL,liretal,cursive,liretal_c.png,,,,,
,,,,32333,001,2025-11-10_20h48.49.675,HW_LDT_1,2024.2.4,Win32,59.88023952,,,,,,,,,,,,,,,,,,,,884.6852,884.8883,884.8883,885.3875,,,,,,,,,,,,0.8063,0,,,,,,,,,,,,,,m,,,,,,,,,,,,,,,,,157,0,885.3883,886.1999,z,0,0.8063,,[],[],[],[],[],[],[],886.2001,888.2045,888.2046,888.2047,[],[],[],[],[],[],[],,888.2049,888.2049,-0.315740712,-0.311111111,0,0,0,,0,156,156,105,1,2,word,EDITOR,cursive,editor_c.png,,,,,
,,,,32333,001,2025-11-10_20h48.49.675,HW_LDT_1,2024.2.4,Win32,59.88023952,,,,,,,,,,,,,,,,,,,,888.2065,888.4041,888.4043,888.9,,,,,,,,,,,,2.8441,0,,,,,,,,,,,,,,m,,,,,,,,,,,,,,,,,158,0,888.9006,891.7498,z,0,2.8441,,[],[],[],[],[],[],[],891.7499,893.7378,893.7378,893.738,[],[],[],[],[],[],[],,893.7381,893.7381,-0.315740712,-0.311111111,0,0,0,,0,157,157,113,1,2,word,LITERAL,cursive,literal_c.png,,,,,
,,,,32333,001,2025-11-10_20h48.49.675,HW_LDT_1,2024.2.4,Win32,59.88023952,,,,,,,,,,,,,,,,,,,,893.7397,893.9378,893.9379,894.4333,,,,,,,,,,,,0.9202,1,,,,,,,,,,,,,,m,,,,,,,,,,,,,,,,,159,1,894.4342,895.3553,m,1,0.9202,,[],[],[],[],[],[],[],895.3554,897.3543,897.3543,898.6558,[0.44166666666666665],[-0.3425926208496094],[1],[0],[0],[1.3015000000000327],"[""button_right_probe""]",,898.6559,898.656,0.441666667,-0.342592621,1,0,0,,0,158,158,149,1,2,word,SENATOR,print,senator_p.png,,,,,
,,,,32333,001,2025-11-10_20h48.49.675,HW_LDT_1,2024.2.4,Win32,59.88023952,,,,,,,,,,,,,,,,,,,,898.6573,898.85,898.85,899.3499,,,,,,,,,,,,1.0696,1,,,,,,,,,,,,,,m,,,,,,,,,,,,,,,,,160,0,899.3507,900.4211,m,1,1.0696,,[],[],[],[],[],[],[],900.4212,902.4166,902.4166,902.4168,[],[],[],[],[],[],[],,902.4168,902.4168,0.441666667,-0.342592621,0,0,0,,0,159,159,145,1,2,word,RESUME,cursive,resume_c.png,,,,,
,,,,32333,001,2025-11-10_20h48.49.675,HW_LDT_1,2024.2.4,Win32,59.88023952,,,,,,,,,,,,,,,,,,,,,,,,,,,,,,,,,,,,,,,,,,,,,,,,,,,,,,,,,,,,,,,,,,,,,,,,,,,,,,,,,,,,,,,,,,,,,,,,,,,,,,,,,,,,,,,,,,,902.4369,907.4171
