counterbalance_lists.group,counterbalance_lists.remaining,get_list.started,get_list.stopped,participant,session,date,expName,psychopyVersion,OS,frameRate,Instructions.started,Instructions.stopped,key_resp.keys,key_resp.rt,key_resp.duration,instr_done_touch.x,instr_done_touch.y,instr_done_touch.leftButton,instr_done_touch.midButton,instr_done_touch.rightButton,instr_done_touch.clicked_name,start_instr.thisRepN,start_instr.thisTrialN,start_instr.thisN,start_instr.thisIndex,start_instr.ran,pageN,phase,instruct_text,has_image,instruct_image,showProgress.started,showProgress.stopped,fix.started,fix.stopped,prac.started,prac.stopped,response.keys,response.corr,response.rt,response.duration,touch_resp.x,touch_resp.y,touch_resp.leftButton,touch_resp.midButton,touch_resp.rightButton,touch_resp.time,touch_resp.clicked_name,rt,corr,feedback.started,feedback.stopped,trials.thisRepN,trials.thisTrialN,trials.thisN,trials.thisIndex,trials.ran,TrialID,StimulusType,Condition,PrimeDuration,Prime,Target,corrAns,Instructions_expt.started,Instructions_expt.stopped,key_resp_3.keys,key_resp_3.rt,key_resp_3.duration,instr_done_touch_3.x,instr_done_touch_3.y,instr_done_touch_3.leftButton,instr_done_touch_3.midButton,instr_done_touch_3.rightButton,instr_experiment.thisRepN,instr_experiment.thisTrialN,instr_experiment.thisN,instr_experiment.thisIndex,instr_experiment.ran,trialID,flag,maintask.started,maintask.stopped,key_resp_2.keys,key_resp_2.corr,key_resp_2.rt,key_resp_2.duration,targ_click.x,targ_click.y,targ_click.leftButton,targ_click.midButton,targ_click.rightButton,targ_click.time,targ_click.clicked_name,ITI.started,ITI.stopped,probe.started,probe.stopped,click_probe.x,click_probe.y,click_probe.leftButton,click_probe.midButton,click_probe.rightButton,click_probe.time,click_probe.clicked_name,key_resp_probe.keys,Break.started,Break.stopped,break_done_touch.x,break_done_touch.y,break_done_touch.leftButton,break_done_touch.midButton,break_done_touch.rightButton,break_done_keyboard.keys,list2_trials.thisRepN,list2_trials.thisTrialN,list2_trials.thisN,list2_trials.thisIndex,list2_trials.ran,list_id,item_type,string,font,stim_file,key_resp_probe.rt,key_resp_probe.duration,break_done_keyboard.rt,break_done_keyboard.duration,End.started,End.stopped
list2,,0.443,0.4433,32364,001,2025-12-02_14h53.57.234,HW_LDT_1,2024.2.4,Win32,60.60606061,,,,,,,,,,,,,,,,,,,,,,,,,,,,,,,,,,,,,,,,,,,,,,,,,,,,,,,,,,,,,,,,,,,,,,,,,,,,,,,,,,,,,,,,,,,,,,,,,,,,,,,,,,,,,,,,,,,,,,,,
,,,,32364,001,2025-12-02_14h53.57.234,HW_LDT_1,2024.2.4,Win32,60.60606061,0.4643,2.6141,space,2.1155,,-0.041666667,-0.210185228,0,0,0,,0,0,0,0,1,1,instructions,"INSTRUCTIONS
At the start of each trial, look at the plus sign  (+) in the center of the screen.  This tells you that a trial is about to begin and where to look. Second, the plus sign will disappear and a string of letters will appear. Your task is to determine if the string of letters is a word or not. If the item is a word press the M key (on keyboard)  or touch the word button (phone/tablet).  If the item is not a word,  press the  Z key (on keyboard)  or touch the nonword button (on phone/tablet). The items will be presented for a short time. 
Press the space bar or touch  continue.",0,,,,,,,,,,,,,,,,,,,,,,,,,,,,,,,,,,,,,,,,,,,,,,,,,,,,,,,,,,,,,,,,,,,,,,,,,,,,,,,,,,,,,,,,,,,,,,,,,,,,
,,,,32364,001,2025-12-02_14h53.57.234,HW_LDT_1,2024.2.4,Win32,60.60606061,2.6165,3.8215,space,1.1892,,-0.041666667,-0.210185228,0,0,0,,0,1,1,1,1,2,instructions,"If your device has a keyboard, press the 'Z' key for nonwords and the 'M' key for words.





Press the space bar or touch the button below to continue.",0,keyboard-example.gif,,,,,,,,,,,,,,,,,,,,,,,,,,,,,,,,,,,,,,,,,,,,,,,,,,,,,,,,,,,,,,,,,,,,,,,,,,,,,,,,,,,,,,,,,,,,,,,,,,,
,,,,32364,001,2025-12-02_14h53.57.234,HW_LDT_1,2024.2.4,Win32,60.60606061,3.8244,8.872,space,5.0255,,-0.041666667,-0.210185228,0,0,0,,0,2,2,2,1,3,instructions,"If you are using a touchscreen only device, use the buttons on the screen. Do not use the mouse.





Press the space bar or touch the button below to continue.",0,touchscreen-example.gif,,,,,,,,,,,,,,,,,,,,,,,,,,,,,,,,,,,,,,,,,,,,,,,,,,,,,,,,,,,,,,,,,,,,,,,,,,,,,,,,,,,,,,,,,,,,,,,,,,,
,,,,32364,001,2025-12-02_14h53.57.234,HW_LDT_1,2024.2.4,Win32,60.60606061,8.8773,12.6714,space,3.7759,,-0.041666667,-0.210185228,0,0,0,,0,3,3,3,1,4,instructions,"It is very important that you respond as quickly and accurately as possible, as each letter string will only be on the screen for two seconds. If you do not respond within this time, the message 'Too slow!' will be displayed and the experiment will progress to the next letter string. The first 20 trials will be practice trials and you will receive feedback on your answers. 

Press the space bar or touch the button below to start the practice trials.",0,,,,,,,,,,,,,,,,,,,,,,,,,,,,,,,,,,,,,,,,,,,,,,,,,,,,,,,,,,,,,,,,,,,,,,,,,,,,,,,,,,,,,,,,,,,,,,,,,,,,
,,,,32364,001,2025-12-02_14h53.57.234,HW_LDT_1,2024.2.4,Win32,60.60606061,,,,,,,,,,,,,,,,,,,,,,12.7222,12.8595,12.8598,13.3714,13.3717,17.4878,z,1,4.0852,,[],[],[],[],[],[],[],4.0852,1,17.4882,17.9881,0,0,0,15,1,1016,NW,UN,16,mushed,WHAISE,z,,,,,,,,,,,,,,,,,,,,,,,,,,,,,,,,,,,,,,,,,,,,,,,,,,,,,,,,,,,,,,,,,,
,,,,32364,001,2025-12-02_14h53.57.234,HW_LDT_1,2024.2.4,Win32,60.60606061,,,,,,,,,,,,,,,,,,,,,,17.9899,18.1871,18.1873,18.6868,18.6892,20.0375,m,1,1.3207,,[],[],[],[],[],[],[],1.3207,1,20.038,20.5379,0,1,1,6,1,1007,WORD,UN,16,tropic,ZOMBIE,m,,,,,,,,,,,,,,,,,,,,,,,,,,,,,,,,,,,,,,,,,,,,,,,,,,,,,,,,,,,,,,,,,,
,,,,32364,001,2025-12-02_14h53.57.234,HW_LDT_1,2024.2.4,Win32,60.60606061,,,,,,,,,,,,,,,,,,,,,,20.5397,20.7428,20.7428,21.2377,21.2402,22.3204,z,1,1.0534,,[],[],[],[],[],[],[],1.0534,1,22.3207,22.8204,0,2,2,12,1,1013,NW,UN,33,adveil,SPRINY,z,,,,,,,,,,,,,,,,,,,,,,,,,,,,,,,,,,,,,,,,,,,,,,,,,,,,,,,,,,,,,,,,,,
,,,,32364,001,2025-12-02_14h53.57.234,HW_LDT_1,2024.2.4,Win32,60.60606061,,,,,,,,,,,,,,,,,,,,,,22.8223,23.0205,23.0206,23.5212,23.5229,24.4205,m,1,0.8696,,[],[],[],[],[],[],[],0.8696,1,24.4208,24.92,0,3,3,5,1,1006,WORD,UN,33,frenzy,OBTAIN,m,,,,,,,,,,,,,,,,,,,,,,,,,,,,,,,,,,,,,,,,,,,,,,,,,,,,,,,,,,,,,,,,,,
,,,,32364,001,2025-12-02_14h53.57.234,HW_LDT_1,2024.2.4,Win32,60.60606061,,,,,,,,,,,,,,,,,,,,,,24.9218,25.1204,25.1206,25.6207,25.6221,27.3211,m,0,1.6698,,[],[],[],[],[],[],[],1.6698,0,27.3219,27.8201,0,4,4,13,1,1014,NW,UN,33,winfer,ROUPET,z,,,,,,,,,,,,,,,,,,,,,,,,,,,,,,,,,,,,,,,,,,,,,,,,,,,,,,,,,,,,,,,,,,
,,,,32364,001,2025-12-02_14h53.57.234,HW_LDT_1,2024.2.4,Win32,60.60606061,,,,,,,,,,,,,,,,,,,,,,27.8217,28.0199,28.0202,28.5198,28.5212,29.841,z,1,1.2991,,[],[],[],[],[],[],[],1.2991,1,29.8418,30.3412,0,5,5,11,1,1012,NW,"ID",16,rashet,RASHET,z,,,,,,,,,,,,,,,,,,,,,,,,,,,,,,,,,,,,,,,,,,,,,,,,,,,,,,,,,,,,,,,,,,
,,,,32364,001,2025-12-02_14h53.57.234,HW_LDT_1,2024.2.4,Win32,60.60606061,,,,,,,,,,,,,,,,,,,,,,30.3433,30.5364,30.5366,31.0372,31.0388,31.6864,m,1,0.6239,,[],[],[],[],[],[],[],0.6239,1,31.6866,32.1868,0,6,6,3,1,1004,WORD,"ID",16,matrix,MATRIX,m,,,,,,,,,,,,,,,,,,,,,,,,,,,,,,,,,,,,,,,,,,,,,,,,,,,,,,,,,,,,,,,,,,
,,,,32364,001,2025-12-02_14h53.57.234,HW_LDT_1,2024.2.4,Win32,60.60606061,,,,,,,,,,,,,,,,,,,,,,32.1891,32.3869,32.3871,32.8872,32.8893,33.4699,m,1,0.5601,,[],[],[],[],[],[],[],0.5601,1,33.4702,33.9704,0,7,7,7,1,1008,WORD,UN,16,hurdle,VOLUME,m,,,,,,,,,,,,,,,,,,,,,,,,,,,,,,,,,,,,,,,,,,,,,,,,,,,,,,,,,,,,,,,,,,
,,,,32364,001,2025-12-02_14h53.57.234,HW_LDT_1,2024.2.4,Win32,60.60606061,,,,,,,,,,,,,,,,,,,,,,33.9724,34.1702,34.1703,34.6581,34.6591,35.37,m,1,0.6888,,[],[],[],[],[],[],[],0.6888,1,35.3703,35.8728,0,8,8,0,1,1001,WORD,"ID",33,utopia,UTOPIA,m,,,,,,,,,,,,,,,,,,,,,,,,,,,,,,,,,,,,,,,,,,,,,,,,,,,,,,,,,,,,,,,,,,
,,,,32364,001,2025-12-02_14h53.57.234,HW_LDT_1,2024.2.4,Win32,60.60606061,,,,,,,,,,,,,,,,,,,,,,35.8741,36.0706,36.0708,36.5701,36.572,37.2916,m,1,0.6989,,[],[],[],[],[],[],[],0.6989,1,37.2916,37.7914,0,9,9,4,1,1005,WORD,UN,33,abound,SQUEAK,m,,,,,,,,,,,,,,,,,,,,,,,,,,,,,,,,,,,,,,,,,,,,,,,,,,,,,,,,,,,,,,,,,,
,,,,32364,001,2025-12-02_14h53.57.234,HW_LDT_1,2024.2.4,Win32,60.60606061,,,,,,,,,,,,,,,,,,,,,,37.7928,37.9867,37.9868,38.4863,38.4876,39.4756,z,1,0.9666,,[],[],[],[],[],[],[],0.9666,1,39.4758,39.9748,0,10,10,14,1,1015,NW,UN,16,miaber,THRALE,z,,,,,,,,,,,,,,,,,,,,,,,,,,,,,,,,,,,,,,,,,,,,,,,,,,,,,,,,,,,,,,,,,,
,,,,32364,001,2025-12-02_14h53.57.234,HW_LDT_1,2024.2.4,Win32,60.60606061,,,,,,,,,,,,,,,,,,,,,,39.976,40.17,40.1701,40.6701,40.6718,41.3039,m,1,0.6005,,[],[],[],[],[],[],[],0.6005,1,41.3043,41.8028,0,11,11,2,1,1003,WORD,"ID",16,almond,ALMOND,m,,,,,,,,,,,,,,,,,,,,,,,,,,,,,,,,,,,,,,,,,,,,,,,,,,,,,,,,,,,,,,,,,,
,,,,32364,001,2025-12-02_14h53.57.234,HW_LDT_1,2024.2.4,Win32,60.60606061,,,,,,,,,,,,,,,,,,,,,,41.8047,42.0027,42.0028,42.5032,42.5046,45.0863,z,1,2.5567,,[],[],[],[],[],[],[],2.5567,1,45.0865,45.5866,0,12,12,9,1,1010,NW,"ID",33,fariny,FARINY,z,,,,,,,,,,,,,,,,,,,,,,,,,,,,,,,,,,,,,,,,,,,,,,,,,,,,,,,,,,,,,,,,,,
,,,,32364,001,2025-12-02_14h53.57.234,HW_LDT_1,2024.2.4,Win32,60.60606061,,,,,,,,,,,,,,,,,,,,,,45.5879,45.7869,45.7871,46.2863,46.2877,47.8086,m,0,1.5006,,[],[],[],[],[],[],[],1.5006,0,47.8094,48.3074,0,13,13,10,1,1011,NW,"ID",16,inlade,INLADE,z,,,,,,,,,,,,,,,,,,,,,,,,,,,,,,,,,,,,,,,,,,,,,,,,,,,,,,,,,,,,,,,,,,
,,,,32364,001,2025-12-02_14h53.57.234,HW_LDT_1,2024.2.4,Win32,60.60606061,,,,,,,,,,,,,,,,,,,,,,48.3089,48.5028,48.503,49.0053,49.0064,50.236,z,1,1.2075,,[],[],[],[],[],[],[],1.2075,1,50.2375,50.736,0,14,14,8,1,1009,NW,"ID",33,aslert,ASLERT,z,,,,,,,,,,,,,,,,,,,,,,,,,,,,,,,,,,,,,,,,,,,,,,,,,,,,,,,,,,,,,,,,,,
,,,,32364,001,2025-12-02_14h53.57.234,HW_LDT_1,2024.2.4,Win32,60.60606061,,,,,,,,,,,,,,,,,,,,,,50.7379,50.9359,50.9361,51.436,51.4376,52.2075,m,1,0.7488,,[],[],[],[],[],[],[],0.7488,1,52.2076,52.7032,0,15,15,1,1,1002,WORD,"ID",33,adjust,ADJUST,m,,,,,,,,,,,,,,,,,,,,,,,,,,,,,,,,,,,,,,,,,,,,,,,,,,,,,,,,,,,,,,,,,,
,,,,32364,001,2025-12-02_14h53.57.234,HW_LDT_1,2024.2.4,Win32,60.60606061,,,,,,,,,,,,,,,,,1,end_of_practice,"You have completed the practice trials. During the experimental trials, you will not receive feedback. On some trials you will be asked to report whether the item you just saw was in cursive or print. 
Before you begin, please ensure that you are in a comfortable and quiet location and will not be disturbed for about 15 minutes, as we cannot use your data if you do not complete all the trials. 
 When you are ready to start the experimental trials, please press space or touch the button below.",,,,,,,,,,,,,,,,,,,,,,,,,,,,,,,,,,,,52.7123,55.3418,space,2.609,,-0.041666667,-0.210185228,0,0,0,0,0,0,0,1,,,,,,,,,,,,,,,,,,,,,,,,,,,,,,,,,,,,,,,,,,,,,,,,,,,
,,,,32364,001,2025-12-02_14h53.57.234,HW_LDT_1,2024.2.4,Win32,60.60606061,,,,,,,,,,,,,,,,,,,,,,55.3553,55.5372,55.5374,56.0412,,,,,,,,,,,,,,1.8536,1,,,,,,,,,,,,,,z,,,,,,,,,,,,,,,,1,0,56.0423,57.9032,z,1,1.8536,,[],[],[],[],[],[],[],57.9035,59.9025,59.9027,59.9074,[],[],[],[],[],[],[],,59.9076,59.9131,-0.041666667,-0.210185228,0,0,0,,0,0,0,2,1,2,RL,casagity,print,casagity_p.png,,,,,,
,,,,32364,001,2025-12-02_14h53.57.234,HW_LDT_1,2024.2.4,Win32,60.60606061,,,,,,,,,,,,,,,,,,,,,,59.9142,60.1025,60.1026,60.6026,,,,,,,,,,,,,,0.7915,1,,,,,,,,,,,,,,m,,,,,,,,,,,,,,,,2,0,60.6033,61.4028,m,1,0.7915,,[],[],[],[],[],[],[],61.4029,63.4023,63.4024,63.4027,[],[],[],[],[],[],[],,63.4028,63.4029,-0.041666667,-0.210185228,0,0,0,,0,1,1,159,1,2,word,VETERAN,print,veteran_p.png,,,,,,
,,,,32364,001,2025-12-02_14h53.57.234,HW_LDT_1,2024.2.4,Win32,60.60606061,,,,,,,,,,,,,,,,,,,,,,63.4048,63.6024,63.6024,64.1022,,,,,,,,,,,,,,2.0883,1,,,,,,,,,,,,,,m,,,,,,,,,,,,,,,,3,0,64.1027,66.2025,m,1,2.0883,,[],[],[],[],[],[],[],66.2026,68.2022,68.2022,68.2025,[],[],[],[],[],[],[],,68.2026,68.2027,-0.041666667,-0.210185228,0,0,0,,0,2,2,117,1,2,word,MARINE,cursive,marine_c.png,,,,,,
,,,,32364,001,2025-12-02_14h53.57.234,HW_LDT_1,2024.2.4,Win32,60.60606061,,,,,,,,,,,,,,,,,,,,,,68.2042,68.402,68.4021,68.9023,,,,,,,,,,,,,,0.7145,1,,,,,,,,,,,,,,m,,,,,,,,,,,,,,,,4,1,68.9031,69.6187,m,1,0.7145,,[],[],[],[],[],[],[],69.6189,71.6185,71.6186,77.0026,[],[],[],[],[],[],[],z,77.0027,77.0028,-0.041666667,-0.210185228,0,0,0,,0,3,3,87,1,2,word,CAFETERIA,print,cafeteria_p.png,5.3766,,,,,
,,,,32364,001,2025-12-02_14h53.57.234,HW_LDT_1,2024.2.4,Win32,60.60606061,,,,,,,,,,,,,,,,,,,,,,77.0046,77.1908,77.1909,77.7027,,,,,,,,,,,,,,1.8546,1,,,,,,,,,,,,,,m,,,,,,,,,,,,,,,,5,0,77.7036,79.5693,m,1,1.8546,,[],[],[],[],[],[],[],79.5696,81.5695,81.5696,81.5702,[],[],[],[],[],[],[],,81.5703,81.5705,-0.041666667,-0.210185228,0,0,0,,0,4,4,152,1,2,word,SPECIMEN,print,specimen_p.png,,,,,,
,,,,32364,001,2025-12-02_14h53.57.234,HW_LDT_1,2024.2.4,Win32,60.60606061,,,,,,,,,,,,,,,,,,,,,,81.572,81.7691,81.7691,82.2685,,,,,,,,,,,,,,3.7655,1,,,,,,,,,,,,,,z,,,,,,,,,,,,,,,,6,0,82.2696,86.0365,z,1,3.7655,,[],[],[],[],[],[],[],86.0366,88.0355,88.0357,88.0364,[],[],[],[],[],[],[],,88.0365,88.0367,-0.041666667,-0.210185228,0,0,0,,0,5,5,51,1,2,TL,etidor,cursive,etidor_c.png,,,,,,
,,,,32364,001,2025-12-02_14h53.57.234,HW_LDT_1,2024.2.4,Win32,60.60606061,,,,,,,,,,,,,,,,,,,,,,88.0382,88.2351,88.2352,88.735,,,,,,,,,,,,,,1.0611,1,,,,,,,,,,,,,,m,,,,,,,,,,,,,,,,7,0,88.7359,89.8025,m,1,1.0611,,[],[],[],[],[],[],[],89.8027,91.8017,91.8018,91.8023,[],[],[],[],[],[],[],,91.8024,91.8025,-0.041666667,-0.210185228,0,0,0,,0,6,6,136,1,2,word,RADICAL,cursive,radical_c.png,,,,,,
,,,,32364,001,2025-12-02_14h53.57.234,HW_LDT_1,2024.2.4,Win32,60.60606061,,,,,,,,,,,,,,,,,,,,,,91.804,91.9906,91.9907,92.5015,,,,,,,,,,,,,,4.0755,1,,,,,,,,,,,,,,m,,,,,,,,,,,,,,,,8,0,92.5025,96.5857,m,1,4.0755,,[],[],[],[],[],[],[],96.5859,98.5849,98.585,98.5854,[],[],[],[],[],[],[],,98.5855,98.5857,-0.041666667,-0.210185228,0,0,0,,0,7,7,121,1,2,word,MISTAKE,cursive,mistake_c.png,,,,,,
,,,,32364,001,2025-12-02_14h53.57.234,HW_LDT_1,2024.2.4,Win32,60.60606061,,,,,,,,,,,,,,,,,,,,,,98.5872,98.7902,98.7902,99.2852,,,,,,,,,,,,,,4.0593,0,,,,,,,,,,,,,,m,,,,,,,,,,,,,,,,9,0,99.2861,103.3516,z,0,4.0593,,[],[],[],[],[],[],[],103.3518,105.3513,105.3515,105.3522,[],[],[],[],[],[],[],,105.3523,105.3526,-0.041666667,-0.210185228,0,0,0,,0,8,8,105,1,2,word,EDITOR,cursive,editor_c.png,,,,,,
,,,,32364,001,2025-12-02_14h53.57.234,HW_LDT_1,2024.2.4,Win32,60.60606061,,,,,,,,,,,,,,,,,,,,,,105.3539,105.5513,105.5514,106.0407,,,,,,,,,,,,,,5.5562,1,,,,,,,,,,,,,,z,,,,,,,,,,,,,,,,10,0,106.0411,111.6011,z,1,5.5562,,[],[],[],[],[],[],[],111.6013,113.6011,113.6011,113.6015,[],[],[],[],[],[],[],,113.6016,113.6017,-0.041666667,-0.210185228,0,0,0,,0,9,9,27,1,2,RL,repifion,cursive,repifion_c.png,,,,,,
,,,,32364,001,2025-12-02_14h53.57.234,HW_LDT_1,2024.2.4,Win32,60.60606061,,,,,,,,,,,,,,,,,,,,,,113.6031,113.8005,113.8006,114.3007,,,,,,,,,,,,,,4.5047,1,,,,,,,,,,,,,,z,,,,,,,,,,,,,,,,11,0,114.3016,118.8072,z,1,4.5047,,[],[],[],[],[],[],[],118.8072,120.8052,120.8052,120.8054,[],[],[],[],[],[],[],,120.8055,120.8056,-0.041666667,-0.210185228,0,0,0,,0,10,10,67,1,2,TL,quafily,cursive,quafily_c.png,,,,,,
,,,,32364,001,2025-12-02_14h53.57.234,HW_LDT_1,2024.2.4,Win32,60.60606061,,,,,,,,,,,,,,,,,,,,,,120.807,121.0007,121.0009,121.5004,,,,,,,,,,,,,,1.4581,1,,,,,,,,,,,,,,z,,,,,,,,,,,,,,,,12,0,121.5014,122.9679,z,1,1.4581,,[],[],[],[],[],[],[],122.9682,124.9682,124.9683,124.9686,[],[],[],[],[],[],[],,124.9688,124.969,-0.041666667,-0.210185228,0,0,0,,0,11,11,30,1,2,RL,selamor,print,selamor_p.png,,,,,,
,,,,32364,001,2025-12-02_14h53.57.234,HW_LDT_1,2024.2.4,Win32,60.60606061,,,,,,,,,,,,,,,,,,,,,,124.9709,125.167,125.1671,125.6671,,,,,,,,,,,,,,0.7277,1,,,,,,,,,,,,,,m,,,,,,,,,,,,,,,,13,0,125.6681,126.4004,m,1,0.7277,,[],[],[],[],[],[],[],126.4006,128.4008,128.401,128.4012,[],[],[],[],[],[],[],,128.4012,128.4014,-0.041666667,-0.210185228,0,0,0,,0,12,12,112,1,2,word,LIBERAL,print,liberal_p.png,,,,,,
,,,,32364,001,2025-12-02_14h53.57.234,HW_LDT_1,2024.2.4,Win32,60.60606061,,,,,,,,,,,,,,,,,,,,,,128.4027,128.6009,128.601,129.0896,,,,,,,,,,,,,,1.1696,1,,,,,,,,,,,,,,m,,,,,,,,,,,,,,,,14,1,129.0903,130.2673,m,1,1.1696,,[],[],[],[],[],[],[],130.2675,132.2666,132.2667,133.9676,[],[],[],[],[],[],[],m,133.968,133.9681,-0.041666667,-0.210185228,0,0,0,,0,13,13,133,1,2,word,PROVIDE,cursive,provide_c.png,1.6932,,,,,
,,,,32364,001,2025-12-02_14h53.57.234,HW_LDT_1,2024.2.4,Win32,60.60606061,,,,,,,,,,,,,,,,,,,,,,133.9699,134.1671,134.1672,134.6677,,,,,,,,,,,,,,3.7444,1,,,,,,,,,,,,,,m,,,,,,,,,,,,,,,,15,0,134.6687,138.417,m,1,3.7444,,[],[],[],[],[],[],[],138.4172,140.4175,140.4177,140.4181,[],[],[],[],[],[],[],,140.4181,140.4183,-0.041666667,-0.210185228,0,0,0,,0,14,14,91,1,2,word,CARDINAL,cursive,cardinal_c.png,,,,,,
,,,,32364,001,2025-12-02_14h53.57.234,HW_LDT_1,2024.2.4,Win32,60.60606061,,,,,,,,,,,,,,,,,,,,,,140.4202,140.6168,140.6169,141.1174,,,,,,,,,,,,,,4.6877,1,,,,,,,,,,,,,,z,,,,,,,,,,,,,,,,16,0,141.1181,145.8171,z,1,4.6877,,[],[],[],[],[],[],[],145.8173,147.8172,147.8174,147.8178,[],[],[],[],[],[],[],,147.8179,147.8179,-0.041666667,-0.210185228,0,0,0,,0,15,15,57,1,2,TL,meromy,cursive,meromy_c.png,,,,,,
,,,,32364,001,2025-12-02_14h53.57.234,HW_LDT_1,2024.2.4,Win32,60.60606061,,,,,,,,,,,,,,,,,,,,,,147.8193,148.017,148.0171,148.5165,,,,,,,,,,,,,,3.863,1,,,,,,,,,,,,,,z,,,,,,,,,,,,,,,,17,0,148.5176,152.3833,z,1,3.863,,[],[],[],[],[],[],[],152.3836,154.383,154.3831,154.3836,[],[],[],[],[],[],[],,154.3837,154.3838,-0.041666667,-0.210185228,0,0,0,,0,16,16,71,1,2,TL,retome,cursive,retome_c.png,,,,,,
,,,,32364,001,2025-12-02_14h53.57.234,HW_LDT_1,2024.2.4,Win32,60.60606061,,,,,,,,,,,,,,,,,,,,,,154.3852,154.5833,154.5834,155.0721,,,,,,,,,,,,,,2.4916,1,,,,,,,,,,,,,,z,,,,,,,,,,,,,,,,18,0,155.0727,157.5666,z,1,2.4916,,[],[],[],[],[],[],[],157.5668,159.5664,159.5666,159.5669,[],[],[],[],[],[],[],,159.567,159.5673,-0.041666667,-0.210185228,0,0,0,,0,17,17,29,1,2,RL,samite,cursive,samite_c.png,,,,,,
,,,,32364,001,2025-12-02_14h53.57.234,HW_LDT_1,2024.2.4,Win32,60.60606061,,,,,,,,,,,,,,,,,,,,,,159.5683,159.7663,159.7664,160.2667,,,,,,,,,,,,,,5.8106,1,,,,,,,,,,,,,,m,,,,,,,,,,,,,,,,19,0,160.2671,166.0837,m,1,5.8106,,[],[],[],[],[],[],[],166.0839,168.085,168.0852,168.0854,[],[],[],[],[],[],[],,168.0855,168.0857,-0.041666667,-0.210185228,0,0,0,,0,18,18,146,1,2,word,RETIRE,cursive,retire_c.png,,,,,,
,,,,32364,001,2025-12-02_14h53.57.234,HW_LDT_1,2024.2.4,Win32,60.60606061,,,,,,,,,,,,,,,,,,,,,,168.0873,168.2834,168.2836,168.7833,,,,,,,,,,,,,,0.9275,1,,,,,,,,,,,,,,m,,,,,,,,,,,,,,,,20,0,168.7842,169.7161,m,1,0.9275,,[],[],[],[],[],[],[],169.7162,171.7159,171.716,171.7164,[],[],[],[],[],[],[],,171.7165,171.7167,-0.041666667,-0.210185228,0,0,0,,0,19,19,145,1,2,word,RESUME,cursive,resume_c.png,,,,,,
,,,,32364,001,2025-12-02_14h53.57.234,HW_LDT_1,2024.2.4,Win32,60.60606061,,,,,,,,,,,,,,,,,,,,,,171.7179,171.9162,171.9163,172.4162,,,,,,,,,,,,,,1.1063,1,,,,,,,,,,,,,,m,,,,,,,,,,,,,,,,21,0,172.417,173.5327,m,1,1.1063,,[],[],[],[],[],[],[],173.5329,175.5331,175.5333,175.5338,[],[],[],[],[],[],[],,175.5339,175.534,-0.041666667,-0.210185228,0,0,0,,0,20,20,119,1,2,word,MEMORY,cursive,memory_c.png,,,,,,
,,,,32364,001,2025-12-02_14h53.57.234,HW_LDT_1,2024.2.4,Win32,60.60606061,,,,,,,,,,,,,,,,,,,,,,175.535,175.7385,175.7385,176.2329,,,,,,,,,,,,,,2.8886,1,,,,,,,,,,,,,,z,,,,,,,,,,,,,,,,22,0,176.234,179.1328,z,1,2.8886,,[],[],[],[],[],[],[],179.133,181.1327,181.1329,181.1332,[],[],[],[],[],[],[],,181.1332,181.1334,-0.041666667,-0.210185228,0,0,0,,0,21,21,76,1,2,TL,senmitent,cursive,senmitent_c.png,,,,,,
,,,,32364,001,2025-12-02_14h53.57.234,HW_LDT_1,2024.2.4,Win32,60.60606061,,,,,,,,,,,,,,,,,,,,,,181.1347,181.3324,181.3325,181.8334,,,,,,,,,,,,,,1.1542,1,,,,,,,,,,,,,,m,,,,,,,,,,,,,,,,23,0,181.8347,182.9994,m,1,1.1542,,[],[],[],[],[],[],[],182.9997,184.999,184.9991,184.9995,[],[],[],[],[],[],[],,184.9996,184.9996,-0.041666667,-0.210185228,0,0,0,,0,22,22,158,1,2,word,VELOCITY,print,velocity_p.png,,,,,,
,,,,32364,001,2025-12-02_14h53.57.234,HW_LDT_1,2024.2.4,Win32,60.60606061,,,,,,,,,,,,,,,,,,,,,,185.001,185.201,185.2011,185.6996,,,,,,,,,,,,,,1.5236,1,,,,,,,,,,,,,,z,,,,,,,,,,,,,,,,24,1,185.7003,187.2325,z,1,1.5236,,[],[],[],[],[],[],[],187.2327,189.2337,189.2337,190.8991,[],[],[],[],[],[],[],m,190.8992,190.8995,-0.041666667,-0.210185228,0,0,0,,0,23,23,75,1,2,TL,ronamtic,print,ronamtic_p.png,1.6546,,,,,
,,,,32364,001,2025-12-02_14h53.57.234,HW_LDT_1,2024.2.4,Win32,60.60606061,,,,,,,,,,,,,,,,,,,,,,190.9005,191.0994,191.0995,191.5989,,,,,,,,,,,,,,0.737,1,,,,,,,,,,,,,,m,,,,,,,,,,,,,,,,25,0,191.5999,192.3376,m,1,0.737,,[],[],[],[],[],[],[],192.3377,194.3318,194.3319,194.3322,[],[],[],[],[],[],[],,194.3323,194.3325,-0.041666667,-0.210185228,0,0,0,,0,24,24,122,1,2,word,MOBILE,print,mobile_p.png,,,,,,
,,,,32364,001,2025-12-02_14h53.57.234,HW_LDT_1,2024.2.4,Win32,60.60606061,,,,,,,,,,,,,,,,,,,,,,194.3341,194.5319,194.532,195.0319,,,,,,,,,,,,,,3.1049,1,,,,,,,,,,,,,,z,,,,,,,,,,,,,,,,26,1,195.033,198.1489,z,1,3.1049,,[],[],[],[],[],[],[],198.149,200.1492,200.1493,201.4984,[],[],[],[],[],[],[],z,201.4987,201.4992,-0.041666667,-0.210185228,0,0,0,,0,25,25,46,1,2,TL,codemy,cursive,codemy_c.png,1.3473,,,,,
,,,,32364,001,2025-12-02_14h53.57.234,HW_LDT_1,2024.2.4,Win32,60.60606061,,,,,,,,,,,,,,,,,,,,,,201.5012,201.6981,201.6981,202.2032,,,,,,,,,,,,,,2.0249,1,,,,,,,,,,,,,,m,,,,,,,,,,,,,,,,27,0,202.2037,204.2323,m,1,2.0249,,[],[],[],[],[],[],[],204.2325,206.2314,206.2315,206.2322,[],[],[],[],[],[],[],,206.2322,206.2325,-0.041666667,-0.210185228,0,0,0,,0,26,26,155,1,2,word,STRATEGY,cursive,strategy_c.png,,,,,,
,,,,32364,001,2025-12-02_14h53.57.234,HW_LDT_1,2024.2.4,Win32,60.60606061,,,,,,,,,,,,,,,,,,,,,,206.2335,206.4373,206.4374,206.9317,,,,,,,,,,,,,,0.8721,1,,,,,,,,,,,,,,m,,,,,,,,,,,,,,,,28,0,206.9325,207.816,m,1,0.8721,,[],[],[],[],[],[],[],207.816,209.8154,209.8156,209.8159,[],[],[],[],[],[],[],,209.816,209.8161,-0.041666667,-0.210185228,0,0,0,,0,27,27,134,1,2,word,QUALIFY,cursive,qualify_c.png,,,,,,
,,,,32364,001,2025-12-02_14h53.57.234,HW_LDT_1,2024.2.4,Win32,60.60606061,,,,,,,,,,,,,,,,,,,,,,209.8172,210.0208,210.0209,210.5157,,,,,,,,,,,,,,2.8373,1,,,,,,,,,,,,,,z,,,,,,,,,,,,,,,,29,0,210.5165,213.3547,z,1,2.8373,,[],[],[],[],[],[],[],213.3548,215.3502,215.3502,215.3504,[],[],[],[],[],[],[],,215.3504,215.3506,-0.041666667,-0.210185228,0,0,0,,0,28,28,54,1,2,TL,liretal,cursive,liretal_c.png,,,,,,
,,,,32364,001,2025-12-02_14h53.57.234,HW_LDT_1,2024.2.4,Win32,60.60606061,,,,,,,,,,,,,,,,,,,,,,215.352,215.5484,215.5485,216.0486,,,,,,,,,,,,,,1.2141,1,,,,,,,,,,,,,,z,,,,,,,,,,,,,,,,30,1,216.0497,217.2648,z,1,1.2141,,[],[],[],[],[],[],[],217.2651,219.2648,219.2649,220.5708,[],[],[],[],[],[],[],m,220.5709,220.5711,-0.041666667,-0.210185228,0,0,0,,0,29,29,64,1,2,TL,paficic,print,paficic_p.png,1.3053,,,,,
,,,,32364,001,2025-12-02_14h53.57.234,HW_LDT_1,2024.2.4,Win32,60.60606061,,,,,,,,,,,,,,,,,,,,,,220.5725,220.7644,220.7645,221.2648,,,,,,,,,,,,,,0.7064,1,,,,,,,,,,,,,,m,,,,,,,,,,,,,,,,31,0,221.2656,221.9814,m,1,0.7064,,[],[],[],[],[],[],[],221.9816,223.9809,223.9811,223.9814,[],[],[],[],[],[],[],,223.9815,223.9816,-0.041666667,-0.210185228,0,0,0,,0,30,30,118,1,2,word,MEDICINE,print,medicine_p.png,,,,,,
,,,,32364,001,2025-12-02_14h53.57.234,HW_LDT_1,2024.2.4,Win32,60.60606061,,,,,,,,,,,,,,,,,,,,,,223.9828,224.1813,224.1814,224.6814,,,,,,,,,,,,,,0.9081,1,,,,,,,,,,,,,,z,,,,,,,,,,,,,,,,32,0,224.6823,225.5975,z,1,0.9081,,[],[],[],[],[],[],[],225.5976,227.5977,227.5979,227.5983,[],[],[],[],[],[],[],,227.5985,227.5986,-0.041666667,-0.210185228,0,0,0,,0,31,31,0,1,2,RL,adnicory,print,adnicory_p.png,,,,,,
,,,,32364,001,2025-12-02_14h53.57.234,HW_LDT_1,2024.2.4,Win32,60.60606061,,,,,,,,,,,,,,,,,,,,,,227.5999,227.7973,227.7973,228.2981,,,,,,,,,,,,,,2.6379,1,,,,,,,,,,,,,,z,,,,,,,,,,,,,,,,33,0,228.299,230.9474,z,1,2.6379,,[],[],[],[],[],[],[],230.9475,232.9478,232.9479,232.9483,[],[],[],[],[],[],[],,232.9484,232.9485,-0.041666667,-0.210185228,0,0,0,,0,32,32,49,1,2,TL,dedace,print,dedace_p.png,,,,,,
,,,,32364,001,2025-12-02_14h53.57.234,HW_LDT_1,2024.2.4,Win32,60.60606061,,,,,,,,,,,,,,,,,,,,,,232.9496,233.1487,233.1487,233.6369,,,,,,,,,,,,,,1.0649,1,,,,,,,,,,,,,,m,,,,,,,,,,,,,,,,34,0,233.6373,234.703,m,1,1.0649,,[],[],[],[],[],[],[],234.7031,236.703,236.7031,236.7034,[],[],[],[],[],[],[],,236.7034,236.7035,-0.041666667,-0.210185228,0,0,0,,0,33,33,98,1,2,word,CRIMINAL,cursive,criminal_c.png,,,,,,
,,,,32364,001,2025-12-02_14h53.57.234,HW_LDT_1,2024.2.4,Win32,60.60606061,,,,,,,,,,,,,,,,,,,,,,236.7047,236.9033,236.9034,237.4024,,,,,,,,,,,,,,1.3002,1,,,,,,,,,,,,,,z,,,,,,,,,,,,,,,,35,0,237.4029,238.7037,z,1,1.3002,,[],[],[],[],[],[],[],238.7038,240.703,240.7031,240.7033,[],[],[],[],[],[],[],,240.7034,240.7036,-0.041666667,-0.210185228,0,0,0,,0,34,34,26,1,2,RL,retupar,cursive,retupar_c.png,,,,,,
,,,,32364,001,2025-12-02_14h53.57.234,HW_LDT_1,2024.2.4,Win32,60.60606061,,,,,,,,,,,,,,,,,,,,,,240.705,240.9032,240.9033,241.4025,,,,,,,,,,,,,,0.6495,1,,,,,,,,,,,,,,m,,,,,,,,,,,,,,,,36,0,241.4031,242.0533,m,1,0.6495,,[],[],[],[],[],[],[],242.0534,244.0521,244.0522,244.0524,[],[],[],[],[],[],[],,244.0524,244.0524,-0.041666667,-0.210185228,0,0,0,,0,35,35,115,1,2,word,LOGICAL,print,logical_p.png,,,,,,
,,,,32364,001,2025-12-02_14h53.57.234,HW_LDT_1,2024.2.4,Win32,60.60606061,,,,,,,,,,,,,,,,,,,,,,244.053,244.2529,244.2529,244.7521,,,,,,,,,,,,,,1.8004,1,,,,,,,,,,,,,,z,,,,,,,,,,,,,,,,37,0,244.7524,246.5534,z,1,1.8004,,[],[],[],[],[],[],[],246.5534,248.5523,248.5523,248.5526,[],[],[],[],[],[],[],,248.5526,248.5527,-0.041666667,-0.210185228,0,0,0,,0,36,36,58,1,2,TL,mitilary,cursive,mitilary_c.png,,,,,,
,,,,32364,001,2025-12-02_14h53.57.234,HW_LDT_1,2024.2.4,Win32,60.60606061,,,,,,,,,,,,,,,,,,,,,,248.5536,248.7529,248.7529,249.2529,,,,,,,,,,,,,,4.4318,1,,,,,,,,,,,,,,z,,,,,,,,,,,,,,,,38,0,249.2534,253.6858,z,1,4.4318,,[],[],[],[],[],[],[],253.686,255.6851,255.6851,255.6853,[],[],[],[],[],[],[],,255.6853,255.6855,-0.041666667,-0.210185228,0,0,0,,0,37,37,62,1,2,TL,opmital,cursive,opmital_c.png,,,,,,
,,,,32364,001,2025-12-02_14h53.57.234,HW_LDT_1,2024.2.4,Win32,60.60606061,,,,,,,,,,,,,,,,,,,,,,255.6868,255.8856,255.8857,256.3856,,,,,,,,,,,,,,3.065,1,,,,,,,,,,,,,,z,,,,,,,,,,,,,,,,39,0,256.3862,259.4522,z,1,3.065,,[],[],[],[],[],[],[],259.4523,261.4519,261.452,261.4521,[],[],[],[],[],[],[],,261.4522,261.4523,-0.041666667,-0.210185228,0,0,0,,0,38,38,12,1,2,RL,gralekul,cursive,gralekul_c.png,,,,,,
,,,,32364,001,2025-12-02_14h53.57.234,HW_LDT_1,2024.2.4,Win32,60.60606061,,,,,,,,,,,,,,,,,,,,,,261.4536,261.6517,261.6517,262.1516,,,,,,,,,,,,,,5.8164,1,,,,,,,,,,,,,,z,,,,,,,,,,,,,,,,40,0,262.1522,267.9692,z,1,5.8164,,[],[],[],[],[],[],[],267.9693,269.9692,269.9692,269.9696,[],[],[],[],[],[],[],,269.9697,269.9698,-0.041666667,-0.210185228,0,0,0,,0,39,39,53,1,2,TL,edivent,cursive,edivent_c.png,,,,,,
,,,,32364,001,2025-12-02_14h53.57.234,HW_LDT_1,2024.2.4,Win32,60.60606061,,,,,,,,,,,,,,,,,,,,,,269.9709,270.1691,270.1692,270.6679,,,,,,,,,,,,,,1.2837,1,,,,,,,,,,,,,,z,,,,,,,,,,,,,,,,41,0,270.6684,271.953,z,1,1.2837,,[],[],[],[],[],[],[],271.953,273.9512,273.9513,273.9514,[],[],[],[],[],[],[],,273.9514,273.9516,-0.041666667,-0.210185228,0,0,0,,0,40,40,43,1,2,TL,carema,print,carema_p.png,,,,,,
,,,,32364,001,2025-12-02_14h53.57.234,HW_LDT_1,2024.2.4,Win32,60.60606061,,,,,,,,,,,,,,,,,,,,,,273.953,274.1522,274.1524,274.652,,,,,,,,,,,,,,1.1324,1,,,,,,,,,,,,,,m,,,,,,,,,,,,,,,,42,0,274.6524,275.7855,m,1,1.1324,,[],[],[],[],[],[],[],275.7856,277.785,277.785,277.7854,[],[],[],[],[],[],[],,277.7854,277.7857,-0.041666667,-0.210185228,0,0,0,,0,41,41,139,1,2,word,REGULAR,cursive,regular_c.png,,,,,,
,,,,32364,001,2025-12-02_14h53.57.234,HW_LDT_1,2024.2.4,Win32,60.60606061,,,,,,,,,,,,,,,,,,,,,,277.7871,277.9856,277.9856,278.4856,,,,,,,,,,,,,,5.7644,1,,,,,,,,,,,,,,z,,,,,,,,,,,,,,,,43,0,278.4862,284.2515,z,1,5.7644,,[],[],[],[],[],[],[],284.2515,286.2512,286.2512,286.2514,[],[],[],[],[],[],[],,286.2514,286.2514,-0.041666667,-0.210185228,0,0,0,,0,42,42,42,1,2,TL,bedise,cursive,bedise_c.png,,,,,,
,,,,32364,001,2025-12-02_14h53.57.234,HW_LDT_1,2024.2.4,Win32,60.60606061,,,,,,,,,,,,,,,,,,,,,,286.252,286.452,286.452,286.9521,,,,,,,,,,,,,,1.5646,1,,,,,,,,,,,,,,m,,,,,,,,,,,,,,,,44,0,286.9527,288.5182,m,1,1.5646,,[],[],[],[],[],[],[],288.5182,290.5173,290.5173,290.5175,[],[],[],[],[],[],[],,290.5175,290.5175,-0.041666667,-0.210185228,0,0,0,,0,43,43,94,1,2,word,CLINICAL,cursive,clinical_c.png,,,,,,
,,,,32364,001,2025-12-02_14h53.57.234,HW_LDT_1,2024.2.4,Win32,60.60606061,,,,,,,,,,,,,,,,,,,,,,290.5183,290.7173,290.7173,291.2183,,,,,,,,,,,,,,1.015,1,,,,,,,,,,,,,,z,,,,,,,,,,,,,,,,45,0,291.2189,292.2347,z,1,1.015,,[],[],[],[],[],[],[],292.2348,294.2346,294.2347,294.2349,[],[],[],[],[],[],[],,294.235,294.2351,-0.041666667,-0.210185228,0,0,0,,0,44,44,78,1,2,TL,stogare,print,stogare_p.png,,,,,,
,,,,32364,001,2025-12-02_14h53.57.234,HW_LDT_1,2024.2.4,Win32,60.60606061,,,,,,,,,,,,,,,,,,,,,,294.2363,294.435,294.435,294.9343,,,,,,,,,,,,,,1.1995,1,,,,,,,,,,,,,,z,,,,,,,,,,,,,,,,46,0,294.9347,296.1351,z,1,1.1995,,[],[],[],[],[],[],[],296.1351,298.135,298.1351,298.1354,[],[],[],[],[],[],[],,298.1355,298.1359,-0.041666667,-0.210185228,0,0,0,,0,45,45,21,1,2,RL,pamest,print,pamest_p.png,,,,,,
,,,,32364,001,2025-12-02_14h53.57.234,HW_LDT_1,2024.2.4,Win32,60.60606061,,,,,,,,,,,,,,,,,,,,,,298.1372,298.3349,298.335,298.8344,,,,,,,,,,,,,,1.7663,1,,,,,,,,,,,,,,z,,,,,,,,,,,,,,,,47,0,298.8352,300.6022,z,1,1.7663,,[],[],[],[],[],[],[],300.6023,302.601,302.6011,302.6013,[],[],[],[],[],[],[],,302.6015,302.6016,-0.041666667,-0.210185228,0,0,0,,0,46,46,23,1,2,RL,procogal,cursive,procogal_c.png,,,,,,
,,,,32364,001,2025-12-02_14h53.57.234,HW_LDT_1,2024.2.4,Win32,60.60606061,,,,,,,,,,,,,,,,,,,,,,302.603,302.8018,302.8018,303.3009,,,,,,,,,,,,,,1.2489,1,,,,,,,,,,,,,,m,,,,,,,,,,,,,,,,48,1,303.3015,304.5512,m,1,1.2489,,[],[],[],[],[],[],[],304.5512,306.5506,306.5506,307.5015,[],[],[],[],[],[],[],m,307.5016,307.5018,-0.041666667,-0.210185228,0,0,0,,0,47,47,81,1,2,word,ADVISORY,print,advisory_p.png,0.9505,,,,,
,,,,32364,001,2025-12-02_14h53.57.234,HW_LDT_1,2024.2.4,Win32,60.60606061,,,,,,,,,,,,,,,,,,,,,,307.5027,307.7012,307.7012,308.2007,,,,,,,,,,,,,,1.5154,1,,,,,,,,,,,,,,z,,,,,,,,,,,,,,,,49,0,308.2011,309.7173,z,1,1.5154,,[],[],[],[],[],[],[],309.7173,311.7174,311.7175,311.7176,[],[],[],[],[],[],[],,311.7177,311.7177,-0.041666667,-0.210185228,0,0,0,,0,48,48,17,1,2,RL,macise,cursive,macise_c.png,,,,,,
,,,,32364,001,2025-12-02_14h53.57.234,HW_LDT_1,2024.2.4,Win32,60.60606061,,,,,,,,,,,,,,,,,,,,,,311.7185,311.9179,311.9179,312.4168,,,,,,,,,,,,,,3.3326,1,,,,,,,,,,,,,,m,,,,,,,,,,,,,,,,50,0,312.4174,315.7508,m,1,3.3326,,[],[],[],[],[],[],[],315.7508,317.7504,317.7505,317.7508,[],[],[],[],[],[],[],,317.7508,317.7509,-0.041666667,-0.210185228,0,0,0,,0,49,49,103,1,2,word,DISPUTE,cursive,dispute_c.png,,,,,,
,,,,32364,001,2025-12-02_14h53.57.234,HW_LDT_1,2024.2.4,Win32,60.60606061,,,,,,,,,,,,,,,,,,,,,,317.7522,317.9504,317.9505,318.4512,,,,,,,,,,,,,,0.9812,1,,,,,,,,,,,,,,z,,,,,,,,,,,,,,,,51,0,318.4516,319.4336,z,1,0.9812,,[],[],[],[],[],[],[],319.4336,321.4345,321.4345,321.435,[],[],[],[],[],[],[],,321.4351,321.4352,-0.041666667,-0.210185228,0,0,0,,0,50,50,77,1,2,TL,sloten,print,sloten_p.png,,,,,,
,,,,32364,001,2025-12-02_14h53.57.234,HW_LDT_1,2024.2.4,Win32,60.60606061,,,,,,,,,,,,,,,,,,,,,,321.4363,321.6337,321.6337,322.134,,,,,,,,,,,,,,0.8325,1,,,,,,,,,,,,,,z,,,,,,,,,,,,,,,,52,0,322.1347,322.968,z,1,0.8325,,[],[],[],[],[],[],[],322.9681,324.9672,324.9673,324.9676,[],[],[],[],[],[],[],,324.9676,324.9678,-0.041666667,-0.210185228,0,0,0,,0,51,51,13,1,2,RL,helicage,print,helicage_p.png,,,,,,
,,,,32364,001,2025-12-02_14h53.57.234,HW_LDT_1,2024.2.4,Win32,60.60606061,,,,,,,,,,,,,,,,,,,,,,324.9689,325.1666,325.1666,325.6668,,,,,,,,,,,,,,1.5655,1,,,,,,,,,,,,,,m,,,,,,,,,,,,,,,,53,1,325.6672,327.2335,m,1,1.5655,,[],[],[],[],[],[],[],327.2336,329.2334,329.2335,330.8505,[],[],[],[],[],[],[],z,330.8506,330.8506,-0.041666667,-0.210185228,0,0,0,,0,52,52,116,1,2,word,MARGINAL,cursive,marginal_c.png,1.6164,,,,,
,,,,32364,001,2025-12-02_14h53.57.234,HW_LDT_1,2024.2.4,Win32,60.60606061,,,,,,,,,,,,,,,,,,,,,,330.8515,331.0505,331.0506,331.5506,,,,,,,,,,,,,,1.3309,1,,,,,,,,,,,,,,z,,,,,,,,,,,,,,,,54,0,331.5513,332.8834,z,1,1.3309,,[],[],[],[],[],[],[],332.8836,334.8841,334.8841,334.8843,[],[],[],[],[],[],[],,334.8843,334.8844,-0.041666667,-0.210185228,0,0,0,,0,53,53,52,1,2,TL,elarobate,cursive,elarobate_c.png,,,,,,
,,,,32364,001,2025-12-02_14h53.57.234,HW_LDT_1,2024.2.4,Win32,60.60606061,,,,,,,,,,,,,,,,,,,,,,334.8855,335.0829,335.083,335.5839,,,,,,,,,,,,,,0.8652,1,,,,,,,,,,,,,,m,,,,,,,,,,,,,,,,55,1,335.5844,336.4504,m,1,0.8652,,[],[],[],[],[],[],[],336.4505,338.4501,338.4501,339.8667,[],[],[],[],[],[],[],m,339.8668,339.8669,-0.041666667,-0.210185228,0,0,0,,0,54,54,92,1,2,word,CATEGORY,print,category_p.png,1.416,,,,,
,,,,32364,001,2025-12-02_14h53.57.234,HW_LDT_1,2024.2.4,Win32,60.60606061,,,,,,,,,,,,,,,,,,,,,,339.8679,340.0667,340.0667,340.5667,,,,,,,,,,,,,,4.5655,1,,,,,,,,,,,,,,z,,,,,,,,,,,,,,,,56,0,340.5671,345.1334,z,1,4.5655,,[],[],[],[],[],[],[],345.1334,347.1334,347.1335,347.1338,[],[],[],[],[],[],[],,347.1339,347.134,-0.041666667,-0.210185228,0,0,0,,0,55,55,19,1,2,RL,monebate,cursive,monebate_c.png,,,,,,
,,,,32364,001,2025-12-02_14h53.57.234,HW_LDT_1,2024.2.4,Win32,60.60606061,,,,,,,,,,,,,,,,,,,,,,347.1353,347.3329,347.3329,347.8327,,,,,,,,,,,,,,1.4827,1,,,,,,,,,,,,,,m,,,,,,,,,,,,,,,,57,1,347.8332,349.3166,m,1,1.4827,,[],[],[],[],[],[],[],349.3167,351.3168,351.3168,352.2002,[],[],[],[],[],[],[],z,352.2002,352.2003,-0.041666667,-0.210185228,0,0,0,,0,56,56,150,1,2,word,SENTIMENT,cursive,sentiment_c.png,0.883,,,,,
,,,,32364,001,2025-12-02_14h53.57.234,HW_LDT_1,2024.2.4,Win32,60.60606061,,,,,,,,,,,,,,,,,,,,,,352.2012,352.3994,352.3994,352.8999,,,,,,,,,,,,,,4.049,1,,,,,,,,,,,,,,z,,,,,,,,,,,,,,,,58,0,352.9003,356.9501,z,1,4.049,,[],[],[],[],[],[],[],356.9501,358.9492,358.9493,358.9496,[],[],[],[],[],[],[],,358.9497,358.9499,-0.041666667,-0.210185228,0,0,0,,0,57,57,38,1,2,TL,atameur,cursive,atameur_c.png,,,,,,
,,,,32364,001,2025-12-02_14h53.57.234,HW_LDT_1,2024.2.4,Win32,60.60606061,,,,,,,,,,,,,,,,,,,,,,358.9513,359.149,359.1491,359.6492,,,,,,,,,,,,,,0.6826,1,,,,,,,,,,,,,,m,,,,,,,,,,,,,,,,59,0,359.6499,360.333,m,1,0.6826,,[],[],[],[],[],[],[],360.3331,362.3326,362.3327,362.333,[],[],[],[],[],[],[],,362.333,362.3332,-0.041666667,-0.210185228,0,0,0,,0,58,58,89,1,2,word,CAPACITY,print,capacity_p.png,,,,,,
,,,,32364,001,2025-12-02_14h53.57.234,HW_LDT_1,2024.2.4,Win32,60.60606061,,,,,,,,,,,,,,,,,,,,,,362.3343,362.5329,362.5329,363.0324,,,,,,,,,,,,,,1.7824,0,,,,,,,,,,,,,,z,,,,,,,,,,,,,,,,60,0,363.0328,364.816,m,0,1.7824,,[],[],[],[],[],[],[],364.8162,366.8156,366.8157,366.8159,[],[],[],[],[],[],[],,366.8159,366.8161,-0.041666667,-0.210185228,0,0,0,,0,59,59,68,1,2,TL,quatily,cursive,quatily_c.png,,,,,,
,,,,32364,001,2025-12-02_14h53.57.234,HW_LDT_1,2024.2.4,Win32,60.60606061,,,,,,,,,,,,,,,,,,,,,,366.8173,367.0167,367.0167,367.5159,,,,,,,,,,,,,,4.4486,1,,,,,,,,,,,,,,z,,,,,,,,,,,,,,,,61,0,367.5166,371.9662,z,1,4.4486,,[],[],[],[],[],[],[],371.9662,373.9658,373.9658,373.966,[],[],[],[],[],[],[],,373.966,373.9662,-0.041666667,-0.210185228,0,0,0,,0,60,60,33,1,2,RL,strapely,cursive,strapely_c.png,,,,,,
,,,,32364,001,2025-12-02_14h53.57.234,HW_LDT_1,2024.2.4,Win32,60.60606061,,,,,,,,,,,,,,,,,,,,,,373.9675,374.1656,374.1656,374.666,,,,,,,,,,,,,,2.5653,1,,,,,,,,,,,,,,z,,,,,,,,,,,,,,,,62,0,374.6666,377.2324,z,1,2.5653,,[],[],[],[],[],[],[],377.2325,379.2327,379.2327,379.2329,[],[],[],[],[],[],[],,379.2329,379.233,-0.041666667,-0.210185228,0,0,0,,0,61,61,47,1,2,TL,crinimal,cursive,crinimal_c.png,,,,,,
,,,,32364,001,2025-12-02_14h53.57.234,HW_LDT_1,2024.2.4,Win32,60.60606061,,,,,,,,,,,,,,,,,,,,,,379.2342,379.4319,379.432,379.9327,,,,,,,,,,,,,,0.6985,1,,,,,,,,,,,,,,m,,,,,,,,,,,,,,,,63,0,379.9331,380.6325,m,1,0.6985,,[],[],[],[],[],[],[],380.6325,382.6327,382.6327,382.633,[],[],[],[],[],[],[],,382.633,382.6332,-0.041666667,-0.210185228,0,0,0,,0,62,62,99,1,2,word,DEBATE,print,debate_p.png,,,,,,
,,,,32364,001,2025-12-02_14h53.57.234,HW_LDT_1,2024.2.4,Win32,60.60606061,,,,,,,,,,,,,,,,,,,,,,382.6342,382.8323,382.8325,383.3329,,,,,,,,,,,,,,1.4318,1,,,,,,,,,,,,,,z,,,,,,,,,,,,,,,,64,1,383.3334,384.7662,z,1,1.4318,,[],[],[],[],[],[],[],384.7662,386.7646,386.7646,387.8662,[],[],[],[],[],[],[],m,387.8663,387.8664,-0.041666667,-0.210185228,0,0,0,,0,63,63,79,1,2,TL,vadility,print,vadility_p.png,1.1011,,,,,
,,,,32364,001,2025-12-02_14h53.57.234,HW_LDT_1,2024.2.4,Win32,60.60606061,,,,,,,,,,,,,,,,,,,,,,387.8674,388.0651,388.0652,388.5651,,,,,,,,,,,,,,0.9324,1,,,,,,,,,,,,,,z,,,,,,,,,,,,,,,,65,0,388.5657,389.499,z,1,0.9324,,[],[],[],[],[],[],[],389.4991,391.4985,391.4986,391.4987,[],[],[],[],[],[],[],,391.4988,391.4989,-0.041666667,-0.210185228,0,0,0,,0,64,64,60,1,2,TL,molibe,print,molibe_p.png,,,,,,
,,,,32364,001,2025-12-02_14h53.57.234,HW_LDT_1,2024.2.4,Win32,60.60606061,,,,,,,,,,,,,,,,,,,,,,391.4997,391.6983,391.6983,392.1988,,,,,,,,,,,,,,0.9983,1,,,,,,,,,,,,,,m,,,,,,,,,,,,,,,,66,1,392.1993,393.1983,m,1,0.9983,,[],[],[],[],[],[],[],393.1984,395.1983,395.1983,396.3817,[],[],[],[],[],[],[],m,396.3818,396.3819,-0.041666667,-0.210185228,0,0,0,,0,65,65,151,1,2,word,SPECIFIC,print,specific_p.png,1.1829,,,,,
,,,,32364,001,2025-12-02_14h53.57.234,HW_LDT_1,2024.2.4,Win32,60.60606061,,,,,,,,,,,,,,,,,,,,,,396.3828,396.5822,396.5823,397.0814,,,,,,,,,,,,,,0.883,1,,,,,,,,,,,,,,m,,,,,,,,,,,,,,,,67,1,397.082,397.9658,m,1,0.883,,[],[],[],[],[],[],[],397.9658,399.9651,399.9651,401.0154,[],[],[],[],[],[],[],m,401.0154,401.0155,-0.041666667,-0.210185228,0,0,0,,0,66,66,93,1,2,word,CEREMONY,print,ceremony_p.png,1.0498,,,,,
,,,,32364,001,2025-12-02_14h53.57.234,HW_LDT_1,2024.2.4,Win32,60.60606061,,,,,,,,,,,,,,,,,,,,,,401.0164,401.2146,401.2147,401.7148,,,,,,,,,,,,,,0.8329,1,,,,,,,,,,,,,,m,,,,,,,,,,,,,,,,68,0,401.7153,402.5488,m,1,0.8329,,[],[],[],[],[],[],[],402.5489,404.5477,404.5478,404.548,[],[],[],[],[],[],[],,404.548,404.5481,-0.041666667,-0.210185228,0,0,0,,0,67,67,128,1,2,word,PACIFIC,print,pacific_p.png,,,,,,
,,,,32364,001,2025-12-02_14h53.57.234,HW_LDT_1,2024.2.4,Win32,60.60606061,,,,,,,,,,,,,,,,,,,,,,404.5495,404.7485,404.7485,405.2482,,,,,,,,,,,,,,3.0652,1,,,,,,,,,,,,,,z,,,,,,,,,,,,,,,,69,0,405.2486,408.3147,z,1,3.0652,,[],[],[],[],[],[],[],408.3148,410.315,410.315,410.3152,[],[],[],[],[],[],[],,410.3152,410.3153,-0.041666667,-0.210185228,0,0,0,,0,68,68,65,1,2,TL,polupar,cursive,polupar_c.png,,,,,,
,,,,32364,001,2025-12-02_14h53.57.234,HW_LDT_1,2024.2.4,Win32,60.60606061,,,,,,,,,,,,,,,,,,,,,,410.3163,410.5142,410.5143,411.0148,,,,,,,,,,,,,,0.7155,1,,,,,,,,,,,,,,m,,,,,,,,,,,,,,,,70,0,411.0153,411.7318,m,1,0.7155,,[],[],[],[],[],[],[],411.7318,413.7317,413.7317,413.732,[],[],[],[],[],[],[],,413.732,413.7321,-0.041666667,-0.210185228,0,0,0,,0,69,69,88,1,2,word,CAMERA,print,camera_p.png,,,,,,
,,,,32364,001,2025-12-02_14h53.57.234,HW_LDT_1,2024.2.4,Win32,60.60606061,,,,,,,,,,,,,,,,,,,,,,413.7332,413.9309,413.9311,414.4321,,,,,,,,,,,,,,0.6814,1,,,,,,,,,,,,,,m,,,,,,,,,,,,,,,,71,0,414.4325,415.1148,m,1,0.6814,,[],[],[],[],[],[],[],415.1148,417.1139,417.1139,417.114,[],[],[],[],[],[],[],,417.114,417.1141,-0.041666667,-0.210185228,0,0,0,,0,70,70,143,1,2,word,REMOVAL,print,removal_p.png,,,,,,
,,,,32364,001,2025-12-02_14h53.57.234,HW_LDT_1,2024.2.4,Win32,60.60606061,,,,,,,,,,,,,,,,,,,,,,417.1147,417.3149,417.3149,417.8147,,,,,,,,,,,,,,2.2492,0,,,,,,,,,,,,,,m,,,,,,,,,,,,,,,,72,0,417.8151,420.0654,z,0,2.2492,,[],[],[],[],[],[],[],420.0655,422.0646,422.0646,422.0649,[],[],[],[],[],[],[],,422.0649,422.0651,-0.041666667,-0.210185228,0,0,0,,0,71,71,126,1,2,word,OPTIMAL,cursive,optimal_c.png,,,,,,
,,,,32364,001,2025-12-02_14h53.57.234,HW_LDT_1,2024.2.4,Win32,60.60606061,,,,,,,,,,,,,,,,,,,,,,422.0663,422.265,422.265,422.7646,,,,,,,,,,,,,,2.9648,1,,,,,,,,,,,,,,z,,,,,,,,,,,,,,,,73,0,422.7652,425.7309,z,1,2.9648,,[],[],[],[],[],[],[],425.731,427.7311,427.7312,427.7314,[],[],[],[],[],[],[],,427.7315,427.7315,-0.041666667,-0.210185228,0,0,0,,0,72,72,5,1,2,RL,clisimal,cursive,clisimal_c.png,,,,,,
,,,,32364,001,2025-12-02_14h53.57.234,HW_LDT_1,2024.2.4,Win32,60.60606061,,,,,,,,,,,,,,,,,,,,,,427.7327,427.9312,427.9312,428.4305,,,,,,,,,,,,,,0.6166,1,,,,,,,,,,,,,,m,,,,,,,,,,,,,,,,74,0,428.4312,429.0486,m,1,0.6166,,[],[],[],[],[],[],[],429.0487,431.0476,431.0476,431.0479,[],[],[],[],[],[],[],,431.048,431.0481,-0.041666667,-0.210185228,0,0,0,,0,73,73,130,1,2,word,POLICY,print,policy_p.png,,,,,,
,,,,32364,001,2025-12-02_14h53.57.234,HW_LDT_1,2024.2.4,Win32,60.60606061,,,,,,,,,,,,,,,,,,,,,,431.0493,431.2475,431.2475,431.747,,,,,,,,,,,,,,4.1498,1,,,,,,,,,,,,,,z,,,,,,,,,,,,,,,,75,0,431.7476,435.8981,z,1,4.1498,,[],[],[],[],[],[],[],435.8982,437.8973,437.8974,437.8976,[],[],[],[],[],[],[],,437.8976,437.8978,-0.041666667,-0.210185228,0,0,0,,0,74,74,24,1,2,RL,rasibal,cursive,rasibal_c.png,,,,,,
,,,,32364,001,2025-12-02_14h53.57.234,HW_LDT_1,2024.2.4,Win32,60.60606061,,,,,,,,,,,,,,,,,,,,,,437.899,438.0975,438.0976,438.5972,,,,,,,,,,,,,,1.4323,1,,,,,,,,,,,,,,m,,,,,,,,,,,,,,,,76,0,438.5979,440.031,m,1,1.4323,,[],[],[],[],[],[],[],440.0311,442.0301,442.0301,442.0303,[],[],[],[],[],[],[],,442.0303,442.0304,-0.041666667,-0.210185228,0,0,0,,0,75,75,135,1,2,word,QUALITY,cursive,quality_c.png,,,,,,
,,,,32364,001,2025-12-02_14h53.57.234,HW_LDT_1,2024.2.4,Win32,60.60606061,,,,,,,,,,,,,,,,,,,,,,442.0316,442.231,442.231,442.7313,,,,,,,,,,,,,,0.8644,1,,,,,,,,,,,,,,z,,,,,,,,,,,,,,,,77,1,442.732,443.5974,z,1,0.8644,,[],[],[],[],[],[],[],443.5975,445.5965,445.5966,447.8469,[],[],[],[],[],[],[],m,447.847,447.8471,-0.041666667,-0.210185228,0,0,0,,0,76,76,32,1,2,RL,speniven,print,speniven_p.png,2.25,,,,,
,,,,32364,001,2025-12-02_14h53.57.234,HW_LDT_1,2024.2.4,Win32,60.60606061,,,,,,,,,,,,,,,,,,,,,,447.8478,448.0472,448.0473,448.547,,,,,,,,,,,,,,1.6326,1,,,,,,,,,,,,,,z,,,,,,,,,,,,,,,,78,0,448.5476,450.1811,z,1,1.6326,,[],[],[],[],[],[],[],450.1812,452.1802,452.1803,452.1806,[],[],[],[],[],[],[],,452.1806,452.1807,-0.041666667,-0.210185228,0,0,0,,0,77,77,8,1,2,RL,desifate,print,desifate_p.png,,,,,,
,,,,32364,001,2025-12-02_14h53.57.234,HW_LDT_1,2024.2.4,Win32,60.60606061,,,,,,,,,,,,,,,,,,,,,,452.1817,452.38,452.3802,452.8803,,,,,,,,,,,,,,0.6647,1,,,,,,,,,,,,,,m,,,,,,,,,,,,,,,,79,0,452.8811,453.5466,m,1,0.6647,,[],[],[],[],[],[],[],453.5466,455.5466,455.5466,455.5468,[],[],[],[],[],[],[],,455.5469,455.547,-0.041666667,-0.210185228,0,0,0,,0,78,78,110,1,2,word,HERITAGE,print,heritage_p.png,,,,,,
,,,,32364,001,2025-12-02_14h53.57.234,HW_LDT_1,2024.2.4,Win32,60.60606061,,,,,,,,,,,,,,,,,,,,,,455.5482,455.7467,455.7467,456.2462,,,,,,,,,,,,,,0.9659,1,,,,,,,,,,,,,,z,,,,,,,,,,,,,,,,80,0,456.247,457.2136,z,1,0.9659,,[],[],[],[],[],[],[],457.2136,459.2136,459.2136,459.2138,[],[],[],[],[],[],[],,459.2139,498.5124,-0.041666667,-0.210185228,0,0,0,space,0,79,79,63,1,2,TL,orinigal,print,orinigal_p.png,,,39.2792,,,
,,,,32364,001,2025-12-02_14h53.57.234,HW_LDT_1,2024.2.4,Win32,60.60606061,,,,,,,,,,,,,,,,,,,,,,498.5136,498.7118,498.7119,499.2117,,,,,,,,,,,,,,4.0502,1,,,,,,,,,,,,,,z,,,,,,,,,,,,,,,,81,0,499.212,503.2635,z,1,4.0502,,[],[],[],[],[],[],[],503.2636,505.2621,505.2621,505.2623,[],[],[],[],[],[],[],,505.2624,505.2624,-0.041666667,-0.210185228,0,0,0,,0,80,80,7,1,2,RL,cocewage,cursive,cocewage_c.png,,,,,,
,,,,32364,001,2025-12-02_14h53.57.234,HW_LDT_1,2024.2.4,Win32,60.60606061,,,,,,,,,,,,,,,,,,,,,,505.2636,505.4626,505.4626,505.9617,,,,,,,,,,,,,,2.7661,1,,,,,,,,,,,,,,z,,,,,,,,,,,,,,,,82,0,505.9621,508.729,z,1,2.7661,,[],[],[],[],[],[],[],508.729,510.7292,510.7292,510.7293,[],[],[],[],[],[],[],,510.7295,510.7295,-0.041666667,-0.210185228,0,0,0,,0,81,81,45,1,2,TL,carnidal,cursive,carnidal_c.png,,,,,,
,,,,32364,001,2025-12-02_14h53.57.234,HW_LDT_1,2024.2.4,Win32,60.60606061,,,,,,,,,,,,,,,,,,,,,,510.7306,510.929,510.9291,511.4291,,,,,,,,,,,,,,1.3151,1,,,,,,,,,,,,,,m,,,,,,,,,,,,,,,,83,0,511.4296,512.7457,m,1,1.3151,,[],[],[],[],[],[],[],512.7457,514.745,514.745,514.7451,[],[],[],[],[],[],[],,514.7452,514.7452,-0.041666667,-0.210185228,0,0,0,,0,82,82,80,1,2,word,ACADEMY,cursive,academy_c.png,,,,,,
,,,,32364,001,2025-12-02_14h53.57.234,HW_LDT_1,2024.2.4,Win32,60.60606061,,,,,,,,,,,,,,,,,,,,,,514.746,514.9454,514.9454,515.445,,,,,,,,,,,,,,0.7324,1,,,,,,,,,,,,,,m,,,,,,,,,,,,,,,,84,0,515.4455,516.1787,m,1,0.7324,,[],[],[],[],[],[],[],516.1788,518.1781,518.1781,518.1783,[],[],[],[],[],[],[],,518.1783,518.1784,-0.041666667,-0.210185228,0,0,0,,0,83,83,154,1,2,word,STORAGE,print,storage_p.png,,,,,,
,,,,32364,001,2025-12-02_14h53.57.234,HW_LDT_1,2024.2.4,Win32,60.60606061,,,,,,,,,,,,,,,,,,,,,,518.1797,518.3785,518.3786,518.8787,,,,,,,,,,,,,,5.0315,1,,,,,,,,,,,,,,z,,,,,,,,,,,,,,,,85,1,518.8794,523.9117,z,1,5.0315,,[],[],[],[],[],[],[],523.9118,525.911,525.9111,526.862,[],[],[],[],[],[],[],z,526.8621,526.8622,-0.041666667,-0.210185228,0,0,0,,0,84,84,41,1,2,TL,befenit,cursive,befenit_c.png,0.9502,,,,,
,,,,32364,001,2025-12-02_14h53.57.234,HW_LDT_1,2024.2.4,Win32,60.60606061,,,,,,,,,,,,,,,,,,,,,,526.8632,527.062,527.062,527.5619,,,,,,,,,,,,,,1.6479,0,,,,,,,,,,,,,,z,,,,,,,,,,,,,,,,86,0,527.5623,529.2112,m,0,1.6479,,[],[],[],[],[],[],[],529.2113,531.2119,531.212,531.2122,[],[],[],[],[],[],[],,531.2122,531.2123,-0.041666667,-0.210185228,0,0,0,,0,85,85,61,1,2,TL,nuremical,cursive,nuremical_c.png,,,,,,
,,,,32364,001,2025-12-02_14h53.57.234,HW_LDT_1,2024.2.4,Win32,60.60606061,,,,,,,,,,,,,,,,,,,,,,531.2133,531.4119,531.4119,531.9118,,,,,,,,,,,,,,1.0653,1,,,,,,,,,,,,,,z,,,,,,,,,,,,,,,,87,0,531.9122,532.9783,z,1,1.0653,,[],[],[],[],[],[],[],532.9784,534.9772,534.9773,534.9774,[],[],[],[],[],[],[],,534.9775,534.9775,-0.041666667,-0.210185228,0,0,0,,0,86,86,18,1,2,RL,mesibine,print,mesibine_p.png,,,,,,
,,,,32364,001,2025-12-02_14h53.57.234,HW_LDT_1,2024.2.4,Win32,60.60606061,,,,,,,,,,,,,,,,,,,,,,534.9782,535.1782,535.1783,535.6781,,,,,,,,,,,,,,0.8819,1,,,,,,,,,,,,,,m,,,,,,,,,,,,,,,,88,0,535.6785,536.5613,m,1,0.8819,,[],[],[],[],[],[],[],536.5613,538.5609,538.5609,538.5611,[],[],[],[],[],[],[],,538.5612,538.5613,-0.041666667,-0.210185228,0,0,0,,0,87,87,132,1,2,word,PROPOSAL,cursive,proposal_c.png,,,,,,
,,,,32364,001,2025-12-02_14h53.57.234,HW_LDT_1,2024.2.4,Win32,60.60606061,,,,,,,,,,,,,,,,,,,,,,538.5624,538.761,538.7611,539.2607,,,,,,,,,,,,,,0.6834,1,,,,,,,,,,,,,,m,,,,,,,,,,,,,,,,89,0,539.261,539.9452,m,1,0.6834,,[],[],[],[],[],[],[],539.9453,541.9439,541.9439,541.9441,[],[],[],[],[],[],[],,541.9441,541.9443,-0.041666667,-0.210185228,0,0,0,,0,88,88,140,1,2,word,RELATIVE,print,relative_p.png,,,,,,
,,,,32364,001,2025-12-02_14h53.57.234,HW_LDT_1,2024.2.4,Win32,60.60606061,,,,,,,,,,,,,,,,,,,,,,541.945,542.1442,542.1443,542.6442,,,,,,,,,,,,,,0.5995,1,,,,,,,,,,,,,,m,,,,,,,,,,,,,,,,90,0,542.6445,543.2448,m,1,0.5995,,[],[],[],[],[],[],[],543.2448,545.2443,545.2444,545.2446,[],[],[],[],[],[],[],,545.2447,545.2448,-0.041666667,-0.210185228,0,0,0,,0,89,89,147,1,2,word,ROMANTIC,print,romantic_p.png,,,,,,
,,,,32364,001,2025-12-02_14h53.57.234,HW_LDT_1,2024.2.4,Win32,60.60606061,,,,,,,,,,,,,,,,,,,,,,545.2462,545.4446,545.4446,545.944,,,,,,,,,,,,,,0.7493,1,,,,,,,,,,,,,,z,,,,,,,,,,,,,,,,91,0,545.9446,546.6949,z,1,0.7493,,[],[],[],[],[],[],[],546.695,548.6944,548.6944,548.6946,[],[],[],[],[],[],[],,548.6947,548.6948,-0.041666667,-0.210185228,0,0,0,,0,90,90,55,1,2,TL,lotace,print,lotace_p.png,,,,,,
,,,,32364,001,2025-12-02_14h53.57.234,HW_LDT_1,2024.2.4,Win32,60.60606061,,,,,,,,,,,,,,,,,,,,,,548.6958,548.8939,548.8939,549.3944,,,,,,,,,,,,,,3.0491,0,,,,,,,,,,,,,,m,,,,,,,,,,,,,,,,92,0,549.3949,552.4448,z,0,3.0491,,[],[],[],[],[],[],[],552.4448,554.4439,554.4439,554.4441,[],[],[],[],[],[],[],,554.4442,554.4443,-0.041666667,-0.210185228,0,0,0,,0,91,91,138,1,2,word,REFUSAL,cursive,refusal_c.png,,,,,,
,,,,32364,001,2025-12-02_14h53.57.234,HW_LDT_1,2024.2.4,Win32,60.60606061,,,,,,,,,,,,,,,,,,,,,,554.4454,554.6444,554.6445,555.1443,,,,,,,,,,,,,,0.682,1,,,,,,,,,,,,,,m,,,,,,,,,,,,,,,,93,0,555.1449,555.828,m,1,0.682,,[],[],[],[],[],[],[],555.8281,557.8274,557.8275,557.8277,[],[],[],[],[],[],[],,557.8278,557.8279,-0.041666667,-0.210185228,0,0,0,,0,92,92,101,1,2,word,DELICATE,print,delicate_p.png,,,,,,
,,,,32364,001,2025-12-02_14h53.57.234,HW_LDT_1,2024.2.4,Win32,60.60606061,,,,,,,,,,,,,,,,,,,,,,557.8293,558.0269,558.0269,558.5274,,,,,,,,,,,,,,0.7159,1,,,,,,,,,,,,,,m,,,,,,,,,,,,,,,,94,0,558.5278,559.2445,m,1,0.7159,,[],[],[],[],[],[],[],559.2446,561.2434,561.2435,561.2436,[],[],[],[],[],[],[],,561.2436,561.2437,-0.041666667,-0.210185228,0,0,0,,0,93,93,144,1,2,word,RESIDENT,print,resident_p.png,,,,,,
,,,,32364,001,2025-12-02_14h53.57.234,HW_LDT_1,2024.2.4,Win32,60.60606061,,,,,,,,,,,,,,,,,,,,,,561.2446,561.4436,561.4436,561.944,,,,,,,,,,,,,,1.0654,1,,,,,,,,,,,,,,m,,,,,,,,,,,,,,,,95,0,561.9444,563.0113,m,1,1.0654,,[],[],[],[],[],[],[],563.0113,565.0106,565.0106,565.011,[],[],[],[],[],[],[],,565.0111,565.0112,-0.041666667,-0.210185228,0,0,0,,0,94,94,149,1,2,word,SENATOR,print,senator_p.png,,,,,,
,,,,32364,001,2025-12-02_14h53.57.234,HW_LDT_1,2024.2.4,Win32,60.60606061,,,,,,,,,,,,,,,,,,,,,,565.0123,565.2103,565.2103,565.7104,,,,,,,,,,,,,,1.5991,1,,,,,,,,,,,,,,m,,,,,,,,,,,,,,,,96,0,565.7111,567.3107,m,1,1.5991,,[],[],[],[],[],[],[],567.3108,569.31,569.31,569.3102,[],[],[],[],[],[],[],,569.3103,569.3105,-0.041666667,-0.210185228,0,0,0,,0,95,95,97,1,2,word,COVERAGE,cursive,coverage_c.png,,,,,,
,,,,32364,001,2025-12-02_14h53.57.234,HW_LDT_1,2024.2.4,Win32,60.60606061,,,,,,,,,,,,,,,,,,,,,,569.3117,569.5099,569.5099,570.0108,,,,,,,,,,,,,,3.4651,1,,,,,,,,,,,,,,z,,,,,,,,,,,,,,,,97,0,570.0114,573.4772,z,1,3.4651,,[],[],[],[],[],[],[],573.4772,575.4761,575.4761,575.4763,[],[],[],[],[],[],[],,575.4763,575.4764,-0.041666667,-0.210185228,0,0,0,,0,96,96,59,1,2,TL,miskate,cursive,miskate_c.png,,,,,,
,,,,32364,001,2025-12-02_14h53.57.234,HW_LDT_1,2024.2.4,Win32,60.60606061,,,,,,,,,,,,,,,,,,,,,,575.4775,575.677,575.6771,576.1766,,,,,,,,,,,,,,0.5816,1,,,,,,,,,,,,,,m,,,,,,,,,,,,,,,,98,0,576.1771,576.7593,m,1,0.5816,,[],[],[],[],[],[],[],576.7594,578.7605,578.7605,578.7607,[],[],[],[],[],[],[],,578.7607,578.7608,-0.041666667,-0.210185228,0,0,0,,0,97,97,114,1,2,word,LOCATE,print,locate_p.png,,,,,,
,,,,32364,001,2025-12-02_14h53.57.234,HW_LDT_1,2024.2.4,Win32,60.60606061,,,,,,,,,,,,,,,,,,,,,,578.7619,578.9591,578.9592,579.4606,,,,,,,,,,,,,,5.498,1,,,,,,,,,,,,,,z,,,,,,,,,,,,,,,,99,0,579.4611,584.96,z,1,5.498,,[],[],[],[],[],[],[],584.96,586.96,586.96,586.9602,[],[],[],[],[],[],[],,586.9602,586.9605,-0.041666667,-0.210185228,0,0,0,,0,98,98,20,1,2,RL,onegator,cursive,onegator_c.png,,,,,,
,,,,32364,001,2025-12-02_14h53.57.234,HW_LDT_1,2024.2.4,Win32,60.60606061,,,,,,,,,,,,,,,,,,,,,,586.9616,587.16,587.16,587.66,,,,,,,,,,,,,,5.7146,0,,,,,,,,,,,,,,m,,,,,,,,,,,,,,,,100,0,587.6606,593.3759,z,0,5.7146,,[],[],[],[],[],[],[],593.3759,595.3764,595.3765,595.3767,[],[],[],[],[],[],[],,595.3768,595.3769,-0.041666667,-0.210185228,0,0,0,,0,99,99,113,1,2,word,LITERAL,cursive,literal_c.png,,,,,,
,,,,32364,001,2025-12-02_14h53.57.234,HW_LDT_1,2024.2.4,Win32,60.60606061,,,,,,,,,,,,,,,,,,,,,,595.378,595.5765,595.5766,596.0758,,,,,,,,,,,,,,1.3823,1,,,,,,,,,,,,,,m,,,,,,,,,,,,,,,,101,0,596.0763,597.4593,m,1,1.3823,,[],[],[],[],[],[],[],597.4594,599.4599,599.4599,599.4601,[],[],[],[],[],[],[],,599.4601,599.4602,-0.041666667,-0.210185228,0,0,0,,0,100,100,86,1,2,word,BESIDE,cursive,beside_c.png,,,,,,
,,,,32364,001,2025-12-02_14h53.57.234,HW_LDT_1,2024.2.4,Win32,60.60606061,,,,,,,,,,,,,,,,,,,,,,599.4612,599.6592,599.6593,600.1598,,,,,,,,,,,,,,0.6823,1,,,,,,,,,,,,,,m,,,,,,,,,,,,,,,,102,0,600.1604,600.8434,m,1,0.6823,,[],[],[],[],[],[],[],600.8436,602.8436,602.8436,602.8437,[],[],[],[],[],[],[],,602.8438,602.8439,-0.041666667,-0.210185228,0,0,0,,0,101,101,131,1,2,word,POPULAR,cursive,popular_c.png,,,,,,
,,,,32364,001,2025-12-02_14h53.57.234,HW_LDT_1,2024.2.4,Win32,60.60606061,,,,,,,,,,,,,,,,,,,,,,602.8449,603.0425,603.0425,603.5427,,,,,,,,,,,,,,0.7319,1,,,,,,,,,,,,,,z,,,,,,,,,,,,,,,,103,1,603.5434,604.2763,z,1,0.7319,,[],[],[],[],[],[],[],604.2763,606.2758,606.2758,607.9601,[],[],[],[],[],[],[],z,607.9602,607.9604,-0.041666667,-0.210185228,0,0,0,,0,102,102,11,1,2,RL,formuke,print,formuke_p.png,1.6838,,,,,
,,,,32364,001,2025-12-02_14h53.57.234,HW_LDT_1,2024.2.4,Win32,60.60606061,,,,,,,,,,,,,,,,,,,,,,607.9615,608.1584,608.1584,608.6596,,,,,,,,,,,,,,2.9318,1,,,,,,,,,,,,,,m,,,,,,,,,,,,,,,,104,1,608.6602,611.5926,m,1,2.9318,,[],[],[],[],[],[],[],611.5927,613.5921,613.5921,614.8754,[],[],[],[],[],[],[],z,614.8754,614.8755,-0.041666667,-0.210185228,0,0,0,,0,103,103,90,1,2,word,CAPITAL,cursive,capital_c.png,1.2827,,,,,
,,,,32364,001,2025-12-02_14h53.57.234,HW_LDT_1,2024.2.4,Win32,60.60606061,,,,,,,,,,,,,,,,,,,,,,614.8762,615.0759,615.0759,615.5756,,,,,,,,,,,,,,1.0151,1,,,,,,,,,,,,,,z,,,,,,,,,,,,,,,,105,0,615.5761,616.5921,z,1,1.0151,,[],[],[],[],[],[],[],616.5921,618.5923,618.5923,618.5926,[],[],[],[],[],[],[],,618.593,618.5933,-0.041666667,-0.210185228,0,0,0,,0,104,104,72,1,2,TL,revomal,print,revomal_p.png,,,,,,
,,,,32364,001,2025-12-02_14h53.57.234,HW_LDT_1,2024.2.4,Win32,60.60606061,,,,,,,,,,,,,,,,,,,,,,618.5946,618.7923,618.7923,619.2922,,,,,,,,,,,,,,5.0153,1,,,,,,,,,,,,,,m,,,,,,,,,,,,,,,,106,0,619.2927,624.3087,m,1,5.0153,,[],[],[],[],[],[],[],624.3089,626.3101,626.3101,626.3102,[],[],[],[],[],[],[],,626.3103,626.3103,-0.041666667,-0.210185228,0,0,0,,0,105,105,111,1,2,word,INDICATE,cursive,indicate_c.png,,,,,,
,,,,32364,001,2025-12-02_14h53.57.234,HW_LDT_1,2024.2.4,Win32,60.60606061,,,,,,,,,,,,,,,,,,,,,,626.3109,626.5088,626.5088,627.0082,,,,,,,,,,,,,,3.3328,1,,,,,,,,,,,,,,z,,,,,,,,,,,,,,,,107,1,627.0087,630.342,z,1,3.3328,,[],[],[],[],[],[],[],630.342,632.3414,632.3415,633.8092,[],[],[],[],[],[],[],z,633.8093,633.8094,-0.041666667,-0.210185228,0,0,0,,0,106,106,69,1,2,TL,resufal,cursive,resufal_c.png,1.4673,,,,,
,,,,32364,001,2025-12-02_14h53.57.234,HW_LDT_1,2024.2.4,Win32,60.60606061,,,,,,,,,,,,,,,,,,,,,,633.8105,634.0088,634.0088,634.5082,,,,,,,,,,,,,,1.0487,1,,,,,,,,,,,,,,m,,,,,,,,,,,,,,,,108,0,634.5089,635.5585,m,1,1.0487,,[],[],[],[],[],[],[],635.5587,637.5584,637.5584,637.5587,[],[],[],[],[],[],[],,637.5587,637.5588,-0.041666667,-0.210185228,0,0,0,,0,107,107,142,1,2,word,REMOTE,cursive,remote_c.png,,,,,,
,,,,32364,001,2025-12-02_14h53.57.234,HW_LDT_1,2024.2.4,Win32,60.60606061,,,,,,,,,,,,,,,,,,,,,,637.56,637.7579,637.758,638.2588,,,,,,,,,,,,,,2.0314,1,,,,,,,,,,,,,,z,,,,,,,,,,,,,,,,109,0,638.2596,640.2921,z,1,2.0314,,[],[],[],[],[],[],[],640.2922,642.292,642.2921,642.2924,[],[],[],[],[],[],[],,642.2924,642.2925,-0.041666667,-0.210185228,0,0,0,,0,108,108,34,1,2,RL,trilude,cursive,trilude_c.png,,,,,,
,,,,32364,001,2025-12-02_14h53.57.234,HW_LDT_1,2024.2.4,Win32,60.60606061,,,,,,,,,,,,,,,,,,,,,,642.2935,642.4912,642.4912,642.9915,,,,,,,,,,,,,,0.6988,1,,,,,,,,,,,,,,m,,,,,,,,,,,,,,,,110,0,642.992,643.6913,m,1,0.6988,,[],[],[],[],[],[],[],643.6915,645.6916,645.6916,645.6918,[],[],[],[],[],[],[],,645.6919,645.692,-0.041666667,-0.210185228,0,0,0,,0,109,109,153,1,2,word,STOLEN,print,stolen_p.png,,,,,,
,,,,32364,001,2025-12-02_14h53.57.234,HW_LDT_1,2024.2.4,Win32,60.60606061,,,,,,,,,,,,,,,,,,,,,,645.6936,645.8914,645.8914,646.3916,,,,,,,,,,,,,,1.8153,1,,,,,,,,,,,,,,m,,,,,,,,,,,,,,,,111,0,646.3921,648.2084,m,1,1.8153,,[],[],[],[],[],[],[],648.2085,650.2076,650.2076,650.2079,[],[],[],[],[],[],[],,650.2079,650.2079,-0.041666667,-0.210185228,0,0,0,,0,110,110,82,1,2,word,AMATEUR,cursive,amateur_c.png,,,,,,
,,,,32364,001,2025-12-02_14h53.57.234,HW_LDT_1,2024.2.4,Win32,60.60606061,,,,,,,,,,,,,,,,,,,,,,650.2092,650.4079,650.4079,650.9085,,,,,,,,,,,,,,2.0983,1,,,,,,,,,,,,,,z,,,,,,,,,,,,,,,,112,0,650.9089,653.0083,z,1,2.0983,,[],[],[],[],[],[],[],653.0083,655.008,655.008,655.0083,[],[],[],[],[],[],[],,655.0083,655.0084,-0.041666667,-0.210185228,0,0,0,,0,111,111,25,1,2,RL,rabigly,print,rabigly_p.png,,,,,,
,,,,32364,001,2025-12-02_14h53.57.234,HW_LDT_1,2024.2.4,Win32,60.60606061,,,,,,,,,,,,,,,,,,,,,,655.0098,655.2073,655.2073,655.707,,,,,,,,,,,,,,1.1822,1,,,,,,,,,,,,,,m,,,,,,,,,,,,,,,,113,0,655.7076,656.8904,m,1,1.1822,,[],[],[],[],[],[],[],656.8904,658.8913,658.8914,658.8915,[],[],[],[],[],[],[],,658.8916,658.8916,-0.041666667,-0.210185228,0,0,0,,0,112,112,120,1,2,word,MILITARY,cursive,military_c.png,,,,,,
,,,,32364,001,2025-12-02_14h53.57.234,HW_LDT_1,2024.2.4,Win32,60.60606061,,,,,,,,,,,,,,,,,,,,,,658.8925,659.0904,659.0905,659.5916,,,,,,,,,,,,,,1.2158,1,,,,,,,,,,,,,,m,,,,,,,,,,,,,,,,114,1,659.592,660.8086,m,1,1.2158,,[],[],[],[],[],[],[],660.8087,662.8083,662.8083,663.8081,[],[],[],[],[],[],[],z,663.8082,663.8083,-0.041666667,-0.210185228,0,0,0,,0,113,113,156,1,2,word,TRIBUTE,cursive,tribute_c.png,0.9994,,,,,
,,,,32364,001,2025-12-02_14h53.57.234,HW_LDT_1,2024.2.4,Win32,60.60606061,,,,,,,,,,,,,,,,,,,,,,663.809,664.0083,664.0084,664.5081,,,,,,,,,,,,,,2.6986,1,,,,,,,,,,,,,,m,,,,,,,,,,,,,,,,115,0,664.5085,667.208,m,1,2.6986,,[],[],[],[],[],[],[],667.2081,669.2078,669.2078,669.2079,[],[],[],[],[],[],[],,669.208,669.2081,-0.041666667,-0.210185228,0,0,0,,0,114,114,106,1,2,word,ELABORATE,cursive,elaborate_c.png,,,,,,
,,,,32364,001,2025-12-02_14h53.57.234,HW_LDT_1,2024.2.4,Win32,60.60606061,,,,,,,,,,,,,,,,,,,,,,669.2089,669.4081,669.4082,669.9082,,,,,,,,,,,,,,0.8148,1,,,,,,,,,,,,,,m,,,,,,,,,,,,,,,,116,0,669.9089,670.7245,m,1,0.8148,,[],[],[],[],[],[],[],670.7246,672.7235,672.7235,672.7237,[],[],[],[],[],[],[],,672.7237,672.7238,-0.041666667,-0.210185228,0,0,0,,0,115,115,96,1,2,word,CONSIDER,print,consider_p.png,,,,,,
,,,,32364,001,2025-12-02_14h53.57.234,HW_LDT_1,2024.2.4,Win32,60.60606061,,,,,,,,,,,,,,,,,,,,,,672.725,672.9239,672.9239,673.4247,,,,,,,,,,,,,,0.632,1,,,,,,,,,,,,,,m,,,,,,,,,,,,,,,,117,0,673.4251,674.0579,m,1,0.632,,[],[],[],[],[],[],[],674.0579,676.0573,676.0573,676.0574,[],[],[],[],[],[],[],,676.0575,676.0576,-0.041666667,-0.210185228,0,0,0,,0,116,116,102,1,2,word,DENSITY,print,density_p.png,,,,,,
,,,,32364,001,2025-12-02_14h53.57.234,HW_LDT_1,2024.2.4,Win32,60.60606061,,,,,,,,,,,,,,,,,,,,,,676.0586,676.2566,676.2566,676.7569,,,,,,,,,,,,,,1.1329,1,,,,,,,,,,,,,,m,,,,,,,,,,,,,,,,118,0,676.7573,677.891,m,1,1.1329,,[],[],[],[],[],[],[],677.891,679.891,679.8911,679.8914,[],[],[],[],[],[],[],,679.8914,679.8916,-0.041666667,-0.210185228,0,0,0,,0,117,117,95,1,2,word,COMEDY,cursive,comedy_c.png,,,,,,
,,,,32364,001,2025-12-02_14h53.57.234,HW_LDT_1,2024.2.4,Win32,60.60606061,,,,,,,,,,,,,,,,,,,,,,679.8928,680.0905,680.0906,680.5908,,,,,,,,,,,,,,0.8485,1,,,,,,,,,,,,,,z,,,,,,,,,,,,,,,,119,0,680.5912,681.4411,z,1,0.8485,,[],[],[],[],[],[],[],681.4412,683.44,683.44,683.4402,[],[],[],[],[],[],[],,683.4402,683.4403,-0.041666667,-0.210185228,0,0,0,,0,118,118,35,1,2,RL,vesofity,print,vesofity_p.png,,,,,,
,,,,32364,001,2025-12-02_14h53.57.234,HW_LDT_1,2024.2.4,Win32,60.60606061,,,,,,,,,,,,,,,,,,,,,,683.4411,683.6408,683.6409,684.1406,,,,,,,,,,,,,,0.9149,1,,,,,,,,,,,,,,z,,,,,,,,,,,,,,,,120,0,684.1412,685.0569,z,1,0.9149,,[],[],[],[],[],[],[],685.0569,687.0574,687.0574,687.0575,[],[],[],[],[],[],[],,687.0576,687.0577,-0.041666667,-0.210185228,0,0,0,,0,119,119,9,1,2,RL,denficy,print,denficy_p.png,,,,,,
,,,,32364,001,2025-12-02_14h53.57.234,HW_LDT_1,2024.2.4,Win32,60.60606061,,,,,,,,,,,,,,,,,,,,,,687.0586,687.2572,687.2573,687.7568,,,,,,,,,,,,,,0.9321,1,,,,,,,,,,,,,,z,,,,,,,,,,,,,,,,121,0,687.7574,688.6905,z,1,0.9321,,[],[],[],[],[],[],[],688.6907,690.6894,690.6894,690.6898,[],[],[],[],[],[],[],,690.6899,690.69,-0.041666667,-0.210185228,0,0,0,,0,120,120,15,1,2,RL,linedal,print,linedal_p.png,,,,,,
,,,,32364,001,2025-12-02_14h53.57.234,HW_LDT_1,2024.2.4,Win32,60.60606061,,,,,,,,,,,,,,,,,,,,,,690.691,690.8901,690.8901,691.3898,,,,,,,,,,,,,,1.8662,1,,,,,,,,,,,,,,z,,,,,,,,,,,,,,,,122,0,691.3903,693.2573,z,1,1.8662,,[],[],[],[],[],[],[],693.2574,695.2573,695.2573,695.2576,[],[],[],[],[],[],[],,695.2576,695.2576,-0.041666667,-0.210185228,0,0,0,,0,121,121,44,1,2,TL,catipal,cursive,catipal_c.png,,,,,,
,,,,32364,001,2025-12-02_14h53.57.234,HW_LDT_1,2024.2.4,Win32,60.60606061,,,,,,,,,,,,,,,,,,,,,,695.2586,695.4568,695.4569,695.9565,,,,,,,,,,,,,,0.6652,1,,,,,,,,,,,,,,m,,,,,,,,,,,,,,,,123,1,695.957,696.6228,m,1,0.6652,,[],[],[],[],[],[],[],696.6229,698.6229,698.6231,699.5237,[],[],[],[],[],[],[],m,699.5238,699.524,-0.041666667,-0.210185228,0,0,0,,0,122,122,100,1,2,word,DECADE,print,decade_p.png,0.9,,,,,
,,,,32364,001,2025-12-02_14h53.57.234,HW_LDT_1,2024.2.4,Win32,60.60606061,,,,,,,,,,,,,,,,,,,,,,699.5249,699.7231,699.7232,700.2234,,,,,,,,,,,,,,2.9154,1,,,,,,,,,,,,,,m,,,,,,,,,,,,,,,,124,0,700.224,703.1402,m,1,2.9154,,[],[],[],[],[],[],[],703.1403,705.1395,705.1396,705.1398,[],[],[],[],[],[],[],,705.1398,705.14,-0.041666667,-0.210185228,0,0,0,,0,123,123,107,1,2,word,EVIDENT,cursive,evident_c.png,,,,,,
,,,,32364,001,2025-12-02_14h53.57.234,HW_LDT_1,2024.2.4,Win32,60.60606061,,,,,,,,,,,,,,,,,,,,,,705.1412,705.3395,705.3395,705.8404,,,,,,,,,,,,,,0.6812,1,,,,,,,,,,,,,,m,,,,,,,,,,,,,,,,125,0,705.8411,706.5234,m,1,0.6812,,[],[],[],[],[],[],[],706.5234,708.5232,708.5232,708.5235,[],[],[],[],[],[],[],,708.5235,708.5237,-0.041666667,-0.210185228,0,0,0,,0,124,124,157,1,2,word,VALIDITY,print,validity_p.png,,,,,,
,,,,32364,001,2025-12-02_14h53.57.234,HW_LDT_1,2024.2.4,Win32,60.60606061,,,,,,,,,,,,,,,,,,,,,,708.5248,708.7228,708.7228,709.2228,,,,,,,,,,,,,,3.4656,1,,,,,,,,,,,,,,z,,,,,,,,,,,,,,,,126,0,709.2235,712.6897,z,1,3.4656,,[],[],[],[],[],[],[],712.6898,714.6892,714.6892,714.6896,[],[],[],[],[],[],[],,714.6898,714.6901,-0.041666667,-0.210185228,0,0,0,,0,125,125,28,1,2,RL,revune,cursive,revune_c.png,,,,,,
,,,,32364,001,2025-12-02_14h53.57.234,HW_LDT_1,2024.2.4,Win32,60.60606061,,,,,,,,,,,,,,,,,,,,,,714.6914,714.8899,714.89,715.3891,,,,,,,,,,,,,,2.3992,1,,,,,,,,,,,,,,z,,,,,,,,,,,,,,,,127,1,715.3894,717.7894,z,1,2.3992,,[],[],[],[],[],[],[],717.7895,719.79,719.79,720.9069,[],[],[],[],[],[],[],z,720.9069,720.907,-0.041666667,-0.210185228,0,0,0,,0,126,126,40,1,2,TL,bevoled,cursive,bevoled_c.png,1.1165,,,,,
,,,,32364,001,2025-12-02_14h53.57.234,HW_LDT_1,2024.2.4,Win32,60.60606061,,,,,,,,,,,,,,,,,,,,,,720.9081,721.1054,721.1054,721.6062,,,,,,,,,,,,,,1.1319,1,,,,,,,,,,,,,,m,,,,,,,,,,,,,,,,128,1,721.6068,722.7395,m,1,1.1319,,[],[],[],[],[],[],[],722.7395,724.7396,724.7397,726.324,[],[],[],[],[],[],[],z,726.324,726.3241,-0.041666667,-0.210185228,0,0,0,,0,127,127,148,1,2,word,SALINE,cursive,saline_c.png,1.5825,,,,,
,,,,32364,001,2025-12-02_14h53.57.234,HW_LDT_1,2024.2.4,Win32,60.60606061,,,,,,,,,,,,,,,,,,,,,,726.325,726.5225,726.5225,727.0228,,,,,,,,,,,,,,0.9316,1,,,,,,,,,,,,,,z,,,,,,,,,,,,,,,,129,0,727.0234,727.9558,z,1,0.9316,,[],[],[],[],[],[],[],727.9559,729.9559,729.9559,729.9561,[],[],[],[],[],[],[],,729.9561,729.9562,-0.041666667,-0.210185228,0,0,0,,0,128,128,4,1,2,RL,cenesony,print,cenesony_p.png,,,,,,
,,,,32364,001,2025-12-02_14h53.57.234,HW_LDT_1,2024.2.4,Win32,60.60606061,,,,,,,,,,,,,,,,,,,,,,729.9572,730.1554,730.1554,730.6558,,,,,,,,,,,,,,3.0824,0,,,,,,,,,,,,,,z,,,,,,,,,,,,,,,,130,0,730.6566,733.7399,m,0,3.0824,,[],[],[],[],[],[],[],733.7399,735.7392,735.7394,735.7396,[],[],[],[],[],[],[],,735.7396,735.7397,-0.041666667,-0.210185228,0,0,0,,0,129,129,10,1,2,RL,disluge,cursive,disluge_c.png,,,,,,
,,,,32364,001,2025-12-02_14h53.57.234,HW_LDT_1,2024.2.4,Win32,60.60606061,,,,,,,,,,,,,,,,,,,,,,735.741,735.9398,735.9399,736.4395,,,,,,,,,,,,,,1.4487,1,,,,,,,,,,,,,,z,,,,,,,,,,,,,,,,131,0,736.4401,737.8901,z,1,1.4487,,[],[],[],[],[],[],[],737.8907,739.8891,739.8892,739.8895,[],[],[],[],[],[],[],,739.8896,739.8898,-0.041666667,-0.210185228,0,0,0,,0,130,130,39,1,2,TL,aminal,print,aminal_p.png,,,,,,
,,,,32364,001,2025-12-02_14h53.57.234,HW_LDT_1,2024.2.4,Win32,60.60606061,,,,,,,,,,,,,,,,,,,,,,739.8913,740.0894,740.0894,740.5891,,,,,,,,,,,,,,0.698,1,,,,,,,,,,,,,,m,,,,,,,,,,,,,,,,132,0,740.5896,741.2883,m,1,0.698,,[],[],[],[],[],[],[],741.2884,743.2886,743.2886,743.2888,[],[],[],[],[],[],[],,743.2888,743.289,-0.041666667,-0.210185228,0,0,0,,0,131,131,104,1,2,word,DOMINANT,print,dominant_p.png,,,,,,
,,,,32364,001,2025-12-02_14h53.57.234,HW_LDT_1,2024.2.4,Win32,60.60606061,,,,,,,,,,,,,,,,,,,,,,743.2901,743.4881,743.4881,743.9887,,,,,,,,,,,,,,2.2328,1,,,,,,,,,,,,,,m,,,,,,,,,,,,,,,,133,0,743.9892,746.2227,m,1,2.2328,,[],[],[],[],[],[],[],746.2228,748.2219,748.2219,748.2221,[],[],[],[],[],[],[],,748.2221,748.2223,-0.041666667,-0.210185228,0,0,0,,0,132,132,125,1,2,word,OPERATOR,cursive,operator_c.png,,,,,,
,,,,32364,001,2025-12-02_14h53.57.234,HW_LDT_1,2024.2.4,Win32,60.60606061,,,,,,,,,,,,,,,,,,,,,,748.2233,748.4218,748.4219,748.9215,,,,,,,,,,,,,,0.8655,1,,,,,,,,,,,,,,z,,,,,,,,,,,,,,,,134,0,748.9221,749.7885,z,1,0.8655,,[],[],[],[],[],[],[],749.7886,751.7884,751.7884,751.7888,[],[],[],[],[],[],[],,751.7889,751.7891,-0.041666667,-0.210185228,0,0,0,,0,133,133,22,1,2,RL,posity,print,posity_p.png,,,,,,
,,,,32364,001,2025-12-02_14h53.57.234,HW_LDT_1,2024.2.4,Win32,60.60606061,,,,,,,,,,,,,,,,,,,,,,751.7906,751.9886,751.9887,752.4877,,,,,,,,,,,,,,2.1832,1,,,,,,,,,,,,,,z,,,,,,,,,,,,,,,,135,0,752.4881,754.6718,z,1,2.1832,,[],[],[],[],[],[],[],754.6719,756.6717,756.6718,756.6721,[],[],[],[],[],[],[],,756.6721,756.6723,-0.041666667,-0.210185228,0,0,0,,0,134,134,14,1,2,RL,insibate,cursive,insibate_c.png,,,,,,
,,,,32364,001,2025-12-02_14h53.57.234,HW_LDT_1,2024.2.4,Win32,60.60606061,,,,,,,,,,,,,,,,,,,,,,756.6732,756.8713,756.8714,757.3725,,,,,,,,,,,,,,1.0144,1,,,,,,,,,,,,,,z,,,,,,,,,,,,,,,,136,0,757.3729,758.3881,z,1,1.0144,,[],[],[],[],[],[],[],758.3882,760.3883,760.3884,760.3887,[],[],[],[],[],[],[],,760.3887,760.3887,-0.041666667,-0.210185228,0,0,0,,0,135,135,73,1,2,TL,redisent,print,redisent_p.png,,,,,,
,,,,32364,001,2025-12-02_14h53.57.234,HW_LDT_1,2024.2.4,Win32,60.60606061,,,,,,,,,,,,,,,,,,,,,,760.3899,760.5877,760.5878,761.0882,,,,,,,,,,,,,,0.866,1,,,,,,,,,,,,,,z,,,,,,,,,,,,,,,,137,0,761.0888,761.9556,z,1,0.866,,[],[],[],[],[],[],[],761.9556,763.9549,763.955,763.9552,[],[],[],[],[],[],[],,763.9552,763.9553,-0.041666667,-0.210185228,0,0,0,,0,136,136,16,1,2,RL,losipal,print,losipal_p.png,,,,,,
,,,,32364,001,2025-12-02_14h53.57.234,HW_LDT_1,2024.2.4,Win32,60.60606061,,,,,,,,,,,,,,,,,,,,,,763.9562,764.1546,764.1547,764.6549,,,,,,,,,,,,,,1.9151,1,,,,,,,,,,,,,,z,,,,,,,,,,,,,,,,138,1,764.6555,766.5716,z,1,1.9151,,[],[],[],[],[],[],[],766.5716,768.5714,768.5714,769.9219,[],[],[],[],[],[],[],z,769.9219,769.922,-0.041666667,-0.210185228,0,0,0,,0,137,137,74,1,2,TL,rerite,cursive,rerite_c.png,1.3497,,,,,
,,,,32364,001,2025-12-02_14h53.57.234,HW_LDT_1,2024.2.4,Win32,60.60606061,,,,,,,,,,,,,,,,,,,,,,769.9232,770.121,770.121,770.6217,,,,,,,,,,,,,,1.1484,1,,,,,,,,,,,,,,z,,,,,,,,,,,,,,,,139,1,770.6222,771.7714,z,1,1.1484,,[],[],[],[],[],[],[],771.7715,773.7721,773.7721,775.2381,[],[],[],[],[],[],[],z,775.2382,775.2383,-0.041666667,-0.210185228,0,0,0,,0,138,138,3,1,2,RL,capefory,print,capefory_p.png,1.4656,,,,,
,,,,32364,001,2025-12-02_14h53.57.234,HW_LDT_1,2024.2.4,Win32,60.60606061,,,,,,,,,,,,,,,,,,,,,,775.2391,775.4383,775.4384,775.9381,,,,,,,,,,,,,,1.3324,1,,,,,,,,,,,,,,m,,,,,,,,,,,,,,,,140,0,775.9386,777.2717,m,1,1.3324,,[],[],[],[],[],[],[],777.2717,779.271,779.271,779.2712,[],[],[],[],[],[],[],,779.2712,779.2713,-0.041666667,-0.210185228,0,0,0,,0,139,139,84,1,2,word,BELOVED,cursive,beloved_c.png,,,,,,
,,,,32364,001,2025-12-02_14h53.57.234,HW_LDT_1,2024.2.4,Win32,60.60606061,,,,,,,,,,,,,,,,,,,,,,779.272,779.4709,779.471,779.9712,,,,,,,,,,,,,,1.132,1,,,,,,,,,,,,,,z,,,,,,,,,,,,,,,,141,0,779.9718,781.1046,z,1,1.132,,[],[],[],[],[],[],[],781.1047,783.1042,783.1043,783.1046,[],[],[],[],[],[],[],,783.1047,783.1048,-0.041666667,-0.210185228,0,0,0,,0,140,140,36,1,2,RL,vecelan,print,vecelan_p.png,,,,,,
,,,,32364,001,2025-12-02_14h53.57.234,HW_LDT_1,2024.2.4,Win32,60.60606061,,,,,,,,,,,,,,,,,,,,,,783.1059,783.3045,783.3045,783.804,,,,,,,,,,,,,,0.7495,1,,,,,,,,,,,,,,m,,,,,,,,,,,,,,,,142,0,783.8045,784.5549,m,1,0.7495,,[],[],[],[],[],[],[],784.555,786.5542,786.5542,786.5544,[],[],[],[],[],[],[],,786.5545,786.5546,-0.041666667,-0.210185228,0,0,0,,0,141,141,127,1,2,word,ORIGINAL,print,original_p.png,,,,,,
,,,,32364,001,2025-12-02_14h53.57.234,HW_LDT_1,2024.2.4,Win32,60.60606061,,,,,,,,,,,,,,,,,,,,,,786.5558,786.7546,786.7547,787.2533,,,,,,,,,,,,,,0.7996,1,,,,,,,,,,,,,,m,,,,,,,,,,,,,,,,143,0,787.2537,788.0539,m,1,0.7996,,[],[],[],[],[],[],[],788.054,790.0537,790.0537,790.0538,[],[],[],[],[],[],[],,790.0538,790.0539,-0.041666667,-0.210185228,0,0,0,,0,142,142,141,1,2,word,RELIGION,cursive,religion_c.png,,,,,,
,,,,32364,001,2025-12-02_14h53.57.234,HW_LDT_1,2024.2.4,Win32,60.60606061,,,,,,,,,,,,,,,,,,,,,,790.0545,790.2536,790.2536,790.7542,,,,,,,,,,,,,,0.7487,1,,,,,,,,,,,,,,m,,,,,,,,,,,,,,,,144,0,790.7549,791.5043,m,1,0.7487,,[],[],[],[],[],[],[],791.5043,793.4989,793.4989,793.4992,[],[],[],[],[],[],[],,793.4993,793.4995,-0.041666667,-0.210185228,0,0,0,,0,143,143,83,1,2,word,ANIMAL,print,animal_p.png,,,,,,
,,,,32364,001,2025-12-02_14h53.57.234,HW_LDT_1,2024.2.4,Win32,60.60606061,,,,,,,,,,,,,,,,,,,,,,793.5006,793.6998,793.6999,794.1996,,,,,,,,,,,,,,1.053,1,,,,,,,,,,,,,,z,,,,,,,,,,,,,,,,145,0,794.2004,795.254,z,1,1.053,,[],[],[],[],[],[],[],795.2542,797.2483,797.2485,797.2488,[],[],[],[],[],[],[],,797.2488,797.249,-0.041666667,-0.210185228,0,0,0,,0,144,144,70,1,2,TL,retalive,print,retalive_p.png,,,,,,
,,,,32364,001,2025-12-02_14h53.57.234,HW_LDT_1,2024.2.4,Win32,60.60606061,,,,,,,,,,,,,,,,,,,,,,797.2504,797.4539,797.454,797.9489,,,,,,,,,,,,,,2.8268,0,,,,,,,,,,,,,,z,,,,,,,,,,,,,,,,146,0,797.95,800.7816,m,0,2.8268,,[],[],[],[],[],[],[],800.7818,802.7825,802.7826,802.7828,[],[],[],[],[],[],[],,802.7829,802.7831,-0.041666667,-0.210185228,0,0,0,,0,145,145,66,1,2,TL,prodive,cursive,prodive_c.png,,,,,,
,,,,32364,001,2025-12-02_14h53.57.234,HW_LDT_1,2024.2.4,Win32,60.60606061,,,,,,,,,,,,,,,,,,,,,,802.7846,802.9823,802.9823,803.4819,,,,,,,,,,,,,,2.2378,1,,,,,,,,,,,,,,z,,,,,,,,,,,,,,,,147,0,803.4829,805.7317,z,1,2.2378,,[],[],[],[],[],[],[],805.7319,807.7314,807.7314,807.7316,[],[],[],[],[],[],[],,807.7316,807.7319,-0.041666667,-0.210185228,0,0,0,,0,146,146,56,1,2,TL,marnigal,cursive,marnigal_c.png,,,,,,
,,,,32364,001,2025-12-02_14h53.57.234,HW_LDT_1,2024.2.4,Win32,60.60606061,,,,,,,,,,,,,,,,,,,,,,807.7334,807.9313,807.9313,808.4321,,,,,,,,,,,,,,1.1732,1,,,,,,,,,,,,,,m,,,,,,,,,,,,,,,,148,0,808.4329,809.6154,m,1,1.1732,,[],[],[],[],[],[],[],809.6156,811.6151,811.6152,811.6156,[],[],[],[],[],[],[],,811.6157,811.6158,-0.041666667,-0.210185228,0,0,0,,0,147,147,108,1,2,word,FORTUNE,print,fortune_p.png,,,,,,
,,,,32364,001,2025-12-02_14h53.57.234,HW_LDT_1,2024.2.4,Win32,60.60606061,,,,,,,,,,,,,,,,,,,,,,811.6169,811.815,811.8151,812.3147,,,,,,,,,,,,,,0.6884,1,,,,,,,,,,,,,,m,,,,,,,,,,,,,,,,149,0,812.3156,813.0151,m,1,0.6884,,[],[],[],[],[],[],[],813.0152,815.0169,815.0169,815.0171,[],[],[],[],[],[],[],,815.0172,815.0172,-0.041666667,-0.210185228,0,0,0,,0,148,148,129,1,2,word,PARENT,print,parent_p.png,,,,,,
,,,,32364,001,2025-12-02_14h53.57.234,HW_LDT_1,2024.2.4,Win32,60.60606061,,,,,,,,,,,,,,,,,,,,,,815.0186,815.2155,815.2155,815.7156,,,,,,,,,,,,,,2.4769,1,,,,,,,,,,,,,,m,,,,,,,,,,,,,,,,150,0,815.7162,818.1977,m,1,2.4769,,[],[],[],[],[],[],[],818.1978,820.1984,820.1985,820.1988,[],[],[],[],[],[],[],,820.1988,820.1992,-0.041666667,-0.210185228,0,0,0,,0,149,149,109,1,2,word,GRATEFUL,cursive,grateful_c.png,,,,,,
,,,,32364,001,2025-12-02_14h53.57.234,HW_LDT_1,2024.2.4,Win32,60.60606061,,,,,,,,,,,,,,,,,,,,,,820.2005,820.3987,820.3988,820.8982,,,,,,,,,,,,,,1.0595,0,,,,,,,,,,,,,,z,,,,,,,,,,,,,,,,151,0,820.8992,821.9651,m,0,1.0595,,[],[],[],[],[],[],[],821.9654,823.9644,823.9645,823.965,[],[],[],[],[],[],[],,823.9651,823.9652,-0.041666667,-0.210185228,0,0,0,,0,150,150,37,1,2,TL,adacemy,cursive,adacemy_c.png,,,,,,
,,,,32364,001,2025-12-02_14h53.57.234,HW_LDT_1,2024.2.4,Win32,60.60606061,,,,,,,,,,,,,,,,,,,,,,823.9665,824.165,824.1651,824.6649,,,,,,,,,,,,,,1.022,1,,,,,,,,,,,,,,z,,,,,,,,,,,,,,,,152,0,824.6661,825.6981,z,1,1.022,,[],[],[],[],[],[],[],825.6982,827.7025,827.7025,827.7026,[],[],[],[],[],[],[],,827.7026,827.7028,-0.041666667,-0.210185228,0,0,0,,0,151,151,6,1,2,RL,conbicer,print,conbicer_p.png,,,,,,
,,,,32364,001,2025-12-02_14h53.57.234,HW_LDT_1,2024.2.4,Win32,60.60606061,,,,,,,,,,,,,,,,,,,,,,827.7038,827.8972,827.8973,828.3982,,,,,,,,,,,,,,0.6123,1,,,,,,,,,,,,,,m,,,,,,,,,,,,,,,,153,0,828.3989,829.0144,m,1,0.6123,,[],[],[],[],[],[],[],829.0145,831.02,831.02,831.0202,[],[],[],[],[],[],[],,831.0202,831.0203,-0.041666667,-0.210185228,0,0,0,,0,152,152,137,1,2,word,RAPIDLY,print,rapidly_p.png,,,,,,
,,,,32364,001,2025-12-02_14h53.57.234,HW_LDT_1,2024.2.4,Win32,60.60606061,,,,,,,,,,,,,,,,,,,,,,831.0215,831.2141,831.2141,831.7203,,,,,,,,,,,,,,1.2198,1,,,,,,,,,,,,,,m,,,,,,,,,,,,,,,,154,0,831.7209,832.9483,m,1,1.2198,,[],[],[],[],[],[],[],832.9487,834.9532,834.9533,834.9535,[],[],[],[],[],[],[],,834.9535,834.9535,-0.041666667,-0.210185228,0,0,0,,0,153,153,124,1,2,word,NUMERICAL,cursive,numerical_c.png,,,,,,
,,,,32364,001,2025-12-02_14h53.57.234,HW_LDT_1,2024.2.4,Win32,60.60606061,,,,,,,,,,,,,,,,,,,,,,834.9547,835.1479,835.148,835.6476,,,,,,,,,,,,,,1.0106,1,,,,,,,,,,,,,,z,,,,,,,,,,,,,,,,155,0,835.6483,836.664,z,1,1.0106,,[],[],[],[],[],[],[],836.6641,838.664,838.6641,838.6644,[],[],[],[],[],[],[],,838.6645,838.6646,-0.041666667,-0.210185228,0,0,0,,0,154,154,31,1,2,RL,spetisic,print,spetisic_p.png,,,,,,
,,,,32364,001,2025-12-02_14h53.57.234,HW_LDT_1,2024.2.4,Win32,60.60606061,,,,,,,,,,,,,,,,,,,,,,838.6658,838.8645,838.8646,839.3641,,,,,,,,,,,,,,3.1539,1,,,,,,,,,,,,,,m,,,,,,,,,,,,,,,,156,0,839.3652,842.52,m,1,3.1539,,[],[],[],[],[],[],[],842.5201,844.5147,844.5148,844.515,[],[],[],[],[],[],[],,844.5151,844.5153,-0.041666667,-0.210185228,0,0,0,,0,155,155,123,1,2,word,MODERATE,cursive,moderate_c.png,,,,,,
,,,,32364,001,2025-12-02_14h53.57.234,HW_LDT_1,2024.2.4,Win32,60.60606061,,,,,,,,,,,,,,,,,,,,,,844.5168,844.714,844.7141,845.2141,,,,,,,,,,,,,,0.8289,1,,,,,,,,,,,,,,z,,,,,,,,,,,,,,,,157,0,845.2151,846.0474,z,1,0.8289,,[],[],[],[],[],[],[],846.0476,848.0474,848.0474,848.0477,[],[],[],[],[],[],[],,848.0479,848.048,-0.041666667,-0.210185228,0,0,0,,0,156,156,1,1,2,RL,caleberia,print,caleberia_p.png,,,,,,
,,,,32364,001,2025-12-02_14h53.57.234,HW_LDT_1,2024.2.4,Win32,60.60606061,,,,,,,,,,,,,,,,,,,,,,848.049,848.2523,848.2523,848.7363,,,,,,,,,,,,,,0.8622,1,,,,,,,,,,,,,,z,,,,,,,,,,,,,,,,158,0,848.7367,849.5997,z,1,0.8622,,[],[],[],[],[],[],[],849.5998,851.597,851.5971,851.5975,[],[],[],[],[],[],[],,851.5975,851.5977,-0.041666667,-0.210185228,0,0,0,,0,157,157,48,1,2,TL,detabe,print,detabe_p.png,,,,,,
,,,,32364,001,2025-12-02_14h53.57.234,HW_LDT_1,2024.2.4,Win32,60.60606061,,,,,,,,,,,,,,,,,,,,,,851.5991,851.7974,851.7976,852.2969,,,,,,,,,,,,,,1.905,0,,,,,,,,,,,,,,m,,,,,,,,,,,,,,,,159,0,852.298,854.2137,z,0,1.905,,[],[],[],[],[],[],[],854.2137,856.2142,856.2144,856.2147,[],[],[],[],[],[],[],,856.2147,856.2149,-0.041666667,-0.210185228,0,0,0,,0,158,158,85,1,2,word,BENEFIT,cursive,benefit_c.png,,,,,,
,,,,32364,001,2025-12-02_14h53.57.234,HW_LDT_1,2024.2.4,Win32,60.60606061,,,,,,,,,,,,,,,,,,,,,,856.2159,856.4135,856.4139,856.9137,,,,,,,,,,,,,,1.8799,1,,,,,,,,,,,,,,z,,,,,,,,,,,,,,,,160,0,856.9148,858.7967,z,1,1.8799,,[],[],[],[],[],[],[],858.7969,860.7974,860.7976,860.798,[],[],[],[],[],[],[],,860.798,860.7982,-0.041666667,-0.210185228,0,0,0,,0,159,159,50,1,2,TL,donimant,print,donimant_p.png,,,,,,
,,,,32364,001,2025-12-02_14h53.57.234,HW_LDT_1,2024.2.4,Win32,60.60606061,,,,,,,,,,,,,,,,,,,,,,,,,,,,,,,,,,,,,,,,,,,,,,,,,,,,,,,,,,,,,,,,,,,,,,,,,,,,,,,,,,,,,,,,,,,,,,,,,,,,,,,,,,,,,,,,,,,,,,,860.812,865.7974
