counterbalance_lists.group,counterbalance_lists.remaining,get_list.started,get_list.stopped,participant,session,date,expName,psychopyVersion,OS,frameRate,Instructions.started,Instructions.stopped,key_resp.keys,key_resp.rt,key_resp.duration,instr_done_touch.x,instr_done_touch.y,instr_done_touch.leftButton,instr_done_touch.midButton,instr_done_touch.rightButton,start_instr.thisRepN,start_instr.thisTrialN,start_instr.thisN,start_instr.thisIndex,start_instr.ran,pageN,phase,instruct_text,has_image,instruct_image,showProgress.started,showProgress.stopped,fix.started,fix.stopped,prac.started,prac.stopped,response.keys,response.corr,response.rt,response.duration,touch_resp.x,touch_resp.y,touch_resp.leftButton,touch_resp.midButton,touch_resp.rightButton,touch_resp.time,touch_resp.clicked_name,rt,corr,feedback.started,feedback.stopped,trials.thisRepN,trials.thisTrialN,trials.thisN,trials.thisIndex,trials.ran,TrialID,StimulusType,Condition,PrimeDuration,Prime,Target,corrAns,Instructions_expt.started,Instructions_expt.stopped,key_resp_3.keys,key_resp_3.rt,key_resp_3.duration,instr_done_touch_3.x,instr_done_touch_3.y,instr_done_touch_3.leftButton,instr_done_touch_3.midButton,instr_done_touch_3.rightButton,instr_experiment.thisRepN,instr_experiment.thisTrialN,instr_experiment.thisN,instr_experiment.thisIndex,instr_experiment.ran,trialID,flag,maintask.started,maintask.stopped,key_resp_2.keys,key_resp_2.corr,key_resp_2.rt,key_resp_2.duration,targ_click.x,targ_click.y,targ_click.leftButton,targ_click.midButton,targ_click.rightButton,targ_click.time,targ_click.clicked_name,ITI.started,ITI.stopped,probe.started,probe.stopped,click_probe.x,click_probe.y,click_probe.leftButton,click_probe.midButton,click_probe.rightButton,click_probe.time,click_probe.clicked_name,key_resp_probe.keys,Break.started,Break.stopped,break_done_touch.x,break_done_touch.y,break_done_touch.leftButton,break_done_touch.midButton,break_done_touch.rightButton,break_done_keyboard.keys,list2_trials.thisRepN,list2_trials.thisTrialN,list2_trials.thisN,list2_trials.thisIndex,list2_trials.ran,list_id,item_type,string,font,stim_file,key_resp_probe.rt,key_resp_probe.duration,break_done_keyboard.rt,break_done_keyboard.duration,End.started,End.stopped
list2,,0.4287,0.4289,32363,001,2025-12-01_17h32.22.953,HW_LDT_1,2024.2.4,MacIntel,60.24096386,,,,,,,,,,,,,,,,,,,,,,,,,,,,,,,,,,,,,,,,,,,,,,,,,,,,,,,,,,,,,,,,,,,,,,,,,,,,,,,,,,,,,,,,,,,,,,,,,,,,,,,,,,,,,,,,,,,,,,,
,,,,32363,001,2025-12-01_17h32.22.953,HW_LDT_1,2024.2.4,MacIntel,60.24096386,0.4528,30.3115,space,29.7944,,-0.017145615,-0.393894196,0,0,0,0,0,0,0,1,1,instructions,"INSTRUCTIONS
At the start of each trial, look at the plus sign  (+) in the center of the screen.  This tells you that a trial is about to begin and where to look. Second, the plus sign will disappear and a string of letters will appear. Your task is to determine if the string of letters is a word or not. If the item is a word press the M key (on keyboard)  or touch the word button (phone/tablet).  If the item is not a word,  press the  Z key (on keyboard)  or touch the nonword button (on phone/tablet). The items will be presented for a short time. 
Press the space bar or touch  continue.",0,,,,,,,,,,,,,,,,,,,,,,,,,,,,,,,,,,,,,,,,,,,,,,,,,,,,,,,,,,,,,,,,,,,,,,,,,,,,,,,,,,,,,,,,,,,,,,,,,,,,
,,,,32363,001,2025-12-01_17h32.22.953,HW_LDT_1,2024.2.4,MacIntel,60.24096386,30.3139,33.1009,space,2.7537,,-0.017145615,-0.393894196,0,0,0,0,1,1,1,1,2,instructions,"If your device has a keyboard, press the 'Z' key for nonwords and the 'M' key for words.





Press the space bar or touch the button below to continue.",0,keyboard-example.gif,,,,,,,,,,,,,,,,,,,,,,,,,,,,,,,,,,,,,,,,,,,,,,,,,,,,,,,,,,,,,,,,,,,,,,,,,,,,,,,,,,,,,,,,,,,,,,,,,,,
,,,,32363,001,2025-12-01_17h32.22.953,HW_LDT_1,2024.2.4,MacIntel,60.24096386,33.104,35.7194,space,2.5756,,-0.017145615,-0.393894196,0,0,0,0,2,2,2,1,3,instructions,"If you are using a touchscreen only device, use the buttons on the screen. Do not use the mouse.





Press the space bar or touch the button below to continue.",0,touchscreen-example.gif,,,,,,,,,,,,,,,,,,,,,,,,,,,,,,,,,,,,,,,,,,,,,,,,,,,,,,,,,,,,,,,,,,,,,,,,,,,,,,,,,,,,,,,,,,,,,,,,,,,
,,,,32363,001,2025-12-01_17h32.22.953,HW_LDT_1,2024.2.4,MacIntel,60.24096386,35.7243,48.4809,space,12.7173,,-0.017145615,-0.393894196,0,0,0,0,3,3,3,1,4,instructions,"It is very important that you respond as quickly and accurately as possible, as each letter string will only be on the screen for two seconds. If you do not respond within this time, the message 'Too slow!' will be displayed and the experiment will progress to the next letter string. The first 20 trials will be practice trials and you will receive feedback on your answers. 

Press the space bar or touch the button below to start the practice trials.",0,,,,,,,,,,,,,,,,,,,,,,,,,,,,,,,,,,,,,,,,,,,,,,,,,,,,,,,,,,,,,,,,,,,,,,,,,,,,,,,,,,,,,,,,,,,,,,,,,,,,
,,,,32363,001,2025-12-01_17h32.22.953,HW_LDT_1,2024.2.4,MacIntel,60.24096386,,,,,,,,,,,,,,,,,,,,,48.5158,48.6729,48.6731,49.1752,49.1755,51.4601,m,1,2.2394,,[],[],[],[],[],[],[],2.2394,1,51.4607,51.9768,0,0,0,6,1,1007,WORD,UN,16,tropic,ZOMBIE,m,,,,,,,,,,,,,,,,,,,,,,,,,,,,,,,,,,,,,,,,,,,,,,,,,,,,,,,,,,,,,,,,,,
,,,,32363,001,2025-12-01_17h32.22.953,HW_LDT_1,2024.2.4,MacIntel,60.24096386,,,,,,,,,,,,,,,,,,,,,51.9779,52.157,52.157,52.6529,52.6543,54.4143,z,1,1.722,,[],[],[],[],[],[],[],1.722,1,54.4144,54.904,0,1,1,14,1,1015,NW,UN,16,miaber,THRALE,z,,,,,,,,,,,,,,,,,,,,,,,,,,,,,,,,,,,,,,,,,,,,,,,,,,,,,,,,,,,,,,,,,,
,,,,32363,001,2025-12-01_17h32.22.953,HW_LDT_1,2024.2.4,MacIntel,60.24096386,,,,,,,,,,,,,,,,,,,,,54.905,55.0908,55.0913,55.5895,55.5903,57.0755,z,1,1.4479,,[],[],[],[],[],[],[],1.4479,1,57.0756,57.5608,0,2,2,15,1,1016,NW,UN,16,mushed,WHAISE,z,,,,,,,,,,,,,,,,,,,,,,,,,,,,,,,,,,,,,,,,,,,,,,,,,,,,,,,,,,,,,,,,,,
,,,,32363,001,2025-12-01_17h32.22.953,HW_LDT_1,2024.2.4,MacIntel,60.24096386,,,,,,,,,,,,,,,,,,,,,57.5618,57.7421,57.7422,58.2431,58.2438,59.5611,m,1,1.2801,,[],[],[],[],[],[],[],1.2801,1,59.5615,60.0815,0,3,3,1,1,1002,WORD,"ID",33,adjust,ADJUST,m,,,,,,,,,,,,,,,,,,,,,,,,,,,,,,,,,,,,,,,,,,,,,,,,,,,,,,,,,,,,,,,,,,
,,,,32363,001,2025-12-01_17h32.22.953,HW_LDT_1,2024.2.4,MacIntel,60.24096386,,,,,,,,,,,,,,,,,,,,,60.0825,60.2634,60.2634,60.7574,60.7582,62.3081,m,1,1.5114,,[],[],[],[],[],[],[],1.5114,1,62.3086,62.7978,0,4,4,4,1,1005,WORD,UN,33,abound,SQUEAK,m,,,,,,,,,,,,,,,,,,,,,,,,,,,,,,,,,,,,,,,,,,,,,,,,,,,,,,,,,,,,,,,,,,
,,,,32363,001,2025-12-01_17h32.22.953,HW_LDT_1,2024.2.4,MacIntel,60.24096386,,,,,,,,,,,,,,,,,,,,,62.7988,63.0128,63.013,63.4775,63.478,64.7701,m,1,1.2575,,[],[],[],[],[],[],[],1.2575,1,64.7703,65.2589,0,5,5,0,1,1001,WORD,"ID",33,utopia,UTOPIA,m,,,,,,,,,,,,,,,,,,,,,,,,,,,,,,,,,,,,,,,,,,,,,,,,,,,,,,,,,,,,,,,,,,
,,,,32363,001,2025-12-01_17h32.22.953,HW_LDT_1,2024.2.4,MacIntel,60.24096386,,,,,,,,,,,,,,,,,,,,,65.2602,65.4414,65.4415,65.9416,65.9425,67.4689,z,1,1.4925,,[],[],[],[],[],[],[],1.4925,1,67.469,67.9591,0,6,6,9,1,1010,NW,"ID",33,fariny,FARINY,z,,,,,,,,,,,,,,,,,,,,,,,,,,,,,,,,,,,,,,,,,,,,,,,,,,,,,,,,,,,,,,,,,,
,,,,32363,001,2025-12-01_17h32.22.953,HW_LDT_1,2024.2.4,MacIntel,60.24096386,,,,,,,,,,,,,,,,,,,,,67.9603,68.1428,68.1428,68.6682,68.6689,69.6993,m,1,0.9924,,[],[],[],[],[],[],[],0.9924,1,69.6995,70.1909,0,7,7,3,1,1004,WORD,"ID",16,matrix,MATRIX,m,,,,,,,,,,,,,,,,,,,,,,,,,,,,,,,,,,,,,,,,,,,,,,,,,,,,,,,,,,,,,,,,,,
,,,,32363,001,2025-12-01_17h32.22.953,HW_LDT_1,2024.2.4,MacIntel,60.24096386,,,,,,,,,,,,,,,,,,,,,70.1921,70.3691,70.3691,70.8959,70.8966,71.962,m,1,1.0282,,[],[],[],[],[],[],[],1.0282,1,71.9621,72.4525,0,8,8,5,1,1006,WORD,UN,33,frenzy,OBTAIN,m,,,,,,,,,,,,,,,,,,,,,,,,,,,,,,,,,,,,,,,,,,,,,,,,,,,,,,,,,,,,,,,,,,
,,,,32363,001,2025-12-01_17h32.22.953,HW_LDT_1,2024.2.4,MacIntel,60.24096386,,,,,,,,,,,,,,,,,,,,,72.4536,72.6653,72.6654,73.1291,73.1297,74.8699,z,1,1.7027,,[],[],[],[],[],[],[],1.7027,1,74.87,75.3526,0,9,9,8,1,1009,NW,"ID",33,aslert,ASLERT,z,,,,,,,,,,,,,,,,,,,,,,,,,,,,,,,,,,,,,,,,,,,,,,,,,,,,,,,,,,,,,,,,,,
,,,,32363,001,2025-12-01_17h32.22.953,HW_LDT_1,2024.2.4,MacIntel,60.24096386,,,,,,,,,,,,,,,,,,,,,75.3535,75.5341,75.5342,76.0293,76.0298,77.1848,z,1,1.1172,,[],[],[],[],[],[],[],1.1172,1,77.1848,77.6711,0,10,10,12,1,1013,NW,UN,33,adveil,SPRINY,z,,,,,,,,,,,,,,,,,,,,,,,,,,,,,,,,,,,,,,,,,,,,,,,,,,,,,,,,,,,,,,,,,,
,,,,32363,001,2025-12-01_17h32.22.953,HW_LDT_1,2024.2.4,MacIntel,60.24096386,,,,,,,,,,,,,,,,,,,,,77.6722,77.8853,77.8854,78.35,78.3512,80.9359,m,0,2.5463,,[],[],[],[],[],[],[],2.5463,0,80.9366,81.4155,0,11,11,10,1,1011,NW,"ID",16,inlade,INLADE,z,,,,,,,,,,,,,,,,,,,,,,,,,,,,,,,,,,,,,,,,,,,,,,,,,,,,,,,,,,,,,,,,,,
,,,,32363,001,2025-12-01_17h32.22.953,HW_LDT_1,2024.2.4,MacIntel,60.24096386,,,,,,,,,,,,,,,,,,,,,81.4165,81.598,81.5982,82.1232,82.1239,83.4111,z,1,1.249,,[],[],[],[],[],[],[],1.249,1,83.4117,83.8933,0,12,12,13,1,1014,NW,UN,33,winfer,ROUPET,z,,,,,,,,,,,,,,,,,,,,,,,,,,,,,,,,,,,,,,,,,,,,,,,,,,,,,,,,,,,,,,,,,,
,,,,32363,001,2025-12-01_17h32.22.953,HW_LDT_1,2024.2.4,MacIntel,60.24096386,,,,,,,,,,,,,,,,,,,,,83.8943,84.0751,84.0751,84.5701,84.5707,85.47,z,1,0.8608,,[],[],[],[],[],[],[],0.8608,1,85.4702,85.9569,0,13,13,11,1,1012,NW,"ID",16,rashet,RASHET,z,,,,,,,,,,,,,,,,,,,,,,,,,,,,,,,,,,,,,,,,,,,,,,,,,,,,,,,,,,,,,,,,,,
,,,,32363,001,2025-12-01_17h32.22.953,HW_LDT_1,2024.2.4,MacIntel,60.24096386,,,,,,,,,,,,,,,,,,,,,85.958,86.1647,86.1647,86.6606,86.6614,87.374,m,1,0.6752,,[],[],[],[],[],[],[],0.6752,1,87.374,87.8571,0,14,14,2,1,1003,WORD,"ID",16,almond,ALMOND,m,,,,,,,,,,,,,,,,,,,,,,,,,,,,,,,,,,,,,,,,,,,,,,,,,,,,,,,,,,,,,,,,,,
,,,,32363,001,2025-12-01_17h32.22.953,HW_LDT_1,2024.2.4,MacIntel,60.24096386,,,,,,,,,,,,,,,,,,,,,87.8581,88.0373,88.0374,88.5348,88.5357,89.1769,m,1,0.6036,,[],[],[],[],[],[],[],0.6036,1,89.177,89.6662,0,15,15,7,1,1008,WORD,UN,16,hurdle,VOLUME,m,,,,,,,,,,,,,,,,,,,,,,,,,,,,,,,,,,,,,,,,,,,,,,,,,,,,,,,,,,,,,,,,,,
,,,,32363,001,2025-12-01_17h32.22.953,HW_LDT_1,2024.2.4,MacIntel,60.24096386,,,,,,,,,,,,,,,,1,end_of_practice,"You have completed the practice trials. During the experimental trials, you will not receive feedback. On some trials you will be asked to report whether the item you just saw was in cursive or print. 
Before you begin, please ensure that you are in a comfortable and quiet location and will not be disturbed for about 15 minutes, as we cannot use your data if you do not complete all the trials. 
 When you are ready to start the experimental trials, please press space or touch the button below.",,,,,,,,,,,,,,,,,,,,,,,,,,,,,,,,,,,,89.674,96.255,space,6.539,,-0.017145615,-0.393894196,0,0,0,0,0,0,0,1,,,,,,,,,,,,,,,,,,,,,,,,,,,,,,,,,,,,,,,,,,,,,,,,,,,
,,,,32363,001,2025-12-01_17h32.22.953,HW_LDT_1,2024.2.4,MacIntel,60.24096386,,,,,,,,,,,,,,,,,,,,,96.2703,96.4497,96.4497,96.9389,,,,,,,,,,,,,,1.5213,1,,,,,,,,,,,,,,m,,,,,,,,,,,,,,,,1,0,96.9403,98.466,m,1,1.5213,,[],[],[],[],[],[],[],98.4663,100.4457,100.4466,100.4518,[],[],[],[],[],[],[],,100.452,100.4544,-0.017145615,-0.393894196,0,0,0,,0,0,0,96,1,2,word,CONSIDER,print,consider_p.png,,,,,,
,,,,32363,001,2025-12-01_17h32.22.953,HW_LDT_1,2024.2.4,MacIntel,60.24096386,,,,,,,,,,,,,,,,,,,,,100.4555,100.6658,100.6658,101.1377,,,,,,,,,,,,,,2.749,1,,,,,,,,,,,,,,z,,,,,,,,,,,,,,,,2,1,101.1388,103.8897,z,1,2.749,,[],[],[],[],[],[],[],103.8898,105.8778,105.878,119.5527,[],[],[],[],[],[],[],z,119.5528,119.553,-0.017145615,-0.393894196,0,0,0,,0,1,1,46,1,2,TL,codemy,cursive,codemy_c.png,13.6732,,,,,
,,,,32363,001,2025-12-01_17h32.22.953,HW_LDT_1,2024.2.4,MacIntel,60.24096386,,,,,,,,,,,,,,,,,,,,,119.5549,119.7689,119.769,120.2311,,,,,,,,,,,,,,1.7627,1,,,,,,,,,,,,,,m,,,,,,,,,,,,,,,,3,0,120.2322,121.9957,m,1,1.7627,,[],[],[],[],[],[],[],121.9958,123.9965,123.9966,123.9968,[],[],[],[],[],[],[],,123.9968,123.9969,-0.017145615,-0.393894196,0,0,0,,0,2,2,137,1,2,word,RAPIDLY,print,rapidly_p.png,,,,,,
,,,,32363,001,2025-12-01_17h32.22.953,HW_LDT_1,2024.2.4,MacIntel,60.24096386,,,,,,,,,,,,,,,,,,,,,123.9982,124.1869,124.187,124.6814,,,,,,,,,,,,,,2.8891,1,,,,,,,,,,,,,,z,,,,,,,,,,,,,,,,4,0,124.6818,127.5727,z,1,2.8891,,[],[],[],[],[],[],[],127.5728,129.5895,129.5896,129.5897,[],[],[],[],[],[],[],,129.5898,129.5899,-0.017145615,-0.393894196,0,0,0,,0,3,3,38,1,2,TL,atameur,cursive,atameur_c.png,,,,,,
,,,,32363,001,2025-12-01_17h32.22.953,HW_LDT_1,2024.2.4,MacIntel,60.24096386,,,,,,,,,,,,,,,,,,,,,129.591,129.7716,129.7718,130.2669,,,,,,,,,,,,,,1.6981,1,,,,,,,,,,,,,,m,,,,,,,,,,,,,,,,5,1,130.2676,131.9674,m,1,1.6981,,[],[],[],[],[],[],[],131.9675,133.9543,133.9543,149.4396,[],[],[],[],[],[],[],z,149.4397,149.4399,-0.017145615,-0.393894196,0,0,0,,0,4,4,114,1,2,word,LOCATE,print,locate_p.png,15.484,,,,,
,,,,32363,001,2025-12-01_17h32.22.953,HW_LDT_1,2024.2.4,MacIntel,60.24096386,,,,,,,,,,,,,,,,,,,,,149.4413,149.6312,149.6312,150.13,,,,,,,,,,,,,,2.8656,0,,,,,,,,,,,,,,z,,,,,,,,,,,,,,,,6,1,150.1304,152.9968,m,0,2.8656,,[],[],[],[],[],[],[],152.9972,154.9845,154.9846,165.9941,[],[],[],[],[],[],[],z,165.9941,165.9942,-0.017145615,-0.393894196,0,0,0,,0,5,5,68,1,2,TL,quatily,cursive,quatily_c.png,11.0086,,,,,
,,,,32363,001,2025-12-01_17h32.22.953,HW_LDT_1,2024.2.4,MacIntel,60.24096386,,,,,,,,,,,,,,,,,,,,,165.9954,166.1868,166.1869,166.6842,,,,,,,,,,,,,,1.2537,1,,,,,,,,,,,,,,m,,,,,,,,,,,,,,,,7,0,166.6852,167.9396,m,1,1.2537,,[],[],[],[],[],[],[],167.9396,169.9242,169.9242,169.9244,[],[],[],[],[],[],[],,169.9244,169.9246,-0.017145615,-0.393894196,0,0,0,,0,6,6,147,1,2,word,ROMANTIC,print,romantic_p.png,,,,,,
,,,,32363,001,2025-12-01_17h32.22.953,HW_LDT_1,2024.2.4,MacIntel,60.24096386,,,,,,,,,,,,,,,,,,,,,169.9259,170.1383,170.1384,170.622,,,,,,,,,,,,,,1.9065,1,,,,,,,,,,,,,,z,,,,,,,,,,,,,,,,8,0,170.6224,172.5301,z,1,1.9065,,[],[],[],[],[],[],[],172.5301,174.5357,174.5357,174.5359,[],[],[],[],[],[],[],,174.5359,174.5361,-0.017145615,-0.393894196,0,0,0,,0,7,7,75,1,2,TL,ronamtic,print,ronamtic_p.png,,,,,,
,,,,32363,001,2025-12-01_17h32.22.953,HW_LDT_1,2024.2.4,MacIntel,60.24096386,,,,,,,,,,,,,,,,,,,,,174.5371,174.7178,174.7178,175.2156,,,,,,,,,,,,,,1.4178,1,,,,,,,,,,,,,,m,,,,,,,,,,,,,,,,9,0,175.2161,176.6356,m,1,1.4178,,[],[],[],[],[],[],[],176.6357,178.6253,178.6253,178.6255,[],[],[],[],[],[],[],,178.6255,178.6256,-0.017145615,-0.393894196,0,0,0,,0,8,8,93,1,2,word,CEREMONY,print,ceremony_p.png,,,,,,
,,,,32363,001,2025-12-01_17h32.22.953,HW_LDT_1,2024.2.4,MacIntel,60.24096386,,,,,,,,,,,,,,,,,,,,,178.6266,178.8075,178.8075,179.3045,,,,,,,,,,,,,,3.1573,1,,,,,,,,,,,,,,z,,,,,,,,,,,,,,,,10,0,179.305,182.4634,z,1,3.1573,,[],[],[],[],[],[],[],182.4634,184.4421,184.4422,184.4424,[],[],[],[],[],[],[],,184.4424,184.4426,-0.017145615,-0.393894196,0,0,0,,0,9,9,19,1,2,RL,monebate,cursive,monebate_c.png,,,,,,
,,,,32363,001,2025-12-01_17h32.22.953,HW_LDT_1,2024.2.4,MacIntel,60.24096386,,,,,,,,,,,,,,,,,,,,,184.4436,184.6601,184.6601,185.1257,,,,,,,,,,,,,,2.0552,0,,,,,,,,,,,,,,z,,,,,,,,,,,,,,,,11,0,185.1261,187.183,m,0,2.0552,,[],[],[],[],[],[],[],187.183,189.1668,189.1671,189.1673,[],[],[],[],[],[],[],,189.1674,189.1675,-0.017145615,-0.393894196,0,0,0,,0,10,10,72,1,2,TL,revomal,print,revomal_p.png,,,,,,
,,,,32363,001,2025-12-01_17h32.22.953,HW_LDT_1,2024.2.4,MacIntel,60.24096386,,,,,,,,,,,,,,,,,,,,,189.1685,189.3492,189.3492,189.853,,,,,,,,,,,,,,0.9578,1,,,,,,,,,,,,,,m,,,,,,,,,,,,,,,,12,0,189.8533,190.8121,m,1,0.9578,,[],[],[],[],[],[],[],190.8122,192.796,192.7961,192.7962,[],[],[],[],[],[],[],,192.7963,192.7965,-0.017145615,-0.393894196,0,0,0,,0,11,11,115,1,2,word,LOGICAL,print,logical_p.png,,,,,,
,,,,32363,001,2025-12-01_17h32.22.953,HW_LDT_1,2024.2.4,MacIntel,60.24096386,,,,,,,,,,,,,,,,,,,,,192.7971,193.0003,193.0003,193.4824,,,,,,,,,,,,,,3.9217,1,,,,,,,,,,,,,,m,,,,,,,,,,,,,,,,13,1,193.4827,197.4057,m,1,3.9217,,[],[],[],[],[],[],[],197.4057,199.3858,199.3859,207.6344,[],[],[],[],[],[],[],z,207.6345,207.6346,-0.017145615,-0.393894196,0,0,0,,0,12,12,116,1,2,word,MARGINAL,cursive,marginal_c.png,8.2472,,,,,
,,,,32363,001,2025-12-01_17h32.22.953,HW_LDT_1,2024.2.4,MacIntel,60.24096386,,,,,,,,,,,,,,,,,,,,,207.6356,207.8179,207.818,208.3161,,,,,,,,,,,,,,1.8991,1,,,,,,,,,,,,,,z,,,,,,,,,,,,,,,,14,0,208.3165,210.2171,z,1,1.8991,,[],[],[],[],[],[],[],210.2172,212.2045,212.2047,212.205,[],[],[],[],[],[],[],,212.205,212.2051,-0.017145615,-0.393894196,0,0,0,,0,13,13,60,1,2,TL,molibe,print,molibe_p.png,,,,,,
,,,,32363,001,2025-12-01_17h32.22.953,HW_LDT_1,2024.2.4,MacIntel,60.24096386,,,,,,,,,,,,,,,,,,,,,212.2061,212.3872,212.3872,212.8851,,,,,,,,,,,,,,4.3155,1,,,,,,,,,,,,,,z,,,,,,,,,,,,,,,,15,0,212.8856,217.2025,z,1,4.3155,,[],[],[],[],[],[],[],217.2026,219.1881,219.1881,219.1882,[],[],[],[],[],[],[],,219.1883,219.1883,-0.017145615,-0.393894196,0,0,0,,0,14,14,41,1,2,TL,befenit,cursive,befenit_c.png,,,,,,
,,,,32363,001,2025-12-01_17h32.22.953,HW_LDT_1,2024.2.4,MacIntel,60.24096386,,,,,,,,,,,,,,,,,,,,,219.19,219.3724,219.3725,219.8685,,,,,,,,,,,,,,1.4599,1,,,,,,,,,,,,,,m,,,,,,,,,,,,,,,,16,1,219.8689,221.3295,m,1,1.4599,,[],[],[],[],[],[],[],221.3295,223.321,223.3211,227.1626,[],[],[],[],[],[],[],z,227.1627,227.1627,-0.017145615,-0.393894196,0,0,0,,0,15,15,127,1,2,word,ORIGINAL,print,original_p.png,3.84,,,,,
,,,,32363,001,2025-12-01_17h32.22.953,HW_LDT_1,2024.2.4,MacIntel,60.24096386,,,,,,,,,,,,,,,,,,,,,227.1637,227.3783,227.3783,227.8397,,,,,,,,,,,,,,1.0172,1,,,,,,,,,,,,,,m,,,,,,,,,,,,,,,,17,0,227.84,228.8588,m,1,1.0172,,[],[],[],[],[],[],[],228.8589,230.8409,230.841,230.8411,[],[],[],[],[],[],[],,230.8411,230.8412,-0.017145615,-0.393894196,0,0,0,,0,16,16,100,1,2,word,DECADE,print,decade_p.png,,,,,,
,,,,32363,001,2025-12-01_17h32.22.953,HW_LDT_1,2024.2.4,MacIntel,60.24096386,,,,,,,,,,,,,,,,,,,,,230.8422,231.0222,231.0222,231.534,,,,,,,,,,,,,,2.5748,1,,,,,,,,,,,,,,z,,,,,,,,,,,,,,,,18,0,231.5349,234.1112,z,1,2.5748,,[],[],[],[],[],[],[],234.1113,236.0942,236.0944,236.0945,[],[],[],[],[],[],[],,236.0946,236.0947,-0.017145615,-0.393894196,0,0,0,,0,17,17,59,1,2,TL,miskate,cursive,miskate_c.png,,,,,,
,,,,32363,001,2025-12-01_17h32.22.953,HW_LDT_1,2024.2.4,MacIntel,60.24096386,,,,,,,,,,,,,,,,,,,,,236.0957,236.2766,236.2766,236.8,,,,,,,,,,,,,,4.2171,0,,,,,,,,,,,,,,z,,,,,,,,,,,,,,,,19,0,236.8004,241.0193,m,0,4.2171,,[],[],[],[],[],[],[],241.0193,243.013,243.0131,243.0133,[],[],[],[],[],[],[],,243.0134,243.0136,-0.017145615,-0.393894196,0,0,0,,0,18,18,62,1,2,TL,opmital,cursive,opmital_c.png,,,,,,
,,,,32363,001,2025-12-01_17h32.22.953,HW_LDT_1,2024.2.4,MacIntel,60.24096386,,,,,,,,,,,,,,,,,,,,,243.0145,243.1947,243.1948,243.7178,,,,,,,,,,,,,,3.1532,1,,,,,,,,,,,,,,z,,,,,,,,,,,,,,,,20,0,243.7182,246.8729,z,1,3.1532,,[],[],[],[],[],[],[],246.873,248.8596,248.8598,248.8601,[],[],[],[],[],[],[],,248.8601,248.8601,-0.017145615,-0.393894196,0,0,0,,0,19,19,9,1,2,RL,denficy,print,denficy_p.png,,,,,,
,,,,32363,001,2025-12-01_17h32.22.953,HW_LDT_1,2024.2.4,MacIntel,60.24096386,,,,,,,,,,,,,,,,,,,,,248.8612,249.038,249.0381,249.5714,,,,,,,,,,,,,,2.9988,1,,,,,,,,,,,,,,z,,,,,,,,,,,,,,,,21,0,249.5724,252.5727,z,1,2.9988,,[],[],[],[],[],[],[],252.5728,254.5574,254.5578,254.5583,[],[],[],[],[],[],[],,254.5583,254.5584,-0.017145615,-0.393894196,0,0,0,,0,20,20,44,1,2,TL,catipal,cursive,catipal_c.png,,,,,,
,,,,32363,001,2025-12-01_17h32.22.953,HW_LDT_1,2024.2.4,MacIntel,60.24096386,,,,,,,,,,,,,,,,,,,,,254.5595,254.7699,254.7699,255.264,,,,,,,,,,,,,,2.2504,1,,,,,,,,,,,,,,z,,,,,,,,,,,,,,,,22,0,255.2645,257.5166,z,1,2.2504,,[],[],[],[],[],[],[],257.5166,259.4928,259.4928,259.493,[],[],[],[],[],[],[],,259.493,259.4931,-0.017145615,-0.393894196,0,0,0,,0,21,21,70,1,2,TL,retalive,print,retalive_p.png,,,,,,
,,,,32363,001,2025-12-01_17h32.22.953,HW_LDT_1,2024.2.4,MacIntel,60.24096386,,,,,,,,,,,,,,,,,,,,,259.4937,259.6709,259.6709,260.1825,,,,,,,,,,,,,,2.521,0,,,,,,,,,,,,,,z,,,,,,,,,,,,,,,,23,0,260.1827,262.7056,m,0,2.521,,[],[],[],[],[],[],[],262.7056,264.6865,264.6866,264.6868,[],[],[],[],[],[],[],,264.6868,264.6869,-0.017145615,-0.393894196,0,0,0,,0,22,22,14,1,2,RL,insibate,cursive,insibate_c.png,,,,,,
,,,,32363,001,2025-12-01_17h32.22.953,HW_LDT_1,2024.2.4,MacIntel,60.24096386,,,,,,,,,,,,,,,,,,,,,264.688,264.869,264.8691,265.3618,,,,,,,,,,,,,,3.7141,0,,,,,,,,,,,,,,z,,,,,,,,,,,,,,,,24,0,265.3621,269.0776,m,0,3.7141,,[],[],[],[],[],[],[],269.0777,271.0929,271.093,271.0934,[],[],[],[],[],[],[],,271.0934,271.0936,-0.017145615,-0.393894196,0,0,0,,0,23,23,74,1,2,TL,rerite,cursive,rerite_c.png,,,,,,
,,,,32363,001,2025-12-01_17h32.22.953,HW_LDT_1,2024.2.4,MacIntel,60.24096386,,,,,,,,,,,,,,,,,,,,,271.0945,271.2761,271.2761,271.772,,,,,,,,,,,,,,1.0622,1,,,,,,,,,,,,,,m,,,,,,,,,,,,,,,,25,0,271.7726,272.8365,m,1,1.0622,,[],[],[],[],[],[],[],272.8365,274.8186,274.8187,274.8194,[],[],[],[],[],[],[],,274.8196,274.8196,-0.017145615,-0.393894196,0,0,0,,0,24,24,154,1,2,word,STORAGE,print,storage_p.png,,,,,,
,,,,32363,001,2025-12-01_17h32.22.953,HW_LDT_1,2024.2.4,MacIntel,60.24096386,,,,,,,,,,,,,,,,,,,,,274.8206,274.9991,274.9991,275.4972,,,,,,,,,,,,,,1.2529,1,,,,,,,,,,,,,,z,,,,,,,,,,,,,,,,26,0,275.4976,276.752,z,1,1.2529,,[],[],[],[],[],[],[],276.752,278.7448,278.7449,278.7456,[],[],[],[],[],[],[],,278.7456,278.7458,-0.017145615,-0.393894196,0,0,0,,0,25,25,39,1,2,TL,aminal,print,aminal_p.png,,,,,,
,,,,32363,001,2025-12-01_17h32.22.953,HW_LDT_1,2024.2.4,MacIntel,60.24096386,,,,,,,,,,,,,,,,,,,,,278.7467,278.9282,278.9282,279.4521,,,,,,,,,,,,,,1.566,1,,,,,,,,,,,,,,m,,,,,,,,,,,,,,,,27,0,279.4531,281.0202,m,1,1.566,,[],[],[],[],[],[],[],281.0202,282.9987,282.9987,282.9989,[],[],[],[],[],[],[],,282.9989,282.999,-0.017145615,-0.393894196,0,0,0,,0,26,26,136,1,2,word,RADICAL,cursive,radical_c.png,,,,,,
,,,,32363,001,2025-12-01_17h32.22.953,HW_LDT_1,2024.2.4,MacIntel,60.24096386,,,,,,,,,,,,,,,,,,,,,283.0001,283.1805,283.1806,283.6758,,,,,,,,,,,,,,3.8921,1,,,,,,,,,,,,,,z,,,,,,,,,,,,,,,,28,0,283.6769,287.5708,z,1,3.8921,,[],[],[],[],[],[],[],287.5709,289.5612,289.5612,289.5614,[],[],[],[],[],[],[],,289.5614,289.5615,-0.017145615,-0.393894196,0,0,0,,0,27,27,33,1,2,RL,strapely,cursive,strapely_c.png,,,,,,
,,,,32363,001,2025-12-01_17h32.22.953,HW_LDT_1,2024.2.4,MacIntel,60.24096386,,,,,,,,,,,,,,,,,,,,,289.5624,289.7525,289.7526,290.2498,,,,,,,,,,,,,,1.4349,1,,,,,,,,,,,,,,m,,,,,,,,,,,,,,,,29,0,290.2505,291.687,m,1,1.4349,,[],[],[],[],[],[],[],291.6871,293.6801,293.6805,293.6808,[],[],[],[],[],[],[],,293.6808,293.6809,-0.017145615,-0.393894196,0,0,0,,0,28,28,97,1,2,word,COVERAGE,cursive,coverage_c.png,,,,,,
,,,,32363,001,2025-12-01_17h32.22.953,HW_LDT_1,2024.2.4,MacIntel,60.24096386,,,,,,,,,,,,,,,,,,,,,293.6818,293.8706,293.8707,294.3633,,,,,,,,,,,,,,0.9349,1,,,,,,,,,,,,,,m,,,,,,,,,,,,,,,,30,0,294.3645,295.3008,m,1,0.9349,,[],[],[],[],[],[],[],295.3009,297.2889,297.2889,297.2891,[],[],[],[],[],[],[],,297.2892,297.2892,-0.017145615,-0.393894196,0,0,0,,0,29,29,130,1,2,word,POLICY,print,policy_p.png,,,,,,
,,,,32363,001,2025-12-01_17h32.22.953,HW_LDT_1,2024.2.4,MacIntel,60.24096386,,,,,,,,,,,,,,,,,,,,,297.2902,297.504,297.5041,297.9684,,,,,,,,,,,,,,3.2855,0,,,,,,,,,,,,,,z,,,,,,,,,,,,,,,,31,0,297.9688,301.2557,m,0,3.2855,,[],[],[],[],[],[],[],301.2558,303.2432,303.2433,303.2434,[],[],[],[],[],[],[],,303.2435,303.2436,-0.017145615,-0.393894196,0,0,0,,0,30,30,7,1,2,RL,cocewage,cursive,cocewage_c.png,,,,,,
,,,,32363,001,2025-12-01_17h32.22.953,HW_LDT_1,2024.2.4,MacIntel,60.24096386,,,,,,,,,,,,,,,,,,,,,303.2446,303.4238,303.424,303.9382,,,,,,,,,,,,,,3.1024,1,,,,,,,,,,,,,,z,,,,,,,,,,,,,,,,32,0,303.9389,307.043,z,1,3.1024,,[],[],[],[],[],[],[],307.0431,309.0574,309.0576,309.0578,[],[],[],[],[],[],[],,309.0579,309.058,-0.017145615,-0.393894196,0,0,0,,0,31,31,40,1,2,TL,bevoled,cursive,bevoled_c.png,,,,,,
,,,,32363,001,2025-12-01_17h32.22.953,HW_LDT_1,2024.2.4,MacIntel,60.24096386,,,,,,,,,,,,,,,,,,,,,309.0591,309.2402,309.2402,309.763,,,,,,,,,,,,,,1.1883,1,,,,,,,,,,,,,,m,,,,,,,,,,,,,,,,33,0,309.764,310.9537,m,1,1.1883,,[],[],[],[],[],[],[],310.9538,312.9652,312.9653,312.9654,[],[],[],[],[],[],[],,312.9654,312.9656,-0.017145615,-0.393894196,0,0,0,,0,32,32,157,1,2,word,VALIDITY,print,validity_p.png,,,,,,
,,,,32363,001,2025-12-01_17h32.22.953,HW_LDT_1,2024.2.4,MacIntel,60.24096386,,,,,,,,,,,,,,,,,,,,,312.967,313.1767,313.1767,313.6469,,,,,,,,,,,,,,1.9907,0,,,,,,,,,,,,,,z,,,,,,,,,,,,,,,,34,0,313.6473,315.6396,m,0,1.9907,,[],[],[],[],[],[],[],315.6397,317.6508,317.6508,317.6513,[],[],[],[],[],[],[],,317.6514,317.6514,-0.017145615,-0.393894196,0,0,0,,0,33,33,61,1,2,TL,nuremical,cursive,nuremical_c.png,,,,,,
,,,,32363,001,2025-12-01_17h32.22.953,HW_LDT_1,2024.2.4,MacIntel,60.24096386,,,,,,,,,,,,,,,,,,,,,317.6524,317.8325,317.8325,318.3297,,,,,,,,,,,,,,1.0235,1,,,,,,,,,,,,,,m,,,,,,,,,,,,,,,,35,0,318.3304,319.3554,m,1,1.0235,,[],[],[],[],[],[],[],319.3555,321.3428,321.3429,321.3431,[],[],[],[],[],[],[],,321.3431,321.3432,-0.017145615,-0.393894196,0,0,0,,0,34,34,87,1,2,word,CAFETERIA,print,cafeteria_p.png,,,,,,
,,,,32363,001,2025-12-01_17h32.22.953,HW_LDT_1,2024.2.4,MacIntel,60.24096386,,,,,,,,,,,,,,,,,,,,,321.3442,321.525,321.5251,322.0525,,,,,,,,,,,,,,1.2515,0,,,,,,,,,,,,,,z,,,,,,,,,,,,,,,,36,0,322.0535,323.3069,m,0,1.2515,,[],[],[],[],[],[],[],323.307,325.2955,325.2955,325.2957,[],[],[],[],[],[],[],,325.2957,325.2957,-0.017145615,-0.393894196,0,0,0,,0,35,35,64,1,2,TL,paficic,print,paficic_p.png,,,,,,
,,,,32363,001,2025-12-01_17h32.22.953,HW_LDT_1,2024.2.4,MacIntel,60.24096386,,,,,,,,,,,,,,,,,,,,,325.2968,325.4772,325.4772,326.0036,,,,,,,,,,,,,,1.989,1,,,,,,,,,,,,,,z,,,,,,,,,,,,,,,,37,1,326.0045,327.995,z,1,1.989,,[],[],[],[],[],[],[],327.9951,329.9737,329.9737,343.6159,[],[],[],[],[],[],[],z,343.616,343.616,-0.017145615,-0.393894196,0,0,0,,0,36,36,53,1,2,TL,edivent,cursive,edivent_c.png,13.6407,,,,,
,,,,32363,001,2025-12-01_17h32.22.953,HW_LDT_1,2024.2.4,MacIntel,60.24096386,,,,,,,,,,,,,,,,,,,,,343.6177,343.8073,343.8074,344.305,,,,,,,,,,,,,,1.2777,1,,,,,,,,,,,,,,z,,,,,,,,,,,,,,,,38,1,344.3056,345.5848,z,1,1.2777,,[],[],[],[],[],[],[],345.5849,347.5791,347.5795,349.4822,[],[],[],[],[],[],[],m,349.4823,349.4824,-0.017145615,-0.393894196,0,0,0,,0,37,37,1,1,2,RL,caleberia,print,caleberia_p.png,1.9014,,,,,
,,,,32363,001,2025-12-01_17h32.22.953,HW_LDT_1,2024.2.4,MacIntel,60.24096386,,,,,,,,,,,,,,,,,,,,,349.4834,349.6639,349.6641,350.1595,,,,,,,,,,,,,,1.4659,1,,,,,,,,,,,,,,m,,,,,,,,,,,,,,,,39,0,350.1599,351.6273,m,1,1.4659,,[],[],[],[],[],[],[],351.6274,353.6143,353.6144,353.6145,[],[],[],[],[],[],[],,353.6145,353.6146,-0.017145615,-0.393894196,0,0,0,,0,38,38,104,1,2,word,DOMINANT,print,dominant_p.png,,,,,,
,,,,32363,001,2025-12-01_17h32.22.953,HW_LDT_1,2024.2.4,MacIntel,60.24096386,,,,,,,,,,,,,,,,,,,,,353.6156,353.8251,353.8252,354.2922,,,,,,,,,,,,,,0.8293,1,,,,,,,,,,,,,,m,,,,,,,,,,,,,,,,40,0,354.2925,355.1233,m,1,0.8293,,[],[],[],[],[],[],[],355.1234,357.123,357.123,357.1232,[],[],[],[],[],[],[],,357.1232,357.1233,-0.017145615,-0.393894196,0,0,0,,0,39,39,88,1,2,word,CAMERA,print,camera_p.png,,,,,,
,,,,32363,001,2025-12-01_17h32.22.953,HW_LDT_1,2024.2.4,MacIntel,60.24096386,,,,,,,,,,,,,,,,,,,,,357.1243,357.3332,357.3332,357.8323,,,,,,,,,,,,,,1.9224,1,,,,,,,,,,,,,,m,,,,,,,,,,,,,,,,41,0,357.8329,359.7582,m,1,1.9224,,[],[],[],[],[],[],[],359.7583,361.7685,361.7685,361.7686,[],[],[],[],[],[],[],,361.7687,361.7687,-0.017145615,-0.393894196,0,0,0,,0,40,40,117,1,2,word,MARINE,cursive,marine_c.png,,,,,,
,,,,32363,001,2025-12-01_17h32.22.953,HW_LDT_1,2024.2.4,MacIntel,60.24096386,,,,,,,,,,,,,,,,,,,,,361.7697,361.949,361.9491,362.4446,,,,,,,,,,,,,,1.0601,1,,,,,,,,,,,,,,m,,,,,,,,,,,,,,,,42,0,362.4455,363.5061,m,1,1.0601,,[],[],[],[],[],[],[],363.5062,365.4918,365.4922,365.4926,[],[],[],[],[],[],[],,365.4926,365.4927,-0.017145615,-0.393894196,0,0,0,,0,41,41,148,1,2,word,SALINE,cursive,saline_c.png,,,,,,
,,,,32363,001,2025-12-01_17h32.22.953,HW_LDT_1,2024.2.4,MacIntel,60.24096386,,,,,,,,,,,,,,,,,,,,,365.4938,365.682,365.6821,366.178,,,,,,,,,,,,,,0.8865,1,,,,,,,,,,,,,,m,,,,,,,,,,,,,,,,43,1,366.1786,367.066,m,1,0.8865,,[],[],[],[],[],[],[],367.066,369.055,369.055,372.2747,[],[],[],[],[],[],[],m,372.2748,372.2755,-0.017145615,-0.393894196,0,0,0,,0,42,42,101,1,2,word,DELICATE,print,delicate_p.png,3.2192,,,,,
,,,,32363,001,2025-12-01_17h32.22.953,HW_LDT_1,2024.2.4,MacIntel,60.24096386,,,,,,,,,,,,,,,,,,,,,372.2764,372.4548,372.4549,372.9817,,,,,,,,,,,,,,2.2906,1,,,,,,,,,,,,,,z,,,,,,,,,,,,,,,,44,1,372.9822,375.2744,z,1,2.2906,,[],[],[],[],[],[],[],375.2744,377.2553,377.2557,380.563,[],[],[],[],[],[],[],z,380.563,380.5631,-0.017145615,-0.393894196,0,0,0,,0,43,43,17,1,2,RL,macise,cursive,macise_c.png,3.3062,,,,,
,,,,32363,001,2025-12-01_17h32.22.953,HW_LDT_1,2024.2.4,MacIntel,60.24096386,,,,,,,,,,,,,,,,,,,,,380.5647,380.7477,380.7477,381.2398,,,,,,,,,,,,,,0.8847,1,,,,,,,,,,,,,,m,,,,,,,,,,,,,,,,45,0,381.2402,382.1257,m,1,0.8847,,[],[],[],[],[],[],[],382.1258,384.1193,384.1194,384.1196,[],[],[],[],[],[],[],,384.1196,384.1197,-0.017145615,-0.393894196,0,0,0,,0,44,44,83,1,2,word,ANIMAL,print,animal_p.png,,,,,,
,,,,32363,001,2025-12-01_17h32.22.953,HW_LDT_1,2024.2.4,MacIntel,60.24096386,,,,,,,,,,,,,,,,,,,,,384.1208,384.3005,384.3005,384.7962,,,,,,,,,,,,,,3.0284,1,,,,,,,,,,,,,,z,,,,,,,,,,,,,,,,46,0,384.7968,387.826,z,1,3.0284,,[],[],[],[],[],[],[],387.8262,389.8075,389.8078,389.8083,[],[],[],[],[],[],[],,389.8083,389.8083,-0.017145615,-0.393894196,0,0,0,,0,45,45,27,1,2,RL,repifion,cursive,repifion_c.png,,,,,,
,,,,32363,001,2025-12-01_17h32.22.953,HW_LDT_1,2024.2.4,MacIntel,60.24096386,,,,,,,,,,,,,,,,,,,,,389.8094,389.9914,389.9918,390.4856,,,,,,,,,,,,,,3.3563,0,,,,,,,,,,,,,,m,,,,,,,,,,,,,,,,47,0,390.4859,393.8437,z,0,3.3563,,[],[],[],[],[],[],[],393.8438,395.8602,395.8603,395.8604,[],[],[],[],[],[],[],,395.8604,395.8605,-0.017145615,-0.393894196,0,0,0,,0,46,46,108,1,2,word,FORTUNE,print,fortune_p.png,,,,,,
,,,,32363,001,2025-12-01_17h32.22.953,HW_LDT_1,2024.2.4,MacIntel,60.24096386,,,,,,,,,,,,,,,,,,,,,395.8616,396.0415,396.0415,396.5367,,,,,,,,,,,,,,1.0377,1,,,,,,,,,,,,,,z,,,,,,,,,,,,,,,,48,0,396.537,397.5764,z,1,1.0377,,[],[],[],[],[],[],[],397.5764,399.5938,399.5938,399.5939,[],[],[],[],[],[],[],,399.594,399.5941,-0.017145615,-0.393894196,0,0,0,,0,47,47,35,1,2,RL,vesofity,print,vesofity_p.png,,,,,,
,,,,32363,001,2025-12-01_17h32.22.953,HW_LDT_1,2024.2.4,MacIntel,60.24096386,,,,,,,,,,,,,,,,,,,,,399.595,399.7753,399.7753,400.3004,,,,,,,,,,,,,,1.2757,1,,,,,,,,,,,,,,z,,,,,,,,,,,,,,,,49,0,400.3008,401.5777,z,1,1.2757,,[],[],[],[],[],[],[],401.5778,403.5652,403.5653,403.5653,[],[],[],[],[],[],[],,403.5654,403.5656,-0.017145615,-0.393894196,0,0,0,,0,48,48,71,1,2,TL,retome,cursive,retome_c.png,,,,,,
,,,,32363,001,2025-12-01_17h32.22.953,HW_LDT_1,2024.2.4,MacIntel,60.24096386,,,,,,,,,,,,,,,,,,,,,403.5666,403.751,403.7511,404.2447,,,,,,,,,,,,,,1.3453,1,,,,,,,,,,,,,,z,,,,,,,,,,,,,,,,50,1,404.2452,405.5921,z,1,1.3453,,[],[],[],[],[],[],[],405.5922,407.5762,407.5763,409.627,[],[],[],[],[],[],[],m,409.627,409.6272,-0.017145615,-0.393894196,0,0,0,,0,49,49,16,1,2,RL,losipal,print,losipal_p.png,2.0494,,,,,
,,,,32363,001,2025-12-01_17h32.22.953,HW_LDT_1,2024.2.4,MacIntel,60.24096386,,,,,,,,,,,,,,,,,,,,,409.6281,409.8099,409.8099,410.3345,,,,,,,,,,,,,,1.1084,1,,,,,,,,,,,,,,m,,,,,,,,,,,,,,,,51,0,410.3348,411.4448,m,1,1.1084,,[],[],[],[],[],[],[],411.4448,413.4507,413.4507,413.4508,[],[],[],[],[],[],[],,413.4508,413.4509,-0.017145615,-0.393894196,0,0,0,,0,50,50,149,1,2,word,SENATOR,print,senator_p.png,,,,,,
,,,,32363,001,2025-12-01_17h32.22.953,HW_LDT_1,2024.2.4,MacIntel,60.24096386,,,,,,,,,,,,,,,,,,,,,413.4519,413.6325,413.6325,414.128,,,,,,,,,,,,,,1.025,1,,,,,,,,,,,,,,z,,,,,,,,,,,,,,,,52,0,414.1289,415.1553,z,1,1.025,,[],[],[],[],[],[],[],415.1553,417.1343,417.1343,417.1345,[],[],[],[],[],[],[],,417.1346,417.1353,-0.017145615,-0.393894196,0,0,0,,0,51,51,12,1,2,RL,gralekul,cursive,gralekul_c.png,,,,,,
,,,,32363,001,2025-12-01_17h32.22.953,HW_LDT_1,2024.2.4,MacIntel,60.24096386,,,,,,,,,,,,,,,,,,,,,417.1363,417.3504,417.3505,417.8132,,,,,,,,,,,,,,0.8666,1,,,,,,,,,,,,,,z,,,,,,,,,,,,,,,,53,0,417.8136,418.6808,z,1,0.8666,,[],[],[],[],[],[],[],418.6808,420.6646,420.6646,420.6654,[],[],[],[],[],[],[],,420.6654,420.6656,-0.017145615,-0.393894196,0,0,0,,0,52,52,76,1,2,TL,senmitent,cursive,senmitent_c.png,,,,,,
,,,,32363,001,2025-12-01_17h32.22.953,HW_LDT_1,2024.2.4,MacIntel,60.24096386,,,,,,,,,,,,,,,,,,,,,420.6666,420.8467,420.8467,421.3395,,,,,,,,,,,,,,1.2165,1,,,,,,,,,,,,,,z,,,,,,,,,,,,,,,,54,0,421.3402,422.5573,z,1,1.2165,,[],[],[],[],[],[],[],422.5574,424.5405,424.5406,424.5407,[],[],[],[],[],[],[],,424.5408,424.5408,-0.017145615,-0.393894196,0,0,0,,0,53,53,22,1,2,RL,posity,print,posity_p.png,,,,,,
,,,,32363,001,2025-12-01_17h32.22.953,HW_LDT_1,2024.2.4,MacIntel,60.24096386,,,,,,,,,,,,,,,,,,,,,424.5418,424.7548,424.7548,425.2554,,,,,,,,,,,,,,3.3166,0,,,,,,,,,,,,,,m,,,,,,,,,,,,,,,,55,0,425.2557,428.5737,z,0,3.3166,,[],[],[],[],[],[],[],428.5739,430.5573,430.5574,430.5575,[],[],[],[],[],[],[],,430.5576,430.5577,-0.017145615,-0.393894196,0,0,0,,0,54,54,105,1,2,word,EDITOR,cursive,editor_c.png,,,,,,
,,,,32363,001,2025-12-01_17h32.22.953,HW_LDT_1,2024.2.4,MacIntel,60.24096386,,,,,,,,,,,,,,,,,,,,,430.5587,430.7724,430.7727,431.2383,,,,,,,,,,,,,,3.5413,0,,,,,,,,,,,,,,m,,,,,,,,,,,,,,,,56,0,431.2395,434.7823,z,0,3.5413,,[],[],[],[],[],[],[],434.7824,436.7614,436.7614,436.7616,[],[],[],[],[],[],[],,436.7616,436.7617,-0.017145615,-0.393894196,0,0,0,,0,55,55,138,1,2,word,REFUSAL,cursive,refusal_c.png,,,,,,
,,,,32363,001,2025-12-01_17h32.22.953,HW_LDT_1,2024.2.4,MacIntel,60.24096386,,,,,,,,,,,,,,,,,,,,,436.7627,436.9764,436.9764,437.4433,,,,,,,,,,,,,,1.2476,1,,,,,,,,,,,,,,z,,,,,,,,,,,,,,,,57,0,437.4437,438.6928,z,1,1.2476,,[],[],[],[],[],[],[],438.6929,440.7107,440.7107,440.7108,[],[],[],[],[],[],[],,440.7108,440.7109,-0.017145615,-0.393894196,0,0,0,,0,56,56,3,1,2,RL,capefory,print,capefory_p.png,,,,,,
,,,,32363,001,2025-12-01_17h32.22.953,HW_LDT_1,2024.2.4,MacIntel,60.24096386,,,,,,,,,,,,,,,,,,,,,440.7119,440.8917,440.8917,441.4154,,,,,,,,,,,,,,1.1552,1,,,,,,,,,,,,,,m,,,,,,,,,,,,,,,,58,0,441.4164,442.5731,m,1,1.1552,,[],[],[],[],[],[],[],442.5732,444.582,444.5821,444.5822,[],[],[],[],[],[],[],,444.5823,444.5824,-0.017145615,-0.393894196,0,0,0,,0,57,57,152,1,2,word,SPECIMEN,print,specimen_p.png,,,,,,
,,,,32363,001,2025-12-01_17h32.22.953,HW_LDT_1,2024.2.4,MacIntel,60.24096386,,,,,,,,,,,,,,,,,,,,,444.5834,444.796,444.7961,445.2608,,,,,,,,,,,,,,1.5339,1,,,,,,,,,,,,,,m,,,,,,,,,,,,,,,,59,0,445.2615,446.796,m,1,1.5339,,[],[],[],[],[],[],[],446.7961,448.7818,448.7818,448.7819,[],[],[],[],[],[],[],,448.782,448.782,-0.017145615,-0.393894196,0,0,0,,0,58,58,158,1,2,word,VELOCITY,print,velocity_p.png,,,,,,
,,,,32363,001,2025-12-01_17h32.22.953,HW_LDT_1,2024.2.4,MacIntel,60.24096386,,,,,,,,,,,,,,,,,,,,,448.7831,448.9628,448.9629,449.4863,,,,,,,,,,,,,,0.9217,1,,,,,,,,,,,,,,z,,,,,,,,,,,,,,,,60,0,449.4867,450.4098,z,1,0.9217,,[],[],[],[],[],[],[],450.4098,452.3951,452.3952,452.3953,[],[],[],[],[],[],[],,452.3954,452.3954,-0.017145615,-0.393894196,0,0,0,,0,59,59,32,1,2,RL,speniven,print,speniven_p.png,,,,,,
,,,,32363,001,2025-12-01_17h32.22.953,HW_LDT_1,2024.2.4,MacIntel,60.24096386,,,,,,,,,,,,,,,,,,,,,452.3963,452.576,452.5761,453.0769,,,,,,,,,,,,,,1.6773,1,,,,,,,,,,,,,,m,,,,,,,,,,,,,,,,61,0,453.0773,454.7561,m,1,1.6773,,[],[],[],[],[],[],[],454.7562,456.7529,456.753,456.753,[],[],[],[],[],[],[],,456.7531,456.7532,-0.017145615,-0.393894196,0,0,0,,0,60,60,141,1,2,word,RELIGION,cursive,religion_c.png,,,,,,
,,,,32363,001,2025-12-01_17h32.22.953,HW_LDT_1,2024.2.4,MacIntel,60.24096386,,,,,,,,,,,,,,,,,,,,,456.7541,456.9672,456.9672,457.429,,,,,,,,,,,,,,2.2517,1,,,,,,,,,,,,,,z,,,,,,,,,,,,,,,,62,0,457.4294,459.6826,z,1,2.2517,,[],[],[],[],[],[],[],459.6827,461.6719,461.6719,461.672,[],[],[],[],[],[],[],,461.6721,461.6722,-0.017145615,-0.393894196,0,0,0,,0,61,61,52,1,2,TL,elarobate,cursive,elarobate_c.png,,,,,,
,,,,32363,001,2025-12-01_17h32.22.953,HW_LDT_1,2024.2.4,MacIntel,60.24096386,,,,,,,,,,,,,,,,,,,,,461.6731,461.8529,461.8529,462.3516,,,,,,,,,,,,,,2.1544,1,,,,,,,,,,,,,,z,,,,,,,,,,,,,,,,63,0,462.352,464.5079,z,1,2.1544,,[],[],[],[],[],[],[],464.5079,466.5231,466.5231,466.5232,[],[],[],[],[],[],[],,466.5233,466.5233,-0.017145615,-0.393894196,0,0,0,,0,62,62,26,1,2,RL,retupar,cursive,retupar_c.png,,,,,,
,,,,32363,001,2025-12-01_17h32.22.953,HW_LDT_1,2024.2.4,MacIntel,60.24096386,,,,,,,,,,,,,,,,,,,,,466.5245,466.7068,466.7069,467.2047,,,,,,,,,,,,,,0.7347,0,,,,,,,,,,,,,,z,,,,,,,,,,,,,,,,64,0,467.2052,467.9413,m,0,0.7347,,[],[],[],[],[],[],[],467.9414,469.9273,469.9273,469.9274,[],[],[],[],[],[],[],,469.9274,469.9275,-0.017145615,-0.393894196,0,0,0,,0,63,63,63,1,2,TL,orinigal,print,orinigal_p.png,,,,,,
,,,,32363,001,2025-12-01_17h32.22.953,HW_LDT_1,2024.2.4,MacIntel,60.24096386,,,,,,,,,,,,,,,,,,,,,469.9284,470.1212,470.1213,470.6208,,,,,,,,,,,,,,1.0403,1,,,,,,,,,,,,,,z,,,,,,,,,,,,,,,,65,0,470.6212,471.6631,z,1,1.0403,,[],[],[],[],[],[],[],471.6631,473.6389,473.639,473.6391,[],[],[],[],[],[],[],,473.6392,473.6392,-0.017145615,-0.393894196,0,0,0,,0,64,64,55,1,2,TL,lotace,print,lotace_p.png,,,,,,
,,,,32363,001,2025-12-01_17h32.22.953,HW_LDT_1,2024.2.4,MacIntel,60.24096386,,,,,,,,,,,,,,,,,,,,,473.6407,473.821,473.821,474.3455,,,,,,,,,,,,,,1.1194,1,,,,,,,,,,,,,,z,,,,,,,,,,,,,,,,66,0,474.3461,475.4668,z,1,1.1194,,[],[],[],[],[],[],[],475.4668,477.475,477.4751,477.4753,[],[],[],[],[],[],[],,477.4753,477.4753,-0.017145615,-0.393894196,0,0,0,,0,65,65,6,1,2,RL,conbicer,print,conbicer_p.png,,,,,,
,,,,32363,001,2025-12-01_17h32.22.953,HW_LDT_1,2024.2.4,MacIntel,60.24096386,,,,,,,,,,,,,,,,,,,,,477.4763,477.6578,477.6578,478.1906,,,,,,,,,,,,,,1.3796,1,,,,,,,,,,,,,,z,,,,,,,,,,,,,,,,67,0,478.191,479.5718,z,1,1.3796,,[],[],[],[],[],[],[],479.5718,481.5543,481.5544,481.5545,[],[],[],[],[],[],[],,481.5545,481.5546,-0.017145615,-0.393894196,0,0,0,,0,66,66,11,1,2,RL,formuke,print,formuke_p.png,,,,,,
,,,,32363,001,2025-12-01_17h32.22.953,HW_LDT_1,2024.2.4,MacIntel,60.24096386,,,,,,,,,,,,,,,,,,,,,481.5561,481.7372,481.7372,482.2659,,,,,,,,,,,,,,2.9014,0,,,,,,,,,,,,,,m,,,,,,,,,,,,,,,,68,0,482.2663,485.1692,z,0,2.9014,,[],[],[],[],[],[],[],485.1693,487.1535,487.1535,487.1536,[],[],[],[],[],[],[],,487.1537,487.1538,-0.017145615,-0.393894196,0,0,0,,0,67,67,90,1,2,word,CAPITAL,cursive,capital_c.png,,,,,,
,,,,32363,001,2025-12-01_17h32.22.953,HW_LDT_1,2024.2.4,MacIntel,60.24096386,,,,,,,,,,,,,,,,,,,,,487.1553,487.3325,487.3326,487.8582,,,,,,,,,,,,,,1.0253,1,,,,,,,,,,,,,,m,,,,,,,,,,,,,,,,69,1,487.8586,488.8855,m,1,1.0253,,[],[],[],[],[],[],[],488.8856,490.8639,490.8639,492.4382,[],[],[],[],[],[],[],z,492.4382,492.4383,-0.017145615,-0.393894196,0,0,0,,0,68,68,132,1,2,word,PROPOSAL,cursive,proposal_c.png,1.5735,,,,,
,,,,32363,001,2025-12-01_17h32.22.953,HW_LDT_1,2024.2.4,MacIntel,60.24096386,,,,,,,,,,,,,,,,,,,,,492.4391,492.6442,492.6443,493.1464,,,,,,,,,,,,,,1.1195,1,,,,,,,,,,,,,,z,,,,,,,,,,,,,,,,70,1,493.147,494.2678,z,1,1.1195,,[],[],[],[],[],[],[],494.268,496.2852,496.2855,498.0815,[],[],[],[],[],[],[],m,498.0816,498.0816,-0.017145615,-0.393894196,0,0,0,,0,69,69,25,1,2,RL,rabigly,print,rabigly_p.png,1.7942,,,,,
,,,,32363,001,2025-12-01_17h32.22.953,HW_LDT_1,2024.2.4,MacIntel,60.24096386,,,,,,,,,,,,,,,,,,,,,498.0826,498.2656,498.2657,498.7629,,,,,,,,,,,,,,1.1537,1,,,,,,,,,,,,,,m,,,,,,,,,,,,,,,,71,0,498.7638,499.919,m,1,1.1537,,[],[],[],[],[],[],[],499.919,501.9134,501.9135,501.9135,[],[],[],[],[],[],[],,501.9136,501.9136,-0.017145615,-0.393894196,0,0,0,,0,70,70,143,1,2,word,REMOVAL,print,removal_p.png,,,,,,
,,,,32363,001,2025-12-01_17h32.22.953,HW_LDT_1,2024.2.4,MacIntel,60.24096386,,,,,,,,,,,,,,,,,,,,,501.9147,502.1237,502.1238,502.5922,,,,,,,,,,,,,,1.308,1,,,,,,,,,,,,,,m,,,,,,,,,,,,,,,,72,0,502.5925,503.902,m,1,1.308,,[],[],[],[],[],[],[],503.9021,505.9014,505.9014,505.9018,[],[],[],[],[],[],[],,505.9019,505.902,-0.017145615,-0.393894196,0,0,0,,0,71,71,135,1,2,word,QUALITY,cursive,quality_c.png,,,,,,
,,,,32363,001,2025-12-01_17h32.22.953,HW_LDT_1,2024.2.4,MacIntel,60.24096386,,,,,,,,,,,,,,,,,,,,,505.9029,506.0848,506.0848,506.5835,,,,,,,,,,,,,,2.7152,0,,,,,,,,,,,,,,m,,,,,,,,,,,,,,,,73,0,506.5839,509.3007,z,0,2.7152,,[],[],[],[],[],[],[],509.3007,511.2921,511.2921,511.2923,[],[],[],[],[],[],[],,511.2923,511.2924,-0.017145615,-0.393894196,0,0,0,,0,72,72,106,1,2,word,ELABORATE,cursive,elaborate_c.png,,,,,,
,,,,32363,001,2025-12-01_17h32.22.953,HW_LDT_1,2024.2.4,MacIntel,60.24096386,,,,,,,,,,,,,,,,,,,,,511.2934,511.5028,511.5029,511.9682,,,,,,,,,,,,,,2.5645,1,,,,,,,,,,,,,,z,,,,,,,,,,,,,,,,74,0,511.9688,514.5341,z,1,2.5645,,[],[],[],[],[],[],[],514.5341,516.5202,516.5202,516.5203,[],[],[],[],[],[],[],,516.5204,516.5205,-0.017145615,-0.393894196,0,0,0,,0,73,73,79,1,2,TL,vadility,print,vadility_p.png,,,,,,
,,,,32363,001,2025-12-01_17h32.22.953,HW_LDT_1,2024.2.4,MacIntel,60.24096386,,,,,,,,,,,,,,,,,,,,,516.5214,516.7041,516.7041,517.2032,,,,,,,,,,,,,,1.3835,1,,,,,,,,,,,,,,m,,,,,,,,,,,,,,,,75,0,517.2037,518.5885,m,1,1.3835,,[],[],[],[],[],[],[],518.5885,520.5737,520.5739,520.5742,[],[],[],[],[],[],[],,520.5742,520.5743,-0.017145615,-0.393894196,0,0,0,,0,74,74,89,1,2,word,CAPACITY,print,capacity_p.png,,,,,,
,,,,32363,001,2025-12-01_17h32.22.953,HW_LDT_1,2024.2.4,MacIntel,60.24096386,,,,,,,,,,,,,,,,,,,,,520.5753,520.7567,520.7567,521.2803,,,,,,,,,,,,,,0.795,1,,,,,,,,,,,,,,m,,,,,,,,,,,,,,,,76,1,521.2807,522.077,m,1,0.795,,[],[],[],[],[],[],[],522.077,524.0598,524.0599,525.4328,[],[],[],[],[],[],[],m,525.4329,525.433,-0.017145615,-0.393894196,0,0,0,,0,75,75,129,1,2,word,PARENT,print,parent_p.png,1.3724,,,,,
,,,,32363,001,2025-12-01_17h32.22.953,HW_LDT_1,2024.2.4,MacIntel,60.24096386,,,,,,,,,,,,,,,,,,,,,525.434,525.614,525.6141,526.1386,,,,,,,,,,,,,,1.0228,1,,,,,,,,,,,,,,z,,,,,,,,,,,,,,,,77,0,526.1393,527.1637,z,1,1.0228,,[],[],[],[],[],[],[],527.1638,529.1429,529.1429,529.143,[],[],[],[],[],[],[],,529.143,529.1431,-0.017145615,-0.393894196,0,0,0,,0,76,76,4,1,2,RL,cenesony,print,cenesony_p.png,,,,,,
,,,,32363,001,2025-12-01_17h32.22.953,HW_LDT_1,2024.2.4,MacIntel,60.24096386,,,,,,,,,,,,,,,,,,,,,529.1447,529.3605,529.3606,529.8243,,,,,,,,,,,,,,3.0027,1,,,,,,,,,,,,,,m,,,,,,,,,,,,,,,,78,0,529.8247,532.8285,m,1,3.0027,,[],[],[],[],[],[],[],532.8285,534.81,534.8101,534.8102,[],[],[],[],[],[],[],,534.8103,534.8103,-0.017145615,-0.393894196,0,0,0,,0,77,77,119,1,2,word,MEMORY,cursive,memory_c.png,,,,,,
,,,,32363,001,2025-12-01_17h32.22.953,HW_LDT_1,2024.2.4,MacIntel,60.24096386,,,,,,,,,,,,,,,,,,,,,534.8113,534.9918,534.9919,535.5195,,,,,,,,,,,,,,1.2901,1,,,,,,,,,,,,,,m,,,,,,,,,,,,,,,,79,0,535.5204,536.8119,m,1,1.2901,,[],[],[],[],[],[],[],536.812,538.793,538.7933,538.7935,[],[],[],[],[],[],[],,538.7935,538.7936,-0.017145615,-0.393894196,0,0,0,,0,78,78,151,1,2,word,SPECIFIC,print,specific_p.png,,,,,,
,,,,32363,001,2025-12-01_17h32.22.953,HW_LDT_1,2024.2.4,MacIntel,60.24096386,,,,,,,,,,,,,,,,,,,,,538.7946,539.0043,539.0043,539.4716,,,,,,,,,,,,,,1.5954,1,,,,,,,,,,,,,,z,,,,,,,,,,,,,,,,80,0,539.4719,541.0688,z,1,1.5954,,[],[],[],[],[],[],[],541.0688,543.0536,543.0536,543.0539,[],[],[],[],[],[],[],,543.0539,548.0862,-0.017145615,-0.393894196,0,0,0,space,0,79,79,15,1,2,RL,linedal,print,linedal_p.png,,,4.9912,,,
,,,,32363,001,2025-12-01_17h32.22.953,HW_LDT_1,2024.2.4,MacIntel,60.24096386,,,,,,,,,,,,,,,,,,,,,548.0873,548.2682,548.2683,548.7656,,,,,,,,,,,,,,2.0234,1,,,,,,,,,,,,,,z,,,,,,,,,,,,,,,,81,0,548.766,550.791,z,1,2.0234,,[],[],[],[],[],[],[],550.7911,552.7694,552.7695,552.7702,[],[],[],[],[],[],[],,552.7703,552.7704,-0.017145615,-0.393894196,0,0,0,,0,80,80,54,1,2,TL,liretal,cursive,liretal_c.png,,,,,,
,,,,32363,001,2025-12-01_17h32.22.953,HW_LDT_1,2024.2.4,MacIntel,60.24096386,,,,,,,,,,,,,,,,,,,,,552.7713,552.9525,552.9526,553.4516,,,,,,,,,,,,,,2.8309,1,,,,,,,,,,,,,,m,,,,,,,,,,,,,,,,82,0,553.4526,556.2848,m,1,2.8309,,[],[],[],[],[],[],[],556.2849,558.2768,558.2768,558.277,[],[],[],[],[],[],[],,558.277,558.2771,-0.017145615,-0.393894196,0,0,0,,0,81,81,81,1,2,word,ADVISORY,print,advisory_p.png,,,,,,
,,,,32363,001,2025-12-01_17h32.22.953,HW_LDT_1,2024.2.4,MacIntel,60.24096386,,,,,,,,,,,,,,,,,,,,,558.278,558.4884,558.4884,558.9892,,,,,,,,,,,,,,1.1269,0,,,,,,,,,,,,,,m,,,,,,,,,,,,,,,,83,0,558.9898,560.1183,z,0,1.1269,,[],[],[],[],[],[],[],560.1183,562.1043,562.1043,562.1045,[],[],[],[],[],[],[],,562.1045,562.1047,-0.017145615,-0.393894196,0,0,0,,0,82,82,155,1,2,word,STRATEGY,cursive,strategy_c.png,,,,,,
,,,,32363,001,2025-12-01_17h32.22.953,HW_LDT_1,2024.2.4,MacIntel,60.24096386,,,,,,,,,,,,,,,,,,,,,562.1057,562.2864,562.2864,562.8146,,,,,,,,,,,,,,2.9846,1,,,,,,,,,,,,,,m,,,,,,,,,,,,,,,,84,0,562.8153,565.8013,m,1,2.9846,,[],[],[],[],[],[],[],565.8014,567.8159,567.8159,567.8161,[],[],[],[],[],[],[],,567.8162,567.8162,-0.017145615,-0.393894196,0,0,0,,0,83,83,111,1,2,word,INDICATE,cursive,indicate_c.png,,,,,,
,,,,32363,001,2025-12-01_17h32.22.953,HW_LDT_1,2024.2.4,MacIntel,60.24096386,,,,,,,,,,,,,,,,,,,,,567.8171,568.0264,568.0264,568.4922,,,,,,,,,,,,,,3.0246,1,,,,,,,,,,,,,,z,,,,,,,,,,,,,,,,85,0,568.4926,571.5184,z,1,3.0246,,[],[],[],[],[],[],[],571.5184,573.4987,573.4988,573.4993,[],[],[],[],[],[],[],,573.4993,573.4994,-0.017145615,-0.393894196,0,0,0,,0,84,84,65,1,2,TL,polupar,cursive,polupar_c.png,,,,,,
,,,,32363,001,2025-12-01_17h32.22.953,HW_LDT_1,2024.2.4,MacIntel,60.24096386,,,,,,,,,,,,,,,,,,,,,573.5004,573.6805,573.6805,574.1766,,,,,,,,,,,,,,1.6982,1,,,,,,,,,,,,,,m,,,,,,,,,,,,,,,,86,0,574.1776,575.8767,m,1,1.6982,,[],[],[],[],[],[],[],575.8768,577.8571,577.8572,577.8573,[],[],[],[],[],[],[],,577.8574,577.8574,-0.017145615,-0.393894196,0,0,0,,0,85,85,156,1,2,word,TRIBUTE,cursive,tribute_c.png,,,,,,
,,,,32363,001,2025-12-01_17h32.22.953,HW_LDT_1,2024.2.4,MacIntel,60.24096386,,,,,,,,,,,,,,,,,,,,,577.8584,578.0477,578.0478,578.5453,,,,,,,,,,,,,,1.5254,1,,,,,,,,,,,,,,m,,,,,,,,,,,,,,,,87,0,578.5457,580.0725,m,1,1.5254,,[],[],[],[],[],[],[],580.0726,582.0782,582.0782,582.0783,[],[],[],[],[],[],[],,582.0784,582.0784,-0.017145615,-0.393894196,0,0,0,,0,86,86,150,1,2,word,SENTIMENT,cursive,sentiment_c.png,,,,,,
,,,,32363,001,2025-12-01_17h32.22.953,HW_LDT_1,2024.2.4,MacIntel,60.24096386,,,,,,,,,,,,,,,,,,,,,582.079,582.2599,582.2599,582.7787,,,,,,,,,,,,,,1.4063,0,,,,,,,,,,,,,,z,,,,,,,,,,,,,,,,88,0,582.7791,584.1866,m,0,1.4063,,[],[],[],[],[],[],[],584.1866,586.1653,586.1653,586.1655,[],[],[],[],[],[],[],,586.1655,586.1656,-0.017145615,-0.393894196,0,0,0,,0,87,87,78,1,2,TL,stogare,print,stogare_p.png,,,,,,
,,,,32363,001,2025-12-01_17h32.22.953,HW_LDT_1,2024.2.4,MacIntel,60.24096386,,,,,,,,,,,,,,,,,,,,,586.1666,586.3454,586.3455,586.8707,,,,,,,,,,,,,,3.5076,1,,,,,,,,,,,,,,z,,,,,,,,,,,,,,,,89,0,586.8715,590.3808,z,1,3.5076,,[],[],[],[],[],[],[],590.3809,592.3814,592.3814,592.3816,[],[],[],[],[],[],[],,592.3816,592.3817,-0.017145615,-0.393894196,0,0,0,,0,88,88,42,1,2,TL,bedise,cursive,bedise_c.png,,,,,,
,,,,32363,001,2025-12-01_17h32.22.953,HW_LDT_1,2024.2.4,MacIntel,60.24096386,,,,,,,,,,,,,,,,,,,,,592.3826,592.5651,592.5651,593.0896,,,,,,,,,,,,,,2.6329,1,,,,,,,,,,,,,,z,,,,,,,,,,,,,,,,90,1,593.0898,595.7241,z,1,2.6329,,[],[],[],[],[],[],[],595.7242,597.709,597.7091,599.8042,[],[],[],[],[],[],[],z,599.8043,599.8044,-0.017145615,-0.393894196,0,0,0,,0,89,89,10,1,2,RL,disluge,cursive,disluge_c.png,2.0936,,,,,
,,,,32363,001,2025-12-01_17h32.22.953,HW_LDT_1,2024.2.4,MacIntel,60.24096386,,,,,,,,,,,,,,,,,,,,,599.8053,599.9879,599.9879,600.4863,,,,,,,,,,,,,,1.4428,1,,,,,,,,,,,,,,z,,,,,,,,,,,,,,,,91,0,600.4866,601.931,z,1,1.4428,,[],[],[],[],[],[],[],601.9311,603.9066,603.9066,603.9068,[],[],[],[],[],[],[],,603.9068,603.9069,-0.017145615,-0.393894196,0,0,0,,0,90,90,8,1,2,RL,desifate,print,desifate_p.png,,,,,,
,,,,32363,001,2025-12-01_17h32.22.953,HW_LDT_1,2024.2.4,MacIntel,60.24096386,,,,,,,,,,,,,,,,,,,,,603.9079,604.0903,604.0903,604.586,,,,,,,,,,,,,,1.4215,1,,,,,,,,,,,,,,z,,,,,,,,,,,,,,,,92,0,604.5864,606.0094,z,1,1.4215,,[],[],[],[],[],[],[],606.0095,607.9986,607.9986,607.9991,[],[],[],[],[],[],[],,607.9991,607.9992,-0.017145615,-0.393894196,0,0,0,,0,91,91,31,1,2,RL,spetisic,print,spetisic_p.png,,,,,,
,,,,32363,001,2025-12-01_17h32.22.953,HW_LDT_1,2024.2.4,MacIntel,60.24096386,,,,,,,,,,,,,,,,,,,,,608.0002,608.2122,608.2123,608.7057,,,,,,,,,,,,,,1.187,1,,,,,,,,,,,,,,m,,,,,,,,,,,,,,,,93,1,608.7062,609.8946,m,1,1.187,,[],[],[],[],[],[],[],609.8947,611.8791,611.8793,613.0885,[],[],[],[],[],[],[],m,613.0885,613.0887,-0.017145615,-0.393894196,0,0,0,,0,92,92,140,1,2,word,RELATIVE,print,relative_p.png,1.2081,,,,,
,,,,32363,001,2025-12-01_17h32.22.953,HW_LDT_1,2024.2.4,MacIntel,60.24096386,,,,,,,,,,,,,,,,,,,,,613.0902,613.2815,613.2816,613.7749,,,,,,,,,,,,,,4.0071,1,,,,,,,,,,,,,,z,,,,,,,,,,,,,,,,94,0,613.7753,617.7836,z,1,4.0071,,[],[],[],[],[],[],[],617.7837,619.7635,619.7636,619.7644,[],[],[],[],[],[],[],,619.7644,619.7645,-0.017145615,-0.393894196,0,0,0,,0,93,93,23,1,2,RL,procogal,cursive,procogal_c.png,,,,,,
,,,,32363,001,2025-12-01_17h32.22.953,HW_LDT_1,2024.2.4,MacIntel,60.24096386,,,,,,,,,,,,,,,,,,,,,619.7655,619.9816,619.9816,620.4428,,,,,,,,,,,,,,2.6922,0,,,,,,,,,,,,,,z,,,,,,,,,,,,,,,,95,0,620.4432,623.1366,m,0,2.6922,,[],[],[],[],[],[],[],623.1369,625.1205,625.1207,625.1208,[],[],[],[],[],[],[],,625.1208,625.1209,-0.017145615,-0.393894196,0,0,0,,0,94,94,45,1,2,TL,carnidal,cursive,carnidal_c.png,,,,,,
,,,,32363,001,2025-12-01_17h32.22.953,HW_LDT_1,2024.2.4,MacIntel,60.24096386,,,,,,,,,,,,,,,,,,,,,625.1219,625.3321,625.3321,625.8338,,,,,,,,,,,,,,1.4757,0,,,,,,,,,,,,,,m,,,,,,,,,,,,,,,,96,0,625.8342,627.3115,z,0,1.4757,,[],[],[],[],[],[],[],627.3116,629.3171,629.3171,629.3174,[],[],[],[],[],[],[],,629.3174,629.3174,-0.017145615,-0.393894196,0,0,0,,0,95,95,120,1,2,word,MILITARY,cursive,military_c.png,,,,,,
,,,,32363,001,2025-12-01_17h32.22.953,HW_LDT_1,2024.2.4,MacIntel,60.24096386,,,,,,,,,,,,,,,,,,,,,629.3184,629.4981,629.4982,630.0238,,,,,,,,,,,,,,3.0555,0,,,,,,,,,,,,,,m,,,,,,,,,,,,,,,,97,0,630.0242,633.0811,z,0,3.0555,,[],[],[],[],[],[],[],633.0812,635.0663,635.0663,635.0665,[],[],[],[],[],[],[],,635.0665,635.0666,-0.017145615,-0.393894196,0,0,0,,0,96,96,86,1,2,word,BESIDE,cursive,beside_c.png,,,,,,
,,,,32363,001,2025-12-01_17h32.22.953,HW_LDT_1,2024.2.4,MacIntel,60.24096386,,,,,,,,,,,,,,,,,,,,,635.0676,635.2479,635.248,635.7738,,,,,,,,,,,,,,1.8973,1,,,,,,,,,,,,,,z,,,,,,,,,,,,,,,,98,0,635.7742,637.673,z,1,1.8973,,[],[],[],[],[],[],[],637.6731,639.6586,639.6587,639.6588,[],[],[],[],[],[],[],,639.6588,639.6589,-0.017145615,-0.393894196,0,0,0,,0,97,97,43,1,2,TL,carema,print,carema_p.png,,,,,,
,,,,32363,001,2025-12-01_17h32.22.953,HW_LDT_1,2024.2.4,MacIntel,60.24096386,,,,,,,,,,,,,,,,,,,,,639.6599,639.8731,639.8731,640.3387,,,,,,,,,,,,,,0.9939,0,,,,,,,,,,,,,,m,,,,,,,,,,,,,,,,99,0,640.3394,641.334,z,0,0.9939,,[],[],[],[],[],[],[],641.3342,643.335,643.335,643.3352,[],[],[],[],[],[],[],,643.3352,643.3353,-0.017145615,-0.393894196,0,0,0,,0,98,98,145,1,2,word,RESUME,cursive,resume_c.png,,,,,,
,,,,32363,001,2025-12-01_17h32.22.953,HW_LDT_1,2024.2.4,MacIntel,60.24096386,,,,,,,,,,,,,,,,,,,,,643.3362,643.5456,643.5457,644.0107,,,,,,,,,,,,,,0.8303,1,,,,,,,,,,,,,,z,,,,,,,,,,,,,,,,100,1,644.0112,644.843,z,1,0.8303,,[],[],[],[],[],[],[],644.843,646.8241,646.8241,649.5005,[],[],[],[],[],[],[],z,649.5005,649.5006,-0.017145615,-0.393894196,0,0,0,,0,99,99,13,1,2,RL,helicage,print,helicage_p.png,2.6752,,,,,
,,,,32363,001,2025-12-01_17h32.22.953,HW_LDT_1,2024.2.4,MacIntel,60.24096386,,,,,,,,,,,,,,,,,,,,,649.5015,649.6935,649.6935,650.1874,,,,,,,,,,,,,,1.6731,1,,,,,,,,,,,,,,m,,,,,,,,,,,,,,,,101,0,650.1878,651.8624,m,1,1.6731,,[],[],[],[],[],[],[],651.8625,653.8641,653.8641,653.8643,[],[],[],[],[],[],[],,653.8643,653.8644,-0.017145615,-0.393894196,0,0,0,,0,100,100,102,1,2,word,DENSITY,print,density_p.png,,,,,,
,,,,32363,001,2025-12-01_17h32.22.953,HW_LDT_1,2024.2.4,MacIntel,60.24096386,,,,,,,,,,,,,,,,,,,,,653.8653,654.0784,654.0785,654.5413,,,,,,,,,,,,,,2.1233,0,,,,,,,,,,,,,,z,,,,,,,,,,,,,,,,102,1,654.5416,656.6664,m,0,2.1233,,[],[],[],[],[],[],[],656.6665,658.6451,658.6451,659.9911,[],[],[],[],[],[],[],z,659.9911,659.9912,-0.017145615,-0.393894196,0,0,0,,0,101,101,67,1,2,TL,quafily,cursive,quafily_c.png,1.3445,,,,,
,,,,32363,001,2025-12-01_17h32.22.953,HW_LDT_1,2024.2.4,MacIntel,60.24096386,,,,,,,,,,,,,,,,,,,,,659.9939,660.1797,660.1797,660.6809,,,,,,,,,,,,,,2.421,1,,,,,,,,,,,,,,z,,,,,,,,,,,,,,,,103,0,660.6813,663.1038,z,1,2.421,,[],[],[],[],[],[],[],663.1038,665.1182,665.1182,665.1183,[],[],[],[],[],[],[],,665.1184,665.1185,-0.017145615,-0.393894196,0,0,0,,0,102,102,5,1,2,RL,clisimal,cursive,clisimal_c.png,,,,,,
,,,,32363,001,2025-12-01_17h32.22.953,HW_LDT_1,2024.2.4,MacIntel,60.24096386,,,,,,,,,,,,,,,,,,,,,665.1194,665.333,665.3332,665.798,,,,,,,,,,,,,,1.2229,1,,,,,,,,,,,,,,z,,,,,,,,,,,,,,,,104,0,665.7985,667.022,z,1,1.2229,,[],[],[],[],[],[],[],667.022,669.0131,669.0133,669.0134,[],[],[],[],[],[],[],,669.0134,669.0135,-0.017145615,-0.393894196,0,0,0,,0,103,103,48,1,2,TL,detabe,print,detabe_p.png,,,,,,
,,,,32363,001,2025-12-01_17h32.22.953,HW_LDT_1,2024.2.4,MacIntel,60.24096386,,,,,,,,,,,,,,,,,,,,,669.0144,669.1947,669.1948,669.6929,,,,,,,,,,,,,,1.6142,1,,,,,,,,,,,,,,m,,,,,,,,,,,,,,,,105,0,669.6935,671.3095,m,1,1.6142,,[],[],[],[],[],[],[],671.3095,673.2891,673.2891,673.2893,[],[],[],[],[],[],[],,673.2893,673.2894,-0.017145615,-0.393894196,0,0,0,,0,104,104,139,1,2,word,REGULAR,cursive,regular_c.png,,,,,,
,,,,32363,001,2025-12-01_17h32.22.953,HW_LDT_1,2024.2.4,MacIntel,60.24096386,,,,,,,,,,,,,,,,,,,,,673.2904,673.5011,673.5012,673.9672,,,,,,,,,,,,,,0.9907,1,,,,,,,,,,,,,,m,,,,,,,,,,,,,,,,106,0,673.9676,674.9597,m,1,0.9907,,[],[],[],[],[],[],[],674.9597,676.973,676.973,676.9732,[],[],[],[],[],[],[],,676.9733,676.9734,-0.017145615,-0.393894196,0,0,0,,0,105,105,99,1,2,word,DEBATE,print,debate_p.png,,,,,,
,,,,32363,001,2025-12-01_17h32.22.953,HW_LDT_1,2024.2.4,MacIntel,60.24096386,,,,,,,,,,,,,,,,,,,,,676.9743,677.1869,677.1869,677.65,,,,,,,,,,,,,,1.3172,0,,,,,,,,,,,,,,m,,,,,,,,,,,,,,,,107,0,677.6504,678.9691,z,0,1.3172,,[],[],[],[],[],[],[],678.9692,680.9593,680.9593,680.9595,[],[],[],[],[],[],[],,680.9595,680.9596,-0.017145615,-0.393894196,0,0,0,,0,106,106,121,1,2,word,MISTAKE,cursive,mistake_c.png,,,,,,
,,,,32363,001,2025-12-01_17h32.22.953,HW_LDT_1,2024.2.4,MacIntel,60.24096386,,,,,,,,,,,,,,,,,,,,,680.9605,681.1706,681.1707,681.6352,,,,,,,,,,,,,,2.5051,1,,,,,,,,,,,,,,z,,,,,,,,,,,,,,,,108,0,681.6359,684.1426,z,1,2.5051,,[],[],[],[],[],[],[],684.1426,686.1229,686.1229,686.123,[],[],[],[],[],[],[],,686.123,686.1231,-0.017145615,-0.393894196,0,0,0,,0,107,107,51,1,2,TL,etidor,cursive,etidor_c.png,,,,,,
,,,,32363,001,2025-12-01_17h32.22.953,HW_LDT_1,2024.2.4,MacIntel,60.24096386,,,,,,,,,,,,,,,,,,,,,686.124,686.3122,686.3122,686.8057,,,,,,,,,,,,,,2.0227,0,,,,,,,,,,,,,,m,,,,,,,,,,,,,,,,109,0,686.8067,688.831,z,0,2.0227,,[],[],[],[],[],[],[],688.831,690.8168,690.8168,690.817,[],[],[],[],[],[],[],,690.817,690.8171,-0.017145615,-0.393894196,0,0,0,,0,108,108,146,1,2,word,RETIRE,cursive,retire_c.png,,,,,,
,,,,32363,001,2025-12-01_17h32.22.953,HW_LDT_1,2024.2.4,MacIntel,60.24096386,,,,,,,,,,,,,,,,,,,,,690.8181,690.9946,690.9947,691.5227,,,,,,,,,,,,,,0.891,1,,,,,,,,,,,,,,m,,,,,,,,,,,,,,,,110,0,691.523,692.4155,m,1,0.891,,[],[],[],[],[],[],[],692.4156,694.4298,694.4299,694.43,[],[],[],[],[],[],[],,694.43,694.4301,-0.017145615,-0.393894196,0,0,0,,0,109,109,134,1,2,word,QUALIFY,cursive,qualify_c.png,,,,,,
,,,,32363,001,2025-12-01_17h32.22.953,HW_LDT_1,2024.2.4,MacIntel,60.24096386,,,,,,,,,,,,,,,,,,,,,694.4311,694.6112,694.6113,695.1074,,,,,,,,,,,,,,0.9303,1,,,,,,,,,,,,,,m,,,,,,,,,,,,,,,,111,0,695.1081,696.0397,m,1,0.9303,,[],[],[],[],[],[],[],696.0398,698.0234,698.0234,698.0236,[],[],[],[],[],[],[],,698.0236,698.0237,-0.017145615,-0.393894196,0,0,0,,0,110,110,144,1,2,word,RESIDENT,print,resident_p.png,,,,,,
,,,,32363,001,2025-12-01_17h32.22.953,HW_LDT_1,2024.2.4,MacIntel,60.24096386,,,,,,,,,,,,,,,,,,,,,698.0246,698.2338,698.2338,698.7302,,,,,,,,,,,,,,2.6093,1,,,,,,,,,,,,,,z,,,,,,,,,,,,,,,,112,0,698.7305,701.3412,z,1,2.6093,,[],[],[],[],[],[],[],701.3413,703.335,703.335,703.3351,[],[],[],[],[],[],[],,703.3351,703.3352,-0.017145615,-0.393894196,0,0,0,,0,111,111,34,1,2,RL,trilude,cursive,trilude_c.png,,,,,,
,,,,32363,001,2025-12-01_17h32.22.953,HW_LDT_1,2024.2.4,MacIntel,60.24096386,,,,,,,,,,,,,,,,,,,,,703.3362,703.5462,703.5462,704.0315,,,,,,,,,,,,,,6.6149,1,,,,,,,,,,,,,,z,,,,,,,,,,,,,,,,113,0,704.032,710.6484,z,1,6.6149,,[],[],[],[],[],[],[],710.6485,712.6242,712.6243,712.6246,[],[],[],[],[],[],[],,712.6246,712.6248,-0.017145615,-0.393894196,0,0,0,,0,112,112,28,1,2,RL,revune,cursive,revune_c.png,,,,,,
,,,,32363,001,2025-12-01_17h32.22.953,HW_LDT_1,2024.2.4,MacIntel,60.24096386,,,,,,,,,,,,,,,,,,,,,712.6257,712.8057,712.8059,713.3057,,,,,,,,,,,,,,3.0231,1,,,,,,,,,,,,,,m,,,,,,,,,,,,,,,,114,0,713.3063,716.3303,m,1,3.0231,,[],[],[],[],[],[],[],716.3307,718.3198,718.3198,718.3199,[],[],[],[],[],[],[],,718.3201,718.3201,-0.017145615,-0.393894196,0,0,0,,0,113,113,122,1,2,word,MOBILE,print,mobile_p.png,,,,,,
,,,,32363,001,2025-12-01_17h32.22.953,HW_LDT_1,2024.2.4,MacIntel,60.24096386,,,,,,,,,,,,,,,,,,,,,718.3211,718.5026,718.5026,719.0004,,,,,,,,,,,,,,1.3752,1,,,,,,,,,,,,,,m,,,,,,,,,,,,,,,,115,0,719.0009,720.3774,m,1,1.3752,,[],[],[],[],[],[],[],720.3776,722.393,722.3931,722.3931,[],[],[],[],[],[],[],,722.3931,722.3932,-0.017145615,-0.393894196,0,0,0,,0,114,114,107,1,2,word,EVIDENT,cursive,evident_c.png,,,,,,
,,,,32363,001,2025-12-01_17h32.22.953,HW_LDT_1,2024.2.4,MacIntel,60.24096386,,,,,,,,,,,,,,,,,,,,,722.3938,722.587,722.587,723.0848,,,,,,,,,,,,,,1.9359,1,,,,,,,,,,,,,,z,,,,,,,,,,,,,,,,116,1,723.0852,725.0226,z,1,1.9359,,[],[],[],[],[],[],[],725.0226,727.0093,727.0094,730.2694,[],[],[],[],[],[],[],z,730.2694,730.2695,-0.017145615,-0.393894196,0,0,0,,0,115,115,58,1,2,TL,mitilary,cursive,mitilary_c.png,3.2584,,,,,
,,,,32363,001,2025-12-01_17h32.22.953,HW_LDT_1,2024.2.4,MacIntel,60.24096386,,,,,,,,,,,,,,,,,,,,,730.2702,730.4795,730.4798,730.9439,,,,,,,,,,,,,,19.8164,1,,,,,,,,,,,,,,z,,,,,,,,,,,,,,,,117,0,730.9445,750.7621,z,1,19.8164,,[],[],[],[],[],[],[],750.7621,752.7508,752.7509,752.751,[],[],[],[],[],[],[],,752.7511,752.7511,-0.017145615,-0.393894196,0,0,0,,0,116,116,69,1,2,TL,resufal,cursive,resufal_c.png,,,,,,
,,,,32363,001,2025-12-01_17h32.22.953,HW_LDT_1,2024.2.4,MacIntel,60.24096386,,,,,,,,,,,,,,,,,,,,,752.7522,752.9338,752.9341,753.4279,,,,,,,,,,,,,,0.9011,0,,,,,,,,,,,,,,z,,,,,,,,,,,,,,,,118,0,753.4285,754.3306,m,0,0.9011,,[],[],[],[],[],[],[],754.3306,756.3191,756.3192,756.3194,[],[],[],[],[],[],[],,756.3194,756.3195,-0.017145615,-0.393894196,0,0,0,,0,117,117,50,1,2,TL,donimant,print,donimant_p.png,,,,,,
,,,,32363,001,2025-12-01_17h32.22.953,HW_LDT_1,2024.2.4,MacIntel,60.24096386,,,,,,,,,,,,,,,,,,,,,756.3204,756.5022,756.5023,756.9972,,,,,,,,,,,,,,1.0886,1,,,,,,,,,,,,,,z,,,,,,,,,,,,,,,,119,0,756.9978,758.0879,z,1,1.0886,,[],[],[],[],[],[],[],758.0879,760.0728,760.0728,760.0729,[],[],[],[],[],[],[],,760.0729,760.073,-0.017145615,-0.393894196,0,0,0,,0,118,118,66,1,2,TL,prodive,cursive,prodive_c.png,,,,,,
,,,,32363,001,2025-12-01_17h32.22.953,HW_LDT_1,2024.2.4,MacIntel,60.24096386,,,,,,,,,,,,,,,,,,,,,760.074,760.286,760.2861,760.7527,,,,,,,,,,,,,,0.8653,0,,,,,,,,,,,,,,m,,,,,,,,,,,,,,,,120,0,760.7534,761.6202,z,0,0.8653,,[],[],[],[],[],[],[],761.6202,763.6039,763.604,763.6041,[],[],[],[],[],[],[],,763.6042,763.6042,-0.017145615,-0.393894196,0,0,0,,0,119,119,109,1,2,word,GRATEFUL,cursive,grateful_c.png,,,,,,
,,,,32363,001,2025-12-01_17h32.22.953,HW_LDT_1,2024.2.4,MacIntel,60.24096386,,,,,,,,,,,,,,,,,,,,,763.6053,763.8214,763.8215,764.2862,,,,,,,,,,,,,,1.5406,1,,,,,,,,,,,,,,m,,,,,,,,,,,,,,,,121,0,764.287,765.8291,m,1,1.5406,,[],[],[],[],[],[],[],765.8292,767.8358,767.8359,767.8361,[],[],[],[],[],[],[],,767.8362,767.8362,-0.017145615,-0.393894196,0,0,0,,0,120,120,110,1,2,word,HERITAGE,print,heritage_p.png,,,,,,
,,,,32363,001,2025-12-01_17h32.22.953,HW_LDT_1,2024.2.4,MacIntel,60.24096386,,,,,,,,,,,,,,,,,,,,,767.8371,768.0169,768.017,768.5171,,,,,,,,,,,,,,1.8974,1,,,,,,,,,,,,,,m,,,,,,,,,,,,,,,,122,0,768.5177,770.4167,m,1,1.8974,,[],[],[],[],[],[],[],770.4167,772.4107,772.4107,772.4109,[],[],[],[],[],[],[],,772.411,772.4111,-0.017145615,-0.393894196,0,0,0,,0,121,121,95,1,2,word,COMEDY,cursive,comedy_c.png,,,,,,
,,,,32363,001,2025-12-01_17h32.22.953,HW_LDT_1,2024.2.4,MacIntel,60.24096386,,,,,,,,,,,,,,,,,,,,,772.412,772.621,772.621,773.1132,,,,,,,,,,,,,,1.5163,1,,,,,,,,,,,,,,m,,,,,,,,,,,,,,,,123,0,773.1137,774.6315,m,1,1.5163,,[],[],[],[],[],[],[],774.6315,776.6453,776.6456,776.6458,[],[],[],[],[],[],[],,776.6458,776.6459,-0.017145615,-0.393894196,0,0,0,,0,122,122,131,1,2,word,POPULAR,cursive,popular_c.png,,,,,,
,,,,32363,001,2025-12-01_17h32.22.953,HW_LDT_1,2024.2.4,MacIntel,60.24096386,,,,,,,,,,,,,,,,,,,,,776.6468,776.859,776.859,777.3264,,,,,,,,,,,,,,1.0587,1,,,,,,,,,,,,,,z,,,,,,,,,,,,,,,,124,1,777.3267,778.3863,z,1,1.0587,,[],[],[],[],[],[],[],778.3863,780.3746,780.3746,781.7789,[],[],[],[],[],[],[],z,781.7793,781.7797,-0.017145615,-0.393894196,0,0,0,,0,123,123,24,1,2,RL,rasibal,cursive,rasibal_c.png,1.4039,,,,,
,,,,32363,001,2025-12-01_17h32.22.953,HW_LDT_1,2024.2.4,MacIntel,60.24096386,,,,,,,,,,,,,,,,,,,,,781.7806,781.9933,781.9934,782.4932,,,,,,,,,,,,,,2.7988,1,,,,,,,,,,,,,,m,,,,,,,,,,,,,,,,125,0,782.4937,785.2939,m,1,2.7988,,[],[],[],[],[],[],[],785.2939,787.2817,787.2818,787.282,[],[],[],[],[],[],[],,787.282,787.2821,-0.017145615,-0.393894196,0,0,0,,0,124,124,91,1,2,word,CARDINAL,cursive,cardinal_c.png,,,,,,
,,,,32363,001,2025-12-01_17h32.22.953,HW_LDT_1,2024.2.4,MacIntel,60.24096386,,,,,,,,,,,,,,,,,,,,,787.2831,787.4945,787.4945,787.9599,,,,,,,,,,,,,,1.1899,0,,,,,,,,,,,,,,z,,,,,,,,,,,,,,,,126,0,787.9603,789.151,m,0,1.1899,,[],[],[],[],[],[],[],789.151,791.1296,791.1296,791.1298,[],[],[],[],[],[],[],,791.1298,791.1298,-0.017145615,-0.393894196,0,0,0,,0,125,125,37,1,2,TL,adacemy,cursive,adacemy_c.png,,,,,,
,,,,32363,001,2025-12-01_17h32.22.953,HW_LDT_1,2024.2.4,MacIntel,60.24096386,,,,,,,,,,,,,,,,,,,,,791.1308,791.3108,791.3108,791.8353,,,,,,,,,,,,,,1.1227,1,,,,,,,,,,,,,,m,,,,,,,,,,,,,,,,127,0,791.8357,792.9599,m,1,1.1227,,[],[],[],[],[],[],[],792.9599,794.9445,794.9445,794.9446,[],[],[],[],[],[],[],,794.9447,794.9448,-0.017145615,-0.393894196,0,0,0,,0,126,126,94,1,2,word,CLINICAL,cursive,clinical_c.png,,,,,,
,,,,32363,001,2025-12-01_17h32.22.953,HW_LDT_1,2024.2.4,MacIntel,60.24096386,,,,,,,,,,,,,,,,,,,,,794.9459,795.1239,795.1239,795.6486,,,,,,,,,,,,,,1.2149,1,,,,,,,,,,,,,,z,,,,,,,,,,,,,,,,128,1,795.6489,796.8653,z,1,1.2149,,[],[],[],[],[],[],[],796.8654,798.8471,798.8471,800.0815,[],[],[],[],[],[],[],z,800.0816,800.0817,-0.017145615,-0.393894196,0,0,0,,0,127,127,20,1,2,RL,onegator,cursive,onegator_c.png,1.2331,,,,,
,,,,32363,001,2025-12-01_17h32.22.953,HW_LDT_1,2024.2.4,MacIntel,60.24096386,,,,,,,,,,,,,,,,,,,,,800.0825,800.2652,800.2653,800.7638,,,,,,,,,,,,,,1.1534,0,,,,,,,,,,,,,,z,,,,,,,,,,,,,,,,129,0,800.7647,801.9194,m,0,1.1534,,[],[],[],[],[],[],[],801.9195,803.9011,803.9012,803.9015,[],[],[],[],[],[],[],,803.9016,803.9016,-0.017145615,-0.393894196,0,0,0,,0,128,128,57,1,2,TL,meromy,cursive,meromy_c.png,,,,,,
,,,,32363,001,2025-12-01_17h32.22.953,HW_LDT_1,2024.2.4,MacIntel,60.24096386,,,,,,,,,,,,,,,,,,,,,803.9026,804.0845,804.0845,804.6063,,,,,,,,,,,,,,0.8276,1,,,,,,,,,,,,,,m,,,,,,,,,,,,,,,,130,0,804.6067,805.4359,m,1,0.8276,,[],[],[],[],[],[],[],805.4359,807.4215,807.4218,807.4221,[],[],[],[],[],[],[],,807.4221,807.4221,-0.017145615,-0.393894196,0,0,0,,0,129,129,80,1,2,word,ACADEMY,cursive,academy_c.png,,,,,,
,,,,32363,001,2025-12-01_17h32.22.953,HW_LDT_1,2024.2.4,MacIntel,60.24096386,,,,,,,,,,,,,,,,,,,,,807.4231,807.6037,807.6038,808.1265,,,,,,,,,,,,,,1.3556,1,,,,,,,,,,,,,,m,,,,,,,,,,,,,,,,131,0,808.127,809.4841,m,1,1.3556,,[],[],[],[],[],[],[],809.4841,811.4695,811.4695,811.4696,[],[],[],[],[],[],[],,811.4697,811.4698,-0.017145615,-0.393894196,0,0,0,,0,130,130,133,1,2,word,PROVIDE,cursive,provide_c.png,,,,,,
,,,,32363,001,2025-12-01_17h32.22.953,HW_LDT_1,2024.2.4,MacIntel,60.24096386,,,,,,,,,,,,,,,,,,,,,811.4708,811.6505,811.6506,812.1507,,,,,,,,,,,,,,1.5397,0,,,,,,,,,,,,,,m,,,,,,,,,,,,,,,,132,0,812.1514,813.6925,z,0,1.5397,,[],[],[],[],[],[],[],813.6926,815.6753,815.6754,815.6756,[],[],[],[],[],[],[],,815.6757,815.6757,-0.017145615,-0.393894196,0,0,0,,0,131,131,113,1,2,word,LITERAL,cursive,literal_c.png,,,,,,
,,,,32363,001,2025-12-01_17h32.22.953,HW_LDT_1,2024.2.4,MacIntel,60.24096386,,,,,,,,,,,,,,,,,,,,,815.6767,815.8573,815.8573,816.3526,,,,,,,,,,,,,,1.258,1,,,,,,,,,,,,,,z,,,,,,,,,,,,,,,,133,1,816.353,817.6121,z,1,1.258,,[],[],[],[],[],[],[],817.6122,819.5894,819.5894,822.0669,[],[],[],[],[],[],[],m,822.0669,822.067,-0.017145615,-0.393894196,0,0,0,,0,132,132,49,1,2,TL,dedace,print,dedace_p.png,2.4762,,,,,
,,,,32363,001,2025-12-01_17h32.22.953,HW_LDT_1,2024.2.4,MacIntel,60.24096386,,,,,,,,,,,,,,,,,,,,,822.0686,822.2593,822.2593,822.7572,,,,,,,,,,,,,,1.8972,1,,,,,,,,,,,,,,z,,,,,,,,,,,,,,,,134,0,822.7577,824.6565,z,1,1.8972,,[],[],[],[],[],[],[],824.6566,826.6436,826.6437,826.6438,[],[],[],[],[],[],[],,826.6439,826.6439,-0.017145615,-0.393894196,0,0,0,,0,133,133,56,1,2,TL,marnigal,cursive,marnigal_c.png,,,,,,
,,,,32363,001,2025-12-01_17h32.22.953,HW_LDT_1,2024.2.4,MacIntel,60.24096386,,,,,,,,,,,,,,,,,,,,,826.6449,826.8248,826.8248,827.3492,,,,,,,,,,,,,,2.2484,0,,,,,,,,,,,,,,m,,,,,,,,,,,,,,,,135,0,827.3496,829.5995,z,0,2.2484,,[],[],[],[],[],[],[],829.5995,831.6119,831.6119,831.612,[],[],[],[],[],[],[],,831.612,831.612,-0.017145615,-0.393894196,0,0,0,,0,134,134,85,1,2,word,BENEFIT,cursive,benefit_c.png,,,,,,
,,,,32363,001,2025-12-01_17h32.22.953,HW_LDT_1,2024.2.4,MacIntel,60.24096386,,,,,,,,,,,,,,,,,,,,,831.6127,831.7919,831.7919,832.3169,,,,,,,,,,,,,,1.1445,1,,,,,,,,,,,,,,z,,,,,,,,,,,,,,,,136,0,832.3174,833.4633,z,1,1.1445,,[],[],[],[],[],[],[],833.4634,835.4583,835.4583,835.4584,[],[],[],[],[],[],[],,835.4585,835.4585,-0.017145615,-0.393894196,0,0,0,,0,135,135,36,1,2,RL,vecelan,print,vecelan_p.png,,,,,,
,,,,32363,001,2025-12-01_17h32.22.953,HW_LDT_1,2024.2.4,MacIntel,60.24096386,,,,,,,,,,,,,,,,,,,,,835.4594,835.6378,835.6378,836.1354,,,,,,,,,,,,,,1.0901,1,,,,,,,,,,,,,,z,,,,,,,,,,,,,,,,137,0,836.1358,837.2275,z,1,1.0901,,[],[],[],[],[],[],[],837.2276,839.2114,839.2114,839.2115,[],[],[],[],[],[],[],,839.2116,839.2116,-0.017145615,-0.393894196,0,0,0,,0,136,136,29,1,2,RL,samite,cursive,samite_c.png,,,,,,
,,,,32363,001,2025-12-01_17h32.22.953,HW_LDT_1,2024.2.4,MacIntel,60.24096386,,,,,,,,,,,,,,,,,,,,,839.2125,839.4224,839.4224,839.8881,,,,,,,,,,,,,,1.6981,0,,,,,,,,,,,,,,z,,,,,,,,,,,,,,,,138,0,839.8886,841.5881,m,0,1.6981,,[],[],[],[],[],[],[],841.5881,843.6052,843.6053,843.6055,[],[],[],[],[],[],[],,843.6056,843.6056,-0.017145615,-0.393894196,0,0,0,,0,137,137,47,1,2,TL,crinimal,cursive,crinimal_c.png,,,,,,
,,,,32363,001,2025-12-01_17h32.22.953,HW_LDT_1,2024.2.4,MacIntel,60.24096386,,,,,,,,,,,,,,,,,,,,,843.6067,843.819,843.819,844.2839,,,,,,,,,,,,,,3.1388,1,,,,,,,,,,,,,,m,,,,,,,,,,,,,,,,139,0,844.2843,847.4246,m,1,3.1388,,[],[],[],[],[],[],[],847.4246,849.4121,849.4121,849.4123,[],[],[],[],[],[],[],,849.4124,849.4124,-0.017145615,-0.393894196,0,0,0,,0,138,138,98,1,2,word,CRIMINAL,cursive,criminal_c.png,,,,,,
,,,,32363,001,2025-12-01_17h32.22.953,HW_LDT_1,2024.2.4,MacIntel,60.24096386,,,,,,,,,,,,,,,,,,,,,849.4133,849.591,849.5912,850.1204,,,,,,,,,,,,,,1.1223,1,,,,,,,,,,,,,,m,,,,,,,,,,,,,,,,140,0,850.1208,851.2446,m,1,1.1223,,[],[],[],[],[],[],[],851.2446,853.2336,853.2336,853.2338,[],[],[],[],[],[],[],,853.2339,853.2339,-0.017145615,-0.393894196,0,0,0,,0,139,139,118,1,2,word,MEDICINE,print,medicine_p.png,,,,,,
,,,,32363,001,2025-12-01_17h32.22.953,HW_LDT_1,2024.2.4,MacIntel,60.24096386,,,,,,,,,,,,,,,,,,,,,853.2348,853.4208,853.4208,853.9167,,,,,,,,,,,,,,0.7682,1,,,,,,,,,,,,,,m,,,,,,,,,,,,,,,,141,0,853.9179,854.6866,m,1,0.7682,,[],[],[],[],[],[],[],854.6867,856.6701,856.6701,856.6702,[],[],[],[],[],[],[],,856.6703,856.6703,-0.017145615,-0.393894196,0,0,0,,0,140,140,112,1,2,word,LIBERAL,print,liberal_p.png,,,,,,
,,,,32363,001,2025-12-01_17h32.22.953,HW_LDT_1,2024.2.4,MacIntel,60.24096386,,,,,,,,,,,,,,,,,,,,,856.6713,856.852,856.8521,857.3469,,,,,,,,,,,,,,1.9224,0,,,,,,,,,,,,,,m,,,,,,,,,,,,,,,,142,1,857.3472,859.271,z,0,1.9224,,[],[],[],[],[],[],[],859.2712,861.2728,861.2728,862.2277,[],[],[],[],[],[],[],z,862.2278,862.2279,-0.017145615,-0.393894196,0,0,0,,0,141,141,125,1,2,word,OPERATOR,cursive,operator_c.png,0.9534,,,,,
,,,,32363,001,2025-12-01_17h32.22.953,HW_LDT_1,2024.2.4,MacIntel,60.24096386,,,,,,,,,,,,,,,,,,,,,862.2288,862.4378,862.4378,862.9281,,,,,,,,,,,,,,1.0652,1,,,,,,,,,,,,,,m,,,,,,,,,,,,,,,,143,0,862.9284,863.995,m,1,1.0652,,[],[],[],[],[],[],[],863.9951,865.9729,865.973,865.9737,[],[],[],[],[],[],[],,865.9738,865.9739,-0.017145615,-0.393894196,0,0,0,,0,142,142,153,1,2,word,STOLEN,print,stolen_p.png,,,,,,
,,,,32363,001,2025-12-01_17h32.22.953,HW_LDT_1,2024.2.4,MacIntel,60.24096386,,,,,,,,,,,,,,,,,,,,,865.9749,866.1556,866.1557,866.6749,,,,,,,,,,,,,,0.9551,1,,,,,,,,,,,,,,m,,,,,,,,,,,,,,,,144,1,866.6752,867.6318,m,1,0.9551,,[],[],[],[],[],[],[],867.6318,869.611,869.611,870.6011,[],[],[],[],[],[],[],m,870.6012,870.6012,-0.017145615,-0.393894196,0,0,0,,0,143,143,128,1,2,word,PACIFIC,print,pacific_p.png,0.9888,,,,,
,,,,32363,001,2025-12-01_17h32.22.953,HW_LDT_1,2024.2.4,MacIntel,60.24096386,,,,,,,,,,,,,,,,,,,,,870.6022,870.7805,870.7805,871.278,,,,,,,,,,,,,,0.957,0,,,,,,,,,,,,,,m,,,,,,,,,,,,,,,,145,0,871.2786,872.237,z,0,0.957,,[],[],[],[],[],[],[],872.2371,874.2149,874.215,874.2151,[],[],[],[],[],[],[],,874.2152,874.2152,-0.017145615,-0.393894196,0,0,0,,0,144,144,142,1,2,word,REMOTE,cursive,remote_c.png,,,,,,
,,,,32363,001,2025-12-01_17h32.22.953,HW_LDT_1,2024.2.4,MacIntel,60.24096386,,,,,,,,,,,,,,,,,,,,,874.2162,874.3975,874.3975,874.8934,,,,,,,,,,,,,,1.3467,1,,,,,,,,,,,,,,m,,,,,,,,,,,,,,,,146,0,874.8938,876.2422,m,1,1.3467,,[],[],[],[],[],[],[],876.2422,878.2284,878.2284,878.2289,[],[],[],[],[],[],[],,878.2289,878.229,-0.017145615,-0.393894196,0,0,0,,0,145,145,124,1,2,word,NUMERICAL,cursive,numerical_c.png,,,,,,
,,,,32363,001,2025-12-01_17h32.22.953,HW_LDT_1,2024.2.4,MacIntel,60.24096386,,,,,,,,,,,,,,,,,,,,,878.2299,878.4101,878.4101,878.9349,,,,,,,,,,,,,,0.9911,1,,,,,,,,,,,,,,z,,,,,,,,,,,,,,,,147,0,878.9357,879.9274,z,1,0.9911,,[],[],[],[],[],[],[],879.9277,881.9284,881.9285,881.9287,[],[],[],[],[],[],[],,881.9287,881.9289,-0.017145615,-0.393894196,0,0,0,,0,146,146,21,1,2,RL,pamest,print,pamest_p.png,,,,,,
,,,,32363,001,2025-12-01_17h32.22.953,HW_LDT_1,2024.2.4,MacIntel,60.24096386,,,,,,,,,,,,,,,,,,,,,881.9299,882.1386,882.1386,882.6162,,,,,,,,,,,,,,3.1949,0,,,,,,,,,,,,,,m,,,,,,,,,,,,,,,,148,0,882.6166,885.8128,z,0,3.1949,,[],[],[],[],[],[],[],885.8128,887.7902,887.7903,887.7905,[],[],[],[],[],[],[],,887.7906,887.7906,-0.017145615,-0.393894196,0,0,0,,0,147,147,123,1,2,word,MODERATE,cursive,moderate_c.png,,,,,,
,,,,32363,001,2025-12-01_17h32.22.953,HW_LDT_1,2024.2.4,MacIntel,60.24096386,,,,,,,,,,,,,,,,,,,,,887.7915,888.002,888.002,888.4681,,,,,,,,,,,,,,1.0586,1,,,,,,,,,,,,,,m,,,,,,,,,,,,,,,,149,0,888.4685,889.5278,m,1,1.0586,,[],[],[],[],[],[],[],889.5278,891.503,891.503,891.5032,[],[],[],[],[],[],[],,891.5032,891.5035,-0.017145615,-0.393894196,0,0,0,,0,148,148,82,1,2,word,AMATEUR,cursive,amateur_c.png,,,,,,
,,,,32363,001,2025-12-01_17h32.22.953,HW_LDT_1,2024.2.4,MacIntel,60.24096386,,,,,,,,,,,,,,,,,,,,,891.506,891.7049,891.7049,892.1973,,,,,,,,,,,,,,0.8782,0,,,,,,,,,,,,,,z,,,,,,,,,,,,,,,,150,0,892.1978,893.0774,m,0,0.8782,,[],[],[],[],[],[],[],893.0774,895.0749,895.0751,895.0753,[],[],[],[],[],[],[],,895.0753,895.0755,-0.017145615,-0.393894196,0,0,0,,0,149,149,73,1,2,TL,redisent,print,redisent_p.png,,,,,,
,,,,32363,001,2025-12-01_17h32.22.953,HW_LDT_1,2024.2.4,MacIntel,60.24096386,,,,,,,,,,,,,,,,,,,,,895.0764,895.2872,895.2872,895.7557,,,,,,,,,,,,,,1.1263,1,,,,,,,,,,,,,,z,,,,,,,,,,,,,,,,151,1,895.7566,896.8846,z,1,1.1263,,[],[],[],[],[],[],[],896.8846,898.8689,898.8689,899.9517,[],[],[],[],[],[],[],m,899.9518,899.9519,-0.017145615,-0.393894196,0,0,0,,0,150,150,77,1,2,TL,sloten,print,sloten_p.png,1.0816,,,,,
,,,,32363,001,2025-12-01_17h32.22.953,HW_LDT_1,2024.2.4,MacIntel,60.24096386,,,,,,,,,,,,,,,,,,,,,899.954,900.1429,900.1429,900.6398,,,,,,,,,,,,,,1.0226,1,,,,,,,,,,,,,,z,,,,,,,,,,,,,,,,152,0,900.6403,901.6642,z,1,1.0226,,[],[],[],[],[],[],[],901.6642,903.6507,903.6509,903.6511,[],[],[],[],[],[],[],,903.6511,903.6511,-0.017145615,-0.393894196,0,0,0,,0,151,151,18,1,2,RL,mesibine,print,mesibine_p.png,,,,,,
,,,,32363,001,2025-12-01_17h32.22.953,HW_LDT_1,2024.2.4,MacIntel,60.24096386,,,,,,,,,,,,,,,,,,,,,903.6521,903.8624,903.8624,904.3273,,,,,,,,,,,,,,0.931,1,,,,,,,,,,,,,,m,,,,,,,,,,,,,,,,153,0,904.3277,905.2603,m,1,0.931,,[],[],[],[],[],[],[],905.2603,907.2417,907.2419,907.2421,[],[],[],[],[],[],[],,907.2421,907.2422,-0.017145615,-0.393894196,0,0,0,,0,152,152,159,1,2,word,VETERAN,print,veteran_p.png,,,,,,
,,,,32363,001,2025-12-01_17h32.22.953,HW_LDT_1,2024.2.4,MacIntel,60.24096386,,,,,,,,,,,,,,,,,,,,,907.2431,907.4249,907.4249,907.9479,,,,,,,,,,,,,,1.7073,0,,,,,,,,,,,,,,m,,,,,,,,,,,,,,,,154,0,907.9483,909.657,z,0,1.7073,,[],[],[],[],[],[],[],909.6571,911.6437,911.6437,911.6438,[],[],[],[],[],[],[],,911.6438,911.6439,-0.017145615,-0.393894196,0,0,0,,0,153,153,103,1,2,word,DISPUTE,cursive,dispute_c.png,,,,,,
,,,,32363,001,2025-12-01_17h32.22.953,HW_LDT_1,2024.2.4,MacIntel,60.24096386,,,,,,,,,,,,,,,,,,,,,911.6448,911.8267,911.8268,912.3236,,,,,,,,,,,,,,2.1157,1,,,,,,,,,,,,,,m,,,,,,,,,,,,,,,,155,0,912.324,914.4415,m,1,2.1157,,[],[],[],[],[],[],[],914.4416,916.4521,916.4521,916.4524,[],[],[],[],[],[],[],,916.4524,916.4524,-0.017145615,-0.393894196,0,0,0,,0,154,154,84,1,2,word,BELOVED,cursive,beloved_c.png,,,,,,
,,,,32363,001,2025-12-01_17h32.22.953,HW_LDT_1,2024.2.4,MacIntel,60.24096386,,,,,,,,,,,,,,,,,,,,,916.4533,916.6333,916.6335,917.1298,,,,,,,,,,,,,,1.4736,1,,,,,,,,,,,,,,z,,,,,,,,,,,,,,,,156,0,917.1303,918.605,z,1,1.4736,,[],[],[],[],[],[],[],918.6051,920.5924,920.5925,920.5926,[],[],[],[],[],[],[],,920.5927,920.5928,-0.017145615,-0.393894196,0,0,0,,0,155,155,0,1,2,RL,adnicory,print,adnicory_p.png,,,,,,
,,,,32363,001,2025-12-01_17h32.22.953,HW_LDT_1,2024.2.4,MacIntel,60.24096386,,,,,,,,,,,,,,,,,,,,,920.5937,920.7817,920.7818,921.2789,,,,,,,,,,,,,,5.7121,1,,,,,,,,,,,,,,m,,,,,,,,,,,,,,,,157,0,921.2794,926.9929,m,1,5.7121,,[],[],[],[],[],[],[],926.993,928.9558,928.9558,928.956,[],[],[],[],[],[],[],,928.9561,928.9562,-0.017145615,-0.393894196,0,0,0,,0,156,156,126,1,2,word,OPTIMAL,cursive,optimal_c.png,,,,,,
,,,,32363,001,2025-12-01_17h32.22.953,HW_LDT_1,2024.2.4,MacIntel,60.24096386,,,,,,,,,,,,,,,,,,,,,928.957,929.136,929.1362,929.6503,,,,,,,,,,,,,,0.8657,1,,,,,,,,,,,,,,z,,,,,,,,,,,,,,,,158,0,929.6512,930.5186,z,1,0.8657,,[],[],[],[],[],[],[],930.5187,932.4975,932.4976,932.4985,[],[],[],[],[],[],[],,932.4986,932.4987,-0.017145615,-0.393894196,0,0,0,,0,157,157,30,1,2,RL,selamor,print,selamor_p.png,,,,,,
,,,,32363,001,2025-12-01_17h32.22.953,HW_LDT_1,2024.2.4,MacIntel,60.24096386,,,,,,,,,,,,,,,,,,,,,932.4997,932.6812,932.6813,933.2075,,,,,,,,,,,,,,24.9399,1,,,,,,,,,,,,,,m,,,,,,,,,,,,,,,,159,0,933.2079,958.1493,m,1,24.9399,,[],[],[],[],[],[],[],958.1495,960.1318,960.1318,960.132,[],[],[],[],[],[],[],,960.1321,960.1321,-0.017145615,-0.393894196,0,0,0,,0,158,158,92,1,2,word,CATEGORY,print,category_p.png,,,,,,
,,,,32363,001,2025-12-01_17h32.22.953,HW_LDT_1,2024.2.4,MacIntel,60.24096386,,,,,,,,,,,,,,,,,,,,,960.1331,960.347,960.347,960.8131,,,,,,,,,,,,,,1.5718,1,,,,,,,,,,,,,,z,,,,,,,,,,,,,,,,160,0,960.8135,962.3867,z,1,1.5718,,[],[],[],[],[],[],[],962.3868,964.367,964.367,964.3671,[],[],[],[],[],[],[],,964.3671,964.3672,-0.017145615,-0.393894196,0,0,0,,0,159,159,2,1,2,RL,casagity,print,casagity_p.png,,,,,,
,,,,32363,001,2025-12-01_17h32.22.953,HW_LDT_1,2024.2.4,MacIntel,60.24096386,,,,,,,,,,,,,,,,,,,,,,,,,,,,,,,,,,,,,,,,,,,,,,,,,,,,,,,,,,,,,,,,,,,,,,,,,,,,,,,,,,,,,,,,,,,,,,,,,,,,,,,,,,,,,,,,,,,,,,964.3809,969.3669
